Instruction,Stimulus,Key,RT,START,END,Phase,Block,TrialN,NbackLevel,ISI,LetterN,Letter,Letter_isSame,Letter_Resp,Letter_RT,Letter_Accuracy,Letter_Timeout,Trial_A_measure,Trial_HR,Trial_FAR,Trial_CDR,Trial_MSR,Trial_ACC,Trial_RT,Trial_HitsCount,Trial_FAsCount,Trial_SameNoRespCount,Trial_DiffNoRespCount,Trial_NoRespCount,Trial_CDsCount,Trial_CorrectRespCount,Trial_SameLetterCount,Trial_DiffLetterCount,Trial_InvalidLetterCount,TrialCountCali,CaliEnd_A_measure,ISI_calibrated,Run,TrialIndex,TrialNumber_total,TrialNumber_valid,CueLearning,TrialDemandLearning,CueMapping,OnlineRating,OnlineRatingRT,OnlineRatingTimeOut,CueSTART,RatingSTART,OfflineRatingTimePoint,OfflineRatingQuesIndex,CueFigure,TrialDemand,OfflineRating,OfflineRatingRT,CueStart,OfflineRatingStart,PhaseType,CueLeft,CueDemandLeft,CueRight,CueDemandRight,Choice,ChoiceDemand,TaskDemand,ChoiceRT,ChoiceTimeOut,ChoiceSTART,CueCheck,CueDemandCheck,CorrectAnswer,Answer,AnswerDemand,AnswerRT,AnswerACC,AnswerTimeOut,CheckSTART,DemandRatingQuesIndex,QuesTLX,DemandLevel,DemandRating,DemandRatingRT,QuesStart,PID,SONA,Age,Gender,Run,TIME,EXPERIMENTER,frameRate,
-1,./instructions/inst_begin/Slide2.png,left,23.30114545999095,0.11949908701353706,23.420644547004486,,,,,,,,,,,,,,,,,,,,,,,,,,,,,,,,,1,,,,,,,,,,,,,,,,,,,,,,,,,,,,,,,,,,,,,,,,,,,,,,98,146605,21,Female,1,2024/03/18_12:18:34,YZ,None,
0,./instructions/inst_begin/Slide4.png,right,19.75394892701297,23.450380852998933,43.2043297800119,,,,,,,,,,,,,,,,,,,,,,,,,,,,,,,,,1,,,,,,,,,,,,,,,,,,,,,,,,,,,,,,,,,,,,,,,,,,,,,,98,146605,21,Female,1,2024/03/18_12:18:34,YZ,None,
1,./instructions/inst_begin/Slide2.png,right,6.435953498992603,43.232366358017316,49.66831985700992,,,,,,,,,,,,,,,,,,,,,,,,,,,,,,,,,1,,,,,,,,,,,,,,,,,,,,,,,,,,,,,,,,,,,,,,,,,,,,,,98,146605,21,Female,1,2024/03/18_12:18:34,YZ,None,
2,./instructions/inst_begin/Slide3.png,right,15.9391581749951,49.69732320201001,65.63648137700511,,,,,,,,,,,,,,,,,,,,,,,,,,,,,,,,,1,,,,,,,,,,,,,,,,,,,,,,,,,,,,,,,,,,,,,,,,,,,,,,98,146605,21,Female,1,2024/03/18_12:18:34,YZ,None,
3,./instructions/inst_begin/Slide4.png,right,8.131479096016847,65.66506577300606,73.79654486902291,,,,,,,,,,,,,,,,,,,,,,,,,,,,,,,,,1,,,,,,,,,,,,,,,,,,,,,,,,,,,,,,,,,,,,,,,,,,,,,,98,146605,21,Female,1,2024/03/18_12:18:34,YZ,None,
1,./instructions/inst_prac_2/Slide6.png,right,23.718459224997787,73.8299908140034,97.54845003900118,,,,,,,,,,,,,,,,,,,,,,,,,,,,,,,,,1,,,,,,,,,,,,,,,,,,,,,,,,,,,,,,,,,,,,,,,,,,,,,,98,146605,21,Female,1,2024/03/18_12:18:34,YZ,None,
2,./instructions/inst_prac_2/Slide7.png,right,0.2003803449915722,97.57777219000855,97.77815253500012,,,,,,,,,,,,,,,,,,,,,,,,,,,,,,,,,1,,,,,,,,,,,,,,,,,,,,,,,,,,,,,,,,,,,,,,,,,,,,,,98,146605,21,Female,1,2024/03/18_12:18:34,YZ,None,
3,./instructions/inst_prac_2/Slide8.png,right,22.46741094699246,97.80085484002484,120.2682657870173,,,,,,,,,,,,,,,,,,,,,,,,,,,,,,,,,1,,,,,,,,,,,,,,,,,,,,,,,,,,,,,,,,,,,,,,,,,,,,,,98,146605,21,Female,1,2024/03/18_12:18:34,YZ,None,
4,./instructions/inst_prac_2/Slide9.png,right,12.050953632016899,120.29747106399736,132.34842469601426,,,,,,,,,,,,,,,,,,,,,,,,,,,,,,,,,1,,,,,,,,,,,,,,,,,,,,,,,,,,,,,,,,,,,,,,,,,,,,,,98,146605,21,Female,1,2024/03/18_12:18:34,YZ,None,
5,./instructions/inst_prac_2/Slide10.png,right,5.8589680879958905,132.3776506310096,138.2366187190055,,,,,,,,,,,,,,,,,,,,,,,,,,,,,,,,,1,,,,,,,,,,,,,,,,,,,,,,,,,,,,,,,,,,,,,,,,,,,,,,98,146605,21,Female,1,2024/03/18_12:18:34,YZ,None,
6,./instructions/inst_prac_2/Slide11.png,right,5.330630023003323,138.26574110399815,143.59637112700148,,,,,,,,,,,,,,,,,,,,,,,,,,,,,,,,,1,,,,,,,,,,,,,,,,,,,,,,,,,,,,,,,,,,,,,,,,,,,,,,98,146605,21,Female,1,2024/03/18_12:18:34,YZ,None,
7,./instructions/inst_prac_2/Slide12.png,right,3.2933410279802047,143.62294151302194,146.91628254100215,,,,,,,,,,,,,,,,,,,,,,,,,,,,,,,,,1,,,,,,,,,,,,,,,,,,,,,,,,,,,,,,,,,,,,,,,,,,,,,,98,146605,21,Female,1,2024/03/18_12:18:34,YZ,None,
8,./instructions/inst_prac_2/Slide13.png,right,7.726227589999326,146.94225914400886,154.66848673400818,,,,,,,,,,,,,,,,,,,,,,,,,,,,,,,,,1,,,,,,,,,,,,,,,,,,,,,,,,,,,,,,,,,,,,,,,,,,,,,,98,146605,21,Female,1,2024/03/18_12:18:34,YZ,None,
9,./instructions/inst_prac_2/Slide14.png,right,27.611648967984365,154.69689602102153,182.3085449890059,,,,,,,,,,,,,,,,,,,,,,,,,,,,,,,,,1,,,,,,,,,,,,,,,,,,,,,,,,,,,,,,,,,,,,,,,,,,,,,,98,146605,21,Female,1,2024/03/18_12:18:34,YZ,None,
10,./instructions/inst_prac_2/Slide15.png,right,41.81322649001959,182.33506040400243,224.14828689402202,,,,,,,,,,,,,,,,,,,,,,,,,,,,,,,,,1,,,,,,,,,,,,,,,,,,,,,,,,,,,,,,,,,,,,,,,,,,,,,,98,146605,21,Female,1,2024/03/18_12:18:34,YZ,None,
,,,,,,practice,0,29,2,2583,1,F,0,right,4.617459366010735,1,0,,,,,,,,,,,,,,,,,,,,,1,,,,,,,,,,,,,,,,,,,,,,,,,,,,,,,,,,,,,,,,,,,,,,98,146605,21,Female,1,2024/03/18_12:18:34,YZ,None,
,,,,,,practice,0,29,2,2583,2,J,0,right,3.0935549509886187,1,0,,,,,,,,,,,,,,,,,,,,,1,,,,,,,,,,,,,,,,,,,,,,,,,,,,,,,,,,,,,,,,,,,,,,98,146605,21,Female,1,2024/03/18_12:18:34,YZ,None,
,,,,,,practice,0,29,2,2583,3,N,0,right,1.2398544159950688,1,0,,,,,,,,,,,,,,,,,,,,,1,,,,,,,,,,,,,,,,,,,,,,,,,,,,,,,,,,,,,,,,,,,,,,98,146605,21,Female,1,2024/03/18_12:18:34,YZ,None,
,,,,,,practice,0,29,2,2583,4,J,1,left,1.7476313929946627,1,0,,,,,,,,,,,,,,,,,,,,,1,,,,,,,,,,,,,,,,,,,,,,,,,,,,,,,,,,,,,,,,,,,,,,98,146605,21,Female,1,2024/03/18_12:18:34,YZ,None,
,,,,,,practice,0,29,2,2583,5,F,0,right,2.288854092010297,1,0,,,,,,,,,,,,,,,,,,,,,1,,,,,,,,,,,,,,,,,,,,,,,,,,,,,,,,,,,,,,,,,,,,,,98,146605,21,Female,1,2024/03/18_12:18:34,YZ,None,
,,,,,,practice,0,29,2,2583,6,J,1,left,1.2996666520193685,1,0,,,,,,,,,,,,,,,,,,,,,1,,,,,,,,,,,,,,,,,,,,,,,,,,,,,,,,,,,,,,,,,,,,,,98,146605,21,Female,1,2024/03/18_12:18:34,YZ,None,
,,,,,,practice,0,29,2,2583,,,,,,,,1.0,1.0,0.0,1.0,0.0,1.0,2.381170145003125,2,0,0,0,0,4,6,2,4,0,,,,1,,,,,,,,,,,,,,,,,,,,,,,,,,,,,,,,,,,,,,,,,,,,,,98,146605,21,Female,1,2024/03/18_12:18:34,YZ,None,
1,./instructions/inst_to_cali/Slide20.png,right,19.49641113501275,244.78005214899895,264.2764632840117,,,,,,,,,,,,,,,,,,,,,,,,,,,,,,,,,1,,,,,,,,,,,,,,,,,,,,,,,,,,,,,,,,,,,,,,,,,,,,,,98,146605,21,Female,1,2024/03/18_12:18:34,YZ,None,
1,./instructions/inst_cali/Slide22.png,right,39.406736166012706,264.30979645901243,303.71653262502514,,,,,,,,,,,,,,,,,,,,,,,,,,,,,,,,,1,,,,,,,,,,,,,,,,,,,,,,,,,,,,,,,,,,,,,,,,,,,,,,98,146605,21,Female,1,2024/03/18_12:18:34,YZ,None,
,,,,,,calibration,0,12,2,583,1,F,0,right,1.075989489996573,1,0,,,,,,,,,,,,,,,,,,,,,1,,,,,,,,,,,,,,,,,,,,,,,,,,,,,,,,,,,,,,,,,,,,,,98,146605,21,Female,1,2024/03/18_12:18:34,YZ,None,
,,,,,,calibration,0,12,2,583,2,X,0,right,0.8321838319825474,1,0,,,,,,,,,,,,,,,,,,,,,1,,,,,,,,,,,,,,,,,,,,,,,,,,,,,,,,,,,,,,,,,,,,,,98,146605,21,Female,1,2024/03/18_12:18:34,YZ,None,
,,,,,,calibration,0,12,2,583,3,F,1,left,0.530746881995583,1,0,,,,,,,,,,,,,,,,,,,,,1,,,,,,,,,,,,,,,,,,,,,,,,,,,,,,,,,,,,,,,,,,,,,,98,146605,21,Female,1,2024/03/18_12:18:34,YZ,None,
,,,,,,calibration,0,12,2,583,4,X,1,left,0.9502140459953807,1,0,,,,,,,,,,,,,,,,,,,,,1,,,,,,,,,,,,,,,,,,,,,,,,,,,,,,,,,,,,,,,,,,,,,,98,146605,21,Female,1,2024/03/18_12:18:34,YZ,None,
,,,,,,calibration,0,12,2,583,5,S,0,left,1.097989638976287,0,0,,,,,,,,,,,,,,,,,,,,,1,,,,,,,,,,,,,,,,,,,,,,,,,,,,,,,,,,,,,,,,,,,,,,98,146605,21,Female,1,2024/03/18_12:18:34,YZ,None,
,,,,,,calibration,0,12,2,583,6,X,1,right,0.7418760980071966,0,0,,,,,,,,,,,,,,,,,,,,,1,,,,,,,,,,,,,,,,,,,,,,,,,,,,,,,,,,,,,,,,,,,,,,98,146605,21,Female,1,2024/03/18_12:18:34,YZ,None,
,,,,,,calibration,0,12,2,583,7,V,0,right,1.0425909639743622,1,0,,,,,,,,,,,,,,,,,,,,,1,,,,,,,,,,,,,,,,,,,,,,,,,,,,,,,,,,,,,,,,,,,,,,98,146605,21,Female,1,2024/03/18_12:18:34,YZ,None,
,,,,,,calibration,0,12,2,583,8,X,1,left,0.7077134599967394,1,0,,,,,,,,,,,,,,,,,,,,,1,,,,,,,,,,,,,,,,,,,,,,,,,,,,,,,,,,,,,,,,,,,,,,98,146605,21,Female,1,2024/03/18_12:18:34,YZ,None,
,,,,,,calibration,0,12,2,583,9,S,0,right,0.9872688460163772,1,0,,,,,,,,,,,,,,,,,,,,,1,,,,,,,,,,,,,,,,,,,,,,,,,,,,,,,,,,,,,,,,,,,,,,98,146605,21,Female,1,2024/03/18_12:18:34,YZ,None,
,,,,,,calibration,0,12,2,583,10,C,0,right,0.8904074850142933,1,0,,,,,,,,,,,,,,,,,,,,,1,,,,,,,,,,,,,,,,,,,,,,,,,,,,,,,,,,,,,,,,,,,,,,98,146605,21,Female,1,2024/03/18_12:18:34,YZ,None,
,,,,,,calibration,0,12,2,583,11,S,1,left,0.7687045900092926,1,0,,,,,,,,,,,,,,,,,,,,,1,,,,,,,,,,,,,,,,,,,,,,,,,,,,,,,,,,,,,,,,,,,,,,98,146605,21,Female,1,2024/03/18_12:18:34,YZ,None,
,,,,,,calibration,0,12,2,583,12,N,0,right,0.5682107839966193,1,0,,,,,,,,,,,,,,,,,,,,,1,,,,,,,,,,,,,,,,,,,,,,,,,,,,,,,,,,,,,,,,,,,,,,98,146605,21,Female,1,2024/03/18_12:18:34,YZ,None,
,,,,,,calibration,0,12,2,583,13,X,0,right,0.8629996199742891,1,0,,,,,,,,,,,,,,,,,,,,,1,,,,,,,,,,,,,,,,,,,,,,,,,,,,,,,,,,,,,,,,,,,,,,98,146605,21,Female,1,2024/03/18_12:18:34,YZ,None,
,,,,,,calibration,0,12,2,583,14,Q,0,right,0.6574302460066974,1,0,,,,,,,,,,,,,,,,,,,,,1,,,,,,,,,,,,,,,,,,,,,,,,,,,,,,,,,,,,,,,,,,,,,,98,146605,21,Female,1,2024/03/18_12:18:34,YZ,None,
,,,,,,calibration,0,12,2,583,15,V,0,right,0.7837548399984371,1,0,,,,,,,,,,,,,,,,,,,,,1,,,,,,,,,,,,,,,,,,,,,,,,,,,,,,,,,,,,,,,,,,,,,,98,146605,21,Female,1,2024/03/18_12:18:34,YZ,None,
,,,,,,calibration,0,12,2,583,,,,,,,,0.905,0.8,0.1,0.9,0.0,0.9,0.8332053881293784,4,1,0,0,0,9,13,5,10,0,,,,1,,,,,,,,,,,,,,,,,,,,,,,,,,,,,,,,,,,,,,,,,,,,,,98,146605,21,Female,1,2024/03/18_12:18:34,YZ,None,
,,,,,,Calibration,0,,2,583,,,,,,,,,,,,,,,,,,,,,,,,,1,,,1,,,,,,,,,,,,,,,,,,,,,,,,,,,,,,,,,,,,,,,,,,,,,,98,146605,21,Female,1,2024/03/18_12:18:34,YZ,None,
,,,,,,calibration,0,23,2,500,1,S,0,None,nan,0,1,,,,,,,,,,,,,,,,,,,,,1,,,,,,,,,,,,,,,,,,,,,,,,,,,,,,,,,,,,,,,,,,,,,,98,146605,21,Female,1,2024/03/18_12:18:34,YZ,None,
,,,,,,calibration,0,23,2,500,2,Q,0,right,0.6077888989821076,1,0,,,,,,,,,,,,,,,,,,,,,1,,,,,,,,,,,,,,,,,,,,,,,,,,,,,,,,,,,,,,,,,,,,,,98,146605,21,Female,1,2024/03/18_12:18:34,YZ,None,
,,,,,,calibration,0,23,2,500,3,F,0,right,0.4150218059949111,1,0,,,,,,,,,,,,,,,,,,,,,1,,,,,,,,,,,,,,,,,,,,,,,,,,,,,,,,,,,,,,,,,,,,,,98,146605,21,Female,1,2024/03/18_12:18:34,YZ,None,
,,,,,,calibration,0,23,2,500,4,V,0,right,0.5305305510119069,1,0,,,,,,,,,,,,,,,,,,,,,1,,,,,,,,,,,,,,,,,,,,,,,,,,,,,,,,,,,,,,,,,,,,,,98,146605,21,Female,1,2024/03/18_12:18:34,YZ,None,
,,,,,,calibration,0,23,2,500,5,F,1,right,0.4060618309886195,0,0,,,,,,,,,,,,,,,,,,,,,1,,,,,,,,,,,,,,,,,,,,,,,,,,,,,,,,,,,,,,,,,,,,,,98,146605,21,Female,1,2024/03/18_12:18:34,YZ,None,
,,,,,,calibration,0,23,2,500,6,V,1,right,0.5666101179958787,0,0,,,,,,,,,,,,,,,,,,,,,1,,,,,,,,,,,,,,,,,,,,,,,,,,,,,,,,,,,,,,,,,,,,,,98,146605,21,Female,1,2024/03/18_12:18:34,YZ,None,
,,,,,,calibration,0,23,2,500,7,X,0,left,0.4293904239893891,0,0,,,,,,,,,,,,,,,,,,,,,1,,,,,,,,,,,,,,,,,,,,,,,,,,,,,,,,,,,,,,,,,,,,,,98,146605,21,Female,1,2024/03/18_12:18:34,YZ,None,
,,,,,,calibration,0,23,2,500,8,C,0,right,0.41255519300466403,1,0,,,,,,,,,,,,,,,,,,,,,1,,,,,,,,,,,,,,,,,,,,,,,,,,,,,,,,,,,,,,,,,,,,,,98,146605,21,Female,1,2024/03/18_12:18:34,YZ,None,
,,,,,,calibration,0,23,2,500,9,X,1,left,0.5343516300199553,1,0,,,,,,,,,,,,,,,,,,,,,1,,,,,,,,,,,,,,,,,,,,,,,,,,,,,,,,,,,,,,,,,,,,,,98,146605,21,Female,1,2024/03/18_12:18:34,YZ,None,
,,,,,,calibration,0,23,2,500,10,Q,0,right,0.7967529729939997,1,0,,,,,,,,,,,,,,,,,,,,,1,,,,,,,,,,,,,,,,,,,,,,,,,,,,,,,,,,,,,,,,,,,,,,98,146605,21,Female,1,2024/03/18_12:18:34,YZ,None,
,,,,,,calibration,0,23,2,500,11,F,0,left,0.8487803229945712,0,0,,,,,,,,,,,,,,,,,,,,,1,,,,,,,,,,,,,,,,,,,,,,,,,,,,,,,,,,,,,,,,,,,,,,98,146605,21,Female,1,2024/03/18_12:18:34,YZ,None,
,,,,,,calibration,0,23,2,500,12,X,0,right,0.5123766319884453,1,0,,,,,,,,,,,,,,,,,,,,,1,,,,,,,,,,,,,,,,,,,,,,,,,,,,,,,,,,,,,,,,,,,,,,98,146605,21,Female,1,2024/03/18_12:18:34,YZ,None,
,,,,,,calibration,0,23,2,500,13,J,0,right,0.6741635970247444,1,0,,,,,,,,,,,,,,,,,,,,,1,,,,,,,,,,,,,,,,,,,,,,,,,,,,,,,,,,,,,,,,,,,,,,98,146605,21,Female,1,2024/03/18_12:18:34,YZ,None,
,,,,,,calibration,0,23,2,500,14,X,1,left,0.5299548019829672,1,0,,,,,,,,,,,,,,,,,,,,,1,,,,,,,,,,,,,,,,,,,,,,,,,,,,,,,,,,,,,,,,,,,,,,98,146605,21,Female,1,2024/03/18_12:18:34,YZ,None,
,,,,,,calibration,0,23,2,500,15,S,0,right,0.6314197049941868,1,0,,,,,,,,,,,,,,,,,,,,,1,,,,,,,,,,,,,,,,,,,,,,,,,,,,,,,,,,,,,,,,,,,,,,98,146605,21,Female,1,2024/03/18_12:18:34,YZ,None,
,,,,,,calibration,0,23,2,500,16,J,0,right,0.5579564049839973,1,0,,,,,,,,,,,,,,,,,,,,,1,,,,,,,,,,,,,,,,,,,,,,,,,,,,,,,,,,,,,,,,,,,,,,98,146605,21,Female,1,2024/03/18_12:18:34,YZ,None,
,,,,,,calibration,0,23,2,500,,,,,,,,0.75,0.5,0.16666666666666666,0.8181818181818182,0.0625,0.7708333333333334,0.5635809925966896,2,2,0,1,1,9,11,4,12,0,,,,1,,,,,,,,,,,,,,,,,,,,,,,,,,,,,,,,,,,,,,,,,,,,,,98,146605,21,Female,1,2024/03/18_12:18:34,YZ,None,
,,,,,,Calibration,0,,2,500,,,,,,,,,,,,,,,,,,,,,,,,,2,,,1,,,,,,,,,,,,,,,,,,,,,,,,,,,,,,,,,,,,,,,,,,,,,,98,146605,21,Female,1,2024/03/18_12:18:34,YZ,None,
,,,,,,calibration,0,21,2,500,1,Q,0,None,nan,0,1,,,,,,,,,,,,,,,,,,,,,1,,,,,,,,,,,,,,,,,,,,,,,,,,,,,,,,,,,,,,,,,,,,,,98,146605,21,Female,1,2024/03/18_12:18:34,YZ,None,
,,,,,,calibration,0,21,2,500,2,C,0,right,0.48067017301218584,1,0,,,,,,,,,,,,,,,,,,,,,1,,,,,,,,,,,,,,,,,,,,,,,,,,,,,,,,,,,,,,,,,,,,,,98,146605,21,Female,1,2024/03/18_12:18:34,YZ,None,
,,,,,,calibration,0,21,2,500,3,Q,1,left,0.3992272620089352,1,0,,,,,,,,,,,,,,,,,,,,,1,,,,,,,,,,,,,,,,,,,,,,,,,,,,,,,,,,,,,,,,,,,,,,98,146605,21,Female,1,2024/03/18_12:18:34,YZ,None,
,,,,,,calibration,0,21,2,500,4,S,0,right,0.536394405993633,1,0,,,,,,,,,,,,,,,,,,,,,1,,,,,,,,,,,,,,,,,,,,,,,,,,,,,,,,,,,,,,,,,,,,,,98,146605,21,Female,1,2024/03/18_12:18:34,YZ,None,
,,,,,,calibration,0,21,2,500,5,Q,1,left,0.6242405530065298,1,0,,,,,,,,,,,,,,,,,,,,,1,,,,,,,,,,,,,,,,,,,,,,,,,,,,,,,,,,,,,,,,,,,,,,98,146605,21,Female,1,2024/03/18_12:18:34,YZ,None,
,,,,,,calibration,0,21,2,500,6,N,0,right,0.4132370319857728,1,0,,,,,,,,,,,,,,,,,,,,,1,,,,,,,,,,,,,,,,,,,,,,,,,,,,,,,,,,,,,,,,,,,,,,98,146605,21,Female,1,2024/03/18_12:18:34,YZ,None,
,,,,,,calibration,0,21,2,500,7,F,0,right,0.7197201220260467,1,0,,,,,,,,,,,,,,,,,,,,,1,,,,,,,,,,,,,,,,,,,,,,,,,,,,,,,,,,,,,,,,,,,,,,98,146605,21,Female,1,2024/03/18_12:18:34,YZ,None,
,,,,,,calibration,0,21,2,500,8,V,0,left,0.463849282998126,0,0,,,,,,,,,,,,,,,,,,,,,1,,,,,,,,,,,,,,,,,,,,,,,,,,,,,,,,,,,,,,,,,,,,,,98,146605,21,Female,1,2024/03/18_12:18:34,YZ,None,
,,,,,,calibration,0,21,2,500,9,X,0,right,0.5258332589874044,1,0,,,,,,,,,,,,,,,,,,,,,1,,,,,,,,,,,,,,,,,,,,,,,,,,,,,,,,,,,,,,,,,,,,,,98,146605,21,Female,1,2024/03/18_12:18:34,YZ,None,
,,,,,,calibration,0,21,2,500,10,V,1,left,0.6147774069977459,1,0,,,,,,,,,,,,,,,,,,,,,1,,,,,,,,,,,,,,,,,,,,,,,,,,,,,,,,,,,,,,,,,,,,,,98,146605,21,Female,1,2024/03/18_12:18:34,YZ,None,
,,,,,,calibration,0,21,2,500,11,X,1,right,0.548227688006591,0,0,,,,,,,,,,,,,,,,,,,,,1,,,,,,,,,,,,,,,,,,,,,,,,,,,,,,,,,,,,,,,,,,,,,,98,146605,21,Female,1,2024/03/18_12:18:34,YZ,None,
,,,,,,calibration,0,21,2,500,12,C,0,right,0.48576393601251766,1,0,,,,,,,,,,,,,,,,,,,,,1,,,,,,,,,,,,,,,,,,,,,,,,,,,,,,,,,,,,,,,,,,,,,,98,146605,21,Female,1,2024/03/18_12:18:34,YZ,None,
,,,,,,calibration,0,21,2,500,13,X,1,left,0.5122341879759915,1,0,,,,,,,,,,,,,,,,,,,,,1,,,,,,,,,,,,,,,,,,,,,,,,,,,,,,,,,,,,,,,,,,,,,,98,146605,21,Female,1,2024/03/18_12:18:34,YZ,None,
,,,,,,calibration,0,21,2,500,14,S,0,right,0.8000620770035312,1,0,,,,,,,,,,,,,,,,,,,,,1,,,,,,,,,,,,,,,,,,,,,,,,,,,,,,,,,,,,,,,,,,,,,,98,146605,21,Female,1,2024/03/18_12:18:34,YZ,None,
,,,,,,calibration,0,21,2,500,15,V,0,right,0.5818391369830351,1,0,,,,,,,,,,,,,,,,,,,,,1,,,,,,,,,,,,,,,,,,,,,,,,,,,,,,,,,,,,,,,,,,,,,,98,146605,21,Female,1,2024/03/18_12:18:34,YZ,None,
,,,,,,calibration,0,21,2,500,16,N,0,right,0.6079734469822142,1,0,,,,,,,,,,,,,,,,,,,,,1,,,,,,,,,,,,,,,,,,,,,,,,,,,,,,,,,,,,,,,,,,,,,,98,146605,21,Female,1,2024/03/18_12:18:34,YZ,None,
,,,,,,calibration,0,21,2,500,,,,,,,,0.9090909090909091,0.8,0.09090909090909091,0.9,0.0625,0.8465909090909091,0.554269997998684,4,1,0,1,1,9,13,5,11,0,,,,1,,,,,,,,,,,,,,,,,,,,,,,,,,,,,,,,,,,,,,,,,,,,,,98,146605,21,Female,1,2024/03/18_12:18:34,YZ,None,
,,,,,,Calibration,0,,2,500,,,,,,,,,,,,,,,,,,,,,,,,,3,,,1,,,,,,,,,,,,,,,,,,,,,,,,,,,,,,,,,,,,,,,,,,,,,,98,146605,21,Female,1,2024/03/18_12:18:34,YZ,None,
,,,,,,calibration,0,22,2,426,1,F,0,right,0.558297167008277,1,0,,,,,,,,,,,,,,,,,,,,,1,,,,,,,,,,,,,,,,,,,,,,,,,,,,,,,,,,,,,,,,,,,,,,98,146605,21,Female,1,2024/03/18_12:18:34,YZ,None,
,,,,,,calibration,0,22,2,426,2,Q,0,right,0.3752699389879126,1,0,,,,,,,,,,,,,,,,,,,,,1,,,,,,,,,,,,,,,,,,,,,,,,,,,,,,,,,,,,,,,,,,,,,,98,146605,21,Female,1,2024/03/18_12:18:34,YZ,None,
,,,,,,calibration,0,22,2,426,3,N,0,right,0.49877746499259956,1,0,,,,,,,,,,,,,,,,,,,,,1,,,,,,,,,,,,,,,,,,,,,,,,,,,,,,,,,,,,,,,,,,,,,,98,146605,21,Female,1,2024/03/18_12:18:34,YZ,None,
,,,,,,calibration,0,22,2,426,4,Q,1,left,0.48733617999823764,1,0,,,,,,,,,,,,,,,,,,,,,1,,,,,,,,,,,,,,,,,,,,,,,,,,,,,,,,,,,,,,,,,,,,,,98,146605,21,Female,1,2024/03/18_12:18:34,YZ,None,
,,,,,,calibration,0,22,2,426,5,V,0,right,0.5258634499914479,1,0,,,,,,,,,,,,,,,,,,,,,1,,,,,,,,,,,,,,,,,,,,,,,,,,,,,,,,,,,,,,,,,,,,,,98,146605,21,Female,1,2024/03/18_12:18:34,YZ,None,
,,,,,,calibration,0,22,2,426,6,Q,1,left,0.6007962810108438,1,0,,,,,,,,,,,,,,,,,,,,,1,,,,,,,,,,,,,,,,,,,,,,,,,,,,,,,,,,,,,,,,,,,,,,98,146605,21,Female,1,2024/03/18_12:18:34,YZ,None,
,,,,,,calibration,0,22,2,426,7,C,0,right,0.5642622850136831,1,0,,,,,,,,,,,,,,,,,,,,,1,,,,,,,,,,,,,,,,,,,,,,,,,,,,,,,,,,,,,,,,,,,,,,98,146605,21,Female,1,2024/03/18_12:18:34,YZ,None,
,,,,,,calibration,0,22,2,426,8,N,0,right,0.8241929759969935,1,0,,,,,,,,,,,,,,,,,,,,,1,,,,,,,,,,,,,,,,,,,,,,,,,,,,,,,,,,,,,,,,,,,,,,98,146605,21,Female,1,2024/03/18_12:18:34,YZ,None,
,,,,,,calibration,0,22,2,426,9,V,0,right,0.9566007949761115,1,0,,,,,,,,,,,,,,,,,,,,,1,,,,,,,,,,,,,,,,,,,,,,,,,,,,,,,,,,,,,,,,,,,,,,98,146605,21,Female,1,2024/03/18_12:18:34,YZ,None,
,,,,,,calibration,0,22,2,426,10,X,0,right,0.5926279410196003,1,0,,,,,,,,,,,,,,,,,,,,,1,,,,,,,,,,,,,,,,,,,,,,,,,,,,,,,,,,,,,,,,,,,,,,98,146605,21,Female,1,2024/03/18_12:18:34,YZ,None,
,,,,,,calibration,0,22,2,426,11,S,0,right,0.5577933239983395,1,0,,,,,,,,,,,,,,,,,,,,,1,,,,,,,,,,,,,,,,,,,,,,,,,,,,,,,,,,,,,,,,,,,,,,98,146605,21,Female,1,2024/03/18_12:18:34,YZ,None,
,,,,,,calibration,0,22,2,426,12,X,1,left,0.5359117579937447,1,0,,,,,,,,,,,,,,,,,,,,,1,,,,,,,,,,,,,,,,,,,,,,,,,,,,,,,,,,,,,,,,,,,,,,98,146605,21,Female,1,2024/03/18_12:18:34,YZ,None,
,,,,,,calibration,0,22,2,426,13,S,1,right,0.45061304498813115,0,0,,,,,,,,,,,,,,,,,,,,,1,,,,,,,,,,,,,,,,,,,,,,,,,,,,,,,,,,,,,,,,,,,,,,98,146605,21,Female,1,2024/03/18_12:18:34,YZ,None,
,,,,,,calibration,0,22,2,426,14,V,0,left,0.6847887449839618,0,0,,,,,,,,,,,,,,,,,,,,,1,,,,,,,,,,,,,,,,,,,,,,,,,,,,,,,,,,,,,,,,,,,,,,98,146605,21,Female,1,2024/03/18_12:18:34,YZ,None,
,,,,,,calibration,0,22,2,426,15,J,0,right,0.4435842969978694,1,0,,,,,,,,,,,,,,,,,,,,,1,,,,,,,,,,,,,,,,,,,,,,,,,,,,,,,,,,,,,,,,,,,,,,98,146605,21,Female,1,2024/03/18_12:18:34,YZ,None,
,,,,,,calibration,0,22,2,426,16,V,1,left,0.524937100999523,1,0,,,,,,,,,,,,,,,,,,,,,1,,,,,,,,,,,,,,,,,,,,,,,,,,,,,,,,,,,,,,,,,,,,,,98,146605,21,Female,1,2024/03/18_12:18:34,YZ,None,
,,,,,,calibration,0,22,2,426,17,S,0,right,0.7924901579972357,1,0,,,,,,,,,,,,,,,,,,,,,1,,,,,,,,,,,,,,,,,,,,,,,,,,,,,,,,,,,,,,,,,,,,,,98,146605,21,Female,1,2024/03/18_12:18:34,YZ,None,
,,,,,,calibration,0,22,2,426,,,,,,,,0.9125000000000001,0.8,0.08333333333333333,0.9166666666666666,0.0,0.9166666666666666,0.586714288644383,4,1,0,0,0,11,15,5,12,0,,,,1,,,,,,,,,,,,,,,,,,,,,,,,,,,,,,,,,,,,,,,,,,,,,,98,146605,21,Female,1,2024/03/18_12:18:34,YZ,None,
,,,,,,Calibration,0,,2,426,,,,,,,,,,,,,,,,,,,,,,,,,4,,,1,,,,,,,,,,,,,,,,,,,,,,,,,,,,,,,,,,,,,,,,,,,,,,98,146605,21,Female,1,2024/03/18_12:18:34,YZ,None,
,,,,,,calibration,0,18,2,361,1,X,0,right,0.8204343339893967,1,0,,,,,,,,,,,,,,,,,,,,,1,,,,,,,,,,,,,,,,,,,,,,,,,,,,,,,,,,,,,,,,,,,,,,98,146605,21,Female,1,2024/03/18_12:18:34,YZ,None,
,,,,,,calibration,0,18,2,361,2,X,0,right,0.8162497550074477,1,0,,,,,,,,,,,,,,,,,,,,,1,,,,,,,,,,,,,,,,,,,,,,,,,,,,,,,,,,,,,,,,,,,,,,98,146605,21,Female,1,2024/03/18_12:18:34,YZ,None,
,,,,,,calibration,0,18,2,361,3,C,0,right,0.8314429780002683,1,0,,,,,,,,,,,,,,,,,,,,,1,,,,,,,,,,,,,,,,,,,,,,,,,,,,,,,,,,,,,,,,,,,,,,98,146605,21,Female,1,2024/03/18_12:18:34,YZ,None,
,,,,,,calibration,0,18,2,361,4,N,0,right,0.4545489280135371,1,0,,,,,,,,,,,,,,,,,,,,,1,,,,,,,,,,,,,,,,,,,,,,,,,,,,,,,,,,,,,,,,,,,,,,98,146605,21,Female,1,2024/03/18_12:18:34,YZ,None,
,,,,,,calibration,0,18,2,361,5,F,0,right,0.816244836023543,1,0,,,,,,,,,,,,,,,,,,,,,1,,,,,,,,,,,,,,,,,,,,,,,,,,,,,,,,,,,,,,,,,,,,,,98,146605,21,Female,1,2024/03/18_12:18:34,YZ,None,
,,,,,,calibration,0,18,2,361,6,N,1,left,0.4634832369920332,1,0,,,,,,,,,,,,,,,,,,,,,1,,,,,,,,,,,,,,,,,,,,,,,,,,,,,,,,,,,,,,,,,,,,,,98,146605,21,Female,1,2024/03/18_12:18:34,YZ,None,
,,,,,,calibration,0,18,2,361,7,F,1,right,0.5723448029893916,0,0,,,,,,,,,,,,,,,,,,,,,1,,,,,,,,,,,,,,,,,,,,,,,,,,,,,,,,,,,,,,,,,,,,,,98,146605,21,Female,1,2024/03/18_12:18:34,YZ,None,
,,,,,,calibration,0,18,2,361,8,X,0,left,0.5853532599867322,0,0,,,,,,,,,,,,,,,,,,,,,1,,,,,,,,,,,,,,,,,,,,,,,,,,,,,,,,,,,,,,,,,,,,,,98,146605,21,Female,1,2024/03/18_12:18:34,YZ,None,
,,,,,,calibration,0,18,2,361,9,F,1,left,0.9022992020181846,1,0,,,,,,,,,,,,,,,,,,,,,1,,,,,,,,,,,,,,,,,,,,,,,,,,,,,,,,,,,,,,,,,,,,,,98,146605,21,Female,1,2024/03/18_12:18:34,YZ,None,
,,,,,,calibration,0,18,2,361,10,N,0,right,0.4711838789808098,1,0,,,,,,,,,,,,,,,,,,,,,1,,,,,,,,,,,,,,,,,,,,,,,,,,,,,,,,,,,,,,,,,,,,,,98,146605,21,Female,1,2024/03/18_12:18:34,YZ,None,
,,,,,,calibration,0,18,2,361,11,V,0,right,0.7319407900213264,1,0,,,,,,,,,,,,,,,,,,,,,1,,,,,,,,,,,,,,,,,,,,,,,,,,,,,,,,,,,,,,,,,,,,,,98,146605,21,Female,1,2024/03/18_12:18:34,YZ,None,
,,,,,,calibration,0,18,2,361,12,N,1,left,0.3823571400134824,1,0,,,,,,,,,,,,,,,,,,,,,1,,,,,,,,,,,,,,,,,,,,,,,,,,,,,,,,,,,,,,,,,,,,,,98,146605,21,Female,1,2024/03/18_12:18:34,YZ,None,
,,,,,,calibration,0,18,2,361,13,V,1,left,nan,0,1,,,,,,,,,,,,,,,,,,,,,1,,,,,,,,,,,,,,,,,,,,,,,,,,,,,,,,,,,,,,,,,,,,,,98,146605,21,Female,1,2024/03/18_12:18:34,YZ,None,
,,,,,,calibration,0,18,2,361,14,X,0,right,0.7063776439754292,1,0,,,,,,,,,,,,,,,,,,,,,1,,,,,,,,,,,,,,,,,,,,,,,,,,,,,,,,,,,,,,,,,,,,,,98,146605,21,Female,1,2024/03/18_12:18:34,YZ,None,
,,,,,,calibration,0,18,2,361,15,V,1,left,0.7965661079797428,1,0,,,,,,,,,,,,,,,,,,,,,1,,,,,,,,,,,,,,,,,,,,,,,,,,,,,,,,,,,,,,,,,,,,,,98,146605,21,Female,1,2024/03/18_12:18:34,YZ,None,
,,,,,,calibration,0,18,2,361,16,N,0,right,0.7818159110029228,1,0,,,,,,,,,,,,,,,,,,,,,1,,,,,,,,,,,,,,,,,,,,,,,,,,,,,,,,,,,,,,,,,,,,,,98,146605,21,Female,1,2024/03/18_12:18:34,YZ,None,
,,,,,,calibration,0,18,2,361,17,S,0,right,0.523947228997713,1,0,,,,,,,,,,,,,,,,,,,,,1,,,,,,,,,,,,,,,,,,,,,,,,,,,,,,,,,,,,,,,,,,,,,,98,146605,21,Female,1,2024/03/18_12:18:34,YZ,None,
,,,,,,calibration,0,18,2,361,18,F,0,right,0.6049655840033665,1,0,,,,,,,,,,,,,,,,,,,,,1,,,,,,,,,,,,,,,,,,,,,,,,,,,,,,,,,,,,,,,,,,,,,,98,146605,21,Female,1,2024/03/18_12:18:34,YZ,None,
,,,,,,calibration,0,18,2,361,,,,,,,,0.8680555555555555,0.6666666666666666,0.08333333333333333,0.9166666666666666,0.05555555555555555,0.861111111111111,0.6624444481173722,4,1,1,0,1,11,15,6,12,0,,,,1,,,,,,,,,,,,,,,,,,,,,,,,,,,,,,,,,,,,,,,,,,,,,,98,146605,21,Female,1,2024/03/18_12:18:34,YZ,None,
,,,,,,Calibration,0,,2,361,,,,,,,,,,,,,,,,,,,,,,,,,5,,,1,,,,,,,,,,,,,,,,,,,,,,,,,,,,,,,,,,,,,,,,,,,,,,98,146605,21,Female,1,2024/03/18_12:18:34,YZ,None,
,,,,,,calibration,0,28,2,303,1,S,0,right,0.5430272689845879,1,0,,,,,,,,,,,,,,,,,,,,,1,,,,,,,,,,,,,,,,,,,,,,,,,,,,,,,,,,,,,,,,,,,,,,98,146605,21,Female,1,2024/03/18_12:18:34,YZ,None,
,,,,,,calibration,0,28,2,303,2,F,0,right,0.3723672250052914,1,0,,,,,,,,,,,,,,,,,,,,,1,,,,,,,,,,,,,,,,,,,,,,,,,,,,,,,,,,,,,,,,,,,,,,98,146605,21,Female,1,2024/03/18_12:18:34,YZ,None,
,,,,,,calibration,0,28,2,303,3,C,0,right,0.572957373020472,1,0,,,,,,,,,,,,,,,,,,,,,1,,,,,,,,,,,,,,,,,,,,,,,,,,,,,,,,,,,,,,,,,,,,,,98,146605,21,Female,1,2024/03/18_12:18:34,YZ,None,
,,,,,,calibration,0,28,2,303,4,F,1,right,0.6239357459999155,0,0,,,,,,,,,,,,,,,,,,,,,1,,,,,,,,,,,,,,,,,,,,,,,,,,,,,,,,,,,,,,,,,,,,,,98,146605,21,Female,1,2024/03/18_12:18:34,YZ,None,
,,,,,,calibration,0,28,2,303,5,X,0,right,0.42647145700175315,1,0,,,,,,,,,,,,,,,,,,,,,1,,,,,,,,,,,,,,,,,,,,,,,,,,,,,,,,,,,,,,,,,,,,,,98,146605,21,Female,1,2024/03/18_12:18:34,YZ,None,
,,,,,,calibration,0,28,2,303,6,Q,0,right,0.5881691829999909,1,0,,,,,,,,,,,,,,,,,,,,,1,,,,,,,,,,,,,,,,,,,,,,,,,,,,,,,,,,,,,,,,,,,,,,98,146605,21,Female,1,2024/03/18_12:18:34,YZ,None,
,,,,,,calibration,0,28,2,303,7,X,1,left,0.5805687329848297,1,0,,,,,,,,,,,,,,,,,,,,,1,,,,,,,,,,,,,,,,,,,,,,,,,,,,,,,,,,,,,,,,,,,,,,98,146605,21,Female,1,2024/03/18_12:18:34,YZ,None,
,,,,,,calibration,0,28,2,303,8,F,0,right,0.659018403996015,1,0,,,,,,,,,,,,,,,,,,,,,1,,,,,,,,,,,,,,,,,,,,,,,,,,,,,,,,,,,,,,,,,,,,,,98,146605,21,Female,1,2024/03/18_12:18:34,YZ,None,
,,,,,,calibration,0,28,2,303,9,X,1,left,0.47913833500933833,1,0,,,,,,,,,,,,,,,,,,,,,1,,,,,,,,,,,,,,,,,,,,,,,,,,,,,,,,,,,,,,,,,,,,,,98,146605,21,Female,1,2024/03/18_12:18:34,YZ,None,
,,,,,,calibration,0,28,2,303,10,S,0,right,0.47937309701228514,1,0,,,,,,,,,,,,,,,,,,,,,1,,,,,,,,,,,,,,,,,,,,,,,,,,,,,,,,,,,,,,,,,,,,,,98,146605,21,Female,1,2024/03/18_12:18:34,YZ,None,
,,,,,,calibration,0,28,2,303,11,C,0,right,0.5807772460102569,1,0,,,,,,,,,,,,,,,,,,,,,1,,,,,,,,,,,,,,,,,,,,,,,,,,,,,,,,,,,,,,,,,,,,,,98,146605,21,Female,1,2024/03/18_12:18:34,YZ,None,
,,,,,,calibration,0,28,2,303,12,J,0,right,0.439291938993847,1,0,,,,,,,,,,,,,,,,,,,,,1,,,,,,,,,,,,,,,,,,,,,,,,,,,,,,,,,,,,,,,,,,,,,,98,146605,21,Female,1,2024/03/18_12:18:34,YZ,None,
,,,,,,calibration,0,28,2,303,13,Q,0,right,0.5933474199846387,1,0,,,,,,,,,,,,,,,,,,,,,1,,,,,,,,,,,,,,,,,,,,,,,,,,,,,,,,,,,,,,,,,,,,,,98,146605,21,Female,1,2024/03/18_12:18:34,YZ,None,
,,,,,,calibration,0,28,2,303,14,J,1,right,0.5353657490049955,0,0,,,,,,,,,,,,,,,,,,,,,1,,,,,,,,,,,,,,,,,,,,,,,,,,,,,,,,,,,,,,,,,,,,,,98,146605,21,Female,1,2024/03/18_12:18:34,YZ,None,
,,,,,,calibration,0,28,2,303,15,V,0,right,0.6360023620072752,1,0,,,,,,,,,,,,,,,,,,,,,1,,,,,,,,,,,,,,,,,,,,,,,,,,,,,,,,,,,,,,,,,,,,,,98,146605,21,Female,1,2024/03/18_12:18:34,YZ,None,
,,,,,,calibration,0,28,2,303,16,S,0,right,0.6014764409919735,1,0,,,,,,,,,,,,,,,,,,,,,1,,,,,,,,,,,,,,,,,,,,,,,,,,,,,,,,,,,,,,,,,,,,,,98,146605,21,Female,1,2024/03/18_12:18:34,YZ,None,
,,,,,,calibration,0,28,2,303,17,V,1,right,0.7726737640041392,0,0,,,,,,,,,,,,,,,,,,,,,1,,,,,,,,,,,,,,,,,,,,,,,,,,,,,,,,,,,,,,,,,,,,,,98,146605,21,Female,1,2024/03/18_12:18:34,YZ,None,
,,,,,,calibration,0,28,2,303,18,C,0,right,0.607337886991445,1,0,,,,,,,,,,,,,,,,,,,,,1,,,,,,,,,,,,,,,,,,,,,,,,,,,,,,,,,,,,,,,,,,,,,,98,146605,21,Female,1,2024/03/18_12:18:34,YZ,None,
,,,,,,calibration,0,28,2,303,19,V,1,left,0.6147423439833801,1,0,,,,,,,,,,,,,,,,,,,,,1,,,,,,,,,,,,,,,,,,,,,,,,,,,,,,,,,,,,,,,,,,,,,,98,146605,21,Female,1,2024/03/18_12:18:34,YZ,None,
,,,,,,calibration,0,28,2,303,,,,,,,,0.875,0.5,0.0,1.0,0.0,1.0,0.5634758933677069,3,0,0,0,0,13,16,6,13,0,,,,1,,,,,,,,,,,,,,,,,,,,,,,,,,,,,,,,,,,,,,,,,,,,,,98,146605,21,Female,1,2024/03/18_12:18:34,YZ,None,
,,,,,,Calibration,0,,2,303,,,,,,,,,,,,,,,,,,,,,,,,,6,,,1,,,,,,,,,,,,,,,,,,,,,,,,,,,,,,,,,,,,,,,,,,,,,,98,146605,21,Female,1,2024/03/18_12:18:34,YZ,None,
,,,,,,calibration,0,1,2,250,1,Q,0,right,0.47714223599177785,1,0,,,,,,,,,,,,,,,,,,,,,1,,,,,,,,,,,,,,,,,,,,,,,,,,,,,,,,,,,,,,,,,,,,,,98,146605,21,Female,1,2024/03/18_12:18:34,YZ,None,
,,,,,,calibration,0,1,2,250,2,J,0,right,0.42426313599571586,1,0,,,,,,,,,,,,,,,,,,,,,1,,,,,,,,,,,,,,,,,,,,,,,,,,,,,,,,,,,,,,,,,,,,,,98,146605,21,Female,1,2024/03/18_12:18:34,YZ,None,
,,,,,,calibration,0,1,2,250,3,Q,1,left,0.3932601159904152,1,0,,,,,,,,,,,,,,,,,,,,,1,,,,,,,,,,,,,,,,,,,,,,,,,,,,,,,,,,,,,,,,,,,,,,98,146605,21,Female,1,2024/03/18_12:18:34,YZ,None,
,,,,,,calibration,0,1,2,250,4,N,0,right,0.386206240975298,1,0,,,,,,,,,,,,,,,,,,,,,1,,,,,,,,,,,,,,,,,,,,,,,,,,,,,,,,,,,,,,,,,,,,,,98,146605,21,Female,1,2024/03/18_12:18:34,YZ,None,
,,,,,,calibration,0,1,2,250,5,V,0,right,0.4951298340165522,1,0,,,,,,,,,,,,,,,,,,,,,1,,,,,,,,,,,,,,,,,,,,,,,,,,,,,,,,,,,,,,,,,,,,,,98,146605,21,Female,1,2024/03/18_12:18:34,YZ,None,
,,,,,,calibration,0,1,2,250,6,N,1,right,0.5127891410083976,0,0,,,,,,,,,,,,,,,,,,,,,1,,,,,,,,,,,,,,,,,,,,,,,,,,,,,,,,,,,,,,,,,,,,,,98,146605,21,Female,1,2024/03/18_12:18:34,YZ,None,
,,,,,,calibration,0,1,2,250,7,J,0,left,0.6586970479984302,0,0,,,,,,,,,,,,,,,,,,,,,1,,,,,,,,,,,,,,,,,,,,,,,,,,,,,,,,,,,,,,,,,,,,,,98,146605,21,Female,1,2024/03/18_12:18:34,YZ,None,
,,,,,,calibration,0,1,2,250,8,C,0,right,0.0,1,0,,,,,,,,,,,,,,,,,,,,,1,,,,,,,,,,,,,,,,,,,,,,,,,,,,,,,,,,,,,,,,,,,,,,98,146605,21,Female,1,2024/03/18_12:18:34,YZ,None,
,,,,,,calibration,0,1,2,250,9,F,0,right,0.6573713370016776,1,0,,,,,,,,,,,,,,,,,,,,,1,,,,,,,,,,,,,,,,,,,,,,,,,,,,,,,,,,,,,,,,,,,,,,98,146605,21,Female,1,2024/03/18_12:18:34,YZ,None,
,,,,,,calibration,0,1,2,250,10,X,0,right,0.6760582459974103,1,0,,,,,,,,,,,,,,,,,,,,,1,,,,,,,,,,,,,,,,,,,,,,,,,,,,,,,,,,,,,,,,,,,,,,98,146605,21,Female,1,2024/03/18_12:18:34,YZ,None,
,,,,,,calibration,0,1,2,250,11,C,0,right,0.5917766670172568,1,0,,,,,,,,,,,,,,,,,,,,,1,,,,,,,,,,,,,,,,,,,,,,,,,,,,,,,,,,,,,,,,,,,,,,98,146605,21,Female,1,2024/03/18_12:18:34,YZ,None,
,,,,,,calibration,0,1,2,250,12,F,0,left,0.5579173659789376,0,0,,,,,,,,,,,,,,,,,,,,,1,,,,,,,,,,,,,,,,,,,,,,,,,,,,,,,,,,,,,,,,,,,,,,98,146605,21,Female,1,2024/03/18_12:18:34,YZ,None,
,,,,,,calibration,0,1,2,250,13,C,1,right,0.37882553099188954,0,0,,,,,,,,,,,,,,,,,,,,,1,,,,,,,,,,,,,,,,,,,,,,,,,,,,,,,,,,,,,,,,,,,,,,98,146605,21,Female,1,2024/03/18_12:18:34,YZ,None,
,,,,,,calibration,0,1,2,250,14,J,0,right,0.5694822530203965,1,0,,,,,,,,,,,,,,,,,,,,,1,,,,,,,,,,,,,,,,,,,,,,,,,,,,,,,,,,,,,,,,,,,,,,98,146605,21,Female,1,2024/03/18_12:18:34,YZ,None,
,,,,,,calibration,0,1,2,250,15,N,0,right,0.8489511870138813,1,0,,,,,,,,,,,,,,,,,,,,,1,,,,,,,,,,,,,,,,,,,,,,,,,,,,,,,,,,,,,,,,,,,,,,98,146605,21,Female,1,2024/03/18_12:18:34,YZ,None,
,,,,,,calibration,0,1,2,250,16,V,0,right,0.591554257000098,1,0,,,,,,,,,,,,,,,,,,,,,1,,,,,,,,,,,,,,,,,,,,,,,,,,,,,,,,,,,,,,,,,,,,,,98,146605,21,Female,1,2024/03/18_12:18:34,YZ,None,
,,,,,,calibration,0,1,2,250,17,N,1,right,0.5924915090145078,0,0,,,,,,,,,,,,,,,,,,,,,1,,,,,,,,,,,,,,,,,,,,,,,,,,,,,,,,,,,,,,,,,,,,,,98,146605,21,Female,1,2024/03/18_12:18:34,YZ,None,
,,,,,,calibration,0,1,2,250,18,V,1,left,0.33015806099865586,1,0,,,,,,,,,,,,,,,,,,,,,1,,,,,,,,,,,,,,,,,,,,,,,,,,,,,,,,,,,,,,,,,,,,,,98,146605,21,Female,1,2024/03/18_12:18:34,YZ,None,
,,,,,,calibration,0,1,2,250,19,X,0,right,0.5602961130207404,1,0,,,,,,,,,,,,,,,,,,,,,1,,,,,,,,,,,,,,,,,,,,,,,,,,,,,,,,,,,,,,,,,,,,,,98,146605,21,Female,1,2024/03/18_12:18:34,YZ,None,
,,,,,,calibration,0,1,2,250,20,S,0,right,0.4346411300066393,1,0,,,,,,,,,,,,,,,,,,,,,1,,,,,,,,,,,,,,,,,,,,,,,,,,,,,,,,,,,,,,,,,,,,,,98,146605,21,Female,1,2024/03/18_12:18:34,YZ,None,
,,,,,,calibration,0,1,2,250,,,,,,,,0.7333333333333333,0.4,0.13333333333333333,0.8666666666666667,0.0,0.8666666666666667,0.5068505704519339,2,2,0,0,0,13,15,5,15,0,,,,1,,,,,,,,,,,,,,,,,,,,,,,,,,,,,,,,,,,,,,,,,,,,,,98,146605,21,Female,1,2024/03/18_12:18:34,YZ,None,
,,,,,,Calibration,0,,2,250,,,,,,,,,,,,,,,,,,,,,,,,,7,,,1,,,,,,,,,,,,,,,,,,,,,,,,,,,,,,,,,,,,,,,,,,,,,,98,146605,21,Female,1,2024/03/18_12:18:34,YZ,None,
,,,,,,calibration,0,22,2,303,1,Q,0,right,0.4901286799868103,1,0,,,,,,,,,,,,,,,,,,,,,1,,,,,,,,,,,,,,,,,,,,,,,,,,,,,,,,,,,,,,,,,,,,,,98,146605,21,Female,1,2024/03/18_12:18:34,YZ,None,
,,,,,,calibration,0,22,2,303,2,Q,0,right,0.7103532319888473,1,0,,,,,,,,,,,,,,,,,,,,,1,,,,,,,,,,,,,,,,,,,,,,,,,,,,,,,,,,,,,,,,,,,,,,98,146605,21,Female,1,2024/03/18_12:18:34,YZ,None,
,,,,,,calibration,0,22,2,303,3,Q,1,left,0.5756945259927306,1,0,,,,,,,,,,,,,,,,,,,,,1,,,,,,,,,,,,,,,,,,,,,,,,,,,,,,,,,,,,,,,,,,,,,,98,146605,21,Female,1,2024/03/18_12:18:34,YZ,None,
,,,,,,calibration,0,22,2,303,4,F,0,right,0.43498971199733205,1,0,,,,,,,,,,,,,,,,,,,,,1,,,,,,,,,,,,,,,,,,,,,,,,,,,,,,,,,,,,,,,,,,,,,,98,146605,21,Female,1,2024/03/18_12:18:34,YZ,None,
,,,,,,calibration,0,22,2,303,5,J,0,right,0.6012453939765692,1,0,,,,,,,,,,,,,,,,,,,,,1,,,,,,,,,,,,,,,,,,,,,,,,,,,,,,,,,,,,,,,,,,,,,,98,146605,21,Female,1,2024/03/18_12:18:34,YZ,None,
,,,,,,calibration,0,22,2,303,6,F,1,left,0.573853391018929,1,0,,,,,,,,,,,,,,,,,,,,,1,,,,,,,,,,,,,,,,,,,,,,,,,,,,,,,,,,,,,,,,,,,,,,98,146605,21,Female,1,2024/03/18_12:18:34,YZ,None,
,,,,,,calibration,0,22,2,303,7,V,0,right,0.43974999099737033,1,0,,,,,,,,,,,,,,,,,,,,,1,,,,,,,,,,,,,,,,,,,,,,,,,,,,,,,,,,,,,,,,,,,,,,98,146605,21,Female,1,2024/03/18_12:18:34,YZ,None,
,,,,,,calibration,0,22,2,303,8,X,0,right,0.6416662049887236,1,0,,,,,,,,,,,,,,,,,,,,,1,,,,,,,,,,,,,,,,,,,,,,,,,,,,,,,,,,,,,,,,,,,,,,98,146605,21,Female,1,2024/03/18_12:18:34,YZ,None,
,,,,,,calibration,0,22,2,303,9,J,0,left,0.4575068389822263,0,0,,,,,,,,,,,,,,,,,,,,,1,,,,,,,,,,,,,,,,,,,,,,,,,,,,,,,,,,,,,,,,,,,,,,98,146605,21,Female,1,2024/03/18_12:18:34,YZ,None,
,,,,,,calibration,0,22,2,303,10,X,1,right,0.5470507169957273,0,0,,,,,,,,,,,,,,,,,,,,,1,,,,,,,,,,,,,,,,,,,,,,,,,,,,,,,,,,,,,,,,,,,,,,98,146605,21,Female,1,2024/03/18_12:18:34,YZ,None,
,,,,,,calibration,0,22,2,303,11,J,1,left,0.5498390299908351,1,0,,,,,,,,,,,,,,,,,,,,,1,,,,,,,,,,,,,,,,,,,,,,,,,,,,,,,,,,,,,,,,,,,,,,98,146605,21,Female,1,2024/03/18_12:18:34,YZ,None,
,,,,,,calibration,0,22,2,303,12,N,0,right,0.5249329700018279,1,0,,,,,,,,,,,,,,,,,,,,,1,,,,,,,,,,,,,,,,,,,,,,,,,,,,,,,,,,,,,,,,,,,,,,98,146605,21,Female,1,2024/03/18_12:18:34,YZ,None,
,,,,,,calibration,0,22,2,303,13,Q,0,right,0.5123752899817191,1,0,,,,,,,,,,,,,,,,,,,,,1,,,,,,,,,,,,,,,,,,,,,,,,,,,,,,,,,,,,,,,,,,,,,,98,146605,21,Female,1,2024/03/18_12:18:34,YZ,None,
,,,,,,calibration,0,22,2,303,14,N,1,right,nan,0,1,,,,,,,,,,,,,,,,,,,,,1,,,,,,,,,,,,,,,,,,,,,,,,,,,,,,,,,,,,,,,,,,,,,,98,146605,21,Female,1,2024/03/18_12:18:34,YZ,None,
,,,,,,calibration,0,22,2,303,15,X,0,left,0.8925278999959119,0,0,,,,,,,,,,,,,,,,,,,,,1,,,,,,,,,,,,,,,,,,,,,,,,,,,,,,,,,,,,,,,,,,,,,,98,146605,21,Female,1,2024/03/18_12:18:34,YZ,None,
,,,,,,calibration,0,22,2,303,16,V,0,right,0.6181845490064006,1,0,,,,,,,,,,,,,,,,,,,,,1,,,,,,,,,,,,,,,,,,,,,,,,,,,,,,,,,,,,,,,,,,,,,,98,146605,21,Female,1,2024/03/18_12:18:34,YZ,None,
,,,,,,calibration,0,22,2,303,17,X,1,left,0.7843142240017187,1,0,,,,,,,,,,,,,,,,,,,,,1,,,,,,,,,,,,,,,,,,,,,,,,,,,,,,,,,,,,,,,,,,,,,,98,146605,21,Female,1,2024/03/18_12:18:34,YZ,None,
,,,,,,calibration,0,22,2,303,18,Q,0,right,0.4673123180109542,1,0,,,,,,,,,,,,,,,,,,,,,1,,,,,,,,,,,,,,,,,,,,,,,,,,,,,,,,,,,,,,,,,,,,,,98,146605,21,Female,1,2024/03/18_12:18:34,YZ,None,
,,,,,,calibration,0,22,2,303,19,C,0,right,0.5420474449929316,1,0,,,,,,,,,,,,,,,,,,,,,1,,,,,,,,,,,,,,,,,,,,,,,,,,,,,,,,,,,,,,,,,,,,,,98,146605,21,Female,1,2024/03/18_12:18:34,YZ,None,
,,,,,,calibration,0,22,2,303,,,,,,,,0.8269230769230769,0.6666666666666666,0.15384615384615385,0.8461538461538461,0.05263157894736842,0.7935222672064777,0.5757651340504203,4,2,1,0,1,11,15,6,13,0,,,,1,,,,,,,,,,,,,,,,,,,,,,,,,,,,,,,,,,,,,,,,,,,,,,98,146605,21,Female,1,2024/03/18_12:18:34,YZ,None,
,,,,,,Calibration,0,,2,303,,,,,,,,,,,,,,,,,,,,,,,,,8,,,1,,,,,,,,,,,,,,,,,,,,,,,,,,,,,,,,,,,,,,,,,,,,,,98,146605,21,Female,1,2024/03/18_12:18:34,YZ,None,
,,,,,,calibration,0,32,2,303,1,J,0,right,0.36474203199031763,1,0,,,,,,,,,,,,,,,,,,,,,1,,,,,,,,,,,,,,,,,,,,,,,,,,,,,,,,,,,,,,,,,,,,,,98,146605,21,Female,1,2024/03/18_12:18:34,YZ,None,
,,,,,,calibration,0,32,2,303,2,C,0,right,0.4764184489904437,1,0,,,,,,,,,,,,,,,,,,,,,1,,,,,,,,,,,,,,,,,,,,,,,,,,,,,,,,,,,,,,,,,,,,,,98,146605,21,Female,1,2024/03/18_12:18:34,YZ,None,
,,,,,,calibration,0,32,2,303,3,J,1,left,0.45279996501631103,1,0,,,,,,,,,,,,,,,,,,,,,1,,,,,,,,,,,,,,,,,,,,,,,,,,,,,,,,,,,,,,,,,,,,,,98,146605,21,Female,1,2024/03/18_12:18:34,YZ,None,
,,,,,,calibration,0,32,2,303,4,X,0,right,0.3680487679957878,1,0,,,,,,,,,,,,,,,,,,,,,1,,,,,,,,,,,,,,,,,,,,,,,,,,,,,,,,,,,,,,,,,,,,,,98,146605,21,Female,1,2024/03/18_12:18:34,YZ,None,
,,,,,,calibration,0,32,2,303,5,S,0,right,0.6048398409911897,1,0,,,,,,,,,,,,,,,,,,,,,1,,,,,,,,,,,,,,,,,,,,,,,,,,,,,,,,,,,,,,,,,,,,,,98,146605,21,Female,1,2024/03/18_12:18:34,YZ,None,
,,,,,,calibration,0,32,2,303,6,X,1,left,0.6314547240035608,1,0,,,,,,,,,,,,,,,,,,,,,1,,,,,,,,,,,,,,,,,,,,,,,,,,,,,,,,,,,,,,,,,,,,,,98,146605,21,Female,1,2024/03/18_12:18:34,YZ,None,
,,,,,,calibration,0,32,2,303,7,Q,0,right,0.25985027602291666,1,0,,,,,,,,,,,,,,,,,,,,,1,,,,,,,,,,,,,,,,,,,,,,,,,,,,,,,,,,,,,,,,,,,,,,98,146605,21,Female,1,2024/03/18_12:18:34,YZ,None,
,,,,,,calibration,0,32,2,303,8,X,1,left,0.7488988779950887,1,0,,,,,,,,,,,,,,,,,,,,,1,,,,,,,,,,,,,,,,,,,,,,,,,,,,,,,,,,,,,,,,,,,,,,98,146605,21,Female,1,2024/03/18_12:18:34,YZ,None,
,,,,,,calibration,0,32,2,303,9,S,0,right,0.4156199950084556,1,0,,,,,,,,,,,,,,,,,,,,,1,,,,,,,,,,,,,,,,,,,,,,,,,,,,,,,,,,,,,,,,,,,,,,98,146605,21,Female,1,2024/03/18_12:18:34,YZ,None,
,,,,,,calibration,0,32,2,303,10,N,0,left,0.43372425201232545,0,0,,,,,,,,,,,,,,,,,,,,,1,,,,,,,,,,,,,,,,,,,,,,,,,,,,,,,,,,,,,,,,,,,,,,98,146605,21,Female,1,2024/03/18_12:18:34,YZ,None,
,,,,,,calibration,0,32,2,303,11,C,0,right,0.6139308999991044,1,0,,,,,,,,,,,,,,,,,,,,,1,,,,,,,,,,,,,,,,,,,,,,,,,,,,,,,,,,,,,,,,,,,,,,98,146605,21,Female,1,2024/03/18_12:18:34,YZ,None,
,,,,,,calibration,0,32,2,303,12,F,0,right,0.5405975949834101,1,0,,,,,,,,,,,,,,,,,,,,,1,,,,,,,,,,,,,,,,,,,,,,,,,,,,,,,,,,,,,,,,,,,,,,98,146605,21,Female,1,2024/03/18_12:18:34,YZ,None,
,,,,,,calibration,0,32,2,303,13,C,1,left,0.4218685279774945,1,0,,,,,,,,,,,,,,,,,,,,,1,,,,,,,,,,,,,,,,,,,,,,,,,,,,,,,,,,,,,,,,,,,,,,98,146605,21,Female,1,2024/03/18_12:18:34,YZ,None,
,,,,,,calibration,0,32,2,303,14,Q,0,right,0.6081983829790261,1,0,,,,,,,,,,,,,,,,,,,,,1,,,,,,,,,,,,,,,,,,,,,,,,,,,,,,,,,,,,,,,,,,,,,,98,146605,21,Female,1,2024/03/18_12:18:34,YZ,None,
,,,,,,calibration,0,32,2,303,15,J,0,right,0.9384075349953491,1,0,,,,,,,,,,,,,,,,,,,,,1,,,,,,,,,,,,,,,,,,,,,,,,,,,,,,,,,,,,,,,,,,,,,,98,146605,21,Female,1,2024/03/18_12:18:34,YZ,None,
,,,,,,calibration,0,32,2,303,16,Q,1,left,0.4837038049881812,1,0,,,,,,,,,,,,,,,,,,,,,1,,,,,,,,,,,,,,,,,,,,,,,,,,,,,,,,,,,,,,,,,,,,,,98,146605,21,Female,1,2024/03/18_12:18:34,YZ,None,
,,,,,,calibration,0,32,2,303,17,F,0,right,0.49547914101276547,1,0,,,,,,,,,,,,,,,,,,,,,1,,,,,,,,,,,,,,,,,,,,,,,,,,,,,,,,,,,,,,,,,,,,,,98,146605,21,Female,1,2024/03/18_12:18:34,YZ,None,
,,,,,,calibration,0,32,2,303,18,Q,1,right,nan,0,1,,,,,,,,,,,,,,,,,,,,,1,,,,,,,,,,,,,,,,,,,,,,,,,,,,,,,,,,,,,,,,,,,,,,98,146605,21,Female,1,2024/03/18_12:18:34,YZ,None,
,,,,,,calibration,0,32,2,303,19,X,0,right,0.6810997050197329,1,0,,,,,,,,,,,,,,,,,,,,,1,,,,,,,,,,,,,,,,,,,,,,,,,,,,,,,,,,,,,,,,,,,,,,98,146605,21,Female,1,2024/03/18_12:18:34,YZ,None,
,,,,,,calibration,0,32,2,303,,,,,,,,0.9262820512820513,0.8333333333333334,0.07692307692307693,0.9230769230769231,0.05263157894736842,0.8704453441295548,0.5299823762211923,5,1,1,0,1,12,17,6,13,0,,,,1,,,,,,,,,,,,,,,,,,,,,,,,,,,,,,,,,,,,,,,,,,,,,,98,146605,21,Female,1,2024/03/18_12:18:34,YZ,None,
,,,,,,Calibration,0,,2,303,,,,,,,,,,,,,,,,,,,,,,,,,9,,,1,,,,,,,,,,,,,,,,,,,,,,,,,,,,,,,,,,,,,,,,,,,,,,98,146605,21,Female,1,2024/03/18_12:18:34,YZ,None,
,,,,,,calibration,0,5,2,250,1,X,0,right,0.46690109101473354,1,0,,,,,,,,,,,,,,,,,,,,,1,,,,,,,,,,,,,,,,,,,,,,,,,,,,,,,,,,,,,,,,,,,,,,98,146605,21,Female,1,2024/03/18_12:18:34,YZ,None,
,,,,,,calibration,0,5,2,250,2,X,0,right,0.7908430410025176,1,0,,,,,,,,,,,,,,,,,,,,,1,,,,,,,,,,,,,,,,,,,,,,,,,,,,,,,,,,,,,,,,,,,,,,98,146605,21,Female,1,2024/03/18_12:18:34,YZ,None,
,,,,,,calibration,0,5,2,250,3,S,0,right,0.6609732730139513,1,0,,,,,,,,,,,,,,,,,,,,,1,,,,,,,,,,,,,,,,,,,,,,,,,,,,,,,,,,,,,,,,,,,,,,98,146605,21,Female,1,2024/03/18_12:18:34,YZ,None,
,,,,,,calibration,0,5,2,250,4,X,1,left,0.5493849290069193,1,0,,,,,,,,,,,,,,,,,,,,,1,,,,,,,,,,,,,,,,,,,,,,,,,,,,,,,,,,,,,,,,,,,,,,98,146605,21,Female,1,2024/03/18_12:18:34,YZ,None,
,,,,,,calibration,0,5,2,250,5,S,1,right,0.5239420979924034,0,0,,,,,,,,,,,,,,,,,,,,,1,,,,,,,,,,,,,,,,,,,,,,,,,,,,,,,,,,,,,,,,,,,,,,98,146605,21,Female,1,2024/03/18_12:18:34,YZ,None,
,,,,,,calibration,0,5,2,250,6,V,0,left,0.11968552300822921,0,0,,,,,,,,,,,,,,,,,,,,,1,,,,,,,,,,,,,,,,,,,,,,,,,,,,,,,,,,,,,,,,,,,,,,98,146605,21,Female,1,2024/03/18_12:18:34,YZ,None,
,,,,,,calibration,0,5,2,250,7,C,0,right,0.7763779489905573,1,0,,,,,,,,,,,,,,,,,,,,,1,,,,,,,,,,,,,,,,,,,,,,,,,,,,,,,,,,,,,,,,,,,,,,98,146605,21,Female,1,2024/03/18_12:18:34,YZ,None,
,,,,,,calibration,0,5,2,250,8,S,0,left,0.5123868820082862,0,0,,,,,,,,,,,,,,,,,,,,,1,,,,,,,,,,,,,,,,,,,,,,,,,,,,,,,,,,,,,,,,,,,,,,98,146605,21,Female,1,2024/03/18_12:18:34,YZ,None,
,,,,,,calibration,0,5,2,250,9,N,0,right,0.559281840978656,1,0,,,,,,,,,,,,,,,,,,,,,1,,,,,,,,,,,,,,,,,,,,,,,,,,,,,,,,,,,,,,,,,,,,,,98,146605,21,Female,1,2024/03/18_12:18:34,YZ,None,
,,,,,,calibration,0,5,2,250,10,S,1,left,0.5754510069964454,1,0,,,,,,,,,,,,,,,,,,,,,1,,,,,,,,,,,,,,,,,,,,,,,,,,,,,,,,,,,,,,,,,,,,,,98,146605,21,Female,1,2024/03/18_12:18:34,YZ,None,
,,,,,,calibration,0,5,2,250,11,N,1,left,0.5122688459814526,1,0,,,,,,,,,,,,,,,,,,,,,1,,,,,,,,,,,,,,,,,,,,,,,,,,,,,,,,,,,,,,,,,,,,,,98,146605,21,Female,1,2024/03/18_12:18:34,YZ,None,
,,,,,,calibration,0,5,2,250,12,F,0,right,0.524172578996513,1,0,,,,,,,,,,,,,,,,,,,,,1,,,,,,,,,,,,,,,,,,,,,,,,,,,,,,,,,,,,,,,,,,,,,,98,146605,21,Female,1,2024/03/18_12:18:34,YZ,None,
,,,,,,calibration,0,5,2,250,13,Q,0,right,0.6240055079979356,1,0,,,,,,,,,,,,,,,,,,,,,1,,,,,,,,,,,,,,,,,,,,,,,,,,,,,,,,,,,,,,,,,,,,,,98,146605,21,Female,1,2024/03/18_12:18:34,YZ,None,
,,,,,,calibration,0,5,2,250,14,J,0,right,0.6562398499809206,1,0,,,,,,,,,,,,,,,,,,,,,1,,,,,,,,,,,,,,,,,,,,,,,,,,,,,,,,,,,,,,,,,,,,,,98,146605,21,Female,1,2024/03/18_12:18:34,YZ,None,
,,,,,,calibration,0,5,2,250,15,C,0,right,0.6181209799833596,1,0,,,,,,,,,,,,,,,,,,,,,1,,,,,,,,,,,,,,,,,,,,,,,,,,,,,,,,,,,,,,,,,,,,,,98,146605,21,Female,1,2024/03/18_12:18:34,YZ,None,
,,,,,,calibration,0,5,2,250,16,F,0,right,0.8257566299871542,1,0,,,,,,,,,,,,,,,,,,,,,1,,,,,,,,,,,,,,,,,,,,,,,,,,,,,,,,,,,,,,,,,,,,,,98,146605,21,Female,1,2024/03/18_12:18:34,YZ,None,
,,,,,,calibration,0,5,2,250,17,C,1,left,0.8751386570220347,1,0,,,,,,,,,,,,,,,,,,,,,1,,,,,,,,,,,,,,,,,,,,,,,,,,,,,,,,,,,,,,,,,,,,,,98,146605,21,Female,1,2024/03/18_12:18:34,YZ,None,
,,,,,,calibration,0,5,2,250,18,F,1,left,0.8633997519791592,1,0,,,,,,,,,,,,,,,,,,,,,1,,,,,,,,,,,,,,,,,,,,,,,,,,,,,,,,,,,,,,,,,,,,,,98,146605,21,Female,1,2024/03/18_12:18:34,YZ,None,
,,,,,,calibration,0,5,2,250,19,Q,0,right,0.8080602599948179,1,0,,,,,,,,,,,,,,,,,,,,,1,,,,,,,,,,,,,,,,,,,,,,,,,,,,,,,,,,,,,,,,,,,,,,98,146605,21,Female,1,2024/03/18_12:18:34,YZ,None,
,,,,,,calibration,0,5,2,250,20,N,0,right,0.6352389680105262,1,0,,,,,,,,,,,,,,,,,,,,,1,,,,,,,,,,,,,,,,,,,,,,,,,,,,,,,,,,,,,,,,,,,,,,98,146605,21,Female,1,2024/03/18_12:18:34,YZ,None,
,,,,,,calibration,0,5,2,250,,,,,,,,0.8988095238095238,0.8333333333333334,0.14285714285714285,0.8571428571428571,0.0,0.8571428571428572,0.6238814831973286,5,2,0,0,0,12,17,6,14,0,,,,1,,,,,,,,,,,,,,,,,,,,,,,,,,,,,,,,,,,,,,,,,,,,,,98,146605,21,Female,1,2024/03/18_12:18:34,YZ,None,
,,,,,,Calibration,0,,2,250,,,,,,,,,,,,,,,,,,,,,,,,,10,,,1,,,,,,,,,,,,,,,,,,,,,,,,,,,,,,,,,,,,,,,,,,,,,,98,146605,21,Female,1,2024/03/18_12:18:34,YZ,None,
,,,,,,calibration,0,36,2,202,1,Q,0,right,0.3874010079889558,1,0,,,,,,,,,,,,,,,,,,,,,1,,,,,,,,,,,,,,,,,,,,,,,,,,,,,,,,,,,,,,,,,,,,,,98,146605,21,Female,1,2024/03/18_12:18:34,YZ,None,
,,,,,,calibration,0,36,2,202,2,X,0,right,0.3921883360017091,1,0,,,,,,,,,,,,,,,,,,,,,1,,,,,,,,,,,,,,,,,,,,,,,,,,,,,,,,,,,,,,,,,,,,,,98,146605,21,Female,1,2024/03/18_12:18:34,YZ,None,
,,,,,,calibration,0,36,2,202,3,F,0,right,0.5122988740040455,1,0,,,,,,,,,,,,,,,,,,,,,1,,,,,,,,,,,,,,,,,,,,,,,,,,,,,,,,,,,,,,,,,,,,,,98,146605,21,Female,1,2024/03/18_12:18:34,YZ,None,
,,,,,,calibration,0,36,2,202,4,N,0,right,0.6590455319965258,1,0,,,,,,,,,,,,,,,,,,,,,1,,,,,,,,,,,,,,,,,,,,,,,,,,,,,,,,,,,,,,,,,,,,,,98,146605,21,Female,1,2024/03/18_12:18:34,YZ,None,
,,,,,,calibration,0,36,2,202,5,J,0,right,0.5342595490219537,1,0,,,,,,,,,,,,,,,,,,,,,1,,,,,,,,,,,,,,,,,,,,,,,,,,,,,,,,,,,,,,,,,,,,,,98,146605,21,Female,1,2024/03/18_12:18:34,YZ,None,
,,,,,,calibration,0,36,2,202,6,V,0,right,0.5513358399912249,1,0,,,,,,,,,,,,,,,,,,,,,1,,,,,,,,,,,,,,,,,,,,,,,,,,,,,,,,,,,,,,,,,,,,,,98,146605,21,Female,1,2024/03/18_12:18:34,YZ,None,
,,,,,,calibration,0,36,2,202,7,J,1,left,0.7363686109893024,1,0,,,,,,,,,,,,,,,,,,,,,1,,,,,,,,,,,,,,,,,,,,,,,,,,,,,,,,,,,,,,,,,,,,,,98,146605,21,Female,1,2024/03/18_12:18:34,YZ,None,
,,,,,,calibration,0,36,2,202,8,V,1,left,0.7114619960193522,1,0,,,,,,,,,,,,,,,,,,,,,1,,,,,,,,,,,,,,,,,,,,,,,,,,,,,,,,,,,,,,,,,,,,,,98,146605,21,Female,1,2024/03/18_12:18:34,YZ,None,
,,,,,,calibration,0,36,2,202,9,Q,0,right,0.7087267269962467,1,0,,,,,,,,,,,,,,,,,,,,,1,,,,,,,,,,,,,,,,,,,,,,,,,,,,,,,,,,,,,,,,,,,,,,98,146605,21,Female,1,2024/03/18_12:18:34,YZ,None,
,,,,,,calibration,0,36,2,202,10,V,1,right,0.65218278800603,0,0,,,,,,,,,,,,,,,,,,,,,1,,,,,,,,,,,,,,,,,,,,,,,,,,,,,,,,,,,,,,,,,,,,,,98,146605,21,Female,1,2024/03/18_12:18:34,YZ,None,
,,,,,,calibration,0,36,2,202,11,S,0,right,0.5518982339999638,1,0,,,,,,,,,,,,,,,,,,,,,1,,,,,,,,,,,,,,,,,,,,,,,,,,,,,,,,,,,,,,,,,,,,,,98,146605,21,Female,1,2024/03/18_12:18:34,YZ,None,
,,,,,,calibration,0,36,2,202,12,F,0,right,0.6055886730027851,1,0,,,,,,,,,,,,,,,,,,,,,1,,,,,,,,,,,,,,,,,,,,,,,,,,,,,,,,,,,,,,,,,,,,,,98,146605,21,Female,1,2024/03/18_12:18:34,YZ,None,
,,,,,,calibration,0,36,2,202,13,S,1,left,0.6219173410208896,1,0,,,,,,,,,,,,,,,,,,,,,1,,,,,,,,,,,,,,,,,,,,,,,,,,,,,,,,,,,,,,,,,,,,,,98,146605,21,Female,1,2024/03/18_12:18:34,YZ,None,
,,,,,,calibration,0,36,2,202,14,J,0,right,0.15425339099601842,1,0,,,,,,,,,,,,,,,,,,,,,1,,,,,,,,,,,,,,,,,,,,,,,,,,,,,,,,,,,,,,,,,,,,,,98,146605,21,Female,1,2024/03/18_12:18:34,YZ,None,
,,,,,,calibration,0,36,2,202,15,S,1,left,0.6762344920134638,1,0,,,,,,,,,,,,,,,,,,,,,1,,,,,,,,,,,,,,,,,,,,,,,,,,,,,,,,,,,,,,,,,,,,,,98,146605,21,Female,1,2024/03/18_12:18:34,YZ,None,
,,,,,,calibration,0,36,2,202,16,F,0,left,0.8765871489886194,0,0,,,,,,,,,,,,,,,,,,,,,1,,,,,,,,,,,,,,,,,,,,,,,,,,,,,,,,,,,,,,,,,,,,,,98,146605,21,Female,1,2024/03/18_12:18:34,YZ,None,
,,,,,,calibration,0,36,2,202,17,Q,0,right,0.7261702159885317,1,0,,,,,,,,,,,,,,,,,,,,,1,,,,,,,,,,,,,,,,,,,,,,,,,,,,,,,,,,,,,,,,,,,,,,98,146605,21,Female,1,2024/03/18_12:18:34,YZ,None,
,,,,,,calibration,0,36,2,202,18,V,0,right,0.7577844939951319,1,0,,,,,,,,,,,,,,,,,,,,,1,,,,,,,,,,,,,,,,,,,,,,,,,,,,,,,,,,,,,,,,,,,,,,98,146605,21,Female,1,2024/03/18_12:18:34,YZ,None,
,,,,,,calibration,0,36,2,202,19,C,0,right,0.565132375981193,1,0,,,,,,,,,,,,,,,,,,,,,1,,,,,,,,,,,,,,,,,,,,,,,,,,,,,,,,,,,,,,,,,,,,,,98,146605,21,Female,1,2024/03/18_12:18:34,YZ,None,
,,,,,,calibration,0,36,2,202,20,V,1,right,nan,0,1,,,,,,,,,,,,,,,,,,,,,1,,,,,,,,,,,,,,,,,,,,,,,,,,,,,,,,,,,,,,,,,,,,,,98,146605,21,Female,1,2024/03/18_12:18:34,YZ,None,
,,,,,,calibration,0,36,2,202,21,S,0,right,0.46483990500564687,1,0,,,,,,,,,,,,,,,,,,,,,1,,,,,,,,,,,,,,,,,,,,,,,,,,,,,,,,,,,,,,,,,,,,,,98,146605,21,Female,1,2024/03/18_12:18:34,YZ,None,
,,,,,,calibration,0,36,2,202,,,,,,,,0.8777777777777778,0.6666666666666666,0.06666666666666667,0.9333333333333333,0.047619047619047616,0.8857142857142857,0.5922837766003795,4,1,1,0,1,14,18,6,15,0,,,,1,,,,,,,,,,,,,,,,,,,,,,,,,,,,,,,,,,,,,,,,,,,,,,98,146605,21,Female,1,2024/03/18_12:18:34,YZ,None,
,,,,,,Calibration,0,,2,202,,,,,,,,,,,,,,,,,,,,,,,,,11,,,1,,,,,,,,,,,,,,,,,,,,,,,,,,,,,,,,,,,,,,,,,,,,,,98,146605,21,Female,1,2024/03/18_12:18:34,YZ,None,
,,,,,,calibration,0,22,2,159,1,Q,0,right,0.7920984540251084,1,0,,,,,,,,,,,,,,,,,,,,,1,,,,,,,,,,,,,,,,,,,,,,,,,,,,,,,,,,,,,,,,,,,,,,98,146605,21,Female,1,2024/03/18_12:18:34,YZ,None,
,,,,,,calibration,0,22,2,159,2,Q,0,right,0.7058187680086121,1,0,,,,,,,,,,,,,,,,,,,,,1,,,,,,,,,,,,,,,,,,,,,,,,,,,,,,,,,,,,,,,,,,,,,,98,146605,21,Female,1,2024/03/18_12:18:34,YZ,None,
,,,,,,calibration,0,22,2,159,3,S,0,right,0.7589832689845935,1,0,,,,,,,,,,,,,,,,,,,,,1,,,,,,,,,,,,,,,,,,,,,,,,,,,,,,,,,,,,,,,,,,,,,,98,146605,21,Female,1,2024/03/18_12:18:34,YZ,None,
,,,,,,calibration,0,22,2,159,4,V,0,right,nan,0,1,,,,,,,,,,,,,,,,,,,,,1,,,,,,,,,,,,,,,,,,,,,,,,,,,,,,,,,,,,,,,,,,,,,,98,146605,21,Female,1,2024/03/18_12:18:34,YZ,None,
,,,,,,calibration,0,22,2,159,5,S,1,left,0.7744115479872562,1,0,,,,,,,,,,,,,,,,,,,,,1,,,,,,,,,,,,,,,,,,,,,,,,,,,,,,,,,,,,,,,,,,,,,,98,146605,21,Female,1,2024/03/18_12:18:34,YZ,None,
,,,,,,calibration,0,22,2,159,6,F,0,right,0.8403519789862912,1,0,,,,,,,,,,,,,,,,,,,,,1,,,,,,,,,,,,,,,,,,,,,,,,,,,,,,,,,,,,,,,,,,,,,,98,146605,21,Female,1,2024/03/18_12:18:34,YZ,None,
,,,,,,calibration,0,22,2,159,7,V,0,left,0.5750790440069977,0,0,,,,,,,,,,,,,,,,,,,,,1,,,,,,,,,,,,,,,,,,,,,,,,,,,,,,,,,,,,,,,,,,,,,,98,146605,21,Female,1,2024/03/18_12:18:34,YZ,None,
,,,,,,calibration,0,22,2,159,8,F,1,right,0.46815698099089786,0,0,,,,,,,,,,,,,,,,,,,,,1,,,,,,,,,,,,,,,,,,,,,,,,,,,,,,,,,,,,,,,,,,,,,,98,146605,21,Female,1,2024/03/18_12:18:34,YZ,None,
,,,,,,calibration,0,22,2,159,9,C,0,right,0.9853736560035031,1,0,,,,,,,,,,,,,,,,,,,,,1,,,,,,,,,,,,,,,,,,,,,,,,,,,,,,,,,,,,,,,,,,,,,,98,146605,21,Female,1,2024/03/18_12:18:34,YZ,None,
,,,,,,calibration,0,22,2,159,10,F,1,left,0.5772059170121793,1,0,,,,,,,,,,,,,,,,,,,,,1,,,,,,,,,,,,,,,,,,,,,,,,,,,,,,,,,,,,,,,,,,,,,,98,146605,21,Female,1,2024/03/18_12:18:34,YZ,None,
,,,,,,calibration,0,22,2,159,11,X,0,right,0.85133077899809,1,0,,,,,,,,,,,,,,,,,,,,,1,,,,,,,,,,,,,,,,,,,,,,,,,,,,,,,,,,,,,,,,,,,,,,98,146605,21,Female,1,2024/03/18_12:18:34,YZ,None,
,,,,,,calibration,0,22,2,159,12,F,1,left,0.49797951299115084,1,0,,,,,,,,,,,,,,,,,,,,,1,,,,,,,,,,,,,,,,,,,,,,,,,,,,,,,,,,,,,,,,,,,,,,98,146605,21,Female,1,2024/03/18_12:18:34,YZ,None,
,,,,,,calibration,0,22,2,159,13,X,1,left,nan,0,1,,,,,,,,,,,,,,,,,,,,,1,,,,,,,,,,,,,,,,,,,,,,,,,,,,,,,,,,,,,,,,,,,,,,98,146605,21,Female,1,2024/03/18_12:18:34,YZ,None,
,,,,,,calibration,0,22,2,159,14,J,0,right,0.6322062110120896,1,0,,,,,,,,,,,,,,,,,,,,,1,,,,,,,,,,,,,,,,,,,,,,,,,,,,,,,,,,,,,,,,,,,,,,98,146605,21,Female,1,2024/03/18_12:18:34,YZ,None,
,,,,,,calibration,0,22,2,159,15,X,1,left,0.7653982359915972,1,0,,,,,,,,,,,,,,,,,,,,,1,,,,,,,,,,,,,,,,,,,,,,,,,,,,,,,,,,,,,,,,,,,,,,98,146605,21,Female,1,2024/03/18_12:18:34,YZ,None,
,,,,,,calibration,0,22,2,159,16,V,0,right,0.5746069639862981,1,0,,,,,,,,,,,,,,,,,,,,,1,,,,,,,,,,,,,,,,,,,,,,,,,,,,,,,,,,,,,,,,,,,,,,98,146605,21,Female,1,2024/03/18_12:18:34,YZ,None,
,,,,,,calibration,0,22,2,159,17,F,0,left,0.46715732000302523,0,0,,,,,,,,,,,,,,,,,,,,,1,,,,,,,,,,,,,,,,,,,,,,,,,,,,,,,,,,,,,,,,,,,,,,98,146605,21,Female,1,2024/03/18_12:18:34,YZ,None,
,,,,,,calibration,0,22,2,159,18,Q,0,left,0.0,0,0,,,,,,,,,,,,,,,,,,,,,1,,,,,,,,,,,,,,,,,,,,,,,,,,,,,,,,,,,,,,,,,,,,,,98,146605,21,Female,1,2024/03/18_12:18:34,YZ,None,
,,,,,,calibration,0,22,2,159,19,N,0,right,0.8022777639853302,1,0,,,,,,,,,,,,,,,,,,,,,1,,,,,,,,,,,,,,,,,,,,,,,,,,,,,,,,,,,,,,,,,,,,,,98,146605,21,Female,1,2024/03/18_12:18:34,YZ,None,
,,,,,,calibration,0,22,2,159,20,F,0,right,nan,0,1,,,,,,,,,,,,,,,,,,,,,1,,,,,,,,,,,,,,,,,,,,,,,,,,,,,,,,,,,,,,,,,,,,,,98,146605,21,Female,1,2024/03/18_12:18:34,YZ,None,
,,,,,,calibration,0,22,2,159,21,N,1,right,nan,0,1,,,,,,,,,,,,,,,,,,,,,1,,,,,,,,,,,,,,,,,,,,,,,,,,,,,,,,,,,,,,,,,,,,,,98,146605,21,Female,1,2024/03/18_12:18:34,YZ,None,
,,,,,,calibration,0,22,2,159,22,V,0,right,0.14158609800506383,1,0,,,,,,,,,,,,,,,,,,,,,1,,,,,,,,,,,,,,,,,,,,,,,,,,,,,,,,,,,,,,,,,,,,,,98,146605,21,Female,1,2024/03/18_12:18:34,YZ,None,
,,,,,,calibration,0,22,2,159,,,,,,,,0.7571428571428571,0.5714285714285714,0.2,0.7692307692307693,0.18181818181818182,0.6181818181818182,0.6227790278321158,4,3,2,2,4,10,14,7,15,0,,,,1,,,,,,,,,,,,,,,,,,,,,,,,,,,,,,,,,,,,,,,,,,,,,,98,146605,21,Female,1,2024/03/18_12:18:34,YZ,None,
,,,,,,Calibration,0,,2,159,,,,,,,,,,,,,,,,,,,,,,,,,12,,,1,,,,,,,,,,,,,,,,,,,,,,,,,,,,,,,,,,,,,,,,,,,,,,98,146605,21,Female,1,2024/03/18_12:18:34,YZ,None,
,,,,,,calibration,0,14,2,159,1,C,0,right,0.5529947670002002,1,0,,,,,,,,,,,,,,,,,,,,,1,,,,,,,,,,,,,,,,,,,,,,,,,,,,,,,,,,,,,,,,,,,,,,98,146605,21,Female,1,2024/03/18_12:18:34,YZ,None,
,,,,,,calibration,0,14,2,159,2,C,0,right,0.7243175200128462,1,0,,,,,,,,,,,,,,,,,,,,,1,,,,,,,,,,,,,,,,,,,,,,,,,,,,,,,,,,,,,,,,,,,,,,98,146605,21,Female,1,2024/03/18_12:18:34,YZ,None,
,,,,,,calibration,0,14,2,159,3,X,0,right,nan,0,1,,,,,,,,,,,,,,,,,,,,,1,,,,,,,,,,,,,,,,,,,,,,,,,,,,,,,,,,,,,,,,,,,,,,98,146605,21,Female,1,2024/03/18_12:18:34,YZ,None,
,,,,,,calibration,0,14,2,159,4,C,1,left,0.6581291829934344,1,0,,,,,,,,,,,,,,,,,,,,,1,,,,,,,,,,,,,,,,,,,,,,,,,,,,,,,,,,,,,,,,,,,,,,98,146605,21,Female,1,2024/03/18_12:18:34,YZ,None,
,,,,,,calibration,0,14,2,159,5,F,0,right,0.752268914016895,1,0,,,,,,,,,,,,,,,,,,,,,1,,,,,,,,,,,,,,,,,,,,,,,,,,,,,,,,,,,,,,,,,,,,,,98,146605,21,Female,1,2024/03/18_12:18:34,YZ,None,
,,,,,,calibration,0,14,2,159,6,N,0,right,0.8699148710002191,1,0,,,,,,,,,,,,,,,,,,,,,1,,,,,,,,,,,,,,,,,,,,,,,,,,,,,,,,,,,,,,,,,,,,,,98,146605,21,Female,1,2024/03/18_12:18:34,YZ,None,
,,,,,,calibration,0,14,2,159,7,X,0,right,0.7973025740066078,1,0,,,,,,,,,,,,,,,,,,,,,1,,,,,,,,,,,,,,,,,,,,,,,,,,,,,,,,,,,,,,,,,,,,,,98,146605,21,Female,1,2024/03/18_12:18:34,YZ,None,
,,,,,,calibration,0,14,2,159,8,S,0,right,0.7578739049786236,1,0,,,,,,,,,,,,,,,,,,,,,1,,,,,,,,,,,,,,,,,,,,,,,,,,,,,,,,,,,,,,,,,,,,,,98,146605,21,Female,1,2024/03/18_12:18:34,YZ,None,
,,,,,,calibration,0,14,2,159,9,C,0,right,0.835481443995377,1,0,,,,,,,,,,,,,,,,,,,,,1,,,,,,,,,,,,,,,,,,,,,,,,,,,,,,,,,,,,,,,,,,,,,,98,146605,21,Female,1,2024/03/18_12:18:34,YZ,None,
,,,,,,calibration,0,14,2,159,10,F,0,left,0.9902287459990475,0,0,,,,,,,,,,,,,,,,,,,,,1,,,,,,,,,,,,,,,,,,,,,,,,,,,,,,,,,,,,,,,,,,,,,,98,146605,21,Female,1,2024/03/18_12:18:34,YZ,None,
,,,,,,calibration,0,14,2,159,11,J,0,right,0.21868854700005613,1,0,,,,,,,,,,,,,,,,,,,,,1,,,,,,,,,,,,,,,,,,,,,,,,,,,,,,,,,,,,,,,,,,,,,,98,146605,21,Female,1,2024/03/18_12:18:34,YZ,None,
,,,,,,calibration,0,14,2,159,12,F,1,left,0.8080129550071433,1,0,,,,,,,,,,,,,,,,,,,,,1,,,,,,,,,,,,,,,,,,,,,,,,,,,,,,,,,,,,,,,,,,,,,,98,146605,21,Female,1,2024/03/18_12:18:34,YZ,None,
,,,,,,calibration,0,14,2,159,13,S,0,right,0.6419800519943237,1,0,,,,,,,,,,,,,,,,,,,,,1,,,,,,,,,,,,,,,,,,,,,,,,,,,,,,,,,,,,,,,,,,,,,,98,146605,21,Female,1,2024/03/18_12:18:34,YZ,None,
,,,,,,calibration,0,14,2,159,14,J,0,right,0.9828691529983189,1,0,,,,,,,,,,,,,,,,,,,,,1,,,,,,,,,,,,,,,,,,,,,,,,,,,,,,,,,,,,,,,,,,,,,,98,146605,21,Female,1,2024/03/18_12:18:34,YZ,None,
,,,,,,calibration,0,14,2,159,15,V,0,right,0.9986533529881854,1,0,,,,,,,,,,,,,,,,,,,,,1,,,,,,,,,,,,,,,,,,,,,,,,,,,,,,,,,,,,,,,,,,,,,,98,146605,21,Female,1,2024/03/18_12:18:34,YZ,None,
,,,,,,calibration,0,14,2,159,16,J,1,left,0.941215505998116,1,0,,,,,,,,,,,,,,,,,,,,,1,,,,,,,,,,,,,,,,,,,,,,,,,,,,,,,,,,,,,,,,,,,,,,98,146605,21,Female,1,2024/03/18_12:18:34,YZ,None,
,,,,,,calibration,0,14,2,159,17,V,1,left,0.8716193579894025,1,0,,,,,,,,,,,,,,,,,,,,,1,,,,,,,,,,,,,,,,,,,,,,,,,,,,,,,,,,,,,,,,,,,,,,98,146605,21,Female,1,2024/03/18_12:18:34,YZ,None,
,,,,,,calibration,0,14,2,159,18,F,0,left,nan,0,1,,,,,,,,,,,,,,,,,,,,,1,,,,,,,,,,,,,,,,,,,,,,,,,,,,,,,,,,,,,,,,,,,,,,98,146605,21,Female,1,2024/03/18_12:18:34,YZ,None,
,,,,,,calibration,0,14,2,159,19,V,1,left,nan,0,1,,,,,,,,,,,,,,,,,,,,,1,,,,,,,,,,,,,,,,,,,,,,,,,,,,,,,,,,,,,,,,,,,,,,98,146605,21,Female,1,2024/03/18_12:18:34,YZ,None,
,,,,,,calibration,0,14,2,159,20,S,0,left,nan,0,1,,,,,,,,,,,,,,,,,,,,,1,,,,,,,,,,,,,,,,,,,,,,,,,,,,,,,,,,,,,,,,,,,,,,98,146605,21,Female,1,2024/03/18_12:18:34,YZ,None,
,,,,,,calibration,0,14,2,159,21,V,1,right,0.0,0,0,,,,,,,,,,,,,,,,,,,,,1,,,,,,,,,,,,,,,,,,,,,,,,,,,,,,,,,,,,,,,,,,,,,,98,146605,21,Female,1,2024/03/18_12:18:34,YZ,None,
,,,,,,calibration,0,14,2,159,22,F,0,right,nan,0,1,,,,,,,,,,,,,,,,,,,,,1,,,,,,,,,,,,,,,,,,,,,,,,,,,,,,,,,,,,,,,,,,,,,,98,146605,21,Female,1,2024/03/18_12:18:34,YZ,None,
,,,,,,calibration,0,14,2,159,,,,,,,,0.8802083333333333,0.6666666666666666,0.0625,0.9166666666666666,0.22727272727272727,0.7102272727272727,0.7295029910575763,4,1,1,4,5,11,15,6,16,0,,,,1,,,,,,,,,,,,,,,,,,,,,,,,,,,,,,,,,,,,,,,,,,,,,,98,146605,21,Female,1,2024/03/18_12:18:34,YZ,None,
,,,,,,Calibration,0,,2,159,,,,,,,,,,,,,,,,,,,,,,,,,13,,,1,,,,,,,,,,,,,,,,,,,,,,,,,,,,,,,,,,,,,,,,,,,,,,98,146605,21,Female,1,2024/03/18_12:18:34,YZ,None,
,,,,,,calibration,0,32,2,120,1,Q,0,right,0.45176322502084076,1,0,,,,,,,,,,,,,,,,,,,,,1,,,,,,,,,,,,,,,,,,,,,,,,,,,,,,,,,,,,,,,,,,,,,,98,146605,21,Female,1,2024/03/18_12:18:34,YZ,None,
,,,,,,calibration,0,32,2,120,2,Q,0,right,0.5458543710119557,1,0,,,,,,,,,,,,,,,,,,,,,1,,,,,,,,,,,,,,,,,,,,,,,,,,,,,,,,,,,,,,,,,,,,,,98,146605,21,Female,1,2024/03/18_12:18:34,YZ,None,
,,,,,,calibration,0,32,2,120,3,Q,1,left,0.6007110000064131,1,0,,,,,,,,,,,,,,,,,,,,,1,,,,,,,,,,,,,,,,,,,,,,,,,,,,,,,,,,,,,,,,,,,,,,98,146605,21,Female,1,2024/03/18_12:18:34,YZ,None,
,,,,,,calibration,0,32,2,120,4,Q,1,left,0.5128320639778394,1,0,,,,,,,,,,,,,,,,,,,,,1,,,,,,,,,,,,,,,,,,,,,,,,,,,,,,,,,,,,,,,,,,,,,,98,146605,21,Female,1,2024/03/18_12:18:34,YZ,None,
,,,,,,calibration,0,32,2,120,5,S,0,right,0.5741007350152358,1,0,,,,,,,,,,,,,,,,,,,,,1,,,,,,,,,,,,,,,,,,,,,,,,,,,,,,,,,,,,,,,,,,,,,,98,146605,21,Female,1,2024/03/18_12:18:34,YZ,None,
,,,,,,calibration,0,32,2,120,6,Q,1,left,0.4489187890139874,1,0,,,,,,,,,,,,,,,,,,,,,1,,,,,,,,,,,,,,,,,,,,,,,,,,,,,,,,,,,,,,,,,,,,,,98,146605,21,Female,1,2024/03/18_12:18:34,YZ,None,
,,,,,,calibration,0,32,2,120,7,J,0,right,0.5466375389951281,1,0,,,,,,,,,,,,,,,,,,,,,1,,,,,,,,,,,,,,,,,,,,,,,,,,,,,,,,,,,,,,,,,,,,,,98,146605,21,Female,1,2024/03/18_12:18:34,YZ,None,
,,,,,,calibration,0,32,2,120,8,X,0,right,0.6419697069795802,1,0,,,,,,,,,,,,,,,,,,,,,1,,,,,,,,,,,,,,,,,,,,,,,,,,,,,,,,,,,,,,,,,,,,,,98,146605,21,Female,1,2024/03/18_12:18:34,YZ,None,
,,,,,,calibration,0,32,2,120,9,N,0,right,0.8409915030060802,1,0,,,,,,,,,,,,,,,,,,,,,1,,,,,,,,,,,,,,,,,,,,,,,,,,,,,,,,,,,,,,,,,,,,,,98,146605,21,Female,1,2024/03/18_12:18:34,YZ,None,
,,,,,,calibration,0,32,2,120,10,J,0,right,0.8384608580090571,1,0,,,,,,,,,,,,,,,,,,,,,1,,,,,,,,,,,,,,,,,,,,,,,,,,,,,,,,,,,,,,,,,,,,,,98,146605,21,Female,1,2024/03/18_12:18:34,YZ,None,
,,,,,,calibration,0,32,2,120,11,S,0,left,0.8570210320176557,0,0,,,,,,,,,,,,,,,,,,,,,1,,,,,,,,,,,,,,,,,,,,,,,,,,,,,,,,,,,,,,,,,,,,,,98,146605,21,Female,1,2024/03/18_12:18:34,YZ,None,
,,,,,,calibration,0,32,2,120,12,Q,0,right,0.6182585609785747,1,0,,,,,,,,,,,,,,,,,,,,,1,,,,,,,,,,,,,,,,,,,,,,,,,,,,,,,,,,,,,,,,,,,,,,98,146605,21,Female,1,2024/03/18_12:18:34,YZ,None,
,,,,,,calibration,0,32,2,120,13,C,0,right,0.76928961800877,1,0,,,,,,,,,,,,,,,,,,,,,1,,,,,,,,,,,,,,,,,,,,,,,,,,,,,,,,,,,,,,,,,,,,,,98,146605,21,Female,1,2024/03/18_12:18:34,YZ,None,
,,,,,,calibration,0,32,2,120,14,Q,1,right,0.8902673019911163,0,0,,,,,,,,,,,,,,,,,,,,,1,,,,,,,,,,,,,,,,,,,,,,,,,,,,,,,,,,,,,,,,,,,,,,98,146605,21,Female,1,2024/03/18_12:18:34,YZ,None,
,,,,,,calibration,0,32,2,120,15,N,0,right,0.9744133630010765,1,0,,,,,,,,,,,,,,,,,,,,,1,,,,,,,,,,,,,,,,,,,,,,,,,,,,,,,,,,,,,,,,,,,,,,98,146605,21,Female,1,2024/03/18_12:18:34,YZ,None,
,,,,,,calibration,0,32,2,120,16,J,0,right,0.9577652979933191,1,0,,,,,,,,,,,,,,,,,,,,,1,,,,,,,,,,,,,,,,,,,,,,,,,,,,,,,,,,,,,,,,,,,,,,98,146605,21,Female,1,2024/03/18_12:18:34,YZ,None,
,,,,,,calibration,0,32,2,120,17,C,0,right,0.8620541520067491,1,0,,,,,,,,,,,,,,,,,,,,,1,,,,,,,,,,,,,,,,,,,,,,,,,,,,,,,,,,,,,,,,,,,,,,98,146605,21,Female,1,2024/03/18_12:18:34,YZ,None,
,,,,,,calibration,0,32,2,120,18,S,0,right,0.8253596459981054,1,0,,,,,,,,,,,,,,,,,,,,,1,,,,,,,,,,,,,,,,,,,,,,,,,,,,,,,,,,,,,,,,,,,,,,98,146605,21,Female,1,2024/03/18_12:18:34,YZ,None,
,,,,,,calibration,0,32,2,120,19,V,0,right,nan,0,1,,,,,,,,,,,,,,,,,,,,,1,,,,,,,,,,,,,,,,,,,,,,,,,,,,,,,,,,,,,,,,,,,,,,98,146605,21,Female,1,2024/03/18_12:18:34,YZ,None,
,,,,,,calibration,0,32,2,120,20,Q,0,right,nan,0,1,,,,,,,,,,,,,,,,,,,,,1,,,,,,,,,,,,,,,,,,,,,,,,,,,,,,,,,,,,,,,,,,,,,,98,146605,21,Female,1,2024/03/18_12:18:34,YZ,None,
,,,,,,calibration,0,32,2,120,21,V,1,left,0.9421750210167374,1,0,,,,,,,,,,,,,,,,,,,,,1,,,,,,,,,,,,,,,,,,,,,,,,,,,,,,,,,,,,,,,,,,,,,,98,146605,21,Female,1,2024/03/18_12:18:34,YZ,None,
,,,,,,calibration,0,32,2,120,22,X,0,left,nan,0,1,,,,,,,,,,,,,,,,,,,,,1,,,,,,,,,,,,,,,,,,,,,,,,,,,,,,,,,,,,,,,,,,,,,,98,146605,21,Female,1,2024/03/18_12:18:34,YZ,None,
,,,,,,calibration,0,32,2,120,23,V,1,right,0.8254738609830383,0,0,,,,,,,,,,,,,,,,,,,,,1,,,,,,,,,,,,,,,,,,,,,,,,,,,,,,,,,,,,,,,,,,,,,,98,146605,21,Female,1,2024/03/18_12:18:34,YZ,None,
,,,,,,calibration,0,32,2,120,,,,,,,,0.8823529411764706,0.6666666666666666,0.058823529411764705,0.9285714285714286,0.13043478260869565,0.8107416879795396,0.726215882251563,4,1,0,3,3,13,17,6,17,0,,,,1,,,,,,,,,,,,,,,,,,,,,,,,,,,,,,,,,,,,,,,,,,,,,,98,146605,21,Female,1,2024/03/18_12:18:34,YZ,None,
,,,,,,Calibration,0,,2,120,,,,,,,,,,,,,,,,,,,,,,,,,14,,,1,,,,,,,,,,,,,,,,,,,,,,,,,,,,,,,,,,,,,,,,,,,,,,98,146605,21,Female,1,2024/03/18_12:18:34,YZ,None,
,,,,,,calibration,0,35,2,83,1,N,0,right,0.44460493099177256,1,0,,,,,,,,,,,,,,,,,,,,,1,,,,,,,,,,,,,,,,,,,,,,,,,,,,,,,,,,,,,,,,,,,,,,98,146605,21,Female,1,2024/03/18_12:18:34,YZ,None,
,,,,,,calibration,0,35,2,83,2,J,0,right,0.5414731389901135,1,0,,,,,,,,,,,,,,,,,,,,,1,,,,,,,,,,,,,,,,,,,,,,,,,,,,,,,,,,,,,,,,,,,,,,98,146605,21,Female,1,2024/03/18_12:18:34,YZ,None,
,,,,,,calibration,0,35,2,83,3,V,0,right,0.5533224590180907,1,0,,,,,,,,,,,,,,,,,,,,,1,,,,,,,,,,,,,,,,,,,,,,,,,,,,,,,,,,,,,,,,,,,,,,98,146605,21,Female,1,2024/03/18_12:18:34,YZ,None,
,,,,,,calibration,0,35,2,83,4,S,0,right,0.7069869480037596,1,0,,,,,,,,,,,,,,,,,,,,,1,,,,,,,,,,,,,,,,,,,,,,,,,,,,,,,,,,,,,,,,,,,,,,98,146605,21,Female,1,2024/03/18_12:18:34,YZ,None,
,,,,,,calibration,0,35,2,83,5,J,0,left,0.7857169240014628,0,0,,,,,,,,,,,,,,,,,,,,,1,,,,,,,,,,,,,,,,,,,,,,,,,,,,,,,,,,,,,,,,,,,,,,98,146605,21,Female,1,2024/03/18_12:18:34,YZ,None,
,,,,,,calibration,0,35,2,83,6,F,0,right,0.6024626680009533,1,0,,,,,,,,,,,,,,,,,,,,,1,,,,,,,,,,,,,,,,,,,,,,,,,,,,,,,,,,,,,,,,,,,,,,98,146605,21,Female,1,2024/03/18_12:18:34,YZ,None,
,,,,,,calibration,0,35,2,83,7,V,0,right,0.8883096619974822,1,0,,,,,,,,,,,,,,,,,,,,,1,,,,,,,,,,,,,,,,,,,,,,,,,,,,,,,,,,,,,,,,,,,,,,98,146605,21,Female,1,2024/03/18_12:18:34,YZ,None,
,,,,,,calibration,0,35,2,83,8,N,0,right,0.923691622010665,1,0,,,,,,,,,,,,,,,,,,,,,1,,,,,,,,,,,,,,,,,,,,,,,,,,,,,,,,,,,,,,,,,,,,,,98,146605,21,Female,1,2024/03/18_12:18:34,YZ,None,
,,,,,,calibration,0,35,2,83,9,V,1,right,nan,0,1,,,,,,,,,,,,,,,,,,,,,1,,,,,,,,,,,,,,,,,,,,,,,,,,,,,,,,,,,,,,,,,,,,,,98,146605,21,Female,1,2024/03/18_12:18:34,YZ,None,
,,,,,,calibration,0,35,2,83,10,F,0,right,0.9644952369853854,1,0,,,,,,,,,,,,,,,,,,,,,1,,,,,,,,,,,,,,,,,,,,,,,,,,,,,,,,,,,,,,,,,,,,,,98,146605,21,Female,1,2024/03/18_12:18:34,YZ,None,
,,,,,,calibration,0,35,2,83,11,V,1,left,0.5573719730018638,1,0,,,,,,,,,,,,,,,,,,,,,1,,,,,,,,,,,,,,,,,,,,,,,,,,,,,,,,,,,,,,,,,,,,,,98,146605,21,Female,1,2024/03/18_12:18:34,YZ,None,
,,,,,,calibration,0,35,2,83,12,S,0,left,nan,0,1,,,,,,,,,,,,,,,,,,,,,1,,,,,,,,,,,,,,,,,,,,,,,,,,,,,,,,,,,,,,,,,,,,,,98,146605,21,Female,1,2024/03/18_12:18:34,YZ,None,
,,,,,,calibration,0,35,2,83,13,V,1,right,0.12203023899928667,0,0,,,,,,,,,,,,,,,,,,,,,1,,,,,,,,,,,,,,,,,,,,,,,,,,,,,,,,,,,,,,,,,,,,,,98,146605,21,Female,1,2024/03/18_12:18:34,YZ,None,
,,,,,,calibration,0,35,2,83,14,S,1,left,0.0,1,0,,,,,,,,,,,,,,,,,,,,,1,,,,,,,,,,,,,,,,,,,,,,,,,,,,,,,,,,,,,,,,,,,,,,98,146605,21,Female,1,2024/03/18_12:18:34,YZ,None,
,,,,,,calibration,0,35,2,83,15,Q,0,right,0.6989917210012209,1,0,,,,,,,,,,,,,,,,,,,,,1,,,,,,,,,,,,,,,,,,,,,,,,,,,,,,,,,,,,,,,,,,,,,,98,146605,21,Female,1,2024/03/18_12:18:34,YZ,None,
,,,,,,calibration,0,35,2,83,16,V,0,left,0.5781279700167943,0,0,,,,,,,,,,,,,,,,,,,,,1,,,,,,,,,,,,,,,,,,,,,,,,,,,,,,,,,,,,,,,,,,,,,,98,146605,21,Female,1,2024/03/18_12:18:34,YZ,None,
,,,,,,calibration,0,35,2,83,17,X,0,right,0.5123376979900058,1,0,,,,,,,,,,,,,,,,,,,,,1,,,,,,,,,,,,,,,,,,,,,,,,,,,,,,,,,,,,,,,,,,,,,,98,146605,21,Female,1,2024/03/18_12:18:34,YZ,None,
,,,,,,calibration,0,35,2,83,18,V,1,left,0.7752331509836949,1,0,,,,,,,,,,,,,,,,,,,,,1,,,,,,,,,,,,,,,,,,,,,,,,,,,,,,,,,,,,,,,,,,,,,,98,146605,21,Female,1,2024/03/18_12:18:34,YZ,None,
,,,,,,calibration,0,35,2,83,19,F,0,right,0.6092553329945076,1,0,,,,,,,,,,,,,,,,,,,,,1,,,,,,,,,,,,,,,,,,,,,,,,,,,,,,,,,,,,,,,,,,,,,,98,146605,21,Female,1,2024/03/18_12:18:34,YZ,None,
,,,,,,calibration,0,35,2,83,20,Q,0,left,0.7407718200120144,0,0,,,,,,,,,,,,,,,,,,,,,1,,,,,,,,,,,,,,,,,,,,,,,,,,,,,,,,,,,,,,,,,,,,,,98,146605,21,Female,1,2024/03/18_12:18:34,YZ,None,
,,,,,,calibration,0,35,2,83,21,F,1,left,0.9567500379926059,1,0,,,,,,,,,,,,,,,,,,,,,1,,,,,,,,,,,,,,,,,,,,,,,,,,,,,,,,,,,,,,,,,,,,,,98,146605,21,Female,1,2024/03/18_12:18:34,YZ,None,
,,,,,,calibration,0,35,2,83,22,Q,1,left,0.7116892100020777,1,0,,,,,,,,,,,,,,,,,,,,,1,,,,,,,,,,,,,,,,,,,,,,,,,,,,,,,,,,,,,,,,,,,,,,98,146605,21,Female,1,2024/03/18_12:18:34,YZ,None,
,,,,,,calibration,0,35,2,83,23,V,0,right,0.6243333320016973,1,0,,,,,,,,,,,,,,,,,,,,,1,,,,,,,,,,,,,,,,,,,,,,,,,,,,,,,,,,,,,,,,,,,,,,98,146605,21,Female,1,2024/03/18_12:18:34,YZ,None,
,,,,,,calibration,0,35,2,83,24,N,0,right,0.9037618250004016,1,0,,,,,,,,,,,,,,,,,,,,,1,,,,,,,,,,,,,,,,,,,,,,,,,,,,,,,,,,,,,,,,,,,,,,98,146605,21,Female,1,2024/03/18_12:18:34,YZ,None,
,,,,,,calibration,0,35,2,83,,,,,,,,0.8340336134453781,0.7142857142857143,0.17647058823529413,0.8125,0.08333333333333333,0.7401960784313725,0.6455326318179935,5,3,1,1,2,13,18,7,17,0,,,,1,,,,,,,,,,,,,,,,,,,,,,,,,,,,,,,,,,,,,,,,,,,,,,98,146605,21,Female,1,2024/03/18_12:18:34,YZ,None,
,,,,,,Calibration,0,,2,83,,,,,,,,,,,,,,,,,,,,,,,,,15,,,1,,,,,,,,,,,,,,,,,,,,,,,,,,,,,,,,,,,,,,,,,,,,,,98,146605,21,Female,1,2024/03/18_12:18:34,YZ,None,
,,,,,,CALIBRATION,0,,,,,,,,,,,,,,,,,,,,,,,,,,,,15,0.8340336134453781,83,1,,,,,,,,,,,,,,,,,,,,,,,,,,,,,,,,,,,,,,,,,,,,,,98,146605,21,Female,1,2024/03/18_12:18:34,YZ,None,
1,./instructions/inst_prac_1/Slide24.png,right,17.648495141998865,686.2839353800227,703.9324305220216,,,,,,,,,,,,,,,,,,,,,,,,,,,,,,,,,1,,,,,,,,,,,,,,,,,,,,,,,,,,,,,,,,,,,,,,,,,,,,,,98,146605,21,Female,1,2024/03/18_12:18:34,YZ,None,
2,./instructions/inst_prac_1/Slide25.png,right,3.075088126002811,703.9612901050132,707.036378231016,,,,,,,,,,,,,,,,,,,,,,,,,,,,,,,,,1,,,,,,,,,,,,,,,,,,,,,,,,,,,,,,,,,,,,,,,,,,,,,,98,146605,21,Female,1,2024/03/18_12:18:34,YZ,None,
3,./instructions/inst_prac_1/Slide26.png,right,1.4431009049876593,707.0653020840255,708.5084029890131,,,,,,,,,,,,,,,,,,,,,,,,,,,,,,,,,1,,,,,,,,,,,,,,,,,,,,,,,,,,,,,,,,,,,,,,,,,,,,,,98,146605,21,Female,1,2024/03/18_12:18:34,YZ,None,
4,./instructions/inst_prac_1/Slide27.png,right,1.349826983991079,708.5345674450218,709.8843944290129,,,,,,,,,,,,,,,,,,,,,,,,,,,,,,,,,1,,,,,,,,,,,,,,,,,,,,,,,,,,,,,,,,,,,,,,,,,,,,,,98,146605,21,Female,1,2024/03/18_12:18:34,YZ,None,
5,./instructions/inst_prac_1/Slide28.png,right,1.0835131059866399,709.9129299470223,710.996443053009,,,,,,,,,,,,,,,,,,,,,,,,,,,,,,,,,1,,,,,,,,,,,,,,,,,,,,,,,,,,,,,,,,,,,,,,,,,,,,,,98,146605,21,Female,1,2024/03/18_12:18:34,YZ,None,
6,./instructions/inst_prac_1/Slide29.png,right,9.195220749010332,711.0252074559976,720.2204282050079,,,,,,,,,,,,,,,,,,,,,,,,,,,,,,,,,1,,,,,,,,,,,,,,,,,,,,,,,,,,,,,,,,,,,,,,,,,,,,,,98,146605,21,Female,1,2024/03/18_12:18:34,YZ,None,
7,./instructions/inst_prac_1/Slide30.png,right,14.71491149099893,720.2496600230224,734.9645715140214,,,,,,,,,,,,,,,,,,,,,,,,,,,,,,,,,1,,,,,,,,,,,,,,,,,,,,,,,,,,,,,,,,,,,,,,,,,,,,,,98,146605,21,Female,1,2024/03/18_12:18:34,YZ,None,
,,,,,,practice,0,14,1,1250,1,N,0,right,2.537274175003404,1,0,,,,,,,,,,,,,,,,,,,,,1,,,,,,,,,,,,,,,,,,,,,,,,,,,,,,,,,,,,,,,,,,,,,,98,146605,21,Female,1,2024/03/18_12:18:34,YZ,None,
,,,,,,practice,0,14,1,1250,2,F,0,right,0.909067000990035,1,0,,,,,,,,,,,,,,,,,,,,,1,,,,,,,,,,,,,,,,,,,,,,,,,,,,,,,,,,,,,,,,,,,,,,98,146605,21,Female,1,2024/03/18_12:18:34,YZ,None,
,,,,,,practice,0,14,1,1250,3,Q,0,right,0.5413845849980135,1,0,,,,,,,,,,,,,,,,,,,,,1,,,,,,,,,,,,,,,,,,,,,,,,,,,,,,,,,,,,,,,,,,,,,,98,146605,21,Female,1,2024/03/18_12:18:34,YZ,None,
,,,,,,practice,0,14,1,1250,4,Q,1,left,0.614451496017864,1,0,,,,,,,,,,,,,,,,,,,,,1,,,,,,,,,,,,,,,,,,,,,,,,,,,,,,,,,,,,,,,,,,,,,,98,146605,21,Female,1,2024/03/18_12:18:34,YZ,None,
,,,,,,practice,0,14,1,1250,5,C,0,right,0.5644011219847016,1,0,,,,,,,,,,,,,,,,,,,,,1,,,,,,,,,,,,,,,,,,,,,,,,,,,,,,,,,,,,,,,,,,,,,,98,146605,21,Female,1,2024/03/18_12:18:34,YZ,None,
,,,,,,practice,0,14,1,1250,6,N,0,right,0.5473778870073147,1,0,,,,,,,,,,,,,,,,,,,,,1,,,,,,,,,,,,,,,,,,,,,,,,,,,,,,,,,,,,,,,,,,,,,,98,146605,21,Female,1,2024/03/18_12:18:34,YZ,None,
,,,,,,practice,0,14,1,1250,7,J,0,right,0.6122806789935566,1,0,,,,,,,,,,,,,,,,,,,,,1,,,,,,,,,,,,,,,,,,,,,,,,,,,,,,,,,,,,,,,,,,,,,,98,146605,21,Female,1,2024/03/18_12:18:34,YZ,None,
,,,,,,practice,0,14,1,1250,8,J,1,left,0.6461293239844963,1,0,,,,,,,,,,,,,,,,,,,,,1,,,,,,,,,,,,,,,,,,,,,,,,,,,,,,,,,,,,,,,,,,,,,,98,146605,21,Female,1,2024/03/18_12:18:34,YZ,None,
,,,,,,practice,0,14,1,1250,9,C,0,right,0.5173353309801314,1,0,,,,,,,,,,,,,,,,,,,,,1,,,,,,,,,,,,,,,,,,,,,,,,,,,,,,,,,,,,,,,,,,,,,,98,146605,21,Female,1,2024/03/18_12:18:34,YZ,None,
,,,,,,practice,0,14,1,1250,10,C,1,left,0.5573119909968227,1,0,,,,,,,,,,,,,,,,,,,,,1,,,,,,,,,,,,,,,,,,,,,,,,,,,,,,,,,,,,,,,,,,,,,,98,146605,21,Female,1,2024/03/18_12:18:34,YZ,None,
,,,,,,practice,0,14,1,1250,,,,,,,,1.0,1.0,0.0,1.0,0.0,1.0,0.804701359095634,3,0,0,0,0,7,10,3,7,0,,,,1,,,,,,,,,,,,,,,,,,,,,,,,,,,,,,,,,,,,,,,,,,,,,,98,146605,21,Female,1,2024/03/18_12:18:34,YZ,None,
1,./instructions/inst_prac_1_next/Slide35.png,right,3.5769593639997765,753.5554942279996,757.1324535919994,,,,,,,,,,,,,,,,,,,,,,,,,,,,,,,,,1,,,,,,,,,,,,,,,,,,,,,,,,,,,,,,,,,,,,,,,,,,,,,,98,146605,21,Female,1,2024/03/18_12:18:34,YZ,None,
,,,,,,practice,0,5,1,83,1,N,0,right,0.684452807996422,1,0,,,,,,,,,,,,,,,,,,,,,1,,,,,,,,,,,,,,,,,,,,,,,,,,,,,,,,,,,,,,,,,,,,,,98,146605,21,Female,1,2024/03/18_12:18:34,YZ,None,
,,,,,,practice,0,5,1,83,2,N,1,left,0.45799094400717877,1,0,,,,,,,,,,,,,,,,,,,,,1,,,,,,,,,,,,,,,,,,,,,,,,,,,,,,,,,,,,,,,,,,,,,,98,146605,21,Female,1,2024/03/18_12:18:34,YZ,None,
,,,,,,practice,0,5,1,83,3,J,0,right,0.4178536559920758,1,0,,,,,,,,,,,,,,,,,,,,,1,,,,,,,,,,,,,,,,,,,,,,,,,,,,,,,,,,,,,,,,,,,,,,98,146605,21,Female,1,2024/03/18_12:18:34,YZ,None,
,,,,,,practice,0,5,1,83,4,S,0,right,0.4237076529825572,1,0,,,,,,,,,,,,,,,,,,,,,1,,,,,,,,,,,,,,,,,,,,,,,,,,,,,,,,,,,,,,,,,,,,,,98,146605,21,Female,1,2024/03/18_12:18:34,YZ,None,
,,,,,,practice,0,5,1,83,5,N,0,right,0.7760213199944701,1,0,,,,,,,,,,,,,,,,,,,,,1,,,,,,,,,,,,,,,,,,,,,,,,,,,,,,,,,,,,,,,,,,,,,,98,146605,21,Female,1,2024/03/18_12:18:34,YZ,None,
,,,,,,practice,0,5,1,83,6,Q,0,right,0.4650539010181092,1,0,,,,,,,,,,,,,,,,,,,,,1,,,,,,,,,,,,,,,,,,,,,,,,,,,,,,,,,,,,,,,,,,,,,,98,146605,21,Female,1,2024/03/18_12:18:34,YZ,None,
,,,,,,practice,0,5,1,83,7,J,0,right,0.5726153670111671,1,0,,,,,,,,,,,,,,,,,,,,,1,,,,,,,,,,,,,,,,,,,,,,,,,,,,,,,,,,,,,,,,,,,,,,98,146605,21,Female,1,2024/03/18_12:18:34,YZ,None,
,,,,,,practice,0,5,1,83,8,J,1,left,0.44404507300350815,1,0,,,,,,,,,,,,,,,,,,,,,1,,,,,,,,,,,,,,,,,,,,,,,,,,,,,,,,,,,,,,,,,,,,,,98,146605,21,Female,1,2024/03/18_12:18:34,YZ,None,
,,,,,,practice,0,5,1,83,9,N,0,right,0.46064030297566205,1,0,,,,,,,,,,,,,,,,,,,,,1,,,,,,,,,,,,,,,,,,,,,,,,,,,,,,,,,,,,,,,,,,,,,,98,146605,21,Female,1,2024/03/18_12:18:34,YZ,None,
,,,,,,practice,0,5,1,83,10,S,0,right,0.5328975029988214,1,0,,,,,,,,,,,,,,,,,,,,,1,,,,,,,,,,,,,,,,,,,,,,,,,,,,,,,,,,,,,,,,,,,,,,98,146605,21,Female,1,2024/03/18_12:18:34,YZ,None,
,,,,,,practice,0,5,1,83,11,V,0,right,0.48264350200770423,1,0,,,,,,,,,,,,,,,,,,,,,1,,,,,,,,,,,,,,,,,,,,,,,,,,,,,,,,,,,,,,,,,,,,,,98,146605,21,Female,1,2024/03/18_12:18:34,YZ,None,
,,,,,,practice,0,5,1,83,12,V,1,left,0.5684913920122199,1,0,,,,,,,,,,,,,,,,,,,,,1,,,,,,,,,,,,,,,,,,,,,,,,,,,,,,,,,,,,,,,,,,,,,,98,146605,21,Female,1,2024/03/18_12:18:34,YZ,None,
,,,,,,practice,0,5,1,83,13,X,0,right,0.5761644769809209,1,0,,,,,,,,,,,,,,,,,,,,,1,,,,,,,,,,,,,,,,,,,,,,,,,,,,,,,,,,,,,,,,,,,,,,98,146605,21,Female,1,2024/03/18_12:18:34,YZ,None,
,,,,,,practice,0,5,1,83,14,X,1,left,0.5835047170112375,1,0,,,,,,,,,,,,,,,,,,,,,1,,,,,,,,,,,,,,,,,,,,,,,,,,,,,,,,,,,,,,,,,,,,,,98,146605,21,Female,1,2024/03/18_12:18:34,YZ,None,
,,,,,,practice,0,5,1,83,15,V,0,right,0.4899474160047248,1,0,,,,,,,,,,,,,,,,,,,,,1,,,,,,,,,,,,,,,,,,,,,,,,,,,,,,,,,,,,,,,,,,,,,,98,146605,21,Female,1,2024/03/18_12:18:34,YZ,None,
,,,,,,practice,0,5,1,83,16,V,1,left,0.5572921749844681,1,0,,,,,,,,,,,,,,,,,,,,,1,,,,,,,,,,,,,,,,,,,,,,,,,,,,,,,,,,,,,,,,,,,,,,98,146605,21,Female,1,2024/03/18_12:18:34,YZ,None,
,,,,,,practice,0,5,1,83,17,F,0,right,0.6525481529824901,1,0,,,,,,,,,,,,,,,,,,,,,1,,,,,,,,,,,,,,,,,,,,,,,,,,,,,,,,,,,,,,,,,,,,,,98,146605,21,Female,1,2024/03/18_12:18:34,YZ,None,
,,,,,,practice,0,5,1,83,18,S,0,right,0.6797727539960761,1,0,,,,,,,,,,,,,,,,,,,,,1,,,,,,,,,,,,,,,,,,,,,,,,,,,,,,,,,,,,,,,,,,,,,,98,146605,21,Female,1,2024/03/18_12:18:34,YZ,None,
,,,,,,practice,0,5,1,83,19,S,1,right,0.5133699630096089,0,0,,,,,,,,,,,,,,,,,,,,,1,,,,,,,,,,,,,,,,,,,,,,,,,,,,,,,,,,,,,,,,,,,,,,98,146605,21,Female,1,2024/03/18_12:18:34,YZ,None,
,,,,,,practice,0,5,1,83,20,C,0,left,0.0,0,0,,,,,,,,,,,,,,,,,,,,,1,,,,,,,,,,,,,,,,,,,,,,,,,,,,,,,,,,,,,,,,,,,,,,98,146605,21,Female,1,2024/03/18_12:18:34,YZ,None,
,,,,,,practice,0,5,1,83,21,S,0,right,1.1873507839918602,1,0,,,,,,,,,,,,,,,,,,,,,1,,,,,,,,,,,,,,,,,,,,,,,,,,,,,,,,,,,,,,,,,,,,,,98,146605,21,Female,1,2024/03/18_12:18:34,YZ,None,
,,,,,,practice,0,5,1,83,22,V,0,right,0.5643108380027115,1,0,,,,,,,,,,,,,,,,,,,,,1,,,,,,,,,,,,,,,,,,,,,,,,,,,,,,,,,,,,,,,,,,,,,,98,146605,21,Female,1,2024/03/18_12:18:34,YZ,None,
,,,,,,practice,0,5,1,83,23,F,0,right,0.5938469510001596,1,0,,,,,,,,,,,,,,,,,,,,,1,,,,,,,,,,,,,,,,,,,,,,,,,,,,,,,,,,,,,,,,,,,,,,98,146605,21,Female,1,2024/03/18_12:18:34,YZ,None,
,,,,,,practice,0,5,1,83,24,C,0,right,0.5441786949813832,1,0,,,,,,,,,,,,,,,,,,,,,1,,,,,,,,,,,,,,,,,,,,,,,,,,,,,,,,,,,,,,,,,,,,,,98,146605,21,Female,1,2024/03/18_12:18:34,YZ,None,
,,,,,,practice,0,5,1,83,,,,,,,,0.9351851851851851,0.8333333333333334,0.05555555555555555,0.9444444444444444,0.0,0.9444444444444444,0.551195847706064,5,1,0,0,0,17,22,6,18,0,,,,1,,,,,,,,,,,,,,,,,,,,,,,,,,,,,,,,,,,,,,,,,,,,,,98,146605,21,Female,1,2024/03/18_12:18:34,YZ,None,
,,,,,,practice,0,11,1,83,1,V,0,right,0.5568533889891114,1,0,,,,,,,,,,,,,,,,,,,,,1,,,,,,,,,,,,,,,,,,,,,,,,,,,,,,,,,,,,,,,,,,,,,,98,146605,21,Female,1,2024/03/18_12:18:34,YZ,None,
,,,,,,practice,0,11,1,83,2,S,0,right,0.5437017189979088,1,0,,,,,,,,,,,,,,,,,,,,,1,,,,,,,,,,,,,,,,,,,,,,,,,,,,,,,,,,,,,,,,,,,,,,98,146605,21,Female,1,2024/03/18_12:18:34,YZ,None,
,,,,,,practice,0,11,1,83,3,X,0,right,0.6259862529987004,1,0,,,,,,,,,,,,,,,,,,,,,1,,,,,,,,,,,,,,,,,,,,,,,,,,,,,,,,,,,,,,,,,,,,,,98,146605,21,Female,1,2024/03/18_12:18:34,YZ,None,
,,,,,,practice,0,11,1,83,4,J,0,right,0.5008110670023598,1,0,,,,,,,,,,,,,,,,,,,,,1,,,,,,,,,,,,,,,,,,,,,,,,,,,,,,,,,,,,,,,,,,,,,,98,146605,21,Female,1,2024/03/18_12:18:34,YZ,None,
,,,,,,practice,0,11,1,83,5,J,1,left,0.46435118300723843,1,0,,,,,,,,,,,,,,,,,,,,,1,,,,,,,,,,,,,,,,,,,,,,,,,,,,,,,,,,,,,,,,,,,,,,98,146605,21,Female,1,2024/03/18_12:18:34,YZ,None,
,,,,,,practice,0,11,1,83,6,N,0,right,0.5770118099753745,1,0,,,,,,,,,,,,,,,,,,,,,1,,,,,,,,,,,,,,,,,,,,,,,,,,,,,,,,,,,,,,,,,,,,,,98,146605,21,Female,1,2024/03/18_12:18:34,YZ,None,
,,,,,,practice,0,11,1,83,7,Q,0,right,0.6846279549936298,1,0,,,,,,,,,,,,,,,,,,,,,1,,,,,,,,,,,,,,,,,,,,,,,,,,,,,,,,,,,,,,,,,,,,,,98,146605,21,Female,1,2024/03/18_12:18:34,YZ,None,
,,,,,,practice,0,11,1,83,8,C,0,right,0.5842446239839774,1,0,,,,,,,,,,,,,,,,,,,,,1,,,,,,,,,,,,,,,,,,,,,,,,,,,,,,,,,,,,,,,,,,,,,,98,146605,21,Female,1,2024/03/18_12:18:34,YZ,None,
,,,,,,practice,0,11,1,83,9,C,1,left,0.5246010429982562,1,0,,,,,,,,,,,,,,,,,,,,,1,,,,,,,,,,,,,,,,,,,,,,,,,,,,,,,,,,,,,,,,,,,,,,98,146605,21,Female,1,2024/03/18_12:18:34,YZ,None,
,,,,,,practice,0,11,1,83,10,F,0,right,0.5174948560015764,1,0,,,,,,,,,,,,,,,,,,,,,1,,,,,,,,,,,,,,,,,,,,,,,,,,,,,,,,,,,,,,,,,,,,,,98,146605,21,Female,1,2024/03/18_12:18:34,YZ,None,
,,,,,,practice,0,11,1,83,11,F,1,left,0.7239734859904274,1,0,,,,,,,,,,,,,,,,,,,,,1,,,,,,,,,,,,,,,,,,,,,,,,,,,,,,,,,,,,,,,,,,,,,,98,146605,21,Female,1,2024/03/18_12:18:34,YZ,None,
,,,,,,practice,0,11,1,83,12,C,0,right,0.6766762470069807,1,0,,,,,,,,,,,,,,,,,,,,,1,,,,,,,,,,,,,,,,,,,,,,,,,,,,,,,,,,,,,,,,,,,,,,98,146605,21,Female,1,2024/03/18_12:18:34,YZ,None,
,,,,,,practice,0,11,1,83,13,C,1,left,0.5168023309961427,1,0,,,,,,,,,,,,,,,,,,,,,1,,,,,,,,,,,,,,,,,,,,,,,,,,,,,,,,,,,,,,,,,,,,,,98,146605,21,Female,1,2024/03/18_12:18:34,YZ,None,
,,,,,,practice,0,11,1,83,14,S,0,right,0.4962307050009258,1,0,,,,,,,,,,,,,,,,,,,,,1,,,,,,,,,,,,,,,,,,,,,,,,,,,,,,,,,,,,,,,,,,,,,,98,146605,21,Female,1,2024/03/18_12:18:34,YZ,None,
,,,,,,practice,0,11,1,83,15,Q,0,right,0.6653030800225679,1,0,,,,,,,,,,,,,,,,,,,,,1,,,,,,,,,,,,,,,,,,,,,,,,,,,,,,,,,,,,,,,,,,,,,,98,146605,21,Female,1,2024/03/18_12:18:34,YZ,None,
,,,,,,practice,0,11,1,83,16,Q,1,left,0.5861426079936791,1,0,,,,,,,,,,,,,,,,,,,,,1,,,,,,,,,,,,,,,,,,,,,,,,,,,,,,,,,,,,,,,,,,,,,,98,146605,21,Female,1,2024/03/18_12:18:34,YZ,None,
,,,,,,practice,0,11,1,83,17,F,0,right,0.4682030990079511,1,0,,,,,,,,,,,,,,,,,,,,,1,,,,,,,,,,,,,,,,,,,,,,,,,,,,,,,,,,,,,,,,,,,,,,98,146605,21,Female,1,2024/03/18_12:18:34,YZ,None,
,,,,,,practice,0,11,1,83,18,V,0,right,0.7274523719970603,1,0,,,,,,,,,,,,,,,,,,,,,1,,,,,,,,,,,,,,,,,,,,,,,,,,,,,,,,,,,,,,,,,,,,,,98,146605,21,Female,1,2024/03/18_12:18:34,YZ,None,
,,,,,,practice,0,11,1,83,19,C,0,right,0.6330874200211838,1,0,,,,,,,,,,,,,,,,,,,,,1,,,,,,,,,,,,,,,,,,,,,,,,,,,,,,,,,,,,,,,,,,,,,,98,146605,21,Female,1,2024/03/18_12:18:34,YZ,None,
,,,,,,practice,0,11,1,83,20,J,0,right,0.5374937070009764,1,0,,,,,,,,,,,,,,,,,,,,,1,,,,,,,,,,,,,,,,,,,,,,,,,,,,,,,,,,,,,,,,,,,,,,98,146605,21,Female,1,2024/03/18_12:18:34,YZ,None,
,,,,,,practice,0,11,1,83,21,X,0,right,0.5568147059821058,1,0,,,,,,,,,,,,,,,,,,,,,1,,,,,,,,,,,,,,,,,,,,,,,,,,,,,,,,,,,,,,,,,,,,,,98,146605,21,Female,1,2024/03/18_12:18:34,YZ,None,
,,,,,,practice,0,11,1,83,22,S,0,right,0.5931737729988527,1,0,,,,,,,,,,,,,,,,,,,,,1,,,,,,,,,,,,,,,,,,,,,,,,,,,,,,,,,,,,,,,,,,,,,,98,146605,21,Female,1,2024/03/18_12:18:34,YZ,None,
,,,,,,practice,0,11,1,83,23,S,1,left,0.5569823260011617,1,0,,,,,,,,,,,,,,,,,,,,,1,,,,,,,,,,,,,,,,,,,,,,,,,,,,,,,,,,,,,,,,,,,,,,98,146605,21,Female,1,2024/03/18_12:18:34,YZ,None,
,,,,,,practice,0,11,1,83,24,J,0,right,0.6250795779924374,1,0,,,,,,,,,,,,,,,,,,,,,1,,,,,,,,,,,,,,,,,,,,,,,,,,,,,,,,,,,,,,,,,,,,,,98,146605,21,Female,1,2024/03/18_12:18:34,YZ,None,
,,,,,,practice,0,11,1,83,,,,,,,,1.0,1.0,0.0,1.0,0.0,1.0,0.5809624723733577,6,0,0,0,0,18,24,6,18,0,,,,1,,,,,,,,,,,,,,,,,,,,,,,,,,,,,,,,,,,,,,,,,,,,,,98,146605,21,Female,1,2024/03/18_12:18:34,YZ,None,
1,./instructions/inst_prac_3/Slide37.png,right,21.426727201993344,813.6098145550059,835.0365417569992,,,,,,,,,,,,,,,,,,,,,,,,,,,,,,,,,1,,,,,,,,,,,,,,,,,,,,,,,,,,,,,,,,,,,,,,,,,,,,,,98,146605,21,Female,1,2024/03/18_12:18:34,YZ,None,
2,./instructions/inst_prac_3/Slide38.png,right,1.8022252719965763,835.066199413006,836.8684246850025,,,,,,,,,,,,,,,,,,,,,,,,,,,,,,,,,1,,,,,,,,,,,,,,,,,,,,,,,,,,,,,,,,,,,,,,,,,,,,,,98,146605,21,Female,1,2024/03/18_12:18:34,YZ,None,
3,./instructions/inst_prac_3/Slide39.png,right,0.8537506950087845,836.8945835200138,837.7483342150226,,,,,,,,,,,,,,,,,,,,,,,,,,,,,,,,,1,,,,,,,,,,,,,,,,,,,,,,,,,,,,,,,,,,,,,,,,,,,,,,98,146605,21,Female,1,2024/03/18_12:18:34,YZ,None,
4,./instructions/inst_prac_3/Slide40.png,right,0.8434623230132274,837.777170145011,838.6206324680243,,,,,,,,,,,,,,,,,,,,,,,,,,,,,,,,,1,,,,,,,,,,,,,,,,,,,,,,,,,,,,,,,,,,,,,,,,,,,,,,98,146605,21,Female,1,2024/03/18_12:18:34,YZ,None,
5,./instructions/inst_prac_3/Slide41.png,right,1.2861168700037524,838.6462747880141,839.9323916580179,,,,,,,,,,,,,,,,,,,,,,,,,,,,,,,,,1,,,,,,,,,,,,,,,,,,,,,,,,,,,,,,,,,,,,,,,,,,,,,,98,146605,21,Female,1,2024/03/18_12:18:34,YZ,None,
6,./instructions/inst_prac_3/Slide42.png,right,3.9945480830210727,839.9618067650008,843.9563548480219,,,,,,,,,,,,,,,,,,,,,,,,,,,,,,,,,1,,,,,,,,,,,,,,,,,,,,,,,,,,,,,,,,,,,,,,,,,,,,,,98,146605,21,Female,1,2024/03/18_12:18:34,YZ,None,
7,./instructions/inst_prac_3/Slide43.png,right,28.797645342972828,843.9826412820257,872.7802866249986,,,,,,,,,,,,,,,,,,,,,,,,,,,,,,,,,1,,,,,,,,,,,,,,,,,,,,,,,,,,,,,,,,,,,,,,,,,,,,,,98,146605,21,Female,1,2024/03/18_12:18:34,YZ,None,
8,./instructions/inst_prac_3/Slide44.png,right,6.3147347859921865,872.8096294240095,879.1243642100017,,,,,,,,,,,,,,,,,,,,,,,,,,,,,,,,,1,,,,,,,,,,,,,,,,,,,,,,,,,,,,,,,,,,,,,,,,,,,,,,98,146605,21,Female,1,2024/03/18_12:18:34,YZ,None,
,,,,,,practice,0,30,3,788,1,X,0,right,1.955945113004418,1,0,,,,,,,,,,,,,,,,,,,,,1,,,,,,,,,,,,,,,,,,,,,,,,,,,,,,,,,,,,,,,,,,,,,,98,146605,21,Female,1,2024/03/18_12:18:34,YZ,None,
,,,,,,practice,0,30,3,788,2,V,0,right,0.9137141270039137,1,0,,,,,,,,,,,,,,,,,,,,,1,,,,,,,,,,,,,,,,,,,,,,,,,,,,,,,,,,,,,,,,,,,,,,98,146605,21,Female,1,2024/03/18_12:18:34,YZ,None,
,,,,,,practice,0,30,3,788,3,C,0,right,0.852276621008059,1,0,,,,,,,,,,,,,,,,,,,,,1,,,,,,,,,,,,,,,,,,,,,,,,,,,,,,,,,,,,,,,,,,,,,,98,146605,21,Female,1,2024/03/18_12:18:34,YZ,None,
,,,,,,practice,0,30,3,788,4,X,1,left,2.981435714988038,1,0,,,,,,,,,,,,,,,,,,,,,1,,,,,,,,,,,,,,,,,,,,,,,,,,,,,,,,,,,,,,,,,,,,,,98,146605,21,Female,1,2024/03/18_12:18:34,YZ,None,
,,,,,,practice,0,30,3,788,5,F,0,right,2.172764692979399,1,0,,,,,,,,,,,,,,,,,,,,,1,,,,,,,,,,,,,,,,,,,,,,,,,,,,,,,,,,,,,,,,,,,,,,98,146605,21,Female,1,2024/03/18_12:18:34,YZ,None,
,,,,,,practice,0,30,3,788,6,C,1,left,1.0132156049949117,1,0,,,,,,,,,,,,,,,,,,,,,1,,,,,,,,,,,,,,,,,,,,,,,,,,,,,,,,,,,,,,,,,,,,,,98,146605,21,Female,1,2024/03/18_12:18:34,YZ,None,
,,,,,,practice,0,30,3,788,7,F,0,right,1.3537093980121426,1,0,,,,,,,,,,,,,,,,,,,,,1,,,,,,,,,,,,,,,,,,,,,,,,,,,,,,,,,,,,,,,,,,,,,,98,146605,21,Female,1,2024/03/18_12:18:34,YZ,None,
,,,,,,practice,0,30,3,788,8,V,0,right,1.1883430139860138,1,0,,,,,,,,,,,,,,,,,,,,,1,,,,,,,,,,,,,,,,,,,,,,,,,,,,,,,,,,,,,,,,,,,,,,98,146605,21,Female,1,2024/03/18_12:18:34,YZ,None,
,,,,,,practice,0,30,3,788,9,N,0,right,1.7458726790209766,1,0,,,,,,,,,,,,,,,,,,,,,1,,,,,,,,,,,,,,,,,,,,,,,,,,,,,,,,,,,,,,,,,,,,,,98,146605,21,Female,1,2024/03/18_12:18:34,YZ,None,
,,,,,,practice,0,30,3,788,10,X,0,right,2.0225574969954323,1,0,,,,,,,,,,,,,,,,,,,,,1,,,,,,,,,,,,,,,,,,,,,,,,,,,,,,,,,,,,,,,,,,,,,,98,146605,21,Female,1,2024/03/18_12:18:34,YZ,None,
,,,,,,practice,0,30,3,788,11,V,1,left,0.7967742740001995,1,0,,,,,,,,,,,,,,,,,,,,,1,,,,,,,,,,,,,,,,,,,,,,,,,,,,,,,,,,,,,,,,,,,,,,98,146605,21,Female,1,2024/03/18_12:18:34,YZ,None,
,,,,,,practice,0,30,3,788,12,X,0,right,1.546080500993412,1,0,,,,,,,,,,,,,,,,,,,,,1,,,,,,,,,,,,,,,,,,,,,,,,,,,,,,,,,,,,,,,,,,,,,,98,146605,21,Female,1,2024/03/18_12:18:34,YZ,None,
,,,,,,practice,0,30,3,788,13,X,1,left,0.7134083200071473,1,0,,,,,,,,,,,,,,,,,,,,,1,,,,,,,,,,,,,,,,,,,,,,,,,,,,,,,,,,,,,,,,,,,,,,98,146605,21,Female,1,2024/03/18_12:18:34,YZ,None,
,,,,,,practice,0,30,3,788,,,,,,,,1.0,1.0,0.0,1.0,0.0,1.0,1.4812382736149279,4,0,0,0,0,9,13,4,9,0,,,,1,,,,,,,,,,,,,,,,,,,,,,,,,,,,,,,,,,,,,,,,,,,,,,98,146605,21,Female,1,2024/03/18_12:18:34,YZ,None,
1,./instructions/inst_prac_3_next/Slide49.png,right,21.8999290910142,912.0485295830003,933.9484586740145,,,,,,,,,,,,,,,,,,,,,,,,,,,,,,,,,1,,,,,,,,,,,,,,,,,,,,,,,,,,,,,,,,,,,,,,,,,,,,,,98,146605,21,Female,1,2024/03/18_12:18:34,YZ,None,
,,,,,,practice,0,23,3,83,1,Q,0,right,0.9698835359886289,1,0,,,,,,,,,,,,,,,,,,,,,1,,,,,,,,,,,,,,,,,,,,,,,,,,,,,,,,,,,,,,,,,,,,,,98,146605,21,Female,1,2024/03/18_12:18:34,YZ,None,
,,,,,,practice,0,23,3,83,2,S,0,right,0.6813047629839275,1,0,,,,,,,,,,,,,,,,,,,,,1,,,,,,,,,,,,,,,,,,,,,,,,,,,,,,,,,,,,,,,,,,,,,,98,146605,21,Female,1,2024/03/18_12:18:34,YZ,None,
,,,,,,practice,0,23,3,83,3,X,0,right,0.9206089770013932,1,0,,,,,,,,,,,,,,,,,,,,,1,,,,,,,,,,,,,,,,,,,,,,,,,,,,,,,,,,,,,,,,,,,,,,98,146605,21,Female,1,2024/03/18_12:18:34,YZ,None,
,,,,,,practice,0,23,3,83,4,V,0,right,0.5514772959868424,1,0,,,,,,,,,,,,,,,,,,,,,1,,,,,,,,,,,,,,,,,,,,,,,,,,,,,,,,,,,,,,,,,,,,,,98,146605,21,Female,1,2024/03/18_12:18:34,YZ,None,
,,,,,,practice,0,23,3,83,5,F,0,right,0.7131589580094442,1,0,,,,,,,,,,,,,,,,,,,,,1,,,,,,,,,,,,,,,,,,,,,,,,,,,,,,,,,,,,,,,,,,,,,,98,146605,21,Female,1,2024/03/18_12:18:34,YZ,None,
,,,,,,practice,0,23,3,83,6,X,1,left,0.752063129999442,1,0,,,,,,,,,,,,,,,,,,,,,1,,,,,,,,,,,,,,,,,,,,,,,,,,,,,,,,,,,,,,,,,,,,,,98,146605,21,Female,1,2024/03/18_12:18:34,YZ,None,
,,,,,,practice,0,23,3,83,7,S,0,right,0.9520051639992744,1,0,,,,,,,,,,,,,,,,,,,,,1,,,,,,,,,,,,,,,,,,,,,,,,,,,,,,,,,,,,,,,,,,,,,,98,146605,21,Female,1,2024/03/18_12:18:34,YZ,None,
,,,,,,practice,0,23,3,83,8,J,0,right,0.9370775469869841,1,0,,,,,,,,,,,,,,,,,,,,,1,,,,,,,,,,,,,,,,,,,,,,,,,,,,,,,,,,,,,,,,,,,,,,98,146605,21,Female,1,2024/03/18_12:18:34,YZ,None,
,,,,,,practice,0,23,3,83,9,F,0,left,0.8611014899797738,0,0,,,,,,,,,,,,,,,,,,,,,1,,,,,,,,,,,,,,,,,,,,,,,,,,,,,,,,,,,,,,,,,,,,,,98,146605,21,Female,1,2024/03/18_12:18:34,YZ,None,
,,,,,,practice,0,23,3,83,10,C,0,right,0.861011758010136,1,0,,,,,,,,,,,,,,,,,,,,,1,,,,,,,,,,,,,,,,,,,,,,,,,,,,,,,,,,,,,,,,,,,,,,98,146605,21,Female,1,2024/03/18_12:18:34,YZ,None,
,,,,,,practice,0,23,3,83,11,V,0,right,0.6690413300239015,1,0,,,,,,,,,,,,,,,,,,,,,1,,,,,,,,,,,,,,,,,,,,,,,,,,,,,,,,,,,,,,,,,,,,,,98,146605,21,Female,1,2024/03/18_12:18:34,YZ,None,
,,,,,,practice,0,23,3,83,12,S,0,left,0.5931184910004959,0,0,,,,,,,,,,,,,,,,,,,,,1,,,,,,,,,,,,,,,,,,,,,,,,,,,,,,,,,,,,,,,,,,,,,,98,146605,21,Female,1,2024/03/18_12:18:34,YZ,None,
,,,,,,practice,0,23,3,83,13,C,1,left,1.2178475859982427,1,0,,,,,,,,,,,,,,,,,,,,,1,,,,,,,,,,,,,,,,,,,,,,,,,,,,,,,,,,,,,,,,,,,,,,98,146605,21,Female,1,2024/03/18_12:18:34,YZ,None,
,,,,,,practice,0,23,3,83,14,X,0,right,0.7967946940043475,1,0,,,,,,,,,,,,,,,,,,,,,1,,,,,,,,,,,,,,,,,,,,,,,,,,,,,,,,,,,,,,,,,,,,,,98,146605,21,Female,1,2024/03/18_12:18:34,YZ,None,
,,,,,,practice,0,23,3,83,15,C,0,right,0.9228013099927921,1,0,,,,,,,,,,,,,,,,,,,,,1,,,,,,,,,,,,,,,,,,,,,,,,,,,,,,,,,,,,,,,,,,,,,,98,146605,21,Female,1,2024/03/18_12:18:34,YZ,None,
,,,,,,practice,0,23,3,83,16,C,1,right,0.7566596779797692,0,0,,,,,,,,,,,,,,,,,,,,,1,,,,,,,,,,,,,,,,,,,,,,,,,,,,,,,,,,,,,,,,,,,,,,98,146605,21,Female,1,2024/03/18_12:18:34,YZ,None,
,,,,,,practice,0,23,3,83,17,V,0,left,1.9293022550118621,0,0,,,,,,,,,,,,,,,,,,,,,1,,,,,,,,,,,,,,,,,,,,,,,,,,,,,,,,,,,,,,,,,,,,,,98,146605,21,Female,1,2024/03/18_12:18:34,YZ,None,
,,,,,,practice,0,23,3,83,18,C,1,left,1.8124847869912628,1,0,,,,,,,,,,,,,,,,,,,,,1,,,,,,,,,,,,,,,,,,,,,,,,,,,,,,,,,,,,,,,,,,,,,,98,146605,21,Female,1,2024/03/18_12:18:34,YZ,None,
,,,,,,practice,0,23,3,83,19,C,1,right,0.6923941069981083,0,0,,,,,,,,,,,,,,,,,,,,,1,,,,,,,,,,,,,,,,,,,,,,,,,,,,,,,,,,,,,,,,,,,,,,98,146605,21,Female,1,2024/03/18_12:18:34,YZ,None,
,,,,,,practice,0,23,3,83,20,N,0,right,0.5652741359954234,1,0,,,,,,,,,,,,,,,,,,,,,1,,,,,,,,,,,,,,,,,,,,,,,,,,,,,,,,,,,,,,,,,,,,,,98,146605,21,Female,1,2024/03/18_12:18:34,YZ,None,
,,,,,,practice,0,23,3,83,21,C,1,left,1.3865418899804354,1,0,,,,,,,,,,,,,,,,,,,,,1,,,,,,,,,,,,,,,,,,,,,,,,,,,,,,,,,,,,,,,,,,,,,,98,146605,21,Female,1,2024/03/18_12:18:34,YZ,None,
,,,,,,practice,0,23,3,83,22,S,0,right,0.580368920986075,1,0,,,,,,,,,,,,,,,,,,,,,1,,,,,,,,,,,,,,,,,,,,,,,,,,,,,,,,,,,,,,,,,,,,,,98,146605,21,Female,1,2024/03/18_12:18:34,YZ,None,
,,,,,,practice,0,23,3,83,23,Q,0,right,0.47641451700474136,1,0,,,,,,,,,,,,,,,,,,,,,1,,,,,,,,,,,,,,,,,,,,,,,,,,,,,,,,,,,,,,,,,,,,,,98,146605,21,Female,1,2024/03/18_12:18:34,YZ,None,
,,,,,,practice,0,23,3,83,24,X,0,right,0.6771425750048365,1,0,,,,,,,,,,,,,,,,,,,,,1,,,,,,,,,,,,,,,,,,,,,,,,,,,,,,,,,,,,,,,,,,,,,,98,146605,21,Female,1,2024/03/18_12:18:34,YZ,None,
,,,,,,practice,0,23,3,83,,,,,,,,0.8194444444444444,0.6666666666666666,0.16666666666666666,0.8333333333333334,0.0,0.8333333333333334,0.8864949539965892,4,3,0,0,0,15,19,6,18,0,,,,1,,,,,,,,,,,,,,,,,,,,,,,,,,,,,,,,,,,,,,,,,,,,,,98,146605,21,Female,1,2024/03/18_12:18:34,YZ,None,
,,,,,,practice,0,8,3,83,1,J,0,right,1.0219546990119852,1,0,,,,,,,,,,,,,,,,,,,,,1,,,,,,,,,,,,,,,,,,,,,,,,,,,,,,,,,,,,,,,,,,,,,,98,146605,21,Female,1,2024/03/18_12:18:34,YZ,None,
,,,,,,practice,0,8,3,83,2,F,0,right,0.8808658659982029,1,0,,,,,,,,,,,,,,,,,,,,,1,,,,,,,,,,,,,,,,,,,,,,,,,,,,,,,,,,,,,,,,,,,,,,98,146605,21,Female,1,2024/03/18_12:18:34,YZ,None,
,,,,,,practice,0,8,3,83,3,X,0,right,0.9089116370014381,1,0,,,,,,,,,,,,,,,,,,,,,1,,,,,,,,,,,,,,,,,,,,,,,,,,,,,,,,,,,,,,,,,,,,,,98,146605,21,Female,1,2024/03/18_12:18:34,YZ,None,
,,,,,,practice,0,8,3,83,4,X,0,right,1.332954774989048,1,0,,,,,,,,,,,,,,,,,,,,,1,,,,,,,,,,,,,,,,,,,,,,,,,,,,,,,,,,,,,,,,,,,,,,98,146605,21,Female,1,2024/03/18_12:18:34,YZ,None,
,,,,,,practice,0,8,3,83,5,Q,0,right,1.6095258860150352,1,0,,,,,,,,,,,,,,,,,,,,,1,,,,,,,,,,,,,,,,,,,,,,,,,,,,,,,,,,,,,,,,,,,,,,98,146605,21,Female,1,2024/03/18_12:18:34,YZ,None,
,,,,,,practice,0,8,3,83,6,V,0,right,1.881645532004768,1,0,,,,,,,,,,,,,,,,,,,,,1,,,,,,,,,,,,,,,,,,,,,,,,,,,,,,,,,,,,,,,,,,,,,,98,146605,21,Female,1,2024/03/18_12:18:34,YZ,None,
,,,,,,practice,0,8,3,83,7,N,0,right,2.2002886300033424,1,0,,,,,,,,,,,,,,,,,,,,,1,,,,,,,,,,,,,,,,,,,,,,,,,,,,,,,,,,,,,,,,,,,,,,98,146605,21,Female,1,2024/03/18_12:18:34,YZ,None,
,,,,,,practice,0,8,3,83,8,N,0,right,1.6186032519908622,1,0,,,,,,,,,,,,,,,,,,,,,1,,,,,,,,,,,,,,,,,,,,,,,,,,,,,,,,,,,,,,,,,,,,,,98,146605,21,Female,1,2024/03/18_12:18:34,YZ,None,
,,,,,,practice,0,8,3,83,9,X,0,left,0.8888723380223382,0,0,,,,,,,,,,,,,,,,,,,,,1,,,,,,,,,,,,,,,,,,,,,,,,,,,,,,,,,,,,,,,,,,,,,,98,146605,21,Female,1,2024/03/18_12:18:34,YZ,None,
,,,,,,practice,0,8,3,83,10,J,0,right,0.7887321320013143,1,0,,,,,,,,,,,,,,,,,,,,,1,,,,,,,,,,,,,,,,,,,,,,,,,,,,,,,,,,,,,,,,,,,,,,98,146605,21,Female,1,2024/03/18_12:18:34,YZ,None,
,,,,,,practice,0,8,3,83,11,Q,0,left,1.9201465059886687,0,0,,,,,,,,,,,,,,,,,,,,,1,,,,,,,,,,,,,,,,,,,,,,,,,,,,,,,,,,,,,,,,,,,,,,98,146605,21,Female,1,2024/03/18_12:18:34,YZ,None,
,,,,,,practice,0,8,3,83,12,J,0,right,1.092685679992428,1,0,,,,,,,,,,,,,,,,,,,,,1,,,,,,,,,,,,,,,,,,,,,,,,,,,,,,,,,,,,,,,,,,,,,,98,146605,21,Female,1,2024/03/18_12:18:34,YZ,None,
,,,,,,practice,0,8,3,83,13,J,1,right,1.0762153429968748,0,0,,,,,,,,,,,,,,,,,,,,,1,,,,,,,,,,,,,,,,,,,,,,,,,,,,,,,,,,,,,,,,,,,,,,98,146605,21,Female,1,2024/03/18_12:18:34,YZ,None,
,,,,,,practice,0,8,3,83,14,S,0,right,1.2368086749920622,1,0,,,,,,,,,,,,,,,,,,,,,1,,,,,,,,,,,,,,,,,,,,,,,,,,,,,,,,,,,,,,,,,,,,,,98,146605,21,Female,1,2024/03/18_12:18:34,YZ,None,
,,,,,,practice,0,8,3,83,15,J,1,right,1.4152710139751434,0,0,,,,,,,,,,,,,,,,,,,,,1,,,,,,,,,,,,,,,,,,,,,,,,,,,,,,,,,,,,,,,,,,,,,,98,146605,21,Female,1,2024/03/18_12:18:34,YZ,None,
,,,,,,practice,0,8,3,83,16,J,1,left,0.5640774179773871,1,0,,,,,,,,,,,,,,,,,,,,,1,,,,,,,,,,,,,,,,,,,,,,,,,,,,,,,,,,,,,,,,,,,,,,98,146605,21,Female,1,2024/03/18_12:18:34,YZ,None,
,,,,,,practice,0,8,3,83,17,X,0,left,1.6133228450198658,0,0,,,,,,,,,,,,,,,,,,,,,1,,,,,,,,,,,,,,,,,,,,,,,,,,,,,,,,,,,,,,,,,,,,,,98,146605,21,Female,1,2024/03/18_12:18:34,YZ,None,
,,,,,,practice,0,8,3,83,18,J,1,right,0.7211348699929658,0,0,,,,,,,,,,,,,,,,,,,,,1,,,,,,,,,,,,,,,,,,,,,,,,,,,,,,,,,,,,,,,,,,,,,,98,146605,21,Female,1,2024/03/18_12:18:34,YZ,None,
,,,,,,practice,0,8,3,83,19,X,0,left,1.9806535139796324,0,0,,,,,,,,,,,,,,,,,,,,,1,,,,,,,,,,,,,,,,,,,,,,,,,,,,,,,,,,,,,,,,,,,,,,98,146605,21,Female,1,2024/03/18_12:18:34,YZ,None,
,,,,,,practice,0,8,3,83,20,S,0,right,0.5695936499978416,1,0,,,,,,,,,,,,,,,,,,,,,1,,,,,,,,,,,,,,,,,,,,,,,,,,,,,,,,,,,,,,,,,,,,,,98,146605,21,Female,1,2024/03/18_12:18:34,YZ,None,
,,,,,,practice,0,8,3,83,21,N,0,right,1.2687973249994684,1,0,,,,,,,,,,,,,,,,,,,,,1,,,,,,,,,,,,,,,,,,,,,,,,,,,,,,,,,,,,,,,,,,,,,,98,146605,21,Female,1,2024/03/18_12:18:34,YZ,None,
,,,,,,practice,0,8,3,83,22,X,1,left,1.303785386000527,1,0,,,,,,,,,,,,,,,,,,,,,1,,,,,,,,,,,,,,,,,,,,,,,,,,,,,,,,,,,,,,,,,,,,,,98,146605,21,Female,1,2024/03/18_12:18:34,YZ,None,
,,,,,,practice,0,8,3,83,23,S,1,left,1.3016284269979224,1,0,,,,,,,,,,,,,,,,,,,,,1,,,,,,,,,,,,,,,,,,,,,,,,,,,,,,,,,,,,,,,,,,,,,,98,146605,21,Female,1,2024/03/18_12:18:34,YZ,None,
,,,,,,practice,0,8,3,83,24,Q,0,right,0.48697788498247974,1,0,,,,,,,,,,,,,,,,,,,,,1,,,,,,,,,,,,,,,,,,,,,,,,,,,,,,,,,,,,,,,,,,,,,,98,146605,21,Female,1,2024/03/18_12:18:34,YZ,None,
,,,,,,practice,0,8,3,83,,,,,,,,0.7083333333333333,0.5,0.2222222222222222,0.7777777777777778,0.0,0.7777777777777778,1.2368105535388167,3,4,0,0,0,14,17,6,18,0,,,,1,,,,,,,,,,,,,,,,,,,,,,,,,,,,,,,,,,,,,,,,,,,,,,98,146605,21,Female,1,2024/03/18_12:18:34,YZ,None,
1,./instructions/inst_redo_3/Slide47.png,right,31.038046860980103,1012.718254196021,1043.756301057001,,,,,,,,,,,,,,,,,,,,,,,,,,,,,,,,,1,,,,,,,,,,,,,,,,,,,,,,,,,,,,,,,,,,,,,,,,,,,,,,98,146605,21,Female,1,2024/03/18_12:18:34,YZ,None,
,,,,,,practice,0,32,3,83,1,F,0,right,1.489852389000589,1,0,,,,,,,,,,,,,,,,,,,,,1,,,,,,,,,,,,,,,,,,,,,,,,,,,,,,,,,,,,,,,,,,,,,,98,146605,21,Female,1,2024/03/18_12:18:34,YZ,None,
,,,,,,practice,0,32,3,83,2,V,0,right,1.2361001250101253,1,0,,,,,,,,,,,,,,,,,,,,,1,,,,,,,,,,,,,,,,,,,,,,,,,,,,,,,,,,,,,,,,,,,,,,98,146605,21,Female,1,2024/03/18_12:18:34,YZ,None,
,,,,,,practice,0,32,3,83,3,C,0,right,1.3443872510106303,1,0,,,,,,,,,,,,,,,,,,,,,1,,,,,,,,,,,,,,,,,,,,,,,,,,,,,,,,,,,,,,,,,,,,,,98,146605,21,Female,1,2024/03/18_12:18:34,YZ,None,
,,,,,,practice,0,32,3,83,4,F,1,left,0.572604475019034,1,0,,,,,,,,,,,,,,,,,,,,,1,,,,,,,,,,,,,,,,,,,,,,,,,,,,,,,,,,,,,,,,,,,,,,98,146605,21,Female,1,2024/03/18_12:18:34,YZ,None,
,,,,,,practice,0,32,3,83,5,J,0,right,1.357266692997655,1,0,,,,,,,,,,,,,,,,,,,,,1,,,,,,,,,,,,,,,,,,,,,,,,,,,,,,,,,,,,,,,,,,,,,,98,146605,21,Female,1,2024/03/18_12:18:34,YZ,None,
,,,,,,practice,0,32,3,83,6,N,0,right,1.521257875021547,1,0,,,,,,,,,,,,,,,,,,,,,1,,,,,,,,,,,,,,,,,,,,,,,,,,,,,,,,,,,,,,,,,,,,,,98,146605,21,Female,1,2024/03/18_12:18:34,YZ,None,
,,,,,,practice,0,32,3,83,7,F,1,right,1.792795594985364,0,0,,,,,,,,,,,,,,,,,,,,,1,,,,,,,,,,,,,,,,,,,,,,,,,,,,,,,,,,,,,,,,,,,,,,98,146605,21,Female,1,2024/03/18_12:18:34,YZ,None,
,,,,,,practice,0,32,3,83,8,J,1,right,1.3375136450049467,0,0,,,,,,,,,,,,,,,,,,,,,1,,,,,,,,,,,,,,,,,,,,,,,,,,,,,,,,,,,,,,,,,,,,,,98,146605,21,Female,1,2024/03/18_12:18:34,YZ,None,
,,,,,,practice,0,32,3,83,9,V,0,left,0.5970188210194465,0,0,,,,,,,,,,,,,,,,,,,,,1,,,,,,,,,,,,,,,,,,,,,,,,,,,,,,,,,,,,,,,,,,,,,,98,146605,21,Female,1,2024/03/18_12:18:34,YZ,None,
,,,,,,practice,0,32,3,83,10,Q,0,right,0.8528048809967004,1,0,,,,,,,,,,,,,,,,,,,,,1,,,,,,,,,,,,,,,,,,,,,,,,,,,,,,,,,,,,,,,,,,,,,,98,146605,21,Female,1,2024/03/18_12:18:34,YZ,None,
,,,,,,practice,0,32,3,83,11,J,1,right,1.5848123780160677,0,0,,,,,,,,,,,,,,,,,,,,,1,,,,,,,,,,,,,,,,,,,,,,,,,,,,,,,,,,,,,,,,,,,,,,98,146605,21,Female,1,2024/03/18_12:18:34,YZ,None,
,,,,,,practice,0,32,3,83,12,J,0,right,1.5285628700221423,1,0,,,,,,,,,,,,,,,,,,,,,1,,,,,,,,,,,,,,,,,,,,,,,,,,,,,,,,,,,,,,,,,,,,,,98,146605,21,Female,1,2024/03/18_12:18:34,YZ,None,
,,,,,,practice,0,32,3,83,13,F,0,left,0.8796189450076781,0,0,,,,,,,,,,,,,,,,,,,,,1,,,,,,,,,,,,,,,,,,,,,,,,,,,,,,,,,,,,,,,,,,,,,,98,146605,21,Female,1,2024/03/18_12:18:34,YZ,None,
,,,,,,practice,0,32,3,83,14,S,0,right,0.8045199099869933,1,0,,,,,,,,,,,,,,,,,,,,,1,,,,,,,,,,,,,,,,,,,,,,,,,,,,,,,,,,,,,,,,,,,,,,98,146605,21,Female,1,2024/03/18_12:18:34,YZ,None,
,,,,,,practice,0,32,3,83,15,J,1,right,1.2723047169856727,0,0,,,,,,,,,,,,,,,,,,,,,1,,,,,,,,,,,,,,,,,,,,,,,,,,,,,,,,,,,,,,,,,,,,,,98,146605,21,Female,1,2024/03/18_12:18:34,YZ,None,
,,,,,,practice,0,32,3,83,16,C,0,right,1.616503950994229,1,0,,,,,,,,,,,,,,,,,,,,,1,,,,,,,,,,,,,,,,,,,,,,,,,,,,,,,,,,,,,,,,,,,,,,98,146605,21,Female,1,2024/03/18_12:18:34,YZ,None,
,,,,,,practice,0,32,3,83,17,F,0,left,0.9415800179995131,0,0,,,,,,,,,,,,,,,,,,,,,1,,,,,,,,,,,,,,,,,,,,,,,,,,,,,,,,,,,,,,,,,,,,,,98,146605,21,Female,1,2024/03/18_12:18:34,YZ,None,
,,,,,,practice,0,32,3,83,18,J,1,left,1.500314286997309,1,0,,,,,,,,,,,,,,,,,,,,,1,,,,,,,,,,,,,,,,,,,,,,,,,,,,,,,,,,,,,,,,,,,,,,98,146605,21,Female,1,2024/03/18_12:18:34,YZ,None,
,,,,,,practice,0,32,3,83,19,C,1,right,1.3090145110036246,0,0,,,,,,,,,,,,,,,,,,,,,1,,,,,,,,,,,,,,,,,,,,,,,,,,,,,,,,,,,,,,,,,,,,,,98,146605,21,Female,1,2024/03/18_12:18:34,YZ,None,
,,,,,,practice,0,32,3,83,20,V,0,right,0.8763873089919798,1,0,,,,,,,,,,,,,,,,,,,,,1,,,,,,,,,,,,,,,,,,,,,,,,,,,,,,,,,,,,,,,,,,,,,,98,146605,21,Female,1,2024/03/18_12:18:34,YZ,None,
,,,,,,practice,0,32,3,83,21,Q,0,right,1.1804929289792199,1,0,,,,,,,,,,,,,,,,,,,,,1,,,,,,,,,,,,,,,,,,,,,,,,,,,,,,,,,,,,,,,,,,,,,,98,146605,21,Female,1,2024/03/18_12:18:34,YZ,None,
,,,,,,practice,0,32,3,83,22,V,0,right,1.1489181980141439,1,0,,,,,,,,,,,,,,,,,,,,,1,,,,,,,,,,,,,,,,,,,,,,,,,,,,,,,,,,,,,,,,,,,,,,98,146605,21,Female,1,2024/03/18_12:18:34,YZ,None,
,,,,,,practice,0,32,3,83,23,F,0,right,1.871804725000402,1,0,,,,,,,,,,,,,,,,,,,,,1,,,,,,,,,,,,,,,,,,,,,,,,,,,,,,,,,,,,,,,,,,,,,,98,146605,21,Female,1,2024/03/18_12:18:34,YZ,None,
,,,,,,practice,0,32,3,83,24,Q,1,left,0.8980183019884862,1,0,,,,,,,,,,,,,,,,,,,,,1,,,,,,,,,,,,,,,,,,,,,,,,,,,,,,,,,,,,,,,,,,,,,,98,146605,21,Female,1,2024/03/18_12:18:34,YZ,None,
,,,,,,practice,0,32,3,83,,,,,,,,0.671875,0.375,0.1875,0.8125,0.0,0.8125,1.229768950002229,3,3,0,0,0,13,16,8,16,0,,,,1,,,,,,,,,,,,,,,,,,,,,,,,,,,,,,,,,,,,,,,,,,,,,,98,146605,21,Female,1,2024/03/18_12:18:34,YZ,None,
1,./instructions/inst_redo_3/Slide47.png,right,8.277879444009159,1086.926613994001,1095.20449343801,,,,,,,,,,,,,,,,,,,,,,,,,,,,,,,,,1,,,,,,,,,,,,,,,,,,,,,,,,,,,,,,,,,,,,,,,,,,,,,,98,146605,21,Female,1,2024/03/18_12:18:34,YZ,None,
,,,,,,practice,0,6,3,83,1,J,0,right,1.6276857370103244,1,0,,,,,,,,,,,,,,,,,,,,,1,,,,,,,,,,,,,,,,,,,,,,,,,,,,,,,,,,,,,,,,,,,,,,98,146605,21,Female,1,2024/03/18_12:18:34,YZ,None,
,,,,,,practice,0,6,3,83,2,V,0,right,0.8515102419769391,1,0,,,,,,,,,,,,,,,,,,,,,1,,,,,,,,,,,,,,,,,,,,,,,,,,,,,,,,,,,,,,,,,,,,,,98,146605,21,Female,1,2024/03/18_12:18:34,YZ,None,
,,,,,,practice,0,6,3,83,3,X,0,right,1.1839766299817711,1,0,,,,,,,,,,,,,,,,,,,,,1,,,,,,,,,,,,,,,,,,,,,,,,,,,,,,,,,,,,,,,,,,,,,,98,146605,21,Female,1,2024/03/18_12:18:34,YZ,None,
,,,,,,practice,0,6,3,83,4,C,0,right,1.0285619319765829,1,0,,,,,,,,,,,,,,,,,,,,,1,,,,,,,,,,,,,,,,,,,,,,,,,,,,,,,,,,,,,,,,,,,,,,98,146605,21,Female,1,2024/03/18_12:18:34,YZ,None,
,,,,,,practice,0,6,3,83,5,V,1,left,0.8454477649938781,1,0,,,,,,,,,,,,,,,,,,,,,1,,,,,,,,,,,,,,,,,,,,,,,,,,,,,,,,,,,,,,,,,,,,,,98,146605,21,Female,1,2024/03/18_12:18:34,YZ,None,
,,,,,,practice,0,6,3,83,6,S,0,right,1.5011309570109006,1,0,,,,,,,,,,,,,,,,,,,,,1,,,,,,,,,,,,,,,,,,,,,,,,,,,,,,,,,,,,,,,,,,,,,,98,146605,21,Female,1,2024/03/18_12:18:34,YZ,None,
,,,,,,practice,0,6,3,83,7,Q,0,right,1.6625453559972811,1,0,,,,,,,,,,,,,,,,,,,,,1,,,,,,,,,,,,,,,,,,,,,,,,,,,,,,,,,,,,,,,,,,,,,,98,146605,21,Female,1,2024/03/18_12:18:34,YZ,None,
,,,,,,practice,0,6,3,83,8,V,1,left,0.9843304939859081,1,0,,,,,,,,,,,,,,,,,,,,,1,,,,,,,,,,,,,,,,,,,,,,,,,,,,,,,,,,,,,,,,,,,,,,98,146605,21,Female,1,2024/03/18_12:18:34,YZ,None,
,,,,,,practice,0,6,3,83,9,J,0,right,2.3725849250040483,1,0,,,,,,,,,,,,,,,,,,,,,1,,,,,,,,,,,,,,,,,,,,,,,,,,,,,,,,,,,,,,,,,,,,,,98,146605,21,Female,1,2024/03/18_12:18:34,YZ,None,
,,,,,,practice,0,6,3,83,10,X,0,left,0.9531320029927883,0,0,,,,,,,,,,,,,,,,,,,,,1,,,,,,,,,,,,,,,,,,,,,,,,,,,,,,,,,,,,,,,,,,,,,,98,146605,21,Female,1,2024/03/18_12:18:34,YZ,None,
,,,,,,practice,0,6,3,83,11,V,1,left,2.5525961369858123,1,0,,,,,,,,,,,,,,,,,,,,,1,,,,,,,,,,,,,,,,,,,,,,,,,,,,,,,,,,,,,,,,,,,,,,98,146605,21,Female,1,2024/03/18_12:18:34,YZ,None,
,,,,,,practice,0,6,3,83,12,Q,0,left,1.1198267780127935,0,0,,,,,,,,,,,,,,,,,,,,,1,,,,,,,,,,,,,,,,,,,,,,,,,,,,,,,,,,,,,,,,,,,,,,98,146605,21,Female,1,2024/03/18_12:18:34,YZ,None,
,,,,,,practice,0,6,3,83,13,N,0,right,3.0661828400043305,1,0,,,,,,,,,,,,,,,,,,,,,1,,,,,,,,,,,,,,,,,,,,,,,,,,,,,,,,,,,,,,,,,,,,,,98,146605,21,Female,1,2024/03/18_12:18:34,YZ,None,
,,,,,,practice,0,6,3,83,14,X,0,left,1.4480277659895364,0,0,,,,,,,,,,,,,,,,,,,,,1,,,,,,,,,,,,,,,,,,,,,,,,,,,,,,,,,,,,,,,,,,,,,,98,146605,21,Female,1,2024/03/18_12:18:34,YZ,None,
,,,,,,practice,0,6,3,83,15,C,0,right,1.9010231739957817,1,0,,,,,,,,,,,,,,,,,,,,,1,,,,,,,,,,,,,,,,,,,,,,,,,,,,,,,,,,,,,,,,,,,,,,98,146605,21,Female,1,2024/03/18_12:18:34,YZ,None,
,,,,,,practice,0,6,3,83,16,S,0,right,2.394063838000875,1,0,,,,,,,,,,,,,,,,,,,,,1,,,,,,,,,,,,,,,,,,,,,,,,,,,,,,,,,,,,,,,,,,,,,,98,146605,21,Female,1,2024/03/18_12:18:34,YZ,None,
,,,,,,practice,0,6,3,83,17,Q,0,right,1.0091556150000542,1,0,,,,,,,,,,,,,,,,,,,,,1,,,,,,,,,,,,,,,,,,,,,,,,,,,,,,,,,,,,,,,,,,,,,,98,146605,21,Female,1,2024/03/18_12:18:34,YZ,None,
