,END,Phase,Block,TrialN,NbackLevel,ISI,Letter_Resp,Letter_RT,Letter_Accuracy,Trial_A_measure,Trial_ACC,Trial_RT,TrialCountCali,CaliEnd_A_measure,ISI_calibrated,TrialIndex,TrialNumber_total,TrialNumber_valid,CueLearning,TrialDemandLearning,CueMapping,OfflineRatingTimePoint,CueFigure,TrialDemand,OfflineRating,OfflineRatingRT,PhaseType,CueLeft,CueDemandLeft,CueRight,CueDemandRight,Choice,ChoiceDemand,TaskDemand,ChoiceRT,CueCheck,CueDemandCheck,CorrectAnswer,Answer,AnswerDemand,AnswerRT,AnswerACC,DemandRatingQuesIndex,QuesTLX,DemandLevel,DemandRating,DemandRatingRT,PID,Age,Gender,BAI_bis,BAI_bas_d,BAI_bas_rr,BAI_bas_fs,NFC,BFI_ext,BFI_agr,BFI_con,BFI_neu,BFI_open,UPPS_lps,UPPS_lpm,UPPS_pu,UPPS_ss,Task_A_measure,Task_ACC,Task_RT,Task_RT_z,Task_RT_log,Task_RT_log_z,cue_i_on_zyg_values,cue_i_on_zyg_zvalues,cue_e_on_zyg_values,cue_e_on_zyg_zvalues,cue_i_on_cor_values,cue_i_on_cor_zvalues,cue_e_on_cor_values,cue_e_on_cor_zvalues,cue_i_on_scr_values,cue_i_on_scr_zvalues,cue_e_on_scr_values,cue_e_on_scr_zvalues,cue_e_true_zyg_values,cue_e_true_zyg_zvalues,cue_e_true_cor_values,cue_e_true_cor_zvalues,cue_e_true_scr_values,cue_e_true_scr_zvalues,cue_e_false_zyg_values,cue_e_false_zyg_zvalues,cue_e_false_cor_values,cue_e_false_cor_zvalues,cue_e_false_scr_values,cue_e_false_scr_zvalues,OfflineRating_z,cue_i_off_zyg_values,cue_i_off_zyg_zvalues,cue_i_off_cor_values,cue_i_off_cor_zvalues,cue_i_off_scr_values,cue_i_off_scr_zvalues,DemandRating_z
0,240610_144619,PRACTICE,0.0,1,1.0,1750.0,,,,,,,,,,50.0,1.0,1.0,cue1.png,Easy,A,,,,,,,,,,,,,,,,,,,,,,,,,,,7,20,Female,1.0,1.25,0.8,0.75,2.9444444444444446,2.75,2.6666666666666665,2.111111111111111,1.875,3.0,2.0,2.75,2.25,1.25,,,,,,,,,,,,,,,,,,,,,,,,,,,,,,,,,,,,,,
0,240610_144936,LEARNING,1.0,1,1.0,1750.0,,,,,,,,,,1.0,1.0,1.0,cue1.png,Easy,A,,,,,,,,,,,,,,,,,,,,,,,,,,,7,20,Female,1.0,1.25,0.8,0.75,2.9444444444444446,2.75,2.6666666666666665,2.111111111111111,1.875,3.0,2.0,2.75,2.25,1.25,1.0,1.0,0.4330997750512324,-0.7377401989686043,-0.8367871501539043,-0.7499593797548362,4.896871273521973e-05,0.09603705282988298,0.000167146426834415,-0.2441341939038245,0.000579648779563127,1.455049656995416,,,,,,,,,,,,,,,,,,,,,,,,,,
1,240610_144958,LEARNING,1.0,2,3.0,1750.0,,,,,,,,,,2.0,2.0,2.0,cue2.png,Hard,A,,,,,,,,,,,,,,,,,,,,,,,,,,,7,20,Female,1.0,1.25,0.8,0.75,2.9444444444444446,2.75,2.6666666666666665,2.111111111111111,1.875,3.0,2.0,2.75,2.25,1.25,1.0,1.0,0.8521885749651119,3.5216106896541763,-0.15994744452448514,2.9401228180055936,0.00021690453302303844,0.2838552771997238,0.0009517057967960612,0.5707548538385007,5.516516087989299e-06,0.005344375841895164,,,1.437,-0.2555848666078969,1.134,-0.6235066856457173,,,,,,,,,,,,,,,,,,,,
2,240610_145020,LEARNING,1.0,3,1.0,1750.0,,,,,,,,,,3.0,3.0,3.0,cue1.png,Easy,A,,,,,,,,,,,,,,,,,,,,,,,,,,,7,20,Female,1.0,1.25,0.8,0.75,2.9444444444444446,2.75,2.6666666666666665,2.111111111111111,1.875,3.0,2.0,2.75,2.25,1.25,1.0,0.875,0.5320081142043429,0.267500987029629,-0.6310965374930048,0.3714512906203363,0.0010659030439777503,1.2333691602228034,,,0.00017746328805384043,0.4395163589445119,0.002022658738706628,3.9801522303294914,1.953,0.6565828099338076,1.6029999999999998,0.18752501427324839,,,,,,,,,,,,,,,,,,,,
3,240610_145039,LEARNING,1.0,4,3.0,1750.0,,,,,,,,,,4.0,4.0,4.0,cue2.png,Hard,A,,,,,,,,,,,,,,,,,,,,,,,,,,,7,20,Female,1.0,1.25,0.8,0.75,2.9444444444444446,2.75,2.6666666666666665,2.111111111111111,1.875,3.0,2.0,2.75,2.25,1.25,0.75,0.8333333333333334,0.4841686874860897,-0.21870839090046304,-0.7253219051234112,-0.14225874851966328,,,0.0001675273548030114,-0.2437385399336181,-0.001341441147065847,-3.395773732283519,0.00017337878702336149,-0.13313292455473988,1.577,-0.008097512507434658,1.5849999999999997,0.1563979980716676,,,,,,,,,,,,,,,,,,,,
4,240610_145058,LEARNING,1.0,5,3.0,1750.0,,,,,,,,,,5.0,5.0,5.0,cue2.png,Hard,A,,,,,,,,,,,,,,,,,,,,,,,,,,,7,20,Female,1.0,1.25,0.8,0.75,2.9444444444444446,2.75,2.6666666666666665,2.111111111111111,1.875,3.0,2.0,2.75,2.25,1.25,1.0,1.0,0.4605313750216737,-0.45894293754225796,-0.7753742930959119,-0.4151408272106079,5.6825950251954745e-05,0.10482453126251318,0.00029733955847122953,-0.10890802603930531,,,0.0005578161257516786,0.7219568615725815,1.563,-0.03284624791748093,,,,,,,,,,,,,,,,,,,,,,
5,240610_145117,LEARNING,1.0,6,1.0,1750.0,,,,,,,,,,6.0,6.0,6.0,cue1.png,Easy,A,,,,,,,,,,,,,,,,,,,,,,,,,,,7,20,Female,1.0,1.25,0.8,0.75,2.9444444444444446,2.75,2.6666666666666665,2.111111111111111,1.875,3.0,2.0,2.75,2.25,1.25,1.0,1.0,0.352339000091888,-1.5585411334236312,-1.0431614983940551,-1.8750977281429655,-0.0002365015174253639,-0.22323081776091375,0.0001936736163246802,-0.21658151018014507,5.766239507111991e-06,0.005974936746691899,0.0002442159114185434,0.024427477224435404,,,0.11299999999999999,-2.3891002157464936,,,,,,,,,,,,,,,,,,,,
6,240610_145136,LEARNING,1.0,7,3.0,1750.0,,,,,,,,,,7.0,7.0,7.0,cue2.png,Hard,A,,,,,,,,,,,,,,,,,,,,,,,,,,,7,20,Female,1.0,1.25,0.8,0.75,2.9444444444444446,2.75,2.6666666666666665,2.111111111111111,1.875,3.0,2.0,2.75,2.25,1.25,0.75,0.8333333333333334,0.5495117625105195,0.44539688876304273,-0.5987250995249431,0.5479380805771491,-4.33563217073123e-05,-0.007218607601357071,0.0001645599844295048,-0.24682062359808798,-5.3915086970693533e-05,-0.14472262840567796,,,1.443,-0.24497826571787712,1.2009999999999998,-0.5076450142287222,,,,,,,,,,,,,,,,,,,,
7,240610_145157,LEARNING,1.0,8,3.0,1750.0,,,,,,,,,,8.0,8.0,8.0,cue2.png,Hard,A,,,,,,,,,,,,,,,,,,,,,,,,,,,7,20,Female,1.0,1.25,0.8,0.75,2.9444444444444446,2.75,2.6666666666666665,2.111111111111111,1.875,3.0,2.0,2.75,2.25,1.25,0.75,0.8333333333333334,0.603178224992007,0.990828536439473,-0.5055425620911628,1.0559626832513929,1.5147137370397686e-05,0.058211244020751896,0.0001942270558378781,-0.2160066756741027,,,,,,,,,,,,,,,,,,,,,,,,,,,,
8,240610_145216,LEARNING,1.0,9,1.0,1750.0,,,,,,,,,,9.0,9.0,9.0,cue1.png,Easy,A,,,,,,,,,,,,,,,,,,,,,,,,,,,7,20,Female,1.0,1.25,0.8,0.75,2.9444444444444446,2.75,2.6666666666666665,2.111111111111111,1.875,3.0,2.0,2.75,2.25,1.25,1.0,1.0,0.3996586875291541,-1.0776140535859229,-0.9171443773028741,-1.1880612979749783,,,-0.0014065785849356658,-1.8786966315588514,,,-6.574765415335443e-05,-0.6650130434827511,,,,,,,,,,,,,,,,,,,,,,,,
9,240610_145236,LEARNING,1.0,10,1.0,1750.0,,,,,,,,,,10.0,10.0,10.0,cue1.png,Easy,A,,,,,,,,,,,,,,,,,,,,,,,,,,,7,20,Female,1.0,1.25,0.8,0.75,2.9444444444444446,2.75,2.6666666666666665,2.111111111111111,1.875,3.0,2.0,2.75,2.25,1.25,1.0,1.0,0.5625223750830628,0.5776284450198002,-0.5753243677692376,0.6755172148213429,0.0011318386789996257,1.3071111044446033,0.00011287344974108366,-0.3005052683119828,,,0.0005418662629486496,0.6864801703174674,1.4539999999999997,-0.22553283075284133,1.5299999999999998,0.06128767078905975,,,,,,,,,,,,,,,,,,,,
10,240610_145256,LEARNING,1.0,11,3.0,1750.0,,,,,,,,,,11.0,11.0,11.0,cue2.png,Hard,A,,,,,,,,,,,,,,,,,,,,,,,,,,,7,20,Female,1.0,1.25,0.8,0.75,2.9444444444444446,2.75,2.6666666666666665,2.111111111111111,1.875,3.0,2.0,2.75,2.25,1.25,0.75,0.8333333333333334,0.5401107875513844,0.3498513837189069,-0.6159809983344958,0.45386014089086646,6.782037261820984e-05,0.11712061486911393,-6.944738791154429e-05,-0.4898743071211122,0.0001293044180275529,0.3179134241278756,0.00011243688797814332,-0.2686837417390073,2.306,1.2806044956299736,,,,,,,,,,,,,,,,,,,,,,
11,240610_145314,LEARNING,1.0,12,1.0,1750.0,,,,,,,,,,12.0,12.0,12.0,cue1.png,Easy,A,,,,,,,,,,,,,,,,,,,,,,,,,,,7,20,Female,1.0,1.25,0.8,0.75,2.9444444444444446,2.75,2.6666666666666665,2.111111111111111,1.875,3.0,2.0,2.75,2.25,1.25,1.0,1.0,0.399273324990645,-1.0815306322947267,-0.9181090715756188,-1.1933207429108015,-6.447719835501802e-05,-0.030840045495356298,-0.00021296884841609087,-0.6389440534767705,,,0.00011788265046437998,-0.2565709331989733,,,,,,,,,,,,,,,,,,,,,,,,
12,240610_145333,LEARNING,1.0,13,1.0,1750.0,,,,,,,,,,13.0,13.0,13.0,cue1.png,Easy,A,,,,,,,,,,,,,,,,,,,,,,,,,,,7,20,Female,1.0,1.25,0.8,0.75,2.9444444444444446,2.75,2.6666666666666665,2.111111111111111,1.875,3.0,2.0,2.75,2.25,1.25,1.0,1.0,0.4162561750272289,-0.9089277915375036,-0.87645440289727,-0.9662224357855653,3.738391459698733e-05,0.08308069716807857,0.0011841268537272948,0.8121608978033016,0.00013131963284662186,0.3230019163651519,0.0002922512742448754,0.13127076217065653,,,,,,,,,,,,,,,,,,,,,,,,
13,240610_145352,LEARNING,1.0,14,1.0,1750.0,,,,,,,,,,14.0,14.0,14.0,cue1.png,Easy,A,,,,,,,,,,,,,,,,,,,,,,,,,,,7,20,Female,1.0,1.25,0.8,0.75,2.9444444444444446,2.75,2.6666666666666665,2.111111111111111,1.875,3.0,2.0,2.75,2.25,1.25,1.0,1.0,0.4355103750131093,-0.7132404006159778,-0.8312366597515126,-0.7196984987037478,-4.3480928627956036e-05,-0.007357967093211694,0.00012148947943655449,-0.29155615814559094,0.00014711633620034196,0.3628891788194335,-0.0001340131762030991,-0.8168535250615673,2.928,2.380155454562028,,,,,,,,,,,,,,,,,,,,,,
14,240610_145411,LEARNING,1.0,15,3.0,1750.0,,,,,,,,,,15.0,15.0,15.0,cue2.png,Hard,A,,,,,,,,,,,,,,,,,,,,,,,,,,,7,20,Female,1.0,1.25,0.8,0.75,2.9444444444444446,2.75,2.6666666666666665,2.111111111111111,1.875,3.0,2.0,2.75,2.25,1.25,0.1666666666666666,0.6666666666666667,0.4629452250082977,-0.43441010801390517,-0.7701465364121499,-0.3866394675644066,0.0014699493558635473,1.6852516754093376,,,,,-0.0007011989655983457,-2.0784239462718346,,,,,,,,,,,,,,,,,,,,,,,,
15,240610_145430,LEARNING,1.0,16,1.0,1750.0,,,,,,,,,,16.0,16.0,16.0,cue1.png,Easy,A,,,,,,,,,,,,,,,,,,,,,,,,,,,7,20,Female,1.0,1.25,0.8,0.75,2.9444444444444446,2.75,2.6666666666666665,2.111111111111111,1.875,3.0,2.0,2.75,2.25,1.25,0.75,0.8333333333333334,0.4046527250902727,-1.0268578455265875,-0.9047260486252605,-1.1203574484548238,-0.00014341537025281152,-0.11912393427760112,0.00021065318981929515,-0.19894553640192864,,,0.0002998188661652713,0.14810307762189642,,,,,,,,,,,,,,,,,,,,,,,,
16,240610_145449,LEARNING,1.0,17,1.0,1750.0,,,,,,,,,,17.0,17.0,17.0,cue1.png,Easy,A,,,,,,,,,,,,,,,,,,,,,,,,,,,7,20,Female,1.0,1.25,0.8,0.75,2.9444444444444446,2.75,2.6666666666666665,2.111111111111111,1.875,3.0,2.0,2.75,2.25,1.25,1.0,1.0,0.4567565249744802,-0.4973081024100265,-0.7836047981676468,-0.46001295866386344,3.3584799774162826e-05,0.07883179423017571,-0.0010861476497873788,-1.5458784031270947,0.0006924634758161017,1.7399109535192094,0.0003474209126926972,0.25398255311458534,,,,,,,,,,,,,,,,,,,,,,,,
17,240610_145508,LEARNING,1.0,18,3.0,1750.0,,,,,,,,,,18.0,18.0,18.0,cue2.png,Hard,A,,,,,,,,,,,,,,,,,,,,,,,,,,,7,20,Female,1.0,1.25,0.8,0.75,2.9444444444444446,2.75,2.6666666666666665,2.111111111111111,1.875,3.0,2.0,2.75,2.25,1.25,1.0,1.0,0.4852365499245934,-0.2078553191235453,-0.7231187751438644,-0.1302474397130707,-1.3481548034850223e-05,0.026193126327689,-3.637036971497823e-05,-0.4555185898964579,-0.00018310228797523056,-0.4709251072911533,0.0005097448398000757,0.6150336741444461,,,,,,,,,,,,,,,,,,,,,,,,
18,240610_145528,LEARNING,1.0,19,3.0,1750.0,,,,,,,,,,19.0,19.0,19.0,cue2.png,Hard,A,,,,,,,,,,,,,,,,,,,,,,,,,,,7,20,Female,1.0,1.25,0.8,0.75,2.9444444444444446,2.75,2.6666666666666665,2.111111111111111,1.875,3.0,2.0,2.75,2.25,1.25,0.75,0.8333333333333334,0.5168162750196643,0.11310083664533775,-0.6600678350984897,0.21350182540596516,0.002686414269745241,3.0457373641795944,-0.0006173334315855952,-1.058940656328927,-0.0003244292144118392,-0.827780843605681,0.0004969470775737467,0.5865680838840951,,,,,,,,,,,,,,,,,,,,,,,,
19,240610_145548,LEARNING,1.0,20,3.0,1750.0,,,,,,,,,,20.0,20.0,20.0,cue2.png,Hard,A,,,,,,,,,,,,,,,,,,,,,,,,,,,7,20,Female,1.0,1.25,0.8,0.75,2.9444444444444446,2.75,2.6666666666666665,2.111111111111111,1.875,3.0,2.0,2.75,2.25,1.25,1.0,1.0,0.5183252624701709,0.1284372212959331,-0.6571523139552364,0.2293970404449648,-5.224204697297334e-05,-0.017156339401365094,-2.365737701646043e-05,-0.44231413538263725,-0.00011207002791235616,-0.2915660134089844,0.00011547070163138353,-0.26193574198310265,,,0.589,-1.5659635650824686,,,,,,,,,,,,,,,,,,,,
20,240610_145606,LEARNING,1.0,21,1.0,1750.0,,,,,,,,,,21.0,21.0,21.0,cue1.png,Easy,A,,,,,,,,,,,,,,,,,,,,,,,,,,,7,20,Female,1.0,1.25,0.8,0.75,2.9444444444444446,2.75,2.6666666666666665,2.111111111111111,1.875,3.0,2.0,2.75,2.25,1.25,1.0,1.0,0.3876711499760858,-1.1994477287868657,-0.9475978503418275,-1.3540914788085874,-5.314014818329476e-05,-0.01816076939335775,-2.845798204930989e-05,-0.44730032331637765,,,,,1.994,0.7290612493489429,0.6799999999999999,-1.4085992053966991,,,,,,,,,,,,,,,,,,,,
21,240610_145625,LEARNING,1.0,22,3.0,1750.0,,,,,,,,,,22.0,22.0,22.0,cue2.png,Hard,A,,,,,,,,,,,,,,,,,,,,,,,,,,,7,20,Female,1.0,1.25,0.8,0.75,2.9444444444444446,2.75,2.6666666666666665,2.111111111111111,1.875,3.0,2.0,2.75,2.25,1.25,0.75,0.8333333333333334,0.4353489125496708,-0.714881401967642,-0.8316074715866612,-0.7217201385990137,-1.3468235143548717e-05,0.02620801537042683,,,0.0004338199221201925,1.0868263777461724,0.0003330409807833414,0.22199780121308965,1.492,-0.15835769178271536,2.589,1.8925937906487293,,,,,,,,,,,,,,,,,,,,
22,240610_145645,LEARNING,1.0,23,3.0,1750.0,,,,,,,,,,23.0,23.0,23.0,cue2.png,Hard,A,,,,,,,,,,,,,,,,,,,,,,,,,,,7,20,Female,1.0,1.25,0.8,0.75,2.9444444444444446,2.75,2.6666666666666665,2.111111111111111,1.875,3.0,2.0,2.75,2.25,1.25,1.0,1.0,0.5377794125815853,0.32615677758443806,-0.620306816687864,0.43027608522193217,0.0003839926288373959,0.47072541256099293,0.0016977419122519164,1.3456314061826842,7.443630471250977e-05,0.1793694009122348,,,1.293,-0.5101432879683728,2.181,1.187048090079565,,,,,,,,,,,,,,,,,,,,
23,240610_145705,LEARNING,1.0,24,3.0,1750.0,,,,,,,,,,24.0,24.0,24.0,cue2.png,Hard,A,,,,,,,,,,,,,,,,,,,,,,,,,,,7,20,Female,1.0,1.25,0.8,0.75,2.9444444444444446,2.75,2.6666666666666665,2.111111111111111,1.875,3.0,2.0,2.75,2.25,1.25,0.75,0.8333333333333334,0.5112107124878094,0.05612947936689609,-0.6709734205675448,0.15404534485257873,-0.0006322946336601446,-0.6658830177598118,0.0007780248752843701,0.3903597350489688,-6.813238869478929e-05,-0.18062184310652052,1.4309878992165188e-05,-0.48694402676931064,-0.049000000000000155,-2.882486353702806,0.9469999999999998,-0.9468817984065844,,,,,,,,,,,,,,,,,,,,
24,240610_145723,LEARNING,1.0,25,1.0,1750.0,,,,,,,,,,25.0,25.0,25.0,cue1.png,Easy,A,,,,,,,,,,,,,,,,,,,,,,,,,,,7,20,Female,1.0,1.25,0.8,0.75,2.9444444444444446,2.75,2.6666666666666665,2.111111111111111,1.875,3.0,2.0,2.75,2.25,1.25,1.0,1.0,0.3682620499748736,-1.396709424528961,-0.998960501907621,-1.6341170219265886,-8.078522169803091e-05,-0.04907882255921995,0.003327548358887396,3.0384432877972194,-0.0008301938101955091,-2.1048552255434823,0.0011440681600529564,2.025935627749754,0.43000000000000016,-2.035726049316223,1.408,-0.14968432791054312,,,,,,,,,,,,,,,,,,,,
25,240610_145744,LEARNING,1.0,26,1.0,1750.0,,,,,,,,,,26.0,26.0,26.0,cue1.png,Easy,A,,,,,,,,,,,,,,,,,,,,,,,,,,,7,20,Female,1.0,1.25,0.8,0.75,2.9444444444444446,2.75,2.6666666666666665,2.111111111111111,1.875,3.0,2.0,2.75,2.25,1.25,0.1666666666666666,0.6666666666666667,0.6273406124091707,1.2363996095335112,-0.4662656443695221,1.2700976603546446,2.882218180469843e-06,0.044494245822607956,0.0017814454367157421,1.432570760875928,-0.0002455801754633626,-0.6286840928228604,,,1.9380000000000002,0.6300663077087582,1.2229999999999999,-0.469600883315679,,,,,,,,,,,,,,,,,,,,
26,240610_145804,LEARNING,1.0,27,3.0,1750.0,,,,,,,,,,27.0,27.0,27.0,cue2.png,Hard,A,,,,,,,,,,,,,,,,,,,,,,,,,,,7,20,Female,1.0,1.25,0.8,0.75,2.9444444444444446,2.75,2.6666666666666665,2.111111111111111,1.875,3.0,2.0,2.75,2.25,1.25,1.0,1.0,0.5769828750053421,0.7245957302503927,-0.5499426922813034,0.8138963141684469,-0.0004773655986476085,-0.4926114893299828,2.49473577767223e-05,-0.3918304274978902,-0.0001256697208819324,-0.3259057430746294,5.8618921989503706e-06,-0.5057345720480604,,,2.176,1.1784016966902373,,,,,,,,,,,,,,,,,,,,
27,240610_145824,LEARNING,1.0,28,1.0,1750.0,,,,,,,,,,28.0,28.0,28.0,cue1.png,Easy,A,,,,,,,,,,,,,,,,,,,,,,,,,,,7,20,Female,1.0,1.25,0.8,0.75,2.9444444444444446,2.75,2.6666666666666665,2.111111111111111,1.875,3.0,2.0,2.75,2.25,1.25,1.0,1.0,0.5597290500882082,0.5492388738800055,-0.5803024514690621,0.6483770546225535,-0.0033082682665982587,-3.6586728546008613,,,,,,,1.0539999999999998,-0.9326395567541624,1.7230000000000003,0.3950384556171212,,,,,,,,,,,,,,,,,,,,
28,240610_145844,LEARNING,1.0,29,1.0,1750.0,,,,,,,,,,29.0,29.0,29.0,cue1.png,Easy,A,,,,,,,,,,,,,,,,,,,,,,,,,,,7,20,Female,1.0,1.25,0.8,0.75,2.9444444444444446,2.75,2.6666666666666665,2.111111111111111,1.875,3.0,2.0,2.75,2.25,1.25,0.75,0.8333333333333334,0.5920007125241682,0.8772274388385233,-0.5242474405107337,0.9539850092271641,0.000337254166461859,0.4184534493901512,0.00029865248345667134,-0.10754434569578193,0.00012577803574847363,0.3090091779487741,-0.00022447188042719248,-1.018057482783786,1.6179999999999999,0.06438092690770064,,,,,,,,,,,,,,,,,,,,,,
29,240610_145903,LEARNING,1.0,30,3.0,1750.0,,,,,,,,,,30.0,30.0,30.0,cue2.png,Hard,A,,,,,,,,,,,,,,,,,,,,,,,,,,,7,20,Female,1.0,1.25,0.8,0.75,2.9444444444444446,2.75,2.6666666666666665,2.111111111111111,1.875,3.0,2.0,2.75,2.25,1.25,0.75,0.8333333333333334,0.4157548250514082,-0.9140231924774992,-0.8776595553206226,-0.9727928415493138,-0.0021052961575737956,-2.3132774226067387,0.0003076218605053151,-0.09822822839242412,-0.0005771166257023492,-1.4658259386706574,0.00037197586709652834,0.30859923207452505,1.3150000000000002,-0.4712524180382997,1.3739999999999999,-0.20847980295797355,,,,,,,,,,,,,,,,,,,,
30,240610_145923,LEARNING,1.0,31,3.0,1750.0,,,,,,,,,,31.0,31.0,31.0,cue2.png,Hard,A,,,,,,,,,,,,,,,,,,,,,,,,,,,7,20,Female,1.0,1.25,0.8,0.75,2.9444444444444446,2.75,2.6666666666666665,2.111111111111111,1.875,3.0,2.0,2.75,2.25,1.25,0.75,0.8333333333333334,0.5341299249557778,0.2890657162981536,-0.62711616445521,0.393152002864387,4.0292806722865525e-05,0.08633398138718977,0.00017949761539445223,-0.2313055302366419,0.00016584172547100652,0.41017148194768027,0.000331337931093645,0.21820977063379193,,,1.43,-0.11164019699749991,,,,,,,,,,,,,,,,,,,,
31,240610_145943,LEARNING,1.0,32,1.0,1750.0,,,,,,,,,,32.0,32.0,32.0,cue1.png,Easy,A,,,,,,,,,,,,,,,,,,,,,,,,,,,7,20,Female,1.0,1.25,0.8,0.75,2.9444444444444446,2.75,2.6666666666666665,2.111111111111111,1.875,3.0,2.0,2.75,2.25,1.25,0.1666666666666666,0.6666666666666667,0.5662097999593243,0.6151050762890244,-0.5687905981543644,0.7111388645850644,-0.0014437996857375743,-1.5734644836264693,4.6413751099717935e-05,-0.3695341813714903,-0.0001553337506363774,-0.40080851954466545,0.00021308556897311126,-0.04481459471318852,1.062,-0.9184974222341357,1.2469999999999999,-0.4280981950469046,,,,,,,,,,,,,,,,,,,,
32,240610_150003,LEARNING,1.0,33,1.0,1750.0,,,,,,,,,,33.0,33.0,33.0,cue1.png,Easy,A,,,,,,,,,,,,,,,,,,,,,,,,,,,7,20,Female,1.0,1.25,0.8,0.75,2.9444444444444446,2.75,2.6666666666666665,2.111111111111111,1.875,3.0,2.0,2.75,2.25,1.25,1.0,1.0,0.4808466875110753,-0.252471076871766,-0.7322067966670159,-0.17979469020166208,,,0.000878167884391802,0.49437409578956576,,,0.00035958052263451853,0.28102872479743435,0.8220000000000001,-1.3427614578349285,1.7409999999999999,0.4261654718187013,,,,,,,,,,,,,,,,,,,,
33,240610_150022,LEARNING,1.0,34,1.0,1750.0,,,,,,,,,,34.0,34.0,34.0,cue1.png,Easy,A,,,,,,,,,,,,,,,,,,,,,,,,,,,7,20,Female,1.0,1.25,0.8,0.75,2.9444444444444446,2.75,2.6666666666666665,2.111111111111111,1.875,3.0,2.0,2.75,2.25,1.25,0.75,0.8333333333333334,0.4305187876452692,-0.7639717064757789,-0.8427643146141865,-0.7825464575880775,-4.81609011056287e-05,-0.012592014953577322,0.00018014022752727184,-0.23063807585520146,-0.00018281805760762392,-0.4702074150602909,0.0002542342987212698,0.046711006405983184,2.3979999999999997,1.4432390426102768,2.203,1.2250922209926078,,,,,,,,,,,,,,,,,,,,
34,240610_150041,LEARNING,1.0,35,3.0,1750.0,,,,,,,,,,35.0,35.0,35.0,cue2.png,Hard,A,,,,,,,,,,,,,,,,,,,,,,,,,,,7,20,Female,1.0,1.25,0.8,0.75,2.9444444444444446,2.75,2.6666666666666665,2.111111111111111,1.875,3.0,2.0,2.75,2.25,1.25,0.75,0.8333333333333334,0.4959126875037327,-0.09934987566118017,-0.7013554010114856,-0.01159506341016383,-0.0008663987383786161,-0.9277033797919131,1.1175255194969744e-05,-0.40613493521003774,0.00016883088032077767,0.41771920892207026,0.0004691609009451316,0.5247643165672855,1.695,0.2004989716629553,1.359,-0.23441898312595735,,,,,,,,,,,,,,,,,,,,
35,240610_150102,LEARNING,1.0,36,3.0,1750.0,,,,,,,,,,36.0,36.0,36.0,cue2.png,Hard,A,,,,,,,,,,,,,,,,,,,,,,,,,,,7,20,Female,1.0,1.25,0.8,0.75,2.9444444444444446,2.75,2.6666666666666665,2.111111111111111,1.875,3.0,2.0,2.75,2.25,1.25,1.0,1.0,0.6622834875597619,1.5915366744092365,-0.41206158576673607,1.5656143536468918,,,,,-0.0001922901679092901,-0.49412484524419625,-0.00030268833110674636,-1.1920314477073222,1.592,0.01841898971761511,1.728,0.40368484900644863,,,,,,,,,,,,,,,,,,,,
36,240610_150121,LEARNING,1.0,37,1.0,1750.0,,,,,,,,,,37.0,37.0,37.0,cue1.png,Easy,A,,,,,,,,,,,,,,,,,,,,,,,,,,,7,20,Female,1.0,1.25,0.8,0.75,2.9444444444444446,2.75,2.6666666666666665,2.111111111111111,1.875,3.0,2.0,2.75,2.25,1.25,1.0,1.0,0.502654500072822,-0.030830398731757025,-0.6878522234744299,0.062023305353162785,-3.289284090683339e-05,0.004483674742610605,0.0031138111310641333,2.816443356732095,0.0003809430725225751,0.9533103693469233,0.0009229058603758421,1.5340124858512576,,,0.6040000000000001,-1.5400243849144843,,,,,,,,,,,,,,,,,,,,
37,240610_150143,LEARNING,1.0,38,3.0,1750.0,,,,,,,,,,38.0,38.0,38.0,cue2.png,Hard,A,,,,,,,,,,,,,,,,,,,,,,,,,,,7,20,Female,1.0,1.25,0.8,0.75,2.9444444444444446,2.75,2.6666666666666665,2.111111111111111,1.875,3.0,2.0,2.75,2.25,1.25,1.0,1.0,0.7694850499974564,2.6810648849569185,-0.26203375409536867,2.3835554794623217,0.00037269436580097915,0.458089515714648,,,0.0005771768124204963,1.4488078481832471,-3.520514658573396e-05,-0.597078470971715,2.0959999999999996,0.9093734644792791,2.098,1.0435179598167201,,,,,,,,,,,,,,,,,,,,
38,240610_150203,LEARNING,1.0,39,3.0,1750.0,,,,,,,,,,39.0,39.0,39.0,cue2.png,Hard,A,,,,,,,,,,,,,,,,,,,,,,,,,,,7,20,Female,1.0,1.25,0.8,0.75,2.9444444444444446,2.75,2.6666666666666665,2.111111111111111,1.875,3.0,2.0,2.75,2.25,1.25,0.1666666666666666,0.6666666666666667,0.5254442749428563,0.20079031712641202,-0.643511136261611,0.3037677763002488,8.887881385878432e-05,0.14067222544881475,,,0.00034870438947783196,0.8719064977294166,-0.0005238235764680383,-1.6838944136894862,2.319,1.3035854642250164,1.6360000000000001,0.24459121064281378,,,,,,,,,,,,,,,,,,,,
39,240610_150224,LEARNING,1.0,40,3.0,1750.0,,,,,,,,,,40.0,40.0,40.0,cue2.png,Hard,A,,,,,,,,,,,,,,,,,,,,,,,,,,,7,20,Female,1.0,1.25,0.8,0.75,2.9444444444444446,2.75,2.6666666666666665,2.111111111111111,1.875,3.0,2.0,2.75,2.25,1.25,0.75,0.8333333333333334,0.6395180499530397,1.3601633069510646,-0.4470404332590745,1.3749121514029743,,,-2.6024203983172726e-06,-0.42044523137649,-0.00018472148199031712,-0.47501363229526117,0.0002090798909107931,-0.053724276610719164,1.5969999999999998,0.027257823792631045,1.3419999999999999,-0.26381672064967276,,,,,,,,,,,,,,,,,,,,
40,240610_150242,LEARNING,1.0,41,1.0,1750.0,,,,,,,,,,41.0,41.0,41.0,cue1.png,Easy,A,,,,,,,,,,,,,,,,,,,,,,,,,,,7,20,Female,1.0,1.25,0.8,0.75,2.9444444444444446,2.75,2.6666666666666665,2.111111111111111,1.875,3.0,2.0,2.75,2.25,1.25,1.0,1.0,0.4257322250632569,-0.812619271362581,-0.8539447100155052,-0.8435011824530475,,,,,0.00012646635198432102,0.31074720199948985,0.000501197776578379,0.5960227568219164,,,2.021,0.910363501621069,,,,,,,,,,,,,,,,,,,,
41,240610_150301,LEARNING,1.0,42,3.0,1750.0,,,,,,,,,,42.0,42.0,42.0,cue2.png,Hard,A,,,,,,,,,,,,,,,,,,,,,,,,,,,7,20,Female,1.0,1.25,0.8,0.75,2.9444444444444446,2.75,2.6666666666666665,2.111111111111111,1.875,3.0,2.0,2.75,2.25,1.25,0.75,0.8333333333333334,0.3881745874532498,-1.1943311118165123,-0.9463000729009393,-1.3470160880012125,6.921378122145367e-05,0.11867899311881899,5.167511721903715e-05,-0.3640694201425149,0.0003729238660273365,0.9330615752163849,0.00026749295806651873,0.07620175312004268,,,1.5019999999999998,0.012867867808822937,,,,,,,,,,,,,,,,,,,,
42,240610_150320,LEARNING,1.0,43,3.0,1750.0,,,,,,,,,,43.0,43.0,43.0,cue2.png,Hard,A,,,,,,,,,,,,,,,,,,,,,,,,,,,7,20,Female,1.0,1.25,0.8,0.75,2.9444444444444446,2.75,2.6666666666666665,2.111111111111111,1.875,3.0,2.0,2.75,2.25,1.25,1.0,1.0,0.4725976376212202,-0.33630915125091454,-0.7495109129273495,-0.2741355080188641,,,,,,,,,1.6600000000000001,0.13862713313783984,2.2809999999999997,1.3599759578661244,,,,,,,,,,,,,,,,,,,,
43,240610_150340,LEARNING,1.0,44,1.0,1750.0,,,,,,,,,,44.0,44.0,44.0,cue1.png,Easy,A,,,,,,,,,,,,,,,,,,,,,,,,,,,7,20,Female,1.0,1.25,0.8,0.75,2.9444444444444446,2.75,2.6666666666666665,2.111111111111111,1.875,3.0,2.0,2.75,2.25,1.25,1.0,1.0,0.5243159249075688,0.18932248804945573,-0.6456608662094387,0.2920476006892531,,,0.002510753792804483,2.190072888258242,0.00032598772837414075,0.8145460850383398,0.0003700835529032512,0.3043902274441018,1.283,-0.5278209561184058,2.0540000000000003,0.9674296979906344,,,,,,,,,,,,,,,,,,,,
44,240610_150359,LEARNING,1.0,45,1.0,1750.0,,,,,,,,,,45.0,45.0,45.0,cue1.png,Easy,A,,,,,,,,,,,,,,,,,,,,,,,,,,,7,20,Female,1.0,1.25,0.8,0.75,2.9444444444444446,2.75,2.6666666666666665,2.111111111111111,1.875,3.0,2.0,2.75,2.25,1.25,1.0,1.0,0.4640863001695834,-0.42281294888389176,-0.7676847523054101,-0.3732179947526684,-8.555622659801951e-05,-0.05441468043182813,-0.0005486388245377794,-0.9875904372563227,,,-2.8054424862584363e-05,-0.5811733845169751,1.6390000000000002,0.10150403002277063,1.7020000000000002,0.3587236033819434,,,,,,,,,,,,,,,,,,,,
45,240610_150418,LEARNING,1.0,46,1.0,1750.0,,,,,,,,,,46.0,46.0,46.0,cue1.png,Easy,A,,,,,,,,,,,,,,,,,,,,,,,,,,,7,20,Female,1.0,1.25,0.8,0.75,2.9444444444444446,2.75,2.6666666666666665,2.111111111111111,1.875,3.0,2.0,2.75,2.25,1.25,1.0,1.0,0.4060702374554239,-1.0124511552180389,-0.9012291356842671,-1.1012925264602165,7.522059231093508e-05,0.12539696782497703,,,-0.0004183357444018775,-1.0648983183097573,,,2.0509999999999997,0.8298239578041307,0.17799999999999994,-2.27669710168523,,,,,,,,,,,,,,,,,,,,
46,240610_150439,LEARNING,1.0,47,3.0,1750.0,,,,,,,,,,47.0,47.0,47.0,cue2.png,Hard,A,,,,,,,,,,,,,,,,,,,,,,,,,,,7,20,Female,1.0,1.25,0.8,0.75,2.9444444444444446,2.75,2.6666666666666665,2.111111111111111,1.875,3.0,2.0,2.75,2.25,1.25,0.1666666666666666,0.6666666666666667,0.6198109624674544,1.159873056743605,-0.4783407466802666,1.2042650567079987,,,0.0002968726534606477,-0.10939298077189331,0.0001241666963090601,0.30494048603985835,0.000296913054116573,0.14163978711149253,,,1.6360000000000001,0.24459121064281378,,,,,,,,,,,,,,,,,,,,
47,240610_150458,LEARNING,1.0,48,3.0,1750.0,,,,,,,,,,48.0,48.0,48.0,cue2.png,Hard,A,,,,,,,,,,,,,,,,,,,,,,,,,,,7,20,Female,1.0,1.25,0.8,0.75,2.9444444444444446,2.75,2.6666666666666665,2.111111111111111,1.875,3.0,2.0,2.75,2.25,1.25,1.0,1.0,0.4783315249951556,-0.2780335822391602,-0.7374512199616039,-0.2083869150311476,0.0001040383325870654,0.15762652313805897,,,0.0006076539215955161,1.5257636803775336,-0.00011404528859496098,-0.772439689504549,1.585,0.00604462201259178,1.9969999999999999,0.8688608133522946,,,,,,,,,,,,,,,,,,,,
48,240610_150517,LEARNING,1.0,49,1.0,1750.0,,,,,,,,,,49.0,49.0,49.0,cue1.png,Easy,A,,,,,,,,,,,,,,,,,,,,,,,,,,,7,20,Female,1.0,1.25,0.8,0.75,2.9444444444444446,2.75,2.6666666666666665,2.111111111111111,1.875,3.0,2.0,2.75,2.25,1.25,0.75,0.8333333333333334,0.4156430001021363,-0.9151597098388542,-0.877928559993387,-0.974259435996753,,,,,-0.00018963383212978156,-0.4874174987788336,-0.00011730753925632284,-0.779695793267896,,,,,,,,,,,,,,,,,,,,,,,,
49,240610_150537,LEARNING,1.0,50,1.0,1750.0,,,,,,,,,,50.0,50.0,50.0,cue1.png,Easy,A,,,,,,,,,,,,,,,,,,,,,,,,,,,7,20,Female,1.0,1.25,0.8,0.75,2.9444444444444446,2.75,2.6666666666666665,2.111111111111111,1.875,3.0,2.0,2.75,2.25,1.25,1.0,1.0,0.6054634625324979,1.0140542312106153,-0.5017610604479992,1.0765791627193984,,,6.576595439250748e-05,-0.34943385612300326,-0.0003873462899708479,-0.986648795322141,-0.00032033683843427476,-1.2312863712953446,1.4839999999999998,-0.1724998263027422,,,,,,,,,,,,,,,,,,,,,,
0,240610_150646,TrueCHOICE,9.0,1,1.0,1750.0,,,,,,,,,,,2.0,1.0,,,A,,,,,,True,cue1.png,Easy,cue2.png,Hard,Left,Easy,Easy,0.0140102002769708,,,,,,,,,,,,,7,20,Female,1.0,1.25,0.8,0.75,2.9444444444444446,2.75,2.6666666666666665,2.111111111111111,1.875,3.0,2.0,2.75,2.25,1.25,0.75,0.8333333333333334,0.8006134750321507,2.366514147760833,-0.22237700139849298,2.212771804052647,,,,,,,,,,,,,,,-0.0003295305079243599,-0.6159457263102687,,,,,,,,,,,,,,,,
1,240610_150704,TrueCHOICE,9.0,2,3.0,1750.0,,,,,,,,,,,3.0,2.0,,,A,,,,,,True,cue1.png,Easy,cue2.png,Hard,Right,Hard,Hard,0.0140955997630953,,,,,,,,,,,,,7,20,Female,1.0,1.25,0.8,0.75,2.9444444444444446,2.75,2.6666666666666665,2.111111111111111,1.875,3.0,2.0,2.75,2.25,1.25,,,,,,,,,,,,,,,,,,,,,,,,,,,,,,,,,,,,,,
2,240610_150724,TrueCHOICE,9.0,3,1.0,1750.0,,,,,,,,,,,4.0,3.0,,,A,,,,,,True,cue2.png,Hard,cue1.png,Easy,Right,Easy,Easy,0.0178204998373985,,,,,,,,,,,,,7,20,Female,1.0,1.25,0.8,0.75,2.9444444444444446,2.75,2.6666666666666665,2.111111111111111,1.875,3.0,2.0,2.75,2.25,1.25,0.75,0.8333333333333334,0.5422181874746457,0.30777117927989245,-0.6120867986316746,0.4531309900577086,,,,,,,,,,,,,,,,,,,,,,,,,,,,,,,,
3,240610_150742,TrueCHOICE,9.0,4,1.0,1750.0,,,,,,,,,,,5.0,4.0,,,A,,,,,,True,cue1.png,Easy,cue2.png,Hard,Left,Easy,Easy,0.0166081003844738,,,,,,,,,,,,,7,20,Female,1.0,1.25,0.8,0.75,2.9444444444444446,2.75,2.6666666666666665,2.111111111111111,1.875,3.0,2.0,2.75,2.25,1.25,1.0,1.0,0.3957397874910384,-0.8592832931569498,-0.9269983860093494,-0.9687765059402099,,,,,,,,,,,,,-1.8752807384237943e-05,-0.9787496536919144,-0.0004107150492067193,-0.7957233612572283,1.3239999999999998,-0.986901690180926,,,,,,,,,,,,,,
4,240610_150759,TrueCHOICE,9.0,5,1.0,1750.0,,,,,,,,,,,6.0,5.0,,,A,,,,,,True,cue2.png,Hard,cue1.png,Easy,Right,Easy,Easy,0.0168340997770428,,,,,,,,,,,,,7,20,Female,1.0,1.25,0.8,0.75,2.9444444444444446,2.75,2.6666666666666665,2.111111111111111,1.875,3.0,2.0,2.75,2.25,1.25,1.0,1.0,0.5425828375155106,0.3106764981604464,-0.6114145093432263,0.4561665505675139,,,,,,,,,,,,,0.0011440230657743691,1.740021283104685,0.0007179324493816128,1.703589620992777,1.5810000000000002,-0.46459169352421636,,,,,,,,,,,,,,
5,240610_150816,TrueCHOICE,9.0,6,1.0,1750.0,,,,,,,,,,,7.0,6.0,,,A,,,,,,True,cue2.png,Hard,cue1.png,Easy,Right,Easy,Easy,0.016665400005877,,,,,,,,,,,,,7,20,Female,1.0,1.25,0.8,0.75,2.9444444444444446,2.75,2.6666666666666665,2.111111111111111,1.875,3.0,2.0,2.75,2.25,1.25,1.0,1.0,0.4751309499260969,-0.22674080769722377,-0.7441648288864214,-0.1432355737760693,,,,,,,,,,,,,,,,,1.5559999999999998,-0.5154000589577491,,,,,,,,,,,,,,
6,240610_150832,TrueCHOICE,9.0,7,3.0,1750.0,,,,,,,,,,,8.0,7.0,,,A,,,,,,True,cue1.png,Easy,cue2.png,Hard,Right,Hard,Hard,0.0166946998797357,,,,,,,,,,,,,7,20,Female,1.0,1.25,0.8,0.75,2.9444444444444446,2.75,2.6666666666666665,2.111111111111111,1.875,3.0,2.0,2.75,2.25,1.25,,,,,,,,,,,,,,,,,,,,,,,,,,,,,,,,,,,,,,
7,240610_150849,TrueCHOICE,9.0,8,1.0,1750.0,,,,,,,,,,,9.0,8.0,,,A,,,,,,True,cue2.png,Hard,cue1.png,Easy,Right,Easy,Easy,0.0168309998698532,,,,,,,,,,,,,7,20,Female,1.0,1.25,0.8,0.75,2.9444444444444446,2.75,2.6666666666666665,2.111111111111111,1.875,3.0,2.0,2.75,2.25,1.25,0.75,0.8333333333333334,0.4671679874882102,-0.29018504881415474,-0.7610663697467744,-0.21955041453303661,,,,,,,,,,,,,0.00014320411704206318,-0.6000663757640028,,,,,,,,,,,,,,,,,,
8,240610_150905,TrueCHOICE,9.0,9,1.0,1750.0,,,,,,,,,,,10.0,9.0,,,A,,,,,,True,cue1.png,Easy,cue2.png,Hard,Left,Easy,Easy,0.0141937001608312,,,,,,,,,,,,,7,20,Female,1.0,1.25,0.8,0.75,2.9444444444444446,2.75,2.6666666666666665,2.111111111111111,1.875,3.0,2.0,2.75,2.25,1.25,1.0,1.0,0.3848062749602832,-0.9463951451425676,-0.9550152532542014,-1.09527992831843,,,,,,,,,,,,,0.0001231898925388962,-0.646863091414733,-0.00018320620759602977,-0.29192053342528007,2.735,1.8807224548876198,,,,,,,,,,,,,,
9,240610_150921,TrueCHOICE,9.0,10,1.0,1750.0,,,,,,,,,,,11.0,10.0,,,A,,,,,,True,cue2.png,Hard,cue1.png,Easy,Right,Easy,Easy,0.0161120002157986,,,,,,,,,,,,,7,20,Female,1.0,1.25,0.8,0.75,2.9444444444444446,2.75,2.6666666666666665,2.111111111111111,1.875,3.0,2.0,2.75,2.25,1.25,1.0,1.0,0.4204561750520952,-0.6623575303902768,-0.8664150260419151,-0.695226922110123,,,,,,,,,,,,,0.0006075514084266918,0.48565783776596494,,,1.852,0.08617098777527026,,,,,,,,,,,,,,
0,240610_151054,FalseCHOICE,9.0,1,2.0,1750.0,,,,,,,,,,,1.0,1.0,,,A,,,,,,False,cue1.png,Easy,cue2.png,Hard,Left,Easy,Mid,0.017319899983704,,,,,,,,,,,,,7,20,Female,1.0,1.25,0.8,0.75,2.9444444444444446,2.75,2.6666666666666665,2.111111111111111,1.875,3.0,2.0,2.75,2.25,1.25,1.0,1.0,0.4282385749975219,-1.153694064420145,-0.8480748204816577,-1.1399545692333584,,,,,,,,,,,,,,,,,,,0.00172587456398857,3.8149918456679477,0.0004042187449486605,1.0309922117419088,1.335,-0.5793263153014614,,,,,,,,
1,240610_151115,FalseCHOICE,9.0,2,2.0,1750.0,,,,,,,,,,,2.0,2.0,,,A,,,,,,False,cue2.png,Hard,cue1.png,Easy,Left,Hard,Mid,0.0153878000564873,,,,,,,,,,,,,7,20,Female,1.0,1.25,0.8,0.75,2.9444444444444446,2.75,2.6666666666666665,2.111111111111111,1.875,3.0,2.0,2.75,2.25,1.25,,,,,,,,,,,,,,,,,,,,,,,,,,,-0.0002861396968291026,-0.8445735820126373,1.0859999999999999,-1.0837048205814055,,,,,,,,
2,240610_151133,FalseCHOICE,9.0,3,2.0,1750.0,,,,,,,,,,,3.0,3.0,,,A,,,,,,False,cue2.png,Hard,cue1.png,Easy,Right,Easy,Mid,0.0164328999817371,,,,,,,,,,,,,7,20,Female,1.0,1.25,0.8,0.75,2.9444444444444446,2.75,2.6666666666666665,2.111111111111111,1.875,3.0,2.0,2.75,2.25,1.25,,,,,,,,,,,,,,,,,,,,,,,,,1.2262005423288418e-06,-0.1776924117900122,,,1.589,-0.06481972758617714,,,,,,,,
3,240610_151152,FalseCHOICE,9.0,4,2.0,1750.0,,,,,,,,,,,4.0,4.0,,,A,,,,,,False,cue2.png,Hard,cue1.png,Easy,Right,Easy,Mid,0.0164577001705765,,,,,,,,,,,,,7,20,Female,1.0,1.25,0.8,0.75,2.9444444444444446,2.75,2.6666666666666665,2.111111111111111,1.875,3.0,2.0,2.75,2.25,1.25,1.0,1.0,0.6745869749574922,0.7945242721302608,-0.3936546643419158,0.800371608232667,,,,,,,,,,,,,,,,,,,0.00019541285417093695,0.27186357387312143,-2.2326259134883286e-05,-0.12784524245920087,1.5939999999999999,-0.05469164515083712,,,,,,,,
4,240610_151209,FalseCHOICE,9.0,5,2.0,1750.0,,,,,,,,,,,5.0,5.0,,,A,,,,,,False,cue1.png,Easy,cue2.png,Hard,Left,Easy,Mid,0.0161144998855888,,,,,,,,,,,,,7,20,Female,1.0,1.25,0.8,0.75,2.9444444444444446,2.75,2.6666666666666665,2.111111111111111,1.875,3.0,2.0,2.75,2.25,1.25,,,,,,,,,,,,,,,,,,,,,,,,,-0.00011388719053662729,-0.4441881416587613,8.824453735870041e-05,0.1725534941123733,1.558,-0.12761383868528647,,,,,,,,
5,240610_151226,FalseCHOICE,9.0,6,2.0,1750.0,,,,,,,,,,,6.0,6.0,,,A,,,,,,False,cue2.png,Hard,cue1.png,Easy,Right,Easy,Mid,0.0168093997053802,,,,,,,,,,,,,7,20,Female,1.0,1.25,0.8,0.75,2.9444444444444446,2.75,2.6666666666666665,2.111111111111111,1.875,3.0,2.0,2.75,2.25,1.25,0.75,0.8333333333333334,0.3403981124865822,-1.848370383741435,-1.0776394272848302,-2.1201712475246124,,,,,,,,,,,,,,,,,,,0.0004270246994060355,0.808061553653243,0.000187960728295993,0.4434624386367151,,,,,,,,,,
6,240610_151244,FalseCHOICE,9.0,7,2.0,1750.0,,,,,,,,,,,7.0,7.0,,,A,,,,,,False,cue2.png,Hard,cue1.png,Easy,Right,Easy,Mid,0.0162447998300194,,,,,,,,,,,,,7,20,Female,1.0,1.25,0.8,0.75,2.9444444444444446,2.75,2.6666666666666665,2.111111111111111,1.875,3.0,2.0,2.75,2.25,1.25,0.1666666666666666,0.6666666666666667,0.37837321247207,-1.5480486193781016,-0.9718742358745519,-1.6685650263099012,,,,,,,,,,,,,,,,,,,-4.055493107878519e-05,-0.2744187184494513,,,1.458,-0.33017548739209146,,,,,,,,
7,240610_151302,FalseCHOICE,9.0,8,2.0,1750.0,,,,,,,,,,,8.0,8.0,,,A,,,,,,False,cue1.png,Easy,cue2.png,Hard,Left,Easy,Mid,0.0137207997031509,,,,,,,,,,,,,7,20,Female,1.0,1.25,0.8,0.75,2.9444444444444446,2.75,2.6666666666666665,2.111111111111111,1.875,3.0,2.0,2.75,2.25,1.25,,,,,,,,,,,,,,,,,,,,,,,,,,,,,,,,,,,,,,
8,240610_151321,FalseCHOICE,9.0,9,2.0,1750.0,,,,,,,,,,,9.0,9.0,,,A,,,,,,False,cue1.png,Easy,cue2.png,Hard,Left,Easy,Mid,0.0170081001706421,,,,,,,,,,,,,7,20,Female,1.0,1.25,0.8,0.75,2.9444444444444446,2.75,2.6666666666666665,2.111111111111111,1.875,3.0,2.0,2.75,2.25,1.25,1.0,1.0,0.5702191875898279,-0.030856518359618928,-0.5617344524386796,0.0826886262154635,,,,,,,,,,,,,,,,,,,2.5759661901148673e-05,-0.12089569483341592,,,,,,,,,,,,
9,240610_151339,FalseCHOICE,9.0,10,2.0,1750.0,,,,,,,,,,,10.0,10.0,,,A,,,,,,False,cue2.png,Hard,cue1.png,Easy,Right,Easy,Mid,0.0162963001057505,,,,,,,,,,,,,7,20,Female,1.0,1.25,0.8,0.75,2.9444444444444446,2.75,2.6666666666666665,2.111111111111111,1.875,3.0,2.0,2.75,2.25,1.25,,,,,,,,,,,,,,,,,,,,,,,,,0.0007870759139082173,1.6416058554892912,0.0004983253282512842,1.2866609744139421,,,,,,,,,,
10,240610_151358,FalseCHOICE,9.0,11,2.0,1750.0,,,,,,,,,,,11.0,11.0,,,A,,,,,,False,cue1.png,Easy,cue2.png,Hard,Left,Easy,Mid,0.0166025003418326,,,,,,,,,,,,,7,20,Female,1.0,1.25,0.8,0.75,2.9444444444444446,2.75,2.6666666666666665,2.111111111111111,1.875,3.0,2.0,2.75,2.25,1.25,1.0,1.0,0.6841956749558449,0.8705135845440795,-0.3795113277742439,0.8607621648754212,,,,,,,,,,,,,,,,,,,-6.4099076129073285e-06,-0.1953705480790437,0.00021606322345973233,0.5198112966481155,,,,,,,,,,
11,240610_151418,FalseCHOICE,9.0,12,2.0,1750.0,,,,,,,,,,,12.0,12.0,,,A,,,,,,False,cue2.png,Hard,cue1.png,Easy,Left,Hard,Mid,0.0161528997123241,,,,,,,,,,,,,7,20,Female,1.0,1.25,0.8,0.75,2.9444444444444446,2.75,2.6666666666666665,2.111111111111111,1.875,3.0,2.0,2.75,2.25,1.25,,,,,,,,,,,,,,,,,,,,,,,,,-2.5827152739899256e-05,-0.24032285869778713,-7.247440874863335e-05,-0.2640877338140223,1.4629999999999999,-0.32004740495675144,,,,,,,,
12,240610_151442,FalseCHOICE,9.0,13,2.0,1750.0,,,,,,,,,,,14.0,13.0,,,A,,,,,,False,cue1.png,Easy,cue2.png,Hard,Right,Hard,Mid,0.0170408999547362,,,,,,,,,,,,,7,20,Female,1.0,1.25,0.8,0.75,2.9444444444444446,2.75,2.6666666666666665,2.111111111111111,1.875,3.0,2.0,2.75,2.25,1.25,1.0,1.0,0.564773787453305,-0.0739208467561173,-0.5713300041964832,0.041716631440718265,,,,,,,,,,,,,,,,,,,7.065468836176545e-05,-0.01696049900643737,-0.000210444592611562,-0.6389251251624388,1.4609999999999999,-0.3240986379308875,,,,,,,,
13,240610_151502,FalseCHOICE,9.0,14,2.0,1750.0,,,,,,,,,,,15.0,14.0,,,A,,,,,,False,cue2.png,Hard,cue1.png,Easy,Left,Hard,Mid,0.0165388998575508,,,,,,,,,,,,,7,20,Female,1.0,1.25,0.8,0.75,2.9444444444444446,2.75,2.6666666666666665,2.111111111111111,1.875,3.0,2.0,2.75,2.25,1.25,1.0,1.0,0.7081659125396982,1.0600794855197746,-0.34507687299635015,1.00779365788818,,,,,,,,,,,,,,,,,,,-3.0257502370513792e-05,-0.25057943482084255,-0.00038753398443562743,-1.1200415795172258,1.442,-0.36258535118518026,,,,,,,,
14,240610_151523,FalseCHOICE,9.0,15,2.0,1750.0,,,,,,,,,,,16.0,15.0,,,A,,,,,,False,cue1.png,Easy,cue2.png,Hard,Right,Hard,Mid,0.0155209000222384,,,,,,,,,,,,,7,20,Female,1.0,1.25,0.8,0.75,2.9444444444444446,2.75,2.6666666666666665,2.111111111111111,1.875,3.0,2.0,2.75,2.25,1.25,,,,,,,,,,,,,,,,,,,,,,,,,2.918645917636062e-05,-0.11296241415763887,0.0002123660805624589,0.5097668989365556,,,,,,,,,,
15,240610_151542,FalseCHOICE,9.0,16,2.0,1750.0,,,,,,,,,,,17.0,16.0,,,A,,,,,,False,cue1.png,Easy,cue2.png,Hard,Left,Easy,Mid,0.0162741001695394,,,,,,,,,,,,,7,20,Female,1.0,1.25,0.8,0.75,2.9444444444444446,2.75,2.6666666666666665,2.111111111111111,1.875,3.0,2.0,2.75,2.25,1.25,0.75,0.8333333333333334,0.5576303999405354,-0.13041351543074323,-0.5840589017598645,-0.01263441971493786,,,,,,,,,,,,,,,,,,,-0.00023865421887184907,-0.7330327319197135,-0.0002772153799736033,-0.8203279982493697,,,,,,,,,,
16,240610_151600,FalseCHOICE,9.0,17,2.0,1750.0,,,,,,,,,,,18.0,17.0,,,A,,,,,,False,cue2.png,Hard,cue1.png,Easy,Left,Hard,Mid,0.0135706001892685,,,,,,,,,,,,,7,20,Female,1.0,1.25,0.8,0.75,2.9444444444444446,2.75,2.6666666666666665,2.111111111111111,1.875,3.0,2.0,2.75,2.25,1.25,1.0,1.0,0.5437170999357477,-0.24044526800416716,-0.6093262042750885,-0.12052313865012025,,,,,,,,,,,,,,,,,,,-4.35439036281177e-06,-0.19061187869499008,-2.5740133346856785e-05,-0.13712005581510023,,,,,,,,,,
17,240610_151618,FalseCHOICE,9.0,18,2.0,1750.0,,,,,,,,,,,19.0,18.0,,,A,,,,,,False,cue2.png,Hard,cue1.png,Easy,Right,Easy,Mid,0.0159013997763395,,,,,,,,,,,,,7,20,Female,1.0,1.25,0.8,0.75,2.9444444444444446,2.75,2.6666666666666665,2.111111111111111,1.875,3.0,2.0,2.75,2.25,1.25,0.75,0.8333333333333334,0.5136209498741664,-0.47845725192236116,-0.6662697371848462,-0.36366602315769825,,,,,,,,,,,,,,,,,,,0.0017597658965425337,3.893452703440768,0.00026074464001472333,0.6412017677941417,,,,,,,,,,
18,240610_151638,FalseCHOICE,9.0,19,2.0,1750.0,,,,,,,,,,,20.0,19.0,,,A,,,,,,False,cue1.png,Easy,cue2.png,Hard,Right,Hard,Mid,0.0164640001021325,,,,,,,,,,,,,7,20,Female,1.0,1.25,0.8,0.75,2.9444444444444446,2.75,2.6666666666666665,2.111111111111111,1.875,3.0,2.0,2.75,2.25,1.25,0.75,0.8333333333333334,0.8194872625172138,1.9404517360031635,-0.19907642391207392,1.6312001891620718,,,,,,,,,,,,,,,,,,,-3.833170696613316e-05,-0.2692717956891217,-0.0001895022808427525,-0.5820290531819549,,,,,,,,,,
19,240610_151658,FalseCHOICE,9.0,20,2.0,1750.0,,,,,,,,,,,21.0,20.0,,,A,,,,,,False,cue1.png,Easy,cue2.png,Hard,Right,Hard,Mid,0.0171076999977231,,,,,,,,,,,,,7,20,Female,1.0,1.25,0.8,0.75,2.9444444444444446,2.75,2.6666666666666665,2.111111111111111,1.875,3.0,2.0,2.75,2.25,1.25,1.0,1.0,0.7610383749706671,1.4782153484818392,-0.27307149536075126,1.3152490320765444,,,,,,,,,,,,,,,,,,,,,3.759151809190099e-05,0.03493937289940796,,,,,,,,,,
20,240610_151719,FalseCHOICE,9.0,21,2.0,1750.0,,,,,,,,,,,22.0,21.0,,,A,,,,,,False,cue1.png,Easy,cue2.png,Hard,Right,Hard,Mid,0.0166061003692448,,,,,,,,,,,,,7,20,Female,1.0,1.25,0.8,0.75,2.9444444444444446,2.75,2.6666666666666665,2.111111111111111,1.875,3.0,2.0,2.75,2.25,1.25,0.75,0.8333333333333334,0.732844450045377,1.255246895966211,-0.3108218096488128,1.1540591683985553,,,,,,,,,,,,,,,,,,,-7.899622078459635e-05,-0.3634130523077904,0.0002385838213801554,0.5809952563975967,2.103,0.9763471467668,,,,,,,,
21,240610_151739,FalseCHOICE,9.0,22,2.0,1750.0,,,,,,,,,,,23.0,22.0,,,A,,,,,,False,cue2.png,Hard,cue1.png,Easy,Left,Hard,Mid,0.0161568000912666,,,,,,,,,,,,,7,20,Female,1.0,1.25,0.8,0.75,2.9444444444444446,2.75,2.6666666666666665,2.111111111111111,1.875,3.0,2.0,2.75,2.25,1.25,1.0,1.0,0.7162450749892741,1.123972623980552,-0.3337328870825537,1.0562312822495792,,,,,,,,,,,,,,,,,,,4.8981203794753667e-05,-0.06713616522865123,9.96245166436276e-05,0.20347062148968387,,,,,,,,,,
22,240610_151800,FalseCHOICE,9.0,23,2.0,1750.0,,,,,,,,,,,24.0,23.0,,,A,,,,,,False,cue1.png,Easy,cue2.png,Hard,Right,Hard,Mid,0.0165727999992668,,,,,,,,,,,,,7,20,Female,1.0,1.25,0.8,0.75,2.9444444444444446,2.75,2.6666666666666665,2.111111111111111,1.875,3.0,2.0,2.75,2.25,1.25,1.0,1.0,0.7074026624322869,1.0540434087485255,-0.34615523853069374,1.003189150700518,,,,,,,,,,,,,,,,,,,-1.623229184489561e-05,-0.2181100697838607,-0.000252464635896359,-0.7530851774884466,1.368,-0.5124809712282155,,,,,,,,
23,240610_151818,FalseCHOICE,9.0,24,2.0,1750.0,,,,,,,,,,,25.0,24.0,,,A,,,,,,False,cue2.png,Hard,cue1.png,Easy,Left,Hard,Mid,0.015200600028038,,,,,,,,,,,,,7,20,Female,1.0,1.25,0.8,0.75,2.9444444444444446,2.75,2.6666666666666665,2.111111111111111,1.875,3.0,2.0,2.75,2.25,1.25,1.0,1.0,0.6373647124855779,0.5001562377226538,-0.45041324017939305,0.5580184709319509,,,,,,,,,,,,,,,,,,,-8.730146819295199e-06,-0.20074206771703532,-6.412365300617314e-05,-0.24140040086532247,2.008,0.7839135804953351,,,,,,,,
24,240610_151843,FalseCHOICE,9.0,25,2.0,1750.0,,,,,,,,,,,26.0,25.0,,,A,,,,,,False,cue2.png,Hard,cue1.png,Easy,Left,Hard,Mid,0.0165083999745547,,,,,,,,,,,,,7,20,Female,1.0,1.25,0.8,0.75,2.9444444444444446,2.75,2.6666666666666665,2.111111111111111,1.875,3.0,2.0,2.75,2.25,1.25,0.5,0.5,0.6227170750498772,0.38431706099566326,-0.4736629964906361,0.45874446166785027,,,,,,,,,,,,,,,,,,,-1.788132710707057e-05,-0.22192770430625255,8.528692545293473e-05,0.16451825417618804,1.78,0.32207302144382016,,,,,,,,
25,240610_151902,FalseCHOICE,9.0,26,2.0,1750.0,,,,,,,,,,,27.0,26.0,,,A,,,,,,False,cue1.png,Easy,cue2.png,Hard,Right,Hard,Mid,0.0164374001324176,,,,,,,,,,,,,7,20,Female,1.0,1.25,0.8,0.75,2.9444444444444446,2.75,2.6666666666666665,2.111111111111111,1.875,3.0,2.0,2.75,2.25,1.25,1.0,1.0,0.5909282250213437,0.13291855167511063,-0.5260607156156752,0.2350117229586086,,,,,,,,,,,,,,,,,,,1.5906743820654802e-05,-0.14370590458040533,4.7190665445100404e-05,0.061018336138429254,,,,,,,,,,
26,240610_151920,FalseCHOICE,9.0,27,2.0,1750.0,,,,,,,,,,,28.0,27.0,,,A,,,,,,False,cue1.png,Easy,cue2.png,Hard,Right,Hard,Mid,0.0165689000859856,,,,,,,,,,,,,7,20,Female,1.0,1.25,0.8,0.75,2.9444444444444446,2.75,2.6666666666666665,2.111111111111111,1.875,3.0,2.0,2.75,2.25,1.25,0.75,0.8333333333333334,0.5330379124497995,-0.3249004091090602,-0.629162727046121,-0.20522300040250915,,,,,,,,,,,,,,,,,,,-8.28140779513902e-05,-0.3722516645896708,-8.411733014939988e-05,-0.2957192223236973,2.864,2.517841293425584,,,,,,,,
27,240610_151940,FalseCHOICE,9.0,28,2.0,1750.0,,,,,,,,,,,29.0,28.0,,,A,,,,,,False,cue2.png,Hard,cue1.png,Easy,Left,Hard,Mid,0.0172021999023854,,,,,,,,,,,,,7,20,Female,1.0,1.25,0.8,0.75,2.9444444444444446,2.75,2.6666666666666665,2.111111111111111,1.875,3.0,2.0,2.75,2.25,1.25,1.0,1.0,0.7907102375174873,1.7128719027874955,-0.2348237025785665,1.4785630764974687,,,,,,,,,,,,,,,,,,,5.202209218489176e-05,-0.06009629121066305,2.607953556018174e-05,0.0036636191052027258,2.0389999999999997,0.8467076915944439,,,,,,,,
28,240610_151957,FalseCHOICE,9.0,29,2.0,1750.0,,,,,,,,,,,30.0,29.0,,,A,,,,,,False,cue1.png,Easy,cue2.png,Hard,Right,Hard,Mid,0.0168886999599635,,,,,,,,,,,,,7,20,Female,1.0,1.25,0.8,0.75,2.9444444444444446,2.75,2.6666666666666665,2.111111111111111,1.875,3.0,2.0,2.75,2.25,1.25,0.1666666666666666,0.6666666666666667,0.4212975249392912,-1.2085865703205554,-0.8644159848321511,-1.2097296188897966,,,,,,,,,,,,,,,,,,,4.914049412750457e-05,-0.06676739672057756,,,1.6380000000000001,0.03443548028015752,,,,,,,,
29,240610_152015,FalseCHOICE,9.0,30,2.0,1750.0,,,,,,,,,,,31.0,30.0,,,A,,,,,,False,cue1.png,Easy,cue2.png,Hard,Right,Hard,Mid,0.0177270001731812,,,,,,,,,,,,,7,20,Female,1.0,1.25,0.8,0.75,2.9444444444444446,2.75,2.6666666666666665,2.111111111111111,1.875,3.0,2.0,2.75,2.25,1.25,0.75,0.8333333333333334,0.521129637490958,-0.4190756488722121,-0.6517564438215722,-0.30169578998576857,,,,,,,,,,,,,,,,,,,6.270708504464272e-05,-0.03535976886420028,-0.00012394602974076692,-0.40392583216963174,1.211,-0.8305027596978991,,,,,,,,
30,240610_152034,FalseCHOICE,9.0,31,2.0,1750.0,,,,,,,,,,,32.0,31.0,,,A,,,,,,False,cue2.png,Hard,cue1.png,Easy,Left,Hard,Mid,0.0170951997861266,,,,,,,,,,,,,7,20,Female,1.0,1.25,0.8,0.75,2.9444444444444446,2.75,2.6666666666666665,2.111111111111111,1.875,3.0,2.0,2.75,2.25,1.25,0.1666666666666666,0.6666666666666667,0.4800078250118531,-0.7442828315330186,-0.7339528731050511,-0.6526658807225093,,,,,,,,,,,,,,,,,,,,,,,2.3080000000000003,1.39159852661575,,,,,,,,
31,240610_152052,FalseCHOICE,9.0,32,2.0,1750.0,,,,,,,,,,,33.0,32.0,,,A,,,,,,False,cue1.png,Easy,cue2.png,Hard,Right,Hard,Mid,0.0163549999706447,,,,,,,,,,,,,7,20,Female,1.0,1.25,0.8,0.75,2.9444444444444446,2.75,2.6666666666666665,2.111111111111111,1.875,3.0,2.0,2.75,2.25,1.25,1.0,1.0,0.5965703375404701,0.17753855760341683,-0.516558127312067,0.27558677358093087,,,,,,,,,,,,,,,,,,,-0.00020031032145511815,-0.6442638681732246,-0.00012001772157837261,-0.39325340467277886,1.161,-0.9317835840513016,,,,,,,,
32,240610_152112,FalseCHOICE,9.0,33,2.0,1750.0,,,,,,,,,,,34.0,33.0,,,A,,,,,,False,cue2.png,Hard,cue1.png,Easy,Left,Hard,Mid,0.0164540000259876,,,,,,,,,,,,,7,20,Female,1.0,1.25,0.8,0.75,2.9444444444444446,2.75,2.6666666666666665,2.111111111111111,1.875,3.0,2.0,2.75,2.25,1.25,1.0,1.0,0.6578642374370247,0.662274402108827,-0.41875669502852353,0.6931885825884382,,,,,,,,,,,,,,,,,,,-0.0001983941858621288,-0.6398278772898448,-0.0012796308567060433,-3.543690335136317,2.0540000000000003,0.8770919389004658,,,,,,,,
33,240610_152129,FalseCHOICE,9.0,34,2.0,1750.0,,,,,,,,,,,35.0,34.0,,,A,,,,,,False,cue2.png,Hard,cue1.png,Easy,Left,Hard,Mid,0.0145804998464882,,,,,,,,,,,,,7,20,Female,1.0,1.25,0.8,0.75,2.9444444444444446,2.75,2.6666666666666665,2.111111111111111,1.875,3.0,2.0,2.75,2.25,1.25,0.75,0.8333333333333334,0.521088162495289,-0.4194036491640093,-0.6518360337032484,-0.3020356303929144,,,,,,,,,,,,,,,,,,,-0.00011360353811584994,-0.44353146602619087,0.00029178107267610305,0.7255215471104483,2.17,1.1120634514003587,,,,,,,,
34,240610_152147,FalseCHOICE,9.0,35,2.0,1750.0,,,,,,,,,,,36.0,35.0,,,A,,,,,,False,cue2.png,Hard,cue1.png,Easy,Left,Hard,Mid,0.0168215003795921,,,,,,,,,,,,,7,20,Female,1.0,1.25,0.8,0.75,2.9444444444444446,2.75,2.6666666666666665,2.111111111111111,1.875,3.0,2.0,2.75,2.25,1.25,1.0,1.0,0.4492550749564543,-0.9874874619142787,-0.8001644568737499,-0.935382365680504,,,,,,,,,,,,,,,,,,,0.00011566001944053389,0.08723005989730137,0.000914634324020492,2.4176892415360647,0.741,-1.7825425086198818,,,,,,,,
35,240610_152206,FalseCHOICE,9.0,36,2.0,1750.0,,,,,,,,,,,37.0,36.0,,,A,,,,,,False,cue1.png,Easy,cue2.png,Hard,Right,Hard,Mid,0.0166503000073134,,,,,,,,,,,,,7,20,Female,1.0,1.25,0.8,0.75,2.9444444444444446,2.75,2.6666666666666665,2.111111111111111,1.875,3.0,2.0,2.75,2.25,1.25,0.75,0.8333333333333334,0.6327512250863947,0.46367099670629863,-0.4576779434285611,0.526998953651673,,,,,,,,,,,,,,,,,,,4.381501507604675e-05,-0.07909626144619013,0.00015526131068778915,0.3546246618671435,1.2409999999999999,-0.7697342650858581,,,,,,,,
36,240610_152223,FalseCHOICE,9.0,37,2.0,1750.0,,,,,,,,,,,38.0,37.0,,,A,,,,,,False,cue2.png,Hard,cue1.png,Easy,Left,Hard,Mid,0.0160327996127307,,,,,,,,,,,,,7,20,Female,1.0,1.25,0.8,0.75,2.9444444444444446,2.75,2.6666666666666665,2.111111111111111,1.875,3.0,2.0,2.75,2.25,1.25,0.1666666666666666,0.6666666666666667,0.3714909499976784,-1.602476210349836,-0.9902307758271647,-1.746945517396222,,,,,,,,,,,,,,,,,,,-2.8511881475468733e-05,-0.24653819765339527,-0.00021928684323360616,-0.6629477513851361,1.1989999999999998,-0.8548101575427162,,,,,,,,
37,240610_152240,FalseCHOICE,9.0,38,2.0,1750.0,,,,,,,,,,,39.0,38.0,,,A,,,,,,False,cue1.png,Easy,cue2.png,Hard,Right,Hard,Mid,0.0166778001002967,,,,,,,,,,,,,7,20,Female,1.0,1.25,0.8,0.75,2.9444444444444446,2.75,2.6666666666666665,2.111111111111111,1.875,3.0,2.0,2.75,2.25,1.25,0.75,0.8333333333333334,0.4214493124745786,-1.207386175840401,-0.8640557638732815,-1.208191513357454,,,,,,,,,,,,,,,,,,,,,,,0.39400000000000013,-2.485431429632494,,,,,,,,
38,240610_152301,FalseCHOICE,9.0,39,2.0,1750.0,,,,,,,,,,,40.0,39.0,,,A,,,,,,False,cue1.png,Easy,cue2.png,Hard,Right,Hard,Mid,0.0173982996493577,,,,,,,,,,,,,7,20,Female,1.0,1.25,0.8,0.75,2.9444444444444446,2.75,2.6666666666666665,2.111111111111111,1.875,3.0,2.0,2.75,2.25,1.25,0.75,0.8333333333333334,0.6796593375038356,0.834638475120917,-0.3861635806005806,0.8323577463572995,,,,,,,,,,,,,,,,,,,-0.00045163393267720967,-1.2260959954184536,0.0008819844616093321,2.328986096324324,1.536,-0.17217740140078355,,,,,,,,
39,240610_152320,FalseCHOICE,9.0,40,2.0,1750.0,,,,,,,,,,,41.0,40.0,,,A,,,,,,False,cue2.png,Hard,cue1.png,Easy,Left,Hard,Mid,0.0176434000022709,,,,,,,,,,,,,7,20,Female,1.0,1.25,0.8,0.75,2.9444444444444446,2.75,2.6666666666666665,2.111111111111111,1.875,3.0,2.0,2.75,2.25,1.25,0.75,0.8333333333333334,0.5837321248836815,0.07600901119453776,-0.5383130916521395,0.1826953685044761,,,,,,,,,,,,,,,,,,,,,0.0004912639305108034,1.267476569246047,2.44,1.6589799029087318,,,,,,,,
40,240610_152338,FalseCHOICE,9.0,41,2.0,1750.0,,,,,,,,,,,42.0,41.0,,,A,,,,,,False,cue2.png,Hard,cue1.png,Easy,Left,Hard,Mid,0.0165892001241445,,,,,,,,,,,,,7,20,Female,1.0,1.25,0.8,0.75,2.9444444444444446,2.75,2.6666666666666665,2.111111111111111,1.875,3.0,2.0,2.75,2.25,1.25,0.1666666666666666,0.6666666666666667,0.490881675039418,-0.6582882238309046,-0.7115521679295779,-0.557017230330551,,,,,,,,,,,,,,,,,,,,,0.0003186617080060761,0.7985508563624052,1.9429999999999998,0.6522485088359116,,,,,,,,
41,240610_152356,FalseCHOICE,9.0,42,2.0,1750.0,,,,,,,,,,,43.0,42.0,,,A,,,,,,False,cue1.png,Easy,cue2.png,Hard,Right,Hard,Mid,0.0169424000196158,,,,,,,,,,,,,7,20,Female,1.0,1.25,0.8,0.75,2.9444444444444446,2.75,2.6666666666666665,2.111111111111111,1.875,3.0,2.0,2.75,2.25,1.25,0.75,0.8333333333333334,0.5300298249931075,-0.34868952704945244,-0.6348220004473667,-0.22938750142102796,,,,,,,,,,,,,,,,,,,-5.7347650690144254e-05,-0.31329506487070186,0.0003138060831995911,0.7853590950349164,,,,,,,,,,
42,240610_152415,FalseCHOICE,9.0,43,2.0,1750.0,,,,,,,,,,,44.0,43.0,,,A,,,,,,False,cue2.png,Hard,cue1.png,Easy,Left,Hard,Mid,0.0169040998443961,,,,,,,,,,,,,7,20,Female,1.0,1.25,0.8,0.75,2.9444444444444446,2.75,2.6666666666666665,2.111111111111111,1.875,3.0,2.0,2.75,2.25,1.25,1.0,1.0,0.6135324625647627,0.3116815965050581,-0.4885221025150576,0.3952976448764268,,,,,,,,,,,,,,,,,,,2.2381893587596416e-05,-0.12871546995784278,-0.0005396104789613036,-1.5332029952478075,,,,,,,,,,
43,240610_152433,FalseCHOICE,9.0,44,2.0,1750.0,,,,,,,,,,,45.0,44.0,,,A,,,,,,False,cue1.png,Easy,cue2.png,Hard,Right,Hard,Mid,0.0143838999792933,,,,,,,,,,,,,7,20,Female,1.0,1.25,0.8,0.75,2.9444444444444446,2.75,2.6666666666666665,2.111111111111111,1.875,3.0,2.0,2.75,2.25,1.25,1.0,1.0,0.639550662599504,0.5174435758804306,-0.4469894388970808,0.5726377415887508,,,,,,,,,,,,,,,,,,,,,,,1.2689999999999997,-0.713017003447953,,,,,,,,
44,240610_152450,FalseCHOICE,9.0,45,2.0,1750.0,,,,,,,,,,,46.0,45.0,,,A,,,,,,False,cue2.png,Hard,cue1.png,Easy,Left,Hard,Mid,0.015816000290215,,,,,,,,,,,,,7,20,Female,1.0,1.25,0.8,0.75,2.9444444444444446,2.75,2.6666666666666665,2.111111111111111,1.875,3.0,2.0,2.75,2.25,1.25,0.1666666666666666,0.6666666666666667,0.4486556124757044,-0.9922282428459214,-0.8014996956189919,-0.941083694408016,,,,,,,,,,,,,,,,,,,,,-0.00022530840883971254,-0.6793071406417935,1.576,-0.09115274191806157,,,,,,,,
45,240610_152511,FalseCHOICE,9.0,46,2.0,1750.0,,,,,,,,,,,47.0,46.0,,,A,,,,,,False,cue2.png,Hard,cue1.png,Easy,Left,Hard,Mid,0.0167770003899931,,,,,,,,,,,,,7,20,Female,1.0,1.25,0.8,0.75,2.9444444444444446,2.75,2.6666666666666665,2.111111111111111,1.875,3.0,2.0,2.75,2.25,1.25,1.0,1.0,0.7258501626201905,1.1999333683968565,-0.3204116730336826,1.1131114623767657,,,,,,,,,,,,,,,,,,,,,0.00010487032320603482,0.2177224285998682,,,,,,,,,,
46,240610_152530,FalseCHOICE,9.0,47,2.0,1750.0,,,,,,,,,,,48.0,47.0,,,A,,,,,,False,cue1.png,Easy,cue2.png,Hard,Right,Hard,Mid,0.0168503997847437,,,,,,,,,,,,,7,20,Female,1.0,1.25,0.8,0.75,2.9444444444444446,2.75,2.6666666666666665,2.111111111111111,1.875,3.0,2.0,2.75,2.25,1.25,1.0,1.0,0.5144597624894232,-0.4718235976415192,-0.664637933784003,-0.35669839460435493,,,,,,,,,,,,,,,,,,,-0.0005912186841447692,-1.5492446740581147,0.00010485158165241936,0.21767151154757222,,,,,,,,,,
47,240610_152545,FalseCHOICE,9.0,48,2.0,1750.0,,,,,,,,,,,49.0,48.0,,,A,,,,,,False,cue1.png,Easy,cue2.png,Hard,Right,Hard,Mid,0.0163926999084651,,,,,,,,,,,,,7,20,Female,1.0,1.25,0.8,0.75,2.9444444444444446,2.75,2.6666666666666665,2.111111111111111,1.875,3.0,2.0,2.75,2.25,1.25,0.1666666666666666,0.6666666666666667,0.3035974375670776,-2.139404340882052,-1.1920526736574215,-2.6087037520496543,,,,,,,,,,,,,,,,,,,-5.763165588265704e-05,-0.31395255719505966,-0.00031090098059071564,-0.9118450369877349,1.3119999999999998,-0.6259154945040267,,,,,,,,
48,240610_152603,FalseCHOICE,9.0,49,2.0,1750.0,,,,,,,,,,,50.0,49.0,,,A,,,,,,False,cue2.png,Hard,cue1.png,Easy,Left,Hard,Mid,0.0171823999844491,,,,,,,,,,,,,7,20,Female,1.0,1.25,0.8,0.75,2.9444444444444446,2.75,2.6666666666666665,2.111111111111111,1.875,3.0,2.0,2.75,2.25,1.25,0.75,0.8333333333333334,0.4583578500896692,-0.9154991988246621,-0.7801050678754403,-0.8497308886244884,,,,,,,,,,,,,,,,,,,0.00011970975130288792,0.09660547867625577,-0.0002746391449401789,-0.8133288829884336,2.14,1.0512949567883176,,,,,,,,
49,240610_152622,FalseCHOICE,9.0,50,2.0,1750.0,,,,,,,,,,,51.0,50.0,,,A,,,,,,False,cue1.png,Easy,cue2.png,Hard,Right,Hard,Mid,0.0153282997198402,,,,,,,,,,,,,7,20,Female,1.0,1.25,0.8,0.75,2.9444444444444446,2.75,2.6666666666666665,2.111111111111111,1.875,3.0,2.0,2.75,2.25,1.25,0.75,0.8333333333333334,0.7502930876216851,1.3932374641189151,-0.2872913652921844,1.254531686036029,,,,,,,,,,,,,,,,,,,-3.1489857696635065e-05,-0.25343242550258754,,,2.012,0.7920160464436072,,,,,,,,
0,240610_144858,OFFLINERATING,9.0,1,1.0,,,,,,,,,,,,,,,,,T0,cue1.png,Easy,36.0,1.3854791997000575,,,,,,,,,,,,,,,,,,,,,,7,20,Female,1.0,1.25,0.8,0.75,2.9444444444444446,2.75,2.6666666666666665,2.111111111111111,1.875,3.0,2.0,2.75,2.25,1.25,,,,,,,,,,,,,,,,,,,,,,,,,,,,,,,-1.8118915782854474,,,0.00012455867517123954,0.945420507258537,1.5979999999999999,-0.11483862157793868,
1,240610_144905,OFFLINERATING,9.0,2,3.0,,,,,,,,,,,,,,,,,T0,cue2.png,Hard,50.0,1.2354760998860002,,,,,,,,,,,,,,,,,,,,,,7,20,Female,1.0,1.25,0.8,0.75,2.9444444444444446,2.75,2.6666666666666665,2.111111111111111,1.875,3.0,2.0,2.75,2.25,1.25,,,,,,,,,,,,,,,,,,,,,,,,,,,,,,,-0.8810115013681534,,,-0.00047522435163624465,-0.6682092318668944,,,
2,240610_150601,OFFLINERATING,9.0,3,1.0,,,,,,,,,,,,,,,,,T1,cue1.png,Easy,59.0,1.2832892001606524,,,,,,,,,,,,,,,,,,,,,,7,20,Female,1.0,1.25,0.8,0.75,2.9444444444444446,2.75,2.6666666666666665,2.111111111111111,1.875,3.0,2.0,2.75,2.25,1.25,,,,,,,,,,,,,,,,,,,,,,,,,,,,,,,-0.2825885947784643,,,0.00014715788711909972,1.0062204279798197,,,
3,240610_150608,OFFLINERATING,9.0,4,3.0,,,,,,,,,,,,,,,,,T1,cue2.png,Hard,56.0,1.134937800001353,,,,,,,,,,,,,,,,,,,,,,7,20,Female,1.0,1.25,0.8,0.75,2.9444444444444446,2.75,2.6666666666666665,2.111111111111111,1.875,3.0,2.0,2.75,2.25,1.25,,,,,,,,,,,,,,,,,,,,,,,,,,,,,,,-0.4820628969750273,,,-0.0007039013443638233,-1.2834317033714624,1.467,-0.7689194662174976,
4,240610_150939,OFFLINERATING,9.0,5,1.0,,,,,,,,,,,,,,,,,T2,cue1.png,Easy,80.0,2.277085099834949,,,,,,,,,,,,,,,,,,,,,,7,20,Female,1.0,1.25,0.8,0.75,2.9444444444444446,2.75,2.6666666666666665,2.111111111111111,1.875,3.0,2.0,2.75,2.25,1.25,,,,,,,,,,,,,,,,,,,,,,,,,,,,,,,1.113731520597477,3.8913950514205334e-05,1.065605200667823,,,1.4639999999999997,-0.7838984168580999,
5,240610_150946,OFFLINERATING,9.0,6,3.0,,,,,,,,,,,,,,,,,T2,cue2.png,Hard,66.0,1.1352021000348032,,,,,,,,,,,,,,,,,,,,,,7,20,Female,1.0,1.25,0.8,0.75,2.9444444444444446,2.75,2.6666666666666665,2.111111111111111,1.875,3.0,2.0,2.75,2.25,1.25,,,,,,,,,,,,,,,,,,,,,,,,,,,,,,,0.18285144368018277,1.675200615737938e-05,0.27240803498598215,,,1.9549999999999998,1.667656504653534,
6,240610_152644,OFFLINERATING,9.0,7,1.0,,,,,,,,,,,,,,,,,T3,cue1.png,Easy,81.0,1.3353312001563609,,,,,,,,,,,,,,,,,,,,,,7,20,Female,1.0,1.25,0.8,0.75,2.9444444444444446,2.75,2.6666666666666665,2.111111111111111,1.875,3.0,2.0,2.75,2.25,1.25,,,,,,,,,,,,,,,,,,,,,,,,,,,,,,,1.1802229546629979,-2.8243195710605552e-05,-1.338013235653805,,,,,
7,240610_152652,OFFLINERATING,9.0,8,3.0,,,,,,,,,,,,,,,,,T3,cue2.png,Hard,78.0,1.5355529999360442,,,,,,,,,,,,,,,,,,,,,,7,20,Female,1.0,1.25,0.8,0.75,2.9444444444444446,2.75,2.6666666666666665,2.111111111111111,1.875,3.0,2.0,2.75,2.25,1.25,,,,,,,,,,,,,,,,,,,,,,,,,,,,,,,0.980748652466435,,,,,,,
0,240610_150959,LEARNINGCHECK,9.0,1,,,,,,,,,,,,1.0,1.0,1.0,,,A,,,,,,,,,,,,,,,cue1.png,Easy,Left,Left,Easy,0.0159650999121367,1.0,,,,,,7,20,Female,1.0,1.25,0.8,0.75,2.9444444444444446,2.75,2.6666666666666665,2.111111111111111,1.875,3.0,2.0,2.75,2.25,1.25,,,,,,,,,,,,,,,,,,,,,,,,,,,,,,,,,,,,,,
1,240610_152706,LEARNINGCHECK,9.0,1,,,,,,,,,,,,1.0,1.0,1.0,,,A,,,,,,,,,,,,,,,cue1.png,Easy,Middle,Middle,Mid,0.0142455003224313,1.0,,,,,,7,20,Female,1.0,1.25,0.8,0.75,2.9444444444444446,2.75,2.6666666666666665,2.111111111111111,1.875,3.0,2.0,2.75,2.25,1.25,,,,,,,,,,,,,,,,,,,,,,,,,,,,,,,,,,,,,,
2,240610_151004,LEARNINGCHECK,9.0,2,,,,,,,,,,,,2.0,2.0,2.0,,,A,,,,,,,,,,,,,,,cue2.png,Hard,Right,Right,Hard,0.0151575999334454,1.0,,,,,,7,20,Female,1.0,1.25,0.8,0.75,2.9444444444444446,2.75,2.6666666666666665,2.111111111111111,1.875,3.0,2.0,2.75,2.25,1.25,,,,,,,,,,,,,,,,,,,,,,,,,,,,,,,,,,,,,,
3,240610_152711,LEARNINGCHECK,9.0,2,,,,,,,,,,,,2.0,2.0,2.0,,,A,,,,,,,,,,,,,,,cue2.png,Hard,Middle,Middle,Mid,0.0137447998858988,1.0,,,,,,7,20,Female,1.0,1.25,0.8,0.75,2.9444444444444446,2.75,2.6666666666666665,2.111111111111111,1.875,3.0,2.0,2.75,2.25,1.25,,,,,,,,,,,,,,,,,,,,,,,,,,,,,,,,,,,,,,
0,240610_152727,DEMANDRATING,9.0,-1,,,,,,,,,,,,,,,,,,,,,,,,,,,,,,,,,,,,,,,1.0,MentalDemand,1.0,51.0,5.315294600091875,7,20,Female,1.0,1.25,0.8,0.75,2.9444444444444446,2.75,2.6666666666666665,2.111111111111111,1.875,3.0,2.0,2.75,2.25,1.25,,,,,,,,,,,,,,,,,,,,,,,,,,,,,,,,,,,,,,-0.0270717551140132
1,240610_152732,DEMANDRATING,9.0,-1,,,,,,,,,,,,,,,,,,,,,,,,,,,,,,,,,,,,,,,2.0,Effort,1.0,51.0,2.8728665998205543,7,20,Female,1.0,1.25,0.8,0.75,2.9444444444444446,2.75,2.6666666666666665,2.111111111111111,1.875,3.0,2.0,2.75,2.25,1.25,,,,,,,,,,,,,,,,,,,,,,,,,,,,,,,,,,,,,,-0.0270717551140132
2,240610_152737,DEMANDRATING,9.0,-1,,,,,,,,,,,,,,,,,,,,,,,,,,,,,,,,,,,,,,,3.0,Frustration,1.0,0.0,4.146030299831182,7,20,Female,1.0,1.25,0.8,0.75,2.9444444444444446,2.75,2.6666666666666665,2.111111111111111,1.875,3.0,2.0,2.75,2.25,1.25,,,,,,,,,,,,,,,,,,,,,,,,,,,,,,,,,,,,,,-2.512258874580418
3,240610_152742,DEMANDRATING,9.0,-1,,,,,,,,,,,,,,,,,,,,,,,,,,,,,,,,,,,,,,,4.0,MentalDemand,2.0,59.0,2.748912899754941,7,20,Female,1.0,1.25,0.8,0.75,2.9444444444444446,2.75,2.6666666666666665,2.111111111111111,1.875,3.0,2.0,2.75,2.25,1.25,,,,,,,,,,,,,,,,,,,,,,,,,,,,,,,,,,,,,,0.3627615185277758
4,240610_152746,DEMANDRATING,9.0,-1,,,,,,,,,,,,,,,,,,,,,,,,,,,,,,,,,,,,,,,5.0,Effort,2.0,54.0,2.451189300045371,7,20,Female,1.0,1.25,0.8,0.75,2.9444444444444446,2.75,2.6666666666666665,2.111111111111111,1.875,3.0,2.0,2.75,2.25,1.25,,,,,,,,,,,,,,,,,,,,,,,,,,,,,,,,,,,,,,0.11911572250165767
5,240610_152751,DEMANDRATING,9.0,-1,,,,,,,,,,,,,,,,,,,,,,,,,,,,,,,,,,,,,,,6.0,Frustration,2.0,45.0,3.619960099924356,7,20,Female,1.0,1.25,0.8,0.75,2.9444444444444446,2.75,2.6666666666666665,2.111111111111111,1.875,3.0,2.0,2.75,2.25,1.25,,,,,,,,,,,,,,,,,,,,,,,,,,,,,,,,,,,,,,-0.31944671034535493
6,240610_152755,DEMANDRATING,9.0,-1,,,,,,,,,,,,,,,,,,,,,,,,,,,,,,,,,,,,,,,7.0,MentalDemand,3.0,74.0,2.387065399903804,7,20,Female,1.0,1.25,0.8,0.75,2.9444444444444446,2.75,2.6666666666666665,2.111111111111111,1.875,3.0,2.0,2.75,2.25,1.25,,,,,,,,,,,,,,,,,,,,,,,,,,,,,,,,,,,,,,1.09369890660613
7,240610_152759,DEMANDRATING,9.0,-1,,,,,,,,,,,,,,,,,,,,,,,,,,,,,,,,,,,,,,,8.0,Effort,3.0,74.0,2.3967605996876955,7,20,Female,1.0,1.25,0.8,0.75,2.9444444444444446,2.75,2.6666666666666665,2.111111111111111,1.875,3.0,2.0,2.75,2.25,1.25,,,,,,,,,,,,,,,,,,,,,,,,,,,,,,,,,,,,,,1.09369890660613
8,240610_152802,DEMANDRATING,9.0,-1,,,,,,,,,,,,,,,,,,,,,,,,,,,,,,,,,,,,,,,9.0,Frustration,3.0,56.0,1.7595281000249088,7,20,Female,1.0,1.25,0.8,0.75,2.9444444444444446,2.75,2.6666666666666665,2.111111111111111,1.875,3.0,2.0,2.75,2.25,1.25,,,,,,,,,,,,,,,,,,,,,,,,,,,,,,,,,,,,,,0.21657404091210491
