,END,Phase,Block,TrialN,NbackLevel,ISI,Letter_Resp,Letter_RT,Letter_Accuracy,Trial_A_measure,Trial_ACC,Trial_RT,TrialCountCali,CaliEnd_A_measure,ISI_calibrated,TrialIndex,TrialNumber_total,TrialNumber_valid,CueLearning,TrialDemandLearning,CueMapping,OfflineRatingTimePoint,CueFigure,TrialDemand,OfflineRating,OfflineRatingRT,PhaseType,CueLeft,CueDemandLeft,CueRight,CueDemandRight,Choice,ChoiceDemand,TaskDemand,ChoiceRT,CueCheck,CueDemandCheck,CorrectAnswer,Answer,AnswerDemand,AnswerRT,AnswerACC,DemandRatingQuesIndex,QuesTLX,DemandLevel,DemandRating,DemandRatingRT,PID,Age,Gender,BAI_bis,BAI_bas_d,BAI_bas_rr,BAI_bas_fs,NFC,BFI_ext,BFI_agr,BFI_con,BFI_neu,BFI_open,UPPS_lps,UPPS_lpm,UPPS_pu,UPPS_ss,Task_A_measure,Task_ACC,Task_RT,Task_RT_z,cue_i_on_zyg_values,cue_i_on_zyg_zvalues,cue_e_on_zyg_values,cue_e_on_zyg_zvalues,cue_i_on_cor_values,cue_i_on_cor_zvalues,cue_e_on_cor_values,cue_e_on_cor_zvalues,cue_i_on_scr_values,cue_i_on_scr_zvalues,cue_e_on_scr_values,cue_e_on_scr_zvalues,cue_e_true_zyg_values,cue_e_true_zyg_zvalues,cue_e_true_cor_values,cue_e_true_cor_zvalues,cue_e_true_scr_values,cue_e_true_scr_zvalues,cue_e_false_zyg_values,cue_e_false_zyg_zvalues,cue_e_false_cor_values,cue_e_false_cor_zvalues,cue_e_false_scr_values,cue_e_false_scr_zvalues,OfflineRating_z,cue_i_off_zyg_values,cue_i_off_zyg_zvalues,cue_i_off_cor_values,cue_i_off_cor_zvalues,cue_i_off_scr_values,cue_i_off_scr_zvalues,DemandRating_z
0,240612_092522,PRACTICE,0.0,1,1.0,2583.0,,,,,,,,,,49.0,1.0,1.0,cue2.png,Easy,B,,,,,,,,,,,,,,,,,,,,,,,,,,,8,24,Female,1.1428571428571428,0.5,0.4,1.0,2.888888888888889,3.5,3.4444444444444446,3.4444444444444446,0.375,3.111111111111111,2.5,2.25,3.0,2.25,,,,,,,,,,,,,,,,,,,,,,,,,,,,,,,,,,,,
0,240612_092737,LEARNING,1.0,1,1.0,2583.0,,,,,,,,,,1.0,1.0,1.0,cue2.png,Easy,B,,,,,,,,,,,,,,,,,,,,,,,,,,,8,24,Female,1.1428571428571428,0.5,0.4,1.0,2.888888888888889,3.5,3.4444444444444446,3.4444444444444446,0.375,3.111111111111111,2.5,2.25,3.0,2.25,1.0,1.0,0.8337642166673808,2.625395510752314,0.009854772219391907,-0.9783118144367322,0.03672599951909128,0.5137594740235969,,,0.02664493330500972,-0.5558567636279046,6.698766150854959e+45,-0.1684295420355669,,,,,,,,,,,,,,,,,,,,,,
1,240612_092756,LEARNING,1.0,2,3.0,2583.0,,,,,,,,,,2.0,2.0,2.0,cue1.png,Hard,B,,,,,,,,,,,,,,,,,,,,,,,,,,,8,24,Female,1.1428571428571428,0.5,0.4,1.0,2.888888888888889,3.5,3.4444444444444446,3.4444444444444446,0.375,3.111111111111111,2.5,2.25,3.0,2.25,1.0,1.0,0.5760878166668894,-0.22135513659950934,0.05670979763089406,1.3523781761789098,,,0.02267960018933607,-0.3939732520997681,0.02704368950013924,-0.5408814637923977,1.069507245922762e+45,-0.17109246785270885,8.67585248459912e+44,-0.1694015650686289,,,,,,,,,,,,,,,,,,,,
2,240612_092814,LEARNING,1.0,3,1.0,2583.0,,,,,,,,,,3.0,3.0,3.0,cue2.png,Easy,B,,,,,,,,,,,,,,,,,,,,,,,,,,,8,24,Female,1.1428571428571428,0.5,0.4,1.0,2.888888888888889,3.5,3.4444444444444446,3.4444444444444446,0.375,3.111111111111111,2.5,2.25,3.0,2.25,1.0,1.0,0.640335133333186,0.4884347017793599,,,0.039822189459408505,0.7626653080501989,,,0.046099728900955275,0.1747686181123263,,,-1.2417689317660986e+45,-0.17434205476188827,,,,,,,,,,,,,,,,,,,,
3,240612_092832,LEARNING,1.0,4,3.0,2583.0,,,,,,,,,,4.0,4.0,4.0,cue1.png,Hard,B,,,,,,,,,,,,,,,,,,,,,,,,,,,8,24,Female,1.1428571428571428,0.5,0.4,1.0,2.888888888888889,3.5,3.4444444444444446,3.4444444444444446,0.375,3.111111111111111,2.5,2.25,3.0,2.25,1.0,1.0,0.539075683333067,-0.6302568230858537,0.05545647872169754,1.2900348563096058,0.02207147907339873,-0.6643322141824805,0.053714187686697557,0.6046210031416122,0.019672469401472607,-0.8177078365969491,-1.062008779776473e+45,-0.1721007833610812,-1.517371368277069e+45,-0.17498756560581574,,,,,,,,,,,,,,,,,,,,
4,240612_092850,LEARNING,1.0,5,3.0,2583.0,,,,,,,,,,5.0,5.0,5.0,cue1.png,Hard,B,,,,,,,,,,,,,,,,,,,,,,,,,,,8,24,Female,1.1428571428571428,0.5,0.4,1.0,2.888888888888889,3.5,3.4444444444444446,3.4444444444444446,0.375,3.111111111111111,2.5,2.25,3.0,2.25,1.0,1.0,0.551127800001268,-0.49710776121175265,,,0.0398140525385286,0.7620111727687523,0.10634503153040378,2.2981140555399886,0.023095863268768824,-0.6891421860967852,1.2689014707005697e+49,5.830951035479363,,,,,,,,,,,,,,,,,,,,,,
5,240612_092909,LEARNING,1.0,6,1.0,2583.0,,,,,,,,,,6.0,6.0,6.0,cue2.png,Easy,B,,,,,,,,,,,,,,,,,,,,,,,,,,,8,24,Female,1.1428571428571428,0.5,0.4,1.0,2.888888888888889,3.5,3.4444444444444446,3.4444444444444446,0.375,3.111111111111111,2.5,2.25,3.0,2.25,1.0,1.0,0.6919481833332005,1.0586440166373097,0.06809200313235653,1.9185584780868576,0.021757889295184088,-0.6895420129329844,0.021366638358359263,-0.43622018519904354,0.03160645193742282,-0.3695267954233786,-1.888751202437417e+44,-0.17168774672463372,-2.348434554684749e+44,-0.17198365284713932,,,,,,,,,,,,,,,,,,,,
6,240612_092928,LEARNING,1.0,7,3.0,2583.0,,,,,,,,,,7.0,7.0,7.0,cue1.png,Hard,B,,,,,,,,,,,,,,,,,,,,,,,,,,,8,24,Female,1.1428571428571428,0.5,0.4,1.0,2.888888888888889,3.5,3.4444444444444446,3.4444444444444446,0.375,3.111111111111111,2.5,2.25,3.0,2.25,1.0,1.0,0.6228657499996189,0.29543690177293835,0.03589482329886519,0.316987587773168,0.01426551621433781,-1.2918614463251854,0.03026553819996579,-0.14988190986181824,0.025018922441875546,-0.6169216461517156,,,1.6314230599056312e+44,-0.17105149808101006,,,,,,,,,,,,,,,,,,,,
7,240612_092947,LEARNING,1.0,8,3.0,2583.0,,,,,,,,,,8.0,8.0,8.0,cue1.png,Hard,B,,,,,,,,,,,,,,,,,,,,,,,,,,,8,24,Female,1.1428571428571428,0.5,0.4,1.0,2.888888888888889,3.5,3.4444444444444446,3.4444444444444446,0.375,3.111111111111111,2.5,2.25,3.0,2.25,0.6875,0.75,0.7642744500008121,1.8576882692587027,0.018151513338828133,-0.5656104806529653,0.027535448718869395,-0.22507818005737443,0.027235251802080425,-0.24738688198112502,,,3.5853214719401535e+44,-0.17142879524104251,4.191299946539409e+44,-0.17045192853062419,,,,,,,,,,,,,,,,,,,,
8,240612_093005,LEARNING,1.0,9,1.0,2583.0,,,,,,,,,,9.0,9.0,9.0,cue2.png,Easy,B,,,,,,,,,,,,,,,,,,,,,,,,,,,8,24,Female,1.1428571428571428,0.5,0.4,1.0,2.888888888888889,3.5,3.4444444444444446,3.4444444444444446,0.375,3.111111111111111,2.5,2.25,3.0,2.25,1.0,1.0,0.634540533334075,0.4244172702311749,,,0.035252052664826,0.39526739887842766,0.04303684670128623,0.2610581518489508,0.045737642028264594,0.16117043568588701,,,2.562732163232221e+48,5.830949472090461,,,,,,,,,,,,,,,,,,,,
9,240612_093025,LEARNING,1.0,10,1.0,2583.0,,,,,,,,,,10.0,10.0,10.0,cue2.png,Easy,B,,,,,,,,,,,,,,,,,,,,,,,,,,,8,24,Female,1.1428571428571428,0.5,0.4,1.0,2.888888888888889,3.5,3.4444444444444446,3.4444444444444446,0.375,3.111111111111111,2.5,2.25,3.0,2.25,0.6875,0.75,0.7504396166659717,1.704844156441672,0.0986963325078177,3.44089687228142,0.050423434942154094,1.614910131354929,0.05232416777387027,0.5598945862128076,0.05102679777029349,0.3598048245205221,,,,,,,,,,,,,,,,,,,,,,,,
10,240612_093044,LEARNING,1.0,11,3.0,2583.0,,,,,,,,,,11.0,11.0,11.0,cue1.png,Hard,B,,,,,,,,,,,,,,,,,,,,,,,,,,,8,24,Female,1.1428571428571428,0.5,0.4,1.0,2.888888888888889,3.5,3.4444444444444446,3.4444444444444446,0.375,3.111111111111111,2.5,2.25,3.0,2.25,1.0,1.0,0.7344053499994819,1.5277012011203681,0.011487783745401388,-0.897081603060175,,,0.03594828647676027,0.03297084381735615,,,,,3.986286224709403e+44,-0.17049994645901065,,,,,,,,,,,,,,,,,,,,
11,240612_093102,LEARNING,1.0,12,1.0,2583.0,,,,,,,,,,12.0,12.0,12.0,cue2.png,Easy,B,,,,,,,,,,,,,,,,,,,,,,,,,,,8,24,Female,1.1428571428571428,0.5,0.4,1.0,2.888888888888889,3.5,3.4444444444444446,3.4444444444444446,0.375,3.111111111111111,2.5,2.25,3.0,2.25,0.6875,0.75,0.5458578333333813,-0.5553291622531379,0.044332267445101624,0.7366878535462464,0.0312444757498759,0.07309424617475062,0.03665944094864611,0.05585353140825093,0.021785844709364337,-0.7383399689946514,3.0924963141862466e+44,-0.17145210837795952,2.1035804259157194e+43,-0.1713843372569677,,,,,,,,,,,,,,,,,,,,
12,240612_093120,LEARNING,1.0,13,1.0,2583.0,,,,,,,,,,13.0,13.0,13.0,cue2.png,Easy,B,,,,,,,,,,,,,,,,,,,,,,,,,,,8,24,Female,1.1428571428571428,0.5,0.4,1.0,2.888888888888889,3.5,3.4444444444444446,3.4444444444444446,0.375,3.111111111111111,2.5,2.25,3.0,2.25,1.0,1.0,0.5541423166675182,-0.46380406218815473,0.01678445547478708,-0.6336114699242403,0.041455086069941666,0.8939355145163841,0.021963047271960214,-0.41702964448548335,0.10163865292971436,2.260534431987565,,,,,,,,,,,,,,,,,,,,,,,,
13,240612_093138,LEARNING,1.0,14,1.0,2583.0,,,,,,,,,,14.0,14.0,14.0,cue2.png,Easy,B,,,,,,,,,,,,,,,,,,,,,,,,,,,8,24,Female,1.1428571428571428,0.5,0.4,1.0,2.888888888888889,3.5,3.4444444444444446,3.4444444444444446,0.375,3.111111111111111,2.5,2.25,3.0,2.25,1.0,1.0,0.5279058333326248,-0.7536588021554195,0.04206068209930531,0.6236933309357228,0.041777961189620634,0.9198917712381207,0.19791546378268685,5.24455913411157,,,,,,,,,,,,,,,,,,,,,,,,,,
14,240612_093156,LEARNING,1.0,15,3.0,2583.0,,,,,,,,,,15.0,15.0,15.0,cue1.png,Hard,B,,,,,,,,,,,,,,,,,,,,,,,,,,,8,24,Female,1.1428571428571428,0.5,0.4,1.0,2.888888888888889,3.5,3.4444444444444446,3.4444444444444446,0.375,3.111111111111111,2.5,2.25,3.0,2.25,0.6875,0.75,0.6565558999997544,0.667638066963398,0.010691437092480313,-0.9366939425418604,,,,,,,,,,,,,,,,,,,,,,,,,,,,,,
15,240612_093215,LEARNING,1.0,16,1.0,2583.0,,,,,,,,,,16.0,16.0,16.0,cue2.png,Easy,B,,,,,,,,,,,,,,,,,,,,,,,,,,,8,24,Female,1.1428571428571428,0.5,0.4,1.0,2.888888888888889,3.5,3.4444444444444446,3.4444444444444446,0.375,3.111111111111111,2.5,2.25,3.0,2.25,0.6875,0.75,0.6143481166679218,0.2013360132132259,0.012958364445173808,-0.8239311205398788,,,,,,,,,,,,,,,,,,,,,,,,,,,,,,
16,240612_093233,LEARNING,1.0,17,1.0,2583.0,,,,,,,,,,17.0,17.0,17.0,cue2.png,Easy,B,,,,,,,,,,,,,,,,,,,,,,,,,,,8,24,Female,1.1428571428571428,0.5,0.4,1.0,2.888888888888889,3.5,3.4444444444444446,3.4444444444444446,0.375,3.111111111111111,2.5,2.25,3.0,2.25,1.0,1.0,0.6020072833331748,0.06499727484027054,0.014945756870875085,-0.7250730878459039,0.03216853920113615,0.1473806396012041,0.04303064457898682,0.26085858729217937,,,,,,,,,,,,,,,,,,,,,,,,,,
17,240612_093251,LEARNING,1.0,18,3.0,2583.0,,,,,,,,,,18.0,18.0,18.0,cue1.png,Hard,B,,,,,,,,,,,,,,,,,,,,,,,,,,,8,24,Female,1.1428571428571428,0.5,0.4,1.0,2.888888888888889,3.5,3.4444444444444446,3.4444444444444446,0.375,3.111111111111111,2.5,2.25,3.0,2.25,1.0,1.0,0.5302077500006513,-0.7282277469061139,,,0.05008102080077797,1.5873831129598641,,,0.04262229812544215,0.044173610043262194,,,,,,,,,,,,,,,,,,,,,,,,
18,240612_093309,LEARNING,1.0,19,3.0,2583.0,,,,,,,,,,19.0,19.0,19.0,cue1.png,Hard,B,,,,,,,,,,,,,,,,,,,,,,,,,,,8,24,Female,1.1428571428571428,0.5,0.4,1.0,2.888888888888889,3.5,3.4444444444444446,3.4444444444444446,0.375,3.111111111111111,2.5,2.25,3.0,2.25,1.0,1.0,0.5278895666657869,-0.7538385126153251,0.00933548356662132,-1.0041425733494267,0.010465419297715607,-1.597355072571144,0.032776409968576,-0.06909004742784555,0.026188377507315803,-0.573002729121644,,,,,,,,,,,,,,,,,,,,,,,,
19,240612_093327,LEARNING,1.0,20,3.0,2583.0,,,,,,,,,,20.0,20.0,20.0,cue1.png,Hard,B,,,,,,,,,,,,,,,,,,,,,,,,,,,8,24,Female,1.1428571428571428,0.5,0.4,1.0,2.888888888888889,3.5,3.4444444444444446,3.4444444444444446,0.375,3.111111111111111,2.5,2.25,3.0,2.25,0.6875,0.75,0.5698921500006691,-0.2898034620682177,0.009617084370550508,-0.9901350219864098,,,0.016972086938470243,-0.5776228638277547,,,1.63248834116214e+44,-0.17152117418200688,1.6724972459765744e+44,-0.171041877762391,,,,,,,,,,,,,,,,,,,,
20,240612_093345,LEARNING,1.0,21,1.0,2583.0,,,,,,,,,,21.0,21.0,21.0,cue2.png,Easy,B,,,,,,,,,,,,,,,,,,,,,,,,,,,8,24,Female,1.1428571428571428,0.5,0.4,1.0,2.888888888888889,3.5,3.4444444444444446,3.4444444444444446,0.375,3.111111111111111,2.5,2.25,3.0,2.25,1.0,1.0,0.4899011999987124,-1.1735254043955832,0.00883713764890963,-1.0289315865251547,0.009688875191834544,-1.6597822369436777,0.015435101917219654,-0.627078150215672,,,1.0740280827766508e+44,-0.17154759219306334,6.536503020817572e+43,-0.17128051017758747,,,,,,,,,,,,,,,,,,,,
21,240612_093405,LEARNING,1.0,22,3.0,2583.0,,,,,,,,,,22.0,22.0,22.0,cue1.png,Hard,B,,,,,,,,,,,,,,,,,,,,,,,,,,,8,24,Female,1.1428571428571428,0.5,0.4,1.0,2.888888888888889,3.5,3.4444444444444446,3.4444444444444446,0.375,3.111111111111111,2.5,2.25,3.0,2.25,0.1875,0.5833333333333334,0.532116260001203,-0.7071429596320848,,,0.014478506171877925,-1.2747389686856574,,,0.03401371221787207,-0.2791220696231307,1.850608111401572e+43,-0.1715896448671047,-3.9265127742840093e+43,-0.17152557296590767,,,,,,,,,,,,,,,,,,,,
22,240612_093423,LEARNING,1.0,23,3.0,2583.0,,,,,,,,,,23.0,23.0,23.0,cue1.png,Hard,B,,,,,,,,,,,,,,,,,,,,,,,,,,,8,24,Female,1.1428571428571428,0.5,0.4,1.0,2.888888888888889,3.5,3.4444444444444446,3.4444444444444446,0.375,3.111111111111111,2.5,2.25,3.0,2.25,1.0,1.0,0.5805763166645193,-0.17176720276518376,0.009151868021161455,-1.0132760848600122,0.03091801743897681,0.04684993309461411,0.04341894699453921,0.2733529232165713,0.04279016253014996,0.050477762362179227,-6.406886920006805e+43,-0.17162870701911337,-1.2853494127396603e+44,-0.1717346590443881,,,,,,,,,,,,,,,,,,,,
23,240612_093442,LEARNING,1.0,24,3.0,2583.0,,,,,,,,,,24.0,24.0,24.0,cue1.png,Hard,B,,,,,,,,,,,,,,,,,,,,,,,,,,,8,24,Female,1.1428571428571428,0.5,0.4,1.0,2.888888888888889,3.5,3.4444444444444446,3.4444444444444446,0.375,3.111111111111111,2.5,2.25,3.0,2.25,1.0,1.0,0.6878914499999761,1.0138261433572253,0.008885883930115464,-1.0265068205862107,0.013273808155646303,-1.3715858580110594,0.0162967919170699,-0.5993517084280195,0.01831733588894239,-0.8685999127957713,-1.1778158132276664e+44,-0.17165411586426257,-1.7002016143772938e+44,-0.1718318249469013,,,,,,,,,,,,,,,,,,,,
24,240612_093502,LEARNING,1.0,25,1.0,2583.0,,,,,,,,,,25.0,25.0,25.0,cue2.png,Easy,B,,,,,,,,,,,,,,,,,,,,,,,,,,,8,24,Female,1.1428571428571428,0.5,0.4,1.0,2.888888888888889,3.5,3.4444444444444446,3.4444444444444446,0.375,3.111111111111111,2.5,2.25,3.0,2.25,1.0,1.0,0.8806421333344284,3.1432921424119002,0.01610372139404385,-0.6674729414382373,0.0487044387271841,1.4767182907949665,0.018031072987903747,-0.5435480630773027,0.10161085172131212,2.2594903568441618,-1.38097097654955e+44,-0.1716637261369189,-1.5788754023738793e+44,-0.17180340814968706,,,,,,,,,,,,,,,,,,,,
25,240612_093521,LEARNING,1.0,26,1.0,2583.0,,,,,,,,,,26.0,26.0,26.0,cue2.png,Easy,B,,,,,,,,,,,,,,,,,,,,,,,,,,,8,24,Female,1.1428571428571428,0.5,0.4,1.0,2.888888888888889,3.5,3.4444444444444446,3.4444444444444446,0.375,3.111111111111111,2.5,2.25,3.0,2.25,1.0,1.0,0.6178970500004652,0.24054382681900166,,,,,,,,,-1.1662393921440735e+44,-0.17165356824065714,-1.014941611195965e+44,-0.17167132463762858,,,,,,,,,,,,,,,,,,,,
26,240612_093539,LEARNING,1.0,27,3.0,2583.0,,,,,,,,,,27.0,27.0,27.0,cue1.png,Hard,B,,,,,,,,,,,,,,,,,,,,,,,,,,,8,24,Female,1.1428571428571428,0.5,0.4,1.0,2.888888888888889,3.5,3.4444444444444446,3.4444444444444446,0.375,3.111111111111111,2.5,2.25,3.0,2.25,1.0,1.0,0.5987674000001183,0.029203775801533195,,,,,0.026280109378981134,-0.2781203253280158,,,7.730043144784694e+43,-0.17156183214858348,2.3252582006044492e+44,-0.17088898931915403,,,,,,,,,,,,,,,,,,,,
27,240612_093557,LEARNING,1.0,28,1.0,2583.0,,,,,,,,,,28.0,28.0,28.0,cue2.png,Easy,B,,,,,,,,,,,,,,,,,,,,,,,,,,,8,24,Female,1.1428571428571428,0.5,0.4,1.0,2.888888888888889,3.5,3.4444444444444446,3.4444444444444446,0.375,3.111111111111111,2.5,2.25,3.0,2.25,1.0,1.0,0.6159453666659829,0.21898207030636468,,,0.020267816252468266,-0.8093304886425006,0.016499346788671005,-0.5928341373093695,0.019470777011468418,-0.8252823998306857,-6.5448089201466876e+41,-0.17159870878761332,4.991183172755112e+43,-0.17131670436846216,,,,,,,,,,,,,,,,,,,,
28,240612_093616,LEARNING,1.0,29,1.0,2583.0,,,,,,,,,,29.0,29.0,29.0,cue2.png,Easy,B,,,,,,,,,,,,,,,,,,,,,,,,,,,8,24,Female,1.1428571428571428,0.5,0.4,1.0,2.888888888888889,3.5,3.4444444444444446,3.4444444444444446,0.375,3.111111111111111,2.5,2.25,3.0,2.25,1.0,1.0,0.5900013999974666,-0.06764101162248873,,,0.035554376800273214,0.41957154123739115,0.02034133427767922,-0.4692112073909668,0.10533600541868202,2.3993886060320957,6.49377884489878e+43,-0.17156768030759795,1.0822896360785666e+44,-0.17118011507886063,,,,,,,,,,,,,,,,,,,,
29,240612_093634,LEARNING,1.0,30,3.0,2583.0,,,,,,,,,,30.0,30.0,30.0,cue1.png,Hard,B,,,,,,,,,,,,,,,,,,,,,,,,,,,8,24,Female,1.1428571428571428,0.5,0.4,1.0,2.888888888888889,3.5,3.4444444444444446,3.4444444444444446,0.375,3.111111111111111,2.5,2.25,3.0,2.25,1.0,1.0,0.5964918666662319,0.004064197666711964,0.02948105745294221,-0.002049692176221092,0.030239844089182545,-0.007669106918758194,,,0.05254843749433716,0.41695004605562774,1.0473083073799737e+44,-0.1715488561743606,1.4117836531328007e+44,-0.17110294160981937,,,,,,,,,,,,,,,,,,,,
30,240612_093652,LEARNING,1.0,31,3.0,2583.0,,,,,,,,,,31.0,31.0,31.0,cue1.png,Hard,B,,,,,,,,,,,,,,,,,,,,,,,,,,,8,24,Female,1.1428571428571428,0.5,0.4,1.0,2.888888888888889,3.5,3.4444444444444446,3.4444444444444446,0.375,3.111111111111111,2.5,2.25,3.0,2.25,0.6875,0.75,0.6328358000027947,0.40558376155760156,,,,,0.024146888636654075,-0.3467605796452566,0.032339430466555734,-0.3419997666754263,,,1.601169634164897e+44,-0.1710585839814937,,,,,,,,,,,,,,,,,,,,
31,240612_093711,LEARNING,1.0,32,1.0,2583.0,,,,,,,,,,32.0,32.0,32.0,cue2.png,Easy,B,,,,,,,,,,,,,,,,,,,,,,,,,,,8,24,Female,1.1428571428571428,0.5,0.4,1.0,2.888888888888889,3.5,3.4444444444444446,3.4444444444444446,0.375,3.111111111111111,2.5,2.25,3.0,2.25,1.0,1.0,0.5943713500006803,-0.01936279134108139,,,0.034906823827713554,0.367514104252484,0.030406139022880762,-0.14535782285544058,0.04173372760067792,0.01080331963557057,9.814143278477533e+43,-0.17155197329478897,1.0659034799217577e+44,-0.17118395301354053,,,,,,,,,,,,,,,,,,,,
32,240612_093729,LEARNING,1.0,33,1.0,2583.0,,,,,,,,,,33.0,33.0,33.0,cue2.png,Easy,B,,,,,,,,,,,,,,,,,,,,,,,,,,,8,24,Female,1.1428571428571428,0.5,0.4,1.0,2.888888888888889,3.5,3.4444444444444446,3.4444444444444446,0.375,3.111111111111111,2.5,2.25,3.0,2.25,1.0,1.0,0.5323872333343994,-0.7041493074711173,0.027501679137732278,-0.10050908231388912,0.022465908623164856,-0.6326236246121596,0.054736406055421905,0.6375127369433626,0.11540203311920492,2.777418552172213,5.68073973132987e+43,-0.1715715263961905,4.0327262774479853e+43,-0.1713391531656205,,,,,,,,,,,,,,,,,,,,
33,240612_093746,LEARNING,1.0,34,1.0,2583.0,,,,,,,,,,34.0,34.0,34.0,cue2.png,Easy,B,,,,,,,,,,,,,,,,,,,,,,,,,,,8,24,Female,1.1428571428571428,0.5,0.4,1.0,2.888888888888889,3.5,3.4444444444444446,3.4444444444444446,0.375,3.111111111111111,2.5,2.25,3.0,2.25,1.0,1.0,0.4720135499992466,-1.3711441200229553,0.028025190571587453,-0.0744682713625931,0.03736947069369225,0.5654887711511893,0.032214266683116145,-0.08717802928133234,0.01974053099396805,-0.8151517816256395,-3.3389673791512613e+42,-0.17159997868627905,-2.9076795509555015e+43,-0.17150171004574857,,,,,,,,,,,,,,,,,,,,
34,240612_093804,LEARNING,1.0,35,3.0,2583.0,,,,,,,,,,35.0,35.0,35.0,cue1.png,Hard,B,,,,,,,,,,,,,,,,,,,,,,,,,,,8,24,Female,1.1428571428571428,0.5,0.4,1.0,2.888888888888889,3.5,3.4444444444444446,3.4444444444444446,0.375,3.111111111111111,2.5,2.25,3.0,2.25,0.6875,0.75,0.5219472166681953,-0.8194882527638317,0.02906566850306456,-0.022712211493829085,0.05075107458253372,1.6412494127042225,0.022196253349761202,-0.4095258151015987,0.019152406917662658,-0.8372387974280978,,,-9.256205399735078e+43,-0.17165040402430046,,,,,,,,,,,,,,,,,,,,
35,240612_093822,LEARNING,1.0,36,3.0,2583.0,,,,,,,,,,36.0,36.0,36.0,cue1.png,Hard,B,,,,,,,,,,,,,,,,,,,,,,,,,,,8,24,Female,1.1428571428571428,0.5,0.4,1.0,2.888888888888889,3.5,3.4444444444444446,3.4444444444444446,0.375,3.111111111111111,2.5,2.25,3.0,2.25,1.0,1.0,0.5936021666651262,-0.027860555041663466,0.02275750108083388,-0.33649675308777144,0.05060533900310884,1.629533582395574,0.03339907989682667,-0.04905451084094728,0.04340053072966357,0.07340015682129497,-9.626970264861404e+43,-0.17164393965136066,-1.2520670234754616e+44,-0.17172686370576415,,,,,,,,,,,,,,,,,,,,
36,240612_093842,LEARNING,1.0,37,1.0,2583.0,,,,,,,,,,37.0,37.0,37.0,cue2.png,Easy,B,,,,,,,,,,,,,,,,,,,,,,,,,,,8,24,Female,1.1428571428571428,0.5,0.4,1.0,2.888888888888889,3.5,3.4444444444444446,3.4444444444444446,0.375,3.111111111111111,2.5,2.25,3.0,2.25,1.0,1.0,0.798336799999864,2.234001415941676,0.05469957628861796,1.2523845742073547,0.010098654030164349,-1.6268397025749748,0.04228025742826709,0.2367135169580119,0.023844120018447667,-0.66104138335755,-1.0701048404720425e+44,-0.17164902058733567,-1.2380629943883337e+44,-0.1717235837084068,,,,,,,,,,,,,,,,,,,,
37,240612_093900,LEARNING,1.0,38,3.0,2583.0,,,,,,,,,,38.0,38.0,38.0,cue1.png,Hard,B,,,,,,,,,,,,,,,,,,,,,,,,,,,8,24,Female,1.1428571428571428,0.5,0.4,1.0,2.888888888888889,3.5,3.4444444444444446,3.4444444444444446,0.375,3.111111111111111,2.5,2.25,3.0,2.25,1.0,1.0,0.5793070833351521,-0.18578940581524767,0.03651263276856131,0.3477190265992544,0.015198190761120313,-1.2168827982392425,,,0.017573574631709533,-0.8965318871930041,-8.003125084714799e+43,-0.17163625803762378,,,,,,,,,,,,,,,,,,,,,,
38,240612_093918,LEARNING,1.0,39,3.0,2583.0,,,,,,,,,,39.0,39.0,39.0,cue1.png,Hard,B,,,,,,,,,,,,,,,,,,,,,,,,,,,8,24,Female,1.1428571428571428,0.5,0.4,1.0,2.888888888888889,3.5,3.4444444444444446,3.4444444444444446,0.375,3.111111111111111,2.5,2.25,3.0,2.25,1.0,1.0,0.6045289499985907,0.09285607841003773,0.029381882742316047,-0.006982898451291372,0.033486427599642245,0.25332701799119806,0.022764112377836414,-0.39125391884162514,0.04300392524136702,0.0585056268398375,-2.5161437773517377e+43,-0.17161030182486414,-1.3118859646426422e+42,-0.1714366795967482,,,,,,,,,,,,,,,,,,,,
39,240612_093936,LEARNING,1.0,40,3.0,2583.0,,,,,,,,,,40.0,40.0,40.0,cue1.png,Hard,B,,,,,,,,,,,,,,,,,,,,,,,,,,,8,24,Female,1.1428571428571428,0.5,0.4,1.0,2.888888888888889,3.5,3.4444444444444446,3.4444444444444446,0.375,3.111111111111111,2.5,2.25,3.0,2.25,1.0,1.0,0.5055551500008733,-1.000584101652377,0.015487310183515828,-0.6981348272415957,0.01603683626677053,-1.1494632396655389,0.04298550188385805,0.25940603903370707,,,3.3910190318438497e+43,-0.17158235793985846,6.905392894672525e+43,-0.17127187010833397,,,,,,,,,,,,,,,,,,,,
40,240612_093954,LEARNING,1.0,41,1.0,2583.0,,,,,,,,,,41.0,41.0,41.0,cue2.png,Easy,B,,,,,,,,,,,,,,,,,,,,,,,,,,,8,24,Female,1.1428571428571428,0.5,0.4,1.0,2.888888888888889,3.5,3.4444444444444446,3.4444444444444446,0.375,3.111111111111111,2.5,2.25,3.0,2.25,1.0,1.0,0.5209089666677755,-0.8309586041844603,0.056174886371932145,1.3257703084810277,0.03950912519647479,0.7374977560034867,0.01676153846616648,-0.5843976435766483,0.05281512626455766,0.4269655501295329,8.403941214684839e+43,-0.1715586442679072,1.1466166948013402e+44,-0.17116504851613745,,,,,,,,,,,,,,,,,,,,
41,240612_094012,LEARNING,1.0,42,3.0,2583.0,,,,,,,,,,42.0,42.0,42.0,cue1.png,Hard,B,,,,,,,,,,,,,,,,,,,,,,,,,,,8,24,Female,1.1428571428571428,0.5,0.4,1.0,2.888888888888889,3.5,3.4444444444444446,3.4444444444444446,0.375,3.111111111111111,2.5,2.25,3.0,2.25,1.0,1.0,0.5234083666667478,-0.8033457977145935,0.05731026715487246,1.3822470813158738,0.020008155733036492,-0.8302048598531778,0.015027335602104654,-0.6401987724823416,0.07280244308130639,1.1775897809101095,1.066755494135998e+44,-0.17154793622350104,,,,,,,,,,,,,,,,,,,,,,
42,240612_094029,LEARNING,1.0,43,3.0,2583.0,,,,,,,,,,43.0,43.0,43.0,cue1.png,Hard,B,,,,,,,,,,,,,,,,,,,,,,,,,,,8,24,Female,1.1428571428571428,0.5,0.4,1.0,2.888888888888889,3.5,3.4444444444444446,3.4444444444444446,0.375,3.111111111111111,2.5,2.25,3.0,2.25,1.0,1.0,0.4401369833321951,-1.7233092263136727,0.014747585738268837,-0.7349306318582685,,,0.015614016551274425,-0.621321246704037,0.0200581911869892,-0.8032220443716472,9.14100167158125e+43,-0.17155515759701037,,,,,,,,,,,,,,,,,,,,,,
43,240612_094047,LEARNING,1.0,44,1.0,2583.0,,,,,,,,,,44.0,44.0,44.0,cue2.png,Easy,B,,,,,,,,,,,,,,,,,,,,,,,,,,,8,24,Female,1.1428571428571428,0.5,0.4,1.0,2.888888888888889,3.5,3.4444444444444446,3.4444444444444446,0.375,3.111111111111111,2.5,2.25,3.0,2.25,1.0,1.0,0.5785442999998244,-0.19421646375935633,0.043541242127417674,0.6973402110242779,,,0.014540151522841167,-0.6558748056449843,0.017664232735649217,-0.8931272196151766,2.323417364980481e+43,-0.17158740823882165,1.055729872046476e+43,-0.17140887981558586,,,,,,,,,,,,,,,,,,,,
44,240612_094105,LEARNING,1.0,45,1.0,2583.0,,,,,,,,,,45.0,45.0,45.0,cue2.png,Easy,B,,,,,,,,,,,,,,,,,,,,,,,,,,,8,24,Female,1.1428571428571428,0.5,0.4,1.0,2.888888888888889,3.5,3.4444444444444446,3.4444444444444446,0.375,3.111111111111111,2.5,2.25,3.0,2.25,1.0,1.0,0.5297191333326433,-0.7336258734553676,0.019542219299996243,-0.4964331739474965,0.04264303110259453,0.9894356145845099,0.04924224403732079,0.4607280888758602,0.04394583382144856,0.09387902937663369,-5.904292441472495e+43,-0.1716263294915648,-7.739721301875157e+43,-0.17161488521894427,,,,,,,,,,,,,,,,,,,,
45,240612_094123,LEARNING,1.0,46,1.0,2583.0,,,,,,,,,,46.0,46.0,46.0,cue2.png,Easy,B,,,,,,,,,,,,,,,,,,,,,,,,,,,8,24,Female,1.1428571428571428,0.5,0.4,1.0,2.888888888888889,3.5,3.4444444444444446,3.4444444444444446,0.375,3.111111111111111,2.5,2.25,3.0,2.25,1.0,1.0,0.5125076000016028,-0.9237750048929524,0.022329484501445108,-0.3577874033144613,0.025516703139625167,-0.38736717452320424,0.015958930497939776,-0.6102230136206446,0.014945410368939606,-0.9952326681029041,-1.1350792488239578e+44,-0.1716520942073694,,,,,,,,,,,,,,,,,,,,,,
46,240612_094141,LEARNING,1.0,47,3.0,2583.0,,,,,,,,,,47.0,47.0,47.0,cue1.png,Hard,B,,,,,,,,,,,,,,,,,,,,,,,,,,,8,24,Female,1.1428571428571428,0.5,0.4,1.0,2.888888888888889,3.5,3.4444444444444446,3.4444444444444446,0.375,3.111111111111111,2.5,2.25,3.0,2.25,1.0,1.0,0.5934538666660956,-0.02949893992379464,0.02697700656184035,-0.12660765146932604,0.03691566529886492,0.529006897473344,0.022753683214450753,-0.39158949612760585,0.02962225972915216,-0.4440431881793048,-7.541200981671656e+43,-0.17163407290163993,-8.19024411227963e+43,-0.17162543727948606,,,,,,,,,,,,,,,,,,,,
47,240612_094159,LEARNING,1.0,48,3.0,2583.0,,,,,,,,,,48.0,48.0,48.0,cue1.png,Hard,B,,,,,,,,,,,,,,,,,,,,,,,,,,,8,24,Female,1.1428571428571428,0.5,0.4,1.0,2.888888888888889,3.5,3.4444444444444446,3.4444444444444446,0.375,3.111111111111111,2.5,2.25,3.0,2.25,1.0,1.0,0.5057259666658259,-0.9986969577325941,0.03328191276618548,0.1870146687232551,,,0.02396126094063981,-0.35273348812581223,0.025517423506131176,-0.5982004250227932,4.636883633693243e+43,-0.1715764643665321,4.0247483271657124e+43,-0.1713393400236717,,,,,,,,,,,,,,,,,,,,
48,240612_094217,LEARNING,1.0,49,1.0,2583.0,,,,,,,,,,49.0,49.0,49.0,cue2.png,Easy,B,,,,,,,,,,,,,,,,,,,,,,,,,,,8,24,Female,1.1428571428571428,0.5,0.4,1.0,2.888888888888889,3.5,3.4444444444444446,3.4444444444444446,0.375,3.111111111111111,2.5,2.25,3.0,2.25,1.0,1.0,0.5524866499993853,-0.4820954934534826,0.01698126047232252,-0.623821880999028,,,,,,,,,,,,,,,,,,,,,,,,,,,,,,
49,240612_094235,LEARNING,1.0,50,1.0,2583.0,,,,,,,,,,50.0,50.0,50.0,cue2.png,Easy,B,,,,,,,,,,,,,,,,,,,,,,,,,,,8,24,Female,1.1428571428571428,0.5,0.4,1.0,2.888888888888889,3.5,3.4444444444444446,3.4444444444444446,0.375,3.111111111111111,2.5,2.25,3.0,2.25,1.0,1.0,0.5565207333335517,-0.43752785224541196,,,0.019241529623252394,-0.8918347065100756,0.01942096756915401,-0.4988256789197677,0.07912017100190663,1.4148522260977339,-8.904553471712154e+43,-0.17164052225244245,4.698059796605162e+42,-0.17142260321480682,,,,,,,,,,,,,,,,,,,,
0,240612_094407,TrueCHOICE,9.0,1,3.0,2583.0,,,,,,,,,,,1.0,1.0,,,B,,,,,,True,cue2.png,Easy,cue1.png,Hard,Right,Hard,Hard,0.016624200005026,,,,,,,,,,,,,8,24,Female,1.1428571428571428,0.5,0.4,1.0,2.888888888888889,3.5,3.4444444444444446,3.4444444444444446,0.375,3.111111111111111,2.5,2.25,3.0,2.25,1.0,1.0,0.5734813166648868,1.1157278347283572,,,,,,,,,,,,,0.013233137523691915,-0.16497478160036413,0.01899591661227379,-0.8672055128955356,48195205.28643876,-0.4638759534139857,,,,,,,,,,,,,,
1,240612_094423,TrueCHOICE,9.0,2,3.0,2583.0,,,,,,,,,,,2.0,2.0,,,B,,,,,,True,cue2.png,Easy,cue1.png,Hard,Right,Hard,Hard,0.0161028000002261,,,,,,,,,,,,,8,24,Female,1.1428571428571428,0.5,0.4,1.0,2.888888888888889,3.5,3.4444444444444446,3.4444444444444446,0.375,3.111111111111111,2.5,2.25,3.0,2.25,1.0,1.0,0.4465418666647262,-0.4738512198651685,,,,,,,,,,,,,0.04418303223951208,2.6301261214965597,0.03491205940106587,0.8116186438526302,9680359.811589252,-0.46439332515036025,,,,,,,,,,,,,,
2,240612_094438,TrueCHOICE,9.0,3,3.0,2583.0,,,,,,,,,,,3.0,3.0,,,B,,,,,,True,cue1.png,Hard,cue2.png,Easy,Left,Hard,Hard,0.0154362000030232,,,,,,,,,,,,,8,24,Female,1.1428571428571428,0.5,0.4,1.0,2.888888888888889,3.5,3.4444444444444446,3.4444444444444446,0.375,3.111111111111111,2.5,2.25,3.0,2.25,1.0,1.0,0.4885129666666519,0.05172519835018544,,,,,,,,,,,,,0.011278707493254398,-0.34148036241978147,,,,,,,,,,,,,,,,,,
3,240612_094455,TrueCHOICE,9.0,4,3.0,2583.0,,,,,,,,,,,4.0,4.0,,,B,,,,,,True,cue2.png,Easy,cue1.png,Hard,Right,Hard,Hard,0.0166398000001208,,,,,,,,,,,,,8,24,Female,1.1428571428571428,0.5,0.4,1.0,2.888888888888889,3.5,3.4444444444444446,3.4444444444444446,0.375,3.111111111111111,2.5,2.25,3.0,2.25,1.0,1.0,0.6590596333323143,2.1873686816182936,,,,,,,,,,,,,,,0.024663573627804237,-0.26938482002414116,-107460.91494625702,-0.4645248054079643,,,,,,,,,,,,,,
4,240612_094510,TrueCHOICE,9.0,5,3.0,2583.0,,,,,,,,,,,5.0,5.0,,,B,,,,,,True,cue1.png,Hard,cue2.png,Easy,Left,Hard,Hard,0.0154607999938889,,,,,,,,,,,,,8,24,Female,1.1428571428571428,0.5,0.4,1.0,2.888888888888889,3.5,3.4444444444444446,3.4444444444444446,0.375,3.111111111111111,2.5,2.25,3.0,2.25,1.0,1.0,0.3958964999995563,-1.1080497614774203,,,,,,,,,,,,,0.009393881133757925,-0.5116999999333326,,,215554693977.35205,2.43103301207922,,,,,,,,,,,,,,
5,240612_094526,TrueCHOICE,9.0,6,3.0,2583.0,,,,,,,,,,,6.0,6.0,,,B,,,,,,True,cue1.png,Hard,cue2.png,Easy,Left,Hard,Hard,0.0158441000021412,,,,,,,,,,,,,8,24,Female,1.1428571428571428,0.5,0.4,1.0,2.888888888888889,3.5,3.4444444444444446,3.4444444444444446,0.375,3.111111111111111,2.5,2.25,3.0,2.25,1.0,1.0,0.4887587166667799,0.054802563604795636,,,,,,,,,,,,,0.011560126814051266,-0.31606523888121324,,,936170.7383433188,-0.4645107862547277,,,,,,,,,,,,,,
6,240612_094540,TrueCHOICE,9.0,7,3.0,2583.0,,,,,,,,,,,7.0,7.0,,,B,,,,,,True,cue2.png,Easy,cue1.png,Hard,Right,Hard,Hard,0.0166228000016417,,,,,,,,,,,,,8,24,Female,1.1428571428571428,0.5,0.4,1.0,2.888888888888889,3.5,3.4444444444444446,3.4444444444444446,0.375,3.111111111111111,2.5,2.25,3.0,2.25,1.0,1.0,0.3738306999997197,-1.3843652292263802,,,,,,,,,,,,,0.010267994193598723,-0.4327584001184239,0.04458349563193183,1.83175530574918,2595000.871970051,-0.46448850311127987,,,,,,,,,,,,,,
7,240612_094556,TrueCHOICE,9.0,8,3.0,2583.0,,,,,,,,,,,8.0,8.0,,,B,,,,,,True,cue1.png,Hard,cue2.png,Easy,Left,Hard,Hard,0.0174470000056317,,,,,,,,,,,,,8,24,Female,1.1428571428571428,0.5,0.4,1.0,2.888888888888889,3.5,3.4444444444444446,3.4444444444444446,0.375,3.111111111111111,2.5,2.25,3.0,2.25,0.6875,0.75,0.4716386166680119,-0.15958116320790008,,,,,,,,,,,,,,,0.021158693944835626,-0.6390771981552948,,,,,,,,,,,,,,,,
8,240612_094612,TrueCHOICE,9.0,9,3.0,2583.0,,,,,,,,,,,9.0,9.0,,,B,,,,,,True,cue2.png,Easy,cue1.png,Hard,Right,Hard,Hard,0.0153907999992952,,,,,,,,,,,,,8,24,Female,1.1428571428571428,0.5,0.4,1.0,2.888888888888889,3.5,3.4444444444444446,3.4444444444444446,0.375,3.111111111111111,2.5,2.25,3.0,2.25,1.0,1.0,0.5141754333332452,0.37307935186487046,,,,,,,,,,,,,0.00925767857816923,-0.5240005227501509,0.018991167761407253,-0.8677064185268389,26448483236.314014,-0.10923963874090235,,,,,,,,,,,,,,
9,240612_094627,TrueCHOICE,9.0,10,3.0,2583.0,,,,,,,,,,,10.0,10.0,,,B,,,,,,True,cue1.png,Hard,cue2.png,Easy,Left,Hard,Hard,0.0161360999991302,,,,,,,,,,,,,8,24,Female,1.1428571428571428,0.5,0.4,1.0,2.888888888888889,3.5,3.4444444444444446,3.4444444444444446,0.375,3.111111111111111,2.5,2.25,3.0,2.25,1.0,1.0,0.4319275833319504,-0.6568562563896391,,,,,,,,,,,,,0.011304546640000147,-0.33914681579329226,,,,,,,,,,,,,,,,,,
0,240612_094840,FalseCHOICE,9.0,1,2.0,2583.0,,,,,,,,,,,1.0,1.0,,,B,,,,,,False,cue2.png,Easy,cue1.png,Hard,Right,Hard,Mid,0.0164647999990847,,,,,,,,,,,,,8,24,Female,1.1428571428571428,0.5,0.4,1.0,2.888888888888889,3.5,3.4444444444444446,3.4444444444444446,0.375,3.111111111111111,2.5,2.25,3.0,2.25,0.6875,0.75,1.2168856166669382,5.64864133204136,,,,,,,,,,,,,,,,,,,0.04299805230776899,0.8808148757616804,0.022061936598971255,-0.5107403243492387,,,,,,,,,,
1,240612_094857,FalseCHOICE,9.0,2,2.0,2583.0,,,,,,,,,,,2.0,2.0,,,B,,,,,,False,cue1.png,Hard,cue2.png,Easy,Left,Hard,Mid,0.0160709999981918,,,,,,,,,,,,,8,24,Female,1.1428571428571428,0.5,0.4,1.0,2.888888888888889,3.5,3.4444444444444446,3.4444444444444446,0.375,3.111111111111111,2.5,2.25,3.0,2.25,0.6875,0.75,0.6505484500012244,0.8031701745766981,,,,,,,,,,,,,,,,,,,0.02715630011531809,-0.005238354523345473,0.027886457096881687,-0.2297317847534904,1.1397086499035461e+45,-0.1764895205209555,,,,,,,,
2,240612_094913,FalseCHOICE,9.0,3,2.0,2583.0,,,,,,,,,,,3.0,3.0,,,B,,,,,,False,cue1.png,Hard,cue2.png,Easy,Left,Hard,Mid,0.0161112999994657,,,,,,,,,,,,,8,24,Female,1.1428571428571428,0.5,0.4,1.0,2.888888888888889,3.5,3.4444444444444446,3.4444444444444446,0.375,3.111111111111111,2.5,2.25,3.0,2.25,1.0,1.0,0.5602443166656789,0.030545492263543802,,,,,,,,,,,,,,,,,,,0.028890249623914073,0.09174407169935066,0.04026338269833735,0.36740265561770186,-7.89099416057877e+44,-0.17697249202204737,,,,,,,,
3,240612_094929,FalseCHOICE,9.0,4,2.0,2583.0,,,,,,,,,,,4.0,4.0,,,B,,,,,,False,cue1.png,Hard,cue2.png,Easy,Left,Hard,Mid,0.0161946000007446,,,,,,,,,,,,,8,24,Female,1.1428571428571428,0.5,0.4,1.0,2.888888888888889,3.5,3.4444444444444446,3.4444444444444446,0.375,3.111111111111111,2.5,2.25,3.0,2.25,1.0,1.0,0.6822413500000645,1.0743284913527464,,,,,,,,,,,,,,,,,,,0.007479813673966028,-1.1057740882111606,0.01786250723177954,-0.7133450733639254,-9.728839625218493e+44,-0.1770185114782336,,,,,,,,
4,240612_094945,FalseCHOICE,9.0,5,2.0,2583.0,,,,,,,,,,,5.0,5.0,,,B,,,,,,False,cue2.png,Easy,cue1.png,Hard,Right,Hard,Mid,0.0161671999958343,,,,,,,,,,,,,8,24,Female,1.1428571428571428,0.5,0.4,1.0,2.888888888888889,3.5,3.4444444444444446,3.4444444444444446,0.375,3.111111111111111,2.5,2.25,3.0,2.25,0.6875,0.75,0.5459616999990734,-0.09165381088056786,,,,,,,,,,,,,,,,,,,0.04483903573523615,0.9837838714252911,0.032195981894703685,-0.02181539571819082,2.3297339286545918e+49,5.65685423121377,,,,,,,,
5,240612_095002,FalseCHOICE,9.0,6,2.0,2583.0,,,,,,,,,,,6.0,6.0,,,B,,,,,,False,cue1.png,Hard,cue2.png,Easy,Left,Hard,Mid,0.0162263000020175,,,,,,,,,,,,,8,24,Female,1.1428571428571428,0.5,0.4,1.0,2.888888888888889,3.5,3.4444444444444446,3.4444444444444446,0.375,3.111111111111111,2.5,2.25,3.0,2.25,0.125,0.5,0.586870133333529,0.2583508250259649,,,,,,,,,,,,,,,,,,,0.013257046332261426,-0.7826447022187374,0.020429939740411646,-0.589477287162437,-1.5376146859234064e+44,-0.17681340407151297,,,,,,,,
6,240612_095017,FalseCHOICE,9.0,7,2.0,2583.0,,,,,,,,,,,7.0,7.0,,,B,,,,,,False,cue1.png,Hard,cue2.png,Easy,Left,Hard,Mid,0.0160356999986106,,,,,,,,,,,,,8,24,Female,1.1428571428571428,0.5,0.4,1.0,2.888888888888889,3.5,3.4444444444444446,3.4444444444444446,0.375,3.111111111111111,2.5,2.25,3.0,2.25,0.6875,0.75,0.5505097166630245,-0.05274186078097028,,,,,,,,,,,,,,,,,,,0.024104038175656765,-0.17595599474762066,0.021102618701593412,-0.5570233654076268,,,,,,,,,,
7,240612_095033,FalseCHOICE,9.0,8,2.0,2583.0,,,,,,,,,,,8.0,8.0,,,B,,,,,,False,cue2.png,Easy,cue1.png,Hard,Right,Hard,Mid,0.0165338000006158,,,,,,,,,,,,,8,24,Female,1.1428571428571428,0.5,0.4,1.0,2.888888888888889,3.5,3.4444444444444446,3.4444444444444446,0.375,3.111111111111111,2.5,2.25,3.0,2.25,0.6875,0.75,0.5453317833331918,-0.09704325592459652,,,,,,,,,,,,,,,,,,,0.008808062555604635,-1.0314831134565376,0.021993398638975807,-0.5140469917482292,,,,,,,,,,
8,240612_095050,FalseCHOICE,9.0,9,2.0,2583.0,,,,,,,,,,,9.0,9.0,,,B,,,,,,False,cue2.png,Easy,cue1.png,Hard,Right,Hard,Mid,0.0168188000025111,,,,,,,,,,,,,8,24,Female,1.1428571428571428,0.5,0.4,1.0,2.888888888888889,3.5,3.4444444444444446,3.4444444444444446,0.375,3.111111111111111,2.5,2.25,3.0,2.25,1.0,1.0,0.6600453999999445,0.8844242401956058,,,,,,,,,,,,,,,,,,,0.028187012035982603,0.05241092667379859,0.0176600602071565,-0.7231122881510027,,,,,,,,,,
9,240612_095106,FalseCHOICE,9.0,10,2.0,2583.0,,,,,,,,,,,10.0,10.0,,,B,,,,,,False,cue1.png,Hard,cue2.png,Easy,Left,Hard,Mid,0.0160424999994575,,,,,,,,,,,,,8,24,Female,1.1428571428571428,0.5,0.4,1.0,2.888888888888889,3.5,3.4444444444444446,3.4444444444444446,0.375,3.111111111111111,2.5,2.25,3.0,2.25,0.6875,0.75,0.585460766666074,0.24629255666676333,,,,,,,,,,,,,,,,,,,0.011830770280383436,-0.8624184853010712,0.015091100735184949,-0.8470537438911573,4.159072067356548e+44,-0.17667075963731363,,,,,,,,
10,240612_095122,FalseCHOICE,9.0,11,2.0,2583.0,,,,,,,,,,,11.0,11.0,,,B,,,,,,False,cue2.png,Easy,cue1.png,Hard,Right,Hard,Mid,0.015209600001981,,,,,,,,,,,,,8,24,Female,1.1428571428571428,0.5,0.4,1.0,2.888888888888889,3.5,3.4444444444444446,3.4444444444444446,0.375,3.111111111111111,2.5,2.25,3.0,2.25,0.6875,0.75,0.4665587999988929,-0.7710096512099115,,,,,,,,,,,,,,,,,,,,,0.019320401398780496,-0.6430078308559674,3.058623049431414e+44,-0.17669831476441217,,,,,,,,
11,240612_095138,FalseCHOICE,9.0,12,2.0,2583.0,,,,,,,,,,,12.0,12.0,,,B,,,,,,False,cue1.png,Hard,cue2.png,Easy,Left,Hard,Mid,0.0165729999935138,,,,,,,,,,,,,8,24,Female,1.1428571428571428,0.5,0.4,1.0,2.888888888888889,3.5,3.4444444444444446,3.4444444444444446,0.375,3.111111111111111,2.5,2.25,3.0,2.25,0.6875,0.75,0.4891362666652033,-0.5778412173168899,,,,,,,,,,,,,,,,,,,0.020624849526877945,-0.37055229341277046,0.047381661777004605,0.7108295881950477,,,,,,,,,,
12,240612_095153,FalseCHOICE,9.0,13,2.0,2583.0,,,,,,,,,,,13.0,13.0,,,B,,,,,,False,cue2.png,Easy,cue1.png,Hard,Right,Hard,Mid,0.0165347000001929,,,,,,,,,,,,,8,24,Female,1.1428571428571428,0.5,0.4,1.0,2.888888888888889,3.5,3.4444444444444446,3.4444444444444446,0.375,3.111111111111111,2.5,2.25,3.0,2.25,1.0,1.0,0.5305260666670316,-0.22371810139490717,,,,,,,,,,,,,,,,,,,,,0.03612133519594676,0.1675663394779327,-1.782028175795707e+44,-0.17681952415946642,,,,,,,,
13,240612_095209,FalseCHOICE,9.0,14,2.0,2583.0,,,,,,,,,,,14.0,14.0,,,B,,,,,,False,cue1.png,Hard,cue2.png,Easy,Left,Hard,Mid,0.0160255000009783,,,,,,,,,,,,,8,24,Female,1.1428571428571428,0.5,0.4,1.0,2.888888888888889,3.5,3.4444444444444446,3.4444444444444446,0.375,3.111111111111111,2.5,2.25,3.0,2.25,1.0,1.0,0.5341142166677552,-0.19301858463967864,,,,,,,,,,,,,,,,,,,0.019771774366416323,-0.4182660811567255,0.014180734947610903,-0.8909750521869892,,,,,,,,,,
14,240612_095225,FalseCHOICE,9.0,15,2.0,2583.0,,,,,,,,,,,15.0,15.0,,,B,,,,,,False,cue2.png,Easy,cue1.png,Hard,Right,Hard,Mid,0.0180508000048575,,,,,,,,,,,,,8,24,Female,1.1428571428571428,0.5,0.4,1.0,2.888888888888889,3.5,3.4444444444444446,3.4444444444444446,0.375,3.111111111111111,2.5,2.25,3.0,2.25,1.0,1.0,0.4521766666669767,-0.8940603996764078,,,,,,,,,,,,,,,,,,,0.00969543376455198,-0.9818510956975173,0.021990457213443712,-0.5141889031198864,,,,,,,,,,
15,240612_095240,FalseCHOICE,9.0,16,2.0,2583.0,,,,,,,,,,,16.0,16.0,,,B,,,,,,False,cue2.png,Easy,cue1.png,Hard,Right,Hard,Mid,0.0141619999994873,,,,,,,,,,,,,8,24,Female,1.1428571428571428,0.5,0.4,1.0,2.888888888888889,3.5,3.4444444444444446,3.4444444444444446,0.375,3.111111111111111,2.5,2.25,3.0,2.25,0.6875,0.75,0.4961755833331456,-0.5176141866884946,,,,,,,,,,,,,,,,,,,,,0.026765028860585287,-0.28383596569956854,,,,,,,,,,
16,240612_095255,FalseCHOICE,9.0,17,2.0,2583.0,,,,,,,,,,,17.0,17.0,,,B,,,,,,False,cue1.png,Hard,cue2.png,Easy,Left,Hard,Mid,0.0129952999996021,,,,,,,,,,,,,8,24,Female,1.1428571428571428,0.5,0.4,1.0,2.888888888888889,3.5,3.4444444444444446,3.4444444444444446,0.375,3.111111111111111,2.5,2.25,3.0,2.25,1.0,1.0,0.4772699333334458,-0.6793672680304772,,,,,,,,,,,,,,,,,,,0.039817346116869004,0.7029131537301041,0.06501592110621351,1.5616081995384974,,,,,,,,,,
17,240612_095310,FalseCHOICE,9.0,18,2.0,2583.0,,,,,,,,,,,18.0,18.0,,,B,,,,,,False,cue1.png,Hard,cue2.png,Easy,Left,Hard,Mid,0.016689199997927,,,,,,,,,,,,,8,24,Female,1.1428571428571428,0.5,0.4,1.0,2.888888888888889,3.5,3.4444444444444446,3.4444444444444446,0.375,3.111111111111111,2.5,2.25,3.0,2.25,1.0,1.0,0.4860918666696913,-0.6038885142952751,,,,,,,,,,,,,,,,,,,0.01845566471579444,-0.49187809030673096,,,,,,,,,,,,
18,240612_095327,FalseCHOICE,9.0,19,2.0,2583.0,,,,,,,,,,,19.0,19.0,,,B,,,,,,False,cue2.png,Easy,cue1.png,Hard,Right,Hard,Mid,0.016471700000693,,,,,,,,,,,,,8,24,Female,1.1428571428571428,0.5,0.4,1.0,2.888888888888889,3.5,3.4444444444444446,3.4444444444444446,0.375,3.111111111111111,2.5,2.25,3.0,2.25,0.6875,0.75,0.5515840666666918,-0.04354993013929893,,,,,,,,,,,,,,,,,,,0.0633589785193642,2.0196323640175584,0.11237998111962832,3.8467242599026052,,,,,,,,,,
19,240612_095342,FalseCHOICE,9.0,20,2.0,2583.0,,,,,,,,,,,20.0,20.0,,,B,,,,,,False,cue2.png,Easy,cue1.png,Hard,Right,Hard,Mid,0.0161547000025166,,,,,,,,,,,,,8,24,Female,1.1428571428571428,0.5,0.4,1.0,2.888888888888889,3.5,3.4444444444444446,3.4444444444444446,0.375,3.111111111111111,2.5,2.25,3.0,2.25,1.0,1.0,0.5405692999981208,-0.13779014134243775,,,,,,,,,,,,,,,,,,,0.011653569227308667,-0.8723296089936655,0.03968366535598935,0.3394337397541587,1.0105636294659819e+44,-0.1767495979558215,,,,,,,,
20,240612_095357,FalseCHOICE,9.0,21,2.0,2583.0,,,,,,,,,,,21.0,21.0,,,B,,,,,,False,cue2.png,Easy,cue1.png,Hard,Right,Hard,Mid,0.0171087000053375,,,,,,,,,,,,,8,24,Female,1.1428571428571428,0.5,0.4,1.0,2.888888888888889,3.5,3.4444444444444446,3.4444444444444446,0.375,3.111111111111111,2.5,2.25,3.0,2.25,1.0,1.0,0.4323206833335765,-1.0639443490409384,,,,,,,,,,,,,,,,,,,0.01586160784274266,-0.6369676261098411,0.03236267879902414,-0.013772973401190169,3.34878711479025e+43,-0.1767665170347524,,,,,,,,
21,240612_095414,FalseCHOICE,9.0,22,2.0,2583.0,,,,,,,,,,,22.0,22.0,,,B,,,,,,False,cue1.png,Hard,cue2.png,Easy,Left,Hard,Mid,0.0163363000028766,,,,,,,,,,,,,8,24,Female,1.1428571428571428,0.5,0.4,1.0,2.888888888888889,3.5,3.4444444444444446,3.4444444444444446,0.375,3.111111111111111,2.5,2.25,3.0,2.25,1.0,1.0,0.5629351666660417,0.05356788392924566,,,,,,,,,,,,,,,,,,,0.030067074922296988,0.15756569574989066,,,,,,,,,,,,
22,240612_095430,FalseCHOICE,9.0,23,2.0,2583.0,,,,,,,,,,,23.0,23.0,,,B,,,,,,False,cue2.png,Easy,cue1.png,Hard,Right,Hard,Mid,0.0156037999986438,,,,,,,,,,,,,8,24,Female,1.1428571428571428,0.5,0.4,1.0,2.888888888888889,3.5,3.4444444444444446,3.4444444444444446,0.375,3.111111111111111,2.5,2.25,3.0,2.25,1.0,1.0,0.6067875666655406,0.4287605286821492,,,,,,,,,,,,,,,,,,,0.023061615426647926,-0.23426028033807592,0.05330765726430156,0.9967338678921883,-8.804780463129326e+43,-0.17679694943951219,,,,,,,,
23,240612_095446,FalseCHOICE,9.0,24,2.0,2583.0,,,,,,,,,,,24.0,24.0,,,B,,,,,,False,cue1.png,Hard,cue2.png,Easy,Left,Hard,Mid,0.0166489000039291,,,,,,,,,,,,,8,24,Female,1.1428571428571428,0.5,0.4,1.0,2.888888888888889,3.5,3.4444444444444446,3.4444444444444446,0.375,3.111111111111111,2.5,2.25,3.0,2.25,1.0,1.0,0.5560265333321391,-0.005541045392857494,,,,,,,,,,,,,,,,,,,,,0.02106483118796094,-0.5588464535098362,-1.1320868529233931e+44,-0.1768032496974363,,,,,,,,
24,240612_095501,FalseCHOICE,9.0,25,2.0,2583.0,,,,,,,,,,,25.0,25.0,,,B,,,,,,False,cue1.png,Hard,cue2.png,Easy,Left,Hard,Mid,0.0159911000009742,,,,,,,,,,,,,8,24,Female,1.1428571428571428,0.5,0.4,1.0,2.888888888888889,3.5,3.4444444444444446,3.4444444444444446,0.375,3.111111111111111,2.5,2.25,3.0,2.25,1.0,1.0,0.474906283331317,-0.6995901998558515,,,,,,,,,,,,,,,,,,,,,0.015019151511132364,-0.8505249903883271,-1.0557454911036205e+44,-0.17680133811780513,,,,,,,,
25,240612_095517,FalseCHOICE,9.0,26,2.0,2583.0,,,,,,,,,,,26.0,26.0,,,B,,,,,,False,cue2.png,Easy,cue1.png,Hard,Right,Hard,Mid,0.0167322000052081,,,,,,,,,,,,,8,24,Female,1.1428571428571428,0.5,0.4,1.0,2.888888888888889,3.5,3.4444444444444446,3.4444444444444446,0.375,3.111111111111111,2.5,2.25,3.0,2.25,1.0,1.0,0.5492598000018916,-0.06343590575494085,,,,,,,,,,,,,,,,,,,0.017443701491329497,-0.5484787284857638,,,-7.0223262838788885e+43,-0.1767924861930867,,,,,,,,
26,240612_095534,FalseCHOICE,9.0,27,2.0,2583.0,,,,,,,,,,,27.0,27.0,,,B,,,,,,False,cue2.png,Easy,cue1.png,Hard,Right,Hard,Mid,0.0165926999980001,,,,,,,,,,,,,8,24,Female,1.1428571428571428,0.5,0.4,1.0,2.888888888888889,3.5,3.4444444444444446,3.4444444444444446,0.375,3.111111111111111,2.5,2.25,3.0,2.25,0.6875,0.75,0.7535058666665767,1.6840538994364924,,,,,,,,,,,,,,,,,,,0.038736953621510105,0.6424851626304435,0.008887770634824672,-1.1463382485569,3.109025499745933e+44,-0.1766970526923835,,,,,,,,
27,240612_095550,FalseCHOICE,9.0,28,2.0,2583.0,,,,,,,,,,,28.0,28.0,,,B,,,,,,False,cue1.png,Hard,cue2.png,Easy,Left,Hard,Mid,0.0161860000007436,,,,,,,,,,,,,8,24,Female,1.1428571428571428,0.5,0.4,1.0,2.888888888888889,3.5,3.4444444444444446,3.4444444444444446,0.375,3.111111111111111,2.5,2.25,3.0,2.25,1.0,1.0,0.5608954500009228,0.03611646302317691,,,,,,,,,,,,,,,,,,,0.012330286913816919,-0.83447976228243,0.02595654981255628,-0.3228416686860885,2.924158539208336e+43,-0.1767675803002176,,,,,,,,
28,240612_095605,FalseCHOICE,9.0,29,2.0,2583.0,,,,,,,,,,,29.0,29.0,,,B,,,,,,False,cue2.png,Easy,cue1.png,Hard,Right,Hard,Mid,0.0163730999993276,,,,,,,,,,,,,8,24,Female,1.1428571428571428,0.5,0.4,1.0,2.888888888888889,3.5,3.4444444444444446,3.4444444444444446,0.375,3.111111111111111,2.5,2.25,3.0,2.25,0.6875,0.75,0.5351235833307632,-0.18438263888018291,,,,,,,,,,,,,,,,,,,0.01863436147419852,-0.48188330954625125,0.04812432867382409,0.7466601325559474,7.020732951372954e+43,-0.17675732252118767,,,,,,,,
29,240612_095621,FalseCHOICE,9.0,30,2.0,2583.0,,,,,,,,,,,30.0,30.0,,,B,,,,,,False,cue2.png,Easy,cue1.png,Hard,Right,Hard,Mid,0.0166313000008813,,,,,,,,,,,,,8,24,Female,1.1428571428571428,0.5,0.4,1.0,2.888888888888889,3.5,3.4444444444444446,3.4444444444444446,0.375,3.111111111111111,2.5,2.25,3.0,2.25,1.0,1.0,0.5271024999989701,-0.2530094750185304,,,,,,,,,,,,,,,,,,,0.043848251365194504,0.9283677987001001,0.013432395660052342,-0.9270792654684767,9.338261793571475e+43,-0.17675151945346157,,,,,,,,
30,240612_095637,FalseCHOICE,9.0,31,2.0,2583.0,,,,,,,,,,,31.0,31.0,,,B,,,,,,False,cue1.png,Hard,cue2.png,Easy,Left,Hard,Mid,0.0146643000043695,,,,,,,,,,,,,8,24,Female,1.1428571428571428,0.5,0.4,1.0,2.888888888888889,3.5,3.4444444444444446,3.4444444444444446,0.375,3.111111111111111,2.5,2.25,3.0,2.25,1.0,1.0,0.5348206499996498,-0.1869744778145516,,,,,,,,,,,,,,,,,,,,,,,,,,,,,,,,
31,240612_095653,FalseCHOICE,9.0,32,2.0,2583.0,,,,,,,,,,,32.0,32.0,,,B,,,,,,False,cue2.png,Easy,cue1.png,Hard,Right,Hard,Mid,0.0166418000007979,,,,,,,,,,,,,8,24,Female,1.1428571428571428,0.5,0.4,1.0,2.888888888888889,3.5,3.4444444444444446,3.4444444444444446,0.375,3.111111111111111,2.5,2.25,3.0,2.25,1.0,1.0,0.5754240166655412,0.16042006673538778,,,,,,,,,,,,,,,,,,,0.049507543291457214,1.244900580647073,0.06898845320181989,1.7532661125090272,6.74322111592825e+43,-0.1767580174078905,,,,,,,,
32,240612_095709,FalseCHOICE,9.0,33,2.0,2583.0,,,,,,,,,,,33.0,33.0,,,B,,,,,,False,cue1.png,Hard,cue2.png,Easy,Left,Hard,Mid,0.0145910999999614,,,,,,,,,,,,,8,24,Female,1.1428571428571428,0.5,0.4,1.0,2.888888888888889,3.5,3.4444444444444446,3.4444444444444446,0.375,3.111111111111111,2.5,2.25,3.0,2.25,1.0,1.0,0.6266886999995526,0.5990307727110612,,,,,,,,,,,,,,,,,,,0.01163302225782891,-0.8734788321641165,,,2.161507253693752e+43,-0.1767694899709758,,,,,,,,
33,240612_095724,FalseCHOICE,9.0,34,2.0,2583.0,,,,,,,,,,,34.0,34.0,,,B,,,,,,False,cue1.png,Hard,cue2.png,Easy,Left,Hard,Mid,0.015229000004183,,,,,,,,,,,,,8,24,Female,1.1428571428571428,0.5,0.4,1.0,2.888888888888889,3.5,3.4444444444444446,3.4444444444444446,0.375,3.111111111111111,2.5,2.25,3.0,2.25,1.0,1.0,0.4833547833331977,-0.6273064694343294,,,,,,,,,,,,,,,,,,,0.02287771689131938,-0.24454600437245338,,,-2.0611524805907858e+43,-0.17678006346631966,,,,,,,,
34,240612_095740,FalseCHOICE,9.0,35,2.0,2583.0,,,,,,,,,,,35.0,35.0,,,B,,,,,,False,cue1.png,Hard,cue2.png,Easy,Left,Hard,Mid,0.016500999998243,,,,,,,,,,,,,8,24,Female,1.1428571428571428,0.5,0.4,1.0,2.888888888888889,3.5,3.4444444444444446,3.4444444444444446,0.375,3.111111111111111,2.5,2.25,3.0,2.25,1.0,1.0,0.4512411333319808,-0.9020646417752584,,,,,,,,,,,,,,,,,,,0.02833334637231743,0.0605956280777806,0.018296970082530846,-0.6923840738718592,-6.324111048892568e+43,-0.176790737869518,,,,,,,,
35,240612_095754,FalseCHOICE,9.0,36,2.0,2583.0,,,,,,,,,,,36.0,36.0,,,B,,,,,,False,cue2.png,Easy,cue1.png,Hard,Right,Hard,Mid,0.016594000000623,,,,,,,,,,,,,8,24,Female,1.1428571428571428,0.5,0.4,1.0,2.888888888888889,3.5,3.4444444444444446,3.4444444444444446,0.375,3.111111111111111,2.5,2.25,3.0,2.25,0.6875,0.75,0.4328330500005298,-1.059560639030548,,,,,,,,,,,,,,,,,,,0.00896032495995424,-1.0229668462162749,0.04691549975932835,0.6883392376418637,-8.2319103116843e+43,-0.17679551497870782,,,,,,,,
36,240612_095811,FalseCHOICE,9.0,37,2.0,2583.0,,,,,,,,,,,37.0,37.0,,,B,,,,,,False,cue1.png,Hard,cue2.png,Easy,Left,Hard,Mid,0.0125257999970926,,,,,,,,,,,,,8,24,Female,1.1428571428571428,0.5,0.4,1.0,2.888888888888889,3.5,3.4444444444444446,3.4444444444444446,0.375,3.111111111111111,2.5,2.25,3.0,2.25,1.0,1.0,0.6680301666662368,0.9527403579746848,,,,,,,,,,,,,,,,,,,,,,,-8.391451409532376e+43,-0.17679591446793058,,,,,,,,
37,240612_095826,FalseCHOICE,9.0,38,2.0,2583.0,,,,,,,,,,,38.0,38.0,,,B,,,,,,False,cue2.png,Easy,cue1.png,Hard,Right,Hard,Mid,0.0167360999985248,,,,,,,,,,,,,8,24,Female,1.1428571428571428,0.5,0.4,1.0,2.888888888888889,3.5,3.4444444444444446,3.4444444444444446,0.375,3.111111111111111,2.5,2.25,3.0,2.25,1.0,1.0,0.5278629666657556,-0.24650306944070682,,,,,,,,,,,,,,,,,,,,,0.030067538217897313,-0.12450382293648939,-4.866378965845045e+43,-0.17678708772378934,,,,,,,,
38,240612_095841,FalseCHOICE,9.0,39,2.0,2583.0,,,,,,,,,,,39.0,39.0,,,B,,,,,,False,cue2.png,Easy,cue1.png,Hard,Right,Hard,Mid,0.0165311000018846,,,,,,,,,,,,,8,24,Female,1.1428571428571428,0.5,0.4,1.0,2.888888888888889,3.5,3.4444444444444446,3.4444444444444446,0.375,3.111111111111111,2.5,2.25,3.0,2.25,1.0,1.0,0.4074550000016946,-1.2766903217353307,,,,,,,,,,,,,,,,,,,0.02214946486909812,-0.2852782446519245,,,,,,,,,,,,
39,240612_095857,FalseCHOICE,9.0,40,2.0,2583.0,,,,,,,,,,,40.0,40.0,,,B,,,,,,False,cue1.png,Hard,cue2.png,Easy,Left,Hard,Mid,0.0160612000036053,,,,,,,,,,,,,8,24,Female,1.1428571428571428,0.5,0.4,1.0,2.888888888888889,3.5,3.4444444444444446,3.4444444444444446,0.375,3.111111111111111,2.5,2.25,3.0,2.25,1.0,1.0,0.5166757333342199,-0.3422188720233405,,,,,,,,,,,,,,,,,,,0.05189494550869068,1.3784316080783303,0.04905069092358661,0.7913532026611668,4.3705044422078328e+43,-0.17676395866536343,,,,,,,,
40,240612_095912,FalseCHOICE,9.0,41,2.0,2583.0,,,,,,,,,,,41.0,41.0,,,B,,,,,,False,cue1.png,Hard,cue2.png,Easy,Left,Hard,Mid,0.0153745999996317,,,,,,,,,,,,,8,24,Female,1.1428571428571428,0.5,0.4,1.0,2.888888888888889,3.5,3.4444444444444446,3.4444444444444446,0.375,3.111111111111111,2.5,2.25,3.0,2.25,0.6875,0.75,0.49464189999829,-0.5307360843867848,,,,,,,,,,,,,,,,,,,0.03603018633560603,0.49109156246744984,,,7.819328751618927e+43,-0.1767553228457445,,,,,,,,
41,240612_095928,FalseCHOICE,9.0,42,2.0,2583.0,,,,,,,,,,,42.0,42.0,,,B,,,,,,False,cue2.png,Easy,cue1.png,Hard,Right,Hard,Mid,0.0156224999955156,,,,,,,,,,,,,8,24,Female,1.1428571428571428,0.5,0.4,1.0,2.888888888888889,3.5,3.4444444444444446,3.4444444444444446,0.375,3.111111111111111,2.5,2.25,3.0,2.25,1.0,1.0,0.5313444833360942,-0.21671588681648143,,,,,,,,,,,,,,,,,,,0.06712215052240973,2.230112282457742,0.07289223587402346,1.9416071558633543,,,,,,,,,,
42,240612_095945,FalseCHOICE,9.0,43,2.0,2583.0,,,,,,,,,,,43.0,43.0,,,B,,,,,,False,cue1.png,Hard,cue2.png,Easy,Left,Hard,Mid,0.0168081000010715,,,,,,,,,,,,,8,24,Female,1.1428571428571428,0.5,0.4,1.0,2.888888888888889,3.5,3.4444444444444446,3.4444444444444446,0.375,3.111111111111111,2.5,2.25,3.0,2.25,0.6875,0.75,0.6755240499999976,1.0168565729936014,,,,,,,,,,,,,,,,,,,,,0.02336385819699662,-0.44792810022529206,6.05460976591143e+43,-0.17675974168343278,,,,,,,,
43,240612_100000,FalseCHOICE,9.0,44,2.0,2583.0,,,,,,,,,,,44.0,44.0,,,B,,,,,,False,cue2.png,Easy,cue1.png,Hard,Right,Hard,Mid,0.016494600000442,,,,,,,,,,,,,8,24,Female,1.1428571428571428,0.5,0.4,1.0,2.888888888888889,3.5,3.4444444444444446,3.4444444444444446,0.375,3.111111111111111,2.5,2.25,3.0,2.25,0.6875,0.75,0.5449390500010244,-0.100403406283076,,,,,,,,,,,,,,,,,,,,,,,6.529089739387678e+42,-0.1767732674851234,,,,,,,,
44,240612_100016,FalseCHOICE,9.0,45,2.0,2583.0,,,,,,,,,,,45.0,45.0,,,B,,,,,,False,cue1.png,Hard,cue2.png,Easy,Left,Hard,Mid,0.0160488999972585,,,,,,,,,,,,,8,24,Female,1.1428571428571428,0.5,0.4,1.0,2.888888888888889,3.5,3.4444444444444446,3.4444444444444446,0.375,3.111111111111111,2.5,2.25,3.0,2.25,1.0,1.0,0.5942457999990438,0.32145560111762594,,,,,,,,,,,,,,,,,,,0.028013133392425796,0.0426856303852665,,,-5.407313974992208e+43,-0.1767884422193349,,,,,,,,
45,240612_100032,FalseCHOICE,9.0,46,2.0,2583.0,,,,,,,,,,,46.0,46.0,,,B,,,,,,False,cue1.png,Hard,cue2.png,Easy,Left,Hard,Mid,0.0169445999999879,,,,,,,,,,,,,8,24,Female,1.1428571428571428,0.5,0.4,1.0,2.888888888888889,3.5,3.4444444444444446,3.4444444444444446,0.375,3.111111111111111,2.5,2.25,3.0,2.25,1.0,1.0,0.5060510666674721,-0.4331214631326223,,,,,,,,,,,,,,,,,,,0.018341678134876912,-0.49825353268230677,0.047809041959053375,0.73144887880494,-9.43178240909082e+43,-0.17679851944575786,,,,,,,,
46,240612_100048,FalseCHOICE,9.0,47,2.0,2583.0,,,,,,,,,,,47.0,47.0,,,B,,,,,,False,cue2.png,Easy,cue1.png,Hard,Right,Hard,Mid,0.0156631000063498,,,,,,,,,,,,,8,24,Female,1.1428571428571428,0.5,0.4,1.0,2.888888888888889,3.5,3.4444444444444446,3.4444444444444446,0.375,3.111111111111111,2.5,2.25,3.0,2.25,1.0,1.0,0.5698469000005085,0.11270333625602927,,,,,,,,,,,,,,,,,,,0.012703302648600165,-0.8136164264129713,0.013625111771291104,-0.9177815261961703,-6.244904696189149e+43,-0.17679053953764798,,,,,,,,
47,240612_100106,FalseCHOICE,9.0,48,2.0,2583.0,,,,,,,,,,,48.0,48.0,,,B,,,,,,False,cue2.png,Easy,cue1.png,Hard,Right,Hard,Mid,0.017507900003693,,,,,,,,,,,,,8,24,Female,1.1428571428571428,0.5,0.4,1.0,2.888888888888889,3.5,3.4444444444444446,3.4444444444444446,0.375,3.111111111111111,2.5,2.25,3.0,2.25,0.6875,0.5833333333333334,0.4958449999976437,-0.5204425937074858,,,,,,,,,,,,,,,,,,,0.012522211050480903,-0.8237451541914246,0.016600529834443958,-0.7742301583344975,,,,,,,,,,
48,240612_100121,FalseCHOICE,9.0,49,2.0,2583.0,,,,,,,,,,,49.0,49.0,,,B,,,,,,False,cue1.png,Hard,cue2.png,Easy,Left,Hard,Mid,0.0161653999966802,,,,,,,,,,,,,8,24,Female,1.1428571428571428,0.5,0.4,1.0,2.888888888888889,3.5,3.4444444444444446,3.4444444444444446,0.375,3.111111111111111,2.5,2.25,3.0,2.25,0.6875,0.75,0.5041702166672621,-0.4492136516096577,,,,,,,,,,,,,,,,,,,0.01069031387620587,-0.9262059419311727,0.012531934065094688,-0.9705227382576765,,,,,,,,,,
49,240612_100137,FalseCHOICE,9.0,50,2.0,2583.0,,,,,,,,,,,50.0,50.0,,,B,,,,,,False,cue2.png,Easy,cue1.png,Hard,Right,Hard,Mid,0.0165620999978273,,,,,,,,,,,,,8,24,Female,1.1428571428571428,0.5,0.4,1.0,2.888888888888889,3.5,3.4444444444444446,3.4444444444444446,0.375,3.111111111111111,2.5,2.25,3.0,2.25,1.0,1.0,0.525548350000463,-0.26630648152876174,,,,,,,,,,,,,,,,,,,0.08830707752568435,3.41501738490903,0.03559420757576944,0.14213465582607626,-2.6242220730479134e+43,-0.17678147338662792,,,,,,,,
0,240612_092656,OFFLINERATING,9.0,1,1.0,,,,,,,,,,,,,,,,,T0,cue2.png,Easy,34.0,2.328686399996513,,,,,,,,,,,,,,,,,,,,,,8,24,Female,1.1428571428571428,0.5,0.4,1.0,2.888888888888889,3.5,3.4444444444444446,3.4444444444444446,0.375,3.111111111111111,2.5,2.25,3.0,2.25,,,,,,,,,,,,,,,,,,,,,,,,,,,,,-0.5897678246195885,,,,,79400084.04503371,-0.5948377879335619,
1,240612_092704,OFFLINERATING,9.0,2,3.0,,,,,,,,,,,,,,,,,T0,cue1.png,Hard,67.0,1.8186191999993755,,,,,,,,,,,,,,,,,,,,,,8,24,Female,1.1428571428571428,0.5,0.4,1.0,2.888888888888889,3.5,3.4444444444444446,3.4444444444444446,0.375,3.111111111111111,2.5,2.25,3.0,2.25,,,,,,,,,,,,,,,,,,,,,,,,,,,,,1.8430244519362142,0.010591462004551175,1.0,,,,,
2,240612_094301,OFFLINERATING,9.0,3,1.0,,,,,,,,,,,,,,,,,T1,cue2.png,Easy,20.0,1.8856199000001648,,,,,,,,,,,,,,,,,,,,,,8,24,Female,1.1428571428571428,0.5,0.4,1.0,2.888888888888889,3.5,3.4444444444444446,3.4444444444444446,0.375,3.111111111111111,2.5,2.25,3.0,2.25,,,,,,,,,,,,,,,,,,,,,,,,,,,,,-1.6218615177038684,,,0.01640676375946817,-0.3987109964702588,,,
3,240612_094309,OFFLINERATING,9.0,4,3.0,,,,,,,,,,,,,,,,,T1,cue1.png,Hard,40.0,1.2518568999948911,,,,,,,,,,,,,,,,,,,,,,8,24,Female,1.1428571428571428,0.5,0.4,1.0,2.888888888888889,3.5,3.4444444444444446,3.4444444444444446,0.375,3.111111111111111,2.5,2.25,3.0,2.25,,,,,,,,,,,,,,,,,,,,,,,,,,,,,-0.14744195615489714,,,0.015973221400796114,-0.44521474667099853,-7550.25024578537,-0.813718363321773,
4,240612_094653,OFFLINERATING,9.0,5,1.0,,,,,,,,,,,,,,,,,T2,cue2.png,Easy,47.0,1.3853797000047052,,,,,,,,,,,,,,,,,,,,,,8,24,Female,1.1428571428571428,0.5,0.4,1.0,2.888888888888889,3.5,3.4444444444444446,3.4444444444444446,0.375,3.111111111111111,2.5,2.25,3.0,2.25,,,,,,,,,,,,,,,,,,,,,,,,,,,,,0.3686048903872428,,,,,806210916.8031952,1.4085561512553348,
5,240612_094700,OFFLINERATING,9.0,6,3.0,,,,,,,,,,,,,,,,,T2,cue1.png,Hard,56.0,0.8348636000009719,,,,,,,,,,,,,,,,,,,,,,8,24,Female,1.1428571428571428,0.5,0.4,1.0,2.888888888888889,3.5,3.4444444444444446,3.4444444444444446,0.375,3.111111111111111,2.5,2.25,3.0,2.25,,,,,,,,,,,,,,,,,,,,,,,,,,,,,1.03209369308428,,,0.012106558374082768,-0.8599708319944409,,,
6,240612_100201,OFFLINERATING,9.0,7,1.0,,,,,,,,,,,,,,,,,T3,cue2.png,Easy,35.0,1.8151178999978583,,,,,,,,,,,,,,,,,,,,,,8,24,Female,1.1428571428571428,0.5,0.4,1.0,2.888888888888889,3.5,3.4444444444444446,3.4444444444444446,0.375,3.111111111111111,2.5,2.25,3.0,2.25,,,,,,,,,,,,,,,,,,,,,,,,,,,,,-0.51604684654214,0.0102649711507272,-1.0,0.036008826862354654,1.7038965751356978,,,
7,240612_100209,OFFLINERATING,9.0,8,3.0,,,,,,,,,,,,,,,,,T3,cue1.png,Hard,37.0,1.4519204000025638,,,,,,,,,,,,,,,,,,,,,,8,24,Female,1.1428571428571428,0.5,0.4,1.0,2.888888888888889,3.5,3.4444444444444446,3.4444444444444446,0.375,3.111111111111111,2.5,2.25,3.0,2.25,,,,,,,,,,,,,,,,,,,,,,,,,,,,,-0.3686048903872428,,,,,,,
0,240612_094725,LEARNINGCHECK,9.0,1,,,,,,,,,,,,1.0,1.0,1.0,,,B,,,,,,,,,,,,,,,cue2.png,Easy,Left,Left,Easy,0.0139001999996253,1.0,,,,,,8,24,Female,1.1428571428571428,0.5,0.4,1.0,2.888888888888889,3.5,3.4444444444444446,3.4444444444444446,0.375,3.111111111111111,2.5,2.25,3.0,2.25,,,,,,,,,,,,,,,,,,,,,,,,,,,,,,,,,,,,
1,240612_094730,LEARNINGCHECK,9.0,2,,,,,,,,,,,,2.0,2.0,2.0,,,B,,,,,,,,,,,,,,,cue1.png,Hard,Right,Right,Hard,0.015942999998515,1.0,,,,,,8,24,Female,1.1428571428571428,0.5,0.4,1.0,2.888888888888889,3.5,3.4444444444444446,3.4444444444444446,0.375,3.111111111111111,2.5,2.25,3.0,2.25,,,,,,,,,,,,,,,,,,,,,,,,,,,,,,,,,,,,
2,240612_100227,LEARNINGCHECK,9.0,1,,,,,,,,,,,,1.0,1.0,1.0,,,B,,,,,,,,,,,,,,,cue2.png,Easy,Middle,Middle,Mid,0.0155366000035428,1.0,,,,,,8,24,Female,1.1428571428571428,0.5,0.4,1.0,2.888888888888889,3.5,3.4444444444444446,3.4444444444444446,0.375,3.111111111111111,2.5,2.25,3.0,2.25,,,,,,,,,,,,,,,,,,,,,,,,,,,,,,,,,,,,
3,240612_100231,LEARNINGCHECK,9.0,2,,,,,,,,,,,,2.0,2.0,2.0,,,B,,,,,,,,,,,,,,,cue1.png,Hard,Middle,Middle,Mid,0.0142312999960267,1.0,,,,,,8,24,Female,1.1428571428571428,0.5,0.4,1.0,2.888888888888889,3.5,3.4444444444444446,3.4444444444444446,0.375,3.111111111111111,2.5,2.25,3.0,2.25,,,,,,,,,,,,,,,,,,,,,,,,,,,,,,,,,,,,
0,240612_100250,DEMANDRATING,9.0,-1,,,,,,,,,,,,,,,,,,,,,,,,,,,,,,,,,,,,,,,1.0,MentalDemand,1.0,33.0,4.579249700000219,8,24,Female,1.1428571428571428,0.5,0.4,1.0,2.888888888888889,3.5,3.4444444444444446,3.4444444444444446,0.375,3.111111111111111,2.5,2.25,3.0,2.25,,,,,,,,,,,,,,,,,,,,,,,,,,,,,,,,,,,,-1.9122101992139586
1,240612_100301,DEMANDRATING,9.0,-1,,,,,,,,,,,,,,,,,,,,,,,,,,,,,,,,,,,,,,,2.0,Effort,1.0,55.0,9.674847099995532,8,24,Female,1.1428571428571428,0.5,0.4,1.0,2.888888888888889,3.5,3.4444444444444446,3.4444444444444446,0.375,3.111111111111111,2.5,2.25,3.0,2.25,,,,,,,,,,,,,,,,,,,,,,,,,,,,,,,,,,,,-0.545359587501454
2,240612_100309,DEMANDRATING,9.0,-1,,,,,,,,,,,,,,,,,,,,,,,,,,,,,,,,,,,,,,,3.0,Frustration,1.0,47.0,6.249211800000921,8,24,Female,1.1428571428571428,0.5,0.4,1.0,2.888888888888889,3.5,3.4444444444444446,3.4444444444444446,0.375,3.111111111111111,2.5,2.25,3.0,2.25,,,,,,,,,,,,,,,,,,,,,,,,,,,,,,,,,,,,-1.0423961735787284
3,240612_100314,DEMANDRATING,9.0,-1,,,,,,,,,,,,,,,,,,,,,,,,,,,,,,,,,,,,,,,4.0,MentalDemand,2.0,79.0,3.56049570000323,8,24,Female,1.1428571428571428,0.5,0.4,1.0,2.888888888888889,3.5,3.4444444444444446,3.4444444444444446,0.375,3.111111111111111,2.5,2.25,3.0,2.25,,,,,,,,,,,,,,,,,,,,,,,,,,,,,,,,,,,,0.9457501707303694
4,240612_100318,DEMANDRATING,9.0,-1,,,,,,,,,,,,,,,,,,,,,,,,,,,,,,,,,,,,,,,5.0,Effort,2.0,87.0,2.155604999999923,8,24,Female,1.1428571428571428,0.5,0.4,1.0,2.888888888888889,3.5,3.4444444444444446,3.4444444444444446,0.375,3.111111111111111,2.5,2.25,3.0,2.25,,,,,,,,,,,,,,,,,,,,,,,,,,,,,,,,,,,,1.4427867568076438
5,240612_100322,DEMANDRATING,9.0,-1,,,,,,,,,,,,,,,,,,,,,,,,,,,,,,,,,,,,,,,6.0,Frustration,2.0,77.0,2.736637800000608,8,24,Female,1.1428571428571428,0.5,0.4,1.0,2.888888888888889,3.5,3.4444444444444446,3.4444444444444446,0.375,3.111111111111111,2.5,2.25,3.0,2.25,,,,,,,,,,,,,,,,,,,,,,,,,,,,,,,,,,,,0.8214910242110508
6,240612_100327,DEMANDRATING,9.0,-1,,,,,,,,,,,,,,,,,,,,,,,,,,,,,,,,,,,,,,,7.0,MentalDemand,3.0,59.0,3.084016900000279,8,24,Female,1.1428571428571428,0.5,0.4,1.0,2.888888888888889,3.5,3.4444444444444446,3.4444444444444446,0.375,3.111111111111111,2.5,2.25,3.0,2.25,,,,,,,,,,,,,,,,,,,,,,,,,,,,,,,,,,,,-0.2968412944628167
7,240612_100330,DEMANDRATING,9.0,-1,,,,,,,,,,,,,,,,,,,,,,,,,,,,,,,,,,,,,,,8.0,Effort,3.0,66.0,2.181095899999491,8,24,Female,1.1428571428571428,0.5,0.4,1.0,2.888888888888889,3.5,3.4444444444444446,3.4444444444444446,0.375,3.111111111111111,2.5,2.25,3.0,2.25,,,,,,,,,,,,,,,,,,,,,,,,,,,,,,,,,,,,0.13806571835479842
8,240612_100334,DEMANDRATING,9.0,-1,,,,,,,,,,,,,,,,,,,,,,,,,,,,,,,,,,,,,,,9.0,Frustration,3.0,71.0,2.2584694999968637,8,24,Female,1.1428571428571428,0.5,0.4,1.0,2.888888888888889,3.5,3.4444444444444446,3.4444444444444446,0.375,3.111111111111111,2.5,2.25,3.0,2.25,,,,,,,,,,,,,,,,,,,,,,,,,,,,,,,,,,,,0.44871358465309497
