,END,Phase,Block,TrialN,NbackLevel,ISI,Letter_Resp,Letter_RT,Letter_Accuracy,Trial_A_measure,Trial_ACC,Trial_RT,TrialCountCali,CaliEnd_A_measure,ISI_calibrated,TrialIndex,TrialNumber_total,TrialNumber_valid,CueLearning,TrialDemandLearning,CueMapping,OfflineRatingTimePoint,CueFigure,TrialDemand,OfflineRating,OfflineRatingRT,PhaseType,CueLeft,CueDemandLeft,CueRight,CueDemandRight,Choice,ChoiceDemand,TaskDemand,ChoiceRT,CueCheck,CueDemandCheck,CorrectAnswer,Answer,AnswerDemand,AnswerRT,AnswerACC,DemandRatingQuesIndex,QuesTLX,DemandLevel,DemandRating,DemandRatingRT,PID,Age,Gender,BAI_bis,BAI_bas_d,BAI_bas_rr,BAI_bas_fs,NFC,BFI_ext,BFI_agr,BFI_con,BFI_neu,BFI_open,UPPS_lps,UPPS_lpm,UPPS_pu,UPPS_ss,Task_A_measure,Task_ACC,Task_RT,Task_RT_z,cue_i_on_zyg_values,cue_i_on_zyg_zvalues,cue_e_on_zyg_values,cue_e_on_zyg_zvalues,cue_i_on_cor_values,cue_i_on_cor_zvalues,cue_e_on_cor_values,cue_e_on_cor_zvalues,cue_i_on_scr_values,cue_i_on_scr_zvalues,cue_e_on_scr_values,cue_e_on_scr_zvalues,cue_e_true_zyg_values,cue_e_true_zyg_zvalues,cue_e_true_cor_values,cue_e_true_cor_zvalues,cue_e_true_scr_values,cue_e_true_scr_zvalues,cue_e_false_zyg_values,cue_e_false_zyg_zvalues,cue_e_false_cor_values,cue_e_false_cor_zvalues,cue_e_false_scr_values,cue_e_false_scr_zvalues,OfflineRating_z,cue_i_off_zyg_values,cue_i_off_zyg_zvalues,cue_i_off_cor_values,cue_i_off_cor_zvalues,cue_i_off_scr_values,cue_i_off_scr_zvalues,DemandRating_z
0,240612_145821,PRACTICE,0.0,1,1.0,679.0,,,,,,,,,,29.0,1.0,1.0,cue1.png,Easy,A,,,,,,,,,,,,,,,,,,,,,,,,,,,9,19,Female,0.7142857142857143,1.25,0.0,1.0,3.2222222222222223,2.125,1.5555555555555556,2.3333333333333335,2.625,3.3333333333333335,2.0,2.0,1.5,1.0,,,,,,,,,,,,,,,,,,,,,,,,,,,,,,,,,,,,
1,240612_150122,PRACTICE,0.0,1,3.0,679.0,,,,,,,,,,39.0,1.0,1.0,cue2.png,Hard,A,,,,,,,,,,,,,,,,,,,,,,,,,,,9,19,Female,0.7142857142857143,1.25,0.0,1.0,3.2222222222222223,2.125,1.5555555555555556,2.3333333333333335,2.625,3.3333333333333335,2.0,2.0,1.5,1.0,,,,,,,,,,,,,,,,,,,,,,,,,,,,,,,,,,,,
2,240612_150250,PRACTICE,0.0,1,3.0,679.0,,,,,,,,,,3.0,1.0,1.0,cue2.png,Hard,A,,,,,,,,,,,,,,,,,,,,,,,,,,,9,19,Female,0.7142857142857143,1.25,0.0,1.0,3.2222222222222223,2.125,1.5555555555555556,2.3333333333333335,2.625,3.3333333333333335,2.0,2.0,1.5,1.0,,,,,,,,,,,,,,,,,,,,,,,,,,,,,,,,,,,,
0,240612_150406,LEARNING,1.0,1,1.0,679.0,,,,,,,,,,1.0,1.0,1.0,cue1.png,Easy,A,,,,,,,,,,,,,,,,,,,,,,,,,,,9,19,Female,0.7142857142857143,1.25,0.0,1.0,3.2222222222222223,2.125,1.5555555555555556,2.3333333333333335,2.625,3.3333333333333335,2.0,2.0,1.5,1.0,0.725,0.8,0.495365457144674,0.8155016402654294,0.02625907469381458,0.018840018830527945,0.031188924648899545,0.17900054319081168,0.017787850785185445,-1.1316291754945895,0.021289513670100783,-0.37590301466382375,4.1760842563810265e+45,-0.16657829439712085,,,,,,,,,,,,,,,,,,,,,,
1,240612_150431,LEARNING,1.0,2,3.0,679.0,,,,,,,,,,2.0,2.0,2.0,cue2.png,Hard,A,,,,,,,,,,,,,,,,,,,,,,,,,,,9,19,Female,0.7142857142857143,1.25,0.0,1.0,3.2222222222222223,2.125,1.5555555555555556,2.3333333333333335,2.625,3.3333333333333335,2.0,2.0,1.5,1.0,0.725,0.8,0.5374553071461767,1.1009858786003675,0.04841231134501361,1.1134892031086006,0.013894490417794454,-0.7119163473300383,0.015516618117257798,-1.4126921052173982,0.0263234835072256,0.4398960149758133,9.688643312075014e+44,-0.16851926186619184,2.3434558286417925e+45,-0.1684071843822088,,,,,,,,,,,,,,,,,,,,
2,240612_150457,LEARNING,1.0,3,1.0,679.0,,,,,,,,,,3.0,3.0,3.0,cue1.png,Easy,A,,,,,,,,,,,,,,,,,,,,,,,,,,,9,19,Female,0.7142857142857143,1.25,0.0,1.0,3.2222222222222223,2.125,1.5555555555555556,2.3333333333333335,2.625,3.3333333333333335,2.0,2.0,1.5,1.0,0.725,0.8,0.5570826999994877,1.2341132548924671,,,0.06272664552772313,1.8036554954147443,0.033147121278158415,0.7690662592443727,0.017217535932011974,-1.0358027746799443,-4.435129810251944e+44,-0.16937401410677894,-1.2281860296306858e+45,-0.16936511943553717,,,,,,,,,,,,,,,,,,,,
3,240612_150522,LEARNING,1.0,4,3.0,679.0,,,,,,,,,,4.0,4.0,4.0,cue2.png,Hard,A,,,,,,,,,,,,,,,,,,,,,,,,,,,9,19,Female,0.7142857142857143,1.25,0.0,1.0,3.2222222222222223,2.125,1.5555555555555556,2.3333333333333335,2.625,3.3333333333333335,2.0,2.0,1.5,1.0,0.725,0.8,0.44047215000007,0.44317496342282753,0.015187747434584717,-0.5282231279234979,0.012001439063616233,-0.8094362432412546,0.02600559416991055,-0.11469107662137998,0.018981432450247582,-0.7499478501333107,-6.1034104065194744e+44,-0.16947497626223396,-1.684429640909228e+45,-0.16948748661719862,,,,,,,,,,,,,,,,,,,,
4,240612_150546,LEARNING,1.0,5,3.0,679.0,,,,,,,,,,5.0,5.0,5.0,cue2.png,Hard,A,,,,,,,,,,,,,,,,,,,,,,,,,,,9,19,Female,0.7142857142857143,1.25,0.0,1.0,3.2222222222222223,2.125,1.5555555555555556,2.3333333333333335,2.625,3.3333333333333335,2.0,2.0,1.5,1.0,0.725,0.8,0.454990957143309,0.5416521639514932,0.02772461129106019,0.0912560032739452,,,0.018373324792823383,-1.0591773117172782,0.016213099881410325,-1.1985804594751137,1.005505055950819e+49,5.916079224364818,2.268823226016968e+49,5.916079716580178,,,,,,,,,,,,,,,,,,,,
5,240612_150613,LEARNING,1.0,6,1.0,679.0,,,,,,,,,,6.0,6.0,6.0,cue1.png,Easy,A,,,,,,,,,,,,,,,,,,,,,,,,,,,9,19,Female,0.7142857142857143,1.25,0.0,1.0,3.2222222222222223,2.125,1.5555555555555556,2.3333333333333335,2.625,3.3333333333333335,2.0,2.0,1.5,1.0,0.725,0.8,0.6016041928534313,1.5360906788198196,0.03667297199365527,0.5334178371381404,,,0.01949616979867877,-0.9202262868280956,0.029108777268727157,0.8912773345730935,-1.030406232750412e+44,-0.1691679646976555,-2.2344593985313315e+44,-0.1690956423183808,,,,,,,,,,,,,,,,,,,,
6,240612_150632,LEARNING,1.0,7,3.0,679.0,,,,,,,,,,7.0,7.0,7.0,cue2.png,Hard,A,,,,,,,,,,,,,,,,,,,,,,,,,,,9,19,Female,0.7142857142857143,1.25,0.0,1.0,3.2222222222222223,2.125,1.5555555555555556,2.3333333333333335,2.625,3.3333333333333335,2.0,2.0,1.5,1.0,0.0291666666666666,0.7,0.1057725357168237,-1.8270033444409137,,,0.009417616221842815,-0.9425409971226671,0.017829876426766984,-1.1264285414454298,0.023091586685970528,-0.08386125333972627,,,,,,,,,,,,,,,,,,,,,,,,
7,240612_150655,LEARNING,1.0,8,3.0,679.0,,,,,,,,,,8.0,8.0,8.0,cue2.png,Hard,A,,,,,,,,,,,,,,,,,,,,,,,,,,,9,19,Female,0.7142857142857143,1.25,0.0,1.0,3.2222222222222223,2.125,1.5555555555555556,2.3333333333333335,2.625,3.3333333333333335,2.0,2.0,1.5,1.0,0.8875,0.9,0.2987111071384528,-0.5183524201499435,0.011095140383998154,-0.7304495131705853,,,0.016158345964826466,-1.3332788810817424,0.016508370051927842,-1.1507293347398688,,,3.64154623055183e+44,-0.16893804444073762,,,,,,,,,,,,,,,,,,,,
8,240612_150718,LEARNING,1.0,9,1.0,679.0,,,,,,,,,,9.0,9.0,9.0,cue1.png,Easy,A,,,,,,,,,,,,,,,,,,,,,,,,,,,9,19,Female,0.7142857142857143,1.25,0.0,1.0,3.2222222222222223,2.125,1.5555555555555556,2.3333333333333335,2.625,3.3333333333333335,2.0,2.0,1.5,1.0,0.15,0.6,0.3811286142871332,0.040663571899571795,0.012350751767547262,-0.6684064808853728,0.05249999656061023,1.2768331561304895,0.02467096747674599,-0.2798498882940579,0.01548573645659173,-1.3164560915033914,,,,,,,,,,,,,,,,,,,,,,,,
9,240612_150738,LEARNING,1.0,10,1.0,679.0,,,,,,,,,,10.0,10.0,10.0,cue1.png,Easy,A,,,,,,,,,,,,,,,,,,,,,,,,,,,9,19,Female,0.7142857142857143,1.25,0.0,1.0,3.2222222222222223,2.125,1.5555555555555556,2.3333333333333335,2.625,3.3333333333333335,2.0,2.0,1.5,1.0,0.0291666666666666,0.7,0.1352229071438029,-1.6272493216726691,0.06488044950740338,1.927222847987209,0.020060008221773624,-0.39430179706665747,0.01974285370207236,-0.8896993832737701,0.013289271032604452,-1.6724126068386669,2.6652217300595897e+44,-0.16894431013635455,6.892363746680296e+44,-0.16885085563026211,,,,,,,,,,,,,,,,,,,,
10,240612_150757,LEARNING,1.0,11,3.0,679.0,,,,,,,,,,11.0,11.0,11.0,cue2.png,Hard,A,,,,,,,,,,,,,,,,,,,,,,,,,,,9,19,Female,0.7142857142857143,1.25,0.0,1.0,3.2222222222222223,2.125,1.5555555555555556,2.3333333333333335,2.625,3.3333333333333335,2.0,2.0,1.5,1.0,0.725,0.8,0.0951672857128349,-1.8989359296041362,0.03301390866511331,0.3526139775994724,0.02566637886813046,-0.10549152223406826,,,,,,,6.2579904733147794e+44,-0.16886786988923783,,,,,,,,,,,,,,,,,,,,
11,240612_150821,LEARNING,1.0,12,1.0,679.0,,,,,,,,,,12.0,12.0,12.0,cue1.png,Easy,A,,,,,,,,,,,,,,,,,,,,,,,,,,,9,19,Female,0.7142857142857143,1.25,0.0,1.0,3.2222222222222223,2.125,1.5555555555555556,2.3333333333333335,2.625,3.3333333333333335,2.0,2.0,1.5,1.0,0.8875,0.9,0.4292861642866877,0.3673034026713296,,,0.04541374776636669,0.9117874624199778,0.03915580839769779,1.512635700391228,0.01370931819822311,-1.6043402740274118,,,1.8195375072565654e+44,-0.16898691177102362,,,,,,,,,,,,,,,,,,,,
12,240612_150848,LEARNING,1.0,13,1.0,679.0,,,,,,,,,,13.0,13.0,13.0,cue1.png,Easy,A,,,,,,,,,,,,,,,,,,,,,,,,,,,9,19,Female,0.7142857142857143,1.25,0.0,1.0,3.2222222222222223,2.125,1.5555555555555556,2.3333333333333335,2.625,3.3333333333333335,2.0,2.0,1.5,1.0,1.0,1.0,0.6063273142852788,1.5681263530853793,0.010313053575591199,-0.7690944615515695,0.023156792759111165,-0.23477199610585922,,,0.018203841244572538,-0.8759633352416469,,,,,,,,,,,,,,,,,,,,,,,,
13,240612_150913,LEARNING,1.0,14,1.0,679.0,,,,,,,,,,14.0,14.0,14.0,cue1.png,Easy,A,,,,,,,,,,,,,,,,,,,,,,,,,,,9,19,Female,0.7142857142857143,1.25,0.0,1.0,3.2222222222222223,2.125,1.5555555555555556,2.3333333333333335,2.625,3.3333333333333335,2.0,2.0,1.5,1.0,0.725,0.8,0.4813891571435046,0.7207041211383243,,,,,,,0.020635416010486875,-0.4819052858866803,,,,,,,,,,,,,,,,,,,,,,,,
14,240612_150935,LEARNING,1.0,15,3.0,679.0,,,,,,,,,,15.0,15.0,15.0,cue2.png,Hard,A,,,,,,,,,,,,,,,,,,,,,,,,,,,9,19,Female,0.7142857142857143,1.25,0.0,1.0,3.2222222222222223,2.125,1.5555555555555556,2.3333333333333335,2.625,3.3333333333333335,2.0,2.0,1.5,1.0,0.0291666666666666,0.7,0.296840828571086,-0.5310380213640082,0.011818382158228584,-0.6947122513581306,0.008810249249773142,-0.9738292998754772,0.01966051383695068,-0.8998888649816025,0.025778399001305286,0.3515602828619764,,,,,,,,,,,,,,,,,,,,,,,,
15,240612_150959,LEARNING,1.0,16,1.0,679.0,,,,,,,,,,16.0,16.0,16.0,cue1.png,Easy,A,,,,,,,,,,,,,,,,,,,,,,,,,,,9,19,Female,0.7142857142857143,1.25,0.0,1.0,3.2222222222222223,2.125,1.5555555555555556,2.3333333333333335,2.625,3.3333333333333335,2.0,2.0,1.5,1.0,0.0291666666666666,0.7,0.4282839714287547,0.3605057955356067,,,0.009679824632771429,-0.9290334201177611,0.028525106238253543,0.19709619792790178,,,,,,,,,,,,,,,,,,,,,,,,,,
16,240612_151024,LEARNING,1.0,17,1.0,679.0,,,,,,,,,,17.0,17.0,17.0,cue1.png,Easy,A,,,,,,,,,,,,,,,,,,,,,,,,,,,9,19,Female,0.7142857142857143,1.25,0.0,1.0,3.2222222222222223,2.125,1.5555555555555556,2.3333333333333335,2.625,3.3333333333333335,2.0,2.0,1.5,1.0,0.725,0.7285714285714286,0.4065515769247073,0.21310075389348018,0.009065917058925767,-0.8307187285670768,0.023739332571254802,-0.20476265604279048,0.02365295583000977,-0.40582788251897084,,,,,,,,,,,,,,,,,,,,,,,,,,
17,240612_151050,LEARNING,1.0,18,3.0,679.0,,,,,,,,,,18.0,18.0,18.0,cue2.png,Hard,A,,,,,,,,,,,,,,,,,,,,,,,,,,,9,19,Female,0.7142857142857143,1.25,0.0,1.0,3.2222222222222223,2.125,1.5555555555555556,2.3333333333333335,2.625,3.3333333333333335,2.0,2.0,1.5,1.0,0.8875,0.9,0.5891126214275053,1.4513636780343662,0.021948213019639617,-0.19417089643524754,0.006058686748124181,-1.1155751052186693,,,0.037817580254218455,2.3026153550139212,,,,,,,,,,,,,,,,,,,,,,,,
18,240612_151116,LEARNING,1.0,19,3.0,679.0,,,,,,,,,,19.0,19.0,19.0,cue2.png,Hard,A,,,,,,,,,,,,,,,,,,,,,,,,,,,9,19,Female,0.7142857142857143,1.25,0.0,1.0,3.2222222222222223,2.125,1.5555555555555556,2.3333333333333335,2.625,3.3333333333333335,2.0,2.0,1.5,1.0,0.725,0.8,0.5235816785706058,1.0068847523977962,0.01781696347518571,-0.3983067080590026,0.032764534838729,0.26016756561188153,0.030364739781571386,0.42474913749795545,,,,,,,,,,,,,,,,,,,,,,,,,,
19,240612_151140,LEARNING,1.0,20,3.0,679.0,,,,,,,,,,20.0,20.0,20.0,cue2.png,Hard,A,,,,,,,,,,,,,,,,,,,,,,,,,,,9,19,Female,0.7142857142857143,1.25,0.0,1.0,3.2222222222222223,2.125,1.5555555555555556,2.3333333333333335,2.625,3.3333333333333335,2.0,2.0,1.5,1.0,0.5625,0.7285714285714286,0.3682359461538279,-0.04678396098568164,0.004527526489505821,-1.0549724397954068,,,,,,,8.030565584309239e+43,-0.16905700593223055,2.0080047989729e+44,-0.16898185696899404,,,,,,,,,,,,,,,,,,,,
20,240612_151205,LEARNING,1.0,21,1.0,679.0,,,,,,,,,,21.0,21.0,21.0,cue1.png,Easy,A,,,,,,,,,,,,,,,,,,,,,,,,,,,9,19,Female,0.7142857142857143,1.25,0.0,1.0,3.2222222222222223,2.125,1.5555555555555556,2.3333333333333335,2.625,3.3333333333333335,2.0,2.0,1.5,1.0,1.0,1.0,0.4764961428539079,0.6875161088841202,0.03097579015363756,0.25190522784988584,0.034828224504215674,0.36647783602642964,0.020730766922404054,-0.7674460413157783,0.03537647372541845,1.9070125997579512,4.308682512972975e+43,-0.16907953028083678,1.0098013143528248e+44,-0.1690086293651697,,,,,,,,,,,,,,,,,,,,
21,240612_151229,LEARNING,1.0,22,3.0,679.0,,,,,,,,,,22.0,22.0,22.0,cue2.png,Hard,A,,,,,,,,,,,,,,,,,,,,,,,,,,,9,19,Female,0.7142857142857143,1.25,0.0,1.0,3.2222222222222223,2.125,1.5555555555555556,2.3333333333333335,2.625,3.3333333333333335,2.0,2.0,1.5,1.0,0.15,0.5285714285714286,0.3659862153849994,-0.062043285382768695,,,0.0839650112159551,2.897742672008972,0.02409125430974616,-0.35158885340172713,0.01673702561858647,-1.11367369169129,-7.108472788193664e+42,-0.16910990781734256,-1.4726218641881766e+43,-0.16903966247907917,,,,,,,,,,,,,,,,,,,,
22,240612_151251,LEARNING,1.0,23,3.0,679.0,,,,,,,,,,23.0,23.0,23.0,cue2.png,Hard,A,,,,,,,,,,,,,,,,,,,,,,,,,,,9,19,Female,0.7142857142857143,1.25,0.0,1.0,3.2222222222222223,2.125,1.5555555555555556,2.3333333333333335,2.625,3.3333333333333335,2.0,2.0,1.5,1.0,0.725,0.7285714285714286,0.2146634769238657,-1.0884251026330425,,,0.010797462573681672,-0.8714586821565151,0.0260391011286048,-0.11054462165457139,0.028184434371856713,0.7414794488646849,-4.445354534995086e+43,-0.16913250856586112,-1.1979799027188324e+44,-0.1690678433373941,,,,,,,,,,,,,,,,,,,,
23,240612_151312,LEARNING,1.0,24,3.0,679.0,,,,,,,,,,24.0,24.0,24.0,cue2.png,Hard,A,,,,,,,,,,,,,,,,,,,,,,,,,,,9,19,Female,0.7142857142857143,1.25,0.0,1.0,3.2222222222222223,2.125,1.5555555555555556,2.3333333333333335,2.625,3.3333333333333335,2.0,2.0,1.5,1.0,0.0291666666666666,0.7,0.2452280285714161,-0.8811138922856958,0.017782766684532172,-0.3999964606483514,0.023264697811762384,-0.22921330406107357,0.027599810827271306,0.08259175162340598,0.015098027956933062,-1.3792876594384968,-6.83314186425397e+43,-0.16914695914186548,-1.7388882927413555e+44,-0.16908235081401138,,,,,,,,,,,,,,,,,,,,
24,240612_151336,LEARNING,1.0,25,1.0,679.0,,,,,,,,,,25.0,25.0,25.0,cue1.png,Easy,A,,,,,,,,,,,,,,,,,,,,,,,,,,,9,19,Female,0.7142857142857143,1.25,0.0,1.0,3.2222222222222223,2.125,1.5555555555555556,2.3333333333333335,2.625,3.3333333333333335,2.0,2.0,1.5,1.0,1.0,1.0,0.4305735642857534,0.37603549385608187,0.020325485541934144,-0.27435409213454365,0.04829415267062874,1.0601705402619046,,,,,-7.174971596146864e+43,-0.16914902785060718,-1.826275375617151e+44,-0.16908469458623765,,,,,,,,,,,,,,,,,,,,
25,240612_151401,LEARNING,1.0,26,1.0,679.0,,,,,,,,,,26.0,26.0,26.0,cue1.png,Easy,A,,,,,,,,,,,,,,,,,,,,,,,,,,,9,19,Female,0.7142857142857143,1.25,0.0,1.0,3.2222222222222223,2.125,1.5555555555555556,2.3333333333333335,2.625,3.3333333333333335,2.0,2.0,1.5,1.0,1.0,1.0,0.4868678500008952,0.7578646350723816,0.03299880091731051,0.3518674643892808,0.037390138523225105,0.49845396436328654,0.018713341738567334,-1.0171005310000505,0.021356543670729432,-0.3650402142818436,-5.418761718544819e+43,-0.16913839949857387,-1.376078871521622e+44,-0.169072620054992,,,,,,,,,,,,,,,,,,,,
26,240612_151424,LEARNING,1.0,27,3.0,679.0,,,,,,,,,,27.0,27.0,27.0,cue2.png,Hard,A,,,,,,,,,,,,,,,,,,,,,,,,,,,9,19,Female,0.7142857142857143,1.25,0.0,1.0,3.2222222222222223,2.125,1.5555555555555556,2.3333333333333335,2.625,3.3333333333333335,2.0,2.0,1.5,1.0,0.0291666666666666,0.7,0.3766946500015495,0.010589173515424991,0.01703961584182804,-0.436717481444092,,,0.029561638002587064,0.32536603947617065,,,1.1704994588518682e+44,-0.16903476876941984,,,,,,,,,,,,,,,,,,,,,,
27,240612_151450,LEARNING,1.0,28,1.0,679.0,,,,,,,,,,28.0,28.0,28.0,cue1.png,Easy,A,,,,,,,,,,,,,,,,,,,,,,,,,,,9,19,Female,0.7142857142857143,1.25,0.0,1.0,3.2222222222222223,2.125,1.5555555555555556,2.3333333333333335,2.625,3.3333333333333335,2.0,2.0,1.5,1.0,1.0,0.9285714285714286,0.4493884769225797,0.503652033313243,,,0.026163373052333252,-0.07988903606539495,0.022902128838500072,-0.4987420242221319,0.02678953042291525,0.5154230113400419,1.1820067625195678e+43,-0.16909845251273717,3.3725204913957916e+43,-0.16902666752637968,,,,,,,,,,,,,,,,,,,,
28,240612_151514,LEARNING,1.0,29,1.0,679.0,,,,,,,,,,29.0,29.0,29.0,cue1.png,Easy,A,,,,,,,,,,,,,,,,,,,,,,,,,,,9,19,Female,0.7142857142857143,1.25,0.0,1.0,3.2222222222222223,2.125,1.5555555555555556,2.3333333333333335,2.625,3.3333333333333335,2.0,2.0,1.5,1.0,1.0,1.0,0.4322042785726288,0.387096194383974,,,0.013820862935608929,-0.7157092420040733,0.025645821692148817,-0.15921258604718944,0.025765344872261866,0.34944474658524427,3.9253203734631016e+43,-0.16908185033826667,1.032095202139734e+44,-0.16900803143017415,,,,,,,,,,,,,,,,,,,,
29,240612_151535,LEARNING,1.0,30,3.0,679.0,,,,,,,,,,30.0,30.0,30.0,cue2.png,Hard,A,,,,,,,,,,,,,,,,,,,,,,,,,,,9,19,Female,0.7142857142857143,1.25,0.0,1.0,3.2222222222222223,2.125,1.5555555555555556,2.3333333333333335,2.625,3.3333333333333335,2.0,2.0,1.5,1.0,0.725,0.8,0.2067709285713915,-1.1419581552537412,,,0.02778753718251247,0.0037792260597841352,0.028683716414545875,0.21672405968864766,0.019435247334796686,-0.6764031618594855,5.99180857572887e+43,-0.16906934422247355,1.5363576085751894e+44,-0.16899450682008255,,,,,,,,,,,,,,,,,,,,
30,240612_151556,LEARNING,1.0,31,3.0,679.0,,,,,,,,,,31.0,31.0,31.0,cue2.png,Hard,A,,,,,,,,,,,,,,,,,,,,,,,,,,,9,19,Female,0.7142857142857143,1.25,0.0,1.0,3.2222222222222223,2.125,1.5555555555555556,2.3333333333333335,2.625,3.3333333333333335,2.0,2.0,1.5,1.0,0.725,0.8,0.2719235714258892,-0.7000451377409576,0.020357783486295408,-0.2727581664914615,0.06223257641033617,1.7782036930670806,,,,,,,,,,,,,,,,,,,,,,,,,,,,
31,240612_151620,LEARNING,1.0,32,1.0,679.0,,,,,,,,,,32.0,32.0,32.0,cue1.png,Easy,A,,,,,,,,,,,,,,,,,,,,,,,,,,,9,19,Female,0.7142857142857143,1.25,0.0,1.0,3.2222222222222223,2.125,1.5555555555555556,2.3333333333333335,2.625,3.3333333333333335,2.0,2.0,1.5,1.0,0.8875,0.9,0.4165936071409045,0.28121316929779117,0.01199384195544318,-0.6860423252918573,0.06989372393004818,2.172865098862441,,,0.02233622741347137,-0.20627385839539641,4.752732222894173e+43,-0.16907684295018371,1.2667402913725743e+44,-0.1690017381128432,,,,,,,,,,,,,,,,,,,,
32,240612_151645,LEARNING,1.0,33,1.0,679.0,,,,,,,,,,33.0,33.0,33.0,cue1.png,Easy,A,,,,,,,,,,,,,,,,,,,,,,,,,,,9,19,Female,0.7142857142857143,1.25,0.0,1.0,3.2222222222222223,2.125,1.5555555555555556,2.3333333333333335,2.625,3.3333333333333335,2.0,2.0,1.5,1.0,0.725,0.8,0.4638087999992422,0.60146124265796,,,0.02105771928682955,-0.34290505127897686,0.038932882078220064,1.4850487757447528,0.02484869637367752,0.2008938057053817,2.1607452023704963e+43,-0.1690925293159599,5.999811186968753e+43,-0.16901962098041443,,,,,,,,,,,,,,,,,,,,
33,240612_151710,LEARNING,1.0,34,1.0,679.0,,,,,,,,,,34.0,34.0,34.0,cue1.png,Easy,A,,,,,,,,,,,,,,,,,,,,,,,,,,,9,19,Female,0.7142857142857143,1.25,0.0,1.0,3.2222222222222223,2.125,1.5555555555555556,2.3333333333333335,2.625,3.3333333333333335,2.0,2.0,1.5,1.0,1.0,1.0,0.4751523571425683,0.6784015684361628,0.011297119540960765,-0.7204691963937891,0.061885836830156436,1.7603415216617488,0.05762641411285243,3.7983559743924986,,,-3.742477229729395e+42,-0.16910787076094094,-2.488173324594244e+43,-0.16904238624697354,,,,,,,,,,,,,,,,,,,,
34,240612_151732,LEARNING,1.0,35,3.0,679.0,,,,,,,,,,35.0,35.0,35.0,cue2.png,Hard,A,,,,,,,,,,,,,,,,,,,,,,,,,,,9,19,Female,0.7142857142857143,1.25,0.0,1.0,3.2222222222222223,2.125,1.5555555555555556,2.3333333333333335,2.625,3.3333333333333335,2.0,2.0,1.5,1.0,0.725,0.8,0.2937954142866407,-0.5516942550492833,0.01321459615096641,-0.6257216775520511,0.011211049586410355,-0.850152888025515,,,0.03702879857295466,2.174786355041196,-3.6086512998830753e+43,-0.16912744494752963,-9.101948222651213e+43,-0.16906012477469015,,,,,,,,,,,,,,,,,,,,
35,240612_151753,LEARNING,1.0,36,3.0,679.0,,,,,,,,,,36.0,36.0,36.0,cue2.png,Hard,A,,,,,,,,,,,,,,,,,,,,,,,,,,,9,19,Female,0.7142857142857143,1.25,0.0,1.0,3.2222222222222223,2.125,1.5555555555555556,2.3333333333333335,2.625,3.3333333333333335,2.0,2.0,1.5,1.0,0.725,0.8,0.1985184999991491,-1.1979321795203042,0.03074767556657093,0.24063349132731768,0.01272621997631101,-0.7720994013175374,0.030389539604488015,0.4278180925125532,0.027765469481251605,0.6735825082258948,-5.295873712430205e+43,-0.16913765579646498,-1.3480322759497833e+44,-0.16907186782903846,,,,,,,,,,,,,,,,,,,,
36,240612_151819,LEARNING,1.0,37,1.0,679.0,,,,,,,,,,37.0,37.0,37.0,cue1.png,Easy,A,,,,,,,,,,,,,,,,,,,,,,,,,,,9,19,Female,0.7142857142857143,1.25,0.0,1.0,3.2222222222222223,2.125,1.5555555555555556,2.3333333333333335,2.625,3.3333333333333335,2.0,2.0,1.5,1.0,0.9375,0.8571428571428572,0.4827176500026932,0.7297149342446981,0.04485021383115381,0.9374766772976361,0.014189434412188322,-0.6967224078896502,0.028796406372687135,0.2306693371728883,0.02355594255714254,-0.00860830559342784,-5.610898602433627e+43,-0.16913956228581623,-1.4116827808467612e+44,-0.16907357497248182,,,,,,,,,,,,,,,,,,,,
37,240612_151842,LEARNING,1.0,38,3.0,679.0,,,,,,,,,,38.0,38.0,38.0,cue2.png,Hard,A,,,,,,,,,,,,,,,,,,,,,,,,,,,9,19,Female,0.7142857142857143,1.25,0.0,1.0,3.2222222222222223,2.125,1.5555555555555556,2.3333333333333335,2.625,3.3333333333333335,2.0,2.0,1.5,1.0,0.8875,0.8285714285714286,0.29283443076845,-0.5582123502131601,,,,,0.029706712176342444,0.34331883351554465,0.026914014837007866,0.5355968040936389,-3.696333313361391e+43,-0.16912797558758474,-9.471636602671355e+43,-0.16906111630035842,,,,,,,,,,,,,,,,,,,,
38,240612_151904,LEARNING,1.0,39,3.0,679.0,,,,,,,,,,39.0,39.0,39.0,cue2.png,Hard,A,,,,,,,,,,,,,,,,,,,,,,,,,,,9,19,Female,0.7142857142857143,1.25,0.0,1.0,3.2222222222222223,2.125,1.5555555555555556,2.3333333333333335,2.625,3.3333333333333335,2.0,2.0,1.5,1.0,0.0291666666666666,0.5571428571428572,0.1278329916652486,-1.677373149428751,0.015373240735152874,-0.5190574202956244,0.008271721891035715,-1.0015713533879207,0.02672509911443052,-0.025653009094221874,0.02467988051886725,0.1735357135836649,-1.0388437869399898e+43,-0.16911189280922675,-2.6016009945572093e+43,-0.16904269046656048,,,,,,,,,,,,,,,,,,,,
39,240612_151923,LEARNING,1.0,40,3.0,679.0,,,,,,,,,,40.0,40.0,40.0,cue2.png,Hard,A,,,,,,,,,,,,,,,,,,,,,,,,,,,9,19,Female,0.7142857142857143,1.25,0.0,1.0,3.2222222222222223,2.125,1.5555555555555556,2.3333333333333335,2.625,3.3333333333333335,2.0,2.0,1.5,1.0,0.8875,0.9,0.0649073928569643,-2.1041807205394,0.021969062600953698,-0.19314066426026819,0.012280434411474424,-0.795063892896509,0.02586174843353702,-0.1324918526775685,0.03290113640822255,1.505862444565011,2.431457835964397e+43,-0.16909089099857746,6.914692061362816e+43,-0.16901716721686819,,,,,,,,,,,,,,,,,,,,
40,240612_151949,LEARNING,1.0,41,1.0,679.0,,,,,,,,,,41.0,41.0,41.0,cue1.png,Easy,A,,,,,,,,,,,,,,,,,,,,,,,,,,,9,19,Female,0.7142857142857143,1.25,0.0,1.0,3.2222222222222223,2.125,1.5555555555555556,2.3333333333333335,2.625,3.3333333333333335,2.0,2.0,1.5,1.0,1.0,0.8571428571428572,0.4875544833327391,0.7625218860188646,0.013210240790420377,-0.6259368872725998,0.009959561811382077,-0.9146228546144023,0.03915281922599423,1.5122657931737458,0.03125611194897945,1.2392717813300302,4.941686957568632e+43,-0.16907569942089143,1.1616831134615219e+44,-0.16900455580726265,,,,,,,,,,,,,,,,,,,,
41,240612_152014,LEARNING,1.0,42,3.0,679.0,,,,,,,,,,42.0,42.0,42.0,cue2.png,Hard,A,,,,,,,,,,,,,,,,,,,,,,,,,,,9,19,Female,0.7142857142857143,1.25,0.0,1.0,3.2222222222222223,2.125,1.5555555555555556,2.3333333333333335,2.625,3.3333333333333335,2.0,2.0,1.5,1.0,0.8875,0.8285714285714286,0.3921267461566738,0.11526097007920218,0.012939105686393152,-0.6393343797079314,0.031422720189654536,0.19104444086353525,0.0220303238229834,-0.606627083850008,0.018474474057473014,-0.832104910718596,,,,,,,,,,,,,,,,,,,,,,,,
42,240612_152033,LEARNING,1.0,43,3.0,679.0,,,,,,,,,,43.0,43.0,43.0,cue2.png,Hard,A,,,,,,,,,,,,,,,,,,,,,,,,,,,9,19,Female,0.7142857142857143,1.25,0.0,1.0,3.2222222222222223,2.125,1.5555555555555556,2.3333333333333335,2.625,3.3333333333333335,2.0,2.0,1.5,1.0,0.725,0.8,0.1055215499997887,-1.828705713688087,,,,,0.023003940468017858,-0.4861429297849108,0.025647341324797585,0.3303212351955974,4.346501455170243e+43,-0.16907930140555466,1.1018699375135603e+44,-0.16900616003131885,,,,,,,,,,,,,,,,,,,,
43,240612_152057,LEARNING,1.0,44,1.0,679.0,,,,,,,,,,44.0,44.0,44.0,cue1.png,Easy,A,,,,,,,,,,,,,,,,,,,,,,,,,,,9,19,Female,0.7142857142857143,1.25,0.0,1.0,3.2222222222222223,2.125,1.5555555555555556,2.3333333333333335,2.625,3.3333333333333335,2.0,2.0,1.5,1.0,1.0,1.0,0.4015278714286978,0.17902629800693962,0.0788631988247896,2.618146949744284,,,,,0.023344164894098296,-0.0429287361086655,1.367237332145044e+43,-0.1690973315216037,1.0594848810552886e+43,-0.1690328712219871,,,,,,,,,,,,,,,,,,,,
44,240612_152122,LEARNING,1.0,45,1.0,679.0,,,,,,,,,,45.0,45.0,45.0,cue1.png,Easy,A,,,,,,,,,,,,,,,,,,,,,,,,,,,9,19,Female,0.7142857142857143,1.25,0.0,1.0,3.2222222222222223,2.125,1.5555555555555556,2.3333333333333335,2.625,3.3333333333333335,2.0,2.0,1.5,1.0,0.8875,0.9,0.4770875214287246,0.6915272721929256,0.0647159055166458,1.9190923003793545,0.019483700943375808,-0.4239900702760383,0.03414384799639403,0.892410263368756,0.020826807530591858,-0.450888608903157,-3.211160043897992e+43,-0.16912503938253842,-9.25954654815687e+43,-0.16906054746253607,,,,,,,,,,,,,,,,,,,,
45,240612_152145,LEARNING,1.0,46,1.0,679.0,,,,,,,,,,46.0,46.0,46.0,cue1.png,Easy,A,,,,,,,,,,,,,,,,,,,,,,,,,,,9,19,Female,0.7142857142857143,1.25,0.0,1.0,3.2222222222222223,2.125,1.5555555555555556,2.3333333333333335,2.625,3.3333333333333335,2.0,2.0,1.5,1.0,0.8875,0.9,0.4145348785719501,0.2672493619327058,0.009746312388860326,-0.7970986212831526,,,,,,,-6.074086183348016e+43,-0.16914236543635658,-1.5526969241779378e+44,-0.16907735705356028,,,,,,,,,,,,,,,,,,,,
46,240612_152207,LEARNING,1.0,47,3.0,679.0,,,,,,,,,,47.0,47.0,47.0,cue2.png,Hard,A,,,,,,,,,,,,,,,,,,,,,,,,,,,9,19,Female,0.7142857142857143,1.25,0.0,1.0,3.2222222222222223,2.125,1.5555555555555556,2.3333333333333335,2.625,3.3333333333333335,2.0,2.0,1.5,1.0,0.0291666666666666,0.7,0.2350993142879036,-0.9498142626229039,0.01199361505597745,-0.6860535369860663,0.011465676360813614,-0.8370358764446043,0.02940840147178063,0.30640316134518913,,,-4.180917564316139e+43,-0.16913090822796822,-1.1959888599213327e+44,-0.16906778993647195,,,,,,,,,,,,,,,,,,,,
47,240612_152230,LEARNING,1.0,48,3.0,679.0,,,,,,,,,,48.0,48.0,48.0,cue2.png,Hard,A,,,,,,,,,,,,,,,,,,,,,,,,,,,9,19,Female,0.7142857142857143,1.25,0.0,1.0,3.2222222222222223,2.125,1.5555555555555556,2.3333333333333335,2.625,3.3333333333333335,2.0,2.0,1.5,1.0,0.725,0.5857142857142857,0.1314192636385666,-1.6530484221434774,0.09323220880707259,3.3281571980724096,0.03277997814618859,0.26096312233709135,,,0.02584341750395492,0.36209710232780157,1.7480044960726288e+43,-0.169095027168626,6.156079264178966e+43,-0.16901920186037156,,,,,,,,,,,,,,,,,,,,
48,240612_152255,LEARNING,1.0,49,1.0,679.0,,,,,,,,,,49.0,49.0,49.0,cue1.png,Easy,A,,,,,,,,,,,,,,,,,,,,,,,,,,,9,19,Female,0.7142857142857143,1.25,0.0,1.0,3.2222222222222223,2.125,1.5555555555555556,2.3333333333333335,2.625,3.3333333333333335,2.0,2.0,1.5,1.0,0.8875,0.9,0.5303435357127455,1.0527486277949405,0.014259362306171548,-0.5740970577475792,0.018602343603960708,-0.4693928935067151,0.03764593128197752,1.3257898119631724,0.030057924876913462,1.0450950416305962,7.676536732733094e+43,-0.16905914846844589,,,,,,,,,,,,,,,,,,,,,,
49,240612_152322,LEARNING,1.0,50,1.0,679.0,,,,,,,,,,50.0,50.0,50.0,cue1.png,Easy,A,,,,,,,,,,,,,,,,,,,,,,,,,,,9,19,Female,0.7142857142857143,1.25,0.0,1.0,3.2222222222222223,2.125,1.5555555555555556,2.3333333333333335,2.625,3.3333333333333335,2.0,2.0,1.5,1.0,0.8875,0.9,0.5759167571408658,1.3618596464232295,0.01850545348082524,-0.3642866217428061,,,0.025951620577129336,-0.12137025851629163,0.022876979961237654,-0.11864015815160227,7.34283527552513e+41,-0.16910516148399724,-7.179418808019616e+43,-0.1690549684393396,,,,,,,,,,,,,,,,,,,,
0,240612_152427,TrueCHOICE,9.0,1,1.0,679.0,,,,,,,,,,,1.0,1.0,,,A,,,,,,True,cue1.png,Easy,cue2.png,Hard,Left,Easy,Easy,0.0160728000046219,,,,,,,,,,,,,9,19,Female,0.7142857142857143,1.25,0.0,1.0,3.2222222222222223,2.125,1.5555555555555556,2.3333333333333335,2.625,3.3333333333333335,2.0,2.0,1.5,1.0,0.0291666666666666,0.5571428571428572,0.0803212416661457,-1.592393503136117,,,,,,,,,,,,,,,0.027604942671803367,-0.87305463286803,,,,,,,,,,,,,,,,
1,240612_152456,TrueCHOICE,9.0,2,1.0,679.0,,,,,,,,,,,3.0,2.0,,,A,,,,,,True,cue1.png,Easy,cue2.png,Hard,Left,Easy,Easy,0.0170209999923827,,,,,,,,,,,,,9,19,Female,0.7142857142857143,1.25,0.0,1.0,3.2222222222222223,2.125,1.5555555555555556,2.3333333333333335,2.625,3.3333333333333335,2.0,2.0,1.5,1.0,1.0,1.0,0.4935261571403576,0.821696255314236,,,,,,,,,,,,,0.011932238667843494,-0.7128548917550295,0.03769289814744438,0.9672281632094658,1202888.8291367088,-0.5773364335055222,,,,,,,,,,,,,,
2,240612_152515,TrueCHOICE,9.0,3,3.0,679.0,,,,,,,,,,,4.0,3.0,,,A,,,,,,True,cue2.png,Hard,cue1.png,Easy,Left,Hard,Hard,0.0163201999966986,,,,,,,,,,,,,9,19,Female,0.7142857142857143,1.25,0.0,1.0,3.2222222222222223,2.125,1.5555555555555556,2.3333333333333335,2.625,3.3333333333333335,2.0,2.0,1.5,1.0,0.0291666666666666,0.6285714285714286,0.1306184307681038,-1.2985394744382037,,,,,,,,,,,,,,,,,,,,,,,,,,,,,,,,
3,240612_152544,TrueCHOICE,9.0,4,1.0,679.0,,,,,,,,,,,6.0,4.0,,,A,,,,,,True,cue1.png,Easy,cue2.png,Hard,Left,Easy,Easy,0.0137429000023985,,,,,,,,,,,,,9,19,Female,0.7142857142857143,1.25,0.0,1.0,3.2222222222222223,2.125,1.5555555555555556,2.3333333333333335,2.625,3.3333333333333335,2.0,2.0,1.5,1.0,0.8875,0.9,0.5302175428587361,1.036060352083112,,,,,,,,,,,,,,,,,149677.25932465086,-0.5773660863891589,,,,,,,,,,,,,,
4,240612_152607,TrueCHOICE,9.0,5,1.0,679.0,,,,,,,,,,,7.0,5.0,,,A,,,,,,True,cue2.png,Hard,cue1.png,Easy,Right,Easy,Easy,0.0164724000060232,,,,,,,,,,,,,9,19,Female,0.7142857142857143,1.25,0.0,1.0,3.2222222222222223,2.125,1.5555555555555556,2.3333333333333335,2.625,3.3333333333333335,2.0,2.0,1.5,1.0,1.0,1.0,0.414095771427258,0.3576357529368819,,,,,,,,,,,,,0.02028704862703199,-0.39253105645151615,0.040135219976881256,1.412765701122876,82026053867.21332,1.7320508074724157,,,,,,,,,,,,,,
5,240612_152629,TrueCHOICE,9.0,6,1.0,679.0,,,,,,,,,,,8.0,6.0,,,A,,,,,,True,cue2.png,Hard,cue1.png,Easy,Right,Easy,Easy,0.0164550999907078,,,,,,,,,,,,,9,19,Female,0.7142857142857143,1.25,0.0,1.0,3.2222222222222223,2.125,1.5555555555555556,2.3333333333333335,2.625,3.3333333333333335,2.0,2.0,1.5,1.0,1.0,1.0,0.4452742000025215,0.5397911975828855,,,,,,,,,,,,,0.038281832952987024,0.29738988237368424,0.029862915984457998,-0.46114664503897057,781855.7128895109,-0.5773482875777344,,,,,,,,,,,,,,
6,240612_152654,TrueCHOICE,9.0,7,1.0,679.0,,,,,,,,,,,9.0,7.0,,,A,,,,,,True,cue1.png,Easy,cue2.png,Hard,Left,Easy,Easy,0.0169989999994868,,,,,,,,,,,,,9,19,Female,0.7142857142857143,1.25,0.0,1.0,3.2222222222222223,2.125,1.5555555555555556,2.3333333333333335,2.625,3.3333333333333335,2.0,2.0,1.5,1.0,0.0291666666666666,0.6285714285714286,0.5098654692354523,0.9171563152305702,,,,,,,,,,,,,0.084895611494738,2.084564503151363,,,,,,,,,,,,,,,,,,
7,240612_152715,TrueCHOICE,9.0,8,1.0,679.0,,,,,,,,,,,10.0,8.0,,,A,,,,,,True,cue2.png,Hard,cue1.png,Easy,Right,Easy,Easy,0.0166171000018948,,,,,,,,,,,,,9,19,Female,0.7142857142857143,1.25,0.0,1.0,3.2222222222222223,2.125,1.5555555555555556,2.3333333333333335,2.625,3.3333333333333335,2.0,2.0,1.5,1.0,0.8875,0.9,0.3444832285708149,-0.04906542721864211,,,,,,,,,,,,,0.019382206122035187,-0.42722276373893925,0.02665803777862405,-1.0457925864253408,,,,,,,,,,,,,,,,
8,240612_152733,TrueCHOICE,9.0,9,3.0,679.0,,,,,,,,,,,11.0,9.0,,,A,,,,,,True,cue1.png,Easy,cue2.png,Hard,Right,Hard,Hard,0.0165264999959617,,,,,,,,,,,,,9,19,Female,0.7142857142857143,1.25,0.0,1.0,3.2222222222222223,2.125,1.5555555555555556,2.3333333333333335,2.625,3.3333333333333335,2.0,2.0,1.5,1.0,0.725,0.7285714285714286,0.0988986076912484,-1.4838579378979464,,,,,,,,,,,,,,,,,,,,,,,,,,,,,,,,
9,240612_152757,TrueCHOICE,9.0,10,1.0,679.0,,,,,,,,,,,12.0,10.0,,,A,,,,,,True,cue2.png,Hard,cue1.png,Easy,Right,Easy,Easy,0.0163140999939059,,,,,,,,,,,,,9,19,Female,0.7142857142857143,1.25,0.0,1.0,3.2222222222222223,2.125,1.5555555555555556,2.3333333333333335,2.625,3.3333333333333335,2.0,2.0,1.5,1.0,0.8875,0.9,0.4815139142873314,0.7515164695432249,,,,,,,,,,,,,0.008372233393042383,-0.849345673579562,,,,,,,,,,,,,,,,,,
0,240612_152939,FalseCHOICE,9.0,1,2.0,679.0,,,,,,,,,,,1.0,1.0,,,A,,,,,,False,cue1.png,Easy,cue2.png,Hard,Left,Easy,Mid,0.0163135999900987,,,,,,,,,,,,,9,19,Female,0.7142857142857143,1.25,0.0,1.0,3.2222222222222223,2.125,1.5555555555555556,2.3333333333333335,2.625,3.3333333333333335,2.0,2.0,1.5,1.0,0.8875,0.9,0.1686528785711354,1.3238475159631717,,,,,,,,,,,,,,,,,,,,,,,2.0479552092372156e+45,-0.16956249050234942,,,,,,,,
1,240612_152956,FalseCHOICE,9.0,2,2.0,679.0,,,,,,,,,,,2.0,2.0,,,A,,,,,,False,cue2.png,Hard,cue1.png,Easy,Right,Easy,Mid,0.0176253000099677,,,,,,,,,,,,,9,19,Female,0.7142857142857143,1.25,0.0,1.0,3.2222222222222223,2.125,1.5555555555555556,2.3333333333333335,2.625,3.3333333333333335,2.0,2.0,1.5,1.0,0.725,0.8,0.0794082142861693,-0.5689246617607352,,,,,,,,,,,,,,,,,,,0.08337419952205614,2.7064911224115646,,,3.70758770244008e+44,-0.1711959246899772,,,,,,,,
2,240612_153015,FalseCHOICE,9.0,3,2.0,679.0,,,,,,,,,,,3.0,3.0,,,A,,,,,,False,cue2.png,Hard,cue1.png,Easy,Right,Easy,Mid,0.0165771000029053,,,,,,,,,,,,,9,19,Female,0.7142857142857143,1.25,0.0,1.0,3.2222222222222223,2.125,1.5555555555555556,2.3333333333333335,2.625,3.3333333333333335,2.0,2.0,1.5,1.0,0.0291666666666666,0.6285714285714286,0.1617930615365576,1.1783590329109404,,,,,,,,,,,,,,,,,,,0.05765621941086263,1.4513125835331981,0.020270099518863955,-0.9508745839916295,-2.0622306829812e+44,-0.17175785162876847,,,,,,,,
3,240612_153039,FalseCHOICE,9.0,4,2.0,679.0,,,,,,,,,,,5.0,4.0,,,A,,,,,,False,cue2.png,Hard,cue1.png,Easy,Right,Easy,Mid,0.0165107999928295,,,,,,,,,,,,,9,19,Female,0.7142857142857143,1.25,0.0,1.0,3.2222222222222223,2.125,1.5555555555555556,2.3333333333333335,2.625,3.3333333333333335,2.0,2.0,1.5,1.0,0.0291666666666666,0.7,0.1890810500013426,1.7571045048785767,,,,,,,,,,,,,,,,,,,,,,,-2.055372228702884e+44,-0.1717571836787638,,,,,,,,
4,240612_153105,FalseCHOICE,9.0,5,2.0,679.0,,,,,,,,,,,7.0,5.0,,,A,,,,,,False,cue1.png,Easy,cue2.png,Hard,Left,Easy,Mid,0.0016451999981654,,,,,,,,,,,,,9,19,Female,0.7142857142857143,1.25,0.0,1.0,3.2222222222222223,2.125,1.5555555555555556,2.3333333333333335,2.625,3.3333333333333335,2.0,2.0,1.5,1.0,0.5625,0.5857142857142857,0.1622401636347852,1.1878415316004416,,,,,,,,,,,,,,,,,,,0.04119839287102628,0.6480803475616647,0.029338210305601797,0.12824911103250383,6.163325136818207e+48,5.830951554192564,,,,,,,,
5,240612_153128,FalseCHOICE,9.0,6,2.0,679.0,,,,,,,,,,,9.0,6.0,,,A,,,,,,False,cue2.png,Hard,cue1.png,Easy,Right,Easy,Mid,0.0171145999920554,,,,,,,,,,,,,9,19,Female,0.7142857142857143,1.25,0.0,1.0,3.2222222222222223,2.125,1.5555555555555556,2.3333333333333335,2.625,3.3333333333333335,2.0,2.0,1.5,1.0,0.725,0.8,0.0502610785718258,-1.187100414703153,,,,,,,,,,,,,,,,,,,0.008475932773342213,-0.9489552468488116,0.021823746027350793,-0.7659874779086665,-3.527228992802756e+43,-0.17159136138391742,,,,,,,,
6,240612_153146,FalseCHOICE,9.0,7,2.0,679.0,,,,,,,,,,,10.0,7.0,,,A,,,,,,False,cue2.png,Hard,cue1.png,Easy,Right,Easy,Mid,0.016542199999094,,,,,,,,,,,,,9,19,Female,0.7142857142857143,1.25,0.0,1.0,3.2222222222222223,2.125,1.5555555555555556,2.3333333333333335,2.625,3.3333333333333335,2.0,2.0,1.5,1.0,0.15,0.5285714285714286,0.0845093153833519,-0.46073643213533005,,,,,,,,,,,,,,,,,,,,,0.023758755297718724,-0.5357174246579639,,,,,,,,,,
7,240612_153205,FalseCHOICE,9.0,8,2.0,679.0,,,,,,,,,,,11.0,8.0,,,A,,,,,,False,cue1.png,Easy,cue2.png,Hard,Right,Hard,Mid,0.0175775999960023,,,,,,,,,,,,,9,19,Female,0.7142857142857143,1.25,0.0,1.0,3.2222222222222223,2.125,1.5555555555555556,2.3333333333333335,2.625,3.3333333333333335,2.0,2.0,1.5,1.0,0.0291666666666666,0.7,0.193348949999615,1.8476215395804343,,,,,,,,,,,,,,,,,,,0.016033343793490067,-0.5801121230513949,0.02802322331927569,-0.028237024720074652,,,,,,,,,,
8,240612_153224,FalseCHOICE,9.0,9,2.0,679.0,,,,,,,,,,,12.0,9.0,,,A,,,,,,False,cue1.png,Easy,cue2.png,Hard,Right,Hard,Mid,0.0150030000077094,,,,,,,,,,,,,9,19,Female,0.7142857142857143,1.25,0.0,1.0,3.2222222222222223,2.125,1.5555555555555556,2.3333333333333335,2.625,3.3333333333333335,2.0,2.0,1.5,1.0,0.0291666666666666,0.6285714285714286,0.0514050076923852,-1.1628390515165614,,,,,,,,,,,,,,,,,,,0.03135581263176491,0.16770842760158494,0.03608467183789282,0.9310918054238753,,,,,,,,,,
9,240612_153243,FalseCHOICE,9.0,10,2.0,679.0,,,,,,,,,,,13.0,10.0,,,A,,,,,,False,cue2.png,Hard,cue1.png,Easy,Right,Easy,Mid,0.0165926000045146,,,,,,,,,,,,,9,19,Female,0.7142857142857143,1.25,0.0,1.0,3.2222222222222223,2.125,1.5555555555555556,2.3333333333333335,2.625,3.3333333333333335,2.0,2.0,1.5,1.0,0.0291666666666666,0.6285714285714286,0.1700231923079207,1.352910225050835,,,,,,,,,,,,,,,,,,,0.06199139689880248,1.6628930312030523,0.06540925075334311,4.42077655878488,,,,,,,,,,
10,240612_153301,FalseCHOICE,9.0,11,2.0,679.0,,,,,,,,,,,14.0,11.0,,,A,,,,,,False,cue1.png,Easy,cue2.png,Hard,Right,Hard,Mid,0.0150211000000126,,,,,,,,,,,,,9,19,Female,0.7142857142857143,1.25,0.0,1.0,3.2222222222222223,2.125,1.5555555555555556,2.3333333333333335,2.625,3.3333333333333335,2.0,2.0,1.5,1.0,0.725,0.8,0.1782296071417347,1.5269584306298938,,,,,,,,,,,,,,,,,,,0.012858839415539511,-0.7350453545707983,0.03105325533576962,0.33234297067019164,5.611342001262505e+43,-0.17150236015579218,,,,,,,,
11,240612_153319,FalseCHOICE,9.0,12,2.0,679.0,,,,,,,,,,,15.0,12.0,,,A,,,,,,False,cue2.png,Hard,cue1.png,Easy,Right,Easy,Mid,0.0163089999987278,,,,,,,,,,,,,9,19,Female,0.7142857142857143,1.25,0.0,1.0,3.2222222222222223,2.125,1.5555555555555556,2.3333333333333335,2.625,3.3333333333333335,2.0,2.0,1.5,1.0,0.15,0.6,0.087261164285467,-0.4023730209336031,,,,,,,,,,,,,,,,,,,0.008975416815898469,-0.9245776850022672,0.033758257903576686,0.6542437981601722,,,,,,,,,,
12,240612_153335,FalseCHOICE,9.0,13,2.0,679.0,,,,,,,,,,,16.0,13.0,,,A,,,,,,False,cue1.png,Easy,cue2.png,Hard,Left,Easy,Mid,0.0154914000013377,,,,,,,,,,,,,9,19,Female,0.7142857142857143,1.25,0.0,1.0,3.2222222222222223,2.125,1.5555555555555556,2.3333333333333335,2.625,3.3333333333333335,2.0,2.0,1.5,1.0,0.8875,0.9,0.0677987357152492,-0.8151477633094645,,,,,,,,,,,,,,,,,,,0.011780544120118053,-0.7876720813796214,0.023963566005909008,-0.511344532288139,-4.365619188734219e+43,-0.17159952652889846,,,,,,,,
13,240612_153353,FalseCHOICE,9.0,14,2.0,679.0,,,,,,,,,,,17.0,14.0,,,A,,,,,,False,cue2.png,Hard,cue1.png,Easy,Left,Hard,Mid,0.0015652000001864,,,,,,,,,,,,,9,19,Female,0.7142857142857143,1.25,0.0,1.0,3.2222222222222223,2.125,1.5555555555555556,2.3333333333333335,2.625,3.3333333333333335,2.0,2.0,1.5,1.0,0.0291666666666666,0.7,0.2155700428577672,2.3189042393083454,,,,,,,,,,,,,,,,,,,,,0.020484594323887613,-0.9253492643297732,,,,,,,,,,
14,240612_153411,FalseCHOICE,9.0,15,2.0,679.0,,,,,,,,,,,18.0,15.0,,,A,,,,,,False,cue1.png,Easy,cue2.png,Hard,Right,Hard,Mid,0.0142973000038182,,,,,,,,,,,,,9,19,Female,0.7142857142857143,1.25,0.0,1.0,3.2222222222222223,2.125,1.5555555555555556,2.3333333333333335,2.625,3.3333333333333335,2.0,2.0,1.5,1.0,0.0291666666666666,0.7,0.0790455785723419,-0.5766157298518186,,,,,,,,,,,,,,,,,,,,,0.02312805917426073,-0.6107715508359067,,,,,,,,,,
15,240612_153428,FalseCHOICE,9.0,16,2.0,679.0,,,,,,,,,,,19.0,16.0,,,A,,,,,,False,cue1.png,Easy,cue2.png,Hard,Right,Hard,Mid,0.0182524999981978,,,,,,,,,,,,,9,19,Female,0.7142857142857143,1.25,0.0,1.0,3.2222222222222223,2.125,1.5555555555555556,2.3333333333333335,2.625,3.3333333333333335,2.0,2.0,1.5,1.0,0.0291666666666666,0.7,0.087437892856542,-0.39862482013056644,,,,,,,,,,,,,,,,,,,0.03914204362262178,0.5477192214593627,0.020265357403297022,-0.9514389054245243,,,,,,,,,,
16,240612_153444,FalseCHOICE,9.0,17,2.0,679.0,,,,,,,,,,,20.0,17.0,,,A,,,,,,False,cue2.png,Hard,cue1.png,Easy,Right,Easy,Mid,0.0169247000012546,,,,,,,,,,,,,9,19,Female,0.7142857142857143,1.25,0.0,1.0,3.2222222222222223,2.125,1.5555555555555556,2.3333333333333335,2.625,3.3333333333333335,2.0,2.0,1.5,1.0,0.0291666666666666,0.7,0.0753018285707055,-0.656016172446625,,,,,,,,,,,,,,,,,,,0.010470778582600142,-0.8515958260340252,0.027560833132448705,-0.08326240086362487,,,,,,,,,,
17,240612_153508,FalseCHOICE,9.0,18,2.0,679.0,,,,,,,,,,,22.0,18.0,,,A,,,,,,False,cue2.png,Hard,cue1.png,Easy,Right,Easy,Mid,0.0149141000001691,,,,,,,,,,,,,9,19,Female,0.7142857142857143,1.25,0.0,1.0,3.2222222222222223,2.125,1.5555555555555556,2.3333333333333335,2.625,3.3333333333333335,2.0,2.0,1.5,1.0,0.725,0.8,0.1208703714291914,0.3104379096322195,,,,,,,,,,,,,,,,,,,,,0.022293096577773022,-0.7101338042885794,,,,,,,,,,
18,240612_153533,FalseCHOICE,9.0,19,2.0,679.0,,,,,,,,,,,24.0,19.0,,,A,,,,,,False,cue1.png,Easy,cue2.png,Hard,Right,Hard,Mid,0.0169026000075973,,,,,,,,,,,,,9,19,Female,0.7142857142857143,1.25,0.0,1.0,3.2222222222222223,2.125,1.5555555555555556,2.3333333333333335,2.625,3.3333333333333335,2.0,2.0,1.5,1.0,0.725,0.6571428571428573,0.1459477249991323,0.8422984696828151,,,,,,,,,,,,,,,,,,,,,0.022319121501157876,-0.7070367852791891,,,,,,,,,,
19,240612_153552,FalseCHOICE,9.0,20,2.0,679.0,,,,,,,,,,,25.0,20.0,,,A,,,,,,False,cue1.png,Easy,cue2.png,Hard,Right,Hard,Mid,0.0156987000082153,,,,,,,,,,,,,9,19,Female,0.7142857142857143,1.25,0.0,1.0,3.2222222222222223,2.125,1.5555555555555556,2.3333333333333335,2.625,3.3333333333333335,2.0,2.0,1.5,1.0,0.725,0.7285714285714286,0.1505189384624827,0.9392484188051418,,,,,,,,,,,,,,,,,,,0.0760395485879842,2.3485199130550294,,,2.128103923481378e+43,-0.1715362836726064,,,,,,,,
20,240612_153610,FalseCHOICE,9.0,21,2.0,679.0,,,,,,,,,,,26.0,21.0,,,A,,,,,,False,cue1.png,Easy,cue2.png,Hard,Right,Hard,Mid,0.0165865999879315,,,,,,,,,,,,,9,19,Female,0.7142857142857143,1.25,0.0,1.0,3.2222222222222223,2.125,1.5555555555555556,2.3333333333333335,2.625,3.3333333333333335,2.0,2.0,1.5,1.0,0.725,0.8,0.1361173500003392,0.6338080188151244,,,,,,,,,,,,,,,,,,,0.01092346690307316,-0.8295021521839814,,,6.130436090862266e+42,-0.17155103895860818,,,,,,,,
21,240612_153634,FalseCHOICE,9.0,22,2.0,679.0,,,,,,,,,,,28.0,22.0,,,A,,,,,,False,cue2.png,Hard,cue1.png,Easy,Right,Easy,Mid,0.0172373000095831,,,,,,,,,,,,,9,19,Female,0.7142857142857143,1.25,0.0,1.0,3.2222222222222223,2.125,1.5555555555555556,2.3333333333333335,2.625,3.3333333333333335,2.0,2.0,1.5,1.0,0.725,0.8,0.0947356071452044,-0.24384906208129437,,,,,,,,,,,,,,,,,,,0.011454197794191975,-0.803599572682328,0.026323184136416204,-0.23054515789552923,-8.541694012078093e+42,-0.17156532825612772,,,,,,,,
22,240612_153654,FalseCHOICE,9.0,23,2.0,679.0,,,,,,,,,,,29.0,23.0,,,A,,,,,,False,cue1.png,Easy,cue2.png,Hard,Right,Hard,Mid,0.0165024000016273,,,,,,,,,,,,,9,19,Female,0.7142857142857143,1.25,0.0,1.0,3.2222222222222223,2.125,1.5555555555555556,2.3333333333333335,2.625,3.3333333333333335,2.0,2.0,1.5,1.0,0.8875,0.7571428571428571,0.1782293166676633,1.526952270023598,,,,,,,,,,,,,,,,,,,0.063112806239193,1.7176239599645728,,,-1.8466183004001074e+43,-0.1715749937903712,,,,,,,,
23,240612_153711,FalseCHOICE,9.0,24,2.0,679.0,,,,,,,,,,,30.0,24.0,,,A,,,,,,False,cue2.png,Hard,cue1.png,Easy,Right,Easy,Mid,0.0153399999981047,,,,,,,,,,,,,9,19,Female,0.7142857142857143,1.25,0.0,1.0,3.2222222222222223,2.125,1.5555555555555556,2.3333333333333335,2.625,3.3333333333333335,2.0,2.0,1.5,1.0,0.15,0.6,0.0749709642872663,-0.6630334066455974,,,,,,,,,,,,,,,,,,,0.03288899547207097,0.24253616247844492,,,,,,,,,,,,
24,240612_153730,FalseCHOICE,9.0,25,2.0,679.0,,,,,,,,,,,31.0,25.0,,,A,,,,,,False,cue2.png,Hard,cue1.png,Easy,Right,Easy,Mid,0.0171357999934116,,,,,,,,,,,,,9,19,Female,0.7142857142857143,1.25,0.0,1.0,3.2222222222222223,2.125,1.5555555555555556,2.3333333333333335,2.625,3.3333333333333335,2.0,2.0,1.5,1.0,0.0291666666666666,0.7,0.1522957928578502,0.9769333671475892,,,,,,,,,,,,,,,,,,,0.03828979682365849,0.5061249015609302,,,-2.2012527209365338e+43,-0.17157844760158342,,,,,,,,
25,240612_153749,FalseCHOICE,9.0,26,2.0,679.0,,,,,,,,,,,32.0,26.0,,,A,,,,,,False,cue1.png,Easy,cue2.png,Hard,Right,Hard,Mid,0.0164668999932473,,,,,,,,,,,,,9,19,Female,0.7142857142857143,1.25,0.0,1.0,3.2222222222222223,2.125,1.5555555555555556,2.3333333333333335,2.625,3.3333333333333335,2.0,2.0,1.5,1.0,0.175,0.6285714285714286,0.1618661384631055,1.1799089067830832,,,,,,,,,,,,,,,,,,,0.0447345753748037,0.8206654560775062,0.024981707296888846,-0.39018364025474456,-1.4964101229920745e+43,-0.17157158308667264,,,,,,,,
26,240612_153806,FalseCHOICE,9.0,27,2.0,679.0,,,,,,,,,,,33.0,27.0,,,A,,,,,,False,cue1.png,Easy,cue2.png,Hard,Right,Hard,Mid,0.0165812000050209,,,,,,,,,,,,,9,19,Female,0.7142857142857143,1.25,0.0,1.0,3.2222222222222223,2.125,1.5555555555555556,2.3333333333333335,2.625,3.3333333333333335,2.0,2.0,1.5,1.0,0.0291666666666666,0.7,0.0785098571411383,-0.587977738192786,,,,,,,,,,,,,,,,,,,0.007804981117606816,-0.9817013690272572,0.017684494842236404,-1.2585668186955399,7.410883690497158e+43,-0.1714848342843503,,,,,,,,
27,240612_153831,FalseCHOICE,9.0,28,2.0,679.0,,,,,,,,,,,35.0,28.0,,,A,,,,,,False,cue2.png,Hard,cue1.png,Easy,Right,Easy,Mid,0.0165117999858921,,,,,,,,,,,,,9,19,Female,0.7142857142857143,1.25,0.0,1.0,3.2222222222222223,2.125,1.5555555555555556,2.3333333333333335,2.625,3.3333333333333335,2.0,2.0,1.5,1.0,0.0291666666666666,0.7,0.0860338714306375,-0.42840242883325225,,,,,,,,,,,,,,,,,,,0.011917302758350058,-0.7809975094663967,,,6.730668230670143e+42,-0.17155045438802666,,,,,,,,
28,240612_153848,FalseCHOICE,9.0,29,2.0,679.0,,,,,,,,,,,36.0,29.0,,,A,,,,,,False,cue1.png,Easy,cue2.png,Hard,Right,Hard,Mid,0.0166421000030823,,,,,,,,,,,,,9,19,Female,0.7142857142857143,1.25,0.0,1.0,3.2222222222222223,2.125,1.5555555555555556,2.3333333333333335,2.625,3.3333333333333335,2.0,2.0,1.5,1.0,0.0291666666666666,0.7,0.0971800357136609,-0.19200566705171213,,,,,,,,,,,,,,,,,,,0.00836933484000777,-0.9541578108772341,0.021885718121077022,-0.7586126722470466,1.7330206029701885e+43,-0.17154013141868837,,,,,,,,
29,240612_153904,FalseCHOICE,9.0,30,2.0,679.0,,,,,,,,,,,37.0,30.0,,,A,,,,,,False,cue1.png,Easy,cue2.png,Hard,Right,Hard,Mid,0.01651070000662,,,,,,,,,,,,,9,19,Female,0.7142857142857143,1.25,0.0,1.0,3.2222222222222223,2.125,1.5555555555555556,2.3333333333333335,2.625,3.3333333333333335,2.0,2.0,1.5,1.0,0.725,0.8,0.0649041714256912,-0.8765379965273791,,,,,,,,,,,,,,,,,,,0.013748180475255023,-0.6916406312188115,0.02387918776705874,-0.5213857149588337,,,,,,,,,,
30,240612_153921,FalseCHOICE,9.0,31,2.0,679.0,,,,,,,,,,,38.0,31.0,,,A,,,,,,False,cue2.png,Hard,cue1.png,Easy,Right,Easy,Mid,0.016631899998174,,,,,,,,,,,,,9,19,Female,0.7142857142857143,1.25,0.0,1.0,3.2222222222222223,2.125,1.5555555555555556,2.3333333333333335,2.625,3.3333333333333335,2.0,2.0,1.5,1.0,0.725,0.8,0.0199718000003485,-1.8294996463295858,,,,,,,,,,,,,,,,,,,0.03683185764737896,0.4349694703356143,0.02407677347117558,-0.4978726128226814,2.0082141436526268e+43,-0.17153745128816153,,,,,,,,
31,240612_153937,FalseCHOICE,9.0,32,2.0,679.0,,,,,,,,,,,39.0,32.0,,,A,,,,,,False,cue1.png,Easy,cue2.png,Hard,Right,Hard,Mid,0.0165402999991783,,,,,,,,,,,,,9,19,Female,0.7142857142857143,1.25,0.0,1.0,3.2222222222222223,2.125,1.5555555555555556,2.3333333333333335,2.625,3.3333333333333335,2.0,2.0,1.5,1.0,0.8875,0.9,0.0962409428570286,-0.21192269901742405,,,,,,,,,,,,,,,,,,,0.013046012529035225,-0.7259102796504857,0.029069055179538075,0.09621910158474134,1.41108395423406e+43,-0.17154326678384937,,,,,,,,
32,240612_153955,FalseCHOICE,9.0,33,2.0,679.0,,,,,,,,,,,40.0,33.0,,,A,,,,,,False,cue2.png,Hard,cue1.png,Easy,Right,Easy,Mid,0.0161221000016666,,,,,,,,,,,,,9,19,Female,0.7142857142857143,1.25,0.0,1.0,3.2222222222222223,2.125,1.5555555555555556,2.3333333333333335,2.625,3.3333333333333335,2.0,2.0,1.5,1.0,0.725,0.8,0.0855593428579075,-0.43846661011730537,,,,,,,,,,,,,,,,,,,0.009088986643507898,-0.9190348542798252,0.028333305151424324,0.008663346298491486,4.6010937914986797e+42,-0.1715525283965406,,,,,,,,
33,240612_154011,FalseCHOICE,9.0,34,2.0,679.0,,,,,,,,,,,41.0,34.0,,,A,,,,,,False,cue2.png,Hard,cue1.png,Easy,Right,Easy,Mid,0.0165104000043356,,,,,,,,,,,,,9,19,Female,0.7142857142857143,1.25,0.0,1.0,3.2222222222222223,2.125,1.5555555555555556,2.3333333333333335,2.625,3.3333333333333335,2.0,2.0,1.5,1.0,0.725,0.8,0.0966212285711662,-0.2038572956112646,,,,,,,,,,,,,,,,,,,,,0.019261125514241192,-1.0709445502346753,-5.0449641458782816e+42,-0.17156192276469237,,,,,,,,
34,240612_154028,FalseCHOICE,9.0,35,2.0,679.0,,,,,,,,,,,42.0,35.0,,,A,,,,,,False,cue2.png,Hard,cue1.png,Easy,Right,Easy,Mid,0.0164331999985734,,,,,,,,,,,,,9,19,Female,0.7142857142857143,1.25,0.0,1.0,3.2222222222222223,2.125,1.5555555555555556,2.3333333333333335,2.625,3.3333333333333335,2.0,2.0,1.5,1.0,0.15,0.6,0.1128597500023066,0.14054224713443667,,,,,,,,,,,,,,,,,,,0.018702353824697805,-0.4498497892001864,0.028676741944693426,0.04953302578033164,-1.4183153161760249e+43,-0.1715708225154935,,,,,,,,
35,240612_154046,FalseCHOICE,9.0,36,2.0,679.0,,,,,,,,,,,43.0,36.0,,,A,,,,,,False,cue1.png,Easy,cue2.png,Hard,Right,Hard,Mid,0.0164894000045023,,,,,,,,,,,,,9,19,Female,0.7142857142857143,1.25,0.0,1.0,3.2222222222222223,2.125,1.5555555555555556,2.3333333333333335,2.625,3.3333333333333335,2.0,2.0,1.5,1.0,0.0291666666666666,0.7,0.1450230142872897,0.8226864657401458,,,,,,,,,,,,,,,,,,,0.011558130830236575,-0.7985270702634124,0.04600863050613931,2.112063145452843,-1.924648440419432e+43,-0.17157575373175557,,,,,,,,
36,240612_154102,FalseCHOICE,9.0,37,2.0,679.0,,,,,,,,,,,44.0,37.0,,,A,,,,,,False,cue2.png,Hard,cue1.png,Easy,Right,Easy,Mid,0.0158676999999443,,,,,,,,,,,,,9,19,Female,0.7142857142857143,1.25,0.0,1.0,3.2222222222222223,2.125,1.5555555555555556,2.3333333333333335,2.625,3.3333333333333335,2.0,2.0,1.5,1.0,0.8875,0.9,0.0360609999999204,-1.4882670318644178,,,,,,,,,,,,,,,,,,,0.01062897722730058,-0.8438748641680811,0.023753193286979512,-0.5363793152900722,-1.8422053798991467e+43,-0.17157495081260754,,,,,,,,
37,240612_154119,FalseCHOICE,9.0,38,2.0,679.0,,,,,,,,,,,45.0,38.0,,,A,,,,,,False,cue1.png,Easy,cue2.png,Hard,Right,Hard,Mid,0.0165907999908085,,,,,,,,,,,,,9,19,Female,0.7142857142857143,1.25,0.0,1.0,3.2222222222222223,2.125,1.5555555555555556,2.3333333333333335,2.625,3.3333333333333335,2.0,2.0,1.5,1.0,0.8875,0.9,0.0655027714268986,-0.8638424092118948,,,,,,,,,,,,,,,,,,,0.01557350223407505,-0.6025549142102106,0.026651818589323965,-0.1914369871337961,-1.2119908358513846e+43,-0.1715688131059093,,,,,,,,
38,240612_154135,FalseCHOICE,9.0,39,2.0,679.0,,,,,,,,,,,46.0,39.0,,,A,,,,,,False,cue1.png,Easy,cue2.png,Hard,Right,Hard,Mid,0.0165059999999357,,,,,,,,,,,,,9,19,Female,0.7142857142857143,1.25,0.0,1.0,3.2222222222222223,2.125,1.5555555555555556,2.3333333333333335,2.625,3.3333333333333335,2.0,2.0,1.5,1.0,0.725,0.8,0.0717453857141663,-0.7314440553845666,,,,,,,,,,,,,,,,,,,0.009932143490873981,-0.8778841738940967,0.02300813828225383,-0.6250423817880759,,,,,,,,,,
39,240612_154152,FalseCHOICE,9.0,40,2.0,679.0,,,,,,,,,,,47.0,40.0,,,A,,,,,,False,cue2.png,Hard,cue1.png,Easy,Right,Easy,Mid,0.0165783000120427,,,,,,,,,,,,,9,19,Female,0.7142857142857143,1.25,0.0,1.0,3.2222222222222223,2.125,1.5555555555555556,2.3333333333333335,2.625,3.3333333333333335,2.0,2.0,1.5,1.0,0.8875,0.9,0.0673884285715757,-0.8238498851907992,,,,,,,,,,,,,,,,,,,,,0.03544933802582437,0.855485784834032,9.210408687148218e+42,-0.17154803935020288,,,,,,,,
40,240612_154208,FalseCHOICE,9.0,41,2.0,679.0,,,,,,,,,,,48.0,41.0,,,A,,,,,,False,cue2.png,Hard,cue1.png,Easy,Right,Easy,Mid,0.016487999993842,,,,,,,,,,,,,9,19,Female,0.7142857142857143,1.25,0.0,1.0,3.2222222222222223,2.125,1.5555555555555556,2.3333333333333335,2.625,3.3333333333333335,2.0,2.0,1.5,1.0,0.15,0.6,0.0559227642858916,-1.067022858420543,,,,,,,,,,,,,,,,,,,0.0391670472311863,0.5489395347471486,0.026846226757519635,-0.16830201825880137,1.7074016117821458e+43,-0.17154038092396448,,,,,,,,
41,240612_154231,FalseCHOICE,9.0,42,2.0,679.0,,,,,,,,,,,50.0,42.0,,,A,,,,,,False,cue1.png,Easy,cue2.png,Hard,Right,Hard,Mid,0.0173753999988548,,,,,,,,,,,,,9,19,Female,0.7142857142857143,1.25,0.0,1.0,3.2222222222222223,2.125,1.5555555555555556,2.3333333333333335,2.625,3.3333333333333335,2.0,2.0,1.5,1.0,0.0291666666666666,0.7,0.1224585642869767,0.34412157327934967,,,,,,,,,,,,,,,,,,,0.020258421769832814,-0.373905135641646,0.037456664171360565,1.0943616938555212,,,,,,,,,,
42,240612_154254,FalseCHOICE,9.0,43,2.0,679.0,,,,,,,,,,,52.0,43.0,,,A,,,,,,False,cue2.png,Hard,cue1.png,Easy,Right,Easy,Mid,0.0155083999998169,,,,,,,,,,,,,9,19,Female,0.7142857142857143,1.25,0.0,1.0,3.2222222222222223,2.125,1.5555555555555556,2.3333333333333335,2.625,3.3333333333333335,2.0,2.0,1.5,1.0,0.725,0.8,0.0803622928578988,-0.5486898007704367,,,,,,,,,,,,,,,,,,,0.03395548232913382,0.29458657270481037,0.032954124034748386,0.5585502262319213,1.2692747479832575e+43,-0.17154464787434195,,,,,,,,
43,240612_154310,FalseCHOICE,9.0,44,2.0,679.0,,,,,,,,,,,53.0,44.0,,,A,,,,,,False,cue1.png,Easy,cue2.png,Hard,Right,Hard,Mid,0.0169290000048931,,,,,,,,,,,,,9,19,Female,0.7142857142857143,1.25,0.0,1.0,3.2222222222222223,2.125,1.5555555555555556,2.3333333333333335,2.625,3.3333333333333335,2.0,2.0,1.5,1.0,0.8875,0.9,0.0379450928584057,-1.4483076844752871,,,,,,,,,,,,,,,,,,,0.05394128748553779,1.2700035224832462,0.030101584947657776,0.21909225177003747,2.0523795911310213e+42,-0.17155501060841072,,,,,,,,
44,240612_154326,FalseCHOICE,9.0,45,2.0,679.0,,,,,,,,,,,54.0,45.0,,,A,,,,,,False,cue2.png,Hard,cue1.png,Easy,Right,Easy,Mid,0.0166252000053646,,,,,,,,,,,,,9,19,Female,0.7142857142857143,1.25,0.0,1.0,3.2222222222222223,2.125,1.5555555555555556,2.3333333333333335,2.625,3.3333333333333335,2.0,2.0,1.5,1.0,0.8875,0.9,0.0603406071448781,-0.9733257156720938,,,,,,,,,,,,,,,,,,,0.03306963682245211,0.25135245152027885,0.03835465680567231,1.2012246504771116,-1.2467439608175348e+43,-0.17156915156919914,,,,,,,,
45,240612_154343,FalseCHOICE,9.0,46,2.0,679.0,,,,,,,,,,,55.0,46.0,,,A,,,,,,False,cue2.png,Hard,cue1.png,Easy,Right,Easy,Mid,0.0167164000013144,,,,,,,,,,,,,9,19,Female,0.7142857142857143,1.25,0.0,1.0,3.2222222222222223,2.125,1.5555555555555556,2.3333333333333335,2.625,3.3333333333333335,2.0,2.0,1.5,1.0,0.0291666666666666,0.7,0.0681341714288074,-0.8080335745663637,,,,,,,,,,,,,,,,,,,,,0.03134057945678037,0.36653512760635804,-2.0849886004477383e+43,-0.17157731529659645,,,,,,,,
46,240612_154402,FalseCHOICE,9.0,47,2.0,679.0,,,,,,,,,,,56.0,47.0,,,A,,,,,,False,cue1.png,Easy,cue2.png,Hard,Left,Easy,Mid,0.0145913999876938,,,,,,,,,,,,,9,19,Female,0.7142857142857143,1.25,0.0,1.0,3.2222222222222223,2.125,1.5555555555555556,2.3333333333333335,2.625,3.3333333333333335,2.0,2.0,1.5,1.0,0.725,0.8,0.1623293714281836,1.1897335217909308,,,,,,,,,,,,,,,,,,,0.02337389604319806,-0.22185289711247266,0.032803613495395234,0.5406391648006486,-1.3352904187644032e+43,-0.17157001392979235,,,,,,,,
47,240612_154419,FalseCHOICE,9.0,48,2.0,679.0,,,,,,,,,,,57.0,48.0,,,A,,,,,,False,cue1.png,Easy,cue2.png,Hard,Right,Hard,Mid,0.0162070999940624,,,,,,,,,,,,,9,19,Female,0.7142857142857143,1.25,0.0,1.0,3.2222222222222223,2.125,1.5555555555555556,2.3333333333333335,2.625,3.3333333333333335,2.0,2.0,1.5,1.0,0.725,0.8,0.1099603785727855,0.07905006024960581,,,,,,,,,,,,,,,,,,,0.008630394416745079,-0.9414166711503734,0.02275538430875759,-0.6551206205994275,1.060427636148714e+43,-0.17154668185202354,,,,,,,,
48,240612_154436,FalseCHOICE,9.0,49,2.0,679.0,,,,,,,,,,,58.0,49.0,,,A,,,,,,False,cue2.png,Hard,cue1.png,Easy,Right,Easy,Mid,0.0166001999896252,,,,,,,,,,,,,9,19,Female,0.7142857142857143,1.25,0.0,1.0,3.2222222222222223,2.125,1.5555555555555556,2.3333333333333335,2.625,3.3333333333333335,2.0,2.0,1.5,1.0,0.0291666666666666,0.7,0.1034270928544823,-0.0595130856348298,,,,,,,,,,,,,,,,,,,0.02085307468571816,-0.34488281060392406,,,2.618982536505255e+43,-0.17153150296898786,,,,,,,,
49,240612_154452,FalseCHOICE,9.0,50,2.0,679.0,,,,,,,,,,,59.0,50.0,,,A,,,,,,False,cue1.png,Easy,cue2.png,Hard,Right,Hard,Mid,0.0145532000024104,,,,,,,,,,,,,9,19,Female,0.7142857142857143,1.25,0.0,1.0,3.2222222222222223,2.125,1.5555555555555556,2.3333333333333335,2.625,3.3333333333333335,2.0,2.0,1.5,1.0,0.0291666666666666,0.7,0.0702555571427053,-0.7630415306200085,,,,,,,,,,,,,,,,,,,0.055574723120768936,1.3497241438196372,0.029230862323320065,0.11547448200363629,-6.671021903162428e+42,-0.17156350639453444,,,,,,,,
0,240612_150028,OFFLINERATING,9.0,1,1.0,,,,,,,,,,,,,,,,,T0,cue1.png,Easy,43.0,2.3405719000002136,,,,,,,,,,,,,,,,,,,,,,9,19,Female,0.7142857142857143,1.25,0.0,1.0,3.2222222222222223,2.125,1.5555555555555556,2.3333333333333335,2.625,3.3333333333333335,2.0,2.0,1.5,1.0,,,,,,,,,,,,,,,,,,,,,,,,,,,,,1.3089838559653306,0.006467218581443734,-1.395600207815442,0.017073785915066055,-0.3107299627818639,,,
1,240612_150036,OFFLINERATING,9.0,2,3.0,,,,,,,,,,,,,,,,,T0,cue2.png,Hard,46.0,1.2853441999905044,,,,,,,,,,,,,,,,,,,,,,9,19,Female,0.7142857142857143,1.25,0.0,1.0,3.2222222222222223,2.125,1.5555555555555556,2.3333333333333335,2.625,3.3333333333333335,2.0,2.0,1.5,1.0,,,,,,,,,,,,,,,,,,,,,,,,,,,,,1.4629819566671343,,,0.021423767061262894,1.3501809369557145,,,
2,240612_152339,OFFLINERATING,9.0,3,1.0,,,,,,,,,,,,,,,,,T1,cue1.png,Easy,36.0,1.3123995999922045,,,,,,,,,,,,,,,,,,,,,,9,19,Female,0.7142857142857143,1.25,0.0,1.0,3.2222222222222223,2.125,1.5555555555555556,2.3333333333333335,2.625,3.3333333333333335,2.0,2.0,1.5,1.0,,,,,,,,,,,,,,,,,,,,,,,,,,,,,0.9496549543277889,,,,,203829.4402463526,-0.577323760998907,
3,240612_152346,OFFLINERATING,9.0,4,3.0,,,,,,,,,,,,,,,,,T1,cue2.png,Hard,0.0,1.6356737000023711,,,,,,,,,,,,,,,,,,,,,,9,19,Female,0.7142857142857143,1.25,0.0,1.0,3.2222222222222223,2.125,1.5555555555555556,2.3333333333333335,2.625,3.3333333333333335,2.0,2.0,1.5,1.0,,,,,,,,,,,,,,,,,,,,,,,,,,,,,-0.8983222540938544,0.011381148427606827,-0.07667815658958241,,,221361.69235920376,-0.5773138253254494,
4,240612_152813,OFFLINERATING,9.0,5,1.0,,,,,,,,,,,,,,,,,T2,cue1.png,Easy,15.0,1.9193099999974947,,,,,,,,,,,,,,,,,,,,,,9,19,Female,0.7142857142857143,1.25,0.0,1.0,3.2222222222222223,2.125,1.5555555555555556,2.3333333333333335,2.625,3.3333333333333335,2.0,2.0,1.5,1.0,,,,,,,,,,,,,,,,,,,,,,,,,,,,,-0.12833175058483634,0.011824705079689123,0.042374550248723455,,,4075271041.4706125,1.7320508062712168,
5,240612_152821,OFFLINERATING,9.0,6,3.0,,,,,,,,,,,,,,,,,T2,cue2.png,Hard,0.0,2.069003999989945,,,,,,,,,,,,,,,,,,,,,,9,19,Female,0.7142857142857143,1.25,0.0,1.0,3.2222222222222223,2.125,1.5555555555555556,2.3333333333333335,2.625,3.3333333333333335,2.0,2.0,1.5,1.0,,,,,,,,,,,,,,,,,,,,,,,,,,,,,-0.8983222540938544,0.016994245960443237,1.429903814156301,0.015165241235821983,-1.039450974173852,45972.31702633124,-0.5774132199468601,
6,240612_154510,OFFLINERATING,9.0,7,1.0,,,,,,,,,,,,,,,,,T3,cue1.png,Easy,0.0,1.6822929000045406,,,,,,,,,,,,,,,,,,,,,,9,19,Female,0.7142857142857143,1.25,0.0,1.0,3.2222222222222223,2.125,1.5555555555555556,2.3333333333333335,2.625,3.3333333333333335,2.0,2.0,1.5,1.0,,,,,,,,,,,,,,,,,,,,,,,,,,,,,-0.8983222540938544,,,,,,,
7,240612_154518,OFFLINERATING,9.0,8,3.0,,,,,,,,,,,,,,,,,T3,cue2.png,Hard,0.0,2.1023862000001827,,,,,,,,,,,,,,,,,,,,,,9,19,Female,0.7142857142857143,1.25,0.0,1.0,3.2222222222222223,2.125,1.5555555555555556,2.3333333333333335,2.625,3.3333333333333335,2.0,2.0,1.5,1.0,,,,,,,,,,,,,,,,,,,,,,,,,,,,,-0.8983222540938544,,,,,,,
0,240612_152839,LEARNINGCHECK,9.0,1,,,,,,,,,,,,1.0,1.0,1.0,,,A,,,,,,,,,,,,,,,cue1.png,Easy,Left,Left,Easy,0.0144887999922502,1.0,,,,,,9,19,Female,0.7142857142857143,1.25,0.0,1.0,3.2222222222222223,2.125,1.5555555555555556,2.3333333333333335,2.625,3.3333333333333335,2.0,2.0,1.5,1.0,,,,,,,,,,,,,,,,,,,,,,,,,,,,,,,,,,,,
1,240612_152845,LEARNINGCHECK,9.0,2,,,,,,,,,,,,2.0,2.0,2.0,,,A,,,,,,,,,,,,,,,cue2.png,Hard,Right,Middle,unsure,0.0160717000107979,0.0,,,,,,9,19,Female,0.7142857142857143,1.25,0.0,1.0,3.2222222222222223,2.125,1.5555555555555556,2.3333333333333335,2.625,3.3333333333333335,2.0,2.0,1.5,1.0,,,,,,,,,,,,,,,,,,,,,,,,,,,,,,,,,,,,
2,240612_154535,LEARNINGCHECK,9.0,1,,,,,,,,,,,,1.0,1.0,1.0,,,A,,,,,,,,,,,,,,,cue1.png,Easy,Middle,Left,Easy,0.0161545000009937,0.0,,,,,,9,19,Female,0.7142857142857143,1.25,0.0,1.0,3.2222222222222223,2.125,1.5555555555555556,2.3333333333333335,2.625,3.3333333333333335,2.0,2.0,1.5,1.0,,,,,,,,,,,,,,,,,,,,,,,,,,,,,,,,,,,,
3,240612_154540,LEARNINGCHECK,9.0,2,,,,,,,,,,,,2.0,2.0,2.0,,,A,,,,,,,,,,,,,,,cue2.png,Hard,Middle,Middle,Mid,0.0146084000007249,1.0,,,,,,9,19,Female,0.7142857142857143,1.25,0.0,1.0,3.2222222222222223,2.125,1.5555555555555556,2.3333333333333335,2.625,3.3333333333333335,2.0,2.0,1.5,1.0,,,,,,,,,,,,,,,,,,,,,,,,,,,,,,,,,,,,
0,240612_154554,DEMANDRATING,9.0,-1,,,,,,,,,,,,,,,,,,,,,,,,,,,,,,,,,,,,,,,1.0,MentalDemand,1.0,4.0,5.820060300000478,9,19,Female,0.7142857142857143,1.25,0.0,1.0,3.2222222222222223,2.125,1.5555555555555556,2.3333333333333335,2.625,3.3333333333333335,2.0,2.0,1.5,1.0,,,,,,,,,,,,,,,,,,,,,,,,,,,,,,,,,,,,-1.4285535540189007
1,240612_154600,DEMANDRATING,9.0,-1,,,,,,,,,,,,,,,,,,,,,,,,,,,,,,,,,,,,,,,2.0,Effort,1.0,4.0,4.7296578999958,9,19,Female,0.7142857142857143,1.25,0.0,1.0,3.2222222222222223,2.125,1.5555555555555556,2.3333333333333335,2.625,3.3333333333333335,2.0,2.0,1.5,1.0,,,,,,,,,,,,,,,,,,,,,,,,,,,,,,,,,,,,-1.4285535540189007
2,240612_154605,DEMANDRATING,9.0,-1,,,,,,,,,,,,,,,,,,,,,,,,,,,,,,,,,,,,,,,3.0,Frustration,1.0,9.0,3.230400100001134,9,19,Female,0.7142857142857143,1.25,0.0,1.0,3.2222222222222223,2.125,1.5555555555555556,2.3333333333333335,2.625,3.3333333333333335,2.0,2.0,1.5,1.0,,,,,,,,,,,,,,,,,,,,,,,,,,,,,,,,,,,,-1.2937843508095703
3,240612_154611,DEMANDRATING,9.0,-1,,,,,,,,,,,,,,,,,,,,,,,,,,,,,,,,,,,,,,,4.0,MentalDemand,2.0,69.0,4.197109100001399,9,19,Female,0.7142857142857143,1.25,0.0,1.0,3.2222222222222223,2.125,1.5555555555555556,2.3333333333333335,2.625,3.3333333333333335,2.0,2.0,1.5,1.0,,,,,,,,,,,,,,,,,,,,,,,,,,,,,,,,,,,,0.3234460877023926
4,240612_154614,DEMANDRATING,9.0,-1,,,,,,,,,,,,,,,,,,,,,,,,,,,,,,,,,,,,,,,5.0,Effort,2.0,79.0,1.9586210999987088,9,19,Female,0.7142857142857143,1.25,0.0,1.0,3.2222222222222223,2.125,1.5555555555555556,2.3333333333333335,2.625,3.3333333333333335,2.0,2.0,1.5,1.0,,,,,,,,,,,,,,,,,,,,,,,,,,,,,,,,,,,,0.5929844941210531
5,240612_154617,DEMANDRATING,9.0,-1,,,,,,,,,,,,,,,,,,,,,,,,,,,,,,,,,,,,,,,6.0,Frustration,2.0,80.0,1.3980739999969956,9,19,Female,0.7142857142857143,1.25,0.0,1.0,3.2222222222222223,2.125,1.5555555555555556,2.3333333333333335,2.625,3.3333333333333335,2.0,2.0,1.5,1.0,,,,,,,,,,,,,,,,,,,,,,,,,,,,,,,,,,,,0.6199383347629192
6,240612_154621,DEMANDRATING,9.0,-1,,,,,,,,,,,,,,,,,,,,,,,,,,,,,,,,,,,,,,,7.0,MentalDemand,3.0,79.0,1.938885500014294,9,19,Female,0.7142857142857143,1.25,0.0,1.0,3.2222222222222223,2.125,1.5555555555555556,2.3333333333333335,2.625,3.3333333333333335,2.0,2.0,1.5,1.0,,,,,,,,,,,,,,,,,,,,,,,,,,,,,,,,,,,,0.5929844941210531
7,240612_154624,DEMANDRATING,9.0,-1,,,,,,,,,,,,,,,,,,,,,,,,,,,,,,,,,,,,,,,8.0,Effort,3.0,92.0,1.3036670000001322,9,19,Female,0.7142857142857143,1.25,0.0,1.0,3.2222222222222223,2.125,1.5555555555555556,2.3333333333333335,2.625,3.3333333333333335,2.0,2.0,1.5,1.0,,,,,,,,,,,,,,,,,,,,,,,,,,,,,,,,,,,,0.9433844224653117
8,240612_154626,DEMANDRATING,9.0,-1,,,,,,,,,,,,,,,,,,,,,,,,,,,,,,,,,,,,,,,9.0,Frustration,3.0,97.0,1.043352299995604,9,19,Female,0.7142857142857143,1.25,0.0,1.0,3.2222222222222223,2.125,1.5555555555555556,2.3333333333333335,2.625,3.3333333333333335,2.0,2.0,1.5,1.0,,,,,,,,,,,,,,,,,,,,,,,,,,,,,,,,,,,,1.078153625674642
