,END,Phase,Block,TrialN,NbackLevel,ISI,Letter_Resp,Letter_RT,Letter_Accuracy,Trial_A_measure,Trial_ACC,Trial_RT,TrialCountCali,CaliEnd_A_measure,ISI_calibrated,TrialIndex,TrialNumber_total,TrialNumber_valid,CueLearning,TrialDemandLearning,CueMapping,OfflineRatingTimePoint,CueFigure,TrialDemand,OfflineRating,OfflineRatingRT,PhaseType,CueLeft,CueDemandLeft,CueRight,CueDemandRight,Choice,ChoiceDemand,TaskDemand,ChoiceRT,CueCheck,CueDemandCheck,CorrectAnswer,Answer,AnswerDemand,AnswerRT,AnswerACC,DemandRatingQuesIndex,QuesTLX,DemandLevel,DemandRating,DemandRatingRT,PID,Age,Gender,BAI_bis,BAI_bas_d,BAI_bas_rr,BAI_bas_fs,NFC,BFI_ext,BFI_agr,BFI_con,BFI_neu,BFI_open,UPPS_lps,UPPS_lpm,UPPS_pu,UPPS_ss,Task_A_measure,Task_ACC,Task_RT,Task_RT_z,Task_RT_log,Task_RT_log_z,cue_i_on_zyg_values,cue_i_on_zyg_zvalues,cue_e_on_zyg_values,cue_e_on_zyg_zvalues,cue_i_on_cor_values,cue_i_on_cor_zvalues,cue_e_on_cor_values,cue_e_on_cor_zvalues,cue_i_on_scr_values,cue_i_on_scr_zvalues,cue_e_on_scr_values,cue_e_on_scr_zvalues,cue_e_true_zyg_values,cue_e_true_zyg_zvalues,cue_e_true_cor_values,cue_e_true_cor_zvalues,cue_e_true_scr_values,cue_e_true_scr_zvalues,cue_e_false_zyg_values,cue_e_false_zyg_zvalues,cue_e_false_cor_values,cue_e_false_cor_zvalues,cue_e_false_scr_values,cue_e_false_scr_zvalues,OfflineRating_z,cue_i_off_zyg_values,cue_i_off_zyg_zvalues,cue_i_off_cor_values,cue_i_off_cor_zvalues,cue_i_off_scr_values,cue_i_off_scr_zvalues,DemandRating_z
0,240612_145821,PRACTICE,0.0,1,1.0,679.0,,,,,,,,,,29.0,1.0,1.0,cue1.png,Easy,A,,,,,,,,,,,,,,,,,,,,,,,,,,,9,19,Female,0.7142857142857143,1.25,0.0,1.0,3.2222222222222223,2.125,1.5555555555555556,2.3333333333333335,2.625,3.3333333333333335,2.0,2.0,1.5,1.0,,,,,,,,,,,,,,,,,,,,,,,,,,,,,,,,,,,,,,
1,240612_150122,PRACTICE,0.0,1,3.0,679.0,,,,,,,,,,39.0,1.0,1.0,cue2.png,Hard,A,,,,,,,,,,,,,,,,,,,,,,,,,,,9,19,Female,0.7142857142857143,1.25,0.0,1.0,3.2222222222222223,2.125,1.5555555555555556,2.3333333333333335,2.625,3.3333333333333335,2.0,2.0,1.5,1.0,,,,,,,,,,,,,,,,,,,,,,,,,,,,,,,,,,,,,,
2,240612_150250,PRACTICE,0.0,1,3.0,679.0,,,,,,,,,,3.0,1.0,1.0,cue2.png,Hard,A,,,,,,,,,,,,,,,,,,,,,,,,,,,9,19,Female,0.7142857142857143,1.25,0.0,1.0,3.2222222222222223,2.125,1.5555555555555556,2.3333333333333335,2.625,3.3333333333333335,2.0,2.0,1.5,1.0,,,,,,,,,,,,,,,,,,,,,,,,,,,,,,,,,,,,,,
0,240612_150406,LEARNING,1.0,1,1.0,679.0,,,,,,,,,,1.0,1.0,1.0,cue1.png,Easy,A,,,,,,,,,,,,,,,,,,,,,,,,,,,9,19,Female,0.7142857142857143,1.25,0.0,1.0,3.2222222222222223,2.125,1.5555555555555556,2.3333333333333335,2.625,3.3333333333333335,2.0,2.0,1.5,1.0,0.725,0.8,0.495365457144674,0.8155016402654294,-0.7024594915588325,0.7267023430759496,0.001667028753749837,1.2159362757367262,0.0005757684723757305,0.05165162715291955,0.0002194010306762412,0.2873959604699471,-1.5605384255188565e-06,0.15822785398537886,1.4800000000000002,-0.09971821375116888,,,,,,,,,,,,,,,,,,,,,,
1,240612_150431,LEARNING,1.0,2,3.0,679.0,,,,,,,,,,2.0,2.0,2.0,cue2.png,Hard,A,,,,,,,,,,,,,,,,,,,,,,,,,,,9,19,Female,0.7142857142857143,1.25,0.0,1.0,3.2222222222222223,2.125,1.5555555555555556,2.3333333333333335,2.625,3.3333333333333335,2.0,2.0,1.5,1.0,0.725,0.8,0.5374553071461767,1.1009858786003675,-0.6209096719329152,0.877020166426226,0.0006889531069820239,0.3060368310581171,-0.0007288436098630393,-0.827009703332382,-4.131219889466284e-05,-0.1638742452321944,-0.00012269881961797426,0.005659698648494166,1.434,-0.1850584524963558,1.447,-0.30949255004946913,,,,,,,,,,,,,,,,,,,,
2,240612_150457,LEARNING,1.0,3,1.0,679.0,,,,,,,,,,3.0,3.0,3.0,cue1.png,Easy,A,,,,,,,,,,,,,,,,,,,,,,,,,,,9,19,Female,0.7142857142857143,1.25,0.0,1.0,3.2222222222222223,2.125,1.5555555555555556,2.3333333333333335,2.625,3.3333333333333335,2.0,2.0,1.5,1.0,0.725,0.8,0.5570826999994877,1.2341132548924671,-0.5850415761092573,0.9431345259265124,,,0.004277576224303078,2.54483359962678,0.00038704072874502175,0.5775645919423648,-0.0005083338875291731,-0.4800301292511789,1.4460000000000002,-0.1627957815193502,1.467,-0.2800326563377269,,,,,,,,,,,,,,,,,,,,
3,240612_150522,LEARNING,1.0,4,3.0,679.0,,,,,,,,,,4.0,4.0,4.0,cue2.png,Hard,A,,,,,,,,,,,,,,,,,,,,,,,,,,,9,19,Female,0.7142857142857143,1.25,0.0,1.0,3.2222222222222223,2.125,1.5555555555555556,2.3333333333333335,2.625,3.3333333333333335,2.0,2.0,1.5,1.0,0.725,0.8,0.44047215000007,0.44317496342282753,-0.8199080592139751,0.5102136601271288,0.00017250771011172216,-0.17441003557434184,-0.00014528987580544927,-0.43398398529916116,3.665233111477262e-05,-0.028924938851636283,-0.0006856605736620894,-0.7033650249504151,1.968,0.8056304059803738,1.9540000000000002,0.4373157555431957,,,,,,,,,,,,,,,,,,,,
4,240612_150546,LEARNING,1.0,5,3.0,679.0,,,,,,,,,,5.0,5.0,5.0,cue2.png,Hard,A,,,,,,,,,,,,,,,,,,,,,,,,,,,9,19,Female,0.7142857142857143,1.25,0.0,1.0,3.2222222222222223,2.125,1.5555555555555556,2.3333333333333335,2.625,3.3333333333333335,2.0,2.0,1.5,1.0,0.725,0.8,0.454990957143309,0.5416521639514932,-0.7874777346389952,0.5699913006297779,0.001015115877430715,0.6094646126278105,,,0.00023960650705725107,0.32236974947856467,-0.00015160821580197364,-0.030750370937094915,1.5670000000000002,0.06168615083211846,1.587,-0.10327329406727388,,,,,,,,,,,,,,,,,,,,
5,240612_150613,LEARNING,1.0,6,1.0,679.0,,,,,,,,,,6.0,6.0,6.0,cue1.png,Easy,A,,,,,,,,,,,,,,,,,,,,,,,,,,,9,19,Female,0.7142857142857143,1.25,0.0,1.0,3.2222222222222223,2.125,1.5555555555555556,2.3333333333333335,2.625,3.3333333333333335,2.0,2.0,1.5,1.0,0.725,0.8,0.6016041928534313,1.5360906788198196,-0.508155536867085,1.084855772128193,0.001024843431939719,0.6185141135279436,,,-0.0004140906622774384,-0.8091188848269906,0.00034496330184750814,0.5946588696006285,1.574,0.07467270890203795,1.604,-0.07823238441229283,,,,,,,,,,,,,,,,,,,,
6,240612_150632,LEARNING,1.0,7,3.0,679.0,,,,,,,,,,7.0,7.0,7.0,cue2.png,Hard,A,,,,,,,,,,,,,,,,,,,,,,,,,,,9,19,Female,0.7142857142857143,1.25,0.0,1.0,3.2222222222222223,2.125,1.5555555555555556,2.3333333333333335,2.625,3.3333333333333335,2.0,2.0,1.5,1.0,0.0291666666666666,0.7,0.1057725357168237,-1.8270033444409137,-2.24646438005393,-2.1193058411899623,,,9.317904443841224e-05,-0.27337423655201143,-0.0002240414462756496,-0.4801614746494854,0.0005462074051040136,0.8481166643128655,,,,,,,,,,,,,,,,,,,,,,,,
7,240612_150655,LEARNING,1.0,8,3.0,679.0,,,,,,,,,,8.0,8.0,8.0,cue2.png,Hard,A,,,,,,,,,,,,,,,,,,,,,,,,,,,9,19,Female,0.7142857142857143,1.25,0.0,1.0,3.2222222222222223,2.125,1.5555555555555556,2.3333333333333335,2.625,3.3333333333333335,2.0,2.0,1.5,1.0,0.8875,0.9,0.2987111071384528,-0.5183524201499435,-1.208278369521878,-0.20565524022298357,-0.0002158898111774359,-0.5357345303651299,,,-0.0010668981394023865,-1.9390675451651243,-0.0009930521682685236,-1.090510757030424,,,0.6139999999999999,-1.5364971231435318,,,,,,,,,,,,,,,,,,,,
8,240612_150718,LEARNING,1.0,9,1.0,679.0,,,,,,,,,,9.0,9.0,9.0,cue1.png,Easy,A,,,,,,,,,,,,,,,,,,,,,,,,,,,9,19,Female,0.7142857142857143,1.25,0.0,1.0,3.2222222222222223,2.125,1.5555555555555556,2.3333333333333335,2.625,3.3333333333333335,2.0,2.0,1.5,1.0,0.15,0.6,0.3811286142871332,0.040663571899571795,-0.9646183905120369,0.24347435749219215,0.00017798218428754023,-0.16931715648166082,0.0010788790943343203,0.3904985951442184,3.0682356677676735e-05,-0.039258405997507,-0.0005024701847174988,-0.47264506226315084,,,,,,,,,,,,,,,,,,,,,,,,
9,240612_150738,LEARNING,1.0,10,1.0,679.0,,,,,,,,,,10.0,10.0,10.0,cue1.png,Easy,A,,,,,,,,,,,,,,,,,,,,,,,,,,,9,19,Female,0.7142857142857143,1.25,0.0,1.0,3.2222222222222223,2.125,1.5555555555555556,2.3333333333333335,2.625,3.3333333333333335,2.0,2.0,1.5,1.0,0.0291666666666666,0.7,0.1352229071438029,-1.6272493216726691,-2.0008306981881714,-1.6665381886194517,0.0008606453670922274,0.46576138063273237,0.00024054932764600457,-0.17411977549032107,0.0002238282656020548,0.29505908987443424,-0.0005401998899227196,-0.520163909880113,2.712,2.185916006554694,0.8009999999999997,-1.2610471169387425,,,,,,,,,,,,,,,,,,,,
10,240612_150757,LEARNING,1.0,11,3.0,679.0,,,,,,,,,,11.0,11.0,11.0,cue2.png,Hard,A,,,,,,,,,,,,,,,,,,,,,,,,,,,9,19,Female,0.7142857142857143,1.25,0.0,1.0,3.2222222222222223,2.125,1.5555555555555556,2.3333333333333335,2.625,3.3333333333333335,2.0,2.0,1.5,1.0,0.725,0.8,0.0951672857128349,-1.8989359296041362,-2.3521190337119244,-2.3140552304289503,0.0011808322782971645,0.7636298468004546,-0.0005727547035226125,-0.7218832155539452,,,,,,,2.012,0.5227494473072478,,,,,,,,,,,,,,,,,,,,
11,240612_150821,LEARNING,1.0,12,1.0,679.0,,,,,,,,,,12.0,12.0,12.0,cue1.png,Easy,A,,,,,,,,,,,,,,,,,,,,,,,,,,,9,19,Female,0.7142857142857143,1.25,0.0,1.0,3.2222222222222223,2.125,1.5555555555555556,2.3333333333333335,2.625,3.3333333333333335,2.0,2.0,1.5,1.0,0.8875,0.9,0.4292861642866877,0.3673034026713296,-0.8456315328135124,0.4627985146586539,,,-0.00029277203457520745,-0.5333137949887231,0.0006459191944742492,1.0256589931116447,-0.0008773153032135168,-0.9447454396419181,,,2.792,1.6716853020651932,,,,,,,,,,,,,,,,,,,,
12,240612_150848,LEARNING,1.0,13,1.0,679.0,,,,,,,,,,13.0,13.0,13.0,cue1.png,Easy,A,,,,,,,,,,,,,,,,,,,,,,,,,,,9,19,Female,0.7142857142857143,1.25,0.0,1.0,3.2222222222222223,2.125,1.5555555555555556,2.3333333333333335,2.625,3.3333333333333335,2.0,2.0,1.5,1.0,1.0,1.0,0.6063273142852788,1.5681263530853793,-0.5003353161435542,1.099270501218609,-0.001436498754597866,-1.6712616273317389,0.0007578297589350171,0.17427061440277916,,,-0.000933444577813804,-1.0154377080302914,,,,,,,,,,,,,,,,,,,,,,,,
13,240612_150913,LEARNING,1.0,14,1.0,679.0,,,,,,,,,,14.0,14.0,14.0,cue1.png,Easy,A,,,,,,,,,,,,,,,,,,,,,,,,,,,9,19,Female,0.7142857142857143,1.25,0.0,1.0,3.2222222222222223,2.125,1.5555555555555556,2.3333333333333335,2.625,3.3333333333333335,2.0,2.0,1.5,1.0,0.725,0.8,0.4813891571435046,0.7207041211383243,-0.731079277477385,0.673948530207178,,,,,,,-0.0006151916238309177,-0.6146125878311491,,,,,,,,,,,,,,,,,,,,,,,,
14,240612_150935,LEARNING,1.0,15,3.0,679.0,,,,,,,,,,15.0,15.0,15.0,cue2.png,Hard,A,,,,,,,,,,,,,,,,,,,,,,,,,,,9,19,Female,0.7142857142857143,1.25,0.0,1.0,3.2222222222222223,2.125,1.5555555555555556,2.3333333333333335,2.625,3.3333333333333335,2.0,2.0,1.5,1.0,0.0291666666666666,0.7,0.296840828571086,-0.5310380213640082,-1.21455921457873,-0.21723249400572894,-5.811495214287556e-05,-0.3889572774049893,-0.00012808914710066245,-0.42239922736626734,-0.000769835674671376,-1.4248802145636663,0.0005949011291500649,0.9094441949750063,,,,,,,,,,,,,,,,,,,,,,,,
15,240612_150959,LEARNING,1.0,16,1.0,679.0,,,,,,,,,,16.0,16.0,16.0,cue1.png,Easy,A,,,,,,,,,,,,,,,,,,,,,,,,,,,9,19,Female,0.7142857142857143,1.25,0.0,1.0,3.2222222222222223,2.125,1.5555555555555556,2.3333333333333335,2.625,3.3333333333333335,2.0,2.0,1.5,1.0,0.0291666666666666,0.7,0.4282839714287547,0.3605057955356067,-0.8479688187623458,0.45849028028134386,,,-0.00022459905737165064,-0.48739902870047236,0.0007691330351928868,1.2389306223955303,,,,,,,,,,,,,,,,,,,,,,,,,,
16,240612_151024,LEARNING,1.0,17,1.0,679.0,,,,,,,,,,17.0,17.0,17.0,cue1.png,Easy,A,,,,,,,,,,,,,,,,,,,,,,,,,,,9,19,Female,0.7142857142857143,1.25,0.0,1.0,3.2222222222222223,2.125,1.5555555555555556,2.3333333333333335,2.625,3.3333333333333335,2.0,2.0,1.5,1.0,0.725,0.7285714285714286,0.4065515769247073,0.21310075389348018,-0.9000444775393371,0.3625011081066296,0.00013925339496818163,-0.20534637775019196,0.0009345651011695207,0.29330255735785205,-0.00018620631635985017,-0.4146724049618016,,,,,,,,,,,,,,,,,,,,,,,,,,
17,240612_151050,LEARNING,1.0,18,3.0,679.0,,,,,,,,,,18.0,18.0,18.0,cue2.png,Hard,A,,,,,,,,,,,,,,,,,,,,,,,,,,,9,19,Female,0.7142857142857143,1.25,0.0,1.0,3.2222222222222223,2.125,1.5555555555555556,2.3333333333333335,2.625,3.3333333333333335,2.0,2.0,1.5,1.0,0.8875,0.9,0.5891126214275053,1.4513636780343662,-0.5291379057518971,1.0461797329417724,0.00021287807813274214,-0.13685366090619996,-0.0008689234261094409,-0.9213540064343313,,,-0.00010564164992881656,0.027142428047704857,,,,,,,,,,,,,,,,,,,,,,,,
18,240612_151116,LEARNING,1.0,19,3.0,679.0,,,,,,,,,,19.0,19.0,19.0,cue2.png,Hard,A,,,,,,,,,,,,,,,,,,,,,,,,,,,9,19,Female,0.7142857142857143,1.25,0.0,1.0,3.2222222222222223,2.125,1.5555555555555556,2.3333333333333335,2.625,3.3333333333333335,2.0,2.0,1.5,1.0,0.725,0.8,0.5235816785706058,1.0068847523977962,-0.6470622368294073,0.8288140925403412,-0.0010566178920506748,-1.3178601424691108,0.002690683868283879,1.4760554027515558,0.0008039844516080693,1.299255163196837,,,,,,,,,,,,,,,,,,,,,,,,,,
19,240612_151140,LEARNING,1.0,20,3.0,679.0,,,,,,,,,,20.0,20.0,20.0,cue2.png,Hard,A,,,,,,,,,,,,,,,,,,,,,,,,,,,9,19,Female,0.7142857142857143,1.25,0.0,1.0,3.2222222222222223,2.125,1.5555555555555556,2.3333333333333335,2.625,3.3333333333333335,2.0,2.0,1.5,1.0,0.5625,0.7285714285714286,0.3682359461538279,-0.04678396098568164,-0.9990313882404932,0.18004212751021964,-0.0023945951912315673,-2.562574501261735,,,,,,,1.1629999999999998,-0.6878237720603892,1.322,-0.49361688574785784,,,,,,,,,,,,,,,,,,,,
20,240612_151205,LEARNING,1.0,21,1.0,679.0,,,,,,,,,,21.0,21.0,21.0,cue1.png,Easy,A,,,,,,,,,,,,,,,,,,,,,,,,,,,9,19,Female,0.7142857142857143,1.25,0.0,1.0,3.2222222222222223,2.125,1.5555555555555556,2.3333333333333335,2.625,3.3333333333333335,2.0,2.0,1.5,1.0,1.0,1.0,0.4764961428539079,0.6875161088841202,-0.7412956506658519,0.655117060226386,0.00046832867669336373,0.10079090016761837,0.0015006747589993517,0.6745796219514488,-0.00021488100828048057,-0.46430561361318384,0.0008825756794930599,1.271757206610605,1.051,-0.8956087011791037,2.013,0.5242224419928347,,,,,,,,,,,,,,,,,,,,
21,240612_151229,LEARNING,1.0,22,3.0,679.0,,,,,,,,,,22.0,22.0,22.0,cue2.png,Hard,A,,,,,,,,,,,,,,,,,,,,,,,,,,,9,19,Female,0.7142857142857143,1.25,0.0,1.0,3.2222222222222223,2.125,1.5555555555555556,2.3333333333333335,2.625,3.3333333333333335,2.0,2.0,1.5,1.0,0.15,0.5285714285714286,0.3659862153849994,-0.062043285382768695,-1.00515960917255,0.1687462002384978,,,0.0007498477710603233,0.1688947144081535,2.9949768317482153e-05,-0.04052644790141849,-0.00027217208995606625,-0.18259508673535593,1.461,-0.13496744279809395,2.95,1.904418462387957,,,,,,,,,,,,,,,,,,,,
22,240612_151251,LEARNING,1.0,23,3.0,679.0,,,,,,,,,,23.0,23.0,23.0,cue2.png,Hard,A,,,,,,,,,,,,,,,,,,,,,,,,,,,9,19,Female,0.7142857142857143,1.25,0.0,1.0,3.2222222222222223,2.125,1.5555555555555556,2.3333333333333335,2.625,3.3333333333333335,2.0,2.0,1.5,1.0,0.725,0.7285714285714286,0.2146634769238657,-1.0884251026330425,-1.538683700706605,-0.814679397907707,,,0.00010251060853428556,-0.2670893917037876,0.00032566229018155066,0.4713242579102132,0.0015917782087474545,2.1649655350059303,2.388,1.5848238901755543,2.1029999999999998,0.6567919636956744,,,,,,,,,,,,,,,,,,,,
23,240612_151312,LEARNING,1.0,24,3.0,679.0,,,,,,,,,,24.0,24.0,24.0,cue2.png,Hard,A,,,,,,,,,,,,,,,,,,,,,,,,,,,9,19,Female,0.7142857142857143,1.25,0.0,1.0,3.2222222222222223,2.125,1.5555555555555556,2.3333333333333335,2.625,3.3333333333333335,2.0,2.0,1.5,1.0,0.0291666666666666,0.7,0.2452280285714161,-0.8811138922856958,-1.4055667724340328,-0.5693097943844073,-0.00133500103153345,-1.576838744850565,-0.00011690489301716817,-0.41486658857863257,-0.0011772555887617523,-2.1300859639662333,-0.001035311746068547,-1.1437347731448833,1.369,-0.305647920288467,2.973,1.93829734015646,,,,,,,,,,,,,,,,,,,,
24,240612_151336,LEARNING,1.0,25,1.0,679.0,,,,,,,,,,25.0,25.0,25.0,cue1.png,Easy,A,,,,,,,,,,,,,,,,,,,,,,,,,,,9,19,Female,0.7142857142857143,1.25,0.0,1.0,3.2222222222222223,2.125,1.5555555555555556,2.3333333333333335,2.625,3.3333333333333335,2.0,2.0,1.5,1.0,1.0,1.0,0.4305735642857534,0.37603549385608187,-0.8426370886774208,0.4683180648764969,0.0012243837967065223,0.8041456315933175,0.0024123705871376636,1.2886103213875866,,,,,1.66,0.23422185090390799,1.7570000000000001,0.147135802482535,,,,,,,,,,,,,,,,,,,,
25,240612_151401,LEARNING,1.0,26,1.0,679.0,,,,,,,,,,26.0,26.0,26.0,cue1.png,Easy,A,,,,,,,,,,,,,,,,,,,,,,,,,,,9,19,Female,0.7142857142857143,1.25,0.0,1.0,3.2222222222222223,2.125,1.5555555555555556,2.3333333333333335,2.625,3.3333333333333335,2.0,2.0,1.5,1.0,1.0,1.0,0.4868678500008952,0.7578646350723816,-0.7197625479573418,0.6948082470857679,-0.0013475948197418193,-1.5885546902736651,-0.002704284181395569,-2.1574766402158794,-0.0005640451345691657,-1.0686760452688246,0.00013483287849318324,0.33000915890847565,0.6320000000000001,-1.6729469627928668,1.455,-0.2977085925647722,,,,,,,,,,,,,,,,,,,,
26,240612_151424,LEARNING,1.0,27,3.0,679.0,,,,,,,,,,27.0,27.0,27.0,cue2.png,Hard,A,,,,,,,,,,,,,,,,,,,,,,,,,,,9,19,Female,0.7142857142857143,1.25,0.0,1.0,3.2222222222222223,2.125,1.5555555555555556,2.3333333333333335,2.625,3.3333333333333335,2.0,2.0,1.5,1.0,0.0291666666666666,0.7,0.3766946500015495,0.010589173515424991,-0.9763203666638655,0.221904529476525,0.0005109009479163252,0.1403956956376721,,,-0.000501718176250038,-0.960793912291709,,,2.25,1.328803173939995,,,,,,,,,,,,,,,,,,,,,,
27,240612_151450,LEARNING,1.0,28,1.0,679.0,,,,,,,,,,28.0,28.0,28.0,cue1.png,Easy,A,,,,,,,,,,,,,,,,,,,,,,,,,,,9,19,Female,0.7142857142857143,1.25,0.0,1.0,3.2222222222222223,2.125,1.5555555555555556,2.3333333333333335,2.625,3.3333333333333335,2.0,2.0,1.5,1.0,1.0,0.9285714285714286,0.4493884769225797,0.503652033313243,-0.7998675605863924,0.5471535840456736,,,0.0011147758343609876,0.414675189690078,0.0013786201647749971,2.2938958145800927,-3.264453767293056e-06,0.15608185011289782,0.9609999999999999,-1.0625787335066426,1.494,-0.24026179982687504,,,,,,,,,,,,,,,,,,,,
28,240612_151514,LEARNING,1.0,29,1.0,679.0,,,,,,,,,,29.0,29.0,29.0,cue1.png,Easy,A,,,,,,,,,,,,,,,,,,,,,,,,,,,9,19,Female,0.7142857142857143,1.25,0.0,1.0,3.2222222222222223,2.125,1.5555555555555556,2.3333333333333335,2.625,3.3333333333333335,2.0,2.0,1.5,1.0,1.0,1.0,0.4322042785726288,0.387096194383974,-0.8388569354381552,0.4752858841735039,,,0.00010737979446885648,-0.2638099759679556,0.0007374654788941132,1.1841170455450116,0.00024887879623403195,0.4736448050654483,1.7399999999999998,0.3826396574172754,2.8049999999999997,1.6908342329778254,,,,,,,,,,,,,,,,,,,,
29,240612_151535,LEARNING,1.0,30,3.0,679.0,,,,,,,,,,30.0,30.0,30.0,cue2.png,Hard,A,,,,,,,,,,,,,,,,,,,,,,,,,,,9,19,Female,0.7142857142857143,1.25,0.0,1.0,3.2222222222222223,2.125,1.5555555555555556,2.3333333333333335,2.625,3.3333333333333335,2.0,2.0,1.5,1.0,0.725,0.8,0.2067709285713915,-1.1419581552537412,-1.576143723737585,-0.8837280990636149,,,-7.093187809701501e-06,-0.34090797642560383,0.0004154623795272899,0.626759810060057,-0.0016527163987155105,-1.9213278512661196,1.555,0.039423479855112874,0.613,-1.5379701178291187,,,,,,,,,,,,,,,,,,,,
30,240612_151556,LEARNING,1.0,31,3.0,679.0,,,,,,,,,,31.0,31.0,31.0,cue2.png,Hard,A,,,,,,,,,,,,,,,,,,,,,,,,,,,9,19,Female,0.7142857142857143,1.25,0.0,1.0,3.2222222222222223,2.125,1.5555555555555556,2.3333333333333335,2.625,3.3333333333333335,2.0,2.0,1.5,1.0,0.725,0.8,0.2719235714258892,-0.7000451377409576,-1.3022342395753164,-0.3788406861528455,0.0009124824375504612,0.5139851778201802,0.0038275068213363805,2.241710099695046,,,,,,,,,,,,,,,,,,,,,,,,,,,,
31,240612_151620,LEARNING,1.0,32,1.0,679.0,,,,,,,,,,32.0,32.0,32.0,cue1.png,Easy,A,,,,,,,,,,,,,,,,,,,,,,,,,,,9,19,Female,0.7142857142857143,1.25,0.0,1.0,3.2222222222222223,2.125,1.5555555555555556,2.3333333333333335,2.625,3.3333333333333335,2.0,2.0,1.5,1.0,0.8875,0.9,0.4165936071409045,0.28121316929779117,-0.8756440955900859,0.4074774467466375,-0.0016765677378465524,-1.8945967397684904,0.00480472135015402,2.89986789981829,,,-0.00017825206428639592,-0.06430708624070391,1.5739999999999998,0.07467270890203753,1.2149999999999999,-0.6512273171056788,,,,,,,,,,,,,,,,,,,,
32,240612_151645,LEARNING,1.0,33,1.0,679.0,,,,,,,,,,33.0,33.0,33.0,cue1.png,Easy,A,,,,,,,,,,,,,,,,,,,,,,,,,,,9,19,Female,0.7142857142857143,1.25,0.0,1.0,3.2222222222222223,2.125,1.5555555555555556,2.3333333333333335,2.625,3.3333333333333335,2.0,2.0,1.5,1.0,0.725,0.8,0.4638087999992422,0.60146124265796,-0.7682828806467795,0.6053724784775244,,,-0.0021952033393227953,-1.8146087056704328,0.0010529413379488217,1.7301762387972677,-0.0011305750163672053,-1.2637145291539238,2.146,1.1358600254726168,1.7600000000000002,0.1515547865392965,,,,,,,,,,,,,,,,,,,,
33,240612_151710,LEARNING,1.0,34,1.0,679.0,,,,,,,,,,34.0,34.0,34.0,cue1.png,Easy,A,,,,,,,,,,,,,,,,,,,,,,,,,,,9,19,Female,0.7142857142857143,1.25,0.0,1.0,3.2222222222222223,2.125,1.5555555555555556,2.3333333333333335,2.625,3.3333333333333335,2.0,2.0,1.5,1.0,1.0,1.0,0.4751523571425683,0.6784015684361628,-0.7441197744982915,0.649911455243919,0.00010076655376349943,-0.24115051575863725,0.0021119853646727133,1.0862997013784192,0.00107690813470769,1.7716605214368433,,,2.2969999999999997,1.415998635266598,1.588,-0.10180029938168661,,,,,,,,,,,,,,,,,,,,
34,240612_151732,LEARNING,1.0,35,3.0,679.0,,,,,,,,,,35.0,35.0,35.0,cue2.png,Hard,A,,,,,,,,,,,,,,,,,,,,,,,,,,,9,19,Female,0.7142857142857143,1.25,0.0,1.0,3.2222222222222223,2.125,1.5555555555555556,2.3333333333333335,2.625,3.3333333333333335,2.0,2.0,1.5,1.0,0.725,0.8,0.2937954142866407,-0.5516942550492833,-1.2248716236465373,-0.23624098343809302,0.0008889014591316837,0.49204789797978205,7.581773652623166e-05,-0.2850671452079729,,,0.0011212025914008102,1.5722969485082323,0.9589999999999999,-1.0662891786694768,2.287,0.9278229858437028,,,,,,,,,,,,,,,,,,,,
35,240612_151753,LEARNING,1.0,36,3.0,679.0,,,,,,,,,,36.0,36.0,36.0,cue2.png,Hard,A,,,,,,,,,,,,,,,,,,,,,,,,,,,9,19,Female,0.7142857142857143,1.25,0.0,1.0,3.2222222222222223,2.125,1.5555555555555556,2.3333333333333335,2.625,3.3333333333333335,2.0,2.0,1.5,1.0,0.725,0.8,0.1985184999991491,-1.1979321795203042,-1.616872984209491,-0.9588028669648506,0.0014916057422047642,1.052741024616643,0.00010320830874146298,-0.2666194878904898,-0.00035282086086844446,-0.7030665915441654,0.0006313039309986789,0.9552918681668815,0.6700000000000002,-1.6024485046990171,1.456,-0.29623559787918524,,,,,,,,,,,,,,,,,,,,
36,240612_151819,LEARNING,1.0,37,1.0,679.0,,,,,,,,,,37.0,37.0,37.0,cue1.png,Easy,A,,,,,,,,,,,,,,,,,,,,,,,,,,,9,19,Female,0.7142857142857143,1.25,0.0,1.0,3.2222222222222223,2.125,1.5555555555555556,2.3333333333333335,2.625,3.3333333333333335,2.0,2.0,1.5,1.0,0.9375,0.8571428571428572,0.4827176500026932,0.7297149342446981,-0.7283233718242594,0.6790283910951217,0.0015840282799200458,1.13872130233936,0.00028201728020968344,-0.1461909475512319,-0.00033965407380956176,-0.6802761151487879,-0.0002560943031570473,-0.16234584554025464,0.605,-1.7230379724911287,1.577,-0.11800324092314499,,,,,,,,,,,,,,,,,,,,
37,240612_151842,LEARNING,1.0,38,3.0,679.0,,,,,,,,,,38.0,38.0,38.0,cue2.png,Hard,A,,,,,,,,,,,,,,,,,,,,,,,,,,,9,19,Female,0.7142857142857143,1.25,0.0,1.0,3.2222222222222223,2.125,1.5555555555555556,2.3333333333333335,2.625,3.3333333333333335,2.0,2.0,1.5,1.0,0.8875,0.8285714285714286,0.29283443076845,-0.5582123502131601,-1.228147912386008,-0.24228004758616045,,,,,0.00019322454064673363,0.2420869055377602,0.0007129160244075871,1.058078587790192,1.8099999999999998,0.5125052381164723,1.121,-0.789688817550867,,,,,,,,,,,,,,,,,,,,
38,240612_151904,LEARNING,1.0,39,3.0,679.0,,,,,,,,,,39.0,39.0,39.0,cue2.png,Hard,A,,,,,,,,,,,,,,,,,,,,,,,,,,,9,19,Female,0.7142857142857143,1.25,0.0,1.0,3.2222222222222223,2.125,1.5555555555555556,2.3333333333333335,2.625,3.3333333333333335,2.0,2.0,1.5,1.0,0.0291666666666666,0.5571428571428572,0.1278329916652486,-1.677373149428751,-2.0570306196085784,-1.7701294644692802,9.722523501093502e-05,-0.24444498891829175,-0.00020312001297730998,-0.472932808448474,0.0003132109003755367,0.4497720672205216,0.0006837049748714998,1.021288599527978,2.1670000000000003,1.1748196996823765,2.66,1.4772500035676952,,,,,,,,,,,,,,,,,,,,
39,240612_151923,LEARNING,1.0,40,3.0,679.0,,,,,,,,,,40.0,40.0,40.0,cue2.png,Hard,A,,,,,,,,,,,,,,,,,,,,,,,,,,,9,19,Female,0.7142857142857143,1.25,0.0,1.0,3.2222222222222223,2.125,1.5555555555555556,2.3333333333333335,2.625,3.3333333333333335,2.0,2.0,1.5,1.0,0.8875,0.9,0.0649073928569643,-2.1041807205394,-2.734793750250051,-3.019425649457001,3.1537080813578804e-05,-0.30555438799560675,7.249190031078387e-05,-0.28730710888286604,-0.0008086538777332944,-1.4920708918820773,0.00038712154500801163,0.6477552593456932,1.8739999999999999,0.6312394833271666,1.496,-0.23731581045570083,,,,,,,,,,,,,,,,,,,,
40,240612_151949,LEARNING,1.0,41,1.0,679.0,,,,,,,,,,41.0,41.0,41.0,cue1.png,Easy,A,,,,,,,,,,,,,,,,,,,,,,,,,,,9,19,Female,0.7142857142857143,1.25,0.0,1.0,3.2222222222222223,2.125,1.5555555555555556,2.3333333333333335,2.625,3.3333333333333335,2.0,2.0,1.5,1.0,1.0,0.8571428571428572,0.4875544833327391,0.7625218860188646,-0.7183532341064532,0.6974059841678945,0.0003048748842776803,-0.05126943937884768,0.000182115925487556,-0.21347489996319738,0.0002407104999254516,0.3242806578338734,0.0010492743928416587,1.481706653988201,0.784,-1.3909531304174683,0.486,-1.7250404428986816,,,,,,,,,,,,,,,,,,,,
41,240612_152014,LEARNING,1.0,42,3.0,679.0,,,,,,,,,,42.0,42.0,42.0,cue2.png,Hard,A,,,,,,,,,,,,,,,,,,,,,,,,,,,9,19,Female,0.7142857142857143,1.25,0.0,1.0,3.2222222222222223,2.125,1.5555555555555556,2.3333333333333335,2.625,3.3333333333333335,2.0,2.0,1.5,1.0,0.8875,0.8285714285714286,0.3921267461566738,0.11526097007920218,-0.9361701594198802,0.29591194957461053,0.00044647367925069884,0.08045929278914128,0.0005216073177794944,0.015173878091693948,-0.0001826889577703078,-0.4085841863591499,-0.00037748258204901245,-0.3152288616088354,,,,,,,,,,,,,,,,,,,,,,,,
42,240612_152033,LEARNING,1.0,43,3.0,679.0,,,,,,,,,,43.0,43.0,43.0,cue2.png,Hard,A,,,,,,,,,,,,,,,,,,,,,,,,,,,9,19,Female,0.7142857142857143,1.25,0.0,1.0,3.2222222222222223,2.125,1.5555555555555556,2.3333333333333335,2.625,3.3333333333333335,2.0,2.0,1.5,1.0,0.725,0.8,0.1055215499997887,-1.828705713688087,-2.2488400815245115,-2.123684885504542,,,,,0.00045603856677206654,0.6969933935061133,4.094848338860851e-05,0.21176603348994927,1.018,-0.9568310463658678,1.899,0.35630104783590444,,,,,,,,,,,,,,,,,,,,
43,240612_152057,LEARNING,1.0,44,1.0,679.0,,,,,,,,,,44.0,44.0,44.0,cue1.png,Easy,A,,,,,,,,,,,,,,,,,,,,,,,,,,,9,19,Female,0.7142857142857143,1.25,0.0,1.0,3.2222222222222223,2.125,1.5555555555555556,2.3333333333333335,2.625,3.3333333333333335,2.0,2.0,1.5,1.0,1.0,1.0,0.4015278714286978,0.17902629800693962,-0.9124783297513616,0.3395822395065017,0.0031406484626008407,2.5868381678163352,,,,,0.0003419006182669923,0.5908015589333465,1.454,-0.14795400086801383,0.7919999999999999,-1.2743040691090262,,,,,,,,,,,,,,,,,,,,
44,240612_152122,LEARNING,1.0,45,1.0,679.0,,,,,,,,,,45.0,45.0,45.0,cue1.png,Easy,A,,,,,,,,,,,,,,,,,,,,,,,,,,,9,19,Female,0.7142857142857143,1.25,0.0,1.0,3.2222222222222223,2.125,1.5555555555555556,2.3333333333333335,2.625,3.3333333333333335,2.0,2.0,1.5,1.0,0.8875,0.9,0.4770875214287246,0.6915272721929256,-0.7400553218456699,0.6574033133333043,0.0011014580291932715,0.6897883342138941,-0.00046775402814954164,-0.651164850776244,0.00030666727214785205,0.4384456590393729,-0.0025475744651336334,-3.048360884406493,1.3070000000000002,-0.42067172033632666,1.762,0.1545007759104704,,,,,,,,,,,,,,,,,,,,
45,240612_152145,LEARNING,1.0,46,1.0,679.0,,,,,,,,,,46.0,46.0,46.0,cue1.png,Easy,A,,,,,,,,,,,,,,,,,,,,,,,,,,,9,19,Female,0.7142857142857143,1.25,0.0,1.0,3.2222222222222223,2.125,1.5555555555555556,2.3333333333333335,2.625,3.3333333333333335,2.0,2.0,1.5,1.0,0.8875,0.9,0.4145348785719501,0.2672493619327058,-0.8805981618143051,0.39834579624178373,7.27814599590375e-05,-0.2671849246472613,,,,,,,0.6270000000000001,-1.6822230756999523,2.036,0.5581013197613385,,,,,,,,,,,,,,,,,,,,
46,240612_152207,LEARNING,1.0,47,3.0,679.0,,,,,,,,,,47.0,47.0,47.0,cue2.png,Hard,A,,,,,,,,,,,,,,,,,,,,,,,,,,,9,19,Female,0.7142857142857143,1.25,0.0,1.0,3.2222222222222223,2.125,1.5555555555555556,2.3333333333333335,2.625,3.3333333333333335,2.0,2.0,1.5,1.0,0.0291666666666666,0.7,0.2350993142879036,-0.9498142626229039,-1.4477472401230398,-0.6470595198895406,0.00023828793904230507,-0.11321497978028026,-0.00022382016997327158,-0.48687444499695215,-0.0002326742600242595,-0.49510406748428426,,,1.4090000000000003,-0.23143901703178263,0.262,-2.0549912524701943,,,,,,,,,,,,,,,,,,,,
47,240612_152230,LEARNING,1.0,48,3.0,679.0,,,,,,,,,,48.0,48.0,48.0,cue2.png,Hard,A,,,,,,,,,,,,,,,,,,,,,,,,,,,9,19,Female,0.7142857142857143,1.25,0.0,1.0,3.2222222222222223,2.125,1.5555555555555556,2.3333333333333335,2.625,3.3333333333333335,2.0,2.0,1.5,1.0,0.725,0.5857142857142857,0.1314192636385666,-1.6530484221434774,-2.02936258064357,-1.7191299722243099,0.002062261456938613,1.5836195099923933,-0.000562746182224896,-0.7151424373874951,,,-0.0008247571220453059,-0.8785508010044736,2.1639999999999997,1.1692540319381242,2.289,0.9307689752148774,,,,,,,,,,,,,,,,,,,,
48,240612_152255,LEARNING,1.0,49,1.0,679.0,,,,,,,,,,49.0,49.0,49.0,cue1.png,Easy,A,,,,,,,,,,,,,,,,,,,,,,,,,,,9,19,Female,0.7142857142857143,1.25,0.0,1.0,3.2222222222222223,2.125,1.5555555555555556,2.3333333333333335,2.625,3.3333333333333335,2.0,2.0,1.5,1.0,0.8875,0.9,0.5303435357127455,1.0527486277949405,-0.6342303018241914,0.8524667327080857,0.00042896905512183805,0.06417481844731232,0.0002881605379624237,-0.142053439471992,-0.000570422509775432,-1.079714685026033,-0.00026024866763532835,-0.1675780786445154,2.074,1.002283999610586,,,,,,,,,,,,,,,,,,,,,,
49,240612_152322,LEARNING,1.0,50,1.0,679.0,,,,,,,,,,50.0,50.0,50.0,cue1.png,Easy,A,,,,,,,,,,,,,,,,,,,,,,,,,,,9,19,Female,0.7142857142857143,1.25,0.0,1.0,3.2222222222222223,2.125,1.5555555555555556,2.3333333333333335,2.625,3.3333333333333335,2.0,2.0,1.5,1.0,0.8875,0.9,0.5759167571408658,1.3618596464232295,-0.5517921475827651,1.0044219910204817,0.0005943993689550425,0.21807390711930966,,,-0.00020810900362366793,-0.4525839072021765,0.00030260539501123385,0.541311012537386,1.8650000000000002,0.6145424800944133,1.2069999999999999,-0.6630112745903758,,,,,,,,,,,,,,,,,,,,
0,240612_152427,TrueCHOICE,9.0,1,1.0,679.0,,,,,,,,,,,1.0,1.0,,,A,,,,,,True,cue1.png,Easy,cue2.png,Hard,Left,Easy,Easy,0.0160728000046219,,,,,,,,,,,,,9,19,Female,0.7142857142857143,1.25,0.0,1.0,3.2222222222222223,2.125,1.5555555555555556,2.3333333333333335,2.625,3.3333333333333335,2.0,2.0,1.5,1.0,0.8875,0.9,0.1686528785711354,-0.7651048416402391,-1.7799126493062625,-0.610922923524517,,,,,,,,,,,,,,,0.0007023025983437046,1.1109400559305604,,,,,,,,,,,,,,,,
1,240612_152456,TrueCHOICE,9.0,2,1.0,679.0,,,,,,,,,,,3.0,2.0,,,A,,,,,,True,cue1.png,Easy,cue2.png,Hard,Left,Easy,Easy,0.0170209999923827,,,,,,,,,,,,,9,19,Female,0.7142857142857143,1.25,0.0,1.0,3.2222222222222223,2.125,1.5555555555555556,2.3333333333333335,2.625,3.3333333333333335,2.0,2.0,1.5,1.0,,,,,,,,,,,,,,,,,,,0.0002178059326246192,-0.2743827194740243,0.0007407743656186721,1.1349491736539463,1.4569999999999999,0.10581551479985378,,,,,,,,,,,,,,
2,240612_152515,TrueCHOICE,9.0,3,3.0,679.0,,,,,,,,,,,4.0,3.0,,,A,,,,,,True,cue2.png,Hard,cue1.png,Easy,Left,Hard,Hard,0.0163201999966986,,,,,,,,,,,,,9,19,Female,0.7142857142857143,1.25,0.0,1.0,3.2222222222222223,2.125,1.5555555555555556,2.3333333333333335,2.625,3.3333333333333335,2.0,2.0,1.5,1.0,0.0291666666666666,0.6285714285714286,0.1306184307681038,-1.002296193746559,-2.035474948298182,-1.0302127775568166,,,,,,,,,,,,,,,,,,,,,,,,,,,,,,,,
3,240612_152544,TrueCHOICE,9.0,4,1.0,679.0,,,,,,,,,,,6.0,4.0,,,A,,,,,,True,cue1.png,Easy,cue2.png,Hard,Left,Easy,Easy,0.0137429000023985,,,,,,,,,,,,,9,19,Female,0.7142857142857143,1.25,0.0,1.0,3.2222222222222223,2.125,1.5555555555555556,2.3333333333333335,2.625,3.3333333333333335,2.0,2.0,1.5,1.0,0.8875,0.9,0.5302175428587361,1.4896935463991456,-0.6344678984268722,1.2683580357278832,,,,,,,,,,,,,,,,,1.139,-1.6652020486924437,,,,,,,,,,,,,,
4,240612_152607,TrueCHOICE,9.0,5,1.0,679.0,,,,,,,,,,,7.0,5.0,,,A,,,,,,True,cue2.png,Hard,cue1.png,Easy,Right,Easy,Easy,0.0164724000060232,,,,,,,,,,,,,9,19,Female,0.7142857142857143,1.25,0.0,1.0,3.2222222222222223,2.125,1.5555555555555556,2.3333333333333335,2.625,3.3333333333333335,2.0,2.0,1.5,1.0,0.5625,0.5857142857142857,0.1622401636347852,-0.8050959711106151,-1.8186775499827785,-0.6745227956901174,,,,,,,,,,,,,-0.000896922745969989,-0.9292257580370922,-0.0011267211694106355,-0.03050079977605645,1.579,0.7852625045673399,,,,,,,,,,,,,,
5,240612_152629,TrueCHOICE,9.0,6,1.0,679.0,,,,,,,,,,,8.0,6.0,,,A,,,,,,True,cue2.png,Hard,cue1.png,Easy,Right,Easy,Easy,0.0164550999907078,,,,,,,,,,,,,9,19,Female,0.7142857142857143,1.25,0.0,1.0,3.2222222222222223,2.125,1.5555555555555556,2.3333333333333335,2.625,3.3333333333333335,2.0,2.0,1.5,1.0,1.0,1.0,0.414095771427258,0.7655321199614521,-0.8816579999600338,0.8628040788300949,,,,,,,,,,,,,0.0009122775172031926,0.13358191925267618,-0.0026817110464370164,-1.000925026699779,1.5769999999999997,0.7741240293252488,,,,,,,,,,,,,,
6,240612_152654,TrueCHOICE,9.0,7,1.0,679.0,,,,,,,,,,,9.0,7.0,,,A,,,,,,True,cue1.png,Easy,cue2.png,Hard,Left,Easy,Easy,0.0169989999994868,,,,,,,,,,,,,9,19,Female,0.7142857142857143,1.25,0.0,1.0,3.2222222222222223,2.125,1.5555555555555556,2.3333333333333335,2.625,3.3333333333333335,2.0,2.0,1.5,1.0,,,,,,,,,,,,,,,,,,,0.004292837665450241,2.119478866224809,,,,,,,,,,,,,,,,,,
7,240612_152715,TrueCHOICE,9.0,8,1.0,679.0,,,,,,,,,,,10.0,8.0,,,A,,,,,,True,cue2.png,Hard,cue1.png,Easy,Right,Easy,Easy,0.0166171000018948,,,,,,,,,,,,,9,19,Female,0.7142857142857143,1.25,0.0,1.0,3.2222222222222223,2.125,1.5555555555555556,2.3333333333333335,2.625,3.3333333333333335,2.0,2.0,1.5,1.0,0.8875,0.9,0.3444832285708149,0.3314126804158405,-1.0657098731073595,0.5608382437647532,,,,,,,,,,,,,-0.00018028138013324087,-0.508237567299794,-0.003023881001040362,-1.2144634031086714,,,,,,,,,,,,,,,,
8,240612_152733,TrueCHOICE,9.0,9,3.0,679.0,,,,,,,,,,,11.0,9.0,,,A,,,,,,True,cue1.png,Easy,cue2.png,Hard,Right,Hard,Hard,0.0165264999959617,,,,,,,,,,,,,9,19,Female,0.7142857142857143,1.25,0.0,1.0,3.2222222222222223,2.125,1.5555555555555556,2.3333333333333335,2.625,3.3333333333333335,2.0,2.0,1.5,1.0,0.725,0.7285714285714286,0.0988986076912484,-1.2001081289463362,-2.313660118397476,-1.4866189838907615,,,,,,,,,,,,,,,,,,,,,,,,,,,,,,,,
9,240612_152757,TrueCHOICE,9.0,10,1.0,679.0,,,,,,,,,,,12.0,10.0,,,A,,,,,,True,cue2.png,Hard,cue1.png,Easy,Right,Easy,Easy,0.0163140999939059,,,,,,,,,,,,,9,19,Female,0.7142857142857143,1.25,0.0,1.0,3.2222222222222223,2.125,1.5555555555555556,2.3333333333333335,2.625,3.3333333333333335,2.0,2.0,1.5,1.0,0.8875,0.9,0.4815139142873314,1.1859667886673109,-0.730820150368486,1.110277122339481,,,,,,,,,,,,,-0.00023641788724431973,-0.5412147406665742,,,,,,,,,,,,,,,,,,
0,240612_152939,FalseCHOICE,9.0,1,2.0,679.0,,,,,,,,,,,1.0,1.0,,,A,,,,,,False,cue1.png,Easy,cue2.png,Hard,Left,Easy,Mid,0.0163135999900987,,,,,,,,,,,,,9,19,Female,0.7142857142857143,1.25,0.0,1.0,3.2222222222222223,2.125,1.5555555555555556,2.3333333333333335,2.625,3.3333333333333335,2.0,2.0,1.5,1.0,0.0291666666666666,0.5571428571428572,0.0803212416661457,-0.43239656101173696,-2.5217211641673494,-0.3428535675687936,,,,,,,,,,,,,,,,,,,,,,,1.591,0.057840432386740526,,,,,,,,
1,240612_152956,FalseCHOICE,9.0,2,2.0,679.0,,,,,,,,,,,2.0,2.0,,,A,,,,,,False,cue2.png,Hard,cue1.png,Easy,Right,Easy,Mid,0.0176253000099677,,,,,,,,,,,,,9,19,Female,0.7142857142857143,1.25,0.0,1.0,3.2222222222222223,2.125,1.5555555555555556,2.3333333333333335,2.625,3.3333333333333335,2.0,2.0,1.5,1.0,,,,,,,,,,,,,,,,,,,,,,,,,0.002399265430399496,1.4864509402821011,,,1.5369999999999997,-0.06443967635032817,,,,,,,,
2,240612_153015,FalseCHOICE,9.0,3,2.0,679.0,,,,,,,,,,,3.0,3.0,,,A,,,,,,False,cue2.png,Hard,cue1.png,Easy,Right,Easy,Mid,0.0165771000029053,,,,,,,,,,,,,9,19,Female,0.7142857142857143,1.25,0.0,1.0,3.2222222222222223,2.125,1.5555555555555556,2.3333333333333335,2.625,3.3333333333333335,2.0,2.0,1.5,1.0,,,,,,,,,,,,,,,,,,,,,,,,,0.000473361877178443,-0.059352784372614285,-0.00035970074672510635,-0.24665354843008475,1.468,-0.22068648195880344,,,,,,,,
3,240612_153039,FalseCHOICE,9.0,4,2.0,679.0,,,,,,,,,,,5.0,4.0,,,A,,,,,,False,cue2.png,Hard,cue1.png,Easy,Right,Easy,Mid,0.0165107999928295,,,,,,,,,,,,,9,19,Female,0.7142857142857143,1.25,0.0,1.0,3.2222222222222223,2.125,1.5555555555555556,2.3333333333333335,2.625,3.3333333333333335,2.0,2.0,1.5,1.0,0.0291666666666666,0.7,0.1890810500013426,0.9885149419795359,-1.6655795198604273,1.217135993952927,,,,,,,,,,,,,,,,,,,,,,,1.469,-0.21842203550070935,,,,,,,,
4,240612_153105,FalseCHOICE,9.0,5,2.0,679.0,,,,,,,,,,,7.0,5.0,,,A,,,,,,False,cue1.png,Easy,cue2.png,Hard,Left,Easy,Mid,0.0016451999981654,,,,,,,,,,,,,9,19,Female,0.7142857142857143,1.25,0.0,1.0,3.2222222222222223,2.125,1.5555555555555556,2.3333333333333335,2.625,3.3333333333333335,2.0,2.0,1.5,1.0,,,,,,,,,,,,,,,,,,,,,,,,,0.0009297128283422508,0.3069319129472042,-0.00030662367874195046,-0.18367593494166096,2.229,1.5025572726506193,,,,,,,,
5,240612_153128,FalseCHOICE,9.0,6,2.0,679.0,,,,,,,,,,,9.0,6.0,,,A,,,,,,False,cue2.png,Hard,cue1.png,Easy,Right,Easy,Mid,0.0171145999920554,,,,,,,,,,,,,9,19,Female,0.7142857142857143,1.25,0.0,1.0,3.2222222222222223,2.125,1.5555555555555556,2.3333333333333335,2.625,3.3333333333333335,2.0,2.0,1.5,1.0,0.725,0.8,0.0502610785718258,-0.8251228095802545,-2.9905242872516298,-1.1970673338110565,,,,,,,,,,,,,,,,,,,-0.0002178151925936035,-0.6141178903731894,6.225843693215185e-05,0.2540143178637155,2.0,0.9839990337471267,,,,,,,,
6,240612_153146,FalseCHOICE,9.0,7,2.0,679.0,,,,,,,,,,,10.0,7.0,,,A,,,,,,False,cue2.png,Hard,cue1.png,Easy,Right,Easy,Mid,0.016542199999094,,,,,,,,,,,,,9,19,Female,0.7142857142857143,1.25,0.0,1.0,3.2222222222222223,2.125,1.5555555555555556,2.3333333333333335,2.625,3.3333333333333335,2.0,2.0,1.5,1.0,0.0291666666666666,0.6285714285714286,0.5098654692354523,5.179458988748448,-0.6736083738742014,3.0246226912294976,,,,,,,,,,,,,,,,,,,,,-0.00025309404298732956,-0.12016133553310898,,,,,,,,,,
7,240612_153205,FalseCHOICE,9.0,8,2.0,679.0,,,,,,,,,,,11.0,8.0,,,A,,,,,,False,cue1.png,Easy,cue2.png,Hard,Right,Hard,Mid,0.0175775999960023,,,,,,,,,,,,,9,19,Female,0.7142857142857143,1.25,0.0,1.0,3.2222222222222223,2.125,1.5555555555555556,2.3333333333333335,2.625,3.3333333333333335,2.0,2.0,1.5,1.0,,,,,,,,,,,,,,,,,,,,,,,,,0.0001730030819604932,-0.3004322214005901,0.0008605410746206302,1.2012018193816776,,,,,,,,,,
8,240612_153224,FalseCHOICE,9.0,9,2.0,679.0,,,,,,,,,,,12.0,9.0,,,A,,,,,,False,cue1.png,Easy,cue2.png,Hard,Right,Hard,Mid,0.0150030000077094,,,,,,,,,,,,,9,19,Female,0.7142857142857143,1.25,0.0,1.0,3.2222222222222223,2.125,1.5555555555555556,2.3333333333333335,2.625,3.3333333333333335,2.0,2.0,1.5,1.0,0.0291666666666666,0.7,0.193348949999615,1.0442736665855186,-1.6432586915118983,1.2578071369346604,,,,,,,,,,,,,,,,,,,0.002276237774091701,1.3877042460158897,-0.00018979593817509185,-0.045056139807528865,,,,,,,,,,
9,240612_153243,FalseCHOICE,9.0,10,2.0,679.0,,,,,,,,,,,13.0,10.0,,,A,,,,,,False,cue2.png,Hard,cue1.png,Easy,Right,Easy,Mid,0.0165926000045146,,,,,,,,,,,,,9,19,Female,0.7142857142857143,1.25,0.0,1.0,3.2222222222222223,2.125,1.5555555555555556,2.3333333333333335,2.625,3.3333333333333335,2.0,2.0,1.5,1.0,,,,,,,,,,,,,,,,,,,,,,,,,0.000884800915124738,0.2708838966190303,0.001993634144617282,2.545652447877335,,,,,,,,,,
10,240612_153301,FalseCHOICE,9.0,11,2.0,679.0,,,,,,,,,,,14.0,11.0,,,A,,,,,,False,cue1.png,Easy,cue2.png,Hard,Right,Hard,Mid,0.0150211000000126,,,,,,,,,,,,,9,19,Female,0.7142857142857143,1.25,0.0,1.0,3.2222222222222223,2.125,1.5555555555555556,2.3333333333333335,2.625,3.3333333333333335,2.0,2.0,1.5,1.0,0.725,0.8,0.1782296071417347,0.846744372324353,-1.7246826321695623,1.1094432554104208,,,,,,,,,,,,,,,,,,,-0.00016528641295557095,-0.5719562862366621,-0.00010270005384885924,0.05828587112025353,1.146,-0.9498382414650245,,,,,,,,
11,240612_153319,FalseCHOICE,9.0,12,2.0,679.0,,,,,,,,,,,15.0,12.0,,,A,,,,,,False,cue2.png,Hard,cue1.png,Easy,Right,Easy,Mid,0.0163089999987278,,,,,,,,,,,,,9,19,Female,0.7142857142857143,1.25,0.0,1.0,3.2222222222222223,2.125,1.5555555555555556,2.3333333333333335,2.625,3.3333333333333335,2.0,2.0,1.5,1.0,,,,,,,,,,,,,,,,,,,,,,,,,-0.0003347056151839344,-0.7079386065323116,0.0017290595865432504,2.231726398636169,,,,,,,,,,
12,240612_153335,FalseCHOICE,9.0,13,2.0,679.0,,,,,,,,,,,16.0,13.0,,,A,,,,,,False,cue1.png,Easy,cue2.png,Hard,Left,Easy,Mid,0.0154914000013377,,,,,,,,,,,,,9,19,Female,0.7142857142857143,1.25,0.0,1.0,3.2222222222222223,2.125,1.5555555555555556,2.3333333333333335,2.625,3.3333333333333335,2.0,2.0,1.5,1.0,0.15,0.6,0.087261164285467,-0.3417287303985072,-2.4388497686588977,-0.19185225510889298,,,,,,,,,,,,,,,,,,,-0.00011942394149482959,-0.5351453155692502,-0.0028648792018015484,-3.219126717321017,1.6010000000000002,0.08048489696767959,,,,,,,,
13,240612_153353,FalseCHOICE,9.0,14,2.0,679.0,,,,,,,,,,,17.0,14.0,,,A,,,,,,False,cue2.png,Hard,cue1.png,Easy,Left,Hard,Mid,0.0015652000001864,,,,,,,,,,,,,9,19,Female,0.7142857142857143,1.25,0.0,1.0,3.2222222222222223,2.125,1.5555555555555556,2.3333333333333335,2.625,3.3333333333333335,2.0,2.0,1.5,1.0,0.0291666666666666,0.7,0.2155700428577672,1.3345850135297337,-1.5344693973854437,1.456033872394973,,,,,,,,,,,,,,,,,,,,,0.00010034909873407518,0.2992100882337193,,,,,,,,,,
14,240612_153411,FalseCHOICE,9.0,15,2.0,679.0,,,,,,,,,,,18.0,15.0,,,A,,,,,,False,cue1.png,Easy,cue2.png,Hard,Right,Hard,Mid,0.0142973000038182,,,,,,,,,,,,,9,19,Female,0.7142857142857143,1.25,0.0,1.0,3.2222222222222223,2.125,1.5555555555555556,2.3333333333333335,2.625,3.3333333333333335,2.0,2.0,1.5,1.0,,,,,,,,,,,,,,,,,,,,,,,,,,,-0.0009546886480416798,-0.952625439931233,,,,,,,,,,
15,240612_153428,FalseCHOICE,9.0,16,2.0,679.0,,,,,,,,,,,19.0,16.0,,,A,,,,,,False,cue1.png,Easy,cue2.png,Hard,Right,Hard,Mid,0.0182524999981978,,,,,,,,,,,,,9,19,Female,0.7142857142857143,1.25,0.0,1.0,3.2222222222222223,2.125,1.5555555555555556,2.3333333333333335,2.625,3.3333333333333335,2.0,2.0,1.5,1.0,0.0291666666666666,0.7,0.087437892856542,-0.33941982912889723,-2.436826533568195,-0.18816568566914113,,,,,,,,,,,,,,,,,,,0.0006498533578129808,0.08230601659818387,0.00024834514811407447,0.4748120638105378,,,,,,,,,,
16,240612_153444,FalseCHOICE,9.0,17,2.0,679.0,,,,,,,,,,,20.0,17.0,,,A,,,,,,False,cue2.png,Hard,cue1.png,Easy,Right,Easy,Mid,0.0169247000012546,,,,,,,,,,,,,9,19,Female,0.7142857142857143,1.25,0.0,1.0,3.2222222222222223,2.125,1.5555555555555556,2.3333333333333335,2.625,3.3333333333333335,2.0,2.0,1.5,1.0,0.0291666666666666,0.7,0.0753018285707055,-0.4979735596728122,-2.5862508606636263,-0.4604341730816223,,,,,,,,,,,,,,,,,,,0.00020016365272024043,-0.27863211029225043,0.0001854175216038324,0.40014645226312545,,,,,,,,,,
17,240612_153508,FalseCHOICE,9.0,18,2.0,679.0,,,,,,,,,,,22.0,18.0,,,A,,,,,,False,cue2.png,Hard,cue1.png,Easy,Right,Easy,Mid,0.0149141000001691,,,,,,,,,,,,,9,19,Female,0.7142857142857143,1.25,0.0,1.0,3.2222222222222223,2.125,1.5555555555555556,2.3333333333333335,2.625,3.3333333333333335,2.0,2.0,1.5,1.0,0.725,0.8,0.1208703714291914,0.09736462373606178,-2.1130366181512223,0.40181716534073125,,,,,,,,,,,,,,,,,,,,,-1.3201967960480877e-05,0.1644781698889188,,,,,,,,,,
18,240612_153533,FalseCHOICE,9.0,19,2.0,679.0,,,,,,,,,,,24.0,19.0,,,A,,,,,,False,cue1.png,Easy,cue2.png,Hard,Right,Hard,Mid,0.0169026000075973,,,,,,,,,,,,,9,19,Female,0.7142857142857143,1.25,0.0,1.0,3.2222222222222223,2.125,1.5555555555555556,2.3333333333333335,2.625,3.3333333333333335,2.0,2.0,1.5,1.0,0.725,0.6571428571428573,0.1459477249991323,0.4249920873877868,-1.9245067693394213,0.7453404574704654,,,,,,,,,,,,,,,,,,,,,7.215152602414038e-05,0.265752779777993,,,,,,,,,,
19,240612_153552,FalseCHOICE,9.0,20,2.0,679.0,,,,,,,,,,,25.0,20.0,,,A,,,,,,False,cue1.png,Easy,cue2.png,Hard,Right,Hard,Mid,0.0156987000082153,,,,,,,,,,,,,9,19,Female,0.7142857142857143,1.25,0.0,1.0,3.2222222222222223,2.125,1.5555555555555556,2.3333333333333335,2.625,3.3333333333333335,2.0,2.0,1.5,1.0,0.725,0.7285714285714286,0.1505189384624827,0.48471350370993344,-1.8936663657499948,0.801535256535017,,,,,,,,,,,,,,,,,,,0.004483832077787124,3.159603722223583,,,1.421,-0.32711546548921444,,,,,,,,
20,240612_153610,FalseCHOICE,9.0,21,2.0,679.0,,,,,,,,,,,26.0,21.0,,,A,,,,,,False,cue1.png,Easy,cue2.png,Hard,Right,Hard,Mid,0.0165865999879315,,,,,,,,,,,,,9,19,Female,0.7142857142857143,1.25,0.0,1.0,3.2222222222222223,2.125,1.5555555555555556,2.3333333333333335,2.625,3.3333333333333335,2.0,2.0,1.5,1.0,0.725,0.8,0.1361173500003392,0.2965614370555116,-1.9942378976528143,0.6182822387687154,,,,,,,,,,,,,,,,,,,-0.0002720833792758384,-0.6576756090156181,,,0.937,-1.4231075512066396,,,,,,,,
21,240612_153634,FalseCHOICE,9.0,22,2.0,679.0,,,,,,,,,,,28.0,22.0,,,A,,,,,,False,cue2.png,Hard,cue1.png,Easy,Right,Easy,Mid,0.0172373000095831,,,,,,,,,,,,,9,19,Female,0.7142857142857143,1.25,0.0,1.0,3.2222222222222223,2.125,1.5555555555555556,2.3333333333333335,2.625,3.3333333333333335,2.0,2.0,1.5,1.0,0.725,0.8,0.0947356071452044,-0.2440775667892491,-2.3566653500387957,-0.04210269436783305,,,,,,,,,,,,,,,,,,,-2.8245111602937488e-05,-0.46196170540309345,0.0006285960165685715,0.9259916999909786,2.202,1.441417218282085,,,,,,,,
22,240612_153654,FalseCHOICE,9.0,23,2.0,679.0,,,,,,,,,,,29.0,23.0,,,A,,,,,,False,cue1.png,Easy,cue2.png,Hard,Right,Hard,Mid,0.0165024000016273,,,,,,,,,,,,,9,19,Female,0.7142857142857143,1.25,0.0,1.0,3.2222222222222223,2.125,1.5555555555555556,2.3333333333333335,2.625,3.3333333333333335,2.0,2.0,1.5,1.0,0.8875,0.7571428571428571,0.1782293166676633,0.8467405773751373,-1.7246842619454046,1.1094402857694525,,,,,,,,,,,,,,,,,,,0.003410270616810509,2.2979223040404717,,,2.1870000000000003,1.4074505214106778,,,,,,,,
23,240612_153711,FalseCHOICE,9.0,24,2.0,679.0,,,,,,,,,,,30.0,24.0,,,A,,,,,,False,cue2.png,Hard,cue1.png,Easy,Right,Easy,Mid,0.0153399999981047,,,,,,,,,,,,,9,19,Female,0.7142857142857143,1.25,0.0,1.0,3.2222222222222223,2.125,1.5555555555555556,2.3333333333333335,2.625,3.3333333333333335,2.0,2.0,1.5,1.0,0.15,0.6,0.0749709642872663,-0.5022961938652043,-2.5906543832414113,-0.46845790291762496,,,,,,,,,,,,,,,,,,,-0.0007390585037150791,-1.0324876734473951,,,,,,,,,,,,
24,240612_153730,FalseCHOICE,9.0,25,2.0,679.0,,,,,,,,,,,31.0,25.0,,,A,,,,,,False,cue2.png,Hard,cue1.png,Easy,Right,Easy,Mid,0.0171357999934116,,,,,,,,,,,,,9,19,Female,0.7142857142857143,1.25,0.0,1.0,3.2222222222222223,2.125,1.5555555555555556,2.3333333333333335,2.625,3.3333333333333335,2.0,2.0,1.5,1.0,0.0291666666666666,0.7,0.1522957928578502,0.5079275281566941,-1.8819306435082042,0.8229191061770145,,,,,,,,,,,,,,,,,,,0.00012706452191635223,-0.33730426367017347,,,1.428,-0.31126434028255767,,,,,,,,
25,240612_153749,FalseCHOICE,9.0,26,2.0,679.0,,,,,,,,,,,32.0,26.0,,,A,,,,,,False,cue1.png,Easy,cue2.png,Hard,Right,Hard,Mid,0.0164668999932473,,,,,,,,,,,,,9,19,Female,0.7142857142857143,1.25,0.0,1.0,3.2222222222222223,2.125,1.5555555555555556,2.3333333333333335,2.625,3.3333333333333335,2.0,2.0,1.5,1.0,0.175,0.6285714285714286,0.1618661384631055,0.6329609790818593,-1.8209855911118549,0.9339680735960271,,,,,,,,,,,,,,,,,,,0.0012748974580025808,0.5839902761918626,0.0007554228702163534,1.0764757578428115,0.383,-2.6776108889906345,,,,,,,,
26,240612_153806,FalseCHOICE,9.0,27,2.0,679.0,,,,,,,,,,,33.0,27.0,,,A,,,,,,False,cue1.png,Easy,cue2.png,Hard,Right,Hard,Mid,0.0165812000050209,,,,,,,,,,,,,9,19,Female,0.7142857142857143,1.25,0.0,1.0,3.2222222222222223,2.125,1.5555555555555556,2.3333333333333335,2.625,3.3333333333333335,2.0,2.0,1.5,1.0,0.0291666666666666,0.7,0.0785098571411383,-0.4560617103653558,-2.54453109339994,-0.3844159091959157,,,,,,,,,,,,,,,,,,,-0.00036005210294327676,-0.7282826653611025,-0.00046672524949550615,-0.37364149304307614,1.984,0.947767890417625,,,,,,,,
27,240612_153831,FalseCHOICE,9.0,28,2.0,679.0,,,,,,,,,,,35.0,28.0,,,A,,,,,,False,cue2.png,Hard,cue1.png,Easy,Right,Easy,Mid,0.0165117999858921,,,,,,,,,,,,,9,19,Female,0.7142857142857143,1.25,0.0,1.0,3.2222222222222223,2.125,1.5555555555555556,2.3333333333333335,2.625,3.3333333333333335,2.0,2.0,1.5,1.0,0.0291666666666666,0.7,0.0860338714306375,-0.35776291215792727,-2.453014206424074,-0.21766150665673317,,,,,,,,,,,,,,,,,,,-1.132711368227778e-05,-0.4483826743266318,,,1.2850000000000001,-0.6350801837899782,,,,,,,,
28,240612_153848,FalseCHOICE,9.0,29,2.0,679.0,,,,,,,,,,,36.0,29.0,,,A,,,,,,False,cue1.png,Easy,cue2.png,Hard,Right,Hard,Mid,0.0166421000030823,,,,,,,,,,,,,9,19,Female,0.7142857142857143,1.25,0.0,1.0,3.2222222222222223,2.125,1.5555555555555556,2.3333333333333335,2.625,3.3333333333333335,2.0,2.0,1.5,1.0,0.0291666666666666,0.7,0.0971800357136609,-0.21214190301485555,-2.3311899825043354,0.004316385575252175,,,,,,,,,,,,,,,,,,,-0.0006812159354615097,-0.9860610196825067,-0.0006756483871876925,-0.6215353785633315,1.4280000000000002,-0.3112643402825572,,,,,,,,
29,240612_153904,FalseCHOICE,9.0,30,2.0,679.0,,,,,,,,,,,37.0,30.0,,,A,,,,,,False,cue1.png,Easy,cue2.png,Hard,Right,Hard,Mid,0.01651070000662,,,,,,,,,,,,,9,19,Female,0.7142857142857143,1.25,0.0,1.0,3.2222222222222223,2.125,1.5555555555555556,2.3333333333333335,2.625,3.3333333333333335,2.0,2.0,1.5,1.0,0.725,0.8,0.0649041714256912,-0.6338155666389922,-2.7348433826736573,-0.7311870149708727,,,,,,,,,,,,,,,,,,,2.318994300290131e-05,-0.42067796673687247,0.000201129639411682,0.41878937509189507,,,,,,,,,,
30,240612_153921,FalseCHOICE,9.0,31,2.0,679.0,,,,,,,,,,,38.0,31.0,,,A,,,,,,False,cue2.png,Hard,cue1.png,Easy,Right,Easy,Mid,0.016631899998174,,,,,,,,,,,,,9,19,Female,0.7142857142857143,1.25,0.0,1.0,3.2222222222222223,2.125,1.5555555555555556,2.3333333333333335,2.625,3.3333333333333335,2.0,2.0,1.5,1.0,0.725,0.8,0.0199718000003485,-1.2208423772984616,-3.9134340003960926,-2.8787160753553143,,,,,,,,,,,,,,,,,,,0.0017941460334749458,1.0007590082731772,-0.00026832773010933893,-0.1382365852789681,1.5059999999999998,-0.13463751655123746,,,,,,,,
31,240612_153937,FalseCHOICE,9.0,32,2.0,679.0,,,,,,,,,,,39.0,32.0,,,A,,,,,,False,cue1.png,Easy,cue2.png,Hard,Right,Hard,Mid,0.0165402999991783,,,,,,,,,,,,,9,19,Female,0.7142857142857143,1.25,0.0,1.0,3.2222222222222223,2.125,1.5555555555555556,2.3333333333333335,2.625,3.3333333333333335,2.0,2.0,1.5,1.0,0.8875,0.9,0.0962409428570286,-0.22441084558464447,-2.3409004104286595,-0.013377142476543027,,,,,,,,,,,,,,,,,,,-0.00010166041953572425,-0.5208876346166157,-0.00034117364221547195,-0.2246705551864174,1.376,-0.42901555610343817,,,,,,,,
32,240612_153955,FalseCHOICE,9.0,33,2.0,679.0,,,,,,,,,,,40.0,33.0,,,A,,,,,,False,cue2.png,Hard,cue1.png,Easy,Right,Easy,Mid,0.0161221000016666,,,,,,,,,,,,,9,19,Female,0.7142857142857143,1.25,0.0,1.0,3.2222222222222223,2.125,1.5555555555555556,2.3333333333333335,2.625,3.3333333333333335,2.0,2.0,1.5,1.0,0.725,0.8,0.0855593428579075,-0.36396247353828576,-2.4585450752800417,-0.2277393924117711,,,,,,,,,,,,,,,,,,,-6.774158125252665e-05,-0.49366307995683734,-0.0015408393434982416,-1.648111708241099,1.4329999999999998,-0.29994210799208865,,,,,,,,
33,240612_154011,FalseCHOICE,9.0,34,2.0,679.0,,,,,,,,,,,41.0,34.0,,,A,,,,,,False,cue2.png,Hard,cue1.png,Easy,Right,Easy,Mid,0.0165104000043356,,,,,,,,,,,,,9,19,Female,0.7142857142857143,1.25,0.0,1.0,3.2222222222222223,2.125,1.5555555555555556,2.3333333333333335,2.625,3.3333333333333335,2.0,2.0,1.5,1.0,0.725,0.8,0.0966212285711662,-0.21944253648303214,-2.3369568044413107,-0.006191434111662702,,,,,,,,,,,,,,,,,,,,,0.00021869998498212292,0.4396371437091146,1.6589999999999998,0.2118227915371222,,,,,,,,
34,240612_154028,FalseCHOICE,9.0,35,2.0,679.0,,,,,,,,,,,42.0,35.0,,,A,,,,,,False,cue2.png,Hard,cue1.png,Easy,Right,Easy,Mid,0.0164331999985734,,,,,,,,,,,,,9,19,Female,0.7142857142857143,1.25,0.0,1.0,3.2222222222222223,2.125,1.5555555555555556,2.3333333333333335,2.625,3.3333333333333335,2.0,2.0,1.5,1.0,0.15,0.6,0.1128597500023066,-0.007291538368311896,-2.1816093815569526,0.27686962210536364,,,,,,,,,,,,,,,,,,,0.00017733535094188518,-0.2969549769059521,-0.001254077565505514,-1.3078598235022807,1.8030000000000002,0.5379030815026379,,,,,,,,
35,240612_154046,FalseCHOICE,9.0,36,2.0,679.0,,,,,,,,,,,43.0,36.0,,,A,,,,,,False,cue1.png,Easy,cue2.png,Hard,Right,Hard,Mid,0.0164894000045023,,,,,,,,,,,,,9,19,Female,0.7142857142857143,1.25,0.0,1.0,3.2222222222222223,2.125,1.5555555555555556,2.3333333333333335,2.625,3.3333333333333335,2.0,2.0,1.5,1.0,0.0291666666666666,0.7,0.1450230142872897,0.4129110428593992,-1.9308628299334383,0.7337589764795566,,,,,,,,,,,,,,,,,,,0.00021118580953506357,-0.26978530639618514,-0.00014092964029312205,0.012925262284943938,1.742,0.3997718475589125,,,,,,,,
36,240612_154102,FalseCHOICE,9.0,37,2.0,679.0,,,,,,,,,,,44.0,37.0,,,A,,,,,,False,cue2.png,Hard,cue1.png,Easy,Right,Easy,Mid,0.0158676999999443,,,,,,,,,,,,,9,19,Female,0.7142857142857143,1.25,0.0,1.0,3.2222222222222223,2.125,1.5555555555555556,2.3333333333333335,2.625,3.3333333333333335,2.0,2.0,1.5,1.0,0.8875,0.9,0.0360609999999204,-1.0106422150946037,-3.322543330035172,-1.8020446111260222,,,,,,,,,,,,,,,,,,,-0.00011307579398939314,-0.5300500500030441,-0.00010269027572074648,0.058297473177343816,0.6910000000000001,-1.9801613798977276,,,,,,,,
37,240612_154119,FalseCHOICE,9.0,38,2.0,679.0,,,,,,,,,,,45.0,38.0,,,A,,,,,,False,cue1.png,Easy,cue2.png,Hard,Right,Hard,Mid,0.0165907999908085,,,,,,,,,,,,,9,19,Female,0.7142857142857143,1.25,0.0,1.0,3.2222222222222223,2.125,1.5555555555555556,2.3333333333333335,2.625,3.3333333333333335,2.0,2.0,1.5,1.0,0.8875,0.9,0.0655027714268986,-0.6259950524212329,-2.725662825375005,-0.7144589727712161,,,,,,,,,,,,,,,,,,,0.00015790583765391657,-0.3125498461082744,-0.0006551661260958113,-0.597232530432707,1.6710000000000003,0.23899614903424948,,,,,,,,
38,240612_154135,FalseCHOICE,9.0,39,2.0,679.0,,,,,,,,,,,46.0,39.0,,,A,,,,,,False,cue1.png,Easy,cue2.png,Hard,Right,Hard,Mid,0.0165059999999357,,,,,,,,,,,,,9,19,Female,0.7142857142857143,1.25,0.0,1.0,3.2222222222222223,2.125,1.5555555555555556,2.3333333333333335,2.625,3.3333333333333335,2.0,2.0,1.5,1.0,0.725,0.8,0.0717453857141663,-0.5444373282463386,-2.634631737014376,-0.5485897517598924,,,,,,,,,,,,,,,,,,,6.74524966152207e-05,-0.3851511512209976,-0.00023402297693132616,-0.09753291477579933,,,,,,,,,,
39,240612_154152,FalseCHOICE,9.0,40,2.0,679.0,,,,,,,,,,,47.0,40.0,,,A,,,,,,False,cue2.png,Hard,cue1.png,Easy,Right,Easy,Mid,0.0165783000120427,,,,,,,,,,,,,9,19,Female,0.7142857142857143,1.25,0.0,1.0,3.2222222222222223,2.125,1.5555555555555556,2.3333333333333335,2.625,3.3333333333333335,2.0,2.0,1.5,1.0,0.8875,0.9,0.0673884285715757,-0.6013595554616241,-2.6972819587173813,-0.6627457358001606,,,,,,,,,,,,,,,,,,,,,-6.755044606278002e-05,0.0999919882351607,2.024,1.0383457487413792,,,,,,,,
40,240612_154208,FalseCHOICE,9.0,41,2.0,679.0,,,,,,,,,,,48.0,41.0,,,A,,,,,,False,cue2.png,Hard,cue1.png,Easy,Right,Easy,Mid,0.016487999993842,,,,,,,,,,,,,9,19,Female,0.7142857142857143,1.25,0.0,1.0,3.2222222222222223,2.125,1.5555555555555556,2.3333333333333335,2.625,3.3333333333333335,2.0,2.0,1.5,1.0,0.15,0.6,0.0559227642858916,-0.7511547281669113,-2.883783749411901,-1.0025736703752706,,,,,,,,,,,,,,,,,,,0.0013851257624114231,0.6724637219324785,-0.0003711020261253986,-0.26018152566449043,1.5349999999999997,-0.06896856926651589,,,,,,,,
41,240612_154231,FalseCHOICE,9.0,42,2.0,679.0,,,,,,,,,,,50.0,42.0,,,A,,,,,,False,cue1.png,Easy,cue2.png,Hard,Right,Hard,Mid,0.0173753999988548,,,,,,,,,,,,,9,19,Female,0.7142857142857143,1.25,0.0,1.0,3.2222222222222223,2.125,1.5555555555555556,2.3333333333333335,2.625,3.3333333333333335,2.0,2.0,1.5,1.0,0.0291666666666666,0.7,0.1224585642869767,0.118113846589054,-2.0999825569355908,0.42560318178703593,,,,,,,,,,,,,,,,,,,0.00262384321520237,1.6667056449594866,0.001025754563018455,1.3972328288318296,,,,,,,,,,
42,240612_154254,FalseCHOICE,9.0,43,2.0,679.0,,,,,,,,,,,52.0,43.0,,,A,,,,,,False,cue2.png,Hard,cue1.png,Easy,Right,Easy,Mid,0.0155083999998169,,,,,,,,,,,,,9,19,Female,0.7142857142857143,1.25,0.0,1.0,3.2222222222222223,2.125,1.5555555555555556,2.3333333333333335,2.625,3.3333333333333335,2.0,2.0,1.5,1.0,0.725,0.8,0.0803622928578988,-0.43186024055047145,-2.521210207114185,-0.3419225444435632,,,,,,,,,,,,,,,,,,,-0.0012082505663424652,-1.4090791371137978,-0.0013225033084192277,-1.389049123394386,0.8989999999999998,-1.5091565166142065,,,,,,,,
43,240612_154310,FalseCHOICE,9.0,44,2.0,679.0,,,,,,,,,,,53.0,44.0,,,A,,,,,,False,cue1.png,Easy,cue2.png,Hard,Right,Hard,Mid,0.0169290000048931,,,,,,,,,,,,,9,19,Female,0.7142857142857143,1.25,0.0,1.0,3.2222222222222223,2.125,1.5555555555555556,2.3333333333333335,2.625,3.3333333333333335,2.0,2.0,1.5,1.0,0.8875,0.9,0.0379450928584057,-0.9860271550250365,-3.2716150889450226,-1.709247437883024,,,,,,,,,,,,,,,,,,,0.0005910880785438984,0.03513875974225574,0.0004772678067459313,0.7464360110608782,1.9169999999999998,0.7960499777253365,,,,,,,,
44,240612_154326,FalseCHOICE,9.0,45,2.0,679.0,,,,,,,,,,,54.0,45.0,,,A,,,,,,False,cue2.png,Hard,cue1.png,Easy,Right,Easy,Mid,0.0166252000053646,,,,,,,,,,,,,9,19,Female,0.7142857142857143,1.25,0.0,1.0,3.2222222222222223,2.125,1.5555555555555556,2.3333333333333335,2.625,3.3333333333333335,2.0,2.0,1.5,1.0,0.8875,0.9,0.0603406071448781,-0.6934370488805064,-2.8077499832388995,-0.8640313131125461,,,,,,,,,,,,,,,,,,,-0.001767032202251717,-1.8575786129118128,-0.0003747065635534147,-0.2644584228928413,1.71,0.3273095608999091,,,,,,,,
45,240612_154343,FalseCHOICE,9.0,46,2.0,679.0,,,,,,,,,,,55.0,46.0,,,A,,,,,,False,cue2.png,Hard,cue1.png,Easy,Right,Easy,Mid,0.0167164000013144,,,,,,,,,,,,,9,19,Female,0.7142857142857143,1.25,0.0,1.0,3.2222222222222223,2.125,1.5555555555555556,2.3333333333333335,2.625,3.3333333333333335,2.0,2.0,1.5,1.0,0.0291666666666666,0.7,0.0681341714288074,-0.5916166677135296,-2.6862764085821533,-0.6426923445839698,,,,,,,,,,,,,,,,,,,,,-0.0004171989676895688,-0.3148769992303638,2.032,1.0564613204061302,,,,,,,,
46,240612_154402,FalseCHOICE,9.0,47,2.0,679.0,,,,,,,,,,,56.0,47.0,,,A,,,,,,False,cue1.png,Easy,cue2.png,Hard,Left,Easy,Mid,0.0145913999876938,,,,,,,,,,,,,9,19,Female,0.7142857142857143,1.25,0.0,1.0,3.2222222222222223,2.125,1.5555555555555556,2.3333333333333335,2.625,3.3333333333333335,2.0,2.0,1.5,1.0,0.725,0.8,0.1623293714281836,0.6390129670240928,-1.8181278508520367,0.9391752084252943,,,,,,,,,,,,,,,,,,,-0.00048502067440151647,-0.8285872122330576,0.00037777167848336655,0.6283807200017907,0.8259999999999998,-1.6744611080550578,,,,,,,,
47,240612_154419,FalseCHOICE,9.0,48,2.0,679.0,,,,,,,,,,,57.0,48.0,,,A,,,,,,False,cue1.png,Easy,cue2.png,Hard,Right,Hard,Mid,0.0162070999940624,,,,,,,,,,,,,9,19,Female,0.7142857142857143,1.25,0.0,1.0,3.2222222222222223,2.125,1.5555555555555556,2.3333333333333335,2.625,3.3333333333333335,2.0,2.0,1.5,1.0,0.725,0.8,0.1099603785727855,-0.045170882573790254,-2.2076351728683057,0.2294476060802927,,,,,,,,,,,,,,,,,,,9.937854530948269e-05,-0.3595260855719113,-0.0013925056288253733,-1.4721090821552978,1.6179999999999999,0.11898048675527438,,,,,,,,
48,240612_154436,FalseCHOICE,9.0,49,2.0,679.0,,,,,,,,,,,58.0,49.0,,,A,,,,,,False,cue2.png,Hard,cue1.png,Easy,Right,Easy,Mid,0.0166001999896252,,,,,,,,,,,,,9,19,Female,0.7142857142857143,1.25,0.0,1.0,3.2222222222222223,2.125,1.5555555555555556,2.3333333333333335,2.625,3.3333333333333335,2.0,2.0,1.5,1.0,0.0291666666666666,0.7,0.1034270928544823,-0.13052613440408767,-2.268888331359751,0.11783723355339004,,,,,,,,,,,,,,,,,,,0.001954793042076723,1.1297004310333867,,,2.327,1.7244730255438168,,,,,,,,
49,240612_154452,FalseCHOICE,9.0,50,2.0,679.0,,,,,,,,,,,59.0,50.0,,,A,,,,,,False,cue1.png,Easy,cue2.png,Hard,Right,Hard,Mid,0.0145532000024104,,,,,,,,,,,,,9,19,Female,0.7142857142857143,1.25,0.0,1.0,3.2222222222222223,2.125,1.5555555555555556,2.3333333333333335,2.625,3.3333333333333335,2.0,2.0,1.5,1.0,0.0291666666666666,0.7,0.0702555571427053,-0.5639014537084733,-2.655615868662697,-0.5868252780266688,,,,,,,,,,,,,,,,,,,0.002196446850938823,1.3236610045996362,-0.00033946517984503963,-0.22264341075449912,1.7260000000000002,0.36354070422941126,,,,,,,,
0,240612_150028,OFFLINERATING,9.0,1,1.0,,,,,,,,,,,,,,,,,T0,cue1.png,Easy,43.0,2.3405719000002136,,,,,,,,,,,,,,,,,,,,,,9,19,Female,0.7142857142857143,1.25,0.0,1.0,3.2222222222222223,2.125,1.5555555555555556,2.3333333333333335,2.625,3.3333333333333335,2.0,2.0,1.5,1.0,,,,,,,,,,,,,,,,,,,,,,,,,,,,,,,1.3089838559653306,-0.00031463030359880646,-1.5207169594129752,-3.473429704890351e-05,-1.3760038898127436,,,
1,240612_150036,OFFLINERATING,9.0,2,3.0,,,,,,,,,,,,,,,,,T0,cue2.png,Hard,46.0,1.2853441999905044,,,,,,,,,,,,,,,,,,,,,,9,19,Female,0.7142857142857143,1.25,0.0,1.0,3.2222222222222223,2.125,1.5555555555555556,2.3333333333333335,2.625,3.3333333333333335,2.0,2.0,1.5,1.0,,,,,,,,,,,,,,,,,,,,,,,,,,,,,,,1.4629819566671343,,,0.0002208477697960825,0.9707738873178307,,,
2,240612_152339,OFFLINERATING,9.0,3,1.0,,,,,,,,,,,,,,,,,T1,cue1.png,Easy,36.0,1.3123995999922045,,,,,,,,,,,,,,,,,,,,,,9,19,Female,0.7142857142857143,1.25,0.0,1.0,3.2222222222222223,2.125,1.5555555555555556,2.3333333333333335,2.625,3.3333333333333335,2.0,2.0,1.5,1.0,,,,,,,,,,,,,,,,,,,,,,,,,,,,,,,0.9496549543277889,,,,,1.1239999999999999,0.060898648014307846,
3,240612_152346,OFFLINERATING,9.0,4,3.0,,,,,,,,,,,,,,,,,T1,cue2.png,Hard,0.0,1.6356737000023711,,,,,,,,,,,,,,,,,,,,,,9,19,Female,0.7142857142857143,1.25,0.0,1.0,3.2222222222222223,2.125,1.5555555555555556,2.3333333333333335,2.625,3.3333333333333335,2.0,2.0,1.5,1.0,,,,,,,,,,,,,,,,,,,,,,,,,,,,,,,-0.8983222540938544,-3.7604679115421126e-05,-0.14876345178503675,,,1.5799999999999998,0.7916824241860013,
4,240612_152813,OFFLINERATING,9.0,5,1.0,,,,,,,,,,,,,,,,,T2,cue1.png,Easy,15.0,1.9193099999974947,,,,,,,,,,,,,,,,,,,,,,9,19,Female,0.7142857142857143,1.25,0.0,1.0,3.2222222222222223,2.125,1.5555555555555556,2.3333333333333335,2.625,3.3333333333333335,2.0,2.0,1.5,1.0,,,,,,,,,,,,,,,,,,,,,,,,,,,,,,,-0.12833175058483634,8.656043418360472e-05,0.4661571463845221,,,1.585,0.7996954041878841,
5,240612_152821,OFFLINERATING,9.0,6,3.0,,,,,,,,,,,,,,,,,T2,cue2.png,Hard,0.0,2.069003999989945,,,,,,,,,,,,,,,,,,,,,,9,19,Female,0.7142857142857143,1.25,0.0,1.0,3.2222222222222223,2.125,1.5555555555555556,2.3333333333333335,2.625,3.3333333333333335,2.0,2.0,1.5,1.0,,,,,,,,,,,,,,,,,,,,,,,,,,,,,,,-0.8983222540938544,0.00023540943174100515,1.20332326481349,0.0001592557109385464,0.4052300024949128,0.05499999999999994,-1.652276476388193,
6,240612_154510,OFFLINERATING,9.0,7,1.0,,,,,,,,,,,,,,,,,T3,cue1.png,Easy,0.0,1.6822929000045406,,,,,,,,,,,,,,,,,,,,,,9,19,Female,0.7142857142857143,1.25,0.0,1.0,3.2222222222222223,2.125,1.5555555555555556,2.3333333333333335,2.625,3.3333333333333335,2.0,2.0,1.5,1.0,,,,,,,,,,,,,,,,,,,,,,,,,,,,,,,-0.8983222540938544,,,,,,,
7,240612_154518,OFFLINERATING,9.0,8,3.0,,,,,,,,,,,,,,,,,T3,cue2.png,Hard,0.0,2.1023862000001827,,,,,,,,,,,,,,,,,,,,,,9,19,Female,0.7142857142857143,1.25,0.0,1.0,3.2222222222222223,2.125,1.5555555555555556,2.3333333333333335,2.625,3.3333333333333335,2.0,2.0,1.5,1.0,,,,,,,,,,,,,,,,,,,,,,,,,,,,,,,-0.8983222540938544,,,,,,,
0,240612_152839,LEARNINGCHECK,9.0,1,,,,,,,,,,,,1.0,1.0,1.0,,,A,,,,,,,,,,,,,,,cue1.png,Easy,Left,Left,Easy,0.0144887999922502,1.0,,,,,,9,19,Female,0.7142857142857143,1.25,0.0,1.0,3.2222222222222223,2.125,1.5555555555555556,2.3333333333333335,2.625,3.3333333333333335,2.0,2.0,1.5,1.0,,,,,,,,,,,,,,,,,,,,,,,,,,,,,,,,,,,,,,
1,240612_154535,LEARNINGCHECK,9.0,1,,,,,,,,,,,,1.0,1.0,1.0,,,A,,,,,,,,,,,,,,,cue1.png,Easy,Middle,Left,Easy,0.0161545000009937,0.0,,,,,,9,19,Female,0.7142857142857143,1.25,0.0,1.0,3.2222222222222223,2.125,1.5555555555555556,2.3333333333333335,2.625,3.3333333333333335,2.0,2.0,1.5,1.0,,,,,,,,,,,,,,,,,,,,,,,,,,,,,,,,,,,,,,
2,240612_152845,LEARNINGCHECK,9.0,2,,,,,,,,,,,,2.0,2.0,2.0,,,A,,,,,,,,,,,,,,,cue2.png,Hard,Right,Middle,unsure,0.0160717000107979,0.0,,,,,,9,19,Female,0.7142857142857143,1.25,0.0,1.0,3.2222222222222223,2.125,1.5555555555555556,2.3333333333333335,2.625,3.3333333333333335,2.0,2.0,1.5,1.0,,,,,,,,,,,,,,,,,,,,,,,,,,,,,,,,,,,,,,
3,240612_154540,LEARNINGCHECK,9.0,2,,,,,,,,,,,,2.0,2.0,2.0,,,A,,,,,,,,,,,,,,,cue2.png,Hard,Middle,Middle,Mid,0.0146084000007249,1.0,,,,,,9,19,Female,0.7142857142857143,1.25,0.0,1.0,3.2222222222222223,2.125,1.5555555555555556,2.3333333333333335,2.625,3.3333333333333335,2.0,2.0,1.5,1.0,,,,,,,,,,,,,,,,,,,,,,,,,,,,,,,,,,,,,,
0,240612_154554,DEMANDRATING,9.0,-1,,,,,,,,,,,,,,,,,,,,,,,,,,,,,,,,,,,,,,,1.0,MentalDemand,1.0,4.0,5.820060300000478,9,19,Female,0.7142857142857143,1.25,0.0,1.0,3.2222222222222223,2.125,1.5555555555555556,2.3333333333333335,2.625,3.3333333333333335,2.0,2.0,1.5,1.0,,,,,,,,,,,,,,,,,,,,,,,,,,,,,,,,,,,,,,-1.4285535540189007
1,240612_154600,DEMANDRATING,9.0,-1,,,,,,,,,,,,,,,,,,,,,,,,,,,,,,,,,,,,,,,2.0,Effort,1.0,4.0,4.7296578999958,9,19,Female,0.7142857142857143,1.25,0.0,1.0,3.2222222222222223,2.125,1.5555555555555556,2.3333333333333335,2.625,3.3333333333333335,2.0,2.0,1.5,1.0,,,,,,,,,,,,,,,,,,,,,,,,,,,,,,,,,,,,,,-1.4285535540189007
2,240612_154605,DEMANDRATING,9.0,-1,,,,,,,,,,,,,,,,,,,,,,,,,,,,,,,,,,,,,,,3.0,Frustration,1.0,9.0,3.230400100001134,9,19,Female,0.7142857142857143,1.25,0.0,1.0,3.2222222222222223,2.125,1.5555555555555556,2.3333333333333335,2.625,3.3333333333333335,2.0,2.0,1.5,1.0,,,,,,,,,,,,,,,,,,,,,,,,,,,,,,,,,,,,,,-1.2937843508095703
3,240612_154611,DEMANDRATING,9.0,-1,,,,,,,,,,,,,,,,,,,,,,,,,,,,,,,,,,,,,,,4.0,MentalDemand,2.0,69.0,4.197109100001399,9,19,Female,0.7142857142857143,1.25,0.0,1.0,3.2222222222222223,2.125,1.5555555555555556,2.3333333333333335,2.625,3.3333333333333335,2.0,2.0,1.5,1.0,,,,,,,,,,,,,,,,,,,,,,,,,,,,,,,,,,,,,,0.3234460877023926
4,240612_154614,DEMANDRATING,9.0,-1,,,,,,,,,,,,,,,,,,,,,,,,,,,,,,,,,,,,,,,5.0,Effort,2.0,79.0,1.9586210999987088,9,19,Female,0.7142857142857143,1.25,0.0,1.0,3.2222222222222223,2.125,1.5555555555555556,2.3333333333333335,2.625,3.3333333333333335,2.0,2.0,1.5,1.0,,,,,,,,,,,,,,,,,,,,,,,,,,,,,,,,,,,,,,0.5929844941210531
5,240612_154617,DEMANDRATING,9.0,-1,,,,,,,,,,,,,,,,,,,,,,,,,,,,,,,,,,,,,,,6.0,Frustration,2.0,80.0,1.3980739999969956,9,19,Female,0.7142857142857143,1.25,0.0,1.0,3.2222222222222223,2.125,1.5555555555555556,2.3333333333333335,2.625,3.3333333333333335,2.0,2.0,1.5,1.0,,,,,,,,,,,,,,,,,,,,,,,,,,,,,,,,,,,,,,0.6199383347629192
6,240612_154621,DEMANDRATING,9.0,-1,,,,,,,,,,,,,,,,,,,,,,,,,,,,,,,,,,,,,,,7.0,MentalDemand,3.0,79.0,1.938885500014294,9,19,Female,0.7142857142857143,1.25,0.0,1.0,3.2222222222222223,2.125,1.5555555555555556,2.3333333333333335,2.625,3.3333333333333335,2.0,2.0,1.5,1.0,,,,,,,,,,,,,,,,,,,,,,,,,,,,,,,,,,,,,,0.5929844941210531
7,240612_154624,DEMANDRATING,9.0,-1,,,,,,,,,,,,,,,,,,,,,,,,,,,,,,,,,,,,,,,8.0,Effort,3.0,92.0,1.3036670000001322,9,19,Female,0.7142857142857143,1.25,0.0,1.0,3.2222222222222223,2.125,1.5555555555555556,2.3333333333333335,2.625,3.3333333333333335,2.0,2.0,1.5,1.0,,,,,,,,,,,,,,,,,,,,,,,,,,,,,,,,,,,,,,0.9433844224653117
8,240612_154626,DEMANDRATING,9.0,-1,,,,,,,,,,,,,,,,,,,,,,,,,,,,,,,,,,,,,,,9.0,Frustration,3.0,97.0,1.043352299995604,9,19,Female,0.7142857142857143,1.25,0.0,1.0,3.2222222222222223,2.125,1.5555555555555556,2.3333333333333335,2.625,3.3333333333333335,2.0,2.0,1.5,1.0,,,,,,,,,,,,,,,,,,,,,,,,,,,,,,,,,,,,,,1.078153625674642
