,END,Phase,Block,TrialN,NbackLevel,ISI,Letter_Resp,Letter_RT,Letter_Accuracy,Trial_A_measure,Trial_ACC,Trial_RT,TrialCountCali,CaliEnd_A_measure,ISI_calibrated,TrialIndex,TrialNumber_total,TrialNumber_valid,CueLearning,TrialDemandLearning,CueMapping,OfflineRatingTimePoint,CueFigure,TrialDemand,OfflineRating,OfflineRatingRT,PhaseType,CueLeft,CueDemandLeft,CueRight,CueDemandRight,Choice,ChoiceDemand,TaskDemand,ChoiceRT,CueCheck,CueDemandCheck,CorrectAnswer,Answer,AnswerDemand,AnswerRT,AnswerACC,DemandRatingQuesIndex,QuesTLX,DemandLevel,DemandRating,DemandRatingRT,PID,Age,Gender,BAI_bis,BAI_bas_d,BAI_bas_rr,BAI_bas_fs,NFC,BFI_ext,BFI_agr,BFI_con,BFI_neu,BFI_open,UPPS_lps,UPPS_lpm,UPPS_pu,UPPS_ss,Task_A_measure,Task_ACC,Task_RT,Task_RT_z,cue_i_on_zyg_values,cue_i_on_zyg_zvalues,cue_e_on_zyg_values,cue_e_on_zyg_zvalues,cue_i_on_cor_values,cue_i_on_cor_zvalues,cue_e_on_cor_values,cue_e_on_cor_zvalues,cue_i_on_scr_values,cue_i_on_scr_zvalues,cue_e_on_scr_values,cue_e_on_scr_zvalues,cue_e_true_zyg_values,cue_e_true_zyg_zvalues,cue_e_true_cor_values,cue_e_true_cor_zvalues,cue_e_true_scr_values,cue_e_true_scr_zvalues,cue_e_false_zyg_values,cue_e_false_zyg_zvalues,cue_e_false_cor_values,cue_e_false_cor_zvalues,cue_e_false_scr_values,cue_e_false_scr_zvalues,OfflineRating_z,cue_i_off_zyg_values,cue_i_off_zyg_zvalues,cue_i_off_cor_values,cue_i_off_cor_zvalues,cue_i_off_scr_values,cue_i_off_scr_zvalues,DemandRating_z
0,240613_143511,PRACTICE,0.0,1,1.0,917.0,,,,,,,,,,19.0,1.0,1.0,cue1.png,Easy,A,,,,,,,,,,,,,,,,,,,,,,,,,,,11,21,Female,0.7142857142857143,0.75,0.4,1.75,2.1666666666666665,1.0,2.0,3.2222222222222223,2.0,2.5555555555555554,2.25,1.5,3.0,1.25,,,,,,,,,,,,,,,,,,,,,,,,,,,,,,,,,,,,
0,240613_143730,LEARNING,1.0,1,1.0,917.0,,,,,,,,,,1.0,1.0,1.0,cue1.png,Easy,A,,,,,,,,,,,,,,,,,,,,,,,,,,,11,21,Female,0.7142857142857143,0.75,0.4,1.75,2.1666666666666665,1.0,2.0,3.2222222222222223,2.0,2.5555555555555554,2.25,1.5,3.0,1.25,1.0,1.0,0.5491826666717922,-0.8462373740553282,,,,,,,,,1.4679905190905141e+46,-0.1955149449218264,,,,,,,,,,,,,,,,,,,,,,
1,240613_143757,LEARNING,1.0,2,3.0,917.0,,,,,,,,,,2.0,2.0,2.0,cue2.png,Hard,A,,,,,,,,,,,,,,,,,,,,,,,,,,,11,21,Female,0.7142857142857143,0.75,0.4,1.75,2.1666666666666665,1.0,2.0,3.2222222222222223,2.0,2.5555555555555554,2.25,1.5,3.0,1.25,0.6111111111111112,0.7777777777777778,0.7980740250034918,0.9682837564283225,0.015014557554376407,-0.7895361535646586,,,0.00865920804946685,-0.2843722140332127,,,7.613168509856671e+44,-0.19780042884812046,8.360572028910676e+43,2.095698495845495,,,,,,,,,,,,,,,,,,,,
2,240613_143822,LEARNING,1.0,3,1.0,917.0,,,,,,,,,,3.0,3.0,3.0,cue1.png,Easy,A,,,,,,,,,,,,,,,,,,,,,,,,,,,11,21,Female,0.7142857142857143,0.75,0.4,1.75,2.1666666666666665,1.0,2.0,3.2222222222222223,2.0,2.5555555555555554,2.25,1.5,3.0,1.25,0.8518518518518517,0.8888888888888888,0.6365799666721917,-0.20907484394210005,,,0.014858532943053905,-0.8993466827694316,0.006232069451330263,-0.691296610940234,0.01957045790344216,2.173534136926405,-2.4760947733658703e+45,-0.1983320238669222,-1.3012920759927962e+44,-3.004719875453356,,,,,,,,,,,,,,,,,,,,
3,240613_143851,LEARNING,1.0,4,3.0,917.0,,,,,,,,,,4.0,4.0,4.0,cue2.png,Hard,A,,,,,,,,,,,,,,,,,,,,,,,,,,,11,21,Female,0.7142857142857143,0.75,0.4,1.75,2.1666666666666665,1.0,2.0,3.2222222222222223,2.0,2.5555555555555554,2.25,1.5,3.0,1.25,0.2222222222222222,0.7222222222222222,0.9243387999973492,1.888806283999493,,,0.012778487848135142,-1.3899503656990355,,,0.007386793485133406,-0.4269057606565755,,,-1.5975526687834381e+44,-3.7116950924147876,,,,,,,,,,,,,,,,,,,,
4,240613_143919,LEARNING,1.0,5,3.0,917.0,,,,,,,,,,5.0,5.0,5.0,cue2.png,Hard,A,,,,,,,,,,,,,,,,,,,,,,,,,,,11,21,Female,0.7142857142857143,0.75,0.4,1.75,2.1666666666666665,1.0,2.0,3.2222222222222223,2.0,2.5555555555555554,2.25,1.5,3.0,1.25,0.6111111111111112,0.6111111111111112,0.7839462099975207,0.8652861311683319,,,,,,,0.008951653780552436,-0.09290730119178274,3.624639715317967e+49,5.753867662710481,,,,,,,,,,,,,,,,,,,,,,
5,240613_143943,LEARNING,1.0,6,1.0,917.0,,,,,,,,,,6.0,6.0,6.0,cue1.png,Easy,A,,,,,,,,,,,,,,,,,,,,,,,,,,,11,21,Female,0.7142857142857143,0.75,0.4,1.75,2.1666666666666665,1.0,2.0,3.2222222222222223,2.0,2.5555555555555554,2.25,1.5,3.0,1.25,1.0,1.0,0.5279561166704904,-1.000987718795298,0.012644471027618806,-1.2396522328828399,0.016890410797011122,-0.42010382363639787,,,0.007882557038939938,-0.3210916737921417,-3.583305851484079e+44,-0.1979842791176957,,,,,,,,,,,,,,,,,,,,,,
6,240613_144010,LEARNING,1.0,7,3.0,917.0,,,,,,,,,,7.0,7.0,7.0,cue2.png,Hard,A,,,,,,,,,,,,,,,,,,,,,,,,,,,11,21,Female,0.7142857142857143,0.75,0.4,1.75,2.1666666666666665,1.0,2.0,3.2222222222222223,2.0,2.5555555555555554,2.25,1.5,3.0,1.25,0.8518518518518517,0.8888888888888888,0.7703211083304874,0.7659534944486937,0.020298031564532668,0.21387725762607634,0.0246683078788961,1.414406862281793,0.011968581948268837,0.27046424192514307,,,,,1.94065028606523e+43,0.5636940114586892,,,,,,,,,,,,,,,,,,,,
7,240613_144037,LEARNING,1.0,8,3.0,917.0,,,,,,,,,,8.0,8.0,8.0,cue2.png,Hard,A,,,,,,,,,,,,,,,,,,,,,,,,,,,11,21,Female,0.7142857142857143,0.75,0.4,1.75,2.1666666666666665,1.0,2.0,3.2222222222222223,2.0,2.5555555555555554,2.25,1.5,3.0,1.25,0.6111111111111112,0.7777777777777778,0.8079111166734947,1.0400002307059737,0.01139710567969674,-1.476546200063078,,,0.005164904772430735,-0.8702131934934761,0.005906041757021073,-0.7429523735632667,8.706995198507167e+44,-0.19778246780743153,,,,,,,,,,,,,,,,,,,,,,
8,240613_144101,LEARNING,1.0,9,1.0,917.0,,,,,,,,,,9.0,9.0,9.0,cue1.png,Easy,A,,,,,,,,,,,,,,,,,,,,,,,,,,,11,21,Female,0.7142857142857143,0.75,0.4,1.75,2.1666666666666665,1.0,2.0,3.2222222222222223,2.0,2.5555555555555554,2.25,1.5,3.0,1.25,1.0,1.0,0.5760033750023771,-0.6507032971528806,0.008548724158304889,-2.017497894584222,,,0.005593949109563865,-0.798281327604849,,,5.927226549429878e+48,0.7753471848328083,,,,,,,,,,,,,,,,,,,,,,
9,240613_144125,LEARNING,1.0,10,1.0,917.0,,,,,,,,,,10.0,10.0,10.0,cue1.png,Easy,A,,,,,,,,,,,,,,,,,,,,,,,,,,,11,21,Female,0.7142857142857143,0.75,0.4,1.75,2.1666666666666665,1.0,2.0,3.2222222222222223,2.0,2.5555555555555554,2.25,1.5,3.0,1.25,1.0,1.0,0.5676554250045834,-0.7115633116136088,0.019029347559035577,-0.02706545227121557,0.018076762305577233,-0.14028853464413824,,,0.006420696633952276,-0.633106186939281,,,,,,,,,,,,,,,,,,,,,,,,
10,240613_144151,LEARNING,1.0,11,3.0,917.0,,,,,,,,,,11.0,11.0,11.0,cue2.png,Hard,A,,,,,,,,,,,,,,,,,,,,,,,,,,,11,21,Female,0.7142857142857143,0.75,0.4,1.75,2.1666666666666665,1.0,2.0,3.2222222222222223,2.0,2.5555555555555554,2.25,1.5,3.0,1.25,0.7222222222222222,0.8055555555555555,0.6220555636365052,-0.3149637602651444,0.012294067791893112,-1.3061992255198664,0.01227913517423705,-1.5077287068963532,0.005745937221962096,-0.7727996056207111,0.025583667519024432,3.45697314673626,,,4.519282930258366e+43,1.1790405737267764,,,,,,,,,,,,,,,,,,,,
11,240613_144214,LEARNING,1.0,12,1.0,917.0,,,,,,,,,,12.0,12.0,12.0,cue1.png,Easy,A,,,,,,,,,,,,,,,,,,,,,,,,,,,11,21,Female,0.7142857142857143,0.75,0.4,1.75,2.1666666666666665,1.0,2.0,3.2222222222222223,2.0,2.5555555555555554,2.25,1.5,3.0,1.25,1.0,1.0,0.5464953499928621,-0.8658290261355954,0.015217156603089404,-0.7510594614900261,0.012595114850815837,-1.4332010952406489,0.015704285529765313,0.8967774356137659,,,2.6704809482864893e+44,-0.197881589614563,8.40254795369744e+42,0.3011034544595758,,,,,,,,,,,,,,,,,,,,
12,240613_144239,LEARNING,1.0,13,1.0,917.0,,,,,,,,,,13.0,13.0,13.0,cue1.png,Easy,A,,,,,,,,,,,,,,,,,,,,,,,,,,,11,21,Female,0.7142857142857143,0.75,0.4,1.75,2.1666666666666665,1.0,2.0,3.2222222222222223,2.0,2.5555555555555554,2.25,1.5,3.0,1.25,1.0,1.0,0.569843233335026,-0.6956132823653233,,,,,0.006151261864113412,-0.7048444893840007,0.006449075054080225,-0.6270491934603574,-3.7202947732245526e+44,-0.19798652852669518,,,,,,,,,,,,,,,,,,,,,,
13,240613_144302,LEARNING,1.0,14,1.0,917.0,,,,,,,,,,14.0,14.0,14.0,cue1.png,Easy,A,,,,,,,,,,,,,,,,,,,,,,,,,,,11,21,Female,0.7142857142857143,0.75,0.4,1.75,2.1666666666666665,1.0,2.0,3.2222222222222223,2.0,2.5555555555555554,2.25,1.5,3.0,1.25,1.0,1.0,0.5106711166639192,-1.12700253089068,0.019572130456042915,0.07601741274812329,0.009673225916193613,-2.1223637850009425,0.006089013520359959,-0.7152807989378851,0.006464585899982129,-0.6237386112624466,,,,,,,,,,,,,,,,,,,,,,,,
14,240613_144328,LEARNING,1.0,15,3.0,917.0,,,,,,,,,,15.0,15.0,15.0,cue2.png,Hard,A,,,,,,,,,,,,,,,,,,,,,,,,,,,11,21,Female,0.7142857142857143,0.75,0.4,1.75,2.1666666666666665,1.0,2.0,3.2222222222222223,2.0,2.5555555555555554,2.25,1.5,3.0,1.25,0.6111111111111112,0.7777777777777778,0.6975555416599187,0.2354623629751774,0.015306448277315664,-0.7341015918659729,0.015818232517581562,-0.6729899816962602,0.007307231094410147,-0.5110392892018967,0.009915565534061935,0.11282674527526691,,,,,,,,,,,,,,,,,,,,,,,,
15,240613_144353,LEARNING,1.0,16,1.0,917.0,,,,,,,,,,16.0,16.0,16.0,cue1.png,Easy,A,,,,,,,,,,,,,,,,,,,,,,,,,,,11,21,Female,0.7142857142857143,0.75,0.4,1.75,2.1666666666666665,1.0,2.0,3.2222222222222223,2.0,2.5555555555555554,2.25,1.5,3.0,1.25,1.0,1.0,0.6474867916695075,-0.12955957046385594,0.018555018613272554,-0.11714785346779184,,,0.03286039520723155,3.773102499676214,0.019225168875200736,2.0998368210443825,,,,,,,,,,,,,,,,,,,,,,,,
16,240613_144418,LEARNING,1.0,17,1.0,917.0,,,,,,,,,,17.0,17.0,17.0,cue1.png,Easy,A,,,,,,,,,,,,,,,,,,,,,,,,,,,11,21,Female,0.7142857142857143,0.75,0.4,1.75,2.1666666666666665,1.0,2.0,3.2222222222222223,2.0,2.5555555555555554,2.25,1.5,3.0,1.25,1.0,1.0,0.6364349333404485,-0.21013219702513386,0.01733067707260909,-0.3496692436398825,0.021405780506723152,0.6449004951569964,0.019762565322428698,1.5771724729541778,0.006441295131188587,-0.62870971374333,,,,,,,,,,,,,,,,,,,,,,,,
17,240613_144444,LEARNING,1.0,18,3.0,917.0,,,,,,,,,,18.0,18.0,18.0,cue2.png,Hard,A,,,,,,,,,,,,,,,,,,,,,,,,,,,11,21,Female,0.7142857142857143,0.75,0.4,1.75,2.1666666666666665,1.0,2.0,3.2222222222222223,2.0,2.5555555555555554,2.25,1.5,3.0,1.25,0.8518518518518517,0.8888888888888888,0.7061564166676059,0.29816630555761997,0.013192558568677988,-1.1355619339340484,0.014764837469783493,-0.9214458883936691,0.005850324654522308,-0.7552984241587837,0.006995604624778872,-0.5103997806024364,,,,,,,,,,,,,,,,,,,,,,,,
18,240613_144510,LEARNING,1.0,19,3.0,917.0,,,,,,,,,,19.0,19.0,19.0,cue2.png,Hard,A,,,,,,,,,,,,,,,,,,,,,,,,,,,11,21,Female,0.7142857142857143,0.75,0.4,1.75,2.1666666666666665,1.0,2.0,3.2222222222222223,2.0,2.5555555555555554,2.25,1.5,3.0,1.25,0.875,0.875,0.7861119166579252,0.8810750300842033,0.017655503291213275,-0.2879797220434336,0.02092592290168539,0.531720300704289,0.006755264913133521,-0.603579742228149,,,,,,,,,,,,,,,,,,,,,,,,,,
19,240613_144537,LEARNING,1.0,20,3.0,917.0,,,,,,,,,,20.0,20.0,20.0,cue2.png,Hard,A,,,,,,,,,,,,,,,,,,,,,,,,,,,11,21,Female,0.7142857142857143,0.75,0.4,1.75,2.1666666666666665,1.0,2.0,3.2222222222222223,2.0,2.5555555555555554,2.25,1.5,3.0,1.25,0.8518518518518517,0.8888888888888888,0.7783083916729083,0.8241840995493649,,,,,,,,,3.5124700014735402e+44,-0.19786776384143015,1.8671647197747445e+43,0.5461579383406343,,,,,,,,,,,,,,,,,,,,
20,240613_144602,LEARNING,1.0,21,1.0,917.0,,,,,,,,,,21.0,21.0,21.0,cue1.png,Easy,A,,,,,,,,,,,,,,,,,,,,,,,,,,,11,21,Female,0.7142857142857143,0.75,0.4,1.75,2.1666666666666665,1.0,2.0,3.2222222222222223,2.0,2.5555555555555554,2.25,1.5,3.0,1.25,1.0,1.0,0.6091905333353983,-0.4087551617912684,0.013580992957604707,-1.0617922372406372,0.015377976529116197,-0.776829658009315,0.02461274027166774,2.390333500358173,,,1.6403580161966643e+44,-0.19789850461589722,7.408458506161969e+42,0.27738121059884396,,,,,,,,,,,,,,,,,,,,
21,240613_144630,LEARNING,1.0,22,3.0,917.0,,,,,,,,,,22.0,22.0,22.0,cue2.png,Hard,A,,,,,,,,,,,,,,,,,,,,,,,,,,,11,21,Female,0.7142857142857143,0.75,0.4,1.75,2.1666666666666665,1.0,2.0,3.2222222222222223,2.0,2.5555555555555554,2.25,1.5,3.0,1.25,0.9375,0.9166666666666666,0.9235443000030832,1.8830140498398658,0.015743804786259745,-0.6510408281142321,0.02593146956991909,1.7123387577321985,0.0076339501281005116,-0.4562628764150177,0.007832760066353882,-0.3317201702646014,-3.514036412484244e+43,-0.19793121008244258,-2.833765907872367e+42,0.032968048555501304,,,,,,,,,,,,,,,,,,,,
22,240613_144700,LEARNING,1.0,23,3.0,917.0,,,,,,,,,,23.0,23.0,23.0,cue2.png,Hard,A,,,,,,,,,,,,,,,,,,,,,,,,,,,11,21,Female,0.7142857142857143,0.75,0.4,1.75,2.1666666666666665,1.0,2.0,3.2222222222222223,2.0,2.5555555555555554,2.25,1.5,3.0,1.25,0.6875,0.6666666666666666,0.9550066818218592,2.112387849750711,0.01360842941785096,-1.056581629198699,0.022770544818060914,0.9667965920775973,,,,,-2.1496040407373044e+44,-0.19796073720120577,-1.2619401944090578e+43,-0.20054941303615378,,,,,,,,,,,,,,,,,,,,
23,240613_144728,LEARNING,1.0,24,3.0,917.0,,,,,,,,,,24.0,24.0,24.0,cue2.png,Hard,A,,,,,,,,,,,,,,,,,,,,,,,,,,,11,21,Female,0.7142857142857143,0.75,0.4,1.75,2.1666666666666665,1.0,2.0,3.2222222222222223,2.0,2.5555555555555554,2.25,1.5,3.0,1.25,0.1666666666666666,0.5833333333333334,0.8431987727261995,1.297261864786248,0.0272025073574669,1.5251439723964006,0.028196875651228,2.246662061364555,0.009256135209323224,-0.1842937822912169,0.007577978306910224,-0.3860999225038416,,,,,,,,,,,,,,,,,,,,,,,,
24,240613_144753,LEARNING,1.0,25,1.0,917.0,,,,,,,,,,25.0,25.0,25.0,cue1.png,Easy,A,,,,,,,,,,,,,,,,,,,,,,,,,,,11,21,Female,0.7142857142857143,0.75,0.4,1.75,2.1666666666666665,1.0,2.0,3.2222222222222223,2.0,2.5555555555555554,2.25,1.5,3.0,1.25,1.0,1.0,0.6490086833388583,-0.11846434959779528,0.01838134419347581,-0.15013131125897897,0.014896318400796648,-0.8904345275594049,0.00781471627241799,-0.42595634414114136,0.007016328673838763,-0.5059765100522542,-3.2822770054237404e+44,-0.19797933611218235,-1.7425527554853965e+43,-0.3152393778542038,,,,,,,,,,,,,,,,,,,,
25,240613_144816,LEARNING,1.0,26,1.0,917.0,,,,,,,,,,26.0,26.0,26.0,cue1.png,Easy,A,,,,,,,,,,,,,,,,,,,,,,,,,,,11,21,Female,0.7142857142857143,0.75,0.4,1.75,2.1666666666666665,1.0,2.0,3.2222222222222223,2.0,2.5555555555555554,2.25,1.5,3.0,1.25,1.0,1.0,0.5232018000024254,-1.0356486572587276,0.01637728991943523,-0.5307322059470096,0.021716208647200315,0.718118710173163,0.02362580020762843,2.224867057423721,0.007805206701253143,-0.33760106680447655,,,-1.2453260824988184e+43,-0.1965847394824681,,,,,,,,,,,,,,,,,,,,
26,240613_144843,LEARNING,1.0,27,3.0,917.0,,,,,,,,,,27.0,27.0,27.0,cue2.png,Hard,A,,,,,,,,,,,,,,,,,,,,,,,,,,,11,21,Female,0.7142857142857143,0.75,0.4,1.75,2.1666666666666665,1.0,2.0,3.2222222222222223,2.0,2.5555555555555554,2.25,1.5,3.0,1.25,0.6111111111111112,0.7777777777777778,0.8055578333345087,1.0228438200807626,0.018234339184326168,-0.1780498355877481,0.025027376738512564,1.499097576624239,0.007093814001226283,-0.5468199496059492,,,5.108650936658507e+44,-0.19784155395734043,,,,,,,,,,,,,,,,,,,,,,
27,240613_144907,LEARNING,1.0,28,1.0,917.0,,,,,,,,,,28.0,28.0,28.0,cue1.png,Easy,A,,,,,,,,,,,,,,,,,,,,,,,,,,,11,21,Female,0.7142857142857143,0.75,0.4,1.75,2.1666666666666665,1.0,2.0,3.2222222222222223,2.0,2.5555555555555554,2.25,1.5,3.0,1.25,1.0,1.0,0.4971784250010387,-1.2253698438158993,0.02125952009912413,0.39647879753346493,0.016553035040935166,-0.4996779582868239,0.01602626857984579,0.9507598322386938,0.0105881561993029,0.2563822094266074,5.665982543669952e+43,-0.19791613615019102,4.0905769886233647e+42,0.19820564480323435,,,,,,,,,,,,,,,,,,,,
28,240613_144932,LEARNING,1.0,29,1.0,917.0,,,,,,,,,,29.0,29.0,29.0,cue1.png,Easy,A,,,,,,,,,,,,,,,,,,,,,,,,,,,11,21,Female,0.7142857142857143,0.75,0.4,1.75,2.1666666666666665,1.0,2.0,3.2222222222222223,2.0,2.5555555555555554,2.25,1.5,3.0,1.25,1.0,1.0,0.6514185416720769,-0.10089548382275425,0.021331713331544842,0.4101894086709295,0.017327702741667044,-0.3169632527479466,0.007766328039980567,-0.4340689225975642,0.007439976846567988,-0.4155544848651777,2.071854012631085e+44,-0.1978914192912937,1.070536649305714e+43,0.35605627896962166,,,,,,,,,,,,,,,,,,,,
29,240613_144959,LEARNING,1.0,30,3.0,917.0,,,,,,,,,,30.0,30.0,30.0,cue2.png,Hard,A,,,,,,,,,,,,,,,,,,,,,,,,,,,11,21,Female,0.7142857142857143,0.75,0.4,1.75,2.1666666666666665,1.0,2.0,3.2222222222222223,2.0,2.5555555555555554,2.25,1.5,3.0,1.25,0.6111111111111112,0.7777777777777778,0.7805381583287575,0.8404400223753158,0.026467465532085947,1.3855481640408387,0.023573073490454614,1.1560826432765652,,,,,2.6998154853390953e+44,-0.19788110793056404,1.5146636664202522e+43,0.4620395929586234,,,,,,,,,,,,,,,,,,,,
30,240613_145025,LEARNING,1.0,31,3.0,917.0,,,,,,,,,,31.0,31.0,31.0,cue2.png,Hard,A,,,,,,,,,,,,,,,,,,,,,,,,,,,11,21,Female,0.7142857142857143,0.75,0.4,1.75,2.1666666666666665,1.0,2.0,3.2222222222222223,2.0,2.5555555555555554,2.25,1.5,3.0,1.25,0.9166666666666666,0.9166666666666666,0.7307708818222057,0.4776159555492906,0.019243790893796325,0.013660652868276826,0.018467029561669332,-0.04823930281097346,0.007976100377913235,-0.39889932735213307,0.008914624138412156,-0.1008107820747673,,,1.544203817232906e+43,0.4690888445425516,,,,,,,,,,,,,,,,,,,,
31,240613_145049,LEARNING,1.0,32,1.0,917.0,,,,,,,,,,32.0,32.0,32.0,cue1.png,Easy,A,,,,,,,,,,,,,,,,,,,,,,,,,,,11,21,Female,0.7142857142857143,0.75,0.4,1.75,2.1666666666666665,1.0,2.0,3.2222222222222223,2.0,2.5555555555555554,2.25,1.5,3.0,1.25,1.0,1.0,0.5383274083360448,-0.9253767052040698,,,0.02172830019537884,0.7209706474139452,0.012288685360322255,0.32413150591975837,,,2.174254551545177e+44,-0.19788973783639313,1.1560961809015998e+43,0.37647359733226504,,,,,,,,,,,,,,,,,,,,
32,240613_145112,LEARNING,1.0,33,1.0,917.0,,,,,,,,,,33.0,33.0,33.0,cue1.png,Easy,A,,,,,,,,,,,,,,,,,,,,,,,,,,,11,21,Female,0.7142857142857143,0.75,0.4,1.75,2.1666666666666665,1.0,2.0,3.2222222222222223,2.0,2.5555555555555554,2.25,1.5,3.0,1.25,1.0,1.0,0.5029077666670977,-1.1836005691150493,0.02550255781949451,1.202297269361603,,,0.007360534602001886,-0.5021026352767974,0.005975289127398871,-0.7281724503356926,9.10509302235051e+43,-0.19791048900298913,5.1459755234452654e+42,0.2233909251372869,,,,,,,,,,,,,,,,,,,,
33,240613_145136,LEARNING,1.0,34,1.0,917.0,,,,,,,,,,34.0,34.0,34.0,cue1.png,Easy,A,,,,,,,,,,,,,,,,,,,,,,,,,,,11,21,Female,0.7142857142857143,0.75,0.4,1.75,2.1666666666666665,1.0,2.0,3.2222222222222223,2.0,2.5555555555555554,2.25,1.5,3.0,1.25,1.0,1.0,0.5178851416688607,-1.0744092994701713,0.03551391476906533,3.103608756482901,0.020640394922807805,0.46437508864182664,,,0.008240968341784203,-0.24459358424690295,-3.4397083629620697e+43,-0.19793108803302328,-2.6392236365569857e+42,0.03761046701473102,,,,,,,,,,,,,,,,,,,,
34,240613_145202,LEARNING,1.0,35,3.0,917.0,,,,,,,,,,35.0,35.0,35.0,cue2.png,Hard,A,,,,,,,,,,,,,,,,,,,,,,,,,,,11,21,Female,0.7142857142857143,0.75,0.4,1.75,2.1666666666666665,1.0,2.0,3.2222222222222223,2.0,2.5555555555555554,2.25,1.5,3.0,1.25,0.6111111111111112,0.7777777777777778,0.7426568666681609,0.5642697100394368,0.02539580883082974,1.1820239857888295,0.015165938845609494,-0.8268412989599708,0.009923365176176653,-0.07242866174615438,0.007237858656906593,-0.45869390387551295,-1.7324048636464398e+44,-0.19795388663568853,-9.439358683200187e+42,-0.12466312140561409,,,,,,,,,,,,,,,,,,,,
35,240613_145228,LEARNING,1.0,36,3.0,917.0,,,,,,,,,,36.0,36.0,36.0,cue2.png,Hard,A,,,,,,,,,,,,,,,,,,,,,,,,,,,11,21,Female,0.7142857142857143,0.75,0.4,1.75,2.1666666666666665,1.0,2.0,3.2222222222222223,2.0,2.5555555555555554,2.25,1.5,3.0,1.25,0.875,0.875,0.7299585083334629,0.47169341620903704,,,,,0.011936866883715582,0.2651470204339152,0.01314719375332759,0.8025744818351336,-2.4213668634819582e+44,-0.19796519964774115,-1.344795238531591e+43,-0.220321351734822,,,,,,,,,,,,,,,,,,,,
36,240613_145252,LEARNING,1.0,37,1.0,917.0,,,,,,,,,,37.0,37.0,37.0,cue1.png,Easy,A,,,,,,,,,,,,,,,,,,,,,,,,,,,11,21,Female,0.7142857142857143,0.75,0.4,1.75,2.1666666666666665,1.0,2.0,3.2222222222222223,2.0,2.5555555555555554,2.25,1.5,3.0,1.25,0.875,0.875,0.5288013166621871,-0.9948258606468345,,,0.022563999742516445,0.9180804488552086,0.014668438612848507,0.7231114643841129,0.010543555992421263,0.24686289295223224,,,-1.3513841375301036e+43,-0.22189367975021293,,,,,,,,,,,,,,,,,,,,
37,240613_145319,LEARNING,1.0,38,3.0,917.0,,,,,,,,,,38.0,38.0,38.0,cue2.png,Hard,A,,,,,,,,,,,,,,,,,,,,,,,,,,,11,21,Female,0.7142857142857143,0.75,0.4,1.75,2.1666666666666665,1.0,2.0,3.2222222222222223,2.0,2.5555555555555554,2.25,1.5,3.0,1.25,0.6875,0.75,0.8054169000000305,1.0218163576766266,0.02087352148631121,0.3231716923876881,0.015608964653189356,-0.7223483274554127,0.011616607005283362,0.21145352390899466,0.0073425617981582,-0.43634642149543434,-1.7602683236908041e+44,-0.19795434416405638,-9.100103704015207e+42,-0.11656738176453271,,,,,,,,,,,,,,,,,,,,
38,240613_145347,LEARNING,1.0,39,3.0,917.0,,,,,,,,,,39.0,39.0,39.0,cue2.png,Hard,A,,,,,,,,,,,,,,,,,,,,,,,,,,,11,21,Female,0.7142857142857143,0.75,0.4,1.75,2.1666666666666665,1.0,2.0,3.2222222222222223,2.0,2.5555555555555554,2.25,1.5,3.0,1.25,0.8518518518518517,0.8888888888888888,0.8737411583327533,1.5199285111091518,0.01781515792764272,-0.2576588378971048,0.02094771271833061,0.5368596913466462,0.009764188669712603,-0.09911556126824135,0.007800505233178646,-0.33860453216090597,-4.332182173773077e+43,-0.19793255350818456,,,,,,,,,,,,,,,,,,,,,,
39,240613_145412,LEARNING,1.0,40,3.0,917.0,,,,,,,,,,40.0,40.0,40.0,cue2.png,Hard,A,,,,,,,,,,,,,,,,,,,,,,,,,,,11,21,Female,0.7142857142857143,0.75,0.4,1.75,2.1666666666666665,1.0,2.0,3.2222222222222223,2.0,2.5555555555555554,2.25,1.5,3.0,1.25,0.8518518518518517,0.8055555555555555,0.6012899363651575,-0.46635378732020955,,,,,0.00769496974813288,-0.4460325697896646,0.0070231158707888194,-0.5045278738180554,1.3256608051842482e+44,-0.19790367206104217,6.075522013522489e+42,0.24557296174593166,,,,,,,,,,,,,,,,,,,,
40,240613_145437,LEARNING,1.0,41,1.0,917.0,,,,,,,,,,41.0,41.0,41.0,cue1.png,Easy,A,,,,,,,,,,,,,,,,,,,,,,,,,,,11,21,Female,0.7142857142857143,0.75,0.4,1.75,2.1666666666666665,1.0,2.0,3.2222222222222223,2.0,2.5555555555555554,2.25,1.5,3.0,1.25,1.0,1.0,0.606918150006095,-0.4253217778249379,0.02399062348419188,0.9151575605324989,0.02185416114427852,0.7506564677925698,,,,,2.225391910859335e+44,-0.19788889814195076,1.2761579860184754e+43,0.4051242929653716,,,,,,,,,,,,,,,,,,,,
41,240613_145504,LEARNING,1.0,42,3.0,917.0,,,,,,,,,,42.0,42.0,42.0,cue2.png,Hard,A,,,,,,,,,,,,,,,,,,,,,,,,,,,11,21,Female,0.7142857142857143,0.75,0.4,1.75,2.1666666666666665,1.0,2.0,3.2222222222222223,2.0,2.5555555555555554,2.25,1.5,3.0,1.25,0.6111111111111112,0.7777777777777778,0.8028078500040768,1.0027953021450924,,,0.0161877526544985,-0.5858342077512817,0.007031577095676806,-0.5572543414760813,0.008005337828409547,-0.2948857596573343,2.584195520619823e+44,-0.1978830064533486,,,,,,,,,,,,,,,,,,,,,,
42,240613_145532,LEARNING,1.0,43,3.0,917.0,,,,,,,,,,43.0,43.0,43.0,cue2.png,Hard,A,,,,,,,,,,,,,,,,,,,,,,,,,,,11,21,Female,0.7142857142857143,0.75,0.4,1.75,2.1666666666666665,1.0,2.0,3.2222222222222223,2.0,2.5555555555555554,2.25,1.5,3.0,1.25,0.9166666666666666,0.9166666666666666,0.8929224545400675,1.659768108239128,,,,,0.006557153824302712,-0.6367942588630715,0.011953263429565876,0.5477460540118481,1.9183867648435683e+44,-0.19789393928053015,1.0348777702339468e+43,0.3475468975730283,,,,,,,,,,,,,,,,,,,,
43,240613_145555,LEARNING,1.0,44,1.0,917.0,,,,,,,,,,44.0,44.0,44.0,cue1.png,Easy,A,,,,,,,,,,,,,,,,,,,,,,,,,,,11,21,Female,0.7142857142857143,0.75,0.4,1.75,2.1666666666666665,1.0,2.0,3.2222222222222223,2.0,2.5555555555555554,2.25,1.5,3.0,1.25,1.0,1.0,0.4851815749983264,-1.3128318512358321,0.025589575878758153,1.2188233443480772,0.02126654483650474,0.6120600857008768,0.006867797347925839,-0.5847130021105885,0.009620070508248695,0.049757291925309304,1.325955957051783e+43,-0.19792326263511975,1.8809768149456784e+42,0.14547731710128756,,,,,,,,,,,,,,,,,,,,
44,240613_145618,LEARNING,1.0,45,1.0,917.0,,,,,,,,,,45.0,45.0,45.0,cue1.png,Easy,A,,,,,,,,,,,,,,,,,,,,,,,,,,,11,21,Female,0.7142857142857143,0.75,0.4,1.75,2.1666666666666665,1.0,2.0,3.2222222222222223,2.0,2.5555555555555554,2.25,1.5,3.0,1.25,0.8518518518518517,0.8888888888888888,0.4921334583268617,-1.262149741254846,0.024139808317273907,0.9434900671319456,0.015296751897022998,-0.7959874655716946,,,0.005280723293825593,-0.8764182196797444,-1.3290683021713488e+44,-0.19794726369947094,-8.409298561596865e+42,-0.10008249895109678,,,,,,,,,,,,,,,,,,,,
45,240613_145642,LEARNING,1.0,46,1.0,917.0,,,,,,,,,,46.0,46.0,46.0,cue1.png,Easy,A,,,,,,,,,,,,,,,,,,,,,,,,,,,11,21,Female,0.7142857142857143,0.75,0.4,1.75,2.1666666666666665,1.0,2.0,3.2222222222222223,2.0,2.5555555555555554,2.25,1.5,3.0,1.25,0.875,0.875,0.5038803666611784,-1.1765099121609586,0.021445532559216825,0.4318054399560085,,,0.008349601782599303,-0.3362795684465272,0.006535238724676364,-0.6086587126454319,-2.7401813253427224e+44,-0.19797043469967499,-1.5321696335751003e+43,-0.2650350452912626,,,,,,,,,,,,,,,,,,,,
46,240613_145707,LEARNING,1.0,47,3.0,917.0,,,,,,,,,,47.0,47.0,47.0,cue2.png,Hard,A,,,,,,,,,,,,,,,,,,,,,,,,,,,11,21,Female,0.7142857142857143,0.75,0.4,1.75,2.1666666666666665,1.0,2.0,3.2222222222222223,2.0,2.5555555555555554,2.25,1.5,3.0,1.25,0.8518518518518517,0.8888888888888888,0.7026003333303379,0.2722409845642163,0.025652719169764575,1.2308152316746297,0.01695203354064816,-0.4055693575065958,0.009551283631939918,-0.1348103725001301,0.007197908471325929,-0.4672207356178324,-1.859788798026728e+44,-0.19795597832722636,,,,,,,,,,,,,,,,,,,,,,
47,240613_145733,LEARNING,1.0,48,3.0,917.0,,,,,,,,,,48.0,48.0,48.0,cue2.png,Hard,A,,,,,,,,,,,,,,,,,,,,,,,,,,,11,21,Female,0.7142857142857143,0.75,0.4,1.75,2.1666666666666665,1.0,2.0,3.2222222222222223,2.0,2.5555555555555554,2.25,1.5,3.0,1.25,0.6875,0.6666666666666666,0.5877728727328676,-0.5648987820009599,0.018691294736063055,-0.09126691055594811,,,0.006526780992382077,-0.6418864469734462,0.006839682809025822,-0.5436792026766778,9.731218830743603e+43,-0.1979094608811452,7.582719474138241e+42,0.2815396504535159,,,,,,,,,,,,,,,,,,,,
48,240613_145755,LEARNING,1.0,49,1.0,917.0,,,,,,,,,,49.0,49.0,49.0,cue1.png,Easy,A,,,,,,,,,,,,,,,,,,,,,,,,,,,11,21,Female,0.7142857142857143,0.75,0.4,1.75,2.1666666666666665,1.0,2.0,3.2222222222222223,2.0,2.5555555555555554,2.25,1.5,3.0,1.25,1.0,1.0,0.4667737666629061,-1.447032401284657,0.01784534548718923,-0.25192575355868324,0.018356380117485697,-0.07433730662984027,,,0.0075068511845309115,-0.4012810536057032,,,,,,,,,,,,,,,,,,,,,,,,
49,240613_145818,LEARNING,1.0,50,1.0,917.0,,,,,,,,,,50.0,50.0,50.0,cue1.png,Easy,A,,,,,,,,,,,,,,,,,,,,,,,,,,,11,21,Female,0.7142857142857143,0.75,0.4,1.75,2.1666666666666665,1.0,2.0,3.2222222222222223,2.0,2.5555555555555554,2.25,1.5,3.0,1.25,1.0,1.0,0.4692221666652282,-1.4291825507720937,0.0185878508772581,-0.11091249886218145,0.021034608458860463,0.5573550981236354,0.007715466068000634,-0.44259623837974743,0.02269868458742979,2.8412122014585157,-1.5931884170164554e+44,-0.19795160064990264,-7.015363618631546e+42,-0.06681862644445419,,,,,,,,,,,,,,,,,,,,
0,240613_150039,TrueCHOICE,9.0,1,1.0,917.0,,,,,,,,,,,1.0,1.0,,,A,,,,,,True,cue1.png,Easy,cue2.png,Hard,Left,Easy,Easy,0.0160235000075772,,,,,,,,,,,,,11,21,Female,0.7142857142857143,0.75,0.4,1.75,2.1666666666666665,1.0,2.0,3.2222222222222223,2.0,2.5555555555555554,2.25,1.5,3.0,1.25,1.0,1.0,0.4991361916642442,0.0733757473010415,,,,,,,,,,,,,0.019649768903433645,0.0377229450559774,,,170983051.87422884,0.1266255272657217,,,,,,,,,,,,,,
1,240613_150101,TrueCHOICE,9.0,2,1.0,917.0,,,,,,,,,,,2.0,2.0,,,A,,,,,,True,cue1.png,Easy,cue2.png,Hard,Left,Easy,Easy,0.0161366999964229,,,,,,,,,,,,,11,21,Female,0.7142857142857143,0.75,0.4,1.75,2.1666666666666665,1.0,2.0,3.2222222222222223,2.0,2.5555555555555554,2.25,1.5,3.0,1.25,1.0,1.0,0.5168602166716786,0.42042608332266385,,,,,,,,,,,,,0.014195940688725421,-1.2807148756348194,0.007765174590109548,0.2746171296823009,52793144.70695906,-0.4157459512312834,,,,,,,,,,,,,,
2,240613_150128,TrueCHOICE,9.0,3,1.0,917.0,,,,,,,,,,,4.0,3.0,,,A,,,,,,True,cue2.png,Hard,cue1.png,Easy,Right,Easy,Easy,0.0155086000158917,,,,,,,,,,,,,11,21,Female,0.7142857142857143,0.75,0.4,1.75,2.1666666666666665,1.0,2.0,3.2222222222222223,2.0,2.5555555555555554,2.25,1.5,3.0,1.25,1.0,1.0,0.4504593083329382,-0.8797558754273818,,,,,,,,,,,,,0.026807457856949584,1.7680612420353248,0.007232058023518355,-0.1061034328235528,18446171.60525521,-0.5733636279818312,,,,,,,,,,,,,,
3,240613_150150,TrueCHOICE,9.0,4,3.0,917.0,,,,,,,,,,,5.0,4.0,,,A,,,,,,True,cue1.png,Easy,cue2.png,Hard,Right,Hard,Hard,0.0168007000174839,,,,,,,,,,,,,11,21,Female,0.7142857142857143,0.75,0.4,1.75,2.1666666666666665,1.0,2.0,3.2222222222222223,2.0,2.5555555555555554,2.25,1.5,3.0,1.25,0.8518518518518517,0.8888888888888888,0.601234291670456,2.072536767411456,,,,,,,,,,,,,,,,,,,,,,,,,,,,,,,,
4,240613_150211,TrueCHOICE,9.0,5,1.0,917.0,,,,,,,,,,,6.0,5.0,,,A,,,,,,True,cue2.png,Hard,cue1.png,Easy,Right,Easy,Easy,0.0169041999906767,,,,,,,,,,,,,11,21,Female,0.7142857142857143,0.75,0.4,1.75,2.1666666666666665,1.0,2.0,3.2222222222222223,2.0,2.5555555555555554,2.25,1.5,3.0,1.25,1.0,1.0,0.430322283335651,-1.2740546472274086,,,,,,,,,,,,,,,0.004759866384967726,-1.8715976047069993,,,,,,,,,,,,,,,,
5,240613_150231,TrueCHOICE,9.0,6,1.0,917.0,,,,,,,,,,,7.0,6.0,,,A,,,,,,True,cue2.png,Hard,cue1.png,Easy,Right,Easy,Easy,0.0165750999876763,,,,,,,,,,,,,11,21,Female,0.7142857142857143,0.75,0.4,1.75,2.1666666666666665,1.0,2.0,3.2222222222222223,2.0,2.5555555555555554,2.25,1.5,3.0,1.25,1.0,1.0,0.5027022333379136,0.14320164523308396,,,,,,,,,,,,,0.019306695229223243,-0.045213533607303305,0.007771562927994263,0.27917930565911936,-1240364.4496220914,-0.6637048078886489,,,,,,,,,,,,,,
6,240613_150252,TrueCHOICE,9.0,7,1.0,917.0,,,,,,,,,,,8.0,7.0,,,A,,,,,,True,cue1.png,Easy,cue2.png,Hard,Left,Easy,Easy,0.0154976999911013,,,,,,,,,,,,,11,21,Female,0.7142857142857143,0.75,0.4,1.75,2.1666666666666665,1.0,2.0,3.2222222222222223,2.0,2.5555555555555554,2.25,1.5,3.0,1.25,1.0,1.0,0.4531901250011287,-0.8262843393676299,,,,,,,,,,,,,,,0.009514627106423583,1.523973439029759,6267827.714157258,-0.6292498414510719,,,,,,,,,,,,,,
7,240613_150313,TrueCHOICE,9.0,8,1.0,917.0,,,,,,,,,,,9.0,8.0,,,A,,,,,,True,cue2.png,Hard,cue1.png,Easy,Right,Easy,Easy,0.0164727000228595,,,,,,,,,,,,,11,21,Female,0.7142857142857143,0.75,0.4,1.75,2.1666666666666665,1.0,2.0,3.2222222222222223,2.0,2.5555555555555554,2.25,1.5,3.0,1.25,1.0,1.0,0.4662664500016641,-0.57023962133884,,,,,,,,,,,,,0.01750876126696143,-0.4798557778491771,,,613088232.9243166,2.1554387012871135,,,,,,,,,,,,,,
8,240613_150335,TrueCHOICE,9.0,9,3.0,917.0,,,,,,,,,,,10.0,9.0,,,A,,,,,,True,cue1.png,Easy,cue2.png,Hard,Right,Hard,Hard,0.0155993999796919,,,,,,,,,,,,,11,21,Female,0.7142857142857143,0.75,0.4,1.75,2.1666666666666665,1.0,2.0,3.2222222222222223,2.0,2.5555555555555554,2.25,1.5,3.0,1.25,0.8518518518518517,0.8888888888888888,0.5645402166701388,1.3540379471084432,,,,,,,,,,,,,,,,,,,,,,,,,,,,,,,,
9,240613_150355,TrueCHOICE,9.0,10,1.0,917.0,,,,,,,,,,,11.0,10.0,,,A,,,,,,True,cue2.png,Hard,cue1.png,Easy,Right,Easy,Easy,0.0165547000069636,,,,,,,,,,,,,11,21,Female,0.7142857142857143,0.75,0.4,1.75,2.1666666666666665,1.0,2.0,3.2222222222222223,2.0,2.5555555555555554,2.25,1.5,3.0,1.25,0.8518518518518517,0.8888888888888888,0.4691772583367613,-0.5132437070154119,,,,,,,,,,,,,,,0.007240508166242476,-0.1000688368406277,,,,,,,,,,,,,,,,
0,240613_150550,FalseCHOICE,9.0,1,2.0,917.0,,,,,,,,,,,1.0,1.0,,,A,,,,,,False,cue1.png,Easy,cue2.png,Hard,Left,Easy,Mid,0.0160359000146854,,,,,,,,,,,,,11,21,Female,0.7142857142857143,0.75,0.4,1.75,2.1666666666666665,1.0,2.0,3.2222222222222223,2.0,2.5555555555555554,2.25,1.5,3.0,1.25,0.8518518518518517,0.8888888888888888,0.6022421416685878,-1.0900364552906883,,,,,,,,,,,,,,,,,,,,,,,1.5155441555224546e+46,-0.19600874142100003,,,,,,,,
1,240613_150614,FalseCHOICE,9.0,2,2.0,917.0,,,,,,,,,,,2.0,2.0,,,A,,,,,,False,cue2.png,Hard,cue1.png,Easy,Left,Hard,Mid,0.0160504999803379,,,,,,,,,,,,,11,21,Female,0.7142857142857143,0.75,0.4,1.75,2.1666666666666665,1.0,2.0,3.2222222222222223,2.0,2.5555555555555554,2.25,1.5,3.0,1.25,0.0520833333333333,0.625,0.657587941668074,-0.37905036785209634,,,,,,,,,,,,,,,,,,,0.018382635327243272,-0.5037956685911454,,,,,,,,,,,,
2,240613_150639,FalseCHOICE,9.0,3,2.0,917.0,,,,,,,,,,,3.0,3.0,,,A,,,,,,False,cue2.png,Hard,cue1.png,Easy,Left,Hard,Mid,0.0150161999918054,,,,,,,,,,,,,11,21,Female,0.7142857142857143,0.75,0.4,1.75,2.1666666666666665,1.0,2.0,3.2222222222222223,2.0,2.5555555555555554,2.25,1.5,3.0,1.25,0.875,0.875,0.7427389499983595,0.7148209332179527,,,,,,,,,,,,,,,,,,,,,0.009363483074947061,-0.22644098853691746,,,,,,,,,,
3,240613_150704,FalseCHOICE,9.0,4,2.0,917.0,,,,,,,,,,,4.0,4.0,,,A,,,,,,False,cue2.png,Hard,cue1.png,Easy,Right,Easy,Mid,0.0155267000081948,,,,,,,,,,,,,11,21,Female,0.7142857142857143,0.75,0.4,1.75,2.1666666666666665,1.0,2.0,3.2222222222222223,2.0,2.5555555555555554,2.25,1.5,3.0,1.25,0.875,0.875,0.7552436833332953,0.8754598873635506,,,,,,,,,,,,,,,,,,,0.01833463544255373,-0.5091797259930312,0.006826505479846223,-0.7019715900923235,-1.7686539141045326e+45,-0.19800375813855883,,,,,,,,
4,240613_150727,FalseCHOICE,9.0,5,2.0,917.0,,,,,,,,,,,5.0,5.0,,,A,,,,,,False,cue1.png,Easy,cue2.png,Hard,Right,Hard,Mid,0.0165682999941054,,,,,,,,,,,,,11,21,Female,0.7142857142857143,0.75,0.4,1.75,2.1666666666666665,1.0,2.0,3.2222222222222223,2.0,2.5555555555555554,2.25,1.5,3.0,1.25,1.0,1.0,0.7087222583310601,0.27783394384635196,,,,,,,,,,,,,,,,,,,0.017619617952794445,-0.5893819021673237,0.007539338954370424,-0.5683582181792576,4.930639995435212e+49,5.614455812535238,,,,,,,,
5,240613_150753,FalseCHOICE,9.0,6,2.0,917.0,,,,,,,,,,,6.0,6.0,,,A,,,,,,False,cue2.png,Hard,cue1.png,Easy,Left,Hard,Mid,0.014548500010278,,,,,,,,,,,,,11,21,Female,0.7142857142857143,0.75,0.4,1.75,2.1666666666666665,1.0,2.0,3.2222222222222223,2.0,2.5555555555555554,2.25,1.5,3.0,1.25,0.8518518518518517,0.8888888888888888,0.8521765083326803,2.1206833729997205,,,,,,,,,,,,,,,,,,,,,0.013728359611756408,0.5917106456250408,-2.566258800984334e+44,-0.19782551988584235,,,,,,,,
6,240613_150817,FalseCHOICE,9.0,7,2.0,917.0,,,,,,,,,,,7.0,7.0,,,A,,,,,,False,cue2.png,Hard,cue1.png,Easy,Right,Easy,Mid,0.0165026999893598,,,,,,,,,,,,,11,21,Female,0.7142857142857143,0.75,0.4,1.75,2.1666666666666665,1.0,2.0,3.2222222222222223,2.0,2.5555555555555554,2.25,1.5,3.0,1.25,0.6875,0.75,0.698809999996835,0.1504985765592829,,,,,,,,,,,,,,,,,,,0.019480189518153675,-0.3806850652269348,0.012495755299324628,0.36067152596455593,,,,,,,,,,
7,240613_150841,FalseCHOICE,9.0,8,2.0,917.0,,,,,,,,,,,8.0,8.0,,,A,,,,,,False,cue1.png,Easy,cue2.png,Hard,Left,Easy,Mid,0.0167111000046134,,,,,,,,,,,,,11,21,Female,0.7142857142857143,0.75,0.4,1.75,2.1666666666666665,1.0,2.0,3.2222222222222223,2.0,2.5555555555555554,2.25,1.5,3.0,1.25,1.0,1.0,0.753532766670105,0.8534810209580346,,,,,,,,,,,,,,,,,,,0.01996043250611382,-0.3268171063609006,0.008154562987919785,-0.45304074145812706,,,,,,,,,,
8,240613_150905,FalseCHOICE,9.0,9,2.0,917.0,,,,,,,,,,,9.0,9.0,,,A,,,,,,False,cue1.png,Easy,cue2.png,Hard,Right,Hard,Mid,0.0163774999964516,,,,,,,,,,,,,11,21,Female,0.7142857142857143,0.75,0.4,1.75,2.1666666666666665,1.0,2.0,3.2222222222222223,2.0,2.5555555555555554,2.25,1.5,3.0,1.25,0.8518518518518517,0.8888888888888888,0.6584111250025065,-0.3684755473923996,,,,,,,,,,,,,,,,,,,0.022551097268121094,-0.03622707936591398,0.008215129909647652,-0.4416880890818387,6.051026950748289e+48,0.5155013412123473,,,,,,,,
9,240613_150928,FalseCHOICE,9.0,10,2.0,917.0,,,,,,,,,,,10.0,10.0,,,A,,,,,,False,cue2.png,Hard,cue1.png,Easy,Right,Easy,Mid,0.0166067999962251,,,,,,,,,,,,,11,21,Female,0.7142857142857143,0.75,0.4,1.75,2.1666666666666665,1.0,2.0,3.2222222222222223,2.0,2.5555555555555554,2.25,1.5,3.0,1.25,1.0,1.0,0.661696125001375,-0.3262756099725243,,,,,,,,,,,,,,,,,,,0.030166795467943493,0.8180115615910009,0.01254498197244638,0.36989856428265655,6.656012319009108e+44,-0.19771680751718673,,,,,,,,
10,240613_150954,FalseCHOICE,9.0,11,2.0,917.0,,,,,,,,,,,11.0,11.0,,,A,,,,,,False,cue1.png,Easy,cue2.png,Hard,Right,Hard,Mid,0.0164090000034775,,,,,,,,,,,,,11,21,Female,0.7142857142857143,0.75,0.4,1.75,2.1666666666666665,1.0,2.0,3.2222222222222223,2.0,2.5555555555555554,2.25,1.5,3.0,1.25,0.1666666666666666,0.5833333333333334,0.7967447818188124,1.4085934519139844,,,,,,,,,,,,,,,,,,,0.02061091134525255,-0.25385411006857656,0.008546560872604674,-0.3795647319448295,,,,,,,,,,
11,240613_151020,FalseCHOICE,9.0,12,2.0,917.0,,,,,,,,,,,12.0,12.0,,,A,,,,,,False,cue2.png,Hard,cue1.png,Easy,Right,Easy,Mid,0.0171609999961219,,,,,,,,,,,,,11,21,Female,0.7142857142857143,0.75,0.4,1.75,2.1666666666666665,1.0,2.0,3.2222222222222223,2.0,2.5555555555555554,2.25,1.5,3.0,1.25,1.0,0.9166666666666666,0.822962427273689,1.7453919291965956,,,,,,,,,,,,,,,,,,,0.02295988554370563,0.009625937890284158,0.008575445078678159,-0.374150681810489,-1.4502174065134972e+44,-0.1978123639612407,,,,,,,,
12,240613_151045,FalseCHOICE,9.0,13,2.0,917.0,,,,,,,,,,,13.0,13.0,,,A,,,,,,False,cue1.png,Easy,cue2.png,Hard,Right,Hard,Mid,0.0163195999921299,,,,,,,,,,,,,11,21,Female,0.7142857142857143,0.75,0.4,1.75,2.1666666666666665,1.0,2.0,3.2222222222222223,2.0,2.5555555555555554,2.25,1.5,3.0,1.25,1.0,1.0,0.7579625749979945,0.9103874545298364,,,,,,,,,,,,,,,,,,,,,0.02388047643622695,2.4946215069286266,-3.5572710471415555e+44,-0.19783720196363477,,,,,,,,
13,240613_151110,FalseCHOICE,9.0,14,2.0,917.0,,,,,,,,,,,14.0,14.0,,,A,,,,,,False,cue2.png,Hard,cue1.png,Easy,Left,Hard,Mid,0.0150273999897763,,,,,,,,,,,,,11,21,Female,0.7142857142857143,0.75,0.4,1.75,2.1666666666666665,1.0,2.0,3.2222222222222223,2.0,2.5555555555555554,2.25,1.5,3.0,1.25,1.0,1.0,0.8185403083310424,1.6885842754044462,,,,,,,,,,,,,,,,,,,0.017910327985577068,-0.5567735008361681,0.01319588068334498,0.49190289579231117,,,,,,,,,,
14,240613_151134,FalseCHOICE,9.0,15,2.0,917.0,,,,,,,,,,,15.0,15.0,,,A,,,,,,False,cue1.png,Easy,cue2.png,Hard,Right,Hard,Mid,0.0162181000050622,,,,,,,,,,,,,11,21,Female,0.7142857142857143,0.75,0.4,1.75,2.1666666666666665,1.0,2.0,3.2222222222222223,2.0,2.5555555555555554,2.25,1.5,3.0,1.25,1.0,1.0,0.7078884500006097,0.26712263201155895,,,,,,,,,,,,,,,,,,,0.01875456517573799,-0.4620769922501044,0.009264775850682055,-0.24494265202154786,,,,,,,,,,
15,240613_151200,FalseCHOICE,9.0,16,2.0,917.0,,,,,,,,,,,16.0,16.0,,,A,,,,,,False,cue1.png,Easy,cue2.png,Hard,Right,Hard,Mid,0.0164050000021234,,,,,,,,,,,,,11,21,Female,0.7142857142857143,0.75,0.4,1.75,2.1666666666666665,1.0,2.0,3.2222222222222223,2.0,2.5555555555555554,2.25,1.5,3.0,1.25,0.8518518518518517,0.8888888888888888,0.7857078416612543,1.2668101386365733,,,,,,,,,,,,,,,,,,,0.020368599809673957,-0.28103374237670403,0.008934247221946544,-0.3068968758023984,,,,,,,,,,
16,240613_151225,FalseCHOICE,9.0,17,2.0,917.0,,,,,,,,,,,17.0,17.0,,,A,,,,,,False,cue2.png,Hard,cue1.png,Easy,Left,Hard,Mid,0.0158664000045973,,,,,,,,,,,,,11,21,Female,0.7142857142857143,0.75,0.4,1.75,2.1666666666666665,1.0,2.0,3.2222222222222223,2.0,2.5555555555555554,2.25,1.5,3.0,1.25,0.8518518518518517,0.8055555555555555,0.6684484363623514,-0.23953371743953442,,,,,,,,,,,,,,,,,,,0.026335879611976348,0.38830488617442693,0.008799746580041932,-0.3321076507331664,,,,,,,,,,
17,240613_151249,FalseCHOICE,9.0,18,2.0,917.0,,,,,,,,,,,18.0,18.0,,,A,,,,,,False,cue2.png,Hard,cue1.png,Easy,Right,Easy,Mid,0.0165006000024732,,,,,,,,,,,,,11,21,Female,0.7142857142857143,0.75,0.4,1.75,2.1666666666666665,1.0,2.0,3.2222222222222223,2.0,2.5555555555555554,2.25,1.5,3.0,1.25,0.8518518518518517,0.8888888888888888,0.7226771250013068,0.45710167608074054,,,,,,,,,,,,,,,,,,,0.015080017757780647,-0.874244112071216,0.007691284759597456,-0.5398775251282183,,,,,,,,,,
18,240613_151313,FalseCHOICE,9.0,19,2.0,917.0,,,,,,,,,,,19.0,19.0,,,A,,,,,,False,cue1.png,Easy,cue2.png,Hard,Right,Hard,Mid,0.0169049999967683,,,,,,,,,,,,,11,21,Female,0.7142857142857143,0.75,0.4,1.75,2.1666666666666665,1.0,2.0,3.2222222222222223,2.0,2.5555555555555554,2.25,1.5,3.0,1.25,1.0,1.0,0.729716224996082,0.5475277276405831,,,,,,,,,,,,,,,,,,,0.017269924504236814,-0.628606363064996,0.03381712397600191,4.357144846180038,2.1612568396332266e+44,-0.19776979181013724,,,,,,,,
19,240613_151337,FalseCHOICE,9.0,20,2.0,917.0,,,,,,,,,,,20.0,20.0,,,A,,,,,,False,cue1.png,Easy,cue2.png,Hard,Right,Hard,Mid,0.0165086999768391,,,,,,,,,,,,,11,21,Female,0.7142857142857143,0.75,0.4,1.75,2.1666666666666665,1.0,2.0,3.2222222222222223,2.0,2.5555555555555554,2.25,1.5,3.0,1.25,1.0,1.0,0.6405399583284938,-0.5980530559230788,,,,,,,,,,,,,,,,,,,0.023210512400244153,0.03773828421747522,0.010852705971299668,0.052698670055333977,1.3635930561231993e+44,-0.19777919469128963,,,,,,,,
20,240613_151401,FalseCHOICE,9.0,21,2.0,917.0,,,,,,,,,,,21.0,21.0,,,A,,,,,,False,cue1.png,Easy,cue2.png,Hard,Right,Hard,Mid,0.0156114000128582,,,,,,,,,,,,,11,21,Female,0.7142857142857143,0.75,0.4,1.75,2.1666666666666665,1.0,2.0,3.2222222222222223,2.0,2.5555555555555554,2.25,1.5,3.0,1.25,1.0,1.0,0.6471326249957201,-0.5133619993377263,,,,,,,,,,,,,,,,,,,0.02139759581621193,-0.16561318248692417,0.008065528266697472,-0.46972939279818016,3.610070132258433e+43,-0.19779101320129502,,,,,,,,
21,240613_151430,FalseCHOICE,9.0,22,2.0,917.0,,,,,,,,,,,23.0,22.0,,,A,,,,,,False,cue2.png,Hard,cue1.png,Easy,Left,Hard,Mid,0.0159593999851495,,,,,,,,,,,,,11,21,Female,0.7142857142857143,0.75,0.4,1.75,2.1666666666666665,1.0,2.0,3.2222222222222223,2.0,2.5555555555555554,2.25,1.5,3.0,1.25,0.8518518518518517,0.8888888888888888,0.7224483499982549,0.45416277476708894,,,,,,,,,,,,,,,,,,,0.0221413160688959,-0.08219147101210439,,,-7.597378309157863e+43,-0.19780422457028213,,,,,,,,
22,240613_151455,FalseCHOICE,9.0,23,2.0,917.0,,,,,,,,,,,24.0,23.0,,,A,,,,,,False,cue1.png,Easy,cue2.png,Hard,Right,Hard,Mid,0.0166232000046875,,,,,,,,,,,,,11,21,Female,0.7142857142857143,0.75,0.4,1.75,2.1666666666666665,1.0,2.0,3.2222222222222223,2.0,2.5555555555555554,2.25,1.5,3.0,1.25,1.0,1.0,0.789210324997839,1.3118039217930257,,,,,,,,,,,,,,,,,,,0.02444605459826249,0.1763267445775138,0.01695261184716438,1.1960638760322542,-1.557618329695577e+44,-0.19781363000607965,,,,,,,,
23,240613_151520,FalseCHOICE,9.0,24,2.0,917.0,,,,,,,,,,,25.0,24.0,,,A,,,,,,False,cue2.png,Hard,cue1.png,Easy,Right,Easy,Mid,0.0170333000132814,,,,,,,,,,,,,11,21,Female,0.7142857142857143,0.75,0.4,1.75,2.1666666666666665,1.0,2.0,3.2222222222222223,2.0,2.5555555555555554,2.25,1.5,3.0,1.25,1.0,1.0,0.7109337083311402,0.306242787573205,,,,,,,,,,,,,,,,,,,0.017867405455012596,-0.5615880409103375,,,-1.8337341558774432e+44,-0.1978168848665253,,,,,,,,
24,240613_151544,FalseCHOICE,9.0,25,2.0,917.0,,,,,,,,,,,26.0,25.0,,,A,,,,,,False,cue2.png,Hard,cue1.png,Easy,Right,Easy,Mid,0.0154550000152084,,,,,,,,,,,,,11,21,Female,0.7142857142857143,0.75,0.4,1.75,2.1666666666666665,1.0,2.0,3.2222222222222223,2.0,2.5555555555555554,2.25,1.5,3.0,1.25,0.6875,0.75,0.7075870083353948,0.26325023645229084,,,,,,,,,,,,,,,,,,,0.019238012302846882,-0.4078496310810845,0.006595323484139652,-0.745304299730524,-1.6068962415399595e+44,-0.1978142108953692,,,,,,,,
25,240613_151609,FalseCHOICE,9.0,26,2.0,917.0,,,,,,,,,,,27.0,26.0,,,A,,,,,,False,cue1.png,Easy,cue2.png,Hard,Left,Easy,Mid,0.01567000002251,,,,,,,,,,,,,11,21,Female,0.7142857142857143,0.75,0.4,1.75,2.1666666666666665,1.0,2.0,3.2222222222222223,2.0,2.5555555555555554,2.25,1.5,3.0,1.25,0.8518518518518517,0.8888888888888888,0.7731393583332343,1.1053522360223,,,,,,,,,,,,,,,,,,,0.03283876290299234,1.1177211575477433,0.023658827966523827,2.4530757596049995,-9.468818366220012e+43,-0.1978064306286245,,,,,,,,
26,240613_151633,FalseCHOICE,9.0,27,2.0,917.0,,,,,,,,,,,28.0,27.0,,,A,,,,,,False,cue1.png,Easy,cue2.png,Hard,Right,Hard,Mid,0.016602799994871,,,,,,,,,,,,,11,21,Female,0.7142857142857143,0.75,0.4,1.75,2.1666666666666665,1.0,2.0,3.2222222222222223,2.0,2.5555555555555554,2.25,1.5,3.0,1.25,0.875,0.875,0.7297788083330184,0.5483316889505234,,,,,,,,,,,,,,,,,,,0.03495279238761294,1.354847895832522,0.009705744847465832,-0.16228750650003665,1.2326852193870224e+45,-0.19764995951119757,,,,,,,,
27,240613_151656,FalseCHOICE,9.0,28,2.0,917.0,,,,,,,,,,,29.0,28.0,,,A,,,,,,False,cue2.png,Hard,cue1.png,Easy,Right,Easy,Mid,0.0164321999764069,,,,,,,,,,,,,11,21,Female,0.7142857142857143,0.75,0.4,1.75,2.1666666666666665,1.0,2.0,3.2222222222222223,2.0,2.5555555555555554,2.25,1.5,3.0,1.25,1.0,1.0,0.6280939500017363,-0.7579376138218097,,,,,,,,,,,,,,,,,,,,,0.007475142562914437,-0.5803911776762999,6.14930753439309e+43,-0.19778801994172834,,,,,,,,
28,240613_151718,FalseCHOICE,9.0,29,2.0,917.0,,,,,,,,,,,30.0,29.0,,,A,,,,,,False,cue1.png,Easy,cue2.png,Hard,Left,Easy,Mid,0.0157442000054288,,,,,,,,,,,,,11,21,Female,0.7142857142857143,0.75,0.4,1.75,2.1666666666666665,1.0,2.0,3.2222222222222223,2.0,2.5555555555555554,2.25,1.5,3.0,1.25,1.0,1.0,0.5890940499957651,-1.258940152695567,,,,,,,,,,,,,,,,,,,,,0.013466712982981435,0.5426676509148878,1.2942380078341322e+44,-0.19778001225037886,,,,,,,,
29,240613_151744,FalseCHOICE,9.0,30,2.0,917.0,,,,,,,,,,,31.0,30.0,,,A,,,,,,False,cue1.png,Easy,cue2.png,Hard,Right,Hard,Mid,0.0165514000109396,,,,,,,,,,,,,11,21,Female,0.7142857142857143,0.75,0.4,1.75,2.1666666666666665,1.0,2.0,3.2222222222222223,2.0,2.5555555555555554,2.25,1.5,3.0,1.25,0.7222222222222222,0.8055555555555555,0.7851920454572379,1.2601840906796782,,,,,,,,,,,,,,,,,,,,,,,,,,,,,,,,
30,240613_151808,FalseCHOICE,9.0,31,2.0,917.0,,,,,,,,,,,32.0,31.0,,,A,,,,,,False,cue2.png,Hard,cue1.png,Easy,Right,Easy,Mid,0.0167354999866802,,,,,,,,,,,,,11,21,Female,0.7142857142857143,0.75,0.4,1.75,2.1666666666666665,1.0,2.0,3.2222222222222223,2.0,2.5555555555555554,2.25,1.5,3.0,1.25,0.8518518518518517,0.8888888888888888,0.6529940583350253,-0.4380645502678162,,,,,,,,,,,,,,,,,,,0.015165931223122014,-0.8646073591501482,,,1.4596415442257466e+44,-0.19777806246924673,,,,,,,,
31,240613_151830,FalseCHOICE,9.0,32,2.0,917.0,,,,,,,,,,,33.0,32.0,,,A,,,,,,False,cue1.png,Easy,cue2.png,Hard,Right,Hard,Mid,0.0141607999976258,,,,,,,,,,,,,11,21,Female,0.7142857142857143,0.75,0.4,1.75,2.1666666666666665,1.0,2.0,3.2222222222222223,2.0,2.5555555555555554,2.25,1.5,3.0,1.25,0.6111111111111112,0.7777777777777778,0.6243501666661663,-0.8060311975445029,,,,,,,,,,,,,,,,,,,0.020119342694566326,-0.3089924473662675,0.012823552864307874,0.42211383967118693,9.938473194461763e+43,-0.19778355326352323,,,,,,,,
32,240613_151853,FalseCHOICE,9.0,33,2.0,917.0,,,,,,,,,,,34.0,33.0,,,A,,,,,,False,cue2.png,Hard,cue1.png,Easy,Right,Easy,Mid,0.0166612000029999,,,,,,,,,,,,,11,21,Female,0.7142857142857143,0.75,0.4,1.75,2.1666666666666665,1.0,2.0,3.2222222222222223,2.0,2.5555555555555554,2.25,1.5,3.0,1.25,0.6111111111111112,0.7777777777777778,0.6675048166653141,-0.25165569374907815,,,,,,,,,,,,,,,,,,,0.01258845704662721,-1.1537178228082028,0.009177011102290866,-0.26139325989385054,3.2889565438762525e+43,-0.19779139173081717,,,,,,,,
33,240613_151916,FalseCHOICE,9.0,34,2.0,917.0,,,,,,,,,,,35.0,34.0,,,A,,,,,,False,cue2.png,Hard,cue1.png,Easy,Right,Easy,Mid,0.0167243000178132,,,,,,,,,,,,,11,21,Female,0.7142857142857143,0.75,0.4,1.75,2.1666666666666665,1.0,2.0,3.2222222222222223,2.0,2.5555555555555554,2.25,1.5,3.0,1.25,0.8518518518518517,0.8888888888888888,0.6514956583317447,-0.4573133741308798,,,,,,,,,,,,,,,,,,,0.01864384840318354,-0.4744958858087089,0.007332231896562044,-0.6071783260021155,-4.78310648754213e+43,-0.19780090709943587,,,,,,,,
34,240613_151938,FalseCHOICE,9.0,35,2.0,917.0,,,,,,,,,,,36.0,35.0,,,A,,,,,,False,cue2.png,Hard,cue1.png,Easy,Right,Easy,Mid,0.0165266999974846,,,,,,,,,,,,,11,21,Female,0.7142857142857143,0.75,0.4,1.75,2.1666666666666665,1.0,2.0,3.2222222222222223,2.0,2.5555555555555554,2.25,1.5,3.0,1.25,1.0,1.0,0.6032975833319748,-1.0764779858354059,,,,,,,,,,,,,,,,,,,0.061124180086916655,4.290443565935506,0.009139942135595483,-0.26834146001423514,-1.0901575957635849e+44,-0.1978081195669505,,,,,,,,
35,240613_152002,FalseCHOICE,9.0,36,2.0,917.0,,,,,,,,,,,37.0,36.0,,,A,,,,,,False,cue1.png,Easy,cue2.png,Hard,Right,Hard,Mid,0.0147221999941393,,,,,,,,,,,,,11,21,Female,0.7142857142857143,0.75,0.4,1.75,2.1666666666666665,1.0,2.0,3.2222222222222223,2.0,2.5555555555555554,2.25,1.5,3.0,1.25,1.0,1.0,0.6476793833329187,-0.5063382040191493,,,,,,,,,,,,,,,,,,,0.011283234439688004,-1.300122204473956,0.005827485166992885,-0.8892277689622574,-1.4219922700812453e+44,-0.19781203124260802,,,,,,,,
36,240613_152025,FalseCHOICE,9.0,37,2.0,917.0,,,,,,,,,,,38.0,37.0,,,A,,,,,,False,cue2.png,Hard,cue1.png,Easy,Left,Hard,Mid,0.0159740000090096,,,,,,,,,,,,,11,21,Female,0.7142857142857143,0.75,0.4,1.75,2.1666666666666665,1.0,2.0,3.2222222222222223,2.0,2.5555555555555554,2.25,1.5,3.0,1.25,0.8518518518518517,0.8888888888888888,0.5939550583352684,-1.1964944151627839,,,,,,,,,,,,,,,,,,,0.03676611567730023,1.5582449819505249,0.008819712747858352,-0.3283651960063949,-1.2873185578499402e+44,-0.1978104437054318,,,,,,,,
37,240613_152047,FalseCHOICE,9.0,38,2.0,917.0,,,,,,,,,,,39.0,38.0,,,A,,,,,,False,cue1.png,Easy,cue2.png,Hard,Left,Easy,Mid,0.0153640000207815,,,,,,,,,,,,,11,21,Female,0.7142857142857143,0.75,0.4,1.75,2.1666666666666665,1.0,2.0,3.2222222222222223,2.0,2.5555555555555554,2.25,1.5,3.0,1.25,1.0,1.0,0.5941139250013899,-1.1944535739540343,,,,,,,,,,,,,,,,,,,0.0166547091799836,-0.6976139167648246,0.008039447075301097,-0.4746180463905297,,,,,,,,,,
38,240613_152109,FalseCHOICE,9.0,39,2.0,917.0,,,,,,,,,,,40.0,39.0,,,A,,,,,,False,cue1.png,Easy,cue2.png,Hard,Left,Easy,Mid,0.0159585000074002,,,,,,,,,,,,,11,21,Female,0.7142857142857143,0.75,0.4,1.75,2.1666666666666665,1.0,2.0,3.2222222222222223,2.0,2.5555555555555554,2.25,1.5,3.0,1.25,1.0,1.0,0.578427391667598,-1.395966732325063,,,,,,,,,,,,,,,,,,,0.03781832152978495,1.6762689469041803,0.007734378230819379,-0.5318000930165416,-1.5910594088878877e+42,-0.1977954563157238,,,,,,,,
39,240613_152132,FalseCHOICE,9.0,40,2.0,917.0,,,,,,,,,,,41.0,40.0,,,A,,,,,,False,cue2.png,Hard,cue1.png,Easy,Right,Easy,Mid,0.0164713999838568,,,,,,,,,,,,,11,21,Female,0.7142857142857143,0.75,0.4,1.75,2.1666666666666665,1.0,2.0,3.2222222222222223,2.0,2.5555555555555554,2.25,1.5,3.0,1.25,0.8518518518518517,0.8888888888888888,0.6303478166616211,-0.7289838749990867,,,,,,,,,,,,,,,,,,,,,0.009120417872872516,-0.27200108413370205,7.524311465265562e+43,-0.19778639908356563,,,,,,,,
40,240613_152154,FalseCHOICE,9.0,41,2.0,917.0,,,,,,,,,,,42.0,41.0,,,A,,,,,,False,cue2.png,Hard,cue1.png,Easy,Right,Easy,Mid,0.015643100021407,,,,,,,,,,,,,11,21,Female,0.7142857142857143,0.75,0.4,1.75,2.1666666666666665,1.0,2.0,3.2222222222222223,2.0,2.5555555555555554,2.25,1.5,3.0,1.25,1.0,1.0,0.5966096916672541,-1.162392326724093,,,,,,,,,,,,,,,,,,,0.03431675963967514,1.2835052906049218,0.010433939915117894,-0.02579476047068084,,,,,,,,,,
41,240613_152217,FalseCHOICE,9.0,42,2.0,917.0,,,,,,,,,,,43.0,42.0,,,A,,,,,,False,cue1.png,Easy,cue2.png,Hard,Right,Hard,Mid,0.0155563000007532,,,,,,,,,,,,,11,21,Female,0.7142857142857143,0.75,0.4,1.75,2.1666666666666665,1.0,2.0,3.2222222222222223,2.0,2.5555555555555554,2.25,1.5,3.0,1.25,1.0,1.0,0.681268700005603,-0.07484138147670946,,,,,,,,,,,,,,,,,,,0.027967061888492368,0.5712715550842514,0.006563235134097751,-0.7513189340055024,,,,,,,,,,
42,240613_152240,FalseCHOICE,9.0,43,2.0,917.0,,,,,,,,,,,44.0,43.0,,,A,,,,,,False,cue2.png,Hard,cue1.png,Easy,Right,Easy,Mid,0.0165665000095032,,,,,,,,,,,,,11,21,Female,0.7142857142857143,0.75,0.4,1.75,2.1666666666666665,1.0,2.0,3.2222222222222223,2.0,2.5555555555555554,2.25,1.5,3.0,1.25,1.0,1.0,0.7094774416618748,0.28753521913155466,,,,,,,,,,,,,,,,,,,0.012709221462573996,-1.1401719038592686,,,9.392761440597227e+43,-0.19778419654993926,,,,,,,,
43,240613_152306,FalseCHOICE,9.0,44,2.0,917.0,,,,,,,,,,,45.0,44.0,,,A,,,,,,False,cue1.png,Easy,cue2.png,Hard,Right,Hard,Mid,0.0170469000004231,,,,,,,,,,,,,11,21,Female,0.7142857142857143,0.75,0.4,1.75,2.1666666666666665,1.0,2.0,3.2222222222222223,2.0,2.5555555555555554,2.25,1.5,3.0,1.25,0.8518518518518517,0.8055555555555555,0.735889845453626,0.6268356110658981,,,,,,,,,,,,,,,,,,,0.020088876128565848,-0.31240982516302424,0.007828285192595052,-0.5141981898268325,4.622681493264175e+42,-0.19779472383835148,,,,,,,,
44,240613_152332,FalseCHOICE,9.0,45,2.0,917.0,,,,,,,,,,,46.0,45.0,,,A,,,,,,False,cue2.png,Hard,cue1.png,Easy,Right,Easy,Mid,0.0165519999864045,,,,,,,,,,,,,11,21,Female,0.7142857142857143,0.75,0.4,1.75,2.1666666666666665,1.0,2.0,3.2222222222222223,2.0,2.5555555555555554,2.25,1.5,3.0,1.25,0.8518518518518517,0.8055555555555555,0.8251885727222543,1.7739895543562176,,,,,,,,,,,,,,,,,,,0.023297938666059385,0.04754472514178651,,,-9.293127913573844e+43,-0.197806223524268,,,,,,,,
45,240613_152354,FalseCHOICE,9.0,46,2.0,917.0,,,,,,,,,,,47.0,46.0,,,A,,,,,,False,cue2.png,Hard,cue1.png,Easy,Right,Easy,Mid,0.0170098999806214,,,,,,,,,,,,,11,21,Female,0.7142857142857143,0.75,0.4,1.75,2.1666666666666665,1.0,2.0,3.2222222222222223,2.0,2.5555555555555554,2.25,1.5,3.0,1.25,0.8518518518518517,0.8888888888888888,0.5973466750025788,-1.1529248531652176,,,,,,,,,,,,,,,,,,,,,0.00715278216404072,-0.6408143499936597,,,,,,,,,,
46,240613_152415,FalseCHOICE,9.0,47,2.0,917.0,,,,,,,,,,,48.0,47.0,,,A,,,,,,False,cue1.png,Easy,cue2.png,Hard,Right,Hard,Mid,0.0168591999972704,,,,,,,,,,,,,11,21,Female,0.7142857142857143,0.75,0.4,1.75,2.1666666666666665,1.0,2.0,3.2222222222222223,2.0,2.5555555555555554,2.25,1.5,3.0,1.25,1.0,1.0,0.5362100250034322,-1.9383016583139256,,,,,,,,,,,,,,,,,,,0.017141373048647893,-0.6430257397044057,0.008909591597298249,-0.31151832143257235,,,,,,,,,,
47,240613_152438,FalseCHOICE,9.0,48,2.0,917.0,,,,,,,,,,,49.0,48.0,,,A,,,,,,False,cue1.png,Easy,cue2.png,Hard,Right,Hard,Mid,0.0169695999938994,,,,,,,,,,,,,11,21,Female,0.7142857142857143,0.75,0.4,1.75,2.1666666666666665,1.0,2.0,3.2222222222222223,2.0,2.5555555555555554,2.25,1.5,3.0,1.25,0.8518518518518517,0.8888888888888888,0.6436569416667529,-0.5580115028458673,,,,,,,,,,,,,,,,,,,0.028502443574839012,0.6313243187492618,0.00784699266314761,-0.5106916650776123,6.69146949750937e+43,-0.19778738083981476,,,,,,,,
48,240613_152501,FalseCHOICE,9.0,49,2.0,917.0,,,,,,,,,,,50.0,49.0,,,A,,,,,,False,cue2.png,Hard,cue1.png,Easy,Right,Easy,Mid,0.0167429999855812,,,,,,,,,,,,,11,21,Female,0.7142857142857143,0.75,0.4,1.75,2.1666666666666665,1.0,2.0,3.2222222222222223,2.0,2.5555555555555554,2.25,1.5,3.0,1.25,1.0,1.0,0.6309367250044792,-0.7214186100909545,,,,,,,,,,,,,,,,,,,0.01889695801696715,-0.44610505323912497,,,,,,,,,,,,
49,240613_152524,FalseCHOICE,9.0,50,2.0,917.0,,,,,,,,,,,51.0,50.0,,,A,,,,,,False,cue1.png,Easy,cue2.png,Hard,Right,Hard,Mid,0.0169833000109065,,,,,,,,,,,,,11,21,Female,0.7142857142857143,0.75,0.4,1.75,2.1666666666666665,1.0,2.0,3.2222222222222223,2.0,2.5555555555555554,2.25,1.5,3.0,1.25,0.8518518518518517,0.8888888888888888,0.5290212333347881,-2.0306506868210183,,,,,,,,,,,,,,,,,,,,,0.008338539576980818,-0.4185562043312521,-4.437126669366842e+43,-0.19780049925753823,,,,,,,,
0,240613_143649,OFFLINERATING,9.0,1,1.0,,,,,,,,,,,,,,,,,T0,cue1.png,Easy,50.0,2.443202399997972,,,,,,,,,,,,,,,,,,,,,,11,21,Female,0.7142857142857143,0.75,0.4,1.75,2.1666666666666665,1.0,2.0,3.2222222222222223,2.0,2.5555555555555554,2.25,1.5,3.0,1.25,,,,,,,,,,,,,,,,,,,,,,,,,,,,,0.10206863588227368,0.014362533853243901,0.4042614348921351,,,,,
1,240613_143657,OFFLINERATING,9.0,2,3.0,,,,,,,,,,,,,,,,,T0,cue2.png,Hard,38.0,1.4023270000179764,,,,,,,,,,,,,,,,,,,,,,11,21,Female,0.7142857142857143,0.75,0.4,1.75,2.1666666666666665,1.0,2.0,3.2222222222222223,2.0,2.5555555555555554,2.25,1.5,3.0,1.25,,,,,,,,,,,,,,,,,,,,,,,,,,,,,-0.4422974221565193,0.015831224371707038,0.9715087157676479,,,1221860.499801521,-0.5740963485547664,
2,240613_145931,OFFLINERATING,9.0,3,1.0,,,,,,,,,,,,,,,,,T1,cue1.png,Easy,76.0,1.3432661000115331,,,,,,,,,,,,,,,,,,,,,,11,21,Female,0.7142857142857143,0.75,0.4,1.75,2.1666666666666665,1.0,2.0,3.2222222222222223,2.0,2.5555555555555554,2.25,1.5,3.0,1.25,,,,,,,,,,,,,,,,,,,,,,,,,,,,,1.2815284282996584,,,0.009255852942288628,0.9999999999999993,60081.9420330332,-0.8322417957179097,
3,240613_145939,OFFLINERATING,9.0,4,3.0,,,,,,,,,,,,,,,,,T1,cue2.png,Hard,5.0,1.3112437000090722,,,,,,,,,,,,,,,,,,,,,,11,21,Female,0.7142857142857143,0.75,0.4,1.75,2.1666666666666665,1.0,2.0,3.2222222222222223,2.0,2.5555555555555554,2.25,1.5,3.0,1.25,,,,,,,,,,,,,,,,,,,,,,,,,,,,,-1.9393040817632,,,,,,,
4,240613_150419,OFFLINERATING,9.0,5,1.0,,,,,,,,,,,,,,,,,T2,cue1.png,Easy,71.0,0.8018411000084598,,,,,,,,,,,,,,,,,,,,,,11,21,Female,0.7142857142857143,0.75,0.4,1.75,2.1666666666666665,1.0,2.0,3.2222222222222223,2.0,2.5555555555555554,2.25,1.5,3.0,1.25,,,,,,,,,,,,,,,,,,,,,,,,,,,,,1.0547092374501614,0.009753758103398142,-1.375770150659785,,,,,
5,240613_150426,OFFLINERATING,9.0,6,3.0,,,,,,,,,,,,,,,,,T2,cue2.png,Hard,27.0,0.5517375999770593,,,,,,,,,,,,,,,,,,,,,,11,21,Female,0.7142857142857143,0.75,0.4,1.75,2.1666666666666665,1.0,2.0,3.2222222222222223,2.0,2.5555555555555554,2.25,1.5,3.0,1.25,,,,,,,,,,,,,,,,,,,,,,,,,,,,,-0.9412996420254128,,,,,10134767.367292974,1.406338144272676,
6,240613_152628,OFFLINERATING,9.0,7,1.0,,,,,,,,,,,,,,,,,T3,cue1.png,Easy,57.0,1.025101899984293,,,,,,,,,,,,,,,,,,,,,,11,21,Female,0.7142857142857143,0.75,0.4,1.75,2.1666666666666665,1.0,2.0,3.2222222222222223,2.0,2.5555555555555554,2.25,1.5,3.0,1.25,,,,,,,,,,,,,,,,,,,,,,,,,,,,,0.4196155030715696,,,,,,,
7,240613_152635,OFFLINERATING,9.0,8,3.0,,,,,,,,,,,,,,,,,T3,cue2.png,Hard,58.0,0.5680249000142794,,,,,,,,,,,,,,,,,,,,,,11,21,Female,0.7142857142857143,0.75,0.4,1.75,2.1666666666666665,1.0,2.0,3.2222222222222223,2.0,2.5555555555555554,2.25,1.5,3.0,1.25,,,,,,,,,,,,,,,,,,,,,,,,,,,,,0.46497934124146895,,,0.00679524516553358,-1.0000000000000007,,,
0,240613_150446,LEARNINGCHECK,9.0,1,,,,,,,,,,,,1.0,1.0,1.0,,,A,,,,,,,,,,,,,,,cue1.png,Easy,Left,Left,Easy,0.0151940999785438,1.0,,,,,,11,21,Female,0.7142857142857143,0.75,0.4,1.75,2.1666666666666665,1.0,2.0,3.2222222222222223,2.0,2.5555555555555554,2.25,1.5,3.0,1.25,,,,,,,,,,,,,,,,,,,,,,,,,,,,,,,,,,,,
1,240613_150452,LEARNINGCHECK,9.0,2,,,,,,,,,,,,2.0,2.0,2.0,,,A,,,,,,,,,,,,,,,cue2.png,Hard,Right,Right,Hard,0.0163563000096473,1.0,,,,,,11,21,Female,0.7142857142857143,0.75,0.4,1.75,2.1666666666666665,1.0,2.0,3.2222222222222223,2.0,2.5555555555555554,2.25,1.5,3.0,1.25,,,,,,,,,,,,,,,,,,,,,,,,,,,,,,,,,,,,
2,240613_152652,LEARNINGCHECK,9.0,1,,,,,,,,,,,,1.0,1.0,1.0,,,A,,,,,,,,,,,,,,,cue1.png,Easy,Middle,Middle,Mid,0.0138453999825287,1.0,,,,,,11,21,Female,0.7142857142857143,0.75,0.4,1.75,2.1666666666666665,1.0,2.0,3.2222222222222223,2.0,2.5555555555555554,2.25,1.5,3.0,1.25,,,,,,,,,,,,,,,,,,,,,,,,,,,,,,,,,,,,
3,240613_152656,LEARNINGCHECK,9.0,2,,,,,,,,,,,,2.0,2.0,2.0,,,A,,,,,,,,,,,,,,,cue2.png,Hard,Middle,Middle,Mid,0.0147601999924518,1.0,,,,,,11,21,Female,0.7142857142857143,0.75,0.4,1.75,2.1666666666666665,1.0,2.0,3.2222222222222223,2.0,2.5555555555555554,2.25,1.5,3.0,1.25,,,,,,,,,,,,,,,,,,,,,,,,,,,,,,,,,,,,
0,240613_152714,DEMANDRATING,9.0,-1,,,,,,,,,,,,,,,,,,,,,,,,,,,,,,,,,,,,,,,1.0,MentalDemand,1.0,20.0,5.61865069999476,11,21,Female,0.7142857142857143,0.75,0.4,1.75,2.1666666666666665,1.0,2.0,3.2222222222222223,2.0,2.5555555555555554,2.25,1.5,3.0,1.25,,,,,,,,,,,,,,,,,,,,,,,,,,,,,,,,,,,,-1.2374182604592578
1,240613_152720,DEMANDRATING,9.0,-1,,,,,,,,,,,,,,,,,,,,,,,,,,,,,,,,,,,,,,,2.0,Effort,1.0,15.0,4.306960399990203,11,21,Female,0.7142857142857143,0.75,0.4,1.75,2.1666666666666665,1.0,2.0,3.2222222222222223,2.0,2.5555555555555554,2.25,1.5,3.0,1.25,,,,,,,,,,,,,,,,,,,,,,,,,,,,,,,,,,,,-1.4036386238045313
2,240613_152726,DEMANDRATING,9.0,-1,,,,,,,,,,,,,,,,,,,,,,,,,,,,,,,,,,,,,,,3.0,Frustration,1.0,25.0,4.856724899989786,11,21,Female,0.7142857142857143,0.75,0.4,1.75,2.1666666666666665,1.0,2.0,3.2222222222222223,2.0,2.5555555555555554,2.25,1.5,3.0,1.25,,,,,,,,,,,,,,,,,,,,,,,,,,,,,,,,,,,,-1.0711978971139844
3,240613_152731,DEMANDRATING,9.0,-1,,,,,,,,,,,,,,,,,,,,,,,,,,,,,,,,,,,,,,,4.0,MentalDemand,2.0,50.0,3.0088287999969907,11,21,Female,0.7142857142857143,0.75,0.4,1.75,2.1666666666666665,1.0,2.0,3.2222222222222223,2.0,2.5555555555555554,2.25,1.5,3.0,1.25,,,,,,,,,,,,,,,,,,,,,,,,,,,,,,,,,,,,-0.24009608038761715
4,240613_152734,DEMANDRATING,9.0,-1,,,,,,,,,,,,,,,,,,,,,,,,,,,,,,,,,,,,,,,5.0,Effort,2.0,67.0,2.276538400008576,11,21,Female,0.7142857142857143,0.75,0.4,1.75,2.1666666666666665,1.0,2.0,3.2222222222222223,2.0,2.5555555555555554,2.25,1.5,3.0,1.25,,,,,,,,,,,,,,,,,,,,,,,,,,,,,,,,,,,,0.32505315498631254
5,240613_152738,DEMANDRATING,9.0,-1,,,,,,,,,,,,,,,,,,,,,,,,,,,,,,,,,,,,,,,6.0,Frustration,2.0,67.0,2.059651700023096,11,21,Female,0.7142857142857143,0.75,0.4,1.75,2.1666666666666665,1.0,2.0,3.2222222222222223,2.0,2.5555555555555554,2.25,1.5,3.0,1.25,,,,,,,,,,,,,,,,,,,,,,,,,,,,,,,,,,,,0.32505315498631254
6,240613_152742,DEMANDRATING,9.0,-1,,,,,,,,,,,,,,,,,,,,,,,,,,,,,,,,,,,,,,,7.0,MentalDemand,3.0,100.0,2.7054424000089057,11,21,Female,0.7142857142857143,0.75,0.4,1.75,2.1666666666666665,1.0,2.0,3.2222222222222223,2.0,2.5555555555555554,2.25,1.5,3.0,1.25,,,,,,,,,,,,,,,,,,,,,,,,,,,,,,,,,,,,1.4221075530651173
7,240613_152747,DEMANDRATING,9.0,-1,,,,,,,,,,,,,,,,,,,,,,,,,,,,,,,,,,,,,,,8.0,Effort,3.0,74.0,3.4942717000085395,11,21,Female,0.7142857142857143,0.75,0.4,1.75,2.1666666666666665,1.0,2.0,3.2222222222222223,2.0,2.5555555555555554,2.25,1.5,3.0,1.25,,,,,,,,,,,,,,,,,,,,,,,,,,,,,,,,,,,,0.5577616636696954
8,240613_152751,DEMANDRATING,9.0,-1,,,,,,,,,,,,,,,,,,,,,,,,,,,,,,,,,,,,,,,9.0,Frustration,3.0,97.0,1.9836696999846024,11,21,Female,0.7142857142857143,0.75,0.4,1.75,2.1666666666666665,1.0,2.0,3.2222222222222223,2.0,2.5555555555555554,2.25,1.5,3.0,1.25,,,,,,,,,,,,,,,,,,,,,,,,,,,,,,,,,,,,1.3223753350579532
