,END,Phase,Block,TrialN,NbackLevel,ISI,Letter_Resp,Letter_RT,Letter_Accuracy,Trial_A_measure,Trial_ACC,Trial_RT,TrialCountCali,CaliEnd_A_measure,ISI_calibrated,TrialIndex,TrialNumber_total,TrialNumber_valid,CueLearning,TrialDemandLearning,CueMapping,OfflineRatingTimePoint,CueFigure,TrialDemand,OfflineRating,OfflineRatingRT,PhaseType,CueLeft,CueDemandLeft,CueRight,CueDemandRight,Choice,ChoiceDemand,TaskDemand,ChoiceRT,CueCheck,CueDemandCheck,CorrectAnswer,Answer,AnswerDemand,AnswerRT,AnswerACC,DemandRatingQuesIndex,QuesTLX,DemandLevel,DemandRating,DemandRatingRT,PID,Age,Gender,BAI_bis,BAI_bas_d,BAI_bas_rr,BAI_bas_fs,NFC,BFI_ext,BFI_agr,BFI_con,BFI_neu,BFI_open,UPPS_lps,UPPS_lpm,UPPS_pu,UPPS_ss,Task_A_measure,Task_ACC,Task_RT,Task_RT_z,Task_RT_log,Task_RT_log_z,cue_i_on_zyg_values,cue_i_on_zyg_zvalues,cue_e_on_zyg_values,cue_e_on_zyg_zvalues,cue_i_on_cor_values,cue_i_on_cor_zvalues,cue_e_on_cor_values,cue_e_on_cor_zvalues,cue_i_on_scr_values,cue_i_on_scr_zvalues,cue_e_on_scr_values,cue_e_on_scr_zvalues,cue_e_true_zyg_values,cue_e_true_zyg_zvalues,cue_e_true_cor_values,cue_e_true_cor_zvalues,cue_e_true_scr_values,cue_e_true_scr_zvalues,cue_e_false_zyg_values,cue_e_false_zyg_zvalues,cue_e_false_cor_values,cue_e_false_cor_zvalues,cue_e_false_scr_values,cue_e_false_scr_zvalues,OfflineRating_z,cue_i_off_zyg_values,cue_i_off_zyg_zvalues,cue_i_off_cor_values,cue_i_off_cor_zvalues,cue_i_off_scr_values,cue_i_off_scr_zvalues,DemandRating_z
0,240614_092634,PRACTICE,0.0,1,1.0,788.0,,,,,,,,,,50.0,1.0,1.0,cue2.png,Easy,B,,,,,,,,,,,,,,,,,,,,,,,,,,,12,24,Female,1.2857142857142858,0.25,0.0,0.5,2.2777777777777777,2.625,2.5555555555555554,2.7777777777777777,1.75,2.888888888888889,2.25,2.0,2.5,0.25,,,,,,,,,,,,,,,,,,,,,,,,,,,,,,,,,,,,,,
0,240614_092912,LEARNING,1.0,1,1.0,788.0,,,,,,,,,,1.0,1.0,1.0,cue2.png,Easy,B,,,,,,,,,,,,,,,,,,,,,,,,,,,12,24,Female,1.2857142857142858,0.25,0.0,0.5,2.2777777777777777,2.625,2.5555555555555554,2.7777777777777777,1.75,2.888888888888889,2.25,2.0,2.5,0.25,0.8819444444444444,0.8888888888888888,0.5786193230753549,-0.6228635949698212,-0.5471104907389222,-0.5822103188204202,-0.003232378264036326,-3.4827119639926196,0.00278698294133948,1.1701284298496701,-0.0007445083495857098,-1.2894957385369288,0.0015653027059435278,1.5212434130402788,1.3599999999999999,-0.09983467541074624,,,,,,,,,,,,,,,,,,,,,,
1,240614_092936,LEARNING,1.0,2,3.0,788.0,,,,,,,,,,2.0,2.0,2.0,cue1.png,Hard,B,,,,,,,,,,,,,,,,,,,,,,,,,,,12,24,Female,1.2857142857142858,0.25,0.0,0.5,2.2777777777777777,2.625,2.5555555555555554,2.7777777777777777,1.75,2.888888888888889,2.25,2.0,2.5,0.25,0.7083333333333333,0.7777777777777778,0.4590102307713375,-2.1627988596300063,-0.7786827799078205,-2.4398449506194857,-5.078357130029222e-05,-0.32042031877029625,0.0002547114487863205,-0.210706006205547,0.0003321441897404442,0.5344187844340447,,,1.46,0.07666861813311446,1.1300000000000001,-0.7671960120711957,,,,,,,,,,,,,,,,,,,,
2,240614_093002,LEARNING,1.0,3,1.0,788.0,,,,,,,,,,3.0,3.0,3.0,cue2.png,Easy,B,,,,,,,,,,,,,,,,,,,,,,,,,,,12,24,Female,1.2857142857142858,0.25,0.0,0.5,2.2777777777777777,2.625,2.5555555555555554,2.7777777777777777,1.75,2.888888888888889,2.25,2.0,2.5,0.25,1.0,1.0,0.671348246150256,0.5709966371105921,-0.3984672808891813,0.6101809443555534,0.0001856198237255688,-0.08545120636283574,0.0002004366760865314,-0.24030175665068418,-0.00011339560813861203,-0.22035258165752875,0.0010616539053785543,0.8566468025154333,1.1669999999999998,-0.4404860319503972,1.598,0.14867336628253425,,,,,,,,,,,,,,,,,,,,
3,240614_093027,LEARNING,1.0,4,3.0,788.0,,,,,,,,,,4.0,4.0,4.0,cue1.png,Hard,B,,,,,,,,,,,,,,,,,,,,,,,,,,,12,24,Female,1.2857142857142858,0.25,0.0,0.5,2.2777777777777777,2.625,2.5555555555555554,2.7777777777777777,1.75,2.888888888888889,2.25,2.0,2.5,0.25,0.7083333333333333,0.7777777777777778,0.5494086153876896,-0.9989436906165745,-0.5989128239956278,-0.9977600748426845,5.660537010437764e-05,-0.21368291662143232,0.0005001463061848725,-0.07687165870336754,2.0448050306203815e-05,0.006386671284607548,0.0005756258361110751,0.215301867130382,1.587,0.30082780093381734,1.591,0.13497446532425172,,,,,,,,,,,,,,,,,,,,
4,240614_093053,LEARNING,1.0,5,3.0,788.0,,,,,,,,,,5.0,5.0,5.0,cue1.png,Hard,B,,,,,,,,,,,,,,,,,,,,,,,,,,,12,24,Female,1.2857142857142858,0.25,0.0,0.5,2.2777777777777777,2.625,2.5555555555555554,2.7777777777777777,1.75,2.888888888888889,2.25,2.0,2.5,0.25,1.0,1.0,0.62788684615337,0.011442666609815097,-0.46539531003297885,0.0732953557482898,8.026560339475294e-06,-0.26196699397582607,0.00017874066816132806,-0.25213247660158566,-4.066251989187815e-05,-0.0971383309051228,0.00021174030237132348,-0.2648682277277411,,,,,,,,,,,,,,,,,,,,,,,,
5,240614_093119,LEARNING,1.0,6,1.0,788.0,,,,,,,,,,6.0,6.0,6.0,cue2.png,Easy,B,,,,,,,,,,,,,,,,,,,,,,,,,,,12,24,Female,1.2857142857142858,0.25,0.0,0.5,2.2777777777777777,2.625,2.5555555555555554,2.7777777777777777,1.75,2.888888888888889,2.25,2.0,2.5,0.25,1.0,1.0,0.6756082076910668,0.6258425094136486,-0.39214194537884933,0.6609217404322855,-0.0007031308310889105,-0.9688097236568153,0.0001494670653230299,-0.2680952195323487,0.0007178596907418833,1.1878441731410252,8.031072496677422e-05,-0.4382979104109781,,,,,,,,,,,,,,,,,,,,,,,,
6,240614_093144,LEARNING,1.0,7,3.0,788.0,,,,,,,,,,7.0,7.0,7.0,cue1.png,Hard,B,,,,,,,,,,,,,,,,,,,,,,,,,,,12,24,Female,1.2857142857142858,0.25,0.0,0.5,2.2777777777777777,2.625,2.5555555555555554,2.7777777777777777,1.75,2.888888888888889,2.25,2.0,2.5,0.25,0.8819444444444444,0.8888888888888888,0.5536172307687454,-0.9447588864696964,-0.5912817502195054,-0.9365448621969277,0.0005110728609186315,0.23802727528587617,-0.00019679026996248863,-0.4569075383161033,0.0015297610598000574,2.563254200197697,-0.0020373050812022885,-3.232626588638894,1.444,0.04842809116609674,,,,,,,,,,,,,,,,,,,,,,
7,240614_093210,LEARNING,1.0,8,3.0,788.0,,,,,,,,,,8.0,8.0,8.0,cue1.png,Hard,B,,,,,,,,,,,,,,,,,,,,,,,,,,,12,24,Female,1.2857142857142858,0.25,0.0,0.5,2.2777777777777777,2.625,2.5555555555555554,2.7777777777777777,1.75,2.888888888888889,2.25,2.0,2.5,0.25,0.8819444444444444,0.8888888888888888,0.6207484461505933,-0.0804623356418985,-0.4768293577776733,-0.018426685556474233,-8.883682205136157e-05,-0.3582426967112694,5.93324667817665e-05,-0.3172451459568259,-0.0007379676619400262,-1.2784154180515048,0.00039362706653795626,-0.02485707942583681,,,,,,,,,,,,,,,,,,,,,,,,
8,240614_093235,LEARNING,1.0,9,1.0,788.0,,,,,,,,,,9.0,9.0,9.0,cue2.png,Easy,B,,,,,,,,,,,,,,,,,,,,,,,,,,,12,24,Female,1.2857142857142858,0.25,0.0,0.5,2.2777777777777777,2.625,2.5555555555555554,2.7777777777777777,1.75,2.888888888888889,2.25,2.0,2.5,0.25,1.0,1.0,0.5065425615377115,-1.550832737752054,-0.6801469281471517,-1.6494066327992842,0.0005998945023843768,0.32631002712832236,0.0018284342836877255,0.6474368468134726,0.0002429492714692968,0.38331719792613195,0.0010733024969211613,0.8720178595852025,,,,,,,,,,,,,,,,,,,,,,,,
9,240614_093301,LEARNING,1.0,10,1.0,788.0,,,,,,,,,,10.0,10.0,10.0,cue2.png,Easy,B,,,,,,,,,,,,,,,,,,,,,,,,,,,12,24,Female,1.2857142857142858,0.25,0.0,0.5,2.2777777777777777,2.625,2.5555555555555554,2.7777777777777777,1.75,2.888888888888889,2.25,2.0,2.5,0.25,1.0,1.0,0.6810971769199778,0.6965115289623478,-0.384050285626764,0.7258316976562482,0.0001930162027432617,-0.07809970190315424,8.139746200156329e-05,-0.3052132191588941,-3.9343713096276316e-05,-0.09490419242531534,0.0006767447481626368,0.3487346999576256,,,,,,,,,,,,,,,,,,,,,,,,
10,240614_093327,LEARNING,1.0,11,3.0,788.0,,,,,,,,,,11.0,11.0,11.0,cue1.png,Hard,B,,,,,,,,,,,,,,,,,,,,,,,,,,,12,24,Female,1.2857142857142858,0.25,0.0,0.5,2.2777777777777777,2.625,2.5555555555555554,2.7777777777777777,1.75,2.888888888888889,2.25,2.0,2.5,0.25,0.8819444444444444,0.8888888888888888,0.6163194923093005,-0.13748393888610216,-0.48398979355806415,-0.07586651798273521,0.0002275318561995106,-0.04379345830673252,0.005218792957885718,2.4961817470654424,-0.0002958569332420233,-0.5294531025599605,0.0008648595251958984,0.596964107166974,0.16199999999999992,-2.2143441320661954,,,,,,,,,,,,,,,,,,,,,,
11,240614_093353,LEARNING,1.0,12,1.0,788.0,,,,,,,,,,12.0,12.0,12.0,cue2.png,Easy,B,,,,,,,,,,,,,,,,,,,,,,,,,,,12,24,Female,1.2857142857142858,0.25,0.0,0.5,2.2777777777777777,2.625,2.5555555555555554,2.7777777777777777,1.75,2.888888888888889,2.25,2.0,2.5,0.25,1.0,1.0,0.6624740384599695,0.45674357235648616,-0.41177390911983397,0.5034373718734994,,,,,,,-0.0008534306311751691,-1.670428990049581,,,0.688,-1.6321837582941634,,,,,,,,,,,,,,,,,,,,
12,240614_093420,LEARNING,1.0,13,1.0,788.0,,,,,,,,,,13.0,13.0,13.0,cue2.png,Easy,B,,,,,,,,,,,,,,,,,,,,,,,,,,,12,24,Female,1.2857142857142858,0.25,0.0,0.5,2.2777777777777777,2.625,2.5555555555555554,2.7777777777777777,1.75,2.888888888888889,2.25,2.0,2.5,0.25,0.8819444444444444,0.8888888888888888,0.6453270153858914,0.23598020891084706,-0.43799809006946167,0.29307132636162364,,,,,,,-0.00030936963444795715,-0.9525059175870504,1.0390000000000001,-0.6664102476865381,0.651,-1.704592234787941,,,,,,,,,,,,,,,,,,,,
13,240614_093446,LEARNING,1.0,14,1.0,788.0,,,,,,,,,,14.0,14.0,14.0,cue2.png,Easy,B,,,,,,,,,,,,,,,,,,,,,,,,,,,12,24,Female,1.2857142857142858,0.25,0.0,0.5,2.2777777777777777,2.625,2.5555555555555554,2.7777777777777777,1.75,2.888888888888889,2.25,2.0,2.5,0.25,1.0,1.0,0.6250688153825019,-0.02483873037568397,-0.4698935306948004,0.0372113730193404,0.0015413275449006401,1.2620313029031591,0.0022524317918618322,0.878640476365101,-0.0006332794670245098,-1.1010672837968531,0.0005770076498722567,0.2171252582335232,,,,,,,,,,,,,,,,,,,,,,,,
14,240614_093512,LEARNING,1.0,15,3.0,788.0,,,,,,,,,,15.0,15.0,15.0,cue1.png,Hard,B,,,,,,,,,,,,,,,,,,,,,,,,,,,12,24,Female,1.2857142857142858,0.25,0.0,0.5,2.2777777777777777,2.625,2.5555555555555554,2.7777777777777777,1.75,2.888888888888889,2.25,2.0,2.5,0.25,0.8819444444444444,0.8888888888888888,0.6325792307638599,0.07185587097287076,-0.4579498001957777,0.13302200514414114,,,-0.0040401911808679485,-2.552694007085837,,,0.0009050923636092427,0.650053895152785,,,,,,,,,,,,,,,,,,,,,,,,
15,240614_093538,LEARNING,1.0,16,1.0,788.0,,,,,,,,,,16.0,16.0,16.0,cue2.png,Easy,B,,,,,,,,,,,,,,,,,,,,,,,,,,,12,24,Female,1.2857142857142858,0.25,0.0,0.5,2.2777777777777777,2.625,2.5555555555555554,2.7777777777777777,1.75,2.888888888888889,2.25,2.0,2.5,0.25,1.0,1.0,0.6973674153828492,0.9059865236368502,-0.3604428688277672,0.9152064936239402,,,0.0009551646440053999,0.17124746744360908,0.0005035251470450093,0.8247484920889415,0.0011060258357743508,0.9151983855042355,,,0.9650000000000001,-1.0900986775164212,,,,,,,,,,,,,,,,,,,,
16,240614_093605,LEARNING,1.0,17,1.0,788.0,,,,,,,,,,17.0,17.0,17.0,cue2.png,Easy,B,,,,,,,,,,,,,,,,,,,,,,,,,,,12,24,Female,1.2857142857142858,0.25,0.0,0.5,2.2777777777777777,2.625,2.5555555555555554,2.7777777777777777,1.75,2.888888888888889,2.25,2.0,2.5,0.25,1.0,1.0,0.6658277461515704,0.4999216672836787,-0.4067242813067454,0.5439446516389441,0.0011925899877730803,0.9154095707895201,0.0036332351393524656,1.6315853392056159,7.425374313244602e-06,-0.01567452952430858,,,,,,,,,,,,,,,,,,,,,,,,,,
17,240614_093631,LEARNING,1.0,18,3.0,788.0,,,,,,,,,,18.0,18.0,18.0,cue1.png,Hard,B,,,,,,,,,,,,,,,,,,,,,,,,,,,12,24,Female,1.2857142857142858,0.25,0.0,0.5,2.2777777777777777,2.625,2.5555555555555554,2.7777777777777777,1.75,2.888888888888889,2.25,2.0,2.5,0.25,0.8819444444444444,0.8888888888888888,0.618486999997493,-0.10957785364480802,-0.48047910596791266,-0.04770436234529587,-0.00011229385219287211,-0.38155741074683913,,,0.0004722517613311994,0.7717694851183263,0.00013557492176574258,-0.36537328945532027,,,,,,,,,,,,,,,,,,,,,,,,
18,240614_093657,LEARNING,1.0,19,3.0,788.0,,,,,,,,,,19.0,19.0,19.0,cue1.png,Hard,B,,,,,,,,,,,,,,,,,,,,,,,,,,,12,24,Female,1.2857142857142858,0.25,0.0,0.5,2.2777777777777777,2.625,2.5555555555555554,2.7777777777777777,1.75,2.888888888888889,2.25,2.0,2.5,0.25,0.8819444444444444,0.8888888888888888,0.6442631461541168,0.2222831753874047,-0.439648024296395,0.2798358266775206,0.0001093280385575596,-0.16128012177645223,0.0031757679043455927,1.382130842196862,,,0.0008976419469815095,0.640222596771383,,,,,,,,,,,,,,,,,,,,,,,,
19,240614_093726,LEARNING,1.0,20,3.0,788.0,,,,,,,,,,20.0,20.0,20.0,cue1.png,Hard,B,,,,,,,,,,,,,,,,,,,,,,,,,,,12,24,Female,1.2857142857142858,0.25,0.0,0.5,2.2777777777777777,2.625,2.5555555555555554,2.7777777777777777,1.75,2.888888888888889,2.25,2.0,2.5,0.25,1.0,0.9230769230769232,0.8056546749988532,2.3001562024121522,-0.21610007121286703,2.073100560580439,,,1.78062328692369e-05,-0.3398891847001958,,,,,,,2.374,1.6672943868006849,,,,,,,,,,,,,,,,,,,,
20,240614_093752,LEARNING,1.0,21,1.0,788.0,,,,,,,,,,21.0,21.0,21.0,cue2.png,Easy,B,,,,,,,,,,,,,,,,,,,,,,,,,,,12,24,Female,1.2857142857142858,0.25,0.0,0.5,2.2777777777777777,2.625,2.5555555555555554,2.7777777777777777,1.75,2.888888888888889,2.25,2.0,2.5,0.25,0.8819444444444444,0.8888888888888888,0.6698534615413967,0.5517516826684753,-0.40069630463586425,0.5923000842500479,0.00013991382836218806,-0.13087989896286478,-0.00012759321535650743,-0.4191747453851233,-0.00010781818515008881,-0.21090408976441857,0.0004005275876765137,-0.015751403100596167,0.9870000000000001,-0.7581919603293457,0.536,-1.9296456076740072,,,,,,,,,,,,,,,,,,,,
21,240614_093819,LEARNING,1.0,22,3.0,788.0,,,,,,,,,,22.0,22.0,22.0,cue1.png,Hard,B,,,,,,,,,,,,,,,,,,,,,,,,,,,12,24,Female,1.2857142857142858,0.25,0.0,0.5,2.2777777777777777,2.625,2.5555555555555554,2.7777777777777777,1.75,2.888888888888889,2.25,2.0,2.5,0.25,0.8819444444444444,0.8888888888888888,0.6979574615408917,0.913583211054537,-0.3595971214280441,0.9219909394879864,0.0007808914085617349,0.506208807297439,0.003932068891857971,1.7945378256703115,-0.00026996666780442977,-0.48559342693540386,,,1.2719999999999998,-0.25515757372934367,1.6309999999999998,0.2132538993715787,,,,,,,,,,,,,,,,,,,,
22,240614_093844,LEARNING,1.0,23,3.0,788.0,,,,,,,,,,23.0,23.0,23.0,cue1.png,Hard,B,,,,,,,,,,,,,,,,,,,,,,,,,,,12,24,Female,1.2857142857142858,0.25,0.0,0.5,2.2777777777777777,2.625,2.5555555555555554,2.7777777777777777,1.75,2.888888888888889,2.25,2.0,2.5,0.25,0.8819444444444444,0.8888888888888888,0.526164999995112,-1.2981990593493267,-0.6421404272306501,-1.3445247637752136,,,0.00019330463850259546,-0.24419081954307154,,,0.0006893117469943658,0.3653176538307767,,,2.362,1.6438105565864867,,,,,,,,,,,,,,,,,,,,
23,240614_093910,LEARNING,1.0,24,3.0,788.0,,,,,,,,,,24.0,24.0,24.0,cue1.png,Hard,B,,,,,,,,,,,,,,,,,,,,,,,,,,,12,24,Female,1.2857142857142858,0.25,0.0,0.5,2.2777777777777777,2.625,2.5555555555555554,2.7777777777777777,1.75,2.888888888888889,2.25,2.0,2.5,0.25,1.0,1.0,0.6807268230790774,0.691743321721419,-0.384594194164183,0.721468553260747,5.081114746148703e-05,-0.21944198514640964,0.0009073318878262213,0.14516451500431563,1.1842253121273696e-05,-0.00819206966849566,0.001225253406822612,1.0725267450891254,1.077,-0.5993389961398714,2.15,1.2289295561356515,,,,,,,,,,,,,,,,,,,,
24,240614_093936,LEARNING,1.0,25,1.0,788.0,,,,,,,,,,25.0,25.0,25.0,cue2.png,Easy,B,,,,,,,,,,,,,,,,,,,,,,,,,,,12,24,Female,1.2857142857142858,0.25,0.0,0.5,2.2777777777777777,2.625,2.5555555555555554,2.7777777777777777,1.75,2.888888888888889,2.25,2.0,2.5,0.25,1.0,1.0,0.5809822692311942,-0.5924412914159971,-0.5430350402702641,-0.5495177287098681,0.0011789467248712743,0.901849082903852,0.00040173296411220166,-0.13053594079194097,0.0005776314059208823,0.9502889769433648,-0.0003773220847293505,-1.0421734956359057,0.712,-1.2435760175749624,1.9420000000000002,0.8218764990895496,,,,,,,,,,,,,,,,,,,,
25,240614_094002,LEARNING,1.0,26,1.0,788.0,,,,,,,,,,26.0,26.0,26.0,cue2.png,Easy,B,,,,,,,,,,,,,,,,,,,,,,,,,,,12,24,Female,1.2857142857142858,0.25,0.0,0.5,2.2777777777777777,2.625,2.5555555555555554,2.7777777777777777,1.75,2.888888888888889,2.25,2.0,2.5,0.25,1.0,1.0,0.6896492076966052,0.8066166516056484,-0.37157220530980695,0.8259287957086127,,,,,-0.0008465903672561256,-1.462428850903692,,,1.9,0.8532831097261007,0.938,-1.1429372954983674,,,,,,,,,,,,,,,,,,,,
26,240614_094028,LEARNING,1.0,27,3.0,788.0,,,,,,,,,,27.0,27.0,27.0,cue1.png,Hard,B,,,,,,,,,,,,,,,,,,,,,,,,,,,12,24,Female,1.2857142857142858,0.25,0.0,0.5,2.2777777777777777,2.625,2.5555555555555554,2.7777777777777777,1.75,2.888888888888889,2.25,2.0,2.5,0.25,0.8819444444444444,0.8888888888888888,0.5791674923071136,-0.6158060618448201,-0.5461635646460763,-0.574614234201929,1.1483388330266013e-06,-0.2688034846367802,,,,,,,2.184,1.3545524633906652,1.8039999999999998,0.5518124516262696,,,,,,,,,,,,,,,,,,,,
27,240614_094056,LEARNING,1.0,28,1.0,788.0,,,,,,,,,,28.0,28.0,28.0,cue2.png,Easy,B,,,,,,,,,,,,,,,,,,,,,,,,,,,12,24,Female,1.2857142857142858,0.25,0.0,0.5,2.2777777777777777,2.625,2.5555555555555554,2.7777777777777777,1.75,2.888888888888889,2.25,2.0,2.5,0.25,0.7083333333333333,0.6239316239316239,0.7680133363623596,1.8155339746301795,-0.26394818093008,1.6892709322781168,,,0.003785211140276443,1.714457059772277,,,0.0011315767451488923,0.9489144347574038,2.057,1.130393280589962,1.137,-0.7534971111129136,,,,,,,,,,,,,,,,,,,,
28,240614_094121,LEARNING,1.0,29,1.0,788.0,,,,,,,,,,29.0,29.0,29.0,cue2.png,Easy,B,,,,,,,,,,,,,,,,,,,,,,,,,,,12,24,Female,1.2857142857142858,0.25,0.0,0.5,2.2777777777777777,2.625,2.5555555555555554,2.7777777777777777,1.75,2.888888888888889,2.25,2.0,2.5,0.25,1.0,1.0,0.5603195769251145,-0.8584679615630973,-0.5792479849443396,-0.8400119859779398,-0.0007020491123092545,-0.9677345677712474,,,0.0006764345771427347,1.1176675251051622,-0.0007525193879069016,-1.5372701893839038,1.6099999999999999,0.3414235584489051,1.392,-0.25446571906120197,,,,,,,,,,,,,,,,,,,,
29,240614_094146,LEARNING,1.0,30,3.0,788.0,,,,,,,,,,30.0,30.0,30.0,cue1.png,Hard,B,,,,,,,,,,,,,,,,,,,,,,,,,,,12,24,Female,1.2857142857142858,0.25,0.0,0.5,2.2777777777777777,2.625,2.5555555555555554,2.7777777777777777,1.75,2.888888888888889,2.25,2.0,2.5,0.25,0.8819444444444444,0.8888888888888888,0.5223187230831872,-1.3477188520358765,-0.6494772968088702,-1.4033799189684764,0.0002224453270926051,-0.04884912694192091,,,0.0002834033322208799,0.4518488237040661,0.0016090983996924924,1.579034615140821,0.7069999999999999,-1.2524011822521557,2.0340000000000003,1.0019191973984027,,,,,,,,,,,,,,,,,,,,
30,240614_094214,LEARNING,1.0,31,3.0,788.0,,,,,,,,,,31.0,31.0,31.0,cue1.png,Hard,B,,,,,,,,,,,,,,,,,,,,,,,,,,,12,24,Female,1.2857142857142858,0.25,0.0,0.5,2.2777777777777777,2.625,2.5555555555555554,2.7777777777777777,1.75,2.888888888888889,2.25,2.0,2.5,0.25,1.0,1.0,0.8124467000016011,2.3876017186242495,-0.20770496692804785,2.1404446996957653,-3.5125240396122713e-06,-0.2734360695965565,-5.6264849852822544e-05,-0.3802797597389689,-2.499827077459202e-05,-0.0706021454479885,-7.127286598865301e-06,-0.5536779253189251,2.5370000000000004,1.9776090896004932,1.3799999999999997,-0.27794954927540066,,,,,,,,,,,,,,,,,,,,
31,240614_094240,LEARNING,1.0,32,1.0,788.0,,,,,,,,,,32.0,32.0,32.0,cue2.png,Easy,B,,,,,,,,,,,,,,,,,,,,,,,,,,,12,24,Female,1.2857142857142858,0.25,0.0,0.5,2.2777777777777777,2.625,2.5555555555555554,2.7777777777777777,1.75,2.888888888888889,2.25,2.0,2.5,0.25,1.0,1.0,0.6267339538518661,-0.003400515269104425,-0.46723314442246633,0.05855255201440608,0.0005204616779161042,0.2473591294084064,-0.0011735729734928787,-0.9895420514574945,0.0007394495001521451,1.2244186161421045,0.0013069381005083097,1.1803148913020767,1.0019999999999998,-0.7317164662977671,1.6709999999999998,0.29153333341890614,,,,,,,,,,,,,,,,,,,,
32,240614_094307,LEARNING,1.0,33,1.0,788.0,,,,,,,,,,33.0,33.0,33.0,cue2.png,Easy,B,,,,,,,,,,,,,,,,,,,,,,,,,,,12,24,Female,1.2857142857142858,0.25,0.0,0.5,2.2777777777777777,2.625,2.5555555555555554,2.7777777777777777,1.75,2.888888888888889,2.25,2.0,2.5,0.25,1.0,0.9230769230769232,0.6023784833353906,-0.3169707231290667,-0.506869321369108,-0.259402308787161,,,-4.979275152227616e-05,-0.3767505582790799,-0.000965815722440404,-1.6644038139340844,-0.00011581185887918344,-0.6970941277854368,2.139,1.2751259812959272,1.6780000000000002,0.3052322343771891,,,,,,,,,,,,,,,,,,,,
33,240614_094334,LEARNING,1.0,34,1.0,788.0,,,,,,,,,,34.0,34.0,34.0,cue2.png,Easy,B,,,,,,,,,,,,,,,,,,,,,,,,,,,12,24,Female,1.2857142857142858,0.25,0.0,0.5,2.2777777777777777,2.625,2.5555555555555554,2.7777777777777777,1.75,2.888888888888889,2.25,2.0,2.5,0.25,1.0,1.0,0.7559200230753049,1.6598357811351225,-0.27981969798164663,1.5619522455734407,,,0.0010483548719102593,0.22206361262128196,,,,,1.904,0.8603432414678551,2.604,2.1174011325728173,,,,,,,,,,,,,,,,,,,,
34,240614_094358,LEARNING,1.0,35,3.0,788.0,,,,,,,,,,35.0,35.0,35.0,cue1.png,Hard,B,,,,,,,,,,,,,,,,,,,,,,,,,,,12,24,Female,1.2857142857142858,0.25,0.0,0.5,2.2777777777777777,2.625,2.5555555555555554,2.7777777777777777,1.75,2.888888888888889,2.25,2.0,2.5,0.25,0.8819444444444444,0.8888888888888888,0.4917556153870044,-1.7412107382490964,-0.7097734025875124,-1.8870653143973388,0.0006608922262439352,0.3869376718057091,,,0.00011400657176278712,0.16488046552128313,,,2.238,1.4498642419043495,,,,,,,,,,,,,,,,,,,,,,
35,240614_094423,LEARNING,1.0,36,3.0,788.0,,,,,,,,,,36.0,36.0,36.0,cue1.png,Hard,B,,,,,,,,,,,,,,,,,,,,,,,,,,,12,24,Female,1.2857142857142858,0.25,0.0,0.5,2.2777777777777777,2.625,2.5555555555555554,2.7777777777777777,1.75,2.888888888888889,2.25,2.0,2.5,0.25,0.7083333333333333,0.7777777777777778,0.507324123078993,-1.5407703406906132,-0.678605183639806,-1.6370390131652162,0.00011447354079505536,-0.15616583780644952,-0.0001361804242642488,-0.42385730560991736,-0.0001662499720899999,-0.3098910710885433,0.0010110476212950165,0.7898685935026276,0.6960000000000002,-1.2718165445419796,1.1200000000000003,-0.7867658705830272,,,,,,,,,,,,,,,,,,,,
36,240614_094448,LEARNING,1.0,37,1.0,788.0,,,,,,,,,,37.0,37.0,37.0,cue2.png,Easy,B,,,,,,,,,,,,,,,,,,,,,,,,,,,12,24,Female,1.2857142857142858,0.25,0.0,0.5,2.2777777777777777,2.625,2.5555555555555554,2.7777777777777777,1.75,2.888888888888889,2.25,2.0,2.5,0.25,1.0,1.0,0.6059335307733048,-0.27120043249539977,-0.5009849841212496,-0.21219912788828213,-7.95575189142415e-06,-0.2778523399485543,,,0.0010019571522155608,1.6691224565186267,0.00035452835751709905,-0.07645031157889684,,,2.098,1.1271662918741256,,,,,,,,,,,,,,,,,,,,
37,240614_094516,LEARNING,1.0,38,3.0,788.0,,,,,,,,,,38.0,38.0,38.0,cue1.png,Hard,B,,,,,,,,,,,,,,,,,,,,,,,,,,,12,24,Female,1.2857142857142858,0.25,0.0,0.5,2.2777777777777777,2.625,2.5555555555555554,2.7777777777777777,1.75,2.888888888888889,2.25,2.0,2.5,0.25,1.0,0.9230769230769232,0.7251339166687103,1.2634728458108189,-0.32139892853824575,1.2284105298409431,3.537917533749961e-05,-0.23478032997971177,0.003275119281627453,1.4363066299920275,-8.187470995677047e-05,-0.16695427359527087,,,1.6489999999999998,0.4102598429310106,1.6480000000000001,0.24652265884169353,,,,,,,,,,,,,,,,,,,,
38,240614_094542,LEARNING,1.0,39,3.0,788.0,,,,,,,,,,39.0,39.0,39.0,cue1.png,Hard,B,,,,,,,,,,,,,,,,,,,,,,,,,,,12,24,Female,1.2857142857142858,0.25,0.0,0.5,2.2777777777777777,2.625,2.5555555555555554,2.7777777777777777,1.75,2.888888888888889,2.25,2.0,2.5,0.25,0.8819444444444444,0.8888888888888888,0.63014436154089,0.04050757705089515,-0.46180634054333364,0.10208547584583116,-3.643123148593238e-05,-0.306155056011352,1.0549390989510622e-05,-0.34384630272407346,0.00032856404878602334,0.5283538091123515,0.0006280853789932496,0.28452556894415854,0.7430000000000001,-1.1888599965763653,2.0090000000000003,0.9529945511188234,,,,,,,,,,,,,,,,,,,,
39,240614_094607,LEARNING,1.0,40,3.0,788.0,,,,,,,,,,40.0,40.0,40.0,cue1.png,Hard,B,,,,,,,,,,,,,,,,,,,,,,,,,,,12,24,Female,1.2857142857142858,0.25,0.0,0.5,2.2777777777777777,2.625,2.5555555555555554,2.7777777777777777,1.75,2.888888888888889,2.25,2.0,2.5,0.25,0.8819444444444444,0.8888888888888888,0.5813334461552306,-0.5879199818814008,-0.542430769106976,-0.5446703653057661,,,0.00108871259480254,0.24407046840049706,-0.0014839537628323091,-2.5421609939487153,0.0015734470055847917,1.5319903341698655,1.468,0.09078888161662331,1.592,0.13693145117543512,,,,,,,,,,,,,,,,,,,,
40,240614_094632,LEARNING,1.0,41,1.0,788.0,,,,,,,,,,41.0,41.0,41.0,cue2.png,Easy,B,,,,,,,,,,,,,,,,,,,,,,,,,,,12,24,Female,1.2857142857142858,0.25,0.0,0.5,2.2777777777777777,2.625,2.5555555555555554,2.7777777777777777,1.75,2.888888888888889,2.25,2.0,2.5,0.25,1.0,1.0,0.5624153538463781,-0.8314853908759825,-0.5755146382780051,-0.8100636960301889,-0.0005038826271691215,-0.7707703781614089,3.1319610784152994e-05,-0.33252041021167106,-0.000362355223568896,-0.6421052285242326,0.0003900562013428098,-0.02956906305941907,2.431,1.7905155984440004,0.928,-1.162507154010199,,,,,,,,,,,,,,,,,,,,
41,240614_094659,LEARNING,1.0,42,3.0,788.0,,,,,,,,,,42.0,42.0,42.0,cue1.png,Hard,B,,,,,,,,,,,,,,,,,,,,,,,,,,,12,24,Female,1.2857142857142858,0.25,0.0,0.5,2.2777777777777777,2.625,2.5555555555555554,2.7777777777777777,1.75,2.888888888888889,2.25,2.0,2.5,0.25,1.0,1.0,0.71177915384984,1.091533824957132,-0.33998759286224256,1.0792953367793117,-0.00018236862579762208,-0.4512070338170181,0.00021050929345412797,-0.23480921094091833,-0.0007595432011917314,-1.3149656865408585,-0.00014682590683438856,-0.7380191357007992,,,,,,,,,,,,,,,,,,,,,,,,
42,240614_094726,LEARNING,1.0,43,3.0,788.0,,,,,,,,,,43.0,43.0,43.0,cue1.png,Hard,B,,,,,,,,,,,,,,,,,,,,,,,,,,,12,24,Female,1.2857142857142858,0.25,0.0,0.5,2.2777777777777777,2.625,2.5555555555555554,2.7777777777777777,1.75,2.888888888888889,2.25,2.0,2.5,0.25,0.7083333333333333,0.7777777777777778,0.6738978307694197,0.6038218612608255,-0.39467676595572865,0.640587828693936,0.0007610778769861081,0.4865154863640702,0.0005055438740699174,-0.07392839309044504,,,0.0006895526885598987,0.3656355915437387,0.9709999999999999,-0.7864324872963637,1.6110000000000002,0.17411418234791587,,,,,,,,,,,,,,,,,,,,
43,240614_094750,LEARNING,1.0,44,1.0,788.0,,,,,,,,,,44.0,44.0,44.0,cue2.png,Easy,B,,,,,,,,,,,,,,,,,,,,,,,,,,,12,24,Female,1.2857142857142858,0.25,0.0,0.5,2.2777777777777777,2.625,2.5555555555555554,2.7777777777777777,1.75,2.888888888888889,2.25,2.0,2.5,0.25,1.0,1.0,0.5165587076894903,-1.421877518897036,-0.6605663324296956,-1.4923343300356593,0.0009212493090444934,0.645715142611281,-0.0004628787657988448,-0.6020042071249129,5.050791199222478e-05,0.05730989515212081,0.0003757595449431408,-0.048434410052005855,0.7380000000000002,-1.1976851612535582,1.349,-0.33861611066207875,,,,,,,,,,,,,,,,,,,,
44,240614_094815,LEARNING,1.0,45,1.0,788.0,,,,,,,,,,45.0,45.0,45.0,cue2.png,Easy,B,,,,,,,,,,,,,,,,,,,,,,,,,,,12,24,Female,1.2857142857142858,0.25,0.0,0.5,2.2777777777777777,2.625,2.5555555555555554,2.7777777777777777,1.75,2.888888888888889,2.25,2.0,2.5,0.25,0.8819444444444444,0.8888888888888888,0.565593169229732,-0.790571862655503,-0.5698802415064148,-0.764865496324312,2.865485748391799e-05,-0.24146385073637802,2.6620918730446957e-05,-0.3350825824792405,,,-0.0008419614526736746,-1.6552946798932833,1.8359999999999999,0.7403210018580298,1.981,0.8981989472856937,,,,,,,,,,,,,,,,,,,,
45,240614_094842,LEARNING,1.0,46,1.0,788.0,,,,,,,,,,46.0,46.0,46.0,cue2.png,Easy,B,,,,,,,,,,,,,,,,,,,,,,,,,,,12,24,Female,1.2857142857142858,0.25,0.0,0.5,2.2777777777777777,2.625,2.5555555555555554,2.7777777777777777,1.75,2.888888888888889,2.25,2.0,2.5,0.25,1.0,0.9230769230769232,0.604073599994687,-0.29514654679698127,-0.5040592341751143,-0.2368602537395884,-0.00015070186156830286,-0.41973239495675346,-0.0003195654331915091,-0.5238561944051079,0.0003705432285300279,0.5994690787103033,-0.00017361517719588927,-0.7733692810018804,1.274,-0.25162750785846605,1.091,-0.8435184602673402,,,,,,,,,,,,,,,,,,,,
46,240614_094907,LEARNING,1.0,47,3.0,788.0,,,,,,,,,,47.0,47.0,47.0,cue1.png,Hard,B,,,,,,,,,,,,,,,,,,,,,,,,,,,12,24,Female,1.2857142857142858,0.25,0.0,0.5,2.2777777777777777,2.625,2.5555555555555554,2.7777777777777777,1.75,2.888888888888889,2.25,2.0,2.5,0.25,0.8819444444444444,0.8888888888888888,0.6168271000004517,-0.13094862481290745,-0.48316652125128856,-0.06926236359985906,0.001057298349807871,0.7809387604808984,,,0.0002938842761788952,0.46960417670906923,,,,,1.4899999999999998,-0.06268110564525024,,,,,,,,,,,,,,,,,,,,
47,240614_094934,LEARNING,1.0,48,3.0,788.0,,,,,,,,,,48.0,48.0,48.0,cue1.png,Hard,B,,,,,,,,,,,,,,,,,,,,,,,,,,,12,24,Female,1.2857142857142858,0.25,0.0,0.5,2.2777777777777777,2.625,2.5555555555555554,2.7777777777777777,1.75,2.888888888888889,2.25,2.0,2.5,0.25,1.0,1.0,0.6619320769207732,0.4497659616228747,-0.4125923311478714,0.4968721256250558,1.3758578662445651e-05,-0.25626975237105004,3.1207566405463006e-05,-0.3325815074269249,,,-0.0003417695914007387,-0.9952597205303211,1.691,0.4843912262194325,1.626,0.203468970115663,,,,,,,,,,,,,,,,,,,,
48,240614_095001,LEARNING,1.0,49,1.0,788.0,,,,,,,,,,49.0,49.0,49.0,cue2.png,Easy,B,,,,,,,,,,,,,,,,,,,,,,,,,,,12,24,Female,1.2857142857142858,0.25,0.0,0.5,2.2777777777777777,2.625,2.5555555555555554,2.7777777777777777,1.75,2.888888888888889,2.25,2.0,2.5,0.25,1.0,1.0,0.6954259538391713,0.8809907224105349,-0.36323073793173455,0.8928426684225789,0.0007717314628577321,0.49710443588376013,1.7536426974773534e-05,-0.3400363084470852,,,0.0005334774809321726,0.15968443299835683,,,,,,,,,,,,,,,,,,,,,,,,
49,240614_095026,LEARNING,1.0,50,1.0,788.0,,,,,,,,,,50.0,50.0,50.0,cue2.png,Easy,B,,,,,,,,,,,,,,,,,,,,,,,,,,,12,24,Female,1.2857142857142858,0.25,0.0,0.5,2.2777777777777777,2.625,2.5555555555555554,2.7777777777777777,1.75,2.888888888888889,2.25,2.0,2.5,0.25,0.8819444444444444,0.8888888888888888,0.5898879384644365,-0.4777831676605637,-0.5278226949283112,-0.4274868085185152,0.004482291284690064,4.185151926806432,-0.004550382642463173,-2.8308987498331195,,,,,1.2880000000000003,-0.22691704676232516,0.9500000000000002,-1.1194534652841688,,,,,,,,,,,,,,,,,,,,
0,240614_095226,TrueCHOICE,9.0,1,3.0,788.0,,,,,,,,,,,1.0,1.0,,,B,,,,,,True,cue2.png,Easy,cue1.png,Hard,Right,Hard,Hard,0.0164791999850422,,,,,,,,,,,,,12,24,Female,1.2857142857142858,0.25,0.0,0.5,2.2777777777777777,2.625,2.5555555555555554,2.7777777777777777,1.75,2.888888888888889,2.25,2.0,2.5,0.25,0.8819444444444444,0.8888888888888888,0.5904486461569411,-0.0184285945197033,-0.5268726138379051,0.06354499808650428,,,,,,,,,,,,,,,-0.0006133343609899815,-0.4532425930623085,,,,,,,,,,,,,,,,
1,240614_095248,TrueCHOICE,9.0,2,1.0,788.0,,,,,,,,,,,2.0,2.0,,,B,,,,,,True,cue2.png,Easy,cue1.png,Hard,Left,Easy,Easy,0.0160128000134136,,,,,,,,,,,,,12,24,Female,1.2857142857142858,0.25,0.0,0.5,2.2777777777777777,2.625,2.5555555555555554,2.7777777777777777,1.75,2.888888888888889,2.25,2.0,2.5,0.25,,,,,,,,,,,,,,,,,,,,,-0.0010818287735358595,-1.3931858622335112,1.587,1.0186392630390684,,,,,,,,,,,,,,
2,240614_095313,TrueCHOICE,9.0,3,1.0,788.0,,,,,,,,,,,3.0,3.0,,,B,,,,,,True,cue1.png,Hard,cue2.png,Easy,Right,Easy,Easy,0.0165685999963898,,,,,,,,,,,,,12,24,Female,1.2857142857142858,0.25,0.0,0.5,2.2777777777777777,2.625,2.5555555555555554,2.7777777777777777,1.75,2.888888888888889,2.25,2.0,2.5,0.25,1.0,1.0,0.6033723999996885,0.10474239327488909,-0.5052206941059563,0.20333571966515018,,,,,,,,,,,,,5.405129051962729e-05,0.021870971009713216,,,1.587,1.0186392630390684,,,,,,,,,,,,,,
3,240614_095336,TrueCHOICE,9.0,4,1.0,788.0,,,,,,,,,,,4.0,4.0,,,B,,,,,,True,cue2.png,Easy,cue1.png,Hard,Left,Easy,Easy,0.0143895999935921,,,,,,,,,,,,,12,24,Female,1.2857142857142858,0.25,0.0,0.5,2.2777777777777777,2.625,2.5555555555555554,2.7777777777777777,1.75,2.888888888888889,2.25,2.0,2.5,0.25,0.8819444444444444,0.8888888888888888,0.5394025692277444,-0.5049277800435996,-0.6172931051663375,-0.520234448945447,,,,,,,,,,,,,,,-0.000342045334873013,0.09104627628185742,,,,,,,,,,,,,,,,
4,240614_095359,TrueCHOICE,9.0,5,1.0,788.0,,,,,,,,,,,5.0,5.0,,,B,,,,,,True,cue1.png,Hard,cue2.png,Easy,Right,Easy,Easy,0.0167892999888863,,,,,,,,,,,,,12,24,Female,1.2857142857142858,0.25,0.0,0.5,2.2777777777777777,2.625,2.5555555555555554,2.7777777777777777,1.75,2.888888888888889,2.25,2.0,2.5,0.25,1.0,1.0,0.8583430538464409,2.5347629333644592,-0.15275142974689615,2.478973788207572,,,,,,,,,,,,,0.00013251823052778597,1.0104722217107913,,,1.4510000000000003,0.6488840857081619,,,,,,,,,,,,,,
5,240614_095422,TrueCHOICE,9.0,6,1.0,788.0,,,,,,,,,,,6.0,6.0,,,B,,,,,,True,cue1.png,Hard,cue2.png,Easy,Right,Easy,Easy,0.0163976999756414,,,,,,,,,,,,,12,24,Female,1.2857142857142858,0.25,0.0,0.5,2.2777777777777777,2.625,2.5555555555555554,2.7777777777777777,1.75,2.888888888888889,2.25,2.0,2.5,0.25,1.0,1.0,0.5654414000029926,-0.2567623826963418,-0.5701486139006438,-0.2158567062751287,,,,,,,,,,,,,-1.4457716461456407e-05,-0.8412707543939553,-0.000282652442432473,0.21020660774179334,1.021,-0.5201947837939727,,,,,,,,,,,,,,
6,240614_095445,TrueCHOICE,9.0,7,1.0,788.0,,,,,,,,,,,7.0,7.0,,,B,,,,,,True,cue2.png,Easy,cue1.png,Hard,Left,Easy,Easy,0.0163335999823175,,,,,,,,,,,,,12,24,Female,1.2857142857142858,0.25,0.0,0.5,2.2777777777777777,2.625,2.5555555555555554,2.7777777777777777,1.75,2.888888888888889,2.25,2.0,2.5,0.25,,,,,,,,,,,,,,,,,,,-2.822574430285437e-05,-1.0147334833123771,-0.0005714435743586687,-0.3691968459200551,1.0589999999999997,-0.4168808371868079,,,,,,,,,,,,,,
7,240614_095508,TrueCHOICE,9.0,8,1.0,788.0,,,,,,,,,,,8.0,8.0,,,B,,,,,,True,cue1.png,Hard,cue2.png,Easy,Right,Easy,Easy,0.0167649000068195,,,,,,,,,,,,,12,24,Female,1.2857142857142858,0.25,0.0,0.5,2.2777777777777777,2.625,2.5555555555555554,2.7777777777777777,1.75,2.888888888888889,2.25,2.0,2.5,0.25,1.0,1.0,0.5530668076893422,-0.37469953759526764,-0.5922764751918759,-0.3587202368621744,,,,,,,,,,,,,-1.0603409522885743e-05,-0.792710524319218,0.0005667521822564558,1.9143724171922245,,,,,,,,,,,,,,,,
8,240614_095531,TrueCHOICE,9.0,9,1.0,788.0,,,,,,,,,,,9.0,9.0,,,B,,,,,,True,cue2.png,Easy,cue1.png,Hard,Left,Easy,Easy,0.0162074000108987,,,,,,,,,,,,,12,24,Female,1.2857142857142858,0.25,0.0,0.5,2.2777777777777777,2.625,2.5555555555555554,2.7777777777777777,1.75,2.888888888888889,2.25,2.0,2.5,0.25,1.0,1.0,0.5156404999993706,-0.7313942985578608,-0.6623454617401626,-0.8111047972675178,,,,,,,,,,,,,,,,,,,,,,,,,,,,,,,,
9,240614_095553,TrueCHOICE,9.0,10,1.0,788.0,,,,,,,,,,,10.0,10.0,,,B,,,,,,True,cue1.png,Hard,cue2.png,Easy,Right,Easy,Easy,0.0165702999802306,,,,,,,,,,,,,12,24,Female,1.2857142857142858,0.25,0.0,0.5,2.2777777777777777,2.625,2.5555555555555554,2.7777777777777777,1.75,2.888888888888889,2.25,2.0,2.5,0.25,1.0,1.0,0.5133427999949512,-0.7532927332265764,-0.6668114308640088,-0.8399383166089562,,,,,,,,,,,,,0.0001806094783640042,1.6163715693050458,,,0.5690000000000002,-1.749086990805517,,,,,,,,,,,,,,
0,240614_095925,FalseCHOICE,9.0,1,2.0,788.0,,,,,,,,,,,1.0,1.0,,,B,,,,,,False,cue2.png,Easy,cue1.png,Hard,Left,Easy,Mid,0.0168037000112235,,,,,,,,,,,,,12,24,Female,1.2857142857142858,0.25,0.0,0.5,2.2777777777777777,2.625,2.5555555555555554,2.7777777777777777,1.75,2.888888888888889,2.25,2.0,2.5,0.25,1.0,1.0,0.4985614769214477,-1.1757087383445302,-0.6960283733696621,-1.1673352089332436,,,,,,,,,,,,,,,,,,,6.374443059981982e-05,0.18331810940065968,-0.0004081799908423958,-0.49217578731690326,1.5799999999999998,-0.15060763587899537,,,,,,,,
1,240614_095948,FalseCHOICE,9.0,2,2.0,788.0,,,,,,,,,,,2.0,2.0,,,B,,,,,,False,cue1.png,Hard,cue2.png,Easy,Left,Hard,Mid,0.0160056000167969,,,,,,,,,,,,,12,24,Female,1.2857142857142858,0.25,0.0,0.5,2.2777777777777777,2.625,2.5555555555555554,2.7777777777777777,1.75,2.888888888888889,2.25,2.0,2.5,0.25,,,,,,,,,,,,,,,,,,,,,,,,,0.001102227866848071,0.8207621352906861,-0.0004110819927909122,-0.4957775317195996,1.5939999999999999,-0.12226076570169143,,,,,,,,
2,240614_100014,FalseCHOICE,9.0,3,2.0,788.0,,,,,,,,,,,3.0,3.0,,,B,,,,,,False,cue1.png,Hard,cue2.png,Easy,Right,Easy,Mid,0.016455400007544,,,,,,,,,,,,,12,24,Female,1.2857142857142858,0.25,0.0,0.5,2.2777777777777777,2.625,2.5555555555555554,2.7777777777777777,1.75,2.888888888888889,2.25,2.0,2.5,0.25,,,,,,,,,,,,,,,,,,,,,,,,,6.739054003189601e-05,0.18555617174628058,0.00043728999504098146,0.5571573431656649,1.5030000000000001,-0.30651542185416636,,,,,,,,
3,240614_100039,FalseCHOICE,9.0,4,2.0,788.0,,,,,,,,,,,4.0,4.0,,,B,,,,,,False,cue1.png,Hard,cue2.png,Easy,Left,Hard,Mid,0.0167690000089351,,,,,,,,,,,,,12,24,Female,1.2857142857142858,0.25,0.0,0.5,2.2777777777777777,2.625,2.5555555555555554,2.7777777777777777,1.75,2.888888888888889,2.25,2.0,2.5,0.25,0.8819444444444444,0.811965811965812,0.5855990333341955,-0.2522063594094815,-0.5351199670635228,-0.1689639656680016,,,,,,,,,,,,,,,,,,,-4.065310694847165e-06,0.14169499537046085,-0.00040854935128313086,-0.4926342094419039,1.4679999999999997,-0.3773825972974269,,,,,,,,
4,240614_100107,FalseCHOICE,9.0,5,2.0,788.0,,,,,,,,,,,5.0,5.0,,,B,,,,,,False,cue2.png,Easy,cue1.png,Hard,Right,Hard,Mid,0.0166391999810002,,,,,,,,,,,,,12,24,Female,1.2857142857142858,0.25,0.0,0.5,2.2777777777777777,2.625,2.5555555555555554,2.7777777777777777,1.75,2.888888888888889,2.25,2.0,2.5,0.25,,,,,,,,,,,,,,,,,,,,,,,,,4.5482466991134465e-07,0.14446955410091974,0.0001482285084678757,0.19839618112301657,1.4700000000000002,-0.373333044414954,,,,,,,,
5,240614_100131,FalseCHOICE,9.0,6,2.0,788.0,,,,,,,,,,,6.0,6.0,,,B,,,,,,False,cue1.png,Hard,cue2.png,Easy,Left,Hard,Mid,0.016175500000827,,,,,,,,,,,,,12,24,Female,1.2857142857142858,0.25,0.0,0.5,2.2777777777777777,2.625,2.5555555555555554,2.7777777777777777,1.75,2.888888888888889,2.25,2.0,2.5,0.25,0.7083333333333333,0.7777777777777778,0.5650182846181381,-0.47057612049757813,-0.5708971862033427,-0.39094706507945975,,,,,,,,,,,,,,,,,,,-0.001134043519933521,-0.551910539126398,0.0010866158331539538,1.3630512551753198,1.935,0.5681880007597828,,,,,,,,
6,240614_100155,FalseCHOICE,9.0,7,2.0,788.0,,,,,,,,,,,7.0,7.0,,,B,,,,,,False,cue1.png,Hard,cue2.png,Easy,Left,Hard,Mid,0.0160546999832149,,,,,,,,,,,,,12,24,Female,1.2857142857142858,0.25,0.0,0.5,2.2777777777777777,2.625,2.5555555555555554,2.7777777777777777,1.75,2.888888888888889,2.25,2.0,2.5,0.25,1.0,1.0,0.5437457461510069,-0.6962860403305948,-0.6092735197804063,-0.629056612895128,,,,,,,,,,,,,,,,,,,,,-0.0020603736468413165,-2.5427530640505696,,,,,,,,,,
7,240614_100218,FalseCHOICE,9.0,8,2.0,788.0,,,,,,,,,,,8.0,8.0,,,B,,,,,,False,cue2.png,Easy,cue1.png,Hard,Right,Hard,Mid,0.0163585999980568,,,,,,,,,,,,,12,24,Female,1.2857142857142858,0.25,0.0,0.5,2.2777777777777777,2.625,2.5555555555555554,2.7777777777777777,1.75,2.888888888888889,2.25,2.0,2.5,0.25,,,,,,,,,,,,,,,,,,,,,,,,,3.7188453210961446e-05,0.16701746506938914,-4.5373371497521575e-05,-0.04188776764323009,,,,,,,,,,
8,240614_100242,FalseCHOICE,9.0,9,2.0,788.0,,,,,,,,,,,9.0,9.0,,,B,,,,,,False,cue2.png,Easy,cue1.png,Hard,Right,Hard,Mid,0.0167810999846551,,,,,,,,,,,,,12,24,Female,1.2857142857142858,0.25,0.0,0.5,2.2777777777777777,2.625,2.5555555555555554,2.7777777777777777,1.75,2.888888888888889,2.25,2.0,2.5,0.25,0.8819444444444444,0.8888888888888888,0.5528882000004299,-0.599281043554175,-0.5925994678800471,-0.525600899746376,,,,,,,,,,,,,,,,,,,,,-0.0006262441976399415,-0.7628205181596963,,,,,,,,,,
9,240614_100308,FalseCHOICE,9.0,10,2.0,788.0,,,,,,,,,,,10.0,10.0,,,B,,,,,,False,cue1.png,Hard,cue2.png,Easy,Left,Hard,Mid,0.0161249999946448,,,,,,,,,,,,,12,24,Female,1.2857142857142858,0.25,0.0,0.5,2.2777777777777777,2.625,2.5555555555555554,2.7777777777777777,1.75,2.888888888888889,2.25,2.0,2.5,0.25,,,,,,,,,,,,,,,,,,,,,,,,,0.000892651555078556,0.6921195751472353,0.0002749501847528887,0.3556735008343912,,,,,,,,,,
10,240614_100333,FalseCHOICE,9.0,11,2.0,788.0,,,,,,,,,,,11.0,11.0,,,B,,,,,,False,cue2.png,Easy,cue1.png,Hard,Right,Hard,Mid,0.0151785000052768,,,,,,,,,,,,,12,24,Female,1.2857142857142858,0.25,0.0,0.5,2.2777777777777777,2.625,2.5555555555555554,2.7777777777777777,1.75,2.888888888888889,2.25,2.0,2.5,0.25,0.0416666666666666,0.6666666666666667,0.6659375153786431,0.6002162308599708,-0.4065594335959782,0.6287018777723871,,,,,,,,,,,,,,,,,,,-4.709441867841455e-05,0.11528278034024923,0.0004049318490803389,0.5169968700981129,,,,,,,,,,
11,240614_100359,FalseCHOICE,9.0,12,2.0,788.0,,,,,,,,,,,12.0,12.0,,,B,,,,,,False,cue1.png,Hard,cue2.png,Easy,Left,Hard,Mid,0.0162754000048153,,,,,,,,,,,,,12,24,Female,1.2857142857142858,0.25,0.0,0.5,2.2777777777777777,2.625,2.5555555555555554,2.7777777777777777,1.75,2.888888888888889,2.25,2.0,2.5,0.25,,,,,,,,,,,,,,,,,,,,,,,,,0.0005944111242426916,0.509053024175552,0.000985225305337966,1.237213032966559,,,,,,,,,,
12,240614_100425,FalseCHOICE,9.0,13,2.0,788.0,,,,,,,,,,,13.0,13.0,,,B,,,,,,False,cue2.png,Easy,cue1.png,Hard,Right,Hard,Mid,0.0166142999951262,,,,,,,,,,,,,12,24,Female,1.2857142857142858,0.25,0.0,0.5,2.2777777777777777,2.625,2.5555555555555554,2.7777777777777777,1.75,2.888888888888889,2.25,2.0,2.5,0.25,0.9375,0.8461538461538461,0.752550554543797,1.519214316427766,-0.28428710249772093,1.3873519820015834,,,,,,,,,,,,,,,,,,,0.0006418733311502342,0.5381863730502056,0.00043159975594969126,0.5500950505963798,,,,,,,,,,
13,240614_100450,FalseCHOICE,9.0,14,2.0,788.0,,,,,,,,,,,14.0,14.0,,,B,,,,,,False,cue1.png,Hard,cue2.png,Easy,Left,Hard,Mid,0.016161200008355,,,,,,,,,,,,,12,24,Female,1.2857142857142858,0.25,0.0,0.5,2.2777777777777777,2.625,2.5555555555555554,2.7777777777777777,1.75,2.888888888888889,2.25,2.0,2.5,0.25,0.8819444444444444,0.8888888888888888,0.6358426384596476,0.2808978633192753,-0.45280417006192014,0.34177208895740446,,,,,,,,,,,,,,,,,,,0.00034436398778029797,0.355568579681477,0.0005662021198337168,0.7171532811936526,1.67,0.03162224383224423,,,,,,,,
14,240614_100514,FalseCHOICE,9.0,15,2.0,788.0,,,,,,,,,,,15.0,15.0,,,B,,,,,,False,cue2.png,Easy,cue1.png,Hard,Right,Hard,Mid,0.016595099994447,,,,,,,,,,,,,12,24,Female,1.2857142857142858,0.25,0.0,0.5,2.2777777777777777,2.625,2.5555555555555554,2.7777777777777777,1.75,2.888888888888889,2.25,2.0,2.5,0.25,,,,,,,,,,,,,,,,,,,,,,,,,,,,,,,,,,,,,,
15,240614_100541,FalseCHOICE,9.0,16,2.0,788.0,,,,,,,,,,,16.0,16.0,,,B,,,,,,False,cue2.png,Easy,cue1.png,Hard,Right,Hard,Mid,0.0180351999879349,,,,,,,,,,,,,12,24,Female,1.2857142857142858,0.25,0.0,0.5,2.2777777777777777,2.625,2.5555555555555554,2.7777777777777777,1.75,2.888888888888889,2.25,2.0,2.5,0.25,1.0,1.0,0.863535600002461,2.696808882861147,-0.14672015468013977,2.240898964895311,,,,,,,,,,,,,,,,,,,0.00039854576417837915,0.38882654843814934,-0.0009993134973598243,-1.2258457972332972,,,,,,,,,,
16,240614_100606,FalseCHOICE,9.0,17,2.0,788.0,,,,,,,,,,,17.0,17.0,,,B,,,,,,False,cue1.png,Hard,cue2.png,Easy,Left,Hard,Mid,0.0162096999993082,,,,,,,,,,,,,12,24,Female,1.2857142857142858,0.25,0.0,0.5,2.2777777777777777,2.625,2.5555555555555554,2.7777777777777777,1.75,2.888888888888889,2.25,2.0,2.5,0.25,1.0,1.0,0.7419642692279572,1.4068897053495149,-0.2984541916535333,1.299450953468444,,,,,,,,,,,,,,,,,,,1.3017219147614268e-05,0.1521806287614994,,,,,,,,,,,,
17,240614_100631,FalseCHOICE,9.0,18,2.0,788.0,,,,,,,,,,,18.0,18.0,,,B,,,,,,False,cue1.png,Hard,cue2.png,Easy,Left,Hard,Mid,0.0170005999971181,,,,,,,,,,,,,12,24,Female,1.2857142857142858,0.25,0.0,0.5,2.2777777777777777,2.625,2.5555555555555554,2.7777777777777777,1.75,2.888888888888889,2.25,2.0,2.5,0.25,1.0,1.0,0.6934491076882785,0.8921249423793385,-0.3660774266521566,0.879876272760061,,,,,,,,,,,,,,,,,,,0.0003473687440823823,0.35741296533767847,,,,,,,,,,,,
18,240614_100701,FalseCHOICE,9.0,19,2.0,788.0,,,,,,,,,,,20.0,19.0,,,B,,,,,,False,cue2.png,Easy,cue1.png,Hard,Right,Hard,Mid,0.0167880000080913,,,,,,,,,,,,,12,24,Female,1.2857142857142858,0.25,0.0,0.5,2.2777777777777777,2.625,2.5555555555555554,2.7777777777777777,1.75,2.888888888888889,2.25,2.0,2.5,0.25,1.0,1.0,0.6055159923092176,-0.04087966605242014,-0.5016743045967045,0.03855277248984246,,,,,,,,,,,,,,,,,,,0.00022039642429845649,0.27947455642856106,-8.712050145720084e-05,-0.0937011345287288,,,,,,,,,,
19,240614_100725,FalseCHOICE,9.0,20,2.0,788.0,,,,,,,,,,,21.0,20.0,,,B,,,,,,False,cue2.png,Easy,cue1.png,Hard,Right,Hard,Mid,0.0168367000005673,,,,,,,,,,,,,12,24,Female,1.2857142857142858,0.25,0.0,0.5,2.2777777777777777,2.625,2.5555555555555554,2.7777777777777777,1.75,2.888888888888889,2.25,2.0,2.5,0.25,1.0,1.0,0.7012580846136328,0.974981229536745,-0.3548792933508923,0.9493561372549129,,,,,,,,,,,,,,,,,,,8.32547548264115e-05,0.19529397650389316,0.00046005094889898287,0.5854065103311099,2.092,0.886077902033834,,,,,,,,
20,240614_100746,FalseCHOICE,9.0,21,2.0,788.0,,,,,,,,,,,22.0,21.0,,,B,,,,,,False,cue2.png,Easy,cue1.png,Hard,Right,Hard,Mid,0.0170723999908659,,,,,,,,,,,,,12,24,Female,1.2857142857142858,0.25,0.0,0.5,2.2777777777777777,2.625,2.5555555555555554,2.7777777777777777,1.75,2.888888888888889,2.25,2.0,2.5,0.25,0.7083333333333333,0.7777777777777778,0.4010639692244764,-2.2101952750690814,-0.9136343401476436,-2.5174917643386365,,,,,,,,,,,,,,,,,,,0.0005257730606257963,0.46692146764411946,0.00043835031463122093,0.5584733313065987,1.0990000000000002,-1.1245251041135078,,,,,,,,
21,240614_100809,FalseCHOICE,9.0,22,2.0,788.0,,,,,,,,,,,23.0,22.0,,,B,,,,,,False,cue1.png,Hard,cue2.png,Easy,Left,Hard,Mid,0.0168168000236619,,,,,,,,,,,,,12,24,Female,1.2857142857142858,0.25,0.0,0.5,2.2777777777777777,2.625,2.5555555555555554,2.7777777777777777,1.75,2.888888888888889,2.25,2.0,2.5,0.25,0.8819444444444444,0.8888888888888888,0.543581161538336,-0.6980323471848093,-0.6095762523123872,-0.6309349451791204,,,,,,,,,,,,,,,,,,,-7.366674181115722e-05,0.09897210263105077,0.0011169799844335734,1.4007369334946973,2.919,2.5605680189360007,,,,,,,,
22,240614_100834,FalseCHOICE,9.0,23,2.0,788.0,,,,,,,,,,,24.0,23.0,,,B,,,,,,False,cue2.png,Easy,cue1.png,Hard,Right,Hard,Mid,0.0167132999922614,,,,,,,,,,,,,12,24,Female,1.2857142857142858,0.25,0.0,0.5,2.2777777777777777,2.625,2.5555555555555554,2.7777777777777777,1.75,2.888888888888889,2.25,2.0,2.5,0.25,1.0,1.0,0.6861502307695516,0.8146810150012124,-0.3766586799413286,0.8142238979455572,,,,,,,,,,,,,,,,,,,-8.950005590909393e-05,0.08925326540218488,-0.0002633101917303383,-0.3123743959572755,2.012,0.7240957867349543,,,,,,,,
23,240614_100859,FalseCHOICE,9.0,24,2.0,788.0,,,,,,,,,,,25.0,24.0,,,B,,,,,,False,cue1.png,Hard,cue2.png,Easy,Left,Hard,Mid,0.0160754999960772,,,,,,,,,,,,,12,24,Female,1.2857142857142858,0.25,0.0,0.5,2.2777777777777777,2.625,2.5555555555555554,2.7777777777777777,1.75,2.888888888888889,2.25,2.0,2.5,0.25,0.7916666666666666,0.735042735042735,0.6550901636391327,0.4851216033284028,-0.4229823984094945,0.5268040579171791,,,,,,,,,,,,,,,,,,,1.7785720642731016e-05,0.15510764009784891,0.0006198517730770575,0.7837391559462833,1.845,0.38595812104854327,,,,,,,,
24,240614_100922,FalseCHOICE,9.0,25,2.0,788.0,,,,,,,,,,,26.0,25.0,,,B,,,,,,False,cue1.png,Hard,cue2.png,Easy,Left,Hard,Mid,0.0160713999939616,,,,,,,,,,,,,12,24,Female,1.2857142857142858,0.25,0.0,0.5,2.2777777777777777,2.625,2.5555555555555554,2.7777777777777777,1.75,2.888888888888889,2.25,2.0,2.5,0.25,0.8819444444444444,0.8888888888888888,0.5054673461552459,-1.1024347755992603,-0.6822718397292701,-1.0819815104605353,,,,,,,,,,,,,,,,,,,,,,,1.2269999999999999,-0.8653537196353012,,,,,,,,
25,240614_100947,FalseCHOICE,9.0,26,2.0,788.0,,,,,,,,,,,27.0,26.0,,,B,,,,,,False,cue2.png,Easy,cue1.png,Hard,Right,Hard,Mid,0.0166260999976657,,,,,,,,,,,,,12,24,Female,1.2857142857142858,0.25,0.0,0.5,2.2777777777777777,2.625,2.5555555555555554,2.7777777777777777,1.75,2.888888888888889,2.25,2.0,2.5,0.25,0.7083333333333333,0.6239316239316239,0.6677846090936906,0.6198146147101928,-0.40378959891743255,0.6458875758669762,,,,,,,,,,,,,,,,,,,,,0.00047163061828909853,0.5997783164673,0.9570000000000001,-1.412043358769019,,,,,,,,
26,240614_101011,FalseCHOICE,9.0,27,2.0,788.0,,,,,,,,,,,28.0,27.0,,,B,,,,,,False,cue2.png,Easy,cue1.png,Hard,Right,Hard,Mid,0.0175905000069178,,,,,,,,,,,,,12,24,Female,1.2857142857142858,0.25,0.0,0.5,2.2777777777777777,2.625,2.5555555555555554,2.7777777777777777,1.75,2.888888888888889,2.25,2.0,2.5,0.25,0.8819444444444444,0.8888888888888888,0.6065644923051318,-0.02975467265361303,-0.4999442210407801,0.049287237582950824,,,,,,,,,,,,,,,,,,,-0.0029386170978763426,-1.6595975819687998,-0.0005379668063896243,-0.6532573250739665,2.082,0.8658301376214735,,,,,,,,
27,240614_101034,FalseCHOICE,9.0,28,2.0,788.0,,,,,,,,,,,29.0,28.0,,,B,,,,,,False,cue1.png,Hard,cue2.png,Easy,Left,Hard,Mid,0.0163929999980609,,,,,,,,,,,,,12,24,Female,1.2857142857142858,0.25,0.0,0.5,2.2777777777777777,2.625,2.5555555555555554,2.7777777777777777,1.75,2.888888888888889,2.25,2.0,2.5,0.25,0.8819444444444444,0.8888888888888888,0.5258444923025448,-0.8862253170788748,-0.6427497519655128,-0.8367630237267258,,,,,,,,,,,,,,,,,,,-0.002845326792025606,-1.6023339357109025,-0.001331322090287709,-1.6379096457212148,1.434,-0.4462249962994503,,,,,,,,
28,240614_101058,FalseCHOICE,9.0,29,2.0,788.0,,,,,,,,,,,30.0,29.0,,,B,,,,,,False,cue2.png,Easy,cue1.png,Hard,Right,Hard,Mid,0.0170941999822389,,,,,,,,,,,,,12,24,Female,1.2857142857142858,0.25,0.0,0.5,2.2777777777777777,2.625,2.5555555555555554,2.7777777777777777,1.75,2.888888888888889,2.25,2.0,2.5,0.25,0.5347222222222222,0.7008547008547008,0.584193849999186,-0.2671159019817393,-0.537522416302008,-0.1838701864688262,,,,,,,,,,,,,,,,,,,2.473423633464391e-05,0.15937279220524772,0.0008729485316131226,1.0978636291789425,1.6720000000000002,0.03567179671471668,,,,,,,,
29,240614_101122,FalseCHOICE,9.0,30,2.0,788.0,,,,,,,,,,,31.0,30.0,,,B,,,,,,False,cue2.png,Easy,cue1.png,Hard,Right,Hard,Mid,0.0165903999877627,,,,,,,,,,,,,12,24,Female,1.2857142857142858,0.25,0.0,0.5,2.2777777777777777,2.625,2.5555555555555554,2.7777777777777777,1.75,2.888888888888889,2.25,2.0,2.5,0.25,0.7083333333333333,0.7777777777777778,0.6625824384659958,0.5646175578498219,-0.4116102934428334,0.597363345867041,,,,,,,,,,,,,,,,,,,0.00021116201559780428,0.27380627280130976,0.0005534457396074305,0.7013210309423452,0.72,-1.8919153753419498,,,,,,,,
30,240614_101146,FalseCHOICE,9.0,31,2.0,788.0,,,,,,,,,,,32.0,31.0,,,B,,,,,,False,cue1.png,Hard,cue2.png,Easy,Left,Hard,Mid,0.0158105000155046,,,,,,,,,,,,,12,24,Female,1.2857142857142858,0.25,0.0,0.5,2.2777777777777777,2.625,2.5555555555555554,2.7777777777777777,1.75,2.888888888888889,2.25,2.0,2.5,0.25,1.0,1.0,0.5988356076928679,-0.11176114916924677,-0.5127681631196921,-0.030280109399071387,,,,,,,,,,,,,,,,,,,,,-0.0009168820419840958,-1.1235381357386423,,,,,,,,,,
31,240614_101210,FalseCHOICE,9.0,32,2.0,788.0,,,,,,,,,,,33.0,32.0,,,B,,,,,,False,cue2.png,Easy,cue1.png,Hard,Right,Hard,Mid,0.0166065999947022,,,,,,,,,,,,,12,24,Female,1.2857142857142858,0.25,0.0,0.5,2.2777777777777777,2.625,2.5555555555555554,2.7777777777777777,1.75,2.888888888888889,2.25,2.0,2.5,0.25,0.7083333333333333,0.7777777777777778,0.6033675538380451,-0.06367543515368601,-0.5052287259302578,0.01649903317732563,,,,,,,,,,,,,,,,,,,-0.0015824240709637243,-0.8271364056188473,-0.0013258414160363524,-1.6311074491141735,1.371,-0.5737859120973178,,,,,,,,
32,240614_101233,FalseCHOICE,9.0,33,2.0,788.0,,,,,,,,,,,34.0,33.0,,,B,,,,,,False,cue1.png,Hard,cue2.png,Easy,Left,Hard,Mid,0.016913100000238,,,,,,,,,,,,,12,24,Female,1.2857142857142858,0.25,0.0,0.5,2.2777777777777777,2.625,2.5555555555555554,2.7777777777777777,1.75,2.888888888888889,2.25,2.0,2.5,0.25,0.7083333333333333,0.7777777777777778,0.6260463461535087,0.17695538581496284,-0.46833087523353106,0.24543519580278855,,,,,,,,,,,,,,,,,,,-0.004590167426258867,-2.6733555809288183,,,1.4139999999999997,-0.48672052512417063,,,,,,,,
33,240614_101258,FalseCHOICE,9.0,34,2.0,788.0,,,,,,,,,,,35.0,34.0,,,B,,,,,,False,cue1.png,Hard,cue2.png,Easy,Left,Hard,Mid,0.0147067999932914,,,,,,,,,,,,,12,24,Female,1.2857142857142858,0.25,0.0,0.5,2.2777777777777777,2.625,2.5555555555555554,2.7777777777777777,1.75,2.888888888888889,2.25,2.0,2.5,0.25,1.0,1.0,0.6385278615366238,0.30938912619204106,-0.4485899685388938,0.3679194961097027,,,,,,,,,,,,,,,,,,,,,-0.00014740242144368077,-0.16851847502227776,1.4129999999999998,-0.4887453015654064,,,,,,,,
34,240614_101323,FalseCHOICE,9.0,35,2.0,788.0,,,,,,,,,,,36.0,35.0,,,B,,,,,,False,cue1.png,Hard,cue2.png,Easy,Left,Hard,Mid,0.0160104000242427,,,,,,,,,,,,,12,24,Female,1.2857142857142858,0.25,0.0,0.5,2.2777777777777777,2.625,2.5555555555555554,2.7777777777777777,1.75,2.888888888888889,2.25,2.0,2.5,0.25,0.9375,0.9230769230769232,0.7050762333334811,1.0154932748104712,-0.34944934962783714,0.9830467304942299,,,,,,,,,,,,,,,,,,,,,0.0007689156275771528,0.968745890302385,2.421,1.5522293512004754,,,,,,,,
35,240614_101346,FalseCHOICE,9.0,36,2.0,788.0,,,,,,,,,,,37.0,36.0,,,B,,,,,,False,cue2.png,Easy,cue1.png,Hard,Right,Hard,Mid,0.0154472000140231,,,,,,,,,,,,,12,24,Female,1.2857142857142858,0.25,0.0,0.5,2.2777777777777777,2.625,2.5555555555555554,2.7777777777777777,1.75,2.888888888888889,2.25,2.0,2.5,0.25,1.0,1.0,0.5748326307668601,-0.36644208469060174,-0.5536763574830976,-0.28409882405730674,,,,,,,,,,,,,,,,,,,0.004491853706605816,2.901389197925434,,,1.6360000000000001,-0.03722015516977917,,,,,,,,
36,240614_101413,FalseCHOICE,9.0,37,2.0,788.0,,,,,,,,,,,38.0,37.0,,,B,,,,,,False,cue1.png,Hard,cue2.png,Easy,Left,Hard,Mid,0.0162010999920312,,,,,,,,,,,,,12,24,Female,1.2857142857142858,0.25,0.0,0.5,2.2777777777777777,2.625,2.5555555555555554,2.7777777777777777,1.75,2.888888888888889,2.25,2.0,2.5,0.25,1.0,1.0,0.7867168769186649,1.8817323062829008,-0.23988684507589805,1.6628375282270873,,,,,,,,,,,,,,,,,,,0.0003682889081621406,0.3702542232218275,0.0014006364777804292,1.7527898284704644,2.168,1.0399609115677697,,,,,,,,
37,240614_101436,FalseCHOICE,9.0,38,2.0,788.0,,,,,,,,,,,39.0,38.0,,,B,,,,,,False,cue2.png,Easy,cue1.png,Hard,Right,Hard,Mid,0.0166648000013083,,,,,,,,,,,,,12,24,Female,1.2857142857142858,0.25,0.0,0.5,2.2777777777777777,2.625,2.5555555555555554,2.7777777777777777,1.75,2.888888888888889,2.25,2.0,2.5,0.25,0.8819444444444444,0.8888888888888888,0.5685649538421645,-0.4329445784290965,-0.5646397175385934,-0.3521220160100334,,,,,,,,,,,,,,,,,,,-0.00011857273461177587,0.07140781432537574,-0.0007488744917510939,-0.9150199250696934,1.749,0.19157958268988812,,,,,,,,
38,240614_101500,FalseCHOICE,9.0,39,2.0,788.0,,,,,,,,,,,40.0,39.0,,,B,,,,,,False,cue2.png,Easy,cue1.png,Hard,Right,Hard,Mid,0.0167185000027529,,,,,,,,,,,,,12,24,Female,1.2857142857142858,0.25,0.0,0.5,2.2777777777777777,2.625,2.5555555555555554,2.7777777777777777,1.75,2.888888888888889,2.25,2.0,2.5,0.25,1.0,1.0,0.619075399995871,0.10299093155710316,-0.4795282043524179,0.17596032093264566,,,,,,,,,,,,,,,,,,,-0.001968279239659772,-1.0639828141014631,-0.0006280342350670999,-0.7650421766555429,1.438,-0.4381258905345063,,,,,,,,
39,240614_101525,FalseCHOICE,9.0,40,2.0,788.0,,,,,,,,,,,41.0,40.0,,,B,,,,,,False,cue1.png,Hard,cue2.png,Easy,Left,Hard,Mid,0.016069300007075,,,,,,,,,,,,,12,24,Female,1.2857142857142858,0.25,0.0,0.5,2.2777777777777777,2.625,2.5555555555555554,2.7777777777777777,1.75,2.888888888888889,2.25,2.0,2.5,0.25,0.7083333333333333,0.7777777777777778,0.6686894538489958,0.6294153700453786,-0.402435521171146,0.6542890777777332,,,,,,,,,,,,,,,,,,,-4.508354542888393e-06,0.14142304528990732,0.00019060431696631868,0.25098981606079734,2.046,0.7929381857369777,,,,,,,,
40,240614_101546,FalseCHOICE,9.0,41,2.0,788.0,,,,,,,,,,,42.0,41.0,,,B,,,,,,False,cue1.png,Hard,cue2.png,Easy,Left,Hard,Mid,0.0160502000071574,,,,,,,,,,,,,12,24,Female,1.2857142857142858,0.25,0.0,0.5,2.2777777777777777,2.625,2.5555555555555554,2.7777777777777777,1.75,2.888888888888889,2.25,2.0,2.5,0.25,0.0416666666666666,0.6666666666666667,0.4462236769255608,-1.7310331844401832,-0.8069349349097628,-1.8554653338466667,,,,,,,,,,,,,,,,,,,-0.001736418039439682,-0.921661298170557,-0.00010459870071540499,-0.11539374792605325,1.903,0.503395154640231,,,,,,,,
41,240614_101610,FalseCHOICE,9.0,42,2.0,788.0,,,,,,,,,,,43.0,42.0,,,B,,,,,,False,cue2.png,Easy,cue1.png,Hard,Right,Hard,Mid,0.0158205000043381,,,,,,,,,,,,,12,24,Female,1.2857142857142858,0.25,0.0,0.5,2.2777777777777777,2.625,2.5555555555555554,2.7777777777777777,1.75,2.888888888888889,2.25,2.0,2.5,0.25,1.0,1.0,0.6300652384614716,0.21959739875805415,-0.46193191184436533,0.2851381621120535,,,,,,,,,,,,,,,,,,,0.0037253651637744363,2.4309016335727796,,,,,,,,,,,,
42,240614_101635,FalseCHOICE,9.0,43,2.0,788.0,,,,,,,,,,,44.0,43.0,,,B,,,,,,False,cue1.png,Hard,cue2.png,Easy,Left,Hard,Mid,0.0166409999947063,,,,,,,,,,,,,12,24,Female,1.2857142857142858,0.25,0.0,0.5,2.2777777777777777,2.625,2.5555555555555554,2.7777777777777777,1.75,2.888888888888889,2.25,2.0,2.5,0.25,0.8819444444444444,0.8888888888888888,0.6881479769228742,0.8358778799080441,-0.37375138143903336,0.8322625031801238,,,,,,,,,,,,,,,,,,,-0.0007389367497720816,-0.3093852937185298,-0.0009172055738589004,-1.123939678928428,1.4,-0.5150673953014742,,,,,,,,
43,240614_101658,FalseCHOICE,9.0,44,2.0,788.0,,,,,,,,,,,45.0,44.0,,,B,,,,,,False,cue2.png,Easy,cue1.png,Hard,Right,Hard,Mid,0.0166640999959781,,,,,,,,,,,,,12,24,Female,1.2857142857142858,0.25,0.0,0.5,2.2777777777777777,2.625,2.5555555555555554,2.7777777777777777,1.75,2.888888888888889,2.25,2.0,2.5,0.25,0.8819444444444444,0.8888888888888888,0.5583797076922985,-0.5410140077319473,-0.5827160682868802,-0.4642784234007706,,,,,,,,,,,,,,,,,,,,,-0.00015327002073253684,-0.17580089359773968,2.373,1.4550400820211484,,,,,,,,
44,240614_101721,FalseCHOICE,9.0,45,2.0,788.0,,,,,,,,,,,46.0,45.0,,,B,,,,,,False,cue1.png,Hard,cue2.png,Easy,Left,Hard,Mid,0.0161796999746002,,,,,,,,,,,,,12,24,Female,1.2857142857142858,0.25,0.0,0.5,2.2777777777777777,2.625,2.5555555555555554,2.7777777777777777,1.75,2.888888888888889,2.25,2.0,2.5,0.25,1.0,1.0,0.5677349846160863,-0.44175087523149487,-0.5661005455217435,-0.36118585974085365,,,,,,,,,,,,,,,,,,,-0.00010544706196537234,0.07946464154302041,,,1.7690000000000001,0.23207511151460802,,,,,,,,
45,240614_101741,FalseCHOICE,9.0,46,2.0,788.0,,,,,,,,,,,47.0,46.0,,,B,,,,,,False,cue1.png,Hard,cue2.png,Easy,Left,Hard,Mid,0.0162438999977894,,,,,,,,,,,,,12,24,Female,1.2857142857142858,0.25,0.0,0.5,2.2777777777777777,2.625,2.5555555555555554,2.7777777777777777,1.75,2.888888888888889,2.25,2.0,2.5,0.25,0.8819444444444444,0.8888888888888888,0.3730028461521634,-2.5079347220496344,-0.9861692289326788,-2.9675412599420166,,,,,,,,,,,,,,,,,,,-0.0040221202507446496,-2.3246757023518425,-0.0017357493120540328,-2.139853995910084,,,,,,,,,,
46,240614_101804,FalseCHOICE,9.0,47,2.0,788.0,,,,,,,,,,,48.0,47.0,,,B,,,,,,False,cue2.png,Easy,cue1.png,Hard,Right,Hard,Mid,0.0164826000109314,,,,,,,,,,,,,12,24,Female,1.2857142857142858,0.25,0.0,0.5,2.2777777777777777,2.625,2.5555555555555554,2.7777777777777777,1.75,2.888888888888889,2.25,2.0,2.5,0.25,1.0,1.0,0.5715701615442342,-0.4010581540343876,-0.5593680359260765,-0.31941337482460264,,,,,,,,,,,,,,,,,,,0.0002746561383906482,0.3127803650599664,0.00043375614399899414,0.5527713956589971,1.9580000000000002,0.614757858908211,,,,,,,,
47,240614_101827,FalseCHOICE,9.0,48,2.0,788.0,,,,,,,,,,,49.0,48.0,,,B,,,,,,False,cue2.png,Easy,cue1.png,Hard,Right,Hard,Mid,0.0186104000022169,,,,,,,,,,,,,12,24,Female,1.2857142857142858,0.25,0.0,0.5,2.2777777777777777,2.625,2.5555555555555554,2.7777777777777777,1.75,2.888888888888889,2.25,2.0,2.5,0.25,0.8819444444444444,0.8888888888888888,0.5827718538505275,-0.28220383505622787,-0.5399595005244181,-0.19899130326393308,,,,,,,,,,,,,,,,,,,,,0.0011658270594859777,1.4613622129670387,0.21599999999999997,-2.912402701724891,,,,,,,,
48,240614_101852,FalseCHOICE,9.0,49,2.0,788.0,,,,,,,,,,,50.0,49.0,,,B,,,,,,False,cue1.png,Hard,cue2.png,Easy,Left,Hard,Mid,0.0161810000136028,,,,,,,,,,,,,12,24,Female,1.2857142857142858,0.25,0.0,0.5,2.2777777777777777,2.625,2.5555555555555554,2.7777777777777777,1.75,2.888888888888889,2.25,2.0,2.5,0.25,0.8819444444444444,0.8888888888888888,0.6494422000004516,0.42519450896323113,-0.4316414383627164,0.47307823536982263,,,,,,,,,,,,,,,,,,,-0.001608647213966496,-0.8432327488668109,,,,,,,,,,,,
49,240614_101914,FalseCHOICE,9.0,50,2.0,788.0,,,,,,,,,,,51.0,50.0,,,B,,,,,,False,cue2.png,Easy,cue1.png,Hard,Right,Hard,Mid,0.0165390000038314,,,,,,,,,,,,,12,24,Female,1.2857142857142858,0.25,0.0,0.5,2.2777777777777777,2.625,2.5555555555555554,2.7777777777777777,1.75,2.888888888888889,2.25,2.0,2.5,0.25,0.7916666666666666,0.811965811965812,0.5015970750003665,-1.1434998602129098,-0.6899581210194106,-1.1296717609818414,,,,,,,,,,,,,,,,,,,,,0.0005520889514463488,0.6996370885289644,1.6949999999999998,0.0822416548631439,,,,,,,,
0,240614_092823,OFFLINERATING,9.0,1,1.0,,,,,,,,,,,,,,,,,T0,cue2.png,Easy,53.0,1.142067800014047,,,,,,,,,,,,,,,,,,,,,,12,24,Female,1.2857142857142858,0.25,0.0,0.5,2.2777777777777777,2.625,2.5555555555555554,2.7777777777777777,1.75,2.888888888888889,2.25,2.0,2.5,0.25,,,,,,,,,,,,,,,,,,,,,,,,,,,,,,,-0.12709112956304175,-0.0025335845054732914,-1.4141434697372117,,,,,
1,240614_092830,OFFLINERATING,9.0,2,3.0,,,,,,,,,,,,,,,,,T0,cue1.png,Hard,66.0,0.951736599992728,,,,,,,,,,,,,,,,,,,,,,12,24,Female,1.2857142857142858,0.25,0.0,0.5,2.2777777777777777,2.625,2.5555555555555554,2.7777777777777777,1.75,2.888888888888889,2.25,2.0,2.5,0.25,,,,,,,,,,,,,,,,,,,,,,,,,,,,,,,0.8896379069412922,,,,,1.4499999999999997,-0.7685564962333062,
2,240614_095114,OFFLINERATING,9.0,3,1.0,,,,,,,,,,,,,,,,,T1,cue2.png,Easy,44.0,1.1056403999973554,,,,,,,,,,,,,,,,,,,,,,12,24,Female,1.2857142857142858,0.25,0.0,0.5,2.2777777777777777,2.625,2.5555555555555554,2.7777777777777777,1.75,2.888888888888889,2.25,2.0,2.5,0.25,,,,,,,,,,,,,,,,,,,,,,,,,,,,,,,-0.8309804625275806,4.064266715983304e-05,0.719265390993801,0.000682773644219291,0.558335122963879,1.4529999999999998,-0.7548118196985819,
3,240614_095121,OFFLINERATING,9.0,4,3.0,,,,,,,,,,,,,,,,,T1,cue1.png,Hard,67.0,0.9517185000004248,,,,,,,,,,,,,,,,,,,,,,12,24,Female,1.2857142857142858,0.25,0.0,0.5,2.2777777777777777,2.625,2.5555555555555554,2.7777777777777777,1.75,2.888888888888889,2.25,2.0,2.5,0.25,,,,,,,,,,,,,,,,,,,,,,,,,,,,,,,0.967847832826241,1.1216295582407599e-05,0.694878078743411,0.0007994599391535412,0.8460863733472983,1.984,1.6779959269475284,
4,240614_095710,OFFLINERATING,9.0,5,1.0,,,,,,,,,,,,,,,,,T2,cue2.png,Easy,36.0,0.8681845999963116,,,,,,,,,,,,,,,,,,,,,,12,24,Female,1.2857142857142858,0.25,0.0,0.5,2.2777777777777777,2.625,2.5555555555555554,2.7777777777777777,1.75,2.888888888888889,2.25,2.0,2.5,0.25,,,,,,,,,,,,,,,,,,,,,,,,,,,,,,,-1.4566598696071709,,,,,1.584,-0.15462761101564232,
5,240614_095717,OFFLINERATING,9.0,6,3.0,,,,,,,,,,,,,,,,,T2,cue1.png,Hard,65.0,0.8681995999941137,,,,,,,,,,,,,,,,,,,,,,12,24,Female,1.2857142857142858,0.25,0.0,0.5,2.2777777777777777,2.625,2.5555555555555554,2.7777777777777777,1.75,2.888888888888889,2.25,2.0,2.5,0.25,,,,,,,,,,,,,,,,,,,,,,,,,,,,,,,0.8114279810563435,,,-0.00011314573912208498,-1.4044214963111774,,,
6,240614_101941,OFFLINERATING,9.0,7,1.0,,,,,,,,,,,,,,,,,T3,cue2.png,Easy,38.0,1.0290990000066813,,,,,,,,,,,,,,,,,,,,,,12,24,Female,1.2857142857142858,0.25,0.0,0.5,2.2777777777777777,2.625,2.5555555555555554,2.7777777777777777,1.75,2.888888888888889,2.25,2.0,2.5,0.25,,,,,,,,,,,,,,,,,,,,,,,,,,,,,,,-1.3002400178372733,,,,,,,
7,240614_101948,OFFLINERATING,9.0,8,3.0,,,,,,,,,,,,,,,,,T3,cue1.png,Hard,68.0,0.9510882000031416,,,,,,,,,,,,,,,,,,,,,,12,24,Female,1.2857142857142858,0.25,0.0,0.5,2.2777777777777777,2.625,2.5555555555555554,2.7777777777777777,1.75,2.888888888888889,2.25,2.0,2.5,0.25,,,,,,,,,,,,,,,,,,,,,,,,,,,,,,,1.0460577587111897,,,,,,,
0,240614_095735,LEARNINGCHECK,9.0,1,,,,,,,,,,,,1.0,1.0,1.0,,,B,,,,,,,,,,,,,,,cue2.png,Easy,Left,Left,Easy,0.0121480000088922,1.0,,,,,,12,24,Female,1.2857142857142858,0.25,0.0,0.5,2.2777777777777777,2.625,2.5555555555555554,2.7777777777777777,1.75,2.888888888888889,2.25,2.0,2.5,0.25,,,,,,,,,,,,,,,,,,,,,,,,,,,,,,,,,,,,,,
1,240614_102006,LEARNINGCHECK,9.0,1,,,,,,,,,,,,1.0,1.0,1.0,,,B,,,,,,,,,,,,,,,cue2.png,Easy,Middle,Middle,Mid,0.0126960999914444,1.0,,,,,,12,24,Female,1.2857142857142858,0.25,0.0,0.5,2.2777777777777777,2.625,2.5555555555555554,2.7777777777777777,1.75,2.888888888888889,2.25,2.0,2.5,0.25,,,,,,,,,,,,,,,,,,,,,,,,,,,,,,,,,,,,,,
2,240614_095740,LEARNINGCHECK,9.0,2,,,,,,,,,,,,2.0,2.0,2.0,,,B,,,,,,,,,,,,,,,cue1.png,Hard,Right,Right,Hard,0.0152167000051122,1.0,,,,,,12,24,Female,1.2857142857142858,0.25,0.0,0.5,2.2777777777777777,2.625,2.5555555555555554,2.7777777777777777,1.75,2.888888888888889,2.25,2.0,2.5,0.25,,,,,,,,,,,,,,,,,,,,,,,,,,,,,,,,,,,,,,
3,240614_102011,LEARNINGCHECK,9.0,2,,,,,,,,,,,,2.0,2.0,2.0,,,B,,,,,,,,,,,,,,,cue1.png,Hard,Middle,Middle,Mid,0.016214300005231,1.0,,,,,,12,24,Female,1.2857142857142858,0.25,0.0,0.5,2.2777777777777777,2.625,2.5555555555555554,2.7777777777777777,1.75,2.888888888888889,2.25,2.0,2.5,0.25,,,,,,,,,,,,,,,,,,,,,,,,,,,,,,,,,,,,,,
0,240614_102027,DEMANDRATING,9.0,-1,,,,,,,,,,,,,,,,,,,,,,,,,,,,,,,,,,,,,,,1.0,MentalDemand,1.0,34.0,3.897682799986797,12,24,Female,1.2857142857142858,0.25,0.0,0.5,2.2777777777777777,2.625,2.5555555555555554,2.7777777777777777,1.75,2.888888888888889,2.25,2.0,2.5,0.25,,,,,,,,,,,,,,,,,,,,,,,,,,,,,,,,,,,,,,-1.3489101647724986
1,240614_102033,DEMANDRATING,9.0,-1,,,,,,,,,,,,,,,,,,,,,,,,,,,,,,,,,,,,,,,2.0,Effort,1.0,50.0,5.053242199996021,12,24,Female,1.2857142857142858,0.25,0.0,0.5,2.2777777777777777,2.625,2.5555555555555554,2.7777777777777777,1.75,2.888888888888889,2.25,2.0,2.5,0.25,,,,,,,,,,,,,,,,,,,,,,,,,,,,,,,,,,,,,,-0.6791064967475339
2,240614_102039,DEMANDRATING,9.0,-1,,,,,,,,,,,,,,,,,,,,,,,,,,,,,,,,,,,,,,,3.0,Frustration,1.0,31.0,3.750255599996308,12,24,Female,1.2857142857142858,0.25,0.0,0.5,2.2777777777777777,2.625,2.5555555555555554,2.7777777777777777,1.75,2.888888888888889,2.25,2.0,2.5,0.25,,,,,,,,,,,,,,,,,,,,,,,,,,,,,,,,,,,,,,-1.4744983525271795
3,240614_102043,DEMANDRATING,9.0,-1,,,,,,,,,,,,,,,,,,,,,,,,,,,,,,,,,,,,,,,4.0,MentalDemand,2.0,62.0,2.501633900013985,12,24,Female,1.2857142857142858,0.25,0.0,0.5,2.2777777777777777,2.625,2.5555555555555554,2.7777777777777777,1.75,2.888888888888889,2.25,2.0,2.5,0.25,,,,,,,,,,,,,,,,,,,,,,,,,,,,,,,,,,,,,,-0.1767537457288104
4,240614_102046,DEMANDRATING,9.0,-1,,,,,,,,,,,,,,,,,,,,,,,,,,,,,,,,,,,,,,,5.0,Effort,2.0,66.0,1.6531847000005655,12,24,Female,1.2857142857142858,0.25,0.0,0.5,2.2777777777777777,2.625,2.5555555555555554,2.7777777777777777,1.75,2.888888888888889,2.25,2.0,2.5,0.25,,,,,,,,,,,,,,,,,,,,,,,,,,,,,,,,,,,,,,-0.009302828722569219
5,240614_102049,DEMANDRATING,9.0,-1,,,,,,,,,,,,,,,,,,,,,,,,,,,,,,,,,,,,,,,6.0,Frustration,2.0,67.0,1.4944931999780238,12,24,Female,1.2857142857142858,0.25,0.0,0.5,2.2777777777777777,2.625,2.5555555555555554,2.7777777777777777,1.75,2.888888888888889,2.25,2.0,2.5,0.25,,,,,,,,,,,,,,,,,,,,,,,,,,,,,,,,,,,,,,0.032559900528991076
6,240614_102052,DEMANDRATING,9.0,-1,,,,,,,,,,,,,,,,,,,,,,,,,,,,,,,,,,,,,,,7.0,MentalDemand,3.0,93.0,1.7881123999832198,12,24,Female,1.2857142857142858,0.25,0.0,0.5,2.2777777777777777,2.625,2.5555555555555554,2.7777777777777777,1.75,2.888888888888889,2.25,2.0,2.5,0.25,,,,,,,,,,,,,,,,,,,,,,,,,,,,,,,,,,,,,,1.1209908610695587
7,240614_102056,DEMANDRATING,9.0,-1,,,,,,,,,,,,,,,,,,,,,,,,,,,,,,,,,,,,,,,8.0,Effort,3.0,93.0,1.9932778000074904,12,24,Female,1.2857142857142858,0.25,0.0,0.5,2.2777777777777777,2.625,2.5555555555555554,2.7777777777777777,1.75,2.888888888888889,2.25,2.0,2.5,0.25,,,,,,,,,,,,,,,,,,,,,,,,,,,,,,,,,,,,,,1.1209908610695587
8,240614_102059,DEMANDRATING,9.0,-1,,,,,,,,,,,,,,,,,,,,,,,,,,,,,,,,,,,,,,,9.0,Frustration,3.0,100.0,1.4883343999972567,12,24,Female,1.2857142857142858,0.25,0.0,0.5,2.2777777777777777,2.625,2.5555555555555554,2.7777777777777777,1.75,2.888888888888889,2.25,2.0,2.5,0.25,,,,,,,,,,,,,,,,,,,,,,,,,,,,,,,,,,,,,,1.4140299658304807
