,END,Phase,Block,TrialN,NbackLevel,ISI,Letter_Resp,Letter_RT,Letter_Accuracy,Trial_A_measure,Trial_ACC,Trial_RT,TrialCountCali,CaliEnd_A_measure,ISI_calibrated,TrialIndex,TrialNumber_total,TrialNumber_valid,CueLearning,TrialDemandLearning,CueMapping,OfflineRatingTimePoint,CueFigure,TrialDemand,OfflineRating,OfflineRatingRT,PhaseType,CueLeft,CueDemandLeft,CueRight,CueDemandRight,Choice,ChoiceDemand,TaskDemand,ChoiceRT,CueCheck,CueDemandCheck,CorrectAnswer,Answer,AnswerDemand,AnswerRT,AnswerACC,DemandRatingQuesIndex,QuesTLX,DemandLevel,DemandRating,DemandRatingRT,PID,Age,Gender,BAI_bis,BAI_bas_d,BAI_bas_rr,BAI_bas_fs,NFC,BFI_ext,BFI_agr,BFI_con,BFI_neu,BFI_open,UPPS_lps,UPPS_lpm,UPPS_pu,UPPS_ss,Task_A_measure,Task_ACC,Task_RT,Task_RT_z,cue_i_on_zyg_values,cue_i_on_zyg_zvalues,cue_e_on_zyg_values,cue_e_on_zyg_zvalues,cue_i_on_cor_values,cue_i_on_cor_zvalues,cue_e_on_cor_values,cue_e_on_cor_zvalues,cue_i_on_scr_values,cue_i_on_scr_zvalues,cue_e_on_scr_values,cue_e_on_scr_zvalues,cue_e_true_zyg_values,cue_e_true_zyg_zvalues,cue_e_true_cor_values,cue_e_true_cor_zvalues,cue_e_true_scr_values,cue_e_true_scr_zvalues,cue_e_false_zyg_values,cue_e_false_zyg_zvalues,cue_e_false_cor_values,cue_e_false_cor_zvalues,cue_e_false_scr_values,cue_e_false_scr_zvalues,OfflineRating_z,cue_i_off_zyg_values,cue_i_off_zyg_zvalues,cue_i_off_cor_values,cue_i_off_cor_zvalues,cue_i_off_scr_values,cue_i_off_scr_zvalues,DemandRating_z
0,240614_092634,PRACTICE,0.0,1,1.0,788.0,,,,,,,,,,50.0,1.0,1.0,cue2.png,Easy,B,,,,,,,,,,,,,,,,,,,,,,,,,,,12,24,Female,1.2857142857142858,0.25,0.0,0.5,2.2777777777777777,2.625,2.5555555555555554,2.7777777777777777,1.75,2.888888888888889,2.25,2.0,2.5,0.25,,,,,,,,,,,,,,,,,,,,,,,,,,,,,,,,,,,,
0,240614_092912,LEARNING,1.0,1,1.0,788.0,,,,,,,,,,1.0,1.0,1.0,cue2.png,Easy,B,,,,,,,,,,,,,,,,,,,,,,,,,,,12,24,Female,1.2857142857142858,0.25,0.0,0.5,2.2777777777777777,2.625,2.5555555555555554,2.7777777777777777,1.75,2.888888888888889,2.25,2.0,2.5,0.25,0.8819444444444444,0.8888888888888888,0.5786193230753549,-0.6228635949698212,0.0037663617957375897,-0.8635885988163159,0.04708571264891249,0.9456661121351448,0.02344196237037019,-0.1750865075254991,0.03429609396699722,1.0534756098931484,6.661214294591829e+44,5.369640885293043,,,,,,,,,,,,,,,,,,,,,,
1,240614_092936,LEARNING,1.0,2,3.0,788.0,,,,,,,,,,2.0,2.0,2.0,cue1.png,Hard,B,,,,,,,,,,,,,,,,,,,,,,,,,,,12,24,Female,1.2857142857142858,0.25,0.0,0.5,2.2777777777777777,2.625,2.5555555555555554,2.7777777777777777,1.75,2.888888888888889,2.25,2.0,2.5,0.25,0.7083333333333333,0.7777777777777778,0.4590102307713375,-2.1627988596300063,0.007272836743891131,-0.6303010421239728,0.008153744020719587,-0.8287364144296695,0.020361785254432392,-0.5785258927406506,,,8.08097036935835e+43,0.5160223546004512,2.2307754037888666e+44,3.835554992680664,,,,,,,,,,,,,,,,,,,,
2,240614_093002,LEARNING,1.0,3,1.0,788.0,,,,,,,,,,3.0,3.0,3.0,cue2.png,Easy,B,,,,,,,,,,,,,,,,,,,,,,,,,,,12,24,Female,1.2857142857142858,0.25,0.0,0.5,2.2777777777777777,2.625,2.5555555555555554,2.7777777777777777,1.75,2.888888888888889,2.25,2.0,2.5,0.25,1.0,1.0,0.671348246150256,0.5709966371105921,0.010589519500038932,-0.4096404562233696,0.011879950067891588,-0.6589071030031954,0.02376785774691723,-0.13240096529538367,0.021067389840789295,-0.8669097228012425,-1.0236697459867333e+44,-1.00294554064732,-1.6455502842678953e+44,-2.706506265215149,,,,,,,,,,,,,,,,,,,,
3,240614_093027,LEARNING,1.0,4,3.0,788.0,,,,,,,,,,4.0,4.0,4.0,cue1.png,Hard,B,,,,,,,,,,,,,,,,,,,,,,,,,,,12,24,Female,1.2857142857142858,0.25,0.0,0.5,2.2777777777777777,2.625,2.5555555555555554,2.7777777777777777,1.75,2.888888888888889,2.25,2.0,2.5,0.25,0.7083333333333333,0.7777777777777778,0.5494086153876896,-0.9989436906165745,0.0072132366340328,-0.6342662676604526,0.012719920076858102,-0.6206237857534859,0.01857733394388522,-0.812252043080656,0.027636980117527316,0.08678496179488697,-1.0828802169760043e+44,-1.0520450249996378,-1.8711284985265333e+44,-3.0872138256437363,,,,,,,,,,,,,,,,,,,,
4,240614_093053,LEARNING,1.0,5,3.0,788.0,,,,,,,,,,5.0,5.0,5.0,cue1.png,Hard,B,,,,,,,,,,,,,,,,,,,,,,,,,,,12,24,Female,1.2857142857142858,0.25,0.0,0.5,2.2777777777777777,2.625,2.5555555555555554,2.7777777777777777,1.75,2.888888888888889,2.25,2.0,2.5,0.25,1.0,1.0,0.62788684615337,0.011442666609815097,0.009864724163393401,-0.45786145756749114,0.009618300174126711,-0.7619863313881515,0.018966698119155002,-0.7612534032028259,0.015452590730731571,-1.6819992246987538,,,,,,,,,,,,,,,,,,,,,,,,
5,240614_093119,LEARNING,1.0,6,1.0,788.0,,,,,,,,,,6.0,6.0,6.0,cue2.png,Easy,B,,,,,,,,,,,,,,,,,,,,,,,,,,,12,24,Female,1.2857142857142858,0.25,0.0,0.5,2.2777777777777777,2.625,2.5555555555555554,2.7777777777777777,1.75,2.888888888888889,2.25,2.0,2.5,0.25,1.0,1.0,0.6756082076910668,0.6258425094136486,0.005808875771532868,-0.7276991080973937,0.013069407316363454,-0.6046952041114214,0.019601986033121337,-0.6780438487525259,0.01737493549219364,-1.4029361623554066,,,,,,,,,,,,,,,,,,,,,,,,
6,240614_093144,LEARNING,1.0,7,3.0,788.0,,,,,,,,,,7.0,7.0,7.0,cue1.png,Hard,B,,,,,,,,,,,,,,,,,,,,,,,,,,,12,24,Female,1.2857142857142858,0.25,0.0,0.5,2.2777777777777777,2.625,2.5555555555555554,2.7777777777777777,1.75,2.888888888888889,2.25,2.0,2.5,0.25,0.8819444444444444,0.8888888888888888,0.5536172307687454,-0.9447588864696964,0.01677014836496404,0.0015599168121809743,0.025919284133613045,-0.019036304908906312,0.034308400728740175,1.2481917799779063,0.019230942438133503,-1.1335032320882201,5.667900366761531e+42,-0.10708091328585996,,,,,,,,,,,,,,,,,,,,,,
7,240614_093210,LEARNING,1.0,8,3.0,788.0,,,,,,,,,,8.0,8.0,8.0,cue1.png,Hard,B,,,,,,,,,,,,,,,,,,,,,,,,,,,12,24,Female,1.2857142857142858,0.25,0.0,0.5,2.2777777777777777,2.625,2.5555555555555554,2.7777777777777777,1.75,2.888888888888889,2.25,2.0,2.5,0.25,0.8819444444444444,0.8888888888888888,0.6207484461505933,-0.0804623356418985,0.00796130077221975,-0.5844971811484576,0.007921030936136301,-0.8393427798357654,0.016506644406568863,-1.083469470670696,0.02107062689551875,-0.8664398058415561,,,,,,,,,,,,,,,,,,,,,,,,
8,240614_093235,LEARNING,1.0,9,1.0,788.0,,,,,,,,,,9.0,9.0,9.0,cue2.png,Easy,B,,,,,,,,,,,,,,,,,,,,,,,,,,,12,24,Female,1.2857142857142858,0.25,0.0,0.5,2.2777777777777777,2.625,2.5555555555555554,2.7777777777777777,1.75,2.888888888888889,2.25,2.0,2.5,0.25,1.0,1.0,0.5065425615377115,-1.550832737752054,0.0281251365742219,0.75701304132489,0.04158342121901472,0.6948881484429525,0.020980094789466358,-0.4975401541621659,0.025004110015313535,-0.29542368683336623,,,,,,,,,,,,,,,,,,,,,,,,
9,240614_093301,LEARNING,1.0,10,1.0,788.0,,,,,,,,,,10.0,10.0,10.0,cue2.png,Easy,B,,,,,,,,,,,,,,,,,,,,,,,,,,,12,24,Female,1.2857142857142858,0.25,0.0,0.5,2.2777777777777777,2.625,2.5555555555555554,2.7777777777777777,1.75,2.888888888888889,2.25,2.0,2.5,0.25,1.0,1.0,0.6810971769199778,0.6965115289623478,0.007369867529206219,-0.6238455347655026,0.008966474039471095,-0.7916946143486063,0.01789510477679145,-0.901609929133373,0.019557290856906467,-1.0861278647974817,,,,,,,,,,,,,,,,,,,,,,,,
10,240614_093327,LEARNING,1.0,11,3.0,788.0,,,,,,,,,,11.0,11.0,11.0,cue1.png,Hard,B,,,,,,,,,,,,,,,,,,,,,,,,,,,12,24,Female,1.2857142857142858,0.25,0.0,0.5,2.2777777777777777,2.625,2.5555555555555554,2.7777777777777777,1.75,2.888888888888889,2.25,2.0,2.5,0.25,0.8819444444444444,0.8888888888888888,0.6163194923093005,-0.13748393888610216,0.014069863792930296,-0.17809138527839877,0.053258572601036766,1.2270065806787334,0.01714458150436608,-0.9999129280259437,0.021817654100062898,-0.7579953147528057,4.821100465789149e+43,0.24570204022583583,,,,,,,,,,,,,,,,,,,,,,
11,240614_093353,LEARNING,1.0,12,1.0,788.0,,,,,,,,,,12.0,12.0,12.0,cue2.png,Easy,B,,,,,,,,,,,,,,,,,,,,,,,,,,,12,24,Female,1.2857142857142858,0.25,0.0,0.5,2.2777777777777777,2.625,2.5555555555555554,2.7777777777777777,1.75,2.888888888888889,2.25,2.0,2.5,0.25,1.0,1.0,0.6624740384599695,0.45674357235648616,,,,,,,0.018937729799221783,-1.1760683424538787,,,2.6321871868906474e+43,0.5149164813284052,,,,,,,,,,,,,,,,,,,,
12,240614_093420,LEARNING,1.0,13,1.0,788.0,,,,,,,,,,13.0,13.0,13.0,cue2.png,Easy,B,,,,,,,,,,,,,,,,,,,,,,,,,,,12,24,Female,1.2857142857142858,0.25,0.0,0.5,2.2777777777777777,2.625,2.5555555555555554,2.7777777777777777,1.75,2.888888888888889,2.25,2.0,2.5,0.25,0.8819444444444444,0.8888888888888888,0.6453270153858914,0.23598020891084706,,,,,,,0.026853216249439857,-0.026992519522357615,6.750880907302635e+42,-0.09810044324133053,-3.031132024090472e+43,-0.4408799140934166,,,,,,,,,,,,,,,,,,,,
13,240614_093446,LEARNING,1.0,14,1.0,788.0,,,,,,,,,,14.0,14.0,14.0,cue2.png,Easy,B,,,,,,,,,,,,,,,,,,,,,,,,,,,12,24,Female,1.2857142857142858,0.25,0.0,0.5,2.2777777777777777,2.625,2.5555555555555554,2.7777777777777777,1.75,2.888888888888889,2.25,2.0,2.5,0.25,1.0,1.0,0.6250688153825019,-0.02483873037568397,0.03310043615331326,1.0880222456626714,0.06708074838059078,1.8569799544911954,0.023941216090273325,-0.10969461405875801,0.025490692504784224,-0.22478745013092122,,,,,,,,,,,,,,,,,,,,,,,,
14,240614_093512,LEARNING,1.0,15,3.0,788.0,,,,,,,,,,15.0,15.0,15.0,cue1.png,Hard,B,,,,,,,,,,,,,,,,,,,,,,,,,,,12,24,Female,1.2857142857142858,0.25,0.0,0.5,2.2777777777777777,2.625,2.5555555555555554,2.7777777777777777,1.75,2.888888888888889,2.25,2.0,2.5,0.25,0.8819444444444444,0.8888888888888888,0.6325792307638599,0.07185587097287076,,,0.015079806059025886,-0.513067250681918,,,0.031464914369799354,0.6424787563229626,,,,,,,,,,,,,,,,,,,,,,,,
15,240614_093538,LEARNING,1.0,16,1.0,788.0,,,,,,,,,,16.0,16.0,16.0,cue2.png,Easy,B,,,,,,,,,,,,,,,,,,,,,,,,,,,12,24,Female,1.2857142857142858,0.25,0.0,0.5,2.2777777777777777,2.625,2.5555555555555554,2.7777777777777777,1.75,2.888888888888889,2.25,2.0,2.5,0.25,1.0,1.0,0.6973674153828492,0.9059865236368502,,,0.030218967651272365,0.17693039202403318,0.02374831569640284,-0.13496056902874495,0.04822278844560106,3.075186848913297,,,-1.2764234834235066e+43,-0.14473836958478198,,,,,,,,,,,,,,,,,,,,
16,240614_093605,LEARNING,1.0,17,1.0,788.0,,,,,,,,,,17.0,17.0,17.0,cue2.png,Easy,B,,,,,,,,,,,,,,,,,,,,,,,,,,,12,24,Female,1.2857142857142858,0.25,0.0,0.5,2.2777777777777777,2.625,2.5555555555555554,2.7777777777777777,1.75,2.888888888888889,2.25,2.0,2.5,0.25,1.0,1.0,0.6658277461515704,0.4999216672836787,0.02920336242280765,0.8287479538790359,0.0843529834201212,2.6441966962454297,0.026945429150604733,0.28379505374121156,,,,,,,,,,,,,,,,,,,,,,,,,,
17,240614_093631,LEARNING,1.0,18,3.0,788.0,,,,,,,,,,18.0,18.0,18.0,cue1.png,Hard,B,,,,,,,,,,,,,,,,,,,,,,,,,,,12,24,Female,1.2857142857142858,0.25,0.0,0.5,2.2777777777777777,2.625,2.5555555555555554,2.7777777777777777,1.75,2.888888888888889,2.25,2.0,2.5,0.25,0.8819444444444444,0.8888888888888888,0.618486999997493,-0.10957785364480802,0.007907823812997266,-0.5880550303676338,,,0.030775317863741266,0.7854311252110229,0.026005382391561048,-0.15007091705084538,,,,,,,,,,,,,,,,,,,,,,,,
18,240614_093657,LEARNING,1.0,19,3.0,788.0,,,,,,,,,,19.0,19.0,19.0,cue1.png,Hard,B,,,,,,,,,,,,,,,,,,,,,,,,,,,12,24,Female,1.2857142857142858,0.25,0.0,0.5,2.2777777777777777,2.625,2.5555555555555554,2.7777777777777777,1.75,2.888888888888889,2.25,2.0,2.5,0.25,0.8819444444444444,0.8888888888888888,0.6442631461541168,0.2222831753874047,0.013325663551978364,-0.22760340474768126,0.05513348457275172,1.312459452879202,,,0.032946630600427886,0.8575766290523845,,,,,,,,,,,,,,,,,,,,,,,,
19,240614_093726,LEARNING,1.0,20,3.0,788.0,,,,,,,,,,20.0,20.0,20.0,cue1.png,Hard,B,,,,,,,,,,,,,,,,,,,,,,,,,,,12,24,Female,1.2857142857142858,0.25,0.0,0.5,2.2777777777777777,2.625,2.5555555555555554,2.7777777777777777,1.75,2.888888888888889,2.25,2.0,2.5,0.25,1.0,0.9230769230769232,0.8056546749988532,2.3001562024121522,,,0.005987575815673531,-0.9274638734160275,,,,,,,2.5684631014855397e+43,0.5041617898016314,,,,,,,,,,,,,,,,,,,,
20,240614_093752,LEARNING,1.0,21,1.0,788.0,,,,,,,,,,21.0,21.0,21.0,cue2.png,Easy,B,,,,,,,,,,,,,,,,,,,,,,,,,,,12,24,Female,1.2857142857142858,0.25,0.0,0.5,2.2777777777777777,2.625,2.5555555555555554,2.7777777777777777,1.75,2.888888888888889,2.25,2.0,2.5,0.25,0.8819444444444444,0.8888888888888888,0.6698534615413967,0.5517516826684753,0.007482676883078724,-0.6163402712384335,0.0058085201468498675,-0.9356246945188778,0.03412760302665023,1.2245110268802808,0.03374697528486706,0.9737611153356597,1.16583457091732e+43,-0.057405953360874194,1.2429285584054445e+43,0.2804517902263857,,,,,,,,,,,,,,,,,,,,
21,240614_093819,LEARNING,1.0,22,3.0,788.0,,,,,,,,,,22.0,22.0,22.0,cue1.png,Hard,B,,,,,,,,,,,,,,,,,,,,,,,,,,,12,24,Female,1.2857142857142858,0.25,0.0,0.5,2.2777777777777777,2.625,2.5555555555555554,2.7777777777777777,1.75,2.888888888888889,2.25,2.0,2.5,0.25,0.8819444444444444,0.8888888888888888,0.6979574615408917,0.913583211054537,0.013810002533040905,-0.19538008669362292,0.0755599021761933,2.2434343889364516,0.024585846494913265,-0.025261386893588842,,,3.40270279294302e+42,-0.12586475860449683,-1.622300968898495e+42,0.04330365718050969,,,,,,,,,,,,,,,,,,,,
22,240614_093844,LEARNING,1.0,23,3.0,788.0,,,,,,,,,,23.0,23.0,23.0,cue1.png,Hard,B,,,,,,,,,,,,,,,,,,,,,,,,,,,12,24,Female,1.2857142857142858,0.25,0.0,0.5,2.2777777777777777,2.625,2.5555555555555554,2.7777777777777777,1.75,2.888888888888889,2.25,2.0,2.5,0.25,0.8819444444444444,0.8888888888888888,0.526164999995112,-1.2981990593493267,,,0.03606116983086219,0.4432004696347431,,,0.03209136256543847,0.7334190264447256,,,-1.4936746367675197e+43,-0.18140377047986378,,,,,,,,,,,,,,,,,,,,
23,240614_093910,LEARNING,1.0,24,3.0,788.0,,,,,,,,,,24.0,24.0,24.0,cue1.png,Hard,B,,,,,,,,,,,,,,,,,,,,,,,,,,,12,24,Female,1.2857142857142858,0.25,0.0,0.5,2.2777777777777777,2.625,2.5555555555555554,2.7777777777777777,1.75,2.888888888888889,2.25,2.0,2.5,0.25,1.0,1.0,0.6807268230790774,0.691743321721419,0.007830988382323729,-0.5931669305392498,0.04372336331588034,0.7924202999671641,0.02648410615486715,0.2233712992684701,0.028275091020061215,0.17941828446711702,-1.123570920443501e+43,-0.2472518154543368,-2.2646880379668823e+43,-0.3115274315758808,,,,,,,,,,,,,,,,,,,,
24,240614_093936,LEARNING,1.0,25,1.0,788.0,,,,,,,,,,25.0,25.0,25.0,cue2.png,Easy,B,,,,,,,,,,,,,,,,,,,,,,,,,,,12,24,Female,1.2857142857142858,0.25,0.0,0.5,2.2777777777777777,2.625,2.5555555555555554,2.7777777777777777,1.75,2.888888888888889,2.25,2.0,2.5,0.25,1.0,1.0,0.5809822692311942,-0.5924412914159971,0.04248974633009775,1.71269781373483,0.020076426136834163,-0.2853362727028829,0.04760429999271222,2.9896791110745484,0.03189176990031039,0.7044445461805556,-1.3592864310292748e+43,-0.2667982062028616,-2.3576041207815083e+43,-0.3272088462591174,,,,,,,,,,,,,,,,,,,,
25,240614_094002,LEARNING,1.0,26,1.0,788.0,,,,,,,,,,26.0,26.0,26.0,cue2.png,Easy,B,,,,,,,,,,,,,,,,,,,,,,,,,,,12,24,Female,1.2857142857142858,0.25,0.0,0.5,2.2777777777777777,2.625,2.5555555555555554,2.7777777777777777,1.75,2.888888888888889,2.25,2.0,2.5,0.25,1.0,1.0,0.6896492076966052,0.8066166516056484,,,,,0.022605768026085302,-0.284610641846577,,,-1.188013950996425e+43,-0.2525956668329597,-1.6861409291596847e+43,-0.21388623909154647,,,,,,,,,,,,,,,,,,,,
26,240614_094028,LEARNING,1.0,27,3.0,788.0,,,,,,,,,,27.0,27.0,27.0,cue1.png,Hard,B,,,,,,,,,,,,,,,,,,,,,,,,,,,12,24,Female,1.2857142857142858,0.25,0.0,0.5,2.2777777777777777,2.625,2.5555555555555554,2.7777777777777777,1.75,2.888888888888889,2.25,2.0,2.5,0.25,0.8819444444444444,0.8888888888888888,0.5791674923071136,-0.6158060618448201,0.011574383970713295,-0.3441169234920987,,,,,,,-2.985472490492274e+42,-0.1788378404139169,1.961156929870604e+43,0.40166694038161743,,,,,,,,,,,,,,,,,,,,
27,240614_094056,LEARNING,1.0,28,1.0,788.0,,,,,,,,,,28.0,28.0,28.0,cue2.png,Easy,B,,,,,,,,,,,,,,,,,,,,,,,,,,,12,24,Female,1.2857142857142858,0.25,0.0,0.5,2.2777777777777777,2.625,2.5555555555555554,2.7777777777777777,1.75,2.888888888888889,2.25,2.0,2.5,0.25,0.7083333333333333,0.6239316239316239,0.7680133363623596,1.8155339746301795,,,0.04758190567779281,0.9682811042645566,,,0.03328264791242618,0.9063556108284246,-3.845188740600106e+41,-0.1572697834034836,2.980289673188004e+42,0.12098141789685068,,,,,,,,,,,,,,,,,,,,
28,240614_094121,LEARNING,1.0,29,1.0,788.0,,,,,,,,,,29.0,29.0,29.0,cue2.png,Easy,B,,,,,,,,,,,,,,,,,,,,,,,,,,,12,24,Female,1.2857142857142858,0.25,0.0,0.5,2.2777777777777777,2.625,2.5555555555555554,2.7777777777777777,1.75,2.888888888888889,2.25,2.0,2.5,0.25,1.0,1.0,0.5603195769251145,-0.8584679615630973,0.00799964737987222,-0.5819459618929498,,,0.03201699787391432,0.9480654806661449,0.022597849175166718,-0.6447359081944958,5.974128625375852e+42,-0.10454155675974891,1.4465333113273738e+43,0.31481409291209594,,,,,,,,,,,,,,,,,,,,
29,240614_094146,LEARNING,1.0,30,3.0,788.0,,,,,,,,,,30.0,30.0,30.0,cue1.png,Hard,B,,,,,,,,,,,,,,,,,,,,,,,,,,,12,24,Female,1.2857142857142858,0.25,0.0,0.5,2.2777777777777777,2.625,2.5555555555555554,2.7777777777777777,1.75,2.888888888888889,2.25,2.0,2.5,0.25,0.8819444444444444,0.8888888888888888,0.5223187230831872,-1.3477188520358765,0.011638824596950433,-0.3398296559459545,,,0.023085839033558334,-0.22173128626913968,0.03384803355277076,0.9884315481746015,1.000493689017681e+43,-0.07111662295696772,1.9766769353751218e+43,0.4042862462631192,,,,,,,,,,,,,,,,,,,,
30,240614_094214,LEARNING,1.0,31,3.0,788.0,,,,,,,,,,31.0,31.0,31.0,cue1.png,Hard,B,,,,,,,,,,,,,,,,,,,,,,,,,,,12,24,Female,1.2857142857142858,0.25,0.0,0.5,2.2777777777777777,2.625,2.5555555555555554,2.7777777777777777,1.75,2.888888888888889,2.25,2.0,2.5,0.25,1.0,1.0,0.8124467000016011,2.3876017186242495,0.008491133678671131,-0.5492471291649595,0.007449359504183852,-0.8608401510208123,0.021945721280641314,-0.37106309025200235,0.022485737201293803,-0.661010986100156,1.155523123756883e+43,-0.058261016207098414,2.0427926818270672e+43,0.4154445775852989,,,,,,,,,,,,,,,,,,,,
31,240614_094240,LEARNING,1.0,32,1.0,788.0,,,,,,,,,,32.0,32.0,32.0,cue2.png,Easy,B,,,,,,,,,,,,,,,,,,,,,,,,,,,12,24,Female,1.2857142857142858,0.25,0.0,0.5,2.2777777777777777,2.625,2.5555555555555554,2.7777777777777777,1.75,2.888888888888889,2.25,2.0,2.5,0.25,1.0,1.0,0.6267339538518661,-0.003400515269104425,0.02197706511934619,0.34797872929218615,0.02194364232781955,-0.2002341511387573,0.022130135972953657,-0.3469085863742339,0.03726333482094831,1.484224212336394,1.0087851541112438e+43,-0.07042906439879826,1.6388000774566104e+43,0.34726288754641754,,,,,,,,,,,,,,,,,,,,
32,240614_094307,LEARNING,1.0,33,1.0,788.0,,,,,,,,,,33.0,33.0,33.0,cue2.png,Easy,B,,,,,,,,,,,,,,,,,,,,,,,,,,,12,24,Female,1.2857142857142858,0.25,0.0,0.5,2.2777777777777777,2.625,2.5555555555555554,2.7777777777777777,1.75,2.888888888888889,2.25,2.0,2.5,0.25,1.0,0.9230769230769232,0.6023784833353906,-0.3169707231290667,,,0.007072427324680313,-0.8780195908288041,0.022499355959259656,-0.298548417891167,0.028659014926032452,0.23515177361797382,5.904496388170816e+42,-0.1051189726937794,7.649889750234566e+42,0.19979009449499283,,,,,,,,,,,,,,,,,,,,
33,240614_094334,LEARNING,1.0,34,1.0,788.0,,,,,,,,,,34.0,34.0,34.0,cue2.png,Easy,B,,,,,,,,,,,,,,,,,,,,,,,,,,,12,24,Female,1.2857142857142858,0.25,0.0,0.5,2.2777777777777777,2.625,2.5555555555555554,2.7777777777777777,1.75,2.888888888888889,2.25,2.0,2.5,0.25,1.0,1.0,0.7559200230753049,1.6598357811351225,,,0.029389946344508373,0.1391460838287152,,,,,2.100779206812404e+41,-0.15233916969081335,-3.0549983761253985e+42,0.019124073326177854,,,,,,,,,,,,,,,,,,,,
34,240614_094358,LEARNING,1.0,35,3.0,788.0,,,,,,,,,,35.0,35.0,35.0,cue1.png,Hard,B,,,,,,,,,,,,,,,,,,,,,,,,,,,12,24,Female,1.2857142857142858,0.25,0.0,0.5,2.2777777777777777,2.625,2.5555555555555554,2.7777777777777777,1.75,2.888888888888889,2.25,2.0,2.5,0.25,0.8819444444444444,0.8888888888888888,0.4917556153870044,-1.7412107382490964,0.08191868853833208,4.335925336169083,,,0.021652722237605147,-0.4094398943583303,,,-4.945457627979657e+42,-0.19509075277569748,,,,,,,,,,,,,,,,,,,,,,
35,240614_094423,LEARNING,1.0,36,3.0,788.0,,,,,,,,,,36.0,36.0,36.0,cue1.png,Hard,B,,,,,,,,,,,,,,,,,,,,,,,,,,,12,24,Female,1.2857142857142858,0.25,0.0,0.5,2.2777777777777777,2.625,2.5555555555555554,2.7777777777777777,1.75,2.888888888888889,2.25,2.0,2.5,0.25,0.7083333333333333,0.7777777777777778,0.507324123078993,-1.5407703406906132,0.007973810089909555,-0.5836649298981585,0.01199886927392017,-0.6534871217623447,0.019975351467844557,-0.629140712414711,0.03341258877194578,0.9252188735001453,-9.569000067623519e+42,-0.23343085476689868,-1.7578381740756869e+43,-0.22598655795040848,,,,,,,,,,,,,,,,,,,,
36,240614_094448,LEARNING,1.0,37,1.0,788.0,,,,,,,,,,37.0,37.0,37.0,cue2.png,Easy,B,,,,,,,,,,,,,,,,,,,,,,,,,,,12,24,Female,1.2857142857142858,0.25,0.0,0.5,2.2777777777777777,2.625,2.5555555555555554,2.7777777777777777,1.75,2.888888888888889,2.25,2.0,2.5,0.25,1.0,1.0,0.6059335307733048,-0.27120043249539977,0.00769665142647743,-0.6021044363438679,,,0.026519954339067953,0.22806666867441017,0.02335956211333676,-0.5341595176251941,,,-1.8028780541986586e+43,-0.2335879227098407,,,,,,,,,,,,,,,,,,,,
37,240614_094516,LEARNING,1.0,38,3.0,788.0,,,,,,,,,,38.0,38.0,38.0,cue1.png,Hard,B,,,,,,,,,,,,,,,,,,,,,,,,,,,12,24,Female,1.2857142857142858,0.25,0.0,0.5,2.2777777777777777,2.625,2.5555555555555554,2.7777777777777777,1.75,2.888888888888889,2.25,2.0,2.5,0.25,1.0,0.9230769230769232,0.7251339166687103,1.2634728458108189,0.010040012226000535,-0.4461994538607525,0.06711461802952566,1.8585236316480807,0.017929714615344667,-0.8970767573504722,,,-8.087807169739137e+42,-0.22114826246567948,-1.3184274197441993e+43,-0.15182735917431467,,,,,,,,,,,,,,,,,,,,
38,240614_094542,LEARNING,1.0,39,3.0,788.0,,,,,,,,,,39.0,39.0,39.0,cue1.png,Hard,B,,,,,,,,,,,,,,,,,,,,,,,,,,,12,24,Female,1.2857142857142858,0.25,0.0,0.5,2.2777777777777777,2.625,2.5555555555555554,2.7777777777777777,1.75,2.888888888888889,2.25,2.0,2.5,0.25,0.8819444444444444,0.8888888888888888,0.63014436154089,0.04050757705089515,0.006413245364399713,-0.6874900925636317,0.009373353564359463,-0.7731502642320136,0.023207364933056487,-0.20581391128197885,0.021407348355958096,-0.8175586042013987,-2.99655275631669e+42,-0.1789297220236011,-3.804080570065532e+42,0.0064818394317084985,,,,,,,,,,,,,,,,,,,,
39,240614_094607,LEARNING,1.0,40,3.0,788.0,,,,,,,,,,40.0,40.0,40.0,cue1.png,Hard,B,,,,,,,,,,,,,,,,,,,,,,,,,,,12,24,Female,1.2857142857142858,0.25,0.0,0.5,2.2777777777777777,2.625,2.5555555555555554,2.7777777777777777,1.75,2.888888888888889,2.25,2.0,2.5,0.25,0.8819444444444444,0.8888888888888888,0.5813334461552306,-0.5879199818814008,,,0.05131313483782141,1.1383393541305198,0.017904396899373856,-0.9003928535948942,0.04041470493447217,1.941702502436867,3.8285467692065495e+42,-0.12233350487525887,7.808277752618587e+42,0.20246320325183587,,,,,,,,,,,,,,,,,,,,
40,240614_094632,LEARNING,1.0,41,1.0,788.0,,,,,,,,,,41.0,41.0,41.0,cue2.png,Easy,B,,,,,,,,,,,,,,,,,,,,,,,,,,,12,24,Female,1.2857142857142858,0.25,0.0,0.5,2.2777777777777777,2.625,2.5555555555555554,2.7777777777777777,1.75,2.888888888888889,2.25,2.0,2.5,0.25,1.0,1.0,0.5624153538463781,-0.8314853908759825,0.011322325461088831,-0.3608865039748479,0.007941705909762647,-0.8384004764606238,0.026069614498229192,0.16908147993776748,0.0244153404427048,-0.38089422429398967,8.254543767023618e+42,-0.08563152181265118,1.5420595248521629e+43,0.3309360184391352,,,,,,,,,,,,,,,,,,,,
41,240614_094659,LEARNING,1.0,42,3.0,788.0,,,,,,,,,,42.0,42.0,42.0,cue1.png,Hard,B,,,,,,,,,,,,,,,,,,,,,,,,,,,12,24,Female,1.2857142857142858,0.25,0.0,0.5,2.2777777777777777,2.625,2.5555555555555554,2.7777777777777777,1.75,2.888888888888889,2.25,2.0,2.5,0.25,1.0,1.0,0.71177915384984,1.091533824957132,0.0061177840171498885,-0.7071472858463717,0.0115243447208269,-0.6751145296637268,0.0239344593283175,-0.11057960988428968,0.02032978389113047,-0.9739865485824363,,,,,,,,,,,,,,,,,,,,,,,,
42,240614_094726,LEARNING,1.0,43,3.0,788.0,,,,,,,,,,43.0,43.0,43.0,cue1.png,Hard,B,,,,,,,,,,,,,,,,,,,,,,,,,,,12,24,Female,1.2857142857142858,0.25,0.0,0.5,2.2777777777777777,2.625,2.5555555555555554,2.7777777777777777,1.75,2.888888888888889,2.25,2.0,2.5,0.25,0.7083333333333333,0.7777777777777778,0.6738978307694197,0.6038218612608255,0.0308770129335715,0.9400967711915885,0.039751150574826595,0.611378740237903,,,0.028511173381423817,0.2136899031943368,8.79342096576374e+42,-0.08116295533356409,1.3988964244741895e+43,0.3067744322383507,,,,,,,,,,,,,,,,,,,,
43,240614_094750,LEARNING,1.0,44,1.0,788.0,,,,,,,,,,44.0,44.0,44.0,cue2.png,Easy,B,,,,,,,,,,,,,,,,,,,,,,,,,,,12,24,Female,1.2857142857142858,0.25,0.0,0.5,2.2777777777777777,2.625,2.5555555555555554,2.7777777777777777,1.75,2.888888888888889,2.25,2.0,2.5,0.25,1.0,1.0,0.5165587076894903,-1.421877518897036,0.026265165621431906,0.6332682305075199,0.012197017113191764,-0.6444561367126376,0.023470174567377315,-0.1713912942349289,0.026279586447320702,-0.11026524585112973,2.004741676756243e+42,-0.13745716258348206,2.969196541992173e+42,0.12079419951102567,,,,,,,,,,,,,,,,,,,,
44,240614_094815,LEARNING,1.0,45,1.0,788.0,,,,,,,,,,45.0,45.0,45.0,cue2.png,Easy,B,,,,,,,,,,,,,,,,,,,,,,,,,,,12,24,Female,1.2857142857142858,0.25,0.0,0.5,2.2777777777777777,2.625,2.5555555555555554,2.7777777777777777,1.75,2.888888888888889,2.25,2.0,2.5,0.25,0.8819444444444444,0.8888888888888888,0.565593169229732,-0.790571862655503,0.00697560421300604,-0.6500760731522646,0.0071126661932302045,-0.8761856237180495,,,0.016612113129640383,-1.5136736059116778,-5.518480817470118e+42,-0.19984247027698204,-1.0159180848346737e+43,-0.10077296490189881,,,,,,,,,,,,,,,,,,,,
45,240614_094842,LEARNING,1.0,46,1.0,788.0,,,,,,,,,,46.0,46.0,46.0,cue2.png,Easy,B,,,,,,,,,,,,,,,,,,,,,,,,,,,12,24,Female,1.2857142857142858,0.25,0.0,0.5,2.2777777777777777,2.625,2.5555555555555554,2.7777777777777777,1.75,2.888888888888889,2.25,2.0,2.5,0.25,1.0,0.9230769230769232,0.604073599994687,-0.29514654679698127,0.008453832548442461,-0.5517287922772233,0.007534879194936665,-0.8569424196527421,0.023798981533413234,-0.1283243941058426,0.02962404973803133,0.37524400644904965,-1.1140372494393418e+43,-0.2464612486466962,-2.0111418844696568e+43,-0.268736536244425,,,,,,,,,,,,,,,,,,,,
46,240614_094907,LEARNING,1.0,47,3.0,788.0,,,,,,,,,,47.0,47.0,47.0,cue1.png,Hard,B,,,,,,,,,,,,,,,,,,,,,,,,,,,12,24,Female,1.2857142857142858,0.25,0.0,0.5,2.2777777777777777,2.625,2.5555555555555554,2.7777777777777777,1.75,2.888888888888889,2.25,2.0,2.5,0.25,0.8819444444444444,0.8888888888888888,0.6168271000004517,-0.13094862481290745,0.026869416280698014,0.6734693333285047,,,0.05352249573838003,3.764840136997631,,,,,-1.3602878415058405e+43,-0.15889212786208967,,,,,,,,,,,,,,,,,,,,
47,240614_094934,LEARNING,1.0,48,3.0,788.0,,,,,,,,,,48.0,48.0,48.0,cue1.png,Hard,B,,,,,,,,,,,,,,,,,,,,,,,,,,,12,24,Female,1.2857142857142858,0.25,0.0,0.5,2.2777777777777777,2.625,2.5555555555555554,2.7777777777777777,1.75,2.888888888888889,2.25,2.0,2.5,0.25,1.0,1.0,0.6619320769207732,0.4497659616228747,0.007820505043312203,-0.59386439240056,0.010971952754923076,-0.7002909010235879,,,0.029484129065849768,0.35493199372016293,3.1848509053920725e+42,-0.12767126599503403,1.0633873709815062e+43,0.2501506870435007,,,,,,,,,,,,,,,,,,,,
48,240614_095001,LEARNING,1.0,49,1.0,788.0,,,,,,,,,,49.0,49.0,49.0,cue2.png,Easy,B,,,,,,,,,,,,,,,,,,,,,,,,,,,12,24,Female,1.2857142857142858,0.25,0.0,0.5,2.2777777777777777,2.625,2.5555555555555554,2.7777777777777777,1.75,2.888888888888889,2.25,2.0,2.5,0.25,1.0,1.0,0.6954259538391713,0.8809907224105349,0.03614113513171496,1.2903214908581273,0.006585487598563899,-0.9002128451324165,,,0.024104920272798695,-0.4259573185753997,,,,,,,,,,,,,,,,,,,,,,,,
49,240614_095026,LEARNING,1.0,50,1.0,788.0,,,,,,,,,,50.0,50.0,50.0,cue2.png,Easy,B,,,,,,,,,,,,,,,,,,,,,,,,,,,12,24,Female,1.2857142857142858,0.25,0.0,0.5,2.2777777777777777,2.625,2.5555555555555554,2.7777777777777777,1.75,2.888888888888889,2.25,2.0,2.5,0.25,0.8819444444444444,0.8888888888888888,0.5898879384644365,-0.4777831676605637,0.042592551943292964,1.7195375233210055,0.01736307767187532,-0.4090025690993929,,,,,-4.838426237672594e+42,-0.1942032094095012,-8.110135042231521e+42,-0.06619129075325343,,,,,,,,,,,,,,,,,,,,
0,240614_095226,TrueCHOICE,9.0,1,3.0,788.0,,,,,,,,,,,1.0,1.0,,,B,,,,,,True,cue2.png,Easy,cue1.png,Hard,Right,Hard,Hard,0.0164791999850422,,,,,,,,,,,,,12,24,Female,1.2857142857142858,0.25,0.0,0.5,2.2777777777777777,2.625,2.5555555555555554,2.7777777777777777,1.75,2.888888888888889,2.25,2.0,2.5,0.25,1.0,1.0,0.4985614769214477,-1.398167339213932,,,,,,,,,,,,,,,0.015321705793586852,-1.7446822543146157,,,,,,,,,,,,,,,,
1,240614_095248,TrueCHOICE,9.0,2,1.0,788.0,,,,,,,,,,,2.0,2.0,,,B,,,,,,True,cue2.png,Easy,cue1.png,Hard,Left,Easy,Easy,0.0160128000134136,,,,,,,,,,,,,12,24,Female,1.2857142857142858,0.25,0.0,0.5,2.2777777777777777,2.625,2.5555555555555554,2.7777777777777777,1.75,2.888888888888889,2.25,2.0,2.5,0.25,1.0,1.0,0.5127331692358263,-0.926015710431591,,,,,,,,,,,,,,,0.026157167902084694,0.22226099145654382,8510228.759459306,-0.44706192316626026,,,,,,,,,,,,,,
2,240614_095313,TrueCHOICE,9.0,3,1.0,788.0,,,,,,,,,,,3.0,3.0,,,B,,,,,,True,cue1.png,Hard,cue2.png,Easy,Right,Easy,Easy,0.0165685999963898,,,,,,,,,,,,,12,24,Female,1.2857142857142858,0.25,0.0,0.5,2.2777777777777777,2.625,2.5555555555555554,2.7777777777777777,1.75,2.888888888888889,2.25,2.0,2.5,0.25,1.0,1.0,0.6033723999996885,2.0937690469128483,,,,,,,,,,,,,0.005617964331174828,-1.3126421116775644,,,236726.535761288,-0.4472544605495786,,,,,,,,,,,,,,
3,240614_095336,TrueCHOICE,9.0,4,1.0,788.0,,,,,,,,,,,4.0,4.0,,,B,,,,,,True,cue2.png,Easy,cue1.png,Hard,Left,Easy,Easy,0.0143895999935921,,,,,,,,,,,,,12,24,Female,1.2857142857142858,0.25,0.0,0.5,2.2777777777777777,2.625,2.5555555555555554,2.7777777777777777,1.75,2.888888888888889,2.25,2.0,2.5,0.25,0.8819444444444444,0.8888888888888888,0.5394025692277444,-0.03748381420519703,,,,,,,,,,,,,,,0.03290752682874966,1.4476423147802266,,,,,,,,,,,,,,,,
4,240614_095359,TrueCHOICE,9.0,5,1.0,788.0,,,,,,,,,,,5.0,5.0,,,B,,,,,,True,cue1.png,Hard,cue2.png,Easy,Right,Easy,Easy,0.0167892999888863,,,,,,,,,,,,,12,24,Female,1.2857142857142858,0.25,0.0,0.5,2.2777777777777777,2.625,2.5555555555555554,2.7777777777777777,1.75,2.888888888888889,2.25,2.0,2.5,0.25,1.0,1.0,0.5654414000029926,0.8300397030565592,,,,,,,,,,,,,0.007742329794405126,0.8167465696311871,,,115304982891.53075,2.2360679717819822,,,,,,,,,,,,,,
5,240614_095422,TrueCHOICE,9.0,6,1.0,788.0,,,,,,,,,,,6.0,6.0,,,B,,,,,,True,cue1.png,Hard,cue2.png,Easy,Right,Easy,Easy,0.0163976999756414,,,,,,,,,,,,,12,24,Female,1.2857142857142858,0.25,0.0,0.5,2.2777777777777777,2.625,2.5555555555555554,2.7777777777777777,1.75,2.888888888888889,2.25,2.0,2.5,0.25,1.0,1.0,0.5599696384563756,0.6477395889112241,,,,,,,,,,,,,0.006323849608871453,-0.6050877164257857,0.021089104806629393,-0.6977359938985978,-960817.6221281615,-0.44728232928186806,,,,,,,,,,,,,,
6,240614_095445,TrueCHOICE,9.0,7,1.0,788.0,,,,,,,,,,,7.0,7.0,,,B,,,,,,True,cue2.png,Easy,cue1.png,Hard,Left,Easy,Easy,0.0163335999823175,,,,,,,,,,,,,12,24,Female,1.2857142857142858,0.25,0.0,0.5,2.2777777777777777,2.625,2.5555555555555554,2.7777777777777777,1.75,2.888888888888889,2.25,2.0,2.5,0.25,1.0,1.0,0.5437457461510069,0.10721577515349001,,,,,,,,,,,,,0.006616783457940853,-0.3114612037672313,0.026435027502270104,0.2727003782021023,1697609.3677039198,-0.4472204635129923,,,,,,,,,,,,,,
7,240614_095508,TrueCHOICE,9.0,8,1.0,788.0,,,,,,,,,,,8.0,8.0,,,B,,,,,,True,cue1.png,Hard,cue2.png,Easy,Right,Easy,Easy,0.0167649000068195,,,,,,,,,,,,,12,24,Female,1.2857142857142858,0.25,0.0,0.5,2.2777777777777777,2.625,2.5555555555555554,2.7777777777777777,1.75,2.888888888888889,2.25,2.0,2.5,0.25,1.0,1.0,0.5530668076893422,0.4177612124715328,,,,,,,,,,,,,0.006597868761923847,-0.3304206249714173,0.027686150104491183,0.49981456377434547,,,,,,,,,,,,,,,,
8,240614_095531,TrueCHOICE,9.0,9,1.0,788.0,,,,,,,,,,,9.0,9.0,,,B,,,,,,True,cue2.png,Easy,cue1.png,Hard,Left,Easy,Easy,0.0162074000108987,,,,,,,,,,,,,12,24,Female,1.2857142857142858,0.25,0.0,0.5,2.2777777777777777,2.625,2.5555555555555554,2.7777777777777777,1.75,2.888888888888889,2.25,2.0,2.5,0.25,1.0,1.0,0.5156404999993706,-0.829153534414429,,,,,,,,,,,,,,,,,,,,,,,,,,,,,,,,
9,240614_095553,TrueCHOICE,9.0,10,1.0,788.0,,,,,,,,,,,10.0,10.0,,,B,,,,,,True,cue1.png,Hard,cue2.png,Easy,Right,Easy,Easy,0.0165702999802306,,,,,,,,,,,,,12,24,Female,1.2857142857142858,0.25,0.0,0.5,2.2777777777777777,2.625,2.5555555555555554,2.7777777777777777,1.75,2.888888888888889,2.25,2.0,2.5,0.25,1.0,1.0,0.5133427999949512,-0.9057049282404905,,,,,,,,,,,,,0.008666263602673044,1.742865087210811,,,480168.57162874716,-0.44724879527128314,,,,,,,,,,,,,,
0,240614_095925,FalseCHOICE,9.0,1,2.0,788.0,,,,,,,,,,,1.0,1.0,,,B,,,,,,False,cue2.png,Easy,cue1.png,Hard,Left,Easy,Mid,0.0168037000112235,,,,,,,,,,,,,12,24,Female,1.2857142857142858,0.25,0.0,0.5,2.2777777777777777,2.625,2.5555555555555554,2.7777777777777777,1.75,2.888888888888889,2.25,2.0,2.5,0.25,0.8819444444444444,0.8888888888888888,0.5904486461569411,-0.33614005047806167,,,,,,,,,,,,,,,,,,,0.013460812315885019,-0.2667380791555998,0.030620402934817114,0.44020379785218533,6.597577602488251e+43,-0.17230806108436134,,,,,,,,
1,240614_095948,FalseCHOICE,9.0,2,2.0,788.0,,,,,,,,,,,2.0,2.0,,,B,,,,,,False,cue1.png,Hard,cue2.png,Easy,Left,Hard,Mid,0.0160056000167969,,,,,,,,,,,,,12,24,Female,1.2857142857142858,0.25,0.0,0.5,2.2777777777777777,2.625,2.5555555555555554,2.7777777777777777,1.75,2.888888888888889,2.25,2.0,2.5,0.25,0.7083333333333333,0.7777777777777778,0.5795130307647364,-0.4465696368562939,,,,,,,,,,,,,,,,,,,0.04469388474074336,2.382567557889046,0.021778644727285225,-0.4250970266483778,1.2164069714617362e+43,-0.17379637429827796,,,,,,,,
2,240614_100014,FalseCHOICE,9.0,3,2.0,788.0,,,,,,,,,,,3.0,3.0,,,B,,,,,,False,cue1.png,Hard,cue2.png,Easy,Right,Easy,Mid,0.016455400007544,,,,,,,,,,,,,12,24,Female,1.2857142857142858,0.25,0.0,0.5,2.2777777777777777,2.625,2.5555555555555554,2.7777777777777777,1.75,2.888888888888889,2.25,2.0,2.5,0.25,1.0,1.0,0.7541406307696329,1.316847687834033,,,,,,,,,,,,,,,,,,,0.00776410175277905,-0.7499543059215733,0.02370903969298901,-0.23617845228470558,-4.815726813636067e+42,-0.17426599805257612,,,,,,,,
3,240614_100039,FalseCHOICE,9.0,4,2.0,788.0,,,,,,,,,,,4.0,4.0,,,B,,,,,,False,cue1.png,Hard,cue2.png,Easy,Left,Hard,Mid,0.0167690000089351,,,,,,,,,,,,,12,24,Female,1.2857142857142858,0.25,0.0,0.5,2.2777777777777777,2.625,2.5555555555555554,2.7777777777777777,1.75,2.888888888888889,2.25,2.0,2.5,0.25,0.8819444444444444,0.811965811965812,0.5855990333341955,-0.3851122133516867,,,,,,,,,,,,,,,,,,,0.0054294939429320385,-0.9479844435520115,0.016011643566351045,-0.9894860024972237,-6.935485743365935e+42,-0.1743246259133476,,,,,,,,
4,240614_100107,FalseCHOICE,9.0,5,2.0,788.0,,,,,,,,,,,5.0,5.0,,,B,,,,,,False,cue2.png,Easy,cue1.png,Hard,Right,Hard,Mid,0.0166391999810002,,,,,,,,,,,,,12,24,Female,1.2857142857142858,0.25,0.0,0.5,2.2777777777777777,2.625,2.5555555555555554,2.7777777777777777,1.75,2.888888888888889,2.25,2.0,2.5,0.25,1.0,1.0,0.8583430538464409,2.369100356502686,,,,,,,,,,,,,,,,,,,0.006767363593783174,-0.8345013523140883,0.02066895616250298,-0.5336969688213001,2.139973514457114e+47,5.7445623582395795,,,,,,,,
5,240614_100131,FalseCHOICE,9.0,6,2.0,788.0,,,,,,,,,,,6.0,6.0,,,B,,,,,,False,cue1.png,Hard,cue2.png,Easy,Left,Hard,Mid,0.016175500000827,,,,,,,,,,,,,12,24,Female,1.2857142857142858,0.25,0.0,0.5,2.2777777777777777,2.625,2.5555555555555554,2.7777777777777777,1.75,2.888888888888889,2.25,2.0,2.5,0.25,0.7083333333333333,0.7777777777777778,0.5650182846181381,-0.5929398925958396,,,,,,,,,,,,,,,,,,,0.0298652009723605,1.1247433207108384,0.0378678256301733,1.1494745884121054,-1.0112749117370777e+42,-0.17416077529668245,,,,,,,,
6,240614_100155,FalseCHOICE,9.0,7,2.0,788.0,,,,,,,,,,,7.0,7.0,,,B,,,,,,False,cue1.png,Hard,cue2.png,Easy,Left,Hard,Mid,0.0160546999832149,,,,,,,,,,,,,12,24,Female,1.2857142857142858,0.25,0.0,0.5,2.2777777777777777,2.625,2.5555555555555554,2.7777777777777777,1.75,2.888888888888889,2.25,2.0,2.5,0.25,0.7083333333333333,0.7777777777777778,0.5395772538479202,-0.8498474743121542,,,,,,,,,,,,,,,,,,,,,0.024601937272704516,-0.14879481276556333,,,,,,,,,,
7,240614_100218,FalseCHOICE,9.0,8,2.0,788.0,,,,,,,,,,,8.0,8.0,,,B,,,,,,False,cue2.png,Easy,cue1.png,Hard,Right,Hard,Mid,0.0163585999980568,,,,,,,,,,,,,12,24,Female,1.2857142857142858,0.25,0.0,0.5,2.2777777777777777,2.625,2.5555555555555554,2.7777777777777777,1.75,2.888888888888889,2.25,2.0,2.5,0.25,0.8819444444444444,0.8888888888888888,0.5528882000004299,-0.7154314195035357,,,,,,,,,,,,,,,,,,,0.010794076432844309,-0.4929405580966715,0.023786380949733225,-0.22860943132101655,,,,,,,,,,
8,240614_100242,FalseCHOICE,9.0,9,2.0,788.0,,,,,,,,,,,9.0,9.0,,,B,,,,,,False,cue2.png,Easy,cue1.png,Hard,Right,Hard,Mid,0.0167810999846551,,,,,,,,,,,,,12,24,Female,1.2857142857142858,0.25,0.0,0.5,2.2777777777777777,2.625,2.5555555555555554,2.7777777777777777,1.75,2.888888888888889,2.25,2.0,2.5,0.25,0.8819444444444444,0.8888888888888888,0.5592965307676843,-0.6507190745076389,,,,,,,,,,,,,,,,,,,,,0.032243046898293666,0.5990042452870694,,,,,,,,,,
9,240614_100308,FalseCHOICE,9.0,10,2.0,788.0,,,,,,,,,,,10.0,10.0,,,B,,,,,,False,cue1.png,Hard,cue2.png,Easy,Left,Hard,Mid,0.0161249999946448,,,,,,,,,,,,,12,24,Female,1.2857142857142858,0.25,0.0,0.5,2.2777777777777777,2.625,2.5555555555555554,2.7777777777777777,1.75,2.888888888888889,2.25,2.0,2.5,0.25,1.0,1.0,0.7391383846160562,1.1653526161744316,,,,,,,,,,,,,,,,,,,0.028374113258105755,0.9982637021524338,0.02198185892015613,-0.40520942007578253,,,,,,,,,,
10,240614_100333,FalseCHOICE,9.0,11,2.0,788.0,,,,,,,,,,,11.0,11.0,,,B,,,,,,False,cue2.png,Easy,cue1.png,Hard,Right,Hard,Mid,0.0151785000052768,,,,,,,,,,,,,12,24,Female,1.2857142857142858,0.25,0.0,0.5,2.2777777777777777,2.625,2.5555555555555554,2.7777777777777777,1.75,2.888888888888889,2.25,2.0,2.5,0.25,0.0416666666666666,0.6666666666666667,0.6659375153786431,0.42615857701896054,,,,,,,,,,,,,,,,,,,0.006727157771729611,-0.8379117600242096,0.024367718279046446,-0.17171671173282704,,,,,,,,,,
11,240614_100359,FalseCHOICE,9.0,12,2.0,788.0,,,,,,,,,,,12.0,12.0,,,B,,,,,,False,cue1.png,Hard,cue2.png,Easy,Left,Hard,Mid,0.0162754000048153,,,,,,,,,,,,,12,24,Female,1.2857142857142858,0.25,0.0,0.5,2.2777777777777777,2.625,2.5555555555555554,2.7777777777777777,1.75,2.888888888888889,2.25,2.0,2.5,0.25,0.9375,0.8461538461538461,0.752550554543797,1.3007908447912464,,,,,,,,,,,,,,,,,,,0.025045406534052978,0.7159103887114352,0.03572996272840227,0.9402521138599514,,,,,,,,,,
12,240614_100425,FalseCHOICE,9.0,13,2.0,788.0,,,,,,,,,,,13.0,13.0,,,B,,,,,,False,cue2.png,Easy,cue1.png,Hard,Right,Hard,Mid,0.0166142999951262,,,,,,,,,,,,,12,24,Female,1.2857142857142858,0.25,0.0,0.5,2.2777777777777777,2.625,2.5555555555555554,2.7777777777777777,1.75,2.888888888888889,2.25,2.0,2.5,0.25,1.0,1.0,0.7713563076887602,1.4906943359847789,,,,,,,,,,,,,,,,,,,0.0140970309456728,-0.21277164321354772,0.018912870812610866,-0.7055566900994252,,,,,,,,,,
13,240614_100450,FalseCHOICE,9.0,14,2.0,788.0,,,,,,,,,,,14.0,14.0,,,B,,,,,,False,cue1.png,Hard,cue2.png,Easy,Left,Hard,Mid,0.016161200008355,,,,,,,,,,,,,12,24,Female,1.2857142857142858,0.25,0.0,0.5,2.2777777777777777,2.625,2.5555555555555554,2.7777777777777777,1.75,2.888888888888889,2.25,2.0,2.5,0.25,0.8819444444444444,0.8888888888888888,0.6358426384596476,0.12225571549024679,,,,,,,,,,,,,,,,,,,0.012959068676229426,-0.3092978451244737,0.015299225167141026,-1.0592070029765932,-1.547145568778735e+42,-0.17417559629818025,,,,,,,,
14,240614_100514,FalseCHOICE,9.0,15,2.0,788.0,,,,,,,,,,,15.0,15.0,,,B,,,,,,False,cue2.png,Easy,cue1.png,Hard,Right,Hard,Mid,0.016595099994447,,,,,,,,,,,,,12,24,Female,1.2857142857142858,0.25,0.0,0.5,2.2777777777777777,2.625,2.5555555555555554,2.7777777777777777,1.75,2.888888888888889,2.25,2.0,2.5,0.25,1.0,1.0,0.634430776921083,0.1079985127508228,,,,,,,,,,,,,,,,,,,,,,,,,,,,,,,,
15,240614_100541,FalseCHOICE,9.0,16,2.0,788.0,,,,,,,,,,,16.0,16.0,,,B,,,,,,False,cue2.png,Easy,cue1.png,Hard,Right,Hard,Mid,0.0180351999879349,,,,,,,,,,,,,12,24,Female,1.2857142857142858,0.25,0.0,0.5,2.2777777777777777,2.625,2.5555555555555554,2.7777777777777777,1.75,2.888888888888889,2.25,2.0,2.5,0.25,1.0,1.0,0.863535600002461,2.421535514808264,,,,,,,,,,,,,,,,,,,0.01133727441484708,-0.446864480272005,0.01901634778942528,-0.6954298905135616,,,,,,,,,,
16,240614_100606,FalseCHOICE,9.0,17,2.0,788.0,,,,,,,,,,,17.0,17.0,,,B,,,,,,False,cue1.png,Hard,cue2.png,Easy,Left,Hard,Mid,0.0162096999993082,,,,,,,,,,,,,12,24,Female,1.2857142857142858,0.25,0.0,0.5,2.2777777777777777,2.625,2.5555555555555554,2.7777777777777777,1.75,2.888888888888889,2.25,2.0,2.5,0.25,1.0,1.0,0.7419642692279572,1.1938888491757578,,,,,,,,,,,,,,,,,,,0.0059008022532467865,-0.9080063156778848,,,,,,,,,,,,
17,240614_100631,FalseCHOICE,9.0,18,2.0,788.0,,,,,,,,,,,18.0,18.0,,,B,,,,,,False,cue1.png,Hard,cue2.png,Easy,Left,Hard,Mid,0.0170005999971181,,,,,,,,,,,,,12,24,Female,1.2857142857142858,0.25,0.0,0.5,2.2777777777777777,2.625,2.5555555555555554,2.7777777777777777,1.75,2.888888888888889,2.25,2.0,2.5,0.25,1.0,1.0,0.6934491076882785,0.7039750190204992,,,,,,,,,,,,,,,,,,,0.013262374163839071,-0.2835703429709787,,,,,,,,,,,,
18,240614_100701,FalseCHOICE,9.0,19,2.0,788.0,,,,,,,,,,,20.0,19.0,,,B,,,,,,False,cue2.png,Easy,cue1.png,Hard,Right,Hard,Mid,0.0167880000080913,,,,,,,,,,,,,12,24,Female,1.2857142857142858,0.25,0.0,0.5,2.2777777777777777,2.625,2.5555555555555554,2.7777777777777777,1.75,2.888888888888889,2.25,2.0,2.5,0.25,1.0,1.0,0.6055159923092176,-0.1839875886605402,,,,,,,,,,,,,,,,,,,0.007059958104216396,-0.809682395174217,0.012205285373734082,-1.3619961758256718,,,,,,,,,,
19,240614_100725,FalseCHOICE,9.0,20,2.0,788.0,,,,,,,,,,,21.0,20.0,,,B,,,,,,False,cue2.png,Easy,cue1.png,Hard,Right,Hard,Mid,0.0168367000005673,,,,,,,,,,,,,12,24,Female,1.2857142857142858,0.25,0.0,0.5,2.2777777777777777,2.625,2.5555555555555554,2.7777777777777777,1.75,2.888888888888889,2.25,2.0,2.5,0.25,1.0,1.0,0.7012580846136328,0.7828313120571709,,,,,,,,,,,,,,,,,,,0.00783044284965117,-0.7443270067714856,0.02085242174711817,-0.5157420646146043,8.099554550819055e+41,-0.17411040407810605,,,,,,,,
20,240614_100746,FalseCHOICE,9.0,21,2.0,788.0,,,,,,,,,,,22.0,21.0,,,B,,,,,,False,cue2.png,Easy,cue1.png,Hard,Right,Hard,Mid,0.0170723999908659,,,,,,,,,,,,,12,24,Female,1.2857142857142858,0.25,0.0,0.5,2.2777777777777777,2.625,2.5555555555555554,2.7777777777777777,1.75,2.888888888888889,2.25,2.0,2.5,0.25,0.7083333333333333,0.7777777777777778,0.4010639692244764,-2.248576688925962,,,,,,,,,,,,,,,,,,,0.02989641375890244,1.1273909056236702,0.020363967986604732,-0.5635447110772313,3.4621735194479487e+41,-0.1741232300521184,,,,,,,,
21,240614_100809,FalseCHOICE,9.0,22,2.0,788.0,,,,,,,,,,,23.0,22.0,,,B,,,,,,False,cue1.png,Hard,cue2.png,Easy,Left,Hard,Mid,0.0168168000236619,,,,,,,,,,,,,12,24,Female,1.2857142857142858,0.25,0.0,0.5,2.2777777777777777,2.625,2.5555555555555554,2.7777777777777777,1.75,2.888888888888889,2.25,2.0,2.5,0.25,0.8819444444444444,0.8888888888888888,0.543581161538336,-0.8094153765936831,,,,,,,,,,,,,,,,,,,0.004762563776388512,-1.004555946531418,0.019687476225603285,-0.6297497423416851,-1.0933618382421478e+41,-0.17413582965903335,,,,,,,,
22,240614_100834,FalseCHOICE,9.0,23,2.0,788.0,,,,,,,,,,,24.0,23.0,,,B,,,,,,False,cue2.png,Easy,cue1.png,Hard,Right,Hard,Mid,0.0167132999922614,,,,,,,,,,,,,12,24,Female,1.2857142857142858,0.25,0.0,0.5,2.2777777777777777,2.625,2.5555555555555554,2.7777777777777777,1.75,2.888888888888889,2.25,2.0,2.5,0.25,1.0,1.0,0.6861502307695516,0.6302697971145438,,,,,,,,,,,,,,,,,,,0.005170945974697772,-0.9699154460602475,0.01910357722507253,-0.6868931605086644,-5.4764261575664646e+41,-0.17414795224906288,,,,,,,,
23,240614_100859,FalseCHOICE,9.0,24,2.0,788.0,,,,,,,,,,,25.0,24.0,,,B,,,,,,False,cue1.png,Hard,cue2.png,Easy,Left,Hard,Mid,0.0160754999960772,,,,,,,,,,,,,12,24,Female,1.2857142857142858,0.25,0.0,0.5,2.2777777777777777,2.625,2.5555555555555554,2.7777777777777777,1.75,2.888888888888889,2.25,2.0,2.5,0.25,0.7916666666666666,0.735042735042735,0.6550901636391327,0.3166202910668777,,,,,,,,,,,,,,,,,,,0.0057261509926698085,-0.9228208866835625,0.015089171342034555,-1.0797639718268943,-7.696819426170688e+41,-0.17415409336754498,,,,,,,,
24,240614_100922,FalseCHOICE,9.0,25,2.0,788.0,,,,,,,,,,,26.0,25.0,,,B,,,,,,False,cue1.png,Hard,cue2.png,Easy,Left,Hard,Mid,0.0160713999939616,,,,,,,,,,,,,12,24,Female,1.2857142857142858,0.25,0.0,0.5,2.2777777777777777,2.625,2.5555555555555554,2.7777777777777777,1.75,2.888888888888889,2.25,2.0,2.5,0.25,0.8819444444444444,0.8888888888888888,0.5054673461552459,-1.1942947562261423,,,,,,,,,,,,,,,,,,,,,,,-7.711933928691652e+41,-0.17415413517092823,,,,,,,,
25,240614_100947,FalseCHOICE,9.0,26,2.0,788.0,,,,,,,,,,,27.0,26.0,,,B,,,,,,False,cue2.png,Easy,cue1.png,Hard,Right,Hard,Mid,0.0166260999976657,,,,,,,,,,,,,12,24,Female,1.2857142857142858,0.25,0.0,0.5,2.2777777777777777,2.625,2.5555555555555554,2.7777777777777777,1.75,2.888888888888889,2.25,2.0,2.5,0.25,0.7083333333333333,0.6239316239316239,0.6677846090936906,0.4448108236131422,,,,,,,,,,,,,,,,,,,,,0.038907809476217685,1.2512528612767588,-5.5507187856423215e+41,-0.1741481577261006,,,,,,,,
26,240614_101011,FalseCHOICE,9.0,27,2.0,788.0,,,,,,,,,,,28.0,27.0,,,B,,,,,,False,cue2.png,Easy,cue1.png,Hard,Right,Hard,Mid,0.0175905000069178,,,,,,,,,,,,,12,24,Female,1.2857142857142858,0.25,0.0,0.5,2.2777777777777777,2.625,2.5555555555555554,2.7777777777777777,1.75,2.888888888888889,2.25,2.0,2.5,0.25,0.8819444444444444,0.8888888888888888,0.6065644923051318,-0.1733996686657574,,,,,,,,,,,,,,,,,,,0.025948561473751165,0.7925193575736452,0.027722090140379706,0.15655970899315674,3.366837767449329e+42,-0.17403968634784148,,,,,,,,
27,240614_101034,FalseCHOICE,9.0,28,2.0,788.0,,,,,,,,,,,29.0,28.0,,,B,,,,,,False,cue1.png,Hard,cue2.png,Easy,Left,Hard,Mid,0.0163929999980609,,,,,,,,,,,,,12,24,Female,1.2857142857142858,0.25,0.0,0.5,2.2777777777777777,2.625,2.5555555555555554,2.7777777777777777,1.75,2.888888888888889,2.25,2.0,2.5,0.25,0.8819444444444444,0.8888888888888888,0.5258444923025448,-0.9885230881571424,,,,,,,,,,,,,,,,,,,0.014047151651116759,-0.21700259092312874,0.029136732783018635,0.2950040564088521,1.561089356649521e+41,-0.17412848803197867,,,,,,,,
28,240614_101058,FalseCHOICE,9.0,29,2.0,788.0,,,,,,,,,,,30.0,29.0,,,B,,,,,,False,cue2.png,Easy,cue1.png,Hard,Right,Hard,Mid,0.0170941999822389,,,,,,,,,,,,,12,24,Female,1.2857142857142858,0.25,0.0,0.5,2.2777777777777777,2.625,2.5555555555555554,2.7777777777777777,1.75,2.888888888888889,2.25,2.0,2.5,0.25,0.5347222222222222,0.7008547008547008,0.584193849999186,-0.3993019785277093,,,,,,,,,,,,,,,,,,,0.005868645579384963,-0.9107339646319125,0.032532766454166334,0.627357720318427,4.9091504638106994e+41,-0.1741192280327546,,,,,,,,
29,240614_101122,FalseCHOICE,9.0,30,2.0,788.0,,,,,,,,,,,31.0,30.0,,,B,,,,,,False,cue2.png,Easy,cue1.png,Hard,Right,Hard,Mid,0.0165903999877627,,,,,,,,,,,,,12,24,Female,1.2857142857142858,0.25,0.0,0.5,2.2777777777777777,2.625,2.5555555555555554,2.7777777777777777,1.75,2.888888888888889,2.25,2.0,2.5,0.25,0.7083333333333333,0.7777777777777778,0.6625824384659958,0.3922784758593226,,,,,,,,,,,,,,,,,,,0.016387339538003115,-0.018499130356208784,0.02240900134053842,-0.36340702287596843,6.580646397687966e+41,-0.1741146050433421,,,,,,,,
30,240614_101146,FalseCHOICE,9.0,31,2.0,788.0,,,,,,,,,,,32.0,31.0,,,B,,,,,,False,cue1.png,Hard,cue2.png,Easy,Left,Hard,Mid,0.0158105000155046,,,,,,,,,,,,,12,24,Female,1.2857142857142858,0.25,0.0,0.5,2.2777777777777777,2.625,2.5555555555555554,2.7777777777777777,1.75,2.888888888888889,2.25,2.0,2.5,0.25,1.0,1.0,0.5988356076928679,-0.2514471767653727,,,,,,,,,,,,,,,,,,,,,0.019248743708429328,-0.6726864071921713,,,,,,,,,,
31,240614_101210,FalseCHOICE,9.0,32,2.0,788.0,,,,,,,,,,,33.0,32.0,,,B,,,,,,False,cue2.png,Easy,cue1.png,Hard,Right,Hard,Mid,0.0166065999947022,,,,,,,,,,,,,12,24,Female,1.2857142857142858,0.25,0.0,0.5,2.2777777777777777,2.625,2.5555555555555554,2.7777777777777777,1.75,2.888888888888889,2.25,2.0,2.5,0.25,0.7083333333333333,0.7777777777777778,0.6033675538380451,-0.20568286260916338,,,,,,,,,,,,,,,,,,,0.006857524731598562,-0.8268535484923112,0.024402744487818026,-0.16828886326448064,5.088985955103712e+41,-0.1741187306474153,,,,,,,,
32,240614_101233,FalseCHOICE,9.0,33,2.0,788.0,,,,,,,,,,,34.0,33.0,,,B,,,,,,False,cue1.png,Hard,cue2.png,Easy,Left,Hard,Mid,0.016913100000238,,,,,,,,,,,,,12,24,Female,1.2857142857142858,0.25,0.0,0.5,2.2777777777777777,2.625,2.5555555555555554,2.7777777777777777,1.75,2.888888888888889,2.25,2.0,2.5,0.25,0.7083333333333333,0.7777777777777778,0.6260463461535087,0.02333119514013338,,,,,,,,,,,,,,,,,,,0.035666635630896365,1.6168426356527934,,,2.2959225820847792e+41,-0.17412645564520926,,,,,,,,
33,240614_101258,FalseCHOICE,9.0,34,2.0,788.0,,,,,,,,,,,35.0,34.0,,,B,,,,,,False,cue1.png,Hard,cue2.png,Easy,Left,Hard,Mid,0.0147067999932914,,,,,,,,,,,,,12,24,Female,1.2857142857142858,0.25,0.0,0.5,2.2777777777777777,2.625,2.5555555555555554,2.7777777777777777,1.75,2.888888888888889,2.25,2.0,2.5,0.25,1.0,1.0,0.6385278615366238,0.1493715259031784,,,,,,,,,,,,,,,,,,,,,0.02174508720996661,-0.4283811412692972,-1.3580569828146128e+41,-0.17413656174747344,,,,,,,,
34,240614_101323,FalseCHOICE,9.0,35,2.0,788.0,,,,,,,,,,,36.0,35.0,,,B,,,,,,False,cue1.png,Hard,cue2.png,Easy,Left,Hard,Mid,0.0160104000242427,,,,,,,,,,,,,12,24,Female,1.2857142857142858,0.25,0.0,0.5,2.2777777777777777,2.625,2.5555555555555554,2.7777777777777777,1.75,2.888888888888889,2.25,2.0,2.5,0.25,0.9375,0.9230769230769232,0.7050762333334811,0.8213875860976771,,,,,,,,,,,,,,,,,,,,,0.0231174044057438,-0.29407898403876415,-4.0625691460573076e+41,-0.17414404183213486,,,,,,,,
35,240614_101346,FalseCHOICE,9.0,36,2.0,788.0,,,,,,,,,,,37.0,36.0,,,B,,,,,,False,cue2.png,Easy,cue1.png,Hard,Right,Hard,Mid,0.0154472000140231,,,,,,,,,,,,,12,24,Female,1.2857142857142858,0.25,0.0,0.5,2.2777777777777777,2.625,2.5555555555555554,2.7777777777777777,1.75,2.888888888888889,2.25,2.0,2.5,0.25,1.0,1.0,0.5748326307668601,-0.4938330616671725,,,,,,,,,,,,,,,,,,,0.04345118351589171,2.277157007323376,,,-5.728317547299582e+41,-0.17414864892513865,,,,,,,,
36,240614_101413,FalseCHOICE,9.0,37,2.0,788.0,,,,,,,,,,,38.0,37.0,,,B,,,,,,False,cue1.png,Hard,cue2.png,Easy,Left,Hard,Mid,0.0162010999920312,,,,,,,,,,,,,12,24,Female,1.2857142857142858,0.25,0.0,0.5,2.2777777777777777,2.625,2.5555555555555554,2.7777777777777777,1.75,2.888888888888889,2.25,2.0,2.5,0.25,1.0,1.0,0.7867168769186649,1.6458078111534211,,,,,,,,,,,,,,,,,,,0.014330669356947325,-0.192953562187132,0.0536800971822942,2.6969464022897593,-5.919825688519244e+41,-0.1741491785944554,,,,,,,,
37,240614_101436,FalseCHOICE,9.0,38,2.0,788.0,,,,,,,,,,,39.0,38.0,,,B,,,,,,False,cue2.png,Easy,cue1.png,Hard,Right,Hard,Mid,0.0166648000013083,,,,,,,,,,,,,12,24,Female,1.2857142857142858,0.25,0.0,0.5,2.2777777777777777,2.625,2.5555555555555554,2.7777777777777777,1.75,2.888888888888889,2.25,2.0,2.5,0.25,0.8819444444444444,0.8888888888888888,0.5685649538421645,-0.5571250617534131,,,,,,,,,,,,,,,,,,,0.007819165636445698,-0.7452835820359682,0.030925261513155382,0.47003885701128545,-3.9693629951160394e+41,-0.17414378404446082,,,,,,,,
38,240614_101500,FalseCHOICE,9.0,39,2.0,788.0,,,,,,,,,,,40.0,39.0,,,B,,,,,,False,cue2.png,Easy,cue1.png,Hard,Right,Hard,Mid,0.0167185000027529,,,,,,,,,,,,,12,24,Female,1.2857142857142858,0.25,0.0,0.5,2.2777777777777777,2.625,2.5555555555555554,2.7777777777777777,1.75,2.888888888888889,2.25,2.0,2.5,0.25,1.0,1.0,0.619075399995871,-0.047062529697848285,,,,,,,,,,,,,,,,,,,0.029158286660482285,1.0647802134669957,0.026127181338720273,0.00047356993729696765,-9.174149508941552e+40,-0.17413534302871564,,,,,,,,
39,240614_101525,FalseCHOICE,9.0,40,2.0,788.0,,,,,,,,,,,41.0,40.0,,,B,,,,,,False,cue1.png,Hard,cue2.png,Easy,Left,Hard,Mid,0.016069300007075,,,,,,,,,,,,,12,24,Female,1.2857142857142858,0.25,0.0,0.5,2.2777777777777777,2.625,2.5555555555555554,2.7777777777777777,1.75,2.888888888888889,2.25,2.0,2.5,0.25,0.7083333333333333,0.7777777777777778,0.6686894538489958,0.4539480901026065,,,,,,,,,,,,,,,,,,,0.0071362141345971495,-0.8032140744019837,0.01825626400909656,-0.7698156751471745,2.5007069805109107e+41,-0.1741258892566907,,,,,,,,
40,240614_101546,FalseCHOICE,9.0,41,2.0,788.0,,,,,,,,,,,42.0,41.0,,,B,,,,,,False,cue1.png,Hard,cue2.png,Easy,Left,Hard,Mid,0.0160502000071574,,,,,,,,,,,,,12,24,Female,1.2857142857142858,0.25,0.0,0.5,2.2777777777777777,2.625,2.5555555555555554,2.7777777777777777,1.75,2.888888888888889,2.25,2.0,2.5,0.25,0.0416666666666666,0.6666666666666667,0.4462236769255608,-1.7925467661886028,,,,,,,,,,,,,,,,,,,0.017845590056928463,0.10519511488036845,0.037273252369568015,1.0912865311782536,5.216362501375456e+41,-0.17411837835195773,,,,,,,,
41,240614_101610,FalseCHOICE,9.0,42,2.0,788.0,,,,,,,,,,,43.0,42.0,,,B,,,,,,False,cue2.png,Easy,cue1.png,Hard,Right,Hard,Mid,0.0158205000043381,,,,,,,,,,,,,12,24,Female,1.2857142857142858,0.25,0.0,0.5,2.2777777777777777,2.625,2.5555555555555554,2.7777777777777777,1.75,2.888888888888889,2.25,2.0,2.5,0.25,1.0,1.0,0.6300652384614716,0.06391460991378661,,,,,,,,,,,,,,,,,,,0.04395151871116595,2.319597303789275,,,,,,,,,,,,
42,240614_101635,FalseCHOICE,9.0,43,2.0,788.0,,,,,,,,,,,44.0,43.0,,,B,,,,,,False,cue1.png,Hard,cue2.png,Easy,Left,Hard,Mid,0.0166409999947063,,,,,,,,,,,,,12,24,Female,1.2857142857142858,0.25,0.0,0.5,2.2777777777777777,2.625,2.5555555555555554,2.7777777777777777,1.75,2.888888888888889,2.25,2.0,2.5,0.25,0.8819444444444444,0.8888888888888888,0.6881479769228742,0.6504433560307961,,,,,,,,,,,,,,,,,,,0.011759955621434039,-0.4110110846133567,0.025532637563040618,-0.05771160174711298,4.498257745026959e+41,-0.17412036447146803,,,,,,,,
43,240614_101658,FalseCHOICE,9.0,44,2.0,788.0,,,,,,,,,,,45.0,44.0,,,B,,,,,,False,cue2.png,Easy,cue1.png,Hard,Right,Hard,Mid,0.0166640999959781,,,,,,,,,,,,,12,24,Female,1.2857142857142858,0.25,0.0,0.5,2.2777777777777777,2.625,2.5555555555555554,2.7777777777777777,1.75,2.888888888888889,2.25,2.0,2.5,0.25,0.8819444444444444,0.8888888888888888,0.5583797076922985,-0.6599772999815375,,,,,,,,,,,,,,,,,,,,,0.012997095143319934,-1.2845055195117965,1.0595800375724435e+41,-0.17412987509623973,,,,,,,,
44,240614_101721,FalseCHOICE,9.0,45,2.0,788.0,,,,,,,,,,,46.0,45.0,,,B,,,,,,False,cue1.png,Hard,cue2.png,Easy,Left,Hard,Mid,0.0161796999746002,,,,,,,,,,,,,12,24,Female,1.2857142857142858,0.25,0.0,0.5,2.2777777777777777,2.625,2.5555555555555554,2.7777777777777777,1.75,2.888888888888889,2.25,2.0,2.5,0.25,1.0,1.0,0.5677349846160863,-0.5655062232203587,,,,,,,,,,,,,,,,,,,0.008964707331077303,-0.6481144650251894,,,-3.668644887972781e+41,-0.17414295232444443,,,,,,,,
45,240614_101741,FalseCHOICE,9.0,46,2.0,788.0,,,,,,,,,,,47.0,46.0,,,B,,,,,,False,cue1.png,Hard,cue2.png,Easy,Left,Hard,Mid,0.0162438999977894,,,,,,,,,,,,,12,24,Female,1.2857142857142858,0.25,0.0,0.5,2.2777777777777777,2.625,2.5555555555555554,2.7777777777777777,1.75,2.888888888888889,2.25,2.0,2.5,0.25,0.8819444444444444,0.8888888888888888,0.3730028461521634,-2.531942380114507,,,,,,,,,,,,,,,,,,,0.007890066859112605,-0.7392694760162448,0.029857552217049527,0.3655472262109438,,,,,,,,,,
46,240614_101804,FalseCHOICE,9.0,47,2.0,788.0,,,,,,,,,,,48.0,47.0,,,B,,,,,,False,cue2.png,Easy,cue1.png,Hard,Right,Hard,Mid,0.0164826000109314,,,,,,,,,,,,,12,24,Female,1.2857142857142858,0.25,0.0,0.5,2.2777777777777777,2.625,2.5555555555555554,2.7777777777777777,1.75,2.888888888888889,2.25,2.0,2.5,0.25,1.0,1.0,0.5715701615442342,-0.5267779956196869,,,,,,,,,,,,,,,,,,,0.03248558101242431,1.3470137242403695,0.024369253220137253,-0.17156649434842677,-4.963715095041931e+41,-0.17414653420324794,,,,,,,,
47,240614_101827,FalseCHOICE,9.0,48,2.0,788.0,,,,,,,,,,,49.0,48.0,,,B,,,,,,False,cue2.png,Easy,cue1.png,Hard,Right,Hard,Mid,0.0186104000022169,,,,,,,,,,,,,12,24,Female,1.2857142857142858,0.25,0.0,0.5,2.2777777777777777,2.625,2.5555555555555554,2.7777777777777777,1.75,2.888888888888889,2.25,2.0,2.5,0.25,0.8819444444444444,0.8888888888888888,0.5827718538505275,-0.4136615221744005,,,,,,,,,,,,,,,,,,,,,0.0325932719328946,0.6332791037584052,2.3272635916444507e+41,-0.17412636896288333,,,,,,,,
48,240614_101852,FalseCHOICE,9.0,49,2.0,788.0,,,,,,,,,,,50.0,49.0,,,B,,,,,,False,cue1.png,Hard,cue2.png,Easy,Left,Hard,Mid,0.0161810000136028,,,,,,,,,,,,,12,24,Female,1.2857142857142858,0.25,0.0,0.5,2.2777777777777777,2.625,2.5555555555555554,2.7777777777777777,1.75,2.888888888888889,2.25,2.0,2.5,0.25,0.8819444444444444,0.8888888888888888,0.6494422000004516,0.2595862544690428,,,,,,,,,,,,,,,,,,,0.02111828209941178,0.38279705421315985,,,,,,,,,,,,
49,240614_101914,FalseCHOICE,9.0,50,2.0,788.0,,,,,,,,,,,51.0,50.0,,,B,,,,,,False,cue2.png,Easy,cue1.png,Hard,Right,Hard,Mid,0.0165390000038314,,,,,,,,,,,,,12,24,Female,1.2857142857142858,0.25,0.0,0.5,2.2777777777777777,2.625,2.5555555555555554,2.7777777777777777,1.75,2.888888888888889,2.25,2.0,2.5,0.25,0.7916666666666666,0.811965811965812,0.5015970750003665,-1.2333773709191926,,,,,,,,,,,,,,,,,,,,,0.06628402795116581,3.9304331625318727,-3.3280830355366477e+41,-0.1741420104054088,,,,,,,,
0,240614_092823,OFFLINERATING,9.0,1,1.0,,,,,,,,,,,,,,,,,T0,cue2.png,Easy,53.0,1.142067800014047,,,,,,,,,,,,,,,,,,,,,,12,24,Female,1.2857142857142858,0.25,0.0,0.5,2.2777777777777777,2.625,2.5555555555555554,2.7777777777777777,1.75,2.888888888888889,2.25,2.0,2.5,0.25,,,,,,,,,,,,,,,,,,,,,,,,,,,,,-0.12709112956304175,0.004997045889877696,-1.3691367343245984,,,,,
1,240614_092830,OFFLINERATING,9.0,2,3.0,,,,,,,,,,,,,,,,,T0,cue1.png,Hard,66.0,0.951736599992728,,,,,,,,,,,,,,,,,,,,,,12,24,Female,1.2857142857142858,0.25,0.0,0.5,2.2777777777777777,2.625,2.5555555555555554,2.7777777777777777,1.75,2.888888888888889,2.25,2.0,2.5,0.25,,,,,,,,,,,,,,,,,,,,,,,,,,,,,0.8896379069412922,,,,,288733.2702601852,-0.5762313501279797,
2,240614_095114,OFFLINERATING,9.0,3,1.0,,,,,,,,,,,,,,,,,T1,cue2.png,Easy,44.0,1.1056403999973554,,,,,,,,,,,,,,,,,,,,,,12,24,Female,1.2857142857142858,0.25,0.0,0.5,2.2777777777777777,2.625,2.5555555555555554,2.7777777777777777,1.75,2.888888888888889,2.25,2.0,2.5,0.25,,,,,,,,,,,,,,,,,,,,,,,,,,,,,-0.8309804625275806,0.006543234276067467,0.377813657268173,0.024381618921495478,1.4137926812880923,8176.871549442755,-0.5778693037105148,
3,240614_095121,OFFLINERATING,9.0,4,3.0,,,,,,,,,,,,,,,,,T1,cue1.png,Hard,67.0,0.9517185000004248,,,,,,,,,,,,,,,,,,,,,,12,24,Female,1.2857142857142858,0.25,0.0,0.5,2.2777777777777777,2.625,2.5555555555555554,2.7777777777777777,1.75,2.888888888888889,2.25,2.0,2.5,0.25,,,,,,,,,,,,,,,,,,,,,,,,,,,,,0.967847832826241,0.007086238327161179,0.9913230770564263,0.02126849071597669,-0.6770184097891185,-5601.754219499827,-0.5779497465360727,
4,240614_095710,OFFLINERATING,9.0,5,1.0,,,,,,,,,,,,,,,,,T2,cue2.png,Easy,36.0,0.8681845999963116,,,,,,,,,,,,,,,,,,,,,,12,24,Female,1.2857142857142858,0.25,0.0,0.5,2.2777777777777777,2.625,2.5555555555555554,2.7777777777777777,1.75,2.888888888888889,2.25,2.0,2.5,0.25,,,,,,,,,,,,,,,,,,,,,,,,,,,,,-1.4566598696071709,,,,,395662095.5168403,1.7320504003745674,
5,240614_095717,OFFLINERATING,9.0,6,3.0,,,,,,,,,,,,,,,,,T2,cue1.png,Hard,65.0,0.8681995999941137,,,,,,,,,,,,,,,,,,,,,,12,24,Female,1.2857142857142858,0.25,0.0,0.5,2.2777777777777777,2.625,2.5555555555555554,2.7777777777777777,1.75,2.888888888888889,2.25,2.0,2.5,0.25,,,,,,,,,,,,,,,,,,,,,,,,,,,,,0.8114279810563435,,,0.021179516796081238,-0.7367742714989715,,,
6,240614_101941,OFFLINERATING,9.0,7,1.0,,,,,,,,,,,,,,,,,T3,cue2.png,Easy,38.0,1.0290990000066813,,,,,,,,,,,,,,,,,,,,,,12,24,Female,1.2857142857142858,0.25,0.0,0.5,2.2777777777777777,2.625,2.5555555555555554,2.7777777777777777,1.75,2.888888888888889,2.25,2.0,2.5,0.25,,,,,,,,,,,,,,,,,,,,,,,,,,,,,-1.3002400178372733,,,,,,,
7,240614_101948,OFFLINERATING,9.0,8,3.0,,,,,,,,,,,,,,,,,T3,cue1.png,Hard,68.0,0.9510882000031416,,,,,,,,,,,,,,,,,,,,,,12,24,Female,1.2857142857142858,0.25,0.0,0.5,2.2777777777777777,2.625,2.5555555555555554,2.7777777777777777,1.75,2.888888888888889,2.25,2.0,2.5,0.25,,,,,,,,,,,,,,,,,,,,,,,,,,,,,1.0460577587111897,,,,,,,
0,240614_095735,LEARNINGCHECK,9.0,1,,,,,,,,,,,,1.0,1.0,1.0,,,B,,,,,,,,,,,,,,,cue2.png,Easy,Left,Left,Easy,0.0121480000088922,1.0,,,,,,12,24,Female,1.2857142857142858,0.25,0.0,0.5,2.2777777777777777,2.625,2.5555555555555554,2.7777777777777777,1.75,2.888888888888889,2.25,2.0,2.5,0.25,,,,,,,,,,,,,,,,,,,,,,,,,,,,,,,,,,,,
1,240614_095740,LEARNINGCHECK,9.0,2,,,,,,,,,,,,2.0,2.0,2.0,,,B,,,,,,,,,,,,,,,cue1.png,Hard,Right,Right,Hard,0.0152167000051122,1.0,,,,,,12,24,Female,1.2857142857142858,0.25,0.0,0.5,2.2777777777777777,2.625,2.5555555555555554,2.7777777777777777,1.75,2.888888888888889,2.25,2.0,2.5,0.25,,,,,,,,,,,,,,,,,,,,,,,,,,,,,,,,,,,,
2,240614_102006,LEARNINGCHECK,9.0,1,,,,,,,,,,,,1.0,1.0,1.0,,,B,,,,,,,,,,,,,,,cue2.png,Easy,Middle,Middle,Mid,0.0126960999914444,1.0,,,,,,12,24,Female,1.2857142857142858,0.25,0.0,0.5,2.2777777777777777,2.625,2.5555555555555554,2.7777777777777777,1.75,2.888888888888889,2.25,2.0,2.5,0.25,,,,,,,,,,,,,,,,,,,,,,,,,,,,,,,,,,,,
3,240614_102011,LEARNINGCHECK,9.0,2,,,,,,,,,,,,2.0,2.0,2.0,,,B,,,,,,,,,,,,,,,cue1.png,Hard,Middle,Middle,Mid,0.016214300005231,1.0,,,,,,12,24,Female,1.2857142857142858,0.25,0.0,0.5,2.2777777777777777,2.625,2.5555555555555554,2.7777777777777777,1.75,2.888888888888889,2.25,2.0,2.5,0.25,,,,,,,,,,,,,,,,,,,,,,,,,,,,,,,,,,,,
0,240614_102027,DEMANDRATING,9.0,-1,,,,,,,,,,,,,,,,,,,,,,,,,,,,,,,,,,,,,,,1.0,MentalDemand,1.0,34.0,3.897682799986797,12,24,Female,1.2857142857142858,0.25,0.0,0.5,2.2777777777777777,2.625,2.5555555555555554,2.7777777777777777,1.75,2.888888888888889,2.25,2.0,2.5,0.25,,,,,,,,,,,,,,,,,,,,,,,,,,,,,,,,,,,,-1.3489101647724986
1,240614_102033,DEMANDRATING,9.0,-1,,,,,,,,,,,,,,,,,,,,,,,,,,,,,,,,,,,,,,,2.0,Effort,1.0,50.0,5.053242199996021,12,24,Female,1.2857142857142858,0.25,0.0,0.5,2.2777777777777777,2.625,2.5555555555555554,2.7777777777777777,1.75,2.888888888888889,2.25,2.0,2.5,0.25,,,,,,,,,,,,,,,,,,,,,,,,,,,,,,,,,,,,-0.6791064967475339
2,240614_102039,DEMANDRATING,9.0,-1,,,,,,,,,,,,,,,,,,,,,,,,,,,,,,,,,,,,,,,3.0,Frustration,1.0,31.0,3.750255599996308,12,24,Female,1.2857142857142858,0.25,0.0,0.5,2.2777777777777777,2.625,2.5555555555555554,2.7777777777777777,1.75,2.888888888888889,2.25,2.0,2.5,0.25,,,,,,,,,,,,,,,,,,,,,,,,,,,,,,,,,,,,-1.4744983525271795
3,240614_102043,DEMANDRATING,9.0,-1,,,,,,,,,,,,,,,,,,,,,,,,,,,,,,,,,,,,,,,4.0,MentalDemand,2.0,62.0,2.501633900013985,12,24,Female,1.2857142857142858,0.25,0.0,0.5,2.2777777777777777,2.625,2.5555555555555554,2.7777777777777777,1.75,2.888888888888889,2.25,2.0,2.5,0.25,,,,,,,,,,,,,,,,,,,,,,,,,,,,,,,,,,,,-0.1767537457288104
4,240614_102046,DEMANDRATING,9.0,-1,,,,,,,,,,,,,,,,,,,,,,,,,,,,,,,,,,,,,,,5.0,Effort,2.0,66.0,1.6531847000005655,12,24,Female,1.2857142857142858,0.25,0.0,0.5,2.2777777777777777,2.625,2.5555555555555554,2.7777777777777777,1.75,2.888888888888889,2.25,2.0,2.5,0.25,,,,,,,,,,,,,,,,,,,,,,,,,,,,,,,,,,,,-0.009302828722569219
5,240614_102049,DEMANDRATING,9.0,-1,,,,,,,,,,,,,,,,,,,,,,,,,,,,,,,,,,,,,,,6.0,Frustration,2.0,67.0,1.4944931999780238,12,24,Female,1.2857142857142858,0.25,0.0,0.5,2.2777777777777777,2.625,2.5555555555555554,2.7777777777777777,1.75,2.888888888888889,2.25,2.0,2.5,0.25,,,,,,,,,,,,,,,,,,,,,,,,,,,,,,,,,,,,0.032559900528991076
6,240614_102052,DEMANDRATING,9.0,-1,,,,,,,,,,,,,,,,,,,,,,,,,,,,,,,,,,,,,,,7.0,MentalDemand,3.0,93.0,1.7881123999832198,12,24,Female,1.2857142857142858,0.25,0.0,0.5,2.2777777777777777,2.625,2.5555555555555554,2.7777777777777777,1.75,2.888888888888889,2.25,2.0,2.5,0.25,,,,,,,,,,,,,,,,,,,,,,,,,,,,,,,,,,,,1.1209908610695587
7,240614_102056,DEMANDRATING,9.0,-1,,,,,,,,,,,,,,,,,,,,,,,,,,,,,,,,,,,,,,,8.0,Effort,3.0,93.0,1.9932778000074904,12,24,Female,1.2857142857142858,0.25,0.0,0.5,2.2777777777777777,2.625,2.5555555555555554,2.7777777777777777,1.75,2.888888888888889,2.25,2.0,2.5,0.25,,,,,,,,,,,,,,,,,,,,,,,,,,,,,,,,,,,,1.1209908610695587
8,240614_102059,DEMANDRATING,9.0,-1,,,,,,,,,,,,,,,,,,,,,,,,,,,,,,,,,,,,,,,9.0,Frustration,3.0,100.0,1.4883343999972567,12,24,Female,1.2857142857142858,0.25,0.0,0.5,2.2777777777777777,2.625,2.5555555555555554,2.7777777777777777,1.75,2.888888888888889,2.25,2.0,2.5,0.25,,,,,,,,,,,,,,,,,,,,,,,,,,,,,,,,,,,,1.4140299658304807
