,END,Phase,Block,TrialN,NbackLevel,ISI,Letter_Resp,Letter_RT,Letter_Accuracy,Trial_A_measure,Trial_ACC,Trial_RT,TrialCountCali,CaliEnd_A_measure,ISI_calibrated,TrialIndex,TrialNumber_total,TrialNumber_valid,CueLearning,TrialDemandLearning,CueMapping,OfflineRatingTimePoint,CueFigure,TrialDemand,OfflineRating,OfflineRatingRT,PhaseType,CueLeft,CueDemandLeft,CueRight,CueDemandRight,Choice,ChoiceDemand,TaskDemand,ChoiceRT,CueCheck,CueDemandCheck,CorrectAnswer,Answer,AnswerDemand,AnswerRT,AnswerACC,DemandRatingQuesIndex,QuesTLX,DemandLevel,DemandRating,DemandRatingRT,PID,Age,Gender,BAI_bis,BAI_bas_d,BAI_bas_rr,BAI_bas_fs,NFC,BFI_ext,BFI_agr,BFI_con,BFI_neu,BFI_open,UPPS_lps,UPPS_lpm,UPPS_pu,UPPS_ss,Task_A_measure,Task_ACC,Task_RT,Task_RT_z,cue_i_on_zyg_values,cue_i_on_zyg_zvalues,cue_e_on_zyg_values,cue_e_on_zyg_zvalues,cue_i_on_cor_values,cue_i_on_cor_zvalues,cue_e_on_cor_values,cue_e_on_cor_zvalues,cue_i_on_scr_values,cue_i_on_scr_zvalues,cue_e_on_scr_values,cue_e_on_scr_zvalues,cue_e_true_zyg_values,cue_e_true_zyg_zvalues,cue_e_true_cor_values,cue_e_true_cor_zvalues,cue_e_true_scr_values,cue_e_true_scr_zvalues,cue_e_false_zyg_values,cue_e_false_zyg_zvalues,cue_e_false_cor_values,cue_e_false_cor_zvalues,cue_e_false_scr_values,cue_e_false_scr_zvalues,OfflineRating_z,cue_i_off_zyg_values,cue_i_off_zyg_zvalues,cue_i_off_cor_values,cue_i_off_cor_zvalues,cue_i_off_scr_values,cue_i_off_scr_zvalues,DemandRating_z
0,240615_093511,PRACTICE,0.0,1,3.0,202.0,,,,,,,,,,31.0,1.0,1.0,cue1.png,Hard,B,,,,,,,,,,,,,,,,,,,,,,,,,,,14,34,Female,0.7142857142857143,1.75,0.2,1.75,1.1111111111111112,2.5,2.2222222222222223,2.6666666666666665,3.0,1.5555555555555556,2.0,1.75,2.0,2.75,,,,,,,,,,,,,,,,,,,,,,,,,,,,,,,,,,,,
0,240615_093800,LEARNING,1.0,1,1.0,202.0,,,,,,,,,,1.0,1.0,1.0,cue2.png,Easy,B,,,,,,,,,,,,,,,,,,,,,,,,,,,14,34,Female,0.7142857142857143,1.75,0.2,1.75,1.1111111111111112,2.5,2.2222222222222223,2.6666666666666665,3.0,1.5555555555555556,2.0,1.75,2.0,2.75,1.0,1.0,0.4086369904717208,0.572949702181004,0.013121642174014124,-0.051409626437926896,0.011844352270512452,-0.1489389047522669,0.011155033321102075,-0.7099794441949295,0.022056642215644892,0.43667033244054315,,,1.4955235166556643e+45,-0.16510999961475556,,,,,,,,,,,,,,,,,,,,
1,240615_093832,LEARNING,1.0,2,3.0,202.0,,,,,,,,,,2.0,2.0,2.0,cue1.png,Hard,B,,,,,,,,,,,,,,,,,,,,,,,,,,,14,34,Female,0.7142857142857143,1.75,0.2,1.75,1.1111111111111112,2.5,2.2222222222222223,2.6666666666666665,3.0,1.5555555555555556,2.0,1.75,2.0,2.75,0.6428571428571429,0.4047619047619047,0.3966158000053837,0.3891264882405598,0.009143460731118016,-0.28135875505526475,0.008549461585044918,-0.3664500355768874,0.015653041722352354,-0.1890237610283397,0.01583220445330021,-0.3585544249522658,1.8922463997021316e+44,-0.18212070176788225,9.344073599274237e+43,-0.17124603406391178,,,,,,,,,,,,,,,,,,,,
2,240615_093902,LEARNING,1.0,3,1.0,202.0,,,,,,,,,,3.0,3.0,3.0,cue2.png,Easy,B,,,,,,,,,,,,,,,,,,,,,,,,,,,14,34,Female,0.7142857142857143,1.75,0.2,1.75,1.1111111111111112,2.5,2.2222222222222223,2.6666666666666665,3.0,1.5555555555555556,2.0,1.75,2.0,2.75,1.0,1.0,0.4090708666675103,0.5795843626154776,0.009195535079589284,-0.2783487236562026,0.0482566910844031,2.2548097313742583,0.012051819218183563,-0.6061144292833546,0.021999820591276534,0.42941088762347884,-6.843034995172471e+44,-0.18394459985307596,-3.5003113310970478e+44,-0.17318683150010716,,,,,,,,,,,,,,,,,,,,
3,240615_093933,LEARNING,1.0,4,3.0,202.0,,,,,,,,,,4.0,4.0,4.0,cue1.png,Hard,B,,,,,,,,,,,,,,,,,,,,,,,,,,,14,34,Female,0.7142857142857143,1.75,0.2,1.75,1.1111111111111112,2.5,2.2222222222222223,2.6666666666666665,3.0,1.5555555555555556,2.0,1.75,2.0,2.75,0.6607142857142857,0.5714285714285715,0.357322973315604,-0.211723627822948,0.009314556447815644,-0.2714689821704623,0.009173440577594968,-0.3252582664905906,0.014872547474154375,-0.2794199715299812,0.014618879251509656,-0.5135670182292877,-6.116609238384611e+44,-0.18379292453925972,-3.358189574275309e+44,-0.1731246337463183,,,,,,,,,,,,,,,,,,,,
4,240615_094004,LEARNING,1.0,5,3.0,202.0,,,,,,,,,,5.0,5.0,5.0,cue1.png,Hard,B,,,,,,,,,,,,,,,,,,,,,,,,,,,14,34,Female,0.7142857142857143,1.75,0.2,1.75,1.1111111111111112,2.5,2.2222222222222223,2.6666666666666665,3.0,1.5555555555555556,2.0,1.75,2.0,2.75,0.1666666666666666,0.4285714285714286,0.4068360749988642,0.545410826461281,0.010135449324568183,-0.2240192606313646,0.010018976484408183,-0.26944049018167293,0.012288818468734254,-0.5786653683953655,0.01050510539105397,-1.0391365467640963,2.7106465279104094e+48,5.477225187575583,1.3715936920325432e+48,5.83094791985017,,,,,,,,,,,,,,,,,,,,
5,240615_094035,LEARNING,1.0,6,1.0,202.0,,,,,,,,,,6.0,6.0,6.0,cue2.png,Easy,B,,,,,,,,,,,,,,,,,,,,,,,,,,,14,34,Female,0.7142857142857143,1.75,0.2,1.75,1.1111111111111112,2.5,2.2222222222222223,2.6666666666666665,3.0,1.5555555555555556,2.0,1.75,2.0,2.75,1.0,1.0,0.4825622809529748,1.7033855376166702,0.008809726541627972,-0.3006494503552713,0.011403073776898769,-0.17806976016359824,0.012003209081856522,-0.6117444158285188,0.012934298422112321,-0.7287865179679198,-1.879077227845853e+43,-0.18255503112138624,,,,,,,,,,,,,,,,,,,,,,
6,240615_094106,LEARNING,1.0,7,3.0,202.0,,,,,,,,,,7.0,7.0,7.0,cue1.png,Hard,B,,,,,,,,,,,,,,,,,,,,,,,,,,,14,34,Female,0.7142857142857143,1.75,0.2,1.75,1.1111111111111112,2.5,2.2222222222222223,2.6666666666666665,3.0,1.5555555555555556,2.0,1.75,2.0,2.75,0.5583333333333333,0.3904761904761905,0.2583538090958344,-1.7251203166802613,0.008810317223838555,-0.30061530740287884,0.008902480159062387,-0.3431456298874042,0.013540965936631807,-0.43364266470664714,0.008808342226929552,-1.2559124431682116,4.816625976031685e+43,-0.1824152270360852,7.553953632722958e+43,-0.171324376355354,,,,,,,,,,,,,,,,,,,,
7,240615_094137,LEARNING,1.0,8,3.0,202.0,,,,,,,,,,8.0,8.0,8.0,cue1.png,Hard,B,,,,,,,,,,,,,,,,,,,,,,,,,,,14,34,Female,0.7142857142857143,1.75,0.2,1.75,1.1111111111111112,2.5,2.2222222222222223,2.6666666666666665,3.0,1.5555555555555556,2.0,1.75,2.0,2.75,0.6333333333333333,0.6571428571428573,0.4266513722314913,0.8484183890389491,0.008120794735120668,-0.3404714823206595,0.009535711488841681,-0.3013430707854083,,,0.02115323917073082,0.3212529253349894,,,,,,,,,,,,,,,,,,,,,,,,
8,240615_094207,LEARNING,1.0,9,1.0,202.0,,,,,,,,,,9.0,9.0,9.0,cue2.png,Easy,B,,,,,,,,,,,,,,,,,,,,,,,,,,,14,34,Female,0.7142857142857143,1.75,0.2,1.75,1.1111111111111112,2.5,2.2222222222222223,2.6666666666666665,3.0,1.5555555555555556,2.0,1.75,2.0,2.75,0.9305555555555556,0.8857142857142857,0.4081883200036827,0.5660888136803283,0.006994185408937491,-0.4055924016569557,0.007213428982710213,-0.454647790796541,0.014789558374662493,-0.289031701692414,0.016464123855041358,-0.27782135762505383,,,,,,,,,,,,,,,,,,,,,,,,
9,240615_094235,LEARNING,1.0,10,1.0,202.0,,,,,,,,,,10.0,10.0,10.0,cue2.png,Easy,B,,,,,,,,,,,,,,,,,,,,,,,,,,,14,34,Female,0.7142857142857143,1.75,0.2,1.75,1.1111111111111112,2.5,2.2222222222222223,2.6666666666666665,3.0,1.5555555555555556,2.0,1.75,2.0,2.75,0.8903061224489796,0.8809523809523809,0.3448010600084671,-0.40320369423128677,0.008076780389201482,-0.343015624822971,0.008923447117248014,-0.3417615030011852,0.020622631977485543,0.3865501497943501,0.015366978827630832,-0.41799094748349735,2.8626238615696702e+44,-0.18191809013871899,1.5326062767663214e+44,-0.1709842400235174,,,,,,,,,,,,,,,,,,,,
10,240615_094309,LEARNING,1.0,11,3.0,202.0,,,,,,,,,,11.0,11.0,11.0,cue1.png,Hard,B,,,,,,,,,,,,,,,,,,,,,,,,,,,14,34,Female,0.7142857142857143,1.75,0.2,1.75,1.1111111111111112,2.5,2.2222222222222223,2.6666666666666665,3.0,1.5555555555555556,2.0,1.75,2.0,2.75,0.8443877551020408,0.6428571428571429,0.5227611133401903,2.318089928730337,0.008548356109214023,-0.31575733420688623,0.0407048741973673,1.7562790098166345,0.0279027599655163,1.229728665977327,0.019176931012440928,0.06876278313819466,,,,,,,,,,,,,,,,,,,,,,,,
11,240615_094338,LEARNING,1.0,12,1.0,202.0,,,,,,,,,,12.0,12.0,12.0,cue2.png,Easy,B,,,,,,,,,,,,,,,,,,,,,,,,,,,14,34,Female,0.7142857142857143,1.75,0.2,1.75,1.1111111111111112,2.5,2.2222222222222223,2.6666666666666665,3.0,1.5555555555555556,2.0,1.75,2.0,2.75,1.0,1.0,0.4000982761942959,0.44237911470127045,,,,,0.033985233579291195,1.9341958243592623,,,,,8.005488663510793e+43,-0.17130461550712073,,,,,,,,,,,,,,,,,,,,
12,240615_094408,LEARNING,1.0,13,1.0,202.0,,,,,,,,,,13.0,13.0,13.0,cue2.png,Easy,B,,,,,,,,,,,,,,,,,,,,,,,,,,,14,34,Female,0.7142857142857143,1.75,0.2,1.75,1.1111111111111112,2.5,2.2222222222222223,2.6666666666666665,3.0,1.5555555555555556,2.0,1.75,2.0,2.75,1.0,0.9523809523809524,0.4050632150028832,0.5183009638199508,0.007463430992083072,-0.3784687989503612,0.08316365422730128,4.559181484996719,0.011304996782873942,-0.6926107977389394,0.0318635717830749,1.6895888262532588,,,,,,,,,,,,,,,,,,,,,,,,
13,240615_094438,LEARNING,1.0,14,1.0,202.0,,,,,,,,,,14.0,14.0,14.0,cue2.png,Easy,B,,,,,,,,,,,,,,,,,,,,,,,,,,,14,34,Female,0.7142857142857143,1.75,0.2,1.75,1.1111111111111112,2.5,2.2222222222222223,2.6666666666666665,3.0,1.5555555555555556,2.0,1.75,2.0,2.75,1.0,1.0,0.4168279333361646,0.6982023089640818,0.007624182835920496,-0.36917692854559253,0.008020314201675009,-0.40138152700308816,0.0150063566569286,-0.2639223005592616,0.014852265566264525,-0.4837499355278567,-1.3161169820468638e+44,-0.18279059751182603,,,,,,,,,,,,,,,,,,,,,,
14,240615_094508,LEARNING,1.0,15,3.0,202.0,,,,,,,,,,15.0,15.0,15.0,cue1.png,Hard,B,,,,,,,,,,,,,,,,,,,,,,,,,,,14,34,Female,0.7142857142857143,1.75,0.2,1.75,1.1111111111111112,2.5,2.2222222222222223,2.6666666666666665,3.0,1.5555555555555556,2.0,1.75,2.0,2.75,0.5,0.523809523809524,0.3232694071318422,-0.7324570776058223,0.023403953391201184,0.5429344321485912,0.006917380139926366,-0.474191358313743,0.017726412457017483,0.051112355043575426,0.01441723859943442,-0.5393283230650607,,,,,,,,,,,,,,,,,,,,,,,,
15,240615_094538,LEARNING,1.0,16,1.0,202.0,,,,,,,,,,16.0,16.0,16.0,cue2.png,Easy,B,,,,,,,,,,,,,,,,,,,,,,,,,,,14,34,Female,0.7142857142857143,1.75,0.2,1.75,1.1111111111111112,2.5,2.2222222222222223,2.6666666666666665,3.0,1.5555555555555556,2.0,1.75,2.0,2.75,1.0,1.0,0.4328682809497141,0.9434848589163121,0.007176588087442114,-0.39504905727167,0.0072489282542314735,-0.45230431799906823,0.010501841890066432,-0.7856315457114919,0.012842239949924148,-0.7405477691856067,,,,,,,,,,,,,,,,,,,,,,,,
16,240615_094607,LEARNING,1.0,17,1.0,202.0,,,,,,,,,,17.0,17.0,17.0,cue2.png,Easy,B,,,,,,,,,,,,,,,,,,,,,,,,,,,14,34,Female,0.7142857142857143,1.75,0.2,1.75,1.1111111111111112,2.5,2.2222222222222223,2.6666666666666665,3.0,1.5555555555555556,2.0,1.75,2.0,2.75,1.0,1.0,0.3912939809490039,0.3077473697836404,,,,,0.011818515236413269,-0.6331355071396888,0.015704193567270663,-0.3749089022035796,,,,,,,,,,,,,,,,,,,,,,,,
17,240615_094639,LEARNING,1.0,18,3.0,202.0,,,,,,,,,,18.0,18.0,18.0,cue1.png,Hard,B,,,,,,,,,,,,,,,,,,,,,,,,,,,14,34,Female,0.7142857142857143,1.75,0.2,1.75,1.1111111111111112,2.5,2.2222222222222223,2.6666666666666665,3.0,1.5555555555555556,2.0,1.75,2.0,2.75,0.2166666666666666,0.5333333333333334,0.3964018499952674,0.38585485066087877,,,0.0076465709004983375,-0.426054068776816,0.017417355503991143,0.01531762952539533,0.0547723076580621,4.616374284463102,,,,,,,,,,,,,,,,,,,,,,,,
18,240615_094709,LEARNING,1.0,19,3.0,202.0,,,,,,,,,,19.0,19.0,19.0,cue1.png,Hard,B,,,,,,,,,,,,,,,,,,,,,,,,,,,14,34,Female,0.7142857142857143,1.75,0.2,1.75,1.1111111111111112,2.5,2.2222222222222223,2.6666666666666665,3.0,1.5555555555555556,2.0,1.75,2.0,2.75,0.6333333333333333,0.7047619047619048,0.4053734052668963,0.5230442686884322,,,0.007397732186965565,-0.4424810750541963,,,0.020630020469010947,0.25440729509097615,,,,,,,,,,,,,,,,,,,,,,,,
19,240615_094741,LEARNING,1.0,20,3.0,202.0,,,,,,,,,,20.0,20.0,20.0,cue1.png,Hard,B,,,,,,,,,,,,,,,,,,,,,,,,,,,14,34,Female,0.7142857142857143,1.75,0.2,1.75,1.1111111111111112,2.5,2.2222222222222223,2.6666666666666665,3.0,1.5555555555555556,2.0,1.75,2.0,2.75,0.0833333333333333,0.4285714285714286,0.4498561187538143,1.203256048117027,,,0.005448106994228416,-0.5711849444198207,0.012371283710725038,-0.5691143109836307,0.024160515312022963,0.7054579782539199,9.256710894172211e+43,-0.18232251952027415,4.995630809003881e+43,-0.17143633805401332,,,,,,,,,,,,,,,,,,,,
20,240615_094811,LEARNING,1.0,21,1.0,202.0,,,,,,,,,,21.0,21.0,21.0,cue2.png,Easy,B,,,,,,,,,,,,,,,,,,,,,,,,,,,14,34,Female,0.7142857142857143,1.75,0.2,1.75,1.1111111111111112,2.5,2.2222222222222223,2.6666666666666665,3.0,1.5555555555555556,2.0,1.75,2.0,2.75,1.0,1.0,0.4077398000018937,0.5592302260490689,0.0064502746812937495,-0.43703184192950606,,,0.009632745825902718,-0.8862895466431823,0.02187829590849182,0.4138850778918204,5.529196621499501e+43,-0.18240034879488057,3.588492064933821e+43,-0.17149791966622224,,,,,,,,,,,,,,,,,,,,
21,240615_094841,LEARNING,1.0,22,3.0,202.0,,,,,,,,,,22.0,22.0,22.0,cue1.png,Hard,B,,,,,,,,,,,,,,,,,,,,,,,,,,,14,34,Female,0.7142857142857143,1.75,0.2,1.75,1.1111111111111112,2.5,2.2222222222222223,2.6666666666666665,3.0,1.5555555555555556,2.0,1.75,2.0,2.75,0.6785714285714286,0.5,0.3492464933272761,-0.3352259143009437,0.018292770096712135,0.24749487976969659,0.005101499569342823,-0.5940661201964845,0.014797088112795549,-0.28815961353177805,0.016525160631213297,-0.27002339138672066,1.331654032367362e+43,-0.1824879921064667,8.568806937591574e+42,-0.17161746511465367,,,,,,,,,,,,,,,,,,,,
22,240615_094910,LEARNING,1.0,23,3.0,202.0,,,,,,,,,,23.0,23.0,23.0,cue1.png,Hard,B,,,,,,,,,,,,,,,,,,,,,,,,,,,14,34,Female,0.7142857142857143,1.75,0.2,1.75,1.1111111111111112,2.5,2.2222222222222223,2.6666666666666665,3.0,1.5555555555555556,2.0,1.75,2.0,2.75,0.0833333333333333,0.6190476190476191,0.3711305350007023,-0.0005839430518525983,,,,,0.01687575057058703,-0.04741061438128718,0.01087421431045876,-0.9919797493002513,-3.4667543126338174e+43,-0.18258818129782534,-1.4760151259545768e+43,-0.1717195612912381,,,,,,,,,,,,,,,,,,,,
23,240615_094939,LEARNING,1.0,24,3.0,202.0,,,,,,,,,,24.0,24.0,24.0,cue1.png,Hard,B,,,,,,,,,,,,,,,,,,,,,,,,,,,14,34,Female,0.7142857142857143,1.75,0.2,1.75,1.1111111111111112,2.5,2.2222222222222223,2.6666666666666665,3.0,1.5555555555555556,2.0,1.75,2.0,2.75,0.1666666666666666,0.523809523809524,0.2912349166743095,-1.2223156327412905,0.008543304092508537,-0.31604935377810545,,,0.013632503093300559,-0.42304090549822915,0.011042429035356786,-0.970488890381848,,,-3.456333585970286e+43,-0.17180622737442908,,,,,,,,,,,,,,,,,,,,
24,240615_095008,LEARNING,1.0,25,1.0,202.0,,,,,,,,,,25.0,25.0,25.0,cue2.png,Easy,B,,,,,,,,,,,,,,,,,,,,,,,,,,,14,34,Female,0.7142857142857143,1.75,0.2,1.75,1.1111111111111112,2.5,2.2222222222222223,2.6666666666666665,3.0,1.5555555555555556,2.0,1.75,2.0,2.75,0.9305555555555556,0.9333333333333332,0.3950612047642824,0.36535424252196785,,,,,0.017016150218314614,-0.03114964110743988,0.022458419536402645,0.4880007954678035,-7.690534154546899e+43,-0.18267637243463822,-4.1122981932569263e+43,-0.17183493481940484,,,,,,,,,,,,,,,,,,,,
25,240615_095037,LEARNING,1.0,26,1.0,202.0,,,,,,,,,,26.0,26.0,26.0,cue2.png,Easy,B,,,,,,,,,,,,,,,,,,,,,,,,,,,14,34,Female,0.7142857142857143,1.75,0.2,1.75,1.1111111111111112,2.5,2.2222222222222223,2.6666666666666665,3.0,1.5555555555555556,2.0,1.75,2.0,2.75,1.0,1.0,0.3670518238186127,-0.06295395543341337,0.09603015492461602,4.7409158457962555,0.03654608733536094,1.4817380554829034,0.02365248942641678,0.7374657809805014,0.013229155218053484,-0.6911160595312679,-6.421868279686167e+43,-0.18264988310755978,-3.4274351364046356e+43,-0.171804962671057,,,,,,,,,,,,,,,,,,,,
26,240615_095106,LEARNING,1.0,27,3.0,202.0,,,,,,,,,,27.0,27.0,27.0,cue1.png,Hard,B,,,,,,,,,,,,,,,,,,,,,,,,,,,14,34,Female,0.7142857142857143,1.75,0.2,1.75,1.1111111111111112,2.5,2.2222222222222223,2.6666666666666665,3.0,1.5555555555555556,2.0,1.75,2.0,2.75,0.6607142857142857,0.4761904761904763,0.2002949846075633,-2.6129325300317174,0.006368773135872951,-0.441742841068056,,,0.016994199919289056,-0.03369190692921818,,,7.4188398055051e+42,-0.18250030631158026,,,,,,,,,,,,,,,,,,,,,,
27,240615_095135,LEARNING,1.0,28,1.0,202.0,,,,,,,,,,28.0,28.0,28.0,cue2.png,Easy,B,,,,,,,,,,,,,,,,,,,,,,,,,,,14,34,Female,0.7142857142857143,1.75,0.2,1.75,1.1111111111111112,2.5,2.2222222222222223,2.6666666666666665,3.0,1.5555555555555556,2.0,1.75,2.0,2.75,1.0,1.0,0.3831741761865227,0.18358257826919214,,,0.015400375261723045,0.08581078981819573,0.02194957155781122,0.5402352152551441,0.01570891507118501,-0.3743056900022254,5.439880154793946e+41,-0.18251466077647843,2.5993414607016913e+39,-0.17165495401733005,,,,,,,,,,,,,,,,,,,,
28,240615_095205,LEARNING,1.0,29,1.0,202.0,,,,,,,,,,29.0,29.0,29.0,cue2.png,Easy,B,,,,,,,,,,,,,,,,,,,,,,,,,,,14,34,Female,0.7142857142857143,1.75,0.2,1.75,1.1111111111111112,2.5,2.2222222222222223,2.6666666666666665,3.0,1.5555555555555556,2.0,1.75,2.0,2.75,1.0,1.0,0.4078115571478736,0.5603275074900507,,,0.006852607350596663,-0.47846731281381455,,,0.02298019477705161,0.5546620113078584,3.569201531802714e+43,-0.18244127284906367,1.916700371475912e+43,-0.17157108347341213,,,,,,,,,,,,,,,,,,,,
29,240615_095234,LEARNING,1.0,30,3.0,202.0,,,,,,,,,,30.0,30.0,30.0,cue1.png,Hard,B,,,,,,,,,,,,,,,,,,,,,,,,,,,14,34,Female,0.7142857142857143,1.75,0.2,1.75,1.1111111111111112,2.5,2.2222222222222223,2.6666666666666665,3.0,1.5555555555555556,2.0,1.75,2.0,2.75,0.775,0.7238095238095239,0.3629745333261477,-0.1253022432001326,0.007981997516064633,-0.34849431889424975,0.00698146315507677,-0.4699609390304891,0.012371077737242855,-0.569138166665202,0.0124930253366864,-0.7851629001730203,,,3.0203176732211135e+43,-0.17152278508564509,,,,,,,,,,,,,,,,,,,,
30,240615_095259,LEARNING,1.0,31,3.0,202.0,,,,,,,,,,31.0,31.0,31.0,cue1.png,Hard,B,,,,,,,,,,,,,,,,,,,,,,,,,,,14,34,Female,0.7142857142857143,1.75,0.2,1.75,1.1111111111111112,2.5,2.2222222222222223,2.6666666666666665,3.0,1.5555555555555556,2.0,1.75,2.0,2.75,0.6190476190476191,0.7142857142857143,0.1865128904741834,-2.8236827752359757,0.006048095473159571,-0.46027883550834575,,,,,0.021697878450596314,0.3908352162557494,6.537716530614406e+43,-0.18237929123018443,,,,,,,,,,,,,,,,,,,,,,
31,240615_095326,LEARNING,1.0,32,1.0,202.0,,,,,,,,,,32.0,32.0,32.0,cue2.png,Easy,B,,,,,,,,,,,,,,,,,,,,,,,,,,,14,34,Female,0.7142857142857143,1.75,0.2,1.75,1.1111111111111112,2.5,2.2222222222222223,2.6666666666666665,3.0,1.5555555555555556,2.0,1.75,2.0,2.75,0.9305555555555556,0.9333333333333332,0.2641430857114583,-1.6365930250734668,,,,,,,,,5.538609194703349e+43,-0.18240015226344136,2.9743574292136084e+43,-0.17152479647644464,,,,,,,,,,,,,,,,,,,,
32,240615_095356,LEARNING,1.0,33,1.0,202.0,,,,,,,,,,33.0,33.0,33.0,cue2.png,Easy,B,,,,,,,,,,,,,,,,,,,,,,,,,,,14,34,Female,0.7142857142857143,1.75,0.2,1.75,1.1111111111111112,2.5,2.2222222222222223,2.6666666666666665,3.0,1.5555555555555556,2.0,1.75,2.0,2.75,1.0,1.0,0.4216730904798688,0.7722925049971868,0.03349967551709278,1.1264931609132354,,,0.017558360883893485,0.0316487582082076,0.02126404624570106,0.335409469696905,3.1362918248595243e+43,-0.18245031186165941,1.7295012887324234e+43,-0.17157927599981931,,,,,,,,,,,,,,,,,,,,
33,240615_095425,LEARNING,1.0,34,1.0,202.0,,,,,,,,,,34.0,34.0,34.0,cue2.png,Easy,B,,,,,,,,,,,,,,,,,,,,,,,,,,,14,34,Female,0.7142857142857143,1.75,0.2,1.75,1.1111111111111112,2.5,2.2222222222222223,2.6666666666666665,3.0,1.5555555555555556,2.0,1.75,2.0,2.75,0.9305555555555556,0.8857142857142857,0.3944157999998424,0.3554849722176607,0.006379714620826017,-0.441110395070594,0.031250524824632156,1.132153228544209,0.011503148302566319,-0.6696610495163379,0.022603625229901628,0.5065520553234867,-4.942731014607706e+42,-0.18252611686573372,-6.030121764985394e+40,-0.17165522929351407,,,,,,,,,,,,,,,,,,,,
34,240615_095454,LEARNING,1.0,35,3.0,202.0,,,,,,,,,,35.0,35.0,35.0,cue1.png,Hard,B,,,,,,,,,,,,,,,,,,,,,,,,,,,14,34,Female,0.7142857142857143,1.75,0.2,1.75,1.1111111111111112,2.5,2.2222222222222223,2.6666666666666665,3.0,1.5555555555555556,2.0,1.75,2.0,2.75,0.7474489795918368,0.6904761904761905,0.3254376368315302,-0.6993013803332528,0.0072244708983987375,-0.39228130753142465,0.0064763976984825,-0.5033026699379242,0.016506120643239502,-0.09022085263398229,0.014039111832208448,-0.5876372271318807,,,-1.665164921603056e+43,-0.17172783918807955,,,,,,,,,,,,,,,,,,,,
35,240615_095521,LEARNING,1.0,36,3.0,202.0,,,,,,,,,,36.0,36.0,36.0,cue1.png,Hard,B,,,,,,,,,,,,,,,,,,,,,,,,,,,14,34,Female,0.7142857142857143,1.75,0.2,1.75,1.1111111111111112,2.5,2.2222222222222223,2.6666666666666665,3.0,1.5555555555555556,2.0,1.75,2.0,2.75,0.725,0.8,0.2761150619092707,-1.4535223759507307,0.008204473991072898,-0.33563460590721106,0.007274948769223793,-0.45058658221330106,0.014810839976825274,-0.28656688379867473,0.030780643429546627,1.5512355371549167,-5.334859945558612e+43,-0.1826271867303101,-2.832871911240032e+43,-0.17177894237837438,,,,,,,,,,,,,,,,,,,,
36,240615_095550,LEARNING,1.0,37,1.0,202.0,,,,,,,,,,37.0,37.0,37.0,cue2.png,Easy,B,,,,,,,,,,,,,,,,,,,,,,,,,,,14,34,Female,0.7142857142857143,1.75,0.2,1.75,1.1111111111111112,2.5,2.2222222222222223,2.6666666666666665,3.0,1.5555555555555556,2.0,1.75,2.0,2.75,1.0,0.9047619047619048,0.3511353105300498,-0.306342880650312,0.008775259295084045,-0.3026417459361499,,,0.01827868863198766,0.11507653348936205,,,,,-3.1890107216993915e+43,-0.17179452833406686,,,,,,,,,,,,,,,,,,,,
37,240615_095618,LEARNING,1.0,38,3.0,202.0,,,,,,,,,,38.0,38.0,38.0,cue1.png,Hard,B,,,,,,,,,,,,,,,,,,,,,,,,,,,14,34,Female,0.7142857142857143,1.75,0.2,1.75,1.1111111111111112,2.5,2.2222222222222223,2.6666666666666665,3.0,1.5555555555555556,2.0,1.75,2.0,2.75,0.5666666666666667,0.7333333333333334,0.3637795666609669,-0.11299199694373607,0.00704490321822022,-0.40266078171519315,0.011306658598547412,-0.1844345766245381,0.022696221897597665,0.62671165174688,,,-4.2660253989993284e+43,-0.18260486981577997,-2.3624898625139223e+43,-0.1717583567147099,,,,,,,,,,,,,,,,,,,,
38,240615_095645,LEARNING,1.0,39,3.0,202.0,,,,,,,,,,39.0,39.0,39.0,cue1.png,Hard,B,,,,,,,,,,,,,,,,,,,,,,,,,,,14,34,Female,0.7142857142857143,1.75,0.2,1.75,1.1111111111111112,2.5,2.2222222222222223,2.6666666666666665,3.0,1.5555555555555556,2.0,1.75,2.0,2.75,0.7474489795918368,0.6904761904761905,0.2442052999977022,-1.9414736322830175,0.057143888999060914,2.4931895685720034,0.006095640537279507,-0.5284382293870182,0.0602803738964236,4.979677638947547,,,,,-1.019624304455922e+43,-0.17169958793558737,,,,,,,,,,,,,,,,,,,,
39,240615_095715,LEARNING,1.0,40,3.0,202.0,,,,,,,,,,40.0,40.0,40.0,cue1.png,Hard,B,,,,,,,,,,,,,,,,,,,,,,,,,,,14,34,Female,0.7142857142857143,1.75,0.2,1.75,1.1111111111111112,2.5,2.2222222222222223,2.6666666666666665,3.0,1.5555555555555556,2.0,1.75,2.0,2.75,0.775,0.7714285714285715,0.3711832210599248,0.0002217109940802312,0.05051808738227242,2.1102011780116454,,,,,,,1.7445229091094183e+43,-0.18247937153982796,1.262122713857672e+43,-0.17159973022032457,,,,,,,,,,,,,,,,,,,,
40,240615_095743,LEARNING,1.0,41,1.0,202.0,,,,,,,,,,41.0,41.0,41.0,cue2.png,Easy,B,,,,,,,,,,,,,,,,,,,,,,,,,,,14,34,Female,0.7142857142857143,1.75,0.2,1.75,1.1111111111111112,2.5,2.2222222222222223,2.6666666666666665,3.0,1.5555555555555556,2.0,1.75,2.0,2.75,1.0,1.0,0.3321426523838281,-0.596770976893133,0.007644128141441227,-0.3680240385403645,0.007376065395498953,-0.44391140120554035,,,,,4.793221567035441e+43,-0.18241571571246348,2.6803672805411705e+43,-0.17153766257611328,,,,,,,,,,,,,,,,,,,,
41,240615_095811,LEARNING,1.0,42,3.0,202.0,,,,,,,,,,42.0,42.0,42.0,cue1.png,Hard,B,,,,,,,,,,,,,,,,,,,,,,,,,,,14,34,Female,0.7142857142857143,1.75,0.2,1.75,1.1111111111111112,2.5,2.2222222222222223,2.6666666666666665,3.0,1.5555555555555556,2.0,1.75,2.0,2.75,0.6190476190476191,0.6190476190476191,0.3106968631618656,-0.9247113677645622,0.006239463627472582,-0.4492172635410929,0.006284959342083523,-0.5159404104150835,,,0.014336548441752788,-0.5496371756098715,,,,,,,,,,,,,,,,,,,,,,,,
42,240615_095839,LEARNING,1.0,43,3.0,202.0,,,,,,,,,,43.0,43.0,43.0,cue1.png,Hard,B,,,,,,,,,,,,,,,,,,,,,,,,,,,14,34,Female,0.7142857142857143,1.75,0.2,1.75,1.1111111111111112,2.5,2.2222222222222223,2.6666666666666665,3.0,1.5555555555555556,2.0,1.75,2.0,2.75,0.0321428571428571,0.6428571428571428,0.3122598380986823,-0.9008109831064403,0.012965002028264935,-0.06046383010825941,0.006235896858389078,-0.5191792542275692,0.021627864060381405,0.5029753139493178,0.016567874846442086,-0.2645662878314362,4.708446461734785e+43,-0.18241748578883812,2.5307025089022235e+43,-0.17154421246180665,,,,,,,,,,,,,,,,,,,,
43,240615_095908,LEARNING,1.0,44,1.0,202.0,,,,,,,,,,44.0,44.0,44.0,cue2.png,Easy,B,,,,,,,,,,,,,,,,,,,,,,,,,,,14,34,Female,0.7142857142857143,1.75,0.2,1.75,1.1111111111111112,2.5,2.2222222222222223,2.6666666666666665,3.0,1.5555555555555556,2.0,1.75,2.0,2.75,1.0,1.0,0.3834696142917632,0.18810029905382297,0.006337300458971696,-0.4435620428145279,0.007119652156086494,-0.4608384373311999,,,,,1.3846749206438374e+43,-0.18248688504772148,8.279655080241923e+42,-0.1716187305504626,,,,,,,,,,,,,,,,,,,,
44,240615_095938,LEARNING,1.0,45,1.0,202.0,,,,,,,,,,45.0,45.0,45.0,cue2.png,Easy,B,,,,,,,,,,,,,,,,,,,,,,,,,,,14,34,Female,0.7142857142857143,1.75,0.2,1.75,1.1111111111111112,2.5,2.2222222222222223,2.6666666666666665,3.0,1.5555555555555556,2.0,1.75,2.0,2.75,1.0,0.9523809523809524,0.4190681050007697,0.7324581138545521,0.006324167297982621,-0.444321173329005,0.02057976313700173,0.427726386199002,,,0.021267253328033104,0.33581920168665486,-2.745457382934033e+43,-0.18257312085466998,-1.5994291752215353e+43,-0.171724962347925,,,,,,,,,,,,,,,,,,,,
45,240615_100008,LEARNING,1.0,46,1.0,202.0,,,,,,,,,,46.0,46.0,46.0,cue2.png,Easy,B,,,,,,,,,,,,,,,,,,,,,,,,,,,14,34,Female,0.7142857142857143,1.75,0.2,1.75,1.1111111111111112,2.5,2.2222222222222223,2.6666666666666665,3.0,1.5555555555555556,2.0,1.75,2.0,2.75,0.9305555555555556,0.8857142857142857,0.4032626800035359,0.4907679061482396,0.005993443097140432,-0.4634378835364114,0.010208286788511201,-0.2569432323807339,0.012934094909606569,-0.5039299746169764,,,-6.193432152256042e+43,-0.18264511343619405,-3.2905334967305645e+43,-0.17179897134737218,,,,,,,,,,,,,,,,,,,,
46,240615_100040,LEARNING,1.0,47,3.0,202.0,,,,,,,,,,47.0,47.0,47.0,cue1.png,Hard,B,,,,,,,,,,,,,,,,,,,,,,,,,,,14,34,Female,0.7142857142857143,1.75,0.2,1.75,1.1111111111111112,2.5,2.2222222222222223,2.6666666666666665,3.0,1.5555555555555556,2.0,1.75,2.0,2.75,0.5583333333333333,0.580952380952381,0.4609887866691375,1.3734923322568566,0.006105567515141343,-0.45695680352884244,0.011643822869773338,-0.16217678754781065,0.013056785225195324,-0.4897200818213787,0.014750208775098497,-0.4967885568610584,-4.687703820444306e+43,-0.18261367432282075,-2.53651619508602e+43,-0.17176597275269603,,,,,,,,,,,,,,,,,,,,
47,240615_100111,LEARNING,1.0,48,3.0,202.0,,,,,,,,,,48.0,48.0,48.0,cue1.png,Hard,B,,,,,,,,,,,,,,,,,,,,,,,,,,,14,34,Female,0.7142857142857143,1.75,0.2,1.75,1.1111111111111112,2.5,2.2222222222222223,2.6666666666666665,3.0,1.5555555555555556,2.0,1.75,2.0,2.75,0.1428571428571428,0.4285714285714285,0.3994528000023112,0.4325087521556533,0.012695143331568442,-0.07606235748713988,0.006356579896113961,-0.5112124029682338,,,0.01245410998637539,-0.7901346664901553,1.3704078757264635e+43,-0.18248718293893676,7.199830286592592e+42,-0.17162345626439637,,,,,,,,,,,,,,,,,,,,
48,240615_100140,LEARNING,1.0,49,1.0,202.0,,,,,,,,,,49.0,49.0,49.0,cue2.png,Easy,B,,,,,,,,,,,,,,,,,,,,,,,,,,,14,34,Female,0.7142857142857143,1.75,0.2,1.75,1.1111111111111112,2.5,2.2222222222222223,2.6666666666666665,3.0,1.5555555555555556,2.0,1.75,2.0,2.75,1.0,1.0,0.3802896190456868,0.13947308962011293,,,0.01910748467453193,0.33053440508928605,,,0.021799514650525924,0.40382010348850494,,,4.2561008234372683e+43,-0.17146870262998704,,,,,,,,,,,,,,,,,,,,
49,240615_100210,LEARNING,1.0,50,1.0,202.0,,,,,,,,,,50.0,50.0,50.0,cue2.png,Easy,B,,,,,,,,,,,,,,,,,,,,,,,,,,,14,34,Female,0.7142857142857143,1.75,0.2,1.75,1.1111111111111112,2.5,2.2222222222222223,2.6666666666666665,3.0,1.5555555555555556,2.0,1.75,2.0,2.75,0.8388888888888889,0.7238095238095239,0.3796310333289309,0.12940226148970788,0.007681637319231237,-0.3658559115024769,0.007251690157788592,-0.4521219918391786,0.01564737512841005,-0.18968006134063337,,,,,,,,,,,,,,,,,,,,,,,,,,
0,240615_100336,TrueCHOICE,9.0,1,1.0,202.0,,,,,,,,,,,2.0,1.0,,,B,,,,,,True,cue2.png,Easy,cue1.png,Hard,Left,Easy,Easy,0.016406700015068,,,,,,,,,,,,,14,34,Female,0.7142857142857143,1.75,0.2,1.75,1.1111111111111112,2.5,2.2222222222222223,2.6666666666666665,3.0,1.5555555555555556,2.0,1.75,2.0,2.75,0.9362244897959184,0.9285714285714286,0.3185292428520153,-1.413098293214136,,,,,,,,,,,,,0.00891298063673055,-0.9341879560554485,,,200518952.6899607,2.1440577316744784,,,,,,,,,,,,,,
1,240615_100403,TrueCHOICE,9.0,2,1.0,202.0,,,,,,,,,,,3.0,2.0,,,B,,,,,,True,cue2.png,Easy,cue1.png,Hard,Left,Easy,Easy,0.0154407999943941,,,,,,,,,,,,,14,34,Female,0.7142857142857143,1.75,0.2,1.75,1.1111111111111112,2.5,2.2222222222222223,2.6666666666666665,3.0,1.5555555555555556,2.0,1.75,2.0,2.75,0.9362244897959184,0.9285714285714286,0.3839842952355476,0.08620932768773247,,,,,,,,,,,,,,,0.012512206249575868,-0.8266414454744991,58381178.60514001,0.14425701897221763,,,,,,,,,,,,,,
2,240615_100430,TrueCHOICE,9.0,3,1.0,202.0,,,,,,,,,,,4.0,3.0,,,B,,,,,,True,cue1.png,Hard,cue2.png,Easy,Right,Easy,Easy,0.0170115000219084,,,,,,,,,,,,,14,34,Female,0.7142857142857143,1.75,0.2,1.75,1.1111111111111112,2.5,2.2222222222222223,2.6666666666666665,3.0,1.5555555555555556,2.0,1.75,2.0,2.75,1.0,1.0,0.3916639047647117,0.2621177820139124,,,,,,,,,,,,,0.01691295717791612,1.692110287117202,0.012784231069308895,-0.7430240998673459,23329659.062217627,-0.34889868305392774,,,,,,,,,,,,,,
3,240615_100500,TrueCHOICE,9.0,4,3.0,202.0,,,,,,,,,,,5.0,4.0,,,B,,,,,,True,cue2.png,Easy,cue1.png,Hard,Right,Hard,Hard,0.0166093000443652,,,,,,,,,,,,,14,34,Female,0.7142857142857143,1.75,0.2,1.75,1.1111111111111112,2.5,2.2222222222222223,2.6666666666666665,3.0,1.5555555555555556,2.0,1.75,2.0,2.75,0.0892857142857143,0.4285714285714286,0.41816581999495,0.8691683002896919,,,,,,,,,,,,,,,,,,,,,,,,,,,,,,,,
4,240615_100526,TrueCHOICE,9.0,5,1.0,202.0,,,,,,,,,,,6.0,5.0,,,B,,,,,,True,cue1.png,Hard,cue2.png,Easy,Right,Easy,Easy,0.0167908999719657,,,,,,,,,,,,,14,34,Female,0.7142857142857143,1.75,0.2,1.75,1.1111111111111112,2.5,2.2222222222222223,2.6666666666666665,3.0,1.5555555555555556,2.0,1.75,2.0,2.75,0.9305555555555556,0.9333333333333332,0.3815851047651709,0.031253683696284604,,,,,,,,,,,,,,,,,,,,,,,,,,,,,,,,
5,240615_100559,TrueCHOICE,9.0,6,1.0,202.0,,,,,,,,,,,8.0,6.0,,,B,,,,,,True,cue1.png,Hard,cue2.png,Easy,Right,Easy,Easy,0.0169787000049836,,,,,,,,,,,,,14,34,Female,0.7142857142857143,1.75,0.2,1.75,1.1111111111111112,2.5,2.2222222222222223,2.6666666666666665,3.0,1.5555555555555556,2.0,1.75,2.0,2.75,1.0,1.0,0.3808556428578283,0.01454469398487317,,,,,,,,,,,,,0.00755617577130235,-1.3796110414929095,0.013635073199200185,-0.4814848752404527,280029.54015961755,-0.6731943591507527,,,,,,,,,,,,,,
6,240615_100628,TrueCHOICE,9.0,7,3.0,202.0,,,,,,,,,,,9.0,7.0,,,B,,,,,,True,cue2.png,Easy,cue1.png,Hard,Right,Hard,Hard,0.0165045000030659,,,,,,,,,,,,,14,34,Female,0.7142857142857143,1.75,0.2,1.75,1.1111111111111112,2.5,2.2222222222222223,2.6666666666666665,3.0,1.5555555555555556,2.0,1.75,2.0,2.75,0.15,0.5523809523809524,0.4755192550044739,2.1829009926236655,,,,,,,,,,,,,0.011246207403766221,-0.16821704006060276,,,-640942.565686726,-0.6861519327831591,,,,,,,,,,,,,,
7,240615_100654,TrueCHOICE,9.0,8,1.0,202.0,,,,,,,,,,,10.0,8.0,,,B,,,,,,True,cue1.png,Hard,cue2.png,Easy,Right,Easy,Easy,0.0167554999934509,,,,,,,,,,,,,14,34,Female,0.7142857142857143,1.75,0.2,1.75,1.1111111111111112,2.5,2.2222222222222223,2.6666666666666665,3.0,1.5555555555555556,2.0,1.75,2.0,2.75,1.0,1.0,0.3753127761939097,-0.1124197179013346,,,,,,,,,,,,,0.012653614250210984,0.2938180808197976,0.01277451913179623,-0.7460094393533113,,,,,,,,,,,,,,,,
8,240615_100722,TrueCHOICE,9.0,9,3.0,202.0,,,,,,,,,,,11.0,9.0,,,B,,,,,,True,cue2.png,Easy,cue1.png,Hard,Right,Hard,Hard,0.0164642999880015,,,,,,,,,,,,,14,34,Female,0.7142857142857143,1.75,0.2,1.75,1.1111111111111112,2.5,2.2222222222222223,2.6666666666666665,3.0,1.5555555555555556,2.0,1.75,2.0,2.75,0.8443877551020408,0.6904761904761905,0.3611512312454579,-0.4368028096838714,,,,,,,,,,,,,,,0.019168596615506406,1.2194574886977274,,,,,,,,,,,,,,,,
9,240615_100749,TrueCHOICE,9.0,10,1.0,202.0,,,,,,,,,,,12.0,10.0,,,B,,,,,,True,cue1.png,Hard,cue2.png,Easy,Right,Easy,Easy,0.0166119000059552,,,,,,,,,,,,,14,34,Female,0.7142857142857143,1.75,0.2,1.75,1.1111111111111112,2.5,2.2222222222222223,2.6666666666666665,3.0,1.5555555555555556,2.0,1.75,2.0,2.75,0.9362244897959184,0.9285714285714286,0.3154393999942667,-1.4838739594968078,,,,,,,,,,,,,0.013269748373598952,0.4960876696719588,0.020334042599059937,1.577702371237879,6898949.578560819,-0.5800697756588575,,,,,,,,,,,,,,
0,240615_100940,FalseCHOICE,9.0,1,2.0,202.0,,,,,,,,,,,1.0,1.0,,,B,,,,,,False,cue2.png,Easy,cue1.png,Hard,Left,Easy,Mid,0.0174196999869309,,,,,,,,,,,,,14,34,Female,0.7142857142857143,1.75,0.2,1.75,1.1111111111111112,2.5,2.2222222222222223,2.6666666666666665,3.0,1.5555555555555556,2.0,1.75,2.0,2.75,0.725,0.7523809523809524,0.3537450549949426,0.7463443072408157,,,,,,,,,,,,,,,,,,,0.007888081911659472,-0.5206214277619478,,,,,,,,,,,,
1,240615_101010,FalseCHOICE,9.0,2,2.0,202.0,,,,,,,,,,,3.0,2.0,,,B,,,,,,False,cue1.png,Hard,cue2.png,Easy,Right,Easy,Mid,0.0166570000001229,,,,,,,,,,,,,14,34,Female,0.7142857142857143,1.75,0.2,1.75,1.1111111111111112,2.5,2.2222222222222223,2.6666666666666665,3.0,1.5555555555555556,2.0,1.75,2.0,2.75,0.06875,0.6857142857142857,0.2683863699930953,-0.6167276299583604,,,,,,,,,,,,,,,,,,,0.006729297347349363,-0.5766781002331035,0.012127411517025875,-0.6882441669159733,5.849989886709375e+44,-0.1763052168297211,,,,,,,,
2,240615_101047,FalseCHOICE,9.0,3,2.0,202.0,,,,,,,,,,,6.0,3.0,,,B,,,,,,False,cue1.png,Hard,cue2.png,Easy,Left,Hard,Mid,0.0166508000111207,,,,,,,,,,,,,14,34,Female,0.7142857142857143,1.75,0.2,1.75,1.1111111111111112,2.5,2.2222222222222223,2.6666666666666665,3.0,1.5555555555555556,2.0,1.75,2.0,2.75,0.6785714285714286,0.7380952380952381,0.2817571400024462,-0.40321307806365625,,,,,,,,,,,,,,,,,,,0.007077379191570431,-0.5598395000863428,0.010462644546149227,-1.0329161102924629,-3.055918090848182e+44,-0.17702431559496826,,,,,,,,
3,240615_101112,FalseCHOICE,9.0,4,2.0,202.0,,,,,,,,,,,7.0,4.0,,,B,,,,,,False,cue1.png,Hard,cue2.png,Easy,Left,Hard,Mid,0.0143241999903693,,,,,,,,,,,,,14,34,Female,0.7142857142857143,1.75,0.2,1.75,1.1111111111111112,2.5,2.2222222222222223,2.6666666666666665,3.0,1.5555555555555556,2.0,1.75,2.0,2.75,0.5,0.6666666666666667,0.2776265900029102,-0.4691728194706825,,,,,,,,,,,,,,,,,,,0.02538659214028374,0.32587608940436796,0.02385889522368329,1.7406322816202224,-4.168268092313211e+44,-0.17711413119991182,,,,,,,,
4,240615_101138,FalseCHOICE,9.0,5,2.0,202.0,,,,,,,,,,,8.0,5.0,,,B,,,,,,False,cue2.png,Easy,cue1.png,Hard,Left,Easy,Mid,0.0134720000205561,,,,,,,,,,,,,14,34,Female,0.7142857142857143,1.75,0.2,1.75,1.1111111111111112,2.5,2.2222222222222223,2.6666666666666665,3.0,1.5555555555555556,2.0,1.75,2.0,2.75,0.7000000000000001,0.6285714285714286,0.2138466437427268,-1.487659162148596,,,,,,,,,,,,,,,,,,,0.006453294022264194,-0.5900298728332679,0.011179135060937841,-0.8845745210711379,7.224847311808165e+48,5.656854211788993,,,,,,,,
5,240615_101205,FalseCHOICE,9.0,6,2.0,202.0,,,,,,,,,,,9.0,6.0,,,B,,,,,,False,cue1.png,Hard,cue2.png,Easy,Right,Easy,Mid,0.0166928000398911,,,,,,,,,,,,,14,34,Female,0.7142857142857143,1.75,0.2,1.75,1.1111111111111112,2.5,2.2222222222222223,2.6666666666666665,3.0,1.5555555555555556,2.0,1.75,2.0,2.75,0.1833333333333333,0.5428571428571429,0.2965250823455041,-0.16738742332726914,,,,,,,,,,,,,,,,,,,0.05702637016244994,1.8564631616481022,0.021783271898347077,1.3108969866651112,-5.981970446484893e+43,-0.1768258693305225,,,,,,,,
6,240615_101233,FalseCHOICE,9.0,7,2.0,202.0,,,,,,,,,,,10.0,7.0,,,B,,,,,,False,cue1.png,Hard,cue2.png,Easy,Right,Easy,Mid,0.0164962999988347,,,,,,,,,,,,,14,34,Female,0.7142857142857143,1.75,0.2,1.75,1.1111111111111112,2.5,2.2222222222222223,2.6666666666666665,3.0,1.5555555555555556,2.0,1.75,2.0,2.75,0.725,0.6571428571428573,0.3645855111147587,0.9194528962852768,,,,,,,,,,,,,,,,,,,0.010473434125137147,-0.39555396766872647,,,,,,,,,,,,
7,240615_101257,FalseCHOICE,9.0,8,2.0,202.0,,,,,,,,,,,11.0,8.0,,,B,,,,,,False,cue2.png,Easy,cue1.png,Hard,Left,Easy,Mid,0.0165077000274322,,,,,,,,,,,,,14,34,Female,0.7142857142857143,1.75,0.2,1.75,1.1111111111111112,2.5,2.2222222222222223,2.6666666666666665,3.0,1.5555555555555556,2.0,1.75,2.0,2.75,0.7474489795918368,0.7857142857142857,0.311086799996528,0.06514507980464995,,,,,,,,,,,,,,,,,,,0.012318483451349616,-0.30629895948332225,,,,,,,,,,,,
8,240615_101323,FalseCHOICE,9.0,9,2.0,202.0,,,,,,,,,,,12.0,9.0,,,B,,,,,,False,cue2.png,Easy,cue1.png,Hard,Right,Hard,Mid,0.016820800025016,,,,,,,,,,,,,14,34,Female,0.7142857142857143,1.75,0.2,1.75,1.1111111111111112,2.5,2.2222222222222223,2.6666666666666665,3.0,1.5555555555555556,2.0,1.75,2.0,2.75,0.6190476190476191,0.6666666666666667,0.3011900549900019,-0.09289361757828017,,,,,,,,,,,,,,,,,,,0.00933635793776422,-0.45056048861618414,0.007955322811650605,-1.5520298781759463,,,,,,,,,,
9,240615_101349,FalseCHOICE,9.0,10,2.0,202.0,,,,,,,,,,,13.0,10.0,,,B,,,,,,False,cue1.png,Hard,cue2.png,Easy,Right,Easy,Mid,0.0164545999723486,,,,,,,,,,,,,14,34,Female,0.7142857142857143,1.75,0.2,1.75,1.1111111111111112,2.5,2.2222222222222223,2.6666666666666665,3.0,1.5555555555555556,2.0,1.75,2.0,2.75,0.725,0.8,0.353318480952155,0.7395324508157929,,,,,,,,,,,,,,,,,,,0.11382068623344241,4.60391119665913,0.01516161036361937,-0.060046208077701564,,,,,,,,,,
10,240615_101417,FalseCHOICE,9.0,11,2.0,202.0,,,,,,,,,,,14.0,11.0,,,B,,,,,,False,cue2.png,Easy,cue1.png,Hard,Left,Easy,Mid,0.0153978000162169,,,,,,,,,,,,,14,34,Female,0.7142857142857143,1.75,0.2,1.75,1.1111111111111112,2.5,2.2222222222222223,2.6666666666666665,3.0,1.5555555555555556,2.0,1.75,2.0,2.75,0.6333333333333333,0.6571428571428573,0.369408344448958,0.9964675407294074,,,,,,,,,,,,,,,,,,,,,0.02453274180324703,1.8801449066175409,1.620820729205826e+44,-0.17664669692662371,,,,,,,,
11,240615_101444,FalseCHOICE,9.0,12,2.0,202.0,,,,,,,,,,,15.0,12.0,,,B,,,,,,False,cue1.png,Hard,cue2.png,Easy,Left,Hard,Mid,0.0160413999692536,,,,,,,,,,,,,14,34,Female,0.7142857142857143,1.75,0.2,1.75,1.1111111111111112,2.5,2.2222222222222223,2.6666666666666665,3.0,1.5555555555555556,2.0,1.75,2.0,2.75,0.0333333333333333,0.6571428571428573,0.3490733555518091,0.6717430828917469,,,,,,,,,,,,,,,,,,,0.00924167596302788,-0.4551407674792161,0.010951204114893457,-0.9317651510530567,,,,,,,,,,
12,240615_101510,FalseCHOICE,9.0,13,2.0,202.0,,,,,,,,,,,16.0,13.0,,,B,,,,,,False,cue2.png,Easy,cue1.png,Hard,Left,Easy,Mid,0.0160756999976001,,,,,,,,,,,,,14,34,Female,0.7142857142857143,1.75,0.2,1.75,1.1111111111111112,2.5,2.2222222222222223,2.6666666666666665,3.0,1.5555555555555556,2.0,1.75,2.0,2.75,0.6190476190476191,0.6666666666666667,0.2885457850061357,-0.29480686847952003,,,,,,,,,,,,,,,,,,,0.006478979623573954,-0.5887873214702343,,,,,,,,,,,,
13,240615_101538,FalseCHOICE,9.0,14,2.0,202.0,,,,,,,,,,,17.0,14.0,,,B,,,,,,False,cue1.png,Hard,cue2.png,Easy,Left,Hard,Mid,0.016669999982696,,,,,,,,,,,,,14,34,Female,0.7142857142857143,1.75,0.2,1.75,1.1111111111111112,2.5,2.2222222222222223,2.6666666666666665,3.0,1.5555555555555556,2.0,1.75,2.0,2.75,0.8777777777777778,0.6476190476190476,0.2725406400044449,-0.550389109491507,,,,,,,,,,,,,,,,,,,0.006456958855537601,-0.5898525850398366,0.01453331855330988,-0.19012721223942464,-9.014950685818319e+43,-0.17685035883064554,,,,,,,,
14,240615_101605,FalseCHOICE,9.0,15,2.0,202.0,,,,,,,,,,,18.0,15.0,,,B,,,,,,False,cue2.png,Easy,cue1.png,Hard,Left,Easy,Mid,0.0164032999891787,,,,,,,,,,,,,14,34,Female,0.7142857142857143,1.75,0.2,1.75,1.1111111111111112,2.5,2.2222222222222223,2.6666666666666665,3.0,1.5555555555555556,2.0,1.75,2.0,2.75,0.7474489795918368,0.7380952380952381,0.3910158849990693,1.341513064276456,,,,,,,,,,,,,,,,,,,0.008010598294509527,-0.5146946481367246,0.011875872436028211,-0.740322605159463,,,,,,,,,,
15,240615_101630,FalseCHOICE,9.0,16,2.0,202.0,,,,,,,,,,,19.0,16.0,,,B,,,,,,False,cue2.png,Easy,cue1.png,Hard,Left,Easy,Mid,0.0164631999796256,,,,,,,,,,,,,14,34,Female,0.7142857142857143,1.75,0.2,1.75,1.1111111111111112,2.5,2.2222222222222223,2.6666666666666665,3.0,1.5555555555555556,2.0,1.75,2.0,2.75,0.8388888888888889,0.8666666666666667,0.2880881761943566,-0.30211431153042495,,,,,,,,,,,,,,,,,,,0.020886004885810314,0.10815835875606912,0.013379718011352265,-0.4289676911968632,,,,,,,,,,
16,240615_101655,FalseCHOICE,9.0,17,2.0,202.0,,,,,,,,,,,20.0,17.0,,,B,,,,,,False,cue1.png,Hard,cue2.png,Easy,Right,Easy,Mid,0.0163841000176034,,,,,,,,,,,,,14,34,Female,0.7142857142857143,1.75,0.2,1.75,1.1111111111111112,2.5,2.2222222222222223,2.6666666666666665,3.0,1.5555555555555556,2.0,1.75,2.0,2.75,0.8250000000000001,0.7904761904761906,0.2202263833346983,-1.3857826629468255,,,,,,,,,,,,,,,,,,,,,,,,,,,,,,,,
17,240615_101722,FalseCHOICE,9.0,18,2.0,202.0,,,,,,,,,,,21.0,18.0,,,B,,,,,,False,cue1.png,Hard,cue2.png,Easy,Left,Hard,Mid,0.0163440000033006,,,,,,,,,,,,,14,34,Female,0.7142857142857143,1.75,0.2,1.75,1.1111111111111112,2.5,2.2222222222222223,2.6666666666666665,3.0,1.5555555555555556,2.0,1.75,2.0,2.75,0.5,0.5714285714285714,0.3569247388934147,0.797119900738743,,,,,,,,,,,,,,,,,,,0.01756494661121652,-0.05249917991882851,0.013963972257582603,-0.3080041869965522,,,,,,,,,,
18,240615_101748,FalseCHOICE,9.0,19,2.0,202.0,,,,,,,,,,,22.0,19.0,,,B,,,,,,False,cue2.png,Easy,cue1.png,Hard,Left,Easy,Mid,0.0161345999804325,,,,,,,,,,,,,14,34,Female,0.7142857142857143,1.75,0.2,1.75,1.1111111111111112,2.5,2.2222222222222223,2.6666666666666665,3.0,1.5555555555555556,2.0,1.75,2.0,2.75,0.725,0.8,0.3454520380972618,0.6139151512890508,,,,,,,,,,,,,,,,,,,,,0.013901594166753099,-0.32091889407954927,,,,,,,,,,
19,240615_101814,FalseCHOICE,9.0,20,2.0,202.0,,,,,,,,,,,23.0,20.0,,,B,,,,,,False,cue2.png,Easy,cue1.png,Hard,Left,Easy,Mid,0.0150998999597504,,,,,,,,,,,,,14,34,Female,0.7142857142857143,1.75,0.2,1.75,1.1111111111111112,2.5,2.2222222222222223,2.6666666666666665,3.0,1.5555555555555556,2.0,1.75,2.0,2.75,0.5666666666666667,0.7333333333333334,0.3355420571336123,0.4556650921481867,,,,,,,,,,,,,,,,,,,0.01678822760380273,-0.09007327638311653,0.01388442206206757,-0.32447419208663847,5.377018934041917e+43,-0.17673415228989534,,,,,,,,
20,240615_101841,FalseCHOICE,9.0,21,2.0,202.0,,,,,,,,,,,24.0,21.0,,,B,,,,,,False,cue2.png,Easy,cue1.png,Hard,Left,Easy,Mid,0.0163780999719165,,,,,,,,,,,,,14,34,Female,0.7142857142857143,1.75,0.2,1.75,1.1111111111111112,2.5,2.2222222222222223,2.6666666666666665,3.0,1.5555555555555556,2.0,1.75,2.0,2.75,0.6333333333333333,0.5619047619047619,0.3216478624999581,0.23379210061009567,,,,,,,,,,,,,,,,,,,0.011547817371441331,-0.3435802431288015,0.01474562886182753,-0.14617066581833255,3.062240029669729e+43,-0.1767528427440989,,,,,,,,
21,240615_101908,FalseCHOICE,9.0,22,2.0,202.0,,,,,,,,,,,25.0,22.0,,,B,,,,,,False,cue1.png,Hard,cue2.png,Easy,Left,Hard,Mid,0.0165378999663516,,,,,,,,,,,,,14,34,Female,0.7142857142857143,1.75,0.2,1.75,1.1111111111111112,2.5,2.2222222222222223,2.6666666666666665,3.0,1.5555555555555556,2.0,1.75,2.0,2.75,0.775,0.6761904761904762,0.3010865647092406,-0.09454622852789264,,,,,,,,,,,,,,,,,,,0.01917159853873114,0.025223257581413912,0.014692760693850728,-0.15711644653004586,-2.3155519479317086e+42,-0.17677943816912298,,,,,,,,
22,240615_101931,FalseCHOICE,9.0,23,2.0,202.0,,,,,,,,,,,26.0,23.0,,,B,,,,,,False,cue2.png,Easy,cue1.png,Hard,Left,Easy,Mid,0.0158916999935172,,,,,,,,,,,,,14,34,Female,0.7142857142857143,1.75,0.2,1.75,1.1111111111111112,2.5,2.2222222222222223,2.6666666666666665,3.0,1.5555555555555556,2.0,1.75,2.0,2.75,0.7474489795918368,0.7857142857142857,0.2238992809434421,-1.327131060493293,,,,,,,,,,,,,,,,,,,,,,,-2.52184113980317e+43,-0.17679793085733927,,,,,,,,
23,240615_101953,FalseCHOICE,9.0,24,2.0,202.0,,,,,,,,,,,27.0,24.0,,,B,,,,,,False,cue1.png,Hard,cue2.png,Easy,Left,Hard,Mid,0.0150129999965429,,,,,,,,,,,,,14,34,Female,0.7142857142857143,1.75,0.2,1.75,1.1111111111111112,2.5,2.2222222222222223,2.6666666666666665,3.0,1.5555555555555556,2.0,1.75,2.0,2.75,0.0833333333333333,0.6190476190476191,0.0999480349972145,-3.306478152432673,,,,,,,,,,,,,,,,,,,0.014334086048535883,-0.20879336776036936,0.026583924573042553,2.304820049657832,-4.411448965303784e+43,-0.17681318830955575,,,,,,,,
24,240615_102018,FalseCHOICE,9.0,25,2.0,202.0,,,,,,,,,,,28.0,25.0,,,B,,,,,,False,cue1.png,Hard,cue2.png,Easy,Left,Hard,Mid,0.0163472000276669,,,,,,,,,,,,,14,34,Female,0.7142857142857143,1.75,0.2,1.75,1.1111111111111112,2.5,2.2222222222222223,2.6666666666666665,3.0,1.5555555555555556,2.0,1.75,2.0,2.75,0.725,0.8,0.2701404238136352,-0.5887175740505969,,,,,,,,,,,,,,,,,,,0.044783684289118074,1.2642182756651814,0.01065933393391388,-0.9921937060711226,-4.651410408836355e+43,-0.17681512585458975,,,,,,,,
25,240615_102042,FalseCHOICE,9.0,26,2.0,202.0,,,,,,,,,,,29.0,26.0,,,B,,,,,,False,cue2.png,Easy,cue1.png,Hard,Right,Hard,Mid,0.016898299974855,,,,,,,,,,,,,14,34,Female,0.7142857142857143,1.75,0.2,1.75,1.1111111111111112,2.5,2.2222222222222223,2.6666666666666665,3.0,1.5555555555555556,2.0,1.75,2.0,2.75,0.0321428571428571,0.4999999999999999,0.2149119666589993,-1.470647281386904,,,,,,,,,,,,,,,,,,,0.011228863196563797,-0.3590097804777584,0.01844040314141037,0.618792271072879,,,,,,,,,,
26,240615_102107,FalseCHOICE,9.0,27,2.0,202.0,,,,,,,,,,,30.0,27.0,,,B,,,,,,False,cue2.png,Easy,cue1.png,Hard,Right,Hard,Mid,0.0165939999860711,,,,,,,,,,,,,14,34,Female,0.7142857142857143,1.75,0.2,1.75,1.1111111111111112,2.5,2.2222222222222223,2.6666666666666665,3.0,1.5555555555555556,2.0,1.75,2.0,2.75,0.6190476190476191,0.7142857142857143,0.2849864809457877,-0.351644523376786,,,,,,,,,,,,,,,,,,,0.05230736607572872,1.628179428306463,,,8.399311231755948e+43,-0.17670974908850384,,,,,,,,
27,240615_102136,FalseCHOICE,9.0,28,2.0,202.0,,,,,,,,,,,31.0,28.0,,,B,,,,,,False,cue1.png,Hard,cue2.png,Easy,Right,Easy,Mid,0.0163147999555803,,,,,,,,,,,,,14,34,Female,0.7142857142857143,1.75,0.2,1.75,1.1111111111111112,2.5,2.2222222222222223,2.6666666666666665,3.0,1.5555555555555556,2.0,1.75,2.0,2.75,0.9362244897959184,0.8809523809523809,0.4490937400085386,2.2689441081639865,,,,,,,,,,,,,,,,,,,0.007348149294742057,-0.5467408867150907,0.015543972290940096,0.019117681444575547,6.077310397953889e+42,-0.1767726614351111,,,,,,,,
28,240615_102201,FalseCHOICE,9.0,29,2.0,202.0,,,,,,,,,,,32.0,29.0,,,B,,,,,,False,cue2.png,Easy,cue1.png,Hard,Right,Hard,Mid,0.0167029000003822,,,,,,,,,,,,,14,34,Female,0.7142857142857143,1.75,0.2,1.75,1.1111111111111112,2.5,2.2222222222222223,2.6666666666666665,3.0,1.5555555555555556,2.0,1.75,2.0,2.75,0.0952380952380952,0.4761904761904761,0.2624535842057268,-0.7114668333095029,,,,,,,,,,,,,,,,,,,0.015307773139304252,-0.16169086051469292,0.012966634979802417,-0.5144920521139728,2.503411405657425e+43,-0.17675735495076578,,,,,,,,
29,240615_102229,FalseCHOICE,9.0,30,2.0,202.0,,,,,,,,,,,33.0,30.0,,,B,,,,,,False,cue2.png,Easy,cue1.png,Hard,Right,Hard,Mid,0.01546279998729,,,,,,,,,,,,,14,34,Female,0.7142857142857143,1.75,0.2,1.75,1.1111111111111112,2.5,2.2222222222222223,2.6666666666666665,3.0,1.5555555555555556,2.0,1.75,2.0,2.75,0.7000000000000001,0.6761904761904762,0.3484439588329919,0.6616924008227065,,,,,,,,,,,,,,,,,,,0.011426112395669522,-0.3494677706080892,0.010782119419138198,-0.9667723032255308,3.821168233131159e+43,-0.17674671485309218,,,,,,,,
30,240615_102256,FalseCHOICE,9.0,31,2.0,202.0,,,,,,,,,,,34.0,31.0,,,B,,,,,,False,cue1.png,Hard,cue2.png,Easy,Right,Easy,Mid,0.0166984000243246,,,,,,,,,,,,,14,34,Female,0.7142857142857143,1.75,0.2,1.75,1.1111111111111112,2.5,2.2222222222222223,2.6666666666666665,3.0,1.5555555555555556,2.0,1.75,2.0,2.75,0.738095238095238,0.6666666666666667,0.3306478470604976,0.3775106500398554,,,,,,,,,,,,,,,,,,,0.02612450869748339,0.3615731016290784,0.014740113033835978,-0.14731265817308076,,,,,,,,,,
31,240615_102322,FalseCHOICE,9.0,32,2.0,202.0,,,,,,,,,,,35.0,32.0,,,B,,,,,,False,cue2.png,Easy,cue1.png,Hard,Right,Hard,Mid,0.0168605999788269,,,,,,,,,,,,,14,34,Female,0.7142857142857143,1.75,0.2,1.75,1.1111111111111112,2.5,2.2222222222222223,2.6666666666666665,3.0,1.5555555555555556,2.0,1.75,2.0,2.75,0.0321428571428571,0.5476190476190476,0.3204455526337321,0.2145927087915024,,,,,,,,,,,,,,,,,,,0.007485912396409456,-0.5400765408939349,0.014537028062233105,-0.1893591986543961,3.348433909031791e+43,-0.17675053189981674,,,,,,,,
32,240615_102350,FalseCHOICE,9.0,33,2.0,202.0,,,,,,,,,,,36.0,33.0,,,B,,,,,,False,cue1.png,Hard,cue2.png,Easy,Right,Easy,Mid,0.0165399000397883,,,,,,,,,,,,,14,34,Female,0.7142857142857143,1.75,0.2,1.75,1.1111111111111112,2.5,2.2222222222222223,2.6666666666666665,3.0,1.5555555555555556,2.0,1.75,2.0,2.75,0.6333333333333333,0.6571428571428573,0.3735243944490018,1.0621957351954656,,,,,,,,,,,,,,,,,,,0.010995603641984295,-0.37029380587346733,0.012140718615756475,-0.6854890764676305,1.7100063053908232e+43,-0.17676376122207893,,,,,,,,
33,240615_102415,FalseCHOICE,9.0,34,2.0,202.0,,,,,,,,,,,37.0,34.0,,,B,,,,,,False,cue1.png,Hard,cue2.png,Easy,Right,Easy,Mid,0.0156742000253871,,,,,,,,,,,,,14,34,Female,0.7142857142857143,1.75,0.2,1.75,1.1111111111111112,2.5,2.2222222222222223,2.6666666666666665,3.0,1.5555555555555556,2.0,1.75,2.0,2.75,0.0833333333333333,0.6666666666666667,0.3172023857200873,0.16280337057071786,,,,,,,,,,,,,,,,,,,0.009739675040871395,-0.4310498604569677,0.0167337504952162,0.2654483529612559,-3.707110478291997e+42,-0.1767805617693482,,,,,,,,
34,240615_102440,FalseCHOICE,9.0,35,2.0,202.0,,,,,,,,,,,38.0,35.0,,,B,,,,,,False,cue1.png,Hard,cue2.png,Easy,Right,Easy,Mid,0.0170813999720849,,,,,,,,,,,,,14,34,Female,0.7142857142857143,1.75,0.2,1.75,1.1111111111111112,2.5,2.2222222222222223,2.6666666666666665,3.0,1.5555555555555556,2.0,1.75,2.0,2.75,0.0964285714285714,0.5952380952380951,0.2781846100027906,-0.460261934746809,,,,,,,,,,,,,,,,,,,0.0068724257564905895,-0.5697542054905772,0.013150981329226832,-0.47632514009443916,-2.092661271882939e+43,-0.17679446548678,,,,,,,,
35,240615_102506,FalseCHOICE,9.0,36,2.0,202.0,,,,,,,,,,,39.0,36.0,,,B,,,,,,False,cue2.png,Easy,cue1.png,Hard,Right,Hard,Mid,0.0165055000106804,,,,,,,,,,,,,14,34,Female,0.7142857142857143,1.75,0.2,1.75,1.1111111111111112,2.5,2.2222222222222223,2.6666666666666665,3.0,1.5555555555555556,2.0,1.75,2.0,2.75,0.0321428571428571,0.6428571428571428,0.3174940523902131,0.16746092419934067,,,,,,,,,,,,,,,,,,,0.006618839541999326,-0.5820215412894453,0.008231764098936716,-1.4947957082378993,,,,,,,,,,
36,240615_102533,FalseCHOICE,9.0,37,2.0,202.0,,,,,,,,,,,40.0,37.0,,,B,,,,,,False,cue1.png,Hard,cue2.png,Easy,Right,Easy,Mid,0.0167904999689199,,,,,,,,,,,,,14,34,Female,0.7142857142857143,1.75,0.2,1.75,1.1111111111111112,2.5,2.2222222222222223,2.6666666666666665,3.0,1.5555555555555556,2.0,1.75,2.0,2.75,0.7959183673469388,0.7142857142857144,0.3476764333415,0.6494359742093518,,,,,,,,,,,,,,,,,,,0.06356706923501367,2.1728721275039637,0.027107897602252996,2.4133029817523632,-3.573567485714917e+43,-0.1768064229180997,,,,,,,,
37,240615_102600,FalseCHOICE,9.0,38,2.0,202.0,,,,,,,,,,,41.0,38.0,,,B,,,,,,False,cue2.png,Easy,cue1.png,Hard,Right,Hard,Mid,0.0169897000305354,,,,,,,,,,,,,14,34,Female,0.7142857142857143,1.75,0.2,1.75,1.1111111111111112,2.5,2.2222222222222223,2.6666666666666665,3.0,1.5555555555555556,2.0,1.75,2.0,2.75,0.5666666666666667,0.5428571428571429,0.3606036529458566,0.855867578308316,,,,,,,,,,,,,,,,,,,0.008123245272022796,-0.509245304990627,0.023356423287744222,1.636600917662379,-2.4900122572071184e+43,-0.17679767385816264,,,,,,,,
38,240615_102628,FalseCHOICE,9.0,39,2.0,202.0,,,,,,,,,,,42.0,39.0,,,B,,,,,,False,cue2.png,Easy,cue1.png,Hard,Right,Hard,Mid,0.0165585000067949,,,,,,,,,,,,,14,34,Female,0.7142857142857143,1.75,0.2,1.75,1.1111111111111112,2.5,2.2222222222222223,2.6666666666666665,3.0,1.5555555555555556,2.0,1.75,2.0,2.75,0.8520408163265305,0.7142857142857144,0.3571619166727436,0.8009073346140827,,,,,,,,,,,,,,,,,,,,,,,-8.062348361909636e+42,-0.17678407836326807,,,,,,,,
39,240615_102654,FalseCHOICE,9.0,40,2.0,202.0,,,,,,,,,,,43.0,40.0,,,B,,,,,,False,cue1.png,Hard,cue2.png,Easy,Right,Easy,Mid,0.0155001999810338,,,,,,,,,,,,,14,34,Female,0.7142857142857143,1.75,0.2,1.75,1.1111111111111112,2.5,2.2222222222222223,2.6666666666666665,3.0,1.5555555555555556,2.0,1.75,2.0,2.75,0.725,0.8,0.3119371000045378,0.07872331240152385,,,,,,,,,,,,,,,,,,,,,,,1.3406873191355038e+43,-0.17676674325184688,,,,,,,,
40,240615_102721,FalseCHOICE,9.0,41,2.0,202.0,,,,,,,,,,,44.0,41.0,,,B,,,,,,False,cue1.png,Hard,cue2.png,Easy,Right,Easy,Mid,0.0168892999645322,,,,,,,,,,,,,14,34,Female,0.7142857142857143,1.75,0.2,1.75,1.1111111111111112,2.5,2.2222222222222223,2.6666666666666665,3.0,1.5555555555555556,2.0,1.75,2.0,2.75,0.06875,0.5904761904761906,0.3250357999996696,0.2878932448667293,,,,,,,,,,,,,,,,,,,,,0.011013421007837872,-0.9188838182436329,3.1083675617924357e+43,-0.17675247029188537,,,,,,,,
41,240615_102746,FalseCHOICE,9.0,42,2.0,202.0,,,,,,,,,,,45.0,42.0,,,B,,,,,,False,cue2.png,Easy,cue1.png,Hard,Right,Hard,Mid,0.0167045000125654,,,,,,,,,,,,,14,34,Female,0.7142857142857143,1.75,0.2,1.75,1.1111111111111112,2.5,2.2222222222222223,2.6666666666666665,3.0,1.5555555555555556,2.0,1.75,2.0,2.75,0.725,0.8,0.3322334809428347,0.4028312491990287,,,,,,,,,,,,,,,,,,,0.023977403376047465,0.2577060123772759,0.01655779727882698,0.22901914809525575,,,,,,,,,,
42,240615_102815,FalseCHOICE,9.0,43,2.0,202.0,,,,,,,,,,,46.0,43.0,,,B,,,,,,False,cue1.png,Hard,cue2.png,Easy,Right,Easy,Mid,0.0167867999989539,,,,,,,,,,,,,14,34,Female,0.7142857142857143,1.75,0.2,1.75,1.1111111111111112,2.5,2.2222222222222223,2.6666666666666665,3.0,1.5555555555555556,2.0,1.75,2.0,2.75,0.738095238095238,0.7142857142857144,0.4173532444433981,1.762087907453988,,,,,,,,,,,,,,,,,,,,,0.015155270334663386,-0.06135884230192064,2.871542861430094e+43,-0.1767543825095957,,,,,,,,
43,240615_102842,FalseCHOICE,9.0,44,2.0,202.0,,,,,,,,,,,47.0,44.0,,,B,,,,,,False,cue2.png,Easy,cue1.png,Hard,Right,Hard,Mid,0.0174675000016577,,,,,,,,,,,,,14,34,Female,0.7142857142857143,1.75,0.2,1.75,1.1111111111111112,2.5,2.2222222222222223,2.6666666666666665,3.0,1.5555555555555556,2.0,1.75,2.0,2.75,0.8250000000000001,0.6952380952380952,0.3393925999953353,0.517153468142775,,,,,,,,,,,,,,,,,,,0.013407214994674493,-0.25363113026563366,0.017081895126988347,0.3375279225996478,6.004011420464652e+42,-0.17677272061964833,,,,,,,,
44,240615_102909,FalseCHOICE,9.0,45,2.0,202.0,,,,,,,,,,,48.0,45.0,,,B,,,,,,False,cue1.png,Hard,cue2.png,Easy,Left,Hard,Mid,0.0163513000006787,,,,,,,,,,,,,14,34,Female,0.7142857142857143,1.75,0.2,1.75,1.1111111111111112,2.5,2.2222222222222223,2.6666666666666665,3.0,1.5555555555555556,2.0,1.75,2.0,2.75,0.8777777777777778,0.7904761904761906,0.2614967333340448,-0.726746550554984,,,,,,,,,,,,,,,,,,,,,0.018280486473385125,0.5856832595951168,-1.9940338414781129e+43,-0.1767936691293103,,,,,,,,
45,240615_102938,FalseCHOICE,9.0,46,2.0,202.0,,,,,,,,,,,49.0,46.0,,,B,,,,,,False,cue1.png,Hard,cue2.png,Easy,Left,Hard,Mid,0.0142042000079527,,,,,,,,,,,,,14,34,Female,0.7142857142857143,1.75,0.2,1.75,1.1111111111111112,2.5,2.2222222222222223,2.6666666666666665,3.0,1.5555555555555556,2.0,1.75,2.0,2.75,0.7000000000000001,0.6761904761904762,0.4078859882326522,1.6109076114728225,,,,,,,,,,,,,,,,,,,0.006372830836769568,-0.59392231200978,0.018125663486187812,0.5536288394809608,,,,,,,,,,
46,240615_103004,FalseCHOICE,9.0,47,2.0,202.0,,,,,,,,,,,50.0,47.0,,,B,,,,,,False,cue2.png,Easy,cue1.png,Hard,Left,Easy,Mid,0.0160986999981105,,,,,,,,,,,,,14,34,Female,0.7142857142857143,1.75,0.2,1.75,1.1111111111111112,2.5,2.2222222222222223,2.6666666666666665,3.0,1.5555555555555556,2.0,1.75,2.0,2.75,0.0952380952380952,0.4285714285714285,0.2841795055493195,-0.3645309158617713,,,,,,,,,,,,,,,,,,,0.015839491940964533,-0.13596874820025145,0.013337368149360615,-0.43773577074778186,-2.5663176842593196e+43,-0.1767982899788155,,,,,,,,
47,240615_103028,FalseCHOICE,9.0,48,2.0,202.0,,,,,,,,,,,51.0,48.0,,,B,,,,,,False,cue2.png,Easy,cue1.png,Hard,Right,Hard,Mid,0.0163619999657385,,,,,,,,,,,,,14,34,Female,0.7142857142857143,1.75,0.2,1.75,1.1111111111111112,2.5,2.2222222222222223,2.6666666666666665,3.0,1.5555555555555556,2.0,1.75,2.0,2.75,0.725,0.8,0.2451641428550439,-0.9875576882056021,,,,,,,,,,,,,,,,,,,0.007657499683479404,-0.531775936409079,0.00956143570189719,-1.219501625965482,1.3768553552623075e+43,-0.1767664512166026,,,,,,,,
48,240615_103052,FalseCHOICE,9.0,49,2.0,202.0,,,,,,,,,,,52.0,49.0,,,B,,,,,,False,cue1.png,Hard,cue2.png,Easy,Left,Hard,Mid,0.0160496999742463,,,,,,,,,,,,,14,34,Female,0.7142857142857143,1.75,0.2,1.75,1.1111111111111112,2.5,2.2222222222222223,2.6666666666666665,3.0,1.5555555555555556,2.0,1.75,2.0,2.75,0.0833333333333333,0.6666666666666667,0.2045309952421424,-1.6364184717335943,,,,,,,,,,,,,,,,,,,0.0098331366073892,-0.42652861933563035,0.016381218524559805,0.19246043239691496,4.916701245162478e+43,-0.17673786907972214,,,,,,,,
49,240615_103116,FalseCHOICE,9.0,50,2.0,202.0,,,,,,,,,,,53.0,50.0,,,B,,,,,,False,cue2.png,Easy,cue1.png,Hard,Right,Hard,Mid,0.0168683999800123,,,,,,,,,,,,,14,34,Female,0.7142857142857143,1.75,0.2,1.75,1.1111111111111112,2.5,2.2222222222222223,2.6666666666666665,3.0,1.5555555555555556,2.0,1.75,2.0,2.75,0.8903061224489796,0.7857142857142858,0.2027158333415476,-1.6654043476069205,,,,,,,,,,,,,,,,,,,,,0.024057840766962116,1.7818217983679605,-1.3381090918456927e+43,-0.1767883729295433,,,,,,,,
0,240615_093714,OFFLINERATING,9.0,1,1.0,,,,,,,,,,,,,,,,,T0,cue2.png,Easy,22.0,0.9818556000245736,,,,,,,,,,,,,,,,,,,,,,14,34,Female,0.7142857142857143,1.75,0.2,1.75,1.1111111111111112,2.5,2.2222222222222223,2.6666666666666665,3.0,1.5555555555555556,2.0,1.75,2.0,2.75,,,,,,,,,,,,,,,,,,,,,,,,,,,,,-0.23921402184625717,,,0.010518444765271785,-0.5909918704970079,280514308.33430284,-0.6140410362314765,
1,240615_093721,OFFLINERATING,9.0,2,3.0,,,,,,,,,,,,,,,,,T0,cue1.png,Hard,42.0,1.0850965999998152,,,,,,,,,,,,,,,,,,,,,,14,34,Female,0.7142857142857143,1.75,0.2,1.75,1.1111111111111112,2.5,2.2222222222222223,2.6666666666666665,3.0,1.5555555555555556,2.0,1.75,2.0,2.75,,,,,,,,,,,,,,,,,,,,,,,,,,,,,0.33204334375674505,,,0.009296465727584849,-0.8171794247531619,,,
2,240615_100227,OFFLINERATING,9.0,3,1.0,,,,,,,,,,,,,,,,,T1,cue2.png,Easy,78.0,1.7849591000122018,,,,,,,,,,,,,,,,,,,,,,14,34,Female,0.7142857142857143,1.75,0.2,1.75,1.1111111111111112,2.5,2.2222222222222223,2.6666666666666665,3.0,1.5555555555555556,2.0,1.75,2.0,2.75,,,,,,,,,,,,,,,,,,,,,,,,,,,,,1.360306601842149,0.008518174475484018,-0.4522527245172808,,,,,
3,240615_100235,OFFLINERATING,9.0,4,3.0,,,,,,,,,,,,,,,,,T1,cue1.png,Hard,1.0,1.4632821999839507,,,,,,,,,,,,,,,,,,,,,,14,34,Female,0.7142857142857143,1.75,0.2,1.75,1.1111111111111112,2.5,2.2222222222222223,2.6666666666666665,3.0,1.5555555555555556,2.0,1.75,2.0,2.75,,,,,,,,,,,,,,,,,,,,,,,,,,,,,-0.8390342557294095,0.008056688091260443,-0.9343048527967878,,,38659.45859130555,-0.7962542456524859,
4,240615_100805,OFFLINERATING,9.0,5,1.0,,,,,,,,,,,,,,,,,T2,cue2.png,Easy,94.0,2.335859800048638,,,,,,,,,,,,,,,,,,,,,,14,34,Female,0.7142857142857143,1.75,0.2,1.75,1.1111111111111112,2.5,2.2222222222222223,2.6666666666666665,3.0,1.5555555555555556,2.0,1.75,2.0,2.75,,,,,,,,,,,,,,,,,,,,,,,,,,,,,1.8173124943245507,,,,,3396518050.160891,1.4102952818839625,
5,240615_100812,OFFLINERATING,9.0,6,3.0,,,,,,,,,,,,,,,,,T2,cue1.png,Hard,4.0,0.8182147000334226,,,,,,,,,,,,,,,,,,,,,,14,34,Female,0.7142857142857143,1.75,0.2,1.75,1.1111111111111112,2.5,2.2222222222222223,2.6666666666666665,3.0,1.5555555555555556,2.0,1.75,2.0,2.75,,,,,,,,,,,,,,,,,,,,,,,,,,,,,-0.7533456508889591,,,0.021318930625304197,1.4081712952501695,,,
6,240615_103131,OFFLINERATING,9.0,7,1.0,,,,,,,,,,,,,,,,,T3,cue2.png,Easy,1.0,1.2492138000088744,,,,,,,,,,,,,,,,,,,,,,14,34,Female,0.7142857142857143,1.75,0.2,1.75,1.1111111111111112,2.5,2.2222222222222223,2.6666666666666665,3.0,1.5555555555555556,2.0,1.75,2.0,2.75,,,,,,,,,,,,,,,,,,,,,,,,,,,,,-0.8390342557294095,0.010278535788468782,1.3865575773140721,,,,,
7,240615_103138,OFFLINERATING,9.0,8,3.0,,,,,,,,,,,,,,,,,T3,cue1.png,Hard,1.0,1.068356000003405,,,,,,,,,,,,,,,,,,,,,,14,34,Female,0.7142857142857143,1.75,0.2,1.75,1.1111111111111112,2.5,2.2222222222222223,2.6666666666666665,3.0,1.5555555555555556,2.0,1.75,2.0,2.75,,,,,,,,,,,,,,,,,,,,,,,,,,,,,-0.8390342557294095,,,,,,,
0,240615_100841,LEARNINGCHECK,9.0,1,,,,,,,,,,,,1.0,2.0,1.0,,,B,,,,,,,,,,,,,,,cue2.png,Easy,Left,Left,Easy,0.014590400038287,1.0,,,,,,14,34,Female,0.7142857142857143,1.75,0.2,1.75,1.1111111111111112,2.5,2.2222222222222223,2.6666666666666665,3.0,1.5555555555555556,2.0,1.75,2.0,2.75,,,,,,,,,,,,,,,,,,,,,,,,,,,,,,,,,,,,
1,240615_100849,LEARNINGCHECK,9.0,2,,,,,,,,,,,,2.0,3.0,2.0,,,B,,,,,,,,,,,,,,,cue1.png,Hard,Right,Right,Hard,0.0143242999911308,1.0,,,,,,14,34,Female,0.7142857142857143,1.75,0.2,1.75,1.1111111111111112,2.5,2.2222222222222223,2.6666666666666665,3.0,1.5555555555555556,2.0,1.75,2.0,2.75,,,,,,,,,,,,,,,,,,,,,,,,,,,,,,,,,,,,
2,240615_103153,LEARNINGCHECK,9.0,1,,,,,,,,,,,,1.0,1.0,1.0,,,B,,,,,,,,,,,,,,,cue2.png,Easy,Middle,Middle,Mid,0.0144953000126406,1.0,,,,,,14,34,Female,0.7142857142857143,1.75,0.2,1.75,1.1111111111111112,2.5,2.2222222222222223,2.6666666666666665,3.0,1.5555555555555556,2.0,1.75,2.0,2.75,,,,,,,,,,,,,,,,,,,,,,,,,,,,,,,,,,,,
3,240615_103158,LEARNINGCHECK,9.0,2,,,,,,,,,,,,2.0,2.0,2.0,,,B,,,,,,,,,,,,,,,cue1.png,Hard,Middle,Middle,Mid,0.0152479000389575,1.0,,,,,,14,34,Female,0.7142857142857143,1.75,0.2,1.75,1.1111111111111112,2.5,2.2222222222222223,2.6666666666666665,3.0,1.5555555555555556,2.0,1.75,2.0,2.75,,,,,,,,,,,,,,,,,,,,,,,,,,,,,,,,,,,,
0,240615_103210,DEMANDRATING,9.0,-1,,,,,,,,,,,,,,,,,,,,,,,,,,,,,,,,,,,,,,,1.0,MentalDemand,1.0,1.0,4.93463559995871,14,34,Female,0.7142857142857143,1.75,0.2,1.75,1.1111111111111112,2.5,2.2222222222222223,2.6666666666666665,3.0,1.5555555555555556,2.0,1.75,2.0,2.75,,,,,,,,,,,,,,,,,,,,,,,,,,,,,,,,,,,,-1.8863413130894848
1,240615_103215,DEMANDRATING,9.0,-1,,,,,,,,,,,,,,,,,,,,,,,,,,,,,,,,,,,,,,,2.0,Effort,1.0,92.0,3.224977499980014,14,34,Female,0.7142857142857143,1.75,0.2,1.75,1.1111111111111112,2.5,2.2222222222222223,2.6666666666666665,3.0,1.5555555555555556,2.0,1.75,2.0,2.75,,,,,,,,,,,,,,,,,,,,,,,,,,,,,,,,,,,,0.44384501484458455
2,240615_103221,DEMANDRATING,9.0,-1,,,,,,,,,,,,,,,,,,,,,,,,,,,,,,,,,,,,,,,3.0,Frustration,1.0,3.0,4.888497000036296,14,34,Female,0.7142857142857143,1.75,0.2,1.75,1.1111111111111112,2.5,2.2222222222222223,2.6666666666666665,3.0,1.5555555555555556,2.0,1.75,2.0,2.75,,,,,,,,,,,,,,,,,,,,,,,,,,,,,,,,,,,,-1.8351284267612635
3,240615_103226,DEMANDRATING,9.0,-1,,,,,,,,,,,,,,,,,,,,,,,,,,,,,,,,,,,,,,,4.0,MentalDemand,2.0,86.0,3.723155100014992,14,34,Female,0.7142857142857143,1.75,0.2,1.75,1.1111111111111112,2.5,2.2222222222222223,2.6666666666666665,3.0,1.5555555555555556,2.0,1.75,2.0,2.75,,,,,,,,,,,,,,,,,,,,,,,,,,,,,,,,,,,,0.2902063558599206
4,240615_103233,DEMANDRATING,9.0,-1,,,,,,,,,,,,,,,,,,,,,,,,,,,,,,,,,,,,,,,5.0,Effort,2.0,95.0,5.483276999962982,14,34,Female,0.7142857142857143,1.75,0.2,1.75,1.1111111111111112,2.5,2.2222222222222223,2.6666666666666665,3.0,1.5555555555555556,2.0,1.75,2.0,2.75,,,,,,,,,,,,,,,,,,,,,,,,,,,,,,,,,,,,0.5206643443369166
5,240615_103239,DEMANDRATING,9.0,-1,,,,,,,,,,,,,,,,,,,,,,,,,,,,,,,,,,,,,,,6.0,Frustration,2.0,98.0,4.321835500013549,14,34,Female,0.7142857142857143,1.75,0.2,1.75,1.1111111111111112,2.5,2.2222222222222223,2.6666666666666665,3.0,1.5555555555555556,2.0,1.75,2.0,2.75,,,,,,,,,,,,,,,,,,,,,,,,,,,,,,,,,,,,0.5974836738292485
6,240615_103243,DEMANDRATING,9.0,-1,,,,,,,,,,,,,,,,,,,,,,,,,,,,,,,,,,,,,,,7.0,MentalDemand,3.0,99.0,2.768684700015001,14,34,Female,0.7142857142857143,1.75,0.2,1.75,1.1111111111111112,2.5,2.2222222222222223,2.6666666666666665,3.0,1.5555555555555556,2.0,1.75,2.0,2.75,,,,,,,,,,,,,,,,,,,,,,,,,,,,,,,,,,,,0.6230901169933591
7,240615_103249,DEMANDRATING,9.0,-1,,,,,,,,,,,,,,,,,,,,,,,,,,,,,,,,,,,,,,,8.0,Effort,3.0,99.0,3.601622699992731,14,34,Female,0.7142857142857143,1.75,0.2,1.75,1.1111111111111112,2.5,2.2222222222222223,2.6666666666666665,3.0,1.5555555555555556,2.0,1.75,2.0,2.75,,,,,,,,,,,,,,,,,,,,,,,,,,,,,,,,,,,,0.6230901169933591
8,240615_103253,DEMANDRATING,9.0,-1,,,,,,,,,,,,,,,,,,,,,,,,,,,,,,,,,,,,,,,9.0,Frustration,3.0,99.0,2.4341111999819987,14,34,Female,0.7142857142857143,1.75,0.2,1.75,1.1111111111111112,2.5,2.2222222222222223,2.6666666666666665,3.0,1.5555555555555556,2.0,1.75,2.0,2.75,,,,,,,,,,,,,,,,,,,,,,,,,,,,,,,,,,,,0.6230901169933591
