,END,Phase,Block,TrialN,NbackLevel,ISI,Letter_Resp,Letter_RT,Letter_Accuracy,Trial_A_measure,Trial_ACC,Trial_RT,TrialCountCali,CaliEnd_A_measure,ISI_calibrated,TrialIndex,TrialNumber_total,TrialNumber_valid,CueLearning,TrialDemandLearning,CueMapping,OfflineRatingTimePoint,CueFigure,TrialDemand,OfflineRating,OfflineRatingRT,PhaseType,CueLeft,CueDemandLeft,CueRight,CueDemandRight,Choice,ChoiceDemand,TaskDemand,ChoiceRT,CueCheck,CueDemandCheck,CorrectAnswer,Answer,AnswerDemand,AnswerRT,AnswerACC,DemandRatingQuesIndex,QuesTLX,DemandLevel,DemandRating,DemandRatingRT,PID,Age,Gender,BAI_bis,BAI_bas_d,BAI_bas_rr,BAI_bas_fs,NFC,BFI_ext,BFI_agr,BFI_con,BFI_neu,BFI_open,UPPS_lps,UPPS_lpm,UPPS_pu,UPPS_ss,Task_A_measure,Task_ACC,Task_RT,Task_RT_z,Task_RT_log,Task_RT_log_z,cue_i_on_zyg_values,cue_i_on_zyg_zvalues,cue_e_on_zyg_values,cue_e_on_zyg_zvalues,cue_i_on_cor_values,cue_i_on_cor_zvalues,cue_e_on_cor_values,cue_e_on_cor_zvalues,cue_i_on_scr_values,cue_i_on_scr_zvalues,cue_e_on_scr_values,cue_e_on_scr_zvalues,cue_e_true_zyg_values,cue_e_true_zyg_zvalues,cue_e_true_cor_values,cue_e_true_cor_zvalues,cue_e_true_scr_values,cue_e_true_scr_zvalues,cue_e_false_zyg_values,cue_e_false_zyg_zvalues,cue_e_false_cor_values,cue_e_false_cor_zvalues,cue_e_false_scr_values,cue_e_false_scr_zvalues,OfflineRating_z,cue_i_off_zyg_values,cue_i_off_zyg_zvalues,cue_i_off_cor_values,cue_i_off_cor_zvalues,cue_i_off_scr_values,cue_i_off_scr_zvalues,DemandRating_z
0,240615_093511,PRACTICE,0.0,1,3.0,202.0,,,,,,,,,,31.0,1.0,1.0,cue1.png,Hard,B,,,,,,,,,,,,,,,,,,,,,,,,,,,14,34,Female,0.7142857142857143,1.75,0.2,1.75,1.1111111111111112,2.5,2.2222222222222223,2.6666666666666665,3.0,1.5555555555555556,2.0,1.75,2.0,2.75,,,,,,,,,,,,,,,,,,,,,,,,,,,,,,,,,,,,,,
0,240615_093800,LEARNING,1.0,1,1.0,202.0,,,,,,,,,,1.0,1.0,1.0,cue2.png,Easy,B,,,,,,,,,,,,,,,,,,,,,,,,,,,14,34,Female,0.7142857142857143,1.75,0.2,1.75,1.1111111111111112,2.5,2.2222222222222223,2.6666666666666665,3.0,1.5555555555555556,2.0,1.75,2.0,2.75,1.0,1.0,0.4086369904717208,0.572949702181004,-0.8949280709073475,0.5722440586797091,0.00013524207994013463,-0.12425508924761978,4.6656049236989006e-05,0.10973198384195466,-2.9586979231791422e-05,-0.6159612473649578,0.0002427098323147898,0.5528378311503962,,,1.4100000000000001,0.11277405100539939,,,,,,,,,,,,,,,,,,,,
1,240615_093832,LEARNING,1.0,2,3.0,202.0,,,,,,,,,,2.0,2.0,2.0,cue1.png,Hard,B,,,,,,,,,,,,,,,,,,,,,,,,,,,14,34,Female,0.7142857142857143,1.75,0.2,1.75,1.1111111111111112,2.5,2.2222222222222223,2.6666666666666665,3.0,1.5555555555555556,2.0,1.75,2.0,2.75,0.6428571428571429,0.4047619047619047,0.3966158000053837,0.3891264882405598,-0.9247872250480635,0.42287495813732306,-0.0001351668676921611,-0.39676836933417725,-5.8441023197890445e-05,-0.029037770796967823,-0.00010206445694768435,-0.8077595625598927,-0.0002742468125754853,-0.6570639981518571,1.462,0.041985022213139996,1.449,0.190954132073134,,,,,,,,,,,,,,,,,,,,
2,240615_093902,LEARNING,1.0,3,1.0,202.0,,,,,,,,,,3.0,3.0,3.0,cue2.png,Easy,B,,,,,,,,,,,,,,,,,,,,,,,,,,,14,34,Female,0.7142857142857143,1.75,0.2,1.75,1.1111111111111112,2.5,2.2222222222222223,2.6666666666666665,3.0,1.5555555555555556,2.0,1.75,2.0,2.75,1.0,1.0,0.4090708666675103,0.5795843626154776,-0.893866869812803,0.5775526703114952,-3.2144954542870537e-06,-0.2637891388442066,-0.0004951145392815739,-0.6056197371671125,-0.00024034463472299853,-1.173692621463039,0.00024778532932400853,0.5647166863247508,1.139,-0.5036295493899369,1.1390000000000002,-0.4304772815421933,,,,,,,,,,,,,,,,,,,,
3,240615_093933,LEARNING,1.0,4,3.0,202.0,,,,,,,,,,4.0,4.0,4.0,cue1.png,Hard,B,,,,,,,,,,,,,,,,,,,,,,,,,,,14,34,Female,0.7142857142857143,1.75,0.2,1.75,1.1111111111111112,2.5,2.2222222222222223,2.6666666666666665,3.0,1.5555555555555556,2.0,1.75,2.0,2.75,0.6607142857142857,0.5714285714285715,0.357322973315604,-0.211723627822948,-1.0291152190267219,-0.09902122648145377,-9.345609898172777e-06,-0.2699679658479689,-2.532753455549222e-06,0.044783285248514826,0.00048009393153031297,0.7328155458119312,5.8659585300796947e-05,0.12208075945625764,1.593,0.2632714274143879,1.5859999999999999,0.46558672454184286,,,,,,,,,,,,,,,,,,,,
4,240615_094004,LEARNING,1.0,5,3.0,202.0,,,,,,,,,,5.0,5.0,5.0,cue1.png,Hard,B,,,,,,,,,,,,,,,,,,,,,,,,,,,14,34,Female,0.7142857142857143,1.75,0.2,1.75,1.1111111111111112,2.5,2.2222222222222223,2.6666666666666665,3.0,1.5555555555555556,2.0,1.75,2.0,2.75,0.1666666666666666,0.4285714285714286,0.4068360749988642,0.545410826461281,-0.8993449388013545,0.5501488720098785,-4.475632302286493e-05,-0.30565424645483685,0.00016351569409860664,0.2640329921282365,-0.00011846890312646775,-0.8511709123743841,6.23306242670818e-05,0.1306725762065591,1.5719999999999998,0.22779803421418765,1.568,0.4295036102028888,,,,,,,,,,,,,,,,,,,,
5,240615_094035,LEARNING,1.0,6,1.0,202.0,,,,,,,,,,6.0,6.0,6.0,cue2.png,Easy,B,,,,,,,,,,,,,,,,,,,,,,,,,,,14,34,Female,0.7142857142857143,1.75,0.2,1.75,1.1111111111111112,2.5,2.2222222222222223,2.6666666666666665,3.0,1.5555555555555556,2.0,1.75,2.0,2.75,1.0,1.0,0.4825622809529748,1.7033855376166702,-0.7286452868378789,1.4040663459116103,-0.00012575810394369839,-0.38728638623745065,-0.0001140206734837842,-0.10242491902480838,0.000160890433374734,-0.11189780625253408,-0.00023276172901712548,-0.5599709846813177,-0.00550000000000006,-2.4369294788008395,,,,,,,,,,,,,,,,,,,,,,
6,240615_094106,LEARNING,1.0,7,3.0,202.0,,,,,,,,,,7.0,7.0,7.0,cue1.png,Hard,B,,,,,,,,,,,,,,,,,,,,,,,,,,,14,34,Female,0.7142857142857143,1.75,0.2,1.75,1.1111111111111112,2.5,2.2222222222222223,2.6666666666666665,3.0,1.5555555555555556,2.0,1.75,2.0,2.75,0.5583333333333333,0.3904761904761905,0.2583538090958344,-1.7251203166802613,-1.353425280421755,-1.7213679928744954,-0.00017206859733726217,-0.4339572696072864,-0.0001556320744521473,-0.15736844664913419,6.33737156468259e-05,-0.3699578650872177,-0.0006665852658205868,-1.5753054347961597,1.449,0.020025302613016323,2.2190000000000003,1.7345095787950773,,,,,,,,,,,,,,,,,,,,
7,240615_094137,LEARNING,1.0,8,3.0,202.0,,,,,,,,,,8.0,8.0,8.0,cue1.png,Hard,B,,,,,,,,,,,,,,,,,,,,,,,,,,,14,34,Female,0.7142857142857143,1.75,0.2,1.75,1.1111111111111112,2.5,2.2222222222222223,2.6666666666666665,3.0,1.5555555555555556,2.0,1.75,2.0,2.75,0.6333333333333333,0.6571428571428573,0.4266513722314913,0.8484183890389491,-0.8517880577115213,0.7880500703999288,-2.1215046762592706e-05,-0.2819297711100558,3.583755062880247e-05,0.0954472814935634,,,8.197988025393857e-05,0.17666032198352313,,,,,,,,,,,,,,,,,,,,,,,,
8,240615_094207,LEARNING,1.0,9,1.0,202.0,,,,,,,,,,9.0,9.0,9.0,cue2.png,Easy,B,,,,,,,,,,,,,,,,,,,,,,,,,,,14,34,Female,0.7142857142857143,1.75,0.2,1.75,1.1111111111111112,2.5,2.2222222222222223,2.6666666666666665,3.0,1.5555555555555556,2.0,1.75,2.0,2.75,0.9305555555555556,0.8857142857142857,0.4081883200036827,0.5660888136803283,-0.8960266424315342,0.5667485031232479,6.5357558325725325e-06,-0.2539630107404007,-1.763105272141333e-05,0.024847551207138822,-0.00021620219547712274,-1.1098040961171898,0.00013321454832720915,0.29657157419056474,,,,,,,,,,,,,,,,,,,,,,,,
9,240615_094235,LEARNING,1.0,10,1.0,202.0,,,,,,,,,,10.0,10.0,10.0,cue2.png,Easy,B,,,,,,,,,,,,,,,,,,,,,,,,,,,14,34,Female,0.7142857142857143,1.75,0.2,1.75,1.1111111111111112,2.5,2.2222222222222223,2.6666666666666665,3.0,1.5555555555555556,2.0,1.75,2.0,2.75,0.8903061224489796,0.8809523809523809,0.3448010600084671,-0.40320369423128677,-1.0647876659268283,-0.2774710674415882,-0.00018325114266392684,-0.44522683791620893,-0.00011215165852334653,-0.09995707913671714,0.0003145023571501835,0.29460789872626075,-7.802433519383872e-05,-0.19781865005373012,1.44,0.004822419812930386,1.4300000000000002,0.15286640027090442,,,,,,,,,,,,,,,,,,,,
10,240615_094309,LEARNING,1.0,11,3.0,202.0,,,,,,,,,,11.0,11.0,11.0,cue1.png,Hard,B,,,,,,,,,,,,,,,,,,,,,,,,,,,14,34,Female,0.7142857142857143,1.75,0.2,1.75,1.1111111111111112,2.5,2.2222222222222223,2.6666666666666665,3.0,1.5555555555555556,2.0,1.75,2.0,2.75,0.8443877551020408,0.6428571428571429,0.5227611133401903,2.318089928730337,-0.6486306815207196,1.8043358769959055,-6.388446450162483e-05,-0.3249312438396454,-6.208356868733821e-05,-0.03384737331130031,0.0004971805450684971,0.7780321260833506,2.5583658607551338e-05,0.044668805073663116,,,,,,,,,,,,,,,,,,,,,,,,
11,240615_094338,LEARNING,1.0,12,1.0,202.0,,,,,,,,,,12.0,12.0,12.0,cue2.png,Easy,B,,,,,,,,,,,,,,,,,,,,,,,,,,,14,34,Female,0.7142857142857143,1.75,0.2,1.75,1.1111111111111112,2.5,2.2222222222222223,2.6666666666666665,3.0,1.5555555555555556,2.0,1.75,2.0,2.75,1.0,1.0,0.4000982761942959,0.44237911470127045,-0.9160450715653801,0.4666071950372061,,,,,0.0013059245584526005,2.9182244186339354,,,,,1.089,-0.5307081547059563,,,,,,,,,,,,,,,,,,,,
12,240615_094408,LEARNING,1.0,13,1.0,202.0,,,,,,,,,,13.0,13.0,13.0,cue2.png,Easy,B,,,,,,,,,,,,,,,,,,,,,,,,,,,14,34,Female,0.7142857142857143,1.75,0.2,1.75,1.1111111111111112,2.5,2.2222222222222223,2.6666666666666665,3.0,1.5555555555555556,2.0,1.75,2.0,2.75,1.0,0.9523809523809524,0.4050632150028832,0.5183009638199508,-0.9037121376289446,0.5283021526522999,-0.00011222918504385539,-0.3736521847892257,0.0027979467739470726,3.7425252668797007,-0.0004987185231670674,-1.8574315988070285,0.0011820228817669034,2.751236068319413,,,,,,,,,,,,,,,,,,,,,,,,
13,240615_094438,LEARNING,1.0,14,1.0,202.0,,,,,,,,,,14.0,14.0,14.0,cue2.png,Easy,B,,,,,,,,,,,,,,,,,,,,,,,,,,,14,34,Female,0.7142857142857143,1.75,0.2,1.75,1.1111111111111112,2.5,2.2222222222222223,2.6666666666666665,3.0,1.5555555555555556,2.0,1.75,2.0,2.75,1.0,1.0,0.4168279333361646,0.6982023089640818,-0.8750817722277678,0.6715242917664882,5.2320336506902435e-05,-0.20782213276207487,2.49575253343042e-05,0.08108133955433085,5.5171840828000234e-05,-0.39166261836046207,0.00030031075420726243,0.6876488669617087,1.514,0.12982390061363544,,,,,,,,,,,,,,,,,,,,,,
14,240615_094508,LEARNING,1.0,15,3.0,202.0,,,,,,,,,,15.0,15.0,15.0,cue1.png,Hard,B,,,,,,,,,,,,,,,,,,,,,,,,,,,14,34,Female,0.7142857142857143,1.75,0.2,1.75,1.1111111111111112,2.5,2.2222222222222223,2.6666666666666665,3.0,1.5555555555555556,2.0,1.75,2.0,2.75,0.5,0.523809523809524,0.3232694071318422,-0.7324570776058223,-1.1292692256015162,-0.6000372233610791,0.0005928984292379738,0.33696275872531495,-0.0026649469842158447,-3.470657830189874,0.00020145557878167072,-0.004549609407351525,-0.000603867571932773,-1.4285189425157658,,,,,,,,,,,,,,,,,,,,,,,,
15,240615_094538,LEARNING,1.0,16,1.0,202.0,,,,,,,,,,16.0,16.0,16.0,cue2.png,Easy,B,,,,,,,,,,,,,,,,,,,,,,,,,,,14,34,Female,0.7142857142857143,1.75,0.2,1.75,1.1111111111111112,2.5,2.2222222222222223,2.6666666666666665,3.0,1.5555555555555556,2.0,1.75,2.0,2.75,1.0,1.0,0.4328682809497141,0.9434848589163121,-0.8373217982980904,0.8604168945441705,-0.00016183109693420662,-0.4236401005966005,-2.1094382514705388e-05,0.02027458438214374,-0.0002767303283693892,-1.2699806678811674,5.3695344219278386e-05,0.11046229120559507,,,,,,,,,,,,,,,,,,,,,,,,
16,240615_094607,LEARNING,1.0,17,1.0,202.0,,,,,,,,,,17.0,17.0,17.0,cue2.png,Easy,B,,,,,,,,,,,,,,,,,,,,,,,,,,,14,34,Female,0.7142857142857143,1.75,0.2,1.75,1.1111111111111112,2.5,2.2222222222222223,2.6666666666666665,3.0,1.5555555555555556,2.0,1.75,2.0,2.75,1.0,1.0,0.3912939809490039,0.3077473697836404,-0.9382961320742028,0.3552972470509382,,,,,-0.00012579030441714533,-0.8705456543862748,0.00017631659719315618,0.3974489848690815,,,,,,,,,,,,,,,,,,,,,,,,
17,240615_094639,LEARNING,1.0,18,3.0,202.0,,,,,,,,,,18.0,18.0,18.0,cue1.png,Hard,B,,,,,,,,,,,,,,,,,,,,,,,,,,,14,34,Female,0.7142857142857143,1.75,0.2,1.75,1.1111111111111112,2.5,2.2222222222222223,2.6666666666666665,3.0,1.5555555555555556,2.0,1.75,2.0,2.75,0.2166666666666666,0.5333333333333334,0.3964018499952674,0.38585485066087877,-0.9253268095461062,0.4201757105042714,,,5.742041273223237e-05,0.1239452064034553,0.0006836146406564254,1.2713956723262831,0.00022541777260738638,0.5123669427709038,,,,,,,,,,,,,,,,,,,,,,,,
18,240615_094709,LEARNING,1.0,19,3.0,202.0,,,,,,,,,,19.0,19.0,19.0,cue1.png,Hard,B,,,,,,,,,,,,,,,,,,,,,,,,,,,14,34,Female,0.7142857142857143,1.75,0.2,1.75,1.1111111111111112,2.5,2.2222222222222223,2.6666666666666665,3.0,1.5555555555555556,2.0,1.75,2.0,2.75,0.6333333333333333,0.7047619047619048,0.4053734052668963,0.5230442686884322,-0.90294664833243,0.5321314790677893,,,-8.64708455614472e-06,0.03670994688662553,,,-0.0006906763841434639,-1.631689056937186,,,,,,,,,,,,,,,,,,,,,,,,
19,240615_094741,LEARNING,1.0,20,3.0,202.0,,,,,,,,,,20.0,20.0,20.0,cue1.png,Hard,B,,,,,,,,,,,,,,,,,,,,,,,,,,,14,34,Female,0.7142857142857143,1.75,0.2,1.75,1.1111111111111112,2.5,2.2222222222222223,2.6666666666666665,3.0,1.5555555555555556,2.0,1.75,2.0,2.75,0.0833333333333333,0.4285714285714286,0.4498561187538143,1.203256048117027,-0.7988274834468924,1.05298300536639,,,8.17266770605134e-06,0.0589186805881152,-0.000149565018133064,-0.9334610617467491,0.0006947977615671371,1.610918848222883,1.8250000000000002,0.6551679618165983,0.915,-0.8795115933158498,,,,,,,,,,,,,,,,,,,,
20,240615_094811,LEARNING,1.0,21,1.0,202.0,,,,,,,,,,21.0,21.0,21.0,cue2.png,Easy,B,,,,,,,,,,,,,,,,,,,,,,,,,,,14,34,Female,0.7142857142857143,1.75,0.2,1.75,1.1111111111111112,2.5,2.2222222222222223,2.6666666666666665,3.0,1.5555555555555556,2.0,1.75,2.0,2.75,1.0,1.0,0.4077398000018937,0.5592302260490689,-0.8971260531172776,0.5612487496981418,6.638447177680735e-05,-0.19364854987015623,,,2.2730896058114312e-05,-0.4775116123691437,0.00042704912050332226,0.9842713840335778,0.732,-1.191137693793814,1.6749999999999998,0.6439976787733401,,,,,,,,,,,,,,,,,,,,
21,240615_094841,LEARNING,1.0,22,3.0,202.0,,,,,,,,,,22.0,22.0,22.0,cue1.png,Hard,B,,,,,,,,,,,,,,,,,,,,,,,,,,,14,34,Female,0.7142857142857143,1.75,0.2,1.75,1.1111111111111112,2.5,2.2222222222222223,2.6666666666666665,3.0,1.5555555555555556,2.0,1.75,2.0,2.75,0.6785714285714286,0.5,0.3492464933272761,-0.3352259143009437,-1.0519773214759278,-0.21338788480179827,0.0002852979896440836,0.026968561108066672,-0.0003868877267438741,-0.4627174861979893,0.0006927053496481451,1.2954525617695667,-0.00023379249966631486,-0.5623834332035917,2.691,2.1180231290248472,0.8729999999999998,-0.9637055267734108,,,,,,,,,,,,,,,,,,,,
22,240615_094910,LEARNING,1.0,23,3.0,202.0,,,,,,,,,,23.0,23.0,23.0,cue1.png,Hard,B,,,,,,,,,,,,,,,,,,,,,,,,,,,14,34,Female,0.7142857142857143,1.75,0.2,1.75,1.1111111111111112,2.5,2.2222222222222223,2.6666666666666665,3.0,1.5555555555555556,2.0,1.75,2.0,2.75,0.0833333333333333,0.6190476190476191,0.3711305350007023,-0.0005839430518525983,-0.9912014318950393,0.0906408200496175,,,,,0.00028594585953875757,0.2190383797205152,-0.00017297647637315667,-0.4200476714708098,2.006,0.9609148270183219,2.2359999999999998,1.7685880756707555,,,,,,,,,,,,,,,,,,,,
23,240615_094939,LEARNING,1.0,24,3.0,202.0,,,,,,,,,,24.0,24.0,24.0,cue1.png,Hard,B,,,,,,,,,,,,,,,,,,,,,,,,,,,14,34,Female,0.7142857142857143,1.75,0.2,1.75,1.1111111111111112,2.5,2.2222222222222223,2.6666666666666665,3.0,1.5555555555555556,2.0,1.75,2.0,2.75,0.1666666666666666,0.523809523809524,0.2912349166743095,-1.2223156327412905,-1.2336250636859982,-1.1220726968901409,-2.1169315546285417e-05,-0.281883684011728,,,0.0002761209551927447,0.19303857730046706,-0.00018857626747962025,-0.4565579204114137,,,1.208,-0.29215867657620154,,,,,,,,,,,,,,,,,,,,
24,240615_095008,LEARNING,1.0,25,1.0,202.0,,,,,,,,,,25.0,25.0,25.0,cue2.png,Easy,B,,,,,,,,,,,,,,,,,,,,,,,,,,,14,34,Female,0.7142857142857143,1.75,0.2,1.75,1.1111111111111112,2.5,2.2222222222222223,2.6666666666666665,3.0,1.5555555555555556,2.0,1.75,2.0,2.75,0.9305555555555556,0.9333333333333332,0.3950612047642824,0.36535424252196785,-0.9287145773140008,0.4032285517886509,,,,,0.0005031550457325314,0.7938425432999188,-0.0002646409934556051,-0.6345822325338595,1.3570000000000002,-0.13538194378785984,0.8840000000000001,-0.9416547346773824,,,,,,,,,,,,,,,,,,,,
25,240615_095037,LEARNING,1.0,26,1.0,202.0,,,,,,,,,,26.0,26.0,26.0,cue2.png,Easy,B,,,,,,,,,,,,,,,,,,,,,,,,,,,14,34,Female,0.7142857142857143,1.75,0.2,1.75,1.1111111111111112,2.5,2.2222222222222223,2.6666666666666665,3.0,1.5555555555555556,2.0,1.75,2.0,2.75,1.0,1.0,0.3670518238186127,-0.06295395543341337,-1.0022522315816427,0.03535968242317687,0.005903869889338502,5.689264395600706,0.0009082130208733813,1.2473283677518505,0.0008610137655184489,1.7408498301953967,0.0003836020562925785,0.8825864884316483,1.1830000000000003,-0.4293043445895173,0.7850000000000001,-1.140111863541632,,,,,,,,,,,,,,,,,,,,
26,240615_095106,LEARNING,1.0,27,3.0,202.0,,,,,,,,,,27.0,27.0,27.0,cue1.png,Hard,B,,,,,,,,,,,,,,,,,,,,,,,,,,,14,34,Female,0.7142857142857143,1.75,0.2,1.75,1.1111111111111112,2.5,2.2222222222222223,2.6666666666666665,3.0,1.5555555555555556,2.0,1.75,2.0,2.75,0.6607142857142857,0.4761904761904763,0.2002949846075633,-2.6129325300317174,-1.6079640760269345,-2.994687082005804,-1.2900624774486204e-05,-0.2735506459818306,,,0.0003785370525520135,0.464063943267925,,,1.432,-0.008691253787145834,,,,,,,,,,,,,,,,,,,,,,
27,240615_095135,LEARNING,1.0,28,1.0,202.0,,,,,,,,,,28.0,28.0,28.0,cue2.png,Easy,B,,,,,,,,,,,,,,,,,,,,,,,,,,,14,34,Female,0.7142857142857143,1.75,0.2,1.75,1.1111111111111112,2.5,2.2222222222222223,2.6666666666666665,3.0,1.5555555555555556,2.0,1.75,2.0,2.75,1.0,1.0,0.3831741761865227,0.18358257826919214,-0.959265625066143,0.25039828399676045,,,0.0005172675634055623,0.7311255473200448,-0.00023670242561903186,-1.1640541849204924,0.0006313157957081364,1.4623436294309657,1.054,-0.6472123313907465,1.742,0.7783070488127822,,,,,,,,,,,,,,,,,,,,
28,240615_095205,LEARNING,1.0,29,1.0,202.0,,,,,,,,,,29.0,29.0,29.0,cue2.png,Easy,B,,,,,,,,,,,,,,,,,,,,,,,,,,,14,34,Female,0.7142857142857143,1.75,0.2,1.75,1.1111111111111112,2.5,2.2222222222222223,2.6666666666666665,3.0,1.5555555555555556,2.0,1.75,2.0,2.75,1.0,1.0,0.4078115571478736,0.5603275074900507,-0.8969500810082596,0.5621290424057211,,,4.216474204896299e-07,0.048684264364055485,,,0.0005772460747771506,1.335797129040885,0.919,-0.8752555733920325,1.374,0.04060782232749031,,,,,,,,,,,,,,,,,,,,
29,240615_095234,LEARNING,1.0,30,3.0,202.0,,,,,,,,,,30.0,30.0,30.0,cue1.png,Hard,B,,,,,,,,,,,,,,,,,,,,,,,,,,,14,34,Female,0.7142857142857143,1.75,0.2,1.75,1.1111111111111112,2.5,2.2222222222222223,2.6666666666666665,3.0,1.5555555555555556,2.0,1.75,2.0,2.75,0.775,0.7238095238095239,0.3629745333261477,-0.1253022432001326,-1.0134226033046572,-0.020519609037246436,-3.812624575350986e-05,-0.29897257367840135,-0.0017543403414213006,-2.2682964564087893,0.00012897342365284555,-0.19636030251537245,-0.00027381519498732897,-0.6560538265743543,,,2.049,1.393724610038284,,,,,,,,,,,,,,,,,,,,
30,240615_095259,LEARNING,1.0,31,3.0,202.0,,,,,,,,,,31.0,31.0,31.0,cue1.png,Hard,B,,,,,,,,,,,,,,,,,,,,,,,,,,,14,34,Female,0.7142857142857143,1.75,0.2,1.75,1.1111111111111112,2.5,2.2222222222222223,2.6666666666666665,3.0,1.5555555555555556,2.0,1.75,2.0,2.75,0.6190476190476191,0.7142857142857143,0.1865128904741834,-2.8236827752359757,-1.679254924462754,-3.351316404376372,0.00013168222720765302,-0.12784264488602573,,,,,3.743758039623495e-05,0.07241210192127066,2.019,0.9828745466184463,,,,,,,,,,,,,,,,,,,,,,
31,240615_095326,LEARNING,1.0,32,1.0,202.0,,,,,,,,,,32.0,32.0,32.0,cue2.png,Easy,B,,,,,,,,,,,,,,,,,,,,,,,,,,,14,34,Female,0.7142857142857143,1.75,0.2,1.75,1.1111111111111112,2.5,2.2222222222222223,2.6666666666666665,3.0,1.5555555555555556,2.0,1.75,2.0,2.75,0.9305555555555556,0.9333333333333332,0.2641430857114583,-1.6365930250734668,-1.331264331328792,-1.6105088232683562,,,,,,,,,1.752,0.5318556902159026,1.399,0.09072325890937138,,,,,,,,,,,,,,,,,,,,
32,240615_095356,LEARNING,1.0,33,1.0,202.0,,,,,,,,,,33.0,33.0,33.0,cue2.png,Easy,B,,,,,,,,,,,,,,,,,,,,,,,,,,,14,34,Female,0.7142857142857143,1.75,0.2,1.75,1.1111111111111112,2.5,2.2222222222222223,2.6666666666666665,3.0,1.5555555555555556,2.0,1.75,2.0,2.75,1.0,1.0,0.4216730904798688,0.7722925049971868,-0.8635249322650578,0.7293368735364588,0.001310008450199374,1.0596533564523825,,,0.0008992014014449043,1.8419063854563649,-0.001168854986830157,-2.750833518745243,1.04,-0.6708612601908799,1.961,1.2173182732700623,,,,,,,,,,,,,,,,,,,,
33,240615_095425,LEARNING,1.0,34,1.0,202.0,,,,,,,,,,34.0,34.0,34.0,cue2.png,Easy,B,,,,,,,,,,,,,,,,,,,,,,,,,,,14,34,Female,0.7142857142857143,1.75,0.2,1.75,1.1111111111111112,2.5,2.2222222222222223,2.6666666666666665,3.0,1.5555555555555556,2.0,1.75,2.0,2.75,0.9305555555555556,0.8857142857142857,0.3944157999998424,0.3554849722176607,-0.9303495962045438,0.3950494419619192,-0.0001286451441619386,-0.39019589350968886,0.0009691385130356374,1.327774144239588,0.00010371924001598143,-0.26319085492726874,0.00011630723754629032,0.2570011644770824,-0.010000000000000009,-2.4445309202008825,0.8919999999999999,-0.9256177949711808,,,,,,,,,,,,,,,,,,,,
34,240615_095454,LEARNING,1.0,35,3.0,202.0,,,,,,,,,,35.0,35.0,35.0,cue1.png,Hard,B,,,,,,,,,,,,,,,,,,,,,,,,,,,14,34,Female,0.7142857142857143,1.75,0.2,1.75,1.1111111111111112,2.5,2.2222222222222223,2.6666666666666665,3.0,1.5555555555555556,2.0,1.75,2.0,2.75,0.7474489795918368,0.6904761904761905,0.3254376368315302,-0.6993013803332528,-1.1225844276050105,-0.5665968164647553,7.688414317923078e-05,-0.1830671696356669,-4.5173111757581836e-05,-0.011518873529078478,0.00023627998271764017,0.08760677093426403,-0.0001559405210125801,-0.38017617787767105,,,0.45300000000000007,-1.8056448613490155,,,,,,,,,,,,,,,,,,,,
35,240615_095521,LEARNING,1.0,36,3.0,202.0,,,,,,,,,,36.0,36.0,36.0,cue1.png,Hard,B,,,,,,,,,,,,,,,,,,,,,,,,,,,14,34,Female,0.7142857142857143,1.75,0.2,1.75,1.1111111111111112,2.5,2.2222222222222223,2.6666666666666665,3.0,1.5555555555555556,2.0,1.75,2.0,2.75,0.725,0.8,0.2761150619092707,-1.4535223759507307,-1.2869376091642672,-1.3887663523160787,-0.00014324605572358208,-0.4049104299063461,-1.138345564269394e-05,0.03309685343421977,0.0001980088330575361,-0.013670788063509461,0.00047859253854530505,1.1049052445205094,1.9609999999999999,0.8849004130178934,0.909,-0.8915392980955013,,,,,,,,,,,,,,,,,,,,
36,240615_095550,LEARNING,1.0,37,1.0,202.0,,,,,,,,,,37.0,37.0,37.0,cue2.png,Easy,B,,,,,,,,,,,,,,,,,,,,,,,,,,,14,34,Female,0.7142857142857143,1.75,0.2,1.75,1.1111111111111112,2.5,2.2222222222222223,2.6666666666666665,3.0,1.5555555555555556,2.0,1.75,2.0,2.75,1.0,0.9047619047619048,0.3511353105300498,-0.306342880650312,-1.0465836297167264,-0.18640617986541452,0.00019228703887357902,-0.06676620432915618,,,0.00021617022786703894,0.03439000317576474,,,,,1.2870000000000001,-0.13379389697745642,,,,,,,,,,,,,,,,,,,,
37,240615_095618,LEARNING,1.0,38,3.0,202.0,,,,,,,,,,38.0,38.0,38.0,cue1.png,Hard,B,,,,,,,,,,,,,,,,,,,,,,,,,,,14,34,Female,0.7142857142857143,1.75,0.2,1.75,1.1111111111111112,2.5,2.2222222222222223,2.6666666666666665,3.0,1.5555555555555556,2.0,1.75,2.0,2.75,0.5666666666666667,0.7333333333333334,0.3637795666609669,-0.11299199694373607,-1.0112071808829646,-0.009437056166185051,-0.0001030984564865038,-0.36445040056377387,0.0003037072764018292,0.44914139741435777,0.0003558814416959248,0.404110035807966,,,1.788,0.5926672214162456,0.5860000000000001,-1.539030738733407,,,,,,,,,,,,,,,,,,,,
38,240615_095645,LEARNING,1.0,39,3.0,202.0,,,,,,,,,,39.0,39.0,39.0,cue1.png,Hard,B,,,,,,,,,,,,,,,,,,,,,,,,,,,14,34,Female,0.7142857142857143,1.75,0.2,1.75,1.1111111111111112,2.5,2.2222222222222223,2.6666666666666665,3.0,1.5555555555555556,2.0,1.75,2.0,2.75,0.7474489795918368,0.6904761904761905,0.2442052999977022,-1.9414736322830175,-1.4097460140287565,-2.003109976626598,0.0009917499167900628,0.738918123338557,-0.0009642763838253118,-1.2250991626631904,0.0002708393942616894,0.17906189764631755,,,,,0.5430000000000001,-1.6252292896542426,,,,,,,,,,,,,,,,,,,,
39,240615_095715,LEARNING,1.0,40,3.0,202.0,,,,,,,,,,40.0,40.0,40.0,cue1.png,Hard,B,,,,,,,,,,,,,,,,,,,,,,,,,,,14,34,Female,0.7142857142857143,1.75,0.2,1.75,1.1111111111111112,2.5,2.2222222222222223,2.6666666666666665,3.0,1.5555555555555556,2.0,1.75,2.0,2.75,0.775,0.7714285714285715,0.3711832210599248,0.0002217109940802312,-0.991059480977706,0.09135092324756189,0.0015936051444535842,1.3454570106939228,,,,,,,2.407,1.6382877162221423,1.427,0.14685254788107846,,,,,,,,,,,,,,,,,,,,
40,240615_095743,LEARNING,1.0,41,1.0,202.0,,,,,,,,,,41.0,41.0,41.0,cue2.png,Easy,B,,,,,,,,,,,,,,,,,,,,,,,,,,,14,34,Female,0.7142857142857143,1.75,0.2,1.75,1.1111111111111112,2.5,2.2222222222222223,2.6666666666666665,3.0,1.5555555555555556,2.0,1.75,2.0,2.75,1.0,1.0,0.3321426523838281,-0.596770976893133,-1.1021907264949808,-0.4645782268831569,-2.789319071596144e-05,-0.2886598846272217,-5.7617473297675616e-05,-0.027950358798345943,,,,,0.7690000000000001,-1.1286369533934613,1.919,1.1331243398125017,,,,,,,,,,,,,,,,,,,,
41,240615_095811,LEARNING,1.0,42,3.0,202.0,,,,,,,,,,42.0,42.0,42.0,cue1.png,Hard,B,,,,,,,,,,,,,,,,,,,,,,,,,,,14,34,Female,0.7142857142857143,1.75,0.2,1.75,1.1111111111111112,2.5,2.2222222222222223,2.6666666666666665,3.0,1.5555555555555556,2.0,1.75,2.0,2.75,0.6190476190476191,0.6190476190476191,0.3106968631618656,-0.9247113677645622,-1.1689375586692934,-0.7984763084880757,-3.931047892263015e-05,-0.3001660225939421,-5.194909352788414e-05,-0.02046585279232384,,,-7.761346611468226e-05,-0.1968570389488363,,,,,,,,,,,,,,,,,,,,,,,,
42,240615_095839,LEARNING,1.0,43,3.0,202.0,,,,,,,,,,43.0,43.0,43.0,cue1.png,Hard,B,,,,,,,,,,,,,,,,,,,,,,,,,,,14,34,Female,0.7142857142857143,1.75,0.2,1.75,1.1111111111111112,2.5,2.2222222222222223,2.6666666666666665,3.0,1.5555555555555556,2.0,1.75,2.0,2.75,0.0321428571428571,0.6428571428571428,0.3122598380986823,-0.9008109831064403,-1.1639196233513085,-0.7733743085621896,0.0003782749957525551,0.12066911772463826,-0.0003495319318047845,-0.41339304377594754,0.0006468907112167927,1.1742125470874383,-1.6603324231919542e-06,-0.01909390097025831,2.052,1.0386184502187605,0.5249999999999999,-1.6613124039931977,,,,,,,,,,,,,,,,,,,,
43,240615_095908,LEARNING,1.0,44,1.0,202.0,,,,,,,,,,44.0,44.0,44.0,cue2.png,Easy,B,,,,,,,,,,,,,,,,,,,,,,,,,,,14,34,Female,0.7142857142857143,1.75,0.2,1.75,1.1111111111111112,2.5,2.2222222222222223,2.6666666666666665,3.0,1.5555555555555556,2.0,1.75,2.0,2.75,1.0,1.0,0.3834696142917632,0.18810029905382297,-0.9584948939298978,0.25425383248411587,9.028686213538454e-05,-0.16956015022377108,1.8793567919477526e-05,0.0729424748053601,,,,,1.2590000000000001,-0.30092444538879354,2.376,2.049234520529291,,,,,,,,,,,,,,,,,,,,
44,240615_095938,LEARNING,1.0,45,1.0,202.0,,,,,,,,,,45.0,45.0,45.0,cue2.png,Easy,B,,,,,,,,,,,,,,,,,,,,,,,,,,,14,34,Female,0.7142857142857143,1.75,0.2,1.75,1.1111111111111112,2.5,2.2222222222222223,2.6666666666666665,3.0,1.5555555555555556,2.0,1.75,2.0,2.75,1.0,0.9523809523809524,0.4190681050007697,0.7324581138545521,-0.8697218305005344,0.69833716365775,-1.9445504243674472e-05,-0.2801464579456602,0.0001325688988447352,0.2231709672901834,,,-0.0002683870022924329,-0.6433495111616877,1.9609999999999999,0.8849004130178934,1.4919999999999998,0.27715268299396917,,,,,,,,,,,,,,,,,,,,
45,240615_100008,LEARNING,1.0,46,1.0,202.0,,,,,,,,,,46.0,46.0,46.0,cue2.png,Easy,B,,,,,,,,,,,,,,,,,,,,,,,,,,,14,34,Female,0.7142857142857143,1.75,0.2,1.75,1.1111111111111112,2.5,2.2222222222222223,2.6666666666666665,3.0,1.5555555555555556,2.0,1.75,2.0,2.75,0.9305555555555556,0.8857142857142857,0.4032626800035359,0.4907679061482396,-0.9081671179490898,0.5060163102530767,-0.00010584670756378983,-0.3672200386328182,-3.940910402285003e-05,-0.00390810074012946,-9.503407000001655e-05,-0.7891549364853367,,,0.8889999999999998,-0.9259318493923188,1.169,-0.3703387576439362,,,,,,,,,,,,,,,,,,,,
46,240615_100040,LEARNING,1.0,47,3.0,202.0,,,,,,,,,,47.0,47.0,47.0,cue1.png,Hard,B,,,,,,,,,,,,,,,,,,,,,,,,,,,14,34,Female,0.7142857142857143,1.75,0.2,1.75,1.1111111111111112,2.5,2.2222222222222223,2.6666666666666665,3.0,1.5555555555555556,2.0,1.75,2.0,2.75,0.5583333333333333,0.580952380952381,0.4609887866691375,1.3734923322568566,-0.7743815602094383,1.175272657266729,0.00010528336524000433,-0.15444694377608587,-0.00024572850645235983,-0.27633141557730095,0.00033275885972942724,0.34292037518655993,0.000123356422736112,0.2734993024554922,1.8310000000000002,0.6653032170166555,1.8119999999999998,0.9186302712420494,,,,,,,,,,,,,,,,,,,,
47,240615_100111,LEARNING,1.0,48,3.0,202.0,,,,,,,,,,48.0,48.0,48.0,cue1.png,Hard,B,,,,,,,,,,,,,,,,,,,,,,,,,,,14,34,Female,0.7142857142857143,1.75,0.2,1.75,1.1111111111111112,2.5,2.2222222222222223,2.6666666666666665,3.0,1.5555555555555556,2.0,1.75,2.0,2.75,0.1428571428571428,0.4285714285714285,0.3994528000023112,0.4325087521556533,-0.917659668434615,0.4585302454705969,-4.680779954828983e-07,-0.2610213486629311,-9.37786669650254e-05,-0.07569745447294719,,,7.98027314152924e-06,0.0034692799533825817,1.4709999999999999,0.05718790501322556,1.4140000000000001,0.1207925208585004,,,,,,,,,,,,,,,,,,,,
48,240615_100140,LEARNING,1.0,49,1.0,202.0,,,,,,,,,,49.0,49.0,49.0,cue2.png,Easy,B,,,,,,,,,,,,,,,,,,,,,,,,,,,14,34,Female,0.7142857142857143,1.75,0.2,1.75,1.1111111111111112,2.5,2.2222222222222223,2.6666666666666665,3.0,1.5555555555555556,2.0,1.75,2.0,2.75,1.0,1.0,0.3802896190456868,0.13947308962011293,-0.966822161171244,0.21259704569256208,,,0.0002710545998264079,0.40602693369337306,,,-0.0006618718397350658,-1.5642739819663714,,,1.5859999999999999,0.46558672454184286,,,,,,,,,,,,,,,,,,,,
49,240615_100210,LEARNING,1.0,50,1.0,202.0,,,,,,,,,,50.0,50.0,50.0,cue2.png,Easy,B,,,,,,,,,,,,,,,,,,,,,,,,,,,14,34,Female,0.7142857142857143,1.75,0.2,1.75,1.1111111111111112,2.5,2.2222222222222223,2.6666666666666665,3.0,1.5555555555555556,2.0,1.75,2.0,2.75,0.8388888888888889,0.7238095238095239,0.3796310333289309,0.12940226148970788,-0.9685554628773689,0.2039262804192944,-0.00015677090839303492,-0.4185405334806253,7.162606453875453e-05,0.1427022923051441,-0.00036128970681769497,-1.4937515113408528,,,,,,,,,,,,,,,,,,,,,,,,,,
0,240615_100336,TrueCHOICE,9.0,1,1.0,202.0,,,,,,,,,,,2.0,1.0,,,B,,,,,,True,cue2.png,Easy,cue1.png,Hard,Left,Easy,Easy,0.016406700015068,,,,,,,,,,,,,14,34,Female,0.7142857142857143,1.75,0.2,1.75,1.1111111111111112,2.5,2.2222222222222223,2.6666666666666665,3.0,1.5555555555555556,2.0,1.75,2.0,2.75,0.725,0.7523809523809524,0.3537450549949426,0.04034061215203607,-1.0391788089352774,0.12267556890690873,,,,,,,,,,,,,8.798471526157061e-06,-0.34901814760244415,,,1.4569999999999999,-0.3586060381896432,,,,,,,,,,,,,,
1,240615_100403,TrueCHOICE,9.0,2,1.0,202.0,,,,,,,,,,,3.0,2.0,,,B,,,,,,True,cue2.png,Easy,cue1.png,Hard,Left,Easy,Easy,0.0154407999943941,,,,,,,,,,,,,14,34,Female,0.7142857142857143,1.75,0.2,1.75,1.1111111111111112,2.5,2.2222222222222223,2.6666666666666665,3.0,1.5555555555555556,2.0,1.75,2.0,2.75,,,,,,,,,,,,,,,,,,,,,1.270436684791109e-05,-0.41152152634251027,1.1039999999999999,-0.9623640579715697,,,,,,,,,,,,,,
2,240615_100430,TrueCHOICE,9.0,3,1.0,202.0,,,,,,,,,,,4.0,3.0,,,B,,,,,,True,cue1.png,Hard,cue2.png,Easy,Right,Easy,Easy,0.0170115000219084,,,,,,,,,,,,,14,34,Female,0.7142857142857143,1.75,0.2,1.75,1.1111111111111112,2.5,2.2222222222222223,2.6666666666666665,3.0,1.5555555555555556,2.0,1.75,2.0,2.75,1.0,1.0,0.3916639047647117,0.6827045477889699,-0.9373511927614164,0.6401015298804343,,,,,,,,,,,,,0.00017602709965607206,0.7737526770685885,-2.4638626880104254e-05,-0.6235206179964675,1.5999999999999999,-0.11402417748478344,,,,,,,,,,,,,,
3,240615_100500,TrueCHOICE,9.0,4,3.0,202.0,,,,,,,,,,,5.0,4.0,,,B,,,,,,True,cue2.png,Easy,cue1.png,Hard,Right,Hard,Hard,0.0166093000443652,,,,,,,,,,,,,14,34,Female,0.7142857142857143,1.75,0.2,1.75,1.1111111111111112,2.5,2.2222222222222223,2.6666666666666665,3.0,1.5555555555555556,2.0,1.75,2.0,2.75,0.0892857142857143,0.4285714285714286,0.41816581999495,1.1316600058942579,-0.8718772265689363,0.9728003708122384,,,,,,,,,,,,,,,,,,,,,,,,,,,,,,,,
4,240615_100526,TrueCHOICE,9.0,5,1.0,202.0,,,,,,,,,,,6.0,5.0,,,B,,,,,,True,cue1.png,Hard,cue2.png,Easy,Right,Easy,Easy,0.0167908999719657,,,,,,,,,,,,,14,34,Female,0.7142857142857143,1.75,0.2,1.75,1.1111111111111112,2.5,2.2222222222222223,2.6666666666666665,3.0,1.5555555555555556,2.0,1.75,2.0,2.75,0.7000000000000001,0.6285714285714286,0.2138466437427268,-2.329607173367905,-1.5424961388783602,-2.4348767229563344,,,,,,,,,,,,,,,,,,,,,,,,,,,,,,,,
5,240615_100559,TrueCHOICE,9.0,6,1.0,202.0,,,,,,,,,,,8.0,6.0,,,B,,,,,,True,cue1.png,Hard,cue2.png,Easy,Right,Easy,Easy,0.0169787000049836,,,,,,,,,,,,,14,34,Female,0.7142857142857143,1.75,0.2,1.75,1.1111111111111112,2.5,2.2222222222222223,2.6666666666666665,3.0,1.5555555555555556,2.0,1.75,2.0,2.75,0.9305555555555556,0.9333333333333332,0.3815851047651709,0.5119647264728662,-0.963421373804086,0.5076287392405626,,,,,,,,,,,,,-0.00011720833386910396,-1.1950261929347923,0.0001559420140641492,0.40164978289055703,1.4560000000000002,-0.36031640085191435,,,,,,,,,,,,,,
6,240615_100628,TrueCHOICE,9.0,7,3.0,202.0,,,,,,,,,,,9.0,7.0,,,B,,,,,,True,cue2.png,Easy,cue1.png,Hard,Right,Hard,Hard,0.0165045000030659,,,,,,,,,,,,,14,34,Female,0.7142857142857143,1.75,0.2,1.75,1.1111111111111112,2.5,2.2222222222222223,2.6666666666666665,3.0,1.5555555555555556,2.0,1.75,2.0,2.75,,,,,,,,,,,,,,,,,,,0.0003013051026345354,1.6148675524952762,,,1.453,-0.3654474888387298,,,,,,,,,,,,,,
7,240615_100654,TrueCHOICE,9.0,8,1.0,202.0,,,,,,,,,,,10.0,8.0,,,B,,,,,,True,cue1.png,Hard,cue2.png,Easy,Right,Easy,Easy,0.0167554999934509,,,,,,,,,,,,,14,34,Female,0.7142857142857143,1.75,0.2,1.75,1.1111111111111112,2.5,2.2222222222222223,2.6666666666666665,3.0,1.5555555555555556,2.0,1.75,2.0,2.75,1.0,1.0,0.3753127761939097,0.4057084003683873,-0.9799955308042658,0.4234089623727471,,,,,,,,,,,,,-0.00010130161184958427,-1.0882286690933938,-0.00019314779971247144,-1.5801603517042913,,,,,,,,,,,,,,,,
8,240615_100722,TrueCHOICE,9.0,9,3.0,202.0,,,,,,,,,,,11.0,9.0,,,B,,,,,,True,cue2.png,Easy,cue1.png,Hard,Right,Hard,Hard,0.0164642999880015,,,,,,,,,,,,,14,34,Female,0.7142857142857143,1.75,0.2,1.75,1.1111111111111112,2.5,2.2222222222222223,2.6666666666666665,3.0,1.5555555555555556,2.0,1.75,2.0,2.75,0.8443877551020408,0.6904761904761905,0.3611512312454579,0.1658048747335109,-1.0184584852554346,0.22796364098963,,,,,,,,,,,,,,,0.0003521029139353206,1.5152705304288758,,,,,,,,,,,,,,,,
9,240615_100749,TrueCHOICE,9.0,10,1.0,202.0,,,,,,,,,,,12.0,10.0,,,B,,,,,,True,cue1.png,Hard,cue2.png,Easy,Right,Easy,Easy,0.0166119000059552,,,,,,,,,,,,,14,34,Female,0.7142857142857143,1.75,0.2,1.75,1.1111111111111112,2.5,2.2222222222222223,2.6666666666666665,3.0,1.5555555555555556,2.0,1.75,2.0,2.75,0.9362244897959184,0.9285714285714286,0.3154393999942667,-0.6085759940421236,-1.1537886915377462,-0.45970208924618666,,,,,,,,,,,,,9.707253778152604e-05,0.24365278006676544,0.0002081929070282631,0.6982821827238365,2.93,2.1607581633366397,,,,,,,,,,,,,,
0,240615_100940,FalseCHOICE,9.0,1,2.0,202.0,,,,,,,,,,,1.0,1.0,,,B,,,,,,False,cue2.png,Easy,cue1.png,Hard,Left,Easy,Mid,0.0174196999869309,,,,,,,,,,,,,14,34,Female,0.7142857142857143,1.75,0.2,1.75,1.1111111111111112,2.5,2.2222222222222223,2.6666666666666665,3.0,1.5555555555555556,2.0,1.75,2.0,2.75,0.9362244897959184,0.9285714285714286,0.3185292428520153,0.1262604531197084,-1.1440409938925515,0.21869716335426778,,,,,,,,,,,,,,,,,,,-2.1648860935615747e-05,-0.35240357193246397,,,,,,,,,,,,
1,240615_101010,FalseCHOICE,9.0,2,2.0,202.0,,,,,,,,,,,3.0,2.0,,,B,,,,,,False,cue1.png,Hard,cue2.png,Easy,Right,Easy,Mid,0.0166570000001229,,,,,,,,,,,,,14,34,Female,0.7142857142857143,1.75,0.2,1.75,1.1111111111111112,2.5,2.2222222222222223,2.6666666666666665,3.0,1.5555555555555556,2.0,1.75,2.0,2.75,,,,,,,,,,,,,,,,,,,,,,,,,2.2501090735319723e-05,-0.311575866332122,-0.00016003290613506634,-0.18334339584878734,1.4529999999999998,-0.5423162654113786,,,,,,,,
2,240615_101047,FalseCHOICE,9.0,3,2.0,202.0,,,,,,,,,,,6.0,3.0,,,B,,,,,,False,cue1.png,Hard,cue2.png,Easy,Left,Hard,Mid,0.0166508000111207,,,,,,,,,,,,,14,34,Female,0.7142857142857143,1.75,0.2,1.75,1.1111111111111112,2.5,2.2222222222222223,2.6666666666666665,3.0,1.5555555555555556,2.0,1.75,2.0,2.75,,,,,,,,,,,,,,,,,,,,,,,,,5.0424405733911614e-05,-0.2857537568846357,-0.00012295013025998783,-0.07457265626809964,1.464,-0.5201721929317011,,,,,,,,
3,240615_101112,FalseCHOICE,9.0,4,2.0,202.0,,,,,,,,,,,7.0,4.0,,,B,,,,,,False,cue1.png,Hard,cue2.png,Easy,Left,Hard,Mid,0.0143241999903693,,,,,,,,,,,,,14,34,Female,0.7142857142857143,1.75,0.2,1.75,1.1111111111111112,2.5,2.2222222222222223,2.6666666666666665,3.0,1.5555555555555556,2.0,1.75,2.0,2.75,0.5,0.6666666666666667,0.2776265900029102,-0.4759815771232394,-1.2814782696235307,-0.3156884664140127,,,,,,,,,,,,,,,,,,,0.00033894217812959187,-0.018946699888649422,9.272385233706493e-05,0.5580396021674787,1.9369999999999998,0.4320229236944183,,,,,,,,
4,240615_101138,FalseCHOICE,9.0,5,2.0,202.0,,,,,,,,,,,8.0,5.0,,,B,,,,,,False,cue2.png,Easy,cue1.png,Hard,Left,Easy,Mid,0.0134720000205561,,,,,,,,,,,,,14,34,Female,0.7142857142857143,1.75,0.2,1.75,1.1111111111111112,2.5,2.2222222222222223,2.6666666666666665,3.0,1.5555555555555556,2.0,1.75,2.0,2.75,,,,,,,,,,,,,,,,,,,,,,,,,1.6126036030664984e-05,-0.31747120362733955,-0.00024229294732562405,-0.42462753132926945,1.582,-0.2826266881497091,,,,,,,,
5,240615_101205,FalseCHOICE,9.0,6,2.0,202.0,,,,,,,,,,,9.0,6.0,,,B,,,,,,False,cue1.png,Hard,cue2.png,Easy,Right,Easy,Mid,0.0166928000398911,,,,,,,,,,,,,14,34,Female,0.7142857142857143,1.75,0.2,1.75,1.1111111111111112,2.5,2.2222222222222223,2.6666666666666665,3.0,1.5555555555555556,2.0,1.75,2.0,2.75,0.1833333333333333,0.5428571428571429,0.2965250823455041,-0.19772416338232138,-1.2156234693651107,-0.05963086688588366,,,,,,,,,,,,,,,,,,,0.003352865538629868,2.768181507671889,0.0006137503648418752,2.0863081249233866,1.5930000000000002,-0.26048261567003167,,,,,,,,
6,240615_101233,FalseCHOICE,9.0,7,2.0,202.0,,,,,,,,,,,10.0,7.0,,,B,,,,,,False,cue1.png,Hard,cue2.png,Easy,Right,Easy,Mid,0.0164962999988347,,,,,,,,,,,,,14,34,Female,0.7142857142857143,1.75,0.2,1.75,1.1111111111111112,2.5,2.2222222222222223,2.6666666666666665,3.0,1.5555555555555556,2.0,1.75,2.0,2.75,0.15,0.5523809523809524,0.4755192550044739,2.4377482677451665,-0.7433479035905382,1.7766779095964238,,,,,,,,,,,,,,,,,,,-1.1469248363303944e-06,-0.33344438897485984,,,,,,,,,,,,
7,240615_101257,FalseCHOICE,9.0,8,2.0,202.0,,,,,,,,,,,11.0,8.0,,,B,,,,,,False,cue2.png,Easy,cue1.png,Hard,Left,Easy,Mid,0.0165077000274322,,,,,,,,,,,,,14,34,Female,0.7142857142857143,1.75,0.2,1.75,1.1111111111111112,2.5,2.2222222222222223,2.6666666666666665,3.0,1.5555555555555556,2.0,1.75,2.0,2.75,,,,,,,,,,,,,,,,,,,,,,,,,0.00012618879877868052,-0.21569056956167473,,,,,,,,,,,,
8,240615_101323,FalseCHOICE,9.0,9,2.0,202.0,,,,,,,,,,,12.0,9.0,,,B,,,,,,False,cue2.png,Easy,cue1.png,Hard,Right,Hard,Mid,0.016820800025016,,,,,,,,,,,,,14,34,Female,0.7142857142857143,1.75,0.2,1.75,1.1111111111111112,2.5,2.2222222222222223,2.6666666666666665,3.0,1.5555555555555556,2.0,1.75,2.0,2.75,0.7474489795918368,0.7857142857142857,0.311086799996528,0.016679494843212437,-1.167683306076677,0.12677077861987998,,,,,,,,,,,,,,,,,,,2.1115859580657023e-05,-0.31285686002816315,-0.00020601040335943132,-0.31820402208696824,,,,,,,,,,
9,240615_101349,FalseCHOICE,9.0,10,2.0,202.0,,,,,,,,,,,13.0,10.0,,,B,,,,,,False,cue1.png,Hard,cue2.png,Easy,Right,Easy,Mid,0.0164545999723486,,,,,,,,,,,,,14,34,Female,0.7142857142857143,1.75,0.2,1.75,1.1111111111111112,2.5,2.2222222222222223,2.6666666666666665,3.0,1.5555555555555556,2.0,1.75,2.0,2.75,,,,,,,,,,,,,,,,,,,,,,,,,0.004291086936862654,3.6358025488112484,0.000407503791558178,1.481348226893564,,,,,,,,,,
10,240615_101417,FalseCHOICE,9.0,11,2.0,202.0,,,,,,,,,,,14.0,11.0,,,B,,,,,,False,cue2.png,Easy,cue1.png,Hard,Left,Easy,Mid,0.0153978000162169,,,,,,,,,,,,,14,34,Female,0.7142857142857143,1.75,0.2,1.75,1.1111111111111112,2.5,2.2222222222222223,2.6666666666666665,3.0,1.5555555555555556,2.0,1.75,2.0,2.75,0.6333333333333333,0.6571428571428573,0.369408344448958,0.875393609732321,-0.9958526222762497,0.7948853617111681,,,,,,,,,,,,,,,,,,,,,-0.00034025656923111986,-0.7119732155509493,1.757,0.0696653740269733,,,,,,,,
11,240615_101444,FalseCHOICE,9.0,12,2.0,202.0,,,,,,,,,,,15.0,12.0,,,B,,,,,,False,cue1.png,Hard,cue2.png,Easy,Left,Hard,Mid,0.0160413999692536,,,,,,,,,,,,,14,34,Female,0.7142857142857143,1.75,0.2,1.75,1.1111111111111112,2.5,2.2222222222222223,2.6666666666666665,3.0,1.5555555555555556,2.0,1.75,2.0,2.75,,,,,,,,,,,,,,,,,,,,,,,,,5.3565641882915085e-05,-0.28284889606692626,-0.00021584270681338164,-0.34704401297844467,,,,,,,,,,
12,240615_101510,FalseCHOICE,9.0,13,2.0,202.0,,,,,,,,,,,16.0,13.0,,,B,,,,,,False,cue2.png,Easy,cue1.png,Hard,Left,Easy,Mid,0.0160756999976001,,,,,,,,,,,,,14,34,Female,0.7142857142857143,1.75,0.2,1.75,1.1111111111111112,2.5,2.2222222222222223,2.6666666666666665,3.0,1.5555555555555556,2.0,1.75,2.0,2.75,0.0333333333333333,0.6571428571428573,0.3490733555518091,0.5759855238175537,-1.0524731910385434,0.5747324364225275,,,,,,,,,,,,,,,,,,,-1.873534485767993e-05,-0.34970929544540424,,,,,,,,,,,,
13,240615_101538,FalseCHOICE,9.0,14,2.0,202.0,,,,,,,,,,,17.0,14.0,,,B,,,,,,False,cue1.png,Hard,cue2.png,Easy,Left,Hard,Mid,0.016669999982696,,,,,,,,,,,,,14,34,Female,0.7142857142857143,1.75,0.2,1.75,1.1111111111111112,2.5,2.2222222222222223,2.6666666666666665,3.0,1.5555555555555556,2.0,1.75,2.0,2.75,0.8777777777777778,0.6476190476190476,0.2725406400044449,-0.5508660317841519,-1.2999675383677587,-0.38757871212274764,,,,,,,,,,,,,,,,,,,-6.329182540085274e-06,-0.3382366862224533,-0.00032361757094183244,-0.6631679115493173,2.239,1.0399783681364652,,,,,,,,
14,240615_101605,FalseCHOICE,9.0,15,2.0,202.0,,,,,,,,,,,18.0,15.0,,,B,,,,,,False,cue2.png,Easy,cue1.png,Hard,Left,Easy,Mid,0.0164032999891787,,,,,,,,,,,,,14,34,Female,0.7142857142857143,1.75,0.2,1.75,1.1111111111111112,2.5,2.2222222222222223,2.6666666666666665,3.0,1.5555555555555556,2.0,1.75,2.0,2.75,,,,,,,,,,,,,,,,,,,,,,,,,3.574574181694186e-05,-0.2993278639068848,2.052768370693677e-06,0.2920843000393865,,,,,,,,,,
15,240615_101630,FalseCHOICE,9.0,16,2.0,202.0,,,,,,,,,,,19.0,16.0,,,B,,,,,,False,cue2.png,Easy,cue1.png,Hard,Left,Easy,Mid,0.0164631999796256,,,,,,,,,,,,,14,34,Female,0.7142857142857143,1.75,0.2,1.75,1.1111111111111112,2.5,2.2222222222222223,2.6666666666666665,3.0,1.5555555555555556,2.0,1.75,2.0,2.75,0.8388888888888889,0.8666666666666667,0.2880881761943566,-0.32194738939607015,-1.2444886783643312,-0.17186499556313428,,,,,,,,,,,,,,,,,,,0.0007434021094503327,0.35507796782052525,-0.0003052263455057395,-0.6092229965511019,,,,,,,,,,
16,240615_101655,FalseCHOICE,9.0,17,2.0,202.0,,,,,,,,,,,20.0,17.0,,,B,,,,,,False,cue1.png,Hard,cue2.png,Easy,Right,Easy,Mid,0.0163841000176034,,,,,,,,,,,,,14,34,Female,0.7142857142857143,1.75,0.2,1.75,1.1111111111111112,2.5,2.2222222222222223,2.6666666666666665,3.0,1.5555555555555556,2.0,1.75,2.0,2.75,0.8250000000000001,0.7904761904761906,0.2202263833346983,-1.3211301088763587,-1.5130992465452349,-1.216280543501798,,,,,,,,,,,,,,,,,,,,,,,,,,,,,,,,
17,240615_101722,FalseCHOICE,9.0,18,2.0,202.0,,,,,,,,,,,21.0,18.0,,,B,,,,,,False,cue1.png,Hard,cue2.png,Easy,Left,Hard,Mid,0.0163440000033006,,,,,,,,,,,,,14,34,Female,0.7142857142857143,1.75,0.2,1.75,1.1111111111111112,2.5,2.2222222222222223,2.6666666666666665,3.0,1.5555555555555556,2.0,1.75,2.0,2.75,0.5,0.5714285714285714,0.3569247388934147,0.691587635526738,-1.0302303348518018,0.6612174358375587,,,,,,,,,,,,,,,,,,,6.942602111740777e-05,-0.26818199679324184,-0.0003175763796842649,-0.6454479640662161,,,,,,,,,,
18,240615_101748,FalseCHOICE,9.0,19,2.0,202.0,,,,,,,,,,,22.0,19.0,,,B,,,,,,False,cue2.png,Easy,cue1.png,Hard,Left,Easy,Mid,0.0161345999804325,,,,,,,,,,,,,14,34,Female,0.7142857142857143,1.75,0.2,1.75,1.1111111111111112,2.5,2.2222222222222223,2.6666666666666665,3.0,1.5555555555555556,2.0,1.75,2.0,2.75,0.725,0.8,0.3454520380972618,0.5226660097012836,-1.0629014642318761,0.5341850717561697,,,,,,,,,,,,,,,,,,,,,0.00014355129102450442,0.7071260167241707,,,,,,,,,,
19,240615_101814,FalseCHOICE,9.0,20,2.0,202.0,,,,,,,,,,,23.0,20.0,,,B,,,,,,False,cue2.png,Easy,cue1.png,Hard,Left,Easy,Mid,0.0150998999597504,,,,,,,,,,,,,14,34,Female,0.7142857142857143,1.75,0.2,1.75,1.1111111111111112,2.5,2.2222222222222223,2.6666666666666665,3.0,1.5555555555555556,2.0,1.75,2.0,2.75,0.5666666666666667,0.7333333333333334,0.3355420571336123,0.3767535409615491,-1.0920079738438333,0.42101271449999156,,,,,,,,,,,,,,,,,,,-0.001379791533743012,-1.6083471711900241,0.0002033596500526421,0.8825551557539109,1.96,0.47832416615192547,,,,,,,,
20,240615_101841,FalseCHOICE,9.0,21,2.0,202.0,,,,,,,,,,,24.0,21.0,,,B,,,,,,False,cue2.png,Easy,cue1.png,Hard,Left,Easy,Mid,0.0163780999719165,,,,,,,,,,,,,14,34,Female,0.7142857142857143,1.75,0.2,1.75,1.1111111111111112,2.5,2.2222222222222223,2.6666666666666665,3.0,1.5555555555555556,2.0,1.75,2.0,2.75,0.6333333333333333,0.5619047619047619,0.3216478624999581,0.17217835079889793,-1.1342979265693816,0.2565803005139296,,,,,,,,,,,,,,,,,,,-1.8478210251850376e-05,-0.3494715099985545,-5.987650587978852e-05,0.11043411870959072,2.269,1.1003712930810399,,,,,,,,
21,240615_101908,FalseCHOICE,9.0,22,2.0,202.0,,,,,,,,,,,25.0,22.0,,,B,,,,,,False,cue1.png,Hard,cue2.png,Easy,Left,Hard,Mid,0.0165378999663516,,,,,,,,,,,,,14,34,Female,0.7142857142857143,1.75,0.2,1.75,1.1111111111111112,2.5,2.2222222222222223,2.6666666666666665,3.0,1.5555555555555556,2.0,1.75,2.0,2.75,0.775,0.6761904761904762,0.3010865647092406,-0.1305618595144399,-1.200357465183304,-0.00027336568869484786,,,,,,,,,,,,,,,,,,,0.0010678567990202374,0.6551177197356094,-0.00019145713079856894,-0.27551654299702866,1.4100000000000001,-0.6288794578319343,,,,,,,,
22,240615_101931,FalseCHOICE,9.0,23,2.0,202.0,,,,,,,,,,,26.0,23.0,,,B,,,,,,False,cue2.png,Easy,cue1.png,Hard,Left,Easy,Mid,0.0158916999935172,,,,,,,,,,,,,14,34,Female,0.7142857142857143,1.75,0.2,1.75,1.1111111111111112,2.5,2.2222222222222223,2.6666666666666665,3.0,1.5555555555555556,2.0,1.75,2.0,2.75,0.7474489795918368,0.7857142857142857,0.2238992809434421,-1.2670511394529185,-1.4965589668902128,-1.1519683857339613,,,,,,,,,,,,,,,,,,,,,,,2.3499999999999996,1.2634321904313892,,,,,,,,
23,240615_101953,FalseCHOICE,9.0,24,2.0,202.0,,,,,,,,,,,27.0,24.0,,,B,,,,,,False,cue1.png,Hard,cue2.png,Easy,Left,Hard,Mid,0.0150129999965429,,,,,,,,,,,,,14,34,Female,0.7142857142857143,1.75,0.2,1.75,1.1111111111111112,2.5,2.2222222222222223,2.6666666666666665,3.0,1.5555555555555556,2.0,1.75,2.0,2.75,0.0833333333333333,0.6190476190476191,0.0999480349972145,-3.09208313151434,-2.3031048780867693,-4.287992018328797,,,,,,,,,,,,,,,,,,,0.0002571725620618996,-0.09456322234256857,-7.836256148056539e-05,0.05621104904512328,1.275,-0.9006476200825186,,,,,,,,
24,240615_102018,FalseCHOICE,9.0,25,2.0,202.0,,,,,,,,,,,28.0,25.0,,,B,,,,,,False,cue1.png,Hard,cue2.png,Easy,Left,Hard,Mid,0.0163472000276669,,,,,,,,,,,,,14,34,Female,0.7142857142857143,1.75,0.2,1.75,1.1111111111111112,2.5,2.2222222222222223,2.6666666666666665,3.0,1.5555555555555556,2.0,1.75,2.0,2.75,0.725,0.8,0.2701404238136352,-0.5862063085409652,-1.3088133669841058,-0.421973192592673,,,,,,,,,,,,,,,,,,,0.0003541539424717589,-0.004879607791861704,-0.00025813510399138673,-0.471095549335607,1.718,-0.008845428400972988,,,,,,,,
25,240615_102042,FalseCHOICE,9.0,26,2.0,202.0,,,,,,,,,,,29.0,26.0,,,B,,,,,,False,cue2.png,Easy,cue1.png,Hard,Right,Hard,Mid,0.016898299974855,,,,,,,,,,,,,14,34,Female,0.7142857142857143,1.75,0.2,1.75,1.1111111111111112,2.5,2.2222222222222223,2.6666666666666665,3.0,1.5555555555555556,2.0,1.75,2.0,2.75,0.0321428571428571,0.4999999999999999,0.2149119666589993,-1.3993784586872429,-1.5375267921050484,-1.311260084155862,,,,,,,,,,,,,,,,,,,0.0003249256818128555,-0.03190846685576295,0.0004614272311814641,1.6395157931059188,,,,,,,,,,
26,240615_102107,FalseCHOICE,9.0,27,2.0,202.0,,,,,,,,,,,30.0,27.0,,,B,,,,,,False,cue2.png,Easy,cue1.png,Hard,Right,Hard,Mid,0.0165939999860711,,,,,,,,,,,,,14,34,Female,0.7142857142857143,1.75,0.2,1.75,1.1111111111111112,2.5,2.2222222222222223,2.6666666666666665,3.0,1.5555555555555556,2.0,1.75,2.0,2.75,0.6190476190476191,0.7142857142857143,0.2849864809457877,-0.36761609578986365,-1.2553135351165128,-0.21395436223530914,,,,,,,,,,,,,,,,,,,0.0028592571507071473,2.3117167284083773,,,2.285,1.1325808530514796,,,,,,,,
27,240615_102136,FalseCHOICE,9.0,28,2.0,202.0,,,,,,,,,,,31.0,28.0,,,B,,,,,,False,cue1.png,Hard,cue2.png,Easy,Right,Easy,Mid,0.0163147999555803,,,,,,,,,,,,,14,34,Female,0.7142857142857143,1.75,0.2,1.75,1.1111111111111112,2.5,2.2222222222222223,2.6666666666666665,3.0,1.5555555555555556,2.0,1.75,2.0,2.75,0.9362244897959184,0.8809523809523809,0.4490937400085386,2.048664560630171,-0.8005236379556697,1.5543663812743609,,,,,,,,,,,,,,,,,,,8.473092380842763e-05,-0.25402877492862547,1.2542824784263825e-05,0.32285360377735123,1.579,-0.28866598064416676,,,,,,,,
28,240615_102201,FalseCHOICE,9.0,29,2.0,202.0,,,,,,,,,,,32.0,29.0,,,B,,,,,,False,cue2.png,Easy,cue1.png,Hard,Right,Hard,Mid,0.0167029000003822,,,,,,,,,,,,,14,34,Female,0.7142857142857143,1.75,0.2,1.75,1.1111111111111112,2.5,2.2222222222222223,2.6666666666666665,3.0,1.5555555555555556,2.0,1.75,2.0,2.75,0.0952380952380952,0.4761904761904761,0.2624535842057268,-0.6993857130333059,-1.3376810346587462,-0.5342168811277256,,,,,,,,,,,,,,,,,,,0.0005406430689479614,0.16757637155290614,-0.00014731597623436664,-0.1460422543389235,1.851,0.25889653885330594,,,,,,,,
29,240615_102229,FalseCHOICE,9.0,30,2.0,202.0,,,,,,,,,,,33.0,30.0,,,B,,,,,,False,cue2.png,Easy,cue1.png,Hard,Right,Hard,Mid,0.01546279998729,,,,,,,,,,,,,14,34,Female,0.7142857142857143,1.75,0.2,1.75,1.1111111111111112,2.5,2.2222222222222223,2.6666666666666665,3.0,1.5555555555555556,2.0,1.75,2.0,2.75,0.7000000000000001,0.6761904761904762,0.3484439588329919,0.5667184193300511,-1.0542778685043457,0.5677154630507686,,,,,,,,,,,,,,,,,,,-3.0688324467276033e-06,-0.33522167468274,-0.00037138688275319175,-0.8032842661740514,1.9430000000000003,0.44410150868333403,,,,,,,,
30,240615_102256,FalseCHOICE,9.0,31,2.0,202.0,,,,,,,,,,,34.0,31.0,,,B,,,,,,False,cue1.png,Hard,cue2.png,Easy,Right,Easy,Mid,0.0166984000243246,,,,,,,,,,,,,14,34,Female,0.7142857142857143,1.75,0.2,1.75,1.1111111111111112,2.5,2.2222222222222223,2.6666666666666665,3.0,1.5555555555555556,2.0,1.75,2.0,2.75,0.738095238095238,0.6666666666666667,0.3306478470604976,0.30469222450508937,-1.1067013761166042,0.363881612437529,,,,,,,,,,,,,,,,,,,0.0014895841303253152,1.0451104303613057,-3.703698262413251e-05,0.17742672585844163,,,,,,,,,,
31,240615_102322,FalseCHOICE,9.0,32,2.0,202.0,,,,,,,,,,,35.0,32.0,,,B,,,,,,False,cue2.png,Easy,cue1.png,Hard,Right,Hard,Mid,0.0168605999788269,,,,,,,,,,,,,14,34,Female,0.7142857142857143,1.75,0.2,1.75,1.1111111111111112,2.5,2.2222222222222223,2.6666666666666665,3.0,1.5555555555555556,2.0,1.75,2.0,2.75,0.0321428571428571,0.5476190476190476,0.3204455526337321,0.15447579401148628,-1.138042899631151,0.2420190413690951,,,,,,,,,,,,,,,,,,,-1.751873910567185e-05,-0.3485842382348123,-0.0004009029681386407,-0.8898604827905539,1.6380000000000001,-0.16989322825317052,,,,,,,,
32,240615_102350,FalseCHOICE,9.0,33,2.0,202.0,,,,,,,,,,,36.0,33.0,,,B,,,,,,False,cue1.png,Hard,cue2.png,Easy,Right,Easy,Mid,0.0165399000397883,,,,,,,,,,,,,14,34,Female,0.7142857142857143,1.75,0.2,1.75,1.1111111111111112,2.5,2.2222222222222223,2.6666666666666665,3.0,1.5555555555555556,2.0,1.75,2.0,2.75,0.6333333333333333,0.6571428571428573,0.3735243944490018,0.9359974614617601,-0.984771963425603,0.8379693418516125,,,,,,,,,,,,,,,,,,,-0.0022076699826977632,-2.373928475530242,-0.0006335743580443524,-1.572329326130811,1.696,-0.05313357336032743,,,,,,,,
33,240615_102415,FalseCHOICE,9.0,34,2.0,202.0,,,,,,,,,,,37.0,34.0,,,B,,,,,,False,cue1.png,Hard,cue2.png,Easy,Right,Easy,Mid,0.0156742000253871,,,,,,,,,,,,,14,34,Female,0.7142857142857143,1.75,0.2,1.75,1.1111111111111112,2.5,2.2222222222222223,2.6666666666666665,3.0,1.5555555555555556,2.0,1.75,2.0,2.75,0.0833333333333333,0.6666666666666667,0.3172023857200873,0.1067240886711094,-1.148215268064081,0.20246668934265735,,,,,,,,,,,,,,,,,,,-0.00019297442144450587,-0.510837030668849,-0.0009604667637488884,-2.5311660877468216,1.956,0.47027177615931554,,,,,,,,
34,240615_102440,FalseCHOICE,9.0,35,2.0,202.0,,,,,,,,,,,38.0,35.0,,,B,,,,,,False,cue1.png,Hard,cue2.png,Easy,Right,Easy,Mid,0.0170813999720849,,,,,,,,,,,,,14,34,Female,0.7142857142857143,1.75,0.2,1.75,1.1111111111111112,2.5,2.2222222222222223,2.6666666666666665,3.0,1.5555555555555556,2.0,1.75,2.0,2.75,0.0964285714285714,0.5952380952380951,0.2781846100027906,-0.4677654083851399,-1.279470320926697,-0.30788113086262875,,,,,,,,,,,,,,,,,,,-4.1054698960427734e-05,-0.37034913725743185,-0.00011008374157721367,-0.036833124107065775,2.137,0.8346424233249132,,,,,,,,
35,240615_102506,FalseCHOICE,9.0,36,2.0,202.0,,,,,,,,,,,39.0,36.0,,,B,,,,,,False,cue2.png,Easy,cue1.png,Hard,Right,Hard,Mid,0.0165055000106804,,,,,,,,,,,,,14,34,Female,0.7142857142857143,1.75,0.2,1.75,1.1111111111111112,2.5,2.2222222222222223,2.6666666666666665,3.0,1.5555555555555556,2.0,1.75,2.0,2.75,0.0321428571428571,0.6428571428571428,0.3174940523902131,0.11101852718146173,-1.1472961934540986,0.20604024871108365,,,,,,,,,,,,,,,,,,,1.2168668249530265e-06,-0.331258470612667,-0.0005599318901360292,-1.3563221500251355,,,,,,,,,,
36,240615_102533,FalseCHOICE,9.0,37,2.0,202.0,,,,,,,,,,,40.0,37.0,,,B,,,,,,False,cue1.png,Hard,cue2.png,Easy,Right,Easy,Mid,0.0167904999689199,,,,,,,,,,,,,14,34,Female,0.7142857142857143,1.75,0.2,1.75,1.1111111111111112,2.5,2.2222222222222223,2.6666666666666665,3.0,1.5555555555555556,2.0,1.75,2.0,2.75,0.7959183673469388,0.7142857142857144,0.3476764333415,0.555417535938342,-1.056483020978373,0.559141356882695,,,,,,,,,,,,,,,,,,,0.0014148212864725073,0.9759734265109433,0.0006057650723375963,2.0628857637068343,1.0650000000000002,-1.3233980946945374,,,,,,,,
37,240615_102600,FalseCHOICE,9.0,38,2.0,202.0,,,,,,,,,,,41.0,38.0,,,B,,,,,,False,cue2.png,Easy,cue1.png,Hard,Right,Hard,Mid,0.0169897000305354,,,,,,,,,,,,,14,34,Female,0.7142857142857143,1.75,0.2,1.75,1.1111111111111112,2.5,2.2222222222222223,2.6666666666666665,3.0,1.5555555555555556,2.0,1.75,2.0,2.75,0.5666666666666667,0.5428571428571429,0.3606036529458566,0.7457551897977418,-1.0199758380760533,0.7010891204902105,,,,,,,,,,,,,,,,,,,0.00013065105576921376,-0.21156409358995826,-0.00012319390169777088,-0.07528768363459538,1.2029999999999998,-1.0455906399494967,,,,,,,,
38,240615_102628,FalseCHOICE,9.0,39,2.0,202.0,,,,,,,,,,,42.0,39.0,,,B,,,,,,False,cue2.png,Easy,cue1.png,Hard,Right,Hard,Mid,0.0165585000067949,,,,,,,,,,,,,14,34,Female,0.7142857142857143,1.75,0.2,1.75,1.1111111111111112,2.5,2.2222222222222223,2.6666666666666665,3.0,1.5555555555555556,2.0,1.75,2.0,2.75,0.8520408163265305,0.7142857142857144,0.3571619166727436,0.6950797911059495,-1.029566051921427,0.6638003104631264,,,,,,,,,,,,,,,,,,,,,,,0.5210000000000001,-2.4185231336894826,,,,,,,,
39,240615_102654,FalseCHOICE,9.0,40,2.0,202.0,,,,,,,,,,,43.0,40.0,,,B,,,,,,False,cue1.png,Hard,cue2.png,Easy,Right,Easy,Mid,0.0155001999810338,,,,,,,,,,,,,14,34,Female,0.7142857142857143,1.75,0.2,1.75,1.1111111111111112,2.5,2.2222222222222223,2.6666666666666665,3.0,1.5555555555555556,2.0,1.75,2.0,2.75,0.725,0.8,0.3119371000045378,0.029199132751016547,-1.1649537140467388,0.13738401835539515,,,,,,,,,,,,,,,,,,,,,,,2.7119999999999997,1.9921734847625847,,,,,,,,
40,240615_102721,FalseCHOICE,9.0,41,2.0,202.0,,,,,,,,,,,44.0,41.0,,,B,,,,,,False,cue1.png,Hard,cue2.png,Easy,Right,Easy,Mid,0.0168892999645322,,,,,,,,,,,,,14,34,Female,0.7142857142857143,1.75,0.2,1.75,1.1111111111111112,2.5,2.2222222222222223,2.6666666666666665,3.0,1.5555555555555556,2.0,1.75,2.0,2.75,0.06875,0.5904761904761906,0.3250357999996696,0.2220616277024671,-1.1238199488737517,0.2973209269545849,,,,,,,,,,,,,,,,,,,,,-0.0004173961144408136,-0.9382379755473856,2.338,1.2392750204535605,,,,,,,,
41,240615_102746,FalseCHOICE,9.0,42,2.0,202.0,,,,,,,,,,,45.0,42.0,,,B,,,,,,False,cue2.png,Easy,cue1.png,Hard,Right,Hard,Mid,0.0167045000125654,,,,,,,,,,,,,14,34,Female,0.7142857142857143,1.75,0.2,1.75,1.1111111111111112,2.5,2.2222222222222223,2.6666666666666665,3.0,1.5555555555555556,2.0,1.75,2.0,2.75,0.725,0.8,0.3322334809428347,0.32803876322578285,-1.1019173013822583,0.3824831219346771,,,,,,,,,,,,,,,,,,,-0.00039733411202745594,-0.6998188294686503,-0.00033284381765643105,-0.6902302243082501,,,,,,,,,,
42,240615_102815,FalseCHOICE,9.0,43,2.0,202.0,,,,,,,,,,,46.0,43.0,,,B,,,,,,False,cue1.png,Hard,cue2.png,Easy,Right,Easy,Mid,0.0167867999989539,,,,,,,,,,,,,14,34,Female,0.7142857142857143,1.75,0.2,1.75,1.1111111111111112,2.5,2.2222222222222223,2.6666666666666665,3.0,1.5555555555555556,2.0,1.75,2.0,2.75,0.738095238095238,0.7142857142857144,0.4173532444433981,1.581324201055286,-0.8738223068006732,1.2693654228110616,,,,,,,,,,,,,,,,,,,,,0.00022780545292314233,0.9542592824035823,1.497,-0.4537399754926692,,,,,,,,
43,240615_102842,FalseCHOICE,9.0,44,2.0,202.0,,,,,,,,,,,47.0,44.0,,,B,,,,,,False,cue2.png,Easy,cue1.png,Hard,Right,Hard,Mid,0.0174675000016577,,,,,,,,,,,,,14,34,Female,0.7142857142857143,1.75,0.2,1.75,1.1111111111111112,2.5,2.2222222222222223,2.6666666666666665,3.0,1.5555555555555556,2.0,1.75,2.0,2.75,0.8250000000000001,0.6952380952380952,0.3393925999953353,0.4334481216073684,-1.0805977296155342,0.4653781933362042,,,,,,,,,,,,,,,,,,,0.000189616951945395,-0.1570353306258458,0.00017858763139445106,0.8098941769902133,1.025,-1.403921994620637,,,,,,,,
44,240615_102909,FalseCHOICE,9.0,45,2.0,202.0,,,,,,,,,,,48.0,45.0,,,B,,,,,,False,cue1.png,Hard,cue2.png,Easy,Left,Hard,Mid,0.0163513000006787,,,,,,,,,,,,,14,34,Female,0.7142857142857143,1.75,0.2,1.75,1.1111111111111112,2.5,2.2222222222222223,2.6666666666666665,3.0,1.5555555555555556,2.0,1.75,2.0,2.75,0.8777777777777778,0.7904761904761906,0.2614967333340448,-0.7134741833759848,-1.341333487585607,-0.5484184021280404,,,,,,,,,,,,,,,,,,,,,0.0006131224971985031,2.0844664713169134,1.4240000000000002,-0.6006960928577997,,,,,,,,
45,240615_102938,FalseCHOICE,9.0,46,2.0,202.0,,,,,,,,,,,49.0,46.0,,,B,,,,,,False,cue1.png,Hard,cue2.png,Easy,Left,Hard,Mid,0.0142042000079527,,,,,,,,,,,,,14,34,Female,0.7142857142857143,1.75,0.2,1.75,1.1111111111111112,2.5,2.2222222222222223,2.6666666666666665,3.0,1.5555555555555556,2.0,1.75,2.0,2.75,0.7000000000000001,0.6761904761904762,0.4078859882326522,1.441930318164032,-0.8967675842350212,1.1801492588064504,,,,,,,,,,,,,,,,,,,5.8925555193265096e-05,-0.2778923116450596,-0.00011211240680154399,-0.04278357985383539,,,,,,,,,,
46,240615_103004,FalseCHOICE,9.0,47,2.0,202.0,,,,,,,,,,,50.0,47.0,,,B,,,,,,False,cue2.png,Easy,cue1.png,Hard,Left,Easy,Mid,0.0160986999981105,,,,,,,,,,,,,14,34,Female,0.7142857142857143,1.75,0.2,1.75,1.1111111111111112,2.5,2.2222222222222223,2.6666666666666665,3.0,1.5555555555555556,2.0,1.75,2.0,2.75,0.0952380952380952,0.4285714285714285,0.2841795055493195,-0.3794978312586615,-1.2581491786944778,-0.22497995315414657,,,,,,,,,,,,,,,,,,,0.0006346651281578502,0.2545233512907421,-0.00025674697139927566,-0.4670238959839643,1.716,-0.012871623397277937,,,,,,,,
47,240615_103028,FalseCHOICE,9.0,48,2.0,202.0,,,,,,,,,,,51.0,48.0,,,B,,,,,,False,cue2.png,Easy,cue1.png,Hard,Right,Hard,Mid,0.0163619999657385,,,,,,,,,,,,,14,34,Female,0.7142857142857143,1.75,0.2,1.75,1.1111111111111112,2.5,2.2222222222222223,2.6666666666666665,3.0,1.5555555555555556,2.0,1.75,2.0,2.75,0.725,0.8,0.2451641428550439,-0.9539517994730867,-1.4058273219307664,-0.799184274046008,,,,,,,,,,,,,,,,,,,2.246465628158445e-06,-0.3303063482380596,-0.0006076712267075878,-1.4963505816472005,1.6349999999999998,-0.1759325207476286,,,,,,,,
48,240615_103052,FalseCHOICE,9.0,49,2.0,202.0,,,,,,,,,,,52.0,49.0,,,B,,,,,,False,cue1.png,Hard,cue2.png,Easy,Left,Hard,Mid,0.0160496999742463,,,,,,,,,,,,,14,34,Female,0.7142857142857143,1.75,0.2,1.75,1.1111111111111112,2.5,2.2222222222222223,2.6666666666666665,3.0,1.5555555555555556,2.0,1.75,2.0,2.75,0.0833333333333333,0.6666666666666667,0.2045309952421424,-1.5522256914827726,-1.5870357490079963,-1.5037615359857086,,,,,,,,,,,,,,,,,,,0.00015111753128530924,-0.19263770283701342,0.00024389265254232476,1.0014460573703559,2.7590000000000003,2.086789067175752,,,,,,,,
49,240615_103116,FalseCHOICE,9.0,50,2.0,202.0,,,,,,,,,,,53.0,50.0,,,B,,,,,,False,cue2.png,Easy,cue1.png,Hard,Right,Hard,Mid,0.0168683999800123,,,,,,,,,,,,,14,34,Female,0.7142857142857143,1.75,0.2,1.75,1.1111111111111112,2.5,2.2222222222222223,2.6666666666666665,3.0,1.5555555555555556,2.0,1.75,2.0,2.75,0.8903061224489796,0.7857142857142858,0.2027158333415476,-1.578951752314736,-1.5959501163816505,-1.5384225098562951,,,,,,,,,,,,,,,,,,,,,8.763497226092374e-05,0.5431129620641607,0.8520000000000003,-1.7521878618010138,,,,,,,,
0,240615_093714,OFFLINERATING,9.0,1,1.0,,,,,,,,,,,,,,,,,T0,cue2.png,Easy,22.0,0.9818556000245736,,,,,,,,,,,,,,,,,,,,,,14,34,Female,0.7142857142857143,1.75,0.2,1.75,1.1111111111111112,2.5,2.2222222222222223,2.6666666666666665,3.0,1.5555555555555556,2.0,1.75,2.0,2.75,,,,,,,,,,,,,,,,,,,,,,,,,,,,,,,-0.23921402184625717,,,0.00012847396622125713,1.3573477217687098,1.5230000000000001,0.5448199789470126,
1,240615_093721,OFFLINERATING,9.0,2,3.0,,,,,,,,,,,,,,,,,T0,cue1.png,Hard,42.0,1.0850965999998152,,,,,,,,,,,,,,,,,,,,,,14,34,Female,0.7142857142857143,1.75,0.2,1.75,1.1111111111111112,2.5,2.2222222222222223,2.6666666666666665,3.0,1.5555555555555556,2.0,1.75,2.0,2.75,,,,,,,,,,,,,,,,,,,,,,,,,,,,,,,0.33204334375674505,,,-6.657428110951524e-05,-1.0224839416803804,,,
2,240615_100227,OFFLINERATING,9.0,3,1.0,,,,,,,,,,,,,,,,,T1,cue2.png,Easy,78.0,1.7849591000122018,,,,,,,,,,,,,,,,,,,,,,14,34,Female,0.7142857142857143,1.75,0.2,1.75,1.1111111111111112,2.5,2.2222222222222223,2.6666666666666665,3.0,1.5555555555555556,2.0,1.75,2.0,2.75,,,,,,,,,,,,,,,,,,,,,,,,,,,,,,,1.360306601842149,-6.50917315010496e-05,-0.9048398965121501,,,,,
3,240615_100235,OFFLINERATING,9.0,4,3.0,,,,,,,,,,,,,,,,,T1,cue1.png,Hard,1.0,1.4632821999839507,,,,,,,,,,,,,,,,,,,,,,14,34,Female,0.7142857142857143,1.75,0.2,1.75,1.1111111111111112,2.5,2.2222222222222223,2.6666666666666665,3.0,1.5555555555555556,2.0,1.75,2.0,2.75,,,,,,,,,,,,,,,,,,,,,,,,,,,,,,,-0.8390342557294095,-2.66822167404499e-05,-0.488828462770425,,,1.131,-1.4026216479274136,
4,240615_100805,OFFLINERATING,9.0,5,1.0,,,,,,,,,,,,,,,,,T2,cue2.png,Easy,94.0,2.335859800048638,,,,,,,,,,,,,,,,,,,,,,14,34,Female,0.7142857142857143,1.75,0.2,1.75,1.1111111111111112,2.5,2.2222222222222223,2.6666666666666665,3.0,1.5555555555555556,2.0,1.75,2.0,2.75,,,,,,,,,,,,,,,,,,,,,,,,,,,,,,,1.8173124943245507,,,,,1.586,0.8578016689804021,
5,240615_100812,OFFLINERATING,9.0,6,3.0,,,,,,,,,,,,,,,,,T2,cue1.png,Hard,4.0,0.8182147000334226,,,,,,,,,,,,,,,,,,,,,,14,34,Female,0.7142857142857143,1.75,0.2,1.75,1.1111111111111112,2.5,2.2222222222222223,2.6666666666666665,3.0,1.5555555555555556,2.0,1.75,2.0,2.75,,,,,,,,,,,,,,,,,,,,,,,,,,,,,,,-0.7533456508889591,,,-1.0217728918150096e-05,-0.33486378008832957,,,
6,240615_103131,OFFLINERATING,9.0,7,1.0,,,,,,,,,,,,,,,,,T3,cue2.png,Easy,1.0,1.2492138000088744,,,,,,,,,,,,,,,,,,,,,,14,34,Female,0.7142857142857143,1.75,0.2,1.75,1.1111111111111112,2.5,2.2222222222222223,2.6666666666666665,3.0,1.5555555555555556,2.0,1.75,2.0,2.75,,,,,,,,,,,,,,,,,,,,,,,,,,,,,,,-0.8390342557294095,0.0001471250001023371,1.3936683592825752,,,,,
7,240615_103138,OFFLINERATING,9.0,8,3.0,,,,,,,,,,,,,,,,,T3,cue1.png,Hard,1.0,1.068356000003405,,,,,,,,,,,,,,,,,,,,,,14,34,Female,0.7142857142857143,1.75,0.2,1.75,1.1111111111111112,2.5,2.2222222222222223,2.6666666666666665,3.0,1.5555555555555556,2.0,1.75,2.0,2.75,,,,,,,,,,,,,,,,,,,,,,,,,,,,,,,-0.8390342557294095,,,,,,,
0,240615_100841,LEARNINGCHECK,9.0,1,,,,,,,,,,,,1.0,2.0,1.0,,,B,,,,,,,,,,,,,,,cue2.png,Easy,Left,Left,Easy,0.014590400038287,1.0,,,,,,14,34,Female,0.7142857142857143,1.75,0.2,1.75,1.1111111111111112,2.5,2.2222222222222223,2.6666666666666665,3.0,1.5555555555555556,2.0,1.75,2.0,2.75,,,,,,,,,,,,,,,,,,,,,,,,,,,,,,,,,,,,,,
1,240615_103153,LEARNINGCHECK,9.0,1,,,,,,,,,,,,1.0,1.0,1.0,,,B,,,,,,,,,,,,,,,cue2.png,Easy,Middle,Middle,Mid,0.0144953000126406,1.0,,,,,,14,34,Female,0.7142857142857143,1.75,0.2,1.75,1.1111111111111112,2.5,2.2222222222222223,2.6666666666666665,3.0,1.5555555555555556,2.0,1.75,2.0,2.75,,,,,,,,,,,,,,,,,,,,,,,,,,,,,,,,,,,,,,
2,240615_100849,LEARNINGCHECK,9.0,2,,,,,,,,,,,,2.0,3.0,2.0,,,B,,,,,,,,,,,,,,,cue1.png,Hard,Right,Right,Hard,0.0143242999911308,1.0,,,,,,14,34,Female,0.7142857142857143,1.75,0.2,1.75,1.1111111111111112,2.5,2.2222222222222223,2.6666666666666665,3.0,1.5555555555555556,2.0,1.75,2.0,2.75,,,,,,,,,,,,,,,,,,,,,,,,,,,,,,,,,,,,,,
3,240615_103158,LEARNINGCHECK,9.0,2,,,,,,,,,,,,2.0,2.0,2.0,,,B,,,,,,,,,,,,,,,cue1.png,Hard,Middle,Middle,Mid,0.0152479000389575,1.0,,,,,,14,34,Female,0.7142857142857143,1.75,0.2,1.75,1.1111111111111112,2.5,2.2222222222222223,2.6666666666666665,3.0,1.5555555555555556,2.0,1.75,2.0,2.75,,,,,,,,,,,,,,,,,,,,,,,,,,,,,,,,,,,,,,
0,240615_103210,DEMANDRATING,9.0,-1,,,,,,,,,,,,,,,,,,,,,,,,,,,,,,,,,,,,,,,1.0,MentalDemand,1.0,1.0,4.93463559995871,14,34,Female,0.7142857142857143,1.75,0.2,1.75,1.1111111111111112,2.5,2.2222222222222223,2.6666666666666665,3.0,1.5555555555555556,2.0,1.75,2.0,2.75,,,,,,,,,,,,,,,,,,,,,,,,,,,,,,,,,,,,,,-1.8863413130894848
1,240615_103215,DEMANDRATING,9.0,-1,,,,,,,,,,,,,,,,,,,,,,,,,,,,,,,,,,,,,,,2.0,Effort,1.0,92.0,3.224977499980014,14,34,Female,0.7142857142857143,1.75,0.2,1.75,1.1111111111111112,2.5,2.2222222222222223,2.6666666666666665,3.0,1.5555555555555556,2.0,1.75,2.0,2.75,,,,,,,,,,,,,,,,,,,,,,,,,,,,,,,,,,,,,,0.44384501484458455
2,240615_103221,DEMANDRATING,9.0,-1,,,,,,,,,,,,,,,,,,,,,,,,,,,,,,,,,,,,,,,3.0,Frustration,1.0,3.0,4.888497000036296,14,34,Female,0.7142857142857143,1.75,0.2,1.75,1.1111111111111112,2.5,2.2222222222222223,2.6666666666666665,3.0,1.5555555555555556,2.0,1.75,2.0,2.75,,,,,,,,,,,,,,,,,,,,,,,,,,,,,,,,,,,,,,-1.8351284267612635
3,240615_103226,DEMANDRATING,9.0,-1,,,,,,,,,,,,,,,,,,,,,,,,,,,,,,,,,,,,,,,4.0,MentalDemand,2.0,86.0,3.723155100014992,14,34,Female,0.7142857142857143,1.75,0.2,1.75,1.1111111111111112,2.5,2.2222222222222223,2.6666666666666665,3.0,1.5555555555555556,2.0,1.75,2.0,2.75,,,,,,,,,,,,,,,,,,,,,,,,,,,,,,,,,,,,,,0.2902063558599206
4,240615_103233,DEMANDRATING,9.0,-1,,,,,,,,,,,,,,,,,,,,,,,,,,,,,,,,,,,,,,,5.0,Effort,2.0,95.0,5.483276999962982,14,34,Female,0.7142857142857143,1.75,0.2,1.75,1.1111111111111112,2.5,2.2222222222222223,2.6666666666666665,3.0,1.5555555555555556,2.0,1.75,2.0,2.75,,,,,,,,,,,,,,,,,,,,,,,,,,,,,,,,,,,,,,0.5206643443369166
5,240615_103239,DEMANDRATING,9.0,-1,,,,,,,,,,,,,,,,,,,,,,,,,,,,,,,,,,,,,,,6.0,Frustration,2.0,98.0,4.321835500013549,14,34,Female,0.7142857142857143,1.75,0.2,1.75,1.1111111111111112,2.5,2.2222222222222223,2.6666666666666665,3.0,1.5555555555555556,2.0,1.75,2.0,2.75,,,,,,,,,,,,,,,,,,,,,,,,,,,,,,,,,,,,,,0.5974836738292485
6,240615_103243,DEMANDRATING,9.0,-1,,,,,,,,,,,,,,,,,,,,,,,,,,,,,,,,,,,,,,,7.0,MentalDemand,3.0,99.0,2.768684700015001,14,34,Female,0.7142857142857143,1.75,0.2,1.75,1.1111111111111112,2.5,2.2222222222222223,2.6666666666666665,3.0,1.5555555555555556,2.0,1.75,2.0,2.75,,,,,,,,,,,,,,,,,,,,,,,,,,,,,,,,,,,,,,0.6230901169933591
7,240615_103249,DEMANDRATING,9.0,-1,,,,,,,,,,,,,,,,,,,,,,,,,,,,,,,,,,,,,,,8.0,Effort,3.0,99.0,3.601622699992731,14,34,Female,0.7142857142857143,1.75,0.2,1.75,1.1111111111111112,2.5,2.2222222222222223,2.6666666666666665,3.0,1.5555555555555556,2.0,1.75,2.0,2.75,,,,,,,,,,,,,,,,,,,,,,,,,,,,,,,,,,,,,,0.6230901169933591
8,240615_103253,DEMANDRATING,9.0,-1,,,,,,,,,,,,,,,,,,,,,,,,,,,,,,,,,,,,,,,9.0,Frustration,3.0,99.0,2.4341111999819987,14,34,Female,0.7142857142857143,1.75,0.2,1.75,1.1111111111111112,2.5,2.2222222222222223,2.6666666666666665,3.0,1.5555555555555556,2.0,1.75,2.0,2.75,,,,,,,,,,,,,,,,,,,,,,,,,,,,,,,,,,,,,,0.6230901169933591
