,END,Phase,Block,TrialN,NbackLevel,ISI,Letter_Resp,Letter_RT,Letter_Accuracy,Trial_A_measure,Trial_ACC,Trial_RT,TrialCountCali,CaliEnd_A_measure,ISI_calibrated,TrialIndex,TrialNumber_total,TrialNumber_valid,CueLearning,TrialDemandLearning,CueMapping,OfflineRatingTimePoint,CueFigure,TrialDemand,OfflineRating,OfflineRatingRT,PhaseType,CueLeft,CueDemandLeft,CueRight,CueDemandRight,Choice,ChoiceDemand,TaskDemand,ChoiceRT,CueCheck,CueDemandCheck,CorrectAnswer,Answer,AnswerDemand,AnswerRT,AnswerACC,DemandRatingQuesIndex,QuesTLX,DemandLevel,DemandRating,DemandRatingRT,PID,Age,Gender,BAI_bis,BAI_bas_d,BAI_bas_rr,BAI_bas_fs,NFC,BFI_ext,BFI_agr,BFI_con,BFI_neu,BFI_open,UPPS_lps,UPPS_lpm,UPPS_pu,UPPS_ss,Task_A_measure,Task_ACC,Task_RT,Task_RT_z,cue_i_on_zyg_values,cue_i_on_zyg_zvalues,cue_e_on_zyg_values,cue_e_on_zyg_zvalues,cue_i_on_cor_values,cue_i_on_cor_zvalues,cue_e_on_cor_values,cue_e_on_cor_zvalues,cue_i_on_scr_values,cue_i_on_scr_zvalues,cue_e_on_scr_values,cue_e_on_scr_zvalues,cue_e_true_zyg_values,cue_e_true_zyg_zvalues,cue_e_true_cor_values,cue_e_true_cor_zvalues,cue_e_true_scr_values,cue_e_true_scr_zvalues,cue_e_false_zyg_values,cue_e_false_zyg_zvalues,cue_e_false_cor_values,cue_e_false_cor_zvalues,cue_e_false_scr_values,cue_e_false_scr_zvalues,OfflineRating_z,cue_i_off_zyg_values,cue_i_off_zyg_zvalues,cue_i_off_cor_values,cue_i_off_cor_zvalues,cue_i_off_scr_values,cue_i_off_scr_zvalues,DemandRating_z
0,240617_145553,PRACTICE,0.0,1,1.0,1250.0,,,,,,,,,,15.0,1.0,1.0,cue2.png,Easy,B,,,,,,,,,,,,,,,,,,,,,,,,,,,16,28,Female,1.2857142857142858,0.5,0.4,1.25,2.611111111111111,2.0,2.3333333333333335,2.3333333333333335,2.0,2.2222222222222223,1.75,2.0,1.75,1.25,,,,,,,,,,,,,,,,,,,,,,,,,,,,,,,,,,,,
0,240617_150117,LEARNING,1.0,1,1.0,1250.0,,,,,,,,,,1.0,1.0,1.0,cue2.png,Easy,B,,,,,,,,,,,,,,,,,,,,,,,,,,,16,28,Female,1.2857142857142858,0.5,0.4,1.25,2.611111111111111,2.0,2.3333333333333335,2.3333333333333335,2.0,2.2222222222222223,1.75,2.0,1.75,1.25,0.8333333333333333,0.8571428571428572,0.5816300700011198,1.4555300351967384,,,,,,,,,1.202,-0.6736623714509208,1.61,0.08985796385982624,,,,,,,,,,,,,,,,,,,,
1,240617_150139,LEARNING,1.0,2,3.0,1250.0,,,,,,,,,,2.0,2.0,2.0,cue1.png,Hard,B,,,,,,,,,,,,,,,,,,,,,,,,,,,16,28,Female,1.2857142857142858,0.5,0.4,1.25,2.611111111111111,2.0,2.3333333333333335,2.3333333333333335,2.0,2.2222222222222223,1.75,2.0,1.75,1.25,0.1428571428571428,0.5714285714285714,0.5115817599929869,0.3851496215219778,4.676045059112026e-05,0.38013991568110633,0.0017376191557264688,1.4525228712223257,,,0.00021495294793398524,-0.1729498021611699,1.9700000000000002,0.76407133049648,1.5869999999999997,0.055284360664688316,,,,,,,,,,,,,,,,,,,,
2,240617_150202,LEARNING,1.0,3,1.0,1250.0,,,,,,,,,,3.0,3.0,3.0,cue2.png,Easy,B,,,,,,,,,,,,,,,,,,,,,,,,,,,16,28,Female,1.2857142857142858,0.5,0.4,1.25,2.611111111111111,2.0,2.3333333333333335,2.3333333333333335,2.0,2.2222222222222223,1.75,2.0,1.75,1.25,0.6904761904761906,0.7571428571428572,0.5222902666686827,0.5487820603922288,-0.00029011140520813355,0.13311121359629066,0.00011042500573597673,-0.02758678826489528,0.00017905796936704436,0.29026802716429423,0.00018387740878754097,-0.25516416505283807,1.591,0.054564724978166126,,,,,,,,,,,,,,,,,,,,,,
3,240617_150222,LEARNING,1.0,4,3.0,1250.0,,,,,,,,,,4.0,4.0,4.0,cue1.png,Hard,B,,,,,,,,,,,,,,,,,,,,,,,,,,,16,28,Female,1.2857142857142858,0.5,0.4,1.25,2.611111111111111,2.0,2.3333333333333335,2.3333333333333335,2.0,2.2222222222222223,1.75,2.0,1.75,1.25,0.5476190476190476,0.7142857142857143,0.3946698199899401,-1.401335315651394,-0.0007627829788005146,-0.2134996514161137,0.00013151589189072492,-0.008402338563567082,0.00011326779356760205,0.10422635247640391,0.00021816928401246789,-0.16444056857098796,,,1.456,-0.14163485753370256,,,,,,,,,,,,,,,,,,,,
4,240617_150243,LEARNING,1.0,5,3.0,1250.0,,,,,,,,,,5.0,5.0,5.0,cue1.png,Hard,B,,,,,,,,,,,,,,,,,,,,,,,,,,,16,28,Female,1.2857142857142858,0.5,0.4,1.25,2.611111111111111,2.0,2.3333333333333335,2.3333333333333335,2.0,2.2222222222222223,1.75,2.0,1.75,1.25,0.1428571428571428,0.5714285714285714,0.4886438699963037,0.034644831604485934,3.335468648558819e-05,0.37030944617041434,,,,,,,,,,,,,,,,,,,,,,,,,,,,,,
5,240617_150306,LEARNING,1.0,6,1.0,1250.0,,,,,,,,,,6.0,6.0,6.0,cue2.png,Easy,B,,,,,,,,,,,,,,,,,,,,,,,,,,,16,28,Female,1.2857142857142858,0.5,0.4,1.25,2.611111111111111,2.0,2.3333333333333335,2.3333333333333335,2.0,2.2222222222222223,1.75,2.0,1.75,1.25,1.0,1.0,0.6046830300008879,1.8077931641446683,,,,,0.0002392635824447673,0.46051765708982595,0.00042295500838609697,0.37734658367583385,,,2.0469999999999997,0.7467564245674361,,,,,,,,,,,,,,,,,,,,
6,240617_150327,LEARNING,1.0,7,3.0,1250.0,,,,,,,,,,7.0,7.0,7.0,cue1.png,Hard,B,,,,,,,,,,,,,,,,,,,,,,,,,,,16,28,Female,1.2857142857142858,0.5,0.4,1.25,2.611111111111111,2.0,2.3333333333333335,2.3333333333333335,2.0,2.2222222222222223,1.75,2.0,1.75,1.25,0.8333333333333333,0.8571428571428572,0.4334041800058912,-0.8094509391048771,,,-0.0005490063207983596,-0.627411140004143,-0.00018603403022405185,-0.7421403255073195,0.000576589932604898,0.7838076704178706,,,,,,,,,,,,,,,,,,,,,,,,
7,240617_150349,LEARNING,1.0,8,3.0,1250.0,,,,,,,,,,8.0,8.0,8.0,cue1.png,Hard,B,,,,,,,,,,,,,,,,,,,,,,,,,,,16,28,Female,1.2857142857142858,0.5,0.4,1.25,2.611111111111111,2.0,2.3333333333333335,2.3333333333333335,2.0,2.2222222222222223,1.75,2.0,1.75,1.25,0.5476190476190476,0.6142857142857143,0.4406063777730903,-0.6993970145415727,-0.005634628669746435,-3.7860323432211693,,,,,,,,,,,,,,,,,,,,,,,,,,,,,,
8,240617_150411,LEARNING,1.0,9,1.0,1250.0,,,,,,,,,,9.0,9.0,9.0,cue2.png,Easy,B,,,,,,,,,,,,,,,,,,,,,,,,,,,16,28,Female,1.2857142857142858,0.5,0.4,1.25,2.611111111111111,2.0,2.3333333333333335,2.3333333333333335,2.0,2.2222222222222223,1.75,2.0,1.75,1.25,1.0,1.0,0.6194299599970691,2.0331351463839615,0.0004032610370573323,0.6415623991898014,-0.0003469968481768695,-0.4436616029641199,3.163974916810643e-05,-0.1266016989316661,-0.00028928467168864123,-1.5069757203576357,2.746,2.2167814251724987,2.902,2.031992543343196,,,,,,,,,,,,,,,,,,,,
9,240617_150433,LEARNING,1.0,10,1.0,1250.0,,,,,,,,,,10.0,10.0,10.0,cue2.png,Easy,B,,,,,,,,,,,,,,,,,,,,,,,,,,,16,28,Female,1.2857142857142858,0.5,0.4,1.25,2.611111111111111,2.0,2.3333333333333335,2.3333333333333335,2.0,2.2222222222222223,1.75,2.0,1.75,1.25,0.8333333333333333,0.8571428571428572,0.5230363699898589,0.560182969014749,-0.00010115202540714446,0.27167544665827226,0.00016167521714206346,0.019030840586188258,,,,,,,,,,,,,,,,,,,,,,,,,,,,
10,240617_150455,LEARNING,1.0,11,3.0,1250.0,,,,,,,,,,11.0,11.0,11.0,cue1.png,Hard,B,,,,,,,,,,,,,,,,,,,,,,,,,,,16,28,Female,1.2857142857142858,0.5,0.4,1.25,2.611111111111111,2.0,2.3333333333333335,2.3333333333333335,2.0,2.2222222222222223,1.75,2.0,1.75,1.25,0.1428571428571428,0.5714285714285714,0.5695259099942632,1.2705711718948205,8.039311338657162e-05,0.40480280423944165,-0.0010114859652061835,-1.0480865640205304,0.0005605990660853453,1.3691911905878633,0.0006044392925286324,0.8574867584066808,1.871,0.5787384704798225,,,,,,,,,,,,,,,,,,,,,,
11,240617_150516,LEARNING,1.0,12,1.0,1250.0,,,,,,,,,,12.0,12.0,12.0,cue2.png,Easy,B,,,,,,,,,,,,,,,,,,,,,,,,,,,16,28,Female,1.2857142857142858,0.5,0.4,1.25,2.611111111111111,2.0,2.3333333333333335,2.3333333333333335,2.0,2.2222222222222223,1.75,2.0,1.75,1.25,0.8333333333333333,0.8571428571428572,0.4768648699915502,-0.14534539080486616,-0.0004751001928213856,-0.002541377493352068,8.39206664138138e-05,-0.05169536107981694,0.0004754401203207535,1.1283784447305378,0.0006102062749890891,0.8727440572924547,1.452,-0.20565009868158474,2.958,2.116171751122661,,,,,,,,,,,,,,,,,,,,
12,240617_150538,LEARNING,1.0,13,1.0,1250.0,,,,,,,,,,13.0,13.0,13.0,cue2.png,Easy,B,,,,,,,,,,,,,,,,,,,,,,,,,,,16,28,Female,1.2857142857142858,0.5,0.4,1.25,2.611111111111111,2.0,2.3333333333333335,2.3333333333333335,2.0,2.2222222222222223,1.75,2.0,1.75,1.25,0.8333333333333333,0.8571428571428572,0.5021181100048124,0.2405393434433307,0.0003464452275806426,0.5998992699277104,-0.000202507383495218,-0.31223275510924053,,,,,,,,,,,,,,,,,,,,,,,,,,,,
13,240617_150600,LEARNING,1.0,14,1.0,1250.0,,,,,,,,,,14.0,14.0,14.0,cue2.png,Easy,B,,,,,,,,,,,,,,,,,,,,,,,,,,,16,28,Female,1.2857142857142858,0.5,0.4,1.25,2.611111111111111,2.0,2.3333333333333335,2.3333333333333335,2.0,2.2222222222222223,1.75,2.0,1.75,1.25,0.8333333333333333,0.8571428571428572,0.6065023899951484,1.8355940818692187,,,2.392687230971975e-05,-0.10626622723200656,0.0006587156770283078,1.646645664492517,0.0004749991649070102,0.515036139130923,,,1.377,-0.26038766850830486,,,,,,,,,,,,,,,,,,,,
14,240617_150620,LEARNING,1.0,15,3.0,1250.0,,,,,,,,,,15.0,15.0,15.0,cue1.png,Hard,B,,,,,,,,,,,,,,,,,,,,,,,,,,,16,28,Female,1.2857142857142858,0.5,0.4,1.25,2.611111111111111,2.0,2.3333333333333335,2.3333333333333335,2.0,2.2222222222222223,1.75,2.0,1.75,1.25,0.5476190476190476,0.7142857142857143,0.3886805600021034,-1.4928548195857794,0.00011218937923723575,0.42811905980967235,-0.00021682062974204969,-0.3252522058174911,0.0002866192577632219,0.5944301909167377,0.000311497570324368,0.08247149827184959,,,,,,,,,,,,,,,,,,,,,,,,
15,240617_150643,LEARNING,1.0,16,1.0,1250.0,,,,,,,,,,16.0,16.0,16.0,cue2.png,Easy,B,,,,,,,,,,,,,,,,,,,,,,,,,,,16,28,Female,1.2857142857142858,0.5,0.4,1.25,2.611111111111111,2.0,2.3333333333333335,2.3333333333333335,2.0,2.2222222222222223,1.75,2.0,1.75,1.25,0.1428571428571428,0.4714285714285714,0.4884241666618941,0.03128763218106235,0.00021774856006204907,0.5055257857898596,,,-0.00023267650798014603,-0.8740360769305888,0.00039200322171554754,0.29545962398428444,,,,,,,,,,,,,,,,,,,,,,,,
16,240617_150706,LEARNING,1.0,17,1.0,1250.0,,,,,,,,,,17.0,17.0,17.0,cue2.png,Easy,B,,,,,,,,,,,,,,,,,,,,,,,,,,,16,28,Female,1.2857142857142858,0.5,0.4,1.25,2.611111111111111,2.0,2.3333333333333335,2.3333333333333335,2.0,2.2222222222222223,1.75,2.0,1.75,1.25,0.9166666666666666,0.9,0.523647311117707,0.5695185178250065,,,,,,,,,,,,,,,,,,,,,,,,,,,,,,,,
17,240617_150727,LEARNING,1.0,18,3.0,1250.0,,,,,,,,,,18.0,18.0,18.0,cue1.png,Hard,B,,,,,,,,,,,,,,,,,,,,,,,,,,,16,28,Female,1.2857142857142858,0.5,0.4,1.25,2.611111111111111,2.0,2.3333333333333335,2.3333333333333335,2.0,2.2222222222222223,1.75,2.0,1.75,1.25,0.8333333333333333,0.8571428571428572,0.5174281800049357,0.47448644449714433,0.0003031439743119749,0.5681463876092209,9.904840413162228e-05,-0.03793504199161943,-0.00015357793073731297,-0.650360861035956,0.000279755813160169,-0.0015054306566792371,1.799,0.44395093592225365,1.6380000000000003,0.1319475677495591,,,,,,,,,,,,,,,,,,,,
18,240617_150748,LEARNING,1.0,19,3.0,1250.0,,,,,,,,,,19.0,19.0,19.0,cue1.png,Hard,B,,,,,,,,,,,,,,,,,,,,,,,,,,,16,28,Female,1.2857142857142858,0.5,0.4,1.25,2.611111111111111,2.0,2.3333333333333335,2.3333333333333335,2.0,2.2222222222222223,1.75,2.0,1.75,1.25,0.1428571428571428,0.5714285714285714,0.3969743400055449,-1.366120860265698,,,-3.5042293684609503e-06,-0.13121779098024683,-0.00015272038424648474,-0.6479358882594315,-4.000624774033561e-05,-0.8474773698714434,,,,,,,,,,,,,,,,,,,,,,,,
19,240617_150808,LEARNING,1.0,20,3.0,1250.0,,,,,,,,,,20.0,20.0,20.0,cue1.png,Hard,B,,,,,,,,,,,,,,,,,,,,,,,,,,,16,28,Female,1.2857142857142858,0.5,0.4,1.25,2.611111111111111,2.0,2.3333333333333335,2.3333333333333335,2.0,2.2222222222222223,1.75,2.0,1.75,1.25,0.1428571428571428,0.5714285714285714,0.4145365900069009,-1.097759090805043,,,,,-9.611602109095563e-05,-0.4878698846634141,0.0005699114014645784,0.7661387514599072,0.7699999999999998,-1.4823875787963339,0.7589999999999999,-1.1893653543602574,,,,,,,,,,,,,,,,,,,,
20,240617_150829,LEARNING,1.0,21,1.0,1250.0,,,,,,,,,,21.0,21.0,21.0,cue2.png,Easy,B,,,,,,,,,,,,,,,,,,,,,,,,,,,16,28,Female,1.2857142857142858,0.5,0.4,1.25,2.611111111111111,2.0,2.3333333333333335,2.3333333333333335,2.0,2.2222222222222223,1.75,2.0,1.75,1.25,0.5476190476190476,0.7142857142857143,0.3972098799946252,-1.3625216672099414,-3.011966716275462e-05,0.3237635951962486,-0.00014285890845240536,-0.25797599411666616,-5.124570379210977e-05,-0.36098545438765456,0.0003483399254011186,0.1799427194722144,1.7830000000000001,0.41399815046501653,2.008,0.6881316191495949,,,,,,,,,,,,,,,,,,,,
21,240617_150852,LEARNING,1.0,22,3.0,1250.0,,,,,,,,,,22.0,22.0,22.0,cue1.png,Hard,B,,,,,,,,,,,,,,,,,,,,,,,,,,,16,28,Female,1.2857142857142858,0.5,0.4,1.25,2.611111111111111,2.0,2.3333333333333335,2.3333333333333335,2.0,2.2222222222222223,1.75,2.0,1.75,1.25,0.1785714285714285,0.6142857142857143,0.5380609666527663,0.7897678653451817,-0.000155973602030048,0.23147469172352558,0.0052566896001504625,4.653499323379787,0.00017114904762476069,0.26790315234779627,,,1.9689999999999999,0.762199281405402,1.8510000000000002,0.45212919733930945,,,,,,,,,,,,,,,,,,,,
22,240617_150912,LEARNING,1.0,23,3.0,1250.0,,,,,,,,,,23.0,23.0,23.0,cue1.png,Hard,B,,,,,,,,,,,,,,,,,,,,,,,,,,,16,28,Female,1.2857142857142858,0.5,0.4,1.25,2.611111111111111,2.0,2.3333333333333335,2.3333333333333335,2.0,2.2222222222222223,1.75,2.0,1.75,1.25,0.1428571428571428,0.5714285714285714,0.3701172199915163,-1.7765138480107403,-0.0003590459645234174,0.08256138456399836,0.001969194733845785,1.6631659896711848,0.00043996416993507485,1.0280594359925779,0.0013259475388622292,2.7663302546968733,1.077,-0.9076685078355888,2.141,0.8880572376258241,,,,,,,,,,,,,,,,,,,,
23,240617_150933,LEARNING,1.0,24,3.0,1250.0,,,,,,,,,,24.0,24.0,24.0,cue1.png,Hard,B,,,,,,,,,,,,,,,,,,,,,,,,,,,16,28,Female,1.2857142857142858,0.5,0.4,1.25,2.611111111111111,2.0,2.3333333333333335,2.3333333333333335,2.0,2.2222222222222223,1.75,2.0,1.75,1.25,0.1428571428571428,0.5714285714285714,0.4808941400027834,-0.08377571552033218,,,0.00045631960809844763,0.28704188842016776,,,,,1.3820000000000001,-0.33669353505699856,1.455,-0.14313805767262142,,,,,,,,,,,,,,,,,,,,
24,240617_150955,LEARNING,1.0,25,1.0,1250.0,,,,,,,,,,25.0,25.0,25.0,cue2.png,Easy,B,,,,,,,,,,,,,,,,,,,,,,,,,,,16,28,Female,1.2857142857142858,0.5,0.4,1.25,2.611111111111111,2.0,2.3333333333333335,2.3333333333333335,2.0,2.2222222222222223,1.75,2.0,1.75,1.25,0.8333333333333333,0.8571428571428572,0.5586372399993706,1.1041857288748835,-0.0014766514931528994,-0.7369806413649209,-0.0015571293976051606,-1.5444084779938614,,,,,0.8260000000000001,-1.377552829696002,1.7240000000000002,0.2612227796965943,,,,,,,,,,,,,,,,,,,,
25,240617_151017,LEARNING,1.0,26,1.0,1250.0,,,,,,,,,,26.0,26.0,26.0,cue2.png,Easy,B,,,,,,,,,,,,,,,,,,,,,,,,,,,16,28,Female,1.2857142857142858,0.5,0.4,1.25,2.611111111111111,2.0,2.3333333333333335,2.3333333333333335,2.0,2.2222222222222223,1.75,2.0,1.75,1.25,1.0,1.0,0.5985875500016846,1.7146505543895454,-7.471154192477316e-05,0.29106429795203376,-0.0002794919737836663,-0.3822585942005772,0.00028548218200294927,0.5912147643561976,0.0002480186295062462,-0.08547025977153254,1.109,-0.8477629369211138,1.9020000000000001,0.5287924044241792,,,,,,,,,,,,,,,,,,,,
26,240617_151039,LEARNING,1.0,27,3.0,1250.0,,,,,,,,,,27.0,27.0,27.0,cue1.png,Hard,B,,,,,,,,,,,,,,,,,,,,,,,,,,,16,28,Female,1.2857142857142858,0.5,0.4,1.25,2.611111111111111,2.0,2.3333333333333335,2.3333333333333335,2.0,2.2222222222222223,1.75,2.0,1.75,1.25,0.5476190476190476,0.7142857142857143,0.4946928200079128,0.12707643509316918,0.00016278276903338666,0.4652192781872564,-0.00031920107087387477,-0.4183783271611934,0.00034002350256499315,0.745446889346776,0.0006730008311221073,1.03887518702804,1.993,0.8071284595912588,1.535,-0.022882046559100297,,,,,,,,,,,,,,,,,,,,
27,240617_151100,LEARNING,1.0,28,1.0,1250.0,,,,,,,,,,28.0,28.0,28.0,cue2.png,Easy,B,,,,,,,,,,,,,,,,,,,,,,,,,,,16,28,Female,1.2857142857142858,0.5,0.4,1.25,2.611111111111111,2.0,2.3333333333333335,2.3333333333333335,2.0,2.2222222222222223,1.75,2.0,1.75,1.25,1.0,1.0,0.4887700799910817,0.03657339642503119,0.00032877572700407707,0.5869421952455292,-0.0002806316792244804,-0.383295279977704,7.30635551270723e-05,-0.00946332471535114,0.00043272267198408466,0.40318820257307453,1.772,0.3934056104631655,2.152,0.9045924391539335,,,,,,,,,,,,,,,,,,,,
28,240617_151122,LEARNING,1.0,29,1.0,1250.0,,,,,,,,,,29.0,29.0,29.0,cue2.png,Easy,B,,,,,,,,,,,,,,,,,,,,,,,,,,,16,28,Female,1.2857142857142858,0.5,0.4,1.25,2.611111111111111,2.0,2.3333333333333335,2.3333333333333335,2.0,2.2222222222222223,1.75,2.0,1.75,1.25,1.0,1.0,0.5261811400065198,0.6082369510587794,-5.747270056859384e-05,0.3037055694989234,-0.00012016406239474938,-0.23733256882490955,-0.0002936025781114949,-1.0463230176729492,-0.00034925303004286045,-1.6656297778952187,1.616,0.10136595225509998,1.2209999999999999,-0.4948868901796717,,,,,,,,,,,,,,,,,,,,
29,240617_151142,LEARNING,1.0,30,3.0,1250.0,,,,,,,,,,30.0,30.0,30.0,cue1.png,Hard,B,,,,,,,,,,,,,,,,,,,,,,,,,,,16,28,Female,1.2857142857142858,0.5,0.4,1.25,2.611111111111111,2.0,2.3333333333333335,2.3333333333333335,2.0,2.2222222222222223,1.75,2.0,1.75,1.25,0.5476190476190476,0.7142857142857143,0.4398547299846541,-0.7108826459669515,,,9.294555503248795e-05,-0.043486245517071136,0.0003063424709332323,0.6502035577422158,0.0003164139666231576,0.09547846132156995,0.4969999999999999,-1.9934569806604487,2.022,0.7091764210944608,,,,,,,,,,,,,,,,,,,,
30,240617_151203,LEARNING,1.0,31,3.0,1250.0,,,,,,,,,,31.0,31.0,31.0,cue1.png,Hard,B,,,,,,,,,,,,,,,,,,,,,,,,,,,16,28,Female,1.2857142857142858,0.5,0.4,1.25,2.611111111111111,2.0,2.3333333333333335,2.3333333333333335,2.0,2.2222222222222223,1.75,2.0,1.75,1.25,0.1428571428571428,0.5714285714285714,0.4396730999986175,-0.7136580616703001,-0.0002392855683429583,0.17038188580305633,-0.00018225526227379696,-0.29381125313597783,0.00048752004701440275,1.1625381010148503,0.00032891085655774354,0.12854060190930114,0.32000000000000006,-2.3248096697811382,0.9740000000000001,-0.8661773244926685,,,,,,,,,,,,,,,,,,,,
31,240617_151224,LEARNING,1.0,32,1.0,1250.0,,,,,,,,,,32.0,32.0,32.0,cue2.png,Easy,B,,,,,,,,,,,,,,,,,,,,,,,,,,,16,28,Female,1.2857142857142858,0.5,0.4,1.25,2.611111111111111,2.0,2.3333333333333335,2.3333333333333335,2.0,2.2222222222222223,1.75,2.0,1.75,1.25,0.1428571428571428,0.5714285714285714,0.4898205499921459,0.05262521143900526,,,0.00021742321244111983,0.06973969197903751,-0.0001040592173675069,-0.5103316811202149,,,1.7240000000000002,0.30354725409145333,1.067,-0.7263797115732001,,,,,,,,,,,,,,,,,,,,
32,240617_151247,LEARNING,1.0,33,1.0,1250.0,,,,,,,,,,33.0,33.0,33.0,cue2.png,Easy,B,,,,,,,,,,,,,,,,,,,,,,,,,,,16,28,Female,1.2857142857142858,0.5,0.4,1.25,2.611111111111111,2.0,2.3333333333333335,2.3333333333333335,2.0,2.2222222222222223,1.75,2.0,1.75,1.25,1.0,1.0,0.5821880899951793,1.464056917173062,0.0001361802045200945,0.4457115725991641,,,-0.00025403827498699655,-0.9344429516646229,,,1.694,0.24738578135913256,2.073,0.7858396281793308,,,,,,,,,,,,,,,,,,,,
33,240617_151308,LEARNING,1.0,34,1.0,1250.0,,,,,,,,,,34.0,34.0,34.0,cue2.png,Easy,B,,,,,,,,,,,,,,,,,,,,,,,,,,,16,28,Female,1.2857142857142858,0.5,0.4,1.25,2.611111111111111,2.0,2.3333333333333335,2.3333333333333335,2.0,2.2222222222222223,1.75,2.0,1.75,1.25,1.0,1.0,0.5047809099836741,0.28122853269823433,-0.00010871311017308666,0.2661308904006637,-0.00012028996346127429,-0.2374470895074626,-0.00018482169386159313,-0.7387120767693254,0.00023829569900465876,-0.11119353146960198,2.4859999999999998,1.730048661492389,1.2340000000000002,-0.475345288373724,,,,,,,,,,,,,,,,,,,,
34,240617_151328,LEARNING,1.0,35,3.0,1250.0,,,,,,,,,,35.0,35.0,35.0,cue1.png,Hard,B,,,,,,,,,,,,,,,,,,,,,,,,,,,16,28,Female,1.2857142857142858,0.5,0.4,1.25,2.611111111111111,2.0,2.3333333333333335,2.3333333333333335,2.0,2.2222222222222223,1.75,2.0,1.75,1.25,0.8333333333333333,0.8571428571428572,0.3819051399885211,-1.5963873227413365,0.0001687428465834825,0.46958981314343984,-0.0006320447220192673,-0.7029435770868102,-0.0010683878161377768,-3.237263252355938,0.0009309799732126062,1.7213924140456873,2.116,1.037390497793772,0.8779999999999999,-1.0104845378288945,,,,,,,,,,,,,,,,,,,,
35,240617_151351,LEARNING,1.0,36,3.0,1250.0,,,,,,,,,,36.0,36.0,36.0,cue1.png,Hard,B,,,,,,,,,,,,,,,,,,,,,,,,,,,16,28,Female,1.2857142857142858,0.5,0.4,1.25,2.611111111111111,2.0,2.3333333333333335,2.3333333333333335,2.0,2.2222222222222223,1.75,2.0,1.75,1.25,0.1785714285714285,0.6142857142857143,0.5124918444392582,0.3990562606109967,-0.00029753355826650637,0.12766853619501414,-0.0002312337609873998,-0.33836251277122764,0.0006339682751533644,1.5766648803854204,0.0003300198347382017,0.1314745472911486,1.7659999999999998,0.38217331591670106,0.7909999999999999,-1.1412629499148488,,,,,,,,,,,,,,,,,,,,
36,240617_151413,LEARNING,1.0,37,1.0,1250.0,,,,,,,,,,37.0,37.0,37.0,cue2.png,Easy,B,,,,,,,,,,,,,,,,,,,,,,,,,,,16,28,Female,1.2857142857142858,0.5,0.4,1.25,2.611111111111111,2.0,2.3333333333333335,2.3333333333333335,2.0,2.2222222222222223,1.75,2.0,1.75,1.25,0.8333333333333333,0.7571428571428572,0.4658602999988943,-0.31350185567438715,,,-0.0008913371969319125,-0.9387982209550889,-0.00014881717108193322,-0.6368983692837923,0.00046373690136599375,0.48524036254345,1.4980000000000002,-0.11953584049202642,1.265,-0.4287460840672349,,,,,,,,,,,,,,,,,,,,
37,240617_151434,LEARNING,1.0,38,3.0,1250.0,,,,,,,,,,38.0,38.0,38.0,cue1.png,Hard,B,,,,,,,,,,,,,,,,,,,,,,,,,,,16,28,Female,1.2857142857142858,0.5,0.4,1.25,2.611111111111111,2.0,2.3333333333333335,2.3333333333333335,2.0,2.2222222222222223,1.75,2.0,1.75,1.25,0.1428571428571428,0.5714285714285714,0.4668453299964312,-0.29845000337240873,0.00038706698464290555,0.6296872731424263,,,0.0008460479141677198,2.176384378471461,7.785112106418199e-05,-0.5356704389380993,,,1.117,-0.6512197046272492,,,,,,,,,,,,,,,,,,,,
38,240617_151456,LEARNING,1.0,39,3.0,1250.0,,,,,,,,,,39.0,39.0,39.0,cue1.png,Hard,B,,,,,,,,,,,,,,,,,,,,,,,,,,,16,28,Female,1.2857142857142858,0.5,0.4,1.25,2.611111111111111,2.0,2.3333333333333335,2.3333333333333335,2.0,2.2222222222222223,1.75,2.0,1.75,1.25,0.1785714285714285,0.6142857142857143,0.4476649333373643,-0.5915380294503311,-0.006151581138873837,-4.165114463884232,1.3543835303607074e-05,-0.11571072613685479,-0.0005293348438689238,-1.712927491161142,-0.00022979630081873623,-1.3495915318650566,1.22,-0.6399654878115286,0.03699999999999992,-2.2746758546597876,,,,,,,,,,,,,,,,,,,,
39,240617_151517,LEARNING,1.0,40,3.0,1250.0,,,,,,,,,,40.0,40.0,40.0,cue1.png,Hard,B,,,,,,,,,,,,,,,,,,,,,,,,,,,16,28,Female,1.2857142857142858,0.5,0.4,1.25,2.611111111111111,2.0,2.3333333333333335,2.3333333333333335,2.0,2.2222222222222223,1.75,2.0,1.75,1.25,0.8333333333333333,0.8571428571428572,0.3805162699951324,-1.6176100936817244,-0.0003285668083069589,0.10491180140997808,0.00021028940559425242,0.06325072050441279,0.00040885335208217617,0.9400841633332176,-4.163905995240762e-05,-0.8517971860170177,1.439,-0.22998673686559004,1.364,-0.2799292703142519,,,,,,,,,,,,,,,,,,,,
40,240617_151537,LEARNING,1.0,41,1.0,1250.0,,,,,,,,,,41.0,41.0,41.0,cue2.png,Easy,B,,,,,,,,,,,,,,,,,,,,,,,,,,,16,28,Female,1.2857142857142858,0.5,0.4,1.25,2.611111111111111,2.0,2.3333333333333335,2.3333333333333335,2.0,2.2222222222222223,1.75,2.0,1.75,1.25,1.0,1.0,0.4111118099885061,-1.1500917945120828,-0.0010631885894934897,-0.43378759423762386,-0.0002936562897013009,-0.3951425766127817,-0.00021643594254359445,-0.8281109527767188,0.0007989531081591256,1.372098245928313,1.8820000000000001,0.5993310104816736,1.5330000000000001,-0.025888446836937997,,,,,,,,,,,,,,,,,,,,
41,240617_151559,LEARNING,1.0,42,3.0,1250.0,,,,,,,,,,42.0,42.0,42.0,cue1.png,Hard,B,,,,,,,,,,,,,,,,,,,,,,,,,,,16,28,Female,1.2857142857142858,0.5,0.4,1.25,2.611111111111111,2.0,2.3333333333333335,2.3333333333333335,2.0,2.2222222222222223,1.75,2.0,1.75,1.25,0.5476190476190476,0.7142857142857143,0.5217443000059575,0.5404393605864434,-0.0003287245313321192,0.10479614284864826,-0.0003197623951883364,-0.41888891253906274,0.000138767357191847,0.1763341020426416,0.0004363863520780464,0.4128809426843403,1.8739999999999999,0.5843546177530544,,,,,,,,,,,,,,,,,,,,,,
42,240617_151619,LEARNING,1.0,43,3.0,1250.0,,,,,,,,,,43.0,43.0,43.0,cue1.png,Hard,B,,,,,,,,,,,,,,,,,,,,,,,,,,,16,28,Female,1.2857142857142858,0.5,0.4,1.25,2.611111111111111,2.0,2.3333333333333335,2.3333333333333335,2.0,2.2222222222222223,1.75,2.0,1.75,1.25,0.5476190476190476,0.7142857142857143,0.3876212400035001,-1.5090418678983977,0.00024302210082538002,0.5240589160124502,-3.5615271637595355e-05,-0.16042626855437403,-6.188768622220845e-06,-0.23357330548470398,4.666286325359431e-05,-0.6181830136520912,1.661,0.18560816135358035,2.298,1.1240596594361099,,,,,,,,,,,,,,,,,,,,
43,240617_151640,LEARNING,1.0,44,1.0,1250.0,,,,,,,,,,44.0,44.0,44.0,cue2.png,Easy,B,,,,,,,,,,,,,,,,,,,,,,,,,,,16,28,Female,1.2857142857142858,0.5,0.4,1.25,2.611111111111111,2.0,2.3333333333333335,2.3333333333333335,2.0,2.2222222222222223,1.75,2.0,1.75,1.25,0.8333333333333333,0.8571428571428572,0.4479493099905084,-0.587192582720831,-8.960588196333958e-05,0.2801422531899165,0.00023630990691760924,0.08691919015422409,-4.364080386482991e-05,-0.33948029345575514,0.00015633791962341766,-0.3280234498208535,0.8009999999999999,-1.4243540569729358,0.9039999999999999,-0.9714013342169999,,,,,,,,,,,,,,,,,,,,
44,240617_151701,LEARNING,1.0,45,1.0,1250.0,,,,,,,,,,45.0,45.0,45.0,cue2.png,Easy,B,,,,,,,,,,,,,,,,,,,,,,,,,,,16,28,Female,1.2857142857142858,0.5,0.4,1.25,2.611111111111111,2.0,2.3333333333333335,2.3333333333333335,2.0,2.2222222222222223,1.75,2.0,1.75,1.25,0.8333333333333333,0.8571428571428572,0.519173410005169,0.5011546112150913,-0.0007783353951286349,-0.2249042646352948,-4.138929599577321e-06,-0.13179511971693111,0.0001741118940405905,0.27628149915027833,-0.0005950557134689082,-2.3159326067440373,1.5959999999999999,0.06392497043355265,2.708,1.7403717163929069,,,,,,,,,,,,,,,,,,,,
45,240617_151724,LEARNING,1.0,46,1.0,1250.0,,,,,,,,,,46.0,46.0,46.0,cue2.png,Easy,B,,,,,,,,,,,,,,,,,,,,,,,,,,,16,28,Female,1.2857142857142858,0.5,0.4,1.25,2.611111111111111,2.0,2.3333333333333335,2.3333333333333335,2.0,2.2222222222222223,1.75,2.0,1.75,1.25,0.5476190476190476,0.6142857142857143,0.5184466111046883,0.49004868578070687,6.476687861491212e-05,0.39334405983065984,0.0026716247493085796,2.302102315128301,-5.701784324244194e-05,-0.3773079292377816,0.0006604180577239743,1.0055858306161463,,,,,,,,,,,,,,,,,,,,,,,,
46,240617_151745,LEARNING,1.0,47,3.0,1250.0,,,,,,,,,,47.0,47.0,47.0,cue1.png,Hard,B,,,,,,,,,,,,,,,,,,,,,,,,,,,16,28,Female,1.2857142857142858,0.5,0.4,1.25,2.611111111111111,2.0,2.3333333333333335,2.3333333333333335,2.0,2.2222222222222223,1.75,2.0,1.75,1.25,0.5476190476190476,0.7142857142857143,0.4781352000019979,-0.12593398227939873,9.619235828860553e-05,0.4163884172696835,,,-0.0001191578273451988,-0.553027579885892,6.832511682239393e-05,-0.5608727167152026,,,1.186,-0.5474988950418371,,,,,,,,,,,,,,,,,,,,
47,240617_151807,LEARNING,1.0,48,3.0,1250.0,,,,,,,,,,48.0,48.0,48.0,cue1.png,Hard,B,,,,,,,,,,,,,,,,,,,,,,,,,,,16,28,Female,1.2857142857142858,0.5,0.4,1.25,2.611111111111111,2.0,2.3333333333333335,2.3333333333333335,2.0,2.2222222222222223,1.75,2.0,1.75,1.25,0.5476190476190476,0.7142857142857143,0.5228620599897112,0.5575194071094861,-0.0017520933971938678,-0.9389626558421347,-0.0002602076860779186,-0.3647174418373053,,,0.00024270530393257113,-0.09952735061771617,1.173,-0.7279517950921637,2.045,0.7437500242895984,,,,,,,,,,,,,,,,,,,,
48,240617_151827,LEARNING,1.0,49,1.0,1250.0,,,,,,,,,,49.0,49.0,49.0,cue2.png,Easy,B,,,,,,,,,,,,,,,,,,,,,,,,,,,16,28,Female,1.2857142857142858,0.5,0.4,1.25,2.611111111111111,2.0,2.3333333333333335,2.3333333333333335,2.0,2.2222222222222223,1.75,2.0,1.75,1.25,1.0,1.0,0.419655250001233,-1.019542879713619,,,1.7243116585261096e-05,-0.11234582837209305,,,-0.0005983378524578014,-2.3246159304547582,,,,,,,,,,,,,,,,,,,,,,,,
49,240617_151849,LEARNING,1.0,50,1.0,1250.0,,,,,,,,,,50.0,50.0,50.0,cue2.png,Easy,B,,,,,,,,,,,,,,,,,,,,,,,,,,,16,28,Female,1.2857142857142858,0.5,0.4,1.25,2.611111111111111,2.0,2.3333333333333335,2.3333333333333335,2.0,2.2222222222222223,1.75,2.0,1.75,1.25,1.0,1.0,0.5227018199977465,0.5550708434129943,-0.0004975601618353496,-0.019011310789563588,,,2.7969643296196778e-05,-0.13698003634139405,9.265759223355506e-05,-0.4964980021180242,2.428,1.6214698142099033,-0.01100000000000012,-2.3468294613279004,,,,,,,,,,,,,,,,,,,,
0,240617_152119,TrueCHOICE,9.0,1,3.0,1250.0,,,,,,,,,,,1.0,1.0,,,B,,,,,,True,cue2.png,Easy,cue1.png,Hard,Right,Hard,Hard,0.0136780000175349,,,,,,,,,,,,,16,28,Female,1.2857142857142858,0.5,0.4,1.25,2.611111111111111,2.0,2.3333333333333335,2.3333333333333335,2.0,2.2222222222222223,1.75,2.0,1.75,1.25,0.1428571428571428,0.5714285714285714,0.5002183999924454,0.26270785730049273,,,,,,,,,,,,,-2.8921247628308378e-05,-0.4617825138501379,,,1.2690000000000001,-1.439503737265183,,,,,,,,,,,,,,
1,240617_152139,TrueCHOICE,9.0,2,3.0,1250.0,,,,,,,,,,,2.0,2.0,,,B,,,,,,True,cue2.png,Easy,cue1.png,Hard,Right,Hard,Hard,0.0155617000418715,,,,,,,,,,,,,16,28,Female,1.2857142857142858,0.5,0.4,1.25,2.611111111111111,2.0,2.3333333333333335,2.3333333333333335,2.0,2.2222222222222223,1.75,2.0,1.75,1.25,0.1428571428571428,0.5714285714285714,0.441406769992318,-0.6446910466939904,,,,,,,,,,,,,0.005034714027105882,2.5979462602264736,0.0002125634048426154,1.179323093779092,1.88,1.8732525093224865,,,,,,,,,,,,,,
2,240617_152200,TrueCHOICE,9.0,3,3.0,1250.0,,,,,,,,,,,3.0,3.0,,,B,,,,,,True,cue1.png,Hard,cue2.png,Easy,Left,Hard,Hard,0.0150449000066146,,,,,,,,,,,,,16,28,Female,1.2857142857142858,0.5,0.4,1.25,2.611111111111111,2.0,2.3333333333333335,2.3333333333333335,2.0,2.2222222222222223,1.75,2.0,1.75,1.25,0.5476190476190476,0.6142857142857143,0.4478834666596312,-0.5447627254178755,,,,,,,,,,,,,,,-3.800345206052399e-05,0.29948296954710346,1.586,0.27922577201188975,,,,,,,,,,,,,,
3,240617_152221,TrueCHOICE,9.0,4,3.0,1250.0,,,,,,,,,,,4.0,4.0,,,B,,,,,,True,cue2.png,Easy,cue1.png,Hard,Right,Hard,Hard,0.0164559000404551,,,,,,,,,,,,,16,28,Female,1.2857142857142858,0.5,0.4,1.25,2.611111111111111,2.0,2.3333333333333335,2.3333333333333335,2.0,2.2222222222222223,1.75,2.0,1.75,1.25,0.1785714285714285,0.6142857142857143,0.4774864111225017,-0.08802178216294429,,,,,,,,,,,,,2.4751283019550444e-05,-0.42935059932813807,,,1.553,0.10030440353825049,,,,,,,,,,,,,,
4,240617_152241,TrueCHOICE,9.0,5,3.0,1250.0,,,,,,,,,,,5.0,5.0,,,B,,,,,,True,cue1.png,Hard,cue2.png,Easy,Left,Hard,Hard,0.016475900018122,,,,,,,,,,,,,16,28,Female,1.2857142857142858,0.5,0.4,1.25,2.611111111111111,2.0,2.3333333333333335,2.3333333333333335,2.0,2.2222222222222223,1.75,2.0,1.75,1.25,0.5476190476190476,0.7142857142857143,0.5306186999951024,0.7317511214211196,,,,,,,,,,,,,0.00022636091077342206,-0.3075269004042898,-0.0004393180616445594,-1.1096926106415532,,,,,,,,,,,,,,,,
5,240617_152303,TrueCHOICE,9.0,6,3.0,1250.0,,,,,,,,,,,6.0,6.0,,,B,,,,,,True,cue1.png,Hard,cue2.png,Easy,Left,Hard,Hard,0.0163143000099807,,,,,,,,,,,,,16,28,Female,1.2857142857142858,0.5,0.4,1.25,2.611111111111111,2.0,2.3333333333333335,2.3333333333333335,2.0,2.2222222222222223,1.75,2.0,1.75,1.25,0.1428571428571428,0.4714285714285714,0.5132727111146475,0.4641215505557795,,,,,,,,,,,,,0.00023988970518836698,-0.2993520538160061,,,1.46,-0.403928543978367,,,,,,,,,,,,,,
6,240617_152330,TrueCHOICE,9.0,7,3.0,1250.0,,,,,,,,,,,8.0,7.0,,,B,,,,,,True,cue2.png,Easy,cue1.png,Hard,Right,Hard,Hard,0.0166566999978385,,,,,,,,,,,,,16,28,Female,1.2857142857142858,0.5,0.4,1.25,2.611111111111111,2.0,2.3333333333333335,2.3333333333333335,2.0,2.2222222222222223,1.75,2.0,1.75,1.25,0.5476190476190476,0.6142857142857143,0.4834185999999236,0.00350538152303491,,,,,,,,,,,,,-0.000566330111390111,-0.786514702224847,,,1.4589999999999999,-0.409350403629084,,,,,,,,,,,,,,
7,240617_152350,TrueCHOICE,9.0,8,3.0,1250.0,,,,,,,,,,,9.0,8.0,,,B,,,,,,True,cue1.png,Hard,cue2.png,Easy,Left,Hard,Hard,0.0166893000132404,,,,,,,,,,,,,16,28,Female,1.2857142857142858,0.5,0.4,1.25,2.611111111111111,2.0,2.3333333333333335,2.3333333333333335,2.0,2.2222222222222223,1.75,2.0,1.75,1.25,0.5476190476190476,0.6142857142857143,0.4570343111085498,-0.40357523880077695,,,,,,,,,,,,,0.0005162271621699487,-0.13237366327106548,-0.0001265859733485912,-0.011565576530178246,,,,,,,,,,,,,,,,
8,240617_152408,TrueCHOICE,9.0,9,3.0,1250.0,,,,,,,,,,,10.0,9.0,,,B,,,,,,True,cue2.png,Easy,cue1.png,Hard,Right,Hard,Hard,0.0167396999895572,,,,,,,,,,,,,16,28,Female,1.2857142857142858,0.5,0.4,1.25,2.611111111111111,2.0,2.3333333333333335,2.3333333333333335,2.0,2.2222222222222223,1.75,2.0,1.75,1.25,0.5476190476190476,0.7142857142857143,0.3584663500019814,-1.9243706984212154,,,,,,,,,,,,,,,-0.0005357850056529811,-1.448426508051856,,,,,,,,,,,,,,,,
9,240617_152431,TrueCHOICE,9.0,10,3.0,1250.0,,,,,,,,,,,11.0,10.0,,,B,,,,,,True,cue1.png,Hard,cue2.png,Easy,Left,Hard,Hard,0.0160792999668046,,,,,,,,,,,,,16,28,Female,1.2857142857142858,0.5,0.4,1.25,2.611111111111111,2.0,2.3333333333333335,2.3333333333333335,2.0,2.2222222222222223,1.75,2.0,1.75,1.25,0.1785714285714285,0.6142857142857143,0.6221083222189918,2.14333558069638,,,,,,,,,,,,,0.0004356781641918781,-0.18104582733198885,0.0001873755892226681,1.0908786318973929,,,,,,,,,,,,,,,,
0,240617_152758,FalseCHOICE,9.0,1,2.0,1250.0,,,,,,,,,,,1.0,1.0,,,B,,,,,,False,cue2.png,Easy,cue1.png,Hard,Right,Hard,Mid,0.0165502000018022,,,,,,,,,,,,,16,28,Female,1.2857142857142858,0.5,0.4,1.25,2.611111111111111,2.0,2.3333333333333335,2.3333333333333335,2.0,2.2222222222222223,1.75,2.0,1.75,1.25,0.1428571428571428,0.4714285714285714,0.4681969555482889,0.02152690539427413,,,,,,,,,,,,,,,,,,,3.745865096758342e-05,0.2091221187546112,0.00012690035542398679,0.7935118999129359,,,,,,,,,,
1,240617_152819,FalseCHOICE,9.0,2,2.0,1250.0,,,,,,,,,,,2.0,2.0,,,B,,,,,,False,cue1.png,Hard,cue2.png,Easy,Left,Hard,Mid,0.016123300010804,,,,,,,,,,,,,16,28,Female,1.2857142857142858,0.5,0.4,1.25,2.611111111111111,2.0,2.3333333333333335,2.3333333333333335,2.0,2.2222222222222223,1.75,2.0,1.75,1.25,0.8333333333333333,0.7571428571428572,0.4766049333395333,0.12535324935727526,,,,,,,,,,,,,,,,,,,-1.9796650733489973e-05,0.16812660745242128,-0.00028253632398819945,-0.44052738333979324,1.979,0.917691952876913,,,,,,,,
2,240617_152842,FalseCHOICE,9.0,3,2.0,1250.0,,,,,,,,,,,3.0,3.0,,,B,,,,,,False,cue1.png,Hard,cue2.png,Easy,Left,Hard,Mid,0.0161197999841533,,,,,,,,,,,,,16,28,Female,1.2857142857142858,0.5,0.4,1.25,2.611111111111111,2.0,2.3333333333333335,2.3333333333333335,2.0,2.2222222222222223,1.75,2.0,1.75,1.25,0.1428571428571428,0.2714285714285714,0.3891748000086019,-0.9542822255842947,,,,,,,,,,,,,,,,,,,,,-4.773441458006322e-05,0.26716392660434607,1.585,0.19628207771030498,,,,,,,,
3,240617_152900,FalseCHOICE,9.0,4,2.0,1250.0,,,,,,,,,,,4.0,4.0,,,B,,,,,,False,cue1.png,Hard,cue2.png,Easy,Left,Hard,Mid,0.0133781000040471,,,,,,,,,,,,,16,28,Female,1.2857142857142858,0.5,0.4,1.25,2.611111111111111,2.0,2.3333333333333335,2.3333333333333335,2.0,2.2222222222222223,1.75,2.0,1.75,1.25,0.8333333333333333,0.8571428571428572,0.4472424099978525,-0.23723137250859638,,,,,,,,,,,,,,,,,,,-4.961618656018846e-05,0.14677544726830583,-6.297157274963612e-06,0.3920555298142906,,,,,,,,,,
4,240617_152920,FalseCHOICE,9.0,5,2.0,1250.0,,,,,,,,,,,5.0,5.0,,,B,,,,,,False,cue2.png,Easy,cue1.png,Hard,Right,Hard,Mid,0.0163064000080339,,,,,,,,,,,,,16,28,Female,1.2857142857142858,0.5,0.4,1.25,2.611111111111111,2.0,2.3333333333333335,2.3333333333333335,2.0,2.2222222222222223,1.75,2.0,1.75,1.25,0.5476190476190476,0.7142857142857143,0.5495456599979661,1.0260655446295055,,,,,,,,,,,,,,,,,,,-0.00012081734348858139,0.09579452939931118,-0.00030539953805032135,-0.5094369503443436,1.463,-0.02709864505702005,,,,,,,,
5,240617_152940,FalseCHOICE,9.0,6,2.0,1250.0,,,,,,,,,,,6.0,6.0,,,B,,,,,,False,cue1.png,Hard,cue2.png,Easy,Left,Hard,Mid,0.0162867999752052,,,,,,,,,,,,,16,28,Female,1.2857142857142858,0.5,0.4,1.25,2.611111111111111,2.0,2.3333333333333335,2.3333333333333335,2.0,2.2222222222222223,1.75,2.0,1.75,1.25,0.5476190476190476,0.7142857142857143,0.4926218700071331,0.32313921132967166,,,,,,,,,,,,,,,,,,,8.243026610119325e-05,0.2413223570157446,-0.0003571198502051597,-0.6653216088287648,,,,,,,,,,
6,240617_152959,FalseCHOICE,9.0,7,2.0,1250.0,,,,,,,,,,,7.0,7.0,,,B,,,,,,False,cue1.png,Hard,cue2.png,Easy,Left,Hard,Mid,0.0160280999843962,,,,,,,,,,,,,16,28,Female,1.2857142857142858,0.5,0.4,1.25,2.611111111111111,2.0,2.3333333333333335,2.3333333333333335,2.0,2.2222222222222223,1.75,2.0,1.75,1.25,0.5476190476190476,0.7142857142857143,0.3295986300159711,-1.689961609049652,,,,,,,,,,,,,,,,,,,0.0007933665850287609,0.7503616430175509,0.0005396069839117175,2.0374067867702346,1.1340000000000001,-0.6294942007164462,,,,,,,,
7,240617_153018,FalseCHOICE,9.0,8,2.0,1250.0,,,,,,,,,,,8.0,8.0,,,B,,,,,,False,cue2.png,Easy,cue1.png,Hard,Right,Hard,Mid,0.0155380999785847,,,,,,,,,,,,,16,28,Female,1.2857142857142858,0.5,0.4,1.25,2.611111111111111,2.0,2.3333333333333335,2.3333333333333335,2.0,2.2222222222222223,1.75,2.0,1.75,1.25,0.8333333333333333,0.8571428571428572,0.4917020599998068,0.31178089039063245,,,,,,,,,,,,,,,,,,,-7.712594835421714e-05,0.1270781141473363,-0.00019210928576055214,-0.16798092364956815,,,,,,,,,,
8,240617_153040,FalseCHOICE,9.0,9,2.0,1250.0,,,,,,,,,,,9.0,9.0,,,B,,,,,,False,cue2.png,Easy,cue1.png,Hard,Right,Hard,Mid,0.0162083000177517,,,,,,,,,,,,,16,28,Female,1.2857142857142858,0.5,0.4,1.25,2.611111111111111,2.0,2.3333333333333335,2.3333333333333335,2.0,2.2222222222222223,1.75,2.0,1.75,1.25,0.1785714285714285,0.4142857142857143,0.4012271285672406,-0.805453429701008,,,,,,,,,,,,,,,,,,,,,-4.479365181684746e-06,0.39753434244806063,,,,,,,,,,
9,240617_153059,FalseCHOICE,9.0,10,2.0,1250.0,,,,,,,,,,,10.0,10.0,,,B,,,,,,False,cue1.png,Hard,cue2.png,Easy,Left,Hard,Mid,0.0161999000119976,,,,,,,,,,,,,16,28,Female,1.2857142857142858,0.5,0.4,1.25,2.611111111111111,2.0,2.3333333333333335,2.3333333333333335,2.0,2.2222222222222223,1.75,2.0,1.75,1.25,0.1428571428571428,0.5714285714285714,0.4328307499876246,-0.415194493540852,,,,,,,,,,,,,,,,,,,0.00015004280780332464,0.28973378155055846,-0.0003898959008417401,-0.7641083958198304,1.662,0.33726827158804296,,,,,,,,
10,240617_153119,FalseCHOICE,9.0,11,2.0,1250.0,,,,,,,,,,,11.0,11.0,,,B,,,,,,False,cue2.png,Easy,cue1.png,Hard,Right,Hard,Mid,0.0166950999991968,,,,,,,,,,,,,16,28,Female,1.2857142857142858,0.5,0.4,1.25,2.611111111111111,2.0,2.3333333333333335,2.3333333333333335,2.0,2.2222222222222223,1.75,2.0,1.75,1.25,0.1785714285714285,0.6142857142857143,0.3449373999869244,-1.500550023230294,,,,,,,,,,,,,,,,,,,,,-0.0005006483693036426,-1.0979155598370187,1.1820000000000002,-0.5416067032342198,,,,,,,,
11,240617_153142,FalseCHOICE,9.0,12,2.0,1250.0,,,,,,,,,,,12.0,12.0,,,B,,,,,,False,cue1.png,Hard,cue2.png,Easy,Left,Hard,Mid,0.0166316999820992,,,,,,,,,,,,,16,28,Female,1.2857142857142858,0.5,0.4,1.25,2.611111111111111,2.0,2.3333333333333335,2.3333333333333335,2.0,2.2222222222222223,1.75,2.0,1.75,1.25,0.1785714285714285,0.4142857142857143,0.4294274856968383,-0.45721987676916337,,,,,,,,,,,,,,,,,,,,,,,,,,,,,,,,
12,240617_153205,FalseCHOICE,9.0,13,2.0,1250.0,,,,,,,,,,,13.0,13.0,,,B,,,,,,False,cue2.png,Easy,cue1.png,Hard,Right,Hard,Mid,0.0165580000029876,,,,,,,,,,,,,16,28,Female,1.2857142857142858,0.5,0.4,1.25,2.611111111111111,2.0,2.3333333333333335,2.3333333333333335,2.0,2.2222222222222223,1.75,2.0,1.75,1.25,0.1428571428571428,0.3714285714285714,0.438492387504084,-0.345281472981988,,,,,,,,,,,,,,,,,,,-0.007924286313055851,-5.491586740695123,,,,,,,,,,,,
13,240617_153224,FalseCHOICE,9.0,14,2.0,1250.0,,,,,,,,,,,14.0,14.0,,,B,,,,,,False,cue1.png,Hard,cue2.png,Easy,Left,Hard,Mid,0.0159083000035025,,,,,,,,,,,,,16,28,Female,1.2857142857142858,0.5,0.4,1.25,2.611111111111111,2.0,2.3333333333333335,2.3333333333333335,2.0,2.2222222222222223,1.75,2.0,1.75,1.25,0.8333333333333333,0.8571428571428572,0.437570030009374,-0.3566712516993313,,,,,,,,,,,,,,,,,,,,,,,1.882,0.7400859683815803,,,,,,,,
14,240617_153244,FalseCHOICE,9.0,15,2.0,1250.0,,,,,,,,,,,15.0,15.0,,,B,,,,,,False,cue2.png,Easy,cue1.png,Hard,Right,Hard,Mid,0.0153222999651916,,,,,,,,,,,,,16,28,Female,1.2857142857142858,0.5,0.4,1.25,2.611111111111111,2.0,2.3333333333333335,2.3333333333333335,2.0,2.2222222222222223,1.75,2.0,1.75,1.25,0.1428571428571428,0.4714285714285714,0.4980050222236766,0.38961334191337255,,,,,,,,,,,,,,,,,,,-4.531082611286801e-05,0.1498581391349844,,,,,,,,,,,,
15,240617_153320,FalseCHOICE,9.0,16,2.0,1250.0,,,,,,,,,,,19.0,16.0,,,B,,,,,,False,cue2.png,Easy,cue1.png,Hard,Right,Hard,Mid,0.0165908999624662,,,,,,,,,,,,,16,28,Female,1.2857142857142858,0.5,0.4,1.25,2.611111111111111,2.0,2.3333333333333335,2.3333333333333335,2.0,2.2222222222222223,1.75,2.0,1.75,1.25,0.5476190476190476,0.7142857142857143,0.3944394699996337,-0.8892711788246601,,,,,,,,,,,,,,,,,,,0.0006307278519452194,0.6339102783018328,-0.0007629821359896602,-1.888587694729696,,,,,,,,,,
16,240617_153341,FalseCHOICE,9.0,17,2.0,1250.0,,,,,,,,,,,20.0,17.0,,,B,,,,,,False,cue1.png,Hard,cue2.png,Easy,Left,Hard,Mid,0.0161660999874584,,,,,,,,,,,,,16,28,Female,1.2857142857142858,0.5,0.4,1.25,2.611111111111111,2.0,2.3333333333333335,2.3333333333333335,2.0,2.2222222222222223,1.75,2.0,1.75,1.25,0.5476190476190476,0.6142857142857143,0.4135881333301465,-0.6528129299154088,,,,,,,,,,,,,,,,,,,,,,,,,,,,,,,,
17,240617_153400,FalseCHOICE,9.0,18,2.0,1250.0,,,,,,,,,,,21.0,18.0,,,B,,,,,,False,cue1.png,Hard,cue2.png,Easy,Left,Hard,Mid,0.0161938999663107,,,,,,,,,,,,,16,28,Female,1.2857142857142858,0.5,0.4,1.25,2.611111111111111,2.0,2.3333333333333335,2.3333333333333335,2.0,2.2222222222222223,1.75,2.0,1.75,1.25,0.6904761904761906,0.7571428571428572,0.3899859222195421,-0.9442660414601161,,,,,,,,,,,,,,,,,,,-0.0011025128652333823,-0.6071117283847385,,,,,,,,,,,,
18,240617_153420,FalseCHOICE,9.0,19,2.0,1250.0,,,,,,,,,,,22.0,19.0,,,B,,,,,,False,cue2.png,Easy,cue1.png,Hard,Right,Hard,Mid,0.0171927999472245,,,,,,,,,,,,,16,28,Female,1.2857142857142858,0.5,0.4,1.25,2.611111111111111,2.0,2.3333333333333335,2.3333333333333335,2.0,2.2222222222222223,1.75,2.0,1.75,1.25,0.5476190476190476,0.7142857142857143,0.5871647699968889,1.4906070492939765,,,,,,,,,,,,,,,,,,,4.994144116357655e-06,0.18587712627360053,-3.7346263838299466e-05,0.2984737401610889,0.359,-2.0485110871482255,,,,,,,,
19,240617_153441,FalseCHOICE,9.0,20,2.0,1250.0,,,,,,,,,,,23.0,20.0,,,B,,,,,,False,cue2.png,Easy,cue1.png,Hard,Right,Hard,Mid,0.0165385999716818,,,,,,,,,,,,,16,28,Female,1.2857142857142858,0.5,0.4,1.25,2.611111111111111,2.0,2.3333333333333335,2.3333333333333335,2.0,2.2222222222222223,1.75,2.0,1.75,1.25,0.5476190476190476,0.6142857142857143,0.4420202666790121,-0.30171727648072855,,,,,,,,,,,,,,,,,,,0.0004494443449710138,0.5041090225532783,,,1.5839999999999999,0.19445108817942505,,,,,,,,
20,240617_153501,FalseCHOICE,9.0,21,2.0,1250.0,,,,,,,,,,,24.0,21.0,,,B,,,,,,False,cue2.png,Easy,cue1.png,Hard,Right,Hard,Mid,0.0164949999889358,,,,,,,,,,,,,16,28,Female,1.2857142857142858,0.5,0.4,1.25,2.611111111111111,2.0,2.3333333333333335,2.3333333333333335,2.0,2.2222222222222223,1.75,2.0,1.75,1.25,0.1428571428571428,0.4714285714285714,0.3973296333246657,-0.8535818491256087,,,,,,,,,,,,,,,,,,,0.0002692647905667201,0.3750982106363394,-0.0008608580960203652,-2.183585152547514,0.9539999999999997,-0.9590723162747956,,,,,,,,
21,240617_153522,FalseCHOICE,9.0,22,2.0,1250.0,,,,,,,,,,,25.0,22.0,,,B,,,,,,False,cue1.png,Hard,cue2.png,Easy,Left,Hard,Mid,0.0148842000053264,,,,,,,,,,,,,16,28,Female,1.2857142857142858,0.5,0.4,1.25,2.611111111111111,2.0,2.3333333333333335,2.3333333333333335,2.0,2.2222222222222223,1.75,2.0,1.75,1.25,0.5476190476190476,0.7142857142857143,0.566613730014069,1.2368314805388347,,,,,,,,,,,,,,,,,,,5.830667845095703e-06,0.18647608771397642,0.00015540020468200874,0.8794102459079075,1.2109999999999999,-0.48850800683870865,,,,,,,,
22,240617_153541,FalseCHOICE,9.0,23,2.0,1250.0,,,,,,,,,,,26.0,23.0,,,B,,,,,,False,cue2.png,Easy,cue1.png,Hard,Right,Hard,Mid,0.0163751000072807,,,,,,,,,,,,,16,28,Female,1.2857142857142858,0.5,0.4,1.25,2.611111111111111,2.0,2.3333333333333335,2.3333333333333335,2.0,2.2222222222222223,1.75,2.0,1.75,1.25,0.1428571428571428,0.5714285714285714,0.4346089299884624,-0.393236546817043,,,,,,,,,,,,,,,,,,,-5.156330364999547e-05,0.1453812871068832,1.1682771600043246e-07,0.41138723564095586,1.379,-0.18090176565091626,,,,,,,,
23,240617_153600,FalseCHOICE,9.0,24,2.0,1250.0,,,,,,,,,,,27.0,24.0,,,B,,,,,,False,cue1.png,Hard,cue2.png,Easy,Left,Hard,Mid,0.0165980000165291,,,,,,,,,,,,,16,28,Female,1.2857142857142858,0.5,0.4,1.25,2.611111111111111,2.0,2.3333333333333335,2.3333333333333335,2.0,2.2222222222222223,1.75,2.0,1.75,1.25,0.5476190476190476,0.6142857142857143,0.34893656666908,-1.4511661088318464,,,,,,,,,,,,,,,,,,,-6.836090513631697e-05,0.133353994592079,8.862502269584276e-05,0.6781503152256292,1.711,0.42698675860114926,,,,,,,,
24,240617_153618,FalseCHOICE,9.0,25,2.0,1250.0,,,,,,,,,,,28.0,25.0,,,B,,,,,,False,cue1.png,Hard,cue2.png,Easy,Left,Hard,Mid,0.0173476000200025,,,,,,,,,,,,,16,28,Female,1.2857142857142858,0.5,0.4,1.25,2.611111111111111,2.0,2.3333333333333335,2.3333333333333335,2.0,2.2222222222222223,1.75,2.0,1.75,1.25,0.1428571428571428,0.4714285714285714,0.2636340111170688,-2.5045290807094527,,,,,,,,,,,,,,,,,,,-1.095960629063841e-05,0.1744540416737326,,,0.32800000000000007,-2.1052717626054966,,,,,,,,
25,240617_153638,FalseCHOICE,9.0,26,2.0,1250.0,,,,,,,,,,,29.0,26.0,,,B,,,,,,False,cue2.png,Easy,cue1.png,Hard,Right,Hard,Mid,0.0165740000084042,,,,,,,,,,,,,16,28,Female,1.2857142857142858,0.5,0.4,1.25,2.611111111111111,2.0,2.3333333333333335,2.3333333333333335,2.0,2.2222222222222223,1.75,2.0,1.75,1.25,0.5476190476190476,0.7142857142857143,0.5221797600097489,0.6881363284043506,,,,,,,,,,,,,,,,,,,-4.713772105050147e-05,0.1485500595364402,0.00010164051919736789,0.7173789304952225,1.805,0.5990997745038422,,,,,,,,
26,240617_153659,FalseCHOICE,9.0,27,2.0,1250.0,,,,,,,,,,,30.0,27.0,,,B,,,,,,False,cue2.png,Easy,cue1.png,Hard,Right,Hard,Mid,0.01662380003836,,,,,,,,,,,,,16,28,Female,1.2857142857142858,0.5,0.4,1.25,2.611111111111111,2.0,2.3333333333333335,2.3333333333333335,2.0,2.2222222222222223,1.75,2.0,1.75,1.25,0.5476190476190476,0.6142857142857143,0.5362716000009742,0.8621501355678433,,,,,,,,,,,,,,,,,,,-8.772237138205373e-05,0.11949094287945149,-0.00023858819855374254,-0.3080680411789989,1.4709999999999999,-0.012450728809982724,,,,,,,,
27,240617_153719,FalseCHOICE,9.0,28,2.0,1250.0,,,,,,,,,,,31.0,28.0,,,B,,,,,,False,cue1.png,Hard,cue2.png,Easy,Left,Hard,Mid,0.0157298999838531,,,,,,,,,,,,,16,28,Female,1.2857142857142858,0.5,0.4,1.25,2.611111111111111,2.0,2.3333333333333335,2.3333333333333335,2.0,2.2222222222222223,1.75,2.0,1.75,1.25,0.5476190476190476,0.7142857142857143,0.5045191599987447,0.4700535055352253,,,,,,,,,,,,,,,,,,,5.064064895822767e-05,0.2185605939971715,,,0.9459999999999997,-0.9737202325218334,,,,,,,,
28,240617_153740,FalseCHOICE,9.0,29,2.0,1250.0,,,,,,,,,,,32.0,29.0,,,B,,,,,,False,cue2.png,Easy,cue1.png,Hard,Right,Hard,Mid,0.0164515000069513,,,,,,,,,,,,,16,28,Female,1.2857142857142858,0.5,0.4,1.25,2.611111111111111,2.0,2.3333333333333335,2.3333333333333335,2.0,2.2222222222222223,1.75,2.0,1.75,1.25,0.1428571428571428,0.4714285714285714,0.4966286111028037,0.37261665876096645,,,,,,,,,,,,,,,,,,,-0.0001723217605030529,0.05891672337790153,0.00029141406521911335,1.289355068659539,0.9819999999999998,-0.9078046094101636,,,,,,,,
29,240617_153801,FalseCHOICE,9.0,30,2.0,1250.0,,,,,,,,,,,33.0,30.0,,,B,,,,,,False,cue2.png,Easy,cue1.png,Hard,Right,Hard,Mid,0.0153134000138379,,,,,,,,,,,,,16,28,Female,1.2857142857142858,0.5,0.4,1.25,2.611111111111111,2.0,2.3333333333333335,2.3333333333333335,2.0,2.2222222222222223,1.75,2.0,1.75,1.25,1.0,1.0,0.6212718999944628,1.9117806892156368,,,,,,,,,,,,,,,,,,,0.00013078577332476448,0.27594550428788406,,,1.019,-0.8400579967676138,,,,,,,,
30,240617_153821,FalseCHOICE,9.0,31,2.0,1250.0,,,,,,,,,,,34.0,31.0,,,B,,,,,,False,cue1.png,Hard,cue2.png,Easy,Left,Hard,Mid,0.0176068000146187,,,,,,,,,,,,,16,28,Female,1.2857142857142858,0.5,0.4,1.25,2.611111111111111,2.0,2.3333333333333335,2.3333333333333335,2.0,2.2222222222222223,1.75,2.0,1.75,1.25,0.5476190476190476,0.7142857142857143,0.4527847000048496,-0.1687921207769358,,,,,,,,,,,,,,,,,,,-5.912000104623619e-06,0.17806819076211114,-0.0005003473153845032,-1.0970081854339033,,,,,,,,,,
31,240617_153840,FalseCHOICE,9.0,32,2.0,1250.0,,,,,,,,,,,35.0,32.0,,,B,,,,,,False,cue2.png,Easy,cue1.png,Hard,Right,Hard,Mid,0.0167095999931916,,,,,,,,,,,,,16,28,Female,1.2857142857142858,0.5,0.4,1.25,2.611111111111111,2.0,2.3333333333333335,2.3333333333333335,2.0,2.2222222222222223,1.75,2.0,1.75,1.25,0.8333333333333333,0.8571428571428572,0.4421251700085122,-0.30042187234884776,,,,,,,,,,,,,,,,,,,,,2.5676332680592794e-05,0.48842340453545513,1.183,-0.5397757137033403,,,,,,,,
32,240617_153901,FalseCHOICE,9.0,33,2.0,1250.0,,,,,,,,,,,36.0,33.0,,,B,,,,,,False,cue1.png,Hard,cue2.png,Easy,Left,Hard,Mid,0.016241000033915,,,,,,,,,,,,,16,28,Female,1.2857142857142858,0.5,0.4,1.25,2.611111111111111,2.0,2.3333333333333335,2.3333333333333335,2.0,2.2222222222222223,1.75,2.0,1.75,1.25,0.5476190476190476,0.6142857142857143,0.5170959444496677,0.62535857183902,,,,,,,,,,,,,,,,,,,-0.002858618737125263,-1.8645054714978941,-0.00027103797338174805,-0.40587143516889385,1.487,0.01684510368409315,,,,,,,,
33,240617_153922,FalseCHOICE,9.0,34,2.0,1250.0,,,,,,,,,,,37.0,34.0,,,B,,,,,,False,cue1.png,Hard,cue2.png,Easy,Left,Hard,Mid,0.0159832000499591,,,,,,,,,,,,,16,28,Female,1.2857142857142858,0.5,0.4,1.25,2.611111111111111,2.0,2.3333333333333335,2.3333333333333335,2.0,2.2222222222222223,1.75,2.0,1.75,1.25,0.8333333333333333,0.6571428571428573,0.3943427500125835,-0.8904655305335843,,,,,,,,,,,,,,,,,,,-9.624886190745313e-05,0.11338586914275203,-0.00017575987235785625,-0.11870390619712322,2.721,2.2762861847896616,,,,,,,,
34,240617_153943,FalseCHOICE,9.0,35,2.0,1250.0,,,,,,,,,,,38.0,35.0,,,B,,,,,,False,cue1.png,Hard,cue2.png,Easy,Left,Hard,Mid,0.016080499975942,,,,,,,,,,,,,16,28,Female,1.2857142857142858,0.5,0.4,1.25,2.611111111111111,2.0,2.3333333333333335,2.3333333333333335,2.0,2.2222222222222223,1.75,2.0,1.75,1.25,0.8333333333333333,0.7571428571428572,0.4958432888896722,0.3629190672298276,,,,,,,,,,,,,,,,,,,3.9783165486841944e-05,0.21078650019030593,-0.00023295811155466277,-0.29109899840791753,0.6220000000000001,-1.5669608405268602,,,,,,,,
35,240617_154001,FalseCHOICE,9.0,36,2.0,1250.0,,,,,,,,,,,39.0,36.0,,,B,,,,,,False,cue2.png,Easy,cue1.png,Hard,Right,Hard,Mid,0.0168255000025965,,,,,,,,,,,,,16,28,Female,1.2857142857142858,0.5,0.4,1.25,2.611111111111111,2.0,2.3333333333333335,2.3333333333333335,2.0,2.2222222222222223,1.75,2.0,1.75,1.25,0.1428571428571428,0.5714285714285714,0.3191516999911982,-1.818966058994678,,,,,,,,,,,,,,,,,,,-2.0801572366083328e-05,0.1674070710091084,0.00012485422433925267,0.7873448751586528,2.019,0.9909315341121016,,,,,,,,
36,240617_154021,FalseCHOICE,9.0,37,2.0,1250.0,,,,,,,,,,,40.0,37.0,,,B,,,,,,False,cue1.png,Hard,cue2.png,Easy,Left,Hard,Mid,0.0161534000071696,,,,,,,,,,,,,16,28,Female,1.2857142857142858,0.5,0.4,1.25,2.611111111111111,2.0,2.3333333333333335,2.3333333333333335,2.0,2.2222222222222223,1.75,2.0,1.75,1.25,0.8333333333333333,0.8571428571428572,0.5664238200057298,1.2344863670838042,,,,,,,,,,,,,,,,,,,0.00018306334398612064,0.31337689797938706,-0.00018164752512244862,-0.13644925038096498,1.7530000000000001,0.5038883188980974,,,,,,,,
37,240617_154041,FalseCHOICE,9.0,38,2.0,1250.0,,,,,,,,,,,41.0,38.0,,,B,,,,,,False,cue2.png,Easy,cue1.png,Hard,Right,Hard,Mid,0.0154895999585278,,,,,,,,,,,,,16,28,Female,1.2857142857142858,0.5,0.4,1.25,2.611111111111111,2.0,2.3333333333333335,2.3333333333333335,2.0,2.2222222222222223,1.75,2.0,1.75,1.25,0.1428571428571428,0.5714285714285714,0.4567328999866731,-0.12003757128533321,,,,,,,,,,,,,,,,,,,0.0002985318638537367,0.39605380074018853,-0.00022599443188785076,-0.27011051667938357,2.476,1.827693749724131,,,,,,,,
38,240617_154102,FalseCHOICE,9.0,39,2.0,1250.0,,,,,,,,,,,42.0,39.0,,,B,,,,,,False,cue2.png,Easy,cue1.png,Hard,Right,Hard,Mid,0.0165523000177927,,,,,,,,,,,,,16,28,Female,1.2857142857142858,0.5,0.4,1.25,2.611111111111111,2.0,2.3333333333333335,2.3333333333333335,2.0,2.2222222222222223,1.75,2.0,1.75,1.25,0.5476190476190476,0.7142857142857143,0.6146007400064264,1.82940152876265,,,,,,,,,,,,,,,,,,,0.0016459989800849577,1.3608570897210357,4.133778973730703e-05,0.5356269263809036,,,,,,,,,,
39,240617_154124,FalseCHOICE,9.0,40,2.0,1250.0,,,,,,,,,,,43.0,40.0,,,B,,,,,,False,cue1.png,Hard,cue2.png,Easy,Left,Hard,Mid,0.0160772000090219,,,,,,,,,,,,,16,28,Female,1.2857142857142858,0.5,0.4,1.25,2.611111111111111,2.0,2.3333333333333335,2.3333333333333335,2.0,2.2222222222222223,1.75,2.0,1.75,1.25,0.8333333333333333,0.7571428571428572,0.596986644435674,1.6118929683534475,,,,,,,,,,,,,,,,,,,-0.0020151499997122426,-1.2605713181474965,-8.149485805008681e-05,0.16541018650989617,1.9029999999999998,0.7785367485300541,,,,,,,,
40,240617_154146,FalseCHOICE,9.0,41,2.0,1250.0,,,,,,,,,,,44.0,41.0,,,B,,,,,,False,cue1.png,Hard,cue2.png,Easy,Left,Hard,Mid,0.0169410000089555,,,,,,,,,,,,,16,28,Female,1.2857142857142858,0.5,0.4,1.25,2.611111111111111,2.0,2.3333333333333335,2.3333333333333335,2.0,2.2222222222222223,1.75,2.0,1.75,1.25,0.5476190476190476,0.6142857142857143,0.5982172222187122,1.6270888210718035,,,,,,,,,,,,,,,,,,,5.806551791925343e-05,0.22387689293134172,3.987370746245207e-05,0.5312141926617876,0.8480000000000001,-1.1531572065480449,,,,,,,,
41,240617_154206,FalseCHOICE,9.0,42,2.0,1250.0,,,,,,,,,,,45.0,42.0,,,B,,,,,,False,cue2.png,Easy,cue1.png,Hard,Right,Hard,Mid,0.0151613000198267,,,,,,,,,,,,,16,28,Female,1.2857142857142858,0.5,0.4,1.25,2.611111111111111,2.0,2.3333333333333335,2.3333333333333335,2.0,2.2222222222222223,1.75,2.0,1.75,1.25,0.1785714285714285,0.6142857142857143,0.4002268777694553,-0.8178050778569135,,,,,,,,,,,,,,,,,,,5.297435806802999e-05,0.2202315588745626,-0.0007369768201870687,-1.8102078550927987,1.6389999999999998,0.2951555123778093,,,,,,,,
42,240617_154225,FalseCHOICE,9.0,43,2.0,1250.0,,,,,,,,,,,46.0,43.0,,,B,,,,,,False,cue1.png,Hard,cue2.png,Easy,Left,Hard,Mid,0.0162292000022716,,,,,,,,,,,,,16,28,Female,1.2857142857142858,0.5,0.4,1.25,2.611111111111111,2.0,2.3333333333333335,2.3333333333333335,2.0,2.2222222222222223,1.75,2.0,1.75,1.25,0.6904761904761906,0.7571428571428572,0.3518136333441362,-1.415638503785133,,,,,,,,,,,,,,,,,,,-0.00010155475589024646,0.10958678276511886,-8.287357239080556e-05,0.16125475114618268,2.359,1.6134679746112044,,,,,,,,
43,240617_154244,FalseCHOICE,9.0,44,2.0,1250.0,,,,,,,,,,,47.0,44.0,,,B,,,,,,False,cue2.png,Easy,cue1.png,Hard,Right,Hard,Mid,0.0162382999551482,,,,,,,,,,,,,16,28,Female,1.2857142857142858,0.5,0.4,1.25,2.611111111111111,2.0,2.3333333333333335,2.3333333333333335,2.0,2.2222222222222223,1.75,2.0,1.75,1.25,0.8333333333333333,0.8571428571428572,0.477933720004512,0.14176183947928955,,,,,,,,,,,,,,,,,,,-2.342157682693217e-05,0.1655311150837115,0.0001036068422622027,0.7233054144366606,1.8119999999999998,0.6119167012200001,,,,,,,,
44,240617_154306,FalseCHOICE,9.0,45,2.0,1250.0,,,,,,,,,,,48.0,45.0,,,B,,,,,,False,cue1.png,Hard,cue2.png,Easy,Left,Hard,Mid,0.0165150000248104,,,,,,,,,,,,,16,28,Female,1.2857142857142858,0.5,0.4,1.25,2.611111111111111,2.0,2.3333333333333335,2.3333333333333335,2.0,2.2222222222222223,1.75,2.0,1.75,1.25,0.6904761904761906,0.6571428571428573,0.5067647125033545,0.49778282553573483,,,,,,,,,,,,,,,,,,,2.9522146395598043e-05,0.2034394823311862,0.0002436244947019899,1.1453176379325851,,,,,,,,,,
45,240617_154328,FalseCHOICE,9.0,46,2.0,1250.0,,,,,,,,,,,49.0,46.0,,,B,,,,,,False,cue1.png,Hard,cue2.png,Easy,Left,Hard,Mid,0.0152136000106111,,,,,,,,,,,,,16,28,Female,1.2857142857142858,0.5,0.4,1.25,2.611111111111111,2.0,2.3333333333333335,2.3333333333333335,2.0,2.2222222222222223,1.75,2.0,1.75,1.25,0.8333333333333333,0.8571428571428572,0.5576412099879235,1.1260338579024392,,,,,,,,,,,,,,,,,,,,,-0.0009206481228443784,-2.363791874508758,1.3490000000000002,-0.23583145157730734,,,,,,,,
46,240617_154347,FalseCHOICE,9.0,47,2.0,1250.0,,,,,,,,,,,50.0,47.0,,,B,,,,,,False,cue2.png,Easy,cue1.png,Hard,Right,Hard,Mid,0.0166962000075727,,,,,,,,,,,,,16,28,Female,1.2857142857142858,0.5,0.4,1.25,2.611111111111111,2.0,2.3333333333333335,2.3333333333333335,2.0,2.2222222222222223,1.75,2.0,1.75,1.25,0.8333333333333333,0.8571428571428572,0.4549107500002719,-0.14253848362566732,,,,,,,,,,,,,,,,,,,8.465419282964676e-05,0.24291471633659065,0.0006131902979667546,2.259186379810613,0.9990000000000001,-0.8766777873852077,,,,,,,,
47,240617_154407,FalseCHOICE,9.0,48,2.0,1250.0,,,,,,,,,,,51.0,48.0,,,B,,,,,,False,cue2.png,Easy,cue1.png,Hard,Right,Hard,Mid,0.0167856999905779,,,,,,,,,,,,,16,28,Female,1.2857142857142858,0.5,0.4,1.25,2.611111111111111,2.0,2.3333333333333335,2.3333333333333335,2.0,2.2222222222222223,1.75,2.0,1.75,1.25,0.9166666666666666,0.9,0.5027297777705826,0.44795722753412115,,,,,,,,,,,,,,,,,,,-0.00028259084655307297,-0.020037319813543272,-0.00027760533550192767,-0.42566541858846135,2.0,0.9561427330253868,,,,,,,,
48,240617_154430,FalseCHOICE,9.0,49,2.0,1250.0,,,,,,,,,,,52.0,49.0,,,B,,,,,,False,cue1.png,Hard,cue2.png,Easy,Left,Hard,Mid,0.0143138999701477,,,,,,,,,,,,,16,28,Female,1.2857142857142858,0.5,0.4,1.25,2.611111111111111,2.0,2.3333333333333335,2.3333333333333335,2.0,2.2222222222222223,1.75,2.0,1.75,1.25,0.8333333333333333,0.6571428571428573,0.5227614499963238,0.6953193569666826,,,,,,,,,,,,,,,,,,,,,,,,,,,,,,,,
49,240617_154450,FalseCHOICE,9.0,50,2.0,1250.0,,,,,,,,,,,53.0,50.0,,,B,,,,,,False,cue2.png,Easy,cue1.png,Hard,Right,Hard,Mid,0.0167974000214599,,,,,,,,,,,,,16,28,Female,1.2857142857142858,0.5,0.4,1.25,2.611111111111111,2.0,2.3333333333333335,2.3333333333333335,2.0,2.2222222222222223,1.75,2.0,1.75,1.25,0.8333333333333333,0.8571428571428572,0.5472270899976138,0.9974345643467608,,,,,,,,,,,,,,,,,,,,,-0.00014117742079811525,-0.014472639479218051,1.9170000000000003,0.8041706019623709,,,,,,,,
0,240617_150027,OFFLINERATING,9.0,1,1.0,,,,,,,,,,,,,,,,,T0,cue2.png,Easy,99.0,2.2692285000230186,,,,,,,,,,,,,,,,,,,,,,16,28,Female,1.2857142857142858,0.5,0.4,1.25,2.611111111111111,2.0,2.3333333333333335,2.3333333333333335,2.0,2.2222222222222223,1.75,2.0,1.75,1.25,,,,,,,,,,,,,,,,,,,,,,,,,,,,,0.8291324118243638,,,,,,,
1,240617_150035,OFFLINERATING,9.0,2,3.0,,,,,,,,,,,,,,,,,T0,cue1.png,Hard,100.0,2.1437043999903835,,,,,,,,,,,,,,,,,,,,,,16,28,Female,1.2857142857142858,0.5,0.4,1.25,2.611111111111111,2.0,2.3333333333333335,2.3333333333333335,2.0,2.2222222222222223,1.75,2.0,1.75,1.25,,,,,,,,,,,,,,,,,,,,,,,,,,,,,0.88487240589659,,,,,1.434,0.0395374004947635,
2,240617_151937,OFFLINERATING,9.0,3,1.0,,,,,,,,,,,,,,,,,T1,cue2.png,Easy,91.0,1.881409999972675,,,,,,,,,,,,,,,,,,,,,,16,28,Female,1.2857142857142858,0.5,0.4,1.25,2.611111111111111,2.0,2.3333333333333335,2.3333333333333335,2.0,2.2222222222222223,1.75,2.0,1.75,1.25,,,,,,,,,,,,,,,,,,,,,,,,,,,,,0.3832124592465547,,,,,1.093,-1.645744295594529,
3,240617_151945,OFFLINERATING,9.0,4,3.0,,,,,,,,,,,,,,,,,T1,cue1.png,Hard,75.0,1.7520965000148865,,,,,,,,,,,,,,,,,,,,,,16,28,Female,1.2857142857142858,0.5,0.4,1.25,2.611111111111111,2.0,2.3333333333333335,2.3333333333333335,2.0,2.2222222222222223,1.75,2.0,1.75,1.25,,,,,,,,,,,,,,,,,,,,,,,,,,,,,-0.5086274459090635,-7.091732229624632e-05,-0.7302613489843465,0.00011847037977955402,0.012029044366994208,1.5889999999999997,0.8055745350808047,
4,240617_152512,OFFLINERATING,9.0,5,1.0,,,,,,,,,,,,,,,,,T2,cue2.png,Easy,57.0,2.753005899954587,,,,,,,,,,,,,,,,,,,,,,16,28,Female,1.2857142857142858,0.5,0.4,1.25,2.611111111111111,2.0,2.3333333333333335,2.3333333333333335,2.0,2.2222222222222223,1.75,2.0,1.75,1.25,,,,,,,,,,,,,,,,,,,,,,,,,,,,,-1.511947339209134,-7.815013790538582e-05,-0.7445600134664158,0.0003145495218216266,1.2186860439014187,1.5879999999999999,0.8006323600189598,
5,240617_152521,OFFLINERATING,9.0,6,3.0,,,,,,,,,,,,,,,,,T2,cue1.png,Hard,99.0,2.419270999962464,,,,,,,,,,,,,,,,,,,,,,16,28,Female,1.2857142857142858,0.5,0.4,1.25,2.611111111111111,2.0,2.3333333333333335,2.3333333333333335,2.0,2.2222222222222223,1.75,2.0,1.75,1.25,,,,,,,,,,,,,,,,,,,,,,,,,,,,,0.8291324118243638,0.00018831268356124618,-0.2177855611656502,,,,,
6,240617_154529,OFFLINERATING,9.0,7,1.0,,,,,,,,,,,,,,,,,T3,cue2.png,Easy,55.0,1.2425748000387102,,,,,,,,,,,,,,,,,,,,,,16,28,Female,1.2857142857142858,0.5,0.4,1.25,2.611111111111111,2.0,2.3333333333333335,2.3333333333333335,2.0,2.2222222222222223,1.75,2.0,1.75,1.25,,,,,,,,,,,,,,,,,,,,,,,,,,,,,-1.6234273273535862,0.0011546628347129072,1.6926069236164125,-8.347284302443261e-05,-1.2307150882684126,,,
7,240617_154537,OFFLINERATING,9.0,8,3.0,,,,,,,,,,,,,,,,,T3,cue1.png,Hard,97.0,1.8525418000062928,,,,,,,,,,,,,,,,,,,,,,16,28,Female,1.2857142857142858,0.5,0.4,1.25,2.611111111111111,2.0,2.3333333333333335,2.3333333333333335,2.0,2.2222222222222223,1.75,2.0,1.75,1.25,,,,,,,,,,,,,,,,,,,,,,,,,,,,,0.7176524236799116,,,,,,,
0,240617_152552,LEARNINGCHECK,9.0,1,,,,,,,,,,,,1.0,2.0,1.0,,,B,,,,,,,,,,,,,,,cue2.png,Easy,Left,Right,Hard,0.0142952000023797,0.0,,,,,,16,28,Female,1.2857142857142858,0.5,0.4,1.25,2.611111111111111,2.0,2.3333333333333335,2.3333333333333335,2.0,2.2222222222222223,1.75,2.0,1.75,1.25,,,,,,,,,,,,,,,,,,,,,,,,,,,,,,,,,,,,
1,240617_152600,LEARNINGCHECK,9.0,2,,,,,,,,,,,,2.0,3.0,2.0,,,B,,,,,,,,,,,,,,,cue1.png,Hard,Right,Middle,unsure,0.01501539995661,0.0,,,,,,16,28,Female,1.2857142857142858,0.5,0.4,1.25,2.611111111111111,2.0,2.3333333333333335,2.3333333333333335,2.0,2.2222222222222223,1.75,2.0,1.75,1.25,,,,,,,,,,,,,,,,,,,,,,,,,,,,,,,,,,,,
2,240617_154612,LEARNINGCHECK,9.0,1,,,,,,,,,,,,1.0,2.0,1.0,,,B,,,,,,,,,,,,,,,cue2.png,Easy,Middle,Right,Hard,0.0159957000287249,0.0,,,,,,16,28,Female,1.2857142857142858,0.5,0.4,1.25,2.611111111111111,2.0,2.3333333333333335,2.3333333333333335,2.0,2.2222222222222223,1.75,2.0,1.75,1.25,,,,,,,,,,,,,,,,,,,,,,,,,,,,,,,,,,,,
3,240617_154617,LEARNINGCHECK,9.0,2,,,,,,,,,,,,2.0,3.0,2.0,,,B,,,,,,,,,,,,,,,cue1.png,Hard,Middle,Middle,Mid,0.0161901999963447,1.0,,,,,,16,28,Female,1.2857142857142858,0.5,0.4,1.25,2.611111111111111,2.0,2.3333333333333335,2.3333333333333335,2.0,2.2222222222222223,1.75,2.0,1.75,1.25,,,,,,,,,,,,,,,,,,,,,,,,,,,,,,,,,,,,
0,240617_154645,DEMANDRATING,9.0,-1,,,,,,,,,,,,,,,,,,,,,,,,,,,,,,,,,,,,,,,1.0,MentalDemand,1.0,99.0,4.769657399971038,16,28,Female,1.2857142857142858,0.5,0.4,1.25,2.611111111111111,2.0,2.3333333333333335,2.3333333333333335,2.0,2.2222222222222223,1.75,2.0,1.75,1.25,,,,,,,,,,,,,,,,,,,,,,,,,,,,,,,,,,,,0.8722882422191969
1,240617_154652,DEMANDRATING,9.0,-1,,,,,,,,,,,,,,,,,,,,,,,,,,,,,,,,,,,,,,,2.0,Effort,1.0,85.0,5.019565000024159,16,28,Female,1.2857142857142858,0.5,0.4,1.25,2.611111111111111,2.0,2.3333333333333335,2.3333333333333335,2.0,2.2222222222222223,1.75,2.0,1.75,1.25,,,,,,,,,,,,,,,,,,,,,,,,,,,,,,,,,,,,0.28138330394167654
2,240617_154700,DEMANDRATING,9.0,-1,,,,,,,,,,,,,,,,,,,,,,,,,,,,,,,,,,,,,,,3.0,Frustration,1.0,77.0,6.338014699984342,16,28,Female,1.2857142857142858,0.5,0.4,1.25,2.611111111111111,2.0,2.3333333333333335,2.3333333333333335,2.0,2.2222222222222223,1.75,2.0,1.75,1.25,,,,,,,,,,,,,,,,,,,,,,,,,,,,,,,,,,,,-0.05627666078833507
3,240617_154711,DEMANDRATING,9.0,-1,,,,,,,,,,,,,,,,,,,,,,,,,,,,,,,,,,,,,,,4.0,MentalDemand,2.0,33.0,10.281416699988768,16,28,Female,1.2857142857142858,0.5,0.4,1.25,2.611111111111111,2.0,2.3333333333333335,2.3333333333333335,2.0,2.2222222222222223,1.75,2.0,1.75,1.25,,,,,,,,,,,,,,,,,,,,,,,,,,,,,,,,,,,,-1.913406466803399
4,240617_154718,DEMANDRATING,9.0,-1,,,,,,,,,,,,,,,,,,,,,,,,,,,,,,,,,,,,,,,5.0,Effort,2.0,88.0,4.741690299997572,16,28,Female,1.2857142857142858,0.5,0.4,1.25,2.611111111111111,2.0,2.3333333333333335,2.3333333333333335,2.0,2.2222222222222223,1.75,2.0,1.75,1.25,,,,,,,,,,,,,,,,,,,,,,,,,,,,,,,,,,,,0.4080057907154309
5,240617_154724,DEMANDRATING,9.0,-1,,,,,,,,,,,,,,,,,,,,,,,,,,,,,,,,,,,,,,,6.0,Frustration,2.0,83.0,4.640112199995201,16,28,Female,1.2857142857142858,0.5,0.4,1.25,2.611111111111111,2.0,2.3333333333333335,2.3333333333333335,2.0,2.2222222222222223,1.75,2.0,1.75,1.25,,,,,,,,,,,,,,,,,,,,,,,,,,,,,,,,,,,,0.19696831275917365
6,240617_154729,DEMANDRATING,9.0,-1,,,,,,,,,,,,,,,,,,,,,,,,,,,,,,,,,,,,,,,7.0,MentalDemand,3.0,40.0,3.159704599995166,16,28,Female,1.2857142857142858,0.5,0.4,1.25,2.611111111111111,2.0,2.3333333333333335,2.3333333333333335,2.0,2.2222222222222223,1.75,2.0,1.75,1.25,,,,,,,,,,,,,,,,,,,,,,,,,,,,,,,,,,,,-1.6179539976646389
7,240617_154736,DEMANDRATING,9.0,-1,,,,,,,,,,,,,,,,,,,,,,,,,,,,,,,,,,,,,,,8.0,Effort,3.0,100.0,6.016892899991944,16,28,Female,1.2857142857142858,0.5,0.4,1.25,2.611111111111111,2.0,2.3333333333333335,2.3333333333333335,2.0,2.2222222222222223,1.75,2.0,1.75,1.25,,,,,,,,,,,,,,,,,,,,,,,,,,,,,,,,,,,,0.9144957378104484
8,240617_154741,DEMANDRATING,9.0,-1,,,,,,,,,,,,,,,,,,,,,,,,,,,,,,,,,,,,,,,9.0,Frustration,3.0,100.0,3.033804999955464,16,28,Female,1.2857142857142858,0.5,0.4,1.25,2.611111111111111,2.0,2.3333333333333335,2.3333333333333335,2.0,2.2222222222222223,1.75,2.0,1.75,1.25,,,,,,,,,,,,,,,,,,,,,,,,,,,,,,,,,,,,0.9144957378104484
