,END,Phase,Block,TrialN,NbackLevel,ISI,Letter_Resp,Letter_RT,Letter_Accuracy,Trial_A_measure,Trial_ACC,Trial_RT,TrialCountCali,CaliEnd_A_measure,ISI_calibrated,TrialIndex,TrialNumber_total,TrialNumber_valid,CueLearning,TrialDemandLearning,CueMapping,OfflineRatingTimePoint,CueFigure,TrialDemand,OfflineRating,OfflineRatingRT,PhaseType,CueLeft,CueDemandLeft,CueRight,CueDemandRight,Choice,ChoiceDemand,TaskDemand,ChoiceRT,CueCheck,CueDemandCheck,CorrectAnswer,Answer,AnswerDemand,AnswerRT,AnswerACC,DemandRatingQuesIndex,QuesTLX,DemandLevel,DemandRating,DemandRatingRT,PID,Age,Gender,BAI_bis,BAI_bas_d,BAI_bas_rr,BAI_bas_fs,NFC,BFI_ext,BFI_agr,BFI_con,BFI_neu,BFI_open,UPPS_lps,UPPS_lpm,UPPS_pu,UPPS_ss,Task_A_measure,Task_ACC,Task_RT,Task_RT_z,cue_i_on_zyg_values,cue_i_on_zyg_zvalues,cue_e_on_zyg_values,cue_e_on_zyg_zvalues,cue_i_on_cor_values,cue_i_on_cor_zvalues,cue_e_on_cor_values,cue_e_on_cor_zvalues,cue_i_on_scr_values,cue_i_on_scr_zvalues,cue_e_on_scr_values,cue_e_on_scr_zvalues,cue_e_true_zyg_values,cue_e_true_zyg_zvalues,cue_e_true_cor_values,cue_e_true_cor_zvalues,cue_e_true_scr_values,cue_e_true_scr_zvalues,cue_e_false_zyg_values,cue_e_false_zyg_zvalues,cue_e_false_cor_values,cue_e_false_cor_zvalues,cue_e_false_scr_values,cue_e_false_scr_zvalues,OfflineRating_z,cue_i_off_zyg_values,cue_i_off_zyg_zvalues,cue_i_off_cor_values,cue_i_off_cor_zvalues,cue_i_off_scr_values,cue_i_off_scr_zvalues,DemandRating_z
0,240618_144720,PRACTICE,0.0,1,3.0,1750.0,,,,,,,,,,15.0,1.0,1.0,cue1.png,Hard,B,,,,,,,,,,,,,,,,,,,,,,,,,,,18,22,Female,0.2857142857142857,1.0,0.0,1.0,1.7222222222222223,2.625,2.111111111111111,2.2222222222222223,1.625,2.5555555555555554,1.0,1.5,1.0,1.5,,,,,,,,,,,,,,,,,,,,,,,,,,,,,,,,,,,,
0,240618_145055,LEARNING,1.0,1,1.0,1750.0,,,,,,,,,,1.0,1.0,1.0,cue2.png,Easy,B,,,,,,,,,,,,,,,,,,,,,,,,,,,18,22,Female,0.2857142857142857,1.0,0.0,1.0,1.7222222222222223,2.625,2.111111111111111,2.2222222222222223,1.625,2.5555555555555554,1.0,1.5,1.0,1.5,0.75,0.8333333333333334,0.7756274249841226,1.0616123348384081,0.00994745693791873,-0.33342612327990023,0.0072732256908875255,-0.5482541776533137,,,,,3.710238327967596e+45,-0.16972419565037677,,,,,,,,,,,,,,,,,,,,,,
1,240618_145119,LEARNING,1.0,2,3.0,1750.0,,,,,,,,,,2.0,2.0,2.0,cue1.png,Hard,B,,,,,,,,,,,,,,,,,,,,,,,,,,,18,22,Female,0.2857142857142857,1.0,0.0,1.0,1.7222222222222223,2.625,2.111111111111111,2.2222222222222223,1.625,2.5555555555555554,1.0,1.5,1.0,1.5,0.1666666666666666,0.6666666666666667,0.9747842499637044,2.61055419403807,0.017176722727024883,-0.27556559757017834,0.01458006047343675,-0.2535610049203421,,,,,,,4.176552429341276e+44,-0.19207004656252508,,,,,,,,,,,,,,,,,,,,
2,240618_145145,LEARNING,1.0,3,1.0,1750.0,,,,,,,,,,3.0,3.0,3.0,cue2.png,Easy,B,,,,,,,,,,,,,,,,,,,,,,,,,,,18,22,Female,0.2857142857142857,1.0,0.0,1.0,1.7222222222222223,2.625,2.111111111111111,2.2222222222222223,1.625,2.5555555555555554,1.0,1.5,1.0,1.5,0.875,0.625,0.7789152799872682,1.0871836213954884,0.040489869630397066,-0.08897528879915823,,,0.010557845227597836,-0.5044077680398229,0.007988861055224613,-0.39403596147259656,,,-1.264306136293947e+45,-0.19262627542148153,,,,,,,,,,,,,,,,,,,,
3,240618_145204,LEARNING,1.0,4,3.0,1750.0,,,,,,,,,,4.0,4.0,4.0,cue1.png,Hard,B,,,,,,,,,,,,,,,,,,,,,,,,,,,18,22,Female,0.2857142857142857,1.0,0.0,1.0,1.7222222222222223,2.625,2.111111111111111,2.2222222222222223,1.625,2.5555555555555554,1.0,1.5,1.0,1.5,1.0,1.0,0.4025496625399682,-1.839999312392583,0.005866233545836338,-0.36609081398203847,,,,,,,-4.1807567825494854e+44,-0.17175372324778937,-1.4513187201188027e+45,-0.1926881209533683,,,,,,,,,,,,,,,,,,,,
4,240618_145223,LEARNING,1.0,5,3.0,1750.0,,,,,,,,,,5.0,5.0,5.0,cue1.png,Hard,B,,,,,,,,,,,,,,,,,,,,,,,,,,,18,22,Female,0.2857142857142857,1.0,0.0,1.0,1.7222222222222223,2.625,2.111111111111111,2.2222222222222223,1.625,2.5555555555555554,1.0,1.5,1.0,1.5,0.75,0.8333333333333334,0.5014854875043966,-1.0705261061513944,0.07583643646070157,0.19392632230457565,,,0.09053968121985215,3.0840566544971613,,,1.2209838425979636e+49,5.830951619477851,1.8484643826777776e+49,5.920710044026816,,,,,,,,,,,,,,,,,,,,
5,240618_145245,LEARNING,1.0,6,1.0,1750.0,,,,,,,,,,6.0,6.0,6.0,cue2.png,Easy,B,,,,,,,,,,,,,,,,,,,,,,,,,,,18,22,Female,0.2857142857142857,1.0,0.0,1.0,1.7222222222222223,2.625,2.111111111111111,2.2222222222222223,1.625,2.5555555555555554,1.0,1.5,1.0,1.5,0.1666666666666666,0.5416666666666667,0.55458681431732,-0.6575306294058137,0.077473003302163,0.20702483335237126,0.009423069809504536,-0.46154845581194304,,,0.006387325971758067,-0.4601077636537893,-5.300011577950567e+43,-0.17157424781833608,-2.1049371464665002e+44,-0.1922777770028579,,,,,,,,,,,,,,,,,,,,
6,240618_145303,LEARNING,1.0,7,3.0,1750.0,,,,,,,,,,7.0,7.0,7.0,cue1.png,Hard,B,,,,,,,,,,,,,,,,,,,,,,,,,,,18,22,Female,0.2857142857142857,1.0,0.0,1.0,1.7222222222222223,2.625,2.111111111111111,2.2222222222222223,1.625,2.5555555555555554,1.0,1.5,1.0,1.5,0.75,0.8333333333333334,0.338887625010102,-2.335130698334588,0.593811518615331,4.33961848971192,0.006689350019637521,-0.5718025647679635,0.08749793885843439,2.9475858657104634,0.01244439570647459,-0.21022156544223475,,,1.8326491468936586e+44,-0.19214756003366665,,,,,,,,,,,,,,,,,,,,
7,240618_145324,LEARNING,1.0,8,3.0,1750.0,,,,,,,,,,8.0,8.0,8.0,cue1.png,Hard,B,,,,,,,,,,,,,,,,,,,,,,,,,,,18,22,Female,0.2857142857142857,1.0,0.0,1.0,1.7222222222222223,2.625,2.111111111111111,2.2222222222222223,1.625,2.5555555555555554,1.0,1.5,1.0,1.5,1.0,1.0,0.7191611500020372,0.6224459795714077,0.017300130294659866,-0.27457788637678465,0.013855518724418892,-0.28278261908705477,0.013976142125927377,-0.3510424863712201,0.012980761491081303,-0.18809363681728852,,,4.1896659435665555e+44,-0.19206961289531105,,,,,,,,,,,,,,,,,,,,
8,240618_145346,LEARNING,1.0,9,1.0,1750.0,,,,,,,,,,9.0,9.0,9.0,cue2.png,Easy,B,,,,,,,,,,,,,,,,,,,,,,,,,,,18,22,Female,0.2857142857142857,1.0,0.0,1.0,1.7222222222222223,2.625,2.111111111111111,2.2222222222222223,1.625,2.5555555555555554,1.0,1.5,1.0,1.5,1.0,1.0,0.7262601999827893,0.6776588284248926,0.044991451152030536,-0.052946198022142135,0.007443710876359596,-0.5413783111932259,0.06224182684306099,1.8144453433104368,0.0028649252961920535,-0.6054254423243977,,,3.0225919103762967e+48,0.8073705816591813,,,,,,,,,,,,,,,,,,,,
9,240618_145407,LEARNING,1.0,10,1.0,1750.0,,,,,,,,,,10.0,10.0,10.0,cue2.png,Easy,B,,,,,,,,,,,,,,,,,,,,,,,,,,,18,22,Female,0.2857142857142857,1.0,0.0,1.0,1.7222222222222223,2.625,2.111111111111111,2.2222222222222223,1.625,2.5555555555555554,1.0,1.5,1.0,1.5,0.75,0.8333333333333334,0.6561193874949822,0.13213878153833772,,,0.07269924846314298,2.090453662861037,0.005020628399681127,-0.7528404945500832,0.06180005267250988,1.8259606182937431,,,,,,,,,,,,,,,,,,,,,,,,
10,240618_145427,LEARNING,1.0,11,3.0,1750.0,,,,,,,,,,11.0,11.0,11.0,cue1.png,Hard,B,,,,,,,,,,,,,,,,,,,,,,,,,,,18,22,Female,0.2857142857142857,1.0,0.0,1.0,1.7222222222222223,2.625,2.111111111111111,2.2222222222222223,1.625,2.5555555555555554,1.0,1.5,1.0,1.5,1.0,1.0,0.6115336125221802,-0.2146270056111114,,,0.026216558140314872,0.21575252398851183,0.009717674228953772,-0.5421028734356726,,,1.2279322935484492e+44,-0.17148782574752125,3.8030884650185646e+44,-0.19208239710976724,,,,,,,,,,,,,,,,,,,,
11,240618_145449,LEARNING,1.0,12,1.0,1750.0,,,,,,,,,,12.0,12.0,12.0,cue2.png,Easy,B,,,,,,,,,,,,,,,,,,,,,,,,,,,18,22,Female,0.2857142857142857,1.0,0.0,1.0,1.7222222222222223,2.625,2.111111111111111,2.2222222222222223,1.625,2.5555555555555554,1.0,1.5,1.0,1.5,0.75,0.8333333333333334,0.8304604375152849,1.4880759942397088,0.06705765200290592,0.1236639888065019,,,0.005657408697247457,-0.724270714743946,0.03222206313350711,0.6057119369421412,,,,,,,,,,,,,,,,,,,,,,,,
12,240618_145509,LEARNING,1.0,13,1.0,1750.0,,,,,,,,,,13.0,13.0,13.0,cue2.png,Easy,B,,,,,,,,,,,,,,,,,,,,,,,,,,,18,22,Female,0.2857142857142857,1.0,0.0,1.0,1.7222222222222223,2.625,2.111111111111111,2.2222222222222223,1.625,2.5555555555555554,1.0,1.5,1.0,1.5,0.1666666666666666,0.6666666666666667,0.5382329625135753,-0.784722683308888,,,0.03186942344438002,0.4437391777261379,0.010847911128106494,-0.49139367363634767,0.015878683962413164,-0.06853899062881393,-6.588584933663392e+43,-0.17158058259612374,-2.579481963751013e+44,-0.19229347031933364,,,,,,,,,,,,,,,,,,,,
13,240618_145530,LEARNING,1.0,14,1.0,1750.0,,,,,,,,,,14.0,14.0,14.0,cue2.png,Easy,B,,,,,,,,,,,,,,,,,,,,,,,,,,,18,22,Female,0.2857142857142857,1.0,0.0,1.0,1.7222222222222223,2.625,2.111111111111111,2.2222222222222223,1.625,2.5555555555555554,1.0,1.5,1.0,1.5,0.75,0.8333333333333334,0.7033146124886116,0.4991995616771725,0.03625962898113004,-0.12283266173100732,0.059563241830151784,1.5606631876524295,,,,,,,-2.9316966974073907e+44,-0.1923051181491726,,,,,,,,,,,,,,,,,,,,
14,240618_145550,LEARNING,1.0,15,3.0,1750.0,,,,,,,,,,15.0,15.0,15.0,cue1.png,Hard,B,,,,,,,,,,,,,,,,,,,,,,,,,,,18,22,Female,0.2857142857142857,1.0,0.0,1.0,1.7222222222222223,2.625,2.111111111111111,2.2222222222222223,1.625,2.5555555555555554,1.0,1.5,1.0,1.5,0.1666666666666666,0.6666666666666667,0.5619254375051241,-0.6004545003519969,0.03465717999143306,-0.1356581053751736,0.026653576509067543,0.2333779847335516,0.05618707196600214,1.5427927587709658,0.008397871342713097,-0.3771621214399961,,,-1.4718688665516236e+44,-0.1922568412755976,,,,,,,,,,,,,,,,,,,,
15,240618_145610,LEARNING,1.0,16,1.0,1750.0,,,,,,,,,,16.0,16.0,16.0,cue2.png,Easy,B,,,,,,,,,,,,,,,,,,,,,,,,,,,18,22,Female,0.2857142857142857,1.0,0.0,1.0,1.7222222222222223,2.625,2.111111111111111,2.2222222222222223,1.625,2.5555555555555554,1.0,1.5,1.0,1.5,1.0,1.0,0.5493675250036176,-0.6981236429472577,,,,,0.008535055869664286,-0.5951622194121812,,,,,,,,,,,,,,,,,,,,,,,,,,
16,240618_145630,LEARNING,1.0,17,1.0,1750.0,,,,,,,,,,17.0,17.0,17.0,cue2.png,Easy,B,,,,,,,,,,,,,,,,,,,,,,,,,,,18,22,Female,0.2857142857142857,1.0,0.0,1.0,1.7222222222222223,2.625,2.111111111111111,2.2222222222222223,1.625,2.5555555555555554,1.0,1.5,1.0,1.5,0.75,0.8333333333333334,0.53365333750844,-0.8203407088052214,0.5835879876284036,4.2577929081425365,,,0.03665087927709956,0.6662820917397261,0.012756949243770624,-0.1973270770851291,,,,,,,,,,,,,,,,,,,,,,,,
17,240618_145651,LEARNING,1.0,18,3.0,1750.0,,,,,,,,,,18.0,18.0,18.0,cue1.png,Hard,B,,,,,,,,,,,,,,,,,,,,,,,,,,,18,22,Female,0.2857142857142857,1.0,0.0,1.0,1.7222222222222223,2.625,2.111111111111111,2.2222222222222223,1.625,2.5555555555555554,1.0,1.5,1.0,1.5,0.75,0.8333333333333334,0.694320737500675,0.42924971463250267,,,0.02003893352628417,-0.033398285033457736,,,0.015381700521486488,-0.0890421890508932,,,,,,,,,,,,,,,,,,,,,,,,
18,240618_145714,LEARNING,1.0,19,3.0,1750.0,,,,,,,,,,19.0,19.0,19.0,cue1.png,Hard,B,,,,,,,,,,,,,,,,,,,,,,,,,,,18,22,Female,0.2857142857142857,1.0,0.0,1.0,1.7222222222222223,2.625,2.111111111111111,2.2222222222222223,1.625,2.5555555555555554,1.0,1.5,1.0,1.5,0.1666666666666666,0.6666666666666667,0.8617018000222743,1.731055636692173,,,0.013214695445567316,-0.3086277696653783,0.0707900702601271,2.1979707650111635,0.009293276811675504,-0.3402219047516502,5.690889919441561e+43,-0.17152021525716032,,,,,,,,,,,,,,,,,,,,,,
19,240618_145734,LEARNING,1.0,20,3.0,1750.0,,,,,,,,,,20.0,20.0,20.0,cue1.png,Hard,B,,,,,,,,,,,,,,,,,,,,,,,,,,,18,22,Female,0.2857142857142857,1.0,0.0,1.0,1.7222222222222223,2.625,2.111111111111111,2.2222222222222223,1.625,2.5555555555555554,1.0,1.5,1.0,1.5,0.75,0.8333333333333334,0.6014923625043593,-0.29272281012540136,,,0.0338959078567935,0.5254696586745098,0.011583716153004619,-0.45838105119509037,0.06251833814205415,1.8555936971711848,,,1.4576671012910475e+44,-0.19215996078423858,,,,,,,,,,,,,,,,,,,,
20,240618_145755,LEARNING,1.0,21,1.0,1750.0,,,,,,,,,,21.0,21.0,21.0,cue2.png,Easy,B,,,,,,,,,,,,,,,,,,,,,,,,,,,18,22,Female,0.2857142857142857,1.0,0.0,1.0,1.7222222222222223,2.625,2.111111111111111,2.2222222222222223,1.625,2.5555555555555554,1.0,1.5,1.0,1.5,0.75,0.8333333333333334,0.6509556750097545,0.0919780166834995,,,,,0.016647814470378264,-0.23117525604574418,0.008021247273429741,-0.3926998584894421,1.768304278856435e+43,-0.17153949914835362,4.36052912599744e+43,-0.1921937458224379,,,,,,,,,,,,,,,,,,,,
21,240618_145816,LEARNING,1.0,22,3.0,1750.0,,,,,,,,,,22.0,22.0,22.0,cue1.png,Hard,B,,,,,,,,,,,,,,,,,,,,,,,,,,,18,22,Female,0.2857142857142857,1.0,0.0,1.0,1.7222222222222223,2.625,2.111111111111111,2.2222222222222223,1.625,2.5555555555555554,1.0,1.5,1.0,1.5,0.75,0.8333333333333334,0.6760100999817951,0.2868387632401374,0.043890355043364686,-0.061758987807840754,0.03293222199803392,0.48660308351750586,0.041883777445751696,0.9010612596846286,,,-8.85182773839395e+42,-0.1715525440020026,-4.850253919815873e+43,-0.19222420611366062,,,,,,,,,,,,,,,,,,,,
22,240618_145836,LEARNING,1.0,23,3.0,1750.0,,,,,,,,,,23.0,23.0,23.0,cue1.png,Hard,B,,,,,,,,,,,,,,,,,,,,,,,,,,,18,22,Female,0.2857142857142857,1.0,0.0,1.0,1.7222222222222223,2.625,2.111111111111111,2.2222222222222223,1.625,2.5555555555555554,1.0,1.5,1.0,1.5,1.0,1.0,0.5816162499977509,-0.4473092405066056,0.07494612000994205,0.18680053949457212,0.011244383476255074,-0.3880927504388727,,,0.015155587396845242,-0.09837055269156383,-3.226155136825091e+43,-0.17156405249677384,-1.2150822120244585e+44,-0.19224834927633966,,,,,,,,,,,,,,,,,,,,
23,240618_145856,LEARNING,1.0,24,3.0,1750.0,,,,,,,,,,24.0,24.0,24.0,cue1.png,Hard,B,,,,,,,,,,,,,,,,,,,,,,,,,,,18,22,Female,0.2857142857142857,1.0,0.0,1.0,1.7222222222222223,2.625,2.111111111111111,2.2222222222222223,1.625,2.5555555555555554,1.0,1.5,1.0,1.5,0.1666666666666666,0.6666666666666667,0.4538124874961795,-1.4413027806335466,0.04087754341460743,-0.08587248284172748,0.0054857403970603865,-0.6203455452738733,,,0.00681413199437953,-0.44249975532009234,-4.2986495936184933e+43,-0.17156932500534477,,,,,,,,,,,,,,,,,,,,,,
24,240618_145916,LEARNING,1.0,25,1.0,1750.0,,,,,,,,,,25.0,25.0,25.0,cue2.png,Easy,B,,,,,,,,,,,,,,,,,,,,,,,,,,,18,22,Female,0.2857142857142857,1.0,0.0,1.0,1.7222222222222223,2.625,2.111111111111111,2.2222222222222223,1.625,2.5555555555555554,1.0,1.5,1.0,1.5,1.0,1.0,0.6102323124796385,-0.22474786442414874,0.023951402487056822,-0.2213434201228989,0.005777840315898949,-0.6085648147114193,0.013394925143875424,-0.37711936290190806,0.01125971394813213,-0.25909596076016017,-4.2163250963770297e+43,-0.1715689202884583,-1.5524624462975609e+44,-0.1922595065255525,,,,,,,,,,,,,,,,,,,,
25,240618_145937,LEARNING,1.0,26,1.0,1750.0,,,,,,,,,,26.0,26.0,26.0,cue2.png,Easy,B,,,,,,,,,,,,,,,,,,,,,,,,,,,18,22,Female,0.2857142857142857,1.0,0.0,1.0,1.7222222222222223,2.625,2.111111111111111,2.2222222222222223,1.625,2.5555555555555554,1.0,1.5,1.0,1.5,0.75,0.8333333333333334,0.6866448125365423,0.36955022160112,0.006767053002279026,-0.3588809687723267,0.014241928811670116,-0.2671982493870519,,,0.010460085270877972,-0.2920848776608052,-2.9176673874758993e+43,-0.17156253593480733,-1.0521950805460851e+44,-0.19224296255792866,,,,,,,,,,,,,,,,,,,,
26,240618_145958,LEARNING,1.0,27,3.0,1750.0,,,,,,,,,,27.0,27.0,27.0,cue1.png,Hard,B,,,,,,,,,,,,,,,,,,,,,,,,,,,18,22,Female,0.2857142857142857,1.0,0.0,1.0,1.7222222222222223,2.625,2.111111111111111,2.2222222222222223,1.625,2.5555555555555554,1.0,1.5,1.0,1.5,0.75,0.8333333333333334,0.6379108749970328,-0.009477892681717816,0.007861662956434513,-0.35012009190845894,0.018552120941236813,-0.0933631714701062,0.011537185662089217,-0.46046868783335493,0.01458049919268815,-0.12209598615478806,1.974943662023012e+44,-0.1714511017922791,,,,,,,,,,,,,,,,,,,,,,
27,240618_150020,LEARNING,1.0,28,1.0,1750.0,,,,,,,,,,28.0,28.0,28.0,cue2.png,Easy,B,,,,,,,,,,,,,,,,,,,,,,,,,,,18,22,Female,0.2857142857142857,1.0,0.0,1.0,1.7222222222222223,2.625,2.111111111111111,2.2222222222222223,1.625,2.5555555555555554,1.0,1.5,1.0,1.5,0.1666666666666666,0.4166666666666667,0.4081233000033535,-1.796650356734518,0.007952264519654077,-0.34939494854937725,0.0071041975776114635,-0.5550712786915574,0.01632053350891987,-0.2458590410801473,0.009412972927711963,-0.3352838061846804,1.0277815369007802e+43,-0.17154313964502865,4.735708023426742e+43,-0.19219250509638675,,,,,,,,,,,,,,,,,,,,
28,240618_150043,LEARNING,1.0,29,1.0,1750.0,,,,,,,,,,29.0,29.0,29.0,cue2.png,Easy,B,,,,,,,,,,,,,,,,,,,,,,,,,,,18,22,Female,0.2857142857142857,1.0,0.0,1.0,1.7222222222222223,2.625,2.111111111111111,2.2222222222222223,1.625,2.5555555555555554,1.0,1.5,1.0,1.5,0.75,0.7083333333333334,0.6971153285786775,0.4509846418714149,0.008155224518737549,-0.34777052739962366,0.06458430447916345,1.7631685030951905,0.012160591765974192,-0.4324989544953971,0.013639071046613362,-0.1609348819600699,2.7278677126566503e+43,-0.1715347818219404,1.0604303701380612e+44,-0.1921730975028597,,,,,,,,,,,,,,,,,,,,
29,240618_150105,LEARNING,1.0,30,3.0,1750.0,,,,,,,,,,30.0,30.0,30.0,cue1.png,Hard,B,,,,,,,,,,,,,,,,,,,,,,,,,,,18,22,Female,0.2857142857142857,1.0,0.0,1.0,1.7222222222222223,2.625,2.111111111111111,2.2222222222222223,1.625,2.5555555555555554,1.0,1.5,1.0,1.5,0.75,0.8333333333333334,0.7531605250114808,0.8868760594552044,0.032654846086791575,-0.15168408861451457,0.008383951493590235,-0.5034573099840765,0.00865693100771423,-0.5896941704300802,0.013876102379847833,-0.15115608440396905,3.6637955867622586e+43,-0.17153018069071146,1.3939722375126767e+44,-0.1921620671894057,,,,,,,,,,,,,,,,,,,,
30,240618_150126,LEARNING,1.0,31,3.0,1750.0,,,,,,,,,,31.0,31.0,31.0,cue1.png,Hard,B,,,,,,,,,,,,,,,,,,,,,,,,,,,18,22,Female,0.2857142857142857,1.0,0.0,1.0,1.7222222222222223,2.625,2.111111111111111,2.2222222222222223,1.625,2.5555555555555554,1.0,1.5,1.0,1.5,0.75,0.8333333333333334,0.7070021999970777,0.5278797670977526,0.016882684366178343,-0.27791897820850586,0.031917459660902286,0.44567653438936006,0.007173109256045178,-0.6562673054324645,,,,,,,,,,,,,,,,,,,,,,,,,,
31,240618_150146,LEARNING,1.0,32,1.0,1750.0,,,,,,,,,,32.0,32.0,32.0,cue2.png,Easy,B,,,,,,,,,,,,,,,,,,,,,,,,,,,18,22,Female,0.2857142857142857,1.0,0.0,1.0,1.7222222222222223,2.625,2.111111111111111,2.2222222222222223,1.625,2.5555555555555554,1.0,1.5,1.0,1.5,0.75,0.8333333333333334,0.5496022000006633,-0.6962984585667131,0.03886550700635681,-0.10197612154095913,,,0.02167331724530857,-0.00570108819912534,0.006631376079094191,-0.4500394045022003,2.7663096696001585e+43,-0.17153459283677017,9.503377892209865e+43,-0.19217673829220355,,,,,,,,,,,,,,,,,,,,
32,240618_150207,LEARNING,1.0,33,1.0,1750.0,,,,,,,,,,33.0,33.0,33.0,cue2.png,Easy,B,,,,,,,,,,,,,,,,,,,,,,,,,,,18,22,Female,0.2857142857142857,1.0,0.0,1.0,1.7222222222222223,2.625,2.111111111111111,2.2222222222222223,1.625,2.5555555555555554,1.0,1.5,1.0,1.5,0.75,0.8333333333333334,0.689517987484578,0.3918963347522643,,,0.1342892787292159,4.574451449587577,0.01079540478383631,-0.49374942286407586,0.14346760294761435,5.195179489677919,1.174582645204339e+43,-0.17154241795355804,4.53446489240404e+43,-0.19219317061248317,,,,,,,,,,,,,,,,,,,,
33,240618_150227,LEARNING,1.0,34,1.0,1750.0,,,,,,,,,,34.0,34.0,34.0,cue2.png,Easy,B,,,,,,,,,,,,,,,,,,,,,,,,,,,18,22,Female,0.2857142857142857,1.0,0.0,1.0,1.7222222222222223,2.625,2.111111111111111,2.2222222222222223,1.625,2.5555555555555554,1.0,1.5,1.0,1.5,1.0,1.0,0.5335943874670193,-0.8207991926496366,0.011216751339340043,-0.323267132935775,0.01216438723245076,-0.35098792544856827,0.009393172069402763,-0.556661984765625,0.010163129520177006,-0.3043358747319485,-6.524638838258443e+42,-0.17155139992863752,-3.088088673124581e+43,-0.1922183785888639,,,,,,,,,,,,,,,,,,,,
34,240618_150250,LEARNING,1.0,35,3.0,1750.0,,,,,,,,,,35.0,35.0,35.0,cue1.png,Hard,B,,,,,,,,,,,,,,,,,,,,,,,,,,,18,22,Female,0.2857142857142857,1.0,0.0,1.0,1.7222222222222223,2.625,2.111111111111111,2.2222222222222223,1.625,2.5555555555555554,1.0,1.5,1.0,1.5,0.75,0.8333333333333334,0.9540367374866036,2.4491904519049874,0.011555031549584633,-0.3205596559425454,,,0.011345905480033454,-0.4690506629721849,0.007693358817038682,-0.40622699345627294,-2.296400485868648e+43,-0.17155948171383412,-9.334396718054097e+43,-0.1922390352866896,,,,,,,,,,,,,,,,,,,,
35,240618_150311,LEARNING,1.0,36,3.0,1750.0,,,,,,,,,,36.0,36.0,36.0,cue1.png,Hard,B,,,,,,,,,,,,,,,,,,,,,,,,,,,18,22,Female,0.2857142857142857,1.0,0.0,1.0,1.7222222222222223,2.625,2.111111111111111,2.2222222222222223,1.625,2.5555555555555554,1.0,1.5,1.0,1.5,0.75,0.8333333333333334,0.6428375499963295,0.028839313539386787,0.013335330274770454,-0.30631076495352894,,,0.020218982624817583,-0.07095125380674079,0.028180324745282356,0.4389688277765922,-3.1745685618638927e+43,-0.17156379889111936,-1.229009698291031e+44,-0.19224880986181386,,,,,,,,,,,,,,,,,,,,
36,240618_150333,LEARNING,1.0,37,1.0,1750.0,,,,,,,,,,37.0,37.0,37.0,cue2.png,Easy,B,,,,,,,,,,,,,,,,,,,,,,,,,,,18,22,Female,0.2857142857142857,1.0,0.0,1.0,1.7222222222222223,2.625,2.111111111111111,2.2222222222222223,1.625,2.5555555555555554,1.0,1.5,1.0,1.5,1.0,1.0,0.8005851624766365,1.255721094691528,0.010397058180327223,-0.32982767151392695,0.012505693469814656,-0.3372226466437794,0.0075760620920282224,-0.6381884266727225,0.009668057121718756,-0.32476023253340247,-3.3179425100714125e+43,-0.17156450373426888,-1.2083454910850984e+44,-0.19224812649128362,,,,,,,,,,,,,,,,,,,,
37,240618_150355,LEARNING,1.0,38,3.0,1750.0,,,,,,,,,,38.0,38.0,38.0,cue1.png,Hard,B,,,,,,,,,,,,,,,,,,,,,,,,,,,18,22,Female,0.2857142857142857,1.0,0.0,1.0,1.7222222222222223,2.625,2.111111111111111,2.2222222222222223,1.625,2.5555555555555554,1.0,1.5,1.0,1.5,0.75,0.7083333333333334,0.6560265143135828,0.13141646053185801,0.010091313241130075,-0.3322747475284362,0.011204329392951162,-0.38970817835547633,0.010189342954697884,-0.5209409881081088,0.020263797841807048,0.11237017569065601,-2.2247082178918286e+43,-0.17155912926623407,-8.085636209522922e+43,-0.19223490560427625,,,,,,,,,,,,,,,,,,,,
38,240618_150415,LEARNING,1.0,39,3.0,1750.0,,,,,,,,,,39.0,39.0,39.0,cue1.png,Hard,B,,,,,,,,,,,,,,,,,,,,,,,,,,,18,22,Female,0.2857142857142857,1.0,0.0,1.0,1.7222222222222223,2.625,2.111111111111111,2.2222222222222223,1.625,2.5555555555555554,1.0,1.5,1.0,1.5,1.0,1.0,0.5178059624886373,-0.9435936404038453,0.016515903560484546,-0.280854564042085,0.009960022919404248,-0.4398925103479652,0.012973380060441561,-0.3960324012890776,0.008846258428541347,-0.3586637799791769,-1.9874063158456757e+42,-0.17154916937190026,-2.197440840508108e+43,-0.19221543319407783,,,,,,,,,,,,,,,,,,,,
39,240618_150435,LEARNING,1.0,40,3.0,1750.0,,,,,,,,,,40.0,40.0,40.0,cue1.png,Hard,B,,,,,,,,,,,,,,,,,,,,,,,,,,,18,22,Female,0.2857142857142857,1.0,0.0,1.0,1.7222222222222223,2.625,2.111111111111111,2.2222222222222223,1.625,2.5555555555555554,1.0,1.5,1.0,1.5,0.75,0.8333333333333334,0.6050404874840751,-0.26512727427912947,0.005594777732816894,-0.3682634517721628,0.006668930791394272,-0.5726260960691136,,,,,1.5797798052370652e+43,-0.17154042595678298,6.28054363680205e+43,-0.19218739628615417,,,,,,,,,,,,,,,,,,,,
40,240618_150456,LEARNING,1.0,41,1.0,1750.0,,,,,,,,,,41.0,41.0,41.0,cue2.png,Easy,B,,,,,,,,,,,,,,,,,,,,,,,,,,,18,22,Female,0.2857142857142857,1.0,0.0,1.0,1.7222222222222223,2.625,2.111111111111111,2.2222222222222223,1.625,2.5555555555555554,1.0,1.5,1.0,1.5,0.75,0.8333333333333334,0.6006282750167884,-0.29944324905410247,0.006426492308557954,-0.3616066979611003,0.005444992987167911,-0.6219889358607993,,,0.009752981098342502,-0.3212566688326441,3.009195670998763e+43,-0.17153339878069276,1.1689184743088058e+44,-0.1921695097739654,,,,,,,,,,,,,,,,,,,,
41,240618_150516,LEARNING,1.0,42,3.0,1750.0,,,,,,,,,,42.0,42.0,42.0,cue1.png,Hard,B,,,,,,,,,,,,,,,,,,,,,,,,,,,18,22,Female,0.2857142857142857,1.0,0.0,1.0,1.7222222222222223,2.625,2.111111111111111,2.2222222222222223,1.625,2.5555555555555554,1.0,1.5,1.0,1.5,1.0,1.0,0.6255235624994384,-0.105820194043864,0.00687264735069454,-0.3580358283819286,0.005263852374942993,-0.6292945481150742,0.008372480934157385,-0.6024563051858468,0.006560776896020163,-0.4529519946205038,,,,,,,,,,,,,,,,,,,,,,,,
42,240618_150536,LEARNING,1.0,43,3.0,1750.0,,,,,,,,,,43.0,43.0,43.0,cue1.png,Hard,B,,,,,,,,,,,,,,,,,,,,,,,,,,,18,22,Female,0.2857142857142857,1.0,0.0,1.0,1.7222222222222223,2.625,2.111111111111111,2.2222222222222223,1.625,2.5555555555555554,1.0,1.5,1.0,1.5,0.75,0.8333333333333334,0.5183263624930987,-0.9395462302760698,0.006704979460546311,-0.35937778378260504,,,0.010129671640091306,-0.5236182008384149,,,2.5420564873244463e+43,-0.17153569529172286,9.74984941446054e+43,-0.1921759232046797,,,,,,,,,,,,,,,,,,,,
43,240618_150557,LEARNING,1.0,44,1.0,1750.0,,,,,,,,,,44.0,44.0,44.0,cue2.png,Easy,B,,,,,,,,,,,,,,,,,,,,,,,,,,,18,22,Female,0.2857142857142857,1.0,0.0,1.0,1.7222222222222223,2.625,2.111111111111111,2.2222222222222223,1.625,2.5555555555555554,1.0,1.5,1.0,1.5,1.0,1.0,0.6716486125078518,0.25291730201249263,0.0064742827259061594,-0.3612242001041504,0.006190418737121863,-0.5919250455679158,,,0.007216814854366377,-0.4258869551751096,4.048486150047045e+42,-0.17154620205635304,1.7671938444458487e+43,-0.19220232204744733,,,,,,,,,,,,,,,,,,,,
44,240618_150617,LEARNING,1.0,45,1.0,1750.0,,,,,,,,,,45.0,45.0,45.0,cue2.png,Easy,B,,,,,,,,,,,,,,,,,,,,,,,,,,,18,22,Female,0.2857142857142857,1.0,0.0,1.0,1.7222222222222223,2.625,2.111111111111111,2.2222222222222223,1.625,2.5555555555555554,1.0,1.5,1.0,1.5,1.0,1.0,0.5937569874949986,-0.3528846757799387,0.005324519154454059,-0.3704265073130449,0.005834185760245158,-0.6062923371944663,0.006791972236680353,-0.6733673959359497,0.006883969686793346,-0.4396185807235491,-2.123588577057334e+43,-0.17155863215021672,-8.358522192112247e+43,-0.19223580804508492,,,,,,,,,,,,,,,,,,,,
45,240618_150638,LEARNING,1.0,46,1.0,1750.0,,,,,,,,,,46.0,46.0,46.0,cue2.png,Easy,B,,,,,,,,,,,,,,,,,,,,,,,,,,,18,22,Female,0.2857142857142857,1.0,0.0,1.0,1.7222222222222223,2.625,2.111111111111111,2.2222222222222223,1.625,2.5555555555555554,1.0,1.5,1.0,1.5,1.0,1.0,0.5850140875263605,-0.4208825650493993,0.007888570482284012,-0.34990473344238265,0.005725542076152045,-0.6106740637444169,0.018457481494833134,-0.14998274960561248,0.007626641498796307,-0.408979436096136,-3.7090990228932617e+43,-0.17156642670557506,,,,,,,,,,,,,,,,,,,,,,
46,240618_150658,LEARNING,1.0,47,3.0,1750.0,,,,,,,,,,47.0,47.0,47.0,cue1.png,Hard,B,,,,,,,,,,,,,,,,,,,,,,,,,,,18,22,Female,0.2857142857142857,1.0,0.0,1.0,1.7222222222222223,2.625,2.111111111111111,2.2222222222222223,1.625,2.5555555555555554,1.0,1.5,1.0,1.5,0.1666666666666666,0.6666666666666667,0.6782112374930875,0.30395810639819903,0.015678480779247134,-0.28755700434199893,0.01033518090686618,-0.4247619509619348,0.018058654224483484,-0.16787653077019912,0.009913288747064916,-0.31464312950786494,-2.3808923588132026e+43,-0.17155989708579383,-9.828430289035676e+43,-0.19224066906813583,,,,,,,,,,,,,,,,,,,,
47,240618_150718,LEARNING,1.0,48,3.0,1750.0,,,,,,,,,,48.0,48.0,48.0,cue1.png,Hard,B,,,,,,,,,,,,,,,,,,,,,,,,,,,18,22,Female,0.2857142857142857,1.0,0.0,1.0,1.7222222222222223,2.625,2.111111111111111,2.2222222222222223,1.625,2.5555555555555554,1.0,1.5,1.0,1.5,1.0,1.0,0.5158732375130057,-0.9586254055335781,0.010336987958103087,-0.33030845265253517,0.011491045108688142,-0.3781445989866464,0.010005049158241004,-0.529209512125785,0.009669810691957872,-0.32468788847603786,1.162268274889024e+43,-0.17154247849244716,5.403586032361845e+43,-0.19219029640701124,,,,,,,,,,,,,,,,,,,,
48,240618_150739,LEARNING,1.0,49,1.0,1750.0,,,,,,,,,,49.0,49.0,49.0,cue2.png,Easy,B,,,,,,,,,,,,,,,,,,,,,,,,,,,18,22,Female,0.2857142857142857,1.0,0.0,1.0,1.7222222222222223,2.625,2.111111111111111,2.2222222222222223,1.625,2.5555555555555554,1.0,1.5,1.0,1.5,1.0,1.0,0.6058193000062602,-0.25907006124510495,,,,,,,,,4.554766712886608e+43,-0.1715258005721298,,,,,,,,,,,,,,,,,,,,,,
49,240618_150801,LEARNING,1.0,50,1.0,1750.0,,,,,,,,,,50.0,50.0,50.0,cue2.png,Easy,B,,,,,,,,,,,,,,,,,,,,,,,,,,,18,22,Female,0.2857142857142857,1.0,0.0,1.0,1.7222222222222223,2.625,2.111111111111111,2.2222222222222223,1.625,2.5555555555555554,1.0,1.5,1.0,1.5,1.0,1.0,0.8356626250169938,1.528535998468178,0.012595189463952345,-0.3122345942416551,0.012228786673668267,-0.34839062084001976,0.023054705002569228,0.05627624401838071,0.009848030187578806,-0.31733539062503197,-2.6657637163765334e+43,-0.1715612975468077,-6.748097444210895e+43,-0.1922304823299346,,,,,,,,,,,,,,,,,,,,
0,240618_150919,TrueCHOICE,9.0,1,1.0,1750.0,,,,,,,,,,,1.0,1.0,,,B,,,,,,True,cue2.png,Easy,cue1.png,Hard,Left,Easy,Easy,0.0159804000286385,,,,,,,,,,,,,18,22,Female,0.2857142857142857,1.0,0.0,1.0,1.7222222222222223,2.625,2.111111111111111,2.2222222222222223,1.625,2.5555555555555554,1.0,1.5,1.0,1.5,0.75,0.8333333333333334,0.6131637749786023,-0.5967335607597402,,,,,,,,,,,,,0.012611571844522882,-0.6263133769387974,0.009092295427678771,-1.0888096999169998,162286975.86732712,-0.372612239581308,,,,,,,,,,,,,,
1,240618_150937,TrueCHOICE,9.0,2,1.0,1750.0,,,,,,,,,,,2.0,2.0,,,B,,,,,,True,cue2.png,Easy,cue1.png,Hard,Left,Easy,Easy,0.0163099999772384,,,,,,,,,,,,,18,22,Female,0.2857142857142857,1.0,0.0,1.0,1.7222222222222223,2.625,2.111111111111111,2.2222222222222223,1.625,2.5555555555555554,1.0,1.5,1.0,1.5,0.75,0.8333333333333334,0.5489836375054438,-1.862064500060359,,,,,,,,,,,,,0.012274715048699439,-0.6432218572713979,0.010157093371509978,-0.711517606301,47342210.85144814,-0.3774082651281097,,,,,,,,,,,,,,
2,240618_150956,TrueCHOICE,9.0,3,1.0,1750.0,,,,,,,,,,,3.0,3.0,,,B,,,,,,True,cue1.png,Hard,cue2.png,Easy,Right,Easy,Easy,0.0164970000041648,,,,,,,,,,,,,18,22,Female,0.2857142857142857,1.0,0.0,1.0,1.7222222222222223,2.625,2.111111111111111,2.2222222222222223,1.625,2.5555555555555554,1.0,1.5,1.0,1.5,1.0,1.0,0.629096937525901,-0.28260641292627614,,,,,,,,,,,,,0.013294240171551818,-0.5920469345681112,0.011325374899496763,-0.2975579567912836,21702768.54866005,-0.3784780608710731,,,,,,,,,,,,,,
3,240618_151015,TrueCHOICE,9.0,4,1.0,1750.0,,,,,,,,,,,4.0,4.0,,,B,,,,,,True,cue2.png,Easy,cue1.png,Hard,Left,Easy,Easy,0.0161110999761149,,,,,,,,,,,,,18,22,Female,0.2857142857142857,1.0,0.0,1.0,1.7222222222222223,2.625,2.111111111111111,2.2222222222222223,1.625,2.5555555555555554,1.0,1.5,1.0,1.5,1.0,1.0,0.6309800999588333,-0.24547929254398645,,,,,,,,,,,,,,,,,3286108.5575177926,-0.37924648883551393,,,,,,,,,,,,,,
4,240618_151036,TrueCHOICE,9.0,5,1.0,1750.0,,,,,,,,,,,5.0,5.0,,,B,,,,,,True,cue1.png,Hard,cue2.png,Easy,Right,Easy,Easy,0.0167340999469161,,,,,,,,,,,,,18,22,Female,0.2857142857142857,1.0,0.0,1.0,1.7222222222222223,2.625,2.111111111111111,2.2222222222222223,1.625,2.5555555555555554,1.0,1.5,1.0,1.5,1.0,0.875,0.6251719856934089,-0.3599880326056346,,,,,,,,,,,,,0.06111933864100086,1.8085272764957452,,,,,,,,,,,,,,,,,,
5,240618_151054,TrueCHOICE,9.0,6,1.0,1750.0,,,,,,,,,,,6.0,6.0,,,B,,,,,,True,cue1.png,Hard,cue2.png,Easy,Right,Easy,Easy,0.0175261000404134,,,,,,,,,,,,,18,22,Female,0.2857142857142857,1.0,0.0,1.0,1.7222222222222223,2.625,2.111111111111111,2.2222222222222223,1.625,2.5555555555555554,1.0,1.5,1.0,1.5,1.0,1.0,0.6612216999783413,0.35074305388899213,,,,,,,,,,,,,,,0.017158516711408254,1.769311442539549,1575814.9913963487,-0.37931785016836383,,,,,,,,,,,,,,
6,240618_151114,TrueCHOICE,9.0,7,1.0,1750.0,,,,,,,,,,,7.0,7.0,,,B,,,,,,True,cue2.png,Easy,cue1.png,Hard,Left,Easy,Easy,0.0146754999877884,,,,,,,,,,,,,18,22,Female,0.2857142857142857,1.0,0.0,1.0,1.7222222222222223,2.625,2.111111111111111,2.2222222222222223,1.625,2.5555555555555554,1.0,1.5,1.0,1.5,1.0,1.0,0.6729882500076201,0.5827241680943286,,,,,,,,,,,,,0.051522254645202215,1.3268029710780567,0.015747204389625916,1.2692381810196858,1217906.9972049596,-0.3793327837400085,,,,,,,,,,,,,,
7,240618_151133,TrueCHOICE,9.0,8,1.0,1750.0,,,,,,,,,,,8.0,8.0,,,B,,,,,,True,cue1.png,Hard,cue2.png,Easy,Right,Easy,Easy,0.0163191000465303,,,,,,,,,,,,,18,22,Female,0.2857142857142857,1.0,0.0,1.0,1.7222222222222223,2.625,2.111111111111111,2.2222222222222223,1.625,2.5555555555555554,1.0,1.5,1.0,1.5,0.75,0.8333333333333334,0.6541435125109274,0.21119443418660439,,,,,,,,,,,,,0.012864883026142424,-0.6135984571700814,,,,,,,,,,,,,,,,,,
8,240618_151153,TrueCHOICE,9.0,9,1.0,1750.0,,,,,,,,,,,9.0,9.0,,,B,,,,,,True,cue2.png,Easy,cue1.png,Hard,Left,Easy,Easy,0.0160708000184968,,,,,,,,,,,,,18,22,Female,0.2857142857142857,1.0,0.0,1.0,1.7222222222222223,2.625,2.111111111111111,2.2222222222222223,1.625,2.5555555555555554,1.0,1.5,1.0,1.5,1.0,1.0,0.7611421750043519,2.320705623272746,,,,,,,,,,,,,,,0.011215577814944987,-0.3364625885512028,72502267692.54788,2.6457452778264097,,,,,,,,,,,,,,
9,240618_151212,TrueCHOICE,9.0,10,3.0,1750.0,,,,,,,,,,,10.0,10.0,,,B,,,,,,True,cue1.png,Hard,cue2.png,Easy,Left,Hard,Hard,0.0160860000178217,,,,,,,,,,,,,18,22,Female,0.2857142857142857,1.0,0.0,1.0,1.7222222222222223,2.625,2.111111111111111,2.2222222222222223,1.625,2.5555555555555554,1.0,1.5,1.0,1.5,0.75,0.8333333333333334,0.6374209750356385,-0.11849548054669443,,,,,,,,,,,,,0.011937474069700638,-0.660149621625414,0.010459961312924801,-0.6042017719987499,815128.8326834918,-0.3793495895020323,,,,,,,,,,,,,,
0,240618_151409,FalseCHOICE,9.0,1,2.0,1750.0,,,,,,,,,,,1.0,1.0,,,B,,,,,,False,cue2.png,Easy,cue1.png,Hard,Left,Easy,Mid,0.0157529999269172,,,,,,,,,,,,,18,22,Female,0.2857142857142857,1.0,0.0,1.0,1.7222222222222223,2.625,2.111111111111111,2.2222222222222223,1.625,2.5555555555555554,1.0,1.5,1.0,1.5,0.1666666666666666,0.6666666666666667,0.6700489999930141,1.7140864747765596,,,,,,,,,,,,,,,,,,,0.05479267311860777,2.2828748866737927,,,,,,,,,,,,
1,240618_151427,FalseCHOICE,9.0,2,2.0,1750.0,,,,,,,,,,,2.0,2.0,,,B,,,,,,False,cue1.png,Hard,cue2.png,Easy,Right,Easy,Mid,0.0171675999881699,,,,,,,,,,,,,18,22,Female,0.2857142857142857,1.0,0.0,1.0,1.7222222222222223,2.625,2.111111111111111,2.2222222222222223,1.625,2.5555555555555554,1.0,1.5,1.0,1.5,0.1666666666666666,0.6666666666666667,0.5268458499922417,0.31781035532375296,,,,,,,,,,,,,,,,,,,0.011016613878796468,-0.6428162977932156,0.01118095139335899,-0.3255489945324385,2.5066318289504493e+44,-0.18448886337706044,,,,,,,,
2,240618_151445,FalseCHOICE,9.0,3,2.0,1750.0,,,,,,,,,,,3.0,3.0,,,B,,,,,,False,cue1.png,Hard,cue2.png,Easy,Right,Easy,Mid,0.0167568000033497,,,,,,,,,,,,,18,22,Female,0.2857142857142857,1.0,0.0,1.0,1.7222222222222223,2.625,2.111111111111111,2.2222222222222223,1.625,2.5555555555555554,1.0,1.5,1.0,1.5,1.0,1.0,0.5710927000036463,0.7492311727541038,,,,,,,,,,,,,,,,,,,0.034920607341064835,0.9547624738133859,0.011557055679661976,-0.29073629444313526,-8.735731556858727e+44,-0.18505589533287028,,,,,,,,
3,240618_151504,FalseCHOICE,9.0,4,2.0,1750.0,,,,,,,,,,,4.0,4.0,,,B,,,,,,False,cue1.png,Hard,cue2.png,Easy,Right,Easy,Mid,0.0167389000998809,,,,,,,,,,,,,18,22,Female,0.2857142857142857,1.0,0.0,1.0,1.7222222222222223,2.625,2.111111111111111,2.2222222222222223,1.625,2.5555555555555554,1.0,1.5,1.0,1.5,0.75,0.8333333333333334,0.5294831375067588,0.3435247448230858,,,,,,,,,,,,,,,,,,,0.011179941478820496,-0.6319006025966072,0.009849236966813066,-0.44881420746488004,-8.745716554372055e+44,-0.18505639894696588,,,,,,,,
4,240618_151523,FalseCHOICE,9.0,5,2.0,1750.0,,,,,,,,,,,5.0,5.0,,,B,,,,,,False,cue2.png,Easy,cue1.png,Hard,Right,Hard,Mid,0.0166371000232175,,,,,,,,,,,,,18,22,Female,0.2857142857142857,1.0,0.0,1.0,1.7222222222222223,2.625,2.111111111111111,2.2222222222222223,1.625,2.5555555555555554,1.0,1.5,1.0,1.5,0.75,0.8333333333333334,0.6809551375044975,1.8204247736384953,,,,,,,,,,,,,,,,,,,0.011276980233886808,-0.6254151985840191,0.012270641036878891,-0.22468590912820066,1.258423997622241e+49,6.162507606306404,,,,,,,,
5,240618_151540,FalseCHOICE,9.0,6,2.0,1750.0,,,,,,,,,,,6.0,6.0,,,B,,,,,,False,cue1.png,Hard,cue2.png,Easy,Right,Easy,Mid,0.0140033999923616,,,,,,,,,,,,,18,22,Female,0.2857142857142857,1.0,0.0,1.0,1.7222222222222223,2.625,2.111111111111111,2.2222222222222223,1.625,2.5555555555555554,1.0,1.5,1.0,1.5,0.1666666666666666,0.6666666666666667,0.3444410750089446,-1.4606940377846855,,,,,,,,,,,,,,,,,,,0.01122808455957363,-0.6286830496830175,0.013911328987485075,-0.07282170644646425,-1.1788569285401607e+44,-0.18467474865994613,,,,,,,,
6,240618_151557,FalseCHOICE,9.0,7,2.0,1750.0,,,,,,,,,,,7.0,7.0,,,B,,,,,,False,cue1.png,Hard,cue2.png,Easy,Right,Easy,Mid,0.0166571999434381,,,,,,,,,,,,,18,22,Female,0.2857142857142857,1.0,0.0,1.0,1.7222222222222223,2.625,2.111111111111111,2.2222222222222223,1.625,2.5555555555555554,1.0,1.5,1.0,1.5,0.1666666666666666,0.6666666666666667,0.4827168625051854,-0.11246126512227822,,,,,,,,,,,,,,,,,,,0.010904817673985604,-0.6502879884056623,0.008931003816061094,-0.5338070577283112,,,,,,,,,,
7,240618_151616,FalseCHOICE,9.0,8,2.0,1750.0,,,,,,,,,,,8.0,8.0,,,B,,,,,,False,cue2.png,Easy,cue1.png,Hard,Left,Easy,Mid,0.0167221999727189,,,,,,,,,,,,,18,22,Female,0.2857142857142857,1.0,0.0,1.0,1.7222222222222223,2.625,2.111111111111111,2.2222222222222223,1.625,2.5555555555555554,1.0,1.5,1.0,1.5,0.1666666666666666,0.6666666666666667,0.5921675250428962,0.9547173993056279,,,,,,,,,,,,,,,,,,,,,0.01577827280679864,0.09998503262107006,2.81122929262699e+44,-0.18447350037111265,,,,,,,,
8,240618_151634,FalseCHOICE,9.0,9,2.0,1750.0,,,,,,,,,,,9.0,9.0,,,B,,,,,,False,cue2.png,Easy,cue1.png,Hard,Left,Easy,Mid,0.0015538000734522,,,,,,,,,,,,,18,22,Female,0.2857142857142857,1.0,0.0,1.0,1.7222222222222223,2.625,2.111111111111111,2.2222222222222223,1.625,2.5555555555555554,1.0,1.5,1.0,1.5,0.1666666666666666,0.6666666666666667,0.6774633250170154,1.7863784946994352,,,,,,,,,,,,,,,,,,,0.033299658382625684,0.8464293766701071,,,2.0579129885671885e+48,0.853335882825008,,,,,,,,
9,240618_151652,FalseCHOICE,9.0,10,2.0,1750.0,,,,,,,,,,,10.0,10.0,,,B,,,,,,False,cue1.png,Hard,cue2.png,Easy,Right,Easy,Mid,0.0151300000725314,,,,,,,,,,,,,18,22,Female,0.2857142857142857,1.0,0.0,1.0,1.7222222222222223,2.625,2.111111111111111,2.2222222222222223,1.625,2.5555555555555554,1.0,1.5,1.0,1.5,0.75,0.8333333333333334,0.5483064374857349,0.5270578881219528,,,,,,,,,,,,,,,,,,,,,,,,,,,,,,,,
10,240618_151709,FalseCHOICE,9.0,11,2.0,1750.0,,,,,,,,,,,11.0,11.0,,,B,,,,,,False,cue2.png,Easy,cue1.png,Hard,Left,Easy,Mid,0.0162305999547243,,,,,,,,,,,,,18,22,Female,0.2857142857142857,1.0,0.0,1.0,1.7222222222222223,2.625,2.111111111111111,2.2222222222222223,1.625,2.5555555555555554,1.0,1.5,1.0,1.5,1.0,1.0,0.3255259375291643,-1.6451226258362859,,,,,,,,,,,,,,,,,,,0.025790750979273483,0.3445855703416578,0.020138618084038676,0.5035842415385716,3.1667436571646886e+44,-0.18445556926547907,,,,,,,,
11,240618_151726,FalseCHOICE,9.0,12,2.0,1750.0,,,,,,,,,,,12.0,12.0,,,B,,,,,,False,cue1.png,Hard,cue2.png,Easy,Right,Easy,Mid,0.0169009999372065,,,,,,,,,,,,,18,22,Female,0.2857142857142857,1.0,0.0,1.0,1.7222222222222223,2.625,2.111111111111111,2.2222222222222223,1.625,2.5555555555555554,1.0,1.5,1.0,1.5,0.75,0.8333333333333334,0.3650280625006417,-1.2599643820056388,,,,,,,,,,,,,,,,,,,0.01184522278178537,-0.5874377688679618,0.01502886818673,0.030619169922629887,9.758426558612752e+42,-0.18461036869623715,,,,,,,,
12,240618_151742,FalseCHOICE,9.0,13,2.0,1750.0,,,,,,,,,,,13.0,13.0,,,B,,,,,,False,cue2.png,Easy,cue1.png,Hard,Left,Easy,Mid,0.0159734999760985,,,,,,,,,,,,,18,22,Female,0.2857142857142857,1.0,0.0,1.0,1.7222222222222223,2.625,2.111111111111111,2.2222222222222223,1.625,2.5555555555555554,1.0,1.5,1.0,1.5,0.75,0.8333333333333334,0.3386920750199351,-1.516748610574077,,,,,,,,,,,,,,,,,,,0.011514282161355771,-0.6095555673310172,0.00876027270231406,-0.5496101508470108,,,,,,,,,,
13,240618_151803,FalseCHOICE,9.0,14,2.0,1750.0,,,,,,,,,,,14.0,14.0,,,B,,,,,,False,cue1.png,Hard,cue2.png,Easy,Right,Easy,Mid,0.0155891999602317,,,,,,,,,,,,,18,22,Female,0.2857142857142857,1.0,0.0,1.0,1.7222222222222223,2.625,2.111111111111111,2.2222222222222223,1.625,2.5555555555555554,1.0,1.5,1.0,1.5,0.75,0.5833333333333334,0.4266018833926258,-0.6596001044427642,,,,,,,,,,,,,,,,,,,0.01063397122366266,-0.6683895052122133,0.00827325626766428,-0.5946890231052393,-2.114460300620318e+44,-0.18472193775993578,,,,,,,,
14,240618_151819,FalseCHOICE,9.0,15,2.0,1750.0,,,,,,,,,,,15.0,15.0,,,B,,,,,,False,cue2.png,Easy,cue1.png,Hard,Left,Easy,Mid,0.0143422000110149,,,,,,,,,,,,,18,22,Female,0.2857142857142857,1.0,0.0,1.0,1.7222222222222223,2.625,2.111111111111111,2.2222222222222223,1.625,2.5555555555555554,1.0,1.5,1.0,1.5,0.75,0.8333333333333334,0.3171389500203077,-1.726898413398936,,,,,,,,,,,,,,,,,,,0.010687873334344183,-0.6647870582861164,0.009608126294589786,-0.47113172371269385,,,,,,,,,,
15,240618_151837,FalseCHOICE,9.0,16,2.0,1750.0,,,,,,,,,,,16.0,16.0,,,B,,,,,,False,cue2.png,Easy,cue1.png,Hard,Left,Easy,Mid,0.0159539999440312,,,,,,,,,,,,,18,22,Female,0.2857142857142857,1.0,0.0,1.0,1.7222222222222223,2.625,2.111111111111111,2.2222222222222223,1.625,2.5555555555555554,1.0,1.5,1.0,1.5,1.0,1.0,0.468303574991296,-0.2529953885570111,,,,,,,,,,,,,,,,,,,0.046672927348693716,1.7402068386201086,0.01593679467159939,0.11465802183677887,,,,,,,,,,
16,240618_151855,FalseCHOICE,9.0,17,2.0,1750.0,,,,,,,,,,,17.0,17.0,,,B,,,,,,False,cue1.png,Hard,cue2.png,Easy,Right,Easy,Mid,0.016815600101836,,,,,,,,,,,,,18,22,Female,0.2857142857142857,1.0,0.0,1.0,1.7222222222222223,2.625,2.111111111111111,2.2222222222222223,1.625,2.5555555555555554,1.0,1.5,1.0,1.5,0.75,0.8333333333333334,0.5288325374713168,0.33718118818485565,,,,,,,,,,,,,,,,,,,0.0509073394810404,2.023205867361834,0.008936970818256616,-0.5332547442731606,,,,,,,,,,
17,240618_151909,FalseCHOICE,9.0,18,2.0,1750.0,,,,,,,,,,,18.0,18.0,,,B,,,,,,False,cue1.png,Hard,cue2.png,Easy,Right,Easy,Mid,0.0144903999753296,,,,,,,,,,,,,18,22,Female,0.2857142857142857,1.0,0.0,1.0,1.7222222222222223,2.625,2.111111111111111,2.2222222222222223,1.625,2.5555555555555554,1.0,1.5,1.0,1.5,0.1666666666666666,0.6666666666666667,0.2185479374893475,-2.6881920468763387,,,,,,,,,,,,,,,,,,,0.020617939832407207,-0.001129604438989476,0.01716231873218477,0.22809411689636622,,,,,,,,,,
18,240618_151927,FalseCHOICE,9.0,19,2.0,1750.0,,,,,,,,,,,19.0,19.0,,,B,,,,,,False,cue2.png,Easy,cue1.png,Hard,Left,Easy,Mid,0.014318500063382,,,,,,,,,,,,,18,22,Female,0.2857142857142857,1.0,0.0,1.0,1.7222222222222223,2.625,2.111111111111111,2.2222222222222223,1.625,2.5555555555555554,1.0,1.5,1.0,1.5,0.75,0.8333333333333334,0.4540383499843301,-0.392085855601486,,,,,,,,,,,,,,,,,,,0.032338378416484924,0.7821840249508945,0.049895640538475027,3.257932798530083,1.402727547919935e+44,-0.18454454108307458,,,,,,,,
19,240618_151951,FalseCHOICE,9.0,20,2.0,1750.0,,,,,,,,,,,21.0,20.0,,,B,,,,,,False,cue2.png,Easy,cue1.png,Hard,Left,Easy,Mid,0.016156900092028,,,,,,,,,,,,,18,22,Female,0.2857142857142857,1.0,0.0,1.0,1.7222222222222223,2.625,2.111111111111111,2.2222222222222223,1.625,2.5555555555555554,1.0,1.5,1.0,1.5,0.75,0.8333333333333334,0.5568173499777913,0.6100419835650124,,,,,,,,,,,,,,,,,,,0.018585655260649397,-0.13695354928857076,0.010686913722946655,-0.3712777614708387,1.062703090603811e+44,-0.18456169092305383,,,,,,,,
20,240618_152008,FalseCHOICE,9.0,21,2.0,1750.0,,,,,,,,,,,22.0,21.0,,,B,,,,,,False,cue2.png,Easy,cue1.png,Hard,Left,Easy,Mid,0.0160768000641837,,,,,,,,,,,,,18,22,Female,0.2857142857142857,1.0,0.0,1.0,1.7222222222222223,2.625,2.111111111111111,2.2222222222222223,1.625,2.5555555555555554,1.0,1.5,1.0,1.5,0.75,0.8333333333333334,0.4730308250000234,-0.20690320205249935,,,,,,,,,,,,,,,,,,,0.013024379081888493,-0.5086310591679931,0.007946008564822582,-0.6249794945218927,4.2121330507946887e+43,-0.18459404579322083,,,,,,,,
21,240618_152028,FalseCHOICE,9.0,22,2.0,1750.0,,,,,,,,,,,23.0,22.0,,,B,,,,,,False,cue1.png,Hard,cue2.png,Easy,Right,Easy,Mid,0.0164255999261513,,,,,,,,,,,,,18,22,Female,0.2857142857142857,1.0,0.0,1.0,1.7222222222222223,2.625,2.111111111111111,2.2222222222222223,1.625,2.5555555555555554,1.0,1.5,1.0,1.5,0.75,0.8333333333333334,0.7319932999962475,2.3180630411458654,,,,,,,,,,,,,,,,,,,0.05906829806423636,2.5686282968422565,0.02899632315768206,1.3234649008082549,-2.1513140290363963e+43,-0.184626141160712,,,,,,,,
22,240618_152046,FalseCHOICE,9.0,23,2.0,1750.0,,,,,,,,,,,24.0,23.0,,,B,,,,,,False,cue2.png,Easy,cue1.png,Hard,Left,Easy,Mid,0.0151729000499472,,,,,,,,,,,,,18,22,Female,0.2857142857142857,1.0,0.0,1.0,1.7222222222222223,2.625,2.111111111111111,2.2222222222222223,1.625,2.5555555555555554,1.0,1.5,1.0,1.5,0.1666666666666666,0.6666666666666667,0.4643944625277072,-0.29111047458085126,,,,,,,,,,,,,,,,,,,0.06163366688774491,2.740079932329348,0.06486147915069458,4.643190212938805,-7.685864064789503e+43,-0.18465405581374006,,,,,,,,
23,240618_152103,FalseCHOICE,9.0,24,2.0,1750.0,,,,,,,,,,,25.0,24.0,,,B,,,,,,False,cue1.png,Hard,cue2.png,Easy,Right,Easy,Mid,0.0155947000021114,,,,,,,,,,,,,18,22,Female,0.2857142857142857,1.0,0.0,1.0,1.7222222222222223,2.625,2.111111111111111,2.2222222222222223,1.625,2.5555555555555554,1.0,1.5,1.0,1.5,0.75,0.8333333333333334,0.5510781749908347,0.5540832076609544,,,,,,,,,,,,,,,,,,,0.025802042515119073,0.34534021905733053,0.02076352816819119,0.5614267286748581,-1.0489959971837507e+44,-0.18466819885405897,,,,,,,,
24,240618_152120,FalseCHOICE,9.0,25,2.0,1750.0,,,,,,,,,,,26.0,25.0,,,B,,,,,,False,cue1.png,Hard,cue2.png,Easy,Right,Easy,Mid,0.0168221000349149,,,,,,,,,,,,,18,22,Female,0.2857142857142857,1.0,0.0,1.0,1.7222222222222223,2.625,2.111111111111111,2.2222222222222223,1.625,2.5555555555555554,1.0,1.5,1.0,1.5,0.75,0.8333333333333334,0.5044177375093568,0.09912914709554943,,,,,,,,,,,,,,,,,,,0.012015574625898787,-0.5760526214326929,0.012055505599877595,-0.24459912394562996,-1.0106259670331317e+44,-0.18466626358186625,,,,,,,,
25,240618_152138,FalseCHOICE,9.0,26,2.0,1750.0,,,,,,,,,,,27.0,26.0,,,B,,,,,,False,cue2.png,Easy,cue1.png,Hard,Right,Hard,Mid,0.0164878000505268,,,,,,,,,,,,,18,22,Female,0.2857142857142857,1.0,0.0,1.0,1.7222222222222223,2.625,2.111111111111111,2.2222222222222223,1.625,2.5555555555555554,1.0,1.5,1.0,1.5,0.75,0.8333333333333334,0.4976144999818643,0.03279542402764406,,,,,,,,,,,,,,,,,,,0.010578472226099232,-0.6720986770914951,0.00787767303154304,-0.6313047200301891,-7.3237802015358e+43,-0.18465222956854496,,,,,,,,
26,240618_152155,FalseCHOICE,9.0,27,2.0,1750.0,,,,,,,,,,,28.0,27.0,,,B,,,,,,False,cue2.png,Easy,cue1.png,Hard,Right,Hard,Mid,0.0164845999097451,,,,,,,,,,,,,18,22,Female,0.2857142857142857,1.0,0.0,1.0,1.7222222222222223,2.625,2.111111111111111,2.2222222222222223,1.625,2.5555555555555554,1.0,1.5,1.0,1.5,0.75,0.8333333333333334,0.4819433499797014,-0.12000325751158769,,,,,,,,,,,,,,,,,,,,,,,1.935829294314185e+44,-0.18451765298886078,,,,,,,,
27,240618_152216,FalseCHOICE,9.0,28,2.0,1750.0,,,,,,,,,,,29.0,28.0,,,B,,,,,,False,cue1.png,Hard,cue2.png,Easy,Right,Easy,Mid,0.0164463000837713,,,,,,,,,,,,,18,22,Female,0.2857142857142857,1.0,0.0,1.0,1.7222222222222223,2.625,2.111111111111111,2.2222222222222223,1.625,2.5555555555555554,1.0,1.5,1.0,1.5,0.75,0.7083333333333334,0.470150142858204,-0.23499076634375213,,,,,,,,,,,,,,,,,,,0.01240480868553483,-0.5500388898006816,0.010387774468692244,-0.398966478463836,2.842860793054142e+43,-0.18460095200234874,,,,,,,,
28,240618_152235,FalseCHOICE,9.0,29,2.0,1750.0,,,,,,,,,,,30.0,29.0,,,B,,,,,,False,cue2.png,Easy,cue1.png,Hard,Left,Easy,Mid,0.0160550000146031,,,,,,,,,,,,,18,22,Female,0.2857142857142857,1.0,0.0,1.0,1.7222222222222223,2.625,2.111111111111111,2.2222222222222223,1.625,2.5555555555555554,1.0,1.5,1.0,1.5,0.75,0.7083333333333334,0.50969322858977,0.1505668578856223,,,,,,,,,,,,,,,,,,,0.012939152773658699,-0.5143270003514292,0.007937313985283988,-0.6257842760702631,,,,,,,,,,
29,240618_152253,FalseCHOICE,9.0,30,2.0,1750.0,,,,,,,,,,,31.0,30.0,,,B,,,,,,False,cue2.png,Easy,cue1.png,Hard,Left,Easy,Mid,0.0159492000238969,,,,,,,,,,,,,18,22,Female,0.2857142857142857,1.0,0.0,1.0,1.7222222222222223,2.625,2.111111111111111,2.2222222222222223,1.625,2.5555555555555554,1.0,1.5,1.0,1.5,0.1666666666666666,0.6666666666666667,0.4799811624980066,-0.13913520762975837,,,,,,,,,,,,,,,,,,,,,0.007985981245022769,-0.6212795714466909,9.065343211741303e+43,-0.1845695676194145,,,,,,,,
30,240618_152310,FalseCHOICE,9.0,31,2.0,1750.0,,,,,,,,,,,32.0,31.0,,,B,,,,,,False,cue1.png,Hard,cue2.png,Easy,Left,Hard,Mid,0.0136096000205725,,,,,,,,,,,,,18,22,Female,0.2857142857142857,1.0,0.0,1.0,1.7222222222222223,2.625,2.111111111111111,2.2222222222222223,1.625,2.5555555555555554,1.0,1.5,1.0,1.5,0.1666666666666666,0.6666666666666667,0.4893560374766821,-0.04772720399639105,,,,,,,,,,,,,,,,,,,0.010928871878110268,-0.6486803705848947,0.011049655279290978,-0.33770193298169204,9.041456081919783e+43,-0.18456968809911684,,,,,,,,
31,240618_152329,FalseCHOICE,9.0,32,2.0,1750.0,,,,,,,,,,,33.0,32.0,,,B,,,,,,False,cue2.png,Easy,cue1.png,Hard,Left,Easy,Mid,0.0158052999759092,,,,,,,,,,,,,18,22,Female,0.2857142857142857,1.0,0.0,1.0,1.7222222222222223,2.625,2.111111111111111,2.2222222222222223,1.625,2.5555555555555554,1.0,1.5,1.0,1.5,0.75,0.7083333333333334,0.5270521142852626,0.3198214975831185,,,,,,,,,,,,,,,,,,,0.011101842818079546,-0.6371201807682457,0.014867373472985043,0.015671009956481644,6.997291700011799e+43,-0.18457999826689642,,,,,,,,
32,240618_152347,FalseCHOICE,9.0,33,2.0,1750.0,,,,,,,,,,,34.0,33.0,,,B,,,,,,False,cue1.png,Hard,cue2.png,Easy,Left,Hard,Mid,0.0160238000098615,,,,,,,,,,,,,18,22,Female,0.2857142857142857,1.0,0.0,1.0,1.7222222222222223,2.625,2.111111111111111,2.2222222222222223,1.625,2.5555555555555554,1.0,1.5,1.0,1.5,0.75,0.8333333333333334,0.577295650015003,0.8097119022001404,,,,,,,,,,,,,,,,,,,0.011209152797329616,-0.629948318664867,0.01241380362328511,-0.21143459462296343,3.2424915891747546e+43,-0.18459893638139654,,,,,,,,
33,240618_152403,FalseCHOICE,9.0,34,2.0,1750.0,,,,,,,,,,,35.0,34.0,,,B,,,,,,False,cue1.png,Hard,cue2.png,Easy,Left,Hard,Mid,0.0160983999958261,,,,,,,,,,,,,18,22,Female,0.2857142857142857,1.0,0.0,1.0,1.7222222222222223,2.625,2.111111111111111,2.2222222222222223,1.625,2.5555555555555554,1.0,1.5,1.0,1.5,0.75,0.8333333333333334,0.3934459875017637,-0.982880602471086,,,,,,,,,,,,,,,,,,,0.01135466118406432,-0.6202235373179753,0.015353453995092371,0.060663252937042264,-1.622916908383748e+43,-0.18462347608004803,,,,,,,,
34,240618_152422,FalseCHOICE,9.0,35,2.0,1750.0,,,,,,,,,,,36.0,35.0,,,B,,,,,,False,cue1.png,Hard,cue2.png,Easy,Left,Hard,Mid,0.0161236999556422,,,,,,,,,,,,,18,22,Female,0.2857142857142857,1.0,0.0,1.0,1.7222222222222223,2.625,2.111111111111111,2.2222222222222223,1.625,2.5555555555555554,1.0,1.5,1.0,1.5,1.0,1.0,0.6040224249882158,1.0703064327316587,,,,,,,,,,,,,,,,,,,0.020195455656689284,-0.029365545497627064,0.009691750240364998,-0.4633913829333512,-5.864246652345656e+43,-0.18464486810783992,,,,,,,,
35,240618_152438,FalseCHOICE,9.0,36,2.0,1750.0,,,,,,,,,,,37.0,36.0,,,B,,,,,,False,cue2.png,Easy,cue1.png,Hard,Left,Easy,Mid,0.015869399998337,,,,,,,,,,,,,18,22,Female,0.2857142857142857,1.0,0.0,1.0,1.7222222222222223,2.625,2.111111111111111,2.2222222222222223,1.625,2.5555555555555554,1.0,1.5,1.0,1.5,0.1666666666666666,0.6666666666666667,0.4468324249901343,-0.4623459091541449,,,,,,,,,,,,,,,,,,,,,0.01625381516024035,0.14400184905477356,-7.926813229578773e+43,-0.18465527109091506,,,,,,,,
36,240618_152458,FalseCHOICE,9.0,37,2.0,1750.0,,,,,,,,,,,38.0,37.0,,,B,,,,,,False,cue1.png,Hard,cue2.png,Easy,Right,Easy,Mid,0.0158774999435991,,,,,,,,,,,,,18,22,Female,0.2857142857142857,1.0,0.0,1.0,1.7222222222222223,2.625,2.111111111111111,2.2222222222222223,1.625,2.5555555555555554,1.0,1.5,1.0,1.5,0.1666666666666666,0.6666666666666667,0.6248235500097508,1.2731239973254884,,,,,,,,,,,,,,,,,,,,,,,-7.982948729070308e+43,-0.18465555422197014,,,,,,,,
37,240618_152515,FalseCHOICE,9.0,38,2.0,1750.0,,,,,,,,,,,39.0,38.0,,,B,,,,,,False,cue2.png,Easy,cue1.png,Hard,Left,Easy,Mid,0.0154188999440521,,,,,,,,,,,,,18,22,Female,0.2857142857142857,1.0,0.0,1.0,1.7222222222222223,2.625,2.111111111111111,2.2222222222222223,1.625,2.5555555555555554,1.0,1.5,1.0,1.5,0.1666666666666666,0.6666666666666667,0.4330105874978471,-0.5971132073409097,,,,,,,,,,,,,,,,,,,,,0.017547822020986828,0.26377680083604005,-5.749911987060619e+43,-0.18464429143720001,,,,,,,,
38,240618_152534,FalseCHOICE,9.0,39,2.0,1750.0,,,,,,,,,,,40.0,39.0,,,B,,,,,,False,cue2.png,Easy,cue1.png,Hard,Left,Easy,Mid,0.0169651000760495,,,,,,,,,,,,,18,22,Female,0.2857142857142857,1.0,0.0,1.0,1.7222222222222223,2.625,2.111111111111111,2.2222222222222223,1.625,2.5555555555555554,1.0,1.5,1.0,1.5,0.1666666666666666,0.5416666666666667,0.4419237999910755,-0.5102065593248841,,,,,,,,,,,,,,,,,,,,,0.008884531733610193,-0.5381085738976463,-1.3770166307678626e+43,-0.18462223583090676,,,,,,,,
39,240618_152551,FalseCHOICE,9.0,40,2.0,1750.0,,,,,,,,,,,41.0,40.0,,,B,,,,,,False,cue1.png,Hard,cue2.png,Easy,Left,Hard,Mid,0.0165404999861493,,,,,,,,,,,,,18,22,Female,0.2857142857142857,1.0,0.0,1.0,1.7222222222222223,2.625,2.111111111111111,2.2222222222222223,1.625,2.5555555555555554,1.0,1.5,1.0,1.5,0.75,0.8333333333333334,0.4091841250192374,-0.8294287714171301,,,,,,,,,,,,,,,,,,,0.013325341168523212,-0.48851682003782454,0.011710195109721289,-0.276561510361555,3.8782999077444497e+43,-0.18459572955003886,,,,,,,,
40,240618_152608,FalseCHOICE,9.0,41,2.0,1750.0,,,,,,,,,,,42.0,41.0,,,B,,,,,,False,cue1.png,Hard,cue2.png,Easy,Left,Hard,Mid,0.0160774999530985,,,,,,,,,,,,,18,22,Female,0.2857142857142857,1.0,0.0,1.0,1.7222222222222223,2.625,2.111111111111111,2.2222222222222223,1.625,2.5555555555555554,1.0,1.5,1.0,1.5,0.75,0.8333333333333334,0.5260152374976315,0.30971162013016845,,,,,,,,,,,,,,,,,,,,,,,7.532741448308095e+43,-0.1845772976148396,,,,,,,,
41,240618_152625,FalseCHOICE,9.0,42,2.0,1750.0,,,,,,,,,,,43.0,42.0,,,B,,,,,,False,cue2.png,Easy,cue1.png,Hard,Left,Easy,Mid,0.0162792999763041,,,,,,,,,,,,,18,22,Female,0.2857142857142857,1.0,0.0,1.0,1.7222222222222223,2.625,2.111111111111111,2.2222222222222223,1.625,2.5555555555555554,1.0,1.5,1.0,1.5,0.75,0.8333333333333334,0.4821531625057105,-0.11795751885551066,,,,,,,,,,,,,,,,,,,,,,,8.415577478997161e+43,-0.18457284484789052,,,,,,,,
42,240618_152643,FalseCHOICE,9.0,43,2.0,1750.0,,,,,,,,,,,44.0,43.0,,,B,,,,,,False,cue1.png,Hard,cue2.png,Easy,Right,Easy,Mid,0.0165552999824285,,,,,,,,,,,,,18,22,Female,0.2857142857142857,1.0,0.0,1.0,1.7222222222222223,2.625,2.111111111111111,2.2222222222222223,1.625,2.5555555555555554,1.0,1.5,1.0,1.5,0.75,0.8333333333333334,0.4728973875317024,-0.20820425967906594,,,,,,,,,,,,,,,,,,,0.011223953762119702,-0.6289591238181873,0.012683052757344826,-0.18651254588626165,6.342354633021487e+43,-0.18458330157807118,,,,,,,,
43,240618_152701,FalseCHOICE,9.0,44,2.0,1750.0,,,,,,,,,,,45.0,44.0,,,B,,,,,,False,cue2.png,Easy,cue1.png,Hard,Left,Easy,Mid,0.0159604999935254,,,,,,,,,,,,,18,22,Female,0.2857142857142857,1.0,0.0,1.0,1.7222222222222223,2.625,2.111111111111111,2.2222222222222223,1.625,2.5555555555555554,1.0,1.5,1.0,1.5,0.75,0.8333333333333334,0.5257827374880435,0.30744467131543585,,,,,,,,,,,,,,,,,,,0.011386641771888546,-0.6180861744420973,0.010777741378366493,-0.3628706359923533,,,,,,,,,,
44,240618_152720,FalseCHOICE,9.0,45,2.0,1750.0,,,,,,,,,,,46.0,45.0,,,B,,,,,,False,cue1.png,Hard,cue2.png,Easy,Right,Easy,Mid,0.0158283999189734,,,,,,,,,,,,,18,22,Female,0.2857142857142857,1.0,0.0,1.0,1.7222222222222223,2.625,2.111111111111111,2.2222222222222223,1.625,2.5555555555555554,1.0,1.5,1.0,1.5,0.75,0.8333333333333334,0.5440149375208421,0.48521440271272714,,,,,,,,,,,,,,,,,,,,,,,-5.120132143715655e+43,-0.18464111501170968,,,,,,,,
45,240618_152736,FalseCHOICE,9.0,46,2.0,1750.0,,,,,,,,,,,47.0,46.0,,,B,,,,,,False,cue1.png,Hard,cue2.png,Easy,Right,Easy,Mid,0.0165693999733775,,,,,,,,,,,,,18,22,Female,0.2857142857142857,1.0,0.0,1.0,1.7222222222222223,2.625,2.111111111111111,2.2222222222222223,1.625,2.5555555555555554,1.0,1.5,1.0,1.5,0.1666666666666666,0.6666666666666667,0.35321151248354,-1.3751794914715252,,,,,,,,,,,,,,,,,,,0.01124957611266528,-0.6272467018592837,0.011754031089599996,-0.2725039952621159,-9.011712751096503e+43,-0.18466074300706323,,,,,,,,
46,240618_152753,FalseCHOICE,9.0,47,2.0,1750.0,,,,,,,,,,,48.0,47.0,,,B,,,,,,False,cue2.png,Easy,cue1.png,Hard,Left,Easy,Mid,0.015409400104545,,,,,,,,,,,,,18,22,Female,0.2857142857142857,1.0,0.0,1.0,1.7222222222222223,2.625,2.111111111111111,2.2222222222222223,1.625,2.5555555555555554,1.0,1.5,1.0,1.5,1.0,1.0,0.3855619250098243,-1.059752711651011,,,,,,,,,,,,,,,,,,,0.03286280435667664,0.8172330535013992,,,-5.837822781164317e+43,-0.18464473483355545,,,,,,,,
47,240618_152811,FalseCHOICE,9.0,48,2.0,1750.0,,,,,,,,,,,49.0,48.0,,,B,,,,,,False,cue2.png,Easy,cue1.png,Hard,Left,Easy,Mid,0.0172497000312432,,,,,,,,,,,,,18,22,Female,0.2857142857142857,1.0,0.0,1.0,1.7222222222222223,2.625,2.111111111111111,2.2222222222222223,1.625,2.5555555555555554,1.0,1.5,1.0,1.5,0.75,0.8333333333333334,0.4531823124998482,-0.40043249250809126,,,,,,,,,,,,,,,,,,,0.011244450482577266,-0.6275892637760883,0.008759445541573627,-0.5496867139169651,2.5783121764163857e+43,-0.18460228630826248,,,,,,,,
48,240618_152828,FalseCHOICE,9.0,49,2.0,1750.0,,,,,,,,,,,50.0,49.0,,,B,,,,,,False,cue1.png,Hard,cue2.png,Easy,Left,Hard,Mid,0.0165174000430852,,,,,,,,,,,,,18,22,Female,0.2857142857142857,1.0,0.0,1.0,1.7222222222222223,2.625,2.111111111111111,2.2222222222222223,1.625,2.5555555555555554,1.0,1.5,1.0,1.5,0.75,0.8333333333333334,0.6203021749970503,1.2290391573112134,,,,,,,,,,,,,,,,,,,0.011920145545934391,-0.5824304458152887,,,1.1245935795051481e+44,-0.18455856934765522,,,,,,,,
49,240618_152847,FalseCHOICE,9.0,50,2.0,1750.0,,,,,,,,,,,51.0,50.0,,,B,,,,,,False,cue2.png,Easy,cue1.png,Hard,Left,Easy,Mid,0.0158936999505385,,,,,,,,,,,,,18,22,Female,0.2857142857142857,1.0,0.0,1.0,1.7222222222222223,2.625,2.111111111111111,2.2222222222222223,1.625,2.5555555555555554,1.0,1.5,1.0,1.5,0.75,0.8333333333333334,0.6151361250085756,1.178668531869191,,,,,,,,,,,,,,,,,,,0.01107581622910102,-0.6388596192480569,0.00945824410856265,-0.4850050130659783,-9.189977528544114e+42,-0.18461992571753266,,,,,,,,
0,240618_145009,OFFLINERATING,9.0,1,1.0,,,,,,,,,,,,,,,,,T0,cue2.png,Easy,31.0,0.9850523000350222,,,,,,,,,,,,,,,,,,,,,,18,22,Female,0.2857142857142857,1.0,0.0,1.0,1.7222222222222223,2.625,2.111111111111111,2.2222222222222223,1.625,2.5555555555555554,1.0,1.5,1.0,1.5,,,,,,,,,,,,,,,,,,,,,,,,,,,,,0.9897538280618564,0.04548826832673176,0.6121174853704848,0.011337265008547856,-0.47733325876935107,101153860.74959186,1.731918692305039,
1,240618_145016,OFFLINERATING,9.0,2,3.0,,,,,,,,,,,,,,,,,T0,cue1.png,Hard,37.0,1.4367227000184355,,,,,,,,,,,,,,,,,,,,,,18,22,Female,0.2857142857142857,1.0,0.0,1.0,1.7222222222222223,2.625,2.111111111111111,2.2222222222222223,1.625,2.5555555555555554,1.0,1.5,1.0,1.5,,,,,,,,,,,,,,,,,,,,,,,,,,,,,1.372884342150317,,,0.03085983734399044,1.3915390074276546,1363311.9553325332,-0.5571464134193429,
2,240618_150829,OFFLINERATING,9.0,3,1.0,,,,,,,,,,,,,,,,,T1,cue2.png,Easy,1.0,1.5137198000447825,,,,,,,,,,,,,,,,,,,,,,18,22,Female,0.2857142857142857,1.0,0.0,1.0,1.7222222222222223,2.625,2.111111111111111,2.2222222222222223,1.625,2.5555555555555554,1.0,1.5,1.0,1.5,,,,,,,,,,,,,,,,,,,,,,,,,,,,,-0.9258987423804463,0.004405695269326315,-1.4101348895509311,0.00677361721972518,-0.9142057486583037,68170.39132166107,-0.5868552725946031,
3,240618_150836,OFFLINERATING,9.0,4,3.0,,,,,,,,,,,,,,,,,T1,cue1.png,Hard,0.0,1.602247099974193,,,,,,,,,,,,,,,,,,,,,,18,22,Female,0.2857142857142857,1.0,0.0,1.0,1.7222222222222223,2.625,2.111111111111111,2.2222222222222223,1.625,2.5555555555555554,1.0,1.5,1.0,1.5,,,,,,,,,,,,,,,,,,,,,,,,,,,,,-0.9897538280618564,0.04926487261736722,0.7980174041804461,,,21884.688053058824,-0.5879170062910929,
4,240618_151240,OFFLINERATING,9.0,5,1.0,,,,,,,,,,,,,,,,,T2,cue2.png,Easy,32.0,2.420667099999264,,,,,,,,,,,,,,,,,,,,,,18,22,Female,0.2857142857142857,1.0,0.0,1.0,1.7222222222222223,2.625,2.111111111111111,2.2222222222222223,1.625,2.5555555555555554,1.0,1.5,1.0,1.5,,,,,,,,,,,,,,,,,,,,,,,,,,,,,1.0536089137432665,,,,,,,
5,240618_151248,OFFLINERATING,9.0,6,3.0,,,,,,,,,,,,,,,,,T2,cue1.png,Hard,0.0,1.402003200026229,,,,,,,,,,,,,,,,,,,,,,18,22,Female,0.2857142857142857,1.0,0.0,1.0,1.7222222222222223,2.625,2.111111111111111,2.2222222222222223,1.625,2.5555555555555554,1.0,1.5,1.0,1.5,,,,,,,,,,,,,,,,,,,,,,,,,,,,,-0.9897538280618564,,,,,,,
6,240618_152902,OFFLINERATING,9.0,7,1.0,,,,,,,,,,,,,,,,,T3,cue2.png,Easy,23.0,1.0445250999182465,,,,,,,,,,,,,,,,,,,,,,18,22,Female,0.2857142857142857,1.0,0.0,1.0,1.7222222222222223,2.625,2.111111111111111,2.2222222222222223,1.625,2.5555555555555554,1.0,1.5,1.0,1.5,,,,,,,,,,,,,,,,,,,,,,,,,,,,,0.4789131426105757,,,,,,,
7,240618_152909,OFFLINERATING,9.0,8,3.0,,,,,,,,,,,,,,,,,T3,cue1.png,Hard,0.0,1.1022066000150517,,,,,,,,,,,,,,,,,,,,,,18,22,Female,0.2857142857142857,1.0,0.0,1.0,1.7222222222222223,2.625,2.111111111111111,2.2222222222222223,1.625,2.5555555555555554,1.0,1.5,1.0,1.5,,,,,,,,,,,,,,,,,,,,,,,,,,,,,-0.9897538280618564,,,,,,,
0,240618_151304,LEARNINGCHECK,9.0,1,,,,,,,,,,,,1.0,1.0,1.0,,,B,,,,,,,,,,,,,,,cue2.png,Easy,Left,Middle,unsure,0.0116053000092506,0.0,,,,,,18,22,Female,0.2857142857142857,1.0,0.0,1.0,1.7222222222222223,2.625,2.111111111111111,2.2222222222222223,1.625,2.5555555555555554,1.0,1.5,1.0,1.5,,,,,,,,,,,,,,,,,,,,,,,,,,,,,,,,,,,,
1,240618_151312,LEARNINGCHECK,9.0,2,,,,,,,,,,,,2.0,2.0,2.0,,,B,,,,,,,,,,,,,,,cue1.png,Hard,Right,Right,Hard,0.01626830000896,1.0,,,,,,18,22,Female,0.2857142857142857,1.0,0.0,1.0,1.7222222222222223,2.625,2.111111111111111,2.2222222222222223,1.625,2.5555555555555554,1.0,1.5,1.0,1.5,,,,,,,,,,,,,,,,,,,,,,,,,,,,,,,,,,,,
2,240618_152921,LEARNINGCHECK,9.0,1,,,,,,,,,,,,1.0,1.0,1.0,,,B,,,,,,,,,,,,,,,cue2.png,Easy,Middle,Middle,Mid,0.0157235999358817,1.0,,,,,,18,22,Female,0.2857142857142857,1.0,0.0,1.0,1.7222222222222223,2.625,2.111111111111111,2.2222222222222223,1.625,2.5555555555555554,1.0,1.5,1.0,1.5,,,,,,,,,,,,,,,,,,,,,,,,,,,,,,,,,,,,
3,240618_152928,LEARNINGCHECK,9.0,2,,,,,,,,,,,,2.0,2.0,2.0,,,B,,,,,,,,,,,,,,,cue1.png,Hard,Middle,Middle,Mid,0.0137770000146701,1.0,,,,,,18,22,Female,0.2857142857142857,1.0,0.0,1.0,1.7222222222222223,2.625,2.111111111111111,2.2222222222222223,1.625,2.5555555555555554,1.0,1.5,1.0,1.5,,,,,,,,,,,,,,,,,,,,,,,,,,,,,,,,,,,,
0,240618_152938,DEMANDRATING,9.0,-1,,,,,,,,,,,,,,,,,,,,,,,,,,,,,,,,,,,,,,,1.0,MentalDemand,1.0,82.0,6.43805210001301,18,22,Female,0.2857142857142857,1.0,0.0,1.0,1.7222222222222223,2.625,2.111111111111111,2.2222222222222223,1.625,2.5555555555555554,1.0,1.5,1.0,1.5,,,,,,,,,,,,,,,,,,,,,,,,,,,,,,,,,,,,0.41058249067803193
1,240618_152944,DEMANDRATING,9.0,-1,,,,,,,,,,,,,,,,,,,,,,,,,,,,,,,,,,,,,,,2.0,Effort,1.0,55.0,4.5437747000250965,18,22,Female,0.2857142857142857,1.0,0.0,1.0,1.7222222222222223,2.625,2.111111111111111,2.2222222222222223,1.625,2.5555555555555554,1.0,1.5,1.0,1.5,,,,,,,,,,,,,,,,,,,,,,,,,,,,,,,,,,,,-1.1730928305086625
2,240618_152951,DEMANDRATING,9.0,-1,,,,,,,,,,,,,,,,,,,,,,,,,,,,,,,,,,,,,,,3.0,Frustration,1.0,90.0,5.177124899928458,18,22,Female,0.2857142857142857,1.0,0.0,1.0,1.7222222222222223,2.625,2.111111111111111,2.2222222222222223,1.625,2.5555555555555554,1.0,1.5,1.0,1.5,,,,,,,,,,,,,,,,,,,,,,,,,,,,,,,,,,,,0.879819622881497
3,240618_152957,DEMANDRATING,9.0,-1,,,,,,,,,,,,,,,,,,,,,,,,,,,,,,,,,,,,,,,4.0,MentalDemand,2.0,53.0,4.134249800001271,18,22,Female,0.2857142857142857,1.0,0.0,1.0,1.7222222222222223,2.625,2.111111111111111,2.2222222222222223,1.625,2.5555555555555554,1.0,1.5,1.0,1.5,,,,,,,,,,,,,,,,,,,,,,,,,,,,,,,,,,,,-1.290402113559529
4,240618_153003,DEMANDRATING,9.0,-1,,,,,,,,,,,,,,,,,,,,,,,,,,,,,,,,,,,,,,,5.0,Effort,2.0,64.0,4.20145870000124,18,22,Female,0.2857142857142857,1.0,0.0,1.0,1.7222222222222223,2.625,2.111111111111111,2.2222222222222223,1.625,2.5555555555555554,1.0,1.5,1.0,1.5,,,,,,,,,,,,,,,,,,,,,,,,,,,,,,,,,,,,-0.6452010567797645
5,240618_153010,DEMANDRATING,9.0,-1,,,,,,,,,,,,,,,,,,,,,,,,,,,,,,,,,,,,,,,6.0,Frustration,2.0,62.0,5.653955399990082,18,22,Female,0.2857142857142857,1.0,0.0,1.0,1.7222222222222223,2.625,2.111111111111111,2.2222222222222223,1.625,2.5555555555555554,1.0,1.5,1.0,1.5,,,,,,,,,,,,,,,,,,,,,,,,,,,,,,,,,,,,-0.7625103398306307
6,240618_153017,DEMANDRATING,9.0,-1,,,,,,,,,,,,,,,,,,,,,,,,,,,,,,,,,,,,,,,7.0,MentalDemand,3.0,99.0,5.199649800080806,18,22,Female,0.2857142857142857,1.0,0.0,1.0,1.7222222222222223,2.625,2.111111111111111,2.2222222222222223,1.625,2.5555555555555554,1.0,1.5,1.0,1.5,,,,,,,,,,,,,,,,,,,,,,,,,,,,,,,,,,,,1.4077113966103951
7,240618_153020,DEMANDRATING,9.0,-1,,,,,,,,,,,,,,,,,,,,,,,,,,,,,,,,,,,,,,,8.0,Effort,3.0,71.0,2.150895500089973,18,22,Female,0.2857142857142857,1.0,0.0,1.0,1.7222222222222223,2.625,2.111111111111111,2.2222222222222223,1.625,2.5555555555555554,1.0,1.5,1.0,1.5,,,,,,,,,,,,,,,,,,,,,,,,,,,,,,,,,,,,-0.2346185661017325
8,240618_153027,DEMANDRATING,9.0,-1,,,,,,,,,,,,,,,,,,,,,,,,,,,,,,,,,,,,,,,9.0,Frustration,3.0,99.0,5.497544799931347,18,22,Female,0.2857142857142857,1.0,0.0,1.0,1.7222222222222223,2.625,2.111111111111111,2.2222222222222223,1.625,2.5555555555555554,1.0,1.5,1.0,1.5,,,,,,,,,,,,,,,,,,,,,,,,,,,,,,,,,,,,1.4077113966103951
