,END,Phase,Block,TrialN,NbackLevel,ISI,Letter_Resp,Letter_RT,Letter_Accuracy,Trial_A_measure,Trial_ACC,Trial_RT,TrialCountCali,CaliEnd_A_measure,ISI_calibrated,TrialIndex,TrialNumber_total,TrialNumber_valid,CueLearning,TrialDemandLearning,CueMapping,OfflineRatingTimePoint,CueFigure,TrialDemand,OfflineRating,OfflineRatingRT,PhaseType,CueLeft,CueDemandLeft,CueRight,CueDemandRight,Choice,ChoiceDemand,TaskDemand,ChoiceRT,CueCheck,CueDemandCheck,CorrectAnswer,Answer,AnswerDemand,AnswerRT,AnswerACC,DemandRatingQuesIndex,QuesTLX,DemandLevel,DemandRating,DemandRatingRT,PID,Age,Gender,BAI_bis,BAI_bas_d,BAI_bas_rr,BAI_bas_fs,NFC,BFI_ext,BFI_agr,BFI_con,BFI_neu,BFI_open,UPPS_lps,UPPS_lpm,UPPS_pu,UPPS_ss,Task_A_measure,Task_ACC,Task_RT,Task_RT_z,Task_RT_log,Task_RT_log_z,cue_i_on_zyg_values,cue_i_on_zyg_zvalues,cue_e_on_zyg_values,cue_e_on_zyg_zvalues,cue_i_on_cor_values,cue_i_on_cor_zvalues,cue_e_on_cor_values,cue_e_on_cor_zvalues,cue_i_on_scr_values,cue_i_on_scr_zvalues,cue_e_on_scr_values,cue_e_on_scr_zvalues,cue_e_true_zyg_values,cue_e_true_zyg_zvalues,cue_e_true_cor_values,cue_e_true_cor_zvalues,cue_e_true_scr_values,cue_e_true_scr_zvalues,cue_e_false_zyg_values,cue_e_false_zyg_zvalues,cue_e_false_cor_values,cue_e_false_cor_zvalues,cue_e_false_scr_values,cue_e_false_scr_zvalues,OfflineRating_z,cue_i_off_zyg_values,cue_i_off_zyg_zvalues,cue_i_off_cor_values,cue_i_off_cor_zvalues,cue_i_off_scr_values,cue_i_off_scr_zvalues,DemandRating_z
0,240618_144720,PRACTICE,0.0,1,3.0,1750.0,,,,,,,,,,15.0,1.0,1.0,cue1.png,Hard,B,,,,,,,,,,,,,,,,,,,,,,,,,,,18,22,Female,0.2857142857142857,1.0,0.0,1.0,1.7222222222222223,2.625,2.111111111111111,2.2222222222222223,1.625,2.5555555555555554,1.0,1.5,1.0,1.5,,,,,,,,,,,,,,,,,,,,,,,,,,,,,,,,,,,,,,
0,240618_145055,LEARNING,1.0,1,1.0,1750.0,,,,,,,,,,1.0,1.0,1.0,cue2.png,Easy,B,,,,,,,,,,,,,,,,,,,,,,,,,,,18,22,Female,0.2857142857142857,1.0,0.0,1.0,1.7222222222222223,2.625,2.111111111111111,2.2222222222222223,1.625,2.5555555555555554,1.0,1.5,1.0,1.5,0.75,0.8333333333333334,0.7756274249841226,1.0616123348384081,-0.25408299653774497,1.0380116225072902,-0.004605650852954185,-2.592664067143339,-0.0002157413713838206,-0.10719392765845825,,,,,1.6,0.07396229980235426,,,,,,,,,,,,,,,,,,,,,,
1,240618_145119,LEARNING,1.0,2,3.0,1750.0,,,,,,,,,,2.0,2.0,2.0,cue1.png,Hard,B,,,,,,,,,,,,,,,,,,,,,,,,,,,18,22,Female,0.2857142857142857,1.0,0.0,1.0,1.7222222222222223,2.625,2.111111111111111,2.2222222222222223,1.625,2.5555555555555554,1.0,1.5,1.0,1.5,0.1666666666666666,0.6666666666666667,0.9747842499637044,2.61055419403807,-0.025539114559291892,2.144894171984998,-0.0039098396250525635,-2.183524438901703,-0.0008537531215203004,-0.4031209570692725,,,,,,,1.9979999999999998,0.5550398474879598,,,,,,,,,,,,,,,,,,,,
2,240618_145145,LEARNING,1.0,3,1.0,1750.0,,,,,,,,,,3.0,3.0,3.0,cue2.png,Easy,B,,,,,,,,,,,,,,,,,,,,,,,,,,,18,22,Female,0.2857142857142857,1.0,0.0,1.0,1.7222222222222223,2.625,2.111111111111111,2.2222222222222223,1.625,2.5555555555555554,1.0,1.5,1.0,1.5,0.875,0.625,0.7789152799872682,1.0871836213954884,-0.24985299385583187,1.0584983496614868,-0.0002578385602312423,-0.036134028854578476,,,0.0004462885249658993,0.28375126874764794,-0.000513475194270507,-0.12391762642091375,,,1.5909999999999997,-0.22096470764352213,,,,,,,,,,,,,,,,,,,,
3,240618_145204,LEARNING,1.0,4,3.0,1750.0,,,,,,,,,,4.0,4.0,4.0,cue1.png,Hard,B,,,,,,,,,,,,,,,,,,,,,,,,,,,18,22,Female,0.2857142857142857,1.0,0.0,1.0,1.7222222222222223,2.625,2.111111111111111,2.2222222222222223,1.625,2.5555555555555554,1.0,1.5,1.0,1.5,1.0,1.0,0.4025496625399682,-1.839999312392583,-0.9099368045423781,-2.1384161549699203,-0.00016237128472549722,0.02000108946976238,,,,,,,1.475,-0.11910754604209577,1.5569999999999997,-0.2857906409960293,,,,,,,,,,,,,,,,,,,,
4,240618_145223,LEARNING,1.0,5,3.0,1750.0,,,,,,,,,,5.0,5.0,5.0,cue1.png,Hard,B,,,,,,,,,,,,,,,,,,,,,,,,,,,18,22,Female,0.2857142857142857,1.0,0.0,1.0,1.7222222222222223,2.625,2.111111111111111,2.2222222222222223,1.625,2.5555555555555554,1.0,1.5,1.0,1.5,0.75,0.8333333333333334,0.5014854875043966,-1.0705261061513944,-0.6901806101755408,-1.0740940887716375,0.0032530723058617084,2.028294811816396,,,0.0051451963592846345,2.3050730043795404,,,1.4520000000000002,-0.15463239767747444,1.463,-0.46501528026472466,,,,,,,,,,,,,,,,,,,,
5,240618_145245,LEARNING,1.0,6,1.0,1750.0,,,,,,,,,,6.0,6.0,6.0,cue2.png,Easy,B,,,,,,,,,,,,,,,,,,,,,,,,,,,18,22,Female,0.2857142857142857,1.0,0.0,1.0,1.7222222222222223,2.625,2.111111111111111,2.2222222222222223,1.625,2.5555555555555554,1.0,1.5,1.0,1.5,0.1666666666666666,0.5416666666666667,0.55458681431732,-0.6575306294058137,-0.5895319212051259,-0.5866328778884471,-0.0014853573278862144,-0.7579196973218243,-0.000965934106194256,-0.4551535184505361,,,-0.0010329929330810343,-0.3969728568553172,1.9480000000000002,0.6114687506333033,1.748,0.07837857283717282,,,,,,,,,,,,,,,,,,,,
6,240618_145303,LEARNING,1.0,7,3.0,1750.0,,,,,,,,,,7.0,7.0,7.0,cue1.png,Hard,B,,,,,,,,,,,,,,,,,,,,,,,,,,,18,22,Female,0.2857142857142857,1.0,0.0,1.0,1.7222222222222223,2.625,2.111111111111111,2.2222222222222223,1.625,2.5555555555555554,1.0,1.5,1.0,1.5,0.75,0.8333333333333334,0.338887625010102,-2.335130698334588,-1.0820867162022412,-2.9721717185005874,0.0024560413780831767,1.5596376180085076,-0.00036474977279985204,-0.17630803657395652,0.0016597697841884544,0.8057525787401711,-5.996302211375929e-05,0.11444549657194888,,,1.0679999999999998,-1.2181400942129692,,,,,,,,,,,,,,,,,,,,
7,240618_145324,LEARNING,1.0,8,3.0,1750.0,,,,,,,,,,8.0,8.0,8.0,cue1.png,Hard,B,,,,,,,,,,,,,,,,,,,,,,,,,,,18,22,Female,0.2857142857142857,1.0,0.0,1.0,1.7222222222222223,2.625,2.111111111111111,2.2222222222222223,1.625,2.5555555555555554,1.0,1.5,1.0,1.5,1.0,1.0,0.7191611500020372,0.6224459795714077,-0.329669815634664,0.6719299304285845,-0.000808496310343204,-0.35992286429578785,-0.0007813561098976357,-0.3695412736494414,4.182858560450222e-05,0.10976537767471109,-0.0002459693274608774,0.016681761525872037,,,3.002,2.469311526485522,,,,,,,,,,,,,,,,,,,,
8,240618_145346,LEARNING,1.0,9,1.0,1750.0,,,,,,,,,,9.0,9.0,9.0,cue2.png,Easy,B,,,,,,,,,,,,,,,,,,,,,,,,,,,18,22,Female,0.2857142857142857,1.0,0.0,1.0,1.7222222222222223,2.625,2.111111111111111,2.2222222222222223,1.625,2.5555555555555554,1.0,1.5,1.0,1.5,1.0,1.0,0.7262601999827893,0.6776588284248926,-0.31984692618791,0.7195040978923447,0.0031571873723198413,1.9719141089904275,-0.0026670091397837255,-1.244157923757099,0.0049424731729365515,2.217867892610979,-0.003969534129954397,-1.9404002959803794,,,2.771,2.0288765087081946,,,,,,,,,,,,,,,,,,,,
9,240618_145407,LEARNING,1.0,10,1.0,1750.0,,,,,,,,,,10.0,10.0,10.0,cue2.png,Easy,B,,,,,,,,,,,,,,,,,,,,,,,,,,,18,22,Female,0.2857142857142857,1.0,0.0,1.0,1.7222222222222223,2.625,2.111111111111111,2.2222222222222223,1.625,2.5555555555555554,1.0,1.5,1.0,1.5,0.75,0.8333333333333334,0.6561193874949822,0.13213878153833772,-0.4214125134641943,0.22760216986710366,,,0.0008111244783176805,0.3690941037775979,-0.0020141555842071853,-0.7746540740547524,0.0029319255814136266,1.686963181801914,,,,,,,,,,,,,,,,,,,,,,,,
10,240618_145427,LEARNING,1.0,11,3.0,1750.0,,,,,,,,,,11.0,11.0,11.0,cue1.png,Hard,B,,,,,,,,,,,,,,,,,,,,,,,,,,,18,22,Female,0.2857142857142857,1.0,0.0,1.0,1.7222222222222223,2.625,2.111111111111111,2.2222222222222223,1.625,2.5555555555555554,1.0,1.5,1.0,1.5,1.0,1.0,0.6115336125221802,-0.2146270056111114,-0.4917853580357461,-0.11322722770435076,,,-0.0018002761961749443,-0.8421438460543443,-0.0037883406071287395,-1.5378524333994288,,,1.072,-0.7415647290446027,1.5470000000000002,-0.30485709198205996,,,,,,,,,,,,,,,,,,,,
11,240618_145449,LEARNING,1.0,12,1.0,1750.0,,,,,,,,,,12.0,12.0,12.0,cue2.png,Easy,B,,,,,,,,,,,,,,,,,,,,,,,,,,,18,22,Female,0.2857142857142857,1.0,0.0,1.0,1.7222222222222223,2.625,2.111111111111111,2.2222222222222223,1.625,2.5555555555555554,1.0,1.5,1.0,1.5,0.75,0.8333333333333334,0.8304604375152849,1.4880759942397088,-0.1857749880107418,1.368840616806261,9.551339977211838e-05,0.17163825730155824,,,-0.006751494714816916,-2.812507739501089,0.0012341484021679075,0.7946222581471672,,,,,,,,,,,,,,,,,,,,,,,,
12,240618_145509,LEARNING,1.0,13,1.0,1750.0,,,,,,,,,,13.0,13.0,13.0,cue2.png,Easy,B,,,,,,,,,,,,,,,,,,,,,,,,,,,18,22,Female,0.2857142857142857,1.0,0.0,1.0,1.7222222222222223,2.625,2.111111111111111,2.2222222222222223,1.625,2.5555555555555554,1.0,1.5,1.0,1.5,0.1666666666666666,0.6666666666666667,0.5382329625135753,-0.784722683308888,-0.6194637967201602,-0.731598782877556,,,0.0009718980603259627,0.44366522025197225,-0.0006102912349586721,-0.17075597197032258,0.00038221481615849633,0.3468513655204425,0.07099999999999995,-2.287668054566959,1.9809999999999999,0.5226268808117065,,,,,,,,,,,,,,,,,,,,
13,240618_145530,LEARNING,1.0,14,1.0,1750.0,,,,,,,,,,14.0,14.0,14.0,cue2.png,Easy,B,,,,,,,,,,,,,,,,,,,,,,,,,,,18,22,Female,0.2857142857142857,1.0,0.0,1.0,1.7222222222222223,2.625,2.111111111111111,2.2222222222222223,1.625,2.5555555555555554,1.0,1.5,1.0,1.5,0.75,0.8333333333333334,0.7033146124886116,0.4991995616771725,-0.3519509588491518,0.5640180126251786,-0.0017680377874537082,-0.9241368744826556,0.0006898235652696792,0.3128314740447822,,,,,,,1.5879999999999999,-0.22668464293933138,,,,,,,,,,,,,,,,,,,,
14,240618_145550,LEARNING,1.0,15,3.0,1750.0,,,,,,,,,,15.0,15.0,15.0,cue1.png,Hard,B,,,,,,,,,,,,,,,,,,,,,,,,,,,18,22,Female,0.2857142857142857,1.0,0.0,1.0,1.7222222222222223,2.625,2.111111111111111,2.2222222222222223,1.625,2.5555555555555554,1.0,1.5,1.0,1.5,0.1666666666666666,0.6666666666666667,0.5619254375051241,-0.6004545003519969,-0.5763861113687773,-0.5229651595463803,-0.0019618103545900193,-1.0380758753243997,-0.0017307733424503464,-0.8099065509984228,-0.0011079944296760276,-0.38485216641536196,-0.00013744566752721355,0.07372110928446476,,,1.0389999999999997,-1.2734328020724608,,,,,,,,,,,,,,,,,,,,
15,240618_145610,LEARNING,1.0,16,1.0,1750.0,,,,,,,,,,16.0,16.0,16.0,cue2.png,Easy,B,,,,,,,,,,,,,,,,,,,,,,,,,,,18,22,Female,0.2857142857142857,1.0,0.0,1.0,1.7222222222222223,2.625,2.111111111111111,2.2222222222222223,1.625,2.5555555555555554,1.0,1.5,1.0,1.5,1.0,1.0,0.5493675250036176,-0.6981236429472577,-0.598987616999554,-0.6324286549506791,,,,,1.5677201606665355e-05,0.09851587826856927,,,,,,,,,,,,,,,,,,,,,,,,,,
16,240618_145630,LEARNING,1.0,17,1.0,1750.0,,,,,,,,,,17.0,17.0,17.0,cue2.png,Easy,B,,,,,,,,,,,,,,,,,,,,,,,,,,,18,22,Female,0.2857142857142857,1.0,0.0,1.0,1.7222222222222223,2.625,2.111111111111111,2.2222222222222223,1.625,2.5555555555555554,1.0,1.5,1.0,1.5,0.75,0.8333333333333334,0.53365333750844,-0.8203407088052214,-0.6280088315267757,-0.7729840513443532,-0.004049516749781495,-2.2656551154327453,,,-0.006970869697533718,-2.9068759281215906,0.0006509232211454373,0.4880827999106543,,,,,,,,,,,,,,,,,,,,,,,,
17,240618_145651,LEARNING,1.0,18,3.0,1750.0,,,,,,,,,,18.0,18.0,18.0,cue1.png,Hard,B,,,,,,,,,,,,,,,,,,,,,,,,,,,18,22,Female,0.2857142857142857,1.0,0.0,1.0,1.7222222222222223,2.625,2.111111111111111,2.2222222222222223,1.625,2.5555555555555554,1.0,1.5,1.0,1.5,0.75,0.8333333333333334,0.694320737500675,0.42924971463250267,-0.3648212674553951,0.5016846004186484,,,-0.003245130592206512,-1.5123062204264688,,,-9.537218991670544e-05,0.09583466242399274,,,,,,,,,,,,,,,,,,,,,,,,
18,240618_145714,LEARNING,1.0,19,3.0,1750.0,,,,,,,,,,19.0,19.0,19.0,cue1.png,Hard,B,,,,,,,,,,,,,,,,,,,,,,,,,,,18,22,Female,0.2857142857142857,1.0,0.0,1.0,1.7222222222222223,2.625,2.111111111111111,2.2222222222222223,1.625,2.5555555555555554,1.0,1.5,1.0,1.5,0.1666666666666666,0.6666666666666667,0.8617018000222743,1.731055636692173,-0.14884600781870186,1.5476948630486989,,,-0.004366737953910262,-2.0325379162271973,0.0027085369547462396,1.2568990902726667,-0.005747568039487422,-2.874923648348122,0.6779999999999999,-1.3501208831463094,,,,,,,,,,,,,,,,,,,,,,
19,240618_145734,LEARNING,1.0,20,3.0,1750.0,,,,,,,,,,20.0,20.0,20.0,cue1.png,Hard,B,,,,,,,,,,,,,,,,,,,,,,,,,,,18,22,Female,0.2857142857142857,1.0,0.0,1.0,1.7222222222222223,2.625,2.111111111111111,2.2222222222222223,1.625,2.5555555555555554,1.0,1.5,1.0,1.5,0.75,0.8333333333333334,0.6014923625043593,-0.29272281012540136,-0.5083414410638778,-0.19341156356537711,,,0.0012021096224066109,0.5504435416355148,-0.00012295565874917858,0.03888040045317691,0.003034648442769322,1.7409536665976417,,,1.222,-0.9245167490280839,,,,,,,,,,,,,,,,,,,,
20,240618_145755,LEARNING,1.0,21,1.0,1750.0,,,,,,,,,,21.0,21.0,21.0,cue2.png,Easy,B,,,,,,,,,,,,,,,,,,,,,,,,,,,18,22,Female,0.2857142857142857,1.0,0.0,1.0,1.7222222222222223,2.625,2.111111111111111,2.2222222222222223,1.625,2.5555555555555554,1.0,1.5,1.0,1.5,0.75,0.8333333333333334,0.6509556750097545,0.0919780166834995,-0.4293137266342496,0.18933505502715262,,,,,-0.00014183895533900846,0.030757402687901392,1.506809955692653e-05,0.15388137851978917,0.83,-1.1153479505994581,0.7510000000000001,-1.8225465904701672,,,,,,,,,,,,,,,,,,,,
21,240618_145816,LEARNING,1.0,22,3.0,1750.0,,,,,,,,,,22.0,22.0,22.0,cue1.png,Hard,B,,,,,,,,,,,,,,,,,,,,,,,,,,,18,22,Female,0.2857142857142857,1.0,0.0,1.0,1.7222222222222223,2.625,2.111111111111111,2.2222222222222223,1.625,2.5555555555555554,1.0,1.5,1.0,1.5,0.75,0.8333333333333334,0.6760100999817951,0.2868387632401374,-0.39154726224931363,0.3722454003896163,-0.001645360877875159,-0.8520023886248089,0.0019635823794149467,0.903635110459343,0.0012794692753375792,0.6421593115988519,,,2.389,1.2926191667725224,1.795,0.16799089247152071,,,,,,,,,,,,,,,,,,,,
22,240618_145836,LEARNING,1.0,23,3.0,1750.0,,,,,,,,,,23.0,23.0,23.0,cue1.png,Hard,B,,,,,,,,,,,,,,,,,,,,,,,,,,,18,22,Female,0.2857142857142857,1.0,0.0,1.0,1.7222222222222223,2.625,2.111111111111111,2.2222222222222223,1.625,2.5555555555555554,1.0,1.5,1.0,1.5,1.0,1.0,0.5816162499977509,-0.4473092405066056,-0.5419444129919517,-0.35615730375229226,-0.0010609728368567066,-0.5083800148206413,-0.0039026319932594596,-1.8172730747288002,,,-0.002630301980623833,-1.2365083673277044,1.601,0.0755068585691097,2.1710000000000003,0.8848894495463057,,,,,,,,,,,,,,,,,,,,
23,240618_145856,LEARNING,1.0,24,3.0,1750.0,,,,,,,,,,24.0,24.0,24.0,cue1.png,Hard,B,,,,,,,,,,,,,,,,,,,,,,,,,,,18,22,Female,0.2857142857142857,1.0,0.0,1.0,1.7222222222222223,2.625,2.111111111111111,2.2222222222222223,1.625,2.5555555555555554,1.0,1.5,1.0,1.5,0.1666666666666666,0.6666666666666667,0.4538124874961795,-1.4413027806335466,-0.790071189394506,-1.557883626419893,0.0011856224184466444,0.8126264747357418,-0.0018712141740019005,-0.8750467903124254,,,-0.004358850910364255,-2.1450227279885468,1.432,-0.18552357301258682,,,,,,,,,,,,,,,,,,,,,,
24,240618_145916,LEARNING,1.0,25,1.0,1750.0,,,,,,,,,,25.0,25.0,25.0,cue2.png,Easy,B,,,,,,,,,,,,,,,,,,,,,,,,,,,18,22,Female,0.2857142857142857,1.0,0.0,1.0,1.7222222222222223,2.625,2.111111111111111,2.2222222222222223,1.625,2.5555555555555554,1.0,1.5,1.0,1.5,1.0,1.0,0.6102323124796385,-0.22474786442414874,-0.4939155541854207,-0.12354418270059851,0.0010953920936031384,0.759570703166885,-9.45009721835025e-05,-0.05095936587765012,0.0003340633327138733,0.235475535666074,-0.0003349023173630384,-0.030060854244196022,2.854,2.010838993313877,0.522,-2.2591683180502886,,,,,,,,,,,,,,,,,,,,
25,240618_145937,LEARNING,1.0,26,1.0,1750.0,,,,,,,,,,26.0,26.0,26.0,cue2.png,Easy,B,,,,,,,,,,,,,,,,,,,,,,,,,,,18,22,Female,0.2857142857142857,1.0,0.0,1.0,1.7222222222222223,2.625,2.111111111111111,2.2222222222222223,1.625,2.5555555555555554,1.0,1.5,1.0,1.5,0.75,0.8333333333333334,0.6866448125365423,0.36955022160112,-0.37593813277618443,0.44784345568113265,4.358880830157086e-05,0.14110640153526652,-0.00023697196619432105,-0.11704124920630134,,,-0.00011311303148245312,0.0865101885514996,1.662,0.16972494334120122,2.135,0.8162502259965914,,,,,,,,,,,,,,,,,,,,
26,240618_145958,LEARNING,1.0,27,3.0,1750.0,,,,,,,,,,27.0,27.0,27.0,cue1.png,Hard,B,,,,,,,,,,,,,,,,,,,,,,,,,,,18,22,Female,0.2857142857142857,1.0,0.0,1.0,1.7222222222222223,2.625,2.111111111111111,2.2222222222222223,1.625,2.5555555555555554,1.0,1.5,1.0,1.5,0.75,0.8333333333333334,0.6379108749970328,-0.009477892681717816,-0.4495566997575309,0.09129439208865064,-5.725968098434795e-05,0.08180710919759637,0.004122680769993534,1.905083081900173,-0.0002413307174419059,-0.012040810928063465,0.001742228660847737,1.0616660215240126,1.8169999999999997,0.409131552188319,,,,,,,,,,,,,,,,,,,,,,
27,240618_150020,LEARNING,1.0,28,1.0,1750.0,,,,,,,,,,28.0,28.0,28.0,cue2.png,Easy,B,,,,,,,,,,,,,,,,,,,,,,,,,,,18,22,Female,0.2857142857142857,1.0,0.0,1.0,1.7222222222222223,2.625,2.111111111111111,2.2222222222222223,1.625,2.5555555555555554,1.0,1.5,1.0,1.5,0.1666666666666666,0.4166666666666667,0.4081233000033535,-1.796650356734518,-0.8961859443424053,-2.0718180598299574,-1.8635995522653815e-05,0.10451798202840057,5.928427108004876e-05,0.020370370912412273,0.0002443039639757694,0.19686389027864495,0.00016296866464257653,0.23161697802656447,1.599,0.07241774103559849,1.587,-0.22859128803793433,,,,,,,,,,,,,,,,,,,,
28,240618_150043,LEARNING,1.0,29,1.0,1750.0,,,,,,,,,,29.0,29.0,29.0,cue2.png,Easy,B,,,,,,,,,,,,,,,,,,,,,,,,,,,18,22,Female,0.2857142857142857,1.0,0.0,1.0,1.7222222222222223,2.625,2.111111111111111,2.2222222222222223,1.625,2.5555555555555554,1.0,1.5,1.0,1.5,0.75,0.7083333333333334,0.6971153285786775,0.4509846418714149,-0.360804417664437,0.5211389865916456,4.66716007103728e-05,0.14291909510718126,0.00786377227073445,3.6403020560514827,-0.0002048838072417976,0.0036374986667838493,0.001151532839313344,0.751200041988831,2.504,1.4702434249494167,2.114,0.7762106789259253,,,,,,,,,,,,,,,,,,,,
29,240618_150105,LEARNING,1.0,30,3.0,1750.0,,,,,,,,,,30.0,30.0,30.0,cue1.png,Hard,B,,,,,,,,,,,,,,,,,,,,,,,,,,,18,22,Female,0.2857142857142857,1.0,0.0,1.0,1.7222222222222223,2.625,2.111111111111111,2.2222222222222223,1.625,2.5555555555555554,1.0,1.5,1.0,1.5,0.75,0.8333333333333334,0.7531605250114808,0.8868760594552044,-0.2834768932758678,0.8956512535535269,0.00106493965919046,0.7416645567940678,-0.0015717855755670407,-0.7361637436655307,0.00023461495298652624,0.19269598377784147,2.7517831468417894e-05,0.16042487869693833,1.563,0.016813625432396836,2.371,1.266218469266935,,,,,,,,,,,,,,,,,,,,
30,240618_150126,LEARNING,1.0,31,3.0,1750.0,,,,,,,,,,31.0,31.0,31.0,cue1.png,Hard,B,,,,,,,,,,,,,,,,,,,,,,,,,,,18,22,Female,0.2857142857142857,1.0,0.0,1.0,1.7222222222222223,2.625,2.111111111111111,2.2222222222222223,1.625,2.5555555555555554,1.0,1.5,1.0,1.5,0.75,0.8333333333333334,0.7070021999970777,0.5278797670977526,-0.34672150135479374,0.5893452941679244,-0.00250312332546158,-1.3563699453017808,0.0019426987733482531,0.893948731634219,-0.004664549179046323,-1.9147696860487933,,,,,,,,,,,,,,,,,,,,,,,,,,
31,240618_150146,LEARNING,1.0,32,1.0,1750.0,,,,,,,,,,32.0,32.0,32.0,cue2.png,Easy,B,,,,,,,,,,,,,,,,,,,,,,,,,,,18,22,Female,0.2857142857142857,1.0,0.0,1.0,1.7222222222222223,2.625,2.111111111111111,2.2222222222222223,1.625,2.5555555555555554,1.0,1.5,1.0,1.5,0.75,0.8333333333333334,0.5496022000006633,-0.6962984585667131,-0.5985605351695941,-0.6303602144363699,0.0011795179475840552,0.8090370228281264,,,-3.7790645951539005e-05,0.0755156990274456,-0.00323898014657611,-1.5564257531036398,1.672,0.18517053100875724,1.7719999999999998,0.12413805520364804,,,,,,,,,,,,,,,,,,,,
32,240618_150207,LEARNING,1.0,33,1.0,1750.0,,,,,,,,,,33.0,33.0,33.0,cue2.png,Easy,B,,,,,,,,,,,,,,,,,,,,,,,,,,,18,22,Female,0.2857142857142857,1.0,0.0,1.0,1.7222222222222223,2.625,2.111111111111111,2.2222222222222223,1.625,2.5555555555555554,1.0,1.5,1.0,1.5,0.75,0.8333333333333334,0.689517987484578,0.3918963347522643,-0.37176249436668357,0.4680668860718053,,,0.004315261804540945,1.9944073513392322,-0.0001190883278345497,0.04054400406326003,0.003851132302980806,2.170092408051335,1.649,0.14964567937337858,2.26,1.054580863321985,,,,,,,,,,,,,,,,,,,,
33,240618_150227,LEARNING,1.0,34,1.0,1750.0,,,,,,,,,,34.0,34.0,34.0,cue2.png,Easy,B,,,,,,,,,,,,,,,,,,,,,,,,,,,18,22,Female,0.2857142857142857,1.0,0.0,1.0,1.7222222222222223,2.625,2.111111111111111,2.2222222222222223,1.625,2.5555555555555554,1.0,1.5,1.0,1.5,1.0,1.0,0.5335943874670193,-0.8207991926496366,-0.6281193026762589,-0.7735190846452897,6.552605300778024e-05,0.154005584221369,-4.28357644932497e-05,-0.02699565136549779,-0.0002686814737725548,-0.023806242429685508,4.150913936871005e-05,0.1677786214421621,1.681,0.19907155990955783,1.2720000000000002,-0.8291844940979259,,,,,,,,,,,,,,,,,,,,
34,240618_150250,LEARNING,1.0,35,3.0,1750.0,,,,,,,,,,35.0,35.0,35.0,cue1.png,Hard,B,,,,,,,,,,,,,,,,,,,,,,,,,,,18,22,Female,0.2857142857142857,1.0,0.0,1.0,1.7222222222222223,2.625,2.111111111111111,2.2222222222222223,1.625,2.5555555555555554,1.0,1.5,1.0,1.5,0.75,0.8333333333333334,0.9540367374866036,2.4491904519049874,-0.047053099379488164,2.0406977517568308,-0.001125263149308468,-0.5461829611964525,,,-4.3875973076008736e-05,0.072897983503152,1.8901563550815376e-05,0.15589622289567115,1.3130000000000002,-0.3693260662565029,1.4680000000000002,-0.45548205477170867,,,,,,,,,,,,,,,,,,,,
35,240618_150311,LEARNING,1.0,36,3.0,1750.0,,,,,,,,,,36.0,36.0,36.0,cue1.png,Hard,B,,,,,,,,,,,,,,,,,,,,,,,,,,,18,22,Female,0.2857142857142857,1.0,0.0,1.0,1.7222222222222223,2.625,2.111111111111111,2.2222222222222223,1.625,2.5555555555555554,1.0,1.5,1.0,1.5,0.75,0.8333333333333334,0.6428375499963295,0.028839313539386787,-0.4418632305269838,0.12855536255312855,0.00022763136332629684,0.24932411853092212,,,0.0002875638385756831,0.21547292197126022,-0.0037401323761570423,-1.8198281883010339,0.6640000000000001,-1.3717447058808876,1.6309999999999998,-0.1446989036993961,,,,,,,,,,,,,,,,,,,,
36,240618_150333,LEARNING,1.0,37,1.0,1750.0,,,,,,,,,,37.0,37.0,37.0,cue2.png,Easy,B,,,,,,,,,,,,,,,,,,,,,,,,,,,18,22,Female,0.2857142857142857,1.0,0.0,1.0,1.7222222222222223,2.625,2.111111111111111,2.2222222222222223,1.625,2.5555555555555554,1.0,1.5,1.0,1.5,1.0,1.0,0.8005851624766365,1.255721094691528,-0.22241236559985314,1.1913986587851035,5.1320544878676565e-05,0.14565269182488877,0.0008948261000445391,0.40791716976219516,2.3471784862343255e-05,0.10186886179376718,0.000538982402789337,0.4292474153456849,2.593,1.6077091551906653,1.5579999999999998,-0.2838839958974259,,,,,,,,,,,,,,,,,,,,
37,240618_150355,LEARNING,1.0,38,3.0,1750.0,,,,,,,,,,38.0,38.0,38.0,cue1.png,Hard,B,,,,,,,,,,,,,,,,,,,,,,,,,,,18,22,Female,0.2857142857142857,1.0,0.0,1.0,1.7222222222222223,2.625,2.111111111111111,2.2222222222222223,1.625,2.5555555555555554,1.0,1.5,1.0,1.5,0.75,0.7083333333333334,0.6560265143135828,0.13141646053185801,-0.42155407269389045,0.22691657093655357,0.00014271264620438484,0.19939159235023213,-4.399970852792673e-05,-0.027535519950220137,0.00030861400042375264,0.2245280367303351,-1.1050659783474678e-05,0.1401535241703248,1.3260000000000003,-0.3492468022886799,1.7440000000000002,0.07075199244276065,,,,,,,,,,,,,,,,,,,,
38,240618_150415,LEARNING,1.0,39,3.0,1750.0,,,,,,,,,,39.0,39.0,39.0,cue1.png,Hard,B,,,,,,,,,,,,,,,,,,,,,,,,,,,18,22,Female,0.2857142857142857,1.0,0.0,1.0,1.7222222222222223,2.625,2.111111111111111,2.2222222222222223,1.625,2.5555555555555554,1.0,1.5,1.0,1.5,1.0,1.0,0.5178059624886373,-0.9435936404038453,-0.6581546966892103,-0.9189863498891588,1.898447047663475e-05,0.12663895802880837,-0.00010796374088798549,-0.0572037605138152,-0.00019168472965287297,0.009315324953549751,6.393152052615227e-05,0.1795636828490188,1.53,-0.03415681387053785,1.778,0.13557792579526737,,,,,,,,,,,,,,,,,,,,
39,240618_150435,LEARNING,1.0,40,3.0,1750.0,,,,,,,,,,40.0,40.0,40.0,cue1.png,Hard,B,,,,,,,,,,,,,,,,,,,,,,,,,,,18,22,Female,0.2857142857142857,1.0,0.0,1.0,1.7222222222222223,2.625,2.111111111111111,2.2222222222222223,1.625,2.5555555555555554,1.0,1.5,1.0,1.5,0.75,0.8333333333333334,0.6050404874840751,-0.26512727427912947,-0.5024599017291554,-0.16492612261935927,-5.2507857162541714e-05,0.08460119953986725,3.5685996467509345e-05,0.009424855718036026,,,,,2.1109999999999998,0.8632318296144655,2.143,0.8315033867854166,,,,,,,,,,,,,,,,,,,,
40,240618_150456,LEARNING,1.0,41,1.0,1750.0,,,,,,,,,,41.0,41.0,41.0,cue2.png,Easy,B,,,,,,,,,,,,,,,,,,,,,,,,,,,18,22,Female,0.2857142857142857,1.0,0.0,1.0,1.7222222222222223,2.625,2.111111111111111,2.2222222222222223,1.625,2.5555555555555554,1.0,1.5,1.0,1.5,0.75,0.8333333333333334,0.6006282750167884,-0.29944324905410247,-0.5097790465910085,-0.20037416723360252,-5.1444159303291794e-05,0.08522665789587479,-0.00014709682353212248,-0.07535473797792946,,,-0.0005112752069500186,-0.12276132703039801,2.158,0.9358260916519789,1.94,0.4444544317689775,,,,,,,,,,,,,,,,,,,,
41,240618_150516,LEARNING,1.0,42,3.0,1750.0,,,,,,,,,,42.0,42.0,42.0,cue1.png,Hard,B,,,,,,,,,,,,,,,,,,,,,,,,,,,18,22,Female,0.2857142857142857,1.0,0.0,1.0,1.7222222222222223,2.625,2.111111111111111,2.2222222222222223,1.625,2.5555555555555554,1.0,1.5,1.0,1.5,1.0,1.0,0.6255235624994384,-0.105820194043864,-0.4691662799214518,-0.0036786253385876315,-1.536243141749905e-05,0.10644285007781001,-3.756598639811058e-06,-0.008869681960723038,7.836581037943668e-06,0.09514309094538538,8.655428426135358e-05,0.19145406406857396,,,,,,,,,,,,,,,,,,,,,,,,
42,240618_150536,LEARNING,1.0,43,3.0,1750.0,,,,,,,,,,43.0,43.0,43.0,cue1.png,Hard,B,,,,,,,,,,,,,,,,,,,,,,,,,,,18,22,Female,0.2857142857142857,1.0,0.0,1.0,1.7222222222222223,2.625,2.111111111111111,2.2222222222222223,1.625,2.5555555555555554,1.0,1.5,1.0,1.5,0.75,0.8333333333333334,0.5183263624930987,-0.9395462302760698,-0.657150191693714,-0.914121336480124,-7.103627457880329e-05,0.07370642016636318,,,-6.553806184648537e-05,0.06357963710972882,,,0.8109999999999999,-1.1446945671678146,1.128,-1.1037413882967801,,,,,,,,,,,,,,,,,,,,
43,240618_150557,LEARNING,1.0,44,1.0,1750.0,,,,,,,,,,44.0,44.0,44.0,cue2.png,Easy,B,,,,,,,,,,,,,,,,,,,,,,,,,,,18,22,Female,0.2857142857142857,1.0,0.0,1.0,1.7222222222222223,2.625,2.111111111111111,2.2222222222222223,1.625,2.5555555555555554,1.0,1.5,1.0,1.5,1.0,1.0,0.6716486125078518,0.25291730201249263,-0.39801997327164285,0.34089679977774917,6.863767601221005e-05,0.15583523029232968,0.00010308045627898874,0.04068422090447864,,,7.085826207103851e-05,0.18320433429824348,0.8739999999999999,-1.0473873648622118,1.027,-1.2963125432556981,,,,,,,,,,,,,,,,,,,,
44,240618_150617,LEARNING,1.0,45,1.0,1750.0,,,,,,,,,,45.0,45.0,45.0,cue2.png,Easy,B,,,,,,,,,,,,,,,,,,,,,,,,,,,18,22,Female,0.2857142857142857,1.0,0.0,1.0,1.7222222222222223,2.625,2.111111111111111,2.2222222222222223,1.625,2.5555555555555554,1.0,1.5,1.0,1.5,1.0,1.0,0.5937569874949986,-0.3528846757799387,-0.521285155289904,-0.25610049349072755,-6.19859649873605e-05,0.07902803636517243,-1.953020397439057e-05,-0.016185904849662265,-0.00010560835459890849,0.04634266278517306,3.2309699179759125e-05,0.1629434539916477,1.5480000000000003,-0.006354756068936676,1.8299999999999996,0.23472347092263038,,,,,,,,,,,,,,,,,,,,
45,240618_150638,LEARNING,1.0,46,1.0,1750.0,,,,,,,,,,46.0,46.0,46.0,cue2.png,Easy,B,,,,,,,,,,,,,,,,,,,,,,,,,,,18,22,Female,0.2857142857142857,1.0,0.0,1.0,1.7222222222222223,2.625,2.111111111111111,2.2222222222222223,1.625,2.5555555555555554,1.0,1.5,1.0,1.5,1.0,1.0,0.5850140875263605,-0.4208825650493993,-0.5361193507985871,-0.32794539260576877,0.00018730446002076032,0.22561174717939741,-0.000146719224907472,-0.07517959756824497,0.00025826588634191103,0.20286986829416795,-0.00014694425662154387,0.0687287110655081,0.3839999999999999,-1.804221160572456,,,,,,,,,,,,,,,,,,,,,,
46,240618_150658,LEARNING,1.0,47,3.0,1750.0,,,,,,,,,,47.0,47.0,47.0,cue1.png,Hard,B,,,,,,,,,,,,,,,,,,,,,,,,,,,18,22,Female,0.2857142857142857,1.0,0.0,1.0,1.7222222222222223,2.625,2.111111111111111,2.2222222222222223,1.625,2.5555555555555554,1.0,1.5,1.0,1.5,0.1666666666666666,0.6666666666666667,0.6782112374930875,0.30395810639819903,-0.3882964798420759,0.38798957296414116,0.00334223152531017,2.0807207693702394,3.096773474396339e-05,0.007236398882353888,0.0013964242253914727,0.6924696370977029,3.302104182989658e-05,0.16331733117954855,2.318,1.1829554943328753,2.321,1.170886214336778,,,,,,,,,,,,,,,,,,,,
47,240618_150718,LEARNING,1.0,48,3.0,1750.0,,,,,,,,,,48.0,48.0,48.0,cue1.png,Hard,B,,,,,,,,,,,,,,,,,,,,,,,,,,,18,22,Female,0.2857142857142857,1.0,0.0,1.0,1.7222222222222223,2.625,2.111111111111111,2.2222222222222223,1.625,2.5555555555555554,1.0,1.5,1.0,1.5,1.0,1.0,0.5158732375130057,-0.9586254055335781,-0.6618942074153374,-0.9370975289349626,5.055443624227794e-05,0.14520221705512384,6.223766962078214e-05,0.021740236681559166,-0.0001523418845584823,0.02623937427200594,9.419623348538159e-05,0.1954706241404448,1.143,-0.6319010566049552,2.179,0.90014261033513,,,,,,,,,,,,,,,,,,,,
48,240618_150739,LEARNING,1.0,49,1.0,1750.0,,,,,,,,,,49.0,49.0,49.0,cue2.png,Easy,B,,,,,,,,,,,,,,,,,,,,,,,,,,,18,22,Female,0.2857142857142857,1.0,0.0,1.0,1.7222222222222223,2.625,2.111111111111111,2.2222222222222223,1.625,2.5555555555555554,1.0,1.5,1.0,1.5,1.0,1.0,0.6058193000062602,-0.25907006124510495,-0.5011735221869037,-0.1586959358604863,,,,,,,,,2.7600000000000002,1.865650469238851,,,,,,,,,,,,,,,,,,,,,,
49,240618_150801,LEARNING,1.0,50,1.0,1750.0,,,,,,,,,,50.0,50.0,50.0,cue2.png,Easy,B,,,,,,,,,,,,,,,,,,,,,,,,,,,18,22,Female,0.2857142857142857,1.0,0.0,1.0,1.7222222222222223,2.625,2.111111111111111,2.2222222222222223,1.625,2.5555555555555554,1.0,1.5,1.0,1.5,1.0,1.0,0.8356626250169938,1.528535998468178,-0.17953030594123112,1.3990848287708997,8.396026053136829e-05,0.16484496782239988,0.0006953511676855949,0.3153953248866453,0.0003753432133619676,0.2532328364985941,0.00017038596296842755,0.2355154630103556,1.2420000000000002,-0.47898973869615047,1.083,-1.1895404177339217,,,,,,,,,,,,,,,,,,,,
0,240618_150919,TrueCHOICE,9.0,1,1.0,1750.0,,,,,,,,,,,1.0,1.0,,,B,,,,,,True,cue2.png,Easy,cue1.png,Hard,Left,Easy,Easy,0.0159804000286385,,,,,,,,,,,,,18,22,Female,0.2857142857142857,1.0,0.0,1.0,1.7222222222222223,2.625,2.111111111111111,2.2222222222222223,1.625,2.5555555555555554,1.0,1.5,1.0,1.5,0.1666666666666666,0.6666666666666667,0.6700489999930141,0.2110899081850827,-0.4004044349533776,0.25029838085552836,,,,,,,,,,,,,8.94014747693378e-05,-0.47378844344281773,-7.333096190699148e-05,-0.6369952518107818,1.255,-1.7386938444591358,,,,,,,,,,,,,,
1,240618_150937,TrueCHOICE,9.0,2,1.0,1750.0,,,,,,,,,,,2.0,2.0,,,B,,,,,,True,cue2.png,Easy,cue1.png,Hard,Left,Easy,Easy,0.0163099999772384,,,,,,,,,,,,,18,22,Female,0.2857142857142857,1.0,0.0,1.0,1.7222222222222223,2.625,2.111111111111111,2.2222222222222223,1.625,2.5555555555555554,1.0,1.5,1.0,1.5,,,,,,,,,,,,,,,,,,,-1.0668589199794992e-06,-0.6856918824085821,-1.3813836732120763e-05,-0.4687728804826846,1.9009999999999998,1.6317374339222637,,,,,,,,,,,,,,
2,240618_150956,TrueCHOICE,9.0,3,1.0,1750.0,,,,,,,,,,,3.0,3.0,,,B,,,,,,True,cue1.png,Hard,cue2.png,Easy,Right,Easy,Easy,0.0164970000041648,,,,,,,,,,,,,18,22,Female,0.2857142857142857,1.0,0.0,1.0,1.7222222222222223,2.625,2.111111111111111,2.2222222222222223,1.625,2.5555555555555554,1.0,1.5,1.0,1.5,1.0,1.0,0.629096937525901,-0.7570527416300442,-0.4634699204423208,-0.7780881264100181,,,,,,,,,,,,,-6.730819585765505e-05,-0.8408485712339546,-0.00011190175736972875,-0.7460138016430949,1.588,-0.0013043464699611191,,,,,,,,,,,,,,
3,240618_151015,TrueCHOICE,9.0,4,1.0,1750.0,,,,,,,,,,,4.0,4.0,,,B,,,,,,True,cue2.png,Easy,cue1.png,Hard,Left,Easy,Easy,0.0161110999761149,,,,,,,,,,,,,18,22,Female,0.2857142857142857,1.0,0.0,1.0,1.7222222222222223,2.625,2.111111111111111,2.2222222222222223,1.625,2.5555555555555554,1.0,1.5,1.0,1.5,1.0,1.0,0.6309800999588333,-0.7125331311875791,-0.4604809542459479,-0.7293481146081329,,,,,,,,,,,,,,,,,1.547,-0.21521716754370399,,,,,,,,,,,,,,
4,240618_151036,TrueCHOICE,9.0,5,1.0,1750.0,,,,,,,,,,,5.0,5.0,,,B,,,,,,True,cue1.png,Hard,cue2.png,Easy,Right,Easy,Easy,0.0167340999469161,,,,,,,,,,,,,18,22,Female,0.2857142857142857,1.0,0.0,1.0,1.7222222222222223,2.625,2.111111111111111,2.2222222222222223,1.625,2.5555555555555554,1.0,1.5,1.0,1.5,0.75,0.8333333333333334,0.6809551375044975,0.4689205578158535,-0.384258852382227,0.5135786702148172,,,,,,,,,,,,,0.0009794918986960454,1.6110650531219848,,,,,,,,,,,,,,,,,,
5,240618_151054,TrueCHOICE,9.0,6,1.0,1750.0,,,,,,,,,,,6.0,6.0,,,B,,,,,,True,cue1.png,Hard,cue2.png,Easy,Right,Easy,Easy,0.0175261000404134,,,,,,,,,,,,,18,22,Female,0.2857142857142857,1.0,0.0,1.0,1.7222222222222223,2.625,2.111111111111111,2.2222222222222223,1.625,2.5555555555555554,1.0,1.5,1.0,1.5,1.0,0.875,0.6251719856934089,-0.8498420430371998,-0.4697284899905578,-0.8801444005874096,,,,,,,,,,,,,,,0.0009802172348848748,2.340809463252951,1.4589999999999999,-0.6743471249702728,,,,,,,,,,,,,,
6,240618_151114,TrueCHOICE,9.0,7,1.0,1750.0,,,,,,,,,,,7.0,7.0,,,B,,,,,,True,cue2.png,Easy,cue1.png,Hard,Left,Easy,Easy,0.0146754999877884,,,,,,,,,,,,,18,22,Female,0.2857142857142857,1.0,0.0,1.0,1.7222222222222223,2.625,2.111111111111111,2.2222222222222223,1.625,2.5555555555555554,1.0,1.5,1.0,1.5,,,,,,,,,,,,,,,,,,,0.000915663505653275,1.4615601884046783,0.00020626250779317342,0.1532626167038556,1.4629999999999999,-0.6534775814508833,,,,,,,,,,,,,,
7,240618_151133,TrueCHOICE,9.0,8,1.0,1750.0,,,,,,,,,,,8.0,8.0,,,B,,,,,,True,cue1.png,Hard,cue2.png,Easy,Right,Easy,Easy,0.0163191000465303,,,,,,,,,,,,,18,22,Female,0.2857142857142857,1.0,0.0,1.0,1.7222222222222223,2.625,2.111111111111111,2.2222222222222223,1.625,2.5555555555555554,1.0,1.5,1.0,1.5,0.75,0.8333333333333334,0.6541435125109274,-0.16492975651129027,-0.4244285135078514,-0.14145374859156737,,,,,,,,,,,,,0.00022583209484925912,-0.1542278149200358,,,,,,,,,,,,,,,,,,
8,240618_151153,TrueCHOICE,9.0,9,1.0,1750.0,,,,,,,,,,,9.0,9.0,,,B,,,,,,True,cue2.png,Easy,cue1.png,Hard,Left,Easy,Easy,0.0160708000184968,,,,,,,,,,,,,18,22,Female,0.2857142857142857,1.0,0.0,1.0,1.7222222222222223,2.625,2.111111111111111,2.2222222222222223,1.625,2.5555555555555554,1.0,1.5,1.0,1.5,1.0,1.0,0.7611421750043519,2.3646124055287077,-0.27293511202061804,2.3288954261015706,,,,,,,,,,,,,,,-4.410495751032504e-05,-0.5543893169708972,1.7670000000000001,0.932607726022718,,,,,,,,,,,,,,
9,240618_151212,TrueCHOICE,9.0,10,3.0,1750.0,,,,,,,,,,,10.0,10.0,,,B,,,,,,True,cue1.png,Hard,cue2.png,Easy,Left,Hard,Hard,0.0160860000178217,,,,,,,,,,,,,18,22,Female,0.2857142857142857,1.0,0.0,1.0,1.7222222222222223,2.625,2.111111111111111,2.2222222222222223,1.625,2.5555555555555554,1.0,1.5,1.0,1.5,0.75,0.8333333333333334,0.6374209750356385,-0.5602651991635437,-0.450324970361732,-0.5637380869747918,,,,,,,,,,,,,-0.00010027585786403191,-0.9180685295212725,0.00012093880872046138,-0.0879008290493482,1.726,0.7186949049489751,,,,,,,,,,,,,,
0,240618_151409,FalseCHOICE,9.0,1,2.0,1750.0,,,,,,,,,,,1.0,1.0,,,B,,,,,,False,cue2.png,Easy,cue1.png,Hard,Left,Easy,Mid,0.0157529999269172,,,,,,,,,,,,,18,22,Female,0.2857142857142857,1.0,0.0,1.0,1.7222222222222223,2.625,2.111111111111111,2.2222222222222223,1.625,2.5555555555555554,1.0,1.5,1.0,1.5,0.75,0.8333333333333334,0.6131637749786023,1.2383686376444485,-0.4891232091068577,1.1157840619302979,,,,,,,,,,,,,,,,,,,0.0016835028943499933,1.5804187891685293,,,,,,,,,,,,
1,240618_151427,FalseCHOICE,9.0,2,2.0,1750.0,,,,,,,,,,,2.0,2.0,,,B,,,,,,False,cue1.png,Hard,cue2.png,Easy,Right,Easy,Mid,0.0171675999881699,,,,,,,,,,,,,18,22,Female,0.2857142857142857,1.0,0.0,1.0,1.7222222222222223,2.625,2.111111111111111,2.2222222222222223,1.625,2.5555555555555554,1.0,1.5,1.0,1.5,,,,,,,,,,,,,,,,,,,,,,,,,-0.0001163712007576246,-0.03811193630783641,-9.554975814384751e-05,-0.42777044279373605,1.593,0.017480396542196068,,,,,,,,
2,240618_151445,FalseCHOICE,9.0,3,2.0,1750.0,,,,,,,,,,,3.0,3.0,,,B,,,,,,False,cue1.png,Hard,cue2.png,Easy,Right,Easy,Mid,0.0167568000033497,,,,,,,,,,,,,18,22,Female,0.2857142857142857,1.0,0.0,1.0,1.7222222222222223,2.625,2.111111111111111,2.2222222222222223,1.625,2.5555555555555554,1.0,1.5,1.0,1.5,,,,,,,,,,,,,,,,,,,,,,,,,0.0006445801456457217,0.6461710022011399,0.00029800828672396466,0.3421914993963824,1.608,0.04325002289432853,,,,,,,,
3,240618_151504,FalseCHOICE,9.0,4,2.0,1750.0,,,,,,,,,,,4.0,4.0,,,B,,,,,,False,cue1.png,Hard,cue2.png,Easy,Right,Easy,Mid,0.0167389000998809,,,,,,,,,,,,,18,22,Female,0.2857142857142857,1.0,0.0,1.0,1.7222222222222223,2.625,2.111111111111111,2.2222222222222223,1.625,2.5555555555555554,1.0,1.5,1.0,1.5,0.75,0.8333333333333334,0.5294831375067588,0.37824047912845515,-0.6358539605162169,0.43467740575773234,,,,,,,,,,,,,,,,,,,-2.3409360798467768e-05,0.045483685563545394,-7.344567929335605e-05,-0.3845257430499807,1.5290000000000001,-0.09247000922690123,,,,,,,,
4,240618_151523,FalseCHOICE,9.0,5,2.0,1750.0,,,,,,,,,,,5.0,5.0,,,B,,,,,,False,cue2.png,Easy,cue1.png,Hard,Right,Hard,Mid,0.0166371000232175,,,,,,,,,,,,,18,22,Female,0.2857142857142857,1.0,0.0,1.0,1.7222222222222223,2.625,2.111111111111111,2.2222222222222223,1.625,2.5555555555555554,1.0,1.5,1.0,1.5,,,,,,,,,,,,,,,,,,,,,,,,,0.00014686000210615766,0.19859783739089537,0.00018264945917487434,0.11650202851209153,1.4729999999999999,-0.18867661427486207,,,,,,,,
5,240618_151540,FalseCHOICE,9.0,6,2.0,1750.0,,,,,,,,,,,6.0,6.0,,,B,,,,,,False,cue1.png,Hard,cue2.png,Easy,Right,Easy,Mid,0.0140033999923616,,,,,,,,,,,,,18,22,Female,0.2857142857142857,1.0,0.0,1.0,1.7222222222222223,2.625,2.111111111111111,2.2222222222222223,1.625,2.5555555555555554,1.0,1.5,1.0,1.5,0.1666666666666666,0.6666666666666667,0.3444410750089446,-1.5237513468515953,-1.0658322481250615,-1.5612305473271837,,,,,,,,,,,,,,,,,,,8.823237726494904e-05,0.14587714296836474,-8.314253570964377e-05,-0.4034967957238788,1.754,0.2940743860550822,,,,,,,,
6,240618_151557,FalseCHOICE,9.0,7,2.0,1750.0,,,,,,,,,,,7.0,7.0,,,B,,,,,,False,cue1.png,Hard,cue2.png,Easy,Right,Easy,Mid,0.0166571999434381,,,,,,,,,,,,,18,22,Female,0.2857142857142857,1.0,0.0,1.0,1.7222222222222223,2.625,2.111111111111111,2.2222222222222223,1.625,2.5555555555555554,1.0,1.5,1.0,1.5,1.0,1.0,0.6729882500076201,1.8532864620719813,-0.3960274086166862,1.547923669793878,,,,,,,,,,,,,,,,,,,-6.24022375896368e-05,0.01041947227619997,7.169687668098172e-05,-0.10056700875457338,,,,,,,,,,
7,240618_151616,FalseCHOICE,9.0,8,2.0,1750.0,,,,,,,,,,,8.0,8.0,,,B,,,,,,False,cue2.png,Easy,cue1.png,Hard,Left,Easy,Mid,0.0167221999727189,,,,,,,,,,,,,18,22,Female,0.2857142857142857,1.0,0.0,1.0,1.7222222222222223,2.625,2.111111111111111,2.2222222222222223,1.625,2.5555555555555554,1.0,1.5,1.0,1.5,,,,,,,,,,,,,,,,,,,,,,,,,,,-0.0001459100123834059,-0.5262958818468302,1.609,0.04496799798447049,,,,,,,,
8,240618_151634,FalseCHOICE,9.0,9,2.0,1750.0,,,,,,,,,,,9.0,9.0,,,B,,,,,,False,cue2.png,Easy,cue1.png,Hard,Left,Easy,Mid,0.0015538000734522,,,,,,,,,,,,,18,22,Female,0.2857142857142857,1.0,0.0,1.0,1.7222222222222223,2.625,2.111111111111111,2.2222222222222223,1.625,2.5555555555555554,1.0,1.5,1.0,1.5,0.1666666666666666,0.6666666666666667,0.5921675250428962,1.0225544859057378,-0.523965702638463,0.954049360553227,,,,,,,,,,,,,,,,,,,-0.0010307696298887652,-0.8603816477831734,,,2.767,2.0343831523690796,,,,,,,,
9,240618_151652,FalseCHOICE,9.0,10,2.0,1750.0,,,,,,,,,,,10.0,10.0,,,B,,,,,,False,cue1.png,Hard,cue2.png,Easy,Right,Easy,Mid,0.0151300000725314,,,,,,,,,,,,,18,22,Female,0.2857142857142857,1.0,0.0,1.0,1.7222222222222223,2.625,2.111111111111111,2.2222222222222223,1.625,2.5555555555555554,1.0,1.5,1.0,1.5,,,,,,,,,,,,,,,,,,,,,,,,,,,,,,,,,,,,,,
10,240618_151709,FalseCHOICE,9.0,11,2.0,1750.0,,,,,,,,,,,11.0,11.0,,,B,,,,,,False,cue2.png,Easy,cue1.png,Hard,Left,Easy,Mid,0.0162305999547243,,,,,,,,,,,,,18,22,Female,0.2857142857142857,1.0,0.0,1.0,1.7222222222222223,2.625,2.111111111111111,2.2222222222222223,1.625,2.5555555555555554,1.0,1.5,1.0,1.5,1.0,1.0,0.3255259375291643,-1.7181743682349415,-1.1223131353187643,-1.823408092556527,,,,,,,,,,,,,,,,,,,0.000710121958801371,0.7051092572069749,0.0003982474746119214,0.5383007158035698,1.1389999999999998,-0.7624802943823401,,,,,,,,
11,240618_151726,FalseCHOICE,9.0,12,2.0,1750.0,,,,,,,,,,,12.0,12.0,,,B,,,,,,False,cue1.png,Hard,cue2.png,Easy,Right,Easy,Mid,0.0169009999372065,,,,,,,,,,,,,18,22,Female,0.2857142857142857,1.0,0.0,1.0,1.7222222222222223,2.625,2.111111111111111,2.2222222222222223,1.625,2.5555555555555554,1.0,1.5,1.0,1.5,,,,,,,,,,,,,,,,,,,,,,,,,-0.00010698425628919046,-0.02967075807109278,0.00030459317068466446,0.3550742497545409,2.415,1.4296559206390431,,,,,,,,
12,240618_151742,FalseCHOICE,9.0,13,2.0,1750.0,,,,,,,,,,,13.0,13.0,,,B,,,,,,False,cue2.png,Easy,cue1.png,Hard,Left,Easy,Mid,0.0159734999760985,,,,,,,,,,,,,18,22,Female,0.2857142857142857,1.0,0.0,1.0,1.7222222222222223,2.625,2.111111111111111,2.2222222222222223,1.625,2.5555555555555554,1.0,1.5,1.0,1.5,0.75,0.8333333333333334,0.3650280625006417,-1.3121438809478692,-1.0077810447916333,-1.2917637817756584,,,,,,,,,,,,,,,,,,,0.0002095139544515106,0.25493919327747055,-0.00010856922205553215,-0.4532418868423055,,,,,,,,,,
13,240618_151803,FalseCHOICE,9.0,14,2.0,1750.0,,,,,,,,,,,14.0,14.0,,,B,,,,,,False,cue1.png,Hard,cue2.png,Easy,Right,Easy,Mid,0.0155891999602317,,,,,,,,,,,,,18,22,Female,0.2857142857142857,1.0,0.0,1.0,1.7222222222222223,2.625,2.111111111111111,2.2222222222222223,1.625,2.5555555555555554,1.0,1.5,1.0,1.5,0.75,0.5833333333333334,0.4266018833926258,-0.6792450554049102,-0.851904058063339,-0.5682013915813426,,,,,,,,,,,,,,,,,,,2.868044863674722e-05,0.09232527147462168,-0.00021055391013997428,-0.6527660219353263,2.278,1.1942933332895687,,,,,,,,
14,240618_151819,FalseCHOICE,9.0,15,2.0,1750.0,,,,,,,,,,,15.0,15.0,,,B,,,,,,False,cue2.png,Easy,cue1.png,Hard,Left,Easy,Mid,0.0143422000110149,,,,,,,,,,,,,18,22,Female,0.2857142857142857,1.0,0.0,1.0,1.7222222222222223,2.625,2.111111111111111,2.2222222222222223,1.625,2.5555555555555554,1.0,1.5,1.0,1.5,,,,,,,,,,,,,,,,,,,,,,,,,-0.0008359135370907371,-0.6851579618058354,2.4192494042140668e-05,-0.193505184447132,,,,,,,,,,
15,240618_151837,FalseCHOICE,9.0,16,2.0,1750.0,,,,,,,,,,,16.0,16.0,,,B,,,,,,False,cue2.png,Easy,cue1.png,Hard,Left,Easy,Mid,0.0159539999440312,,,,,,,,,,,,,18,22,Female,0.2857142857142857,1.0,0.0,1.0,1.7222222222222223,2.625,2.111111111111111,2.2222222222222223,1.625,2.5555555555555554,1.0,1.5,1.0,1.5,1.0,1.0,0.468303574991296,-0.250605882886237,-0.7586385288450639,-0.1352739231953788,,,,,,,,,,,,,,,,,,,0.0012509867496120278,1.1914801009426046,-0.00018609867070083948,-0.6049214818456806,,,,,,,,,,
16,240618_151855,FalseCHOICE,9.0,17,2.0,1750.0,,,,,,,,,,,17.0,17.0,,,B,,,,,,False,cue1.png,Hard,cue2.png,Easy,Right,Easy,Mid,0.016815600101836,,,,,,,,,,,,,18,22,Female,0.2857142857142857,1.0,0.0,1.0,1.7222222222222223,2.625,2.111111111111111,2.2222222222222223,1.625,2.5555555555555554,1.0,1.5,1.0,1.5,0.75,0.8333333333333334,0.5288325374713168,0.371553156620862,-0.6370834615673345,0.4289702084480757,,,,,,,,,,,,,,,,,,,0.0011785311038256426,1.12632460520084,-0.00041667565506948176,-1.0560252136178283,,,,,,,,,,
17,240618_151909,FalseCHOICE,9.0,18,2.0,1750.0,,,,,,,,,,,18.0,18.0,,,B,,,,,,False,cue1.png,Hard,cue2.png,Easy,Right,Easy,Mid,0.0144903999753296,,,,,,,,,,,,,18,22,Female,0.2857142857142857,1.0,0.0,1.0,1.7222222222222223,2.625,2.111111111111111,2.2222222222222223,1.625,2.5555555555555554,1.0,1.5,1.0,1.5,0.1666666666666666,0.6666666666666667,0.2185479374893475,-2.817769124631632,-1.5207498949658118,-3.6729040329291385,,,,,,,,,,,,,,,,,,,0.0002750693437664521,0.3138896565988807,0.0003209826064739809,0.3871387494549112,,,,,,,,,,
18,240618_151927,FalseCHOICE,9.0,19,2.0,1750.0,,,,,,,,,,,19.0,19.0,,,B,,,,,,False,cue2.png,Easy,cue1.png,Hard,Left,Easy,Mid,0.014318500063382,,,,,,,,,,,,,18,22,Female,0.2857142857142857,1.0,0.0,1.0,1.7222222222222223,2.625,2.111111111111111,2.2222222222222223,1.625,2.5555555555555554,1.0,1.5,1.0,1.5,0.75,0.8333333333333334,0.4540383499843301,-0.3972338494834845,-0.7895736131771675,-0.27887089687319117,,,,,,,,,,,,,,,,,,,0.0007797775381940177,0.7677468026632399,0.000785050830017839,1.2950476980029242,0.22100000000000009,-2.339581427132833,,,,,,,,
19,240618_151951,FalseCHOICE,9.0,20,2.0,1750.0,,,,,,,,,,,21.0,20.0,,,B,,,,,,False,cue2.png,Easy,cue1.png,Hard,Left,Easy,Mid,0.016156900092028,,,,,,,,,,,,,18,22,Female,0.2857142857142857,1.0,0.0,1.0,1.7222222222222223,2.625,2.111111111111111,2.2222222222222223,1.625,2.5555555555555554,1.0,1.5,1.0,1.5,0.75,0.8333333333333334,0.5568173499777913,0.6592006456317869,-0.5855180102861318,0.6683308861439516,,,,,,,,,,,,,,,,,,,0.000140843641160876,0.1931876450491293,0.000176902869407291,0.10525932752778187,1.6429999999999998,0.10337915104930324,,,,,,,,
20,240618_152008,FalseCHOICE,9.0,21,2.0,1750.0,,,,,,,,,,,22.0,21.0,,,B,,,,,,False,cue2.png,Easy,cue1.png,Hard,Left,Easy,Mid,0.0160768000641837,,,,,,,,,,,,,18,22,Female,0.2857142857142857,1.0,0.0,1.0,1.7222222222222223,2.625,2.111111111111111,2.2222222222222223,1.625,2.5555555555555554,1.0,1.5,1.0,1.5,0.75,0.8333333333333334,0.4730308250000234,-0.20201589877886741,-0.7485947234803779,-0.08865177602117039,,,,,,,,,,,,,,,,,,,6.968714085733851e-05,0.12920040151265427,0.00015879318342515956,0.0698293085684731,0.7450000000000001,-1.4393624798983464,,,,,,,,
21,240618_152028,FalseCHOICE,9.0,22,2.0,1750.0,,,,,,,,,,,23.0,22.0,,,B,,,,,,False,cue1.png,Hard,cue2.png,Easy,Right,Easy,Mid,0.0164255999261513,,,,,,,,,,,,,18,22,Female,0.2857142857142857,1.0,0.0,1.0,1.7222222222222223,2.625,2.111111111111111,2.2222222222222223,1.625,2.5555555555555554,1.0,1.5,1.0,1.5,0.75,0.8333333333333334,0.7319932999962475,2.459781662433463,-0.3119839180733054,1.9380435340162974,,,,,,,,,,,,,,,,,,,0.00041580864453777573,0.44044899938825893,0.0001927050292382616,0.13617487310718798,1.835,0.43323036835659623,,,,,,,,
22,240618_152046,FalseCHOICE,9.0,23,2.0,1750.0,,,,,,,,,,,24.0,23.0,,,B,,,,,,False,cue2.png,Easy,cue1.png,Hard,Left,Easy,Mid,0.0151729000499472,,,,,,,,,,,,,18,22,Female,0.2857142857142857,1.0,0.0,1.0,1.7222222222222223,2.625,2.111111111111111,2.2222222222222223,1.625,2.5555555555555554,1.0,1.5,1.0,1.5,0.1666666666666666,0.6666666666666667,0.4643944625277072,-0.2907864767048473,-0.7670209531577702,-0.17418413758062892,,,,,,,,,,,,,,,,,,,0.0018109583811393888,1.6950327069197313,0.0026380557347947236,4.920289956356551,1.9169999999999998,0.5741043257482522,,,,,,,,
23,240618_152103,FalseCHOICE,9.0,24,2.0,1750.0,,,,,,,,,,,25.0,24.0,,,B,,,,,,False,cue1.png,Hard,cue2.png,Easy,Right,Easy,Mid,0.0155947000021114,,,,,,,,,,,,,18,22,Female,0.2857142857142857,1.0,0.0,1.0,1.7222222222222223,2.625,2.111111111111111,2.2222222222222223,1.625,2.5555555555555554,1.0,1.5,1.0,1.5,0.75,0.8333333333333334,0.5510781749908347,0.6002093883699974,-0.5958786015067391,0.6202382567908074,,,,,,,,,,,,,,,,,,,0.0004437640774919045,0.4655878284337131,0.000326055600077306,0.3970636183744278,2.2489999999999997,1.1444720556754457,,,,,,,,
24,240618_152120,FalseCHOICE,9.0,25,2.0,1750.0,,,,,,,,,,,26.0,25.0,,,B,,,,,,False,cue1.png,Hard,cue2.png,Easy,Right,Easy,Mid,0.0168221000349149,,,,,,,,,,,,,18,22,Female,0.2857142857142857,1.0,0.0,1.0,1.7222222222222223,2.625,2.111111111111111,2.2222222222222223,1.625,2.5555555555555554,1.0,1.5,1.0,1.5,0.75,0.8333333333333334,0.5044177375093568,0.1206007551303393,-0.6843505099478964,0.2095622046015292,,,,,,,,,,,,,,,,,,,-4.980899119048053e-05,0.02174390673855069,0.0002621473729717142,0.2720327536625244,2.0100000000000002,0.7338760091314729,,,,,,,,
25,240618_152138,FalseCHOICE,9.0,26,2.0,1750.0,,,,,,,,,,,27.0,26.0,,,B,,,,,,False,cue2.png,Easy,cue1.png,Hard,Right,Hard,Mid,0.0164878000505268,,,,,,,,,,,,,18,22,Female,0.2857142857142857,1.0,0.0,1.0,1.7222222222222223,2.625,2.111111111111111,2.2222222222222223,1.625,2.5555555555555554,1.0,1.5,1.0,1.5,0.75,0.8333333333333334,0.4976144999818643,0.050672318358595383,-0.6979295981467878,0.1465296959543381,,,,,,,,,,,,,,,,,,,-0.00023939729106934628,-0.14874273417642064,-0.00015979282375323334,-0.5534563897941691,1.508,-0.1285474861198866,,,,,,,,
26,240618_152155,FalseCHOICE,9.0,27,2.0,1750.0,,,,,,,,,,,28.0,27.0,,,B,,,,,,False,cue2.png,Easy,cue1.png,Hard,Right,Hard,Mid,0.0164845999097451,,,,,,,,,,,,,18,22,Female,0.2857142857142857,1.0,0.0,1.0,1.7222222222222223,2.625,2.111111111111111,2.2222222222222223,1.625,2.5555555555555554,1.0,1.5,1.0,1.5,0.75,0.8333333333333334,0.4819433499797014,-0.11040672932102709,-0.7299287030013103,-0.0020063341459545443,,,,,,,,,,,,,,,,,,,,,,,1.9909999999999999,0.7012344824187714,,,,,,,,
27,240618_152216,FalseCHOICE,9.0,28,2.0,1750.0,,,,,,,,,,,29.0,28.0,,,B,,,,,,False,cue1.png,Hard,cue2.png,Easy,Right,Easy,Mid,0.0164463000837713,,,,,,,,,,,,,18,22,Female,0.2857142857142857,1.0,0.0,1.0,1.7222222222222223,2.625,2.111111111111111,2.2222222222222223,1.625,2.5555555555555554,1.0,1.5,1.0,1.5,0.75,0.7083333333333334,0.470150142858204,-0.23162556597035772,-0.7547031824024473,-0.11700651414399821,,,,,,,,,,,,,,,,,,,-0.00013306731529898023,-0.05312586114552961,-3.964008989032833e-05,-0.31838805989734814,0.9589999999999999,-1.071715810607927,,,,,,,,
28,240618_152235,FalseCHOICE,9.0,29,2.0,1750.0,,,,,,,,,,,30.0,29.0,,,B,,,,,,False,cue2.png,Easy,cue1.png,Hard,Left,Easy,Mid,0.0160550000146031,,,,,,,,,,,,,18,22,Female,0.2857142857142857,1.0,0.0,1.0,1.7222222222222223,2.625,2.111111111111111,2.2222222222222223,1.625,2.5555555555555554,1.0,1.5,1.0,1.5,0.75,0.7083333333333334,0.50969322858977,0.17482594467660795,-0.6739462468141082,0.2578575537695016,,,,,,,,,,,,,,,,,,,1.9279528268726157e-05,0.08387152545718765,-4.917934080948209e-05,-0.337050771181061,,,,,,,,,,
29,240618_152253,FalseCHOICE,9.0,30,2.0,1750.0,,,,,,,,,,,31.0,30.0,,,B,,,,,,False,cue2.png,Easy,cue1.png,Hard,Left,Easy,Mid,0.0159492000238969,,,,,,,,,,,,,18,22,Female,0.2857142857142857,1.0,0.0,1.0,1.7222222222222223,2.625,2.111111111111111,2.2222222222222223,1.625,2.5555555555555554,1.0,1.5,1.0,1.5,0.1666666666666666,0.6666666666666667,0.4799811624980066,-0.13057546555778393,-0.7340084206461172,-0.02094389710731598,,,,,,,,,,,,,,,,,,,,,-0.0001638702456995744,-0.5614335097180875,1.38,-0.34844829765808194,,,,,,,,
30,240618_152310,FalseCHOICE,9.0,31,2.0,1750.0,,,,,,,,,,,32.0,31.0,,,B,,,,,,False,cue1.png,Hard,cue2.png,Easy,Left,Hard,Mid,0.0136096000205725,,,,,,,,,,,,,18,22,Female,0.2857142857142857,1.0,0.0,1.0,1.7222222222222223,2.625,2.111111111111111,2.2222222222222223,1.625,2.5555555555555554,1.0,1.5,1.0,1.5,0.1666666666666666,0.6666666666666667,0.4893560374766821,-0.03421393921975825,-0.7146649614390345,0.06884613458542811,,,,,,,,,,,,,,,,,,,0.0002463593827890555,0.28807232076663986,0.0001550497406350433,0.06250558969461899,1.208,-0.6439400131625316,,,,,,,,
31,240618_152329,FalseCHOICE,9.0,32,2.0,1750.0,,,,,,,,,,,33.0,32.0,,,B,,,,,,False,cue2.png,Easy,cue1.png,Hard,Left,Easy,Mid,0.0158052999759092,,,,,,,,,,,,,18,22,Female,0.2857142857142857,1.0,0.0,1.0,1.7222222222222223,2.625,2.111111111111111,2.2222222222222223,1.625,2.5555555555555554,1.0,1.5,1.0,1.5,0.75,0.7083333333333334,0.5270521142852626,0.3532527210282764,-0.6404558467430927,0.4133159984864678,,,,,,,,,,,,,,,,,,,0.00020667302169282906,0.2523844940507652,-0.00014059868900641185,-0.515904741540389,1.5529999999999997,-0.05123860706349036,,,,,,,,
32,240618_152347,FalseCHOICE,9.0,33,2.0,1750.0,,,,,,,,,,,34.0,33.0,,,B,,,,,,False,cue1.png,Hard,cue2.png,Easy,Left,Hard,Mid,0.0160238000098615,,,,,,,,,,,,,18,22,Female,0.2857142857142857,1.0,0.0,1.0,1.7222222222222223,2.625,2.111111111111111,2.2222222222222223,1.625,2.5555555555555554,1.0,1.5,1.0,1.5,0.75,0.8333333333333334,0.577295650015003,0.8696909458099088,-0.5494007519947325,0.8359828935704383,,,,,,,,,,,,,,,,,,,-1.8152491559722192e-05,0.050210907543043096,0.00011706776315764536,-0.01180283196791192,1.9100000000000001,0.5620785001172578,,,,,,,,
33,240618_152403,FalseCHOICE,9.0,34,2.0,1750.0,,,,,,,,,,,35.0,34.0,,,B,,,,,,False,cue1.png,Hard,cue2.png,Easy,Left,Hard,Mid,0.0160983999958261,,,,,,,,,,,,,18,22,Female,0.2857142857142857,1.0,0.0,1.0,1.7222222222222223,2.625,2.111111111111111,2.2222222222222223,1.625,2.5555555555555554,1.0,1.5,1.0,1.5,0.75,0.8333333333333334,0.3934459875017637,-1.020044558589275,-0.9328114822949474,-0.943764009837048,,,,,,,,,,,,,,,,,,,2.3263600610137075e-05,0.0874541891082852,7.447220244445867e-05,-0.09513732628988197,0.6289999999999998,-1.6386475903548365,,,,,,,,
34,240618_152422,FalseCHOICE,9.0,35,2.0,1750.0,,,,,,,,,,,36.0,35.0,,,B,,,,,,False,cue1.png,Hard,cue2.png,Easy,Left,Hard,Mid,0.0161236999556422,,,,,,,,,,,,,18,22,Female,0.2857142857142857,1.0,0.0,1.0,1.7222222222222223,2.625,2.111111111111111,2.2222222222222223,1.625,2.5555555555555554,1.0,1.5,1.0,1.5,1.0,1.0,0.6040224249882158,1.1444074445760166,-0.504143954272596,1.046059553503882,,,,,,,,,,,,,,,,,,,-0.00046560471775325754,-0.352159001688711,-1.8835152898952646e-05,-0.27768501773643106,0.9589999999999999,-1.071715810607927,,,,,,,,
35,240618_152438,FalseCHOICE,9.0,36,2.0,1750.0,,,,,,,,,,,37.0,36.0,,,B,,,,,,False,cue2.png,Easy,cue1.png,Hard,Left,Easy,Mid,0.015869399998337,,,,,,,,,,,,,18,22,Female,0.2857142857142857,1.0,0.0,1.0,1.7222222222222223,2.625,2.111111111111111,2.2222222222222223,1.625,2.5555555555555554,1.0,1.5,1.0,1.5,0.1666666666666666,0.6666666666666667,0.4468324249901343,-0.4713013898717553,-0.8055716428219514,-0.3531318433486096,,,,,,,,,,,,,,,,,,,,,0.0002806535411854498,0.30823845547998024,1.9760000000000002,0.6754648560666398,,,,,,,,
36,240618_152458,FalseCHOICE,9.0,37,2.0,1750.0,,,,,,,,,,,38.0,37.0,,,B,,,,,,False,cue1.png,Hard,cue2.png,Easy,Right,Easy,Mid,0.0158774999435991,,,,,,,,,,,,,18,22,Female,0.2857142857142857,1.0,0.0,1.0,1.7222222222222223,2.625,2.111111111111111,2.2222222222222223,1.625,2.5555555555555554,1.0,1.5,1.0,1.5,0.1666666666666666,0.6666666666666667,0.6248235500097508,1.358215965882441,-0.4702859890899235,1.2032241916514805,,,,,,,,,,,,,,,,,,,,,,,1.9840000000000002,0.689208656787777,,,,,,,,
37,240618_152515,FalseCHOICE,9.0,38,2.0,1750.0,,,,,,,,,,,39.0,38.0,,,B,,,,,,False,cue2.png,Easy,cue1.png,Hard,Left,Easy,Mid,0.0154188999440521,,,,,,,,,,,,,18,22,Female,0.2857142857142857,1.0,0.0,1.0,1.7222222222222223,2.625,2.111111111111111,2.2222222222222223,1.625,2.5555555555555554,1.0,1.5,1.0,1.5,0.1666666666666666,0.6666666666666667,0.4330105874978471,-0.6133719092741502,-0.8369930997823974,-0.49898650078638596,,,,,,,,,,,,,,,,,,,,,0.0005711926143013926,0.8766527769140792,1.5979999999999999,0.02607027199290663,,,,,,,,
38,240618_152534,FalseCHOICE,9.0,39,2.0,1750.0,,,,,,,,,,,40.0,39.0,,,B,,,,,,False,cue2.png,Easy,cue1.png,Hard,Left,Easy,Mid,0.0169651000760495,,,,,,,,,,,,,18,22,Female,0.2857142857142857,1.0,0.0,1.0,1.7222222222222223,2.625,2.111111111111111,2.2222222222222223,1.625,2.5555555555555554,1.0,1.5,1.0,1.5,0.1666666666666666,0.5416666666666667,0.4419237999910755,-0.5217556730708601,-0.816617809976955,-0.4044068344612622,,,,,,,,,,,,,,,,,,,,,-0.0012152945143653082,-2.618453262013092,0.35199999999999987,-2.1145266903242117,,,,,,,,
39,240618_152551,FalseCHOICE,9.0,40,2.0,1750.0,,,,,,,,,,,41.0,40.0,,,B,,,,,,False,cue1.png,Hard,cue2.png,Easy,Left,Hard,Mid,0.0165404999861493,,,,,,,,,,,,,18,22,Female,0.2857142857142857,1.0,0.0,1.0,1.7222222222222223,2.625,2.111111111111111,2.2222222222222223,1.625,2.5555555555555554,1.0,1.5,1.0,1.5,0.75,0.8333333333333334,0.4091841250192374,-0.858276966343925,-0.8935900408203714,-0.7617027541259805,,,,,,,,,,,,,,,,,,,-0.003766296155872994,-3.3202946743087125,-3.918741879068268e-05,-0.3175024484263044,2.254,1.153061931126157,,,,,,,,
40,240618_152608,FalseCHOICE,9.0,41,2.0,1750.0,,,,,,,,,,,42.0,41.0,,,B,,,,,,False,cue1.png,Hard,cue2.png,Easy,Left,Hard,Mid,0.0160774999530985,,,,,,,,,,,,,18,22,Female,0.2857142857142857,1.0,0.0,1.0,1.7222222222222223,2.625,2.111111111111111,2.2222222222222223,1.625,2.5555555555555554,1.0,1.5,1.0,1.5,0.75,0.8333333333333334,0.5260152374976315,0.3425949757134992,-0.6424250980373339,0.40417496873434616,,,,,,,,,,,,,,,,,,,,,,,1.307,-0.47386047923845875,,,,,,,,
41,240618_152625,FalseCHOICE,9.0,42,2.0,1750.0,,,,,,,,,,,43.0,42.0,,,B,,,,,,False,cue2.png,Easy,cue1.png,Hard,Left,Easy,Mid,0.0162792999763041,,,,,,,,,,,,,18,22,Female,0.2857142857142857,1.0,0.0,1.0,1.7222222222222223,2.625,2.111111111111111,2.2222222222222223,1.625,2.5555555555555554,1.0,1.5,1.0,1.5,0.75,0.8333333333333334,0.4821531625057105,-0.10825012933467398,-0.7294934508733246,1.4054345461626609e-05,,,,,,,,,,,,,,,,,,,,,,,1.697,0.19614980591697978,,,,,,,,
42,240618_152643,FalseCHOICE,9.0,43,2.0,1750.0,,,,,,,,,,,44.0,43.0,,,B,,,,,,False,cue1.png,Hard,cue2.png,Easy,Right,Easy,Mid,0.0165552999824285,,,,,,,,,,,,,18,22,Female,0.2857142857142857,1.0,0.0,1.0,1.7222222222222223,2.625,2.111111111111111,2.2222222222222223,1.625,2.5555555555555554,1.0,1.5,1.0,1.5,0.75,0.8333333333333334,0.4728973875317024,-0.20338746246876643,-0.7488768537042962,-0.08996139088766911,,,,,,,,,,,,,,,,,,,1.7818242404026713e-06,0.06813677396978442,-2.0202729408051734e-05,-0.2803605617350125,0.7689999999999999,-1.3981310777349354,,,,,,,,
43,240618_152701,FalseCHOICE,9.0,44,2.0,1750.0,,,,,,,,,,,45.0,44.0,,,B,,,,,,False,cue2.png,Easy,cue1.png,Hard,Left,Easy,Mid,0.0159604999935254,,,,,,,,,,,,,18,22,Female,0.2857142857142857,1.0,0.0,1.0,1.7222222222222223,2.625,2.111111111111111,2.2222222222222223,1.625,2.5555555555555554,1.0,1.5,1.0,1.5,0.75,0.8333333333333334,0.5257827374880435,0.3402051778923588,-0.642867198172349,0.40212279261065476,,,,,,,,,,,,,,,,,,,-3.7891018620223385e-05,0.03246110348179976,-0.00019336976648473732,-0.6191467457035208,,,,,,,,,,
44,240618_152720,FalseCHOICE,9.0,45,2.0,1750.0,,,,,,,,,,,46.0,45.0,,,B,,,,,,False,cue1.png,Hard,cue2.png,Easy,Right,Easy,Mid,0.0158283999189734,,,,,,,,,,,,,18,22,Female,0.2857142857142857,1.0,0.0,1.0,1.7222222222222223,2.625,2.111111111111111,2.2222222222222223,1.625,2.5555555555555554,1.0,1.5,1.0,1.5,0.75,0.8333333333333334,0.5440149375208421,0.5276084902199315,-0.6087785738251585,0.560358123102915,,,,,,,,,,,,,,,,,,,,,,,2.79,2.073896579442349,,,,,,,,
45,240618_152736,FalseCHOICE,9.0,46,2.0,1750.0,,,,,,,,,,,47.0,46.0,,,B,,,,,,False,cue1.png,Hard,cue2.png,Easy,Right,Easy,Mid,0.0165693999733775,,,,,,,,,,,,,18,22,Female,0.2857142857142857,1.0,0.0,1.0,1.7222222222222223,2.625,2.111111111111111,2.2222222222222223,1.625,2.5555555555555554,1.0,1.5,1.0,1.5,0.1666666666666666,0.6666666666666667,0.35321151248354,-1.4336026522154957,-1.0406882159830215,-1.4445149475604944,,,,,,,,,,,,,,,,,,,0.00017162524615256265,0.22086789979247157,0.0005470990233643384,0.8295157705330777,1.594,0.01919837163233841,,,,,,,,
46,240618_152753,FalseCHOICE,9.0,47,2.0,1750.0,,,,,,,,,,,48.0,47.0,,,B,,,,,,False,cue2.png,Easy,cue1.png,Hard,Left,Easy,Mid,0.015409400104545,,,,,,,,,,,,,18,22,Female,0.2857142857142857,1.0,0.0,1.0,1.7222222222222223,2.625,2.111111111111111,2.2222222222222223,1.625,2.5555555555555554,1.0,1.5,1.0,1.5,1.0,1.0,0.3855619250098243,-1.1010824707956512,-0.953053463315517,-1.0377248726746202,,,,,,,,,,,,,,,,,,,-0.0002478178270607159,-0.1563148728410401,,,1.3699999999999999,-0.3656280485595034,,,,,,,,
47,240618_152811,FalseCHOICE,9.0,48,2.0,1750.0,,,,,,,,,,,49.0,48.0,,,B,,,,,,False,cue2.png,Easy,cue1.png,Hard,Left,Easy,Mid,0.0172497000312432,,,,,,,,,,,,,18,22,Female,0.2857142857142857,1.0,0.0,1.0,1.7222222222222223,2.625,2.111111111111111,2.2222222222222223,1.625,2.5555555555555554,1.0,1.5,1.0,1.5,0.75,0.8333333333333334,0.4531823124998482,-0.40603280187430313,-0.7914607786131818,-0.2876308938569329,,,,,,,,,,,,,,,,,,,-4.156957051951356e-05,0.029153178060547114,0.00015896737024036645,0.07017008985928791,1.064,-0.8913284261430009,,,,,,,,
48,240618_152828,FalseCHOICE,9.0,49,2.0,1750.0,,,,,,,,,,,50.0,49.0,,,B,,,,,,False,cue1.png,Hard,cue2.png,Easy,Left,Hard,Mid,0.0165174000430852,,,,,,,,,,,,,18,22,Female,0.2857142857142857,1.0,0.0,1.0,1.7222222222222223,2.625,2.111111111111111,2.2222222222222223,1.625,2.5555555555555554,1.0,1.5,1.0,1.5,0.75,0.8333333333333334,0.6203021749970503,1.3117421090724615,-0.4775485406460812,1.1695122931013588,,,,,,,,,,,,,,,,,,,-0.003923345000460403,-3.46152031951146,,,2.216,1.0877788777007555,,,,,,,,
49,240618_152847,FalseCHOICE,9.0,50,2.0,1750.0,,,,,,,,,,,51.0,50.0,,,B,,,,,,False,cue2.png,Easy,cue1.png,Hard,Left,Easy,Mid,0.0158936999505385,,,,,,,,,,,,,18,22,Female,0.2857142857142857,1.0,0.0,1.0,1.7222222222222223,2.625,2.111111111111111,2.2222222222222223,1.625,2.5555555555555554,1.0,1.5,1.0,1.5,0.75,0.8333333333333334,0.6151361250085756,1.2586418316649977,-0.4859116941906712,1.1306915313244235,,,,,,,,,,,,,,,,,,,-0.0023326763980098,-2.031116929566057,0.0002393592932012083,0.22744986585807006,1.46,-0.21101029044670983,,,,,,,,
0,240618_145009,OFFLINERATING,9.0,1,1.0,,,,,,,,,,,,,,,,,T0,cue2.png,Easy,31.0,0.9850523000350222,,,,,,,,,,,,,,,,,,,,,,18,22,Female,0.2857142857142857,1.0,0.0,1.0,1.7222222222222223,2.625,2.111111111111111,2.2222222222222223,1.625,2.5555555555555554,1.0,1.5,1.0,1.5,,,,,,,,,,,,,,,,,,,,,,,,,,,,,,,0.9897538280618564,0.0010540330252582029,-0.017950508420370853,-0.0009653034775587012,-0.6647400829425488,1.412,-1.142305269444538,
1,240618_145016,OFFLINERATING,9.0,2,3.0,,,,,,,,,,,,,,,,,T0,cue1.png,Hard,37.0,1.4367227000184355,,,,,,,,,,,,,,,,,,,,,,18,22,Female,0.2857142857142857,1.0,0.0,1.0,1.7222222222222223,2.625,2.111111111111111,2.2222222222222223,1.625,2.5555555555555554,1.0,1.5,1.0,1.5,,,,,,,,,,,,,,,,,,,,,,,,,,,,,,,1.372884342150317,,,0.001567006085591419,1.4133836707087368,1.9330000000000003,1.6066141087568675,
2,240618_150829,OFFLINERATING,9.0,3,1.0,,,,,,,,,,,,,,,,,T1,cue2.png,Easy,1.0,1.5137198000447825,,,,,,,,,,,,,,,,,,,,,,18,22,Female,0.2857142857142857,1.0,0.0,1.0,1.7222222222222223,2.625,2.111111111111111,2.2222222222222223,1.625,2.5555555555555554,1.0,1.5,1.0,1.5,,,,,,,,,,,,,,,,,,,,,,,,,,,,,,,-0.9258987423804463,-0.003268439689954418,-1.2156709536537786,-0.001067544572331523,-0.7486435877661879,1.595,-0.17675393314730758,
3,240618_150836,OFFLINERATING,9.0,4,3.0,,,,,,,,,,,,,,,,,T1,cue1.png,Hard,0.0,1.602247099974193,,,,,,,,,,,,,,,,,,,,,,18,22,Female,0.2857142857142857,1.0,0.0,1.0,1.7222222222222223,2.625,2.111111111111111,2.2222222222222223,1.625,2.5555555555555554,1.0,1.5,1.0,1.5,,,,,,,,,,,,,,,,,,,,,,,,,,,,,,,-0.9897538280618564,0.0055708513822607,1.2336214620741497,,,1.574,-0.28755490616502205,
4,240618_151240,OFFLINERATING,9.0,5,1.0,,,,,,,,,,,,,,,,,T2,cue2.png,Easy,32.0,2.420667099999264,,,,,,,,,,,,,,,,,,,,,,18,22,Female,0.2857142857142857,1.0,0.0,1.0,1.7222222222222223,2.625,2.111111111111111,2.2222222222222223,1.625,2.5555555555555554,1.0,1.5,1.0,1.5,,,,,,,,,,,,,,,,,,,,,,,,,,,,,,,1.0536089137432665,,,,,,,
5,240618_151248,OFFLINERATING,9.0,6,3.0,,,,,,,,,,,,,,,,,T2,cue1.png,Hard,0.0,1.402003200026229,,,,,,,,,,,,,,,,,,,,,,18,22,Female,0.2857142857142857,1.0,0.0,1.0,1.7222222222222223,2.625,2.111111111111111,2.2222222222222223,1.625,2.5555555555555554,1.0,1.5,1.0,1.5,,,,,,,,,,,,,,,,,,,,,,,,,,,,,,,-0.9897538280618564,,,,,,,
6,240618_152902,OFFLINERATING,9.0,7,1.0,,,,,,,,,,,,,,,,,T3,cue2.png,Easy,23.0,1.0445250999182465,,,,,,,,,,,,,,,,,,,,,,18,22,Female,0.2857142857142857,1.0,0.0,1.0,1.7222222222222223,2.625,2.111111111111111,2.2222222222222223,1.625,2.5555555555555554,1.0,1.5,1.0,1.5,,,,,,,,,,,,,,,,,,,,,,,,,,,,,,,0.4789131426105757,,,,,,,
7,240618_152909,OFFLINERATING,9.0,8,3.0,,,,,,,,,,,,,,,,,T3,cue1.png,Hard,0.0,1.1022066000150517,,,,,,,,,,,,,,,,,,,,,,18,22,Female,0.2857142857142857,1.0,0.0,1.0,1.7222222222222223,2.625,2.111111111111111,2.2222222222222223,1.625,2.5555555555555554,1.0,1.5,1.0,1.5,,,,,,,,,,,,,,,,,,,,,,,,,,,,,,,-0.9897538280618564,,,,,,,
0,240618_151304,LEARNINGCHECK,9.0,1,,,,,,,,,,,,1.0,1.0,1.0,,,B,,,,,,,,,,,,,,,cue2.png,Easy,Left,Middle,unsure,0.0116053000092506,0.0,,,,,,18,22,Female,0.2857142857142857,1.0,0.0,1.0,1.7222222222222223,2.625,2.111111111111111,2.2222222222222223,1.625,2.5555555555555554,1.0,1.5,1.0,1.5,,,,,,,,,,,,,,,,,,,,,,,,,,,,,,,,,,,,,,
1,240618_152921,LEARNINGCHECK,9.0,1,,,,,,,,,,,,1.0,1.0,1.0,,,B,,,,,,,,,,,,,,,cue2.png,Easy,Middle,Middle,Mid,0.0157235999358817,1.0,,,,,,18,22,Female,0.2857142857142857,1.0,0.0,1.0,1.7222222222222223,2.625,2.111111111111111,2.2222222222222223,1.625,2.5555555555555554,1.0,1.5,1.0,1.5,,,,,,,,,,,,,,,,,,,,,,,,,,,,,,,,,,,,,,
2,240618_151312,LEARNINGCHECK,9.0,2,,,,,,,,,,,,2.0,2.0,2.0,,,B,,,,,,,,,,,,,,,cue1.png,Hard,Right,Right,Hard,0.01626830000896,1.0,,,,,,18,22,Female,0.2857142857142857,1.0,0.0,1.0,1.7222222222222223,2.625,2.111111111111111,2.2222222222222223,1.625,2.5555555555555554,1.0,1.5,1.0,1.5,,,,,,,,,,,,,,,,,,,,,,,,,,,,,,,,,,,,,,
3,240618_152928,LEARNINGCHECK,9.0,2,,,,,,,,,,,,2.0,2.0,2.0,,,B,,,,,,,,,,,,,,,cue1.png,Hard,Middle,Middle,Mid,0.0137770000146701,1.0,,,,,,18,22,Female,0.2857142857142857,1.0,0.0,1.0,1.7222222222222223,2.625,2.111111111111111,2.2222222222222223,1.625,2.5555555555555554,1.0,1.5,1.0,1.5,,,,,,,,,,,,,,,,,,,,,,,,,,,,,,,,,,,,,,
0,240618_152938,DEMANDRATING,9.0,-1,,,,,,,,,,,,,,,,,,,,,,,,,,,,,,,,,,,,,,,1.0,MentalDemand,1.0,82.0,6.43805210001301,18,22,Female,0.2857142857142857,1.0,0.0,1.0,1.7222222222222223,2.625,2.111111111111111,2.2222222222222223,1.625,2.5555555555555554,1.0,1.5,1.0,1.5,,,,,,,,,,,,,,,,,,,,,,,,,,,,,,,,,,,,,,0.41058249067803193
1,240618_152944,DEMANDRATING,9.0,-1,,,,,,,,,,,,,,,,,,,,,,,,,,,,,,,,,,,,,,,2.0,Effort,1.0,55.0,4.5437747000250965,18,22,Female,0.2857142857142857,1.0,0.0,1.0,1.7222222222222223,2.625,2.111111111111111,2.2222222222222223,1.625,2.5555555555555554,1.0,1.5,1.0,1.5,,,,,,,,,,,,,,,,,,,,,,,,,,,,,,,,,,,,,,-1.1730928305086625
2,240618_152951,DEMANDRATING,9.0,-1,,,,,,,,,,,,,,,,,,,,,,,,,,,,,,,,,,,,,,,3.0,Frustration,1.0,90.0,5.177124899928458,18,22,Female,0.2857142857142857,1.0,0.0,1.0,1.7222222222222223,2.625,2.111111111111111,2.2222222222222223,1.625,2.5555555555555554,1.0,1.5,1.0,1.5,,,,,,,,,,,,,,,,,,,,,,,,,,,,,,,,,,,,,,0.879819622881497
3,240618_152957,DEMANDRATING,9.0,-1,,,,,,,,,,,,,,,,,,,,,,,,,,,,,,,,,,,,,,,4.0,MentalDemand,2.0,53.0,4.134249800001271,18,22,Female,0.2857142857142857,1.0,0.0,1.0,1.7222222222222223,2.625,2.111111111111111,2.2222222222222223,1.625,2.5555555555555554,1.0,1.5,1.0,1.5,,,,,,,,,,,,,,,,,,,,,,,,,,,,,,,,,,,,,,-1.290402113559529
4,240618_153003,DEMANDRATING,9.0,-1,,,,,,,,,,,,,,,,,,,,,,,,,,,,,,,,,,,,,,,5.0,Effort,2.0,64.0,4.20145870000124,18,22,Female,0.2857142857142857,1.0,0.0,1.0,1.7222222222222223,2.625,2.111111111111111,2.2222222222222223,1.625,2.5555555555555554,1.0,1.5,1.0,1.5,,,,,,,,,,,,,,,,,,,,,,,,,,,,,,,,,,,,,,-0.6452010567797645
5,240618_153010,DEMANDRATING,9.0,-1,,,,,,,,,,,,,,,,,,,,,,,,,,,,,,,,,,,,,,,6.0,Frustration,2.0,62.0,5.653955399990082,18,22,Female,0.2857142857142857,1.0,0.0,1.0,1.7222222222222223,2.625,2.111111111111111,2.2222222222222223,1.625,2.5555555555555554,1.0,1.5,1.0,1.5,,,,,,,,,,,,,,,,,,,,,,,,,,,,,,,,,,,,,,-0.7625103398306307
6,240618_153017,DEMANDRATING,9.0,-1,,,,,,,,,,,,,,,,,,,,,,,,,,,,,,,,,,,,,,,7.0,MentalDemand,3.0,99.0,5.199649800080806,18,22,Female,0.2857142857142857,1.0,0.0,1.0,1.7222222222222223,2.625,2.111111111111111,2.2222222222222223,1.625,2.5555555555555554,1.0,1.5,1.0,1.5,,,,,,,,,,,,,,,,,,,,,,,,,,,,,,,,,,,,,,1.4077113966103951
7,240618_153020,DEMANDRATING,9.0,-1,,,,,,,,,,,,,,,,,,,,,,,,,,,,,,,,,,,,,,,8.0,Effort,3.0,71.0,2.150895500089973,18,22,Female,0.2857142857142857,1.0,0.0,1.0,1.7222222222222223,2.625,2.111111111111111,2.2222222222222223,1.625,2.5555555555555554,1.0,1.5,1.0,1.5,,,,,,,,,,,,,,,,,,,,,,,,,,,,,,,,,,,,,,-0.2346185661017325
8,240618_153027,DEMANDRATING,9.0,-1,,,,,,,,,,,,,,,,,,,,,,,,,,,,,,,,,,,,,,,9.0,Frustration,3.0,99.0,5.497544799931347,18,22,Female,0.2857142857142857,1.0,0.0,1.0,1.7222222222222223,2.625,2.111111111111111,2.2222222222222223,1.625,2.5555555555555554,1.0,1.5,1.0,1.5,,,,,,,,,,,,,,,,,,,,,,,,,,,,,,,,,,,,,,1.4077113966103951
