,END,Phase,Block,TrialN,NbackLevel,ISI,Letter_Resp,Letter_RT,Letter_Accuracy,Trial_A_measure,Trial_ACC,Trial_RT,TrialCountCali,CaliEnd_A_measure,ISI_calibrated,TrialIndex,TrialNumber_total,TrialNumber_valid,CueLearning,TrialDemandLearning,CueMapping,OfflineRatingTimePoint,CueFigure,TrialDemand,OfflineRating,OfflineRatingRT,PhaseType,CueLeft,CueDemandLeft,CueRight,CueDemandRight,Choice,ChoiceDemand,TaskDemand,ChoiceRT,CueCheck,CueDemandCheck,CorrectAnswer,Answer,AnswerDemand,AnswerRT,AnswerACC,DemandRatingQuesIndex,QuesTLX,DemandLevel,DemandRating,DemandRatingRT,PID,Age,Gender,BAI_bis,BAI_bas_d,BAI_bas_rr,BAI_bas_fs,NFC,BFI_ext,BFI_agr,BFI_con,BFI_neu,BFI_open,UPPS_lps,UPPS_lpm,UPPS_pu,UPPS_ss,Task_A_measure,Task_ACC,Task_RT,Task_RT_z,cue_i_on_zyg_values,cue_i_on_zyg_zvalues,cue_e_on_zyg_values,cue_e_on_zyg_zvalues,cue_i_on_cor_values,cue_i_on_cor_zvalues,cue_e_on_cor_values,cue_e_on_cor_zvalues,cue_i_on_scr_values,cue_i_on_scr_zvalues,cue_e_on_scr_values,cue_e_on_scr_zvalues,cue_e_true_zyg_values,cue_e_true_zyg_zvalues,cue_e_true_cor_values,cue_e_true_cor_zvalues,cue_e_true_scr_values,cue_e_true_scr_zvalues,cue_e_false_zyg_values,cue_e_false_zyg_zvalues,cue_e_false_cor_values,cue_e_false_cor_zvalues,cue_e_false_scr_values,cue_e_false_scr_zvalues,OfflineRating_z,cue_i_off_zyg_values,cue_i_off_zyg_zvalues,cue_i_off_cor_values,cue_i_off_cor_zvalues,cue_i_off_scr_values,cue_i_off_scr_zvalues,DemandRating_z
0,240619_143534,PRACTICE,0.0,1,3.0,303.0,,,,,,,,,,28.0,1.0,1.0,cue2.png,Hard,A,,,,,,,,,,,,,,,,,,,,,,,,,,,19,29,Female,0.14285714285714285,0.25,0.0,0.0,1.7777777777777777,3.375,2.2222222222222223,3.111111111111111,2.75,2.888888888888889,2.25,1.75,2.5,1.75,,,,,,,,,,,,,,,,,,,,,,,,,,,,,,,,,,,,
0,240619_143848,LEARNING,1.0,1,1.0,303.0,,,,,,,,,,1.0,1.0,1.0,cue1.png,Easy,A,,,,,,,,,,,,,,,,,,,,,,,,,,,19,29,Female,0.14285714285714285,0.25,0.0,0.0,1.7777777777777777,3.375,2.2222222222222223,3.111111111111111,2.75,2.888888888888889,2.25,1.75,2.5,1.75,1.0,1.0,0.3973747157969659,-0.5941546139650746,0.007274989796290712,-0.31882249411734753,0.008553630548839808,0.7110240204580384,,,,,2.2636645906070968e+45,-0.1692252342614627,,,,,,,,,,,,,,,,,,,,,,
1,240619_143921,LEARNING,1.0,2,3.0,303.0,,,,,,,,,,2.0,2.0,2.0,cue2.png,Hard,A,,,,,,,,,,,,,,,,,,,,,,,,,,,19,29,Female,0.14285714285714285,0.25,0.0,0.0,1.7777777777777777,3.375,2.2222222222222223,3.111111111111111,2.75,2.888888888888889,2.25,1.75,2.5,1.75,0.5857142857142856,0.6992481203007519,0.5891990937379887,1.9508617856947543,0.006907541519243815,-0.40559952661392007,0.007003469848926736,-0.4489049452228383,0.020453192031758837,0.006940231996528566,0.015942701996537613,-1.013888497535224,2.3902587229783204e+44,-0.1713208589908189,1.3529616750252283e+44,-0.176182087661458,,,,,,,,,,,,,,,,,,,,
2,240619_143948,LEARNING,1.0,3,1.0,303.0,,,,,,,,,,3.0,3.0,3.0,cue1.png,Easy,A,,,,,,,,,,,,,,,,,,,,,,,,,,,19,29,Female,0.14285714285714285,0.25,0.0,0.0,1.7777777777777777,3.375,2.2222222222222223,3.111111111111111,2.75,2.888888888888889,2.25,1.75,2.5,1.75,1.0,1.0,0.3935470473584964,-0.6449379349012716,0.0072870223904492925,-0.3159808620304894,0.009358461829871927,1.3132500447712276,0.02012787143605309,-0.056510341734714836,0.018804288027520568,-0.39608616808021735,-2.101882996916014e+44,-0.1717858230948268,-4.682690080875756e+43,-0.17698500881969556,,,,,,,,,,,,,,,,,,,,
3,240619_144020,LEARNING,1.0,4,3.0,303.0,,,,,,,,,,4.0,4.0,4.0,cue2.png,Hard,A,,,,,,,,,,,,,,,,,,,,,,,,,,,19,29,Female,0.14285714285714285,0.25,0.0,0.0,1.7777777777777777,3.375,2.2222222222222223,3.111111111111111,2.75,2.888888888888889,2.25,1.75,2.5,1.75,0.5256410256410255,0.534412955465587,0.5768436937651131,1.786937388322316,,,,,0.028979417314735443,1.669896383890554,0.01834282103314511,-0.4957146192275791,-2.4959981374315554e+44,-0.1718266164189497,-8.616703668617513e+43,-0.17715844663708358,,,,,,,,,,,,,,,,,,,,
4,240619_144053,LEARNING,1.0,5,3.0,303.0,,,,,,,,,,5.0,5.0,5.0,cue2.png,Hard,A,,,,,,,,,,,,,,,,,,,,,,,,,,,19,29,Female,0.14285714285714285,0.25,0.0,0.0,1.7777777777777777,3.375,2.2222222222222223,3.111111111111111,2.75,2.888888888888889,2.25,1.75,2.5,1.75,0.725,0.6466165413533835,0.6437675599940121,2.6748450615251187,0.008625907023031143,0.0002117629682349494,0.006481829721966386,-0.8392293115654315,0.0185388667893398,-0.3664300265823515,0.01974133683085556,-0.19378194683877936,5.799193729256574e+48,5.830951433310678,1.3232172142227508e+48,5.656854198946758,,,,,,,,,,,,,,,,,,,,
5,240619_144121,LEARNING,1.0,6,1.0,303.0,,,,,,,,,,6.0,6.0,6.0,cue1.png,Easy,A,,,,,,,,,,,,,,,,,,,,,,,,,,,19,29,Female,0.14285714285714285,0.25,0.0,0.0,1.7777777777777777,3.375,2.2222222222222223,3.111111111111111,2.75,2.888888888888889,2.25,1.75,2.5,1.75,1.0,1.0,0.380289910526603,-0.8208260624263165,0.007065491678111687,-0.36829782478238104,0.009137109554018436,1.1476201740125087,0.013492523001796914,-1.3506696129819433,0.024477726377154767,0.8287812272989064,-2.7641591581610247e+43,-0.1715968761027939,-1.3429594061750005e+43,-0.17683777099604167,,,,,,,,,,,,,,,,,,,,
6,240619_144154,LEARNING,1.0,7,3.0,303.0,,,,,,,,,,7.0,7.0,7.0,cue2.png,Hard,A,,,,,,,,,,,,,,,,,,,,,,,,,,,19,29,Female,0.14285714285714285,0.25,0.0,0.0,1.7777777777777777,3.375,2.2222222222222223,3.111111111111111,2.75,2.888888888888889,2.25,1.75,2.5,1.75,0.6794871794871794,0.6356275303643725,0.6617042266763746,2.9128185211647457,0.008531311083464041,-0.022128129295868874,0.00671331212874238,-0.666019431660686,0.02043412949460347,0.0032222721278729826,0.021765575209320244,0.24324114876185618,,,,,,,,,,,,,,,,,,,,,,,,
7,240619_144227,LEARNING,1.0,8,3.0,303.0,,,,,,,,,,8.0,8.0,8.0,cue2.png,Hard,A,,,,,,,,,,,,,,,,,,,,,,,,,,,19,29,Female,0.14285714285714285,0.25,0.0,0.0,1.7777777777777777,3.375,2.2222222222222223,3.111111111111111,2.75,2.888888888888889,2.25,1.75,2.5,1.75,0.5857142857142856,0.4887218045112783,0.5322635250049643,1.1954731447679103,0.013555225915615561,1.164325714367097,0.006669204290386397,-0.6990237255545668,0.01772513775949722,-0.5251398484836393,0.01925071149713445,-0.29970553983256554,,,,,,,,,,,,,,,,,,,,,,,,
8,240619_144254,LEARNING,1.0,9,1.0,303.0,,,,,,,,,,9.0,9.0,9.0,cue1.png,Easy,A,,,,,,,,,,,,,,,,,,,,,,,,,,,19,29,Female,0.14285714285714285,0.25,0.0,0.0,1.7777777777777777,3.375,2.2222222222222223,3.111111111111111,2.75,2.888888888888889,2.25,1.75,2.5,1.75,1.0,1.0,0.4052147894828139,-0.49013698951507223,,,,,0.03645212970081044,3.1273752354720776,0.022562550876150667,0.4153042697569157,,,,,,,,,,,,,,,,,,,,,,,,
9,240619_144323,LEARNING,1.0,10,1.0,303.0,,,,,,,,,,10.0,10.0,10.0,cue1.png,Easy,A,,,,,,,,,,,,,,,,,,,,,,,,,,,19,29,Female,0.14285714285714285,0.25,0.0,0.0,1.7777777777777777,3.375,2.2222222222222223,3.111111111111111,2.75,2.888888888888889,2.25,1.75,2.5,1.75,1.0,1.0,0.4204579262969721,-0.287899747352773,0.007006034065263228,-0.3823394070256985,0.006432133503938576,-0.8764151870546507,0.019526629119744343,-0.173776725802811,0.019554199548197225,-0.23418396442707665,1.0271944199087288e+44,-0.17146194447117563,3.553285561659427e+43,-0.17662191153809154,,,,,,,,,,,,,,,,,,,,
10,240619_144353,LEARNING,1.0,11,3.0,303.0,,,,,,,,,,11.0,11.0,11.0,cue2.png,Hard,A,,,,,,,,,,,,,,,,,,,,,,,,,,,19,29,Female,0.14285714285714285,0.25,0.0,0.0,1.7777777777777777,3.375,2.2222222222222223,3.111111111111111,2.75,2.888888888888889,2.25,1.75,2.5,1.75,0.725,0.7518796992481204,0.4711709882488803,0.38493222390091747,0.006094233085174717,-0.5976714366529567,,,0.018322219715086165,-0.40868490174255223,0.01667219489929076,-0.8563945729206353,9.228167921219438e+43,-0.1714727481931436,,,,,,,,,,,,,,,,,,,,,,
11,240619_144420,LEARNING,1.0,12,1.0,303.0,,,,,,,,,,12.0,12.0,12.0,cue1.png,Easy,A,,,,,,,,,,,,,,,,,,,,,,,,,,,19,29,Female,0.14285714285714285,0.25,0.0,0.0,1.7777777777777777,3.375,2.2222222222222223,3.111111111111111,2.75,2.888888888888889,2.25,1.75,2.5,1.75,1.0,1.0,0.3765142736956477,-0.8709190576810447,0.010262082099182574,0.3866128610883759,0.007204048211090256,-0.2988194397811495,0.01798783022161033,-0.47390427454221545,0.01807201018855965,-0.5541813467049651,5.433082129143317e+43,-0.17151202964896078,,,,,,,,,,,,,,,,,,,,,,
12,240619_144447,LEARNING,1.0,13,1.0,303.0,,,,,,,,,,13.0,13.0,13.0,cue1.png,Easy,A,,,,,,,,,,,,,,,,,,,,,,,,,,,19,29,Female,0.14285714285714285,0.25,0.0,0.0,1.7777777777777777,3.375,2.2222222222222223,3.111111111111111,2.75,2.888888888888889,2.25,1.75,2.5,1.75,1.0,1.0,0.393466442118791,-0.6460073592317483,0.007215158318619022,-0.3329523687325211,0.01235617089697928,3.5563268933953767,0.016727842052105722,-0.7196525404219419,0.0186059534480405,-0.4389056269004635,,,,,,,,,,,,,,,,,,,,,,,,
13,240619_144515,LEARNING,1.0,14,1.0,303.0,,,,,,,,,,14.0,14.0,14.0,cue1.png,Easy,A,,,,,,,,,,,,,,,,,,,,,,,,,,,19,29,Female,0.14285714285714285,0.25,0.0,0.0,1.7777777777777777,3.375,2.2222222222222223,3.111111111111111,2.75,2.888888888888889,2.25,1.75,2.5,1.75,0.9178571428571428,0.9285714285714286,0.3949929105215951,-0.6257550474015319,0.007568362557961981,-0.24953922552303667,0.008950415674697683,1.0079239229389165,0.01927476146633124,-0.2229010275665348,0.016321964778758774,-0.9320075308982241,-4.997372402452065e+43,-0.17161999122381938,,,,,,,,,,,,,,,,,,,,,,
14,240619_144545,LEARNING,1.0,15,3.0,303.0,,,,,,,,,,15.0,15.0,15.0,cue2.png,Hard,A,,,,,,,,,,,,,,,,,,,,,,,,,,,19,29,Female,0.14285714285714285,0.25,0.0,0.0,1.7777777777777777,3.375,2.2222222222222223,3.111111111111111,2.75,2.888888888888889,2.25,1.75,2.5,1.75,0.8071428571428572,0.8571428571428572,0.4855571894747156,0.5758001336084834,0.007016955858549553,-0.3797601030252956,0.006801678695217094,-0.5998979385422415,0.018977067734259445,-0.2809632540147964,0.018216511432758573,-0.5229842398178532,,,,,,,,,,,,,,,,,,,,,,,,
15,240619_144612,LEARNING,1.0,16,1.0,303.0,,,,,,,,,,16.0,16.0,16.0,cue1.png,Easy,A,,,,,,,,,,,,,,,,,,,,,,,,,,,19,29,Female,0.14285714285714285,0.25,0.0,0.0,1.7777777777777777,3.375,2.2222222222222223,3.111111111111111,2.75,2.888888888888889,2.25,1.75,2.5,1.75,1.0,1.0,0.3783793473910344,-0.8461743240226739,0.0066161184113933446,-0.47442236258809684,0.008019580710539237,0.3114139177140078,0.021172389426053945,0.14721259069869833,0.018529666957250182,-0.45537550451585573,,,,,,,,,,,,,,,,,,,,,,,,
16,240619_144639,LEARNING,1.0,17,1.0,303.0,,,,,,,,,,17.0,17.0,17.0,cue1.png,Easy,A,,,,,,,,,,,,,,,,,,,,,,,,,,,19,29,Female,0.14285714285714285,0.25,0.0,0.0,1.7777777777777777,3.375,2.2222222222222223,3.111111111111111,2.75,2.888888888888889,2.25,1.75,2.5,1.75,1.0,1.0,0.3822211631524719,-0.795203304477201,,,0.006064732711785514,-1.1513278595642389,0.030481107447100874,1.9627862338504918,0.018729187409477092,-0.41230002161053825,,,,,,,,,,,,,,,,,,,,,,,,
17,240619_144708,LEARNING,1.0,18,3.0,303.0,,,,,,,,,,18.0,18.0,18.0,cue2.png,Hard,A,,,,,,,,,,,,,,,,,,,,,,,,,,,19,29,Female,0.14285714285714285,0.25,0.0,0.0,1.7777777777777777,3.375,2.2222222222222223,3.111111111111111,2.75,2.888888888888889,2.25,1.75,2.5,1.75,0.5256410256410255,0.6923076923076923,0.4533021578834833,0.14785877781026052,0.008228363486464925,-0.09367260265911087,0.008105750898748043,0.3758919407261845,0.01811851363477236,-0.44841576366481645,0.02502842352539065,0.9476740291649716,,,,,,,,,,,,,,,,,,,,,,,,
18,240619_144737,LEARNING,1.0,19,3.0,303.0,,,,,,,,,,19.0,19.0,19.0,cue2.png,Hard,A,,,,,,,,,,,,,,,,,,,,,,,,,,,19,29,Female,0.14285714285714285,0.25,0.0,0.0,1.7777777777777777,3.375,2.2222222222222223,3.111111111111111,2.75,2.888888888888889,2.25,1.75,2.5,1.75,0.8071428571428572,0.8571428571428572,0.4642378841955705,0.2929477550569913,0.006060709974589528,-0.605588295265049,0.008706961708406858,0.8257561597344575,0.017486083019164985,-0.5717651179177744,0.027429260488216683,1.46600290420708,3.6128049962371546e+43,-0.17153087062903047,,,,,,,,,,,,,,,,,,,,,,
19,240619_144807,LEARNING,1.0,20,3.0,303.0,,,,,,,,,,20.0,20.0,20.0,cue2.png,Hard,A,,,,,,,,,,,,,,,,,,,,,,,,,,,19,29,Female,0.14285714285714285,0.25,0.0,0.0,1.7777777777777777,3.375,2.2222222222222223,3.111111111111111,2.75,2.888888888888889,2.25,1.75,2.5,1.75,0.9178571428571428,0.9285714285714286,0.5127288052616151,0.936297628896472,0.00817061549666899,-0.10731043824078106,0.007625524147123024,0.016555699434599398,0.021953847237001514,0.2996282296281,0.017339259225824924,-0.7123786704221248,3.135682479879403e+43,-0.17153580913847993,9.749113332778041e+42,-0.17673558364130276,,,,,,,,,,,,,,,,,,,,
20,240619_144834,LEARNING,1.0,21,1.0,303.0,,,,,,,,,,21.0,21.0,21.0,cue1.png,Easy,A,,,,,,,,,,,,,,,,,,,,,,,,,,,19,29,Female,0.14285714285714285,0.25,0.0,0.0,1.7777777777777777,3.375,2.2222222222222223,3.111111111111111,2.75,2.888888888888889,2.25,1.75,2.5,1.75,1.0,1.0,0.380467878948701,-0.8184648789431607,0.008308645038180565,-0.07471321365858981,0.007180193829066046,-0.3166688077014234,0.017169379174894785,-0.6335350792638758,0.017423827108395434,-0.694120881111072,1.9746628350631285e+43,-0.17154782640090283,4.930656437874283e+42,-0.17675682664487635,,,,,,,,,,,,,,,,,,,,
21,240619_144905,LEARNING,1.0,22,3.0,303.0,,,,,,,,,,22.0,22.0,22.0,cue2.png,Hard,A,,,,,,,,,,,,,,,,,,,,,,,,,,,19,29,Female,0.14285714285714285,0.25,0.0,0.0,1.7777777777777777,3.375,2.2222222222222223,3.111111111111111,2.75,2.888888888888889,2.25,1.75,2.5,1.75,0.6625000000000001,0.7330827067669172,0.5467449444372,1.3876043553105228,0.006887213903548915,-0.410400121086456,0.008918221424369007,0.9838341343855712,0.022608900678352944,0.42738994292573607,0.021402355009118874,0.16482369656579568,9.099526167908596e+41,-0.17156732351074752,-1.0045350758758879e+42,-0.17678299296685177,,,,,,,,,,,,,,,,,,,,
22,240619_144935,LEARNING,1.0,23,3.0,303.0,,,,,,,,,,23.0,23.0,23.0,cue2.png,Hard,A,,,,,,,,,,,,,,,,,,,,,,,,,,,19,29,Female,0.14285714285714285,0.25,0.0,0.0,1.7777777777777777,3.375,2.2222222222222223,3.111111111111111,2.75,2.888888888888889,2.25,1.75,2.5,1.75,0.9178571428571428,0.9285714285714286,0.4811091736804596,0.5167863978996259,0.006742242906604304,-0.44463664823533,0.007660272758969706,0.042556823963448835,,,0.018354623618953646,-0.49316649908470817,-1.395586798212887e+43,-0.17158271054300545,-6.09046899927351e+42,-0.1768054151893322,,,,,,,,,,,,,,,,,,,,
23,240619_145004,LEARNING,1.0,24,3.0,303.0,,,,,,,,,,24.0,24.0,24.0,cue2.png,Hard,A,,,,,,,,,,,,,,,,,,,,,,,,,,,19,29,Female,0.14285714285714285,0.25,0.0,0.0,1.7777777777777777,3.375,2.2222222222222223,3.111111111111111,2.75,2.888888888888889,2.25,1.75,2.5,1.75,0.9178571428571428,0.9285714285714286,0.4652835210527931,0.3068206682825378,0.008276890917124108,-0.08221230554973115,0.007091104536293261,-0.3833310906666495,0.025898234919292558,1.0689421456956523,,,-2.4548157655145755e+43,-0.17159367420974683,-8.97534431848474e+42,-0.17681813366291246,,,,,,,,,,,,,,,,,,,,
24,240619_145031,LEARNING,1.0,25,1.0,303.0,,,,,,,,,,25.0,25.0,25.0,cue1.png,Easy,A,,,,,,,,,,,,,,,,,,,,,,,,,,,19,29,Female,0.14285714285714285,0.25,0.0,0.0,1.7777777777777777,3.375,2.2222222222222223,3.111111111111111,2.75,2.888888888888889,2.25,1.75,2.5,1.75,1.0,1.0,0.3900859842174931,-0.6908573459201348,0.014145182729602818,1.3036506338643048,0.007539828036138396,-0.04756758880438551,,,0.020569275711381202,-0.015034020515064753,-2.767758811174499e+43,-0.17159691336140107,-9.221860199218808e+42,-0.17681922047096107,,,,,,,,,,,,,,,,,,,,
25,240619_145059,LEARNING,1.0,26,1.0,303.0,,,,,,,,,,26.0,26.0,26.0,cue1.png,Easy,A,,,,,,,,,,,,,,,,,,,,,,,,,,,19,29,Female,0.14285714285714285,0.25,0.0,0.0,1.7777777777777777,3.375,2.2222222222222223,3.111111111111111,2.75,2.888888888888889,2.25,1.75,2.5,1.75,1.0,1.0,0.3822641473655638,-0.7946330144628683,0.007058772031028173,-0.36988474481917627,0.007628527010168518,0.01880263281811071,0.018983236357573076,-0.27976012487526963,,,-2.2031728477807355e+43,-0.17159106955185602,-6.964984079357324e+42,-0.17680927064085467,,,,,,,,,,,,,,,,,,,,
26,240619_145127,LEARNING,1.0,27,3.0,303.0,,,,,,,,,,27.0,27.0,27.0,cue2.png,Hard,A,,,,,,,,,,,,,,,,,,,,,,,,,,,19,29,Female,0.14285714285714285,0.25,0.0,0.0,1.7777777777777777,3.375,2.2222222222222223,3.111111111111111,2.75,2.888888888888889,2.25,1.75,2.5,1.75,0.8071428571428572,0.8571428571428572,0.4543181263204467,0.1613380673633514,0.0075231003234228315,-0.26022840994114715,0.009022954046376139,1.0622017526103078,0.022201879562478353,0.34800448850362115,,,6.91912622075718e+43,-0.1714966481850031,1.1197763699377192e+43,-0.17672919701471548,,,,,,,,,,,,,,,,,,,,
27,240619_145155,LEARNING,1.0,28,1.0,303.0,,,,,,,,,,28.0,28.0,28.0,cue1.png,Easy,A,,,,,,,,,,,,,,,,,,,,,,,,,,,19,29,Female,0.14285714285714285,0.25,0.0,0.0,1.7777777777777777,3.375,2.2222222222222223,3.111111111111111,2.75,2.888888888888889,2.25,1.75,2.5,1.75,1.0,1.0,0.399844631589459,-0.5613851804595673,0.007360570044089032,-0.29861175859847683,0.0076604478552651295,0.04268784216359853,0.017410277041580796,-0.5865503262121954,,,2.9022447174858925e+42,-0.171565261366743,,,,,,,,,,,,,,,,,,,,,,
28,240619_145223,LEARNING,1.0,29,1.0,303.0,,,,,,,,,,29.0,29.0,29.0,cue1.png,Easy,A,,,,,,,,,,,,,,,,,,,,,,,,,,,19,29,Female,0.14285714285714285,0.25,0.0,0.0,1.7777777777777777,3.375,2.2222222222222223,3.111111111111111,2.75,2.888888888888889,2.25,1.75,2.5,1.75,1.0,0.9473684210526316,0.3729896777982099,-0.9176813850631822,0.0061676211259204475,-0.5803400275963313,,,0.019225888263628733,-0.23243326374368178,,,,,5.608233224201679e+42,-0.176753839430005,,,,,,,,,,,,,,,,,,,,
29,240619_145251,LEARNING,1.0,30,3.0,303.0,,,,,,,,,,30.0,30.0,30.0,cue2.png,Hard,A,,,,,,,,,,,,,,,,,,,,,,,,,,,19,29,Female,0.14285714285714285,0.25,0.0,0.0,1.7777777777777777,3.375,2.2222222222222223,3.111111111111111,2.75,2.888888888888889,2.25,1.75,2.5,1.75,0.8269230769230769,0.8461538461538461,0.4258724263084954,-0.21606325048415337,0.007089654578986958,-0.3625914846919708,0.008419139690325336,0.610389394371225,0.024972801266199374,0.8884454387116442,0.022547848293898887,0.4121300546657715,2.140329047900528e+43,-0.1715461116544184,7.863689829196525e+42,-0.1767438958580763,,,,,,,,,,,,,,,,,,,,
30,240619_145320,LEARNING,1.0,31,3.0,303.0,,,,,,,,,,31.0,31.0,31.0,cue2.png,Hard,A,,,,,,,,,,,,,,,,,,,,,,,,,,,19,29,Female,0.14285714285714285,0.25,0.0,0.0,1.7777777777777777,3.375,2.2222222222222223,3.111111111111111,2.75,2.888888888888889,2.25,1.75,2.5,1.75,0.8071428571428572,0.8571428571428572,0.4580063473457764,0.21027127958479364,,,,,,,0.019375467329197968,-0.2727713701702036,,,,,,,,,,,,,,,,,,,,,,,,
31,240619_145347,LEARNING,1.0,32,1.0,303.0,,,,,,,,,,32.0,32.0,32.0,cue1.png,Easy,A,,,,,,,,,,,,,,,,,,,,,,,,,,,19,29,Female,0.14285714285714285,0.25,0.0,0.0,1.7777777777777777,3.375,2.2222222222222223,3.111111111111111,2.75,2.888888888888889,2.25,1.75,2.5,1.75,1.0,1.0,0.3629309473571515,-1.0511348814697856,,,,,0.03394262512162828,2.637921117189587,0.017623758057079518,-0.6509567740425356,1.938798407201928e+43,-0.17154819761963558,6.544828480261453e+42,-0.17674971028725134,,,,,,,,,,,,,,,,,,,,
32,240619_145414,LEARNING,1.0,33,1.0,303.0,,,,,,,,,,33.0,33.0,33.0,cue1.png,Easy,A,,,,,,,,,,,,,,,,,,,,,,,,,,,19,29,Female,0.14285714285714285,0.25,0.0,0.0,1.7777777777777777,3.375,2.2222222222222223,3.111111111111111,2.75,2.888888888888889,2.25,1.75,2.5,1.75,1.0,1.0,0.3774385894648731,-0.8586557634303735,,,,,,,0.01913543017002033,-0.3245942105426692,1.045665252795745e+43,-0.1715574420932696,2.5609638709137474e+42,-0.17676727384587165,,,,,,,,,,,,,,,,,,,,
33,240619_145441,LEARNING,1.0,34,1.0,303.0,,,,,,,,,,34.0,34.0,34.0,cue1.png,Easy,A,,,,,,,,,,,,,,,,,,,,,,,,,,,19,29,Female,0.14285714285714285,0.25,0.0,0.0,1.7777777777777777,3.375,2.2222222222222223,3.111111111111111,2.75,2.888888888888889,2.25,1.75,2.5,1.75,1.0,1.0,0.3578011000124541,-1.1191947691657087,,,,,0.015113021800355245,-1.0346073044267254,,,-1.2022887600927237e+42,-0.17156950980957886,-1.364956204563922e+42,-0.17678458194595684,,,,,,,,,,,,,,,,,,,,
34,240619_145509,LEARNING,1.0,35,3.0,303.0,,,,,,,,,,35.0,35.0,35.0,cue2.png,Hard,A,,,,,,,,,,,,,,,,,,,,,,,,,,,19,29,Female,0.14285714285714285,0.25,0.0,0.0,1.7777777777777777,3.375,2.2222222222222223,3.111111111111111,2.75,2.888888888888889,2.25,1.75,2.5,1.75,0.7019230769230769,0.7692307692307692,0.4296428684243246,-0.1660391757458341,,,0.00790554911875909,0.22608821805209128,0.02168425176550904,0.24704629178788085,0.02762142483716532,1.5074902406468276,,,-4.597543715253896e+42,-0.17679883336908656,,,,,,,,,,,,,,,,,,,,
35,240619_145539,LEARNING,1.0,36,3.0,303.0,,,,,,,,,,36.0,36.0,36.0,cue2.png,Hard,A,,,,,,,,,,,,,,,,,,,,,,,,,,,19,29,Female,0.14285714285714285,0.25,0.0,0.0,1.7777777777777777,3.375,2.2222222222222223,3.111111111111111,2.75,2.888888888888889,2.25,1.75,2.5,1.75,0.8071428571428572,0.8045112781954888,0.4836603555530827,0.5506340233893167,0.0057697932419170095,-0.67429154506066,0.006996532292439101,-0.454096066841072,0.01611888334306496,-0.8384239307898077,0.02611165553060462,1.1815384836722265,,,-6.921907055542822e+42,-0.1768090807283182,,,,,,,,,,,,,,,,,,,,
36,240619_145607,LEARNING,1.0,37,1.0,303.0,,,,,,,,,,37.0,37.0,37.0,cue1.png,Easy,A,,,,,,,,,,,,,,,,,,,,,,,,,,,19,29,Female,0.14285714285714285,0.25,0.0,0.0,1.7777777777777777,3.375,2.2222222222222223,3.111111111111111,2.75,2.888888888888889,2.25,1.75,2.5,1.75,1.0,1.0,0.4080122263158524,-0.45302219371323593,,,,,0.014819439687047471,-1.091867600185738,0.030689228105941047,2.1698138560260563,-2.1203856007351477e+43,-0.17159021265328633,-7.261414074461465e+42,-0.17681057750394022,,,,,,,,,,,,,,,,,,,,
37,240619_145637,LEARNING,1.0,38,3.0,303.0,,,,,,,,,,38.0,38.0,38.0,cue2.png,Hard,A,,,,,,,,,,,,,,,,,,,,,,,,,,,19,29,Female,0.14285714285714285,0.25,0.0,0.0,1.7777777777777777,3.375,2.2222222222222223,3.111111111111111,2.75,2.888888888888889,2.25,1.75,2.5,1.75,0.8071428571428572,0.8571428571428572,0.4744895947484397,0.42896160148082596,,,0.005503097288836691,-1.571579253672799,0.025496639815620437,0.9906149814398044,0.01698826811907441,-0.7881559215760844,-1.4775525283332513e+43,-0.1715835589383732,-5.062001159440127e+42,-0.17680088101034638,,,,,,,,,,,,,,,,,,,,
38,240619_145706,LEARNING,1.0,39,3.0,303.0,,,,,,,,,,39.0,39.0,39.0,cue2.png,Hard,A,,,,,,,,,,,,,,,,,,,,,,,,,,,19,29,Female,0.14285714285714285,0.25,0.0,0.0,1.7777777777777777,3.375,2.2222222222222223,3.111111111111111,2.75,2.888888888888889,2.25,1.75,2.5,1.75,0.8071428571428572,0.8571428571428572,0.4669592579103712,0.329053388804441,,,0.0099997316008879,1.7930889300291766,0.01806172800571275,-0.45949124056693313,0.031412794173905426,2.3260282062021513,-4.7329302451217e+42,-0.17157316423915173,-1.6656155109798776e+42,-0.1767859074546954,,,,,,,,,,,,,,,,,,,,
39,240619_145734,LEARNING,1.0,40,3.0,303.0,,,,,,,,,,40.0,40.0,40.0,cue2.png,Hard,A,,,,,,,,,,,,,,,,,,,,,,,,,,,19,29,Female,0.14285714285714285,0.25,0.0,0.0,1.7777777777777777,3.375,2.2222222222222223,3.111111111111111,2.75,2.888888888888889,2.25,1.75,2.5,1.75,1.0,1.0,0.4472651579110932,0.06776330663296028,0.008875367253922583,0.05912459482757746,0.005855086281753109,-1.3081986709322548,,,,,7.878063462343414e+42,-0.17156011109044123,3.0642092853951506e+42,-0.17676505520111227,,,,,,,,,,,,,,,,,,,,
40,240619_145802,LEARNING,1.0,41,1.0,303.0,,,,,,,,,,41.0,41.0,41.0,cue1.png,Easy,A,,,,,,,,,,,,,,,,,,,,,,,,,,,19,29,Female,0.14285714285714285,0.25,0.0,0.0,1.7777777777777777,3.375,2.2222222222222223,3.111111111111111,2.75,2.888888888888889,2.25,1.75,2.5,1.75,1.0,1.0,0.3750903842186457,-0.8898104108509078,0.02364531985211152,3.5472145836732643,0.00629938901433853,-0.975743068693149,,,0.02564025710820034,1.0797658861303168,1.7839348512187414e+43,-0.17154980055202376,6.397489965931907e+42,-0.1767503598546657,,,,,,,,,,,,,,,,,,,,
41,240619_145833,LEARNING,1.0,42,3.0,303.0,,,,,,,,,,42.0,42.0,42.0,cue2.png,Hard,A,,,,,,,,,,,,,,,,,,,,,,,,,,,19,29,Female,0.14285714285714285,0.25,0.0,0.0,1.7777777777777777,3.375,2.2222222222222223,3.111111111111111,2.75,2.888888888888889,2.25,1.75,2.5,1.75,0.7596153846153846,0.7408906882591093,0.5824421529507484,1.8612145505537436,0.006912974193665954,-0.40431653960779773,,,0.017243326738538615,-0.6191123362799896,,,,,,,,,,,,,,,,,,,,,,,,,,
42,240619_145903,LEARNING,1.0,43,3.0,303.0,,,,,,,,,,43.0,43.0,43.0,cue2.png,Hard,A,,,,,,,,,,,,,,,,,,,,,,,,,,,19,29,Female,0.14285714285714285,0.25,0.0,0.0,1.7777777777777777,3.375,2.2222222222222223,3.111111111111111,2.75,2.888888888888889,2.25,1.75,2.5,1.75,0.8269230769230769,0.8461538461538461,0.4968118105377805,0.7251200244633548,0.006312903759742005,-0.546029903903162,0.006482269097482577,-0.8389005428203136,,,,,1.7548265375368925e+43,-0.17155010184084843,5.583701778432707e+42,-0.17675394758114168,,,,,,,,,,,,,,,,,,,,
43,240619_145930,LEARNING,1.0,44,1.0,303.0,,,,,,,,,,44.0,44.0,44.0,cue1.png,Easy,A,,,,,,,,,,,,,,,,,,,,,,,,,,,19,29,Female,0.14285714285714285,0.25,0.0,0.0,1.7777777777777777,3.375,2.2222222222222223,3.111111111111111,2.75,2.888888888888889,2.25,1.75,2.5,1.75,1.0,1.0,0.3478110421105827,-1.251737157504019,0.009571051115043794,0.22341814250463343,0.0075350355825153145,-0.0511536078373842,,,,,,,1.4501893797703372e+42,-0.17677217088801597,,,,,,,,,,,,,,,,,,,,
44,240619_145957,LEARNING,1.0,45,1.0,303.0,,,,,,,,,,45.0,45.0,45.0,cue1.png,Easy,A,,,,,,,,,,,,,,,,,,,,,,,,,,,19,29,Female,0.14285714285714285,0.25,0.0,0.0,1.7777777777777777,3.375,2.2222222222222223,3.111111111111111,2.75,2.888888888888889,2.25,1.75,2.5,1.75,1.0,1.0,0.3864208526455944,-0.7394842204473184,0.006566369321082915,-0.48617116832815493,0.008124049416716708,0.38958405730614687,0.012187049431580738,-1.605289357672544,0.02366481755009092,0.6532782154876307,-1.266767335608878e+43,-0.17158137718289032,-4.1560052157763935e+42,-0.1767968867699726,,,,,,,,,,,,,,,,,,,,
45,240619_150024,LEARNING,1.0,46,1.0,303.0,,,,,,,,,,46.0,46.0,46.0,cue1.png,Easy,A,,,,,,,,,,,,,,,,,,,,,,,,,,,19,29,Female,0.14285714285714285,0.25,0.0,0.0,1.7777777777777777,3.375,2.2222222222222223,3.111111111111111,2.75,2.888888888888889,2.25,1.75,2.5,1.75,1.0,1.0,0.3420869526392045,-1.327681110687366,0.006788029638211213,-0.4338235979510922,0.006831176753169532,-0.5778256128457606,0.0176854571099887,-0.5328791678214819,0.017057321673563032,-0.7732475992826728,-2.286763872162226e+43,-0.17159193477001206,-7.919210698605605e+42,-0.17681347751453327,,,,,,,,,,,,,,,,,,,,
46,240619_150055,LEARNING,1.0,47,3.0,303.0,,,,,,,,,,47.0,47.0,47.0,cue2.png,Hard,A,,,,,,,,,,,,,,,,,,,,,,,,,,,19,29,Female,0.14285714285714285,0.25,0.0,0.0,1.7777777777777777,3.375,2.2222222222222223,3.111111111111111,2.75,2.888888888888889,2.25,1.75,2.5,1.75,0.6794871794871794,0.688259109311741,0.4855930124904262,0.5762754129418367,0.007545501345325425,-0.2549381573341124,,,,,0.012605146857381979,-1.7344502130767971,-1.434655067606834e+43,-0.17158311492345482,-5.068982972725558e+42,-0.17680091179088211,,,,,,,,,,,,,,,,,,,,
47,240619_150124,LEARNING,1.0,48,3.0,303.0,,,,,,,,,,48.0,48.0,48.0,cue2.png,Hard,A,,,,,,,,,,,,,,,,,,,,,,,,,,,19,29,Female,0.14285714285714285,0.25,0.0,0.0,1.7777777777777777,3.375,2.2222222222222223,3.111111111111111,2.75,2.888888888888889,2.25,1.75,2.5,1.75,0.7019230769230769,0.7165991902834008,0.4583575611145029,0.2149309834805626,,,0.006521501492117939,-0.8095443664360644,,,0.011059236616503081,-2.0682046197598867,2.3551128932601644e+42,-0.17156582768159742,8.126362227374078e+41,-0.17677498165177055,,,,,,,,,,,,,,,,,,,,
48,240619_150151,LEARNING,1.0,49,1.0,303.0,,,,,,,,,,49.0,49.0,49.0,cue1.png,Easy,A,,,,,,,,,,,,,,,,,,,,,,,,,,,19,29,Female,0.14285714285714285,0.25,0.0,0.0,1.7777777777777777,3.375,2.2222222222222223,3.111111111111111,2.75,2.888888888888889,2.25,1.75,2.5,1.75,1.0,1.0,0.3726155947232129,-0.9226445058662917,0.0064249302525809515,-0.5195735909556894,0.005571026832461893,-1.5207500426879168,0.01881454137938276,-0.31266241662392014,,,,,,,,,,,,,,,,,,,,,,,,,,
49,240619_150219,LEARNING,1.0,50,1.0,303.0,,,,,,,,,,50.0,50.0,50.0,cue1.png,Easy,A,,,,,,,,,,,,,,,,,,,,,,,,,,,19,29,Female,0.14285714285714285,0.25,0.0,0.0,1.7777777777777777,3.375,2.2222222222222223,3.111111111111111,2.75,2.888888888888889,2.25,1.75,2.5,1.75,1.0,0.9473684210526316,0.3822332611048801,-0.7950427957472281,0.026292136392821117,4.172290000576928,,,,,0.029609556806269567,1.9367181403073044,-2.389802499463466e+42,-0.17157073895882716,-3.1666606869403662e+41,-0.17677996037693836,,,,,,,,,,,,,,,,,,,,
0,240619_150414,TrueCHOICE,9.0,1,1.0,303.0,,,,,,,,,,,1.0,1.0,,,A,,,,,,True,cue1.png,Easy,cue2.png,Hard,Left,Easy,Easy,0.0158983999863266,,,,,,,,,,,,,19,29,Female,0.14285714285714285,0.25,0.0,0.0,1.7777777777777777,3.375,2.2222222222222223,3.111111111111111,2.75,2.888888888888889,2.25,1.75,2.5,1.75,1.0,1.0,0.3261843157846382,-1.4708350740171134,,,,,,,,,,,,,0.020117303986744977,2.3932993055685636,,,55144517.13941822,-0.4080124631216768,,,,,,,,,,,,,,
1,240619_150438,TrueCHOICE,9.0,2,1.0,303.0,,,,,,,,,,,2.0,2.0,,,A,,,,,,True,cue1.png,Easy,cue2.png,Hard,Left,Easy,Easy,0.0166449999669566,,,,,,,,,,,,,19,29,Female,0.14285714285714285,0.25,0.0,0.0,1.7777777777777777,3.375,2.2222222222222223,3.111111111111111,2.75,2.888888888888889,2.25,1.75,2.5,1.75,1.0,1.0,0.3494947999899618,0.18290011891464886,,,,,,,,,,,,,0.00593079745530503,-0.6177300663039725,0.018472108388807255,0.2737547192752758,6015181.723185608,-0.40911698282911496,,,,,,,,,,,,,,
2,240619_150503,TrueCHOICE,9.0,3,1.0,303.0,,,,,,,,,,,3.0,3.0,,,A,,,,,,True,cue2.png,Hard,cue1.png,Easy,Right,Easy,Easy,0.016408999916166,,,,,,,,,,,,,19,29,Female,0.14285714285714285,0.25,0.0,0.0,1.7777777777777777,3.375,2.2222222222222223,3.111111111111111,2.75,2.888888888888889,2.25,1.75,2.5,1.75,1.0,1.0,0.3399655000171869,-0.4931449855187694,,,,,,,,,,,,,0.005746910553681226,-0.656759327007785,0.010542245319120652,-1.4870765200677805,,,,,,,,,,,,,,,,
3,240619_150528,TrueCHOICE,9.0,4,1.0,303.0,,,,,,,,,,,4.0,4.0,,,A,,,,,,True,cue1.png,Easy,cue2.png,Hard,Left,Easy,Easy,0.016120700049214,,,,,,,,,,,,,19,29,Female,0.14285714285714285,0.25,0.0,0.0,1.7777777777777777,3.375,2.2222222222222223,3.111111111111111,2.75,2.888888888888889,2.25,1.75,2.5,1.75,1.0,1.0,0.3396446263405347,-0.515908995347614,,,,,,,,,,,,,0.007801508545279537,-0.2206791062443082,0.026072681492041824,1.961466907931637,-235650.63584278777,-0.4092575132773685,,,,,,,,,,,,,,
4,240619_150552,TrueCHOICE,9.0,5,1.0,303.0,,,,,,,,,,,5.0,5.0,,,A,,,,,,True,cue2.png,Hard,cue1.png,Easy,Right,Easy,Easy,0.0165552000980824,,,,,,,,,,,,,19,29,Female,0.14285714285714285,0.25,0.0,0.0,1.7777777777777777,3.375,2.2222222222222223,3.111111111111111,2.75,2.888888888888889,2.25,1.75,2.5,1.75,1.0,1.0,0.3421783526182959,-0.3361567311783138,,,,,,,,,,,,,,,0.019454386479522533,0.4918702065988258,127157483766.14574,2.4494867758285745,,,,,,,,,,,,,,
5,240619_150616,TrueCHOICE,9.0,6,1.0,303.0,,,,,,,,,,,6.0,6.0,,,A,,,,,,True,cue2.png,Hard,cue1.png,Easy,Right,Easy,Easy,0.0165455999085679,,,,,,,,,,,,,19,29,Female,0.14285714285714285,0.25,0.0,0.0,1.7777777777777777,3.375,2.2222222222222223,3.111111111111111,2.75,2.888888888888889,2.25,1.75,2.5,1.75,1.0,1.0,0.3291355947485977,-1.2614600201199306,,,,,,,,,,,,,,,0.01872347043420596,0.3295698245341737,,,,,,,,,,,,,,,,
6,240619_150640,TrueCHOICE,9.0,7,1.0,303.0,,,,,,,,,,,7.0,7.0,,,A,,,,,,True,cue1.png,Easy,cue2.png,Hard,Left,Easy,Easy,0.0166203000117093,,,,,,,,,,,,,19,29,Female,0.14285714285714285,0.25,0.0,0.0,1.7777777777777777,3.375,2.2222222222222223,3.111111111111111,2.75,2.888888888888889,2.25,1.75,2.5,1.75,0.8071428571428572,0.8571428571428572,0.352396405246844,0.38875112943145523,,,,,,,,,,,,,0.006614088747641692,-0.472704217536284,0.01794582962116245,0.15689417748176418,972171.3219369052,-0.40923035917190087,,,,,,,,,,,,,,
7,240619_150705,TrueCHOICE,9.0,8,1.0,303.0,,,,,,,,,,,8.0,8.0,,,A,,,,,,True,cue2.png,Hard,cue1.png,Easy,Right,Easy,Easy,0.0173900999361649,,,,,,,,,,,,,19,29,Female,0.14285714285714285,0.25,0.0,0.0,1.7777777777777777,3.375,2.2222222222222223,3.111111111111111,2.75,2.888888888888889,2.25,1.75,2.5,1.75,1.0,1.0,0.376683968407298,2.1118040525373116,,,,,,,,,,,,,0.006803831161127432,-0.43243214781782335,0.013440364512737345,-0.8435472728897884,206030143.6805164,-0.40462027092791214,,,,,,,,,,,,,,
8,240619_150729,TrueCHOICE,9.0,9,1.0,303.0,,,,,,,,,,,9.0,9.0,,,A,,,,,,True,cue1.png,Easy,cue2.png,Hard,Left,Easy,Easy,0.0160012000706046,,,,,,,,,,,,,19,29,Female,0.14285714285714285,0.25,0.0,0.0,1.7777777777777777,3.375,2.2222222222222223,3.111111111111111,2.75,2.888888888888889,2.25,1.75,2.5,1.75,0.9262820512820512,0.9230769230769232,0.357576994740061,0.7562820262417776,,,,,,,,,,,,,,,,,,,,,,,,,,,,,,,,
9,240619_150754,TrueCHOICE,9.0,10,1.0,303.0,,,,,,,,,,,10.0,10.0,,,A,,,,,,True,cue2.png,Hard,cue1.png,Easy,Right,Easy,Easy,0.0153069999068975,,,,,,,,,,,,,19,29,Female,0.14285714285714285,0.25,0.0,0.0,1.7777777777777777,3.375,2.2222222222222223,3.111111111111111,2.75,2.888888888888889,2.25,1.75,2.5,1.75,1.0,1.0,0.3559064684178386,0.6377684790565518,,,,,,,,,,,,,0.00887424799631803,0.007005559341608093,0.013262996105164142,-0.8829320428641041,134726.64758584576,-0.4092491865006012,,,,,,,,,,,,,,
0,240619_150943,FalseCHOICE,9.0,1,2.0,303.0,,,,,,,,,,,1.0,1.0,,,A,,,,,,False,cue1.png,Easy,cue2.png,Hard,Left,Easy,Mid,0.0141834000824019,,,,,,,,,,,,,19,29,Female,0.14285714285714285,0.25,0.0,0.0,1.7777777777777777,3.375,2.2222222222222223,3.111111111111111,2.75,2.888888888888889,2.25,1.75,2.5,1.75,0.8071428571428572,0.8571428571428572,0.4337174684287196,0.4694349314566913,,,,,,,,,,,,,,,,,,,,,,,,,,,,,,,,
1,240619_151009,FalseCHOICE,9.0,2,2.0,303.0,,,,,,,,,,,2.0,2.0,,,A,,,,,,False,cue2.png,Hard,cue1.png,Easy,Right,Easy,Mid,0.0155787999974563,,,,,,,,,,,,,19,29,Female,0.14285714285714285,0.25,0.0,0.0,1.7777777777777777,3.375,2.2222222222222223,3.111111111111111,2.75,2.888888888888889,2.25,1.75,2.5,1.75,0.7019230769230769,0.7692307692307692,0.4175221000026029,-0.07657154133421604,,,,,,,,,,,,,,,,,,,,,,,2.4413460611949255e+44,-0.20623064196981258,,,,,,,,
2,240619_151034,FalseCHOICE,9.0,3,2.0,303.0,,,,,,,,,,,3.0,3.0,,,A,,,,,,False,cue2.png,Hard,cue1.png,Easy,Left,Hard,Mid,0.0164204000029712,,,,,,,,,,,,,19,29,Female,0.14285714285714285,0.25,0.0,0.0,1.7777777777777777,3.375,2.2222222222222223,3.111111111111111,2.75,2.888888888888889,2.25,1.75,2.5,1.75,0.6625000000000001,0.7857142857142857,0.4094007631432951,-0.35037219694305577,,,,,,,,,,,,,,,,,,,0.014123345133045783,0.7441063432409506,,,-9.645537069574057e+44,-0.20882672348910225,,,,,,,,
3,240619_151100,FalseCHOICE,9.0,4,2.0,303.0,,,,,,,,,,,4.0,4.0,,,A,,,,,,False,cue2.png,Hard,cue1.png,Easy,Right,Easy,Mid,0.0166723999427631,,,,,,,,,,,,,19,29,Female,0.14285714285714285,0.25,0.0,0.0,1.7777777777777777,3.375,2.2222222222222223,3.111111111111111,2.75,2.888888888888889,2.25,1.75,2.5,1.75,0.9262820512820512,0.9230769230769232,0.4498299421056321,1.012646712059375,,,,,,,,,,,,,,,,,,,0.00751772825197532,-0.9410883642869425,0.01521146387431882,-0.4571900396361568,-9.027078322842132e+44,-0.2086938878105023,,,,,,,,
4,240619_151126,FalseCHOICE,9.0,5,2.0,303.0,,,,,,,,,,,5.0,5.0,,,A,,,,,,False,cue1.png,Easy,cue2.png,Hard,Right,Hard,Mid,0.0164282000623643,,,,,,,,,,,,,19,29,Female,0.14285714285714285,0.25,0.0,0.0,1.7777777777777777,3.375,2.2222222222222223,3.111111111111111,2.75,2.888888888888889,2.25,1.75,2.5,1.75,0.8269230769230769,0.8461538461538461,0.4097409052713039,-0.3389047329944003,,,,,,,,,,,,,,,,,,,0.008256700053362476,-0.7525652647595322,0.021590274480029835,1.1528593086022652,2.7152790642296192e+48,5.6252578640111395,,,,,,,,
5,240619_151151,FalseCHOICE,9.0,6,2.0,303.0,,,,,,,,,,,6.0,6.0,,,A,,,,,,False,cue2.png,Hard,cue1.png,Easy,Right,Easy,Mid,0.0165235000895336,,,,,,,,,,,,,19,29,Female,0.14285714285714285,0.25,0.0,0.0,1.7777777777777777,3.375,2.2222222222222223,3.111111111111111,2.75,2.888888888888889,2.25,1.75,2.5,1.75,1.0,1.0,0.3708148947488026,-1.6512462090264421,,,,,,,,,,,,,,,,,,,0.006633747574244888,-1.1666054638234262,0.019437252305012323,0.6094238370229323,,,,,,,,,,
6,240619_151216,FalseCHOICE,9.0,7,2.0,303.0,,,,,,,,,,,7.0,7.0,,,A,,,,,,False,cue2.png,Hard,cue1.png,Easy,Left,Hard,Mid,0.0160187999717891,,,,,,,,,,,,,19,29,Female,0.14285714285714285,0.25,0.0,0.0,1.7777777777777777,3.375,2.2222222222222223,3.111111111111111,2.75,2.888888888888889,2.25,1.75,2.5,1.75,0.7019230769230769,0.7692307692307692,0.3989286105528375,-0.7034276476127219,,,,,,,,,,,,,,,,,,,,,0.014908728639968389,-0.5336021949552577,7.43014952081827e+43,-0.20659541806289644,,,,,,,,
7,240619_151241,FalseCHOICE,9.0,8,2.0,303.0,,,,,,,,,,,8.0,8.0,,,A,,,,,,False,cue1.png,Easy,cue2.png,Hard,Right,Hard,Mid,0.0154665000736713,,,,,,,,,,,,,19,29,Female,0.14285714285714285,0.25,0.0,0.0,1.7777777777777777,3.375,2.2222222222222223,3.111111111111111,2.75,2.888888888888889,2.25,1.75,2.5,1.75,0.9178571428571428,0.9285714285714286,0.3844964789275668,-1.1899888098065265,,,,,,,,,,,,,,,,,,,,,0.012838048025205879,-1.0562541719905127,,,,,,,,,,
8,240619_151306,FalseCHOICE,9.0,9,2.0,303.0,,,,,,,,,,,9.0,9.0,,,A,,,,,,False,cue1.png,Easy,cue2.png,Hard,Right,Hard,Mid,0.016038000001572,,,,,,,,,,,,,19,29,Female,0.14285714285714285,0.25,0.0,0.0,1.7777777777777777,3.375,2.2222222222222223,3.111111111111111,2.75,2.888888888888889,2.25,1.75,2.5,1.75,0.8071428571428572,0.8571428571428572,0.4016761052679564,-0.6107993196276316,,,,,,,,,,,,,,,,,,,0.010388241027316744,-0.20877629957139732,,,5.588989792436162e+47,0.9936763167837169,,,,,,,,
9,240619_151333,FalseCHOICE,9.0,10,2.0,303.0,,,,,,,,,,,10.0,10.0,,,A,,,,,,False,cue2.png,Hard,cue1.png,Easy,Left,Hard,Mid,0.0159858000697568,,,,,,,,,,,,,19,29,Female,0.14285714285714285,0.25,0.0,0.0,1.7777777777777777,3.375,2.2222222222222223,3.111111111111111,2.75,2.888888888888889,2.25,1.75,2.5,1.75,0.9262820512820512,0.9230769230769232,0.4526819789316505,1.1087995457999709,,,,,,,,,,,,,,,,,,,0.011663193270867185,0.11648367415475652,0.012807512570187501,-1.0639615005960188,4.204398551678516e+44,-0.20585196469308517,,,,,,,,
10,240619_151359,FalseCHOICE,9.0,11,2.0,303.0,,,,,,,,,,,11.0,11.0,,,A,,,,,,False,cue1.png,Easy,cue2.png,Hard,Right,Hard,Mid,0.015937199932523,,,,,,,,,,,,,19,29,Female,0.14285714285714285,0.25,0.0,0.0,1.7777777777777777,3.375,2.2222222222222223,3.111111111111111,2.75,2.888888888888889,2.25,1.75,2.5,1.75,0.9178571428571428,0.9285714285714286,0.4362321052589993,0.5542127487885284,,,,,,,,,,,,,,,,,,,0.00897658408105516,-0.5689117505846412,0.019809091341404177,0.7032781987837758,,,,,,,,,,
11,240619_151425,FalseCHOICE,9.0,12,2.0,303.0,,,,,,,,,,,12.0,12.0,,,A,,,,,,False,cue2.png,Hard,cue1.png,Easy,Left,Hard,Mid,0.0165520999580621,,,,,,,,,,,,,19,29,Female,0.14285714285714285,0.25,0.0,0.0,1.7777777777777777,3.375,2.2222222222222223,3.111111111111111,2.75,2.888888888888889,2.25,1.75,2.5,1.75,0.9262820512820512,0.9230769230769232,0.430986278953864,0.37735631413516246,,,,,,,,,,,,,,,,,,,0.011969624934380812,0.19465911588404566,0.022939257718306807,1.4933506192594344,2.4054722389880013e+44,-0.20623834712968298,,,,,,,,
12,240619_151451,FalseCHOICE,9.0,13,2.0,303.0,,,,,,,,,,,13.0,13.0,,,A,,,,,,False,cue1.png,Easy,cue2.png,Hard,Right,Hard,Mid,0.0169599999208003,,,,,,,,,,,,,19,29,Female,0.14285714285714285,0.25,0.0,0.0,1.7777777777777777,3.375,2.2222222222222223,3.111111111111111,2.75,2.888888888888889,2.25,1.75,2.5,1.75,0.8071428571428572,0.8571428571428572,0.426596521038415,0.22936114831015258,,,,,,,,,,,,,,,,,,,0.018535162550775895,1.8696289850768375,,,7.750785703054565e+42,-0.2067383590222593,,,,,,,,
13,240619_151516,FalseCHOICE,9.0,14,2.0,303.0,,,,,,,,,,,14.0,14.0,,,A,,,,,,False,cue2.png,Hard,cue1.png,Easy,Left,Hard,Mid,0.0159536999417468,,,,,,,,,,,,,19,29,Female,0.14285714285714285,0.25,0.0,0.0,1.7777777777777777,3.375,2.2222222222222223,3.111111111111111,2.75,2.888888888888889,2.25,1.75,2.5,1.75,0.8071428571428572,0.8571428571428572,0.4072083841923526,-0.42428549527190185,,,,,,,,,,,,,,,,,,,0.012693380361169727,0.37930028365513485,0.016409351512759556,-0.15483614786084343,-1.82136365761475e+44,-0.20714620819175503,,,,,,,,
14,240619_151542,FalseCHOICE,9.0,15,2.0,303.0,,,,,,,,,,,15.0,15.0,,,A,,,,,,False,cue1.png,Easy,cue2.png,Hard,Right,Hard,Mid,0.0165650000562891,,,,,,,,,,,,,19,29,Female,0.14285714285714285,0.25,0.0,0.0,1.7777777777777777,3.375,2.2222222222222223,3.111111111111111,2.75,2.888888888888889,2.25,1.75,2.5,1.75,0.8269230769230769,0.8461538461538461,0.4083872315792465,-0.3845421386071195,,,,,,,,,,,,,,,,,,,,,0.015109729901726777,-0.4828682932151039,,,,,,,,,,
15,240619_151608,FalseCHOICE,9.0,16,2.0,303.0,,,,,,,,,,,16.0,16.0,,,A,,,,,,False,cue1.png,Easy,cue2.png,Hard,Left,Easy,Mid,0.0163398999720811,,,,,,,,,,,,,19,29,Female,0.14285714285714285,0.25,0.0,0.0,1.7777777777777777,3.375,2.2222222222222223,3.111111111111111,2.75,2.888888888888889,2.25,1.75,2.5,1.75,0.9178571428571428,0.9285714285714286,0.3850962684158922,-1.1697676617399284,,,,,,,,,,,,,,,,,,,,,,,,,,,,,,,,
16,240619_151633,FalseCHOICE,9.0,17,2.0,303.0,,,,,,,,,,,17.0,17.0,,,A,,,,,,False,cue2.png,Hard,cue1.png,Easy,Right,Easy,Mid,0.0168843000428751,,,,,,,,,,,,,19,29,Female,0.14285714285714285,0.25,0.0,0.0,1.7777777777777777,3.375,2.2222222222222223,3.111111111111111,2.75,2.888888888888889,2.25,1.75,2.5,1.75,0.8269230769230769,0.8461538461538461,0.4077119052495905,-0.40730991625419566,,,,,,,,,,,,,,,,,,,0.011701925158332457,0.1263647757905608,0.017610254774441808,0.14827890497327118,,,,,,,,,,
17,240619_151659,FalseCHOICE,9.0,18,2.0,303.0,,,,,,,,,,,18.0,18.0,,,A,,,,,,False,cue2.png,Hard,cue1.png,Easy,Left,Hard,Mid,0.0152069999603554,,,,,,,,,,,,,19,29,Female,0.14285714285714285,0.25,0.0,0.0,1.7777777777777777,3.375,2.2222222222222223,3.111111111111111,2.75,2.888888888888889,2.25,1.75,2.5,1.75,0.9178571428571428,0.9285714285714286,0.4192725578874448,-0.017557055814376443,,,,,,,,,,,,,,,,,,,0.013838412354658245,0.6714155985633566,0.014364290964731616,-0.6710214692297759,,,,,,,,,,
18,240619_151723,FalseCHOICE,9.0,19,2.0,303.0,,,,,,,,,,,19.0,19.0,,,A,,,,,,False,cue1.png,Easy,cue2.png,Hard,Right,Hard,Mid,0.016796899959445,,,,,,,,,,,,,19,29,Female,0.14285714285714285,0.25,0.0,0.0,1.7777777777777777,3.375,2.2222222222222223,3.111111111111111,2.75,2.888888888888889,2.25,1.75,2.5,1.75,0.5256410256410255,0.6923076923076923,0.3383041842240153,-2.747303916052108,,,,,,,,,,,,,,,,,,,0.011512849801325026,0.07812873717530967,0.013161764669842294,-0.9745461851999732,,,,,,,,,,
19,240619_151749,FalseCHOICE,9.0,20,2.0,303.0,,,,,,,,,,,20.0,20.0,,,A,,,,,,False,cue1.png,Easy,cue2.png,Hard,Right,Hard,Mid,0.0159564999630674,,,,,,,,,,,,,19,29,Female,0.14285714285714285,0.25,0.0,0.0,1.7777777777777777,3.375,2.2222222222222223,3.111111111111111,2.75,2.888888888888889,2.25,1.75,2.5,1.75,0.6625000000000001,0.7857142857142857,0.4223004420974144,0.08452425126097093,,,,,,,,,,,,,,,,,,,0.0165133973282107,1.353845506520223,0.01303735618628292,-1.0059476188294285,,,,,,,,,,
20,240619_151815,FalseCHOICE,9.0,21,2.0,303.0,,,,,,,,,,,21.0,21.0,,,A,,,,,,False,cue1.png,Easy,cue2.png,Hard,Right,Hard,Mid,0.0153132999548688,,,,,,,,,,,,,19,29,Female,0.14285714285714285,0.25,0.0,0.0,1.7777777777777777,3.375,2.2222222222222223,3.111111111111111,2.75,2.888888888888889,2.25,1.75,2.5,1.75,0.6625000000000001,0.7857142857142857,0.3983613052711773,-0.7225536315165791,,,,,,,,,,,,,,,,,,,0.011112139233845313,-0.02409870648743573,0.01871028319288639,0.4259325535350822,,,,,,,,,,
21,240619_151842,FalseCHOICE,9.0,22,2.0,303.0,,,,,,,,,,,22.0,22.0,,,A,,,,,,False,cue2.png,Hard,cue1.png,Easy,Left,Hard,Mid,0.0165012000361457,,,,,,,,,,,,,19,29,Female,0.14285714285714285,0.25,0.0,0.0,1.7777777777777777,3.375,2.2222222222222223,3.111111111111111,2.75,2.888888888888889,2.25,1.75,2.5,1.75,0.7019230769230769,0.7692307692307692,0.4608880631490855,1.3854573519762978,,,,,,,,,,,,,,,,,,,0.01770352926421794,1.6574665120869745,0.018805131439475462,0.44987280933536755,2.904733658444903e+43,-0.20669261721970386,,,,,,,,
22,240619_151908,FalseCHOICE,9.0,23,2.0,303.0,,,,,,,,,,,23.0,23.0,,,A,,,,,,False,cue1.png,Easy,cue2.png,Hard,Left,Easy,Mid,0.0159321000101044,,,,,,,,,,,,,19,29,Female,0.14285714285714285,0.25,0.0,0.0,1.7777777777777777,3.375,2.2222222222222223,3.111111111111111,2.75,2.888888888888889,2.25,1.75,2.5,1.75,1.0,1.0,0.4278892473758836,0.27294379053438816,,,,,,,,,,,,,,,,,,,,,0.011803897144465694,-1.3172799422219101,-4.70367234151287e+43,-0.2068560343884979,,,,,,,,
23,240619_151934,FalseCHOICE,9.0,24,2.0,303.0,,,,,,,,,,,24.0,24.0,,,A,,,,,,False,cue2.png,Hard,cue1.png,Easy,Right,Easy,Mid,0.0168213999131694,,,,,,,,,,,,,19,29,Female,0.14285714285714285,0.25,0.0,0.0,1.7777777777777777,3.375,2.2222222222222223,3.111111111111111,2.75,2.888888888888889,2.25,1.75,2.5,1.75,0.9178571428571428,0.9285714285714286,0.4487268947199673,0.9754588570799942,,,,,,,,,,,,,,,,,,,,,0.025478382533124726,2.134240670068195,-9.389406340455263e+43,-0.20695667693883407,,,,,,,,
24,240619_152001,FalseCHOICE,9.0,25,2.0,303.0,,,,,,,,,,,25.0,25.0,,,A,,,,,,False,cue2.png,Hard,cue1.png,Easy,Left,Hard,Mid,0.0130486000562086,,,,,,,,,,,,,19,29,Female,0.14285714285714285,0.25,0.0,0.0,1.7777777777777777,3.375,2.2222222222222223,3.111111111111111,2.75,2.888888888888889,2.25,1.75,2.5,1.75,0.8071428571428572,0.8571428571428572,0.424026726291662,0.14272375121281144,,,,,,,,,,,,,,,,,,,0.009159280546426247,-0.5223030655714838,0.019265202523937087,0.5659974594413909,,,,,,,,,,
25,240619_152027,FalseCHOICE,9.0,26,2.0,303.0,,,,,,,,,,,26.0,26.0,,,A,,,,,,False,cue1.png,Easy,cue2.png,Hard,Left,Easy,Mid,0.0161439999938011,,,,,,,,,,,,,19,29,Female,0.14285714285714285,0.25,0.0,0.0,1.7777777777777777,3.375,2.2222222222222223,3.111111111111111,2.75,2.888888888888889,2.25,1.75,2.5,1.75,0.8071428571428572,0.8571428571428572,0.4255298368424471,0.19339923252668526,,,,,,,,,,,,,,,,,,,0.007825998155138543,-0.8624439592822409,0.020882418453794724,0.9741922805098947,-9.799296421468886e+43,-0.20696548076404483,,,,,,,,
26,240619_152053,FalseCHOICE,9.0,27,2.0,303.0,,,,,,,,,,,27.0,27.0,,,A,,,,,,False,cue1.png,Easy,cue2.png,Hard,Left,Easy,Mid,0.0163985999533906,,,,,,,,,,,,,19,29,Female,0.14285714285714285,0.25,0.0,0.0,1.7777777777777777,3.375,2.2222222222222223,3.111111111111111,2.75,2.888888888888889,2.25,1.75,2.5,1.75,0.7019230769230769,0.7692307692307692,0.4098677684087306,-0.33462770190927565,,,,,,,,,,,,,,,,,,,0.009813187698999125,-0.35548126942882396,0.01572493618483651,-0.32758660570643416,-2.252317595688645e+43,-0.20680338295897713,,,,,,,,
27,240619_152120,FalseCHOICE,9.0,28,2.0,303.0,,,,,,,,,,,28.0,28.0,,,A,,,,,,False,cue2.png,Hard,cue1.png,Easy,Right,Easy,Mid,0.0150352999335154,,,,,,,,,,,,,19,29,Female,0.14285714285714285,0.25,0.0,0.0,1.7777777777777777,3.375,2.2222222222222223,3.111111111111111,2.75,2.888888888888889,2.25,1.75,2.5,1.75,0.9262820512820512,0.8178137651821863,0.4438808117787737,0.8120792670666933,,,,,,,,,,,,,,,,,,,0.009600858504602754,-0.40964972047475273,,,-2.939554342977958e+42,-0.20676132027201094,,,,,,,,
28,240619_152146,FalseCHOICE,9.0,29,2.0,303.0,,,,,,,,,,,29.0,29.0,,,A,,,,,,False,cue1.png,Easy,cue2.png,Hard,Left,Easy,Mid,0.0153688999125733,,,,,,,,,,,,,19,29,Female,0.14285714285714285,0.25,0.0,0.0,1.7777777777777777,3.375,2.2222222222222223,3.111111111111111,2.75,2.888888888888889,2.25,1.75,2.5,1.75,0.9178571428571428,0.9285714285714286,0.4176051210624313,-0.07377259074219629,,,,,,,,,,,,,,,,,,,0.009566130210817923,-0.41850944363783554,0.0199030880799841,0.7270035289498172,4.694453600761402e+43,-0.20665417671509503,,,,,,,,
29,240619_152212,FalseCHOICE,9.0,30,2.0,303.0,,,,,,,,,,,30.0,30.0,,,A,,,,,,False,cue1.png,Easy,cue2.png,Hard,Right,Hard,Mid,0.0164510000031441,,,,,,,,,,,,,19,29,Female,0.14285714285714285,0.25,0.0,0.0,1.7777777777777777,3.375,2.2222222222222223,3.111111111111111,2.75,2.888888888888889,2.25,1.75,2.5,1.75,0.9178571428571428,0.9285714285714286,0.3913308894935701,-0.9595752552293586,,,,,,,,,,,,,,,,,,,0.009842478623658805,-0.3480087029594389,,,8.385406471132699e+43,-0.20657490057391228,,,,,,,,
30,240619_152237,FalseCHOICE,9.0,31,2.0,303.0,,,,,,,,,,,31.0,31.0,,,A,,,,,,False,cue2.png,Hard,cue1.png,Easy,Left,Hard,Mid,0.0164159999694675,,,,,,,,,,,,,19,29,Female,0.14285714285714285,0.25,0.0,0.0,1.7777777777777777,3.375,2.2222222222222223,3.111111111111111,2.75,2.888888888888889,2.25,1.75,2.5,1.75,0.8071428571428572,0.8571428571428572,0.3680188315797989,-1.7455119613353767,,,,,,,,,,,,,,,,,,,0.026592991768037914,3.925305448846116,0.029423781628312086,3.1300826278243323,,,,,,,,,,
31,240619_152304,FalseCHOICE,9.0,32,2.0,303.0,,,,,,,,,,,32.0,32.0,,,A,,,,,,False,cue1.png,Easy,cue2.png,Hard,Left,Easy,Mid,0.0169718000106513,,,,,,,,,,,,,19,29,Female,0.14285714285714285,0.25,0.0,0.0,1.7777777777777777,3.375,2.2222222222222223,3.111111111111111,2.75,2.888888888888889,2.25,1.75,2.5,1.75,1.0,1.0,0.460967031583239,1.3881196733918728,,,,,,,,,,,,,,,,,,,0.009199531492563444,-0.5120344286485985,0.013389317219865284,-0.9171105819973181,,,,,,,,,,
32,240619_152329,FalseCHOICE,9.0,33,2.0,303.0,,,,,,,,,,,33.0,33.0,,,A,,,,,,False,cue2.png,Hard,cue1.png,Easy,Right,Easy,Mid,0.0179265999468043,,,,,,,,,,,,,19,29,Female,0.14285714285714285,0.25,0.0,0.0,1.7777777777777777,3.375,2.2222222222222223,3.111111111111111,2.75,2.888888888888889,2.25,1.75,2.5,1.75,1.0,1.0,0.41601517369456,-0.1273756661038333,,,,,,,,,,,,,,,,,,,0.01925239973566553,2.052607248845345,0.013149503447277505,-0.9776409899557955,5.033449602728272e+43,-0.20664689558855234,,,,,,,,
33,240619_152355,FalseCHOICE,9.0,34,2.0,303.0,,,,,,,,,,,34.0,34.0,,,A,,,,,,False,cue2.png,Hard,cue1.png,Easy,Right,Easy,Mid,0.0164108000462874,,,,,,,,,,,,,19,29,Female,0.14285714285714285,0.25,0.0,0.0,1.7777777777777777,3.375,2.2222222222222223,3.111111111111111,2.75,2.888888888888889,2.25,1.75,2.5,1.75,0.7019230769230769,0.7692307692307692,0.4047459105250278,-0.5073046971857238,,,,,,,,,,,,,,,,,,,,,0.014502212370703559,-0.6362092944342991,1.6597251097439552e+42,-0.2067514417083977,,,,,,,,
34,240619_152420,FalseCHOICE,9.0,35,2.0,303.0,,,,,,,,,,,35.0,35.0,,,A,,,,,,False,cue2.png,Hard,cue1.png,Easy,Right,Easy,Mid,0.0157615999924018,,,,,,,,,,,,,19,29,Female,0.14285714285714285,0.25,0.0,0.0,1.7777777777777777,3.375,2.2222222222222223,3.111111111111111,2.75,2.888888888888889,2.25,1.75,2.5,1.75,0.9262820512820512,0.9230769230769232,0.4141791789535139,-0.18927391912564417,,,,,,,,,,,,,,,,,,,0.009158263232619784,-0.5225625980078045,0.015501893236483663,-0.3838839589000154,-4.3981580429444563e+43,-0.20684947239881196,,,,,,,,
35,240619_152447,FalseCHOICE,9.0,36,2.0,303.0,,,,,,,,,,,36.0,36.0,,,A,,,,,,False,cue1.png,Easy,cue2.png,Hard,Left,Easy,Mid,0.0140357000054791,,,,,,,,,,,,,19,29,Female,0.14285714285714285,0.25,0.0,0.0,1.7777777777777777,3.375,2.2222222222222223,3.111111111111111,2.75,2.888888888888889,2.25,1.75,2.5,1.75,0.9262820512820512,0.9230769230769232,0.4934686842055893,2.4838720046316753,,,,,,,,,,,,,,,,,,,0.010006289903129444,-0.30621792002917636,,,-7.785449012855177e+43,-0.20692222633704652,,,,,,,,
36,240619_152514,FalseCHOICE,9.0,37,2.0,303.0,,,,,,,,,,,37.0,37.0,,,A,,,,,,False,cue2.png,Hard,cue1.png,Easy,Right,Easy,Mid,0.0170918999938294,,,,,,,,,,,,,19,29,Female,0.14285714285714285,0.25,0.0,0.0,1.7777777777777777,3.375,2.2222222222222223,3.111111111111111,2.75,2.888888888888889,2.25,1.75,2.5,1.75,1.0,1.0,0.4564690999993074,1.2364775684159273,,,,,,,,,,,,,,,,,,,0.008118189799498278,-0.7879013659825971,0.015763633858940834,-0.31781908495354816,-8.7441064397702145e+43,-0.2069428168631765,,,,,,,,
37,240619_152541,FalseCHOICE,9.0,38,2.0,303.0,,,,,,,,,,,38.0,38.0,,,A,,,,,,False,cue1.png,Easy,cue2.png,Hard,Left,Easy,Mid,0.0160222999984398,,,,,,,,,,,,,19,29,Female,0.14285714285714285,0.25,0.0,0.0,1.7777777777777777,3.375,2.2222222222222223,3.111111111111111,2.75,2.888888888888889,2.25,1.75,2.5,1.75,1.0,0.9473684210526316,0.4585963111086231,1.308193814945157,,,,,,,,,,,,,,,,,,,0.010248924784152883,-0.2443180210910325,0.01698572224209436,-0.009356782745602307,-6.795574588346188e+43,-0.20690096531654945,,,,,,,,
38,240619_152608,FalseCHOICE,9.0,39,2.0,303.0,,,,,,,,,,,39.0,39.0,,,A,,,,,,False,cue1.png,Easy,cue2.png,Hard,Left,Easy,Mid,0.0155664000194519,,,,,,,,,,,,,19,29,Female,0.14285714285714285,0.25,0.0,0.0,1.7777777777777777,3.375,2.2222222222222223,3.111111111111111,2.75,2.888888888888889,2.25,1.75,2.5,1.75,0.8071428571428572,0.8045112781954888,0.4625240555679839,1.4406127783088616,,,,,,,,,,,,,,,,,,,0.00870604727223991,-0.6379298614765136,0.015887433628892916,-0.2865712942220034,-2.2466427230669355e+43,-0.2068032610712102,,,,,,,,
39,240619_152634,FalseCHOICE,9.0,40,2.0,303.0,,,,,,,,,,,40.0,40.0,,,A,,,,,,False,cue2.png,Hard,cue1.png,Easy,Right,Easy,Mid,0.0168598999734967,,,,,,,,,,,,,19,29,Female,0.14285714285714285,0.25,0.0,0.0,1.7777777777777777,3.375,2.2222222222222223,3.111111111111111,2.75,2.888888888888889,2.25,1.75,2.5,1.75,0.9262820512820512,0.9230769230769232,0.4479567578773161,0.9494946622584544,,,,,,,,,,,,,,,,,,,0.008533951955565281,-0.6818340300154893,0.01850446510333487,0.3739828561038064,2.8482370222571625e+43,-0.20669383068285663,,,,,,,,
40,240619_152701,FalseCHOICE,9.0,41,2.0,303.0,,,,,,,,,,,41.0,41.0,,,A,,,,,,False,cue2.png,Hard,cue1.png,Easy,Right,Easy,Mid,0.0167349999537691,,,,,,,,,,,,,19,29,Female,0.14285714285714285,0.25,0.0,0.0,1.7777777777777777,3.375,2.2222222222222223,3.111111111111111,2.75,2.888888888888889,2.25,1.75,2.5,1.75,0.9262820512820512,0.9230769230769232,0.443825694732368,0.8102210651841043,,,,,,,,,,,,,,,,,,,0.010653851185936616,-0.14101505310030069,0.013035459447208277,-1.0064263669377629,6.788191505950048e+43,-0.2066092063598505,,,,,,,,
41,240619_152726,FalseCHOICE,9.0,42,2.0,303.0,,,,,,,,,,,42.0,42.0,,,A,,,,,,False,cue1.png,Easy,cue2.png,Hard,Left,Easy,Mid,0.0161422999808564,,,,,,,,,,,,,19,29,Female,0.14285714285714285,0.25,0.0,0.0,1.7777777777777777,3.375,2.2222222222222223,3.111111111111111,2.75,2.888888888888889,2.25,1.75,2.5,1.75,0.9178571428571428,0.9285714285714286,0.4187708684414821,-0.034470884362097276,,,,,,,,,,,,,,,,,,,0.007212309833558806,-1.0190053115703948,0.01309332004540538,-0.9918220113338319,,,,,,,,,,
42,240619_152752,FalseCHOICE,9.0,43,2.0,303.0,,,,,,,,,,,43.0,43.0,,,A,,,,,,False,cue2.png,Hard,cue1.png,Easy,Right,Easy,Mid,0.01622580003459,,,,,,,,,,,,,19,29,Female,0.14285714285714285,0.25,0.0,0.0,1.7777777777777777,3.375,2.2222222222222223,3.111111111111111,2.75,2.888888888888889,2.25,1.75,2.5,1.75,1.0,1.0,0.4238517947286661,0.13682615362946932,,,,,,,,,,,,,,,,,,,0.011420598518428053,0.05459401263714598,0.01628280521349688,-0.18677717875889815,7.042311459203258e+43,-0.20660374824374905,,,,,,,,
43,240619_152819,FalseCHOICE,9.0,44,2.0,303.0,,,,,,,,,,,44.0,44.0,,,A,,,,,,False,cue1.png,Easy,cue2.png,Hard,Left,Easy,Mid,0.0160604000557214,,,,,,,,,,,,,19,29,Female,0.14285714285714285,0.25,0.0,0.0,1.7777777777777777,3.375,2.2222222222222223,3.111111111111111,2.75,2.888888888888889,2.25,1.75,2.5,1.75,1.0,1.0,0.4734026421118821,1.8073706384268178,,,,,,,,,,,,,,,,,,,,,0.021876421122576366,1.2250844056948447,1.641741127992057e+43,-0.20671974440817617,,,,,,,,
44,240619_152844,FalseCHOICE,9.0,45,2.0,303.0,,,,,,,,,,,45.0,45.0,,,A,,,,,,False,cue2.png,Hard,cue1.png,Easy,Right,Easy,Mid,0.0163204000564292,,,,,,,,,,,,,19,29,Female,0.14285714285714285,0.25,0.0,0.0,1.7777777777777777,3.375,2.2222222222222223,3.111111111111111,2.75,2.888888888888889,2.25,1.75,2.5,1.75,0.9178571428571428,0.9285714285714286,0.3954585052499744,-0.8204178825229645,,,,,,,,,,,,,,,,,,,0.015266995605001088,1.035869210706636,0.023555082817505832,1.6487884995919437,,,,,,,,,,
45,240619_152909,FalseCHOICE,9.0,46,2.0,303.0,,,,,,,,,,,46.0,46.0,,,A,,,,,,False,cue2.png,Hard,cue1.png,Easy,Right,Easy,Mid,0.0166393000399693,,,,,,,,,,,,,19,29,Female,0.14285714285714285,0.25,0.0,0.0,1.7777777777777777,3.375,2.2222222222222223,3.111111111111111,2.75,2.888888888888889,2.25,1.75,2.5,1.75,0.9178571428571428,0.9285714285714286,0.4074706157890001,-0.41544468687701885,,,,,,,,,,,,,,,,,,,0.008262855956793873,-0.7509947988864099,0.015355058785160115,-0.4209458388123558,-9.125288997747045e+43,-0.2069510040937763,,,,,,,,
46,240619_152935,FalseCHOICE,9.0,47,2.0,303.0,,,,,,,,,,,47.0,47.0,,,A,,,,,,False,cue1.png,Easy,cue2.png,Hard,Left,Easy,Mid,0.0153200000058859,,,,,,,,,,,,,19,29,Female,0.14285714285714285,0.25,0.0,0.0,1.7777777777777777,3.375,2.2222222222222223,3.111111111111111,2.75,2.888888888888889,2.25,1.75,2.5,1.75,0.6625000000000001,0.7330827067669172,0.3647699055533546,-1.855045415183626,,,,,,,,,,,,,,,,,,,0.007741828544102083,-0.8839169247307516,,,-7.984540823249245e+43,-0.20692650253103312,,,,,,,,
47,240619_153001,FalseCHOICE,9.0,48,2.0,303.0,,,,,,,,,,,48.0,48.0,,,A,,,,,,False,cue1.png,Easy,cue2.png,Hard,Left,Easy,Mid,0.0160361999878659,,,,,,,,,,,,,19,29,Female,0.14285714285714285,0.25,0.0,0.0,1.7777777777777777,3.375,2.2222222222222223,3.111111111111111,2.75,2.888888888888889,2.25,1.75,2.5,1.75,1.0,1.0,0.422605047370062,0.09479363483631571,,,,,,,,,,,,,,,,,,,0.008803089766735465,-0.6131728249917223,0.012087087681721722,-1.2458009835069201,2.6704882065051066e+43,-0.20669764846127525,,,,,,,,
48,240619_153026,FalseCHOICE,9.0,49,2.0,303.0,,,,,,,,,,,49.0,49.0,,,A,,,,,,False,cue2.png,Hard,cue1.png,Easy,Right,Easy,Mid,0.0164416000479832,,,,,,,,,,,,,19,29,Female,0.14285714285714285,0.25,0.0,0.0,1.7777777777777777,3.375,2.2222222222222223,3.111111111111111,2.75,2.888888888888889,2.25,1.75,2.5,1.75,0.9178571428571428,0.9285714285714286,0.3890386736878243,-1.0368544275236147,,,,,,,,,,,,,,,,,,,0.00924640390221071,-0.5000765542988147,0.015687997989356772,-0.33691002369661677,1.1783185200044276e+44,-0.20650192137431772,,,,,,,,
49,240619_153052,FalseCHOICE,9.0,50,2.0,303.0,,,,,,,,,,,50.0,50.0,,,A,,,,,,False,cue1.png,Easy,cue2.png,Hard,Left,Easy,Mid,0.0160991000011563,,,,,,,,,,,,,19,29,Female,0.14285714285714285,0.25,0.0,0.0,1.7777777777777777,3.375,2.2222222222222223,3.111111111111111,2.75,2.888888888888889,2.25,1.75,2.5,1.75,1.0,1.0,0.4085197473667856,-0.3800745355344627,,,,,,,,,,,,,,,,,,,0.010891631027870297,-0.08035374948583449,,,-3.368419461098671e+43,-0.20682735515590403,,,,,,,,
0,240619_143801,OFFLINERATING,9.0,1,1.0,,,,,,,,,,,,,,,,,T0,cue1.png,Easy,82.0,1.0851192000554877,,,,,,,,,,,,,,,,,,,,,,19,29,Female,0.14285714285714285,0.25,0.0,0.0,1.7777777777777777,3.375,2.2222222222222223,3.111111111111111,2.75,2.888888888888889,2.25,1.75,2.5,1.75,,,,,,,,,,,,,,,,,,,,,,,,,,,,,1.2872557489419418,0.00738600160415764,0.2130937177122585,,,,,
1,240619_143808,OFFLINERATING,9.0,2,3.0,,,,,,,,,,,,,,,,,T0,cue2.png,Hard,37.0,0.9090432000812144,,,,,,,,,,,,,,,,,,,,,,19,29,Female,0.14285714285714285,0.25,0.0,0.0,1.7777777777777777,3.375,2.2222222222222223,3.111111111111111,2.75,2.888888888888889,2.25,1.75,2.5,1.75,,,,,,,,,,,,,,,,,,,,,,,,,,,,,-0.29977188673990424,0.0063347458428351395,-1.0808105493550864,0.018290204665402727,0.9999999999999987,,,
2,240619_150256,OFFLINERATING,9.0,3,1.0,,,,,,,,,,,,,,,,,T1,cue1.png,Easy,42.0,1.0817998999264091,,,,,,,,,,,,,,,,,,,,,,19,29,Female,0.14285714285714285,0.25,0.0,0.0,1.7777777777777777,3.375,2.2222222222222223,3.111111111111111,2.75,2.888888888888889,2.25,1.75,2.5,1.75,,,,,,,,,,,,,,,,,,,,,,,,,,,,,-0.12343548277525469,,,0.015787880331667926,-1.0000000000000013,12335.122583713717,-0.7070830247318206,
3,240619_150304,OFFLINERATING,9.0,4,3.0,,,,,,,,,,,,,,,,,T1,cue2.png,Hard,4.0,1.085106800077483,,,,,,,,,,,,,,,,,,,,,,19,29,Female,0.14285714285714285,0.25,0.0,0.0,1.7777777777777777,3.375,2.2222222222222223,3.111111111111111,2.75,2.888888888888889,2.25,1.75,2.5,1.75,,,,,,,,,,,,,,,,,,,,,,,,,,,,,-1.4635921529065914,,,,,-9711.579934979001,-0.7071305373752316,
4,240619_150823,OFFLINERATING,9.0,5,1.0,,,,,,,,,,,,,,,,,T2,cue1.png,Easy,96.0,1.402159700053744,,,,,,,,,,,,,,,,,,,,,,19,29,Female,0.14285714285714285,0.25,0.0,0.0,1.7777777777777777,3.375,2.2222222222222223,3.111111111111111,2.75,2.888888888888889,2.25,1.75,2.5,1.75,,,,,,,,,,,,,,,,,,,,,,,,,,,,,1.7809976800429606,0.006673504447737337,-0.6638604402424215,,,984331275.2256488,1.4142135621070517,
5,240619_150830,OFFLINERATING,9.0,6,3.0,,,,,,,,,,,,,,,,,T2,cue2.png,Hard,27.0,0.9349556000670418,,,,,,,,,,,,,,,,,,,,,,19,29,Female,0.14285714285714285,0.25,0.0,0.0,1.7777777777777777,3.375,2.2222222222222223,3.111111111111111,2.75,2.888888888888889,2.25,1.75,2.5,1.75,,,,,,,,,,,,,,,,,,,,,,,,,,,,,-0.6524446946692034,0.008457227248752553,1.5315772718852494,,,,,
6,240619_153106,OFFLINERATING,9.0,7,1.0,,,,,,,,,,,,,,,,,T3,cue1.png,Easy,50.0,1.618670199997723,,,,,,,,,,,,,,,,,,,,,,19,29,Female,0.14285714285714285,0.25,0.0,0.0,1.7777777777777777,3.375,2.2222222222222223,3.111111111111111,2.75,2.888888888888889,2.25,1.75,2.5,1.75,,,,,,,,,,,,,,,,,,,,,,,,,,,,,0.1587027635681846,,,,,,,
7,240619_153113,OFFLINERATING,9.0,8,3.0,,,,,,,,,,,,,,,,,T3,cue2.png,Hard,26.0,0.7849035999970511,,,,,,,,,,,,,,,,,,,,,,19,29,Female,0.14285714285714285,0.25,0.0,0.0,1.7777777777777777,3.375,2.2222222222222223,3.111111111111111,2.75,2.888888888888889,2.25,1.75,2.5,1.75,,,,,,,,,,,,,,,,,,,,,,,,,,,,,-0.6877119754621333,,,,,,,
0,240619_150847,LEARNINGCHECK,9.0,1,,,,,,,,,,,,1.0,1.0,1.0,,,A,,,,,,,,,,,,,,,cue1.png,Easy,Left,Left,Easy,0.0159215000458061,1.0,,,,,,19,29,Female,0.14285714285714285,0.25,0.0,0.0,1.7777777777777777,3.375,2.2222222222222223,3.111111111111111,2.75,2.888888888888889,2.25,1.75,2.5,1.75,,,,,,,,,,,,,,,,,,,,,,,,,,,,,,,,,,,,
1,240619_150851,LEARNINGCHECK,9.0,2,,,,,,,,,,,,2.0,2.0,2.0,,,A,,,,,,,,,,,,,,,cue2.png,Hard,Right,Right,Hard,0.0157064999220892,1.0,,,,,,19,29,Female,0.14285714285714285,0.25,0.0,0.0,1.7777777777777777,3.375,2.2222222222222223,3.111111111111111,2.75,2.888888888888889,2.25,1.75,2.5,1.75,,,,,,,,,,,,,,,,,,,,,,,,,,,,,,,,,,,,
2,240619_153133,LEARNINGCHECK,9.0,1,,,,,,,,,,,,1.0,1.0,1.0,,,A,,,,,,,,,,,,,,,cue1.png,Easy,Middle,Middle,Mid,0.0143458999227732,1.0,,,,,,19,29,Female,0.14285714285714285,0.25,0.0,0.0,1.7777777777777777,3.375,2.2222222222222223,3.111111111111111,2.75,2.888888888888889,2.25,1.75,2.5,1.75,,,,,,,,,,,,,,,,,,,,,,,,,,,,,,,,,,,,
3,240619_153137,LEARNINGCHECK,9.0,2,,,,,,,,,,,,2.0,2.0,2.0,,,A,,,,,,,,,,,,,,,cue2.png,Hard,Middle,Middle,Mid,0.0150067000649869,1.0,,,,,,19,29,Female,0.14285714285714285,0.25,0.0,0.0,1.7777777777777777,3.375,2.2222222222222223,3.111111111111111,2.75,2.888888888888889,2.25,1.75,2.5,1.75,,,,,,,,,,,,,,,,,,,,,,,,,,,,,,,,,,,,
0,240619_153151,DEMANDRATING,9.0,-1,,,,,,,,,,,,,,,,,,,,,,,,,,,,,,,,,,,,,,,1.0,MentalDemand,1.0,100.0,1.8827647001016885,19,29,Female,0.14285714285714285,0.25,0.0,0.0,1.7777777777777777,3.375,2.2222222222222223,3.111111111111111,2.75,2.888888888888889,2.25,1.75,2.5,1.75,,,,,,,,,,,,,,,,,,,,,,,,,,,,,,,,,,,,0.7222355802233539
1,240619_153159,DEMANDRATING,9.0,-1,,,,,,,,,,,,,,,,,,,,,,,,,,,,,,,,,,,,,,,2.0,Effort,1.0,7.0,6.646304500056431,19,29,Female,0.14285714285714285,0.25,0.0,0.0,1.7777777777777777,3.375,2.2222222222222223,3.111111111111111,2.75,2.888888888888889,2.25,1.75,2.5,1.75,,,,,,,,,,,,,,,,,,,,,,,,,,,,,,,,,,,,-1.9060739008503294
2,240619_153204,DEMANDRATING,9.0,-1,,,,,,,,,,,,,,,,,,,,,,,,,,,,,,,,,,,,,,,3.0,Frustration,1.0,16.0,3.895887100021355,19,29,Female,0.14285714285714285,0.25,0.0,0.0,1.7777777777777777,3.375,2.2222222222222223,3.111111111111111,2.75,2.888888888888889,2.25,1.75,2.5,1.75,,,,,,,,,,,,,,,,,,,,,,,,,,,,,,,,,,,,-1.651721370423844
3,240619_153211,DEMANDRATING,9.0,-1,,,,,,,,,,,,,,,,,,,,,,,,,,,,,,,,,,,,,,,4.0,MentalDemand,2.0,92.0,5.296177099924535,19,29,Female,0.14285714285714285,0.25,0.0,0.0,1.7777777777777777,3.375,2.2222222222222223,3.111111111111111,2.75,2.888888888888889,2.25,1.75,2.5,1.75,,,,,,,,,,,,,,,,,,,,,,,,,,,,,,,,,,,,0.4961444420664779
4,240619_153218,DEMANDRATING,9.0,-1,,,,,,,,,,,,,,,,,,,,,,,,,,,,,,,,,,,,,,,5.0,Effort,2.0,91.0,5.592425799928606,19,29,Female,0.14285714285714285,0.25,0.0,0.0,1.7777777777777777,3.375,2.2222222222222223,3.111111111111111,2.75,2.888888888888889,2.25,1.75,2.5,1.75,,,,,,,,,,,,,,,,,,,,,,,,,,,,,,,,,,,,0.4678830497968684
5,240619_153223,DEMANDRATING,9.0,-1,,,,,,,,,,,,,,,,,,,,,,,,,,,,,,,,,,,,,,,6.0,Frustration,2.0,64.0,3.4686023999238387,19,29,Female,0.14285714285714285,0.25,0.0,0.0,1.7777777777777777,3.375,2.2222222222222223,3.111111111111111,2.75,2.888888888888889,2.25,1.75,2.5,1.75,,,,,,,,,,,,,,,,,,,,,,,,,,,,,,,,,,,,-0.29517454148258804
6,240619_153226,DEMANDRATING,9.0,-1,,,,,,,,,,,,,,,,,,,,,,,,,,,,,,,,,,,,,,,7.0,MentalDemand,3.0,100.0,1.6316202000016349,19,29,Female,0.14285714285714285,0.25,0.0,0.0,1.7777777777777777,3.375,2.2222222222222223,3.111111111111111,2.75,2.888888888888889,2.25,1.75,2.5,1.75,,,,,,,,,,,,,,,,,,,,,,,,,,,,,,,,,,,,0.7222355802233539
7,240619_153231,DEMANDRATING,9.0,-1,,,,,,,,,,,,,,,,,,,,,,,,,,,,,,,,,,,,,,,8.0,Effort,3.0,100.0,3.1718051000498235,19,29,Female,0.14285714285714285,0.25,0.0,0.0,1.7777777777777777,3.375,2.2222222222222223,3.111111111111111,2.75,2.888888888888889,2.25,1.75,2.5,1.75,,,,,,,,,,,,,,,,,,,,,,,,,,,,,,,,,,,,0.7222355802233539
8,240619_153234,DEMANDRATING,9.0,-1,,,,,,,,,,,,,,,,,,,,,,,,,,,,,,,,,,,,,,,9.0,Frustration,3.0,100.0,1.3122395999962464,19,29,Female,0.14285714285714285,0.25,0.0,0.0,1.7777777777777777,3.375,2.2222222222222223,3.111111111111111,2.75,2.888888888888889,2.25,1.75,2.5,1.75,,,,,,,,,,,,,,,,,,,,,,,,,,,,,,,,,,,,0.7222355802233539
