,END,Phase,Block,TrialN,NbackLevel,ISI,Letter_Resp,Letter_RT,Letter_Accuracy,Trial_A_measure,Trial_ACC,Trial_RT,TrialCountCali,CaliEnd_A_measure,ISI_calibrated,TrialIndex,TrialNumber_total,TrialNumber_valid,CueLearning,TrialDemandLearning,CueMapping,OfflineRatingTimePoint,CueFigure,TrialDemand,OfflineRating,OfflineRatingRT,PhaseType,CueLeft,CueDemandLeft,CueRight,CueDemandRight,Choice,ChoiceDemand,TaskDemand,ChoiceRT,CueCheck,CueDemandCheck,CorrectAnswer,Answer,AnswerDemand,AnswerRT,AnswerACC,DemandRatingQuesIndex,QuesTLX,DemandLevel,DemandRating,DemandRatingRT,PID,Age,Gender,BAI_bis,BAI_bas_d,BAI_bas_rr,BAI_bas_fs,NFC,BFI_ext,BFI_agr,BFI_con,BFI_neu,BFI_open,UPPS_lps,UPPS_lpm,UPPS_pu,UPPS_ss,Task_A_measure,Task_ACC,Task_RT,Task_RT_z,cue_i_on_zyg_values,cue_i_on_zyg_zvalues,cue_e_on_zyg_values,cue_e_on_zyg_zvalues,cue_i_on_cor_values,cue_i_on_cor_zvalues,cue_e_on_cor_values,cue_e_on_cor_zvalues,cue_i_on_scr_values,cue_i_on_scr_zvalues,cue_e_on_scr_values,cue_e_on_scr_zvalues,cue_e_true_zyg_values,cue_e_true_zyg_zvalues,cue_e_true_cor_values,cue_e_true_cor_zvalues,cue_e_true_scr_values,cue_e_true_scr_zvalues,cue_e_false_zyg_values,cue_e_false_zyg_zvalues,cue_e_false_cor_values,cue_e_false_cor_zvalues,cue_e_false_scr_values,cue_e_false_scr_zvalues,OfflineRating_z,cue_i_off_zyg_values,cue_i_off_zyg_zvalues,cue_i_off_cor_values,cue_i_off_cor_zvalues,cue_i_off_scr_values,cue_i_off_scr_zvalues,DemandRating_z
0,240620_144113,PRACTICE,0.0,1,1.0,303.0,,,,,,,,,,21.0,1.0,1.0,cue1.png,Easy,A,,,,,,,,,,,,,,,,,,,,,,,,,,,21,22,Female,1.5714285714285714,1.5,0.6,1.75,3.1666666666666665,1.875,2.5555555555555554,2.2222222222222223,1.75,3.3333333333333335,1.5,2.5,2.75,2.0,,,,,,,,,,,,,,,,,,,,,,,,,,,,,,,,,,,,
0,240620_144419,LEARNING,1.0,1,1.0,303.0,,,,,,,,,,1.0,1.0,1.0,cue1.png,Easy,A,,,,,,,,,,,,,,,,,,,,,,,,,,,21,22,Female,1.5714285714285714,1.5,0.6,1.75,3.1666666666666665,1.875,2.5555555555555554,2.2222222222222223,1.75,3.3333333333333335,1.5,2.5,2.75,2.0,1.0,1.0,0.4667652473405101,0.0004841695578601772,0.00619799882611898,-0.4407047833031082,,,,,,,9.95191857710452e+45,5.3624966017673295,1.0963798123160742e+46,-0.1917970536927891,,,,,,,,,,,,,,,,,,,,
1,240620_144451,LEARNING,1.0,2,3.0,303.0,,,,,,,,,,2.0,2.0,2.0,cue2.png,Hard,A,,,,,,,,,,,,,,,,,,,,,,,,,,,21,22,Female,1.5714285714285714,1.5,0.6,1.75,3.1666666666666665,1.875,2.5555555555555554,2.2222222222222223,1.75,3.3333333333333335,1.5,2.5,2.75,2.0,0.8535714285714285,0.7180451127819549,0.6060231466932843,2.073347989180166,0.008832822364782666,-0.030062225432923362,0.008340666053976844,-0.3492005642846148,,,0.01539565484623701,-0.45867083721942087,1.5786465463733438e+45,0.6909039420467109,1.0385001842227177e+45,-0.19475033870844152,,,,,,,,,,,,,,,,,,,,
2,240620_144520,LEARNING,1.0,3,1.0,303.0,,,,,,,,,,3.0,3.0,3.0,cue1.png,Easy,A,,,,,,,,,,,,,,,,,,,,,,,,,,,21,22,Female,1.5714285714285714,1.5,0.6,1.75,3.1666666666666665,1.875,2.5555555555555554,2.2222222222222223,1.75,3.3333333333333335,1.5,2.5,2.75,2.0,1.0,0.9473684210526316,0.4476860777617225,-0.28351063800505877,0.016398414416877893,1.149050541128434,0.006335982626541078,-0.5044197296296533,0.02219713587649353,0.20124394560286799,0.016286551352160703,-0.4313111756241933,,,-1.6161772819048366e+45,-0.19554024136228002,,,,,,,,,,,,,,,,,,,,
3,240620_144552,LEARNING,1.0,4,3.0,303.0,,,,,,,,,,4.0,4.0,4.0,cue2.png,Hard,A,,,,,,,,,,,,,,,,,,,,,,,,,,,21,22,Female,1.5714285714285714,1.5,0.6,1.75,3.1666666666666665,1.875,2.5555555555555554,2.2222222222222223,1.75,3.3333333333333335,1.5,2.5,2.75,2.0,1.0,0.9473684210526316,0.5878475388809521,1.8028027633155523,0.007696330714985299,-0.2071867391707926,0.006357921244420646,-0.5027210604485317,0.015710314983783533,-0.43111972676614047,,,-1.868770107361091e+45,-1.2324691760697064,-1.960203743120086e+45,-0.19564260687303298,,,,,,,,,,,,,,,,,,,,
4,240620_144623,LEARNING,1.0,5,3.0,303.0,,,,,,,,,,5.0,5.0,5.0,cue2.png,Hard,A,,,,,,,,,,,,,,,,,,,,,,,,,,,21,22,Female,1.5714285714285714,1.5,0.6,1.75,3.1666666666666665,1.875,2.5555555555555554,2.2222222222222223,1.75,3.3333333333333335,1.5,2.5,2.75,2.0,1.0,1.0,0.54480002630551,1.1620374512069402,0.007010617862939599,-0.31405646892556666,0.009257722944299922,-0.27819443776021835,0.014226255413877682,-0.5757923445494831,0.013484887336438853,-0.5173510005241706,,,2.0275116876131058e+49,5.837827448095341,,,,,,,,,,,,,,,,,,,,
5,240620_144653,LEARNING,1.0,6,1.0,303.0,,,,,,,,,,6.0,6.0,6.0,cue1.png,Easy,A,,,,,,,,,,,,,,,,,,,,,,,,,,,21,22,Female,1.5714285714285714,1.5,0.6,1.75,3.1666666666666665,1.875,2.5555555555555554,2.2222222222222223,1.75,3.3333333333333335,1.5,2.5,2.75,2.0,0.9262820512820512,0.9230769230769232,0.5015307631417129,0.5179713656864232,0.027188570789017465,2.830718154710595,0.010680560797076235,-0.16802656740885707,0.04105069361622003,2.039171214862466,0.01766317570668178,-0.38903468645512346,-2.925180476953206e+44,-0.35305100778632,-2.777221910047133e+44,-0.19514198234895894,,,,,,,,,,,,,,,,,,,,
6,240620_144726,LEARNING,1.0,7,3.0,303.0,,,,,,,,,,7.0,7.0,7.0,cue2.png,Hard,A,,,,,,,,,,,,,,,,,,,,,,,,,,,21,22,Female,1.5714285714285714,1.5,0.6,1.75,3.1666666666666665,1.875,2.5555555555555554,2.2222222222222223,1.75,3.3333333333333335,1.5,2.5,2.75,2.0,0.7596153846153846,0.6356275303643725,0.6282422000076622,2.4040801913438594,,,0.007543140150768169,-0.4109516135240664,0.014012287290416259,-0.5966508930680695,0.11315891258727975,2.543664036087445,,,,,,,,,,,,,,,,,,,,,,,,
7,240620_144757,LEARNING,1.0,8,3.0,303.0,,,,,,,,,,8.0,8.0,8.0,cue2.png,Hard,A,,,,,,,,,,,,,,,,,,,,,,,,,,,21,22,Female,1.5714285714285714,1.5,0.6,1.75,3.1666666666666665,1.875,2.5555555555555554,2.2222222222222223,1.75,3.3333333333333335,1.5,2.5,2.75,2.0,0.8071428571428572,0.7518796992481204,0.5857268823447692,1.7712366386782465,0.005558245365811088,-0.5404116492438817,0.006512936198829793,-0.49071852104002056,0.013751595430108583,-0.6220642758124789,0.015212174121400803,-0.46430557762685004,,,5.568587448253803e+44,-0.19489365173084552,,,,,,,,,,,,,,,,,,,,
8,240620_144827,LEARNING,1.0,9,1.0,303.0,,,,,,,,,,9.0,9.0,9.0,cue1.png,Easy,A,,,,,,,,,,,,,,,,,,,,,,,,,,,21,22,Female,1.5714285714285714,1.5,0.6,1.75,3.1666666666666665,1.875,2.5555555555555554,2.2222222222222223,1.75,3.3333333333333335,1.5,2.5,2.75,2.0,1.0,1.0,0.4749246421086259,0.12193734588358651,0.007735727798478904,-0.2010466243202002,0.005790203428660139,-0.5466784675422649,0.02003623485677062,-0.009410137045472701,0.01910040592771967,-0.34489697548581044,,,3.3167857224949444e+48,0.7918544612265815,,,,,,,,,,,,,,,,,,,,
9,240620_144855,LEARNING,1.0,10,1.0,303.0,,,,,,,,,,10.0,10.0,10.0,cue1.png,Easy,A,,,,,,,,,,,,,,,,,,,,,,,,,,,21,22,Female,1.5714285714285714,1.5,0.6,1.75,3.1666666666666665,1.875,2.5555555555555554,2.2222222222222223,1.75,3.3333333333333335,1.5,2.5,2.75,2.0,0.9178571428571428,0.9285714285714286,0.4330694999876677,-0.5010794464916858,0.006063023262900575,-0.46174099681670294,0.005335561041306584,-0.581880640079682,0.01689354046085063,-0.3157737321265175,0.013854123061158172,-0.5060116761357388,7.46856213453576e+44,0.22683379128209502,,,,,,,,,,,,,,,,,,,,,,
10,240620_144927,LEARNING,1.0,11,3.0,303.0,,,,,,,,,,11.0,11.0,11.0,cue2.png,Hard,A,,,,,,,,,,,,,,,,,,,,,,,,,,,21,22,Female,1.5714285714285714,1.5,0.6,1.75,3.1666666666666665,1.875,2.5555555555555554,2.2222222222222223,1.75,3.3333333333333335,1.5,2.5,2.75,2.0,0.6625000000000001,0.7857142857142857,0.5830375105387678,1.7312051464606995,0.0059147976460816485,-0.4848422578838029,0.047888173302986226,2.712894419221097,0.015661068957301807,-0.4359204448174995,0.14860410746427072,3.6321951174905514,6.585672460904638e+44,0.1775758559906016,,,,,,,,,,,,,,,,,,,,,,
11,240620_144955,LEARNING,1.0,12,1.0,303.0,,,,,,,,,,12.0,12.0,12.0,cue1.png,Easy,A,,,,,,,,,,,,,,,,,,,,,,,,,,,21,22,Female,1.5714285714285714,1.5,0.6,1.75,3.1666666666666665,1.875,2.5555555555555554,2.2222222222222223,1.75,3.3333333333333335,1.5,2.5,2.75,2.0,0.9178571428571428,0.9285714285714286,0.4257957736875764,-0.6093493841495825,0.005354738663530159,-0.5721285788758185,0.018213267484444077,0.41521786350750034,0.015953829029924562,-0.40738091247819963,0.014993080636351797,-0.4710339950903857,,,,,,,,,,,,,,,,,,,,,,,,
12,240620_145024,LEARNING,1.0,13,1.0,303.0,,,,,,,,,,13.0,13.0,13.0,cue1.png,Easy,A,,,,,,,,,,,,,,,,,,,,,,,,,,,21,22,Female,1.5714285714285714,1.5,0.6,1.75,3.1666666666666665,1.875,2.5555555555555554,2.2222222222222223,1.75,3.3333333333333335,1.5,2.5,2.75,2.0,1.0,1.0,0.4482751157759738,-0.27474276491636146,0.005945573319624954,-0.48004580714676026,0.0059779089714892385,-0.5321447524978711,0.01259425871279322,-0.7348865209204808,0.014486629869849109,-0.4865872288207062,,,-2.6393267794521165e+44,-0.1951378792618232,,,,,,,,,,,,,,,,,,,,
13,240620_145051,LEARNING,1.0,14,1.0,303.0,,,,,,,,,,14.0,14.0,14.0,cue1.png,Easy,A,,,,,,,,,,,,,,,,,,,,,,,,,,,21,22,Female,1.5714285714285714,1.5,0.6,1.75,3.1666666666666665,1.875,2.5555555555555554,2.2222222222222223,1.75,3.3333333333333335,1.5,2.5,2.75,2.0,0.9178571428571428,0.9285714285714286,0.390262526312941,-1.1382643198113895,,,0.0045429355931284315,-0.643252255574514,0.016698029647156037,-0.3348329813613327,0.016039380122492695,-0.43890186787051827,,,-4.3053521377553786e+44,-0.19518745205809232,,,,,,,,,,,,,,,,,,,,
14,240620_145122,LEARNING,1.0,15,3.0,303.0,,,,,,,,,,15.0,15.0,15.0,cue2.png,Hard,A,,,,,,,,,,,,,,,,,,,,,,,,,,,21,22,Female,1.5714285714285714,1.5,0.6,1.75,3.1666666666666665,1.875,2.5555555555555554,2.2222222222222223,1.75,3.3333333333333335,1.5,2.5,2.75,2.0,0.8535714285714285,0.8759398496240602,0.5291573888777444,0.929195671184505,0.004959871990265581,-0.6336693455904254,,,0.016680090050085836,-0.33658181174708934,,,,,,,,,,,,,,,,,,,,,,,,,,
15,240620_145149,LEARNING,1.0,16,1.0,303.0,,,,,,,,,,16.0,16.0,16.0,cue1.png,Easy,A,,,,,,,,,,,,,,,,,,,,,,,,,,,21,22,Female,1.5714285714285714,1.5,0.6,1.75,3.1666666666666665,1.875,2.5555555555555554,2.2222222222222223,1.75,3.3333333333333335,1.5,2.5,2.75,2.0,1.0,1.0,0.402350394741485,-0.9583355312949885,,,0.006609471939975749,-0.4832439258188656,0.06464519984830865,4.339266878891777,0.01670520948751366,-0.4184540762516126,,,,,,,,,,,,,,,,,,,,,,,,
16,240620_145219,LEARNING,1.0,17,1.0,303.0,,,,,,,,,,17.0,17.0,17.0,cue1.png,Easy,A,,,,,,,,,,,,,,,,,,,,,,,,,,,21,22,Female,1.5714285714285714,1.5,0.6,1.75,3.1666666666666665,1.875,2.5555555555555554,2.2222222222222223,1.75,3.3333333333333335,1.5,2.5,2.75,2.0,1.0,1.0,0.4705402263207361,0.056675002424888425,0.009817795689256052,0.12344785198227548,0.010218103591997495,-0.203833827746186,0.021224366728953517,0.10641415444939527,0.014908320403481591,-0.47363700371444256,,,,,,,,,,,,,,,,,,,,,,,,
17,240620_145249,LEARNING,1.0,18,3.0,303.0,,,,,,,,,,18.0,18.0,18.0,cue2.png,Hard,A,,,,,,,,,,,,,,,,,,,,,,,,,,,21,22,Female,1.5714285714285714,1.5,0.6,1.75,3.1666666666666665,1.875,2.5555555555555554,2.2222222222222223,1.75,3.3333333333333335,1.5,2.5,2.75,2.0,0.7019230769230769,0.7165991902834008,0.5005158722374795,0.5028646417876245,,,0.01801318942591506,0.3997261660036934,0.01196353308722474,-0.7963724135385362,,,,,,,,,,,,,,,,,,,,,,,,,,
18,240620_145319,LEARNING,1.0,19,3.0,303.0,,,,,,,,,,19.0,19.0,19.0,cue2.png,Hard,A,,,,,,,,,,,,,,,,,,,,,,,,,,,21,22,Female,1.5714285714285714,1.5,0.6,1.75,3.1666666666666665,1.875,2.5555555555555554,2.2222222222222223,1.75,3.3333333333333335,1.5,2.5,2.75,2.0,0.8071428571428572,0.7518796992481204,0.4952623882289866,0.42466615553455456,0.00953097639783958,0.07874648745237271,,,0.014171099366284664,-0.5811691973077392,,,,,,,,,,,,,,,,,,,,,,,,,,
19,240620_145350,LEARNING,1.0,20,3.0,303.0,,,,,,,,,,20.0,20.0,20.0,cue2.png,Hard,A,,,,,,,,,,,,,,,,,,,,,,,,,,,21,22,Female,1.5714285714285714,1.5,0.6,1.75,3.1666666666666665,1.875,2.5555555555555554,2.2222222222222223,1.75,3.3333333333333335,1.5,2.5,2.75,2.0,0.8071428571428572,0.8045112781954888,0.5620574333459243,1.4189151927270107,0.004771692852618479,-0.6629974433879738,0.007267060266468136,-0.4323280007496643,0.014536681509108331,-0.5455306510595592,0.016571316471185347,-0.4225659653345188,2.2375245643500287e+44,-0.06501480298205808,2.2177974348240355e+44,-0.19499335491354233,,,,,,,,,,,,,,,,,,,,
20,240620_145419,LEARNING,1.0,21,1.0,303.0,,,,,,,,,,21.0,21.0,21.0,cue1.png,Easy,A,,,,,,,,,,,,,,,,,,,,,,,,,,,21,22,Female,1.5714285714285714,1.5,0.6,1.75,3.1666666666666665,1.875,2.5555555555555554,2.2222222222222223,1.75,3.3333333333333335,1.5,2.5,2.75,2.0,1.0,1.0,0.4488804894683294,-0.2657317340874653,,,,,0.018879560736624303,-0.12216778928340022,0.01598738004506525,-0.44049880366707916,1.1879748302135495e+44,-0.12357099004977426,1.018612954695789e+44,-0.1950290368001512,,,,,,,,,,,,,,,,,,,,
21,240620_145448,LEARNING,1.0,22,3.0,303.0,,,,,,,,,,22.0,22.0,22.0,cue2.png,Hard,A,,,,,,,,,,,,,,,,,,,,,,,,,,,21,22,Female,1.5714285714285714,1.5,0.6,1.75,3.1666666666666665,1.875,2.5555555555555554,2.2222222222222223,1.75,3.3333333333333335,1.5,2.5,2.75,2.0,0.9178571428571428,0.9285714285714286,0.4802764894832906,0.20159997789687129,0.004047151285190415,-0.7759187066778985,0.007549334303418961,-0.41047201101360636,0.016481321690219684,-0.3559586208304081,0.017000664847957564,-0.40938056588930616,-2.0975872062802447e+42,-0.19102043162996282,,,,,,,,,,,,,,,,,,,,,,
22,240620_145518,LEARNING,1.0,23,3.0,303.0,,,,,,,,,,23.0,23.0,23.0,cue2.png,Hard,A,,,,,,,,,,,,,,,,,,,,,,,,,,,21,22,Female,1.5714285714285714,1.5,0.6,1.75,3.1666666666666665,1.875,2.5555555555555554,2.2222222222222223,1.75,3.3333333333333335,1.5,2.5,2.75,2.0,0.6625000000000001,0.7857142857142857,0.4752231263433044,0.1263803051244503,,,,,,,0.013448415658773308,-0.518471055156897,,,-1.421570151177501e+44,-0.1951016447585859,,,,,,,,,,,,,,,,,,,,
23,240620_145548,LEARNING,1.0,24,3.0,303.0,,,,,,,,,,24.0,24.0,24.0,cue2.png,Hard,A,,,,,,,,,,,,,,,,,,,,,,,,,,,21,22,Female,1.5714285714285714,1.5,0.6,1.75,3.1666666666666665,1.875,2.5555555555555554,2.2222222222222223,1.75,3.3333333333333335,1.5,2.5,2.75,2.0,0.8071428571428572,0.8571428571428572,0.511368563153634,0.6644077244435824,0.005240859695343755,-0.5898768455424354,0.03620188910756847,1.8080456765356234,0.020888056874644005,0.0736291989153136,0.015333789583468937,-0.46057073540353083,-1.8739138459112527e+44,-0.2943990320836273,-2.1372795334448458e+44,-0.19512294078221376,,,,,,,,,,,,,,,,,,,,
24,240620_145615,LEARNING,1.0,25,1.0,303.0,,,,,,,,,,25.0,25.0,25.0,cue1.png,Easy,A,,,,,,,,,,,,,,,,,,,,,,,,,,,21,22,Female,1.5714285714285714,1.5,0.6,1.75,3.1666666666666665,1.875,2.5555555555555554,2.2222222222222223,1.75,3.3333333333333335,1.5,2.5,2.75,2.0,1.0,1.0,0.3834529368353909,-1.2396255475772684,0.007407796667297142,-0.2521553519210015,0.005173855867019744,-0.5944011916247621,,,0.017424735001656054,-0.3963572620367478,-2.0233527564765638e+44,-0.30273648624863414,-2.1633367121807747e+44,-0.19512371611687862,,,,,,,,,,,,,,,,,,,,
25,240620_145643,LEARNING,1.0,26,1.0,303.0,,,,,,,,,,26.0,26.0,26.0,cue1.png,Easy,A,,,,,,,,,,,,,,,,,,,,,,,,,,,21,22,Female,1.5714285714285714,1.5,0.6,1.75,3.1666666666666665,1.875,2.5555555555555554,2.2222222222222223,1.75,3.3333333333333335,1.5,2.5,2.75,2.0,0.9178571428571428,0.9285714285714286,0.410208821051607,-0.8413622920523456,0.00786749438281453,-0.18051053663182273,0.007175305149562258,-0.4394324405167373,0.018138829940634864,-0.194377467049455,0.01820312501990875,-0.37245270371050737,-1.5516469933902614e+44,-0.276419209414748,-1.5233421120153733e+44,-0.19510467299621467,,,,,,,,,,,,,,,,,,,,
26,240620_145713,LEARNING,1.0,27,3.0,303.0,,,,,,,,,,27.0,27.0,27.0,cue2.png,Hard,A,,,,,,,,,,,,,,,,,,,,,,,,,,,21,22,Female,1.5714285714285714,1.5,0.6,1.75,3.1666666666666665,1.875,2.5555555555555554,2.2222222222222223,1.75,3.3333333333333335,1.5,2.5,2.75,2.0,0.8535714285714285,0.8759398496240602,0.5087556999771752,0.625515068664074,,,0.015805600599560224,0.2287963870858646,0.02050191189015169,0.03598609692449822,0.034074363878078294,0.11495713724102667,8.545169158346865e+43,-0.1421751813315188,2.009208363789865e+44,-0.19499956150786024,,,,,,,,,,,,,,,,,,,,
27,240620_145741,LEARNING,1.0,28,1.0,303.0,,,,,,,,,,28.0,28.0,28.0,cue1.png,Easy,A,,,,,,,,,,,,,,,,,,,,,,,,,,,21,22,Female,1.5714285714285714,1.5,0.6,1.75,3.1666666666666665,1.875,2.5555555555555554,2.2222222222222223,1.75,3.3333333333333335,1.5,2.5,2.75,2.0,0.9178571428571428,0.9285714285714286,0.3926487841986512,-1.1027447000370982,,,0.00951199311641397,-0.25850673877117364,,,0.01728548870636353,-0.40063355169807346,2.677013344912632e+43,-0.1749146331533682,4.4259297000105335e+43,-0.19504617634800137,,,,,,,,,,,,,,,,,,,,
28,240620_145808,LEARNING,1.0,29,1.0,303.0,,,,,,,,,,29.0,29.0,29.0,cue1.png,Easy,A,,,,,,,,,,,,,,,,,,,,,,,,,,,21,22,Female,1.5714285714285714,1.5,0.6,1.75,3.1666666666666665,1.875,2.5555555555555554,2.2222222222222223,1.75,3.3333333333333335,1.5,2.5,2.75,2.0,1.0,0.9473684210526316,0.3582562277960177,-1.614680368768829,0.006345041170073664,-0.4177879376962851,0.007536619421932172,-0.4114565022628631,0.014085704275845407,-0.5894938842207291,,,1.099261404616517e+44,-0.12852046483474167,1.3761018323854471e+44,-0.19501839967316278,,,,,,,,,,,,,,,,,,,,
29,240620_145838,LEARNING,1.0,30,3.0,303.0,,,,,,,,,,30.0,30.0,30.0,cue2.png,Hard,A,,,,,,,,,,,,,,,,,,,,,,,,,,,21,22,Female,1.5714285714285714,1.5,0.6,1.75,3.1666666666666665,1.875,2.5555555555555554,2.2222222222222223,1.75,3.3333333333333335,1.5,2.5,2.75,2.0,0.9262820512820512,0.8704453441295548,0.4765383722131244,0.1459578342278524,,,,,,,,,1.6124295510252856e+44,-0.09988993023408448,1.7980759672267626e+44,-0.19500584377915248,,,,,,,,,,,,,,,,,,,,
30,240620_145907,LEARNING,1.0,31,3.0,303.0,,,,,,,,,,31.0,31.0,31.0,cue2.png,Hard,A,,,,,,,,,,,,,,,,,,,,,,,,,,,21,22,Female,1.5714285714285714,1.5,0.6,1.75,3.1666666666666665,1.875,2.5555555555555554,2.2222222222222223,1.75,3.3333333333333335,1.5,2.5,2.75,2.0,0.8071428571428572,0.8571428571428572,0.4816912157755149,0.22265828022262513,0.005615964528917168,-0.5314160013653038,0.012875890132604574,0.0019539803697299117,0.016991522991964554,-0.30622196644221383,0.02235410969973522,-0.2449748930199424,,,,,,,,,,,,,,,,,,,,,,,,
31,240620_145935,LEARNING,1.0,32,1.0,303.0,,,,,,,,,,32.0,32.0,32.0,cue1.png,Easy,A,,,,,,,,,,,,,,,,,,,,,,,,,,,21,22,Female,1.5714285714285714,1.5,0.6,1.75,3.1666666666666665,1.875,2.5555555555555554,2.2222222222222223,1.75,3.3333333333333335,1.5,2.5,2.75,2.0,1.0,1.0,0.3813679842033276,-1.2706602170410237,0.004112622145069899,-0.7657149412369283,0.005226661514214975,-0.5903125418304987,,,,,1.4011988400009436e+44,-0.11167485535663202,1.4007948099706227e+44,-0.19501766493047656,,,,,,,,,,,,,,,,,,,,
32,240620_150003,LEARNING,1.0,33,1.0,303.0,,,,,,,,,,33.0,33.0,33.0,cue1.png,Easy,A,,,,,,,,,,,,,,,,,,,,,,,,,,,21,22,Female,1.5714285714285714,1.5,0.6,1.75,3.1666666666666665,1.875,2.5555555555555554,2.2222222222222223,1.75,3.3333333333333335,1.5,2.5,2.75,2.0,1.0,1.0,0.4280391578917931,-0.5759564493714063,,,0.005081206500608105,-0.601574871582079,0.018545576500575818,-0.15472603337771884,0.019231372564633115,-0.34087495626989517,7.03242432850773e+43,-0.15061504524274744,6.61373238780099e+43,-0.19503966651329938,,,,,,,,,,,,,,,,,,,,
33,240620_150030,LEARNING,1.0,34,1.0,303.0,,,,,,,,,,34.0,34.0,34.0,cue1.png,Easy,A,,,,,,,,,,,,,,,,,,,,,,,,,,,21,22,Female,1.5714285714285714,1.5,0.6,1.75,3.1666666666666665,1.875,2.5555555555555554,2.2222222222222223,1.75,3.3333333333333335,1.5,2.5,2.75,2.0,1.0,1.0,0.3697182842236208,-1.444066836770477,0.005141973145152717,-0.6052885136536141,,,0.018853497899265298,-0.12470850866155025,,,-1.2823847736314652e+43,-0.19700479709360155,,,,,,,,,,,,,,,,,,,,,,
34,240620_150100,LEARNING,1.0,35,3.0,303.0,,,,,,,,,,35.0,35.0,35.0,cue2.png,Hard,A,,,,,,,,,,,,,,,,,,,,,,,,,,,21,22,Female,1.5714285714285714,1.5,0.6,1.75,3.1666666666666665,1.875,2.5555555555555554,2.2222222222222223,1.75,3.3333333333333335,1.5,2.5,2.75,2.0,0.8717948717948717,0.8704453441295548,0.4728282111205367,0.09073182026714267,0.01713295668590349,1.2635304339145073,0.00502269095842706,-0.6061056286546169,0.022676811858745056,0.2480048583366654,0.020605829679763914,-0.2986650235817628,,,-1.1328373310207408e+44,-0.19509305347682748,,,,,,,,,,,,,,,,,,,,
35,240620_150129,LEARNING,1.0,36,3.0,303.0,,,,,,,,,,36.0,36.0,36.0,cue2.png,Hard,A,,,,,,,,,,,,,,,,,,,,,,,,,,,21,22,Female,1.5714285714285714,1.5,0.6,1.75,3.1666666666666665,1.875,2.5555555555555554,2.2222222222222223,1.75,3.3333333333333335,1.5,2.5,2.75,2.0,0.8071428571428572,0.8571428571428572,0.4926299631632374,0.385482319629955,0.006355480454974303,-0.41616095410856896,0.01407585748937881,0.09486537426399459,0.019195526248517832,-0.0913660892291425,0.10074750707544326,2.1625065700213773,-1.4755567922264927e+44,-0.2721740060590141,-1.6386017428499887e+44,-0.19510810256117836,,,,,,,,,,,,,,,,,,,,
36,240620_150157,LEARNING,1.0,37,1.0,303.0,,,,,,,,,,37.0,37.0,37.0,cue1.png,Easy,A,,,,,,,,,,,,,,,,,,,,,,,,,,,21,22,Female,1.5714285714285714,1.5,0.6,1.75,3.1666666666666665,1.875,2.5555555555555554,2.2222222222222223,1.75,3.3333333333333335,1.5,2.5,2.75,2.0,1.0,0.9473684210526316,0.3921642166808144,-1.1099575222939064,,,,,,,,,-1.523741126660903e+44,-0.27486229305400456,-1.6340182170700996e+44,-0.19510796617778625,,,,,,,,,,,,,,,,,,,,
37,240620_150227,LEARNING,1.0,38,3.0,303.0,,,,,,,,,,38.0,38.0,38.0,cue2.png,Hard,A,,,,,,,,,,,,,,,,,,,,,,,,,,,21,22,Female,1.5714285714285714,1.5,0.6,1.75,3.1666666666666665,1.875,2.5555555555555554,2.2222222222222223,1.75,3.3333333333333335,1.5,2.5,2.75,2.0,0.9178571428571428,0.9285714285714286,0.4709888157912677,0.06335228886716723,0.0054054019203396,-0.5642326082117586,0.045963364584115915,2.5638598142041533,0.017146597022381707,-0.2911046717017564,0.10107328002384675,2.17251114133346,-1.0954456306579277e+44,-0.25096694977630396,-1.0648548215257957e+44,-0.19509103064861766,,,,,,,,,,,,,,,,,,,,
38,240620_150256,LEARNING,1.0,39,3.0,303.0,,,,,,,,,,39.0,39.0,39.0,cue2.png,Hard,A,,,,,,,,,,,,,,,,,,,,,,,,,,,21,22,Female,1.5714285714285714,1.5,0.6,1.75,3.1666666666666665,1.875,2.5555555555555554,2.2222222222222223,1.75,3.3333333333333335,1.5,2.5,2.75,2.0,0.9178571428571428,0.9285714285714286,0.4878890210407247,0.31491305610986525,0.00696951371017134,-0.32046263396248803,0.02916689874145916,1.2633385582478096,0.019754485089204996,-0.03687633669145659,0.02709367263822811,-0.099421692121482,-3.582368249647017e+43,-0.20983680098001384,-2.042704236747193e+43,-0.19506542385048914,,,,,,,,,,,,,,,,,,,,
39,240620_150326,LEARNING,1.0,40,3.0,303.0,,,,,,,,,,40.0,40.0,40.0,cue2.png,Hard,A,,,,,,,,,,,,,,,,,,,,,,,,,,,21,22,Female,1.5714285714285714,1.5,0.6,1.75,3.1666666666666665,1.875,2.5555555555555554,2.2222222222222223,1.75,3.3333333333333335,1.5,2.5,2.75,2.0,0.9178571428571428,0.9285714285714286,0.5141236736917084,0.7054177424029037,0.006501688923603935,-0.39337406965147736,0.006392059593024335,-0.500077787249381,0.020754236154379588,0.06058376980525848,0.017196502101662216,-0.40336635329169057,5.964098819516599e+43,-0.15657541723075682,7.312363036920082e+43,-0.19503758772892413,,,,,,,,,,,,,,,,,,,,
40,240620_150354,LEARNING,1.0,41,1.0,303.0,,,,,,,,,,41.0,41.0,41.0,cue1.png,Easy,A,,,,,,,,,,,,,,,,,,,,,,,,,,,21,22,Female,1.5714285714285714,1.5,0.6,1.75,3.1666666666666665,1.875,2.5555555555555554,2.2222222222222223,1.75,3.3333333333333335,1.5,2.5,2.75,2.0,1.0,1.0,0.3970334631464395,-1.0374784394244363,0.00617562289724027,-0.44419211690805044,,,,,0.014376116447564886,-0.4899811245373495,1.3800100710791264e+44,-0.11285701326336652,1.5219664269124262e+44,-0.1950140594536149,,,,,,,,,,,,,,,,,,,,
41,240620_150423,LEARNING,1.0,42,3.0,303.0,,,,,,,,,,42.0,42.0,42.0,cue2.png,Hard,A,,,,,,,,,,,,,,,,,,,,,,,,,,,21,22,Female,1.5714285714285714,1.5,0.6,1.75,3.1666666666666665,1.875,2.5555555555555554,2.2222222222222223,1.75,3.3333333333333335,1.5,2.5,2.75,2.0,0.8269230769230769,0.8461538461538461,0.4836963210438721,0.2525044159508601,0.010483958165099776,0.2272706162104794,0.05806830038659991,3.5011240256513463,0.013140340022158272,-0.6816521264592064,0.013319108618322485,-0.5224421077371816,1.5847355151333262e+44,-0.10143502818762153,1.7113255962362657e+44,-0.1950084250474663,,,,,,,,,,,,,,,,,,,,
42,240620_150454,LEARNING,1.0,43,3.0,303.0,,,,,,,,,,43.0,43.0,43.0,cue2.png,Hard,A,,,,,,,,,,,,,,,,,,,,,,,,,,,21,22,Female,1.5714285714285714,1.5,0.6,1.75,3.1666666666666665,1.875,2.5555555555555554,2.2222222222222223,1.75,3.3333333333333335,1.5,2.5,2.75,2.0,0.9262820512820512,0.8704453441295548,0.5372777388935598,1.0500676635718993,,,0.010677547331760278,-0.16825989480845424,,,0.08917440440509508,1.8070936005437856,1.2164574113133795e+44,-0.12198189780115846,,,,,,,,,,,,,,,,,,,,,,
43,240620_150522,LEARNING,1.0,44,1.0,303.0,,,,,,,,,,44.0,44.0,44.0,cue1.png,Easy,A,,,,,,,,,,,,,,,,,,,,,,,,,,,21,22,Female,1.5714285714285714,1.5,0.6,1.75,3.1666666666666665,1.875,2.5555555555555554,2.2222222222222223,1.75,3.3333333333333335,1.5,2.5,2.75,2.0,1.0,1.0,0.403797963168472,-0.9367883714378111,0.03392514922182942,3.8806274781812777,,,0.03919740689779202,1.8585047197331022,0.016606504542489915,-0.42148533058437626,2.5733770430522026e+43,-0.1754928379283652,1.8945615395684163e+43,-0.19505370846613354,,,,,,,,,,,,,,,,,,,,
44,240620_150550,LEARNING,1.0,45,1.0,303.0,,,,,,,,,,45.0,45.0,45.0,cue1.png,Easy,A,,,,,,,,,,,,,,,,,,,,,,,,,,,21,22,Female,1.5714285714285714,1.5,0.6,1.75,3.1666666666666665,1.875,2.5555555555555554,2.2222222222222223,1.75,3.3333333333333335,1.5,2.5,2.75,2.0,1.0,1.0,0.4111323473717723,-0.8276155365401857,0.007945294668930073,-0.16838520526723258,0.005763621307372738,-0.5487366751489435,0.012585763163569914,-0.7357147042161964,0.016175883971999656,-0.43470979942696303,-9.472783801692715e+43,-0.24270044371686392,-9.187051454668153e+43,-0.19508668194643258,,,,,,,,,,,,,,,,,,,,
45,240620_150617,LEARNING,1.0,46,1.0,303.0,,,,,,,,,,46.0,46.0,46.0,cue1.png,Easy,A,,,,,,,,,,,,,,,,,,,,,,,,,,,21,22,Female,1.5714285714285714,1.5,0.6,1.75,3.1666666666666665,1.875,2.5555555555555554,2.2222222222222223,1.75,3.3333333333333335,1.5,2.5,2.75,2.0,1.0,1.0,0.3626508842173375,-1.5492655927470533,0.022770576696404452,2.142164872783375,0.00558806802515545,-0.5623294617038784,0.04422200136601064,2.3483241648265407,0.014739935468565599,-0.47880814851791154,-1.6941145486161084e+44,-0.28436771966019014,-1.818030187810356e+44,-0.19511344147736148,,,,,,,,,,,,,,,,,,,,
46,240620_150647,LEARNING,1.0,47,3.0,303.0,,,,,,,,,,47.0,47.0,47.0,cue2.png,Hard,A,,,,,,,,,,,,,,,,,,,,,,,,,,,21,22,Female,1.5714285714285714,1.5,0.6,1.75,3.1666666666666665,1.875,2.5555555555555554,2.2222222222222223,1.75,3.3333333333333335,1.5,2.5,2.75,2.0,0.5256410256410255,0.5870445344129555,0.4674971411757938,0.01137846178842786,,,,,0.015658479278504632,-0.43617289803326165,0.022748146643151723,-0.232873916805297,,,-1.1411170553116325e+44,-0.195093299841076,,,,,,,,,,,,,,,,,,,,
47,240620_150717,LEARNING,1.0,48,3.0,303.0,,,,,,,,,,48.0,48.0,48.0,cue2.png,Hard,A,,,,,,,,,,,,,,,,,,,,,,,,,,,21,22,Female,1.5714285714285714,1.5,0.6,1.75,3.1666666666666665,1.875,2.5555555555555554,2.2222222222222223,1.75,3.3333333333333335,1.5,2.5,2.75,2.0,0.9583333333333334,0.9473684210526316,0.4868639555449287,0.29965488268592144,0.008854464592884206,-0.0266892405725658,0.005292181842868464,-0.5852394162748413,,,,,4.748359711976583e+43,-0.16335823507075395,5.318001435906153e+43,-0.195043521977214,,,,,,,,,,,,,,,,,,,,
48,240620_150744,LEARNING,1.0,49,1.0,303.0,,,,,,,,,,49.0,49.0,49.0,cue1.png,Easy,A,,,,,,,,,,,,,,,,,,,,,,,,,,,21,22,Female,1.5714285714285714,1.5,0.6,1.75,3.1666666666666665,1.875,2.5555555555555554,2.2222222222222223,1.75,3.3333333333333335,1.5,2.5,2.75,2.0,1.0,1.0,0.3705544157786981,-1.4316209586047175,0.011128844412867087,0.3277774374197597,,,,,0.041916868790832965,0.3558024868918374,,,,,,,,,,,,,,,,,,,,,,,,
49,240620_150812,LEARNING,1.0,50,1.0,303.0,,,,,,,,,,50.0,50.0,50.0,cue1.png,Easy,A,,,,,,,,,,,,,,,,,,,,,,,,,,,21,22,Female,1.5714285714285714,1.5,0.6,1.75,3.1666666666666665,1.875,2.5555555555555554,2.2222222222222223,1.75,3.3333333333333335,1.5,2.5,2.75,2.0,0.9178571428571428,0.9285714285714286,0.395211068435425,-1.0646049154023882,0.0055462876055414655,-0.542275290277697,0.005291105707866995,-0.5853227395439624,0.015341208270556982,-0.4671018635527915,,,-1.0373466007459186e+44,-0.24772550484679856,-4.1592008290401557e+43,-0.1950717215129978,,,,,,,,,,,,,,,,,,,,
0,240620_150935,TrueCHOICE,9.0,1,1.0,303.0,,,,,,,,,,,1.0,1.0,,,A,,,,,,True,cue1.png,Easy,cue2.png,Hard,Left,Easy,Easy,0.016529000014998,,,,,,,,,,,,,21,22,Female,1.5714285714285714,1.5,0.6,1.75,3.1666666666666665,1.875,2.5555555555555554,2.2222222222222223,1.75,3.3333333333333335,1.5,2.5,2.75,2.0,1.0,1.0,0.4067105789436027,0.444879926926921,,,,,,,,,,,,,0.009496529258554707,1.5481855026325588,0.014185484097361593,-0.9990844910848855,189851575.9478492,-0.4459980572505211,,,,,,,,,,,,,,
1,240620_151002,TrueCHOICE,9.0,2,1.0,303.0,,,,,,,,,,,2.0,2.0,,,A,,,,,,True,cue1.png,Easy,cue2.png,Hard,Left,Easy,Easy,0.0159269999712705,,,,,,,,,,,,,21,22,Female,1.5714285714285714,1.5,0.6,1.75,3.1666666666666665,1.875,2.5555555555555554,2.2222222222222223,1.75,3.3333333333333335,1.5,2.5,2.75,2.0,0.9583333333333334,0.9473684210526316,0.4258238833410562,1.2638572311248395,,,,,,,,,,,,,0.008202347240838752,0.6288265455958895,,,,,,,,,,,,,,,,,,
2,240620_151030,TrueCHOICE,9.0,3,1.0,303.0,,,,,,,,,,,3.0,3.0,,,A,,,,,,True,cue2.png,Hard,cue1.png,Easy,Right,Easy,Easy,0.0170037999050691,,,,,,,,,,,,,21,22,Female,1.5714285714285714,1.5,0.6,1.75,3.1666666666666665,1.875,2.5555555555555554,2.2222222222222223,1.75,3.3333333333333335,1.5,2.5,2.75,2.0,1.0,1.0,0.4371371684093518,1.7486150476795592,,,,,,,,,,,,,,,0.015845044368659925,-0.24695142580380097,5417968.361892537,-0.44749393914716223,,,,,,,,,,,,,,
3,240620_151057,TrueCHOICE,9.0,4,1.0,303.0,,,,,,,,,,,4.0,4.0,,,A,,,,,,True,cue1.png,Easy,cue2.png,Hard,Left,Easy,Easy,0.0161614998942241,,,,,,,,,,,,,21,22,Female,1.5714285714285714,1.5,0.6,1.75,3.1666666666666665,1.875,2.5555555555555554,2.2222222222222223,1.75,3.3333333333333335,1.5,2.5,2.75,2.0,1.0,1.0,0.4078187052662925,0.4923615287261453,,,,,,,,,,,,,0.006462066006553054,-0.607431661211107,0.014006260799835045,-1.0803106872464552,1014351.1563982045,-0.44752965547535023,,,,,,,,,,,,,,
4,240620_151122,TrueCHOICE,9.0,5,1.0,303.0,,,,,,,,,,,5.0,5.0,,,A,,,,,,True,cue2.png,Hard,cue1.png,Easy,Right,Easy,Easy,0.0155062999110668,,,,,,,,,,,,,21,22,Female,1.5714285714285714,1.5,0.6,1.75,3.1666666666666665,1.875,2.5555555555555554,2.2222222222222223,1.75,3.3333333333333335,1.5,2.5,2.75,2.0,1.0,1.0,0.3907092157935135,-0.240755219337894,,,,,,,,,,,,,0.005656051336785213,-1.1800070764234165,0.02051234563327701,1.8683267400204486,330873077431.0466,2.236067633239192,,,,,,,,,,,,,,
5,240620_151149,TrueCHOICE,9.0,6,1.0,303.0,,,,,,,,,,,6.0,6.0,,,A,,,,,,True,cue2.png,Hard,cue1.png,Easy,Right,Easy,Easy,0.0162407000316306,,,,,,,,,,,,,21,22,Female,1.5714285714285714,1.5,0.6,1.75,3.1666666666666665,1.875,2.5555555555555554,2.2222222222222223,1.75,3.3333333333333335,1.5,2.5,2.75,2.0,1.0,1.0,0.3809769210577207,-0.6577698987797751,,,,,,,,,,,,,0.005877686341444869,-1.0225623554047074,0.017939435797160737,0.702252452030876,1394511.905366599,-0.4475265721133229,,,,,,,,,,,,,,
6,240620_151215,TrueCHOICE,9.0,7,1.0,303.0,,,,,,,,,,,7.0,7.0,,,A,,,,,,True,cue1.png,Easy,cue2.png,Hard,Left,Easy,Easy,0.0161675999406725,,,,,,,,,,,,,21,22,Female,1.5714285714285714,1.5,0.6,1.75,3.1666666666666665,1.875,2.5555555555555554,2.2222222222222223,1.75,3.3333333333333335,1.5,2.5,2.75,2.0,1.0,1.0,0.386299984204877,-0.42968438223695404,,,,,,,,,,,,,0.00820820679285751,0.6329890448107791,0.014760198532777994,-0.7386168615285017,2277651.278383332,-0.4475194092528356,,,,,,,,,,,,,,
7,240620_151240,TrueCHOICE,9.0,8,1.0,303.0,,,,,,,,,,,8.0,8.0,,,A,,,,,,True,cue2.png,Hard,cue1.png,Easy,Right,Easy,Easy,0.0165435998933389,,,,,,,,,,,,,21,22,Female,1.5714285714285714,1.5,0.6,1.75,3.1666666666666665,1.875,2.5555555555555554,2.2222222222222223,1.75,3.3333333333333335,1.5,2.5,2.75,2.0,0.8269230769230769,0.8461538461538461,0.3710326052724236,-1.0838693719310775,,,,,,,,,,,,,,,,,,,,,,,,,,,,,,,,
8,240620_151306,TrueCHOICE,9.0,9,1.0,303.0,,,,,,,,,,,9.0,9.0,,,A,,,,,,True,cue1.png,Easy,cue2.png,Hard,Left,Easy,Easy,0.0162239000201225,,,,,,,,,,,,,21,22,Female,1.5714285714285714,1.5,0.6,1.75,3.1666666666666665,1.875,2.5555555555555554,2.2222222222222223,1.75,3.3333333333333335,1.5,2.5,2.75,2.0,0.9262820512820512,0.9230769230769232,0.4009670736880875,0.19877907733049494,,,,,,,,,,,,,,,,,,,,,,,,,,,,,,,,
9,240620_151332,TrueCHOICE,9.0,10,1.0,303.0,,,,,,,,,,,10.0,10.0,,,A,,,,,,True,cue2.png,Hard,cue1.png,Easy,Right,Easy,Easy,0.0170834000455215,,,,,,,,,,,,,21,22,Female,1.5714285714285714,1.5,0.6,1.75,3.1666666666666665,1.875,2.5555555555555554,2.2222222222222223,1.75,3.3333333333333335,1.5,2.5,2.75,2.0,0.9178571428571428,0.9285714285714286,0.3558035105356554,-1.7364139395022833,,,,,,,,,,,,,,,0.01748078055848743,0.49438427361232495,,,,,,,,,,,,,,,,
0,240620_151510,FalseCHOICE,9.0,1,2.0,303.0,,,,,,,,,,,1.0,1.0,,,A,,,,,,False,cue1.png,Easy,cue2.png,Hard,Left,Easy,Mid,0.0161099999677389,,,,,,,,,,,,,21,22,Female,1.5714285714285714,1.5,0.6,1.75,3.1666666666666665,1.875,2.5555555555555554,2.2222222222222223,1.75,3.3333333333333335,1.5,2.5,2.75,2.0,0.95,0.631578947368421,0.5782694750038596,2.6486053376595895,,,,,,,,,,,,,,,,,,,0.05450477175877482,1.6543971370611132,0.012649761645226063,-0.4865109265381217,1.7109483505274642e+46,-0.17014541874434358,,,,,,,,
1,240620_151539,FalseCHOICE,9.0,2,2.0,303.0,,,,,,,,,,,2.0,2.0,,,A,,,,,,False,cue2.png,Hard,cue1.png,Easy,Right,Easy,Mid,0.0165994999697431,,,,,,,,,,,,,21,22,Female,1.5714285714285714,1.5,0.6,1.75,3.1666666666666665,1.875,2.5555555555555554,2.2222222222222223,1.75,3.3333333333333335,1.5,2.5,2.75,2.0,0.8269230769230769,0.8461538461538461,0.5219884526205102,1.4224321800808333,,,,,,,,,,,,,,,,,,,,,0.01615955342803524,-0.3981604124039189,2.7485632583077337e+44,-0.17150950988281297,,,,,,,,
2,240620_151610,FalseCHOICE,9.0,3,2.0,303.0,,,,,,,,,,,3.0,3.0,,,A,,,,,,False,cue2.png,Hard,cue1.png,Easy,Left,Hard,Mid,0.0158662999747321,,,,,,,,,,,,,21,22,Female,1.5714285714285714,1.5,0.6,1.75,3.1666666666666665,1.875,2.5555555555555554,2.2222222222222223,1.75,3.3333333333333335,1.5,2.5,2.75,2.0,0.8071428571428572,0.8045112781954888,0.5953728500171565,3.0212300423506724,,,,,,,,,,,,,,,,,,,0.005776092242037317,-0.7915049814708919,0.013182830014118845,-0.4730922204225519,-4.068793429466064e+45,-0.1718614709970484,,,,,,,,
3,240620_151645,FalseCHOICE,9.0,4,2.0,303.0,,,,,,,,,,,5.0,4.0,,,A,,,,,,False,cue2.png,Hard,cue1.png,Easy,Right,Easy,Mid,0.01680760004092,,,,,,,,,,,,,21,22,Female,1.5714285714285714,1.5,0.6,1.75,3.1666666666666665,1.875,2.5555555555555554,2.2222222222222223,1.75,3.3333333333333335,1.5,2.5,2.75,2.0,0.8717948717948717,0.8178137651821863,0.5410334823502447,1.8373589751349093,,,,,,,,,,,,,,,,,,,0.009146448802912929,-0.6223322820624794,0.015738858713642584,-0.408750383721358,,,,,,,,,,
4,240620_151713,FalseCHOICE,9.0,5,2.0,303.0,,,,,,,,,,,6.0,5.0,,,A,,,,,,False,cue1.png,Easy,cue2.png,Hard,Right,Hard,Mid,0.0155965000158175,,,,,,,,,,,,,21,22,Female,1.5714285714285714,1.5,0.6,1.75,3.1666666666666665,1.875,2.5555555555555554,2.2222222222222223,1.75,3.3333333333333335,1.5,2.5,2.75,2.0,0.8269230769230769,0.8461538461538461,0.5358106210447946,1.7235704889400612,,,,,,,,,,,,,,,,,,,0.005215976000912745,-0.8196196259549519,0.013291787145621427,-0.4703494883226048,7.407831422282066e+49,5.830951725398281,,,,,,,,
5,240620_151742,FalseCHOICE,9.0,6,2.0,303.0,,,,,,,,,,,7.0,6.0,,,A,,,,,,False,cue2.png,Hard,cue1.png,Easy,Right,Easy,Mid,0.0179020999930799,,,,,,,,,,,,,21,22,Female,1.5714285714285714,1.5,0.6,1.75,3.1666666666666665,1.875,2.5555555555555554,2.2222222222222223,1.75,3.3333333333333335,1.5,2.5,2.75,2.0,0.9178571428571428,0.8233082706766918,0.5113510529524373,1.190679212791331,,,,,,,,,,,,,,,,,,,0.03076809116983672,0.4629509925075881,0.05356334722264933,0.5433895759771237,,,,,,,,,,
6,240620_151812,FalseCHOICE,9.0,7,2.0,303.0,,,,,,,,,,,8.0,7.0,,,A,,,,,,False,cue2.png,Hard,cue1.png,Easy,Right,Easy,Mid,0.0155356000177562,,,,,,,,,,,,,21,22,Female,1.5714285714285714,1.5,0.6,1.75,3.1666666666666665,1.875,2.5555555555555554,2.2222222222222223,1.75,3.3333333333333335,1.5,2.5,2.75,2.0,0.9262820512820512,0.9230769230769232,0.5185780947427511,1.3481320144057578,,,,,,,,,,,,,,,,,,,0.0064451707089087,-0.75792105398066,0.016728463473128827,-0.38383947882993324,,,,,,,,,,
7,240620_151839,FalseCHOICE,9.0,8,2.0,303.0,,,,,,,,,,,9.0,8.0,,,A,,,,,,False,cue1.png,Easy,cue2.png,Hard,Left,Easy,Mid,0.0168663999065756,,,,,,,,,,,,,21,22,Female,1.5714285714285714,1.5,0.6,1.75,3.1666666666666665,1.875,2.5555555555555554,2.2222222222222223,1.75,3.3333333333333335,1.5,2.5,2.75,2.0,0.1607142857142857,0.5902255639097744,0.4591392333321791,0.05316022298625516,,,,,,,,,,,,,,,,,,,,,0.014180842523903284,-0.44796967076484895,,,,,,,,,,
8,240620_151908,FalseCHOICE,9.0,9,2.0,303.0,,,,,,,,,,,10.0,9.0,,,A,,,,,,False,cue1.png,Easy,cue2.png,Hard,Right,Hard,Mid,0.016738099977374,,,,,,,,,,,,,21,22,Female,1.5714285714285714,1.5,0.6,1.75,3.1666666666666665,1.875,2.5555555555555554,2.2222222222222223,1.75,3.3333333333333335,1.5,2.5,2.75,2.0,1.0,1.0,0.501196594731147,0.9694479065102855,,,,,,,,,,,,,,,,,,,0.0072253710535915595,-0.7187594412535239,0.00956636986782244,-0.5641278524609307,,,,,,,,,,
9,240620_151936,FalseCHOICE,9.0,10,2.0,303.0,,,,,,,,,,,11.0,10.0,,,A,,,,,,False,cue2.png,Hard,cue1.png,Easy,Right,Easy,Mid,0.0166098000481724,,,,,,,,,,,,,21,22,Female,1.5714285714285714,1.5,0.6,1.75,3.1666666666666665,1.875,2.5555555555555554,2.2222222222222223,1.75,3.3333333333333335,1.5,2.5,2.75,2.0,1.0,1.0,0.5023001210433186,0.9934900131630422,,,,,,,,,,,,,,,,,,,0.006021976795154611,-0.7791629776376604,0.014348554774064154,-0.44374792074512065,1.6180607321440203e+45,-0.17140067152195862,,,,,,,,
10,240620_152003,FalseCHOICE,9.0,11,2.0,303.0,,,,,,,,,,,12.0,11.0,,,A,,,,,,False,cue1.png,Easy,cue2.png,Hard,Left,Easy,Mid,0.0161327000241726,,,,,,,,,,,,,21,22,Female,1.5714285714285714,1.5,0.6,1.75,3.1666666666666665,1.875,2.5555555555555554,2.2222222222222223,1.75,3.3333333333333335,1.5,2.5,2.75,2.0,0.9178571428571428,0.9285714285714286,0.432581768432436,-0.5254371303382813,,,,,,,,,,,,,,,,,,,0.05493470728979301,1.6759774514997254,0.056715870714721915,0.6227467255120278,,,,,,,,,,
11,240620_152030,FalseCHOICE,9.0,12,2.0,303.0,,,,,,,,,,,13.0,12.0,,,A,,,,,,False,cue2.png,Hard,cue1.png,Easy,Right,Easy,Mid,0.016527900006622,,,,,,,,,,,,,21,22,Female,1.5714285714285714,1.5,0.6,1.75,3.1666666666666665,1.875,2.5555555555555554,2.2222222222222223,1.75,3.3333333333333335,1.5,2.5,2.75,2.0,1.0,1.0,0.5010655684347608,0.9665932865911346,,,,,,,,,,,,,,,,,,,0.00962952463574802,-0.5980846271976042,0.01411820943813323,-0.44954630712165494,,,,,,,,,,
12,240620_152059,FalseCHOICE,9.0,13,2.0,303.0,,,,,,,,,,,14.0,13.0,,,A,,,,,,False,cue1.png,Easy,cue2.png,Hard,Left,Easy,Mid,0.0168859000550583,,,,,,,,,,,,,21,22,Female,1.5714285714285714,1.5,0.6,1.75,3.1666666666666665,1.875,2.5555555555555554,2.2222222222222223,1.75,3.3333333333333335,1.5,2.5,2.75,2.0,1.0,1.0,0.4842236736777091,0.5996653524608411,,,,,,,,,,,,,,,,,,,0.009004561940544265,-0.6294541942649262,0.1336848994500958,2.5602557522548355,-8.442806678158392e+44,-0.17160019231013934,,,,,,,,
13,240620_152126,FalseCHOICE,9.0,14,2.0,303.0,,,,,,,,,,,15.0,14.0,,,A,,,,,,False,cue2.png,Hard,cue1.png,Easy,Right,Easy,Mid,0.0152898000087589,,,,,,,,,,,,,21,22,Female,1.5714285714285714,1.5,0.6,1.75,3.1666666666666665,1.875,2.5555555555555554,2.2222222222222223,1.75,3.3333333333333335,1.5,2.5,2.75,2.0,0.9178571428571428,0.9285714285714286,0.4559716631437799,-0.01585041994959248,,,,,,,,,,,,,,,,,,,0.010914046510689574,-0.5336089466255278,0.014431594580812413,-0.44165759457370846,,,,,,,,,,
14,240620_152153,FalseCHOICE,9.0,15,2.0,303.0,,,,,,,,,,,16.0,15.0,,,A,,,,,,False,cue1.png,Easy,cue2.png,Hard,Left,Easy,Mid,0.0163133000023663,,,,,,,,,,,,,21,22,Female,1.5714285714285714,1.5,0.6,1.75,3.1666666666666665,1.875,2.5555555555555554,2.2222222222222223,1.75,3.3333333333333335,1.5,2.5,2.75,2.0,0.9262820512820512,0.9230769230769232,0.4662054263079833,0.2071086728595819,,,,,,,,,,,,,,,,,,,0.02247658336121316,0.04676453483903794,0.033961236899632354,0.049953887388279314,,,,,,,,,,
15,240620_152221,FalseCHOICE,9.0,16,2.0,303.0,,,,,,,,,,,17.0,16.0,,,A,,,,,,False,cue1.png,Easy,cue2.png,Hard,Left,Easy,Mid,0.0162689000135287,,,,,,,,,,,,,21,22,Female,1.5714285714285714,1.5,0.6,1.75,3.1666666666666665,1.875,2.5555555555555554,2.2222222222222223,1.75,3.3333333333333335,1.5,2.5,2.75,2.0,1.0,1.0,0.4824638105254914,0.5613238855350442,,,,,,,,,,,,,,,,,,,0.06541878641491103,2.202218498810999,0.017034426772669444,-0.3761375932215013,,,,,,,,,,
16,240620_152248,FalseCHOICE,9.0,17,2.0,303.0,,,,,,,,,,,18.0,17.0,,,A,,,,,,False,cue2.png,Hard,cue1.png,Easy,Right,Easy,Mid,0.0166254999348893,,,,,,,,,,,,,21,22,Female,1.5714285714285714,1.5,0.6,1.75,3.1666666666666665,1.875,2.5555555555555554,2.2222222222222223,1.75,3.3333333333333335,1.5,2.5,2.75,2.0,0.9262820512820512,0.9230769230769232,0.4494852737070208,-0.1571669113733412,,,,,,,,,,,,,,,,,,,0.014078231808430076,-0.37478487012838,0.012825783339526645,-0.48208000637174575,,,,,,,,,,
17,240620_152315,FalseCHOICE,9.0,18,2.0,303.0,,,,,,,,,,,19.0,18.0,,,A,,,,,,False,cue2.png,Hard,cue1.png,Easy,Right,Easy,Mid,0.0162898000562563,,,,,,,,,,,,,21,22,Female,1.5714285714285714,1.5,0.6,1.75,3.1666666666666665,1.875,2.5555555555555554,2.2222222222222223,1.75,3.3333333333333335,1.5,2.5,2.75,2.0,1.0,1.0,0.4400936421006918,-0.3617788052922367,,,,,,,,,,,,,,,,,,,0.006481921386716967,-0.7560763793126782,,,,,,,,,,,,
18,240620_152343,FalseCHOICE,9.0,19,2.0,303.0,,,,,,,,,,,20.0,19.0,,,A,,,,,,False,cue1.png,Easy,cue2.png,Hard,Left,Easy,Mid,0.0159850999480113,,,,,,,,,,,,,21,22,Female,1.5714285714285714,1.5,0.6,1.75,3.1666666666666665,1.875,2.5555555555555554,2.2222222222222223,1.75,3.3333333333333335,1.5,2.5,2.75,2.0,0.9262820512820512,0.9230769230769232,0.4862975105214374,0.64484724438983,,,,,,,,,,,,,,,,,,,,,0.013571494316444492,-0.46330853721254733,5.80527398816126e+44,-0.17148474169534428,,,,,,,,
19,240620_152410,FalseCHOICE,9.0,20,2.0,303.0,,,,,,,,,,,21.0,20.0,,,A,,,,,,False,cue1.png,Easy,cue2.png,Hard,Left,Easy,Mid,0.0160507999826222,,,,,,,,,,,,,21,22,Female,1.5714285714285714,1.5,0.6,1.75,3.1666666666666665,1.875,2.5555555555555554,2.2222222222222223,1.75,3.3333333333333335,1.5,2.5,2.75,2.0,1.0,1.0,0.4611454263243726,0.09686838413504868,,,,,,,,,,,,,,,,,,,,,0.014353016610446176,-0.4436356048122311,,,,,,,,,,
20,240620_152438,FalseCHOICE,9.0,21,2.0,303.0,,,,,,,,,,,22.0,21.0,,,A,,,,,,False,cue1.png,Easy,cue2.png,Hard,Right,Hard,Mid,0.0166053000139072,,,,,,,,,,,,,21,22,Female,1.5714285714285714,1.5,0.6,1.75,3.1666666666666665,1.875,2.5555555555555554,2.2222222222222223,1.75,3.3333333333333335,1.5,2.5,2.75,2.0,1.0,1.0,0.4872870631454709,0.666406249791986,,,,,,,,,,,,,,,,,,,,,0.05446623077604959,0.5661174843781122,1.0613336150270656e+44,-0.1715231813171752,,,,,,,,
21,240620_152504,FalseCHOICE,9.0,22,2.0,303.0,,,,,,,,,,,23.0,22.0,,,A,,,,,,False,cue2.png,Hard,cue1.png,Easy,Right,Easy,Mid,0.0167345999507233,,,,,,,,,,,,,21,22,Female,1.5714285714285714,1.5,0.6,1.75,3.1666666666666665,1.875,2.5555555555555554,2.2222222222222223,1.75,3.3333333333333335,1.5,2.5,2.75,2.0,1.0,1.0,0.4149041315785756,-0.9105730586088624,,,,,,,,,,,,,,,,,,,0.06832171320203752,2.3479288863895738,,,-1.876982584912638e+44,-0.17154699016692063,,,,,,,,
22,240620_152529,FalseCHOICE,9.0,23,2.0,303.0,,,,,,,,,,,24.0,23.0,,,A,,,,,,False,cue1.png,Easy,cue2.png,Hard,Right,Hard,Mid,0.0164855000330135,,,,,,,,,,,,,21,22,Female,1.5714285714285714,1.5,0.6,1.75,3.1666666666666665,1.875,2.5555555555555554,2.2222222222222223,1.75,3.3333333333333335,1.5,2.5,2.75,2.0,0.8071428571428572,0.8045112781954888,0.3859483000059198,-1.541422711408809,,,,,,,,,,,,,,,,,,,0.014118465553634605,-0.3727653653191345,0.09130608611473064,1.4934716869106124,-3.9584635686217106e+44,-0.17156385617609626,,,,,,,,
23,240620_152556,FalseCHOICE,9.0,24,2.0,303.0,,,,,,,,,,,25.0,24.0,,,A,,,,,,False,cue2.png,Hard,cue1.png,Easy,Right,Easy,Mid,0.0170982000418007,,,,,,,,,,,,,21,22,Female,1.5714285714285714,1.5,0.6,1.75,3.1666666666666665,1.875,2.5555555555555554,2.2222222222222223,1.75,3.3333333333333335,1.5,2.5,2.75,2.0,0.9178571428571428,0.9285714285714286,0.4428987736678927,-0.30066447428825377,,,,,,,,,,,,,,,,,,,0.007020763443037432,-0.7290295777129002,0.014437589391594527,-0.44150668972022644,-4.7284756865471286e+44,-0.1715700954987458,,,,,,,,
24,240620_152623,FalseCHOICE,9.0,25,2.0,303.0,,,,,,,,,,,26.0,25.0,,,A,,,,,,False,cue2.png,Hard,cue1.png,Easy,Right,Easy,Mid,0.0165436000097543,,,,,,,,,,,,,21,22,Female,1.5714285714285714,1.5,0.6,1.75,3.1666666666666665,1.875,2.5555555555555554,2.2222222222222223,1.75,3.3333333333333335,1.5,2.5,2.75,2.0,0.95,0.9473684210526316,0.4192121389076217,-0.8167161468856012,,,,,,,,,,,,,,,,,,,,,0.009725437872325141,-0.5601237004058287,-4.2295432599732226e+44,-0.17156605270472056,,,,,,,,
25,240620_152650,FalseCHOICE,9.0,26,2.0,303.0,,,,,,,,,,,27.0,26.0,,,A,,,,,,False,cue1.png,Easy,cue2.png,Hard,Left,Easy,Mid,0.0169662999687716,,,,,,,,,,,,,21,22,Female,1.5714285714285714,1.5,0.6,1.75,3.1666666666666665,1.875,2.5555555555555554,2.2222222222222223,1.75,3.3333333333333335,1.5,2.5,2.75,2.0,0.8071428571428572,0.8571428571428572,0.4663390421100254,0.21001970935029227,,,,,,,,,,,,,,,,,,,0.041634048518952,1.0083601512136164,0.044779913008427014,0.3222878763004052,-2.6512683302917847e+44,-0.17155326411829866,,,,,,,,
26,240620_152717,FalseCHOICE,9.0,27,2.0,303.0,,,,,,,,,,,28.0,27.0,,,A,,,,,,False,cue1.png,Easy,cue2.png,Hard,Left,Easy,Mid,0.0167299000313505,,,,,,,,,,,,,21,22,Female,1.5714285714285714,1.5,0.6,1.75,3.1666666666666665,1.875,2.5555555555555554,2.2222222222222223,1.75,3.3333333333333335,1.5,2.5,2.75,2.0,1.0,1.0,0.437888199984292,-0.40982793107576443,,,,,,,,,,,,,,,,,,,,,0.15885698831531764,3.193902170816499,5.641499183577656e+44,-0.1714860687443918,,,,,,,,
27,240620_152744,FalseCHOICE,9.0,28,2.0,303.0,,,,,,,,,,,29.0,28.0,,,A,,,,,,False,cue2.png,Hard,cue1.png,Easy,Right,Easy,Mid,0.0169580000219866,,,,,,,,,,,,,21,22,Female,1.5714285714285714,1.5,0.6,1.75,3.1666666666666665,1.875,2.5555555555555554,2.2222222222222223,1.75,3.3333333333333335,1.5,2.5,2.75,2.0,1.0,0.9473684210526316,0.4451644666712834,-0.25130268542186035,,,,,,,,,,,,,,,,,,,0.009666710432475124,-0.5962181120386436,0.013973902592678483,-0.45317888272099927,1.4135453073152688e+44,-0.1715203273849604,,,,,,,,
28,240620_152811,FalseCHOICE,9.0,29,2.0,303.0,,,,,,,,,,,30.0,29.0,,,A,,,,,,False,cue1.png,Easy,cue2.png,Hard,Left,Easy,Mid,0.016017600079067,,,,,,,,,,,,,21,22,Female,1.5714285714285714,1.5,0.6,1.75,3.1666666666666665,1.875,2.5555555555555554,2.2222222222222223,1.75,3.3333333333333335,1.5,2.5,2.75,2.0,0.9178571428571428,0.9285714285714286,0.4356189473764971,-0.4592672716849522,,,,,,,,,,,,,,,,,,,0.022795565559854982,0.06277562406143397,,,3.2684288666159565e+44,-0.17150529746954163,,,,,,,,
29,240620_152837,FalseCHOICE,9.0,30,2.0,303.0,,,,,,,,,,,31.0,30.0,,,A,,,,,,False,cue1.png,Easy,cue2.png,Hard,Left,Easy,Mid,0.0160810999805107,,,,,,,,,,,,,21,22,Female,1.5714285714285714,1.5,0.6,1.75,3.1666666666666665,1.875,2.5555555555555554,2.2222222222222223,1.75,3.3333333333333335,1.5,2.5,2.75,2.0,0.9178571428571428,0.9285714285714286,0.4427214789106266,-0.3045271275083468,,,,,,,,,,,,,,,,,,,0.02191494957204497,0.018573718088220937,0.01412318585836616,-0.44942103778565595,,,,,,,,,,
30,240620_152904,FalseCHOICE,9.0,31,2.0,303.0,,,,,,,,,,,32.0,31.0,,,A,,,,,,False,cue2.png,Hard,cue1.png,Easy,Right,Easy,Mid,0.0168053999077528,,,,,,,,,,,,,21,22,Female,1.5714285714285714,1.5,0.6,1.75,3.1666666666666665,1.875,2.5555555555555554,2.2222222222222223,1.75,3.3333333333333335,1.5,2.5,2.75,2.0,0.9178571428571428,0.9285714285714286,0.4549951631649348,-0.0371250523519757,,,,,,,,,,,,,,,,,,,0.02999260934054013,0.42402622237282395,0.01676201606179938,-0.38299487361030277,3.782753203912328e+44,-0.17150112995657368,,,,,,,,
31,240620_152930,FalseCHOICE,9.0,32,2.0,303.0,,,,,,,,,,,33.0,32.0,,,A,,,,,,False,cue1.png,Easy,cue2.png,Hard,Left,Easy,Mid,0.0160090000135824,,,,,,,,,,,,,21,22,Female,1.5714285714285714,1.5,0.6,1.75,3.1666666666666665,1.875,2.5555555555555554,2.2222222222222223,1.75,3.3333333333333335,1.5,2.5,2.75,2.0,0.8071428571428572,0.8571428571428572,0.400835436830101,-1.2170823424176855,,,,,,,,,,,,,,,,,,,,,,,2.701287773997146e+44,-0.1715098929508104,,,,,,,,
32,240620_152956,FalseCHOICE,9.0,33,2.0,303.0,,,,,,,,,,,34.0,33.0,,,A,,,,,,False,cue2.png,Hard,cue1.png,Easy,Right,Easy,Mid,0.0163010000251233,,,,,,,,,,,,,21,22,Female,1.5714285714285714,1.5,0.6,1.75,3.1666666666666665,1.875,2.5555555555555554,2.2222222222222223,1.75,3.3333333333333335,1.5,2.5,2.75,2.0,0.9583333333333334,0.9473684210526316,0.4317693833533364,-0.5431362540468817,,,,,,,,,,,,,,,,,,,0.005359944858771946,-0.8123932094394068,0.007496806280875212,-0.6162241072404278,8.921625318225849e+43,-0.17152455209166886,,,,,,,,
33,240620_153023,FalseCHOICE,9.0,34,2.0,303.0,,,,,,,,,,,35.0,34.0,,,A,,,,,,False,cue2.png,Hard,cue1.png,Easy,Right,Easy,Mid,0.016877599991858,,,,,,,,,,,,,21,22,Female,1.5714285714285714,1.5,0.6,1.75,3.1666666666666665,1.875,2.5555555555555554,2.2222222222222223,1.75,3.3333333333333335,1.5,2.5,2.75,2.0,1.0,1.0,0.4256359157765186,-0.6767637715846336,,,,,,,,,,,,,,,,,,,0.045707179625388304,1.2128081293056396,0.010441475278766696,-0.542099191570778,-9.707237736703245e+43,-0.171539646852451,,,,,,,,
34,240620_153050,FalseCHOICE,9.0,35,2.0,303.0,,,,,,,,,,,36.0,35.0,,,A,,,,,,False,cue2.png,Hard,cue1.png,Easy,Right,Easy,Mid,0.0164616000838577,,,,,,,,,,,,,21,22,Female,1.5714285714285714,1.5,0.6,1.75,3.1666666666666665,1.875,2.5555555555555554,2.2222222222222223,1.75,3.3333333333333335,1.5,2.5,2.75,2.0,1.0,1.0,0.4339187263241528,-0.4963093389404975,,,,,,,,,,,,,,,,,,,0.007968997649886242,-0.6814336223453967,0.011724424378291373,-0.5098040528374213,-2.7154078971847166e+44,-0.17155378383408382,,,,,,,,
35,240620_153117,FalseCHOICE,9.0,36,2.0,303.0,,,,,,,,,,,37.0,36.0,,,A,,,,,,False,cue1.png,Easy,cue2.png,Hard,Left,Easy,Mid,0.0177573000546544,,,,,,,,,,,,,21,22,Female,1.5714285714285714,1.5,0.6,1.75,3.1666666666666665,1.875,2.5555555555555554,2.2222222222222223,1.75,3.3333333333333335,1.5,2.5,2.75,2.0,1.0,1.0,0.4571513684135617,0.009851368582390153,,,,,,,,,,,,,,,,,,,0.005789941973115914,-0.7908098038686627,,,-3.667146906490553e+44,-0.17156149566954587,,,,,,,,
36,240620_153143,FalseCHOICE,9.0,37,2.0,303.0,,,,,,,,,,,38.0,37.0,,,A,,,,,,False,cue2.png,Hard,cue1.png,Easy,Right,Easy,Mid,0.0165493000531569,,,,,,,,,,,,,21,22,Female,1.5714285714285714,1.5,0.6,1.75,3.1666666666666665,1.875,2.5555555555555554,2.2222222222222223,1.75,3.3333333333333335,1.5,2.5,2.75,2.0,0.8071428571428572,0.8571428571428572,0.4245447736833931,-0.7005360679829059,,,,,,,,,,,,,,,,,,,0.024382817224872948,0.14244661553119872,,,-3.317996411214116e+44,-0.1715586665418704,,,,,,,,
37,240620_153211,FalseCHOICE,9.0,38,2.0,303.0,,,,,,,,,,,39.0,38.0,,,A,,,,,,False,cue1.png,Easy,cue2.png,Hard,Right,Hard,Mid,0.0162175999721512,,,,,,,,,,,,,21,22,Female,1.5714285714285714,1.5,0.6,1.75,3.1666666666666665,1.875,2.5555555555555554,2.2222222222222223,1.75,3.3333333333333335,1.5,2.5,2.75,2.0,0.9178571428571428,0.9285714285714286,0.4645572894890057,0.1712013449208233,,,,,,,,,,,,,,,,,,,0.06281519564612116,2.071533074122112,0.15253632853967547,3.0347948575050525,-1.9893635341393907e+44,-0.17154790077726761,,,,,,,,
38,240620_153237,FalseCHOICE,9.0,39,2.0,303.0,,,,,,,,,,,40.0,39.0,,,A,,,,,,False,cue1.png,Easy,cue2.png,Hard,Left,Easy,Mid,0.0160829999949783,,,,,,,,,,,,,21,22,Female,1.5714285714285714,1.5,0.6,1.75,3.1666666666666665,1.875,2.5555555555555554,2.2222222222222223,1.75,3.3333333333333335,1.5,2.5,2.75,2.0,0.0535714285714285,0.7142857142857143,0.399473531600578,-1.246753651944238,,,,,,,,,,,,,,,,,,,0.012089307202896261,-0.4746175549973521,0.09773914310715853,1.655408328143707,-2.1878217291299583e+43,-0.17153355395319458,,,,,,,,
39,240620_153304,FalseCHOICE,9.0,40,2.0,303.0,,,,,,,,,,,41.0,40.0,,,A,,,,,,False,cue2.png,Hard,cue1.png,Easy,Right,Easy,Mid,0.0167820999631658,,,,,,,,,,,,,21,22,Female,1.5714285714285714,1.5,0.6,1.75,3.1666666666666665,1.875,2.5555555555555554,2.2222222222222223,1.75,3.3333333333333335,1.5,2.5,2.75,2.0,1.0,1.0,0.4487344368275157,-0.1735251079444422,,,,,,,,,,,,,,,,,,,0.009207329339545671,-0.6192764259423429,0.014629657929657865,-0.4366718290968653,1.9745318031652652e+44,-0.17151578177370547,,,,,,,,
40,240620_153332,FalseCHOICE,9.0,41,2.0,303.0,,,,,,,,,,,42.0,41.0,,,A,,,,,,False,cue2.png,Hard,cue1.png,Easy,Right,Easy,Mid,0.0140775000909343,,,,,,,,,,,,,21,22,Female,1.5714285714285714,1.5,0.6,1.75,3.1666666666666665,1.875,2.5555555555555554,2.2222222222222223,1.75,3.3333333333333335,1.5,2.5,2.75,2.0,1.0,0.9473684210526316,0.4391392166596941,-0.38257250816228083,,,,,,,,,,,,,,,,,,,0.027643198453720205,0.30609917976947965,0.010419345752913124,-0.5426562488287855,3.2248044142860214e+44,-0.17150565095363254,,,,,,,,
41,240620_153359,FalseCHOICE,9.0,42,2.0,303.0,,,,,,,,,,,43.0,42.0,,,A,,,,,,False,cue1.png,Easy,cue2.png,Hard,Left,Easy,Mid,0.016438000020571,,,,,,,,,,,,,21,22,Female,1.5714285714285714,1.5,0.6,1.75,3.1666666666666665,1.875,2.5555555555555554,2.2222222222222223,1.75,3.3333333333333335,1.5,2.5,2.75,2.0,1.0,1.0,0.443708710525626,-0.28301868904430894,,,,,,,,,,,,,,,,,,,0.015272956144376309,-0.31481651446323394,0.008291033643599658,-0.5962313554823753,,,,,,,,,,
42,240620_153425,FalseCHOICE,9.0,43,2.0,303.0,,,,,,,,,,,44.0,43.0,,,A,,,,,,False,cue2.png,Hard,cue1.png,Easy,Right,Easy,Mid,0.0140668000094592,,,,,,,,,,,,,21,22,Female,1.5714285714285714,1.5,0.6,1.75,3.1666666666666665,1.875,2.5555555555555554,2.2222222222222223,1.75,3.3333333333333335,1.5,2.5,2.75,2.0,1.0,1.0,0.4034996999942354,-1.159037057555306,,,,,,,,,,,,,,,,,,,0.006572355596509543,-0.7515370971586552,0.007610370177485136,-0.6133654109776713,2.5615338121171868e+44,-0.171511025361638,,,,,,,,
43,240620_153451,FalseCHOICE,9.0,44,2.0,303.0,,,,,,,,,,,45.0,44.0,,,A,,,,,,False,cue1.png,Easy,cue2.png,Hard,Left,Easy,Mid,0.0160395000129938,,,,,,,,,,,,,21,22,Female,1.5714285714285714,1.5,0.6,1.75,3.1666666666666665,1.875,2.5555555555555554,2.2222222222222223,1.75,3.3333333333333335,1.5,2.5,2.75,2.0,1.0,1.0,0.4203876368456373,-0.7911060218852725,,,,,,,,,,,,,,,,,,,0.015869243442292996,-0.2848862889842695,0.011419148020812807,-0.5174886463419,3.7489524314185726e+43,-0.17152874345104493,,,,,,,,
44,240620_153517,FalseCHOICE,9.0,45,2.0,303.0,,,,,,,,,,,46.0,45.0,,,A,,,,,,False,cue2.png,Hard,cue1.png,Easy,Right,Easy,Mid,0.017557100043632,,,,,,,,,,,,,21,22,Female,1.5714285714285714,1.5,0.6,1.75,3.1666666666666665,1.875,2.5555555555555554,2.2222222222222223,1.75,3.3333333333333335,1.5,2.5,2.75,2.0,1.0,1.0,0.4101692842148048,-1.013729371284623,,,,,,,,,,,,,,,,,,,,,,,-2.318226709011692e+44,-0.1715505655190396,,,,,,,,
45,240620_153543,FalseCHOICE,9.0,46,2.0,303.0,,,,,,,,,,,47.0,46.0,,,A,,,,,,False,cue2.png,Hard,cue1.png,Easy,Right,Easy,Mid,0.0167952999472618,,,,,,,,,,,,,21,22,Female,1.5714285714285714,1.5,0.6,1.75,3.1666666666666665,1.875,2.5555555555555554,2.2222222222222223,1.75,3.3333333333333335,1.5,2.5,2.75,2.0,1.0,1.0,0.4113244894634638,-0.9885613553635263,,,,,,,,,,,,,,,,,,,0.007198712102818028,-0.720097568714015,,,-3.945258851305068e+44,-0.1715637491797388,,,,,,,,
46,240620_153610,FalseCHOICE,9.0,47,2.0,303.0,,,,,,,,,,,48.0,47.0,,,A,,,,,,False,cue1.png,Easy,cue2.png,Hard,Left,Easy,Mid,0.0175753999501466,,,,,,,,,,,,,21,22,Female,1.5714285714285714,1.5,0.6,1.75,3.1666666666666665,1.875,2.5555555555555554,2.2222222222222223,1.75,3.3333333333333335,1.5,2.5,2.75,2.0,1.0,1.0,0.4368646473770863,-0.4321276811367495,,,,,,,,,,,,,,,,,,,0.006410960853873344,-0.7596381938197748,,,-2.6135085097117046e+44,-0.1715529581546673,,,,,,,,
47,240620_153636,FalseCHOICE,9.0,48,2.0,303.0,,,,,,,,,,,49.0,48.0,,,A,,,,,,False,cue1.png,Easy,cue2.png,Hard,Left,Easy,Mid,0.0159269999712705,,,,,,,,,,,,,21,22,Female,1.5714285714285714,1.5,0.6,1.75,3.1666666666666665,1.875,2.5555555555555554,2.2222222222222223,1.75,3.3333333333333335,1.5,2.5,2.75,2.0,1.0,1.0,0.4059384684139666,-1.1059045406394474,,,,,,,,,,,,,,,,,,,0.06973315417545047,2.4187751826834805,,,1.6264866111841422e+44,-0.17151860194523116,,,,,,,,
48,240620_153703,FalseCHOICE,9.0,49,2.0,303.0,,,,,,,,,,,50.0,49.0,,,A,,,,,,False,cue2.png,Hard,cue1.png,Easy,Right,Easy,Mid,0.0169324000598862,,,,,,,,,,,,,21,22,Female,1.5714285714285714,1.5,0.6,1.75,3.1666666666666665,1.875,2.5555555555555554,2.2222222222222223,1.75,3.3333333333333335,1.5,2.5,2.75,2.0,0.95,0.9473684210526316,0.4339393666596152,-0.49585965582822167,,,,,,,,,,,,,,,,,,,,,0.006248455340622237,-0.6476483210446409,4.93554856942965e+44,-0.17149178898379294,,,,,,,,
49,240620_153729,FalseCHOICE,9.0,50,2.0,303.0,,,,,,,,,,,51.0,50.0,,,A,,,,,,False,cue1.png,Easy,cue2.png,Hard,Left,Easy,Mid,0.0171204999787732,,,,,,,,,,,,,21,22,Female,1.5714285714285714,1.5,0.6,1.75,3.1666666666666665,1.875,2.5555555555555554,2.2222222222222223,1.75,3.3333333333333335,1.5,2.5,2.75,2.0,0.9178571428571428,0.9285714285714286,0.3858158315691214,-1.5443087506907933,,,,,,,,,,,,,,,,,,,0.006268146046743964,-0.7668066835629764,,,-1.6435533578420023e+44,-0.17154509871582574,,,,,,,,
0,240620_144328,OFFLINERATING,9.0,1,1.0,,,,,,,,,,,,,,,,,T0,cue1.png,Easy,56.0,1.824762100004591,,,,,,,,,,,,,,,,,,,,,,21,22,Female,1.5714285714285714,1.5,0.6,1.75,3.1666666666666665,1.875,2.5555555555555554,2.2222222222222223,1.75,3.3333333333333335,1.5,2.5,2.75,2.0,,,,,,,,,,,,,,,,,,,,,,,,,,,,,1.2001856468793275,,,0.015324138991336517,1.2546316889120024,295757743.47165865,0.9999999999999998,
1,240620_144336,OFFLINERATING,9.0,2,3.0,,,,,,,,,,,,,,,,,T0,cue2.png,Hard,32.0,1.5856823000358418,,,,,,,,,,,,,,,,,,,,,,21,22,Female,1.5714285714285714,1.5,0.6,1.75,3.1666666666666665,1.875,2.5555555555555554,2.2222222222222223,1.75,3.3333333333333335,1.5,2.5,2.75,2.0,,,,,,,,,,,,,,,,,,,,,,,,,,,,,-1.6100051360576346,,,0.01170030203655465,-1.3842015096189784,3259975.546079496,-1.0,
2,240620_150832,OFFLINERATING,9.0,3,1.0,,,,,,,,,,,,,,,,,T1,cue1.png,Easy,59.0,1.7062483000336215,,,,,,,,,,,,,,,,,,,,,,21,22,Female,1.5714285714285714,1.5,0.6,1.75,3.1666666666666665,1.875,2.5555555555555554,2.2222222222222223,1.75,3.3333333333333335,1.5,2.5,2.75,2.0,,,,,,,,,,,,,,,,,,,,,,,,,,,,,1.5514594947464477,0.006235100777718315,0.0012382308258702213,0.014377814652978688,0.5655300235235217,,,
3,240620_150839,OFFLINERATING,9.0,4,3.0,,,,,,,,,,,,,,,,,T1,cue2.png,Hard,44.0,1.185324600082822,,,,,,,,,,,,,,,,,,,,,,21,22,Female,1.5714285714285714,1.5,0.6,1.75,3.1666666666666665,1.875,2.5555555555555554,2.2222222222222223,1.75,3.3333333333333335,1.5,2.5,2.75,2.0,,,,,,,,,,,,,,,,,,,,,,,,,,,,,-0.20490974458915348,0.004880862706028824,-1.4328138369117998,0.013002495707437013,-0.43596020281654563,,,
4,240620_151351,OFFLINERATING,9.0,5,1.0,,,,,,,,,,,,,,,,,T2,cue1.png,Easy,51.0,1.1535766999004409,,,,,,,,,,,,,,,,,,,,,,21,22,Female,1.5714285714285714,1.5,0.6,1.75,3.1666666666666665,1.875,2.5555555555555554,2.2222222222222223,1.75,3.3333333333333335,1.5,2.5,2.75,2.0,,,,,,,,,,,,,,,,,,,,,,,,,,,,,0.6147292337674605,,,,,,,
5,240620_151358,OFFLINERATING,9.0,6,3.0,,,,,,,,,,,,,,,,,T2,cue2.png,Hard,45.0,1.035115200094879,,,,,,,,,,,,,,,,,,,,,,21,22,Female,1.5714285714285714,1.5,0.6,1.75,3.1666666666666665,1.875,2.5555555555555554,2.2222222222222223,1.75,3.3333333333333335,1.5,2.5,2.75,2.0,,,,,,,,,,,,,,,,,,,,,,,,,,,,,-0.08781846196678006,,,,,,,
6,240620_153746,OFFLINERATING,9.0,7,1.0,,,,,,,,,,,,,,,,,T3,cue1.png,Easy,41.0,1.769847400020808,,,,,,,,,,,,,,,,,,,,,,21,22,Female,1.5714285714285714,1.5,0.6,1.75,3.1666666666666665,1.875,2.5555555555555554,2.2222222222222223,1.75,3.3333333333333335,1.5,2.5,2.75,2.0,,,,,,,,,,,,,,,,,,,,,,,,,,,,,-0.5561835924562738,0.006268582574346591,0.03669332597502003,,,,,
7,240620_153755,OFFLINERATING,9.0,8,3.0,,,,,,,,,,,,,,,,,T3,cue2.png,Hard,38.0,2.5305674000410363,,,,,,,,,,,,,,,,,,,,,,21,22,Female,1.5714285714285714,1.5,0.6,1.75,3.1666666666666665,1.875,2.5555555555555554,2.2222222222222223,1.75,3.3333333333333335,1.5,2.5,2.75,2.0,,,,,,,,,,,,,,,,,,,,,,,,,,,,,-0.907457440323394,0.007551179790736793,1.3948822801109058,,,,,
0,240620_151413,LEARNINGCHECK,9.0,1,,,,,,,,,,,,1.0,1.0,1.0,,,A,,,,,,,,,,,,,,,cue1.png,Easy,Left,Left,Easy,0.0122071000514552,1.0,,,,,,21,22,Female,1.5714285714285714,1.5,0.6,1.75,3.1666666666666665,1.875,2.5555555555555554,2.2222222222222223,1.75,3.3333333333333335,1.5,2.5,2.75,2.0,,,,,,,,,,,,,,,,,,,,,,,,,,,,,,,,,,,,
1,240620_151419,LEARNINGCHECK,9.0,2,,,,,,,,,,,,2.0,2.0,2.0,,,A,,,,,,,,,,,,,,,cue2.png,Hard,Right,Right,Hard,0.0139979999512434,1.0,,,,,,21,22,Female,1.5714285714285714,1.5,0.6,1.75,3.1666666666666665,1.875,2.5555555555555554,2.2222222222222223,1.75,3.3333333333333335,1.5,2.5,2.75,2.0,,,,,,,,,,,,,,,,,,,,,,,,,,,,,,,,,,,,
2,240620_153811,LEARNINGCHECK,9.0,1,,,,,,,,,,,,1.0,1.0,1.0,,,A,,,,,,,,,,,,,,,cue1.png,Easy,Middle,Middle,Mid,0.0156253000022843,1.0,,,,,,21,22,Female,1.5714285714285714,1.5,0.6,1.75,3.1666666666666665,1.875,2.5555555555555554,2.2222222222222223,1.75,3.3333333333333335,1.5,2.5,2.75,2.0,,,,,,,,,,,,,,,,,,,,,,,,,,,,,,,,,,,,
3,240620_153817,LEARNINGCHECK,9.0,2,,,,,,,,,,,,2.0,2.0,2.0,,,A,,,,,,,,,,,,,,,cue2.png,Hard,Middle,Middle,Mid,0.0137967999326065,1.0,,,,,,21,22,Female,1.5714285714285714,1.5,0.6,1.75,3.1666666666666665,1.875,2.5555555555555554,2.2222222222222223,1.75,3.3333333333333335,1.5,2.5,2.75,2.0,,,,,,,,,,,,,,,,,,,,,,,,,,,,,,,,,,,,
0,240620_153831,DEMANDRATING,9.0,-1,,,,,,,,,,,,,,,,,,,,,,,,,,,,,,,,,,,,,,,1.0,MentalDemand,1.0,8.0,4.48519309994299,21,22,Female,1.5714285714285714,1.5,0.6,1.75,3.1666666666666665,1.875,2.5555555555555554,2.2222222222222223,1.75,3.3333333333333335,1.5,2.5,2.75,2.0,,,,,,,,,,,,,,,,,,,,,,,,,,,,,,,,,,,,-1.2264577920527744
1,240620_153836,DEMANDRATING,9.0,-1,,,,,,,,,,,,,,,,,,,,,,,,,,,,,,,,,,,,,,,2.0,Effort,1.0,2.0,3.966562599991448,21,22,Female,1.5714285714285714,1.5,0.6,1.75,3.1666666666666665,1.875,2.5555555555555554,2.2222222222222223,1.75,3.3333333333333335,1.5,2.5,2.75,2.0,,,,,,,,,,,,,,,,,,,,,,,,,,,,,,,,,,,,-1.4532684796241777
2,240620_153843,DEMANDRATING,9.0,-1,,,,,,,,,,,,,,,,,,,,,,,,,,,,,,,,,,,,,,,3.0,Frustration,1.0,12.0,5.229471900034696,21,22,Female,1.5714285714285714,1.5,0.6,1.75,3.1666666666666665,1.875,2.5555555555555554,2.2222222222222223,1.75,3.3333333333333335,1.5,2.5,2.75,2.0,,,,,,,,,,,,,,,,,,,,,,,,,,,,,,,,,,,,-1.075250667005172
3,240620_153849,DEMANDRATING,9.0,-1,,,,,,,,,,,,,,,,,,,,,,,,,,,,,,,,,,,,,,,4.0,MentalDemand,2.0,41.0,4.858737699920312,21,22,Female,1.5714285714285714,1.5,0.6,1.75,3.1666666666666665,1.875,2.5555555555555554,2.2222222222222223,1.75,3.3333333333333335,1.5,2.5,2.75,2.0,,,,,,,,,,,,,,,,,,,,,,,,,,,,,,,,,,,,0.021000989589944827
4,240620_153853,DEMANDRATING,9.0,-1,,,,,,,,,,,,,,,,,,,,,,,,,,,,,,,,,,,,,,,5.0,Effort,2.0,52.0,2.1391095999861136,21,22,Female,1.5714285714285714,1.5,0.6,1.75,3.1666666666666665,1.875,2.5555555555555554,2.2222222222222223,1.75,3.3333333333333335,1.5,2.5,2.75,2.0,,,,,,,,,,,,,,,,,,,,,,,,,,,,,,,,,,,,0.4368205834708512
5,240620_153900,DEMANDRATING,9.0,-1,,,,,,,,,,,,,,,,,,,,,,,,,,,,,,,,,,,,,,,6.0,Frustration,2.0,37.0,5.664530000067316,21,22,Female,1.5714285714285714,1.5,0.6,1.75,3.1666666666666665,1.875,2.5555555555555554,2.2222222222222223,1.75,3.3333333333333335,1.5,2.5,2.75,2.0,,,,,,,,,,,,,,,,,,,,,,,,,,,,,,,,,,,,-0.1302061354576575
6,240620_153906,DEMANDRATING,9.0,-1,,,,,,,,,,,,,,,,,,,,,,,,,,,,,,,,,,,,,,,7.0,MentalDemand,3.0,77.0,3.767162000061944,21,22,Female,1.5714285714285714,1.5,0.6,1.75,3.1666666666666665,1.875,2.5555555555555554,2.2222222222222223,1.75,3.3333333333333335,1.5,2.5,2.75,2.0,,,,,,,,,,,,,,,,,,,,,,,,,,,,,,,,,,,,1.3818651150183656
7,240620_153910,DEMANDRATING,9.0,-1,,,,,,,,,,,,,,,,,,,,,,,,,,,,,,,,,,,,,,,8.0,Effort,3.0,70.0,2.8202211000025272,21,22,Female,1.5714285714285714,1.5,0.6,1.75,3.1666666666666665,1.875,2.5555555555555554,2.2222222222222223,1.75,3.3333333333333335,1.5,2.5,2.75,2.0,,,,,,,,,,,,,,,,,,,,,,,,,,,,,,,,,,,,1.1172526461850616
8,240620_153914,DEMANDRATING,9.0,-1,,,,,,,,,,,,,,,,,,,,,,,,,,,,,,,,,,,,,,,9.0,Frustration,3.0,65.0,2.1666631000116467,21,22,Female,1.5714285714285714,1.5,0.6,1.75,3.1666666666666665,1.875,2.5555555555555554,2.2222222222222223,1.75,3.3333333333333335,1.5,2.5,2.75,2.0,,,,,,,,,,,,,,,,,,,,,,,,,,,,,,,,,,,,0.9282437398755587
