,END,Phase,Block,TrialN,NbackLevel,ISI,Letter_Resp,Letter_RT,Letter_Accuracy,Trial_A_measure,Trial_ACC,Trial_RT,TrialCountCali,CaliEnd_A_measure,ISI_calibrated,TrialIndex,TrialNumber_total,TrialNumber_valid,CueLearning,TrialDemandLearning,CueMapping,OfflineRatingTimePoint,CueFigure,TrialDemand,OfflineRating,OfflineRatingRT,PhaseType,CueLeft,CueDemandLeft,CueRight,CueDemandRight,Choice,ChoiceDemand,TaskDemand,ChoiceRT,CueCheck,CueDemandCheck,CorrectAnswer,Answer,AnswerDemand,AnswerRT,AnswerACC,DemandRatingQuesIndex,QuesTLX,DemandLevel,DemandRating,DemandRatingRT,PID,Age,Gender,BAI_bis,BAI_bas_d,BAI_bas_rr,BAI_bas_fs,NFC,BFI_ext,BFI_agr,BFI_con,BFI_neu,BFI_open,UPPS_lps,UPPS_lpm,UPPS_pu,UPPS_ss,Task_A_measure,Task_ACC,Task_RT,Task_RT_z,cue_i_on_zyg_values,cue_i_on_zyg_zvalues,cue_e_on_zyg_values,cue_e_on_zyg_zvalues,cue_i_on_cor_values,cue_i_on_cor_zvalues,cue_e_on_cor_values,cue_e_on_cor_zvalues,cue_i_on_scr_values,cue_i_on_scr_zvalues,cue_e_on_scr_values,cue_e_on_scr_zvalues,cue_e_true_zyg_values,cue_e_true_zyg_zvalues,cue_e_true_cor_values,cue_e_true_cor_zvalues,cue_e_true_scr_values,cue_e_true_scr_zvalues,cue_e_false_zyg_values,cue_e_false_zyg_zvalues,cue_e_false_cor_values,cue_e_false_cor_zvalues,cue_e_false_scr_values,cue_e_false_scr_zvalues,OfflineRating_z,cue_i_off_zyg_values,cue_i_off_zyg_zvalues,cue_i_off_cor_values,cue_i_off_cor_zvalues,cue_i_off_scr_values,cue_i_off_scr_zvalues,DemandRating_z
0,240620_144113,PRACTICE,0.0,1,1.0,303.0,,,,,,,,,,21.0,1.0,1.0,cue1.png,Easy,A,,,,,,,,,,,,,,,,,,,,,,,,,,,21,22,Female,1.5714285714285714,1.5,0.6,1.75,3.1666666666666665,1.875,2.5555555555555554,2.2222222222222223,1.75,3.3333333333333335,1.5,2.5,2.75,2.0,,,,,,,,,,,,,,,,,,,,,,,,,,,,,,,,,,,,
0,240620_144419,LEARNING,1.0,1,1.0,303.0,,,,,,,,,,1.0,1.0,1.0,cue1.png,Easy,A,,,,,,,,,,,,,,,,,,,,,,,,,,,21,22,Female,1.5714285714285714,1.5,0.6,1.75,3.1666666666666665,1.875,2.5555555555555554,2.2222222222222223,1.75,3.3333333333333335,1.5,2.5,2.75,2.0,1.0,1.0,0.4667652473405101,0.0004841695578601772,-7.393737972833563e-05,-0.6694323585012488,,,,,,,1.2659999999999998,-0.1494412447966136,1.2359999999999998,-0.6837616020201035,,,,,,,,,,,,,,,,,,,,
1,240620_144451,LEARNING,1.0,2,3.0,303.0,,,,,,,,,,2.0,2.0,2.0,cue2.png,Hard,A,,,,,,,,,,,,,,,,,,,,,,,,,,,21,22,Female,1.5714285714285714,1.5,0.6,1.75,3.1666666666666665,1.875,2.5555555555555554,2.2222222222222223,1.75,3.3333333333333335,1.5,2.5,2.75,2.0,0.8535714285714285,0.7180451127819549,0.6060231466932843,2.073347989180166,9.370931148214041e-05,-0.03892222600439379,2.861480870597951e-06,-0.226133442753546,,,0.00019187008612390772,0.08759161904939751,1.155,-0.363049012006903,1.96,0.5228438411113782,,,,,,,,,,,,,,,,,,,,
2,240620_144520,LEARNING,1.0,3,1.0,303.0,,,,,,,,,,3.0,3.0,3.0,cue1.png,Easy,A,,,,,,,,,,,,,,,,,,,,,,,,,,,21,22,Female,1.5714285714285714,1.5,0.6,1.75,3.1666666666666665,1.875,2.5555555555555554,2.2222222222222223,1.75,3.3333333333333335,1.5,2.5,2.75,2.0,1.0,0.9473684210526316,0.4476860777617225,-0.28351063800505877,0.0009180030352320245,3.0612018577173874,-0.00011373562348380821,-0.48307692138377806,0.0010833539424774021,1.6549695176865402,-6.576021331358445e-05,-0.1548067623134828,,,1.5950000000000002,-0.0854586267656804,,,,,,,,,,,,,,,,,,,,
3,240620_144552,LEARNING,1.0,4,3.0,303.0,,,,,,,,,,4.0,4.0,4.0,cue2.png,Hard,A,,,,,,,,,,,,,,,,,,,,,,,,,,,21,22,Female,1.5714285714285714,1.5,0.6,1.75,3.1666666666666665,1.875,2.5555555555555554,2.2222222222222223,1.75,3.3333333333333335,1.5,2.5,2.75,2.0,1.0,0.9473684210526316,0.5878475388809521,1.8028027633155523,5.519165710150733e-06,-0.37060059134596696,-4.695464781046465e-05,-0.33591257891714316,0.0002082241600406048,0.0522683724592762,,,1.593,0.47983569103910534,1.588,-0.09712470149208996,,,,,,,,,,,,,,,,,,,,
4,240620_144623,LEARNING,1.0,5,3.0,303.0,,,,,,,,,,5.0,5.0,5.0,cue2.png,Hard,A,,,,,,,,,,,,,,,,,,,,,,,,,,,21,22,Female,1.5714285714285714,1.5,0.6,1.75,3.1666666666666665,1.875,2.5555555555555554,2.2222222222222223,1.75,3.3333333333333335,1.5,2.5,2.75,2.0,1.0,1.0,0.54480002630551,1.1620374512069402,-0.00013352404998084183,-0.8935346004523645,2.8766996260552735e-05,-0.1690458051414507,-0.00010409587546107452,-0.5197104227111553,0.00016871758714110535,0.0658079690276784,,,1.4619999999999997,-0.3071140465674588,,,,,,,,,,,,,,,,,,,,
5,240620_144653,LEARNING,1.0,6,1.0,303.0,,,,,,,,,,6.0,6.0,6.0,cue1.png,Easy,A,,,,,,,,,,,,,,,,,,,,,,,,,,,21,22,Female,1.5714285714285714,1.5,0.6,1.75,3.1666666666666665,1.875,2.5555555555555554,2.2222222222222223,1.75,3.3333333333333335,1.5,2.5,2.75,2.0,0.9262820512820512,0.9230769230769232,0.5015307631417129,0.5179713656864232,0.0008410094954587042,2.771633321569359,-0.0009056107422480662,-2.228121524185937,0.0012886433001401644,2.030933740630627,-0.002018205146962644,-1.9918169767565075,0.08299999999999996,-2.4259997007405127,1.737,0.15119603197005194,,,,,,,,,,,,,,,,,,,,
6,240620_144726,LEARNING,1.0,7,3.0,303.0,,,,,,,,,,7.0,7.0,7.0,cue2.png,Hard,A,,,,,,,,,,,,,,,,,,,,,,,,,,,21,22,Female,1.5714285714285714,1.5,0.6,1.75,3.1666666666666665,1.875,2.5555555555555554,2.2222222222222223,1.75,3.3333333333333335,1.5,2.5,2.75,2.0,0.7596153846153846,0.6356275303643725,0.6282422000076622,2.4040801913438594,,,-2.408803480630651e-05,-0.28552172982777924,6.839596838988625e-05,-0.2038111341364771,0.001968998586701837,1.7596506623935957,,,,,,,,,,,,,,,,,,,,,,,,
7,240620_144757,LEARNING,1.0,8,3.0,303.0,,,,,,,,,,8.0,8.0,8.0,cue2.png,Hard,A,,,,,,,,,,,,,,,,,,,,,,,,,,,21,22,Female,1.5714285714285714,1.5,0.6,1.75,3.1666666666666665,1.875,2.5555555555555554,2.2222222222222223,1.75,3.3333333333333335,1.5,2.5,2.75,2.0,0.8071428571428572,0.7518796992481204,0.5857268823447692,1.7712366386782465,-9.011977759381881e-06,-0.42525143550013594,6.34058905428763e-05,-0.0927125373293094,-0.0001750148636292326,-0.6495905225964252,5.1325981442277777e-05,-0.04464307368397025,,,2.992,2.242756572204871,,,,,,,,,,,,,,,,,,,,
8,240620_144827,LEARNING,1.0,9,1.0,303.0,,,,,,,,,,9.0,9.0,9.0,cue1.png,Easy,A,,,,,,,,,,,,,,,,,,,,,,,,,,,21,22,Female,1.5714285714285714,1.5,0.6,1.75,3.1666666666666665,1.875,2.5555555555555554,2.2222222222222223,1.75,3.3333333333333335,1.5,2.5,2.75,2.0,1.0,1.0,0.4749246421086259,0.12193734588358651,-0.00015141608780004819,-0.9608255863619128,-2.7373042893436873e-05,-0.29276085819129444,0.0001482815181692871,-0.05750979153784147,-3.884316567183063e-06,-0.09658916426910578,,,2.752,1.8427768672994072,,,,,,,,,,,,,,,,,,,,
9,240620_144855,LEARNING,1.0,10,1.0,303.0,,,,,,,,,,10.0,10.0,10.0,cue1.png,Easy,A,,,,,,,,,,,,,,,,,,,,,,,,,,,21,22,Female,1.5714285714285714,1.5,0.6,1.75,3.1666666666666665,1.875,2.5555555555555554,2.2222222222222223,1.75,3.3333333333333335,1.5,2.5,2.75,2.0,0.9178571428571428,0.9285714285714286,0.4330694999876677,-0.5010794464916858,-0.00010419712355700392,-0.783237617364254,3.18913885070239e-05,-0.16216062375672716,-0.00010492732459059084,-0.5212331276845406,0.0002471932458258585,0.13964389858683085,0.8339999999999999,-0.9807795820474712,,,,,,,,,,,,,,,,,,,,,,
10,240620_144927,LEARNING,1.0,11,3.0,303.0,,,,,,,,,,11.0,11.0,11.0,cue2.png,Hard,A,,,,,,,,,,,,,,,,,,,,,,,,,,,21,22,Female,1.5714285714285714,1.5,0.6,1.75,3.1666666666666665,1.875,2.5555555555555554,2.2222222222222223,1.75,3.3333333333333335,1.5,2.5,2.75,2.0,0.6625000000000001,0.7857142857142857,0.5830375105387678,1.7312051464606995,6.802209477172784e-06,-0.36577513317734317,0.0004367930511932831,0.7301157521431754,-0.00012158175372890562,-0.5517338296247252,0.0025034982733714833,2.262549037198785,0.32799999999999985,-1.954523097438522,,,,,,,,,,,,,,,,,,,,,,
11,240620_144955,LEARNING,1.0,12,1.0,303.0,,,,,,,,,,12.0,12.0,12.0,cue1.png,Easy,A,,,,,,,,,,,,,,,,,,,,,,,,,,,21,22,Female,1.5714285714285714,1.5,0.6,1.75,3.1666666666666665,1.875,2.5555555555555554,2.2222222222222223,1.75,3.3333333333333335,1.5,2.5,2.75,2.0,0.9178571428571428,0.9285714285714286,0.4257957736875764,-0.6093493841495825,-1.621807436368852e-05,-0.45235317483039356,0.0001640669772272011,0.1291129524080123,-0.00021327153113928025,-0.7196532790714744,-0.00041683635808774724,-0.485126175108424,,,,,,,,,,,,,,,,,,,,,,,,
12,240620_145024,LEARNING,1.0,13,1.0,303.0,,,,,,,,,,13.0,13.0,13.0,cue1.png,Easy,A,,,,,,,,,,,,,,,,,,,,,,,,,,,21,22,Female,1.5714285714285714,1.5,0.6,1.75,3.1666666666666665,1.875,2.5555555555555554,2.2222222222222223,1.75,3.3333333333333335,1.5,2.5,2.75,2.0,1.0,1.0,0.4482751157759738,-0.27474276491636146,8.049270412381366e-05,-0.08862917098784942,4.906433730472812e-06,-0.22162700750062597,-0.0006207103222556848,-1.4658313091620385,9.091900388331214e-05,-0.007390915945049178,,,0.5389999999999997,-1.8453693283497201,,,,,,,,,,,,,,,,,,,,
13,240620_145051,LEARNING,1.0,14,1.0,303.0,,,,,,,,,,14.0,14.0,14.0,cue1.png,Easy,A,,,,,,,,,,,,,,,,,,,,,,,,,,,21,22,Female,1.5714285714285714,1.5,0.6,1.75,3.1666666666666665,1.875,2.5555555555555554,2.2222222222222223,1.75,3.3333333333333335,1.5,2.5,2.75,2.0,0.9178571428571428,0.9285714285714286,0.390262526312941,-1.1382643198113895,,,1.8514796557404095e-05,-0.1916384404382234,6.47425597312028e-05,-0.21050193858487679,1.527228419957727e-05,-0.07856516232361932,,,1.52,-0.210452284548638,,,,,,,,,,,,,,,,,,,,
14,240620_145122,LEARNING,1.0,15,3.0,303.0,,,,,,,,,,15.0,15.0,15.0,cue2.png,Hard,A,,,,,,,,,,,,,,,,,,,,,,,,,,,21,22,Female,1.5714285714285714,1.5,0.6,1.75,3.1666666666666665,1.875,2.5555555555555554,2.2222222222222223,1.75,3.3333333333333335,1.5,2.5,2.75,2.0,0.8535714285714285,0.8759398496240602,0.5291573888777444,0.929195671184505,3.088454404217775e-05,-0.27520277622965034,,,-0.0004029761796196067,-1.0670758710986321,,,,,,,,,,,,,,,,,,,,,,,,,,
15,240620_145149,LEARNING,1.0,16,1.0,303.0,,,,,,,,,,16.0,16.0,16.0,cue1.png,Easy,A,,,,,,,,,,,,,,,,,,,,,,,,,,,21,22,Female,1.5714285714285714,1.5,0.6,1.75,3.1666666666666665,1.875,2.5555555555555554,2.2222222222222223,1.75,3.3333333333333335,1.5,2.5,2.75,2.0,1.0,1.0,0.402350394741485,-0.9583355312949885,,,-1.2658875383089394e-05,-0.2603354441452916,0.0001921383486467032,0.022809029559152944,0.0004937477384654512,0.3716213098776323,,,,,,,,,,,,,,,,,,,,,,,,
16,240620_145219,LEARNING,1.0,17,1.0,303.0,,,,,,,,,,17.0,17.0,17.0,cue1.png,Easy,A,,,,,,,,,,,,,,,,,,,,,,,,,,,21,22,Female,1.5714285714285714,1.5,0.6,1.75,3.1666666666666665,1.875,2.5555555555555554,2.2222222222222223,1.75,3.3333333333333335,1.5,2.5,2.75,2.0,1.0,1.0,0.4705402263207361,0.056675002424888425,0.00021757079778138896,0.42691412050452243,0.00015299542677878458,0.10471472483797446,-5.3765328345834786e-05,-0.42753572231769094,-0.0007199124931513224,-0.7702834905698877,,,,,,,,,,,,,,,,,,,,,,,,
17,240620_145249,LEARNING,1.0,18,3.0,303.0,,,,,,,,,,18.0,18.0,18.0,cue2.png,Hard,A,,,,,,,,,,,,,,,,,,,,,,,,,,,21,22,Female,1.5714285714285714,1.5,0.6,1.75,3.1666666666666665,1.875,2.5555555555555554,2.2222222222222223,1.75,3.3333333333333335,1.5,2.5,2.75,2.0,0.7019230769230769,0.7165991902834008,0.5005158722374795,0.5028646417876245,,,9.254316047552615e-05,-0.028503125476962637,-0.000632462109962058,-1.4873533782236434,,,,,,,,,,,,,,,,,,,,,,,,,,
18,240620_145319,LEARNING,1.0,19,3.0,303.0,,,,,,,,,,19.0,19.0,19.0,cue2.png,Hard,A,,,,,,,,,,,,,,,,,,,,,,,,,,,21,22,Female,1.5714285714285714,1.5,0.6,1.75,3.1666666666666665,1.875,2.5555555555555554,2.2222222222222223,1.75,3.3333333333333335,1.5,2.5,2.75,2.0,0.8071428571428572,0.7518796992481204,0.4952623882289866,0.42466615553455456,5.2361865897810386e-05,-0.1944277310969592,,,-0.0003214193767967057,-0.9177138177111075,,,,,,,,,,,,,,,,,,,,,,,,,,
19,240620_145350,LEARNING,1.0,20,3.0,303.0,,,,,,,,,,20.0,20.0,20.0,cue2.png,Hard,A,,,,,,,,,,,,,,,,,,,,,,,,,,,21,22,Female,1.5714285714285714,1.5,0.6,1.75,3.1666666666666665,1.875,2.5555555555555554,2.2222222222222223,1.75,3.3333333333333335,1.5,2.5,2.75,2.0,0.8071428571428572,0.8045112781954888,0.5620574333459243,1.4189151927270107,-6.842098480958547e-05,-0.6486854957626372,1.5326046324929538e-05,-0.19866544665550095,-1.7635837759272764e-05,-0.36136864961411447,8.589410100107598e-05,-0.012118730677319221,1.5540000000000003,0.4047843133706257,2.021,0.6245053494415167,,,,,,,,,,,,,,,,,,,,
20,240620_145419,LEARNING,1.0,21,1.0,303.0,,,,,,,,,,21.0,21.0,21.0,cue1.png,Easy,A,,,,,,,,,,,,,,,,,,,,,,,,,,,21,22,Female,1.5714285714285714,1.5,0.6,1.75,3.1666666666666665,1.875,2.5555555555555554,2.2222222222222223,1.75,3.3333333333333335,1.5,2.5,2.75,2.0,1.0,1.0,0.4488804894683294,-0.2657317340874653,,,,,0.0005274012398843826,0.6368050682297242,-0.00017304420430672499,-0.2557477844668056,1.606,0.504852816928599,0.7230000000000001,-1.538718221255531,,,,,,,,,,,,,,,,,,,,
21,240620_145448,LEARNING,1.0,22,3.0,303.0,,,,,,,,,,22.0,22.0,22.0,cue2.png,Hard,A,,,,,,,,,,,,,,,,,,,,,,,,,,,21,22,Female,1.5714285714285714,1.5,0.6,1.75,3.1666666666666665,1.875,2.5555555555555554,2.2222222222222223,1.75,3.3333333333333335,1.5,2.5,2.75,2.0,0.9178571428571428,0.9285714285714286,0.4802764894832906,0.20159997789687129,4.479722035939269e-05,-0.22287795356351178,3.076463802097716e-06,-0.22565968774417824,0.0004549826004766021,0.5041785268366681,-0.00038784812211545977,-0.45785181532391983,1.9609999999999999,1.1880127931416875,,,,,,,,,,,,,,,,,,,,,,
22,240620_145518,LEARNING,1.0,23,3.0,303.0,,,,,,,,,,23.0,23.0,23.0,cue2.png,Hard,A,,,,,,,,,,,,,,,,,,,,,,,,,,,21,22,Female,1.5714285714285714,1.5,0.6,1.75,3.1666666666666665,1.875,2.5555555555555554,2.2222222222222223,1.75,3.3333333333333335,1.5,2.5,2.75,2.0,0.6625000000000001,0.7857142857142857,0.4752231263433044,0.1263803051244503,,,,,,,-0.0003331122265772587,-0.4063520790356158,,,2.061,0.6911686335924273,,,,,,,,,,,,,,,,,,,,
23,240620_145548,LEARNING,1.0,24,3.0,303.0,,,,,,,,,,24.0,24.0,24.0,cue2.png,Hard,A,,,,,,,,,,,,,,,,,,,,,,,,,,,21,22,Female,1.5714285714285714,1.5,0.6,1.75,3.1666666666666665,1.875,2.5555555555555554,2.2222222222222223,1.75,3.3333333333333335,1.5,2.5,2.75,2.0,0.8071428571428572,0.8571428571428572,0.511368563153634,0.6644077244435824,3.3297815683752154e-05,-0.2661265921934879,0.0013660226288906853,2.7778465380977186,0.0001197747924182339,-0.10971663322556806,-1.0605437980987752e-05,-0.10291291172896126,2.484,2.194471011618999,1.0309999999999997,-1.0254109332935202,,,,,,,,,,,,,,,,,,,,
24,240620_145615,LEARNING,1.0,25,1.0,303.0,,,,,,,,,,25.0,25.0,25.0,cue1.png,Easy,A,,,,,,,,,,,,,,,,,,,,,,,,,,,21,22,Female,1.5714285714285714,1.5,0.6,1.75,3.1666666666666665,1.875,2.5555555555555554,2.2222222222222223,1.75,3.3333333333333335,1.5,2.5,2.75,2.0,1.0,1.0,0.3834529368353909,-1.2396255475772684,-4.628685741984908e-06,-0.4087661114492627,0.0001252608346247303,0.043596375236489286,,,-0.00016519430249668354,-0.24836199367757722,1.1340000000000003,-0.40346129228993016,1.5850000000000002,-0.10212444780340807,,,,,,,,,,,,,,,,,,,,
25,240620_145643,LEARNING,1.0,26,1.0,303.0,,,,,,,,,,26.0,26.0,26.0,cue1.png,Easy,A,,,,,,,,,,,,,,,,,,,,,,,,,,,21,22,Female,1.5714285714285714,1.5,0.6,1.75,3.1666666666666665,1.875,2.5555555555555554,2.2222222222222223,1.75,3.3333333333333335,1.5,2.5,2.75,2.0,0.9178571428571428,0.9285714285714286,0.410208821051607,-0.8413622920523456,-7.992083244578183e-05,-0.6919358003432905,-4.643120393293216e-05,-0.3347590726486505,0.00018650180730654838,0.012486342064924758,-0.0002601954753831048,-0.3377463967758273,1.387,0.08341046540559462,0.504,-1.9036997019817665,,,,,,,,,,,,,,,,,,,,
26,240620_145713,LEARNING,1.0,27,3.0,303.0,,,,,,,,,,27.0,27.0,27.0,cue2.png,Hard,A,,,,,,,,,,,,,,,,,,,,,,,,,,,21,22,Female,1.5714285714285714,1.5,0.6,1.75,3.1666666666666665,1.875,2.5555555555555554,2.2222222222222223,1.75,3.3333333333333335,1.5,2.5,2.75,2.0,0.8535714285714285,0.8759398496240602,0.5087556999771752,0.625515068664074,,,0.0003403083784172269,0.5174937698491299,0.00038092631942892707,0.3685528301361301,-0.0004212502905366249,-0.48927914191158767,2.0220000000000002,1.3054008453923882,2.406,1.2661394593940312,,,,,,,,,,,,,,,,,,,,
27,240620_145741,LEARNING,1.0,28,1.0,303.0,,,,,,,,,,28.0,28.0,28.0,cue1.png,Easy,A,,,,,,,,,,,,,,,,,,,,,,,,,,,21,22,Female,1.5714285714285714,1.5,0.6,1.75,3.1666666666666665,1.875,2.5555555555555554,2.2222222222222223,1.75,3.3333333333333335,1.5,2.5,2.75,2.0,0.9178571428571428,0.9285714285714286,0.3926487841986512,-1.1027447000370982,,,3.362168606499622e-05,-0.15834759018207303,,,9.261964890882896e-05,-0.005790818431836725,1.225,-0.22834141106347686,1.805,0.26452361502659966,,,,,,,,,,,,,,,,,,,,
28,240620_145808,LEARNING,1.0,29,1.0,303.0,,,,,,,,,,29.0,29.0,29.0,cue1.png,Easy,A,,,,,,,,,,,,,,,,,,,,,,,,,,,21,22,Female,1.5714285714285714,1.5,0.6,1.75,3.1666666666666665,1.875,2.5555555555555554,2.2222222222222223,1.75,3.3333333333333335,1.5,2.5,2.75,2.0,1.0,0.9473684210526316,0.3582562277960177,-1.614680368768829,8.421459696572597e-05,-0.07463133344062924,4.62320906563494e-05,-0.1305582103293092,-0.0003654266393238398,-0.9983081380805534,,,0.45599999999999996,-1.7082006271419714,1.1749999999999998,-0.785423110350242,,,,,,,,,,,,,,,,,,,,
29,240620_145838,LEARNING,1.0,30,3.0,303.0,,,,,,,,,,30.0,30.0,30.0,cue2.png,Hard,A,,,,,,,,,,,,,,,,,,,,,,,,,,,21,22,Female,1.5714285714285714,1.5,0.6,1.75,3.1666666666666665,1.875,2.5555555555555554,2.2222222222222223,1.75,3.3333333333333335,1.5,2.5,2.75,2.0,0.9262820512820512,0.8704453441295548,0.4765383722131244,0.1459578342278524,,,,,,,,,1.294,-0.09555820441924275,1.676,0.04953452363991306,,,,,,,,,,,,,,,,,,,,
30,240620_145907,LEARNING,1.0,31,3.0,303.0,,,,,,,,,,31.0,31.0,31.0,cue2.png,Hard,A,,,,,,,,,,,,,,,,,,,,,,,,,,,21,22,Female,1.5714285714285714,1.5,0.6,1.75,3.1666666666666665,1.875,2.5555555555555554,2.2222222222222223,1.75,3.3333333333333335,1.5,2.5,2.75,2.0,0.8071428571428572,0.8571428571428572,0.4816912157755149,0.22265828022262513,6.601138831737125e-05,-0.14309261599784104,0.000350095816414707,0.5390622159942954,0.0005983710440420472,0.7667782318481826,-0.00029316746450104916,-0.3687689776211497,,,,,,,,,,,,,,,,,,,,,,,,
31,240620_145935,LEARNING,1.0,32,1.0,303.0,,,,,,,,,,32.0,32.0,32.0,cue1.png,Easy,A,,,,,,,,,,,,,,,,,,,,,,,,,,,21,22,Female,1.5714285714285714,1.5,0.6,1.75,3.1666666666666665,1.875,2.5555555555555554,2.2222222222222223,1.75,3.3333333333333335,1.5,2.5,2.75,2.0,1.0,1.0,0.3813679842033276,-1.2706602170410237,-1.7186411231795342e-05,-0.45599503738433506,5.421624338670158e-05,-0.11296363979678439,,,,,1.402,0.11227637989347143,1.1949999999999998,-0.7520914682747867,,,,,,,,,,,,,,,,,,,,
32,240620_150003,LEARNING,1.0,33,1.0,303.0,,,,,,,,,,33.0,33.0,33.0,cue1.png,Easy,A,,,,,,,,,,,,,,,,,,,,,,,,,,,21,22,Female,1.5714285714285714,1.5,0.6,1.75,3.1666666666666665,1.875,2.5555555555555554,2.2222222222222223,1.75,3.3333333333333335,1.5,2.5,2.75,2.0,1.0,1.0,0.4280391578917931,-0.5759564493714063,,,2.7938371325006255e-05,-0.1708718348237309,0.00015783253301299323,-0.04001818888038543,-0.0004029370331995949,-0.4720486222651398,1.1790000000000003,-0.3168635488262993,1.628,-0.030461417341179697,,,,,,,,,,,,,,,,,,,,
33,240620_150030,LEARNING,1.0,34,1.0,303.0,,,,,,,,,,34.0,34.0,34.0,cue1.png,Easy,A,,,,,,,,,,,,,,,,,,,,,,,,,,,21,22,Female,1.5714285714285714,1.5,0.6,1.75,3.1666666666666665,1.875,2.5555555555555554,2.2222222222222223,1.75,3.3333333333333335,1.5,2.5,2.75,2.0,1.0,1.0,0.3697182842236208,-1.444066836770477,3.4284995915477134e-05,-0.26241386076879336,,,-0.0001069582098036986,-0.5249524640872049,,,1.212,-0.2533585369529705,,,,,,,,,,,,,,,,,,,,,,
34,240620_150100,LEARNING,1.0,35,3.0,303.0,,,,,,,,,,35.0,35.0,35.0,cue2.png,Hard,A,,,,,,,,,,,,,,,,,,,,,,,,,,,21,22,Female,1.5714285714285714,1.5,0.6,1.75,3.1666666666666665,1.875,2.5555555555555554,2.2222222222222223,1.75,3.3333333333333335,1.5,2.5,2.75,2.0,0.8717948717948717,0.8704453441295548,0.4728282111205367,0.09073182026714267,0.0001491084684702524,0.16943100519022133,-6.47325719853398e-05,-0.3750895525273312,0.0016811491026826565,2.7497636923339686,0.0001850579313307961,0.08118222039151844,,,2.663,1.694451060063631,,,,,,,,,,,,,,,,,,,,
35,240620_150129,LEARNING,1.0,36,3.0,303.0,,,,,,,,,,36.0,36.0,36.0,cue2.png,Hard,A,,,,,,,,,,,,,,,,,,,,,,,,,,,21,22,Female,1.5714285714285714,1.5,0.6,1.75,3.1666666666666665,1.875,2.5555555555555554,2.2222222222222223,1.75,3.3333333333333335,1.5,2.5,2.75,2.0,0.8071428571428572,0.8571428571428572,0.4926299631632374,0.385482319629955,-6.121959098465742e-05,-0.621601443331105,1.0006239173272237e-06,-0.2302341883205483,0.00036064361761740157,0.33140735745992994,0.0023947895950131824,2.1602675597029926,0.659,-1.3175485844060357,1.067,-0.9654139775577003,,,,,,,,,,,,,,,,,,,,
36,240620_150157,LEARNING,1.0,37,1.0,303.0,,,,,,,,,,37.0,37.0,37.0,cue1.png,Easy,A,,,,,,,,,,,,,,,,,,,,,,,,,,,21,22,Female,1.5714285714285714,1.5,0.6,1.75,3.1666666666666665,1.875,2.5555555555555554,2.2222222222222223,1.75,3.3333333333333335,1.5,2.5,2.75,2.0,1.0,0.9473684210526316,0.3921642166808144,-1.1099575222939064,,,,,,,,,2.013,1.2880812966996613,2.2319999999999998,0.9761541733375697,,,,,,,,,,,,,,,,,,,,
37,240620_150227,LEARNING,1.0,38,3.0,303.0,,,,,,,,,,38.0,38.0,38.0,cue2.png,Hard,A,,,,,,,,,,,,,,,,,,,,,,,,,,,21,22,Female,1.5714285714285714,1.5,0.6,1.75,3.1666666666666665,1.875,2.5555555555555554,2.2222222222222223,1.75,3.3333333333333335,1.5,2.5,2.75,2.0,0.9178571428571428,0.9285714285714286,0.4709888157912677,0.06335228886716723,2.4889800309737045e-05,-0.29774868296800944,0.001336984180874229,2.7138548987797098,-7.267883293799512e-05,-0.46217366525880627,0.0026623522515957414,2.4120110658448253,1.8920000000000001,1.055229586497454,1.8370000000000002,0.3178542423473285,,,,,,,,,,,,,,,,,,,,
38,240620_150256,LEARNING,1.0,39,3.0,303.0,,,,,,,,,,39.0,39.0,39.0,cue2.png,Hard,A,,,,,,,,,,,,,,,,,,,,,,,,,,,21,22,Female,1.5714285714285714,1.5,0.6,1.75,3.1666666666666665,1.875,2.5555555555555554,2.2222222222222223,1.75,3.3333333333333335,1.5,2.5,2.75,2.0,0.9178571428571428,0.9285714285714286,0.4878890210407247,0.31491305610986525,-0.0001647340916900446,-1.0109138782133331,0.001240815481226092,2.5019292222394887,-0.0005216213857929227,-1.284361137382472,-6.47973564574687e-05,-0.1539008325997954,0.8090000000000002,-1.0288894395272656,1.39,-0.42710795803909757,,,,,,,,,,,,,,,,,,,,
39,240620_150326,LEARNING,1.0,40,3.0,303.0,,,,,,,,,,40.0,40.0,40.0,cue2.png,Hard,A,,,,,,,,,,,,,,,,,,,,,,,,,,,21,22,Female,1.5714285714285714,1.5,0.6,1.75,3.1666666666666665,1.875,2.5555555555555554,2.2222222222222223,1.75,3.3333333333333335,1.5,2.5,2.75,2.0,0.9178571428571428,0.9285714285714286,0.5141236736917084,0.7054177424029037,-3.099502629756463e-05,-0.5079284913156477,-0.00010725632939866158,-0.4687985877105375,0.0003684283033506064,0.34566412827294113,-0.00020932907781579316,-0.28988738150084536,1.6860000000000002,0.6588043608639431,2.0330000000000004,0.6445043346867906,,,,,,,,,,,,,,,,,,,,
40,240620_150354,LEARNING,1.0,41,1.0,303.0,,,,,,,,,,41.0,41.0,41.0,cue1.png,Easy,A,,,,,,,,,,,,,,,,,,,,,,,,,,,21,22,Female,1.5714285714285714,1.5,0.6,1.75,3.1666666666666665,1.875,2.5555555555555554,2.2222222222222223,1.75,3.3333333333333335,1.5,2.5,2.75,2.0,1.0,1.0,0.3970334631464395,-1.0374784394244363,1.615532767428778e-05,-0.33059856183470987,,,,,-0.0003582304016958209,-0.42998518820337545,1.494,0.28932065541911717,1.88,0.3895172728095569,,,,,,,,,,,,,,,,,,,,
41,240620_150423,LEARNING,1.0,42,3.0,303.0,,,,,,,,,,42.0,42.0,42.0,cue2.png,Hard,A,,,,,,,,,,,,,,,,,,,,,,,,,,,21,22,Female,1.5714285714285714,1.5,0.6,1.75,3.1666666666666665,1.875,2.5555555555555554,2.2222222222222223,1.75,3.3333333333333335,1.5,2.5,2.75,2.0,0.8269230769230769,0.8461538461538461,0.4836963210438721,0.2525044159508601,0.00023706087049157843,0.5002152291523918,0.0006317920319034364,1.1598323965696278,0.0012484938243207669,1.957404519973953,-0.002023151854359355,-1.9964712191676548,1.7080000000000002,0.7011410354461628,2.56,1.5227931033750368,,,,,,,,,,,,,,,,,,,,
42,240620_150454,LEARNING,1.0,43,3.0,303.0,,,,,,,,,,43.0,43.0,43.0,cue2.png,Hard,A,,,,,,,,,,,,,,,,,,,,,,,,,,,21,22,Female,1.5714285714285714,1.5,0.6,1.75,3.1666666666666665,1.875,2.5555555555555554,2.2222222222222223,1.75,3.3333333333333335,1.5,2.5,2.75,2.0,0.9262820512820512,0.8704453441295548,0.5372777388935598,1.0500676635718993,,,2.85434798725742e-05,-0.16953836521467092,,,0.0022194881558587802,1.9953304960331177,1.9959999999999998,1.2553665936134004,,,,,,,,,,,,,,,,,,,,,,
43,240620_150522,LEARNING,1.0,44,1.0,303.0,,,,,,,,,,44.0,44.0,44.0,cue1.png,Easy,A,,,,,,,,,,,,,,,,,,,,,,,,,,,21,22,Female,1.5714285714285714,1.5,0.6,1.75,3.1666666666666665,1.875,2.5555555555555554,2.2222222222222223,1.75,3.3333333333333335,1.5,2.5,2.75,2.0,1.0,1.0,0.403797963168472,-0.9367883714378111,0.0006924218971311848,2.2128034059150536,,,0.00036776389720622436,0.3444473436201184,1.6865629561465048e-05,-0.0770660205785803,1.4380000000000002,0.18155457466437672,1.741,0.157862360385143,,,,,,,,,,,,,,,,,,,,
44,240620_150550,LEARNING,1.0,45,1.0,303.0,,,,,,,,,,45.0,45.0,45.0,cue1.png,Easy,A,,,,,,,,,,,,,,,,,,,,,,,,,,,21,22,Female,1.5714285714285714,1.5,0.6,1.75,3.1666666666666665,1.875,2.5555555555555554,2.2222222222222223,1.75,3.3333333333333335,1.5,2.5,2.75,2.0,1.0,1.0,0.4111323473717723,-0.8276155365401857,-3.1885273246565725e-05,-0.5112766619101087,-2.5499873583583084e-05,-0.2886329800488469,-2.852563099455755e-05,-0.38131207336651035,-0.000642978474839402,-0.6978980547291923,1.5970000000000002,0.487533268235873,1.8120000000000003,0.27618968975300956,,,,,,,,,,,,,,,,,,,,
45,240620_150617,LEARNING,1.0,46,1.0,303.0,,,,,,,,,,46.0,46.0,46.0,cue1.png,Easy,A,,,,,,,,,,,,,,,,,,,,,,,,,,,21,22,Female,1.5714285714285714,1.5,0.6,1.75,3.1666666666666665,1.875,2.5555555555555554,2.2222222222222223,1.75,3.3333333333333335,1.5,2.5,2.75,2.0,1.0,1.0,0.3626508842173375,-1.5492655927470533,0.0007069480012951157,2.267435297513585,-0.0011304979948386514,-2.7237025534075863,0.001450288361015577,2.3269683738755136,-0.001958346085349963,-1.9354969721743787,1.439,0.1834789689635683,0.9430000000000001,-1.1720701584255229,,,,,,,,,,,,,,,,,,,,
46,240620_150647,LEARNING,1.0,47,3.0,303.0,,,,,,,,,,47.0,47.0,47.0,cue2.png,Hard,A,,,,,,,,,,,,,,,,,,,,,,,,,,,21,22,Female,1.5714285714285714,1.5,0.6,1.75,3.1666666666666665,1.875,2.5555555555555554,2.2222222222222223,1.75,3.3333333333333335,1.5,2.5,2.75,2.0,0.5256410256410255,0.5870445344129555,0.4674971411757938,0.01137846178842786,,,,,-0.00026358898513609806,-0.8118040009004898,0.0005153747461015606,0.3919696604255363,,,1.52,-0.210452284548638,,,,,,,,,,,,,,,,,,,,
47,240620_150717,LEARNING,1.0,48,3.0,303.0,,,,,,,,,,48.0,48.0,48.0,cue2.png,Hard,A,,,,,,,,,,,,,,,,,,,,,,,,,,,21,22,Female,1.5714285714285714,1.5,0.6,1.75,3.1666666666666665,1.875,2.5555555555555554,2.2222222222222223,1.75,3.3333333333333335,1.5,2.5,2.75,2.0,0.9583333333333334,0.9473684210526316,0.4868639555449287,0.29965488268592144,-1.4868661157469397e-05,-0.447278104792906,-2.66874100266286e-05,-0.29124993821745476,,,,,1.1909999999999998,-0.2937708172359985,0.6120000000000001,-1.7237088347743077,,,,,,,,,,,,,,,,,,,,
48,240620_150744,LEARNING,1.0,49,1.0,303.0,,,,,,,,,,49.0,49.0,49.0,cue1.png,Easy,A,,,,,,,,,,,,,,,,,,,,,,,,,,,21,22,Female,1.5714285714285714,1.5,0.6,1.75,3.1666666666666665,1.875,2.5555555555555554,2.2222222222222223,1.75,3.3333333333333335,1.5,2.5,2.75,2.0,1.0,1.0,0.3705544157786981,-1.4316209586047175,0.00047316106961456427,1.3881753001607324,,,,,0.0007782268995839068,0.6392811633077004,,,,,,,,,,,,,,,,,,,,,,,,
49,240620_150812,LEARNING,1.0,50,1.0,303.0,,,,,,,,,,50.0,50.0,50.0,cue1.png,Easy,A,,,,,,,,,,,,,,,,,,,,,,,,,,,21,22,Female,1.5714285714285714,1.5,0.6,1.75,3.1666666666666665,1.875,2.5555555555555554,2.2222222222222223,1.75,3.3333333333333335,1.5,2.5,2.75,2.0,0.9178571428571428,0.9285714285714286,0.395211068435425,-1.0646049154023882,3.619133249057032e-06,-0.3777465106011729,-5.831042787115496e-05,-0.36093715948035104,-1.6912707025951677e-06,-0.33216797973091844,,,0.9,-0.853769558300812,1.785,0.23119197295114433,,,,,,,,,,,,,,,,,,,,
0,240620_150935,TrueCHOICE,9.0,1,1.0,303.0,,,,,,,,,,,1.0,1.0,,,A,,,,,,True,cue1.png,Easy,cue2.png,Hard,Left,Easy,Easy,0.016529000014998,,,,,,,,,,,,,21,22,Female,1.5714285714285714,1.5,0.6,1.75,3.1666666666666665,1.875,2.5555555555555554,2.2222222222222223,1.75,3.3333333333333335,1.5,2.5,2.75,2.0,1.0,1.0,0.4067105789436027,0.444879926926921,,,,,,,,,,,,,0.00020507038993833673,1.5693817774395955,-0.00018958444333204948,-0.9826923665054647,1.5889999999999997,-0.08754889696675716,,,,,,,,,,,,,,
1,240620_151002,TrueCHOICE,9.0,2,1.0,303.0,,,,,,,,,,,2.0,2.0,,,A,,,,,,True,cue1.png,Easy,cue2.png,Hard,Left,Easy,Easy,0.0159269999712705,,,,,,,,,,,,,21,22,Female,1.5714285714285714,1.5,0.6,1.75,3.1666666666666665,1.875,2.5555555555555554,2.2222222222222223,1.75,3.3333333333333335,1.5,2.5,2.75,2.0,0.9583333333333334,0.9473684210526316,0.4258238833410562,1.2638572311248395,,,,,,,,,,,,,5.496506349972818e-05,-0.21019089573590716,,,,,,,,,,,,,,,,,,
2,240620_151030,TrueCHOICE,9.0,3,1.0,303.0,,,,,,,,,,,3.0,3.0,,,A,,,,,,True,cue2.png,Hard,cue1.png,Easy,Right,Easy,Easy,0.0170037999050691,,,,,,,,,,,,,21,22,Female,1.5714285714285714,1.5,0.6,1.75,3.1666666666666665,1.875,2.5555555555555554,2.2222222222222223,1.75,3.3333333333333335,1.5,2.5,2.75,2.0,1.0,1.0,0.4371371684093518,1.7486150476795592,,,,,,,,,,,,,,,-0.0002732073038357154,-1.3222198558506926,1.456,-0.9395491381798147,,,,,,,,,,,,,,
3,240620_151057,TrueCHOICE,9.0,4,1.0,303.0,,,,,,,,,,,4.0,4.0,,,A,,,,,,True,cue1.png,Easy,cue2.png,Hard,Left,Easy,Easy,0.0161614998942241,,,,,,,,,,,,,21,22,Female,1.5714285714285714,1.5,0.6,1.75,3.1666666666666665,1.875,2.5555555555555554,2.2222222222222223,1.75,3.3333333333333335,1.5,2.5,2.75,2.0,1.0,1.0,0.4078187052662925,0.4923615287261453,,,,,,,,,,,,,-2.4824389010902597e-05,-1.1561342054400159,-3.3442761526489284e-05,-0.3487222668667517,1.46,-0.9139250707749107,,,,,,,,,,,,,,
4,240620_151122,TrueCHOICE,9.0,5,1.0,303.0,,,,,,,,,,,5.0,5.0,,,A,,,,,,True,cue2.png,Hard,cue1.png,Easy,Right,Easy,Easy,0.0155062999110668,,,,,,,,,,,,,21,22,Female,1.5714285714285714,1.5,0.6,1.75,3.1666666666666665,1.875,2.5555555555555554,2.2222222222222223,1.75,3.3333333333333335,1.5,2.5,2.75,2.0,1.0,1.0,0.3907092157935135,-0.240755219337894,,,,,,,,,,,,,5.5579640016317766e-05,-0.20290478803775347,0.0002249644704583019,0.7004688057179962,1.9250000000000003,2.0648727650451844,,,,,,,,,,,,,,
5,240620_151149,TrueCHOICE,9.0,6,1.0,303.0,,,,,,,,,,,6.0,6.0,,,A,,,,,,True,cue2.png,Hard,cue1.png,Easy,Right,Easy,Easy,0.0162407000316306,,,,,,,,,,,,,21,22,Female,1.5714285714285714,1.5,0.6,1.75,3.1666666666666665,1.875,2.5555555555555554,2.2222222222222223,1.75,3.3333333333333335,1.5,2.5,2.75,2.0,1.0,1.0,0.3809769210577207,-0.6577698987797751,,,,,,,,,,,,,-1.4053062776989752e-05,-1.028434820784473,1.6038978982849984e-05,-0.14781534951929368,1.599,-0.02348872845449562,,,,,,,,,,,,,,
6,240620_151215,TrueCHOICE,9.0,7,1.0,303.0,,,,,,,,,,,7.0,7.0,,,A,,,,,,True,cue1.png,Easy,cue2.png,Hard,Left,Easy,Easy,0.0161675999406725,,,,,,,,,,,,,21,22,Female,1.5714285714285714,1.5,0.6,1.75,3.1666666666666665,1.875,2.5555555555555554,2.2222222222222223,1.75,3.3333333333333335,1.5,2.5,2.75,2.0,1.0,1.0,0.386299984204877,-0.42968438223695404,,,,,,,,,,,,,0.00015942919754944208,1.0282829325585543,0.0005205111211972141,1.9004542128827597,1.587,-0.10036093066920777,,,,,,,,,,,,,,
7,240620_151240,TrueCHOICE,9.0,8,1.0,303.0,,,,,,,,,,,8.0,8.0,,,A,,,,,,True,cue2.png,Hard,cue1.png,Easy,Right,Easy,Easy,0.0165435998933389,,,,,,,,,,,,,21,22,Female,1.5714285714285714,1.5,0.6,1.75,3.1666666666666665,1.875,2.5555555555555554,2.2222222222222223,1.75,3.3333333333333335,1.5,2.5,2.75,2.0,0.8269230769230769,0.8461538461538461,0.3710326052724236,-1.0838693719310775,,,,,,,,,,,,,,,,,,,,,,,,,,,,,,,,
8,240620_151306,TrueCHOICE,9.0,9,1.0,303.0,,,,,,,,,,,9.0,9.0,,,A,,,,,,True,cue1.png,Easy,cue2.png,Hard,Left,Easy,Easy,0.0162239000201225,,,,,,,,,,,,,21,22,Female,1.5714285714285714,1.5,0.6,1.75,3.1666666666666665,1.875,2.5555555555555554,2.2222222222222223,1.75,3.3333333333333335,1.5,2.5,2.75,2.0,0.9262820512820512,0.9230769230769232,0.4009670736880875,0.19877907733049494,,,,,,,,,,,,,,,,,,,,,,,,,,,,,,,,
9,240620_151332,TrueCHOICE,9.0,10,1.0,303.0,,,,,,,,,,,10.0,10.0,,,A,,,,,,True,cue2.png,Hard,cue1.png,Easy,Right,Easy,Easy,0.0170834000455215,,,,,,,,,,,,,21,22,Female,1.5714285714285714,1.5,0.6,1.75,3.1666666666666665,1.875,2.5555555555555554,2.2222222222222223,1.75,3.3333333333333335,1.5,2.5,2.75,2.0,0.9178571428571428,0.9285714285714286,0.3558035105356554,-1.7364139395022833,,,,,,,,,,,,,,,0.00010183282359101358,0.2005268201414464,,,,,,,,,,,,,,,,
0,240620_151510,FalseCHOICE,9.0,1,2.0,303.0,,,,,,,,,,,1.0,1.0,,,A,,,,,,False,cue1.png,Easy,cue2.png,Hard,Left,Easy,Mid,0.0161099999677389,,,,,,,,,,,,,21,22,Female,1.5714285714285714,1.5,0.6,1.75,3.1666666666666665,1.875,2.5555555555555554,2.2222222222222223,1.75,3.3333333333333335,1.5,2.5,2.75,2.0,0.95,0.631578947368421,0.5782694750038596,2.6486053376595895,,,,,,,,,,,,,,,,,,,0.0018250643623031007,1.185097730242032,-0.0012995390925654039,-1.6543535107483855,1.595,0.3672793369479449,,,,,,,,
1,240620_151539,FalseCHOICE,9.0,2,2.0,303.0,,,,,,,,,,,2.0,2.0,,,A,,,,,,False,cue2.png,Hard,cue1.png,Easy,Right,Easy,Mid,0.0165994999697431,,,,,,,,,,,,,21,22,Female,1.5714285714285714,1.5,0.6,1.75,3.1666666666666665,1.875,2.5555555555555554,2.2222222222222223,1.75,3.3333333333333335,1.5,2.5,2.75,2.0,0.8269230769230769,0.8461538461538461,0.5219884526205102,1.4224321800808333,,,,,,,,,,,,,,,,,,,,,0.0001738248774057023,-0.21920015365672374,1.59,0.3562014527759544,,,,,,,,
2,240620_151610,FalseCHOICE,9.0,3,2.0,303.0,,,,,,,,,,,3.0,3.0,,,A,,,,,,False,cue2.png,Hard,cue1.png,Easy,Left,Hard,Mid,0.0158662999747321,,,,,,,,,,,,,21,22,Female,1.5714285714285714,1.5,0.6,1.75,3.1666666666666665,1.875,2.5555555555555554,2.2222222222222223,1.75,3.3333333333333335,1.5,2.5,2.75,2.0,0.8071428571428572,0.8045112781954888,0.5953728500171565,3.0212300423506724,,,,,,,,,,,,,,,,,,,-3.4475956109340095e-05,-0.7016657740136596,-0.00014586456379552751,-0.5305986839029194,1.5639999999999998,0.2985964550816019,,,,,,,,
3,240620_151645,FalseCHOICE,9.0,4,2.0,303.0,,,,,,,,,,,5.0,4.0,,,A,,,,,,False,cue2.png,Hard,cue1.png,Easy,Right,Easy,Mid,0.01680760004092,,,,,,,,,,,,,21,22,Female,1.5714285714285714,1.5,0.6,1.75,3.1666666666666665,1.875,2.5555555555555554,2.2222222222222223,1.75,3.3333333333333335,1.5,2.5,2.75,2.0,0.8717948717948717,0.8178137651821863,0.5410334823502447,1.8373589751349093,,,,,,,,,,,,,,,,,,,1.236870253348149e-05,-0.6541353217715437,-0.0003983613431843237,-0.7765471446907654,,,,,,,,,,
4,240620_151713,FalseCHOICE,9.0,5,2.0,303.0,,,,,,,,,,,6.0,5.0,,,A,,,,,,False,cue1.png,Easy,cue2.png,Hard,Right,Hard,Mid,0.0155965000158175,,,,,,,,,,,,,21,22,Female,1.5714285714285714,1.5,0.6,1.75,3.1666666666666665,1.875,2.5555555555555554,2.2222222222222223,1.75,3.3333333333333335,1.5,2.5,2.75,2.0,0.8269230769230769,0.8461538461538461,0.5358106210447946,1.7235704889400612,,,,,,,,,,,,,,,,,,,1.2541655291223221e-05,-0.6539598370304835,0.00038755559307311876,-0.0110123871880544,1.4700000000000002,0.09033223264817634,,,,,,,,
5,240620_151742,FalseCHOICE,9.0,6,2.0,303.0,,,,,,,,,,,7.0,6.0,,,A,,,,,,False,cue2.png,Hard,cue1.png,Easy,Right,Easy,Mid,0.0179020999930799,,,,,,,,,,,,,21,22,Female,1.5714285714285714,1.5,0.6,1.75,3.1666666666666665,1.875,2.5555555555555554,2.2222222222222223,1.75,3.3333333333333335,1.5,2.5,2.75,2.0,0.9178571428571428,0.8233082706766918,0.5113510529524373,1.190679212791331,,,,,,,,,,,,,,,,,,,0.000503305642130625,-0.15601119326989704,0.0004707357038426802,0.07001050847603157,,,,,,,,,,
6,240620_151812,FalseCHOICE,9.0,7,2.0,303.0,,,,,,,,,,,8.0,7.0,,,A,,,,,,False,cue2.png,Hard,cue1.png,Easy,Right,Easy,Mid,0.0155356000177562,,,,,,,,,,,,,21,22,Female,1.5714285714285714,1.5,0.6,1.75,3.1666666666666665,1.875,2.5555555555555554,2.2222222222222223,1.75,3.3333333333333335,1.5,2.5,2.75,2.0,0.9262820512820512,0.9230769230769232,0.5185780947427511,1.3481320144057578,,,,,,,,,,,,,,,,,,,1.022301857219604e-06,-0.6656478307979194,0.0004296186597142508,0.029959804700671337,,,,,,,,,,
7,240620_151839,FalseCHOICE,9.0,8,2.0,303.0,,,,,,,,,,,9.0,8.0,,,A,,,,,,False,cue1.png,Easy,cue2.png,Hard,Left,Easy,Mid,0.0168663999065756,,,,,,,,,,,,,21,22,Female,1.5714285714285714,1.5,0.6,1.75,3.1666666666666665,1.875,2.5555555555555554,2.2222222222222223,1.75,3.3333333333333335,1.5,2.5,2.75,2.0,0.1607142857142857,0.5902255639097744,0.4591392333321791,0.05316022298625516,,,,,,,,,,,,,,,,,,,,,-0.000714253639732894,-1.0842470064431646,,,,,,,,,,
8,240620_151908,FalseCHOICE,9.0,9,2.0,303.0,,,,,,,,,,,10.0,9.0,,,A,,,,,,False,cue1.png,Easy,cue2.png,Hard,Right,Hard,Mid,0.016738099977374,,,,,,,,,,,,,21,22,Female,1.5714285714285714,1.5,0.6,1.75,3.1666666666666665,1.875,2.5555555555555554,2.2222222222222223,1.75,3.3333333333333335,1.5,2.5,2.75,2.0,1.0,1.0,0.501196594731147,0.9694479065102855,,,,,,,,,,,,,,,,,,,-1.7363324778792242e-05,-0.6843026182183471,-0.0001666853287426739,-0.55087947759689,,,,,,,,,,
9,240620_151936,FalseCHOICE,9.0,10,2.0,303.0,,,,,,,,,,,11.0,10.0,,,A,,,,,,False,cue2.png,Hard,cue1.png,Easy,Right,Easy,Mid,0.0166098000481724,,,,,,,,,,,,,21,22,Female,1.5714285714285714,1.5,0.6,1.75,3.1666666666666665,1.875,2.5555555555555554,2.2222222222222223,1.75,3.3333333333333335,1.5,2.5,2.75,2.0,1.0,1.0,0.5023001210433186,0.9934900131630422,,,,,,,,,,,,,,,,,,,4.1598809987797216e-05,-0.6244772931586663,0.00011582738965245287,-0.2756935191444048,2.144,1.5836310190325311,,,,,,,,
10,240620_152003,FalseCHOICE,9.0,11,2.0,303.0,,,,,,,,,,,12.0,11.0,,,A,,,,,,False,cue1.png,Easy,cue2.png,Hard,Left,Easy,Mid,0.0161327000241726,,,,,,,,,,,,,21,22,Female,1.5714285714285714,1.5,0.6,1.75,3.1666666666666665,1.875,2.5555555555555554,2.2222222222222223,1.75,3.3333333333333335,1.5,2.5,2.75,2.0,0.9178571428571428,0.9285714285714286,0.432581768432436,-0.5254371303382813,,,,,,,,,,,,,,,,,,,0.002427031796766655,1.7958778111310087,0.0024783894617796008,2.0255972401356677,,,,,,,,,,
11,240620_152030,FalseCHOICE,9.0,12,2.0,303.0,,,,,,,,,,,13.0,12.0,,,A,,,,,,False,cue2.png,Hard,cue1.png,Easy,Right,Easy,Mid,0.016527900006622,,,,,,,,,,,,,21,22,Female,1.5714285714285714,1.5,0.6,1.75,3.1666666666666665,1.875,2.5555555555555554,2.2222222222222223,1.75,3.3333333333333335,1.5,2.5,2.75,2.0,1.0,1.0,0.5010655684347608,0.9665932865911346,,,,,,,,,,,,,,,,,,,5.468191657542797e-05,-0.6112026532987985,-3.857554728453963e-05,-0.42609212926806794,,,,,,,,,,
12,240620_152059,FalseCHOICE,9.0,13,2.0,303.0,,,,,,,,,,,14.0,13.0,,,A,,,,,,False,cue1.png,Easy,cue2.png,Hard,Left,Easy,Mid,0.0168859000550583,,,,,,,,,,,,,21,22,Female,1.5714285714285714,1.5,0.6,1.75,3.1666666666666665,1.875,2.5555555555555554,2.2222222222222223,1.75,3.3333333333333335,1.5,2.5,2.75,2.0,1.0,1.0,0.4842236736777091,0.5996653524608411,,,,,,,,,,,,,,,,,,,-0.0002584141977186264,-0.9288824131432241,0.0018651716933284074,1.4282828243106045,0.8759999999999999,-1.225720406984327,,,,,,,,
13,240620_152126,FalseCHOICE,9.0,14,2.0,303.0,,,,,,,,,,,15.0,14.0,,,A,,,,,,False,cue2.png,Hard,cue1.png,Easy,Right,Easy,Mid,0.0152898000087589,,,,,,,,,,,,,21,22,Female,1.5714285714285714,1.5,0.6,1.75,3.1666666666666665,1.875,2.5555555555555554,2.2222222222222223,1.75,3.3333333333333335,1.5,2.5,2.75,2.0,0.9178571428571428,0.9285714285714286,0.4559716631437799,-0.01585041994959248,,,,,,,,,,,,,,,,,,,-7.30362574821162e-05,-0.7407905881534077,0.00012907003148824887,-0.26279431550243043,,,,,,,,,,
14,240620_152153,FalseCHOICE,9.0,15,2.0,303.0,,,,,,,,,,,16.0,15.0,,,A,,,,,,False,cue1.png,Easy,cue2.png,Hard,Left,Easy,Mid,0.0163133000023663,,,,,,,,,,,,,21,22,Female,1.5714285714285714,1.5,0.6,1.75,3.1666666666666665,1.875,2.5555555555555554,2.2222222222222223,1.75,3.3333333333333335,1.5,2.5,2.75,2.0,0.9262820512820512,0.9230769230769232,0.4662054263079833,0.2071086728595819,,,,,,,,,,,,,,,,,,,0.0010670191814252544,0.4159549653901871,0.001982088128142436,1.542167117222852,,,,,,,,,,
15,240620_152221,FalseCHOICE,9.0,16,2.0,303.0,,,,,,,,,,,17.0,16.0,,,A,,,,,,False,cue1.png,Easy,cue2.png,Hard,Left,Easy,Mid,0.0162689000135287,,,,,,,,,,,,,21,22,Female,1.5714285714285714,1.5,0.6,1.75,3.1666666666666665,1.875,2.5555555555555554,2.2222222222222223,1.75,3.3333333333333335,1.5,2.5,2.75,2.0,1.0,1.0,0.4824638105254914,0.5613238855350442,,,,,,,,,,,,,,,,,,,0.0022301579047325926,1.5961217366040694,-5.187663662777932e-05,-0.43904826462429014,,,,,,,,,,
16,240620_152248,FalseCHOICE,9.0,17,2.0,303.0,,,,,,,,,,,18.0,17.0,,,A,,,,,,False,cue2.png,Hard,cue1.png,Easy,Right,Easy,Mid,0.0166254999348893,,,,,,,,,,,,,21,22,Female,1.5714285714285714,1.5,0.6,1.75,3.1666666666666665,1.875,2.5555555555555554,2.2222222222222223,1.75,3.3333333333333335,1.5,2.5,2.75,2.0,0.9262820512820512,0.9230769230769232,0.4494852737070208,-0.1571669113733412,,,,,,,,,,,,,,,,,,,0.0004186102685082597,-0.24194648509858213,0.0001417817822545915,-0.25041223465978096,,,,,,,,,,
17,240620_152315,FalseCHOICE,9.0,18,2.0,303.0,,,,,,,,,,,19.0,18.0,,,A,,,,,,False,cue2.png,Hard,cue1.png,Easy,Right,Easy,Mid,0.0162898000562563,,,,,,,,,,,,,21,22,Female,1.5714285714285714,1.5,0.6,1.75,3.1666666666666665,1.875,2.5555555555555554,2.2222222222222223,1.75,3.3333333333333335,1.5,2.5,2.75,2.0,1.0,1.0,0.4400936421006918,-0.3617788052922367,,,,,,,,,,,,,,,,,,,1.815773221020521e-05,-0.6482615422084199,,,,,,,,,,,,
18,240620_152343,FalseCHOICE,9.0,19,2.0,303.0,,,,,,,,,,,20.0,19.0,,,A,,,,,,False,cue1.png,Easy,cue2.png,Hard,Left,Easy,Mid,0.0159850999480113,,,,,,,,,,,,,21,22,Female,1.5714285714285714,1.5,0.6,1.75,3.1666666666666665,1.875,2.5555555555555554,2.2222222222222223,1.75,3.3333333333333335,1.5,2.5,2.75,2.0,0.9262820512820512,0.9230769230769232,0.4862975105214374,0.64484724438983,,,,,,,,,,,,,,,,,,,,,-3.739333857330279e-05,-0.4249405802718292,1.569,0.3096743392535929,,,,,,,,
19,240620_152410,FalseCHOICE,9.0,20,2.0,303.0,,,,,,,,,,,21.0,20.0,,,A,,,,,,False,cue1.png,Easy,cue2.png,Hard,Left,Easy,Mid,0.0160507999826222,,,,,,,,,,,,,21,22,Female,1.5714285714285714,1.5,0.6,1.75,3.1666666666666665,1.875,2.5555555555555554,2.2222222222222223,1.75,3.3333333333333335,1.5,2.5,2.75,2.0,1.0,1.0,0.4611454263243726,0.09686838413504868,,,,,,,,,,,,,,,,,,,,,1.5050742604735476e-05,-0.37385659783690833,,,,,,,,,,
20,240620_152438,FalseCHOICE,9.0,21,2.0,303.0,,,,,,,,,,,22.0,21.0,,,A,,,,,,False,cue1.png,Easy,cue2.png,Hard,Right,Hard,Mid,0.0166053000139072,,,,,,,,,,,,,21,22,Female,1.5714285714285714,1.5,0.6,1.75,3.1666666666666665,1.875,2.5555555555555554,2.2222222222222223,1.75,3.3333333333333335,1.5,2.5,2.75,2.0,1.0,1.0,0.4872870631454709,0.666406249791986,,,,,,,,,,,,,,,,,,,,,0.0022974699655109137,1.849369758179237,1.075,-0.7848206169390944,,,,,,,,
21,240620_152504,FalseCHOICE,9.0,22,2.0,303.0,,,,,,,,,,,23.0,22.0,,,A,,,,,,False,cue2.png,Hard,cue1.png,Easy,Right,Easy,Mid,0.0167345999507233,,,,,,,,,,,,,21,22,Female,1.5714285714285714,1.5,0.6,1.75,3.1666666666666665,1.875,2.5555555555555554,2.2222222222222223,1.75,3.3333333333333335,1.5,2.5,2.75,2.0,1.0,1.0,0.4149041315785756,-0.9105730586088624,,,,,,,,,,,,,,,,,,,0.0021119742951300107,1.4762079497442477,,,1.047,-0.8468567683022428,,,,,,,,
22,240620_152529,FalseCHOICE,9.0,23,2.0,303.0,,,,,,,,,,,24.0,23.0,,,A,,,,,,False,cue1.png,Easy,cue2.png,Hard,Right,Hard,Mid,0.0164855000330135,,,,,,,,,,,,,21,22,Female,1.5714285714285714,1.5,0.6,1.75,3.1666666666666665,1.875,2.5555555555555554,2.2222222222222223,1.75,3.3333333333333335,1.5,2.5,2.75,2.0,0.8071428571428572,0.8045112781954888,0.3859483000059198,-1.541422711408809,,,,,,,,,,,,,,,,,,,5.733186637289344e-05,-0.6085139089266216,0.0013731317709692872,0.9490035961028859,1.35,-0.1755369874796022,,,,,,,,
23,240620_152556,FalseCHOICE,9.0,24,2.0,303.0,,,,,,,,,,,25.0,24.0,,,A,,,,,,False,cue2.png,Hard,cue1.png,Easy,Right,Easy,Mid,0.0170982000418007,,,,,,,,,,,,,21,22,Female,1.5714285714285714,1.5,0.6,1.75,3.1666666666666665,1.875,2.5555555555555554,2.2222222222222223,1.75,3.3333333333333335,1.5,2.5,2.75,2.0,0.9178571428571428,0.9285714285714286,0.4428987736678927,-0.30066447428825377,,,,,,,,,,,,,,,,,,,-4.8805826817837576e-05,-0.7162054302963361,-0.0006555777300937624,-1.027092813443143,1.4100000000000001,-0.042602377415712926,,,,,,,,
24,240620_152623,FalseCHOICE,9.0,25,2.0,303.0,,,,,,,,,,,26.0,25.0,,,A,,,,,,False,cue2.png,Hard,cue1.png,Easy,Right,Easy,Mid,0.0165436000097543,,,,,,,,,,,,,21,22,Female,1.5714285714285714,1.5,0.6,1.75,3.1666666666666665,1.875,2.5555555555555554,2.2222222222222223,1.75,3.3333333333333335,1.5,2.5,2.75,2.0,0.95,0.9473684210526316,0.4192121389076217,-0.8167161468856012,,,,,,,,,,,,,,,,,,,,,0.00011555349099817138,-0.27596031443817237,0.31000000000000005,-2.479736895253681,,,,,,,,
25,240620_152650,FalseCHOICE,9.0,26,2.0,303.0,,,,,,,,,,,27.0,26.0,,,A,,,,,,False,cue1.png,Easy,cue2.png,Hard,Left,Easy,Mid,0.0169662999687716,,,,,,,,,,,,,21,22,Female,1.5714285714285714,1.5,0.6,1.75,3.1666666666666665,1.875,2.5555555555555554,2.2222222222222223,1.75,3.3333333333333335,1.5,2.5,2.75,2.0,0.8071428571428572,0.8571428571428572,0.4663390421100254,0.21001970935029227,,,,,,,,,,,,,,,,,,,0.0019059266020103652,1.2671437720736474,0.0005390159568790923,0.13651996327842958,1.387,-0.09356064460687072,,,,,,,,
26,240620_152717,FalseCHOICE,9.0,27,2.0,303.0,,,,,,,,,,,28.0,27.0,,,A,,,,,,False,cue1.png,Easy,cue2.png,Hard,Left,Easy,Mid,0.0167299000313505,,,,,,,,,,,,,21,22,Female,1.5714285714285714,1.5,0.6,1.75,3.1666666666666665,1.875,2.5555555555555554,2.2222222222222223,1.75,3.3333333333333335,1.5,2.5,2.75,2.0,1.0,1.0,0.437888199984292,-0.40982793107576443,,,,,,,,,,,,,,,,,,,,,0.003384147358176417,2.9078649704587223,1.9209999999999998,1.0895573849617424,,,,,,,,
27,240620_152744,FalseCHOICE,9.0,28,2.0,303.0,,,,,,,,,,,29.0,28.0,,,A,,,,,,False,cue2.png,Hard,cue1.png,Easy,Right,Easy,Mid,0.0169580000219866,,,,,,,,,,,,,21,22,Female,1.5714285714285714,1.5,0.6,1.75,3.1666666666666665,1.875,2.5555555555555554,2.2222222222222223,1.75,3.3333333333333335,1.5,2.5,2.75,2.0,1.0,0.9473684210526316,0.4451644666712834,-0.25130268542186035,,,,,,,,,,,,,,,,,,,0.00020419640065907473,-0.4594993161173379,-0.00033383213523941954,-0.7136914543792863,0.69,-1.637817698182383,,,,,,,,
28,240620_152811,FalseCHOICE,9.0,29,2.0,303.0,,,,,,,,,,,30.0,29.0,,,A,,,,,,False,cue1.png,Easy,cue2.png,Hard,Left,Easy,Mid,0.016017600079067,,,,,,,,,,,,,21,22,Female,1.5714285714285714,1.5,0.6,1.75,3.1666666666666665,1.875,2.5555555555555554,2.2222222222222223,1.75,3.3333333333333335,1.5,2.5,2.75,2.0,0.9178571428571428,0.9285714285714286,0.4356189473764971,-0.4592672716849522,,,,,,,,,,,,,,,,,,,0.0003089610746491614,-0.35320091459168773,,,1.5019999999999998,0.16123069134891632,,,,,,,,
29,240620_152837,FalseCHOICE,9.0,30,2.0,303.0,,,,,,,,,,,31.0,30.0,,,A,,,,,,False,cue1.png,Easy,cue2.png,Hard,Left,Easy,Mid,0.0160810999805107,,,,,,,,,,,,,21,22,Female,1.5714285714285714,1.5,0.6,1.75,3.1666666666666665,1.875,2.5555555555555554,2.2222222222222223,1.75,3.3333333333333335,1.5,2.5,2.75,2.0,0.9178571428571428,0.9285714285714286,0.4427214789106266,-0.3045271275083468,,,,,,,,,,,,,,,,,,,0.0006056926764927027,-0.052125239397024486,-9.44016306694594e-05,-0.4804704041655584,,,,,,,,,,
30,240620_152904,FalseCHOICE,9.0,31,2.0,303.0,,,,,,,,,,,32.0,31.0,,,A,,,,,,False,cue2.png,Hard,cue1.png,Easy,Right,Easy,Mid,0.0168053999077528,,,,,,,,,,,,,21,22,Female,1.5714285714285714,1.5,0.6,1.75,3.1666666666666665,1.875,2.5555555555555554,2.2222222222222223,1.75,3.3333333333333335,1.5,2.5,2.75,2.0,0.9178571428571428,0.9285714285714286,0.4549951631649348,-0.0371250523519757,,,,,,,,,,,,,,,,,,,0.0010389188482156871,0.3874432506226903,0.00015515436888762987,-0.23738645624348073,0.759,-1.4849428966089104,,,,,,,,
31,240620_152930,FalseCHOICE,9.0,32,2.0,303.0,,,,,,,,,,,33.0,32.0,,,A,,,,,,False,cue1.png,Easy,cue2.png,Hard,Left,Easy,Mid,0.0160090000135824,,,,,,,,,,,,,21,22,Female,1.5714285714285714,1.5,0.6,1.75,3.1666666666666665,1.875,2.5555555555555554,2.2222222222222223,1.75,3.3333333333333335,1.5,2.5,2.75,2.0,0.8071428571428572,0.8571428571428572,0.400835436830101,-1.2170823424176855,,,,,,,,,,,,,,,,,,,,,,,1.8010000000000002,0.8236881648339648,,,,,,,,
32,240620_152956,FalseCHOICE,9.0,33,2.0,303.0,,,,,,,,,,,34.0,33.0,,,A,,,,,,False,cue2.png,Hard,cue1.png,Easy,Right,Easy,Mid,0.0163010000251233,,,,,,,,,,,,,21,22,Female,1.5714285714285714,1.5,0.6,1.75,3.1666666666666665,1.875,2.5555555555555554,2.2222222222222223,1.75,3.3333333333333335,1.5,2.5,2.75,2.0,0.9583333333333334,0.9473684210526316,0.4317693833533364,-0.5431362540468817,,,,,,,,,,,,,,,,,,,-7.141759011910186e-05,-0.7391482239218686,-0.0002563441514827898,-0.6382130645929714,1.6739999999999997,0.5423099068653984,,,,,,,,
33,240620_153023,FalseCHOICE,9.0,34,2.0,303.0,,,,,,,,,,,35.0,34.0,,,A,,,,,,False,cue2.png,Hard,cue1.png,Easy,Right,Easy,Mid,0.016877599991858,,,,,,,,,,,,,21,22,Female,1.5714285714285714,1.5,0.6,1.75,3.1666666666666665,1.875,2.5555555555555554,2.2222222222222223,1.75,3.3333333333333335,1.5,2.5,2.75,2.0,1.0,1.0,0.4256359157765186,-0.6767637715846336,,,,,,,,,,,,,,,,,,,0.00367823124292653,3.0653944912397897,-0.0009298433854885691,-1.294245590419575,2.153,1.6035712105421143,,,,,,,,
34,240620_153050,FalseCHOICE,9.0,35,2.0,303.0,,,,,,,,,,,36.0,35.0,,,A,,,,,,False,cue2.png,Hard,cue1.png,Easy,Right,Easy,Mid,0.0164616000838577,,,,,,,,,,,,,21,22,Female,1.5714285714285714,1.5,0.6,1.75,3.1666666666666665,1.875,2.5555555555555554,2.2222222222222223,1.75,3.3333333333333335,1.5,2.5,2.75,2.0,1.0,1.0,0.4339187263241528,-0.4963093389404975,,,,,,,,,,,,,,,,,,,0.0001762681488907819,-0.48783643021608797,0.0004869396574978275,0.08579422448939271,1.955,1.16488699733128,,,,,,,,
35,240620_153117,FalseCHOICE,9.0,36,2.0,303.0,,,,,,,,,,,37.0,36.0,,,A,,,,,,False,cue1.png,Easy,cue2.png,Hard,Left,Easy,Mid,0.0177573000546544,,,,,,,,,,,,,21,22,Female,1.5714285714285714,1.5,0.6,1.75,3.1666666666666665,1.875,2.5555555555555554,2.2222222222222223,1.75,3.3333333333333335,1.5,2.5,2.75,2.0,1.0,1.0,0.4571513684135617,0.009851368582390153,,,,,,,,,,,,,,,,,,,7.393694531827128e-05,-0.5916657359511784,,,0.9060000000000001,-1.1592531019523817,,,,,,,,
36,240620_153143,FalseCHOICE,9.0,37,2.0,303.0,,,,,,,,,,,38.0,37.0,,,A,,,,,,False,cue2.png,Hard,cue1.png,Easy,Right,Easy,Mid,0.0165493000531569,,,,,,,,,,,,,21,22,Female,1.5714285714285714,1.5,0.6,1.75,3.1666666666666665,1.875,2.5555555555555554,2.2222222222222223,1.75,3.3333333333333335,1.5,2.5,2.75,2.0,0.8071428571428572,0.8571428571428572,0.4245447736833931,-0.7005360679829059,,,,,,,,,,,,,,,,,,,0.001892810860723675,1.2538360197512273,,,1.7630000000000001,0.7394962451268349,,,,,,,,
37,240620_153211,FalseCHOICE,9.0,38,2.0,303.0,,,,,,,,,,,39.0,38.0,,,A,,,,,,False,cue1.png,Easy,cue2.png,Hard,Right,Hard,Mid,0.0162175999721512,,,,,,,,,,,,,21,22,Female,1.5714285714285714,1.5,0.6,1.75,3.1666666666666665,1.875,2.5555555555555554,2.2222222222222223,1.75,3.3333333333333335,1.5,2.5,2.75,2.0,0.9178571428571428,0.9285714285714286,0.4645572894890057,0.1712013449208233,,,,,,,,,,,,,,,,,,,0.0021371312577112343,1.5017332037041629,0.0027948741174805385,2.333874098640703,0.9469999999999998,-1.0684144517420582,,,,,,,,
38,240620_153237,FalseCHOICE,9.0,39,2.0,303.0,,,,,,,,,,,40.0,39.0,,,A,,,,,,False,cue1.png,Easy,cue2.png,Hard,Left,Easy,Mid,0.0160829999949783,,,,,,,,,,,,,21,22,Female,1.5714285714285714,1.5,0.6,1.75,3.1666666666666665,1.875,2.5555555555555554,2.2222222222222223,1.75,3.3333333333333335,1.5,2.5,2.75,2.0,0.0535714285714285,0.7142857142857143,0.399473531600578,-1.246753651944238,,,,,,,,,,,,,,,,,,,-0.0001248956715682631,-0.7934092105521737,0.0014724530496792653,1.0457490503670193,0.845,-1.2944032888506696,,,,,,,,
39,240620_153304,FalseCHOICE,9.0,40,2.0,303.0,,,,,,,,,,,41.0,40.0,,,A,,,,,,False,cue2.png,Hard,cue1.png,Easy,Right,Easy,Mid,0.0167820999631658,,,,,,,,,,,,,21,22,Female,1.5714285714285714,1.5,0.6,1.75,3.1666666666666665,1.875,2.5555555555555554,2.2222222222222223,1.75,3.3333333333333335,1.5,2.5,2.75,2.0,1.0,1.0,0.4487344368275157,-0.1735251079444422,,,,,,,,,,,,,,,,,,,1.5708815681778326e-05,-0.6507463102368697,2.7882959326460625e-05,-0.3613571752349882,1.434,0.010571466609842293,,,,,,,,
40,240620_153332,FalseCHOICE,9.0,41,2.0,303.0,,,,,,,,,,,42.0,41.0,,,A,,,,,,False,cue2.png,Hard,cue1.png,Easy,Right,Easy,Mid,0.0140775000909343,,,,,,,,,,,,,21,22,Female,1.5714285714285714,1.5,0.6,1.75,3.1666666666666665,1.875,2.5555555555555554,2.2222222222222223,1.75,3.3333333333333335,1.5,2.5,2.75,2.0,1.0,0.9473684210526316,0.4391392166596941,-0.38257250816228083,,,,,,,,,,,,,,,,,,,0.0008486052394885372,0.19434350024129424,-0.00024887917257463863,-0.6309416844323302,2.104,1.4950079456566048,,,,,,,,
41,240620_153359,FalseCHOICE,9.0,42,2.0,303.0,,,,,,,,,,,43.0,42.0,,,A,,,,,,False,cue1.png,Easy,cue2.png,Hard,Left,Easy,Mid,0.016438000020571,,,,,,,,,,,,,21,22,Female,1.5714285714285714,1.5,0.6,1.75,3.1666666666666665,1.875,2.5555555555555554,2.2222222222222223,1.75,3.3333333333333335,1.5,2.5,2.75,2.0,1.0,1.0,0.443708710525626,-0.28301868904430894,,,,,,,,,,,,,,,,,,,0.0004060493507477454,-0.25469129142293684,-4.706825039618376e-06,-0.3931017674695797,,,,,,,,,,
42,240620_153425,FalseCHOICE,9.0,43,2.0,303.0,,,,,,,,,,,44.0,43.0,,,A,,,,,,False,cue2.png,Hard,cue1.png,Easy,Right,Easy,Mid,0.0140668000094592,,,,,,,,,,,,,21,22,Female,1.5714285714285714,1.5,0.6,1.75,3.1666666666666665,1.875,2.5555555555555554,2.2222222222222223,1.75,3.3333333333333335,1.5,2.5,2.75,2.0,1.0,1.0,0.4034996999942354,-1.159037057555306,,,,,,,,,,,,,,,,,,,7.45563481300256e-05,-0.5910372652436171,5.967664404496736e-05,-0.33038803638807207,1.6910000000000003,0.5799747130501682,,,,,,,,
43,240620_153451,FalseCHOICE,9.0,44,2.0,303.0,,,,,,,,,,,45.0,44.0,,,A,,,,,,False,cue1.png,Easy,cue2.png,Hard,Left,Easy,Mid,0.0160395000129938,,,,,,,,,,,,,21,22,Female,1.5714285714285714,1.5,0.6,1.75,3.1666666666666665,1.875,2.5555555555555554,2.2222222222222223,1.75,3.3333333333333335,1.5,2.5,2.75,2.0,1.0,1.0,0.4203876368456373,-0.7911060218852725,,,,,,,,,,,,,,,,,,,-0.00017103888606202376,-0.8402279496856159,4.4858186294469485e-05,-0.34482218831589817,1.6820000000000002,0.5600345215405846,,,,,,,,
44,240620_153517,FalseCHOICE,9.0,45,2.0,303.0,,,,,,,,,,,46.0,45.0,,,A,,,,,,False,cue2.png,Hard,cue1.png,Easy,Right,Easy,Mid,0.017557100043632,,,,,,,,,,,,,21,22,Female,1.5714285714285714,1.5,0.6,1.75,3.1666666666666665,1.875,2.5555555555555554,2.2222222222222223,1.75,3.3333333333333335,1.5,2.5,2.75,2.0,1.0,1.0,0.4101692842148048,-1.013729371284623,,,,,,,,,,,,,,,,,,,,,,,1.6470000000000002,0.4824893323366495,,,,,,,,
45,240620_153543,FalseCHOICE,9.0,46,2.0,303.0,,,,,,,,,,,47.0,46.0,,,A,,,,,,False,cue2.png,Hard,cue1.png,Easy,Right,Easy,Mid,0.0167952999472618,,,,,,,,,,,,,21,22,Female,1.5714285714285714,1.5,0.6,1.75,3.1666666666666665,1.875,2.5555555555555554,2.2222222222222223,1.75,3.3333333333333335,1.5,2.5,2.75,2.0,1.0,1.0,0.4113244894634638,-0.9885613553635263,,,,,,,,,,,,,,,,,,,0.0001380584886013221,-0.5266054699784035,,,0.6380000000000001,-1.7530276935710867,,,,,,,,
46,240620_153610,FalseCHOICE,9.0,47,2.0,303.0,,,,,,,,,,,48.0,47.0,,,A,,,,,,False,cue1.png,Easy,cue2.png,Hard,Left,Easy,Mid,0.0175753999501466,,,,,,,,,,,,,21,22,Female,1.5714285714285714,1.5,0.6,1.75,3.1666666666666665,1.875,2.5555555555555554,2.2222222222222223,1.75,3.3333333333333335,1.5,2.5,2.75,2.0,1.0,1.0,0.4368646473770863,-0.4321276811367495,,,,,,,,,,,,,,,,,,,-3.9508235793500775e-06,-0.6706937614953598,,,1.546,0.2587160720624356,,,,,,,,
47,240620_153636,FalseCHOICE,9.0,48,2.0,303.0,,,,,,,,,,,49.0,48.0,,,A,,,,,,False,cue1.png,Easy,cue2.png,Hard,Left,Easy,Mid,0.0159269999712705,,,,,,,,,,,,,21,22,Female,1.5714285714285714,1.5,0.6,1.75,3.1666666666666665,1.875,2.5555555555555554,2.2222222222222223,1.75,3.3333333333333335,1.5,2.5,2.75,2.0,1.0,1.0,0.4059384684139666,-1.1059045406394474,,,,,,,,,,,,,,,,,,,0.00281503016306248,2.1895563724341494,,,1.4839999999999998,0.12135030832974952,,,,,,,,
48,240620_153703,FalseCHOICE,9.0,49,2.0,303.0,,,,,,,,,,,50.0,49.0,,,A,,,,,,False,cue2.png,Hard,cue1.png,Easy,Right,Easy,Mid,0.0169324000598862,,,,,,,,,,,,,21,22,Female,1.5714285714285714,1.5,0.6,1.75,3.1666666666666665,1.875,2.5555555555555554,2.2222222222222223,1.75,3.3333333333333335,1.5,2.5,2.75,2.0,0.95,0.9473684210526316,0.4339393666596152,-0.49585965582822167,,,,,,,,,,,,,,,,,,,,,-8.550953524647659e-06,-0.3968462013045469,1.809,0.8414127795091495,,,,,,,,
49,240620_153729,FalseCHOICE,9.0,50,2.0,303.0,,,,,,,,,,,51.0,50.0,,,A,,,,,,False,cue1.png,Easy,cue2.png,Hard,Left,Easy,Mid,0.0171204999787732,,,,,,,,,,,,,21,22,Female,1.5714285714285714,1.5,0.6,1.75,3.1666666666666665,1.875,2.5555555555555554,2.2222222222222223,1.75,3.3333333333333335,1.5,2.5,2.75,2.0,0.9178571428571428,0.9285714285714286,0.3858158315691214,-1.5443087506907933,,,,,,,,,,,,,,,,,,,-1.4917310553934707e-05,-0.681820794982435,,,1.685,0.5666812520437788,,,,,,,,
0,240620_144328,OFFLINERATING,9.0,1,1.0,,,,,,,,,,,,,,,,,T0,cue1.png,Easy,56.0,1.824762100004591,,,,,,,,,,,,,,,,,,,,,,21,22,Female,1.5714285714285714,1.5,0.6,1.75,3.1666666666666665,1.875,2.5555555555555554,2.2222222222222223,1.75,3.3333333333333335,1.5,2.5,2.75,2.0,,,,,,,,,,,,,,,,,,,,,,,,,,,,,1.2001856468793275,,,3.919783211178479e-05,1.112840791926955,1.445,-1.0,
1,240620_144336,OFFLINERATING,9.0,2,3.0,,,,,,,,,,,,,,,,,T0,cue2.png,Hard,32.0,1.5856823000358418,,,,,,,,,,,,,,,,,,,,,,21,22,Female,1.5714285714285714,1.5,0.6,1.75,3.1666666666666665,1.875,2.5555555555555554,2.2222222222222223,1.75,3.3333333333333335,1.5,2.5,2.75,2.0,,,,,,,,,,,,,,,,,,,,,,,,,,,,,-1.6100051360576346,,,-0.0003190938741664492,-1.2078438167478005,1.4589999999999999,1.0,
2,240620_150832,OFFLINERATING,9.0,3,1.0,,,,,,,,,,,,,,,,,T1,cue1.png,Easy,59.0,1.7062483000336215,,,,,,,,,,,,,,,,,,,,,,21,22,Female,1.5714285714285714,1.5,0.6,1.75,3.1666666666666665,1.875,2.5555555555555554,2.2222222222222223,1.75,3.3333333333333335,1.5,2.5,2.75,2.0,,,,,,,,,,,,,,,,,,,,,,,,,,,,,1.5514594947464477,-1.2809203276116336e-05,0.06815500921148498,-0.0002496671926417917,-0.7581615371347755,,,
3,240620_150839,OFFLINERATING,9.0,4,3.0,,,,,,,,,,,,,,,,,T1,cue2.png,Hard,44.0,1.185324600082822,,,,,,,,,,,,,,,,,,,,,,21,22,Female,1.5714285714285714,1.5,0.6,1.75,3.1666666666666665,1.875,2.5555555555555554,2.2222222222222223,1.75,3.3333333333333335,1.5,2.5,2.75,2.0,,,,,,,,,,,,,,,,,,,,,,,,,,,,,-0.20490974458915348,-9.698395367625443e-05,-1.402067302226404,-8.937163772015574e-07,0.8531645619556212,,,
4,240620_151351,OFFLINERATING,9.0,5,1.0,,,,,,,,,,,,,,,,,T2,cue1.png,Easy,51.0,1.1535766999004409,,,,,,,,,,,,,,,,,,,,,,21,22,Female,1.5714285714285714,1.5,0.6,1.75,3.1666666666666665,1.875,2.5555555555555554,2.2222222222222223,1.75,3.3333333333333335,1.5,2.5,2.75,2.0,,,,,,,,,,,,,,,,,,,,,,,,,,,,,0.6147292337674605,,,,,,,
5,240620_151358,OFFLINERATING,9.0,6,3.0,,,,,,,,,,,,,,,,,T2,cue2.png,Hard,45.0,1.035115200094879,,,,,,,,,,,,,,,,,,,,,,21,22,Female,1.5714285714285714,1.5,0.6,1.75,3.1666666666666665,1.875,2.5555555555555554,2.2222222222222223,1.75,3.3333333333333335,1.5,2.5,2.75,2.0,,,,,,,,,,,,,,,,,,,,,,,,,,,,,-0.08781846196678006,,,,,,,
6,240620_153746,OFFLINERATING,9.0,7,1.0,,,,,,,,,,,,,,,,,T3,cue1.png,Easy,41.0,1.769847400020808,,,,,,,,,,,,,,,,,,,,,,21,22,Female,1.5714285714285714,1.5,0.6,1.75,3.1666666666666665,1.875,2.5555555555555554,2.2222222222222223,1.75,3.3333333333333335,1.5,2.5,2.75,2.0,,,,,,,,,,,,,,,,,,,,,,,,,,,,,-0.5561835924562738,-2.17492471355934e-05,-0.0879945710956152,,,,,
7,240620_153755,OFFLINERATING,9.0,8,3.0,,,,,,,,,,,,,,,,,T3,cue2.png,Hard,38.0,2.5305674000410363,,,,,,,,,,,,,,,,,,,,,,21,22,Female,1.5714285714285714,1.5,0.6,1.75,3.1666666666666665,1.875,2.5555555555555554,2.2222222222222223,1.75,3.3333333333333335,1.5,2.5,2.75,2.0,,,,,,,,,,,,,,,,,,,,,,,,,,,,,-0.907457440323394,6.469725517124986e-05,1.4219068641105344,,,,,
0,240620_151413,LEARNINGCHECK,9.0,1,,,,,,,,,,,,1.0,1.0,1.0,,,A,,,,,,,,,,,,,,,cue1.png,Easy,Left,Left,Easy,0.0122071000514552,1.0,,,,,,21,22,Female,1.5714285714285714,1.5,0.6,1.75,3.1666666666666665,1.875,2.5555555555555554,2.2222222222222223,1.75,3.3333333333333335,1.5,2.5,2.75,2.0,,,,,,,,,,,,,,,,,,,,,,,,,,,,,,,,,,,,
1,240620_151419,LEARNINGCHECK,9.0,2,,,,,,,,,,,,2.0,2.0,2.0,,,A,,,,,,,,,,,,,,,cue2.png,Hard,Right,Right,Hard,0.0139979999512434,1.0,,,,,,21,22,Female,1.5714285714285714,1.5,0.6,1.75,3.1666666666666665,1.875,2.5555555555555554,2.2222222222222223,1.75,3.3333333333333335,1.5,2.5,2.75,2.0,,,,,,,,,,,,,,,,,,,,,,,,,,,,,,,,,,,,
2,240620_153811,LEARNINGCHECK,9.0,1,,,,,,,,,,,,1.0,1.0,1.0,,,A,,,,,,,,,,,,,,,cue1.png,Easy,Middle,Middle,Mid,0.0156253000022843,1.0,,,,,,21,22,Female,1.5714285714285714,1.5,0.6,1.75,3.1666666666666665,1.875,2.5555555555555554,2.2222222222222223,1.75,3.3333333333333335,1.5,2.5,2.75,2.0,,,,,,,,,,,,,,,,,,,,,,,,,,,,,,,,,,,,
3,240620_153817,LEARNINGCHECK,9.0,2,,,,,,,,,,,,2.0,2.0,2.0,,,A,,,,,,,,,,,,,,,cue2.png,Hard,Middle,Middle,Mid,0.0137967999326065,1.0,,,,,,21,22,Female,1.5714285714285714,1.5,0.6,1.75,3.1666666666666665,1.875,2.5555555555555554,2.2222222222222223,1.75,3.3333333333333335,1.5,2.5,2.75,2.0,,,,,,,,,,,,,,,,,,,,,,,,,,,,,,,,,,,,
0,240620_153831,DEMANDRATING,9.0,-1,,,,,,,,,,,,,,,,,,,,,,,,,,,,,,,,,,,,,,,1.0,MentalDemand,1.0,8.0,4.48519309994299,21,22,Female,1.5714285714285714,1.5,0.6,1.75,3.1666666666666665,1.875,2.5555555555555554,2.2222222222222223,1.75,3.3333333333333335,1.5,2.5,2.75,2.0,,,,,,,,,,,,,,,,,,,,,,,,,,,,,,,,,,,,-1.2264577920527744
1,240620_153836,DEMANDRATING,9.0,-1,,,,,,,,,,,,,,,,,,,,,,,,,,,,,,,,,,,,,,,2.0,Effort,1.0,2.0,3.966562599991448,21,22,Female,1.5714285714285714,1.5,0.6,1.75,3.1666666666666665,1.875,2.5555555555555554,2.2222222222222223,1.75,3.3333333333333335,1.5,2.5,2.75,2.0,,,,,,,,,,,,,,,,,,,,,,,,,,,,,,,,,,,,-1.4532684796241777
2,240620_153843,DEMANDRATING,9.0,-1,,,,,,,,,,,,,,,,,,,,,,,,,,,,,,,,,,,,,,,3.0,Frustration,1.0,12.0,5.229471900034696,21,22,Female,1.5714285714285714,1.5,0.6,1.75,3.1666666666666665,1.875,2.5555555555555554,2.2222222222222223,1.75,3.3333333333333335,1.5,2.5,2.75,2.0,,,,,,,,,,,,,,,,,,,,,,,,,,,,,,,,,,,,-1.075250667005172
3,240620_153849,DEMANDRATING,9.0,-1,,,,,,,,,,,,,,,,,,,,,,,,,,,,,,,,,,,,,,,4.0,MentalDemand,2.0,41.0,4.858737699920312,21,22,Female,1.5714285714285714,1.5,0.6,1.75,3.1666666666666665,1.875,2.5555555555555554,2.2222222222222223,1.75,3.3333333333333335,1.5,2.5,2.75,2.0,,,,,,,,,,,,,,,,,,,,,,,,,,,,,,,,,,,,0.021000989589944827
4,240620_153853,DEMANDRATING,9.0,-1,,,,,,,,,,,,,,,,,,,,,,,,,,,,,,,,,,,,,,,5.0,Effort,2.0,52.0,2.1391095999861136,21,22,Female,1.5714285714285714,1.5,0.6,1.75,3.1666666666666665,1.875,2.5555555555555554,2.2222222222222223,1.75,3.3333333333333335,1.5,2.5,2.75,2.0,,,,,,,,,,,,,,,,,,,,,,,,,,,,,,,,,,,,0.4368205834708512
5,240620_153900,DEMANDRATING,9.0,-1,,,,,,,,,,,,,,,,,,,,,,,,,,,,,,,,,,,,,,,6.0,Frustration,2.0,37.0,5.664530000067316,21,22,Female,1.5714285714285714,1.5,0.6,1.75,3.1666666666666665,1.875,2.5555555555555554,2.2222222222222223,1.75,3.3333333333333335,1.5,2.5,2.75,2.0,,,,,,,,,,,,,,,,,,,,,,,,,,,,,,,,,,,,-0.1302061354576575
6,240620_153906,DEMANDRATING,9.0,-1,,,,,,,,,,,,,,,,,,,,,,,,,,,,,,,,,,,,,,,7.0,MentalDemand,3.0,77.0,3.767162000061944,21,22,Female,1.5714285714285714,1.5,0.6,1.75,3.1666666666666665,1.875,2.5555555555555554,2.2222222222222223,1.75,3.3333333333333335,1.5,2.5,2.75,2.0,,,,,,,,,,,,,,,,,,,,,,,,,,,,,,,,,,,,1.3818651150183656
7,240620_153910,DEMANDRATING,9.0,-1,,,,,,,,,,,,,,,,,,,,,,,,,,,,,,,,,,,,,,,8.0,Effort,3.0,70.0,2.8202211000025272,21,22,Female,1.5714285714285714,1.5,0.6,1.75,3.1666666666666665,1.875,2.5555555555555554,2.2222222222222223,1.75,3.3333333333333335,1.5,2.5,2.75,2.0,,,,,,,,,,,,,,,,,,,,,,,,,,,,,,,,,,,,1.1172526461850616
8,240620_153914,DEMANDRATING,9.0,-1,,,,,,,,,,,,,,,,,,,,,,,,,,,,,,,,,,,,,,,9.0,Frustration,3.0,65.0,2.1666631000116467,21,22,Female,1.5714285714285714,1.5,0.6,1.75,3.1666666666666665,1.875,2.5555555555555554,2.2222222222222223,1.75,3.3333333333333335,1.5,2.5,2.75,2.0,,,,,,,,,,,,,,,,,,,,,,,,,,,,,,,,,,,,0.9282437398755587
