,END,Phase,Block,TrialN,NbackLevel,ISI,Letter_Resp,Letter_RT,Letter_Accuracy,Trial_A_measure,Trial_ACC,Trial_RT,TrialCountCali,CaliEnd_A_measure,ISI_calibrated,TrialIndex,TrialNumber_total,TrialNumber_valid,CueLearning,TrialDemandLearning,CueMapping,OfflineRatingTimePoint,CueFigure,TrialDemand,OfflineRating,OfflineRatingRT,PhaseType,CueLeft,CueDemandLeft,CueRight,CueDemandRight,Choice,ChoiceDemand,TaskDemand,ChoiceRT,CueCheck,CueDemandCheck,CorrectAnswer,Answer,AnswerDemand,AnswerRT,AnswerACC,DemandRatingQuesIndex,QuesTLX,DemandLevel,DemandRating,DemandRatingRT,PID,Age,Gender,BAI_bis,BAI_bas_d,BAI_bas_rr,BAI_bas_fs,NFC,BFI_ext,BFI_agr,BFI_con,BFI_neu,BFI_open,UPPS_lps,UPPS_lpm,UPPS_pu,UPPS_ss,Task_A_measure,Task_ACC,Task_RT,Task_RT_z,cue_i_on_zyg_values,cue_i_on_zyg_zvalues,cue_e_on_zyg_values,cue_e_on_zyg_zvalues,cue_i_on_cor_values,cue_i_on_cor_zvalues,cue_e_on_cor_values,cue_e_on_cor_zvalues,cue_i_on_scr_values,cue_i_on_scr_zvalues,cue_e_on_scr_values,cue_e_on_scr_zvalues,cue_e_true_zyg_values,cue_e_true_zyg_zvalues,cue_e_true_cor_values,cue_e_true_cor_zvalues,cue_e_true_scr_values,cue_e_true_scr_zvalues,cue_e_false_zyg_values,cue_e_false_zyg_zvalues,cue_e_false_cor_values,cue_e_false_cor_zvalues,cue_e_false_scr_values,cue_e_false_scr_zvalues,OfflineRating_z,cue_i_off_zyg_values,cue_i_off_zyg_zvalues,cue_i_off_cor_values,cue_i_off_cor_zvalues,cue_i_off_scr_values,cue_i_off_scr_zvalues,DemandRating_z
0,240621_154112,PRACTICE,0.0,1,1.0,2583.0,,,,,,,,,,19.0,1.0,1.0,cue2.png,Easy,B,,,,,,,,,,,,,,,,,,,,,,,,,,,22,33,Female,1.2857142857142858,1.0,1.6,1.5,2.0,1.875,2.111111111111111,2.111111111111111,2.125,2.3333333333333335,1.75,1.75,1.25,1.5,,,,,,,,,,,,,,,,,,,,,,,,,,,,,,,,,,,,
1,240621_154344,PRACTICE,0.0,1,1.0,2583.0,,,,,,,,,,25.0,1.0,1.0,cue2.png,Easy,B,,,,,,,,,,,,,,,,,,,,,,,,,,,22,33,Female,1.2857142857142858,1.0,1.6,1.5,2.0,1.875,2.111111111111111,2.111111111111111,2.125,2.3333333333333335,1.75,1.75,1.25,1.5,,,,,,,,,,,,,,,,,,,,,,,,,,,,,,,,,,,,
2,240621_154512,PRACTICE,0.0,1,1.0,2583.0,,,,,,,,,,45.0,1.0,1.0,cue2.png,Easy,B,,,,,,,,,,,,,,,,,,,,,,,,,,,22,33,Female,1.2857142857142858,1.0,1.6,1.5,2.0,1.875,2.111111111111111,2.111111111111111,2.125,2.3333333333333335,1.75,1.75,1.25,1.5,,,,,,,,,,,,,,,,,,,,,,,,,,,,,,,,,,,,
3,240621_154647,PRACTICE,0.0,1,1.0,2583.0,,,,,,,,,,11.0,1.0,1.0,cue2.png,Easy,B,,,,,,,,,,,,,,,,,,,,,,,,,,,22,33,Female,1.2857142857142858,1.0,1.6,1.5,2.0,1.875,2.111111111111111,2.111111111111111,2.125,2.3333333333333335,1.75,1.75,1.25,1.5,,,,,,,,,,,,,,,,,,,,,,,,,,,,,,,,,,,,
4,240621_154812,PRACTICE,0.0,1,3.0,2583.0,,,,,,,,,,40.0,1.0,1.0,cue1.png,Hard,B,,,,,,,,,,,,,,,,,,,,,,,,,,,22,33,Female,1.2857142857142858,1.0,1.6,1.5,2.0,1.875,2.111111111111111,2.111111111111111,2.125,2.3333333333333335,1.75,1.75,1.25,1.5,,,,,,,,,,,,,,,,,,,,,,,,,,,,,,,,,,,,
5,240621_154945,PRACTICE,0.0,1,3.0,2583.0,,,,,,,,,,7.0,1.0,1.0,cue1.png,Hard,B,,,,,,,,,,,,,,,,,,,,,,,,,,,22,33,Female,1.2857142857142858,1.0,1.6,1.5,2.0,1.875,2.111111111111111,2.111111111111111,2.125,2.3333333333333335,1.75,1.75,1.25,1.5,,,,,,,,,,,,,,,,,,,,,,,,,,,,,,,,,,,,
6,240621_155108,PRACTICE,0.0,1,1.0,2583.0,,,,,,,,,,11.0,1.0,1.0,cue2.png,Easy,B,,,,,,,,,,,,,,,,,,,,,,,,,,,22,33,Female,1.2857142857142858,1.0,1.6,1.5,2.0,1.875,2.111111111111111,2.111111111111111,2.125,2.3333333333333335,1.75,1.75,1.25,1.5,,,,,,,,,,,,,,,,,,,,,,,,,,,,,,,,,,,,
0,240621_155224,LEARNING,1.0,1,1.0,2583.0,,,,,,,,,,1.0,1.0,1.0,cue2.png,Easy,B,,,,,,,,,,,,,,,,,,,,,,,,,,,22,33,Female,1.2857142857142858,1.0,1.6,1.5,2.0,1.875,2.111111111111111,2.111111111111111,2.125,2.3333333333333335,1.75,1.75,1.25,1.5,1.0,1.0,0.905124266651304,0.45300993165025816,0.009743833727998159,-0.3560345149591224,0.03251210104024371,0.07262557105298685,0.017543632243820436,-0.009791423245194756,0.05695133564955155,1.6651725500595136,2.799121510738175e+43,-0.17772402506326626,,,,,,,,,,,,,,,,,,,,,,
1,240621_155246,LEARNING,1.0,2,3.0,2583.0,,,,,,,,,,2.0,2.0,2.0,cue1.png,Hard,B,,,,,,,,,,,,,,,,,,,,,,,,,,,22,33,Female,1.2857142857142858,1.0,1.6,1.5,2.0,1.875,2.111111111111111,2.111111111111111,2.125,2.3333333333333335,1.75,1.75,1.25,1.5,1.0,1.0,1.1186129666554432,1.1187626600013598,0.008321795656626874,-0.4102016321870504,0.006453592878966921,-0.20626806722401064,0.012407845733816567,-0.37392295831355804,0.01112423424526456,-0.5654071239871911,,,1.8062561792319632e+42,-0.17126450036891944,,,,,,,,,,,,,,,,,,,,
2,240621_155305,LEARNING,1.0,3,1.0,2583.0,,,,,,,,,,3.0,3.0,3.0,cue2.png,Easy,B,,,,,,,,,,,,,,,,,,,,,,,,,,,22,33,Female,1.2857142857142858,1.0,1.6,1.5,2.0,1.875,2.111111111111111,2.111111111111111,2.125,2.3333333333333335,1.75,1.75,1.25,1.5,1.0,1.0,0.735266016679816,-0.07668364627339343,0.00727488972537977,-0.45007952114524913,0.007487886173452263,-0.19519844581056495,0.009440392172212382,-0.5843178839060161,0.009913888495460408,-0.6243192643005081,-2.6662648197771932e+42,-0.179844381104492,-9.300927094977972e+42,-0.17237144393407045,,,,,,,,,,,,,,,,,,,,
3,240621_155323,LEARNING,1.0,4,3.0,2583.0,,,,,,,,,,4.0,4.0,4.0,cue1.png,Hard,B,,,,,,,,,,,,,,,,,,,,,,,,,,,22,33,Female,1.2857142857142858,1.0,1.6,1.5,2.0,1.875,2.111111111111111,2.111111111111111,2.125,2.3333333333333335,1.75,1.75,1.25,1.5,1.0,1.0,0.5787536833280077,-0.5647587197903675,0.03604210481135647,0.6456978305683357,,,0.02137414165115418,0.2617948796257148,,,-3.161511731169033e+42,-0.17987863374962015,-1.062064156477224e+43,-0.1725029668777467,,,,,,,,,,,,,,,,,,,,
4,240621_155341,LEARNING,1.0,5,3.0,2583.0,,,,,,,,,,5.0,5.0,5.0,cue1.png,Hard,B,,,,,,,,,,,,,,,,,,,,,,,,,,,22,33,Female,1.2857142857142858,1.0,1.6,1.5,2.0,1.875,2.111111111111111,2.111111111111111,2.125,2.3333333333333335,1.75,1.75,1.25,1.5,1.0,1.0,0.4893581999931484,-0.8435336007620261,0.0521616737961712,1.2597113372687192,,,0.010260037070762972,-0.526204378888076,0.010105118816628742,-0.6150113557837454,8.309997603100281e+46,5.567764034604577,6.022864851472146e+46,5.830951708870732,,,,,,,,,,,,,,,,,,,,
5,240621_155401,LEARNING,1.0,6,1.0,2583.0,,,,,,,,,,6.0,6.0,6.0,cue2.png,Easy,B,,,,,,,,,,,,,,,,,,,,,,,,,,,22,33,Female,1.2857142857142858,1.0,1.6,1.5,2.0,1.875,2.111111111111111,2.111111111111111,2.125,2.3333333333333335,1.75,1.75,1.25,1.5,1.0,1.0,0.945353316667024,0.5784620038508913,0.008418592106439825,-0.40651454057549513,0.006832983449372262,-0.20220760390610032,0.011904239796642326,-0.4096290381156681,0.011993113477994925,-0.5231154604007976,-4.040989382986141e+41,-0.1796879234600788,-3.860326781943419e+41,-0.1714829842080504,,,,,,,,,,,,,,,,,,,,
6,240621_155420,LEARNING,1.0,7,3.0,2583.0,,,,,,,,,,7.0,7.0,7.0,cue1.png,Hard,B,,,,,,,,,,,,,,,,,,,,,,,,,,,22,33,Female,1.2857142857142858,1.0,1.6,1.5,2.0,1.875,2.111111111111111,2.111111111111111,2.125,2.3333333333333335,1.75,1.75,1.25,1.5,1.0,1.0,0.6685309000119256,-0.28479342443783806,0.0063481262943245,-0.4853810397354787,0.03970630726299748,0.14962224083780484,,,0.030206372124391864,0.36339324929053707,,,,,,,,,,,,,,,,,,,,,,,,
7,240621_155439,LEARNING,1.0,8,3.0,2583.0,,,,,,,,,,8.0,8.0,8.0,cue1.png,Hard,B,,,,,,,,,,,,,,,,,,,,,,,,,,,22,33,Female,1.2857142857142858,1.0,1.6,1.5,2.0,1.875,2.111111111111111,2.111111111111111,2.125,2.3333333333333335,1.75,1.75,1.25,1.5,1.0,1.0,0.7360121166760413,-0.07435697461301924,0.009327051399470182,-0.37191024831845054,0.006233881114529187,-0.20861955307949626,0.014740851343914556,-0.2085109201625711,0.010223174334019109,-0.6092651438386149,,,,,,,,,,,,,,,,,,,,,,,,
8,240621_155457,LEARNING,1.0,9,1.0,2583.0,,,,,,,,,,9.0,9.0,9.0,cue2.png,Easy,B,,,,,,,,,,,,,,,,,,,,,,,,,,,22,33,Female,1.2857142857142858,1.0,1.6,1.5,2.0,1.875,2.111111111111111,2.111111111111111,2.125,2.3333333333333335,1.75,1.75,1.25,1.5,1.0,1.0,0.602053866663482,-0.49209838401441236,0.011568953549409603,-0.28651353566067383,0.01257877626169251,-0.14071271508529304,0.04781775120981832,2.136668790873549,0.030506411260493038,0.3779972975043131,,,,,,,,,,,,,,,,,,,,,,,,
9,240621_155515,LEARNING,1.0,10,1.0,2583.0,,,,,,,,,,10.0,10.0,10.0,cue2.png,Easy,B,,,,,,,,,,,,,,,,,,,,,,,,,,,22,33,Female,1.2857142857142858,1.0,1.6,1.5,2.0,1.875,2.111111111111111,2.111111111111111,2.125,2.3333333333333335,1.75,1.75,1.25,1.5,1.0,1.0,0.5984856999906091,-0.5032255148537992,0.007688616658610176,-0.43432017141769086,0.0062891234409012675,-0.20802831687773662,0.014732377453207676,-0.2091117260615483,0.010477979911285323,-0.5968627853200247,1.3280809362365462e+42,-0.17956812111265213,,,,,,,,,,,,,,,,,,,,,,
10,240621_155535,LEARNING,1.0,11,3.0,2583.0,,,,,,,,,,11.0,11.0,11.0,cue1.png,Hard,B,,,,,,,,,,,,,,,,,,,,,,,,,,,22,33,Female,1.2857142857142858,1.0,1.6,1.5,2.0,1.875,2.111111111111111,2.111111111111111,2.125,2.3333333333333335,1.75,1.75,1.25,1.5,1.0,1.0,0.7649218000005931,0.015796277286090836,0.006676574901340099,-0.47287004262665483,0.008743711450217928,-0.18175785748871093,0.009387130843939991,-0.5880941563787578,0.007458521428511148,-0.7438313369394367,1.0932828184471826e+42,-0.17958436039940062,,,,,,,,,,,,,,,,,,,,,,
11,240621_155553,LEARNING,1.0,12,1.0,2583.0,,,,,,,,,,12.0,12.0,12.0,cue2.png,Easy,B,,,,,,,,,,,,,,,,,,,,,,,,,,,22,33,Female,1.2857142857142858,1.0,1.6,1.5,2.0,1.875,2.111111111111111,2.111111111111111,2.125,2.3333333333333335,1.75,1.75,1.25,1.5,1.0,1.0,0.5766633500073416,-0.5712773088836999,0.01153516889245752,-0.287800433325702,0.011542069887371147,-0.15180816271299305,0.013881639186781376,-0.2694297767226871,0.055663428733355544,1.6024852121895639,4.873131834418152e+41,-0.17962627093410327,2.8216226301576684e+42,-0.17116330879483854,,,,,,,,,,,,,,,,,,,,
12,240621_155612,LEARNING,1.0,13,1.0,2583.0,,,,,,,,,,13.0,13.0,13.0,cue2.png,Easy,B,,,,,,,,,,,,,,,,,,,,,,,,,,,22,33,Female,1.2857142857142858,1.0,1.6,1.5,2.0,1.875,2.111111111111111,2.111111111111111,2.125,2.3333333333333335,1.75,1.75,1.25,1.5,0.6875,0.75,0.6397294666579304,-0.3746091047781697,0.005962588953179742,-0.5000666144566911,0.006589045006783268,-0.20481837806662448,0.015890118252934807,-0.1270269404508635,0.014440253936073344,-0.4040038081675094,,,,,,,,,,,,,,,,,,,,,,,,
13,240621_155630,LEARNING,1.0,14,1.0,2583.0,,,,,,,,,,14.0,14.0,14.0,cue2.png,Easy,B,,,,,,,,,,,,,,,,,,,,,,,,,,,22,33,Female,1.2857142857142858,1.0,1.6,1.5,2.0,1.875,2.111111111111111,2.111111111111111,2.125,2.3333333333333335,1.75,1.75,1.25,1.5,0.6875,0.75,0.6885187333488526,-0.22246246932111172,0.0747700179530376,2.1208899884797967,0.006593028060116262,-0.20477574906312912,,,0.01595052629138511,-0.330493096933263,-6.941877052999648e+41,-0.17970798680093608,-2.2737258574786286e+42,-0.17167111199582535,,,,,,,,,,,,,,,,,,,,
14,240621_155649,LEARNING,1.0,15,3.0,2583.0,,,,,,,,,,15.0,15.0,15.0,cue1.png,Hard,B,,,,,,,,,,,,,,,,,,,,,,,,,,,22,33,Female,1.2857142857142858,1.0,1.6,1.5,2.0,1.875,2.111111111111111,2.111111111111111,2.125,2.3333333333333335,1.75,1.75,1.25,1.5,1.0,1.0,0.5977233333008675,-0.5056029133001321,0.008341065336657426,-0.4094676272133629,0.008957366849455682,-0.17947119045228063,0.014313589629367567,-0.23880413108379744,0.060671802700125115,1.8462618602421026,,,,,,,,,,,,,,,,,,,,,,,,
15,240621_155707,LEARNING,1.0,16,1.0,2583.0,,,,,,,,,,16.0,16.0,16.0,cue2.png,Easy,B,,,,,,,,,,,,,,,,,,,,,,,,,,,22,33,Female,1.2857142857142858,1.0,1.6,1.5,2.0,1.875,2.111111111111111,2.111111111111111,2.125,2.3333333333333335,1.75,1.75,1.25,1.5,1.0,1.0,0.6510416500192756,-0.33933268529424626,0.005938271021783702,-0.5009929133140767,0.03513660031043103,0.10071452171692243,0.012003701189236219,-0.40257714265725963,0.06267289131559921,1.943662469376531,,,,,,,,,,,,,,,,,,,,,,,,
16,240621_155728,LEARNING,1.0,17,1.0,2583.0,,,,,,,,,,17.0,17.0,17.0,cue2.png,Easy,B,,,,,,,,,,,,,,,,,,,,,,,,,,,22,33,Female,1.2857142857142858,1.0,1.6,1.5,2.0,1.875,2.111111111111111,2.111111111111111,2.125,2.3333333333333335,1.75,1.75,1.25,1.5,1.0,1.0,0.9414979666277457,0.5664393075332484,0.009818449500505188,-0.3531923116610467,0.008739146272718185,-0.18180671673093632,0.017849178409549353,0.011872054032220202,0.013019741063085101,-0.4731455833205164,,,,,,,,,,,,,,,,,,,,,,,,
17,240621_155747,LEARNING,1.0,18,3.0,2583.0,,,,,,,,,,18.0,18.0,18.0,cue1.png,Hard,B,,,,,,,,,,,,,,,,,,,,,,,,,,,22,33,Female,1.2857142857142858,1.0,1.6,1.5,2.0,1.875,2.111111111111111,2.111111111111111,2.125,2.3333333333333335,1.75,1.75,1.25,1.5,1.0,1.0,0.7409180833492428,-0.05905798830685797,0.006447698465265066,-0.4815882176130893,0.005371195358163817,-0.21785252865098392,0.01141957710086373,-0.4439920263474546,0.008125536769841894,-0.7113651582578737,,,,,,,,,,,,,,,,,,,,,,,,
18,240621_155805,LEARNING,1.0,19,3.0,2583.0,,,,,,,,,,19.0,19.0,19.0,cue1.png,Hard,B,,,,,,,,,,,,,,,,,,,,,,,,,,,22,33,Female,1.2857142857142858,1.0,1.6,1.5,2.0,1.875,2.111111111111111,2.111111111111111,2.125,2.3333333333333335,1.75,1.75,1.25,1.5,1.0,1.0,0.6366566666789973,-0.3841914619221882,0.017450449358619887,-0.06248038254976745,0.007962636101623337,-0.19011738998342712,0.06565226883026176,3.4011509233932973,0.03488716955042625,0.5912254986997418,,,1.694431302236512e+42,-0.17127564485307517,,,,,,,,,,,,,,,,,,,,
19,240621_155824,LEARNING,1.0,20,3.0,2583.0,,,,,,,,,,20.0,20.0,20.0,cue1.png,Hard,B,,,,,,,,,,,,,,,,,,,,,,,,,,,22,33,Female,1.2857142857142858,1.0,1.6,1.5,2.0,1.875,2.111111111111111,2.111111111111111,2.125,2.3333333333333335,1.75,1.75,1.25,1.5,1.0,1.0,0.6302259500371292,-0.4042452968534681,0.007540266503646406,-0.4399710048211558,0.006482114183577625,-0.20596281527474108,0.01838710339145843,0.050011382649683744,0.033977578312729705,0.5469522266767572,,,,,,,,,,,,,,,,,,,,,,,,
20,240621_155842,LEARNING,1.0,21,1.0,2583.0,,,,,,,,,,21.0,21.0,21.0,cue2.png,Easy,B,,,,,,,,,,,,,,,,,,,,,,,,,,,22,33,Female,1.2857142857142858,1.0,1.6,1.5,2.0,1.875,2.111111111111111,2.111111111111111,2.125,2.3333333333333335,1.75,1.75,1.25,1.5,1.0,1.0,0.5278287833595338,-0.7235652097561649,,,0.005581882269501269,-0.2155976321359347,0.010563285758594956,-0.5047037947043996,0.019470341174806862,-0.15917029241844,2.021329213571948e+41,-0.17964599478919463,9.61957534606916e+41,-0.17134864329954916,,,,,,,,,,,,,,,,,,,,
21,240621_155902,LEARNING,1.0,22,3.0,2583.0,,,,,,,,,,22.0,22.0,22.0,cue1.png,Hard,B,,,,,,,,,,,,,,,,,,,,,,,,,,,22,33,Female,1.2857142857142858,1.0,1.6,1.5,2.0,1.875,2.111111111111111,2.111111111111111,2.125,2.3333333333333335,1.75,1.75,1.25,1.5,1.0,0.8333333333333334,0.6003054199740291,-0.4975508185173026,0.006356028315019473,-0.4850800423923419,0.005636254121335499,-0.2150157122699141,0.016823652484179392,-0.060838587021487894,0.014330184094191196,-0.4093613268519638,-2.1464801831948673e+40,-0.17966145942569753,,,,,,,,,,,,,,,,,,,,,,
22,240621_155923,LEARNING,1.0,23,3.0,2583.0,,,,,,,,,,23.0,23.0,23.0,cue1.png,Hard,B,,,,,,,,,,,,,,,,,,,,,,,,,,,22,33,Female,1.2857142857142858,1.0,1.6,1.5,2.0,1.875,2.111111111111111,2.111111111111111,2.125,2.3333333333333335,1.75,1.75,1.25,1.5,0.6875,0.5833333333333334,0.6009597799973563,-0.4955102328992089,0.004998337040814272,-0.5367961137759235,0.014351355588380207,-0.12174151786652256,0.013908802622818203,-0.2675038665154473,0.03336467408553778,0.5171198421396956,-2.1125326406901434e+41,-0.1796745857202728,-5.7614579514318865e+41,-0.1715019309100415,,,,,,,,,,,,,,,,,,,,
23,240621_155941,LEARNING,1.0,24,3.0,2583.0,,,,,,,,,,24.0,24.0,24.0,cue1.png,Hard,B,,,,,,,,,,,,,,,,,,,,,,,,,,,22,33,Female,1.2857142857142858,1.0,1.6,1.5,2.0,1.875,2.111111111111111,2.111111111111111,2.125,2.3333333333333335,1.75,1.75,1.25,1.5,1.0,1.0,0.5975186499999836,-0.5062412068773036,,,,,,,,,-3.34011063142979e+41,-0.17968307598892802,-1.1213600646212988e+42,-0.17155626704660534,,,,,,,,,,,,,,,,,,,,
24,240621_160000,LEARNING,1.0,25,1.0,2583.0,,,,,,,,,,25.0,25.0,25.0,cue2.png,Easy,B,,,,,,,,,,,,,,,,,,,,,,,,,,,22,33,Female,1.2857142857142858,1.0,1.6,1.5,2.0,1.875,2.111111111111111,2.111111111111111,2.125,2.3333333333333335,1.75,1.75,1.25,1.5,1.0,1.0,0.5968579500331543,-0.508301563259302,0.13352005878554096,4.358748744153636,0.01095669131901674,-0.15807323198278128,,,0.022502881682281557,-0.01156498880079619,-3.5005239841659756e+41,-0.17968418545200973,-1.2946637127709493e+42,-0.17157353851439341,,,,,,,,,,,,,,,,,,,,
25,240621_160018,LEARNING,1.0,26,1.0,2583.0,,,,,,,,,,26.0,26.0,26.0,cue2.png,Easy,B,,,,,,,,,,,,,,,,,,,,,,,,,,,22,33,Female,1.2857142857142858,1.0,1.6,1.5,2.0,1.875,2.111111111111111,2.111111111111111,2.125,2.3333333333333335,1.75,1.75,1.25,1.5,1.0,1.0,0.5960176333707446,-0.510922044393279,0.08312444268632774,2.439119938162961,0.020313264444292538,-0.05793362673129296,0.07013766335042002,3.7191691254410335,0.020047080459695978,-0.13109819344912688,-2.7139021869133337e+41,-0.1796787449582577,-1.1041067965396834e+42,-0.1715545475832987,,,,,,,,,,,,,,,,,,,,
26,240621_160037,LEARNING,1.0,27,3.0,2583.0,,,,,,,,,,27.0,27.0,27.0,cue1.png,Hard,B,,,,,,,,,,,,,,,,,,,,,,,,,,,22,33,Female,1.2857142857142858,1.0,1.6,1.5,2.0,1.875,2.111111111111111,2.111111111111111,2.125,2.3333333333333335,1.75,1.75,1.25,1.5,1.0,1.0,0.7225780000250476,-0.11625052594951908,0.04089004982426579,0.8303618076555186,0.006928930761012536,-0.20118071876514598,0.010934570405745466,-0.478379404418533,0.010450216743682652,-0.5982141244936579,1.6362630457467836e+42,-0.17954680638622159,7.222686348487767e+41,-0.17137253073155378,,,,,,,,,,,,,,,,,,,,
27,240621_160056,LEARNING,1.0,28,1.0,2583.0,,,,,,,,,,28.0,28.0,28.0,cue2.png,Easy,B,,,,,,,,,,,,,,,,,,,,,,,,,,,22,33,Female,1.2857142857142858,1.0,1.6,1.5,2.0,1.875,2.111111111111111,2.111111111111111,2.125,2.3333333333333335,1.75,1.75,1.25,1.5,1.0,1.0,0.6185777333254615,-0.4405696177944234,0.007322255254376672,-0.4482753119518455,0.023686246809918605,-0.02183396523219369,0.00797799014042807,-0.6880034042607776,0.09270655245308582,3.4055152162800724,5.283363434211126e+40,-0.17965632074050977,7.408987905400064e+40,-0.17143712832439809,,,,,,,,,,,,,,,,,,,,
28,240621_160114,LEARNING,1.0,29,1.0,2583.0,,,,,,,,,,29.0,29.0,29.0,cue2.png,Easy,B,,,,,,,,,,,,,,,,,,,,,,,,,,,22,33,Female,1.2857142857142858,1.0,1.6,1.5,2.0,1.875,2.111111111111111,2.111111111111111,2.125,2.3333333333333335,1.75,1.75,1.25,1.5,1.0,1.0,0.6343896166654304,-0.39126113226919657,,,,,,,,,,,6.456000569004025e+41,-0.17138017153362878,,,,,,,,,,,,,,,,,,,,
29,240621_160134,LEARNING,1.0,30,3.0,2583.0,,,,,,,,,,30.0,30.0,30.0,cue1.png,Hard,B,,,,,,,,,,,,,,,,,,,,,,,,,,,22,33,Female,1.2857142857142858,1.0,1.6,1.5,2.0,1.875,2.111111111111111,2.111111111111111,2.125,2.3333333333333335,1.75,1.75,1.25,1.5,1.0,1.0,0.8273472499956066,0.21046659778511373,,,,,0.01897492952833418,0.09168874465780807,,,2.859965695890891e+41,-0.17964019454750516,9.963543197265992e+41,-0.17134521531074134,,,,,,,,,,,,,,,,,,,,
30,240621_160155,LEARNING,1.0,31,3.0,2583.0,,,,,,,,,,31.0,31.0,31.0,cue1.png,Hard,B,,,,,,,,,,,,,,,,,,,,,,,,,,,22,33,Female,1.2857142857142858,1.0,1.6,1.5,2.0,1.875,2.111111111111111,2.111111111111111,2.125,2.3333333333333335,1.75,1.75,1.25,1.5,1.0,0.8333333333333334,0.6194306600140408,-0.43790981298979387,,,0.001273395204589296,-0.26170962080258775,0.013882813655171623,-0.26934650593699605,0.004666715745908467,-0.8797191591816497,,,,,,,,,,,,,,,,,,,,,,,,
31,240621_160220,LEARNING,1.0,32,1.0,2583.0,,,,,,,,,,32.0,32.0,32.0,cue2.png,Easy,B,,,,,,,,,,,,,,,,,,,,,,,,,,,22,33,Female,1.2857142857142858,1.0,1.6,1.5,2.0,1.875,2.111111111111111,2.111111111111111,2.125,2.3333333333333335,1.75,1.75,1.25,1.5,0.6875,0.5833333333333334,1.5170411800267174,2.3612390538284704,0.004413873675164964,-0.5590590167740315,0.0059978418352716915,-0.21114578570037307,,,,,2.3725226763896734e+41,-0.17964356583814486,9.421956596849078e+41,-0.17135061277099303,,,,,,,,,,,,,,,,,,,,
32,240621_160244,LEARNING,1.0,33,1.0,2583.0,,,,,,,,,,33.0,33.0,33.0,cue2.png,Easy,B,,,,,,,,,,,,,,,,,,,,,,,,,,,22,33,Female,1.2857142857142858,1.0,1.6,1.5,2.0,1.875,2.111111111111111,2.111111111111111,2.125,2.3333333333333335,1.75,1.75,1.25,1.5,0.875,0.8333333333333334,1.2855153600219638,1.6392385622385066,0.005792095742389444,-0.506560903126852,0.5917177184904912,6.05757636832813,,,0.03236493547807337,0.46845875407530274,1.1914885082792067e+41,-0.17965173419685926,4.721576834529342e+41,-0.171397456826801,,,,,,,,,,,,,,,,,,,,
33,240621_160307,LEARNING,1.0,34,1.0,2583.0,,,,,,,,,,34.0,34.0,34.0,cue2.png,Easy,B,,,,,,,,,,,,,,,,,,,,,,,,,,,22,33,Female,1.2857142857142858,1.0,1.6,1.5,2.0,1.875,2.111111111111111,2.111111111111111,2.125,2.3333333333333335,1.75,1.75,1.25,1.5,0.6875,0.5833333333333334,1.0495492600137368,0.9033913025203099,0.008612627631808187,-0.39912349721272816,,,0.020659229411692275,0.21110700724485365,0.05660062022528163,1.6481018937714427,-3.1872180619286147e+40,-0.1796621792287778,-5.797784626069138e+40,-0.17145029021387917,,,,,,,,,,,,,,,,,,,,
34,240621_160326,LEARNING,1.0,35,3.0,2583.0,,,,,,,,,,35.0,35.0,35.0,cue1.png,Hard,B,,,,,,,,,,,,,,,,,,,,,,,,,,,22,33,Female,1.2857142857142858,1.0,1.6,1.5,2.0,1.875,2.111111111111111,2.111111111111111,2.125,2.3333333333333335,1.75,1.75,1.25,1.5,0.6875,0.75,0.6548824333003722,-0.3273554146080423,,,0.0048584453675958785,-0.22334028372548556,0.011886838330304655,-0.4108628165520641,0.005134837762272153,-0.8569338766157113,-1.7062448163139716e+41,-0.1796717757213918,-5.80769090595345e+41,-0.1715023916683656,,,,,,,,,,,,,,,,,,,,
35,240621_160346,LEARNING,1.0,36,3.0,2583.0,,,,,,,,,,36.0,36.0,36.0,cue1.png,Hard,B,,,,,,,,,,,,,,,,,,,,,,,,,,,22,33,Female,1.2857142857142858,1.0,1.6,1.5,2.0,1.875,2.111111111111111,2.111111111111111,2.125,2.3333333333333335,1.75,1.75,1.25,1.5,1.0,0.8333333333333334,0.5305751199601219,-0.7150009106397406,,,,,0.01672355112849437,-0.067935856395324,0.03215734173530851,0.45835437546786006,-2.5448323340371397e+41,-0.17967757562442863,-8.951044237243495e+41,-0.17153371837521075,,,,,,,,,,,,,,,,,,,,
36,240621_160413,LEARNING,1.0,37,1.0,2583.0,,,,,,,,,,37.0,37.0,37.0,cue2.png,Easy,B,,,,,,,,,,,,,,,,,,,,,,,,,,,22,33,Female,1.2857142857142858,1.0,1.6,1.5,2.0,1.875,2.111111111111111,2.111111111111111,2.125,2.3333333333333335,1.75,1.75,1.25,1.5,0.1875,0.4166666666666667,1.3595200499694329,1.8700181034617642,,,0.00656513913260224,-0.20507423293695226,0.0440172587627425,1.867210715450473,,,-2.6917002292365917e+41,-0.17967859140338235,-1.0068095367814502e+42,-0.17154485092367422,,,,,,,,,,,,,,,,,,,,
37,240621_160435,LEARNING,1.0,38,3.0,2583.0,,,,,,,,,,38.0,38.0,38.0,cue1.png,Hard,B,,,,,,,,,,,,,,,,,,,,,,,,,,,22,33,Female,1.2857142857142858,1.0,1.6,1.5,2.0,1.875,2.111111111111111,2.111111111111111,2.125,2.3333333333333335,1.75,1.75,1.25,1.5,0.125,0.1666666666666666,0.3969862750382162,-1.1315903506536924,,,,,,,,,-1.900612408636566e+41,-0.17967312002137859,-7.368548353018276e+41,-0.17151794719729216,,,,,,,,,,,,,,,,,,,,
38,240621_160500,LEARNING,1.0,39,3.0,2583.0,,,,,,,,,,39.0,39.0,39.0,cue1.png,Hard,B,,,,,,,,,,,,,,,,,,,,,,,,,,,22,33,Female,1.2857142857142858,1.0,1.6,1.5,2.0,1.875,2.111111111111111,2.111111111111111,2.125,2.3333333333333335,1.75,1.75,1.25,1.5,0.125,0.0,0.3669787332958852,-1.2251672134369644,,,,,,,,,,,-2.1077698791372534e+41,-0.1714655181994483,,,,,,,,,,,,,,,,,,,,
39,240621_160519,LEARNING,1.0,40,3.0,2583.0,,,,,,,,,,40.0,40.0,40.0,cue1.png,Hard,B,,,,,,,,,,,,,,,,,,,,,,,,,,,22,33,Female,1.2857142857142858,1.0,1.6,1.5,2.0,1.875,2.111111111111111,2.111111111111111,2.125,2.3333333333333335,1.75,1.75,1.25,1.5,1.0,1.0,0.6975492166626888,-0.19430140550649783,0.022081132044863068,0.11390781475720951,0.01045332647408482,-0.16346054165204366,0.022128470820863833,0.31527744514478134,,,,,3.162531184493494e+41,-0.17141299429933096,,,,,,,,,,,,,,,,,,,,
40,240621_160539,LEARNING,1.0,41,1.0,2583.0,,,,,,,,,,41.0,41.0,41.0,cue2.png,Easy,B,,,,,,,,,,,,,,,,,,,,,,,,,,,22,33,Female,1.2857142857142858,1.0,1.6,1.5,2.0,1.875,2.111111111111111,2.111111111111111,2.125,2.3333333333333335,1.75,1.75,1.25,1.5,1.0,1.0,0.8393362999971336,0.24785378852963366,0.01220090655325862,-0.2624416960023856,0.006209332504885454,-0.20888228688665855,0.006061181491243519,-0.8239067317258751,0.005757692065861606,-0.8266171839402897,2.3423384504884568e+41,-0.17964377460059333,8.098479804779919e+41,-0.17136380256072134,,,,,,,,,,,,,,,,,,,,
41,240621_160603,LEARNING,1.0,42,3.0,2583.0,,,,,,,,,,42.0,42.0,42.0,cue1.png,Hard,B,,,,,,,,,,,,,,,,,,,,,,,,,,,22,33,Female,1.2857142857142858,1.0,1.6,1.5,2.0,1.875,2.111111111111111,2.111111111111111,2.125,2.3333333333333335,1.75,1.75,1.25,1.5,0.125,0.3333333333333333,1.2471648799953985,1.519644706869275,0.01634792886977479,-0.10447669598733662,0.009831611602242248,-0.17011450363275116,0.00991475461643798,-0.5506851920762076,,,,,1.0023957923697401e+42,-0.17134461321666394,,,,,,,,,,,,,,,,,,,,
42,240621_160626,LEARNING,1.0,43,3.0,2583.0,,,,,,,,,,43.0,43.0,43.0,cue1.png,Hard,B,,,,,,,,,,,,,,,,,,,,,,,,,,,22,33,Female,1.2857142857142858,1.0,1.6,1.5,2.0,1.875,2.111111111111111,2.111111111111111,2.125,2.3333333333333335,1.75,1.75,1.25,1.5,0.6875,0.5833333333333334,1.022795040020719,0.8199597440588465,0.0067984625336137035,-0.46822719810728675,0.00488229754881446,-0.22308500350914617,0.016612823757478846,-0.07578651909390588,0.008755141233535376,-0.6807199095650908,2.071847601935708e+41,-0.17964564539005873,7.65235690620428e+41,-0.1713682486282765,,,,,,,,,,,,,,,,,,,,
43,240621_160641,LEARNING,1.0,44,1.0,2583.0,,,,,,,,,,44.0,44.0,44.0,cue2.png,Easy,B,,,,,,,,,,,,,,,,,,,,,,,,,,,22,33,Female,1.2857142857142858,1.0,1.6,1.5,2.0,1.875,2.111111111111111,2.111111111111111,2.125,2.3333333333333335,1.75,1.75,1.25,1.5,1.0,1.0,0.172946833326326,-1.830244984716557,0.006406002366241876,-0.4831764714926486,0.006066488539104124,-0.2104110878861674,0.008128394182395103,-0.6773396325920636,0.007955005836254485,-0.7196655486949765,4.000228698595084e+40,-0.1796572081919555,2.3327072687768872e+41,-0.1714212643370267,,,,,,,,,,,,,,,,,,,,
44,240621_160701,LEARNING,1.0,45,1.0,2583.0,,,,,,,,,,45.0,45.0,45.0,cue2.png,Easy,B,,,,,,,,,,,,,,,,,,,,,,,,,,,22,33,Female,1.2857142857142858,1.0,1.6,1.5,2.0,1.875,2.111111111111111,2.111111111111111,2.125,2.3333333333333335,1.75,1.75,1.25,1.5,0.125,0.5,0.8086575833537305,0.15218390386004724,0.010609605417402475,-0.32305624416826917,0.006485199531186392,-0.20592979405132214,0.011028259717198435,-0.47173675431374085,0.007205345581999872,-0.7561543702512226,-1.6527932764542143e+41,-0.1796714060357695,-5.026438645250019e+41,-0.1714946056965184,,,,,,,,,,,,,,,,,,,,
45,240621_160725,LEARNING,1.0,46,1.0,2583.0,,,,,,,,,,46.0,46.0,46.0,cue2.png,Easy,B,,,,,,,,,,,,,,,,,,,,,,,,,,,22,33,Female,1.2857142857142858,1.0,1.6,1.5,2.0,1.875,2.111111111111111,2.111111111111111,2.125,2.3333333333333335,1.75,1.75,1.25,1.5,0.6875,0.4166666666666667,0.677248599997256,-0.25760775817040793,0.0345457642582131,0.5887004436581108,0.005912081153322335,-0.2120636474774918,0.008057747768658918,-0.6823485220836193,0.007495743977281434,-0.7420195736343405,-2.9645214993070716e+41,-0.179680478310687,-1.05187262910452e+42,-0.17154934191827126,,,,,,,,,,,,,,,,,,,,
46,240621_160747,LEARNING,1.0,47,3.0,2583.0,,,,,,,,,,47.0,47.0,47.0,cue1.png,Hard,B,,,,,,,,,,,,,,,,,,,,,,,,,,,22,33,Female,1.2857142857142858,1.0,1.6,1.5,2.0,1.875,2.111111111111111,2.111111111111111,2.125,2.3333333333333335,1.75,1.75,1.25,1.5,0.6875,0.5833333333333334,0.9496032600291072,0.5917152176677802,0.005419051663083712,-0.5207705946827557,0.005680700727179585,-0.21454001828404962,0.009704228738579151,-0.565611651913864,0.0066407051464522325,-0.7836375721139445,,,-7.237557523095144e+41,-0.1715166417406998,,,,,,,,,,,,,,,,,,,,
47,240621_160817,LEARNING,1.0,48,3.0,2583.0,,,,,,,,,,48.0,48.0,48.0,cue1.png,Hard,B,,,,,,,,,,,,,,,,,,,,,,,,,,,22,33,Female,1.2857142857142858,1.0,1.6,1.5,2.0,1.875,2.111111111111111,2.111111111111111,2.125,2.3333333333333335,1.75,1.75,1.25,1.5,0.5,0.1666666666666666,0.0,-2.3695701393708894,0.004633075283636165,-0.5507093674491297,,,0.006270893389187877,-0.8090379837411538,0.00520012741070084,-0.8537559806055337,8.747999512585989e+40,-0.17965392450244427,3.939078546036235e+41,-0.17140525521657998,,,,,,,,,,,,,,,,,,,,
48,240621_160849,LEARNING,1.0,49,1.0,2583.0,,,,,,,,,,49.0,49.0,49.0,cue2.png,Easy,B,,,,,,,,,,,,,,,,,,,,,,,,,,,22,33,Female,1.2857142857142858,1.0,1.6,1.5,2.0,1.875,2.111111111111111,2.111111111111111,2.125,2.3333333333333335,1.75,1.75,1.25,1.5,,,1.6350707000819966,2.7293075979774097,,,,,0.013866384554562492,-0.27051134283450773,0.005703637453926327,-0.8292482279072125,,,,,,,,,,,,,,,,,,,,,,,,
49,240621_160919,LEARNING,1.0,50,1.0,2583.0,,,,,,,,,,50.0,50.0,50.0,cue2.png,Easy,B,,,,,,,,,,,,,,,,,,,,,,,,,,,22,33,Female,1.2857142857142858,1.0,1.6,1.5,2.0,1.875,2.111111111111111,2.111111111111111,2.125,2.3333333333333335,1.75,1.75,1.25,1.5,0.5,0.3333333333333333,1.5941379500436597,2.601661076094012,,,,,,,,,-1.4523535496704256e+38,-0.17965998490555812,-6.5932732856150846e+41,-0.1715102207942438,,,,,,,,,,,,,,,,,,,,
0,240621_161200,TrueCHOICE,9.0,1,1.0,2583.0,,,,,,,,,,,10.0,1.0,,,B,,,,,,True,cue2.png,Easy,cue1.png,Hard,Left,Easy,Easy,0.016952299978584,,,,,,,,,,,,,22,33,Female,1.2857142857142858,1.0,1.6,1.5,2.0,1.875,2.111111111111111,2.111111111111111,2.125,2.3333333333333335,1.75,1.75,1.25,1.5,0.6875,0.75,1.2094146333402025,0.22744375724149005,,,,,,,,,,,,,,,0.014485415374036265,-0.27325677859452774,18939680.015426468,0.9544876943329695,,,,,,,,,,,,,,
1,240621_161219,TrueCHOICE,9.0,2,1.0,2583.0,,,,,,,,,,,11.0,2.0,,,B,,,,,,True,cue2.png,Easy,cue1.png,Hard,Left,Easy,Easy,0.0160924999509006,,,,,,,,,,,,,22,33,Female,1.2857142857142858,1.0,1.6,1.5,2.0,1.875,2.111111111111111,2.111111111111111,2.125,2.3333333333333335,1.75,1.75,1.25,1.5,0.125,0.3333333333333333,0.4931505999993533,-0.7776941153611853,,,,,,,,,,,,,0.010105548262370086,-1.2263762566331669,0.01206302465123023,-0.9548842590437778,,,,,,,,,,,,,,,,
2,240621_161320,TrueCHOICE,9.0,3,1.0,2583.0,,,,,,,,,,,17.0,3.0,,,B,,,,,,True,cue1.png,Hard,cue2.png,Easy,Right,Easy,Easy,0.0149417000357061,,,,,,,,,,,,,22,33,Female,1.2857142857142858,1.0,1.6,1.5,2.0,1.875,2.111111111111111,2.111111111111111,2.125,2.3333333333333335,1.75,1.75,1.25,1.5,0.5,0.1666666666666666,2.646890999982133,2.2446634832465313,,,,,,,,,,,,,0.011690903183047432,0.2571809377956255,0.013528643723083501,-0.5424791809362749,3107970.1599227516,-0.4918450075013,,,,,,,,,,,,,,
3,240621_161347,TrueCHOICE,9.0,4,3.0,2583.0,,,,,,,,,,,19.0,4.0,,,B,,,,,,True,cue2.png,Easy,cue1.png,Hard,Right,Hard,Hard,0.0146967000328004,,,,,,,,,,,,,22,33,Female,1.2857142857142858,1.0,1.6,1.5,2.0,1.875,2.111111111111111,2.111111111111111,2.125,2.3333333333333335,1.75,1.75,1.25,1.5,0.125,0.1666666666666666,0.6510650499840267,-0.5560917635434119,,,,,,,,,,,,,,,,,63440.22844622943,-0.7699832024150317,,,,,,,,,,,,,,
4,240621_161437,TrueCHOICE,9.0,5,1.0,2583.0,,,,,,,,,,,25.0,5.0,,,B,,,,,,True,cue1.png,Hard,cue2.png,Easy,Right,Easy,Easy,0.0168460999848321,,,,,,,,,,,,,22,33,Female,1.2857142857142858,1.0,1.6,1.5,2.0,1.875,2.111111111111111,2.111111111111111,2.125,2.3333333333333335,1.75,1.75,1.25,1.5,0.125,0.5,0.9758146000094712,-0.10036865495906887,,,,,,,,,,,,,,,,,,,,,,,,,,,,,,,,
5,240621_161459,TrueCHOICE,9.0,6,3.0,2583.0,,,,,,,,,,,27.0,6.0,,,B,,,,,,True,cue1.png,Hard,cue2.png,Easy,Left,Hard,Hard,0.0161092000780627,,,,,,,,,,,,,22,33,Female,1.2857142857142858,1.0,1.6,1.5,2.0,1.875,2.111111111111111,2.111111111111111,2.125,2.3333333333333335,1.75,1.75,1.25,1.5,1.0,1.0,0.563883833354339,-0.6784337192121215,,,,,,,,,,,,,0.012980425536254617,1.4639013633139057,,,554655.3164603655,-0.7251074150292328,,,,,,,,,,,,,,
6,240621_161521,TrueCHOICE,9.0,7,3.0,2583.0,,,,,,,,,,,28.0,7.0,,,B,,,,,,True,cue2.png,Easy,cue1.png,Hard,Right,Hard,Hard,0.0167641999432817,,,,,,,,,,,,,22,33,Female,1.2857142857142858,1.0,1.6,1.5,2.0,1.875,2.111111111111111,2.111111111111111,2.125,2.3333333333333335,1.75,1.75,1.25,1.5,0.875,0.6666666666666667,0.644692350004334,-0.5650346139479572,,,,,,,,,,,,,0.010336342962798596,-1.0104011877126606,0.01584049596369295,0.10804428875080406,,,,,,,,,,,,,,,,
7,240621_161549,TrueCHOICE,9.0,8,1.0,2583.0,,,,,,,,,,,29.0,8.0,,,B,,,,,,True,cue1.png,Hard,cue2.png,Easy,Right,Easy,Easy,0.0163648999296128,,,,,,,,,,,,,22,33,Female,1.2857142857142858,1.0,1.6,1.5,2.0,1.875,2.111111111111111,2.111111111111111,2.125,2.3333333333333335,1.75,1.75,1.25,1.5,0.1875,0.25,2.134626966629488,1.5258001078326777,,,,,,,,,,,,,0.011967155941754303,0.5156951432363077,0.013828204928630038,-0.4581867718485707,27978320.391468182,1.7802280139386937,,,,,,,,,,,,,,
8,240621_161623,TrueCHOICE,9.0,9,3.0,2583.0,,,,,,,,,,,33.0,9.0,,,B,,,,,,True,cue2.png,Easy,cue1.png,Hard,Right,Hard,Hard,0.0166736999526619,,,,,,,,,,,,,22,33,Female,1.2857142857142858,1.0,1.6,1.5,2.0,1.875,2.111111111111111,2.111111111111111,2.125,2.3333333333333335,1.75,1.75,1.25,1.5,1.0,1.0,0.5364278166671284,-0.7169629220179726,,,,,,,,,,,,,,,0.022993362523398852,2.120762701672345,,,,,,,,,,,,,,,,
9,240621_161659,TrueCHOICE,9.0,10,1.0,2583.0,,,,,,,,,,,37.0,10.0,,,B,,,,,,True,cue1.png,Hard,cue2.png,Easy,Right,Easy,Easy,0.0166405000491067,,,,,,,,,,,,,22,33,Female,1.2857142857142858,1.0,1.6,1.5,2.0,1.875,2.111111111111111,2.111111111111111,2.125,2.3333333333333335,1.75,1.75,1.25,1.5,0.125,0.5,0.617408966665001,-0.603321559278982,,,,,,,,,,,,,,,,,306477.9049485857,-0.7477800833260992,,,,,,,,,,,,,,
0,240621_161833,FalseCHOICE,9.0,1,2.0,2583.0,,,,,,,,,,,1.0,1.0,,,B,,,,,,False,cue2.png,Easy,cue1.png,Hard,Right,Hard,Mid,0.0162834000075235,,,,,,,,,,,,,22,33,Female,1.2857142857142858,1.0,1.6,1.5,2.0,1.875,2.111111111111111,2.111111111111111,2.125,2.3333333333333335,1.75,1.75,1.25,1.5,0.6875,0.75,1.22802696666137,1.3620485322476272,,,,,,,,,,,,,,,,,,,,,0.02942920694899389,0.43806841205733404,2.279327417452862e+44,-0.18200759911025788,,,,,,,,
1,240621_161858,FalseCHOICE,9.0,2,2.0,2583.0,,,,,,,,,,,3.0,2.0,,,B,,,,,,False,cue1.png,Hard,cue2.png,Easy,Left,Hard,Mid,0.0161405000835657,,,,,,,,,,,,,22,33,Female,1.2857142857142858,1.0,1.6,1.5,2.0,1.875,2.111111111111111,2.111111111111111,2.125,2.3333333333333335,1.75,1.75,1.25,1.5,1.0,1.0,0.7574290833241927,-0.06278445764750604,,,,,,,,,,,,,,,,,,,0.007967716001995516,-0.2975298078352889,0.01363252099716629,-0.49168775686053373,1.9675008612979003e+42,-0.18361858679948934,,,,,,,,
2,240621_161918,FalseCHOICE,9.0,3,2.0,2583.0,,,,,,,,,,,4.0,3.0,,,B,,,,,,False,cue1.png,Hard,cue2.png,Easy,Right,Easy,Mid,0.0164234000258147,,,,,,,,,,,,,22,33,Female,1.2857142857142858,1.0,1.6,1.5,2.0,1.875,2.111111111111111,2.111111111111111,2.125,2.3333333333333335,1.75,1.75,1.25,1.5,0.6875,0.75,0.9578055166639388,0.543896878433715,,,,,,,,,,,,,,,,,,,0.008596287785623916,-0.23298143282502518,0.012582259517703281,-0.5535037030966848,-5.429847250508125e+43,-0.1840197272141003,,,,,,,,
3,240621_161949,FalseCHOICE,9.0,4,2.0,2583.0,,,,,,,,,,,7.0,4.0,,,B,,,,,,False,cue1.png,Hard,cue2.png,Easy,Right,Easy,Mid,0.0165849000914022,,,,,,,,,,,,,22,33,Female,1.2857142857142858,1.0,1.6,1.5,2.0,1.875,2.111111111111111,2.111111111111111,2.125,2.3333333333333335,1.75,1.75,1.25,1.5,0.6875,0.5833333333333334,0.744918160000816,-0.1006638806461502,,,,,,,,,,,,,,,,,,,0.007324306149726739,-0.36360191210603326,0.015021187494511496,-0.40995407889709373,-4.899008030530674e+43,-0.18398188177181019,,,,,,,,
4,240621_162009,FalseCHOICE,9.0,5,2.0,2583.0,,,,,,,,,,,8.0,5.0,,,B,,,,,,False,cue2.png,Easy,cue1.png,Hard,Left,Easy,Mid,0.0158170999493449,,,,,,,,,,,,,22,33,Female,1.2857142857142858,1.0,1.6,1.5,2.0,1.875,2.111111111111111,2.111111111111111,2.125,2.3333333333333335,1.75,1.75,1.25,1.5,0.6875,0.75,1.1437501999898814,1.1068830891230232,,,,,,,,,,,,,,,,,,,0.010213026309249775,-0.06695768305671465,0.01480958635763926,-0.4224084293195147,8.303196418340455e+47,5.736015540419341,,,,,,,,
5,240621_162029,FalseCHOICE,9.0,6,2.0,2583.0,,,,,,,,,,,9.0,6.0,,,B,,,,,,False,cue1.png,Hard,cue2.png,Easy,Left,Hard,Mid,0.0168346000136807,,,,,,,,,,,,,22,33,Female,1.2857142857142858,1.0,1.6,1.5,2.0,1.875,2.111111111111111,2.111111111111111,2.125,2.3333333333333335,1.75,1.75,1.25,1.5,1.0,1.0,1.1825822666481447,1.224455249133904,,,,,,,,,,,,,,,,,,,0.008789179573682549,-0.21317327121755208,,,1.2792380133203156e+41,-0.1836317018077331,,,,,,,,
6,240621_162048,FalseCHOICE,9.0,7,2.0,2583.0,,,,,,,,,,,10.0,7.0,,,B,,,,,,False,cue1.png,Hard,cue2.png,Easy,Right,Easy,Mid,0.0150255999760702,,,,,,,,,,,,,22,33,Female,1.2857142857142858,1.0,1.6,1.5,2.0,1.875,2.111111111111111,2.111111111111111,2.125,2.3333333333333335,1.75,1.75,1.25,1.5,1.0,0.8333333333333334,0.6477753600105643,-0.39478391615367203,,,,,,,,,,,,,,,,,,,0.008243913031563702,-0.26916698610890394,,,,,,,,,,,,
7,240621_162109,FalseCHOICE,9.0,8,2.0,2583.0,,,,,,,,,,,11.0,8.0,,,B,,,,,,False,cue2.png,Easy,cue1.png,Hard,Left,Easy,Mid,0.016430199961178,,,,,,,,,,,,,22,33,Female,1.2857142857142858,1.0,1.6,1.5,2.0,1.875,2.111111111111111,2.111111111111111,2.125,2.3333333333333335,1.75,1.75,1.25,1.5,0.125,0.5,1.2458010000021509,1.4158631157044246,,,,,,,,,,,,,,,,,,,0.012303627161874437,0.1477272444992615,0.01891769884837864,-0.18061448959562085,,,,,,,,,,
8,240621_162126,FalseCHOICE,9.0,9,2.0,2583.0,,,,,,,,,,,12.0,9.0,,,B,,,,,,False,cue2.png,Easy,cue1.png,Hard,Right,Hard,Mid,0.0161932000191882,,,,,,,,,,,,,22,33,Female,1.2857142857142858,1.0,1.6,1.5,2.0,1.875,2.111111111111111,2.111111111111111,2.125,2.3333333333333335,1.75,1.75,1.25,1.5,1.0,1.0,0.6872441333058911,-0.2752839943455221,,,,,,,,,,,,,,,,,,,0.012261761657473783,0.14342805330355105,0.015780357090672534,-0.3652711234064233,4.529380106929516e+46,0.13928322772750187,,,,,,,,
9,240621_162154,FalseCHOICE,9.0,10,2.0,2583.0,,,,,,,,,,,14.0,10.0,,,B,,,,,,False,cue1.png,Hard,cue2.png,Easy,Left,Hard,Mid,0.0147002999437972,,,,,,,,,,,,,22,33,Female,1.2857142857142858,1.0,1.6,1.5,2.0,1.875,2.111111111111111,2.111111111111111,2.125,2.3333333333333335,1.75,1.75,1.25,1.5,0.125,0.1666666666666666,0.6607740750478115,-0.3554276022663747,,,,,,,,,,,,,,,,,,,0.00987575282776489,-0.10159247852627067,0.017291519147606467,-0.27632764190950937,,,,,,,,,,
10,240621_162219,FalseCHOICE,9.0,11,2.0,2583.0,,,,,,,,,,,16.0,11.0,,,B,,,,,,False,cue2.png,Easy,cue1.png,Hard,Left,Easy,Mid,0.015831800061278,,,,,,,,,,,,,22,33,Female,1.2857142857142858,1.0,1.6,1.5,2.0,1.875,2.111111111111111,2.111111111111111,2.125,2.3333333333333335,1.75,1.75,1.25,1.5,0.6875,0.75,0.9896027666594212,0.6401696675508841,,,,,,,,,,,,,,,,,,,0.02097149905838906,1.0378356780778137,0.041922209890678006,1.1733774881990944,,,,,,,,,,
11,240621_162237,FalseCHOICE,9.0,12,2.0,2583.0,,,,,,,,,,,17.0,12.0,,,B,,,,,,False,cue1.png,Hard,cue2.png,Easy,Right,Easy,Mid,0.0166517000179737,,,,,,,,,,,,,22,33,Female,1.2857142857142858,1.0,1.6,1.5,2.0,1.875,2.111111111111111,2.111111111111111,2.125,2.3333333333333335,1.75,1.75,1.25,1.5,0.6875,0.5833333333333334,0.4897811400005594,-0.8731442846420119,,,,,,,,,,,,,,,,,,,,,,,-4.7332362167306584e+42,-0.18366635877052018,,,,,,,,
12,240621_162258,FalseCHOICE,9.0,13,2.0,2583.0,,,,,,,,,,,19.0,13.0,,,B,,,,,,False,cue2.png,Easy,cue1.png,Hard,Right,Hard,Mid,0.0167035999475047,,,,,,,,,,,,,22,33,Female,1.2857142857142858,1.0,1.6,1.5,2.0,1.875,2.111111111111111,2.111111111111111,2.125,2.3333333333333335,1.75,1.75,1.25,1.5,0.6875,0.75,0.5495764666702598,-0.6921014939767126,,,,,,,,,,,,,,,,,,,,,0.1068649496880238,4.995756000827839,,,,,,,,,,
13,240621_162317,FalseCHOICE,9.0,14,2.0,2583.0,,,,,,,,,,,20.0,14.0,,,B,,,,,,False,cue1.png,Hard,cue2.png,Easy,Left,Hard,Mid,0.0163450000109151,,,,,,,,,,,,,22,33,Female,1.2857142857142858,1.0,1.6,1.5,2.0,1.875,2.111111111111111,2.111111111111111,2.125,2.3333333333333335,1.75,1.75,1.25,1.5,1.0,0.8333333333333334,0.6734866400016472,-0.3169376672841729,,,,,,,,,,,,,,,,,,,0.018862037841366606,0.8212139695436151,0.05574882012758542,1.987179585815671,,,,,,,,,,
14,240621_162336,FalseCHOICE,9.0,15,2.0,2583.0,,,,,,,,,,,21.0,15.0,,,B,,,,,,False,cue2.png,Easy,cue1.png,Hard,Left,Easy,Mid,0.016568100079894,,,,,,,,,,,,,22,33,Female,1.2857142857142858,1.0,1.6,1.5,2.0,1.875,2.111111111111111,2.111111111111111,2.125,2.3333333333333335,1.75,1.75,1.25,1.5,0.6875,0.5833333333333334,0.5314381599891931,-0.7470189907507095,,,,,,,,,,,,,,,,,,,0.009833896122505605,-0.10589076613341473,0.015902491872640347,-0.3580825544040197,,,,,,,,,,
15,240621_162353,FalseCHOICE,9.0,16,2.0,2583.0,,,,,,,,,,,22.0,16.0,,,B,,,,,,False,cue2.png,Easy,cue1.png,Hard,Right,Hard,Mid,0.0142499000066891,,,,,,,,,,,,,22,33,Female,1.2857142857142858,1.0,1.6,1.5,2.0,1.875,2.111111111111111,2.111111111111111,2.125,2.3333333333333335,1.75,1.75,1.25,1.5,0.6875,0.75,0.6208506500115618,-0.47630407680099784,,,,,,,,,,,,,,,,,,,0.009955862113455779,-0.09336601283172266,0.012873750623069755,-0.5363472150696622,,,,,,,,,,
16,240621_162417,FalseCHOICE,9.0,17,2.0,2583.0,,,,,,,,,,,24.0,17.0,,,B,,,,,,False,cue1.png,Hard,cue2.png,Easy,Left,Hard,Mid,0.0163628000300377,,,,,,,,,,,,,22,33,Female,1.2857142857142858,1.0,1.6,1.5,2.0,1.875,2.111111111111111,2.111111111111111,2.125,2.3333333333333335,1.75,1.75,1.25,1.5,0.6875,0.75,0.6733370833098888,-0.31739048128062713,,,,,,,,,,,,,,,,,,,0.06805100403928652,5.872455401640037,0.036069929961448643,0.82892591253137,,,,,,,,,,
17,240621_162438,FalseCHOICE,9.0,18,2.0,2583.0,,,,,,,,,,,26.0,18.0,,,B,,,,,,False,cue1.png,Hard,cue2.png,Easy,Right,Easy,Mid,0.0166620999807491,,,,,,,,,,,,,22,33,Female,1.2857142857142858,1.0,1.6,1.5,2.0,1.875,2.111111111111111,2.111111111111111,2.125,2.3333333333333335,1.75,1.75,1.25,1.5,0.6875,0.75,0.4931940500391647,-0.8628109895152571,,,,,,,,,,,,,,,,,,,0.012359210367067143,0.15343511377767677,0.017255208870847805,-0.27846478028868793,,,,,,,,,,
18,240621_162458,FalseCHOICE,9.0,19,2.0,2583.0,,,,,,,,,,,27.0,19.0,,,B,,,,,,False,cue2.png,Easy,cue1.png,Hard,Left,Easy,Mid,0.0142714999383315,,,,,,,,,,,,,22,33,Female,1.2857142857142858,1.0,1.6,1.5,2.0,1.875,2.111111111111111,2.111111111111111,2.125,2.3333333333333335,1.75,1.75,1.25,1.5,0.125,0.3333333333333333,0.5454006199957803,-0.7047447384816594,,,,,,,,,,,,,,,,,,,0.011244553925912233,0.03897044348027736,0.03289918456069819,0.64230321803673,7.499585128632921e+42,-0.18357914657578236,,,,,,,,
19,240621_162515,FalseCHOICE,9.0,20,2.0,2583.0,,,,,,,,,,,28.0,20.0,,,B,,,,,,False,cue2.png,Easy,cue1.png,Hard,Left,Easy,Mid,0.016726900008507,,,,,,,,,,,,,22,33,Female,1.2857142857142858,1.0,1.6,1.5,2.0,1.875,2.111111111111111,2.111111111111111,2.125,2.3333333333333335,1.75,1.75,1.25,1.5,0.125,0.3333333333333333,0.3130863000173122,-1.4081246703739831,,,,,,,,,,,,,,,,,,,0.008765083805616348,-0.2156476786182778,0.026921186372136263,0.29045215822932496,4.898368549494593e+42,-0.18359769158681868,,,,,,,,
20,240621_162540,FalseCHOICE,9.0,21,2.0,2583.0,,,,,,,,,,,30.0,21.0,,,B,,,,,,False,cue2.png,Easy,cue1.png,Hard,Right,Hard,Mid,0.0173424999229609,,,,,,,,,,,,,22,33,Female,1.2857142857142858,1.0,1.6,1.5,2.0,1.875,2.111111111111111,2.111111111111111,2.125,2.3333333333333335,1.75,1.75,1.25,1.5,0.125,0.3333333333333333,0.4624596600187942,-0.9558657489518858,,,,,,,,,,,,,,,,,,,0.00816315253156615,-0.2774603253513478,0.028340891747210016,0.37401271229401867,7.829666714279697e+41,-0.18362703177089243,,,,,,,,
21,240621_162557,FalseCHOICE,9.0,22,2.0,2583.0,,,,,,,,,,,31.0,22.0,,,B,,,,,,False,cue1.png,Hard,cue2.png,Easy,Left,Hard,Mid,0.015056199976243,,,,,,,,,,,,,22,33,Female,1.2857142857142858,1.0,1.6,1.5,2.0,1.875,2.111111111111111,2.111111111111111,2.125,2.3333333333333335,1.75,1.75,1.25,1.5,0.6875,0.75,0.7447560000194547,-0.10115485372372938,,,,,,,,,,,,,,,,,,,0.009982349413430108,-0.09064601773126954,0.0170853504911765,-0.28846224917699714,-2.6504083571899422e+42,-0.18365150953960582,,,,,,,,
22,240621_162615,FalseCHOICE,9.0,23,2.0,2583.0,,,,,,,,,,,32.0,23.0,,,B,,,,,,False,cue2.png,Easy,cue1.png,Hard,Left,Easy,Mid,0.0138740999391302,,,,,,,,,,,,,22,33,Female,1.2857142857142858,1.0,1.6,1.5,2.0,1.875,2.111111111111111,2.111111111111111,2.125,2.3333333333333335,1.75,1.75,1.25,1.5,1.0,1.0,0.7822974166483618,0.012509594830408059,,,,,,,,,,,,,,,,,,,0.011700721146441061,0.0858145010485562,,,-5.3472217831861005e+42,-0.18367073609503723,,,,,,,,
23,240621_162634,FalseCHOICE,9.0,24,2.0,2583.0,,,,,,,,,,,33.0,24.0,,,B,,,,,,False,cue1.png,Hard,cue2.png,Easy,Left,Hard,Mid,0.0167442000238224,,,,,,,,,,,,,22,33,Female,1.2857142857142858,1.0,1.6,1.5,2.0,1.875,2.111111111111111,2.111111111111111,2.125,2.3333333333333335,1.75,1.75,1.25,1.5,1.0,0.8333333333333334,0.4310508399503305,-1.0509624856602466,,,,,,,,,,,,,,,,,,,,,,,,,,,,,,,,
24,240621_162651,FalseCHOICE,9.0,25,2.0,2583.0,,,,,,,,,,,34.0,25.0,,,B,,,,,,False,cue1.png,Hard,cue2.png,Easy,Right,Easy,Mid,0.0167910999152809,,,,,,,,,,,,,22,33,Female,1.2857142857142858,1.0,1.6,1.5,2.0,1.875,2.111111111111111,2.111111111111111,2.125,2.3333333333333335,1.75,1.75,1.25,1.5,0.125,0.5,0.6991797833664654,-0.23914633082363732,,,,,,,,,,,,,,,,,,,0.009845543165091881,-0.10469472505711988,0.02186560841896871,-0.0071073934220060985,-5.629808306818638e+42,-0.1836727507562698,,,,,,,,
25,240621_162713,FalseCHOICE,9.0,26,2.0,2583.0,,,,,,,,,,,35.0,26.0,,,B,,,,,,False,cue2.png,Easy,cue1.png,Hard,Left,Easy,Mid,0.0169060999760404,,,,,,,,,,,,,22,33,Female,1.2857142857142858,1.0,1.6,1.5,2.0,1.875,2.111111111111111,2.111111111111111,2.125,2.3333333333333335,1.75,1.75,1.25,1.5,0.125,0.3333333333333333,0.8691131200175732,0.27536219698028763,,,,,,,,,,,,,,,,,,,0.009451610576873054,-0.1451478747138424,0.022407837094322012,0.024806924391951007,-3.338348186227768e+42,-0.18365641411073,,,,,,,,
26,240621_162732,FalseCHOICE,9.0,27,2.0,2583.0,,,,,,,,,,,36.0,27.0,,,B,,,,,,False,cue2.png,Easy,cue1.png,Hard,Right,Hard,Mid,0.0166605999693274,,,,,,,,,,,,,22,33,Female,1.2857142857142858,1.0,1.6,1.5,2.0,1.875,2.111111111111111,2.111111111111111,2.125,2.3333333333333335,1.75,1.75,1.25,1.5,0.125,0.3333333333333333,0.4754430799977854,-0.9165557440352767,,,,,,,,,,,,,,,,,,,0.014330894836423304,0.355908453887314,0.03542440776748072,0.7909319786236295,1.388464507475074e+43,-0.18353362518086358,,,,,,,,
27,240621_162756,FalseCHOICE,9.0,28,2.0,2583.0,,,,,,,,,,,38.0,28.0,,,B,,,,,,False,cue1.png,Hard,cue2.png,Easy,Left,Hard,Mid,0.017215900006704,,,,,,,,,,,,,22,33,Female,1.2857142857142858,1.0,1.6,1.5,2.0,1.875,2.111111111111111,2.111111111111111,2.125,2.3333333333333335,1.75,1.75,1.25,1.5,0.6875,0.5833333333333334,0.5802828599931672,-0.5991315003657837,,,,,,,,,,,,,,,,,,,0.011101844665248392,0.024315552639340675,0.024052717818039936,0.12162077539048209,2.2811022060905528e+42,-0.18361635102241225,,,,,,,,
28,240621_162817,FalseCHOICE,9.0,29,2.0,2583.0,,,,,,,,,,,39.0,29.0,,,B,,,,,,False,cue2.png,Easy,cue1.png,Hard,Left,Easy,Mid,0.01626830000896,,,,,,,,,,,,,22,33,Female,1.2857142857142858,1.0,1.6,1.5,2.0,1.875,2.111111111111111,2.111111111111111,2.125,2.3333333333333335,1.75,1.75,1.25,1.5,0.125,0.1666666666666666,0.5403762999630999,-0.7199569125857763,,,,,,,,,,,,,,,,,,,0.006647347471588486,-0.43311916337474915,0.016513162537262885,-0.32213990039789314,4.449535290318327e+42,-0.18360089148098038,,,,,,,,
29,240621_162837,FalseCHOICE,9.0,30,2.0,2583.0,,,,,,,,,,,40.0,30.0,,,B,,,,,,False,cue2.png,Easy,cue1.png,Hard,Right,Hard,Mid,0.0160935000749304,,,,,,,,,,,,,22,33,Female,1.2857142857142858,1.0,1.6,1.5,2.0,1.875,2.111111111111111,2.111111111111111,2.125,2.3333333333333335,1.75,1.75,1.25,1.5,0.125,0.3333333333333333,0.7301347400061786,-0.1454237600626555,,,,,,,,,,,,,,,,,,,0.007257376791929294,-0.3704749239064796,0.018602887568959066,-0.1991435487905598,,,,,,,,,,
30,240621_162856,FalseCHOICE,9.0,31,2.0,2583.0,,,,,,,,,,,41.0,31.0,,,B,,,,,,False,cue1.png,Hard,cue2.png,Easy,Right,Easy,Mid,0.0176795000443235,,,,,,,,,,,,,22,33,Female,1.2857142857142858,1.0,1.6,1.5,2.0,1.875,2.111111111111111,2.111111111111111,2.125,2.3333333333333335,1.75,1.75,1.25,1.5,0.125,0.5,1.0240788999944923,0.7445533332645629,,,,,,,,,,,,,,,,,,,,,0.01227643722963735,-0.5715036911820959,5.024484192768629e+42,-0.1835967924629183,,,,,,,,
31,240621_162913,FalseCHOICE,9.0,32,2.0,2583.0,,,,,,,,,,,42.0,32.0,,,B,,,,,,False,cue2.png,Easy,cue1.png,Hard,Right,Hard,Mid,0.0166574000613763,,,,,,,,,,,,,22,33,Female,1.2857142857142858,1.0,1.6,1.5,2.0,1.875,2.111111111111111,2.111111111111111,2.125,2.3333333333333335,1.75,1.75,1.25,1.5,0.125,0.5,0.4654723499940398,-0.9467442033244043,,,,,,,,,,,,,,,,,,,0.01311875497393525,0.23143315854853463,0.040832275709686255,1.1092264990877179,3.398090349546589e+42,-0.18360838761113232,,,,,,,,
32,240621_162937,FalseCHOICE,9.0,33,2.0,2583.0,,,,,,,,,,,44.0,33.0,,,B,,,,,,False,cue1.png,Hard,cue2.png,Easy,Left,Hard,Mid,0.0149065000005066,,,,,,,,,,,,,22,33,Female,1.2857142857142858,1.0,1.6,1.5,2.0,1.875,2.111111111111111,2.111111111111111,2.125,2.3333333333333335,1.75,1.75,1.25,1.5,0.6875,0.75,0.582368200023969,-0.5928176996109542,,,,,,,,,,,,,,,,,,,,,0.015223394341421548,-0.39805265451698185,1.0159560175159856e+42,-0.1836253707058242,,,,,,,,
33,240621_163000,FalseCHOICE,9.0,34,2.0,2583.0,,,,,,,,,,,45.0,34.0,,,B,,,,,,False,cue1.png,Hard,cue2.png,Easy,Left,Hard,Mid,0.0169699999969452,,,,,,,,,,,,,22,33,Female,1.2857142857142858,1.0,1.6,1.5,2.0,1.875,2.111111111111111,2.111111111111111,2.125,2.3333333333333335,1.75,1.75,1.25,1.5,0.125,0.5,1.6063971333787777,2.507642924020137,,,,,,,,,,,,,,,,,,,0.00685397441174297,-0.4119005316007849,0.016269658804378494,-0.3364719633694684,-1.891917210672659e+42,-0.1836461019826973,,,,,,,,
34,240621_163025,FalseCHOICE,9.0,35,2.0,2583.0,,,,,,,,,,,46.0,35.0,,,B,,,,,,False,cue1.png,Hard,cue2.png,Easy,Left,Hard,Mid,0.0160951999714598,,,,,,,,,,,,,22,33,Female,1.2857142857142858,1.0,1.6,1.5,2.0,1.875,2.111111111111111,2.111111111111111,2.125,2.3333333333333335,1.75,1.75,1.25,1.5,0.125,0.1666666666666666,1.351042950002011,1.734505012725572,,,,,,,,,,,,,,,,,,,0.00872143463734519,-0.22013003521753363,,,,,,,,,,,,
35,240621_163043,FalseCHOICE,9.0,36,2.0,2583.0,,,,,,,,,,,47.0,36.0,,,B,,,,,,False,cue2.png,Easy,cue1.png,Hard,Left,Easy,Mid,0.0163552000885829,,,,,,,,,,,,,22,33,Female,1.2857142857142858,1.0,1.6,1.5,2.0,1.875,2.111111111111111,2.111111111111111,2.125,2.3333333333333335,1.75,1.75,1.25,1.5,1.0,1.0,0.7829204333441643,0.014395907482602386,,,,,,,,,,,,,,,,,,,0.005502605551344079,-0.5506733277239216,0.014514570244009244,-0.4397723911286021,-4.899797440896905e+42,-0.1836675462455521,,,,,,,,
36,240621_163103,FalseCHOICE,9.0,37,2.0,2583.0,,,,,,,,,,,48.0,37.0,,,B,,,,,,False,cue1.png,Hard,cue2.png,Easy,Left,Hard,Mid,0.0160009000683203,,,,,,,,,,,,,22,33,Female,1.2857142857142858,1.0,1.6,1.5,2.0,1.875,2.111111111111111,2.111111111111111,2.125,2.3333333333333335,1.75,1.75,1.25,1.5,0.875,0.8333333333333334,0.9942030200269072,0.6540978916078843,,,,,,,,,,,,,,,,,,,0.006122413139025606,-0.48702495271584795,0.011914795436461234,-0.5927890854204432,-4.5918821376613757e+42,-0.18366535100631576,,,,,,,,
37,240621_163120,FalseCHOICE,9.0,38,2.0,2583.0,,,,,,,,,,,49.0,38.0,,,B,,,,,,False,cue2.png,Easy,cue1.png,Hard,Left,Easy,Mid,0.0161116999806836,,,,,,,,,,,,,22,33,Female,1.2857142857142858,1.0,1.6,1.5,2.0,1.875,2.111111111111111,2.111111111111111,2.125,2.3333333333333335,1.75,1.75,1.25,1.5,1.0,1.0,0.6703088500071317,-0.3265590875656155,,,,,,,,,,,,,,,,,,,,,0.009321731170430374,-0.7454108128571239,-2.5716827653935355e+42,-0.18365094827647205,,,,,,,,
38,240621_163143,FalseCHOICE,9.0,39,2.0,2583.0,,,,,,,,,,,51.0,39.0,,,B,,,,,,False,cue2.png,Easy,cue1.png,Hard,Left,Easy,Mid,0.0168397999368608,,,,,,,,,,,,,22,33,Female,1.2857142857142858,1.0,1.6,1.5,2.0,1.875,2.111111111111111,2.111111111111111,2.125,2.3333333333333335,1.75,1.75,1.25,1.5,0.125,0.5,0.9106645166951542,0.4011676943246471,,,,,,,,,,,,,,,,,,,,,0.008808606336970995,-0.7756121462753284,,,,,,,,,,
39,240621_163204,FalseCHOICE,9.0,40,2.0,2583.0,,,,,,,,,,,52.0,40.0,,,B,,,,,,False,cue1.png,Hard,cue2.png,Easy,Left,Hard,Mid,0.0161377000622451,,,,,,,,,,,,,22,33,Female,1.2857142857142858,1.0,1.6,1.5,2.0,1.875,2.111111111111111,2.111111111111111,2.125,2.3333333333333335,1.75,1.75,1.25,1.5,0.125,0.5,1.1006217000152294,0.9763025834632756,,,,,,,,,,,,,,,,,,,0.009354561783058227,-0.15511386762127552,0.007487484392706715,-0.8533703090518929,2.419308103573598e+42,-0.18361536570272968,,,,,,,,
40,240621_163231,FalseCHOICE,9.0,41,2.0,2583.0,,,,,,,,,,,54.0,41.0,,,B,,,,,,False,cue1.png,Hard,cue2.png,Easy,Left,Hard,Mid,0.0164024999830871,,,,,,,,,,,,,22,33,Female,1.2857142857142858,1.0,1.6,1.5,2.0,1.875,2.111111111111111,2.111111111111111,2.125,2.3333333333333335,1.75,1.75,1.25,1.5,1.0,0.8333333333333334,0.948197599989362,0.5148069119744056,,,,,,,,,,,,,,,,,,,0.007549879292699723,-0.3404376845601913,0.0067369922139646704,-0.897542531949652,4.4464864118685304e+42,-0.18360091321753433,,,,,,,,
41,240621_163251,FalseCHOICE,9.0,42,2.0,2583.0,,,,,,,,,,,55.0,42.0,,,B,,,,,,False,cue2.png,Easy,cue1.png,Hard,Left,Easy,Mid,0.016664299997501,,,,,,,,,,,,,22,33,Female,1.2857142857142858,1.0,1.6,1.5,2.0,1.875,2.111111111111111,2.111111111111111,2.125,2.3333333333333335,1.75,1.75,1.25,1.5,0.125,0.3333333333333333,0.911005999939516,0.40220160588543175,,,,,,,,,,,,,,,,,,,0.005744012499574019,-0.5258831181881376,0.008355050694660087,-0.8023073757476396,,,,,,,,,,
42,240621_163313,FalseCHOICE,9.0,43,2.0,2583.0,,,,,,,,,,,57.0,43.0,,,B,,,,,,False,cue1.png,Hard,cue2.png,Easy,Left,Hard,Mid,0.0167984999716281,,,,,,,,,,,,,22,33,Female,1.2857142857142858,1.0,1.6,1.5,2.0,1.875,2.111111111111111,2.111111111111111,2.125,2.3333333333333335,1.75,1.75,1.25,1.5,0.6875,0.75,0.6363268000422977,-0.42944681309214294,,,,,,,,,,,,,,,,,,,0.006805120656862723,-0.4169173500021243,0.01012724310517207,-0.6980002551776879,3.2909859026711053e+42,-0.18360915119735782,,,,,,,,
43,240621_163328,FalseCHOICE,9.0,44,2.0,2583.0,,,,,,,,,,,58.0,44.0,,,B,,,,,,False,cue2.png,Easy,cue1.png,Hard,Left,Easy,Mid,0.0160385000053793,,,,,,,,,,,,,22,33,Female,1.2857142857142858,1.0,1.6,1.5,2.0,1.875,2.111111111111111,2.111111111111111,2.125,2.3333333333333335,1.75,1.75,1.25,1.5,0.6875,0.75,0.405489116635484,-1.1283559205802876,,,,,,,,,,,,,,,,,,,0.008222495683900804,-0.2713663450758142,0.010223103303415668,-0.6923581470201624,3.2561255518467114e+41,-0.1836302924133169,,,,,,,,
44,240621_163342,FalseCHOICE,9.0,45,2.0,2583.0,,,,,,,,,,,59.0,45.0,,,B,,,,,,False,cue1.png,Hard,cue2.png,Easy,Left,Hard,Mid,0.0157027000095695,,,,,,,,,,,,,22,33,Female,1.2857142857142858,1.0,1.6,1.5,2.0,1.875,2.111111111111111,2.111111111111111,2.125,2.3333333333333335,1.75,1.75,1.25,1.5,0.6875,0.75,0.396363633335568,-1.1559852196375922,,,,,,,,,,,,,,,,,,,0.005205984352854792,-0.5811335183572947,,,-2.92702140107247e+42,-0.1836534816137471,,,,,,,,
45,240621_163405,FalseCHOICE,9.0,46,2.0,2583.0,,,,,,,,,,,60.0,46.0,,,B,,,,,,False,cue1.png,Hard,cue2.png,Easy,Left,Hard,Mid,0.0166997999185696,,,,,,,,,,,,,22,33,Female,1.2857142857142858,1.0,1.6,1.5,2.0,1.875,2.111111111111111,2.111111111111111,2.125,2.3333333333333335,1.75,1.75,1.25,1.5,0.6875,0.75,1.4050309999923531,1.897965065161108,,,,,,,,,,,,,,,,,,,,,,,-5.278712348699152e+42,-0.18367024766657308,,,,,,,,
46,240621_163427,FalseCHOICE,9.0,47,2.0,2583.0,,,,,,,,,,,61.0,47.0,,,B,,,,,,False,cue2.png,Easy,cue1.png,Hard,Left,Easy,Mid,0.0110696000047028,,,,,,,,,,,,,22,33,Female,1.2857142857142858,1.0,1.6,1.5,2.0,1.875,2.111111111111111,2.111111111111111,2.125,2.3333333333333335,1.75,1.75,1.25,1.5,0.125,0.5,1.804214483340426,3.10657610281015,,,,,,,,,,,,,,,,,,,0.006412867879206282,-0.45719799900744756,0.02079200905536533,-0.07029695320059069,-3.409831125730258e+42,-0.18365692373838371,,,,,,,,
47,240621_163446,FalseCHOICE,9.0,48,2.0,2583.0,,,,,,,,,,,62.0,48.0,,,B,,,,,,False,cue2.png,Easy,cue1.png,Hard,Left,Easy,Mid,0.0158220999874174,,,,,,,,,,,,,22,33,Female,1.2857142857142858,1.0,1.6,1.5,2.0,1.875,2.111111111111111,2.111111111111111,2.125,2.3333333333333335,1.75,1.75,1.25,1.5,0.125,0.5,0.7943126333217757,0.04888816282484191,,,,,,,,,,,,,,,,,,,,,,,1.6751500815975297e+42,-0.18362067107362456,,,,,,,,
48,240621_163459,FalseCHOICE,9.0,49,2.0,2583.0,,,,,,,,,,,63.0,49.0,,,B,,,,,,False,cue1.png,Hard,cue2.png,Easy,Left,Hard,Mid,0.0162797999801114,,,,,,,,,,,,,22,33,Female,1.2857142857142858,1.0,1.6,1.5,2.0,1.875,2.111111111111111,2.111111111111111,2.125,2.3333333333333335,1.75,1.75,1.25,1.5,1.0,1.0,0.2442666666853862,-1.616490426778286,,,,,,,,,,,,,,,,,,,0.0057456479806454516,-0.5257151697560403,0.020363771290482124,-0.09550203133393778,,,,,,,,,,
49,240621_163514,FalseCHOICE,9.0,50,2.0,2583.0,,,,,,,,,,,64.0,50.0,,,B,,,,,,False,cue2.png,Easy,cue1.png,Hard,Left,Easy,Mid,0.0159933000104501,,,,,,,,,,,,,22,33,Female,1.2857142857142858,1.0,1.6,1.5,2.0,1.875,2.111111111111111,2.111111111111111,2.125,2.3333333333333335,1.75,1.75,1.25,1.5,0.6875,0.75,0.4240451832883991,-1.0721735685852554,,,,,,,,,,,,,,,,,,,0.005143085735745134,-0.5875926112255507,0.019978869538373627,-0.11815645261834445,-2.3292154246147362e+42,-0.18364921963936176,,,,,,,,
0,240621_154252,OFFLINERATING,9.0,1,1.0,,,,,,,,,,,,,,,,,T0,cue2.png,Easy,0.0,1.7689113999949768,,,,,,,,,,,,,,,,,,,,,,22,33,Female,1.2857142857142858,1.0,1.6,1.5,2.0,1.875,2.111111111111111,2.111111111111111,2.125,2.3333333333333335,1.75,1.75,1.25,1.5,,,,,,,,,,,,,,,,,,,,,,,,,,,,,-0.42159521233341773,,,0.022358669104994386,1.0,,,
1,240621_154259,OFFLINERATING,9.0,2,3.0,,,,,,,,,,,,,,,,,T0,cue1.png,Hard,100.0,1.0016078000189736,,,,,,,,,,,,,,,,,,,,,,22,33,Female,1.2857142857142858,1.0,1.6,1.5,2.0,1.875,2.111111111111111,2.111111111111111,2.125,2.3333333333333335,1.75,1.75,1.25,1.5,,,,,,,,,,,,,,,,,,,,,,,,,,,,,2.644551786455075,,,,,,,
2,240621_161022,OFFLINERATING,9.0,3,1.0,,,,,,,,,,,,,,,,,T1,cue2.png,Easy,2.0,1.6853084999602288,,,,,,,,,,,,,,,,,,,,,,22,33,Female,1.2857142857142858,1.0,1.6,1.5,2.0,1.875,2.111111111111111,2.111111111111111,2.125,2.3333333333333335,1.75,1.75,1.25,1.5,,,,,,,,,,,,,,,,,,,,,,,,,,,,,-0.3602722723576479,,,,,37893.01923335781,1.0,
3,240621_161030,OFFLINERATING,9.0,4,3.0,,,,,,,,,,,,,,,,,T1,cue1.png,Hard,0.0,1.151863700011745,,,,,,,,,,,,,,,,,,,,,,22,33,Female,1.2857142857142858,1.0,1.6,1.5,2.0,1.875,2.111111111111111,2.111111111111111,2.125,2.3333333333333335,1.75,1.75,1.25,1.5,,,,,,,,,,,,,,,,,,,,,,,,,,,,,-0.42159521233341773,,,,,14.412891244847952,-1.0000000000000002,
4,240621_161722,OFFLINERATING,9.0,5,1.0,,,,,,,,,,,,,,,,,T2,cue2.png,Easy,3.0,1.0349588999524713,,,,,,,,,,,,,,,,,,,,,,22,33,Female,1.2857142857142858,1.0,1.6,1.5,2.0,1.875,2.111111111111111,2.111111111111111,2.125,2.3333333333333335,1.75,1.75,1.25,1.5,,,,,,,,,,,,,,,,,,,,,,,,,,,,,-0.329610802369763,0.008450729272078192,,,,,,
5,240621_161729,OFFLINERATING,9.0,6,3.0,,,,,,,,,,,,,,,,,T2,cue1.png,Hard,2.0,0.8850274999858811,,,,,,,,,,,,,,,,,,,,,,22,33,Female,1.2857142857142858,1.0,1.6,1.5,2.0,1.875,2.111111111111111,2.111111111111111,2.125,2.3333333333333335,1.75,1.75,1.25,1.5,,,,,,,,,,,,,,,,,,,,,,,,,,,,,-0.3602722723576479,,,0.014811648873132882,-1.0,,,
6,240621_163544,OFFLINERATING,9.0,7,1.0,,,,,,,,,,,,,,,,,T3,cue2.png,Easy,1.0,1.45315020007547,,,,,,,,,,,,,,,,,,,,,,22,33,Female,1.2857142857142858,1.0,1.6,1.5,2.0,1.875,2.111111111111111,2.111111111111111,2.125,2.3333333333333335,1.75,1.75,1.25,1.5,,,,,,,,,,,,,,,,,,,,,,,,,,,,,-0.39093374234553285,,,,,,,
7,240621_163551,OFFLINERATING,9.0,8,3.0,,,,,,,,,,,,,,,,,T3,cue1.png,Hard,2.0,0.7258167000254616,,,,,,,,,,,,,,,,,,,,,,22,33,Female,1.2857142857142858,1.0,1.6,1.5,2.0,1.875,2.111111111111111,2.111111111111111,2.125,2.3333333333333335,1.75,1.75,1.25,1.5,,,,,,,,,,,,,,,,,,,,,,,,,,,,,-0.3602722723576479,,,,,,,
0,240621_161756,LEARNINGCHECK,9.0,1,,,,,,,,,,,,1.0,1.0,1.0,,,B,,,,,,,,,,,,,,,cue2.png,Easy,Left,Left,Easy,0.0136243000160902,1.0,,,,,,22,33,Female,1.2857142857142858,1.0,1.6,1.5,2.0,1.875,2.111111111111111,2.111111111111111,2.125,2.3333333333333335,1.75,1.75,1.25,1.5,,,,,,,,,,,,,,,,,,,,,,,,,,,,,,,,,,,,
1,240621_161801,LEARNINGCHECK,9.0,2,,,,,,,,,,,,2.0,2.0,2.0,,,B,,,,,,,,,,,,,,,cue1.png,Hard,Right,Right,Hard,0.0146949000190943,1.0,,,,,,22,33,Female,1.2857142857142858,1.0,1.6,1.5,2.0,1.875,2.111111111111111,2.111111111111111,2.125,2.3333333333333335,1.75,1.75,1.25,1.5,,,,,,,,,,,,,,,,,,,,,,,,,,,,,,,,,,,,
2,240621_163607,LEARNINGCHECK,9.0,1,,,,,,,,,,,,1.0,1.0,1.0,,,B,,,,,,,,,,,,,,,cue2.png,Easy,Middle,Middle,Mid,0.0136601999402046,1.0,,,,,,22,33,Female,1.2857142857142858,1.0,1.6,1.5,2.0,1.875,2.111111111111111,2.111111111111111,2.125,2.3333333333333335,1.75,1.75,1.25,1.5,,,,,,,,,,,,,,,,,,,,,,,,,,,,,,,,,,,,
3,240621_163616,LEARNINGCHECK,9.0,2,,,,,,,,,,,,2.0,2.0,2.0,,,B,,,,,,,,,,,,,,,cue1.png,Hard,Middle,Right,Hard,0.0136937999632209,0.0,,,,,,22,33,Female,1.2857142857142858,1.0,1.6,1.5,2.0,1.875,2.111111111111111,2.111111111111111,2.125,2.3333333333333335,1.75,1.75,1.25,1.5,,,,,,,,,,,,,,,,,,,,,,,,,,,,,,,,,,,,
0,240621_163627,DEMANDRATING,9.0,-1,,,,,,,,,,,,,,,,,,,,,,,,,,,,,,,,,,,,,,,1.0,MentalDemand,1.0,2.0,1.1663258000044152,22,33,Female,1.2857142857142858,1.0,1.6,1.5,2.0,1.875,2.111111111111111,2.111111111111111,2.125,2.3333333333333335,1.75,1.75,1.25,1.5,,,,,,,,,,,,,,,,,,,,,,,,,,,,,,,,,,,,-1.9270006175446805
1,240621_163630,DEMANDRATING,9.0,-1,,,,,,,,,,,,,,,,,,,,,,,,,,,,,,,,,,,,,,,2.0,Effort,1.0,49.0,1.3969124999130145,22,33,Female,1.2857142857142858,1.0,1.6,1.5,2.0,1.875,2.111111111111111,2.111111111111111,2.125,2.3333333333333335,1.75,1.75,1.25,1.5,,,,,,,,,,,,,,,,,,,,,,,,,,,,,,,,,,,,0.3626658465603752
2,240621_163632,DEMANDRATING,9.0,-1,,,,,,,,,,,,,,,,,,,,,,,,,,,,,,,,,,,,,,,3.0,Frustration,1.0,37.0,0.9136025999905542,22,33,Female,1.2857142857142858,1.0,1.6,1.5,2.0,1.875,2.111111111111111,2.111111111111111,2.125,2.3333333333333335,1.75,1.75,1.25,1.5,,,,,,,,,,,,,,,,,,,,,,,,,,,,,,,,,,,,-0.22192984640261776
3,240621_163634,DEMANDRATING,9.0,-1,,,,,,,,,,,,,,,,,,,,,,,,,,,,,,,,,,,,,,,4.0,MentalDemand,2.0,61.0,0.6455227999249473,22,33,Female,1.2857142857142858,1.0,1.6,1.5,2.0,1.875,2.111111111111111,2.111111111111111,2.125,2.3333333333333335,1.75,1.75,1.25,1.5,,,,,,,,,,,,,,,,,,,,,,,,,,,,,,,,,,,,0.9472615395233681
4,240621_163637,DEMANDRATING,9.0,-1,,,,,,,,,,,,,,,,,,,,,,,,,,,,,,,,,,,,,,,5.0,Effort,2.0,31.0,1.3935479000210762,22,33,Female,1.2857142857142858,1.0,1.6,1.5,2.0,1.875,2.111111111111111,2.111111111111111,2.125,2.3333333333333335,1.75,1.75,1.25,1.5,,,,,,,,,,,,,,,,,,,,,,,,,,,,,,,,,,,,-0.5142276928841143
5,240621_163639,DEMANDRATING,9.0,-1,,,,,,,,,,,,,,,,,,,,,,,,,,,,,,,,,,,,,,,6.0,Frustration,2.0,71.0,0.5533049999503419,22,33,Female,1.2857142857142858,1.0,1.6,1.5,2.0,1.875,2.111111111111111,2.111111111111111,2.125,2.3333333333333335,1.75,1.75,1.25,1.5,,,,,,,,,,,,,,,,,,,,,,,,,,,,,,,,,,,,1.434424616992529
6,240621_163641,DEMANDRATING,9.0,-1,,,,,,,,,,,,,,,,,,,,,,,,,,,,,,,,,,,,,,,7.0,MentalDemand,3.0,30.0,0.5797246999572963,22,33,Female,1.2857142857142858,1.0,1.6,1.5,2.0,1.875,2.111111111111111,2.111111111111111,2.125,2.3333333333333335,1.75,1.75,1.25,1.5,,,,,,,,,,,,,,,,,,,,,,,,,,,,,,,,,,,,-0.5629440006310303
7,240621_163643,DEMANDRATING,9.0,-1,,,,,,,,,,,,,,,,,,,,,,,,,,,,,,,,,,,,,,,8.0,Effort,3.0,64.0,0.461401000036858,22,33,Female,1.2857142857142858,1.0,1.6,1.5,2.0,1.875,2.111111111111111,2.111111111111111,2.125,2.3333333333333335,1.75,1.75,1.25,1.5,,,,,,,,,,,,,,,,,,,,,,,,,,,,,,,,,,,,1.0934104627641164
8,240621_163645,DEMANDRATING,9.0,-1,,,,,,,,,,,,,,,,,,,,,,,,,,,,,,,,,,,,,,,9.0,Frustration,3.0,29.0,0.4513333999784663,22,33,Female,1.2857142857142858,1.0,1.6,1.5,2.0,1.875,2.111111111111111,2.111111111111111,2.125,2.3333333333333335,1.75,1.75,1.25,1.5,,,,,,,,,,,,,,,,,,,,,,,,,,,,,,,,,,,,-0.6116603083779464
