,END,Phase,Block,TrialN,NbackLevel,ISI,Letter_Resp,Letter_RT,Letter_Accuracy,Trial_A_measure,Trial_ACC,Trial_RT,TrialCountCali,CaliEnd_A_measure,ISI_calibrated,TrialIndex,TrialNumber_total,TrialNumber_valid,CueLearning,TrialDemandLearning,CueMapping,OfflineRatingTimePoint,CueFigure,TrialDemand,OfflineRating,OfflineRatingRT,PhaseType,CueLeft,CueDemandLeft,CueRight,CueDemandRight,Choice,ChoiceDemand,TaskDemand,ChoiceRT,CueCheck,CueDemandCheck,CorrectAnswer,Answer,AnswerDemand,AnswerRT,AnswerACC,DemandRatingQuesIndex,QuesTLX,DemandLevel,DemandRating,DemandRatingRT,PID,Age,Gender,BAI_bis,BAI_bas_d,BAI_bas_rr,BAI_bas_fs,NFC,BFI_ext,BFI_agr,BFI_con,BFI_neu,BFI_open,UPPS_lps,UPPS_lpm,UPPS_pu,UPPS_ss,Task_A_measure,Task_ACC,Task_RT,Task_RT_z,Task_RT_log,Task_RT_log_z,cue_i_on_zyg_values,cue_i_on_zyg_zvalues,cue_e_on_zyg_values,cue_e_on_zyg_zvalues,cue_i_on_cor_values,cue_i_on_cor_zvalues,cue_e_on_cor_values,cue_e_on_cor_zvalues,cue_i_on_scr_values,cue_i_on_scr_zvalues,cue_e_on_scr_values,cue_e_on_scr_zvalues,cue_e_true_zyg_values,cue_e_true_zyg_zvalues,cue_e_true_cor_values,cue_e_true_cor_zvalues,cue_e_true_scr_values,cue_e_true_scr_zvalues,cue_e_false_zyg_values,cue_e_false_zyg_zvalues,cue_e_false_cor_values,cue_e_false_cor_zvalues,cue_e_false_scr_values,cue_e_false_scr_zvalues,OfflineRating_z,cue_i_off_zyg_values,cue_i_off_zyg_zvalues,cue_i_off_cor_values,cue_i_off_cor_zvalues,cue_i_off_scr_values,cue_i_off_scr_zvalues,DemandRating_z
0,240623_093251,PRACTICE,0.0,1,1.0,500.0,,,,,,,,,,32.0,1.0,1.0,cue1.png,Easy,A,,,,,,,,,,,,,,,,,,,,,,,,,,,23,21,Female,0.2857142857142857,1.25,0.6,1.0,2.7777777777777777,1.375,3.0,2.7777777777777777,2.25,3.0,1.25,1.5,2.0,0.25,,,,,,,,,,,,,,,,,,,,,,,,,,,,,,,,,,,,,,
0,240623_093644,LEARNING,1.0,1,1.0,500.0,,,,,,,,,,1.0,1.0,1.0,cue1.png,Easy,A,,,,,,,,,,,,,,,,,,,,,,,,,,,23,21,Female,0.2857142857142857,1.25,0.6,1.0,2.7777777777777777,1.375,3.0,2.7777777777777777,2.25,3.0,1.25,1.5,2.0,0.25,1.0,1.0,0.4024259812722448,-0.4953042904797441,-0.9102440964949916,-0.4503258446911539,1.913921925516789e-05,-0.868824650707195,-2.778768094729425e-05,0.20362730637605694,-5.938016108929852e-05,-0.5221434721900814,0.0002634418473194582,0.19782495708945352,,,,,,,,,,,,,,,,,,,,,,,,
1,240623_093709,LEARNING,1.0,2,3.0,500.0,,,,,,,,,,2.0,2.0,2.0,cue2.png,Hard,A,,,,,,,,,,,,,,,,,,,,,,,,,,,23,21,Female,0.2857142857142857,1.25,0.6,1.0,2.7777777777777777,1.375,3.0,2.7777777777777777,2.25,3.0,1.25,1.5,2.0,0.25,0.6113636363636364,0.6647727272727273,0.3346813400043175,-1.6146278965400866,-1.0945764237253053,-1.783906024069571,0.000888311831794534,0.19718761559950604,,,0.001059046503191107,0.16631971078101374,0.006554345790450532,2.897325138102205,1.4450000000000003,0.017360700251905423,1.9509999999999998,0.790478068949688,,,,,,,,,,,,,,,,,,,,
2,240623_093735,LEARNING,1.0,3,1.0,500.0,,,,,,,,,,3.0,3.0,3.0,cue1.png,Easy,A,,,,,,,,,,,,,,,,,,,,,,,,,,,23,21,Female,0.2857142857142857,1.25,0.6,1.0,2.7777777777777777,1.375,3.0,2.7777777777777777,2.25,3.0,1.25,1.5,2.0,0.25,0.8958333333333333,0.9166666666666666,0.4273981062506209,-0.08269764796706372,-0.8500393669664734,-0.014765597552544934,0.0021085155752523614,1.6937282787010899,,,0.000990377800349853,0.12404972988870085,0.002226090167176927,1.0400202191081314,1.1740000000000002,-0.44304294679555084,1.6060000000000003,0.20961559016876793,,,,,,,,,,,,,,,,,,,,
3,240623_093759,LEARNING,1.0,4,3.0,500.0,,,,,,,,,,4.0,4.0,4.0,cue2.png,Hard,A,,,,,,,,,,,,,,,,,,,,,,,,,,,23,21,Female,0.2857142857142857,1.25,0.6,1.0,2.7777777777777777,1.375,3.0,2.7777777777777777,2.25,3.0,1.25,1.5,2.0,0.25,0.0715909090909091,0.6363636363636364,0.3214503062263247,-1.8332401463520958,-1.134912315754283,-2.0757221527738077,0.0011992537312456746,0.578547858825771,-0.0012253488849318628,-0.5001045737578725,0.002009388632927216,0.7513161065622348,0.003789231477662863,1.7107823685147696,1.594,0.27049776080567245,1.5840000000000003,0.17257508427549179,,,,,,,,,,,,,,,,,,,,
4,240623_093823,LEARNING,1.0,5,3.0,500.0,,,,,,,,,,5.0,5.0,5.0,cue2.png,Hard,A,,,,,,,,,,,,,,,,,,,,,,,,,,,23,21,Female,0.2857142857142857,1.25,0.6,1.0,2.7777777777777777,1.375,3.0,2.7777777777777777,2.25,3.0,1.25,1.5,2.0,0.25,0.75,0.8333333333333334,0.3471757500010426,-1.4081866520168556,-1.0579241431022235,-1.518739540781558,0.0022619104028189546,1.881862103231351,0.0031490663591747835,2.0704658939385405,0.0023368557055093364,0.9528930452282733,0.0014202930385291248,0.6942432823899332,1.5799999999999998,0.2467130705522979,,,,,,,,,,,,,,,,,,,,,,
5,240623_093849,LEARNING,1.0,6,1.0,500.0,,,,,,,,,,6.0,6.0,6.0,cue1.png,Easy,A,,,,,,,,,,,,,,,,,,,,,,,,,,,23,21,Female,0.2857142857142857,1.25,0.6,1.0,2.7777777777777777,1.375,3.0,2.7777777777777777,2.25,3.0,1.25,1.5,2.0,0.25,1.0,1.0,0.4010996687429724,-0.5172185392711248,-0.9135453320778935,-0.4742091342202663,0.0005405406452091998,-0.22934256427453112,-0.0018248808522071478,-0.8524120442464259,-0.00037990275951543025,-0.719445642617678,-0.0020456362232539873,-0.7930273474178633,,,,,,,,,,,,,,,,,,,,,,,,
6,240623_093916,LEARNING,1.0,7,3.0,500.0,,,,,,,,,,7.0,7.0,7.0,cue2.png,Hard,A,,,,,,,,,,,,,,,,,,,,,,,,,,,23,21,Female,0.2857142857142857,1.25,0.6,1.0,2.7777777777777777,1.375,3.0,2.7777777777777777,2.25,3.0,1.25,1.5,2.0,0.25,0.0484848484848484,0.6022727272727273,0.4192571714354147,-0.21720777811920192,-0.8692707730335468,-0.15389812160831087,2.901531013889966e-05,-0.8567119427440905,-0.0014814912884154258,-0.6506234571232977,-0.0008403112036627592,-1.0028565027551914,-0.0007906914882028476,-0.25451593950953777,1.4660000000000002,0.05303773563196643,1.141,-0.5732860116663868,,,,,,,,,,,,,,,,,,,,
7,240623_093942,LEARNING,1.0,8,3.0,500.0,,,,,,,,,,8.0,8.0,8.0,cue2.png,Hard,A,,,,,,,,,,,,,,,,,,,,,,,,,,,23,21,Female,0.2857142857142857,1.25,0.6,1.0,2.7777777777777777,1.375,3.0,2.7777777777777777,2.25,3.0,1.25,1.5,2.0,0.25,0.5,0.6875,0.4404049666598439,0.13221065509996674,-0.8200605965862958,0.20212036369932934,,,0.00012653334947425234,0.29431213193772376,0.0018937035579859986,0.6801045399392918,,,,,,,,,,,,,,,,,,,,,,,,,,
8,240623_094008,LEARNING,1.0,9,1.0,500.0,,,,,,,,,,9.0,9.0,9.0,cue1.png,Easy,A,,,,,,,,,,,,,,,,,,,,,,,,,,,23,21,Female,0.2857142857142857,1.25,0.6,1.0,2.7777777777777777,1.375,3.0,2.7777777777777777,2.25,3.0,1.25,1.5,2.0,0.25,1.0,1.0,0.4084505437567713,-0.3957623211238799,-0.8953844399262716,-0.3428214054526932,0.0018874103873274001,1.4225498740071871,0.00033422571680506545,0.4163599568546231,0.004248687341119154,2.1297477601537516,7.507031576235029e-05,0.11699253807099214,,,,,,,,,,,,,,,,,,,,,,,,
9,240623_094033,LEARNING,1.0,10,1.0,500.0,,,,,,,,,,10.0,10.0,10.0,cue1.png,Easy,A,,,,,,,,,,,,,,,,,,,,,,,,,,,23,21,Female,0.2857142857142857,1.25,0.6,1.0,2.7777777777777777,1.375,3.0,2.7777777777777777,2.25,3.0,1.25,1.5,2.0,0.25,0.7818181818181817,0.8181818181818181,0.422583100022166,-0.16225449606552408,-0.8613691650821546,-0.09673274043222628,,,-0.00023765706029610237,0.08030018754465838,0.003806548899610826,1.857583255786761,-0.00014519092144150633,0.022475874793828034,1.48,0.07682242588534019,0.2669999999999999,-2.04480429124472,,,,,,,,,,,,,,,,,,,,
10,240623_094058,LEARNING,1.0,11,3.0,500.0,,,,,,,,,,11.0,11.0,11.0,cue2.png,Hard,A,,,,,,,,,,,,,,,,,,,,,,,,,,,23,21,Female,0.2857142857142857,1.25,0.6,1.0,2.7777777777777777,1.375,3.0,2.7777777777777777,2.25,3.0,1.25,1.5,2.0,0.25,0.6113636363636364,0.6647727272727273,0.357522159977816,-1.2372361427481093,-1.0285579328171917,-1.3062852384461574,0.0013317494863046234,0.7410496428083059,0.0008533159528486571,0.7213968489605811,0.0005887607052173635,-0.12317129271488467,-0.000710496370388578,-0.2201032800550348,,,0.7180000000000002,-1.285473920432559,,,,,,,,,,,,,,,,,,,,
11,240623_094124,LEARNING,1.0,12,1.0,500.0,,,,,,,,,,12.0,12.0,12.0,cue1.png,Easy,A,,,,,,,,,,,,,,,,,,,,,,,,,,,23,21,Female,0.2857142857142857,1.25,0.6,1.0,2.7777777777777777,1.375,3.0,2.7777777777777777,2.25,3.0,1.25,1.5,2.0,0.25,0.8958333333333333,0.8541666666666666,0.3770138666654626,-0.9151807445713054,-0.9754733106045513,-0.922236487604333,0.0008178329888296741,0.1107475805227662,0.0005128934439432471,0.5213518145733446,0.00027087670018566875,-0.31884924005757337,-0.0030238930977843654,-1.2128087705240247,,,1.468,-0.02272940134360099,,,,,,,,,,,,,,,,,,,,
12,240623_094150,LEARNING,1.0,13,1.0,500.0,,,,,,,,,,13.0,13.0,13.0,cue1.png,Easy,A,,,,,,,,,,,,,,,,,,,,,,,,,,,23,21,Female,0.2857142857142857,1.25,0.6,1.0,2.7777777777777777,1.375,3.0,2.7777777777777777,2.25,3.0,1.25,1.5,2.0,0.25,1.0,1.0,0.4297941312470357,-0.04310887328316221,-0.8444489494806429,0.02567912565782923,,,0.0023470231407281437,1.5991552167154042,-0.0004752333547990758,-0.7781277244739212,,,1.9260000000000002,0.834534701099973,,,,,,,,,,,,,,,,,,,,,,
13,240623_094218,LEARNING,1.0,14,1.0,500.0,,,,,,,,,,14.0,14.0,14.0,cue1.png,Easy,A,,,,,,,,,,,,,,,,,,,,,,,,,,,23,21,Female,0.2857142857142857,1.25,0.6,1.0,2.7777777777777777,1.375,3.0,2.7777777777777777,2.25,3.0,1.25,1.5,2.0,0.25,0.9090909090909092,0.8465909090909091,0.5343825733289123,1.6849733772422906,-0.6266432670801239,1.601427369981823,-0.0011999631967714126,-2.364014571120857,0.0011399351309769128,0.8898250281931126,-0.0012675320625961193,-1.265838280431376,0.0004167832194323451,0.26362552653344595,1.459,0.04114539050527918,,,,,,,,,,,,,,,,,,,,,,
14,240623_094242,LEARNING,1.0,15,3.0,500.0,,,,,,,,,,15.0,15.0,15.0,cue2.png,Hard,A,,,,,,,,,,,,,,,,,,,,,,,,,,,23,21,Female,0.2857142857142857,1.25,0.6,1.0,2.7777777777777777,1.375,3.0,2.7777777777777777,2.25,3.0,1.25,1.5,2.0,0.25,0.5,0.75,0.3469625624857144,-1.4117090829273755,-1.0585383939458846,-1.5231834316746047,0.002107825944668844,1.6928824689612936,,,-0.0020759958439236044,-1.7634994735930056,,,,,,,,,,,,,,,,,,,,,,,,,,
15,240623_094309,LEARNING,1.0,16,1.0,500.0,,,,,,,,,,16.0,16.0,16.0,cue1.png,Easy,A,,,,,,,,,,,,,,,,,,,,,,,,,,,23,21,Female,0.2857142857142857,1.25,0.6,1.0,2.7777777777777777,1.375,3.0,2.7777777777777777,2.25,3.0,1.25,1.5,2.0,0.25,1.0,1.0,0.4597105687498697,0.4511911049795399,-0.7771581858972095,0.5125043609188324,-5.3690305845571426e-05,-0.9581477218516663,,,-0.0009730932528869609,-1.084592351130315,0.0008606113986622558,0.45407736954368666,,,,,,,,,,,,,,,,,,,,,,,,
16,240623_094334,LEARNING,1.0,17,1.0,500.0,,,,,,,,,,17.0,17.0,17.0,cue1.png,Easy,A,,,,,,,,,,,,,,,,,,,,,,,,,,,23,21,Female,0.2857142857142857,1.25,0.6,1.0,2.7777777777777777,1.375,3.0,2.7777777777777777,2.25,3.0,1.25,1.5,2.0,0.25,0.75,0.8333333333333334,0.4203466687249602,-0.19920635376883955,-0.8666755064353027,-0.13512227177434805,0.0017219838307356156,1.2196595206347896,-0.0003494910059080544,0.01458236657113533,0.002767449387661317,1.2179510114314762,0.0009253563139960622,0.481860167094443,,,,,,,,,,,,,,,,,,,,,,,,
17,240623_094359,LEARNING,1.0,18,3.0,500.0,,,,,,,,,,18.0,18.0,18.0,cue2.png,Hard,A,,,,,,,,,,,,,,,,,,,,,,,,,,,23,21,Female,0.2857142857142857,1.25,0.6,1.0,2.7777777777777777,1.375,3.0,2.7777777777777777,2.25,3.0,1.25,1.5,2.0,0.25,0.5,0.75,0.3919137187476735,-0.6689951297347584,-0.9367135686539136,-0.6418232556994943,,,0.0004629713642745276,0.49201572814321287,0.0005389126643010863,-0.1538559518079993,-0.0009151799463807788,-0.307935387401801,,,,,,,,,,,,,,,,,,,,,,,,
18,240623_094424,LEARNING,1.0,19,3.0,500.0,,,,,,,,,,19.0,19.0,19.0,cue2.png,Hard,A,,,,,,,,,,,,,,,,,,,,,,,,,,,23,21,Female,0.2857142857142857,1.25,0.6,1.0,2.7777777777777777,1.375,3.0,2.7777777777777777,2.25,3.0,1.25,1.5,2.0,0.25,0.8958333333333333,0.9166666666666666,0.3320150874860701,-1.6586815563947301,-1.1025748668630555,-1.841771974088537,,,8.230602029159206e-05,0.2683224944849921,-0.0011252525522685288,-1.1782561369792388,0.0017214130109105283,0.8234573710643781,,,,,,,,,,,,,,,,,,,,,,,,
19,240623_094450,LEARNING,1.0,20,3.0,500.0,,,,,,,,,,20.0,20.0,20.0,cue2.png,Hard,A,,,,,,,,,,,,,,,,,,,,,,,,,,,23,21,Female,0.2857142857142857,1.25,0.6,1.0,2.7777777777777777,1.375,3.0,2.7777777777777777,2.25,3.0,1.25,1.5,2.0,0.25,0.2083333333333333,0.7083333333333334,0.3875481142895296,-0.7411266523654076,-0.9479152719882202,-0.7228636774549451,0.0014967251514277219,0.9433869922900399,-0.006338038185828786,-3.5045125675118016,,,-0.004706692554801659,-1.934917624814584,,,,,,,,,,,,,,,,,,,,,,,,
20,240623_094516,LEARNING,1.0,21,1.0,500.0,,,,,,,,,,21.0,21.0,21.0,cue1.png,Easy,A,,,,,,,,,,,,,,,,,,,,,,,,,,,23,21,Female,0.2857142857142857,1.25,0.6,1.0,2.7777777777777777,1.375,3.0,2.7777777777777777,2.25,3.0,1.25,1.5,2.0,0.25,0.75,0.8333333333333334,0.4418408562414697,0.15593541139549902,-0.8168055154916855,0.22566974158255892,-0.00011440421294893737,-1.0326113770265608,-7.509187074639448e-05,0.17582959022195047,0.0005001262732919716,-0.1777314575187624,-0.0002041334342940699,-0.0028170442450291652,0.5749999999999997,-1.4606879083506297,1.9540000000000002,0.7955290470260444,,,,,,,,,,,,,,,,,,,,
21,240623_094542,LEARNING,1.0,22,3.0,500.0,,,,,,,,,,22.0,22.0,22.0,cue2.png,Hard,A,,,,,,,,,,,,,,,,,,,,,,,,,,,23,21,Female,0.2857142857142857,1.25,0.6,1.0,2.7777777777777777,1.375,3.0,2.7777777777777777,2.25,3.0,1.25,1.5,2.0,0.25,0.5,0.625,0.3689363571299639,-1.0486429185830184,-0.9971311237194806,-1.0789232214655324,0.000608833186478093,-0.1455839579406259,-0.0029284776656749497,-1.5009269242103542,,,-0.004870346372932502,-2.0051433850012446,1.026,-0.6944811009026488,1.609,0.2146665682451232,,,,,,,,,,,,,,,,,,,,
22,240623_094609,LEARNING,1.0,23,3.0,500.0,,,,,,,,,,23.0,23.0,23.0,cue2.png,Hard,A,,,,,,,,,,,,,,,,,,,,,,,,,,,23,21,Female,0.2857142857142857,1.25,0.6,1.0,2.7777777777777777,1.375,3.0,2.7777777777777777,2.25,3.0,1.25,1.5,2.0,0.25,0.1666666666666666,0.6041666666666667,0.4443005600012839,0.19657633045190953,-0.8112540086285458,0.2658329599914284,0.0007862278181161777,0.07198485471520573,-0.0007172068038474675,-0.20150122813605076,0.002574449052809847,1.0991469547239934,-0.0011896173051960408,-0.42569965570021867,1.455,0.03434976471860086,,,,,,,,,,,,,,,,,,,,,,
23,240623_094636,LEARNING,1.0,24,3.0,500.0,,,,,,,,,,24.0,24.0,24.0,cue2.png,Hard,A,,,,,,,,,,,,,,,,,,,,,,,,,,,23,21,Female,0.2857142857142857,1.25,0.6,1.0,2.7777777777777777,1.375,3.0,2.7777777777777777,2.25,3.0,1.25,1.5,2.0,0.25,0.7818181818181817,0.8181818181818181,0.4967686625022907,1.0634904449174452,-0.6996308290515056,1.073387782739082,,,-0.0033950922051330466,-1.7751271288079185,-0.0015030752395904113,-1.4108301789077502,-0.0004259550424220229,-0.09800328086652074,,,2.308,1.3915444600360323,,,,,,,,,,,,,,,,,,,,
24,240623_094702,LEARNING,1.0,25,1.0,500.0,,,,,,,,,,25.0,25.0,25.0,cue1.png,Easy,A,,,,,,,,,,,,,,,,,,,,,,,,,,,23,21,Female,0.2857142857142857,1.25,0.6,1.0,2.7777777777777777,1.375,3.0,2.7777777777777777,2.25,3.0,1.25,1.5,2.0,0.25,1.0,1.0,0.4329612500005169,0.009220443362673266,-0.837107046899953,0.07879523343800134,,,,,,,,,0.6279999999999999,-1.3706458666771417,0.42599999999999993,-1.7771024531978605,,,,,,,,,,,,,,,,,,,,
25,240623_094727,LEARNING,1.0,26,1.0,500.0,,,,,,,,,,26.0,26.0,26.0,cue1.png,Easy,A,,,,,,,,,,,,,,,,,,,,,,,,,,,23,21,Female,0.2857142857142857,1.25,0.6,1.0,2.7777777777777777,1.375,3.0,2.7777777777777777,2.25,3.0,1.25,1.5,2.0,0.25,0.8958333333333333,0.9166666666666666,0.4156374125013826,-0.2770159274765174,-0.877942003352978,-0.21663145253604474,0.0003578034843293369,-0.4534638172887845,2.8880102321226803e-05,0.23692742125109778,,,-0.0005952610649565607,-0.17065446781995836,1.441,0.010565074465226722,1.6800000000000002,0.33420638271887826,,,,,,,,,,,,,,,,,,,,
26,240623_094756,LEARNING,1.0,27,3.0,500.0,,,,,,,,,,27.0,27.0,27.0,cue2.png,Hard,A,,,,,,,,,,,,,,,,,,,,,,,,,,,23,21,Female,0.2857142857142857,1.25,0.6,1.0,2.7777777777777777,1.375,3.0,2.7777777777777777,2.25,3.0,1.25,1.5,2.0,0.25,0.6041666666666667,0.6458333333333334,0.4929977307866255,1.00118451477764,-0.7072507078169256,1.01826061408931,8.146059143766685e-05,-0.7923894912910321,,,,,-0.0007572424002342329,-0.24016254612724347,0.32699999999999996,-1.882016707124685,,,,,,,,,,,,,,,,,,,,,,
27,240623_094822,LEARNING,1.0,28,1.0,500.0,,,,,,,,,,28.0,28.0,28.0,cue1.png,Easy,A,,,,,,,,,,,,,,,,,,,,,,,,,,,23,21,Female,0.2857142857142857,1.25,0.6,1.0,2.7777777777777777,1.375,3.0,2.7777777777777777,2.25,3.0,1.25,1.5,2.0,0.25,1.0,0.9375,0.4543804666570698,0.3631234883604361,-0.7888203996094895,0.4281323069874584,0.0017217666464872205,1.2193931511363751,-0.0001481761672882556,0.13288251641683385,0.0025796890897272955,1.102372532770627,0.00023722349347396563,0.1865743559689193,0.512,-1.5677190144908126,,,,,,,,,,,,,,,,,,,,,,
28,240623_094849,LEARNING,1.0,29,1.0,500.0,,,,,,,,,,29.0,29.0,29.0,cue1.png,Easy,A,,,,,,,,,,,,,,,,,,,,,,,,,,,23,21,Female,0.2857142857142857,1.25,0.6,1.0,2.7777777777777777,1.375,3.0,2.7777777777777777,2.25,3.0,1.25,1.5,2.0,0.25,0.8958333333333333,0.9166666666666666,0.4748989875224652,0.7021446173563912,-0.7446531554098238,0.747666934078925,-6.353267241685553e-06,-0.9000903658393233,-8.989392077213753e-05,0.16713135044949132,,,,,1.292,-0.24257198608854066,,,,,,,,,,,,,,,,,,,,,,
29,240623_094917,LEARNING,1.0,30,3.0,500.0,,,,,,,,,,30.0,30.0,30.0,cue2.png,Hard,A,,,,,,,,,,,,,,,,,,,,,,,,,,,23,21,Female,0.2857142857142857,1.25,0.6,1.0,2.7777777777777777,1.375,3.0,2.7777777777777777,2.25,3.0,1.25,1.5,2.0,0.25,0.0715909090909091,0.5738636363636364,0.5365796333178878,1.721274715083389,-0.6225402967651776,1.6311109310305247,0.0003007804705614462,-0.5234007104460044,0.0017310896578484995,1.2372096004895827,,,0.004456251071758898,1.9970082481782738,1.9220000000000002,0.8277390753132946,0.5189999999999999,-1.62052213283083,,,,,,,,,,,,,,,,,,,,
30,240623_094945,LEARNING,1.0,31,3.0,500.0,,,,,,,,,,31.0,31.0,31.0,cue2.png,Hard,A,,,,,,,,,,,,,,,,,,,,,,,,,,,23,21,Female,0.2857142857142857,1.25,0.6,1.0,2.7777777777777777,1.375,3.0,2.7777777777777777,2.25,3.0,1.25,1.5,2.0,0.25,0.6041666666666667,0.5208333333333334,0.4070207909151742,-0.4193856819754368,-0.8988910115145846,-0.36819022945665075,9.494631757461878e-05,-0.7758496817357782,0.0002747472051539946,0.38140815256060623,,,,,,,0.8619999999999999,-1.0430269727674795,,,,,,,,,,,,,,,,,,,,
31,240623_095013,LEARNING,1.0,32,1.0,500.0,,,,,,,,,,32.0,32.0,32.0,cue1.png,Easy,A,,,,,,,,,,,,,,,,,,,,,,,,,,,23,21,Female,0.2857142857142857,1.25,0.6,1.0,2.7777777777777777,1.375,3.0,2.7777777777777777,2.25,3.0,1.25,1.5,2.0,0.25,1.0,1.0,0.5173355437509599,1.4033106174625793,-0.6590635942017263,1.366877596168608,0.0021243143596270885,1.7131049798226188,-0.0005755864210907269,-0.11827977950270638,0.004582554555432841,2.335264395617716,0.0005652946392788773,0.327353507183336,1.0990000000000002,-0.5704609302957693,1.371,-0.18604435914577291,,,,,,,,,,,,,,,,,,,,
32,240623_095039,LEARNING,1.0,33,1.0,500.0,,,,,,,,,,33.0,33.0,33.0,cue1.png,Easy,A,,,,,,,,,,,,,,,,,,,,,,,,,,,23,21,Female,0.2857142857142857,1.25,0.6,1.0,2.7777777777777777,1.375,3.0,2.7777777777777777,2.25,3.0,1.25,1.5,2.0,0.25,1.0,1.0,0.4716139687443501,0.6478672753279148,-0.7515944908586206,0.6974487899692036,0.0008909754052318394,0.2004544027893149,-0.0021276306310556384,-1.0303191694691674,,,,,1.4629999999999999,0.04794101629195713,2.073,0.9958845107214921,,,,,,,,,,,,,,,,,,,,
33,240623_095104,LEARNING,1.0,34,1.0,500.0,,,,,,,,,,34.0,34.0,34.0,cue1.png,Easy,A,,,,,,,,,,,,,,,,,,,,,,,,,,,23,21,Female,0.2857142857142857,1.25,0.6,1.0,2.7777777777777777,1.375,3.0,2.7777777777777777,2.25,3.0,1.25,1.5,2.0,0.25,1.0,1.0,0.3816285750071984,-0.8389333560648157,-0.9633074601171943,-0.8342207970361266,-4.4094182150147126e-05,-0.9463783846443744,-0.0014024202299343274,-0.6041583374584824,,,-0.0006473084029488029,-0.19298858698652124,1.2890000000000001,-0.2476687054285492,1.224,-0.4335422848872088,,,,,,,,,,,,,,,,,,,,
34,240623_095131,LEARNING,1.0,35,3.0,500.0,,,,,,,,,,35.0,35.0,35.0,cue2.png,Hard,A,,,,,,,,,,,,,,,,,,,,,,,,,,,23,21,Female,0.2857142857142857,1.25,0.6,1.0,2.7777777777777777,1.375,3.0,2.7777777777777777,2.25,3.0,1.25,1.5,2.0,0.25,0.75,0.8333333333333334,0.4814588500157697,0.8105311820180284,-0.7309345134609075,0.8469165299905824,,,-6.197991925920108e-05,0.1835346647029925,0.0009027461175254549,0.07010682132507538,,,0.7080000000000001,-1.234733350943575,2.6149999999999998,1.9084278831831123,,,,,,,,,,,,,,,,,,,,
35,240623_095159,LEARNING,1.0,36,3.0,500.0,,,,,,,,,,36.0,36.0,36.0,cue2.png,Hard,A,,,,,,,,,,,,,,,,,,,,,,,,,,,23,21,Female,0.2857142857142857,1.25,0.6,1.0,2.7777777777777777,1.375,3.0,2.7777777777777777,2.25,3.0,1.25,1.5,2.0,0.25,0.6041666666666667,0.6458333333333334,0.457320861509428,0.4117067166096798,-0.7823700304882495,0.47479848073468367,,,,,0.0005655251437391385,-0.13747426771030974,-0.000727300439600384,-0.22731410194789678,1.431,-0.006423990001469088,1.0010000000000001,-0.8089983218963255,,,,,,,,,,,,,,,,,,,,
36,240623_095224,LEARNING,1.0,37,1.0,500.0,,,,,,,,,,37.0,37.0,37.0,cue1.png,Easy,A,,,,,,,,,,,,,,,,,,,,,,,,,,,23,21,Female,0.2857142857142857,1.25,0.6,1.0,2.7777777777777777,1.375,3.0,2.7777777777777777,2.25,3.0,1.25,1.5,2.0,0.25,1.0,1.0,0.4050624374940526,-0.45174294554999833,-0.9037140571060733,-0.40308328430867063,0.0005072786745356859,-0.2701373019687008,-0.0006028596305986274,-0.13430654033999945,0.0007621249538503506,-0.016454503640429385,,,,,1.8679999999999999,0.65073434217051,,,,,,,,,,,,,,,,,,,,
37,240623_095250,LEARNING,1.0,38,3.0,500.0,,,,,,,,,,38.0,38.0,38.0,cue2.png,Hard,A,,,,,,,,,,,,,,,,,,,,,,,,,,,23,21,Female,0.2857142857142857,1.25,0.6,1.0,2.7777777777777777,1.375,3.0,2.7777777777777777,2.25,3.0,1.25,1.5,2.0,0.25,0.5,0.625,0.3489413214431676,-1.3790146650320767,-1.0528515043163806,-1.482040766108714,7.587142624592216e-05,-0.7992444227130049,0.00030890380465866665,0.40147985153384236,0.00014852755774617202,-0.3941629666771682,,,1.2750000000000001,-0.27145339568192334,1.7180000000000002,0.39818543835271886,,,,,,,,,,,,,,,,,,,,
38,240623_095316,LEARNING,1.0,39,3.0,500.0,,,,,,,,,,39.0,39.0,39.0,cue2.png,Hard,A,,,,,,,,,,,,,,,,,,,,,,,,,,,23,21,Female,0.2857142857142857,1.25,0.6,1.0,2.7777777777777777,1.375,3.0,2.7777777777777777,2.25,3.0,1.25,1.5,2.0,0.25,0.6041666666666667,0.7708333333333334,0.4392331999959424,0.11284991950300251,-0.8227247996675562,0.1828457824232598,,,,,,,-0.00018933109857974164,0.003534810480692893,2.774,2.275207367875776,1.428,-0.09007577569501217,,,,,,,,,,,,,,,,,,,,
39,240623_095344,LEARNING,1.0,40,3.0,500.0,,,,,,,,,,40.0,40.0,40.0,cue2.png,Hard,A,,,,,,,,,,,,,,,,,,,,,,,,,,,23,21,Female,0.2857142857142857,1.25,0.6,1.0,2.7777777777777777,1.375,3.0,2.7777777777777777,2.25,3.0,1.25,1.5,2.0,0.25,0.2083333333333333,0.7083333333333334,0.5022146428652506,1.15347268209977,-0.6887276752459471,1.1522683026472365,0.0013483508480013123,0.7614106792132156,,,0.002273193450842946,0.9137048535635663,8.558314070946857e-05,0.12150371374689609,1.924,0.8311368882066335,2.453,1.6356750670598976,,,,,,,,,,,,,,,,,,,,
40,240623_095412,LEARNING,1.0,41,1.0,500.0,,,,,,,,,,41.0,41.0,41.0,cue1.png,Easy,A,,,,,,,,,,,,,,,,,,,,,,,,,,,23,21,Female,0.2857142857142857,1.25,0.6,1.0,2.7777777777777777,1.375,3.0,2.7777777777777777,2.25,3.0,1.25,1.5,2.0,0.25,0.8958333333333333,0.8541666666666666,0.5170239866788809,1.398162857006755,-0.659666009652709,1.3625193302189893,,,,,-0.001286573374202047,-1.2775594262291614,-0.000670227064991309,-0.20282325190774753,1.521,0.14647759019879283,2.02,0.9066505647058725,,,,,,,,,,,,,,,,,,,,
41,240623_095441,LEARNING,1.0,42,3.0,500.0,,,,,,,,,,42.0,42.0,42.0,cue2.png,Hard,A,,,,,,,,,,,,,,,,,,,,,,,,,,,23,21,Female,0.2857142857142857,1.25,0.6,1.0,2.7777777777777777,1.375,3.0,2.7777777777777777,2.25,3.0,1.25,1.5,2.0,0.25,0.75,0.8333333333333334,0.6258790687497822,3.1967414710657964,-0.46859810745476527,2.744829048298048,1.043134398866696e-05,-0.8795045797726523,-0.00013068147017587144,0.14316305660994316,,,-0.0009099952540616782,-0.3057105755177808,,,,,,,,,,,,,,,,,,,,,,,,
42,240623_095509,LEARNING,1.0,43,3.0,500.0,,,,,,,,,,43.0,43.0,43.0,cue2.png,Hard,A,,,,,,,,,,,,,,,,,,,,,,,,,,,23,21,Female,0.2857142857142857,1.25,0.6,1.0,2.7777777777777777,1.375,3.0,2.7777777777777777,2.25,3.0,1.25,1.5,2.0,0.25,0.5272727272727272,0.6931818181818181,0.458948721419022,0.43860333883787106,-0.7788167932038635,0.5005049147947547,6.17729808149183e-05,-0.8165357127841415,0.002537153375173976,1.7108828736499175,-0.0006509863976175813,-0.886314969234877,0.002979527301096729,1.363328872011506,1.2980000000000003,-0.2323785474085228,1.964,0.8123656406138968,,,,,,,,,,,,,,,,,,,,
43,240623_095536,LEARNING,1.0,44,1.0,500.0,,,,,,,,,,44.0,44.0,44.0,cue1.png,Easy,A,,,,,,,,,,,,,,,,,,,,,,,,,,,23,21,Female,0.2857142857142857,1.25,0.6,1.0,2.7777777777777777,1.375,3.0,2.7777777777777777,2.25,3.0,1.25,1.5,2.0,0.25,1.0,1.0,0.5199406062311027,1.4463532533775538,-0.6540406927164673,1.4032165387966289,0.00015740061097071524,-0.6992514987244134,-0.0014257156072420654,-0.6178475748992561,8.025084727125622e-05,-0.4361916511833625,-0.005831409970702486,-2.4175469727205594,,,1.8259999999999998,0.5800206491015283,,,,,,,,,,,,,,,,,,,,
44,240623_095602,LEARNING,1.0,45,1.0,500.0,,,,,,,,,,45.0,45.0,45.0,cue1.png,Easy,A,,,,,,,,,,,,,,,,,,,,,,,,,,,23,21,Female,0.2857142857142857,1.25,0.6,1.0,2.7777777777777777,1.375,3.0,2.7777777777777777,2.25,3.0,1.25,1.5,2.0,0.25,1.0,1.0,0.4191585937296622,-0.21883654684562637,-0.8695059253536784,-0.15559936673429756,0.0001560706815980249,-0.7008826143442067,-0.00011507690856779173,0.15233288228781405,-0.0002590733893967339,-0.6450674331158217,0.00010469747302226974,0.1297058964546268,1.925,0.8328357946533032,1.3270000000000002,-0.26012537093232485,,,,,,,,,,,,,,,,,,,,
45,240623_095628,LEARNING,1.0,46,1.0,500.0,,,,,,,,,,46.0,46.0,46.0,cue1.png,Easy,A,,,,,,,,,,,,,,,,,,,,,,,,,,,23,21,Female,0.2857142857142857,1.25,0.6,1.0,2.7777777777777777,1.375,3.0,2.7777777777777777,2.25,3.0,1.25,1.5,2.0,0.25,0.8958333333333333,0.9166666666666666,0.462900343714864,0.5038947631510793,-0.7702434884200983,0.5625297885821635,,,,,0.0033934188949639064,1.6032753006352447,-0.0042318448103306205,-1.7311549249322093,1.8749999999999998,0.7478904723198238,1.602,0.20288095273362644,,,,,,,,,,,,,,,,,,,,
46,240623_095655,LEARNING,1.0,47,3.0,500.0,,,,,,,,,,47.0,47.0,47.0,cue2.png,Hard,A,,,,,,,,,,,,,,,,,,,,,,,,,,,23,21,Female,0.2857142857142857,1.25,0.6,1.0,2.7777777777777777,1.375,3.0,2.7777777777777777,2.25,3.0,1.25,1.5,2.0,0.25,0.6041666666666667,0.6458333333333334,0.4138954230584204,-0.3057982764346273,-0.88214193837407,-0.24701651945817718,0.0017048799664864576,1.1986821810041977,,,0.0005299237251014353,-0.15938921911158868,0.0006144092382131903,0.3484291538490769,,,,,,,,,,,,,,,,,,,,,,,,
47,240623_095722,LEARNING,1.0,48,3.0,500.0,,,,,,,,,,48.0,48.0,48.0,cue2.png,Hard,A,,,,,,,,,,,,,,,,,,,,,,,,,,,23,21,Female,0.2857142857142857,1.25,0.6,1.0,2.7777777777777777,1.375,3.0,2.7777777777777777,2.25,3.0,1.25,1.5,2.0,0.25,0.8958333333333333,0.7916666666666666,0.3883359357382038,-0.7281097239655056,-0.9458845002011311,-0.7081717509502731,0.00038711075147004285,-0.4175193963381015,,,0.0006805921159644601,-0.0666431828630425,-7.804380307349992e-05,0.05128948565603751,0.7100000000000002,-1.2313355380502358,1.375,-0.17930972171063178,,,,,,,,,,,,,,,,,,,,
48,240623_095748,LEARNING,1.0,49,1.0,500.0,,,,,,,,,,49.0,49.0,49.0,cue1.png,Easy,A,,,,,,,,,,,,,,,,,,,,,,,,,,,23,21,Female,0.2857142857142857,1.25,0.6,1.0,2.7777777777777777,1.375,3.0,2.7777777777777777,2.25,3.0,1.25,1.5,2.0,0.25,1.0,1.0,0.4577900937583763,0.4194596948990676,-0.7813445104955729,0.48221776066424865,0.000550810089741807,-0.21674742070698147,-0.0020834851158946077,-1.0043776090041263,7.40681867866513e-05,-0.4399974743565782,-3.400907684121546e-05,0.07018529975675873,2.911,2.5079575510695085,,,,,,,,,,,,,,,,,,,,,,
49,240623_095814,LEARNING,1.0,50,1.0,500.0,,,,,,,,,,50.0,50.0,50.0,cue1.png,Easy,A,,,,,,,,,,,,,,,,,,,,,,,,,,,23,21,Female,0.2857142857142857,1.25,0.6,1.0,2.7777777777777777,1.375,3.0,2.7777777777777777,2.25,3.0,1.25,1.5,2.0,0.25,0.8958333333333333,0.9166666666666666,0.4230188624787843,-0.15505452872938236,-0.8603385087816332,-0.08927630110452531,,,,,0.000715129489834038,-0.0453832191076085,-0.0014985610402474493,-0.5582710120956149,2.408,1.6534076083947098,0.4870000000000001,-1.6743992323119583,,,,,,,,,,,,,,,,,,,,
0,240623_095918,TrueCHOICE,9.0,1,1.0,500.0,,,,,,,,,,,1.0,1.0,,,A,,,,,,True,cue1.png,Easy,cue2.png,Hard,Left,Easy,Easy,0.0151667000027373,,,,,,,,,,,,,23,21,Female,0.2857142857142857,1.25,0.6,1.0,2.7777777777777777,1.375,3.0,2.7777777777777777,2.25,3.0,1.25,1.5,2.0,0.25,0.6909090909090909,0.7556818181818181,0.4708712800095478,0.30990338483272617,-0.7531705131666859,0.34147201405192323,,,,,,,,,,,,,,,0.0003404082371421041,-0.4870392312746652,,,,,,,,,,,,,,,,
1,240623_095944,TrueCHOICE,9.0,2,1.0,500.0,,,,,,,,,,,2.0,2.0,,,A,,,,,,True,cue1.png,Easy,cue2.png,Hard,Left,Easy,Easy,0.0159017000114545,,,,,,,,,,,,,23,21,Female,0.2857142857142857,1.25,0.6,1.0,2.7777777777777777,1.375,3.0,2.7777777777777777,2.25,3.0,1.25,1.5,2.0,0.25,,,,,,,,,,,,,,,,,,,0.0024378660190342793,2.0855617789002046,0.002986558787251197,1.2797649819441053,1.458,-0.04092610960365534,,,,,,,,,,,,,,
2,240623_100008,TrueCHOICE,9.0,3,1.0,500.0,,,,,,,,,,,3.0,3.0,,,A,,,,,,True,cue2.png,Hard,cue1.png,Easy,Right,Easy,Easy,0.0166365000186488,,,,,,,,,,,,,23,21,Female,0.2857142857142857,1.25,0.6,1.0,2.7777777777777777,1.375,3.0,2.7777777777777777,2.25,3.0,1.25,1.5,2.0,0.25,1.0,1.0,0.4158835937341791,-0.8032802852497644,-0.8773498806329428,-0.7336894418161664,,,,,,,,,,,,,-4.4861169599860404e-05,-0.4952179920109145,0.0003738293928632853,-0.4647243109325897,1.47,0.0292329354311835,,,,,,,,,,,,,,
3,240623_100032,TrueCHOICE,9.0,4,1.0,500.0,,,,,,,,,,,4.0,4.0,,,A,,,,,,True,cue1.png,Easy,cue2.png,Hard,Left,Easy,Easy,0.0164392999140545,,,,,,,,,,,,,23,21,Female,0.2857142857142857,1.25,0.6,1.0,2.7777777777777777,1.375,3.0,2.7777777777777777,2.25,3.0,1.25,1.5,2.0,0.25,1.0,1.0,0.4880232124996837,0.6571311452946039,-0.717392307662532,0.6512444690344024,,,,,,,,,,,,,4.4248534352812636e-05,-0.4025889982150011,0.0003295416488217056,-0.4942947270086484,1.103,-2.1164645252176357,,,,,,,,,,,,,,
4,240623_100058,TrueCHOICE,9.0,5,1.0,500.0,,,,,,,,,,,5.0,5.0,,,A,,,,,,True,cue2.png,Hard,cue1.png,Easy,Right,Easy,Easy,0.0166564000537619,,,,,,,,,,,,,23,21,Female,0.2857142857142857,1.25,0.6,1.0,2.7777777777777777,1.375,3.0,2.7777777777777777,2.25,3.0,1.25,1.5,2.0,0.25,0.7818181818181817,0.8181818181818181,0.4526922687364276,-0.05811680038004467,-0.7925427028030713,0.0005823671331366788,,,,,,,,,,,,,-0.0001438285425391303,-0.5980939725983742,-0.00019818496361575025,-0.8466517016500673,1.5850000000000002,0.7015904503483897,,,,,,,,,,,,,,
5,240623_100121,TrueCHOICE,9.0,6,1.0,500.0,,,,,,,,,,,6.0,6.0,,,A,,,,,,True,cue2.png,Hard,cue1.png,Easy,Right,Easy,Easy,0.0147204999811947,,,,,,,,,,,,,23,21,Female,0.2857142857142857,1.25,0.6,1.0,2.7777777777777777,1.375,3.0,2.7777777777777777,2.25,3.0,1.25,1.5,2.0,0.25,0.8958333333333333,0.9166666666666666,0.5138499562526704,1.179973827804561,-0.6658239700474401,1.097729984931439,,,,,,,,,,,,,0.0011340103930576714,0.7302118076613983,0.0037911454565314846,1.8169782244504562,1.5979999999999999,0.7775960824694632,,,,,,,,,,,,,,
6,240623_100143,TrueCHOICE,9.0,7,3.0,500.0,,,,,,,,,,,7.0,7.0,,,A,,,,,,True,cue1.png,Easy,cue2.png,Hard,Right,Hard,Hard,0.0169675999786704,,,,,,,,,,,,,23,21,Female,0.2857142857142857,1.25,0.6,1.0,2.7777777777777777,1.375,3.0,2.7777777777777777,2.25,3.0,1.25,1.5,2.0,0.25,,,,,,,,,,,,,,,,,,,0.00026853082317319704,-0.1694489268406147,-0.00013435509682666394,-0.8040332355285909,1.576,0.64897116657226,,,,,,,,,,,,,,
7,240623_100207,TrueCHOICE,9.0,8,1.0,500.0,,,,,,,,,,,8.0,8.0,,,A,,,,,,True,cue2.png,Hard,cue1.png,Easy,Right,Easy,Easy,0.015736199915409,,,,,,,,,,,,,23,21,Female,0.2857142857142857,1.25,0.6,1.0,2.7777777777777777,1.375,3.0,2.7777777777777777,2.25,3.0,1.25,1.5,2.0,0.25,1.0,1.0,0.5024554125047871,0.9493000008560354,-0.6882483743195209,0.9035765145435637,,,,,,,,,,,,,,,,,,,,,,,,,,,,,,,,
8,240623_100232,TrueCHOICE,9.0,9,1.0,500.0,,,,,,,,,,,9.0,9.0,,,A,,,,,,True,cue1.png,Easy,cue2.png,Hard,Left,Easy,Easy,0.0146396999480202,,,,,,,,,,,,,23,21,Female,0.2857142857142857,1.25,0.6,1.0,2.7777777777777777,1.375,3.0,2.7777777777777777,2.25,3.0,1.25,1.5,2.0,0.25,1.0,1.0,0.4501618187423446,-0.10934382595932038,-0.7981481636521407,-0.0479504573631285,,,,,,,,,,,,,,,,,,,,,,,,,,,,,,,,
9,240623_100254,TrueCHOICE,9.0,10,1.0,500.0,,,,,,,,,,,10.0,10.0,,,A,,,,,,True,cue2.png,Hard,cue1.png,Easy,Right,Easy,Easy,0.0163938000332564,,,,,,,,,,,,,23,21,Female,0.2857142857142857,1.25,0.6,1.0,2.7777777777777777,1.375,3.0,2.7777777777777777,2.25,3.0,1.25,1.5,2.0,0.25,0.9090909090909092,0.9090909090909092,0.3505668687575962,-2.1255674471988004,-1.0482038096551056,-2.2129654505151732,,,,,,,,,,,,,-0.000675173386086989,-1.150423696896698,,,,,,,,,,,,,,,,,,
0,240623_100411,FalseCHOICE,9.0,1,2.0,500.0,,,,,,,,,,,1.0,1.0,,,A,,,,,,False,cue1.png,Easy,cue2.png,Hard,Left,Easy,Mid,0.0160664001014083,,,,,,,,,,,,,23,21,Female,0.2857142857142857,1.25,0.6,1.0,2.7777777777777777,1.375,3.0,2.7777777777777777,2.25,3.0,1.25,1.5,2.0,0.25,1.0,1.0,0.4526652187487343,-0.034166657730648864,-0.7926024581772196,0.04520715994340074,,,,,,,,,,,,,,,,,,,0.00015828175014656002,0.15484415761544235,0.00019589709330472896,0.1649682785672341,,,,,,,,,,
1,240623_100434,FalseCHOICE,9.0,2,2.0,500.0,,,,,,,,,,,2.0,2.0,,,A,,,,,,False,cue2.png,Hard,cue1.png,Easy,Left,Hard,Mid,0.0160633000778034,,,,,,,,,,,,,23,21,Female,0.2857142857142857,1.25,0.6,1.0,2.7777777777777777,1.375,3.0,2.7777777777777777,2.25,3.0,1.25,1.5,2.0,0.25,,,,,,,,,,,,,,,,,,,,,,,,,0.000757978379481051,0.4078961402326926,5.370141696955759e-05,0.10519766443686283,1.4480000000000002,-0.3681497178176832,,,,,,,,
2,240623_100458,FalseCHOICE,9.0,3,2.0,500.0,,,,,,,,,,,3.0,3.0,,,A,,,,,,False,cue2.png,Hard,cue1.png,Easy,Right,Easy,Mid,0.0167927999282255,,,,,,,,,,,,,23,21,Female,0.2857142857142857,1.25,0.6,1.0,2.7777777777777777,1.375,3.0,2.7777777777777777,2.25,3.0,1.25,1.5,2.0,0.25,,,,,,,,,,,,,,,,,,,,,,,,,0.002886623903050424,1.3061135783169058,0.0017976393172831036,0.8382455460143179,1.167,-0.9655176532847606,,,,,,,,
3,240623_100525,FalseCHOICE,9.0,4,2.0,500.0,,,,,,,,,,,4.0,4.0,,,A,,,,,,False,cue2.png,Hard,cue1.png,Easy,Right,Easy,Mid,0.0164114000508561,,,,,,,,,,,,,23,21,Female,0.2857142857142857,1.25,0.6,1.0,2.7777777777777777,1.375,3.0,2.7777777777777777,2.25,3.0,1.25,1.5,2.0,0.25,0.8409090909090908,0.8465909090909091,0.5260206066615258,1.031993333012428,-0.6424148908491963,0.9697630239049996,,,,,,,,,,,,,,,,,,,-0.0002694682412803535,-0.025652076814312766,,,1.6010000000000002,-0.04289244334628525,,,,,,,,
4,240623_100549,FalseCHOICE,9.0,5,2.0,500.0,,,,,,,,,,,5.0,5.0,,,A,,,,,,False,cue1.png,Easy,cue2.png,Hard,Right,Hard,Mid,0.0167381999781355,,,,,,,,,,,,,23,21,Female,0.2857142857142857,1.25,0.6,1.0,2.7777777777777777,1.375,3.0,2.7777777777777777,2.25,3.0,1.25,1.5,2.0,0.25,,,,,,,,,,,,,,,,,,,,,,,,,-0.0011004232042390507,-0.3762873656530928,,,1.4690000000000003,-0.32350656249807924,,,,,,,,
5,240623_100617,FalseCHOICE,9.0,6,2.0,500.0,,,,,,,,,,,6.0,6.0,,,A,,,,,,False,cue2.png,Hard,cue1.png,Easy,Left,Hard,Mid,0.015958399977535,,,,,,,,,,,,,23,21,Female,0.2857142857142857,1.25,0.6,1.0,2.7777777777777777,1.375,3.0,2.7777777777777777,2.25,3.0,1.25,1.5,2.0,0.25,0.8958333333333333,0.9166666666666666,0.5437919500036514,1.2902851339590455,-0.6091885501231049,1.1743046427808117,,,,,,,,,,,,,,,,,,,0.0010813084515575964,0.5443306502441072,0.0001476999092362083,0.1447090459001331,,,,,,,,,,
6,240623_100641,FalseCHOICE,9.0,7,2.0,500.0,,,,,,,,,,,7.0,7.0,,,A,,,,,,False,cue2.png,Hard,cue1.png,Easy,Left,Hard,Mid,0.0169942999491468,,,,,,,,,,,,,23,21,Female,0.2857142857142857,1.25,0.6,1.0,2.7777777777777777,1.375,3.0,2.7777777777777777,2.25,3.0,1.25,1.5,2.0,0.25,0.0715909090909091,0.6363636363636364,0.3159385812396067,-2.0213754331019254,-1.1522074474519943,-2.168524026058736,,,,,,,,,,,,,,,,,,,0.00016791187965269376,0.15890775118122974,-0.0016373821396679852,-0.605633391268011,1.4620000000000002,-0.3383876142712807,,,,,,,,
7,240623_100704,FalseCHOICE,9.0,8,2.0,500.0,,,,,,,,,,,8.0,8.0,,,A,,,,,,False,cue1.png,Easy,cue2.png,Hard,Left,Easy,Mid,0.016160300001502,,,,,,,,,,,,,23,21,Female,0.2857142857142857,1.25,0.6,1.0,2.7777777777777777,1.375,3.0,2.7777777777777777,2.25,3.0,1.25,1.5,2.0,0.25,,,,,,,,,,,,,,,,,,,,,,,,,,,0.001313046937345865,0.6345517003345477,,,,,,,,,,
8,240623_100727,FalseCHOICE,9.0,9,2.0,500.0,,,,,,,,,,,9.0,9.0,,,A,,,,,,False,cue1.png,Easy,cue2.png,Hard,Left,Easy,Mid,0.0158170000649988,,,,,,,,,,,,,23,21,Female,0.2857142857142857,1.25,0.6,1.0,2.7777777777777777,1.375,3.0,2.7777777777777777,2.25,3.0,1.25,1.5,2.0,0.25,0.6113636363636364,0.7272727272727273,0.3924459937625215,-0.9094033674074339,-0.9353563467363039,-0.8335869181466783,,,,,,,,,,,,,,,,,,,-0.002745444151597334,-1.070431357487564,-0.002750248239119818,-1.0734161813179663,,,,,,,,,,
9,240623_100754,FalseCHOICE,9.0,10,2.0,500.0,,,,,,,,,,,10.0,10.0,,,A,,,,,,False,cue2.png,Hard,cue1.png,Easy,Left,Hard,Mid,0.0169503999641165,,,,,,,,,,,,,23,21,Female,0.2857142857142857,1.25,0.6,1.0,2.7777777777777777,1.375,3.0,2.7777777777777777,2.25,3.0,1.25,1.5,2.0,0.25,,,,,,,,,,,,,,,,,,,,,,,,,0.0033648642626924376,1.5079150646939412,0.0033336314968459985,1.4838854011637932,0.687,-1.9859326320185577,,,,,,,,
10,240623_100822,FalseCHOICE,9.0,11,2.0,500.0,,,,,,,,,,,11.0,11.0,,,A,,,,,,False,cue1.png,Easy,cue2.png,Hard,Left,Easy,Mid,0.0161153000080958,,,,,,,,,,,,,23,21,Female,0.2857142857142857,1.25,0.6,1.0,2.7777777777777777,1.375,3.0,2.7777777777777777,2.25,3.0,1.25,1.5,2.0,0.25,0.5,0.6875,0.5403562733282645,1.2403504104622323,-0.6155265915506289,1.1352876091334767,,,,,,,,,,,,,,,,,,,0.0016083026013835049,0.7667046105398825,0.0017631612837171358,0.8237530291294305,0.5749999999999997,-2.2240294603897777,,,,,,,,
11,240623_100851,FalseCHOICE,9.0,12,2.0,500.0,,,,,,,,,,,13.0,12.0,,,A,,,,,,False,cue2.png,Hard,cue1.png,Easy,Right,Easy,Mid,0.016619800007902,,,,,,,,,,,,,23,21,Female,0.2857142857142857,1.25,0.6,1.0,2.7777777777777777,1.375,3.0,2.7777777777777777,2.25,3.0,1.25,1.5,2.0,0.25,,,,,,,,,,,,,,,,,,,,,,,,,-2.1561739977487074e-05,0.07895620108782254,,,,,,,,,,,,
12,240623_100918,FalseCHOICE,9.0,13,2.0,500.0,,,,,,,,,,,14.0,13.0,,,A,,,,,,False,cue1.png,Easy,cue2.png,Hard,Right,Hard,Mid,0.016389500000514,,,,,,,,,,,,,23,21,Female,0.2857142857142857,1.25,0.6,1.0,2.7777777777777777,1.375,3.0,2.7777777777777777,2.25,3.0,1.25,1.5,2.0,0.25,0.75,0.8333333333333334,0.438044787493709,-0.24666255332933298,-0.8254341192814842,-0.1569048080282913,,,,,,,,,,,,,,,,,,,5.690247346492455e-05,0.11206548302282339,0.0005839364797027204,0.3280769822180471,1.532,-0.18957709653926896,,,,,,,,
13,240623_100944,FalseCHOICE,9.0,14,2.0,500.0,,,,,,,,,,,15.0,14.0,,,A,,,,,,False,cue2.png,Hard,cue1.png,Easy,Left,Hard,Mid,0.0148203000426292,,,,,,,,,,,,,23,21,Female,0.2857142857142857,1.25,0.6,1.0,2.7777777777777777,1.375,3.0,2.7777777777777777,2.25,3.0,1.25,1.5,2.0,0.25,0.75,0.8333333333333334,0.53438019999885,1.153493119309424,-0.6266477083464582,1.0668259253182726,,,,,,,,,,,,,,,,,,,-0.0018398320993742068,-0.6882932661805385,-0.0017483831788386766,-0.6522916332858844,2.184,1.1964865829074725,,,,,,,,
14,240623_101009,FalseCHOICE,9.0,15,2.0,500.0,,,,,,,,,,,16.0,15.0,,,A,,,,,,False,cue1.png,Easy,cue2.png,Hard,Left,Easy,Mid,0.0164082000264897,,,,,,,,,,,,,23,21,Female,0.2857142857142857,1.25,0.6,1.0,2.7777777777777777,1.375,3.0,2.7777777777777777,2.25,3.0,1.25,1.5,2.0,0.25,,,,,,,,,,,,,,,,,,,,,,,,,-0.00010107976954851217,0.04540224388266785,-0.0006136381913680418,-0.1753122585923075,,,,,,,,,,
15,240623_101035,FalseCHOICE,9.0,16,2.0,500.0,,,,,,,,,,,17.0,16.0,,,A,,,,,,False,cue1.png,Easy,cue2.png,Hard,Right,Hard,Mid,0.0166508000111207,,,,,,,,,,,,,23,21,Female,0.2857142857142857,1.25,0.6,1.0,2.7777777777777777,1.375,3.0,2.7777777777777777,2.25,3.0,1.25,1.5,2.0,0.25,0.0715909090909091,0.5738636363636364,0.5584851066737125,1.5038380334129007,-0.5825273274824941,1.338431342289334,,,,,,,,,,,,,,,,,,,-0.0010827952859697185,-0.36884897188986676,0.0009626472077978836,0.487264472157283,,,,,,,,,,
16,240623_101100,FalseCHOICE,9.0,17,2.0,500.0,,,,,,,,,,,18.0,17.0,,,A,,,,,,False,cue2.png,Hard,cue1.png,Easy,Left,Hard,Mid,0.0165637999307364,,,,,,,,,,,,,23,21,Female,0.2857142857142857,1.25,0.6,1.0,2.7777777777777777,1.375,3.0,2.7777777777777777,2.25,3.0,1.25,1.5,2.0,0.25,0.5,0.6875,0.4663485733248914,0.16470960212355001,-0.7628219130508018,0.22853643358737907,,,,,,,,,,,,,,,,,,,-0.0005288084924139165,-0.13508501592326239,-0.002609584324709123,-1.0142894288948363,,,,,,,,,,
17,240623_101125,FalseCHOICE,9.0,18,2.0,500.0,,,,,,,,,,,19.0,18.0,,,A,,,,,,False,cue2.png,Hard,cue1.png,Easy,Left,Hard,Mid,0.0159878000849857,,,,,,,,,,,,,23,21,Female,0.2857142857142857,1.25,0.6,1.0,2.7777777777777777,1.375,3.0,2.7777777777777777,2.25,3.0,1.25,1.5,2.0,0.25,0.8958333333333333,0.9166666666666666,0.4822716375128948,0.3961381917653318,-0.7292477603689369,0.43521918564077305,,,,,,,,,,,,,,,,,,,-0.0020001101181267448,-0.7559252461373114,-0.0006835608021226736,-0.2047035698762886,,,,,,,,,,
18,240623_101149,FalseCHOICE,9.0,19,2.0,500.0,,,,,,,,,,,20.0,19.0,,,A,,,,,,False,cue1.png,Easy,cue2.png,Hard,Right,Hard,Mid,0.0155813000164926,,,,,,,,,,,,,23,21,Female,0.2857142857142857,1.25,0.6,1.0,2.7777777777777777,1.375,3.0,2.7777777777777777,2.25,3.0,1.25,1.5,2.0,0.25,0.7818181818181817,0.8181818181818181,0.4881915375153767,0.4821790499958072,-0.7170474552264087,0.5103243615373176,,,,,,,,,,,,,,,,,,,,,-0.003942903526483285,-1.5747376054906694,,,,,,,,,,
19,240623_101215,FalseCHOICE,9.0,20,2.0,500.0,,,,,,,,,,,21.0,20.0,,,A,,,,,,False,cue1.png,Easy,cue2.png,Hard,Right,Hard,Mid,0.017030099988915,,,,,,,,,,,,,23,21,Female,0.2857142857142857,1.25,0.6,1.0,2.7777777777777777,1.375,3.0,2.7777777777777777,2.25,3.0,1.25,1.5,2.0,0.25,0.5,0.75,0.5298784437545692,1.0880638095846082,-0.6351076501474988,1.014746456024768,,,,,,,,,,,,,,,,,,,-0.0005239649149383087,-0.1330411877221218,,,,,,,,,,,,
20,240623_101240,FalseCHOICE,9.0,21,2.0,500.0,,,,,,,,,,,22.0,21.0,,,A,,,,,,False,cue1.png,Easy,cue2.png,Hard,Right,Hard,Mid,0.0170061000389978,,,,,,,,,,,,,23,21,Female,0.2857142857142857,1.25,0.6,1.0,2.7777777777777777,1.375,3.0,2.7777777777777777,2.25,3.0,1.25,1.5,2.0,0.25,0.8958333333333333,0.9166666666666666,0.4453207749975263,-0.14091208304432906,-0.8089604138071332,-0.055492545559042206,,,,,,,,,,,,,,,,,,,0.0018628263815435595,0.8741051594877981,0.0017379838564507977,0.8131699345606151,2.0269999999999997,0.8627258502799587,,,,,,,,
21,240623_101307,FalseCHOICE,9.0,22,2.0,500.0,,,,,,,,,,,23.0,22.0,,,A,,,,,,False,cue2.png,Hard,cue1.png,Easy,Left,Hard,Mid,0.0164367000106722,,,,,,,,,,,,,23,21,Female,0.2857142857142857,1.25,0.6,1.0,2.7777777777777777,1.375,3.0,2.7777777777777777,2.25,3.0,1.25,1.5,2.0,0.25,0.8958333333333333,0.7916666666666666,0.4530231285856904,-0.02896473379140627,-0.791812098321888,0.050072621525122006,,,,,,,,,,,,,,,,,,,,,0.0005510995834789312,0.3142743019677356,1.6880000000000002,0.14205777154921542,,,,,,,,
22,240623_101331,FalseCHOICE,9.0,23,2.0,500.0,,,,,,,,,,,24.0,23.0,,,A,,,,,,False,cue1.png,Easy,cue2.png,Hard,Right,Hard,Mid,0.0165597000159323,,,,,,,,,,,,,23,21,Female,0.2857142857142857,1.25,0.6,1.0,2.7777777777777777,1.375,3.0,2.7777777777777777,2.25,3.0,1.25,1.5,2.0,0.25,1.0,1.0,0.449032625023392,-0.0869634079460336,-0.8006597323575722,-0.004393484261196664,,,,,,,,,,,,,,,,,,,-0.0016327587052271096,-0.6009151980490616,-0.0030692762202778803,-1.2075165903461795,1.7960000000000003,0.37165114176432,,,,,,,,
23,240623_101355,FalseCHOICE,9.0,24,2.0,500.0,,,,,,,,,,,25.0,24.0,,,A,,,,,,False,cue2.png,Hard,cue1.png,Easy,Left,Hard,Mid,0.0162008000770583,,,,,,,,,,,,,23,21,Female,0.2857142857142857,1.25,0.6,1.0,2.7777777777777777,1.375,3.0,2.7777777777777777,2.25,3.0,1.25,1.5,2.0,0.25,0.9090909090909092,0.9090909090909092,0.4328263687493745,-0.32250796071464344,-0.8374186273599008,-0.23068153547467635,,,,,,,,,,,,,,,,,,,-0.004304081965606278,-1.7281245472173123,-0.0040015136548382756,-1.5993738212767268,1.5779999999999998,-0.09178732774394713,,,,,,,,
24,240623_101421,FalseCHOICE,9.0,25,2.0,500.0,,,,,,,,,,,26.0,25.0,,,A,,,,,,False,cue2.png,Hard,cue1.png,Easy,Left,Hard,Mid,0.0135454999981448,,,,,,,,,,,,,23,21,Female,0.2857142857142857,1.25,0.6,1.0,2.7777777777777777,1.375,3.0,2.7777777777777777,2.25,3.0,1.25,1.5,2.0,0.25,1.0,1.0,0.4315315437343088,-0.34132717311820365,-0.8404146686176304,-0.24912518938548778,,,,,,,,,,,,,,,,,,,-0.00028290065516368285,-0.03132010761229157,0.0007112452357430259,0.38159001952564164,1.8559999999999999,0.49920301410604384,,,,,,,,
25,240623_101445,FalseCHOICE,9.0,26,2.0,500.0,,,,,,,,,,,27.0,26.0,,,A,,,,,,False,cue1.png,Easy,cue2.png,Hard,Right,Hard,Mid,0.0189557999838143,,,,,,,,,,,,,23,21,Female,0.2857142857142857,1.25,0.6,1.0,2.7777777777777777,1.375,3.0,2.7777777777777777,2.25,3.0,1.25,1.5,2.0,0.25,0.6909090909090909,0.7556818181818181,0.370465806669866,-1.2288672368521243,-0.9929941281949213,-1.1884055611367006,,,,,,,,,,,,,,,,,,,,,,,2.372,1.5961491162448758,,,,,,,,
26,240623_101510,FalseCHOICE,9.0,27,2.0,500.0,,,,,,,,,,,28.0,27.0,,,A,,,,,,False,cue1.png,Easy,cue2.png,Hard,Right,Hard,Mid,0.0165904999012127,,,,,,,,,,,,,23,21,Female,0.2857142857142857,1.25,0.6,1.0,2.7777777777777777,1.375,3.0,2.7777777777777777,2.25,3.0,1.25,1.5,2.0,0.25,0.1818181818181818,0.4772727272727273,0.3854940000067775,-1.0104448560991925,-0.9532296502846296,-0.9436151175373667,,,,,,,,,,,,,,,,,,,-0.0001718903393505911,0.015522544377672351,-3.3193150869683004e-05,0.06867235074095004,2.397,1.6492957297205944,,,,,,,,
27,240623_101534,FalseCHOICE,9.0,28,2.0,500.0,,,,,,,,,,,29.0,28.0,,,A,,,,,,False,cue2.png,Hard,cue1.png,Easy,Right,Easy,Mid,0.0157268999610096,,,,,,,,,,,,,23,21,Female,0.2857142857142857,1.25,0.6,1.0,2.7777777777777777,1.375,3.0,2.7777777777777777,2.25,3.0,1.25,1.5,2.0,0.25,0.5,0.75,0.4363333187429816,-0.2715373383908189,-0.8293488351788922,-0.18100383035806386,,,,,,,,,,,,,,,,,,,0.000424632048214611,0.2672351028032001,-0.0005834701843356873,-0.16263142079269025,1.459,-0.3447652078883672,,,,,,,,
28,240623_101600,FalseCHOICE,9.0,29,2.0,500.0,,,,,,,,,,,30.0,29.0,,,A,,,,,,False,cue1.png,Easy,cue2.png,Hard,Right,Hard,Mid,0.0165791000472381,,,,,,,,,,,,,23,21,Female,0.2857142857142857,1.25,0.6,1.0,2.7777777777777777,1.375,3.0,2.7777777777777777,2.25,3.0,1.25,1.5,2.0,0.25,0.6909090909090909,0.6931818181818181,0.4751984714447254,0.2933355635694449,-0.7440227275955981,0.3442643693914711,,,,,,,,,,,,,,,,,,,-0.006145579810082938,-2.5051752387433694,-0.006807136197782693,-2.778690849275022,0.8829999999999998,-1.5692631823689245,,,,,,,,
29,240623_101626,FalseCHOICE,9.0,30,2.0,500.0,,,,,,,,,,,31.0,30.0,,,A,,,,,,False,cue1.png,Easy,cue2.png,Hard,Left,Easy,Mid,0.0159079000586643,,,,,,,,,,,,,23,21,Female,0.2857142857142857,1.25,0.6,1.0,2.7777777777777777,1.375,3.0,2.7777777777777777,2.25,3.0,1.25,1.5,2.0,0.25,0.7818181818181817,0.7556818181818181,0.4589165333270406,0.056691037696749914,-0.7788869300607238,0.12964006056919228,,,,,,,,,,,,,,,,,,,,,0.0017121492240580304,0.8023105900028499,1.545,-0.1619408575318955,,,,,,,,
30,240623_101649,FalseCHOICE,9.0,31,2.0,500.0,,,,,,,,,,,32.0,31.0,,,A,,,,,,False,cue2.png,Hard,cue1.png,Easy,Left,Hard,Mid,0.0163884999928995,,,,,,,,,,,,,23,21,Female,0.2857142857142857,1.25,0.6,1.0,2.7777777777777777,1.375,3.0,2.7777777777777777,2.25,3.0,1.25,1.5,2.0,0.25,0.5,0.6875,0.3885660799918696,-0.9657947102590313,-0.9452920335689483,-0.8947510856409436,,,,,,,,,,,,,,,,,,,0.00021172532081174464,0.17739556253158845,-0.0003478169510879479,-0.06357680228358216,,,,,,,,,,
31,240623_101711,FalseCHOICE,9.0,32,2.0,500.0,,,,,,,,,,,33.0,32.0,,,A,,,,,,False,cue1.png,Easy,cue2.png,Hard,Right,Hard,Mid,0.016780300065875,,,,,,,,,,,,,23,21,Female,0.2857142857142857,1.25,0.6,1.0,2.7777777777777777,1.375,3.0,2.7777777777777777,2.25,3.0,1.25,1.5,2.0,0.25,0.75,0.8333333333333334,0.3161918500045431,-2.0176943807380407,-1.1514061293506332,-2.163591105426938,,,,,,,,,,,,,,,,,,,0.0016256415585827319,0.7740210723660048,,,,,,,,,,,,
32,240623_101737,FalseCHOICE,9.0,33,2.0,500.0,,,,,,,,,,,34.0,33.0,,,A,,,,,,False,cue2.png,Hard,cue1.png,Easy,Left,Hard,Mid,0.0168498000130057,,,,,,,,,,,,,23,21,Female,0.2857142857142857,1.25,0.6,1.0,2.7777777777777777,1.375,3.0,2.7777777777777777,2.25,3.0,1.25,1.5,2.0,0.25,0.9090909090909092,0.9090909090909092,0.5124231375157251,0.8343653469693166,-0.6686045547961085,0.8085392434810439,,,,,,,,,,,,,,,,,,,0.0015230627775188756,0.7307362469177175,0.0015773877493190647,0.7456648725390047,1.195,-0.9059934461919557,,,,,,,,
33,240623_101800,FalseCHOICE,9.0,34,2.0,500.0,,,,,,,,,,,35.0,34.0,,,A,,,,,,False,cue2.png,Hard,cue1.png,Easy,Left,Hard,Mid,0.0168417999520897,,,,,,,,,,,,,23,21,Female,0.2857142857142857,1.25,0.6,1.0,2.7777777777777777,1.375,3.0,2.7777777777777777,2.25,3.0,1.25,1.5,2.0,0.25,0.5,0.6875,0.3767847800006469,-1.1370261773261297,-0.9760811298753388,-1.0842890084037438,,,,,,,,,,,,,,,,,,,,,-0.00044027255916178135,-0.10243964689880254,2.1069999999999998,1.0327950134022583,,,,,,,,
34,240623_101824,FalseCHOICE,9.0,35,2.0,500.0,,,,,,,,,,,36.0,35.0,,,A,,,,,,False,cue2.png,Hard,cue1.png,Easy,Left,Hard,Mid,0.0148705999599769,,,,,,,,,,,,,23,21,Female,0.2857142857142857,1.25,0.6,1.0,2.7777777777777777,1.375,3.0,2.7777777777777777,2.25,3.0,1.25,1.5,2.0,0.25,0.7818181818181817,0.8181818181818181,0.4535778812569333,-0.020901861797051575,-0.7905882904186137,0.05760639275176163,,,,,,,,,,,,,,,,,,,,,0.0036915268747016085,1.6343233545543632,2.222,1.2772694353905645,,,,,,,,
35,240623_101849,FalseCHOICE,9.0,36,2.0,500.0,,,,,,,,,,,37.0,36.0,,,A,,,,,,False,cue1.png,Easy,cue2.png,Hard,Right,Hard,Mid,0.0165287000127136,,,,,,,,,,,,,23,21,Female,0.2857142857142857,1.25,0.6,1.0,2.7777777777777777,1.375,3.0,2.7777777777777777,2.25,3.0,1.25,1.5,2.0,0.25,0.9090909090909092,0.8465909090909091,0.5060130199883133,0.7411995818068139,-0.6811928788235131,0.7310454202302428,,,,,,,,,,,,,,,,,,,0.002996672216617203,1.352550297433807,,,1.2510000000000001,-0.7869450320063459,,,,,,,,
36,240623_101913,FalseCHOICE,9.0,37,2.0,500.0,,,,,,,,,,,38.0,37.0,,,A,,,,,,False,cue2.png,Hard,cue1.png,Easy,Left,Hard,Mid,0.0174913998926058,,,,,,,,,,,,,23,21,Female,0.2857142857142857,1.25,0.6,1.0,2.7777777777777777,1.375,3.0,2.7777777777777777,2.25,3.0,1.25,1.5,2.0,0.25,0.7818181818181817,0.6931818181818181,0.372041785707032,-1.2059616828978088,-0.9887491038477737,-1.1622731573522849,,,,,,,,,,,,,,,,,,,,,,,1.7049999999999998,0.1781974687127034,,,,,,,,
37,240623_101940,FalseCHOICE,9.0,38,2.0,500.0,,,,,,,,,,,39.0,38.0,,,A,,,,,,False,cue1.png,Easy,cue2.png,Hard,Right,Hard,Mid,0.0158142000436782,,,,,,,,,,,,,23,21,Female,0.2857142857142857,1.25,0.6,1.0,2.7777777777777777,1.375,3.0,2.7777777777777777,2.25,3.0,1.25,1.5,2.0,0.25,1.0,1.0,0.5737827375050983,1.7261764656623637,-0.55550446040276,1.5047843278534143,,,,,,,,,,,,,,,,,,,0.0038112420672847956,1.6962716151947912,0.0025161725749084964,1.1402742376612751,1.5859999999999999,-0.07478041143171715,,,,,,,,
38,240623_102005,FalseCHOICE,9.0,39,2.0,500.0,,,,,,,,,,,40.0,39.0,,,A,,,,,,False,cue1.png,Easy,cue2.png,Hard,Right,Hard,Mid,0.0165397999808192,,,,,,,,,,,,,23,21,Female,0.2857142857142857,1.25,0.6,1.0,2.7777777777777777,1.375,3.0,2.7777777777777777,2.25,3.0,1.25,1.5,2.0,0.25,0.7818181818181817,0.6306818181818181,0.4429869153895057,-0.17483280528277031,-0.8142150457400128,-0.08784010170457132,,,,,,,,,,,,,,,,,,,-0.002925357267863236,-1.1463486939255858,-0.0011242527020883806,-0.38994426201339033,1.412,-0.4446808412227185,,,,,,,,
39,240623_102031,FalseCHOICE,9.0,40,2.0,500.0,,,,,,,,,,,41.0,40.0,,,A,,,,,,False,cue2.png,Hard,cue1.png,Easy,Right,Easy,Mid,0.0160120000364258,,,,,,,,,,,,,23,21,Female,0.2857142857142857,1.25,0.6,1.0,2.7777777777777777,1.375,3.0,2.7777777777777777,2.25,3.0,1.25,1.5,2.0,0.25,1.0,0.9375,0.5455327333339179,1.3155859822278746,-0.6059924693976326,1.1939797412526856,,,,,,,,,,,,,,,,,,,,,-0.003342898921248073,-1.322531317224722,2.178,1.1837313956732995,,,,,,,,
40,240623_102055,FalseCHOICE,9.0,41,2.0,500.0,,,,,,,,,,,42.0,41.0,,,A,,,,,,False,cue2.png,Hard,cue1.png,Easy,Left,Hard,Mid,0.0149256000295281,,,,,,,,,,,,,23,21,Female,0.2857142857142857,1.25,0.6,1.0,2.7777777777777777,1.375,3.0,2.7777777777777777,2.25,3.0,1.25,1.5,2.0,0.25,0.5,0.5625,0.2684812692459672,-2.711128275469582,-1.3149741281892648,-3.1705170126321973,,,,,,,,,,,,,,,,,,,-0.0038816123156955656,-1.5498564408513316,-0.002947790050365124,-1.1564510223121953,0.585,-2.20277081499949,,,,,,,,
41,240623_102122,FalseCHOICE,9.0,42,2.0,500.0,,,,,,,,,,,43.0,42.0,,,A,,,,,,False,cue1.png,Easy,cue2.png,Hard,Left,Easy,Mid,0.0164157999679446,,,,,,,,,,,,,23,21,Female,0.2857142857142857,1.25,0.6,1.0,2.7777777777777777,1.375,3.0,2.7777777777777777,2.25,3.0,1.25,1.5,2.0,0.25,0.6909090909090909,0.6931818181818181,0.5513818846173728,1.4005985662474276,-0.5953276343645298,1.2596325508923985,,,,,,,,,,,,,,,,,,,-0.003231447750481658,-1.275508671984525,-0.0022234234380521124,-0.8519703349287615,2.008,0.8223344240384133,,,,,,,,
42,240623_102147,FalseCHOICE,9.0,43,2.0,500.0,,,,,,,,,,,44.0,43.0,,,A,,,,,,False,cue2.png,Hard,cue1.png,Easy,Left,Hard,Mid,0.0162935000844299,,,,,,,,,,,,,23,21,Female,0.2857142857142857,1.25,0.6,1.0,2.7777777777777777,1.375,3.0,2.7777777777777777,2.25,3.0,1.25,1.5,2.0,0.25,0.7818181818181817,0.7556818181818181,0.5047889133449643,0.723408202541081,-0.6836149304666681,0.7161352509709864,,,,,,,,,,,,,,,,,,,0.0032225709325080527,1.4478720236711347,0.005100754260201295,2.226678821693273,1.7130000000000003,0.1952043850249343,,,,,,,,
43,240623_102213,FalseCHOICE,9.0,44,2.0,500.0,,,,,,,,,,,45.0,44.0,,,A,,,,,,False,cue1.png,Easy,cue2.png,Hard,Right,Hard,Mid,0.0165120000019669,,,,,,,,,,,,,23,21,Female,0.2857142857142857,1.25,0.6,1.0,2.7777777777777777,1.375,3.0,2.7777777777777777,2.25,3.0,1.25,1.5,2.0,0.25,0.9090909090909092,0.8465909090909091,0.4880447533292075,0.48004566305559443,-0.71734816969206,0.5084731608850778,,,,,,,,,,,,,,,,,,,-0.0026677956151628917,-1.0376662640537908,,,2.107,1.0327950134022594,,,,,,,,
44,240623_102237,FalseCHOICE,9.0,45,2.0,500.0,,,,,,,,,,,46.0,45.0,,,A,,,,,,False,cue2.png,Hard,cue1.png,Easy,Right,Easy,Mid,0.0160412999102845,,,,,,,,,,,,,23,21,Female,0.2857142857142857,1.25,0.6,1.0,2.7777777777777777,1.375,3.0,2.7777777777777777,2.25,3.0,1.25,1.5,2.0,0.25,1.0,1.0,0.4626683249880443,0.11122023148032126,-0.7707448423218132,0.17976281771764696,,,,,,,,,,,,,,,,,,,0.003691198805386171,1.6456173611313665,,,,,,,,,,,,
45,240623_102302,FalseCHOICE,9.0,46,2.0,500.0,,,,,,,,,,,47.0,46.0,,,A,,,,,,False,cue2.png,Hard,cue1.png,Easy,Right,Easy,Mid,0.0166438999585807,,,,,,,,,,,,,23,21,Female,0.2857142857142857,1.25,0.6,1.0,2.7777777777777777,1.375,3.0,2.7777777777777777,2.25,3.0,1.25,1.5,2.0,0.25,0.6113636363636364,0.6647727272727273,0.4292471333329255,-0.37452919197042045,-0.8457224575426926,-0.2817999803994378,,,,,,,,,,,,,,,,,,,-0.0015317754286907114,-0.5583036223143772,0.0017910833336478998,0.8354898000014704,,,,,,,,,,
46,240623_102332,FalseCHOICE,9.0,47,2.0,500.0,,,,,,,,,,,49.0,47.0,,,A,,,,,,False,cue1.png,Easy,cue2.png,Hard,Right,Hard,Mid,0.017058299970813,,,,,,,,,,,,,23,21,Female,0.2857142857142857,1.25,0.6,1.0,2.7777777777777777,1.375,3.0,2.7777777777777777,2.25,3.0,1.25,1.5,2.0,0.25,0.1666666666666666,0.6041666666666667,0.4727313933428377,0.2574786205266511,-0.7492279305622069,0.3122210983570745,,,,,,,,,,,,,,,,,,,0.0030712859678423774,1.3840348126944546,0.002758419505093938,1.2421004546149592,1.551,-0.14918567029772303,,,,,,,,
47,240623_102358,FalseCHOICE,9.0,48,2.0,500.0,,,,,,,,,,,50.0,48.0,,,A,,,,,,False,cue1.png,Easy,cue2.png,Hard,Right,Hard,Mid,0.0163730001077055,,,,,,,,,,,,,23,21,Female,0.2857142857142857,1.25,0.6,1.0,2.7777777777777777,1.375,3.0,2.7777777777777777,2.25,3.0,1.25,1.5,2.0,0.25,1.0,1.0,0.4910402999958023,0.5235834603081156,-0.7112290771712546,0.5461423433139919,,,,,,,,,,,,,,,,,,,-0.0040224251761188075,-1.6092747729964545,-0.0007802353166506959,-0.24533979210906093,1.7209999999999999,0.21221130133716334,,,,,,,,
48,240623_102421,FalseCHOICE,9.0,49,2.0,500.0,,,,,,,,,,,51.0,49.0,,,A,,,,,,False,cue2.png,Hard,cue1.png,Easy,Right,Easy,Mid,0.0139554999768733,,,,,,,,,,,,,23,21,Female,0.2857142857142857,1.25,0.6,1.0,2.7777777777777777,1.375,3.0,2.7777777777777777,2.25,3.0,1.25,1.5,2.0,0.25,0.7818181818181817,0.8181818181818181,0.416752949997317,-0.5561218297909867,-0.8752616787984415,-0.46364366236821764,,,,,,,,,,,,,,,,,,,0.00014102021693134957,0.1475603661291204,-0.00027828792259020595,-0.034350929596690845,,,,,,,,,,
49,240623_102445,FalseCHOICE,9.0,50,2.0,500.0,,,,,,,,,,,52.0,50.0,,,A,,,,,,False,cue1.png,Easy,cue2.png,Hard,Right,Hard,Mid,0.0171363999834284,,,,,,,,,,,,,23,21,Female,0.2857142857142857,1.25,0.6,1.0,2.7777777777777777,1.375,3.0,2.7777777777777777,2.25,3.0,1.25,1.5,2.0,0.25,0.6113636363636364,0.7272727272727273,0.3856886562280124,-1.0076156886592142,-0.9527248250689816,-0.940507409477993,,,,,,,,,,,,,,,,,,,,,,,2.053,0.9179983282947066,,,,,,,,
0,240623_093559,OFFLINERATING,9.0,1,1.0,,,,,,,,,,,,,,,,,T0,cue1.png,Easy,36.0,1.5186681000050155,,,,,,,,,,,,,,,,,,,,,,23,21,Female,0.2857142857142857,1.25,0.6,1.0,2.7777777777777777,1.375,3.0,2.7777777777777777,2.25,3.0,1.25,1.5,2.0,0.25,,,,,,,,,,,,,,,,,,,,,,,,,,,,,,,-0.2567480829815484,-0.00013063294393620686,-1.13195303038481,0.0009380199690218324,1.222116302711727,,,
1,240623_093607,OFFLINERATING,9.0,2,3.0,,,,,,,,,,,,,,,,,T0,cue2.png,Hard,53.0,1.1516886999597773,,,,,,,,,,,,,,,,,,,,,,23,21,Female,0.2857142857142857,1.25,0.6,1.0,2.7777777777777777,1.375,3.0,2.7777777777777777,2.25,3.0,1.25,1.5,2.0,0.25,,,,,,,,,,,,,,,,,,,,,,,,,,,,,,,0.6161953991557162,,,,,1.4629999999999999,0.9834047061690545,
2,240623_095830,OFFLINERATING,9.0,3,1.0,,,,,,,,,,,,,,,,,T1,cue1.png,Easy,81.0,1.2895832000067458,,,,,,,,,,,,,,,,,,,,,,23,21,Female,0.2857142857142857,1.25,0.6,1.0,2.7777777777777777,1.375,3.0,2.7777777777777777,2.25,3.0,1.25,1.5,2.0,0.25,,,,,,,,,,,,,,,,,,,,,,,,,,,,,,,2.053984663852387,,,,,1.1109999999999998,0.38846035227932546,
3,240623_095838,OFFLINERATING,9.0,4,3.0,,,,,,,,,,,,,,,,,T1,cue2.png,Hard,29.0,1.4354253000346944,,,,,,,,,,,,,,,,,,,,,,23,21,Female,0.2857142857142857,1.25,0.6,1.0,2.7777777777777777,1.375,3.0,2.7777777777777777,2.25,3.0,1.25,1.5,2.0,0.25,,,,,,,,,,,,,,,,,,,,,,,,,,,,,,,-0.6161953991557162,9.461903270599351e-05,1.3001507130174061,-0.00024046844952117785,-1.22735662367643,,,
4,240623_100307,OFFLINERATING,9.0,5,1.0,,,,,,,,,,,,,,,,,T2,cue1.png,Easy,53.0,1.0851483999285847,,,,,,,,,,,,,,,,,,,,,,23,21,Female,0.2857142857142857,1.25,0.6,1.0,2.7777777777777777,1.375,3.0,2.7777777777777777,2.25,3.0,1.25,1.5,2.0,0.25,,,,,,,,,,,,,,,,,,,,,,,,,,,,,,,0.6161953991557162,,,,,,,
5,240623_100314,OFFLINERATING,9.0,6,3.0,,,,,,,,,,,,,,,,,T2,cue2.png,Hard,38.0,0.6346771999960765,,,,,,,,,,,,,,,,,,,,,,23,21,Female,0.2857142857142857,1.25,0.6,1.0,2.7777777777777777,1.375,3.0,2.7777777777777777,2.25,3.0,1.25,1.5,2.0,0.25,,,,,,,,,,,,,,,,,,,,,,,,,,,,,,,-0.15404884978892905,-4.137367706916195e-05,-0.1681976826325963,,,0.06950000000000012,-1.3718650584483805,
6,240623_102457,OFFLINERATING,9.0,7,1.0,,,,,,,,,,,,,,,,,T3,cue1.png,Easy,19.0,1.0346239000791684,,,,,,,,,,,,,,,,,,,,,,23,21,Female,0.2857142857142857,1.25,0.6,1.0,2.7777777777777777,1.375,3.0,2.7777777777777777,2.25,3.0,1.25,1.5,2.0,0.25,,,,,,,,,,,,,,,,,,,,,,,,,,,,,,,-1.1296915651188129,,,0.0003525575881795093,0.005240320964703329,,,
7,240623_102504,OFFLINERATING,9.0,8,3.0,,,,,,,,,,,,,,,,,T3,cue2.png,Hard,19.0,0.9014798999996856,,,,,,,,,,,,,,,,,,,,,,23,21,Female,0.2857142857142857,1.25,0.6,1.0,2.7777777777777777,1.375,3.0,2.7777777777777777,2.25,3.0,1.25,1.5,2.0,0.25,,,,,,,,,,,,,,,,,,,,,,,,,,,,,,,-1.1296915651188129,,,,,,,
0,240623_100331,LEARNINGCHECK,9.0,1,,,,,,,,,,,,1.0,1.0,1.0,,,A,,,,,,,,,,,,,,,cue1.png,Easy,Left,Left,Easy,0.0162141999462619,1.0,,,,,,23,21,Female,0.2857142857142857,1.25,0.6,1.0,2.7777777777777777,1.375,3.0,2.7777777777777777,2.25,3.0,1.25,1.5,2.0,0.25,,,,,,,,,,,,,,,,,,,,,,,,,,,,,,,,,,,,,,
1,240623_102521,LEARNINGCHECK,9.0,1,,,,,,,,,,,,1.0,1.0,1.0,,,A,,,,,,,,,,,,,,,cue1.png,Easy,Middle,Middle,Mid,0.0147704000119119,1.0,,,,,,23,21,Female,0.2857142857142857,1.25,0.6,1.0,2.7777777777777777,1.375,3.0,2.7777777777777777,2.25,3.0,1.25,1.5,2.0,0.25,,,,,,,,,,,,,,,,,,,,,,,,,,,,,,,,,,,,,,
2,240623_100336,LEARNINGCHECK,9.0,2,,,,,,,,,,,,2.0,2.0,2.0,,,A,,,,,,,,,,,,,,,cue2.png,Hard,Right,Right,Hard,0.0161650999216362,1.0,,,,,,23,21,Female,0.2857142857142857,1.25,0.6,1.0,2.7777777777777777,1.375,3.0,2.7777777777777777,2.25,3.0,1.25,1.5,2.0,0.25,,,,,,,,,,,,,,,,,,,,,,,,,,,,,,,,,,,,,,
3,240623_102526,LEARNINGCHECK,9.0,2,,,,,,,,,,,,2.0,2.0,2.0,,,A,,,,,,,,,,,,,,,cue2.png,Hard,Middle,Middle,Mid,0.0137009000172838,1.0,,,,,,23,21,Female,0.2857142857142857,1.25,0.6,1.0,2.7777777777777777,1.375,3.0,2.7777777777777777,2.25,3.0,1.25,1.5,2.0,0.25,,,,,,,,,,,,,,,,,,,,,,,,,,,,,,,,,,,,,,
0,240623_102538,DEMANDRATING,9.0,-1,,,,,,,,,,,,,,,,,,,,,,,,,,,,,,,,,,,,,,,1.0,MentalDemand,1.0,23.0,3.067036799970083,23,21,Female,0.2857142857142857,1.25,0.6,1.0,2.7777777777777777,1.375,3.0,2.7777777777777777,2.25,3.0,1.25,1.5,2.0,0.25,,,,,,,,,,,,,,,,,,,,,,,,,,,,,,,,,,,,,,-1.1963421280149031
1,240623_102542,DEMANDRATING,9.0,-1,,,,,,,,,,,,,,,,,,,,,,,,,,,,,,,,,,,,,,,2.0,Effort,1.0,20.0,3.2367380999494344,23,21,Female,0.2857142857142857,1.25,0.6,1.0,2.7777777777777777,1.375,3.0,2.7777777777777777,2.25,3.0,1.25,1.5,2.0,0.25,,,,,,,,,,,,,,,,,,,,,,,,,,,,,,,,,,,,,,-1.2939289481248801
2,240623_102546,DEMANDRATING,9.0,-1,,,,,,,,,,,,,,,,,,,,,,,,,,,,,,,,,,,,,,,3.0,Frustration,1.0,21.0,2.1077853000024334,23,21,Female,0.2857142857142857,1.25,0.6,1.0,2.7777777777777777,1.375,3.0,2.7777777777777777,2.25,3.0,1.25,1.5,2.0,0.25,,,,,,,,,,,,,,,,,,,,,,,,,,,,,,,,,,,,,,-1.261400008088221
3,240623_102550,DEMANDRATING,9.0,-1,,,,,,,,,,,,,,,,,,,,,,,,,,,,,,,,,,,,,,,4.0,MentalDemand,2.0,56.0,2.1199260000139475,23,21,Female,0.2857142857142857,1.25,0.6,1.0,2.7777777777777777,1.375,3.0,2.7777777777777777,2.25,3.0,1.25,1.5,2.0,0.25,,,,,,,,,,,,,,,,,,,,,,,,,,,,,,,,,,,,,,-0.12288710680515624
4,240623_102553,DEMANDRATING,9.0,-1,,,,,,,,,,,,,,,,,,,,,,,,,,,,,,,,,,,,,,,5.0,Effort,2.0,57.0,1.3967031999491155,23,21,Female,0.2857142857142857,1.25,0.6,1.0,2.7777777777777777,1.375,3.0,2.7777777777777777,2.25,3.0,1.25,1.5,2.0,0.25,,,,,,,,,,,,,,,,,,,,,,,,,,,,,,,,,,,,,,-0.09035816676849724
5,240623_102556,DEMANDRATING,9.0,-1,,,,,,,,,,,,,,,,,,,,,,,,,,,,,,,,,,,,,,,6.0,Frustration,2.0,75.0,1.973206499940716,23,21,Female,0.2857142857142857,1.25,0.6,1.0,2.7777777777777777,1.375,3.0,2.7777777777777777,2.25,3.0,1.25,1.5,2.0,0.25,,,,,,,,,,,,,,,,,,,,,,,,,,,,,,,,,,,,,,0.4951627538913647
6,240623_102559,DEMANDRATING,9.0,-1,,,,,,,,,,,,,,,,,,,,,,,,,,,,,,,,,,,,,,,7.0,MentalDemand,3.0,94.0,1.4659823999973014,23,21,Female,0.2857142857142857,1.25,0.6,1.0,2.7777777777777777,1.375,3.0,2.7777777777777777,2.25,3.0,1.25,1.5,2.0,0.25,,,,,,,,,,,,,,,,,,,,,,,,,,,,,,,,,,,,,,1.1132126145878856
7,240623_102601,DEMANDRATING,9.0,-1,,,,,,,,,,,,,,,,,,,,,,,,,,,,,,,,,,,,,,,8.0,Effort,3.0,93.0,0.5392482999013737,23,21,Female,0.2857142857142857,1.25,0.6,1.0,2.7777777777777777,1.375,3.0,2.7777777777777777,2.25,3.0,1.25,1.5,2.0,0.25,,,,,,,,,,,,,,,,,,,,,,,,,,,,,,,,,,,,,,1.0806836745512267
8,240623_102604,DEMANDRATING,9.0,-1,,,,,,,,,,,,,,,,,,,,,,,,,,,,,,,,,,,,,,,9.0,Frustration,3.0,99.0,1.0143979000858965,23,21,Female,0.2857142857142857,1.25,0.6,1.0,2.7777777777777777,1.375,3.0,2.7777777777777777,2.25,3.0,1.25,1.5,2.0,0.25,,,,,,,,,,,,,,,,,,,,,,,,,,,,,,,,,,,,,,1.2758573147711807
