,END,Phase,Block,TrialN,NbackLevel,ISI,Letter_Resp,Letter_RT,Letter_Accuracy,Trial_A_measure,Trial_ACC,Trial_RT,TrialCountCali,CaliEnd_A_measure,ISI_calibrated,TrialIndex,TrialNumber_total,TrialNumber_valid,CueLearning,TrialDemandLearning,CueMapping,OfflineRatingTimePoint,CueFigure,TrialDemand,OfflineRating,OfflineRatingRT,PhaseType,CueLeft,CueDemandLeft,CueRight,CueDemandRight,Choice,ChoiceDemand,TaskDemand,ChoiceRT,CueCheck,CueDemandCheck,CorrectAnswer,Answer,AnswerDemand,AnswerRT,AnswerACC,DemandRatingQuesIndex,QuesTLX,DemandLevel,DemandRating,DemandRatingRT,PID,Age,Gender,BAI_bis,BAI_bas_d,BAI_bas_rr,BAI_bas_fs,NFC,BFI_ext,BFI_agr,BFI_con,BFI_neu,BFI_open,UPPS_lps,UPPS_lpm,UPPS_pu,UPPS_ss,Task_A_measure,Task_ACC,Task_RT,Task_RT_z,cue_i_on_zyg_values,cue_i_on_zyg_zvalues,cue_e_on_zyg_values,cue_e_on_zyg_zvalues,cue_i_on_cor_values,cue_i_on_cor_zvalues,cue_e_on_cor_values,cue_e_on_cor_zvalues,cue_i_on_scr_values,cue_i_on_scr_zvalues,cue_e_on_scr_values,cue_e_on_scr_zvalues,cue_e_true_zyg_values,cue_e_true_zyg_zvalues,cue_e_true_cor_values,cue_e_true_cor_zvalues,cue_e_true_scr_values,cue_e_true_scr_zvalues,cue_e_false_zyg_values,cue_e_false_zyg_zvalues,cue_e_false_cor_values,cue_e_false_cor_zvalues,cue_e_false_scr_values,cue_e_false_scr_zvalues,OfflineRating_z,cue_i_off_zyg_values,cue_i_off_zyg_zvalues,cue_i_off_cor_values,cue_i_off_cor_zvalues,cue_i_off_scr_values,cue_i_off_scr_zvalues,DemandRating_z
0,240623_093251,PRACTICE,0.0,1,1.0,500.0,,,,,,,,,,32.0,1.0,1.0,cue1.png,Easy,A,,,,,,,,,,,,,,,,,,,,,,,,,,,23,21,Female,0.2857142857142857,1.25,0.6,1.0,2.7777777777777777,1.375,3.0,2.7777777777777777,2.25,3.0,1.25,1.5,2.0,0.25,,,,,,,,,,,,,,,,,,,,,,,,,,,,,,,,,,,,
0,240623_093644,LEARNING,1.0,1,1.0,500.0,,,,,,,,,,1.0,1.0,1.0,cue1.png,Easy,A,,,,,,,,,,,,,,,,,,,,,,,,,,,23,21,Female,0.2857142857142857,1.25,0.6,1.0,2.7777777777777777,1.375,3.0,2.7777777777777777,2.25,3.0,1.25,1.5,2.0,0.25,1.0,1.0,0.4024259812722448,-0.4953042904797441,0.008371498773186676,-0.9392779818984435,0.008526705657973596,-0.7963178392342958,0.01708853351997519,-1.1935179481689688,0.02095711659373845,-0.7661092897363289,,,,,,,,,,,,,,,,,,,,,,,,
1,240623_093709,LEARNING,1.0,2,3.0,500.0,,,,,,,,,,2.0,2.0,2.0,cue2.png,Hard,A,,,,,,,,,,,,,,,,,,,,,,,,,,,23,21,Female,0.2857142857142857,1.25,0.6,1.0,2.7777777777777777,1.375,3.0,2.7777777777777777,2.25,3.0,1.25,1.5,2.0,0.25,0.6113636363636364,0.6647727272727273,0.3346813400043175,-1.6146278965400866,0.04051782703385981,0.8094946199562049,,,0.038389768828922144,-0.09166245272827493,0.08127229267171594,1.6451248887486605,1.35724871946826e+45,-0.17609096465363233,9.948564038299898e+43,1.0778453008462798,,,,,,,,,,,,,,,,,,,,
2,240623_093735,LEARNING,1.0,3,1.0,500.0,,,,,,,,,,3.0,3.0,3.0,cue1.png,Easy,A,,,,,,,,,,,,,,,,,,,,,,,,,,,23,21,Female,0.2857142857142857,1.25,0.6,1.0,2.7777777777777777,1.375,3.0,2.7777777777777777,2.25,3.0,1.25,1.5,2.0,0.25,0.8958333333333333,0.9166666666666666,0.4273981062506209,-0.08269764796706372,0.06355412349709075,2.0626779936973105,,,0.0365844028342472,-0.1850491701492507,0.05157092891684757,0.457746386516236,-1.9893369730082093e+45,-0.18457036750811734,-3.2101199719669484e+44,-3.075061774375896,,,,,,,,,,,,,,,,,,,,
3,240623_093759,LEARNING,1.0,4,3.0,500.0,,,,,,,,,,4.0,4.0,4.0,cue2.png,Hard,A,,,,,,,,,,,,,,,,,,,,,,,,,,,23,21,Female,0.2857142857142857,1.25,0.6,1.0,2.7777777777777777,1.375,3.0,2.7777777777777777,2.25,3.0,1.25,1.5,2.0,0.25,0.0715909090909091,0.6363636363636364,0.3214503062263247,-1.8332401463520958,0.04556759715644865,1.084204053781374,0.007449509696271778,-0.852197456238263,0.047618673477492546,0.38572391273074186,0.14905132960451342,4.354743612664319,-2.0702277831120478e+45,-0.18477532438928673,-3.642303212872334e+44,-3.501893384959741,,,,,,,,,,,,,,,,,,,,
4,240623_093823,LEARNING,1.0,5,3.0,500.0,,,,,,,,,,5.0,5.0,5.0,cue2.png,Hard,A,,,,,,,,,,,,,,,,,,,,,,,,,,,23,21,Female,0.2857142857142857,1.25,0.6,1.0,2.7777777777777777,1.375,3.0,2.7777777777777777,2.25,3.0,1.25,1.5,2.0,0.25,0.75,0.8333333333333334,0.3471757500010426,-1.4081866520168556,0.04264699036075182,0.9253219225566566,0.048807036204824066,1.293227168152462,0.045521555568040974,0.27724565503336956,0.04281754526051592,0.10781028051446222,2.2682953976835584e+48,5.567757715056284,,,,,,,,,,,,,,,,,,,,,,
5,240623_093849,LEARNING,1.0,6,1.0,500.0,,,,,,,,,,6.0,6.0,6.0,cue1.png,Easy,A,,,,,,,,,,,,,,,,,,,,,,,,,,,23,21,Female,0.2857142857142857,1.25,0.6,1.0,2.7777777777777777,1.375,3.0,2.7777777777777777,2.25,3.0,1.25,1.5,2.0,0.25,1.0,1.0,0.4010996687429724,-0.5172185392711248,0.028200648825080086,0.13943539549334688,0.045996471136902854,1.1474289056784321,0.04137765388037988,0.06289278859667344,0.04008210280673167,-0.0015451548293087844,,,,,,,,,,,,,,,,,,,,,,,,
6,240623_093916,LEARNING,1.0,7,3.0,500.0,,,,,,,,,,7.0,7.0,7.0,cue2.png,Hard,A,,,,,,,,,,,,,,,,,,,,,,,,,,,23,21,Female,0.2857142857142857,1.25,0.6,1.0,2.7777777777777777,1.375,3.0,2.7777777777777777,2.25,3.0,1.25,1.5,2.0,0.25,0.0484848484848484,0.6022727272727273,0.4192571714354147,-0.21720777811920192,0.010318274936741189,-0.8333726110218336,0.039965118899720944,0.8345520800938956,0.02481502723475412,-0.7938472512990409,0.039813579039649424,-0.01227999350551815,1.8080874518331757e+44,-0.17907176639987427,5.187843195985056e+43,0.6076683128611816,,,,,,,,,,,,,,,,,,,,
7,240623_093942,LEARNING,1.0,8,3.0,500.0,,,,,,,,,,8.0,8.0,8.0,cue2.png,Hard,A,,,,,,,,,,,,,,,,,,,,,,,,,,,23,21,Female,0.2857142857142857,1.25,0.6,1.0,2.7777777777777777,1.375,3.0,2.7777777777777777,2.25,3.0,1.25,1.5,2.0,0.25,0.5,0.6875,0.4404049666598439,0.13221065509996674,,,0.00842808509040091,-0.8014337881800838,0.03850930282446372,-0.0854792812844972,,,,,,,,,,,,,,,,,,,,,,,,,,
8,240623_094008,LEARNING,1.0,9,1.0,500.0,,,,,,,,,,9.0,9.0,9.0,cue1.png,Easy,A,,,,,,,,,,,,,,,,,,,,,,,,,,,23,21,Female,0.2857142857142857,1.25,0.6,1.0,2.7777777777777777,1.375,3.0,2.7777777777777777,2.25,3.0,1.25,1.5,2.0,0.25,1.0,1.0,0.4084505437567713,-0.3957623211238799,0.047388607477948444,1.183267714555013,0.009610979137648261,-0.7400710754829191,0.057345241290212505,0.8888530524628674,0.03159882327108912,-0.3406832439818372,,,,,,,,,,,,,,,,,,,,,,,,
9,240623_094033,LEARNING,1.0,10,1.0,500.0,,,,,,,,,,10.0,10.0,10.0,cue1.png,Easy,A,,,,,,,,,,,,,,,,,,,,,,,,,,,23,21,Female,0.2857142857142857,1.25,0.6,1.0,2.7777777777777777,1.375,3.0,2.7777777777777777,2.25,3.0,1.25,1.5,2.0,0.25,0.7818181818181817,0.8181818181818181,0.422583100022166,-0.16225449606552408,,,0.008595054497261388,-0.7927722383428539,0.0681368564794457,1.4470742226662443,0.02340554049909989,-0.6682280633531932,9.865453335037727e+44,-0.17703023340033772,1.590001094054012e+44,1.6656204448490404,,,,,,,,,,,,,,,,,,,,
10,240623_094058,LEARNING,1.0,11,3.0,500.0,,,,,,,,,,11.0,11.0,11.0,cue2.png,Hard,A,,,,,,,,,,,,,,,,,,,,,,,,,,,23,21,Female,0.2857142857142857,1.25,0.6,1.0,2.7777777777777777,1.375,3.0,2.7777777777777777,2.25,3.0,1.25,1.5,2.0,0.25,0.6113636363636364,0.6647727272727273,0.357522159977816,-1.2372361427481093,0.03130649771419971,0.30839476773486457,0.02771028710726796,0.19883181065616454,0.07871803874051699,1.9944102646151352,0.024771144408887363,-0.613634990172154,,,1.4306372532963104e+44,1.5082299715929788,,,,,,,,,,,,,,,,,,,,
11,240623_094124,LEARNING,1.0,12,1.0,500.0,,,,,,,,,,12.0,12.0,12.0,cue1.png,Easy,A,,,,,,,,,,,,,,,,,,,,,,,,,,,23,21,Female,0.2857142857142857,1.25,0.6,1.0,2.7777777777777777,1.375,3.0,2.7777777777777777,2.25,3.0,1.25,1.5,2.0,0.25,0.8958333333333333,0.8541666666666666,0.3770138666654626,-0.9151807445713054,0.04185513875345172,0.8822448910415187,0.026368272063839175,0.12921468498305363,0.05692033051803912,0.8668735633580948,0.02561701368998162,-0.5798194721925969,,,3.376805809731572e+43,0.4288071421265765,,,,,,,,,,,,,,,,,,,,
12,240623_094150,LEARNING,1.0,13,1.0,500.0,,,,,,,,,,13.0,13.0,13.0,cue1.png,Easy,A,,,,,,,,,,,,,,,,,,,,,,,,,,,23,21,Female,0.2857142857142857,1.25,0.6,1.0,2.7777777777777777,1.375,3.0,2.7777777777777777,2.25,3.0,1.25,1.5,2.0,0.25,1.0,1.0,0.4297941312470357,-0.04310887328316221,,,0.06293115010689576,2.0259165797626517,0.027666747324977065,-0.6463354564525231,,,4.50596703912516e+44,-0.1783881918562739,,,,,,,,,,,,,,,,,,,,,,
13,240623_094218,LEARNING,1.0,14,1.0,500.0,,,,,,,,,,14.0,14.0,14.0,cue1.png,Easy,A,,,,,,,,,,,,,,,,,,,,,,,,,,,23,21,Female,0.2857142857142857,1.25,0.6,1.0,2.7777777777777777,1.375,3.0,2.7777777777777777,2.25,3.0,1.25,1.5,2.0,0.25,0.9090909090909092,0.8465909090909091,0.5343825733289123,1.6849733772422906,0.009701634740247638,-0.8669180745063655,0.054239809510280075,1.575052669149183,0.026046404745651303,-0.7301514112378656,0.035626968854574066,-0.17964910732848113,-7.795669472824526e+43,-0.17972741266489023,,,,,,,,,,,,,,,,,,,,,,
14,240623_094242,LEARNING,1.0,15,3.0,500.0,,,,,,,,,,15.0,15.0,15.0,cue2.png,Hard,A,,,,,,,,,,,,,,,,,,,,,,,,,,,23,21,Female,0.2857142857142857,1.25,0.6,1.0,2.7777777777777777,1.375,3.0,2.7777777777777777,2.25,3.0,1.25,1.5,2.0,0.25,0.5,0.75,0.3469625624857144,-1.4117090829273755,0.045559059058513214,1.0837395779749814,,,0.054404321408797744,0.7367271928125313,,,,,,,,,,,,,,,,,,,,,,,,,,
15,240623_094309,LEARNING,1.0,16,1.0,500.0,,,,,,,,,,16.0,16.0,16.0,cue1.png,Easy,A,,,,,,,,,,,,,,,,,,,,,,,,,,,23,21,Female,0.2857142857142857,1.25,0.6,1.0,2.7777777777777777,1.375,3.0,2.7777777777777777,2.25,3.0,1.25,1.5,2.0,0.25,1.0,1.0,0.4597105687498697,0.4511911049795399,0.008594491757488614,-0.9271470779211423,,,0.021302281030847383,-0.9755521455329151,0.04671019911709552,0.26342783208823983,,,,,,,,,,,,,,,,,,,,,,,,
16,240623_094334,LEARNING,1.0,17,1.0,500.0,,,,,,,,,,17.0,17.0,17.0,cue1.png,Easy,A,,,,,,,,,,,,,,,,,,,,,,,,,,,23,21,Female,0.2857142857142857,1.25,0.6,1.0,2.7777777777777777,1.375,3.0,2.7777777777777777,2.25,3.0,1.25,1.5,2.0,0.25,0.75,0.8333333333333334,0.4203466687249602,-0.19920635376883955,0.047623021155635215,1.1960199086380963,0.008784333483727945,-0.7829533774793761,0.0440765630037512,0.20250008395539162,0.022222468524678563,-0.7155240138225145,,,,,,,,,,,,,,,,,,,,,,,,
17,240623_094359,LEARNING,1.0,18,3.0,500.0,,,,,,,,,,18.0,18.0,18.0,cue2.png,Hard,A,,,,,,,,,,,,,,,,,,,,,,,,,,,23,21,Female,0.2857142857142857,1.25,0.6,1.0,2.7777777777777777,1.375,3.0,2.7777777777777777,2.25,3.0,1.25,1.5,2.0,0.25,0.5,0.75,0.3919137187476735,-0.6689951297347584,,,0.037129961085085914,0.6874780671377781,0.0571466133765842,0.8785785657955453,0.04019751616387339,0.00306875247378904,,,,,,,,,,,,,,,,,,,,,,,,
18,240623_094424,LEARNING,1.0,19,3.0,500.0,,,,,,,,,,19.0,19.0,19.0,cue2.png,Hard,A,,,,,,,,,,,,,,,,,,,,,,,,,,,23,21,Female,0.2857142857142857,1.25,0.6,1.0,2.7777777777777777,1.375,3.0,2.7777777777777777,2.25,3.0,1.25,1.5,2.0,0.25,0.8958333333333333,0.9166666666666666,0.3320150874860701,-1.6586815563947301,,,0.0155686142868216,-0.4310183290734092,0.019775578205237412,-1.0545243682188277,0.039205862610672854,-0.036574818119487665,,,,,,,,,,,,,,,,,,,,,,,,
19,240623_094450,LEARNING,1.0,20,3.0,500.0,,,,,,,,,,20.0,20.0,20.0,cue2.png,Hard,A,,,,,,,,,,,,,,,,,,,,,,,,,,,23,21,Female,0.2857142857142857,1.25,0.6,1.0,2.7777777777777777,1.375,3.0,2.7777777777777777,2.25,3.0,1.25,1.5,2.0,0.25,0.2083333333333333,0.7083333333333334,0.3875481142895296,-0.7411266523654076,0.036920471670380955,0.613797106766717,0.006599866117155817,-0.8962727772373056,,,0.01967990195362372,-0.8171688040039244,,,,,,,,,,,,,,,,,,,,,,,,
20,240623_094516,LEARNING,1.0,21,1.0,500.0,,,,,,,,,,21.0,21.0,21.0,cue1.png,Easy,A,,,,,,,,,,,,,,,,,,,,,,,,,,,23,21,Female,0.2857142857142857,1.25,0.6,1.0,2.7777777777777777,1.375,3.0,2.7777777777777777,2.25,3.0,1.25,1.5,2.0,0.25,0.75,0.8333333333333334,0.4418408562414697,0.15593541139549902,0.007496694386374609,-0.9868676764736325,0.007513100338515632,-0.8488986871563509,0.03265736419023664,-0.3881842957864745,0.01566780464614851,-0.9775613748999261,3.039208362286708e+44,-0.17875983145717175,2.378573359619198e+43,0.33021998647335676,,,,,,,,,,,,,,,,,,,,
21,240623_094542,LEARNING,1.0,22,3.0,500.0,,,,,,,,,,22.0,22.0,22.0,cue2.png,Hard,A,,,,,,,,,,,,,,,,,,,,,,,,,,,23,21,Female,0.2857142857142857,1.25,0.6,1.0,2.7777777777777777,1.375,3.0,2.7777777777777777,2.25,3.0,1.25,1.5,2.0,0.25,0.5,0.625,0.3689363571299639,-1.0486429185830184,0.01185908049603209,-0.7495521969134624,0.018513515699111513,-0.2782513591961537,,,0.042692949338483964,0.1028292796248205,1.5881934781713782e+44,-0.17912748197865483,-2.134286255272089e+42,0.0742294071906289,,,,,,,,,,,,,,,,,,,,
22,240623_094609,LEARNING,1.0,23,3.0,500.0,,,,,,,,,,23.0,23.0,23.0,cue2.png,Hard,A,,,,,,,,,,,,,,,,,,,,,,,,,,,23,21,Female,0.2857142857142857,1.25,0.6,1.0,2.7777777777777777,1.375,3.0,2.7777777777777777,2.25,3.0,1.25,1.5,2.0,0.25,0.1666666666666666,0.6041666666666667,0.4443005600012839,0.19657633045190953,0.04293268443053755,0.9408637896620469,0.008434337844575542,-0.8011094261132726,0.039775066180618546,-0.020004754118420048,0.02286361484115519,-0.6898927546233449,-2.2541829803359617e+43,-0.17958700539401673,,,,,,,,,,,,,,,,,,,,,,
23,240623_094636,LEARNING,1.0,24,3.0,500.0,,,,,,,,,,24.0,24.0,24.0,cue2.png,Hard,A,,,,,,,,,,,,,,,,,,,,,,,,,,,23,21,Female,0.2857142857142857,1.25,0.6,1.0,2.7777777777777777,1.375,3.0,2.7777777777777777,2.25,3.0,1.25,1.5,2.0,0.25,0.7818181818181817,0.8181818181818181,0.4967686625022907,1.0634904449174452,,,0.010344451783793592,-0.702022129880918,0.023104697514002605,-0.8823179983938847,0.06483316695175517,0.9879340393157586,,,-3.978615278387446e+43,-0.29762691001000974,,,,,,,,,,,,,,,,,,,,
24,240623_094702,LEARNING,1.0,25,1.0,500.0,,,,,,,,,,25.0,25.0,25.0,cue1.png,Easy,A,,,,,,,,,,,,,,,,,,,,,,,,,,,23,21,Female,0.2857142857142857,1.25,0.6,1.0,2.7777777777777777,1.375,3.0,2.7777777777777777,2.25,3.0,1.25,1.5,2.0,0.25,1.0,1.0,0.4329612500005169,0.009220443362673266,,,,,,,,,-2.502221600088185e+44,-0.18016388984260398,-4.2008210722793207e+43,-0.3195723368361958,,,,,,,,,,,,,,,,,,,,
25,240623_094727,LEARNING,1.0,26,1.0,500.0,,,,,,,,,,26.0,26.0,26.0,cue1.png,Easy,A,,,,,,,,,,,,,,,,,,,,,,,,,,,23,21,Female,0.2857142857142857,1.25,0.6,1.0,2.7777777777777777,1.375,3.0,2.7777777777777777,2.25,3.0,1.25,1.5,2.0,0.25,0.8958333333333333,0.9166666666666666,0.4156374125013826,-0.2770159274765174,0.013581413501920261,-0.6558566200020567,0.015102758905136338,-0.4551846100782904,,,0.07637289934137395,1.4492606731375013,-2.57696134134784e+44,-0.18018282700524127,-3.0811034665245816e+43,-0.20898709802356644,,,,,,,,,,,,,,,,,,,,
26,240623_094756,LEARNING,1.0,27,3.0,500.0,,,,,,,,,,27.0,27.0,27.0,cue2.png,Hard,A,,,,,,,,,,,,,,,,,,,,,,,,,,,23,21,Female,0.2857142857142857,1.25,0.6,1.0,2.7777777777777777,1.375,3.0,2.7777777777777777,2.25,3.0,1.25,1.5,2.0,0.25,0.6041666666666667,0.6458333333333334,0.4929977307866255,1.00118451477764,0.014848158568596415,-0.586945201933578,,,,,0.06026387413854664,0.8052663308028917,-1.3829854679010027e+44,-0.17988030367669625,,,,,,,,,,,,,,,,,,,,,,
27,240623_094822,LEARNING,1.0,28,1.0,500.0,,,,,,,,,,28.0,28.0,28.0,cue1.png,Easy,A,,,,,,,,,,,,,,,,,,,,,,,,,,,23,21,Female,0.2857142857142857,1.25,0.6,1.0,2.7777777777777777,1.375,3.0,2.7777777777777777,2.25,3.0,1.25,1.5,2.0,0.25,1.0,0.9375,0.4543804666570698,0.3631234883604361,0.05454878615734095,1.5727841842858306,0.008574084374257369,-0.7938600649627564,0.05853492452522889,0.9503921599993153,0.03245624504218449,-0.3064058893543813,-5.807199153026261e+43,-0.17967702984952216,,,,,,,,,,,,,,,,,,,,,,
28,240623_094849,LEARNING,1.0,29,1.0,500.0,,,,,,,,,,29.0,29.0,29.0,cue1.png,Easy,A,,,,,,,,,,,,,,,,,,,,,,,,,,,23,21,Female,0.2857142857142857,1.25,0.6,1.0,2.7777777777777777,1.375,3.0,2.7777777777777777,2.25,3.0,1.25,1.5,2.0,0.25,0.8958333333333333,0.9166666666666666,0.4748989875224652,0.7021446173563912,0.0067356977237434425,-1.028266187150209,0.006642599159986282,-0.8940559976060415,,,,,7.362503503519586e+43,-0.17934334284861947,,,,,,,,,,,,,,,,,,,,,,
29,240623_094917,LEARNING,1.0,30,3.0,500.0,,,,,,,,,,30.0,30.0,30.0,cue2.png,Hard,A,,,,,,,,,,,,,,,,,,,,,,,,,,,23,21,Female,0.2857142857142857,1.25,0.6,1.0,2.7777777777777777,1.375,3.0,2.7777777777777777,2.25,3.0,1.25,1.5,2.0,0.25,0.0715909090909091,0.5738636363636364,0.5365796333178878,1.721274715083389,0.011441850647092102,-0.7722496609157455,0.041035740287341214,0.8900906406005282,,,0.04923706593571736,0.36444498952244087,1.6864606715643147e+44,-0.17910258355391015,3.4402308636937073e+43,0.4350711096689811,,,,,,,,,,,,,,,,,,,,
30,240623_094945,LEARNING,1.0,31,3.0,500.0,,,,,,,,,,31.0,31.0,31.0,cue2.png,Hard,A,,,,,,,,,,,,,,,,,,,,,,,,,,,23,21,Female,0.2857142857142857,1.25,0.6,1.0,2.7777777777777777,1.375,3.0,2.7777777777777777,2.25,3.0,1.25,1.5,2.0,0.25,0.6041666666666667,0.5208333333333334,0.4070207909151742,-0.4193856819754368,0.0103453238724507,-0.8319011385322058,0.033615025793237475,0.5051405492808474,,,,,,,3.590399067521833e+43,0.44990198005723714,,,,,,,,,,,,,,,,,,,,
31,240623_095013,LEARNING,1.0,32,1.0,500.0,,,,,,,,,,32.0,32.0,32.0,cue1.png,Easy,A,,,,,,,,,,,,,,,,,,,,,,,,,,,23,21,Female,0.2857142857142857,1.25,0.6,1.0,2.7777777777777777,1.375,3.0,2.7777777777777777,2.25,3.0,1.25,1.5,2.0,0.25,1.0,1.0,0.5173355437509599,1.4033106174625793,0.06192778805642938,1.9742047211981557,0.020231297168146714,-0.18914132351188467,0.09607083871302902,2.892023841183842,0.029078601909337514,-0.4414347344018785,2.1436869627817493e+44,-0.17898673396046896,2.877073178365935e+43,0.37945268695144074,,,,,,,,,,,,,,,,,,,,
32,240623_095039,LEARNING,1.0,33,1.0,500.0,,,,,,,,,,33.0,33.0,33.0,cue1.png,Easy,A,,,,,,,,,,,,,,,,,,,,,,,,,,,23,21,Female,0.2857142857142857,1.25,0.6,1.0,2.7777777777777777,1.375,3.0,2.7777777777777777,2.25,3.0,1.25,1.5,2.0,0.25,1.0,1.0,0.4716139687443501,0.6478672753279148,0.013877283955559304,-0.6397611537072249,0.06676170992394649,2.224627142276656,,,,,1.5728590672629132e+44,-0.17913136733105808,1.3755504013022804e+43,0.23115971198096666,,,,,,,,,,,,,,,,,,,,
33,240623_095104,LEARNING,1.0,34,1.0,500.0,,,,,,,,,,34.0,34.0,34.0,cue1.png,Easy,A,,,,,,,,,,,,,,,,,,,,,,,,,,,23,21,Female,0.2857142857142857,1.25,0.6,1.0,2.7777777777777777,1.375,3.0,2.7777777777777777,2.25,3.0,1.25,1.5,2.0,0.25,1.0,1.0,0.3816285750071984,-0.8389333560648157,0.00833932073318802,-0.9410284796310221,0.07301135294546268,2.5488278177991592,,,0.04170964445436217,0.0635194657663579,5.765665096700421e+43,-0.17938380270050783,-5.822512108320909e+42,0.03780385358156517,,,,,,,,,,,,,,,,,,,,
34,240623_095131,LEARNING,1.0,35,3.0,500.0,,,,,,,,,,35.0,35.0,35.0,cue2.png,Hard,A,,,,,,,,,,,,,,,,,,,,,,,,,,,23,21,Female,0.2857142857142857,1.25,0.6,1.0,2.7777777777777777,1.375,3.0,2.7777777777777777,2.25,3.0,1.25,1.5,2.0,0.25,0.75,0.8333333333333334,0.4814588500157697,0.8105311820180284,,,0.008526427175434502,-0.7963322855357862,0.02696883825898966,-0.6824364115625354,,,-7.922441243331053e+43,-0.1797306247413511,-1.9630533347598845e+43,-0.09856654181345663,,,,,,,,,,,,,,,,,,,,
35,240623_095159,LEARNING,1.0,36,3.0,500.0,,,,,,,,,,36.0,36.0,36.0,cue2.png,Hard,A,,,,,,,,,,,,,,,,,,,,,,,,,,,23,21,Female,0.2857142857142857,1.25,0.6,1.0,2.7777777777777777,1.375,3.0,2.7777777777777777,2.25,3.0,1.25,1.5,2.0,0.25,0.6041666666666667,0.6458333333333334,0.457320861509428,0.4117067166096798,,,,,0.0203410290047417,-1.0252751222573298,0.02073976715414334,-0.7747983201181474,-1.6555154342328098e+44,-0.17994935588652436,-3.0606724045978015e+43,-0.20696929116694773,,,,,,,,,,,,,,,,,,,,
36,240623_095224,LEARNING,1.0,37,1.0,500.0,,,,,,,,,,37.0,37.0,37.0,cue1.png,Easy,A,,,,,,,,,,,,,,,,,,,,,,,,,,,23,21,Female,0.2857142857142857,1.25,0.6,1.0,2.7777777777777777,1.375,3.0,2.7777777777777777,2.25,3.0,1.25,1.5,2.0,0.25,1.0,1.0,0.4050624374940526,-0.45174294554999833,0.013018100472526805,-0.6865010651182403,0.009570976699546376,-0.7421462047999904,0.06731849447108956,1.4047425614696585,,,,,-3.225414164535674e+43,-0.2232394710511541,,,,,,,,,,,,,,,,,,,,
37,240623_095250,LEARNING,1.0,38,3.0,500.0,,,,,,,,,,38.0,38.0,38.0,cue2.png,Hard,A,,,,,,,,,,,,,,,,,,,,,,,,,,,23,21,Female,0.2857142857142857,1.25,0.6,1.0,2.7777777777777777,1.375,3.0,2.7777777777777777,2.25,3.0,1.25,1.5,2.0,0.25,0.5,0.625,0.3489413214431676,-1.3790146650320767,0.009995726164734773,-0.8509193880805603,0.02400084988560018,0.006404491378454041,0.016961694757311074,-1.2000789755295582,,,-1.6729923681640735e+44,-0.17995378410014512,-2.334926579331977e+43,-0.13529338378475256,,,,,,,,,,,,,,,,,,,,
38,240623_095316,LEARNING,1.0,39,3.0,500.0,,,,,,,,,,39.0,39.0,39.0,cue2.png,Hard,A,,,,,,,,,,,,,,,,,,,,,,,,,,,23,21,Female,0.2857142857142857,1.25,0.6,1.0,2.7777777777777777,1.375,3.0,2.7777777777777777,2.25,3.0,1.25,1.5,2.0,0.25,0.6041666666666667,0.7708333333333334,0.4392331999959424,0.11284991950300251,,,,,,,0.026464873229521776,-0.5459243891764963,-7.219268285808498e+43,-0.17971280811470197,-5.1912802298487687e+42,0.044038008306669686,,,,,,,,,,,,,,,,,,,,
39,240623_095344,LEARNING,1.0,40,3.0,500.0,,,,,,,,,,40.0,40.0,40.0,cue2.png,Hard,A,,,,,,,,,,,,,,,,,,,,,,,,,,,23,21,Female,0.2857142857142857,1.25,0.6,1.0,2.7777777777777777,1.375,3.0,2.7777777777777777,2.25,3.0,1.25,1.5,2.0,0.25,0.2083333333333333,0.7083333333333334,0.5022146428652506,1.15347268209977,0.047787242878105936,1.2049536334030957,,,0.06886097112858386,1.4845307219682764,0.02137759648602253,-0.7492996648032889,4.485157459335113e+43,-0.1794162475296956,1.285620927845412e+43,0.22227812233067396,,,,,,,,,,,,,,,,,,,,
40,240623_095412,LEARNING,1.0,41,1.0,500.0,,,,,,,,,,41.0,41.0,41.0,cue1.png,Easy,A,,,,,,,,,,,,,,,,,,,,,,,,,,,23,21,Female,0.2857142857142857,1.25,0.6,1.0,2.7777777777777777,1.375,3.0,2.7777777777777777,2.25,3.0,1.25,1.5,2.0,0.25,0.8958333333333333,0.8541666666666666,0.5170239866788809,1.398162857006755,,,,,0.021155405233620018,-0.9831496346914068,0.015557151666510241,-0.9819849754562779,1.5124916099115262e+44,-0.1791466629199723,2.7294018305515416e+43,0.3648684103624965,,,,,,,,,,,,,,,,,,,,
41,240623_095441,LEARNING,1.0,42,3.0,500.0,,,,,,,,,,42.0,42.0,42.0,cue2.png,Hard,A,,,,,,,,,,,,,,,,,,,,,,,,,,,23,21,Female,0.2857142857142857,1.25,0.6,1.0,2.7777777777777777,1.375,3.0,2.7777777777777777,2.25,3.0,1.25,1.5,2.0,0.25,0.75,0.8333333333333334,0.6258790687497822,3.1967414710657964,0.007240631376238316,-1.0007976025555048,0.0075085503759628296,-0.849134716786866,,,0.021026818819373974,-0.7633227872389877,,,,,,,,,,,,,,,,,,,,,,,,
42,240623_095509,LEARNING,1.0,43,3.0,500.0,,,,,,,,,,43.0,43.0,43.0,cue2.png,Hard,A,,,,,,,,,,,,,,,,,,,,,,,,,,,23,21,Female,0.2857142857142857,1.25,0.6,1.0,2.7777777777777777,1.375,3.0,2.7777777777777777,2.25,3.0,1.25,1.5,2.0,0.25,0.5272727272727272,0.6931818181818181,0.458948721419022,0.43860333883787106,0.010137952246156014,-0.8431822346351732,0.043744812208449016,1.0306239388766785,0.024701567551625125,-0.7997162149320624,0.04493729355217561,0.19255196350361672,1.765815023233434e+44,-0.17908247716555226,2.475136096473118e+43,0.33975668863871583,,,,,,,,,,,,,,,,,,,,
43,240623_095536,LEARNING,1.0,44,1.0,500.0,,,,,,,,,,44.0,44.0,44.0,cue1.png,Easy,A,,,,,,,,,,,,,,,,,,,,,,,,,,,23,21,Female,0.2857142857142857,1.25,0.6,1.0,2.7777777777777777,1.375,3.0,2.7777777777777777,2.25,3.0,1.25,1.5,2.0,0.25,1.0,1.0,0.5199406062311027,1.4463532533775538,0.008237640510459972,-0.9465599227935315,0.0065511966909343015,-0.8987975071785176,0.027054313016710466,-0.6780150327011614,0.027168294610429335,-0.5178035448747468,,,6.696547637825141e+42,0.16144424332108112,,,,,,,,,,,,,,,,,,,,
44,240623_095602,LEARNING,1.0,45,1.0,500.0,,,,,,,,,,45.0,45.0,45.0,cue1.png,Easy,A,,,,,,,,,,,,,,,,,,,,,,,,,,,23,21,Female,0.2857142857142857,1.25,0.6,1.0,2.7777777777777777,1.375,3.0,2.7777777777777777,2.25,3.0,1.25,1.5,2.0,0.25,1.0,1.0,0.4191585937296622,-0.21883654684562637,0.007760676388063284,-0.9725069542103478,0.009644334276773997,-0.7383407752722541,0.018993988525368127,-1.094953895964666,0.028997366145195977,-0.44468231591867924,-8.906341183033186e+43,-0.17975555428066034,-1.8746591073055548e+43,-0.08983657570195114,,,,,,,,,,,,,,,,,,,,
45,240623_095628,LEARNING,1.0,46,1.0,500.0,,,,,,,,,,46.0,46.0,46.0,cue1.png,Easy,A,,,,,,,,,,,,,,,,,,,,,,,,,,,23,21,Female,0.2857142857142857,1.25,0.6,1.0,2.7777777777777777,1.375,3.0,2.7777777777777777,2.25,3.0,1.25,1.5,2.0,0.25,0.8958333333333333,0.9166666666666666,0.462900343714864,0.5038947631510793,,,,,0.057934124721319154,0.9193144053059251,0.0432450883126764,0.12490227107435628,-2.0728547130000293e+44,-0.18005509911848833,-3.5135889279620643e+43,-0.25170010690210154,,,,,,,,,,,,,,,,,,,,
46,240623_095655,LEARNING,1.0,47,3.0,500.0,,,,,,,,,,47.0,47.0,47.0,cue2.png,Hard,A,,,,,,,,,,,,,,,,,,,,,,,,,,,23,21,Female,0.2857142857142857,1.25,0.6,1.0,2.7777777777777777,1.375,3.0,2.7777777777777777,2.25,3.0,1.25,1.5,2.0,0.25,0.6041666666666667,0.6458333333333334,0.4138954230584204,-0.3057982764346273,0.047003713176302635,1.162329316742669,,,0.050185896665869555,0.5185194495674188,0.024762273703979834,-0.6139896164577946,,,,,,,,,,,,,,,,,,,,,,,,
47,240623_095722,LEARNING,1.0,48,3.0,500.0,,,,,,,,,,48.0,48.0,48.0,cue2.png,Hard,A,,,,,,,,,,,,,,,,,,,,,,,,,,,23,21,Female,0.2857142857142857,1.25,0.6,1.0,2.7777777777777777,1.375,3.0,2.7777777777777777,2.25,3.0,1.25,1.5,2.0,0.25,0.8958333333333333,0.7916666666666666,0.3883359357382038,-0.7281097239655056,0.022148381174028883,-0.18981028884808174,,,0.02523819287510452,-0.7719580331603197,0.09573174720634636,2.223173951078775,3.5158193859352496e+43,-0.17944080810809354,1.013551299118287e+43,0.19540805731443925,,,,,,,,,,,,,,,,,,,,
48,240623_095748,LEARNING,1.0,49,1.0,500.0,,,,,,,,,,49.0,49.0,49.0,cue1.png,Easy,A,,,,,,,,,,,,,,,,,,,,,,,,,,,23,21,Female,0.2857142857142857,1.25,0.6,1.0,2.7777777777777777,1.375,3.0,2.7777777777777777,2.25,3.0,1.25,1.5,2.0,0.25,1.0,1.0,0.4577900937583763,0.4194596948990676,0.00919807200567763,-0.8943120806395124,0.02354766365569226,-0.01710457647835293,0.027517864007321386,-0.6540367892324792,0.042860341386708176,0.10952115145759125,2.7029681493723036e+44,-0.17884502623427218,,,,,,,,,,,,,,,,,,,,,,
49,240623_095814,LEARNING,1.0,50,1.0,500.0,,,,,,,,,,50.0,50.0,50.0,cue1.png,Easy,A,,,,,,,,,,,,,,,,,,,,,,,,,,,23,21,Female,0.2857142857142857,1.25,0.6,1.0,2.7777777777777777,1.375,3.0,2.7777777777777777,2.25,3.0,1.25,1.5,2.0,0.25,0.8958333333333333,0.9166666666666666,0.4230188624787843,-0.15505452872938236,,,,,0.021329275427997722,-0.9741557981185605,0.022185333991274876,-0.7170085499205159,-6.271986461446106e+43,-0.17968880638594434,-2.433782490849251e+43,-0.14505656382853627,,,,,,,,,,,,,,,,,,,,
0,240623_095918,TrueCHOICE,9.0,1,1.0,500.0,,,,,,,,,,,1.0,1.0,,,A,,,,,,True,cue1.png,Easy,cue2.png,Hard,Left,Easy,Easy,0.0151667000027373,,,,,,,,,,,,,23,21,Female,0.2857142857142857,1.25,0.6,1.0,2.7777777777777777,1.375,3.0,2.7777777777777777,2.25,3.0,1.25,1.5,2.0,0.25,1.0,1.0,0.4526652187487343,0.14939503618273506,,,,,,,,,,,,,,,0.018320682168890316,-0.7177829711366464,,,,,,,,,,,,,,,,
1,240623_095944,TrueCHOICE,9.0,2,1.0,500.0,,,,,,,,,,,2.0,2.0,,,A,,,,,,True,cue1.png,Easy,cue2.png,Hard,Left,Easy,Easy,0.0159017000114545,,,,,,,,,,,,,23,21,Female,0.2857142857142857,1.25,0.6,1.0,2.7777777777777777,1.375,3.0,2.7777777777777777,2.25,3.0,1.25,1.5,2.0,0.25,1.0,0.9375,0.5158028466627002,1.126143265391551,,,,,,,,,,,,,0.04140962929240648,1.119352367177226,0.04986610489052121,1.677965507644861,2392616.451108074,-0.4471859418277695,,,,,,,,,,,,,,
2,240623_100008,TrueCHOICE,9.0,3,1.0,500.0,,,,,,,,,,,3.0,3.0,,,A,,,,,,True,cue2.png,Hard,cue1.png,Easy,Right,Easy,Easy,0.0166365000186488,,,,,,,,,,,,,23,21,Female,0.2857142857142857,1.25,0.6,1.0,2.7777777777777777,1.375,3.0,2.7777777777777777,2.25,3.0,1.25,1.5,2.0,0.25,1.0,1.0,0.4158835937341791,-0.4196220188980219,,,,,,,,,,,,,0.007704819652527755,-0.8952949498308957,0.01863576181944891,-0.6938539339453599,2922112.707197117,-0.44717049606994747,,,,,,,,,,,,,,
3,240623_100032,TrueCHOICE,9.0,4,1.0,500.0,,,,,,,,,,,4.0,4.0,,,A,,,,,,True,cue1.png,Easy,cue2.png,Hard,Left,Easy,Easy,0.0164392999140545,,,,,,,,,,,,,23,21,Female,0.2857142857142857,1.25,0.6,1.0,2.7777777777777777,1.375,3.0,2.7777777777777777,2.25,3.0,1.25,1.5,2.0,0.25,1.0,1.0,0.4880232124996837,0.6963883098558661,,,,,,,,,,,,,0.007213312080468409,-0.9246739738312847,0.016008945016324112,-0.8933501466180356,245215.82342225386,-0.4472485829317636,,,,,,,,,,,,,,
4,240623_100058,TrueCHOICE,9.0,5,1.0,500.0,,,,,,,,,,,5.0,5.0,,,A,,,,,,True,cue2.png,Hard,cue1.png,Easy,Right,Easy,Easy,0.0166564000537619,,,,,,,,,,,,,23,21,Female,0.2857142857142857,1.25,0.6,1.0,2.7777777777777777,1.375,3.0,2.7777777777777777,2.25,3.0,1.25,1.5,2.0,0.25,0.8958333333333333,0.9166666666666666,0.5138499562526704,1.095931768494096,,,,,,,,,,,,,0.0070730673316658065,-0.9330568636893939,0.023675754504101816,-0.3110866807093609,91987060532.01172,2.236067976640171,,,,,,,,,,,,,,
5,240623_100121,TrueCHOICE,9.0,6,1.0,500.0,,,,,,,,,,,6.0,6.0,,,A,,,,,,True,cue2.png,Hard,cue1.png,Easy,Right,Easy,Easy,0.0147204999811947,,,,,,,,,,,,,23,21,Female,0.2857142857142857,1.25,0.6,1.0,2.7777777777777777,1.375,3.0,2.7777777777777777,2.25,3.0,1.25,1.5,2.0,0.25,0.9090909090909092,0.9090909090909092,0.4247347750206245,-0.28269296512168535,,,,,,,,,,,,,0.04712910815947568,1.4612244286824245,0.04662188831064771,1.4315802553483323,558172.0676619634,-0.44723945379005237,,,,,,,,,,,,,,
6,240623_100143,TrueCHOICE,9.0,7,3.0,500.0,,,,,,,,,,,7.0,7.0,,,A,,,,,,True,cue1.png,Easy,cue2.png,Hard,Right,Hard,Hard,0.0169675999786704,,,,,,,,,,,,,23,21,Female,0.2857142857142857,1.25,0.6,1.0,2.7777777777777777,1.375,3.0,2.7777777777777777,2.25,3.0,1.25,1.5,2.0,0.25,0.0715909090909091,0.6363636363636364,0.3159385812396067,-1.9657858073974792,,,,,,,,,,,,,0.011889619379050729,-0.6451557076474717,0.021274240734614754,-0.4934720305837918,1105014.9147611486,-0.44722350202063776,,,,,,,,,,,,,,
7,240623_100207,TrueCHOICE,9.0,8,1.0,500.0,,,,,,,,,,,8.0,8.0,,,A,,,,,,True,cue2.png,Hard,cue1.png,Easy,Right,Easy,Easy,0.015736199915409,,,,,,,,,,,,,23,21,Female,0.2857142857142857,1.25,0.6,1.0,2.7777777777777777,1.375,3.0,2.7777777777777777,2.25,3.0,1.25,1.5,2.0,0.25,1.0,1.0,0.5024554125047871,0.9196565298431748,,,,,,,,,,,,,,,,,,,,,,,,,,,,,,,,
8,240623_100232,TrueCHOICE,9.0,9,1.0,500.0,,,,,,,,,,,9.0,9.0,,,A,,,,,,True,cue1.png,Easy,cue2.png,Hard,Left,Easy,Easy,0.0146396999480202,,,,,,,,,,,,,23,21,Female,0.2857142857142857,1.25,0.6,1.0,2.7777777777777777,1.375,3.0,2.7777777777777777,2.25,3.0,1.25,1.5,2.0,0.25,1.0,1.0,0.4501618187423446,0.11066707626358255,,,,,,,,,,,,,,,,,,,,,,,,,,,,,,,,
9,240623_100254,TrueCHOICE,9.0,10,1.0,500.0,,,,,,,,,,,10.0,10.0,,,A,,,,,,True,cue2.png,Hard,cue1.png,Easy,Right,Easy,Easy,0.0163938000332564,,,,,,,,,,,,,23,21,Female,0.2857142857142857,1.25,0.6,1.0,2.7777777777777777,1.375,3.0,2.7777777777777777,2.25,3.0,1.25,1.5,2.0,0.25,0.9090909090909092,0.9090909090909092,0.3505668687575962,-1.430081194613818,,,,,,,,,,,,,0.036361426748650054,0.8176046991393938,,,,,,,,,,,,,,,,,,
0,240623_100411,FalseCHOICE,9.0,1,2.0,500.0,,,,,,,,,,,1.0,1.0,,,A,,,,,,False,cue1.png,Easy,cue2.png,Hard,Left,Easy,Mid,0.0160664001014083,,,,,,,,,,,,,23,21,Female,0.2857142857142857,1.25,0.6,1.0,2.7777777777777777,1.375,3.0,2.7777777777777777,2.25,3.0,1.25,1.5,2.0,0.25,0.6909090909090909,0.7556818181818181,0.4708712800095478,0.20230347379602212,,,,,,,,,,,,,,,,,,,0.006994519024455236,-1.1355596507469075,0.023949210218744684,-0.6191393019742035,,,,,,,,,,
1,240623_100434,FalseCHOICE,9.0,2,2.0,500.0,,,,,,,,,,,2.0,2.0,,,A,,,,,,False,cue2.png,Hard,cue1.png,Easy,Left,Hard,Mid,0.0160633000778034,,,,,,,,,,,,,23,21,Female,0.2857142857142857,1.25,0.6,1.0,2.7777777777777777,1.375,3.0,2.7777777777777777,2.25,3.0,1.25,1.5,2.0,0.25,0.8958333333333333,0.9166666666666666,0.3783466937384219,-1.2332913827441927,,,,,,,,,,,,,,,,,,,0.023401604992368638,-0.3718162710919456,0.018919110965249716,-0.7740361258581226,4.709677862992581e+43,-0.17339503747363344,,,,,,,,
2,240623_100458,FalseCHOICE,9.0,3,2.0,500.0,,,,,,,,,,,3.0,3.0,,,A,,,,,,False,cue2.png,Hard,cue1.png,Easy,Right,Easy,Mid,0.0167927999282255,,,,,,,,,,,,,23,21,Female,0.2857142857142857,1.25,0.6,1.0,2.7777777777777777,1.375,3.0,2.7777777777777777,2.25,3.0,1.25,1.5,2.0,0.25,0.75,0.7708333333333334,0.4044723466504365,-0.8279304461998321,,,,,,,,,,,,,,,,,,,0.042529283096881886,0.5185695993217656,0.07532393155789754,0.9628933304489092,-3.2013008277323464e+44,-0.17798632361970826,,,,,,,,
3,240623_100525,FalseCHOICE,9.0,4,2.0,500.0,,,,,,,,,,,4.0,4.0,,,A,,,,,,False,cue2.png,Hard,cue1.png,Easy,Right,Easy,Mid,0.0164114000508561,,,,,,,,,,,,,23,21,Female,0.2857142857142857,1.25,0.6,1.0,2.7777777777777777,1.375,3.0,2.7777777777777777,2.25,3.0,1.25,1.5,2.0,0.25,0.8409090909090908,0.8465909090909091,0.5260206066615258,1.0579905173590909,,,,,,,,,,,,,,,,,,,0.03572554669839615,0.20185835386214168,,,-2.8762089935104245e+44,-0.17757987469356976,,,,,,,,
4,240623_100549,FalseCHOICE,9.0,5,2.0,500.0,,,,,,,,,,,5.0,5.0,,,A,,,,,,False,cue1.png,Easy,cue2.png,Hard,Right,Hard,Mid,0.0167381999781355,,,,,,,,,,,,,23,21,Female,0.2857142857142857,1.25,0.6,1.0,2.7777777777777777,1.375,3.0,2.7777777777777777,2.25,3.0,1.25,1.5,2.0,0.25,0.7818181818181817,0.8181818181818181,0.4526922687364276,-0.07975879886525271,,,,,,,,,,,,,,,,,,,0.03706587597364093,0.264250152901159,,,4.73385460872773e+47,5.744559507483422,,,,,,,,
5,240623_100617,FalseCHOICE,9.0,6,2.0,500.0,,,,,,,,,,,6.0,6.0,,,A,,,,,,False,cue2.png,Hard,cue1.png,Easy,Left,Hard,Mid,0.015958399977535,,,,,,,,,,,,,23,21,Female,0.2857142857142857,1.25,0.6,1.0,2.7777777777777777,1.375,3.0,2.7777777777777777,2.25,3.0,1.25,1.5,2.0,0.25,0.8958333333333333,0.9166666666666666,0.5437919500036514,1.333727487649412,,,,,,,,,,,,,,,,,,,0.05387909450337483,1.0468988431005601,0.06061079270832122,0.5098170863610844,,,,,,,,,,
6,240623_100641,FalseCHOICE,9.0,7,2.0,500.0,,,,,,,,,,,7.0,7.0,,,A,,,,,,False,cue2.png,Hard,cue1.png,Easy,Left,Hard,Mid,0.0169942999491468,,,,,,,,,,,,,23,21,Female,0.2857142857142857,1.25,0.6,1.0,2.7777777777777777,1.375,3.0,2.7777777777777777,2.25,3.0,1.25,1.5,2.0,0.25,0.9090909090909092,0.8465909090909091,0.4744516399999459,0.25785569611794856,,,,,,,,,,,,,,,,,,,0.008453812767448185,-1.067630102662476,0.021286068149816404,-0.7011480710341822,3.2878433976941075e+43,-0.17357280357869428,,,,,,,,
7,240623_100704,FalseCHOICE,9.0,8,2.0,500.0,,,,,,,,,,,8.0,8.0,,,A,,,,,,False,cue1.png,Easy,cue2.png,Hard,Left,Easy,Mid,0.016160300001502,,,,,,,,,,,,,23,21,Female,0.2857142857142857,1.25,0.6,1.0,2.7777777777777777,1.375,3.0,2.7777777777777777,2.25,3.0,1.25,1.5,2.0,0.25,0.6113636363636364,0.7272727272727273,0.3924459937625215,-1.0145291768143807,,,,,,,,,,,,,,,,,,,,,0.020607374054195046,-0.7220477699272951,,,,,,,,,,
8,240623_100727,FalseCHOICE,9.0,9,2.0,500.0,,,,,,,,,,,9.0,9.0,,,A,,,,,,False,cue1.png,Easy,cue2.png,Hard,Left,Easy,Mid,0.0158170000649988,,,,,,,,,,,,,23,21,Female,0.2857142857142857,1.25,0.6,1.0,2.7777777777777777,1.375,3.0,2.7777777777777777,2.25,3.0,1.25,1.5,2.0,0.25,0.6041666666666667,0.7708333333333334,0.4153438399856289,-0.6592503089098382,,,,,,,,,,,,,,,,,,,0.029724212236091847,-0.07750139799408592,0.035234291787703494,-0.27162661798727666,,,,,,,,,,
9,240623_100754,FalseCHOICE,9.0,10,2.0,500.0,,,,,,,,,,,10.0,10.0,,,A,,,,,,False,cue2.png,Hard,cue1.png,Easy,Left,Hard,Mid,0.0169503999641165,,,,,,,,,,,,,23,21,Female,0.2857142857142857,1.25,0.6,1.0,2.7777777777777777,1.375,3.0,2.7777777777777777,2.25,3.0,1.25,1.5,2.0,0.25,0.6041666666666667,0.7083333333333334,0.5571472285415179,1.5409455898783784,,,,,,,,,,,,,,,,,,,0.059609428706188655,1.3136436397797746,0.053776147983053926,0.29935110806387444,1.3612133409169804e+44,-0.17228200013592254,,,,,,,,
10,240623_100822,FalseCHOICE,9.0,11,2.0,500.0,,,,,,,,,,,11.0,11.0,,,A,,,,,,False,cue1.png,Easy,cue2.png,Hard,Left,Easy,Mid,0.0161153000080958,,,,,,,,,,,,,23,21,Female,0.2857142857142857,1.25,0.6,1.0,2.7777777777777777,1.375,3.0,2.7777777777777777,2.25,3.0,1.25,1.5,2.0,0.25,0.5,0.6875,0.5403562733282645,1.280420145647713,,,,,,,,,,,,,,,,,,,0.0821191996193868,2.3614645962936804,0.08860794707952468,1.3719611656998831,1.32429676006503e+44,-0.17232815541595253,,,,,,,,
11,240623_100851,FalseCHOICE,9.0,12,2.0,500.0,,,,,,,,,,,13.0,12.0,,,A,,,,,,False,cue2.png,Hard,cue1.png,Easy,Right,Easy,Mid,0.016619800007902,,,,,,,,,,,,,23,21,Female,0.2857142857142857,1.25,0.6,1.0,2.7777777777777777,1.375,3.0,2.7777777777777777,2.25,3.0,1.25,1.5,2.0,0.25,0.75,0.8333333333333334,0.438044787493709,-0.3070264860905478,,,,,,,,,,,,,,,,,,,0.006264080603084929,-1.1695612711235053,,,,,,,,,,,,
12,240623_100918,FalseCHOICE,9.0,13,2.0,500.0,,,,,,,,,,,14.0,13.0,,,A,,,,,,False,cue1.png,Easy,cue2.png,Hard,Right,Hard,Mid,0.016389500000514,,,,,,,,,,,,,23,21,Female,0.2857142857142857,1.25,0.6,1.0,2.7777777777777777,1.375,3.0,2.7777777777777777,2.25,3.0,1.25,1.5,2.0,0.25,0.6041666666666667,0.5833333333333334,0.5046778333295757,0.726839881031275,,,,,,,,,,,,,,,,,,,0.00882564763954145,-1.050321336045329,0.026444265478375608,-0.5423065963644347,6.160090213037922e+43,-0.17321369839338713,,,,,,,,
13,240623_100944,FalseCHOICE,9.0,14,2.0,500.0,,,,,,,,,,,15.0,14.0,,,A,,,,,,False,cue2.png,Hard,cue1.png,Easy,Left,Hard,Mid,0.0148203000426292,,,,,,,,,,,,,23,21,Female,0.2857142857142857,1.25,0.6,1.0,2.7777777777777777,1.375,3.0,2.7777777777777777,2.25,3.0,1.25,1.5,2.0,0.25,0.75,0.8333333333333334,0.53438019999885,1.187696465599311,,,,,,,,,,,,,,,,,,,0.011572594920131535,-0.9224520237302251,0.026113387896122272,-0.5524956371770631,-5.907316427265862e+42,-0.174057725835785,,,,,,,,
14,240623_101009,FalseCHOICE,9.0,15,2.0,500.0,,,,,,,,,,,16.0,15.0,,,A,,,,,,False,cue1.png,Easy,cue2.png,Hard,Left,Easy,Mid,0.0164082000264897,,,,,,,,,,,,,23,21,Female,0.2857142857142857,1.25,0.6,1.0,2.7777777777777777,1.375,3.0,2.7777777777777777,2.25,3.0,1.25,1.5,2.0,0.25,0.75,0.8333333333333334,0.4365502374930656,-0.33021565537230685,,,,,,,,,,,,,,,,,,,0.015055583765063196,-0.7603202669434991,0.022732623499726948,-0.6566028606950919,,,,,,,,,,
15,240623_101035,FalseCHOICE,9.0,16,2.0,500.0,,,,,,,,,,,17.0,16.0,,,A,,,,,,False,cue1.png,Easy,cue2.png,Hard,Right,Hard,Mid,0.0166508000111207,,,,,,,,,,,,,23,21,Female,0.2857142857142857,1.25,0.6,1.0,2.7777777777777777,1.375,3.0,2.7777777777777777,2.25,3.0,1.25,1.5,2.0,0.25,0.0715909090909091,0.5738636363636364,0.5584851066737125,1.5617038665987755,,,,,,,,,,,,,,,,,,,0.029935029627957417,-0.06768793156449962,0.07518860634428273,0.9587261272340257,,,,,,,,,,
16,240623_101100,FalseCHOICE,9.0,17,2.0,500.0,,,,,,,,,,,18.0,17.0,,,A,,,,,,False,cue2.png,Hard,cue1.png,Easy,Left,Hard,Mid,0.0165637999307364,,,,,,,,,,,,,23,21,Female,0.2857142857142857,1.25,0.6,1.0,2.7777777777777777,1.375,3.0,2.7777777777777777,2.25,3.0,1.25,1.5,2.0,0.25,0.5,0.6875,0.4663485733248914,0.13212996947894295,,,,,,,,,,,,,,,,,,,0.03821345462998812,0.31766948666539635,0.022057538207201723,-0.6773914301433485,,,,,,,,,,
17,240623_101125,FalseCHOICE,9.0,18,2.0,500.0,,,,,,,,,,,19.0,18.0,,,A,,,,,,False,cue2.png,Hard,cue1.png,Easy,Left,Hard,Mid,0.0159878000849857,,,,,,,,,,,,,23,21,Female,0.2857142857142857,1.25,0.6,1.0,2.7777777777777777,1.375,3.0,2.7777777777777777,2.25,3.0,1.25,1.5,2.0,0.25,0.8958333333333333,0.9166666666666666,0.4822716375128948,0.3791893724972198,,,,,,,,,,,,,,,,,,,0.022271166152785717,-0.4244377531470002,0.021891566551444717,-0.6825023595775247,,,,,,,,,,
18,240623_101149,FalseCHOICE,9.0,19,2.0,500.0,,,,,,,,,,,20.0,19.0,,,A,,,,,,False,cue1.png,Easy,cue2.png,Hard,Right,Hard,Mid,0.0155813000164926,,,,,,,,,,,,,23,21,Female,0.2857142857142857,1.25,0.6,1.0,2.7777777777777777,1.375,3.0,2.7777777777777777,2.25,3.0,1.25,1.5,2.0,0.25,0.7818181818181817,0.8181818181818181,0.4881915375153767,0.4710414772976877,,,,,,,,,,,,,,,,,,,,,0.0551800938460913,0.3425842023091537,,,,,,,,,,
19,240623_101215,FalseCHOICE,9.0,20,2.0,500.0,,,,,,,,,,,21.0,20.0,,,A,,,,,,False,cue1.png,Easy,cue2.png,Hard,Right,Hard,Mid,0.017030099988915,,,,,,,,,,,,,23,21,Female,0.2857142857142857,1.25,0.6,1.0,2.7777777777777777,1.375,3.0,2.7777777777777777,2.25,3.0,1.25,1.5,2.0,0.25,0.5,0.75,0.5298784437545692,1.1178480245508997,,,,,,,,,,,,,,,,,,,0.007797183504224441,-1.0981959358430666,,,,,,,,,,,,
20,240623_101240,FalseCHOICE,9.0,21,2.0,500.0,,,,,,,,,,,22.0,21.0,,,A,,,,,,False,cue1.png,Easy,cue2.png,Hard,Right,Hard,Mid,0.0170061000389978,,,,,,,,,,,,,23,21,Female,0.2857142857142857,1.25,0.6,1.0,2.7777777777777777,1.375,3.0,2.7777777777777777,2.25,3.0,1.25,1.5,2.0,0.25,0.8958333333333333,0.9166666666666666,0.4453207749975263,-0.19413357126980157,,,,,,,,,,,,,,,,,,,0.06359862599103192,1.4993391997588548,0.05137225766114522,0.22532573459430835,3.976201134198298e+43,-0.17348674104701897,,,,,,,,
21,240623_101307,FalseCHOICE,9.0,22,2.0,500.0,,,,,,,,,,,23.0,22.0,,,A,,,,,,False,cue2.png,Hard,cue1.png,Easy,Left,Hard,Mid,0.0164367000106722,,,,,,,,,,,,,23,21,Female,0.2857142857142857,1.25,0.6,1.0,2.7777777777777777,1.375,3.0,2.7777777777777777,2.25,3.0,1.25,1.5,2.0,0.25,0.8958333333333333,0.7916666666666666,0.4530231285856904,-0.07462523689021736,,,,,,,,,,,,,,,,,,,,,0.017927259914563003,-0.8045791767552899,2.083109346582974e+43,-0.1737234265134501,,,,,,,,
22,240623_101331,FalseCHOICE,9.0,23,2.0,500.0,,,,,,,,,,,24.0,23.0,,,A,,,,,,False,cue1.png,Easy,cue2.png,Hard,Right,Hard,Mid,0.0165597000159323,,,,,,,,,,,,,23,21,Female,0.2857142857142857,1.25,0.6,1.0,2.7777777777777777,1.375,3.0,2.7777777777777777,2.25,3.0,1.25,1.5,2.0,0.25,1.0,1.0,0.449032625023392,-0.13654117318258818,,,,,,,,,,,,,,,,,,,0.02581864115173091,-0.2593041913289871,0.0533294963543122,0.2855969224726851,-3.3400754059995724e+42,-0.17402562867903143,,,,,,,,
23,240623_101355,FalseCHOICE,9.0,24,2.0,500.0,,,,,,,,,,,25.0,24.0,,,A,,,,,,False,cue2.png,Hard,cue1.png,Easy,Left,Hard,Mid,0.0162008000770583,,,,,,,,,,,,,23,21,Female,0.2857142857142857,1.25,0.6,1.0,2.7777777777777777,1.375,3.0,2.7777777777777777,2.25,3.0,1.25,1.5,2.0,0.25,0.9090909090909092,0.9090909090909092,0.4328263687493745,-0.3879945337258768,,,,,,,,,,,,,,,,,,,0.03791303700549838,0.3036851647520222,0.042022634803175064,-0.06258645405799769,-2.243417089238378e+43,-0.1742643542878921,,,,,,,,
24,240623_101421,FalseCHOICE,9.0,25,2.0,500.0,,,,,,,,,,,26.0,25.0,,,A,,,,,,False,cue2.png,Hard,cue1.png,Easy,Left,Hard,Mid,0.0135454999981448,,,,,,,,,,,,,23,21,Female,0.2857142857142857,1.25,0.6,1.0,2.7777777777777777,1.375,3.0,2.7777777777777777,2.25,3.0,1.25,1.5,2.0,0.25,1.0,1.0,0.4315315437343088,-0.40808480601632474,,,,,,,,,,,,,,,,,,,0.03434482735035801,0.13758641286738402,0.03764121172898925,-0.19750795045025132,-3.433575529202009e+43,-0.1744131548940395,,,,,,,,
25,240623_101445,FalseCHOICE,9.0,26,2.0,500.0,,,,,,,,,,,27.0,26.0,,,A,,,,,,False,cue1.png,Easy,cue2.png,Hard,Right,Hard,Mid,0.0189557999838143,,,,,,,,,,,,,23,21,Female,0.2857142857142857,1.25,0.6,1.0,2.7777777777777777,1.375,3.0,2.7777777777777777,2.25,3.0,1.25,1.5,2.0,0.25,0.6909090909090909,0.7556818181818181,0.370465806669866,-1.3555698105281362,,,,,,,,,,,,,,,,,,,,,,,-3.50388607046159e+43,-0.17442194553132498,,,,,,,,
26,240623_101510,FalseCHOICE,9.0,27,2.0,500.0,,,,,,,,,,,28.0,27.0,,,A,,,,,,False,cue1.png,Easy,cue2.png,Hard,Right,Hard,Mid,0.0165904999012127,,,,,,,,,,,,,23,21,Female,0.2857142857142857,1.25,0.6,1.0,2.7777777777777777,1.375,3.0,2.7777777777777777,2.25,3.0,1.25,1.5,2.0,0.25,0.1818181818181818,0.4772727272727273,0.3854940000067775,-1.1223950628525035,,,,,,,,,,,,,,,,,,,0.005362487014667539,-1.2115300970100629,0.02197983277350328,-0.6797842904571978,-2.0082834123224025e+43,-0.1742349564930474,,,,,,,,
27,240623_101534,FalseCHOICE,9.0,28,2.0,500.0,,,,,,,,,,,29.0,28.0,,,A,,,,,,False,cue2.png,Hard,cue1.png,Easy,Right,Easy,Mid,0.0157268999610096,,,,,,,,,,,,,23,21,Female,0.2857142857142857,1.25,0.6,1.0,2.7777777777777777,1.375,3.0,2.7777777777777777,2.25,3.0,1.25,1.5,2.0,0.25,0.5,0.75,0.4363333187429816,-0.33358132772446636,,,,,,,,,,,,,,,,,,,0.03409232037471744,0.12583231275848414,0.021576516730143144,-0.6922040004846903,-8.861950362745887e+42,-0.17409466640653426,,,,,,,,
28,240623_101600,FalseCHOICE,9.0,29,2.0,500.0,,,,,,,,,,,30.0,29.0,,,A,,,,,,False,cue1.png,Easy,cue2.png,Hard,Right,Hard,Mid,0.0165791000472381,,,,,,,,,,,,,23,21,Female,0.2857142857142857,1.25,0.6,1.0,2.7777777777777777,1.375,3.0,2.7777777777777777,2.25,3.0,1.25,1.5,2.0,0.25,0.6909090909090909,0.6931818181818181,0.4751984714447254,0.26944339863072947,,,,,,,,,,,,,,,,,,,0.0016191710095632295,-1.3857799804108057,0.014736052138133162,-0.902849195697599,8.374272720023025e+42,-0.1738791690108694,,,,,,,,
29,240623_101626,FalseCHOICE,9.0,30,2.0,500.0,,,,,,,,,,,31.0,30.0,,,A,,,,,,False,cue1.png,Easy,cue2.png,Hard,Left,Easy,Mid,0.0159079000586643,,,,,,,,,,,,,23,21,Female,0.2857142857142857,1.25,0.6,1.0,2.7777777777777777,1.375,3.0,2.7777777777777777,2.25,3.0,1.25,1.5,2.0,0.25,0.7818181818181817,0.7556818181818181,0.4589165333270406,0.01681577219897788,,,,,,,,,,,,,,,,,,,,,0.041320044721443724,-0.08422200569784101,2.4833959924722644e+43,-0.17367338032334548,,,,,,,,
30,240623_101649,FalseCHOICE,9.0,31,2.0,500.0,,,,,,,,,,,32.0,31.0,,,A,,,,,,False,cue2.png,Hard,cue1.png,Easy,Left,Hard,Mid,0.0163884999928995,,,,,,,,,,,,,23,21,Female,0.2857142857142857,1.25,0.6,1.0,2.7777777777777777,1.375,3.0,2.7777777777777777,2.25,3.0,1.25,1.5,2.0,0.25,0.5,0.6875,0.3885660799918696,-1.0747292217694115,,,,,,,,,,,,,,,,,,,0.009248083043013736,-1.0306571346530289,0.023355034812463375,-0.637436333230389,,,,,,,,,,
31,240623_101711,FalseCHOICE,9.0,32,2.0,500.0,,,,,,,,,,,33.0,32.0,,,A,,,,,,False,cue1.png,Easy,cue2.png,Hard,Right,Hard,Mid,0.016780300065875,,,,,,,,,,,,,23,21,Female,0.2857142857142857,1.25,0.6,1.0,2.7777777777777777,1.375,3.0,2.7777777777777777,2.25,3.0,1.25,1.5,2.0,0.25,0.75,0.8333333333333334,0.3161918500045431,-2.1976747706574105,,,,,,,,,,,,,,,,,,,0.04475648715870577,0.6222450698279375,,,,,,,,,,,,
32,240623_101737,FalseCHOICE,9.0,33,2.0,500.0,,,,,,,,,,,34.0,33.0,,,A,,,,,,False,cue2.png,Hard,cue1.png,Easy,Left,Hard,Mid,0.0168498000130057,,,,,,,,,,,,,23,21,Female,0.2857142857142857,1.25,0.6,1.0,2.7777777777777777,1.375,3.0,2.7777777777777777,2.25,3.0,1.25,1.5,2.0,0.25,0.9090909090909092,0.9090909090909092,0.5124231375157251,0.8470146291721957,,,,,,,,,,,,,,,,,,,0.030894937206287887,-0.02300461245077895,0.12278858529457215,2.4245193819532704,1.996698860488504e+43,-0.1737342300605045,,,,,,,,
33,240623_101800,FalseCHOICE,9.0,34,2.0,500.0,,,,,,,,,,,35.0,34.0,,,A,,,,,,False,cue2.png,Hard,cue1.png,Easy,Left,Hard,Mid,0.0168417999520897,,,,,,,,,,,,,23,21,Female,0.2857142857142857,1.25,0.6,1.0,2.7777777777777777,1.375,3.0,2.7777777777777777,2.25,3.0,1.25,1.5,2.0,0.25,0.5,0.6875,0.3767847800006469,-1.2575257556679331,,,,,,,,,,,,,,,,,,,,,0.02203082051335812,-0.6782141745285615,5.617834821550139e+42,-0.17391363161822718,,,,,,,,
34,240623_101824,FalseCHOICE,9.0,35,2.0,500.0,,,,,,,,,,,36.0,35.0,,,A,,,,,,False,cue2.png,Hard,cue1.png,Easy,Left,Hard,Mid,0.0148705999599769,,,,,,,,,,,,,23,21,Female,0.2857142857142857,1.25,0.6,1.0,2.7777777777777777,1.375,3.0,2.7777777777777777,2.25,3.0,1.25,1.5,2.0,0.25,0.7818181818181817,0.8181818181818181,0.4535778812569333,-0.06601779411652463,,,,,,,,,,,,,,,,,,,,,0.05090961580729583,0.21107914617813606,-1.0400236395570478e+43,-0.1741138989630096,,,,,,,,
35,240623_101849,FalseCHOICE,9.0,36,2.0,500.0,,,,,,,,,,,37.0,36.0,,,A,,,,,,False,cue1.png,Easy,cue2.png,Hard,Right,Hard,Mid,0.0165287000127136,,,,,,,,,,,,,23,21,Female,0.2857142857142857,1.25,0.6,1.0,2.7777777777777777,1.375,3.0,2.7777777777777777,2.25,3.0,1.25,1.5,2.0,0.25,0.9090909090909092,0.8465909090909091,0.5060130199883133,0.747556397333093,,,,,,,,,,,,,,,,,,,0.09184171942881601,2.814044058151656,,,-2.3379232125977166e+43,-0.17427616999911869,,,,,,,,
36,240623_101913,FalseCHOICE,9.0,37,2.0,500.0,,,,,,,,,,,38.0,37.0,,,A,,,,,,False,cue2.png,Hard,cue1.png,Easy,Left,Hard,Mid,0.0174913998926058,,,,,,,,,,,,,23,21,Female,0.2857142857142857,1.25,0.6,1.0,2.7777777777777777,1.375,3.0,2.7777777777777777,2.25,3.0,1.25,1.5,2.0,0.25,0.7818181818181817,0.6931818181818181,0.372041785707032,-1.33111720294618,,,,,,,,,,,,,,,,,,,,,,,-2.836091727728312e+43,-0.17433845395604905,,,,,,,,
37,240623_101940,FalseCHOICE,9.0,38,2.0,500.0,,,,,,,,,,,39.0,38.0,,,A,,,,,,False,cue1.png,Easy,cue2.png,Hard,Right,Hard,Mid,0.0158142000436782,,,,,,,,,,,,,23,21,Female,0.2857142857142857,1.25,0.6,1.0,2.7777777777777777,1.375,3.0,2.7777777777777777,2.25,3.0,1.25,1.5,2.0,0.25,1.0,1.0,0.5737827375050983,1.7990591580283992,,,,,,,,,,,,,,,,,,,0.055964406357063096,1.143969287290655,0.05738339294006008,0.41043257160026697,-2.247762300208556e+43,-0.1742648975517169,,,,,,,,
38,240623_102005,FalseCHOICE,9.0,39,2.0,500.0,,,,,,,,,,,40.0,39.0,,,A,,,,,,False,cue1.png,Easy,cue2.png,Hard,Right,Hard,Mid,0.0165397999808192,,,,,,,,,,,,,23,21,Female,0.2857142857142857,1.25,0.6,1.0,2.7777777777777777,1.375,3.0,2.7777777777777777,2.25,3.0,1.25,1.5,2.0,0.25,0.7818181818181817,0.6306818181818181,0.4429869153895057,-0.23034531761950622,,,,,,,,,,,,,,,,,,,0.01612205722671561,-0.7106763479984991,0.02250693978571391,-0.6635525626276446,-1.1177302343061085e+43,-0.1741236142983902,,,,,,,,
39,240623_102031,FalseCHOICE,9.0,40,2.0,500.0,,,,,,,,,,,41.0,40.0,,,A,,,,,,False,cue2.png,Hard,cue1.png,Easy,Right,Easy,Mid,0.0160120000364258,,,,,,,,,,,,,23,21,Female,0.2857142857142857,1.25,0.6,1.0,2.7777777777777777,1.375,3.0,2.7777777777777777,2.25,3.0,1.25,1.5,2.0,0.25,1.0,0.9375,0.5455327333339179,1.360737169032461,,,,,,,,,,,,,,,,,,,,,0.0763892261523667,0.9956980010663583,6.824418957152356e+42,-0.17389854619390746,,,,,,,,
40,240623_102055,FalseCHOICE,9.0,41,2.0,500.0,,,,,,,,,,,42.0,41.0,,,A,,,,,,False,cue2.png,Hard,cue1.png,Easy,Left,Hard,Mid,0.0149256000295281,,,,,,,,,,,,,23,21,Female,0.2857142857142857,1.25,0.6,1.0,2.7777777777777777,1.375,3.0,2.7777777777777777,2.25,3.0,1.25,1.5,2.0,0.25,0.5,0.5625,0.2684812692459672,-2.9379435694699985,,,,,,,,,,,,,,,,,,,0.045518914138593235,0.6577357449848882,0.033647733070756615,-0.32048309054885993,2.038163841655833e+43,-0.17372904586475005,,,,,,,,
41,240623_102122,FalseCHOICE,9.0,42,2.0,500.0,,,,,,,,,,,43.0,42.0,,,A,,,,,,False,cue1.png,Easy,cue2.png,Hard,Left,Easy,Mid,0.0164157999679446,,,,,,,,,,,,,23,21,Female,0.2857142857142857,1.25,0.6,1.0,2.7777777777777777,1.375,3.0,2.7777777777777777,2.25,3.0,1.25,1.5,2.0,0.25,0.6909090909090909,0.6931818181818181,0.5513818846173728,1.451491549420043,,,,,,,,,,,,,,,,,,,0.0061079046995407855,-1.1768311978263175,0.017718231542328773,-0.8110159942670341,2.791533287989636e+43,-0.1736348551868511,,,,,,,,
42,240623_102147,FalseCHOICE,9.0,43,2.0,500.0,,,,,,,,,,,44.0,43.0,,,A,,,,,,False,cue2.png,Hard,cue1.png,Easy,Left,Hard,Mid,0.0162935000844299,,,,,,,,,,,,,23,21,Female,0.2857142857142857,1.25,0.6,1.0,2.7777777777777777,1.375,3.0,2.7777777777777777,2.25,3.0,1.25,1.5,2.0,0.25,0.7818181818181817,0.7556818181818181,0.5047889133449643,0.7285633785921182,,,,,,,,,,,,,,,,,,,0.043861213683267744,0.5805704427074556,0.05657227330623277,0.38545496206653035,2.4177557560270546e+43,-0.17368158705166228,,,,,,,,
43,240623_102213,FalseCHOICE,9.0,44,2.0,500.0,,,,,,,,,,,45.0,44.0,,,A,,,,,,False,cue1.png,Easy,cue2.png,Hard,Right,Hard,Mid,0.0165120000019669,,,,,,,,,,,,,23,21,Female,0.2857142857142857,1.25,0.6,1.0,2.7777777777777777,1.375,3.0,2.7777777777777777,2.25,3.0,1.25,1.5,2.0,0.25,0.9090909090909092,0.8465909090909091,0.4880447533292075,0.4687640002380393,,,,,,,,,,,,,,,,,,,0.03034316951217811,-0.048689180954165696,,,7.248690572119858e+42,-0.1738932417007107,,,,,,,,
44,240623_102237,FalseCHOICE,9.0,45,2.0,500.0,,,,,,,,,,,46.0,45.0,,,A,,,,,,False,cue2.png,Hard,cue1.png,Easy,Right,Easy,Mid,0.0160412999102845,,,,,,,,,,,,,23,21,Female,0.2857142857142857,1.25,0.6,1.0,2.7777777777777777,1.375,3.0,2.7777777777777777,2.25,3.0,1.25,1.5,2.0,0.25,1.0,1.0,0.4626683249880443,0.07502789752061473,,,,,,,,,,,,,,,,,,,0.049618315401306165,0.8485612566613147,,,,,,,,,,,,
45,240623_102302,FalseCHOICE,9.0,46,2.0,500.0,,,,,,,,,,,47.0,46.0,,,A,,,,,,False,cue2.png,Hard,cue1.png,Easy,Right,Easy,Mid,0.0166438999585807,,,,,,,,,,,,,23,21,Female,0.2857142857142857,1.25,0.6,1.0,2.7777777777777777,1.375,3.0,2.7777777777777777,2.25,3.0,1.25,1.5,2.0,0.25,0.6113636363636364,0.6647727272727273,0.4292471333329255,-0.4435293073604634,,,,,,,,,,,,,,,,,,,0.009285646109817483,-1.0289085887109277,0.1822907877169097,4.2568295819785,,,,,,,,,,
46,240623_102332,FalseCHOICE,9.0,47,2.0,500.0,,,,,,,,,,,49.0,47.0,,,A,,,,,,False,cue1.png,Easy,cue2.png,Hard,Right,Hard,Mid,0.017058299970813,,,,,,,,,,,,,23,21,Female,0.2857142857142857,1.25,0.6,1.0,2.7777777777777777,1.375,3.0,2.7777777777777777,2.25,3.0,1.25,1.5,2.0,0.25,0.1666666666666666,0.6041666666666667,0.4727313933428377,0.2311646580657667,,,,,,,,,,,,,,,,,,,0.0596753071759452,1.3167102565596682,0.04383813023378974,-0.006680106726463356,-2.2037420363405284e+43,-0.17425939387949446,,,,,,,,
47,240623_102358,FalseCHOICE,9.0,48,2.0,500.0,,,,,,,,,,,50.0,48.0,,,A,,,,,,False,cue1.png,Easy,cue2.png,Hard,Right,Hard,Mid,0.0163730001077055,,,,,,,,,,,,,23,21,Female,0.2857142857142857,1.25,0.6,1.0,2.7777777777777777,1.375,3.0,2.7777777777777777,2.25,3.0,1.25,1.5,2.0,0.25,1.0,1.0,0.4910402999958023,0.515242364102193,,,,,,,,,,,,,,,,,,,0.022186996104616403,-0.42835583568647556,0.04341550166192034,-0.019694526555193725,4.546701637105232e+42,-0.17392702355511205,,,,,,,,
48,240623_102421,FalseCHOICE,9.0,49,2.0,500.0,,,,,,,,,,,51.0,49.0,,,A,,,,,,False,cue2.png,Hard,cue1.png,Easy,Right,Easy,Mid,0.0139554999768733,,,,,,,,,,,,,23,21,Female,0.2857142857142857,1.25,0.6,1.0,2.7777777777777777,1.375,3.0,2.7777777777777777,2.25,3.0,1.25,1.5,2.0,0.25,0.7818181818181817,0.8181818181818181,0.416752949997317,-0.6373868111455685,,,,,,,,,,,,,,,,,,,0.01795372855262448,-0.6254127703222108,0.015472770790713273,-0.8801626892034358,,,,,,,,,,
49,240623_102445,FalseCHOICE,9.0,50,2.0,500.0,,,,,,,,,,,52.0,50.0,,,A,,,,,,False,cue1.png,Easy,cue2.png,Hard,Right,Hard,Mid,0.0171363999834284,,,,,,,,,,,,,23,21,Female,0.2857142857142857,1.25,0.6,1.0,2.7777777777777777,1.375,3.0,2.7777777777777777,2.25,3.0,1.25,1.5,2.0,0.25,0.6113636363636364,0.7272727272727273,0.3856886562280124,-1.1193748118980222,,,,,,,,,,,,,,,,,,,,,,,-1.2317943971508274e+43,-0.17413787527071212,,,,,,,,
0,240623_093559,OFFLINERATING,9.0,1,1.0,,,,,,,,,,,,,,,,,T0,cue1.png,Easy,36.0,1.5186681000050155,,,,,,,,,,,,,,,,,,,,,,23,21,Female,0.2857142857142857,1.25,0.6,1.0,2.7777777777777777,1.375,3.0,2.7777777777777777,2.25,3.0,1.25,1.5,2.0,0.25,,,,,,,,,,,,,,,,,,,,,,,,,,,,,-0.2567480829815484,0.00736653577717649,0.48899680623835606,0.020875426722403587,1.4139476316956914,,,
1,240623_093607,OFFLINERATING,9.0,2,3.0,,,,,,,,,,,,,,,,,T0,cue2.png,Hard,53.0,1.1516886999597773,,,,,,,,,,,,,,,,,,,,,,23,21,Female,0.2857142857142857,1.25,0.6,1.0,2.7777777777777777,1.375,3.0,2.7777777777777777,2.25,3.0,1.25,1.5,2.0,0.25,,,,,,,,,,,,,,,,,,,,,,,,,,,,,0.6161953991557162,,,,,1563762.053147527,1.4142122282055891,
2,240623_095830,OFFLINERATING,9.0,3,1.0,,,,,,,,,,,,,,,,,T1,cue1.png,Easy,81.0,1.2895832000067458,,,,,,,,,,,,,,,,,,,,,,23,21,Female,0.2857142857142857,1.25,0.6,1.0,2.7777777777777777,1.375,3.0,2.7777777777777777,2.25,3.0,1.25,1.5,2.0,0.25,,,,,,,,,,,,,,,,,,,,,,,,,,,,,2.053984663852387,,,,,63315.61215011701,-0.7054237956618956,
3,240623_095838,OFFLINERATING,9.0,4,3.0,,,,,,,,,,,,,,,,,T1,cue2.png,Hard,29.0,1.4354253000346944,,,,,,,,,,,,,,,,,,,,,,23,21,Female,0.2857142857142857,1.25,0.6,1.0,2.7777777777777777,1.375,3.0,2.7777777777777777,2.25,3.0,1.25,1.5,2.0,0.25,,,,,,,,,,,,,,,,,,,,,,,,,,,,,-0.6161953991557162,0.00671063557291616,-1.3936988175885228,0.017525392562317044,-0.6832236344461796,,,
4,240623_100307,OFFLINERATING,9.0,5,1.0,,,,,,,,,,,,,,,,,T2,cue1.png,Easy,53.0,1.0851483999285847,,,,,,,,,,,,,,,,,,,,,,23,21,Female,0.2857142857142857,1.25,0.6,1.0,2.7777777777777777,1.375,3.0,2.7777777777777777,2.25,3.0,1.25,1.5,2.0,0.25,,,,,,,,,,,,,,,,,,,,,,,,,,,,,0.6161953991557162,,,,,,,
5,240623_100314,OFFLINERATING,9.0,6,3.0,,,,,,,,,,,,,,,,,T2,cue2.png,Hard,38.0,0.6346771999960765,,,,,,,,,,,,,,,,,,,,,,23,21,Female,0.2857142857142857,1.25,0.6,1.0,2.7777777777777777,1.375,3.0,2.7777777777777777,2.25,3.0,1.25,1.5,2.0,0.25,,,,,,,,,,,,,,,,,,,,,,,,,,,,,-0.15404884978892905,0.007511360636539946,0.9047020113501691,,,60933.85538730676,-0.7087884325436937,
6,240623_102457,OFFLINERATING,9.0,7,1.0,,,,,,,,,,,,,,,,,T3,cue1.png,Easy,19.0,1.0346239000791684,,,,,,,,,,,,,,,,,,,,,,23,21,Female,0.2857142857142857,1.25,0.6,1.0,2.7777777777777777,1.375,3.0,2.7777777777777777,2.25,3.0,1.25,1.5,2.0,0.25,,,,,,,,,,,,,,,,,,,,,,,,,,,,,-1.1296915651188129,,,0.017449515193321618,-0.7307239972495074,,,
7,240623_102504,OFFLINERATING,9.0,8,3.0,,,,,,,,,,,,,,,,,T3,cue2.png,Hard,19.0,0.9014798999996856,,,,,,,,,,,,,,,,,,,,,,23,21,Female,0.2857142857142857,1.25,0.6,1.0,2.7777777777777777,1.375,3.0,2.7777777777777777,2.25,3.0,1.25,1.5,2.0,0.25,,,,,,,,,,,,,,,,,,,,,,,,,,,,,-1.1296915651188129,,,,,,,
0,240623_100331,LEARNINGCHECK,9.0,1,,,,,,,,,,,,1.0,1.0,1.0,,,A,,,,,,,,,,,,,,,cue1.png,Easy,Left,Left,Easy,0.0162141999462619,1.0,,,,,,23,21,Female,0.2857142857142857,1.25,0.6,1.0,2.7777777777777777,1.375,3.0,2.7777777777777777,2.25,3.0,1.25,1.5,2.0,0.25,,,,,,,,,,,,,,,,,,,,,,,,,,,,,,,,,,,,
1,240623_100336,LEARNINGCHECK,9.0,2,,,,,,,,,,,,2.0,2.0,2.0,,,A,,,,,,,,,,,,,,,cue2.png,Hard,Right,Right,Hard,0.0161650999216362,1.0,,,,,,23,21,Female,0.2857142857142857,1.25,0.6,1.0,2.7777777777777777,1.375,3.0,2.7777777777777777,2.25,3.0,1.25,1.5,2.0,0.25,,,,,,,,,,,,,,,,,,,,,,,,,,,,,,,,,,,,
2,240623_102521,LEARNINGCHECK,9.0,1,,,,,,,,,,,,1.0,1.0,1.0,,,A,,,,,,,,,,,,,,,cue1.png,Easy,Middle,Middle,Mid,0.0147704000119119,1.0,,,,,,23,21,Female,0.2857142857142857,1.25,0.6,1.0,2.7777777777777777,1.375,3.0,2.7777777777777777,2.25,3.0,1.25,1.5,2.0,0.25,,,,,,,,,,,,,,,,,,,,,,,,,,,,,,,,,,,,
3,240623_102526,LEARNINGCHECK,9.0,2,,,,,,,,,,,,2.0,2.0,2.0,,,A,,,,,,,,,,,,,,,cue2.png,Hard,Middle,Middle,Mid,0.0137009000172838,1.0,,,,,,23,21,Female,0.2857142857142857,1.25,0.6,1.0,2.7777777777777777,1.375,3.0,2.7777777777777777,2.25,3.0,1.25,1.5,2.0,0.25,,,,,,,,,,,,,,,,,,,,,,,,,,,,,,,,,,,,
0,240623_102538,DEMANDRATING,9.0,-1,,,,,,,,,,,,,,,,,,,,,,,,,,,,,,,,,,,,,,,1.0,MentalDemand,1.0,23.0,3.067036799970083,23,21,Female,0.2857142857142857,1.25,0.6,1.0,2.7777777777777777,1.375,3.0,2.7777777777777777,2.25,3.0,1.25,1.5,2.0,0.25,,,,,,,,,,,,,,,,,,,,,,,,,,,,,,,,,,,,-1.1963421280149031
1,240623_102542,DEMANDRATING,9.0,-1,,,,,,,,,,,,,,,,,,,,,,,,,,,,,,,,,,,,,,,2.0,Effort,1.0,20.0,3.2367380999494344,23,21,Female,0.2857142857142857,1.25,0.6,1.0,2.7777777777777777,1.375,3.0,2.7777777777777777,2.25,3.0,1.25,1.5,2.0,0.25,,,,,,,,,,,,,,,,,,,,,,,,,,,,,,,,,,,,-1.2939289481248801
2,240623_102546,DEMANDRATING,9.0,-1,,,,,,,,,,,,,,,,,,,,,,,,,,,,,,,,,,,,,,,3.0,Frustration,1.0,21.0,2.1077853000024334,23,21,Female,0.2857142857142857,1.25,0.6,1.0,2.7777777777777777,1.375,3.0,2.7777777777777777,2.25,3.0,1.25,1.5,2.0,0.25,,,,,,,,,,,,,,,,,,,,,,,,,,,,,,,,,,,,-1.261400008088221
3,240623_102550,DEMANDRATING,9.0,-1,,,,,,,,,,,,,,,,,,,,,,,,,,,,,,,,,,,,,,,4.0,MentalDemand,2.0,56.0,2.1199260000139475,23,21,Female,0.2857142857142857,1.25,0.6,1.0,2.7777777777777777,1.375,3.0,2.7777777777777777,2.25,3.0,1.25,1.5,2.0,0.25,,,,,,,,,,,,,,,,,,,,,,,,,,,,,,,,,,,,-0.12288710680515624
4,240623_102553,DEMANDRATING,9.0,-1,,,,,,,,,,,,,,,,,,,,,,,,,,,,,,,,,,,,,,,5.0,Effort,2.0,57.0,1.3967031999491155,23,21,Female,0.2857142857142857,1.25,0.6,1.0,2.7777777777777777,1.375,3.0,2.7777777777777777,2.25,3.0,1.25,1.5,2.0,0.25,,,,,,,,,,,,,,,,,,,,,,,,,,,,,,,,,,,,-0.09035816676849724
5,240623_102556,DEMANDRATING,9.0,-1,,,,,,,,,,,,,,,,,,,,,,,,,,,,,,,,,,,,,,,6.0,Frustration,2.0,75.0,1.973206499940716,23,21,Female,0.2857142857142857,1.25,0.6,1.0,2.7777777777777777,1.375,3.0,2.7777777777777777,2.25,3.0,1.25,1.5,2.0,0.25,,,,,,,,,,,,,,,,,,,,,,,,,,,,,,,,,,,,0.4951627538913647
6,240623_102559,DEMANDRATING,9.0,-1,,,,,,,,,,,,,,,,,,,,,,,,,,,,,,,,,,,,,,,7.0,MentalDemand,3.0,94.0,1.4659823999973014,23,21,Female,0.2857142857142857,1.25,0.6,1.0,2.7777777777777777,1.375,3.0,2.7777777777777777,2.25,3.0,1.25,1.5,2.0,0.25,,,,,,,,,,,,,,,,,,,,,,,,,,,,,,,,,,,,1.1132126145878856
7,240623_102601,DEMANDRATING,9.0,-1,,,,,,,,,,,,,,,,,,,,,,,,,,,,,,,,,,,,,,,8.0,Effort,3.0,93.0,0.5392482999013737,23,21,Female,0.2857142857142857,1.25,0.6,1.0,2.7777777777777777,1.375,3.0,2.7777777777777777,2.25,3.0,1.25,1.5,2.0,0.25,,,,,,,,,,,,,,,,,,,,,,,,,,,,,,,,,,,,1.0806836745512267
8,240623_102604,DEMANDRATING,9.0,-1,,,,,,,,,,,,,,,,,,,,,,,,,,,,,,,,,,,,,,,9.0,Frustration,3.0,99.0,1.0143979000858965,23,21,Female,0.2857142857142857,1.25,0.6,1.0,2.7777777777777777,1.375,3.0,2.7777777777777777,2.25,3.0,1.25,1.5,2.0,0.25,,,,,,,,,,,,,,,,,,,,,,,,,,,,,,,,,,,,1.2758573147711807
