,END,Phase,Block,TrialN,NbackLevel,ISI,Letter_Resp,Letter_RT,Letter_Accuracy,Trial_A_measure,Trial_ACC,Trial_RT,TrialCountCali,CaliEnd_A_measure,ISI_calibrated,TrialIndex,TrialNumber_total,TrialNumber_valid,CueLearning,TrialDemandLearning,CueMapping,OfflineRatingTimePoint,CueFigure,TrialDemand,OfflineRating,OfflineRatingRT,PhaseType,CueLeft,CueDemandLeft,CueRight,CueDemandRight,Choice,ChoiceDemand,TaskDemand,ChoiceRT,CueCheck,CueDemandCheck,CorrectAnswer,Answer,AnswerDemand,AnswerRT,AnswerACC,DemandRatingQuesIndex,QuesTLX,DemandLevel,DemandRating,DemandRatingRT,PID,Age,Gender,BAI_bis,BAI_bas_d,BAI_bas_rr,BAI_bas_fs,NFC,BFI_ext,BFI_agr,BFI_con,BFI_neu,BFI_open,UPPS_lps,UPPS_lpm,UPPS_pu,UPPS_ss,Task_A_measure,Task_ACC,Task_RT,Task_RT_z,Task_RT_log,Task_RT_log_z,cue_i_on_zyg_values,cue_i_on_zyg_zvalues,cue_e_on_zyg_values,cue_e_on_zyg_zvalues,cue_i_on_cor_values,cue_i_on_cor_zvalues,cue_e_on_cor_values,cue_e_on_cor_zvalues,cue_i_on_scr_values,cue_i_on_scr_zvalues,cue_e_on_scr_values,cue_e_on_scr_zvalues,cue_e_true_zyg_values,cue_e_true_zyg_zvalues,cue_e_true_cor_values,cue_e_true_cor_zvalues,cue_e_true_scr_values,cue_e_true_scr_zvalues,cue_e_false_zyg_values,cue_e_false_zyg_zvalues,cue_e_false_cor_values,cue_e_false_cor_zvalues,cue_e_false_scr_values,cue_e_false_scr_zvalues,OfflineRating_z,cue_i_off_zyg_values,cue_i_off_zyg_zvalues,cue_i_off_cor_values,cue_i_off_cor_zvalues,cue_i_off_scr_values,cue_i_off_scr_zvalues,DemandRating_z
0,240624_091620,PRACTICE,0.0,1,1.0,1750.0,,,,,,,,,,28.0,1.0,1.0,cue2.png,Easy,B,,,,,,,,,,,,,,,,,,,,,,,,,,,24,25,Male,0.8571428571428571,0.75,0.4,0.75,1.8333333333333333,1.5,2.4444444444444446,1.5555555555555556,1.75,2.0,1.75,1.75,2.25,1.5,,,,,,,,,,,,,,,,,,,,,,,,,,,,,,,,,,,,,,
0,240624_091939,LEARNING,1.0,1,1.0,1750.0,,,,,,,,,,1.0,1.0,1.0,cue2.png,Easy,B,,,,,,,,,,,,,,,,,,,,,,,,,,,24,25,Male,0.8571428571428571,0.75,0.4,0.75,1.8333333333333333,1.5,2.4444444444444446,1.5555555555555556,1.75,2.0,1.75,1.75,2.25,1.5,1.0,1.0,0.8060474375088234,4.482333279256823,-0.21561268273741982,3.705259652896757,-4.712505962140793e-05,0.04589813554039182,5.4606639280674416e-05,0.41141386907755867,0.00022415836781665335,0.50573144824319,0.00019459176715038579,-0.01647189857883255,,,,,,,,,,,,,,,,,,,,,,,,
1,240624_091959,LEARNING,1.0,2,3.0,1750.0,,,,,,,,,,2.0,2.0,2.0,cue1.png,Hard,B,,,,,,,,,,,,,,,,,,,,,,,,,,,24,25,Male,0.8571428571428571,0.75,0.4,0.75,1.8333333333333333,1.5,2.4444444444444446,1.5555555555555556,1.75,2.0,1.75,1.75,2.25,1.5,0.1666666666666666,0.6666666666666667,0.5269668874680065,0.9777790450282041,-0.6406175645438156,1.0747913686749866,3.341840283143391e-05,0.14479890774971635,4.446646308929516e-05,0.3463077660390488,0.00010563544205390669,0.047785289771192604,0.0005909542739053935,2.358178584801935,1.4519999999999997,-0.12723699182479864,1.445,-0.05339465755015481,,,,,,,,,,,,,,,,,,,,
2,240624_092018,LEARNING,1.0,3,1.0,1750.0,,,,,,,,,,3.0,3.0,3.0,cue2.png,Easy,B,,,,,,,,,,,,,,,,,,,,,,,,,,,24,25,Male,0.8571428571428571,0.75,0.4,0.75,1.8333333333333333,1.5,2.4444444444444446,1.5555555555555556,1.75,2.0,1.75,1.75,2.25,1.5,1.0,1.0,0.4614131499838549,0.1545879332291391,-0.773461433466866,0.2525853213699092,-0.0005237739378202541,-0.539387630566015,6.5475828322910865e-06,0.10284547519480763,,,0.00020292496543497214,0.03345319019055512,1.461,-0.11081931546030792,1.129,-0.6168618414931637,,,,,,,,,,,,,,,,,,,,
3,240624_092038,LEARNING,1.0,4,3.0,1750.0,,,,,,,,,,4.0,4.0,4.0,cue1.png,Hard,B,,,,,,,,,,,,,,,,,,,,,,,,,,,24,25,Male,0.8571428571428571,0.75,0.4,0.75,1.8333333333333333,1.5,2.4444444444444446,1.5555555555555556,1.75,2.0,1.75,1.75,2.25,1.5,0.1666666666666666,0.6666666666666667,0.542307725030696,1.1704216252046946,-0.6119216802970707,1.2523978306947496,5.737518316265141e-05,0.17421587099231123,0.00016290139834309594,1.1067321366282528,0.00032232849793729663,0.8850389423514328,0.00012158718610349615,-0.4538502093865226,1.1380000000000001,-0.7000314783192303,1.5939999999999999,0.2122908184229724,,,,,,,,,,,,,,,,,,,,
4,240624_092057,LEARNING,1.0,5,3.0,1750.0,,,,,,,,,,5.0,5.0,5.0,cue1.png,Hard,B,,,,,,,,,,,,,,,,,,,,,,,,,,,24,25,Male,0.8571428571428571,0.75,0.4,0.75,1.8333333333333333,1.5,2.4444444444444446,1.5555555555555556,1.75,2.0,1.75,1.75,2.25,1.5,0.75,0.8333333333333334,0.4577408375043887,0.1084728662800393,-0.781452112002749,0.20312888602565166,4.9334869474998346e-05,0.16434302460233047,1.9732457726944624e-05,0.1875003970857077,,,,,1.584,0.11355559485439011,1.5390000000000001,0.11421899843289225,,,,,,,,,,,,,,,,,,,,
5,240624_092117,LEARNING,1.0,6,1.0,1750.0,,,,,,,,,,6.0,6.0,6.0,cue2.png,Easy,B,,,,,,,,,,,,,,,,,,,,,,,,,,,24,25,Male,0.8571428571428571,0.75,0.4,0.75,1.8333333333333333,1.5,2.4444444444444446,1.5555555555555556,1.75,2.0,1.75,1.75,2.25,1.5,1.0,1.0,0.4816958374867681,0.40928779805122795,-0.7304424066812677,0.5188415231731429,4.971212351070897e-05,0.1648062616462148,-8.064510072031171e-05,-0.4569846236555552,0.00013057535599337016,0.144147556460945,4.787229621019875e-05,-0.8954840570240734,1.5869999999999997,0.11902815364255288,,,,,,,,,,,,,,,,,,,,,,
6,240624_092136,LEARNING,1.0,7,3.0,1750.0,,,,,,,,,,7.0,7.0,7.0,cue1.png,Hard,B,,,,,,,,,,,,,,,,,,,,,,,,,,,24,25,Male,0.8571428571428571,0.75,0.4,0.75,1.8333333333333333,1.5,2.4444444444444446,1.5555555555555556,1.75,2.0,1.75,1.75,2.25,1.5,0.75,0.8333333333333334,0.4409122999932151,-0.10285150721009859,-0.8189092895403387,-0.028703551075571036,-0.0003079220633683071,-0.2743392155115105,8.594111215944967e-05,0.6126002569075168,5.523360990838597e-05,-0.14695615170481943,8.103350587376594e-06,-1.1337440950885465,,,2.224,1.3356589383093513,,,,,,,,,,,,,,,,,,,,
7,240624_092155,LEARNING,1.0,8,3.0,1750.0,,,,,,,,,,8.0,8.0,8.0,cue1.png,Hard,B,,,,,,,,,,,,,,,,,,,,,,,,,,,24,25,Male,0.8571428571428571,0.75,0.4,0.75,1.8333333333333333,1.5,2.4444444444444446,1.5555555555555556,1.75,2.0,1.75,1.75,2.25,1.5,0.75,0.8333333333333334,0.4904181625170167,0.5188184017160313,-0.7124968589182709,0.6299112926141766,-4.788836195366089e-05,0.044960862820918206,-7.28687658291937e-05,-0.4070558205334248,,,,,1.177,-0.6288882140731067,2.02,0.9719016423461427,,,,,,,,,,,,,,,,,,,,
8,240624_092214,LEARNING,1.0,9,1.0,1750.0,,,,,,,,,,9.0,9.0,9.0,cue2.png,Easy,B,,,,,,,,,,,,,,,,,,,,,,,,,,,24,25,Male,0.8571428571428571,0.75,0.4,0.75,1.8333333333333333,1.5,2.4444444444444446,1.5555555555555556,1.75,2.0,1.75,1.75,2.25,1.5,1.0,1.0,0.434893137513427,-0.1784371449478991,-0.8326549389617054,-0.1137790323153545,-0.0016229279468857926,-1.889058689681516,-5.437476628377845e-05,-0.2883130869484195,,,,,,,0.3560000000000001,-1.9952166933537514,,,,,,,,,,,,,,,,,,,,
9,240624_092233,LEARNING,1.0,10,1.0,1750.0,,,,,,,,,,10.0,10.0,10.0,cue2.png,Easy,B,,,,,,,,,,,,,,,,,,,,,,,,,,,24,25,Male,0.8571428571428571,0.75,0.4,0.75,1.8333333333333333,1.5,2.4444444444444446,1.5555555555555556,1.75,2.0,1.75,1.75,2.25,1.5,1.0,1.0,0.4183663375442847,-0.38597244900845123,-0.8713978246682015,-0.35356905933107075,2.6527164937715543e-06,0.10702116584886125,-5.875459669438168e-06,0.023081980961147944,,,,,1.672,0.2740839859738486,0.6729999999999998,-1.4299663854109235,,,,,,,,,,,,,,,,,,,,
10,240624_092252,LEARNING,1.0,11,3.0,1750.0,,,,,,,,,,11.0,11.0,11.0,cue1.png,Hard,B,,,,,,,,,,,,,,,,,,,,,,,,,,,24,25,Male,0.8571428571428571,0.75,0.4,0.75,1.8333333333333333,1.5,2.4444444444444446,1.5555555555555556,1.75,2.0,1.75,1.75,2.25,1.5,0.75,0.8333333333333334,0.4647675874875858,0.19671128491178408,-0.7662178101970153,0.2974180329218507,0.001015402762217948,1.3505952378698454,-0.00020517350747254305,-1.2565327900991468,-3.832005038095863e-06,-0.37517251818798103,,,,,,,,,,,,,,,,,,,,,,,,,,
11,240624_092311,LEARNING,1.0,12,1.0,1750.0,,,,,,,,,,12.0,12.0,12.0,cue2.png,Easy,B,,,,,,,,,,,,,,,,,,,,,,,,,,,24,25,Male,0.8571428571428571,0.75,0.4,0.75,1.8333333333333333,1.5,2.4444444444444446,1.5555555555555556,1.75,2.0,1.75,1.75,2.25,1.5,1.0,1.0,0.4009761000343133,-0.6043503706905542,-0.9138534543637098,-0.6163382466543632,0.0003752144075094121,0.5644963949356702,-7.587124799020512e-05,-0.4263335834890908,0.00044720931103494135,1.3675505598878022,,,,,1.2730000000000001,-0.3600919855191342,,,,,,,,,,,,,,,,,,,,
12,240624_092331,LEARNING,1.0,13,1.0,1750.0,,,,,,,,,,13.0,13.0,13.0,cue2.png,Easy,B,,,,,,,,,,,,,,,,,,,,,,,,,,,24,25,Male,0.8571428571428571,0.75,0.4,0.75,1.8333333333333333,1.5,2.4444444444444446,1.5555555555555556,1.75,2.0,1.75,1.75,2.25,1.5,1.0,1.0,0.5750932124792598,1.5821254105179636,-0.5532231426633932,1.6156986966032105,,,,,0.0001878477013392151,0.3654351290467963,0.00010392202101427821,-0.559684116739523,,,,,,,,,,,,,,,,,,,,,,,,
13,240624_092350,LEARNING,1.0,14,1.0,1750.0,,,,,,,,,,14.0,14.0,14.0,cue2.png,Easy,B,,,,,,,,,,,,,,,,,,,,,,,,,,,24,25,Male,0.8571428571428571,0.75,0.4,0.75,1.8333333333333333,1.5,2.4444444444444446,1.5555555555555556,1.75,2.0,1.75,1.75,2.25,1.5,1.0,1.0,0.4312402000068687,-0.22430891065894254,-0.8410900355165294,-0.16598608901434167,0.00011391133089100206,0.2436376278648585,-0.0001750357489072804,-1.0630300365505583,0.00018665586476296217,0.36083013825612015,8.78045651737003e-05,-0.6562455312285915,,,,,,,,,,,,,,,,,,,,,,,,
14,240624_092410,LEARNING,1.0,15,3.0,1750.0,,,,,,,,,,15.0,15.0,15.0,cue1.png,Hard,B,,,,,,,,,,,,,,,,,,,,,,,,,,,24,25,Male,0.8571428571428571,0.75,0.4,0.75,1.8333333333333333,1.5,2.4444444444444446,1.5555555555555556,1.75,2.0,1.75,1.75,2.25,1.5,0.75,0.8333333333333334,0.53737945004832,1.1085348081033135,-0.6210508231144805,1.1958951370285944,0.00033889453265552967,0.519898564643756,-0.00019185367175201737,-1.1710113375612876,,,-0.00010377479757665755,-1.804018134862144,,,2.005,0.9451547823488478,,,,,,,,,,,,,,,,,,,,
15,240624_092430,LEARNING,1.0,16,1.0,1750.0,,,,,,,,,,16.0,16.0,16.0,cue2.png,Easy,B,,,,,,,,,,,,,,,,,,,,,,,,,,,24,25,Male,0.8571428571428571,0.75,0.4,0.75,1.8333333333333333,1.5,2.4444444444444446,1.5555555555555556,1.75,2.0,1.75,1.75,2.25,1.5,0.75,0.8333333333333334,0.5545954499393702,1.3247247407440335,-0.589516350054507,1.3910703804077817,,,,,,,0.00018357462750790386,-0.08247676920011915,,,,,,,,,,,,,,,,,,,,,,,,
16,240624_092449,LEARNING,1.0,17,1.0,1750.0,,,,,,,,,,17.0,17.0,17.0,cue2.png,Easy,B,,,,,,,,,,,,,,,,,,,,,,,,,,,24,25,Male,0.8571428571428571,0.75,0.4,0.75,1.8333333333333333,1.5,2.4444444444444446,1.5555555555555556,1.75,2.0,1.75,1.75,2.25,1.5,1.0,1.0,0.4635465124738402,0.1813776344330712,-0.7688485484741334,0.2811356938281558,,,0.00013031339329570108,0.897497309304549,6.958577705981368e-05,-0.09150257788821575,0.00012196386622984881,-0.4515934781647773,,,,,,,,,,,,,,,,,,,,,,,,
17,240624_092507,LEARNING,1.0,18,3.0,1750.0,,,,,,,,,,18.0,18.0,18.0,cue1.png,Hard,B,,,,,,,,,,,,,,,,,,,,,,,,,,,24,25,Male,0.8571428571428571,0.75,0.4,0.75,1.8333333333333333,1.5,2.4444444444444446,1.5555555555555556,1.75,2.0,1.75,1.75,2.25,1.5,0.75,0.8333333333333334,0.3641162999847438,-1.0672173398062668,-1.010281956923801,-1.2131599033873912,,,1.9780791048520582e-05,0.18781072642864288,,,0.0001041505049397067,-0.5583152449246647,,,,,,,,,,,,,,,,,,,,,,,,
18,240624_092527,LEARNING,1.0,19,3.0,1750.0,,,,,,,,,,19.0,19.0,19.0,cue1.png,Hard,B,,,,,,,,,,,,,,,,,,,,,,,,,,,24,25,Male,0.8571428571428571,0.75,0.4,0.75,1.8333333333333333,1.5,2.4444444444444446,1.5555555555555556,1.75,2.0,1.75,1.75,2.25,1.5,1.0,1.0,0.5335265875037294,1.0601524835644982,-0.628246373486357,1.1513599614318026,-0.0009473871828835278,-1.0595499848897505,-2.4298588928482225e-05,-0.09520572224965393,-0.0005027066263154729,-2.3027128223352378,0.00022777417635564496,0.1823274901527345,0.925,-1.0885831522788294,,,,,,,,,,,,,,,,,,,,,,
19,240624_092545,LEARNING,1.0,20,3.0,1750.0,,,,,,,,,,20.0,20.0,20.0,cue1.png,Hard,B,,,,,,,,,,,,,,,,,,,,,,,,,,,24,25,Male,0.8571428571428571,0.75,0.4,0.75,1.8333333333333333,1.5,2.4444444444444446,1.5555555555555556,1.75,2.0,1.75,1.75,2.25,1.5,1.0,1.0,0.3172025999519974,-1.6563361661416984,-1.1482145926850567,-2.0668616824986645,-0.0010578054922313162,-1.195134621159122,0.0002015967700184861,1.3551799749955185,-4.696008103160761e-05,-0.5418097876986268,0.0002724454104591919,0.4499576666940552,0.9059999999999999,-1.1232426912705311,,,,,,,,,,,,,,,,,,,,,,
20,240624_092604,LEARNING,1.0,21,1.0,1750.0,,,,,,,,,,21.0,21.0,21.0,cue2.png,Easy,B,,,,,,,,,,,,,,,,,,,,,,,,,,,24,25,Male,0.8571428571428571,0.75,0.4,0.75,1.8333333333333333,1.5,2.4444444444444446,1.5555555555555556,1.75,2.0,1.75,1.75,2.25,1.5,0.75,0.8333333333333334,0.4130764749716036,-0.45239990256931634,-0.8841225337400768,-0.43232566913106024,-9.675246023412541e-05,-0.015040245972732298,-0.00018261045138306432,-1.1116642368412502,0.00013713817362241611,0.1695048204892562,0.00024050786529194925,0.2586163925400269,1.13,-0.7146249684209998,2.228,1.3427914343086298,,,,,,,,,,,,,,,,,,,,
21,240624_092623,LEARNING,1.0,22,3.0,1750.0,,,,,,,,,,22.0,22.0,22.0,cue1.png,Hard,B,,,,,,,,,,,,,,,,,,,,,,,,,,,24,25,Male,0.8571428571428571,0.75,0.4,0.75,1.8333333333333333,1.5,2.4444444444444446,1.5555555555555556,1.75,2.0,1.75,1.75,2.25,1.5,0.1666666666666666,0.6666666666666667,0.3880401499336585,-0.7667935746056584,-0.9466464655020078,-0.8193029170289474,,,-9.203960421074386e-05,-0.5301442714091541,0.0002485633451800675,0.6000268392761744,4.942483608867893e-05,-0.8861826233363012,1.8300000000000003,0.5623054154837865,0.7800000000000002,-1.2391721174302204,,,,,,,,,,,,,,,,,,,,
22,240624_092642,LEARNING,1.0,23,3.0,1750.0,,,,,,,,,,23.0,23.0,23.0,cue1.png,Hard,B,,,,,,,,,,,,,,,,,,,,,,,,,,,24,25,Male,0.8571428571428571,0.75,0.4,0.75,1.8333333333333333,1.5,2.4444444444444446,1.5555555555555556,1.75,2.0,1.75,1.75,2.25,1.5,0.75,0.8333333333333334,0.4336804249614943,-0.19366578380559252,-0.8354473641340802,-0.13106209461989624,0.0002489789667199805,0.40948961730217714,-0.0003231333416703862,-2.0139067227354897,0.00023496023417012577,0.5474674513756357,,,1.8950000000000002,0.6808775225606595,1.873,0.7097824143726544,,,,,,,,,,,,,,,,,,,,
23,240624_092701,LEARNING,1.0,24,3.0,1750.0,,,,,,,,,,24.0,24.0,24.0,cue1.png,Hard,B,,,,,,,,,,,,,,,,,,,,,,,,,,,24,25,Male,0.8571428571428571,0.75,0.4,0.75,1.8333333333333333,1.5,2.4444444444444446,1.5555555555555556,1.75,2.0,1.75,1.75,2.25,1.5,0.75,0.8333333333333334,0.4317476249707397,-0.2179369212622347,-0.8399140629068088,-0.15870768167032293,,,,,-0.00022549135750910563,-1.2316148334636194,0.0001521177070157322,-0.2709385691417001,1.025,-0.9061645260067175,1.479,0.007231558443713277,,,,,,,,,,,,,,,,,,,,
24,240624_092719,LEARNING,1.0,25,1.0,1750.0,,,,,,,,,,25.0,25.0,25.0,cue2.png,Easy,B,,,,,,,,,,,,,,,,,,,,,,,,,,,24,25,Male,0.8571428571428571,0.75,0.4,0.75,1.8333333333333333,1.5,2.4444444444444446,1.5555555555555556,1.75,2.0,1.75,1.75,2.25,1.5,0.1666666666666666,0.6666666666666667,0.3800821000477299,-0.8667267925237635,-0.9673679968405574,-0.9475539873575751,-0.0010623297846309595,-1.2006900815080916,0.00010273573504590051,0.7204319580043651,-3.6127369369377046e-05,-0.49995460517061885,1.908162426570749e-05,-1.0679720746460366,0.804,-1.3093096900680854,,,,,,,,,,,,,,,,,,,,,,
25,240624_092738,LEARNING,1.0,26,1.0,1750.0,,,,,,,,,,26.0,26.0,26.0,cue2.png,Easy,B,,,,,,,,,,,,,,,,,,,,,,,,,,,24,25,Male,0.8571428571428571,0.75,0.4,0.75,1.8333333333333333,1.5,2.4444444444444446,1.5555555555555556,1.75,2.0,1.75,1.75,2.25,1.5,1.0,1.0,0.3991555875691119,-0.6272114574536924,-0.9184039943183562,-0.6445027490852648,-6.155813529216871e-05,0.028175501254218405,2.0267899030442568e-05,0.1909382561542955,0.0002661270142159172,0.6678889403159466,6.365934464684295e-05,-0.8009021488911616,0.27900000000000014,-2.2670074779966742,1.885,0.7311799023704902,,,,,,,,,,,,,,,,,,,,
26,240624_092757,LEARNING,1.0,27,3.0,1750.0,,,,,,,,,,27.0,27.0,27.0,cue1.png,Hard,B,,,,,,,,,,,,,,,,,,,,,,,,,,,24,25,Male,0.8571428571428571,0.75,0.4,0.75,1.8333333333333333,1.5,2.4444444444444446,1.5555555555555556,1.75,2.0,1.75,1.75,2.25,1.5,0.75,0.8333333333333334,0.4796157875098288,0.3831675687732523,-0.7347699382933582,0.49205727870473037,,,,,-0.00020627182466786834,-1.1573548438824524,0.000292346453839036,0.569186961787142,,,,,,,,,,,,,,,,,,,,,,,,
27,240624_092816,LEARNING,1.0,28,1.0,1750.0,,,,,,,,,,28.0,28.0,28.0,cue2.png,Easy,B,,,,,,,,,,,,,,,,,,,,,,,,,,,24,25,Male,0.8571428571428571,0.75,0.4,0.75,1.8333333333333333,1.5,2.4444444444444446,1.5555555555555556,1.75,2.0,1.75,1.75,2.25,1.5,1.0,1.0,0.4366669250302948,-0.1561628067614804,-0.8285845597827937,-0.08858637267018514,,,7.392055391138366e-05,0.5354209565572589,0.0002791372042393863,0.7181574137264389,0.00017643683560829466,-0.12524004952005865,,,2.157,1.2161896303214346,,,,,,,,,,,,,,,,,,,,
28,240624_092835,LEARNING,1.0,29,1.0,1750.0,,,,,,,,,,29.0,29.0,29.0,cue2.png,Easy,B,,,,,,,,,,,,,,,,,,,,,,,,,,,24,25,Male,0.8571428571428571,0.75,0.4,0.75,1.8333333333333333,1.5,2.4444444444444446,1.5555555555555556,1.75,2.0,1.75,1.75,2.25,1.5,0.75,0.8333333333333334,0.4231879999279044,-0.32542441970270464,-0.8599387543979558,-0.2826458247921295,-0.0004477871821185744,-0.446082120873313,0.00012257705283274644,0.8478252947541186,0.00019211048384143925,0.38190557017649696,0.000734557596581158,3.218521563250868,2.3129999999999997,1.4433873803780877,1.393,-0.1461171055407766,,,,,,,,,,,,,,,,,,,,
29,240624_092853,LEARNING,1.0,30,3.0,1750.0,,,,,,,,,,30.0,30.0,30.0,cue1.png,Hard,B,,,,,,,,,,,,,,,,,,,,,,,,,,,24,25,Male,0.8571428571428571,0.75,0.4,0.75,1.8333333333333333,1.5,2.4444444444444446,1.5555555555555556,1.75,2.0,1.75,1.75,2.25,1.5,0.1666666666666666,0.6666666666666667,0.3568930624751374,-1.157923150710781,-1.030319086962599,-1.3371750319898328,-0.0020159685143940876,-2.3716803010745084,0.00023754848204617443,1.586011848476716,-1.0566810235420904e-05,-0.4011943038326081,0.00022566687540165418,0.1697024230897794,1.5079999999999998,-0.025082561112415705,1.6569999999999998,0.32462763041161014,,,,,,,,,,,,,,,,,,,,
30,240624_092912,LEARNING,1.0,31,3.0,1750.0,,,,,,,,,,31.0,31.0,31.0,cue1.png,Hard,B,,,,,,,,,,,,,,,,,,,,,,,,,,,24,25,Male,0.8571428571428571,0.75,0.4,0.75,1.8333333333333333,1.5,2.4444444444444446,1.5555555555555556,1.75,2.0,1.75,1.75,2.25,1.5,1.0,1.0,0.3890889500326011,-0.7536232665097661,-0.9439472981802818,-0.8025970523729209,8.60077635604071e-05,0.2093743335843759,0.0004790391112499794,3.1365286729421653,0.0003373277617563378,0.9429927534106338,0.00010555352776662075,-0.5499095840022883,,,1.9960000000000002,0.9291066663504716,,,,,,,,,,,,,,,,,,,,
31,240624_092930,LEARNING,1.0,32,1.0,1750.0,,,,,,,,,,32.0,32.0,32.0,cue2.png,Easy,B,,,,,,,,,,,,,,,,,,,,,,,,,,,24,25,Male,0.8571428571428571,0.75,0.4,0.75,1.8333333333333333,1.5,2.4444444444444446,1.5555555555555556,1.75,2.0,1.75,1.75,2.25,1.5,1.0,1.0,0.3795663249329664,-0.8732036389470986,-0.9687259281599915,-0.9559585855653433,-1.5145426270801038e-05,0.08516650490305627,0.00010488315418714011,0.7342196959329501,0.00015374422580568354,0.2336669035273978,0.00037039299596207604,1.0367722046396637,1.288,-0.42640353891106214,0.16300000000000003,-2.3393596253189437,,,,,,,,,,,,,,,,,,,,
32,240624_092949,LEARNING,1.0,33,1.0,1750.0,,,,,,,,,,33.0,33.0,33.0,cue2.png,Easy,B,,,,,,,,,,,,,,,,,,,,,,,,,,,24,25,Male,0.8571428571428571,0.75,0.4,0.75,1.8333333333333333,1.5,2.4444444444444446,1.5555555555555556,1.75,2.0,1.75,1.75,2.25,1.5,1.0,1.0,0.4336974124889821,-0.19345246291534152,-0.8354081942896213,-0.13081966203157172,-0.000242222150598419,-0.19366510604133919,-0.00027263507471685664,-1.6896771127669985,-0.00016146009929263357,-0.9842123285587121,0.00027784363969341006,0.4822990396593841,2.4189999999999996,1.6367511242265262,0.8070000000000002,-1.1910277694350901,,,,,,,,,,,,,,,,,,,,
33,240624_093008,LEARNING,1.0,34,1.0,1750.0,,,,,,,,,,34.0,34.0,34.0,cue2.png,Easy,B,,,,,,,,,,,,,,,,,,,,,,,,,,,24,25,Male,0.8571428571428571,0.75,0.4,0.75,1.8333333333333333,1.5,2.4444444444444446,1.5555555555555556,1.75,2.0,1.75,1.75,2.25,1.5,1.0,1.0,0.3901196375372819,-0.7406804073310543,-0.9413018239844606,-0.786223508757945,-0.0019333883397428748,-2.2702786131725543,-0.00017502823991549007,-1.0629818242528635,-3.4161798570535654e-05,-0.49236007786089,0.0002810390467099899,0.5014430673794674,2.005,0.8815380114599822,1.128,-0.6186449654929835,,,,,,,,,,,,,,,,,,,,
34,240624_093026,LEARNING,1.0,35,3.0,1750.0,,,,,,,,,,35.0,35.0,35.0,cue1.png,Hard,B,,,,,,,,,,,,,,,,,,,,,,,,,,,24,25,Male,0.8571428571428571,0.75,0.4,0.75,1.8333333333333333,1.5,2.4444444444444446,1.5555555555555556,1.75,2.0,1.75,1.75,2.25,1.5,0.75,0.8333333333333334,0.3546143249841407,-1.1865383986082072,-1.036724488571581,-1.3768197666773867,0.0023755750121002006,3.0207753090309493,-2.4494551256144803e-05,-0.09646391966710242,0.00022774575252856562,0.519592302902397,0.00024159299641141703,0.26511752999238536,1.7029999999999998,0.3306337601182032,,,,,,,,,,,,,,,,,,,,,,
35,240624_093045,LEARNING,1.0,36,3.0,1750.0,,,,,,,,,,36.0,36.0,36.0,cue1.png,Hard,B,,,,,,,,,,,,,,,,,,,,,,,,,,,24,25,Male,0.8571428571428571,0.75,0.4,0.75,1.8333333333333333,1.5,2.4444444444444446,1.5555555555555556,1.75,2.0,1.75,1.75,2.25,1.5,1.0,1.0,0.3624417624960188,-1.088245345683522,-1.0148914727772305,-1.2416894233461453,-0.00025519842618862594,-0.20959890919791302,-0.00017819026142530236,-1.0832839269325825,0.0002113532803453902,0.45625544536336565,4.207615133978906e-05,-0.9302093854385765,1.3690000000000002,-0.27864445163065094,0.6319999999999999,-1.503074469403529,,,,,,,,,,,,,,,,,,,,
36,240624_093103,LEARNING,1.0,37,1.0,1750.0,,,,,,,,,,37.0,37.0,37.0,cue2.png,Easy,B,,,,,,,,,,,,,,,,,,,,,,,,,,,24,25,Male,0.8571428571428571,0.75,0.4,0.75,1.8333333333333333,1.5,2.4444444444444446,1.5555555555555556,1.75,2.0,1.75,1.75,2.25,1.5,1.0,1.0,0.3548705375287682,-1.1833210093705644,-1.0360022390372985,-1.3723495721583285,-0.00015207361333921532,-0.08297008900384248,-5.10480251996368e-05,-0.26695338434377375,-0.0001625903642201859,-0.9885794202272417,0.0001803500506443196,-0.10179555661646217,2.648,2.0544897783896645,2.191,1.2768158463153023,,,,,,,,,,,,,,,,,,,,
37,240624_093123,LEARNING,1.0,38,3.0,1750.0,,,,,,,,,,38.0,38.0,38.0,cue1.png,Hard,B,,,,,,,,,,,,,,,,,,,,,,,,,,,24,25,Male,0.8571428571428571,0.75,0.4,0.75,1.8333333333333333,1.5,2.4444444444444446,1.5555555555555556,1.75,2.0,1.75,1.75,2.25,1.5,0.75,0.8333333333333334,0.5264963249792345,0.9718699561925479,-0.6415109275288886,1.0692621074849875,0.0005290323983910953,0.7533722839849191,4.940212150563632e-05,0.3779976971953128,0.0005038626370733566,1.5864463798904878,,,,,1.2069999999999999,-0.47777816950723145,,,,,,,,,,,,,,,,,,,,
38,240624_093142,LEARNING,1.0,39,3.0,1750.0,,,,,,,,,,39.0,39.0,39.0,cue1.png,Hard,B,,,,,,,,,,,,,,,,,,,,,,,,,,,24,25,Male,0.8571428571428571,0.75,0.4,0.75,1.8333333333333333,1.5,2.4444444444444446,1.5555555555555556,1.75,2.0,1.75,1.75,2.25,1.5,0.75,0.8333333333333334,0.4181282624776941,-0.38896207685088746,-0.8719670454928491,-0.3570921184535685,0.0009266511389650015,1.241615516769741,,,0.00021431627710863594,0.4677038042066962,0.00012911663585859915,-0.408740464655803,2.4330000000000003,1.6622897319046233,1.1300000000000001,-0.6150787174933439,,,,,,,,,,,,,,,,,,,,
39,240624_093201,LEARNING,1.0,40,3.0,1750.0,,,,,,,,,,40.0,40.0,40.0,cue1.png,Hard,B,,,,,,,,,,,,,,,,,,,,,,,,,,,24,25,Male,0.8571428571428571,0.75,0.4,0.75,1.8333333333333333,1.5,2.4444444444444446,1.5555555555555556,1.75,2.0,1.75,1.75,2.25,1.5,0.75,0.8333333333333334,0.5108247999742161,0.7750747681899296,-0.6717286047607127,0.8822368638140865,,,0.0002635801299076773,1.753150872093887,0.0008214544104249962,2.8135501797057834,0.00023818469110993426,0.24469800570908098,,,2.493,1.815319294260836,,,,,,,,,,,,,,,,,,,,
40,240624_093221,LEARNING,1.0,41,1.0,1750.0,,,,,,,,,,41.0,41.0,41.0,cue2.png,Easy,B,,,,,,,,,,,,,,,,,,,,,,,,,,,24,25,Male,0.8571428571428571,0.75,0.4,0.75,1.8333333333333333,1.5,2.4444444444444446,1.5555555555555556,1.75,2.0,1.75,1.75,2.25,1.5,1.0,1.0,0.5704831249895506,1.5242342331146583,-0.5612716894521893,1.5658840992460739,,,,,,,,,1.806,0.5185249451784792,1.702,0.4048682104034946,,,,,,,,,,,,,,,,,,,,
41,240624_093240,LEARNING,1.0,42,3.0,1750.0,,,,,,,,,,42.0,42.0,42.0,cue1.png,Hard,B,,,,,,,,,,,,,,,,,,,,,,,,,,,24,25,Male,0.8571428571428571,0.75,0.4,0.75,1.8333333333333333,1.5,2.4444444444444446,1.5555555555555556,1.75,2.0,1.75,1.75,2.25,1.5,1.0,1.0,0.4162994624348357,-0.4119272348771975,-0.876350416074773,-0.38422196516199786,9.884753448261485e-05,0.2251405201937569,,,,,0.0002701500483232879,0.43620590482792243,,,,,,,,,,,,,,,,,,,,,,,,
42,240624_093259,LEARNING,1.0,43,3.0,1750.0,,,,,,,,,,43.0,43.0,43.0,cue1.png,Hard,B,,,,,,,,,,,,,,,,,,,,,,,,,,,24,25,Male,0.8571428571428571,0.75,0.4,0.75,1.8333333333333333,1.5,2.4444444444444446,1.5555555555555556,1.75,2.0,1.75,1.75,2.25,1.5,0.75,0.8333333333333334,0.4402614000428002,-0.11102518386707844,-0.8203866374656655,-0.037847250427484186,0.0015163537586150477,1.9657220138227907,,,0.0003501999259321381,0.9927279257209127,0.00010104684368098882,-0.5769096139244048,1.4129999999999998,-0.19838025607092227,0.9310000000000003,-0.9699203934574535,,,,,,,,,,,,,,,,,,,,
43,240624_093318,LEARNING,1.0,44,1.0,1750.0,,,,,,,,,,44.0,44.0,44.0,cue2.png,Easy,B,,,,,,,,,,,,,,,,,,,,,,,,,,,24,25,Male,0.8571428571428571,0.75,0.4,0.75,1.8333333333333333,1.5,2.4444444444444446,1.5555555555555556,1.75,2.0,1.75,1.75,2.25,1.5,1.0,1.0,0.4128856999741401,-0.45479555975520014,-0.8845844798355347,-0.43518477641462233,,,,,,,0.0006111819714090813,2.479364899945769,1.3760000000000001,-0.26587514779160326,1.3849999999999998,-0.1603820975393342,,,,,,,,,,,,,,,,,,,,
44,240624_093337,LEARNING,1.0,45,1.0,1750.0,,,,,,,,,,45.0,45.0,45.0,cue2.png,Easy,B,,,,,,,,,,,,,,,,,,,,,,,,,,,24,25,Male,0.8571428571428571,0.75,0.4,0.75,1.8333333333333333,1.5,2.4444444444444446,1.5555555555555556,1.75,2.0,1.75,1.75,2.25,1.5,0.75,0.8333333333333334,0.4238657125388272,-0.3169140430395789,-0.8583385896255054,-0.2727419792984744,-4.844237688182316e-05,0.04428057788478421,-6.53192307722714e-05,-0.35858321039015173,-0.00028205724421501936,-1.4501728073815856,-7.945153346598528e-06,-1.2298924112760505,,,1.9780000000000002,0.8970104343537179,,,,,,,,,,,,,,,,,,,,
45,240624_093357,LEARNING,1.0,46,1.0,1750.0,,,,,,,,,,46.0,46.0,46.0,cue2.png,Easy,B,,,,,,,,,,,,,,,,,,,,,,,,,,,24,25,Male,0.8571428571428571,0.75,0.4,0.75,1.8333333333333333,1.5,2.4444444444444446,1.5555555555555556,1.75,2.0,1.75,1.75,2.25,1.5,0.75,0.8333333333333334,0.5262727249937598,0.9690620991930032,-0.6419357120318956,1.066633003183786,,,-0.00010206086210588598,-0.5944868466053607,-0.00048269762612007574,-2.2254025069225913,,,0.895,-1.1433087401604631,1.1780000000000002,-0.5294887655020006,,,,,,,,,,,,,,,,,,,,
46,240624_093415,LEARNING,1.0,47,3.0,1750.0,,,,,,,,,,47.0,47.0,47.0,cue1.png,Hard,B,,,,,,,,,,,,,,,,,,,,,,,,,,,24,25,Male,0.8571428571428571,0.75,0.4,0.75,1.8333333333333333,1.5,2.4444444444444446,1.5555555555555556,1.75,2.0,1.75,1.75,2.25,1.5,0.75,0.8333333333333334,0.3756487625068985,-0.9223984323002118,-0.9791007144439269,-1.020170898043916,4.881617857896295e-05,0.16370611468321838,-7.514279391624638e-05,-0.42165646495555875,0.00015094004478802703,0.22283217331438848,0.00020021490910861412,0.017216950748884248,1.211,-0.5668658811405884,1.722,0.44053069039988757,,,,,,,,,,,,,,,,,,,,
47,240624_093434,LEARNING,1.0,48,3.0,1750.0,,,,,,,,,,48.0,48.0,48.0,cue1.png,Hard,B,,,,,,,,,,,,,,,,,,,,,,,,,,,24,25,Male,0.8571428571428571,0.75,0.4,0.75,1.8333333333333333,1.5,2.4444444444444446,1.5555555555555556,1.75,2.0,1.75,1.75,2.25,1.5,0.75,0.8333333333333334,0.4561797624628525,0.08886966517568388,-0.7848683312231263,0.18198499640029722,,,,,-0.0001773655024212683,-1.0456672598712176,,,1.308,-0.3899198136566397,1.1340000000000001,-0.6079462214940653,,,,,,,,,,,,,,,,,,,,
48,240624_093453,LEARNING,1.0,49,1.0,1750.0,,,,,,,,,,49.0,49.0,49.0,cue2.png,Easy,B,,,,,,,,,,,,,,,,,,,,,,,,,,,24,25,Male,0.8571428571428571,0.75,0.4,0.75,1.8333333333333333,1.5,2.4444444444444446,1.5555555555555556,1.75,2.0,1.75,1.75,2.25,1.5,1.0,1.0,0.4399203499779105,-0.1153079203344467,-0.8211615912339069,-0.04264364547224878,1.0361035074120655e-05,0.11648634945055171,,,-0.0002238505001025395,-1.2252749263013423,,,2.685,2.1219846701103457,1.556,0.1445321064298261,,,,,,,,,,,,,,,,,,,,
49,240624_093512,LEARNING,1.0,50,1.0,1750.0,,,,,,,,,,50.0,50.0,50.0,cue2.png,Easy,B,,,,,,,,,,,,,,,,,,,,,,,,,,,24,25,Male,0.8571428571428571,0.75,0.4,0.75,1.8333333333333333,1.5,2.4444444444444446,1.5555555555555556,1.75,2.0,1.75,1.75,2.25,1.5,0.75,0.8333333333333334,0.4281199125107378,-0.2634919234306204,-0.8483519532228508,-0.21093202970075667,-0.00011748742909839429,-0.040501088727203885,-0.00012148882957807019,-0.7192262227463976,0.00013537797458336312,0.16270380386826944,0.0003404723083225299,0.8575141412369867,1.4509999999999998,-0.12906117808751957,2.055,1.0343109823398307,,,,,,,,,,,,,,,,,,,,
0,240624_093646,TrueCHOICE,9.0,1,1.0,1750.0,,,,,,,,,,,1.0,1.0,,,B,,,,,,True,cue2.png,Easy,cue1.png,Hard,Left,Easy,Easy,0.016200799960643,,,,,,,,,,,,,24,25,Male,0.8571428571428571,0.75,0.4,0.75,1.8333333333333333,1.5,2.4444444444444446,1.5555555555555556,1.75,2.0,1.75,1.75,2.25,1.5,0.75,0.8333333333333334,0.3694074124796316,-0.2528605178165853,-0.9958551451496932,-0.18709602679648668,,,,,,,,,,,,,0.0004896140976895706,1.9713370628549587,,,1.457,-0.34808213294555684,,,,,,,,,,,,,,
1,240624_093703,TrueCHOICE,9.0,2,1.0,1750.0,,,,,,,,,,,2.0,2.0,,,B,,,,,,True,cue2.png,Easy,cue1.png,Hard,Left,Easy,Easy,0.0162202999927103,,,,,,,,,,,,,24,25,Male,0.8571428571428571,0.75,0.4,0.75,1.8333333333333333,1.5,2.4444444444444446,1.5555555555555556,1.75,2.0,1.75,1.75,2.25,1.5,,,,,,,,,,,,,,,,,,,-3.077245412875162e-05,-0.536773872777026,-0.00024102522872267032,-1.3860053477940089,1.4709999999999999,-0.32523924297100504,,,,,,,,,,,,,,
2,240624_093720,TrueCHOICE,9.0,3,1.0,1750.0,,,,,,,,,,,3.0,3.0,,,B,,,,,,True,cue1.png,Hard,cue2.png,Easy,Right,Easy,Easy,0.0137226001825183,,,,,,,,,,,,,24,25,Male,0.8571428571428571,0.75,0.4,0.75,1.8333333333333333,1.5,2.4444444444444446,1.5555555555555556,1.75,2.0,1.75,1.75,2.25,1.5,0.75,0.8333333333333334,0.2939021624624729,-2.0257209252901185,-1.2245083477671415,-2.1284633125469723,,,,,,,,,,,,,,,0.0002954136885766033,0.859101690394189,1.0950000000000002,-0.9387340022875483,,,,,,,,,,,,,,
3,240624_093737,TrueCHOICE,9.0,4,1.0,1750.0,,,,,,,,,,,4.0,4.0,,,B,,,,,,True,cue2.png,Easy,cue1.png,Hard,Left,Easy,Easy,0.0160205999854952,,,,,,,,,,,,,24,25,Male,0.8571428571428571,0.75,0.4,0.75,1.8333333333333333,1.5,2.4444444444444446,1.5555555555555556,1.75,2.0,1.75,1.75,2.25,1.5,1.0,1.0,0.3928133998997509,0.29671117932398633,-0.9344205892859521,0.3345106491791796,,,,,,,,,,,,,,,0.00016134561774562703,0.2979992801993382,1.416,-0.4149791678710313,,,,,,,,,,,,,,
4,240624_093754,TrueCHOICE,9.0,5,1.0,1750.0,,,,,,,,,,,5.0,5.0,,,B,,,,,,True,cue1.png,Hard,cue2.png,Easy,Right,Easy,Easy,0.0163168001454323,,,,,,,,,,,,,24,25,Male,0.8571428571428571,0.75,0.4,0.75,1.8333333333333333,1.5,2.4444444444444446,1.5555555555555556,1.75,2.0,1.75,1.75,2.25,1.5,0.75,0.8333333333333334,0.4181721250351984,0.8921330839785918,-0.8718621488356205,0.8656596046610562,,,,,,,,,,,,,-6.605076898489118e-06,-0.42029418492773934,0.0003695611528965518,1.1694240563526852,1.584,-0.14086448817640507,,,,,,,,,,,,,,
5,240624_093812,TrueCHOICE,9.0,6,1.0,1750.0,,,,,,,,,,,6.0,6.0,,,B,,,,,,True,cue1.png,Hard,cue2.png,Easy,Right,Easy,Easy,0.0175965998787432,,,,,,,,,,,,,24,25,Male,0.8571428571428571,0.75,0.4,0.75,1.8333333333333333,1.5,2.4444444444444446,1.5555555555555556,1.75,2.0,1.75,1.75,2.25,1.5,1.0,1.0,0.3755571249930653,-0.10846550117954945,-0.9793446888744062,-0.04691491706900752,,,,,,,,,,,,,,,-0.00013458226377993567,-0.9405196791522034,,,,,,,,,,,,,,,,
6,240624_093829,TrueCHOICE,9.0,7,1.0,1750.0,,,,,,,,,,,7.0,7.0,,,B,,,,,,True,cue2.png,Easy,cue1.png,Hard,Left,Easy,Easy,0.0159094999544322,,,,,,,,,,,,,24,25,Male,0.8571428571428571,0.75,0.4,0.75,1.8333333333333333,1.5,2.4444444444444446,1.5555555555555556,1.75,2.0,1.75,1.75,2.25,1.5,,,,,,,,,,,,,,,,,,,-7.846537255339113e-05,-0.7666397865579879,,,,,,,,,,,,,,,,,,
7,240624_093846,TrueCHOICE,9.0,8,3.0,1750.0,,,,,,,,,,,8.0,8.0,,,B,,,,,,True,cue1.png,Hard,cue2.png,Easy,Left,Hard,Hard,0.0158247000072151,,,,,,,,,,,,,24,25,Male,0.8571428571428571,0.75,0.4,0.75,1.8333333333333333,1.5,2.4444444444444446,1.5555555555555556,1.75,2.0,1.75,1.75,2.25,1.5,0.1666666666666666,0.6666666666666667,0.3464448624581564,-0.7920203216507903,-1.060031600119128,-0.7319826444641474,,,,,,,,,,,,,2.921970468300599e-05,-0.24762921859220544,,,2.999,2.167899034251546,,,,,,,,,,,,,,
8,240624_093903,TrueCHOICE,9.0,9,3.0,1750.0,,,,,,,,,,,9.0,9.0,,,B,,,,,,True,cue2.png,Easy,cue1.png,Hard,Right,Hard,Hard,0.0165043000597506,,,,,,,,,,,,,24,25,Male,0.8571428571428571,0.75,0.4,0.75,1.8333333333333333,1.5,2.4444444444444446,1.5555555555555556,1.75,2.0,1.75,1.75,2.25,1.5,0.75,0.8333333333333334,0.439832225034479,1.4007114106766099,-0.8213619315255509,1.294428887954612,,,,,,,,,,,,,,,,,,,,,,,,,,,,,,,,
9,240624_093920,TrueCHOICE,9.0,10,3.0,1750.0,,,,,,,,,,,10.0,10.0,,,B,,,,,,True,cue1.png,Hard,cue2.png,Easy,Left,Hard,Hard,0.0152173999231308,,,,,,,,,,,,,24,25,Male,0.8571428571428571,0.75,0.4,0.75,1.8333333333333333,1.5,2.4444444444444446,1.5555555555555556,1.75,2.0,1.75,1.75,2.25,1.5,0.75,0.8333333333333334,0.4052836250048131,0.5895115919578516,-0.9031681483234193,0.5998577590817622,,,,,,,,,,,,,,,,,,,,,,,,,,,,,,,,
0,240624_094052,FalseCHOICE,9.0,1,2.0,1750.0,,,,,,,,,,,1.0,1.0,,,B,,,,,,False,cue2.png,Easy,cue1.png,Hard,Left,Easy,Mid,0.0161856999620795,,,,,,,,,,,,,24,25,Male,0.8571428571428571,0.75,0.4,0.75,1.8333333333333333,1.5,2.4444444444444446,1.5555555555555556,1.75,2.0,1.75,1.75,2.25,1.5,1.0,1.0,0.4609394375002011,1.429997746813055,-0.7744886166324652,1.3228657260423735,,,,,,,,,,,,,,,,,,,-3.576259095797955e-05,0.23921846458515908,0.0003878578737865918,1.3133185356839205,1.2579999999999998,-0.31439137194198097,,,,,,,,
1,240624_094109,FalseCHOICE,9.0,2,2.0,1750.0,,,,,,,,,,,2.0,2.0,,,B,,,,,,False,cue1.png,Hard,cue2.png,Easy,Right,Easy,Mid,0.01411799993366,,,,,,,,,,,,,24,25,Male,0.8571428571428571,0.75,0.4,0.75,1.8333333333333333,1.5,2.4444444444444446,1.5555555555555556,1.75,2.0,1.75,1.75,2.25,1.5,,,,,,,,,,,,,,,,,,,,,,,,,1.7092768934026496e-05,0.3265567487117069,0.00026861609509381277,0.8870928356156781,1.152,-0.5247036672728044,,,,,,,,
2,240624_094126,FalseCHOICE,9.0,3,2.0,1750.0,,,,,,,,,,,3.0,3.0,,,B,,,,,,False,cue1.png,Hard,cue2.png,Easy,Right,Easy,Mid,0.0167179000563919,,,,,,,,,,,,,24,25,Male,0.8571428571428571,0.75,0.4,0.75,1.8333333333333333,1.5,2.4444444444444446,1.5555555555555556,1.75,2.0,1.75,1.75,2.25,1.5,,,,,,,,,,,,,,,,,,,,,,,,,,,0.00017217555785375808,0.5423694010046766,1.5970000000000002,0.35821115746508786,,,,,,,,
3,240624_094142,FalseCHOICE,9.0,4,2.0,1750.0,,,,,,,,,,,4.0,4.0,,,B,,,,,,False,cue1.png,Hard,cue2.png,Easy,Right,Easy,Mid,0.0155266998335719,,,,,,,,,,,,,24,25,Male,0.8571428571428571,0.75,0.4,0.75,1.8333333333333333,1.5,2.4444444444444446,1.5555555555555556,1.75,2.0,1.75,1.75,2.25,1.5,1.0,1.0,0.4190222999895923,0.6292656331616981,-0.8698311385440349,0.6480624940329374,,,,,,,,,,,,,,,,,,,-0.0008223360436747226,-1.0605168099477962,-0.0001258168756880151,-0.5227944618107396,1.5839999999999999,0.3324181401131937,,,,,,,,
4,240624_094159,FalseCHOICE,9.0,5,2.0,1750.0,,,,,,,,,,,5.0,5.0,,,B,,,,,,False,cue2.png,Easy,cue1.png,Hard,Left,Easy,Mid,0.014944199938327,,,,,,,,,,,,,24,25,Male,0.8571428571428571,0.75,0.4,0.75,1.8333333333333333,1.5,2.4444444444444446,1.5555555555555556,1.75,2.0,1.75,1.75,2.25,1.5,,,,,,,,,,,,,,,,,,,,,,,,,3.346950763440668e-05,0.3536176988329899,-0.00027470267191029686,-1.0549816987066167,1.507,0.17964411425967097,,,,,,,,
5,240624_094215,FalseCHOICE,9.0,6,2.0,1750.0,,,,,,,,,,,6.0,6.0,,,B,,,,,,False,cue1.png,Hard,cue2.png,Easy,Right,Easy,Mid,0.016712199896574,,,,,,,,,,,,,24,25,Male,0.8571428571428571,0.75,0.4,0.75,1.8333333333333333,1.5,2.4444444444444446,1.5555555555555556,1.75,2.0,1.75,1.75,2.25,1.5,0.75,0.8333333333333334,0.3122298750386107,-1.410762127114419,-1.164015583491129,-1.4340789290912097,,,,,,,,,,,,,,,,,,,-0.0018671736973429683,-2.7870082773910876,5.652125596989233e-05,0.12896701530762633,0.06099999999999994,-2.6893330465740175,,,,,,,,
6,240624_094232,FalseCHOICE,9.0,7,2.0,1750.0,,,,,,,,,,,7.0,7.0,,,B,,,,,,False,cue1.png,Hard,cue2.png,Easy,Right,Easy,Mid,0.016535900067538,,,,,,,,,,,,,24,25,Male,0.8571428571428571,0.75,0.4,0.75,1.8333333333333333,1.5,2.4444444444444446,1.5555555555555556,1.75,2.0,1.75,1.75,2.25,1.5,1.0,1.0,0.4120372875186149,0.4958327669896883,-0.8866414300418637,0.5290847409137487,,,,,,,,,,,,,,,,,,,7.977150467204999e-05,0.4301271953374661,-4.955224240311279e-06,-0.09077858143356238,1.185,-0.4592290847641515,,,,,,,,
7,240624_094248,FalseCHOICE,9.0,8,2.0,1750.0,,,,,,,,,,,8.0,8.0,,,B,,,,,,False,cue2.png,Easy,cue1.png,Hard,Left,Easy,Mid,0.0153717000503093,,,,,,,,,,,,,24,25,Male,0.8571428571428571,0.75,0.4,0.75,1.8333333333333333,1.5,2.4444444444444446,1.5555555555555556,1.75,2.0,1.75,1.75,2.25,1.5,,,,,,,,,,,,,,,,,,,,,,,,,4.948714022021041e-05,0.3800852614164613,,,,,,,,,,,,
8,240624_094305,FalseCHOICE,9.0,9,2.0,1750.0,,,,,,,,,,,9.0,9.0,,,B,,,,,,False,cue2.png,Easy,cue1.png,Hard,Left,Easy,Mid,0.0159213000442832,,,,,,,,,,,,,24,25,Male,0.8571428571428571,0.75,0.4,0.75,1.8333333333333333,1.5,2.4444444444444446,1.5555555555555556,1.75,2.0,1.75,1.75,2.25,1.5,0.75,0.8333333333333334,0.2879073625081219,-1.8753887219748338,-1.2451165085471183,-2.0080847897448235,,,,,,,,,,,,,,,,,,,5.805746192145793e-05,0.394246875173871,0.0003137809760063782,1.048533173025059,,,,,,,,,,
9,240624_094321,FalseCHOICE,9.0,10,2.0,1750.0,,,,,,,,,,,10.0,10.0,,,B,,,,,,False,cue1.png,Hard,cue2.png,Easy,Right,Easy,Mid,0.0162477998528629,,,,,,,,,,,,,24,25,Male,0.8571428571428571,0.75,0.4,0.75,1.8333333333333333,1.5,2.4444444444444446,1.5555555555555556,1.75,2.0,1.75,1.75,2.25,1.5,,,,,,,,,,,,,,,,,,,,,,,,,-0.00018519383006554337,-0.007701962126993219,,,,,,,,,,,,
10,240624_094336,FalseCHOICE,9.0,11,2.0,1750.0,,,,,,,,,,,11.0,11.0,,,B,,,,,,False,cue2.png,Easy,cue1.png,Hard,Left,Easy,Mid,0.0160260999109596,,,,,,,,,,,,,24,25,Male,0.8571428571428571,0.75,0.4,0.75,1.8333333333333333,1.5,2.4444444444444446,1.5555555555555556,1.75,2.0,1.75,1.75,2.25,1.5,0.75,0.8333333333333334,0.2591182125615887,-2.4253403230611204,-1.350470902253427,-2.7537487805227356,,,,,,,,,,,,,,,,,,,,,0.00025332179526027856,0.8324238787696285,0.766,-1.2905578747982562,,,,,,,,
11,240624_094353,FalseCHOICE,9.0,12,2.0,1750.0,,,,,,,,,,,12.0,12.0,,,B,,,,,,False,cue1.png,Hard,cue2.png,Easy,Right,Easy,Mid,0.0134048000909388,,,,,,,,,,,,,24,25,Male,0.8571428571428571,0.75,0.4,0.75,1.8333333333333333,1.5,2.4444444444444446,1.5555555555555556,1.75,2.0,1.75,1.75,2.25,1.5,,,,,,,,,,,,,,,,,,,,,,,,,0.0005509538856590598,1.2087097411785874,0.00024228356448397458,0.7929680966459265,,,,,,,,,,
12,240624_094411,FalseCHOICE,9.0,13,2.0,1750.0,,,,,,,,,,,13.0,13.0,,,B,,,,,,False,cue2.png,Easy,cue1.png,Hard,Left,Easy,Mid,0.0159607999958097,,,,,,,,,,,,,24,25,Male,0.8571428571428571,0.75,0.4,0.75,1.8333333333333333,1.5,2.4444444444444446,1.5555555555555556,1.75,2.0,1.75,1.75,2.25,1.5,1.0,1.0,0.4467768249742221,1.159453064226316,-0.8056960820351448,1.1019894780228068,,,,,,,,,,,,,,,,,,,-0.0010464443782998356,-1.4308337928348216,-0.0004397521070105231,-1.644945315424471,,,,,,,,,,
13,240624_094428,FalseCHOICE,9.0,14,2.0,1750.0,,,,,,,,,,,14.0,14.0,,,B,,,,,,False,cue1.png,Hard,cue2.png,Easy,Right,Easy,Mid,0.0166843000333756,,,,,,,,,,,,,24,25,Male,0.8571428571428571,0.75,0.4,0.75,1.8333333333333333,1.5,2.4444444444444446,1.5555555555555556,1.75,2.0,1.75,1.75,2.25,1.5,0.75,0.8333333333333334,0.4711062250426039,1.6242112299215352,-0.7526716795179673,1.4772788817072147,,,,,,,,,,,,,,,,,,,-5.1965411940334445e-06,0.2897258557818933,-0.00010515149160999311,-0.44892674621310713,,,,,,,,,,
14,240624_094445,FalseCHOICE,9.0,15,2.0,1750.0,,,,,,,,,,,15.0,15.0,,,B,,,,,,False,cue2.png,Easy,cue1.png,Hard,Left,Easy,Mid,0.017016900004819,,,,,,,,,,,,,24,25,Male,0.8571428571428571,0.75,0.4,0.75,1.8333333333333333,1.5,2.4444444444444446,1.5555555555555556,1.75,2.0,1.75,1.75,2.25,1.5,,,,,,,,,,,,,,,,,,,,,,,,,-0.00014581487518509862,0.057367888063828316,0.00042494216300579006,1.4458750717174034,,,,,,,,,,
15,240624_094502,FalseCHOICE,9.0,16,2.0,1750.0,,,,,,,,,,,16.0,16.0,,,B,,,,,,False,cue2.png,Easy,cue1.png,Hard,Left,Easy,Mid,0.0161691999528557,,,,,,,,,,,,,24,25,Male,0.8571428571428571,0.75,0.4,0.75,1.8333333333333333,1.5,2.4444444444444446,1.5555555555555556,1.75,2.0,1.75,1.75,2.25,1.5,0.75,0.8333333333333334,0.3927576999994926,0.1275398495497522,-0.9345623966929679,0.18991578954937924,,,,,,,,,,,,,,,,,,,-0.002492642565023475,-3.820534069087611,,,,,,,,,,,,
16,240624_094518,FalseCHOICE,9.0,17,2.0,1750.0,,,,,,,,,,,17.0,17.0,,,B,,,,,,False,cue1.png,Hard,cue2.png,Easy,Right,Easy,Mid,0.0154426998924463,,,,,,,,,,,,,24,25,Male,0.8571428571428571,0.75,0.4,0.75,1.8333333333333333,1.5,2.4444444444444446,1.5555555555555556,1.75,2.0,1.75,1.75,2.25,1.5,0.75,0.8333333333333334,0.3492940374708269,-0.7027351269989098,-1.0518411972525563,-0.6401452585231984,,,,,,,,,,,,,,,,,,,9.001536092194309e-06,0.3131867821781733,-0.00022406647778991937,-0.8739843375102905,,,,,,,,,,
17,240624_094535,FalseCHOICE,9.0,18,2.0,1750.0,,,,,,,,,,,18.0,18.0,,,B,,,,,,False,cue1.png,Hard,cue2.png,Easy,Right,Easy,Mid,0.0164806998800486,,,,,,,,,,,,,24,25,Male,0.8571428571428571,0.75,0.4,0.75,1.8333333333333333,1.5,2.4444444444444446,1.5555555555555556,1.75,2.0,1.75,1.75,2.25,1.5,1.0,1.0,0.4723631749802734,1.6482224158019956,-0.7500071507451119,1.4961375461483821,,,,,,,,,,,,,,,,,,,-0.0002852051699568565,-0.1729608656166528,-0.0004969517233406528,-1.8494034070532301,,,,,,,,,,
18,240624_094552,FalseCHOICE,9.0,19,2.0,1750.0,,,,,,,,,,,19.0,19.0,,,B,,,,,,False,cue2.png,Easy,cue1.png,Hard,Left,Easy,Mid,0.0161330001428723,,,,,,,,,,,,,24,25,Male,0.8571428571428571,0.75,0.4,0.75,1.8333333333333333,1.5,2.4444444444444446,1.5555555555555556,1.75,2.0,1.75,1.75,2.25,1.5,0.1666666666666666,0.6666666666666667,0.417448174994206,0.5991955351167617,-0.8735948741466151,0.6214240026428554,,,,,,,,,,,,,,,,,,,,,-0.0002139392296318602,-0.8377848319070167,,,,,,,,,,
19,240624_094614,FalseCHOICE,9.0,20,2.0,1750.0,,,,,,,,,,,21.0,20.0,,,B,,,,,,False,cue2.png,Easy,cue1.png,Hard,Left,Easy,Mid,0.0154366001952439,,,,,,,,,,,,,24,25,Male,0.8571428571428571,0.75,0.4,0.75,1.8333333333333333,1.5,2.4444444444444446,1.5555555555555556,1.75,2.0,1.75,1.75,2.25,1.5,0.75,0.8333333333333334,0.3979090500506572,0.22594474214488877,-0.921531817272453,0.28214197500810534,,,,,,,,,,,,,,,,,,,0.00019358408675009594,0.6181912942484982,,,1.4130000000000003,-0.00685924197709644,,,,,,,,
20,240624_094630,FalseCHOICE,9.0,21,2.0,1750.0,,,,,,,,,,,22.0,21.0,,,B,,,,,,False,cue2.png,Easy,cue1.png,Hard,Left,Easy,Mid,0.0162555000279098,,,,,,,,,,,,,24,25,Male,0.8571428571428571,0.75,0.4,0.75,1.8333333333333333,1.5,2.4444444444444446,1.5555555555555556,1.75,2.0,1.75,1.75,2.25,1.5,0.75,0.8333333333333334,0.3926231374789495,0.12496933691716915,-0.9349050649003865,0.18749049588987857,,,,,,,,,,,,,,,,,,,-0.001573283288476706,-2.301383279584366,-8.64669033560756e-05,-0.3821393182133006,0.4580000000000002,-1.9016539782123472,,,,,,,,
21,240624_094647,FalseCHOICE,9.0,22,2.0,1750.0,,,,,,,,,,,23.0,22.0,,,B,,,,,,False,cue1.png,Hard,cue2.png,Easy,Right,Easy,Mid,0.0167216998524963,,,,,,,,,,,,,24,25,Male,0.8571428571428571,0.75,0.4,0.75,1.8333333333333333,1.5,2.4444444444444446,1.5555555555555556,1.75,2.0,1.75,1.75,2.25,1.5,0.75,0.8333333333333334,0.426123462500982,0.7649172831744823,-0.8530261566244906,0.7670026676910937,,,,,,,,,,,,,,,,,,,,,,,1.284,-0.26280533723819355,,,,,,,,
22,240624_094703,FalseCHOICE,9.0,23,2.0,1750.0,,,,,,,,,,,24.0,23.0,,,B,,,,,,False,cue2.png,Easy,cue1.png,Hard,Left,Easy,Mid,0.0190848000347614,,,,,,,,,,,,,24,25,Male,0.8571428571428571,0.75,0.4,0.75,1.8333333333333333,1.5,2.4444444444444446,1.5555555555555556,1.75,2.0,1.75,1.75,2.25,1.5,1.0,1.0,0.3089732625230681,-1.4729723441707225,-1.1745005348798054,-1.5082879907216857,,,,,,,,,,,,,,,,,,,-3.371529359600918e-05,0.24260142213301494,-2.0984292472469787e-06,-0.0805670644701374,2.36,1.8720628681954499,,,,,,,,
23,240624_094719,FalseCHOICE,9.0,24,2.0,1750.0,,,,,,,,,,,25.0,24.0,,,B,,,,,,False,cue1.png,Hard,cue2.png,Easy,Right,Easy,Mid,0.0189744001254439,,,,,,,,,,,,,24,25,Male,0.8571428571428571,0.75,0.4,0.75,1.8333333333333333,1.5,2.4444444444444446,1.5555555555555556,1.75,2.0,1.75,1.75,2.25,1.5,0.1666666666666666,0.6666666666666667,0.3970534249092452,0.2095999588733058,-0.9236844357890751,0.2669064441748931,,,,,,,,,,,,,,,,,,,5.492728572124893e-05,0.38907456684225455,0.000338756029746372,1.1378056568916175,1.7140000000000002,0.590348313632129,,,,,,,,
24,240624_094736,FalseCHOICE,9.0,25,2.0,1750.0,,,,,,,,,,,26.0,25.0,,,B,,,,,,False,cue1.png,Hard,cue2.png,Easy,Right,Easy,Mid,0.0165647000540047,,,,,,,,,,,,,24,25,Male,0.8571428571428571,0.75,0.4,0.75,1.8333333333333333,1.5,2.4444444444444446,1.5555555555555556,1.75,2.0,1.75,1.75,2.25,1.5,0.75,0.8333333333333334,0.3925353499944322,0.12329235556289848,-0.9351286821350817,0.18590780613424884,,,,,,,,,,,,,,,,,,,0.00013613909925407888,0.5232691018762553,-0.0002041617999214598,-0.8028357404990418,1.1029999999999998,-0.6219235019068646,,,,,,,,
25,240624_094752,FalseCHOICE,9.0,26,2.0,1750.0,,,,,,,,,,,27.0,26.0,,,B,,,,,,False,cue2.png,Easy,cue1.png,Hard,Right,Hard,Mid,0.0179961998946964,,,,,,,,,,,,,24,25,Male,0.8571428571428571,0.75,0.4,0.75,1.8333333333333333,1.5,2.4444444444444446,1.5555555555555556,1.75,2.0,1.75,1.75,2.25,1.5,0.75,0.8333333333333334,0.3000881875050254,-1.6427016081823111,-1.2036788891731418,-1.7148028530002601,,,,,,,,,,,,,,,,,,,1.999939477105063e-05,0.3313596620533673,0.0007907069675364485,2.7532889796654616,2.3609999999999998,1.8740469464532876,,,,,,,,
26,240624_094809,FalseCHOICE,9.0,27,2.0,1750.0,,,,,,,,,,,28.0,27.0,,,B,,,,,,False,cue2.png,Easy,cue1.png,Hard,Right,Hard,Mid,0.0167537999805063,,,,,,,,,,,,,24,25,Male,0.8571428571428571,0.75,0.4,0.75,1.8333333333333333,1.5,2.4444444444444446,1.5555555555555556,1.75,2.0,1.75,1.75,2.25,1.5,0.75,0.8333333333333334,0.3847393875184934,-0.025631876434699392,-0.9551890894414987,0.04392679478286763,,,,,,,,,,,,,,,,,,,-1.739756769813909e-05,0.2695648594018027,-1.1317417169452032e-05,-0.11352002461665082,1.6840000000000002,0.5308259658969903,,,,,,,,
27,240624_094825,FalseCHOICE,9.0,28,2.0,1750.0,,,,,,,,,,,29.0,28.0,,,B,,,,,,False,cue1.png,Hard,cue2.png,Easy,Left,Hard,Mid,0.0184985001105815,,,,,,,,,,,,,24,25,Male,0.8571428571428571,0.75,0.4,0.75,1.8333333333333333,1.5,2.4444444444444446,1.5555555555555556,1.75,2.0,1.75,1.75,2.25,1.5,1.0,1.0,0.379018437495688,-0.13491768829853126,-0.9701704273370954,-0.06210622206087158,,,,,,,,,,,,,,,,,,,-3.778405835955798e-05,0.2358781885065865,0.00021429462487281524,0.6929225797917186,1.0949999999999998,-0.6377961279695683,,,,,,,,
28,240624_094841,FalseCHOICE,9.0,29,2.0,1750.0,,,,,,,,,,,30.0,29.0,,,B,,,,,,False,cue2.png,Easy,cue1.png,Hard,Right,Hard,Mid,0.0165417999960482,,,,,,,,,,,,,24,25,Male,0.8571428571428571,0.75,0.4,0.75,1.8333333333333333,1.5,2.4444444444444446,1.5555555555555556,1.75,2.0,1.75,1.75,2.25,1.5,0.1666666666666666,0.6666666666666667,0.3529966374917421,-0.6320053272838735,-1.0412967476133526,-0.5655150877071276,,,,,,,,,,,,,,,,,,,,,0.00029563335122060165,0.9836651027589973,1.9019999999999997,0.9633550261056643,,,,,,,,
29,240624_094857,FalseCHOICE,9.0,30,2.0,1750.0,,,,,,,,,,,31.0,30.0,,,B,,,,,,False,cue2.png,Easy,cue1.png,Hard,Right,Hard,Mid,0.0166786999907344,,,,,,,,,,,,,24,25,Male,0.8571428571428571,0.75,0.4,0.75,1.8333333333333333,1.5,2.4444444444444446,1.5555555555555556,1.75,2.0,1.75,1.75,2.25,1.5,1.0,1.0,0.3371314000105485,-0.9350748090365738,-1.0872825136147901,-0.8909873208937144,,,,,,,,,,,,,,,,,,,2.9980241894040152e-05,0.3478520303511591,8.190008317824878e-05,0.21968277376391765,1.2389999999999999,-0.352088858840902,,,,,,,,
30,240624_094914,FalseCHOICE,9.0,31,2.0,1750.0,,,,,,,,,,,32.0,31.0,,,B,,,,,,False,cue1.png,Hard,cue2.png,Easy,Left,Hard,Mid,0.0159791000187397,,,,,,,,,,,,,24,25,Male,0.8571428571428571,0.75,0.4,0.75,1.8333333333333333,1.5,2.4444444444444446,1.5555555555555556,1.75,2.0,1.75,1.75,2.25,1.5,0.1666666666666666,0.6666666666666667,0.3509459999913815,-0.671178119070548,-1.0471229135302087,-0.6067507872889387,,,,,,,,,,,,,,,,,,,-2.8683156865212493e-05,0.2509165331918733,7.61424754289362e-05,0.19910239983313444,,,,,,,,,,
31,240624_094930,FalseCHOICE,9.0,32,2.0,1750.0,,,,,,,,,,,33.0,32.0,,,B,,,,,,False,cue2.png,Easy,cue1.png,Hard,Right,Hard,Mid,0.0167384999804198,,,,,,,,,,,,,24,25,Male,0.8571428571428571,0.75,0.4,0.75,1.8333333333333333,1.5,2.4444444444444446,1.5555555555555556,1.75,2.0,1.75,1.75,2.25,1.5,0.75,0.8333333333333334,0.4010987750079948,0.28687722367249785,-0.9135475602920831,0.33865193832274,,,,,,,,,,,,,,,,,,,7.234956868389054e-05,0.4178631760321892,-3.0482918544280646e-05,-0.18202646028205466,1.4400000000000002,0.04671087098452827,,,,,,,,
32,240624_094946,FalseCHOICE,9.0,33,2.0,1750.0,,,,,,,,,,,34.0,33.0,,,B,,,,,,False,cue1.png,Hard,cue2.png,Easy,Left,Hard,Mid,0.0163243000861257,,,,,,,,,,,,,24,25,Male,0.8571428571428571,0.75,0.4,0.75,1.8333333333333333,1.5,2.4444444444444446,1.5555555555555556,1.75,2.0,1.75,1.75,2.25,1.5,0.75,0.8333333333333334,0.3715305749501567,-0.2779563679148727,-0.9901241168645765,-0.20333191982609022,,,,,,,,,,,,,,,,,,,,,0.00019144228053905466,0.6112376488167038,0.7760000000000001,-1.2707170922198765,,,,,,,,
33,240624_095002,FalseCHOICE,9.0,34,2.0,1750.0,,,,,,,,,,,35.0,34.0,,,B,,,,,,False,cue1.png,Hard,cue2.png,Easy,Left,Hard,Mid,0.0164229001384228,,,,,,,,,,,,,24,25,Male,0.8571428571428571,0.75,0.4,0.75,1.8333333333333333,1.5,2.4444444444444446,1.5555555555555556,1.75,2.0,1.75,1.75,2.25,1.5,1.0,1.0,0.4129589875228703,0.5134397610830493,-0.8844069947707709,0.544899344014428,,,,,,,,,,,,,,,,,,,3.562748385337565e-06,0.30419972037373233,-0.0002566053813697557,-0.9902935464956865,0.9740000000000001,-0.8778695971679606,,,,,,,,
34,240624_095019,FalseCHOICE,9.0,35,2.0,1750.0,,,,,,,,,,,36.0,35.0,,,B,,,,,,False,cue1.png,Hard,cue2.png,Easy,Left,Hard,Mid,0.0161333999130874,,,,,,,,,,,,,24,25,Male,0.8571428571428571,0.75,0.4,0.75,1.8333333333333333,1.5,2.4444444444444446,1.5555555555555556,1.75,2.0,1.75,1.75,2.25,1.5,0.75,0.8333333333333334,0.4521760375064332,1.2625928089638019,-0.7936837114613249,1.1870091138032302,,,,,,,,,,,,,,,,,,,-6.303727597270102e-05,0.19414972994509627,0.00014708312659104114,0.45267735515788443,,,,,,,,,,
35,240624_095036,FalseCHOICE,9.0,36,2.0,1750.0,,,,,,,,,,,37.0,36.0,,,B,,,,,,False,cue2.png,Easy,cue1.png,Hard,Right,Hard,Mid,0.0165392998605966,,,,,,,,,,,,,24,25,Male,0.8571428571428571,0.75,0.4,0.75,1.8333333333333333,1.5,2.4444444444444446,1.5555555555555556,1.75,2.0,1.75,1.75,2.25,1.5,0.75,0.8333333333333334,0.3986355625384021,0.23982312016530716,-0.919707656572042,0.2950527886897873,,,,,,,,,,,,,,,,,,,,,-0.00016019882377750483,-0.6456915709851113,0.9630000000000001,-0.8996944580041782,,,,,,,,
36,240624_095052,FalseCHOICE,9.0,37,2.0,1750.0,,,,,,,,,,,38.0,37.0,,,B,,,,,,False,cue1.png,Hard,cue2.png,Easy,Left,Hard,Mid,0.0161756000015884,,,,,,,,,,,,,24,25,Male,0.8571428571428571,0.75,0.4,0.75,1.8333333333333333,1.5,2.4444444444444446,1.5555555555555556,1.75,2.0,1.75,1.75,2.25,1.5,0.75,0.8333333333333334,0.3666247124783695,-0.37167177549304586,-1.003416535923849,-0.29741132073327786,,,,,,,,,,,,,,,,,,,,,-0.00035724234040108516,-1.3500169486967055,1.771,0.7034407743288921,,,,,,,,
37,240624_095110,FalseCHOICE,9.0,38,2.0,1750.0,,,,,,,,,,,39.0,38.0,,,B,,,,,,False,cue2.png,Easy,cue1.png,Hard,Right,Hard,Mid,0.0162332002073526,,,,,,,,,,,,,24,25,Male,0.8571428571428571,0.75,0.4,0.75,1.8333333333333333,1.5,2.4444444444444446,1.5555555555555556,1.75,2.0,1.75,1.75,2.25,1.5,0.75,0.8333333333333334,0.4187064374855254,0.6232317943662726,-0.8705852311396572,0.6427252729215397,,,,,,,,,,,,,,,,,,,0.0001172654605517947,0.4920822700610923,-0.00032301652560648214,-1.2276779326977845,1.528,0.22130975767426836,,,,,,,,
38,240624_095126,FalseCHOICE,9.0,39,2.0,1750.0,,,,,,,,,,,40.0,39.0,,,B,,,,,,False,cue2.png,Easy,cue1.png,Hard,Right,Hard,Mid,0.0165308997966349,,,,,,,,,,,,,24,25,Male,0.8571428571428571,0.75,0.4,0.75,1.8333333333333333,1.5,2.4444444444444446,1.5555555555555556,1.75,2.0,1.75,1.75,2.25,1.5,0.75,0.8333333333333334,0.3259428124583792,-1.1488074704606588,-1.121033334910464,-1.1298646112848538,,,,,,,,,,,,,,,,,,,-2.6872030675604685e-05,0.2539092411038087,-0.00020885496423175224,-0.8196112974021595,1.629,0.4217016617159022,,,,,,,,
39,240624_095142,FalseCHOICE,9.0,40,2.0,1750.0,,,,,,,,,,,41.0,40.0,,,B,,,,,,False,cue1.png,Hard,cue2.png,Easy,Left,Hard,Mid,0.0161466000135988,,,,,,,,,,,,,24,25,Male,0.8571428571428571,0.75,0.4,0.75,1.8333333333333333,1.5,2.4444444444444446,1.5555555555555556,1.75,2.0,1.75,1.75,2.25,1.5,0.75,0.8333333333333334,0.3687154750223271,-0.33173248549399553,-0.9977300027694901,-0.2571638962415148,,,,,,,,,,,,,,,,,,,-0.0008096373552329873,-1.0395334761586619,,,1.5990000000000002,0.3621793139807638,,,,,,,,
40,240624_095157,FalseCHOICE,9.0,41,2.0,1750.0,,,,,,,,,,,42.0,41.0,,,B,,,,,,False,cue1.png,Hard,cue2.png,Easy,Left,Hard,Mid,0.0147951000835746,,,,,,,,,,,,,24,25,Male,0.8571428571428571,0.75,0.4,0.75,1.8333333333333333,1.5,2.4444444444444446,1.5555555555555556,1.75,2.0,1.75,1.75,2.25,1.5,0.75,0.8333333333333334,0.3178306374757085,-1.3037722272630423,-1.1462366246309308,-1.3082452647399347,,,,,,,,,,,,,,,,,,,0.0002447137281563444,0.7026779982942465,,,1.7240000000000002,0.6101890962105087,,,,,,,,
41,240624_095214,FalseCHOICE,9.0,42,2.0,1750.0,,,,,,,,,,,43.0,42.0,,,B,,,,,,False,cue2.png,Easy,cue1.png,Hard,Right,Hard,Mid,0.0166301999706774,,,,,,,,,,,,,24,25,Male,0.8571428571428571,0.75,0.4,0.75,1.8333333333333333,1.5,2.4444444444444446,1.5555555555555556,1.75,2.0,1.75,1.75,2.25,1.5,0.1666666666666666,0.6666666666666667,0.3994666374928783,0.2556989276374184,-0.917625027919141,0.3097929541256934,,,,,,,,,,,,,,,,,,,-4.516882025663166e-05,0.22367559573091852,,,,,,,,,,,,
42,240624_095231,FalseCHOICE,9.0,43,2.0,1750.0,,,,,,,,,,,44.0,43.0,,,B,,,,,,False,cue1.png,Hard,cue2.png,Easy,Right,Easy,Mid,0.0168057999107986,,,,,,,,,,,,,24,25,Male,0.8571428571428571,0.75,0.4,0.75,1.8333333333333333,1.5,2.4444444444444446,1.5555555555555556,1.75,2.0,1.75,1.75,2.25,1.5,0.75,0.8333333333333334,0.4100682125717867,0.4582180433289274,-0.8914317609957818,0.49518034290446417,,,,,,,,,,,,,,,,,,,2.169908106425429e-05,0.33416822649612443,-8.343367054675999e-05,-0.37129713025037653,1.92,0.999068434746748,,,,,,,,
43,240624_095248,FalseCHOICE,9.0,44,2.0,1750.0,,,,,,,,,,,45.0,44.0,,,B,,,,,,False,cue2.png,Easy,cue1.png,Hard,Right,Hard,Mid,0.0164340001065284,,,,,,,,,,,,,24,25,Male,0.8571428571428571,0.75,0.4,0.75,1.8333333333333333,1.5,2.4444444444444446,1.5555555555555556,1.75,2.0,1.75,1.75,2.25,1.5,1.0,1.0,0.4251727375376504,0.7467558328799113,-0.8552597513675376,0.7511940135734124,,,,,,,,,,,,,,,,,,,,,,,2.015,1.1875558692413546,,,,,,,,
44,240624_095304,FalseCHOICE,9.0,45,2.0,1750.0,,,,,,,,,,,46.0,45.0,,,B,,,,,,False,cue1.png,Hard,cue2.png,Easy,Left,Hard,Mid,0.016087100142613,,,,,,,,,,,,,24,25,Male,0.8571428571428571,0.75,0.4,0.75,1.8333333333333333,1.5,2.4444444444444446,1.5555555555555556,1.75,2.0,1.75,1.75,2.25,1.5,0.1666666666666666,0.6666666666666667,0.3882940500043332,0.04227191124362927,-0.9459923655544658,0.10901820288117949,,,,,,,,,,,,,,,,,,,-2.8432710114523283e-05,0.2513303718170375,-0.0003109808169344014,-1.184656699613095,1.3910000000000002,-0.05050896364953157,,,,,,,,
45,240624_095320,FalseCHOICE,9.0,46,2.0,1750.0,,,,,,,,,,,47.0,46.0,,,B,,,,,,False,cue1.png,Hard,cue2.png,Easy,Left,Hard,Mid,0.016057200031355,,,,,,,,,,,,,24,25,Male,0.8571428571428571,0.75,0.4,0.75,1.8333333333333333,1.5,2.4444444444444446,1.5555555555555556,1.75,2.0,1.75,1.75,2.25,1.5,0.1666666666666666,0.6666666666666667,0.4066322250291705,0.39258127204934096,-0.8998461260607812,0.43562621503657273,,,,,,,,,,,,,,,,,,,,,,,,,,,,,,,,
46,240624_095336,FalseCHOICE,9.0,47,2.0,1750.0,,,,,,,,,,,48.0,47.0,,,B,,,,,,False,cue2.png,Easy,cue1.png,Hard,Left,Easy,Mid,0.0161550999619066,,,,,,,,,,,,,24,25,Male,0.8571428571428571,0.75,0.4,0.75,1.8333333333333333,1.5,2.4444444444444446,1.5555555555555556,1.75,2.0,1.75,1.75,2.25,1.5,0.75,0.8333333333333334,0.3567524625104852,-0.5602587843573278,-1.0307131200267712,-0.49060762817471215,,,,,,,,,,,,,,,,,,,0.0003893499419270895,0.9416751172072136,0.0005362261918931089,1.843656064578292,0.868,-1.0881818924987845,,,,,,,,
47,240624_095354,FalseCHOICE,9.0,48,2.0,1750.0,,,,,,,,,,,49.0,48.0,,,B,,,,,,False,cue2.png,Easy,cue1.png,Hard,Left,Easy,Mid,0.0140784999821335,,,,,,,,,,,,,24,25,Male,0.8571428571428571,0.75,0.4,0.75,1.8333333333333333,1.5,2.4444444444444446,1.5555555555555556,1.75,2.0,1.75,1.75,2.25,1.5,1.0,1.0,0.4839088250009808,1.8687759481661759,-0.7258587681080347,1.6670519117911773,,,,,,,,,,,,,,,,,,,-1.3762660741925212e-05,0.27557118566964045,-0.00013017722442775284,-0.5383803807270007,1.0759999999999998,-0.6754936148684894,,,,,,,,
48,240624_095410,FalseCHOICE,9.0,49,2.0,1750.0,,,,,,,,,,,50.0,49.0,,,B,,,,,,False,cue1.png,Hard,cue2.png,Easy,Left,Hard,Mid,0.0161772000137716,,,,,,,,,,,,,24,25,Male,0.8571428571428571,0.75,0.4,0.75,1.8333333333333333,1.5,2.4444444444444446,1.5555555555555556,1.75,2.0,1.75,1.75,2.25,1.5,0.75,0.8333333333333334,0.3186209374398459,-1.2886753337659098,-1.1437531666540137,-1.2906681602561914,,,,,,,,,,,,,,,,,,,0.00044136188025863284,1.0276197301519427,,,2.149,1.4534223557916408,,,,,,,,
49,240624_095426,FalseCHOICE,9.0,50,2.0,1750.0,,,,,,,,,,,51.0,50.0,,,B,,,,,,False,cue2.png,Easy,cue1.png,Hard,Left,Easy,Mid,0.0160310000646859,,,,,,,,,,,,,24,25,Male,0.8571428571428571,0.75,0.4,0.75,1.8333333333333333,1.5,2.4444444444444446,1.5555555555555556,1.75,2.0,1.75,1.75,2.25,1.5,0.1666666666666666,0.6666666666666667,0.4572162125550676,1.3588739545655126,-0.7825988871585473,1.2654638800061717,,,,,,,,,,,,,,,,,,,,,5.589456397136821e-05,0.12672692598049284,2.03,1.2173170431089233,,,,,,,,
0,240624_091853,OFFLINERATING,9.0,1,1.0,,,,,,,,,,,,,,,,,T0,cue2.png,Easy,59.0,1.3018270002212375,,,,,,,,,,,,,,,,,,,,,,24,25,Male,0.8571428571428571,0.75,0.4,0.75,1.8333333333333333,1.5,2.4444444444444446,1.5555555555555556,1.75,2.0,1.75,1.75,2.25,1.5,,,,,,,,,,,,,,,,,,,,,,,,,,,,,,,0.8546224932227665,5.074967099954336e-05,1.315753494141614,,,1.474,-0.65269786947906,
1,240624_091901,OFFLINERATING,9.0,2,3.0,,,,,,,,,,,,,,,,,T0,cue1.png,Hard,40.0,2.3024276001378894,,,,,,,,,,,,,,,,,,,,,,24,25,Male,0.8571428571428571,0.75,0.4,0.75,1.8333333333333333,1.5,2.4444444444444446,1.5555555555555556,1.75,2.0,1.75,1.75,2.25,1.5,,,,,,,,,,,,,,,,,,,,,,,,,,,,,,,-0.7491135434421781,-3.093343563907421e-05,0.040360177307002594,,,1.4469999999999998,-0.7601542260396376,
2,240624_093534,OFFLINERATING,9.0,3,1.0,,,,,,,,,,,,,,,,,T1,cue2.png,Easy,30.0,0.9971029001753776,,,,,,,,,,,,,,,,,,,,,,24,25,Male,0.8571428571428571,0.75,0.4,0.75,1.8333333333333333,1.5,2.4444444444444446,1.5555555555555556,1.75,2.0,1.75,1.75,2.25,1.5,,,,,,,,,,,,,,,,,,,,,,,,,,,,,,,-1.5931851416868859,,,0.00014453167081446543,1.7110901927602367,1.9929999999999999,1.4128520955186976,
3,240624_093542,OFFLINERATING,9.0,4,3.0,,,,,,,,,,,,,,,,,T1,cue1.png,Hard,42.0,1.2183570000343025,,,,,,,,,,,,,,,,,,,,,,24,25,Male,0.8571428571428571,0.75,0.4,0.75,1.8333333333333333,1.5,2.4444444444444446,1.5555555555555556,1.75,2.0,1.75,1.75,2.25,1.5,,,,,,,,,,,,,,,,,,,,,,,,,,,,,,,-0.5802992237932365,-0.00012951746358404138,-1.4989227364038764,,,,,
4,240624_093941,OFFLINERATING,9.0,5,1.0,,,,,,,,,,,,,,,,,T2,cue2.png,Easy,72.0,1.3851916999556124,,,,,,,,,,,,,,,,,,,,,,24,25,Male,0.8571428571428571,0.75,0.4,0.75,1.8333333333333333,1.5,2.4444444444444446,1.5555555555555556,1.75,2.0,1.75,1.75,2.25,1.5,,,,,,,,,,,,,,,,,,,,,,,,,,,,,,,1.9519155709408866,-2.4372053119405945e-05,0.14280906495525986,-0.0003365839414471686,-0.4875016431223093,,,
5,240624_093948,OFFLINERATING,9.0,6,3.0,,,,,,,,,,,,,,,,,T2,cue1.png,Hard,48.0,1.7690318999812007,,,,,,,,,,,,,,,,,,,,,,24,25,Male,0.8571428571428571,0.75,0.4,0.75,1.8333333333333333,1.5,2.4444444444444446,1.5555555555555556,1.75,2.0,1.75,1.75,2.25,1.5,,,,,,,,,,,,,,,,,,,,,,,,,,,,,,,-0.07385626484641192,,,-0.0003184244190512688,-0.4045166460330031,,,
6,240624_095442,OFFLINERATING,9.0,7,1.0,,,,,,,,,,,,,,,,,T3,cue2.png,Easy,50.0,1.2613551001995802,,,,,,,,,,,,,,,,,,,,,,24,25,Male,0.8571428571428571,0.75,0.4,0.75,1.8333333333333333,1.5,2.4444444444444446,1.5555555555555556,1.75,2.0,1.75,1.75,2.25,1.5,,,,,,,,,,,,,,,,,,,,,,,,,,,,,,,0.09495805480252961,,,,,,,
7,240624_095450,OFFLINERATING,9.0,8,3.0,,,,,,,,,,,,,,,,,T3,cue1.png,Hard,50.0,1.802309399936348,,,,,,,,,,,,,,,,,,,,,,24,25,Male,0.8571428571428571,0.75,0.4,0.75,1.8333333333333333,1.5,2.4444444444444446,1.5555555555555556,1.75,2.0,1.75,1.75,2.25,1.5,,,,,,,,,,,,,,,,,,,,,,,,,,,,,,,0.09495805480252961,,,-0.000409141123856521,-0.8190719036049243,,,
0,240624_094013,LEARNINGCHECK,9.0,1,,,,,,,,,,,,1.0,2.0,1.0,,,B,,,,,,,,,,,,,,,cue2.png,Easy,Left,Left,Easy,0.0133236001711338,1.0,,,,,,24,25,Male,0.8571428571428571,0.75,0.4,0.75,1.8333333333333333,1.5,2.4444444444444446,1.5555555555555556,1.75,2.0,1.75,1.75,2.25,1.5,,,,,,,,,,,,,,,,,,,,,,,,,,,,,,,,,,,,,,
1,240624_095505,LEARNINGCHECK,9.0,1,,,,,,,,,,,,1.0,1.0,1.0,,,B,,,,,,,,,,,,,,,cue2.png,Easy,Middle,Middle,Mid,0.0163073998410254,1.0,,,,,,24,25,Male,0.8571428571428571,0.75,0.4,0.75,1.8333333333333333,1.5,2.4444444444444446,1.5555555555555556,1.75,2.0,1.75,1.75,2.25,1.5,,,,,,,,,,,,,,,,,,,,,,,,,,,,,,,,,,,,,,
2,240624_094019,LEARNINGCHECK,9.0,2,,,,,,,,,,,,2.0,3.0,2.0,,,B,,,,,,,,,,,,,,,cue1.png,Hard,Right,Right,Hard,0.0148310998920351,1.0,,,,,,24,25,Male,0.8571428571428571,0.75,0.4,0.75,1.8333333333333333,1.5,2.4444444444444446,1.5555555555555556,1.75,2.0,1.75,1.75,2.25,1.5,,,,,,,,,,,,,,,,,,,,,,,,,,,,,,,,,,,,,,
3,240624_095509,LEARNINGCHECK,9.0,2,,,,,,,,,,,,2.0,2.0,2.0,,,B,,,,,,,,,,,,,,,cue1.png,Hard,Middle,Middle,Mid,0.0162078998982906,1.0,,,,,,24,25,Male,0.8571428571428571,0.75,0.4,0.75,1.8333333333333333,1.5,2.4444444444444446,1.5555555555555556,1.75,2.0,1.75,1.75,2.25,1.5,,,,,,,,,,,,,,,,,,,,,,,,,,,,,,,,,,,,,,
0,240624_095516,DEMANDRATING,9.0,-1,,,,,,,,,,,,,,,,,,,,,,,,,,,,,,,,,,,,,,,1.0,MentalDemand,1.0,50.0,2.1850016999524087,24,25,Male,0.8571428571428571,0.75,0.4,0.75,1.8333333333333333,1.5,2.4444444444444446,1.5555555555555556,1.75,2.0,1.75,1.75,2.25,1.5,,,,,,,,,,,,,,,,,,,,,,,,,,,,,,,,,,,,,,-0.25920627882813685
1,240624_095535,DEMANDRATING,9.0,-1,,,,,,,,,,,,,,,,,,,,,,,,,,,,,,,,,,,,,,,2.0,Effort,1.0,26.0,17.26064459979534,24,25,Male,0.8571428571428571,0.75,0.4,0.75,1.8333333333333333,1.5,2.4444444444444446,1.5555555555555556,1.75,2.0,1.75,1.75,2.25,1.5,,,,,,,,,,,,,,,,,,,,,,,,,,,,,,,,,,,,,,-1.1770514628753097
2,240624_095542,DEMANDRATING,9.0,-1,,,,,,,,,,,,,,,,,,,,,,,,,,,,,,,,,,,,,,,3.0,Frustration,1.0,20.0,5.067835799884051,24,25,Male,0.8571428571428571,0.75,0.4,0.75,1.8333333333333333,1.5,2.4444444444444446,1.5555555555555556,1.75,2.0,1.75,1.75,2.25,1.5,,,,,,,,,,,,,,,,,,,,,,,,,,,,,,,,,,,,,,-1.406512758887103
3,240624_095549,DEMANDRATING,9.0,-1,,,,,,,,,,,,,,,,,,,,,,,,,,,,,,,,,,,,,,,4.0,MentalDemand,2.0,40.0,5.692595799919218,24,25,Male,0.8571428571428571,0.75,0.4,0.75,1.8333333333333333,1.5,2.4444444444444446,1.5555555555555556,1.75,2.0,1.75,1.75,2.25,1.5,,,,,,,,,,,,,,,,,,,,,,,,,,,,,,,,,,,,,,-0.6416417721811256
4,240624_095556,DEMANDRATING,9.0,-1,,,,,,,,,,,,,,,,,,,,,,,,,,,,,,,,,,,,,,,5.0,Effort,2.0,63.0,6.175841100048274,24,25,Male,0.8571428571428571,0.75,0.4,0.75,1.8333333333333333,1.5,2.4444444444444446,1.5555555555555556,1.75,2.0,1.75,1.75,2.25,1.5,,,,,,,,,,,,,,,,,,,,,,,,,,,,,,,,,,,,,,0.23795986253074852
5,240624_095603,DEMANDRATING,9.0,-1,,,,,,,,,,,,,,,,,,,,,,,,,,,,,,,,,,,,,,,6.0,Frustration,2.0,46.0,5.1671847000252455,24,25,Male,0.8571428571428571,0.75,0.4,0.75,1.8333333333333333,1.5,2.4444444444444446,1.5555555555555556,1.75,2.0,1.75,1.75,2.25,1.5,,,,,,,,,,,,,,,,,,,,,,,,,,,,,,,,,,,,,,-0.41218047616933234
6,240624_095611,DEMANDRATING,9.0,-1,,,,,,,,,,,,,,,,,,,,,,,,,,,,,,,,,,,,,,,7.0,MentalDemand,3.0,75.0,6.435762400040403,24,25,Male,0.8571428571428571,0.75,0.4,0.75,1.8333333333333333,1.5,2.4444444444444446,1.5555555555555556,1.75,2.0,1.75,1.75,2.25,1.5,,,,,,,,,,,,,,,,,,,,,,,,,,,,,,,,,,,,,,0.696882454554335
7,240624_095617,DEMANDRATING,9.0,-1,,,,,,,,,,,,,,,,,,,,,,,,,,,,,,,,,,,,,,,8.0,Effort,3.0,91.0,3.8471147001255295,24,25,Male,0.8571428571428571,0.75,0.4,0.75,1.8333333333333333,1.5,2.4444444444444446,1.5555555555555556,1.75,2.0,1.75,1.75,2.25,1.5,,,,,,,,,,,,,,,,,,,,,,,,,,,,,,,,,,,,,,1.308779243919117
8,240624_095622,DEMANDRATING,9.0,-1,,,,,,,,,,,,,,,,,,,,,,,,,,,,,,,,,,,,,,,9.0,Frustration,3.0,100.0,3.842747999820858,24,25,Male,0.8571428571428571,0.75,0.4,0.75,1.8333333333333333,1.5,2.4444444444444446,1.5555555555555556,1.75,2.0,1.75,1.75,2.25,1.5,,,,,,,,,,,,,,,,,,,,,,,,,,,,,,,,,,,,,,1.6529711879368068
