,END,Phase,Block,TrialN,NbackLevel,ISI,Letter_Resp,Letter_RT,Letter_Accuracy,Trial_A_measure,Trial_ACC,Trial_RT,TrialCountCali,CaliEnd_A_measure,ISI_calibrated,TrialIndex,TrialNumber_total,TrialNumber_valid,CueLearning,TrialDemandLearning,CueMapping,OfflineRatingTimePoint,CueFigure,TrialDemand,OfflineRating,OfflineRatingRT,PhaseType,CueLeft,CueDemandLeft,CueRight,CueDemandRight,Choice,ChoiceDemand,TaskDemand,ChoiceRT,CueCheck,CueDemandCheck,CorrectAnswer,Answer,AnswerDemand,AnswerRT,AnswerACC,DemandRatingQuesIndex,QuesTLX,DemandLevel,DemandRating,DemandRatingRT,PID,Age,Gender,BAI_bis,BAI_bas_d,BAI_bas_rr,BAI_bas_fs,NFC,BFI_ext,BFI_agr,BFI_con,BFI_neu,BFI_open,UPPS_lps,UPPS_lpm,UPPS_pu,UPPS_ss,Task_A_measure,Task_ACC,Task_RT,Task_RT_z,Task_RT_log,Task_RT_log_z,cue_i_on_zyg_values,cue_i_on_zyg_zvalues,cue_e_on_zyg_values,cue_e_on_zyg_zvalues,cue_i_on_cor_values,cue_i_on_cor_zvalues,cue_e_on_cor_values,cue_e_on_cor_zvalues,cue_i_on_scr_values,cue_i_on_scr_zvalues,cue_e_on_scr_values,cue_e_on_scr_zvalues,cue_e_true_zyg_values,cue_e_true_zyg_zvalues,cue_e_true_cor_values,cue_e_true_cor_zvalues,cue_e_true_scr_values,cue_e_true_scr_zvalues,cue_e_false_zyg_values,cue_e_false_zyg_zvalues,cue_e_false_cor_values,cue_e_false_cor_zvalues,cue_e_false_scr_values,cue_e_false_scr_zvalues,OfflineRating_z,cue_i_off_zyg_values,cue_i_off_zyg_zvalues,cue_i_off_cor_values,cue_i_off_cor_zvalues,cue_i_off_scr_values,cue_i_off_scr_zvalues,DemandRating_z
0,240625_092138,PRACTICE,0.0,1,1.0,1472.0,,,,,,,,,,45.0,1.0,1.0,cue2.png,Easy,B,,,,,,,,,,,,,,,,,,,,,,,,,,,26,22,Female,0.42857142857142855,1.5,0.6,2.25,2.5,1.375,2.6666666666666665,2.6666666666666665,2.5,1.5555555555555556,1.5,2.25,2.75,2.75,,,,,,,,,,,,,,,,,,,,,,,,,,,,,,,,,,,,,,
0,240625_092434,LEARNING,1.0,1,1.0,1472.0,,,,,,,,,,1.0,1.0,1.0,cue2.png,Easy,B,,,,,,,,,,,,,,,,,,,,,,,,,,,26,22,Female,0.42857142857142855,1.5,0.6,2.25,2.5,1.375,2.6666666666666665,2.6666666666666665,2.5,1.5555555555555556,1.5,2.25,2.75,2.75,0.8194444444444444,0.8333333333333334,0.4051590444675336,0.8178259741262144,-0.9034755865740283,0.792440865725774,-0.00017527565732670253,-0.3332064225607819,,,,,-1.938613350085808e-05,-0.15964642031403212,,,,,,,,,,,,,,,,,,,,,,,,
1,240625_092453,LEARNING,1.0,2,3.0,1472.0,,,,,,,,,,2.0,2.0,2.0,cue1.png,Hard,B,,,,,,,,,,,,,,,,,,,,,,,,,,,26,22,Female,0.42857142857142855,1.5,0.6,2.25,2.5,1.375,2.6666666666666665,2.6666666666666665,2.5,1.5555555555555556,1.5,2.25,2.75,2.75,0.8194444444444444,0.8333333333333334,0.3725718999436746,0.034723767378634335,-0.9873252398054639,0.08943349327593696,-0.0004753725919429217,-0.8242235265999662,-0.00038798109052124146,-0.5564504880082481,0.00023579652398033257,0.2716470836045225,0.0002762823735580379,0.3016690812424561,1.435,-0.30735104113410117,1.4529999999999998,0.00011900729478594952,,,,,,,,,,,,,,,,,,,,
2,240625_092513,LEARNING,1.0,3,1.0,1472.0,,,,,,,,,,3.0,3.0,3.0,cue2.png,Easy,B,,,,,,,,,,,,,,,,,,,,,,,,,,,26,22,Female,0.42857142857142855,1.5,0.6,2.25,2.5,1.375,2.6666666666666665,2.6666666666666665,2.5,1.5555555555555556,1.5,2.25,2.75,2.75,0.8194444444444444,0.8333333333333334,0.3942605555057525,0.5559242063927389,-0.9307432798620067,0.5638246619325417,,,,,,,,,1.5460000000000003,-0.12368500847792199,1.4629999999999999,0.02154032035628778,,,,,,,,,,,,,,,,,,,,
3,240625_092533,LEARNING,1.0,4,3.0,1472.0,,,,,,,,,,4.0,4.0,4.0,cue1.png,Hard,B,,,,,,,,,,,,,,,,,,,,,,,,,,,26,22,Female,0.42857142857142855,1.5,0.6,2.25,2.5,1.375,2.6666666666666665,2.6666666666666665,2.5,1.5555555555555556,1.5,2.25,2.75,2.75,0.5,0.6666666666666667,0.4894851444340828,2.844267871232999,-0.7144011659213645,2.3776675964031964,,,,,0.002427591102098857,2.6858908443588203,,,1.578,-0.07073624230677167,1.932,1.026199902940723,,,,,,,,,,,,,,,,,,,,
4,240625_092553,LEARNING,1.0,5,3.0,1472.0,,,,,,,,,,5.0,5.0,5.0,cue1.png,Hard,B,,,,,,,,,,,,,,,,,,,,,,,,,,,26,22,Female,0.42857142857142855,1.5,0.6,2.25,2.5,1.375,2.6666666666666665,2.6666666666666665,2.5,1.5555555555555556,1.5,2.25,2.75,2.75,0.8194444444444444,0.8333333333333334,0.4263196999931501,1.3263380355682073,-0.8525657447066789,1.2192761928107538,-0.0004454114001840566,-0.7752011744396069,,,-0.0009939562056857456,-1.0829154673328343,,,1.5560000000000003,-0.1071385190494374,1.586,0.2850224710127605,,,,,,,,,,,,,,,,,,,,
5,240625_092612,LEARNING,1.0,6,1.0,1472.0,,,,,,,,,,6.0,6.0,6.0,cue2.png,Easy,B,,,,,,,,,,,,,,,,,,,,,,,,,,,26,22,Female,0.42857142857142855,1.5,0.6,2.25,2.5,1.375,2.6666666666666665,2.6666666666666665,2.5,1.5555555555555556,1.5,2.25,2.75,2.75,1.0,1.0,0.3540581888519227,-0.4101795287792463,-1.0382940040685829,-0.33789584752325663,-0.001417871574537384,-2.366335649755251,-0.0004780932146038223,-0.7037588326499776,-0.0001246152910576834,-0.1253435762157013,-0.0003776841097668615,-0.7186792786728741,,,1.58,0.27216968317585943,,,,,,,,,,,,,,,,,,,,
6,240625_092631,LEARNING,1.0,7,3.0,1472.0,,,,,,,,,,7.0,7.0,7.0,cue1.png,Hard,B,,,,,,,,,,,,,,,,,,,,,,,,,,,26,22,Female,0.42857142857142855,1.5,0.6,2.25,2.5,1.375,2.6666666666666665,2.6666666666666665,2.5,1.5555555555555556,1.5,2.25,2.75,2.75,0.5,0.6666666666666667,0.3667579889038784,-0.10499042457105019,-1.0030530792272978,-0.04243094074549252,0.00016745015175655912,0.2275598327518917,-0.0004414817296423028,-0.6439092030971932,,,0.0014549972923436063,2.1407539041768278,1.449,-0.2841859559342227,,,,,,,,,,,,,,,,,,,,,,
7,240625_092650,LEARNING,1.0,8,3.0,1472.0,,,,,,,,,,8.0,8.0,8.0,cue1.png,Hard,B,,,,,,,,,,,,,,,,,,,,,,,,,,,26,22,Female,0.42857142857142855,1.5,0.6,2.25,2.5,1.375,2.6666666666666665,2.6666666666666665,2.5,1.5555555555555556,1.5,2.25,2.75,2.75,0.5,0.6666666666666667,0.3717866778218497,0.01585408163682607,-0.9894350359079007,0.07174466383873987,0.0008565796662943787,1.3551100990317564,-0.0001795545651300844,-0.21573089286629096,-0.0006432423683025387,-0.6966070504010639,0.00012168931002916718,0.060465926573131976,2.629,1.6682997966269573,,,,,,,,,,,,,,,,,,,,,,
8,240625_092709,LEARNING,1.0,9,1.0,1472.0,,,,,,,,,,9.0,9.0,9.0,cue2.png,Easy,B,,,,,,,,,,,,,,,,,,,,,,,,,,,26,22,Female,0.42857142857142855,1.5,0.6,2.25,2.5,1.375,2.6666666666666665,2.6666666666666665,2.5,1.5555555555555556,1.5,2.25,2.75,2.75,1.0,1.0,0.3515489110464437,-0.4704800250493204,-1.0454064279197939,-0.39752741677481385,-0.0009873932586570546,-1.661989181553104,0.00011395105291361809,0.2640694356382645,-0.0010164051497466276,-1.1076427951926515,0.00019664373167394694,0.17741323678514026,,,,,,,,,,,,,,,,,,,,,,,,
9,240625_092729,LEARNING,1.0,10,1.0,1472.0,,,,,,,,,,10.0,10.0,10.0,cue2.png,Easy,B,,,,,,,,,,,,,,,,,,,,,,,,,,,26,22,Female,0.42857142857142855,1.5,0.6,2.25,2.5,1.375,2.6666666666666665,2.6666666666666665,2.5,1.5555555555555556,1.5,2.25,2.75,2.75,1.0,1.0,0.3666709888881693,-0.10708112338140444,-1.003290321056436,-0.04442000985323493,-0.0007298124496534601,-1.2405367496755157,0.0003211665661133258,0.6028093615283919,0.00018364760165044073,0.21420547314435023,0.00016183364130973894,0.1231009447682143,1.4499999999999997,-0.2825313069913748,1.2389999999999999,-0.45829709222135273,,,,,,,,,,,,,,,,,,,,
10,240625_092748,LEARNING,1.0,11,3.0,1472.0,,,,,,,,,,11.0,11.0,11.0,cue1.png,Hard,B,,,,,,,,,,,,,,,,,,,,,,,,,,,26,22,Female,0.42857142857142855,1.5,0.6,2.25,2.5,1.375,2.6666666666666665,2.6666666666666665,2.5,1.5555555555555556,1.5,2.25,2.75,2.75,0.8194444444444444,0.8333333333333334,0.3965191222830779,0.6101998618161627,-0.9250310113700821,0.6117171302788547,0.00015160237639192872,0.20162978193362593,-0.0008745569911244094,-1.3518672112310324,-0.00022159728985099566,-0.2321684528851305,0.00012156496548785959,0.06027191854363393,2.315,1.1487400285725413,1.6269999999999998,0.3728498545649173,,,,,,,,,,,,,,,,,,,,
11,240625_092807,LEARNING,1.0,12,1.0,1472.0,,,,,,,,,,12.0,12.0,12.0,cue2.png,Easy,B,,,,,,,,,,,,,,,,,,,,,,,,,,,26,22,Female,0.42857142857142855,1.5,0.6,2.25,2.5,1.375,2.6666666666666665,2.6666666666666665,2.5,1.5555555555555556,1.5,2.25,2.75,2.75,0.8194444444444444,0.8333333333333334,0.3497989443906893,-0.5125335025748701,-1.0503967341532199,-0.439366851258791,0.0009979138982983147,1.586360462814793,-0.000925838980911883,-1.4356990496482902,6.143433798426511e-05,0.07958856504853641,-1.855956009653428e-05,-0.15835676275671595,2.984,2.2557001713381597,,,,,,,,,,,,,,,,,,,,,,
12,240625_092826,LEARNING,1.0,13,1.0,1472.0,,,,,,,,,,13.0,13.0,13.0,cue2.png,Easy,B,,,,,,,,,,,,,,,,,,,,,,,,,,,26,22,Female,0.42857142857142855,1.5,0.6,2.25,2.5,1.375,2.6666666666666665,2.6666666666666665,2.5,1.5555555555555556,1.5,2.25,2.75,2.75,1.0,1.0,0.3467584778037336,-0.5855990052010375,-1.05912677076024,-0.5125607150372433,-0.0006876464056350846,-1.1715448792681449,2.2634376791503055e-05,0.1147919823023931,-4.906721252576204e-05,-0.04212798701151825,0.00013018532710307043,0.07372180024282737,1.8250000000000002,0.33796204657679757,1.659,0.4413980563617237,,,,,,,,,,,,,,,,,,,,
13,240625_092846,LEARNING,1.0,14,1.0,1472.0,,,,,,,,,,14.0,14.0,14.0,cue2.png,Easy,B,,,,,,,,,,,,,,,,,,,,,,,,,,,26,22,Female,0.42857142857142855,1.5,0.6,2.25,2.5,1.375,2.6666666666666665,2.6666666666666665,2.5,1.5555555555555556,1.5,2.25,2.75,2.75,0.5,0.6666666666666667,0.3993107222227586,0.6772848459429489,-0.9180154127246276,0.6705369032872252,6.740331826713287e-05,0.06386370399572168,1.0937362640686503e-05,0.09567060646812009,0.002630457623275666,2.909346654454613,-0.0015922686370108746,-2.613729502120281,,,1.4220000000000002,-0.06628706319586901,,,,,,,,,,,,,,,,,,,,
14,240625_092905,LEARNING,1.0,15,3.0,1472.0,,,,,,,,,,15.0,15.0,15.0,cue1.png,Hard,B,,,,,,,,,,,,,,,,,,,,,,,,,,,26,22,Female,0.42857142857142855,1.5,0.6,2.25,2.5,1.375,2.6666666666666665,2.6666666666666665,2.5,1.5555555555555556,1.5,2.25,2.75,2.75,0.125,0.5,0.4004604666649053,0.7049143735679192,-0.9151402272961697,0.6946428652735825,0.0006878245358884752,1.0789937983783366,-0.0010103512447671072,-1.57385317504688,-0.00028478057813365,-0.30176432698902633,-0.00025552738184472096,-0.5280847754893596,,,,,,,,,,,,,,,,,,,,,,,,
15,240625_092924,LEARNING,1.0,16,1.0,1472.0,,,,,,,,,,16.0,16.0,16.0,cue2.png,Easy,B,,,,,,,,,,,,,,,,,,,,,,,,,,,26,22,Female,0.42857142857142855,1.5,0.6,2.25,2.5,1.375,2.6666666666666665,2.6666666666666665,2.5,1.5555555555555556,1.5,2.25,2.75,2.75,0.8194444444444444,0.8333333333333334,0.3665004333015531,-0.1111797474923479,-1.0037555753872265,-0.048320768079476176,2.3942634209609195e-05,-0.007246449970955562,-0.0007295535328980737,-1.1148267506258347,-0.00023551241908949944,-0.2474958536732945,7.682508726506582e-05,-0.009533281770828596,,,,,,,,,,,,,,,,,,,,,,,,
16,240625_092944,LEARNING,1.0,17,1.0,1472.0,,,,,,,,,,17.0,17.0,17.0,cue2.png,Easy,B,,,,,,,,,,,,,,,,,,,,,,,,,,,26,22,Female,0.42857142857142855,1.5,0.6,2.25,2.5,1.375,2.6666666666666665,2.6666666666666665,2.5,1.5555555555555556,1.5,2.25,2.75,2.75,1.0,1.0,0.4212689111267941,1.2049624451367227,-0.8644839054406236,1.1193526446610744,,,0.0004872714545199955,0.8743448113604487,0.0001422479702724122,0.16860411855128837,0.0011591135889986543,1.6791026435514333,,,,,,,,,,,,,,,,,,,,,,,,
17,240625_093003,LEARNING,1.0,18,3.0,1472.0,,,,,,,,,,18.0,18.0,18.0,cue1.png,Hard,B,,,,,,,,,,,,,,,,,,,,,,,,,,,26,22,Female,0.42857142857142855,1.5,0.6,2.25,2.5,1.375,2.6666666666666665,2.6666666666666665,2.5,1.5555555555555556,1.5,2.25,2.75,2.75,0.5,0.6666666666666667,0.3883153000432584,0.41305367445802227,-0.9459376403855524,0.43643299057725976,0.0008457418619449032,1.3373773377403815,-0.0012181207878450822,-1.9134987862161028,-0.0005398524222062209,-0.5827238723059583,0.0011855299121102596,1.7203185967374146,,,1.7209999999999999,0.5742101973430346,,,,,,,,,,,,,,,,,,,,
18,240625_093023,LEARNING,1.0,19,3.0,1472.0,,,,,,,,,,19.0,19.0,19.0,cue1.png,Hard,B,,,,,,,,,,,,,,,,,,,,,,,,,,,26,22,Female,0.42857142857142855,1.5,0.6,2.25,2.5,1.375,2.6666666666666665,2.6666666666666665,2.5,1.5555555555555556,1.5,2.25,2.75,2.75,0.8194444444444444,0.8333333333333334,0.4231775333432274,1.2508285770539282,-0.8599634874105043,1.1572524698751112,-0.00038403270676692046,-0.6747736631425212,0.0009494944109734848,1.629951221305587,0.0014179931611846821,1.5738269885321698,,,,,,,,,,,,,,,,,,,,,,,,,,
19,240625_093043,LEARNING,1.0,20,3.0,1472.0,,,,,,,,,,20.0,20.0,20.0,cue1.png,Hard,B,,,,,,,,,,,,,,,,,,,,,,,,,,,26,22,Female,0.42857142857142855,1.5,0.6,2.25,2.5,1.375,2.6666666666666665,2.6666666666666665,2.5,1.5555555555555556,1.5,2.25,2.75,2.75,0.8194444444444444,0.8333333333333334,0.4038074999375062,0.7853469852658325,-0.9068169998793846,0.7644259831646759,0.0005715509629918864,0.8887475597321977,0.0003266143506988929,0.6117149792511435,-6.003287401289397e-05,-0.054206573249548605,5.283764227008913e-05,-0.04695958844444427,,,,,,,,,,,,,,,,,,,,,,,,
20,240625_093102,LEARNING,1.0,21,1.0,1472.0,,,,,,,,,,21.0,21.0,21.0,cue2.png,Easy,B,,,,,,,,,,,,,,,,,,,,,,,,,,,26,22,Female,0.42857142857142855,1.5,0.6,2.25,2.5,1.375,2.6666666666666665,2.6666666666666665,2.5,1.5555555555555556,1.5,2.25,2.75,2.75,0.8194444444444444,0.8333333333333334,0.3877014555554423,0.3983023674615864,-0.947519679977913,0.42316894649269743,0.00042166277862069543,0.643501261852633,-0.00031718388470509777,-0.44071668081845694,0.00040526158828181353,0.45831146275764584,1.7280373812143725e-05,-0.10243766183082745,2.854,2.0405958087678604,0.8129999999999997,-1.3708450286413303,,,,,,,,,,,,,,,,,,,,
21,240625_093122,LEARNING,1.0,22,3.0,1472.0,,,,,,,,,,22.0,22.0,22.0,cue1.png,Hard,B,,,,,,,,,,,,,,,,,,,,,,,,,,,26,22,Female,0.42857142857142855,1.5,0.6,2.25,2.5,1.375,2.6666666666666665,2.6666666666666665,2.5,1.5555555555555556,1.5,2.25,2.75,2.75,0.8194444444444444,0.8333333333333334,0.4050151333471553,0.8143676436222556,-0.903830846284428,0.7894623179808469,-0.0005248321972788385,-0.9051490855698388,0.001311276026165438,2.2213638796832593,,,7.021816172534789e-06,-0.11844353174858524,1.551,-0.11541176376368026,1.779,0.6984538130997452,,,,,,,,,,,,,,,,,,,,
22,240625_093142,LEARNING,1.0,23,3.0,1472.0,,,,,,,,,,23.0,23.0,23.0,cue1.png,Hard,B,,,,,,,,,,,,,,,,,,,,,,,,,,,26,22,Female,0.42857142857142855,1.5,0.6,2.25,2.5,1.375,2.6666666666666665,2.6666666666666665,2.5,1.5555555555555556,1.5,2.25,2.75,2.75,0.8194444444444444,0.8333333333333334,0.426381833333936,1.3278311629039388,-0.8524200117896678,1.2204980382343082,0.00034244639879628565,0.513887817238169,-7.43068828814638e-05,-0.04368010605745999,0.0008310555604481469,0.9273200326902293,-0.0008160919276651128,-1.402703168845699,2.048,0.7069487608320034,1.9809999999999999,1.1311643369420816,,,,,,,,,,,,,,,,,,,,
23,240625_093201,LEARNING,1.0,24,3.0,1472.0,,,,,,,,,,24.0,24.0,24.0,cue1.png,Hard,B,,,,,,,,,,,,,,,,,,,,,,,,,,,26,22,Female,0.42857142857142855,1.5,0.6,2.25,2.5,1.375,2.6666666666666665,2.6666666666666665,2.5,1.5555555555555556,1.5,2.25,2.75,2.75,0.125,0.5,0.3938385778261969,0.5457836538255673,-0.9318141545833062,0.55484629654842,0.00020720471267702927,0.2926060465710434,0.000764336789511033,1.327269834165738,-0.0021881364716658277,-2.398295241122208,-0.00028636811948330775,-0.5762039021885136,1.219,-0.6647552127893679,1.1870000000000003,-0.5696879201411613,,,,,,,,,,,,,,,,,,,,
24,240625_093221,LEARNING,1.0,25,1.0,1472.0,,,,,,,,,,25.0,25.0,25.0,cue2.png,Easy,B,,,,,,,,,,,,,,,,,,,,,,,,,,,26,22,Female,0.42857142857142855,1.5,0.6,2.25,2.5,1.375,2.6666666666666665,2.6666666666666665,2.5,1.5555555555555556,1.5,2.25,2.75,2.75,0.125,0.5,0.4383017222086589,1.6142782087672882,-0.8248477422731496,1.4516678522797548,0.000935726070065028,1.4846090491769133,-0.0007512588974784859,-1.1503090051918863,3.0060802016315495e-05,0.0450308723616413,-0.0005641876020256596,-1.0096705409119258,0.8400000000000001,-1.2918671621289335,1.75,0.6363320052213901,,,,,,,,,,,,,,,,,,,,
25,240625_093240,LEARNING,1.0,26,1.0,1472.0,,,,,,,,,,26.0,26.0,26.0,cue2.png,Easy,B,,,,,,,,,,,,,,,,,,,,,,,,,,,26,22,Female,0.42857142857142855,1.5,0.6,2.25,2.5,1.375,2.6666666666666665,2.6666666666666665,2.5,1.5555555555555556,1.5,2.25,2.75,2.75,1.0,1.0,0.3464734000153839,-0.5924497142279639,-1.0599492309313343,-0.5194563376372522,,,,,,,,,2.3360000000000003,1.1834876563723595,1.5310000000000001,0.1672052491745007,,,,,,,,,,,,,,,,,,,,
26,240625_093259,LEARNING,1.0,27,3.0,1472.0,,,,,,,,,,27.0,27.0,27.0,cue1.png,Hard,B,,,,,,,,,,,,,,,,,,,,,,,,,,,26,22,Female,0.42857142857142855,1.5,0.6,2.25,2.5,1.375,2.6666666666666665,2.6666666666666665,2.5,1.5555555555555556,1.5,2.25,2.75,2.75,0.8194444444444444,0.8333333333333334,0.3686823333717055,-0.058746470971662294,-0.9978198908875905,0.0014448517289061822,-0.0013850165550636385,-2.312578431155932,-6.020537643618672e-05,-0.020628051824393773,0.0002361698551178004,0.27205830479209414,0.0006137703173159925,0.8282331769341091,1.6360000000000001,0.025233396378438955,0.31400000000000006,-2.4397685504102697,,,,,,,,,,,,,,,,,,,,
27,240625_093319,LEARNING,1.0,28,1.0,1472.0,,,,,,,,,,28.0,28.0,28.0,cue2.png,Easy,B,,,,,,,,,,,,,,,,,,,,,,,,,,,26,22,Female,0.42857142857142855,1.5,0.6,2.25,2.5,1.375,2.6666666666666665,2.6666666666666665,2.5,1.5555555555555556,1.5,2.25,2.75,2.75,0.8194444444444444,0.8333333333333334,0.3906153332855966,0.46832581118510147,-0.9400320055865506,0.485946669438105,0.0004748933810928297,0.7305969074831159,0.0007256648385221172,1.2640519137999648,3.678094941004769e-05,0.052433059628020175,,,1.7009999999999996,0.13278557766358787,1.101,-0.7539112124700775,,,,,,,,,,,,,,,,,,,,
28,240625_093338,LEARNING,1.0,29,1.0,1472.0,,,,,,,,,,29.0,29.0,29.0,cue2.png,Easy,B,,,,,,,,,,,,,,,,,,,,,,,,,,,26,22,Female,0.42857142857142855,1.5,0.6,2.25,2.5,1.375,2.6666666666666665,2.6666666666666665,2.5,1.5555555555555556,1.5,2.25,2.75,2.75,1.0,1.0,0.3538672444410622,-0.41476811706139793,-1.0388334518875508,-0.3424186544660562,-6.19549043903607e-05,-0.14779157317053032,-7.325283474057115e-05,-0.041957029519331834,-0.00028887585350052163,-0.30627523923497585,,,1.9579999999999997,0.5580303559756417,0.953,-1.0709466457803043,,,,,,,,,,,,,,,,,,,,
29,240625_093357,LEARNING,1.0,30,3.0,1472.0,,,,,,,,,,30.0,30.0,30.0,cue1.png,Hard,B,,,,,,,,,,,,,,,,,,,,,,,,,,,26,22,Female,0.42857142857142855,1.5,0.6,2.25,2.5,1.375,2.6666666666666665,2.6666666666666665,2.5,1.5555555555555556,1.5,2.25,2.75,2.75,1.0,1.0,0.3577282889487428,-0.32198329290776423,-1.027981550161458,-0.25143477290500227,1.8139045679092802e-05,-0.016742252508670556,-0.0007133746419616324,-1.0883787485811582,-0.0001803829041228419,-0.18677114485687077,-0.00029768350352727714,-0.5938586809049639,1.126,-0.8186375644742748,2.082,1.34751959886325,,,,,,,,,,,,,,,,,,,,
30,240625_093416,LEARNING,1.0,31,3.0,1472.0,,,,,,,,,,31.0,31.0,31.0,cue1.png,Hard,B,,,,,,,,,,,,,,,,,,,,,,,,,,,26,22,Female,0.42857142857142855,1.5,0.6,2.25,2.5,1.375,2.6666666666666665,2.6666666666666665,2.5,1.5555555555555556,1.5,2.25,2.75,2.75,0.5,0.6666666666666667,0.3641027444456186,-0.16879864787810153,-1.010319186214165,-0.10335101118010472,,,0.0007835620367148133,1.3586977842862076,-6.617024875444667e-05,-0.060966841216779324,0.0012715583108274383,1.854544031488947,,,,,,,,,,,,,,,,,,,,,,,,
31,240625_093435,LEARNING,1.0,32,1.0,1472.0,,,,,,,,,,32.0,32.0,32.0,cue2.png,Easy,B,,,,,,,,,,,,,,,,,,,,,,,,,,,26,22,Female,0.42857142857142855,1.5,0.6,2.25,2.5,1.375,2.6666666666666665,2.6666666666666665,2.5,1.5555555555555556,1.5,2.25,2.75,2.75,1.0,1.0,0.3646492888219654,-0.15566463096878583,-1.008819239856922,-0.09077524840967825,,,,,-0.0006181349371632791,-0.6689514208171276,,,1.269,-0.5820227656469453,1.2730000000000001,-0.38546462781224605,,,,,,,,,,,,,,,,,,,,
32,240625_093454,LEARNING,1.0,33,1.0,1472.0,,,,,,,,,,33.0,33.0,33.0,cue2.png,Easy,B,,,,,,,,,,,,,,,,,,,,,,,,,,,26,22,Female,0.42857142857142855,1.5,0.6,2.25,2.5,1.375,2.6666666666666665,2.6666666666666665,2.5,1.5555555555555556,1.5,2.25,2.75,2.75,1.0,1.0,0.3720862221800619,0.02305243704237534,-0.9886296715119076,0.07849695303818403,-5.8438248038513406e-05,-0.1420376376296915,0.0006121767259458042,1.0785303075751422,0.0004939051961498722,0.5559516701761342,,,0.9040000000000001,-1.185969629786632,0.3779999999999999,-2.3026721468166587,,,,,,,,,,,,,,,,,,,,
33,240625_093513,LEARNING,1.0,34,1.0,1472.0,,,,,,,,,,34.0,34.0,34.0,cue2.png,Easy,B,,,,,,,,,,,,,,,,,,,,,,,,,,,26,22,Female,0.42857142857142855,1.5,0.6,2.25,2.5,1.375,2.6666666666666665,2.6666666666666665,2.5,1.5555555555555556,1.5,2.25,2.75,2.75,1.0,1.0,0.3354505111152927,-0.857340938927777,-1.0922808413038307,-0.7905291397191486,0.0007011357641633995,1.1007735635302751,-0.0004429762378173538,-0.6463523096997913,-6.817987158459337e-05,-0.06318042429047954,0.000376213267520666,0.45758582370490297,1.838,0.3594724828338273,2.044,1.2661186092295433,,,,,,,,,,,,,,,,,,,,
34,240625_093533,LEARNING,1.0,35,3.0,1472.0,,,,,,,,,,35.0,35.0,35.0,cue1.png,Hard,B,,,,,,,,,,,,,,,,,,,,,,,,,,,26,22,Female,0.42857142857142855,1.5,0.6,2.25,2.5,1.375,2.6666666666666665,2.6666666666666665,2.5,1.5555555555555556,1.5,2.25,2.75,2.75,0.8194444444444444,0.8333333333333334,0.3719214444669584,0.019092661104975525,-0.989072617796427,0.07478322863246849,-0.00011096854745998135,-0.2279874509099448,-0.00021920438317090535,-0.2805473548063793,0.000472125330719731,0.5319613269433648,0.0010791577923766052,1.5543519597942963,1.258,-0.6002239040182782,0.6620000000000001,-1.6943068558700067,,,,,,,,,,,,,,,,,,,,
35,240625_093552,LEARNING,1.0,36,3.0,1472.0,,,,,,,,,,36.0,36.0,36.0,cue1.png,Hard,B,,,,,,,,,,,,,,,,,,,,,,,,,,,26,22,Female,0.42857142857142855,1.5,0.6,2.25,2.5,1.375,2.6666666666666665,2.6666666666666665,2.5,1.5555555555555556,1.5,2.25,2.75,2.75,0.5,0.6666666666666667,0.3986408111846281,0.6611862027525192,-0.9196944901308955,0.6564592804226171,,,-0.000119465840829747,-0.11750248466448025,,,,,0.843,-1.286903215300388,2.069,1.3196718918832977,,,,,,,,,,,,,,,,,,,,
36,240625_093611,LEARNING,1.0,37,1.0,1472.0,,,,,,,,,,37.0,37.0,37.0,cue2.png,Easy,B,,,,,,,,,,,,,,,,,,,,,,,,,,,26,22,Female,0.42857142857142855,1.5,0.6,2.25,2.5,1.375,2.6666666666666665,2.6666666666666665,2.5,1.5555555555555556,1.5,2.25,2.75,2.75,0.8194444444444444,0.8333333333333334,0.3233413444831967,-1.148336521695875,-1.1290467197076022,-1.098779473219103,,,-0.0005556090607310819,-0.8304757544045381,,,0.0006566972872272996,0.8952097949443264,1.926,0.5050815898044914,1.2759999999999998,-0.3790382338937962,,,,,,,,,,,,,,,,,,,,
37,240625_093630,LEARNING,1.0,38,3.0,1472.0,,,,,,,,,,38.0,38.0,38.0,cue1.png,Hard,B,,,,,,,,,,,,,,,,,,,,,,,,,,,26,22,Female,0.42857142857142855,1.5,0.6,2.25,2.5,1.375,2.6666666666666665,2.6666666666666665,2.5,1.5555555555555556,1.5,2.25,2.75,2.75,0.5,0.6666666666666667,0.3119929888699617,-1.4210490423395286,-1.1647745629957797,-1.398326773241863,0.0008816464714516328,1.3961242803047835,-0.0009525605069680455,-1.4793813377944096,-0.0018832485422643971,-2.0624636861785146,-0.00011753980609403728,-0.3127902608682587,1.3870000000000002,-0.38677419039082683,1.67,0.4649615007293754,,,,,,,,,,,,,,,,,,,,
38,240625_093648,LEARNING,1.0,39,3.0,1472.0,,,,,,,,,,39.0,39.0,39.0,cue1.png,Hard,B,,,,,,,,,,,,,,,,,,,,,,,,,,,26,22,Female,0.42857142857142855,1.5,0.6,2.25,2.5,1.375,2.6666666666666665,2.6666666666666665,2.5,1.5555555555555556,1.5,2.25,2.75,2.75,0.5,0.6666666666666667,0.31871258889118,-1.2595702235610249,-1.1434655575822188,-1.219669052810282,0.00026649593322540695,0.38961804519690185,0.0004206890430293927,0.7655010245915701,0.0002488886226767609,0.2860679229973109,-3.8203191378787926e-05,-0.18900565298687655,0.9100000000000001,-1.1760417361295412,1.141,-0.6682259602240702,,,,,,,,,,,,,,,,,,,,
39,240625_093708,LEARNING,1.0,40,3.0,1472.0,,,,,,,,,,40.0,40.0,40.0,cue1.png,Hard,B,,,,,,,,,,,,,,,,,,,,,,,,,,,26,22,Female,0.42857142857142855,1.5,0.6,2.25,2.5,1.375,2.6666666666666665,2.6666666666666665,2.5,1.5555555555555556,1.5,2.25,2.75,2.75,1.0,1.0,0.3494080889245702,-0.5219261567183816,-1.0515147306498434,-0.44874029228340734,,,,,0.0001909571906319801,0.22225692548780315,,,2.462,1.391973423171265,1.2690000000000001,-0.3940331530368468,,,,,,,,,,,,,,,,,,,,
40,240625_093727,LEARNING,1.0,41,1.0,1472.0,,,,,,,,,,41.0,41.0,41.0,cue2.png,Easy,B,,,,,,,,,,,,,,,,,,,,,,,,,,,26,22,Female,0.42857142857142855,1.5,0.6,2.25,2.5,1.375,2.6666666666666665,2.6666666666666665,2.5,1.5555555555555556,1.5,2.25,2.75,2.75,0.8194444444444444,0.8333333333333334,0.3670980222781913,-0.09681907695274868,-1.002126375913661,-0.03466132886931402,-0.00035774368894019026,-0.6317597036103338,0.0007451916042381327,1.295972763109843,0.00021038308922839482,0.24365439354965898,-0.0007588489455652896,-1.3133900551135393,,,2.0540000000000003,1.2875399222910457,,,,,,,,,,,,,,,,,,,,
41,240625_093746,LEARNING,1.0,42,3.0,1472.0,,,,,,,,,,42.0,42.0,42.0,cue1.png,Hard,B,,,,,,,,,,,,,,,,,,,,,,,,,,,26,22,Female,0.42857142857142855,1.5,0.6,2.25,2.5,1.375,2.6666666666666665,2.6666666666666665,2.5,1.5555555555555556,1.5,2.25,2.75,2.75,0.8194444444444444,0.8333333333333334,0.3345614111102704,-0.8787069157915219,-1.0949348255014355,-0.8127805192464049,0.000918158763993487,1.4558655108130536,0.00032897504983509657,0.6155740679752383,0.00032619243636393836,0.371217440082524,2.5333182438163314e-05,-0.08987330221334999,,,,,,,,,,,,,,,,,,,,,,,,
42,240625_093804,LEARNING,1.0,43,3.0,1472.0,,,,,,,,,,43.0,43.0,43.0,cue1.png,Hard,B,,,,,,,,,,,,,,,,,,,,,,,,,,,26,22,Female,0.42857142857142855,1.5,0.6,2.25,2.5,1.375,2.6666666666666665,2.6666666666666665,2.5,1.5555555555555556,1.5,2.25,2.75,2.75,0.5,0.6666666666666667,0.2242458111658278,-3.529702914901728,-1.4950124575228076,-4.167088068819582,,,,,-0.0001432319598055039,-0.1458496842329211,,,1.569,-0.085628082792408,1.6810000000000003,0.48852494509702815,,,,,,,,,,,,,,,,,,,,
43,240625_093823,LEARNING,1.0,44,1.0,1472.0,,,,,,,,,,44.0,44.0,44.0,cue2.png,Easy,B,,,,,,,,,,,,,,,,,,,,,,,,,,,26,22,Female,0.42857142857142855,1.5,0.6,2.25,2.5,1.375,2.6666666666666665,2.6666666666666665,2.5,1.5555555555555556,1.5,2.25,2.75,2.75,0.8194444444444444,0.8333333333333334,0.3681621555652883,-0.07124687240475354,-0.9992317977434897,-0.01039277538888237,,,,,-0.0018947557379937544,-2.075138767945177,0.0006959462554477947,0.9564478268210379,0.9510000000000001,-1.1082011294727545,2.116,1.4203520632723565,,,,,,,,,,,,,,,,,,,,
44,240625_093842,LEARNING,1.0,45,1.0,1472.0,,,,,,,,,,45.0,45.0,45.0,cue2.png,Easy,B,,,,,,,,,,,,,,,,,,,,,,,,,,,26,22,Female,0.42857142857142855,1.5,0.6,2.25,2.5,1.375,2.6666666666666665,2.6666666666666665,2.5,1.5555555555555556,1.5,2.25,2.75,2.75,0.8194444444444444,0.8333333333333334,0.339985655568954,-0.7483568078701773,-1.0788518517650085,-0.6779385888162572,0.000166311241664701,0.22569635375374617,0.00027221068283702146,0.5227800624820478,5.6251637946944186e-05,0.0738798634421551,-0.0012591304646937798,-2.0939521183914835,2.693,1.7741973289692585,1.9989999999999999,1.169722700452785,,,,,,,,,,,,,,,,,,,,
45,240625_093901,LEARNING,1.0,46,1.0,1472.0,,,,,,,,,,46.0,46.0,46.0,cue2.png,Easy,B,,,,,,,,,,,,,,,,,,,,,,,,,,,26,22,Female,0.42857142857142855,1.5,0.6,2.25,2.5,1.375,2.6666666666666665,2.6666666666666665,2.5,1.5555555555555556,1.5,2.25,2.75,2.75,1.0,1.0,0.3194756888939689,-1.2412321548261118,-1.141074099158311,-1.199618726564161,0.000120078401440845,0.15005041172752873,0.000646564048623741,1.1347440483111357,,,-0.00012675254670132348,-0.3271643993121393,0.43300000000000005,-1.9653092818682556,,,,,,,,,,,,,,,,,,,,,,
46,240625_093921,LEARNING,1.0,47,3.0,1472.0,,,,,,,,,,47.0,47.0,47.0,cue1.png,Hard,B,,,,,,,,,,,,,,,,,,,,,,,,,,,26,22,Female,0.42857142857142855,1.5,0.6,2.25,2.5,1.375,2.6666666666666665,2.6666666666666665,2.5,1.5555555555555556,1.5,2.25,2.75,2.75,1.0,0.8888888888888888,0.3641936625353992,-0.1666137937652058,-1.010069512896045,-0.10125771470745482,2.2871262033211798e-05,-0.008999423769490245,,,0.00044096220784054386,0.4976354025488988,-0.00025312022126883866,-0.5243290136754409,1.0150000000000001,-1.0023035971304532,1.485,0.06866720909159228,,,,,,,,,,,,,,,,,,,,
47,240625_093940,LEARNING,1.0,48,3.0,1472.0,,,,,,,,,,48.0,48.0,48.0,cue1.png,Hard,B,,,,,,,,,,,,,,,,,,,,,,,,,,,26,22,Female,0.42857142857142855,1.5,0.6,2.25,2.5,1.375,2.6666666666666665,2.6666666666666665,2.5,1.5555555555555556,1.5,2.25,2.75,2.75,0.5,0.6666666666666667,0.2851766222156584,-2.0654735910618567,-1.2546465635925221,-2.151826359244197,6.978530294097889e-05,0.067761095409977,0.00024862774703647735,0.4842284994161643,,,3.555972673718573e-05,-0.07391738097093836,1.263,-0.5919506593040361,0.8289999999999997,-1.3365709277429274,,,,,,,,,,,,,,,,,,,,
48,240625_093959,LEARNING,1.0,49,1.0,1472.0,,,,,,,,,,49.0,49.0,49.0,cue2.png,Easy,B,,,,,,,,,,,,,,,,,,,,,,,,,,,26,22,Female,0.42857142857142855,1.5,0.6,2.25,2.5,1.375,2.6666666666666665,2.6666666666666665,2.5,1.5555555555555556,1.5,2.25,2.75,2.75,1.0,1.0,0.3769317444465641,0.13949526243212998,-0.9756911571388714,0.18697529066096286,-0.00019948307163557537,-0.3728144728243418,-0.0004222944567797652,-0.6125433304985252,,,0.0001339134663130067,0.0795386132223767,,,,,,,,,,,,,,,,,,,,,,,,
49,240625_094019,LEARNING,1.0,50,1.0,1472.0,,,,,,,,,,50.0,50.0,50.0,cue2.png,Easy,B,,,,,,,,,,,,,,,,,,,,,,,,,,,26,22,Female,0.42857142857142855,1.5,0.6,2.25,2.5,1.375,2.6666666666666665,2.6666666666666665,2.5,1.5555555555555556,1.5,2.25,2.75,2.75,0.8194444444444444,0.8333333333333334,0.4030685443431139,0.767589131206745,-0.90864864627966,0.7490692002384456,-0.0008088240843419393,-1.3698151913222245,,,,,,,1.5899999999999999,-0.05088045499259053,1.1869999999999998,-0.5696879201411623,,,,,,,,,,,,,,,,,,,,
0,240625_094143,TrueCHOICE,9.0,1,1.0,1472.0,,,,,,,,,,,1.0,1.0,,,B,,,,,,True,cue2.png,Easy,cue1.png,Hard,Left,Easy,Easy,0.0162823998834937,,,,,,,,,,,,,26,22,Female,0.42857142857142855,1.5,0.6,2.25,2.5,1.375,2.6666666666666665,2.6666666666666665,2.5,1.5555555555555556,1.5,2.25,2.75,2.75,0.8194444444444444,0.8333333333333334,0.33405436665958,0.03248265569763785,-1.0964515248218765,0.1344810516815653,,,,,,,,,,,,,,,,,1.466,-0.02939036850061269,,,,,,,,,,,,,,
1,240625_094200,TrueCHOICE,9.0,2,1.0,1472.0,,,,,,,,,,,2.0,2.0,,,B,,,,,,True,cue2.png,Easy,cue1.png,Hard,Left,Easy,Easy,0.0154567998833954,,,,,,,,,,,,,26,22,Female,0.42857142857142855,1.5,0.6,2.25,2.5,1.375,2.6666666666666665,2.6666666666666665,2.5,1.5555555555555556,1.5,2.25,2.75,2.75,,,,,,,,,,,,,,,,,,,-0.0009615449531571538,-1.3096785013580412,-0.0005899369147086865,-1.187044672098229,1.0510000000000002,-2.1638658808574998,,,,,,,,,,,,,,
2,240625_094218,TrueCHOICE,9.0,3,1.0,1472.0,,,,,,,,,,,3.0,3.0,,,B,,,,,,True,cue1.png,Hard,cue2.png,Easy,Right,Easy,Easy,0.0174777000211179,,,,,,,,,,,,,26,22,Female,0.42857142857142855,1.5,0.6,2.25,2.5,1.375,2.6666666666666665,2.6666666666666665,2.5,1.5555555555555556,1.5,2.25,2.75,2.75,0.8194444444444444,0.8333333333333334,0.3652632222510874,0.49993746014158735,-1.0071370284560048,0.4779097918891781,,,,,,,,,,,,,0.0004704175835965,0.08264825253819198,0.0005768726815850674,0.40492222113984144,1.5890000000000002,0.6032373134750444,,,,,,,,,,,,,,
3,240625_094235,TrueCHOICE,9.0,4,1.0,1472.0,,,,,,,,,,,4.0,4.0,,,B,,,,,,True,cue2.png,Easy,cue1.png,Hard,Left,Easy,Easy,0.0138648001011461,,,,,,,,,,,,,26,22,Female,0.42857142857142855,1.5,0.6,2.25,2.5,1.375,2.6666666666666665,2.6666666666666665,2.5,1.5555555555555556,1.5,2.25,2.75,2.75,0.8194444444444444,0.8333333333333334,0.3694138999821411,0.5621074503672951,-0.9958375833863813,0.5213579928330593,,,,,,,,,,,,,,,-0.0005936429658742158,-1.1921011189931718,1.4919999999999998,0.10433580817716723,,,,,,,,,,,,,,
4,240625_094252,TrueCHOICE,9.0,5,1.0,1472.0,,,,,,,,,,,5.0,5.0,,,B,,,,,,True,cue1.png,Hard,cue2.png,Easy,Right,Easy,Easy,0.0170128000900149,,,,,,,,,,,,,26,22,Female,0.42857142857142855,1.5,0.6,2.25,2.5,1.375,2.6666666666666665,2.6666666666666665,2.5,1.5555555555555556,1.5,2.25,2.75,2.75,0.5,0.6666666666666667,0.1657341999622682,-2.4886629972328675,-1.7973699789710376,-2.560664210187646,,,,,,,,,,,,,-0.00011384159147103702,-0.4854390121608431,,,1.5879999999999999,0.5980939989874358,,,,,,,,,,,,,,
5,240625_094308,TrueCHOICE,9.0,6,1.0,1472.0,,,,,,,,,,,6.0,6.0,,,B,,,,,,True,cue1.png,Hard,cue2.png,Easy,Right,Easy,Easy,0.0157097000628709,,,,,,,,,,,,,26,22,Female,0.42857142857142855,1.5,0.6,2.25,2.5,1.375,2.6666666666666665,2.6666666666666665,2.5,1.5555555555555556,1.5,2.25,2.75,2.75,1.0,1.0,0.370366244447521,0.5763719271444756,-0.9932629130640269,0.5312580182626822,,,,,,,,,,,,,0.0016566690266740219,1.2360650345087862,0.00047368946525255936,0.2641415274765887,,,,,,,,,,,,,,,,
6,240625_094326,TrueCHOICE,9.0,7,1.0,1472.0,,,,,,,,,,,7.0,7.0,,,B,,,,,,True,cue2.png,Easy,cue1.png,Hard,Left,Easy,Easy,0.0161373999435454,,,,,,,,,,,,,26,22,Female,0.42857142857142855,1.5,0.6,2.25,2.5,1.375,2.6666666666666665,2.6666666666666665,2.5,1.5555555555555556,1.5,2.25,2.75,2.75,,,,,,,,,,,,,,,,,,,0.001757245787618298,1.3338578967441426,-0.0003254357789699803,-0.826165696936047,,,,,,,,,,,,,,,,
7,240625_094344,TrueCHOICE,9.0,8,1.0,1472.0,,,,,,,,,,,8.0,8.0,,,B,,,,,,True,cue1.png,Hard,cue2.png,Easy,Right,Easy,Easy,0.0164987000171095,,,,,,,,,,,,,26,22,Female,0.42857142857142855,1.5,0.6,2.25,2.5,1.375,2.6666666666666665,2.6666666666666665,2.5,1.5555555555555556,1.5,2.25,2.75,2.75,0.8194444444444444,0.8333333333333334,0.3879875777703192,0.8403090938982546,-0.9467819559272668,0.7099848454031557,,,,,,,,,,,,,-0.0004964465023139953,-0.8574536702722363,0.0011095029843004186,1.1316301698502127,,,,,,,,,,,,,,,,
8,240625_094400,TrueCHOICE,9.0,9,1.0,1472.0,,,,,,,,,,,9.0,9.0,,,B,,,,,,True,cue2.png,Easy,cue1.png,Hard,Left,Easy,Easy,0.0166798999998718,,,,,,,,,,,,,26,22,Female,0.42857142857142855,1.5,0.6,2.25,2.5,1.375,2.6666666666666665,2.6666666666666665,2.5,1.5555555555555556,1.5,2.25,2.75,2.75,1.0,1.0,0.3522993555654668,0.305761106939669,-1.0432740228575468,0.3389571809784891,,,,,,,,,,,,,,,0.0013095852341276854,1.4046175695608047,1.7080000000000002,1.2152917375002725,,,,,,,,,,,,,,
9,240625_094417,TrueCHOICE,9.0,10,1.0,1472.0,,,,,,,,,,,10.0,10.0,,,B,,,,,,True,cue1.png,Hard,cue2.png,Easy,Right,Easy,Easy,0.0157456998713314,,,,,,,,,,,,,26,22,Female,0.42857142857142855,1.5,0.6,2.25,2.5,1.375,2.6666666666666665,2.6666666666666665,2.5,1.5555555555555556,1.5,2.25,2.75,2.75,0.8194444444444444,0.8333333333333334,0.3099668555272122,-0.3283066969560515,-1.171289904873199,-0.1532846708604837,,,,,,,,,,,,,,,,,1.408,-0.32770260878181656,,,,,,,,,,,,,,
0,240625_094526,FalseCHOICE,9.0,1,2.0,1472.0,,,,,,,,,,,1.0,1.0,,,B,,,,,,False,cue2.png,Easy,cue1.png,Hard,Right,Hard,Mid,0.0166694000363349,,,,,,,,,,,,,26,22,Female,0.42857142857142855,1.5,0.6,2.25,2.5,1.375,2.6666666666666665,2.6666666666666665,2.5,1.5555555555555556,1.5,2.25,2.75,2.75,1.0,1.0,0.3622684555593878,1.3069479293189026,-1.015369752055256,1.297484291944792,,,,,,,,,,,,,,,,,,,0.0004539291213926915,0.5811498018563197,0.0002445304572287672,0.31478620176324795,,,,,,,,,,
1,240625_094543,FalseCHOICE,9.0,2,2.0,1472.0,,,,,,,,,,,2.0,2.0,,,B,,,,,,False,cue1.png,Hard,cue2.png,Easy,Right,Easy,Mid,0.0172824999317526,,,,,,,,,,,,,26,22,Female,0.42857142857142855,1.5,0.6,2.25,2.5,1.375,2.6666666666666665,2.6666666666666665,2.5,1.5555555555555556,1.5,2.25,2.75,2.75,,,,,,,,,,,,,,,,,,,,,,,,,0.00010407333405701782,0.3122755092880947,-2.1203034754897765e-05,0.04645047715080477,1.11,-0.8881740948905936,,,,,,,,
2,240625_094559,FalseCHOICE,9.0,3,2.0,1472.0,,,,,,,,,,,3.0,3.0,,,B,,,,,,False,cue1.png,Hard,cue2.png,Easy,Right,Easy,Mid,0.0166190001182258,,,,,,,,,,,,,26,22,Female,0.42857142857142855,1.5,0.6,2.25,2.5,1.375,2.6666666666666665,2.6666666666666665,2.5,1.5555555555555556,1.5,2.25,2.75,2.75,,,,,,,,,,,,,,,,,,,,,,,,,-0.002129915929901414,-1.4046098608987925,0.00010445246876637001,0.1733364798794088,1.591,0.25697962196412066,,,,,,,,
3,240625_094621,FalseCHOICE,9.0,4,2.0,1472.0,,,,,,,,,,,5.0,4.0,,,B,,,,,,False,cue1.png,Hard,cue2.png,Easy,Right,Easy,Mid,0.0165529001969844,,,,,,,,,,,,,26,22,Female,0.42857142857142855,1.5,0.6,2.25,2.5,1.375,2.6666666666666665,2.6666666666666665,2.5,1.5555555555555556,1.5,2.25,2.75,2.75,0.5,0.6666666666666667,0.2760492111297531,-0.096724996401001,-1.2871761279639982,0.005128271998796029,,,,,,,,,,,,,,,,,,,-0.0018125744625222626,-1.160723763733089,0.0009943367513649713,1.0719350795884681,1.579,0.2284102984667057,,,,,,,,
4,240625_094636,FalseCHOICE,9.0,5,2.0,1472.0,,,,,,,,,,,6.0,5.0,,,B,,,,,,False,cue2.png,Easy,cue1.png,Hard,Left,Easy,Mid,0.0134825999848544,,,,,,,,,,,,,26,22,Female,0.42857142857142855,1.5,0.6,2.25,2.5,1.375,2.6666666666666665,2.6666666666666665,2.5,1.5555555555555556,1.5,2.25,2.75,2.75,,,,,,,,,,,,,,,,,,,,,,,,,,,-0.00011273527586205161,-0.04597810631280626,1.5430000000000001,0.14270232797446142,,,,,,,,
5,240625_094653,FalseCHOICE,9.0,6,2.0,1472.0,,,,,,,,,,,7.0,6.0,,,B,,,,,,False,cue1.png,Hard,cue2.png,Easy,Right,Easy,Mid,0.0171155999414622,,,,,,,,,,,,,26,22,Female,0.42857142857142855,1.5,0.6,2.25,2.5,1.375,2.6666666666666665,2.6666666666666665,2.5,1.5555555555555556,1.5,2.25,2.75,2.75,0.5,0.6666666666666667,0.2885732444054965,0.10716969725202939,-1.242806345167703,0.21609299167755958,,,,,,,,,,,,,,,,,,,,,0.00021347819605760593,0.2834298569531982,,,,,,,,,,
6,240625_094709,FalseCHOICE,9.0,7,2.0,1472.0,,,,,,,,,,,8.0,7.0,,,B,,,,,,False,cue1.png,Hard,cue2.png,Easy,Right,Easy,Mid,0.017054800176993,,,,,,,,,,,,,26,22,Female,0.42857142857142855,1.5,0.6,2.25,2.5,1.375,2.6666666666666665,2.6666666666666665,2.5,1.5555555555555556,1.5,2.25,2.75,2.75,1.0,1.0,0.5149175444514387,3.7921169264614414,-0.6637484989983169,2.9693355927459892,,,,,,,,,,,,,,,,,,,-0.001201102723396838,-0.6907900446573878,1.9755333788548223e-05,0.08780993628411074,1.3239999999999998,-0.3786878258533615,,,,,,,,
7,240625_094725,FalseCHOICE,9.0,8,2.0,1472.0,,,,,,,,,,,9.0,8.0,,,B,,,,,,False,cue2.png,Easy,cue1.png,Hard,Left,Easy,Mid,0.0162609999533742,,,,,,,,,,,,,26,22,Female,0.42857142857142855,1.5,0.6,2.25,2.5,1.375,2.6666666666666665,2.6666666666666665,2.5,1.5555555555555556,1.5,2.25,2.75,2.75,,,,,,,,,,,,,,,,,,,,,,,,,-0.002047061955920802,-1.340934185243529,-0.0019177873452254006,-1.8687064021708937,,,,,,,,,,
8,240625_094741,FalseCHOICE,9.0,9,2.0,1472.0,,,,,,,,,,,10.0,9.0,,,B,,,,,,False,cue2.png,Easy,cue1.png,Hard,Left,Easy,Mid,0.0134584000334143,,,,,,,,,,,,,26,22,Female,0.42857142857142855,1.5,0.6,2.25,2.5,1.375,2.6666666666666665,2.6666666666666665,2.5,1.5555555555555556,1.5,2.25,2.75,2.75,0.8194444444444444,0.8333333333333334,0.3134000555405186,0.5113569857480765,-1.1602747718409643,0.608505330305833,,,,,,,,,,,,,,,,,,,-0.0009342356186827026,-0.48569495523158807,,,,,,,,,,,,
9,240625_094758,FalseCHOICE,9.0,10,2.0,1472.0,,,,,,,,,,,11.0,10.0,,,B,,,,,,False,cue1.png,Hard,cue2.png,Easy,Right,Easy,Mid,0.015665499959141,,,,,,,,,,,,,26,22,Female,0.42857142857142855,1.5,0.6,2.25,2.5,1.375,2.6666666666666665,2.6666666666666665,2.5,1.5555555555555556,1.5,2.25,2.75,2.75,,,,,,,,,,,,,,,,,,,,,,,,,0.001497065189253577,1.3828300439767467,0.00020097445623563697,0.27080367249881354,0.8969999999999998,-1.3952795869697092,,,,,,,,
10,240625_094814,FalseCHOICE,9.0,11,2.0,1472.0,,,,,,,,,,,12.0,11.0,,,B,,,,,,False,cue2.png,Easy,cue1.png,Hard,Left,Easy,Mid,0.0168918999843299,,,,,,,,,,,,,26,22,Female,0.42857142857142855,1.5,0.6,2.25,2.5,1.375,2.6666666666666665,2.6666666666666665,2.5,1.5555555555555556,1.5,2.25,2.75,2.75,0.5,0.6666666666666667,0.2710703333270632,-0.17778249137600352,-1.3053769592029991,-0.08141110273478795,,,,,,,,,,,,,,,,,,,-0.0005324157934817764,-0.17688479644142518,,,1.468,-0.03585594388438223,,,,,,,,
11,240625_094830,FalseCHOICE,9.0,12,2.0,1472.0,,,,,,,,,,,13.0,12.0,,,B,,,,,,False,cue1.png,Hard,cue2.png,Easy,Right,Easy,Mid,0.0165745001286268,,,,,,,,,,,,,26,22,Female,0.42857142857142855,1.5,0.6,2.25,2.5,1.375,2.6666666666666665,2.6666666666666665,2.5,1.5555555555555556,1.5,2.25,2.75,2.75,,,,,,,,,,,,,,,,,,,,,,,,,0.001806892990700814,1.6209416715319216,,,0.7989999999999999,-1.628595728865264,,,,,,,,
12,240625_094846,FalseCHOICE,9.0,13,2.0,1472.0,,,,,,,,,,,14.0,13.0,,,B,,,,,,False,cue2.png,Easy,cue1.png,Hard,Left,Easy,Mid,0.0140640998724848,,,,,,,,,,,,,26,22,Female,0.42857142857142855,1.5,0.6,2.25,2.5,1.375,2.6666666666666665,2.6666666666666665,2.5,1.5555555555555556,1.5,2.25,2.75,2.75,0.5,0.6666666666666667,0.3083105555528568,0.42849853128826054,-1.1766477067492578,0.5306570424495491,,,,,,,,,,,,,,,,,,,0.0007177409812447882,0.783896847228999,8.013947553981316e-06,0.07595357087195279,0.5570000000000002,-2.2047437527297977,,,,,,,,
13,240625_094902,FalseCHOICE,9.0,14,2.0,1472.0,,,,,,,,,,,15.0,14.0,,,B,,,,,,False,cue1.png,Hard,cue2.png,Easy,Right,Easy,Mid,0.0164216000121086,,,,,,,,,,,,,26,22,Female,0.42857142857142855,1.5,0.6,2.25,2.5,1.375,2.6666666666666665,2.6666666666666665,2.5,1.5555555555555556,1.5,2.25,2.75,2.75,0.8194444444444444,0.8333333333333334,0.3011522888878567,0.3119599884233415,-1.200139199030317,0.4189621958314744,,,,,,,,,,,,,,,,,,,,,-8.506127409491082e-06,0.059271720748793506,,,,,,,,,,
14,240625_094918,FalseCHOICE,9.0,15,2.0,1472.0,,,,,,,,,,,16.0,15.0,,,B,,,,,,False,cue2.png,Easy,cue1.png,Hard,Left,Easy,Mid,0.0161981999408453,,,,,,,,,,,,,26,22,Female,0.42857142857142855,1.5,0.6,2.25,2.5,1.375,2.6666666666666665,2.6666666666666665,2.5,1.5555555555555556,1.5,2.25,2.75,2.75,,,,,,,,,,,,,,,,,,,,,,,,,,,,,,,,,,,,,,
15,240625_094935,FalseCHOICE,9.0,16,2.0,1472.0,,,,,,,,,,,17.0,16.0,,,B,,,,,,False,cue2.png,Easy,cue1.png,Hard,Left,Easy,Mid,0.0171535999979823,,,,,,,,,,,,,26,22,Female,0.42857142857142855,1.5,0.6,2.25,2.5,1.375,2.6666666666666665,2.6666666666666665,2.5,1.5555555555555556,1.5,2.25,2.75,2.75,0.8194444444444444,0.8333333333333334,0.3715230888273153,1.4576158949406415,-0.9901442664801603,1.4174237452782241,,,,,,,,,,,,,,,,,,,-0.0020390462988289244,-1.3347739209058684,-0.0004624909060458914,-0.3991587677419331,,,,,,,,,,
16,240625_094952,FalseCHOICE,9.0,17,2.0,1472.0,,,,,,,,,,,18.0,17.0,,,B,,,,,,False,cue1.png,Hard,cue2.png,Easy,Left,Hard,Mid,0.0156115998979657,,,,,,,,,,,,,26,22,Female,0.42857142857142855,1.5,0.6,2.25,2.5,1.375,2.6666666666666665,2.6666666666666665,2.5,1.5555555555555556,1.5,2.25,2.75,2.75,0.8194444444444444,0.8333333333333334,0.3182351666813095,0.5900739200714091,-1.1449646516448078,0.681300259915,,,,,,,,,,,,,,,,,,,0.0002316492284854324,0.41032127444300165,2.439888550461117e-05,0.0924989606340474,,,,,,,,,,
17,240625_095008,FalseCHOICE,9.0,18,2.0,1472.0,,,,,,,,,,,19.0,18.0,,,B,,,,,,False,cue1.png,Hard,cue2.png,Easy,Right,Easy,Mid,0.0165236999746412,,,,,,,,,,,,,26,22,Female,0.42857142857142855,1.5,0.6,2.25,2.5,1.375,2.6666666666666665,2.6666666666666665,2.5,1.5555555555555556,1.5,2.25,2.75,2.75,0.5,0.6666666666666667,0.2476373333483934,-0.5592781523046716,-1.3957899686478732,-0.5112972547680563,,,,,,,,,,,,,,,,,,,-0.0008830183878223413,-0.4463330317952027,-0.0011079982143405555,-1.0509872972241112,,,,,,,,,,
18,240625_095023,FalseCHOICE,9.0,19,2.0,1472.0,,,,,,,,,,,20.0,19.0,,,B,,,,,,False,cue2.png,Easy,cue1.png,Hard,Left,Easy,Mid,0.0161852999590337,,,,,,,,,,,,,26,22,Female,0.42857142857142855,1.5,0.6,2.25,2.5,1.375,2.6666666666666665,2.6666666666666665,2.5,1.5555555555555556,1.5,2.25,2.75,2.75,0.8194444444444444,0.8333333333333334,0.2191801555713431,-1.0225688045516095,-1.5178612591591005,-1.0917088313078513,,,,,,,,,,,,,,,,,,,0.001979170190389427,1.7533416828184791,-5.2572251210723526e-05,0.01477407322684618,,,,,,,,,,
19,240625_095040,FalseCHOICE,9.0,20,2.0,1472.0,,,,,,,,,,,21.0,20.0,,,B,,,,,,False,cue2.png,Easy,cue1.png,Hard,Left,Easy,Mid,0.0163026999216526,,,,,,,,,,,,,26,22,Female,0.42857142857142855,1.5,0.6,2.25,2.5,1.375,2.6666666666666665,2.6666666666666665,2.5,1.5555555555555556,1.5,2.25,2.75,2.75,0.5,0.6666666666666667,0.23283976668285,-0.8001865925533012,-1.4574047586283656,-0.8042566987206604,,,,,,,,,,,,,,,,,,,0.002007623321118505,1.7752087368249114,,,1.026,-1.0881593593724983,,,,,,,,
20,240625_095056,FalseCHOICE,9.0,21,2.0,1472.0,,,,,,,,,,,22.0,21.0,,,B,,,,,,False,cue2.png,Easy,cue1.png,Hard,Left,Easy,Mid,0.0170892998576164,,,,,,,,,,,,,26,22,Female,0.42857142857142855,1.5,0.6,2.25,2.5,1.375,2.6666666666666665,2.6666666666666665,2.5,1.5555555555555556,1.5,2.25,2.75,2.75,0.8194444444444444,0.8333333333333334,0.2541373333531535,-0.453456371051332,-1.3698804755869831,-0.3881055554598969,,,,,,,,,,,,,,,,,,,-0.0006704501323108493,-0.2829681786413607,0.0016996822530885827,1.7841877764324447,1.7439999999999998,0.6212384965561604,,,,,,,,
21,240625_095112,FalseCHOICE,9.0,22,2.0,1472.0,,,,,,,,,,,23.0,22.0,,,B,,,,,,False,cue1.png,Hard,cue2.png,Easy,Right,Easy,Mid,0.015138000017032,,,,,,,,,,,,,26,22,Female,0.42857142857142855,1.5,0.6,2.25,2.5,1.375,2.6666666666666665,2.6666666666666665,2.5,1.5555555555555556,1.5,2.25,2.75,2.75,0.8194444444444444,0.8333333333333334,0.2397705333359125,-0.6873518122238836,-1.42807292410628,-0.664792814571731,,,,,,,,,,,,,,,,,,,0.0003161734638168854,0.4752805942607112,0.0004061496613267106,0.4779880846692006,1.9340000000000002,1.0735861185985642,,,,,,,,
22,240625_095129,FalseCHOICE,9.0,23,2.0,1472.0,,,,,,,,,,,24.0,23.0,,,B,,,,,,False,cue2.png,Easy,cue1.png,Hard,Left,Easy,Mid,0.0167715998832136,,,,,,,,,,,,,26,22,Female,0.42857142857142855,1.5,0.6,2.25,2.5,1.375,2.6666666666666665,2.6666666666666665,2.5,1.5555555555555556,1.5,2.25,2.75,2.75,0.5,0.5555555555555556,0.2651814000273589,-0.27365593922222614,-1.3273411587734918,-0.18584414056665913,,,,,,,,,,,,,,,,,,,-0.0033618392760794216,-2.3513785873057307,0.0006757213543091794,0.7501995964040498,1.083,-0.9524550727597775,,,,,,,,
23,240625_095146,FalseCHOICE,9.0,24,2.0,1472.0,,,,,,,,,,,25.0,24.0,,,B,,,,,,False,cue1.png,Hard,cue2.png,Easy,Right,Easy,Mid,0.0166122999507933,,,,,,,,,,,,,26,22,Female,0.42857142857142855,1.5,0.6,2.25,2.5,1.375,2.6666666666666665,2.6666666666666665,2.5,1.5555555555555556,1.5,2.25,2.75,2.75,0.5,0.6666666666666667,0.2984380444977432,0.26777134597590224,-1.2091929238136963,0.37591450908161345,,,,,,,,,,,,,,,,,,,0.0016351192986459977,1.4889286204265026,-0.0011909850769834815,-1.1347868204019111,2.0220000000000002,1.2830944909129405,,,,,,,,
24,240625_095203,FalseCHOICE,9.0,25,2.0,1472.0,,,,,,,,,,,26.0,25.0,,,B,,,,,,False,cue1.png,Hard,cue2.png,Easy,Right,Easy,Mid,0.0167254998814314,,,,,,,,,,,,,26,22,Female,0.42857142857142855,1.5,0.6,2.25,2.5,1.375,2.6666666666666665,2.6666666666666665,2.5,1.5555555555555556,1.5,2.25,2.75,2.75,0.5,0.6666666666666667,0.3334604222586171,0.8379452530018915,-1.0982310945559666,0.9035040019550014,,,,,,,,,,,,,,,,,,,,,0.001383012503811649,1.4644169940566567,1.63,0.34982992333071894,,,,,,,,
25,240625_095220,FalseCHOICE,9.0,26,2.0,1472.0,,,,,,,,,,,27.0,26.0,,,B,,,,,,False,cue2.png,Easy,cue1.png,Hard,Left,Easy,Mid,0.0161210000514984,,,,,,,,,,,,,26,22,Female,0.42857142857142855,1.5,0.6,2.25,2.5,1.375,2.6666666666666665,2.6666666666666665,2.5,1.5555555555555556,1.5,2.25,2.75,2.75,0.5,0.6666666666666667,0.3806382222877194,1.6060127654691787,-0.9659059027627982,1.5326697366904733,,,,,,,,,,,,,,,,,,,-0.0025850783969878412,-1.754415382978239,-8.422389475551623e-05,-0.017187523493106628,1.6510000000000002,0.3998262394511959,,,,,,,,
26,240625_095235,FalseCHOICE,9.0,27,2.0,1472.0,,,,,,,,,,,28.0,27.0,,,B,,,,,,False,cue2.png,Easy,cue1.png,Hard,Left,Easy,Mid,0.0164260000456124,,,,,,,,,,,,,26,22,Female,0.42857142857142855,1.5,0.6,2.25,2.5,1.375,2.6666666666666665,2.6666666666666665,2.5,1.5555555555555556,1.5,2.25,2.75,2.75,0.125,0.5,0.2485365111432555,-0.5446392914052756,-1.3921655181082395,-0.49406410319745164,,,,,,,,,,,,,,,,,,,0.0003080212313798618,0.4690153678196994,-0.0006715275206504185,-0.6102424028220226,,,,,,,,,,
27,240625_095251,FalseCHOICE,9.0,28,2.0,1472.0,,,,,,,,,,,29.0,28.0,,,B,,,,,,False,cue1.png,Hard,cue2.png,Easy,Right,Easy,Mid,0.0166402000468224,,,,,,,,,,,,,26,22,Female,0.42857142857142855,1.5,0.6,2.25,2.5,1.375,2.6666666666666665,2.6666666666666665,2.5,1.5555555555555556,1.5,2.25,2.75,2.75,0.5,0.6666666666666667,0.1862408333561486,-1.5588299964803658,-1.6807146398133976,-1.8660267484408926,,,,,,,,,,,,,,,,,,,,,0.0008486744227839084,0.924846332149218,1.812,0.7831313297081789,,,,,,,,
28,240625_095308,FalseCHOICE,9.0,29,2.0,1472.0,,,,,,,,,,,30.0,29.0,,,B,,,,,,False,cue2.png,Easy,cue1.png,Hard,Left,Easy,Mid,0.0160542000085115,,,,,,,,,,,,,26,22,Female,0.42857142857142855,1.5,0.6,2.25,2.5,1.375,2.6666666666666665,2.6666666666666665,2.5,1.5555555555555556,1.5,2.25,2.75,2.75,0.5,0.6666666666666667,0.350481633329764,1.115055233512469,-1.0484469752221053,1.1402122325979314,,,,,,,,,,,,,,,,,,,0.0002919157642746126,0.45663785047924765,-0.0007892334738976545,-0.7291010081864416,0.9350000000000003,-1.3048100625612273,,,,,,,,
29,240625_095324,FalseCHOICE,9.0,30,2.0,1472.0,,,,,,,,,,,31.0,30.0,,,B,,,,,,False,cue2.png,Easy,cue1.png,Hard,Left,Easy,Mid,0.0151802999898791,,,,,,,,,,,,,26,22,Female,0.42857142857142855,1.5,0.6,2.25,2.5,1.375,2.6666666666666665,2.6666666666666665,2.5,1.5555555555555556,1.5,2.25,2.75,2.75,0.5,0.6666666666666667,0.2949759555825342,0.21140758973027768,-1.2208614324640366,0.320434326368305,,,,,,,,,,,,,,,,,,,-0.0008699980058462986,-0.4363264916163558,-5.081565176159701e-05,0.016547874423362863,1.314,-0.4024955954345401,,,,,,,,
30,240625_095341,FalseCHOICE,9.0,31,2.0,1472.0,,,,,,,,,,,32.0,31.0,,,B,,,,,,False,cue1.png,Hard,cue2.png,Easy,Right,Easy,Mid,0.0167905001435428,,,,,,,,,,,,,26,22,Female,0.42857142857142855,1.5,0.6,2.25,2.5,1.375,2.6666666666666665,2.6666666666666665,2.5,1.5555555555555556,1.5,2.25,2.75,2.75,0.8194444444444444,0.8333333333333334,0.3162460221857246,0.5576901026038831,-1.1512348170883666,0.6514875447792767,,,,,,,,,,,,,,,,,,,-0.001173906161028514,-0.6698886997839509,,,,,,,,,,,,
31,240625_095358,FalseCHOICE,9.0,32,2.0,1472.0,,,,,,,,,,,33.0,32.0,,,B,,,,,,False,cue2.png,Easy,cue1.png,Hard,Left,Easy,Mid,0.0165838999673724,,,,,,,,,,,,,26,22,Female,0.42857142857142855,1.5,0.6,2.25,2.5,1.375,2.6666666666666665,2.6666666666666665,2.5,1.5555555555555556,1.5,2.25,2.75,2.75,0.5,0.6666666666666667,0.2655460444382495,-0.26771942829049444,-1.3259670279571154,-0.1793105696494943,,,,,,,,,,,,,,,,,,,,,0.001398578547842946,1.480135470765434,1.152,-0.7881814626496418,,,,,,,,
32,240625_095414,FalseCHOICE,9.0,33,2.0,1472.0,,,,,,,,,,,34.0,33.0,,,B,,,,,,False,cue1.png,Hard,cue2.png,Easy,Right,Easy,Mid,0.0164779999759048,,,,,,,,,,,,,26,22,Female,0.42857142857142855,1.5,0.6,2.25,2.5,1.375,2.6666666666666665,2.6666666666666665,2.5,1.5555555555555556,1.5,2.25,2.75,2.75,0.125,0.5,0.2506891666756322,-0.509593469452332,-1.3835414870545906,-0.45305947844896366,,,,,,,,,,,,,,,,,,,0.000112669894410675,0.3188822145857605,-0.0002473307770314301,-0.18189165287501485,2.468,2.3449210142335275,,,,,,,,
33,240625_095430,FalseCHOICE,9.0,34,2.0,1472.0,,,,,,,,,,,35.0,34.0,,,B,,,,,,False,cue1.png,Hard,cue2.png,Easy,Right,Easy,Mid,0.0160653998609632,,,,,,,,,,,,,26,22,Female,0.42857142857142855,1.5,0.6,2.25,2.5,1.375,2.6666666666666665,2.6666666666666665,2.5,1.5555555555555556,1.5,2.25,2.75,2.75,0.8194444444444444,0.8333333333333334,0.2679318999612911,-0.2288770465864196,-1.3170224353833782,-0.13678177311193745,,,,,,,,,,,,,,,,,,,0.0016203594578995091,1.4775852558666245,-0.00011390262215458472,-0.04715688400824172,1.911,1.0188282485618518,,,,,,,,
34,240625_095445,FalseCHOICE,9.0,35,2.0,1472.0,,,,,,,,,,,36.0,35.0,,,B,,,,,,False,cue1.png,Hard,cue2.png,Easy,Right,Easy,Mid,0.0167145000305026,,,,,,,,,,,,,26,22,Female,0.42857142857142855,1.5,0.6,2.25,2.5,1.375,2.6666666666666665,2.6666666666666665,2.5,1.5555555555555556,1.5,2.25,2.75,2.75,0.8194444444444444,0.8333333333333334,0.2301763555862837,-0.8435476550520941,-1.4689095004532067,-0.8589582203665316,,,,,,,,,,,,,,,,,,,-0.0004202501771114805,-0.0906822757350682,,,1.679,0.4664879942784969,,,,,,,,
35,240625_095502,FalseCHOICE,9.0,36,2.0,1472.0,,,,,,,,,,,37.0,36.0,,,B,,,,,,False,cue2.png,Easy,cue1.png,Hard,Left,Easy,Mid,0.0162577000446617,,,,,,,,,,,,,26,22,Female,0.42857142857142855,1.5,0.6,2.25,2.5,1.375,2.6666666666666665,2.6666666666666665,2.5,1.5555555555555556,1.5,2.25,2.75,2.75,0.8194444444444444,0.8333333333333334,0.261258522203813,-0.33752146516420195,-1.3422448553593262,-0.2567066504609028,,,,,,,,,,,,,,,,,,,,,-0.001163809877550485,-1.107345504002889,2.0,1.2307173978343457,,,,,,,,
36,240625_095518,FalseCHOICE,9.0,37,2.0,1472.0,,,,,,,,,,,38.0,37.0,,,B,,,,,,False,cue1.png,Hard,cue2.png,Easy,Right,Easy,Mid,0.0159041997976601,,,,,,,,,,,,,26,22,Female,0.42857142857142855,1.5,0.6,2.25,2.5,1.375,2.6666666666666665,2.6666666666666665,2.5,1.5555555555555556,1.5,2.25,2.75,2.75,0.5,0.6666666666666667,0.1903449444410701,-1.4920139433803783,-1.6589173557862396,-1.7623873428648131,,,,,,,,,,,,,,,,,,,,,-9.955822661129182e-05,-0.03267201895226446,,,,,,,,,,
37,240625_095534,FalseCHOICE,9.0,38,2.0,1472.0,,,,,,,,,,,39.0,38.0,,,B,,,,,,False,cue2.png,Easy,cue1.png,Hard,Left,Easy,Mid,0.016287000151351,,,,,,,,,,,,,26,22,Female,0.42857142857142855,1.5,0.6,2.25,2.5,1.375,2.6666666666666665,2.6666666666666665,2.5,1.5555555555555556,1.5,2.25,2.75,2.75,0.125,0.5,0.2631219222417308,-0.30718480192487957,-1.3351377715574417,-0.22291464501247313,,,,,,,,,,,,,,,,,,,0.00035553566797493115,0.5055315867554162,0.00011777799449290069,0.18679249769251222,1.5219999999999998,0.09270601185398449,,,,,,,,
38,240625_095550,FalseCHOICE,9.0,39,2.0,1472.0,,,,,,,,,,,40.0,39.0,,,B,,,,,,False,cue2.png,Easy,cue1.png,Hard,Left,Easy,Mid,0.0164147999603301,,,,,,,,,,,,,26,22,Female,0.42857142857142855,1.5,0.6,2.25,2.5,1.375,2.6666666666666665,2.6666666666666665,2.5,1.5555555555555556,1.5,2.25,2.75,2.75,0.5,0.6666666666666667,0.2874504000000242,0.08888948264119745,-1.2467049553673653,0.19755629494220386,,,,,,,,,,,,,,,,,,,,,,,1.7770000000000001,0.6998041361740522,,,,,,,,
39,240625_095606,FalseCHOICE,9.0,40,2.0,1472.0,,,,,,,,,,,41.0,40.0,,,B,,,,,,False,cue1.png,Hard,cue2.png,Easy,Right,Easy,Mid,0.0167235000990331,,,,,,,,,,,,,26,22,Female,0.42857142857142855,1.5,0.6,2.25,2.5,1.375,2.6666666666666665,2.6666666666666665,2.5,1.5555555555555556,1.5,2.25,2.75,2.75,0.5,0.6666666666666667,0.3026188889052719,0.33583663859494084,-1.19528105754938,0.4420611697523299,,,,,,,,,,,,,,,,,,,0.0017108417298293353,1.5471234991535807,,,1.193,-0.6905696073668072,,,,,,,,
40,240625_095622,FalseCHOICE,9.0,41,2.0,1472.0,,,,,,,,,,,42.0,41.0,,,B,,,,,,False,cue1.png,Hard,cue2.png,Easy,Right,Easy,Mid,0.015677599934861,,,,,,,,,,,,,26,22,Female,0.42857142857142855,1.5,0.6,2.25,2.5,1.375,2.6666666666666665,2.6666666666666665,2.5,1.5555555555555556,1.5,2.25,2.75,2.75,0.8194444444444444,0.8333333333333334,0.2569085000238071,-0.408341018278456,-1.3590352885167838,-0.33654001454588117,,,,,,,,,,,,,,,,,,,0.00014723564028073545,0.3454469901428058,0.0007664573589643803,0.8418241461581621,1.448,-0.08347148304674047,,,,,,,,
41,240625_095639,FalseCHOICE,9.0,42,2.0,1472.0,,,,,,,,,,,43.0,42.0,,,B,,,,,,False,cue2.png,Easy,cue1.png,Hard,Left,Easy,Mid,0.0163970999419689,,,,,,,,,,,,,26,22,Female,0.42857142857142855,1.5,0.6,2.25,2.5,1.375,2.6666666666666665,2.6666666666666665,2.5,1.5555555555555556,1.5,2.25,2.75,2.75,0.8194444444444444,0.8333333333333334,0.3160113888637473,0.5538702078262147,-1.1519770253366146,0.6479585720152274,,,,,,,,,,,,,,,,,,,-0.00042984481939334525,-0.09805603586528548,-1.542022815588951e-05,0.052289912697506144,,,,,,,,,,
42,240625_095656,FalseCHOICE,9.0,43,2.0,1472.0,,,,,,,,,,,44.0,43.0,,,B,,,,,,False,cue1.png,Hard,cue2.png,Easy,Right,Easy,Mid,0.0164705000352114,,,,,,,,,,,,,26,22,Female,0.42857142857142855,1.5,0.6,2.25,2.5,1.375,2.6666666666666665,2.6666666666666665,2.5,1.5555555555555556,1.5,2.25,2.75,2.75,1.0,0.8888888888888888,0.1762630374869331,-1.7212712474171905,-1.7357778684684526,-2.127835526075731,,,,,,,,,,,,,,,,,,,-0.000610239077872006,-0.23669424162771363,0.0001402420983971273,0.2094765844965964,1.5140000000000002,0.07365979618904224,,,,,,,,
43,240625_095713,FalseCHOICE,9.0,44,2.0,1472.0,,,,,,,,,,,45.0,44.0,,,B,,,,,,False,cue2.png,Easy,cue1.png,Hard,Left,Easy,Mid,0.0153435000684112,,,,,,,,,,,,,26,22,Female,0.42857142857142855,1.5,0.6,2.25,2.5,1.375,2.6666666666666665,2.6666666666666665,2.5,1.5555555555555556,1.5,2.25,2.75,2.75,0.8194444444444444,0.8333333333333334,0.3140969222101072,0.5227021660892991,-1.1580536712435603,0.6190659829703034,,,,,,,,,,,,,,,,,,,-0.001616835133634872,-1.010292427486876,,,0.9109999999999999,-1.361948709556058,,,,,,,,
44,240625_095736,FalseCHOICE,9.0,45,2.0,1472.0,,,,,,,,,,,47.0,45.0,,,B,,,,,,False,cue1.png,Hard,cue2.png,Easy,Right,Easy,Mid,0.0166138000786304,,,,,,,,,,,,,26,22,Female,0.42857142857142855,1.5,0.6,2.25,2.5,1.375,2.6666666666666665,2.6666666666666665,2.5,1.5555555555555556,1.5,2.25,2.75,2.75,0.8194444444444444,0.8333333333333334,0.2972294110804796,0.248094462744598,-1.213251010467917,0.356619550677821,,,,,,,,,,,,,,,,,,,-0.0014807030243518217,-0.9056709637173436,-6.253483518768891e-05,0.0047139292438075015,,,,,,,,,,
45,240625_095752,FalseCHOICE,9.0,46,2.0,1472.0,,,,,,,,,,,48.0,46.0,,,B,,,,,,False,cue1.png,Hard,cue2.png,Easy,Right,Easy,Mid,0.0166078000329434,,,,,,,,,,,,,26,22,Female,0.42857142857142855,1.5,0.6,2.25,2.5,1.375,2.6666666666666665,2.6666666666666665,2.5,1.5555555555555556,1.5,2.25,2.75,2.75,0.5,0.6666666666666667,0.267945655543978,-0.22865310193087507,-1.3169710968544601,-0.13653767414008453,,,,,,,,,,,,,,,,,,,-0.00022946407375904268,0.05594236340950865,0.0006164301457833774,0.6903277703720622,,,,,,,,,,
46,240625_095807,FalseCHOICE,9.0,47,2.0,1472.0,,,,,,,,,,,49.0,47.0,,,B,,,,,,False,cue2.png,Easy,cue1.png,Hard,Left,Easy,Mid,0.0163259000983089,,,,,,,,,,,,,26,22,Female,0.42857142857142855,1.5,0.6,2.25,2.5,1.375,2.6666666666666665,2.6666666666666665,2.5,1.5555555555555556,1.5,2.25,2.75,2.75,0.8194444444444444,0.8333333333333334,0.2295574221708294,-0.8536240606601898,-1.4716020752403396,-0.8717605883156718,,,,,,,,,,,,,,,,,,,-0.00023929745109764304,0.048385128482490505,-0.004270757693791904,-4.244718544114214,1.411,-0.17156023049710295,,,,,,,,
47,240625_095823,FalseCHOICE,9.0,48,2.0,1472.0,,,,,,,,,,,50.0,48.0,,,B,,,,,,False,cue2.png,Easy,cue1.png,Hard,Right,Hard,Mid,0.0159565999638289,,,,,,,,,,,,,26,22,Female,0.42857142857142855,1.5,0.6,2.25,2.5,1.375,2.6666666666666665,2.6666666666666665,2.5,1.5555555555555556,1.5,2.25,2.75,2.75,0.5,0.6666666666666667,0.1793151221807218,-1.6715824722485366,-1.7186105618230605,-2.046210244051882,,,,,,,,,,,,,,,,,,,-0.00019823610465337024,0.07994196097390174,-0.0006744071436998855,-0.6131502249855793,1.986,1.197386520420695,,,,,,,,
48,240625_095841,FalseCHOICE,9.0,49,2.0,1472.0,,,,,,,,,,,51.0,49.0,,,B,,,,,,False,cue1.png,Hard,cue2.png,Easy,Right,Easy,Mid,0.0168131000827997,,,,,,,,,,,,,26,22,Female,0.42857142857142855,1.5,0.6,2.25,2.5,1.375,2.6666666666666665,2.6666666666666665,2.5,1.5555555555555556,1.5,2.25,2.75,2.75,0.8194444444444444,0.8333333333333334,0.3551922555909388,1.19174545476233,-1.035096071055248,1.2036916904070933,,,,,,,,,,,,,,,,,,,-0.0003202842469836424,-0.013855566796683918,0.0006342143789353299,0.7082861581307236,,,,,,,,,,
49,240625_095858,FalseCHOICE,9.0,50,2.0,1472.0,,,,,,,,,,,52.0,50.0,,,B,,,,,,False,cue2.png,Easy,cue1.png,Hard,Left,Easy,Mid,0.0157463001087307,,,,,,,,,,,,,26,22,Female,0.42857142857142855,1.5,0.6,2.25,2.5,1.375,2.6666666666666665,2.6666666666666665,2.5,1.5555555555555556,1.5,2.25,2.75,2.75,0.5,0.6666666666666667,0.2206673778386579,-0.9983564185005899,-1.5110987888846348,-1.0595553575723937,,,,,,,,,,,,,,,,,,,-0.0016004416874104976,-0.9976935898632332,,,1.9500000000000002,1.1116785499284507,,,,,,,,
0,240625_092356,OFFLINERATING,9.0,1,1.0,,,,,,,,,,,,,,,,,T0,cue2.png,Easy,25.0,1.1517763999290764,,,,,,,,,,,,,,,,,,,,,,26,22,Female,0.42857142857142855,1.5,0.6,2.25,2.5,1.375,2.6666666666666665,2.6666666666666665,2.5,1.5555555555555556,1.5,2.25,2.75,2.75,,,,,,,,,,,,,,,,,,,,,,,,,,,,,,,-0.4204816952008337,,,,,1.4680000000000002,0.17333631036198532,
1,240625_092404,OFFLINERATING,9.0,2,3.0,,,,,,,,,,,,,,,,,T0,cue1.png,Hard,53.0,1.3862091000191867,,,,,,,,,,,,,,,,,,,,,,26,22,Female,0.42857142857142855,1.5,0.6,2.25,2.5,1.375,2.6666666666666665,2.6666666666666665,2.5,1.5555555555555556,1.5,2.25,2.75,2.75,,,,,,,,,,,,,,,,,,,,,,,,,,,,,,,0.8523277605422305,,,,,1.0879999999999999,-1.6820946174564462,
2,240625_094044,OFFLINERATING,9.0,3,1.0,,,,,,,,,,,,,,,,,T1,cue2.png,Easy,49.0,1.695853499928489,,,,,,,,,,,,,,,,,,,,,,26,22,Female,0.42857142857142855,1.5,0.6,2.25,2.5,1.375,2.6666666666666665,2.6666666666666665,2.5,1.5555555555555556,1.5,2.25,2.75,2.75,,,,,,,,,,,,,,,,,,,,,,,,,,,,,,,0.6704978382932213,-0.0003794244498173012,-0.949156349590043,7.701079067501523e-05,0.23523431604078854,1.594,0.7885581443228326,
3,240625_094052,OFFLINERATING,9.0,4,3.0,,,,,,,,,,,,,,,,,T1,cue1.png,Hard,44.0,1.1849086000584066,,,,,,,,,,,,,,,,,,,,,,26,22,Female,0.42857142857142855,1.5,0.6,2.25,2.5,1.375,2.6666666666666665,2.6666666666666665,2.5,1.5555555555555556,1.5,2.25,2.75,2.75,,,,,,,,,,,,,,,,,,,,,,,,,,,,,,,0.4432104354819599,0.0010315547010219684,1.3825025483111633,4.611129554369948e-05,-0.10381266172413023,1.5799999999999998,0.7202001627716261,
4,240625_094431,OFFLINERATING,9.0,5,1.0,,,,,,,,,,,,,,,,,T2,cue2.png,Easy,61.0,0.7194280000403523,,,,,,,,,,,,,,,,,,,,,,26,22,Female,0.42857142857142855,1.5,0.6,2.25,2.5,1.375,2.6666666666666665,2.6666666666666665,2.5,1.5555555555555556,1.5,2.25,2.75,2.75,,,,,,,,,,,,,,,,,,,,,,,,,,,,,,,1.2159876050402487,,,0.00017726005289827327,1.335226702178884,,,
5,240625_094438,OFFLINERATING,9.0,6,3.0,,,,,,,,,,,,,,,,,T2,cue1.png,Hard,42.0,0.8181229999754578,,,,,,,,,,,,,,,,,,,,,,26,22,Female,0.42857142857142855,1.5,0.6,2.25,2.5,1.375,2.6666666666666665,2.6666666666666665,2.5,1.5555555555555556,1.5,2.25,2.75,2.75,,,,,,,,,,,,,,,,,,,,,,,,,,,,,,,0.3522954743574553,,,-7.809253955012212e-05,-1.4666483564955424,,,
6,240625_095911,OFFLINERATING,9.0,7,1.0,,,,,,,,,,,,,,,,,T3,cue2.png,Easy,0.0,1.1950344000943005,,,,,,,,,,,,,,,,,,,,,,26,22,Female,0.42857142857142855,1.5,0.6,2.25,2.5,1.375,2.6666666666666665,2.6666666666666665,2.5,1.5555555555555556,1.5,2.25,2.75,2.75,,,,,,,,,,,,,,,,,,,,,,,,,,,,,,,-1.556918709257141,-6.728729745662798e-05,-0.4333461987211203,,,,,
7,240625_095918,OFFLINERATING,9.0,8,3.0,,,,,,,,,,,,,,,,,T3,cue1.png,Hard,0.0,0.7349044000729918,,,,,,,,,,,,,,,,,,,,,,26,22,Female,0.42857142857142855,1.5,0.6,2.25,2.5,1.375,2.6666666666666665,2.6666666666666665,2.5,1.5555555555555556,1.5,2.25,2.75,2.75,,,,,,,,,,,,,,,,,,,,,,,,,,,,,,,-1.556918709257141,,,,,,,
0,240625_094453,LEARNINGCHECK,9.0,1,,,,,,,,,,,,1.0,1.0,1.0,,,B,,,,,,,,,,,,,,,cue2.png,Easy,Left,Left,Easy,0.0146770998835563,1.0,,,,,,26,22,Female,0.42857142857142855,1.5,0.6,2.25,2.5,1.375,2.6666666666666665,2.6666666666666665,2.5,1.5555555555555556,1.5,2.25,2.75,2.75,,,,,,,,,,,,,,,,,,,,,,,,,,,,,,,,,,,,,,
1,240625_095932,LEARNINGCHECK,9.0,1,,,,,,,,,,,,1.0,1.0,1.0,,,B,,,,,,,,,,,,,,,cue2.png,Easy,Middle,Middle,Mid,0.0159890998620539,1.0,,,,,,26,22,Female,0.42857142857142855,1.5,0.6,2.25,2.5,1.375,2.6666666666666665,2.6666666666666665,2.5,1.5555555555555556,1.5,2.25,2.75,2.75,,,,,,,,,,,,,,,,,,,,,,,,,,,,,,,,,,,,,,
2,240625_094457,LEARNINGCHECK,9.0,2,,,,,,,,,,,,2.0,2.0,2.0,,,B,,,,,,,,,,,,,,,cue1.png,Hard,Right,Right,Hard,0.0134231001138687,1.0,,,,,,26,22,Female,0.42857142857142855,1.5,0.6,2.25,2.5,1.375,2.6666666666666665,2.6666666666666665,2.5,1.5555555555555556,1.5,2.25,2.75,2.75,,,,,,,,,,,,,,,,,,,,,,,,,,,,,,,,,,,,,,
3,240625_095936,LEARNINGCHECK,9.0,2,,,,,,,,,,,,2.0,2.0,2.0,,,B,,,,,,,,,,,,,,,cue1.png,Hard,Middle,Middle,Mid,0.0146303998772054,1.0,,,,,,26,22,Female,0.42857142857142855,1.5,0.6,2.25,2.5,1.375,2.6666666666666665,2.6666666666666665,2.5,1.5555555555555556,1.5,2.25,2.75,2.75,,,,,,,,,,,,,,,,,,,,,,,,,,,,,,,,,,,,,,
0,240625_095951,DEMANDRATING,9.0,-1,,,,,,,,,,,,,,,,,,,,,,,,,,,,,,,,,,,,,,,1.0,MentalDemand,1.0,2.0,6.5713096999097615,26,22,Female,0.42857142857142855,1.5,0.6,2.25,2.5,1.375,2.6666666666666665,2.6666666666666665,2.5,1.5555555555555556,1.5,2.25,2.75,2.75,,,,,,,,,,,,,,,,,,,,,,,,,,,,,,,,,,,,,,-1.3987291358600542
1,240625_095957,DEMANDRATING,9.0,-1,,,,,,,,,,,,,,,,,,,,,,,,,,,,,,,,,,,,,,,2.0,Effort,1.0,7.0,4.408129800111055,26,22,Female,0.42857142857142855,1.5,0.6,2.25,2.5,1.375,2.6666666666666665,2.6666666666666665,2.5,1.5555555555555556,1.5,2.25,2.75,2.75,,,,,,,,,,,,,,,,,,,,,,,,,,,,,,,,,,,,,,-1.276033597626716
2,240625_100002,DEMANDRATING,9.0,-1,,,,,,,,,,,,,,,,,,,,,,,,,,,,,,,,,,,,,,,3.0,Frustration,1.0,4.0,2.918665899895132,26,22,Female,0.42857142857142855,1.5,0.6,2.25,2.5,1.375,2.6666666666666665,2.6666666666666665,2.5,1.5555555555555556,1.5,2.25,2.75,2.75,,,,,,,,,,,,,,,,,,,,,,,,,,,,,,,,,,,,,,-1.3496509205667189
3,240625_100006,DEMANDRATING,9.0,-1,,,,,,,,,,,,,,,,,,,,,,,,,,,,,,,,,,,,,,,4.0,MentalDemand,2.0,59.0,2.661533400183544,26,22,Female,0.42857142857142855,1.5,0.6,2.25,2.5,1.375,2.6666666666666665,2.6666666666666665,2.5,1.5555555555555556,1.5,2.25,2.75,2.75,,,,,,,,,,,,,,,,,,,,,,,,,,,,,,,,,,,,,,0.0
4,240625_100009,DEMANDRATING,9.0,-1,,,,,,,,,,,,,,,,,,,,,,,,,,,,,,,,,,,,,,,5.0,Effort,2.0,73.0,1.2396912998519838,26,22,Female,0.42857142857142855,1.5,0.6,2.25,2.5,1.375,2.6666666666666665,2.6666666666666665,2.5,1.5555555555555556,1.5,2.25,2.75,2.75,,,,,,,,,,,,,,,,,,,,,,,,,,,,,,,,,,,,,,0.34354750705334663
5,240625_100014,DEMANDRATING,9.0,-1,,,,,,,,,,,,,,,,,,,,,,,,,,,,,,,,,,,,,,,6.0,Frustration,2.0,86.0,4.025279400171712,26,22,Female,0.42857142857142855,1.5,0.6,2.25,2.5,1.375,2.6666666666666665,2.6666666666666665,2.5,1.5555555555555556,1.5,2.25,2.75,2.75,,,,,,,,,,,,,,,,,,,,,,,,,,,,,,,,,,,,,,0.6625559064600257
6,240625_100017,DEMANDRATING,9.0,-1,,,,,,,,,,,,,,,,,,,,,,,,,,,,,,,,,,,,,,,7.0,MentalDemand,3.0,100.0,1.0962476001586765,26,22,Female,0.42857142857142855,1.5,0.6,2.25,2.5,1.375,2.6666666666666665,2.6666666666666665,2.5,1.5555555555555556,1.5,2.25,2.75,2.75,,,,,,,,,,,,,,,,,,,,,,,,,,,,,,,,,,,,,,1.0061034135133724
7,240625_100019,DEMANDRATING,9.0,-1,,,,,,,,,,,,,,,,,,,,,,,,,,,,,,,,,,,,,,,8.0,Effort,3.0,100.0,0.784826299874112,26,22,Female,0.42857142857142855,1.5,0.6,2.25,2.5,1.375,2.6666666666666665,2.6666666666666665,2.5,1.5555555555555556,1.5,2.25,2.75,2.75,,,,,,,,,,,,,,,,,,,,,,,,,,,,,,,,,,,,,,1.0061034135133724
8,240625_100021,DEMANDRATING,9.0,-1,,,,,,,,,,,,,,,,,,,,,,,,,,,,,,,,,,,,,,,9.0,Frustration,3.0,100.0,0.6575346000026911,26,22,Female,0.42857142857142855,1.5,0.6,2.25,2.5,1.375,2.6666666666666665,2.6666666666666665,2.5,1.5555555555555556,1.5,2.25,2.75,2.75,,,,,,,,,,,,,,,,,,,,,,,,,,,,,,,,,,,,,,1.0061034135133724
