,END,Phase,Block,TrialN,NbackLevel,ISI,Letter_Resp,Letter_RT,Letter_Accuracy,Trial_A_measure,Trial_ACC,Trial_RT,TrialCountCali,CaliEnd_A_measure,ISI_calibrated,TrialIndex,TrialNumber_total,TrialNumber_valid,CueLearning,TrialDemandLearning,CueMapping,OfflineRatingTimePoint,CueFigure,TrialDemand,OfflineRating,OfflineRatingRT,PhaseType,CueLeft,CueDemandLeft,CueRight,CueDemandRight,Choice,ChoiceDemand,TaskDemand,ChoiceRT,CueCheck,CueDemandCheck,CorrectAnswer,Answer,AnswerDemand,AnswerRT,AnswerACC,DemandRatingQuesIndex,QuesTLX,DemandLevel,DemandRating,DemandRatingRT,PID,Age,Gender,BAI_bis,BAI_bas_d,BAI_bas_rr,BAI_bas_fs,NFC,BFI_ext,BFI_agr,BFI_con,BFI_neu,BFI_open,UPPS_lps,UPPS_lpm,UPPS_pu,UPPS_ss,Task_A_measure,Task_ACC,Task_RT,Task_RT_z,cue_i_on_zyg_values,cue_i_on_zyg_zvalues,cue_e_on_zyg_values,cue_e_on_zyg_zvalues,cue_i_on_cor_values,cue_i_on_cor_zvalues,cue_e_on_cor_values,cue_e_on_cor_zvalues,cue_i_on_scr_values,cue_i_on_scr_zvalues,cue_e_on_scr_values,cue_e_on_scr_zvalues,cue_e_true_zyg_values,cue_e_true_zyg_zvalues,cue_e_true_cor_values,cue_e_true_cor_zvalues,cue_e_true_scr_values,cue_e_true_scr_zvalues,cue_e_false_zyg_values,cue_e_false_zyg_zvalues,cue_e_false_cor_values,cue_e_false_cor_zvalues,cue_e_false_scr_values,cue_e_false_scr_zvalues,OfflineRating_z,cue_i_off_zyg_values,cue_i_off_zyg_zvalues,cue_i_off_cor_values,cue_i_off_cor_zvalues,cue_i_off_scr_values,cue_i_off_scr_zvalues,DemandRating_z
0,240625_092138,PRACTICE,0.0,1,1.0,1472.0,,,,,,,,,,45.0,1.0,1.0,cue2.png,Easy,B,,,,,,,,,,,,,,,,,,,,,,,,,,,26,22,Female,0.42857142857142855,1.5,0.6,2.25,2.5,1.375,2.6666666666666665,2.6666666666666665,2.5,1.5555555555555556,1.5,2.25,2.75,2.75,,,,,,,,,,,,,,,,,,,,,,,,,,,,,,,,,,,,
0,240625_092434,LEARNING,1.0,1,1.0,1472.0,,,,,,,,,,1.0,1.0,1.0,cue2.png,Easy,B,,,,,,,,,,,,,,,,,,,,,,,,,,,26,22,Female,0.42857142857142855,1.5,0.6,2.25,2.5,1.375,2.6666666666666665,2.6666666666666665,2.5,1.5555555555555556,1.5,2.25,2.75,2.75,0.8194444444444444,0.8333333333333334,0.4051590444675336,0.8178259741262144,0.030103978019830478,0.3600340488512409,,,,,0.013228501730116103,-0.05249733980912954,,,,,,,,,,,,,,,,,,,,,,,,
1,240625_092453,LEARNING,1.0,2,3.0,1472.0,,,,,,,,,,2.0,2.0,2.0,cue1.png,Hard,B,,,,,,,,,,,,,,,,,,,,,,,,,,,26,22,Female,0.42857142857142855,1.5,0.6,2.25,2.5,1.375,2.6666666666666665,2.6666666666666665,2.5,1.5555555555555556,1.5,2.25,2.75,2.75,0.8194444444444444,0.8333333333333334,0.3725718999436746,0.034723767378634335,0.023033717008699724,-0.9026994063308986,0.019775270622521768,-1.751586272543195,0.010966047879606448,-0.4639242972724993,0.01577504906282911,0.37126412201340775,9.508208470753074e+44,-0.1673405809188202,2.2212365251667005e+44,-0.16927701106032955,,,,,,,,,,,,,,,,,,,,
2,240625_092513,LEARNING,1.0,3,1.0,1472.0,,,,,,,,,,3.0,3.0,3.0,cue2.png,Easy,B,,,,,,,,,,,,,,,,,,,,,,,,,,,26,22,Female,0.42857142857142855,1.5,0.6,2.25,2.5,1.375,2.6666666666666665,2.6666666666666665,2.5,1.5555555555555556,1.5,2.25,2.75,2.75,0.8194444444444444,0.8333333333333334,0.3942605555057525,0.5559242063927389,,,,,,,,,-1.5350471919822953e+45,-0.17178254150089328,-1.079603834839006e+44,-0.1699580723794986,,,,,,,,,,,,,,,,,,,,
3,240625_092533,LEARNING,1.0,4,3.0,1472.0,,,,,,,,,,4.0,4.0,4.0,cue1.png,Hard,B,,,,,,,,,,,,,,,,,,,,,,,,,,,26,22,Female,0.42857142857142855,1.5,0.6,2.25,2.5,1.375,2.6666666666666665,2.6666666666666665,2.5,1.5555555555555556,1.5,2.25,2.75,2.75,0.5,0.6666666666666667,0.4894851444340828,2.844267871232999,,,,,0.05993290778111933,2.6096286792734866,,,-1.5281335129338663e+45,-0.17177018755075282,-1.6279084585509761e+44,-0.17007120389438685,,,,,,,,,,,,,,,,,,,,
4,240625_092553,LEARNING,1.0,5,3.0,1472.0,,,,,,,,,,5.0,5.0,5.0,cue1.png,Hard,B,,,,,,,,,,,,,,,,,,,,,,,,,,,26,22,Female,0.42857142857142855,1.5,0.6,2.25,2.5,1.375,2.6666666666666665,2.6666666666666665,2.5,1.5555555555555556,1.5,2.25,2.75,2.75,0.8194444444444444,0.8333333333333334,0.4263196999931501,1.3263380355682073,0.023061677988578146,-0.897705635283893,,,0.009417055259148906,-0.5611515013209245,,,3.405432917132038e+48,5.916077780984382,2.949535186215302e+48,5.916031049787687,,,,,,,,,,,,,,,,,,,,
5,240625_092612,LEARNING,1.0,6,1.0,1472.0,,,,,,,,,,6.0,6.0,6.0,cue2.png,Easy,B,,,,,,,,,,,,,,,,,,,,,,,,,,,26,22,Female,0.42857142857142855,1.5,0.6,2.25,2.5,1.375,2.6666666666666665,2.6666666666666665,2.5,1.5555555555555556,1.5,2.25,2.75,2.75,1.0,1.0,0.3540581888519227,-0.4101795287792463,0.023988905759129178,-0.732104743802592,0.029914029911980715,0.46106662152010935,0.011080055425283949,-0.4567682690511561,0.00957309190481789,-0.660780481155087,,,-2.5029281915026166e+43,-0.16978696090704148,,,,,,,,,,,,,,,,,,,,
6,240625_092631,LEARNING,1.0,7,3.0,1472.0,,,,,,,,,,7.0,7.0,7.0,cue1.png,Hard,B,,,,,,,,,,,,,,,,,,,,,,,,,,,26,22,Female,0.42857142857142855,1.5,0.6,2.25,2.5,1.375,2.6666666666666665,2.6666666666666665,2.5,1.5555555555555556,1.5,2.25,2.75,2.75,0.5,0.6666666666666667,0.3667579889038784,-0.10499042457105019,0.025262326961828,-0.5046744477138607,0.020767867079381858,-1.5349649523002067,,,0.029217830339716595,2.608227312006653,1.09210127536073e+44,-0.16884444258118772,,,,,,,,,,,,,,,,,,,,,,
7,240625_092650,LEARNING,1.0,8,3.0,1472.0,,,,,,,,,,8.0,8.0,8.0,cue1.png,Hard,B,,,,,,,,,,,,,,,,,,,,,,,,,,,26,22,Female,0.42857142857142855,1.5,0.6,2.25,2.5,1.375,2.6666666666666665,2.6666666666666665,2.5,1.5555555555555556,1.5,2.25,2.75,2.75,0.5,0.6666666666666667,0.3717866778218497,0.01585408163682607,0.023281596097789944,-0.8584287325691338,0.02391350915228114,-0.8484693133787587,0.012742592935841231,-0.35241407675722025,0.01293850189916113,-0.10075513212074705,5.107303043832149e+44,-0.16812697215619354,,,,,,,,,,,,,,,,,,,,,,
8,240625_092709,LEARNING,1.0,9,1.0,1472.0,,,,,,,,,,9.0,9.0,9.0,cue2.png,Easy,B,,,,,,,,,,,,,,,,,,,,,,,,,,,26,22,Female,0.42857142857142855,1.5,0.6,2.25,2.5,1.375,2.6666666666666665,2.6666666666666665,2.5,1.5555555555555556,1.5,2.25,2.75,2.75,1.0,1.0,0.3515489110464437,-0.4704800250493204,0.021625979190753097,-1.154118361875514,0.02666368116308477,-0.24827989323904004,0.008928753800769212,-0.5918012183718699,0.010619583673116778,-0.4866376816779855,,,,,,,,,,,,,,,,,,,,,,,,
9,240625_092729,LEARNING,1.0,10,1.0,1472.0,,,,,,,,,,10.0,10.0,10.0,cue2.png,Easy,B,,,,,,,,,,,,,,,,,,,,,,,,,,,26,22,Female,0.42857142857142855,1.5,0.6,2.25,2.5,1.375,2.6666666666666665,2.6666666666666665,2.5,1.5555555555555556,1.5,2.25,2.75,2.75,1.0,1.0,0.3666709888881693,-0.10708112338140444,0.02078825672647097,-1.3037337975915833,0.03476152805306279,1.518970304269848,0.009782138341512031,-0.5382359580996386,0.00814513273929956,-0.8984018501473805,7.172538473188942e+44,-0.1677579383126521,6.975836923600039e+43,-0.16959138585434871,,,,,,,,,,,,,,,,,,,,
10,240625_092748,LEARNING,1.0,11,3.0,1472.0,,,,,,,,,,11.0,11.0,11.0,cue1.png,Hard,B,,,,,,,,,,,,,,,,,,,,,,,,,,,26,22,Female,0.42857142857142855,1.5,0.6,2.25,2.5,1.375,2.6666666666666665,2.6666666666666665,2.5,1.5555555555555556,1.5,2.25,2.75,2.75,0.8194444444444444,0.8333333333333334,0.3965191222830779,0.6101998618161627,0.026101213079810483,-0.35485118594223647,0.02191042109618959,-1.2856173369029589,0.010743499604058888,-0.477893212496186,0.011428341751700846,-0.3520552605154273,7.1349383021672425e+44,-0.16776465703122176,5.709531654023356e+43,-0.1696175134898387,,,,,,,,,,,,,,,,,,,,
11,240625_092807,LEARNING,1.0,12,1.0,1472.0,,,,,,,,,,12.0,12.0,12.0,cue2.png,Easy,B,,,,,,,,,,,,,,,,,,,,,,,,,,,26,22,Female,0.42857142857142855,1.5,0.6,2.25,2.5,1.375,2.6666666666666665,2.6666666666666665,2.5,1.5555555555555556,1.5,2.25,2.75,2.75,0.8194444444444444,0.8333333333333334,0.3497989443906893,-0.5125335025748701,0.028773613495701254,0.12243379766380003,0.02330129945998178,-0.9820761491627129,0.009113186672309126,-0.5802247316942566,0.008426785963229221,-0.851532985639644,6.023875385815146e+44,-0.16796319120926728,,,,,,,,,,,,,,,,,,,,,,
12,240625_092826,LEARNING,1.0,13,1.0,1472.0,,,,,,,,,,13.0,13.0,13.0,cue2.png,Easy,B,,,,,,,,,,,,,,,,,,,,,,,,,,,26,22,Female,0.42857142857142855,1.5,0.6,2.25,2.5,1.375,2.6666666666666665,2.6666666666666665,2.5,1.5555555555555556,1.5,2.25,2.75,2.75,1.0,1.0,0.3467584778037336,-0.5855990052010375,0.02043311674205745,-1.3671610372487646,0.034454091107781235,1.4518761729961664,0.009702587449913577,-0.5432292102736822,0.008218630705843447,-0.8861713271394142,2.3995712523761788e+44,-0.16861081271794087,-2.0782969781815548e+43,-0.1697781995050116,,,,,,,,,,,,,,,,,,,,
13,240625_092846,LEARNING,1.0,14,1.0,1472.0,,,,,,,,,,14.0,14.0,14.0,cue2.png,Easy,B,,,,,,,,,,,,,,,,,,,,,,,,,,,26,22,Female,0.42857142857142855,1.5,0.6,2.25,2.5,1.375,2.6666666666666665,2.6666666666666665,2.5,1.5555555555555556,1.5,2.25,2.75,2.75,0.5,0.6666666666666667,0.3993107222227586,0.6772848459429489,0.02862586945120065,0.0960470281370279,0.0334222597987654,1.226692354454119,0.08820885266321998,4.384453831056307,0.008936069493482354,-0.7667850092365163,,,-3.6510161456487603e+43,-0.1698106493685026,,,,,,,,,,,,,,,,,,,,
14,240625_092905,LEARNING,1.0,15,3.0,1472.0,,,,,,,,,,15.0,15.0,15.0,cue1.png,Hard,B,,,,,,,,,,,,,,,,,,,,,,,,,,,26,22,Female,0.42857142857142855,1.5,0.6,2.25,2.5,1.375,2.6666666666666665,2.6666666666666665,2.5,1.5555555555555556,1.5,2.25,2.75,2.75,0.125,0.5,0.4004604666649053,0.7049143735679192,0.02932852020508004,0.2215389460217617,0.024123148527523654,-0.8027182350567554,0.008570070705597498,-0.6143150470514926,0.008782776370406475,-0.7922939471963578,,,,,,,,,,,,,,,,,,,,,,,,
15,240625_092924,LEARNING,1.0,16,1.0,1472.0,,,,,,,,,,16.0,16.0,16.0,cue2.png,Easy,B,,,,,,,,,,,,,,,,,,,,,,,,,,,26,22,Female,0.42857142857142855,1.5,0.6,2.25,2.5,1.375,2.6666666666666665,2.6666666666666665,2.5,1.5555555555555556,1.5,2.25,2.75,2.75,0.8194444444444444,0.8333333333333334,0.3665004333015531,-0.1111797474923479,0.024031375446086363,-0.7245197487836637,0.021447999596805014,-1.3865348396938726,0.007788461558450045,-0.6633751077852708,0.02592776986718539,2.0607405963998247,,,,,,,,,,,,,,,,,,,,,,,,
16,240625_092944,LEARNING,1.0,17,1.0,1472.0,,,,,,,,,,17.0,17.0,17.0,cue2.png,Easy,B,,,,,,,,,,,,,,,,,,,,,,,,,,,26,22,Female,0.42857142857142855,1.5,0.6,2.25,2.5,1.375,2.6666666666666665,2.6666666666666665,2.5,1.5555555555555556,1.5,2.25,2.75,2.75,1.0,1.0,0.4212689111267941,1.2049624451367227,,,0.032497583649696335,1.024893761658239,0.010915974035876757,-0.46706733343516194,0.02002682757558895,1.0787867565890823,,,,,,,,,,,,,,,,,,,,,,,,
17,240625_093003,LEARNING,1.0,18,3.0,1472.0,,,,,,,,,,18.0,18.0,18.0,cue1.png,Hard,B,,,,,,,,,,,,,,,,,,,,,,,,,,,26,22,Female,0.42857142857142855,1.5,0.6,2.25,2.5,1.375,2.6666666666666665,2.6666666666666665,2.5,1.5555555555555556,1.5,2.25,2.75,2.75,0.5,0.6666666666666667,0.3883153000432584,0.41305367445802227,0.0317246755468856,0.6494871517736978,0.02596848336720015,-0.39999780773867727,0.008855395065085776,-0.5964058011625363,0.021650270334238615,1.3489378226042872,,,1.1971122055002826e+46,-0.14503534082427352,,,,,,,,,,,,,,,,,,,,
18,240625_093023,LEARNING,1.0,19,3.0,1472.0,,,,,,,,,,19.0,19.0,19.0,cue1.png,Hard,B,,,,,,,,,,,,,,,,,,,,,,,,,,,26,22,Female,0.42857142857142855,1.5,0.6,2.25,2.5,1.375,2.6666666666666665,2.6666666666666665,2.5,1.5555555555555556,1.5,2.25,2.75,2.75,0.8194444444444444,0.8333333333333334,0.4231775333432274,1.2508285770539282,0.02601030278379283,-0.3710875698637467,0.023886856933570268,-0.8542858149032725,0.0292799482930386,0.6856030206132053,,,,,,,,,,,,,,,,,,,,,,,,,,
19,240625_093043,LEARNING,1.0,20,3.0,1472.0,,,,,,,,,,20.0,20.0,20.0,cue1.png,Hard,B,,,,,,,,,,,,,,,,,,,,,,,,,,,26,22,Female,0.42857142857142855,1.5,0.6,2.25,2.5,1.375,2.6666666666666665,2.6666666666666665,2.5,1.5555555555555556,1.5,2.25,2.75,2.75,0.8194444444444444,0.8333333333333334,0.4038074999375062,0.7853469852658325,0.022519084923086977,-0.9946115932487964,0.023575923742558985,-0.9221429565228332,0.00910987350809675,-0.5804326924609304,0.009454756602652957,-0.6804722182716321,,,,,,,,,,,,,,,,,,,,,,,,
20,240625_093102,LEARNING,1.0,21,1.0,1472.0,,,,,,,,,,21.0,21.0,21.0,cue2.png,Easy,B,,,,,,,,,,,,,,,,,,,,,,,,,,,26,22,Female,0.42857142857142855,1.5,0.6,2.25,2.5,1.375,2.6666666666666665,2.6666666666666665,2.5,1.5555555555555556,1.5,2.25,2.75,2.75,0.8194444444444444,0.8333333333333334,0.3877014555554423,0.3983023674615864,0.02671211570586015,-0.24574528694400888,0.031024982316787575,0.7035175944136246,0.00886433217225737,-0.5958448366162244,0.0068349950642256855,-1.1164169835188105,1.9202788720093037e+44,-0.1686964567596771,1.0121581084699392e+43,-0.16971443424560523,,,,,,,,,,,,,,,,,,,,
21,240625_093122,LEARNING,1.0,22,3.0,1472.0,,,,,,,,,,22.0,22.0,22.0,cue1.png,Hard,B,,,,,,,,,,,,,,,,,,,,,,,,,,,26,22,Female,0.42857142857142855,1.5,0.6,2.25,2.5,1.375,2.6666666666666665,2.6666666666666665,2.5,1.5555555555555556,1.5,2.25,2.75,2.75,0.8194444444444444,0.8333333333333334,0.4050151333471553,0.8143676436222556,0.022743602538208986,-0.9545132286416138,0.034045289207450154,1.3626604531983237,,,0.01134654001307385,-0.3656675833240006,7.525047227176839e+43,-0.16890512458348822,-1.4948032335609073e+42,-0.16973840229363213,,,,,,,,,,,,,,,,,,,,
22,240625_093142,LEARNING,1.0,23,3.0,1472.0,,,,,,,,,,23.0,23.0,23.0,cue1.png,Hard,B,,,,,,,,,,,,,,,,,,,,,,,,,,,26,22,Female,0.42857142857142855,1.5,0.6,2.25,2.5,1.375,2.6666666666666665,2.6666666666666665,2.5,1.5555555555555556,1.5,2.25,2.75,2.75,0.8194444444444444,0.8333333333333334,0.426381833333936,1.3278311629039388,0.023294941792744623,-0.8560452200686196,0.02408746225023855,-0.8105063028527161,0.025568346791759643,0.4526331331229103,0.01229030268216686,-0.20861955082490644,-4.702514208701501e+43,-0.16912361705798673,-1.1154012296957657e+43,-0.16975833210831373,,,,,,,,,,,,,,,,,,,,
23,240625_093201,LEARNING,1.0,24,3.0,1472.0,,,,,,,,,,24.0,24.0,24.0,cue1.png,Hard,B,,,,,,,,,,,,,,,,,,,,,,,,,,,26,22,Female,0.42857142857142855,1.5,0.6,2.25,2.5,1.375,2.6666666666666665,2.6666666666666665,2.5,1.5555555555555556,1.5,2.25,2.75,2.75,0.125,0.5,0.3938385778261969,0.5457836538255673,0.026152044734149324,-0.34577276148027397,0.034126182857586916,1.380314444576987,0.015394547532274663,-0.1859561303026845,0.010569218468714269,-0.4950187678523627,-1.4798177915087986e+44,-0.16930401496941663,-1.769536289431225e+43,-0.169771828855751,,,,,,,,,,,,,,,,,,,,
24,240625_093221,LEARNING,1.0,25,1.0,1472.0,,,,,,,,,,25.0,25.0,25.0,cue2.png,Easy,B,,,,,,,,,,,,,,,,,,,,,,,,,,,26,22,Female,0.42857142857142855,1.5,0.6,2.25,2.5,1.375,2.6666666666666665,2.6666666666666665,2.5,1.5555555555555556,1.5,2.25,2.75,2.75,0.125,0.5,0.4383017222086589,1.6142782087672882,0.04825169293252386,3.6011770164573016,0.032559168080405924,1.038333765996885,0.0368464749917625,1.1605389406160929,0.011417062038343702,-0.35393227562516416,-1.89745040531203e+44,-0.1693786411192828,-1.829095267230351e+43,-0.16977305773420512,,,,,,,,,,,,,,,,,,,,
25,240625_093240,LEARNING,1.0,26,1.0,1472.0,,,,,,,,,,26.0,26.0,26.0,cue2.png,Easy,B,,,,,,,,,,,,,,,,,,,,,,,,,,,26,22,Female,0.42857142857142855,1.5,0.6,2.25,2.5,1.375,2.6666666666666665,2.6666666666666665,2.5,1.5555555555555556,1.5,2.25,2.75,2.75,1.0,1.0,0.3464734000153839,-0.5924497142279639,,,,,,,,,-1.7629200392767477e+44,-0.16935460208850436,-1.3841046764903563e+43,-0.16976387625780234,,,,,,,,,,,,,,,,,,,,
26,240625_093259,LEARNING,1.0,27,3.0,1472.0,,,,,,,,,,27.0,27.0,27.0,cue1.png,Hard,B,,,,,,,,,,,,,,,,,,,,,,,,,,,26,22,Female,0.42857142857142855,1.5,0.6,2.25,2.5,1.375,2.6666666666666665,2.6666666666666665,2.5,1.5555555555555556,1.5,2.25,2.75,2.75,0.8194444444444444,0.8333333333333334,0.3686823333717055,-0.058746470971662294,0.02990026072165834,0.3236505762472876,0.02853204191263621,0.15946564066936908,0.011415922257652896,-0.4356865720743247,0.02256356387314684,1.5009156005741597,-7.229525006920941e+43,-0.16916877183764437,5.561897342580464e+43,-0.16962055962379066,,,,,,,,,,,,,,,,,,,,
27,240625_093319,LEARNING,1.0,28,1.0,1472.0,,,,,,,,,,28.0,28.0,28.0,cue2.png,Easy,B,,,,,,,,,,,,,,,,,,,,,,,,,,,26,22,Female,0.42857142857142855,1.5,0.6,2.25,2.5,1.375,2.6666666666666665,2.6666666666666665,2.5,1.5555555555555556,1.5,2.25,2.75,2.75,0.8194444444444444,0.8333333333333334,0.3906153332855966,0.46832581118510147,0.027553134012190107,-0.09554122090577168,0.02701863496390445,-0.170815823699586,0.011001807840522643,-0.46167971523198853,,,-2.4463637615523373e+43,-0.1690833022416087,1.9292411381880505e+42,-0.16973133747400324,,,,,,,,,,,,,,,,,,,,
28,240625_093338,LEARNING,1.0,29,1.0,1472.0,,,,,,,,,,29.0,29.0,29.0,cue2.png,Easy,B,,,,,,,,,,,,,,,,,,,,,,,,,,,26,22,Female,0.42857142857142855,1.5,0.6,2.25,2.5,1.375,2.6666666666666665,2.6666666666666665,2.5,1.5555555555555556,1.5,2.25,2.75,2.75,1.0,1.0,0.3538672444410622,-0.41476811706139793,0.027535656719247126,-0.09866262794723406,0.03467765212016395,1.5006654683059615,0.010363486659175558,-0.5017458736678713,,,7.319477728542826e+43,-0.16890879787424806,9.844837315592235e+42,-0.169715005250125,,,,,,,,,,,,,,,,,,,,
29,240625_093357,LEARNING,1.0,30,3.0,1472.0,,,,,,,,,,30.0,30.0,30.0,cue1.png,Hard,B,,,,,,,,,,,,,,,,,,,,,,,,,,,26,22,Female,0.42857142857142855,1.5,0.6,2.25,2.5,1.375,2.6666666666666665,2.6666666666666665,2.5,1.5555555555555556,1.5,2.25,2.75,2.75,1.0,1.0,0.3577282889487428,-0.32198329290776423,0.029337487541847482,0.22314049313894846,0.02536944220133321,-0.5307307831922521,0.009954909314117954,-0.5273914657596822,0.008869961355017582,-0.7777858184633186,1.320714030448418e+44,-0.16880359210840704,1.4980122447061477e+43,-0.16970440963299574,,,,,,,,,,,,,,,,,,,,
30,240625_093416,LEARNING,1.0,31,3.0,1472.0,,,,,,,,,,31.0,31.0,31.0,cue1.png,Hard,B,,,,,,,,,,,,,,,,,,,,,,,,,,,26,22,Female,0.42857142857142855,1.5,0.6,2.25,2.5,1.375,2.6666666666666665,2.6666666666666665,2.5,1.5555555555555556,1.5,2.25,2.75,2.75,0.5,0.6666666666666667,0.3641027444456186,-0.16879864787810153,,,0.02154737365381932,-1.3648477388790696,0.011571745656401369,-0.4259058454358971,0.021057467485102073,1.2502917072560056,,,,,,,,,,,,,,,,,,,,,,,,
31,240625_093435,LEARNING,1.0,32,1.0,1472.0,,,,,,,,,,32.0,32.0,32.0,cue2.png,Easy,B,,,,,,,,,,,,,,,,,,,,,,,,,,,26,22,Female,0.42857142857142855,1.5,0.6,2.25,2.5,1.375,2.6666666666666665,2.6666666666666665,2.5,1.5555555555555556,1.5,2.25,2.75,2.75,1.0,1.0,0.3646492888219654,-0.15566463096878583,,,,,0.008168751936305021,-0.6395050326945082,,,1.4903069745128617e+44,-0.16877328779777206,1.2570521391388563e+43,-0.16970938135502608,,,,,,,,,,,,,,,,,,,,
32,240625_093454,LEARNING,1.0,33,1.0,1472.0,,,,,,,,,,33.0,33.0,33.0,cue2.png,Easy,B,,,,,,,,,,,,,,,,,,,,,,,,,,,26,22,Female,0.42857142857142855,1.5,0.6,2.25,2.5,1.375,2.6666666666666665,2.6666666666666665,2.5,1.5555555555555556,1.5,2.25,2.75,2.75,1.0,1.0,0.3720862221800619,0.02305243704237534,0.02359232650431494,-0.8029329482913328,0.0331468716304673,1.1665924536497774,0.02180977051952808,0.21671473214054468,,,8.78534087615975e+43,-0.16888260458394413,5.481356880661831e+42,-0.1697240084051312,,,,,,,,,,,,,,,,,,,,
33,240625_093513,LEARNING,1.0,34,1.0,1472.0,,,,,,,,,,34.0,34.0,34.0,cue2.png,Easy,B,,,,,,,,,,,,,,,,,,,,,,,,,,,26,22,Female,0.42857142857142855,1.5,0.6,2.25,2.5,1.375,2.6666666666666665,2.6666666666666665,2.5,1.5555555555555556,1.5,2.25,2.75,2.75,1.0,1.0,0.3354505111152927,-0.857340938927777,0.04027080137955688,2.175806899251373,0.029820601687512882,0.4406771216460101,0.027311464011938485,0.562045154463975,0.01309013803199822,-0.07552192773820636,1.6681586770505374e+43,-0.16900978045284448,-2.1717247276304686e+42,-0.1697397989835518,,,,,,,,,,,,,,,,,,,,
34,240625_093533,LEARNING,1.0,35,3.0,1472.0,,,,,,,,,,35.0,35.0,35.0,cue1.png,Hard,B,,,,,,,,,,,,,,,,,,,,,,,,,,,26,22,Female,0.42857142857142855,1.5,0.6,2.25,2.5,1.375,2.6666666666666665,2.6666666666666665,2.5,1.5555555555555556,1.5,2.25,2.75,2.75,0.8194444444444444,0.8333333333333334,0.3719214444669584,0.019092661104975525,0.024693899216077522,-0.6061944241734146,0.024865761237702906,-0.640652629647358,0.040314769086048245,1.3782369032477433,0.026364283502673252,2.1333792055093355,-6.412306275696152e+43,-0.16915416907782768,-9.323447157234259e+42,-0.16975455510920773,,,,,,,,,,,,,,,,,,,,
35,240625_093552,LEARNING,1.0,36,3.0,1472.0,,,,,,,,,,36.0,36.0,36.0,cue1.png,Hard,B,,,,,,,,,,,,,,,,,,,,,,,,,,,26,22,Female,0.42857142857142855,1.5,0.6,2.25,2.5,1.375,2.6666666666666665,2.6666666666666665,2.5,1.5555555555555556,1.5,2.25,2.75,2.75,0.5,0.6666666666666667,0.3986408111846281,0.6611862027525192,,,0.028819826566378628,0.22227091385819,,,,,-1.2918832757497044e+44,-0.16927043323064786,-1.340050917464884e+43,-0.1697629672980235,,,,,,,,,,,,,,,,,,,,
36,240625_093611,LEARNING,1.0,37,1.0,1472.0,,,,,,,,,,37.0,37.0,37.0,cue2.png,Easy,B,,,,,,,,,,,,,,,,,,,,,,,,,,,26,22,Female,0.42857142857142855,1.5,0.6,2.25,2.5,1.375,2.6666666666666665,2.6666666666666665,2.5,1.5555555555555556,1.5,2.25,2.75,2.75,0.8194444444444444,0.8333333333333334,0.3233413444831967,-1.148336521695875,,,0.028388102248796572,0.1280526733947242,,,0.01782476539480201,0.7123497865131121,-1.4979319124832745e+44,-0.16930725175471992,-1.4328993646672193e+43,-0.16976488303701834,,,,,,,,,,,,,,,,,,,,
37,240625_093630,LEARNING,1.0,38,3.0,1472.0,,,,,,,,,,38.0,38.0,38.0,cue1.png,Hard,B,,,,,,,,,,,,,,,,,,,,,,,,,,,26,22,Female,0.42857142857142855,1.5,0.6,2.25,2.5,1.375,2.6666666666666665,2.6666666666666665,2.5,1.5555555555555556,1.5,2.25,2.75,2.75,0.5,0.6666666666666667,0.3119929888699617,-1.4210490423395286,0.030585349404922087,0.44600594598001847,0.022421489555422718,-1.1740832652180397,0.02128300180346916,0.18365050138426167,0.00847374301968844,-0.8437190366772883,-1.2199513692202437e+44,-0.16925757982538348,-1.0098463132543765e+43,-0.16975615419715184,,,,,,,,,,,,,,,,,,,,
38,240625_093648,LEARNING,1.0,39,3.0,1472.0,,,,,,,,,,39.0,39.0,39.0,cue1.png,Hard,B,,,,,,,,,,,,,,,,,,,,,,,,,,,26,22,Female,0.42857142857142855,1.5,0.6,2.25,2.5,1.375,2.6666666666666665,2.6666666666666665,2.5,1.5555555555555556,1.5,2.25,2.75,2.75,0.5,0.6666666666666667,0.31871258889118,-1.2595702235610249,0.030915431047792777,0.5049578195725386,0.025726657754709753,-0.45277311545229604,0.012158882995726223,-0.3890523955607614,0.00860709143832467,-0.821529022736801,-4.178227652779825e+43,-0.16911424865959018,-2.456904052231659e+42,-0.1697403873931258,,,,,,,,,,,,,,,,,,,,
39,240625_093708,LEARNING,1.0,40,3.0,1472.0,,,,,,,,,,40.0,40.0,40.0,cue1.png,Hard,B,,,,,,,,,,,,,,,,,,,,,,,,,,,26,22,Female,0.42857142857142855,1.5,0.6,2.25,2.5,1.375,2.6666666666666665,2.6666666666666665,2.5,1.5555555555555556,1.5,2.25,2.75,2.75,1.0,1.0,0.3494080889245702,-0.5219261567183816,,,,,0.01879213496548095,0.027303715017390498,,,4.401766511612443e+43,-0.1689609340215087,5.967560728043603e+42,-0.16972300522231237,,,,,,,,,,,,,,,,,,,,
40,240625_093727,LEARNING,1.0,41,1.0,1472.0,,,,,,,,,,41.0,41.0,41.0,cue2.png,Easy,B,,,,,,,,,,,,,,,,,,,,,,,,,,,26,22,Female,0.42857142857142855,1.5,0.6,2.25,2.5,1.375,2.6666666666666665,2.6666666666666665,2.5,1.5555555555555556,1.5,2.25,2.75,2.75,0.8194444444444444,0.8333333333333334,0.3670980222781913,-0.09681907695274868,0.02913263926823595,0.18655503074677313,0.029277791845469157,0.32221590428849783,0.010713175657947376,-0.4797965866357391,0.009653796249898983,-0.6473507715213142,,,1.1839403862983023e+43,-0.1697108898674473,,,,,,,,,,,,,,,,,,,,
41,240625_093746,LEARNING,1.0,42,3.0,1472.0,,,,,,,,,,42.0,42.0,42.0,cue1.png,Hard,B,,,,,,,,,,,,,,,,,,,,,,,,,,,26,22,Female,0.42857142857142855,1.5,0.6,2.25,2.5,1.375,2.6666666666666665,2.6666666666666665,2.5,1.5555555555555556,1.5,2.25,2.75,2.75,0.8194444444444444,0.8333333333333334,0.3345614111102704,-0.8787069157915219,0.037934765883830275,1.7585959690886668,0.028769353689835474,0.2112558622955182,0.0338471128988355,0.9722749125163418,0.023889379682324074,1.721539673878079,,,,,,,,,,,,,,,,,,,,,,,,
42,240625_093804,LEARNING,1.0,43,3.0,1472.0,,,,,,,,,,43.0,43.0,43.0,cue1.png,Hard,B,,,,,,,,,,,,,,,,,,,,,,,,,,,26,22,Female,0.42857142857142855,1.5,0.6,2.25,2.5,1.375,2.6666666666666665,2.6666666666666665,2.5,1.5555555555555556,1.5,2.25,2.75,2.75,0.5,0.6666666666666667,0.2242458111658278,-3.529702914901728,,,,,0.0075049299055320075,-0.681171829027433,,,1.29282878106489e+44,-0.16880857488209564,1.0832033957239017e+43,-0.1697129683705013,,,,,,,,,,,,,,,,,,,,
43,240625_093823,LEARNING,1.0,44,1.0,1472.0,,,,,,,,,,44.0,44.0,44.0,cue2.png,Easy,B,,,,,,,,,,,,,,,,,,,,,,,,,,,26,22,Female,0.42857142857142855,1.5,0.6,2.25,2.5,1.375,2.6666666666666665,2.6666666666666665,2.5,1.5555555555555556,1.5,2.25,2.75,2.75,0.8194444444444444,0.8333333333333334,0.3681621555652883,-0.07124687240475354,,,,,0.007475792727104962,-0.6830007121059625,0.015995246177691443,0.407906304188658,2.9620283183472137e+43,-0.16898666048889352,2.1277482866847535e+42,-0.16973092789484862,,,,,,,,,,,,,,,,,,,,
44,240625_093842,LEARNING,1.0,45,1.0,1472.0,,,,,,,,,,45.0,45.0,45.0,cue2.png,Easy,B,,,,,,,,,,,,,,,,,,,,,,,,,,,26,22,Female,0.42857142857142855,1.5,0.6,2.25,2.5,1.375,2.6666666666666665,2.6666666666666665,2.5,1.5555555555555556,1.5,2.25,2.75,2.75,0.8194444444444444,0.8333333333333334,0.339985655568954,-0.7483568078701773,0.03211397915178516,0.7190159407895175,0.03614032694970972,1.8198753047632492,0.023800571623344008,0.3416733811258237,0.009873436959702208,-0.6108011786406686,-6.349877035819571e+43,-0.16915305353903665,-7.512772750920037e+42,-0.16975081915058732,,,,,,,,,,,,,,,,,,,,
45,240625_093901,LEARNING,1.0,46,1.0,1472.0,,,,,,,,,,46.0,46.0,46.0,cue2.png,Easy,B,,,,,,,,,,,,,,,,,,,,,,,,,,,26,22,Female,0.42857142857142855,1.5,0.6,2.25,2.5,1.375,2.6666666666666665,2.6666666666666665,2.5,1.5555555555555556,1.5,2.25,2.75,2.75,1.0,1.0,0.3194756888939689,-1.2412321548261118,0.026591220129698293,-0.26733697759910147,0.03120226358222072,0.7422069343836227,,,0.01021032314714199,-0.5547412022862482,-1.5476359519149463e+44,-0.16931613329551196,,,,,,,,,,,,,,,,,,,,,,
46,240625_093921,LEARNING,1.0,47,3.0,1472.0,,,,,,,,,,47.0,47.0,47.0,cue1.png,Hard,B,,,,,,,,,,,,,,,,,,,,,,,,,,,26,22,Female,0.42857142857142855,1.5,0.6,2.25,2.5,1.375,2.6666666666666665,2.6666666666666665,2.5,1.5555555555555556,1.5,2.25,2.75,2.75,1.0,0.8888888888888888,0.3641936625353992,-0.1666137937652058,0.028036473928843886,-0.009217748261292267,,,0.026629164254572887,0.5192185477678235,0.009493771099611022,-0.6739799610687758,-1.2664258193409772e+44,-0.16926588427567074,-1.202707316019175e+43,-0.16976013349195662,,,,,,,,,,,,,,,,,,,,
47,240625_093940,LEARNING,1.0,48,3.0,1472.0,,,,,,,,,,48.0,48.0,48.0,cue1.png,Hard,B,,,,,,,,,,,,,,,,,,,,,,,,,,,26,22,Female,0.42857142857142855,1.5,0.6,2.25,2.5,1.375,2.6666666666666665,2.6666666666666665,2.5,1.5555555555555556,1.5,2.25,2.75,2.75,0.5,0.6666666666666667,0.2851766222156584,-2.0654735910618567,0.036367010215424,1.4785981685928364,0.02808961528336766,0.06291175930052065,,,0.011069543493374068,-0.4117615430159579,2.689506806944309e+43,-0.16899153013519977,6.492460571818136e+42,-0.1697219221981699,,,,,,,,,,,,,,,,,,,,
48,240625_093959,LEARNING,1.0,49,1.0,1472.0,,,,,,,,,,49.0,49.0,49.0,cue2.png,Easy,B,,,,,,,,,,,,,,,,,,,,,,,,,,,26,22,Female,0.42857142857142855,1.5,0.6,2.25,2.5,1.375,2.6666666666666665,2.6666666666666665,2.5,1.5555555555555556,1.5,2.25,2.75,2.75,1.0,1.0,0.3769317444465641,0.13949526243212998,0.030610618615640767,0.45051897282730047,0.02421152012166481,-0.7834322792561564,,,0.009282660852974526,-0.7091100313294726,,,,,,,,,,,,,,,,,,,,,,,,
49,240625_094019,LEARNING,1.0,50,1.0,1472.0,,,,,,,,,,50.0,50.0,50.0,cue2.png,Easy,B,,,,,,,,,,,,,,,,,,,,,,,,,,,26,22,Female,0.42857142857142855,1.5,0.6,2.25,2.5,1.375,2.6666666666666665,2.6666666666666665,2.5,1.5555555555555556,1.5,2.25,2.75,2.75,0.8194444444444444,0.8333333333333334,0.4030685443431139,0.767589131206745,0.034415680688102974,1.1300948994272555,,,,,,,-5.474432139267765e+43,-0.16913741034454216,-7.439057510154399e+42,-0.1697506670541705,,,,,,,,,,,,,,,,,,,,
0,240625_094143,TrueCHOICE,9.0,1,1.0,1472.0,,,,,,,,,,,1.0,1.0,,,B,,,,,,True,cue2.png,Easy,cue1.png,Hard,Left,Easy,Easy,0.0162823998834937,,,,,,,,,,,,,26,22,Female,0.42857142857142855,1.5,0.6,2.25,2.5,1.375,2.6666666666666665,2.6666666666666665,2.5,1.5555555555555556,1.5,2.25,2.75,2.75,1.0,1.0,0.3622684555593878,-0.27107585787145794,,,,,,,,,,,,,,,,,70563045.66105428,-0.45258906724987674,,,,,,,,,,,,,,
1,240625_094200,TrueCHOICE,9.0,2,1.0,1472.0,,,,,,,,,,,2.0,2.0,,,B,,,,,,True,cue2.png,Easy,cue1.png,Hard,Left,Easy,Easy,0.0154567998833954,,,,,,,,,,,,,26,22,Female,0.42857142857142855,1.5,0.6,2.25,2.5,1.375,2.6666666666666665,2.6666666666666665,2.5,1.5555555555555556,1.5,2.25,2.75,2.75,1.0,1.0,0.3803803222512619,0.08686459325322379,,,,,,,,,,,,,0.042770147579028195,-1.0102929638911178,0.00909509708991229,-0.8358088279162119,16272395.894945823,-0.4556067501045454,,,,,,,,,,,,,,
2,240625_094218,TrueCHOICE,9.0,3,1.0,1472.0,,,,,,,,,,,3.0,3.0,,,B,,,,,,True,cue1.png,Hard,cue2.png,Easy,Right,Easy,Easy,0.0174777000211179,,,,,,,,,,,,,26,22,Female,0.42857142857142855,1.5,0.6,2.25,2.5,1.375,2.6666666666666665,2.6666666666666665,2.5,1.5555555555555556,1.5,2.25,2.75,2.75,0.8194444444444444,0.8333333333333334,0.3652632222510874,-0.2118910063662807,,,,,,,,,,,,,0.05089892217103918,0.9697508635076121,0.029931250561199236,0.3401875420115222,10902203.19771464,-0.4559052460425847,,,,,,,,,,,,,,
3,240625_094235,TrueCHOICE,9.0,4,1.0,1472.0,,,,,,,,,,,4.0,4.0,,,B,,,,,,True,cue2.png,Easy,cue1.png,Hard,Left,Easy,Easy,0.0138648001011461,,,,,,,,,,,,,26,22,Female,0.42857142857142855,1.5,0.6,2.25,2.5,1.375,2.6666666666666665,2.6666666666666665,2.5,1.5555555555555556,1.5,2.25,2.75,2.75,0.8194444444444444,0.8333333333333334,0.3694138999821411,-0.12986216390615624,,,,,,,,,,,,,,,0.00779623956880789,-0.9091165875263049,-124675.99016262758,-0.4565181623441784,,,,,,,,,,,,,,
4,240625_094252,TrueCHOICE,9.0,5,1.0,1472.0,,,,,,,,,,,5.0,5.0,,,B,,,,,,True,cue1.png,Hard,cue2.png,Easy,Right,Easy,Easy,0.0170128000900149,,,,,,,,,,,,,26,22,Female,0.42857142857142855,1.5,0.6,2.25,2.5,1.375,2.6666666666666665,2.6666666666666665,2.5,1.5555555555555556,1.5,2.25,2.75,2.75,1.0,1.0,0.370366244447521,-0.11104121003301896,,,,,,,,,,,,,0.050632251090362235,0.9047939107389771,,,52051180509.393875,2.436693318781089,,,,,,,,,,,,,,
5,240625_094308,TrueCHOICE,9.0,6,1.0,1472.0,,,,,,,,,,,6.0,6.0,,,B,,,,,,True,cue1.png,Hard,cue2.png,Easy,Right,Easy,Easy,0.0157097000628709,,,,,,,,,,,,,26,22,Female,0.42857142857142855,1.5,0.6,2.25,2.5,1.375,2.6666666666666665,2.6666666666666665,2.5,1.5555555555555556,1.5,2.25,2.75,2.75,0.8194444444444444,0.8333333333333334,0.3469860667052368,-0.5730980212286907,,,,,,,,,,,,,0.0408099327154823,-1.487771001571468,0.012509458468450108,-0.643101637871987,,,,,,,,,,,,,,,,
6,240625_094326,TrueCHOICE,9.0,7,1.0,1472.0,,,,,,,,,,,7.0,7.0,,,B,,,,,,True,cue2.png,Easy,cue1.png,Hard,Left,Easy,Easy,0.0161373999435454,,,,,,,,,,,,,26,22,Female,0.42857142857142855,1.5,0.6,2.25,2.5,1.375,2.6666666666666665,2.6666666666666665,2.5,1.5555555555555556,1.5,2.25,2.75,2.75,1.0,1.0,0.5149175444514387,2.7456912524069272,,,,,,,,,,,,,0.04558115834693703,-0.32557419641299357,0.00881549137030171,-0.8515898266368344,,,,,,,,,,,,,,,,
7,240625_094344,TrueCHOICE,9.0,8,1.0,1472.0,,,,,,,,,,,8.0,8.0,,,B,,,,,,True,cue1.png,Hard,cue2.png,Easy,Right,Easy,Easy,0.0164987000171095,,,,,,,,,,,,,26,22,Female,0.42857142857142855,1.5,0.6,2.25,2.5,1.375,2.6666666666666665,2.6666666666666665,2.5,1.5555555555555556,1.5,2.25,2.75,2.75,0.8194444444444444,0.8333333333333334,0.3879875777703192,0.23720494848197327,,,,,,,,,,,,,0.05081411598506813,0.9490933876289919,0.04795270576364978,1.3573218191276006,,,,,,,,,,,,,,,,
8,240625_094400,TrueCHOICE,9.0,9,1.0,1472.0,,,,,,,,,,,9.0,9.0,,,B,,,,,,True,cue2.png,Easy,cue1.png,Hard,Left,Easy,Easy,0.0166798999998718,,,,,,,,,,,,,26,22,Female,0.42857142857142855,1.5,0.6,2.25,2.5,1.375,2.6666666666666665,2.6666666666666665,2.5,1.5555555555555556,1.5,2.25,2.75,2.75,1.0,1.0,0.3522993555654668,-0.46809277555515977,,,,,,,,,,,,,,,0.051226715187815255,1.5421075188122162,5342049489.006259,-0.15957960195091317,,,,,,,,,,,,,,
9,240625_094417,TrueCHOICE,9.0,10,1.0,1472.0,,,,,,,,,,,10.0,10.0,,,B,,,,,,True,cue1.png,Hard,cue2.png,Easy,Right,Easy,Easy,0.0157456998713314,,,,,,,,,,,,,26,22,Female,0.42857142857142855,1.5,0.6,2.25,2.5,1.375,2.6666666666666665,2.6666666666666665,2.5,1.5555555555555556,1.5,2.25,2.75,2.75,0.8194444444444444,0.8333333333333334,0.3099668555272122,-1.304699759181351,,,,,,,,,,,,,,,,,301189.77731807507,-0.45649449108899076,,,,,,,,,,,,,,
0,240625_094526,FalseCHOICE,9.0,1,2.0,1472.0,,,,,,,,,,,1.0,1.0,,,B,,,,,,False,cue2.png,Easy,cue1.png,Hard,Right,Hard,Mid,0.0166694000363349,,,,,,,,,,,,,26,22,Female,0.42857142857142855,1.5,0.6,2.25,2.5,1.375,2.6666666666666665,2.6666666666666665,2.5,1.5555555555555556,1.5,2.25,2.75,2.75,0.8194444444444444,0.8333333333333334,0.33405436665958,1.2738472540701613,,,,,,,,,,,,,,,,,,,0.04129599027342931,0.6181332097930116,0.009740154390796691,-0.575216363992361,,,,,,,,,,
1,240625_094543,FalseCHOICE,9.0,2,2.0,1472.0,,,,,,,,,,,2.0,2.0,,,B,,,,,,False,cue1.png,Hard,cue2.png,Easy,Right,Easy,Mid,0.0172824999317526,,,,,,,,,,,,,26,22,Female,0.42857142857142855,1.5,0.6,2.25,2.5,1.375,2.6666666666666665,2.6666666666666665,2.5,1.5555555555555556,1.5,2.25,2.75,2.75,0.5,0.6666666666666667,0.2902552444332589,0.3760695707298948,,,,,,,,,,,,,,,,,,,0.04586939842622137,1.2692341145624664,0.008361562814937157,-0.7157029878570093,9.492287082108822e+44,-0.17619466923075897,,,,,,,,
2,240625_094559,FalseCHOICE,9.0,3,2.0,1472.0,,,,,,,,,,,3.0,3.0,,,B,,,,,,False,cue1.png,Hard,cue2.png,Easy,Right,Easy,Mid,0.0166190001182258,,,,,,,,,,,,,26,22,Female,0.42857142857142855,1.5,0.6,2.25,2.5,1.375,2.6666666666666665,2.6666666666666665,2.5,1.5555555555555556,1.5,2.25,2.75,2.75,0.8194444444444444,0.8333333333333334,0.2744663666882034,0.05243518346401931,,,,,,,,,,,,,,,,,,,0.04096059229208298,0.5703837149268851,0.008201952352064305,-0.7319682367205099,-9.321806150276392e+44,-0.1773401546257439,,,,,,,,
3,240625_094621,FalseCHOICE,9.0,4,2.0,1472.0,,,,,,,,,,,5.0,4.0,,,B,,,,,,False,cue1.png,Hard,cue2.png,Easy,Right,Easy,Mid,0.0165529001969844,,,,,,,,,,,,,26,22,Female,0.42857142857142855,1.5,0.6,2.25,2.5,1.375,2.6666666666666665,2.6666666666666665,2.5,1.5555555555555556,1.5,2.25,2.75,2.75,0.5,0.6666666666666667,0.2760492111297531,0.08487972444088263,,,,,,,,,,,,,,,,,,,0.04372024604299227,0.9632664391531288,0.016431188301251887,0.10663951029560426,-9.679211049946305e+44,-0.17736191502033805,,,,,,,,
4,240625_094636,FalseCHOICE,9.0,5,2.0,1472.0,,,,,,,,,,,6.0,5.0,,,B,,,,,,False,cue2.png,Easy,cue1.png,Hard,Left,Easy,Mid,0.0134825999848544,,,,,,,,,,,,,26,22,Female,0.42857142857142855,1.5,0.6,2.25,2.5,1.375,2.6666666666666665,2.6666666666666665,2.5,1.5555555555555556,1.5,2.25,2.75,2.75,0.5,0.6666666666666667,0.1657341999622682,-2.176315252295046,,,,,,,,,,,,,,,,,,,,,0.008289475219452627,-0.7230491396030968,9.581475071259957e+48,5.656854148677818,,,,,,,,
5,240625_094653,FalseCHOICE,9.0,6,2.0,1472.0,,,,,,,,,,,7.0,6.0,,,B,,,,,,False,cue1.png,Hard,cue2.png,Easy,Right,Easy,Mid,0.0171155999414622,,,,,,,,,,,,,26,22,Female,0.42857142857142855,1.5,0.6,2.25,2.5,1.375,2.6666666666666665,2.6666666666666665,2.5,1.5555555555555556,1.5,2.25,2.75,2.75,0.5,0.6666666666666667,0.2885732444054965,0.3415925764079552,,,,,,,,,,,,,,,,,,,,,0.009592018359536261,-0.5903123005038766,,,,,,,,,,
6,240625_094709,FalseCHOICE,9.0,7,2.0,1472.0,,,,,,,,,,,8.0,7.0,,,B,,,,,,False,cue1.png,Hard,cue2.png,Easy,Right,Easy,Mid,0.017054800176993,,,,,,,,,,,,,26,22,Female,0.42857142857142855,1.5,0.6,2.25,2.5,1.375,2.6666666666666665,2.6666666666666665,2.5,1.5555555555555556,1.5,2.25,2.75,2.75,0.5,0.6666666666666667,0.2636384444776922,-0.1695114315231526,,,,,,,,,,,,,,,,,,,0.04901814475058664,1.7175106541125413,0.008095309058271079,-0.7428358182182969,6.909537807197418e+43,-0.1767305334166439,,,,,,,,
7,240625_094725,FalseCHOICE,9.0,8,2.0,1472.0,,,,,,,,,,,9.0,8.0,,,B,,,,,,False,cue2.png,Easy,cue1.png,Hard,Left,Easy,Mid,0.0162609999533742,,,,,,,,,,,,,26,22,Female,0.42857142857142855,1.5,0.6,2.25,2.5,1.375,2.6666666666666665,2.6666666666666665,2.5,1.5555555555555556,1.5,2.25,2.75,2.75,0.8194444444444444,0.8333333333333334,0.3134000555405186,0.8504830712985566,,,,,,,,,,,,,,,,,,,0.03695881387741984,0.0006638343858588555,0.008194882986436393,-0.7326886468313224,,,,,,,,,,
8,240625_094741,FalseCHOICE,9.0,9,2.0,1472.0,,,,,,,,,,,10.0,9.0,,,B,,,,,,False,cue2.png,Easy,cue1.png,Hard,Left,Easy,Mid,0.0134584000334143,,,,,,,,,,,,,26,22,Female,0.42857142857142855,1.5,0.6,2.25,2.5,1.375,2.6666666666666665,2.6666666666666665,2.5,1.5555555555555556,1.5,2.25,2.75,2.75,0.5,0.6666666666666667,0.2571845332988434,-0.3018012385355113,,,,,,,,,,,,,,,,,,,0.04114093432434468,0.5960584101324442,,,,,,,,,,,,
9,240625_094758,FalseCHOICE,9.0,10,2.0,1472.0,,,,,,,,,,,11.0,10.0,,,B,,,,,,False,cue1.png,Hard,cue2.png,Easy,Right,Easy,Mid,0.015665499959141,,,,,,,,,,,,,26,22,Female,0.42857142857142855,1.5,0.6,2.25,2.5,1.375,2.6666666666666665,2.6666666666666665,2.5,1.5555555555555556,1.5,2.25,2.75,2.75,0.8194444444444444,0.8333333333333334,0.2970963111664686,0.516295144465852,,,,,,,,,,,,,,,,,,,0.03991567700668526,0.4216226017700506,0.014251765637217407,-0.1154565313499446,4.615211928217096e+44,-0.1764916071851968,,,,,,,,
10,240625_094814,FalseCHOICE,9.0,11,2.0,1472.0,,,,,,,,,,,12.0,11.0,,,B,,,,,,False,cue2.png,Easy,cue1.png,Hard,Left,Easy,Mid,0.0168918999843299,,,,,,,,,,,,,26,22,Female,0.42857142857142855,1.5,0.6,2.25,2.5,1.375,2.6666666666666665,2.6666666666666665,2.5,1.5555555555555556,1.5,2.25,2.75,2.75,0.5,0.6666666666666667,0.2710703333270632,-0.017175411646913642,,,,,,,,,,,,,,,,,,,0.03706603212947687,0.01592814025795024,,,3.042474096349471e+44,-0.17658736243602352,,,,,,,,
11,240625_094830,FalseCHOICE,9.0,12,2.0,1472.0,,,,,,,,,,,13.0,12.0,,,B,,,,,,False,cue1.png,Hard,cue2.png,Easy,Right,Easy,Mid,0.0165745001286268,,,,,,,,,,,,,26,22,Female,0.42857142857142855,1.5,0.6,2.25,2.5,1.375,2.6666666666666665,2.6666666666666665,2.5,1.5555555555555556,1.5,2.25,2.75,2.75,0.5,0.6666666666666667,0.3083105555528568,0.7461604439026719,,,,,,,,,,,,,,,,,,,0.04653099227070766,1.3634230293375327,,,7.274424538371438e+43,-0.17672831182447776,,,,,,,,
12,240625_094846,FalseCHOICE,9.0,13,2.0,1472.0,,,,,,,,,,,14.0,13.0,,,B,,,,,,False,cue2.png,Easy,cue1.png,Hard,Left,Easy,Mid,0.0140640998724848,,,,,,,,,,,,,26,22,Female,0.42857142857142855,1.5,0.6,2.25,2.5,1.375,2.6666666666666665,2.6666666666666665,2.5,1.5555555555555556,1.5,2.25,2.75,2.75,1.0,1.0,0.2259765777529941,-0.9414899950124913,,,,,,,,,,,,,,,,,,,0.04019851820067125,0.4618897616556,0.008858907190903795,-0.665020658513701,-1.6931444968211248e+44,-0.17687568788799685,,,,,,,,
13,240625_094902,FalseCHOICE,9.0,14,2.0,1472.0,,,,,,,,,,,15.0,14.0,,,B,,,,,,False,cue1.png,Hard,cue2.png,Easy,Right,Easy,Mid,0.0164216000121086,,,,,,,,,,,,,26,22,Female,0.42857142857142855,1.5,0.6,2.25,2.5,1.375,2.6666666666666665,2.6666666666666665,2.5,1.5555555555555556,1.5,2.25,2.75,2.75,0.8194444444444444,0.8333333333333334,0.3011522888878567,0.5994330270830353,,,,,,,,,,,,,,,,,,,,,0.0060150761118096824,-0.9548238418054572,,,,,,,,,,
14,240625_094918,FalseCHOICE,9.0,15,2.0,1472.0,,,,,,,,,,,16.0,15.0,,,B,,,,,,False,cue2.png,Easy,cue1.png,Hard,Left,Easy,Mid,0.0161981999408453,,,,,,,,,,,,,26,22,Female,0.42857142857142855,1.5,0.6,2.25,2.5,1.375,2.6666666666666665,2.6666666666666665,2.5,1.5555555555555556,1.5,2.25,2.75,2.75,0.5,0.6666666666666667,0.2386033888647539,-0.6826704422069686,,,,,,,,,,,,,,,,,,,,,,,,,,,,,,,,
15,240625_094935,FalseCHOICE,9.0,16,2.0,1472.0,,,,,,,,,,,17.0,16.0,,,B,,,,,,False,cue2.png,Easy,cue1.png,Hard,Left,Easy,Mid,0.0171535999979823,,,,,,,,,,,,,26,22,Female,0.42857142857142855,1.5,0.6,2.25,2.5,1.375,2.6666666666666665,2.6666666666666665,2.5,1.5555555555555556,1.5,2.25,2.75,2.75,0.8194444444444444,0.8333333333333334,0.3715230888273153,2.0418668141803034,,,,,,,,,,,,,,,,,,,0.027742956242646527,-1.3113671595161671,0.0199882534576022,0.4691254585871887,,,,,,,,,,
16,240625_094952,FalseCHOICE,9.0,17,2.0,1472.0,,,,,,,,,,,18.0,17.0,,,B,,,,,,False,cue1.png,Hard,cue2.png,Easy,Left,Hard,Mid,0.0156115998979657,,,,,,,,,,,,,26,22,Female,0.42857142857142855,1.5,0.6,2.25,2.5,1.375,2.6666666666666665,2.6666666666666665,2.5,1.5555555555555556,1.5,2.25,2.75,2.75,0.8194444444444444,0.8333333333333334,0.3182351666813095,0.949591333245947,,,,,,,,,,,,,,,,,,,0.04002518414791306,0.4372127691791435,0.008944844493066536,-0.6562631398574941,,,,,,,,,,
17,240625_095008,FalseCHOICE,9.0,18,2.0,1472.0,,,,,,,,,,,19.0,18.0,,,B,,,,,,False,cue1.png,Hard,cue2.png,Easy,Right,Easy,Mid,0.0165236999746412,,,,,,,,,,,,,26,22,Female,0.42857142857142855,1.5,0.6,2.25,2.5,1.375,2.6666666666666665,2.6666666666666665,2.5,1.5555555555555556,1.5,2.25,2.75,2.75,0.5,0.6666666666666667,0.2476373333483934,-0.4974960976610301,,,,,,,,,,,,,,,,,,,0.04567294298379971,1.2412654067554592,0.020558296583233177,0.5272162198971267,,,,,,,,,,
18,240625_095023,FalseCHOICE,9.0,19,2.0,1472.0,,,,,,,,,,,20.0,19.0,,,B,,,,,,False,cue2.png,Easy,cue1.png,Hard,Left,Easy,Mid,0.0161852999590337,,,,,,,,,,,,,26,22,Female,0.42857142857142855,1.5,0.6,2.25,2.5,1.375,2.6666666666666665,2.6666666666666665,2.5,1.5555555555555556,1.5,2.25,2.75,2.75,0.8194444444444444,0.8333333333333334,0.2191801555713431,-1.0808004617774676,,,,,,,,,,,,,,,,,,,0.045141211375168966,1.1655645464981839,0.008225437012424779,-0.729575011123876,,,,,,,,,,
19,240625_095040,FalseCHOICE,9.0,20,2.0,1472.0,,,,,,,,,,,21.0,20.0,,,B,,,,,,False,cue2.png,Easy,cue1.png,Hard,Left,Easy,Mid,0.0163026999216526,,,,,,,,,,,,,26,22,Female,0.42857142857142855,1.5,0.6,2.25,2.5,1.375,2.6666666666666665,2.6666666666666665,2.5,1.5555555555555556,1.5,2.25,2.75,2.75,0.5,0.6666666666666667,0.23283976668285,-0.8008109689367182,,,,,,,,,,,,,,,,,,,0.03927259796494202,0.3300695778699914,,,1.2767468374204272e+44,-0.1766948677386521,,,,,,,,
20,240625_095056,FalseCHOICE,9.0,21,2.0,1472.0,,,,,,,,,,,22.0,21.0,,,B,,,,,,False,cue2.png,Easy,cue1.png,Hard,Left,Easy,Mid,0.0170892998576164,,,,,,,,,,,,,26,22,Female,0.42857142857142855,1.5,0.6,2.25,2.5,1.375,2.6666666666666665,2.6666666666666665,2.5,1.5555555555555556,1.5,2.25,2.75,2.75,0.8194444444444444,0.8333333333333334,0.2541373333531535,-0.3642615794934861,,,,,,,,,,,,,,,,,,,0.037707727079080704,0.10728411556445622,0.031191868911984083,1.6108400445642328,6.150107401567903e+43,-0.17673515716559324,,,,,,,,
21,240625_095112,FalseCHOICE,9.0,22,2.0,1472.0,,,,,,,,,,,23.0,22.0,,,B,,,,,,False,cue1.png,Hard,cue2.png,Easy,Right,Easy,Mid,0.015138000017032,,,,,,,,,,,,,26,22,Female,0.42857142857142855,1.5,0.6,2.25,2.5,1.375,2.6666666666666665,2.6666666666666665,2.5,1.5555555555555556,1.5,2.25,2.75,2.75,0.8194444444444444,0.8333333333333334,0.2397705333359125,-0.6587467604942226,,,,,,,,,,,,,,,,,,,0.04513700831849547,1.1649661713015074,0.012907234210431974,-0.2524722248567285,-1.0161470076405805e+43,-0.17677878849908937,,,,,,,,
22,240625_095129,FalseCHOICE,9.0,23,2.0,1472.0,,,,,,,,,,,24.0,23.0,,,B,,,,,,False,cue2.png,Easy,cue1.png,Hard,Left,Easy,Mid,0.0167715998832136,,,,,,,,,,,,,26,22,Female,0.42857142857142855,1.5,0.6,2.25,2.5,1.375,2.6666666666666665,2.6666666666666665,2.5,1.5555555555555556,1.5,2.25,2.75,2.75,0.5,0.5555555555555556,0.2651814000273589,-0.13788451782111646,,,,,,,,,,,,,,,,,,,0.0439582071983874,0.997144177242866,0.0168436406973542,0.14867084549883225,-8.315412352126887e+43,-0.17682322966212047,,,,,,,,
23,240625_095146,FalseCHOICE,9.0,24,2.0,1472.0,,,,,,,,,,,25.0,24.0,,,B,,,,,,False,cue1.png,Hard,cue2.png,Easy,Right,Easy,Mid,0.0166122999507933,,,,,,,,,,,,,26,22,Female,0.42857142857142855,1.5,0.6,2.25,2.5,1.375,2.6666666666666665,2.6666666666666665,2.5,1.5555555555555556,1.5,2.25,2.75,2.75,0.5,0.6666666666666667,0.2984380444977432,0.54379748196905,,,,,,,,,,,,,,,,,,,0.039992931339848,0.43262104418742203,0.008967814935753406,-0.6539223160788903,-1.1694089839083927e+44,-0.17684380054835916,,,,,,,,
24,240625_095203,FalseCHOICE,9.0,25,2.0,1472.0,,,,,,,,,,,26.0,25.0,,,B,,,,,,False,cue1.png,Hard,cue2.png,Easy,Right,Easy,Mid,0.0167254998814314,,,,,,,,,,,,,26,22,Female,0.42857142857142855,1.5,0.6,2.25,2.5,1.375,2.6666666666666665,2.6666666666666665,2.5,1.5555555555555556,1.5,2.25,2.75,2.75,0.5,0.6666666666666667,0.3334604222586171,1.2616728085282154,,,,,,,,,,,,,,,,,,,,,0.05093638238645168,3.622922583331058,-1.1937438429766903e+44,-0.17684528216245063,,,,,,,,
25,240625_095220,FalseCHOICE,9.0,26,2.0,1472.0,,,,,,,,,,,27.0,26.0,,,B,,,,,,False,cue2.png,Easy,cue1.png,Hard,Left,Easy,Mid,0.0161210000514984,,,,,,,,,,,,,26,22,Female,0.42857142857142855,1.5,0.6,2.25,2.5,1.375,2.6666666666666665,2.6666666666666665,2.5,1.5555555555555556,1.5,2.25,2.75,2.75,0.5,0.6666666666666667,0.3806382222877194,2.228705339371138,,,,,,,,,,,,,,,,,,,0.03006524917709477,-0.9807500398007831,0.009504933543372656,-0.5991867576142579,-8.419898929510541e+43,-0.1768238658227203,,,,,,,,
26,240625_095235,FalseCHOICE,9.0,27,2.0,1472.0,,,,,,,,,,,28.0,27.0,,,B,,,,,,False,cue2.png,Easy,cue1.png,Hard,Left,Easy,Mid,0.0164260000456124,,,,,,,,,,,,,26,22,Female,0.42857142857142855,1.5,0.6,2.25,2.5,1.375,2.6666666666666665,2.6666666666666665,2.5,1.5555555555555556,1.5,2.25,2.75,2.75,0.125,0.5,0.2485365111432555,-0.47906509455984975,,,,,,,,,,,,,,,,,,,0.038423632703494526,0.20920521777371595,0.01932620065265176,0.4016583675238928,,,,,,,,,,
27,240625_095251,FalseCHOICE,9.0,28,2.0,1472.0,,,,,,,,,,,29.0,28.0,,,B,,,,,,False,cue1.png,Hard,cue2.png,Easy,Right,Easy,Mid,0.0166402000468224,,,,,,,,,,,,,26,22,Female,0.42857142857142855,1.5,0.6,2.25,2.5,1.375,2.6666666666666665,2.6666666666666665,2.5,1.5555555555555556,1.5,2.25,2.75,2.75,0.5,0.6666666666666667,0.1862408333561486,-1.7559781111456203,,,,,,,,,,,,,,,,,,,,,0.03664631229208444,2.1666800402158937,1.7759314637332455e+43,-0.1767617890876848,,,,,,,,
28,240625_095308,FalseCHOICE,9.0,29,2.0,1472.0,,,,,,,,,,,30.0,29.0,,,B,,,,,,False,cue2.png,Easy,cue1.png,Hard,Left,Easy,Mid,0.0160542000085115,,,,,,,,,,,,,26,22,Female,0.42857142857142855,1.5,0.6,2.25,2.5,1.375,2.6666666666666665,2.6666666666666665,2.5,1.5555555555555556,1.5,2.25,2.75,2.75,0.5,0.6666666666666667,0.350481633329764,1.6105670937638379,,,,,,,,,,,,,,,,,,,0.03508229287350373,-0.26649021848885673,0.026174870296183466,1.0995782540458947,7.397857947371384e+43,-0.1767275603071683,,,,,,,,
29,240625_095324,FalseCHOICE,9.0,30,2.0,1472.0,,,,,,,,,,,31.0,30.0,,,B,,,,,,False,cue2.png,Easy,cue1.png,Hard,Left,Easy,Mid,0.0151802999898791,,,,,,,,,,,,,26,22,Female,0.42857142857142855,1.5,0.6,2.25,2.5,1.375,2.6666666666666665,2.6666666666666665,2.5,1.5555555555555556,1.5,2.25,2.75,2.75,0.5,0.6666666666666667,0.2949759555825342,0.47283290533316297,,,,,,,,,,,,,,,,,,,0.025228470108204584,-1.6693461857629062,0.011553120163258714,-0.3904644439782311,1.0260082976661665e+44,-0.17671013381242462,,,,,,,,
30,240625_095341,FalseCHOICE,9.0,31,2.0,1472.0,,,,,,,,,,,32.0,31.0,,,B,,,,,,False,cue1.png,Hard,cue2.png,Easy,Right,Easy,Mid,0.0167905001435428,,,,,,,,,,,,,26,22,Female,0.42857142857142855,1.5,0.6,2.25,2.5,1.375,2.6666666666666665,2.6666666666666665,2.5,1.5555555555555556,1.5,2.25,2.75,2.75,0.8194444444444444,0.8333333333333334,0.3162460221857246,0.9088186089012095,,,,,,,,,,,,,,,,,,,0.03283257094251993,-0.5867756458564058,,,,,,,,,,,,
31,240625_095358,FalseCHOICE,9.0,32,2.0,1472.0,,,,,,,,,,,33.0,32.0,,,B,,,,,,False,cue2.png,Easy,cue1.png,Hard,Left,Easy,Mid,0.0165838999673724,,,,,,,,,,,,,26,22,Female,0.42857142857142855,1.5,0.6,2.25,2.5,1.375,2.6666666666666665,2.6666666666666665,2.5,1.5555555555555556,1.5,2.25,2.75,2.75,0.5,0.6666666666666667,0.2655460444382495,-0.130410175920822,,,,,,,,,,,,,,,,,,,,,0.03235955091622608,1.7298337373997523,7.948490183351831e+43,-0.1767242078140317,,,,,,,,
32,240625_095414,FalseCHOICE,9.0,33,2.0,1472.0,,,,,,,,,,,34.0,33.0,,,B,,,,,,False,cue1.png,Hard,cue2.png,Easy,Right,Easy,Mid,0.0164779999759048,,,,,,,,,,,,,26,22,Female,0.42857142857142855,1.5,0.6,2.25,2.5,1.375,2.6666666666666665,2.6666666666666665,2.5,1.5555555555555556,1.5,2.25,2.75,2.75,0.125,0.5,0.2506891666756322,-0.4349407834172548,,,,,,,,,,,,,,,,,,,0.03488218288873381,-0.2949792113327495,0.009218440980449065,-0.6283820418683136,3.8934152905498444e+43,-0.1767488969075102,,,,,,,,
33,240625_095430,FalseCHOICE,9.0,34,2.0,1472.0,,,,,,,,,,,35.0,34.0,,,B,,,,,,False,cue1.png,Hard,cue2.png,Easy,Right,Easy,Mid,0.0160653998609632,,,,,,,,,,,,,26,22,Female,0.42857142857142855,1.5,0.6,2.25,2.5,1.375,2.6666666666666665,2.6666666666666665,2.5,1.5555555555555556,1.5,2.25,2.75,2.75,0.8194444444444444,0.8333333333333334,0.2679318999612911,-0.08150582041358642,,,,,,,,,,,,,,,,,,,0.03553375803950386,-0.2022166246537821,0.006694930980975924,-0.8855426152554126,-1.6140306271631407e+43,-0.17678242867959448,,,,,,,,
34,240625_095445,FalseCHOICE,9.0,35,2.0,1472.0,,,,,,,,,,,36.0,35.0,,,B,,,,,,False,cue1.png,Hard,cue2.png,Easy,Right,Easy,Mid,0.0167145000305026,,,,,,,,,,,,,26,22,Female,0.42857142857142855,1.5,0.6,2.25,2.5,1.375,2.6666666666666665,2.6666666666666665,2.5,1.5555555555555556,1.5,2.25,2.75,2.75,0.8194444444444444,0.8333333333333334,0.2301763555862837,-0.8554045526095231,,,,,,,,,,,,,,,,,,,0.021789666080864988,-2.158917275576691,,,-6.321151946683886e+43,-0.1768110877207576,,,,,,,,
35,240625_095502,FalseCHOICE,9.0,36,2.0,1472.0,,,,,,,,,,,37.0,36.0,,,B,,,,,,False,cue2.png,Easy,cue1.png,Hard,Left,Easy,Mid,0.0162577000446617,,,,,,,,,,,,,26,22,Female,0.42857142857142855,1.5,0.6,2.25,2.5,1.375,2.6666666666666665,2.6666666666666665,2.5,1.5555555555555556,1.5,2.25,2.75,2.75,0.8194444444444444,0.8333333333333334,0.261258522203813,-0.21829416955458125,,,,,,,,,,,,,,,,,,,,,0.013597536905950097,-0.18212630309411895,-9.104345334537364e+43,-0.1768280330358351,,,,,,,,
36,240625_095518,FalseCHOICE,9.0,37,2.0,1472.0,,,,,,,,,,,38.0,37.0,,,B,,,,,,False,cue1.png,Hard,cue2.png,Easy,Right,Easy,Mid,0.0159041997976601,,,,,,,,,,,,,26,22,Female,0.42857142857142855,1.5,0.6,2.25,2.5,1.375,2.6666666666666665,2.6666666666666665,2.5,1.5555555555555556,1.5,2.25,2.75,2.75,0.5,0.6666666666666667,0.1903449444410701,-1.6718536092217509,,,,,,,,,,,,,,,,,,,,,0.032472806457621496,1.7413751459816846,,,,,,,,,,
37,240625_095534,FalseCHOICE,9.0,38,2.0,1472.0,,,,,,,,,,,39.0,38.0,,,B,,,,,,False,cue2.png,Easy,cue1.png,Hard,Left,Easy,Mid,0.016287000151351,,,,,,,,,,,,,26,22,Female,0.42857142857142855,1.5,0.6,2.25,2.5,1.375,2.6666666666666665,2.6666666666666665,2.5,1.5555555555555556,1.5,2.25,2.75,2.75,0.125,0.5,0.2631219222417308,-0.1800989070894202,,,,,,,,,,,,,,,,,,,0.023536824886441036,-1.9101800885421165,0.010846827445584368,-0.4624398434393738,-6.231166204597998e+43,-0.17681053984767095,,,,,,,,
38,240625_095550,FalseCHOICE,9.0,39,2.0,1472.0,,,,,,,,,,,40.0,39.0,,,B,,,,,,False,cue2.png,Easy,cue1.png,Hard,Left,Easy,Mid,0.0164147999603301,,,,,,,,,,,,,26,22,Female,0.42857142857142855,1.5,0.6,2.25,2.5,1.375,2.6666666666666665,2.6666666666666665,2.5,1.5555555555555556,1.5,2.25,2.75,2.75,0.5,0.6666666666666667,0.2874504000000242,0.3185769405263145,,,,,,,,,,,,,,,,,,,,,,,-1.5259678934187045e+43,-0.17678189251463508,,,,,,,,
39,240625_095606,FalseCHOICE,9.0,40,2.0,1472.0,,,,,,,,,,,41.0,40.0,,,B,,,,,,False,cue1.png,Hard,cue2.png,Easy,Right,Easy,Mid,0.0167235000990331,,,,,,,,,,,,,26,22,Female,0.42857142857142855,1.5,0.6,2.25,2.5,1.375,2.6666666666666665,2.6666666666666665,2.5,1.5555555555555556,1.5,2.25,2.75,2.75,0.5,0.6666666666666667,0.3026188889052719,0.6294948342402235,,,,,,,,,,,,,,,,,,,0.04372576855399336,0.9640526606731167,,,4.1900693688529343e+43,-0.17674709074598086,,,,,,,,
40,240625_095622,FalseCHOICE,9.0,41,2.0,1472.0,,,,,,,,,,,42.0,41.0,,,B,,,,,,False,cue1.png,Hard,cue2.png,Easy,Right,Easy,Mid,0.015677599934861,,,,,,,,,,,,,26,22,Female,0.42857142857142855,1.5,0.6,2.25,2.5,1.375,2.6666666666666665,2.6666666666666665,2.5,1.5555555555555556,1.5,2.25,2.75,2.75,0.8194444444444444,0.8333333333333334,0.2569085000238071,-0.30745926320793204,,,,,,,,,,,,,,,,,,,0.033270792677025984,-0.5243874753074157,0.02154941375793003,0.6282169137687807,8.30196879232322e+43,-0.17672205567957053,,,,,,,,
41,240625_095639,FalseCHOICE,9.0,42,2.0,1472.0,,,,,,,,,,,43.0,42.0,,,B,,,,,,False,cue2.png,Easy,cue1.png,Hard,Left,Easy,Mid,0.0163970999419689,,,,,,,,,,,,,26,22,Female,0.42857142857142855,1.5,0.6,2.25,2.5,1.375,2.6666666666666665,2.6666666666666665,2.5,1.5555555555555556,1.5,2.25,2.75,2.75,0.8194444444444444,0.8333333333333334,0.3160113888637473,0.9040091846586241,,,,,,,,,,,,,,,,,,,0.028493942582966933,-1.2044517324831339,0.0070620438747781705,-0.8481316431222753,,,,,,,,,,
42,240625_095656,FalseCHOICE,9.0,43,2.0,1472.0,,,,,,,,,,,44.0,43.0,,,B,,,,,,False,cue1.png,Hard,cue2.png,Easy,Right,Easy,Mid,0.0164705000352114,,,,,,,,,,,,,26,22,Female,0.42857142857142855,1.5,0.6,2.25,2.5,1.375,2.6666666666666665,2.6666666666666665,2.5,1.5555555555555556,1.5,2.25,2.75,2.75,1.0,0.8888888888888888,0.1762630374869331,-1.960499160997235,,,,,,,,,,,,,,,,,,,0.03884994913891711,0.2698984704964745,0.007359421580572124,-0.8178270985195277,7.221163807462275e+43,-0.1767286360994169,,,,,,,,
43,240625_095713,FalseCHOICE,9.0,44,2.0,1472.0,,,,,,,,,,,45.0,44.0,,,B,,,,,,False,cue2.png,Easy,cue1.png,Hard,Left,Easy,Mid,0.0153435000684112,,,,,,,,,,,,,26,22,Female,0.42857142857142855,1.5,0.6,2.25,2.5,1.375,2.6666666666666665,2.6666666666666665,2.5,1.5555555555555556,1.5,2.25,2.75,2.75,0.8194444444444444,0.8333333333333334,0.3140969222101072,0.8647671782034285,,,,,,,,,,,,,,,,,,,0.03858768223559003,0.23256040392940178,,,6.511773214772079e+42,-0.17676863708948318,,,,,,,,
44,240625_095736,FalseCHOICE,9.0,45,2.0,1472.0,,,,,,,,,,,47.0,45.0,,,B,,,,,,False,cue1.png,Hard,cue2.png,Easy,Right,Easy,Mid,0.0166138000786304,,,,,,,,,,,,,26,22,Female,0.42857142857142855,1.5,0.6,2.25,2.5,1.375,2.6666666666666665,2.6666666666666665,2.5,1.5555555555555556,1.5,2.25,2.75,2.75,0.8194444444444444,0.8333333333333334,0.2972294110804796,0.5190233756809921,,,,,,,,,,,,,,,,,,,0.019062612713793895,-2.5471587916046414,0.009259082492811349,-0.6242404317203111,,,,,,,,,,
45,240625_095752,FalseCHOICE,9.0,46,2.0,1472.0,,,,,,,,,,,48.0,46.0,,,B,,,,,,False,cue1.png,Hard,cue2.png,Easy,Right,Easy,Mid,0.0166078000329434,,,,,,,,,,,,,26,22,Female,0.42857142857142855,1.5,0.6,2.25,2.5,1.375,2.6666666666666665,2.6666666666666665,2.5,1.5555555555555556,1.5,2.25,2.75,2.75,0.5,0.6666666666666667,0.267945655543978,-0.08122386373203855,,,,,,,,,,,,,,,,,,,0.033050691648815245,-0.5557225265035812,0.013450810967327875,-0.19707854283746395,,,,,,,,,,
46,240625_095807,FalseCHOICE,9.0,47,2.0,1472.0,,,,,,,,,,,49.0,47.0,,,B,,,,,,False,cue2.png,Easy,cue1.png,Hard,Left,Easy,Mid,0.0163259000983089,,,,,,,,,,,,,26,22,Female,0.42857142857142855,1.5,0.6,2.25,2.5,1.375,2.6666666666666665,2.6666666666666665,2.5,1.5555555555555556,1.5,2.25,2.75,2.75,0.8194444444444444,0.8333333333333334,0.2295574221708294,-0.8680912134288239,,,,,,,,,,,,,,,,,,,0.029647440396312286,-1.0402320860340768,0.018939952748657646,0.36229742483635463,-7.075242705130995e+43,-0.1768156789595679,,,,,,,,
47,240625_095823,FalseCHOICE,9.0,48,2.0,1472.0,,,,,,,,,,,50.0,48.0,,,B,,,,,,False,cue2.png,Easy,cue1.png,Hard,Right,Hard,Mid,0.0159565999638289,,,,,,,,,,,,,26,22,Female,0.42857142857142855,1.5,0.6,2.25,2.5,1.375,2.6666666666666665,2.6666666666666665,2.5,1.5555555555555556,1.5,2.25,2.75,2.75,0.5,0.6666666666666667,0.1793151221807218,-1.8979386943378997,,,,,,,,,,,,,,,,,,,0.03299230367306885,-0.5640350283765936,0.011530735303452395,-0.3927455934027171,3.685726001417703e+43,-0.17675016141196684,,,,,,,,
48,240625_095841,FalseCHOICE,9.0,49,2.0,1472.0,,,,,,,,,,,51.0,49.0,,,B,,,,,,False,cue1.png,Hard,cue2.png,Easy,Right,Easy,Mid,0.0168131000827997,,,,,,,,,,,,,26,22,Female,0.42857142857142855,1.5,0.6,2.25,2.5,1.375,2.6666666666666665,2.6666666666666665,2.5,1.5555555555555556,1.5,2.25,2.75,2.75,0.8194444444444444,0.8333333333333334,0.3551922555909388,1.7071236301911163,,,,,,,,,,,,,,,,,,,0.039197824416780686,0.31942431656066655,0.017861708683336374,0.2524179862182609,,,,,,,,,,
49,240625_095858,FalseCHOICE,9.0,50,2.0,1472.0,,,,,,,,,,,52.0,50.0,,,B,,,,,,False,cue2.png,Easy,cue1.png,Hard,Left,Easy,Mid,0.0157463001087307,,,,,,,,,,,,,26,22,Female,0.42857142857142855,1.5,0.6,2.25,2.5,1.375,2.6666666666666665,2.6666666666666665,2.5,1.5555555555555556,1.5,2.25,2.75,2.75,0.5,0.6666666666666667,0.2206673778386579,-1.0503159476161414,,,,,,,,,,,,,,,,,,,0.03658627913032788,-0.05237269827995038,,,-1.2292128446681422e+43,-0.17678008573835288,,,,,,,,
0,240625_092356,OFFLINERATING,9.0,1,1.0,,,,,,,,,,,,,,,,,T0,cue2.png,Easy,25.0,1.1517763999290764,,,,,,,,,,,,,,,,,,,,,,26,22,Female,0.42857142857142855,1.5,0.6,2.25,2.5,1.375,2.6666666666666665,2.6666666666666665,2.5,1.5555555555555556,1.5,2.25,2.75,2.75,,,,,,,,,,,,,,,,,,,,,,,,,,,,,-0.4204816952008337,,,,,194207101.63362426,1.7319166570447577,
1,240625_092404,OFFLINERATING,9.0,2,3.0,,,,,,,,,,,,,,,,,T0,cue1.png,Hard,53.0,1.3862091000191867,,,,,,,,,,,,,,,,,,,,,,26,22,Female,0.42857142857142855,1.5,0.6,2.25,2.5,1.375,2.6666666666666665,2.6666666666666665,2.5,1.5555555555555556,1.5,2.25,2.75,2.75,,,,,,,,,,,,,,,,,,,,,,,,,,,,,0.8523277605422305,,,,,2576158.104610524,-0.5569817812396126,
2,240625_094044,OFFLINERATING,9.0,3,1.0,,,,,,,,,,,,,,,,,T1,cue2.png,Easy,49.0,1.695853499928489,,,,,,,,,,,,,,,,,,,,,,26,22,Female,0.42857142857142855,1.5,0.6,2.25,2.5,1.375,2.6666666666666665,2.6666666666666665,2.5,1.5555555555555556,1.5,2.25,2.75,2.75,,,,,,,,,,,,,,,,,,,,,,,,,,,,,0.6704978382932213,0.030781454481038042,-0.6908109426509565,0.00933323687034516,-0.9615622317367292,28873.30161106787,-0.5874073278662627,
3,240625_094052,OFFLINERATING,9.0,4,3.0,,,,,,,,,,,,,,,,,T1,cue1.png,Hard,44.0,1.1849086000584066,,,,,,,,,,,,,,,,,,,,,,26,22,Female,0.42857142857142855,1.5,0.6,2.25,2.5,1.375,2.6666666666666665,2.6666666666666665,2.5,1.5555555555555556,1.5,2.25,2.75,2.75,,,,,,,,,,,,,,,,,,,,,,,,,,,,,0.4432104354819599,0.03040604705987965,-0.7232783832991122,0.009540756630102619,-0.8020806734820063,18808.2478009418,-0.5875275479388825,
4,240625_094431,OFFLINERATING,9.0,5,1.0,,,,,,,,,,,,,,,,,T2,cue2.png,Easy,61.0,0.7194280000403523,,,,,,,,,,,,,,,,,,,,,,26,22,Female,0.42857142857142855,1.5,0.6,2.25,2.5,1.375,2.6666666666666665,2.6666666666666665,2.5,1.5555555555555556,1.5,2.25,2.75,2.75,,,,,,,,,,,,,,,,,,,,,,,,,,,,,1.2159876050402487,,,0.012593455291196628,1.5439568311989507,,,
5,240625_094438,OFFLINERATING,9.0,6,3.0,,,,,,,,,,,,,,,,,T2,cue1.png,Hard,42.0,0.8181229999754578,,,,,,,,,,,,,,,,,,,,,,26,22,Female,0.42857142857142855,1.5,0.6,2.25,2.5,1.375,2.6666666666666665,2.6666666666666665,2.5,1.5555555555555556,1.5,2.25,2.75,2.75,,,,,,,,,,,,,,,,,,,,,,,,,,,,,0.3522954743574553,,,0.010870294617379287,0.21968607401978482,,,
6,240625_095911,OFFLINERATING,9.0,7,1.0,,,,,,,,,,,,,,,,,T3,cue2.png,Easy,0.0,1.1950344000943005,,,,,,,,,,,,,,,,,,,,,,26,22,Female,0.42857142857142855,1.5,0.6,2.25,2.5,1.375,2.6666666666666665,2.6666666666666665,2.5,1.5555555555555556,1.5,2.25,2.75,2.75,,,,,,,,,,,,,,,,,,,,,,,,,,,,,-1.556918709257141,0.05511953490426378,1.4140893259500686,,,,,
7,240625_095918,OFFLINERATING,9.0,8,3.0,,,,,,,,,,,,,,,,,T3,cue1.png,Hard,0.0,0.7349044000729918,,,,,,,,,,,,,,,,,,,,,,26,22,Female,0.42857142857142855,1.5,0.6,2.25,2.5,1.375,2.6666666666666665,2.6666666666666665,2.5,1.5555555555555556,1.5,2.25,2.75,2.75,,,,,,,,,,,,,,,,,,,,,,,,,,,,,-1.556918709257141,,,,,,,
0,240625_094453,LEARNINGCHECK,9.0,1,,,,,,,,,,,,1.0,1.0,1.0,,,B,,,,,,,,,,,,,,,cue2.png,Easy,Left,Left,Easy,0.0146770998835563,1.0,,,,,,26,22,Female,0.42857142857142855,1.5,0.6,2.25,2.5,1.375,2.6666666666666665,2.6666666666666665,2.5,1.5555555555555556,1.5,2.25,2.75,2.75,,,,,,,,,,,,,,,,,,,,,,,,,,,,,,,,,,,,
1,240625_094457,LEARNINGCHECK,9.0,2,,,,,,,,,,,,2.0,2.0,2.0,,,B,,,,,,,,,,,,,,,cue1.png,Hard,Right,Right,Hard,0.0134231001138687,1.0,,,,,,26,22,Female,0.42857142857142855,1.5,0.6,2.25,2.5,1.375,2.6666666666666665,2.6666666666666665,2.5,1.5555555555555556,1.5,2.25,2.75,2.75,,,,,,,,,,,,,,,,,,,,,,,,,,,,,,,,,,,,
2,240625_095932,LEARNINGCHECK,9.0,1,,,,,,,,,,,,1.0,1.0,1.0,,,B,,,,,,,,,,,,,,,cue2.png,Easy,Middle,Middle,Mid,0.0159890998620539,1.0,,,,,,26,22,Female,0.42857142857142855,1.5,0.6,2.25,2.5,1.375,2.6666666666666665,2.6666666666666665,2.5,1.5555555555555556,1.5,2.25,2.75,2.75,,,,,,,,,,,,,,,,,,,,,,,,,,,,,,,,,,,,
3,240625_095936,LEARNINGCHECK,9.0,2,,,,,,,,,,,,2.0,2.0,2.0,,,B,,,,,,,,,,,,,,,cue1.png,Hard,Middle,Middle,Mid,0.0146303998772054,1.0,,,,,,26,22,Female,0.42857142857142855,1.5,0.6,2.25,2.5,1.375,2.6666666666666665,2.6666666666666665,2.5,1.5555555555555556,1.5,2.25,2.75,2.75,,,,,,,,,,,,,,,,,,,,,,,,,,,,,,,,,,,,
0,240625_095951,DEMANDRATING,9.0,-1,,,,,,,,,,,,,,,,,,,,,,,,,,,,,,,,,,,,,,,1.0,MentalDemand,1.0,2.0,6.5713096999097615,26,22,Female,0.42857142857142855,1.5,0.6,2.25,2.5,1.375,2.6666666666666665,2.6666666666666665,2.5,1.5555555555555556,1.5,2.25,2.75,2.75,,,,,,,,,,,,,,,,,,,,,,,,,,,,,,,,,,,,-1.3987291358600542
1,240625_095957,DEMANDRATING,9.0,-1,,,,,,,,,,,,,,,,,,,,,,,,,,,,,,,,,,,,,,,2.0,Effort,1.0,7.0,4.408129800111055,26,22,Female,0.42857142857142855,1.5,0.6,2.25,2.5,1.375,2.6666666666666665,2.6666666666666665,2.5,1.5555555555555556,1.5,2.25,2.75,2.75,,,,,,,,,,,,,,,,,,,,,,,,,,,,,,,,,,,,-1.276033597626716
2,240625_100002,DEMANDRATING,9.0,-1,,,,,,,,,,,,,,,,,,,,,,,,,,,,,,,,,,,,,,,3.0,Frustration,1.0,4.0,2.918665899895132,26,22,Female,0.42857142857142855,1.5,0.6,2.25,2.5,1.375,2.6666666666666665,2.6666666666666665,2.5,1.5555555555555556,1.5,2.25,2.75,2.75,,,,,,,,,,,,,,,,,,,,,,,,,,,,,,,,,,,,-1.3496509205667189
3,240625_100006,DEMANDRATING,9.0,-1,,,,,,,,,,,,,,,,,,,,,,,,,,,,,,,,,,,,,,,4.0,MentalDemand,2.0,59.0,2.661533400183544,26,22,Female,0.42857142857142855,1.5,0.6,2.25,2.5,1.375,2.6666666666666665,2.6666666666666665,2.5,1.5555555555555556,1.5,2.25,2.75,2.75,,,,,,,,,,,,,,,,,,,,,,,,,,,,,,,,,,,,0.0
4,240625_100009,DEMANDRATING,9.0,-1,,,,,,,,,,,,,,,,,,,,,,,,,,,,,,,,,,,,,,,5.0,Effort,2.0,73.0,1.2396912998519838,26,22,Female,0.42857142857142855,1.5,0.6,2.25,2.5,1.375,2.6666666666666665,2.6666666666666665,2.5,1.5555555555555556,1.5,2.25,2.75,2.75,,,,,,,,,,,,,,,,,,,,,,,,,,,,,,,,,,,,0.34354750705334663
5,240625_100014,DEMANDRATING,9.0,-1,,,,,,,,,,,,,,,,,,,,,,,,,,,,,,,,,,,,,,,6.0,Frustration,2.0,86.0,4.025279400171712,26,22,Female,0.42857142857142855,1.5,0.6,2.25,2.5,1.375,2.6666666666666665,2.6666666666666665,2.5,1.5555555555555556,1.5,2.25,2.75,2.75,,,,,,,,,,,,,,,,,,,,,,,,,,,,,,,,,,,,0.6625559064600257
6,240625_100017,DEMANDRATING,9.0,-1,,,,,,,,,,,,,,,,,,,,,,,,,,,,,,,,,,,,,,,7.0,MentalDemand,3.0,100.0,1.0962476001586765,26,22,Female,0.42857142857142855,1.5,0.6,2.25,2.5,1.375,2.6666666666666665,2.6666666666666665,2.5,1.5555555555555556,1.5,2.25,2.75,2.75,,,,,,,,,,,,,,,,,,,,,,,,,,,,,,,,,,,,1.0061034135133724
7,240625_100019,DEMANDRATING,9.0,-1,,,,,,,,,,,,,,,,,,,,,,,,,,,,,,,,,,,,,,,8.0,Effort,3.0,100.0,0.784826299874112,26,22,Female,0.42857142857142855,1.5,0.6,2.25,2.5,1.375,2.6666666666666665,2.6666666666666665,2.5,1.5555555555555556,1.5,2.25,2.75,2.75,,,,,,,,,,,,,,,,,,,,,,,,,,,,,,,,,,,,1.0061034135133724
8,240625_100021,DEMANDRATING,9.0,-1,,,,,,,,,,,,,,,,,,,,,,,,,,,,,,,,,,,,,,,9.0,Frustration,3.0,100.0,0.6575346000026911,26,22,Female,0.42857142857142855,1.5,0.6,2.25,2.5,1.375,2.6666666666666665,2.6666666666666665,2.5,1.5555555555555556,1.5,2.25,2.75,2.75,,,,,,,,,,,,,,,,,,,,,,,,,,,,,,,,,,,,1.0061034135133724
