,END,Phase,Block,TrialN,NbackLevel,ISI,Letter_Resp,Letter_RT,Letter_Accuracy,Trial_A_measure,Trial_ACC,Trial_RT,TrialCountCali,CaliEnd_A_measure,ISI_calibrated,TrialIndex,TrialNumber_total,TrialNumber_valid,CueLearning,TrialDemandLearning,CueMapping,OfflineRatingTimePoint,CueFigure,TrialDemand,OfflineRating,OfflineRatingRT,PhaseType,CueLeft,CueDemandLeft,CueRight,CueDemandRight,Choice,ChoiceDemand,TaskDemand,ChoiceRT,CueCheck,CueDemandCheck,CorrectAnswer,Answer,AnswerDemand,AnswerRT,AnswerACC,DemandRatingQuesIndex,QuesTLX,DemandLevel,DemandRating,DemandRatingRT,PID,Age,Gender,BAI_bis,BAI_bas_d,BAI_bas_rr,BAI_bas_fs,NFC,BFI_ext,BFI_agr,BFI_con,BFI_neu,BFI_open,UPPS_lps,UPPS_lpm,UPPS_pu,UPPS_ss,Task_A_measure,Task_ACC,Task_RT,Task_RT_z,Task_RT_log,Task_RT_log_z,cue_i_on_zyg_values,cue_i_on_zyg_zvalues,cue_e_on_zyg_values,cue_e_on_zyg_zvalues,cue_i_on_cor_values,cue_i_on_cor_zvalues,cue_e_on_cor_values,cue_e_on_cor_zvalues,cue_i_on_scr_values,cue_i_on_scr_zvalues,cue_e_on_scr_values,cue_e_on_scr_zvalues,cue_e_true_zyg_values,cue_e_true_zyg_zvalues,cue_e_true_cor_values,cue_e_true_cor_zvalues,cue_e_true_scr_values,cue_e_true_scr_zvalues,cue_e_false_zyg_values,cue_e_false_zyg_zvalues,cue_e_false_cor_values,cue_e_false_cor_zvalues,cue_e_false_scr_values,cue_e_false_scr_zvalues,OfflineRating_z,cue_i_off_zyg_values,cue_i_off_zyg_zvalues,cue_i_off_cor_values,cue_i_off_cor_zvalues,cue_i_off_scr_values,cue_i_off_scr_zvalues,DemandRating_z
0,240625_144928,PRACTICE,0.0,1,3.0,679.0,,,,,,,,,,7.0,1.0,1.0,cue2.png,Hard,A,,,,,,,,,,,,,,,,,,,,,,,,,,,27,27,Female,0.7142857142857143,0.5,0.6,0.25,2.7777777777777777,3.125,2.3333333333333335,2.7777777777777777,2.25,3.2222222222222223,2.0,1.25,1.5,0.25,,,,,,,,,,,,,,,,,,,,,,,,,,,,,,,,,,,,,,
0,240625_145249,LEARNING,1.0,1,1.0,679.0,,,,,,,,,,1.0,1.0,1.0,cue1.png,Easy,A,,,,,,,,,,,,,,,,,,,,,,,,,,,27,27,Female,0.7142857142857143,0.5,0.6,0.25,2.7777777777777777,3.125,2.3333333333333335,2.7777777777777777,2.25,3.2222222222222223,2.0,1.25,1.5,0.25,1.0,0.9285714285714286,0.5566644461359829,0.824956103419945,-0.5857926512246783,,0.00012216087739558724,0.013937162875335092,4.925840564556569e-05,-0.12009148966719492,-9.327096778659252e-05,-0.3835165332006839,-0.00014301169062932344,0.137372174391541,1.2320000000000002,-0.8145644057227778,,,,,,,,,,,,,,,,,,,,,,
1,240625_145316,LEARNING,1.0,2,3.0,679.0,,,,,,,,,,2.0,2.0,2.0,cue2.png,Hard,A,,,,,,,,,,,,,,,,,,,,,,,,,,,27,27,Female,0.7142857142857143,0.5,0.6,0.25,2.7777777777777777,3.125,2.3333333333333335,2.7777777777777777,2.25,3.2222222222222223,2.0,1.25,1.5,0.25,0.8875,0.7571428571428571,0.5438477833134433,0.7370102437767612,-0.6090858813659226,,0.0001653412943630906,0.054206251949863636,,,,,,,1.9369999999999998,0.7426817948822859,1.4460000000000002,0.022568237255250596,,,,,,,,,,,,,,,,,,,,
2,240625_145345,LEARNING,1.0,3,1.0,679.0,,,,,,,,,,3.0,3.0,3.0,cue1.png,Easy,A,,,,,,,,,,,,,,,,,,,,,,,,,,,27,27,Female,0.7142857142857143,0.5,0.6,0.25,2.7777777777777777,3.125,2.3333333333333335,2.7777777777777777,2.25,3.2222222222222223,2.0,1.25,1.5,0.25,0.8875,0.6857142857142857,0.6630439636593853,1.5549150831139265,-0.410913980799547,,0.0009424441394915049,0.7789149483502775,-0.0004087618153508924,-0.9553189066968109,-9.482062578841741e-06,-0.237684393152848,0.0009949123461965854,1.664595369481142,,,1.118,-0.5863680563979847,,,,,,,,,,,,,,,,,,,,
3,240625_145411,LEARNING,1.0,4,3.0,679.0,,,,,,,,,,4.0,4.0,4.0,cue2.png,Hard,A,,,,,,,,,,,,,,,,,,,,,,,,,,,27,27,Female,0.7142857142857143,0.5,0.6,0.25,2.7777777777777777,3.125,2.3333333333333335,2.7777777777777777,2.25,3.2222222222222223,2.0,1.25,1.5,0.25,0.8875,0.9,0.6016158428475527,1.1334052902869411,-0.5081361721727213,,-0.0017338916241678567,-1.7169758009505747,,,0.0012991720245969524,2.039989788673549,-0.0009883501098390526,-0.9971679176857902,,,1.584,0.2787670437313067,,,,,,,,,,,,,,,,,,,,
4,240625_145439,LEARNING,1.0,5,3.0,679.0,,,,,,,,,,5.0,5.0,5.0,cue2.png,Hard,A,,,,,,,,,,,,,,,,,,,,,,,,,,,27,27,Female,0.7142857142857143,0.5,0.6,0.25,2.7777777777777777,3.125,2.3333333333333335,2.7777777777777777,2.25,3.2222222222222223,2.0,1.25,1.5,0.25,0.6875,0.5428571428571429,0.4325357667015244,-0.026794743925320986,-0.8380902584536801,,,,0.0004786516938455037,0.6629329938650749,-8.044785899429625e-05,-0.3611982872156081,6.382575466917177e-05,0.4149714989950215,1.4560000000000002,-0.31977979730358,1.5490000000000002,0.21378908556708967,,,,,,,,,,,,,,,,,,,,
5,240625_145506,LEARNING,1.0,6,1.0,679.0,,,,,,,,,,6.0,6.0,6.0,cue1.png,Easy,A,,,,,,,,,,,,,,,,,,,,,,,,,,,27,27,Female,0.7142857142857143,0.5,0.6,0.25,2.7777777777777777,3.125,2.3333333333333335,2.7777777777777777,2.25,3.2222222222222223,2.0,1.25,1.5,0.25,0.725,0.5857142857142857,0.4207933000288903,-0.10736964397185385,-0.8656135396699693,,0.0003598606688000588,0.2356106608470467,-0.0004561671199771883,-1.0417653305040022,8.304063685954897e-05,-0.07665133956838495,-0.00017107747790771856,0.0997047028091886,,,,,,,,,,,,,,,,,,,,,,,,
6,240625_145531,LEARNING,1.0,7,3.0,679.0,,,,,,,,,,7.0,7.0,7.0,cue2.png,Hard,A,,,,,,,,,,,,,,,,,,,,,,,,,,,27,27,Female,0.7142857142857143,0.5,0.6,0.25,2.7777777777777777,3.125,2.3333333333333335,2.7777777777777777,2.25,3.2222222222222223,2.0,1.25,1.5,0.25,1.0,0.9285714285714286,0.43723953074704,0.005481721350341182,-0.8272741087730695,,0.0016084972296933724,1.4000611322300942,-0.00039409410803924877,-0.9285714603395347,,,-0.0025644500407859465,-3.1124728892156868,1.1199999999999999,-1.0619567099323775,,,,,,,,,,,,,,,,,,,,,,
7,240625_145557,LEARNING,1.0,8,3.0,679.0,,,,,,,,,,8.0,8.0,8.0,cue2.png,Hard,A,,,,,,,,,,,,,,,,,,,,,,,,,,,27,27,Female,0.7142857142857143,0.5,0.6,0.25,2.7777777777777777,3.125,2.3333333333333335,2.7777777777777777,2.25,3.2222222222222223,2.0,1.25,1.5,0.25,0.0291666666666666,0.5571428571428572,0.4567488083266653,0.13935121698381314,-0.7836216927549772,,0.0003907949004852817,0.26445923199729354,-0.00027112144883776647,-0.7043234210572001,1.7515685288367784e-05,-0.19069560223613766,,,,,,,,,,,,,,,,,,,,,,,,,,
8,240625_145622,LEARNING,1.0,9,1.0,679.0,,,,,,,,,,9.0,9.0,9.0,cue1.png,Easy,A,,,,,,,,,,,,,,,,,,,,,,,,,,,27,27,Female,0.7142857142857143,0.5,0.6,0.25,2.7777777777777777,3.125,2.3333333333333335,2.7777777777777777,2.25,3.2222222222222223,2.0,1.25,1.5,0.25,0.8875,0.9,0.4926343785565613,0.38559217427137493,-0.7079880057257091,,-0.000507739505399802,-0.5734938163566785,0.0013906771258424414,2.3260662157452776,0.0007827184952470543,1.1411175187278795,-0.0011651521379669062,-1.234456303867452,,,,,,,,,,,,,,,,,,,,,,,,
9,240625_145648,LEARNING,1.0,10,1.0,679.0,,,,,,,,,,10.0,10.0,10.0,cue1.png,Easy,A,,,,,,,,,,,,,,,,,,,,,,,,,,,27,27,Female,0.7142857142857143,0.5,0.6,0.25,2.7777777777777777,3.125,2.3333333333333335,2.7777777777777777,2.25,3.2222222222222223,2.0,1.25,1.5,0.25,1.0,0.9285714285714286,0.5193631923041091,0.5690009550763664,-0.6551518480633771,,-0.00041661862250810984,-0.4885165232361255,-3.891680658946704e-05,-0.2808842917860212,0.0010115834263845574,1.5394502407861133,-0.0020036495899735988,-2.3598150416089814,,,,,,,,,,,,,,,,,,,,,,,,
10,240625_145711,LEARNING,1.0,11,3.0,679.0,,,,,,,,,,11.0,11.0,11.0,cue2.png,Hard,A,,,,,,,,,,,,,,,,,,,,,,,,,,,27,27,Female,0.7142857142857143,0.5,0.6,0.25,2.7777777777777777,3.125,2.3333333333333335,2.7777777777777777,2.25,3.2222222222222223,2.0,1.25,1.5,0.25,0.725,0.8,0.3511207642732188,-0.5854512737528323,-1.0466250569321112,,,,0.0004500038655539905,0.6106919561760128,-0.00012311085734666724,-0.43545198864728685,4.735401725582773e-05,0.39286455808598364,,,,,,,,,,,,,,,,,,,,,,,,
11,240625_145737,LEARNING,1.0,12,1.0,679.0,,,,,,,,,,12.0,12.0,12.0,cue1.png,Easy,A,,,,,,,,,,,,,,,,,,,,,,,,,,,27,27,Female,0.7142857142857143,0.5,0.6,0.25,2.7777777777777777,3.125,2.3333333333333335,2.7777777777777777,2.25,3.2222222222222223,2.0,1.25,1.5,0.25,0.9375,0.9285714285714286,0.5528970615436825,0.7991049219412787,-0.5925834402776529,,0.0006986107802054373,0.5515214224419541,0.0003899970339510273,0.5012658901066249,-1.4962432103617519e-05,-0.24722281609881416,-2.1157595162767107e-06,0.3264705035645558,1.4729999999999999,-0.282229179700338,1.1839999999999997,-0.4638381924311759,,,,,,,,,,,,,,,,,,,,
12,240625_145804,LEARNING,1.0,13,1.0,679.0,,,,,,,,,,13.0,13.0,13.0,cue1.png,Easy,A,,,,,,,,,,,,,,,,,,,,,,,,,,,27,27,Female,0.7142857142857143,0.5,0.6,0.25,2.7777777777777777,3.125,2.3333333333333335,2.7777777777777777,2.25,3.2222222222222223,2.0,1.25,1.5,0.25,1.0,1.0,0.6222464356604698,1.274969069017993,-0.47441906589793714,,0.0015904193148244868,1.3832020739981008,,,-6.387002899754584e-05,-0.33234505873886594,-7.706715385454163e-05,0.22587722647991157,,,,,,,,,,,,,,,,,,,,,,,,
13,240625_145832,LEARNING,1.0,14,1.0,679.0,,,,,,,,,,14.0,14.0,14.0,cue1.png,Easy,A,,,,,,,,,,,,,,,,,,,,,,,,,,,27,27,Female,0.7142857142857143,0.5,0.6,0.25,2.7777777777777777,3.125,2.3333333333333335,2.7777777777777777,2.25,3.2222222222222223,2.0,1.25,1.5,0.25,0.8875,0.9,0.6818652285562296,1.6840635474094912,-0.3829232527541562,,-0.000555043282984476,-0.6176082591271709,0.0008047471403141646,1.2575876509598873,0.0005253027153797863,0.6930928791046637,-0.000198978833293608,0.062257917487184136,,,,,,,,,,,,,,,,,,,,,,,,
14,240625_145856,LEARNING,1.0,15,3.0,679.0,,,,,,,,,,15.0,15.0,15.0,cue2.png,Hard,A,,,,,,,,,,,,,,,,,,,,,,,,,,,27,27,Female,0.7142857142857143,0.5,0.6,0.25,2.7777777777777777,3.125,2.3333333333333335,2.7777777777777777,2.25,3.2222222222222223,2.0,1.25,1.5,0.25,0.175,0.4142857142857142,0.1729969599517062,-1.8077079025548755,-1.754481257172247,,-0.00017759353247116284,-0.26560708146327666,0.0007622493601068259,1.1800903930553235,0.0002461936277513982,0.2073116715005617,0.0010549487182728774,1.7451709940541995,,,,,,,,,,,,,,,,,,,,,,,,
15,240625_145922,LEARNING,1.0,16,1.0,679.0,,,,,,,,,,16.0,16.0,16.0,cue1.png,Easy,A,,,,,,,,,,,,,,,,,,,,,,,,,,,27,27,Female,0.7142857142857143,0.5,0.6,0.25,2.7777777777777777,3.125,2.3333333333333335,2.7777777777777777,2.25,3.2222222222222223,2.0,1.25,1.5,0.25,0.8875,0.9,0.5566220999795145,0.8246655309686945,-0.585868725361452,,2.1855596608104377e-05,-0.07960529387575555,-5.336115028018763e-05,-0.30722442114808685,-1.1889463545663396e-05,-0.24187440415817565,4.906410708512476e-05,0.3951596927069854,,,,,,,,,,,,,,,,,,,,,,,,
16,240625_145948,LEARNING,1.0,17,1.0,679.0,,,,,,,,,,17.0,17.0,17.0,cue1.png,Easy,A,,,,,,,,,,,,,,,,,,,,,,,,,,,27,27,Female,0.7142857142857143,0.5,0.6,0.25,2.7777777777777777,3.125,2.3333333333333335,2.7777777777777777,2.25,3.2222222222222223,2.0,1.25,1.5,0.25,1.0,1.0,0.5605346642966781,0.8515129121510309,-0.57886419307151,,-0.0012282332930745182,-1.2454101745371153,0.0010761273943120419,1.7524658641670745,,,,,,,,,,,,,,,,,,,,,,,,,,,,
17,240625_150015,LEARNING,1.0,18,3.0,679.0,,,,,,,,,,18.0,18.0,18.0,cue2.png,Hard,A,,,,,,,,,,,,,,,,,,,,,,,,,,,27,27,Female,0.7142857142857143,0.5,0.6,0.25,2.7777777777777777,3.125,2.3333333333333335,2.7777777777777777,2.25,3.2222222222222223,2.0,1.25,1.5,0.25,0.8875,0.9,0.6436728071754,1.4219933520162862,-0.4405647453779566,,-2.1888859465250127e-05,-0.12040039317876637,0.00017251846316074237,0.1046806377234843,,,,,,,,,,,,,,,,,,,,,,,,,,,,
18,240625_150042,LEARNING,1.0,19,3.0,679.0,,,,,,,,,,19.0,19.0,19.0,cue2.png,Hard,A,,,,,,,,,,,,,,,,,,,,,,,,,,,27,27,Female,0.7142857142857143,0.5,0.6,0.25,2.7777777777777777,3.125,2.3333333333333335,2.7777777777777777,2.25,3.2222222222222223,2.0,1.25,1.5,0.25,0.8875,0.7571428571428571,0.4651832583476789,0.19722704378726244,-0.765323847059851,,-0.0020933467111609863,-2.0521955587243883,0.0005872892608054375,0.8610401303729829,0.000345310292908027,0.3798213296510881,8.718367205927694e-05,0.4463204749131855,2.108,1.1203968307737278,,,,,,,,,,,,,,,,,,,,,,
19,240625_150106,LEARNING,1.0,20,3.0,679.0,,,,,,,,,,20.0,20.0,20.0,cue2.png,Hard,A,,,,,,,,,,,,,,,,,,,,,,,,,,,27,27,Female,0.7142857142857143,0.5,0.6,0.25,2.7777777777777777,3.125,2.3333333333333335,2.7777777777777777,2.25,3.2222222222222223,2.0,1.25,1.5,0.25,0.15,0.6,0.4482572500294606,0.08108352246004442,-0.8023879925519312,,-0.00114468601899065,-1.167495859245781,0.0002844467755709363,0.30878864645607934,,,-8.116552894420637e-05,0.22037674200418816,1.3080000000000003,-0.6466910564376926,,,,,,,,,,,,,,,,,,,,,,
20,240625_150131,LEARNING,1.0,21,1.0,679.0,,,,,,,,,,21.0,21.0,21.0,cue1.png,Easy,A,,,,,,,,,,,,,,,,,,,,,,,,,,,27,27,Female,0.7142857142857143,0.5,0.6,0.25,2.7777777777777777,3.125,2.3333333333333335,2.7777777777777777,2.25,3.2222222222222223,2.0,1.25,1.5,0.25,1.0,1.0,0.5326920571470899,0.6604614618334198,-0.6298117757258381,,0.0020568299337409765,1.8181661636822968,0.00018294316979894885,0.12369071719067014,-0.001722536409572861,-3.219205405045445,1.2923712414905034e-05,0.34665518165543063,1.572,-0.06355205365792427,1.4979999999999998,0.11910691795637252,,,,,,,,,,,,,,,,,,,,
21,240625_150156,LEARNING,1.0,22,3.0,679.0,,,,,,,,,,22.0,22.0,22.0,cue2.png,Hard,A,,,,,,,,,,,,,,,,,,,,,,,,,,,27,27,Female,0.7142857142857143,0.5,0.6,0.25,2.7777777777777777,3.125,2.3333333333333335,2.7777777777777777,2.25,3.2222222222222223,2.0,1.25,1.5,0.25,0.0291666666666666,0.7,0.4822266214261098,0.31417583442779723,-0.7293411064924794,,0.0003288105327972548,0.20665399992795153,,,4.09333005542134e-05,-0.1499379274512995,5.15144197747717e-05,0.3984482904110022,1.762,0.35613131955478805,1.785,0.6519261749029536,,,,,,,,,,,,,,,,,,,,
22,240625_150222,LEARNING,1.0,23,3.0,679.0,,,,,,,,,,23.0,23.0,23.0,cue2.png,Hard,A,,,,,,,,,,,,,,,,,,,,,,,,,,,27,27,Female,0.7142857142857143,0.5,0.6,0.25,2.7777777777777777,3.125,2.3333333333333335,2.7777777777777777,2.25,3.2222222222222223,2.0,1.25,1.5,0.25,0.9375,0.7857142857142857,0.3641100545540791,-0.49632087251483237,-1.0102991093672027,,0.000840335050845133,0.683690300818176,,,4.818724881435832e-05,-0.1373126425648304,1.1239968648990139e-05,0.344395406441379,2.356,1.6681940758092677,2.121,1.2757145732794386,,,,,,,,,,,,,,,,,,,,
23,240625_150249,LEARNING,1.0,24,3.0,679.0,,,,,,,,,,24.0,24.0,24.0,cue2.png,Hard,A,,,,,,,,,,,,,,,,,,,,,,,,,,,27,27,Female,0.7142857142857143,0.5,0.6,0.25,2.7777777777777777,3.125,2.3333333333333335,2.7777777777777777,2.25,3.2222222222222223,2.0,1.25,1.5,0.25,0.7999999999999999,0.7571428571428571,0.5129932333171988,0.5252913306013858,-0.6674926243131789,,-4.3648397009371856e-05,-0.14069285020261174,0.0009936299056191276,1.6020267323695605,-0.00015120585767606273,-0.48435051539759694,-7.545264831068307e-05,0.22804407614244204,2.073,1.0430867357082279,1.314,-0.22249149067836865,,,,,,,,,,,,,,,,,,,,
24,240625_150315,LEARNING,1.0,25,1.0,679.0,,,,,,,,,,25.0,25.0,25.0,cue1.png,Easy,A,,,,,,,,,,,,,,,,,,,,,,,,,,,27,27,Female,0.7142857142857143,0.5,0.6,0.25,2.7777777777777777,3.125,2.3333333333333335,2.7777777777777777,2.25,3.2222222222222223,2.0,1.25,1.5,0.25,0.5625,0.5857142857142857,0.4304840817878192,-0.04087307273455148,-0.8428449319006112,,,,0.0004610437345405529,0.630823821179552,0.0005435770315186453,0.7248987921170466,-0.0016841162561869764,-1.9309650453258849,1.417,-0.4059253318051371,1.505,0.13210250958921615,,,,,,,,,,,,,,,,,,,,
25,240625_150341,LEARNING,1.0,26,1.0,679.0,,,,,,,,,,26.0,26.0,26.0,cue1.png,Easy,A,,,,,,,,,,,,,,,,,,,,,,,,,,,27,27,Female,0.7142857142857143,0.5,0.6,0.25,2.7777777777777777,3.125,2.3333333333333335,2.7777777777777777,2.25,3.2222222222222223,2.0,1.25,1.5,0.25,0.8875,0.7571428571428571,0.4278040166245773,-0.05926324480543991,-0.849090093353651,,,,,,-1.5061501230990114e-05,-0.24739524301884128,-2.34661703993771e-05,0.2978158292013031,1.7530000000000001,0.3362515808236598,1.428,-0.010848998372061533,,,,,,,,,,,,,,,,,,,,
26,240625_150407,LEARNING,1.0,27,3.0,679.0,,,,,,,,,,27.0,27.0,27.0,cue2.png,Hard,A,,,,,,,,,,,,,,,,,,,,,,,,,,,27,27,Female,0.7142857142857143,0.5,0.6,0.25,2.7777777777777777,3.125,2.3333333333333335,2.7777777777777777,2.25,3.2222222222222223,2.0,1.25,1.5,0.25,0.15,0.4571428571428571,0.5012284833355807,0.4445635261060558,-0.69069322729651,,0.0031243486530764635,2.8137101953668258,,,0.0014576207012970714,2.315765078416666,-0.0022991911499644414,-2.756465354744104,2.074,1.0452955955672418,1.8290000000000002,0.7336127508808271,,,,,,,,,,,,,,,,,,,,
27,240625_150432,LEARNING,1.0,28,1.0,679.0,,,,,,,,,,28.0,28.0,28.0,cue1.png,Easy,A,,,,,,,,,,,,,,,,,,,,,,,,,,,27,27,Female,0.7142857142857143,0.5,0.6,0.25,2.7777777777777777,3.125,2.3333333333333335,2.7777777777777777,2.25,3.2222222222222223,2.0,1.25,1.5,0.25,0.0291666666666666,0.4857142857142856,0.3329615090889009,-0.7100571348710808,-1.0997283840041572,,,,-0.0001287464338575687,-0.44469401920949647,,,-4.736910110726775e-06,0.32295262200469954,1.33,-0.598096139539379,1.106,-0.6086462134828592,,,,,,,,,,,,,,,,,,,,
28,240625_150457,LEARNING,1.0,29,1.0,679.0,,,,,,,,,,29.0,29.0,29.0,cue1.png,Easy,A,,,,,,,,,,,,,,,,,,,,,,,,,,,27,27,Female,0.7142857142857143,0.5,0.6,0.25,2.7777777777777777,3.125,2.3333333333333335,2.7777777777777777,2.25,3.2222222222222223,2.0,1.25,1.5,0.25,0.15,0.4571428571428571,0.3742029499844648,-0.42706506254275156,-0.9829569817299703,,-0.00011277728466921582,-0.20516090146974816,,,,,,,1.6079999999999999,0.015966901266589253,1.8930000000000002,0.8524295886668243,,,,,,,,,,,,,,,,,,,,
29,240625_150522,LEARNING,1.0,30,3.0,679.0,,,,,,,,,,30.0,30.0,30.0,cue2.png,Hard,A,,,,,,,,,,,,,,,,,,,,,,,,,,,27,27,Female,0.7142857142857143,0.5,0.6,0.25,2.7777777777777777,3.125,2.3333333333333335,2.7777777777777777,2.25,3.2222222222222223,2.0,1.25,1.5,0.25,0.0291666666666666,0.7,0.4925721142873434,0.385164926963925,-0.7081144041401594,,-0.0005074477508855884,-0.5732217326357268,0.0002935826607390526,0.3254484824664723,,,,,1.105,-1.0950896078175913,,,,,,,,,,,,,,,,,,,,,,
30,240625_150548,LEARNING,1.0,31,3.0,679.0,,,,,,,,,,31.0,31.0,31.0,cue2.png,Hard,A,,,,,,,,,,,,,,,,,,,,,,,,,,,27,27,Female,0.7142857142857143,0.5,0.6,0.25,2.7777777777777777,3.125,2.3333333333333335,2.7777777777777777,2.25,3.2222222222222223,2.0,1.25,1.5,0.25,0.6875,0.7571428571428571,0.4405719417069728,0.028348184376914526,-0.8196815286503659,,,,,,-1.1768757857975702e-05,-0.2416643194374385,5.2553714571461786e-05,0.39984314197285903,1.4009999999999998,-0.44126708954936605,,,,,,,,,,,,,,,,,,,,,,
31,240625_150614,LEARNING,1.0,32,1.0,679.0,,,,,,,,,,32.0,32.0,32.0,cue1.png,Easy,A,,,,,,,,,,,,,,,,,,,,,,,,,,,27,27,Female,0.7142857142857143,0.5,0.6,0.25,2.7777777777777777,3.125,2.3333333333333335,2.7777777777777777,2.25,3.2222222222222223,2.0,1.25,1.5,0.25,0.725,0.7285714285714286,0.5261584846302867,0.6156291478771818,-0.6421528100481404,,-0.0006464588161595574,-0.7028603364981069,-0.00011455933195515539,-0.41882298571820387,,,3.515235252201602e-05,0.3764885393034268,1.166,-0.9603491564177207,1.2359999999999998,-0.3672995117300532,,,,,,,,,,,,,,,,,,,,
32,240625_150642,LEARNING,1.0,33,1.0,679.0,,,,,,,,,,33.0,33.0,33.0,cue1.png,Easy,A,,,,,,,,,,,,,,,,,,,,,,,,,,,27,27,Female,0.7142857142857143,0.5,0.6,0.25,2.7777777777777777,3.125,2.3333333333333335,2.7777777777777777,2.25,3.2222222222222223,2.0,1.25,1.5,0.25,0.5625,0.6571428571428573,0.6010892249760218,1.1297917239431503,-0.5090118946075468,,-3.51590607596524e-05,-0.13277588548499794,-0.00026102828054634566,-0.6859179217031578,6.443793199842774e-05,-0.10902880355182222,2.4012568914710385e-05,0.36153768550055654,1.968,0.8111564505117288,1.762,0.609226373823611,,,,,,,,,,,,,,,,,,,,
33,240625_150706,LEARNING,1.0,34,1.0,679.0,,,,,,,,,,34.0,34.0,34.0,cue1.png,Easy,A,,,,,,,,,,,,,,,,,,,,,,,,,,,27,27,Female,0.7142857142857143,0.5,0.6,0.25,2.7777777777777777,3.125,2.3333333333333335,2.7777777777777777,2.25,3.2222222222222223,2.0,1.25,1.5,0.25,0.8875,0.9,0.400819192873314,-0.24442872469550164,-0.9142448439475355,,,,,,,,,,2.587,2.178440703241566,1.693,0.481126970585583,,,,,,,,,,,,,,,,,,,,
34,240625_150727,LEARNING,1.0,35,3.0,679.0,,,,,,,,,,35.0,35.0,35.0,cue2.png,Hard,A,,,,,,,,,,,,,,,,,,,,,,,,,,,27,27,Female,0.7142857142857143,0.5,0.6,0.25,2.7777777777777777,3.125,2.3333333333333335,2.7777777777777777,2.25,3.2222222222222223,2.0,1.25,1.5,0.25,0.5625,0.7285714285714286,0.1723981846231394,-1.8118166016548727,-1.7579484508361791,,,,0.0003834760000613344,0.4893743926522081,-9.480517050502882e-05,-0.38618676818158065,,,1.893,0.6454919610856582,1.18,-0.4712642447928003,,,,,,,,,,,,,,,,,,,,
35,240625_150750,LEARNING,1.0,36,3.0,679.0,,,,,,,,,,36.0,36.0,36.0,cue2.png,Hard,A,,,,,,,,,,,,,,,,,,,,,,,,,,,27,27,Female,0.7142857142857143,0.5,0.6,0.25,2.7777777777777777,3.125,2.3333333333333335,2.7777777777777777,2.25,3.2222222222222223,2.0,1.25,1.5,0.25,0.15,0.6,0.3542460428517578,-0.5640061195017058,-1.0377635709698343,,0.00018413802843482256,0.07173566485975857,-0.0014792089689573372,-2.9073436649668816,0.001456884242905571,2.3144832941157207,,,1.013,-1.298304714846905,1.405,-0.053548799451404075,,,,,,,,,,,,,,,,,,,,
36,240625_150813,LEARNING,1.0,37,1.0,679.0,,,,,,,,,,37.0,37.0,37.0,cue1.png,Easy,A,,,,,,,,,,,,,,,,,,,,,,,,,,,27,27,Female,0.7142857142857143,0.5,0.6,0.25,2.7777777777777777,3.125,2.3333333333333335,2.7777777777777777,2.25,3.2222222222222223,2.0,1.25,1.5,0.25,0.725,0.7285714285714286,0.2646450307936622,-1.178833718499672,-1.32936585737563,,,,0.000594339422645849,0.8738965244657956,,,-6.585699774748792e-05,0.2409225281636891,2.0949999999999998,1.0916816526065414,1.382,-0.09624860053074703,,,,,,,,,,,,,,,,,,,,
37,240625_150838,LEARNING,1.0,38,3.0,679.0,,,,,,,,,,38.0,38.0,38.0,cue2.png,Hard,A,,,,,,,,,,,,,,,,,,,,,,,,,,,27,27,Female,0.7142857142857143,0.5,0.6,0.25,2.7777777777777777,3.125,2.3333333333333335,2.7777777777777777,2.25,3.2222222222222223,2.0,1.25,1.5,0.25,0.725,0.6571428571428573,0.4096716249866101,-0.18368477262963268,-0.8923993548540956,,-0.00048816756194202966,-0.5552414605478911,-0.0004923670462995168,-1.1077780731141034,1.0834765649149047e-05,-0.20232354755967627,2.78955420501166e-05,0.3667490761087061,1.4050000000000002,-0.432431650113308,1.266,-0.31160411901786655,,,,,,,,,,,,,,,,,,,,
38,240625_150903,LEARNING,1.0,39,3.0,679.0,,,,,,,,,,39.0,39.0,39.0,cue2.png,Hard,A,,,,,,,,,,,,,,,,,,,,,,,,,,,27,27,Female,0.7142857142857143,0.5,0.6,0.25,2.7777777777777777,3.125,2.3333333333333335,2.7777777777777777,2.25,3.2222222222222223,2.0,1.25,1.5,0.25,0.175,0.6285714285714286,0.3908165769400791,-0.3130650514140231,-0.9395169417497709,,-0.0002640019133506224,-0.34618960082707545,0.0005478824751376007,0.7891794868948828,4.043568843395146e-06,-0.2141434270677511,-4.7572071469547794e-05,0.2654629742993267,1.388,-0.46998226771655144,1.1920000000000002,-0.4489860877079255,,,,,,,,,,,,,,,,,,,,
39,240625_150927,LEARNING,1.0,40,3.0,679.0,,,,,,,,,,40.0,40.0,40.0,cue2.png,Hard,A,,,,,,,,,,,,,,,,,,,,,,,,,,,27,27,Female,0.7142857142857143,0.5,0.6,0.25,2.7777777777777777,3.125,2.3333333333333335,2.7777777777777777,2.25,3.2222222222222223,2.0,1.25,1.5,0.25,0.8875,0.9,0.4188544285550181,-0.12067386527097927,-0.8702318453093655,,0.0002981825132051877,0.17809099531274467,6.1775154382172e-05,-0.09726644562407342,-4.547408189246437e-05,-0.30032745058550553,7.75088527344911e-06,0.33971266059167254,2.2479999999999998,1.4296372110357256,2.3129999999999997,1.6321650866374293,,,,,,,,,,,,,,,,,,,,
40,240625_150947,LEARNING,1.0,41,1.0,679.0,,,,,,,,,,41.0,41.0,41.0,cue1.png,Easy,A,,,,,,,,,,,,,,,,,,,,,,,,,,,27,27,Female,0.7142857142857143,0.5,0.6,0.25,2.7777777777777777,3.125,2.3333333333333335,2.7777777777777777,2.25,3.2222222222222223,2.0,1.25,1.5,0.25,0.15,0.4571428571428571,0.0,-2.9947849575784375,-inf,,6.76566040610227e-05,-0.03689230084901516,,,,,,,1.4979999999999998,-0.22700768322498133,2.0189999999999997,1.086350238058005,,,,,,,,,,,,,,,,,,,,
41,240625_151009,LEARNING,1.0,42,3.0,679.0,,,,,,,,,,42.0,42.0,42.0,cue2.png,Hard,A,,,,,,,,,,,,,,,,,,,,,,,,,,,27,27,Female,0.7142857142857143,0.5,0.6,0.25,2.7777777777777777,3.125,2.3333333333333335,2.7777777777777777,2.25,3.2222222222222223,2.0,1.25,1.5,0.25,0.175,0.4857142857142856,0.0226325000085952,-2.8394844166583892,-3.7883683522349063,,0.0006731689521580469,0.5277949438248015,-0.00022423279486229967,-0.6188191407817067,1.8629137089019865e-05,-0.18875767192750548,5.4019592554096704e-05,0.40181051658118155,,,2.6740000000000004,2.3023663122740707,,,,,,,,,,,,,,,,,,,,
42,240625_151030,LEARNING,1.0,43,3.0,679.0,,,,,,,,,,43.0,43.0,43.0,cue2.png,Hard,A,,,,,,,,,,,,,,,,,,,,,,,,,,,27,27,Female,0.7142857142857143,0.5,0.6,0.25,2.7777777777777777,3.125,2.3333333333333335,2.7777777777777777,2.25,3.2222222222222223,2.0,1.25,1.5,0.25,0.725,0.8,0.2256417499821899,-1.4464678996717841,-1.4888067145022965,,0.0002560489349058906,0.13879816451771315,5.166781971177679e-05,-0.11569777822210157,1.634987349015708e-05,-0.19272466358984008,0.00015420218615073457,0.5362669264411905,1.657,0.12420103435828912,2.328,1.6600127829935227,,,,,,,,,,,,,,,,,,,,
43,240625_151055,LEARNING,1.0,44,1.0,679.0,,,,,,,,,,44.0,44.0,44.0,cue1.png,Easy,A,,,,,,,,,,,,,,,,,,,,,,,,,,,27,27,Female,0.7142857142857143,0.5,0.6,0.25,2.7777777777777777,3.125,2.3333333333333335,2.7777777777777777,2.25,3.2222222222222223,2.0,1.25,1.5,0.25,0.9375,0.8571428571428572,0.3933781416659864,-0.29548801010687453,-0.9329839371890727,,0.00018098101413178795,0.06879150407793619,0.0005685700435940884,0.8269045120672305,0.00021859554687056687,0.15927801852364468,9.21919602743862e-07,0.330547413674257,1.229,-0.8211909852998209,1.182,-0.46755121861198795,,,,,,,,,,,,,,,,,,,,
44,240625_151122,LEARNING,1.0,45,1.0,679.0,,,,,,,,,,45.0,45.0,45.0,cue1.png,Easy,A,,,,,,,,,,,,,,,,,,,,,,,,,,,27,27,Female,0.7142857142857143,0.5,0.6,0.25,2.7777777777777777,3.125,2.3333333333333335,2.7777777777777777,2.25,3.2222222222222223,2.0,1.25,1.5,0.25,0.8875,0.6857142857142857,0.4329583818008276,-0.02389482772084334,-0.8371136715325032,,0.00042073121550100824,0.29237716842756645,-0.0004918036096041717,-1.10675061241665,-0.0008279247262181436,-1.6621599230459125,,,1.678,0.1705870913975887,0.16199999999999992,-2.361194570826317,,,,,,,,,,,,,,,,,,,,
45,240625_151147,LEARNING,1.0,46,1.0,679.0,,,,,,,,,,46.0,46.0,46.0,cue1.png,Easy,A,,,,,,,,,,,,,,,,,,,,,,,,,,,27,27,Female,0.7142857142857143,0.5,0.6,0.25,2.7777777777777777,3.125,2.3333333333333335,2.7777777777777777,2.25,3.2222222222222223,2.0,1.25,1.5,0.25,0.0291666666666666,0.6285714285714286,0.4719861384767752,0.24390730285990922,-0.75080566146177,,0.0016440838858544056,1.433248450173127,-0.0001019795705565563,-0.395883034296535,8.734617674292962e-05,-0.0691576732685581,-0.00016964045098488744,0.10163335602108281,0.627,-2.1509246204264154,1.025,-0.7590237738057621,,,,,,,,,,,,,,,,,,,,
46,240625_151212,LEARNING,1.0,47,3.0,679.0,,,,,,,,,,47.0,47.0,47.0,cue2.png,Hard,A,,,,,,,,,,,,,,,,,,,,,,,,,,,27,27,Female,0.7142857142857143,0.5,0.6,0.25,2.7777777777777777,3.125,2.3333333333333335,2.7777777777777777,2.25,3.2222222222222223,2.0,1.25,1.5,0.25,0.15,0.3142857142857143,0.247804269962944,-1.294392285406662,-1.3951160784466772,,,,,,-0.0007485499594197154,-1.5240104618575603,,,1.364,-0.5229949043328936,0.6099999999999999,-1.5294767063243373,,,,,,,,,,,,,,,,,,,,
47,240625_151235,LEARNING,1.0,48,3.0,679.0,,,,,,,,,,48.0,48.0,48.0,cue2.png,Hard,A,,,,,,,,,,,,,,,,,,,,,,,,,,,27,27,Female,0.7142857142857143,0.5,0.6,0.25,2.7777777777777777,3.125,2.3333333333333335,2.7777777777777777,2.25,3.2222222222222223,2.0,1.25,1.5,0.25,0.0291666666666666,0.7,0.2985860571165436,-0.9459359058266006,-1.2086970891516362,,0.001204740102106843,1.0235262843268456,-0.0006273537075923265,-1.35393436769813,0.0003605568217461539,0.4063574673802086,-1.1761971267191997e-05,0.31352419269143594,2.342,1.6372700377830682,0.7359999999999998,-1.2955560569331557,,,,,,,,,,,,,,,,,,,,
48,240625_151300,LEARNING,1.0,49,1.0,679.0,,,,,,,,,,49.0,49.0,49.0,cue1.png,Easy,A,,,,,,,,,,,,,,,,,,,,,,,,,,,27,27,Female,0.7142857142857143,0.5,0.6,0.25,2.7777777777777777,3.125,2.3333333333333335,2.7777777777777777,2.25,3.2222222222222223,2.0,1.25,1.5,0.25,1.0,1.0,0.5161059214567233,0.5466500913039148,-0.6614432604254914,,-0.0027975406120657603,-2.708911007827511,-0.000511697775047444,-1.1430288194813825,,,-0.00014276003873450694,0.13770991979317962,,,,,,,,,,,,,,,,,,,,,,,,
49,240625_151327,LEARNING,1.0,50,1.0,679.0,,,,,,,,,,50.0,50.0,50.0,cue1.png,Easy,A,,,,,,,,,,,,,,,,,,,,,,,,,,,27,27,Female,0.7142857142857143,0.5,0.6,0.25,2.7777777777777777,3.125,2.3333333333333335,2.7777777777777777,2.25,3.2222222222222223,2.0,1.25,1.5,0.25,1.0,1.0,0.6025104428076052,1.1395438899842993,-0.5066502813067768,,-0.00011715330823356285,-0.209241882967392,-0.00015514800038226098,-0.4928388634829218,7.753185553045902e-05,-0.08623921242917555,-0.00013384094149438731,0.14968036047599145,0.784,-1.804133622561174,0.3579999999999999,-1.9973180051067008,,,,,,,,,,,,,,,,,,,,
0,240625_151454,TrueCHOICE,9.0,1,1.0,679.0,,,,,,,,,,,2.0,1.0,,,A,,,,,,True,cue1.png,Easy,cue2.png,Hard,Left,Easy,Easy,0.0159525000490248,,,,,,,,,,,,,27,27,Female,0.7142857142857143,0.5,0.6,0.25,2.7777777777777777,3.125,2.3333333333333335,2.7777777777777777,2.25,3.2222222222222223,2.0,1.25,1.5,0.25,0.725,0.8,0.5279024642659351,1.462088842613183,-0.6388437391090289,0.9801780304243207,,,,,,,,,,,,,,,8.044975688520448e-06,-0.3808493787999295,,,,,,,,,,,,,,,,
1,240625_151516,TrueCHOICE,9.0,2,1.0,679.0,,,,,,,,,,,3.0,2.0,,,A,,,,,,True,cue1.png,Easy,cue2.png,Hard,Left,Easy,Easy,0.0166280001867562,,,,,,,,,,,,,27,27,Female,0.7142857142857143,0.5,0.6,0.25,2.7777777777777777,3.125,2.3333333333333335,2.7777777777777777,2.25,3.2222222222222223,2.0,1.25,1.5,0.25,,,,,,,,,,,,,,,,,,,-4.514018312758248e-05,-0.04301661248143523,,,1.456,0.20217462973594968,,,,,,,,,,,,,,
2,240625_151539,TrueCHOICE,9.0,3,1.0,679.0,,,,,,,,,,,4.0,3.0,,,A,,,,,,True,cue2.png,Hard,cue1.png,Easy,Right,Easy,Easy,0.017028999980539,,,,,,,,,,,,,27,27,Female,0.7142857142857143,0.5,0.6,0.25,2.7777777777777777,3.125,2.3333333333333335,2.7777777777777777,2.25,3.2222222222222223,2.0,1.25,1.5,0.25,0.725,0.8,0.4463876071884962,0.8762612429299927,-0.806567629974914,0.7250190486633732,,,,,,,,,,,,,0.0005603439474677003,1.0168318165067156,-7.30675022640858e-05,-0.6651186288022206,1.4509999999999998,0.17920023999322762,,,,,,,,,,,,,,
3,240625_151602,TrueCHOICE,9.0,4,1.0,679.0,,,,,,,,,,,5.0,4.0,,,A,,,,,,True,cue1.png,Easy,cue2.png,Hard,Left,Easy,Easy,0.0152543999720364,,,,,,,,,,,,,27,27,Female,0.7142857142857143,0.5,0.6,0.25,2.7777777777777777,3.125,2.3333333333333335,2.7777777777777777,2.25,3.2222222222222223,2.0,1.25,1.5,0.25,0.175,0.4857142857142856,0.293090709104118,-0.2254465568927421,-1.2272731304912878,0.08499819904676104,,,,,,,,,,,,,0.0006445038614825652,1.1641465819073193,-1.629750503650152e-05,-0.46616077494468117,,,,,,,,,,,,,,,,
4,240625_151625,TrueCHOICE,9.0,5,1.0,679.0,,,,,,,,,,,6.0,5.0,,,A,,,,,,True,cue2.png,Hard,cue1.png,Easy,Right,Easy,Easy,0.0165301000233739,,,,,,,,,,,,,27,27,Female,0.7142857142857143,0.5,0.6,0.25,2.7777777777777777,3.125,2.3333333333333335,2.7777777777777777,2.25,3.2222222222222223,2.0,1.25,1.5,0.25,0.5625,0.5857142857142857,0.3341489181303503,0.06962887970255298,-1.0961685227069404,0.2844481286526255,,,,,,,,,,,,,-0.00040149407272064425,-0.6667837617173792,,,1.571,0.7305855938185449,,,,,,,,,,,,,,
5,240625_151648,TrueCHOICE,9.0,6,1.0,679.0,,,,,,,,,,,7.0,6.0,,,A,,,,,,True,cue2.png,Hard,cue1.png,Easy,Right,Easy,Easy,0.0165593000128865,,,,,,,,,,,,,27,27,Female,0.7142857142857143,0.5,0.6,0.25,2.7777777777777777,3.125,2.3333333333333335,2.7777777777777777,2.25,3.2222222222222223,2.0,1.25,1.5,0.25,0.8875,0.8285714285714286,0.3822584769043785,0.41538066470085877,-0.9616582580830072,0.48907909673148114,,,,,,,,,,,,,,,,,1.5899999999999999,0.8178882748408863,,,,,,,,,,,,,,
6,240625_151710,TrueCHOICE,9.0,7,3.0,679.0,,,,,,,,,,,8.0,7.0,,,A,,,,,,True,cue1.png,Easy,cue2.png,Hard,Right,Hard,Hard,0.0169087001122534,,,,,,,,,,,,,27,27,Female,0.7142857142857143,0.5,0.6,0.25,2.7777777777777777,3.125,2.3333333333333335,2.7777777777777777,2.25,3.2222222222222223,2.0,1.25,1.5,0.25,,,,,,,,,,,,,,,,,,,,,,,,,,,,,,,,,,,,,,
7,240625_151730,TrueCHOICE,9.0,8,1.0,679.0,,,,,,,,,,,9.0,8.0,,,A,,,,,,True,cue2.png,Hard,cue1.png,Easy,Right,Easy,Easy,0.0156505999621003,,,,,,,,,,,,,27,27,Female,0.7142857142857143,0.5,0.6,0.25,2.7777777777777777,3.125,2.3333333333333335,2.7777777777777777,2.25,3.2222222222222223,2.0,1.25,1.5,0.25,0.0291666666666666,0.4857142857142856,0.0590839181942018,-1.9071968726430288,-2.828796503372446,-2.3514052911243115,,,,,,,,,,,,,,,0.0006849286821535936,1.9913777856571353,,,,,,,,,,,,,,,,
8,240625_151749,TrueCHOICE,9.0,9,3.0,679.0,,,,,,,,,,,10.0,9.0,,,A,,,,,,True,cue1.png,Easy,cue2.png,Hard,Right,Hard,Hard,0.0166002998594194,,,,,,,,,,,,,27,27,Female,0.7142857142857143,0.5,0.6,0.25,2.7777777777777777,3.125,2.3333333333333335,2.7777777777777777,2.25,3.2222222222222223,2.0,1.25,1.5,0.25,0.725,0.8,0.1784936428635514,-1.049028007605088,-1.7232022926064403,-0.6694606879823167,,,,,,,,,,,,,,,,,,,,,,,,,,,,,,,,
9,240625_151810,TrueCHOICE,9.0,10,1.0,679.0,,,,,,,,,,,11.0,10.0,,,A,,,,,,True,cue2.png,Hard,cue1.png,Easy,Right,Easy,Easy,0.0165568999946117,,,,,,,,,,,,,27,27,Female,0.7142857142857143,0.5,0.6,0.25,2.7777777777777777,3.125,2.3333333333333335,2.7777777777777777,2.25,3.2222222222222223,2.0,1.25,1.5,0.25,0.8875,0.9,0.3743176428335054,0.35831180719427286,-0.9826505296402385,0.4571434755880659,,,,,,,,,,,,,-0.0008610389919402059,-1.4711780242152208,-2.0032058170596067e-05,-0.479249003110304,0.992,-1.9298487383886085,,,,,,,,,,,,,,
0,240625_151957,FalseCHOICE,9.0,1,2.0,679.0,,,,,,,,,,,2.0,1.0,,,A,,,,,,False,cue1.png,Easy,cue2.png,Hard,Left,Easy,Mid,0.0161540999542921,,,,,,,,,,,,,27,27,Female,0.7142857142857143,0.5,0.6,0.25,2.7777777777777777,3.125,2.3333333333333335,2.7777777777777777,2.25,3.2222222222222223,2.0,1.25,1.5,0.25,0.8875,0.8285714285714286,0.2915510077280207,0.8544414626433818,-1.232540304869866,,,,,,,,,,,,,,,,,,,,-0.0012449169235018084,-0.5042748351717026,0.000624560696569929,-0.017057629765749583,1.586,0.340941020137024,,,,,,,,
1,240625_152021,FalseCHOICE,9.0,2,2.0,679.0,,,,,,,,,,,3.0,2.0,,,A,,,,,,False,cue2.png,Hard,cue1.png,Easy,Right,Easy,Mid,0.0154378998558968,,,,,,,,,,,,,27,27,Female,0.7142857142857143,0.5,0.6,0.25,2.7777777777777777,3.125,2.3333333333333335,2.7777777777777777,2.25,3.2222222222222223,2.0,1.25,1.5,0.25,,,,,,,,,,,,,,,,,,,,,,,,,-0.0007132783073788675,-0.3259725058595092,0.00012892538107775247,-0.304838229687451,,,,,,,,,,
2,240625_152044,FalseCHOICE,9.0,3,2.0,679.0,,,,,,,,,,,4.0,3.0,,,A,,,,,,False,cue2.png,Hard,cue1.png,Easy,Left,Hard,Mid,0.0151526001282036,,,,,,,,,,,,,27,27,Female,0.7142857142857143,0.5,0.6,0.25,2.7777777777777777,3.125,2.3333333333333335,2.7777777777777777,2.25,3.2222222222222223,2.0,1.25,1.5,0.25,,,,,,,,,,,,,,,,,,,,,,,,,-0.0004162868349046247,-0.22636674036001808,-7.227946929433057e-05,-0.42166374784032,1.4600000000000002,0.07914364954981387,,,,,,,,
3,240625_152105,FalseCHOICE,9.0,4,2.0,679.0,,,,,,,,,,,5.0,4.0,,,A,,,,,,False,cue2.png,Hard,cue1.png,Easy,Right,Easy,Mid,0.0164063000120222,,,,,,,,,,,,,27,27,Female,0.7142857142857143,0.5,0.6,0.25,2.7777777777777777,3.125,2.3333333333333335,2.7777777777777777,2.25,3.2222222222222223,2.0,1.25,1.5,0.25,0.725,0.8,0.4275408000020044,1.8841415305669276,-0.8497055565581159,,,,,,,,,,,,,,,,,,,,-5.255948739880164e-05,-0.10437892508845671,0.00024510940996631684,-0.23737832824425148,1.054,-0.764425655675642,,,,,,,,
4,240625_152129,FalseCHOICE,9.0,5,2.0,679.0,,,,,,,,,,,6.0,5.0,,,A,,,,,,False,cue1.png,Easy,cue2.png,Hard,Left,Easy,Mid,0.0159952999092638,,,,,,,,,,,,,27,27,Female,0.7142857142857143,0.5,0.6,0.25,2.7777777777777777,3.125,2.3333333333333335,2.7777777777777777,2.25,3.2222222222222223,2.0,1.25,1.5,0.25,,,,,,,,,,,,,,,,,,,,,,,,,0.00498165193435844,1.5840078766366326,,,1.591,0.35132980468413527,,,,,,,,
5,240625_152146,FalseCHOICE,9.0,6,2.0,679.0,,,,,,,,,,,7.0,6.0,,,A,,,,,,False,cue2.png,Hard,cue1.png,Easy,Right,Easy,Mid,0.0165075999684631,,,,,,,,,,,,,27,27,Female,0.7142857142857143,0.5,0.6,0.25,2.7777777777777777,3.125,2.3333333333333335,2.7777777777777777,2.25,3.2222222222222223,2.0,1.25,1.5,0.25,0.725,0.8,0.0415385500195303,-1.0386259535160272,-3.1811333667878188,,,,,,,,,,,,,,,,,,,,,,,,1.5920000000000003,0.3534075615935583,,,,,,,,
6,240625_152211,FalseCHOICE,9.0,7,2.0,679.0,,,,,,,,,,,9.0,7.0,,,A,,,,,,False,cue2.png,Hard,cue1.png,Easy,Right,Easy,Mid,0.0166019999887794,,,,,,,,,,,,,27,27,Female,0.7142857142857143,0.5,0.6,0.25,2.7777777777777777,3.125,2.3333333333333335,2.7777777777777777,2.25,3.2222222222222223,2.0,1.25,1.5,0.25,0.725,0.7285714285714286,0.3787576692501226,1.5147609159724762,-0.9708586735183551,,,,,,,,,,,,,,,,,,,,0.0006188993224841653,0.12081666117730928,0.002525709931308231,1.0868061390425248,,,,,,,,,,
7,240625_152232,FalseCHOICE,9.0,8,2.0,679.0,,,,,,,,,,,10.0,8.0,,,A,,,,,,False,cue1.png,Easy,cue2.png,Hard,Left,Easy,Mid,0.0158021000679582,,,,,,,,,,,,,27,27,Female,0.7142857142857143,0.5,0.6,0.25,2.7777777777777777,3.125,2.3333333333333335,2.7777777777777777,2.25,3.2222222222222223,2.0,1.25,1.5,0.25,,,,,,,,,,,,,,,,,,,,,,,,,,,,,0.7070000000000003,-1.485407303245181,,,,,,,,
8,240625_152253,FalseCHOICE,9.0,9,2.0,679.0,,,,,,,,,,,11.0,9.0,,,A,,,,,,False,cue1.png,Easy,cue2.png,Hard,Left,Easy,Mid,0.016184999840334,,,,,,,,,,,,,27,27,Female,0.7142857142857143,0.5,0.6,0.25,2.7777777777777777,3.125,2.3333333333333335,2.7777777777777777,2.25,3.2222222222222223,2.0,1.25,1.5,0.25,0.8875,0.9,0.3154607142454811,1.035483186535853,-1.153721123785763,,,,,,,,,,,,,,,,,,,,0.00047704253659125277,0.07324036670512912,-0.00015354143549588684,-0.4688468614186542,,,,,,,,,,
9,240625_152312,FalseCHOICE,9.0,10,2.0,679.0,,,,,,,,,,,12.0,10.0,,,A,,,,,,False,cue2.png,Hard,cue1.png,Easy,Right,Easy,Mid,0.016509500099346,,,,,,,,,,,,,27,27,Female,0.7142857142857143,0.5,0.6,0.25,2.7777777777777777,3.125,2.3333333333333335,2.7777777777777777,2.25,3.2222222222222223,2.0,1.25,1.5,0.25,,,,,,,,,,,,,,,,,,,,,,,,,-0.003611884936470614,-1.298114667946748,-0.0002711542201857633,-0.5371363409584728,0.5719999999999998,-1.765904486017193,,,,,,,,
10,240625_152330,FalseCHOICE,9.0,11,2.0,679.0,,,,,,,,,,,13.0,11.0,,,A,,,,,,False,cue1.png,Easy,cue2.png,Hard,Left,Easy,Mid,0.0155803000088781,,,,,,,,,,,,,27,27,Female,0.7142857142857143,0.5,0.6,0.25,2.7777777777777777,3.125,2.3333333333333335,2.7777777777777777,2.25,3.2222222222222223,2.0,1.25,1.5,0.25,0.8875,0.9,0.1098393642709457,-0.5214595405236406,-2.2087363053127893,,,,,,,,,,,,,,,,,,,,0.0004105919336266006,0.05095399221412089,8.58351218769168e-05,-0.32985771529711566,,,,,,,,,,
11,240625_152351,FalseCHOICE,9.0,12,2.0,679.0,,,,,,,,,,,14.0,12.0,,,A,,,,,,False,cue2.png,Hard,cue1.png,Easy,Right,Easy,Mid,0.016825099941343,,,,,,,,,,,,,27,27,Female,0.7142857142857143,0.5,0.6,0.25,2.7777777777777777,3.125,2.3333333333333335,2.7777777777777777,2.25,3.2222222222222223,2.0,1.25,1.5,0.25,,,,,,,,,,,,,,,,,,,,,,,,,,,0.001789108863677788,0.6591136592700645,,,,,,,,,,
12,240625_152417,FalseCHOICE,9.0,13,2.0,679.0,,,,,,,,,,,15.0,13.0,,,A,,,,,,False,cue1.png,Easy,cue2.png,Hard,Left,Easy,Mid,0.0158704000059515,,,,,,,,,,,,,27,27,Female,0.7142857142857143,0.5,0.6,0.25,2.7777777777777777,3.125,2.3333333333333335,2.7777777777777777,2.25,3.2222222222222223,2.0,1.25,1.5,0.25,0.8875,0.8285714285714286,0.3609180000001707,1.3796808608356956,-1.0191044932649325,,,,,,,,,,,,,,,,,,,,0.0013384566083912762,0.36214363830029683,0.0029405777700035186,1.3276907406359195,,,,,,,,,,
13,240625_152441,FalseCHOICE,9.0,14,2.0,679.0,,,,,,,,,,,17.0,14.0,,,A,,,,,,False,cue2.png,Hard,cue1.png,Easy,Right,Easy,Mid,0.0165607000235468,,,,,,,,,,,,,27,27,Female,0.7142857142857143,0.5,0.6,0.25,2.7777777777777777,3.125,2.3333333333333335,2.7777777777777777,2.25,3.2222222222222223,2.0,1.25,1.5,0.25,0.15,0.6,0.1248012856979455,-0.40816948211536824,-2.0810325210330047,,,,,,,,,,,,,,,,,,,,-0.012198388742723472,-4.177878445205655,-0.000994679106383233,-0.9572364010226456,,,,,,,,,,
14,240625_152502,FalseCHOICE,9.0,15,2.0,679.0,,,,,,,,,,,18.0,15.0,,,A,,,,,,False,cue1.png,Easy,cue2.png,Hard,Left,Easy,Mid,0.0167020999360829,,,,,,,,,,,,,27,27,Female,0.7142857142857143,0.5,0.6,0.25,2.7777777777777777,3.125,2.3333333333333335,2.7777777777777777,2.25,3.2222222222222223,2.0,1.25,1.5,0.25,,,,,,,,,,,,,,,,,,,,,,,,,,,-0.0004215146633548628,-0.6244400846328466,,,,,,,,,,
15,240625_152522,FalseCHOICE,9.0,16,2.0,679.0,,,,,,,,,,,19.0,16.0,,,A,,,,,,False,cue1.png,Easy,cue2.png,Hard,Left,Easy,Mid,0.0169432999100536,,,,,,,,,,,,,27,27,Female,0.7142857142857143,0.5,0.6,0.25,2.7777777777777777,3.125,2.3333333333333335,2.7777777777777777,2.25,3.2222222222222223,2.0,1.25,1.5,0.25,0.725,0.8,0.2320570428523101,0.4039595650746621,-1.4607720631745689,,,,,,,,,,,,,,,,,,,,,,0.001435281056890118,0.45367071498506883,,,,,,,,,,
16,240625_152538,FalseCHOICE,9.0,17,2.0,679.0,,,,,,,,,,,20.0,17.0,,,A,,,,,,False,cue2.png,Hard,cue1.png,Easy,Right,Easy,Mid,0.0164838000200688,,,,,,,,,,,,,27,27,Female,0.7142857142857143,0.5,0.6,0.25,2.7777777777777777,3.125,2.3333333333333335,2.7777777777777777,2.25,3.2222222222222223,2.0,1.25,1.5,0.25,1.0,1.0,0.0154219000001571,-1.2363784160295597,-4.171966701825493,,,,,,,,,,,,,,,,,,,,0.00038847612069053917,0.04353673387068144,0.00010066963101536784,-0.32124435824613934,,,,,,,,,,
17,240625_152556,FalseCHOICE,9.0,18,2.0,679.0,,,,,,,,,,,21.0,18.0,,,A,,,,,,False,cue2.png,Hard,cue1.png,Easy,Right,Easy,Mid,0.0150357999373227,,,,,,,,,,,,,27,27,Female,0.7142857142857143,0.5,0.6,0.25,2.7777777777777777,3.125,2.3333333333333335,2.7777777777777777,2.25,3.2222222222222223,2.0,1.25,1.5,0.25,0.7999999999999999,0.8285714285714286,0.044152815396396,-1.0188310175056443,-3.1200985850775256,,,,,,,,,,,,,,,,,,,,,,0.0001008165661839696,-0.3211590433187157,,,,,,,,,,
18,240625_152612,FalseCHOICE,9.0,19,2.0,679.0,,,,,,,,,,,22.0,19.0,,,A,,,,,,False,cue1.png,Easy,cue2.png,Hard,Left,Easy,Mid,0.0165011000353842,,,,,,,,,,,,,27,27,Female,0.7142857142857143,0.5,0.6,0.25,2.7777777777777777,3.125,2.3333333333333335,2.7777777777777777,2.25,3.2222222222222223,2.0,1.25,1.5,0.25,0.725,0.8,0.0110918285458215,-1.2691652509536113,-4.501546608810974,,,,,,,,,,,,,,,,,,,,0.0002982313337286835,0.013270204623941155,,,,,,,,,,,,
19,240625_152634,FalseCHOICE,9.0,20,2.0,679.0,,,,,,,,,,,23.0,20.0,,,A,,,,,,False,cue1.png,Easy,cue2.png,Hard,Left,Easy,Mid,0.0138352001085877,,,,,,,,,,,,,27,27,Female,0.7142857142857143,0.5,0.6,0.25,2.7777777777777777,3.125,2.3333333333333335,2.7777777777777777,2.25,3.2222222222222223,2.0,1.25,1.5,0.25,0.15,0.5285714285714286,0.288804992263277,0.8336489291503616,-1.2420035858826874,,,,,,,,,,,,,,,,,,,,,,,,1.388,-0.07045484792859265,,,,,,,,
20,240625_152657,FalseCHOICE,9.0,21,2.0,679.0,,,,,,,,,,,24.0,21.0,,,A,,,,,,False,cue1.png,Easy,cue2.png,Hard,Left,Easy,Mid,0.0160085998941212,,,,,,,,,,,,,27,27,Female,0.7142857142857143,0.5,0.6,0.25,2.7777777777777777,3.125,2.3333333333333335,2.7777777777777777,2.25,3.2222222222222223,2.0,1.25,1.5,0.25,0.725,0.8,0.3726534428341048,1.4685403706647036,-0.9871063989097647,,,,,,,,,,,,,,,,,,,,,,-0.00021511054647032355,-0.5045957177633126,0.9669999999999999,-0.9451905067953829,,,,,,,,
21,240625_152721,FalseCHOICE,9.0,22,2.0,679.0,,,,,,,,,,,25.0,22.0,,,A,,,,,,False,cue2.png,Hard,cue1.png,Easy,Right,Easy,Mid,0.016020500101149,,,,,,,,,,,,,27,27,Female,0.7142857142857143,0.5,0.6,0.25,2.7777777777777777,3.125,2.3333333333333335,2.7777777777777777,2.25,3.2222222222222223,2.0,1.25,1.5,0.25,0.225,0.6142857142857143,0.365909090032801,1.4174728572765574,-1.0053703643226735,,,,,,,,,,,,,,,,,,,,,,0.0013913001340656326,0.42813408359516886,2.0269999999999997,1.2572318171922594,,,,,,,,
22,240625_152752,FalseCHOICE,9.0,23,2.0,679.0,,,,,,,,,,,26.0,23.0,,,A,,,,,,False,cue1.png,Easy,cue2.png,Hard,Left,Easy,Mid,0.0154728000052273,,,,,,,,,,,,,27,27,Female,0.7142857142857143,0.5,0.6,0.25,2.7777777777777777,3.125,2.3333333333333335,2.7777777777777777,2.25,3.2222222222222223,2.0,1.25,1.5,0.25,0.5,0.1428571428571429,0.1768191999290138,-0.014295435237959144,-1.7326275377912466,,,,,,,,,,,,,,,,,,,,-0.003125609895597088,-1.135026491421058,-0.0052181967972985115,-3.4095363418865317,2.061,1.3278755521126182,,,,,,,,
23,240625_152820,FalseCHOICE,9.0,24,2.0,679.0,,,,,,,,,,,28.0,24.0,,,A,,,,,,False,cue2.png,Hard,cue1.png,Easy,Right,Easy,Mid,0.0166098000481724,,,,,,,,,,,,,27,27,Female,0.7142857142857143,0.5,0.6,0.25,2.7777777777777777,3.125,2.3333333333333335,2.7777777777777777,2.25,3.2222222222222223,2.0,1.25,1.5,0.25,0.15,0.4571428571428571,0.3255933833230908,1.1122066660190815,-1.122105966549515,,,,,,,,,,,,,,,,,,,,0.0008442261185603057,0.19638734279901204,-0.0002736729915537501,-0.5385988145003856,0.15700000000000003,-2.628173603427449,,,,,,,,
24,240625_152841,FalseCHOICE,9.0,25,2.0,679.0,,,,,,,,,,,29.0,25.0,,,A,,,,,,False,cue2.png,Hard,cue1.png,Easy,Right,Easy,Mid,0.0158547998871654,,,,,,,,,,,,,27,27,Female,0.7142857142857143,0.5,0.6,0.25,2.7777777777777777,3.125,2.3333333333333335,2.7777777777777777,2.25,3.2222222222222223,2.0,1.25,1.5,0.25,0.0291666666666666,0.7,0.2868532857391983,0.8188708174494358,-1.2487843934445233,,,,,,,,,,,,,,,,,,,,,,0.004970085050724894,2.5060830071584963,0.7909999999999999,-1.3108757228537082,,,,,,,,
25,240625_152900,FalseCHOICE,9.0,26,2.0,679.0,,,,,,,,,,,30.0,26.0,,,A,,,,,,False,cue1.png,Easy,cue2.png,Hard,Left,Easy,Mid,0.0161788000259548,,,,,,,,,,,,,27,27,Female,0.7142857142857143,0.5,0.6,0.25,2.7777777777777777,3.125,2.3333333333333335,2.7777777777777777,2.25,3.2222222222222223,2.0,1.25,1.5,0.25,0.725,0.8,0.1241762428544461,-0.4129022392410631,-2.0860534091445406,,,,,,,,,,,,,,,,,,,,0.004474132913567448,1.4137948393723283,0.004517552252275387,2.2433290101138668,1.2660000000000002,-0.32394119087811307,,,,,,,,
26,240625_152924,FalseCHOICE,9.0,27,2.0,679.0,,,,,,,,,,,32.0,27.0,,,A,,,,,,False,cue1.png,Easy,cue2.png,Hard,Left,Easy,Mid,0.0164888999424874,,,,,,,,,,,,,27,27,Female,0.7142857142857143,0.5,0.6,0.25,2.7777777777777777,3.125,2.3333333333333335,2.7777777777777777,2.25,3.2222222222222223,2.0,1.25,1.5,0.25,0.15,0.5285714285714286,0.1221542230699784,-0.42821275538049736,-2.1024709090558877,,,,,,,,,,,,,,,,,,,,0.001954249315772494,0.5686697836361023,-0.0002054121165342782,-0.49896452099816235,2.432,2.098723365508293,,,,,,,,
27,240625_152947,FalseCHOICE,9.0,28,2.0,679.0,,,,,,,,,,,33.0,28.0,,,A,,,,,,False,cue2.png,Hard,cue1.png,Easy,Right,Easy,Mid,0.0162195998709648,,,,,,,,,,,,,27,27,Female,0.7142857142857143,0.5,0.6,0.25,2.7777777777777777,3.125,2.3333333333333335,2.7777777777777777,2.25,3.2222222222222223,2.0,1.25,1.5,0.25,0.5625,0.5142857142857143,0.086973759974353,-0.6945954347963373,-2.4421488153110387,,,,,,,,,,,,,,,,,,,,0.0007519774836810839,0.1654487578730599,0.00016675422183824338,-0.2828736800516242,1.805,0.7959697833005084,,,,,,,,
28,240625_153004,FalseCHOICE,9.0,29,2.0,679.0,,,,,,,,,,,34.0,29.0,,,A,,,,,,False,cue1.png,Easy,cue2.png,Hard,Right,Hard,Mid,0.0151575999334454,,,,,,,,,,,,,27,27,Female,0.7142857142857143,0.5,0.6,0.25,2.7777777777777777,3.125,2.3333333333333335,2.7777777777777777,2.25,3.2222222222222223,2.0,1.25,1.5,0.25,0.725,0.8,0.1152436499916283,-0.48053887081297947,-2.160706696309835,,,,,,,,,,,,,,,,,,,,0.0004456199324835673,0.06270177275137541,0.00010430469897632728,-0.31913372971370263,1.3079999999999998,-0.23667540068237714,,,,,,,,
29,240625_153021,FalseCHOICE,9.0,30,2.0,679.0,,,,,,,,,,,35.0,30.0,,,A,,,,,,False,cue1.png,Easy,cue2.png,Hard,Left,Easy,Mid,0.0015190001577138,,,,,,,,,,,,,27,27,Female,0.7142857142857143,0.5,0.6,0.25,2.7777777777777777,3.125,2.3333333333333335,2.7777777777777777,2.25,3.2222222222222223,2.0,1.25,1.5,0.25,0.725,0.8,0.1059625500181157,-0.5508143607106094,-2.2446695490117143,,,,,,,,,,,,,,,,,,,,-1.5805423145930433e-05,-0.09205225228999034,2.7095171686857857e-05,-0.36396387677650854,1.534,0.23289766084706406,,,,,,,,
30,240625_153038,FalseCHOICE,9.0,31,2.0,679.0,,,,,,,,,,,36.0,31.0,,,A,,,,,,False,cue2.png,Hard,cue1.png,Easy,Right,Easy,Mid,0.0172822999302297,,,,,,,,,,,,,27,27,Female,0.7142857142857143,0.5,0.6,0.25,2.7777777777777777,3.125,2.3333333333333335,2.7777777777777777,2.25,3.2222222222222223,2.0,1.25,1.5,0.25,0.0291666666666666,0.7,0.0578590214385518,-0.9150491008148135,-2.849745892149725,,,,,,,,,,,,,,,,,,,,0.00022014907819586883,-0.012917223484613034,0.00012943126059726962,-0.3045445009981017,,,,,,,,,,
31,240625_153059,FalseCHOICE,9.0,32,2.0,679.0,,,,,,,,,,,37.0,32.0,,,A,,,,,,False,cue1.png,Easy,cue2.png,Hard,Left,Easy,Mid,0.0165872001089155,,,,,,,,,,,,,27,27,Female,0.7142857142857143,0.5,0.6,0.25,2.7777777777777777,3.125,2.3333333333333335,2.7777777777777777,2.25,3.2222222222222223,2.0,1.25,1.5,0.25,0.0291666666666666,0.6285714285714286,0.3103866461807719,0.9970628893685975,-1.1699365129233499,,,,,,,,,,,,,,,,,,,,0.008828742235936394,2.87425493740897,0.003924603169051438,1.899045143408843,1.6500000000000001,0.4739174623400516,,,,,,,,
32,240625_153117,FalseCHOICE,9.0,33,2.0,679.0,,,,,,,,,,,38.0,33.0,,,A,,,,,,False,cue2.png,Hard,cue1.png,Easy,Right,Easy,Mid,0.0166844001505523,,,,,,,,,,,,,27,27,Female,0.7142857142857143,0.5,0.6,0.25,2.7777777777777777,3.125,2.3333333333333335,2.7777777777777777,2.25,3.2222222222222223,2.0,1.25,1.5,0.25,0.15,0.6,0.1284336285732154,-0.38066577288216735,-2.052343017241524,,,,,,,,,,,,,,,,,,,,0.0009392198093433461,0.22824657164905016,0.002059508114598406,0.8161155036020035,1.518,0.19965355029630716,,,,,,,,
33,240625_153136,FalseCHOICE,9.0,34,2.0,679.0,,,,,,,,,,,39.0,34.0,,,A,,,,,,False,cue2.png,Hard,cue1.png,Easy,Right,Easy,Mid,0.0162283000536263,,,,,,,,,,,,,27,27,Female,0.7142857142857143,0.5,0.6,0.25,2.7777777777777777,3.125,2.3333333333333335,2.7777777777777777,2.25,3.2222222222222223,2.0,1.25,1.5,0.25,0.0291666666666666,0.6285714285714286,0.1060161153570963,-0.5504087697301073,-2.2441641647549933,,,,,,,,,,,,,,,,,,,,-0.00014202102360872174,-0.13438276567927485,,,2.117,1.4442299390402675,,,,,,,,
34,240625_153152,FalseCHOICE,9.0,35,2.0,679.0,,,,,,,,,,,40.0,35.0,,,A,,,,,,False,cue2.png,Hard,cue1.png,Easy,Right,Easy,Mid,0.0168500000145286,,,,,,,,,,,,,27,27,Female,0.7142857142857143,0.5,0.6,0.25,2.7777777777777777,3.125,2.3333333333333335,2.7777777777777777,2.25,3.2222222222222223,2.0,1.25,1.5,0.25,0.0291666666666666,0.7,0.0411258571215772,-1.04175081971332,-3.19111822825173,,,,,,,,,,,,,,,,,,,,-0.0016948715798411782,-0.6551817875207481,2.3134313522729655e-05,-0.36626366878698235,1.2269999999999999,-0.4049737103455837,,,,,,,,
35,240625_153213,FalseCHOICE,9.0,36,2.0,679.0,,,,,,,,,,,41.0,36.0,,,A,,,,,,False,cue1.png,Easy,cue2.png,Hard,Right,Hard,Mid,0.012671299977228,,,,,,,,,,,,,27,27,Female,0.7142857142857143,0.5,0.6,0.25,2.7777777777777777,3.125,2.3333333333333335,2.7777777777777777,2.25,3.2222222222222223,2.0,1.25,1.5,0.25,0.725,0.7285714285714286,0.3620998461265117,1.3886296724797096,-1.0158352871581278,,,,,,,,,,,,,,,,,,,,,,,,1.2809999999999997,-0.29277483723677966,,,,,,,,
36,240625_153232,FalseCHOICE,9.0,37,2.0,679.0,,,,,,,,,,,42.0,37.0,,,A,,,,,,False,cue2.png,Hard,cue1.png,Easy,Right,Easy,Mid,0.0166094999294728,,,,,,,,,,,,,27,27,Female,0.7142857142857143,0.5,0.6,0.25,2.7777777777777777,3.125,2.3333333333333335,2.7777777777777777,2.25,3.2222222222222223,2.0,1.25,1.5,0.25,0.725,0.8,0.209091292827257,0.2300653781266581,-1.5649843146041562,,,,,,,,,,,,,,,,,,,,0.0001299476259271062,-0.04316921903029363,,,,,,,,,,,,
37,240625_153249,FalseCHOICE,9.0,38,2.0,679.0,,,,,,,,,,,43.0,38.0,,,A,,,,,,False,cue1.png,Easy,cue2.png,Hard,Left,Easy,Mid,0.0173351000994443,,,,,,,,,,,,,27,27,Female,0.7142857142857143,0.5,0.6,0.25,2.7777777777777777,3.125,2.3333333333333335,2.7777777777777777,2.25,3.2222222222222223,2.0,1.25,1.5,0.25,0.8875,0.9,0.0748298071557655,-0.7865481382534198,-2.5925389819910727,,,,,,,,,,,,,,,,,,,,-0.0001202747370376376,-0.12708944004053283,4.8527726909664004e-05,-0.35151949800226945,1.851,0.8915466011339345,,,,,,,,
38,240625_153306,FalseCHOICE,9.0,39,2.0,679.0,,,,,,,,,,,44.0,39.0,,,A,,,,,,False,cue1.png,Easy,cue2.png,Hard,Left,Easy,Mid,0.0165822000708431,,,,,,,,,,,,,27,27,Female,0.7142857142857143,0.5,0.6,0.25,2.7777777777777777,3.125,2.3333333333333335,2.7777777777777777,2.25,3.2222222222222223,2.0,1.25,1.5,0.25,0.0291666666666666,0.7,0.0533172428674463,-0.949438959236972,-2.9314954941712665,,,,,,,,,,,,,,,,,,,,-0.00036308743920051515,-0.20852458991350067,-4.100591571202985e-05,-0.40350539283557046,1.1640000000000001,-0.5358723956391883,,,,,,,,
39,240625_153322,FalseCHOICE,9.0,40,2.0,679.0,,,,,,,,,,,45.0,40.0,,,A,,,,,,False,cue2.png,Hard,cue1.png,Easy,Right,Easy,Mid,0.0145688999909907,,,,,,,,,,,,,27,27,Female,0.7142857142857143,0.5,0.6,0.25,2.7777777777777777,3.125,2.3333333333333335,2.7777777777777777,2.25,3.2222222222222223,2.0,1.25,1.5,0.25,0.725,0.8,0.0,-1.3531513826775123,-inf,,,,,,,,,,,,,,,,,,,,-0.00015966562700313542,-0.1403004582426124,-0.00012628873526736133,-0.4530231334152062,1.165,-0.5337946387297663,,,,,,,,
40,240625_153340,FalseCHOICE,9.0,41,2.0,679.0,,,,,,,,,,,46.0,41.0,,,A,,,,,,False,cue2.png,Hard,cue1.png,Easy,Right,Easy,Mid,0.0166239000391215,,,,,,,,,,,,,27,27,Female,0.7142857142857143,0.5,0.6,0.25,2.7777777777777777,3.125,2.3333333333333335,2.7777777777777777,2.25,3.2222222222222223,2.0,1.25,1.5,0.25,0.0291666666666666,0.7,0.1421901428506576,-0.2765029276493832,-1.9505900829280574,,,,,,,,,,,,,,,,,,,,2.7620695745063026e-05,-0.07748788861054344,3.517356190032954e-06,-0.37765385744663404,,,,,,,,,,
41,240625_153356,FalseCHOICE,9.0,42,2.0,679.0,,,,,,,,,,,47.0,42.0,,,A,,,,,,False,cue1.png,Easy,cue2.png,Hard,Right,Hard,Mid,0.0017240999732166,,,,,,,,,,,,,27,27,Female,0.7142857142857143,0.5,0.6,0.25,2.7777777777777777,3.125,2.3333333333333335,2.7777777777777777,2.25,3.2222222222222223,2.0,1.25,1.5,0.25,0.0291666666666666,0.7,0.0905678357563114,-0.6673814798742741,-2.4016561426927425,,,,,,,,,,,,,,,,,,,,0.0005312860150378453,0.09143268431282264,9.493044689862533e-05,-0.32457669917615795,,,,,,,,,,
42,240625_153414,FalseCHOICE,9.0,43,2.0,679.0,,,,,,,,,,,48.0,43.0,,,A,,,,,,False,cue2.png,Hard,cue1.png,Easy,Right,Easy,Mid,0.0156205999664962,,,,,,,,,,,,,27,27,Female,0.7142857142857143,0.5,0.6,0.25,2.7777777777777777,3.125,2.3333333333333335,2.7777777777777777,2.25,3.2222222222222223,2.0,1.25,1.5,0.25,0.0291666666666666,0.7,0.0595429357074733,-0.9022986832423499,-2.8210576181358404,,,,,,,,,,,,,,,,,,,,0.005469781769064116,1.747718118698265,,,1.494,0.1497873844701718,,,,,,,,
43,240625_153432,FalseCHOICE,9.0,44,2.0,679.0,,,,,,,,,,,49.0,44.0,,,A,,,,,,False,cue1.png,Easy,cue2.png,Hard,Left,Easy,Mid,0.0165830999612808,,,,,,,,,,,,,27,27,Female,0.7142857142857143,0.5,0.6,0.25,2.7777777777777777,3.125,2.3333333333333335,2.7777777777777777,2.25,3.2222222222222223,2.0,1.25,1.5,0.25,0.0291666666666666,0.7,0.1044145928462967,-0.5625353257794685,-2.2593858350804314,,,,,,,,,,,,,,,,,,,,-0.00034375240949963484,-0.20203995781862258,0.0006429453608147889,-0.00638294711023504,1.0759999999999998,-0.7187150036683517,,,,,,,,
44,240625_153449,FalseCHOICE,9.0,45,2.0,679.0,,,,,,,,,,,50.0,45.0,,,A,,,,,,False,cue2.png,Hard,cue1.png,Easy,Right,Easy,Mid,0.0161482000257819,,,,,,,,,,,,,27,27,Female,0.7142857142857143,0.5,0.6,0.25,2.7777777777777777,3.125,2.3333333333333335,2.7777777777777777,2.25,3.2222222222222223,2.0,1.25,1.5,0.25,0.0291666666666666,0.7,0.0936575071287474,-0.6439868208424474,-2.3681106917591834,,,,,,,,,,,,,,,,,,,,-0.0006036254981497853,-0.2891968640828598,-3.2379115681669887e-06,-0.381576166748093,2.027,1.2572318171922603,,,,,,,,
45,240625_153514,FalseCHOICE,9.0,46,2.0,679.0,,,,,,,,,,,51.0,46.0,,,A,,,,,,False,cue2.png,Hard,cue1.png,Easy,Right,Easy,Mid,0.0163561999797821,,,,,,,,,,,,,27,27,Female,0.7142857142857143,0.5,0.6,0.25,2.7777777777777777,3.125,2.3333333333333335,2.7777777777777777,2.25,3.2222222222222223,2.0,1.25,1.5,0.25,0.725,0.7285714285714286,0.5070561461795408,2.4862231720699373,-0.6791335395509126,,,,,,,,,,,,,,,,,,,,0.0025470147694405523,0.7674729892715124,0.0027622477644863013,1.2241470374984156,1.266,-0.32394119087811357,,,,,,,,
46,240625_153534,FalseCHOICE,9.0,47,2.0,679.0,,,,,,,,,,,52.0,47.0,,,A,,,,,,False,cue1.png,Easy,cue2.png,Hard,Left,Easy,Mid,0.0161220000591129,,,,,,,,,,,,,27,27,Female,0.7142857142857143,0.5,0.6,0.25,2.7777777777777777,3.125,2.3333333333333335,2.7777777777777777,2.25,3.2222222222222223,2.0,1.25,1.5,0.25,0.0291666666666666,0.7,0.2393616928353107,0.4592695884071442,-1.4297795118809988,,,,,,,,,,,,,,,,,,,,-0.0016885701469145607,-0.6530683967046065,0.0033889466291370943,1.5880270307155275,1.228,-0.4028959534361612,,,,,,,,
47,240625_153553,FalseCHOICE,9.0,48,2.0,679.0,,,,,,,,,,,53.0,48.0,,,A,,,,,,False,cue1.png,Easy,cue2.png,Hard,Left,Easy,Mid,0.0155998999252915,,,,,,,,,,,,,27,27,Female,0.7142857142857143,0.5,0.6,0.25,2.7777777777777777,3.125,2.3333333333333335,2.7777777777777777,2.25,3.2222222222222223,2.0,1.25,1.5,0.25,0.725,0.8,0.1274143214437312,-0.3883838567391545,-2.060311128945866,,,,,,,,,,,,,,,,,,,,-8.723521421594334e-05,-0.11600855972105438,,,2.1430000000000002,1.498251618685248,,,,,,,,
48,240625_153614,FalseCHOICE,9.0,49,2.0,679.0,,,,,,,,,,,54.0,49.0,,,A,,,,,,False,cue2.png,Hard,cue1.png,Easy,Right,Easy,Mid,0.0152863000985234,,,,,,,,,,,,,27,27,Female,0.7142857142857143,0.5,0.6,0.25,2.7777777777777777,3.125,2.3333333333333335,2.7777777777777777,2.25,3.2222222222222223,2.0,1.25,1.5,0.25,0.725,0.7285714285714286,0.2527684769234978,0.5607843142950196,-1.3752813201986034,,,,,,,,,,,,,,,,,,,,0.0006692978400893055,0.13771944590805588,-1.1571262697775142e-06,-0.3803680009399642,,,,,,,,,,
49,240625_153630,FalseCHOICE,9.0,50,2.0,679.0,,,,,,,,,,,55.0,50.0,,,A,,,,,,False,cue1.png,Easy,cue2.png,Hard,Left,Easy,Mid,0.0159937001299113,,,,,,,,,,,,,27,27,Female,0.7142857142857143,0.5,0.6,0.25,2.7777777777777777,3.125,2.3333333333333335,2.7777777777777777,2.25,3.2222222222222223,2.0,1.25,1.5,0.25,1.0,1.0,0.0,-1.3531513826775123,-inf,,,,,,,,,,,,,,,,,,,,0.0003231136410473401,0.021615296983733826,-7.668681267864255e-05,-0.42422278244409667,1.4180000000000001,-0.008122140645922994,,,,,,,,
0,240625_145204,OFFLINERATING,9.0,1,1.0,,,,,,,,,,,,,,,,,T0,cue1.png,Easy,0.0,1.1185108998324722,,,,,,,,,,,,,,,,,,,,,,27,27,Female,0.7142857142857143,0.5,0.6,0.25,2.7777777777777777,3.125,2.3333333333333335,2.7777777777777777,2.25,3.2222222222222223,2.0,1.25,1.5,0.25,,,,,,,,,,,,,,,,,,,,,,,,,,,,,,,-0.3779644730092272,,,,,1.4069999999999998,0.5188996737276261,
1,240625_145213,OFFLINERATING,9.0,2,3.0,,,,,,,,,,,,,,,,,T0,cue2.png,Hard,0.0,2.236021399963647,,,,,,,,,,,,,,,,,,,,,,27,27,Female,0.7142857142857143,0.5,0.6,0.25,2.7777777777777777,3.125,2.3333333333333335,2.7777777777777777,2.25,3.2222222222222223,2.0,1.25,1.5,0.25,,,,,,,,,,,,,,,,,,,,,,,,,,,,,,,-0.3779644730092272,,,,,1.455,0.8798733597990217,
2,240625_151351,OFFLINERATING,9.0,3,1.0,,,,,,,,,,,,,,,,,T1,cue1.png,Easy,0.0,1.8081859999801964,,,,,,,,,,,,,,,,,,,,,,27,27,Female,0.7142857142857143,0.5,0.6,0.25,2.7777777777777777,3.125,2.3333333333333335,2.7777777777777777,2.25,3.2222222222222223,2.0,1.25,1.5,0.25,,,,,,,,,,,,,,,,,,,,,,,,,,,,,,,-0.3779644730092272,0.0004200882319954722,0.9403156666731625,,,1.1520000000000001,-1.3987730335266495,
3,240625_151359,OFFLINERATING,9.0,4,3.0,,,,,,,,,,,,,,,,,T1,cue2.png,Hard,0.0,2.226913799997419,,,,,,,,,,,,,,,,,,,,,,27,27,Female,0.7142857142857143,0.5,0.6,0.25,2.7777777777777777,3.125,2.3333333333333335,2.7777777777777777,2.25,3.2222222222222223,2.0,1.25,1.5,0.25,,,,,,,,,,,,,,,,,,,,,,,,,,,,,,,-0.3779644730092272,0.0002909771737627338,0.7662103160755663,,,,,
4,240625_151835,OFFLINERATING,9.0,5,1.0,,,,,,,,,,,,,,,,,T2,cue1.png,Easy,0.0,1.518689699936658,,,,,,,,,,,,,,,,,,,,,,27,27,Female,0.7142857142857143,0.5,0.6,0.25,2.7777777777777777,3.125,2.3333333333333335,2.7777777777777777,2.25,3.2222222222222223,2.0,1.25,1.5,0.25,,,,,,,,,,,,,,,,,,,,,,,,,,,,,,,-0.3779644730092272,-0.0014530458372774453,-1.5855924027904733,-0.00032072794049892075,-1.6250726863770328,,,
5,240625_151843,OFFLINERATING,9.0,6,3.0,,,,,,,,,,,,,,,,,T2,cue2.png,Hard,0.0,1.6354906000196934,,,,,,,,,,,,,,,,,,,,,,27,27,Female,0.7142857142857143,0.5,0.6,0.25,2.7777777777777777,3.125,2.3333333333333335,2.7777777777777777,2.25,3.2222222222222223,2.0,1.25,1.5,0.25,,,,,,,,,,,,,,,,,,,,,,,,,,,,,,,-0.3779644730092272,-0.0003669008686322632,-0.12093357995825554,7.467936609886717e-05,0.9215801531085611,,,
6,240625_153653,OFFLINERATING,9.0,7,1.0,,,,,,,,,,,,,,,,,T3,cue1.png,Easy,2.0,2.0576418000273407,,,,,,,,,,,,,,,,,,,,,,27,27,Female,0.7142857142857143,0.5,0.6,0.25,2.7777777777777777,3.125,2.3333333333333335,2.7777777777777777,2.25,3.2222222222222223,2.0,1.25,1.5,0.25,,,,,,,,,,,,,,,,,,,,,,,,,,,,,,,2.6457513110645903,,,4.244101350925041e-05,0.7139464275987842,,,
7,240625_153701,OFFLINERATING,9.0,8,3.0,,,,,,,,,,,,,,,,,T3,cue2.png,Hard,0.0,1.9689551999326795,,,,,,,,,,,,,,,,,,,,,,27,27,Female,0.7142857142857143,0.5,0.6,0.25,2.7777777777777777,3.125,2.3333333333333335,2.7777777777777777,2.25,3.2222222222222223,2.0,1.25,1.5,0.25,,,,,,,,,,,,,,,,,,,,,,,,,,,,,,,-0.3779644730092272,,,-7.003335902847335e-05,-0.010453894330312654,,,
0,240625_151903,LEARNINGCHECK,9.0,1,,,,,,,,,,,,1.0,1.0,1.0,,,A,,,,,,,,,,,,,,,cue1.png,Easy,Left,Left,Easy,0.0144056999124586,1.0,,,,,,27,27,Female,0.7142857142857143,0.5,0.6,0.25,2.7777777777777777,3.125,2.3333333333333335,2.7777777777777777,2.25,3.2222222222222223,2.0,1.25,1.5,0.25,,,,,,,,,,,,,,,,,,,,,,,,,,,,,,,,,,,,,,
1,240625_153717,LEARNINGCHECK,9.0,1,,,,,,,,,,,,1.0,1.0,1.0,,,A,,,,,,,,,,,,,,,cue1.png,Easy,Middle,Middle,Mid,0.0162790999747812,1.0,,,,,,27,27,Female,0.7142857142857143,0.5,0.6,0.25,2.7777777777777777,3.125,2.3333333333333335,2.7777777777777777,2.25,3.2222222222222223,2.0,1.25,1.5,0.25,,,,,,,,,,,,,,,,,,,,,,,,,,,,,,,,,,,,,,
2,240625_151909,LEARNINGCHECK,9.0,2,,,,,,,,,,,,2.0,2.0,2.0,,,A,,,,,,,,,,,,,,,cue2.png,Hard,Right,Right,Hard,0.0134869001340121,1.0,,,,,,27,27,Female,0.7142857142857143,0.5,0.6,0.25,2.7777777777777777,3.125,2.3333333333333335,2.7777777777777777,2.25,3.2222222222222223,2.0,1.25,1.5,0.25,,,,,,,,,,,,,,,,,,,,,,,,,,,,,,,,,,,,,,
3,240625_153721,LEARNINGCHECK,9.0,2,,,,,,,,,,,,2.0,2.0,2.0,,,A,,,,,,,,,,,,,,,cue2.png,Hard,Middle,Middle,Mid,0.0150369999464601,1.0,,,,,,27,27,Female,0.7142857142857143,0.5,0.6,0.25,2.7777777777777777,3.125,2.3333333333333335,2.7777777777777777,2.25,3.2222222222222223,2.0,1.25,1.5,0.25,,,,,,,,,,,,,,,,,,,,,,,,,,,,,,,,,,,,,,
0,240625_153738,DEMANDRATING,9.0,-1,,,,,,,,,,,,,,,,,,,,,,,,,,,,,,,,,,,,,,,1.0,MentalDemand,1.0,62.0,6.269227100070566,27,27,Female,0.7142857142857143,0.5,0.6,0.25,2.7777777777777777,3.125,2.3333333333333335,2.7777777777777777,2.25,3.2222222222222223,2.0,1.25,1.5,0.25,,,,,,,,,,,,,,,,,,,,,,,,,,,,,,,,,,,,,,-0.9097034785020387
1,240625_153743,DEMANDRATING,9.0,-1,,,,,,,,,,,,,,,,,,,,,,,,,,,,,,,,,,,,,,,2.0,Effort,1.0,63.0,3.605279500130564,27,27,Female,0.7142857142857143,0.5,0.6,0.25,2.7777777777777777,3.125,2.3333333333333335,2.7777777777777777,2.25,3.2222222222222223,2.0,1.25,1.5,0.25,,,,,,,,,,,,,,,,,,,,,,,,,,,,,,,,,,,,,,-0.8532391246639812
2,240625_153747,DEMANDRATING,9.0,-1,,,,,,,,,,,,,,,,,,,,,,,,,,,,,,,,,,,,,,,3.0,Frustration,1.0,66.0,2.477461200207472,27,27,Female,0.7142857142857143,0.5,0.6,0.25,2.7777777777777777,3.125,2.3333333333333335,2.7777777777777777,2.25,3.2222222222222223,2.0,1.25,1.5,0.25,,,,,,,,,,,,,,,,,,,,,,,,,,,,,,,,,,,,,,-0.6838460631498084
3,240625_153749,DEMANDRATING,9.0,-1,,,,,,,,,,,,,,,,,,,,,,,,,,,,,,,,,,,,,,,4.0,MentalDemand,2.0,51.0,0.8643163999076933,27,27,Female,0.7142857142857143,0.5,0.6,0.25,2.7777777777777777,3.125,2.3333333333333335,2.7777777777777777,2.25,3.2222222222222223,2.0,1.25,1.5,0.25,,,,,,,,,,,,,,,,,,,,,,,,,,,,,,,,,,,,,,-1.530811370720672
4,240625_153753,DEMANDRATING,9.0,-1,,,,,,,,,,,,,,,,,,,,,,,,,,,,,,,,,,,,,,,5.0,Effort,2.0,79.0,1.6096969000063837,27,27,Female,0.7142857142857143,0.5,0.6,0.25,2.7777777777777777,3.125,2.3333333333333335,2.7777777777777777,2.25,3.2222222222222223,2.0,1.25,1.5,0.25,,,,,,,,,,,,,,,,,,,,,,,,,,,,,,,,,,,,,,0.05019053674493988
5,240625_153756,DEMANDRATING,9.0,-1,,,,,,,,,,,,,,,,,,,,,,,,,,,,,,,,,,,,,,,6.0,Frustration,2.0,82.0,1.5840640000533313,27,27,Female,0.7142857142857143,0.5,0.6,0.25,2.7777777777777777,3.125,2.3333333333333335,2.7777777777777777,2.25,3.2222222222222223,2.0,1.25,1.5,0.25,,,,,,,,,,,,,,,,,,,,,,,,,,,,,,,,,,,,,,0.21958359825911258
6,240625_153759,DEMANDRATING,9.0,-1,,,,,,,,,,,,,,,,,,,,,,,,,,,,,,,,,,,,,,,7.0,MentalDemand,3.0,100.0,1.616096000187099,27,27,Female,0.7142857142857143,0.5,0.6,0.25,2.7777777777777777,3.125,2.3333333333333335,2.7777777777777777,2.25,3.2222222222222223,2.0,1.25,1.5,0.25,,,,,,,,,,,,,,,,,,,,,,,,,,,,,,,,,,,,,,1.2359419673441487
7,240625_153802,DEMANDRATING,9.0,-1,,,,,,,,,,,,,,,,,,,,,,,,,,,,,,,,,,,,,,,8.0,Effort,3.0,100.0,1.2440655999816954,27,27,Female,0.7142857142857143,0.5,0.6,0.25,2.7777777777777777,3.125,2.3333333333333335,2.7777777777777777,2.25,3.2222222222222223,2.0,1.25,1.5,0.25,,,,,,,,,,,,,,,,,,,,,,,,,,,,,,,,,,,,,,1.2359419673441487
8,240625_153806,DEMANDRATING,9.0,-1,,,,,,,,,,,,,,,,,,,,,,,,,,,,,,,,,,,,,,,9.0,Frustration,3.0,100.0,2.368200099794194,27,27,Female,0.7142857142857143,0.5,0.6,0.25,2.7777777777777777,3.125,2.3333333333333335,2.7777777777777777,2.25,3.2222222222222223,2.0,1.25,1.5,0.25,,,,,,,,,,,,,,,,,,,,,,,,,,,,,,,,,,,,,,1.2359419673441487
