,END,Phase,Block,TrialN,NbackLevel,ISI,Letter_Resp,Letter_RT,Letter_Accuracy,Trial_A_measure,Trial_ACC,Trial_RT,TrialCountCali,CaliEnd_A_measure,ISI_calibrated,TrialIndex,TrialNumber_total,TrialNumber_valid,CueLearning,TrialDemandLearning,CueMapping,OfflineRatingTimePoint,CueFigure,TrialDemand,OfflineRating,OfflineRatingRT,PhaseType,CueLeft,CueDemandLeft,CueRight,CueDemandRight,Choice,ChoiceDemand,TaskDemand,ChoiceRT,CueCheck,CueDemandCheck,CorrectAnswer,Answer,AnswerDemand,AnswerRT,AnswerACC,DemandRatingQuesIndex,QuesTLX,DemandLevel,DemandRating,DemandRatingRT,PID,Age,Gender,BAI_bis,BAI_bas_d,BAI_bas_rr,BAI_bas_fs,NFC,BFI_ext,BFI_agr,BFI_con,BFI_neu,BFI_open,UPPS_lps,UPPS_lpm,UPPS_pu,UPPS_ss,Task_A_measure,Task_ACC,Task_RT,Task_RT_z,cue_i_on_zyg_values,cue_i_on_zyg_zvalues,cue_e_on_zyg_values,cue_e_on_zyg_zvalues,cue_i_on_cor_values,cue_i_on_cor_zvalues,cue_e_on_cor_values,cue_e_on_cor_zvalues,cue_i_on_scr_values,cue_i_on_scr_zvalues,cue_e_on_scr_values,cue_e_on_scr_zvalues,cue_e_true_zyg_values,cue_e_true_zyg_zvalues,cue_e_true_cor_values,cue_e_true_cor_zvalues,cue_e_true_scr_values,cue_e_true_scr_zvalues,cue_e_false_zyg_values,cue_e_false_zyg_zvalues,cue_e_false_cor_values,cue_e_false_cor_zvalues,cue_e_false_scr_values,cue_e_false_scr_zvalues,OfflineRating_z,cue_i_off_zyg_values,cue_i_off_zyg_zvalues,cue_i_off_cor_values,cue_i_off_cor_zvalues,cue_i_off_scr_values,cue_i_off_scr_zvalues,DemandRating_z
0,240626_092819,PRACTICE,0.0,1,1.0,426.0,,,,,,,,,,9.0,1.0,1.0,cue2.png,Easy,B,,,,,,,,,,,,,,,,,,,,,,,,,,,28,21,Male,2.0,1.0,1.0,0.0,2.1666666666666665,1.0,2.2222222222222223,1.5555555555555556,1.375,3.0,1.5,2.0,0.75,0.5,,,,,,,,,,,,,,,,,,,,,,,,,,,,,,,,,,,,
0,240626_093112,LEARNING,1.0,1,1.0,426.0,,,,,,,,,,1.0,1.0,1.0,cue2.png,Easy,B,,,,,,,,,,,,,,,,,,,,,,,,,,,28,21,Male,2.0,1.0,1.0,0.0,2.1666666666666665,1.0,2.2222222222222223,1.5555555555555556,1.375,3.0,1.5,2.0,0.75,0.5,0.8458333333333333,0.7990196078431372,0.4339681400296589,-0.11764921344223518,0.009756880679312836,-0.06908638470839244,0.008129159758349491,-0.19907199022497032,,,,,9.524388512016744e+45,-0.1750323010280917,,,,,,,,,,,,,,,,,,,,,,
1,240626_093145,LEARNING,1.0,2,3.0,426.0,,,,,,,,,,2.0,2.0,2.0,cue1.png,Hard,B,,,,,,,,,,,,,,,,,,,,,,,,,,,28,21,Male,2.0,1.0,1.0,0.0,2.1666666666666665,1.0,2.2222222222222223,1.5555555555555556,1.375,3.0,1.5,2.0,0.75,0.5,0.9,0.5294117647058824,0.6918550111456878,2.8033312234269085,0.007230528173340633,-0.7203786761522272,0.008506308832925349,-0.02374186665488166,,,,,1.8647404059007796e+45,-0.17648159694393872,1.779029763661171e+45,-0.176019030245008,,,,,,,,,,,,,,,,,,,,
2,240626_093213,LEARNING,1.0,3,1.0,426.0,,,,,,,,,,3.0,3.0,3.0,cue2.png,Easy,B,,,,,,,,,,,,,,,,,,,,,,,,,,,28,21,Male,2.0,1.0,1.0,0.0,2.1666666666666665,1.0,2.2222222222222223,1.5555555555555556,1.375,3.0,1.5,2.0,0.75,0.5,1.0,0.9411764705882352,0.4433228999987477,-0.011691625360828616,0.007725269762317747,-0.5928345656625986,0.015412139352854206,3.186660067314817,,,,,-1.1096492769251378e+45,-0.17704438661256788,-1.6172777977468138e+45,-0.1774181108425476,,,,,,,,,,,,,,,,,,,,
3,240626_093245,LEARNING,1.0,4,3.0,426.0,,,,,,,,,,4.0,4.0,4.0,cue1.png,Hard,B,,,,,,,,,,,,,,,,,,,,,,,,,,,28,21,Male,2.0,1.0,1.0,0.0,2.1666666666666665,1.0,2.2222222222222223,1.5555555555555556,1.375,3.0,1.5,2.0,0.75,0.5,0.85,0.5882352941176471,0.6284587900387123,2.0852678306550056,0.013989763890075321,1.022148587147102,0.011407432454089216,1.3249406498349097,,,,,-1.1105113249374703e+45,-0.1770445497222364,-1.7648006690723312e+45,-0.17747888166004075,,,,,,,,,,,,,,,,,,,,
4,240626_093318,LEARNING,1.0,5,3.0,426.0,,,,,,,,,,5.0,5.0,5.0,cue1.png,Hard,B,,,,,,,,,,,,,,,,,,,,,,,,,,,28,21,Male,2.0,1.0,1.0,0.0,2.1666666666666665,1.0,2.2222222222222223,1.5555555555555556,1.375,3.0,1.5,2.0,0.75,0.5,0.9,0.6470588235294117,0.7484237454746935,3.4440624308683687,0.011988757360201205,0.5062902004196054,0.00935709012395661,0.3717717351095789,0.019952101381611416,-0.051540954340538334,0.014814303277742712,-1.1869317278974922,3.0831522898927984e+49,5.656853960655467,1.4161242884740362e+49,5.656854110033323,,,,,,,,,,,,,,,,,,,,
5,240626_093344,LEARNING,1.0,6,1.0,426.0,,,,,,,,,,6.0,6.0,6.0,cue2.png,Easy,B,,,,,,,,,,,,,,,,,,,,,,,,,,,28,21,Male,2.0,1.0,1.0,0.0,2.1666666666666665,1.0,2.2222222222222223,1.5555555555555556,1.375,3.0,1.5,2.0,0.75,0.5,1.0,1.0,0.3954585117753595,-0.5538322198710575,0.006982331014907257,-0.7843637675691175,0.010601407009122963,0.9502332717895092,0.014069375232812311,-0.9476314482141036,0.017282493134697468,-0.5212422330469946,-1.5715296932538902e+44,-0.17686416305799474,-3.2622846446932195e+44,-0.17688627382837974,,,,,,,,,,,,,,,,,,,,
6,240626_093414,LEARNING,1.0,7,3.0,426.0,,,,,,,,,,7.0,7.0,7.0,cue1.png,Hard,B,,,,,,,,,,,,,,,,,,,,,,,,,,,28,21,Male,2.0,1.0,1.0,0.0,2.1666666666666665,1.0,2.2222222222222223,1.5555555555555556,1.375,3.0,1.5,2.0,0.75,0.5,0.8458333333333333,0.7990196078431372,0.5710041666403413,1.4345025155071152,0.008192207932550714,-0.47245816128723617,0.006299934638057321,-1.049447313932225,0.0171062461090313,-0.4850379066369818,0.03580824857821988,4.475294296820267,,,,,,,,,,,,,,,,,,,,,,,,
7,240626_093443,LEARNING,1.0,8,3.0,426.0,,,,,,,,,,8.0,8.0,8.0,cue1.png,Hard,B,,,,,,,,,,,,,,,,,,,,,,,,,,,28,21,Male,2.0,1.0,1.0,0.0,2.1666666666666665,1.0,2.2222222222222223,1.5555555555555556,1.375,3.0,1.5,2.0,0.75,0.5,0.9125,0.9166666666666666,0.5625040352700607,1.338224960407242,0.013573371606781732,0.9148028847224713,0.008614293775351604,0.026458477388375857,0.020770872347846227,0.07317892228544798,0.01370357064586902,-1.4865047297646314,,,,,,,,,,,,,,,,,,,,,,,,
8,240626_093510,LEARNING,1.0,9,1.0,426.0,,,,,,,,,,9.0,9.0,9.0,cue2.png,Easy,B,,,,,,,,,,,,,,,,,,,,,,,,,,,28,21,Male,2.0,1.0,1.0,0.0,2.1666666666666665,1.0,2.2222222222222223,1.5555555555555556,1.375,3.0,1.5,2.0,0.75,0.5,1.0,1.0,0.4248448353096404,-0.22098520139479738,0.007872384314064208,-0.5549085148501395,0.00975462590703155,0.5565792891210681,0.018028147254487877,-0.34460865124772144,0.017600282957198593,-0.4355319114470136,,,,,,,,,,,,,,,,,,,,,,,,
9,240626_093536,LEARNING,1.0,10,1.0,426.0,,,,,,,,,,10.0,10.0,10.0,cue2.png,Easy,B,,,,,,,,,,,,,,,,,,,,,,,,,,,28,21,Male,2.0,1.0,1.0,0.0,2.1666666666666665,1.0,2.2222222222222223,1.5555555555555556,1.375,3.0,1.5,2.0,0.75,0.5,1.0,1.0,0.4055089117712615,-0.43999539815270355,0.009046983551020696,-0.2520974753150304,0.009595264444335175,0.4824948836952091,0.015021592681321411,-0.8025842401465086,0.019940948933705745,0.19576342716897133,,,,,,,,,,,,,,,,,,,,,,,,
10,240626_093605,LEARNING,1.0,11,3.0,426.0,,,,,,,,,,11.0,11.0,11.0,cue1.png,Hard,B,,,,,,,,,,,,,,,,,,,,,,,,,,,28,21,Male,2.0,1.0,1.0,0.0,2.1666666666666665,1.0,2.2222222222222223,1.5555555555555556,1.375,3.0,1.5,2.0,0.75,0.5,0.9125,0.9166666666666666,0.5604242764632491,1.3146683723505759,0.009650610038919965,-0.09648289755885933,0.007789195322335513,-0.3571156143351429,0.01888109683108981,-0.21468249320235605,0.02460500438649009,1.4536945014621887,2.911849452766288e+44,-0.17677933222770723,,,,,,,,,,,,,,,,,,,,,,
11,240626_093632,LEARNING,1.0,12,1.0,426.0,,,,,,,,,,12.0,12.0,12.0,cue2.png,Easy,B,,,,,,,,,,,,,,,,,,,,,,,,,,,28,21,Male,2.0,1.0,1.0,0.0,2.1666666666666665,1.0,2.2222222222222223,1.5555555555555556,1.375,3.0,1.5,2.0,0.75,0.5,0.95,0.9411764705882352,0.4298922562011285,-0.1638151034488345,0.011558682977038456,0.3954172601473335,0.015078083120222994,3.0313630654264876,0.016198846494716944,-0.6232582058595832,0.015491539691939171,-1.0042759385989188,-1.2015664088049592e+43,-0.17683670136513321,3.814417082649673e+44,-0.17659475499793564,,,,,,,,,,,,,,,,,,,,
12,240626_093658,LEARNING,1.0,13,1.0,426.0,,,,,,,,,,13.0,13.0,13.0,cue2.png,Easy,B,,,,,,,,,,,,,,,,,,,,,,,,,,,28,21,Male,2.0,1.0,1.0,0.0,2.1666666666666665,1.0,2.2222222222222223,1.5555555555555556,1.375,3.0,1.5,2.0,0.75,0.5,1.0,1.0,0.4032451529466711,-0.46563608009902635,,,0.010035767947002991,0.6872773921573122,0.016712484084998862,-0.5450179903020886,0.018384374322960938,-0.22405653254931163,,,-1.871317257190689e+44,-0.17682897408598366,,,,,,,,,,,,,,,,,,,,
13,240626_093724,LEARNING,1.0,14,1.0,426.0,,,,,,,,,,14.0,14.0,14.0,cue2.png,Easy,B,,,,,,,,,,,,,,,,,,,,,,,,,,,28,21,Male,2.0,1.0,1.0,0.0,2.1666666666666665,1.0,2.2222222222222223,1.5555555555555556,1.375,3.0,1.5,2.0,0.75,0.5,1.0,1.0,0.4051425705718643,-0.44414479696477793,,,0.009080030870635056,0.24297164942533278,0.016319619472165474,-0.6048613751605157,0.018848075664881704,-0.09899276924320095,,,,,,,,,,,,,,,,,,,,,,,,
14,240626_093755,LEARNING,1.0,15,3.0,426.0,,,,,,,,,,15.0,15.0,15.0,cue1.png,Hard,B,,,,,,,,,,,,,,,,,,,,,,,,,,,28,21,Male,2.0,1.0,1.0,0.0,2.1666666666666665,1.0,2.2222222222222223,1.5555555555555556,1.375,3.0,1.5,2.0,0.75,0.5,0.95,0.8235294117647058,0.5945127428276464,1.7007746636184122,0.008869249857150915,-0.29791712418571736,0.008644205259918467,0.040363812543104005,0.02112942989910902,0.12779645930249303,0.020972883921084706,0.47408410761873615,,,,,,,,,,,,,,,,,,,,,,,,
15,240626_093821,LEARNING,1.0,16,1.0,426.0,,,,,,,,,,16.0,16.0,16.0,cue2.png,Easy,B,,,,,,,,,,,,,,,,,,,,,,,,,,,28,21,Male,2.0,1.0,1.0,0.0,2.1666666666666665,1.0,2.2222222222222223,1.5555555555555556,1.375,3.0,1.5,2.0,0.75,0.5,1.0,1.0,0.3912239882355446,-0.6017949578178688,0.009042426765572008,-0.2532722121063049,,,0.019834621240234857,-0.06943620141539117,0.01664804876267262,-0.6923566845280675,,,,,,,,,,,,,,,,,,,,,,,,
16,240626_093847,LEARNING,1.0,17,1.0,426.0,,,,,,,,,,17.0,17.0,17.0,cue2.png,Easy,B,,,,,,,,,,,,,,,,,,,,,,,,,,,28,21,Male,2.0,1.0,1.0,0.0,2.1666666666666665,1.0,2.2222222222222223,1.5555555555555556,1.375,3.0,1.5,2.0,0.75,0.5,0.9125,0.9166666666666666,0.4298835294321179,-0.16391394803695447,0.008632883863884635,-0.35885214770673335,0.007950318906540679,-0.2822120289014066,0.020511433363866974,0.033659692356398284,0.0192599351940798,0.012088864598174057,,,,,,,,,,,,,,,,,,,,,,,,
17,240626_093916,LEARNING,1.0,18,3.0,426.0,,,,,,,,,,18.0,18.0,18.0,cue1.png,Hard,B,,,,,,,,,,,,,,,,,,,,,,,,,,,28,21,Male,2.0,1.0,1.0,0.0,2.1666666666666665,1.0,2.2222222222222223,1.5555555555555556,1.375,3.0,1.5,2.0,0.75,0.5,0.63125,0.75,0.5622628117664991,1.3354927192048607,0.018795611233953013,2.2610933985002837,0.008377769735553514,-0.08349748411499704,0.021119281867816107,0.12625065313319375,0.020585235539653197,0.3695324036695353,,,,,,,,,,,,,,,,,,,,,,,,
18,240626_093945,LEARNING,1.0,19,3.0,426.0,,,,,,,,,,19.0,19.0,19.0,cue1.png,Hard,B,,,,,,,,,,,,,,,,,,,,,,,,,,,28,21,Male,2.0,1.0,1.0,0.0,2.1666666666666665,1.0,2.2222222222222223,1.5555555555555556,1.375,3.0,1.5,2.0,0.75,0.5,0.0666666666666666,0.5490196078431373,0.4572554799883316,0.14611708125758135,,,,,0.014506272380575704,-0.8810807757862922,0.021491396282299832,0.6139308178863585,,,,,,,,,,,,,,,,,,,,,,,,
19,240626_094014,LEARNING,1.0,20,3.0,426.0,,,,,,,,,,20.0,20.0,20.0,cue1.png,Hard,B,,,,,,,,,,,,,,,,,,,,,,,,,,,28,21,Male,2.0,1.0,1.0,0.0,2.1666666666666665,1.0,2.2222222222222223,1.5555555555555556,1.375,3.0,1.5,2.0,0.75,0.5,0.0374999999999999,0.4558823529411764,0.4715360666741617,0.3078675191755937,0.007039334755819347,-0.7696682344035198,0.00797303734002826,-0.27165061958288744,0.021537650170369023,0.18997890588081115,0.016522488355844727,-0.726221277058891,1.0561501202332898e+44,-0.17681444425147674,2.651521020455031e+44,-0.1766426595321439,,,,,,,,,,,,,,,,,,,,
20,240626_094041,LEARNING,1.0,21,1.0,426.0,,,,,,,,,,21.0,21.0,21.0,cue2.png,Easy,B,,,,,,,,,,,,,,,,,,,,,,,,,,,28,21,Male,2.0,1.0,1.0,0.0,2.1666666666666665,1.0,2.2222222222222223,1.5555555555555556,1.375,3.0,1.5,2.0,0.75,0.5,1.0,1.0,0.435005270602072,-0.10590205431239103,0.006906207116088406,-0.8039884669640616,0.0058792859818590885,-1.2449996454705423,0.023745161824722024,0.5262397071735325,0.017195203089334046,-0.5447850192875745,3.790006486448322e+43,-0.17682725671949084,1.7029464090560282e+44,-0.1766817352727867,,,,,,,,,,,,,,,,,,,,
21,240626_094108,LEARNING,1.0,22,3.0,426.0,,,,,,,,,,22.0,22.0,22.0,cue1.png,Hard,B,,,,,,,,,,,,,,,,,,,,,,,,,,,28,21,Male,2.0,1.0,1.0,0.0,2.1666666666666665,1.0,2.2222222222222223,1.5555555555555556,1.375,3.0,1.5,2.0,0.75,0.5,0.7916666666666667,0.8333333333333334,0.4690595764858538,0.27981731498783885,,,0.006799372156459231,-0.817267394319741,0.015019605707448981,-0.8028869073714692,0.017787119904308122,-0.38514057198409024,-3.754363419749258e+43,-0.17684153155867566,2.0185841465136668e+43,-0.1767435713418175,,,,,,,,,,,,,,,,,,,,
22,240626_094136,LEARNING,1.0,23,3.0,426.0,,,,,,,,,,23.0,23.0,23.0,cue1.png,Hard,B,,,,,,,,,,,,,,,,,,,,,,,,,,,28,21,Male,2.0,1.0,1.0,0.0,2.1666666666666665,1.0,2.2222222222222223,1.5555555555555556,1.375,3.0,1.5,2.0,0.75,0.5,0.7916666666666667,0.8333333333333334,0.4721705941072501,0.3150545551448427,0.02201589976048439,3.0912820157248615,0.005169102148691771,-1.5751519052016223,0.020603119318652035,0.04762582139699397,0.02089132720669546,0.45208764415768465,-8.63276578255672e+43,-0.1768507620723002,-1.0025175495862222e+44,-0.17679318460602403,,,,,,,,,,,,,,,,,,,,
23,240626_094203,LEARNING,1.0,24,3.0,426.0,,,,,,,,,,24.0,24.0,24.0,cue1.png,Hard,B,,,,,,,,,,,,,,,,,,,,,,,,,,,28,21,Male,2.0,1.0,1.0,0.0,2.1666666666666665,1.0,2.2222222222222223,1.5555555555555556,1.375,3.0,1.5,2.0,0.75,0.5,0.9125,0.9166666666666666,0.468531294095823,0.27383367371232736,0.011897618348835792,0.48279461323935846,0.007860192539655027,-0.3241102280704095,0.01769069042189522,-0.3960120061090886,0.019417849484669385,0.054679544580124466,,,-2.0427777054219964e+44,-0.17683603725626576,,,,,,,,,,,,,,,,,,,,
24,240626_094229,LEARNING,1.0,25,1.0,426.0,,,,,,,,,,25.0,25.0,25.0,cue2.png,Easy,B,,,,,,,,,,,,,,,,,,,,,,,,,,,28,21,Male,2.0,1.0,1.0,0.0,2.1666666666666665,1.0,2.2222222222222223,1.5555555555555556,1.375,3.0,1.5,2.0,0.75,0.5,1.0,1.0,0.4031845235457534,-0.4663228048369448,,,,,0.022709084624380364,0.36841850206188115,0.017977627858905776,-0.333759134002823,,,-2.263425365289996e+44,-0.17684512665274213,,,,,,,,,,,,,,,,,,,,
25,240626_094255,LEARNING,1.0,26,1.0,426.0,,,,,,,,,,26.0,26.0,26.0,cue2.png,Easy,B,,,,,,,,,,,,,,,,,,,,,,,,,,,28,21,Male,2.0,1.0,1.0,0.0,2.1666666666666665,1.0,2.2222222222222223,1.5555555555555556,1.375,3.0,1.5,2.0,0.75,0.5,1.0,1.0,0.367211564690532,-0.873773981462079,0.007819449204824809,-0.5685551570003768,0.008134535086333166,-0.19657309261885159,0.01728632939197785,-0.45760659097274875,0.01622839969162096,-0.8055392167938512,-7.559276785589436e+43,-0.17684873090429162,-1.8267836328255615e+44,-0.17682713956043905,,,,,,,,,,,,,,,,,,,,
26,240626_094322,LEARNING,1.0,27,3.0,426.0,,,,,,,,,,27.0,27.0,27.0,cue1.png,Hard,B,,,,,,,,,,,,,,,,,,,,,,,,,,,28,21,Male,2.0,1.0,1.0,0.0,2.1666666666666665,1.0,2.2222222222222223,1.5555555555555556,1.375,3.0,1.5,2.0,0.75,0.5,0.63125,0.75,0.4575211000217892,0.14912565210111636,,,,,0.017311888160854695,-0.45371333311128453,0.02068611028489622,0.39673908633812477,4.9475248121537066e+44,-0.1767408148448787,,,,,,,,,,,,,,,,,,,,,,
27,240626_094347,LEARNING,1.0,28,1.0,426.0,,,,,,,,,,28.0,28.0,28.0,cue2.png,Easy,B,,,,,,,,,,,,,,,,,,,,,,,,,,,28,21,Male,2.0,1.0,1.0,0.0,2.1666666666666665,1.0,2.2222222222222223,1.5555555555555556,1.375,3.0,1.5,2.0,0.75,0.5,1.0,1.0,0.3500388764694114,-1.0682820854429829,0.006307816448396052,-0.95825325314044,0.008283652421999986,-0.1272510058066055,,,0.01738523477387053,-0.49353203494837194,3.2473925909527625e+43,-0.17682828340908774,1.834515979432684e+43,-0.17674432959529288,,,,,,,,,,,,,,,,,,,,
28,240626_094412,LEARNING,1.0,29,1.0,426.0,,,,,,,,,,29.0,29.0,29.0,cue2.png,Easy,B,,,,,,,,,,,,,,,,,,,,,,,,,,,28,21,Male,2.0,1.0,1.0,0.0,2.1666666666666665,1.0,2.2222222222222223,1.5555555555555556,1.375,3.0,1.5,2.0,0.75,0.5,1.0,1.0,0.3518109882442171,-1.0482100910690468,0.011373586492723705,0.34769948793519306,0.008225129095411614,-0.1544574946307167,0.022258808493200447,0.29982986635752185,0.016096109181500125,-0.8412189691466571,7.917757271133785e+43,-0.1768194465273371,1.2125971228939916e+44,-0.17670193480300833,,,,,,,,,,,,,,,,,,,,
29,240626_094440,LEARNING,1.0,30,3.0,426.0,,,,,,,,,,30.0,30.0,30.0,cue1.png,Hard,B,,,,,,,,,,,,,,,,,,,,,,,,,,,28,21,Male,2.0,1.0,1.0,0.0,2.1666666666666665,1.0,2.2222222222222223,1.5555555555555556,1.375,3.0,1.5,2.0,0.75,0.5,0.63125,0.75,0.4661807117791956,0.2472095771369342,,,0.006728569455002457,-0.8501823535025863,,,0.02145943873088764,0.6053116242711278,9.878499732790566e+43,-0.17681573657094965,1.7545282686743429e+44,-0.1766796104010643,,,,,,,,,,,,,,,,,,,,
30,240626_094507,LEARNING,1.0,31,3.0,426.0,,,,,,,,,,31.0,31.0,31.0,cue1.png,Hard,B,,,,,,,,,,,,,,,,,,,,,,,,,,,28,21,Male,2.0,1.0,1.0,0.0,2.1666666666666665,1.0,2.2222222222222223,1.5555555555555556,1.375,3.0,1.5,2.0,0.75,0.5,0.7041666666666667,0.7745098039215687,0.4487521187402308,0.04980294263608322,0.007554275774995926,-0.6369167218789933,,,0.020999608408680308,0.10802130735233531,0.025233259788239665,1.6231397407938881,,,1.929242682360834e+44,-0.17667241318638693,,,,,,,,,,,,,,,,,,,,
31,240626_094533,LEARNING,1.0,32,1.0,426.0,,,,,,,,,,32.0,32.0,32.0,cue2.png,Easy,B,,,,,,,,,,,,,,,,,,,,,,,,,,,28,21,Male,2.0,1.0,1.0,0.0,2.1666666666666665,1.0,2.2222222222222223,1.5555555555555556,1.375,3.0,1.5,2.0,0.75,0.5,1.0,1.0,0.3664334529243848,-0.882587339182764,0.00733933643649572,-0.6923279655444335,,,,,,,7.005348111651899e+43,-0.17682117291326255,,,,,,,,,,,,,,,,,,,,,,
32,240626_094558,LEARNING,1.0,33,1.0,426.0,,,,,,,,,,33.0,33.0,33.0,cue2.png,Easy,B,,,,,,,,,,,,,,,,,,,,,,,,,,,28,21,Male,2.0,1.0,1.0,0.0,2.1666666666666665,1.0,2.2222222222222223,1.5555555555555556,1.375,3.0,1.5,2.0,0.75,0.5,1.0,1.0,0.3372786764247233,-1.2128117179123343,0.006254214717677734,-0.9720717499425932,,,,,,,2.902350583883791e+43,-0.17682893626932975,8.228609867355811e+43,-0.17671798965835933,,,,,,,,,,,,,,,,,,,,
33,240626_094623,LEARNING,1.0,34,1.0,426.0,,,,,,,,,,34.0,34.0,34.0,cue2.png,Easy,B,,,,,,,,,,,,,,,,,,,,,,,,,,,28,21,Male,2.0,1.0,1.0,0.0,2.1666666666666665,1.0,2.2222222222222223,1.5555555555555556,1.375,3.0,1.5,2.0,0.75,0.5,1.0,1.0,0.3746336823301938,-0.7897066525136457,,,,,0.017913008060387228,-0.36214731184420645,0.017737669368239367,-0.39847775602726215,-2.4036752807575016e+43,-0.17683897589714093,-9.875876303181727e+42,-0.17675595501593944,,,,,,,,,,,,,,,,,,,,
34,240626_094651,LEARNING,1.0,35,3.0,426.0,,,,,,,,,,35.0,35.0,35.0,cue1.png,Hard,B,,,,,,,,,,,,,,,,,,,,,,,,,,,28,21,Male,2.0,1.0,1.0,0.0,2.1666666666666665,1.0,2.2222222222222223,1.5555555555555556,1.375,3.0,1.5,2.0,0.75,0.5,0.7916666666666667,0.8333333333333334,0.4797086117460447,0.4004346365751492,0.008420446333322002,-0.4136184266570111,,,0.020678172073380106,0.05905828626952211,0.0217228822188179,0.6763643278983607,,,-1.0761975297826798e+44,-0.17679621979140864,,,,,,,,,,,,,,,,,,,,
35,240626_094718,LEARNING,1.0,36,3.0,426.0,,,,,,,,,,36.0,36.0,36.0,cue1.png,Hard,B,,,,,,,,,,,,,,,,,,,,,,,,,,,28,21,Male,2.0,1.0,1.0,0.0,2.1666666666666665,1.0,2.2222222222222223,1.5555555555555556,1.375,3.0,1.5,2.0,0.75,0.5,0.9125,0.9166666666666666,0.459466917645734,0.17116514247401227,0.012329291888782885,0.5940798152541984,,,0.026241186626491667,0.9064484812629092,0.0242479427358197,1.3573922704180497,-8.564056660625165e+43,-0.17685063206652393,-1.6045353997073771e+44,-0.17681798422968142,,,,,,,,,,,,,,,,,,,,
36,240626_094744,LEARNING,1.0,37,1.0,426.0,,,,,,,,,,37.0,37.0,37.0,cue2.png,Easy,B,,,,,,,,,,,,,,,,,,,,,,,,,,,28,21,Male,2.0,1.0,1.0,0.0,2.1666666666666665,1.0,2.2222222222222223,1.5555555555555556,1.375,3.0,1.5,2.0,0.75,0.5,1.0,1.0,0.3972402235410888,-0.5336514902770595,0.007156317828344099,-0.7395100624205225,,,0.020237809796453628,-0.00802021445159163,0.021794917959199127,0.6957929125716341,-8.497785521730021e+43,-0.17685050667369961,-1.7203264654651834e+44,-0.17682275414614337,,,,,,,,,,,,,,,,,,,,
37,240626_094811,LEARNING,1.0,38,3.0,426.0,,,,,,,,,,38.0,38.0,38.0,cue1.png,Hard,B,,,,,,,,,,,,,,,,,,,,,,,,,,,28,21,Male,2.0,1.0,1.0,0.0,2.1666666666666665,1.0,2.2222222222222223,1.5555555555555556,1.375,3.0,1.5,2.0,0.75,0.5,0.0666666666666666,0.6666666666666667,0.4367804882417926,-0.08579488106092337,0.017132507169058814,1.8323460820533772,0.007137487242769589,-0.6600835011062296,0.022131374163515294,0.28041834038544733,0.019451839233346053,0.06384683718644882,-5.650906847861765e+43,-0.17684512004290695,-1.196907487260887e+44,-0.17680119233751596,,,,,,,,,,,,,,,,,,,,
38,240626_094838,LEARNING,1.0,39,3.0,426.0,,,,,,,,,,39.0,39.0,39.0,cue1.png,Hard,B,,,,,,,,,,,,,,,,,,,,,,,,,,,28,21,Male,2.0,1.0,1.0,0.0,2.1666666666666665,1.0,2.2222222222222223,1.5555555555555556,1.375,3.0,1.5,2.0,0.75,0.5,0.7916666666666667,0.8333333333333334,0.4357690881828175,-0.09725060105678685,,,,,0.01760312358666855,-0.40935068729880025,0.01858581208030506,-0.16972724400111514,-5.349465305537313e+42,-0.17683544004156643,-3.640217769134857e+43,-0.17676688230474522,,,,,,,,,,,,,,,,,,,,
39,240626_094904,LEARNING,1.0,40,3.0,426.0,,,,,,,,,,40.0,40.0,40.0,cue1.png,Hard,B,,,,,,,,,,,,,,,,,,,,,,,,,,,28,21,Male,2.0,1.0,1.0,0.0,2.1666666666666665,1.0,2.2222222222222223,1.5555555555555556,1.375,3.0,1.5,2.0,0.75,0.5,0.95,0.9411764705882352,0.4088286687328946,-0.40239385179198384,,,0.0062759993982700185,-1.0605743955890121,0.023689298521426295,0.5177302892993217,,,4.3382155046573313e+43,-0.1768262194432608,6.23166953967978e+43,-0.17672621588762855,,,,,,,,,,,,,,,,,,,,
40,240626_094931,LEARNING,1.0,41,1.0,426.0,,,,,,,,,,41.0,41.0,41.0,cue2.png,Easy,B,,,,,,,,,,,,,,,,,,,,,,,,,,,28,21,Male,2.0,1.0,1.0,0.0,2.1666666666666665,1.0,2.2222222222222223,1.5555555555555556,1.375,3.0,1.5,2.0,0.75,0.5,1.0,1.0,0.4355530999874806,-0.09969701211464152,0.005230820743841247,-1.2359021555151048,0.006999483307028692,-0.72423915927355,0.01876652530578018,-0.23213468324174996,,,8.319785817715701e+43,-0.17681868584182972,1.4840493712328705e+44,-0.17669075255384678,,,,,,,,,,,,,,,,,,,,
41,240626_094957,LEARNING,1.0,42,3.0,426.0,,,,,,,,,,42.0,42.0,42.0,cue1.png,Hard,B,,,,,,,,,,,,,,,,,,,,,,,,,,,28,21,Male,2.0,1.0,1.0,0.0,2.1666666666666665,1.0,2.2222222222222223,1.5555555555555556,1.375,3.0,1.5,2.0,0.75,0.5,0.7916666666666667,0.7745098039215687,0.3536071687412914,-1.0278654799985618,,,0.00837613695856106,-0.08425653407997806,0.02046598697307789,0.02673703817585759,0.017686131705221677,-0.4123778540133832,,,,,,,,,,,,,,,,,,,,,,,,
42,240626_095024,LEARNING,1.0,43,3.0,426.0,,,,,,,,,,43.0,43.0,43.0,cue1.png,Hard,B,,,,,,,,,,,,,,,,,,,,,,,,,,,28,21,Male,2.0,1.0,1.0,0.0,2.1666666666666665,1.0,2.2222222222222223,1.5555555555555556,1.375,3.0,1.5,2.0,0.75,0.5,0.7916666666666667,0.7745098039215687,0.4248614437528886,-0.22079708426574435,0.010806275725574722,0.20144708308520806,0.00811495628235532,-0.2056749421319412,,,,,6.2122719418105025e+43,-0.17682267350707312,1.3250292070407402e+44,-0.1766973032569947,,,,,,,,,,,,,,,,,,,,
43,240626_095050,LEARNING,1.0,44,1.0,426.0,,,,,,,,,,44.0,44.0,44.0,cue2.png,Easy,B,,,,,,,,,,,,,,,,,,,,,,,,,,,28,21,Male,2.0,1.0,1.0,0.0,2.1666666666666665,1.0,2.2222222222222223,1.5555555555555556,1.375,3.0,1.5,2.0,0.75,0.5,1.0,1.0,0.3668252941330566,-0.8781491120642747,0.010160078908967024,0.034857897919149644,0.00884238228007278,0.13249290359677685,0.020003389242630596,-0.04372849400362841,0.01470240418410589,-1.217111760810045,7.702562548916644e+42,-0.17683297044369442,3.9414069994781924e+43,-0.17673565043330894,,,,,,,,,,,,,,,,,,,,
44,240626_095115,LEARNING,1.0,45,1.0,426.0,,,,,,,,,,45.0,45.0,45.0,cue2.png,Easy,B,,,,,,,,,,,,,,,,,,,,,,,,,,,28,21,Male,2.0,1.0,1.0,0.0,2.1666666666666665,1.0,2.2222222222222223,1.5555555555555556,1.375,3.0,1.5,2.0,0.75,0.5,1.0,0.9411764705882352,0.3479969437466934,-1.0914102327218675,0.008258582503593681,-0.45534683324968656,0.00838772777119278,-0.07886816447232929,0.018177281002828886,-0.32189174571381485,0.01755636465127335,-0.44737701112752865,-5.365085280365077e+43,-0.17684457923473312,-9.338727323206679e+43,-0.17679035683998043,,,,,,,,,,,,,,,,,,,,
45,240626_095141,LEARNING,1.0,46,1.0,426.0,,,,,,,,,,46.0,46.0,46.0,cue2.png,Easy,B,,,,,,,,,,,,,,,,,,,,,,,,,,,28,21,Male,2.0,1.0,1.0,0.0,2.1666666666666665,1.0,2.2222222222222223,1.5555555555555556,1.375,3.0,1.5,2.0,0.75,0.5,1.0,1.0,0.3891296941266559,-0.6255161813708194,0.007857857014347467,-0.5586536447552659,0.006689212232061573,-0.8684788501050532,0.022835150773340453,0.3876216189204561,0.018437350107983325,-0.20976856216830855,-9.90353812715936e+43,-0.17685316652371036,-1.854798934899541e+44,-0.17682829362746205,,,,,,,,,,,,,,,,,,,,
46,240626_095207,LEARNING,1.0,47,3.0,426.0,,,,,,,,,,47.0,47.0,47.0,cue1.png,Hard,B,,,,,,,,,,,,,,,,,,,,,,,,,,,28,21,Male,2.0,1.0,1.0,0.0,2.1666666666666665,1.0,2.2222222222222223,1.5555555555555556,1.375,3.0,1.5,2.0,0.75,0.5,0.7916666666666667,0.8333333333333334,0.3595927823608851,-0.9600688519273934,0.006796029909085316,-0.8323920905456054,0.011932260576072475,1.5689242247220174,0.01753925501657877,-0.4190795131980701,0.02162016574994839,0.6486609184212081,-5.917452736690668e+43,-0.1768456243792194,,,,,,,,,,,,,,,,,,,,,,
47,240626_095234,LEARNING,1.0,48,3.0,426.0,,,,,,,,,,48.0,48.0,48.0,cue1.png,Hard,B,,,,,,,,,,,,,,,,,,,,,,,,,,,28,21,Male,2.0,1.0,1.0,0.0,2.1666666666666665,1.0,2.2222222222222223,1.5555555555555556,1.375,3.0,1.5,2.0,0.75,0.5,0.7916666666666667,0.7745098039215687,0.4585835500183748,0.1611595941228565,0.01935613982850507,2.405597362971827,0.008104603430389216,-0.21048780510014842,0.05764252767865573,5.689680353695066,0.018716829137560332,-0.13439095152940575,3.065314623431675e+43,-0.17682862792211368,1.0178483618863998e+44,-0.17670995731592842,,,,,,,,,,,,,,,,,,,,
48,240626_095259,LEARNING,1.0,49,1.0,426.0,,,,,,,,,,49.0,49.0,49.0,cue2.png,Easy,B,,,,,,,,,,,,,,,,,,,,,,,,,,,28,21,Male,2.0,1.0,1.0,0.0,2.1666666666666665,1.0,2.2222222222222223,1.5555555555555556,1.375,3.0,1.5,2.0,0.75,0.5,0.9125,0.9166666666666666,0.3411614882403656,-1.1688326766201058,,,,,,,0.017511775081284278,-0.45940315580922186,,,,,,,,,,,,,,,,,,,,,,,,
49,240626_095325,LEARNING,1.0,50,1.0,426.0,,,,,,,,,,50.0,50.0,50.0,cue2.png,Easy,B,,,,,,,,,,,,,,,,,,,,,,,,,,,28,21,Male,2.0,1.0,1.0,0.0,2.1666666666666665,1.0,2.2222222222222223,1.5555555555555556,1.375,3.0,1.5,2.0,0.75,0.5,1.0,1.0,0.344110564684824,-1.135429678771414,,,0.006076887634473401,-1.153138032898687,0.018371005543300935,-0.2923825156806499,0.01573104226844234,-0.9396802800767274,-3.257608269838254e+43,-0.17684059163924337,-1.2367779138104145e+44,-0.1768028347665125,,,,,,,,,,,,,,,,,,,,
0,240626_095455,TrueCHOICE,9.0,1,1.0,426.0,,,,,,,,,,,1.0,1.0,,,B,,,,,,True,cue2.png,Easy,cue1.png,Hard,Left,Easy,Easy,0.0153129000682383,,,,,,,,,,,,,28,21,Male,2.0,1.0,1.0,0.0,2.1666666666666665,1.0,2.2222222222222223,1.5555555555555556,1.375,3.0,1.5,2.0,0.75,0.5,1.0,1.0,0.3584919294397182,-0.21360210502530022,,,,,,,,,,,,,,,0.030897340894769504,2.432688551727838,,,,,,,,,,,,,,,,
1,240626_095519,TrueCHOICE,9.0,2,1.0,426.0,,,,,,,,,,,2.0,2.0,,,B,,,,,,True,cue2.png,Easy,cue1.png,Hard,Left,Easy,Easy,0.0163317001424729,,,,,,,,,,,,,28,21,Male,2.0,1.0,1.0,0.0,2.1666666666666665,1.0,2.2222222222222223,1.5555555555555556,1.375,3.0,1.5,2.0,0.75,0.5,1.0,1.0,0.3591804764343096,-0.2009590060777484,,,,,,,,,,,,,0.007259071991119583,-0.5954503907212111,0.013921193399767662,-0.22717671550535182,10474785.337648567,-0.447193953920701,,,,,,,,,,,,,,
2,240626_095546,TrueCHOICE,9.0,3,3.0,426.0,,,,,,,,,,,3.0,3.0,,,B,,,,,,True,cue1.png,Hard,cue2.png,Easy,Left,Hard,Hard,0.016512099886313,,,,,,,,,,,,,28,21,Male,2.0,1.0,1.0,0.0,2.1666666666666665,1.0,2.2222222222222223,1.5555555555555556,1.375,3.0,1.5,2.0,0.75,0.5,1.0,1.0,0.5162761941250852,2.6836323415030066,,,,,,,,,,,,,0.00897744713241227,-0.28508477607220345,0.01193967254500347,-0.5376463611912928,17363975.926111747,-0.4471548938508053,,,,,,,,,,,,,,
3,240626_095610,TrueCHOICE,9.0,4,1.0,426.0,,,,,,,,,,,4.0,4.0,,,B,,,,,,True,cue2.png,Easy,cue1.png,Hard,Left,Easy,Easy,0.0161065000575035,,,,,,,,,,,,,28,21,Male,2.0,1.0,1.0,0.0,2.1666666666666665,1.0,2.2222222222222223,1.5555555555555556,1.375,3.0,1.5,2.0,0.75,0.5,1.0,1.0,0.3755620470517041,0.0998393705892302,,,,,,,,,,,,,0.01044327075304129,-0.02033394370080423,0.013884447607383981,-0.2329341382013487,892526.6739492853,-0.4472482830451976,,,,,,,,,,,,,,
4,240626_095634,TrueCHOICE,9.0,5,1.0,426.0,,,,,,,,,,,5.0,5.0,,,B,,,,,,True,cue1.png,Hard,cue2.png,Easy,Right,Easy,Easy,0.0166608998551964,,,,,,,,,,,,,28,21,Male,2.0,1.0,1.0,0.0,2.1666666666666665,1.0,2.2222222222222223,1.5555555555555556,1.375,3.0,1.5,2.0,0.75,0.5,1.0,1.0,0.369574658873984,-0.01010104272015714,,,,,,,,,,,,,0.006978826575001181,-0.646067126692335,0.012446482167325537,-0.4582381614268331,473268789120.2865,2.2360679763781266,,,,,,,,,,,,,,
5,240626_095657,TrueCHOICE,9.0,6,1.0,426.0,,,,,,,,,,,6.0,6.0,,,B,,,,,,True,cue1.png,Hard,cue2.png,Easy,Right,Easy,Easy,0.0171777999494224,,,,,,,,,,,,,28,21,Male,2.0,1.0,1.0,0.0,2.1666666666666665,1.0,2.2222222222222223,1.5555555555555556,1.375,3.0,1.5,2.0,0.75,0.5,1.0,1.0,0.3698591706206036,-0.004876838428354611,,,,,,,,,,,,,0.007775924418755341,-0.5020987019477519,0.01230926676720525,-0.4797374136580542,2458406.7999290475,-0.44723940487781594,,,,,,,,,,,,,,
6,240626_095721,TrueCHOICE,9.0,7,1.0,426.0,,,,,,,,,,,7.0,7.0,,,B,,,,,,True,cue2.png,Easy,cue1.png,Hard,Left,Easy,Easy,0.0152529999613761,,,,,,,,,,,,,28,21,Male,2.0,1.0,1.0,0.0,2.1666666666666665,1.0,2.2222222222222223,1.5555555555555556,1.375,3.0,1.5,2.0,0.75,0.5,1.0,1.0,0.3476655353271566,-0.4123963385133601,,,,,,,,,,,,,0.008601561939984721,-0.35297556195582325,,,,,,,,,,,,,,,,,,
7,240626_095744,TrueCHOICE,9.0,8,1.0,426.0,,,,,,,,,,,8.0,8.0,,,B,,,,,,True,cue1.png,Hard,cue2.png,Easy,Right,Easy,Easy,0.0168546000495553,,,,,,,,,,,,,28,21,Male,2.0,1.0,1.0,0.0,2.1666666666666665,1.0,2.2222222222222223,1.5555555555555556,1.375,3.0,1.5,2.0,0.75,0.5,0.9125,0.9166666666666666,0.3759593999780276,0.10713556446425845,,,,,,,,,,,,,,,,,,,,,,,,,,,,,,,,
8,240626_095806,TrueCHOICE,9.0,9,1.0,426.0,,,,,,,,,,,9.0,9.0,,,B,,,,,,True,cue2.png,Easy,cue1.png,Hard,Left,Easy,Easy,0.0164683000184595,,,,,,,,,,,,,28,21,Male,2.0,1.0,1.0,0.0,2.1666666666666665,1.0,2.2222222222222223,1.5555555555555556,1.375,3.0,1.5,2.0,0.75,0.5,1.0,1.0,0.2893248117830166,-1.4836486222852476,,,,,,,,,,,,,,,0.012199373525489434,-0.49695576174495787,,,,,,,,,,,,,,,,
9,240626_095829,TrueCHOICE,9.0,10,1.0,426.0,,,,,,,,,,,10.0,10.0,,,B,,,,,,True,cue1.png,Hard,cue2.png,Easy,Right,Easy,Easy,0.0165298001375049,,,,,,,,,,,,,28,21,Male,2.0,1.0,1.0,0.0,2.1666666666666665,1.0,2.2222222222222223,1.5555555555555556,1.375,3.0,1.5,2.0,0.75,0.5,0.9125,0.9166666666666666,0.3393534235382343,-0.5650233235063268,,,,,,,,,,,,,0.023854861087507118,2.4020105010901296,,,3863085.5917516514,-0.4472314406836069,,,,,,,,,,,,,,
0,240626_100022,FalseCHOICE,9.0,1,2.0,426.0,,,,,,,,,,,1.0,1.0,,,B,,,,,,False,cue2.png,Easy,cue1.png,Hard,Left,Easy,Mid,0.0161543001886457,,,,,,,,,,,,,28,21,Male,2.0,1.0,1.0,0.0,2.1666666666666665,1.0,2.2222222222222223,1.5555555555555556,1.375,3.0,1.5,2.0,0.75,0.5,0.7916666666666667,0.8333333333333334,0.4463497000362943,1.6536426680748935,,,,,,,,,,,,,,,,,,,0.013953021305477443,0.3549575113167608,,,1.304588472751933e+46,-0.18462251971483626,,,,,,,,
1,240626_100046,FalseCHOICE,9.0,2,2.0,426.0,,,,,,,,,,,2.0,2.0,,,B,,,,,,False,cue1.png,Hard,cue2.png,Easy,Left,Hard,Mid,0.0169643999543041,,,,,,,,,,,,,28,21,Male,2.0,1.0,1.0,0.0,2.1666666666666665,1.0,2.2222222222222223,1.5555555555555556,1.375,3.0,1.5,2.0,0.75,0.5,1.0,1.0,0.40433874704382,0.18767737790940467,,,,,,,,,,,,,,,,,,,0.006533533978772974,-0.5621695436325289,,,3.685168856810228e+44,-0.187028235369669,,,,,,,,
2,240626_100110,FalseCHOICE,9.0,3,2.0,426.0,,,,,,,,,,,3.0,3.0,,,B,,,,,,False,cue1.png,Hard,cue2.png,Easy,Left,Hard,Mid,0.0163761000148952,,,,,,,,,,,,,28,21,Male,2.0,1.0,1.0,0.0,2.1666666666666665,1.0,2.2222222222222223,1.5555555555555556,1.375,3.0,1.5,2.0,0.75,0.5,0.9125,0.9166666666666666,0.4294180470546159,1.062815424029419,,,,,,,,,,,,,,,,,,,0.01813074294465167,0.8713680629654319,,,-2.3686912251759615e+45,-0.18754766057567207,,,,,,,,
3,240626_100134,FalseCHOICE,9.0,4,2.0,426.0,,,,,,,,,,,4.0,4.0,,,B,,,,,,False,cue1.png,Hard,cue2.png,Easy,Left,Hard,Mid,0.0164240999147295,,,,,,,,,,,,,28,21,Male,2.0,1.0,1.0,0.0,2.1666666666666665,1.0,2.2222222222222223,1.5555555555555556,1.375,3.0,1.5,2.0,0.75,0.5,0.9125,0.9166666666666666,0.3949387235676541,-0.14033489415851283,,,,,,,,,,,,,,,,,,,0.008296854396324663,-0.34420450234719757,0.015564245031916186,-0.2315692592983947,-2.3077483953732577e+45,-0.18753609578386865,,,,,,,,
4,240626_100158,FalseCHOICE,9.0,5,2.0,426.0,,,,,,,,,,,5.0,5.0,,,B,,,,,,False,cue2.png,Easy,cue1.png,Hard,Left,Easy,Mid,0.016200799960643,,,,,,,,,,,,,28,21,Male,2.0,1.0,1.0,0.0,2.1666666666666665,1.0,2.2222222222222223,1.5555555555555556,1.375,3.0,1.5,2.0,0.75,0.5,0.9125,0.9166666666666666,0.4258775058996809,0.9392688231592379,,,,,,,,,,,,,,,,,,,0.019092980213457348,0.9903107598989379,0.015803848996795034,-0.2081925486275834,3.304131899569486e+49,6.082974560880901,,,,,,,,
5,240626_100222,FalseCHOICE,9.0,6,2.0,426.0,,,,,,,,,,,6.0,6.0,,,B,,,,,,False,cue1.png,Hard,cue2.png,Easy,Right,Easy,Mid,0.0170648000203073,,,,,,,,,,,,,28,21,Male,2.0,1.0,1.0,0.0,2.1666666666666665,1.0,2.2222222222222223,1.5555555555555556,1.375,3.0,1.5,2.0,0.75,0.5,0.9125,0.9166666666666666,0.4102113940890002,0.3926024299825937,,,,,,,,,,,,,,,,,,,0.008911206092723554,-0.26826413919117903,0.012610399553018063,-0.5197581094344931,-3.204773939594227e+44,-0.18715898209448603,,,,,,,,
6,240626_100247,FalseCHOICE,9.0,7,2.0,426.0,,,,,,,,,,,7.0,7.0,,,B,,,,,,False,cue1.png,Hard,cue2.png,Easy,Right,Easy,Mid,0.0166054000146687,,,,,,,,,,,,,28,21,Male,2.0,1.0,1.0,0.0,2.1666666666666665,1.0,2.2222222222222223,1.5555555555555556,1.375,3.0,1.5,2.0,0.75,0.5,0.7916666666666667,0.8333333333333334,0.4401103470693616,1.4359214732176155,,,,,,,,,,,,,,,,,,,0.009920350871867491,-0.14352317818399604,0.013428836822161398,-0.43990813177387056,,,,,,,,,,
7,240626_100311,FalseCHOICE,9.0,8,2.0,426.0,,,,,,,,,,,8.0,8.0,,,B,,,,,,False,cue2.png,Easy,cue1.png,Hard,Right,Hard,Mid,0.0167326000519096,,,,,,,,,,,,,28,21,Male,2.0,1.0,1.0,0.0,2.1666666666666665,1.0,2.2222222222222223,1.5555555555555556,1.375,3.0,1.5,2.0,0.75,0.5,0.9125,0.9166666666666666,0.4117642000235398,0.4467873374948279,,,,,,,,,,,,,,,,,,,0.005712037084531898,-0.6637152426936465,0.016176278032320777,-0.17185689861738135,,,,,,,,,,
8,240626_100336,FalseCHOICE,9.0,9,2.0,426.0,,,,,,,,,,,9.0,9.0,,,B,,,,,,False,cue2.png,Easy,cue1.png,Hard,Left,Easy,Mid,0.016366200055927,,,,,,,,,,,,,28,21,Male,2.0,1.0,1.0,0.0,2.1666666666666665,1.0,2.2222222222222223,1.5555555555555556,1.375,3.0,1.5,2.0,0.75,0.5,0.7916666666666667,0.8333333333333334,0.4152504823526696,0.5684405855688978,,,,,,,,,,,,,,,,,,,0.005457059290710211,-0.695233193035509,0.012302277061117717,-0.5498197586562237,5.403432662764897e+48,0.8382820784093202,,,,,,,,
9,240626_100400,FalseCHOICE,9.0,10,2.0,426.0,,,,,,,,,,,10.0,10.0,,,B,,,,,,False,cue1.png,Hard,cue2.png,Easy,Right,Easy,Mid,0.016867000143975,,,,,,,,,,,,,28,21,Male,2.0,1.0,1.0,0.0,2.1666666666666665,1.0,2.2222222222222223,1.5555555555555556,1.375,3.0,1.5,2.0,0.75,0.5,0.9125,0.9166666666666666,0.4589819353046444,2.094442438647173,,,,,,,,,,,,,,,,,,,0.01801084777225415,0.8565477524073415,0.0171766870118832,-0.07425304102037887,,,,,,,,,,
10,240626_100424,FalseCHOICE,9.0,11,2.0,426.0,,,,,,,,,,,11.0,11.0,,,B,,,,,,False,cue2.png,Easy,cue1.png,Hard,Right,Hard,Mid,0.0167290000244975,,,,,,,,,,,,,28,21,Male,2.0,1.0,1.0,0.0,2.1666666666666665,1.0,2.2222222222222223,1.5555555555555556,1.375,3.0,1.5,2.0,0.75,0.5,1.0,1.0,0.3796155058833606,-0.6750360532312003,,,,,,,,,,,,,,,,,,,0.007447594173367755,-0.4491820422862008,0.07721052493282751,5.782885676387306,,,,,,,,,,
11,240626_100449,FalseCHOICE,9.0,12,2.0,426.0,,,,,,,,,,,12.0,12.0,,,B,,,,,,False,cue1.png,Hard,cue2.png,Easy,Left,Hard,Mid,0.0165591000113636,,,,,,,,,,,,,28,21,Male,2.0,1.0,1.0,0.0,2.1666666666666665,1.0,2.2222222222222223,1.5555555555555556,1.375,3.0,1.5,2.0,0.75,0.5,0.63125,0.75,0.4317790470496915,1.145202130264856,,,,,,,,,,,,,,,,,,,0.006971758906562449,-0.5080003106745636,0.011758175157576309,-0.6029044927963972,-7.863457151653253e+43,-0.18711308888769276,,,,,,,,
12,240626_100514,FalseCHOICE,9.0,13,2.0,426.0,,,,,,,,,,,13.0,13.0,,,B,,,,,,False,cue2.png,Easy,cue1.png,Hard,Left,Easy,Mid,0.01612180005759,,,,,,,,,,,,,28,21,Male,2.0,1.0,1.0,0.0,2.1666666666666665,1.0,2.2222222222222223,1.5555555555555556,1.375,3.0,1.5,2.0,0.75,0.5,0.7916666666666667,0.8333333333333334,0.4176399470580851,0.6518205631866903,,,,,,,,,,,,,,,,,,,0.005064365352463754,-0.7437743144394297,0.013106569877393504,-0.4713497697718669,,,,,,,,,,
13,240626_100538,FalseCHOICE,9.0,14,2.0,426.0,,,,,,,,,,,14.0,14.0,,,B,,,,,,False,cue1.png,Hard,cue2.png,Easy,Right,Easy,Mid,0.0166869999375194,,,,,,,,,,,,,28,21,Male,2.0,1.0,1.0,0.0,2.1666666666666665,1.0,2.2222222222222223,1.5555555555555556,1.375,3.0,1.5,2.0,0.75,0.5,0.9125,0.9166666666666666,0.4018340353059637,0.10027587406289093,,,,,,,,,,,,,,,,,,,0.012803990953647124,0.21292521498429187,0.016275525440139077,-0.16217392889453255,-5.282349611785711e+44,-0.1871984071264094,,,,,,,,
14,240626_100602,FalseCHOICE,9.0,15,2.0,426.0,,,,,,,,,,,15.0,15.0,,,B,,,,,,False,cue2.png,Easy,cue1.png,Hard,Left,Easy,Mid,0.0162865999154746,,,,,,,,,,,,,28,21,Male,2.0,1.0,1.0,0.0,2.1666666666666665,1.0,2.2222222222222223,1.5555555555555556,1.375,3.0,1.5,2.0,0.75,0.5,0.63125,0.75,0.3812184117679648,-0.6191029162073238,,,,,,,,,,,,,,,,,,,0.006529721545248824,-0.5626408007121939,0.012520023970623661,-0.5285755087726395,-2.6399429390592846e+44,-0.18714826360152068,,,,,,,,
15,240626_100626,FalseCHOICE,9.0,16,2.0,426.0,,,,,,,,,,,16.0,16.0,,,B,,,,,,False,cue2.png,Easy,cue1.png,Hard,Left,Easy,Mid,0.0160948000848293,,,,,,,,,,,,,28,21,Male,2.0,1.0,1.0,0.0,2.1666666666666665,1.0,2.2222222222222223,1.5555555555555556,1.375,3.0,1.5,2.0,0.75,0.5,0.9125,0.9166666666666666,0.378359641181305,-0.7188592453089276,,,,,,,,,,,,,,,,,,,0.005568051674181303,-0.6815133612880696,0.01269451718652338,-0.5115512603459923,,,,,,,,,,
16,240626_100650,FalseCHOICE,9.0,17,2.0,426.0,,,,,,,,,,,17.0,17.0,,,B,,,,,,False,cue1.png,Hard,cue2.png,Easy,Right,Easy,Mid,0.0166803000029176,,,,,,,,,,,,,28,21,Male,2.0,1.0,1.0,0.0,2.1666666666666665,1.0,2.2222222222222223,1.5555555555555556,1.375,3.0,1.5,2.0,0.75,0.5,0.9125,0.9166666666666666,0.3974055882187231,-0.05425405817625751,,,,,,,,,,,,,,,,,,,0.005573241589584931,-0.6808718328886028,0.014710306441021264,-0.31488288634995226,,,,,,,,,,
17,240626_100715,FalseCHOICE,9.0,18,2.0,426.0,,,,,,,,,,,18.0,18.0,,,B,,,,,,False,cue1.png,Hard,cue2.png,Easy,Right,Easy,Mid,0.0156125000212341,,,,,,,,,,,,,28,21,Male,2.0,1.0,1.0,0.0,2.1666666666666665,1.0,2.2222222222222223,1.5555555555555556,1.375,3.0,1.5,2.0,0.75,0.5,0.63125,0.75,0.4296116000041365,1.0695694223464103,,,,,,,,,,,,,,,,,,,0.00551387217299127,-0.6882105202934085,0.013645933730120862,-0.41872729861252345,,,,,,,,,,
18,240626_100739,FalseCHOICE,9.0,19,2.0,426.0,,,,,,,,,,,19.0,19.0,,,B,,,,,,False,cue2.png,Easy,cue1.png,Hard,Right,Hard,Mid,0.0168964997865259,,,,,,,,,,,,,28,21,Male,2.0,1.0,1.0,0.0,2.1666666666666665,1.0,2.2222222222222223,1.5555555555555556,1.375,3.0,1.5,2.0,0.75,0.5,0.7916666666666667,0.8333333333333334,0.3742621940944124,-0.8618389870146261,,,,,,,,,,,,,,,,,,,0.0056164141126116545,-0.6755352527241325,0.013556616032085637,-0.4274414865676689,,,,,,,,,,
19,240626_100805,FalseCHOICE,9.0,20,2.0,426.0,,,,,,,,,,,20.0,20.0,,,B,,,,,,False,cue2.png,Easy,cue1.png,Hard,Left,Easy,Mid,0.0162704000249505,,,,,,,,,,,,,28,21,Male,2.0,1.0,1.0,0.0,2.1666666666666665,1.0,2.2222222222222223,1.5555555555555556,1.375,3.0,1.5,2.0,0.75,0.5,0.7916666666666667,0.8333333333333334,0.4001605352934669,0.0418793665651615,,,,,,,,,,,,,,,,,,,0.017479967391064426,0.7909253260735872,0.015676313224242035,-0.2206354431208249,2.466173975717574e+44,-0.18705136757743634,,,,,,,,
20,240626_100828,FalseCHOICE,9.0,21,2.0,426.0,,,,,,,,,,,21.0,21.0,,,B,,,,,,False,cue2.png,Easy,cue1.png,Hard,Right,Hard,Mid,0.0168425000738352,,,,,,,,,,,,,28,21,Male,2.0,1.0,1.0,0.0,2.1666666666666665,1.0,2.2222222222222223,1.5555555555555556,1.375,3.0,1.5,2.0,0.75,0.5,0.9125,0.9166666666666666,0.3682145764092531,-1.0728696107717848,,,,,,,,,,,,,,,,,,,,,0.015003744605937973,-0.286253898158959,8.230902793735785e+43,-0.18708254748970055,,,,,,,,
21,240626_100853,FalseCHOICE,9.0,22,2.0,426.0,,,,,,,,,,,22.0,22.0,,,B,,,,,,False,cue1.png,Hard,cue2.png,Easy,Left,Hard,Mid,0.0164292999543249,,,,,,,,,,,,,28,21,Male,2.0,1.0,1.0,0.0,2.1666666666666665,1.0,2.2222222222222223,1.5555555555555556,1.375,3.0,1.5,2.0,0.75,0.5,0.7916666666666667,0.8333333333333334,0.4207791588269174,0.7613628411828964,,,,,,,,,,,,,,,,,,,0.015319594112754291,0.5238803544895773,0.01705203730677681,-0.08641435935643951,-9.390968057528692e+43,-0.18711598756267406,,,,,,,,
22,240626_100918,FalseCHOICE,9.0,23,2.0,426.0,,,,,,,,,,,23.0,23.0,,,B,,,,,,False,cue2.png,Easy,cue1.png,Hard,Right,Hard,Mid,0.0142645000014454,,,,,,,,,,,,,28,21,Male,2.0,1.0,1.0,0.0,2.1666666666666665,1.0,2.2222222222222223,1.5555555555555556,1.375,3.0,1.5,2.0,0.75,0.5,0.9125,0.9166666666666666,0.4702906117719762,2.4890568427000743,,,,,,,,,,,,,,,,,,,0.0067257471856854234,-0.5384099596322321,0.01644154186127201,-0.14597671009896532,-2.22602831604132e+44,-0.18714040896717715,,,,,,,,
23,240626_100942,FalseCHOICE,9.0,24,2.0,426.0,,,,,,,,,,,24.0,24.0,,,B,,,,,,False,cue1.png,Hard,cue2.png,Easy,Left,Hard,Mid,0.0151829000096768,,,,,,,,,,,,,28,21,Male,2.0,1.0,1.0,0.0,2.1666666666666665,1.0,2.2222222222222223,1.5555555555555556,1.375,3.0,1.5,2.0,0.75,0.5,0.1458333333333333,0.5833333333333333,0.3990511470474303,0.003167446311921914,,,,,,,,,,,,,,,,,,,0.0052733229500227154,-0.7179449467729104,0.017332382612395163,-0.059062762313068146,-2.831895656686686e+44,-0.18715190618461477,,,,,,,,
24,240626_101006,FalseCHOICE,9.0,25,2.0,426.0,,,,,,,,,,,25.0,25.0,,,B,,,,,,False,cue1.png,Hard,cue2.png,Easy,Right,Easy,Mid,0.0180485001765191,,,,,,,,,,,,,28,21,Male,2.0,1.0,1.0,0.0,2.1666666666666665,1.0,2.2222222222222223,1.5555555555555556,1.375,3.0,1.5,2.0,0.75,0.5,0.7916666666666667,0.8333333333333334,0.3854105294243816,-0.47281966055973557,,,,,,,,,,,,,,,,,,,,,0.028360672228134303,1.016900799773232,-2.510382998170292e+44,-0.1871458050124671,,,,,,,,
25,240626_101030,FalseCHOICE,9.0,26,2.0,426.0,,,,,,,,,,,26.0,26.0,,,B,,,,,,False,cue2.png,Easy,cue1.png,Hard,Right,Hard,Mid,0.0167213999666273,,,,,,,,,,,,,28,21,Male,2.0,1.0,1.0,0.0,2.1666666666666665,1.0,2.2222222222222223,1.5555555555555556,1.375,3.0,1.5,2.0,0.75,0.5,0.9125,0.9166666666666666,0.3853537647108383,-0.47480045589602615,,,,,,,,,,,,,,,,,,,0.00713413317146964,-0.4879291352932273,0.01492532790748889,-0.29390454147085643,-1.673587606202841e+44,-0.18712992559806924,,,,,,,,
26,240626_101054,FalseCHOICE,9.0,27,2.0,426.0,,,,,,,,,,,27.0,27.0,,,B,,,,,,False,cue2.png,Easy,cue1.png,Hard,Left,Easy,Mid,0.0151779998559504,,,,,,,,,,,,,28,21,Male,2.0,1.0,1.0,0.0,2.1666666666666665,1.0,2.2222222222222223,1.5555555555555556,1.375,3.0,1.5,2.0,0.75,0.5,0.7916666666666667,0.8333333333333334,0.4164586294004145,0.6105986779532151,,,,,,,,,,,,,,,,,,,0.008572954975011845,-0.3100755525355612,0.015163401967979362,-0.2706770943243745,3.641305106442549e+44,-0.18702906774837927,,,,,,,,
27,240626_101118,FalseCHOICE,9.0,28,2.0,426.0,,,,,,,,,,,28.0,28.0,,,B,,,,,,False,cue1.png,Hard,cue2.png,Easy,Left,Hard,Mid,0.0165904001332819,,,,,,,,,,,,,28,21,Male,2.0,1.0,1.0,0.0,2.1666666666666665,1.0,2.2222222222222223,1.5555555555555556,1.375,3.0,1.5,2.0,0.75,0.5,0.7041666666666667,0.7745098039215687,0.3965767999907257,-0.08317448698346953,,,,,,,,,,,,,,,,,,,0.010804126144778686,-0.03427921325871783,0.013633184217444017,-0.41997119150549433,8.24078449347727e+43,-0.18708252873773243,,,,,,,,
28,240626_101143,FalseCHOICE,9.0,29,2.0,426.0,,,,,,,,,,,29.0,29.0,,,B,,,,,,False,cue2.png,Easy,cue1.png,Hard,Right,Hard,Mid,0.0137203000485897,,,,,,,,,,,,,28,21,Male,2.0,1.0,1.0,0.0,2.1666666666666665,1.0,2.2222222222222223,1.5555555555555556,1.375,3.0,1.5,2.0,0.75,0.5,0.9125,0.9166666666666666,0.4091095940949505,0.35415530053350147,,,,,,,,,,,,,,,,,,,0.0067144639190540156,-0.5398046906480295,0.01412051402875487,-0.3724253672699266,1.9146538391490273e+44,-0.18706183347732228,,,,,,,,
29,240626_101209,FalseCHOICE,9.0,30,2.0,426.0,,,,,,,,,,,30.0,30.0,,,B,,,,,,False,cue2.png,Easy,cue1.png,Hard,Left,Easy,Mid,0.0161818000487983,,,,,,,,,,,,,28,21,Male,2.0,1.0,1.0,0.0,2.1666666666666665,1.0,2.2222222222222223,1.5555555555555556,1.375,3.0,1.5,2.0,0.75,0.5,0.7916666666666667,0.7745098039215687,0.462217212509131,2.2073369042093005,,,,,,,,,,,,,,,,,,,0.018069577526585896,0.8638073707955697,0.0143056050751833,-0.35436715257259105,2.3992941179421717e+44,-0.18705263672039132,,,,,,,,
30,240626_101233,FalseCHOICE,9.0,31,2.0,426.0,,,,,,,,,,,31.0,31.0,,,B,,,,,,False,cue1.png,Hard,cue2.png,Easy,Right,Easy,Mid,0.0166442999616265,,,,,,,,,,,,,28,21,Male,2.0,1.0,1.0,0.0,2.1666666666666665,1.0,2.2222222222222223,1.5555555555555556,1.375,3.0,1.5,2.0,0.75,0.5,0.9125,0.9166666666666666,0.3858821117867003,-0.4563638716435141,,,,,,,,,,,,,,,,,,,,,,,2.2924626730179637e+44,-0.18705466400304724,,,,,,,,
31,240626_101257,FalseCHOICE,9.0,32,2.0,426.0,,,,,,,,,,,32.0,32.0,,,B,,,,,,False,cue2.png,Easy,cue1.png,Hard,Left,Easy,Mid,0.0161323999054729,,,,,,,,,,,,,28,21,Male,2.0,1.0,1.0,0.0,2.1666666666666665,1.0,2.2222222222222223,1.5555555555555556,1.375,3.0,1.5,2.0,0.75,0.5,0.63125,0.75,0.4245563117677675,0.8931659713790767,,,,,,,,,,,,,,,,,,,0.0083045784827111,-0.34324972362896056,0.01276356172219983,-0.5048150023098409,1.5955740349975318e+44,-0.18706788848250605,,,,,,,,
32,240626_101321,FalseCHOICE,9.0,33,2.0,426.0,,,,,,,,,,,33.0,33.0,,,B,,,,,,False,cue1.png,Hard,cue2.png,Easy,Left,Hard,Mid,0.015883200103417,,,,,,,,,,,,,28,21,Male,2.0,1.0,1.0,0.0,2.1666666666666665,1.0,2.2222222222222223,1.5555555555555556,1.375,3.0,1.5,2.0,0.75,0.5,0.7916666666666667,0.8333333333333334,0.3825399647055961,-0.5729875439606912,,,,,,,,,,,,,,,,,,,0.006380795061072691,-0.5810496882568642,0.018385776398714814,0.04371050263551502,5.516258930602286e+43,-0.18708769892280583,,,,,,,,
33,240626_101346,FalseCHOICE,9.0,34,2.0,426.0,,,,,,,,,,,34.0,34.0,,,B,,,,,,False,cue1.png,Hard,cue2.png,Easy,Right,Easy,Mid,0.0171062001027166,,,,,,,,,,,,,28,21,Male,2.0,1.0,1.0,0.0,2.1666666666666665,1.0,2.2222222222222223,1.5555555555555556,1.375,3.0,1.5,2.0,0.75,0.5,0.9125,0.9166666666666666,0.4100319823140607,0.38634188562513927,,,,,,,,,,,,,,,,,,,,,0.017886218045566116,-0.005028386517045068,-6.249454915314927e+43,-0.187110026082783,,,,,,,,
34,240626_101409,FalseCHOICE,9.0,35,2.0,426.0,,,,,,,,,,,35.0,35.0,,,B,,,,,,False,cue1.png,Hard,cue2.png,Easy,Right,Easy,Mid,0.0156402001157403,,,,,,,,,,,,,28,21,Male,2.0,1.0,1.0,0.0,2.1666666666666665,1.0,2.2222222222222223,1.5555555555555556,1.375,3.0,1.5,2.0,0.75,0.5,0.63125,0.75,0.365136105882223,-1.1802923331325939,,,,,,,,,,,,,,,,,,,,,0.017131174600290067,-0.07869341193945563,-1.5160568064073097e+44,-0.1871269362211267,,,,,,,,
35,240626_101433,FalseCHOICE,9.0,36,2.0,426.0,,,,,,,,,,,36.0,36.0,,,B,,,,,,False,cue2.png,Easy,cue1.png,Hard,Right,Hard,Mid,0.0170318998862057,,,,,,,,,,,,,28,21,Male,2.0,1.0,1.0,0.0,2.1666666666666665,1.0,2.2222222222222223,1.5555555555555556,1.375,3.0,1.5,2.0,0.75,0.5,0.7916666666666667,0.8333333333333334,0.3933857646907734,-0.1945251385685662,,,,,,,,,,,,,,,,,,,0.03626849147285466,3.113385490666903,0.031145799566671666,1.2886288406980762,-2.1876101301966055e+44,-0.18713967992600494,,,,,,,,
36,240626_101457,FalseCHOICE,9.0,37,2.0,426.0,,,,,,,,,,,37.0,37.0,,,B,,,,,,False,cue1.png,Hard,cue2.png,Easy,Right,Easy,Mid,0.0166988000273704,,,,,,,,,,,,,28,21,Male,2.0,1.0,1.0,0.0,2.1666666666666665,1.0,2.2222222222222223,1.5555555555555556,1.375,3.0,1.5,2.0,0.75,0.5,0.0666666666666666,0.6666666666666667,0.36697136471048,-1.1162512783825038,,,,,,,,,,,,,,,,,,,,,0.016464247048276513,-0.14376150223460749,-2.113631090508078e+44,-0.18713827606570738,,,,,,,,
37,240626_101520,FalseCHOICE,9.0,38,2.0,426.0,,,,,,,,,,,38.0,38.0,,,B,,,,,,False,cue2.png,Easy,cue1.png,Hard,Left,Easy,Mid,0.0165593000128865,,,,,,,,,,,,,28,21,Male,2.0,1.0,1.0,0.0,2.1666666666666665,1.0,2.2222222222222223,1.5555555555555556,1.375,3.0,1.5,2.0,0.75,0.5,0.63125,0.75,0.3690974823719657,-1.0420607525188263,,,,,,,,,,,,,,,,,,,0.0050342792883947855,-0.7474932699574579,0.018698459173148194,0.07421707106134051,-1.2838969642615553e+44,-0.18712253064913698,,,,,,,,
38,240626_101544,FalseCHOICE,9.0,39,2.0,426.0,,,,,,,,,,,39.0,39.0,,,B,,,,,,False,cue2.png,Easy,cue1.png,Hard,Left,Easy,Mid,0.0162060000002384,,,,,,,,,,,,,28,21,Male,2.0,1.0,1.0,0.0,2.1666666666666665,1.0,2.2222222222222223,1.5555555555555556,1.375,3.0,1.5,2.0,0.75,0.5,0.7916666666666667,0.8333333333333334,0.3838545411879964,-0.5271156139711025,,,,,,,,,,,,,,,,,,,0.007397166652021347,-0.4554154169257618,0.015290915472524178,-0.258236372386102,-6.070288596726357e+42,-0.1870993187554713,,,,,,,,
39,240626_101608,FalseCHOICE,9.0,40,2.0,426.0,,,,,,,,,,,40.0,40.0,,,B,,,,,,False,cue1.png,Hard,cue2.png,Easy,Right,Easy,Mid,0.0168606999795883,,,,,,,,,,,,,28,21,Male,2.0,1.0,1.0,0.0,2.1666666666666665,1.0,2.2222222222222223,1.5555555555555556,1.375,3.0,1.5,2.0,0.75,0.5,0.63125,0.75,0.3785747353343622,-0.7113535702399548,,,,,,,,,,,,,,,,,,,0.029805329835972574,2.3144703990054762,0.0312040690990527,1.2943138467875357,1.1387958172507663e+44,-0.18707655651614621,,,,,,,,
40,240626_101632,FalseCHOICE,9.0,41,2.0,426.0,,,,,,,,,,,41.0,41.0,,,B,,,,,,False,cue1.png,Hard,cue2.png,Easy,Right,Easy,Mid,0.0156485000625252,,,,,,,,,,,,,28,21,Male,2.0,1.0,1.0,0.0,2.1666666666666665,1.0,2.2222222222222223,1.5555555555555556,1.375,3.0,1.5,2.0,0.75,0.5,0.7041666666666667,0.7745098039215687,0.3413515625434229,-2.010250058284978,,,,,,,,,,,,,,,,,,,,,0.01356110506391168,-0.427003518864411,2.00247616349475e+44,-0.18706016692048524,,,,,,,,
41,240626_101655,FalseCHOICE,9.0,42,2.0,426.0,,,,,,,,,,,42.0,42.0,,,B,,,,,,False,cue2.png,Easy,cue1.png,Hard,Right,Hard,Mid,0.0171605001669377,,,,,,,,,,,,,28,21,Male,2.0,1.0,1.0,0.0,2.1666666666666665,1.0,2.2222222222222223,1.5555555555555556,1.375,3.0,1.5,2.0,0.75,0.5,0.7916666666666667,0.8333333333333334,0.3581946764470023,-1.4225123707972818,,,,,,,,,,,,,,,,,,,0.0057618175318136676,-0.6575618532478198,0.020477175545698636,0.2477556768501518,,,,,,,,,,
42,240626_101719,FalseCHOICE,9.0,43,2.0,426.0,,,,,,,,,,,43.0,43.0,,,B,,,,,,False,cue1.png,Hard,cue2.png,Easy,Right,Easy,Mid,0.0156807000748813,,,,,,,,,,,,,28,21,Male,2.0,1.0,1.0,0.0,2.1666666666666665,1.0,2.2222222222222223,1.5555555555555556,1.375,3.0,1.5,2.0,0.75,0.5,0.7916666666666667,0.8333333333333334,0.3944286352900021,-0.1581343406526699,,,,,,,,,,,,,,,,,,,,,0.013674974686836823,-0.4158939479912354,1.4591682775337747e+44,-0.18707047698092488,,,,,,,,
43,240626_101743,FalseCHOICE,9.0,44,2.0,426.0,,,,,,,,,,,44.0,44.0,,,B,,,,,,False,cue2.png,Easy,cue1.png,Hard,Right,Hard,Mid,0.0163738001137971,,,,,,,,,,,,,28,21,Male,2.0,1.0,1.0,0.0,2.1666666666666665,1.0,2.2222222222222223,1.5555555555555556,1.375,3.0,1.5,2.0,0.75,0.5,0.7916666666666667,0.8333333333333334,0.3885455058668466,-0.3634251735800312,,,,,,,,,,,,,,,,,,,,,,,5.835643824087181e+42,-0.18709705943095165,,,,,,,,
44,240626_101807,FalseCHOICE,9.0,45,2.0,426.0,,,,,,,,,,,45.0,45.0,,,B,,,,,,False,cue1.png,Hard,cue2.png,Easy,Right,Easy,Mid,0.0164526000153273,,,,,,,,,,,,,28,21,Male,2.0,1.0,1.0,0.0,2.1666666666666665,1.0,2.2222222222222223,1.5555555555555556,1.375,3.0,1.5,2.0,0.75,0.5,0.9125,0.9166666666666666,0.3756465059020282,-0.8135336543292546,,,,,,,,,,,,,,,,,,,0.00544536412339368,-0.6966788393296329,0.01615355714562415,-0.1740736382058096,-1.4147123594076197e+44,-0.18712501306226817,,,,,,,,
45,240626_101831,FalseCHOICE,9.0,46,2.0,426.0,,,,,,,,,,,46.0,46.0,,,B,,,,,,False,cue1.png,Hard,cue2.png,Easy,Right,Easy,Mid,0.0176097999792546,,,,,,,,,,,,,28,21,Male,2.0,1.0,1.0,0.0,2.1666666666666665,1.0,2.2222222222222223,1.5555555555555556,1.375,3.0,1.5,2.0,0.75,0.5,0.0374999999999999,0.6911764705882353,0.3634110375423915,-1.2404883089251304,,,,,,,,,,,,,,,,,,,,,0.0186717327880149,0.07160953919994746,-2.3596742743617656e+44,-0.1871429450943776,,,,,,,,
46,240626_101856,FalseCHOICE,9.0,47,2.0,426.0,,,,,,,,,,,47.0,47.0,,,B,,,,,,False,cue2.png,Easy,cue1.png,Hard,Left,Easy,Mid,0.0161965999286621,,,,,,,,,,,,,28,21,Male,2.0,1.0,1.0,0.0,2.1666666666666665,1.0,2.2222222222222223,1.5555555555555556,1.375,3.0,1.5,2.0,0.75,0.5,0.9125,0.9166666666666666,0.4074126000324374,0.29493897202729524,,,,,,,,,,,,,,,,,,,0.010226692836070849,-0.10565607348176342,0.021321555513165634,0.3301367267868073,-1.4937777701853937e+44,-0.18712651344388395,,,,,,,,
47,240626_101919,FalseCHOICE,9.0,48,2.0,426.0,,,,,,,,,,,48.0,48.0,,,B,,,,,,False,cue2.png,Easy,cue1.png,Hard,Left,Easy,Mid,0.0161036001518368,,,,,,,,,,,,,28,21,Male,2.0,1.0,1.0,0.0,2.1666666666666665,1.0,2.2222222222222223,1.5555555555555556,1.375,3.0,1.5,2.0,0.75,0.5,0.9125,0.9166666666666666,0.3976836000322638,-0.0445528817002191,,,,,,,,,,,,,,,,,,,0.012793617733357087,0.21164297531515724,,,1.1223284550951264e+44,-0.18707686900838771,,,,,,,,
48,240626_101943,FalseCHOICE,9.0,49,2.0,426.0,,,,,,,,,,,49.0,49.0,,,B,,,,,,False,cue1.png,Hard,cue2.png,Easy,Right,Easy,Mid,0.0166426999494433,,,,,,,,,,,,,28,21,Male,2.0,1.0,1.0,0.0,2.1666666666666665,1.0,2.2222222222222223,1.5555555555555556,1.375,3.0,1.5,2.0,0.75,0.5,1.0,1.0,0.3394368411425282,-2.07706394642866,,,,,,,,,,,,,,,,,,,0.005608083365294487,-0.6765650211456002,,,,,,,,,,,,
49,240626_102007,FalseCHOICE,9.0,50,2.0,426.0,,,,,,,,,,,50.0,50.0,,,B,,,,,,False,cue2.png,Easy,cue1.png,Hard,Right,Hard,Mid,0.0158879000227898,,,,,,,,,,,,,28,21,Male,2.0,1.0,1.0,0.0,2.1666666666666665,1.0,2.2222222222222223,1.5555555555555556,1.375,3.0,1.5,2.0,0.75,0.5,0.0374999999999999,0.6911764705882353,0.3792878500098595,-0.686469551008734,,,,,,,,,,,,,,,,,,,0.039029945536949454,3.4547304005861603,,,-2.0332909422172764e+44,-0.187136751494086,,,,,,,,
0,240626_093025,OFFLINERATING,9.0,1,1.0,,,,,,,,,,,,,,,,,T0,cue2.png,Easy,50.0,1.780562800122425,,,,,,,,,,,,,,,,,,,,,,28,21,Male,2.0,1.0,1.0,0.0,2.1666666666666665,1.0,2.2222222222222223,1.5555555555555556,1.375,3.0,1.5,2.0,0.75,0.5,,,,,,,,,,,,,,,,,,,,,,,,,,,,,0.2702517988695231,,,,,352941620.26216924,1.731910057511937,
1,240626_093034,OFFLINERATING,9.0,2,3.0,,,,,,,,,,,,,,,,,T0,cue1.png,Hard,42.0,2.252420899923891,,,,,,,,,,,,,,,,,,,,,,28,21,Male,2.0,1.0,1.0,0.0,2.1666666666666665,1.0,2.2222222222222223,1.5555555555555556,1.375,3.0,1.5,2.0,0.75,0.5,,,,,,,,,,,,,,,,,,,,,,,,,,,,,-0.10575070390546557,0.009028379563618549,1.4032425613779318,,,4789950.347478424,-0.5564871972909154,
2,240626_095354,OFFLINERATING,9.0,3,1.0,,,,,,,,,,,,,,,,,T1,cue2.png,Easy,55.0,2.3226288000587374,,,,,,,,,,,,,,,,,,,,,,28,21,Male,2.0,1.0,1.0,0.0,2.1666666666666665,1.0,2.2222222222222223,1.5555555555555556,1.375,3.0,1.5,2.0,0.75,0.5,,,,,,,,,,,,,,,,,,,,,,,,,,,,,0.505253363103891,,,0.013330430172030339,1.404049855945374,,,
3,240626_095401,OFFLINERATING,9.0,4,3.0,,,,,,,,,,,,,,,,,T1,cue1.png,Hard,20.0,1.4021534000057727,,,,,,,,,,,,,,,,,,,,,,28,21,Male,2.0,1.0,1.0,0.0,2.1666666666666665,1.0,2.2222222222222223,1.5555555555555556,1.375,3.0,1.5,2.0,0.75,0.5,,,,,,,,,,,,,,,,,,,,,,,,,,,,,-1.1397575865366845,,,0.010234129564147314,-0.8485957351439313,73884.66423985778,-0.5874858472920416,
4,240626_095854,OFFLINERATING,9.0,5,1.0,,,,,,,,,,,,,,,,,T2,cue2.png,Easy,81.0,1.6356440000236034,,,,,,,,,,,,,,,,,,,,,,28,21,Male,2.0,1.0,1.0,0.0,2.1666666666666665,1.0,2.2222222222222223,1.5555555555555556,1.375,3.0,1.5,2.0,0.75,0.5,,,,,,,,,,,,,,,,,,,,,,,,,,,,,1.7272614971226041,0.007143797145482928,-0.5493625027708221,0.010637057819828023,-0.555454120801444,,,
5,240626_095901,OFFLINERATING,9.0,6,3.0,,,,,,,,,,,,,,,,,T2,cue1.png,Hard,6.0,1.186043200083077,,,,,,,,,,,,,,,,,,,,,,28,21,Male,2.0,1.0,1.0,0.0,2.1666666666666665,1.0,2.2222222222222223,1.5555555555555556,1.375,3.0,1.5,2.0,0.75,0.5,,,,,,,,,,,,,,,,,,,,,,,,,,,,,-1.7977619663929145,,,,,,,
6,240626_102026,OFFLINERATING,9.0,7,1.0,,,,,,,,,,,,,,,,,T3,cue2.png,Easy,50.0,1.070703599834815,,,,,,,,,,,,,,,,,,,,,,28,21,Male,2.0,1.0,1.0,0.0,2.1666666666666665,1.0,2.2222222222222223,1.5555555555555556,1.375,3.0,1.5,2.0,0.75,0.5,,,,,,,,,,,,,,,,,,,,,,,,,,,,,0.2702517988695231,0.006849888027720352,-0.8538800586071088,,,5245.327438182307,-0.5879370129289806,
7,240626_102033,OFFLINERATING,9.0,8,3.0,,,,,,,,,,,,,,,,,T3,cue1.png,Hard,50.0,0.6848712000064552,,,,,,,,,,,,,,,,,,,,,,28,21,Male,2.0,1.0,1.0,0.0,2.1666666666666665,1.0,2.2222222222222223,1.5555555555555556,1.375,3.0,1.5,2.0,0.75,0.5,,,,,,,,,,,,,,,,,,,,,,,,,,,,,0.2702517988695231,,,,,,,
0,240626_095921,LEARNINGCHECK,9.0,1,,,,,,,,,,,,1.0,1.0,1.0,,,B,,,,,,,,,,,,,,,cue2.png,Easy,Left,Left,Easy,0.0132971999701112,1.0,,,,,,28,21,Male,2.0,1.0,1.0,0.0,2.1666666666666665,1.0,2.2222222222222223,1.5555555555555556,1.375,3.0,1.5,2.0,0.75,0.5,,,,,,,,,,,,,,,,,,,,,,,,,,,,,,,,,,,,
1,240626_095927,LEARNINGCHECK,9.0,2,,,,,,,,,,,,2.0,2.0,2.0,,,B,,,,,,,,,,,,,,,cue1.png,Hard,Right,Right,Hard,0.012911400059238,1.0,,,,,,28,21,Male,2.0,1.0,1.0,0.0,2.1666666666666665,1.0,2.2222222222222223,1.5555555555555556,1.375,3.0,1.5,2.0,0.75,0.5,,,,,,,,,,,,,,,,,,,,,,,,,,,,,,,,,,,,
2,240626_102051,LEARNINGCHECK,9.0,1,,,,,,,,,,,,1.0,1.0,1.0,,,B,,,,,,,,,,,,,,,cue2.png,Easy,Middle,Middle,Mid,0.0159401001874357,1.0,,,,,,28,21,Male,2.0,1.0,1.0,0.0,2.1666666666666665,1.0,2.2222222222222223,1.5555555555555556,1.375,3.0,1.5,2.0,0.75,0.5,,,,,,,,,,,,,,,,,,,,,,,,,,,,,,,,,,,,
3,240626_102055,LEARNINGCHECK,9.0,2,,,,,,,,,,,,2.0,2.0,2.0,,,B,,,,,,,,,,,,,,,cue1.png,Hard,Middle,Middle,Mid,0.0117856001015752,1.0,,,,,,28,21,Male,2.0,1.0,1.0,0.0,2.1666666666666665,1.0,2.2222222222222223,1.5555555555555556,1.375,3.0,1.5,2.0,0.75,0.5,,,,,,,,,,,,,,,,,,,,,,,,,,,,,,,,,,,,
0,240626_102113,DEMANDRATING,9.0,-1,,,,,,,,,,,,,,,,,,,,,,,,,,,,,,,,,,,,,,,1.0,MentalDemand,1.0,4.0,6.694489399902523,28,21,Male,2.0,1.0,1.0,0.0,2.1666666666666665,1.0,2.2222222222222223,1.5555555555555556,1.375,3.0,1.5,2.0,0.75,0.5,,,,,,,,,,,,,,,,,,,,,,,,,,,,,,,,,,,,-2.1230415420385813
1,240626_102118,DEMANDRATING,9.0,-1,,,,,,,,,,,,,,,,,,,,,,,,,,,,,,,,,,,,,,,2.0,Effort,1.0,50.0,3.888840900035575,28,21,Male,2.0,1.0,1.0,0.0,2.1666666666666665,1.0,2.2222222222222223,1.5555555555555556,1.375,3.0,1.5,2.0,0.75,0.5,,,,,,,,,,,,,,,,,,,,,,,,,,,,,,,,,,,,-0.6128367337843329
2,240626_102121,DEMANDRATING,9.0,-1,,,,,,,,,,,,,,,,,,,,,,,,,,,,,,,,,,,,,,,3.0,Frustration,1.0,89.0,1.0262189998757094,28,21,Male,2.0,1.0,1.0,0.0,2.1666666666666665,1.0,2.2222222222222223,1.5555555555555556,1.375,3.0,1.5,2.0,0.75,0.5,,,,,,,,,,,,,,,,,,,,,,,,,,,,,,,,,,,,0.6675542993007908
3,240626_102130,DEMANDRATING,9.0,-1,,,,,,,,,,,,,,,,,,,,,,,,,,,,,,,,,,,,,,,4.0,MentalDemand,2.0,40.0,7.1780824000015855,28,21,Male,2.0,1.0,1.0,0.0,2.1666666666666665,1.0,2.2222222222222223,1.5555555555555556,1.375,3.0,1.5,2.0,0.75,0.5,,,,,,,,,,,,,,,,,,,,,,,,,,,,,,,,,,,,-0.9411421268830825
4,240626_102138,DEMANDRATING,9.0,-1,,,,,,,,,,,,,,,,,,,,,,,,,,,,,,,,,,,,,,,5.0,Effort,2.0,77.0,6.866501299897209,28,21,Male,2.0,1.0,1.0,0.0,2.1666666666666665,1.0,2.2222222222222223,1.5555555555555556,1.375,3.0,1.5,2.0,0.75,0.5,,,,,,,,,,,,,,,,,,,,,,,,,,,,,,,,,,,,0.2735878275822912
5,240626_102146,DEMANDRATING,9.0,-1,,,,,,,,,,,,,,,,,,,,,,,,,,,,,,,,,,,,,,,6.0,Frustration,2.0,66.0,6.958563299849629,28,21,Male,2.0,1.0,1.0,0.0,2.1666666666666665,1.0,2.2222222222222223,1.5555555555555556,1.375,3.0,1.5,2.0,0.75,0.5,,,,,,,,,,,,,,,,,,,,,,,,,,,,,,,,,,,,-0.08754810482633339
6,240626_102150,DEMANDRATING,9.0,-1,,,,,,,,,,,,,,,,,,,,,,,,,,,,,,,,,,,,,,,7.0,MentalDemand,3.0,92.0,2.1705769000109285,28,21,Male,2.0,1.0,1.0,0.0,2.1666666666666665,1.0,2.2222222222222223,1.5555555555555556,1.375,3.0,1.5,2.0,0.75,0.5,,,,,,,,,,,,,,,,,,,,,,,,,,,,,,,,,,,,0.7660459172304157
7,240626_102155,DEMANDRATING,9.0,-1,,,,,,,,,,,,,,,,,,,,,,,,,,,,,,,,,,,,,,,8.0,Effort,3.0,100.0,3.277481499826536,28,21,Male,2.0,1.0,1.0,0.0,2.1666666666666665,1.0,2.2222222222222223,1.5555555555555556,1.375,3.0,1.5,2.0,0.75,0.5,,,,,,,,,,,,,,,,,,,,,,,,,,,,,,,,,,,,1.0286902317094155
8,240626_102158,DEMANDRATING,9.0,-1,,,,,,,,,,,,,,,,,,,,,,,,,,,,,,,,,,,,,,,9.0,Frustration,3.0,100.0,1.8604311000090088,28,21,Male,2.0,1.0,1.0,0.0,2.1666666666666665,1.0,2.2222222222222223,1.5555555555555556,1.375,3.0,1.5,2.0,0.75,0.5,,,,,,,,,,,,,,,,,,,,,,,,,,,,,,,,,,,,1.0286902317094155
