,END,Phase,Block,TrialN,NbackLevel,ISI,Letter_Resp,Letter_RT,Letter_Accuracy,Trial_A_measure,Trial_ACC,Trial_RT,TrialCountCali,CaliEnd_A_measure,ISI_calibrated,TrialIndex,TrialNumber_total,TrialNumber_valid,CueLearning,TrialDemandLearning,CueMapping,OfflineRatingTimePoint,CueFigure,TrialDemand,OfflineRating,OfflineRatingRT,PhaseType,CueLeft,CueDemandLeft,CueRight,CueDemandRight,Choice,ChoiceDemand,TaskDemand,ChoiceRT,CueCheck,CueDemandCheck,CorrectAnswer,Answer,AnswerDemand,AnswerRT,AnswerACC,DemandRatingQuesIndex,QuesTLX,DemandLevel,DemandRating,DemandRatingRT,PID,Age,Gender,BAI_bis,BAI_bas_d,BAI_bas_rr,BAI_bas_fs,NFC,BFI_ext,BFI_agr,BFI_con,BFI_neu,BFI_open,UPPS_lps,UPPS_lpm,UPPS_pu,UPPS_ss,Task_A_measure,Task_ACC,Task_RT,Task_RT_z,Task_RT_log,Task_RT_log_z,cue_i_on_zyg_values,cue_i_on_zyg_zvalues,cue_e_on_zyg_values,cue_e_on_zyg_zvalues,cue_i_on_cor_values,cue_i_on_cor_zvalues,cue_e_on_cor_values,cue_e_on_cor_zvalues,cue_i_on_scr_values,cue_i_on_scr_zvalues,cue_e_on_scr_values,cue_e_on_scr_zvalues,cue_e_true_zyg_values,cue_e_true_zyg_zvalues,cue_e_true_cor_values,cue_e_true_cor_zvalues,cue_e_true_scr_values,cue_e_true_scr_zvalues,cue_e_false_zyg_values,cue_e_false_zyg_zvalues,cue_e_false_cor_values,cue_e_false_cor_zvalues,cue_e_false_scr_values,cue_e_false_scr_zvalues,OfflineRating_z,cue_i_off_zyg_values,cue_i_off_zyg_zvalues,cue_i_off_cor_values,cue_i_off_cor_zvalues,cue_i_off_scr_values,cue_i_off_scr_zvalues,DemandRating_z
0,240626_092819,PRACTICE,0.0,1,1.0,426.0,,,,,,,,,,9.0,1.0,1.0,cue2.png,Easy,B,,,,,,,,,,,,,,,,,,,,,,,,,,,28,21,Male,2.0,1.0,1.0,0.0,2.1666666666666665,1.0,2.2222222222222223,1.5555555555555556,1.375,3.0,1.5,2.0,0.75,0.5,,,,,,,,,,,,,,,,,,,,,,,,,,,,,,,,,,,,,,
0,240626_093112,LEARNING,1.0,1,1.0,426.0,,,,,,,,,,1.0,1.0,1.0,cue2.png,Easy,B,,,,,,,,,,,,,,,,,,,,,,,,,,,28,21,Male,2.0,1.0,1.0,0.0,2.1666666666666665,1.0,2.2222222222222223,1.5555555555555556,1.375,3.0,1.5,2.0,0.75,0.5,0.8458333333333333,0.7990196078431372,0.4339681400296589,-0.11764921344223518,-0.8347841576462937,-0.03472349678329906,-9.974536110325151e-05,-0.16562118793625039,0.0001391048713001576,0.9658133620628114,,,,,1.597,0.38067333765996053,,,,,,,,,,,,,,,,,,,,,,
1,240626_093145,LEARNING,1.0,2,3.0,426.0,,,,,,,,,,2.0,2.0,2.0,cue1.png,Hard,B,,,,,,,,,,,,,,,,,,,,,,,,,,,28,21,Male,2.0,1.0,1.0,0.0,2.1666666666666665,1.0,2.2222222222222223,1.5555555555555556,1.375,3.0,1.5,2.0,0.75,0.5,0.9,0.5294117647058824,0.6918550111456878,2.8033312234269085,-0.36837886678292525,2.5403910427698713,-0.00031404406185305466,-0.7729013766132262,0.00014377110580945148,0.9924608802678154,,,,,1.579,0.3392897427532957,1.094,-0.8419899986935987,,,,,,,,,,,,,,,,,,,,
2,240626_093213,LEARNING,1.0,3,1.0,426.0,,,,,,,,,,3.0,3.0,3.0,cue2.png,Easy,B,,,,,,,,,,,,,,,,,,,,,,,,,,,28,21,Male,2.0,1.0,1.0,0.0,2.1666666666666665,1.0,2.2222222222222223,1.5555555555555556,1.375,3.0,1.5,2.0,0.75,0.5,1.0,0.9411764705882352,0.4433228999987477,-0.011691625360828616,-0.8134568805487836,0.08302855796122156,2.6649634048740278e-05,0.1925572622137677,3.966168166250148e-05,0.39792201392006743,,,,,1.4769999999999999,0.10478270494886173,1.588,0.09918669896843103,,,,,,,,,,,,,,,,,,,,
3,240626_093245,LEARNING,1.0,4,3.0,426.0,,,,,,,,,,4.0,4.0,4.0,cue1.png,Hard,B,,,,,,,,,,,,,,,,,,,,,,,,,,,28,21,Male,2.0,1.0,1.0,0.0,2.1666666666666665,1.0,2.2222222222222223,1.5555555555555556,1.375,3.0,1.5,2.0,0.75,0.5,0.85,0.5882352941176471,0.6284587900387123,2.0852678306550056,-0.4644848218546029,2.0097713283481062,7.925620777552529e-05,0.341633901067261,-0.00014620014211428993,-0.6634812059229822,,,,,1.453,0.04960457840664249,1.592,0.10680756291711145,,,,,,,,,,,,,,,,,,,,
4,240626_093318,LEARNING,1.0,5,3.0,426.0,,,,,,,,,,5.0,5.0,5.0,cue1.png,Hard,B,,,,,,,,,,,,,,,,,,,,,,,,,,,28,21,Male,2.0,1.0,1.0,0.0,2.1666666666666665,1.0,2.2222222222222223,1.5555555555555556,1.375,3.0,1.5,2.0,0.75,0.5,0.9,0.6470588235294117,0.7484237454746935,3.4440624308683687,-0.28978595676552765,2.974317821166737,-0.0002843518536311375,-0.6887595234514848,-0.00017773523742657367,-0.8435690315041654,-0.0002553973343709971,-0.21604878766125543,8.425508066287665e-05,0.29541782949874235,1.4580000000000002,0.061100021436271856,1.5310000000000001,-0.009410612300264593,,,,,,,,,,,,,,,,,,,,
5,240626_093344,LEARNING,1.0,6,1.0,426.0,,,,,,,,,,6.0,6.0,6.0,cue2.png,Easy,B,,,,,,,,,,,,,,,,,,,,,,,,,,,28,21,Male,2.0,1.0,1.0,0.0,2.1666666666666665,1.0,2.2222222222222223,1.5555555555555556,1.375,3.0,1.5,2.0,0.75,0.5,1.0,1.0,0.3954585117753595,-0.5538322198710575,-0.9277093979713045,-0.5477818649880197,-0.00014261211929092292,-0.28709711340428334,0.00019123405968157845,1.2635081079310808,-0.00021289523772663292,-0.08120608079152475,-1.3660031005040957e-05,0.030607833221806567,1.9460000000000002,1.1830552611280727,0.052999999999999936,-2.825319841337674,,,,,,,,,,,,,,,,,,,,
6,240626_093414,LEARNING,1.0,7,3.0,426.0,,,,,,,,,,7.0,7.0,7.0,cue1.png,Hard,B,,,,,,,,,,,,,,,,,,,,,,,,,,,28,21,Male,2.0,1.0,1.0,0.0,2.1666666666666665,1.0,2.2222222222222223,1.5555555555555556,1.375,3.0,1.5,2.0,0.75,0.5,0.8458333333333333,0.7990196078431372,0.5710041666403413,1.4345025155071152,-0.5603587722593332,1.480432556923352,3.921780261436324e-05,0.22817296940728207,8.645570802495728e-05,0.665149189685751,0.00021330843283251608,1.2709732504281552,0.0003154892936365599,0.9207873974193252,,,,,,,,,,,,,,,,,,,,,,,,
7,240626_093443,LEARNING,1.0,8,3.0,426.0,,,,,,,,,,8.0,8.0,8.0,cue1.png,Hard,B,,,,,,,,,,,,,,,,,,,,,,,,,,,28,21,Male,2.0,1.0,1.0,0.0,2.1666666666666665,1.0,2.2222222222222223,1.5555555555555556,1.375,3.0,1.5,2.0,0.75,0.5,0.9125,0.9166666666666666,0.5625040352700607,1.338224960407242,-0.5753569711158524,1.3976245770416518,0.00021240467683689016,0.7189503622997513,1.857728059087918e-06,0.18203454837120706,-0.00018105545322943516,0.01980923531571803,-0.00022662051608231433,-0.5453407032176919,,,,,,,,,,,,,,,,,,,,,,,,
8,240626_093510,LEARNING,1.0,9,1.0,426.0,,,,,,,,,,9.0,9.0,9.0,cue2.png,Easy,B,,,,,,,,,,,,,,,,,,,,,,,,,,,28,21,Male,2.0,1.0,1.0,0.0,2.1666666666666665,1.0,2.2222222222222223,1.5555555555555556,1.375,3.0,1.5,2.0,0.75,0.5,1.0,1.0,0.4248448353096404,-0.22098520139479738,-0.856031270109619,-0.15203294695387745,-7.705861436732835e-05,-0.10133142887539974,5.982649412894633e-05,0.51307743661257,0.00015904916913021035,1.098829601807762,-0.0008178547740638276,-2.144325160140705,,,,,,,,,,,,,,,,,,,,,,,,
9,240626_093536,LEARNING,1.0,10,1.0,426.0,,,,,,,,,,10.0,10.0,10.0,cue2.png,Easy,B,,,,,,,,,,,,,,,,,,,,,,,,,,,28,21,Male,2.0,1.0,1.0,0.0,2.1666666666666665,1.0,2.2222222222222223,1.5555555555555556,1.375,3.0,1.5,2.0,0.75,0.5,1.0,1.0,0.4055089117712615,-0.43999539815270355,-0.9026124284270767,-0.40921660331950127,-7.488082218081761e-05,-0.09515999598618423,0.00014489892594663194,0.9989015354851277,-0.0003748952834945326,-0.5951695416331783,-0.00022050132642798329,-0.528791443742025,,,,,,,,,,,,,,,,,,,,,,,,
10,240626_093605,LEARNING,1.0,11,3.0,426.0,,,,,,,,,,11.0,11.0,11.0,cue1.png,Hard,B,,,,,,,,,,,,,,,,,,,,,,,,,,,28,21,Male,2.0,1.0,1.0,0.0,2.1666666666666665,1.0,2.2222222222222223,1.5555555555555556,1.375,3.0,1.5,2.0,0.75,0.5,0.9125,0.9166666666666666,0.5604242764632491,1.3146683723505759,-0.5790611455731083,1.3771731077106242,-0.00027382961535713565,-0.6589415785830262,-0.00013311122770856988,-0.5887341943410582,-2.130001322299402e-05,0.5266514306051555,0.000489605211448035,1.3916813663072696,1.3330000000000002,-0.2262860543044558,,,,,,,,,,,,,,,,,,,,,,
11,240626_093632,LEARNING,1.0,12,1.0,426.0,,,,,,,,,,12.0,12.0,12.0,cue2.png,Easy,B,,,,,,,,,,,,,,,,,,,,,,,,,,,28,21,Male,2.0,1.0,1.0,0.0,2.1666666666666665,1.0,2.2222222222222223,1.5555555555555556,1.375,3.0,1.5,2.0,0.75,0.5,0.95,0.9411764705882352,0.4298922562011285,-0.1638151034488345,-0.8442206686657978,-0.08682431383019976,4.88299399874193e-05,0.2554118680897038,0.0001962509344164646,1.292158031239443,-0.00013637029498438265,0.1615779519294695,0.0002669683359721011,0.7895631726841693,2.2039999999999997,1.7762201214569335,2.227,1.316619714770125,,,,,,,,,,,,,,,,,,,,
12,240626_093658,LEARNING,1.0,13,1.0,426.0,,,,,,,,,,13.0,13.0,13.0,cue2.png,Easy,B,,,,,,,,,,,,,,,,,,,,,,,,,,,28,21,Male,2.0,1.0,1.0,0.0,2.1666666666666665,1.0,2.2222222222222223,1.5555555555555556,1.375,3.0,1.5,2.0,0.75,0.5,1.0,1.0,0.4032451529466711,-0.46563608009902635,-0.9082105820201166,-0.44012510070254673,,,-0.00013329251190150526,-0.5897694560326648,-0.00042311092878053857,-0.7481391275394282,0.0003623523460339574,1.047527841457922,,,0.5319999999999999,-1.912721383483196,,,,,,,,,,,,,,,,,,,,
13,240626_093724,LEARNING,1.0,14,1.0,426.0,,,,,,,,,,14.0,14.0,14.0,cue2.png,Easy,B,,,,,,,,,,,,,,,,,,,,,,,,,,,28,21,Male,2.0,1.0,1.0,0.0,2.1666666666666665,1.0,2.2222222222222223,1.5555555555555556,1.375,3.0,1.5,2.0,0.75,0.5,1.0,1.0,0.4051425705718643,-0.44414479696477793,-0.9035162477188805,-0.41420676583490573,,,8.50516589456043e-05,0.6571310707231789,-5.562987272377147e-05,0.4177360700224395,0.00030764605076695657,0.8995754610826454,,,,,,,,,,,,,,,,,,,,,,,,
14,240626_093755,LEARNING,1.0,15,3.0,426.0,,,,,,,,,,15.0,15.0,15.0,cue1.png,Hard,B,,,,,,,,,,,,,,,,,,,,,,,,,,,28,21,Male,2.0,1.0,1.0,0.0,2.1666666666666665,1.0,2.2222222222222223,1.5555555555555556,1.375,3.0,1.5,2.0,0.75,0.5,0.95,0.8235294117647058,0.5945127428276464,1.7007746636184122,-0.5200131285517545,1.7031887214743524,9.883758118836225e-05,0.3971236455178599,6.994655325016225e-06,0.2113700570268404,-0.00036573661445239193,-0.5661126286225112,0.0003683264825333236,1.0636848067843827,,,,,,,,,,,,,,,,,,,,,,,,
15,240626_093821,LEARNING,1.0,16,1.0,426.0,,,,,,,,,,16.0,16.0,16.0,cue2.png,Easy,B,,,,,,,,,,,,,,,,,,,,,,,,,,,28,21,Male,2.0,1.0,1.0,0.0,2.1666666666666665,1.0,2.2222222222222223,1.5555555555555556,1.375,3.0,1.5,2.0,0.75,0.5,1.0,1.0,0.3912239882355446,-0.6017949578178688,-0.9384750230809331,-0.607220980045796,1.75714535855377e-05,0.16683149194428853,,,-0.000419664857785787,-0.7372060776975404,-0.0005613048067375391,-1.450489502546471,,,,,,,,,,,,,,,,,,,,,,,,
16,240626_093847,LEARNING,1.0,17,1.0,426.0,,,,,,,,,,17.0,17.0,17.0,cue2.png,Easy,B,,,,,,,,,,,,,,,,,,,,,,,,,,,28,21,Male,2.0,1.0,1.0,0.0,2.1666666666666665,1.0,2.2222222222222223,1.5555555555555556,1.375,3.0,1.5,2.0,0.75,0.5,0.9125,0.9166666666666666,0.4298835294321179,-0.16391394803695447,-0.8442409687699802,-0.08693639466302609,6.660236845089287e-05,0.30577541986478934,-6.916119814770558e-06,0.13192963605252495,-0.0004842784390399974,-0.942199969405241,0.0002754602927021975,0.8125295462272794,,,,,,,,,,,,,,,,,,,,,,,,
17,240626_093916,LEARNING,1.0,18,3.0,426.0,,,,,,,,,,18.0,18.0,18.0,cue1.png,Hard,B,,,,,,,,,,,,,,,,,,,,,,,,,,,28,21,Male,2.0,1.0,1.0,0.0,2.1666666666666665,1.0,2.2222222222222223,1.5555555555555556,1.375,3.0,1.5,2.0,0.75,0.5,0.63125,0.75,0.5622628117664991,1.3354927192048607,-0.5757859018011683,1.3952563671052403,0.0005186045943028051,1.586660446406484,-0.0004266417924045983,-2.2650025110927037,-0.0001652430656771493,0.06997582256585996,0.00026833594587977357,0.7932618538008015,,,,,,,,,,,,,,,,,,,,,,,,
18,240626_093945,LEARNING,1.0,19,3.0,426.0,,,,,,,,,,19.0,19.0,19.0,cue1.png,Hard,B,,,,,,,,,,,,,,,,,,,,,,,,,,,28,21,Male,2.0,1.0,1.0,0.0,2.1666666666666665,1.0,2.2222222222222223,1.5555555555555556,1.375,3.0,1.5,2.0,0.75,0.5,0.0666666666666666,0.5490196078431373,0.4572554799883316,0.14611708125758135,-0.7825130071174081,0.2538757158820163,,,,,-0.00047259574736922307,-0.9051353092405158,-0.00042848006410516493,-1.0912669167493425,,,,,,,,,,,,,,,,,,,,,,,,
19,240626_094014,LEARNING,1.0,20,3.0,426.0,,,,,,,,,,20.0,20.0,20.0,cue1.png,Hard,B,,,,,,,,,,,,,,,,,,,,,,,,,,,28,21,Male,2.0,1.0,1.0,0.0,2.1666666666666665,1.0,2.2222222222222223,1.5555555555555556,1.375,3.0,1.5,2.0,0.75,0.5,0.0374999999999999,0.4558823529411764,0.4715360666741617,0.3078675191755937,-0.7517596863576187,0.4236707953535214,-0.0001508668405186815,-0.3104893628539043,-8.998930200783883e-05,-0.3424773253696478,-0.0007356026437156903,-1.7395544233259603,-0.00013184018485764854,-0.28900867508444683,2.024,1.3623841723902863,1.5819999999999999,0.08775540304541,,,,,,,,,,,,,,,,,,,,
20,240626_094041,LEARNING,1.0,21,1.0,426.0,,,,,,,,,,21.0,21.0,21.0,cue2.png,Easy,B,,,,,,,,,,,,,,,,,,,,,,,,,,,28,21,Male,2.0,1.0,1.0,0.0,2.1666666666666665,1.0,2.2222222222222223,1.5555555555555556,1.375,3.0,1.5,2.0,0.75,0.5,1.0,1.0,0.435005270602072,-0.10590205431239103,-0.8323971316402528,-0.021544260837950042,-5.044015880590431e-05,-0.025899983611977456,-8.610338427390623e-05,-0.3202859710020367,0.00012340153456928075,0.9857334508597334,0.00014956697372986005,0.4720528949681553,0.7130000000000001,-1.6517209899784653,2.037,0.954628677207806,,,,,,,,,,,,,,,,,,,,
21,240626_094108,LEARNING,1.0,22,3.0,426.0,,,,,,,,,,22.0,22.0,22.0,cue1.png,Hard,B,,,,,,,,,,,,,,,,,,,,,,,,,,,28,21,Male,2.0,1.0,1.0,0.0,2.1666666666666665,1.0,2.2222222222222223,1.5555555555555556,1.375,3.0,1.5,2.0,0.75,0.5,0.7916666666666667,0.8333333333333334,0.4690595764858538,0.27981731498783885,-0.7570254898488411,0.39459726767639,,,-6.670960285382315e-06,0.13332967135068488,-0.0004255880370952012,-0.755998033728305,6.114115939580365e-05,0.23290656540053167,0.8960000000000001,-1.23098777509404,1.5780000000000003,0.08013453909673043,,,,,,,,,,,,,,,,,,,,
22,240626_094136,LEARNING,1.0,23,3.0,426.0,,,,,,,,,,23.0,23.0,23.0,cue1.png,Hard,B,,,,,,,,,,,,,,,,,,,,,,,,,,,28,21,Male,2.0,1.0,1.0,0.0,2.1666666666666665,1.0,2.2222222222222223,1.5555555555555556,1.375,3.0,1.5,2.0,0.75,0.5,0.7916666666666667,0.8333333333333334,0.4721705941072501,0.3150545551448427,-0.7504149305026911,0.43109545459733695,0.00046351954190070824,1.430560288547467,-0.0007310712475749191,-4.003511244983607,-0.0005442743713540213,-1.1325438477811531,-4.929590252657386e-06,0.05421918333674711,2.042,1.4037677672969506,1.3479999999999999,-0.35806513795239353,,,,,,,,,,,,,,,,,,,,
23,240626_094203,LEARNING,1.0,24,3.0,426.0,,,,,,,,,,24.0,24.0,24.0,cue1.png,Hard,B,,,,,,,,,,,,,,,,,,,,,,,,,,,28,21,Male,2.0,1.0,1.0,0.0,2.1666666666666665,1.0,2.2222222222222223,1.5555555555555556,1.375,3.0,1.5,2.0,0.75,0.5,0.9125,0.9166666666666666,0.468531294095823,0.27383367371232736,-0.7581523831719554,0.38837546994441013,-5.7348070158445494e-05,-0.04547563990320621,2.15474100811611e-05,0.2944766382595121,-4.035403187345812e-06,0.5814253578713018,-0.0002730602320188801,-0.6709362399513067,,,1.1669999999999998,-0.7029092316301819,,,,,,,,,,,,,,,,,,,,
24,240626_094229,LEARNING,1.0,25,1.0,426.0,,,,,,,,,,25.0,25.0,25.0,cue2.png,Easy,B,,,,,,,,,,,,,,,,,,,,,,,,,,,28,21,Male,2.0,1.0,1.0,0.0,2.1666666666666665,1.0,2.2222222222222223,1.5555555555555556,1.375,3.0,1.5,2.0,0.75,0.5,1.0,1.0,0.4031845235457534,-0.4663228048369448,-0.9083609470247768,-0.44095529520789545,,,,,0.00019044267365564502,1.1984290442483991,0.0001565396767086169,0.4909104688236297,,,1.7860000000000003,0.47641946442811134,,,,,,,,,,,,,,,,,,,,
25,240626_094255,LEARNING,1.0,26,1.0,426.0,,,,,,,,,,26.0,26.0,26.0,cue2.png,Easy,B,,,,,,,,,,,,,,,,,,,,,,,,,,,28,21,Male,2.0,1.0,1.0,0.0,2.1666666666666665,1.0,2.2222222222222223,1.5555555555555556,1.375,3.0,1.5,2.0,0.75,0.5,1.0,1.0,0.367211564690532,-0.873773981462079,-1.001817126476474,-0.9569450818410322,-4.125815134318773e-06,0.10534571813480087,6.086093294486398e-05,0.5189848180620504,-1.6921518019735217e-05,0.5405427016679406,0.000478053750000945,1.3604406067279762,0.8460000000000001,-1.345942205390331,0.3880000000000001,-2.18707248563569,,,,,,,,,,,,,,,,,,,,
26,240626_094322,LEARNING,1.0,27,3.0,426.0,,,,,,,,,,27.0,27.0,27.0,cue1.png,Hard,B,,,,,,,,,,,,,,,,,,,,,,,,,,,28,21,Male,2.0,1.0,1.0,0.0,2.1666666666666665,1.0,2.2222222222222223,1.5555555555555556,1.375,3.0,1.5,2.0,0.75,0.5,0.63125,0.75,0.4575211000217892,0.14912565210111636,-0.781932275063862,0.25708205076707513,,,,,-0.0005220647527227739,-1.0620813216653053,-0.00011134887926657518,-0.2335902369613798,1.9329999999999998,1.153167109251036,,,,,,,,,,,,,,,,,,,,,,
27,240626_094347,LEARNING,1.0,28,1.0,426.0,,,,,,,,,,28.0,28.0,28.0,cue2.png,Easy,B,,,,,,,,,,,,,,,,,,,,,,,,,,,28,21,Male,2.0,1.0,1.0,0.0,2.1666666666666665,1.0,2.2222222222222223,1.5555555555555556,1.375,3.0,1.5,2.0,0.75,0.5,1.0,1.0,0.3500388764694114,-1.0682820854429829,-1.0497110550402287,-1.2213767986694235,-0.001336653730009497,-3.6707751856849047,4.522270715740483e-06,0.19725098226661866,,,-0.00039307051773628063,-0.9955023132843128,0.8620000000000001,-1.309156787695518,2.198,1.2613684511421923,,,,,,,,,,,,,,,,,,,,
28,240626_094412,LEARNING,1.0,29,1.0,426.0,,,,,,,,,,29.0,29.0,29.0,cue2.png,Easy,B,,,,,,,,,,,,,,,,,,,,,,,,,,,28,21,Male,2.0,1.0,1.0,0.0,2.1666666666666665,1.0,2.2222222222222223,1.5555555555555556,1.375,3.0,1.5,2.0,0.75,0.5,1.0,1.0,0.3518109882442171,-1.0482100910690468,-1.0446612128167825,-1.193495635254716,3.7291061524230215e-05,0.22271296573645374,-0.00018337354443900356,-0.8757677751506485,-8.240360668263988e-05,0.33279337201315046,4.549234156289456e-05,0.19058456503223825,1.1809999999999998,-0.5757475224051815,1.9380000000000002,0.7660122944779665,,,,,,,,,,,,,,,,,,,,
29,240626_094440,LEARNING,1.0,30,3.0,426.0,,,,,,,,,,30.0,30.0,30.0,cue1.png,Hard,B,,,,,,,,,,,,,,,,,,,,,,,,,,,28,21,Male,2.0,1.0,1.0,0.0,2.1666666666666665,1.0,2.2222222222222223,1.5555555555555556,1.375,3.0,1.5,2.0,0.75,0.5,0.63125,0.75,0.4661807117791956,0.2472095771369342,-0.7631819265113765,0.36060638062580264,,,-4.446071026650107e-05,-0.08247668141163979,,,-0.00012839043930879413,-0.2796788883907772,1.663,0.5324131856510649,1.589,0.10109191495560092,,,,,,,,,,,,,,,,,,,,
30,240626_094507,LEARNING,1.0,31,3.0,426.0,,,,,,,,,,31.0,31.0,31.0,cue1.png,Hard,B,,,,,,,,,,,,,,,,,,,,,,,,,,,28,21,Male,2.0,1.0,1.0,0.0,2.1666666666666665,1.0,2.2222222222222223,1.5555555555555556,1.375,3.0,1.5,2.0,0.75,0.5,0.7041666666666667,0.7745098039215687,0.4487521187402308,0.04980294263608322,-0.8012846177640962,0.15023399385601485,7.86204437886683e-05,0.3398322715074845,,,3.929553744592366e-05,0.7188976660045153,-0.00041095338055916787,-1.04386625585541,,,2.0940000000000003,1.0632259884765025,,,,,,,,,,,,,,,,,,,,
31,240626_094533,LEARNING,1.0,32,1.0,426.0,,,,,,,,,,32.0,32.0,32.0,cue2.png,Easy,B,,,,,,,,,,,,,,,,,,,,,,,,,,,28,21,Male,2.0,1.0,1.0,0.0,2.1666666666666665,1.0,2.2222222222222223,1.5555555555555556,1.375,3.0,1.5,2.0,0.75,0.5,1.0,1.0,0.3664334529243848,-0.882587339182764,-1.003938348700382,-0.9686567632850769,3.222301896764566e-05,0.2083511341937656,,,,,,,1.1860000000000002,-0.5642520793755516,,,,,,,,,,,,,,,,,,,,,,
32,240626_094558,LEARNING,1.0,33,1.0,426.0,,,,,,,,,,33.0,33.0,33.0,cue2.png,Easy,B,,,,,,,,,,,,,,,,,,,,,,,,,,,28,21,Male,2.0,1.0,1.0,0.0,2.1666666666666665,1.0,2.2222222222222223,1.5555555555555556,1.375,3.0,1.5,2.0,0.75,0.5,1.0,1.0,0.3372786764247233,-1.2128117179123343,-1.0868457573394554,-1.4264047297113351,-0.0001134802313734651,-0.2045430973083806,,,,,,,1.6349999999999998,0.4680387046851413,1.5190000000000001,-0.03227320414630582,,,,,,,,,,,,,,,,,,,,
33,240626_094623,LEARNING,1.0,34,1.0,426.0,,,,,,,,,,34.0,34.0,34.0,cue2.png,Easy,B,,,,,,,,,,,,,,,,,,,,,,,,,,,28,21,Male,2.0,1.0,1.0,0.0,2.1666666666666665,1.0,2.2222222222222223,1.5555555555555556,1.375,3.0,1.5,2.0,0.75,0.5,1.0,1.0,0.3746336823301938,-0.7897066525136457,-0.981806577557297,-0.8464629400736746,,,,,-0.0005816397998972093,-1.2510898943508129,0.0002008085003666867,0.6106348589446986,0.9189999999999998,-1.1781087371577468,1.5770000000000002,0.07822932310956011,,,,,,,,,,,,,,,,,,,,
34,240626_094651,LEARNING,1.0,35,3.0,426.0,,,,,,,,,,35.0,35.0,35.0,cue1.png,Hard,B,,,,,,,,,,,,,,,,,,,,,,,,,,,28,21,Male,2.0,1.0,1.0,0.0,2.1666666666666665,1.0,2.2222222222222223,1.5555555555555556,1.375,3.0,1.5,2.0,0.75,0.5,0.7916666666666667,0.8333333333333334,0.4797086117460447,0.4004346365751492,-0.7345764182774438,0.5185429684122546,-0.0001297092542487813,-0.2505329425070759,,,-9.670100319285682e-06,0.5635486441642232,0.00036099169015467013,1.0438479674099788,,,0.403,-2.1584942458281384,,,,,,,,,,,,,,,,,,,,
35,240626_094718,LEARNING,1.0,36,3.0,426.0,,,,,,,,,,36.0,36.0,36.0,cue1.png,Hard,B,,,,,,,,,,,,,,,,,,,,,,,,,,,28,21,Male,2.0,1.0,1.0,0.0,2.1666666666666665,1.0,2.2222222222222223,1.5555555555555556,1.375,3.0,1.5,2.0,0.75,0.5,0.9125,0.9166666666666666,0.459466917645734,0.17116514247401227,-0.7776883361966862,0.2805136646357966,0.0003038182337806528,0.9779983262594331,,,-0.0002581321242474564,-0.22472521773827855,0.0010460403497435447,2.8965521098563474,1.056,-0.8631335981459086,1.826,0.552628103914915,,,,,,,,,,,,,,,,,,,,
36,240626_094744,LEARNING,1.0,37,1.0,426.0,,,,,,,,,,37.0,37.0,37.0,cue2.png,Easy,B,,,,,,,,,,,,,,,,,,,,,,,,,,,28,21,Male,2.0,1.0,1.0,0.0,2.1666666666666665,1.0,2.2222222222222223,1.5555555555555556,1.375,3.0,1.5,2.0,0.75,0.5,1.0,1.0,0.3972402235410888,-0.5336514902770595,-0.9232140842115399,-0.5229623613301716,4.4159974274400084e-05,0.24217810769174242,,,1.2563500304644225e-05,0.6340872558632483,0.0002403225613411249,0.7175000624999542,1.649,0.5002259451681034,1.896,0.6859932230168218,,,,,,,,,,,,,,,,,,,,
37,240626_094811,LEARNING,1.0,38,3.0,426.0,,,,,,,,,,38.0,38.0,38.0,cue1.png,Hard,B,,,,,,,,,,,,,,,,,,,,,,,,,,,28,21,Male,2.0,1.0,1.0,0.0,2.1666666666666665,1.0,2.2222222222222223,1.5555555555555556,1.375,3.0,1.5,2.0,0.75,0.5,0.0666666666666666,0.6666666666666667,0.4367804882417926,-0.08579488106092337,-0.8283245253252818,0.0009413926076710512,0.0004806653540086292,1.4791481333430114,-2.456234433054205e-06,0.15739875396008196,-0.0004708587340812977,-0.8996244381987314,-0.000250873116782715,-0.6109315092922503,1.017,-0.952798053777016,1.583,0.08966061903258031,,,,,,,,,,,,,,,,,,,,
38,240626_094838,LEARNING,1.0,39,3.0,426.0,,,,,,,,,,39.0,39.0,39.0,cue1.png,Hard,B,,,,,,,,,,,,,,,,,,,,,,,,,,,28,21,Male,2.0,1.0,1.0,0.0,2.1666666666666665,1.0,2.2222222222222223,1.5555555555555556,1.375,3.0,1.5,2.0,0.75,0.5,0.7916666666666667,0.8333333333333334,0.4357690881828175,-0.09725060105678685,-0.8306427901878647,-0.011858199659221367,,,,,-0.000503738339893367,-1.0039387049890747,-0.00031406745782241487,-0.7818396860832029,1.372,-0.13662159867334894,1.8970000000000002,0.6878984390039925,,,,,,,,,,,,,,,,,,,,
39,240626_094904,LEARNING,1.0,40,3.0,426.0,,,,,,,,,,40.0,40.0,40.0,cue1.png,Hard,B,,,,,,,,,,,,,,,,,,,,,,,,,,,28,21,Male,2.0,1.0,1.0,0.0,2.1666666666666665,1.0,2.2222222222222223,1.5555555555555556,1.375,3.0,1.5,2.0,0.75,0.5,0.95,0.9411764705882352,0.4088286687328946,-0.40239385179198384,-0.8944591135572048,-0.36420056238202214,,,-0.0001196189230571118,-0.5116835375189271,-0.00030468945256224237,-0.3724336055648577,,,2.021,1.3554869065725086,2.221,1.3051884188471048,,,,,,,,,,,,,,,,,,,,
40,240626_094931,LEARNING,1.0,41,1.0,426.0,,,,,,,,,,41.0,41.0,41.0,cue2.png,Easy,B,,,,,,,,,,,,,,,,,,,,,,,,,,,28,21,Male,2.0,1.0,1.0,0.0,2.1666666666666665,1.0,2.2222222222222223,1.5555555555555556,1.375,3.0,1.5,2.0,0.75,0.5,1.0,1.0,0.4355530999874806,-0.09969701211464152,-0.8311385613335861,-0.014595448808507152,-0.0010102576971107368,-2.745833299669492,-2.3662409378869594e-05,0.03629641077488571,6.8235231224195e-05,0.8107121164231785,,,1.871,1.0106236156836357,1.341,-0.37140164986258406,,,,,,,,,,,,,,,,,,,,
41,240626_094957,LEARNING,1.0,42,3.0,426.0,,,,,,,,,,42.0,42.0,42.0,cue1.png,Hard,B,,,,,,,,,,,,,,,,,,,,,,,,,,,28,21,Male,2.0,1.0,1.0,0.0,2.1666666666666665,1.0,2.2222222222222223,1.5555555555555556,1.375,3.0,1.5,2.0,0.75,0.5,0.7916666666666667,0.7745098039215687,0.3536071687412914,-1.0278654799985618,-1.03956867483453,-1.1653787402318279,,,-0.00021839808031420133,-1.0757827884332491,0.00019545235810054361,1.214322834542222,-0.0005450675197499312,-1.4065759959028912,,,,,,,,,,,,,,,,,,,,,,,,
42,240626_095024,LEARNING,1.0,43,3.0,426.0,,,,,,,,,,43.0,43.0,43.0,cue1.png,Hard,B,,,,,,,,,,,,,,,,,,,,,,,,,,,28,21,Male,2.0,1.0,1.0,0.0,2.1666666666666665,1.0,2.2222222222222223,1.5555555555555556,1.375,3.0,1.5,2.0,0.75,0.5,0.7916666666666667,0.7745098039215687,0.4248614437528886,-0.22079708426574435,-0.8559921779111509,-0.15181711130486084,5.40005996792171e-06,0.13234016658064485,9.574349948760072e-05,0.7181890854715552,,,,,0.967,-1.0677524840733068,1.98,0.8460313659391103,,,,,,,,,,,,,,,,,,,,
43,240626_095050,LEARNING,1.0,44,1.0,426.0,,,,,,,,,,44.0,44.0,44.0,cue2.png,Easy,B,,,,,,,,,,,,,,,,,,,,,,,,,,,28,21,Male,2.0,1.0,1.0,0.0,2.1666666666666665,1.0,2.2222222222222223,1.5555555555555556,1.375,3.0,1.5,2.0,0.75,0.5,1.0,1.0,0.3668252941330566,-0.8781491120642747,-1.0028695820541114,-0.9627558942681192,-0.0005511697135856331,-1.444868635492855,-4.635909728612593e-05,-0.09331782164255623,0.0003654654425702215,1.7537085666153571,-0.0008107110632103792,-2.125005097973784,1.7109999999999999,0.6427694387355039,1.4399999999999997,-0.18278526713274454,,,,,,,,,,,,,,,,,,,,
44,240626_095115,LEARNING,1.0,45,1.0,426.0,,,,,,,,,,45.0,45.0,45.0,cue2.png,Easy,B,,,,,,,,,,,,,,,,,,,,,,,,,,,28,21,Male,2.0,1.0,1.0,0.0,2.1666666666666665,1.0,2.2222222222222223,1.5555555555555556,1.375,3.0,1.5,2.0,0.75,0.5,1.0,0.9411764705882352,0.3479969437466934,-1.0914102327218675,-1.0555615815833157,-1.2536786963114008,0.00011621429928521023,0.44636583227642873,-8.172249914396206e-05,-0.295268000726067,-0.0009483242705946348,-2.414437834798633,-0.00016457827026943733,-0.37754835122159164,1.8039999999999998,0.8565846790866052,1.63,0.17920577042957492,,,,,,,,,,,,,,,,,,,,
45,240626_095141,LEARNING,1.0,46,1.0,426.0,,,,,,,,,,46.0,46.0,46.0,cue2.png,Easy,B,,,,,,,,,,,,,,,,,,,,,,,,,,,28,21,Male,2.0,1.0,1.0,0.0,2.1666666666666665,1.0,2.2222222222222223,1.5555555555555556,1.375,3.0,1.5,2.0,0.75,0.5,1.0,1.0,0.3891296941266559,-0.6255161813708194,-0.9438425870058635,-0.6368563469162773,-3.7820453836056016e-05,0.009861767571408012,-1.9974822158999594e-05,0.057355156831970525,-1.866418056927638e-05,0.5350139077049775,0.00010063557671475317,0.3397186429750452,0.9510000000000001,-1.1045379017681198,1.87,0.6364576073503995,,,,,,,,,,,,,,,,,,,,
46,240626_095207,LEARNING,1.0,47,3.0,426.0,,,,,,,,,,47.0,47.0,47.0,cue1.png,Hard,B,,,,,,,,,,,,,,,,,,,,,,,,,,,28,21,Male,2.0,1.0,1.0,0.0,2.1666666666666665,1.0,2.2222222222222223,1.5555555555555556,1.375,3.0,1.5,2.0,0.75,0.5,0.7916666666666667,0.8333333333333334,0.3595927823608851,-0.9600688519273934,-1.0227830478850877,-1.072702021378552,-3.7601530592502614e-05,0.010482152800929791,0.0002644861931631942,1.6818298953635167,0.00041567718094762986,1.9130109835313536,-0.0003293038874766039,-0.8230463886163483,1.504,0.16685809730885923,,,,,,,,,,,,,,,,,,,,,,
47,240626_095234,LEARNING,1.0,48,3.0,426.0,,,,,,,,,,48.0,48.0,48.0,cue1.png,Hard,B,,,,,,,,,,,,,,,,,,,,,,,,,,,28,21,Male,2.0,1.0,1.0,0.0,2.1666666666666665,1.0,2.2222222222222223,1.5555555555555556,1.375,3.0,1.5,2.0,0.75,0.5,0.7916666666666667,0.7745098039215687,0.4585835500183748,0.1611595941228565,-0.7796127792008595,0.2698884396272756,0.0005479911428505472,1.6699361204268937,2.4858238861881227e-05,0.3133838256355793,0.00031469894033170093,1.5926460986286612,-0.00011188365188558643,-0.23503652173639658,0.593,-1.927611622689564,1.511,-0.047514932043667066,,,,,,,,,,,,,,,,,,,,
48,240626_095259,LEARNING,1.0,49,1.0,426.0,,,,,,,,,,49.0,49.0,49.0,cue2.png,Easy,B,,,,,,,,,,,,,,,,,,,,,,,,,,,28,21,Male,2.0,1.0,1.0,0.0,2.1666666666666665,1.0,2.2222222222222223,1.5555555555555556,1.375,3.0,1.5,2.0,0.75,0.5,0.9125,0.9166666666666666,0.3411614882403656,-1.1688326766201058,-1.0753993412463194,-1.3632068349090551,,,,,,,-1.6190348766123748e-05,0.02376462561597441,,,,,,,,,,,,,,,,,,,,,,,,
49,240626_095325,LEARNING,1.0,50,1.0,426.0,,,,,,,,,,50.0,50.0,50.0,cue2.png,Easy,B,,,,,,,,,,,,,,,,,,,,,,,,,,,28,21,Male,2.0,1.0,1.0,0.0,2.1666666666666665,1.0,2.2222222222222223,1.5555555555555556,1.375,3.0,1.5,2.0,0.75,0.5,1.0,1.0,0.344110564684824,-1.135429678771414,-1.0667922642820244,-1.315685484984442,,,-4.3630632939450215e-08,0.17117643777708075,-0.0005947805841491566,-1.2927805180805167,-0.0003374175878442468,-0.8449897733252858,1.774,0.787612020908831,1.67,0.25541440991637904,,,,,,,,,,,,,,,,,,,,
0,240626_095455,TrueCHOICE,9.0,1,1.0,426.0,,,,,,,,,,,1.0,1.0,,,B,,,,,,True,cue2.png,Easy,cue1.png,Hard,Left,Easy,Easy,0.0153129000682383,,,,,,,,,,,,,28,21,Male,2.0,1.0,1.0,0.0,2.1666666666666665,1.0,2.2222222222222223,1.5555555555555556,1.375,3.0,1.5,2.0,0.75,0.5,0.7916666666666667,0.8333333333333334,0.4463497000362943,0.8306667402932179,-0.806652553393971,0.8641785074588063,,,,,,,,,,,,,,,0.0011092566260759193,2.3936949721880807,,,,,,,,,,,,,,,,
1,240626_095519,TrueCHOICE,9.0,2,1.0,426.0,,,,,,,,,,,2.0,2.0,,,B,,,,,,True,cue2.png,Easy,cue1.png,Hard,Left,Easy,Easy,0.0163317001424729,,,,,,,,,,,,,28,21,Male,2.0,1.0,1.0,0.0,2.1666666666666665,1.0,2.2222222222222223,1.5555555555555556,1.375,3.0,1.5,2.0,0.75,0.5,,,,,,,,,,,,,,,,,,,-7.220359739649237e-05,-1.0800630641882165,-6.18993075332747e-05,-0.7788787444896852,1.4489999999999998,-0.856983740715525,,,,,,,,,,,,,,
2,240626_095546,TrueCHOICE,9.0,3,3.0,426.0,,,,,,,,,,,3.0,3.0,,,B,,,,,,True,cue1.png,Hard,cue2.png,Easy,Left,Hard,Hard,0.016512099886313,,,,,,,,,,,,,28,21,Male,2.0,1.0,1.0,0.0,2.1666666666666665,1.0,2.2222222222222223,1.5555555555555556,1.375,3.0,1.5,2.0,0.75,0.5,1.0,1.0,0.5162761941250852,1.9050333700906752,-0.6611133967687389,1.7451835656660084,,,,,,,,,,,,,0.0001945630456506968,0.5163710596339051,0.0001507144549245821,-0.20292398456370855,1.464,-0.7922785925071375,,,,,,,,,,,,,,
3,240626_095610,TrueCHOICE,9.0,4,1.0,426.0,,,,,,,,,,,4.0,4.0,,,B,,,,,,True,cue2.png,Easy,cue1.png,Hard,Left,Easy,Easy,0.0161065000575035,,,,,,,,,,,,,28,21,Male,2.0,1.0,1.0,0.0,2.1666666666666665,1.0,2.2222222222222223,1.5555555555555556,1.375,3.0,1.5,2.0,0.75,0.5,1.0,1.0,0.3755620470517041,-0.25693093150993834,-0.9793315829417605,-0.1811147456116082,,,,,,,,,,,,,0.00023736620420286136,0.7725216118150363,0.0001511195290002888,-0.20182666922847886,1.454,-0.8354153579793955,,,,,,,,,,,,,,
4,240626_095634,TrueCHOICE,9.0,5,1.0,426.0,,,,,,,,,,,5.0,5.0,,,B,,,,,,True,cue1.png,Hard,cue2.png,Easy,Right,Easy,Easy,0.0166608998551964,,,,,,,,,,,,,28,21,Male,2.0,1.0,1.0,0.0,2.1666666666666665,1.0,2.2222222222222223,1.5555555555555556,1.375,3.0,1.5,2.0,0.75,0.5,0.9125,0.9166666666666666,0.4258775058996809,0.5161272727319753,-0.8536035188981396,0.5799660724273319,,,,,,,,,,,,,-2.0012224424895576e-05,-0.7677298285585807,0.00015532365806802994,-0.1904379984297641,1.971,1.3947554169363408,,,,,,,,,,,,,,
5,240626_095657,TrueCHOICE,9.0,6,1.0,426.0,,,,,,,,,,,6.0,6.0,,,B,,,,,,True,cue1.png,Hard,cue2.png,Easy,Right,Easy,Easy,0.0171777999494224,,,,,,,,,,,,,28,21,Male,2.0,1.0,1.0,0.0,2.1666666666666665,1.0,2.2222222222222223,1.5555555555555556,1.375,3.0,1.5,2.0,0.75,0.5,1.0,1.0,0.369574658873984,-0.3489225312835273,-0.9954025052178433,-0.2783982818337024,,,,,,,,,,,,,-0.00013428423302720748,-1.4515774485106583,-4.316736306916348e-06,-0.6228918713766549,1.5799999999999998,-0.29189211302894585,,,,,,,,,,,,,,
6,240626_095721,TrueCHOICE,9.0,7,1.0,426.0,,,,,,,,,,,7.0,7.0,,,B,,,,,,True,cue2.png,Easy,cue1.png,Hard,Left,Easy,Easy,0.0152529999613761,,,,,,,,,,,,,28,21,Male,2.0,1.0,1.0,0.0,2.1666666666666665,1.0,2.2222222222222223,1.5555555555555556,1.375,3.0,1.5,2.0,0.75,0.5,,,,,,,,,,,,,,,,,,,0.00021687508476752205,0.6498948773469502,,,,,,,,,,,,,,,,,,
7,240626_095744,TrueCHOICE,9.0,8,1.0,426.0,,,,,,,,,,,8.0,8.0,,,B,,,,,,True,cue1.png,Hard,cue2.png,Easy,Right,Easy,Easy,0.0168546000495553,,,,,,,,,,,,,28,21,Male,2.0,1.0,1.0,0.0,2.1666666666666665,1.0,2.2222222222222223,1.5555555555555556,1.375,3.0,1.5,2.0,0.75,0.5,0.9125,0.9166666666666666,0.3759593999780276,-0.2508259103751415,-0.9782741202042124,-0.1747135128282932,,,,,,,,,,,,,,,,,,,,,,,,,,,,,,,,
8,240626_095806,TrueCHOICE,9.0,9,1.0,426.0,,,,,,,,,,,9.0,9.0,,,B,,,,,,True,cue2.png,Easy,cue1.png,Hard,Left,Easy,Easy,0.0164683000184595,,,,,,,,,,,,,28,21,Male,2.0,1.0,1.0,0.0,2.1666666666666665,1.0,2.2222222222222223,1.5555555555555556,1.375,3.0,1.5,2.0,0.75,0.5,1.0,1.0,0.2893248117830166,-1.5818995149630868,-1.2402053057864717,-1.7602847415691671,,,,,,,,,,,,,,,7.91688375148241e-05,-0.3967357040997888,,,,,,,,,,,,,,,,
9,240626_095829,TrueCHOICE,9.0,10,1.0,426.0,,,,,,,,,,,10.0,10.0,,,B,,,,,,True,cue1.png,Hard,cue2.png,Easy,Right,Easy,Easy,0.0165298001375049,,,,,,,,,,,,,28,21,Male,2.0,1.0,1.0,0.0,2.1666666666666665,1.0,2.2222222222222223,1.5555555555555556,1.375,3.0,1.5,2.0,0.75,0.5,0.9125,0.9166666666666666,0.3393534235382343,-0.813248494984172,-1.0807131673662869,-0.7948168637093797,,,,,,,,,,,,,0.00033563214873921126,1.3605827924615643,,,1.968,1.3818143872946629,,,,,,,,,,,,,,
0,240626_100022,FalseCHOICE,9.0,1,2.0,426.0,,,,,,,,,,,1.0,1.0,,,B,,,,,,False,cue2.png,Easy,cue1.png,Hard,Left,Easy,Mid,0.0161543001886457,,,,,,,,,,,,,28,21,Male,2.0,1.0,1.0,0.0,2.1666666666666665,1.0,2.2222222222222223,1.5555555555555556,1.375,3.0,1.5,2.0,0.75,0.5,1.0,1.0,0.3584919294397182,-1.1956632245092977,-1.0258491312189626,-1.2321781051382061,,,,,,,,,,,,,,,,,,,0.00043335040967108556,0.7840873072661033,,,0.8169999999999997,-0.8514674575760293,,,,,,,,
1,240626_100046,FalseCHOICE,9.0,2,2.0,426.0,,,,,,,,,,,2.0,2.0,,,B,,,,,,False,cue1.png,Hard,cue2.png,Easy,Left,Hard,Mid,0.0169643999543041,,,,,,,,,,,,,28,21,Male,2.0,1.0,1.0,0.0,2.1666666666666665,1.0,2.2222222222222223,1.5555555555555556,1.375,3.0,1.5,2.0,0.75,0.5,,,,,,,,,,,,,,,,,,,,,,,,,-0.00014155726912664377,-0.6188255011331015,,,1.587,0.35795302066671775,,,,,,,,
2,240626_100110,FalseCHOICE,9.0,3,2.0,426.0,,,,,,,,,,,3.0,3.0,,,B,,,,,,False,cue1.png,Hard,cue2.png,Easy,Left,Hard,Mid,0.0163761000148952,,,,,,,,,,,,,28,21,Male,2.0,1.0,1.0,0.0,2.1666666666666665,1.0,2.2222222222222223,1.5555555555555556,1.375,3.0,1.5,2.0,0.75,0.5,,,,,,,,,,,,,,,,,,,,,,,,,0.000410199711530813,0.7275940438393698,,,1.5869999999999997,0.3579530206667174,,,,,,,,
3,240626_100134,FalseCHOICE,9.0,4,2.0,426.0,,,,,,,,,,,4.0,4.0,,,B,,,,,,False,cue1.png,Hard,cue2.png,Easy,Left,Hard,Mid,0.0164240999147295,,,,,,,,,,,,,28,21,Male,2.0,1.0,1.0,0.0,2.1666666666666665,1.0,2.2222222222222223,1.5555555555555556,1.375,3.0,1.5,2.0,0.75,0.5,0.9125,0.9166666666666666,0.3949387235676541,0.12410544554445462,-0.9290246563234212,0.16042523656357618,,,,,,,,,,,,,,,,,,,0.00012098138968962349,0.0218318787153182,-0.00015481797934947718,-0.3907498257904584,1.527,0.2637124639205296,,,,,,,,
4,240626_100158,FalseCHOICE,9.0,5,2.0,426.0,,,,,,,,,,,5.0,5.0,,,B,,,,,,False,cue2.png,Easy,cue1.png,Hard,Left,Easy,Mid,0.016200799960643,,,,,,,,,,,,,28,21,Male,2.0,1.0,1.0,0.0,2.1666666666666665,1.0,2.2222222222222223,1.5555555555555556,1.375,3.0,1.5,2.0,0.75,0.5,,,,,,,,,,,,,,,,,,,,,,,,,0.000774058626146025,1.615497181316005,-5.0939332670484755e-05,-0.07116991385438942,1.4699999999999998,0.17418393501165072,,,,,,,,
5,240626_100222,FalseCHOICE,9.0,6,2.0,426.0,,,,,,,,,,,6.0,6.0,,,B,,,,,,False,cue1.png,Hard,cue2.png,Easy,Right,Easy,Mid,0.0170648000203073,,,,,,,,,,,,,28,21,Male,2.0,1.0,1.0,0.0,2.1666666666666665,1.0,2.2222222222222223,1.5555555555555556,1.375,3.0,1.5,2.0,0.75,0.5,0.9125,0.9166666666666666,0.4102113940890002,0.6771415230489111,-0.8910826568183647,0.7061359709475555,,,,,,,,,,,,,,,,,,,3.807174359263645e-05,-0.18048756967429283,0.00013121623499216545,0.48922687733779874,1.791,0.678370913603757,,,,,,,,
6,240626_100247,FalseCHOICE,9.0,7,2.0,426.0,,,,,,,,,,,7.0,7.0,,,B,,,,,,False,cue1.png,Hard,cue2.png,Easy,Right,Easy,Mid,0.0166054000146687,,,,,,,,,,,,,28,21,Male,2.0,1.0,1.0,0.0,2.1666666666666665,1.0,2.2222222222222223,1.5555555555555556,1.375,3.0,1.5,2.0,0.75,0.5,1.0,1.0,0.3476655353271566,-1.5876959423735393,-1.0565143667473194,-1.6732288778579487,,,,,,,,,,,,,,,,,,,-4.596514513004494e-05,-0.3855577607937058,-1.634062624424667e-05,0.03527209233546558,,,,,,,,,,
7,240626_100311,FalseCHOICE,9.0,8,2.0,426.0,,,,,,,,,,,8.0,8.0,,,B,,,,,,False,cue2.png,Easy,cue1.png,Hard,Right,Hard,Mid,0.0167326000519096,,,,,,,,,,,,,28,21,Male,2.0,1.0,1.0,0.0,2.1666666666666665,1.0,2.2222222222222223,1.5555555555555556,1.375,3.0,1.5,2.0,0.75,0.5,,,,,,,,,,,,,,,,,,,,,,,,,-5.565258698028274e-05,-0.40919744548315434,-0.0005705942371576232,-1.6698744977362174,,,,,,,,,,
8,240626_100336,FalseCHOICE,9.0,9,2.0,426.0,,,,,,,,,,,9.0,9.0,,,B,,,,,,False,cue2.png,Easy,cue1.png,Hard,Left,Easy,Mid,0.016366200055927,,,,,,,,,,,,,28,21,Male,2.0,1.0,1.0,0.0,2.1666666666666665,1.0,2.2222222222222223,1.5555555555555556,1.375,3.0,1.5,2.0,0.75,0.5,0.9125,0.9166666666666666,0.4117642000235398,0.733369914931206,-0.8873044235159179,0.7604773998930046,,,,,,,,,,,,,,,,,,,-1.0739479654907434e-05,-0.2995986770973423,-0.0004792100637077308,-1.3887335025737042,2.822,2.297737813692422,,,,,,,,
9,240626_100400,FalseCHOICE,9.0,10,2.0,426.0,,,,,,,,,,,10.0,10.0,,,B,,,,,,False,cue1.png,Hard,cue2.png,Easy,Right,Easy,Mid,0.016867000143975,,,,,,,,,,,,,28,21,Male,2.0,1.0,1.0,0.0,2.1666666666666665,1.0,2.2222222222222223,1.5555555555555556,1.375,3.0,1.5,2.0,0.75,0.5,,,,,,,,,,,,,,,,,,,,,,,,,0.0006558449594835512,1.327027443991506,0.00020967149121815885,0.730592400255178,,,,,,,,,,
10,240626_100424,FalseCHOICE,9.0,11,2.0,426.0,,,,,,,,,,,11.0,11.0,,,B,,,,,,False,cue2.png,Easy,cue1.png,Hard,Right,Hard,Mid,0.0167290000244975,,,,,,,,,,,,,28,21,Male,2.0,1.0,1.0,0.0,2.1666666666666665,1.0,2.2222222222222223,1.5555555555555556,1.375,3.0,1.5,2.0,0.75,0.5,1.0,1.0,0.3796155058833606,-0.43076098668979845,-0.9685963651265607,-0.4087252181696355,,,,,,,,,,,,,,,,,,,3.462766255961803e-05,-0.1888919545391648,0.0003615449115730949,1.1978269653380855,,,,,,,,,,
11,240626_100449,FalseCHOICE,9.0,12,2.0,426.0,,,,,,,,,,,12.0,12.0,,,B,,,,,,False,cue1.png,Hard,cue2.png,Easy,Left,Hard,Mid,0.0165591000113636,,,,,,,,,,,,,28,21,Male,2.0,1.0,1.0,0.0,2.1666666666666665,1.0,2.2222222222222223,1.5555555555555556,1.375,3.0,1.5,2.0,0.75,0.5,,,,,,,,,,,,,,,,,,,,,,,,,5.64628566152533e-05,-0.1356088370156806,-0.00043890724690005475,-1.264742951503333,2.956,2.5082083904255748,,,,,,,,
12,240626_100514,FalseCHOICE,9.0,13,2.0,426.0,,,,,,,,,,,13.0,13.0,,,B,,,,,,False,cue2.png,Easy,cue1.png,Hard,Left,Easy,Mid,0.01612180005759,,,,,,,,,,,,,28,21,Male,2.0,1.0,1.0,0.0,2.1666666666666665,1.0,2.2222222222222223,1.5555555555555556,1.375,3.0,1.5,2.0,0.75,0.5,0.63125,0.75,0.4317790470496915,1.4581241401810714,-0.8398412867437005,1.4431283819711147,,,,,,,,,,,,,,,,,,,-0.00010942205312053496,-0.5404078563559012,-0.00022810185999709662,-0.6162057483735921,,,,,,,,,,
13,240626_100538,FalseCHOICE,9.0,14,2.0,426.0,,,,,,,,,,,14.0,14.0,,,B,,,,,,False,cue1.png,Hard,cue2.png,Easy,Right,Easy,Mid,0.0166869999375194,,,,,,,,,,,,,28,21,Male,2.0,1.0,1.0,0.0,2.1666666666666665,1.0,2.2222222222222223,1.5555555555555556,1.375,3.0,1.5,2.0,0.75,0.5,0.9125,0.9166666666666666,0.4018340353059637,0.3737904074242626,-0.9117161231057098,0.4093697438789593,,,,,,,,,,,,,,,,,,,0.00035088910961956826,0.582861930904022,0.00011095441991061921,0.42689193857569246,0.03799999999999992,-2.0750240193307037,,,,,,,,
14,240626_100602,FalseCHOICE,9.0,15,2.0,426.0,,,,,,,,,,,15.0,15.0,,,B,,,,,,False,cue2.png,Easy,cue1.png,Hard,Left,Easy,Mid,0.0162865999154746,,,,,,,,,,,,,28,21,Male,2.0,1.0,1.0,0.0,2.1666666666666665,1.0,2.2222222222222223,1.5555555555555556,1.375,3.0,1.5,2.0,0.75,0.5,,,,,,,,,,,,,,,,,,,,,,,,,4.7040071817517574e-05,-0.15860269493592546,-0.00013270530694903422,-0.322720773388163,0.8540000000000001,-0.793352447582546,,,,,,,,
15,240626_100626,FalseCHOICE,9.0,16,2.0,426.0,,,,,,,,,,,16.0,16.0,,,B,,,,,,False,cue2.png,Easy,cue1.png,Hard,Left,Easy,Mid,0.0160948000848293,,,,,,,,,,,,,28,21,Male,2.0,1.0,1.0,0.0,2.1666666666666665,1.0,2.2222222222222223,1.5555555555555556,1.375,3.0,1.5,2.0,0.75,0.5,0.9125,0.9166666666666666,0.378359641181305,-0.4762368900513236,-0.9719101039902309,-0.45638593432691743,,,,,,,,,,,,,,,,,,,-2.499318557110889e-05,-0.33438114276002484,-0.00026345383663558056,-0.7249651704693117,,,,,,,,,,
16,240626_100650,FalseCHOICE,9.0,17,2.0,426.0,,,,,,,,,,,17.0,17.0,,,B,,,,,,False,cue1.png,Hard,cue2.png,Easy,Right,Easy,Mid,0.0166803000029176,,,,,,,,,,,,,28,21,Male,2.0,1.0,1.0,0.0,2.1666666666666665,1.0,2.2222222222222223,1.5555555555555556,1.375,3.0,1.5,2.0,0.75,0.5,0.9125,0.9166666666666666,0.3974055882187231,0.21343266231737162,-0.9227978870138094,0.24998337522559003,,,,,,,,,,,,,,,,,,,-2.0152791427294637e-05,-0.322569418560657,0.00020967247890479618,0.7305954388470222,,,,,,,,,,
17,240626_100715,FalseCHOICE,9.0,18,2.0,426.0,,,,,,,,,,,18.0,18.0,,,B,,,,,,False,cue1.png,Hard,cue2.png,Easy,Right,Easy,Mid,0.0156125000212341,,,,,,,,,,,,,28,21,Male,2.0,1.0,1.0,0.0,2.1666666666666665,1.0,2.2222222222222223,1.5555555555555556,1.375,3.0,1.5,2.0,0.75,0.5,0.63125,0.75,0.4296116000041365,1.3796390834519943,-0.8448737342802,1.3707478886730224,,,,,,,,,,,,,,,,,,,-1.8467449413921318e-05,-0.3184567792895322,0.00020286802804656608,0.7096617255616887,,,,,,,,,,
18,240626_100739,FalseCHOICE,9.0,19,2.0,426.0,,,,,,,,,,,19.0,19.0,,,B,,,,,,False,cue2.png,Easy,cue1.png,Hard,Right,Hard,Mid,0.0168964997865259,,,,,,,,,,,,,28,21,Male,2.0,1.0,1.0,0.0,2.1666666666666665,1.0,2.2222222222222223,1.5555555555555556,1.375,3.0,1.5,2.0,0.75,0.5,0.7916666666666667,0.8333333333333334,0.3742621940944124,-0.6246088503807217,-0.9827986734626046,-0.6129936334643377,,,,,,,,,,,,,,,,,,,-6.029070065464992e-05,-0.42051555675658286,-0.00018035679351918223,-0.46931931282399064,,,,,,,,,,
19,240626_100805,FalseCHOICE,9.0,20,2.0,426.0,,,,,,,,,,,20.0,20.0,,,B,,,,,,False,cue2.png,Easy,cue1.png,Hard,Left,Easy,Mid,0.0162704000249505,,,,,,,,,,,,,28,21,Male,2.0,1.0,1.0,0.0,2.1666666666666665,1.0,2.2222222222222223,1.5555555555555556,1.375,3.0,1.5,2.0,0.75,0.5,0.7916666666666667,0.8333333333333334,0.4001605352934669,0.31319158279033066,-0.915889474155135,0.34934543056567563,,,,,,,,,,,,,,,,,,,0.0008607773629785635,1.827111725906862,-0.0002838351805611681,-0.7876678365620462,1.722,0.5699942733456409,,,,,,,,
20,240626_100828,FalseCHOICE,9.0,21,2.0,426.0,,,,,,,,,,,21.0,21.0,,,B,,,,,,False,cue2.png,Easy,cue1.png,Hard,Right,Hard,Mid,0.0168425000738352,,,,,,,,,,,,,28,21,Male,2.0,1.0,1.0,0.0,2.1666666666666665,1.0,2.2222222222222223,1.5555555555555556,1.375,3.0,1.5,2.0,0.75,0.5,0.9125,0.9166666666666666,0.3682145764092531,-0.8435981069205338,-0.9990894226743786,-0.8472995960385463,,,,,,,,,,,,,,,,,,,,,6.648588791486384e-05,0.29008567479132097,0.8739999999999999,-0.7619389286671503,,,,,,,,
21,240626_100853,FalseCHOICE,9.0,22,2.0,426.0,,,,,,,,,,,22.0,22.0,,,B,,,,,,False,cue1.png,Hard,cue2.png,Easy,Left,Hard,Mid,0.0164292999543249,,,,,,,,,,,,,28,21,Male,2.0,1.0,1.0,0.0,2.1666666666666665,1.0,2.2222222222222223,1.5555555555555556,1.375,3.0,1.5,2.0,0.75,0.5,0.7916666666666667,0.8333333333333334,0.4207791588269174,1.0598090565676348,-0.8656471462877369,1.0719688556707379,,,,,,,,,,,,,,,,,,,0.00014094395699471322,0.07054533722992413,0.0002963906520521177,0.9973816073588067,1.0729999999999997,-0.44937441545896023,,,,,,,,
22,240626_100918,FalseCHOICE,9.0,23,2.0,426.0,,,,,,,,,,,23.0,23.0,,,B,,,,,,False,cue2.png,Easy,cue1.png,Hard,Right,Hard,Mid,0.0142645000014454,,,,,,,,,,,,,28,21,Male,2.0,1.0,1.0,0.0,2.1666666666666665,1.0,2.2222222222222223,1.5555555555555556,1.375,3.0,1.5,2.0,0.75,0.5,0.9125,0.9166666666666666,0.4702906117719762,2.852659867433446,-0.7544044524417874,2.6719460035655125,,,,,,,,,,,,,,,,,,,-0.00018056102953942004,-0.7140040438397289,8.993781931254663e-05,0.36223492211413844,1.28,-0.124244494684611,,,,,,,,
23,240626_100942,FalseCHOICE,9.0,24,2.0,426.0,,,,,,,,,,,24.0,24.0,,,B,,,,,,False,cue1.png,Hard,cue2.png,Easy,Left,Hard,Mid,0.0151829000096768,,,,,,,,,,,,,28,21,Male,2.0,1.0,1.0,0.0,2.1666666666666665,1.0,2.2222222222222223,1.5555555555555556,1.375,3.0,1.5,2.0,0.75,0.5,0.1458333333333333,0.5833333333333333,0.3990511470474303,0.2730197134921532,-0.9186656822188669,0.30941589176896667,,,,,,,,,,,,,,,,,,,-0.00019581648330150095,-0.7512310148301357,-0.00016768531476372278,-0.4303358432252435,0.72,-1.0038230243156996,,,,,,,,
24,240626_101006,FalseCHOICE,9.0,25,2.0,426.0,,,,,,,,,,,25.0,25.0,,,B,,,,,,False,cue1.png,Hard,cue2.png,Easy,Right,Easy,Mid,0.0180485001765191,,,,,,,,,,,,,28,21,Male,2.0,1.0,1.0,0.0,2.1666666666666665,1.0,2.2222222222222223,1.5555555555555556,1.375,3.0,1.5,2.0,0.75,0.5,0.7916666666666667,0.8333333333333334,0.3854105294243816,-0.22091837378900345,-0.9534462026060532,-0.1908240420863622,,,,,,,,,,,,,,,,,,,,,0.0007936918469783182,2.527315594382506,1.879,0.8165903968314996,,,,,,,,
25,240626_101030,FalseCHOICE,9.0,26,2.0,426.0,,,,,,,,,,,26.0,26.0,,,B,,,,,,False,cue2.png,Easy,cue1.png,Hard,Right,Hard,Mid,0.0167213999666273,,,,,,,,,,,,,28,21,Male,2.0,1.0,1.0,0.0,2.1666666666666665,1.0,2.2222222222222223,1.5555555555555556,1.375,3.0,1.5,2.0,0.75,0.5,0.9125,0.9166666666666666,0.3853537647108383,-0.2229738711871013,-0.9535934972175909,-0.1929425453724725,,,,,,,,,,,,,,,,,,,3.4922646615820514e-06,-0.26486980301234275,0.0002478241814430305,0.8479681437019243,0.6459999999999999,-1.1200530443026648,,,,,,,,
26,240626_101054,FalseCHOICE,9.0,27,2.0,426.0,,,,,,,,,,,27.0,27.0,,,B,,,,,,False,cue2.png,Easy,cue1.png,Hard,Left,Easy,Mid,0.0151779998559504,,,,,,,,,,,,,28,21,Male,2.0,1.0,1.0,0.0,2.1666666666666665,1.0,2.2222222222222223,1.5555555555555556,1.375,3.0,1.5,2.0,0.75,0.5,0.7916666666666667,0.8333333333333334,0.4164586294004145,0.9033590995390886,-0.8759681514793819,0.9235242982888092,,,,,,,,,,,,,,,,,,,3.933437239592077e-05,-0.17740645215628426,-0.00021891546080078303,-0.5879440339594671,1.4600000000000002,0.15847717555395338,,,,,,,,
27,240626_101118,FalseCHOICE,9.0,28,2.0,426.0,,,,,,,,,,,28.0,28.0,,,B,,,,,,False,cue1.png,Hard,cue2.png,Easy,Left,Hard,Mid,0.0165904001332819,,,,,,,,,,,,,28,21,Male,2.0,1.0,1.0,0.0,2.1666666666666665,1.0,2.2222222222222223,1.5555555555555556,1.375,3.0,1.5,2.0,0.75,0.5,0.7041666666666667,0.7745098039215687,0.3965767999907257,0.1834215525999883,-0.9248855618572814,0.21995684560544534,,,,,,,,,,,,,,,,,,,0.00037351095198087875,0.6380646592179643,-0.0007273822239107011,-2.1522285964955277,1.0729999999999997,-0.44937441545896023,,,,,,,,
28,240626_101143,FalseCHOICE,9.0,29,2.0,426.0,,,,,,,,,,,29.0,29.0,,,B,,,,,,False,cue2.png,Easy,cue1.png,Hard,Right,Hard,Mid,0.0137203000485897,,,,,,,,,,,,,28,21,Male,2.0,1.0,1.0,0.0,2.1666666666666665,1.0,2.2222222222222223,1.5555555555555556,1.375,3.0,1.5,2.0,0.75,0.5,0.9125,0.9166666666666666,0.4091095940949505,0.6372444306542295,-0.8937722026108191,0.6674528749403452,,,,,,,,,,,,,,,,,,,0.00010239879449876156,-0.02351411642093713,-0.00015228988388319396,-0.3829722068831055,0.9589999999999999,-0.6284314732767173,,,,,,,,
29,240626_101209,FalseCHOICE,9.0,30,2.0,426.0,,,,,,,,,,,30.0,30.0,,,B,,,,,,False,cue2.png,Easy,cue1.png,Hard,Left,Easy,Mid,0.0161818000487983,,,,,,,,,,,,,28,21,Male,2.0,1.0,1.0,0.0,2.1666666666666665,1.0,2.2222222222222223,1.5555555555555556,1.375,3.0,1.5,2.0,0.75,0.5,0.7916666666666667,0.7745098039215687,0.462217212509131,2.5603153783533705,-0.7717203414433741,2.422895699764101,,,,,,,,,,,,,,,,,,,0.0007652748914254767,1.5940627590609258,-0.00040356839275710113,-1.1560239004184036,1.731,0.5841303568575692,,,,,,,,
30,240626_101233,FalseCHOICE,9.0,31,2.0,426.0,,,,,,,,,,,31.0,31.0,,,B,,,,,,False,cue1.png,Hard,cue2.png,Easy,Right,Easy,Mid,0.0166442999616265,,,,,,,,,,,,,28,21,Male,2.0,1.0,1.0,0.0,2.1666666666666665,1.0,2.2222222222222223,1.5555555555555556,1.375,3.0,1.5,2.0,0.75,0.5,0.9125,0.9166666666666666,0.3858821117867003,-0.20384198498637035,-0.952223366043416,-0.17323627530197316,,,,,,,,,,,,,,,,,,,,,,,1.6,0.3783718079617253,,,,,,,,
31,240626_101257,FalseCHOICE,9.0,32,2.0,426.0,,,,,,,,,,,32.0,32.0,,,B,,,,,,False,cue2.png,Easy,cue1.png,Hard,Left,Easy,Mid,0.0161323999054729,,,,,,,,,,,,,28,21,Male,2.0,1.0,1.0,0.0,2.1666666666666665,1.0,2.2222222222222223,1.5555555555555556,1.375,3.0,1.5,2.0,0.75,0.5,0.63125,0.75,0.4245563117677675,1.1965828999909283,-0.8567106276875135,1.2005006724379084,,,,,,,,,,,,,,,,,,,-0.001522169763031908,-3.9878515596928787,-0.0007230762510061963,-2.138981384622685,1.4769999999999999,0.1851786666320395,,,,,,,,
32,240626_101321,FalseCHOICE,9.0,33,2.0,426.0,,,,,,,,,,,33.0,33.0,,,B,,,,,,False,cue1.png,Hard,cue2.png,Easy,Left,Hard,Mid,0.015883200103417,,,,,,,,,,,,,28,21,Male,2.0,1.0,1.0,0.0,2.1666666666666665,1.0,2.2222222222222223,1.5555555555555556,1.375,3.0,1.5,2.0,0.75,0.5,0.7916666666666667,0.8333333333333334,0.3825399647055961,-0.3248639051275457,-0.9609221482830562,-0.2983487866657398,,,,,,,,,,,,,,,,,,,-3.519868496101907e-05,-0.35928501226504944,-0.000102568563715307,-0.23000587907079045,2.824,2.300879165583961,,,,,,,,
33,240626_101346,FalseCHOICE,9.0,34,2.0,426.0,,,,,,,,,,,34.0,34.0,,,B,,,,,,False,cue1.png,Hard,cue2.png,Easy,Right,Easy,Mid,0.0171062001027166,,,,,,,,,,,,,28,21,Male,2.0,1.0,1.0,0.0,2.1666666666666665,1.0,2.2222222222222223,1.5555555555555556,1.375,3.0,1.5,2.0,0.75,0.5,0.9125,0.9166666666666666,0.4100319823140607,0.670644873747665,-0.8915201166820151,0.6998440900090098,,,,,,,,,,,,,,,,,,,,,-0.00012565638521845352,-0.30103495192319407,0.958,-0.630002149222487,,,,,,,,
34,240626_101409,FalseCHOICE,9.0,35,2.0,426.0,,,,,,,,,,,35.0,35.0,,,B,,,,,,False,cue1.png,Hard,cue2.png,Easy,Right,Easy,Mid,0.0156402001157403,,,,,,,,,,,,,28,21,Male,2.0,1.0,1.0,0.0,2.1666666666666665,1.0,2.2222222222222223,1.5555555555555556,1.375,3.0,1.5,2.0,0.75,0.5,0.63125,0.75,0.365136105882223,-0.9550720801593501,-1.0074851020788893,-0.9680526515773666,,,,,,,,,,,,,,,,,,,,,8.417686320870768e-05,0.3445114928705734,1.3579999999999999,-0.001731770914566781,,,,,,,,
35,240626_101433,FalseCHOICE,9.0,36,2.0,426.0,,,,,,,,,,,36.0,36.0,,,B,,,,,,False,cue2.png,Easy,cue1.png,Hard,Right,Hard,Mid,0.0170318998862057,,,,,,,,,,,,,28,21,Male,2.0,1.0,1.0,0.0,2.1666666666666665,1.0,2.2222222222222223,1.5555555555555556,1.375,3.0,1.5,2.0,0.75,0.5,0.7916666666666667,0.8333333333333334,0.3933857646907734,0.06787151549303128,-0.9329645590129116,0.1037585553625317,,,,,,,,,,,,,,,,,,,0.0008207541107275646,1.729445378269725,0.0002698447121955716,0.9157137247589188,0.7170000000000001,-1.0085350521530088,,,,,,,,
36,240626_101457,FalseCHOICE,9.0,37,2.0,426.0,,,,,,,,,,,37.0,37.0,,,B,,,,,,False,cue1.png,Hard,cue2.png,Easy,Right,Easy,Mid,0.0166988000273704,,,,,,,,,,,,,28,21,Male,2.0,1.0,1.0,0.0,2.1666666666666665,1.0,2.2222222222222223,1.5555555555555556,1.375,3.0,1.5,2.0,0.75,0.5,0.0666666666666666,0.6666666666666667,0.36697136471048,-0.8886158345298725,-1.0024714592837434,-0.8959426223915455,,,,,,,,,,,,,,,,,,,,,-5.959678393308281e-05,-0.09780433392574198,0.3360000000000001,-1.606962587491303,,,,,,,,
37,240626_101520,FalseCHOICE,9.0,38,2.0,426.0,,,,,,,,,,,38.0,38.0,,,B,,,,,,False,cue2.png,Easy,cue1.png,Hard,Left,Easy,Mid,0.0165593000128865,,,,,,,,,,,,,28,21,Male,2.0,1.0,1.0,0.0,2.1666666666666665,1.0,2.2222222222222223,1.5555555555555556,1.375,3.0,1.5,2.0,0.75,0.5,0.63125,0.75,0.3690974823719657,-0.8116273491056886,-0.9966944899611413,-0.8128538497207547,,,,,,,,,,,,,,,,,,,-2.673828703483828e-05,-0.3386396094420876,0.00030538234952976005,1.0250443270796425,1.8150000000000002,0.7160671363022326,,,,,,,,
38,240626_101544,FalseCHOICE,9.0,39,2.0,426.0,,,,,,,,,,,39.0,39.0,,,B,,,,,,False,cue2.png,Easy,cue1.png,Hard,Left,Easy,Mid,0.0162060000002384,,,,,,,,,,,,,28,21,Male,2.0,1.0,1.0,0.0,2.1666666666666665,1.0,2.2222222222222223,1.5555555555555556,1.375,3.0,1.5,2.0,0.75,0.5,0.7916666666666667,0.8333333333333334,0.3838545411879964,-0.2772619994627734,-0.9574915971464631,-0.2490079874323596,,,,,,,,,,,,,,,,,,,-0.00042124336599813584,-1.3013267480337314,0.0005580948785573808,1.8025077457296754,1.3359999999999999,-0.03628664172150243,,,,,,,,
39,240626_101608,FalseCHOICE,9.0,40,2.0,426.0,,,,,,,,,,,40.0,40.0,,,B,,,,,,False,cue1.png,Hard,cue2.png,Easy,Right,Easy,Mid,0.0168606999795883,,,,,,,,,,,,,28,21,Male,2.0,1.0,1.0,0.0,2.1666666666666665,1.0,2.2222222222222223,1.5555555555555556,1.375,3.0,1.5,2.0,0.75,0.5,0.63125,0.75,0.3785747353343622,-0.46844815221830083,-0.9713417742498459,-0.4482117831476569,,,,,,,,,,,,,,,,,,,0.0003354235035332525,0.5451221377714576,0.0005105760233712351,1.6563172432424846,2.214,1.3427668386643827,,,,,,,,
40,240626_101632,FalseCHOICE,9.0,41,2.0,426.0,,,,,,,,,,,41.0,41.0,,,B,,,,,,False,cue1.png,Hard,cue2.png,Easy,Right,Easy,Mid,0.0156485000625252,,,,,,,,,,,,,28,21,Male,2.0,1.0,1.0,0.0,2.1666666666666665,1.0,2.2222222222222223,1.5555555555555556,1.375,3.0,1.5,2.0,0.75,0.5,0.7041666666666667,0.7745098039215687,0.3413515625434229,-1.816330138135539,-1.0748423575879031,-1.9368360011479298,,,,,,,,,,,,,,,,,,,,,-0.00027209112054305245,-0.7515375462054592,1.393,0.05324188718737647,,,,,,,,
41,240626_101655,FalseCHOICE,9.0,42,2.0,426.0,,,,,,,,,,,42.0,42.0,,,B,,,,,,False,cue2.png,Easy,cue1.png,Hard,Right,Hard,Mid,0.0171605001669377,,,,,,,,,,,,,28,21,Male,2.0,1.0,1.0,0.0,2.1666666666666665,1.0,2.2222222222222223,1.5555555555555556,1.375,3.0,1.5,2.0,0.75,0.5,0.7916666666666667,0.8333333333333334,0.3581946764470023,-1.2064270021268588,-1.0266786514229664,-1.2441088964939162,,,,,,,,,,,,,,,,,,,4.510436225579548e-05,-0.1633262911542953,-0.00023691337523941165,-0.6433141422080282,,,,,,,,,,
42,240626_101719,FalseCHOICE,9.0,43,2.0,426.0,,,,,,,,,,,43.0,43.0,,,B,,,,,,False,cue1.png,Hard,cue2.png,Easy,Right,Easy,Mid,0.0156807000748813,,,,,,,,,,,,,28,21,Male,2.0,1.0,1.0,0.0,2.1666666666666665,1.0,2.2222222222222223,1.5555555555555556,1.375,3.0,1.5,2.0,0.75,0.5,0.7916666666666667,0.8333333333333334,0.3944286352900021,0.10563472558363474,-0.930317054198575,0.14183698600307332,,,,,,,,,,,,,,,,,,,,,0.00011001480419276823,0.4240012356452577,1.946,0.9218256851980762,,,,,,,,
43,240626_101743,FalseCHOICE,9.0,44,2.0,426.0,,,,,,,,,,,44.0,44.0,,,B,,,,,,False,cue2.png,Easy,cue1.png,Hard,Right,Hard,Mid,0.0163738001137971,,,,,,,,,,,,,28,21,Male,2.0,1.0,1.0,0.0,2.1666666666666665,1.0,2.2222222222222223,1.5555555555555556,1.375,3.0,1.5,2.0,0.75,0.5,0.7916666666666667,0.8333333333333334,0.3885455058668466,-0.10739827444642179,-0.9453449838154822,-0.07430614336521991,,,,,,,,,,,,,,,,,,,,,,,0.617,-1.165602646729989,,,,,,,,
44,240626_101807,FalseCHOICE,9.0,45,2.0,426.0,,,,,,,,,,,45.0,45.0,,,B,,,,,,False,cue1.png,Hard,cue2.png,Easy,Right,Easy,Mid,0.0164526000153273,,,,,,,,,,,,,28,21,Male,2.0,1.0,1.0,0.0,2.1666666666666665,1.0,2.2222222222222223,1.5555555555555556,1.375,3.0,1.5,2.0,0.75,0.5,0.9125,0.9166666666666666,0.3756465059020282,-0.5744817707022256,-0.9791067216822663,-0.5598931710838518,,,,,,,,,,,,,,,,,,,-3.6818580885893733e-05,-0.3632379473624425,0.0001261593589022619,0.4736695316546477,1.5050000000000001,0.22915759311359432,,,,,,,,
45,240626_101831,FalseCHOICE,9.0,46,2.0,426.0,,,,,,,,,,,46.0,46.0,,,B,,,,,,False,cue1.png,Hard,cue2.png,Easy,Right,Easy,Mid,0.0176097999792546,,,,,,,,,,,,,28,21,Male,2.0,1.0,1.0,0.0,2.1666666666666665,1.0,2.2222222222222223,1.5555555555555556,1.375,3.0,1.5,2.0,0.75,0.5,0.0374999999999999,0.6911764705882353,0.3634110375423915,-1.01753823673322,-1.0122207504972998,-1.0361643539100467,,,,,,,,,,,,,,,,,,,,,0.0002979167088904607,1.0020764809021074,1.009,-0.5498976759882273,,,,,,,,
46,240626_101856,FalseCHOICE,9.0,47,2.0,426.0,,,,,,,,,,,47.0,47.0,,,B,,,,,,False,cue2.png,Easy,cue1.png,Hard,Left,Easy,Mid,0.0161965999286621,,,,,,,,,,,,,28,21,Male,2.0,1.0,1.0,0.0,2.1666666666666665,1.0,2.2222222222222223,1.5555555555555556,1.375,3.0,1.5,2.0,0.75,0.5,0.9125,0.9166666666666666,0.4074126000324374,0.5757948669666679,-0.8979288477530176,0.6076688387084002,,,,,,,,,,,,,,,,,,,6.964260284048496e-05,-0.10344709092542886,-0.00016125814019288687,-0.4105628104700828,1.356,-0.004873122806106037,,,,,,,,
47,240626_101919,FalseCHOICE,9.0,48,2.0,426.0,,,,,,,,,,,48.0,48.0,,,B,,,,,,False,cue2.png,Easy,cue1.png,Hard,Left,Easy,Mid,0.0161036001518368,,,,,,,,,,,,,28,21,Male,2.0,1.0,1.0,0.0,2.1666666666666665,1.0,2.2222222222222223,1.5555555555555556,1.375,3.0,1.5,2.0,0.75,0.5,0.9125,0.9166666666666666,0.3976836000322638,0.22349970086479048,-0.922098564651038,0.2600415620670148,,,,,,,,,,,,,,,,,,,0.00021353498901069672,0.24768488910216507,,,1.0650000000000002,-0.46193982302511793,,,,,,,,
48,240626_101943,FalseCHOICE,9.0,49,2.0,426.0,,,,,,,,,,,49.0,49.0,,,B,,,,,,False,cue1.png,Hard,cue2.png,Easy,Right,Easy,Mid,0.0166426999494433,,,,,,,,,,,,,28,21,Male,2.0,1.0,1.0,0.0,2.1666666666666665,1.0,2.2222222222222223,1.5555555555555556,1.375,3.0,1.5,2.0,0.75,0.5,1.0,1.0,0.3394368411425282,-1.8856637894825412,-1.0804673842163088,-2.0177394182677264,,,,,,,,,,,,,,,,,,,-0.00015161916004226327,-0.6433789314712701,,,,,,,,,,,,
49,240626_102007,FalseCHOICE,9.0,50,2.0,426.0,,,,,,,,,,,50.0,50.0,,,B,,,,,,False,cue2.png,Easy,cue1.png,Hard,Right,Hard,Mid,0.0158879000227898,,,,,,,,,,,,,28,21,Male,2.0,1.0,1.0,0.0,2.1666666666666665,1.0,2.2222222222222223,1.5555555555555556,1.375,3.0,1.5,2.0,0.75,0.5,0.0374999999999999,0.6911764705882353,0.3792878500098595,-0.44262567785818996,-0.9694598634661474,-0.42114470894983125,,,,,,,,,,,,,,,,,,,0.0008470784721933142,1.7936831424103288,,,0.613,-1.1718853505130682,,,,,,,,
0,240626_093025,OFFLINERATING,9.0,1,1.0,,,,,,,,,,,,,,,,,T0,cue2.png,Easy,50.0,1.780562800122425,,,,,,,,,,,,,,,,,,,,,,28,21,Male,2.0,1.0,1.0,0.0,2.1666666666666665,1.0,2.2222222222222223,1.5555555555555556,1.375,3.0,1.5,2.0,0.75,0.5,,,,,,,,,,,,,,,,,,,,,,,,,,,,,,,0.2702517988695231,,,,,1.4480000000000002,0.27471657338769984,
1,240626_093034,OFFLINERATING,9.0,2,3.0,,,,,,,,,,,,,,,,,T0,cue1.png,Hard,42.0,2.252420899923891,,,,,,,,,,,,,,,,,,,,,,28,21,Male,2.0,1.0,1.0,0.0,2.1666666666666665,1.0,2.2222222222222223,1.5555555555555556,1.375,3.0,1.5,2.0,0.75,0.5,,,,,,,,,,,,,,,,,,,,,,,,,,,,,,,-0.10575070390546557,0.0001208983122340363,1.2480544987356983,,,1.093,-1.666067178903509,
2,240626_095354,OFFLINERATING,9.0,3,1.0,,,,,,,,,,,,,,,,,T1,cue2.png,Easy,55.0,2.3226288000587374,,,,,,,,,,,,,,,,,,,,,,28,21,Male,2.0,1.0,1.0,0.0,2.1666666666666665,1.0,2.2222222222222223,1.5555555555555556,1.375,3.0,1.5,2.0,0.75,0.5,,,,,,,,,,,,,,,,,,,,,,,,,,,,,,,0.505253363103891,,,4.3896279407141386e-05,1.326002506041159,,,
3,240626_095401,OFFLINERATING,9.0,4,3.0,,,,,,,,,,,,,,,,,T1,cue1.png,Hard,20.0,1.4021534000057727,,,,,,,,,,,,,,,,,,,,,,28,21,Male,2.0,1.0,1.0,0.0,2.1666666666666665,1.0,2.2222222222222223,1.5555555555555556,1.375,3.0,1.5,2.0,0.75,0.5,,,,,,,,,,,,,,,,,,,,,,,,,,,,,,,-1.1397575865366845,,,-0.00015658949574086497,-0.23722194929689694,1.58,0.9963601094509089,
4,240626_095854,OFFLINERATING,9.0,5,1.0,,,,,,,,,,,,,,,,,T2,cue2.png,Easy,81.0,1.6356440000236034,,,,,,,,,,,,,,,,,,,,,,28,21,Male,2.0,1.0,1.0,0.0,2.1666666666666665,1.0,2.2222222222222223,1.5555555555555556,1.375,3.0,1.5,2.0,0.75,0.5,,,,,,,,,,,,,,,,,,,,,,,,,,,,,,,1.7272614971226041,-7.71831895255825e-06,-1.2000220202982703,-0.00026580310669420794,-1.0887805567442623,,,
5,240626_095901,OFFLINERATING,9.0,6,3.0,,,,,,,,,,,,,,,,,T2,cue1.png,Hard,6.0,1.186043200083077,,,,,,,,,,,,,,,,,,,,,,28,21,Male,2.0,1.0,1.0,0.0,2.1666666666666665,1.0,2.2222222222222223,1.5555555555555556,1.375,3.0,1.5,2.0,0.75,0.5,,,,,,,,,,,,,,,,,,,,,,,,,,,,,,,-1.7977619663929145,,,,,,,
6,240626_102026,OFFLINERATING,9.0,7,1.0,,,,,,,,,,,,,,,,,T3,cue2.png,Easy,50.0,1.070703599834815,,,,,,,,,,,,,,,,,,,,,,28,21,Male,2.0,1.0,1.0,0.0,2.1666666666666665,1.0,2.2222222222222223,1.5555555555555556,1.375,3.0,1.5,2.0,0.75,0.5,,,,,,,,,,,,,,,,,,,,,,,,,,,,,,,0.2702517988695231,5.280471326654787e-05,-0.04803247843742766,,,1.47,0.39499049606490033,
7,240626_102033,OFFLINERATING,9.0,8,3.0,,,,,,,,,,,,,,,,,T3,cue1.png,Hard,50.0,0.6848712000064552,,,,,,,,,,,,,,,,,,,,,,28,21,Male,2.0,1.0,1.0,0.0,2.1666666666666665,1.0,2.2222222222222223,1.5555555555555556,1.375,3.0,1.5,2.0,0.75,0.5,,,,,,,,,,,,,,,,,,,,,,,,,,,,,,,0.2702517988695231,,,,,,,
0,240626_095921,LEARNINGCHECK,9.0,1,,,,,,,,,,,,1.0,1.0,1.0,,,B,,,,,,,,,,,,,,,cue2.png,Easy,Left,Left,Easy,0.0132971999701112,1.0,,,,,,28,21,Male,2.0,1.0,1.0,0.0,2.1666666666666665,1.0,2.2222222222222223,1.5555555555555556,1.375,3.0,1.5,2.0,0.75,0.5,,,,,,,,,,,,,,,,,,,,,,,,,,,,,,,,,,,,,,
1,240626_102051,LEARNINGCHECK,9.0,1,,,,,,,,,,,,1.0,1.0,1.0,,,B,,,,,,,,,,,,,,,cue2.png,Easy,Middle,Middle,Mid,0.0159401001874357,1.0,,,,,,28,21,Male,2.0,1.0,1.0,0.0,2.1666666666666665,1.0,2.2222222222222223,1.5555555555555556,1.375,3.0,1.5,2.0,0.75,0.5,,,,,,,,,,,,,,,,,,,,,,,,,,,,,,,,,,,,,,
2,240626_095927,LEARNINGCHECK,9.0,2,,,,,,,,,,,,2.0,2.0,2.0,,,B,,,,,,,,,,,,,,,cue1.png,Hard,Right,Right,Hard,0.012911400059238,1.0,,,,,,28,21,Male,2.0,1.0,1.0,0.0,2.1666666666666665,1.0,2.2222222222222223,1.5555555555555556,1.375,3.0,1.5,2.0,0.75,0.5,,,,,,,,,,,,,,,,,,,,,,,,,,,,,,,,,,,,,,
3,240626_102055,LEARNINGCHECK,9.0,2,,,,,,,,,,,,2.0,2.0,2.0,,,B,,,,,,,,,,,,,,,cue1.png,Hard,Middle,Middle,Mid,0.0117856001015752,1.0,,,,,,28,21,Male,2.0,1.0,1.0,0.0,2.1666666666666665,1.0,2.2222222222222223,1.5555555555555556,1.375,3.0,1.5,2.0,0.75,0.5,,,,,,,,,,,,,,,,,,,,,,,,,,,,,,,,,,,,,,
0,240626_102113,DEMANDRATING,9.0,-1,,,,,,,,,,,,,,,,,,,,,,,,,,,,,,,,,,,,,,,1.0,MentalDemand,1.0,4.0,6.694489399902523,28,21,Male,2.0,1.0,1.0,0.0,2.1666666666666665,1.0,2.2222222222222223,1.5555555555555556,1.375,3.0,1.5,2.0,0.75,0.5,,,,,,,,,,,,,,,,,,,,,,,,,,,,,,,,,,,,,,-2.1230415420385813
1,240626_102118,DEMANDRATING,9.0,-1,,,,,,,,,,,,,,,,,,,,,,,,,,,,,,,,,,,,,,,2.0,Effort,1.0,50.0,3.888840900035575,28,21,Male,2.0,1.0,1.0,0.0,2.1666666666666665,1.0,2.2222222222222223,1.5555555555555556,1.375,3.0,1.5,2.0,0.75,0.5,,,,,,,,,,,,,,,,,,,,,,,,,,,,,,,,,,,,,,-0.6128367337843329
2,240626_102121,DEMANDRATING,9.0,-1,,,,,,,,,,,,,,,,,,,,,,,,,,,,,,,,,,,,,,,3.0,Frustration,1.0,89.0,1.0262189998757094,28,21,Male,2.0,1.0,1.0,0.0,2.1666666666666665,1.0,2.2222222222222223,1.5555555555555556,1.375,3.0,1.5,2.0,0.75,0.5,,,,,,,,,,,,,,,,,,,,,,,,,,,,,,,,,,,,,,0.6675542993007908
3,240626_102130,DEMANDRATING,9.0,-1,,,,,,,,,,,,,,,,,,,,,,,,,,,,,,,,,,,,,,,4.0,MentalDemand,2.0,40.0,7.1780824000015855,28,21,Male,2.0,1.0,1.0,0.0,2.1666666666666665,1.0,2.2222222222222223,1.5555555555555556,1.375,3.0,1.5,2.0,0.75,0.5,,,,,,,,,,,,,,,,,,,,,,,,,,,,,,,,,,,,,,-0.9411421268830825
4,240626_102138,DEMANDRATING,9.0,-1,,,,,,,,,,,,,,,,,,,,,,,,,,,,,,,,,,,,,,,5.0,Effort,2.0,77.0,6.866501299897209,28,21,Male,2.0,1.0,1.0,0.0,2.1666666666666665,1.0,2.2222222222222223,1.5555555555555556,1.375,3.0,1.5,2.0,0.75,0.5,,,,,,,,,,,,,,,,,,,,,,,,,,,,,,,,,,,,,,0.2735878275822912
5,240626_102146,DEMANDRATING,9.0,-1,,,,,,,,,,,,,,,,,,,,,,,,,,,,,,,,,,,,,,,6.0,Frustration,2.0,66.0,6.958563299849629,28,21,Male,2.0,1.0,1.0,0.0,2.1666666666666665,1.0,2.2222222222222223,1.5555555555555556,1.375,3.0,1.5,2.0,0.75,0.5,,,,,,,,,,,,,,,,,,,,,,,,,,,,,,,,,,,,,,-0.08754810482633339
6,240626_102150,DEMANDRATING,9.0,-1,,,,,,,,,,,,,,,,,,,,,,,,,,,,,,,,,,,,,,,7.0,MentalDemand,3.0,92.0,2.1705769000109285,28,21,Male,2.0,1.0,1.0,0.0,2.1666666666666665,1.0,2.2222222222222223,1.5555555555555556,1.375,3.0,1.5,2.0,0.75,0.5,,,,,,,,,,,,,,,,,,,,,,,,,,,,,,,,,,,,,,0.7660459172304157
7,240626_102155,DEMANDRATING,9.0,-1,,,,,,,,,,,,,,,,,,,,,,,,,,,,,,,,,,,,,,,8.0,Effort,3.0,100.0,3.277481499826536,28,21,Male,2.0,1.0,1.0,0.0,2.1666666666666665,1.0,2.2222222222222223,1.5555555555555556,1.375,3.0,1.5,2.0,0.75,0.5,,,,,,,,,,,,,,,,,,,,,,,,,,,,,,,,,,,,,,1.0286902317094155
8,240626_102158,DEMANDRATING,9.0,-1,,,,,,,,,,,,,,,,,,,,,,,,,,,,,,,,,,,,,,,9.0,Frustration,3.0,100.0,1.8604311000090088,28,21,Male,2.0,1.0,1.0,0.0,2.1666666666666665,1.0,2.2222222222222223,1.5555555555555556,1.375,3.0,1.5,2.0,0.75,0.5,,,,,,,,,,,,,,,,,,,,,,,,,,,,,,,,,,,,,,1.0286902317094155
