,END,Phase,Block,TrialN,NbackLevel,ISI,Letter_Resp,Letter_RT,Letter_Accuracy,Trial_A_measure,Trial_ACC,Trial_RT,TrialCountCali,CaliEnd_A_measure,ISI_calibrated,TrialIndex,TrialNumber_total,TrialNumber_valid,CueLearning,TrialDemandLearning,CueMapping,OfflineRatingTimePoint,CueFigure,TrialDemand,OfflineRating,OfflineRatingRT,PhaseType,CueLeft,CueDemandLeft,CueRight,CueDemandRight,Choice,ChoiceDemand,TaskDemand,ChoiceRT,CueCheck,CueDemandCheck,CorrectAnswer,Answer,AnswerDemand,AnswerRT,AnswerACC,DemandRatingQuesIndex,QuesTLX,DemandLevel,DemandRating,DemandRatingRT,PID,Age,Gender,BAI_bis,BAI_bas_d,BAI_bas_rr,BAI_bas_fs,NFC,BFI_ext,BFI_agr,BFI_con,BFI_neu,BFI_open,UPPS_lps,UPPS_lpm,UPPS_pu,UPPS_ss,Task_A_measure,Task_ACC,Task_RT,Task_RT_z,cue_i_on_zyg_values,cue_i_on_zyg_zvalues,cue_e_on_zyg_values,cue_e_on_zyg_zvalues,cue_i_on_cor_values,cue_i_on_cor_zvalues,cue_e_on_cor_values,cue_e_on_cor_zvalues,cue_i_on_scr_values,cue_i_on_scr_zvalues,cue_e_on_scr_values,cue_e_on_scr_zvalues,cue_e_true_zyg_values,cue_e_true_zyg_zvalues,cue_e_true_cor_values,cue_e_true_cor_zvalues,cue_e_true_scr_values,cue_e_true_scr_zvalues,cue_e_false_zyg_values,cue_e_false_zyg_zvalues,cue_e_false_cor_values,cue_e_false_cor_zvalues,cue_e_false_scr_values,cue_e_false_scr_zvalues,OfflineRating_z,cue_i_off_zyg_values,cue_i_off_zyg_zvalues,cue_i_off_cor_values,cue_i_off_cor_zvalues,cue_i_off_scr_values,cue_i_off_scr_zvalues,DemandRating_z
0,240702_144707,PRACTICE,0.0,1,1.0,159.0,,,,,,,,,,29.0,1.0,1.0,cue1.png,Easy,A,,,,,,,,,,,,,,,,,,,,,,,,,,,33,20,Male,0.0,1.75,0.6,0.5,2.4444444444444446,3.0,2.7777777777777777,1.5555555555555556,2.0,2.4444444444444446,1.5,2.0,1.0,1.5,,,,,,,,,,,,,,,,,,,,,,,,,,,,,,,,,,,,
0,240702_145011,LEARNING,1.0,1,1.0,159.0,,,,,,,,,,1.0,1.0,1.0,cue1.png,Easy,A,,,,,,,,,,,,,,,,,,,,,,,,,,,33,20,Male,0.0,1.75,0.6,0.5,2.4444444444444446,3.0,2.7777777777777777,1.5555555555555556,2.0,2.4444444444444446,1.5,2.0,1.0,1.5,1.0,0.9090909090909092,0.4554150999640114,0.11570263476652078,,,0.005636165406629405,-0.5888312103757164,0.010848846985386141,-1.8134668289854539,0.012695607556536974,-0.641405211791987,,,,,,,,,,,,,,,,,,,,,,,,
1,240702_145044,LEARNING,1.0,2,3.0,159.0,,,,,,,,,,2.0,2.0,2.0,cue2.png,Hard,A,,,,,,,,,,,,,,,,,,,,,,,,,,,33,20,Male,0.0,1.75,0.6,0.5,2.4444444444444446,3.0,2.7777777777777777,1.5555555555555556,2.0,2.4444444444444446,1.5,2.0,1.0,1.5,0.84375,0.6022727272727273,0.4928919937519822,1.620107320794704,0.004470949121964715,-1.2676251452109777,0.005527393114653355,-0.6763136360672538,0.013447634251999196,-0.9601679868647102,0.013628304453899275,-0.27106744717653125,4.477320283549244e+44,-0.17869085146712743,5.351604334596119e+44,-0.20938950091104358,,,,,,,,,,,,,,,,,,,,
2,240702_145116,LEARNING,1.0,3,1.0,159.0,,,,,,,,,,3.0,3.0,3.0,cue1.png,Easy,A,,,,,,,,,,,,,,,,,,,,,,,,,,,33,20,Male,0.0,1.75,0.6,0.5,2.4444444444444446,3.0,2.7777777777777777,1.5555555555555556,2.0,2.4444444444444446,1.5,2.0,1.0,1.5,1.0,0.9545454545454546,0.462972533323669,0.41907457975583323,0.007004696607210089,0.24680471103849402,0.005597047103155195,-0.6202929366544553,0.013807838756804431,-0.841896633597091,0.013820783140456191,-0.19464162575780905,-4.531837931991674e+44,-0.1804955691212123,-1.840002672034323e+45,-0.21217279675592612,,,,,,,,,,,,,,,,,,,,
3,240702_145150,LEARNING,1.0,4,3.0,159.0,,,,,,,,,,4.0,4.0,4.0,cue2.png,Hard,A,,,,,,,,,,,,,,,,,,,,,,,,,,,33,20,Male,0.0,1.75,0.6,0.5,2.4444444444444446,3.0,2.7777777777777777,1.5555555555555556,2.0,2.4444444444444446,1.5,2.0,1.0,1.5,0.828125,0.5738636363636364,0.494431621428313,1.6819113514092725,0.005659120600094131,-0.55745083964122,0.006073884474502222,-0.23678635471170054,0.01756556256123406,0.39193324256213463,0.0201663710361153,2.3249452229764365,-4.651323927187976e+44,-0.18051950459662386,-1.7733594874053166e+45,-0.21209470203542521,,,,,,,,,,,,,,,,,,,,
4,240702_145223,LEARNING,1.0,5,3.0,159.0,,,,,,,,,,5.0,5.0,5.0,cue2.png,Hard,A,,,,,,,,,,,,,,,,,,,,,,,,,,,33,20,Male,0.0,1.75,0.6,0.5,2.4444444444444446,3.0,2.7777777777777777,1.5555555555555556,2.0,2.4444444444444446,1.5,2.0,1.0,1.5,0.7708333333333334,0.4829545454545454,0.4372925416682847,-0.6117765895565263,0.004846641924976048,-1.0430722246963615,0.005779948168939125,-0.4731908704419616,,,0.01260942412869985,-0.6756253084840206,2.8690805006269207e+48,5.567764118816056,4.906163436459096e+48,5.539190361085831,,,,,,,,,,,,,,,,,,,,
5,240702_145256,LEARNING,1.0,6,1.0,159.0,,,,,,,,,,6.0,6.0,6.0,cue1.png,Easy,A,,,,,,,,,,,,,,,,,,,,,,,,,,,33,20,Male,0.0,1.75,0.6,0.5,2.4444444444444446,3.0,2.7777777777777777,1.5555555555555556,2.0,2.4444444444444446,1.5,2.0,1.0,1.5,0.9583333333333334,0.9545454545454546,0.476251042880384,0.952103066951428,0.007208407034486872,0.3685631557508408,0.005469692780432305,-0.7227203551789677,0.01040540182282591,-1.9590698372108404,0.011033546490828418,-1.3013452003023076,-3.4730789254404415e+43,-0.17965732263296524,-4.491871825467774e+43,-0.21006925713028382,,,,,,,,,,,,,,,,,,,,
6,240702_145328,LEARNING,1.0,7,3.0,159.0,,,,,,,,,,7.0,7.0,7.0,cue2.png,Hard,A,,,,,,,,,,,,,,,,,,,,,,,,,,,33,20,Male,0.0,1.75,0.6,0.5,2.4444444444444446,3.0,2.7777777777777777,1.5555555555555556,2.0,2.4444444444444446,1.5,2.0,1.0,1.5,0.6458333333333334,0.6761363636363636,0.495498168441516,1.7247248869602632,0.006205919322657186,-0.23062730429260214,0.005726469388466394,-0.5162023153033959,0.015066495213282039,-0.4286230614436165,0.011035399574148338,-1.3006094127851773,3.9434293836931265e+43,-0.17950875488493664,1.4678691329965149e+44,-0.2098446100369909,,,,,,,,,,,,,,,,,,,,
7,240702_145402,LEARNING,1.0,8,3.0,159.0,,,,,,,,,,8.0,8.0,8.0,cue2.png,Hard,A,,,,,,,,,,,,,,,,,,,,,,,,,,,33,20,Male,0.0,1.75,0.6,0.5,2.4444444444444446,3.0,2.7777777777777777,1.5555555555555556,2.0,2.4444444444444446,1.5,2.0,1.0,1.5,0.7083333333333334,0.5113636363636364,0.4610554785800299,0.3421197991376765,0.007104219281005339,0.306289766059558,0.006027514377007598,-0.27408049032921583,0.015929210772072034,-0.14535470898840852,0.013897089583673854,-0.16434329659331512,,,,,,,,,,,,,,,,,,,,,,,,
8,240702_145434,LEARNING,1.0,9,1.0,159.0,,,,,,,,,,9.0,9.0,9.0,cue1.png,Easy,A,,,,,,,,,,,,,,,,,,,,,,,,,,,33,20,Male,0.0,1.75,0.6,0.5,2.4444444444444446,3.0,2.7777777777777777,1.5555555555555556,2.0,2.4444444444444446,1.5,2.0,1.0,1.5,0.9642857142857144,0.9545454545454546,0.4843213095085784,1.2760612637443929,0.005870143715771586,-0.43132157514200936,0.006283408190132768,-0.0682724570060245,0.014222973116156976,-0.7055893364547092,0.011819142952500247,-0.9894153136176476,,,1.0104842224120729e+48,0.9741027069487247,,,,,,,,,,,,,,,,,,,,
9,240702_145505,LEARNING,1.0,10,1.0,159.0,,,,,,,,,,10.0,10.0,10.0,cue1.png,Easy,A,,,,,,,,,,,,,,,,,,,,,,,,,,,33,20,Male,0.0,1.75,0.6,0.5,2.4444444444444446,3.0,2.7777777777777777,1.5555555555555556,2.0,2.4444444444444446,1.5,2.0,1.0,1.5,0.9322916666666669,0.9375,0.4460456591120667,-0.26040726385196783,0.006117912882029323,-0.28322906591454816,0.006237497807847058,-0.10519685690433694,0.012287826620655726,-1.3409850401197045,0.01443134382208671,0.047788341187071544,,,8.222817498703401e+44,-0.20905304251578868,,,,,,,,,,,,,,,,,,,,
10,240702_145538,LEARNING,1.0,11,3.0,159.0,,,,,,,,,,11.0,11.0,11.0,cue2.png,Hard,A,,,,,,,,,,,,,,,,,,,,,,,,,,,33,20,Male,0.0,1.75,0.6,0.5,2.4444444444444446,3.0,2.7777777777777777,1.5555555555555556,2.0,2.4444444444444446,1.5,2.0,1.0,1.5,0.734375,0.6761363636363636,0.5016435105231052,1.9714123919891993,,,0.0069285439324678795,0.4505916637593351,0.022241580005864958,1.9272802571102248,0.013290893523346886,-0.40504024169420594,2.1781221904583842e+44,-0.17915142761526098,,,,,,,,,,,,,,,,,,,,,,
11,240702_145610,LEARNING,1.0,12,1.0,159.0,,,,,,,,,,12.0,12.0,12.0,cue1.png,Easy,A,,,,,,,,,,,,,,,,,,,,,,,,,,,33,20,Male,0.0,1.75,0.6,0.5,2.4444444444444446,3.0,2.7777777777777777,1.5555555555555556,2.0,2.4444444444444446,1.5,2.0,1.0,1.5,1.0,0.9545454545454546,0.4640126238089232,0.46082609226811116,,,0.010034307129615234,2.9484676685214573,0.018088812550337056,0.5637397676969059,0.013882178370375975,-0.1702639610836309,,,,,,,,,,,,,,,,,,,,,,,,
12,240702_145642,LEARNING,1.0,13,1.0,159.0,,,,,,,,,,13.0,13.0,13.0,cue1.png,Easy,A,,,,,,,,,,,,,,,,,,,,,,,,,,,33,20,Male,0.0,1.75,0.6,0.5,2.4444444444444446,3.0,2.7777777777777777,1.5555555555555556,2.0,2.4444444444444446,1.5,2.0,1.0,1.5,1.0,1.0,0.4469733499943025,-0.22316771784484518,,,0.005555195037213789,-0.6539533494511494,0.015173406601764515,-0.3935192400675356,0.01402496491204672,-0.113568963159804,3.7206563759786037e+43,-0.17951321748144408,3.6586672190963055e+43,-0.20997374637818508,,,,,,,,,,,,,,,,,,,,
13,240702_145713,LEARNING,1.0,14,1.0,159.0,,,,,,,,,,14.0,14.0,14.0,cue1.png,Easy,A,,,,,,,,,,,,,,,,,,,,,,,,,,,33,20,Male,0.0,1.75,0.6,0.5,2.4444444444444446,3.0,2.7777777777777777,1.5555555555555556,2.0,2.4444444444444446,1.5,2.0,1.0,1.5,1.0,1.0,0.4481917408675971,-0.17425883682689042,0.009260155781655548,1.594900657150978,0.005453270213095189,-0.735928553706676,0.016058525364020654,-0.10289490745071538,0.015847420185737444,0.6100573446782294,,,-2.6177910771489776e+44,-0.21032338141316276,,,,,,,,,,,,,,,,,,,,
14,240702_145745,LEARNING,1.0,15,3.0,159.0,,,,,,,,,,15.0,15.0,15.0,cue2.png,Hard,A,,,,,,,,,,,,,,,,,,,,,,,,,,,33,20,Male,0.0,1.75,0.6,0.5,2.4444444444444446,3.0,2.7777777777777777,1.5555555555555556,2.0,2.4444444444444446,1.5,2.0,1.0,1.5,0.6904761904761905,0.7090909090909091,0.4825900199939497,1.2065635067153706,0.006580922492959697,-0.006486579693391028,0.004019063819841406,-1.8894195020428373,0.023756576303822958,2.424721738170574,0.012357192519733398,-0.7757766979591705,,,,,,,,,,,,,,,,,,,,,,,,
15,240702_145817,LEARNING,1.0,16,1.0,159.0,,,,,,,,,,16.0,16.0,16.0,cue1.png,Easy,A,,,,,,,,,,,,,,,,,,,,,,,,,,,33,20,Male,0.0,1.75,0.6,0.5,2.4444444444444446,3.0,2.7777777777777777,1.5555555555555556,2.0,2.4444444444444446,1.5,2.0,1.0,1.5,1.0,0.9545454545454546,0.4539821999746242,0.05818288750999138,0.007863048065194195,0.7598444210712036,,,0.015154383455169215,-0.3997653954076832,0.01994162940430361,2.235709037269644,,,,,,,,,,,,,,,,,,,,,,,,
16,240702_145849,LEARNING,1.0,17,1.0,159.0,,,,,,,,,,17.0,17.0,17.0,cue1.png,Easy,A,,,,,,,,,,,,,,,,,,,,,,,,,,,33,20,Male,0.0,1.75,0.6,0.5,2.4444444444444446,3.0,2.7777777777777777,1.5555555555555556,2.0,2.4444444444444446,1.5,2.0,1.0,1.5,1.0,1.0,0.455659163639542,0.12549988582032445,0.00559283174978732,-0.5970719205206999,0.00867238091295321,1.853109587138692,0.014097028279532683,-0.7469426956323758,0.015158159547044258,0.33637867705004537,,,-3.7403618687802623e+43,-0.21006045068438123,,,,,,,,,,,,,,,,,,,,
17,240702_145920,LEARNING,1.0,18,3.0,159.0,,,,,,,,,,18.0,18.0,18.0,cue2.png,Hard,A,,,,,,,,,,,,,,,,,,,,,,,,,,,33,20,Male,0.0,1.75,0.6,0.5,2.4444444444444446,3.0,2.7777777777777777,1.5555555555555556,2.0,2.4444444444444446,1.5,2.0,1.0,1.5,0.6458333333333334,0.7670454545454546,0.444804457127161,-0.3102318329041378,0.004606014019115029,-1.1868963772627814,0.0064603366175205595,0.07402598794244716,0.015038286151346265,-0.43788536628724417,0.011700047187913409,-1.0367036227746635,,,,,,,,,,,,,,,,,,,,,,,,
18,240702_145952,LEARNING,1.0,19,3.0,159.0,,,,,,,,,,19.0,19.0,19.0,cue2.png,Hard,A,,,,,,,,,,,,,,,,,,,,,,,,,,,33,20,Male,0.0,1.75,0.6,0.5,2.4444444444444446,3.0,2.7777777777777777,1.5555555555555556,2.0,2.4444444444444446,1.5,2.0,1.0,1.5,0.734375,0.7215909090909091,0.4712830599979497,0.7526773415771214,0.005881144115994192,-0.424746596923059,0.006679556645319431,0.25033835061872706,0.01659719634250102,0.07397502266110621,0.011507716604769846,-1.1130706380719237,,,,,,,,,,,,,,,,,,,,,,,,
19,240702_150023,LEARNING,1.0,20,3.0,159.0,,,,,,,,,,20.0,20.0,20.0,cue2.png,Hard,A,,,,,,,,,,,,,,,,,,,,,,,,,,,33,20,Male,0.0,1.75,0.6,0.5,2.4444444444444446,3.0,2.7777777777777777,1.5555555555555556,2.0,2.4444444444444446,1.5,2.0,1.0,1.5,0.7571428571428571,0.8,0.4340294454648921,-0.7427644256113991,0.006962388681871514,0.22151711404557325,,,0.014308890161624618,-0.6773789029352619,0.012924153135105722,-0.55065862635865,,,,,,,,,,,,,,,,,,,,,,,,
20,240702_150054,LEARNING,1.0,21,1.0,159.0,,,,,,,,,,21.0,21.0,21.0,cue1.png,Easy,A,,,,,,,,,,,,,,,,,,,,,,,,,,,33,20,Male,0.0,1.75,0.6,0.5,2.4444444444444446,3.0,2.7777777777777777,1.5555555555555556,2.0,2.4444444444444446,1.5,2.0,1.0,1.5,1.0,1.0,0.4376568818274377,-0.5971511767397889,0.007743791612312274,0.6885644163167838,0.005793265547211936,-0.46248008616048464,0.013157003843507795,-1.0555950324858767,0.014011233388750207,-0.11902121850318208,5.463034206881333e+43,-0.1794783141091613,2.1126554843546813e+44,-0.20976905180823513,,,,,,,,,,,,,,,,,,,,
21,240702_150127,LEARNING,1.0,22,3.0,159.0,,,,,,,,,,22.0,22.0,22.0,cue2.png,Hard,A,,,,,,,,,,,,,,,,,,,,,,,,,,,33,20,Male,0.0,1.75,0.6,0.5,2.4444444444444446,3.0,2.7777777777777777,1.5555555555555556,2.0,2.4444444444444446,1.5,2.0,1.0,1.5,0.0952380952380952,0.5757575757575758,0.4951337699661963,1.7100971332047354,0.007791406302871534,0.7170238856991641,0.005785839119620889,-0.4684529482569313,0.014481340384524422,-0.6207557320376893,0.015653163395897278,0.5329255074069444,1.9749819169564537e+43,-0.17954818689189408,7.031927897401428e+43,-0.20993421737738543,,,,,,,,,,,,,,,,,,,,
22,240702_150200,LEARNING,1.0,23,3.0,159.0,,,,,,,,,,23.0,23.0,23.0,cue2.png,Hard,A,,,,,,,,,,,,,,,,,,,,,,,,,,,33,20,Male,0.0,1.75,0.6,0.5,2.4444444444444446,3.0,2.7777777777777777,1.5555555555555556,2.0,2.4444444444444446,1.5,2.0,1.0,1.5,0.5964285714285714,0.5727272727272728,0.4711921588408158,0.7490283698258502,,,0.00720594225837474,0.6736951581533587,,,,,-1.751557658970803e+43,-0.17962283706009427,-6.426066849615959e+43,-0.2100919226767528,,,,,,,,,,,,,,,,,,,,
23,240702_150233,LEARNING,1.0,24,3.0,159.0,,,,,,,,,,24.0,24.0,24.0,cue2.png,Hard,A,,,,,,,,,,,,,,,,,,,,,,,,,,,33,20,Male,0.0,1.75,0.6,0.5,2.4444444444444446,3.0,2.7777777777777777,1.5555555555555556,2.0,2.4444444444444446,1.5,2.0,1.0,1.5,0.84375,0.7386363636363636,0.4714153526522415,0.757987858776589,0.0064669604980709386,-0.07460206813188137,,,0.016715419840900643,0.1127931189292697,0.011641093786672874,-1.060111731983176,-4.634610790828076e+43,-0.17968059047900695,-1.750779494918609e+44,-0.21022178208599634,,,,,,,,,,,,,,,,,,,,
24,240702_150303,LEARNING,1.0,25,1.0,159.0,,,,,,,,,,25.0,25.0,25.0,cue1.png,Easy,A,,,,,,,,,,,,,,,,,,,,,,,,,,,33,20,Male,0.0,1.75,0.6,0.5,2.4444444444444446,3.0,2.7777777777777777,1.5555555555555556,2.0,2.4444444444444446,1.5,2.0,1.0,1.5,1.0,1.0,0.4236599727512591,-1.1590177957623167,0.012883361879674381,3.760503789324778,0.005785457223896703,-0.46876009600297985,0.02100541989153847,1.5213932467412088,0.014530812343718287,0.08728343338135068,,,,,,,,,,,,,,,,,,,,,,,,
25,240702_150335,LEARNING,1.0,26,1.0,159.0,,,,,,,,,,26.0,26.0,26.0,cue1.png,Easy,A,,,,,,,,,,,,,,,,,,,,,,,,,,,33,20,Male,0.0,1.75,0.6,0.5,2.4444444444444446,3.0,2.7777777777777777,1.5555555555555556,2.0,2.4444444444444446,1.5,2.0,1.0,1.5,1.0,1.0,0.4567137454340065,0.1678331112569968,0.004557735711693424,-1.2157524927968788,0.005776494889911747,-0.47596824343297356,0.019103405579775117,0.8968763304181748,0.015335516170183756,0.40680011357350565,-5.358614764243539e+43,-0.17969509375135706,,,,,,,,,,,,,,,,,,,,,,
26,240702_150407,LEARNING,1.0,27,3.0,159.0,,,,,,,,,,27.0,27.0,27.0,cue2.png,Hard,A,,,,,,,,,,,,,,,,,,,,,,,,,,,33,20,Male,0.0,1.75,0.6,0.5,2.4444444444444446,3.0,2.7777777777777777,1.5555555555555556,2.0,2.4444444444444446,1.5,2.0,1.0,1.5,0.6458333333333334,0.6761363636363636,0.4442134579324996,-0.33395583636391335,0.006586711891603007,-0.0030262355958772893,0.006655987641537753,0.23138247881997684,0.018352832463878657,0.6504293899742537,,,-7.850232181657571e+41,-0.17958932235837646,,,,,,,,,,,,,,,,,,,,,,
27,240702_150437,LEARNING,1.0,28,1.0,159.0,,,,,,,,,,28.0,28.0,28.0,cue1.png,Easy,A,,,,,,,,,,,,,,,,,,,,,,,,,,,33,20,Male,0.0,1.75,0.6,0.5,2.4444444444444446,3.0,2.7777777777777777,1.5555555555555556,2.0,2.4444444444444446,1.5,2.0,1.0,1.5,1.0,1.0,0.4227803545390171,-1.1943275993949054,,,0.0050925020478893215,-1.026084011784582,0.011383622221818438,-1.6378760463519673,,,-5.94807762875499e+42,-0.17959966500662491,-1.1536594453712877e+43,-0.21003013883720587,,,,,,,,,,,,,,,,,,,,
28,240702_150508,LEARNING,1.0,29,1.0,159.0,,,,,,,,,,29.0,29.0,29.0,cue1.png,Easy,A,,,,,,,,,,,,,,,,,,,,,,,,,,,33,20,Male,0.0,1.75,0.6,0.5,2.4444444444444446,3.0,2.7777777777777777,1.5555555555555556,2.0,2.4444444444444446,1.5,2.0,1.0,1.5,1.0,1.0,0.4207467636389827,-1.2759603968402993,0.00788813781947419,0.7748406561691569,0.0056063768912667285,-0.6127892564399691,0.017201326007844357,0.2723379862445422,,,2.3224007267061536e+43,-0.17954122738641848,8.197561722333306e+43,-0.2099205580890019,,,,,,,,,,,,,,,,,,,,
29,240702_150539,LEARNING,1.0,30,3.0,159.0,,,,,,,,,,30.0,30.0,30.0,cue2.png,Hard,A,,,,,,,,,,,,,,,,,,,,,,,,,,,33,20,Male,0.0,1.75,0.6,0.5,2.4444444444444446,3.0,2.7777777777777777,1.5555555555555556,2.0,2.4444444444444446,1.5,2.0,1.0,1.5,0.8802083333333333,0.8920454545454546,0.4358858571698268,-0.6682439895287857,0.004313105746979783,-1.3619686901302588,0.008602285589305718,1.7967339345628857,0.0175387455949348,0.3831280253801331,0.014883210719001769,0.22720716093494256,4.2314137582355914e+43,-0.17950298597209927,1.5932733987010396e+44,-0.2098299147442399,,,,,,,,,,,,,,,,,,,,
30,240702_150611,LEARNING,1.0,31,3.0,159.0,,,,,,,,,,31.0,31.0,31.0,cue2.png,Hard,A,,,,,,,,,,,,,,,,,,,,,,,,,,,33,20,Male,0.0,1.75,0.6,0.5,2.4444444444444446,3.0,2.7777777777777777,1.5555555555555556,2.0,2.4444444444444446,1.5,2.0,1.0,1.5,0.5214285714285714,0.6424242424242425,0.4384982600109651,-0.5633764117023853,0.007183926022621458,0.35393076815259916,0.006655939596278739,0.23134383740013367,0.0191967361657077,0.9275209629873175,,,,,,,,,,,,,,,,,,,,,,,,,,
31,240702_150642,LEARNING,1.0,32,1.0,159.0,,,,,,,,,,32.0,32.0,32.0,cue1.png,Easy,A,,,,,,,,,,,,,,,,,,,,,,,,,,,33,20,Male,0.0,1.75,0.6,0.5,2.4444444444444446,3.0,2.7777777777777777,1.5555555555555556,2.0,2.4444444444444446,1.5,2.0,1.0,1.5,0.8802083333333333,0.8465909090909091,0.4442258299794048,-0.33345919527500073,,,0.007551554256352174,0.951660946884021,0.01611355936951924,-0.08482476613037052,0.013701906520436348,-0.24184292110648284,4.415163379342409e+43,-0.1794993050934066,1.6496708481828022e+44,-0.20982330590182224,,,,,,,,,,,,,,,,,,,,
32,240702_150713,LEARNING,1.0,33,1.0,159.0,,,,,,,,,,33.0,33.0,33.0,cue1.png,Easy,A,,,,,,,,,,,,,,,,,,,,,,,,,,,33,20,Male,0.0,1.75,0.6,0.5,2.4444444444444446,3.0,2.7777777777777777,1.5555555555555556,2.0,2.4444444444444446,1.5,2.0,1.0,1.5,1.0,1.0,0.4340840045637874,-0.7405743037590407,0.008413890069583738,1.0890846403044319,,,,,,,2.699401080255056e+43,-0.17953367530244604,1.0916455379098063e+44,-0.20988869718058661,,,,,,,,,,,,,,,,,,,,
33,240702_150744,LEARNING,1.0,34,1.0,159.0,,,,,,,,,,34.0,34.0,34.0,cue1.png,Easy,A,,,,,,,,,,,,,,,,,,,,,,,,,,,33,20,Male,0.0,1.75,0.6,0.5,2.4444444444444446,3.0,2.7777777777777777,1.5555555555555556,2.0,2.4444444444444446,1.5,2.0,1.0,1.5,1.0,1.0,0.4130524863510139,-1.5848255571470466,0.007256711580918628,0.39743495443434557,,,,,0.01177876184034952,-1.0054490871285047,2.768204473270288e+42,-0.17958220452051604,1.5401572638362636e+43,-0.20999857178887868,,,,,,,,,,,,,,,,,,,,
34,240702_150816,LEARNING,1.0,35,3.0,159.0,,,,,,,,,,35.0,35.0,35.0,cue2.png,Hard,A,,,,,,,,,,,,,,,,,,,,,,,,,,,33,20,Male,0.0,1.75,0.6,0.5,2.4444444444444446,3.0,2.7777777777777777,1.5555555555555556,2.0,2.4444444444444446,1.5,2.0,1.0,1.5,0.8571428571428572,0.8666666666666667,0.4744343226987191,0.8791759356378958,,,,,0.016522441054529057,0.04942949656577026,0.01600918747356647,0.6742888607601735,-2.0392187825282957e+43,-0.17962859949755688,-8.142025881407696e+43,-0.2101120308606166,,,,,,,,,,,,,,,,,,,,
35,240702_150848,LEARNING,1.0,36,3.0,159.0,,,,,,,,,,36.0,36.0,36.0,cue2.png,Hard,A,,,,,,,,,,,,,,,,,,,,,,,,,,,33,20,Male,0.0,1.75,0.6,0.5,2.4444444444444446,3.0,2.7777777777777777,1.5555555555555556,2.0,2.4444444444444446,1.5,2.0,1.0,1.5,0.6349206349206349,0.7333333333333334,0.4647155318578536,0.48904236250225697,,,,,0.02020555922237508,1.2587629839169046,0.014379023689505378,0.027014045701205316,-4.0164397503346404e+43,-0.17966820725558771,-1.491462435434939e+44,-0.2101913944426173,,,,,,,,,,,,,,,,,,,,
36,240702_150919,LEARNING,1.0,37,1.0,159.0,,,,,,,,,,37.0,37.0,37.0,cue1.png,Easy,A,,,,,,,,,,,,,,,,,,,,,,,,,,,33,20,Male,0.0,1.75,0.6,0.5,2.4444444444444446,3.0,2.7777777777777777,1.5555555555555556,2.0,2.4444444444444446,1.5,2.0,1.0,1.5,1.0,0.9545454545454546,0.4333471952316661,-0.7701514458301997,0.007205186789218025,0.3666384037351065,0.009558715617388336,2.565963095232917,0.017968463722458985,0.5242238300908298,0.015927246386931944,0.6417532332265017,-4.613251394812245e+43,-0.17968016260685565,-1.7174563202688514e+44,-0.21021787716454796,,,,,,,,,,,,,,,,,,,,
37,240702_150952,LEARNING,1.0,38,3.0,159.0,,,,,,,,,,38.0,38.0,38.0,cue2.png,Hard,A,,,,,,,,,,,,,,,,,,,,,,,,,,,33,20,Male,0.0,1.75,0.6,0.5,2.4444444444444446,3.0,2.7777777777777777,1.5555555555555556,2.0,2.4444444444444446,1.5,2.0,1.0,1.5,0.84375,0.7386363636363636,0.4931786473546373,1.6316142249031647,0.005259139906618486,-0.7965207184078575,0.005992797038226904,-0.30200264729506127,0.016977012465453984,0.19868575296914862,0.010929030344597926,-1.3428445084598508,-3.7134403362598207e+43,-0.17966213756096502,-1.301901146785856e+44,-0.21016918101458673,,,,,,,,,,,,,,,,,,,,
38,240702_151023,LEARNING,1.0,39,3.0,159.0,,,,,,,,,,39.0,39.0,39.0,cue2.png,Hard,A,,,,,,,,,,,,,,,,,,,,,,,,,,,33,20,Male,0.0,1.75,0.6,0.5,2.4444444444444446,3.0,2.7777777777777777,1.5555555555555556,2.0,2.4444444444444446,1.5,2.0,1.0,1.5,0.5833333333333334,0.7045454545454546,0.4555940476379224,0.12288598674623881,0.007060840155893025,0.2803619091635469,0.0074938024217948256,0.9052128075331868,0.014653635899726123,-0.5641833586414564,0.014523063229850398,0.08420656080280947,,,,,,,,,,,,,,,,,,,,,,,,
39,240702_151056,LEARNING,1.0,40,3.0,159.0,,,,,,,,,,40.0,40.0,40.0,cue2.png,Hard,A,,,,,,,,,,,,,,,,,,,,,,,,,,,33,20,Male,0.0,1.75,0.6,0.5,2.4444444444444446,3.0,2.7777777777777777,1.5555555555555556,2.0,2.4444444444444446,1.5,2.0,1.0,1.5,0.6904761904761905,0.7090909090909091,0.4720196049893275,0.7822438724312595,,,0.006898257048655314,0.4262327942859917,0.013037153209274928,-1.094947390692413,,,1.8099783980826043e+43,-0.17955149224802586,4.2749967066023656e+43,-0.20996652402239113,,,,,,,,,,,,,,,,,,,,
40,240702_151127,LEARNING,1.0,41,1.0,159.0,,,,,,,,,,41.0,41.0,41.0,cue1.png,Easy,A,,,,,,,,,,,,,,,,,,,,,,,,,,,33,20,Male,0.0,1.75,0.6,0.5,2.4444444444444446,3.0,2.7777777777777777,1.5555555555555556,2.0,2.4444444444444446,1.5,2.0,1.0,1.5,0.9642857142857144,0.9545454545454546,0.4318388809693888,-0.8306984873489233,0.006280815093711683,-0.1858618363632792,,,0.016269741105113186,-0.03354327192926603,0.015556750743486504,0.49464378236269,3.7453306017633943e+43,-0.17951272320650952,1.2850123959424264e+44,-0.209866037803163,,,,,,,,,,,,,,,,,,,,
41,240702_151159,LEARNING,1.0,42,3.0,159.0,,,,,,,,,,42.0,42.0,42.0,cue2.png,Hard,A,,,,,,,,,,,,,,,,,,,,,,,,,,,33,20,Male,0.0,1.75,0.6,0.5,2.4444444444444446,3.0,2.7777777777777777,1.5555555555555556,2.0,2.4444444444444446,1.5,2.0,1.0,1.5,0.8802083333333333,0.7556818181818181,0.4627360055326587,0.40957983562936023,0.008479008631615666,1.1280062357323337,,,0.01819713252512545,0.5993060913636933,0.022619243895616477,3.29888590428732,,,,,,,,,,,,,,,,,,,,,,,,
42,240702_151231,LEARNING,1.0,43,3.0,159.0,,,,,,,,,,43.0,43.0,43.0,cue2.png,Hard,A,,,,,,,,,,,,,,,,,,,,,,,,,,,33,20,Male,0.0,1.75,0.6,0.5,2.4444444444444446,3.0,2.7777777777777777,1.5555555555555556,2.0,2.4444444444444446,1.5,2.0,1.0,1.5,0.8571428571428572,0.8666666666666667,0.4450267318064685,-0.3013092399318521,0.004456089284673209,-1.2765069226510395,,,,,0.014654315903307086,0.13632190698356425,3.6987664869296245e+43,-0.17951365598044994,1.4068017628407306e+44,-0.20985176611638684,,,,,,,,,,,,,,,,,,,,
43,240702_151301,LEARNING,1.0,44,1.0,159.0,,,,,,,,,,44.0,44.0,44.0,cue1.png,Easy,A,,,,,,,,,,,,,,,,,,,,,,,,,,,33,20,Male,0.0,1.75,0.6,0.5,2.4444444444444446,3.0,2.7777777777777777,1.5555555555555556,2.0,2.4444444444444446,1.5,2.0,1.0,1.5,1.0,0.9545454545454546,0.4032624142820991,-1.9778205150631285,0.004260787918857811,-1.3932392415105472,0.005055948988412721,-1.055482586103161,,,,,8.852762717479963e+42,-0.17957001591263735,4.4377312826701735e+43,-0.20996461704400998,,,,,,,,,,,,,,,,,,,,
44,240702_151332,LEARNING,1.0,45,1.0,159.0,,,,,,,,,,45.0,45.0,45.0,cue1.png,Easy,A,,,,,,,,,,,,,,,,,,,,,,,,,,,33,20,Male,0.0,1.75,0.6,0.5,2.4444444444444446,3.0,2.7777777777777777,1.5555555555555556,2.0,2.4444444444444446,1.5,2.0,1.0,1.5,1.0,1.0,0.4049512772630392,-1.9100258521180005,0.008591055780746044,1.1949772140712622,0.005331783517101413,-0.8336368088303792,0.023106333537542212,2.211217767802166,,,,,,,,,,,,,,,,,,,,,,,,,,
45,240702_151402,LEARNING,1.0,46,1.0,159.0,,,,,,,,,,46.0,46.0,46.0,cue1.png,Easy,A,,,,,,,,,,,,,,,,,,,,,,,,,,,33,20,Male,0.0,1.75,0.6,0.5,2.4444444444444446,3.0,2.7777777777777777,1.5555555555555556,2.0,2.4444444444444446,1.5,2.0,1.0,1.5,1.0,1.0,0.4324079636505551,-0.8078542607935505,,,0.007850595529801196,1.1921712414447625,,,,,-4.781073773460327e+43,-0.1796835244304828,-1.794793423407008e+44,-0.21022693978586107,,,,,,,,,,,,,,,,,,,,
46,240702_151433,LEARNING,1.0,47,3.0,159.0,,,,,,,,,,47.0,47.0,47.0,cue2.png,Hard,A,,,,,,,,,,,,,,,,,,,,,,,,,,,33,20,Male,0.0,1.75,0.6,0.5,2.4444444444444446,3.0,2.7777777777777777,1.5555555555555556,2.0,2.4444444444444446,1.5,2.0,1.0,1.5,0.78125,0.8295454545454546,0.4252774714314866,-1.0940878523164785,0.004711643968824507,-1.1237609817722272,0.0049893497230591825,-1.1090464595543588,0.01860833367107223,0.734321937494262,0.01766488075486236,1.331700449045718,-3.521020412271889e+43,-0.17965828299846862,-1.2920529790742794e+44,-0.2101680269732408,,,,,,,,,,,,,,,,,,,,
47,240702_151505,LEARNING,1.0,48,3.0,159.0,,,,,,,,,,48.0,48.0,48.0,cue2.png,Hard,A,,,,,,,,,,,,,,,,,,,,,,,,,,,33,20,Male,0.0,1.75,0.6,0.5,2.4444444444444446,3.0,2.7777777777777777,1.5555555555555556,2.0,2.4444444444444446,1.5,2.0,1.0,1.5,0.84375,0.8295454545454546,0.4475980000016057,-0.19809289698506172,0.0059976917382520475,-0.3550856698377821,0.005602227695165639,-0.6161263355158895,,,,,1.288997513238478e+43,-0.17956192855492406,4.664498814519546e+43,-0.20996195970596152,,,,,,,,,,,,,,,,,,,,
48,240702_151535,LEARNING,1.0,49,1.0,159.0,,,,,,,,,,49.0,49.0,49.0,cue1.png,Easy,A,,,,,,,,,,,,,,,,,,,,,,,,,,,33,20,Male,0.0,1.75,0.6,0.5,2.4444444444444446,3.0,2.7777777777777777,1.5555555555555556,2.0,2.4444444444444446,1.5,2.0,1.0,1.5,1.0,1.0,0.4077200045470487,-1.7988830684080295,0.005864936056214579,-0.43443421172487295,0.006916728455196742,0.44108881525256705,,,0.014247762840088751,-0.02510454683614806,,,,,,,,,,,,,,,,,,,,,,,,
49,240702_151607,LEARNING,1.0,50,1.0,159.0,,,,,,,,,,50.0,50.0,50.0,cue1.png,Easy,A,,,,,,,,,,,,,,,,,,,,,,,,,,,33,20,Male,0.0,1.75,0.6,0.5,2.4444444444444446,3.0,2.7777777777777777,1.5555555555555556,2.0,2.4444444444444446,1.5,2.0,1.0,1.5,0.9583333333333334,0.9545454545454546,0.4539269952192193,0.0559668475897139,,,,,0.017356195435374595,0.3231885906357525,,,-3.773108348235485e+43,-0.17966333283262106,-7.718236113598447e+43,-0.21010706474988036,,,,,,,,,,,,,,,,,,,,
0,240702_151733,TrueCHOICE,9.0,1,3.0,159.0,,,,,,,,,,,1.0,1.0,,,A,,,,,,True,cue1.png,Easy,cue2.png,Hard,Right,Hard,Hard,0.0164588000625371,,,,,,,,,,,,,33,20,Male,0.0,1.75,0.6,0.5,2.4444444444444446,3.0,2.7777777777777777,1.5555555555555556,2.0,2.4444444444444446,1.5,2.0,1.0,1.5,0.0802083333333333,0.6420454545454546,0.2629076380814825,-2.7616473004867435,,,,,,,,,,,,,,,0.015194212874019817,-0.04243780919868175,763708650.2202264,-0.4452660422781021,,,,,,,,,,,,,,
1,240702_151802,TrueCHOICE,9.0,2,1.0,159.0,,,,,,,,,,,2.0,2.0,,,A,,,,,,True,cue1.png,Easy,cue2.png,Hard,Left,Easy,Easy,0.0145736001431941,,,,,,,,,,,,,33,20,Male,0.0,1.75,0.6,0.5,2.4444444444444446,3.0,2.7777777777777777,1.5555555555555556,2.0,2.4444444444444446,1.5,2.0,1.0,1.5,1.0,1.0,0.4405371818627993,0.5974559909672058,,,,,,,,,,,,,0.00858862568211449,0.8755042326750327,,,17245594.20706043,-0.4476791844056513,,,,,,,,,,,,,,
2,240702_151831,TrueCHOICE,9.0,3,1.0,159.0,,,,,,,,,,,3.0,3.0,,,A,,,,,,True,cue2.png,Hard,cue1.png,Easy,Right,Easy,Easy,0.0165109999943524,,,,,,,,,,,,,33,20,Male,0.0,1.75,0.6,0.5,2.4444444444444446,3.0,2.7777777777777777,1.5555555555555556,2.0,2.4444444444444446,1.5,2.0,1.0,1.5,1.0,0.9545454545454546,0.4009444333635093,-0.15127155159411182,,,,,,,,,,,,,0.004937069571449437,-1.7166880972457883,,,22772805.005843084,-0.4476613162136237,,,,,,,,,,,,,,
3,240702_151859,TrueCHOICE,9.0,4,1.0,159.0,,,,,,,,,,,4.0,4.0,,,A,,,,,,True,cue1.png,Easy,cue2.png,Hard,Left,Easy,Easy,0.0173466000705957,,,,,,,,,,,,,33,20,Male,0.0,1.75,0.6,0.5,2.4444444444444446,3.0,2.7777777777777777,1.5555555555555556,2.0,2.4444444444444446,1.5,2.0,1.0,1.5,1.0,1.0,0.421421400017359,0.23596271485551024,,,,,,,,,,,,,,,0.008566224025719018,-2.068086181065026,15443.142410700782,-0.44773488549234697,,,,,,,,,,,,,,
4,240702_151929,TrueCHOICE,9.0,5,1.0,159.0,,,,,,,,,,,5.0,5.0,,,A,,,,,,True,cue2.png,Hard,cue1.png,Easy,Right,Easy,Easy,0.0192470999900251,,,,,,,,,,,,,33,20,Male,0.0,1.75,0.6,0.5,2.4444444444444446,3.0,2.7777777777777777,1.5555555555555556,2.0,2.4444444444444446,1.5,2.0,1.0,1.5,1.0,1.0,0.4653654318112372,1.0669761752081524,,,,,,,,,,,,,0.009253295899137051,1.3473450003577425,0.015202756438068666,-0.039826722034598236,830186934019.8221,2.2360670934796834,,,,,,,,,,,,,,
5,240702_151958,TrueCHOICE,9.0,6,1.0,159.0,,,,,,,,,,,6.0,6.0,,,A,,,,,,True,cue2.png,Hard,cue1.png,Easy,Right,Easy,Easy,0.0173762999475002,,,,,,,,,,,,,33,20,Male,0.0,1.75,0.6,0.5,2.4444444444444446,3.0,2.7777777777777777,1.5555555555555556,2.0,2.4444444444444446,1.5,2.0,1.0,1.5,1.0,1.0,0.4469958818200129,0.7195946837935487,,,,,,,,,,,,,0.00621055102299547,-0.8126601291823772,0.01817533138937859,0.8686527199480656,2867612.3808413637,-0.44772566508995915,,,,,,,,,,,,,,
6,240702_152027,TrueCHOICE,9.0,7,1.0,159.0,,,,,,,,,,,7.0,7.0,,,A,,,,,,True,cue1.png,Easy,cue2.png,Hard,Left,Easy,Easy,0.0159836001694202,,,,,,,,,,,,,33,20,Male,0.0,1.75,0.6,0.5,2.4444444444444446,3.0,2.7777777777777777,1.5555555555555556,2.0,2.4444444444444446,1.5,2.0,1.0,1.5,1.0,0.9545454545454546,0.4154170904796393,0.12241687387821698,,,,,,,,,,,,,0.008514510146764643,0.8228905752535509,0.014659938324361167,-0.20572299214269388,,,,,,,,,,,,,,,,
7,240702_152055,TrueCHOICE,9.0,8,1.0,159.0,,,,,,,,,,,8.0,8.0,,,A,,,,,,True,cue2.png,Hard,cue1.png,Easy,Right,Easy,Easy,0.0167492998298257,,,,,,,,,,,,,33,20,Male,0.0,1.75,0.6,0.5,2.4444444444444446,3.0,2.7777777777777777,1.5555555555555556,2.0,2.4444444444444446,1.5,2.0,1.0,1.5,1.0,1.0,0.4193417273080823,0.19663459806724218,,,,,,,,,,,,,0.007007050216752275,-0.24723568046194666,0.016414606825362013,0.3305394358076399,,,,,,,,,,,,,,,,
8,240702_152124,TrueCHOICE,9.0,9,1.0,159.0,,,,,,,,,,,9.0,9.0,,,A,,,,,,True,cue1.png,Easy,cue2.png,Hard,Left,Easy,Easy,0.014384799869731,,,,,,,,,,,,,33,20,Male,0.0,1.75,0.6,0.5,2.4444444444444446,3.0,2.7777777777777777,1.5555555555555556,2.0,2.4444444444444446,1.5,2.0,1.0,1.5,1.0,1.0,0.426089431847107,0.3242385767989648,,,,,,,,,,,,,0.006976171753076659,-0.26915590139621903,0.020613771719483892,1.613889743971928,,,,,,,,,,,,,,,,
9,240702_152152,TrueCHOICE,9.0,10,1.0,159.0,,,,,,,,,,,10.0,10.0,,,A,,,,,,True,cue2.png,Hard,cue1.png,Easy,Right,Easy,Easy,0.0163908000104129,,,,,,,,,,,,,33,20,Male,0.0,1.75,0.6,0.5,2.4444444444444446,3.0,2.7777777777777777,1.5555555555555556,2.0,2.4444444444444446,1.5,2.0,1.0,1.5,1.0,1.0,0.3904165863588621,-0.35036076148799916,,,,,,,,,,,,,,,0.013837724781619536,-0.4570081952866354,,,,,,,,,,,,,,,,
0,240702_152329,FalseCHOICE,9.0,1,2.0,159.0,,,,,,,,,,,1.0,1.0,,,A,,,,,,False,cue1.png,Easy,cue2.png,Hard,Left,Easy,Mid,0.0163646999280899,,,,,,,,,,,,,33,20,Male,0.0,1.75,0.6,0.5,2.4444444444444446,3.0,2.7777777777777777,1.5555555555555556,2.0,2.4444444444444446,1.5,2.0,1.0,1.5,0.84375,0.875,0.4779327954377301,1.0181717109668236,,,,,,,,,,,,,,,,,,,,,0.022883582452292252,1.6503955205483412,,,,,,,,,,
1,240702_152359,FalseCHOICE,9.0,2,2.0,159.0,,,,,,,,,,,2.0,2.0,,,A,,,,,,False,cue2.png,Hard,cue1.png,Easy,Right,Easy,Mid,0.0165919000282883,,,,,,,,,,,,,33,20,Male,0.0,1.75,0.6,0.5,2.4444444444444446,3.0,2.7777777777777777,1.5555555555555556,2.0,2.4444444444444446,1.5,2.0,1.0,1.5,0.8928571428571428,0.8878787878787879,0.4900187285993957,1.5144941270416268,,,,,,,,,,,,,,,,,,,0.008206900154821978,0.5612624826868805,0.022246501811984343,1.4948279815912424,3.434244618102959e+44,-0.17061467053931434,,,,,,,,
2,240702_152429,FalseCHOICE,9.0,3,2.0,159.0,,,,,,,,,,,3.0,3.0,,,A,,,,,,False,cue2.png,Hard,cue1.png,Easy,Left,Hard,Mid,0.0159054000396281,,,,,,,,,,,,,33,20,Male,0.0,1.75,0.6,0.5,2.4444444444444446,3.0,2.7777777777777777,1.5555555555555556,2.0,2.4444444444444446,1.5,2.0,1.0,1.5,0.6349206349206349,0.7333333333333334,0.4906426772517575,1.5401172790568185,,,,,,,,,,,,,,,,,,,0.006489088887869206,-0.3786300118199279,,,-1.4063179174465695e+45,-0.17232681247539183,,,,,,,,
3,240702_152501,FalseCHOICE,9.0,4,2.0,159.0,,,,,,,,,,,4.0,4.0,,,A,,,,,,False,cue2.png,Hard,cue1.png,Easy,Right,Easy,Mid,0.0177223999053239,,,,,,,,,,,,,33,20,Male,0.0,1.75,0.6,0.5,2.4444444444444446,3.0,2.7777777777777777,1.5555555555555556,2.0,2.4444444444444446,1.5,2.0,1.0,1.5,0.8571428571428572,0.7303030303030303,0.5224682263000623,2.8470691863090436,,,,,,,,,,,,,,,,,,,0.00750959318950609,0.1797341997630375,0.023797572270237013,1.8735809975717719,-1.6310869767375663e+45,-0.17254675144292617,,,,,,,,
4,240702_152531,FalseCHOICE,9.0,5,2.0,159.0,,,,,,,,,,,5.0,5.0,,,A,,,,,,False,cue1.png,Easy,cue2.png,Hard,Right,Hard,Mid,0.0165579000022262,,,,,,,,,,,,,33,20,Male,0.0,1.75,0.6,0.5,2.4444444444444446,3.0,2.7777777777777777,1.5555555555555556,2.0,2.4444444444444446,1.5,2.0,1.0,1.5,0.938095238095238,0.9333333333333332,0.4847651908957315,1.2987517022619623,,,,,,,,,,,,,,,,,,,0.009492396150582267,1.2646156748433912,0.016809221171477623,0.16710851509812813,6.220335859348561e+48,5.915715532183105,,,,,,,,
5,240702_152600,FalseCHOICE,9.0,6,2.0,159.0,,,,,,,,,,,6.0,6.0,,,A,,,,,,False,cue2.png,Hard,cue1.png,Easy,Right,Easy,Mid,0.0155959001276642,,,,,,,,,,,,,33,20,Male,0.0,1.75,0.6,0.5,2.4444444444444446,3.0,2.7777777777777777,1.5555555555555556,2.0,2.4444444444444446,1.5,2.0,1.0,1.5,0.8571428571428572,0.8212121212121213,0.4667758285844077,0.5599983394417136,,,,,,,,,,,,,,,,,,,0.007551568156152239,0.20270060874338697,,,,,,,,,,,,
6,240702_152630,FalseCHOICE,9.0,7,2.0,159.0,,,,,,,,,,,7.0,7.0,,,A,,,,,,False,cue2.png,Hard,cue1.png,Easy,Right,Easy,Mid,0.016565800178796,,,,,,,,,,,,,33,20,Male,0.0,1.75,0.6,0.5,2.4444444444444446,3.0,2.7777777777777777,1.5555555555555556,2.0,2.4444444444444446,1.5,2.0,1.0,1.5,0.0625,0.7045454545454546,0.4743976285681128,0.8729961139743403,,,,,,,,,,,,,,,,,,,,,0.018707671108148714,0.6306874810802708,3.677919764822414e+44,-0.170590826661357,,,,,,,,
7,240702_152700,FalseCHOICE,9.0,8,2.0,159.0,,,,,,,,,,,8.0,8.0,,,A,,,,,,False,cue1.png,Easy,cue2.png,Hard,Right,Hard,Mid,0.0166554998140782,,,,,,,,,,,,,33,20,Male,0.0,1.75,0.6,0.5,2.4444444444444446,3.0,2.7777777777777777,1.5555555555555556,2.0,2.4444444444444446,1.5,2.0,1.0,1.5,0.7571428571428571,0.7545454545454546,0.4507639047889305,-0.0975492903419378,,,,,,,,,,,,,,,,,,,0.007112797097206872,-0.037370948035436814,,,5.259844796011424e+44,-0.17043603357765857,,,,,,,,
8,240702_152730,FalseCHOICE,9.0,9,2.0,159.0,,,,,,,,,,,9.0,9.0,,,A,,,,,,False,cue1.png,Easy,cue2.png,Hard,Right,Hard,Mid,0.0153820000123232,,,,,,,,,,,,,33,20,Male,0.0,1.75,0.6,0.5,2.4444444444444446,3.0,2.7777777777777777,1.5555555555555556,2.0,2.4444444444444446,1.5,2.0,1.0,1.5,0.84375,0.7386363636363636,0.4986804579262082,1.870197767742307,,,,,,,,,,,,,,,,,,,,,0.014013397836959051,-0.5155983951286092,,,,,,,,,,
9,240702_152800,FalseCHOICE,9.0,10,2.0,159.0,,,,,,,,,,,10.0,10.0,,,A,,,,,,False,cue2.png,Hard,cue1.png,Easy,Right,Easy,Mid,0.0169957000762224,,,,,,,,,,,,,33,20,Male,0.0,1.75,0.6,0.5,2.4444444444444446,3.0,2.7777777777777777,1.5555555555555556,2.0,2.4444444444444446,1.5,2.0,1.0,1.5,0.84375,0.7840909090909091,0.4748188100405969,0.8902924040690344,,,,,,,,,,,,,,,,,,,0.00678688520527106,-0.21569213325176656,0.016655065566798057,0.12946554414730319,7.398591547340079e+44,-0.1702267548834342,,,,,,,,
10,240702_152830,FalseCHOICE,9.0,11,2.0,159.0,,,,,,,,,,,11.0,11.0,,,A,,,,,,False,cue1.png,Easy,cue2.png,Hard,Right,Hard,Mid,0.0164432998280972,,,,,,,,,,,,,33,20,Male,0.0,1.75,0.6,0.5,2.4444444444444446,3.0,2.7777777777777777,1.5555555555555556,2.0,2.4444444444444446,1.5,2.0,1.0,1.5,0.938095238095238,0.9333333333333332,0.4743137863379987,0.8695530386517566,,,,,,,,,,,,,,,,,,,0.006808890020120624,-0.20365230051926567,0.022614222161994917,1.584620931268602,7.242662460574714e+44,-0.17024201271405373,,,,,,,,
11,240702_152859,FalseCHOICE,9.0,12,2.0,159.0,,,,,,,,,,,12.0,12.0,,,A,,,,,,False,cue2.png,Hard,cue1.png,Easy,Right,Easy,Mid,0.0166141001973301,,,,,,,,,,,,,33,20,Male,0.0,1.75,0.6,0.5,2.4444444444444446,3.0,2.7777777777777777,1.5555555555555556,2.0,2.4444444444444446,1.5,2.0,1.0,1.5,0.9583333333333334,0.9545454545454546,0.4329650571591975,-0.8284789538416605,,,,,,,,,,,,,,,,,,,0.006092051535993514,-0.5958671636805003,0.011278109988098113,-1.1835232574833858,4.346302667195281e+44,-0.17052542466789347,,,,,,,,
12,240702_152928,FalseCHOICE,9.0,13,2.0,159.0,,,,,,,,,,,13.0,13.0,,,A,,,,,,False,cue1.png,Easy,cue2.png,Hard,Right,Hard,Mid,0.017699799966067,,,,,,,,,,,,,33,20,Male,0.0,1.75,0.6,0.5,2.4444444444444446,3.0,2.7777777777777777,1.5555555555555556,2.0,2.4444444444444446,1.5,2.0,1.0,1.5,0.84375,0.8295454545454546,0.4341329571436204,-0.780517829595081,,,,,,,,,,,,,,,,,,,,,0.016454513203688514,0.08049303488081086,,,,,,,,,,
13,240702_152958,FalseCHOICE,9.0,14,2.0,159.0,,,,,,,,,,,14.0,14.0,,,A,,,,,,False,cue2.png,Hard,cue1.png,Easy,Right,Easy,Mid,0.0166864001657813,,,,,,,,,,,,,33,20,Male,0.0,1.75,0.6,0.5,2.4444444444444446,3.0,2.7777777777777777,1.5555555555555556,2.0,2.4444444444444446,1.5,2.0,1.0,1.5,0.8023809523809524,0.7757575757575758,0.4447110099950805,-0.3461182115948679,,,,,,,,,,,,,,,,,,,0.005231203271568863,-1.0668763124778613,,,6.898673183409313e+46,-0.10344644819045705,,,,,,,,
14,240702_153027,FalseCHOICE,9.0,15,2.0,159.0,,,,,,,,,,,15.0,15.0,,,A,,,,,,False,cue1.png,Easy,cue2.png,Hard,Right,Hard,Mid,0.0165655999444425,,,,,,,,,,,,,33,20,Male,0.0,1.75,0.6,0.5,2.4444444444444446,3.0,2.7777777777777777,1.5555555555555556,2.0,2.4444444444444446,1.5,2.0,1.0,1.5,1.0,0.9545454545454546,0.4525457666743369,-0.02437513123922388,,,,,,,,,,,,,,,,,,,0.008873361438449183,0.9259136934521696,0.01913088793911456,0.7340320134251218,,,,,,,,,,
15,240702_153057,FalseCHOICE,9.0,16,2.0,159.0,,,,,,,,,,,16.0,16.0,,,A,,,,,,False,cue1.png,Easy,cue2.png,Hard,Right,Hard,Mid,0.0142726998310536,,,,,,,,,,,,,33,20,Male,0.0,1.75,0.6,0.5,2.4444444444444446,3.0,2.7777777777777777,1.5555555555555556,2.0,2.4444444444444446,1.5,2.0,1.0,1.5,0.734375,0.7670454545454546,0.4705887999984303,0.7165822919853534,,,,,,,,,,,,,,,,,,,0.008162104751249092,0.5367528846789197,0.019249161001969762,0.7629128930958796,,,,,,,,,,
16,240702_153126,FalseCHOICE,9.0,17,2.0,159.0,,,,,,,,,,,17.0,17.0,,,A,,,,,,False,cue2.png,Hard,cue1.png,Easy,Right,Easy,Mid,0.0166282998397946,,,,,,,,,,,,,33,20,Male,0.0,1.75,0.6,0.5,2.4444444444444446,3.0,2.7777777777777777,1.5555555555555556,2.0,2.4444444444444446,1.5,2.0,1.0,1.5,0.5214285714285714,0.6424242424242425,0.4361258600256406,-0.6986770349972737,,,,,,,,,,,,,,,,,,,0.004477262782999856,-1.4793913658735893,0.016782150015414984,0.16049805975082262,,,,,,,,,,
17,240702_153156,FalseCHOICE,9.0,18,2.0,159.0,,,,,,,,,,,18.0,18.0,,,A,,,,,,False,cue2.png,Hard,cue1.png,Easy,Right,Easy,Mid,0.0165454000234603,,,,,,,,,,,,,33,20,Male,0.0,1.75,0.6,0.5,2.4444444444444446,3.0,2.7777777777777777,1.5555555555555556,2.0,2.4444444444444446,1.5,2.0,1.0,1.5,0.9642857142857144,0.7727272727272727,0.4264573588392095,-1.0957248925753846,,,,,,,,,,,,,,,,,,,0.00711700748537474,-0.035067253610984755,0.014307116317012253,-0.4438758247079912,,,,,,,,,,
18,240702_153225,FalseCHOICE,9.0,19,2.0,159.0,,,,,,,,,,,19.0,19.0,,,A,,,,,,False,cue1.png,Easy,cue2.png,Hard,Right,Hard,Mid,0.0165409001056104,,,,,,,,,,,,,33,20,Male,0.0,1.75,0.6,0.5,2.4444444444444446,3.0,2.7777777777777777,1.5555555555555556,2.0,2.4444444444444446,1.5,2.0,1.0,1.5,0.8802083333333333,0.8920454545454546,0.4630467142532801,0.40685807216678255,,,,,,,,,,,,,,,,,,,,,0.021948165355700964,1.4219777561272318,,,,,,,,,,
19,240702_153255,FalseCHOICE,9.0,20,2.0,159.0,,,,,,,,,,,20.0,20.0,,,A,,,,,,False,cue1.png,Easy,cue2.png,Hard,Right,Hard,Mid,0.0166389001533389,,,,,,,,,,,,,33,20,Male,0.0,1.75,0.6,0.5,2.4444444444444446,3.0,2.7777777777777777,1.5555555555555556,2.0,2.4444444444444446,1.5,2.0,1.0,1.5,0.84375,0.7840909090909091,0.4609948149998672,0.3225945253331668,,,,,,,,,,,,,,,,,,,0.005679344356811571,-0.8216779891213426,0.012411853275222038,-0.9066765887449402,,,,,,,,,,
20,240702_153325,FalseCHOICE,9.0,21,2.0,159.0,,,,,,,,,,,21.0,21.0,,,A,,,,,,False,cue1.png,Easy,cue2.png,Hard,Right,Hard,Mid,0.0166931001003831,,,,,,,,,,,,,33,20,Male,0.0,1.75,0.6,0.5,2.4444444444444446,3.0,2.7777777777777777,1.5555555555555556,2.0,2.4444444444444446,1.5,2.0,1.0,1.5,0.84375,0.875,0.5024255091028119,2.0239924994715355,,,,,,,,,,,,,,,,,,,0.007367598069157384,0.10204222600559176,0.017737075116009478,0.39367944745716815,1.7505249941800196e+44,-0.17077942433455245,,,,,,,,
21,240702_153355,FalseCHOICE,9.0,22,2.0,159.0,,,,,,,,,,,22.0,22.0,,,A,,,,,,False,cue2.png,Hard,cue1.png,Easy,Right,Easy,Mid,0.016554299974814,,,,,,,,,,,,,33,20,Male,0.0,1.75,0.6,0.5,2.4444444444444446,3.0,2.7777777777777777,1.5555555555555556,2.0,2.4444444444444446,1.5,2.0,1.0,1.5,0.938095238095238,0.8878787878787879,0.4706803000465567,0.7203398442032579,,,,,,,,,,,,,,,,,,,0.005804120554067511,-0.7534072695434023,0.015047424026565972,-0.26310145933004364,5.003064571325576e+43,-0.17090175957726683,,,,,,,,
22,240702_153423,FalseCHOICE,9.0,23,2.0,159.0,,,,,,,,,,,23.0,23.0,,,A,,,,,,False,cue1.png,Easy,cue2.png,Hard,Right,Hard,Mid,0.0165611999109387,,,,,,,,,,,,,33,20,Male,0.0,1.75,0.6,0.5,2.4444444444444446,3.0,2.7777777777777777,1.5555555555555556,2.0,2.4444444444444446,1.5,2.0,1.0,1.5,0.8023809523809524,0.7757575757575758,0.4027546850033104,-2.0691018083918857,,,,,,,,,,,,,,,,,,,0.008792480751934348,0.8816601996788392,0.013357522304627445,-0.6757554238804031,-6.951335645218096e+43,-0.17101873468271117,,,,,,,,
23,240702_153453,FalseCHOICE,9.0,24,2.0,159.0,,,,,,,,,,,24.0,24.0,,,A,,,,,,False,cue2.png,Hard,cue1.png,Easy,Right,Easy,Mid,0.0173122000414878,,,,,,,,,,,,,33,20,Male,0.0,1.75,0.6,0.5,2.4444444444444446,3.0,2.7777777777777777,1.5555555555555556,2.0,2.4444444444444446,1.5,2.0,1.0,1.5,0.9642857142857144,0.8636363636363636,0.4603197579149549,0.29487254814775526,,,,,,,,,,,,,,,,,,,0.0067340757681920715,-0.24458657264947686,0.012379447925829831,-0.9145895908596396,-1.6134489109880539e+44,-0.17110859283748114,,,,,,,,
24,240702_153522,FalseCHOICE,9.0,25,2.0,159.0,,,,,,,,,,,25.0,25.0,,,A,,,,,,False,cue2.png,Hard,cue1.png,Easy,Right,Easy,Mid,0.0170785000082105,,,,,,,,,,,,,33,20,Male,0.0,1.75,0.6,0.5,2.4444444444444446,3.0,2.7777777777777777,1.5555555555555556,2.0,2.4444444444444446,1.5,2.0,1.0,1.5,0.734375,0.7670454545454546,0.4262382381240882,-1.1047233307833666,,,,,,,,,,,,,,,,,,,0.0059113402112856,-0.6947425296959103,0.01617386779090103,0.011962752488542668,,,,,,,,,,
25,240702_153551,FalseCHOICE,9.0,26,2.0,159.0,,,,,,,,,,,26.0,26.0,,,A,,,,,,False,cue1.png,Easy,cue2.png,Hard,Right,Hard,Mid,0.0165801998227834,,,,,,,,,,,,,33,20,Male,0.0,1.75,0.6,0.5,2.4444444444444446,3.0,2.7777777777777777,1.5555555555555556,2.0,2.4444444444444446,1.5,2.0,1.0,1.5,0.734375,0.7670454545454546,0.4231824666771683,-1.2302120164496253,,,,,,,,,,,,,,,,,,,0.004866168382897365,-1.2666034645206368,0.02336987320848556,1.7691419576116565,-1.716763736928159e+44,-0.1711187023054924,,,,,,,,
26,240702_153620,FalseCHOICE,9.0,27,2.0,159.0,,,,,,,,,,,27.0,27.0,,,A,,,,,,False,cue1.png,Easy,cue2.png,Hard,Right,Hard,Mid,0.0167499999515712,,,,,,,,,,,,,33,20,Male,0.0,1.75,0.6,0.5,2.4444444444444446,3.0,2.7777777777777777,1.5555555555555556,2.0,2.4444444444444446,1.5,2.0,1.0,1.5,1.0,0.9545454545454546,0.4521924428242658,-0.03888477187502938,,,,,,,,,,,,,,,,,,,0.005096966364414568,-1.140323415746627,0.011606228092680413,-1.1034007066043228,-2.7065201803244306e+43,-0.17097719870201758,,,,,,,,
27,240702_153649,FalseCHOICE,9.0,28,2.0,159.0,,,,,,,,,,,28.0,28.0,,,A,,,,,,False,cue2.png,Hard,cue1.png,Easy,Right,Easy,Mid,0.0165252999868243,,,,,,,,,,,,,33,20,Male,0.0,1.75,0.6,0.5,2.4444444444444446,3.0,2.7777777777777777,1.5555555555555556,2.0,2.4444444444444446,1.5,2.0,1.0,1.5,0.938095238095238,0.9333333333333332,0.4444413545266302,-0.35719191619167523,,,,,,,,,,,,,,,,,,,0.0072471416570841565,0.0361350569231115,0.016239757272626436,0.028052182721779725,-7.919669136580572e+42,-0.1709584645902102,,,,,,,,
28,240702_153718,FalseCHOICE,9.0,29,2.0,159.0,,,,,,,,,,,29.0,29.0,,,A,,,,,,False,cue1.png,Easy,cue2.png,Hard,Right,Hard,Mid,0.0155547999311238,,,,,,,,,,,,,33,20,Male,0.0,1.75,0.6,0.5,2.4444444444444446,3.0,2.7777777777777777,1.5555555555555556,2.0,2.4444444444444446,1.5,2.0,1.0,1.5,0.84375,0.8295454545454546,0.4519034523982554,-0.05075248821445953,,,,,,,,,,,,,,,,,,,0.010048004081504414,1.5686139860714545,0.01733051229335729,0.29440162648793594,8.30504441389604e+43,-0.17086944934561463,,,,,,,,
29,240702_153748,FalseCHOICE,9.0,30,2.0,159.0,,,,,,,,,,,30.0,30.0,,,A,,,,,,False,cue1.png,Easy,cue2.png,Hard,Right,Hard,Mid,0.0154418998863548,,,,,,,,,,,,,33,20,Male,0.0,1.75,0.6,0.5,2.4444444444444446,3.0,2.7777777777777777,1.5555555555555556,2.0,2.4444444444444446,1.5,2.0,1.0,1.5,0.8928571428571428,0.8878787878787879,0.4658400428348354,0.521569246880681,,,,,,,,,,,,,,,,,,,,,0.011586449630433104,-1.1082303725861407,1.4938795940994574e+44,-0.17080453736589857,,,,,,,,
30,240702_153817,FalseCHOICE,9.0,31,2.0,159.0,,,,,,,,,,,31.0,31.0,,,A,,,,,,False,cue2.png,Hard,cue1.png,Easy,Right,Easy,Mid,0.0165647000540047,,,,,,,,,,,,,33,20,Male,0.0,1.75,0.6,0.5,2.4444444444444446,3.0,2.7777777777777777,1.5555555555555556,2.0,2.4444444444444446,1.5,2.0,1.0,1.5,0.9322916666666669,0.8920454545454546,0.4516158762188362,-0.0625621269296247,,,,,,,,,,,,,,,,,,,0.01115469203191257,2.174133182714579,0.016688826862231367,0.1377096522087648,,,,,,,,,,
31,240702_153847,FalseCHOICE,9.0,32,2.0,159.0,,,,,,,,,,,32.0,32.0,,,A,,,,,,False,cue1.png,Easy,cue2.png,Hard,Right,Hard,Mid,0.0165192999411374,,,,,,,,,,,,,33,20,Male,0.0,1.75,0.6,0.5,2.4444444444444446,3.0,2.7777777777777777,1.5555555555555556,2.0,2.4444444444444446,1.5,2.0,1.0,1.5,0.84375,0.8295454545454546,0.4531702904496342,0.0012716388450980747,,,,,,,,,,,,,,,,,,,0.011350630059503592,2.2813397688303816,0.02250894661625031,1.5589138911740565,1.4386593894338937e+44,-0.170809940722944,,,,,,,,
32,240702_153916,FalseCHOICE,9.0,33,2.0,159.0,,,,,,,,,,,33.0,33.0,,,A,,,,,,False,cue2.png,Hard,cue1.png,Easy,Right,Easy,Mid,0.0166737001854926,,,,,,,,,,,,,33,20,Male,0.0,1.75,0.6,0.5,2.4444444444444446,3.0,2.7777777777777777,1.5555555555555556,2.0,2.4444444444444446,1.5,2.0,1.0,1.5,0.84375,0.875,0.424612577274357,-1.1714829189644427,,,,,,,,,,,,,,,,,,,0.010245169976214923,1.6764923940061387,,,8.786562655531333e+43,-0.17086473763728394,,,,,,,,
33,240702_153945,FalseCHOICE,9.0,34,2.0,159.0,,,,,,,,,,,34.0,34.0,,,A,,,,,,False,cue2.png,Hard,cue1.png,Easy,Right,Easy,Mid,0.0165748000144958,,,,,,,,,,,,,33,20,Male,0.0,1.75,0.6,0.5,2.4444444444444446,3.0,2.7777777777777777,1.5555555555555556,2.0,2.4444444444444446,1.5,2.0,1.0,1.5,0.9322916666666669,0.8920454545454546,0.4304700047775571,-0.9309410814841308,,,,,,,,,,,,,,,,,,,,,0.01374979933188845,-0.5799660247693157,2.0019891900504422e+42,-0.17094875613969893,,,,,,,,
34,240702_154014,FalseCHOICE,9.0,35,2.0,159.0,,,,,,,,,,,35.0,35.0,,,A,,,,,,False,cue2.png,Hard,cue1.png,Easy,Right,Easy,Mid,0.0164664001204073,,,,,,,,,,,,,33,20,Male,0.0,1.75,0.6,0.5,2.4444444444444446,3.0,2.7777777777777777,1.5555555555555556,2.0,2.4444444444444446,1.5,2.0,1.0,1.5,0.7571428571428571,0.8,0.4598640363599935,0.27615783078251177,,,,,,,,,,,,,,,,,,,,,0.01518738945608,-0.22892356091196134,-8.588899744628695e+43,-0.17103475842541097,,,,,,,,
35,240702_154043,FalseCHOICE,9.0,36,2.0,159.0,,,,,,,,,,,36.0,36.0,,,A,,,,,,False,cue1.png,Easy,cue2.png,Hard,Right,Hard,Mid,0.0155376999173313,,,,,,,,,,,,,33,20,Male,0.0,1.75,0.6,0.5,2.4444444444444446,3.0,2.7777777777777777,1.5555555555555556,2.0,2.4444444444444446,1.5,2.0,1.0,1.5,0.7571428571428571,0.8,0.4408322226954624,-0.5054049673824041,,,,,,,,,,,,,,,,,,,0.006885259876680214,-0.16186688650562361,0.017186419679727963,0.25921591864194576,-1.3667084381318153e+44,-0.17108444901402958,,,,,,,,
36,240702_154112,FalseCHOICE,9.0,37,2.0,159.0,,,,,,,,,,,37.0,37.0,,,A,,,,,,False,cue2.png,Hard,cue1.png,Easy,Right,Easy,Mid,0.0165548000950366,,,,,,,,,,,,,33,20,Male,0.0,1.75,0.6,0.5,2.4444444444444446,3.0,2.7777777777777777,1.5555555555555556,2.0,2.4444444444444446,1.5,2.0,1.0,1.5,0.78125,0.8295454545454546,0.457309304758729,0.1712449089748663,,,,,,,,,,,,,,,,,,,0.005152876617330151,-1.109732379296766,0.013408885344340135,-0.6632131785571155,-1.5458587225336737e+44,-0.171101979064077,,,,,,,,
37,240702_154141,FalseCHOICE,9.0,38,2.0,159.0,,,,,,,,,,,38.0,38.0,,,A,,,,,,False,cue1.png,Easy,cue2.png,Hard,Right,Hard,Mid,0.0165673999581486,,,,,,,,,,,,,33,20,Male,0.0,1.75,0.6,0.5,2.4444444444444446,3.0,2.7777777777777777,1.5555555555555556,2.0,2.4444444444444446,1.5,2.0,1.0,1.5,0.734375,0.8125,0.41525620453864,-1.555712871237941,,,,,,,,,,,,,,,,,,,0.0051763845822148545,-1.0968701049705203,0.014903920215323035,-0.29814338861428313,-1.1467810893080291e+44,-0.17106292888390784,,,,,,,,
38,240702_154209,FalseCHOICE,9.0,39,2.0,159.0,,,,,,,,,,,39.0,39.0,,,A,,,,,,False,cue1.png,Easy,cue2.png,Hard,Right,Hard,Mid,0.0155476001091301,,,,,,,,,,,,,33,20,Male,0.0,1.75,0.6,0.5,2.4444444444444446,3.0,2.7777777777777777,1.5555555555555556,2.0,2.4444444444444446,1.5,2.0,1.0,1.5,0.7571428571428571,0.8,0.4019542545270683,-2.1019723846688145,,,,,,,,,,,,,,,,,,,0.009804584809483343,1.4354282565374048,,,-4.415957332183082e+43,-0.1709939257303475,,,,,,,,
39,240702_154238,FalseCHOICE,9.0,40,2.0,159.0,,,,,,,,,,,40.0,40.0,,,A,,,,,,False,cue2.png,Hard,cue1.png,Easy,Right,Easy,Mid,0.0162833000067621,,,,,,,,,,,,,33,20,Male,0.0,1.75,0.6,0.5,2.4444444444444446,3.0,2.7777777777777777,1.5555555555555556,2.0,2.4444444444444446,1.5,2.0,1.0,1.5,0.7571428571428571,0.8,0.4243724408813498,-1.1813443895824376,,,,,,,,,,,,,,,,,,,0.006503695623375426,-0.3706380040041355,,,5.406889595413484e+43,-0.17089780810551433,,,,,,,,
40,240702_154306,FalseCHOICE,9.0,41,2.0,159.0,,,,,,,,,,,41.0,41.0,,,A,,,,,,False,cue2.png,Hard,cue1.png,Easy,Right,Easy,Mid,0.0168991000391542,,,,,,,,,,,,,33,20,Male,0.0,1.75,0.6,0.5,2.4444444444444446,3.0,2.7777777777777777,1.5555555555555556,2.0,2.4444444444444446,1.5,2.0,1.0,1.5,0.6349206349206349,0.7333333333333334,0.4417305454738777,-0.46851433379754515,,,,,,,,,,,,,,,,,,,,,,,1.2200749489884274e+44,-0.17083132944802135,,,,,,,,
41,240702_154336,FalseCHOICE,9.0,42,2.0,159.0,,,,,,,,,,,42.0,42.0,,,A,,,,,,False,cue1.png,Easy,cue2.png,Hard,Right,Hard,Mid,0.0165085999760776,,,,,,,,,,,,,33,20,Male,0.0,1.75,0.6,0.5,2.4444444444444446,3.0,2.7777777777777777,1.5555555555555556,2.0,2.4444444444444446,1.5,2.0,1.0,1.5,0.84375,0.7840909090909091,0.4396788900136016,-0.5527678689922535,,,,,,,,,,,,,,,,,,,0.0075432517747819235,0.19815033911727029,0.00831306108268203,-1.9075530457376397,1.5369743811239165e+44,-0.17080032049414845,,,,,,,,
42,240702_154405,FalseCHOICE,9.0,43,2.0,159.0,,,,,,,,,,,43.0,43.0,,,A,,,,,,False,cue2.png,Hard,cue1.png,Easy,Right,Easy,Mid,0.0169653999619185,,,,,,,,,,,,,33,20,Male,0.0,1.75,0.6,0.5,2.4444444444444446,3.0,2.7777777777777777,1.5555555555555556,2.0,2.4444444444444446,1.5,2.0,1.0,1.5,0.8802083333333333,0.8465909090909091,0.4369766249437816,-0.6637394183453182,,,,,,,,,,,,,,,,,,,0.004474649757730732,-1.4808210705714533,0.010891861787583392,-1.2778404885824852,1.281825103646726e+44,-0.1708252871282717,,,,,,,,
43,240702_154434,FalseCHOICE,9.0,44,2.0,159.0,,,,,,,,,,,44.0,44.0,,,A,,,,,,False,cue1.png,Easy,cue2.png,Hard,Right,Hard,Mid,0.016851200023666,,,,,,,,,,,,,33,20,Male,0.0,1.75,0.6,0.5,2.4444444444444446,3.0,2.7777777777777777,1.5555555555555556,2.0,2.4444444444444446,1.5,2.0,1.0,1.5,0.8571428571428572,0.8666666666666667,0.4560240318321369,0.11846373306492082,,,,,,,,,,,,,,,,,,,0.010480727218129336,1.8053764501078433,0.00811272687719893,-1.9564722834982924,3.628498016986054e+43,-0.17091520986040287,,,,,,,,
44,240702_154503,FalseCHOICE,9.0,45,2.0,159.0,,,,,,,,,,,45.0,45.0,,,A,,,,,,False,cue2.png,Hard,cue1.png,Easy,Right,Easy,Mid,0.0167765000369399,,,,,,,,,,,,,33,20,Male,0.0,1.75,0.6,0.5,2.4444444444444446,3.0,2.7777777777777777,1.5555555555555556,2.0,2.4444444444444446,1.5,2.0,1.0,1.5,0.8476190476190476,0.8424242424242424,0.4485115400049835,-0.19004517928133405,,,,,,,,,,,,,,,,,,,0.006171334956279442,-0.5524876067413029,0.012373054950566745,-0.9161506796219842,-8.299837305338966e+43,-0.17103192991802427,,,,,,,,
45,240702_154533,FalseCHOICE,9.0,46,2.0,159.0,,,,,,,,,,,46.0,46.0,,,A,,,,,,False,cue2.png,Hard,cue1.png,Easy,Right,Easy,Mid,0.0159271000884473,,,,,,,,,,,,,33,20,Male,0.0,1.75,0.6,0.5,2.4444444444444446,3.0,2.7777777777777777,1.5555555555555556,2.0,2.4444444444444446,1.5,2.0,1.0,1.5,0.8571428571428572,0.7757575757575758,0.4381502450327389,-0.6155433915831655,,,,,,,,,,,,,,,,,,,0.006903287370709083,-0.1520032264758711,,,-1.6297919622981285e+44,-0.1711101920228151,,,,,,,,
46,240702_154602,FalseCHOICE,9.0,47,2.0,159.0,,,,,,,,,,,47.0,47.0,,,A,,,,,,False,cue1.png,Easy,cue2.png,Hard,Right,Hard,Mid,0.0176315999124199,,,,,,,,,,,,,33,20,Male,0.0,1.75,0.6,0.5,2.4444444444444446,3.0,2.7777777777777777,1.5555555555555556,2.0,2.4444444444444446,1.5,2.0,1.0,1.5,0.84375,0.875,0.4468172591137276,-0.25962272651820845,,,,,,,,,,,,,,,,,,,0.0065740535104753615,-0.3321420112913315,0.014165195580694562,-0.4785311858648643,,,,,,,,,,
47,240702_154631,FalseCHOICE,9.0,48,2.0,159.0,,,,,,,,,,,48.0,48.0,,,A,,,,,,False,cue1.png,Easy,cue2.png,Hard,Right,Hard,Mid,0.0140637999866157,,,,,,,,,,,,,33,20,Male,0.0,1.75,0.6,0.5,2.4444444444444446,3.0,2.7777777777777777,1.5555555555555556,2.0,2.4444444444444446,1.5,2.0,1.0,1.5,0.734375,0.8125,0.4531890409257771,0.0020416482020356266,,,,,,,,,,,,,,,,,,,,,0.017374252874707397,0.30508255785307714,5.997641673029015e+43,-0.17089202753222593,,,,,,,,
48,240702_154700,FalseCHOICE,9.0,49,2.0,159.0,,,,,,,,,,,49.0,49.0,,,A,,,,,,False,cue2.png,Hard,cue1.png,Easy,Right,Easy,Mid,0.0166617999784648,,,,,,,,,,,,,33,20,Male,0.0,1.75,0.6,0.5,2.4444444444444446,3.0,2.7777777777777777,1.5555555555555556,2.0,2.4444444444444446,1.5,2.0,1.0,1.5,0.734375,0.8125,0.4505531408887526,-0.10620454656075051,,,,,,,,,,,,,,,,,,,0.0049332257694101895,-1.2299133254482295,0.011187761735654117,-1.2055852295360825,,,,,,,,,,
49,240702_154729,FalseCHOICE,9.0,50,2.0,159.0,,,,,,,,,,,50.0,50.0,,,A,,,,,,False,cue1.png,Easy,cue2.png,Hard,Right,Hard,Mid,0.014891600003466,,,,,,,,,,,,,33,20,Male,0.0,1.75,0.6,0.5,2.4444444444444446,3.0,2.7777777777777777,1.5555555555555556,2.0,2.4444444444444446,1.5,2.0,1.0,1.5,0.8571428571428572,0.8666666666666667,0.4587530864148654,0.2305354238464001,,,,,,,,,,,,,,,,,,,0.00643177679538793,-0.40998805830846097,0.020950542036949744,1.1783699697890195,-6.810149634368148e+43,-0.17101735316224945,,,,,,,,
0,240702_144917,OFFLINERATING,9.0,1,1.0,,,,,,,,,,,,,,,,,T0,cue1.png,Easy,41.0,1.807457699906081,,,,,,,,,,,,,,,,,,,,,,33,20,Male,0.0,1.75,0.6,0.5,2.4444444444444446,3.0,2.7777777777777777,1.5555555555555556,2.0,2.4444444444444446,1.5,2.0,1.0,1.5,,,,,,,,,,,,,,,,,,,,,,,,,,,,,-0.6790322940348782,0.005952921881619146,-0.8748866434519751,,,,,
1,240702_144925,OFFLINERATING,9.0,2,3.0,,,,,,,,,,,,,,,,,T0,cue2.png,Hard,55.0,1.7689536001998931,,,,,,,,,,,,,,,,,,,,,,33,20,Male,0.0,1.75,0.6,0.5,2.4444444444444446,3.0,2.7777777777777777,1.5555555555555556,2.0,2.4444444444444446,1.5,2.0,1.0,1.5,,,,,,,,,,,,,,,,,,,,,,,,,,,,,0.04526881960232521,0.007965524811583463,1.3996958981486247,,,,,
2,240702_151627,OFFLINERATING,9.0,3,1.0,,,,,,,,,,,,,,,,,T1,cue1.png,Easy,84.0,1.3666078001260755,,,,,,,,,,,,,,,,,,,,,,33,20,Male,0.0,1.75,0.6,0.5,2.4444444444444446,3.0,2.7777777777777777,1.5555555555555556,2.0,2.4444444444444446,1.5,2.0,1.0,1.5,,,,,,,,,,,,,,,,,,,,,,,,,,,,,1.5456068407079608,,,0.01892676337936332,-0.2602983616481969,141954.0162967873,-0.5773245640918093,
3,240702_151635,OFFLINERATING,9.0,4,3.0,,,,,,,,,,,,,,,,,T1,cue2.png,Hard,35.0,1.0851157000288367,,,,,,,,,,,,,,,,,,,,,,33,20,Male,0.0,1.75,0.6,0.5,2.4444444444444446,3.0,2.7777777777777777,1.5555555555555556,2.0,2.4444444444444446,1.5,2.0,1.0,1.5,,,,,,,,,,,,,,,,,,,,,,,,,,,,,-0.9894470570222511,,,0.021824265265129705,1.3339695877754203,157851.8041726852,-0.5773171278774588,
4,240702_152208,OFFLINERATING,9.0,5,1.0,,,,,,,,,,,,,,,,,T2,cue1.png,Easy,86.0,2.1528407000005245,,,,,,,,,,,,,,,,,,,,,,33,20,Male,0.0,1.75,0.6,0.5,2.4444444444444446,3.0,2.7777777777777777,1.5555555555555556,2.0,2.4444444444444446,1.5,2.0,1.0,1.5,,,,,,,,,,,,,,,,,,,,,,,,,,,,,1.6490784283704185,,,,,4937326122.695781,1.7320508064383102,
5,240702_152216,OFFLINERATING,9.0,6,3.0,,,,,,,,,,,,,,,,,T2,cue2.png,Hard,32.0,2.6529191001318395,,,,,,,,,,,,,,,,,,,,,,33,20,Male,0.0,1.75,0.6,0.5,2.4444444444444446,3.0,2.7777777777777777,1.5555555555555556,2.0,2.4444444444444446,1.5,2.0,1.0,1.5,,,,,,,,,,,,,,,,,,,,,,,,,,,,,-1.1446544385159376,,,,,-38805.1574846446,-0.5774091144690419,
6,240702_154744,OFFLINERATING,9.0,7,1.0,,,,,,,,,,,,,,,,,T3,cue1.png,Easy,53.0,1.2820270999800414,,,,,,,,,,,,,,,,,,,,,,33,20,Male,0.0,1.75,0.6,0.5,2.4444444444444446,3.0,2.7777777777777777,1.5555555555555556,2.0,2.4444444444444446,1.5,2.0,1.0,1.5,,,,,,,,,,,,,,,,,,,,,,,,,,,,,-0.058202768060132415,,,0.017448499070335948,-1.0736712261272254,,,
7,240702_154751,OFFLINERATING,9.0,8,3.0,,,,,,,,,,,,,,,,,T3,cue2.png,Hard,47.0,1.1851208000443876,,,,,,,,,,,,,,,,,,,,,,33,20,Male,0.0,1.75,0.6,0.5,2.4444444444444446,3.0,2.7777777777777777,1.5555555555555556,2.0,2.4444444444444446,1.5,2.0,1.0,1.5,,,,,,,,,,,,,,,,,,,,,,,,,,,,,-0.36861753104750533,0.006262678404162149,-0.5248092546966485,,,,,
0,240702_152236,LEARNINGCHECK,9.0,1,,,,,,,,,,,,1.0,1.0,1.0,,,A,,,,,,,,,,,,,,,cue1.png,Easy,Left,Left,Easy,0.0143730998970568,1.0,,,,,,33,20,Male,0.0,1.75,0.6,0.5,2.4444444444444446,3.0,2.7777777777777777,1.5555555555555556,2.0,2.4444444444444446,1.5,2.0,1.0,1.5,,,,,,,,,,,,,,,,,,,,,,,,,,,,,,,,,,,,
1,240702_152241,LEARNINGCHECK,9.0,2,,,,,,,,,,,,2.0,2.0,2.0,,,A,,,,,,,,,,,,,,,cue2.png,Hard,Right,Right,Hard,0.0143995999824255,1.0,,,,,,33,20,Male,0.0,1.75,0.6,0.5,2.4444444444444446,3.0,2.7777777777777777,1.5555555555555556,2.0,2.4444444444444446,1.5,2.0,1.0,1.5,,,,,,,,,,,,,,,,,,,,,,,,,,,,,,,,,,,,
2,240702_154804,LEARNINGCHECK,9.0,1,,,,,,,,,,,,1.0,1.0,1.0,,,A,,,,,,,,,,,,,,,cue1.png,Easy,Middle,Middle,Mid,0.0129070000257343,1.0,,,,,,33,20,Male,0.0,1.75,0.6,0.5,2.4444444444444446,3.0,2.7777777777777777,1.5555555555555556,2.0,2.4444444444444446,1.5,2.0,1.0,1.5,,,,,,,,,,,,,,,,,,,,,,,,,,,,,,,,,,,,
3,240702_154808,LEARNINGCHECK,9.0,2,,,,,,,,,,,,2.0,2.0,2.0,,,A,,,,,,,,,,,,,,,cue2.png,Hard,Middle,Middle,Mid,0.0160280000418424,1.0,,,,,,33,20,Male,0.0,1.75,0.6,0.5,2.4444444444444446,3.0,2.7777777777777777,1.5555555555555556,2.0,2.4444444444444446,1.5,2.0,1.0,1.5,,,,,,,,,,,,,,,,,,,,,,,,,,,,,,,,,,,,
0,240702_154822,DEMANDRATING,9.0,-1,,,,,,,,,,,,,,,,,,,,,,,,,,,,,,,,,,,,,,,1.0,MentalDemand,1.0,25.0,4.7697616999503225,33,20,Male,0.0,1.75,0.6,0.5,2.4444444444444446,3.0,2.7777777777777777,1.5555555555555556,2.0,2.4444444444444446,1.5,2.0,1.0,1.5,,,,,,,,,,,,,,,,,,,,,,,,,,,,,,,,,,,,-1.2209345466653314
1,240702_154828,DEMANDRATING,9.0,-1,,,,,,,,,,,,,,,,,,,,,,,,,,,,,,,,,,,,,,,2.0,Effort,1.0,57.0,4.213798499898985,33,20,Male,0.0,1.75,0.6,0.5,2.4444444444444446,3.0,2.7777777777777777,1.5555555555555556,2.0,2.4444444444444446,1.5,2.0,1.0,1.5,,,,,,,,,,,,,,,,,,,,,,,,,,,,,,,,,,,,0.09111451840786051
2,240702_154913,DEMANDRATING,9.0,-1,,,,,,,,,,,,,,,,,,,,,,,,,,,,,,,,,,,,,,,3.0,Frustration,1.0,11.0,44.21143490006216,33,20,Male,0.0,1.75,0.6,0.5,2.4444444444444446,3.0,2.7777777777777777,1.5555555555555556,2.0,2.4444444444444446,1.5,2.0,1.0,1.5,,,,,,,,,,,,,,,,,,,,,,,,,,,,,,,,,,,,-1.794956012634853
3,240702_154919,DEMANDRATING,9.0,-1,,,,,,,,,,,,,,,,,,,,,,,,,,,,,,,,,,,,,,,4.0,MentalDemand,2.0,47.0,3.9337209002114832,33,20,Male,0.0,1.75,0.6,0.5,2.4444444444444446,3.0,2.7777777777777777,1.5555555555555556,2.0,2.4444444444444446,1.5,2.0,1.0,1.5,,,,,,,,,,,,,,,,,,,,,,,,,,,,,,,,,,,,-0.31890081442751195
4,240702_154930,DEMANDRATING,9.0,-1,,,,,,,,,,,,,,,,,,,,,,,,,,,,,,,,,,,,,,,5.0,Effort,2.0,68.0,9.957863399991766,33,20,Male,0.0,1.75,0.6,0.5,2.4444444444444446,3.0,2.7777777777777777,1.5555555555555556,2.0,2.4444444444444446,1.5,2.0,1.0,1.5,,,,,,,,,,,,,,,,,,,,,,,,,,,,,,,,,,,,0.5421313845267702
5,240702_154937,DEMANDRATING,9.0,-1,,,,,,,,,,,,,,,,,,,,,,,,,,,,,,,,,,,,,,,6.0,Frustration,2.0,41.0,4.965632300125435,33,20,Male,0.0,1.75,0.6,0.5,2.4444444444444446,3.0,2.7777777777777777,1.5555555555555556,2.0,2.4444444444444446,1.5,2.0,1.0,1.5,,,,,,,,,,,,,,,,,,,,,,,,,,,,,,,,,,,,-0.5649100141287354
6,240702_154953,DEMANDRATING,9.0,-1,,,,,,,,,,,,,,,,,,,,,,,,,,,,,,,,,,,,,,,7.0,MentalDemand,3.0,83.0,14.94668829999864,33,20,Male,0.0,1.75,0.6,0.5,2.4444444444444446,3.0,2.7777777777777777,1.5555555555555556,2.0,2.4444444444444446,1.5,2.0,1.0,1.5,,,,,,,,,,,,,,,,,,,,,,,,,,,,,,,,,,,,1.157154383779829
7,240702_154958,DEMANDRATING,9.0,-1,,,,,,,,,,,,,,,,,,,,,,,,,,,,,,,,,,,,,,,8.0,Effort,3.0,81.0,3.242261900100857,33,20,Male,0.0,1.75,0.6,0.5,2.4444444444444446,3.0,2.7777777777777777,1.5555555555555556,2.0,2.4444444444444446,1.5,2.0,1.0,1.5,,,,,,,,,,,,,,,,,,,,,,,,,,,,,,,,,,,,1.0751513172127545
8,240702_155003,DEMANDRATING,9.0,-1,,,,,,,,,,,,,,,,,,,,,,,,,,,,,,,,,,,,,,,9.0,Frustration,3.0,80.0,3.4031216998118907,33,20,Male,0.0,1.75,0.6,0.5,2.4444444444444446,3.0,2.7777777777777777,1.5555555555555556,2.0,2.4444444444444446,1.5,2.0,1.0,1.5,,,,,,,,,,,,,,,,,,,,,,,,,,,,,,,,,,,,1.0341497839292173
