,END,Phase,Block,TrialN,NbackLevel,ISI,Letter_Resp,Letter_RT,Letter_Accuracy,Trial_A_measure,Trial_ACC,Trial_RT,TrialCountCali,CaliEnd_A_measure,ISI_calibrated,TrialIndex,TrialNumber_total,TrialNumber_valid,CueLearning,TrialDemandLearning,CueMapping,OfflineRatingTimePoint,CueFigure,TrialDemand,OfflineRating,OfflineRatingRT,PhaseType,CueLeft,CueDemandLeft,CueRight,CueDemandRight,Choice,ChoiceDemand,TaskDemand,ChoiceRT,CueCheck,CueDemandCheck,CorrectAnswer,Answer,AnswerDemand,AnswerRT,AnswerACC,DemandRatingQuesIndex,QuesTLX,DemandLevel,DemandRating,DemandRatingRT,PID,Age,Gender,BAI_bis,BAI_bas_d,BAI_bas_rr,BAI_bas_fs,NFC,BFI_ext,BFI_agr,BFI_con,BFI_neu,BFI_open,UPPS_lps,UPPS_lpm,UPPS_pu,UPPS_ss,Task_A_measure,Task_ACC,Task_RT,Task_RT_z,cue_i_on_zyg_values,cue_i_on_zyg_zvalues,cue_e_on_zyg_values,cue_e_on_zyg_zvalues,cue_i_on_cor_values,cue_i_on_cor_zvalues,cue_e_on_cor_values,cue_e_on_cor_zvalues,cue_i_on_scr_values,cue_i_on_scr_zvalues,cue_e_on_scr_values,cue_e_on_scr_zvalues,cue_e_true_zyg_values,cue_e_true_zyg_zvalues,cue_e_true_cor_values,cue_e_true_cor_zvalues,cue_e_true_scr_values,cue_e_true_scr_zvalues,cue_e_false_zyg_values,cue_e_false_zyg_zvalues,cue_e_false_cor_values,cue_e_false_cor_zvalues,cue_e_false_scr_values,cue_e_false_scr_zvalues,OfflineRating_z,cue_i_off_zyg_values,cue_i_off_zyg_zvalues,cue_i_off_cor_values,cue_i_off_cor_zvalues,cue_i_off_scr_values,cue_i_off_scr_zvalues,DemandRating_z
0,240703_144440,PRACTICE,0.0,1,1.0,2583.0,,,,,,,,,,9.0,1.0,1.0,cue2.png,Easy,B,,,,,,,,,,,,,,,,,,,,,,,,,,,34,29,Female,0.42857142857142855,1.0,0.0,0.5,2.4444444444444446,2.625,2.5555555555555554,2.7777777777777777,2.5,3.111111111111111,2.25,1.75,1.0,0.25,,,,,,,,,,,,,,,,,,,,,,,,,,,,,,,,,,,,
0,240703_144647,LEARNING,1.0,1,1.0,2583.0,,,,,,,,,,1.0,1.0,1.0,cue2.png,Easy,B,,,,,,,,,,,,,,,,,,,,,,,,,,,34,29,Female,0.42857142857142855,1.0,0.0,0.5,2.4444444444444446,2.625,2.5555555555555554,2.7777777777777777,2.5,3.111111111111111,2.25,1.75,1.0,0.25,1.0,1.0,0.6537799999738733,1.3130313707335917,0.0048159055000346115,-0.4109455208616864,0.005990223102242528,0.2636177781682423,,,0.008313639710904909,-0.5483994728622074,4.229764034032793e+45,5.131837154143233,3.684311780314761e+45,-0.17276004927180533,,,,,,,,,,,,,,,,,,,,
1,240703_144705,LEARNING,1.0,2,3.0,2583.0,,,,,,,,,,2.0,2.0,2.0,cue1.png,Hard,B,,,,,,,,,,,,,,,,,,,,,,,,,,,34,29,Female,0.42857142857142855,1.0,0.0,0.5,2.4444444444444446,2.625,2.5555555555555554,2.7777777777777777,2.5,3.111111111111111,2.25,1.75,1.0,0.25,1.0,1.0,0.4939458333343888,-0.3022749986076053,0.0059279782202587995,-0.02024327856382429,0.007094218551603369,1.6093313880029205,,,0.011856894262500143,0.9340829176307497,2.1670751492896935e+44,0.08168258074408193,4.080993132011956e+44,-0.17462985919803878,,,,,,,,,,,,,,,,,,,,
2,240703_144723,LEARNING,1.0,3,1.0,2583.0,,,,,,,,,,3.0,3.0,3.0,cue2.png,Easy,B,,,,,,,,,,,,,,,,,,,,,,,,,,,34,29,Female,0.42857142857142855,1.0,0.0,0.5,2.4444444444444446,2.625,2.5555555555555554,2.7777777777777777,2.5,3.111111111111111,2.25,1.75,1.0,0.25,1.0,1.0,0.5559258998837322,0.3241041941163452,0.006245688275497716,0.09137714762323146,0.006265274634229174,0.5988914337024211,0.007120878310398,-0.9045547959443604,0.008511211166635006,-0.4657364296856848,-9.319444541179232e+44,-1.3638166209520672,-2.9985979683897677e+44,-0.17503390777077582,,,,,,,,,,,,,,,,,,,,
3,240703_144741,LEARNING,1.0,4,3.0,2583.0,,,,,,,,,,4.0,4.0,4.0,cue1.png,Hard,B,,,,,,,,,,,,,,,,,,,,,,,,,,,34,29,Female,0.42857142857142855,1.0,0.0,0.5,2.4444444444444446,2.625,2.5555555555555554,2.7777777777777777,2.5,3.111111111111111,2.25,1.75,1.0,0.25,1.0,1.0,0.4800183332990855,-0.44302825549271735,0.006072277524488847,0.03045310189710058,0.005321857899812354,-0.5510849905532406,0.010402074610428169,0.3377417620946218,,,-8.396015454949021e+44,-1.2476094456771796,-3.760220392939614e+44,-0.17507737531702808,,,,,,,,,,,,,,,,,,,,
4,240703_144758,LEARNING,1.0,5,3.0,2583.0,,,,,,,,,,5.0,5.0,5.0,cue1.png,Hard,B,,,,,,,,,,,,,,,,,,,,,,,,,,,34,29,Female,0.42857142857142855,1.0,0.0,0.5,2.4444444444444446,2.625,2.5555555555555554,2.7777777777777777,2.5,3.111111111111111,2.25,1.75,1.0,0.25,1.0,1.0,0.4361441833898425,-0.8864265306417515,0.006596157936577165,0.21450693936338694,0.006157326105748885,0.467307735579703,0.010177766634921965,0.2528163262377403,0.007448248860527566,-0.9104752644534552,,,1.0371717449653845e+49,5.744515301857366,,,,,,,,,,,,,,,,,,,,
5,240703_144816,LEARNING,1.0,6,1.0,2583.0,,,,,,,,,,6.0,6.0,6.0,cue2.png,Easy,B,,,,,,,,,,,,,,,,,,,,,,,,,,,34,29,Female,0.42857142857142855,1.0,0.0,0.5,2.4444444444444446,2.625,2.5555555555555554,2.7777777777777777,2.5,3.111111111111111,2.25,1.75,1.0,0.25,1.0,1.0,0.5775042000071456,0.542177503232565,0.005962187470975714,-0.008224612230804425,0.005162465335221757,-0.7453763199243918,0.006465691807317974,-1.1526155223454078,0.008561202474293083,-0.44482028262324785,-3.2252533825063083e+43,-0.23161645275411155,-5.914127183885142e+43,-0.17489652416333534,,,,,,,,,,,,,,,,,,,,
6,240703_144834,LEARNING,1.0,7,3.0,2583.0,,,,,,,,,,7.0,7.0,7.0,cue1.png,Hard,B,,,,,,,,,,,,,,,,,,,,,,,,,,,34,29,Female,0.42857142857142855,1.0,0.0,0.5,2.4444444444444446,2.625,2.5555555555555554,2.7777777777777777,2.5,3.111111111111111,2.25,1.75,1.0,0.25,0.6875,0.75,0.5348295166622847,0.11090120439181503,0.00816635009630201,0.7661593506547513,0.006311934976098719,0.6557679879760272,0.00816071938227834,-0.5108596718542123,0.007621880109659963,-0.8378287002481866,1.0225799383524245e+44,-0.062344240115122164,,,,,,,,,,,,,,,,,,,,,,
7,240703_144852,LEARNING,1.0,8,3.0,2583.0,,,,,,,,,,8.0,8.0,8.0,cue1.png,Hard,B,,,,,,,,,,,,,,,,,,,,,,,,,,,34,29,Female,0.42857142857142855,1.0,0.0,0.5,2.4444444444444446,2.625,2.5555555555555554,2.7777777777777777,2.5,3.111111111111111,2.25,1.75,1.0,0.25,0.6875,0.75,0.6520962666642541,1.2960153271899464,0.005032135495606374,-0.3349778772125253,0.005436962279083274,-0.41077867875990176,,,0.009307202828582547,-0.13269695859118583,3.1143486898810055e+44,0.2008904159814868,,,,,,,,,,,,,,,,,,,,,,
8,240703_144910,LEARNING,1.0,9,1.0,2583.0,,,,,,,,,,9.0,9.0,9.0,cue2.png,Easy,B,,,,,,,,,,,,,,,,,,,,,,,,,,,34,29,Female,0.42857142857142855,1.0,0.0,0.5,2.4444444444444446,2.625,2.5555555555555554,2.7777777777777777,2.5,3.111111111111111,2.25,1.75,1.0,0.25,0.6875,0.75,0.476896583296669,-0.4745770961968961,0.00652822826534049,0.19064134641423594,0.006053845924724736,0.3411707229380529,0.01189279296039099,0.9021439208887592,0.008132795651882475,-0.6240638455518085,,,,,,,,,,,,,,,,,,,,,,,,
9,240703_144929,LEARNING,1.0,10,1.0,2583.0,,,,,,,,,,10.0,10.0,10.0,cue2.png,Easy,B,,,,,,,,,,,,,,,,,,,,,,,,,,,34,29,Female,0.42857142857142855,1.0,0.0,0.5,2.4444444444444446,2.625,2.5555555555555554,2.7777777777777777,2.5,3.111111111111111,2.25,1.75,1.0,0.25,1.0,1.0,0.7452493500119696,2.2374333732747487,0.0048412994768419985,-0.4020239067450251,0.007658652956933162,2.2973478662873172,0.007102604186100517,-0.9114735778885342,0.008704767857058815,-0.38475314696155566,4.079727880577498e+44,0.32237672228571485,1.6876179732470924e+44,-0.1747664546317593,,,,,,,,,,,,,,,,,,,,
10,240703_144948,LEARNING,1.0,11,3.0,2583.0,,,,,,,,,,11.0,11.0,11.0,cue1.png,Hard,B,,,,,,,,,,,,,,,,,,,,,,,,,,,34,29,Female,0.42857142857142855,1.0,0.0,0.5,2.4444444444444446,2.625,2.5555555555555554,2.7777777777777777,2.5,3.111111111111111,2.25,1.75,1.0,0.25,1.0,1.0,0.6188470666529611,0.9599942768541827,0.00480010062417706,-0.41649821568504286,,,0.009639149940947106,0.04889019569164932,,,,,,,,,,,,,,,,,,,,,,,,,,
11,240703_145006,LEARNING,1.0,12,1.0,2583.0,,,,,,,,,,12.0,12.0,12.0,cue2.png,Easy,B,,,,,,,,,,,,,,,,,,,,,,,,,,,34,29,Female,0.42857142857142855,1.0,0.0,0.5,2.4444444444444446,2.625,2.5555555555555554,2.7777777777777777,2.5,3.111111111111111,2.25,1.75,1.0,0.25,1.0,1.0,0.5702416499843821,0.4687811602848801,0.005971754597903235,-0.004863413025974452,,,0.010863054893333852,0.5122739041588746,0.009175899844120448,-0.18763355980054422,,,1.6473512666246114e+43,-0.17485336906394638,,,,,,,,,,,,,,,,,,,,
12,240703_145024,LEARNING,1.0,13,1.0,2583.0,,,,,,,,,,13.0,13.0,13.0,cue2.png,Easy,B,,,,,,,,,,,,,,,,,,,,,,,,,,,34,29,Female,0.42857142857142855,1.0,0.0,0.5,2.4444444444444446,2.625,2.5555555555555554,2.7777777777777777,2.5,3.111111111111111,2.25,1.75,1.0,0.25,1.0,1.0,0.6222516833416497,0.9944018077221511,0.006030664787028945,0.015833383655600677,0.004903695315394892,-1.060803650444468,0.007990435656491678,-0.5753309399806816,0.007487566507249459,-0.8940249309953109,2.8066805401221855e+44,0.16217250343285564,,,,,,,,,,,,,,,,,,,,,,
13,240703_145042,LEARNING,1.0,14,1.0,2583.0,,,,,,,,,,14.0,14.0,14.0,cue2.png,Easy,B,,,,,,,,,,,,,,,,,,,,,,,,,,,34,29,Female,0.42857142857142855,1.0,0.0,0.5,2.4444444444444446,2.625,2.5555555555555554,2.7777777777777777,2.5,3.111111111111111,2.25,1.75,1.0,0.25,1.0,1.0,0.592311649932526,0.6918236563740117,0.004113620708108293,-0.6576778054932039,,,,,,,4.672482360901992e+43,-0.13222890091126271,,,,,,,,,,,,,,,,,,,,,,
14,240703_145101,LEARNING,1.0,15,3.0,2583.0,,,,,,,,,,15.0,15.0,15.0,cue1.png,Hard,B,,,,,,,,,,,,,,,,,,,,,,,,,,,34,29,Female,0.42857142857142855,1.0,0.0,0.5,2.4444444444444446,2.625,2.5555555555555554,2.7777777777777777,2.5,3.111111111111111,2.25,1.75,1.0,0.25,1.0,1.0,0.6536212999684116,1.3114275263552182,0.006433740823491954,0.15744526604300835,0.005542752695174592,-0.2818256085216304,0.00853390821906341,-0.36956632484159946,0.0174454019806208,3.2722903934435905,,,,,,,,,,,,,,,,,,,,,,,,
15,240703_145120,LEARNING,1.0,16,1.0,2583.0,,,,,,,,,,16.0,16.0,16.0,cue2.png,Easy,B,,,,,,,,,,,,,,,,,,,,,,,,,,,34,29,Female,0.42857142857142855,1.0,0.0,0.5,2.4444444444444446,2.625,2.5555555555555554,2.7777777777777777,2.5,3.111111111111111,2.25,1.75,1.0,0.25,0.6875,0.75,0.6368552499528354,1.1419874876685019,0.0063227649342151755,0.11845633304167037,0.005092080627471048,-0.8311716546779931,0.009910060256079193,0.1514597835041043,0.008880099016915959,-0.3113953474560421,,,,,,,,,,,,,,,,,,,,,,,,
16,240703_145137,LEARNING,1.0,17,1.0,2583.0,,,,,,,,,,17.0,17.0,17.0,cue2.png,Easy,B,,,,,,,,,,,,,,,,,,,,,,,,,,,34,29,Female,0.42857142857142855,1.0,0.0,0.5,2.4444444444444446,2.625,2.5555555555555554,2.7777777777777777,2.5,3.111111111111111,2.25,1.75,1.0,0.25,1.0,1.0,0.5245961166607837,0.00748103741509167,0.005282138851979689,-0.24714470754592788,,,,,0.00796573838393232,-0.6939598844430781,,,,,,,,,,,,,,,,,,,,,,,,
17,240703_145155,LEARNING,1.0,18,3.0,2583.0,,,,,,,,,,18.0,18.0,18.0,cue1.png,Hard,B,,,,,,,,,,,,,,,,,,,,,,,,,,,34,29,Female,0.42857142857142855,1.0,0.0,0.5,2.4444444444444446,2.625,2.5555555555555554,2.7777777777777777,2.5,3.111111111111111,2.25,1.75,1.0,0.25,1.0,1.0,0.4468124000510822,-0.7786120458871799,0.005356077073449887,-0.22116814288916814,0.004556125419018411,-1.4844734583168202,0.00911455218577298,-0.1497282123572082,0.01159461186537865,0.8243450962558116,1.896728484068389e+45,2.1958729840730142,4.2062077460342635e+46,-0.15085697432306766,,,,,,,,,,,,,,,,,,,,
18,240703_145212,LEARNING,1.0,19,3.0,2583.0,,,,,,,,,,19.0,19.0,19.0,cue1.png,Hard,B,,,,,,,,,,,,,,,,,,,,,,,,,,,34,29,Female,0.42857142857142855,1.0,0.0,0.5,2.4444444444444446,2.625,2.5555555555555554,2.7777777777777777,2.5,3.111111111111111,2.25,1.75,1.0,0.25,1.0,1.0,0.4382143666734919,-0.8655049697884636,0.022776340045050747,5.899057342950277,0.0048733428413739385,-1.0978017534763223,0.01042155485391034,0.34511719386243145,0.012220921896710223,1.0863905064621218,,,,,,,,,,,,,,,,,,,,,,,,
19,240703_145230,LEARNING,1.0,20,3.0,2583.0,,,,,,,,,,20.0,20.0,20.0,cue1.png,Hard,B,,,,,,,,,,,,,,,,,,,,,,,,,,,34,29,Female,0.42857142857142855,1.0,0.0,0.5,2.4444444444444446,2.625,2.5555555555555554,2.7777777777777777,2.5,3.111111111111111,2.25,1.75,1.0,0.25,1.0,1.0,0.5700739165768027,0.4670860230854265,0.003582455260690588,-0.8442910795742441,0.004846703636506822,-1.130273572599859,,,0.007341806217603334,-0.9550104062094038,,,4.495740186992111e+43,-0.17483711265221932,,,,,,,,,,,,,,,,,,,,
20,240703_145248,LEARNING,1.0,21,1.0,2583.0,,,,,,,,,,21.0,21.0,21.0,cue2.png,Easy,B,,,,,,,,,,,,,,,,,,,,,,,,,,,34,29,Female,0.42857142857142855,1.0,0.0,0.5,2.4444444444444446,2.625,2.5555555555555554,2.7777777777777777,2.5,3.111111111111111,2.25,1.75,1.0,0.25,1.0,1.0,0.5157071499852464,-0.08235209895207364,,,0.004900434714996005,-1.0647781544476824,0.008378380999338159,-0.4284506194948256,0.008788567539427595,-0.34969172203946286,,,2.14970207563094e+43,-0.1748505020321572,,,,,,,,,,,,,,,,,,,,
21,240703_145305,LEARNING,1.0,22,3.0,2583.0,,,,,,,,,,22.0,22.0,22.0,cue1.png,Hard,B,,,,,,,,,,,,,,,,,,,,,,,,,,,34,29,Female,0.42857142857142855,1.0,0.0,0.5,2.4444444444444446,2.625,2.5555555555555554,2.7777777777777777,2.5,3.111111111111111,2.25,1.75,1.0,0.25,1.0,1.0,0.4808918166672811,-0.43420071080796663,,,,,0.007841998949186527,-0.6315306896177675,,,,,-6.757127366659589e+42,-0.17486662732535718,,,,,,,,,,,,,,,,,,,,
22,240703_145323,LEARNING,1.0,23,3.0,2583.0,,,,,,,,,,23.0,23.0,23.0,cue1.png,Hard,B,,,,,,,,,,,,,,,,,,,,,,,,,,,34,29,Female,0.42857142857142855,1.0,0.0,0.5,2.4444444444444446,2.625,2.5555555555555554,2.7777777777777777,2.5,3.111111111111111,2.25,1.75,1.0,0.25,1.0,1.0,0.4451764166976015,-0.7951455217176269,0.005161174028245159,-0.28964303253201223,0.005034409531606807,-0.9014697511452573,0.008025695621773441,-0.5619811341474537,0.010802592680979604,0.4929676925986131,1.1157659073292718e+43,-0.17698772197143922,-3.0499209274730316e+43,-0.17488017747842777,,,,,,,,,,,,,,,,,,,,
23,240703_145340,LEARNING,1.0,24,3.0,2583.0,,,,,,,,,,24.0,24.0,24.0,cue1.png,Hard,B,,,,,,,,,,,,,,,,,,,,,,,,,,,34,29,Female,0.42857142857142855,1.0,0.0,0.5,2.4444444444444446,2.625,2.5555555555555554,2.7777777777777777,2.5,3.111111111111111,2.25,1.75,1.0,0.25,1.0,1.0,0.4457188166367511,-0.7896639523206728,0.005073478406238686,-0.32045295668043255,0.005911254135100954,0.1673586732067786,0.008708556831606882,-0.3034424631796062,0.008447098416071363,-0.49256092742713997,-4.959482484816466e+43,-0.2534405287188063,-4.412704084498216e+43,-0.17488795519583739,,,,,,,,,,,,,,,,,,,,
24,240703_145359,LEARNING,1.0,25,1.0,2583.0,,,,,,,,,,25.0,25.0,25.0,cue2.png,Easy,B,,,,,,,,,,,,,,,,,,,,,,,,,,,34,29,Female,0.42857142857142855,1.0,0.0,0.5,2.4444444444444446,2.625,2.5555555555555554,2.7777777777777777,2.5,3.111111111111111,2.25,1.75,1.0,0.25,0.6875,0.75,0.6895492165737475,1.6745200600101715,,,0.005118284139502606,-0.7992309226878838,0.006891727858784216,-0.9913136458523236,0.01006983573100979,0.18638535169609247,,,-4.387806830021274e+43,-0.17488781310147072,,,,,,,,,,,,,,,,,,,,
25,240703_145417,LEARNING,1.0,26,1.0,2583.0,,,,,,,,,,26.0,26.0,26.0,cue2.png,Easy,B,,,,,,,,,,,,,,,,,,,,,,,,,,,34,29,Female,0.42857142857142855,1.0,0.0,0.5,2.4444444444444446,2.625,2.5555555555555554,2.7777777777777777,2.5,3.111111111111111,2.25,1.75,1.0,0.25,1.0,1.0,0.5383696833547825,0.14667862249428845,0.00462776102972417,-0.47704593416146945,,,,,,,-1.09119845598287e+44,-0.32834865780741446,-3.172833405789818e+43,-0.1748808789682558,,,,,,,,,,,,,,,,,,,,
26,240703_145436,LEARNING,1.0,27,3.0,2583.0,,,,,,,,,,27.0,27.0,27.0,cue1.png,Hard,B,,,,,,,,,,,,,,,,,,,,,,,,,,,34,29,Female,0.42857142857142855,1.0,0.0,0.5,2.4444444444444446,2.625,2.5555555555555554,2.7777777777777777,2.5,3.111111111111111,2.25,1.75,1.0,0.25,1.0,1.0,0.6831939333351329,1.610292681658355,0.005299261646125555,-0.2411289911763669,0.005447894245590878,-0.3974531744563674,0.007734131581116575,-0.6723704467748731,,,-8.169825977573127e+43,-0.29384048519823264,,,,,,,,,,,,,,,,,,,,,,
27,240703_145454,LEARNING,1.0,28,1.0,2583.0,,,,,,,,,,28.0,28.0,28.0,cue2.png,Easy,B,,,,,,,,,,,,,,,,,,,,,,,,,,,34,29,Female,0.42857142857142855,1.0,0.0,0.5,2.4444444444444446,2.625,2.5555555555555554,2.7777777777777777,2.5,3.111111111111111,2.25,1.75,1.0,0.25,1.0,1.0,0.5436510832902665,0.2000531864826486,0.0048992490393543675,-0.3816646050536767,0.00522037525368787,-0.6747871110020337,0.013588335070536365,1.5440945799896442,0.015805184012385835,2.5860302845322156,-4.1447020329119247e+43,-0.2431870792447859,1.038243124538026e+43,-0.17485684538442822,,,,,,,,,,,,,,,,,,,,
28,240703_145511,LEARNING,1.0,29,1.0,2583.0,,,,,,,,,,29.0,29.0,29.0,cue2.png,Easy,B,,,,,,,,,,,,,,,,,,,,,,,,,,,34,29,Female,0.42857142857142855,1.0,0.0,0.5,2.4444444444444446,2.625,2.5555555555555554,2.7777777777777777,2.5,3.111111111111111,2.25,1.75,1.0,0.25,1.0,1.0,0.5075850833284979,-0.16443483682157797,0.00462139417552691,-0.47928278807040425,0.004866963606904636,-1.1055777118379593,0.00762360541958159,-0.7142168520164338,0.008253889863613804,-0.5733985507308372,1.195380881072085e+43,-0.17598582249196687,2.8213001127822035e+43,-0.174846669067449,,,,,,,,,,,,,,,,,,,,
29,240703_145529,LEARNING,1.0,30,3.0,2583.0,,,,,,,,,,30.0,30.0,30.0,cue1.png,Hard,B,,,,,,,,,,,,,,,,,,,,,,,,,,,34,29,Female,0.42857142857142855,1.0,0.0,0.5,2.4444444444444446,2.625,2.5555555555555554,2.7777777777777777,2.5,3.111111111111111,2.25,1.75,1.0,0.25,1.0,1.0,0.4592191333261629,-0.6532278698795674,0.005324720044835165,-0.2321847438440951,0.0064876871684577085,0.8700008612661329,0.009298077370487287,-0.08024358405808592,,,6.205941815650158e+43,-0.11293137235253708,,,,,,,,,,,,,,,,,,,,,,
30,240703_145546,LEARNING,1.0,31,3.0,2583.0,,,,,,,,,,31.0,31.0,31.0,cue1.png,Hard,B,,,,,,,,,,,,,,,,,,,,,,,,,,,34,29,Female,0.42857142857142855,1.0,0.0,0.5,2.4444444444444446,2.625,2.5555555555555554,2.7777777777777777,2.5,3.111111111111111,2.25,1.75,1.0,0.25,1.0,1.0,0.4708218499630068,-0.5359691980999057,,,0.004439000726760261,-1.6272424276189525,0.008474141380737458,-0.39219469899175896,0.007500363379372599,-0.8886707750068839,8.730389019950868e+43,-0.08116294712998141,,,,,,,,,,,,,,,,,,,,,,
31,240703_145604,LEARNING,1.0,32,1.0,2583.0,,,,,,,,,,32.0,32.0,32.0,cue2.png,Easy,B,,,,,,,,,,,,,,,,,,,,,,,,,,,34,29,Female,0.42857142857142855,1.0,0.0,0.5,2.4444444444444446,2.625,2.5555555555555554,2.7777777777777777,2.5,3.111111111111111,2.25,1.75,1.0,0.25,1.0,1.0,0.5318752166349441,0.08104463647869804,,,0.005583550705712744,-0.23209493429905517,0.008999700716937127,-0.19321222592237947,,,,,2.8553479338874936e+43,-0.17484647474869067,,,,,,,,,,,,,,,,,,,,
32,240703_145621,LEARNING,1.0,33,1.0,2583.0,,,,,,,,,,33.0,33.0,33.0,cue2.png,Easy,B,,,,,,,,,,,,,,,,,,,,,,,,,,,34,29,Female,0.42857142857142855,1.0,0.0,0.5,2.4444444444444446,2.625,2.5555555555555554,2.7777777777777777,2.5,3.111111111111111,2.25,1.75,1.0,0.25,1.0,1.0,0.429121350015824,-0.9574002637201184,0.006452742306011607,0.1641210181700054,0.0064662729597627314,0.8438980434498505,,,,,6.587705192179949e+43,-0.10812714382308498,1.2254657384237632e+43,-0.17485577686184192,,,,,,,,,,,,,,,,,,,,
33,240703_145639,LEARNING,1.0,34,1.0,2583.0,,,,,,,,,,34.0,34.0,34.0,cue2.png,Easy,B,,,,,,,,,,,,,,,,,,,,,,,,,,,34,29,Female,0.42857142857142855,1.0,0.0,0.5,2.4444444444444446,2.625,2.5555555555555554,2.7777777777777777,2.5,3.111111111111111,2.25,1.75,1.0,0.25,1.0,1.0,0.4567160833394155,-0.6785240419770646,0.005499651456286329,-0.17072644758400732,,,0.008953867955482175,-0.21056500722363386,0.009196783789336372,-0.17889580738230823,3.1544713018038307e+43,-0.1513320220760926,,,,,,,,,,,,,,,,,,,,,,
34,240703_145656,LEARNING,1.0,35,3.0,2583.0,,,,,,,,,,35.0,35.0,35.0,cue1.png,Hard,B,,,,,,,,,,,,,,,,,,,,,,,,,,,34,29,Female,0.42857142857142855,1.0,0.0,0.5,2.4444444444444446,2.625,2.5555555555555554,2.7777777777777777,2.5,3.111111111111111,2.25,1.75,1.0,0.25,0.6875,0.75,0.5121284500152493,-0.11851893972858975,,,,,,,0.006589768226980143,-1.2696598511889208,-2.2952844291273603e+43,-0.21991343551359008,-2.2322279299742286e+43,-0.17487551071612623,,,,,,,,,,,,,,,,,,,,
35,240703_145714,LEARNING,1.0,36,3.0,2583.0,,,,,,,,,,36.0,36.0,36.0,cue1.png,Hard,B,,,,,,,,,,,,,,,,,,,,,,,,,,,34,29,Female,0.42857142857142855,1.0,0.0,0.5,2.4444444444444446,2.625,2.5555555555555554,2.7777777777777777,2.5,3.111111111111111,2.25,1.75,1.0,0.25,1.0,1.0,0.46189969991489,-0.6261376902562047,0.006092125689436222,0.03742631723581851,0.006630749654529389,1.044386665731998,0.011540513317823707,0.7687670219130671,,,-6.243005090419468e+43,-0.2695927745839972,-3.26762551027766e+43,-0.17488141996863255,,,,,,,,,,,,,,,,,,,,
36,240703_145732,LEARNING,1.0,37,1.0,2583.0,,,,,,,,,,37.0,37.0,37.0,cue2.png,Easy,B,,,,,,,,,,,,,,,,,,,,,,,,,,,34,29,Female,0.42857142857142855,1.0,0.0,0.5,2.4444444444444446,2.625,2.5555555555555554,2.7777777777777777,2.5,3.111111111111111,2.25,1.75,1.0,0.25,1.0,1.0,0.48294376663398,-0.4134634183975505,,,,,0.009352843954823612,-0.059508360378861654,0.01044899681465665,0.3450247103652656,-8.420045855875313e+43,-0.29698932961830915,-3.303819277770718e+43,-0.17488162653480127,,,,,,,,,,,,,,,,,,,,
37,240703_145749,LEARNING,1.0,38,3.0,2583.0,,,,,,,,,,38.0,38.0,38.0,cue1.png,Hard,B,,,,,,,,,,,,,,,,,,,,,,,,,,,34,29,Female,0.42857142857142855,1.0,0.0,0.5,2.4444444444444446,2.625,2.5555555555555554,2.7777777777777777,2.5,3.111111111111111,2.25,1.75,1.0,0.25,1.0,1.0,0.4105892332348351,-1.1446884193322198,0.006714376311442016,0.2560403600655827,,,0.007533556169421489,-0.7483104762006547,0.008799370772463407,-0.345171696028695,-7.62614301413773e+43,-0.28699861045462544,-2.417318911509711e+43,-0.17487656707299568,,,,,,,,,,,,,,,,,,,,
38,240703_145805,LEARNING,1.0,39,3.0,2583.0,,,,,,,,,,39.0,39.0,39.0,cue1.png,Hard,B,,,,,,,,,,,,,,,,,,,,,,,,,,,34,29,Female,0.42857142857142855,1.0,0.0,0.5,2.4444444444444446,2.625,2.5555555555555554,2.7777777777777777,2.5,3.111111111111111,2.25,1.75,1.0,0.25,1.0,1.0,0.3665785166667774,-1.5894668561729692,,,0.00739248952183171,1.9729083432224879,,,0.00876289023912653,-0.3604349935085112,-3.9819213671267723e+43,-0.24113859694740866,-5.827562998393532e+42,-0.17486609680155865,,,,,,,,,,,,,,,,,,,,
39,240703_145823,LEARNING,1.0,40,3.0,2583.0,,,,,,,,,,40.0,40.0,40.0,cue1.png,Hard,B,,,,,,,,,,,,,,,,,,,,,,,,,,,34,29,Female,0.42857142857142855,1.0,0.0,0.5,2.4444444444444446,2.625,2.5555555555555554,2.7777777777777777,2.5,3.111111111111111,2.25,1.75,1.0,0.25,1.0,1.0,0.4566016666746388,-0.679680352741267,,,,,0.010810857290544163,0.4925113247963051,0.007346862607300079,-0.9528948346139281,1.142843798076486e+43,-0.17664696541058825,1.6390911759246479e+43,-0.1748534162061868,,,,,,,,,,,,,,,,,,,,
40,240703_145841,LEARNING,1.0,41,1.0,2583.0,,,,,,,,,,41.0,41.0,41.0,cue2.png,Easy,B,,,,,,,,,,,,,,,,,,,,,,,,,,,34,29,Female,0.42857142857142855,1.0,0.0,0.5,2.4444444444444446,2.625,2.5555555555555554,2.7777777777777777,2.5,3.111111111111111,2.25,1.75,1.0,0.25,1.0,1.0,0.5169459666746358,-0.06983244479495954,0.006153603730935068,0.05902527225814657,0.006539366381812477,0.9329951614666685,0.021741954237177834,4.631143357347535,0.01403069899603034,1.8435934229874333,4.921211220026854e+43,-0.12909881993815375,3.010759678147631e+43,-0.1748455877780653,,,,,,,,,,,,,,,,,,,,
41,240703_145903,LEARNING,1.0,42,3.0,2583.0,,,,,,,,,,42.0,42.0,42.0,cue1.png,Hard,B,,,,,,,,,,,,,,,,,,,,,,,,,,,34,29,Female,0.42857142857142855,1.0,0.0,0.5,2.4444444444444446,2.625,2.5555555555555554,2.7777777777777777,2.5,3.111111111111111,2.25,1.75,1.0,0.25,0.6875,0.5833333333333334,0.8284437600523233,3.078207678651389,0.004933887901235321,-0.3694950043059789,0.0074771897804836104,2.0761535974401295,0.007942161746367641,-0.5936079666826873,0.0084380023741062,-0.4963666720724039,,,,,,,,,,,,,,,,,,,,,,,,
42,240703_145919,LEARNING,1.0,43,3.0,2583.0,,,,,,,,,,43.0,43.0,43.0,cue1.png,Hard,B,,,,,,,,,,,,,,,,,,,,,,,,,,,34,29,Female,0.42857142857142855,1.0,0.0,0.5,2.4444444444444446,2.625,2.5555555555555554,2.7777777777777777,2.5,3.111111111111111,2.25,1.75,1.0,0.25,1.0,1.0,0.3522194999968633,-1.734581080321956,0.004941203005296218,-0.36692500370506637,0.005534964252337152,-0.2913193193261729,0.00977932101208735,0.10196048569915722,0.009634449920475935,0.00422181029984988,7.544404741538246e+43,-0.09608774048659857,2.643543673955419e+43,-0.1748476835643936,,,,,,,,,,,,,,,,,,,,
43,240703_145937,LEARNING,1.0,44,1.0,2583.0,,,,,,,,,,44.0,44.0,44.0,cue2.png,Easy,B,,,,,,,,,,,,,,,,,,,,,,,,,,,34,29,Female,0.42857142857142855,1.0,0.0,0.5,2.4444444444444446,2.625,2.5555555555555554,2.7777777777777777,2.5,3.111111111111111,2.25,1.75,1.0,0.25,1.0,1.0,0.4653594000265002,-0.5911734786374236,,,,,0.014451378404006374,1.870852160021788,0.010038781342706552,0.17339232984663114,2.86556638412017e+43,-0.1549676910091667,4.1286735206036635e+42,-0.17486041454802412,,,,,,,,,,,,,,,,,,,,
44,240703_145955,LEARNING,1.0,45,1.0,2583.0,,,,,,,,,,45.0,45.0,45.0,cue2.png,Easy,B,,,,,,,,,,,,,,,,,,,,,,,,,,,34,29,Female,0.42857142857142855,1.0,0.0,0.5,2.4444444444444446,2.625,2.5555555555555554,2.7777777777777777,2.5,3.111111111111111,2.25,1.75,1.0,0.25,1.0,1.0,0.5614293499772126,0.3797228279557652,0.005049576368263942,-0.3288504109677192,0.006323148414505049,0.6694365920315759,0.008951118657982579,-0.2116059211185879,,,-3.2886649393830496e+43,-0.23241444341894013,-2.0185694453570751e+43,-0.1748742913179359,,,,,,,,,,,,,,,,,,,,
45,240703_150013,LEARNING,1.0,46,1.0,2583.0,,,,,,,,,,46.0,46.0,46.0,cue2.png,Easy,B,,,,,,,,,,,,,,,,,,,,,,,,,,,34,29,Female,0.42857142857142855,1.0,0.0,0.5,2.4444444444444446,2.625,2.5555555555555554,2.7777777777777777,2.5,3.111111111111111,2.25,1.75,1.0,0.25,0.6875,0.75,0.5904012833877156,0.672517225762283,0.005904369635041953,-0.028537634691760523,0.005440524327969436,-0.40643672457179364,0.010386884848729813,0.3319907533314075,0.008553523109369816,-0.44803329571703954,-8.455109890881009e+43,-0.2974305862911292,-3.815727782351599e+43,-0.17488454811456083,,,,,,,,,,,,,,,,,,,,
46,240703_150030,LEARNING,1.0,47,3.0,2583.0,,,,,,,,,,47.0,47.0,47.0,cue1.png,Hard,B,,,,,,,,,,,,,,,,,,,,,,,,,,,34,29,Female,0.42857142857142855,1.0,0.0,0.5,2.4444444444444446,2.625,2.5555555555555554,2.7777777777777777,2.5,3.111111111111111,2.25,1.75,1.0,0.25,1.0,1.0,0.3378665499233951,-1.8796339946015617,0.005194275819580256,-0.27801344764651015,0.00588935350280352,0.14066293006426406,0.008016829035349988,-0.5653381200721633,0.010421150483742841,0.33337392586236425,-6.991704636192087e+43,-0.27901464147569455,-2.8531605340600203e+43,-0.17487905452153657,,,,,,,,,,,,,,,,,,,,
47,240703_150047,LEARNING,1.0,48,3.0,2583.0,,,,,,,,,,48.0,48.0,48.0,cue1.png,Hard,B,,,,,,,,,,,,,,,,,,,,,,,,,,,34,29,Female,0.42857142857142855,1.0,0.0,0.5,2.4444444444444446,2.625,2.5555555555555554,2.7777777777777777,2.5,3.111111111111111,2.25,1.75,1.0,0.25,0.6875,0.75,0.5064739666801567,-0.1756639365621547,0.005574070068447049,-0.14458110824502365,0.006357009163355616,0.7107111014453444,,,0.008840623087350312,-0.32791190577191714,2.6995011211635507e+43,-0.1570575076943062,1.4493430057977337e+43,-0.17485449914270437,,,,,,,,,,,,,,,,,,,,
48,240703_150105,LEARNING,1.0,49,1.0,2583.0,,,,,,,,,,49.0,49.0,49.0,cue2.png,Easy,B,,,,,,,,,,,,,,,,,,,,,,,,,,,34,29,Female,0.42857142857142855,1.0,0.0,0.5,2.4444444444444446,2.625,2.5555555555555554,2.7777777777777777,2.5,3.111111111111111,2.25,1.75,1.0,0.25,1.0,1.0,0.4499854333310698,-0.7465449292308506,,,,,,,,,1.1539934317990295e+44,-0.04580675922551992,,,,,,,,,,,,,,,,,,,,,,
49,240703_150122,LEARNING,1.0,50,1.0,2583.0,,,,,,,,,,50.0,50.0,50.0,cue2.png,Easy,B,,,,,,,,,,,,,,,,,,,,,,,,,,,34,29,Female,0.42857142857142855,1.0,0.0,0.5,2.4444444444444446,2.625,2.5555555555555554,2.7777777777777777,2.5,3.111111111111111,2.25,1.75,1.0,0.25,1.0,1.0,0.4151145500751833,-1.0989549365031759,0.005063517473492643,-0.3239525108808744,0.0053080082805725855,-0.5679669633120732,0.008559857850325005,-0.35974151259298,0.014386336982320464,1.9923908193890323,-4.583974292824747e+43,-0.24871501736827267,-8.202522250081033e+41,-0.17486323901395123,,,,,,,,,,,,,,,,,,,,
0,240703_150307,TrueCHOICE,9.0,1,1.0,2583.0,,,,,,,,,,,1.0,1.0,,,B,,,,,,True,cue2.png,Easy,cue1.png,Hard,Left,Easy,Easy,0.0165717999916523,,,,,,,,,,,,,34,29,Female,0.42857142857142855,1.0,0.0,0.5,2.4444444444444446,2.625,2.5555555555555554,2.7777777777777777,2.5,3.111111111111111,2.25,1.75,1.0,0.25,1.0,1.0,0.54368293331936,0.5410743304371372,,,,,,,,,,,,,0.005302259933278628,-0.5399069855806913,,,,,,,,,,,,,,,,,,
1,240703_150322,TrueCHOICE,9.0,2,1.0,2583.0,,,,,,,,,,,2.0,2.0,,,B,,,,,,True,cue2.png,Easy,cue1.png,Hard,Left,Easy,Easy,0.0158007000572979,,,,,,,,,,,,,34,29,Female,0.42857142857142855,1.0,0.0,0.5,2.4444444444444446,2.625,2.5555555555555554,2.7777777777777777,2.5,3.111111111111111,2.25,1.75,1.0,0.25,1.0,1.0,0.370698183386897,-2.047928591858066,,,,,,,,,,,,,,,0.008504793611103737,-0.6745217485610586,2926440.2172490787,-0.4472265995872624,,,,,,,,,,,,,,
2,240703_150338,TrueCHOICE,9.0,3,1.0,2583.0,,,,,,,,,,,3.0,3.0,,,B,,,,,,True,cue1.png,Hard,cue2.png,Easy,Right,Easy,Easy,0.0149708001408725,,,,,,,,,,,,,34,29,Female,0.42857142857142855,1.0,0.0,0.5,2.4444444444444446,2.625,2.5555555555555554,2.7777777777777777,2.5,3.111111111111111,2.25,1.75,1.0,0.25,1.0,1.0,0.4659143999451771,-0.6228604109026644,,,,,,,,,,,,,0.004537183019056417,-1.0184678773988767,0.008619666777874475,-0.6343989664471389,1076816.6365836083,-0.4473510882951647,,,,,,,,,,,,,,
3,240703_150353,TrueCHOICE,9.0,4,1.0,2583.0,,,,,,,,,,,4.0,4.0,,,B,,,,,,True,cue2.png,Easy,cue1.png,Hard,Left,Easy,Easy,0.0160861001349985,,,,,,,,,,,,,34,29,Female,0.42857142857142855,1.0,0.0,0.5,2.4444444444444446,2.625,2.5555555555555554,2.7777777777777777,2.5,3.111111111111111,2.25,1.75,1.0,0.25,1.0,1.0,0.4891275165913005,-0.27543772274167455,,,,,,,,,,,,,0.005296484861123932,-0.5435193330836547,,,,,,,,,,,,,,,,,,
4,240703_150409,TrueCHOICE,9.0,5,1.0,2583.0,,,,,,,,,,,5.0,5.0,,,B,,,,,,True,cue1.png,Hard,cue2.png,Easy,Right,Easy,Easy,0.0165542000904679,,,,,,,,,,,,,34,29,Female,0.42857142857142855,1.0,0.0,0.5,2.4444444444444446,2.625,2.5555555555555554,2.7777777777777777,2.5,3.111111111111111,2.25,1.75,1.0,0.25,1.0,1.0,0.5792345333611593,1.0731628320907463,,,,,,,,,,,,,0.005621262565984685,-0.3403686364784207,0.007930997137646566,-0.8749367935141172,39870677208.460556,2.2360678998929955,,,,,,,,,,,,,,
5,240703_150425,TrueCHOICE,9.0,6,1.0,2583.0,,,,,,,,,,,6.0,6.0,,,B,,,,,,True,cue1.png,Hard,cue2.png,Easy,Right,Easy,Easy,0.0167555999942123,,,,,,,,,,,,,34,29,Female,0.42857142857142855,1.0,0.0,0.5,2.4444444444444446,2.625,2.5555555555555554,2.7777777777777777,2.5,3.111111111111111,2.25,1.75,1.0,0.25,1.0,1.0,0.4623934500462686,-0.6755572502546194,,,,,,,,,,,,,0.006356293255162229,0.11939813413985455,0.0096729700453164,-0.2665022792791344,-80335.26598521695,-0.4474289702743432,,,,,,,,,,,,,,
6,240703_150441,TrueCHOICE,9.0,7,1.0,2583.0,,,,,,,,,,,7.0,7.0,,,B,,,,,,True,cue2.png,Easy,cue1.png,Hard,Left,Easy,Easy,0.0160903998184949,,,,,,,,,,,,,34,29,Female,0.42857142857142855,1.0,0.0,0.5,2.4444444444444446,2.625,2.5555555555555554,2.7777777777777777,2.5,3.111111111111111,2.25,1.75,1.0,0.25,0.6875,0.75,0.5317195666721091,0.3620227595771956,,,,,,,,,,,,,0.006217766555473607,0.03274872711780122,0.010586554400711521,0.05259352929521205,238794.12302585624,-0.44740749130656454,,,,,,,,,,,,,,
7,240703_150457,TrueCHOICE,9.0,8,3.0,2583.0,,,,,,,,,,,8.0,8.0,,,B,,,,,,True,cue1.png,Hard,cue2.png,Easy,Left,Hard,Hard,0.016051199985668,,,,,,,,,,,,,34,29,Female,0.42857142857142855,1.0,0.0,0.5,2.4444444444444446,2.625,2.5555555555555554,2.7777777777777777,2.5,3.111111111111111,2.25,1.75,1.0,0.25,1.0,1.0,0.628823283322466,1.8153405015842337,,,,,,,,,,,,,0.009826627193607626,2.2901159712839876,0.01071348405290912,0.09692738829889022,11437696.602816759,-0.44665375042966077,,,,,,,,,,,,,,
8,240703_150513,TrueCHOICE,9.0,9,1.0,2583.0,,,,,,,,,,,9.0,9.0,,,B,,,,,,True,cue2.png,Easy,cue1.png,Hard,Left,Easy,Easy,0.0165673000738024,,,,,,,,,,,,,34,29,Female,0.42857142857142855,1.0,0.0,0.5,2.4444444444444446,2.625,2.5555555555555554,2.7777777777777777,2.5,3.111111111111111,2.25,1.75,1.0,0.25,1.0,1.0,0.5009016833112886,-0.09921784175481604,,,,,,,,,,,,,,,0.017023372796177046,2.300838870207348,,,,,,,,,,,,,,,,
9,240703_150529,TrueCHOICE,9.0,10,1.0,2583.0,,,,,,,,,,,10.0,10.0,,,B,,,,,,True,cue1.png,Hard,cue2.png,Easy,Right,Easy,Easy,0.0188670998904854,,,,,,,,,,,,,34,29,Female,0.42857142857142855,1.0,0.0,0.5,2.4444444444444446,2.625,2.5555555555555554,2.7777777777777777,2.5,3.111111111111111,2.25,1.75,1.0,0.25,1.0,1.0,0.5028138832810024,-0.0705986061774908,,,,,,,,,,,,,,,,,,,,,,,,,,,,,,,,
0,240703_150711,FalseCHOICE,9.0,1,2.0,2583.0,,,,,,,,,,,1.0,1.0,,,B,,,,,,False,cue2.png,Easy,cue1.png,Hard,Left,Easy,Mid,0.0173515998758375,,,,,,,,,,,,,34,29,Female,0.42857142857142855,1.0,0.0,0.5,2.4444444444444446,2.625,2.5555555555555554,2.7777777777777777,2.5,3.111111111111111,2.25,1.75,1.0,0.25,1.0,1.0,0.5671221166461086,1.5517731204161798,,,,,,,,,,,,,,,,,,,,,0.009114668036750873,-0.694494439849753,,,,,,,,,,
1,240703_150727,FalseCHOICE,9.0,2,2.0,2583.0,,,,,,,,,,,2.0,2.0,,,B,,,,,,False,cue1.png,Hard,cue2.png,Easy,Left,Hard,Mid,0.0172242999542504,,,,,,,,,,,,,34,29,Female,0.42857142857142855,1.0,0.0,0.5,2.4444444444444446,2.625,2.5555555555555554,2.7777777777777777,2.5,3.111111111111111,2.25,1.75,1.0,0.25,1.0,1.0,0.5221035000092039,0.7833764873738559,,,,,,,,,,,,,,,,,,,0.014746895603455792,0.4640590857118793,,,2.0060177046037803e+44,-0.1712613781156639,,,,,,,,
2,240703_150742,FalseCHOICE,9.0,3,2.0,2583.0,,,,,,,,,,,3.0,3.0,,,B,,,,,,False,cue1.png,Hard,cue2.png,Easy,Right,Easy,Mid,0.0164900999516248,,,,,,,,,,,,,34,29,Female,0.42857142857142855,1.0,0.0,0.5,2.4444444444444446,2.625,2.5555555555555554,2.7777777777777777,2.5,3.111111111111111,2.25,1.75,1.0,0.25,1.0,1.0,0.4567371667362749,-0.3323235086155047,,,,,,,,,,,,,,,,,,,0.006069570691626412,-0.3546529242685285,0.00805975809381821,-1.0987189616202684,-8.96698976420336e+44,-0.17240773079774704,,,,,,,,
3,240703_150758,FalseCHOICE,9.0,4,2.0,2583.0,,,,,,,,,,,4.0,4.0,,,B,,,,,,False,cue1.png,Hard,cue2.png,Easy,Right,Easy,Mid,0.0169074998702853,,,,,,,,,,,,,34,29,Female,0.42857142857142855,1.0,0.0,0.5,2.4444444444444446,2.625,2.5555555555555554,2.7777777777777777,2.5,3.111111111111111,2.25,1.75,1.0,0.25,0.6875,0.75,0.50317709997762,0.46033275244132943,,,,,,,,,,,,,,,,,,,0.0073094915108673116,-0.23766547981391536,0.00711800958674544,-1.4595818413854342,-9.948986064845158e+44,-0.17251032018322196,,,,,,,,
4,240703_150813,FalseCHOICE,9.0,5,2.0,2583.0,,,,,,,,,,,5.0,5.0,,,B,,,,,,False,cue2.png,Easy,cue1.png,Hard,Right,Hard,Mid,0.0170203000307083,,,,,,,,,,,,,34,29,Female,0.42857142857142855,1.0,0.0,0.5,2.4444444444444446,2.625,2.5555555555555554,2.7777777777777777,2.5,3.111111111111111,2.25,1.75,1.0,0.25,0.6875,0.75,0.4814218999041865,0.08900587177737103,,,,,,,,,,,,,,,,,,,0.0057162822364670695,-0.3879859507675213,0.007670136135000949,-1.24801582912003,5.745581559888104e+48,5.830951679380478,,,,,,,,
5,240703_150829,FalseCHOICE,9.0,6,2.0,2583.0,,,,,,,,,,,6.0,6.0,,,B,,,,,,False,cue1.png,Hard,cue2.png,Easy,Right,Easy,Mid,0.0168967000208795,,,,,,,,,,,,,34,29,Female,0.42857142857142855,1.0,0.0,0.5,2.4444444444444446,2.625,2.5555555555555554,2.7777777777777777,2.5,3.111111111111111,2.25,1.75,1.0,0.25,0.6875,0.75,0.5773217666816587,1.7258650257436734,,,,,,,,,,,,,,,,,,,0.005574207593099742,-0.40139079823150675,0.008742200333973535,-0.8372180723634172,-6.519424171582481e+43,-0.17153905583739273,,,,,,,,
6,240703_150845,FalseCHOICE,9.0,7,2.0,2583.0,,,,,,,,,,,7.0,7.0,,,B,,,,,,False,cue1.png,Hard,cue2.png,Easy,Left,Hard,Mid,0.0161566000897437,,,,,,,,,,,,,34,29,Female,0.42857142857142855,1.0,0.0,0.5,2.4444444444444446,2.625,2.5555555555555554,2.7777777777777777,2.5,3.111111111111111,2.25,1.75,1.0,0.25,1.0,1.0,0.5072011500208949,0.5290169265772259,,,,,,,,,,,,,,,,,,,0.006380028677822577,-0.32536098412847153,0.00846718144022629,-0.9426008887333,,,,,,,,,,
7,240703_150901,FalseCHOICE,9.0,8,2.0,2583.0,,,,,,,,,,,8.0,8.0,,,B,,,,,,False,cue2.png,Easy,cue1.png,Hard,Right,Hard,Mid,0.0165820000693202,,,,,,,,,,,,,34,29,Female,0.42857142857142855,1.0,0.0,0.5,2.4444444444444446,2.625,2.5555555555555554,2.7777777777777777,2.5,3.111111111111111,2.25,1.75,1.0,0.25,1.0,1.0,0.5202172166900709,0.7511806124300331,,,,,,,,,,,,,,,,,,,0.00552190624423078,-0.40632546909980866,0.008827377000203966,-0.8045797439414804,,,,,,,,,,
8,240703_150917,FalseCHOICE,9.0,9,2.0,2583.0,,,,,,,,,,,9.0,9.0,,,B,,,,,,False,cue2.png,Easy,cue1.png,Hard,Right,Hard,Mid,0.0165633000433444,,,,,,,,,,,,,34,29,Female,0.42857142857142855,1.0,0.0,0.5,2.4444444444444446,2.625,2.5555555555555554,2.7777777777777777,2.5,3.111111111111111,2.25,1.75,1.0,0.25,1.0,1.0,0.4417240332889681,-0.588573967961446,,,,,,,,,,,,,,,,,,,0.007402653431643466,-0.2288755838278492,0.00826556758213628,-1.0198560761687123,,,,,,,,,,
9,240703_150932,FalseCHOICE,9.0,10,2.0,2583.0,,,,,,,,,,,10.0,10.0,,,B,,,,,,False,cue1.png,Hard,cue2.png,Easy,Left,Hard,Mid,0.0159697001799941,,,,,,,,,,,,,34,29,Female,0.42857142857142855,1.0,0.0,0.5,2.4444444444444446,2.625,2.5555555555555554,2.7777777777777777,2.5,3.111111111111111,2.25,1.75,1.0,0.25,1.0,1.0,0.4365082499571144,-0.6775991457717566,,,,,,,,,,,,,,,,,,,0.005843986961128949,-0.37593691573952676,,,4.532197344442732e+44,-0.170997467532008,,,,,,,,
10,240703_150947,FalseCHOICE,9.0,11,2.0,2583.0,,,,,,,,,,,11.0,11.0,,,B,,,,,,False,cue2.png,Easy,cue1.png,Hard,Right,Hard,Mid,0.0164832998998463,,,,,,,,,,,,,34,29,Female,0.42857142857142855,1.0,0.0,0.5,2.4444444444444446,2.625,2.5555555555555554,2.7777777777777777,2.5,3.111111111111111,2.25,1.75,1.0,0.25,1.0,1.0,0.437393783358857,-0.662484490209735,,,,,,,,,,,,,,,,,,,0.012710096883544415,0.2718856231703451,0.014732195539393474,1.4580517405149254,4.487346111725043e+44,-0.17100215315088385,,,,,,,,
11,240703_151003,FalseCHOICE,9.0,12,2.0,2583.0,,,,,,,,,,,12.0,12.0,,,B,,,,,,False,cue1.png,Hard,cue2.png,Easy,Right,Easy,Mid,0.0165951000526547,,,,,,,,,,,,,34,29,Female,0.42857142857142855,1.0,0.0,0.5,2.4444444444444446,2.625,2.5555555555555554,2.7777777777777777,2.5,3.111111111111111,2.25,1.75,1.0,0.25,1.0,1.0,0.5321467665877814,0.9547991742584442,,,,,,,,,,,,,,,,,,,,,0.013941263738636491,1.1549793967039692,,,,,,,,,,
12,240703_151018,FalseCHOICE,9.0,13,2.0,2583.0,,,,,,,,,,,13.0,13.0,,,B,,,,,,False,cue2.png,Easy,cue1.png,Hard,Right,Hard,Mid,0.0165425001177936,,,,,,,,,,,,,34,29,Female,0.42857142857142855,1.0,0.0,0.5,2.4444444444444446,2.625,2.5555555555555554,2.7777777777777777,2.5,3.111111111111111,2.25,1.75,1.0,0.25,1.0,1.0,0.4210975167031089,-0.940636005402488,,,,,,,,,,,,,,,,,,,0.0065106423693614395,-0.31303748592858693,0.01403278613947967,1.190049308557558,,,,,,,,,,
13,240703_151034,FalseCHOICE,9.0,14,2.0,2583.0,,,,,,,,,,,14.0,14.0,,,B,,,,,,False,cue1.png,Hard,cue2.png,Easy,Right,Easy,Mid,0.0165952001698315,,,,,,,,,,,,,34,29,Female,0.42857142857142855,1.0,0.0,0.5,2.4444444444444446,2.625,2.5555555555555554,2.7777777777777777,2.5,3.111111111111111,2.25,1.75,1.0,0.25,1.0,1.0,0.5455457333397741,1.183498359342625,,,,,,,,,,,,,,,,,,,0.02669515990654722,1.591386641468787,0.014329664346170876,1.303808262037724,,,,,,,,,,
14,240703_151049,FalseCHOICE,9.0,15,2.0,2583.0,,,,,,,,,,,15.0,15.0,,,B,,,,,,False,cue2.png,Easy,cue1.png,Hard,Right,Hard,Mid,0.0166575999464839,,,,,,,,,,,,,34,29,Female,0.42857142857142855,1.0,0.0,0.5,2.4444444444444446,2.625,2.5555555555555554,2.7777777777777777,2.5,3.111111111111111,2.25,1.75,1.0,0.25,1.0,1.0,0.414695250064445,-1.0499125779961407,,,,,,,,,,,,,,,,,,,0.006431342749042071,-0.3205194636350856,,,,,,,,,,,,
15,240703_151105,FalseCHOICE,9.0,16,2.0,2583.0,,,,,,,,,,,16.0,16.0,,,B,,,,,,False,cue2.png,Easy,cue1.png,Hard,Right,Hard,Mid,0.0167735000140965,,,,,,,,,,,,,34,29,Female,0.42857142857142855,1.0,0.0,0.5,2.4444444444444446,2.625,2.5555555555555554,2.7777777777777777,2.5,3.111111111111111,2.25,1.75,1.0,0.25,0.6875,0.75,0.5109467166864002,0.5929478296039192,,,,,,,,,,,,,,,,,,,0.00560276844271621,-0.39869606099003624,0.010804663247385556,-0.04691545892353705,,,,,,,,,,
16,240703_151120,FalseCHOICE,9.0,17,2.0,2583.0,,,,,,,,,,,17.0,17.0,,,B,,,,,,False,cue1.png,Hard,cue2.png,Easy,Right,Easy,Mid,0.0165375999640673,,,,,,,,,,,,,34,29,Female,0.42857142857142855,1.0,0.0,0.5,2.4444444444444446,2.625,2.5555555555555554,2.7777777777777777,2.5,3.111111111111111,2.25,1.75,1.0,0.25,1.0,1.0,0.3744670666443805,-1.736544087415884,,,,,,,,,,,,,,,,,,,0.005216704604383422,-0.4351214690822581,0.00864050175381169,-0.876187332446774,,,,,,,,,,
17,240703_151134,FalseCHOICE,9.0,18,2.0,2583.0,,,,,,,,,,,18.0,18.0,,,B,,,,,,False,cue1.png,Hard,cue2.png,Easy,Right,Easy,Mid,0.0162576001603156,,,,,,,,,,,,,34,29,Female,0.42857142857142855,1.0,0.0,0.5,2.4444444444444446,2.625,2.5555555555555554,2.7777777777777777,2.5,3.111111111111111,2.25,1.75,1.0,0.25,1.0,1.0,0.3560133000137284,-2.051520717202366,,,,,,,,,,,,,,,,,,,0.004505604180057158,-0.5022143189655682,0.008810861976284957,-0.8109080354609738,,,,,,,,,,
18,240703_151150,FalseCHOICE,9.0,19,2.0,2583.0,,,,,,,,,,,19.0,19.0,,,B,,,,,,False,cue2.png,Easy,cue1.png,Hard,Right,Hard,Mid,0.0164381000213325,,,,,,,,,,,,,34,29,Female,0.42857142857142855,1.0,0.0,0.5,2.4444444444444446,2.625,2.5555555555555554,2.7777777777777777,2.5,3.111111111111111,2.25,1.75,1.0,0.25,1.0,1.0,0.522179349946479,0.7846711259205865,,,,,,,,,,,,,,,,,,,0.006414239488444705,-0.32213316889600063,,,,,,,,,,,,
19,240703_151206,FalseCHOICE,9.0,20,2.0,2583.0,,,,,,,,,,,20.0,20.0,,,B,,,,,,False,cue2.png,Easy,cue1.png,Hard,Right,Hard,Mid,0.0165714998729527,,,,,,,,,,,,,34,29,Female,0.42857142857142855,1.0,0.0,0.5,2.4444444444444446,2.625,2.5555555555555554,2.7777777777777777,2.5,3.111111111111111,2.25,1.75,1.0,0.25,1.0,1.0,0.5345712999502817,0.9961821267260872,,,,,,,,,,,,,,,,,,,,,0.012793551676541875,0.7151945956045426,,,,,,,,,,
20,240703_151221,FalseCHOICE,9.0,21,2.0,2583.0,,,,,,,,,,,21.0,21.0,,,B,,,,,,False,cue2.png,Easy,cue1.png,Hard,Right,Hard,Mid,0.016657100059092,,,,,,,,,,,,,34,29,Female,0.42857142857142855,1.0,0.0,0.5,2.4444444444444446,2.625,2.5555555555555554,2.7777777777777777,2.5,3.111111111111111,2.25,1.75,1.0,0.25,0.6875,0.75,0.4053425666643306,-1.2095481015068177,,,,,,,,,,,,,,,,,,,0.005336554361086786,-0.4238135560787346,0.014057205407920988,1.1994063794372172,1.0576677175282413e+44,-0.17136045246281328,,,,,,,,
21,240703_151237,FalseCHOICE,9.0,22,2.0,2583.0,,,,,,,,,,,22.0,22.0,,,B,,,,,,False,cue1.png,Hard,cue2.png,Easy,Right,Easy,Mid,0.0166048000101,,,,,,,,,,,,,34,29,Female,0.42857142857142855,1.0,0.0,0.5,2.4444444444444446,2.625,2.5555555555555554,2.7777777777777777,2.5,3.111111111111111,2.25,1.75,1.0,0.25,1.0,1.0,0.5779836666770279,1.7371626125165982,,,,,,,,,,,,,,,,,,,0.008289030923131033,-0.14524521328958778,0.007979401878887162,-1.129510170641857,3.681181209307174e+43,-0.171432489872041,,,,,,,,
22,240703_151257,FalseCHOICE,9.0,23,2.0,2583.0,,,,,,,,,,,24.0,23.0,,,B,,,,,,False,cue2.png,Easy,cue1.png,Hard,Right,Hard,Mid,0.0166003999765962,,,,,,,,,,,,,34,29,Female,0.42857142857142855,1.0,0.0,0.5,2.4444444444444446,2.625,2.5555555555555554,2.7777777777777777,2.5,3.111111111111111,2.25,1.75,1.0,0.25,1.0,1.0,0.4225894667130584,-0.9151707767936446,,,,,,,,,,,,,,,,,,,0.0057489300515827044,-0.38490560531470186,0.008927346529157013,-0.7662730284693253,-3.7612998796392996e+43,-0.1715102416477681,,,,,,,,
23,240703_151313,FalseCHOICE,9.0,24,2.0,2583.0,,,,,,,,,,,25.0,24.0,,,B,,,,,,False,cue1.png,Hard,cue2.png,Easy,Right,Easy,Mid,0.0153302999678999,,,,,,,,,,,,,34,29,Female,0.42857142857142855,1.0,0.0,0.5,2.4444444444444446,2.625,2.5555555555555554,2.7777777777777777,2.5,3.111111111111111,2.25,1.75,1.0,0.25,1.0,1.0,0.4727115166994433,-0.05966660256841739,,,,,,,,,,,,,,,,,,,,,,,-9.698509699530776e+43,-0.171572267818993,,,,,,,,
24,240703_151328,FalseCHOICE,9.0,25,2.0,2583.0,,,,,,,,,,,26.0,25.0,,,B,,,,,,False,cue1.png,Hard,cue2.png,Easy,Right,Easy,Mid,0.015562399988994,,,,,,,,,,,,,34,29,Female,0.42857142857142855,1.0,0.0,0.5,2.4444444444444446,2.625,2.5555555555555554,2.7777777777777777,2.5,3.111111111111111,2.25,1.75,1.0,0.25,1.0,1.0,0.4725001333669449,-0.06327458195798982,,,,,,,,,,,,,,,,,,,,,0.01844557643749364,2.8809595704604827,-1.2086457992038632e+44,-0.171597214771208,,,,,,,,
25,240703_151344,FalseCHOICE,9.0,26,2.0,2583.0,,,,,,,,,,,27.0,26.0,,,B,,,,,,False,cue2.png,Easy,cue1.png,Hard,Left,Easy,Mid,0.0168578999582678,,,,,,,,,,,,,34,29,Female,0.42857142857142855,1.0,0.0,0.5,2.4444444444444446,2.625,2.5555555555555554,2.7777777777777777,2.5,3.111111111111111,2.25,1.75,1.0,0.25,1.0,1.0,0.4983749666328852,0.37836792612790704,,,,,,,,,,,,,,,,,,,,,0.016578167574116176,2.165398531524516,-1.1043266591561585e+44,-0.17158631652600712,,,,,,,,
26,240703_151359,FalseCHOICE,9.0,27,2.0,2583.0,,,,,,,,,,,28.0,27.0,,,B,,,,,,False,cue2.png,Easy,cue1.png,Hard,Right,Hard,Mid,0.0166257000528275,,,,,,,,,,,,,34,29,Female,0.42857142857142855,1.0,0.0,0.5,2.4444444444444446,2.625,2.5555555555555554,2.7777777777777777,2.5,3.111111111111111,2.25,1.75,1.0,0.25,1.0,1.0,0.5019666667018706,0.43967256954166845,,,,,,,,,,,,,,,,,,,0.0059399850696995405,-0.36687942334172546,0.012810086816181433,0.7215305951445866,1.3153388893994613e+43,-0.17145720588263808,,,,,,,,
27,240703_151415,FalseCHOICE,9.0,28,2.0,2583.0,,,,,,,,,,,29.0,28.0,,,B,,,,,,False,cue1.png,Hard,cue2.png,Easy,Right,Easy,Mid,0.0156908999197185,,,,,,,,,,,,,34,29,Female,0.42857142857142855,1.0,0.0,0.5,2.4444444444444446,2.625,2.5555555555555554,2.7777777777777777,2.5,3.111111111111111,2.25,1.75,1.0,0.25,1.0,1.0,0.593720483322007,2.005765200249017,,,,,,,,,,,,,,,,,,,0.039783152746843894,2.826248425920448,,,-8.695393748572006e+42,-0.17148003135747145,,,,,,,,
28,240703_151430,FalseCHOICE,9.0,29,2.0,2583.0,,,,,,,,,,,30.0,29.0,,,B,,,,,,False,cue2.png,Easy,cue1.png,Hard,Right,Hard,Mid,0.0164633998647332,,,,,,,,,,,,,34,29,Female,0.42857142857142855,1.0,0.0,0.5,2.4444444444444446,2.625,2.5555555555555554,2.7777777777777777,2.5,3.111111111111111,2.25,1.75,1.0,0.25,0.6875,0.75,0.3826406166190281,-1.5970345078306725,,,,,,,,,,,,,,,,,,,0.004699195645914105,-0.4839488212762142,0.00961840719434064,-0.5014696973700968,5.004420206150502e+43,-0.17141866596298616,,,,,,,,
29,240703_151446,FalseCHOICE,9.0,30,2.0,2583.0,,,,,,,,,,,31.0,30.0,,,B,,,,,,False,cue2.png,Easy,cue1.png,Hard,Right,Hard,Mid,0.0165391000919044,,,,,,,,,,,,,34,29,Female,0.42857142857142855,1.0,0.0,0.5,2.4444444444444446,2.625,2.5555555555555554,2.7777777777777777,2.5,3.111111111111111,2.25,1.75,1.0,0.25,1.0,1.0,0.5436855333779628,1.1517476860829423,,,,,,,,,,,,,,,,,,,0.005793048395369896,-0.3807430070155674,0.012827587969208005,0.7282367554760854,8.894968825397477e+43,-0.1713780213096664,,,,,,,,
30,240703_151502,FalseCHOICE,9.0,31,2.0,2583.0,,,,,,,,,,,32.0,31.0,,,B,,,,,,False,cue1.png,Hard,cue2.png,Easy,Right,Easy,Mid,0.0167942000553011,,,,,,,,,,,,,34,29,Female,0.42857142857142855,1.0,0.0,0.5,2.4444444444444446,2.625,2.5555555555555554,2.7777777777777777,2.5,3.111111111111111,2.25,1.75,1.0,0.25,1.0,1.0,0.5222724500345066,0.7862601972764075,,,,,,,,,,,,,,,,,,,0.004370152385308711,-0.5149942957741784,,,1.036184382890901e+44,-0.1713626968318572,,,,,,,,
31,240703_151517,FalseCHOICE,9.0,32,2.0,2583.0,,,,,,,,,,,33.0,32.0,,,B,,,,,,False,cue2.png,Easy,cue1.png,Hard,Right,Hard,Mid,0.0159267999697476,,,,,,,,,,,,,34,29,Female,0.42857142857142855,1.0,0.0,0.5,2.4444444444444446,2.625,2.5555555555555554,2.7777777777777777,2.5,3.111111111111111,2.25,1.75,1.0,0.25,1.0,1.0,0.4623065500054508,-0.23726293874786406,,,,,,,,,,,,,,,,,,,0.00538678815960811,-0.4190739601117474,0.008559259956946487,-0.9073178822208323,9.146810490164225e+43,-0.17137539031384608,,,,,,,,
32,240703_151532,FalseCHOICE,9.0,33,2.0,2583.0,,,,,,,,,,,34.0,33.0,,,B,,,,,,False,cue1.png,Hard,cue2.png,Easy,Right,Easy,Mid,0.0180164000485092,,,,,,,,,,,,,34,29,Female,0.42857142857142855,1.0,0.0,0.5,2.4444444444444446,2.625,2.5555555555555554,2.7777777777777777,2.5,3.111111111111111,2.25,1.75,1.0,0.25,1.0,1.0,0.4538815667231877,-0.38106408749799914,,,,,,,,,,,,,,,,,,,,,0.013295863781375181,0.907672514422249,5.541755281302841e+43,-0.1714130524107642,,,,,,,,
33,240703_151548,FalseCHOICE,9.0,34,2.0,2583.0,,,,,,,,,,,35.0,34.0,,,B,,,,,,False,cue1.png,Hard,cue2.png,Easy,Right,Easy,Mid,0.0166001000907272,,,,,,,,,,,,,34,29,Female,0.42857142857142855,1.0,0.0,0.5,2.4444444444444446,2.625,2.5555555555555554,2.7777777777777777,2.5,3.111111111111111,2.25,1.75,1.0,0.25,1.0,1.0,0.4798817832876618,0.06271851532270845,,,,,,,,,,,,,,,,,,,,,0.00989914768277088,-0.39389445795027206,6.512009330133621e+42,-0.17146414414755534,,,,,,,,
34,240703_151603,FalseCHOICE,9.0,35,2.0,2583.0,,,,,,,,,,,36.0,35.0,,,B,,,,,,False,cue1.png,Hard,cue2.png,Easy,Right,Easy,Mid,0.0166764000896364,,,,,,,,,,,,,34,29,Female,0.42857142857142855,1.0,0.0,0.5,2.4444444444444446,2.625,2.5555555555555554,2.7777777777777777,2.5,3.111111111111111,2.25,1.75,1.0,0.25,1.0,1.0,0.4695583333183701,-0.11348645920513681,,,,,,,,,,,,,,,,,,,0.004924898433795763,-0.4626535966531435,0.008432300081155785,-0.9559668644579978,-4.1419503005536157e+43,-0.17151421831170632,,,,,,,,
35,240703_151619,FalseCHOICE,9.0,36,2.0,2583.0,,,,,,,,,,,37.0,36.0,,,B,,,,,,False,cue2.png,Easy,cue1.png,Hard,Right,Hard,Mid,0.0175586999393999,,,,,,,,,,,,,34,29,Female,0.42857142857142855,1.0,0.0,0.5,2.4444444444444446,2.625,2.5555555555555554,2.7777777777777777,2.5,3.111111111111111,2.25,1.75,1.0,0.25,1.0,1.0,0.5021492666176831,0.4427892615012589,,,,,,,,,,,,,,,,,,,0.05600281317148267,4.356585358372147,,,-8.247974636871419e+43,-0.17155711404493185,,,,,,,,
36,240703_151634,FalseCHOICE,9.0,37,2.0,2583.0,,,,,,,,,,,38.0,37.0,,,B,,,,,,False,cue1.png,Hard,cue2.png,Easy,Right,Easy,Mid,0.0165132000111043,,,,,,,,,,,,,34,29,Female,0.42857142857142855,1.0,0.0,0.5,2.4444444444444446,2.625,2.5555555555555554,2.7777777777777777,2.5,3.111111111111111,2.25,1.75,1.0,0.25,1.0,1.0,0.5222092000379538,0.7851806198033119,,,,,,,,,,,,,,,,,,,0.00805226128360691,-0.16758460353333327,,,-9.457734987121224e+43,-0.17156975243988537,,,,,,,,
37,240703_151650,FalseCHOICE,9.0,38,2.0,2583.0,,,,,,,,,,,39.0,38.0,,,B,,,,,,False,cue2.png,Easy,cue1.png,Hard,Right,Hard,Mid,0.0166355001274496,,,,,,,,,,,,,34,29,Female,0.42857142857142855,1.0,0.0,0.5,2.4444444444444446,2.625,2.5555555555555554,2.7777777777777777,2.5,3.111111111111111,2.25,1.75,1.0,0.25,1.0,1.0,0.4349107333303739,-0.7048662296787788,,,,,,,,,,,,,,,,,,,0.03254835402015809,2.1436398262062903,0.012811841622439958,0.7222030086765704,-7.407741186995067e+43,-0.17154833610623474,,,,,,,,
38,240703_151705,FalseCHOICE,9.0,39,2.0,2583.0,,,,,,,,,,,40.0,39.0,,,B,,,,,,False,cue2.png,Easy,cue1.png,Hard,Right,Hard,Mid,0.0169428000226616,,,,,,,,,,,,,34,29,Female,0.42857142857142855,1.0,0.0,0.5,2.4444444444444446,2.625,2.5555555555555554,2.7777777777777777,2.5,3.111111111111111,2.25,1.75,1.0,0.25,1.0,1.0,0.4220478833497812,-0.9244147488199371,,,,,,,,,,,,,,,,,,,0.004232106293643009,-0.5280190464117271,0.010388177258802369,-0.20650619051824867,,,,,,,,,,
39,240703_151720,FalseCHOICE,9.0,40,2.0,2583.0,,,,,,,,,,,41.0,40.0,,,B,,,,,,False,cue1.png,Hard,cue2.png,Easy,Right,Easy,Mid,0.0168365999124944,,,,,,,,,,,,,34,29,Female,0.42857142857142855,1.0,0.0,0.5,2.4444444444444446,2.625,2.5555555555555554,2.7777777777777777,2.5,3.111111111111111,2.25,1.75,1.0,0.25,1.0,1.0,0.3675870333487789,-1.8539753817223732,,,,,,,,,,,,,,,,,,,0.0048854944121562915,-0.46637139517809945,0.009058293626388936,-0.7160962071108502,3.500129968446781e+43,-0.17143438131863065,,,,,,,,
40,240703_151735,FalseCHOICE,9.0,41,2.0,2583.0,,,,,,,,,,,42.0,41.0,,,B,,,,,,False,cue1.png,Hard,cue2.png,Easy,Right,Easy,Mid,0.0168226999230682,,,,,,,,,,,,,34,29,Female,0.42857142857142855,1.0,0.0,0.5,2.4444444444444446,2.625,2.5555555555555554,2.7777777777777777,2.5,3.111111111111111,2.25,1.75,1.0,0.25,1.0,1.0,0.4867938167105118,0.1806960012243975,,,,,,,,,,,,,,,,,,,0.010452326397150538,0.05886331136661713,0.010383009453258388,-0.20848641047788935,7.273991001398463e+43,-0.1713949557032811,,,,,,,,
41,240703_151750,FalseCHOICE,9.0,42,2.0,2583.0,,,,,,,,,,,43.0,42.0,,,B,,,,,,False,cue2.png,Easy,cue1.png,Hard,Right,Hard,Mid,0.0166621000971645,,,,,,,,,,,,,34,29,Female,0.42857142857142855,1.0,0.0,0.5,2.4444444444444446,2.625,2.5555555555555554,2.7777777777777777,2.5,3.111111111111111,2.25,1.75,1.0,0.25,1.0,1.0,0.4536186500142018,-0.3855516601745372,,,,,,,,,,,,,,,,,,,,,,,9.406605067436617e+43,-0.17137267623376098,,,,,,,,
42,240703_151806,FalseCHOICE,9.0,43,2.0,2583.0,,,,,,,,,,,44.0,43.0,,,B,,,,,,False,cue1.png,Hard,cue2.png,Easy,Right,Easy,Mid,0.0139572001062333,,,,,,,,,,,,,34,29,Female,0.42857142857142855,1.0,0.0,0.5,2.4444444444444446,2.625,2.5555555555555554,2.7777777777777777,2.5,3.111111111111111,2.25,1.75,1.0,0.25,1.0,1.0,0.4522847999663402,-0.408318372311134,,,,,,,,,,,,,,,,,,,0.004976217527667706,-0.45781160226879186,0.010868410731438202,-0.02248844842099278,7.497413962146637e+43,-0.1713926215983329,,,,,,,,
43,240703_151821,FalseCHOICE,9.0,44,2.0,2583.0,,,,,,,,,,,45.0,44.0,,,B,,,,,,False,cue2.png,Easy,cue1.png,Hard,Right,Hard,Mid,0.0166842001490294,,,,,,,,,,,,,34,29,Female,0.42857142857142855,1.0,0.0,0.5,2.4444444444444446,2.625,2.5555555555555554,2.7777777777777777,2.5,3.111111111111111,2.25,1.75,1.0,0.25,1.0,1.0,0.4334511500007162,-0.7297790102113166,,,,,,,,,,,,,,,,,,,0.006321488999413478,-0.3308842459932639,0.011021554137565217,0.03619364147561569,2.516997916766878e+43,-0.17144465212239607,,,,,,,,
44,240703_151836,FalseCHOICE,9.0,45,2.0,2583.0,,,,,,,,,,,46.0,45.0,,,B,,,,,,False,cue1.png,Hard,cue2.png,Easy,Right,Easy,Mid,0.0170859000645577,,,,,,,,,,,,,34,29,Female,0.42857142857142855,1.0,0.0,0.5,2.4444444444444446,2.625,2.5555555555555554,2.7777777777777777,2.5,3.111111111111111,2.25,1.75,1.0,0.25,1.0,1.0,0.5321564499366408,0.954964453718721,,,,,,,,,,,,,,,,,,,0.004697916381285078,-0.4840695208381609,,,-5.058814873136392e+43,-0.1715237968175524,,,,,,,,
45,240703_151852,FalseCHOICE,9.0,46,2.0,2583.0,,,,,,,,,,,47.0,46.0,,,B,,,,,,False,cue1.png,Hard,cue2.png,Easy,Right,Easy,Mid,0.0164053000044077,,,,,,,,,,,,,34,29,Female,0.42857142857142855,1.0,0.0,0.5,2.4444444444444446,2.625,2.5555555555555554,2.7777777777777777,2.5,3.111111111111111,2.25,1.75,1.0,0.25,1.0,1.0,0.4282194666642074,-0.8190755759707705,,,,,,,,,,,,,,,,,,,0.017348766832770604,0.7095475565836509,0.012059297082675903,0.4338400458141039,-9.827952059505387e+43,-0.17157362010638505,,,,,,,,
46,240703_151908,FalseCHOICE,9.0,47,2.0,2583.0,,,,,,,,,,,48.0,47.0,,,B,,,,,,False,cue2.png,Easy,cue1.png,Hard,Right,Hard,Mid,0.0142650001216679,,,,,,,,,,,,,34,29,Female,0.42857142857142855,1.0,0.0,0.5,2.4444444444444446,2.625,2.5555555555555554,2.7777777777777777,2.5,3.111111111111111,2.25,1.75,1.0,0.25,1.0,1.0,0.5594446333513284,1.4207306150116121,,,,,,,,,,,,,,,,,,,,,0.01018310418059465,-0.2850868954607689,-7.52657265394123e+43,-0.17154957754137673,,,,,,,,
47,240703_151924,FalseCHOICE,9.0,48,2.0,2583.0,,,,,,,,,,,49.0,48.0,,,B,,,,,,False,cue2.png,Easy,cue1.png,Hard,Right,Hard,Mid,0.0165731001179665,,,,,,,,,,,,,34,29,Female,0.42857142857142855,1.0,0.0,0.5,2.4444444444444446,2.625,2.5555555555555554,2.7777777777777777,2.5,3.111111111111111,2.25,1.75,1.0,0.25,1.0,1.0,0.4959371167157466,0.33675768111970694,,,,,,,,,,,,,,,,,,,0.0047678607935593776,-0.4774702139155949,0.011838990986378653,0.3494222933647184,3.570507950720041e+43,-0.17143364607818753,,,,,,,,
48,240703_151939,FalseCHOICE,9.0,49,2.0,2583.0,,,,,,,,,,,50.0,49.0,,,B,,,,,,False,cue1.png,Hard,cue2.png,Easy,Left,Hard,Mid,0.0165677999611943,,,,,,,,,,,,,34,29,Female,0.42857142857142855,1.0,0.0,0.5,2.4444444444444446,2.625,2.5555555555555554,2.7777777777777777,2.5,3.111111111111111,2.25,1.75,1.0,0.25,1.0,1.0,0.4025346333316217,-1.2574750854935293,,,,,,,,,,,,,,,,,,,0.005131002912884807,-0.4432074869297516,0.010724709626626054,-0.07755240033436776,,,,,,,,,,
49,240703_151954,FalseCHOICE,9.0,50,2.0,2583.0,,,,,,,,,,,51.0,50.0,,,B,,,,,,False,cue2.png,Easy,cue1.png,Hard,Right,Hard,Mid,0.0166998000349849,,,,,,,,,,,,,34,29,Female,0.42857142857142855,1.0,0.0,0.5,2.4444444444444446,2.625,2.5555555555555554,2.7777777777777777,2.5,3.111111111111111,2.25,1.75,1.0,0.25,1.0,1.0,0.3950102667246635,-1.3859041310413915,,,,,,,,,,,,,,,,,,,0.004798025395049233,-0.4746241615011751,0.011038739234593385,0.04277869423232717,-4.315752298374738e+43,-0.17151603402528273,,,,,,,,
0,240703_144608,OFFLINERATING,9.0,1,1.0,,,,,,,,,,,,,,,,,T0,cue2.png,Easy,17.0,1.555418600095436,,,,,,,,,,,,,,,,,,,,,,34,29,Female,0.42857142857142855,1.0,0.0,0.5,2.4444444444444446,2.625,2.5555555555555554,2.7777777777777777,2.5,3.111111111111111,2.25,1.75,1.0,0.25,,,,,,,,,,,,,,,,,,,,,,,,,,,,,-1.1654330934961301,0.006297461233235635,-0.4665551897776238,,,,,
1,240703_144615,OFFLINERATING,9.0,2,3.0,,,,,,,,,,,,,,,,,T0,cue1.png,Hard,34.0,1.068193200044334,,,,,,,,,,,,,,,,,,,,,,34,29,Female,0.42857142857142855,1.0,0.0,0.5,2.4444444444444446,2.625,2.5555555555555554,2.7777777777777777,2.5,3.111111111111111,2.25,1.75,1.0,0.25,,,,,,,,,,,,,,,,,,,,,,,,,,,,,-0.1748149640244195,,,0.007162703641172682,-0.19018102256060085,,,
2,240703_150151,OFFLINERATING,9.0,3,1.0,,,,,,,,,,,,,,,,,T1,cue2.png,Easy,72.0,1.048446800094098,,,,,,,,,,,,,,,,,,,,,,34,29,Female,0.42857142857142855,1.0,0.0,0.5,2.4444444444444446,2.625,2.5555555555555554,2.7777777777777777,2.5,3.111111111111111,2.25,1.75,1.0,0.25,,,,,,,,,,,,,,,,,,,,,,,,,,,,,2.0395079136182277,0.006865023244231669,1.3894543509121606,,,,,
3,240703_150158,OFFLINERATING,9.0,4,3.0,,,,,,,,,,,,,,,,,T1,cue1.png,Hard,24.0,1.1348965999204663,,,,,,,,,,,,,,,,,,,,,,34,29,Female,0.42857142857142855,1.0,0.0,0.5,2.4444444444444446,2.625,2.5555555555555554,2.7777777777777777,2.5,3.111111111111111,2.25,1.75,1.0,0.25,,,,,,,,,,,,,,,,,,,,,,,,,,,,,-0.7575315107724846,,,0.0062301649380695785,-1.1185294391132945,105172.46463299268,-1.0,
4,240703_150549,OFFLINERATING,9.0,5,1.0,,,,,,,,,,,,,,,,,T2,cue2.png,Easy,57.0,1.4018751999828964,,,,,,,,,,,,,,,,,,,,,,34,29,Female,0.42857142857142855,1.0,0.0,0.5,2.4444444444444446,2.625,2.5555555555555554,2.7777777777777777,2.5,3.111111111111111,2.25,1.75,1.0,0.25,,,,,,,,,,,,,,,,,,,,,,,,,,,,,1.1654330934961301,,,0.008668360672388166,1.308710461673896,8867727762.807356,0.9999999999999998,
5,240703_150557,OFFLINERATING,9.0,6,3.0,,,,,,,,,,,,,,,,,T2,cue1.png,Hard,33.0,1.118454199982807,,,,,,,,,,,,,,,,,,,,,,34,29,Female,0.42857142857142855,1.0,0.0,0.5,2.4444444444444446,2.625,2.5555555555555554,2.7777777777777777,2.5,3.111111111111111,2.25,1.75,1.0,0.25,,,,,,,,,,,,,,,,,,,,,,,,,,,,,-0.233086618699226,,,,,,,
6,240703_152012,OFFLINERATING,9.0,7,1.0,,,,,,,,,,,,,,,,,T3,cue2.png,Easy,33.0,1.184512399835512,,,,,,,,,,,,,,,,,,,,,,34,29,Female,0.42857142857142855,1.0,0.0,0.5,2.4444444444444446,2.625,2.5555555555555554,2.7777777777777777,2.5,3.111111111111111,2.25,1.75,1.0,0.25,,,,,,,,,,,,,,,,,,,,,,,,,,,,,-0.233086618699226,,,,,,,
7,240703_152019,OFFLINERATING,9.0,8,3.0,,,,,,,,,,,,,,,,,T3,cue1.png,Hard,26.0,1.08642049995251,,,,,,,,,,,,,,,,,,,,,,34,29,Female,0.42857142857142855,1.0,0.0,0.5,2.4444444444444446,2.625,2.5555555555555554,2.7777777777777777,2.5,3.111111111111111,2.25,1.75,1.0,0.25,,,,,,,,,,,,,,,,,,,,,,,,,,,,,-0.6409882014228715,0.006157912649884609,-0.922899161134537,,,,,
0,240703_150615,LEARNINGCHECK,9.0,1,,,,,,,,,,,,1.0,1.0,1.0,,,B,,,,,,,,,,,,,,,cue2.png,Easy,Left,Left,Easy,0.0141445000190287,1.0,,,,,,34,29,Female,0.42857142857142855,1.0,0.0,0.5,2.4444444444444446,2.625,2.5555555555555554,2.7777777777777777,2.5,3.111111111111111,2.25,1.75,1.0,0.25,,,,,,,,,,,,,,,,,,,,,,,,,,,,,,,,,,,,
1,240703_150620,LEARNINGCHECK,9.0,2,,,,,,,,,,,,2.0,2.0,2.0,,,B,,,,,,,,,,,,,,,cue1.png,Hard,Right,Right,Hard,0.0136500000953674,1.0,,,,,,34,29,Female,0.42857142857142855,1.0,0.0,0.5,2.4444444444444446,2.625,2.5555555555555554,2.7777777777777777,2.5,3.111111111111111,2.25,1.75,1.0,0.25,,,,,,,,,,,,,,,,,,,,,,,,,,,,,,,,,,,,
2,240703_152030,LEARNINGCHECK,9.0,1,,,,,,,,,,,,1.0,1.0,1.0,,,B,,,,,,,,,,,,,,,cue2.png,Easy,Middle,Middle,Mid,0.0131661999039351,1.0,,,,,,34,29,Female,0.42857142857142855,1.0,0.0,0.5,2.4444444444444446,2.625,2.5555555555555554,2.7777777777777777,2.5,3.111111111111111,2.25,1.75,1.0,0.25,,,,,,,,,,,,,,,,,,,,,,,,,,,,,,,,,,,,
3,240703_152034,LEARNINGCHECK,9.0,2,,,,,,,,,,,,2.0,2.0,2.0,,,B,,,,,,,,,,,,,,,cue1.png,Hard,Middle,Middle,Mid,0.0128964998293668,1.0,,,,,,34,29,Female,0.42857142857142855,1.0,0.0,0.5,2.4444444444444446,2.625,2.5555555555555554,2.7777777777777777,2.5,3.111111111111111,2.25,1.75,1.0,0.25,,,,,,,,,,,,,,,,,,,,,,,,,,,,,,,,,,,,
0,240703_152053,DEMANDRATING,9.0,-1,,,,,,,,,,,,,,,,,,,,,,,,,,,,,,,,,,,,,,,1.0,MentalDemand,1.0,26.0,4.5896228000056,34,29,Female,0.42857142857142855,1.0,0.0,0.5,2.4444444444444446,2.625,2.5555555555555554,2.7777777777777777,2.5,3.111111111111111,2.25,1.75,1.0,0.25,,,,,,,,,,,,,,,,,,,,,,,,,,,,,,,,,,,,-1.1278554477703024
1,240703_152059,DEMANDRATING,9.0,-1,,,,,,,,,,,,,,,,,,,,,,,,,,,,,,,,,,,,,,,2.0,Effort,1.0,32.0,4.26028519985266,34,29,Female,0.42857142857142855,1.0,0.0,0.5,2.4444444444444446,2.625,2.5555555555555554,2.7777777777777777,2.5,3.111111111111111,2.25,1.75,1.0,0.25,,,,,,,,,,,,,,,,,,,,,,,,,,,,,,,,,,,,-0.8822740196267689
2,240703_152104,DEMANDRATING,9.0,-1,,,,,,,,,,,,,,,,,,,,,,,,,,,,,,,,,,,,,,,3.0,Frustration,1.0,6.0,3.828989000059664,34,29,Female,0.42857142857142855,1.0,0.0,0.5,2.4444444444444446,2.625,2.5555555555555554,2.7777777777777777,2.5,3.111111111111111,2.25,1.75,1.0,0.25,,,,,,,,,,,,,,,,,,,,,,,,,,,,,,,,,,,,-1.9464602082487479
3,240703_152108,DEMANDRATING,9.0,-1,,,,,,,,,,,,,,,,,,,,,,,,,,,,,,,,,,,,,,,4.0,MentalDemand,2.0,61.0,2.801770400023088,34,29,Female,0.42857142857142855,1.0,0.0,0.5,2.4444444444444446,2.625,2.5555555555555554,2.7777777777777777,2.5,3.111111111111111,2.25,1.75,1.0,0.25,,,,,,,,,,,,,,,,,,,,,,,,,,,,,,,,,,,,0.3047028830669768
4,240703_152113,DEMANDRATING,9.0,-1,,,,,,,,,,,,,,,,,,,,,,,,,,,,,,,,,,,,,,,5.0,Effort,2.0,82.0,3.498621800215915,34,29,Female,0.42857142857142855,1.0,0.0,0.5,2.4444444444444446,2.625,2.5555555555555554,2.7777777777777777,2.5,3.111111111111111,2.25,1.75,1.0,0.25,,,,,,,,,,,,,,,,,,,,,,,,,,,,,,,,,,,,1.1642378815693444
5,240703_152118,DEMANDRATING,9.0,-1,,,,,,,,,,,,,,,,,,,,,,,,,,,,,,,,,,,,,,,6.0,Frustration,2.0,66.0,2.914452699944377,34,29,Female,0.42857142857142855,1.0,0.0,0.5,2.4444444444444446,2.625,2.5555555555555554,2.7777777777777777,2.5,3.111111111111111,2.25,1.75,1.0,0.25,,,,,,,,,,,,,,,,,,,,,,,,,,,,,,,,,,,,0.5093540731865881
6,240703_152124,DEMANDRATING,9.0,-1,,,,,,,,,,,,,,,,,,,,,,,,,,,,,,,,,,,,,,,7.0,MentalDemand,3.0,77.0,4.24950319994241,34,29,Female,0.42857142857142855,1.0,0.0,0.5,2.4444444444444446,2.625,2.5555555555555554,2.7777777777777777,2.5,3.111111111111111,2.25,1.75,1.0,0.25,,,,,,,,,,,,,,,,,,,,,,,,,,,,,,,,,,,,0.9595866914497331
7,240703_152127,DEMANDRATING,9.0,-1,,,,,,,,,,,,,,,,,,,,,,,,,,,,,,,,,,,,,,,8.0,Effort,3.0,64.0,1.9890284000430256,34,29,Female,0.42857142857142855,1.0,0.0,0.5,2.4444444444444446,2.625,2.5555555555555554,2.7777777777777777,2.5,3.111111111111111,2.25,1.75,1.0,0.25,,,,,,,,,,,,,,,,,,,,,,,,,,,,,,,,,,,,0.42749359713874363
8,240703_152131,DEMANDRATING,9.0,-1,,,,,,,,,,,,,,,,,,,,,,,,,,,,,,,,,,,,,,,9.0,Frustration,3.0,68.0,2.04420610005036,34,29,Female,0.42857142857142855,1.0,0.0,0.5,2.4444444444444446,2.625,2.5555555555555554,2.7777777777777777,2.5,3.111111111111111,2.25,1.75,1.0,0.25,,,,,,,,,,,,,,,,,,,,,,,,,,,,,,,,,,,,0.5912145492344327
