,END,Phase,Block,TrialN,NbackLevel,ISI,Letter_Resp,Letter_RT,Letter_Accuracy,Trial_A_measure,Trial_ACC,Trial_RT,TrialCountCali,CaliEnd_A_measure,ISI_calibrated,TrialIndex,TrialNumber_total,TrialNumber_valid,CueLearning,TrialDemandLearning,CueMapping,OfflineRatingTimePoint,CueFigure,TrialDemand,OfflineRating,OfflineRatingRT,PhaseType,CueLeft,CueDemandLeft,CueRight,CueDemandRight,Choice,ChoiceDemand,TaskDemand,ChoiceRT,CueCheck,CueDemandCheck,CorrectAnswer,Answer,AnswerDemand,AnswerRT,AnswerACC,DemandRatingQuesIndex,QuesTLX,DemandLevel,DemandRating,DemandRatingRT,PID,Age,Gender,BAI_bis,BAI_bas_d,BAI_bas_rr,BAI_bas_fs,NFC,BFI_ext,BFI_agr,BFI_con,BFI_neu,BFI_open,UPPS_lps,UPPS_lpm,UPPS_pu,UPPS_ss,Task_A_measure,Task_ACC,Task_RT,Task_RT_z,Task_RT_log,Task_RT_log_z,cue_i_on_zyg_values,cue_i_on_zyg_zvalues,cue_e_on_zyg_values,cue_e_on_zyg_zvalues,cue_i_on_cor_values,cue_i_on_cor_zvalues,cue_e_on_cor_values,cue_e_on_cor_zvalues,cue_i_on_scr_values,cue_i_on_scr_zvalues,cue_e_on_scr_values,cue_e_on_scr_zvalues,cue_e_true_zyg_values,cue_e_true_zyg_zvalues,cue_e_true_cor_values,cue_e_true_cor_zvalues,cue_e_true_scr_values,cue_e_true_scr_zvalues,cue_e_false_zyg_values,cue_e_false_zyg_zvalues,cue_e_false_cor_values,cue_e_false_cor_zvalues,cue_e_false_scr_values,cue_e_false_scr_zvalues,OfflineRating_z,cue_i_off_zyg_values,cue_i_off_zyg_zvalues,cue_i_off_cor_values,cue_i_off_cor_zvalues,cue_i_off_scr_values,cue_i_off_scr_zvalues,DemandRating_z
0,240703_144440,PRACTICE,0.0,1,1.0,2583.0,,,,,,,,,,9.0,1.0,1.0,cue2.png,Easy,B,,,,,,,,,,,,,,,,,,,,,,,,,,,34,29,Female,0.42857142857142855,1.0,0.0,0.5,2.4444444444444446,2.625,2.5555555555555554,2.7777777777777777,2.5,3.111111111111111,2.25,1.75,1.0,0.25,,,,,,,,,,,,,,,,,,,,,,,,,,,,,,,,,,,,,,
0,240703_144647,LEARNING,1.0,1,1.0,2583.0,,,,,,,,,,1.0,1.0,1.0,cue2.png,Easy,B,,,,,,,,,,,,,,,,,,,,,,,,,,,34,29,Female,0.42857142857142855,1.0,0.0,0.5,2.4444444444444446,2.625,2.5555555555555554,2.7777777777777777,2.5,3.111111111111111,2.25,1.75,1.0,0.25,1.0,1.0,0.6537799999738733,1.3130313707335917,-0.42498437559450114,1.2941050591938654,0.00013809634538608853,0.7133318230699143,0.0001709451579000468,2.6533797220537743,,,0.0002275011241052458,1.4199522055996183,1.386,-0.20235442753812438,1.5579999999999998,0.15985078576398717,,,,,,,,,,,,,,,,,,,,
1,240703_144705,LEARNING,1.0,2,3.0,2583.0,,,,,,,,,,2.0,2.0,2.0,cue1.png,Hard,B,,,,,,,,,,,,,,,,,,,,,,,,,,,34,29,Female,0.42857142857142855,1.0,0.0,0.5,2.4444444444444446,2.625,2.5555555555555554,2.7777777777777777,2.5,3.111111111111111,2.25,1.75,1.0,0.25,1.0,1.0,0.4939458333343888,-0.3022749986076053,-0.7053294169267893,-0.22547610172649193,1.7953170511079454e-05,-0.03853617461209367,3.966549619097105e-05,0.45134926310535783,,,4.220927468396012e-06,-0.2334993080744341,1.4489999999999998,-0.10829974126771436,1.4580000000000002,-0.021222901258353136,,,,,,,,,,,,,,,,,,,,
2,240703_144723,LEARNING,1.0,3,1.0,2583.0,,,,,,,,,,3.0,3.0,3.0,cue2.png,Easy,B,,,,,,,,,,,,,,,,,,,,,,,,,,,34,29,Female,0.42857142857142855,1.0,0.0,0.5,2.4444444444444446,2.625,2.5555555555555554,2.7777777777777777,2.5,3.111111111111111,2.25,1.75,1.0,0.25,1.0,1.0,0.5559258998837322,0.3241041941163452,-0.5871202672036785,0.41526430914006807,5.561535158223529e-05,0.19715751918088903,1.6467051346894662e-06,-0.18636212972145638,-2.002337588979681e-05,-0.31509344426860175,1.7100773252454182e-05,-0.13812049334606757,1.1580000000000001,-0.5427428159453225,1.4489999999999998,-0.03751953309036444,,,,,,,,,,,,,,,,,,,,
3,240703_144741,LEARNING,1.0,4,3.0,2583.0,,,,,,,,,,4.0,4.0,4.0,cue1.png,Hard,B,,,,,,,,,,,,,,,,,,,,,,,,,,,34,29,Female,0.42857142857142855,1.0,0.0,0.5,2.4444444444444446,2.625,2.5555555555555554,2.7777777777777777,2.5,3.111111111111111,2.25,1.75,1.0,0.25,1.0,1.0,0.4800183332990855,-0.44302825549271735,-0.7339309814364922,-0.38050790965591247,-4.8804864542598483e-05,-0.4563146310014196,4.4521575734375596e-05,0.5328031221909337,6.957708737176599e-05,0.20627854082138602,,,1.5879999999999999,0.09921774113842857,1.1320000000000001,-0.6115231209511848,,,,,,,,,,,,,,,,,,,,
4,240703_144758,LEARNING,1.0,5,3.0,2583.0,,,,,,,,,,5.0,5.0,5.0,cue1.png,Hard,B,,,,,,,,,,,,,,,,,,,,,,,,,,,34,29,Female,0.42857142857142855,1.0,0.0,0.5,2.4444444444444446,2.625,2.5555555555555554,2.7777777777777777,2.5,3.111111111111111,2.25,1.75,1.0,0.25,1.0,1.0,0.4361441833898425,-0.8864265306417515,-0.8297823944526602,-0.9000605322911177,0.00010124115433286524,0.4826883534745487,7.398358839718743e-05,1.0269866721851864,0.00016330108862047405,0.7516447900891816,0.00010654180838650523,0.5242150704634633,,,1.588,0.21417289187068989,,,,,,,,,,,,,,,,,,,,
5,240703_144816,LEARNING,1.0,6,1.0,2583.0,,,,,,,,,,6.0,6.0,6.0,cue2.png,Easy,B,,,,,,,,,,,,,,,,,,,,,,,,,,,34,29,Female,0.42857142857142855,1.0,0.0,0.5,2.4444444444444446,2.625,2.5555555555555554,2.7777777777777777,2.5,3.111111111111111,2.25,1.75,1.0,0.25,1.0,1.0,0.5775042000071456,0.542177503232565,-0.5490395638729886,0.6216768039033518,3.3096970553705366e-05,0.05623523980400961,3.937864175644276e-05,0.4465376860956949,7.481304843077628e-05,0.2367458320810412,0.00010972415541626304,0.547781229006163,-0.008499999999999952,-2.284247443476011,1.586,0.21055141813024308,,,,,,,,,,,,,,,,,,,,
6,240703_144834,LEARNING,1.0,7,3.0,2583.0,,,,,,,,,,7.0,7.0,7.0,cue1.png,Hard,B,,,,,,,,,,,,,,,,,,,,,,,,,,,34,29,Female,0.42857142857142855,1.0,0.0,0.5,2.4444444444444446,2.625,2.5555555555555554,2.7777777777777777,2.5,3.111111111111111,2.25,1.75,1.0,0.25,0.6875,0.75,0.5348295166622847,0.11090120439181503,-0.6258072433134861,0.20556557578612503,-1.6592022996937423e-05,-0.25472344866600144,-6.613632155176401e-05,-1.3233264349316143,7.134359415194571e-05,0.21655758529427682,2.994203625927448e-05,-0.04302739473756574,1.448,-0.10979267279581595,,,,,,,,,,,,,,,,,,,,,,
7,240703_144852,LEARNING,1.0,8,3.0,2583.0,,,,,,,,,,8.0,8.0,8.0,cue1.png,Hard,B,,,,,,,,,,,,,,,,,,,,,,,,,,,34,29,Female,0.42857142857142855,1.0,0.0,0.5,2.4444444444444446,2.625,2.5555555555555554,2.7777777777777777,2.5,3.111111111111111,2.25,1.75,1.0,0.25,0.6875,0.75,0.6520962666642541,1.2960153271899464,-0.4275630796963569,1.2801274616085976,-6.474397557843002e-05,-0.5560631811109829,-1.8644832180585245e-05,-0.5267239393530411,,,2.559311534940144e-05,-0.07523235500537466,2.048,0.7859662440652327,,,,,,,,,,,,,,,,,,,,,,
8,240703_144910,LEARNING,1.0,9,1.0,2583.0,,,,,,,,,,9.0,9.0,9.0,cue2.png,Easy,B,,,,,,,,,,,,,,,,,,,,,,,,,,,34,29,Female,0.42857142857142855,1.0,0.0,0.5,2.4444444444444446,2.625,2.5555555555555554,2.7777777777777777,2.5,3.111111111111111,2.25,1.75,1.0,0.25,0.6875,0.75,0.476896583296669,-0.4745770961968961,-0.7404556181056589,-0.4158740246305095,-2.73292637346244e-05,-0.3219181744793747,8.623151284787439e-05,1.2324282641895874,0.0005572871562675216,3.0441920684140076,7.089946049815667e-05,0.26027364191511115,,,,,,,,,,,,,,,,,,,,,,,,
9,240703_144929,LEARNING,1.0,10,1.0,2583.0,,,,,,,,,,10.0,10.0,10.0,cue2.png,Easy,B,,,,,,,,,,,,,,,,,,,,,,,,,,,34,29,Female,0.42857142857142855,1.0,0.0,0.5,2.4444444444444446,2.625,2.5555555555555554,2.7777777777777777,2.5,3.111111111111111,2.25,1.75,1.0,0.25,1.0,1.0,0.7452493500119696,2.2374333732747487,-0.2940364185988155,2.003894850966206,-6.28360471397419e-05,-0.5441231742282832,3.834775288721545e-05,0.4292459848506079,-9.795801087522215e-05,-0.7685836816014003,4.7455143162194405e-05,0.08666199802513046,0.7529999999999999,-1.1473800848265305,1.898,0.7755013216399466,,,,,,,,,,,,,,,,,,,,
10,240703_144948,LEARNING,1.0,11,3.0,2583.0,,,,,,,,,,11.0,11.0,11.0,cue1.png,Hard,B,,,,,,,,,,,,,,,,,,,,,,,,,,,34,29,Female,0.42857142857142855,1.0,0.0,0.5,2.4444444444444446,2.625,2.5555555555555554,2.7777777777777777,2.5,3.111111111111111,2.25,1.75,1.0,0.25,1.0,1.0,0.6188470666529611,0.9599942768541827,-0.47989710200417063,0.9964563326447755,5.3321895399011283e-05,0.1828048411361644,,,0.00016723643685545835,0.7745440056356968,,,,,,,,,,,,,,,,,,,,,,,,,,
11,240703_145006,LEARNING,1.0,12,1.0,2583.0,,,,,,,,,,12.0,12.0,12.0,cue2.png,Easy,B,,,,,,,,,,,,,,,,,,,,,,,,,,,34,29,Female,0.42857142857142855,1.0,0.0,0.5,2.4444444444444446,2.625,2.5555555555555554,2.7777777777777777,2.5,3.111111111111111,2.25,1.75,1.0,0.25,1.0,1.0,0.5702416499843821,0.4687811602848801,-0.5616950606528032,0.5530789988653085,2.941779107624087e-05,0.03321056686930614,,,0.00017481139990921206,0.8186216072524409,-5.3508532170247394e-05,-0.6610018983661639,,,-0.09050000000000002,-2.8251489447993032,,,,,,,,,,,,,,,,,,,,
12,240703_145024,LEARNING,1.0,13,1.0,2583.0,,,,,,,,,,13.0,13.0,13.0,cue2.png,Easy,B,,,,,,,,,,,,,,,,,,,,,,,,,,,34,29,Female,0.42857142857142855,1.0,0.0,0.5,2.4444444444444446,2.625,2.5555555555555554,2.7777777777777777,2.5,3.111111111111111,2.25,1.75,1.0,0.25,1.0,1.0,0.6222516833416497,0.9944018077221511,-0.47441063248835647,1.0261951704589718,7.876800758187122e-05,0.342049154728033,-5.603322050537658e-05,-1.1538612188855808,-0.00014203159809304117,-1.0250414366323226,-3.5633239613127275e-05,-0.5286304208185715,2.986,2.186336017424672,,,,,,,,,,,,,,,,,,,,,,
13,240703_145042,LEARNING,1.0,14,1.0,2583.0,,,,,,,,,,14.0,14.0,14.0,cue2.png,Easy,B,,,,,,,,,,,,,,,,,,,,,,,,,,,34,29,Female,0.42857142857142855,1.0,0.0,0.5,2.4444444444444446,2.625,2.5555555555555554,2.7777777777777777,2.5,3.111111111111111,2.25,1.75,1.0,0.25,1.0,1.0,0.592311649932526,0.6918236563740117,-0.5237223469199563,0.7589061472365967,-1.8919064274421343e-05,-0.2692863055877154,,,,,,,2.923,2.0922813311542616,,,,,,,,,,,,,,,,,,,,,,
14,240703_145101,LEARNING,1.0,15,3.0,2583.0,,,,,,,,,,15.0,15.0,15.0,cue1.png,Hard,B,,,,,,,,,,,,,,,,,,,,,,,,,,,34,29,Female,0.42857142857142855,1.0,0.0,0.5,2.4444444444444446,2.625,2.5555555555555554,2.7777777777777777,2.5,3.111111111111111,2.25,1.75,1.0,0.25,1.0,1.0,0.6536212999684116,1.3114275263552182,-0.4252271472763836,1.2927891405229293,3.2035520767974886e-05,0.049592580944133095,-3.763645928801492e-05,-0.8452815956656137,-1.2877903439326502e-06,-0.20607381342858033,0.0002759180830203931,1.7784931564388409,,,,,,,,,,,,,,,,,,,,,,,,
15,240703_145120,LEARNING,1.0,16,1.0,2583.0,,,,,,,,,,16.0,16.0,16.0,cue2.png,Easy,B,,,,,,,,,,,,,,,,,,,,,,,,,,,34,29,Female,0.42857142857142855,1.0,0.0,0.5,2.4444444444444446,2.625,2.5555555555555554,2.7777777777777777,2.5,3.111111111111111,2.25,1.75,1.0,0.25,0.6875,0.75,0.6368552499528354,1.1419874876685019,-0.451212886354948,1.1519361424862185,-7.305707885500766e-05,-0.6080874123799394,-5.680556533952698e-06,-0.309266570249275,-7.732353925500243e-05,-0.6485147105458446,4.067080655259731e-05,0.0364221119744332,,,,,,,,,,,,,,,,,,,,,,,,
16,240703_145137,LEARNING,1.0,17,1.0,2583.0,,,,,,,,,,17.0,17.0,17.0,cue2.png,Easy,B,,,,,,,,,,,,,,,,,,,,,,,,,,,34,29,Female,0.42857142857142855,1.0,0.0,0.5,2.4444444444444446,2.625,2.5555555555555554,2.7777777777777777,2.5,3.111111111111111,2.25,1.75,1.0,0.25,1.0,1.0,0.5245961166607837,0.00748103741509167,-0.6451266140533469,0.1008469345088867,-4.376210988509986e-05,-0.4247565682893298,,,,,-7.001701971077329e-05,-0.7832518073303111,,,,,,,,,,,,,,,,,,,,,,,,
17,240703_145155,LEARNING,1.0,18,3.0,2583.0,,,,,,,,,,18.0,18.0,18.0,cue1.png,Hard,B,,,,,,,,,,,,,,,,,,,,,,,,,,,34,29,Female,0.42857142857142855,1.0,0.0,0.5,2.4444444444444446,2.625,2.5555555555555554,2.7777777777777777,2.5,3.111111111111111,2.25,1.75,1.0,0.25,1.0,1.0,0.4468124000510822,-0.7786120458871799,-0.8056164591482913,-0.769071591484374,-4.1039487151556166e-05,-0.4077181230739219,-2.819302306525384e-05,-0.6868813230800616,0.00028827308446009855,1.4788385475740717,0.00027528852809518244,1.7738311283695827,1.483,-0.05754006931225457,1.632,0.29384531416051957,,,,,,,,,,,,,,,,,,,,
18,240703_145212,LEARNING,1.0,19,3.0,2583.0,,,,,,,,,,19.0,19.0,19.0,cue1.png,Hard,B,,,,,,,,,,,,,,,,,,,,,,,,,,,34,29,Female,0.42857142857142855,1.0,0.0,0.5,2.4444444444444446,2.625,2.5555555555555554,2.7777777777777777,2.5,3.111111111111111,2.25,1.75,1.0,0.25,1.0,1.0,0.4382143666734919,-0.8655049697884636,-0.8250470667044162,-0.8743931803635832,0.0009562893208529297,5.833665248765826,2.2701422205605084e-05,0.16680093979833774,-2.7013880687423372e-05,-0.3557701688127609,5.686560337439268e-05,0.1563490545424424,,,,,,,,,,,,,,,,,,,,,,,,
19,240703_145230,LEARNING,1.0,20,3.0,2583.0,,,,,,,,,,20.0,20.0,20.0,cue1.png,Hard,B,,,,,,,,,,,,,,,,,,,,,,,,,,,34,29,Female,0.42857142857142855,1.0,0.0,0.5,2.4444444444444446,2.625,2.5555555555555554,2.7777777777777777,2.5,3.111111111111111,2.25,1.75,1.0,0.25,1.0,1.0,0.5700739165768027,0.4670860230854265,-0.5619892483561157,0.5514843849937603,-4.886995647723465e-05,-0.4567219828348555,2.2142425361904722e-05,0.15742455917502352,,,-0.00012005056913748239,-1.153764057320082,,,1.068,-0.7274102806454831,,,,,,,,,,,,,,,,,,,,
20,240703_145248,LEARNING,1.0,21,1.0,2583.0,,,,,,,,,,21.0,21.0,21.0,cue2.png,Easy,B,,,,,,,,,,,,,,,,,,,,,,,,,,,34,29,Female,0.42857142857142855,1.0,0.0,0.5,2.4444444444444446,2.625,2.5555555555555554,2.7777777777777777,2.5,3.111111111111111,2.25,1.75,1.0,0.25,1.0,1.0,0.5157071499852464,-0.08235209895207364,-0.6622162133999554,0.008214537333712697,,,-2.4083157919981175e-05,-0.6179441540300958,-0.00015498875575471575,-1.1004372411324677,3.359942198979558e-05,-0.01594344343643205,,,2.128,1.191970801791331,,,,,,,,,,,,,,,,,,,,
21,240703_145305,LEARNING,1.0,22,3.0,2583.0,,,,,,,,,,22.0,22.0,22.0,cue1.png,Hard,B,,,,,,,,,,,,,,,,,,,,,,,,,,,34,29,Female,0.42857142857142855,1.0,0.0,0.5,2.4444444444444446,2.625,2.5555555555555554,2.7777777777777777,2.5,3.111111111111111,2.25,1.75,1.0,0.25,1.0,1.0,0.4808918166672811,-0.43420071080796663,-0.7321129475468178,-0.37065344590105176,,,,,-0.00017858845500768727,-1.237760437901326,,,,,0.871,-1.0841254440794947,,,,,,,,,,,,,,,,,,,,
22,240703_145323,LEARNING,1.0,23,3.0,2583.0,,,,,,,,,,23.0,23.0,23.0,cue1.png,Hard,B,,,,,,,,,,,,,,,,,,,,,,,,,,,34,29,Female,0.42857142857142855,1.0,0.0,0.5,2.4444444444444446,2.625,2.5555555555555554,2.7777777777777777,2.5,3.111111111111111,2.25,1.75,1.0,0.25,1.0,1.0,0.4451764166976015,-0.7951455217176269,-0.8092846333611884,-0.7889545485803957,-8.738217381721366e-05,-0.6977352885663612,4.197522627752805e-05,0.4900917151831153,-0.00020358248092246668,-1.383197017492866,-0.00014678530368485284,-1.3517421492908601,1.2650000000000001,-0.38299914243843547,1.5739999999999998,0.18882257568756175,,,,,,,,,,,,,,,,,,,,
23,240703_145340,LEARNING,1.0,24,3.0,2583.0,,,,,,,,,,24.0,24.0,24.0,cue1.png,Hard,B,,,,,,,,,,,,,,,,,,,,,,,,,,,34,29,Female,0.42857142857142855,1.0,0.0,0.5,2.4444444444444446,2.625,2.5555555555555554,2.7777777777777777,2.5,3.111111111111111,2.25,1.75,1.0,0.25,1.0,1.0,0.4457188166367511,-0.7896639523206728,-0.8080669817544186,-0.7823543945936569,-3.391329933099098e-05,-0.36312172737080844,1.8496004188607584e-05,0.09626100660929038,-0.00025937498684487073,-1.707845445715751,-8.909704601392423e-05,-0.9245446709477514,2.453,1.3906035129464402,1.19,-0.5065003824782273,,,,,,,,,,,,,,,,,,,,
24,240703_145359,LEARNING,1.0,25,1.0,2583.0,,,,,,,,,,25.0,25.0,25.0,cue2.png,Easy,B,,,,,,,,,,,,,,,,,,,,,,,,,,,34,29,Female,0.42857142857142855,1.0,0.0,0.5,2.4444444444444446,2.625,2.5555555555555554,2.7777777777777777,2.5,3.111111111111111,2.25,1.75,1.0,0.25,0.6875,0.75,0.6895492165737475,1.6745200600101715,-0.37171720420376353,1.5828342257816184,,,3.486166244858141e-05,0.3707717533620124,-0.00011796886745381666,-0.8850239279791051,0.000172183456670247,1.010309602578812,,,1.8119999999999998,0.6197779508007332,,,,,,,,,,,,,,,,,,,,
25,240703_145417,LEARNING,1.0,26,1.0,2583.0,,,,,,,,,,26.0,26.0,26.0,cue2.png,Easy,B,,,,,,,,,,,,,,,,,,,,,,,,,,,34,29,Female,0.42857142857142855,1.0,0.0,0.5,2.4444444444444446,2.625,2.5555555555555554,2.7777777777777777,2.5,3.111111111111111,2.25,1.75,1.0,0.25,1.0,1.0,0.5383696833547825,0.14667862249428845,-0.6192098110134245,0.24132627191250386,-6.978378085020559e-05,-0.5876027862724019,,,,,,,0.825,-1.0398890148032047,1.8400000000000003,0.6704785831669895,,,,,,,,,,,,,,,,,,,,
26,240703_145436,LEARNING,1.0,27,3.0,2583.0,,,,,,,,,,27.0,27.0,27.0,cue1.png,Hard,B,,,,,,,,,,,,,,,,,,,,,,,,,,,34,29,Female,0.42857142857142855,1.0,0.0,0.5,2.4444444444444446,2.625,2.5555555555555554,2.7777777777777777,2.5,3.111111111111111,2.25,1.75,1.0,0.25,1.0,1.0,0.6831939333351329,1.610292681658355,-0.38097651632598917,1.5326450867223036,8.172528030134804e-05,0.36055606301063714,9.085164512507692e-05,1.30992444193962,3.573924291993104e-05,0.009381075218799061,,,1.976,0.6784751740419068,,,,,,,,,,,,,,,,,,,,,,
27,240703_145454,LEARNING,1.0,28,1.0,2583.0,,,,,,,,,,28.0,28.0,28.0,cue2.png,Easy,B,,,,,,,,,,,,,,,,,,,,,,,,,,,34,29,Female,0.42857142857142855,1.0,0.0,0.5,2.4444444444444446,2.625,2.5555555555555554,2.7777777777777777,2.5,3.111111111111111,2.25,1.75,1.0,0.25,1.0,1.0,0.5436510832902665,0.2000531864826486,-0.6094476289159428,0.29424116541056355,-3.6883041486801115e-05,-0.3817066706324108,-6.144628821413978e-05,-1.2446577658591826,0.0001248368155496245,0.5278268133065199,2.1480401701926867e-06,-0.2488496109338698,1.1949999999999998,-0.48750434940555826,1.7020000000000002,0.42059689507615877,,,,,,,,,,,,,,,,,,,,
28,240703_145511,LEARNING,1.0,29,1.0,2583.0,,,,,,,,,,29.0,29.0,29.0,cue2.png,Easy,B,,,,,,,,,,,,,,,,,,,,,,,,,,,34,29,Female,0.42857142857142855,1.0,0.0,0.5,2.4444444444444446,2.625,2.5555555555555554,2.7777777777777777,2.5,3.111111111111111,2.25,1.75,1.0,0.25,1.0,1.0,0.5075850833284979,-0.16443483682157797,-0.6780909302393867,-0.07783271547127806,8.433066701611213e-06,-0.09811393586566819,1.4707977797820664e-05,0.0327222270053468,-7.476357361806173e-05,-0.6336186450869231,-6.78611508989021e-05,-0.7672870034472837,2.786,1.8877497118043225,1.794,0.5871846871367121,,,,,,,,,,,,,,,,,,,,
29,240703_145529,LEARNING,1.0,30,3.0,2583.0,,,,,,,,,,30.0,30.0,30.0,cue1.png,Hard,B,,,,,,,,,,,,,,,,,,,,,,,,,,,34,29,Female,0.42857142857142855,1.0,0.0,0.5,2.4444444444444446,2.625,2.5555555555555554,2.7777777777777777,2.5,3.111111111111111,2.25,1.75,1.0,0.25,1.0,1.0,0.4592191333261629,-0.6532278698795674,-0.7782277681937596,-0.6206140386095741,3.612396848484776e-05,0.07517849543083441,-5.796181201925526e-05,-1.1862106110240334,3.282143568492102e-05,-0.007597218138749931,,,2.1,0.8635986835265237,,,,,,,,,,,,,,,,,,,,,,
30,240703_145546,LEARNING,1.0,31,3.0,2583.0,,,,,,,,,,31.0,31.0,31.0,cue1.png,Hard,B,,,,,,,,,,,,,,,,,,,,,,,,,,,34,29,Female,0.42857142857142855,1.0,0.0,0.5,2.4444444444444446,2.625,2.5555555555555554,2.7777777777777777,2.5,3.111111111111111,2.25,1.75,1.0,0.25,1.0,1.0,0.4708218499630068,-0.5359691980999057,-0.753275494386179,-0.4853628316685405,,,-3.848991540917647e-05,-0.859597113771826,0.00018044925718145588,0.8514274737701507,-0.0003292437347668458,-2.702897216328831,0.562,-1.4325300066939641,,,,,,,,,,,,,,,,,,,,,,
31,240703_145604,LEARNING,1.0,32,1.0,2583.0,,,,,,,,,,32.0,32.0,32.0,cue2.png,Easy,B,,,,,,,,,,,,,,,,,,,,,,,,,,,34,29,Female,0.42857142857142855,1.0,0.0,0.5,2.4444444444444446,2.625,2.5555555555555554,2.7777777777777777,2.5,3.111111111111111,2.25,1.75,1.0,0.25,1.0,1.0,0.5318752166349441,0.08104463647869804,-0.6313463723503387,0.17554130251092398,,,0.0001013426189510505,1.4858956747115226,-1.5350209213743464e-05,-0.287900971173482,,,,,0.7989999999999999,-1.2144984987355805,,,,,,,,,,,,,,,,,,,,
32,240703_145621,LEARNING,1.0,33,1.0,2583.0,,,,,,,,,,33.0,33.0,33.0,cue2.png,Easy,B,,,,,,,,,,,,,,,,,,,,,,,,,,,34,29,Female,0.42857142857142855,1.0,0.0,0.5,2.4444444444444446,2.625,2.5555555555555554,2.7777777777777777,2.5,3.111111111111111,2.25,1.75,1.0,0.25,1.0,1.0,0.429121350015824,-0.9574002637201184,-0.8460155328837422,-0.9880505720837116,-4.483706408341115e-07,-0.15369485852856346,2.9659557040152742e-05,0.2835138002953319,,,,,0.9570000000000001,-0.8428220530937738,1.788,0.5763202659153717,,,,,,,,,,,,,,,,,,,,
33,240703_145639,LEARNING,1.0,34,1.0,2583.0,,,,,,,,,,34.0,34.0,34.0,cue2.png,Easy,B,,,,,,,,,,,,,,,,,,,,,,,,,,,34,29,Female,0.42857142857142855,1.0,0.0,0.5,2.4444444444444446,2.625,2.5555555555555554,2.7777777777777777,2.5,3.111111111111111,2.25,1.75,1.0,0.25,1.0,1.0,0.4567160833394155,-0.6785240419770646,-0.7836933429903883,-0.6502396187699659,-6.14670056724013e-05,-0.5355555758785318,,,0.00012416589204583507,0.5239228076096623,-8.440015766748334e-07,-0.2710065063050269,1.0639999999999998,-0.6830783795868872,,,,,,,,,,,,,,,,,,,,,,
34,240703_145656,LEARNING,1.0,35,3.0,2583.0,,,,,,,,,,35.0,35.0,35.0,cue1.png,Hard,B,,,,,,,,,,,,,,,,,,,,,,,,,,,34,29,Female,0.42857142857142855,1.0,0.0,0.5,2.4444444444444446,2.625,2.5555555555555554,2.7777777777777777,2.5,3.111111111111111,2.25,1.75,1.0,0.25,0.6875,0.75,0.5121284500152493,-0.11851893972858975,-0.6691798064714533,-0.029530895199981755,,,,,,,8.531492981395626e-05,0.36702417294987716,1.4740000000000002,-0.07097645306517014,1.3820000000000001,-0.15883890339533238,,,,,,,,,,,,,,,,,,,,
35,240703_145714,LEARNING,1.0,36,3.0,2583.0,,,,,,,,,,36.0,36.0,36.0,cue1.png,Hard,B,,,,,,,,,,,,,,,,,,,,,,,,,,,34,29,Female,0.42857142857142855,1.0,0.0,0.5,2.4444444444444446,2.625,2.5555555555555554,2.7777777777777777,2.5,3.111111111111111,2.25,1.75,1.0,0.25,1.0,1.0,0.46189969991489,-0.6261376902562047,-0.7724075112212809,-0.5890659405762977,5.426707760996033e-05,0.1887198858911431,-0.00010719511910776145,-2.0120296327389307,0.00012911849362181628,0.5527412714996456,,,1.987,0.6948974208510262,0.6989999999999998,-1.3955721857579215,,,,,,,,,,,,,,,,,,,,
36,240703_145732,LEARNING,1.0,37,1.0,2583.0,,,,,,,,,,37.0,37.0,37.0,cue2.png,Easy,B,,,,,,,,,,,,,,,,,,,,,,,,,,,34,29,Female,0.42857142857142855,1.0,0.0,0.5,2.4444444444444446,2.625,2.5555555555555554,2.7777777777777777,2.5,3.111111111111111,2.25,1.75,1.0,0.25,1.0,1.0,0.48294376663398,-0.4134634183975505,-0.7278550572959499,-0.3475739943090536,,,,,-9.181847492756214e-05,-0.7328586202786872,0.00011496078641443867,0.5865599276140312,1.6190000000000002,0.1454986185095833,2.5109999999999997,1.8854830230868962,,,,,,,,,,,,,,,,,,,,
37,240703_145749,LEARNING,1.0,38,3.0,2583.0,,,,,,,,,,38.0,38.0,38.0,cue1.png,Hard,B,,,,,,,,,,,,,,,,,,,,,,,,,,,34,29,Female,0.42857142857142855,1.0,0.0,0.5,2.4444444444444446,2.625,2.5555555555555554,2.7777777777777777,2.5,3.111111111111111,2.25,1.75,1.0,0.25,1.0,1.0,0.4105892332348351,-1.1446884193322198,-0.8901619967702473,-1.2273418915391194,-1.2569856482208975e-05,-0.2295523285676799,,,0.00010170987733830331,0.3932545438631029,-0.00026494385584134887,-2.226738856833393,1.018,-0.7517532298795673,1.0299999999999998,-0.796218281713973,,,,,,,,,,,,,,,,,,,,
38,240703_145805,LEARNING,1.0,39,3.0,2583.0,,,,,,,,,,39.0,39.0,39.0,cue1.png,Hard,B,,,,,,,,,,,,,,,,,,,,,,,,,,,34,29,Female,0.42857142857142855,1.0,0.0,0.5,2.4444444444444446,2.625,2.5555555555555554,2.7777777777777777,2.5,3.111111111111111,2.25,1.75,1.0,0.25,1.0,1.0,0.3665785166667774,-1.5894668561729692,-1.0035425468572898,-1.8419093799037283,,,-6.250945060906881e-05,-1.2624908098049414,,,0.00016768892105019188,0.9770263251714167,1.0090000000000001,-0.7651896136324828,2.376,1.6410335456067362,,,,,,,,,,,,,,,,,,,,
39,240703_145823,LEARNING,1.0,40,3.0,2583.0,,,,,,,,,,40.0,40.0,40.0,cue1.png,Hard,B,,,,,,,,,,,,,,,,,,,,,,,,,,,34,29,Female,0.42857142857142855,1.0,0.0,0.5,2.4444444444444446,2.625,2.5555555555555554,2.7777777777777777,2.5,3.111111111111111,2.25,1.75,1.0,0.25,1.0,1.0,0.4566016666746388,-0.679680352741267,-0.7839438947077363,-0.6515977083145817,,,,,-3.8002131467736525e-07,-0.2007916382750388,6.05863876668891e-05,0.18390248970216186,1.7120000000000002,0.28434125062304577,2.146,1.224564065455352,,,,,,,,,,,,,,,,,,,,
40,240703_145841,LEARNING,1.0,41,1.0,2583.0,,,,,,,,,,41.0,41.0,41.0,cue2.png,Easy,B,,,,,,,,,,,,,,,,,,,,,,,,,,,34,29,Female,0.42857142857142855,1.0,0.0,0.5,2.4444444444444446,2.625,2.5555555555555554,2.7777777777777777,2.5,3.111111111111111,2.25,1.75,1.0,0.25,1.0,1.0,0.5169459666746358,-0.06983244479495954,-0.6598169231374582,0.0212196408488091,1.1102467403713203e-05,-0.08140855944300922,4.4116361738845335e-05,0.5260062311193586,0.000294521615004097,1.5151978325044368,4.7989796374569606e-05,0.09062125270426473,0.7949999999999999,-1.0846769606462572,1.761,0.5274303704193394,,,,,,,,,,,,,,,,,,,,
41,240703_145903,LEARNING,1.0,42,3.0,2583.0,,,,,,,,,,42.0,42.0,42.0,cue1.png,Hard,B,,,,,,,,,,,,,,,,,,,,,,,,,,,34,29,Female,0.42857142857142855,1.0,0.0,0.5,2.4444444444444446,2.625,2.5555555555555554,2.7777777777777777,2.5,3.111111111111111,2.25,1.75,1.0,0.25,0.6875,0.5833333333333334,0.8284437600523233,3.078207678651389,-0.18820632607036952,2.5775358688362906,2.90889816754159e-05,0.031152844771696456,3.018220836255043e-05,0.2922805362569147,-0.00011241109378400636,-0.8526840562258649,-0.000137296131358267,-1.2814722078305978,,,,,,,,,,,,,,,,,,,,,,,,
42,240703_145919,LEARNING,1.0,43,3.0,2583.0,,,,,,,,,,43.0,43.0,43.0,cue1.png,Hard,B,,,,,,,,,,,,,,,,,,,,,,,,,,,34,29,Female,0.42857142857142855,1.0,0.0,0.5,2.4444444444444446,2.625,2.5555555555555554,2.7777777777777777,2.5,3.111111111111111,2.25,1.75,1.0,0.25,1.0,1.0,0.3522194999968633,-1.734581080321956,-1.043500718192427,-2.0584984948641467,-4.90890923188071e-05,-0.45809335683587427,6.071822920916464e-05,0.8044790529497691,-0.00011718687462238453,-0.8804736261167172,0.000296713366094476,1.9324879701036013,1.435,-0.12920078266113852,0.29900000000000015,-2.119866933847285,,,,,,,,,,,,,,,,,,,,
43,240703_145937,LEARNING,1.0,44,1.0,2583.0,,,,,,,,,,44.0,44.0,44.0,cue2.png,Easy,B,,,,,,,,,,,,,,,,,,,,,,,,,,,34,29,Female,0.42857142857142855,1.0,0.0,0.5,2.4444444444444446,2.625,2.5555555555555554,2.7777777777777777,2.5,3.111111111111111,2.25,1.75,1.0,0.25,1.0,1.0,0.4653594000265002,-0.5911734786374236,-0.7649452686479105,-0.5486176302412091,,,,,0.0004233885279839697,2.2650555429115817,0.00011698595986250155,0.601556896237264,0.671,-1.2698004701308736,1.8670000000000002,0.7193684786630213,,,,,,,,,,,,,,,,,,,,
44,240703_145955,LEARNING,1.0,45,1.0,2583.0,,,,,,,,,,45.0,45.0,45.0,cue2.png,Easy,B,,,,,,,,,,,,,,,,,,,,,,,,,,,34,29,Female,0.42857142857142855,1.0,0.0,0.5,2.4444444444444446,2.625,2.5555555555555554,2.7777777777777777,2.5,3.111111111111111,2.25,1.75,1.0,0.25,1.0,1.0,0.5614293499772126,0.3797228279557652,-0.5772693364472453,0.4686602555205283,-3.2242773524948556e-05,-0.3526674098935823,-1.6215956807630934e-05,-0.4859829937822976,-7.432161128850595e-05,-0.6310469309605929,,,1.4559999999999997,-0.09784922057100229,1.537,0.12182531148929573,,,,,,,,,,,,,,,,,,,,
45,240703_150013,LEARNING,1.0,46,1.0,2583.0,,,,,,,,,,46.0,46.0,46.0,cue2.png,Easy,B,,,,,,,,,,,,,,,,,,,,,,,,,,,34,29,Female,0.42857142857142855,1.0,0.0,0.5,2.4444444444444446,2.625,2.5555555555555554,2.7777777777777777,2.5,3.111111111111111,2.25,1.75,1.0,0.25,0.6875,0.75,0.5904012833877156,0.672517225762283,-0.526952831938556,0.7413956389302235,3.118153845488823e-05,0.04424827426616906,0.00012163229347406622,1.826226238640311,0.000200167934122301,0.9661675695884597,0.00015855426242958586,0.9093816556009132,2.512,1.4786864731044436,0.6600000000000001,-1.466190923696634,,,,,,,,,,,,,,,,,,,,
46,240703_150030,LEARNING,1.0,47,3.0,2583.0,,,,,,,,,,47.0,47.0,47.0,cue1.png,Hard,B,,,,,,,,,,,,,,,,,,,,,,,,,,,34,29,Female,0.42857142857142855,1.0,0.0,0.5,2.4444444444444446,2.625,2.5555555555555554,2.7777777777777777,2.5,3.111111111111111,2.25,1.75,1.0,0.25,1.0,1.0,0.3378665499233951,-1.8796339946015617,-1.0851042841739758,-2.2840063005033233,2.2408607567480938e-05,-0.010653604154971392,4.093713009761021e-05,0.4726791215053312,-6.344646522980649e-05,-0.5677660473315008,-1.930997896014289e-05,-0.4077521681060387,1.897,0.5605335833218688,1.501,0.05663878416125293,,,,,,,,,,,,,,,,,,,,
47,240703_150047,LEARNING,1.0,48,3.0,2583.0,,,,,,,,,,48.0,48.0,48.0,cue1.png,Hard,B,,,,,,,,,,,,,,,,,,,,,,,,,,,34,29,Female,0.42857142857142855,1.0,0.0,0.5,2.4444444444444446,2.625,2.5555555555555554,2.7777777777777777,2.5,3.111111111111111,2.25,1.75,1.0,0.25,0.6875,0.75,0.5064739666801567,-0.1756639365621547,-0.6802823550740555,-0.08971110603781109,-8.91362711430031e-06,-0.20667127971263202,-5.233013868240774e-05,-1.091747264141958,,,-2.9988801193836425e-05,-0.48683179564360524,1.4220000000000002,-0.1486088925264611,1.616,0.26487352423694543,,,,,,,,,,,,,,,,,,,,
48,240703_150105,LEARNING,1.0,49,1.0,2583.0,,,,,,,,,,49.0,49.0,49.0,cue2.png,Easy,B,,,,,,,,,,,,,,,,,,,,,,,,,,,34,29,Female,0.42857142857142855,1.0,0.0,0.5,2.4444444444444446,2.625,2.5555555555555554,2.7777777777777777,2.5,3.111111111111111,2.25,1.75,1.0,0.25,1.0,1.0,0.4499854333310698,-0.7465449292308506,-0.798540067117104,-0.7307147439126219,,,,,,,,,2.088,0.8456835051893027,,,,,,,,,,,,,,,,,,,,,,
49,240703_150122,LEARNING,1.0,50,1.0,2583.0,,,,,,,,,,50.0,50.0,50.0,cue2.png,Easy,B,,,,,,,,,,,,,,,,,,,,,,,,,,,34,29,Female,0.42857142857142855,1.0,0.0,0.5,2.4444444444444446,2.625,2.5555555555555554,2.7777777777777777,2.5,3.111111111111111,2.25,1.75,1.0,0.25,1.0,1.0,0.4151145500751833,-1.0989549365031759,-0.879200772561581,-1.167927714891098,8.80851652254903e-06,-0.09576433335689259,-6.447406628045911e-05,-1.2954444561825185,-8.691376456223046e-05,-0.704318828335877,0.00017872391128420217,1.0587434751051312,1.284,-0.3546334434045024,1.8090000000000002,0.6143457401900635,,,,,,,,,,,,,,,,,,,,
0,240703_150307,TrueCHOICE,9.0,1,1.0,2583.0,,,,,,,,,,,1.0,1.0,,,B,,,,,,True,cue2.png,Easy,cue1.png,Hard,Left,Easy,Easy,0.0165717999916523,,,,,,,,,,,,,34,29,Female,0.42857142857142855,1.0,0.0,0.5,2.4444444444444446,2.625,2.5555555555555554,2.7777777777777777,2.5,3.111111111111111,2.25,1.75,1.0,0.25,1.0,1.0,0.5671221166461086,0.7462886698563317,-0.5671806251703189,0.7904667465035043,,,,,,,,,,,,,-3.235183307136961e-05,-1.2864877238373271,,,,,,,,,,,,,,,,,,
1,240703_150322,TrueCHOICE,9.0,2,1.0,2583.0,,,,,,,,,,,2.0,2.0,,,B,,,,,,True,cue2.png,Easy,cue1.png,Hard,Left,Easy,Easy,0.0158007000572979,,,,,,,,,,,,,34,29,Female,0.42857142857142855,1.0,0.0,0.5,2.4444444444444446,2.625,2.5555555555555554,2.7777777777777777,2.5,3.111111111111111,2.25,1.75,1.0,0.25,,,,,,,,,,,,,,,,,,,,,6.389159477268288e-05,-0.6491923455358016,1.9979999999999998,1.114510494276267,,,,,,,,,,,,,,
2,240703_150338,TrueCHOICE,9.0,3,1.0,2583.0,,,,,,,,,,,3.0,3.0,,,B,,,,,,True,cue1.png,Hard,cue2.png,Easy,Right,Easy,Easy,0.0149708001408725,,,,,,,,,,,,,34,29,Female,0.42857142857142855,1.0,0.0,0.5,2.4444444444444446,2.625,2.5555555555555554,2.7777777777777777,2.5,3.111111111111111,2.25,1.75,1.0,0.25,1.0,1.0,0.4659143999451771,-1.1324684212753309,-0.7637533528345387,-1.1874829478597482,,,,,,,,,,,,,2.4417152486471035e-05,0.06700518642239756,0.00023048071025659,1.0293575532542536,1.602,0.7118223959793678,,,,,,,,,,,,,,
3,240703_150353,TrueCHOICE,9.0,4,1.0,2583.0,,,,,,,,,,,4.0,4.0,,,B,,,,,,True,cue2.png,Easy,cue1.png,Hard,Left,Easy,Easy,0.0160861001349985,,,,,,,,,,,,,34,29,Female,0.42857142857142855,1.0,0.0,0.5,2.4444444444444446,2.625,2.5555555555555554,2.7777777777777777,2.5,3.111111111111111,2.25,1.75,1.0,0.25,1.0,1.0,0.4891275165913005,-0.7015545648246063,-0.7151320533765255,-0.6982467982408795,,,,,,,,,,,,,5.929990183260042e-06,-0.37376793753491394,,,,,,,,,,,,,,,,,,
4,240703_150409,TrueCHOICE,9.0,5,1.0,2583.0,,,,,,,,,,,5.0,5.0,,,B,,,,,,True,cue1.png,Hard,cue2.png,Easy,Right,Easy,Easy,0.0165542000904679,,,,,,,,,,,,,34,29,Female,0.42857142857142855,1.0,0.0,0.5,2.4444444444444446,2.625,2.5555555555555554,2.7777777777777777,2.5,3.111111111111111,2.25,1.75,1.0,0.25,0.6875,0.75,0.4814218999041865,-0.8445968393108231,-0.7310112625528474,-0.8580262209016203,,,,,,,,,,,,,6.569844273851761e-05,1.0512386218708825,3.8105816866286935e-05,-0.9090095296854165,1.454,0.561322803686587,,,,,,,,,,,,,,
5,240703_150425,TrueCHOICE,9.0,6,1.0,2583.0,,,,,,,,,,,6.0,6.0,,,B,,,,,,True,cue1.png,Hard,cue2.png,Easy,Right,Easy,Easy,0.0167555999942123,,,,,,,,,,,,,34,29,Female,0.42857142857142855,1.0,0.0,0.5,2.4444444444444446,2.625,2.5555555555555554,2.7777777777777777,2.5,3.111111111111111,2.25,1.75,1.0,0.25,1.0,1.0,0.5792345333611593,0.9711360385741533,-0.5460478171721683,1.0031088134761932,,,,,,,,,,,,,-3.859879446449889e-05,-1.4354285208796111,0.0003028583931059263,1.7586342041837577,0.07050000000000001,-0.845543317509777,,,,,,,,,,,,,,
6,240703_150441,TrueCHOICE,9.0,7,1.0,2583.0,,,,,,,,,,,7.0,7.0,,,B,,,,,,True,cue2.png,Easy,cue1.png,Hard,Left,Easy,Easy,0.0160903998184949,,,,,,,,,,,,,34,29,Female,0.42857142857142855,1.0,0.0,0.5,2.4444444444444446,2.625,2.5555555555555554,2.7777777777777777,2.5,3.111111111111111,2.25,1.75,1.0,0.25,,,,,,,,,,,,,,,,,,,5.468437294404386e-05,0.788639858947118,9.098979275884607e-05,-0.3761512326459195,1.1350000000000002,0.23693516894741848,,,,,,,,,,,,,,
7,240703_150457,TrueCHOICE,9.0,8,3.0,2583.0,,,,,,,,,,,8.0,8.0,,,B,,,,,,True,cue1.png,Hard,cue2.png,Easy,Left,Hard,Hard,0.016051199985668,,,,,,,,,,,,,34,29,Female,0.42857142857142855,1.0,0.0,0.5,2.4444444444444446,2.625,2.5555555555555554,2.7777777777777777,2.5,3.111111111111111,2.25,1.75,1.0,0.25,1.0,1.0,0.628823283322466,1.891670743506415,-0.4639050103680833,1.8296443229687098,,,,,,,,,,,,,7.146814353695607e-05,1.1888005150114542,0.0001593642388623938,0.3127888535869241,-0.8475000000000001,-1.7790475453798618,,,,,,,,,,,,,,
8,240703_150513,TrueCHOICE,9.0,9,1.0,2583.0,,,,,,,,,,,9.0,9.0,,,B,,,,,,True,cue2.png,Easy,cue1.png,Hard,Left,Easy,Easy,0.0165673000738024,,,,,,,,,,,,,34,29,Female,0.42857142857142855,1.0,0.0,0.5,2.4444444444444446,2.625,2.5555555555555554,2.7777777777777777,2.5,3.111111111111111,2.25,1.75,1.0,0.25,1.0,1.0,0.5009016833112886,-0.4829862585885219,-0.6913454380506678,-0.45890165065721367,,,,,,,,,,,,,,,1.2558150668615358e-05,-1.166427503157797,,,,,,,,,,,,,,,,
9,240703_150529,TrueCHOICE,9.0,10,1.0,2583.0,,,,,,,,,,,10.0,10.0,,,B,,,,,,True,cue1.png,Hard,cue2.png,Easy,Right,Easy,Easy,0.0188670998904854,,,,,,,,,,,,,34,29,Female,0.42857142857142855,1.0,0.0,0.5,2.4444444444444446,2.625,2.5555555555555554,2.7777777777777777,2.5,3.111111111111111,2.25,1.75,1.0,0.25,1.0,1.0,0.5028138832810024,-0.4474893679376086,-0.6875351907120792,-0.42056226528894786,,,,,,,,,,,,,,,,,,,,,,,,,,,,,,,,
0,240703_150711,FalseCHOICE,9.0,1,2.0,2583.0,,,,,,,,,,,1.0,1.0,,,B,,,,,,False,cue2.png,Easy,cue1.png,Hard,Left,Easy,Mid,0.0173515998758375,,,,,,,,,,,,,34,29,Female,0.42857142857142855,1.0,0.0,0.5,2.4444444444444446,2.625,2.5555555555555554,2.7777777777777777,2.5,3.111111111111111,2.25,1.75,1.0,0.25,1.0,1.0,0.54368293331936,1.0538785107116844,-0.6093890452082392,1.0250246631386026,,,,,,,,,,,,,,,,,,,,,-3.446231874750655e-05,-0.07639445527366452,,,,,,,,,,
1,240703_150727,FalseCHOICE,9.0,2,2.0,2583.0,,,,,,,,,,,2.0,2.0,,,B,,,,,,False,cue1.png,Hard,cue2.png,Easy,Left,Hard,Mid,0.0172242999542504,,,,,,,,,,,,,34,29,Female,0.42857142857142855,1.0,0.0,0.5,2.4444444444444446,2.625,2.5555555555555554,2.7777777777777777,2.5,3.111111111111111,2.25,1.75,1.0,0.25,,,,,,,,,,,,,,,,,,,,,,,,,0.0003401764754661432,0.7595829610810311,,,1.4509999999999998,-0.0931511924222962,,,,,,,,
2,240703_150742,FalseCHOICE,9.0,3,2.0,2583.0,,,,,,,,,,,3.0,3.0,,,B,,,,,,False,cue1.png,Hard,cue2.png,Easy,Right,Easy,Mid,0.0164900999516248,,,,,,,,,,,,,34,29,Female,0.42857142857142855,1.0,0.0,0.5,2.4444444444444446,2.625,2.5555555555555554,2.7777777777777777,2.5,3.111111111111111,2.25,1.75,1.0,0.25,,,,,,,,,,,,,,,,,,,,,,,,,-0.00014230642980516068,-0.5341117976427882,-0.00020805249209982467,-0.9776142930900135,1.135,-0.6402845902930335,,,,,,,,
3,240703_150758,FalseCHOICE,9.0,4,2.0,2583.0,,,,,,,,,,,4.0,4.0,,,B,,,,,,False,cue1.png,Hard,cue2.png,Easy,Right,Easy,Mid,0.0169074998702853,,,,,,,,,,,,,34,29,Female,0.42857142857142855,1.0,0.0,0.5,2.4444444444444446,2.625,2.5555555555555554,2.7777777777777777,2.5,3.111111111111111,2.25,1.75,1.0,0.25,0.6875,0.75,0.50317709997762,0.38425000848740914,-0.6868130834199763,0.42814789231527645,,,,,,,,,,,,,,,,,,,0.00011226703965543702,0.1484830871772716,0.00015138747157652632,0.8884730522556188,1.5939999999999999,0.1544439844622465,,,,,,,,
4,240703_150813,FalseCHOICE,9.0,5,2.0,2583.0,,,,,,,,,,,5.0,5.0,,,B,,,,,,False,cue2.png,Easy,cue1.png,Hard,Right,Hard,Mid,0.0170203000307083,,,,,,,,,,,,,34,29,Female,0.42857142857142855,1.0,0.0,0.5,2.4444444444444446,2.625,2.5555555555555554,2.7777777777777777,2.5,3.111111111111111,2.25,1.75,1.0,0.25,,,,,,,,,,,,,,,,,,,,,,,,,-2.915344851491886e-05,-0.2307115792519489,-0.00014606996988777467,-0.655822583705526,1.5330000000000001,0.04882646145555394,,,,,,,,
5,240703_150829,FalseCHOICE,9.0,6,2.0,2583.0,,,,,,,,,,,6.0,6.0,,,B,,,,,,False,cue1.png,Hard,cue2.png,Easy,Right,Easy,Mid,0.0168967000208795,,,,,,,,,,,,,34,29,Female,0.42857142857142855,1.0,0.0,0.5,2.4444444444444446,2.625,2.5555555555555554,2.7777777777777777,2.5,3.111111111111111,2.25,1.75,1.0,0.25,0.6875,0.75,0.5773217666816587,1.6099841316212573,-0.5493555133446265,1.4878346827074396,,,,,,,,,,,,,,,,,,,4.845553852668872e-05,-0.022616455738431848,9.13189085276875e-05,0.5766179535291288,1.5159999999999998,0.019392069797950367,,,,,,,,
6,240703_150845,FalseCHOICE,9.0,7,2.0,2583.0,,,,,,,,,,,7.0,7.0,,,B,,,,,,False,cue1.png,Hard,cue2.png,Easy,Left,Hard,Mid,0.0161566000897437,,,,,,,,,,,,,34,29,Female,0.42857142857142855,1.0,0.0,0.5,2.4444444444444446,2.625,2.5555555555555554,2.7777777777777777,2.5,3.111111111111111,2.25,1.75,1.0,0.25,0.6875,0.75,0.5317195666721091,0.8561042488671962,-0.6316390589381051,0.8534950367771119,,,,,,,,,,,,,,,,,,,4.229312728566692e-05,-0.03913989944288346,-3.637866510558269e-05,-0.08634345941758066,,,,,,,,,,
7,240703_150901,FalseCHOICE,9.0,8,2.0,2583.0,,,,,,,,,,,8.0,8.0,,,B,,,,,,False,cue2.png,Easy,cue1.png,Hard,Right,Hard,Mid,0.0165820000693202,,,,,,,,,,,,,34,29,Female,0.42857142857142855,1.0,0.0,0.5,2.4444444444444446,2.625,2.5555555555555554,2.7777777777777777,2.5,3.111111111111111,2.25,1.75,1.0,0.25,,,,,,,,,,,,,,,,,,,,,,,,,-2.8521214521439776e-05,-0.22901635275850246,8.966170766288315e-05,0.5680143427038957,,,,,,,,,,
8,240703_150917,FalseCHOICE,9.0,9,2.0,2583.0,,,,,,,,,,,9.0,9.0,,,B,,,,,,False,cue2.png,Easy,cue1.png,Hard,Right,Hard,Mid,0.0165633000433444,,,,,,,,,,,,,34,29,Female,0.42857142857142855,1.0,0.0,0.5,2.4444444444444446,2.625,2.5555555555555554,2.7777777777777777,2.5,3.111111111111111,2.25,1.75,1.0,0.25,1.0,1.0,0.5202172166900709,0.6659513559357323,-0.6535088302252312,0.684896772387879,,,,,,,,,,,,,,,,,,,-4.124649821556732e-05,-0.26313700789157796,-6.503095438805317e-05,-0.2350961854593185,,,,,,,,,,
9,240703_150932,FalseCHOICE,9.0,10,2.0,2583.0,,,,,,,,,,,10.0,10.0,,,B,,,,,,False,cue1.png,Hard,cue2.png,Easy,Left,Hard,Mid,0.0159697001799941,,,,,,,,,,,,,34,29,Female,0.42857142857142855,1.0,0.0,0.5,2.4444444444444446,2.625,2.5555555555555554,2.7777777777777777,2.5,3.111111111111111,2.25,1.75,1.0,0.25,,,,,,,,,,,,,,,,,,,,,,,,,2.8951212507985317e-05,-0.07491394455546817,,,0.6529999999999998,-1.4748361655262476,,,,,,,,
10,240703_150947,FalseCHOICE,9.0,11,2.0,2583.0,,,,,,,,,,,11.0,11.0,,,B,,,,,,False,cue2.png,Easy,cue1.png,Hard,Right,Hard,Mid,0.0164832998998463,,,,,,,,,,,,,34,29,Female,0.42857142857142855,1.0,0.0,0.5,2.4444444444444446,2.625,2.5555555555555554,2.7777777777777777,2.5,3.111111111111111,2.25,1.75,1.0,0.25,1.0,1.0,0.437393783358857,-0.7032571514597211,-0.8269213835545612,-0.6519738848668266,,,,,,,,,,,,,,,,,,,0.00020868860534765466,0.40702089815696646,0.00045562270802992737,2.46795664374943,0.4990000000000001,-1.7414771252480623,,,,,,,,
11,240703_151003,FalseCHOICE,9.0,12,2.0,2583.0,,,,,,,,,,,12.0,12.0,,,B,,,,,,False,cue1.png,Hard,cue2.png,Easy,Right,Easy,Mid,0.0165951000526547,,,,,,,,,,,,,34,29,Female,0.42857142857142855,1.0,0.0,0.5,2.4444444444444446,2.625,2.5555555555555554,2.7777777777777777,2.5,3.111111111111111,2.25,1.75,1.0,0.25,,,,,,,,,,,,,,,,,,,,,,,,,,,0.0001172789873671253,0.7113936587984234,,,,,,,,,,
12,240703_151018,FalseCHOICE,9.0,13,2.0,2583.0,,,,,,,,,,,13.0,13.0,,,B,,,,,,False,cue2.png,Easy,cue1.png,Hard,Right,Hard,Mid,0.0165425001177936,,,,,,,,,,,,,34,29,Female,0.42857142857142855,1.0,0.0,0.5,2.4444444444444446,2.625,2.5555555555555554,2.7777777777777777,2.5,3.111111111111111,2.25,1.75,1.0,0.25,1.0,1.0,0.5321467665877814,0.8631665709102585,-0.6308359506428654,0.8596863527683188,,,,,,,,,,,,,,,,,,,-4.284570122360708e-05,-0.2674249951488116,0.000267895554115034,1.4933425170526913,,,,,,,,,,
13,240703_151034,FalseCHOICE,9.0,14,2.0,2583.0,,,,,,,,,,,14.0,14.0,,,B,,,,,,False,cue1.png,Hard,cue2.png,Easy,Right,Easy,Mid,0.0165952001698315,,,,,,,,,,,,,34,29,Female,0.42857142857142855,1.0,0.0,0.5,2.4444444444444446,2.625,2.5555555555555554,2.7777777777777777,2.5,3.111111111111111,2.25,1.75,1.0,0.25,1.0,1.0,0.5455457333397741,1.0846736798195329,-0.6059686397533791,1.0513932252797322,,,,,,,,,,,,,,,,,,,0.0004670908409539422,1.09988195954192,0.0002997480681459757,1.6587096975482507,,,,,,,,,,
14,240703_151049,FalseCHOICE,9.0,15,2.0,2583.0,,,,,,,,,,,15.0,15.0,,,B,,,,,,False,cue2.png,Easy,cue1.png,Hard,Right,Hard,Mid,0.0166575999464839,,,,,,,,,,,,,34,29,Female,0.42857142857142855,1.0,0.0,0.5,2.4444444444444446,2.625,2.5555555555555554,2.7777777777777777,2.5,3.111111111111111,2.25,1.75,1.0,0.25,,,,,,,,,,,,,,,,,,,,,,,,,-0.0001232526260379588,-0.48302230659953466,,,,,,,,,,,,
15,240703_151105,FalseCHOICE,9.0,16,2.0,2583.0,,,,,,,,,,,16.0,16.0,,,B,,,,,,False,cue2.png,Easy,cue1.png,Hard,Right,Hard,Mid,0.0167735000140965,,,,,,,,,,,,,34,29,Female,0.42857142857142855,1.0,0.0,0.5,2.4444444444444446,2.625,2.5555555555555554,2.7777777777777777,2.5,3.111111111111111,2.25,1.75,1.0,0.25,0.6875,0.75,0.5109467166864002,0.5126946390585808,-0.6714899668445549,0.5462767390111134,,,,,,,,,,,,,,,,,,,-0.00010409953264925269,-0.43166658754792614,-8.242686843957028e-05,-0.3254097241661225,,,,,,,,,,
16,240703_151120,FalseCHOICE,9.0,17,2.0,2583.0,,,,,,,,,,,17.0,17.0,,,B,,,,,,False,cue1.png,Hard,cue2.png,Easy,Right,Easy,Mid,0.0165375999640673,,,,,,,,,,,,,34,29,Female,0.42857142857142855,1.0,0.0,0.5,2.4444444444444446,2.625,2.5555555555555554,2.7777777777777777,2.5,3.111111111111111,2.25,1.75,1.0,0.25,1.0,1.0,0.3744670666443805,-1.7435399845000839,-0.9822514194261349,-1.8494429444029328,,,,,,,,,,,,,,,,,,,7.547703828750425e-05,0.04983703894811477,1.7699684941360934e-05,0.19441253567994635,,,,,,,,,,
17,240703_151134,FalseCHOICE,9.0,18,2.0,2583.0,,,,,,,,,,,18.0,18.0,,,B,,,,,,False,cue1.png,Hard,cue2.png,Easy,Right,Easy,Mid,0.0162576001603156,,,,,,,,,,,,,34,29,Female,0.42857142857142855,1.0,0.0,0.5,2.4444444444444446,2.625,2.5555555555555554,2.7777777777777777,2.5,3.111111111111111,2.25,1.75,1.0,0.25,1.0,1.0,0.3560133000137284,-2.0486113060804794,-1.032787189238834,-2.2390328933847226,,,,,,,,,,,,,,,,,,,-3.656899103872749e-05,-0.250595078524841,-0.00023371005171148604,-1.110819423688358,,,,,,,,,,
18,240703_151150,FalseCHOICE,9.0,19,2.0,2583.0,,,,,,,,,,,19.0,19.0,,,B,,,,,,False,cue2.png,Easy,cue1.png,Hard,Right,Hard,Mid,0.0164381000213325,,,,,,,,,,,,,34,29,Female,0.42857142857142855,1.0,0.0,0.5,2.4444444444444446,2.625,2.5555555555555554,2.7777777777777777,2.5,3.111111111111111,2.25,1.75,1.0,0.25,1.0,1.0,0.522179349946479,0.6983886679289908,-0.649744167837423,0.7139192772994658,,,,,,,,,,,,,,,,,,,0.00012253692502505083,0.17602001486985575,,,,,,,,,,,,
19,240703_151206,FalseCHOICE,9.0,20,2.0,2583.0,,,,,,,,,,,20.0,20.0,,,B,,,,,,False,cue2.png,Easy,cue1.png,Hard,Right,Hard,Mid,0.0165714998729527,,,,,,,,,,,,,34,29,Female,0.42857142857142855,1.0,0.0,0.5,2.4444444444444446,2.625,2.5555555555555554,2.7777777777777777,2.5,3.111111111111111,2.25,1.75,1.0,0.25,1.0,1.0,0.5345712999502817,0.9032481223852383,-0.6262901618095448,0.8947307113725153,,,,,,,,,,,,,,,,,,,,,-0.00024709143436966053,-1.1802909109048747,,,,,,,,,,
20,240703_151221,FalseCHOICE,9.0,21,2.0,2583.0,,,,,,,,,,,21.0,21.0,,,B,,,,,,False,cue2.png,Easy,cue1.png,Hard,Right,Hard,Mid,0.016657100059092,,,,,,,,,,,,,34,29,Female,0.42857142857142855,1.0,0.0,0.5,2.4444444444444446,2.625,2.5555555555555554,2.7777777777777777,2.5,3.111111111111111,2.25,1.75,1.0,0.25,0.6875,0.75,0.4053425666643306,-1.2331168397803414,-0.9030227257840857,-1.2386537384939074,,,,,,,,,,,,,,,,,,,6.434194061844586e-05,0.019980193586436337,0.0003314957835487209,1.8235327999955968,0.6649999999999998,-1.4540589478855868,,,,,,,,
21,240703_151237,FalseCHOICE,9.0,22,2.0,2583.0,,,,,,,,,,,22.0,22.0,,,B,,,,,,False,cue1.png,Hard,cue2.png,Easy,Right,Easy,Mid,0.0166048000101,,,,,,,,,,,,,34,29,Female,0.42857142857142855,1.0,0.0,0.5,2.4444444444444446,2.625,2.5555555555555554,2.7777777777777777,2.5,3.111111111111111,2.25,1.75,1.0,0.25,1.0,1.0,0.5779836666770279,1.6209264346417123,-0.5482096690532764,1.4966682162751026,,,,,,,,,,,,,,,,,,,-5.272116320832396e-05,-0.29390434451025804,-0.00012317225850261553,-0.5369456257396154,2.056,0.9543668636276924,,,,,,,,
22,240703_151257,FalseCHOICE,9.0,23,2.0,2583.0,,,,,,,,,,,24.0,23.0,,,B,,,,,,False,cue2.png,Easy,cue1.png,Hard,Right,Hard,Mid,0.0166003999765962,,,,,,,,,,,,,34,29,Female,0.42857142857142855,1.0,0.0,0.5,2.4444444444444446,2.625,2.5555555555555554,2.7777777777777777,2.5,3.111111111111111,2.25,1.75,1.0,0.25,1.0,1.0,0.4225894667130584,-0.9479970213530913,-0.8613540990680809,-0.9174222975443287,,,,,,,,,,,,,,,,,,,6.581796324735571e-05,0.02393789388610745,-0.0002822823967519343,-1.3629901547519658,1.6520000000000001,0.25486720305877475,,,,,,,,
23,240703_151313,FalseCHOICE,9.0,24,2.0,2583.0,,,,,,,,,,,25.0,24.0,,,B,,,,,,False,cue1.png,Hard,cue2.png,Easy,Right,Easy,Mid,0.0153302999678999,,,,,,,,,,,,,34,29,Female,0.42857142857142855,1.0,0.0,0.5,2.4444444444444446,2.625,2.5555555555555554,2.7777777777777777,2.5,3.111111111111111,2.25,1.75,1.0,0.25,1.0,1.0,0.4727115166994433,-0.11939653367451017,-0.7492699778253176,-0.05334429421165011,,,,,,,,,,,,,,,,,,,,,,,0.821,-1.1839551185569945,,,,,,,,
24,240703_151328,FalseCHOICE,9.0,25,2.0,2583.0,,,,,,,,,,,26.0,25.0,,,B,,,,,,False,cue1.png,Hard,cue2.png,Easy,Right,Easy,Mid,0.015562399988994,,,,,,,,,,,,,34,29,Female,0.42857142857142855,1.0,0.0,0.5,2.4444444444444446,2.625,2.5555555555555554,2.7777777777777777,2.5,3.111111111111111,2.25,1.75,1.0,0.25,1.0,1.0,0.4725001333669449,-0.12289105020850774,-0.749717249790295,-0.05679239963603296,,,,,,,,,,,,,,,,,,,,,0.00022968599644279967,1.2949717757635755,1.5780000000000003,0.12674102760803266,,,,,,,,
25,240703_151344,FalseCHOICE,9.0,26,2.0,2583.0,,,,,,,,,,,27.0,26.0,,,B,,,,,,False,cue2.png,Easy,cue1.png,Hard,Left,Easy,Mid,0.0168578999582678,,,,,,,,,,,,,34,29,Female,0.42857142857142855,1.0,0.0,0.5,2.4444444444444446,2.625,2.5555555555555554,2.7777777777777777,2.5,3.111111111111111,2.25,1.75,1.0,0.25,1.0,1.0,0.4983749666328852,0.30486279203425853,-0.6964025402324432,0.35422092921213877,,,,,,,,,,,,,,,,,,,,,-0.00010811615977855248,-0.4587795948623506,0.4969999999999999,-1.7449399948548396,,,,,,,,
26,240703_151359,FalseCHOICE,9.0,27,2.0,2583.0,,,,,,,,,,,28.0,27.0,,,B,,,,,,False,cue2.png,Easy,cue1.png,Hard,Right,Hard,Mid,0.0166257000528275,,,,,,,,,,,,,34,29,Female,0.42857142857142855,1.0,0.0,0.5,2.4444444444444446,2.625,2.5555555555555554,2.7777777777777777,2.5,3.111111111111111,2.25,1.75,1.0,0.25,1.0,1.0,0.5019666667018706,0.364239541978942,-0.6892215624873409,0.4095804649176927,,,,,,,,,,,,,,,,,,,6.32899529119527e-06,-0.13557152127855723,-0.000213337332806182,-1.0050513489572372,1.476,-0.04986532233758572,,,,,,,,
27,240703_151415,FalseCHOICE,9.0,28,2.0,2583.0,,,,,,,,,,,29.0,28.0,,,B,,,,,,False,cue1.png,Hard,cue2.png,Easy,Right,Easy,Mid,0.0156908999197185,,,,,,,,,,,,,34,29,Female,0.42857142857142855,1.0,0.0,0.5,2.4444444444444446,2.625,2.5555555555555554,2.7777777777777777,2.5,3.111111111111111,2.25,1.75,1.0,0.25,1.0,1.0,0.593720483322007,1.881082073728304,-0.5213466371687611,1.7037604849824575,,,,,,,,,,,,,,,,,,,0.00031810517029518676,0.7004025600639123,,,2.415,1.5759519580441317,,,,,,,,
28,240703_151430,FalseCHOICE,9.0,29,2.0,2583.0,,,,,,,,,,,30.0,29.0,,,B,,,,,,False,cue2.png,Easy,cue1.png,Hard,Right,Hard,Mid,0.0164633998647332,,,,,,,,,,,,,34,29,Female,0.42857142857142855,1.0,0.0,0.5,2.4444444444444446,2.625,2.5555555555555554,2.7777777777777777,2.5,3.111111111111111,2.25,1.75,1.0,0.25,0.6875,0.75,0.3826406166190281,-1.6084176681363687,-0.9606590681253285,-1.6829833639343643,,,,,,,,,,,,,,,,,,,-7.57168371257346e-05,-0.3555632810140247,-4.798866183262744e-05,-0.1466185266367349,1.5759999999999998,0.12327815800125508,,,,,,,,
29,240703_151446,FalseCHOICE,9.0,30,2.0,2583.0,,,,,,,,,,,31.0,30.0,,,B,,,,,,False,cue2.png,Easy,cue1.png,Hard,Right,Hard,Mid,0.0165391000919044,,,,,,,,,,,,,34,29,Female,0.42857142857142855,1.0,0.0,0.5,2.4444444444444446,2.625,2.5555555555555554,2.7777777777777777,2.5,3.111111111111111,2.25,1.75,1.0,0.25,1.0,1.0,0.5436855333779628,1.0539214939860482,-0.6093842629128492,1.025061530771646,,,,,,,,,,,,,,,,,,,8.464557871033914e-05,0.07442089997319973,0.00023884750197232865,1.342535127812993,1.7770000000000001,0.4712965534823261,,,,,,,,
30,240703_151502,FalseCHOICE,9.0,31,2.0,2583.0,,,,,,,,,,,32.0,31.0,,,B,,,,,,False,cue1.png,Hard,cue2.png,Easy,Right,Easy,Mid,0.0167942000553011,,,,,,,,,,,,,34,29,Female,0.42857142857142855,1.0,0.0,0.5,2.4444444444444446,2.625,2.5555555555555554,2.7777777777777777,2.5,3.111111111111111,2.25,1.75,1.0,0.25,1.0,1.0,0.5222724500345066,0.6999277665565128,-0.649565892328154,0.7152936374174222,,,,,,,,,,,,,,,,,,,-0.00010168146282333798,-0.4251829500431838,,,2.031,0.9110809935429822,,,,,,,,
31,240703_151517,FalseCHOICE,9.0,32,2.0,2583.0,,,,,,,,,,,33.0,32.0,,,B,,,,,,False,cue2.png,Easy,cue1.png,Hard,Right,Hard,Mid,0.0159267999697476,,,,,,,,,,,,,34,29,Female,0.42857142857142855,1.0,0.0,0.5,2.4444444444444446,2.625,2.5555555555555554,2.7777777777777777,2.5,3.111111111111111,2.25,1.75,1.0,0.25,1.0,1.0,0.4623065500054508,-0.29140786360342424,-0.7715270797875463,-0.22492856511689355,,,,,,,,,,,,,,,,,,,-5.188655074262914e-05,-0.29166647502174675,-0.0002556486350989342,-1.2247169224956684,1.0370000000000001,-0.8099652010250975,,,,,,,,
32,240703_151532,FalseCHOICE,9.0,33,2.0,2583.0,,,,,,,,,,,34.0,33.0,,,B,,,,,,False,cue1.png,Hard,cue2.png,Easy,Right,Easy,Mid,0.0180164000485092,,,,,,,,,,,,,34,29,Female,0.42857142857142855,1.0,0.0,0.5,2.4444444444444446,2.625,2.5555555555555554,2.7777777777777777,2.5,3.111111111111111,2.25,1.75,1.0,0.25,1.0,1.0,0.4538815667231877,-0.43068678891201395,-0.7899189812207927,-0.36671526328362486,,,,,,,,,,,,,,,,,,,,,-5.2340370404541786e-05,-0.16921108483094152,1.6739999999999997,0.29295876873331905,,,,,,,,
33,240703_151548,FalseCHOICE,9.0,34,2.0,2583.0,,,,,,,,,,,35.0,34.0,,,B,,,,,,False,cue1.png,Hard,cue2.png,Easy,Right,Easy,Mid,0.0166001000907272,,,,,,,,,,,,,34,29,Female,0.42857142857142855,1.0,0.0,0.5,2.4444444444444446,2.625,2.5555555555555554,2.7777777777777777,2.5,3.111111111111111,2.25,1.75,1.0,0.25,1.0,1.0,0.4798817832876618,-0.0008601531115207827,-0.7342154902306578,0.06271364011265602,,,,,,,,,,,,,,,,,,,,,-5.447172096312552e-05,-0.18027631604560326,1.6969999999999998,0.33278176921125274,,,,,,,,
34,240703_151603,FalseCHOICE,9.0,35,2.0,2583.0,,,,,,,,,,,36.0,35.0,,,B,,,,,,False,cue1.png,Hard,cue2.png,Easy,Right,Easy,Mid,0.0166764000896364,,,,,,,,,,,,,34,29,Female,0.42857142857142855,1.0,0.0,0.5,2.4444444444444446,2.625,2.5555555555555554,2.7777777777777777,2.5,3.111111111111111,2.25,1.75,1.0,0.25,1.0,1.0,0.4695583333183701,-0.17152387659059107,-0.7559627424321356,-0.10494010112982498,,,,,,,,,,,,,,,,,,,-6.480625963442652e-05,-0.32630844781487045,-3.162521984912455e-05,-0.06166522400618148,2.0189999999999997,0.8903037759023206,,,,,,,,
35,240703_151619,FalseCHOICE,9.0,36,2.0,2583.0,,,,,,,,,,,37.0,36.0,,,B,,,,,,False,cue2.png,Easy,cue1.png,Hard,Right,Hard,Mid,0.0175586999393999,,,,,,,,,,,,,34,29,Female,0.42857142857142855,1.0,0.0,0.5,2.4444444444444446,2.625,2.5555555555555554,2.7777777777777777,2.5,3.111111111111111,2.25,1.75,1.0,0.25,1.0,1.0,0.5021492666176831,0.36725822097019223,-0.6888578596284057,0.4123843200639039,,,,,,,,,,,,,,,,,,,0.0017849805154827236,4.633575994888975,,,0.9740000000000002,-0.9190455936385673,,,,,,,,
36,240703_151634,FalseCHOICE,9.0,37,2.0,2583.0,,,,,,,,,,,38.0,37.0,,,B,,,,,,False,cue1.png,Hard,cue2.png,Easy,Right,Easy,Mid,0.0165132000111043,,,,,,,,,,,,,34,29,Female,0.42857142857142855,1.0,0.0,0.5,2.4444444444444446,2.625,2.5555555555555554,2.7777777777777777,2.5,3.111111111111111,2.25,1.75,1.0,0.25,1.0,1.0,0.5222092000379538,0.6988821393723976,-0.6496870050286514,0.7143599563637307,,,,,,,,,,,,,,,,,,,8.908002371869287e-05,0.08631110002480645,,,0.7889999999999999,-1.2393610322654236,,,,,,,,
37,240703_151650,FalseCHOICE,9.0,38,2.0,2583.0,,,,,,,,,,,39.0,38.0,,,B,,,,,,False,cue2.png,Easy,cue1.png,Hard,Right,Hard,Mid,0.0166355001274496,,,,,,,,,,,,,34,29,Female,0.42857142857142855,1.0,0.0,0.5,2.4444444444444446,2.625,2.5555555555555554,2.7777777777777777,2.5,3.111111111111111,2.25,1.75,1.0,0.25,1.0,1.0,0.4349107333303739,-0.744306080326164,-0.8326144796868294,-0.695863055645055,,,,,,,,,,,,,,,,,,,0.00041949905430946994,0.9722727856881125,0.00017999280127096139,1.0369819804400475,1.751,0.42627924859422694,,,,,,,,
38,240703_151705,FalseCHOICE,9.0,39,2.0,2583.0,,,,,,,,,,,40.0,39.0,,,B,,,,,,False,cue2.png,Easy,cue1.png,Hard,Right,Hard,Mid,0.0169428000226616,,,,,,,,,,,,,34,29,Female,0.42857142857142855,1.0,0.0,0.5,2.4444444444444446,2.625,2.5555555555555554,2.7777777777777777,2.5,3.111111111111111,2.25,1.75,1.0,0.25,1.0,1.0,0.4220478833497812,-0.9569502912024289,-0.8626365037295826,-0.9273086012159686,,,,,,,,,,,,,,,,,,,-3.597282234599989e-06,-0.16218712375578584,-0.0002918227241860065,-1.412520218446292,,,,,,,,,,
39,240703_151720,FalseCHOICE,9.0,40,2.0,2583.0,,,,,,,,,,,41.0,40.0,,,B,,,,,,False,cue1.png,Hard,cue2.png,Easy,Right,Easy,Mid,0.0168365999124944,,,,,,,,,,,,,34,29,Female,0.42857142857142855,1.0,0.0,0.5,2.4444444444444446,2.625,2.5555555555555554,2.7777777777777777,2.5,3.111111111111111,2.25,1.75,1.0,0.25,1.0,1.0,0.3675870333487789,-1.8572783281139011,-1.000795162929109,-1.9924002222287398,,,,,,,,,,,,,,,,,,,3.49860344050542e-05,-0.05873260968790496,-0.0001397059757603479,-0.6227829384040419,1.3619999999999999,-0.24724888992386468,,,,,,,,
40,240703_151735,FalseCHOICE,9.0,41,2.0,2583.0,,,,,,,,,,,42.0,41.0,,,B,,,,,,False,cue1.png,Hard,cue2.png,Easy,Right,Easy,Mid,0.0168226999230682,,,,,,,,,,,,,34,29,Female,0.42857142857142855,1.0,0.0,0.5,2.4444444444444446,2.625,2.5555555555555554,2.7777777777777777,2.5,3.111111111111111,2.25,1.75,1.0,0.25,1.0,1.0,0.4867938167105118,0.1134072055974694,-0.719914619858819,0.17296179462201533,,,,,,,,,,,,,,,,,,,-6.48229605934884e-06,-0.16992279111963707,-5.201297090943373e-05,-0.16751134046071392,2.46,1.65386652419661,,,,,,,,
41,240703_151750,FalseCHOICE,9.0,42,2.0,2583.0,,,,,,,,,,,43.0,42.0,,,B,,,,,,False,cue2.png,Easy,cue1.png,Hard,Right,Hard,Mid,0.0166621000971645,,,,,,,,,,,,,34,29,Female,0.42857142857142855,1.0,0.0,0.5,2.4444444444444446,2.625,2.5555555555555554,2.7777777777777777,2.5,3.111111111111111,2.25,1.75,1.0,0.25,1.0,1.0,0.4536186500142018,-0.4350332374978902,-0.7904984118622246,-0.37118220531044227,,,,,,,,,,,,,,,,,,,,,,,2.146,1.110195995932649,,,,,,,,
42,240703_151806,FalseCHOICE,9.0,43,2.0,2583.0,,,,,,,,,,,44.0,43.0,,,B,,,,,,False,cue1.png,Hard,cue2.png,Easy,Right,Easy,Mid,0.0139572001062333,,,,,,,,,,,,,34,29,Female,0.42857142857142855,1.0,0.0,0.5,2.4444444444444446,2.625,2.5555555555555554,2.7777777777777777,2.5,3.111111111111111,2.25,1.75,1.0,0.25,1.0,1.0,0.4522847999663402,-0.45708398762579733,-0.7934432091511637,-0.3938842128154555,,,,,,,,,,,,,,,,,,,3.256380763258819e-05,-0.0652273933284108,-9.701066670074043e-05,-0.4011237352179042,1.509,0.007272026174231676,,,,,,,,
43,240703_151821,FalseCHOICE,9.0,44,2.0,2583.0,,,,,,,,,,,45.0,44.0,,,B,,,,,,False,cue2.png,Easy,cue1.png,Hard,Right,Hard,Mid,0.0166842001490294,,,,,,,,,,,,,34,29,Female,0.42857142857142855,1.0,0.0,0.5,2.4444444444444446,2.625,2.5555555555555554,2.7777777777777777,2.5,3.111111111111111,2.25,1.75,1.0,0.25,1.0,1.0,0.4334511500007162,-0.7684354098146905,-0.8359761765375058,-0.7217790218883975,,,,,,,,,,,,,,,,,,,7.994102440813571e-05,0.06180644840113869,-0.00044117928508470485,-2.187927564326076,2.41,1.5672947840271898,,,,,,,,
44,240703_151836,FalseCHOICE,9.0,45,2.0,2583.0,,,,,,,,,,,46.0,45.0,,,B,,,,,,False,cue1.png,Hard,cue2.png,Easy,Right,Easy,Mid,0.0170859000645577,,,,,,,,,,,,,34,29,Female,0.42857142857142855,1.0,0.0,0.5,2.4444444444444446,2.625,2.5555555555555554,2.7777777777777777,2.5,3.111111111111111,2.25,1.75,1.0,0.25,1.0,1.0,0.5321564499366408,0.8633266527023932,-0.6308177540449235,0.8598266338343854,,,,,,,,,,,,,,,,,,,-6.774103018136182e-05,-0.33417752925412336,,,1.3669999999999998,-0.2385917159069228,,,,,,,,
45,240703_151852,FalseCHOICE,9.0,46,2.0,2583.0,,,,,,,,,,,47.0,46.0,,,B,,,,,,False,cue1.png,Hard,cue2.png,Easy,Right,Easy,Mid,0.0164053000044077,,,,,,,,,,,,,34,29,Female,0.42857142857142855,1.0,0.0,0.5,2.4444444444444446,2.625,2.5555555555555554,2.7777777777777777,2.5,3.111111111111111,2.25,1.75,1.0,0.25,1.0,1.0,0.4282194666642074,-0.8549237989605586,-0.848119442243351,-0.8153937879114875,,,,,,,,,,,,,,,,,,,-0.0013000885759830967,-3.638505088866602,-6.848200226008006e-05,-0.2530128263812224,0.33099999999999996,-2.0323581722173154,,,,,,,,
46,240703_151908,FalseCHOICE,9.0,47,2.0,2583.0,,,,,,,,,,,48.0,47.0,,,B,,,,,,False,cue2.png,Easy,cue1.png,Hard,Right,Hard,Mid,0.0142650001216679,,,,,,,,,,,,,34,29,Female,0.42857142857142855,1.0,0.0,0.5,2.4444444444444446,2.625,2.5555555555555554,2.7777777777777777,2.5,3.111111111111111,2.25,1.75,1.0,0.25,1.0,1.0,0.5594446333513284,1.3144455133917463,-0.5808107134970406,1.2453405074329684,,,,,,,,,,,,,,,,,,,,,-0.00017221336983330596,-0.7915500284328287,2.34,1.4460943477900006,,,,,,,,
47,240703_151924,FalseCHOICE,9.0,48,2.0,2583.0,,,,,,,,,,,49.0,48.0,,,B,,,,,,False,cue2.png,Easy,cue1.png,Hard,Right,Hard,Mid,0.0165731001179665,,,,,,,,,,,,,34,29,Female,0.42857142857142855,1.0,0.0,0.5,2.4444444444444446,2.625,2.5555555555555554,2.7777777777777777,2.5,3.111111111111111,2.25,1.75,1.0,0.25,1.0,1.0,0.4959371167157466,0.2645610958590826,-0.7013061411096034,0.3164181288859458,,,,,,,,,,,,,,,,,,,2.096591028349871e-05,-0.09632515627256523,6.996555046420499e-05,0.46575874117182314,1.785,0.48514803190943295,,,,,,,,
48,240703_151939,FalseCHOICE,9.0,49,2.0,2583.0,,,,,,,,,,,50.0,49.0,,,B,,,,,,False,cue1.png,Hard,cue2.png,Easy,Left,Hard,Mid,0.0165677999611943,,,,,,,,,,,,,34,29,Female,0.42857142857142855,1.0,0.0,0.5,2.4444444444444446,2.625,2.5555555555555554,2.7777777777777777,2.5,3.111111111111111,2.25,1.75,1.0,0.25,1.0,1.0,0.4025346333316217,-1.279536627667779,-0.9099741402808228,-1.2922435270569883,,,,,,,,,,,,,,,,,,,8.784272901678214e-05,0.08299350751868732,6.004289742706469e-05,0.41424377584777894,,,,,,,,,,
49,240703_151954,FalseCHOICE,9.0,50,2.0,2583.0,,,,,,,,,,,51.0,50.0,,,B,,,,,,False,cue2.png,Easy,cue1.png,Hard,Right,Hard,Mid,0.0166998000349849,,,,,,,,,,,,,34,29,Female,0.42857142857142855,1.0,0.0,0.5,2.4444444444444446,2.625,2.5555555555555554,2.7777777777777777,2.5,3.111111111111111,2.25,1.75,1.0,0.25,1.0,1.0,0.3950102667246635,-1.4039268679251429,-0.928843522710785,-1.4377112178718916,,,,,,,,,,,,,,,,,,,1.3293789199260355e-05,-0.11689662673615098,0.0001138381222791484,0.6935298833516373,2.0919999999999996,1.0166985165496745,,,,,,,,
0,240703_144608,OFFLINERATING,9.0,1,1.0,,,,,,,,,,,,,,,,,T0,cue2.png,Easy,17.0,1.555418600095436,,,,,,,,,,,,,,,,,,,,,,34,29,Female,0.42857142857142855,1.0,0.0,0.5,2.4444444444444446,2.625,2.5555555555555554,2.7777777777777777,2.5,3.111111111111111,2.25,1.75,1.0,0.25,,,,,,,,,,,,,,,,,,,,,,,,,,,,,,,-1.1654330934961301,-0.00016367084562182417,0.13997153336352156,,,,,
1,240703_144615,OFFLINERATING,9.0,2,3.0,,,,,,,,,,,,,,,,,T0,cue1.png,Hard,34.0,1.068193200044334,,,,,,,,,,,,,,,,,,,,,,34,29,Female,0.42857142857142855,1.0,0.0,0.5,2.4444444444444446,2.625,2.5555555555555554,2.7777777777777777,2.5,3.111111111111111,2.25,1.75,1.0,0.25,,,,,,,,,,,,,,,,,,,,,,,,,,,,,,,-0.1748149640244195,,,4.40852545619836e-05,0.7579323552252103,,,
2,240703_150151,OFFLINERATING,9.0,3,1.0,,,,,,,,,,,,,,,,,T1,cue2.png,Easy,72.0,1.048446800094098,,,,,,,,,,,,,,,,,,,,,,34,29,Female,0.42857142857142855,1.0,0.0,0.5,2.4444444444444446,2.625,2.5555555555555554,2.7777777777777777,2.5,3.111111111111111,2.25,1.75,1.0,0.25,,,,,,,,,,,,,,,,,,,,,,,,,,,,,,,2.0395079136182277,-0.00037919549331292624,-1.2887170649529993,,,,,
3,240703_150158,OFFLINERATING,9.0,4,3.0,,,,,,,,,,,,,,,,,T1,cue1.png,Hard,24.0,1.1348965999204663,,,,,,,,,,,,,,,,,,,,,,34,29,Female,0.42857142857142855,1.0,0.0,0.5,2.4444444444444446,2.625,2.5555555555555554,2.7777777777777777,2.5,3.111111111111111,2.25,1.75,1.0,0.25,,,,,,,,,,,,,,,,,,,,,,,,,,,,,,,-0.7575315107724846,,,-0.000292027523275863,-1.4129651663341003,1.1709999999999998,-1.0,
4,240703_150549,OFFLINERATING,9.0,5,1.0,,,,,,,,,,,,,,,,,T2,cue2.png,Easy,57.0,1.4018751999828964,,,,,,,,,,,,,,,,,,,,,,34,29,Female,0.42857142857142855,1.0,0.0,0.5,2.4444444444444446,2.625,2.5555555555555554,2.7777777777777777,2.5,3.111111111111111,2.25,1.75,1.0,0.25,,,,,,,,,,,,,,,,,,,,,,,,,,,,,,,1.1654330934961301,,,2.815366347225668e-05,0.6550328111088897,1.5870000000000002,1.0,
5,240703_150557,OFFLINERATING,9.0,6,3.0,,,,,,,,,,,,,,,,,T2,cue1.png,Hard,33.0,1.118454199982807,,,,,,,,,,,,,,,,,,,,,,34,29,Female,0.42857142857142855,1.0,0.0,0.5,2.4444444444444446,2.625,2.5555555555555554,2.7777777777777777,2.5,3.111111111111111,2.25,1.75,1.0,0.25,,,,,,,,,,,,,,,,,,,,,,,,,,,,,,,-0.233086618699226,,,,,,,
6,240703_152012,OFFLINERATING,9.0,7,1.0,,,,,,,,,,,,,,,,,T3,cue2.png,Easy,33.0,1.184512399835512,,,,,,,,,,,,,,,,,,,,,,34,29,Female,0.42857142857142855,1.0,0.0,0.5,2.4444444444444446,2.625,2.5555555555555554,2.7777777777777777,2.5,3.111111111111111,2.25,1.75,1.0,0.25,,,,,,,,,,,,,,,,,,,,,,,,,,,,,,,-0.233086618699226,,,,,,,
7,240703_152019,OFFLINERATING,9.0,8,3.0,,,,,,,,,,,,,,,,,T3,cue1.png,Hard,26.0,1.08642049995251,,,,,,,,,,,,,,,,,,,,,,34,29,Female,0.42857142857142855,1.0,0.0,0.5,2.4444444444444446,2.625,2.5555555555555554,2.7777777777777777,2.5,3.111111111111111,2.25,1.75,1.0,0.25,,,,,,,,,,,,,,,,,,,,,,,,,,,,,,,-0.6409882014228715,-1.1492364724179343e-05,1.148745531589478,,,,,
0,240703_150615,LEARNINGCHECK,9.0,1,,,,,,,,,,,,1.0,1.0,1.0,,,B,,,,,,,,,,,,,,,cue2.png,Easy,Left,Left,Easy,0.0141445000190287,1.0,,,,,,34,29,Female,0.42857142857142855,1.0,0.0,0.5,2.4444444444444446,2.625,2.5555555555555554,2.7777777777777777,2.5,3.111111111111111,2.25,1.75,1.0,0.25,,,,,,,,,,,,,,,,,,,,,,,,,,,,,,,,,,,,,,
1,240703_152030,LEARNINGCHECK,9.0,1,,,,,,,,,,,,1.0,1.0,1.0,,,B,,,,,,,,,,,,,,,cue2.png,Easy,Middle,Middle,Mid,0.0131661999039351,1.0,,,,,,34,29,Female,0.42857142857142855,1.0,0.0,0.5,2.4444444444444446,2.625,2.5555555555555554,2.7777777777777777,2.5,3.111111111111111,2.25,1.75,1.0,0.25,,,,,,,,,,,,,,,,,,,,,,,,,,,,,,,,,,,,,,
2,240703_150620,LEARNINGCHECK,9.0,2,,,,,,,,,,,,2.0,2.0,2.0,,,B,,,,,,,,,,,,,,,cue1.png,Hard,Right,Right,Hard,0.0136500000953674,1.0,,,,,,34,29,Female,0.42857142857142855,1.0,0.0,0.5,2.4444444444444446,2.625,2.5555555555555554,2.7777777777777777,2.5,3.111111111111111,2.25,1.75,1.0,0.25,,,,,,,,,,,,,,,,,,,,,,,,,,,,,,,,,,,,,,
3,240703_152034,LEARNINGCHECK,9.0,2,,,,,,,,,,,,2.0,2.0,2.0,,,B,,,,,,,,,,,,,,,cue1.png,Hard,Middle,Middle,Mid,0.0128964998293668,1.0,,,,,,34,29,Female,0.42857142857142855,1.0,0.0,0.5,2.4444444444444446,2.625,2.5555555555555554,2.7777777777777777,2.5,3.111111111111111,2.25,1.75,1.0,0.25,,,,,,,,,,,,,,,,,,,,,,,,,,,,,,,,,,,,,,
0,240703_152053,DEMANDRATING,9.0,-1,,,,,,,,,,,,,,,,,,,,,,,,,,,,,,,,,,,,,,,1.0,MentalDemand,1.0,26.0,4.5896228000056,34,29,Female,0.42857142857142855,1.0,0.0,0.5,2.4444444444444446,2.625,2.5555555555555554,2.7777777777777777,2.5,3.111111111111111,2.25,1.75,1.0,0.25,,,,,,,,,,,,,,,,,,,,,,,,,,,,,,,,,,,,,,-1.1278554477703024
1,240703_152059,DEMANDRATING,9.0,-1,,,,,,,,,,,,,,,,,,,,,,,,,,,,,,,,,,,,,,,2.0,Effort,1.0,32.0,4.26028519985266,34,29,Female,0.42857142857142855,1.0,0.0,0.5,2.4444444444444446,2.625,2.5555555555555554,2.7777777777777777,2.5,3.111111111111111,2.25,1.75,1.0,0.25,,,,,,,,,,,,,,,,,,,,,,,,,,,,,,,,,,,,,,-0.8822740196267689
2,240703_152104,DEMANDRATING,9.0,-1,,,,,,,,,,,,,,,,,,,,,,,,,,,,,,,,,,,,,,,3.0,Frustration,1.0,6.0,3.828989000059664,34,29,Female,0.42857142857142855,1.0,0.0,0.5,2.4444444444444446,2.625,2.5555555555555554,2.7777777777777777,2.5,3.111111111111111,2.25,1.75,1.0,0.25,,,,,,,,,,,,,,,,,,,,,,,,,,,,,,,,,,,,,,-1.9464602082487479
3,240703_152108,DEMANDRATING,9.0,-1,,,,,,,,,,,,,,,,,,,,,,,,,,,,,,,,,,,,,,,4.0,MentalDemand,2.0,61.0,2.801770400023088,34,29,Female,0.42857142857142855,1.0,0.0,0.5,2.4444444444444446,2.625,2.5555555555555554,2.7777777777777777,2.5,3.111111111111111,2.25,1.75,1.0,0.25,,,,,,,,,,,,,,,,,,,,,,,,,,,,,,,,,,,,,,0.3047028830669768
4,240703_152113,DEMANDRATING,9.0,-1,,,,,,,,,,,,,,,,,,,,,,,,,,,,,,,,,,,,,,,5.0,Effort,2.0,82.0,3.498621800215915,34,29,Female,0.42857142857142855,1.0,0.0,0.5,2.4444444444444446,2.625,2.5555555555555554,2.7777777777777777,2.5,3.111111111111111,2.25,1.75,1.0,0.25,,,,,,,,,,,,,,,,,,,,,,,,,,,,,,,,,,,,,,1.1642378815693444
5,240703_152118,DEMANDRATING,9.0,-1,,,,,,,,,,,,,,,,,,,,,,,,,,,,,,,,,,,,,,,6.0,Frustration,2.0,66.0,2.914452699944377,34,29,Female,0.42857142857142855,1.0,0.0,0.5,2.4444444444444446,2.625,2.5555555555555554,2.7777777777777777,2.5,3.111111111111111,2.25,1.75,1.0,0.25,,,,,,,,,,,,,,,,,,,,,,,,,,,,,,,,,,,,,,0.5093540731865881
6,240703_152124,DEMANDRATING,9.0,-1,,,,,,,,,,,,,,,,,,,,,,,,,,,,,,,,,,,,,,,7.0,MentalDemand,3.0,77.0,4.24950319994241,34,29,Female,0.42857142857142855,1.0,0.0,0.5,2.4444444444444446,2.625,2.5555555555555554,2.7777777777777777,2.5,3.111111111111111,2.25,1.75,1.0,0.25,,,,,,,,,,,,,,,,,,,,,,,,,,,,,,,,,,,,,,0.9595866914497331
7,240703_152127,DEMANDRATING,9.0,-1,,,,,,,,,,,,,,,,,,,,,,,,,,,,,,,,,,,,,,,8.0,Effort,3.0,64.0,1.9890284000430256,34,29,Female,0.42857142857142855,1.0,0.0,0.5,2.4444444444444446,2.625,2.5555555555555554,2.7777777777777777,2.5,3.111111111111111,2.25,1.75,1.0,0.25,,,,,,,,,,,,,,,,,,,,,,,,,,,,,,,,,,,,,,0.42749359713874363
8,240703_152131,DEMANDRATING,9.0,-1,,,,,,,,,,,,,,,,,,,,,,,,,,,,,,,,,,,,,,,9.0,Frustration,3.0,68.0,2.04420610005036,34,29,Female,0.42857142857142855,1.0,0.0,0.5,2.4444444444444446,2.625,2.5555555555555554,2.7777777777777777,2.5,3.111111111111111,2.25,1.75,1.0,0.25,,,,,,,,,,,,,,,,,,,,,,,,,,,,,,,,,,,,,,0.5912145492344327
