,END,Phase,Block,TrialN,NbackLevel,ISI,Letter_Resp,Letter_RT,Letter_Accuracy,Trial_A_measure,Trial_ACC,Trial_RT,TrialCountCali,CaliEnd_A_measure,ISI_calibrated,TrialIndex,TrialNumber_total,TrialNumber_valid,CueLearning,TrialDemandLearning,CueMapping,OfflineRatingTimePoint,CueFigure,TrialDemand,OfflineRating,OfflineRatingRT,PhaseType,CueLeft,CueDemandLeft,CueRight,CueDemandRight,Choice,ChoiceDemand,TaskDemand,ChoiceRT,CueCheck,CueDemandCheck,CorrectAnswer,Answer,AnswerDemand,AnswerRT,AnswerACC,DemandRatingQuesIndex,QuesTLX,DemandLevel,DemandRating,DemandRatingRT,PID,Age,Gender,BAI_bis,BAI_bas_d,BAI_bas_rr,BAI_bas_fs,NFC,BFI_ext,BFI_agr,BFI_con,BFI_neu,BFI_open,UPPS_lps,UPPS_lpm,UPPS_pu,UPPS_ss,Task_A_measure,Task_ACC,Task_RT,Task_RT_z,cue_i_on_zyg_values,cue_i_on_zyg_zvalues,cue_e_on_zyg_values,cue_e_on_zyg_zvalues,cue_i_on_cor_values,cue_i_on_cor_zvalues,cue_e_on_cor_values,cue_e_on_cor_zvalues,cue_i_on_scr_values,cue_i_on_scr_zvalues,cue_e_on_scr_values,cue_e_on_scr_zvalues,cue_e_true_zyg_values,cue_e_true_zyg_zvalues,cue_e_true_cor_values,cue_e_true_cor_zvalues,cue_e_true_scr_values,cue_e_true_scr_zvalues,cue_e_false_zyg_values,cue_e_false_zyg_zvalues,cue_e_false_cor_values,cue_e_false_cor_zvalues,cue_e_false_scr_values,cue_e_false_scr_zvalues,OfflineRating_z,cue_i_off_zyg_values,cue_i_off_zyg_zvalues,cue_i_off_cor_values,cue_i_off_cor_zvalues,cue_i_off_scr_values,cue_i_off_scr_zvalues,DemandRating_z
0,240708_092225,PRACTICE,0.0,1,3.0,1068.0,,,,,,,,,,46.0,1.0,1.0,cue1.png,Hard,B,,,,,,,,,,,,,,,,,,,,,,,,,,,36,28,Female,1.4285714285714286,0.75,0.6,0.25,2.7777777777777777,3.375,2.4444444444444446,3.0,2.75,3.6666666666666665,2.0,2.0,2.0,1.0,,,,,,,,,,,,,,,,,,,,,,,,,,,,,,,,,,,,
0,240708_092607,LEARNING,1.0,1,1.0,1068.0,,,,,,,,,,1.0,1.0,1.0,cue2.png,Easy,B,,,,,,,,,,,,,,,,,,,,,,,,,,,36,28,Female,1.4285714285714286,0.75,0.6,0.25,2.7777777777777777,3.375,2.4444444444444446,3.0,2.75,3.6666666666666665,2.0,2.0,2.0,1.0,0.84375,0.875,0.4920307000336999,0.47328198565335117,,,0.006883780894407329,0.04810913389504793,,,,,,,,,,,,,,,,,,,,,,,,,,,,
1,240708_092628,LEARNING,1.0,2,3.0,1068.0,,,,,,,,,,2.0,2.0,2.0,cue1.png,Hard,B,,,,,,,,,,,,,,,,,,,,,,,,,,,36,28,Female,1.4285714285714286,0.75,0.6,0.25,2.7777777777777777,3.375,2.4444444444444446,3.0,2.75,3.6666666666666665,2.0,2.0,2.0,1.0,0.5833333333333334,0.75,0.413329290988093,-1.5948960338703326,0.005929420144332773,-0.3241321095727736,0.0057849353752903905,-0.3290908536358569,,,,,3.0441270152016873e+43,-0.1763918195004497,2.7637906404259454e+44,-0.17363476374825687,,,,,,,,,,,,,,,,,,,,
2,240708_092651,LEARNING,1.0,3,1.0,1068.0,,,,,,,,,,3.0,3.0,3.0,cue2.png,Easy,B,,,,,,,,,,,,,,,,,,,,,,,,,,,36,28,Female,1.4285714285714286,0.75,0.6,0.25,2.7777777777777777,3.375,2.4444444444444446,3.0,2.75,3.6666666666666665,2.0,2.0,2.0,1.0,0.84375,0.875,0.5553690454583954,2.137737239871773,0.0052911713815810835,-0.6099066930842421,0.006463430086601192,-0.09618441483826323,,,,,-1.6320421295304804e+43,-0.17697396862778308,-4.473356987758267e+44,-0.17477135886326098,,,,,,,,,,,,,,,,,,,,
3,240708_092713,LEARNING,1.0,4,3.0,1068.0,,,,,,,,,,4.0,4.0,4.0,cue1.png,Hard,B,,,,,,,,,,,,,,,,,,,,,,,,,,,36,28,Female,1.4285714285714286,0.75,0.6,0.25,2.7777777777777777,3.375,2.4444444444444446,3.0,2.75,3.6666666666666665,2.0,2.0,2.0,1.0,0.15625,0.625,0.4303837546401403,-1.1467253176447807,0.009445259717394067,1.2500778980627978,0.006292985659682388,-0.15469276254500164,,,,,-2.365862265809e+43,-0.17706532391000926,-4.706729218727067e+44,-0.1748080100069607,,,,,,,,,,,,,,,,,,,,
4,240708_092735,LEARNING,1.0,5,3.0,1068.0,,,,,,,,,,5.0,5.0,5.0,cue1.png,Hard,B,,,,,,,,,,,,,,,,,,,,,,,,,,,36,28,Female,1.4285714285714286,0.75,0.6,0.25,2.7777777777777777,3.375,2.4444444444444446,3.0,2.75,3.6666666666666665,2.0,2.0,2.0,1.0,0.84375,0.875,0.4753043636764315,0.03373405861158727,0.008358641011518517,0.7635465857754489,0.005155716556957217,-0.5450823886609235,,,,,4.6859156906360445e+47,5.656854224530908,3.768625091181916e+48,5.744562512130414,,,,,,,,,,,,,,,,,,,,
5,240708_092756,LEARNING,1.0,6,1.0,1068.0,,,,,,,,,,6.0,6.0,6.0,cue2.png,Easy,B,,,,,,,,,,,,,,,,,,,,,,,,,,,36,28,Female,1.4285714285714286,0.75,0.6,0.25,2.7777777777777777,3.375,2.4444444444444446,3.0,2.75,3.6666666666666665,2.0,2.0,2.0,1.0,1.0,1.0,0.4332245272076265,-1.0720732440188028,0.005356937830643713,-0.580459899472183,,,0.01719553176241328,0.8844779803203977,0.01590819730378719,0.17475633977927282,-3.573961215012229e+42,-0.17681528444886088,,,,,,,,,,,,,,,,,,,,,,
6,240708_092818,LEARNING,1.0,7,3.0,1068.0,,,,,,,,,,7.0,7.0,7.0,cue1.png,Hard,B,,,,,,,,,,,,,,,,,,,,,,,,,,,36,28,Female,1.4285714285714286,0.75,0.6,0.25,2.7777777777777777,3.375,2.4444444444444446,3.0,2.75,3.6666666666666665,2.0,2.0,2.0,1.0,0.84375,0.875,0.447835754476149,-0.688107830419768,0.006009249529787727,-0.28838866483500203,0.005055383323347091,-0.5795237125852258,0.01595553352197819,0.3399345035444685,0.014973178200985964,-0.16037878330462585,,,,,,,,,,,,,,,,,,,,,,,,
7,240708_092840,LEARNING,1.0,8,3.0,1068.0,,,,,,,,,,8.0,8.0,8.0,cue1.png,Hard,B,,,,,,,,,,,,,,,,,,,,,,,,,,,36,28,Female,1.4285714285714286,0.75,0.6,0.25,2.7777777777777777,3.375,2.4444444444444446,3.0,2.75,3.6666666666666665,2.0,2.0,2.0,1.0,1.0,1.0,0.4908801364627751,0.4430465639968925,0.00724363773085771,0.26430613794283797,0.006150509277815221,-0.2036005375950673,0.01671216518696548,0.6722082310832832,0.011447955203791382,-1.42391023364993,,,,,,,,,,,,,,,,,,,,,,,,
8,240708_092903,LEARNING,1.0,9,1.0,1068.0,,,,,,,,,,9.0,9.0,9.0,cue2.png,Easy,B,,,,,,,,,,,,,,,,,,,,,,,,,,,36,28,Female,1.4285714285714286,0.75,0.6,0.25,2.7777777777777777,3.375,2.4444444444444446,3.0,2.75,3.6666666666666665,2.0,2.0,2.0,1.0,1.0,1.0,0.491175272798335,0.45080239059986993,0.0063245097819678055,-0.1472315290560592,0.007943718758932924,0.41195331610901814,0.013316210064120995,-0.819120667028624,0.012543413972832824,-1.0312693685636825,,,,,,,,,,,,,,,,,,,,,,,,
9,240708_092924,LEARNING,1.0,10,1.0,1068.0,,,,,,,,,,10.0,10.0,10.0,cue2.png,Easy,B,,,,,,,,,,,,,,,,,,,,,,,,,,,36,28,Female,1.4285714285714286,0.75,0.6,0.25,2.7777777777777777,3.375,2.4444444444444446,3.0,2.75,3.6666666666666665,2.0,2.0,2.0,1.0,0.5833333333333334,0.75,0.4592240272005173,-0.38883777141445997,0.0054428579008680925,-0.5419893630346514,0.006745457169030816,0.000626838540939484,0.018297213005632917,1.368279743031895,0.018207361020096107,0.998836310709054,,,2.2349571792851693e+44,-0.1737178171222467,,,,,,,,,,,,,,,,,,,,
10,240708_092946,LEARNING,1.0,11,3.0,1068.0,,,,,,,,,,11.0,11.0,11.0,cue1.png,Hard,B,,,,,,,,,,,,,,,,,,,,,,,,,,,36,28,Female,1.4285714285714286,0.75,0.6,0.25,2.7777777777777777,3.375,2.4444444444444446,3.0,2.75,3.6666666666666665,2.0,2.0,2.0,1.0,0.84375,0.875,0.4656675091351975,-0.21951084489423667,0.006145596383954874,-0.22733963859838652,0.006812702675061818,0.02371015971313432,0.015026267910311954,-0.06815117797028122,0.012703371677457683,-0.9739363741178284,,,2.118636035620379e+44,-0.17373608537521787,,,,,,,,,,,,,,,,,,,,
11,240708_093008,LEARNING,1.0,12,1.0,1068.0,,,,,,,,,,12.0,12.0,12.0,cue2.png,Easy,B,,,,,,,,,,,,,,,,,,,,,,,,,,,36,28,Female,1.4285714285714286,0.75,0.6,0.25,2.7777777777777777,3.375,2.4444444444444446,3.0,2.75,3.6666666666666665,2.0,2.0,2.0,1.0,1.0,1.0,0.4388062545437027,-0.9253921880194418,,,0.005141991786062543,-0.5497936818502482,0.01574185062228831,0.24609595980277565,0.014072314109491776,-0.4832718635425305,1.5588840382614182e+42,-0.17675138424994918,1.2618552864587433e+44,-0.17387064291973087,,,,,,,,,,,,,,,,,,,,
12,240708_093030,LEARNING,1.0,13,1.0,1068.0,,,,,,,,,,13.0,13.0,13.0,cue2.png,Easy,B,,,,,,,,,,,,,,,,,,,,,,,,,,,36,28,Female,1.4285714285714286,0.75,0.6,0.25,2.7777777777777777,3.375,2.4444444444444446,3.0,2.75,3.6666666666666665,2.0,2.0,2.0,1.0,0.84375,0.875,0.5058372000401671,0.8361001382912787,0.006258745775988683,-0.17667722878245454,0.006005547361509518,-0.2533615204372317,0.012073329644577352,-1.36492984869129,0.015338723806122799,-0.029357747474136383,-3.7678663085968934e+42,-0.17681769842657474,-1.6326211480214047e+43,-0.1740944578202688,,,,,,,,,,,,,,,,,,,,
13,240708_093053,LEARNING,1.0,14,1.0,1068.0,,,,,,,,,,14.0,14.0,14.0,cue2.png,Easy,B,,,,,,,,,,,,,,,,,,,,,,,,,,,36,28,Female,1.4285714285714286,0.75,0.6,0.25,2.7777777777777777,3.375,2.4444444444444446,3.0,2.75,3.6666666666666665,2.0,2.0,2.0,1.0,0.15625,0.625,0.4960760998708958,0.5795902096728831,0.005690815809079261,-0.4309667146836827,0.008277566527744968,0.5265530228396983,0.01448086121436894,-0.3076657585405494,0.0216677861367452,2.2391425182682707,,,,,,,,,,,,,,,,,,,,,,,,
14,240708_093114,LEARNING,1.0,15,3.0,1068.0,,,,,,,,,,15.0,15.0,15.0,cue1.png,Hard,B,,,,,,,,,,,,,,,,,,,,,,,,,,,36,28,Female,1.4285714285714286,0.75,0.6,0.25,2.7777777777777777,3.375,2.4444444444444446,3.0,2.75,3.6666666666666665,2.0,2.0,2.0,1.0,0.5833333333333334,0.75,0.4253370000303469,-1.2793479362291058,,,,,,,,,,,,,,,,,,,,,,,,,,,,,,,,
15,240708_093137,LEARNING,1.0,16,1.0,1068.0,,,,,,,,,,16.0,16.0,16.0,cue2.png,Easy,B,,,,,,,,,,,,,,,,,,,,,,,,,,,36,28,Female,1.4285714285714286,0.75,0.6,0.25,2.7777777777777777,3.375,2.4444444444444446,3.0,2.75,3.6666666666666665,2.0,2.0,2.0,1.0,0.5833333333333334,0.5681818181818181,0.3593608666625287,-3.0131210731930533,0.0072595519178328335,0.27143168274629714,0.007832180119820408,0.37366551991700603,0.012724245994522602,-1.0790808525143967,0.014427787008207238,-0.3558611472190985,,,,,,,,,,,,,,,,,,,,,,,,
16,240708_093200,LEARNING,1.0,17,1.0,1068.0,,,,,,,,,,17.0,17.0,17.0,cue2.png,Easy,B,,,,,,,,,,,,,,,,,,,,,,,,,,,36,28,Female,1.4285714285714286,0.75,0.6,0.25,2.7777777777777777,3.375,2.4444444444444446,3.0,2.75,3.6666666666666665,2.0,2.0,2.0,1.0,1.0,1.0,0.501704363618046,0.7274941863754185,0.006231726644743694,-0.18877498976375126,0.006456552876761565,-0.09854515019243701,0.012973688059714382,-0.9695387217239213,0.013339089243765772,-0.7460786927154088,,,,,,,,,,,,,,,,,,,,,,,,
17,240708_093222,LEARNING,1.0,18,3.0,1068.0,,,,,,,,,,18.0,18.0,18.0,cue1.png,Hard,B,,,,,,,,,,,,,,,,,,,,,,,,,,,36,28,Female,1.4285714285714286,0.75,0.6,0.25,2.7777777777777777,3.375,2.4444444444444446,3.0,2.75,3.6666666666666665,2.0,2.0,2.0,1.0,0.84375,0.875,0.506525554524904,0.8541892631524163,0.005020965314999733,-0.730890909029521,,,0.014964047726612906,-0.09547508380520234,,,,,,,,,,,,,,,,,,,,,,,,,,
18,240708_093245,LEARNING,1.0,19,3.0,1068.0,,,,,,,,,,19.0,19.0,19.0,cue1.png,Hard,B,,,,,,,,,,,,,,,,,,,,,,,,,,,36,28,Female,1.4285714285714286,0.75,0.6,0.25,2.7777777777777777,3.375,2.4444444444444446,3.0,2.75,3.6666666666666665,2.0,2.0,2.0,1.0,0.5833333333333334,0.75,0.5263176726346667,1.3743022335657802,0.00841316223414535,0.7879583521556074,0.006516523670964834,-0.0779590146236537,0.020952509147827193,2.534349295382905,0.01978366291307629,1.5638238359249974,,,,,,,,,,,,,,,,,,,,,,,,
19,240708_093307,LEARNING,1.0,20,3.0,1068.0,,,,,,,,,,20.0,20.0,20.0,cue1.png,Hard,B,,,,,,,,,,,,,,,,,,,,,,,,,,,36,28,Female,1.4285714285714286,0.75,0.6,0.25,2.7777777777777777,3.375,2.4444444444444446,3.0,2.75,3.6666666666666665,2.0,2.0,2.0,1.0,0.5833333333333334,0.75,0.4972985727204518,0.6117153203611948,,,0.005778152616367284,-0.3314191668852723,0.016483685682122665,0.5718717790771148,0.015052275981173643,-0.13202808520718148,2.808094173576252e+42,-0.1767358324902155,7.235409459467722e+43,-0.1739551852672408,,,,,,,,,,,,,,,,,,,,
20,240708_093329,LEARNING,1.0,21,1.0,1068.0,,,,,,,,,,21.0,21.0,21.0,cue2.png,Easy,B,,,,,,,,,,,,,,,,,,,,,,,,,,,36,28,Female,1.4285714285714286,0.75,0.6,0.25,2.7777777777777777,3.375,2.4444444444444446,3.0,2.75,3.6666666666666665,2.0,2.0,2.0,1.0,1.0,1.0,0.4700217818502675,-0.1050858145227867,0.0156885182839859,4.045484204735606,0.005462077909782346,-0.43991792609073754,,,,,1.332614392453537e+42,-0.17675420114285387,5.081471107449578e+43,-0.17398901290120242,,,,,,,,,,,,,,,,,,,,
21,240708_093351,LEARNING,1.0,22,3.0,1068.0,,,,,,,,,,22.0,22.0,22.0,cue1.png,Hard,B,,,,,,,,,,,,,,,,,,,,,,,,,,,36,28,Female,1.4285714285714286,0.75,0.6,0.25,2.7777777777777777,3.375,2.4444444444444446,3.0,2.75,3.6666666666666665,2.0,2.0,2.0,1.0,0.84375,0.875,0.4449889272112738,-0.7629190141837544,,,0.006098335067881156,-0.22151034474646683,0.013595342201377252,-0.696540183004643,0.018153346009604467,0.9794759285144432,,,8.514604868659093e+42,-0.17405544528112302,,,,,,,,,,,,,,,,,,,,
22,240708_093412,LEARNING,1.0,23,3.0,1068.0,,,,,,,,,,23.0,23.0,23.0,cue1.png,Hard,B,,,,,,,,,,,,,,,,,,,,,,,,,,,36,28,Female,1.4285714285714286,0.75,0.6,0.25,2.7777777777777777,3.375,2.4444444444444446,3.0,2.75,3.6666666666666665,2.0,2.0,2.0,1.0,1.0,1.0,0.4168760181743313,-1.5016923251085956,0.0045658274068764056,-0.934677980348651,0.006122618366042051,-0.21317463276134674,0.013945992652287865,-0.5425525325020788,0.014169360224351264,-0.4484880162919113,-1.8082962927346278e+42,-0.17679330320177905,-2.8854755598984893e+43,-0.17411413391750366,,,,,,,,,,,,,,,,,,,,
23,240708_093435,LEARNING,1.0,24,3.0,1068.0,,,,,,,,,,24.0,24.0,24.0,cue1.png,Hard,B,,,,,,,,,,,,,,,,,,,,,,,,,,,36,28,Female,1.4285714285714286,0.75,0.6,0.25,2.7777777777777777,3.375,2.4444444444444446,3.0,2.75,3.6666666666666665,2.0,2.0,2.0,1.0,0.84375,0.875,0.510533354583789,0.9595094103892768,0.004949728216127412,-0.7627871749510317,0.011965526383579315,1.792516606832029,0.01662827145753043,0.6353664182350399,0.020373738179238248,1.7753221319079333,-2.6093566145273867e+42,-0.17680327582152056,-5.404111897301249e+43,-0.1741536891387681,,,,,,,,,,,,,,,,,,,,
24,240708_093456,LEARNING,1.0,25,1.0,1068.0,,,,,,,,,,25.0,25.0,25.0,cue2.png,Easy,B,,,,,,,,,,,,,,,,,,,,,,,,,,,36,28,Female,1.4285714285714286,0.75,0.6,0.25,2.7777777777777777,3.375,2.4444444444444446,3.0,2.75,3.6666666666666665,2.0,2.0,2.0,1.0,1.0,1.0,0.4575745363465764,-0.4321843997518129,0.00496722837656333,-0.7549515137608759,0.006058585689391452,-0.23515508807920285,0.01711596871447882,0.8495379801394953,0.02056673875829771,1.8444985504694127,-2.6185799672064777e+42,-0.17680339064556877,-6.127162219728002e+43,-0.1741650446548719,,,,,,,,,,,,,,,,,,,,
25,240708_093519,LEARNING,1.0,26,1.0,1068.0,,,,,,,,,,26.0,26.0,26.0,cue2.png,Easy,B,,,,,,,,,,,,,,,,,,,,,,,,,,,36,28,Female,1.4285714285714286,0.75,0.6,0.25,2.7777777777777777,3.375,2.4444444444444446,3.0,2.75,3.6666666666666665,2.0,2.0,2.0,1.0,0.84375,0.875,0.4910414635457776,0.447286044980343,0.007419084209437151,0.34286194137037984,0.005639313119105107,-0.3790785109195244,0.018906702426503687,1.6359361617883141,,,-1.9226715013484745e+42,-0.17679472709013344,-5.191714237964346e+43,-0.17415035343035865,,,,,,,,,,,,,,,,,,,,
26,240708_093542,LEARNING,1.0,27,3.0,1068.0,,,,,,,,,,27.0,27.0,27.0,cue1.png,Hard,B,,,,,,,,,,,,,,,,,,,,,,,,,,,36,28,Female,1.4285714285714286,0.75,0.6,0.25,2.7777777777777777,3.375,2.4444444444444446,3.0,2.75,3.6666666666666665,2.0,2.0,2.0,1.0,0.84375,0.875,0.5565210727297447,2.1680111258083747,,,0.005623531061999539,-0.3844960074100375,,,0.018991407946441496,1.2798590859412462,5.808273228195065e+42,-0.17669848243797334,1.4204936281770427e+43,-0.17404650860714707,,,,,,,,,,,,,,,,,,,,
27,240708_093604,LEARNING,1.0,28,1.0,1068.0,,,,,,,,,,28.0,28.0,28.0,cue2.png,Easy,B,,,,,,,,,,,,,,,,,,,,,,,,,,,36,28,Female,1.4285714285714286,0.75,0.6,0.25,2.7777777777777777,3.375,2.4444444444444446,3.0,2.75,3.6666666666666665,2.0,2.0,2.0,1.0,0.84375,0.875,0.4931040090424093,0.501487250678316,0.005583001858846802,-0.4792401913005017,0.004927143525540443,-0.623544504673004,0.015258760917372452,0.03394779786890416,0.015854451395075915,0.15549241064964742,5.6528398905751804e+41,-0.17676375384958642,3.390269280927796e+42,-0.1740634930578106,,,,,,,,,,,,,,,,,,,,
28,240708_093626,LEARNING,1.0,29,1.0,1068.0,,,,,,,,,,29.0,29.0,29.0,cue2.png,Easy,B,,,,,,,,,,,,,,,,,,,,,,,,,,,36,28,Female,1.4285714285714286,0.75,0.6,0.25,2.7777777777777777,3.375,2.4444444444444446,3.0,2.75,3.6666666666666665,2.0,2.0,2.0,1.0,1.0,1.0,0.4603456454774873,-0.359362997139693,0.011600097859073505,2.214902286939278,0.004986677334007143,-0.6031083729141441,0.016322140894267076,0.5009296135438424,0.016773059369351834,0.48474535917497635,1.5830644831139663e+42,-0.1767510832209566,2.943574768940831e+43,-0.17402258859510245,,,,,,,,,,,,,,,,,,,,
29,240708_093648,LEARNING,1.0,30,3.0,1068.0,,,,,,,,,,30.0,30.0,30.0,cue1.png,Hard,B,,,,,,,,,,,,,,,,,,,,,,,,,,,36,28,Female,1.4285714285714286,0.75,0.6,0.25,2.7777777777777777,3.375,2.4444444444444446,3.0,2.75,3.6666666666666665,2.0,2.0,2.0,1.0,0.84375,0.875,0.4891690727407959,0.3980818750197093,0.008523014499200078,0.8371444800823754,0.0061660701301826295,-0.19825897391132602,0.014972768180505875,-0.09164550878880949,0.013678897770824044,-0.624282493900375,2.1726664429303715e+42,-0.17674374310438343,4.599184549228477e+43,-0.17399658721879643,,,,,,,,,,,,,,,,,,,,
30,240708_093710,LEARNING,1.0,31,3.0,1068.0,,,,,,,,,,31.0,31.0,31.0,cue1.png,Hard,B,,,,,,,,,,,,,,,,,,,,,,,,,,,36,28,Female,1.4285714285714286,0.75,0.6,0.25,2.7777777777777777,3.375,2.4444444444444446,3.0,2.75,3.6666666666666665,2.0,2.0,2.0,1.0,0.84375,0.875,0.4845106362534517,0.2756637879065637,0.007183411456863705,0.23733994643330503,0.0054101911864300484,-0.4577290479099669,0.013959576249082723,-0.5365873151456423,0.016466283465164766,0.37478891004907666,,,,,,,,,,,,,,,,,,,,,,,,
31,240708_093732,LEARNING,1.0,32,1.0,1068.0,,,,,,,,,,32.0,32.0,32.0,cue2.png,Easy,B,,,,,,,,,,,,,,,,,,,,,,,,,,,36,28,Female,1.4285714285714286,0.75,0.6,0.25,2.7777777777777777,3.375,2.4444444444444446,3.0,2.75,3.6666666666666665,2.0,2.0,2.0,1.0,0.15625,0.625,0.5030274000018835,0.7622619853419794,0.005598804316284051,-0.47216467317005056,,,0.011040049833661043,-1.8186932189693923,0.01742183218252964,0.717282380019195,1.7335377761040484e+42,-0.17674920993764517,4.4385368416483104e+43,-0.1739991101934413,,,,,,,,,,,,,,,,,,,,
32,240708_093754,LEARNING,1.0,33,1.0,1068.0,,,,,,,,,,33.0,33.0,33.0,cue2.png,Easy,B,,,,,,,,,,,,,,,,,,,,,,,,,,,36,28,Female,1.4285714285714286,0.75,0.6,0.25,2.7777777777777777,3.375,2.4444444444444446,3.0,2.75,3.6666666666666665,2.0,2.0,2.0,1.0,1.0,1.0,0.4729059908793054,-0.029292283124749817,0.0061554835187789154,-0.22291269411943335,0.004728118094781824,-0.6918638350014512,0.01832537747674854,1.3806481307624092,0.012594140497107068,-1.0130876652109533,,,2.4258610357627284e+43,-0.17403071929700784,,,,,,,,,,,,,,,,,,,,
33,240708_093818,LEARNING,1.0,34,1.0,1068.0,,,,,,,,,,34.0,34.0,34.0,cue2.png,Easy,B,,,,,,,,,,,,,,,,,,,,,,,,,,,36,28,Female,1.4285714285714286,0.75,0.6,0.25,2.7777777777777777,3.375,2.4444444444444446,3.0,2.75,3.6666666666666665,2.0,2.0,2.0,1.0,0.9166666666666666,0.9090909090909092,0.5118146700318903,0.9931808335311874,0.005956630249683894,-0.3119488403244394,0.00948386182192338,0.9406372248559633,0.013837335976907807,-0.5902689581041098,0.015221929554275255,-0.07121983975776305,-3.975177512247051e+41,-0.1767757400326254,-1.450112361480886e+42,-0.17407109488440325,,,,,,,,,,,,,,,,,,,,
34,240708_093840,LEARNING,1.0,35,3.0,1068.0,,,,,,,,,,35.0,35.0,35.0,cue1.png,Hard,B,,,,,,,,,,,,,,,,,,,,,,,,,,,36,28,Female,1.4285714285714286,0.75,0.6,0.25,2.7777777777777777,3.375,2.4444444444444446,3.0,2.75,3.6666666666666665,2.0,2.0,2.0,1.0,0.84375,0.875,0.5037865818647499,0.7822123681958801,0.008511650928543418,0.8320564644666313,0.022436283086121823,5.386806458250042,0.014732492232426973,-0.1971623521890136,0.015188469577793916,-0.08321276407648844,-1.3633006768555534e+42,-0.17678776332925877,-2.6278534586004856e+43,-0.17411008795855829,,,,,,,,,,,,,,,,,,,,
35,240708_093903,LEARNING,1.0,36,3.0,1068.0,,,,,,,,,,36.0,36.0,36.0,cue1.png,Hard,B,,,,,,,,,,,,,,,,,,,,,,,,,,,36,28,Female,1.4285714285714286,0.75,0.6,0.25,2.7777777777777777,3.375,2.4444444444444446,3.0,2.75,3.6666666666666665,2.0,2.0,2.0,1.0,0.84375,0.875,0.4868852272629738,0.3380651729746023,0.009144059923308157,1.1152163037566156,0.006161378146383653,-0.19986958814206107,,,0.016962823773952404,0.5527618487870339,-1.957663675833794e+42,-0.1767951627173148,-4.2778632272042875e+43,-0.17413600138659727,,,,,,,,,,,,,,,,,,,,
36,240708_093924,LEARNING,1.0,37,1.0,1068.0,,,,,,,,,,37.0,37.0,37.0,cue2.png,Easy,B,,,,,,,,,,,,,,,,,,,,,,,,,,,36,28,Female,1.4285714285714286,0.75,0.6,0.25,2.7777777777777777,3.375,2.4444444444444446,3.0,2.75,3.6666666666666665,2.0,2.0,2.0,1.0,1.0,1.0,0.4306292908943512,-1.1402729213012677,,,0.00738543971200775,0.2203132303322923,,,0.01977456718054452,1.5605636892259191,-2.0425724601252247e+42,-0.17679621977006776,-4.764099327826469e+43,-0.17414363773181363,,,,,,,,,,,,,,,,,,,,
37,240708_093946,LEARNING,1.0,38,3.0,1068.0,,,,,,,,,,38.0,38.0,38.0,cue1.png,Hard,B,,,,,,,,,,,,,,,,,,,,,,,,,,,36,28,Female,1.4285714285714286,0.75,0.6,0.25,2.7777777777777777,3.375,2.4444444444444446,3.0,2.75,3.6666666666666665,2.0,2.0,2.0,1.0,0.84375,0.875,0.4833098544569855,0.24410869190750165,0.005543297782492938,-0.49701761061709404,,,0.012108655361187135,-1.349416610111578,,,-1.421188880845416e+42,-0.17678848399539365,-3.3232701470745633e+43,-0.17412100948802847,,,,,,,,,,,,,,,,,,,,
38,240708_094008,LEARNING,1.0,39,3.0,1068.0,,,,,,,,,,39.0,39.0,39.0,cue1.png,Hard,B,,,,,,,,,,,,,,,,,,,,,,,,,,,36,28,Female,1.4285714285714286,0.75,0.6,0.25,2.7777777777777777,3.375,2.4444444444444446,3.0,2.75,3.6666666666666665,2.0,2.0,2.0,1.0,0.5833333333333334,0.75,0.4912798545238646,0.45355067209326455,0.005456588309497567,-0.5358416005374493,,,0.015538497997713816,0.1567939417947093,0.014735246764647075,-0.24565958769040966,-3.1271139373083425e+41,-0.17677468425501175,-1.0866263373980207e+43,-0.1740858829636201,,,,,,,,,,,,,,,,,,,,
39,240708_094030,LEARNING,1.0,40,3.0,1068.0,,,,,,,,,,40.0,40.0,40.0,cue1.png,Hard,B,,,,,,,,,,,,,,,,,,,,,,,,,,,36,28,Female,1.4285714285714286,0.75,0.6,0.25,2.7777777777777777,3.375,2.4444444444444446,3.0,2.75,3.6666666666666665,2.0,2.0,2.0,1.0,0.84375,0.875,0.424070127223703,-1.3126398241890131,0.0040669627061703535,-1.1580436339822164,0.005801133856608895,-0.3235304114762805,0.016294372041885875,0.4887349612220527,0.01757601235744805,0.7725445578116877,9.681458339111724e+41,-0.1767587385119423,1.9800451993641137e+43,-0.1740377208413714,,,,,,,,,,,,,,,,,,,,
40,240708_094052,LEARNING,1.0,41,1.0,1068.0,,,,,,,,,,41.0,41.0,41.0,cue2.png,Easy,B,,,,,,,,,,,,,,,,,,,,,,,,,,,36,28,Female,1.4285714285714286,0.75,0.6,0.25,2.7777777777777777,3.375,2.4444444444444446,3.0,2.75,3.6666666666666665,2.0,2.0,2.0,1.0,1.0,1.0,0.4751647181216288,0.030064342014776313,0.009819577009955217,1.417677703382624,,,0.012933643852558257,-0.9871240787659449,,,1.81424636761092e+42,-0.1767482051742446,3.7690798099848757e+43,-0.17400962402611386,,,,,,,,,,,,,,,,,,,,
41,240708_094114,LEARNING,1.0,42,3.0,1068.0,,,,,,,,,,42.0,42.0,42.0,cue1.png,Hard,B,,,,,,,,,,,,,,,,,,,,,,,,,,,36,28,Female,1.4285714285714286,0.75,0.6,0.25,2.7777777777777777,3.375,2.4444444444444446,3.0,2.75,3.6666666666666665,2.0,2.0,2.0,1.0,0.84375,0.875,0.4840796364217319,0.26433763264211696,0.005030807179420435,-0.7264842342814548,,,0.01314663524586417,-0.8935892090765689,,,,,,,,,,,,,,,,,,,,,,,,,,
42,240708_094137,LEARNING,1.0,43,3.0,1068.0,,,,,,,,,,43.0,43.0,43.0,cue1.png,Hard,B,,,,,,,,,,,,,,,,,,,,,,,,,,,36,28,Female,1.4285714285714286,0.75,0.6,0.25,2.7777777777777777,3.375,2.4444444444444446,3.0,2.75,3.6666666666666665,2.0,2.0,2.0,1.0,0.84375,0.875,0.5486761817962609,1.961856862613546,0.005036033659559723,-0.7241440884445922,,,0.011535351811795522,-1.6011820544916842,0.013183675551054333,-0.8017829953117205,1.6179300256813645e+42,-0.1767506491702507,,,,,,,,,,,,,,,,,,,,,,
43,240708_094159,LEARNING,1.0,44,1.0,1068.0,,,,,,,,,,44.0,44.0,44.0,cue2.png,Easy,B,,,,,,,,,,,,,,,,,,,,,,,,,,,36,28,Female,1.4285714285714286,0.75,0.6,0.25,2.7777777777777777,3.375,2.4444444444444446,3.0,2.75,3.6666666666666665,2.0,2.0,2.0,1.0,0.84375,0.875,0.489363454493948,0.40318999283031576,0.005520720388932676,-0.5071265925971633,0.00479792772628873,-0.6679003281428134,0.02003101847419999,2.1296779669320816,0.013036857893747648,-0.8544062556333075,2.9908053568765577e+41,-0.1767670678894185,1.2884755494756895e+43,-0.17404858195304315,,,,,,,,,,,,,,,,,,,,
44,240708_094221,LEARNING,1.0,45,1.0,1068.0,,,,,,,,,,45.0,45.0,45.0,cue2.png,Easy,B,,,,,,,,,,,,,,,,,,,,,,,,,,,36,28,Female,1.4285714285714286,0.75,0.6,0.25,2.7777777777777777,3.375,2.4444444444444446,3.0,2.75,3.6666666666666665,2.0,2.0,2.0,1.0,0.84375,0.875,0.4843659182502465,0.2718607734893134,,,,,0.011227010653788254,-1.7365896387439652,0.01021670195297777,-1.8652233667427762,-1.2494778403141131e+42,-0.1767863463175359,-2.5250495670168294e+43,-0.17410847342190683,,,,,,,,,,,,,,,,,,,,
45,240708_094243,LEARNING,1.0,46,1.0,1068.0,,,,,,,,,,46.0,46.0,46.0,cue2.png,Easy,B,,,,,,,,,,,,,,,,,,,,,,,,,,,36,28,Female,1.4285714285714286,0.75,0.6,0.25,2.7777777777777777,3.375,2.4444444444444446,3.0,2.75,3.6666666666666665,2.0,2.0,2.0,1.0,1.0,1.0,0.4433545273813334,-0.8058690686286141,0.00470040255707023,-0.8744222309574132,0.005465712144005318,-0.43867040486983727,0.015069034896644459,-0.049370116296710266,0.015675684906126697,0.09141785955461047,-2.2570701825256673e+42,-0.17679889011106795,-5.05211379526988e+43,-0.17414816100332287,,,,,,,,,,,,,,,,,,,,
46,240708_094304,LEARNING,1.0,47,3.0,1068.0,,,,,,,,,,47.0,47.0,47.0,cue1.png,Hard,B,,,,,,,,,,,,,,,,,,,,,,,,,,,36,28,Female,1.4285714285714286,0.75,0.6,0.25,2.7777777777777777,3.375,2.4444444444444446,3.0,2.75,3.6666666666666665,2.0,2.0,2.0,1.0,0.84375,0.875,0.4358511273325844,-1.0030493636284512,,,0.005432700329884795,-0.45000234885832496,0.01572221235613267,0.23747184294395657,0.012165024437049558,-1.1668940026149754,-1.6698038899663487e+42,-0.17679157907185736,-3.977248047459421e+43,-0.1741312802207133,,,,,,,,,,,,,,,,,,,,
47,240708_094326,LEARNING,1.0,48,3.0,1068.0,,,,,,,,,,48.0,48.0,48.0,cue1.png,Hard,B,,,,,,,,,,,,,,,,,,,,,,,,,,,36,28,Female,1.4285714285714286,0.75,0.6,0.25,2.7777777777777777,3.375,2.4444444444444446,3.0,2.75,3.6666666666666665,2.0,2.0,2.0,1.0,0.84375,0.875,0.4483657182109626,-0.6741810232535703,,,0.00866117104923121,0.6582326977385781,0.015693351821594557,0.2247977799440914,0.012798702818719459,-0.9397672179318445,1.0200353609307011e+42,-0.17675809252498295,2.0928758319078094e+43,-0.17403594883460352,,,,,,,,,,,,,,,,,,,,
48,240708_094348,LEARNING,1.0,49,1.0,1068.0,,,,,,,,,,49.0,49.0,49.0,cue2.png,Easy,B,,,,,,,,,,,,,,,,,,,,,,,,,,,36,28,Female,1.4285714285714286,0.75,0.6,0.25,2.7777777777777777,3.375,2.4444444444444446,3.0,2.75,3.6666666666666665,2.0,2.0,2.0,1.0,1.0,1.0,0.424774309112267,-1.2941347742625153,,,,,0.016209535691542307,0.4514791977325353,0.011921883316973133,-1.2540420929154283,,,,,,,,,,,,,,,,,,,,,,,,
49,240708_094410,LEARNING,1.0,50,1.0,1068.0,,,,,,,,,,50.0,50.0,50.0,cue2.png,Easy,B,,,,,,,,,,,,,,,,,,,,,,,,,,,36,28,Female,1.4285714285714286,0.75,0.6,0.25,2.7777777777777777,3.375,2.4444444444444446,3.0,2.75,3.6666666666666665,2.0,2.0,2.0,1.0,1.0,1.0,0.4729541635394774,-0.028026363770600134,0.004036946814042803,-1.1714831885447579,0.004890681853152114,-0.6360606792680337,0.016211050904386792,0.45214460131415835,0.013018034292885363,-0.8611531229143764,5.395265259023758e+40,-0.17677011955369354,,,,,,,,,,,,,,,,,,,,,,
0,240708_094535,TrueCHOICE,9.0,1,1.0,1068.0,,,,,,,,,,,1.0,1.0,,,B,,,,,,True,cue2.png,Easy,cue1.png,Hard,Left,Easy,Easy,0.0161332003772258,,,,,,,,,,,,,36,28,Female,1.4285714285714286,0.75,0.6,0.25,2.7777777777777777,3.375,2.4444444444444446,3.0,2.75,3.6666666666666665,2.0,2.0,2.0,1.0,1.0,1.0,0.4279221999882297,-1.03289894571634,,,,,,,,,,,,,0.006287893396240714,-0.17226750771755697,0.015615286977727856,-0.9891134243558923,15195456.484855806,-0.4552385552661918,,,,,,,,,,,,,,
1,240708_094555,TrueCHOICE,9.0,2,1.0,1068.0,,,,,,,,,,,2.0,2.0,,,B,,,,,,True,cue2.png,Easy,cue1.png,Hard,Left,Easy,Easy,0.0162354996427893,,,,,,,,,,,,,36,28,Female,1.4285714285714286,0.75,0.6,0.25,2.7777777777777777,3.375,2.4444444444444446,3.0,2.75,3.6666666666666665,2.0,2.0,2.0,1.0,0.84375,0.875,0.5050518817945637,1.7727892569304544,,,,,,,,,,,,,0.0048598528356067275,-0.9401914813818625,0.019528912998008054,2.107858938324078,4227193.847251678,-0.456005106354005,,,,,,,,,,,,,,
2,240708_094615,TrueCHOICE,9.0,3,1.0,1068.0,,,,,,,,,,,3.0,3.0,,,B,,,,,,True,cue1.png,Hard,cue2.png,Easy,Right,Easy,Easy,0.0164008000865578,,,,,,,,,,,,,36,28,Female,1.4285714285714286,0.75,0.6,0.25,2.7777777777777777,3.375,2.4444444444444446,3.0,2.75,3.6666666666666665,2.0,2.0,2.0,1.0,0.84375,0.875,0.4444097636944868,-0.433143288780204,,,,,,,,,,,,,,,0.016409961758271547,-0.36026288526264016,4507112.567435039,-0.4559855433651757,,,,,,,,,,,,,,
3,240708_094636,TrueCHOICE,9.0,4,1.0,1068.0,,,,,,,,,,,4.0,4.0,,,B,,,,,,True,cue2.png,Easy,cue1.png,Hard,Left,Easy,Easy,0.016115800011903,,,,,,,,,,,,,36,28,Female,1.4285714285714286,0.75,0.6,0.25,2.7777777777777777,3.375,2.4444444444444446,3.0,2.75,3.6666666666666665,2.0,2.0,2.0,1.0,1.0,1.0,0.4805979272350669,0.883246214500754,,,,,,,,,,,,,0.006014360770246561,-0.3193587506910819,,,-736080.2819837866,-0.456351980176103,,,,,,,,,,,,,,
4,240708_094656,TrueCHOICE,9.0,5,1.0,1068.0,,,,,,,,,,,5.0,5.0,,,B,,,,,,True,cue1.png,Hard,cue2.png,Easy,Right,Easy,Easy,0.0168277998454868,,,,,,,,,,,,,36,28,Female,1.4285714285714286,0.75,0.6,0.25,2.7777777777777777,3.375,2.4444444444444446,3.0,2.75,3.6666666666666665,2.0,2.0,2.0,1.0,1.0,1.0,0.468556936322288,0.4452401789386232,,,,,,,,,,,,,0.0077480531472667105,0.6129284517688898,0.016569125932686814,-0.23431138996428147,41394827350.92294,2.436705491846843,,,,,,,,,,,,,,
5,240708_094716,TrueCHOICE,9.0,6,1.0,1068.0,,,,,,,,,,,6.0,6.0,,,B,,,,,,True,cue1.png,Hard,cue2.png,Easy,Right,Easy,Easy,0.0160823999904096,,,,,,,,,,,,,36,28,Female,1.4285714285714286,0.75,0.6,0.25,2.7777777777777777,3.375,2.4444444444444446,3.0,2.75,3.6666666666666665,2.0,2.0,2.0,1.0,0.84375,0.875,0.4110145907933739,-1.6479342802595438,,,,,,,,,,,,,0.010944066622337281,2.331573870755631,,,,,,,,,,,,,,,,,,
6,240708_094735,TrueCHOICE,9.0,7,1.0,1068.0,,,,,,,,,,,7.0,7.0,,,B,,,,,,True,cue2.png,Easy,cue1.png,Hard,Left,Easy,Easy,0.015591699630022,,,,,,,,,,,,,36,28,Female,1.4285714285714286,0.75,0.6,0.25,2.7777777777777777,3.375,2.4444444444444446,3.0,2.75,3.6666666666666665,2.0,2.0,2.0,1.0,1.0,1.0,0.4781791635958308,0.7952606757475208,,,,,,,,,,,,,0.004885244469083405,-0.9265372164997913,0.016986596561692713,0.09604592919758555,,,,,,,,,,,,,,,,
7,240708_094755,TrueCHOICE,9.0,8,3.0,1068.0,,,,,,,,,,,8.0,8.0,,,B,,,,,,True,cue1.png,Hard,cue2.png,Easy,Left,Hard,Hard,0.0164369996637105,,,,,,,,,,,,,36,28,Female,1.4285714285714286,0.75,0.6,0.25,2.7777777777777777,3.375,2.4444444444444446,3.0,2.75,3.6666666666666665,2.0,2.0,2.0,1.0,0.5833333333333334,0.75,0.4314636090685698,-0.9040757813422794,,,,,,,,,,,,,0.006559099063331551,-0.02642757901118082,0.01608145903831687,-0.6202171679388357,41010860.063039355,-0.4534343656375309,,,,,,,,,,,,,,
8,240708_094815,TrueCHOICE,9.0,9,1.0,1068.0,,,,,,,,,,,9.0,9.0,,,B,,,,,,True,cue2.png,Easy,cue1.png,Hard,Left,Easy,Easy,0.016151400282979,,,,,,,,,,,,,36,28,Female,1.4285714285714286,0.75,0.6,0.25,2.7777777777777777,3.375,2.4444444444444446,3.0,2.75,3.6666666666666665,2.0,2.0,2.0,1.0,0.84375,0.875,0.4710489182563668,0.5358891243239993,,,,,,,,,,,,,0.00556738252612975,-0.5597197872230482,,,4244078403.053421,-0.15968994104783743,,,,,,,,,,,,,,
9,240708_094836,TrueCHOICE,9.0,10,1.0,1068.0,,,,,,,,,,,10.0,10.0,,,B,,,,,,True,cue1.png,Hard,cue2.png,Easy,Right,Easy,Easy,0.0165290003642439,,,,,,,,,,,,,36,28,Female,1.4285714285714286,0.75,0.6,0.25,2.7777777777777777,3.375,2.4444444444444446,3.0,2.75,3.6666666666666665,2.0,2.0,2.0,1.0,1.0,1.0,0.4449257634749466,-0.41437315434299055,,,,,,,,,,,,,,,,,,,,,,,,,,,,,,,,
0,240708_094958,FalseCHOICE,9.0,1,2.0,1068.0,,,,,,,,,,,1.0,1.0,,,B,,,,,,False,cue2.png,Easy,cue1.png,Hard,Left,Easy,Mid,0.0161370001733303,,,,,,,,,,,,,36,28,Female,1.4285714285714286,0.75,0.6,0.25,2.7777777777777777,3.375,2.4444444444444446,3.0,2.75,3.6666666666666665,2.0,2.0,2.0,1.0,0.84375,0.875,0.4298995454287664,-1.5779500418999959,,,,,,,,,,,,,,,,,,,0.0073129841468365184,-0.2668432204154027,0.01459167514605689,0.034494591473132045,,,,,,,,,,
1,240708_095018,FalseCHOICE,9.0,2,2.0,1068.0,,,,,,,,,,,2.0,2.0,,,B,,,,,,False,cue1.png,Hard,cue2.png,Easy,Left,Hard,Mid,0.0165405999869108,,,,,,,,,,,,,36,28,Female,1.4285714285714286,0.75,0.6,0.25,2.7777777777777777,3.375,2.4444444444444446,3.0,2.75,3.6666666666666665,2.0,2.0,2.0,1.0,0.5833333333333334,0.75,0.4621042362837629,-0.7978266197493963,,,,,,,,,,,,,,,,,,,0.006673022246878373,-0.3177950882632315,0.013617599155897553,-0.031206135957305696,6.448491327587464e+43,-0.15734061131878008,,,,,,,,
2,240708_095039,FalseCHOICE,9.0,3,2.0,1068.0,,,,,,,,,,,3.0,3.0,,,B,,,,,,False,cue1.png,Hard,cue2.png,Easy,Right,Easy,Mid,0.0165123003534972,,,,,,,,,,,,,36,28,Female,1.4285714285714286,0.75,0.6,0.25,2.7777777777777777,3.375,2.4444444444444446,3.0,2.75,3.6666666666666665,2.0,2.0,2.0,1.0,1.0,1.0,0.464961127251048,-0.7286215598981916,,,,,,,,,,,,,,,,,,,0.006036060480679169,-0.36850809436191334,,,-2.7026063736625817e+44,-0.19132950041708613,,,,,,,,
3,240708_095101,FalseCHOICE,9.0,4,2.0,1068.0,,,,,,,,,,,4.0,4.0,,,B,,,,,,False,cue1.png,Hard,cue2.png,Easy,Left,Hard,Mid,0.0160499000921845,,,,,,,,,,,,,36,28,Female,1.4285714285714286,0.75,0.6,0.25,2.7777777777777777,3.375,2.4444444444444446,3.0,2.75,3.6666666666666665,2.0,2.0,2.0,1.0,0.84375,0.875,0.5515466182154011,1.368817282903838,,,,,,,,,,,,,,,,,,,0.006410748172495133,-0.3386765719558708,,,-2.476275850549907e+44,-0.189031419670417,,,,,,,,
4,240708_095120,FalseCHOICE,9.0,5,2.0,1068.0,,,,,,,,,,,5.0,5.0,,,B,,,,,,False,cue2.png,Easy,cue1.png,Hard,Left,Easy,Mid,0.0163600002415478,,,,,,,,,,,,,36,28,Female,1.4285714285714286,0.75,0.6,0.25,2.7777777777777777,3.375,2.4444444444444446,3.0,2.75,3.6666666666666665,2.0,2.0,2.0,1.0,0.84375,0.875,0.4077320544641803,-2.114933271754611,,,,,,,,,,,,,,,,,,,0.006925270360076417,-0.2977118418553258,,,6.151972548539475e+46,6.0826089632419285,,,,,,,,
5,240708_095142,FalseCHOICE,9.0,6,2.0,1068.0,,,,,,,,,,,6.0,6.0,,,B,,,,,,False,cue1.png,Hard,cue2.png,Easy,Right,Easy,Mid,0.0165291000157594,,,,,,,,,,,,,36,28,Female,1.4285714285714286,0.75,0.6,0.25,2.7777777777777777,3.375,2.4444444444444446,3.0,2.75,3.6666666666666665,2.0,2.0,2.0,1.0,0.84375,0.875,0.5679234818301417,1.7655288968966474,,,,,,,,,,,,,,,,,,,,,,,4.1556555962237266e+42,-0.163466232539804,,,,,,,,
6,240708_095202,FalseCHOICE,9.0,7,2.0,1068.0,,,,,,,,,,,7.0,7.0,,,B,,,,,,False,cue1.png,Hard,cue2.png,Easy,Right,Easy,Mid,0.0169509002007544,,,,,,,,,,,,,36,28,Female,1.4285714285714286,0.75,0.6,0.25,2.7777777777777777,3.375,2.4444444444444446,3.0,2.75,3.6666666666666665,2.0,2.0,2.0,1.0,0.5833333333333334,0.75,0.4532712272114374,-1.0117966061844856,,,,,,,,,,,,,,,,,,,0.0058745893775333895,-0.3813639445449711,0.0147306939461151,0.04387130990434696,3.1077634567895593e+43,-0.16073266922336923,,,,,,,,
7,240708_095225,FalseCHOICE,9.0,8,2.0,1068.0,,,,,,,,,,,8.0,8.0,,,B,,,,,,False,cue2.png,Easy,cue1.png,Hard,Right,Hard,Mid,0.0164679996669292,,,,,,,,,,,,,36,28,Female,1.4285714285714286,0.75,0.6,0.25,2.7777777777777777,3.375,2.4444444444444446,3.0,2.75,3.6666666666666665,2.0,2.0,2.0,1.0,0.5833333333333334,0.6590909090909091,0.521057440014556,0.6302502789944534,,,,,,,,,,,,,,,,,,,0.0073618862236205,-0.26294978214361686,0.016567891039121447,0.16778893713572732,9.32293602107675e+43,-0.15442200099763292,,,,,,,,
8,240708_095244,FalseCHOICE,9.0,9,2.0,1068.0,,,,,,,,,,,9.0,9.0,,,B,,,,,,False,cue2.png,Easy,cue1.png,Hard,Left,Easy,Mid,0.0158787001855671,,,,,,,,,,,,,36,28,Female,1.4285714285714286,0.75,0.6,0.25,2.7777777777777777,3.375,2.4444444444444446,3.0,2.75,3.6666666666666665,2.0,2.0,2.0,1.0,0.15625,0.625,0.4732621909034523,-0.5275373696117048,,,,,,,,,,,,,,,,,,,,,0.012955444061218053,-0.07586802253670612,,,,,,,,,,
9,240708_095304,FalseCHOICE,9.0,10,2.0,1068.0,,,,,,,,,,,10.0,10.0,,,B,,,,,,False,cue1.png,Hard,cue2.png,Easy,Left,Hard,Mid,0.0160258999094367,,,,,,,,,,,,,36,28,Female,1.4285714285714286,0.75,0.6,0.25,2.7777777777777777,3.375,2.4444444444444446,3.0,2.75,3.6666666666666665,2.0,2.0,2.0,1.0,0.84375,0.875,0.4521862546151334,-1.0380788809803947,,,,,,,,,,,,,,,,,,,0.009537793232775529,-0.08971052151437896,0.021583287053408572,0.5060738038394849,1.189403174262262e+44,-0.1518114005826874,,,,,,,,
10,240708_095325,FalseCHOICE,9.0,11,2.0,1068.0,,,,,,,,,,,11.0,11.0,,,B,,,,,,False,cue2.png,Easy,cue1.png,Hard,Left,Easy,Mid,0.0160997998900711,,,,,,,,,,,,,36,28,Female,1.4285714285714286,0.75,0.6,0.25,2.7777777777777777,3.375,2.4444444444444446,3.0,2.75,3.6666666666666665,2.0,2.0,2.0,1.0,0.15625,0.625,0.5465075637806546,1.2467516991124103,,,,,,,,,,,,,,,,,,,0.007080020390830836,-0.285391103516118,0.01077642819107643,-0.22284108130941493,1.1683362420442123e+44,-0.15202530682324153,,,,,,,,
11,240708_095346,FalseCHOICE,9.0,12,2.0,1068.0,,,,,,,,,,,12.0,12.0,,,B,,,,,,False,cue1.png,Hard,cue2.png,Easy,Right,Easy,Mid,0.0149214002303779,,,,,,,,,,,,,36,28,Female,1.4285714285714286,0.75,0.6,0.25,2.7777777777777777,3.375,2.4444444444444446,3.0,2.75,3.6666666666666665,2.0,2.0,2.0,1.0,0.5833333333333334,0.75,0.49847573638809,0.08323320032139137,,,,,,,,,,,,,,,,,,,0.007196792819879757,-0.27609402915347286,0.012390934020821785,-0.11394382018546423,,,,,,,,,,
12,240708_095406,FalseCHOICE,9.0,13,2.0,1068.0,,,,,,,,,,,13.0,13.0,,,B,,,,,,False,cue2.png,Easy,cue1.png,Hard,Left,Easy,Mid,0.0166409998200833,,,,,,,,,,,,,36,28,Female,1.4285714285714286,0.75,0.6,0.25,2.7777777777777777,3.375,2.4444444444444446,3.0,2.75,3.6666666666666665,2.0,2.0,2.0,1.0,0.5833333333333334,0.75,0.4573153272609819,-0.9138327044542951,,,,,,,,,,,,,,,,,,,0.008639013458720321,-0.1612687006418511,0.015735836827471764,0.11166747688086436,,,,,,,,,,
13,240708_095427,FalseCHOICE,9.0,14,2.0,1068.0,,,,,,,,,,,14.0,14.0,,,B,,,,,,False,cue1.png,Hard,cue2.png,Easy,Right,Easy,Mid,0.0171000002883374,,,,,,,,,,,,,36,28,Female,1.4285714285714286,0.75,0.6,0.25,2.7777777777777777,3.375,2.4444444444444446,3.0,2.75,3.6666666666666665,2.0,2.0,2.0,1.0,0.15625,0.625,0.6362054000015963,3.4195837026007636,,,,,,,,,,,,,,,,,,,0.0069161477735834,-0.29843815512718314,0.010620526619235605,-0.23335653059773517,1.9410395287219238e+43,-0.16191731977730076,,,,,,,,
14,240708_095447,FalseCHOICE,9.0,15,2.0,1068.0,,,,,,,,,,,15.0,15.0,,,B,,,,,,False,cue2.png,Easy,cue1.png,Hard,Right,Hard,Mid,0.0175097999162971,,,,,,,,,,,,,36,28,Female,1.4285714285714286,0.75,0.6,0.25,2.7777777777777777,3.375,2.4444444444444446,3.0,2.75,3.6666666666666665,2.0,2.0,2.0,1.0,0.84375,0.875,0.4943437819284471,-0.016858878430141295,,,,,,,,,,,,,,,,,,,0.005661275740313148,-0.3983473434855897,0.013991591014025438,-0.00598065316099556,-3.891247607238095e+43,-0.16783921956875003,,,,,,,,
15,240708_095506,FalseCHOICE,9.0,16,2.0,1068.0,,,,,,,,,,,16.0,16.0,,,B,,,,,,False,cue2.png,Easy,cue1.png,Hard,Left,Easy,Mid,0.0175246000289917,,,,,,,,,,,,,36,28,Female,1.4285714285714286,0.75,0.6,0.25,2.7777777777777777,3.375,2.4444444444444446,3.0,2.75,3.6666666666666665,2.0,2.0,2.0,1.0,0.5833333333333334,0.75,0.4637925273061476,-0.756929615772581,,,,,,,,,,,,,,,,,,,0.00737554114068158,-0.26186261815836287,0.011224873779993464,-0.19259374773126092,,,,,,,,,,
16,240708_095526,FalseCHOICE,9.0,17,2.0,1068.0,,,,,,,,,,,17.0,17.0,,,B,,,,,,False,cue1.png,Hard,cue2.png,Easy,Right,Easy,Mid,0.0169127001427114,,,,,,,,,,,,,36,28,Female,1.4285714285714286,0.75,0.6,0.25,2.7777777777777777,3.375,2.4444444444444446,3.0,2.75,3.6666666666666665,2.0,2.0,2.0,1.0,0.5833333333333334,0.75,0.4546986090188676,-0.9772198426520644,,,,,,,,,,,,,,,,,,,0.005179959073274845,-0.4366683485540116,0.013950931296595744,-0.00872312196141221,,,,,,,,,,
17,240708_095547,FalseCHOICE,9.0,18,2.0,1068.0,,,,,,,,,,,18.0,18.0,,,B,,,,,,False,cue1.png,Hard,cue2.png,Easy,Left,Hard,Mid,0.0160791999660432,,,,,,,,,,,,,36,28,Female,1.4285714285714286,0.75,0.6,0.25,2.7777777777777777,3.375,2.4444444444444446,3.0,2.75,3.6666666666666665,2.0,2.0,2.0,1.0,1.0,1.0,0.520553372842683,0.6180398029217002,,,,,,,,,,,,,,,,,,,,,0.012964386661157082,-0.07526485057984733,,,,,,,,,,
18,240708_095607,FalseCHOICE,9.0,19,2.0,1068.0,,,,,,,,,,,19.0,19.0,,,B,,,,,,False,cue2.png,Easy,cue1.png,Hard,Right,Hard,Mid,0.0155457998625934,,,,,,,,,,,,,36,28,Female,1.4285714285714286,0.75,0.6,0.25,2.7777777777777777,3.375,2.4444444444444446,3.0,2.75,3.6666666666666665,2.0,2.0,2.0,1.0,1.0,1.0,0.4815030908635394,-0.3279105789863743,,,,,,,,,,,,,,,,,,,0.007102267727860781,-0.28361983654477174,0.010435508136078837,-0.24583589468665748,,,,,,,,,,
19,240708_095627,FalseCHOICE,9.0,20,2.0,1068.0,,,,,,,,,,,20.0,20.0,,,B,,,,,,False,cue2.png,Easy,cue1.png,Hard,Right,Hard,Mid,0.0172191997990012,,,,,,,,,,,,,36,28,Female,1.4285714285714286,0.75,0.6,0.25,2.7777777777777777,3.375,2.4444444444444446,3.0,2.75,3.6666666666666665,2.0,2.0,2.0,1.0,0.15625,0.625,0.495836936360733,0.019311155021165965,,,,,,,,,,,,,,,,,,,0.0047327455056097745,-0.4722741660267658,0.013671638128022145,-0.027561246016431503,,,,,,,,,,
20,240708_095647,FalseCHOICE,9.0,21,2.0,1068.0,,,,,,,,,,,21.0,21.0,,,B,,,,,,False,cue2.png,Easy,cue1.png,Hard,Left,Easy,Mid,0.0158118000254035,,,,,,,,,,,,,36,28,Female,1.4285714285714286,0.75,0.6,0.25,2.7777777777777777,3.375,2.4444444444444446,3.0,2.75,3.6666666666666665,2.0,2.0,2.0,1.0,0.84375,0.875,0.4661699272692203,-0.6993397012050508,,,,,,,,,,,,,,,,,,,,,0.015856871138966867,0.11983115444771382,,,,,,,,,,
21,240708_095707,FalseCHOICE,9.0,22,2.0,1068.0,,,,,,,,,,,22.0,22.0,,,B,,,,,,False,cue1.png,Hard,cue2.png,Easy,Left,Hard,Mid,0.0160857001319527,,,,,,,,,,,,,36,28,Female,1.4285714285714286,0.75,0.6,0.25,2.7777777777777777,3.375,2.4444444444444446,3.0,2.75,3.6666666666666665,2.0,2.0,2.0,1.0,0.84375,0.875,0.5004221727563576,0.1303834930364572,,,,,,,,,,,,,,,,,,,,,0.0076264200673359745,-0.4353068716916237,,,,,,,,,,
22,240708_095728,FalseCHOICE,9.0,23,2.0,1068.0,,,,,,,,,,,23.0,23.0,,,B,,,,,,False,cue2.png,Easy,cue1.png,Hard,Left,Easy,Mid,0.0159502997994422,,,,,,,,,,,,,36,28,Female,1.4285714285714286,0.75,0.6,0.25,2.7777777777777777,3.375,2.4444444444444446,3.0,2.75,3.6666666666666665,2.0,2.0,2.0,1.0,0.84375,0.875,0.5064938818104565,0.2774640058385712,,,,,,,,,,,,,,,,,,,0.005147375741968119,-0.43926253672504323,0.012881944317714153,-0.08082552755986855,8.555695894395036e+42,-0.16301946788098853,,,,,,,,
23,240708_095748,FalseCHOICE,9.0,24,2.0,1068.0,,,,,,,,,,,24.0,24.0,,,B,,,,,,False,cue1.png,Hard,cue2.png,Easy,Right,Easy,Mid,0.0155551000498235,,,,,,,,,,,,,36,28,Female,1.4285714285714286,0.75,0.6,0.25,2.7777777777777777,3.375,2.4444444444444446,3.0,2.75,3.6666666666666665,2.0,2.0,2.0,1.0,0.84375,0.875,0.5020984636873684,0.17098980792108862,,,,,,,,,,,,,,,,,,,0.011411773699450876,0.05949024355257196,0.010356319348149236,-0.2511771216790797,-1.3212294165890048e+43,-0.1652297132408829,,,,,,,,
24,240708_095808,FalseCHOICE,9.0,25,2.0,1068.0,,,,,,,,,,,25.0,25.0,,,B,,,,,,False,cue1.png,Hard,cue2.png,Easy,Right,Easy,Mid,0.0155444000847637,,,,,,,,,,,,,36,28,Female,1.4285714285714286,0.75,0.6,0.25,2.7777777777777777,3.375,2.4444444444444446,3.0,2.75,3.6666666666666665,2.0,2.0,2.0,1.0,0.84375,0.875,0.4770312818105925,-0.43623526365099036,,,,,,,,,,,,,,,,,,,0.07030002842689877,4.747998376393667,0.04437681736889629,2.0434810878341465,-2.644548438552383e+43,-0.16657336496061187,,,,,,,,
25,240708_095830,FalseCHOICE,9.0,26,2.0,1068.0,,,,,,,,,,,26.0,26.0,,,B,,,,,,False,cue2.png,Easy,cue1.png,Hard,Left,Easy,Mid,0.0159419998526573,,,,,,,,,,,,,36,28,Female,1.4285714285714286,0.75,0.6,0.25,2.7777777777777777,3.375,2.4444444444444446,3.0,2.75,3.6666666666666665,2.0,2.0,2.0,1.0,0.1875,0.6590909090909091,0.513241869956255,0.44092664016829153,,,,,,,,,,,,,,,,,,,0.010661265818840106,-0.00026296730909798084,0.011430397283362089,-0.17873133472469263,-3.19033168321773e+43,-0.1671275341239976,,,,,,,,
26,240708_095850,FalseCHOICE,9.0,27,2.0,1068.0,,,,,,,,,,,27.0,27.0,,,B,,,,,,False,cue2.png,Easy,cue1.png,Hard,Right,Hard,Mid,0.016880199778825,,,,,,,,,,,,,36,28,Female,1.4285714285714286,0.75,0.6,0.25,2.7777777777777777,3.375,2.4444444444444446,3.0,2.75,3.6666666666666665,2.0,2.0,2.0,1.0,0.5833333333333334,0.75,0.4857255908321928,-0.2256251342849034,,,,,,,,,,,,,,,,,,,0.005790643629975909,-0.3880474559168444,,,-2.489660433397098e+43,-0.16641609711284563,,,,,,,,
27,240708_095911,FalseCHOICE,9.0,28,2.0,1068.0,,,,,,,,,,,28.0,28.0,,,B,,,,,,False,cue1.png,Hard,cue2.png,Easy,Left,Hard,Mid,0.0143993003293871,,,,,,,,,,,,,36,28,Female,1.4285714285714286,0.75,0.6,0.25,2.7777777777777777,3.375,2.4444444444444446,3.0,2.75,3.6666666666666665,2.0,2.0,2.0,1.0,0.84375,0.875,0.5045303000899201,0.2298983857121603,,,,,,,,,,,,,,,,,,,0.005502875698439158,-0.4109586848813539,0.0069207287401783415,-0.4829052459499023,-1.3091991344910615e+43,-0.1652174981144006,,,,,,,,
28,240708_095931,FalseCHOICE,9.0,29,2.0,1068.0,,,,,,,,,,,29.0,29.0,,,B,,,,,,False,cue2.png,Easy,cue1.png,Hard,Left,Easy,Mid,0.0161669999361038,,,,,,,,,,,,,36,28,Female,1.4285714285714286,0.75,0.6,0.25,2.7777777777777777,3.375,2.4444444444444446,3.0,2.75,3.6666666666666665,2.0,2.0,2.0,1.0,1.0,1.0,0.514671909072521,0.4755677741016608,,,,,,,,,,,,,,,,,,,,,0.008078163772310805,-0.40483708254908213,1.4767929605340702e+42,-0.16373823485577021,,,,,,,,
29,240708_095951,FalseCHOICE,9.0,30,2.0,1068.0,,,,,,,,,,,30.0,30.0,,,B,,,,,,False,cue2.png,Easy,cue1.png,Hard,Left,Easy,Mid,0.01616089977324,,,,,,,,,,,,,36,28,Female,1.4285714285714286,0.75,0.6,0.25,2.7777777777777777,3.375,2.4444444444444446,3.0,2.75,3.6666666666666665,2.0,2.0,2.0,1.0,0.15625,0.625,0.4505066273056648,-1.0787660159850438,,,,,,,,,,,,,,,,,,,0.006057570897086828,-0.36679549882423135,0.0065513747788851495,-0.5078179059286242,1.5209307660121751e+43,-0.16234388347971823,,,,,,,,
30,240708_100011,FalseCHOICE,9.0,31,2.0,1068.0,,,,,,,,,,,31.0,31.0,,,B,,,,,,False,cue1.png,Hard,cue2.png,Easy,Left,Hard,Mid,0.0160749000497162,,,,,,,,,,,,,36,28,Female,1.4285714285714286,0.75,0.6,0.25,2.7777777777777777,3.375,2.4444444444444446,3.0,2.75,3.6666666666666665,2.0,2.0,2.0,1.0,0.84375,0.875,0.4794656272808259,-0.3772659064388356,,,,,,,,,,,,,,,,,,,0.005099870344152631,-0.44304477556099825,0.0064232837307491904,-0.516457555324441,2.4686303889254777e+43,-0.16138162252300298,,,,,,,,
31,240708_100032,FalseCHOICE,9.0,32,2.0,1068.0,,,,,,,,,,,32.0,32.0,,,B,,,,,,False,cue2.png,Easy,cue1.png,Hard,Left,Easy,Mid,0.0164912999607622,,,,,,,,,,,,,36,28,Female,1.4285714285714286,0.75,0.6,0.25,2.7777777777777777,3.375,2.4444444444444446,3.0,2.75,3.6666666666666665,2.0,2.0,2.0,1.0,0.84375,0.875,0.4837453363209285,-0.2735946345360449,,,,,,,,,,,,,,,,,,,,,,,2.6753097864685737e+43,-0.16117176751197979,,,,,,,,
32,240708_100053,FalseCHOICE,9.0,33,2.0,1068.0,,,,,,,,,,,33.0,33.0,,,B,,,,,,False,cue1.png,Hard,cue2.png,Easy,Left,Hard,Mid,0.0160381998866796,,,,,,,,,,,,,36,28,Female,1.4285714285714286,0.75,0.6,0.25,2.7777777777777777,3.375,2.4444444444444446,3.0,2.75,3.6666666666666665,2.0,2.0,2.0,1.0,0.5833333333333334,0.75,0.53531134551899,0.975535554086764,,,,,,,,,,,,,,,,,,,0.007197623675770202,-0.27602787887244307,0.00883179485416999,-0.35400520619389464,2.051428419269511e+43,-0.16180523476970887,,,,,,,,
33,240708_100112,FalseCHOICE,9.0,34,2.0,1068.0,,,,,,,,,,,34.0,34.0,,,B,,,,,,False,cue1.png,Hard,cue2.png,Easy,Left,Hard,Mid,0.0152934999205172,,,,,,,,,,,,,36,28,Female,1.4285714285714286,0.75,0.6,0.25,2.7777777777777777,3.375,2.4444444444444446,3.0,2.75,3.6666666666666665,2.0,2.0,2.0,1.0,0.84375,0.875,0.4889870545064861,-0.14661974298133146,,,,,,,,,,,,,,,,,,,0.04769089772895166,2.9479264665636737,0.09543048380835933,5.487014299770684,8.690214285466531e+42,-0.16300580935537992,,,,,,,,
34,240708_100132,FalseCHOICE,9.0,35,2.0,1068.0,,,,,,,,,,,35.0,35.0,,,B,,,,,,False,cue1.png,Hard,cue2.png,Easy,Right,Easy,Mid,0.0165246999822556,,,,,,,,,,,,,36,28,Female,1.4285714285714286,0.75,0.6,0.25,2.7777777777777777,3.375,2.4444444444444446,3.0,2.75,3.6666666666666665,2.0,2.0,2.0,1.0,0.84375,0.875,0.447203118100085,-1.1587899143098772,,,,,,,,,,,,,,,,,,,0.005479074296497872,-0.4128536818903708,0.0068351023841916134,-0.48868068229406825,-5.224229981656595e+42,-0.16441863322160485,,,,,,,,
35,240708_100152,FalseCHOICE,9.0,36,2.0,1068.0,,,,,,,,,,,36.0,36.0,,,B,,,,,,False,cue2.png,Easy,cue1.png,Hard,Right,Hard,Mid,0.0167006999254226,,,,,,,,,,,,,36,28,Female,1.4285714285714286,0.75,0.6,0.25,2.7777777777777777,3.375,2.4444444444444446,3.0,2.75,3.6666666666666665,2.0,2.0,2.0,1.0,0.15625,0.625,0.4877343727699058,-0.17696458832099676,,,,,,,,,,,,,,,,,,,,,0.0075588901508997965,-0.4398617161575547,-1.767699656280493e+43,-0.16568304346240365,,,,,,,,
36,240708_100212,FalseCHOICE,9.0,37,2.0,1068.0,,,,,,,,,,,37.0,37.0,,,B,,,,,,False,cue1.png,Hard,cue2.png,Easy,Right,Easy,Mid,0.0171749000437557,,,,,,,,,,,,,36,28,Female,1.4285714285714286,0.75,0.6,0.25,2.7777777777777777,3.375,2.4444444444444446,3.0,2.75,3.6666666666666665,2.0,2.0,2.0,1.0,0.84375,0.875,0.5159677817824889,0.5069588735450166,,,,,,,,,,,,,,,,,,,0.00601989949362331,-0.36979478420519063,0.008463761654378194,-0.3788287817559176,-2.431216786968513e+43,-0.16635675548416226,,,,,,,,
37,240708_100232,FalseCHOICE,9.0,38,2.0,1068.0,,,,,,,,,,,38.0,38.0,,,B,,,,,,False,cue2.png,Easy,cue1.png,Hard,Left,Easy,Mid,0.0165021000429987,,,,,,,,,,,,,36,28,Female,1.4285714285714286,0.75,0.6,0.25,2.7777777777777777,3.375,2.4444444444444446,3.0,2.75,3.6666666666666665,2.0,2.0,2.0,1.0,1.0,1.0,0.5067080272022974,0.2826514438013466,,,,,,,,,,,,,,,,,,,0.007774866866869895,-0.2300694885512472,,,-2.327133700826832e+43,-0.16625107316918922,,,,,,,,
38,240708_100253,FalseCHOICE,9.0,39,2.0,1068.0,,,,,,,,,,,39.0,39.0,,,B,,,,,,False,cue2.png,Easy,cue1.png,Hard,Right,Hard,Mid,0.0170392002910375,,,,,,,,,,,,,36,28,Female,1.4285714285714286,0.75,0.6,0.25,2.7777777777777777,3.375,2.4444444444444446,3.0,2.75,3.6666666666666665,2.0,2.0,2.0,1.0,0.84375,0.875,0.5261628908867185,0.7539242438819398,,,,,,,,,,,,,,,,,,,0.03606936166552235,2.022654243746419,,,-1.3176855746804588e+43,-0.16522611494810857,,,,,,,,
39,240708_100313,FalseCHOICE,9.0,40,2.0,1068.0,,,,,,,,,,,40.0,40.0,,,B,,,,,,False,cue1.png,Hard,cue2.png,Easy,Right,Easy,Mid,0.0169346998445689,,,,,,,,,,,,,36,28,Female,1.4285714285714286,0.75,0.6,0.25,2.7777777777777777,3.375,2.4444444444444446,3.0,2.75,3.6666666666666665,2.0,2.0,2.0,1.0,0.5833333333333334,0.75,0.5173456364057281,0.5403358951952826,,,,,,,,,,,,,,,,,,,0.006663330439930353,-0.3185667211789636,0.00677260124716916,-0.4928963391925952,1.643498281666775e+42,-0.16372130818217828,,,,,,,,
40,240708_100333,FalseCHOICE,9.0,41,2.0,1068.0,,,,,,,,,,,41.0,41.0,,,B,,,,,,False,cue1.png,Hard,cue2.png,Easy,Left,Hard,Mid,0.0160799999721348,,,,,,,,,,,,,36,28,Female,1.4285714285714286,0.75,0.6,0.25,2.7777777777777777,3.375,2.4444444444444446,3.0,2.75,3.6666666666666665,2.0,2.0,2.0,1.0,1.0,1.0,0.51714678180658,0.5355188599659665,,,,,,,,,,,,,,,,,,,0.022090308475066024,0.9096835015124156,,,1.5950092045215266e+43,-0.1622686668315435,,,,,,,,
41,240708_100352,FalseCHOICE,9.0,42,2.0,1068.0,,,,,,,,,,,42.0,42.0,,,B,,,,,,False,cue2.png,Easy,cue1.png,Hard,Left,Easy,Mid,0.0161525998264551,,,,,,,,,,,,,36,28,Female,1.4285714285714286,0.75,0.6,0.25,2.7777777777777777,3.375,2.4444444444444446,3.0,2.75,3.6666666666666665,2.0,2.0,2.0,1.0,0.84375,0.875,0.4370785181579942,-1.404047277291339,,,,,,,,,,,,,,,,,,,0.006474534997178627,-0.3335980542161138,,,2.40637651792352e+43,-0.16144483292007525,,,,,,,,
42,240708_100412,FalseCHOICE,9.0,43,2.0,1068.0,,,,,,,,,,,43.0,43.0,,,B,,,,,,False,cue1.png,Hard,cue2.png,Easy,Right,Easy,Mid,0.0168956997804343,,,,,,,,,,,,,36,28,Female,1.4285714285714286,0.75,0.6,0.25,2.7777777777777777,3.375,2.4444444444444446,3.0,2.75,3.6666666666666665,2.0,2.0,2.0,1.0,0.5833333333333334,0.6590909090909091,0.4050197401084006,-2.1806361212775647,,,,,,,,,,,,,,,,,,,0.006183150784699025,-0.35679720074057936,0.006919567324574932,-0.482983582599983,2.26690813784645e+43,-0.16158644422137758,,,,,,,,
43,240708_100432,FalseCHOICE,9.0,44,2.0,1068.0,,,,,,,,,,,44.0,44.0,,,B,,,,,,False,cue2.png,Easy,cue1.png,Hard,Right,Hard,Mid,0.0166690996848046,,,,,,,,,,,,,36,28,Female,1.4285714285714286,0.75,0.6,0.25,2.7777777777777777,3.375,2.4444444444444446,3.0,2.75,3.6666666666666665,2.0,2.0,2.0,1.0,0.84375,0.875,0.4993613091805441,0.10468523290022834,,,,,,,,,,,,,,,,,,,0.005389704728840545,-0.41996902172730727,0.0052440928678475565,-0.5959931339185607,9.789342564691818e+42,-0.16289420772507976,,,,,,,,
44,240708_100452,FalseCHOICE,9.0,45,2.0,1068.0,,,,,,,,,,,45.0,45.0,,,B,,,,,,False,cue1.png,Hard,cue2.png,Easy,Right,Easy,Mid,0.01668870029971,,,,,,,,,,,,,36,28,Female,1.4285714285714286,0.75,0.6,0.25,2.7777777777777777,3.375,2.4444444444444446,3.0,2.75,3.6666666666666665,2.0,2.0,2.0,1.0,1.0,1.0,0.4814358726567165,-0.32953886654776077,,,,,,,,,,,,,,,,,,,,,0.007242240732583493,-0.4612194924850495,-8.775907415306264e+42,-0.164779258090774,,,,,,,,
45,240708_100513,FalseCHOICE,9.0,46,2.0,1068.0,,,,,,,,,,,46.0,46.0,,,B,,,,,,False,cue1.png,Hard,cue2.png,Easy,Left,Hard,Mid,0.0161051000468432,,,,,,,,,,,,,36,28,Female,1.4285714285714286,0.75,0.6,0.25,2.7777777777777777,3.375,2.4444444444444446,3.0,2.75,3.6666666666666665,2.0,2.0,2.0,1.0,0.84375,0.875,0.5366450272161852,1.0078425349039444,,,,,,,,,,,,,,,,,,,0.008126561741084965,-0.20206858606793224,0.008393218009931853,-0.38358690001624,-2.423362793719129e+43,-0.16634878081489424,,,,,,,,
46,240708_100533,FalseCHOICE,9.0,47,2.0,1068.0,,,,,,,,,,,47.0,47.0,,,B,,,,,,False,cue2.png,Easy,cue1.png,Hard,Right,Hard,Mid,0.016821099910885,,,,,,,,,,,,,36,28,Female,1.4285714285714286,0.75,0.6,0.25,2.7777777777777777,3.375,2.4444444444444446,3.0,2.75,3.6666666666666665,2.0,2.0,2.0,1.0,0.84375,0.875,0.5179103091359138,0.5540144746497819,,,,,,,,,,,,,,,,,,,0.008176451067214359,-0.19809654593221737,,,-2.225655875872199e+43,-0.16614803614504642,,,,,,,,
47,240708_100554,FalseCHOICE,9.0,48,2.0,1068.0,,,,,,,,,,,48.0,48.0,,,B,,,,,,False,cue2.png,Easy,cue1.png,Hard,Right,Hard,Mid,0.0165264001116156,,,,,,,,,,,,,36,28,Female,1.4285714285714286,0.75,0.6,0.25,2.7777777777777777,3.375,2.4444444444444446,3.0,2.75,3.6666666666666665,2.0,2.0,2.0,1.0,0.5833333333333334,0.75,0.5377509364519607,1.0346319768981458,,,,,,,,,,,,,,,,,,,,,,,1.5326608667082496e+42,-0.16373256222453295,,,,,,,,
48,240708_100614,FalseCHOICE,9.0,49,2.0,1068.0,,,,,,,,,,,49.0,49.0,,,B,,,,,,False,cue1.png,Hard,cue2.png,Easy,Left,Hard,Mid,0.016199099831283,,,,,,,,,,,,,36,28,Female,1.4285714285714286,0.75,0.6,0.25,2.7777777777777777,3.375,2.4444444444444446,3.0,2.75,3.6666666666666665,2.0,2.0,2.0,1.0,0.84375,0.875,0.5398155181160704,1.0846442102205087,,,,,,,,,,,,,,,,,,,0.004785646160126726,-0.4680623728587856,0.012577177175775802,-0.10138185286152158,,,,,,,,,,
49,240708_100635,FalseCHOICE,9.0,50,2.0,1068.0,,,,,,,,,,,50.0,50.0,,,B,,,,,,False,cue2.png,Easy,cue1.png,Hard,Left,Easy,Mid,0.0159605001099407,,,,,,,,,,,,,36,28,Female,1.4285714285714286,0.75,0.6,0.25,2.7777777777777777,3.375,2.4444444444444446,3.0,2.75,3.6666666666666665,2.0,2.0,2.0,1.0,1.0,1.0,0.537123363634402,1.0194297116043434,,,,,,,,,,,,,,,,,,,0.012473814609311212,0.14404678995280423,0.010469380564282812,-0.2435512236801661,-9.013052319872501e+42,-0.16480333695260227,,,,,,,,
0,240708_092523,OFFLINERATING,9.0,1,1.0,,,,,,,,,,,,,,,,,T0,cue2.png,Easy,33.0,2.4308817996643484,,,,,,,,,,,,,,,,,,,,,,36,28,Female,1.4285714285714286,0.75,0.6,0.25,2.7777777777777777,3.375,2.4444444444444446,3.0,2.75,3.6666666666666665,2.0,2.0,2.0,1.0,,,,,,,,,,,,,,,,,,,,,,,,,,,,,-1.2500406497455432,0.005476070684545201,-0.8361940816563429,,,,,
1,240708_092531,OFFLINERATING,9.0,2,3.0,,,,,,,,,,,,,,,,,T0,cue1.png,Hard,34.0,2.269092000089586,,,,,,,,,,,,,,,,,,,,,,36,28,Female,1.4285714285714286,0.75,0.6,0.25,2.7777777777777777,3.375,2.4444444444444446,3.0,2.75,3.6666666666666665,2.0,2.0,2.0,1.0,,,,,,,,,,,,,,,,,,,,,,,,,,,,,-0.9274495143273386,0.005624487086704069,-0.6341750833277081,,,,,
2,240708_094439,OFFLINERATING,9.0,3,1.0,,,,,,,,,,,,,,,,,T1,cue2.png,Easy,36.0,1.101746799889952,,,,,,,,,,,,,,,,,,,,,,36,28,Female,1.4285714285714286,0.75,0.6,0.25,2.7777777777777777,3.375,2.4444444444444446,3.0,2.75,3.6666666666666665,2.0,2.0,2.0,1.0,,,,,,,,,,,,,,,,,,,,,,,,,,,,,-0.28226724349092913,0.005930142761393916,-0.21812771702509917,0.013192961080535224,-1.040863324030595,6348.87367390991,-0.7070765479963091,
3,240708_094447,OFFLINERATING,9.0,4,3.0,,,,,,,,,,,,,,,,,T1,cue1.png,Hard,36.0,1.768854399677366,,,,,,,,,,,,,,,,,,,,,,36,28,Female,1.4285714285714286,0.75,0.6,0.25,2.7777777777777777,3.375,2.4444444444444446,3.0,2.75,3.6666666666666665,2.0,2.0,2.0,1.0,,,,,,,,,,,,,,,,,,,,,,,,,,,,,-0.28226724349092913,0.007330874205453095,1.688496882009149,0.022874454763882963,1.6343834872524328,-3582.4098798010054,-0.7071370139459064,
4,240708_094854,OFFLINERATING,9.0,5,1.0,,,,,,,,,,,,,,,,,T2,cue2.png,Easy,44.0,1.00165869994089,,,,,,,,,,,,,,,,,,,,,,36,28,Female,1.4285714285714286,0.75,0.6,0.25,2.7777777777777777,3.375,2.4444444444444446,3.0,2.75,3.6666666666666665,2.0,2.0,2.0,1.0,,,,,,,,,,,,,,,,,,,,,,,,,,,,,2.2984618398547085,,,,,348419525.57624865,1.4142135619422158,
5,240708_094900,OFFLINERATING,9.0,6,3.0,,,,,,,,,,,,,,,,,T2,cue1.png,Hard,37.0,0.526496300008148,,,,,,,,,,,,,,,,,,,,,,36,28,Female,1.4285714285714286,0.75,0.6,0.25,2.7777777777777777,3.375,2.4444444444444446,3.0,2.75,3.6666666666666665,2.0,2.0,2.0,1.0,,,,,,,,,,,,,,,,,,,,,,,,,,,,,0.04032389192727559,,,,,,,
6,240708_100649,OFFLINERATING,9.0,7,1.0,,,,,,,,,,,,,,,,,T3,cue2.png,Easy,38.0,0.6967155002057552,,,,,,,,,,,,,,,,,,,,,,36,28,Female,1.4285714285714286,0.75,0.6,0.25,2.7777777777777777,3.375,2.4444444444444446,3.0,2.75,3.6666666666666665,2.0,2.0,2.0,1.0,,,,,,,,,,,,,,,,,,,,,,,,,,,,,0.3629150273454803,,,0.015212354015984239,-0.4828528880397533,,,
7,240708_100656,OFFLINERATING,9.0,8,3.0,,,,,,,,,,,,,,,,,T3,cue1.png,Hard,37.0,0.8348757000640035,,,,,,,,,,,,,,,,,,,,,,36,28,Female,1.4285714285714286,0.75,0.6,0.25,2.7777777777777777,3.375,2.4444444444444446,3.0,2.75,3.6666666666666665,2.0,2.0,2.0,1.0,,,,,,,,,,,,,,,,,,,,,,,,,,,,,0.04032389192727559,,,0.01655926251232081,-0.1106672751820846,,,
0,240708_094918,LEARNINGCHECK,9.0,1,,,,,,,,,,,,1.0,1.0,1.0,,,B,,,,,,,,,,,,,,,cue2.png,Easy,Left,Left,Easy,0.0127916000783443,1.0,,,,,,36,28,Female,1.4285714285714286,0.75,0.6,0.25,2.7777777777777777,3.375,2.4444444444444446,3.0,2.75,3.6666666666666665,2.0,2.0,2.0,1.0,,,,,,,,,,,,,,,,,,,,,,,,,,,,,,,,,,,,
1,240708_094923,LEARNINGCHECK,9.0,2,,,,,,,,,,,,2.0,2.0,2.0,,,B,,,,,,,,,,,,,,,cue1.png,Hard,Right,Right,Hard,0.0157225998118519,1.0,,,,,,36,28,Female,1.4285714285714286,0.75,0.6,0.25,2.7777777777777777,3.375,2.4444444444444446,3.0,2.75,3.6666666666666665,2.0,2.0,2.0,1.0,,,,,,,,,,,,,,,,,,,,,,,,,,,,,,,,,,,,
2,240708_100711,LEARNINGCHECK,9.0,1,,,,,,,,,,,,1.0,1.0,1.0,,,B,,,,,,,,,,,,,,,cue2.png,Easy,Middle,Middle,Mid,0.0162243000231683,1.0,,,,,,36,28,Female,1.4285714285714286,0.75,0.6,0.25,2.7777777777777777,3.375,2.4444444444444446,3.0,2.75,3.6666666666666665,2.0,2.0,2.0,1.0,,,,,,,,,,,,,,,,,,,,,,,,,,,,,,,,,,,,
3,240708_100716,LEARNINGCHECK,9.0,2,,,,,,,,,,,,2.0,2.0,2.0,,,B,,,,,,,,,,,,,,,cue1.png,Hard,Middle,Middle,Mid,0.0162869999185204,1.0,,,,,,36,28,Female,1.4285714285714286,0.75,0.6,0.25,2.7777777777777777,3.375,2.4444444444444446,3.0,2.75,3.6666666666666665,2.0,2.0,2.0,1.0,,,,,,,,,,,,,,,,,,,,,,,,,,,,,,,,,,,,
0,240708_100733,DEMANDRATING,9.0,-1,,,,,,,,,,,,,,,,,,,,,,,,,,,,,,,,,,,,,,,1.0,MentalDemand,1.0,9.0,3.3728273999877274,36,28,Female,1.4285714285714286,0.75,0.6,0.25,2.7777777777777777,3.375,2.4444444444444446,3.0,2.75,3.6666666666666665,2.0,2.0,2.0,1.0,,,,,,,,,,,,,,,,,,,,,,,,,,,,,,,,,,,,-1.2105608410021698
1,240708_100739,DEMANDRATING,9.0,-1,,,,,,,,,,,,,,,,,,,,,,,,,,,,,,,,,,,,,,,2.0,Effort,1.0,15.0,3.925321199931204,36,28,Female,1.4285714285714286,0.75,0.6,0.25,2.7777777777777777,3.375,2.4444444444444446,3.0,2.75,3.6666666666666665,2.0,2.0,2.0,1.0,,,,,,,,,,,,,,,,,,,,,,,,,,,,,,,,,,,,-1.0412077699811408
2,240708_100746,DEMANDRATING,9.0,-1,,,,,,,,,,,,,,,,,,,,,,,,,,,,,,,,,,,,,,,3.0,Frustration,1.0,1.0,5.19229849986732,36,28,Female,1.4285714285714286,0.75,0.6,0.25,2.7777777777777777,3.375,2.4444444444444446,3.0,2.75,3.6666666666666665,2.0,2.0,2.0,1.0,,,,,,,,,,,,,,,,,,,,,,,,,,,,,,,,,,,,-1.436364935696875
3,240708_100750,DEMANDRATING,9.0,-1,,,,,,,,,,,,,,,,,,,,,,,,,,,,,,,,,,,,,,,4.0,MentalDemand,2.0,34.0,2.8567073000594974,36,28,Female,1.4285714285714286,0.75,0.6,0.25,2.7777777777777777,3.375,2.4444444444444446,3.0,2.75,3.6666666666666665,2.0,2.0,2.0,1.0,,,,,,,,,,,,,,,,,,,,,,,,,,,,,,,,,,,,-0.5049230450812159
4,240708_100757,DEMANDRATING,9.0,-1,,,,,,,,,,,,,,,,,,,,,,,,,,,,,,,,,,,,,,,5.0,Effort,2.0,66.0,5.814592699985951,36,28,Female,1.4285714285714286,0.75,0.6,0.25,2.7777777777777777,3.375,2.4444444444444446,3.0,2.75,3.6666666666666665,2.0,2.0,2.0,1.0,,,,,,,,,,,,,,,,,,,,,,,,,,,,,,,,,,,,0.3982933336976052
5,240708_100801,DEMANDRATING,9.0,-1,,,,,,,,,,,,,,,,,,,,,,,,,,,,,,,,,,,,,,,6.0,Frustration,2.0,67.0,2.3707377002574503,36,28,Female,1.4285714285714286,0.75,0.6,0.25,2.7777777777777777,3.375,2.4444444444444446,3.0,2.75,3.6666666666666665,2.0,2.0,2.0,1.0,,,,,,,,,,,,,,,,,,,,,,,,,,,,,,,,,,,,0.42651884553444336
6,240708_100805,DEMANDRATING,9.0,-1,,,,,,,,,,,,,,,,,,,,,,,,,,,,,,,,,,,,,,,7.0,MentalDemand,3.0,92.0,1.9636917999014256,36,28,Female,1.4285714285714286,0.75,0.6,0.25,2.7777777777777777,3.375,2.4444444444444446,3.0,2.75,3.6666666666666665,2.0,2.0,2.0,1.0,,,,,,,,,,,,,,,,,,,,,,,,,,,,,,,,,,,,1.1321566414553974
7,240708_100808,DEMANDRATING,9.0,-1,,,,,,,,,,,,,,,,,,,,,,,,,,,,,,,,,,,,,,,8.0,Effort,3.0,94.0,1.611113800201565,36,28,Female,1.4285714285714286,0.75,0.6,0.25,2.7777777777777777,3.375,2.4444444444444446,3.0,2.75,3.6666666666666665,2.0,2.0,2.0,1.0,,,,,,,,,,,,,,,,,,,,,,,,,,,,,,,,,,,,1.1886076651290738
8,240708_100811,DEMANDRATING,9.0,-1,,,,,,,,,,,,,,,,,,,,,,,,,,,,,,,,,,,,,,,9.0,Frustration,3.0,89.0,1.671608299948275,36,28,Female,1.4285714285714286,0.75,0.6,0.25,2.7777777777777777,3.375,2.4444444444444446,3.0,2.75,3.6666666666666665,2.0,2.0,2.0,1.0,,,,,,,,,,,,,,,,,,,,,,,,,,,,,,,,,,,,1.0474801059448828
