,END,Phase,Block,TrialN,NbackLevel,ISI,Letter_Resp,Letter_RT,Letter_Accuracy,Trial_A_measure,Trial_ACC,Trial_RT,TrialCountCali,CaliEnd_A_measure,ISI_calibrated,TrialIndex,TrialNumber_total,TrialNumber_valid,CueLearning,TrialDemandLearning,CueMapping,OfflineRatingTimePoint,CueFigure,TrialDemand,OfflineRating,OfflineRatingRT,PhaseType,CueLeft,CueDemandLeft,CueRight,CueDemandRight,Choice,ChoiceDemand,TaskDemand,ChoiceRT,CueCheck,CueDemandCheck,CorrectAnswer,Answer,AnswerDemand,AnswerRT,AnswerACC,DemandRatingQuesIndex,QuesTLX,DemandLevel,DemandRating,DemandRatingRT,PID,Age,Gender,BAI_bis,BAI_bas_d,BAI_bas_rr,BAI_bas_fs,NFC,BFI_ext,BFI_agr,BFI_con,BFI_neu,BFI_open,UPPS_lps,UPPS_lpm,UPPS_pu,UPPS_ss,Task_A_measure,Task_ACC,Task_RT,Task_RT_z,cue_i_on_zyg_values,cue_i_on_zyg_zvalues,cue_e_on_zyg_values,cue_e_on_zyg_zvalues,cue_i_on_cor_values,cue_i_on_cor_zvalues,cue_e_on_cor_values,cue_e_on_cor_zvalues,cue_i_on_scr_values,cue_i_on_scr_zvalues,cue_e_on_scr_values,cue_e_on_scr_zvalues,cue_e_true_zyg_values,cue_e_true_zyg_zvalues,cue_e_true_cor_values,cue_e_true_cor_zvalues,cue_e_true_scr_values,cue_e_true_scr_zvalues,cue_e_false_zyg_values,cue_e_false_zyg_zvalues,cue_e_false_cor_values,cue_e_false_cor_zvalues,cue_e_false_scr_values,cue_e_false_scr_zvalues,OfflineRating_z,cue_i_off_zyg_values,cue_i_off_zyg_zvalues,cue_i_off_cor_values,cue_i_off_cor_zvalues,cue_i_off_scr_values,cue_i_off_scr_zvalues,DemandRating_z
0,240708_092225,PRACTICE,0.0,1,3.0,1068.0,,,,,,,,,,46.0,1.0,1.0,cue1.png,Hard,B,,,,,,,,,,,,,,,,,,,,,,,,,,,36,28,Female,1.4285714285714286,0.75,0.6,0.25,2.7777777777777777,3.375,2.4444444444444446,3.0,2.75,3.6666666666666665,2.0,2.0,2.0,1.0,,,,,,,,,,,,,,,,,,,,,,,,,,,,,,,,,,,,
0,240708_092607,LEARNING,1.0,1,1.0,1068.0,,,,,,,,,,1.0,1.0,1.0,cue2.png,Easy,B,,,,,,,,,,,,,,,,,,,,,,,,,,,36,28,Female,1.4285714285714286,0.75,0.6,0.25,2.7777777777777777,3.375,2.4444444444444446,3.0,2.75,3.6666666666666665,2.0,2.0,2.0,1.0,0.84375,0.875,0.4920307000336999,0.47328198565335117,,,-2.0261780116268176e-05,-0.40088280930612874,,,,,,,,,,,,,,,,,,,,,,,,,,,,
1,240708_092628,LEARNING,1.0,2,3.0,1068.0,,,,,,,,,,2.0,2.0,2.0,cue1.png,Hard,B,,,,,,,,,,,,,,,,,,,,,,,,,,,36,28,Female,1.4285714285714286,0.75,0.6,0.25,2.7777777777777777,3.375,2.4444444444444446,3.0,2.75,3.6666666666666665,2.0,2.0,2.0,1.0,0.5833333333333334,0.75,0.413329290988093,-1.5948960338703326,2.977679301450738e-05,0.2777709723621315,3.570676638785502e-05,0.20261487186369084,,,,,1.4400000000000002,-0.19226548036514035,1.4600000000000002,0.16943100137067782,,,,,,,,,,,,,,,,,,,,
2,240708_092651,LEARNING,1.0,3,1.0,1068.0,,,,,,,,,,3.0,3.0,3.0,cue2.png,Easy,B,,,,,,,,,,,,,,,,,,,,,,,,,,,36,28,Female,1.4285714285714286,0.75,0.6,0.25,2.7777777777777777,3.375,2.4444444444444446,3.0,2.75,3.6666666666666665,2.0,2.0,2.0,1.0,0.84375,0.875,0.5553690454583954,2.137737239871773,-0.00010671955846203434,-0.6627158112052062,-7.330553616232338e-05,-0.9728430579428091,,,,,1.4430000000000003,-0.18604918952381128,1.9680000000000002,1.2316496059711637,,,,,,,,,,,,,,,,,,,,
3,240708_092713,LEARNING,1.0,4,3.0,1068.0,,,,,,,,,,4.0,4.0,4.0,cue1.png,Hard,B,,,,,,,,,,,,,,,,,,,,,,,,,,,36,28,Female,1.4285714285714286,0.75,0.6,0.25,2.7777777777777777,3.375,2.4444444444444446,3.0,2.75,3.6666666666666665,2.0,2.0,2.0,1.0,0.15625,0.625,0.4303837546401403,-1.1467253176447807,0.00025137845956511515,1.8046501625590998,-3.4432943586484594e-05,-0.5536876403753798,,,,,1.934,0.8313504115070091,1.59,0.4412585970361563,,,,,,,,,,,,,,,,,,,,
4,240708_092735,LEARNING,1.0,5,3.0,1068.0,,,,,,,,,,5.0,5.0,5.0,cue1.png,Hard,B,,,,,,,,,,,,,,,,,,,,,,,,,,,36,28,Female,1.4285714285714286,0.75,0.6,0.25,2.7777777777777777,3.375,2.4444444444444446,3.0,2.75,3.6666666666666665,2.0,2.0,2.0,1.0,0.84375,0.875,0.4753043636764315,0.03373405861158727,3.4654866069221395e-05,0.3113818578371395,-5.300623802497557e-05,-0.7539597722322942,,,,,1.5730000000000002,0.08332341360043848,1.542,0.34089148479044096,,,,,,,,,,,,,,,,,,,,
5,240708_092756,LEARNING,1.0,6,1.0,1068.0,,,,,,,,,,6.0,6.0,6.0,cue2.png,Easy,B,,,,,,,,,,,,,,,,,,,,,,,,,,,36,28,Female,1.4285714285714286,0.75,0.6,0.25,2.7777777777777777,3.375,2.4444444444444446,3.0,2.75,3.6666666666666665,2.0,2.0,2.0,1.0,1.0,1.0,0.4332245272076265,-1.0720732440188028,2.028949810354598e-05,0.2124016391964878,,,0.0003027777516014887,0.9854029010344433,0.00033721356208955833,0.8648957222784232,1.578,0.09368389833598634,,,,,,,,,,,,,,,,,,,,,,
6,240708_092818,LEARNING,1.0,7,3.0,1068.0,,,,,,,,,,7.0,7.0,7.0,cue1.png,Hard,B,,,,,,,,,,,,,,,,,,,,,,,,,,,36,28,Female,1.4285714285714286,0.75,0.6,0.25,2.7777777777777777,3.375,2.4444444444444446,3.0,2.75,3.6666666666666665,2.0,2.0,2.0,1.0,0.84375,0.875,0.447835754476149,-0.688107830419768,-0.0001762230547026132,-1.141608608843248,-8.3198958128884e-06,-0.2721158511476382,3.027964005741096e-05,0.17313914922374837,0.0001996421442523209,0.47854781965609977,,,,,,,,,,,,,,,,,,,,,,,,
7,240708_092840,LEARNING,1.0,8,3.0,1068.0,,,,,,,,,,8.0,8.0,8.0,cue1.png,Hard,B,,,,,,,,,,,,,,,,,,,,,,,,,,,36,28,Female,1.4285714285714286,0.75,0.6,0.25,2.7777777777777777,3.375,2.4444444444444446,3.0,2.75,3.6666666666666665,2.0,2.0,2.0,1.0,1.0,1.0,0.4908801364627751,0.4430465639968925,-0.00010802950890014418,-0.671741628092204,6.851760809046484e-05,0.5564076380077301,0.0002528106519001719,0.8364607170298924,-0.00018525629386520383,-0.6023795025093833,,,,,,,,,,,,,,,,,,,,,,,,
8,240708_092903,LEARNING,1.0,9,1.0,1068.0,,,,,,,,,,9.0,9.0,9.0,cue2.png,Easy,B,,,,,,,,,,,,,,,,,,,,,,,,,,,36,28,Female,1.4285714285714286,0.75,0.6,0.25,2.7777777777777777,3.375,2.4444444444444446,3.0,2.75,3.6666666666666665,2.0,2.0,2.0,1.0,1.0,1.0,0.491175272798335,0.45080239059986993,-0.0003317046436812662,-2.21290742335847,6.021767723817873e-05,0.4669111379895367,-0.0006550316294762007,-1.8696401559072553,-0.0001458787466750138,-0.4917937935989707,,,,,,,,,,,,,,,,,,,,,,,,
9,240708_092924,LEARNING,1.0,10,1.0,1068.0,,,,,,,,,,10.0,10.0,10.0,cue2.png,Easy,B,,,,,,,,,,,,,,,,,,,,,,,,,,,36,28,Female,1.4285714285714286,0.75,0.6,0.25,2.7777777777777777,3.375,2.4444444444444446,3.0,2.75,3.6666666666666665,2.0,2.0,2.0,1.0,0.5833333333333334,0.75,0.4592240272005173,-0.38883777141445997,-3.4323733575012966e-05,-0.16389429872397002,-1.7774642410102025e-05,-0.3740644991627571,0.00011640301851534047,0.42985615217272005,0.00032439403488030566,0.8288940765313081,,,0.8180000000000001,-1.1729791249157633,,,,,,,,,,,,,,,,,,,,
10,240708_092946,LEARNING,1.0,11,3.0,1068.0,,,,,,,,,,11.0,11.0,11.0,cue1.png,Hard,B,,,,,,,,,,,,,,,,,,,,,,,,,,,36,28,Female,1.4285714285714286,0.75,0.6,0.25,2.7777777777777777,3.375,2.4444444444444446,3.0,2.75,3.6666666666666665,2.0,2.0,2.0,1.0,0.84375,0.875,0.4656675091351975,-0.21951084489423667,-4.407118962993645e-06,0.042237076564234304,7.750026373948109e-07,-0.17404737397507938,0.0001910170337157133,0.652265986798351,-0.00027805307133362683,-0.8629848005332249,,,0.3999999999999999,-2.047009394055533,,,,,,,,,,,,,,,,,,,,
11,240708_093008,LEARNING,1.0,12,1.0,1068.0,,,,,,,,,,12.0,12.0,12.0,cue2.png,Easy,B,,,,,,,,,,,,,,,,,,,,,,,,,,,36,28,Female,1.4285714285714286,0.75,0.6,0.25,2.7777777777777777,3.375,2.4444444444444446,3.0,2.75,3.6666666666666665,2.0,2.0,2.0,1.0,1.0,1.0,0.4388062545437027,-0.9253921880194418,,,-2.1977898192345434e-06,-0.20610240249083292,8.367415814556928e-05,0.332297799324691,0.000163707366743566,0.3776305932440492,1.3550000000000002,-0.36839372086945754,1.5759999999999998,0.41198485596448886,,,,,,,,,,,,,,,,,,,,
12,240708_093030,LEARNING,1.0,13,1.0,1068.0,,,,,,,,,,13.0,13.0,13.0,cue2.png,Easy,B,,,,,,,,,,,,,,,,,,,,,,,,,,,36,28,Female,1.4285714285714286,0.75,0.6,0.25,2.7777777777777777,3.375,2.4444444444444446,3.0,2.75,3.6666666666666665,2.0,2.0,2.0,1.0,0.84375,0.875,0.5058372000401671,0.8361001382912787,0.00013881551146335738,1.0290692487551647,-9.820412313908764e-05,-1.2413195584675336,-0.0003313063493792833,-0.9046782004738251,-0.00019759030574907892,-0.6370176540758063,0.6620000000000001,-1.804356905216421,0.54,-1.7542719833388638,,,,,,,,,,,,,,,,,,,,
13,240708_093053,LEARNING,1.0,14,1.0,1068.0,,,,,,,,,,14.0,14.0,14.0,cue2.png,Easy,B,,,,,,,,,,,,,,,,,,,,,,,,,,,36,28,Female,1.4285714285714286,0.75,0.6,0.25,2.7777777777777777,3.375,2.4444444444444446,3.0,2.75,3.6666666666666665,2.0,2.0,2.0,1.0,0.15625,0.625,0.4960760998708958,0.5795902096728831,6.553623463404021e-05,0.5241605781436333,-2.4658173939292108e-05,-0.4482882476000962,0.00025752058403169954,0.8505001065957521,-6.655528308311537e-06,-0.10080706642906423,,,,,,,,,,,,,,,,,,,,,,,,
14,240708_093114,LEARNING,1.0,15,3.0,1068.0,,,,,,,,,,15.0,15.0,15.0,cue1.png,Hard,B,,,,,,,,,,,,,,,,,,,,,,,,,,,36,28,Female,1.4285714285714286,0.75,0.6,0.25,2.7777777777777777,3.375,2.4444444444444446,3.0,2.75,3.6666666666666665,2.0,2.0,2.0,1.0,0.5833333333333334,0.75,0.4253370000303469,-1.2793479362291058,,,,,,,,,,,,,,,,,,,,,,,,,,,,,,,,
15,240708_093137,LEARNING,1.0,16,1.0,1068.0,,,,,,,,,,16.0,16.0,16.0,cue2.png,Easy,B,,,,,,,,,,,,,,,,,,,,,,,,,,,36,28,Female,1.4285714285714286,0.75,0.6,0.25,2.7777777777777777,3.375,2.4444444444444446,3.0,2.75,3.6666666666666665,2.0,2.0,2.0,1.0,0.5833333333333334,0.5681818181818181,0.3593608666625287,-3.0131210731930533,-2.988594600785441e-05,-0.13331706709804367,0.0001334888754165207,1.2569798633566691,-0.00048427342769343396,-1.360643242693483,-0.00036373682844705827,-1.1036142886202074,,,,,,,,,,,,,,,,,,,,,,,,
16,240708_093200,LEARNING,1.0,17,1.0,1068.0,,,,,,,,,,17.0,17.0,17.0,cue2.png,Easy,B,,,,,,,,,,,,,,,,,,,,,,,,,,,36,28,Female,1.4285714285714286,0.75,0.6,0.25,2.7777777777777777,3.375,2.4444444444444446,3.0,2.75,3.6666666666666665,2.0,2.0,2.0,1.0,1.0,1.0,0.501704363618046,0.7274941863754185,-2.5669414613260257e-05,-0.10426433414060575,-1.2717735198288296e-05,-0.3195368766525728,6.60113636876021e-06,0.10255814543467887,0.0002363404288938803,0.5816092369475755,,,,,,,,,,,,,,,,,,,,,,,,
17,240708_093222,LEARNING,1.0,18,3.0,1068.0,,,,,,,,,,18.0,18.0,18.0,cue1.png,Hard,B,,,,,,,,,,,,,,,,,,,,,,,,,,,36,28,Female,1.4285714285714286,0.75,0.6,0.25,2.7777777777777777,3.375,2.4444444444444446,3.0,2.75,3.6666666666666665,2.0,2.0,2.0,1.0,0.84375,0.875,0.506525554524904,0.8541892631524163,7.28008697394567e-05,0.5742153468621782,,,0.00026065771696747765,0.8598512883485543,,,,,,,,,,,,,,,,,,,,,,,,,,
18,240708_093245,LEARNING,1.0,19,3.0,1068.0,,,,,,,,,,19.0,19.0,19.0,cue1.png,Hard,B,,,,,,,,,,,,,,,,,,,,,,,,,,,36,28,Female,1.4285714285714286,0.75,0.6,0.25,2.7777777777777777,3.375,2.4444444444444446,3.0,2.75,3.6666666666666665,2.0,2.0,2.0,1.0,0.5833333333333334,0.75,0.5263176726346667,1.3743022335657802,-6.459487677745257e-05,-0.3724684459257104,3.8972505471475405e-05,0.23782868546746846,0.0006651130796112665,2.0654538829480362,0.00046745828457283624,1.2306677420054786,,,,,,,,,,,,,,,,,,,,,,,,
19,240708_093307,LEARNING,1.0,20,3.0,1068.0,,,,,,,,,,20.0,20.0,20.0,cue1.png,Hard,B,,,,,,,,,,,,,,,,,,,,,,,,,,,36,28,Female,1.4285714285714286,0.75,0.6,0.25,2.7777777777777777,3.375,2.4444444444444446,3.0,2.75,3.6666666666666665,2.0,2.0,2.0,1.0,0.5833333333333334,0.75,0.4972985727204518,0.6117153203611948,,,4.484954675257379e-05,0.3011996501756709,0.0002476789075097187,0.8211639873450384,2.9167111452494017e-05,-0.00020476141861092018,1.097,-0.9029947332237388,1.577,0.41407583746960813,,,,,,,,,,,,,,,,,,,,
20,240708_093329,LEARNING,1.0,21,1.0,1068.0,,,,,,,,,,21.0,21.0,21.0,cue2.png,Easy,B,,,,,,,,,,,,,,,,,,,,,,,,,,,36,28,Female,1.4285714285714286,0.75,0.6,0.25,2.7777777777777777,3.375,2.4444444444444446,3.0,2.75,3.6666666666666665,2.0,2.0,2.0,1.0,1.0,1.0,0.4700217818502675,-0.1050858145227867,0.0003654395906271912,2.59055385245414,1.5376721341409886e-05,-0.01659995163907333,,,,,0.8659999999999999,-1.38164912800606,2.002,1.302742977145211,,,,,,,,,,,,,,,,,,,,
21,240708_093351,LEARNING,1.0,22,3.0,1068.0,,,,,,,,,,22.0,22.0,22.0,cue1.png,Hard,B,,,,,,,,,,,,,,,,,,,,,,,,,,,36,28,Female,1.4285714285714286,0.75,0.6,0.25,2.7777777777777777,3.375,2.4444444444444446,3.0,2.75,3.6666666666666665,2.0,2.0,2.0,1.0,0.84375,0.875,0.4449889272112738,-0.7629190141837544,,,0.00010965235350136751,0.9999553986979564,-0.0003394840182606596,-0.9290542373168469,0.00012396939170454275,0.2660326788506042,,,0.994,-0.8049663800148076,,,,,,,,,,,,,,,,,,,,
22,240708_093412,LEARNING,1.0,23,3.0,1068.0,,,,,,,,,,23.0,23.0,23.0,cue1.png,Hard,B,,,,,,,,,,,,,,,,,,,,,,,,,,,36,28,Female,1.4285714285714286,0.75,0.6,0.25,2.7777777777777777,3.375,2.4444444444444446,3.0,2.75,3.6666666666666665,2.0,2.0,2.0,1.0,1.0,1.0,0.4168760181743313,-1.5016923251085956,-3.185376095032151e-05,-0.1468757001741423,6.715459719604244e-05,0.5417105632117547,6.81029918589756e-05,0.2858831879486744,-0.0002239699661711744,-0.7111008221945189,1.754,0.4583729610272785,1.5829999999999997,0.4266217265003221,,,,,,,,,,,,,,,,,,,,
23,240708_093435,LEARNING,1.0,24,3.0,1068.0,,,,,,,,,,24.0,24.0,24.0,cue1.png,Hard,B,,,,,,,,,,,,,,,,,,,,,,,,,,,36,28,Female,1.4285714285714286,0.75,0.6,0.25,2.7777777777777777,3.375,2.4444444444444446,3.0,2.75,3.6666666666666665,2.0,2.0,2.0,1.0,0.84375,0.875,0.510533354583789,0.9595094103892768,2.0172791038103235e-05,0.21159750449683837,0.00032690208841291285,3.342515987513976,-0.00020927920238413,-0.5409390623220158,0.0007094953371176759,1.9103911109847924,1.7400000000000002,0.4293636037677443,0.75,-1.3151658672638598,,,,,,,,,,,,,,,,,,,,
24,240708_093456,LEARNING,1.0,25,1.0,1068.0,,,,,,,,,,25.0,25.0,25.0,cue2.png,Easy,B,,,,,,,,,,,,,,,,,,,,,,,,,,,36,28,Female,1.4285714285714286,0.75,0.6,0.25,2.7777777777777777,3.375,2.4444444444444446,3.0,2.75,3.6666666666666665,2.0,2.0,2.0,1.0,1.0,1.0,0.4575745363465764,-0.4321843997518129,-6.734911945420778e-05,-0.39144572120233617,2.4571997144942712e-05,0.08255087452612271,0.00018814157294092838,0.6436947987490955,-0.0005651525190834812,-1.6692588887556405,1.4169999999999998,-0.23992371014866223,1.117,-0.5477756548851624,,,,,,,,,,,,,,,,,,,,
25,240708_093519,LEARNING,1.0,26,1.0,1068.0,,,,,,,,,,26.0,26.0,26.0,cue2.png,Easy,B,,,,,,,,,,,,,,,,,,,,,,,,,,,36,28,Female,1.4285714285714286,0.75,0.6,0.25,2.7777777777777777,3.375,2.4444444444444446,3.0,2.75,3.6666666666666665,2.0,2.0,2.0,1.0,0.84375,0.875,0.4910414635457776,0.447286044980343,4.4093363578152217e-07,0.07564111517673107,-8.823670879416377e-05,-1.1338429163150132,-0.00018685177673175794,-0.47408727828348873,,,0.9849999999999999,-1.135069591300016,1.2079999999999997,-0.3574963379193279,,,,,,,,,,,,,,,,,,,,
26,240708_093542,LEARNING,1.0,27,3.0,1068.0,,,,,,,,,,27.0,27.0,27.0,cue1.png,Hard,B,,,,,,,,,,,,,,,,,,,,,,,,,,,36,28,Female,1.4285714285714286,0.75,0.6,0.25,2.7777777777777777,3.375,2.4444444444444446,3.0,2.75,3.6666666666666665,2.0,2.0,2.0,1.0,0.84375,0.875,0.5565210727297447,2.1680111258083747,,,5.9857110288837057e-05,0.4630232164438496,,,-0.000306754224968871,-0.9435875208085714,1.4020000000000001,-0.2710051643553058,2.294,1.913309576639979,,,,,,,,,,,,,,,,,,,,
27,240708_093604,LEARNING,1.0,28,1.0,1068.0,,,,,,,,,,28.0,28.0,28.0,cue2.png,Easy,B,,,,,,,,,,,,,,,,,,,,,,,,,,,36,28,Female,1.4285714285714286,0.75,0.6,0.25,2.7777777777777777,3.375,2.4444444444444446,3.0,2.75,3.6666666666666665,2.0,2.0,2.0,1.0,0.84375,0.875,0.4931040090424093,0.501487250678316,-9.342059808110622e-05,-0.5710833511566452,2.0535453888865206e-05,0.039025633169265515,6.978044754605423e-05,0.29088335636144624,0.00031666970925562504,0.8072015109447706,1.1119999999999999,-0.8719132790170947,0.937,-0.9241523258065943,,,,,,,,,,,,,,,,,,,,
28,240708_093626,LEARNING,1.0,29,1.0,1068.0,,,,,,,,,,29.0,29.0,29.0,cue2.png,Easy,B,,,,,,,,,,,,,,,,,,,,,,,,,,,36,28,Female,1.4285714285714286,0.75,0.6,0.25,2.7777777777777777,3.375,2.4444444444444446,3.0,2.75,3.6666666666666665,2.0,2.0,2.0,1.0,1.0,1.0,0.4603456454774873,-0.359362997139693,6.11363822375895e-05,0.4938447273260373,-0.00010490965778259991,-1.3136240019653727,-6.674215323827087e-05,-0.1160639039027495,-0.0007981003846285334,-2.323456691530028,1.6469999999999998,0.2366585876865492,1.175,-0.42649872758825647,,,,,,,,,,,,,,,,,,,,
29,240708_093648,LEARNING,1.0,30,3.0,1068.0,,,,,,,,,,30.0,30.0,30.0,cue1.png,Hard,B,,,,,,,,,,,,,,,,,,,,,,,,,,,36,28,Female,1.4285714285714286,0.75,0.6,0.25,2.7777777777777777,3.375,2.4444444444444446,3.0,2.75,3.6666666666666665,2.0,2.0,2.0,1.0,0.84375,0.875,0.4891690727407959,0.3980818750197093,6.159448697256372e-05,0.4970011593044182,-0.00013938916847271816,-1.6854096931986338,-2.5347175477444424e-05,0.0073264555812295505,1.0983601657024548e-05,-0.05127031691142167,2.485,1.9730758293644068,1.098,-0.5875043034824246,,,,,,,,,,,,,,,,,,,,
30,240708_093710,LEARNING,1.0,31,3.0,1068.0,,,,,,,,,,31.0,31.0,31.0,cue1.png,Hard,B,,,,,,,,,,,,,,,,,,,,,,,,,,,36,28,Female,1.4285714285714286,0.75,0.6,0.25,2.7777777777777777,3.375,2.4444444444444446,3.0,2.75,3.6666666666666665,2.0,2.0,2.0,1.0,0.84375,0.875,0.4845106362534517,0.2756637879065637,-3.420555089209869e-05,-0.16307999672889797,-5.5357462808259834e-05,-0.7793125604187183,0.0002776828147543469,0.9105997861085819,0.00020535593592043225,0.49459411373157014,,,,,,,,,,,,,,,,,,,,,,,,
31,240708_093732,LEARNING,1.0,32,1.0,1068.0,,,,,,,,,,32.0,32.0,32.0,cue2.png,Easy,B,,,,,,,,,,,,,,,,,,,,,,,,,,,36,28,Female,1.4285714285714286,0.75,0.6,0.25,2.7777777777777777,3.375,2.4444444444444446,3.0,2.75,3.6666666666666665,2.0,2.0,2.0,1.0,0.15625,0.625,0.5030274000018835,0.7622619853419794,3.5932330171060435e-05,0.3201838374597803,,,-0.00018516028608853933,-0.4690452744023309,2.0805776367821202e-05,-0.023686268870309207,1.21,-0.6688477782003522,0.7229999999999999,-1.371622367902075,,,,,,,,,,,,,,,,,,,,
32,240708_093754,LEARNING,1.0,33,1.0,1068.0,,,,,,,,,,33.0,33.0,33.0,cue2.png,Easy,B,,,,,,,,,,,,,,,,,,,,,,,,,,,36,28,Female,1.4285714285714286,0.75,0.6,0.25,2.7777777777777777,3.375,2.4444444444444446,3.0,2.75,3.6666666666666665,2.0,2.0,2.0,1.0,1.0,1.0,0.4729059908793054,-0.029292283124749817,-8.200267598897429e-05,-0.4924116159249741,-5.5590383888971286e-06,-0.24234607584542509,0.00022529036575781678,0.7544281086340818,-0.00039200462084942704,-1.1829999813615546,,,1.2489999999999999,-0.27176609620944586,,,,,,,,,,,,,,,,,,,,
33,240708_093818,LEARNING,1.0,34,1.0,1068.0,,,,,,,,,,34.0,34.0,34.0,cue2.png,Easy,B,,,,,,,,,,,,,,,,,,,,,,,,,,,36,28,Female,1.4285714285714286,0.75,0.6,0.25,2.7777777777777777,3.375,2.4444444444444446,3.0,2.75,3.6666666666666665,2.0,2.0,2.0,1.0,0.9166666666666666,0.9090909090909092,0.5118146700318903,0.9931808335311874,-4.1522711605526674e-05,-0.2134966772465443,0.0002050382925568705,2.0284829669806337,0.00022074610396181134,0.7408825500439031,0.0004491099838191785,1.1791393967699433,1.713,0.3734169861957844,2.107,1.522296035182714,,,,,,,,,,,,,,,,,,,,
34,240708_093840,LEARNING,1.0,35,3.0,1068.0,,,,,,,,,,35.0,35.0,35.0,cue1.png,Hard,B,,,,,,,,,,,,,,,,,,,,,,,,,,,36,28,Female,1.4285714285714286,0.75,0.6,0.25,2.7777777777777777,3.375,2.4444444444444446,3.0,2.75,3.6666666666666665,2.0,2.0,2.0,1.0,0.84375,0.875,0.5037865818647499,0.7822123681958801,6.45140024910255e-05,0.5171171970580349,0.00012160813698776146,1.1288722289764703,0.0001295740485675618,0.4691164252983127,5.3511073708810766e-05,0.06816146542636092,1.355,-0.36839372086945804,1.6249999999999998,0.514442949715323,,,,,,,,,,,,,,,,,,,,
35,240708_093903,LEARNING,1.0,36,3.0,1068.0,,,,,,,,,,36.0,36.0,36.0,cue1.png,Hard,B,,,,,,,,,,,,,,,,,,,,,,,,,,,36,28,Female,1.4285714285714286,0.75,0.6,0.25,2.7777777777777777,3.375,2.4444444444444446,3.0,2.75,3.6666666666666665,2.0,2.0,2.0,1.0,0.84375,0.875,0.4868852272629738,0.3380651729746023,0.00016800054812341836,1.2301599076614054,-0.00012071461239559827,-1.484045677276095,,,0.00016983859604411278,0.39484919590150913,0.7369999999999999,-1.6489496341832004,1.483,0.21752357598841615,,,,,,,,,,,,,,,,,,,,
36,240708_093924,LEARNING,1.0,37,1.0,1068.0,,,,,,,,,,37.0,37.0,37.0,cue2.png,Easy,B,,,,,,,,,,,,,,,,,,,,,,,,,,,36,28,Female,1.4285714285714286,0.75,0.6,0.25,2.7777777777777777,3.375,2.4444444444444446,3.0,2.75,3.6666666666666665,2.0,2.0,2.0,1.0,1.0,1.0,0.4306292908943512,-1.1402729213012677,,,2.8306575523495692e-05,0.12282008879699233,,,0.0006132528318234165,1.6401090229747175,1.525,-0.016137239860823598,1.731,0.7360869892579447,,,,,,,,,,,,,,,,,,,,
37,240708_093946,LEARNING,1.0,38,3.0,1068.0,,,,,,,,,,38.0,38.0,38.0,cue1.png,Hard,B,,,,,,,,,,,,,,,,,,,,,,,,,,,36,28,Female,1.4285714285714286,0.75,0.6,0.25,2.7777777777777777,3.375,2.4444444444444446,3.0,2.75,3.6666666666666665,2.0,2.0,2.0,1.0,0.84375,0.875,0.4833098544569855,0.24410869190750165,1.058879001998754e-05,0.145561847179047,,,-0.0006701630644103031,-1.9147440138393694,,,2.2560000000000002,1.4985656284763058,1.8920000000000001,1.0727350115821144,,,,,,,,,,,,,,,,,,,,
38,240708_094008,LEARNING,1.0,39,3.0,1068.0,,,,,,,,,,39.0,39.0,39.0,cue1.png,Hard,B,,,,,,,,,,,,,,,,,,,,,,,,,,,36,28,Female,1.4285714285714286,0.75,0.6,0.25,2.7777777777777777,3.375,2.4444444444444446,3.0,2.75,3.6666666666666665,2.0,2.0,2.0,1.0,0.5833333333333334,0.75,0.4912798545238646,0.45355067209326455,-7.827369261759632e-05,-0.46671818500915896,,,-0.00013161837901972794,-0.30944728648094455,2.578224141530118e-05,-0.009710641782988643,0.8350000000000002,-1.4458841333664574,1.9019999999999997,1.0936448266333043,,,,,,,,,,,,,,,,,,,,
39,240708_094030,LEARNING,1.0,40,3.0,1068.0,,,,,,,,,,40.0,40.0,40.0,cue1.png,Hard,B,,,,,,,,,,,,,,,,,,,,,,,,,,,36,28,Female,1.4285714285714286,0.75,0.6,0.25,2.7777777777777777,3.375,2.4444444444444446,3.0,2.75,3.6666666666666665,2.0,2.0,2.0,1.0,0.84375,0.875,0.424070127223703,-1.3126398241890131,-0.0005370896055957317,-3.628050320106392,6.881815274712919e-05,0.559648351135264,0.00018244656933743327,0.6267191031476157,0.00047354323645979867,1.247756381753795,1.7329999999999999,0.4148589251379763,1.7360000000000002,0.7465418967835402,,,,,,,,,,,,,,,,,,,,
40,240708_094052,LEARNING,1.0,41,1.0,1068.0,,,,,,,,,,41.0,41.0,41.0,cue2.png,Easy,B,,,,,,,,,,,,,,,,,,,,,,,,,,,36,28,Female,1.4285714285714286,0.75,0.6,0.25,2.7777777777777777,3.375,2.4444444444444446,3.0,2.75,3.6666666666666665,2.0,2.0,2.0,1.0,1.0,1.0,0.4751647181216288,0.030064342014776313,0.00012719939370102072,0.9490319062646078,,,-0.00018624175122884494,-0.47226891117302106,,,2.4530000000000003,1.9067687270569,1.132,-0.5164109323083766,,,,,,,,,,,,,,,,,,,,
41,240708_094114,LEARNING,1.0,42,3.0,1068.0,,,,,,,,,,42.0,42.0,42.0,cue1.png,Hard,B,,,,,,,,,,,,,,,,,,,,,,,,,,,36,28,Female,1.4285714285714286,0.75,0.6,0.25,2.7777777777777777,3.375,2.4444444444444446,3.0,2.75,3.6666666666666665,2.0,2.0,2.0,1.0,0.84375,0.875,0.4840796364217319,0.26433763264211696,1.246403557812921e-06,0.08119096180660039,,,-0.00014337955058799697,-0.34450504629292844,,,,,,,,,,,,,,,,,,,,,,,,,,
42,240708_094137,LEARNING,1.0,43,3.0,1068.0,,,,,,,,,,43.0,43.0,43.0,cue1.png,Hard,B,,,,,,,,,,,,,,,,,,,,,,,,,,,36,28,Female,1.4285714285714286,0.75,0.6,0.25,2.7777777777777777,3.375,2.4444444444444446,3.0,2.75,3.6666666666666665,2.0,2.0,2.0,1.0,0.84375,0.875,0.5486761817962609,1.961856862613546,-0.00020369976631894916,-1.3309285712562817,,,-0.00028424119692812373,-0.7643861555385433,0.0008054992147610053,2.180003050399368,2.276,1.5400075674184972,,,,,,,,,,,,,,,,,,,,,,
43,240708_094159,LEARNING,1.0,44,1.0,1068.0,,,,,,,,,,44.0,44.0,44.0,cue2.png,Easy,B,,,,,,,,,,,,,,,,,,,,,,,,,,,36,28,Female,1.4285714285714286,0.75,0.6,0.25,2.7777777777777777,3.375,2.4444444444444446,3.0,2.75,3.6666666666666665,2.0,2.0,2.0,1.0,0.84375,0.875,0.489363454493948,0.40318999283031576,8.941171980374977e-05,0.6886673800505608,-5.465622073461346e-05,-0.7717512069118316,-0.0002162583841933347,-0.5617426428268172,0.00027110760619985987,0.679247440023708,1.66,0.26359584799897445,1.8210000000000002,0.9242753247186608,,,,,,,,,,,,,,,,,,,,
44,240708_094221,LEARNING,1.0,45,1.0,1068.0,,,,,,,,,,45.0,45.0,45.0,cue2.png,Easy,B,,,,,,,,,,,,,,,,,,,,,,,,,,,36,28,Female,1.4285714285714286,0.75,0.6,0.25,2.7777777777777777,3.375,2.4444444444444446,3.0,2.75,3.6666666666666665,2.0,2.0,2.0,1.0,0.84375,0.875,0.4843659182502465,0.2718607734893134,,,,,-0.0012303422841906412,-3.5845290709426547,-0.0004889913079207178,-1.4553719879989564,1.651,0.24494697547498814,1.547,0.3513463923160361,,,,,,,,,,,,,,,,,,,,
45,240708_094243,LEARNING,1.0,46,1.0,1068.0,,,,,,,,,,46.0,46.0,46.0,cue2.png,Easy,B,,,,,,,,,,,,,,,,,,,,,,,,,,,36,28,Female,1.4285714285714286,0.75,0.6,0.25,2.7777777777777777,3.375,2.4444444444444446,3.0,2.75,3.6666666666666665,2.0,2.0,2.0,1.0,1.0,1.0,0.4433545273813334,-0.8058690686286141,-5.950822638218188e-06,0.03160065376913475,8.849401083083422e-06,-0.08698274494356993,-4.5878872246550226e-05,-0.05387453019520143,-0.0002461549201811016,-0.7734038106077711,0.8389999999999999,-1.4375957455780197,0.7370000000000001,-1.3423486268304075,,,,,,,,,,,,,,,,,,,,
46,240708_094304,LEARNING,1.0,47,3.0,1068.0,,,,,,,,,,47.0,47.0,47.0,cue1.png,Hard,B,,,,,,,,,,,,,,,,,,,,,,,,,,,36,28,Female,1.4285714285714286,0.75,0.6,0.25,2.7777777777777777,3.375,2.4444444444444446,3.0,2.75,3.6666666666666665,2.0,2.0,2.0,1.0,0.84375,0.875,0.4358511273325844,-1.0030493636284512,,,2.2702373742171638e-05,0.0623910980318368,0.0001260863483858385,0.45872027092225137,-0.00017164133564143494,-0.564144012632649,2.0149999999999997,0.9991902642228874,0.7750000000000001,-1.262891329635883,,,,,,,,,,,,,,,,,,,,
47,240708_094326,LEARNING,1.0,48,3.0,1068.0,,,,,,,,,,48.0,48.0,48.0,cue1.png,Hard,B,,,,,,,,,,,,,,,,,,,,,,,,,,,36,28,Female,1.4285714285714286,0.75,0.6,0.25,2.7777777777777777,3.375,2.4444444444444446,3.0,2.75,3.6666666666666665,2.0,2.0,2.0,1.0,0.84375,0.875,0.4483657182109626,-0.6741810232535703,,,0.00019498125369340038,1.9200399215088018,0.00043037008623366714,1.3657307786970192,-0.0004114950263753433,-1.237735749986875,2.285,1.5586564399424845,1.7960000000000003,0.8720007870906844,,,,,,,,,,,,,,,,,,,,
48,240708_094348,LEARNING,1.0,49,1.0,1068.0,,,,,,,,,,49.0,49.0,49.0,cue2.png,Easy,B,,,,,,,,,,,,,,,,,,,,,,,,,,,36,28,Female,1.4285714285714286,0.75,0.6,0.25,2.7777777777777777,3.375,2.4444444444444446,3.0,2.75,3.6666666666666665,2.0,2.0,2.0,1.0,1.0,1.0,0.424774309112267,-1.2941347742625153,,,,,-0.00015958527020763086,-0.392811137459754,5.071874355414181e-06,-0.06787248238851593,,,,,,,,,,,,,,,,,,,,,,,,
49,240708_094410,LEARNING,1.0,50,1.0,1068.0,,,,,,,,,,50.0,50.0,50.0,cue2.png,Easy,B,,,,,,,,,,,,,,,,,,,,,,,,,,,36,28,Female,1.4285714285714286,0.75,0.6,0.25,2.7777777777777777,3.375,2.4444444444444446,3.0,2.75,3.6666666666666665,2.0,2.0,2.0,1.0,1.0,1.0,0.4729541635394774,-0.028026363770600134,2.7047967145709968e-05,0.25896882390542575,-8.344874508494369e-05,-1.0822152579868358,0.00010622759973369367,0.399525212303111,-0.00011936337993097724,-0.4173295154090037,1.549,0.033593086869807214,,,,,,,,,,,,,,,,,,,,,,
0,240708_094535,TrueCHOICE,9.0,1,1.0,1068.0,,,,,,,,,,,1.0,1.0,,,B,,,,,,True,cue2.png,Easy,cue1.png,Hard,Left,Easy,Easy,0.0161332003772258,,,,,,,,,,,,,36,28,Female,1.4285714285714286,0.75,0.6,0.25,2.7777777777777777,3.375,2.4444444444444446,3.0,2.75,3.6666666666666665,2.0,2.0,2.0,1.0,1.0,1.0,0.4279221999882297,-1.03289894571634,,,,,,,,,,,,,-1.311738856687051e-05,-0.5461082527079284,-0.0001234164412679548,0.5728152543114801,1.4559999999999997,0.6435911736286932,,,,,,,,,,,,,,
1,240708_094555,TrueCHOICE,9.0,2,1.0,1068.0,,,,,,,,,,,2.0,2.0,,,B,,,,,,True,cue2.png,Easy,cue1.png,Hard,Left,Easy,Easy,0.0162354996427893,,,,,,,,,,,,,36,28,Female,1.4285714285714286,0.75,0.6,0.25,2.7777777777777777,3.375,2.4444444444444446,3.0,2.75,3.6666666666666665,2.0,2.0,2.0,1.0,0.84375,0.875,0.5050518817945637,1.7727892569304544,,,,,,,,,,,,,-2.303031365658882e-05,-0.6968291265648987,-0.0001303287997028472,0.5499028318644349,1.465,0.6795683199806092,,,,,,,,,,,,,,
2,240708_094615,TrueCHOICE,9.0,3,1.0,1068.0,,,,,,,,,,,3.0,3.0,,,B,,,,,,True,cue1.png,Hard,cue2.png,Easy,Right,Easy,Easy,0.0164008000865578,,,,,,,,,,,,,36,28,Female,1.4285714285714286,0.75,0.6,0.25,2.7777777777777777,3.375,2.4444444444444446,3.0,2.75,3.6666666666666665,2.0,2.0,2.0,1.0,0.84375,0.875,0.4444097636944868,-0.433143288780204,,,,,,,,,,,,,,,-1.810933654024672e-05,0.921877140051787,1.1019999999999999,-0.7715099162132794,,,,,,,,,,,,,,
3,240708_094636,TrueCHOICE,9.0,4,1.0,1068.0,,,,,,,,,,,4.0,4.0,,,B,,,,,,True,cue2.png,Easy,cue1.png,Hard,Left,Easy,Easy,0.016115800011903,,,,,,,,,,,,,36,28,Female,1.4285714285714286,0.75,0.6,0.25,2.7777777777777777,3.375,2.4444444444444446,3.0,2.75,3.6666666666666665,2.0,2.0,2.0,1.0,1.0,1.0,0.4805979272350669,0.883246214500754,,,,,,,,,,,,,5.276966212043339e-05,0.45567010893316917,,,1.3960000000000001,0.40374353128259766,,,,,,,,,,,,,,
4,240708_094656,TrueCHOICE,9.0,5,1.0,1068.0,,,,,,,,,,,5.0,5.0,,,B,,,,,,True,cue1.png,Hard,cue2.png,Easy,Right,Easy,Easy,0.0168277998454868,,,,,,,,,,,,,36,28,Female,1.4285714285714286,0.75,0.6,0.25,2.7777777777777777,3.375,2.4444444444444446,3.0,2.75,3.6666666666666665,2.0,2.0,2.0,1.0,1.0,1.0,0.468556936322288,0.4452401789386232,,,,,,,,,,,,,9.507303763357745e-05,1.098870946903167,-0.0003875359029452338,-0.30266259300158893,1.5770000000000002,1.1272839190266577,,,,,,,,,,,,,,
5,240708_094716,TrueCHOICE,9.0,6,1.0,1068.0,,,,,,,,,,,6.0,6.0,,,B,,,,,,True,cue1.png,Hard,cue2.png,Easy,Right,Easy,Easy,0.0160823999904096,,,,,,,,,,,,,36,28,Female,1.4285714285714286,0.75,0.6,0.25,2.7777777777777777,3.375,2.4444444444444446,3.0,2.75,3.6666666666666665,2.0,2.0,2.0,1.0,0.84375,0.875,0.4110145907933739,-1.6479342802595438,,,,,,,,,,,,,6.847869752177197e-05,0.6945178276146703,,,,,,,,,,,,,,,,,,
6,240708_094735,TrueCHOICE,9.0,7,1.0,1068.0,,,,,,,,,,,7.0,7.0,,,B,,,,,,True,cue2.png,Easy,cue1.png,Hard,Left,Easy,Easy,0.015591699630022,,,,,,,,,,,,,36,28,Female,1.4285714285714286,0.75,0.6,0.25,2.7777777777777777,3.375,2.4444444444444446,3.0,2.75,3.6666666666666665,2.0,2.0,2.0,1.0,1.0,1.0,0.4781791635958308,0.7952606757475208,,,,,,,,,,,,,0.00011295745605920332,1.3707942338379047,-0.00019502734561008261,0.3354463002046747,,,,,,,,,,,,,,,,
7,240708_094755,TrueCHOICE,9.0,8,3.0,1068.0,,,,,,,,,,,8.0,8.0,,,B,,,,,,True,cue1.png,Hard,cue2.png,Easy,Left,Hard,Hard,0.0164369996637105,,,,,,,,,,,,,36,28,Female,1.4285714285714286,0.75,0.6,0.25,2.7777777777777777,3.375,2.4444444444444446,3.0,2.75,3.6666666666666665,2.0,2.0,2.0,1.0,0.5833333333333334,0.75,0.4314636090685698,-0.9040757813422794,,,,,,,,,,,,,-1.8901025130948525e-05,-0.6340454406841702,-0.0009229430818962865,-2.0773789334307877,0.7890000000000001,-2.022715117118752,,,,,,,,,,,,,,
8,240708_094815,TrueCHOICE,9.0,9,1.0,1068.0,,,,,,,,,,,9.0,9.0,,,B,,,,,,True,cue2.png,Easy,cue1.png,Hard,Left,Easy,Easy,0.016151400282979,,,,,,,,,,,,,36,28,Female,1.4285714285714286,0.75,0.6,0.25,2.7777777777777777,3.375,2.4444444444444446,3.0,2.75,3.6666666666666665,2.0,2.0,2.0,1.0,0.84375,0.875,0.4710489182563668,0.5358891243239993,,,,,,,,,,,,,-9.182853318134322e-05,-1.7428702973319137,,,1.28,-0.0599619105865239,,,,,,,,,,,,,,
9,240708_094836,TrueCHOICE,9.0,10,1.0,1068.0,,,,,,,,,,,10.0,10.0,,,B,,,,,,True,cue1.png,Hard,cue2.png,Easy,Right,Easy,Easy,0.0165290003642439,,,,,,,,,,,,,36,28,Female,1.4285714285714286,0.75,0.6,0.25,2.7777777777777777,3.375,2.4444444444444446,3.0,2.75,3.6666666666666665,2.0,2.0,2.0,1.0,1.0,1.0,0.4449257634749466,-0.41437315434299055,,,,,,,,,,,,,,,,,,,,,,,,,,,,,,,,
0,240708_094958,FalseCHOICE,9.0,1,2.0,1068.0,,,,,,,,,,,1.0,1.0,,,B,,,,,,False,cue2.png,Easy,cue1.png,Hard,Left,Easy,Mid,0.0161370001733303,,,,,,,,,,,,,36,28,Female,1.4285714285714286,0.75,0.6,0.25,2.7777777777777777,3.375,2.4444444444444446,3.0,2.75,3.6666666666666665,2.0,2.0,2.0,1.0,0.84375,0.875,0.4298995454287664,-1.5779500418999959,,,,,,,,,,,,,,,,,,,9.857146244171555e-07,-0.19427038147110476,8.627899370074275e-05,0.17170809503840379,,,,,,,,,,
1,240708_095018,FalseCHOICE,9.0,2,2.0,1068.0,,,,,,,,,,,2.0,2.0,,,B,,,,,,False,cue1.png,Hard,cue2.png,Easy,Left,Hard,Mid,0.0165405999869108,,,,,,,,,,,,,36,28,Female,1.4285714285714286,0.75,0.6,0.25,2.7777777777777777,3.375,2.4444444444444446,3.0,2.75,3.6666666666666665,2.0,2.0,2.0,1.0,0.5833333333333334,0.75,0.4621042362837629,-0.7978266197493963,,,,,,,,,,,,,,,,,,,-2.7779532230944558e-05,-0.2710652476537883,1.616702590422677e-05,-0.019061583554623222,1.451,-0.28714435311165487,,,,,,,,
2,240708_095039,FalseCHOICE,9.0,3,2.0,1068.0,,,,,,,,,,,3.0,3.0,,,B,,,,,,False,cue1.png,Hard,cue2.png,Easy,Right,Easy,Mid,0.0165123003534972,,,,,,,,,,,,,36,28,Female,1.4285714285714286,0.75,0.6,0.25,2.7777777777777777,3.375,2.4444444444444446,3.0,2.75,3.6666666666666665,2.0,2.0,2.0,1.0,1.0,1.0,0.464961127251048,-0.7286215598981916,,,,,,,,,,,,,,,,,,,-6.963862852586711e-06,-0.21549344768100226,,,1.137,-0.8058342965418668,,,,,,,,
3,240708_095101,FalseCHOICE,9.0,4,2.0,1068.0,,,,,,,,,,,4.0,4.0,,,B,,,,,,False,cue1.png,Hard,cue2.png,Easy,Left,Hard,Mid,0.0160499000921845,,,,,,,,,,,,,36,28,Female,1.4285714285714286,0.75,0.6,0.25,2.7777777777777777,3.375,2.4444444444444446,3.0,2.75,3.6666666666666665,2.0,2.0,2.0,1.0,0.84375,0.875,0.5515466182154011,1.368817282903838,,,,,,,,,,,,,,,,,,,-5.978513331530901e-05,-0.356510919812586,,,1.588,-0.06083695741121212,,,,,,,,
4,240708_095120,FalseCHOICE,9.0,5,2.0,1068.0,,,,,,,,,,,5.0,5.0,,,B,,,,,,False,cue2.png,Easy,cue1.png,Hard,Left,Easy,Mid,0.0163600002415478,,,,,,,,,,,,,36,28,Female,1.4285714285714286,0.75,0.6,0.25,2.7777777777777777,3.375,2.4444444444444446,3.0,2.75,3.6666666666666665,2.0,2.0,2.0,1.0,0.84375,0.875,0.4077320544641803,-2.114933271754611,,,,,,,,,,,,,,,,,,,0.00012004075456258697,0.12357204506526337,,,1.487,-0.22767671628526112,,,,,,,,
5,240708_095142,FalseCHOICE,9.0,6,2.0,1068.0,,,,,,,,,,,6.0,6.0,,,B,,,,,,False,cue1.png,Hard,cue2.png,Easy,Right,Easy,Mid,0.0165291000157594,,,,,,,,,,,,,36,28,Female,1.4285714285714286,0.75,0.6,0.25,2.7777777777777777,3.375,2.4444444444444446,3.0,2.75,3.6666666666666665,2.0,2.0,2.0,1.0,0.84375,0.875,0.5679234818301417,1.7655288968966474,,,,,,,,,,,,,,,,,,,,,,,0.02450000000000019,-2.6435494623575058,,,,,,,,
6,240708_095202,FalseCHOICE,9.0,7,2.0,1068.0,,,,,,,,,,,7.0,7.0,,,B,,,,,,False,cue1.png,Hard,cue2.png,Easy,Right,Easy,Mid,0.0169509002007544,,,,,,,,,,,,,36,28,Female,1.4285714285714286,0.75,0.6,0.25,2.7777777777777777,3.375,2.4444444444444446,3.0,2.75,3.6666666666666665,2.0,2.0,2.0,1.0,0.5833333333333334,0.75,0.4532712272114374,-1.0117966061844856,,,,,,,,,,,,,,,,,,,-9.438201943577163e-05,-0.4488745714550624,-0.00011840316032726318,-0.3852174907756558,1.449,-0.2904481107131212,,,,,,,,
7,240708_095225,FalseCHOICE,9.0,8,2.0,1068.0,,,,,,,,,,,8.0,8.0,,,B,,,,,,False,cue2.png,Easy,cue1.png,Hard,Right,Hard,Mid,0.0164679996669292,,,,,,,,,,,,,36,28,Female,1.4285714285714286,0.75,0.6,0.25,2.7777777777777777,3.375,2.4444444444444446,3.0,2.75,3.6666666666666665,2.0,2.0,2.0,1.0,0.5833333333333334,0.6590909090909091,0.521057440014556,0.6302502789944534,,,,,,,,,,,,,,,,,,,-4.811138695746996e-05,-0.32534540282924257,0.00011848057750305039,0.25932631465508266,2.545,1.5200110548904207,,,,,,,,
8,240708_095244,FalseCHOICE,9.0,9,2.0,1068.0,,,,,,,,,,,9.0,9.0,,,B,,,,,,False,cue2.png,Easy,cue1.png,Hard,Left,Easy,Mid,0.0158787001855671,,,,,,,,,,,,,36,28,Female,1.4285714285714286,0.75,0.6,0.25,2.7777777777777777,3.375,2.4444444444444446,3.0,2.75,3.6666666666666665,2.0,2.0,2.0,1.0,0.15625,0.625,0.4732621909034523,-0.5275373696117048,,,,,,,,,,,,,,,,,,,,,5.884766151695135e-05,0.09706939085500066,,,,,,,,,,
9,240708_095304,FalseCHOICE,9.0,10,2.0,1068.0,,,,,,,,,,,10.0,10.0,,,B,,,,,,False,cue1.png,Hard,cue2.png,Easy,Left,Hard,Mid,0.0160258999094367,,,,,,,,,,,,,36,28,Female,1.4285714285714286,0.75,0.6,0.25,2.7777777777777777,3.375,2.4444444444444446,3.0,2.75,3.6666666666666665,2.0,2.0,2.0,1.0,0.84375,0.875,0.4521862546151334,-1.0380788809803947,,,,,,,,,,,,,,,,,,,-0.00012502421881518825,-0.5306803564955196,-8.553885208428206e-05,-0.29579604508336665,2.01,0.6362558964981804,,,,,,,,
10,240708_095325,FalseCHOICE,9.0,11,2.0,1068.0,,,,,,,,,,,11.0,11.0,,,B,,,,,,False,cue2.png,Easy,cue1.png,Hard,Left,Easy,Mid,0.0160997998900711,,,,,,,,,,,,,36,28,Female,1.4285714285714286,0.75,0.6,0.25,2.7777777777777777,3.375,2.4444444444444446,3.0,2.75,3.6666666666666665,2.0,2.0,2.0,1.0,0.15625,0.625,0.5465075637806546,1.2467516991124103,,,,,,,,,,,,,,,,,,,0.00017077830840420702,0.25902659816872986,8.326395234719295e-05,0.16350438192011413,0.41100000000000003,-2.00509830587414,,,,,,,,
11,240708_095346,FalseCHOICE,9.0,12,2.0,1068.0,,,,,,,,,,,12.0,12.0,,,B,,,,,,False,cue1.png,Hard,cue2.png,Easy,Right,Easy,Mid,0.0149214002303779,,,,,,,,,,,,,36,28,Female,1.4285714285714286,0.75,0.6,0.25,2.7777777777777777,3.375,2.4444444444444446,3.0,2.75,3.6666666666666665,2.0,2.0,2.0,1.0,0.5833333333333334,0.75,0.49847573638809,0.08323320032139137,,,,,,,,,,,,,,,,,,,5.12496711756673e-05,-0.060080195773255025,1.2817533061060607e-05,-0.02817531539274467,,,,,,,,,,
12,240708_095406,FalseCHOICE,9.0,13,2.0,1068.0,,,,,,,,,,,13.0,13.0,,,B,,,,,,False,cue2.png,Easy,cue1.png,Hard,Left,Easy,Mid,0.0166409998200833,,,,,,,,,,,,,36,28,Female,1.4285714285714286,0.75,0.6,0.25,2.7777777777777777,3.375,2.4444444444444446,3.0,2.75,3.6666666666666665,2.0,2.0,2.0,1.0,0.5833333333333334,0.75,0.4573153272609819,-0.9138327044542951,,,,,,,,,,,,,,,,,,,3.54710235903285e-05,-0.1022046084700283,0.0005077739236320363,1.3185658261600082,,,,,,,,,,
13,240708_095427,FalseCHOICE,9.0,14,2.0,1068.0,,,,,,,,,,,14.0,14.0,,,B,,,,,,False,cue1.png,Hard,cue2.png,Easy,Right,Easy,Mid,0.0171000002883374,,,,,,,,,,,,,36,28,Female,1.4285714285714286,0.75,0.6,0.25,2.7777777777777777,3.375,2.4444444444444446,3.0,2.75,3.6666666666666665,2.0,2.0,2.0,1.0,0.15625,0.625,0.6362054000015963,3.4195837026007636,,,,,,,,,,,,,,,,,,,3.7311982230515614e-06,-0.18694073654839546,-1.745992335451963e-05,-0.11055812121810975,2.9290000000000003,2.154332514371954,,,,,,,,
14,240708_095447,FalseCHOICE,9.0,15,2.0,1068.0,,,,,,,,,,,15.0,15.0,,,B,,,,,,False,cue2.png,Easy,cue1.png,Hard,Right,Hard,Mid,0.0175097999162971,,,,,,,,,,,,,36,28,Female,1.4285714285714286,0.75,0.6,0.25,2.7777777777777777,3.375,2.4444444444444446,3.0,2.75,3.6666666666666665,2.0,2.0,2.0,1.0,0.84375,0.875,0.4943437819284471,-0.016858878430141295,,,,,,,,,,,,,,,,,,,4.491363985049349e-05,-0.07699556174221832,-3.7221865560209053e-06,-0.07317871630322684,2.328,1.161553355131325,,,,,,,,
15,240708_095506,FalseCHOICE,9.0,16,2.0,1068.0,,,,,,,,,,,16.0,16.0,,,B,,,,,,False,cue2.png,Easy,cue1.png,Hard,Left,Easy,Mid,0.0175246000289917,,,,,,,,,,,,,36,28,Female,1.4285714285714286,0.75,0.6,0.25,2.7777777777777777,3.375,2.4444444444444446,3.0,2.75,3.6666666666666665,2.0,2.0,2.0,1.0,0.5833333333333334,0.75,0.4637925273061476,-0.756929615772581,,,,,,,,,,,,,,,,,,,-3.686613513033052e-06,-0.20674414246058137,-0.00025229876894573237,-0.7495379202820204,,,,,,,,,,
16,240708_095526,FalseCHOICE,9.0,17,2.0,1068.0,,,,,,,,,,,17.0,17.0,,,B,,,,,,False,cue1.png,Hard,cue2.png,Easy,Right,Easy,Mid,0.0169127001427114,,,,,,,,,,,,,36,28,Female,1.4285714285714286,0.75,0.6,0.25,2.7777777777777777,3.375,2.4444444444444446,3.0,2.75,3.6666666666666665,2.0,2.0,2.0,1.0,0.5833333333333334,0.75,0.4546986090188676,-0.9772198426520644,,,,,,,,,,,,,,,,,,,-8.973741294767551e-06,-0.22085924018703695,0.00037428714979365237,0.9553578070173189,,,,,,,,,,
17,240708_095547,FalseCHOICE,9.0,18,2.0,1068.0,,,,,,,,,,,18.0,18.0,,,B,,,,,,False,cue1.png,Hard,cue2.png,Easy,Left,Hard,Mid,0.0160791999660432,,,,,,,,,,,,,36,28,Female,1.4285714285714286,0.75,0.6,0.25,2.7777777777777777,3.375,2.4444444444444446,3.0,2.75,3.6666666666666665,2.0,2.0,2.0,1.0,1.0,1.0,0.520553372842683,0.6180398029217002,,,,,,,,,,,,,,,,,,,,,6.44068357335461e-05,0.11219550857602005,,,,,,,,,,
18,240708_095607,FalseCHOICE,9.0,19,2.0,1068.0,,,,,,,,,,,19.0,19.0,,,B,,,,,,False,cue2.png,Easy,cue1.png,Hard,Right,Hard,Mid,0.0155457998625934,,,,,,,,,,,,,36,28,Female,1.4285714285714286,0.75,0.6,0.25,2.7777777777777777,3.375,2.4444444444444446,3.0,2.75,3.6666666666666665,2.0,2.0,2.0,1.0,1.0,1.0,0.4815030908635394,-0.3279105789863743,,,,,,,,,,,,,,,,,,,-2.3977760660541612e-05,-0.2609156202066731,-0.00034605109949295467,-1.004631344813311,,,,,,,,,,
19,240708_095627,FalseCHOICE,9.0,20,2.0,1068.0,,,,,,,,,,,20.0,20.0,,,B,,,,,,False,cue2.png,Easy,cue1.png,Hard,Right,Hard,Mid,0.0172191997990012,,,,,,,,,,,,,36,28,Female,1.4285714285714286,0.75,0.6,0.25,2.7777777777777777,3.375,2.4444444444444446,3.0,2.75,3.6666666666666665,2.0,2.0,2.0,1.0,0.15625,0.625,0.495836936360733,0.019311155021165965,,,,,,,,,,,,,,,,,,,-5.251456176846685e-05,-0.3371006025009062,-0.0001393106628921701,-0.44210531848669576,,,,,,,,,,
20,240708_095647,FalseCHOICE,9.0,21,2.0,1068.0,,,,,,,,,,,21.0,21.0,,,B,,,,,,False,cue2.png,Easy,cue1.png,Hard,Left,Easy,Mid,0.0158118000254035,,,,,,,,,,,,,36,28,Female,1.4285714285714286,0.75,0.6,0.25,2.7777777777777777,3.375,2.4444444444444446,3.0,2.75,3.6666666666666665,2.0,2.0,2.0,1.0,0.84375,0.875,0.4661699272692203,-0.6993397012050508,,,,,,,,,,,,,,,,,,,,,0.0001812145046991842,0.4300208694394872,,,,,,,,,,
21,240708_095707,FalseCHOICE,9.0,22,2.0,1068.0,,,,,,,,,,,22.0,22.0,,,B,,,,,,False,cue1.png,Hard,cue2.png,Easy,Left,Hard,Mid,0.0160857001319527,,,,,,,,,,,,,36,28,Female,1.4285714285714286,0.75,0.6,0.25,2.7777777777777777,3.375,2.4444444444444446,3.0,2.75,3.6666666666666665,2.0,2.0,2.0,1.0,0.84375,0.875,0.5004221727563576,0.1303834930364572,,,,,,,,,,,,,,,,,,,,,-0.0011760625707209803,-3.2630335344971706,,,,,,,,,,
22,240708_095728,FalseCHOICE,9.0,23,2.0,1068.0,,,,,,,,,,,23.0,23.0,,,B,,,,,,False,cue2.png,Easy,cue1.png,Hard,Left,Easy,Mid,0.0159502997994422,,,,,,,,,,,,,36,28,Female,1.4285714285714286,0.75,0.6,0.25,2.7777777777777777,3.375,2.4444444444444446,3.0,2.75,3.6666666666666665,2.0,2.0,2.0,1.0,0.84375,0.875,0.5064938818104565,0.2774640058385712,,,,,,,,,,,,,,,,,,,1.6502243865481464e-06,-0.19249633313713663,-0.0001359395963129342,-0.43293288604687363,1.684,0.0977434074591709,,,,,,,,
23,240708_095748,FalseCHOICE,9.0,24,2.0,1068.0,,,,,,,,,,,24.0,24.0,,,B,,,,,,False,cue1.png,Hard,cue2.png,Easy,Right,Easy,Mid,0.0155551000498235,,,,,,,,,,,,,36,28,Female,1.4285714285714286,0.75,0.6,0.25,2.7777777777777777,3.375,2.4444444444444446,3.0,2.75,3.6666666666666665,2.0,2.0,2.0,1.0,0.84375,0.875,0.5020984636873684,0.17098980792108862,,,,,,,,,,,,,,,,,,,6.153319000948114e-06,-0.1804743765706019,-0.00023116121333941614,-0.6920241346047689,1.473,-0.25080301949552536,,,,,,,,
24,240708_095808,FalseCHOICE,9.0,25,2.0,1068.0,,,,,,,,,,,25.0,25.0,,,B,,,,,,False,cue1.png,Hard,cue2.png,Easy,Right,Easy,Mid,0.0155444000847637,,,,,,,,,,,,,36,28,Female,1.4285714285714286,0.75,0.6,0.25,2.7777777777777777,3.375,2.4444444444444446,3.0,2.75,3.6666666666666665,2.0,2.0,2.0,1.0,0.84375,0.875,0.4770312818105925,-0.43623526365099036,,,,,,,,,,,,,,,,,,,0.0012392143052049813,3.1114408260613637,0.00039523542455372146,1.012356572972015,1.9659999999999997,0.5635732292659213,,,,,,,,
25,240708_095830,FalseCHOICE,9.0,26,2.0,1068.0,,,,,,,,,,,26.0,26.0,,,B,,,,,,False,cue2.png,Easy,cue1.png,Hard,Left,Easy,Mid,0.0159419998526573,,,,,,,,,,,,,36,28,Female,1.4285714285714286,0.75,0.6,0.25,2.7777777777777777,3.375,2.4444444444444446,3.0,2.75,3.6666666666666665,2.0,2.0,2.0,1.0,0.1875,0.6590909090909091,0.513241869956255,0.44092664016829153,,,,,,,,,,,,,,,,,,,8.518999843016781e-05,0.030530634121988004,-0.0002466097842603399,-0.7340585975064456,1.258,-0.6059569616531546,,,,,,,,
26,240708_095850,FalseCHOICE,9.0,27,2.0,1068.0,,,,,,,,,,,27.0,27.0,,,B,,,,,,False,cue2.png,Easy,cue1.png,Hard,Right,Hard,Mid,0.016880199778825,,,,,,,,,,,,,36,28,Female,1.4285714285714286,0.75,0.6,0.25,2.7777777777777777,3.375,2.4444444444444446,3.0,2.75,3.6666666666666665,2.0,2.0,2.0,1.0,0.5833333333333334,0.75,0.4857255908321928,-0.2256251342849034,,,,,,,,,,,,,,,,,,,-0.000911031223988328,-2.629091090963876,,,1.755,0.2150268023112251,,,,,,,,
27,240708_095911,FalseCHOICE,9.0,28,2.0,1068.0,,,,,,,,,,,28.0,28.0,,,B,,,,,,False,cue1.png,Hard,cue2.png,Easy,Left,Hard,Mid,0.0143993003293871,,,,,,,,,,,,,36,28,Female,1.4285714285714286,0.75,0.6,0.25,2.7777777777777777,3.375,2.4444444444444446,3.0,2.75,3.6666666666666665,2.0,2.0,2.0,1.0,0.84375,0.875,0.5045303000899201,0.2298983857121603,,,,,,,,,,,,,,,,,,,-6.399729388537794e-05,-0.3677561668617392,1.1675569985866285e-05,-0.031282515713411625,2.059,0.7171979577341058,,,,,,,,
28,240708_095931,FalseCHOICE,9.0,29,2.0,1068.0,,,,,,,,,,,29.0,29.0,,,B,,,,,,False,cue2.png,Easy,cue1.png,Hard,Left,Easy,Mid,0.0161669999361038,,,,,,,,,,,,,36,28,Female,1.4285714285714286,0.75,0.6,0.25,2.7777777777777777,3.375,2.4444444444444446,3.0,2.75,3.6666666666666665,2.0,2.0,2.0,1.0,1.0,1.0,0.514671909072521,0.4755677741016608,,,,,,,,,,,,,,,,,,,,,-7.672216998416736e-05,-0.27180648005821617,0.96,-1.098216844271636,,,,,,,,
29,240708_095951,FalseCHOICE,9.0,30,2.0,1068.0,,,,,,,,,,,30.0,30.0,,,B,,,,,,False,cue2.png,Easy,cue1.png,Hard,Left,Easy,Mid,0.01616089977324,,,,,,,,,,,,,36,28,Female,1.4285714285714286,0.75,0.6,0.25,2.7777777777777777,3.375,2.4444444444444446,3.0,2.75,3.6666666666666665,2.0,2.0,2.0,1.0,0.15625,0.625,0.4505066273056648,-1.0787660159850438,,,,,,,,,,,,,,,,,,,-1.3318794925737225e-05,-0.23245927316518966,-0.0001225344172153895,-0.3964583469875428,1.064,-0.9264214489953874,,,,,,,,
30,240708_100011,FalseCHOICE,9.0,31,2.0,1068.0,,,,,,,,,,,31.0,31.0,,,B,,,,,,False,cue1.png,Hard,cue2.png,Easy,Left,Hard,Mid,0.0160749000497162,,,,,,,,,,,,,36,28,Female,1.4285714285714286,0.75,0.6,0.25,2.7777777777777777,3.375,2.4444444444444446,3.0,2.75,3.6666666666666665,2.0,2.0,2.0,1.0,0.84375,0.875,0.4794656272808259,-0.3772659064388356,,,,,,,,,,,,,,,,,,,-9.774282385163324e-05,-0.45784694449534996,3.233926191703292e-05,0.024941920601009887,0.6579999999999999,-1.59708424209305,,,,,,,,
31,240708_100032,FalseCHOICE,9.0,32,2.0,1068.0,,,,,,,,,,,32.0,32.0,,,B,,,,,,False,cue2.png,Easy,cue1.png,Hard,Left,Easy,Mid,0.0164912999607622,,,,,,,,,,,,,36,28,Female,1.4285714285714286,0.75,0.6,0.25,2.7777777777777777,3.375,2.4444444444444446,3.0,2.75,3.6666666666666665,2.0,2.0,2.0,1.0,0.84375,0.875,0.4837453363209285,-0.2735946345360449,,,,,,,,,,,,,,,,,,,,,,,1.7320000000000002,0.17703358989436296,,,,,,,,
32,240708_100053,FalseCHOICE,9.0,33,2.0,1068.0,,,,,,,,,,,33.0,33.0,,,B,,,,,,False,cue1.png,Hard,cue2.png,Easy,Left,Hard,Mid,0.0160381998866796,,,,,,,,,,,,,36,28,Female,1.4285714285714286,0.75,0.6,0.25,2.7777777777777777,3.375,2.4444444444444446,3.0,2.75,3.6666666666666665,2.0,2.0,2.0,1.0,0.5833333333333334,0.75,0.53531134551899,0.975535554086764,,,,,,,,,,,,,,,,,,,3.869058459381701e-05,-0.09360931437527935,0.00019759829052827657,0.47459998560156774,1.104,-0.8603462969660609,,,,,,,,
33,240708_100112,FalseCHOICE,9.0,34,2.0,1068.0,,,,,,,,,,,34.0,34.0,,,B,,,,,,False,cue1.png,Hard,cue2.png,Easy,Left,Hard,Mid,0.0152934999205172,,,,,,,,,,,,,36,28,Female,1.4285714285714286,0.75,0.6,0.25,2.7777777777777777,3.375,2.4444444444444446,3.0,2.75,3.6666666666666665,2.0,2.0,2.0,1.0,0.84375,0.875,0.4889870545064861,-0.14661974298133146,,,,,,,,,,,,,,,,,,,0.0008931270260462555,2.1874881680444753,0.0014870266636939546,3.983042895540398,2.194,0.9402015958330818,,,,,,,,
34,240708_100132,FalseCHOICE,9.0,35,2.0,1068.0,,,,,,,,,,,35.0,35.0,,,B,,,,,,False,cue1.png,Hard,cue2.png,Easy,Right,Easy,Mid,0.0165246999822556,,,,,,,,,,,,,36,28,Female,1.4285714285714286,0.75,0.6,0.25,2.7777777777777777,3.375,2.4444444444444446,3.0,2.75,3.6666666666666665,2.0,2.0,2.0,1.0,0.84375,0.875,0.447203118100085,-1.1587899143098772,,,,,,,,,,,,,,,,,,,-3.153181056541124e-05,-0.28108274251571197,-0.00012183563918044668,-0.39455702164575807,1.3760000000000003,-0.41103526316664135,,,,,,,,
35,240708_100152,FalseCHOICE,9.0,36,2.0,1068.0,,,,,,,,,,,36.0,36.0,,,B,,,,,,False,cue2.png,Easy,cue1.png,Hard,Right,Hard,Mid,0.0167006999254226,,,,,,,,,,,,,36,28,Female,1.4285714285714286,0.75,0.6,0.25,2.7777777777777777,3.375,2.4444444444444446,3.0,2.75,3.6666666666666665,2.0,2.0,2.0,1.0,0.15625,0.625,0.4877343727699058,-0.17696458832099676,,,,,,,,,,,,,,,,,,,,,-0.00024886881944880847,-0.7402052716104337,1.402,-0.36808641434757994,,,,,,,,
36,240708_100212,FalseCHOICE,9.0,37,2.0,1068.0,,,,,,,,,,,37.0,37.0,,,B,,,,,,False,cue1.png,Hard,cue2.png,Easy,Right,Easy,Mid,0.0171749000437557,,,,,,,,,,,,,36,28,Female,1.4285714285714286,0.75,0.6,0.25,2.7777777777777777,3.375,2.4444444444444446,3.0,2.75,3.6666666666666665,2.0,2.0,2.0,1.0,0.84375,0.875,0.5159677817824889,0.5069588735450166,,,,,,,,,,,,,,,,,,,3.189516496984084e-05,-0.11175111386347532,3.282890689595324e-05,0.026274209769164714,1.0470000000000002,-0.9545033886078509,,,,,,,,
37,240708_100232,FalseCHOICE,9.0,38,2.0,1068.0,,,,,,,,,,,38.0,38.0,,,B,,,,,,False,cue2.png,Easy,cue1.png,Hard,Left,Easy,Mid,0.0165021000429987,,,,,,,,,,,,,36,28,Female,1.4285714285714286,0.75,0.6,0.25,2.7777777777777777,3.375,2.4444444444444446,3.0,2.75,3.6666666666666665,2.0,2.0,2.0,1.0,1.0,1.0,0.5067080272022974,0.2826514438013466,,,,,,,,,,,,,,,,,,,0.00011317301154544629,0.10523716309361529,,,1.427,-0.3267894443292507,,,,,,,,
38,240708_100253,FalseCHOICE,9.0,39,2.0,1068.0,,,,,,,,,,,39.0,39.0,,,B,,,,,,False,cue2.png,Easy,cue1.png,Hard,Right,Hard,Mid,0.0170392002910375,,,,,,,,,,,,,36,28,Female,1.4285714285714286,0.75,0.6,0.25,2.7777777777777777,3.375,2.4444444444444446,3.0,2.75,3.6666666666666665,2.0,2.0,2.0,1.0,0.84375,0.875,0.5261628908867185,0.7539242438819398,,,,,,,,,,,,,,,,,,,0.0014880248042829294,3.7756926949090044,,,1.5899999999999999,-0.05753319980974616,,,,,,,,
39,240708_100313,FalseCHOICE,9.0,40,2.0,1068.0,,,,,,,,,,,40.0,40.0,,,B,,,,,,False,cue1.png,Hard,cue2.png,Easy,Right,Easy,Mid,0.0169346998445689,,,,,,,,,,,,,36,28,Female,1.4285714285714286,0.75,0.6,0.25,2.7777777777777777,3.375,2.4444444444444446,3.0,2.75,3.6666666666666665,2.0,2.0,2.0,1.0,0.5833333333333334,0.75,0.5173456364057281,0.5403358951952826,,,,,,,,,,,,,,,,,,,-0.000135784584906061,-0.5594074130780788,7.221771005238176e-05,0.13344834215301252,2.3009999999999997,1.1169526275115296,,,,,,,,
40,240708_100333,FalseCHOICE,9.0,41,2.0,1068.0,,,,,,,,,,,41.0,41.0,,,B,,,,,,False,cue1.png,Hard,cue2.png,Easy,Left,Hard,Mid,0.0160799999721348,,,,,,,,,,,,,36,28,Female,1.4285714285714286,0.75,0.6,0.25,2.7777777777777777,3.375,2.4444444444444446,3.0,2.75,3.6666666666666665,2.0,2.0,2.0,1.0,1.0,1.0,0.51714678180658,0.5355188599659665,,,,,,,,,,,,,,,,,,,0.00043522200379299313,0.9650145669961505,,,1.509,-0.19133538266913194,,,,,,,,
41,240708_100352,FalseCHOICE,9.0,42,2.0,1068.0,,,,,,,,,,,42.0,42.0,,,B,,,,,,False,cue2.png,Easy,cue1.png,Hard,Left,Easy,Mid,0.0161525998264551,,,,,,,,,,,,,36,28,Female,1.4285714285714286,0.75,0.6,0.25,2.7777777777777777,3.375,2.4444444444444446,3.0,2.75,3.6666666666666665,2.0,2.0,2.0,1.0,0.84375,0.875,0.4370785181579942,-1.404047277291339,,,,,,,,,,,,,,,,,,,5.65377832975715e-05,-0.045962470144039196,,,2.494,1.43576523605303,,,,,,,,
42,240708_100412,FalseCHOICE,9.0,43,2.0,1068.0,,,,,,,,,,,43.0,43.0,,,B,,,,,,False,cue1.png,Hard,cue2.png,Easy,Right,Easy,Mid,0.0168956997804343,,,,,,,,,,,,,36,28,Female,1.4285714285714286,0.75,0.6,0.25,2.7777777777777777,3.375,2.4444444444444446,3.0,2.75,3.6666666666666665,2.0,2.0,2.0,1.0,0.5833333333333334,0.6590909090909091,0.4050197401084006,-2.1806361212775647,,,,,,,,,,,,,,,,,,,-0.00029994332657702887,-0.9976636416002372,3.134884970924963e-05,0.022247079413528378,2.012,0.6395596540996471,,,,,,,,
43,240708_100432,FalseCHOICE,9.0,44,2.0,1068.0,,,,,,,,,,,44.0,44.0,,,B,,,,,,False,cue2.png,Easy,cue1.png,Hard,Right,Hard,Mid,0.0166690996848046,,,,,,,,,,,,,36,28,Female,1.4285714285714286,0.75,0.6,0.25,2.7777777777777777,3.375,2.4444444444444446,3.0,2.75,3.6666666666666665,2.0,2.0,2.0,1.0,0.84375,0.875,0.4993613091805441,0.10468523290022834,,,,,,,,,,,,,,,,,,,-4.037850989215084e-05,-0.30470086386789397,-4.0632989528233306e-06,-0.07410685887784346,2.259,1.0475737178807372,,,,,,,,
44,240708_100452,FalseCHOICE,9.0,45,2.0,1068.0,,,,,,,,,,,45.0,45.0,,,B,,,,,,False,cue1.png,Hard,cue2.png,Easy,Right,Easy,Mid,0.01668870029971,,,,,,,,,,,,,36,28,Female,1.4285714285714286,0.75,0.6,0.25,2.7777777777777777,3.375,2.4444444444444446,3.0,2.75,3.6666666666666665,2.0,2.0,2.0,1.0,1.0,1.0,0.4814358726567165,-0.32953886654776077,,,,,,,,,,,,,,,,,,,,,6.281441775817659e-06,-0.045959554987321315,2.665,1.7182365109783997,,,,,,,,
45,240708_100513,FalseCHOICE,9.0,46,2.0,1068.0,,,,,,,,,,,46.0,46.0,,,B,,,,,,False,cue1.png,Hard,cue2.png,Easy,Left,Hard,Mid,0.0161051000468432,,,,,,,,,,,,,36,28,Female,1.4285714285714286,0.75,0.6,0.25,2.7777777777777777,3.375,2.4444444444444446,3.0,2.75,3.6666666666666665,2.0,2.0,2.0,1.0,0.84375,0.875,0.5366450272161852,1.0078425349039444,,,,,,,,,,,,,,,,,,,4.532024516394617e-05,-0.07591004348496942,-0.00010416350273415682,-0.346472395071087,1.802,0.2926651059456838,,,,,,,,
46,240708_100533,FalseCHOICE,9.0,47,2.0,1068.0,,,,,,,,,,,47.0,47.0,,,B,,,,,,False,cue2.png,Easy,cue1.png,Hard,Right,Hard,Mid,0.016821099910885,,,,,,,,,,,,,36,28,Female,1.4285714285714286,0.75,0.6,0.25,2.7777777777777777,3.375,2.4444444444444446,3.0,2.75,3.6666666666666665,2.0,2.0,2.0,1.0,0.84375,0.875,0.5179103091359138,0.5540144746497819,,,,,,,,,,,,,,,,,,,-6.28405226364313e-06,-0.21367855057721596,,,1.601,-0.039362533001681216,,,,,,,,
47,240708_100554,FalseCHOICE,9.0,48,2.0,1068.0,,,,,,,,,,,48.0,48.0,,,B,,,,,,False,cue2.png,Easy,cue1.png,Hard,Right,Hard,Mid,0.0165264001116156,,,,,,,,,,,,,36,28,Female,1.4285714285714286,0.75,0.6,0.25,2.7777777777777777,3.375,2.4444444444444446,3.0,2.75,3.6666666666666665,2.0,2.0,2.0,1.0,0.5833333333333334,0.75,0.5377509364519607,1.0346319768981458,,,,,,,,,,,,,,,,,,,,,,,1.8040000000000003,0.29596886354715046,,,,,,,,
48,240708_100614,FalseCHOICE,9.0,49,2.0,1068.0,,,,,,,,,,,49.0,49.0,,,B,,,,,,False,cue1.png,Hard,cue2.png,Easy,Left,Hard,Mid,0.016199099831283,,,,,,,,,,,,,36,28,Female,1.4285714285714286,0.75,0.6,0.25,2.7777777777777777,3.375,2.4444444444444446,3.0,2.75,3.6666666666666665,2.0,2.0,2.0,1.0,0.84375,0.875,0.5398155181160704,1.0846442102205087,,,,,,,,,,,,,,,,,,,-1.9705259779758972e-05,-0.2495092820287011,0.000641821299871911,1.6832992045717636,,,,,,,,,,
49,240708_100635,FalseCHOICE,9.0,50,2.0,1068.0,,,,,,,,,,,50.0,50.0,,,B,,,,,,False,cue2.png,Easy,cue1.png,Hard,Left,Easy,Mid,0.0159605001099407,,,,,,,,,,,,,36,28,Female,1.4285714285714286,0.75,0.6,0.25,2.7777777777777777,3.375,2.4444444444444446,3.0,2.75,3.6666666666666665,2.0,2.0,2.0,1.0,1.0,1.0,0.537123363634402,1.0194297116043434,,,,,,,,,,,,,,,,,,,0.00015971020025874446,0.22947795955630518,-0.00010060830349855124,-0.3367989507672694,1.188,-0.7215884777044759,,,,,,,,
0,240708_092523,OFFLINERATING,9.0,1,1.0,,,,,,,,,,,,,,,,,T0,cue2.png,Easy,33.0,2.4308817996643484,,,,,,,,,,,,,,,,,,,,,,36,28,Female,1.4285714285714286,0.75,0.6,0.25,2.7777777777777777,3.375,2.4444444444444446,3.0,2.75,3.6666666666666665,2.0,2.0,2.0,1.0,,,,,,,,,,,,,,,,,,,,,,,,,,,,,-1.2500406497455432,-3.778927299947837e-05,-1.0020923453175279,,,,,
1,240708_092531,OFFLINERATING,9.0,2,3.0,,,,,,,,,,,,,,,,,T0,cue1.png,Hard,34.0,2.269092000089586,,,,,,,,,,,,,,,,,,,,,,36,28,Female,1.4285714285714286,0.75,0.6,0.25,2.7777777777777777,3.375,2.4444444444444446,3.0,2.75,3.6666666666666665,2.0,2.0,2.0,1.0,,,,,,,,,,,,,,,,,,,,,,,,,,,,,-0.9274495143273386,0.0001037449064811625,1.4392205907565176,,,,,
2,240708_094439,OFFLINERATING,9.0,3,1.0,,,,,,,,,,,,,,,,,T1,cue2.png,Easy,36.0,1.101746799889952,,,,,,,,,,,,,,,,,,,,,,36,28,Female,1.4285714285714286,0.75,0.6,0.25,2.7777777777777777,3.375,2.4444444444444446,3.0,2.75,3.6666666666666665,2.0,2.0,2.0,1.0,,,,,,,,,,,,,,,,,,,,,,,,,,,,,-0.28226724349092913,-2.9687628230815923e-05,-0.8623476543192833,0.000146153135280859,1.1563768541256998,1.0399999999999998,0.26946159083881177,
3,240708_094447,OFFLINERATING,9.0,4,3.0,,,,,,,,,,,,,,,,,T1,cue1.png,Hard,36.0,1.768854399677366,,,,,,,,,,,,,,,,,,,,,,36,28,Female,1.4285714285714286,0.75,0.6,0.25,2.7777777777777777,3.375,2.4444444444444446,3.0,2.75,3.6666666666666665,2.0,2.0,2.0,1.0,,,,,,,,,,,,,,,,,,,,,,,,,,,,,-0.28226724349092913,4.495857755602113e-05,0.4252194088802935,-4.119794003638096e-05,-0.8844895670751156,1.584,1.0675765023613915,
4,240708_094854,OFFLINERATING,9.0,5,1.0,,,,,,,,,,,,,,,,,T2,cue2.png,Easy,44.0,1.00165869994089,,,,,,,,,,,,,,,,,,,,,,36,28,Female,1.4285714285714286,0.75,0.6,0.25,2.7777777777777777,3.375,2.4444444444444446,3.0,2.75,3.6666666666666665,2.0,2.0,2.0,1.0,,,,,,,,,,,,,,,,,,,,,,,,,,,,,2.2984618398547085,,,,,-0.05499999999999994,-1.337038093200203,
5,240708_094900,OFFLINERATING,9.0,6,3.0,,,,,,,,,,,,,,,,,T2,cue1.png,Hard,37.0,0.526496300008148,,,,,,,,,,,,,,,,,,,,,,36,28,Female,1.4285714285714286,0.75,0.6,0.25,2.7777777777777777,3.375,2.4444444444444446,3.0,2.75,3.6666666666666665,2.0,2.0,2.0,1.0,,,,,,,,,,,,,,,,,,,,,,,,,,,,,0.04032389192727559,,,,,,,
6,240708_100649,OFFLINERATING,9.0,7,1.0,,,,,,,,,,,,,,,,,T3,cue2.png,Easy,38.0,0.6967155002057552,,,,,,,,,,,,,,,,,,,,,,36,28,Female,1.4285714285714286,0.75,0.6,0.25,2.7777777777777777,3.375,2.4444444444444446,3.0,2.75,3.6666666666666665,2.0,2.0,2.0,1.0,,,,,,,,,,,,,,,,,,,,,,,,,,,,,0.3629150273454803,,,-6.061677331881468e-05,-1.096024220494684,,,
7,240708_100656,OFFLINERATING,9.0,8,3.0,,,,,,,,,,,,,,,,,T3,cue1.png,Hard,37.0,0.8348757000640035,,,,,,,,,,,,,,,,,,,,,,36,28,Female,1.4285714285714286,0.75,0.6,0.25,2.7777777777777777,3.375,2.4444444444444446,3.0,2.75,3.6666666666666665,2.0,2.0,2.0,1.0,,,,,,,,,,,,,,,,,,,,,,,,,,,,,0.04032389192727559,,,0.0001156535857971706,0.8241369334440997,,,
0,240708_094918,LEARNINGCHECK,9.0,1,,,,,,,,,,,,1.0,1.0,1.0,,,B,,,,,,,,,,,,,,,cue2.png,Easy,Left,Left,Easy,0.0127916000783443,1.0,,,,,,36,28,Female,1.4285714285714286,0.75,0.6,0.25,2.7777777777777777,3.375,2.4444444444444446,3.0,2.75,3.6666666666666665,2.0,2.0,2.0,1.0,,,,,,,,,,,,,,,,,,,,,,,,,,,,,,,,,,,,
1,240708_094923,LEARNINGCHECK,9.0,2,,,,,,,,,,,,2.0,2.0,2.0,,,B,,,,,,,,,,,,,,,cue1.png,Hard,Right,Right,Hard,0.0157225998118519,1.0,,,,,,36,28,Female,1.4285714285714286,0.75,0.6,0.25,2.7777777777777777,3.375,2.4444444444444446,3.0,2.75,3.6666666666666665,2.0,2.0,2.0,1.0,,,,,,,,,,,,,,,,,,,,,,,,,,,,,,,,,,,,
2,240708_100711,LEARNINGCHECK,9.0,1,,,,,,,,,,,,1.0,1.0,1.0,,,B,,,,,,,,,,,,,,,cue2.png,Easy,Middle,Middle,Mid,0.0162243000231683,1.0,,,,,,36,28,Female,1.4285714285714286,0.75,0.6,0.25,2.7777777777777777,3.375,2.4444444444444446,3.0,2.75,3.6666666666666665,2.0,2.0,2.0,1.0,,,,,,,,,,,,,,,,,,,,,,,,,,,,,,,,,,,,
3,240708_100716,LEARNINGCHECK,9.0,2,,,,,,,,,,,,2.0,2.0,2.0,,,B,,,,,,,,,,,,,,,cue1.png,Hard,Middle,Middle,Mid,0.0162869999185204,1.0,,,,,,36,28,Female,1.4285714285714286,0.75,0.6,0.25,2.7777777777777777,3.375,2.4444444444444446,3.0,2.75,3.6666666666666665,2.0,2.0,2.0,1.0,,,,,,,,,,,,,,,,,,,,,,,,,,,,,,,,,,,,
0,240708_100733,DEMANDRATING,9.0,-1,,,,,,,,,,,,,,,,,,,,,,,,,,,,,,,,,,,,,,,1.0,MentalDemand,1.0,9.0,3.3728273999877274,36,28,Female,1.4285714285714286,0.75,0.6,0.25,2.7777777777777777,3.375,2.4444444444444446,3.0,2.75,3.6666666666666665,2.0,2.0,2.0,1.0,,,,,,,,,,,,,,,,,,,,,,,,,,,,,,,,,,,,-1.2105608410021698
1,240708_100739,DEMANDRATING,9.0,-1,,,,,,,,,,,,,,,,,,,,,,,,,,,,,,,,,,,,,,,2.0,Effort,1.0,15.0,3.925321199931204,36,28,Female,1.4285714285714286,0.75,0.6,0.25,2.7777777777777777,3.375,2.4444444444444446,3.0,2.75,3.6666666666666665,2.0,2.0,2.0,1.0,,,,,,,,,,,,,,,,,,,,,,,,,,,,,,,,,,,,-1.0412077699811408
2,240708_100746,DEMANDRATING,9.0,-1,,,,,,,,,,,,,,,,,,,,,,,,,,,,,,,,,,,,,,,3.0,Frustration,1.0,1.0,5.19229849986732,36,28,Female,1.4285714285714286,0.75,0.6,0.25,2.7777777777777777,3.375,2.4444444444444446,3.0,2.75,3.6666666666666665,2.0,2.0,2.0,1.0,,,,,,,,,,,,,,,,,,,,,,,,,,,,,,,,,,,,-1.436364935696875
3,240708_100750,DEMANDRATING,9.0,-1,,,,,,,,,,,,,,,,,,,,,,,,,,,,,,,,,,,,,,,4.0,MentalDemand,2.0,34.0,2.8567073000594974,36,28,Female,1.4285714285714286,0.75,0.6,0.25,2.7777777777777777,3.375,2.4444444444444446,3.0,2.75,3.6666666666666665,2.0,2.0,2.0,1.0,,,,,,,,,,,,,,,,,,,,,,,,,,,,,,,,,,,,-0.5049230450812159
4,240708_100757,DEMANDRATING,9.0,-1,,,,,,,,,,,,,,,,,,,,,,,,,,,,,,,,,,,,,,,5.0,Effort,2.0,66.0,5.814592699985951,36,28,Female,1.4285714285714286,0.75,0.6,0.25,2.7777777777777777,3.375,2.4444444444444446,3.0,2.75,3.6666666666666665,2.0,2.0,2.0,1.0,,,,,,,,,,,,,,,,,,,,,,,,,,,,,,,,,,,,0.3982933336976052
5,240708_100801,DEMANDRATING,9.0,-1,,,,,,,,,,,,,,,,,,,,,,,,,,,,,,,,,,,,,,,6.0,Frustration,2.0,67.0,2.3707377002574503,36,28,Female,1.4285714285714286,0.75,0.6,0.25,2.7777777777777777,3.375,2.4444444444444446,3.0,2.75,3.6666666666666665,2.0,2.0,2.0,1.0,,,,,,,,,,,,,,,,,,,,,,,,,,,,,,,,,,,,0.42651884553444336
6,240708_100805,DEMANDRATING,9.0,-1,,,,,,,,,,,,,,,,,,,,,,,,,,,,,,,,,,,,,,,7.0,MentalDemand,3.0,92.0,1.9636917999014256,36,28,Female,1.4285714285714286,0.75,0.6,0.25,2.7777777777777777,3.375,2.4444444444444446,3.0,2.75,3.6666666666666665,2.0,2.0,2.0,1.0,,,,,,,,,,,,,,,,,,,,,,,,,,,,,,,,,,,,1.1321566414553974
7,240708_100808,DEMANDRATING,9.0,-1,,,,,,,,,,,,,,,,,,,,,,,,,,,,,,,,,,,,,,,8.0,Effort,3.0,94.0,1.611113800201565,36,28,Female,1.4285714285714286,0.75,0.6,0.25,2.7777777777777777,3.375,2.4444444444444446,3.0,2.75,3.6666666666666665,2.0,2.0,2.0,1.0,,,,,,,,,,,,,,,,,,,,,,,,,,,,,,,,,,,,1.1886076651290738
8,240708_100811,DEMANDRATING,9.0,-1,,,,,,,,,,,,,,,,,,,,,,,,,,,,,,,,,,,,,,,9.0,Frustration,3.0,89.0,1.671608299948275,36,28,Female,1.4285714285714286,0.75,0.6,0.25,2.7777777777777777,3.375,2.4444444444444446,3.0,2.75,3.6666666666666665,2.0,2.0,2.0,1.0,,,,,,,,,,,,,,,,,,,,,,,,,,,,,,,,,,,,1.0474801059448828
