,END,Phase,Block,TrialN,NbackLevel,ISI,Letter_Resp,Letter_RT,Letter_Accuracy,Trial_A_measure,Trial_ACC,Trial_RT,TrialCountCali,CaliEnd_A_measure,ISI_calibrated,TrialIndex,TrialNumber_total,TrialNumber_valid,CueLearning,TrialDemandLearning,CueMapping,OfflineRatingTimePoint,CueFigure,TrialDemand,OfflineRating,OfflineRatingRT,PhaseType,CueLeft,CueDemandLeft,CueRight,CueDemandRight,Choice,ChoiceDemand,TaskDemand,ChoiceRT,CueCheck,CueDemandCheck,CorrectAnswer,Answer,AnswerDemand,AnswerRT,AnswerACC,DemandRatingQuesIndex,QuesTLX,DemandLevel,DemandRating,DemandRatingRT,PID,Age,Gender,BAI_bis,BAI_bas_d,BAI_bas_rr,BAI_bas_fs,NFC,BFI_ext,BFI_agr,BFI_con,BFI_neu,BFI_open,UPPS_lps,UPPS_lpm,UPPS_pu,UPPS_ss,Task_A_measure,Task_ACC,Task_RT,Task_RT_z,cue_i_on_zyg_values,cue_i_on_zyg_zvalues,cue_e_on_zyg_values,cue_e_on_zyg_zvalues,cue_i_on_cor_values,cue_i_on_cor_zvalues,cue_e_on_cor_values,cue_e_on_cor_zvalues,cue_i_on_scr_values,cue_i_on_scr_zvalues,cue_e_on_scr_values,cue_e_on_scr_zvalues,cue_e_true_zyg_values,cue_e_true_zyg_zvalues,cue_e_true_cor_values,cue_e_true_cor_zvalues,cue_e_true_scr_values,cue_e_true_scr_zvalues,cue_e_false_zyg_values,cue_e_false_zyg_zvalues,cue_e_false_cor_values,cue_e_false_cor_zvalues,cue_e_false_scr_values,cue_e_false_scr_zvalues,OfflineRating_z,cue_i_off_zyg_values,cue_i_off_zyg_zvalues,cue_i_off_cor_values,cue_i_off_cor_zvalues,cue_i_off_scr_values,cue_i_off_scr_zvalues,DemandRating_z
0,240708_171804,PRACTICE,0.0,1,3.0,1750.0,,,,,,,,,,28.0,1.0,1.0,cue2.png,Hard,A,,,,,,,,,,,,,,,,,,,,,,,,,,,37,22,Male,2.2857142857142856,1.25,1.2,1.25,1.0555555555555556,2.0,2.2222222222222223,1.6666666666666667,1.75,2.3333333333333335,1.75,2.0,2.0,1.0,,,,,,,,,,,,,,,,,,,,,,,,,,,,,,,,,,,,
0,240708_172027,LEARNING,1.0,1,1.0,1750.0,,,,,,,,,,1.0,1.0,1.0,cue1.png,Easy,A,,,,,,,,,,,,,,,,,,,,,,,,,,,37,22,Male,2.2857142857142856,1.25,1.2,1.25,1.0555555555555556,2.0,2.2222222222222223,1.6666666666666667,1.75,2.3333333333333335,1.75,2.0,2.0,1.0,1.0,1.0,0.4008723375736736,-1.0294211295290905,0.005098907827177956,-0.7652236531047022,0.004839040373845131,-0.9596871340202568,,,0.010520660283275949,-0.7636722717522495,,,7.886209876394945e+45,-0.17473767192353087,,,,,,,,,,,,,,,,,,,,
1,240708_172047,LEARNING,1.0,2,3.0,1750.0,,,,,,,,,,2.0,2.0,2.0,cue2.png,Hard,A,,,,,,,,,,,,,,,,,,,,,,,,,,,37,22,Male,2.2857142857142856,1.25,1.2,1.25,1.0555555555555556,2.0,2.2222222222222223,1.6666666666666667,1.75,2.3333333333333335,1.75,2.0,2.0,1.0,0.75,0.8333333333333334,0.4845355626312084,1.0385117544014928,,,0.006664575462583498,-0.14077683562241278,,,0.012344490432334855,-0.46037455838765223,8.004338707542969e+44,-0.17548013115418415,4.225327052393969e+44,-0.17671634240856265,,,,,,,,,,,,,,,,,,,,
2,240708_172106,LEARNING,1.0,3,1.0,1750.0,,,,,,,,,,3.0,3.0,3.0,cue1.png,Easy,A,,,,,,,,,,,,,,,,,,,,,,,,,,,37,22,Male,2.2857142857142856,1.25,1.2,1.25,1.0555555555555556,2.0,2.2222222222222223,1.6666666666666667,1.75,2.3333333333333335,1.75,2.0,2.0,1.0,1.0,1.0,0.4072956499876454,-0.8706538939189736,,,,,0.013947029625040023,-0.18257115824580109,0.013147759237804,-0.3267932640759994,-9.848396801224627e+44,-0.17826037765727173,-1.2350366558093479e+45,-0.17715577507645391,,,,,,,,,,,,,,,,,,,,
3,240708_172125,LEARNING,1.0,4,3.0,1750.0,,,,,,,,,,4.0,4.0,4.0,cue2.png,Hard,A,,,,,,,,,,,,,,,,,,,,,,,,,,,37,22,Male,2.2857142857142856,1.25,1.2,1.25,1.0555555555555556,2.0,2.2222222222222223,1.6666666666666667,1.75,2.3333333333333335,1.75,2.0,2.0,1.0,0.75,0.8333333333333334,0.4729411749867722,0.7519292629606044,0.004895907205642912,-0.8178131887949042,,,0.011597061718755547,-0.6013414652496026,0.01258047044323693,-0.42113176061764984,-1.0344327746594653e+45,-0.17833761009461785,-1.2828144915791335e+45,-0.17716844129865356,,,,,,,,,,,,,,,,,,,,
4,240708_172144,LEARNING,1.0,5,3.0,1750.0,,,,,,,,,,5.0,5.0,5.0,cue2.png,Hard,A,,,,,,,,,,,,,,,,,,,,,,,,,,,37,22,Male,2.2857142857142856,1.25,1.2,1.25,1.0555555555555556,2.0,2.2222222222222223,1.6666666666666667,1.75,2.3333333333333335,1.75,2.0,2.0,1.0,0.75,0.8333333333333334,0.4547336375690065,0.30188726020848533,,,0.005822546361024866,-0.5184996781307952,0.01358843360724762,-0.2464738881765673,0.01762153174926559,0.417182250058276,3.7459040448282496e+48,5.656853638060972,2.2005038792249878e+49,5.65685385747592,,,,,,,,,,,,,,,,,,,,
5,240708_172203,LEARNING,1.0,6,1.0,1750.0,,,,,,,,,,6.0,6.0,6.0,cue1.png,Easy,A,,,,,,,,,,,,,,,,,,,,,,,,,,,37,22,Male,2.2857142857142856,1.25,1.2,1.25,1.0555555555555556,2.0,2.2222222222222223,1.6666666666666667,1.75,2.3333333333333335,1.75,2.0,2.0,1.0,0.75,0.8333333333333334,0.3671383250621147,-1.8632363898373672,0.004670486312815482,-0.876210941466902,,,0.012545682496784933,-0.4322948100237242,0.018471216586534868,0.5584823970907827,,,,,,,,,,,,,,,,,,,,,,,,
6,240708_172222,LEARNING,1.0,7,3.0,1750.0,,,,,,,,,,7.0,7.0,7.0,cue2.png,Hard,A,,,,,,,,,,,,,,,,,,,,,,,,,,,37,22,Male,2.2857142857142856,1.25,1.2,1.25,1.0555555555555556,2.0,2.2222222222222223,1.6666666666666667,1.75,2.3333333333333335,1.75,2.0,2.0,1.0,0.75,0.8333333333333334,0.4451513749663718,0.06503915968618916,,,0.004291791508248838,-1.2051755579831502,0.009765926526347266,-0.9276544521800093,0.01147276327190272,-0.6053402804277811,5.718079469561044e+43,-0.17663761582346996,,,,,,,,,,,,,,,,,,,,,,
7,240708_172241,LEARNING,1.0,8,3.0,1750.0,,,,,,,,,,8.0,8.0,8.0,cue2.png,Hard,A,,,,,,,,,,,,,,,,,,,,,,,,,,,37,22,Male,2.2857142857142856,1.25,1.2,1.25,1.0555555555555556,2.0,2.2222222222222223,1.6666666666666667,1.75,2.3333333333333335,1.75,2.0,2.0,1.0,0.75,0.8333333333333334,0.4528672624728642,0.25575542113095084,0.008408224085179283,0.09209099029052778,0.0045582538607995375,-1.0856441581293736,0.011247820962055729,-0.6635770636636511,0.021923978451067513,1.1326667743177938,,,,,,,,,,,,,,,,,,,,,,,,
8,240708_172300,LEARNING,1.0,9,1.0,1750.0,,,,,,,,,,9.0,9.0,9.0,cue1.png,Easy,A,,,,,,,,,,,,,,,,,,,,,,,,,,,37,22,Male,2.2857142857142856,1.25,1.2,1.25,1.0555555555555556,2.0,2.2222222222222223,1.6666666666666667,1.75,2.3333333333333335,1.75,2.0,2.0,1.0,1.0,1.0,0.4401885000406764,-0.05762993716756414,,,0.005590978908260231,-0.6223776988889566,0.016379217839549275,0.25085101852403324,0.01125840889248601,-0.6409867978188453,,,,,,,,,,,,,,,,,,,,,,,,
9,240708_172319,LEARNING,1.0,10,1.0,1750.0,,,,,,,,,,10.0,10.0,10.0,cue1.png,Easy,A,,,,,,,,,,,,,,,,,,,,,,,,,,,37,22,Male,2.2857142857142856,1.25,1.2,1.25,1.0555555555555556,2.0,2.2222222222222223,1.6666666666666667,1.75,2.3333333333333335,1.75,2.0,2.0,1.0,1.0,1.0,0.4144330124836415,-0.6942372353470249,0.010078393665908663,0.5247667235482936,0.011786587899027515,2.1568885221136846,0.0270523957370885,2.15283868946443,0.02855876560264013,2.236012813844082,,,6.1237765047649995e+44,-0.17666601325025916,,,,,,,,,,,,,,,,,,,,
10,240708_172337,LEARNING,1.0,11,3.0,1750.0,,,,,,,,,,11.0,11.0,11.0,cue2.png,Hard,A,,,,,,,,,,,,,,,,,,,,,,,,,,,37,22,Male,2.2857142857142856,1.25,1.2,1.25,1.0555555555555556,2.0,2.2222222222222223,1.6666666666666667,1.75,2.3333333333333335,1.75,2.0,2.0,1.0,1.0,1.0,0.4205300250323489,-0.543535266416963,0.007357857188588025,-0.18001806523055,0.008812373370572443,0.822696195698525,0.015020681416596508,0.00875634421195497,0.017479790422225357,0.3936110746378298,,,,,,,,,,,,,,,,,,,,,,,,
11,240708_172356,LEARNING,1.0,12,1.0,1750.0,,,,,,,,,,12.0,12.0,12.0,cue1.png,Easy,A,,,,,,,,,,,,,,,,,,,,,,,,,,,37,22,Male,2.2857142857142856,1.25,1.2,1.25,1.0555555555555556,2.0,2.2222222222222223,1.6666666666666667,1.75,2.3333333333333335,1.75,2.0,2.0,1.0,1.0,1.0,0.4141097625833936,-0.7022271149863792,0.00937917751759636,0.3436271176260156,0.008486184875671572,0.6763724578853987,0.013102516156892187,-0.33306562388481503,0.011116755040273133,-0.6645434264268443,3.4604059545468733e+44,-0.17618776798331762,,,,,,,,,,,,,,,,,,,,,,
12,240708_172416,LEARNING,1.0,13,1.0,1750.0,,,,,,,,,,13.0,13.0,13.0,cue1.png,Easy,A,,,,,,,,,,,,,,,,,,,,,,,,,,,37,22,Male,2.2857142857142856,1.25,1.2,1.25,1.0555555555555556,2.0,2.2222222222222223,1.6666666666666667,1.75,2.3333333333333335,1.75,2.0,2.0,1.0,1.0,1.0,0.4805042873485945,0.9388693282894122,0.01101992887395434,0.7686817374663768,0.010709612010513089,1.6737717353308306,0.014424043636028661,-0.09756603826411359,,,1.865989133128275e+43,-0.17669760528941023,,,,,,,,,,,,,,,,,,,,,,
13,240708_172434,LEARNING,1.0,14,1.0,1750.0,,,,,,,,,,14.0,14.0,14.0,cue1.png,Easy,A,,,,,,,,,,,,,,,,,,,,,,,,,,,37,22,Male,2.2857142857142856,1.25,1.2,1.25,1.0555555555555556,2.0,2.2222222222222223,1.6666666666666667,1.75,2.3333333333333335,1.75,2.0,2.0,1.0,1.0,1.0,0.4030266124173067,-0.976173172770195,0.007547732479122179,-0.13082879037648476,0.008020025459972744,0.46725966209974445,0.01337931765999091,-0.28373888622096277,0.010343421632947925,-0.7931465500407486,-1.8267033832160707e+44,-0.17701114136721938,,,,,,,,,,,,,,,,,,,,,,
14,240708_172454,LEARNING,1.0,15,3.0,1750.0,,,,,,,,,,15.0,15.0,15.0,cue2.png,Hard,A,,,,,,,,,,,,,,,,,,,,,,,,,,,37,22,Male,2.2857142857142856,1.25,1.2,1.25,1.0555555555555556,2.0,2.2222222222222223,1.6666666666666667,1.75,2.3333333333333335,1.75,2.0,2.0,1.0,0.1666666666666666,0.6666666666666667,0.4724062876193784,0.7387082668123928,0.009193792251366973,0.2956010327742265,0.007972090943438724,0.4457568876635876,0.014852776992300039,-0.021164654760793242,0.011655556850374175,-0.5749422335500431,,,,,,,,,,,,,,,,,,,,,,,,
15,240708_172513,LEARNING,1.0,16,1.0,1750.0,,,,,,,,,,16.0,16.0,16.0,cue1.png,Easy,A,,,,,,,,,,,,,,,,,,,,,,,,,,,37,22,Male,2.2857142857142856,1.25,1.2,1.25,1.0555555555555556,2.0,2.2222222222222223,1.6666666666666667,1.75,2.3333333333333335,1.75,2.0,2.0,1.0,1.0,1.0,0.4322073999210261,-0.2549015505438976,0.008119387288508563,0.017264652753742477,0.008747168124081325,0.7934460058826451,0.02329135284016627,1.4826112006606207,0.011578725129082586,-0.5877191280397132,,,,,,,,,,,,,,,,,,,,,,,,
16,240708_172532,LEARNING,1.0,17,1.0,1750.0,,,,,,,,,,17.0,17.0,17.0,cue1.png,Easy,A,,,,,,,,,,,,,,,,,,,,,,,,,,,37,22,Male,2.2857142857142856,1.25,1.2,1.25,1.0555555555555556,2.0,2.2222222222222223,1.6666666666666667,1.75,2.3333333333333335,1.75,2.0,2.0,1.0,1.0,1.0,0.4313814000342972,-0.27531807556686827,0.007181201420916633,-0.22578267781441305,0.0065218401166220585,-0.20480597725561112,,,0.016631475757534896,0.2525387833682538,,,,,,,,,,,,,,,,,,,,,,,,
17,240708_172551,LEARNING,1.0,18,3.0,1750.0,,,,,,,,,,18.0,18.0,18.0,cue2.png,Hard,A,,,,,,,,,,,,,,,,,,,,,,,,,,,37,22,Male,2.2857142857142856,1.25,1.2,1.25,1.0555555555555556,2.0,2.2222222222222223,1.6666666666666667,1.75,2.3333333333333335,1.75,2.0,2.0,1.0,1.0,1.0,0.4748172874678857,0.7983017843519232,0.0056342677369621945,-0.6265328014718109,,,0.016858582735205244,0.33627507218189384,0.01173111382293008,-0.5623773261123728,,,,,,,,,,,,,,,,,,,,,,,,
18,240708_172610,LEARNING,1.0,19,3.0,1750.0,,,,,,,,,,19.0,19.0,19.0,cue2.png,Hard,A,,,,,,,,,,,,,,,,,,,,,,,,,,,37,22,Male,2.2857142857142856,1.25,1.2,1.25,1.0555555555555556,2.0,2.2222222222222223,1.6666666666666667,1.75,2.3333333333333335,1.75,2.0,2.0,1.0,0.75,0.8333333333333334,0.462182774906978,0.486010165433726,0.0056780080227998,-0.6152014010762742,0.00582300771213551,-0.5182927222754876,0.0144989207360428,-0.08422274703165906,0.012913525102051206,-0.3657457278251117,,,,,,,,,,,,,,,,,,,,,,,,
19,240708_172629,LEARNING,1.0,20,3.0,1750.0,,,,,,,,,,20.0,20.0,20.0,cue2.png,Hard,A,,,,,,,,,,,,,,,,,,,,,,,,,,,37,22,Male,2.2857142857142856,1.25,1.2,1.25,1.0555555555555556,2.0,2.2222222222222223,1.6666666666666667,1.75,2.3333333333333335,1.75,2.0,2.0,1.0,1.0,1.0,0.4464718250674195,0.09767718175225433,0.0076623212975745975,-0.10114330117880155,0.006498907876120997,-0.2150930695320099,,,,,,,1.5889187186735284e+44,-0.17678623534788462,,,,,,,,,,,,,,,,,,,,
20,240708_172648,LEARNING,1.0,21,1.0,1750.0,,,,,,,,,,21.0,21.0,21.0,cue1.png,Easy,A,,,,,,,,,,,,,,,,,,,,,,,,,,,37,22,Male,2.2857142857142856,1.25,1.2,1.25,1.0555555555555556,2.0,2.2222222222222223,1.6666666666666667,1.75,2.3333333333333335,1.75,2.0,2.0,1.0,1.0,1.0,0.4215720499050803,-0.5177791770633311,0.0059275135480753825,-0.5505642604253641,0.005355414469388763,-0.7280487134414472,0.015261924916352816,0.05174655449757191,0.013479216386036408,-0.2716728927030878,1.0972163320257978e+44,-0.17655579279838982,6.337425934852862e+43,-0.17681155770258428,,,,,,,,,,,,,,,,,,,,
21,240708_172708,LEARNING,1.0,22,3.0,1750.0,,,,,,,,,,22.0,22.0,22.0,cue2.png,Hard,A,,,,,,,,,,,,,,,,,,,,,,,,,,,37,22,Male,2.2857142857142856,1.25,1.2,1.25,1.0555555555555556,2.0,2.2222222222222223,1.6666666666666667,1.75,2.3333333333333335,1.75,2.0,2.0,1.0,1.0,1.0,0.5041373750427738,1.52301653463963,0.019422366411480107,2.9454252637817486,0.005887853076034155,-0.4892039709129185,,,0.012628558031376356,-0.4131349328804659,3.353382518740005e+43,-0.17667444177893854,-3.742830949739096e+43,-0.17683828113437491,,,,,,,,,,,,,,,,,,,,
22,240708_172727,LEARNING,1.0,23,3.0,1750.0,,,,,,,,,,23.0,23.0,23.0,cue2.png,Hard,A,,,,,,,,,,,,,,,,,,,,,,,,,,,37,22,Male,2.2857142857142856,1.25,1.2,1.25,1.0555555555555556,2.0,2.2222222222222223,1.6666666666666667,1.75,2.3333333333333335,1.75,2.0,2.0,1.0,0.75,0.8333333333333334,0.4942852251697331,1.2794975370649786,0.00879128930588121,0.19132823372084615,0.006079837746430542,-0.403082249839471,0.012199410906676946,-0.49400129533717185,0.01243314302980978,-0.4456318861536993,-4.1529384819632296e+43,-0.17679133939781047,-1.2556963083193026e+44,-0.17686164798519616,,,,,,,,,,,,,,,,,,,,
23,240708_172747,LEARNING,1.0,24,3.0,1750.0,,,,,,,,,,24.0,24.0,24.0,cue2.png,Hard,A,,,,,,,,,,,,,,,,,,,,,,,,,,,37,22,Male,2.2857142857142856,1.25,1.2,1.25,1.0555555555555556,2.0,2.2222222222222223,1.6666666666666667,1.75,2.3333333333333335,1.75,2.0,2.0,1.0,0.75,0.8333333333333334,0.5131651250412688,1.7461585552460985,0.005519650121864833,-0.6562257507559487,0.005161061410113384,-0.8152328616660256,0.01235920904892197,-0.4655248566132104,0.017305539803688267,0.3646336974506303,-1.0688086573529286e+44,-0.17689311272335947,-1.6644931006493404e+44,-0.1768724854601942,,,,,,,,,,,,,,,,,,,,
24,240708_172806,LEARNING,1.0,25,1.0,1750.0,,,,,,,,,,25.0,25.0,25.0,cue1.png,Easy,A,,,,,,,,,,,,,,,,,,,,,,,,,,,37,22,Male,2.2857142857142856,1.25,1.2,1.25,1.0555555555555556,2.0,2.2222222222222223,1.6666666666666667,1.75,2.3333333333333335,1.75,2.0,2.0,1.0,1.0,1.0,0.4815318873734213,0.9642688736859206,0.006811321139122927,-0.3216042183269581,0.005502641709848766,-0.6620045688171359,0.011606312128470919,-0.5996930185171782,0.015854930957465464,0.12340161436830217,,,-1.5499542537973897e+44,-0.17686944895914442,,,,,,,,,,,,,,,,,,,,
25,240708_172825,LEARNING,1.0,26,1.0,1750.0,,,,,,,,,,26.0,26.0,26.0,cue1.png,Easy,A,,,,,,,,,,,,,,,,,,,,,,,,,,,37,22,Male,2.2857142857142856,1.25,1.2,1.25,1.0555555555555556,2.0,2.2222222222222223,1.6666666666666667,1.75,2.3333333333333335,1.75,2.0,2.0,1.0,1.0,1.0,0.442527737468481,0.00018980378733829398,,,0.006156893201444974,-0.36851621709196586,0.013294212457599063,-0.2989048515254016,0.029950891456176208,2.4675193432821994,-1.1720692150518541e+44,-0.17690919372138403,-1.0867847917094632e+44,-0.17685717002848886,,,,,,,,,,,,,,,,,,,,
26,240708_172844,LEARNING,1.0,27,3.0,1750.0,,,,,,,,,,27.0,27.0,27.0,cue2.png,Hard,A,,,,,,,,,,,,,,,,,,,,,,,,,,,37,22,Male,2.2857142857142856,1.25,1.2,1.25,1.0555555555555556,2.0,2.2222222222222223,1.6666666666666667,1.75,2.3333333333333335,1.75,2.0,2.0,1.0,1.0,1.0,0.4540422374848276,0.2847976850810304,0.004951081597945838,-0.8035196578132808,0.005061562204779728,-0.8598668566151142,0.012793907206777783,-0.3880605301717969,0.013460226165468263,-0.27483091181883706,9.70796768643849e+42,-0.17671154632068653,3.440867509258778e+44,-0.1767371389530689,,,,,,,,,,,,,,,,,,,,
27,240708_172903,LEARNING,1.0,28,1.0,1750.0,,,,,,,,,,28.0,28.0,28.0,cue1.png,Easy,A,,,,,,,,,,,,,,,,,,,,,,,,,,,37,22,Male,2.2857142857142856,1.25,1.2,1.25,1.0555555555555556,2.0,2.2222222222222223,1.6666666666666667,1.75,2.3333333333333335,1.75,2.0,2.0,1.0,1.0,1.0,0.4169413750059902,-0.6322371709075201,0.005065530300855325,-0.7738704670825186,0.004729392655114185,-1.0088736145313806,0.016563918553260358,0.2837651593417709,0.020048732336983094,0.8208187337033048,-4.054931340421242e+42,-0.17673297959172388,4.723539548433916e+43,-0.17681583622279057,,,,,,,,,,,,,,,,,,,,
28,240708_172922,LEARNING,1.0,29,1.0,1750.0,,,,,,,,,,29.0,29.0,29.0,cue1.png,Easy,A,,,,,,,,,,,,,,,,,,,,,,,,,,,37,22,Male,2.2857142857142856,1.25,1.2,1.25,1.0555555555555556,2.0,2.2222222222222223,1.6666666666666667,1.75,2.3333333333333335,1.75,2.0,2.0,1.0,1.0,1.0,0.4183461499051191,-0.5975148636281732,0.004470726464177498,-0.9279609194225263,0.005586224995256014,-0.6245102398304354,0.014035567251957625,-0.1667935260889881,0.03809651714612675,3.8221134906378187,5.743544682255322e+43,-0.1766372192480067,1.0652865689742892e+44,-0.1768001171846236,,,,,,,,,,,,,,,,,,,,
29,240708_172941,LEARNING,1.0,30,3.0,1750.0,,,,,,,,,,30.0,30.0,30.0,cue2.png,Hard,A,,,,,,,,,,,,,,,,,,,,,,,,,,,37,22,Male,2.2857142857142856,1.25,1.2,1.25,1.0555555555555556,2.0,2.2222222222222223,1.6666666666666667,1.75,2.3333333333333335,1.75,2.0,2.0,1.0,0.75,0.8333333333333334,0.4496819375781342,0.1770226434824079,0.005092583300038695,-0.7668620911705503,0.004859168567831576,-0.9506578990056396,0.011819300754139086,-0.5617378992490178,0.011757450527825435,-0.5579976077617131,9.263215803224904e+43,-0.17658240662099342,1.3864842882966956e+44,-0.17679160201934369,,,,,,,,,,,,,,,,,,,,
30,240708_173001,LEARNING,1.0,31,3.0,1750.0,,,,,,,,,,31.0,31.0,31.0,cue2.png,Hard,A,,,,,,,,,,,,,,,,,,,,,,,,,,,37,22,Male,2.2857142857142856,1.25,1.2,1.25,1.0555555555555556,2.0,2.2222222222222223,1.6666666666666667,1.75,2.3333333333333335,1.75,2.0,2.0,1.0,0.75,0.8333333333333334,0.5031869501108304,1.499524552718999,0.01825846215730193,2.643903111523143,0.004565487755135166,-1.0823991311750782,0.011812351499173687,-0.5629762743040665,0.01037474099117355,-0.7879382307579579,1.113764320683987e+44,-0.17655321574303728,,,,,,,,,,,,,,,,,,,,,,
31,240708_173020,LEARNING,1.0,32,1.0,1750.0,,,,,,,,,,32.0,32.0,32.0,cue1.png,Easy,A,,,,,,,,,,,,,,,,,,,,,,,,,,,37,22,Male,2.2857142857142856,1.25,1.2,1.25,1.0555555555555556,2.0,2.2222222222222223,1.6666666666666667,1.75,2.3333333333333335,1.75,2.0,2.0,1.0,1.0,1.0,0.4585795249440707,0.3969473892594461,0.006711849571756872,-0.34737341796093285,0.004777302141902527,-0.9873820680998939,0.012264059109819547,-0.48248081975753915,0.011275852818032062,-0.6380859231222898,9.82393900990944e+43,-0.17657367435285545,,,,,,,,,,,,,,,,,,,,,,
32,240708_173038,LEARNING,1.0,33,1.0,1750.0,,,,,,,,,,33.0,33.0,33.0,cue1.png,Easy,A,,,,,,,,,,,,,,,,,,,,,,,,,,,37,22,Male,2.2857142857142856,1.25,1.2,1.25,1.0555555555555556,2.0,2.2222222222222223,1.6666666666666667,1.75,2.3333333333333335,1.75,2.0,2.0,1.0,1.0,1.0,0.3778301249840297,-1.5989634714585985,0.004925100138055587,-0.8102504397283798,,,0.01526590476049335,0.05245577292906704,0.011509225390523955,-0.5992767348679297,5.624749339194262e+43,-0.17663906927450246,4.252684803505375e+43,-0.17681708449005235,,,,,,,,,,,,,,,,,,,,
33,240708_173057,LEARNING,1.0,34,1.0,1750.0,,,,,,,,,,34.0,34.0,34.0,cue1.png,Easy,A,,,,,,,,,,,,,,,,,,,,,,,,,,,37,22,Male,2.2857142857142856,1.25,1.2,1.25,1.0555555555555556,2.0,2.2222222222222223,1.6666666666666667,1.75,2.3333333333333335,1.75,2.0,2.0,1.0,1.0,1.0,0.3515093749738298,-2.2495425572920418,0.005388738733841577,-0.6901397804798156,0.0043903864183900375,-1.1609472176010223,,,,,4.332585858453097e+42,-0.1767199175232525,-3.329184262165286e+43,-0.17683718452948008,,,,,,,,,,,,,,,,,,,,
34,240708_173116,LEARNING,1.0,35,3.0,1750.0,,,,,,,,,,35.0,35.0,35.0,cue2.png,Hard,A,,,,,,,,,,,,,,,,,,,,,,,,,,,37,22,Male,2.2857142857142856,1.25,1.2,1.25,1.0555555555555556,2.0,2.2222222222222223,1.6666666666666667,1.75,2.3333333333333335,1.75,2.0,2.0,1.0,1.0,1.0,0.4850910124368965,1.052240999452295,0.005032816191240484,-0.7823454156918058,,,0.01314720763349687,-0.32510148814996254,0.010033218765669283,-0.8447323955611229,-4.922544658368418e+43,-0.17680332464723994,-9.06001968201934e+43,-0.17685237735553594,,,,,,,,,,,,,,,,,,,,
35,240708_173135,LEARNING,1.0,36,3.0,1750.0,,,,,,,,,,36.0,36.0,36.0,cue2.png,Hard,A,,,,,,,,,,,,,,,,,,,,,,,,,,,37,22,Male,2.2857142857142856,1.25,1.2,1.25,1.0555555555555556,2.0,2.2222222222222223,1.6666666666666667,1.75,2.3333333333333335,1.75,2.0,2.0,1.0,1.0,1.0,0.4355112375924364,-0.17323945158489176,0.005381054450183272,-0.6921304783734783,0.005259686487640154,-0.7709909886036047,0.011040397481010239,-0.7005404598891576,0.016454955495804502,0.22318397103938958,-8.868706051185481e+43,-0.17686477910281964,-1.2249759538830798e+44,-0.17686083356815724,,,,,,,,,,,,,,,,,,,,
36,240708_173154,LEARNING,1.0,37,1.0,1750.0,,,,,,,,,,37.0,37.0,37.0,cue1.png,Easy,A,,,,,,,,,,,,,,,,,,,,,,,,,,,37,22,Male,2.2857142857142856,1.25,1.2,1.25,1.0555555555555556,2.0,2.2222222222222223,1.6666666666666667,1.75,2.3333333333333335,1.75,2.0,2.0,1.0,1.0,1.0,0.4146961375372484,-0.6877334823472396,,,0.00621902133019664,-0.34064638058825436,0.014408197245358266,-0.1003899057170252,,,-1.0193328509637998e+44,-0.17688540774517092,-1.225873337718606e+44,-0.17686085735839988,,,,,,,,,,,,,,,,,,,,
37,240708_173213,LEARNING,1.0,38,3.0,1750.0,,,,,,,,,,38.0,38.0,38.0,cue2.png,Hard,A,,,,,,,,,,,,,,,,,,,,,,,,,,,37,22,Male,2.2857142857142856,1.25,1.2,1.25,1.0555555555555556,2.0,2.2222222222222223,1.6666666666666667,1.75,2.3333333333333335,1.75,2.0,2.0,1.0,1.0,1.0,0.4594894874608144,0.41943924766228013,0.004915375114278096,-0.812769813714366,,,0.011022368546232633,-0.7037532622987474,0.013916509847095455,-0.19895224660732255,-8.146026126542468e+43,-0.17685352464642357,-8.643018581239625e+43,-0.17685127185786848,,,,,,,,,,,,,,,,,,,,
38,240708_173233,LEARNING,1.0,39,3.0,1750.0,,,,,,,,,,39.0,39.0,39.0,cue2.png,Hard,A,,,,,,,,,,,,,,,,,,,,,,,,,,,37,22,Male,2.2857142857142856,1.25,1.2,1.25,1.0555555555555556,2.0,2.2222222222222223,1.6666666666666667,1.75,2.3333333333333335,1.75,2.0,2.0,1.0,1.0,1.0,0.5057644749758765,1.5632341267153653,0.007318165645205047,-0.190300594523092,0.0070293005683907854,0.02283390353694651,,,,,-2.74999159473258e+43,-0.17676949099157982,-1.1966562097832685e+43,-0.17683153105570437,,,,,,,,,,,,,,,,,,,,
39,240708_173252,LEARNING,1.0,40,3.0,1750.0,,,,,,,,,,40.0,40.0,40.0,cue2.png,Hard,A,,,,,,,,,,,,,,,,,,,,,,,,,,,37,22,Male,2.2857142857142856,1.25,1.2,1.25,1.0555555555555556,2.0,2.2222222222222223,1.6666666666666667,1.75,2.3333333333333335,1.75,2.0,2.0,1.0,1.0,1.0,0.511543637374416,1.706079683497289,0.00841546858316039,0.09396775688490637,0.006968617621653151,-0.004387643902560962,0.011877807778881248,-0.5513117974083792,,,,,5.84658348834684e+43,-0.17681285895857302,,,,,,,,,,,,,,,,,,,,
40,240708_173312,LEARNING,1.0,41,1.0,1750.0,,,,,,,,,,41.0,41.0,41.0,cue1.png,Easy,A,,,,,,,,,,,,,,,,,,,,,,,,,,,37,22,Male,2.2857142857142856,1.25,1.2,1.25,1.0555555555555556,2.0,2.2222222222222223,1.6666666666666667,1.75,2.3333333333333335,1.75,2.0,2.0,1.0,1.0,1.0,0.4618206125451252,0.4770584730159117,,,,,,,,,8.002845628780907e+43,-0.17660203464812893,1.1491805056683639e+44,-0.17679789310053468,,,,,,,,,,,,,,,,,,,,
41,240708_173331,LEARNING,1.0,42,3.0,1750.0,,,,,,,,,,42.0,42.0,42.0,cue2.png,Hard,A,,,,,,,,,,,,,,,,,,,,,,,,,,,37,22,Male,2.2857142857142856,1.25,1.2,1.25,1.0555555555555556,2.0,2.2222222222222223,1.6666666666666667,1.75,2.3333333333333335,1.75,2.0,2.0,1.0,1.0,1.0,0.4554407125106081,0.3193642762108653,,,0.009899929411684095,1.3105590955382782,0.012401945203597178,-0.4579091642602901,,,,,,,,,,,,,,,,,,,,,,,,,,
42,240708_173350,LEARNING,1.0,43,3.0,1750.0,,,,,,,,,,43.0,43.0,43.0,cue2.png,Hard,A,,,,,,,,,,,,,,,,,,,,,,,,,,,37,22,Male,2.2857142857142856,1.25,1.2,1.25,1.0555555555555556,2.0,2.2222222222222223,1.6666666666666667,1.75,2.3333333333333335,1.75,2.0,2.0,1.0,1.0,1.0,0.4736456873943098,0.7693429399218048,0.01097713277016641,0.7575949377780894,0.011966267941113426,2.2374905536979695,0.014604712754680315,-0.06537033802432464,0.014143732790686977,-0.16116572396932244,8.41066348673168e+43,-0.17659568360924802,9.416638653549147e+43,-0.17680339450476112,,,,,,,,,,,,,,,,,,,,
43,240708_173408,LEARNING,1.0,44,1.0,1750.0,,,,,,,,,,44.0,44.0,44.0,cue1.png,Easy,A,,,,,,,,,,,,,,,,,,,,,,,,,,,37,22,Male,2.2857142857142856,1.25,1.2,1.25,1.0555555555555556,2.0,2.2222222222222223,1.6666666666666667,1.75,2.3333333333333335,1.75,2.0,2.0,1.0,1.0,1.0,0.3548052250407636,-2.16807789071685,0.01088018766030938,0.7324802446492471,0.01217093450483774,2.3293012002341427,0.012022355153296357,-0.5255530846197797,0.00796559492060301,-1.1885723000776167,2.003526764929325e+43,-0.1766954633850524,4.795374199623266e+42,-0.17682708735484978,,,,,,,,,,,,,,,,,,,,
44,240708_173427,LEARNING,1.0,45,1.0,1750.0,,,,,,,,,,45.0,45.0,45.0,cue1.png,Easy,A,,,,,,,,,,,,,,,,,,,,,,,,,,,37,22,Male,2.2857142857142856,1.25,1.2,1.25,1.0555555555555556,2.0,2.2222222222222223,1.6666666666666667,1.75,2.3333333333333335,1.75,2.0,2.0,1.0,1.0,1.0,0.4131624999572523,-0.7256409331002392,0.010415606334087123,0.6121253607497957,0.00964082446878755,1.1943281299366217,0.027443542591247636,2.2225420619069824,0.01162776950319278,-0.5795631895447304,-4.56199739345142e+43,-0.1767977097638962,-8.254009269248059e+43,-0.1768502405682958,,,,,,,,,,,,,,,,,,,,
45,240708_173446,LEARNING,1.0,46,1.0,1750.0,,,,,,,,,,46.0,46.0,46.0,cue1.png,Easy,A,,,,,,,,,,,,,,,,,,,,,,,,,,,37,22,Male,2.2857142857142856,1.25,1.2,1.25,1.0555555555555556,2.0,2.2222222222222223,1.6666666666666667,1.75,2.3333333333333335,1.75,2.0,2.0,1.0,1.0,1.0,0.4010795250651426,-1.024300004608873,0.0069417366274021385,-0.28781865686634595,,,0.01443434384518301,-0.09573051457962652,0.02257541460706703,1.2409987352844591,-1.0672228318407701e+44,-0.1768928657591991,-1.3931841324722673e+44,-0.1768652928789056,,,,,,,,,,,,,,,,,,,,
46,240708_173505,LEARNING,1.0,47,3.0,1750.0,,,,,,,,,,47.0,47.0,47.0,cue2.png,Hard,A,,,,,,,,,,,,,,,,,,,,,,,,,,,37,22,Male,2.2857142857142856,1.25,1.2,1.25,1.0555555555555556,2.0,2.2222222222222223,1.6666666666666667,1.75,2.3333333333333335,1.75,2.0,2.0,1.0,1.0,1.0,0.4387689374270849,-0.0927177575023113,,,0.010115122164253464,1.4070916477235251,0.040659513682250396,4.577662000495036,0.01315953265766361,-0.3248353781819959,,,-1.0082473093649871e+44,-0.1768550879475692,,,,,,,,,,,,,,,,,,,,
47,240708_173524,LEARNING,1.0,48,3.0,1750.0,,,,,,,,,,48.0,48.0,48.0,cue2.png,Hard,A,,,,,,,,,,,,,,,,,,,,,,,,,,,37,22,Male,2.2857142857142856,1.25,1.2,1.25,1.0555555555555556,2.0,2.2222222222222223,1.6666666666666667,1.75,2.3333333333333335,1.75,2.0,2.0,1.0,0.75,0.8333333333333334,0.446073199971579,0.08782422732118098,0.009668927927630893,0.4186901367169753,0.00782958328678477,0.38182988436773807,,,,,2.60426591434302e+43,-0.17668610793967202,6.627446309177706e+43,-0.17681078883927256,,,,,,,,,,,,,,,,,,,,
48,240708_173542,LEARNING,1.0,49,1.0,1750.0,,,,,,,,,,49.0,49.0,49.0,cue1.png,Easy,A,,,,,,,,,,,,,,,,,,,,,,,,,,,37,22,Male,2.2857142857142856,1.25,1.2,1.25,1.0555555555555556,2.0,2.2222222222222223,1.6666666666666667,1.75,2.3333333333333335,1.75,2.0,2.0,1.0,1.0,1.0,0.354375037481077,-2.1787109854884417,0.020848741965121143,3.314943482586253,0.008778447637935397,0.8074775718503422,,,,,,,,,,,,,,,,,,,,,,,,,,,,
49,240708_173601,LEARNING,1.0,50,1.0,1750.0,,,,,,,,,,50.0,50.0,50.0,cue1.png,Easy,A,,,,,,,,,,,,,,,,,,,,,,,,,,,37,22,Male,2.2857142857142856,1.25,1.2,1.25,1.0555555555555556,2.0,2.2222222222222223,1.6666666666666667,1.75,2.3333333333333335,1.75,2.0,2.0,1.0,1.0,1.0,0.4496039249352179,0.1750943779925467,,,,,,,,,-6.063137691171281e+43,-0.17682108735811045,-2.244195777159007e+43,-0.1768343081528059,,,,,,,,,,,,,,,,,,,,
0,240708_173736,TrueCHOICE,9.0,1,1.0,1750.0,,,,,,,,,,,1.0,1.0,,,A,,,,,,True,cue1.png,Easy,cue2.png,Hard,Left,Easy,Easy,0.0163092999719083,,,,,,,,,,,,,37,22,Male,2.2857142857142856,1.25,1.2,1.25,1.0555555555555556,2.0,2.2222222222222223,1.6666666666666667,1.75,2.3333333333333335,1.75,2.0,2.0,1.0,1.0,1.0,0.4539733874844387,1.3709242935875896,,,,,,,,,,,,,0.00986716467308736,-0.5572460265295227,,,,,,,,,,,,,,,,,,
1,240708_173753,TrueCHOICE,9.0,2,1.0,1750.0,,,,,,,,,,,2.0,2.0,,,A,,,,,,True,cue1.png,Easy,cue2.png,Hard,Left,Easy,Easy,0.0141620999202132,,,,,,,,,,,,,37,22,Male,2.2857142857142856,1.25,1.2,1.25,1.0555555555555556,2.0,2.2222222222222223,1.6666666666666667,1.75,2.3333333333333335,1.75,2.0,2.0,1.0,1.0,1.0,0.4211616375250742,0.2432736555205145,,,,,,,,,,,,,,,0.01312278785771927,-1.1617434865474492,10913569.781022595,-0.41398667414913687,,,,,,,,,,,,,,
2,240708_173810,TrueCHOICE,9.0,3,1.0,1750.0,,,,,,,,,,,3.0,3.0,,,A,,,,,,True,cue2.png,Hard,cue1.png,Easy,Right,Easy,Easy,0.0169732999056577,,,,,,,,,,,,,37,22,Male,2.2857142857142856,1.25,1.2,1.25,1.0555555555555556,2.0,2.2222222222222223,1.6666666666666667,1.75,2.3333333333333335,1.75,2.0,2.0,1.0,1.0,1.0,0.4000005749403499,-0.4839745331738925,,,,,,,,,,,,,0.01381184069967599,0.35812990532981787,0.016989737521982937,-0.31138347677816686,4601933.135067801,-0.41752946692233456,,,,,,,,,,,,,,
3,240708_173828,TrueCHOICE,9.0,4,1.0,1750.0,,,,,,,,,,,4.0,4.0,,,A,,,,,,True,cue1.png,Easy,cue2.png,Hard,Left,Easy,Easy,0.0160662000998854,,,,,,,,,,,,,37,22,Male,2.2857142857142856,1.25,1.2,1.25,1.0555555555555556,2.0,2.2222222222222223,1.6666666666666667,1.75,2.3333333333333335,1.75,2.0,2.0,1.0,1.0,1.0,0.3940337001113221,-0.6890397984082215,,,,,,,,,,,,,,,0.017865885711192003,-0.11871446181258725,1191343.469139198,-0.4194438693346691,,,,,,,,,,,,,,
4,240708_173845,TrueCHOICE,9.0,5,1.0,1750.0,,,,,,,,,,,5.0,5.0,,,A,,,,,,True,cue2.png,Hard,cue1.png,Easy,Right,Easy,Easy,0.0136395003646612,,,,,,,,,,,,,37,22,Male,2.2857142857142856,1.25,1.2,1.25,1.0555555555555556,2.0,2.2222222222222223,1.6666666666666667,1.75,2.3333333333333335,1.75,2.0,2.0,1.0,1.0,1.0,0.4116126249427907,-0.08489994523707896,,,,,,,,,,,,,0.013328070397076437,0.24586930685149286,0.022415484868856084,0.8817633100888554,,,,,,,,,,,,,,,,
5,240708_173902,TrueCHOICE,9.0,6,1.0,1750.0,,,,,,,,,,,6.0,6.0,,,A,,,,,,True,cue2.png,Hard,cue1.png,Easy,Right,Easy,Easy,0.0166243999265134,,,,,,,,,,,,,37,22,Male,2.2857142857142856,1.25,1.2,1.25,1.0555555555555556,2.0,2.2222222222222223,1.6666666666666667,1.75,2.3333333333333335,1.75,2.0,2.0,1.0,1.0,1.0,0.3911987624596804,-0.7864688979141375,,,,,,,,,,,,,0.010139029541136069,-0.49415882868298167,0.02743968612484987,1.9866082654325528,247812.28547513997,-0.4199734840204122,,,,,,,,,,,,,,
6,240708_173918,TrueCHOICE,9.0,7,1.0,1750.0,,,,,,,,,,,7.0,7.0,,,A,,,,,,True,cue1.png,Easy,cue2.png,Hard,Left,Easy,Easy,0.017387599684298,,,,,,,,,,,,,37,22,Male,2.2857142857142856,1.25,1.2,1.25,1.0555555555555556,2.0,2.2222222222222223,1.6666666666666667,1.75,2.3333333333333335,1.75,2.0,2.0,1.0,1.0,1.0,0.4394259124528616,0.8709671281837705,,,,,,,,,,,,,0.010624188226102952,-0.38157605119814114,,,1167614.1528653847,-0.41945718886729166,,,,,,,,,,,,,,
7,240708_173934,TrueCHOICE,9.0,8,1.0,1750.0,,,,,,,,,,,8.0,8.0,,,A,,,,,,True,cue2.png,Hard,cue1.png,Easy,Right,Easy,Easy,0.0166297000832855,,,,,,,,,,,,,37,22,Male,2.2857142857142856,1.25,1.2,1.25,1.0555555555555556,2.0,2.2222222222222223,1.6666666666666667,1.75,2.3333333333333335,1.75,2.0,2.0,1.0,1.0,1.0,0.3774445000453852,-1.2591655022351562,,,,,,,,,,,,,0.008648737060632477,-0.8399864350285629,0.015437704785209897,-0.6526826111841167,109625485.5561099,-0.35857856347143785,,,,,,,,,,,,,,
8,240708_173952,TrueCHOICE,9.0,9,1.0,1750.0,,,,,,,,,,,9.0,9.0,,,A,,,,,,True,cue1.png,Easy,cue2.png,Hard,Left,Easy,Easy,0.0152834998443722,,,,,,,,,,,,,37,22,Male,2.2857142857142856,1.25,1.2,1.25,1.0555555555555556,2.0,2.2222222222222223,1.6666666666666667,1.75,2.3333333333333335,1.75,2.0,2.0,1.0,1.0,1.0,0.467383949959185,1.8318088654319518,,,,,,,,,,,,,0.009042308242646189,-0.7486568594029714,0.015568830156406251,-0.6238475391990862,5111391826.059802,2.4489692467652824,,,,,,,,,,,,,,
9,240708_174008,TrueCHOICE,9.0,10,1.0,1750.0,,,,,,,,,,,10.0,10.0,,,A,,,,,,True,cue2.png,Hard,cue1.png,Easy,Right,Easy,Easy,0.0158814997412264,,,,,,,,,,,,,37,22,Male,2.2857142857142856,1.25,1.2,1.25,1.0555555555555556,2.0,2.2222222222222223,1.6666666666666667,1.75,2.3333333333333335,1.75,2.0,2.0,1.0,1.0,1.0,0.3845949125243351,-1.0134252657553473,,,,,,,,,,,,,0.02268692753486439,2.4176249886608687,,,,,,,,,,,,,,,,,,
0,240708_174151,FalseCHOICE,9.0,1,2.0,1750.0,,,,,,,,,,,1.0,1.0,,,A,,,,,,False,cue1.png,Easy,cue2.png,Hard,Left,Easy,Mid,0.0163412997499108,,,,,,,,,,,,,37,22,Male,2.2857142857142856,1.25,1.2,1.25,1.0555555555555556,2.0,2.2222222222222223,1.6666666666666667,1.75,2.3333333333333335,1.75,2.0,2.0,1.0,1.0,1.0,0.4316966000478714,-0.017208078037477887,,,,,,,,,,,,,,,,,,,,,0.014732626105143094,-0.1670976746354015,9.877825777918133e+44,5.504276773989254,,,,,,,,
1,240708_174208,FalseCHOICE,9.0,2,2.0,1750.0,,,,,,,,,,,2.0,2.0,,,A,,,,,,False,cue2.png,Hard,cue1.png,Easy,Left,Hard,Mid,0.0134319001808762,,,,,,,,,,,,,37,22,Male,2.2857142857142856,1.25,1.2,1.25,1.0555555555555556,2.0,2.2222222222222223,1.6666666666666667,1.75,2.3333333333333335,1.75,2.0,2.0,1.0,0.75,0.8333333333333334,0.4471647750469856,0.2658073602218489,,,,,,,,,,,,,,,,,,,0.006557022153137301,-0.6536340164125989,,,1.7768246102405355e+44,0.8313902214566334,,,,,,,,
2,240708_174226,FalseCHOICE,9.0,3,2.0,1750.0,,,,,,,,,,,3.0,3.0,,,A,,,,,,False,cue2.png,Hard,cue1.png,Easy,Right,Easy,Mid,0.0165629000402987,,,,,,,,,,,,,37,22,Male,2.2857142857142856,1.25,1.2,1.25,1.0555555555555556,2.0,2.2222222222222223,1.6666666666666667,1.75,2.3333333333333335,1.75,2.0,2.0,1.0,0.75,0.8333333333333334,0.5072703750920482,1.3655371434423884,,,,,,,,,,,,,,,,,,,,,0.01806133760871615,0.08089078551987039,,,,,,,,,,
3,240708_174248,FalseCHOICE,9.0,4,2.0,1750.0,,,,,,,,,,,5.0,4.0,,,A,,,,,,False,cue2.png,Hard,cue1.png,Easy,Right,Easy,Mid,0.0175334997475147,,,,,,,,,,,,,37,22,Male,2.2857142857142856,1.25,1.2,1.25,1.0555555555555556,2.0,2.2222222222222223,1.6666666666666667,1.75,2.3333333333333335,1.75,2.0,2.0,1.0,0.75,0.8333333333333334,0.4607495500822551,0.5143629306418458,,,,,,,,,,,,,,,,,,,0.0066070541466470255,-0.647522672706916,0.014108686196300551,-0.21358109533953737,-1.1540313225568016e+44,-0.8592103589288378,,,,,,,,
4,240708_174306,FalseCHOICE,9.0,5,2.0,1750.0,,,,,,,,,,,6.0,5.0,,,A,,,,,,False,cue1.png,Easy,cue2.png,Hard,Right,Hard,Mid,0.0164228999055922,,,,,,,,,,,,,37,22,Male,2.2857142857142856,1.25,1.2,1.25,1.0555555555555556,2.0,2.2222222222222223,1.6666666666666667,1.75,2.3333333333333335,1.75,2.0,2.0,1.0,1.0,1.0,0.5171881500864401,1.5469989795514298,,,,,,,,,,,,,,,,,,,0.0052919766840289085,-0.8081576946173361,0.020581041670114642,0.268608324141788,,,,,,,,,,
5,240708_174323,FalseCHOICE,9.0,6,2.0,1750.0,,,,,,,,,,,7.0,6.0,,,A,,,,,,False,cue2.png,Hard,cue1.png,Easy,Right,Easy,Mid,0.0165760996751487,,,,,,,,,,,,,37,22,Male,2.2857142857142856,1.25,1.2,1.25,1.0555555555555556,2.0,2.2222222222222223,1.6666666666666667,1.75,2.3333333333333335,1.75,2.0,2.0,1.0,1.0,1.0,0.4180850749835372,-0.26625308377868323,,,,,,,,,,,,,,,,,,,0.006071476605249473,-0.712942781059961,0.02669086792910091,0.7237893766769394,-1.579307470643692e+43,-0.28463137938735034,,,,,,,,
6,240708_174341,FalseCHOICE,9.0,7,2.0,1750.0,,,,,,,,,,,8.0,7.0,,,A,,,,,,False,cue2.png,Hard,cue1.png,Easy,Right,Easy,Mid,0.0171822998672723,,,,,,,,,,,,,37,22,Male,2.2857142857142856,1.25,1.2,1.25,1.0555555555555556,2.0,2.2222222222222223,1.6666666666666667,1.75,2.3333333333333335,1.75,2.0,2.0,1.0,0.75,0.8333333333333334,0.467089899990242,0.6303699520279595,,,,,,,,,,,,,,,,,,,,,,,,,,,,,,,,
7,240708_174358,FalseCHOICE,9.0,8,2.0,1750.0,,,,,,,,,,,9.0,8.0,,,A,,,,,,False,cue1.png,Easy,cue2.png,Hard,Right,Hard,Mid,0.0157325002364814,,,,,,,,,,,,,37,22,Male,2.2857142857142856,1.25,1.2,1.25,1.0555555555555556,2.0,2.2222222222222223,1.6666666666666667,1.75,2.3333333333333335,1.75,2.0,2.0,1.0,1.0,1.0,0.489347037510015,1.0376005096029421,,,,,,,,,,,,,,,,,,,0.008879960670416872,-0.36989006198660773,,,,,,,,,,,,
8,240708_174415,FalseCHOICE,9.0,9,2.0,1750.0,,,,,,,,,,,10.0,9.0,,,A,,,,,,False,cue1.png,Easy,cue2.png,Hard,Left,Easy,Mid,0.0171618000604212,,,,,,,,,,,,,37,22,Male,2.2857142857142856,1.25,1.2,1.25,1.0555555555555556,2.0,2.2222222222222223,1.6666666666666667,1.75,2.3333333333333335,1.75,2.0,2.0,1.0,1.0,1.0,0.5054203000618145,1.331687009504531,,,,,,,,,,,,,,,,,,,,,,,,,,,,,,,,
9,240708_174432,FalseCHOICE,9.0,10,2.0,1750.0,,,,,,,,,,,11.0,10.0,,,A,,,,,,False,cue2.png,Hard,cue1.png,Easy,Right,Easy,Mid,0.0170208998024463,,,,,,,,,,,,,37,22,Male,2.2857142857142856,1.25,1.2,1.25,1.0555555555555556,2.0,2.2222222222222223,1.6666666666666667,1.75,2.3333333333333335,1.75,2.0,2.0,1.0,0.75,0.8333333333333334,0.4794742499361746,0.8569617915763039,,,,,,,,,,,,,,,,,,,0.009450871292823923,-0.30015406319861915,,,,,,,,,,,,
10,240708_174449,FalseCHOICE,9.0,11,2.0,1750.0,,,,,,,,,,,12.0,11.0,,,A,,,,,,False,cue1.png,Easy,cue2.png,Hard,Right,Hard,Mid,0.0165764996781945,,,,,,,,,,,,,37,22,Male,2.2857142857142856,1.25,1.2,1.25,1.0555555555555556,2.0,2.2222222222222223,1.6666666666666667,1.75,2.3333333333333335,1.75,2.0,2.0,1.0,1.0,1.0,0.3650619375985116,-1.2363976849205047,,,,,,,,,,,,,,,,,,,0.015963657697841784,0.49537442588760106,0.016834725729395393,-0.010491597974284773,1.687672814695785e+43,-0.09618271820627117,,,,,,,,
11,240708_174505,FalseCHOICE,9.0,12,2.0,1750.0,,,,,,,,,,,13.0,12.0,,,A,,,,,,False,cue2.png,Hard,cue1.png,Easy,Right,Easy,Mid,0.0160766998305916,,,,,,,,,,,,,37,22,Male,2.2857142857142856,1.25,1.2,1.25,1.0555555555555556,2.0,2.2222222222222223,1.6666666666666667,1.75,2.3333333333333335,1.75,2.0,2.0,1.0,1.0,1.0,0.3740390250459313,-1.0721472585858345,,,,,,,,,,,,,,,,,,,0.009325021964223235,-0.3155263969445998,0.01652462082881328,-0.033594362121737845,,,,,,,,,,
12,240708_174522,FalseCHOICE,9.0,13,2.0,1750.0,,,,,,,,,,,14.0,13.0,,,A,,,,,,False,cue1.png,Easy,cue2.png,Hard,Left,Easy,Mid,0.0161223001778125,,,,,,,,,,,,,37,22,Male,2.2857142857142856,1.25,1.2,1.25,1.0555555555555556,2.0,2.2222222222222223,1.6666666666666667,1.75,2.3333333333333335,1.75,2.0,2.0,1.0,1.0,1.0,0.3980701500549912,-0.6324587124778909,,,,,,,,,,,,,,,,,,,0.009682220912294435,-0.2718950045127319,0.015242759336369425,-0.129092832716822,,,,,,,,,,
13,240708_174538,FalseCHOICE,9.0,14,2.0,1750.0,,,,,,,,,,,15.0,14.0,,,A,,,,,,False,cue2.png,Hard,cue1.png,Easy,Right,Easy,Mid,0.0158688998781144,,,,,,,,,,,,,37,22,Male,2.2857142857142856,1.25,1.2,1.25,1.0555555555555556,2.0,2.2222222222222223,1.6666666666666667,1.75,2.3333333333333335,1.75,2.0,2.0,1.0,1.0,1.0,0.391280812502373,-0.7566806936136601,,,,,,,,,,,,,,,,,,,0.008985024884995262,-0.35705660320525107,0.016677584781462727,-0.022198572779200135,,,,,,,,,,
14,240708_174555,FalseCHOICE,9.0,15,2.0,1750.0,,,,,,,,,,,16.0,15.0,,,A,,,,,,False,cue1.png,Easy,cue2.png,Hard,Right,Hard,Mid,0.0177393001504242,,,,,,,,,,,,,37,22,Male,2.2857142857142856,1.25,1.2,1.25,1.0555555555555556,2.0,2.2222222222222223,1.6666666666666667,1.75,2.3333333333333335,1.75,2.0,2.0,1.0,0.75,0.8333333333333334,0.4461735499789938,0.24767128424343512,,,,,,,,,,,,,,,,,,,0.00961341944936515,-0.28029901478533725,0.040182417465361296,1.7289076006547284,,,,,,,,,,
15,240708_174612,FalseCHOICE,9.0,16,2.0,1750.0,,,,,,,,,,,17.0,16.0,,,A,,,,,,False,cue1.png,Easy,cue2.png,Hard,Right,Hard,Mid,0.0161815998144447,,,,,,,,,,,,,37,22,Male,2.2857142857142856,1.25,1.2,1.25,1.0555555555555556,2.0,2.2222222222222223,1.6666666666666667,1.75,2.3333333333333335,1.75,2.0,2.0,1.0,0.75,0.8333333333333334,0.4882666249177418,1.0178326027024442,,,,,,,,,,,,,,,,,,,0.007738526843980893,-0.5093147369056108,0.022560008549075028,0.41604103150765165,,,,,,,,,,
16,240708_174627,FalseCHOICE,9.0,17,2.0,1750.0,,,,,,,,,,,18.0,17.0,,,A,,,,,,False,cue2.png,Hard,cue1.png,Easy,Right,Easy,Mid,0.0169946998357772,,,,,,,,,,,,,37,22,Male,2.2857142857142856,1.25,1.2,1.25,1.0555555555555556,2.0,2.2222222222222223,1.6666666666666667,1.75,2.3333333333333335,1.75,2.0,2.0,1.0,1.0,1.0,0.3572999874013476,-1.3784151974533814,,,,,,,,,,,,,,,,,,,,,0.011112861395790305,-0.4367695508052771,,,,,,,,,,
17,240708_174643,FalseCHOICE,9.0,18,2.0,1750.0,,,,,,,,,,,19.0,18.0,,,A,,,,,,False,cue2.png,Hard,cue1.png,Easy,Left,Hard,Mid,0.0154337002895772,,,,,,,,,,,,,37,22,Male,2.2857142857142856,1.25,1.2,1.25,1.0555555555555556,2.0,2.2222222222222223,1.6666666666666667,1.75,2.3333333333333335,1.75,2.0,2.0,1.0,1.0,1.0,0.4524526499444619,0.362557638238192,,,,,,,,,,,,,,,,,,,0.00788823725669583,-0.4910278024015362,0.010787393337196506,-0.46101686770064787,,,,,,,,,,
18,240708_174700,FalseCHOICE,9.0,19,2.0,1750.0,,,,,,,,,,,20.0,19.0,,,A,,,,,,False,cue1.png,Easy,cue2.png,Hard,Right,Hard,Mid,0.0165758002549409,,,,,,,,,,,,,37,22,Male,2.2857142857142856,1.25,1.2,1.25,1.0555555555555556,2.0,2.2222222222222223,1.6666666666666667,1.75,2.3333333333333335,1.75,2.0,2.0,1.0,1.0,1.0,0.4713888624100946,0.7090264666707431,,,,,,,,,,,,,,,,,,,,,0.014011795379647685,-0.2207994452623647,1.4378246645982342e+43,-0.11059466602112009,,,,,,,,
19,240708_174716,FalseCHOICE,9.0,20,2.0,1750.0,,,,,,,,,,,21.0,20.0,,,A,,,,,,False,cue1.png,Easy,cue2.png,Hard,Right,Hard,Mid,0.0166110000573098,,,,,,,,,,,,,37,22,Male,2.2857142857142856,1.25,1.2,1.25,1.0555555555555556,2.0,2.2222222222222223,1.6666666666666667,1.75,2.3333333333333335,1.75,2.0,2.0,1.0,1.0,1.0,0.4378852124209516,0.09602265817314011,,,,,,,,,,,,,,,,,,,0.014411771973760439,0.30581357918737506,0.01403179406864506,-0.2193095462175662,9.984381085591054e+42,-0.13593972506482196,,,,,,,,
20,240708_174739,FalseCHOICE,9.0,21,2.0,1750.0,,,,,,,,,,,23.0,21.0,,,A,,,,,,False,cue1.png,Easy,cue2.png,Hard,Right,Hard,Mid,0.0167340002954006,,,,,,,,,,,,,37,22,Male,2.2857142857142856,1.25,1.2,1.25,1.0555555555555556,2.0,2.2222222222222223,1.6666666666666667,1.75,2.3333333333333335,1.75,2.0,2.0,1.0,1.0,1.0,0.503402250004001,1.2947634990338994,,,,,,,,,,,,,,,,,,,0.008701377671809821,-0.3917037457501189,0.011852746106326043,-0.3816482614231137,2.5151507588101003e+42,-0.17902435772855177,,,,,,,,
21,240708_174756,FalseCHOICE,9.0,22,2.0,1750.0,,,,,,,,,,,24.0,22.0,,,A,,,,,,False,cue2.png,Hard,cue1.png,Easy,Left,Hard,Mid,0.0164348999969661,,,,,,,,,,,,,37,22,Male,2.2857142857142856,1.25,1.2,1.25,1.0555555555555556,2.0,2.2222222222222223,1.6666666666666667,1.75,2.3333333333333335,1.75,2.0,2.0,1.0,1.0,1.0,0.4157746874843724,-0.3085253835595196,,,,,,,,,,,,,,,,,,,0.010202461012967175,-0.20834834483241743,0.014464838477136963,-0.18704780892808215,-4.5700182475974044e+42,-0.2198936160920264,,,,,,,,
22,240708_174812,FalseCHOICE,9.0,23,2.0,1750.0,,,,,,,,,,,25.0,23.0,,,A,,,,,,False,cue1.png,Easy,cue2.png,Hard,Right,Hard,Mid,0.0152501002885401,,,,,,,,,,,,,37,22,Male,2.2857142857142856,1.25,1.2,1.25,1.0555555555555556,2.0,2.2222222222222223,1.6666666666666667,1.75,2.3333333333333335,1.75,2.0,2.0,1.0,1.0,1.0,0.3825124999275431,-0.9171112438435589,,,,,,,,,,,,,,,,,,,0.010374020291585354,-0.1873925994386043,0.01338687090237931,-0.2673562161524741,-1.0010653966749473e+43,-0.25127674141571127,,,,,,,,
23,240708_174829,FalseCHOICE,9.0,24,2.0,1750.0,,,,,,,,,,,26.0,24.0,,,A,,,,,,False,cue2.png,Hard,cue1.png,Easy,Left,Hard,Mid,0.0141003997996449,,,,,,,,,,,,,37,22,Male,2.2857142857142856,1.25,1.2,1.25,1.0555555555555556,2.0,2.2222222222222223,1.6666666666666667,1.75,2.3333333333333335,1.75,2.0,2.0,1.0,0.75,0.8333333333333334,0.5386802250286564,1.940231472022065,,,,,,,,,,,,,,,,,,,0.007531546837259694,-0.5345970787141964,0.015419306589317006,-0.11594009137648109,-1.1994783054703303e+43,-0.2627217590643709,,,,,,,,
24,240708_174846,FalseCHOICE,9.0,25,2.0,1750.0,,,,,,,,,,,27.0,25.0,,,A,,,,,,False,cue2.png,Hard,cue1.png,Easy,Left,Hard,Mid,0.0168699999339878,,,,,,,,,,,,,37,22,Male,2.2857142857142856,1.25,1.2,1.25,1.0555555555555556,2.0,2.2222222222222223,1.6666666666666667,1.75,2.3333333333333335,1.75,2.0,2.0,1.0,1.0,1.0,0.3960004500113427,-0.6703272435070566,,,,,,,,,,,,,,,,,,,,,0.033446081644361435,1.227051688676356,-1.0939083282864897e+43,-0.2566321842510523,,,,,,,,
25,240708_174902,FalseCHOICE,9.0,26,2.0,1750.0,,,,,,,,,,,28.0,26.0,,,A,,,,,,False,cue1.png,Easy,cue2.png,Hard,Right,Hard,Mid,0.0165780996903777,,,,,,,,,,,,,37,22,Male,2.2857142857142856,1.25,1.2,1.25,1.0555555555555556,2.0,2.2222222222222223,1.6666666666666667,1.75,2.3333333333333335,1.75,2.0,2.0,1.0,1.0,1.0,0.4163193249842152,-0.29856035402505293,,,,,,,,,,,,,,,,,,,0.011210400737226421,-0.08522980292658318,0.010130385824399357,-0.5099638194668553,-6.522974900972417e+42,-0.2311588223231365,,,,,,,,
26,240708_174919,FalseCHOICE,9.0,27,2.0,1750.0,,,,,,,,,,,29.0,27.0,,,A,,,,,,False,cue1.png,Easy,cue2.png,Hard,Right,Hard,Mid,0.0174715998582541,,,,,,,,,,,,,37,22,Male,2.2857142857142856,1.25,1.2,1.25,1.0555555555555556,2.0,2.2222222222222223,1.6666666666666667,1.75,2.3333333333333335,1.75,2.0,2.0,1.0,1.0,1.0,0.4839726875652559,0.9392680298461452,,,,,,,,,,,,,,,,,,,,,0.010483510114312629,-0.48365611788171725,7.891464802028445e+43,0.26166954662221514,,,,,,,,
27,240708_174936,FalseCHOICE,9.0,28,2.0,1750.0,,,,,,,,,,,30.0,28.0,,,A,,,,,,False,cue2.png,Hard,cue1.png,Easy,Right,Easy,Mid,0.0165594997815787,,,,,,,,,,,,,37,22,Male,2.2857142857142856,1.25,1.2,1.25,1.0555555555555556,2.0,2.2222222222222223,1.6666666666666667,1.75,2.3333333333333335,1.75,2.0,2.0,1.0,1.0,1.0,0.3758017374784685,-1.0398955655678634,,,,,,,,,,,,,,,,,,,0.011078061330378256,-0.10139489138939121,0.08394333936182881,4.989089092631816,4.674000196763967e+42,-0.16657150369390744,,,,,,,,
28,240708_174952,FalseCHOICE,9.0,29,2.0,1750.0,,,,,,,,,,,31.0,29.0,,,A,,,,,,False,cue1.png,Easy,cue2.png,Hard,Left,Easy,Mid,0.0158158000558614,,,,,,,,,,,,,37,22,Male,2.2857142857142856,1.25,1.2,1.25,1.0555555555555556,2.0,2.2222222222222223,1.6666666666666667,1.75,2.3333333333333335,1.75,2.0,2.0,1.0,0.75,0.8333333333333334,0.4141405500122346,-0.33842458840298406,,,,,,,,,,,,,,,,,,,0.019342654031159815,0.9081144852884897,0.011940517753605436,-0.3751092881204576,,,,,,,,,,
29,240708_175009,FalseCHOICE,9.0,30,2.0,1750.0,,,,,,,,,,,32.0,30.0,,,A,,,,,,False,cue1.png,Easy,cue2.png,Hard,Right,Hard,Mid,0.0165188997052609,,,,,,,,,,,,,37,22,Male,2.2857142857142856,1.25,1.2,1.25,1.0555555555555556,2.0,2.2222222222222223,1.6666666666666667,1.75,2.3333333333333335,1.75,2.0,2.0,1.0,1.0,1.0,0.4153835751349106,-0.3156814205837911,,,,,,,,,,,,,,,,,,,0.008881710552819427,-0.36967631610009904,0.009483368372960165,-0.5581665133031227,,,,,,,,,,
30,240708_175026,FalseCHOICE,9.0,31,2.0,1750.0,,,,,,,,,,,33.0,31.0,,,A,,,,,,False,cue2.png,Hard,cue1.png,Easy,Right,Easy,Mid,0.0181246995925903,,,,,,,,,,,,,37,22,Male,2.2857142857142856,1.25,1.2,1.25,1.0555555555555556,2.0,2.2222222222222223,1.6666666666666667,1.75,2.3333333333333335,1.75,2.0,2.0,1.0,0.1666666666666666,0.6666666666666667,0.4234614124288782,-0.16788423946380135,,,,,,,,,,,,,,,,,,,0.009080332917800128,-0.34541484948880524,0.009021121570902206,-0.5926038241157316,9.708122314906864e+42,-0.13753326377421018,,,,,,,,
31,240708_175042,FalseCHOICE,9.0,32,2.0,1750.0,,,,,,,,,,,34.0,32.0,,,A,,,,,,False,cue1.png,Easy,cue2.png,Hard,Right,Hard,Mid,0.0165472999215126,,,,,,,,,,,,,37,22,Male,2.2857142857142856,1.25,1.2,1.25,1.0555555555555556,2.0,2.2222222222222223,1.6666666666666667,1.75,2.3333333333333335,1.75,2.0,2.0,1.0,0.75,0.8333333333333334,0.3827235875069164,-0.9132490530039253,,,,,,,,,,,,,,,,,,,0.05045729542063733,4.708727942219869,0.01289340458030364,-0.3041193760774704,6.508678084895915e+42,-0.1559885628274287,,,,,,,,
32,240708_175058,FalseCHOICE,9.0,33,2.0,1750.0,,,,,,,,,,,35.0,33.0,,,A,,,,,,False,cue2.png,Hard,cue1.png,Easy,Right,Easy,Mid,0.0163425998762249,,,,,,,,,,,,,37,22,Male,2.2857142857142856,1.25,1.2,1.25,1.0555555555555556,2.0,2.2222222222222223,1.6666666666666667,1.75,2.3333333333333335,1.75,2.0,2.0,1.0,1.0,1.0,0.3900477500283159,-0.7792415785607463,,,,,,,,,,,,,,,,,,,0.01018999335825272,-0.2098712528322556,0.010520177784229102,-0.4809243824969272,,,,,,,,,,
33,240708_175115,FalseCHOICE,9.0,34,2.0,1750.0,,,,,,,,,,,36.0,34.0,,,A,,,,,,False,cue2.png,Hard,cue1.png,Easy,Right,Easy,Mid,0.0160024999640882,,,,,,,,,,,,,37,22,Male,2.2857142857142856,1.25,1.2,1.25,1.0555555555555556,2.0,2.2222222222222223,1.6666666666666667,1.75,2.3333333333333335,1.75,2.0,2.0,1.0,1.0,1.0,0.4491247875848785,0.3016689798012307,,,,,,,,,,,,,,,,,,,0.009255829131369278,-0.3239782125505121,,,-2.620224687515058e+42,-0.2086466554774836,,,,,,,,
34,240708_175131,FalseCHOICE,9.0,35,2.0,1750.0,,,,,,,,,,,37.0,35.0,,,A,,,,,,False,cue2.png,Hard,cue1.png,Easy,Right,Easy,Mid,0.0155453998595476,,,,,,,,,,,,,37,22,Male,2.2857142857142856,1.25,1.2,1.25,1.0555555555555556,2.0,2.2222222222222223,1.6666666666666667,1.75,2.3333333333333335,1.75,2.0,2.0,1.0,1.0,1.0,0.4713702248991467,0.7086854630727569,,,,,,,,,,,,,,,,,,,,,,,-6.91612772662302e+42,-0.23342663899671387,,,,,,,,
35,240708_175148,FalseCHOICE,9.0,36,2.0,1750.0,,,,,,,,,,,38.0,36.0,,,A,,,,,,False,cue1.png,Easy,cue2.png,Hard,Right,Hard,Mid,0.0167216998524963,,,,,,,,,,,,,37,22,Male,2.2857142857142856,1.25,1.2,1.25,1.0555555555555556,2.0,2.2222222222222223,1.6666666666666667,1.75,2.3333333333333335,1.75,2.0,2.0,1.0,0.75,0.8333333333333334,0.4716550874873064,0.7138974877774371,,,,,,,,,,,,,,,,,,,0.009724644757749597,-0.2667129863138593,0.009597123314446067,-0.549691788850775,-9.289716806047718e+42,-0.24711817200714756,,,,,,,,
36,240708_175205,FalseCHOICE,9.0,37,2.0,1750.0,,,,,,,,,,,39.0,37.0,,,A,,,,,,False,cue2.png,Hard,cue1.png,Easy,Right,Easy,Mid,0.0161756002344191,,,,,,,,,,,,,37,22,Male,2.2857142857142856,1.25,1.2,1.25,1.0555555555555556,2.0,2.2222222222222223,1.6666666666666667,1.75,2.3333333333333335,1.75,2.0,2.0,1.0,1.0,1.0,0.4977003999520093,1.1904388717623697,,,,,,,,,,,,,,,,,,,0.011365016610013053,-0.06634367277928889,0.010255076393985423,-0.5006743925176166,-8.606662191744506e+42,-0.24317811983858592,,,,,,,,
37,240708_175221,FalseCHOICE,9.0,38,2.0,1750.0,,,,,,,,,,,40.0,38.0,,,A,,,,,,False,cue1.png,Easy,cue2.png,Hard,Left,Easy,Mid,0.0159788001328706,,,,,,,,,,,,,37,22,Male,2.2857142857142856,1.25,1.2,1.25,1.0555555555555556,2.0,2.2222222222222223,1.6666666666666667,1.75,2.3333333333333335,1.75,2.0,2.0,1.0,1.0,1.0,0.4333006001543253,0.012139714647958691,,,,,,,,,,,,,,,,,,,0.011698477206261687,-0.025611889513822074,0.008472542352821568,-0.633472885738817,-5.699745627673214e+42,-0.2264102030830854,,,,,,,,
38,240708_175238,FalseCHOICE,9.0,39,2.0,1750.0,,,,,,,,,,,41.0,39.0,,,A,,,,,,False,cue1.png,Easy,cue2.png,Hard,Right,Hard,Mid,0.0165350004099309,,,,,,,,,,,,,37,22,Male,2.2857142857142856,1.25,1.2,1.25,1.0555555555555556,2.0,2.2222222222222223,1.6666666666666667,1.75,2.3333333333333335,1.75,2.0,2.0,1.0,1.0,1.0,0.4388152375468053,0.11303898159854411,,,,,,,,,,,,,,,,,,,0.00987689279440211,-0.24811608430718507,0.01150098634959419,-0.4078543055104098,-7.353378266347155e+41,-0.19777409505816668,,,,,,,,
39,240708_175255,FalseCHOICE,9.0,40,2.0,1750.0,,,,,,,,,,,42.0,40.0,,,A,,,,,,False,cue2.png,Hard,cue1.png,Easy,Right,Easy,Mid,0.0176472999155521,,,,,,,,,,,,,37,22,Male,2.2857142857142856,1.25,1.2,1.25,1.0555555555555556,2.0,2.2222222222222223,1.6666666666666667,1.75,2.3333333333333335,1.75,2.0,2.0,1.0,0.75,0.8333333333333334,0.4924150875885971,1.0937354794776166,,,,,,,,,,,,,,,,,,,0.011341748107256886,-0.0691858904860833,0.013625659377745989,-0.249566513967276,4.709424620846107e+42,-0.1663671655985309,,,,,,,,
40,240708_175312,FalseCHOICE,9.0,41,2.0,1750.0,,,,,,,,,,,43.0,41.0,,,A,,,,,,False,cue2.png,Hard,cue1.png,Easy,Right,Easy,Mid,0.0152577003464102,,,,,,,,,,,,,37,22,Male,2.2857142857142856,1.25,1.2,1.25,1.0555555555555556,2.0,2.2222222222222223,1.6666666666666667,1.75,2.3333333333333335,1.75,2.0,2.0,1.0,1.0,1.0,0.4538502123905346,0.38812831792035823,,,,,,,,,,,,,,,,,,,0.014546245061229389,0.3222392939957881,,,8.33597677115477e+42,-0.1454481872840347,,,,,,,,
41,240708_175330,FalseCHOICE,9.0,42,2.0,1750.0,,,,,,,,,,,44.0,42.0,,,A,,,,,,False,cue1.png,Easy,cue2.png,Hard,Right,Hard,Mid,0.0162029000930488,,,,,,,,,,,,,37,22,Male,2.2857142857142856,1.25,1.2,1.25,1.0555555555555556,2.0,2.2222222222222223,1.6666666666666667,1.75,2.3333333333333335,1.75,2.0,2.0,1.0,1.0,1.0,0.4729804874514229,0.7381478373975321,,,,,,,,,,,,,,,,,,,0.010987414457243556,-0.11246729044268708,0.009213903143387556,-0.5782416286368993,9.275699461934447e+42,-0.14002760107010503,,,,,,,,
42,240708_175347,FalseCHOICE,9.0,43,2.0,1750.0,,,,,,,,,,,45.0,43.0,,,A,,,,,,False,cue2.png,Hard,cue1.png,Easy,Right,Easy,Mid,0.0166225000284612,,,,,,,,,,,,,37,22,Male,2.2857142857142856,1.25,1.2,1.25,1.0555555555555556,2.0,2.2222222222222223,1.6666666666666667,1.75,2.3333333333333335,1.75,2.0,2.0,1.0,1.0,1.0,0.4594933874905109,0.4913793914429539,,,,,,,,,,,,,,,,,,,0.010387624078226097,-0.18573091438413616,0.01053494050472352,-0.47982456224540243,6.413735215944904e+42,-0.1565362201433543,,,,,,,,
43,240708_175402,FalseCHOICE,9.0,44,2.0,1750.0,,,,,,,,,,,46.0,44.0,,,A,,,,,,False,cue1.png,Easy,cue2.png,Hard,Left,Easy,Mid,0.0160448998212814,,,,,,,,,,,,,37,22,Male,2.2857142857142856,1.25,1.2,1.25,1.0555555555555556,2.0,2.2222222222222223,1.6666666666666667,1.75,2.3333333333333335,1.75,2.0,2.0,1.0,1.0,1.0,0.2831121875206008,-2.735801747446977,,,,,,,,,,,,,,,,,,,0.009995904590089498,-0.23357894641891033,,,8.97123117619353e+41,-0.18835759870660965,,,,,,,,
44,240708_175418,FalseCHOICE,9.0,45,2.0,1750.0,,,,,,,,,,,47.0,45.0,,,A,,,,,,False,cue2.png,Hard,cue1.png,Easy,Right,Easy,Mid,0.0162674998864531,,,,,,,,,,,,,37,22,Male,2.2857142857142856,1.25,1.2,1.25,1.0555555555555556,2.0,2.2222222222222223,1.6666666666666667,1.75,2.3333333333333335,1.75,2.0,2.0,1.0,1.0,1.0,0.4150471249013208,-0.32183732522783115,,,,,,,,,,,,,,,,,,,0.017142341748472633,0.6393491678177127,0.04238264323378724,1.892824058936023,-6.172059547335893e+42,-0.2291346433319916,,,,,,,,
45,240708_175434,FalseCHOICE,9.0,46,2.0,1750.0,,,,,,,,,,,48.0,46.0,,,A,,,,,,False,cue2.png,Hard,cue1.png,Easy,Left,Hard,Mid,0.0160302002914249,,,,,,,,,,,,,37,22,Male,2.2857142857142856,1.25,1.2,1.25,1.0555555555555556,2.0,2.2222222222222223,1.6666666666666667,1.75,2.3333333333333335,1.75,2.0,2.0,1.0,0.75,0.8333333333333334,0.3625827374053187,-1.2817586877052074,,,,,,,,,,,,,,,,,,,0.00997364816941737,-0.2362975395998756,,,-1.0026859349667237e+43,-0.25137021864691717,,,,,,,,
46,240708_175449,FalseCHOICE,9.0,47,2.0,1750.0,,,,,,,,,,,49.0,47.0,,,A,,,,,,False,cue1.png,Easy,cue2.png,Hard,Left,Easy,Mid,0.0158325000666081,,,,,,,,,,,,,37,22,Male,2.2857142857142856,1.25,1.2,1.25,1.0555555555555556,2.0,2.2222222222222223,1.6666666666666667,1.75,2.3333333333333335,1.75,2.0,2.0,1.0,1.0,1.0,0.353872912528459,-1.4411191103037109,,,,,,,,,,,,,,,,,,,0.009273557683143524,-0.3218126927361687,,,-6.596653635422814e+42,-0.23158382209821934,,,,,,,,
47,240708_175506,FalseCHOICE,9.0,48,2.0,1750.0,,,,,,,,,,,50.0,48.0,,,A,,,,,,False,cue1.png,Easy,cue2.png,Hard,Left,Easy,Mid,0.0168224000371992,,,,,,,,,,,,,37,22,Male,2.2857142857142856,1.25,1.2,1.25,1.0555555555555556,2.0,2.2222222222222223,1.6666666666666667,1.75,2.3333333333333335,1.75,2.0,2.0,1.0,1.0,1.0,0.343635787430685,-1.6284239763417516,,,,,,,,,,,,,,,,,,,,,0.009004551025482949,-0.5938383270271566,3.85258523370184e+42,-0.17130965747946292,,,,,,,,
48,240708_175521,FalseCHOICE,9.0,49,2.0,1750.0,,,,,,,,,,,51.0,49.0,,,A,,,,,,False,cue2.png,Hard,cue1.png,Easy,Right,Easy,Mid,0.0177629999816417,,,,,,,,,,,,,37,22,Male,2.2857142857142856,1.25,1.2,1.25,1.0555555555555556,2.0,2.2222222222222223,1.6666666666666667,1.75,2.3333333333333335,1.75,2.0,2.0,1.0,0.75,0.8333333333333334,0.3182480874820612,-2.0929332689872986,,,,,,,,,,,,,,,,,,,0.03957870202409457,3.3799217400899733,0.009140315073295964,-0.5837239277692283,,,,,,,,,,
49,240708_175539,FalseCHOICE,9.0,50,2.0,1750.0,,,,,,,,,,,52.0,50.0,,,A,,,,,,False,cue1.png,Easy,cue2.png,Hard,Left,Easy,Mid,0.0154324998147785,,,,,,,,,,,,,37,22,Male,2.2857142857142856,1.25,1.2,1.25,1.0555555555555556,2.0,2.2222222222222223,1.6666666666666667,1.75,2.3333333333333335,1.75,2.0,2.0,1.0,0.75,0.8333333333333334,0.471025362436194,0.7023756430004247,,,,,,,,,,,,,,,,,,,0.00766206228309689,-0.5186547847447085,0.009192631244809228,-0.5798263815863083,-3.424836591874664e+42,-0.2132878844688967,,,,,,,,
0,240708_171950,OFFLINERATING,9.0,1,1.0,,,,,,,,,,,,,,,,,T0,cue1.png,Easy,12.0,1.296283499803394,,,,,,,,,,,,,,,,,,,,,,37,22,Male,2.2857142857142856,1.25,1.2,1.25,1.0555555555555556,2.0,2.2222222222222223,1.6666666666666667,1.75,2.3333333333333335,1.75,2.0,2.0,1.0,,,,,,,,,,,,,,,,,,,,,,,,,,,,,-0.3342843271288697,,,0.009517155440440267,-1.285453578025479,340856898.1069306,-0.6144073349144576,
1,240708_171958,OFFLINERATING,9.0,2,3.0,,,,,,,,,,,,,,,,,T0,cue2.png,Hard,9.0,0.952861700206995,,,,,,,,,,,,,,,,,,,,,,37,22,Male,2.2857142857142856,1.25,1.2,1.25,1.0555555555555556,2.0,2.2222222222222223,1.6666666666666667,1.75,2.3333333333333335,1.75,2.0,2.0,1.0,,,,,,,,,,,,,,,,,,,,,,,,,,,,,-0.47026439240163026,,,0.011876905106254975,-0.6212396174628229,,,
2,240708_173635,OFFLINERATING,9.0,3,1.0,,,,,,,,,,,,,,,,,T1,cue1.png,Easy,8.0,0.4680750998668372,,,,,,,,,,,,,,,,,,,,,,37,22,Male,2.2857142857142856,1.25,1.2,1.25,1.0555555555555556,2.0,2.2222222222222223,1.6666666666666667,1.75,2.3333333333333335,1.75,2.0,2.0,1.0,,,,,,,,,,,,,,,,,,,,,,,,,,,,,-0.5155910808258838,,,0.016517870207321678,0.6850827671822917,,,
3,240708_173641,OFFLINERATING,9.0,4,3.0,,,,,,,,,,,,,,,,,T1,cue2.png,Hard,13.0,0.3846930996514857,,,,,,,,,,,,,,,,,,,,,,37,22,Male,2.2857142857142856,1.25,1.2,1.25,1.0555555555555556,2.0,2.2222222222222223,1.6666666666666667,1.75,2.3333333333333335,1.75,2.0,2.0,1.0,,,,,,,,,,,,,,,,,,,,,,,,,,,,,-0.28895763870461616,,,,,9789.042665815721,-0.7959181391001814,
4,240708_174025,OFFLINERATING,9.0,5,1.0,,,,,,,,,,,,,,,,,T2,cue1.png,Easy,77.0,0.6514193001203239,,,,,,,,,,,,,,,,,,,,,,37,22,Male,2.2857142857142856,1.25,1.2,1.25,1.0555555555555556,2.0,2.2222222222222223,1.6666666666666667,1.75,2.3333333333333335,1.75,2.0,2.0,1.0,,,,,,,,,,,,,,,,,,,,,,,,,,,,,2.611950420447609,0.0088034110588992,1.2361505156365356,,,4142968445.389311,1.4103254740146394,
5,240708_174032,OFFLINERATING,9.0,6,3.0,,,,,,,,,,,,,,,,,T2,cue2.png,Hard,19.0,0.4848267002962529,,,,,,,,,,,,,,,,,,,,,,37,22,Male,2.2857142857142856,1.25,1.2,1.25,1.0555555555555556,2.0,2.2222222222222223,1.6666666666666667,1.75,2.3333333333333335,1.75,2.0,2.0,1.0,,,,,,,,,,,,,,,,,,,,,,,,,,,,,-0.01699750815909507,0.006551087490407954,-1.2130113275086554,0.01842398938609436,1.2216104283060096,,,
6,240708_175555,OFFLINERATING,9.0,7,1.0,,,,,,,,,,,,,,,,,T3,cue1.png,Easy,7.0,0.7451836001127958,,,,,,,,,,,,,,,,,,,,,,37,22,Male,2.2857142857142856,1.25,1.2,1.25,1.0555555555555556,2.0,2.2222222222222223,1.6666666666666667,1.75,2.3333333333333335,1.75,2.0,2.0,1.0,,,,,,,,,,,,,,,,,,,,,,,,,,,,,-0.5609177692501373,0.007645330025060876,-0.023139188127883004,,,,,
7,240708_175602,OFFLINERATING,9.0,8,3.0,,,,,,,,,,,,,,,,,T3,cue2.png,Hard,10.0,0.6347362999804318,,,,,,,,,,,,,,,,,,,,,,37,22,Male,2.2857142857142856,1.25,1.2,1.25,1.0555555555555556,2.0,2.2222222222222223,1.6666666666666667,1.75,2.3333333333333335,1.75,2.0,2.0,1.0,,,,,,,,,,,,,,,,,,,,,,,,,,,,,-0.42493770397737674,,,,,,,
0,240708_174051,LEARNINGCHECK,9.0,1,,,,,,,,,,,,1.0,1.0,1.0,,,A,,,,,,,,,,,,,,,cue1.png,Easy,Left,Left,Easy,0.0139997000806033,1.0,,,,,,37,22,Male,2.2857142857142856,1.25,1.2,1.25,1.0555555555555556,2.0,2.2222222222222223,1.6666666666666667,1.75,2.3333333333333335,1.75,2.0,2.0,1.0,,,,,,,,,,,,,,,,,,,,,,,,,,,,,,,,,,,,
1,240708_174057,LEARNINGCHECK,9.0,2,,,,,,,,,,,,2.0,2.0,2.0,,,A,,,,,,,,,,,,,,,cue2.png,Hard,Right,Middle,unsure,0.0139880999922752,0.0,,,,,,37,22,Male,2.2857142857142856,1.25,1.2,1.25,1.0555555555555556,2.0,2.2222222222222223,1.6666666666666667,1.75,2.3333333333333335,1.75,2.0,2.0,1.0,,,,,,,,,,,,,,,,,,,,,,,,,,,,,,,,,,,,
2,240708_175614,LEARNINGCHECK,9.0,1,,,,,,,,,,,,1.0,1.0,1.0,,,A,,,,,,,,,,,,,,,cue1.png,Easy,Middle,Middle,Mid,0.0159553000703454,1.0,,,,,,37,22,Male,2.2857142857142856,1.25,1.2,1.25,1.0555555555555556,2.0,2.2222222222222223,1.6666666666666667,1.75,2.3333333333333335,1.75,2.0,2.0,1.0,,,,,,,,,,,,,,,,,,,,,,,,,,,,,,,,,,,,
3,240708_175618,LEARNINGCHECK,9.0,2,,,,,,,,,,,,2.0,2.0,2.0,,,A,,,,,,,,,,,,,,,cue2.png,Hard,Middle,Middle,Mid,0.015688500367105,1.0,,,,,,37,22,Male,2.2857142857142856,1.25,1.2,1.25,1.0555555555555556,2.0,2.2222222222222223,1.6666666666666667,1.75,2.3333333333333335,1.75,2.0,2.0,1.0,,,,,,,,,,,,,,,,,,,,,,,,,,,,,,,,,,,,
0,240708_175631,DEMANDRATING,9.0,-1,,,,,,,,,,,,,,,,,,,,,,,,,,,,,,,,,,,,,,,1.0,MentalDemand,1.0,6.0,4.775492299813777,37,22,Male,2.2857142857142856,1.25,1.2,1.25,1.0555555555555556,2.0,2.2222222222222223,1.6666666666666667,1.75,2.3333333333333335,1.75,2.0,2.0,1.0,,,,,,,,,,,,,,,,,,,,,,,,,,,,,,,,,,,,-1.3575912664398453
1,240708_175635,DEMANDRATING,9.0,-1,,,,,,,,,,,,,,,,,,,,,,,,,,,,,,,,,,,,,,,2.0,Effort,1.0,5.0,2.629273799713701,37,22,Male,2.2857142857142856,1.25,1.2,1.25,1.0555555555555556,2.0,2.2222222222222223,1.6666666666666667,1.75,2.3333333333333335,1.75,2.0,2.0,1.0,,,,,,,,,,,,,,,,,,,,,,,,,,,,,,,,,,,,-1.383810840255207
2,240708_175638,DEMANDRATING,9.0,-1,,,,,,,,,,,,,,,,,,,,,,,,,,,,,,,,,,,,,,,3.0,Frustration,1.0,7.0,1.5213275998830795,37,22,Male,2.2857142857142856,1.25,1.2,1.25,1.0555555555555556,2.0,2.2222222222222223,1.6666666666666667,1.75,2.3333333333333335,1.75,2.0,2.0,1.0,,,,,,,,,,,,,,,,,,,,,,,,,,,,,,,,,,,,-1.3313716926244834
3,240708_175642,DEMANDRATING,9.0,-1,,,,,,,,,,,,,,,,,,,,,,,,,,,,,,,,,,,,,,,4.0,MentalDemand,2.0,62.0,2.576820600312203,37,22,Male,2.2857142857142856,1.25,1.2,1.25,1.0555555555555556,2.0,2.2222222222222223,1.6666666666666667,1.75,2.3333333333333335,1.75,2.0,2.0,1.0,,,,,,,,,,,,,,,,,,,,,,,,,,,,,,,,,,,,0.11070486722041654
4,240708_175645,DEMANDRATING,9.0,-1,,,,,,,,,,,,,,,,,,,,,,,,,,,,,,,,,,,,,,,5.0,Effort,2.0,70.0,1.31748120021075,37,22,Male,2.2857142857142856,1.25,1.2,1.25,1.0555555555555556,2.0,2.2222222222222223,1.6666666666666667,1.75,2.3333333333333335,1.75,2.0,2.0,1.0,,,,,,,,,,,,,,,,,,,,,,,,,,,,,,,,,,,,0.3204614577433111
5,240708_175648,DEMANDRATING,9.0,-1,,,,,,,,,,,,,,,,,,,,,,,,,,,,,,,,,,,,,,,6.0,Frustration,2.0,99.0,1.5796195999719205,37,22,Male,2.2857142857142856,1.25,1.2,1.25,1.0555555555555556,2.0,2.2222222222222223,1.6666666666666667,1.75,2.3333333333333335,1.75,2.0,2.0,1.0,,,,,,,,,,,,,,,,,,,,,,,,,,,,,,,,,,,,1.0808290983888038
6,240708_175652,DEMANDRATING,9.0,-1,,,,,,,,,,,,,,,,,,,,,,,,,,,,,,,,,,,,,,,7.0,MentalDemand,3.0,91.0,2.630663299933076,37,22,Male,2.2857142857142856,1.25,1.2,1.25,1.0555555555555556,2.0,2.2222222222222223,1.6666666666666667,1.75,2.3333333333333335,1.75,2.0,2.0,1.0,,,,,,,,,,,,,,,,,,,,,,,,,,,,,,,,,,,,0.8710725078659093
7,240708_175654,DEMANDRATING,9.0,-1,,,,,,,,,,,,,,,,,,,,,,,,,,,,,,,,,,,,,,,8.0,Effort,3.0,90.0,0.6572857000865042,37,22,Male,2.2857142857142856,1.25,1.2,1.25,1.0555555555555556,2.0,2.2222222222222223,1.6666666666666667,1.75,2.3333333333333335,1.75,2.0,2.0,1.0,,,,,,,,,,,,,,,,,,,,,,,,,,,,,,,,,,,,0.8448529340505474
8,240708_175656,DEMANDRATING,9.0,-1,,,,,,,,,,,,,,,,,,,,,,,,,,,,,,,,,,,,,,,9.0,Frustration,3.0,90.0,0.609172800090164,37,22,Male,2.2857142857142856,1.25,1.2,1.25,1.0555555555555556,2.0,2.2222222222222223,1.6666666666666667,1.75,2.3333333333333335,1.75,2.0,2.0,1.0,,,,,,,,,,,,,,,,,,,,,,,,,,,,,,,,,,,,0.8448529340505474
