,END,Phase,Block,TrialN,NbackLevel,ISI,Letter_Resp,Letter_RT,Letter_Accuracy,Trial_A_measure,Trial_ACC,Trial_RT,TrialCountCali,CaliEnd_A_measure,ISI_calibrated,TrialIndex,TrialNumber_total,TrialNumber_valid,CueLearning,TrialDemandLearning,CueMapping,OfflineRatingTimePoint,CueFigure,TrialDemand,OfflineRating,OfflineRatingRT,PhaseType,CueLeft,CueDemandLeft,CueRight,CueDemandRight,Choice,ChoiceDemand,TaskDemand,ChoiceRT,CueCheck,CueDemandCheck,CorrectAnswer,Answer,AnswerDemand,AnswerRT,AnswerACC,DemandRatingQuesIndex,QuesTLX,DemandLevel,DemandRating,DemandRatingRT,PID,Age,Gender,BAI_bis,BAI_bas_d,BAI_bas_rr,BAI_bas_fs,NFC,BFI_ext,BFI_agr,BFI_con,BFI_neu,BFI_open,UPPS_lps,UPPS_lpm,UPPS_pu,UPPS_ss,Task_A_measure,Task_ACC,Task_RT,Task_RT_z,cue_i_on_zyg_values,cue_i_on_zyg_zvalues,cue_e_on_zyg_values,cue_e_on_zyg_zvalues,cue_i_on_cor_values,cue_i_on_cor_zvalues,cue_e_on_cor_values,cue_e_on_cor_zvalues,cue_i_on_scr_values,cue_i_on_scr_zvalues,cue_e_on_scr_values,cue_e_on_scr_zvalues,cue_e_true_zyg_values,cue_e_true_zyg_zvalues,cue_e_true_cor_values,cue_e_true_cor_zvalues,cue_e_true_scr_values,cue_e_true_scr_zvalues,cue_e_false_zyg_values,cue_e_false_zyg_zvalues,cue_e_false_cor_values,cue_e_false_cor_zvalues,cue_e_false_scr_values,cue_e_false_scr_zvalues,OfflineRating_z,cue_i_off_zyg_values,cue_i_off_zyg_zvalues,cue_i_off_cor_values,cue_i_off_cor_zvalues,cue_i_off_scr_values,cue_i_off_scr_zvalues,DemandRating_z
0,240709_092027,PRACTICE,0.0,1,3.0,500.0,,,,,,,,,,22.0,1.0,1.0,cue1.png,Hard,B,,,,,,,,,,,,,,,,,,,,,,,,,,,38,21,Male,0.7142857142857143,1.75,1.0,1.5,1.8333333333333333,1.75,2.4444444444444446,2.3333333333333335,1.875,2.111111111111111,1.25,1.25,1.5,1.25,,,,,,,,,,,,,,,,,,,,,,,,,,,,,,,,,,,,
0,240709_092307,LEARNING,1.0,1,1.0,500.0,,,,,,,,,,1.0,1.0,1.0,cue2.png,Easy,B,,,,,,,,,,,,,,,,,,,,,,,,,,,38,21,Male,0.7142857142857143,1.75,1.0,1.5,1.8333333333333333,1.75,2.4444444444444446,2.3333333333333335,1.875,2.111111111111111,1.25,1.25,1.5,1.25,1.0,0.9375,0.4912826866532365,-0.5217035282734349,0.018585019541897063,-0.25329996867393256,0.029616603758599643,0.5272410025955835,0.007512330392007979,-0.9438419558497994,,,,,,,,,,,,,,,,,,,,,,,,,,
1,240709_092337,LEARNING,1.0,2,3.0,500.0,,,,,,,,,,2.0,2.0,2.0,cue1.png,Hard,B,,,,,,,,,,,,,,,,,,,,,,,,,,,38,21,Male,0.7142857142857143,1.75,1.0,1.5,1.8333333333333333,1.75,2.4444444444444446,2.3333333333333335,1.875,2.111111111111111,1.25,1.25,1.5,1.25,0.9,0.8125,0.6115787000252078,1.3256748713003137,0.022769575421400366,0.1467187119363529,0.019346253067258106,-0.5746631888074863,0.02086406501372774,-0.5675122897057994,,,1.0015197993841072e+44,-0.18247576934362286,7.400812298256e+44,-0.1783569732809807,,,,,,,,,,,,,,,,,,,,
2,240709_092404,LEARNING,1.0,3,1.0,500.0,,,,,,,,,,3.0,3.0,3.0,cue2.png,Easy,B,,,,,,,,,,,,,,,,,,,,,,,,,,,38,21,Male,0.7142857142857143,1.75,1.0,1.5,1.8333333333333333,1.75,2.4444444444444446,2.3333333333333335,1.875,2.111111111111111,1.25,1.25,1.5,1.25,1.0,1.0,0.5357276811846532,0.16083548997838112,0.017335318799498886,-0.37276393486934883,0.017221542038518098,-0.8026230762982539,0.01762005478590718,-0.658947396872885,0.010616947236946358,-1.0965553298101427,-9.782296147217677e+44,-0.18323028459599916,-9.057058129681813e+44,-0.18103854573602807,,,,,,,,,,,,,,,,,,,,
3,240709_092433,LEARNING,1.0,4,3.0,500.0,,,,,,,,,,4.0,4.0,4.0,cue1.png,Hard,B,,,,,,,,,,,,,,,,,,,,,,,,,,,38,21,Male,0.7142857142857143,1.75,1.0,1.5,1.8333333333333333,1.75,2.4444444444444446,2.3333333333333335,1.875,2.111111111111111,1.25,1.25,1.5,1.25,0.8409090909090908,0.7840909090909091,0.5693386642461908,0.6769972675455764,,,0.03712737703234659,1.333070598852424,0.0811450700548891,1.1315576172905282,0.02877269420348498,-0.5292846661417072,-1.1232972633372563e+45,-0.18333178461607438,-8.82155758746676e+44,-0.1810001743215782,,,,,,,,,,,,,,,,,,,,
4,240709_092504,LEARNING,1.0,5,3.0,500.0,,,,,,,,,,5.0,5.0,5.0,cue1.png,Hard,B,,,,,,,,,,,,,,,,,,,,,,,,,,,38,21,Male,0.7142857142857143,1.75,1.0,1.5,1.8333333333333333,1.75,2.4444444444444446,2.3333333333333335,1.875,2.111111111111111,1.25,1.25,1.5,1.25,0.8125,0.7291666666666666,0.661482723071598,2.0920478511152245,0.013719956502169346,-0.7183710907421472,0.018752849550853802,-0.638329351879257,0.009841323316355259,-0.8781973670002302,0.011135311138376455,-1.0803592110314466,8.089158153829413e+48,5.477225462552171,3.527361573916264e+48,5.567763763040135,,,,,,,,,,,,,,,,,,,,
5,240709_092532,LEARNING,1.0,6,1.0,500.0,,,,,,,,,,6.0,6.0,6.0,cue2.png,Easy,B,,,,,,,,,,,,,,,,,,,,,,,,,,,38,21,Male,0.7142857142857143,1.75,1.0,1.5,1.8333333333333333,1.75,2.4444444444444446,2.3333333333333335,1.875,2.111111111111111,1.25,1.25,1.5,1.25,0.95,0.9375,0.5551172599817316,0.45860004627997575,0.014370693331421538,-0.6561645160523428,0.016352791197868803,-0.8958312072925965,0.010838696525901633,-0.8500855794607315,0.00876353716645004,-1.1544645506578406,,,,,,,,,,,,,,,,,,,,,,,,
6,240709_092601,LEARNING,1.0,7,3.0,500.0,,,,,,,,,,7.0,7.0,7.0,cue1.png,Hard,B,,,,,,,,,,,,,,,,,,,,,,,,,,,38,21,Male,0.7142857142857143,1.75,1.0,1.5,1.8333333333333333,1.75,2.4444444444444446,2.3333333333333335,1.875,2.111111111111111,1.25,1.25,1.5,1.25,0.0484848484848484,0.4772727272727273,0.4956646749051288,-0.45440960708005057,0.032532579422316785,1.0800038900286775,,,0.03125174202833661,-0.27472703492997164,0.010966172072720602,-1.0856439084996194,2.419695477240197e+44,-0.18237654331966344,5.170477430464029e+43,-0.17947858336407785,,,,,,,,,,,,,,,,,,,,
7,240709_092629,LEARNING,1.0,8,3.0,500.0,,,,,,,,,,8.0,8.0,8.0,cue1.png,Hard,B,,,,,,,,,,,,,,,,,,,,,,,,,,,38,21,Male,0.7142857142857143,1.75,1.0,1.5,1.8333333333333333,1.75,2.4444444444444446,2.3333333333333335,1.875,2.111111111111111,1.25,1.25,1.5,1.25,0.8958333333333333,0.8541666666666666,0.5270828866710265,0.028077918005937393,0.01620933498606226,-0.48040129768858325,,,0.011272204464934604,-0.8378668002092577,0.023886158628520678,-0.6819629494289906,,,,,,,,,,,,,,,,,,,,,,,,
8,240709_092657,LEARNING,1.0,9,1.0,500.0,,,,,,,,,,9.0,9.0,9.0,cue2.png,Easy,B,,,,,,,,,,,,,,,,,,,,,,,,,,,38,21,Male,0.7142857142857143,1.75,1.0,1.5,1.8333333333333333,1.75,2.4444444444444446,2.3333333333333335,1.875,2.111111111111111,1.25,1.25,1.5,1.25,0.5,0.75,0.5637303749972489,0.5908711181691992,0.014118415696665217,-0.6802807590918993,0.019806473935028657,-0.5252861696181556,0.008483703488508357,-0.9164630029673337,0.02863065445655465,-0.5337226538299564,,,,,,,,,,,,,,,,,,,,,,,,
9,240709_092724,LEARNING,1.0,10,1.0,500.0,,,,,,,,,,10.0,10.0,10.0,cue2.png,Easy,B,,,,,,,,,,,,,,,,,,,,,,,,,,,38,21,Male,0.7142857142857143,1.75,1.0,1.5,1.8333333333333333,1.75,2.4444444444444446,2.3333333333333335,1.875,2.111111111111111,1.25,1.25,1.5,1.25,0.9090909090909092,0.9090909090909092,0.490306756197242,-0.5366908316208493,0.015351774648200795,-0.56237897101237,,,0.008542073278398123,-0.9148178022376564,0.036500543299153865,-0.2878304261531792,,,4.023560602868356e+44,-0.17890724770194952,,,,,,,,,,,,,,,,,,,,
10,240709_092753,LEARNING,1.0,11,3.0,500.0,,,,,,,,,,11.0,11.0,11.0,cue1.png,Hard,B,,,,,,,,,,,,,,,,,,,,,,,,,,,38,21,Male,0.7142857142857143,1.75,1.0,1.5,1.8333333333333333,1.75,2.4444444444444446,2.3333333333333335,1.875,2.111111111111111,1.25,1.25,1.5,1.25,0.6113636363636364,0.6647727272727273,0.6094086800391475,1.2923500092660654,0.04736518649432755,2.4979130019654994,0.012380427653035448,-1.322025421236899,0.06278025166568946,0.6139300453674053,0.06412016250442278,0.5751359803360941,3.897741836880965e+44,-0.18227312830149267,3.8195982291846756e+44,-0.17894048042701752,,,,,,,,,,,,,,,,,,,,
11,240709_092821,LEARNING,1.0,12,1.0,500.0,,,,,,,,,,12.0,12.0,12.0,cue2.png,Easy,B,,,,,,,,,,,,,,,,,,,,,,,,,,,38,21,Male,0.7142857142857143,1.75,1.0,1.5,1.8333333333333333,1.75,2.4444444444444446,2.3333333333333335,1.875,2.111111111111111,1.25,1.25,1.5,1.25,0.8958333333333333,0.9166666666666666,0.5653509499097709,0.6157581863634457,0.015691271474721227,-0.5299250914307209,0.01371169437804297,-1.1791940391110747,0.06602026167262995,0.7052524030056132,0.10062795858271976,1.7158107071086133,1.985483913857273e+44,-0.18240692396126126,,,,,,,,,,,,,,,,,,,,,,
12,240709_092851,LEARNING,1.0,13,1.0,500.0,,,,,,,,,,13.0,13.0,13.0,cue2.png,Easy,B,,,,,,,,,,,,,,,,,,,,,,,,,,,38,21,Male,0.7142857142857143,1.75,1.0,1.5,1.8333333333333333,1.75,2.4444444444444446,2.3333333333333335,1.875,2.111111111111111,1.25,1.25,1.5,1.25,0.1666666666666666,0.5416666666666667,0.6165935714463038,1.402687939982198,0.03433567777714887,1.2523693801021711,,,0.08178438155067216,1.1495771397410928,,,,,,,,,,,,,,,,,,,,,,,,,,
13,240709_092917,LEARNING,1.0,14,1.0,500.0,,,,,,,,,,14.0,14.0,14.0,cue2.png,Easy,B,,,,,,,,,,,,,,,,,,,,,,,,,,,38,21,Male,0.7142857142857143,1.75,1.0,1.5,1.8333333333333333,1.75,2.4444444444444446,2.3333333333333335,1.875,2.111111111111111,1.25,1.25,1.5,1.25,1.0,1.0,0.4616979125421494,-0.9760350652637142,,,0.026158034063167402,0.1561716439933193,,,0.022639483540475798,-0.7209149245736933,,,-1.7320997507710267e+44,-0.1798450494869683,,,,,,,,,,,,,,,,,,,,
14,240709_092948,LEARNING,1.0,15,3.0,500.0,,,,,,,,,,15.0,15.0,15.0,cue1.png,Hard,B,,,,,,,,,,,,,,,,,,,,,,,,,,,38,21,Male,0.7142857142857143,1.75,1.0,1.5,1.8333333333333333,1.75,2.4444444444444446,2.3333333333333335,1.875,2.111111111111111,1.25,1.25,1.5,1.25,0.5,0.6875,0.7073083666153253,2.795789410425891,0.016005414068284932,-0.49989492588403395,0.03987907758285905,1.6283000862595147,0.008532759900359614,-0.9150803074886373,0.04839492441417735,0.08380581010193817,,,-1.9819911771084057e+44,-0.17988576568828685,,,,,,,,,,,,,,,,,,,,
15,240709_093015,LEARNING,1.0,16,1.0,500.0,,,,,,,,,,16.0,16.0,16.0,cue2.png,Easy,B,,,,,,,,,,,,,,,,,,,,,,,,,,,38,21,Male,0.7142857142857143,1.75,1.0,1.5,1.8333333333333333,1.75,2.4444444444444446,2.3333333333333335,1.875,2.111111111111111,1.25,1.25,1.5,1.25,0.8958333333333333,0.8541666666666666,0.4546056265942752,-1.0849508596981454,0.014101427741468945,-0.6819047066790651,0.040380317608461606,1.682078043966068,0.010125988911518728,-0.8701738321243736,0.036543558727307926,-0.28648642248745787,,,,,,,,,,,,,,,,,,,,,,,,
16,240709_093042,LEARNING,1.0,17,1.0,500.0,,,,,,,,,,17.0,17.0,17.0,cue2.png,Easy,B,,,,,,,,,,,,,,,,,,,,,,,,,,,38,21,Male,0.7142857142857143,1.75,1.0,1.5,1.8333333333333333,1.75,2.4444444444444446,2.3333333333333335,1.875,2.111111111111111,1.25,1.25,1.5,1.25,0.8958333333333333,0.8541666666666666,0.5095265867188573,-0.24153308903373502,0.02034333644503586,-0.08521531932475687,0.012614822402010561,-1.2968772481997024,0.027776550691799087,-0.37267817255505686,,,,,,,,,,,,,,,,,,,,,,,,,,
17,240709_093112,LEARNING,1.0,18,3.0,500.0,,,,,,,,,,18.0,18.0,18.0,cue1.png,Hard,B,,,,,,,,,,,,,,,,,,,,,,,,,,,38,21,Male,0.7142857142857143,1.75,1.0,1.5,1.8333333333333333,1.75,2.4444444444444446,2.3333333333333335,1.875,2.111111111111111,1.25,1.25,1.5,1.25,0.9375,0.75,0.5668594000162557,0.6389233608812246,0.03169470963653668,0.9999085164974812,0.019166017457198307,-0.594000636975874,0.10162586466411211,1.7088257263431605,,,,,,,,,,,,,,,,,,,,,,,,,,
18,240709_093141,LEARNING,1.0,19,3.0,500.0,,,,,,,,,,19.0,19.0,19.0,cue1.png,Hard,B,,,,,,,,,,,,,,,,,,,,,,,,,,,38,21,Male,0.7142857142857143,1.75,1.0,1.5,1.8333333333333333,1.75,2.4444444444444446,2.3333333333333335,1.875,2.111111111111111,1.25,1.25,1.5,1.25,0.75,0.8333333333333334,0.6085333625669591,1.2789078132567078,0.06295582685230758,3.9882855923797784,,,0.08367346602953298,1.2028225457792734,0.09809197306246892,1.6365746287595602,,,,,,,,,,,,,,,,,,,,,,,,
19,240709_093209,LEARNING,1.0,20,3.0,500.0,,,,,,,,,,20.0,20.0,20.0,cue1.png,Hard,B,,,,,,,,,,,,,,,,,,,,,,,,,,,38,21,Male,0.7142857142857143,1.75,1.0,1.5,1.8333333333333333,1.75,2.4444444444444446,2.3333333333333335,1.875,2.111111111111111,1.25,1.25,1.5,1.25,0.6041666666666667,0.7708333333333334,0.5405697000212968,0.23519407226560393,,,0.02754330909834246,0.3047975685970726,0.06669455097836288,0.7242578039142076,0.043967050509829166,-0.0545417320283328,1.4688419830614611e+44,-0.18244307203896704,,,,,,,,,,,,,,,,,,,,,,
20,240709_093236,LEARNING,1.0,21,1.0,500.0,,,,,,,,,,21.0,21.0,21.0,cue2.png,Easy,B,,,,,,,,,,,,,,,,,,,,,,,,,,,38,21,Male,0.7142857142857143,1.75,1.0,1.5,1.8333333333333333,1.75,2.4444444444444446,2.3333333333333335,1.875,2.111111111111111,1.25,1.25,1.5,1.25,0.75,0.7708333333333334,0.4495314467077454,-1.1628747247969937,,,0.014546553955169562,-1.0896220960571397,0.011247152052592115,-0.8385729231393537,0.018686525633968568,-0.8444238641513667,7.825946220885453e+43,-0.1824910869627492,8.46610794288327e+43,-0.17942488582135618,,,,,,,,,,,,,,,,,,,,
21,240709_093305,LEARNING,1.0,22,3.0,500.0,,,,,,,,,,22.0,22.0,22.0,cue1.png,Hard,B,,,,,,,,,,,,,,,,,,,,,,,,,,,38,21,Male,0.7142857142857143,1.75,1.0,1.5,1.8333333333333333,1.75,2.4444444444444446,2.3333333333333335,1.875,2.111111111111111,1.25,1.25,1.5,1.25,0.6041666666666667,0.6458333333333334,0.5083420539203172,-0.25972388558859044,,,0.029104633666709553,0.4723118178889399,,,0.12310296044603186,2.418035145819275,-2.406621934525496e+42,-0.1825475269012061,2.0888508699787228e+43,-0.1795287940212678,,,,,,,,,,,,,,,,,,,,
22,240709_093334,LEARNING,1.0,23,3.0,500.0,,,,,,,,,,23.0,23.0,23.0,cue1.png,Hard,B,,,,,,,,,,,,,,,,,,,,,,,,,,,38,21,Male,0.7142857142857143,1.75,1.0,1.5,1.8333333333333333,1.75,2.4444444444444446,2.3333333333333335,1.875,2.111111111111111,1.25,1.25,1.5,1.25,0.75,0.8333333333333334,0.6295561999431811,1.6017542200324222,0.01517485201654914,-0.5792917234576296,0.011810105413683524,-1.3832151979912681,0.02653108063610992,-0.40778277458087825,0.027071509932383806,-0.582437639261923,-7.031592553572446e+43,-0.18259504125567863,-4.648917202428824e+43,-0.1796385762276023,,,,,,,,,,,,,,,,,,,,
23,240709_093402,LEARNING,1.0,24,3.0,500.0,,,,,,,,,,24.0,24.0,24.0,cue1.png,Hard,B,,,,,,,,,,,,,,,,,,,,,,,,,,,38,21,Male,0.7142857142857143,1.75,1.0,1.5,1.8333333333333333,1.75,2.4444444444444446,2.3333333333333335,1.875,2.111111111111111,1.25,1.25,1.5,1.25,0.7704545454545455,0.7215909090909091,0.4841631308126335,-0.6310381047553648,,,0.016055341991980897,-0.9277444823644708,0.15901975154213618,3.326519823736122,0.010471526468459887,-1.1010989564646962,-1.2371082543610246e+44,-0.18263240026344865,,,,,,,,,,,,,,,,,,,,,,
24,240709_093429,LEARNING,1.0,25,1.0,500.0,,,,,,,,,,25.0,25.0,25.0,cue2.png,Easy,B,,,,,,,,,,,,,,,,,,,,,,,,,,,38,21,Male,0.7142857142857143,1.75,1.0,1.5,1.8333333333333333,1.75,2.4444444444444446,2.3333333333333335,1.875,2.111111111111111,1.25,1.25,1.5,1.25,0.75,0.7083333333333334,0.4436095500630991,-1.2538169234548993,0.012211752840312068,-0.8625464002087665,0.012619421504367439,-1.2963838112844464,,,,,-1.327483580171632e+44,-0.18263872358740932,-1.083994623929008e+44,-0.1797394501104436,,,,,,,,,,,,,,,,,,,,
25,240709_093457,LEARNING,1.0,26,1.0,500.0,,,,,,,,,,26.0,26.0,26.0,cue2.png,Easy,B,,,,,,,,,,,,,,,,,,,,,,,,,,,38,21,Male,0.7142857142857143,1.75,1.0,1.5,1.8333333333333333,1.75,2.4444444444444446,2.3333333333333335,1.875,2.111111111111111,1.25,1.25,1.5,1.25,0.75,0.8333333333333334,0.5147987062809989,-0.16056947664074225,0.03134614896451461,0.9665881871363993,0.013214807672293797,-1.2325049298656687,0.036437172968806074,-0.12857138175625027,0.07664171604593437,0.966368023872738,-1.0185050921229684e+44,-0.18261710517486934,-8.645117669959822e+43,-0.1797036885466323,,,,,,,,,,,,,,,,,,,,
26,240709_093525,LEARNING,1.0,27,3.0,500.0,,,,,,,,,,27.0,27.0,27.0,cue1.png,Hard,B,,,,,,,,,,,,,,,,,,,,,,,,,,,38,21,Male,0.7142857142857143,1.75,1.0,1.5,1.8333333333333333,1.75,2.4444444444444446,2.3333333333333335,1.875,2.111111111111111,1.25,1.25,1.5,1.25,0.9375,0.8125,0.5285285230940924,0.050278466692043146,0.018843916570335212,-0.22855095092583055,0.026914293067497253,0.2373105448645343,0.017759953798097063,-0.65500422768604,0.04060380156920581,-0.15962539849194995,6.995638348810239e+43,-0.18249689640865177,,,,,,,,,,,,,,,,,,,,,,
27,240709_093553,LEARNING,1.0,28,1.0,500.0,,,,,,,,,,28.0,28.0,28.0,cue2.png,Easy,B,,,,,,,,,,,,,,,,,,,,,,,,,,,38,21,Male,0.7142857142857143,1.75,1.0,1.5,1.8333333333333333,1.75,2.4444444444444446,2.3333333333333335,1.875,2.111111111111111,1.25,1.25,1.5,1.25,1.0,0.9375,0.4884598733236392,-0.5650532971057733,,,0.025855589735380487,0.123722443136386,0.056479795841228246,0.43634649505346806,,,1.4818901509925472e+43,-0.18253547465529116,-4.820126659971393e+42,-0.17957068253214134,,,,,,,,,,,,,,,,,,,,
28,240709_093619,LEARNING,1.0,29,1.0,500.0,,,,,,,,,,29.0,29.0,29.0,cue2.png,Easy,B,,,,,,,,,,,,,,,,,,,,,,,,,,,38,21,Male,0.7142857142857143,1.75,1.0,1.5,1.8333333333333333,1.75,2.4444444444444446,2.3333333333333335,1.875,2.111111111111111,1.25,1.25,1.5,1.25,0.8958333333333333,0.9166666666666666,0.4549936375115067,-1.0789922001615595,0.014790166740934689,-0.6160653502970356,0.03514678838275159,1.1205735770833458,0.08496646941642806,1.239266913998046,0.07339965660620423,0.8650708856488043,6.892790574991659e+43,-0.18249761600748768,5.172418444647473e+43,-0.1794785517380531,,,,,,,,,,,,,,,,,,,,
29,240709_093648,LEARNING,1.0,30,3.0,500.0,,,,,,,,,,30.0,30.0,30.0,cue1.png,Hard,B,,,,,,,,,,,,,,,,,,,,,,,,,,,38,21,Male,0.7142857142857143,1.75,1.0,1.5,1.8333333333333333,1.75,2.4444444444444446,2.3333333333333335,1.875,2.111111111111111,1.25,1.25,1.5,1.25,0.6909090909090909,0.7556818181818181,0.5852534600533545,0.921399797468745,0.01725424105720334,-0.38051448533010046,0.021489526210715627,-0.34471177516311086,0.04588535237841878,0.1377333571878634,0.060712795001456925,0.46867384312234756,,,8.000450932242239e+43,-0.17943247303027668,,,,,,,,,,,,,,,,,,,,
30,240709_093716,LEARNING,1.0,31,3.0,500.0,,,,,,,,,,31.0,31.0,31.0,cue1.png,Hard,B,,,,,,,,,,,,,,,,,,,,,,,,,,,38,21,Male,0.7142857142857143,1.75,1.0,1.5,1.8333333333333333,1.75,2.4444444444444446,2.3333333333333335,1.875,2.111111111111111,1.25,1.25,1.5,1.25,0.7083333333333333,0.7291666666666666,0.5040449461756418,-0.3257143021089439,0.02392783913252943,0.25744184119221486,0.022352491957173544,-0.25212432594767925,,,,,1.1366164941719268e+44,-0.18246631698304216,,,,,,,,,,,,,,,,,,,,,,
31,240709_093744,LEARNING,1.0,32,1.0,500.0,,,,,,,,,,32.0,32.0,32.0,cue2.png,Easy,B,,,,,,,,,,,,,,,,,,,,,,,,,,,38,21,Male,0.7142857142857143,1.75,1.0,1.5,1.8333333333333333,1.75,2.4444444444444446,2.3333333333333335,1.875,2.111111111111111,1.25,1.25,1.5,1.25,0.9090909090909092,0.9090909090909092,0.514660643733805,-0.1626896945958242,,,,,0.007496410892890312,-0.9442906600787154,0.05839592974141584,0.396284109110516,9.002344110528683e+43,-0.1824828560159768,7.952970318197515e+43,-0.1794332466583553,,,,,,,,,,,,,,,,,,,,
32,240709_093809,LEARNING,1.0,33,1.0,500.0,,,,,,,,,,33.0,33.0,33.0,cue2.png,Easy,B,,,,,,,,,,,,,,,,,,,,,,,,,,,38,21,Male,0.7142857142857143,1.75,1.0,1.5,1.8333333333333333,1.75,2.4444444444444446,2.3333333333333335,1.875,2.111111111111111,1.25,1.25,1.5,1.25,1.0,1.0,0.3918056812544819,-2.0493657165430825,0.021250327452276212,0.0014876323119518723,,,0.017961399487977536,-0.6493263145633853,0.032376500301284666,-0.41668486616658496,4.157181782882792e+43,-0.1825167563430461,4.545583622404374e+43,-0.1794887651067909,,,,,,,,,,,,,,,,,,,,
33,240709_093834,LEARNING,1.0,34,1.0,500.0,,,,,,,,,,34.0,34.0,34.0,cue2.png,Easy,B,,,,,,,,,,,,,,,,,,,,,,,,,,,38,21,Male,0.7142857142857143,1.75,1.0,1.5,1.8333333333333333,1.75,2.4444444444444446,2.3333333333333335,1.875,2.111111111111111,1.25,1.25,1.5,1.25,0.9090909090909092,0.9090909090909092,0.4176295312645379,-1.6527904571876857,0.023208246935666386,0.18865310244539735,0.03954394971554373,1.5923442739655833,,,0.12289655396543943,2.4115860395695052,,,,,,,,,,,,,,,,,,,,,,,,
34,240709_093903,LEARNING,1.0,35,3.0,500.0,,,,,,,,,,35.0,35.0,35.0,cue1.png,Hard,B,,,,,,,,,,,,,,,,,,,,,,,,,,,38,21,Male,0.7142857142857143,1.75,1.0,1.5,1.8333333333333333,1.75,2.4444444444444446,2.3333333333333335,1.875,2.111111111111111,1.25,1.25,1.5,1.25,0.8958333333333333,0.8541666666666666,0.582005300031354,0.871518005921354,0.02130684761053847,0.006890623641735896,,,0.08425244013193689,1.2191414089709702,,,,,-4.533358303375308e+43,-0.1796366933621247,,,,,,,,,,,,,,,,,,,,
35,240709_093932,LEARNING,1.0,36,3.0,500.0,,,,,,,,,,36.0,36.0,36.0,cue1.png,Hard,B,,,,,,,,,,,,,,,,,,,,,,,,,,,38,21,Male,0.7142857142857143,1.75,1.0,1.5,1.8333333333333333,1.75,2.4444444444444446,2.3333333333333335,1.875,2.111111111111111,1.25,1.25,1.5,1.25,0.75,0.6458333333333334,0.5115332769659849,-0.21071647164745477,,,0.024437635562835056,-0.02840962059757325,0.057948579319799,0.4777453703149027,0.07983353271809535,1.0660953424601665,-9.634775947923169e+43,-0.18261325504554204,-7.486869157182697e+43,-0.17968481655877966,,,,,,,,,,,,,,,,,,,,
36,240709_093959,LEARNING,1.0,37,1.0,500.0,,,,,,,,,,37.0,37.0,37.0,cue2.png,Easy,B,,,,,,,,,,,,,,,,,,,,,,,,,,,38,21,Male,0.7142857142857143,1.75,1.0,1.5,1.8333333333333333,1.75,2.4444444444444446,2.3333333333333335,1.875,2.111111111111111,1.25,1.25,1.5,1.25,0.6113636363636364,0.6647727272727273,0.4924747666344046,-0.503396830104106,0.0217340305429357,0.0477267739805996,,,,,0.03241948090221915,-0.41534195066650076,-1.011498819850384e+44,-0.1826166149644171,-8.410137087409776e+43,-0.1796998598771796,,,,,,,,,,,,,,,,,,,,
37,240709_094028,LEARNING,1.0,38,3.0,500.0,,,,,,,,,,38.0,38.0,38.0,cue1.png,Hard,B,,,,,,,,,,,,,,,,,,,,,,,,,,,38,21,Male,0.7142857142857143,1.75,1.0,1.5,1.8333333333333333,1.75,2.4444444444444446,2.3333333333333335,1.875,2.111111111111111,1.25,1.25,1.5,1.25,1.0,0.9375,0.553669420008858,0.4363656578164486,0.010216232045435153,-1.0533063323217537,0.01842201869482743,-0.6738241385575985,,,0.013426686533619163,-1.0087658999124678,-6.980650896066684e+43,-0.18259468483029304,-6.313294548637275e+43,-0.17966569485431613,,,,,,,,,,,,,,,,,,,,
38,240709_094056,LEARNING,1.0,39,3.0,500.0,,,,,,,,,,39.0,39.0,39.0,cue1.png,Hard,B,,,,,,,,,,,,,,,,,,,,,,,,,,,38,21,Male,0.7142857142857143,1.75,1.0,1.5,1.8333333333333333,1.75,2.4444444444444446,2.3333333333333335,1.875,2.111111111111111,1.25,1.25,1.5,1.25,0.75,0.8333333333333334,0.5592810311936773,0.5225428219555982,,,,,0.01101006000509636,-0.8452555582880729,,,,,-2.467552075018169e+43,-0.17960303403114575,,,,,,,,,,,,,,,,,,,,
39,240709_094123,LEARNING,1.0,40,3.0,500.0,,,,,,,,,,40.0,40.0,40.0,cue1.png,Hard,B,,,,,,,,,,,,,,,,,,,,,,,,,,,38,21,Male,0.7142857142857143,1.75,1.0,1.5,1.8333333333333333,1.75,2.4444444444444446,2.3333333333333335,1.875,2.111111111111111,1.25,1.25,1.5,1.25,0.8125,0.8541666666666666,0.5046582399557035,-0.31629598765179257,0.020226986717228376,-0.09633766204095438,,,0.013419273602587708,-0.7773498835198963,,,4.1116891651277396e+43,-0.18251707464293304,2.7831491947436684e+43,-0.17951748143212434,,,,,,,,,,,,,,,,,,,,
40,240709_094150,LEARNING,1.0,41,1.0,500.0,,,,,,,,,,41.0,41.0,41.0,cue2.png,Easy,B,,,,,,,,,,,,,,,,,,,,,,,,,,,38,21,Male,0.7142857142857143,1.75,1.0,1.5,1.8333333333333333,1.75,2.4444444444444446,2.3333333333333335,1.875,2.111111111111111,1.25,1.25,1.5,1.25,1.0,0.9375,0.4905578400629262,-0.532834952303285,0.032548160250406695,1.0814933246245613,0.03942651547334039,1.5797447739497565,0.022734207203216,-0.5148007877360818,,,9.062497262137845e+43,-0.18248243514018858,6.878815396731578e+43,-0.1794507484625071,,,,,,,,,,,,,,,,,,,,
41,240709_094218,LEARNING,1.0,42,3.0,500.0,,,,,,,,,,42.0,42.0,42.0,cue1.png,Hard,B,,,,,,,,,,,,,,,,,,,,,,,,,,,38,21,Male,0.7142857142857143,1.75,1.0,1.5,1.8333333333333333,1.75,2.4444444444444446,2.3333333333333335,1.875,2.111111111111111,1.25,1.25,1.5,1.25,0.75,0.8333333333333334,0.5198634000553284,-0.0827912891772832,0.01859507141652434,-0.2523390691802112,0.03695484527259943,1.3145596954831928,0.059072077588228064,0.5094120967927851,,,,,,,,,,,,,,,,,,,,,,,,,,
42,240709_094245,LEARNING,1.0,43,3.0,500.0,,,,,,,,,,43.0,43.0,43.0,cue1.png,Hard,B,,,,,,,,,,,,,,,,,,,,,,,,,,,38,21,Male,0.7142857142857143,1.75,1.0,1.5,1.8333333333333333,1.75,2.4444444444444446,2.3333333333333335,1.875,2.111111111111111,1.25,1.25,1.5,1.25,0.9090909090909092,0.9090909090909092,0.4925897312059533,-0.5016313263252019,0.02471600341587743,0.33278566400345205,0.016768576010170594,-0.8512217249909521,,,0.01682656956503544,-0.9025376126830242,7.85284337159153e+43,-0.18249089877045668,6.69158052413994e+43,-0.1794537991845259,,,,,,,,,,,,,,,,,,,,
43,240709_094310,LEARNING,1.0,44,1.0,500.0,,,,,,,,,,44.0,44.0,44.0,cue2.png,Easy,B,,,,,,,,,,,,,,,,,,,,,,,,,,,38,21,Male,0.7142857142857143,1.75,1.0,1.5,1.8333333333333333,1.75,2.4444444444444446,2.3333333333333335,1.875,2.111111111111111,1.25,1.25,1.5,1.25,0.9090909090909092,0.9090909090909092,0.4353541249583941,-1.3805949736183165,0.014763667903317432,-0.618598481737168,,,0.03636246495666611,-0.1306770887721146,0.011733980717944585,-1.0616539663314837,1.1800628504467444e+43,-0.18253758646156612,,,,,,,,,,,,,,,,,,,,,,
44,240709_094338,LEARNING,1.0,45,1.0,500.0,,,,,,,,,,45.0,45.0,45.0,cue2.png,Easy,B,,,,,,,,,,,,,,,,,,,,,,,,,,,38,21,Male,0.7142857142857143,1.75,1.0,1.5,1.8333333333333333,1.75,2.4444444444444446,2.3333333333333335,1.875,2.111111111111111,1.25,1.25,1.5,1.25,0.1875,0.6875,0.5063927799463273,-0.289658764837376,0.009741916892513408,-1.098648042918708,0.03651731921735556,1.2676175988975602,,,0.06136929125696157,0.4891858643155446,-5.662437182667319e+43,-0.18258546163548356,-4.112811927455616e+43,-0.17962984116589023,,,,,,,,,,,,,,,,,,,,
45,240709_094405,LEARNING,1.0,46,1.0,500.0,,,,,,,,,,46.0,46.0,46.0,cue2.png,Easy,B,,,,,,,,,,,,,,,,,,,,,,,,,,,38,21,Male,0.7142857142857143,1.75,1.0,1.5,1.8333333333333333,1.75,2.4444444444444446,2.3333333333333335,1.875,2.111111111111111,1.25,1.25,1.5,1.25,0.8958333333333333,0.9166666666666666,0.5145076687040273,-0.16503892261896486,,,0.0344730342616975,1.048286611206855,0.021328247342139277,-0.5544289274588527,0.04515194118555506,-0.017520191618436144,-1.0979433938474016e+44,-0.18262266326400686,-8.688396815103263e+43,-0.179704393717839,,,,,,,,,,,,,,,,,,,,
46,240709_094437,LEARNING,1.0,47,3.0,500.0,,,,,,,,,,47.0,47.0,47.0,cue1.png,Hard,B,,,,,,,,,,,,,,,,,,,,,,,,,,,38,21,Male,0.7142857142857143,1.75,1.0,1.5,1.8333333333333333,1.75,2.4444444444444446,2.3333333333333335,1.875,2.111111111111111,1.25,1.25,1.5,1.25,0.9375,0.625,0.6462227599695325,1.8577015463388704,,,,,0.10398453560479406,1.775306814591158,0.014990457981144453,-0.9599063477002493,,,-7.310891785281578e+43,-0.17968194926148706,,,,,,,,,,,,,,,,,,,,
47,240709_094505,LEARNING,1.0,48,3.0,500.0,,,,,,,,,,48.0,48.0,48.0,cue1.png,Hard,B,,,,,,,,,,,,,,,,,,,,,,,,,,,38,21,Male,0.7142857142857143,1.75,1.0,1.5,1.8333333333333333,1.75,2.4444444444444446,2.3333333333333335,1.875,2.111111111111111,1.25,1.25,1.5,1.25,0.7083333333333333,0.7291666666666666,0.4861241076499797,-0.6009235053614843,,,0.03270950794271717,0.859078170235866,,,0.07130988049054751,0.799776481280211,4.692374918576669e+43,-0.18251301173737175,2.2906456575829825e+43,-0.17952550606644777,,,,,,,,,,,,,,,,,,,,
48,240709_094532,LEARNING,1.0,49,1.0,500.0,,,,,,,,,,49.0,49.0,49.0,cue2.png,Easy,B,,,,,,,,,,,,,,,,,,,,,,,,,,,38,21,Male,0.7142857142857143,1.75,1.0,1.5,1.8333333333333333,1.75,2.4444444444444446,2.3333333333333335,1.875,2.111111111111111,1.25,1.25,1.5,1.25,0.75,0.7708333333333334,0.4779443533470233,-0.7265394837262584,0.013083145598518751,-0.7792464296817699,0.030866889897040437,0.6613839912631995,0.008668885569018802,-0.9112434931052232,0.08057814772399427,1.0893606065857486,,,,,,,,,,,,,,,,,,,,,,,,
49,240709_094559,LEARNING,1.0,50,1.0,500.0,,,,,,,,,,50.0,50.0,50.0,cue2.png,Easy,B,,,,,,,,,,,,,,,,,,,,,,,,,,,38,21,Male,0.7142857142857143,1.75,1.0,1.5,1.8333333333333333,1.75,2.4444444444444446,2.3333333333333335,1.875,2.111111111111111,1.25,1.25,1.5,1.25,0.8958333333333333,0.8541666666666666,0.4324038866596917,-1.4259015997802762,0.013261249731833291,-0.7622207326971291,,,,,,,-7.235697449020336e+43,-0.18259646932397527,-3.386764194413736e+43,-0.17961801126596183,,,,,,,,,,,,,,,,,,,,
0,240709_094743,TrueCHOICE,9.0,1,1.0,500.0,,,,,,,,,,,1.0,1.0,,,B,,,,,,True,cue2.png,Easy,cue1.png,Hard,Left,Easy,Easy,0.0163862998597323,,,,,,,,,,,,,38,21,Male,0.7142857142857143,1.75,1.0,1.5,1.8333333333333333,1.75,2.4444444444444446,2.3333333333333335,1.875,2.111111111111111,1.25,1.25,1.5,1.25,1.0,1.0,0.4327242249564733,-0.14857967077905912,,,,,,,,,,,,,0.014337372284860234,-1.2955350461540132,,,193094404.40290537,-0.45435279486775954,,,,,,,,,,,,,,
1,240709_094806,TrueCHOICE,9.0,2,1.0,500.0,,,,,,,,,,,2.0,2.0,,,B,,,,,,True,cue2.png,Easy,cue1.png,Hard,Left,Easy,Easy,0.0163216996006667,,,,,,,,,,,,,38,21,Male,0.7142857142857143,1.75,1.0,1.5,1.8333333333333333,1.75,2.4444444444444446,2.3333333333333335,1.875,2.111111111111111,1.25,1.25,1.5,1.25,0.8958333333333333,0.9166666666666666,0.393801806261763,-1.210993184191349,,,,,,,,,,,,,0.03249236038995001,0.21401575618123203,0.10361129658765113,0.7668698848335264,51851141.07958996,-0.455394816955701,,,,,,,,,,,,,,
2,240709_094829,TrueCHOICE,9.0,3,1.0,500.0,,,,,,,,,,,3.0,3.0,,,B,,,,,,True,cue1.png,Hard,cue2.png,Easy,Right,Easy,Easy,0.016612600069493,,,,,,,,,,,,,38,21,Male,0.7142857142857143,1.75,1.0,1.5,1.8333333333333333,1.75,2.4444444444444446,2.3333333333333335,1.875,2.111111111111111,1.25,1.25,1.5,1.25,1.0,1.0,0.3969772063137498,-1.1243185108576657,,,,,,,,,,,,,,,0.10241937791023964,0.7407246480330174,26933909.801617917,-0.45557864381406626,,,,,,,,,,,,,,
3,240709_094852,TrueCHOICE,9.0,4,1.0,500.0,,,,,,,,,,,4.0,4.0,,,B,,,,,,True,cue2.png,Easy,cue1.png,Hard,Left,Easy,Easy,0.0158119997940957,,,,,,,,,,,,,38,21,Male,0.7142857142857143,1.75,1.0,1.5,1.8333333333333333,1.75,2.4444444444444446,2.3333333333333335,1.875,2.111111111111111,1.25,1.25,1.5,1.25,0.8958333333333333,0.9166666666666666,0.3905169188219588,-1.3006563891802136,,,,,,,,,,,,,0.029017665288811383,-0.07489816364246926,0.14948541610939892,1.773137963890466,3157165.276236102,-0.4557540567321187,,,,,,,,,,,,,,
4,240709_094916,TrueCHOICE,9.0,5,1.0,500.0,,,,,,,,,,,5.0,5.0,,,B,,,,,,True,cue1.png,Hard,cue2.png,Easy,Right,Easy,Easy,0.017295999918133,,,,,,,,,,,,,38,21,Male,0.7142857142857143,1.75,1.0,1.5,1.8333333333333333,1.75,2.4444444444444446,2.3333333333333335,1.875,2.111111111111111,1.25,1.25,1.5,1.25,0.8958333333333333,0.9166666666666666,0.4612734687398188,0.6306910788377978,,,,,,,,,,,,,0.03963012428712995,0.8075064902702723,,,392070461663.0816,2.4367222400749933,,,,,,,,,,,,,,
5,240709_094940,TrueCHOICE,9.0,6,1.0,500.0,,,,,,,,,,,6.0,6.0,,,B,,,,,,True,cue1.png,Hard,cue2.png,Easy,Right,Easy,Easy,0.0167597001418471,,,,,,,,,,,,,38,21,Male,0.7142857142857143,1.75,1.0,1.5,1.8333333333333333,1.75,2.4444444444444446,2.3333333333333335,1.875,2.111111111111111,1.25,1.25,1.5,1.25,0.7818181818181817,0.8181818181818181,0.4425617999804672,0.11994353500308212,,,,,,,,,,,,,0.04805604248744745,1.5081046678110521,,,,,,,,,,,,,,,,,,
6,240709_095005,TrueCHOICE,9.0,7,1.0,500.0,,,,,,,,,,,7.0,7.0,,,B,,,,,,True,cue2.png,Easy,cue1.png,Hard,Left,Easy,Easy,0.0165436998941004,,,,,,,,,,,,,38,21,Male,0.7142857142857143,1.75,1.0,1.5,1.8333333333333333,1.75,2.4444444444444446,2.3333333333333335,1.875,2.111111111111111,1.25,1.25,1.5,1.25,0.95,0.9375,0.4716406199149787,0.9136694207149653,,,,,,,,,,,,,,,0.03409222576228557,-0.7580601320597699,,,,,,,,,,,,,,,,
7,240709_095028,TrueCHOICE,9.0,8,1.0,500.0,,,,,,,,,,,8.0,8.0,,,B,,,,,,True,cue1.png,Hard,cue2.png,Easy,Right,Easy,Easy,0.0164133999496698,,,,,,,,,,,,,38,21,Male,0.7142857142857143,1.75,1.0,1.5,1.8333333333333333,1.75,2.4444444444444446,2.3333333333333335,1.875,2.111111111111111,1.25,1.25,1.5,1.25,1.0,1.0,0.4195583312539384,-0.5079515663294201,,,,,,,,,,,,,0.015977115334744545,-1.1591937044660747,0.032670314372505393,-0.7892503556041142,,,,,,,,,,,,,,,,
8,240709_095053,TrueCHOICE,9.0,9,1.0,500.0,,,,,,,,,,,9.0,9.0,,,B,,,,,,True,cue2.png,Easy,cue1.png,Hard,Left,Easy,Easy,0.0163447000086307,,,,,,,,,,,,,38,21,Male,0.7142857142857143,1.75,1.0,1.5,1.8333333333333333,1.75,2.4444444444444446,2.3333333333333335,1.875,2.111111111111111,1.25,1.25,1.5,1.25,0.8958333333333333,0.9166666666666666,0.5063258750597015,1.860426714267093,,,,,,,,,,,,,,,0.02466389921342163,-0.9648744348508917,40112573811.77635,-0.15984686019257258,,,,,,,,,,,,,,
9,240709_095118,TrueCHOICE,9.0,10,1.0,500.0,,,,,,,,,,,10.0,10.0,,,B,,,,,,True,cue1.png,Hard,cue2.png,Easy,Right,Easy,Easy,0.0166509998962283,,,,,,,,,,,,,38,21,Male,0.7142857142857143,1.75,1.0,1.5,1.8333333333333333,1.75,2.4444444444444446,2.3333333333333335,1.875,2.111111111111111,1.25,1.25,1.5,1.25,0.9090909090909092,0.9090909090909092,0.4662954187951982,0.767768572514772,,,,,,,,,,,,,,,0.03361412038841073,-0.7685475742422352,-2401734.634217945,-0.4557950675127751,,,,,,,,,,,,,,
0,240709_095334,FalseCHOICE,9.0,1,2.0,500.0,,,,,,,,,,,1.0,1.0,,,B,,,,,,False,cue2.png,Easy,cue1.png,Hard,Left,Easy,Mid,0.0138131999410688,,,,,,,,,,,,,38,21,Male,0.7142857142857143,1.75,1.0,1.5,1.8333333333333333,1.75,2.4444444444444446,2.3333333333333335,1.875,2.111111111111111,1.25,1.25,1.5,1.25,0.7818181818181817,0.6931818181818181,0.4710266929385917,-0.2818975573785076,,,,,,,,,,,,,,,,,,,0.0261534846065941,-0.28394613769960464,0.12249206316946482,0.7050973723194336,,,,,,,,,,
1,240709_095359,FalseCHOICE,9.0,2,2.0,500.0,,,,,,,,,,,2.0,2.0,,,B,,,,,,False,cue1.png,Hard,cue2.png,Easy,Right,Easy,Mid,0.0181542998179793,,,,,,,,,,,,,38,21,Male,0.7142857142857143,1.75,1.0,1.5,1.8333333333333333,1.75,2.4444444444444446,2.3333333333333335,1.875,2.111111111111111,1.25,1.25,1.5,1.25,0.9375,0.9375,0.5066682266692321,0.25084394485146233,,,,,,,,,,,,,,,,,,,0.04936881795630897,1.4290822174685318,0.07896317273242287,-0.2517288077366689,7.90491499504195e+44,-0.16479864596074545,,,,,,,,
2,240709_095423,FalseCHOICE,9.0,3,2.0,500.0,,,,,,,,,,,3.0,3.0,,,B,,,,,,False,cue1.png,Hard,cue2.png,Easy,Left,Hard,Mid,0.0169315999373793,,,,,,,,,,,,,38,21,Male,0.7142857142857143,1.75,1.0,1.5,1.8333333333333333,1.75,2.4444444444444446,2.3333333333333335,1.875,2.111111111111111,1.25,1.25,1.5,1.25,0.5,0.75,0.4321297249989584,-0.8632987195438958,,,,,,,,,,,,,,,,,,,0.030569035832828433,0.04187147345822731,,,-1.2591485093852125e+45,-0.16956916165597277,,,,,,,,
3,240709_095448,FalseCHOICE,9.0,4,2.0,500.0,,,,,,,,,,,4.0,4.0,,,B,,,,,,False,cue1.png,Hard,cue2.png,Easy,Right,Easy,Mid,0.0166775002144277,,,,,,,,,,,,,38,21,Male,0.7142857142857143,1.75,1.0,1.5,1.8333333333333333,1.75,2.4444444444444446,2.3333333333333335,1.875,2.111111111111111,1.25,1.25,1.5,1.25,0.7818181818181817,0.8181818181818181,0.5616831187799107,1.0731631101702797,,,,,,,,,,,,,,,,,,,0.027706401217312566,-0.1693585008434229,0.01304342488445123,-1.70073749806529,-1.270602487201563e+45,-0.1695958206696087,,,,,,,,
4,240709_095514,FalseCHOICE,9.0,5,2.0,500.0,,,,,,,,,,,5.0,5.0,,,B,,,,,,False,cue2.png,Easy,cue1.png,Hard,Right,Hard,Mid,0.0164697002619504,,,,,,,,,,,,,38,21,Male,0.7142857142857143,1.75,1.0,1.5,1.8333333333333333,1.75,2.4444444444444446,2.3333333333333335,1.875,2.111111111111111,1.25,1.25,1.5,1.25,0.7818181818181817,0.7556818181818181,0.5949827999807894,1.5709004500054713,,,,,,,,,,,,,,,,,,,0.03961847102951162,0.7096171765525674,0.08368099659626717,-0.1480244095657877,2.6494797177425033e+48,5.999997840627354,,,,,,,,
5,240709_095542,FalseCHOICE,9.0,6,2.0,500.0,,,,,,,,,,,6.0,6.0,,,B,,,,,,False,cue1.png,Hard,cue2.png,Easy,Right,Easy,Mid,0.0168003002181649,,,,,,,,,,,,,38,21,Male,0.7142857142857143,1.75,1.0,1.5,1.8333333333333333,1.75,2.4444444444444446,2.3333333333333335,1.875,2.111111111111111,1.25,1.25,1.5,1.25,0.8958333333333333,0.6666666666666666,0.6155666249493758,1.8785712118272697,,,,,,,,,,,,,,,,,,,0.04656126529720478,1.2219166669582588,0.10731037612095709,0.37138255717979923,,,,,,,,,,
6,240709_095609,FalseCHOICE,9.0,7,2.0,500.0,,,,,,,,,,,7.0,7.0,,,B,,,,,,False,cue1.png,Hard,cue2.png,Easy,Right,Easy,Mid,0.0160222998820245,,,,,,,,,,,,,38,21,Male,0.7142857142857143,1.75,1.0,1.5,1.8333333333333333,1.75,2.4444444444444446,2.3333333333333335,1.875,2.111111111111111,1.25,1.25,1.5,1.25,0.7704545454545455,0.7840909090909091,0.6112857285354819,1.814583752598822,,,,,,,,,,,,,,,,,,,0.04591432351048093,1.1741796989765045,0.06602518111162557,-0.5361240444595142,8.472986767966535e+43,-0.16644129878129243,,,,,,,,
7,240709_095635,FalseCHOICE,9.0,8,2.0,500.0,,,,,,,,,,,8.0,8.0,,,B,,,,,,False,cue2.png,Easy,cue1.png,Hard,Right,Hard,Mid,0.0158550003543496,,,,,,,,,,,,,38,21,Male,0.7142857142857143,1.75,1.0,1.5,1.8333333333333333,1.75,2.4444444444444446,2.3333333333333335,1.875,2.111111111111111,1.25,1.25,1.5,1.25,0.7818181818181817,0.7556818181818181,0.5410149999894202,0.7642323908604185,,,,,,,,,,,,,,,,,,,,,0.12353158741261881,0.7279475759581263,4.263763695950994e+44,-0.16564612011941113,,,,,,,,
8,240709_095701,FalseCHOICE,9.0,9,2.0,500.0,,,,,,,,,,,9.0,9.0,,,B,,,,,,False,cue2.png,Easy,cue1.png,Hard,Left,Easy,Mid,0.0151233999058604,,,,,,,,,,,,,38,21,Male,0.7142857142857143,1.75,1.0,1.5,1.8333333333333333,1.75,2.4444444444444446,2.3333333333333335,1.875,2.111111111111111,1.25,1.25,1.5,1.25,0.75,0.7708333333333334,0.5318934467621148,0.6278906159606554,,,,,,,,,,,,,,,,,,,0.03718198852725003,0.5298323959348736,0.12178895409035849,0.6896420467283275,,,,,,,,,,
9,240709_095726,FalseCHOICE,9.0,10,2.0,500.0,,,,,,,,,,,10.0,10.0,,,B,,,,,,False,cue1.png,Hard,cue2.png,Easy,Left,Hard,Mid,0.0151374000124633,,,,,,,,,,,,,38,21,Male,0.7142857142857143,1.75,1.0,1.5,1.8333333333333333,1.75,2.4444444444444446,2.3333333333333335,1.875,2.111111111111111,1.25,1.25,1.5,1.25,0.5,0.75,0.4971583937876858,0.10869847228119708,,,,,,,,,,,,,,,,,,,0.027643706308246894,-0.1739846742149762,,,5.982622727188663e+44,-0.16524605747666218,,,,,,,,
10,240709_095752,FalseCHOICE,9.0,11,2.0,500.0,,,,,,,,,,,11.0,11.0,,,B,,,,,,False,cue2.png,Easy,cue1.png,Hard,Right,Hard,Mid,0.016651100013405,,,,,,,,,,,,,38,21,Male,0.7142857142857143,1.75,1.0,1.5,1.8333333333333333,1.75,2.4444444444444446,2.3333333333333335,1.875,2.111111111111111,1.25,1.25,1.5,1.25,0.75,0.8333333333333334,0.5237117313081399,0.5055967939632692,,,,,,,,,,,,,,,,,,,,,0.05630816942256584,-0.7497176160542451,,,,,,,,,,
11,240709_095816,FalseCHOICE,9.0,12,2.0,500.0,,,,,,,,,,,12.0,12.0,,,B,,,,,,False,cue1.png,Hard,cue2.png,Easy,Left,Hard,Mid,0.0161024997942149,,,,,,,,,,,,,38,21,Male,0.7142857142857143,1.75,1.0,1.5,1.8333333333333333,1.75,2.4444444444444446,2.3333333333333335,1.875,2.111111111111111,1.25,1.25,1.5,1.25,0.75,0.8333333333333334,0.4555032812641002,-0.5139292571842118,,,,,,,,,,,,,,,,,,,0.023460916605803094,-0.48262712427393795,0.1551428214435144,1.4228069211185157,5.243363824492086e+44,-0.16541811921349672,,,,,,,,
12,240709_095843,FalseCHOICE,9.0,13,2.0,500.0,,,,,,,,,,,13.0,13.0,,,B,,,,,,False,cue2.png,Easy,cue1.png,Hard,Right,Hard,Mid,0.0155894001945853,,,,,,,,,,,,,38,21,Male,0.7142857142857143,1.75,1.0,1.5,1.8333333333333333,1.75,2.4444444444444446,2.3333333333333335,1.875,2.111111111111111,1.25,1.25,1.5,1.25,0.8125,0.7291666666666666,0.4928835846770268,0.0448020012547269,,,,,,,,,,,,,,,,,,,,,0.07479233280699789,-0.3434097303010039,1.4189637114212628e+44,-0.1663082443420611,,,,,,,,
13,240709_095907,FalseCHOICE,9.0,14,2.0,500.0,,,,,,,,,,,14.0,14.0,,,B,,,,,,False,cue1.png,Hard,cue2.png,Easy,Left,Hard,Mid,0.0163914998993277,,,,,,,,,,,,,38,21,Male,0.7142857142857143,1.75,1.0,1.5,1.8333333333333333,1.75,2.4444444444444446,2.3333333333333335,1.875,2.111111111111111,1.25,1.25,1.5,1.25,0.1666666666666666,0.6041666666666667,0.4396480733218292,-0.7509203856011271,,,,,,,,,,,,,,,,,,,0.04113224915866122,0.8213168372726444,0.10162800876258807,0.24647613759054773,-1.3607418798661989e+44,-0.1669552179127289,,,,,,,,
14,240709_095930,FalseCHOICE,9.0,15,2.0,500.0,,,,,,,,,,,15.0,15.0,,,B,,,,,,False,cue2.png,Easy,cue1.png,Hard,Right,Hard,Mid,0.0161331999115645,,,,,,,,,,,,,38,21,Male,0.7142857142857143,1.75,1.0,1.5,1.8333333333333333,1.75,2.4444444444444446,2.3333333333333335,1.875,2.111111111111111,1.25,1.25,1.5,1.25,0.8958333333333333,0.9166666666666666,0.3603390312928241,-1.9363693202699908,,,,,,,,,,,,,,,,,,,0.030365706776488793,0.02686809471313337,0.08376037041871286,-0.14627966140968648,,,,,,,,,,
15,240709_095955,FalseCHOICE,9.0,16,2.0,500.0,,,,,,,,,,,16.0,16.0,,,B,,,,,,False,cue2.png,Easy,cue1.png,Hard,Right,Hard,Mid,0.0156503999605774,,,,,,,,,,,,,38,21,Male,0.7142857142857143,1.75,1.0,1.5,1.8333333333333333,1.75,2.4444444444444446,2.3333333333333335,1.875,2.111111111111111,1.25,1.25,1.5,1.25,0.9090909090909092,0.8465909090909091,0.480921113366882,-0.13400357384516845,,,,,,,,,,,,,,,,,,,0.009921477442923557,-1.4816842064920333,0.014831047973366134,-1.6614430305433014,,,,,,,,,,
16,240709_100021,FalseCHOICE,9.0,17,2.0,500.0,,,,,,,,,,,17.0,17.0,,,B,,,,,,False,cue1.png,Hard,cue2.png,Easy,Left,Hard,Mid,0.0170444999821484,,,,,,,,,,,,,38,21,Male,0.7142857142857143,1.75,1.0,1.5,1.8333333333333333,1.75,2.4444444444444446,2.3333333333333335,1.875,2.111111111111111,1.25,1.25,1.5,1.25,0.9375,0.9375,0.5389630001038312,0.7335607169115342,,,,,,,,,,,,,,,,,,,0.04509468628160344,1.1136997656122987,,,,,,,,,,,,
17,240709_100047,FalseCHOICE,9.0,18,2.0,500.0,,,,,,,,,,,18.0,18.0,,,B,,,,,,False,cue1.png,Hard,cue2.png,Easy,Left,Hard,Mid,0.015823199879378,,,,,,,,,,,,,38,21,Male,0.7142857142857143,1.75,1.0,1.5,1.8333333333333333,1.75,2.4444444444444446,2.3333333333333335,1.875,2.111111111111111,1.25,1.25,1.5,1.25,0.75,0.8333333333333334,0.5715723312750924,1.2209792496319032,,,,,,,,,,,,,,,,,,,,,,,,,,,,,,,,
18,240709_100119,FalseCHOICE,9.0,19,2.0,500.0,,,,,,,,,,,20.0,19.0,,,B,,,,,,False,cue2.png,Easy,cue1.png,Hard,Right,Hard,Mid,0.0171827999874949,,,,,,,,,,,,,38,21,Male,0.7142857142857143,1.75,1.0,1.5,1.8333333333333333,1.75,2.4444444444444446,2.3333333333333335,1.875,2.111111111111111,1.25,1.25,1.5,1.25,0.0484848484848484,0.6022727272727273,0.4501930357156588,-0.5933026144607725,,,,,,,,,,,,,,,,,,,0.034562495170977356,0.3365434895093819,0.09745176423657824,0.15467641431063264,,,,,,,,,,
19,240709_100145,FalseCHOICE,9.0,20,2.0,500.0,,,,,,,,,,,21.0,20.0,,,B,,,,,,False,cue2.png,Easy,cue1.png,Hard,Left,Easy,Mid,0.0160667998716235,,,,,,,,,,,,,38,21,Male,0.7142857142857143,1.75,1.0,1.5,1.8333333333333333,1.75,2.4444444444444446,2.3333333333333335,1.875,2.111111111111111,1.25,1.25,1.5,1.25,0.6041666666666667,0.7083333333333334,0.516548621468246,0.39852828435357407,,,,,,,,,,,,,,,,,,,0.022503732738039347,-0.5532564399029097,0.09241614945470912,0.04398652519115939,,,,,,,,,,
20,240709_100210,FalseCHOICE,9.0,21,2.0,500.0,,,,,,,,,,,22.0,21.0,,,B,,,,,,False,cue2.png,Easy,cue1.png,Hard,Left,Easy,Mid,0.0160269001498818,,,,,,,,,,,,,38,21,Male,0.7142857142857143,1.75,1.0,1.5,1.8333333333333333,1.75,2.4444444444444446,2.3333333333333335,1.875,2.111111111111111,1.25,1.25,1.5,1.25,1.0,0.9375,0.4711949200369417,-0.27938303155119365,,,,,,,,,,,,,,,,,,,0.0303974243841132,0.029208494499784386,0.11284913709728464,0.49313230669129726,1.7282336567652916e+44,-0.16623626208557082,,,,,,,,
21,240709_100236,FalseCHOICE,9.0,22,2.0,500.0,,,,,,,,,,,23.0,22.0,,,B,,,,,,False,cue1.png,Hard,cue2.png,Easy,Right,Easy,Mid,0.0163970999419689,,,,,,,,,,,,,38,21,Male,0.7142857142857143,1.75,1.0,1.5,1.8333333333333333,1.75,2.4444444444444446,2.3333333333333335,1.875,2.111111111111111,1.25,1.25,1.5,1.25,0.6041666666666667,0.7708333333333334,0.4344571333068112,-0.8285104579724788,,,,,,,,,,,,,,,,,,,0.03051254161956185,0.037702841124987105,0.08385575654548344,-0.14418294030349957,6.737827554266685e+43,-0.16648168443061026,,,,,,,,
22,240709_100301,FalseCHOICE,9.0,23,2.0,500.0,,,,,,,,,,,24.0,23.0,,,B,,,,,,False,cue2.png,Easy,cue1.png,Hard,Right,Hard,Mid,0.0166564001701772,,,,,,,,,,,,,38,21,Male,0.7142857142857143,1.75,1.0,1.5,1.8333333333333333,1.75,2.4444444444444446,2.3333333333333335,1.875,2.111111111111111,1.25,1.25,1.5,1.25,0.75,0.7708333333333334,0.5214079266724487,0.4711613414449241,,,,,,,,,,,,,,,,,,,0.010440283175208037,-1.443402226352472,,,-2.8559994383348854e+43,-0.16670497975099335,,,,,,,,
23,240709_100326,FalseCHOICE,9.0,24,2.0,500.0,,,,,,,,,,,25.0,24.0,,,B,,,,,,False,cue1.png,Hard,cue2.png,Easy,Right,Easy,Mid,0.0169504000805318,,,,,,,,,,,,,38,21,Male,0.7142857142857143,1.75,1.0,1.5,1.8333333333333333,1.75,2.4444444444444446,2.3333333333333335,1.875,2.111111111111111,1.25,1.25,1.5,1.25,0.7704545454545455,0.7215909090909091,0.392591815513487,-1.4542801698234815,,,,,,,,,,,,,,,,,,,0.013858769588829582,-1.1911566923307664,0.05412676902109412,-0.7976678622552572,-1.1958766175007206e+44,-0.16691684569525161,,,,,,,,
24,240709_100352,FalseCHOICE,9.0,25,2.0,500.0,,,,,,,,,,,26.0,25.0,,,B,,,,,,False,cue1.png,Hard,cue2.png,Easy,Left,Hard,Mid,0.0161135997623205,,,,,,,,,,,,,38,21,Male,0.7142857142857143,1.75,1.0,1.5,1.8333333333333333,1.75,2.4444444444444446,2.3333333333333335,1.875,2.111111111111111,1.25,1.25,1.5,1.25,0.75,0.7083333333333334,0.5155834142517831,0.38410112904797666,,,,,,,,,,,,,,,,,,,0.01044391916653897,-1.44313393142191,0.024813904158351104,-1.4420058233545736,-1.583843818403131e+44,-0.16700714465570865,,,,,,,,
25,240709_100419,FalseCHOICE,9.0,26,2.0,500.0,,,,,,,,,,,27.0,26.0,,,B,,,,,,False,cue2.png,Easy,cue1.png,Hard,Right,Hard,Mid,0.0162708996795117,,,,,,,,,,,,,38,21,Male,0.7142857142857143,1.75,1.0,1.5,1.8333333333333333,1.75,2.4444444444444446,2.3333333333333335,1.875,2.111111111111111,1.25,1.25,1.5,1.25,0.0484848484848484,0.6647727272727273,0.5651889467611909,1.1255654584929458,,,,,,,,,,,,,,,,,,,0.022523539388873866,-0.551794933665229,,,-1.4728385509093258e+44,-0.1669813082957364,,,,,,,,
26,240709_100445,FalseCHOICE,9.0,27,2.0,500.0,,,,,,,,,,,28.0,27.0,,,B,,,,,,False,cue2.png,Easy,cue1.png,Hard,Right,Hard,Mid,0.0153699000366032,,,,,,,,,,,,,38,21,Male,0.7142857142857143,1.75,1.0,1.5,1.8333333333333333,1.75,2.4444444444444446,2.3333333333333335,1.875,2.111111111111111,1.25,1.25,1.5,1.25,0.7818181818181817,0.8181818181818181,0.4916348874976393,0.026137461838305884,,,,,,,,,,,,,,,,,,,0.04382195851281941,1.0197868881405787,0.15147584827394303,1.3422016978982283,-5.087349992716928e+43,-0.16675691420189726,,,,,,,,
27,240709_100510,FalseCHOICE,9.0,28,2.0,500.0,,,,,,,,,,,29.0,28.0,,,B,,,,,,False,cue1.png,Hard,cue2.png,Easy,Right,Easy,Mid,0.0159311001189053,,,,,,,,,,,,,38,21,Male,0.7142857142857143,1.75,1.0,1.5,1.8333333333333333,1.75,2.4444444444444446,2.3333333333333335,1.875,2.111111111111111,1.25,1.25,1.5,1.25,0.6041666666666667,0.7708333333333334,0.4433400466417272,-0.6957356837445805,,,,,,,,,,,,,,,,,,,0.04525934932407613,1.1258500309802282,0.22294466608365573,2.913186743724267,-2.6264302025615847e+43,-0.16669963655102826,,,,,,,,
28,240709_100539,FalseCHOICE,9.0,29,2.0,500.0,,,,,,,,,,,31.0,29.0,,,B,,,,,,False,cue2.png,Easy,cue1.png,Hard,Right,Hard,Mid,0.0017078998498618,,,,,,,,,,,,,38,21,Male,0.7142857142857143,1.75,1.0,1.5,1.8333333333333333,1.75,2.4444444444444446,2.3333333333333335,1.875,2.111111111111111,1.25,1.25,1.5,1.25,0.7818181818181817,0.8181818181818181,0.4629866562318057,-0.40207367733809923,,,,,,,,,,,,,,,,,,,0.02782690338438575,-0.16046680732578036,0.026267566403870176,-1.410052284463351,5.67782082738045e+43,-0.16650635597637303,,,,,,,,
29,240709_100606,FalseCHOICE,9.0,30,2.0,500.0,,,,,,,,,,,32.0,30.0,,,B,,,,,,False,cue2.png,Easy,cue1.png,Hard,Right,Hard,Mid,0.0165519001893699,,,,,,,,,,,,,38,21,Male,0.7142857142857143,1.75,1.0,1.5,1.8333333333333333,1.75,2.4444444444444446,2.3333333333333335,1.875,2.111111111111111,1.25,1.25,1.5,1.25,0.1590909090909091,0.5738636363636364,0.5671591866140564,1.155015048033661,,,,,,,,,,,,,,,,,,,0.05216806739064058,1.6356350841434921,0.12255029789149652,0.7063774533430659,1.1508662283416539e+44,-0.16637064375099803,,,,,,,,
30,240709_100632,FalseCHOICE,9.0,31,2.0,500.0,,,,,,,,,,,33.0,31.0,,,B,,,,,,False,cue1.png,Hard,cue2.png,Easy,Left,Hard,Mid,0.015988599974662,,,,,,,,,,,,,38,21,Male,0.7142857142857143,1.75,1.0,1.5,1.8333333333333333,1.75,2.4444444444444446,2.3333333333333335,1.875,2.111111111111111,1.25,1.25,1.5,1.25,0.6041666666666667,0.7708333333333334,0.5377272200460236,0.7150892524286149,,,,,,,,,,,,,,,,,,,0.015319400148947473,-1.0833787195480584,0.10423837916123047,0.30385574713233104,,,,,,,,,,
31,240709_100657,FalseCHOICE,9.0,32,2.0,500.0,,,,,,,,,,,34.0,32.0,,,B,,,,,,False,cue2.png,Easy,cue1.png,Hard,Right,Hard,Mid,0.0163782997988164,,,,,,,,,,,,,38,21,Male,0.7142857142857143,1.75,1.0,1.5,1.8333333333333333,1.75,2.4444444444444446,2.3333333333333335,1.875,2.111111111111111,1.25,1.25,1.5,1.25,0.5,0.75,0.4158647124422714,-1.1064152837390435,,,,,,,,,,,,,,,,,,,,,0.1283159968888776,0.8331156194582032,1.2626289365036607e+44,-0.16634463109750203,,,,,,,,
32,240709_100722,FalseCHOICE,9.0,33,2.0,500.0,,,,,,,,,,,35.0,33.0,,,B,,,,,,False,cue1.png,Hard,cue2.png,Easy,Right,Easy,Mid,0.0165257998742163,,,,,,,,,,,,,38,21,Male,0.7142857142857143,1.75,1.0,1.5,1.8333333333333333,1.75,2.4444444444444446,2.3333333333333335,1.875,2.111111111111111,1.25,1.25,1.5,1.25,0.6113636363636364,0.6647727272727273,0.4831388799784084,-0.10085414977298464,,,,,,,,,,,,,,,,,,,0.009013512156421466,-1.5486817489290254,,,7.577283352796009e+43,-0.16646214618465016,,,,,,,,
33,240709_100748,FalseCHOICE,9.0,34,2.0,500.0,,,,,,,,,,,36.0,34.0,,,B,,,,,,False,cue1.png,Hard,cue2.png,Easy,Left,Hard,Mid,0.0151887997053563,,,,,,,,,,,,,38,21,Male,0.7142857142857143,1.75,1.0,1.5,1.8333333333333333,1.75,2.4444444444444446,2.3333333333333335,1.875,2.111111111111111,1.25,1.25,1.5,1.25,0.5,0.6875,0.4816600800181428,-0.12295808385964331,,,,,,,,,,,,,,,,,,,0.02098487873949637,-0.6653306422273222,0.04244931095088032,-1.0543548001924528,1.7501144408971774e+43,-0.16659777293194425,,,,,,,,
34,240709_100812,FalseCHOICE,9.0,35,2.0,500.0,,,,,,,,,,,37.0,35.0,,,B,,,,,,False,cue1.png,Hard,cue2.png,Easy,Left,Hard,Mid,0.0154442000202834,,,,,,,,,,,,,38,21,Male,0.7142857142857143,1.75,1.0,1.5,1.8333333333333333,1.75,2.4444444444444446,2.3333333333333335,1.875,2.111111111111111,1.25,1.25,1.5,1.25,0.7818181818181817,0.8181818181818181,0.4063728562323376,-1.2482920552171421,,,,,,,,,,,,,,,,,,,0.025229443539010875,-0.3521298904919952,0.10686711633016562,0.3616390840947477,-5.489362197833478e+43,-0.1667662709939479,,,,,,,,
35,240709_100839,FalseCHOICE,9.0,36,2.0,500.0,,,,,,,,,,,38.0,36.0,,,B,,,,,,False,cue2.png,Easy,cue1.png,Hard,Right,Hard,Mid,0.0155218997970223,,,,,,,,,,,,,38,21,Male,0.7142857142857143,1.75,1.0,1.5,1.8333333333333333,1.75,2.4444444444444446,2.3333333333333335,1.875,2.111111111111111,1.25,1.25,1.5,1.25,0.6113636363636364,0.6022727272727273,0.5520280499144324,0.9288467647963206,,,,,,,,,,,,,,,,,,,,,0.12596727557870482,0.7814874245590158,-1.051184048678173e+44,-0.1668831686511094,,,,,,,,
36,240709_100902,FalseCHOICE,9.0,37,2.0,500.0,,,,,,,,,,,39.0,37.0,,,B,,,,,,False,cue1.png,Hard,cue2.png,Easy,Right,Easy,Mid,0.0150423999875783,,,,,,,,,,,,,38,21,Male,0.7142857142857143,1.75,1.0,1.5,1.8333333333333333,1.75,2.4444444444444446,2.3333333333333335,1.875,2.111111111111111,1.25,1.25,1.5,1.25,1.0,1.0,0.4479611813148949,-0.6266626116821986,,,,,,,,,,,,,,,,,,,0.033421029363207684,0.2523162563394406,0.08271118221192457,-0.16934229254918517,-1.2506725978599431e+44,-0.16692959940240046,,,,,,,,
37,240709_100927,FalseCHOICE,9.0,38,2.0,500.0,,,,,,,,,,,40.0,38.0,,,B,,,,,,False,cue2.png,Easy,cue1.png,Hard,Right,Hard,Mid,0.0168088995851576,,,,,,,,,,,,,38,21,Male,0.7142857142857143,1.75,1.0,1.5,1.8333333333333333,1.75,2.4444444444444446,2.3333333333333335,1.875,2.111111111111111,1.25,1.25,1.5,1.25,0.0715909090909091,0.6363636363636364,0.4962469937745482,0.09507558456259328,,,,,,,,,,,,,,,,,,,,,0.11503427537536143,0.5411647166726775,-1.0301137823594193e+44,-0.16687826456864904,,,,,,,,
38,240709_100952,FalseCHOICE,9.0,39,2.0,500.0,,,,,,,,,,,41.0,39.0,,,B,,,,,,False,cue2.png,Easy,cue1.png,Hard,Right,Hard,Mid,0.0147416000254452,,,,,,,,,,,,,38,21,Male,0.7142857142857143,1.75,1.0,1.5,1.8333333333333333,1.75,2.4444444444444446,2.3333333333333335,1.875,2.111111111111111,1.25,1.25,1.5,1.25,0.6909090909090909,0.7556818181818181,0.4562094866298139,-0.5033734570254282,,,,,,,,,,,,,,,,,,,0.06947014164646481,2.9123319705061235,,,-4.0248669418431655e+43,-0.16673218501995252,,,,,,,,
39,240709_101016,FalseCHOICE,9.0,40,2.0,500.0,,,,,,,,,,,42.0,40.0,,,B,,,,,,False,cue1.png,Hard,cue2.png,Easy,Left,Hard,Mid,0.0165153997950255,,,,,,,,,,,,,38,21,Male,0.7142857142857143,1.75,1.0,1.5,1.8333333333333333,1.75,2.4444444444444446,2.3333333333333335,1.875,2.111111111111111,1.25,1.25,1.5,1.25,0.9090909090909092,0.9090909090909092,0.4658526187122334,-0.35923553325887275,,,,,,,,,,,,,,,,,,,0.019396022015383166,-0.7825702519156708,0.1378920445665791,1.043610603995946,3.709178965893179e+43,-0.16655217590991148,,,,,,,,
40,240709_101043,FalseCHOICE,9.0,41,2.0,500.0,,,,,,,,,,,43.0,41.0,,,B,,,,,,False,cue1.png,Hard,cue2.png,Easy,Left,Hard,Mid,0.0160427996888756,,,,,,,,,,,,,38,21,Male,0.7142857142857143,1.75,1.0,1.5,1.8333333333333333,1.75,2.4444444444444446,2.3333333333333335,1.875,2.111111111111111,1.25,1.25,1.5,1.25,0.8125,0.7291666666666666,0.5261509615139892,0.5420564809669114,,,,,,,,,,,,,,,,,,,0.047103955406292225,1.2619610432733421,0.13461697407750473,0.9716199524077118,9.46091067223549e+43,-0.16641830495569104,,,,,,,,
41,240709_101110,FalseCHOICE,9.0,42,2.0,500.0,,,,,,,,,,,44.0,42.0,,,B,,,,,,False,cue2.png,Easy,cue1.png,Hard,Left,Easy,Mid,0.0160893001593649,,,,,,,,,,,,,38,21,Male,0.7142857142857143,1.75,1.0,1.5,1.8333333333333333,1.75,2.4444444444444446,2.3333333333333335,1.875,2.111111111111111,1.25,1.25,1.5,1.25,0.95,0.9375,0.6031169000392159,1.6924825546692137,,,,,,,,,,,,,,,,,,,,,,,,,,,,,,,,
42,240709_101138,FalseCHOICE,9.0,43,2.0,500.0,,,,,,,,,,,45.0,43.0,,,B,,,,,,False,cue1.png,Hard,cue2.png,Easy,Left,Hard,Mid,0.0154706998728215,,,,,,,,,,,,,38,21,Male,0.7142857142857143,1.75,1.0,1.5,1.8333333333333333,1.75,2.4444444444444446,2.3333333333333335,1.875,2.111111111111111,1.25,1.25,1.5,1.25,0.8409090909090908,0.7840909090909091,0.5755903356974679,1.2810372069611287,,,,,,,,,,,,,,,,,,,0.030167485704221984,0.012241627271560036,0.039823718829384736,-1.1120690045926223,1.024437938031951e+44,-0.16640006980340857,,,,,,,,
43,240709_101202,FalseCHOICE,9.0,44,2.0,500.0,,,,,,,,,,,46.0,44.0,,,B,,,,,,False,cue2.png,Easy,cue1.png,Hard,Right,Hard,Mid,0.0166516001336276,,,,,,,,,,,,,38,21,Male,0.7142857142857143,1.75,1.0,1.5,1.8333333333333333,1.75,2.4444444444444446,2.3333333333333335,1.875,2.111111111111111,1.25,1.25,1.5,1.25,0.1363636363636363,0.5454545454545454,0.4184380500519182,-1.0679510651599886,,,,,,,,,,,,,,,,,,,0.028975030982809447,-0.0757480095457327,0.020298219068211474,-1.5412669272272739,3.8856436085470774e+43,-0.16654806871380007,,,,,,,,
44,240709_101225,FalseCHOICE,9.0,45,2.0,500.0,,,,,,,,,,,47.0,45.0,,,B,,,,,,False,cue1.png,Hard,cue2.png,Easy,Left,Hard,Mid,0.0164721999317407,,,,,,,,,,,,,38,21,Male,0.7142857142857143,1.75,1.0,1.5,1.8333333333333333,1.75,2.4444444444444446,2.3333333333333335,1.875,2.111111111111111,1.25,1.25,1.5,1.25,0.8958333333333333,0.8541666666666666,0.3722553865673641,-1.7582530512552559,,,,,,,,,,,,,,,,,,,0.022797557207568993,-0.5315755258206357,0.011374123776087977,-1.7374310821847565,-6.029368338008921e+43,-0.16677883958041212,,,,,,,,
45,240709_101249,FalseCHOICE,9.0,46,2.0,500.0,,,,,,,,,,,48.0,46.0,,,B,,,,,,False,cue1.png,Hard,cue2.png,Easy,Right,Easy,Mid,0.0150868999771773,,,,,,,,,,,,,38,21,Male,0.7142857142857143,1.75,1.0,1.5,1.8333333333333333,1.75,2.4444444444444446,2.3333333333333335,1.875,2.111111111111111,1.25,1.25,1.5,1.25,0.6113636363636364,0.7272727272727273,0.3857805937877856,-1.5560889337671076,,,,,,,,,,,,,,,,,,,0.012610712227401039,-1.2832491734852394,0.06002628254017928,-0.6679882649124312,-1.2874209313710463e+44,-0.1669381525386111,,,,,,,,
46,240709_101314,FalseCHOICE,9.0,47,2.0,500.0,,,,,,,,,,,49.0,47.0,,,B,,,,,,False,cue2.png,Easy,cue1.png,Hard,Right,Hard,Mid,0.0163150001317262,,,,,,,,,,,,,38,21,Male,0.7142857142857143,1.75,1.0,1.5,1.8333333333333333,1.75,2.4444444444444446,2.3333333333333335,1.875,2.111111111111111,1.25,1.25,1.5,1.25,0.5,0.6875,0.4186900466059645,-1.064184419656628,,,,,,,,,,,,,,,,,,,0.012592962972736984,-1.2845588672150086,,,-1.065346967230246e+44,-0.16688646505559748,,,,,,,,
47,240709_101336,FalseCHOICE,9.0,48,2.0,500.0,,,,,,,,,,,50.0,48.0,,,B,,,,,,False,cue2.png,Easy,cue1.png,Hard,Right,Hard,Mid,0.0162953999824821,,,,,,,,,,,,,38,21,Male,0.7142857142857143,1.75,1.0,1.5,1.8333333333333333,1.75,2.4444444444444446,2.3333333333333335,1.875,2.111111111111111,1.25,1.25,1.5,1.25,0.5,0.75,0.349677337508183,-2.0957319000644374,,,,,,,,,,,,,,,,,,,,,0.09670584856327975,0.1382801396259277,4.1301489158798287e+43,-0.16654237787833073,,,,,,,,
48,240709_101403,FalseCHOICE,9.0,49,2.0,500.0,,,,,,,,,,,51.0,49.0,,,B,,,,,,False,cue1.png,Hard,cue2.png,Easy,Left,Hard,Mid,0.0144483000040054,,,,,,,,,,,,,38,21,Male,0.7142857142857143,1.75,1.0,1.5,1.8333333333333333,1.75,2.4444444444444446,2.3333333333333335,1.875,2.111111111111111,1.25,1.25,1.5,1.25,0.9090909090909092,0.9090909090909092,0.5773632499622181,1.3075373294268464,,,,,,,,,,,,,,,,,,,,,,,,,,,,,,,,
49,240709_101429,FalseCHOICE,9.0,50,2.0,500.0,,,,,,,,,,,52.0,50.0,,,B,,,,,,False,cue2.png,Easy,cue1.png,Hard,Right,Hard,Mid,0.0159864998422563,,,,,,,,,,,,,38,21,Male,0.7142857142857143,1.75,1.0,1.5,1.8333333333333333,1.75,2.4444444444444446,2.3333333333333335,1.875,2.111111111111111,1.25,1.25,1.5,1.25,0.0715909090909091,0.5113636363636364,0.4649483643006533,-0.3727516141678467,,,,,,,,,,,,,,,,,,,0.02796973370809801,-0.149927549034236,0.12781663940145926,0.8221390401709374,-2.5941750312834896e+43,-0.16669888581528847,,,,,,,,
0,240709_092218,OFFLINERATING,9.0,1,1.0,,,,,,,,,,,,,,,,,T0,cue2.png,Easy,41.0,0.7599341003224254,,,,,,,,,,,,,,,,,,,,,,38,21,Male,0.7142857142857143,1.75,1.0,1.5,1.8333333333333333,1.75,2.4444444444444446,2.3333333333333335,1.875,2.111111111111111,1.25,1.25,1.5,1.25,,,,,,,,,,,,,,,,,,,,,,,,,,,,,0.06776344550642936,,,0.006990727786314741,-1.015659380114491,,,
1,240709_092225,OFFLINERATING,9.0,2,3.0,,,,,,,,,,,,,,,,,T0,cue1.png,Hard,25.0,1.051727400161326,,,,,,,,,,,,,,,,,,,,,,38,21,Male,0.7142857142857143,1.75,1.0,1.5,1.8333333333333333,1.75,2.4444444444444446,2.3333333333333335,1.875,2.111111111111111,1.25,1.25,1.5,1.25,,,,,,,,,,,,,,,,,,,,,,,,,,,,,-0.5517880562666391,,,0.00835690826080738,-0.9836325324292211,4609498.049966868,-0.7058849183395693,
2,240709_094626,OFFLINERATING,9.0,3,1.0,,,,,,,,,,,,,,,,,T1,cue2.png,Easy,82.0,1.071872000116855,,,,,,,,,,,,,,,,,,,,,,38,21,Male,0.7142857142857143,1.75,1.0,1.5,1.8333333333333333,1.75,2.4444444444444446,2.3333333333333335,1.875,2.111111111111111,1.25,1.25,1.5,1.25,,,,,,,,,,,,,,,,,,,,,,,,,,,,,1.6553641687999172,0.01723499022997818,0.7141002471944662,0.09441085475295763,1.0336973068396247,,,
3,240709_094633,OFFLINERATING,9.0,4,3.0,,,,,,,,,,,,,,,,,T1,cue1.png,Hard,8.0,0.8528283000923693,,,,,,,,,,,,,,,,,,,,,,38,21,Male,0.7142857142857143,1.75,1.0,1.5,1.8333333333333333,1.75,2.4444444444444446,2.3333333333333335,1.875,2.111111111111111,1.25,1.25,1.5,1.25,,,,,,,,,,,,,,,,,,,,,,,,,,,,,-1.2100615269005242,0.017196935033160984,0.7000901829456606,0.09150577394494634,0.9655946057040875,,,
4,240709_095133,OFFLINERATING,9.0,5,1.0,,,,,,,,,,,,,,,,,T2,cue2.png,Easy,70.0,0.9852795996703207,,,,,,,,,,,,,,,,,,,,,,38,21,Male,0.7142857142857143,1.75,1.0,1.5,1.8333333333333333,1.75,2.4444444444444446,2.3333333333333335,1.875,2.111111111111111,1.25,1.25,1.5,1.25,,,,,,,,,,,,,,,,,,,,,,,,,,,,,1.1907005424701158,0.01145396601968038,-1.4141904301401256,,,3962967916.09759,1.4142128589951801,
5,240709_095140,OFFLINERATING,9.0,6,3.0,,,,,,,,,,,,,,,,,T2,cue1.png,Hard,13.0,0.7517164000310004,,,,,,,,,,,,,,,,,,,,,,38,21,Male,0.7142857142857143,1.75,1.0,1.5,1.8333333333333333,1.75,2.4444444444444446,2.3333333333333335,1.875,2.111111111111111,1.25,1.25,1.5,1.25,,,,,,,,,,,,,,,,,,,,,,,,,,,,,-1.0164516825964405,,,,,48218.82333676966,-0.7083279406556109,
6,240709_101448,OFFLINERATING,9.0,7,1.0,,,,,,,,,,,,,,,,,T3,cue2.png,Easy,56.0,1.5213187001645565,,,,,,,,,,,,,,,,,,,,,,38,21,Male,0.7142857142857143,1.75,1.0,1.5,1.8333333333333333,1.75,2.4444444444444446,2.3333333333333335,1.875,2.111111111111111,1.25,1.25,1.5,1.25,,,,,,,,,,,,,,,,,,,,,,,,,,,,,0.648592978418681,,,,,,,
7,240709_101456,OFFLINERATING,9.0,8,3.0,,,,,,,,,,,,,,,,,T3,cue1.png,Hard,19.0,1.75222560018301,,,,,,,,,,,,,,,,,,,,,,38,21,Male,0.7142857142857143,1.75,1.0,1.5,1.8333333333333333,1.75,2.4444444444444446,2.3333333333333335,1.875,2.111111111111111,1.25,1.25,1.5,1.25,,,,,,,,,,,,,,,,,,,,,,,,,,,,,-0.7841198694315398,,,,,,,
0,240709_095155,LEARNINGCHECK,9.0,1,,,,,,,,,,,,1.0,1.0,1.0,,,B,,,,,,,,,,,,,,,cue2.png,Easy,Left,Left,Easy,0.015190599951893,1.0,,,,,,38,21,Male,0.7142857142857143,1.75,1.0,1.5,1.8333333333333333,1.75,2.4444444444444446,2.3333333333333335,1.875,2.111111111111111,1.25,1.25,1.5,1.25,,,,,,,,,,,,,,,,,,,,,,,,,,,,,,,,,,,,
1,240709_095200,LEARNINGCHECK,9.0,2,,,,,,,,,,,,2.0,2.0,2.0,,,B,,,,,,,,,,,,,,,cue1.png,Hard,Right,Right,Hard,0.0161039000377059,1.0,,,,,,38,21,Male,0.7142857142857143,1.75,1.0,1.5,1.8333333333333333,1.75,2.4444444444444446,2.3333333333333335,1.875,2.111111111111111,1.25,1.25,1.5,1.25,,,,,,,,,,,,,,,,,,,,,,,,,,,,,,,,,,,,
2,240709_101510,LEARNINGCHECK,9.0,1,,,,,,,,,,,,1.0,1.0,1.0,,,B,,,,,,,,,,,,,,,cue2.png,Easy,Middle,Middle,Mid,0.0139444000087678,1.0,,,,,,38,21,Male,0.7142857142857143,1.75,1.0,1.5,1.8333333333333333,1.75,2.4444444444444446,2.3333333333333335,1.875,2.111111111111111,1.25,1.25,1.5,1.25,,,,,,,,,,,,,,,,,,,,,,,,,,,,,,,,,,,,
3,240709_101515,LEARNINGCHECK,9.0,2,,,,,,,,,,,,2.0,2.0,2.0,,,B,,,,,,,,,,,,,,,cue1.png,Hard,Middle,Middle,Mid,0.0147228999994695,1.0,,,,,,38,21,Male,0.7142857142857143,1.75,1.0,1.5,1.8333333333333333,1.75,2.4444444444444446,2.3333333333333335,1.875,2.111111111111111,1.25,1.25,1.5,1.25,,,,,,,,,,,,,,,,,,,,,,,,,,,,,,,,,,,,
0,240709_101526,DEMANDRATING,9.0,-1,,,,,,,,,,,,,,,,,,,,,,,,,,,,,,,,,,,,,,,1.0,MentalDemand,1.0,96.0,2.2797046001069248,38,21,Male,0.7142857142857143,1.75,1.0,1.5,1.8333333333333333,1.75,2.4444444444444446,2.3333333333333335,1.875,2.111111111111111,1.25,1.25,1.5,1.25,,,,,,,,,,,,,,,,,,,,,,,,,,,,,,,,,,,,0.7567689938157028
1,240709_101532,DEMANDRATING,9.0,-1,,,,,,,,,,,,,,,,,,,,,,,,,,,,,,,,,,,,,,,2.0,Effort,1.0,85.0,4.918768200092018,38,21,Male,0.7142857142857143,1.75,1.0,1.5,1.8333333333333333,1.75,2.4444444444444446,2.3333333333333335,1.875,2.111111111111111,1.25,1.25,1.5,1.25,,,,,,,,,,,,,,,,,,,,,,,,,,,,,,,,,,,,0.3054429071424824
2,240709_101539,DEMANDRATING,9.0,-1,,,,,,,,,,,,,,,,,,,,,,,,,,,,,,,,,,,,,,,3.0,Frustration,1.0,20.0,4.7486467002891,38,21,Male,0.7142857142857143,1.75,1.0,1.5,1.8333333333333333,1.75,2.4444444444444446,2.3333333333333335,1.875,2.111111111111111,1.25,1.25,1.5,1.25,,,,,,,,,,,,,,,,,,,,,,,,,,,,,,,,,,,,-2.36148396865382
3,240709_101544,DEMANDRATING,9.0,-1,,,,,,,,,,,,,,,,,,,,,,,,,,,,,,,,,,,,,,,4.0,MentalDemand,2.0,65.0,3.79632670013234,38,21,Male,0.7142857142857143,1.75,1.0,1.5,1.8333333333333333,1.75,2.4444444444444446,2.3333333333333335,1.875,2.111111111111111,1.25,1.25,1.5,1.25,,,,,,,,,,,,,,,,,,,,,,,,,,,,,,,,,,,,-0.5151499777179183
4,240709_101548,DEMANDRATING,9.0,-1,,,,,,,,,,,,,,,,,,,,,,,,,,,,,,,,,,,,,,,5.0,Effort,2.0,86.0,2.294639099854976,38,21,Male,0.7142857142857143,1.75,1.0,1.5,1.8333333333333333,1.75,2.4444444444444446,2.3333333333333335,1.875,2.111111111111111,1.25,1.25,1.5,1.25,,,,,,,,,,,,,,,,,,,,,,,,,,,,,,,,,,,,0.3464725513855024
5,240709_101552,DEMANDRATING,9.0,-1,,,,,,,,,,,,,,,,,,,,,,,,,,,,,,,,,,,,,,,6.0,Frustration,2.0,58.0,2.5173200997523963,38,21,Male,0.7142857142857143,1.75,1.0,1.5,1.8333333333333333,1.75,2.4444444444444446,2.3333333333333335,1.875,2.111111111111111,1.25,1.25,1.5,1.25,,,,,,,,,,,,,,,,,,,,,,,,,,,,,,,,,,,,-0.8023574874190585
6,240709_101557,DEMANDRATING,9.0,-1,,,,,,,,,,,,,,,,,,,,,,,,,,,,,,,,,,,,,,,7.0,MentalDemand,3.0,98.0,3.0616927999071777,38,21,Male,0.7142857142857143,1.75,1.0,1.5,1.8333333333333333,1.75,2.4444444444444446,2.3333333333333335,1.875,2.111111111111111,1.25,1.25,1.5,1.25,,,,,,,,,,,,,,,,,,,,,,,,,,,,,,,,,,,,0.8388282823017429
7,240709_101559,DEMANDRATING,9.0,-1,,,,,,,,,,,,,,,,,,,,,,,,,,,,,,,,,,,,,,,8.0,Effort,3.0,95.0,1.2606081999838352,38,21,Male,0.7142857142857143,1.75,1.0,1.5,1.8333333333333333,1.75,2.4444444444444446,2.3333333333333335,1.875,2.111111111111111,1.25,1.25,1.5,1.25,,,,,,,,,,,,,,,,,,,,,,,,,,,,,,,,,,,,0.7157393495726827
8,240709_101602,DEMANDRATING,9.0,-1,,,,,,,,,,,,,,,,,,,,,,,,,,,,,,,,,,,,,,,9.0,Frustration,3.0,95.0,1.3703398001380265,38,21,Male,0.7142857142857143,1.75,1.0,1.5,1.8333333333333333,1.75,2.4444444444444446,2.3333333333333335,1.875,2.111111111111111,1.25,1.25,1.5,1.25,,,,,,,,,,,,,,,,,,,,,,,,,,,,,,,,,,,,0.7157393495726827
