,END,Phase,Block,TrialN,NbackLevel,ISI,Letter_Resp,Letter_RT,Letter_Accuracy,Trial_A_measure,Trial_ACC,Trial_RT,TrialCountCali,CaliEnd_A_measure,ISI_calibrated,TrialIndex,TrialNumber_total,TrialNumber_valid,CueLearning,TrialDemandLearning,CueMapping,OfflineRatingTimePoint,CueFigure,TrialDemand,OfflineRating,OfflineRatingRT,PhaseType,CueLeft,CueDemandLeft,CueRight,CueDemandRight,Choice,ChoiceDemand,TaskDemand,ChoiceRT,CueCheck,CueDemandCheck,CorrectAnswer,Answer,AnswerDemand,AnswerRT,AnswerACC,DemandRatingQuesIndex,QuesTLX,DemandLevel,DemandRating,DemandRatingRT,PID,Age,Gender,BAI_bis,BAI_bas_d,BAI_bas_rr,BAI_bas_fs,NFC,BFI_ext,BFI_agr,BFI_con,BFI_neu,BFI_open,UPPS_lps,UPPS_lpm,UPPS_pu,UPPS_ss,Task_A_measure,Task_ACC,Task_RT,Task_RT_z,cue_i_on_zyg_values,cue_i_on_zyg_zvalues,cue_e_on_zyg_values,cue_e_on_zyg_zvalues,cue_i_on_cor_values,cue_i_on_cor_zvalues,cue_e_on_cor_values,cue_e_on_cor_zvalues,cue_i_on_scr_values,cue_i_on_scr_zvalues,cue_e_on_scr_values,cue_e_on_scr_zvalues,cue_e_true_zyg_values,cue_e_true_zyg_zvalues,cue_e_true_cor_values,cue_e_true_cor_zvalues,cue_e_true_scr_values,cue_e_true_scr_zvalues,cue_e_false_zyg_values,cue_e_false_zyg_zvalues,cue_e_false_cor_values,cue_e_false_cor_zvalues,cue_e_false_scr_values,cue_e_false_scr_zvalues,OfflineRating_z,cue_i_off_zyg_values,cue_i_off_zyg_zvalues,cue_i_off_cor_values,cue_i_off_cor_zvalues,cue_i_off_scr_values,cue_i_off_scr_zvalues,DemandRating_z
0,240709_140944,PRACTICE,0.0,1,1.0,1750.0,,,,,,,,,,3.0,1.0,1.0,cue1.png,Easy,A,,,,,,,,,,,,,,,,,,,,,,,,,,,39,28,Female,1.0,0.5,1.2,1.25,3.2222222222222223,3.25,2.888888888888889,2.4444444444444446,2.125,3.7777777777777777,1.5,2.25,2.5,1.0,,,,,,,,,,,,,,,,,,,,,,,,,,,,,,,,,,,,
0,240709_141145,LEARNING,1.0,1,1.0,1750.0,,,,,,,,,,1.0,1.0,1.0,cue1.png,Easy,A,,,,,,,,,,,,,,,,,,,,,,,,,,,39,28,Female,1.0,0.5,1.2,1.25,3.2222222222222223,3.25,2.888888888888889,2.4444444444444446,2.125,3.7777777777777777,1.5,2.25,2.5,1.0,1.0,1.0,0.6557352499803528,1.657959455002033,0.02602614305721528,-0.29418186852310146,0.03345520450241601,0.026418737152144985,0.008337853241315047,-0.5708864878598643,0.009446320946802516,-0.585412070672026,,,,,,,,,,,,,,,,,,,,,,,,
1,240709_141203,LEARNING,1.0,2,3.0,1750.0,,,,,,,,,,2.0,2.0,2.0,cue2.png,Hard,A,,,,,,,,,,,,,,,,,,,,,,,,,,,39,28,Female,1.0,0.5,1.2,1.25,3.2222222222222223,3.25,2.888888888888889,2.4444444444444446,2.125,3.7777777777777777,1.5,2.25,2.5,1.0,0.1666666666666666,0.6666666666666667,0.3932854374288581,-0.6787609074585087,0.03081760661452642,0.1813757332290906,0.02486025318400096,-0.4823549276068013,0.01156317040024758,-0.34837165517565133,0.008293007767356505,-0.6774418186961322,3.1704187527829998e+44,-0.17364360503715193,1.8859830607776598e+45,-0.16856847224177846,,,,,,,,,,,,,,,,,,,,
2,240709_141223,LEARNING,1.0,3,1.0,1750.0,,,,,,,,,,3.0,3.0,3.0,cue1.png,Easy,A,,,,,,,,,,,,,,,,,,,,,,,,,,,39,28,Female,1.0,0.5,1.2,1.25,3.2222222222222223,3.25,2.888888888888889,2.4444444444444446,2.125,3.7777777777777777,1.5,2.25,2.5,1.0,0.75,0.8333333333333334,0.4750920250662602,0.04960356442780059,0.022457622328734682,-0.6483611582413261,0.02632155628499644,-0.3958538519783494,0.00873057973956909,-0.5437922621625138,0.009563111551973093,-0.576092650624651,-1.691045063189847e+44,-0.1743135038188119,-1.103765170739007e+45,-0.169306626328388,,,,,,,,,,,,,,,,,,,,
3,240709_141242,LEARNING,1.0,4,3.0,1750.0,,,,,,,,,,4.0,4.0,4.0,cue2.png,Hard,A,,,,,,,,,,,,,,,,,,,,,,,,,,,39,28,Female,1.0,0.5,1.2,1.25,3.2222222222222223,3.25,2.888888888888889,2.4444444444444446,2.125,3.7777777777777777,1.5,2.25,2.5,1.0,1.0,1.0,0.4738482750835828,0.038529843772115276,,,0.028832186973062703,-0.24723837660189357,,,0.007981356830247963,-0.7023103086472767,-2.33011706400932e+44,-0.17440156650341634,-1.3373514717257294e+45,-0.16936429763356067,,,,,,,,,,,,,,,,,,,,
4,240709_141300,LEARNING,1.0,5,3.0,1750.0,,,,,,,,,,5.0,5.0,5.0,cue2.png,Hard,A,,,,,,,,,,,,,,,,,,,,,,,,,,,39,28,Female,1.0,0.5,1.2,1.25,3.2222222222222223,3.25,2.888888888888889,2.4444444444444446,2.125,3.7777777777777777,1.5,2.25,2.5,1.0,0.1666666666666666,0.6666666666666667,0.3587429499602876,-0.9863097414741915,0.030235977629398524,0.12364846848658166,0.032002186778360364,-0.05959188990557935,0.009176201802970445,-0.5130487681146404,0.0067210703867137825,-0.8028760924288856,4.295166677743235e+48,5.744562613072885,2.464655919824903e+49,5.916079745016017,,,,,,,,,,,,,,,,,,,,
5,240709_141318,LEARNING,1.0,6,1.0,1750.0,,,,,,,,,,6.0,6.0,6.0,cue1.png,Easy,A,,,,,,,,,,,,,,,,,,,,,,,,,,,39,28,Female,1.0,0.5,1.2,1.25,3.2222222222222223,3.25,2.888888888888889,2.4444444444444446,2.125,3.7777777777777777,1.5,2.25,2.5,1.0,0.1666666666666666,0.6666666666666667,0.2952114749932661,-1.5519618551843628,0.03941247577681829,1.0344251861371963,0.02907540932831771,-0.2328409560174089,0.0089103122379941,-0.5313925058457759,0.008300365090576897,-0.6768547339266423,-3.4744407478225084e+43,-0.1741283586240222,-2.091332236761242e+44,-0.16908574611487218,,,,,,,,,,,,,,,,,,,,
6,240709_141339,LEARNING,1.0,7,3.0,1750.0,,,,,,,,,,7.0,7.0,7.0,cue2.png,Hard,A,,,,,,,,,,,,,,,,,,,,,,,,,,,39,28,Female,1.0,0.5,1.2,1.25,3.2222222222222223,3.25,2.888888888888889,2.4444444444444446,2.125,3.7777777777777777,1.5,2.25,2.5,1.0,0.1666666666666666,0.5416666666666667,0.371776885685644,-0.8702621714022322,0.024236191403720082,-0.47183637959408503,0.031075192781813803,-0.11446481650634421,0.0100189655454438,-0.45490644476841635,0.009497997712604105,-0.5812884728321874,,,,,,,,,,,,,,,,,,,,,,,,
7,240709_141357,LEARNING,1.0,8,3.0,1750.0,,,,,,,,,,8.0,8.0,8.0,cue2.png,Hard,A,,,,,,,,,,,,,,,,,,,,,,,,,,,39,28,Female,1.0,0.5,1.2,1.25,3.2222222222222223,3.25,2.888888888888889,2.4444444444444446,2.125,3.7777777777777777,1.5,2.25,2.5,1.0,0.1666666666666666,0.6666666666666667,0.3003471749834716,-1.5062361805270534,0.04277861412762985,1.3685178202834845,0.03338736758830214,0.022403166368666037,0.00880698059683608,-0.5385213622373353,0.011294137031248822,-0.43796378717268325,,,3.3542498952302778e+44,-0.1689512973789444,,,,,,,,,,,,,,,,,,,,
8,240709_141416,LEARNING,1.0,9,1.0,1750.0,,,,,,,,,,9.0,9.0,9.0,cue1.png,Easy,A,,,,,,,,,,,,,,,,,,,,,,,,,,,39,28,Female,1.0,0.5,1.2,1.25,3.2222222222222223,3.25,2.888888888888889,2.4444444444444446,2.125,3.7777777777777777,1.5,2.25,2.5,1.0,0.1666666666666666,0.6666666666666667,0.4726914125494659,0.028229725003662134,0.02702752374562278,-0.19479382290322186,0.030882176920072016,-0.12589028986819728,0.010634085064293804,-0.4124693106594091,0.009913513288682405,-0.5481320028914334,,,,,,,,,,,,,,,,,,,,,,,,
9,240709_141436,LEARNING,1.0,10,1.0,1750.0,,,,,,,,,,10.0,10.0,10.0,cue1.png,Easy,A,,,,,,,,,,,,,,,,,,,,,,,,,,,39,28,Female,1.0,0.5,1.2,1.25,3.2222222222222223,3.25,2.888888888888889,2.4444444444444446,2.125,3.7777777777777777,1.5,2.25,2.5,1.0,0.1666666666666666,0.5416666666666667,0.3226707285669233,-1.3074785524921861,0.030719960311805627,0.17168423897343402,0.0234720515704557,-0.5645287987763178,0.008318392228426693,-0.5722291043571983,0.00962834973637688,-0.570886906184,9.698061573323926e+43,-0.1739468445041936,5.869879818140873e+44,-0.16888918771738765,,,,,,,,,,,,,,,,,,,,
10,240709_141453,LEARNING,1.0,11,3.0,1750.0,,,,,,,,,,11.0,11.0,11.0,cue2.png,Hard,A,,,,,,,,,,,,,,,,,,,,,,,,,,,39,28,Female,1.0,0.5,1.2,1.25,3.2222222222222223,3.25,2.888888888888889,2.4444444444444446,2.125,3.7777777777777777,1.5,2.25,2.5,1.0,0.1666666666666666,0.6666666666666667,0.2387803249293938,-2.0543962678797203,0.025564093092347587,-0.3400407946223896,,,0.006822204363275066,-0.6754511988282271,0.021543405205024742,0.37988654548125195,7.510059320824804e+43,-0.17397699468320763,4.6391547412828265e+44,-0.16891957371228178,,,,,,,,,,,,,,,,,,,,
11,240709_141512,LEARNING,1.0,12,1.0,1750.0,,,,,,,,,,12.0,12.0,12.0,cue1.png,Easy,A,,,,,,,,,,,,,,,,,,,,,,,,,,,39,28,Female,1.0,0.5,1.2,1.25,3.2222222222222223,3.25,2.888888888888889,2.4444444444444446,2.125,3.7777777777777777,1.5,2.25,2.5,1.0,0.75,0.8333333333333334,0.3802331749466248,-0.7949716497025332,0.02494400853302419,-0.40158481397853024,0.0244246733558534,-0.5081388485682725,0.009005387702678759,-0.5248332435859111,0.008325760283797317,-0.6748282997587597,,,7.597578682160041e+43,-0.16901535410694002,,,,,,,,,,,,,,,,,,,,
12,240709_141533,LEARNING,1.0,13,1.0,1750.0,,,,,,,,,,13.0,13.0,13.0,cue1.png,Easy,A,,,,,,,,,,,,,,,,,,,,,,,,,,,39,28,Female,1.0,0.5,1.2,1.25,3.2222222222222223,3.25,2.888888888888889,2.4444444444444446,2.125,3.7777777777777777,1.5,2.25,2.5,1.0,0.75,0.8333333333333334,0.6661540625500493,1.7507232914383524,0.027405936495239615,-0.15723597496641678,0.06582503046331109,1.9425337181001492,0.010858927710833858,-0.39695740240053445,,,,,,,,,,,,,,,,,,,,,,,,,,
13,240709_141552,LEARNING,1.0,14,1.0,1750.0,,,,,,,,,,14.0,14.0,14.0,cue1.png,Easy,A,,,,,,,,,,,,,,,,,,,,,,,,,,,39,28,Female,1.0,0.5,1.2,1.25,3.2222222222222223,3.25,2.888888888888889,2.4444444444444446,2.125,3.7777777777777777,1.5,2.25,2.5,1.0,1.0,1.0,0.485435287526343,0.14169474090752102,0.04729977494647995,1.817247601994462,0.11126481213986608,4.632317917330551,0.07686384962996269,4.15672629239319,0.05851140275511279,3.329783902177188,,,,,,,,,,,,,,,,,,,,,,,,
14,240709_141610,LEARNING,1.0,15,3.0,1750.0,,,,,,,,,,15.0,15.0,15.0,cue2.png,Hard,A,,,,,,,,,,,,,,,,,,,,,,,,,,,39,28,Female,1.0,0.5,1.2,1.25,3.2222222222222223,3.25,2.888888888888889,2.4444444444444446,2.125,3.7777777777777777,1.5,2.25,2.5,1.0,0.1666666666666666,0.6666666666666667,0.3247659250628203,-1.2888239828138104,0.025734370691529656,-0.3231405707699958,,,0.04569789458060616,2.006585102698073,0.024989444847033165,0.6548666337929556,,,,,,,,,,,,,,,,,,,,,,,,
15,240709_141630,LEARNING,1.0,16,1.0,1750.0,,,,,,,,,,16.0,16.0,16.0,cue1.png,Easy,A,,,,,,,,,,,,,,,,,,,,,,,,,,,39,28,Female,1.0,0.5,1.2,1.25,3.2222222222222223,3.25,2.888888888888889,2.4444444444444446,2.125,3.7777777777777777,1.5,2.25,2.5,1.0,0.75,0.8333333333333334,0.5265729749808088,0.5079638992081268,,,,,,,0.010849808400174629,-0.47341942288933747,,,,,,,,,,,,,,,,,,,,,,,,
16,240709_141650,LEARNING,1.0,17,1.0,1750.0,,,,,,,,,,17.0,17.0,17.0,cue1.png,Easy,A,,,,,,,,,,,,,,,,,,,,,,,,,,,39,28,Female,1.0,0.5,1.2,1.25,3.2222222222222223,3.25,2.888888888888889,2.4444444444444446,2.125,3.7777777777777777,1.5,2.25,2.5,1.0,1.0,1.0,0.4987621124018915,0.26035004780559584,,,,,0.008334516305174056,-0.5711167032931075,0.0057372252466390775,-0.8813829732566139,,,,,,,,,,,,,,,,,,,,,,,,
17,240709_141710,LEARNING,1.0,18,3.0,1750.0,,,,,,,,,,18.0,18.0,18.0,cue2.png,Hard,A,,,,,,,,,,,,,,,,,,,,,,,,,,,39,28,Female,1.0,0.5,1.2,1.25,3.2222222222222223,3.25,2.888888888888889,2.4444444444444446,2.125,3.7777777777777777,1.5,2.25,2.5,1.0,0.75,0.8333333333333334,0.5723415250540711,0.9154639155988904,,,,,0.03987841348444219,1.6050987376019843,0.011610318880413091,-0.4127337486827383,,,,,,,,,,,,,,,,,,,,,,,,
18,240709_141732,LEARNING,1.0,19,3.0,1750.0,,,,,,,,,,19.0,19.0,19.0,cue2.png,Hard,A,,,,,,,,,,,,,,,,,,,,,,,,,,,39,28,Female,1.0,0.5,1.2,1.25,3.2222222222222223,3.25,2.888888888888889,2.4444444444444446,2.125,3.7777777777777777,1.5,2.25,2.5,1.0,0.75,0.7083333333333334,0.5691310999515865,0.88687991458095,,,,,0.010442407626399499,-0.42569314909782985,0.014323274966111951,-0.19625077647976708,,,,,,,,,,,,,,,,,,,,,,,,
19,240709_141750,LEARNING,1.0,20,3.0,1750.0,,,,,,,,,,20.0,20.0,20.0,cue2.png,Hard,A,,,,,,,,,,,,,,,,,,,,,,,,,,,39,28,Female,1.0,0.5,1.2,1.25,3.2222222222222223,3.25,2.888888888888889,2.4444444444444446,2.125,3.7777777777777777,1.5,2.25,2.5,1.0,0.75,0.8333333333333334,0.4141585624893196,-0.4929171612474274,0.023198883655681523,-0.5747902222010008,0.021136957955658967,-0.702753448566938,0.011439562904825748,-0.3568993440220426,0.008504096976807643,-0.6605977497107006,2.7063221325540707e+43,-0.17404318910142513,1.5983778663788714e+44,-0.16899464899296987,,,,,,,,,,,,,,,,,,,,
20,240709_141808,LEARNING,1.0,21,1.0,1750.0,,,,,,,,,,21.0,21.0,21.0,cue1.png,Easy,A,,,,,,,,,,,,,,,,,,,,,,,,,,,39,28,Female,1.0,0.5,1.2,1.25,3.2222222222222223,3.25,2.888888888888889,2.4444444444444446,2.125,3.7777777777777777,1.5,2.25,2.5,1.0,0.1666666666666666,0.6666666666666667,0.2431811499991454,-2.0152135477545245,,,,,,,0.025544916473756302,0.6991910330566715,1.357438848505513e+43,-0.17406177640975018,8.004346370239341e+43,-0.16901434981758853,,,,,,,,,,,,,,,,,,,,
21,240709_141827,LEARNING,1.0,22,3.0,1750.0,,,,,,,,,,22.0,22.0,22.0,cue2.png,Hard,A,,,,,,,,,,,,,,,,,,,,,,,,,,,39,28,Female,1.0,0.5,1.2,1.25,3.2222222222222223,3.25,2.888888888888889,2.4444444444444446,2.125,3.7777777777777777,1.5,2.25,2.5,1.0,1.0,1.0,0.50656995002646,0.3298670841743491,0.033765944443545144,0.47400124323301884,0.027184910660631053,-0.34474803957704137,0.0495160658993953,2.2700009809806336,0.018199662934583936,0.11306937553090639,-3.273280840741842e+42,-0.1740849921192204,-2.13320527931753e+43,-0.16903937893241316,,,,,,,,,,,,,,,,,,,,
22,240709_141847,LEARNING,1.0,23,3.0,1750.0,,,,,,,,,,23.0,23.0,23.0,cue2.png,Hard,A,,,,,,,,,,,,,,,,,,,,,,,,,,,39,28,Female,1.0,0.5,1.2,1.25,3.2222222222222223,3.25,2.888888888888889,2.4444444444444446,2.125,3.7777777777777777,1.5,2.25,2.5,1.0,0.75,0.8333333333333334,0.5116011249483563,0.3746621205007295,0.023546087089313047,-0.540329930425226,0.02442671784870021,-0.5080178258795206,,,0.011784632544290255,-0.39882422016119673,-1.7814738208732223e+43,-0.17410502992047353,-1.0325518434625213e+44,-0.1690596053493757,,,,,,,,,,,,,,,,,,,,
23,240709_141908,LEARNING,1.0,24,3.0,1750.0,,,,,,,,,,24.0,24.0,24.0,cue2.png,Hard,A,,,,,,,,,,,,,,,,,,,,,,,,,,,39,28,Female,1.0,0.5,1.2,1.25,3.2222222222222223,3.25,2.888888888888889,2.4444444444444446,2.125,3.7777777777777777,1.5,2.25,2.5,1.0,0.75,0.8333333333333334,0.6259753999765962,1.3929928055253638,0.020323655664641282,-0.8601595068788516,0.02100663930317798,-0.7104675932959655,0.008975159678498422,-0.5269186768662425,0.008905738086907991,-0.6285484062908914,-2.501762472267654e+43,-0.17411495533611537,-1.4952742853959377e+44,-0.16907102973815463,,,,,,,,,,,,,,,,,,,,
24,240709_141927,LEARNING,1.0,25,1.0,1750.0,,,,,,,,,,25.0,25.0,25.0,cue1.png,Easy,A,,,,,,,,,,,,,,,,,,,,,,,,,,,39,28,Female,1.0,0.5,1.2,1.25,3.2222222222222223,3.25,2.888888888888889,2.4444444444444446,2.125,3.7777777777777777,1.5,2.25,2.5,1.0,0.75,0.8333333333333334,0.4793179623666219,0.08722917232683149,,,0.025533178602566296,-0.4425214580932046,0.009658790486620704,-0.47975494462186113,0.011751067383001797,-0.4015025848853812,-2.537448754367867e+43,-0.1741154470850578,-1.5411223397265786e+44,-0.1690721617039941,,,,,,,,,,,,,,,,,,,,
25,240709_141947,LEARNING,1.0,26,1.0,1750.0,,,,,,,,,,26.0,26.0,26.0,cue1.png,Easy,A,,,,,,,,,,,,,,,,,,,,,,,,,,,39,28,Female,1.0,0.5,1.2,1.25,3.2222222222222223,3.25,2.888888888888889,2.4444444444444446,2.125,3.7777777777777777,1.5,2.25,2.5,1.0,1.0,1.0,0.5724534374894574,0.9164603273091425,0.02415227178506055,-0.4801654865803607,0.03428962183190822,0.07581163618515696,0.013225621781743335,-0.23367903030473863,0.018448296057351522,0.13290929763232437,-1.9643383972021557e+43,-0.17410754975321382,-1.0794677250816646e+44,-0.16906076367934408,,,,,,,,,,,,,,,,,,,,
26,240709_142007,LEARNING,1.0,27,3.0,1750.0,,,,,,,,,,27.0,27.0,27.0,cue2.png,Hard,A,,,,,,,,,,,,,,,,,,,,,,,,,,,39,28,Female,1.0,0.5,1.2,1.25,3.2222222222222223,3.25,2.888888888888889,2.4444444444444446,2.125,3.7777777777777777,1.5,2.25,2.5,1.0,0.75,0.8333333333333334,0.5153098001028411,0.4076822879262093,0.033366949225858845,0.4344005645335088,0.040997142797684134,0.472859844694915,0.009716697024395803,-0.47575996895608424,,,5.217280865067885e+43,-0.1740085886547411,2.9724007593135486e+44,-0.16896072504570156,,,,,,,,,,,,,,,,,,,,
27,240709_142026,LEARNING,1.0,28,1.0,1750.0,,,,,,,,,,28.0,28.0,28.0,cue1.png,Easy,A,,,,,,,,,,,,,,,,,,,,,,,,,,,39,28,Female,1.0,0.5,1.2,1.25,3.2222222222222223,3.25,2.888888888888889,2.4444444444444446,2.125,3.7777777777777777,1.5,2.25,2.5,1.0,1.0,1.0,0.4918754624668509,0.1990348006126127,,,0.021648949151575118,-0.6724463965057507,0.036981271200699314,1.4052247100992865,0.00969590311031706,-0.5654964189402147,4.1645051597600243e+42,-0.17407474301736836,2.477984964404506e+43,-0.1690279941312227,,,,,,,,,,,,,,,,,,,,
28,240709_142047,LEARNING,1.0,29,1.0,1750.0,,,,,,,,,,29.0,29.0,29.0,cue1.png,Easy,A,,,,,,,,,,,,,,,,,,,,,,,,,,,39,28,Female,1.0,0.5,1.2,1.25,3.2222222222222223,3.25,2.888888888888889,2.4444444444444446,2.125,3.7777777777777777,1.5,2.25,2.5,1.0,1.0,1.0,0.5893150749616325,1.0665878173713745,0.018551911274202148,-1.0360069286858042,0.034810987634137966,0.10667361318229131,0.012665037700829718,-0.2723537611368565,,,1.4676710966126089e+43,-0.17406025743415968,9.25543048508316e+43,-0.16901126095263885,,,,,,,,,,,,,,,,,,,,
29,240709_142106,LEARNING,1.0,30,3.0,1750.0,,,,,,,,,,30.0,30.0,30.0,cue2.png,Hard,A,,,,,,,,,,,,,,,,,,,,,,,,,,,39,28,Female,1.0,0.5,1.2,1.25,3.2222222222222223,3.25,2.888888888888889,2.4444444444444446,2.125,3.7777777777777777,1.5,2.25,2.5,1.0,1.0,1.0,0.5003255499759689,0.27427010505107685,,,,,,,,,2.106990999869841e+43,-0.17405144774965936,1.286263320281029e+44,-0.1690023549471122,,,,,,,,,,,,,,,,,,,,
30,240709_142124,LEARNING,1.0,31,3.0,1750.0,,,,,,,,,,31.0,31.0,31.0,cue2.png,Hard,A,,,,,,,,,,,,,,,,,,,,,,,,,,,39,28,Female,1.0,0.5,1.2,1.25,3.2222222222222223,3.25,2.888888888888889,2.4444444444444446,2.125,3.7777777777777777,1.5,2.25,2.5,1.0,0.1666666666666666,0.6666666666666667,0.3308544000610709,-1.234615281476092,0.05164242853777421,2.2482603609176195,,,,,,,,,,,,,,,,,,,,,,,,,,,,,,
31,240709_142147,LEARNING,1.0,32,1.0,1750.0,,,,,,,,,,32.0,32.0,32.0,cue1.png,Easy,A,,,,,,,,,,,,,,,,,,,,,,,,,,,39,28,Female,1.0,0.5,1.2,1.25,3.2222222222222223,3.25,2.888888888888889,2.4444444444444446,2.125,3.7777777777777777,1.5,2.25,2.5,1.0,0.875,0.75,0.4504338334469746,-0.16994049962800137,0.025467474494267592,-0.3496302881535407,0.01955994845864803,-0.7961037040168866,0.008320726272159849,-0.5720680785339479,,,1.6960446126201724e+43,-0.1740571104984644,1.0299315017592954e+44,-0.16900868365323451,,,,,,,,,,,,,,,,,,,,
32,240709_142210,LEARNING,1.0,33,1.0,1750.0,,,,,,,,,,33.0,33.0,33.0,cue1.png,Easy,A,,,,,,,,,,,,,,,,,,,,,,,,,,,39,28,Female,1.0,0.5,1.2,1.25,3.2222222222222223,3.25,2.888888888888889,2.4444444444444446,2.125,3.7777777777777777,1.5,2.25,2.5,1.0,0.875,0.75,0.4119628500193357,-0.5124666743099038,0.057383075998422337,2.818025424605728,0.0237819307675793,-0.5461856611700182,0.02273629321872447,0.42246278745522103,0.022332241458850717,0.4428325023693503,8.29625089090821e+42,-0.17406904956466318,4.967575517718909e+43,-0.16902184745498572,,,,,,,,,,,,,,,,,,,,
33,240709_142229,LEARNING,1.0,34,1.0,1750.0,,,,,,,,,,34.0,34.0,34.0,cue1.png,Easy,A,,,,,,,,,,,,,,,,,,,,,,,,,,,39,28,Female,1.0,0.5,1.2,1.25,3.2222222222222223,3.25,2.888888888888889,2.4444444444444446,2.125,3.7777777777777777,1.5,2.25,2.5,1.0,1.0,1.0,0.5335754374973476,0.5703102830393303,0.02350341291781892,-0.5445653850853253,0.022046762973765923,-0.6488980145883179,0.014544794348911212,-0.14266923232192136,0.015999330351148807,-0.06250830521668847,-3.5295663031480405e+42,-0.17408534527482442,-1.9601193835983132e+43,-0.16903895159187687,,,,,,,,,,,,,,,,,,,,
34,240709_142248,LEARNING,1.0,35,3.0,1750.0,,,,,,,,,,35.0,35.0,35.0,cue2.png,Hard,A,,,,,,,,,,,,,,,,,,,,,,,,,,,39,28,Female,1.0,0.5,1.2,1.25,3.2222222222222223,3.25,2.888888888888889,2.4444444444444446,2.125,3.7777777777777777,1.5,2.25,2.5,1.0,1.0,1.0,0.3597440374433063,-0.9773965649570043,0.023297529989772,-0.5649994738209716,0.022329437316027743,-0.6321652541900435,,,0.020631786108649356,0.3071430121300687,-1.2494741717873535e+43,-0.17409769908494216,-8.406870506877165e+43,-0.16905486830231034,,,,,,,,,,,,,,,,,,,,
35,240709_142307,LEARNING,1.0,36,3.0,1750.0,,,,,,,,,,36.0,36.0,36.0,cue2.png,Hard,A,,,,,,,,,,,,,,,,,,,,,,,,,,,39,28,Female,1.0,0.5,1.2,1.25,3.2222222222222223,3.25,2.888888888888889,2.4444444444444446,2.125,3.7777777777777777,1.5,2.25,2.5,1.0,1.0,1.0,0.4653317126212641,-0.03729732002120033,0.022996181351991662,-0.5949086307539171,0.034480519188005945,0.08711170570929037,0.017595365188963638,0.06778984088446767,0.016425790014470337,-0.028478541179154757,-1.8803375098567066e+43,-0.17410639223987584,-1.145081405715785e+44,-0.1690623836487444,,,,,,,,,,,,,,,,,,,,
36,240709_142331,LEARNING,1.0,37,1.0,1750.0,,,,,,,,,,37.0,37.0,37.0,cue1.png,Easy,A,,,,,,,,,,,,,,,,,,,,,,,,,,,39,28,Female,1.0,0.5,1.2,1.25,3.2222222222222223,3.25,2.888888888888889,2.4444444444444446,2.125,3.7777777777777777,1.5,2.25,2.5,1.0,0.2083333333333333,0.5833333333333334,0.639373033385103,1.512278555780174,,,0.016754739483460446,-0.962156587604837,0.018096450922421632,0.10235977700130958,0.01420821184822716,-0.2054323499972845,-1.952930010248985e+43,-0.17410739254820706,-1.1782734390545746e+44,-0.1690632031436702,,,,,,,,,,,,,,,,,,,,
37,240709_142351,LEARNING,1.0,38,3.0,1750.0,,,,,,,,,,38.0,38.0,38.0,cue2.png,Hard,A,,,,,,,,,,,,,,,,,,,,,,,,,,,39,28,Female,1.0,0.5,1.2,1.25,3.2222222222222223,3.25,2.888888888888889,2.4444444444444446,2.125,3.7777777777777777,1.5,2.25,2.5,1.0,1.0,1.0,0.5496493998798542,0.7134247125733892,0.02118606419933371,-0.7745645880021012,0.04207354270721875,0.5365767764647056,0.015433263759980692,-0.08137367203829407,0.016497207698615755,-0.02277969754023517,-1.3622886464008142e+43,-0.17409925364303327,-8.023316211584791e+43,-0.16905392132568026,,,,,,,,,,,,,,,,,,,,
38,240709_142409,LEARNING,1.0,39,3.0,1750.0,,,,,,,,,,39.0,39.0,39.0,cue2.png,Hard,A,,,,,,,,,,,,,,,,,,,,,,,,,,,39,28,Female,1.0,0.5,1.2,1.25,3.2222222222222223,3.25,2.888888888888889,2.4444444444444446,2.125,3.7777777777777777,1.5,2.25,2.5,1.0,0.1666666666666666,0.6666666666666667,0.2901783000561408,-1.5967746986345714,0.023737479757430142,-0.5213340146358141,,,0.016391610819559675,-0.01525724840998898,,,-3.062634070952235e+42,-0.17408470185270852,-2.5767804772993624e+43,-0.16904047409769046,,,,,,,,,,,,,,,,,,,,
39,240709_142428,LEARNING,1.0,40,3.0,1750.0,,,,,,,,,,40.0,40.0,40.0,cue2.png,Hard,A,,,,,,,,,,,,,,,,,,,,,,,,,,,39,28,Female,1.0,0.5,1.2,1.25,3.2222222222222223,3.25,2.888888888888889,2.4444444444444446,2.125,3.7777777777777777,1.5,2.25,2.5,1.0,0.75,0.8333333333333334,0.5475213750614785,0.6944778561189033,,,0.0335446400376818,0.03171282706041078,0.010533884665386843,-0.419382142452067,0.057526733759000394,3.2512112809548226,8.751375647480368e+42,-0.1740684224129832,5.252218352422343e+43,-0.16902114468587143,,,,,,,,,,,,,,,,,,,,
40,240709_142448,LEARNING,1.0,41,1.0,1750.0,,,,,,,,,,41.0,41.0,41.0,cue1.png,Easy,A,,,,,,,,,,,,,,,,,,,,,,,,,,,39,28,Female,1.0,0.5,1.2,1.25,3.2222222222222223,3.25,2.888888888888889,2.4444444444444446,2.125,3.7777777777777777,1.5,2.25,2.5,1.0,0.75,0.8333333333333334,0.4889026500168256,0.17256638244833103,0.053814745995861196,2.463865064627814,0.04831659945465454,0.9061312675862099,,,,,1.8485577659438303e+43,-0.1740550089015079,,,,,,,,,,,,,,,,,,,,,,
41,240709_142508,LEARNING,1.0,42,3.0,1750.0,,,,,,,,,,42.0,42.0,42.0,cue2.png,Hard,A,,,,,,,,,,,,,,,,,,,,,,,,,,,39,28,Female,1.0,0.5,1.2,1.25,3.2222222222222223,3.25,2.888888888888889,2.4444444444444446,2.125,3.7777777777777777,1.5,2.25,2.5,1.0,1.0,1.0,0.569905474956613,0.8937745578837373,0.019755723500557168,-0.9165273482866528,0.025569718510061037,-0.44035849730874715,0.01405567099336523,-0.17641388323782584,,,,,,,,,,,,,,,,,,,,,,,,,,
42,240709_142529,LEARNING,1.0,43,3.0,1750.0,,,,,,,,,,43.0,43.0,43.0,cue2.png,Hard,A,,,,,,,,,,,,,,,,,,,,,,,,,,,39,28,Female,1.0,0.5,1.2,1.25,3.2222222222222223,3.25,2.888888888888889,2.4444444444444446,2.125,3.7777777777777777,1.5,2.25,2.5,1.0,0.1666666666666666,0.6666666666666667,0.6812013624585234,1.8846968376731514,0.04322271119338281,1.4125949029970548,0.018115877771533277,-0.8815847158848893,,,0.036610534144350906,1.5821827686103092,1.5828011862519125e+43,-0.17405867096741423,8.975990714186794e+43,-0.16901195087564533,,,,,,,,,,,,,,,,,,,,
43,240709_142549,LEARNING,1.0,44,1.0,1750.0,,,,,,,,,,44.0,44.0,44.0,cue1.png,Easy,A,,,,,,,,,,,,,,,,,,,,,,,,,,,39,28,Female,1.0,0.5,1.2,1.25,3.2222222222222223,3.25,2.888888888888889,2.4444444444444446,2.125,3.7777777777777777,1.5,2.25,2.5,1.0,1.0,1.0,0.4983241750160232,0.25645087486623486,0.01899646522818613,-0.9918844993534363,0.035499120228956085,0.14740726357023307,,,0.010043079905211314,-0.5377931085789457,2.111915182480134e+42,-0.17407757144019959,1.3562831032105268e+43,-0.16903076355777194,,,,,,,,,,,,,,,,,,,,
44,240709_142608,LEARNING,1.0,45,1.0,1750.0,,,,,,,,,,45.0,45.0,45.0,cue1.png,Easy,A,,,,,,,,,,,,,,,,,,,,,,,,,,,39,28,Female,1.0,0.5,1.2,1.25,3.2222222222222223,3.25,2.888888888888889,2.4444444444444446,2.125,3.7777777777777777,1.5,2.25,2.5,1.0,1.0,1.0,0.5066934124333784,0.3309663309882062,0.025686942575903295,-0.3278478591909799,0.0642690391004714,1.8504276201506378,,,0.042928499214445234,2.0863309425739303,-1.0742238063844114e+43,-0.1740952841743162,-7.497804312326773e+43,-0.16905262386273034,,,,,,,,,,,,,,,,,,,,
45,240709_142628,LEARNING,1.0,46,1.0,1750.0,,,,,,,,,,46.0,46.0,46.0,cue1.png,Easy,A,,,,,,,,,,,,,,,,,,,,,,,,,,,39,28,Female,1.0,0.5,1.2,1.25,3.2222222222222223,3.25,2.888888888888889,2.4444444444444446,2.125,3.7777777777777777,1.5,2.25,2.5,1.0,1.0,1.0,0.502927124965936,0.29743321267315337,0.023166427434018463,-0.5780115350110442,0.023633092786005942,-0.5549960479348807,,,0.008331383424671653,-0.6743795957579802,-2.1801347641910052e+43,-0.17411052337862387,-1.3180869860940912e+44,-0.16906665507116106,,,,,,,,,,,,,,,,,,,,
46,240709_142647,LEARNING,1.0,47,3.0,1750.0,,,,,,,,,,47.0,47.0,47.0,cue2.png,Hard,A,,,,,,,,,,,,,,,,,,,,,,,,,,,39,28,Female,1.0,0.5,1.2,1.25,3.2222222222222223,3.25,2.888888888888889,2.4444444444444446,2.125,3.7777777777777777,1.5,2.25,2.5,1.0,0.1666666666666666,0.6666666666666667,0.4950133124948479,0.22697262988170172,0.022301949995168237,-0.6638117947169107,0.05386550343291337,1.2345957472355071,0.009023306776257237,-0.5235970055780834,0.008519173775951423,-0.6593946818441923,,,-9.872125180304622e+43,-0.1690584859438017,,,,,,,,,,,,,,,,,,,,
47,240709_142705,LEARNING,1.0,48,3.0,1750.0,,,,,,,,,,48.0,48.0,48.0,cue2.png,Hard,A,,,,,,,,,,,,,,,,,,,,,,,,,,,39,28,Female,1.0,0.5,1.2,1.25,3.2222222222222223,3.25,2.888888888888889,2.4444444444444446,2.125,3.7777777777777777,1.5,2.25,2.5,1.0,0.1666666666666666,0.6666666666666667,0.2454587875399738,-1.994934615305624,0.01592208837481927,-1.2970195099367285,0.034386380455779963,0.08153921250764115,0.00915835273898411,-0.5142801761563238,0.009617054570825682,-0.571788214916175,8.956596111470875e+42,-0.17406813962379872,4.835839824124634e+43,-0.16902217270391323,,,,,,,,,,,,,,,,,,,,
48,240709_142725,LEARNING,1.0,49,1.0,1750.0,,,,,,,,,,49.0,49.0,49.0,cue1.png,Easy,A,,,,,,,,,,,,,,,,,,,,,,,,,,,39,28,Female,1.0,0.5,1.2,1.25,3.2222222222222223,3.25,2.888888888888889,2.4444444444444446,2.125,3.7777777777777777,1.5,2.25,2.5,1.0,0.75,0.8333333333333334,0.5371303625870496,0.6019615376672934,,,,,,,0.03227206808995602,1.2359906458523904,,,,,,,,,,,,,,,,,,,,,,,,
49,240709_142744,LEARNING,1.0,50,1.0,1750.0,,,,,,,,,,50.0,50.0,50.0,cue1.png,Easy,A,,,,,,,,,,,,,,,,,,,,,,,,,,,39,28,Female,1.0,0.5,1.2,1.25,3.2222222222222223,3.25,2.888888888888889,2.4444444444444446,2.125,3.7777777777777777,1.5,2.25,2.5,1.0,1.0,1.0,0.5401962875039317,0.6292589821325959,0.027979449548146525,-0.10031422470123427,0.023207056348630635,-0.5802150528523223,0.014204133203153953,-0.1661714660914762,,,-1.9710797029209905e+42,-0.17408319771533562,-9.183828096490625e+43,-0.16905678657226314,,,,,,,,,,,,,,,,,,,,
0,240709_142851,TrueCHOICE,9.0,1,1.0,1750.0,,,,,,,,,,,1.0,1.0,,,A,,,,,,True,cue1.png,Easy,cue2.png,Hard,Left,Easy,Easy,0.0168240000493824,,,,,,,,,,,,,39,28,Female,1.0,0.5,1.2,1.25,3.2222222222222223,3.25,2.888888888888889,2.4444444444444446,2.125,3.7777777777777777,1.5,2.25,2.5,1.0,1.0,1.0,0.5557303625391796,0.7787571244808622,,,,,,,,,,,,,,,,,389951602.22300553,0.3026352250477566,,,,,,,,,,,,,,
1,240709_142910,TrueCHOICE,9.0,2,1.0,1750.0,,,,,,,,,,,2.0,2.0,,,A,,,,,,True,cue1.png,Easy,cue2.png,Hard,Left,Easy,Easy,0.0172530999407172,,,,,,,,,,,,,39,28,Female,1.0,0.5,1.2,1.25,3.2222222222222223,3.25,2.888888888888889,2.4444444444444446,2.125,3.7777777777777777,1.5,2.25,2.5,1.0,0.75,0.8333333333333334,0.5551025124150328,0.7702154658779621,,,,,,,,,,,,,,,0.010285694114140116,-0.584769525419566,102977027.9888526,-0.4416648284764191,,,,,,,,,,,,,,
2,240709_142930,TrueCHOICE,9.0,3,3.0,1750.0,,,,,,,,,,,3.0,3.0,,,A,,,,,,True,cue2.png,Hard,cue1.png,Easy,Left,Hard,Hard,0.0172317000105977,,,,,,,,,,,,,39,28,Female,1.0,0.5,1.2,1.25,3.2222222222222223,3.25,2.888888888888889,2.4444444444444446,2.125,3.7777777777777777,1.5,2.25,2.5,1.0,0.75,0.7083333333333334,0.3921807713673583,-1.4462719369245252,,,,,,,,,,,,,0.027660341279315662,-0.683777477915676,,,52350873.9422325,-0.5729693151794021,,,,,,,,,,,,,,
3,240709_142947,TrueCHOICE,9.0,4,1.0,1750.0,,,,,,,,,,,4.0,4.0,,,A,,,,,,True,cue1.png,Easy,cue2.png,Hard,Left,Easy,Easy,0.016786599997431,,,,,,,,,,,,,39,28,Female,1.0,0.5,1.2,1.25,3.2222222222222223,3.25,2.888888888888889,2.4444444444444446,2.125,3.7777777777777777,1.5,2.25,2.5,1.0,1.0,1.0,0.4414356250199489,-0.7761786642538095,,,,,,,,,,,,,0.07107084230552217,1.8062186583299853,,,2391261.6961052977,-0.7025450525703355,,,,,,,,,,,,,,
4,240709_143005,TrueCHOICE,9.0,5,1.0,1750.0,,,,,,,,,,,5.0,5.0,,,A,,,,,,True,cue2.png,Hard,cue1.png,Easy,Right,Easy,Easy,0.015529700089246,,,,,,,,,,,,,39,28,Female,1.0,0.5,1.2,1.25,3.2222222222222223,3.25,2.888888888888889,2.4444444444444446,2.125,3.7777777777777777,1.5,2.25,2.5,1.0,1.0,1.0,0.5231534623890184,0.3355609718933591,,,,,,,,,,,,,0.025449932894571023,-0.8105649649851412,0.011757179055290268,-0.4145092188463578,,,,,,,,,,,,,,,,
5,240709_143022,TrueCHOICE,9.0,6,1.0,1750.0,,,,,,,,,,,6.0,6.0,,,A,,,,,,True,cue2.png,Hard,cue1.png,Easy,Right,Easy,Easy,0.0160168996080756,,,,,,,,,,,,,39,28,Female,1.0,0.5,1.2,1.25,3.2222222222222223,3.25,2.888888888888889,2.4444444444444446,2.125,3.7777777777777777,1.5,2.25,2.5,1.0,1.0,1.0,0.4583616000018082,-0.5459073076737005,,,,,,,,,,,,,0.024499723161301938,-0.8650683341822555,0.010146355092995784,-0.6008919496416592,8175795.396517309,-0.687542229570009,,,,,,,,,,,,,,
6,240709_143039,TrueCHOICE,9.0,7,1.0,1750.0,,,,,,,,,,,7.0,7.0,,,A,,,,,,True,cue1.png,Easy,cue2.png,Hard,Left,Easy,Easy,0.0167702999897301,,,,,,,,,,,,,39,28,Female,1.0,0.5,1.2,1.25,3.2222222222222223,3.25,2.888888888888889,2.4444444444444446,2.125,3.7777777777777777,1.5,2.25,2.5,1.0,0.75,0.8333333333333334,0.4696075874380767,-0.3929099893030968,,,,,,,,,,,,,,,0.010593611890824781,-0.5491414509543974,,,,,,,,,,,,,,,,
7,240709_143058,TrueCHOICE,9.0,8,1.0,1750.0,,,,,,,,,,,8.0,8.0,,,A,,,,,,True,cue2.png,Hard,cue1.png,Easy,Right,Easy,Easy,0.01708609983325,,,,,,,,,,,,,39,28,Female,1.0,0.5,1.2,1.25,3.2222222222222223,3.25,2.888888888888889,2.4444444444444446,2.125,3.7777777777777777,1.5,2.25,2.5,1.0,1.0,1.0,0.6018131374148652,1.4056954897433045,,,,,,,,,,,,,,,0.032348183361495496,1.9680029005671775,1083753349.4643857,2.1020862007484094,,,,,,,,,,,,,,
8,240709_143116,TrueCHOICE,9.0,9,1.0,1750.0,,,,,,,,,,,9.0,9.0,,,A,,,,,,True,cue1.png,Easy,cue2.png,Hard,Left,Easy,Easy,0.0169215998612344,,,,,,,,,,,,,39,28,Female,1.0,0.5,1.2,1.25,3.2222222222222223,3.25,2.888888888888889,2.4444444444444446,2.125,3.7777777777777777,1.5,2.25,2.5,1.0,1.0,1.0,0.5917725623585284,1.2690973415394304,,,,,,,,,,,,,0.03400389109254653,-0.31991587411867767,0.007624046611291277,-0.8927393232420601,,,,,,,,,,,,,,,,
9,240709_143133,TrueCHOICE,9.0,10,1.0,1750.0,,,,,,,,,,,10.0,10.0,,,A,,,,,,True,cue2.png,Hard,cue1.png,Easy,Right,Easy,Easy,0.0172617998905479,,,,,,,,,,,,,39,28,Female,1.0,0.5,1.2,1.25,3.2222222222222223,3.25,2.888888888888889,2.4444444444444446,2.125,3.7777777777777777,1.5,2.25,2.5,1.0,1.0,1.0,0.3957246750360355,-1.3980584953797903,,,,,,,,,,,,,0.05480302529536679,0.8731079928717643,0.024622129264650416,1.0740485675368643,,,,,,,,,,,,,,,,
0,240709_143253,FalseCHOICE,9.0,1,2.0,1750.0,,,,,,,,,,,1.0,1.0,,,A,,,,,,False,cue1.png,Easy,cue2.png,Hard,Left,Easy,Mid,0.0162717001512646,,,,,,,,,,,,,39,28,Female,1.0,0.5,1.2,1.25,3.2222222222222223,3.25,2.888888888888889,2.4444444444444446,2.125,3.7777777777777777,1.5,2.25,2.5,1.0,0.75,0.7083333333333334,0.365495042808886,0.11136610764142307,,,,,,,,,,,,,,,,,,,0.0524264869398334,0.9505842556235,0.04858230096447809,2.7702747028368853,,,,,,,,,,
1,240709_143310,FalseCHOICE,9.0,2,2.0,1750.0,,,,,,,,,,,2.0,2.0,,,A,,,,,,False,cue2.png,Hard,cue1.png,Easy,Left,Hard,Mid,0.0158224999904632,,,,,,,,,,,,,39,28,Female,1.0,0.5,1.2,1.25,3.2222222222222223,3.25,2.888888888888889,2.4444444444444446,2.125,3.7777777777777777,1.5,2.25,2.5,1.0,0.75,0.8333333333333334,0.4766566749894991,0.9089489886555221,,,,,,,,,,,,,,,,,,,0.041032537860036425,0.3683892851454246,,,,,,,,,,,,
2,240709_143325,FalseCHOICE,9.0,3,2.0,1750.0,,,,,,,,,,,3.0,3.0,,,A,,,,,,False,cue2.png,Hard,cue1.png,Easy,Right,Easy,Mid,0.0153431999497115,,,,,,,,,,,,,39,28,Female,1.0,0.5,1.2,1.25,3.2222222222222223,3.25,2.888888888888889,2.4444444444444446,2.125,3.7777777777777777,1.5,2.25,2.5,1.0,0.75,0.8333333333333334,0.241766462509986,-0.7763844192511794,,,,,,,,,,,,,,,,,,,0.1196335861253109,4.384655695839499,,,-1.2023262610217329e+45,-0.17423999702045273,,,,,,,,
3,240709_143341,FalseCHOICE,9.0,4,2.0,1750.0,,,,,,,,,,,4.0,4.0,,,A,,,,,,False,cue2.png,Hard,cue1.png,Easy,Left,Hard,Mid,0.0157305002212524,,,,,,,,,,,,,39,28,Female,1.0,0.5,1.2,1.25,3.2222222222222223,3.25,2.888888888888889,2.4444444444444446,2.125,3.7777777777777777,1.5,2.25,2.5,1.0,0.1666666666666666,0.6666666666666667,0.2464640373364091,-0.7426793972004934,,,,,,,,,,,,,,,,,,,0.042542277154974495,0.44553221584401625,,,-1.4953723398858536e+45,-0.1742815335640834,,,,,,,,
4,240709_143354,FalseCHOICE,9.0,5,2.0,1750.0,,,,,,,,,,,5.0,5.0,,,A,,,,,,False,cue1.png,Easy,cue2.png,Hard,Right,Hard,Mid,0.016568100079894,,,,,,,,,,,,,39,28,Female,1.0,0.5,1.2,1.25,3.2222222222222223,3.25,2.888888888888889,2.4444444444444446,2.125,3.7777777777777777,1.5,2.25,2.5,1.0,0.1666666666666666,0.6666666666666667,0.0815512875560671,-1.92592566217124,,,,,,,,,,,,,,,,,,,0.04189194538799283,0.4123023074753552,0.03140818733863568,1.333006083577079,4.17567715529495e+49,5.74456263867826,,,,,,,,
5,240709_143411,FalseCHOICE,9.0,6,2.0,1750.0,,,,,,,,,,,6.0,6.0,,,A,,,,,,False,cue2.png,Hard,cue1.png,Easy,Left,Hard,Mid,0.0161536000669002,,,,,,,,,,,,,39,28,Female,1.0,0.5,1.2,1.25,3.2222222222222223,3.25,2.888888888888889,2.4444444444444446,2.125,3.7777777777777777,1.5,2.25,2.5,1.0,0.75,0.8333333333333334,0.3807247499353252,0.22063900557054125,,,,,,,,,,,,,,,,,,,0.016442181063534633,-0.8881006244478697,0.01000049948381651,-0.4585622404115565,-2.0561453811299393e+44,-0.1740987224464121,,,,,,,,
6,240709_143428,FalseCHOICE,9.0,7,2.0,1750.0,,,,,,,,,,,7.0,7.0,,,A,,,,,,False,cue2.png,Hard,cue1.png,Easy,Right,Easy,Mid,0.0170614002272486,,,,,,,,,,,,,39,28,Female,1.0,0.5,1.2,1.25,3.2222222222222223,3.25,2.888888888888889,2.4444444444444446,2.125,3.7777777777777777,1.5,2.25,2.5,1.0,0.1666666666666666,0.6666666666666667,0.3870878500165418,0.2662941439074079,,,,,,,,,,,,,,,,,,,0.018670437725534957,-0.7742437156214904,0.00654535204731905,-0.747716900359847,,,,,,,,,,
7,240709_143445,FalseCHOICE,9.0,8,2.0,1750.0,,,,,,,,,,,8.0,8.0,,,A,,,,,,False,cue1.png,Easy,cue2.png,Hard,Right,Hard,Mid,0.0165468999184668,,,,,,,,,,,,,39,28,Female,1.0,0.5,1.2,1.25,3.2222222222222223,3.25,2.888888888888889,2.4444444444444446,2.125,3.7777777777777777,1.5,2.25,2.5,1.0,1.0,1.0,0.4260439500212669,0.5458035201673657,,,,,,,,,,,,,,,,,,,0.026650159351945583,-0.36650503220496106,0.009626585023252573,-0.48985442422751424,,,,,,,,,,
8,240709_143500,FalseCHOICE,9.0,9,2.0,1750.0,,,,,,,,,,,9.0,9.0,,,A,,,,,,False,cue1.png,Easy,cue2.png,Hard,Left,Easy,Mid,0.0162422000430524,,,,,,,,,,,,,39,28,Female,1.0,0.5,1.2,1.25,3.2222222222222223,3.25,2.888888888888889,2.4444444444444446,2.125,3.7777777777777777,1.5,2.25,2.5,1.0,0.1666666666666666,0.6666666666666667,0.2910558500443585,-0.42273387506691157,,,,,,,,,,,,,,,,,,,0.02435023320209976,-0.4840240265004053,0.008509083058550694,-0.5833760196250414,,,,,,,,,,
9,240709_143516,FalseCHOICE,9.0,10,2.0,1750.0,,,,,,,,,,,10.0,10.0,,,A,,,,,,False,cue2.png,Hard,cue1.png,Easy,Right,Easy,Mid,0.0170524003915488,,,,,,,,,,,,,39,28,Female,1.0,0.5,1.2,1.25,3.2222222222222223,3.25,2.888888888888889,2.4444444444444446,2.125,3.7777777777777777,1.5,2.25,2.5,1.0,0.1666666666666666,0.6666666666666667,0.3094628750695847,-0.29066377351726064,,,,,,,,,,,,,,,,,,,0.019920256678208126,-0.7103818971107603,0.010176624058921458,-0.4438227126319159,6.292801737535445e+44,-0.1739803839217648,,,,,,,,
10,240709_143533,FalseCHOICE,9.0,11,2.0,1750.0,,,,,,,,,,,11.0,11.0,,,A,,,,,,False,cue1.png,Easy,cue2.png,Hard,Left,Easy,Mid,0.0171240996569395,,,,,,,,,,,,,39,28,Female,1.0,0.5,1.2,1.25,3.2222222222222223,3.25,2.888888888888889,2.4444444444444446,2.125,3.7777777777777777,1.5,2.25,2.5,1.0,0.1666666666666666,0.6666666666666667,0.2709087125840597,-0.5672892546934326,,,,,,,,,,,,,,,,,,,0.049354445874355474,0.7936126170022024,0.04173061795880524,2.1968704976643316,,,,,,,,,,
11,240709_143550,FalseCHOICE,9.0,12,2.0,1750.0,,,,,,,,,,,12.0,12.0,,,A,,,,,,False,cue2.png,Hard,cue1.png,Easy,Left,Hard,Mid,0.0174825000576674,,,,,,,,,,,,,39,28,Female,1.0,0.5,1.2,1.25,3.2222222222222223,3.25,2.888888888888889,2.4444444444444446,2.125,3.7777777777777777,1.5,2.25,2.5,1.0,1.0,1.0,0.46844628744293,0.8500395931637839,,,,,,,,,,,,,,,,,,,0.05103572784836148,0.8795208391968543,0.008796176048556455,-0.5593497581052705,2.923778035341419e+43,-0.17406543432458993,,,,,,,,
12,240709_143606,FalseCHOICE,9.0,13,2.0,1750.0,,,,,,,,,,,13.0,13.0,,,A,,,,,,False,cue1.png,Easy,cue2.png,Hard,Right,Hard,Mid,0.016570399980992,,,,,,,,,,,,,39,28,Female,1.0,0.5,1.2,1.25,3.2222222222222223,3.25,2.888888888888889,2.4444444444444446,2.125,3.7777777777777777,1.5,2.25,2.5,1.0,0.1666666666666666,0.6666666666666667,0.3605764750391245,0.07607546486014823,,,,,,,,,,,,,,,,,,,0.025749335301409666,-0.41253430860726037,0.009552992713431897,-0.49601322344291865,,,,,,,,,,
13,240709_143623,FalseCHOICE,9.0,14,2.0,1750.0,,,,,,,,,,,14.0,14.0,,,A,,,,,,False,cue2.png,Hard,cue1.png,Easy,Right,Easy,Mid,0.0170764997601509,,,,,,,,,,,,,39,28,Female,1.0,0.5,1.2,1.25,3.2222222222222223,3.25,2.888888888888889,2.4444444444444446,2.125,3.7777777777777777,1.5,2.25,2.5,1.0,1.0,1.0,0.4477740000002086,0.7017162710581121,,,,,,,,,,,,,,,,,,,0.06043046849023441,1.3595625448722535,0.02689141763290169,0.9550062927345176,,,,,,,,,,
14,240709_143642,FalseCHOICE,9.0,15,2.0,1750.0,,,,,,,,,,,15.0,15.0,,,A,,,,,,False,cue1.png,Easy,cue2.png,Hard,Left,Easy,Mid,0.0160901001654565,,,,,,,,,,,,,39,28,Female,1.0,0.5,1.2,1.25,3.2222222222222223,3.25,2.888888888888889,2.4444444444444446,2.125,3.7777777777777777,1.5,2.25,2.5,1.0,1.0,1.0,0.5413842874695547,1.3733685426894773,,,,,,,,,,,,,,,,,,,0.019720300594720595,-0.72059902422864,0.009419034715716286,-0.5072239112612298,,,,,,,,,,
15,240709_143658,FalseCHOICE,9.0,16,2.0,1750.0,,,,,,,,,,,16.0,16.0,,,A,,,,,,False,cue1.png,Easy,cue2.png,Hard,Right,Hard,Mid,0.0154272997751832,,,,,,,,,,,,,39,28,Female,1.0,0.5,1.2,1.25,3.2222222222222223,3.25,2.888888888888889,2.4444444444444446,2.125,3.7777777777777777,1.5,2.25,2.5,1.0,0.1666666666666666,0.6666666666666667,0.3603398124687373,0.0743774148134296,,,,,,,,,,,,,,,,,,,0.056786873854640145,1.1733863160294198,0.0082478472925285,-0.6052383396790453,,,,,,,,,,
16,240709_143716,FalseCHOICE,9.0,17,2.0,1750.0,,,,,,,,,,,17.0,17.0,,,A,,,,,,False,cue2.png,Hard,cue1.png,Easy,Right,Easy,Mid,0.0167666999623179,,,,,,,,,,,,,39,28,Female,1.0,0.5,1.2,1.25,3.2222222222222223,3.25,2.888888888888889,2.4444444444444446,2.125,3.7777777777777777,1.5,2.25,2.5,1.0,0.75,0.8333333333333334,0.5738894874230027,1.6065928172726993,,,,,,,,,,,,,,,,,,,0.02108682557197298,-0.6507738948360852,0.029022597113753375,1.1333606146268234,,,,,,,,,,
17,240709_143735,FalseCHOICE,9.0,18,2.0,1750.0,,,,,,,,,,,18.0,18.0,,,A,,,,,,False,cue2.png,Hard,cue1.png,Easy,Left,Hard,Mid,0.0167854996398091,,,,,,,,,,,,,39,28,Female,1.0,0.5,1.2,1.25,3.2222222222222223,3.25,2.888888888888889,2.4444444444444446,2.125,3.7777777777777777,1.5,2.25,2.5,1.0,1.0,1.0,0.5781085626222193,1.6368646123749773,,,,,,,,,,,,,,,,,,,,,0.02468802468659231,0.770608564466108,,,,,,,,,,
18,240709_143752,FalseCHOICE,9.0,19,2.0,1750.0,,,,,,,,,,,19.0,19.0,,,A,,,,,,False,cue1.png,Easy,cue2.png,Hard,Right,Hard,Mid,0.0139616001397371,,,,,,,,,,,,,39,28,Female,1.0,0.5,1.2,1.25,3.2222222222222223,3.25,2.888888888888889,2.4444444444444446,2.125,3.7777777777777777,1.5,2.25,2.5,1.0,1.0,1.0,0.506401987397112,1.1223711155291314,,,,,,,,,,,,,,,,,,,,,0.0067743635294880145,-0.7285513687963231,,,,,,,,,,
19,240709_143809,FalseCHOICE,9.0,20,2.0,1750.0,,,,,,,,,,,20.0,20.0,,,A,,,,,,False,cue1.png,Easy,cue2.png,Hard,Right,Hard,Mid,0.0165343997068703,,,,,,,,,,,,,39,28,Female,1.0,0.5,1.2,1.25,3.2222222222222223,3.25,2.888888888888889,2.4444444444444446,2.125,3.7777777777777777,1.5,2.25,2.5,1.0,1.0,1.0,0.438820312556345,0.6374737110390809,,,,,,,,,,,,,,,,,,,0.01524254063389201,-0.9493984782146989,0.028408207148863142,1.0819434972277557,1.7767007125421903e+44,-0.1740443954342178,,,,,,,,
20,240709_143826,FalseCHOICE,9.0,21,2.0,1750.0,,,,,,,,,,,21.0,21.0,,,A,,,,,,False,cue1.png,Easy,cue2.png,Hard,Right,Hard,Mid,0.0163166997954249,,,,,,,,,,,,,39,28,Female,1.0,0.5,1.2,1.25,3.2222222222222223,3.25,2.888888888888889,2.4444444444444446,2.125,3.7777777777777777,1.5,2.25,2.5,1.0,1.0,1.0,0.4355337624438107,0.6138927680830321,,,,,,,,,,,,,,,,,,,,,,,7.762953331835125e+43,-0.1740585752457509,,,,,,,,
21,240709_143843,FalseCHOICE,9.0,22,2.0,1750.0,,,,,,,,,,,22.0,22.0,,,A,,,,,,False,cue2.png,Hard,cue1.png,Easy,Right,Easy,Mid,0.0172888999804854,,,,,,,,,,,,,39,28,Female,1.0,0.5,1.2,1.25,3.2222222222222223,3.25,2.888888888888889,2.4444444444444446,2.125,3.7777777777777777,1.5,2.25,2.5,1.0,0.75,0.8333333333333334,0.5290066500892863,1.284559198239927,,,,,,,,,,,,,,,,,,,0.01639185884053955,-0.8906719318081038,0.007158771660427303,-0.6963809898397059,-3.1700750757981637e+43,-0.17407407179200157,,,,,,,,
22,240709_143900,FalseCHOICE,9.0,23,2.0,1750.0,,,,,,,,,,,23.0,23.0,,,A,,,,,,False,cue1.png,Easy,cue2.png,Hard,Right,Hard,Mid,0.0166142000816762,,,,,,,,,,,,,39,28,Female,1.0,0.5,1.2,1.25,3.2222222222222223,3.25,2.888888888888889,2.4444444444444446,2.125,3.7777777777777777,1.5,2.25,2.5,1.0,1.0,1.0,0.3860689376015216,0.25898346410241535,,,,,,,,,,,,,,,,,,,0.038165000616549344,0.2218671487794711,0.008059220740729149,-0.6210241339020699,-1.183593685785752e+44,-0.17408635484139104,,,,,,,,
23,240709_143919,FalseCHOICE,9.0,24,2.0,1750.0,,,,,,,,,,,24.0,24.0,,,A,,,,,,False,cue2.png,Hard,cue1.png,Easy,Right,Easy,Mid,0.016578999813646,,,,,,,,,,,,,39,28,Female,1.0,0.5,1.2,1.25,3.2222222222222223,3.25,2.888888888888889,2.4444444444444446,2.125,3.7777777777777777,1.5,2.25,2.5,1.0,0.75,0.7083333333333334,0.5169656571399953,1.1981652720409839,,,,,,,,,,,,,,,,,,,,,,,-1.6427186256153395e+44,-0.1740928625084341,,,,,,,,
24,240709_143936,FalseCHOICE,9.0,25,2.0,1750.0,,,,,,,,,,,25.0,25.0,,,A,,,,,,False,cue2.png,Hard,cue1.png,Easy,Right,Easy,Mid,0.0166333997622132,,,,,,,,,,,,,39,28,Female,1.0,0.5,1.2,1.25,3.2222222222222223,3.25,2.888888888888889,2.4444444444444446,2.125,3.7777777777777777,1.5,2.25,2.5,1.0,1.0,1.0,0.452719549939502,0.7372005104616122,,,,,,,,,,,,,,,,,,,,,0.007569125292311231,-0.6620392816878168,-1.6219446150032067e+44,-0.17409256805624365,,,,,,,,
25,240709_143952,FalseCHOICE,9.0,26,2.0,1750.0,,,,,,,,,,,26.0,26.0,,,A,,,,,,False,cue1.png,Easy,cue2.png,Hard,Left,Easy,Mid,0.0171852000057697,,,,,,,,,,,,,39,28,Female,1.0,0.5,1.2,1.25,3.2222222222222223,3.25,2.888888888888889,2.4444444444444446,2.125,3.7777777777777777,1.5,2.25,2.5,1.0,0.1666666666666666,0.6666666666666667,0.3045722874812782,-0.3257536589571903,,,,,,,,,,,,,,,,,,,0.039465824448559096,0.2883351562429194,0.026198316454874235,0.8970019849225619,-1.144618707049756e+44,-0.17408580240748336,,,,,,,,
26,240709_144008,FalseCHOICE,9.0,27,2.0,1750.0,,,,,,,,,,,27.0,27.0,,,A,,,,,,False,cue1.png,Easy,cue2.png,Hard,Right,Hard,Mid,0.015941800083965,,,,,,,,,,,,,39,28,Female,1.0,0.5,1.2,1.25,3.2222222222222223,3.25,2.888888888888889,2.4444444444444446,2.125,3.7777777777777777,1.5,2.25,2.5,1.0,0.1666666666666666,0.5416666666666667,0.0748703428544104,-1.9738613304275805,,,,,,,,,,,,,,,,,,,0.04308543520226721,0.47328588413705946,,,5.519883403733284e+44,-0.17399133931697752,,,,,,,,
27,240709_144023,FalseCHOICE,9.0,28,2.0,1750.0,,,,,,,,,,,28.0,28.0,,,A,,,,,,False,cue2.png,Hard,cue1.png,Easy,Left,Hard,Mid,0.0165015999227762,,,,,,,,,,,,,39,28,Female,1.0,0.5,1.2,1.25,3.2222222222222223,3.25,2.888888888888889,2.4444444444444446,2.125,3.7777777777777777,1.5,2.25,2.5,1.0,1.0,1.0,0.1860454999841749,-1.1761814081259605,,,,,,,,,,,,,,,,,,,0.03600560978530968,0.11152906736103069,0.0053584754317678495,-0.8470443271854251,3.7554116406473606e+43,-0.1740642555616573,,,,,,,,
28,240709_144037,FalseCHOICE,9.0,29,2.0,1750.0,,,,,,,,,,,29.0,29.0,,,A,,,,,,False,cue1.png,Easy,cue2.png,Hard,Right,Hard,Mid,0.0162689997814595,,,,,,,,,,,,,39,28,Female,1.0,0.5,1.2,1.25,3.2222222222222223,3.25,2.888888888888889,2.4444444444444446,2.125,3.7777777777777777,1.5,2.25,2.5,1.0,0.1666666666666666,0.6666666666666667,0.1116291374783031,-1.7101175841042597,,,,,,,,,,,,,,,,,,,0.022369371279758028,-0.5852398420461983,0.007767022105949175,-0.6454776770373544,1.0231272931485925e+44,-0.17405507663334352,,,,,,,,
29,240709_144053,FalseCHOICE,9.0,30,2.0,1750.0,,,,,,,,,,,30.0,30.0,,,A,,,,,,False,cue1.png,Easy,cue2.png,Hard,Right,Hard,Mid,0.0151884998194873,,,,,,,,,,,,,39,28,Female,1.0,0.5,1.2,1.25,3.2222222222222223,3.25,2.888888888888889,2.4444444444444446,2.125,3.7777777777777777,1.5,2.25,2.5,1.0,0.1666666666666666,0.6666666666666667,0.2869288498768583,-0.45234503333231324,,,,,,,,,,,,,,,,,,,0.01691120336309946,-0.8641350597488946,0.005432535825144617,-0.8408463549552722,1.39129603418115e+44,-0.17404985818543436,,,,,,,,
30,240709_144107,FalseCHOICE,9.0,31,2.0,1750.0,,,,,,,,,,,31.0,31.0,,,A,,,,,,False,cue2.png,Hard,cue1.png,Easy,Left,Hard,Mid,0.0153656997717916,,,,,,,,,,,,,39,28,Female,1.0,0.5,1.2,1.25,3.2222222222222223,3.25,2.888888888888889,2.4444444444444446,2.125,3.7777777777777777,1.5,2.25,2.5,1.0,0.1666666666666666,0.6666666666666667,0.1147524249972775,-1.687708047569464,,,,,,,,,,,,,,,,,,,,,,,,,,,,,,,,
31,240709_144120,FalseCHOICE,9.0,32,2.0,1750.0,,,,,,,,,,,32.0,32.0,,,A,,,,,,False,cue1.png,Easy,cue2.png,Hard,Left,Easy,Mid,0.0158192999660968,,,,,,,,,,,,,39,28,Female,1.0,0.5,1.2,1.25,3.2222222222222223,3.25,2.888888888888889,2.4444444444444446,2.125,3.7777777777777777,1.5,2.25,2.5,1.0,1.0,1.0,0.0337277125217951,-2.269059025796688,,,,,,,,,,,,,,,,,,,,,0.03405849323347403,1.5548050990650526,1.0761435193655657e+44,-0.17405432517787212,,,,,,,,
32,240709_144135,FalseCHOICE,9.0,33,2.0,1750.0,,,,,,,,,,,33.0,33.0,,,A,,,,,,False,cue2.png,Hard,cue1.png,Easy,Right,Easy,Mid,0.0159702003002166,,,,,,,,,,,,,39,28,Female,1.0,0.5,1.2,1.25,3.2222222222222223,3.25,2.888888888888889,2.4444444444444446,2.125,3.7777777777777777,1.5,2.25,2.5,1.0,1.0,1.0,0.1629334375611506,-1.3420100755530686,,,,,,,,,,,,,,,,,,,,,0.007519979105993467,-0.6661522317293567,5.053171243457799e+43,-0.17406241610867526,,,,,,,,
33,240709_144151,FalseCHOICE,9.0,34,2.0,1750.0,,,,,,,,,,,34.0,34.0,,,A,,,,,,False,cue2.png,Hard,cue1.png,Easy,Right,Easy,Mid,0.0157310999929904,,,,,,,,,,,,,39,28,Female,1.0,0.5,1.2,1.25,3.2222222222222223,3.25,2.888888888888889,2.4444444444444446,2.125,3.7777777777777777,1.5,2.25,2.5,1.0,0.75,0.8333333333333334,0.3741628499701619,0.17355748133889184,,,,,,,,,,,,,,,,,,,,,0.009835413212944788,-0.4723779936879014,-2.323243722809721e+43,-0.1740728714876816,,,,,,,,
34,240709_144208,FalseCHOICE,9.0,35,2.0,1750.0,,,,,,,,,,,35.0,35.0,,,A,,,,,,False,cue2.png,Hard,cue1.png,Easy,Right,Easy,Mid,0.0149583998136222,,,,,,,,,,,,,39,28,Female,1.0,0.5,1.2,1.25,3.2222222222222223,3.25,2.888888888888889,2.4444444444444446,2.125,3.7777777777777777,1.5,2.25,2.5,1.0,0.1666666666666666,0.6666666666666667,0.4085827374947257,0.42051960772633296,,,,,,,,,,,,,,,,,,,,,0.012073414148928579,-0.2850839891621919,-8.979054381211644e+43,-0.17408230547741052,,,,,,,,
35,240709_144225,FalseCHOICE,9.0,36,2.0,1750.0,,,,,,,,,,,36.0,36.0,,,A,,,,,,False,cue1.png,Easy,cue2.png,Hard,Left,Easy,Mid,0.016293799970299,,,,,,,,,,,,,39,28,Female,1.0,0.5,1.2,1.25,3.2222222222222223,3.25,2.888888888888889,2.4444444444444446,2.125,3.7777777777777777,1.5,2.25,2.5,1.0,0.1666666666666666,0.6666666666666667,0.312526912544854,-0.26867935507070734,,,,,,,,,,,,,,,,,,,,,0.010057442781956182,-0.453796765041104,-1.2173903836548712e+44,-0.17408683387800572,,,,,,,,
36,240709_144239,FalseCHOICE,9.0,37,2.0,1750.0,,,,,,,,,,,37.0,37.0,,,A,,,,,,False,cue2.png,Hard,cue1.png,Easy,Left,Hard,Mid,0.016716499812901,,,,,,,,,,,,,39,28,Female,1.0,0.5,1.2,1.25,3.2222222222222223,3.25,2.888888888888889,2.4444444444444446,2.125,3.7777777777777777,1.5,2.25,2.5,1.0,1.0,1.0,0.1177092749858275,-1.66649269757566,,,,,,,,,,,,,,,,,,,0.015978898428032833,-0.9117729103612083,0.012576222291065005,-0.2430049404295932,-1.2703025861129116e+44,-0.17408758385903755,,,,,,,,
37,240709_144254,FalseCHOICE,9.0,38,2.0,1750.0,,,,,,,,,,,38.0,38.0,,,A,,,,,,False,cue1.png,Easy,cue2.png,Hard,Right,Hard,Mid,0.016432300209999,,,,,,,,,,,,,39,28,Female,1.0,0.5,1.2,1.25,3.2222222222222223,3.25,2.888888888888889,2.4444444444444446,2.125,3.7777777777777777,1.5,2.25,2.5,1.0,0.75,0.8333333333333334,0.2733592624426819,-0.5497065997974256,,,,,,,,,,,,,,,,,,,0.014005641664368221,-1.012600126212506,0.0132469281906255,-0.18687485050517455,-7.657618278564237e+43,-0.17408043246520213,,,,,,,,
38,240709_144312,FalseCHOICE,9.0,39,2.0,1750.0,,,,,,,,,,,39.0,39.0,,,A,,,,,,False,cue1.png,Easy,cue2.png,Hard,Left,Easy,Mid,0.0161912003532052,,,,,,,,,,,,,39,28,Female,1.0,0.5,1.2,1.25,3.2222222222222223,3.25,2.888888888888889,2.4444444444444446,2.125,3.7777777777777777,1.5,2.25,2.5,1.0,0.75,0.8333333333333334,0.4771264874725602,0.9123198854876902,,,,,,,,,,,,,,,,,,,0.029216113403661943,-0.23539284863061402,0.010494615458840477,-0.4172106224678926,-1.3237746768179113e+43,-0.17407145483369335,,,,,,,,
39,240709_144329,FalseCHOICE,9.0,40,2.0,1750.0,,,,,,,,,,,40.0,40.0,,,A,,,,,,False,cue2.png,Hard,cue1.png,Easy,Right,Easy,Mid,0.016447499860078,,,,,,,,,,,,,39,28,Female,1.0,0.5,1.2,1.25,3.2222222222222223,3.25,2.888888888888889,2.4444444444444446,2.125,3.7777777777777777,1.5,2.25,2.5,1.0,1.0,1.0,0.4777235625660978,0.9166038894551001,,,,,,,,,,,,,,,,,,,0.018056518914170528,-0.8056130364561783,0.010546067265464223,-0.41290471948648577,6.201034192655848e+43,-0.17406078912019426,,,,,,,,
40,240709_144345,FalseCHOICE,9.0,41,2.0,1750.0,,,,,,,,,,,41.0,41.0,,,A,,,,,,False,cue2.png,Hard,cue1.png,Easy,Right,Easy,Mid,0.0165395000949502,,,,,,,,,,,,,39,28,Female,1.0,0.5,1.2,1.25,3.2222222222222223,3.25,2.888888888888889,2.4444444444444446,2.125,3.7777777777777777,1.5,2.25,2.5,1.0,1.0,1.0,0.3306177874328568,-0.13887762555134395,,,,,,,,,,,,,,,,,,,0.024258859130135504,-0.48869295425821124,0.008289091487551513,-0.6017866921282797,1.164805684208626e+44,-0.17405306847452612,,,,,,,,
41,240709_144403,FalseCHOICE,9.0,42,2.0,1750.0,,,,,,,,,,,42.0,42.0,,,A,,,,,,False,cue1.png,Easy,cue2.png,Hard,Left,Easy,Mid,0.0155348000116646,,,,,,,,,,,,,39,28,Female,1.0,0.5,1.2,1.25,3.2222222222222223,3.25,2.888888888888889,2.4444444444444446,2.125,3.7777777777777777,1.5,2.25,2.5,1.0,1.0,0.875,0.332571814235832,-0.12485751540611414,,,,,,,,,,,,,,,,,,,0.05480338862371491,1.0720364576638255,0.030398371372411057,1.2484965227868068,,,,,,,,,,
42,240709_144422,FalseCHOICE,9.0,43,2.0,1750.0,,,,,,,,,,,43.0,43.0,,,A,,,,,,False,cue2.png,Hard,cue1.png,Easy,Right,Easy,Mid,0.0165237002074718,,,,,,,,,,,,,39,28,Female,1.0,0.5,1.2,1.25,3.2222222222222223,3.25,2.888888888888889,2.4444444444444446,2.125,3.7777777777777777,1.5,2.25,2.5,1.0,1.0,0.875,0.523799028513687,1.2471945991600113,,,,,,,,,,,,,,,,,,,0.024204927082273866,-0.4914487123182769,0.00897901717307874,-0.5440481351911992,1.0168435089187703e+44,-0.17405516570011378,,,,,,,,
43,240709_144440,FalseCHOICE,9.0,44,2.0,1750.0,,,,,,,,,,,44.0,44.0,,,A,,,,,,False,cue1.png,Easy,cue2.png,Hard,Right,Hard,Mid,0.0163839999586343,,,,,,,,,,,,,39,28,Female,1.0,0.5,1.2,1.25,3.2222222222222223,3.25,2.888888888888889,2.4444444444444446,2.125,3.7777777777777777,1.5,2.25,2.5,1.0,0.75,0.8333333333333334,0.4434783876058645,0.6708953228407074,,,,,,,,,,,,,,,,,,,0.049457433697118386,0.7988749709071685,0.009083244694979342,-0.5353255338532451,1.0160783205329148e+43,-0.17406813831069157,,,,,,,,
44,240709_144456,FalseCHOICE,9.0,45,2.0,1750.0,,,,,,,,,,,45.0,45.0,,,A,,,,,,False,cue2.png,Hard,cue1.png,Easy,Right,Easy,Mid,0.0157786002382636,,,,,,,,,,,,,39,28,Female,1.0,0.5,1.2,1.25,3.2222222222222223,3.25,2.888888888888889,2.4444444444444446,2.125,3.7777777777777777,1.5,2.25,2.5,1.0,0.75,0.8333333333333334,0.3824602125678211,0.2330909213904657,,,,,,,,,,,,,,,,,,,0.032653530796791626,-0.059751628567375134,,,-7.056988964051569e+43,-0.17407958112926802,,,,,,,,
45,240709_144511,FalseCHOICE,9.0,46,2.0,1750.0,,,,,,,,,,,46.0,46.0,,,A,,,,,,False,cue2.png,Hard,cue1.png,Easy,Right,Easy,Mid,0.0016892999410629,,,,,,,,,,,,,39,28,Female,1.0,0.5,1.2,1.25,3.2222222222222223,3.25,2.888888888888889,2.4444444444444446,2.125,3.7777777777777777,1.5,2.25,2.5,1.0,0.75,0.8333333333333334,0.2403553625917993,-0.7865090379354165,,,,,,,,,,,,,,,,,,,0.02431933262866153,-0.48560294863834286,0.00748222521127812,-0.6693117827438297,-1.4127330434668138e+44,-0.17408960267769197,,,,,,,,
46,240709_144526,FalseCHOICE,9.0,47,2.0,1750.0,,,,,,,,,,,47.0,47.0,,,A,,,,,,False,cue1.png,Easy,cue2.png,Hard,Right,Hard,Mid,0.0141982999630272,,,,,,,,,,,,,39,28,Female,1.0,0.5,1.2,1.25,3.2222222222222223,3.25,2.888888888888889,2.4444444444444446,2.125,3.7777777777777777,1.5,2.25,2.5,1.0,0.75,0.8333333333333334,0.2483220500871539,-0.7293481862994857,,,,,,,,,,,,,,,,,,,,,0.04905502037737622,2.8098356835474734,,,,,,,,,,
47,240709_144541,FalseCHOICE,9.0,48,2.0,1750.0,,,,,,,,,,,48.0,48.0,,,A,,,,,,False,cue1.png,Easy,cue2.png,Hard,Left,Easy,Mid,0.0160865001380443,,,,,,,,,,,,,39,28,Female,1.0,0.5,1.2,1.25,3.2222222222222223,3.25,2.888888888888889,2.4444444444444446,2.125,3.7777777777777777,1.5,2.25,2.5,1.0,1.0,1.0,0.2496465999865904,-0.7198445625750427,,,,,,,,,,,,,,,,,,,0.042282737455345075,0.43227055329792285,,,3.958073649069456e+43,-0.1740639683071959,,,,,,,,
48,240709_144559,FalseCHOICE,9.0,49,2.0,1750.0,,,,,,,,,,,49.0,49.0,,,A,,,,,,False,cue2.png,Hard,cue1.png,Easy,Right,Easy,Mid,0.0160087998956441,,,,,,,,,,,,,39,28,Female,1.0,0.5,1.2,1.25,3.2222222222222223,3.25,2.888888888888889,2.4444444444444446,2.125,3.7777777777777777,1.5,2.25,2.5,1.0,1.0,1.0,0.5385667126392946,1.353152489663732,,,,,,,,,,,,,,,,,,,0.01923501858727668,-0.7453954088726887,0.00695035897581572,-0.7138226475563046,1.7594054483404599e+44,-0.1740446405784282,,,,,,,,
49,240709_144616,FalseCHOICE,9.0,50,2.0,1750.0,,,,,,,,,,,50.0,50.0,,,A,,,,,,False,cue1.png,Easy,cue2.png,Hard,Left,Easy,Mid,0.0161415999755263,,,,,,,,,,,,,39,28,Female,1.0,0.5,1.2,1.25,3.2222222222222223,3.25,2.888888888888889,2.4444444444444446,2.125,3.7777777777777777,1.5,2.25,2.5,1.0,0.75,0.8333333333333334,0.4189579249941744,0.4949614072442332,,,,,,,,,,,,,,,,,,,0.02143727745222887,-0.6328669057271608,0.008107461272828163,-0.6169869763245179,-1.3158768984718962e+44,-0.1740882298323333,,,,,,,,
0,240709_141109,OFFLINERATING,9.0,1,1.0,,,,,,,,,,,,,,,,,T0,cue1.png,Easy,8.0,0.7848474001511931,,,,,,,,,,,,,,,,,,,,,,39,28,Female,1.0,0.5,1.2,1.25,3.2222222222222223,3.25,2.888888888888889,2.4444444444444446,2.125,3.7777777777777777,1.5,2.25,2.5,1.0,,,,,,,,,,,,,,,,,,,,,,,,,,,,,-1.6207667446035785,,,0.0091657717782904,-1.0,18278495.7230998,1.4105675137378357,
1,240709_141116,OFFLINERATING,9.0,2,3.0,,,,,,,,,,,,,,,,,T0,cue2.png,Hard,9.0,0.7513000001199543,,,,,,,,,,,,,,,,,,,,,,39,28,Female,1.0,0.5,1.2,1.25,3.2222222222222223,3.25,2.888888888888889,2.4444444444444446,2.125,3.7777777777777777,1.5,2.25,2.5,1.0,,,,,,,,,,,,,,,,,,,,,,,,,,,,,-1.565591706489414,,,0.01606295594313339,1.0,911936.1334225464,-0.7931727032193854,
2,240709_142802,OFFLINERATING,9.0,3,1.0,,,,,,,,,,,,,,,,,T1,cue1.png,Easy,54.0,0.94899920001626,,,,,,,,,,,,,,,,,,,,,,39,28,Female,1.0,0.5,1.2,1.25,3.2222222222222223,3.25,2.888888888888889,2.4444444444444446,2.125,3.7777777777777777,1.5,2.25,2.5,1.0,,,,,,,,,,,,,,,,,,,,,,,,,,,,,0.9172850086479827,0.04081265675553616,0.3402642937094689,,,,,
3,240709_142808,OFFLINERATING,9.0,4,3.0,,,,,,,,,,,,,,,,,T1,cue2.png,Hard,44.0,0.6514698001556098,,,,,,,,,,,,,,,,,,,,,,39,28,Female,1.0,0.5,1.2,1.25,3.2222222222222223,3.25,2.888888888888889,2.4444444444444446,2.125,3.7777777777777777,1.5,2.25,2.5,1.0,,,,,,,,,,,,,,,,,,,,,,,,,,,,,0.36553462750633897,0.024696139564734834,-1.3180272718433241,,,,,
4,240709_143147,OFFLINERATING,9.0,5,1.0,,,,,,,,,,,,,,,,,T2,cue1.png,Easy,57.0,2.0523737999610603,,,,,,,,,,,,,,,,,,,,,,39,28,Female,1.0,0.5,1.2,1.25,3.2222222222222223,3.25,2.888888888888889,2.4444444444444446,2.125,3.7777777777777777,1.5,2.25,2.5,1.0,,,,,,,,,,,,,,,,,,,,,,,,,,,,,1.0828101229904759,,,,,,,
5,240709_143154,OFFLINERATING,9.0,6,3.0,,,,,,,,,,,,,,,,,T2,cue2.png,Hard,33.0,1.101710899733007,,,,,,,,,,,,,,,,,,,,,,39,28,Female,1.0,0.5,1.2,1.25,3.2222222222222223,3.25,2.888888888888889,2.4444444444444446,2.125,3.7777777777777777,1.5,2.25,2.5,1.0,,,,,,,,,,,,,,,,,,,,,,,,,,,,,-0.24139079174946915,,,,,2297152.6052413466,-0.6173948105184505,
6,240709_144630,OFFLINERATING,9.0,7,1.0,,,,,,,,,,,,,,,,,T3,cue1.png,Easy,52.0,1.7128093000501394,,,,,,,,,,,,,,,,,,,,,,39,28,Female,1.0,0.5,1.2,1.25,3.2222222222222223,3.25,2.888888888888889,2.4444444444444446,2.125,3.7777777777777777,1.5,2.25,2.5,1.0,,,,,,,,,,,,,,,,,,,,,,,,,,,,,0.806934932419654,0.033378821901371945,-0.42463208510672623,,,,,
7,240709_144637,OFFLINERATING,9.0,8,3.0,,,,,,,,,,,,,,,,,T3,cue2.png,Hard,42.0,0.9516199002973736,,,,,,,,,,,,,,,,,,,,,,39,28,Female,1.0,0.5,1.2,1.25,3.2222222222222223,3.25,2.888888888888889,2.4444444444444446,2.125,3.7777777777777777,1.5,2.25,2.5,1.0,,,,,,,,,,,,,,,,,,,,,,,,,,,,,0.2551845512780102,0.05113523763432207,1.4023950632405815,,,,,
0,240709_143211,LEARNINGCHECK,9.0,1,,,,,,,,,,,,1.0,1.0,1.0,,,A,,,,,,,,,,,,,,,cue1.png,Easy,Left,Left,Easy,0.0126801999285817,1.0,,,,,,39,28,Female,1.0,0.5,1.2,1.25,3.2222222222222223,3.25,2.888888888888889,2.4444444444444446,2.125,3.7777777777777777,1.5,2.25,2.5,1.0,,,,,,,,,,,,,,,,,,,,,,,,,,,,,,,,,,,,
1,240709_143216,LEARNINGCHECK,9.0,2,,,,,,,,,,,,2.0,2.0,2.0,,,A,,,,,,,,,,,,,,,cue2.png,Hard,Right,Right,Hard,0.0117490999400615,1.0,,,,,,39,28,Female,1.0,0.5,1.2,1.25,3.2222222222222223,3.25,2.888888888888889,2.4444444444444446,2.125,3.7777777777777777,1.5,2.25,2.5,1.0,,,,,,,,,,,,,,,,,,,,,,,,,,,,,,,,,,,,
2,240709_144653,LEARNINGCHECK,9.0,1,,,,,,,,,,,,1.0,1.0,1.0,,,A,,,,,,,,,,,,,,,cue1.png,Easy,Middle,Middle,Mid,0.0140987001359462,1.0,,,,,,39,28,Female,1.0,0.5,1.2,1.25,3.2222222222222223,3.25,2.888888888888889,2.4444444444444446,2.125,3.7777777777777777,1.5,2.25,2.5,1.0,,,,,,,,,,,,,,,,,,,,,,,,,,,,,,,,,,,,
3,240709_144657,LEARNINGCHECK,9.0,2,,,,,,,,,,,,2.0,2.0,2.0,,,A,,,,,,,,,,,,,,,cue2.png,Hard,Middle,Middle,Mid,0.0145390001125633,1.0,,,,,,39,28,Female,1.0,0.5,1.2,1.25,3.2222222222222223,3.25,2.888888888888889,2.4444444444444446,2.125,3.7777777777777777,1.5,2.25,2.5,1.0,,,,,,,,,,,,,,,,,,,,,,,,,,,,,,,,,,,,
0,240709_144708,DEMANDRATING,9.0,-1,,,,,,,,,,,,,,,,,,,,,,,,,,,,,,,,,,,,,,,1.0,MentalDemand,1.0,2.0,3.462257499806583,39,28,Female,1.0,0.5,1.2,1.25,3.2222222222222223,3.25,2.888888888888889,2.4444444444444446,2.125,3.7777777777777777,1.5,2.25,2.5,1.0,,,,,,,,,,,,,,,,,,,,,,,,,,,,,,,,,,,,-1.3529927031458933
1,240709_144713,DEMANDRATING,9.0,-1,,,,,,,,,,,,,,,,,,,,,,,,,,,,,,,,,,,,,,,2.0,Effort,1.0,4.0,3.443660499993712,39,28,Female,1.0,0.5,1.2,1.25,3.2222222222222223,3.25,2.888888888888889,2.4444444444444446,2.125,3.7777777777777777,1.5,2.25,2.5,1.0,,,,,,,,,,,,,,,,,,,,,,,,,,,,,,,,,,,,-1.2905468860776215
2,240709_144716,DEMANDRATING,9.0,-1,,,,,,,,,,,,,,,,,,,,,,,,,,,,,,,,,,,,,,,3.0,Frustration,1.0,6.0,0.8987056002952158,39,28,Female,1.0,0.5,1.2,1.25,3.2222222222222223,3.25,2.888888888888889,2.4444444444444446,2.125,3.7777777777777777,1.5,2.25,2.5,1.0,,,,,,,,,,,,,,,,,,,,,,,,,,,,,,,,,,,,-1.2281010690093495
3,240709_144720,DEMANDRATING,9.0,-1,,,,,,,,,,,,,,,,,,,,,,,,,,,,,,,,,,,,,,,4.0,MentalDemand,2.0,50.0,2.8096483000554144,39,28,Female,1.0,0.5,1.2,1.25,3.2222222222222223,3.25,2.888888888888889,2.4444444444444446,2.125,3.7777777777777777,1.5,2.25,2.5,1.0,,,,,,,,,,,,,,,,,,,,,,,,,,,,,,,,,,,,0.1457069064926346
4,240709_144722,DEMANDRATING,9.0,-1,,,,,,,,,,,,,,,,,,,,,,,,,,,,,,,,,,,,,,,5.0,Effort,2.0,50.0,0.598727900069207,39,28,Female,1.0,0.5,1.2,1.25,3.2222222222222223,3.25,2.888888888888889,2.4444444444444446,2.125,3.7777777777777777,1.5,2.25,2.5,1.0,,,,,,,,,,,,,,,,,,,,,,,,,,,,,,,,,,,,0.1457069064926346
5,240709_144724,DEMANDRATING,9.0,-1,,,,,,,,,,,,,,,,,,,,,,,,,,,,,,,,,,,,,,,6.0,Frustration,2.0,50.0,0.7637828998267651,39,28,Female,1.0,0.5,1.2,1.25,3.2222222222222223,3.25,2.888888888888889,2.4444444444444446,2.125,3.7777777777777777,1.5,2.25,2.5,1.0,,,,,,,,,,,,,,,,,,,,,,,,,,,,,,,,,,,,0.1457069064926346
6,240709_144728,DEMANDRATING,9.0,-1,,,,,,,,,,,,,,,,,,,,,,,,,,,,,,,,,,,,,,,7.0,MentalDemand,3.0,82.0,1.6331710000522437,39,28,Female,1.0,0.5,1.2,1.25,3.2222222222222223,3.25,2.888888888888889,2.4444444444444446,2.125,3.7777777777777777,1.5,2.25,2.5,1.0,,,,,,,,,,,,,,,,,,,,,,,,,,,,,,,,,,,,1.1448399795849866
7,240709_144730,DEMANDRATING,9.0,-1,,,,,,,,,,,,,,,,,,,,,,,,,,,,,,,,,,,,,,,8.0,Effort,3.0,82.0,0.4852622002363205,39,28,Female,1.0,0.5,1.2,1.25,3.2222222222222223,3.25,2.888888888888889,2.4444444444444446,2.125,3.7777777777777777,1.5,2.25,2.5,1.0,,,,,,,,,,,,,,,,,,,,,,,,,,,,,,,,,,,,1.1448399795849866
8,240709_144731,DEMANDRATING,9.0,-1,,,,,,,,,,,,,,,,,,,,,,,,,,,,,,,,,,,,,,,9.0,Frustration,3.0,82.0,0.4158426001667976,39,28,Female,1.0,0.5,1.2,1.25,3.2222222222222223,3.25,2.888888888888889,2.4444444444444446,2.125,3.7777777777777777,1.5,2.25,2.5,1.0,,,,,,,,,,,,,,,,,,,,,,,,,,,,,,,,,,,,1.1448399795849866
