,END,Phase,Block,TrialN,NbackLevel,ISI,Letter_Resp,Letter_RT,Letter_Accuracy,Trial_A_measure,Trial_ACC,Trial_RT,TrialCountCali,CaliEnd_A_measure,ISI_calibrated,TrialIndex,TrialNumber_total,TrialNumber_valid,CueLearning,TrialDemandLearning,CueMapping,OfflineRatingTimePoint,CueFigure,TrialDemand,OfflineRating,OfflineRatingRT,PhaseType,CueLeft,CueDemandLeft,CueRight,CueDemandRight,Choice,ChoiceDemand,TaskDemand,ChoiceRT,CueCheck,CueDemandCheck,CorrectAnswer,Answer,AnswerDemand,AnswerRT,AnswerACC,DemandRatingQuesIndex,QuesTLX,DemandLevel,DemandRating,DemandRatingRT,PID,Age,Gender,BAI_bis,BAI_bas_d,BAI_bas_rr,BAI_bas_fs,NFC,BFI_ext,BFI_agr,BFI_con,BFI_neu,BFI_open,UPPS_lps,UPPS_lpm,UPPS_pu,UPPS_ss,Task_A_measure,Task_ACC,Task_RT,Task_RT_z,cue_i_on_zyg_values,cue_i_on_zyg_zvalues,cue_e_on_zyg_values,cue_e_on_zyg_zvalues,cue_i_on_cor_values,cue_i_on_cor_zvalues,cue_e_on_cor_values,cue_e_on_cor_zvalues,cue_i_on_scr_values,cue_i_on_scr_zvalues,cue_e_on_scr_values,cue_e_on_scr_zvalues,cue_e_true_zyg_values,cue_e_true_zyg_zvalues,cue_e_true_cor_values,cue_e_true_cor_zvalues,cue_e_true_scr_values,cue_e_true_scr_zvalues,cue_e_false_zyg_values,cue_e_false_zyg_zvalues,cue_e_false_cor_values,cue_e_false_cor_zvalues,cue_e_false_scr_values,cue_e_false_scr_zvalues,OfflineRating_z,cue_i_off_zyg_values,cue_i_off_zyg_zvalues,cue_i_off_cor_values,cue_i_off_cor_zvalues,cue_i_off_scr_values,cue_i_off_scr_zvalues,DemandRating_z
0,240710_092520,PRACTICE,0.0,1,1.0,361.0,,,,,,,,,,14.0,1.0,1.0,cue2.png,Easy,B,,,,,,,,,,,,,,,,,,,,,,,,,,,40,29,Female,0.2857142857142857,0.5,0.2,1.0,1.6666666666666667,2.25,3.0,2.5555555555555554,3.0,1.7777777777777777,2.0,2.25,1.25,1.0,,,,,,,,,,,,,,,,,,,,,,,,,,,,,,,,,,,,
0,240710_092838,LEARNING,1.0,1,1.0,361.0,,,,,,,,,,1.0,1.0,1.0,cue2.png,Easy,B,,,,,,,,,,,,,,,,,,,,,,,,,,,40,29,Female,0.2857142857142857,0.5,0.2,1.0,1.6666666666666667,2.25,3.0,2.5555555555555554,3.0,1.7777777777777777,2.0,2.25,1.25,1.0,1.0,0.9444444444444444,0.5980022470586632,0.8731890728505124,0.010040700215727807,-0.6728476440285709,0.014959038087905701,0.11334370621139793,0.005087876033959821,-0.4548839887449239,0.005170342077013217,-0.3256305277173186,3.1156506549230355e+44,-0.17343209646521965,4.511292924426017e+44,-0.17899054084788996,,,,,,,,,,,,,,,,,,,,
1,240710_092909,LEARNING,1.0,2,3.0,361.0,,,,,,,,,,2.0,2.0,2.0,cue1.png,Hard,B,,,,,,,,,,,,,,,,,,,,,,,,,,,40,29,Female,0.2857142857142857,0.5,0.2,1.0,1.6666666666666667,2.25,3.0,2.5555555555555554,3.0,1.7777777777777777,2.0,2.25,1.25,1.0,0.8680555555555555,0.75,0.5686316599986942,0.4440188919801639,0.011825503112300687,-0.4708108247743256,0.00967664199695041,-0.5194331427380183,0.014572394438938308,2.280415301828494,0.005172156266254094,-0.3250199372247772,1.61031385081107e+43,-0.17940168651786068,3.1685932349591654e+43,-0.2029522053145546,,,,,,,,,,,,,,,,,,,,
2,240710_092939,LEARNING,1.0,3,1.0,361.0,,,,,,,,,,3.0,3.0,3.0,cue2.png,Easy,B,,,,,,,,,,,,,,,,,,,,,,,,,,,40,29,Female,0.2857142857142857,0.5,0.2,1.0,1.6666666666666667,2.25,3.0,2.5555555555555554,3.0,1.7777777777777777,2.0,2.25,1.25,1.0,0.8,0.8461538461538461,0.5607029000008575,0.3281619172659255,0.013126042461403106,-0.3235918607575279,0.016116100898465265,0.2519479582772496,0.00430239644626775,-0.681413335542991,0.004929129028615846,-0.4068141168985252,-7.608322390251691e+43,-0.18126424389590515,-1.0018893002848333e+44,-0.21048585944890613,,,,,,,,,,,,,,,,,,,,
3,240710_093008,LEARNING,1.0,4,3.0,361.0,,,,,,,,,,4.0,4.0,4.0,cue1.png,Hard,B,,,,,,,,,,,,,,,,,,,,,,,,,,,40,29,Female,0.2857142857142857,0.5,0.2,1.0,1.6666666666666667,2.25,3.0,2.5555555555555554,3.0,1.7777777777777777,2.0,2.25,1.25,1.0,0.6666666666666666,0.5555555555555556,0.396601707692473,-2.0697247249121973,0.013467621244161392,-0.28492569155434333,0.015795996976995227,0.21360279307636984,0.004857564741303647,-0.5213048957972846,0.009888375754955943,1.2622889915543203,-7.118048501270797e+43,-0.18116518767703446,-9.278412888522304e+43,-0.21006284319136462,,,,,,,,,,,,,,,,,,,,
4,240710_093038,LEARNING,1.0,5,3.0,361.0,,,,,,,,,,5.0,5.0,5.0,cue1.png,Hard,B,,,,,,,,,,,,,,,,,,,,,,,,,,,40,29,Female,0.2857142857142857,0.5,0.2,1.0,1.6666666666666667,2.25,3.0,2.5555555555555554,3.0,1.7777777777777777,2.0,2.25,1.25,1.0,0.5692307692307692,0.6239316239316239,0.4403322357143874,-1.4307235846761983,0.010071918247224216,-0.669313813038592,0.010116428328829585,-0.4667512528331665,0.010560725644643467,1.1234651712567256,0.005038665493838192,-0.36994810383640014,2.8446907303362563e+47,5.56776051763625,1.0348835956645806e+47,5.707247684148537,,,,,,,,,,,,,,,,,,,,
5,240710_093108,LEARNING,1.0,6,1.0,361.0,,,,,,,,,,6.0,6.0,6.0,cue2.png,Easy,B,,,,,,,,,,,,,,,,,,,,,,,,,,,40,29,Female,0.2857142857142857,0.5,0.2,1.0,1.6666666666666667,2.25,3.0,2.5555555555555554,3.0,1.7777777777777777,2.0,2.25,1.25,1.0,0.95,0.8333333333333334,0.4944006200016398,-0.6406631675470307,0.016933362377243143,0.10739063437215321,0.01586043148831069,0.22132138636845702,0.004292229221464153,-0.6843455247807473,0.0043800391228807235,-0.5916179226085381,,,,,,,,,,,,,,,,,,,,,,,,
6,240710_093138,LEARNING,1.0,7,3.0,361.0,,,,,,,,,,7.0,7.0,7.0,cue1.png,Hard,B,,,,,,,,,,,,,,,,,,,,,,,,,,,40,29,Female,0.2857142857142857,0.5,0.2,1.0,1.6666666666666667,2.25,3.0,2.5555555555555554,3.0,1.7777777777777777,2.0,2.25,1.25,1.0,0.6666666666666666,0.7222222222222223,0.5029275562501425,-0.5160654955778651,0.014731759929439736,-0.14182722417719168,0.009879038114888553,-0.49518816459868853,0.010805573986734686,1.1940785084683063,0.0042708964624467455,-0.6283513952199334,,,9.50529396158295e+42,-0.20421932518168523,,,,,,,,,,,,,,,,,,,,
7,240710_093207,LEARNING,1.0,8,3.0,361.0,,,,,,,,,,8.0,8.0,8.0,cue1.png,Hard,B,,,,,,,,,,,,,,,,,,,,,,,,,,,40,29,Female,0.2857142857142857,0.5,0.2,1.0,1.6666666666666667,2.25,3.0,2.5555555555555554,3.0,1.7777777777777777,2.0,2.25,1.25,1.0,0.7153846153846154,0.6794871794871795,0.4590690266665964,-1.1569370258487994,,,,,0.00494849419551257,-0.4950811845902568,,,,,3.2581110024810155e+43,-0.20290106623564086,,,,,,,,,,,,,,,,,,,,
8,240710_093238,LEARNING,1.0,9,1.0,361.0,,,,,,,,,,9.0,9.0,9.0,cue2.png,Easy,B,,,,,,,,,,,,,,,,,,,,,,,,,,,40,29,Female,0.2857142857142857,0.5,0.2,1.0,1.6666666666666667,2.25,3.0,2.5555555555555554,3.0,1.7777777777777777,2.0,2.25,1.25,1.0,1.0,0.8888888888888888,0.5796387062491704,0.6048565361348365,0.011876179506593885,-0.46507433839034934,,,,,0.0039977099979192614,-0.7202960800262438,,,2.1544770699454783e+46,1.0260321293474137,,,,,,,,,,,,,,,,,,,,
9,240710_093308,LEARNING,1.0,10,1.0,361.0,,,,,,,,,,10.0,10.0,10.0,cue2.png,Easy,B,,,,,,,,,,,,,,,,,,,,,,,,,,,40,29,Female,0.2857142857142857,0.5,0.2,1.0,1.6666666666666667,2.25,3.0,2.5555555555555554,3.0,1.7777777777777777,2.0,2.25,1.25,1.0,0.9153846153846156,0.8675213675213675,0.5464992294124814,0.12061441870929739,,,,,0.006099236526468989,-0.16321144201632865,0.004073990121947433,-0.694622948771782,,,4.3993740663712287e+43,-0.20224909352115872,,,,,,,,,,,,,,,,,,,,
10,240710_093338,LEARNING,1.0,11,3.0,361.0,,,,,,,,,,11.0,11.0,11.0,cue1.png,Hard,B,,,,,,,,,,,,,,,,,,,,,,,,,,,40,29,Female,0.2857142857142857,0.5,0.2,1.0,1.6666666666666667,2.25,3.0,2.5555555555555554,3.0,1.7777777777777777,2.0,2.25,1.25,1.0,0.5833333333333334,0.6388888888888888,0.5342279749997942,-0.05869614342028973,,,,,0.004104462620962073,-0.7384967032820332,0.004995339954473956,-0.38452991361895356,,,,,,,,,,,,,,,,,,,,,,,,
11,240710_093407,LEARNING,1.0,12,1.0,361.0,,,,,,,,,,12.0,12.0,12.0,cue2.png,Easy,B,,,,,,,,,,,,,,,,,,,,,,,,,,,40,29,Female,0.2857142857142857,0.5,0.2,1.0,1.6666666666666667,2.25,3.0,2.5555555555555554,3.0,1.7777777777777777,2.0,2.25,1.25,1.0,0.9153846153846156,0.9230769230769232,0.5249127833319815,-0.19481199581215403,,,0.0077745594206597565,-0.7472831180792512,0.004900641899959315,-0.5088816059179672,,,2.380191920341235e+43,-0.1792461383390302,3.956367815470961e+43,-0.20250217100791051,,,,,,,,,,,,,,,,,,,,
12,240710_093438,LEARNING,1.0,13,1.0,361.0,,,,,,,,,,13.0,13.0,13.0,cue2.png,Easy,B,,,,,,,,,,,,,,,,,,,,,,,,,,,40,29,Female,0.2857142857142857,0.5,0.2,1.0,1.6666666666666667,2.25,3.0,2.5555555555555554,3.0,1.7777777777777777,2.0,2.25,1.25,1.0,0.9153846153846156,0.811965811965812,0.5448047312511335,0.09585399833004844,0.010065216746974057,-0.6700724120958735,,,0.019477062709895503,3.6949031091382625,0.003658927978290743,-0.8343178565687475,,,2.2751277108781573e+43,-0.2034626179980648,,,,,,,,,,,,,,,,,,,,
13,240710_093508,LEARNING,1.0,14,1.0,361.0,,,,,,,,,,14.0,14.0,14.0,cue2.png,Easy,B,,,,,,,,,,,,,,,,,,,,,,,,,,,40,29,Female,0.2857142857142857,0.5,0.2,1.0,1.6666666666666667,2.25,3.0,2.5555555555555554,3.0,1.7777777777777777,2.0,2.25,1.25,1.0,0.648076923076923,0.547008547008547,0.5146930857154075,-0.3441447097136508,0.009362446685817434,-0.7496248534863663,,,,,0.004301498551775428,-0.6180518386053442,,,,,,,,,,,,,,,,,,,,,,,,
14,240710_093540,LEARNING,1.0,15,3.0,361.0,,,,,,,,,,15.0,15.0,15.0,cue1.png,Hard,B,,,,,,,,,,,,,,,,,,,,,,,,,,,40,29,Female,0.2857142857142857,0.5,0.2,1.0,1.6666666666666667,2.25,3.0,2.5555555555555554,3.0,1.7777777777777777,2.0,2.25,1.25,1.0,0.85,0.6452991452991453,0.5817785692303844,0.6361247358752867,,,0.009470893347271055,-0.544079719779566,0.006921866928591319,0.0740320593667484,0.004566893438070383,-0.5287295172677832,,,,,,,,,,,,,,,,,,,,,,,,
15,240710_093610,LEARNING,1.0,16,1.0,361.0,,,,,,,,,,16.0,16.0,16.0,cue2.png,Easy,B,,,,,,,,,,,,,,,,,,,,,,,,,,,40,29,Female,0.2857142857142857,0.5,0.2,1.0,1.6666666666666667,2.25,3.0,2.5555555555555554,3.0,1.7777777777777777,2.0,2.25,1.25,1.0,0.8680555555555555,0.861111111111111,0.5714422999996768,0.48508864911917493,,,,,,,,,,,,,,,,,,,,,,,,,,,,,,,,
16,240710_093642,LEARNING,1.0,17,1.0,361.0,,,,,,,,,,17.0,17.0,17.0,cue2.png,Easy,B,,,,,,,,,,,,,,,,,,,,,,,,,,,40,29,Female,0.2857142857142857,0.5,0.2,1.0,1.6666666666666667,2.25,3.0,2.5555555555555554,3.0,1.7777777777777777,2.0,2.25,1.25,1.0,1.0,0.9444444444444444,0.6344046235295965,1.4051094754710733,0.016851313579057527,0.09810284229108603,0.011229478823069681,-0.3334192246513367,0.00627185822944524,-0.1134279947681619,0.005162006663216614,-0.3284359265703855,,,,,,,,,,,,,,,,,,,,,,,,
17,240710_093712,LEARNING,1.0,18,3.0,361.0,,,,,,,,,,18.0,18.0,18.0,cue1.png,Hard,B,,,,,,,,,,,,,,,,,,,,,,,,,,,40,29,Female,0.2857142857142857,0.5,0.2,1.0,1.6666666666666667,2.25,3.0,2.5555555555555554,3.0,1.7777777777777777,2.0,2.25,1.25,1.0,0.5692307692307692,0.5683760683760684,0.4375389923085234,-1.471539138524744,0.01291946850939965,-0.3469757001067896,0.009006219285380375,-0.5997429043664182,0.0045823750701101,-0.6006685577407028,0.004508237616215228,-0.548470945752739,,,,,,,,,,,,,,,,,,,,,,,,
18,240710_093741,LEARNING,1.0,19,3.0,361.0,,,,,,,,,,19.0,19.0,19.0,cue1.png,Hard,B,,,,,,,,,,,,,,,,,,,,,,,,,,,40,29,Female,0.2857142857142857,0.5,0.2,1.0,1.6666666666666667,2.25,3.0,2.5555555555555554,3.0,1.7777777777777777,2.0,2.25,1.25,1.0,0.0833333333333333,0.4444444444444445,0.4401372857152767,-1.4335722416066226,0.0106403108358508,-0.6049726855593021,,,0.006421466426878929,-0.07028155561005626,,,,,,,,,,,,,,,,,,,,,,,,,,
19,240710_093810,LEARNING,1.0,20,3.0,361.0,,,,,,,,,,20.0,20.0,20.0,cue1.png,Hard,B,,,,,,,,,,,,,,,,,,,,,,,,,,,40,29,Female,0.2857142857142857,0.5,0.2,1.0,1.6666666666666667,2.25,3.0,2.5555555555555554,3.0,1.7777777777777777,2.0,2.25,1.25,1.0,0.85,0.7564102564102565,0.432222859999941,-1.5492197602891844,0.015258919142410583,-0.08215364854947968,0.008483432844113447,-0.662367355710532,0.004104175474379882,-0.7385795152719543,0.006832317394289287,0.2337302626026661,,,,,,,,,,,,,,,,,,,,,,,,
20,240710_093841,LEARNING,1.0,21,1.0,361.0,,,,,,,,,,21.0,21.0,21.0,cue2.png,Easy,B,,,,,,,,,,,,,,,,,,,,,,,,,,,40,29,Female,0.2857142857142857,0.5,0.2,1.0,1.6666666666666667,2.25,3.0,2.5555555555555554,3.0,1.7777777777777777,2.0,2.25,1.25,1.0,0.9236111111111112,0.861111111111111,0.593967652940003,0.8142345996522605,0.027063209934576844,1.2540730965890765,0.011738297702529783,-0.2724679438903157,0.011172401268515458,1.2998701112439663,0.006058322605600898,-0.026768393546973225,7.41996268783202e+42,-0.17957712367327072,1.3894648397134367e+43,-0.20396857323704454,,,,,,,,,,,,,,,,,,,,
21,240710_093913,LEARNING,1.0,22,3.0,361.0,,,,,,,,,,22.0,22.0,22.0,cue1.png,Hard,B,,,,,,,,,,,,,,,,,,,,,,,,,,,40,29,Female,0.2857142857142857,0.5,0.2,1.0,1.6666666666666667,2.25,3.0,2.5555555555555554,3.0,1.7777777777777777,2.0,2.25,1.25,1.0,0.85,0.8333333333333334,0.6065878133338022,0.998643461067281,0.01090076785697704,-0.575489369389307,0.010744063806042106,-0.3915669628403312,0.00680931072712029,0.04157127592077626,0.0046312950914834915,-0.5070542496650655,1.7700753149205858e+42,-0.17969127547551517,7.312675692116912e+42,-0.20434458353185858,,,,,,,,,,,,,,,,,,,,
22,240710_093943,LEARNING,1.0,23,3.0,361.0,,,,,,,,,,23.0,23.0,23.0,cue1.png,Hard,B,,,,,,,,,,,,,,,,,,,,,,,,,,,40,29,Female,0.2857142857142857,0.5,0.2,1.0,1.6666666666666667,2.25,3.0,2.5555555555555554,3.0,1.7777777777777777,2.0,2.25,1.25,1.0,1.0,0.8333333333333334,0.4817126666661352,-0.8260626359592498,,,0.012448443305466805,-0.18739978747334635,0.00583326077074383,-0.2399178455341789,,,-3.760921830259883e+42,-0.17980302518850214,-6.24375157482743e+41,-0.20479800577525945,,,,,,,,,,,,,,,,,,,,
23,240710_094013,LEARNING,1.0,24,3.0,361.0,,,,,,,,,,24.0,24.0,24.0,cue1.png,Hard,B,,,,,,,,,,,,,,,,,,,,,,,,,,,40,29,Female,0.2857142857142857,0.5,0.2,1.0,1.6666666666666667,2.25,3.0,2.5555555555555554,3.0,1.7777777777777777,2.0,2.25,1.25,1.0,0.75,0.6666666666666667,0.5478689533343034,0.14062915869629616,0.010490938312029883,-0.6218814151757237,0.013140465598637746,-0.10450261760279496,,,0.0036502857857909667,-0.8372265060393637,-7.249218466736021e+42,-0.17987350364613056,-7.535824882208202e+42,-0.20519283820089462,,,,,,,,,,,,,,,,,,,,
24,240710_094044,LEARNING,1.0,25,1.0,361.0,,,,,,,,,,25.0,25.0,25.0,cue2.png,Easy,B,,,,,,,,,,,,,,,,,,,,,,,,,,,40,29,Female,0.2857142857142857,0.5,0.2,1.0,1.6666666666666667,2.25,3.0,2.5555555555555554,3.0,1.7777777777777777,2.0,2.25,1.25,1.0,0.9,0.8333333333333334,0.5280305333333672,-0.14925467245081966,0.016477565286673115,0.055795136302908936,0.018146985000866707,0.4952270348121267,0.003285094169753434,-0.9747994703400632,0.004365020498551845,-0.5966726484439911,-8.765272307622303e+42,-0.1799041343944649,-1.1162934638836892e+43,-0.20540004516908417,,,,,,,,,,,,,,,,,,,,
25,240710_094116,LEARNING,1.0,26,1.0,361.0,,,,,,,,,,26.0,26.0,26.0,cue2.png,Easy,B,,,,,,,,,,,,,,,,,,,,,,,,,,,40,29,Female,0.2857142857142857,0.5,0.2,1.0,1.6666666666666667,2.25,3.0,2.5555555555555554,3.0,1.7777777777777777,2.0,2.25,1.25,1.0,0.9583333333333334,0.8888888888888888,0.6681107124991286,1.897631067564215,0.01918312026864298,0.36205961173841705,0.01420774733487614,0.02334678300435643,0.0070721608474047515,0.11737625798120757,0.004559047319402078,-0.5313702370748863,-7.32539218040157e+42,-0.17987504267976517,-1.154296742830091e+43,-0.20542175541426588,,,,,,,,,,,,,,,,,,,,
26,240710_094148,LEARNING,1.0,27,3.0,361.0,,,,,,,,,,27.0,27.0,27.0,cue1.png,Hard,B,,,,,,,,,,,,,,,,,,,,,,,,,,,40,29,Female,0.2857142857142857,0.5,0.2,1.0,1.6666666666666667,2.25,3.0,2.5555555555555554,3.0,1.7777777777777777,2.0,2.25,1.25,1.0,0.8125,0.5277777777777777,0.522476245454031,-0.23041528149528936,0.011502561307194558,-0.5073673180617078,0.01279991951081728,-0.14529654457507452,0.0038388039578765567,-0.8151116584800819,0.004087718075210335,-0.6900026161430168,-1.1525556004847693e+41,-0.17972936719363275,-6.900249834768155e+42,-0.20515652951781818,,,,,,,,,,,,,,,,,,,,
27,240710_094221,LEARNING,1.0,28,1.0,361.0,,,,,,,,,,28.0,28.0,28.0,cue2.png,Easy,B,,,,,,,,,,,,,,,,,,,,,,,,,,,40,29,Female,0.2857142857142857,0.5,0.2,1.0,1.6666666666666667,2.25,3.0,2.5555555555555554,3.0,1.7777777777777777,2.0,2.25,1.25,1.0,0.85,0.6666666666666667,0.6511318166667479,1.64953130093431,0.06250457447580308,5.265978599257648,0.015224038417482665,0.14508802652228608,0.015383587661189059,2.5143603637280783,,,-1.3736925032576652e+41,-0.1797298139844151,-3.2610314676425697e+42,-0.20494863081746764,,,,,,,,,,,,,,,,,,,,
28,240710_094252,LEARNING,1.0,29,1.0,361.0,,,,,,,,,,29.0,29.0,29.0,cue2.png,Easy,B,,,,,,,,,,,,,,,,,,,,,,,,,,,40,29,Female,0.2857142857142857,0.5,0.2,1.0,1.6666666666666667,2.25,3.0,2.5555555555555554,3.0,1.7777777777777777,2.0,2.25,1.25,1.0,0.9153846153846156,0.7008547008547009,0.5540087142851137,0.2303448430433534,0.012142703297645167,-0.4349042736157009,0.01266843760801645,-0.16104672739279965,0.006017387431773111,-0.18681641183094724,0.014592346367870872,2.8454753916956688,3.740728681704931e+42,-0.17965145987945638,2.914246570081741e+42,-0.20459585388878887,,,,,,,,,,,,,,,,,,,,
29,240710_094323,LEARNING,1.0,30,3.0,361.0,,,,,,,,,,30.0,30.0,30.0,cue1.png,Hard,B,,,,,,,,,,,,,,,,,,,,,,,,,,,40,29,Female,0.2857142857142857,0.5,0.2,1.0,1.6666666666666667,2.25,3.0,2.5555555555555554,3.0,1.7777777777777777,2.0,2.25,1.25,1.0,0.6875,0.6944444444444444,0.6007925823518342,0.9139621326471715,0.012021298010583657,-0.44864715698150814,0.011576445102566457,-0.29185622459392013,0.0052471758406105184,-0.4089425260881151,,,6.633436482503273e+42,-0.17959301485444384,7.138006995589148e+42,-0.20435456188197026,,,,,,,,,,,,,,,,,,,,
30,240710_094353,LEARNING,1.0,31,3.0,361.0,,,,,,,,,,31.0,31.0,31.0,cue1.png,Hard,B,,,,,,,,,,,,,,,,,,,,,,,,,,,40,29,Female,0.2857142857142857,0.5,0.2,1.0,1.6666666666666667,2.25,3.0,2.5555555555555554,3.0,1.7777777777777777,2.0,2.25,1.25,1.0,0.9583333333333334,0.7777777777777778,0.5254377142851548,-0.18714157670688245,0.012016990235724055,-0.4491347901719117,0.012915225162163547,-0.13148411069684263,,,,,,,,,,,,,,,,,,,,,,,,,,,,
31,240710_094425,LEARNING,1.0,32,1.0,361.0,,,,,,,,,,32.0,32.0,32.0,cue2.png,Easy,B,,,,,,,,,,,,,,,,,,,,,,,,,,,40,29,Female,0.2857142857142857,0.5,0.2,1.0,1.6666666666666667,2.25,3.0,2.5555555555555554,3.0,1.7777777777777777,2.0,2.25,1.25,1.0,1.0,0.8888888888888888,0.6147545499993612,1.1179778088868226,0.023286464649648515,0.8265516005372967,0.012492003240410193,-0.18218175423628663,0.004970989917868485,-0.4885935032158634,,,6.430162569288161e+42,-0.17959712185375395,,,,,,,,,,,,,,,,,,,,,,
32,240710_094456,LEARNING,1.0,33,1.0,361.0,,,,,,,,,,33.0,33.0,33.0,cue2.png,Easy,B,,,,,,,,,,,,,,,,,,,,,,,,,,,40,29,Female,0.2857142857142857,0.5,0.2,1.0,1.6666666666666667,2.25,3.0,2.5555555555555554,3.0,1.7777777777777777,2.0,2.25,1.25,1.0,0.95,0.9444444444444444,0.6343354882371974,1.4040992537181733,0.011569734610005425,-0.49976340814831105,0.012049991107019764,-0.23513027232320344,0.003967184771072713,-0.7780871167727921,0.008953348992517525,0.947592796387535,3.8189207201614025e+42,-0.17964988006705981,6.656856893189868e+42,-0.20438204868569326,,,,,,,,,,,,,,,,,,,,
33,240710_094527,LEARNING,1.0,34,1.0,361.0,,,,,,,,,,34.0,34.0,34.0,cue2.png,Easy,B,,,,,,,,,,,,,,,,,,,,,,,,,,,40,29,Female,0.2857142857142857,0.5,0.2,1.0,1.6666666666666667,2.25,3.0,2.5555555555555554,3.0,1.7777777777777777,2.0,2.25,1.25,1.0,0.9236111111111112,0.8055555555555556,0.5275868374997117,-0.1557380641784883,0.014691219950941553,-0.1464162845850023,0.011502639187981913,-0.3006974158375308,,,0.005909832089537763,-0.07674493143938323,5.332822997558657e+40,-0.179725961082645,1.9476663906183817e+42,-0.2046510719996091,,,,,,,,,,,,,,,,,,,,
34,240710_094558,LEARNING,1.0,35,3.0,361.0,,,,,,,,,,35.0,35.0,35.0,cue1.png,Hard,B,,,,,,,,,,,,,,,,,,,,,,,,,,,40,29,Female,0.2857142857142857,0.5,0.2,1.0,1.6666666666666667,2.25,3.0,2.5555555555555554,3.0,1.7777777777777777,2.0,2.25,1.25,1.0,0.9583333333333334,0.8888888888888888,0.583917000000838,0.6673720078028254,0.012183327855873137,-0.4303056389184197,0.013238810169890952,-0.0927219470818096,,,0.005562660783779895,-0.19359023831398864,-3.369161083454884e+42,-0.1797951099519063,-2.6017099302387162e+42,-0.20491096556165952,,,,,,,,,,,,,,,,,,,,
35,240710_094627,LEARNING,1.0,36,3.0,361.0,,,,,,,,,,36.0,36.0,36.0,cue1.png,Hard,B,,,,,,,,,,,,,,,,,,,,,,,,,,,40,29,Female,0.2857142857142857,0.5,0.2,1.0,1.6666666666666667,2.25,3.0,2.5555555555555554,3.0,1.7777777777777777,2.0,2.25,1.25,1.0,0.85,0.811965811965812,0.5018501250006011,-0.5318091837546427,0.010624915881593429,-0.6067153696375811,0.013692306988742322,-0.03839768152120515,,,0.00474233489818548,-0.46968226622574394,-6.048875837837623e+42,-0.17984925160969945,-7.311306100371293e+42,-0.20518001205026573,,,,,,,,,,,,,,,,,,,,
36,240710_094657,LEARNING,1.0,37,1.0,361.0,,,,,,,,,,37.0,37.0,37.0,cue2.png,Easy,B,,,,,,,,,,,,,,,,,,,,,,,,,,,40,29,Female,0.2857142857142857,0.5,0.2,1.0,1.6666666666666667,2.25,3.0,2.5555555555555554,3.0,1.7777777777777777,2.0,2.25,1.25,1.0,0.9236111111111112,0.9166666666666666,0.5682394333335752,0.4382875802951907,0.015386232789932397,-0.0677419482758225,0.013797979801770284,-0.025739162830804928,0.004953428629420686,-0.49365811248559766,0.0051149803532421125,-0.3442632819105853,-6.80159893569839e+42,-0.1798644598240479,,,,,,,,,,,,,,,,,,,,,,
37,240710_094727,LEARNING,1.0,38,3.0,361.0,,,,,,,,,,38.0,38.0,38.0,cue1.png,Hard,B,,,,,,,,,,,,,,,,,,,,,,,,,,,40,29,Female,0.2857142857142857,0.5,0.2,1.0,1.6666666666666667,2.25,3.0,2.5555555555555554,3.0,1.7777777777777777,2.0,2.25,1.25,1.0,0.7153846153846154,0.6239316239316239,0.4661270071446779,-1.0538040938385245,0.01199700602347619,-0.4513969708785953,0.009457067829078188,-0.545735874995218,0.004275042971337541,-0.6893019744149493,0.013469876422010144,2.4676925994360697,-5.0208066894950744e+42,-0.17982848023172862,-7.867726494011129e+42,-0.20521179884210303,,,,,,,,,,,,,,,,,,,,
38,240710_094759,LEARNING,1.0,39,3.0,361.0,,,,,,,,,,39.0,39.0,39.0,cue1.png,Hard,B,,,,,,,,,,,,,,,,,,,,,,,,,,,40,29,Female,0.2857142857142857,0.5,0.2,1.0,1.6666666666666667,2.25,3.0,2.5555555555555554,3.0,1.7777777777777777,2.0,2.25,1.25,1.0,0.7153846153846154,0.7350427350427351,0.6118911062503685,1.0761364705043757,0.02042348155194729,0.5024665154285152,0.012101597705101882,-0.22894833140905743,0.005780728319198038,-0.2550680061759528,0.006423277046286335,0.09606207345850276,-1.6586627498681668e+42,-0.17976055059618334,-3.6287165798737565e+42,-0.2049696356732525,,,,,,,,,,,,,,,,,,,,
39,240710_094829,LEARNING,1.0,40,3.0,361.0,,,,,,,,,,40.0,40.0,40.0,cue1.png,Hard,B,,,,,,,,,,,,,,,,,,,,,,,,,,,40,29,Female,0.2857142857142857,0.5,0.2,1.0,1.6666666666666667,2.25,3.0,2.5555555555555554,3.0,1.7777777777777777,2.0,2.25,1.25,1.0,0.95,0.7777777777777778,0.5089121928576787,-0.4286165259656674,0.01077763518816326,-0.5894277895931239,0.06241032608963367,5.797521110426959,0.005994905420658241,-0.19330013893520265,0.017291832375749494,3.754024761309383,2.6427520838692917e+42,-0.17967364368582145,2.498495084057314e+42,-0.20461960464647744,,,,,,,,,,,,,,,,,,,,
40,240710_094900,LEARNING,1.0,41,1.0,361.0,,,,,,,,,,41.0,41.0,41.0,cue2.png,Easy,B,,,,,,,,,,,,,,,,,,,,,,,,,,,40,29,Female,0.2857142857142857,0.5,0.2,1.0,1.6666666666666667,2.25,3.0,2.5555555555555554,3.0,1.7777777777777777,2.0,2.25,1.25,1.0,0.85,0.7564102564102565,0.5430729333335572,0.07054854481631515,,,,,,,,,5.383630742187535e+42,-0.17961826625651542,6.342346132135623e+42,-0.20440001583464484,,,,,,,,,,,,,,,,,,,,
41,240710_094929,LEARNING,1.0,42,3.0,361.0,,,,,,,,,,42.0,42.0,42.0,cue1.png,Hard,B,,,,,,,,,,,,,,,,,,,,,,,,,,,40,29,Female,0.2857142857142857,0.5,0.2,1.0,1.6666666666666667,2.25,3.0,2.5555555555555554,3.0,1.7777777777777777,2.0,2.25,1.25,1.0,0.8680555555555555,0.6944444444444444,0.3960934500012497,-2.0771515102476648,0.018312863849635843,0.2635479838329475,0.011878925902144878,-0.2556221285645329,0.0048758925461104136,-0.5160192261043034,0.004806311701164787,-0.44814998791531524,,,,,,,,,,,,,,,,,,,,,,,,
42,240710_095000,LEARNING,1.0,43,3.0,361.0,,,,,,,,,,43.0,43.0,43.0,cue1.png,Hard,B,,,,,,,,,,,,,,,,,,,,,,,,,,,40,29,Female,0.2857142857142857,0.5,0.2,1.0,1.6666666666666667,2.25,3.0,2.5555555555555554,3.0,1.7777777777777777,2.0,2.25,1.25,1.0,0.9,0.6666666666666667,0.5035835666664449,-0.5064797113903556,0.02927581188055453,1.5045360806527242,0.017708719816756452,0.44272736280147096,0.005478836650150804,-0.3421324234627047,0.006082188537913886,-0.01873598378640241,5.698246558976892e+42,-0.17961190967626334,8.060360634405625e+42,-0.20430187031377373,,,,,,,,,,,,,,,,,,,,
43,240710_095030,LEARNING,1.0,44,1.0,361.0,,,,,,,,,,44.0,44.0,44.0,cue2.png,Easy,B,,,,,,,,,,,,,,,,,,,,,,,,,,,40,29,Female,0.2857142857142857,0.5,0.2,1.0,1.6666666666666667,2.25,3.0,2.5555555555555554,3.0,1.7777777777777777,2.0,2.25,1.25,1.0,0.5692307692307692,0.6794871794871795,0.5113899200009958,-0.3924113726919664,0.024130600853230006,0.9221064620384947,,,,,0.007477610142946966,0.45091246628815973,1.5514497762015913e+42,-0.1796956926430823,3.602148880526856e+42,-0.2045565558907348,,,,,,,,,,,,,,,,,,,,
44,240710_095101,LEARNING,1.0,45,1.0,361.0,,,,,,,,,,45.0,45.0,45.0,cue2.png,Easy,B,,,,,,,,,,,,,,,,,,,,,,,,,,,40,29,Female,0.2857142857142857,0.5,0.2,1.0,1.6666666666666667,2.25,3.0,2.5555555555555554,3.0,1.7777777777777777,2.0,2.25,1.25,1.0,0.9236111111111112,0.8055555555555556,0.5718919124992681,0.4916584966124232,0.017077994053494243,0.12376270766343427,0.013279482567103073,-0.08784981123588693,0.006357158605361327,-0.08882768848308505,0.006184929635287877,0.015842954196652936,-3.3122347070324196e+42,-0.1797939597965076,-3.9073561515538947e+42,-0.20498555359819534,,,,,,,,,,,,,,,,,,,,
45,240710_095131,LEARNING,1.0,46,1.0,361.0,,,,,,,,,,46.0,46.0,46.0,cue2.png,Easy,B,,,,,,,,,,,,,,,,,,,,,,,,,,,40,29,Female,0.2857142857142857,0.5,0.2,1.0,1.6666666666666667,2.25,3.0,2.5555555555555554,3.0,1.7777777777777777,2.0,2.25,1.25,1.0,1.0,1.0,0.5872662166677602,0.716311578529898,0.019402479064134448,0.3868906748219864,,,0.0071844200994001794,0.14975140231981915,,,-7.118476725383222e+42,-0.179870862105792,-9.407507414414653e+42,-0.2052997623606069,,,,,,,,,,,,,,,,,,,,
46,240710_095201,LEARNING,1.0,47,3.0,361.0,,,,,,,,,,47.0,47.0,47.0,cue1.png,Hard,B,,,,,,,,,,,,,,,,,,,,,,,,,,,40,29,Female,0.2857142857142857,0.5,0.2,1.0,1.6666666666666667,2.25,3.0,2.5555555555555554,3.0,1.7777777777777777,2.0,2.25,1.25,1.0,0.875,0.7222222222222222,0.4411086769211509,-1.4193780364084192,,,0.01788060291310485,0.4633171940489304,,,0.00675356434260019,0.20722483332521865,,,-8.19650513364698e+42,-0.20523058107635989,,,,,,,,,,,,,,,,,,,,
47,240710_095233,LEARNING,1.0,48,3.0,361.0,,,,,,,,,,48.0,48.0,48.0,cue1.png,Hard,B,,,,,,,,,,,,,,,,,,,,,,,,,,,40,29,Female,0.2857142857142857,0.5,0.2,1.0,1.6666666666666667,2.25,3.0,2.5555555555555554,3.0,1.7777777777777777,2.0,2.25,1.25,1.0,0.9153846153846156,0.8675213675213675,0.6328879411765442,1.3829473430474601,,,,,,,,,2.6264754643305515e+42,-0.17967397254289985,3.310153779422189e+42,-0.20457323678094377,,,,,,,,,,,,,,,,,,,,
48,240710_095303,LEARNING,1.0,49,1.0,361.0,,,,,,,,,,49.0,49.0,49.0,cue2.png,Easy,B,,,,,,,,,,,,,,,,,,,,,,,,,,,40,29,Female,0.2857142857142857,0.5,0.2,1.0,1.6666666666666667,2.25,3.0,2.5555555555555554,3.0,1.7777777777777777,2.0,2.25,1.25,1.0,0.0256410256410256,0.4358974358974358,0.4231284083337717,-1.6821101059440813,0.017147721745651098,0.13165577034523548,0.0135547223461279,-0.054878909948292066,,,0.005271743170805751,-0.2915025864816658,,,,,,,,,,,,,,,,,,,,,,,,
49,240710_095336,LEARNING,1.0,50,1.0,361.0,,,,,,,,,,50.0,50.0,50.0,cue2.png,Easy,B,,,,,,,,,,,,,,,,,,,,,,,,,,,40,29,Female,0.2857142857142857,0.5,0.2,1.0,1.6666666666666667,2.25,3.0,2.5555555555555554,3.0,1.7777777777777777,2.0,2.25,1.25,1.0,0.8680555555555555,0.4722222222222222,0.6411132400004135,1.5031374154060735,0.011624754138789623,-0.4935352859204889,0.013464770119113907,-0.06565426374339223,0.005802909092687943,-0.24867115486514108,0.006303513002830738,0.05575382741966495,-4.318064647017394e+42,-0.179814281847696,,,,,,,,,,,,,,,,,,,,,,
0,240710_095551,TrueCHOICE,9.0,1,3.0,361.0,,,,,,,,,,,2.0,1.0,,,B,,,,,,True,cue2.png,Easy,cue1.png,Hard,Right,Hard,Hard,0.0165013000005274,,,,,,,,,,,,,40,29,Female,0.2857142857142857,0.5,0.2,1.0,1.6666666666666667,2.25,3.0,2.5555555555555554,3.0,1.7777777777777777,2.0,2.25,1.25,1.0,0.5833333333333334,0.4166666666666667,0.4708726083329869,-2.2587687794719975,,,,,,,,,,,,,0.019562376660926657,-0.29083245840626265,0.006601126776748272,-0.6410302224652314,47522389.23042208,-0.4525689571744146,,,,,,,,,,,,,,
1,240710_095621,TrueCHOICE,9.0,2,1.0,361.0,,,,,,,,,,,3.0,2.0,,,B,,,,,,True,cue2.png,Easy,cue1.png,Hard,Left,Easy,Easy,0.0165924000029917,,,,,,,,,,,,,40,29,Female,0.2857142857142857,0.5,0.2,1.0,1.6666666666666667,2.25,3.0,2.5555555555555554,3.0,1.7777777777777777,2.0,2.25,1.25,1.0,0.9153846153846156,0.811965811965812,0.5856788374990174,1.056729807665426,,,,,,,,,,,,,0.01910358953309041,-0.3713733791738888,0.007184350047759754,-0.42312673110826066,,,,,,,,,,,,,,,,
2,240710_095649,TrueCHOICE,9.0,3,1.0,361.0,,,,,,,,,,,4.0,3.0,,,B,,,,,,True,cue1.png,Hard,cue2.png,Easy,Right,Easy,Easy,0.016875199995411,,,,,,,,,,,,,40,29,Female,0.2857142857142857,0.5,0.2,1.0,1.6666666666666667,2.25,3.0,2.5555555555555554,3.0,1.7777777777777777,2.0,2.25,1.25,1.0,0.9153846153846156,0.9230769230769232,0.5549513722220986,0.16934879661761681,,,,,,,,,,,,,0.012927232103404409,-1.4556442407452965,,,2380159.0979176355,-0.45378107448859006,,,,,,,,,,,,,,
3,240710_095717,TrueCHOICE,9.0,4,1.0,361.0,,,,,,,,,,,5.0,4.0,,,B,,,,,,True,cue2.png,Easy,cue1.png,Hard,Left,Easy,Easy,0.0160780000005615,,,,,,,,,,,,,40,29,Female,0.2857142857142857,0.5,0.2,1.0,1.6666666666666667,2.25,3.0,2.5555555555555554,3.0,1.7777777777777777,2.0,2.25,1.25,1.0,1.0,0.8888888888888888,0.5700111125001968,0.6042602816249552,,,,,,,,,,,,,,,0.007202264650901723,-0.4164334889745244,329314.9428511653,-0.453836141854596,,,,,,,,,,,,,,
4,240710_095745,TrueCHOICE,9.0,5,1.0,361.0,,,,,,,,,,,6.0,5.0,,,B,,,,,,True,cue1.png,Hard,cue2.png,Easy,Right,Easy,Easy,0.0165330999952857,,,,,,,,,,,,,40,29,Female,0.2857142857142857,0.5,0.2,1.0,1.6666666666666667,2.25,3.0,2.5555555555555554,3.0,1.7777777777777777,2.0,2.25,1.25,1.0,0.95,0.8888888888888888,0.5170812312503585,-0.9243061365560787,,,,,,,,,,,,,,,0.009154012940956557,0.31277741153594757,107689342081.11827,2.437729395275443,,,,,,,,,,,,,,
5,240710_095813,TrueCHOICE,9.0,6,1.0,361.0,,,,,,,,,,,7.0,6.0,,,B,,,,,,True,cue1.png,Hard,cue2.png,Easy,Right,Easy,Easy,0.0164182000007713,,,,,,,,,,,,,40,29,Female,0.2857142857142857,0.5,0.2,1.0,1.6666666666666667,2.25,3.0,2.5555555555555554,3.0,1.7777777777777777,2.0,2.25,1.25,1.0,1.0,1.0,0.5725046888894414,0.6762724804012393,,,,,,,,,,,,,0.017261892301005742,-0.6946867021671856,,,587382.4416561243,-0.45382921246536095,,,,,,,,,,,,,,
6,240710_095842,TrueCHOICE,9.0,7,1.0,361.0,,,,,,,,,,,8.0,7.0,,,B,,,,,,True,cue2.png,Easy,cue1.png,Hard,Left,Easy,Easy,0.0159037000048556,,,,,,,,,,,,,40,29,Female,0.2857142857142857,0.5,0.2,1.0,1.6666666666666667,2.25,3.0,2.5555555555555554,3.0,1.7777777777777777,2.0,2.25,1.25,1.0,0.9153846153846156,0.8675213675213675,0.5750051764724262,0.7484842681131368,,,,,,,,,,,,,0.027540728047888537,1.1097817435312676,0.0065676563001701126,-0.6535354397058156,1277674.0448245034,-0.4538106773951711,,,,,,,,,,,,,,
7,240710_095910,TrueCHOICE,9.0,8,1.0,361.0,,,,,,,,,,,9.0,8.0,,,B,,,,,,True,cue1.png,Hard,cue2.png,Easy,Right,Easy,Easy,0.0165934999968158,,,,,,,,,,,,,40,29,Female,0.2857142857142857,0.5,0.2,1.0,1.6666666666666667,2.25,3.0,2.5555555555555554,3.0,1.7777777777777777,2.0,2.25,1.25,1.0,0.9153846153846156,0.7564102564102565,0.513480513333343,-1.028291567079023,,,,,,,,,,,,,0.021144326952589703,-0.013118186647895,0.007190407459369167,-0.4208635650038147,,,,,,,,,,,,,,,,
8,240710_095939,TrueCHOICE,9.0,9,1.0,361.0,,,,,,,,,,,10.0,9.0,,,B,,,,,,True,cue2.png,Easy,cue1.png,Hard,Left,Easy,Easy,0.0158021000024746,,,,,,,,,,,,,40,29,Female,0.2857142857142857,0.5,0.2,1.0,1.6666666666666667,2.25,3.0,2.5555555555555554,3.0,1.7777777777777777,2.0,2.25,1.25,1.0,0.9166666666666666,0.8333333333333334,0.5663987266666178,0.4999378923745821,,,,,,,,,,,,,,,0.015112524943084878,2.538992710360355,10574685525.65289,-0.16990333189731088,,,,,,,,,,,,,,
9,240710_100007,TrueCHOICE,9.0,10,1.0,361.0,,,,,,,,,,,11.0,10.0,,,B,,,,,,True,cue1.png,Hard,cue2.png,Easy,Right,Easy,Easy,0.0169800000003306,,,,,,,,,,,,,40,29,Female,0.2857142857142857,0.5,0.2,1.0,1.6666666666666667,2.25,3.0,2.5555555555555554,3.0,1.7777777777777777,2.0,2.25,1.25,1.0,0.8,0.7350427350427351,0.5648888125010672,0.45633295631016063,,,,,,,,,,,,,0.030993221099877247,1.7158732236092606,0.007522517921412078,-0.296780674638656,,,,,,,,,,,,,,,,
0,240710_100228,FalseCHOICE,9.0,1,2.0,361.0,,,,,,,,,,,1.0,1.0,,,B,,,,,,False,cue2.png,Easy,cue1.png,Hard,Left,Easy,Mid,0.0161988000036217,,,,,,,,,,,,,40,29,Female,0.2857142857142857,0.5,0.2,1.0,1.6666666666666667,2.25,3.0,2.5555555555555554,3.0,1.7777777777777777,2.0,2.25,1.25,1.0,0.75,0.5,0.37435874999998,-1.6698627299507447,,,,,,,,,,,,,,,,,,,0.019293749653670967,0.7854517676973247,0.006852819584618784,1.1200083937168355,3.581826036421316e+44,-0.17178384172510577,,,,,,,,
1,240710_100254,FalseCHOICE,9.0,2,2.0,361.0,,,,,,,,,,,2.0,2.0,,,B,,,,,,False,cue1.png,Hard,cue2.png,Easy,Left,Hard,Mid,0.0167370999988634,,,,,,,,,,,,,40,29,Female,0.2857142857142857,0.5,0.2,1.0,1.6666666666666667,2.25,3.0,2.5555555555555554,3.0,1.7777777777777777,2.0,2.25,1.25,1.0,0.648076923076923,0.7136752136752136,0.4354081352948389,-0.9138439433772401,,,,,,,,,,,,,,,,,,,0.017990908282611896,0.2865559994983994,0.006454397342330316,0.8105395035435281,,,,,,,,,,
2,240710_100321,FalseCHOICE,9.0,3,2.0,361.0,,,,,,,,,,,3.0,3.0,,,B,,,,,,False,cue1.png,Hard,cue2.png,Easy,Left,Hard,Mid,0.0151211999982479,,,,,,,,,,,,,40,29,Female,0.2857142857142857,0.5,0.2,1.0,1.6666666666666667,2.25,3.0,2.5555555555555554,3.0,1.7777777777777777,2.0,2.25,1.25,1.0,1.0,0.8888888888888888,0.4757559437503005,-0.4141877872657544,,,,,,,,,,,,,,,,,,,,,,,-3.18861596354093e+43,-0.17434982327906032,,,,,,,,
3,240710_100348,FalseCHOICE,9.0,4,2.0,361.0,,,,,,,,,,,4.0,4.0,,,B,,,,,,False,cue1.png,Hard,cue2.png,Easy,Right,Easy,Mid,0.0170034999973722,,,,,,,,,,,,,40,29,Female,0.2857142857142857,0.5,0.2,1.0,1.6666666666666667,2.25,3.0,2.5555555555555554,3.0,1.7777777777777777,2.0,2.25,1.25,1.0,0.9583333333333334,0.8333333333333334,0.5140629000001354,0.0601950167780297,,,,,,,,,,,,,,,,,,,,,0.0066059433905018465,0.9282507715400529,-3.4811262351212615e+43,-0.17436906542382757,,,,,,,,
4,240710_100416,FalseCHOICE,9.0,5,2.0,361.0,,,,,,,,,,,5.0,5.0,,,B,,,,,,False,cue2.png,Easy,cue1.png,Hard,Right,Hard,Mid,0.016546400001971,,,,,,,,,,,,,40,29,Female,0.2857142857142857,0.5,0.2,1.0,1.6666666666666667,2.25,3.0,2.5555555555555554,3.0,1.7777777777777777,2.0,2.25,1.25,1.0,0.0256410256410256,0.6025641025641025,0.4645974199990936,-0.5523718745517158,,,,,,,,,,,,,,,,,,,0.02451651548392804,2.78540036381161,0.005335854568448064,-0.058272912290646364,8.997340068505729e+47,5.744562178138692,,,,,,,,
5,240710_100443,FalseCHOICE,9.0,6,2.0,361.0,,,,,,,,,,,6.0,6.0,,,B,,,,,,False,cue1.png,Hard,cue2.png,Easy,Right,Easy,Mid,0.0165621000051032,,,,,,,,,,,,,40,29,Female,0.2857142857142857,0.5,0.2,1.0,1.6666666666666667,2.25,3.0,2.5555555555555554,3.0,1.7777777777777777,2.0,2.25,1.25,1.0,0.8194444444444444,0.6666666666666667,0.3911177066659244,-1.4623244226994805,,,,,,,,,,,,,,,,,,,,,,,-5.254960797049096e+42,-0.17417463579569264,,,,,,,,
6,240710_100510,FalseCHOICE,9.0,7,2.0,361.0,,,,,,,,,,,7.0,7.0,,,B,,,,,,False,cue1.png,Hard,cue2.png,Easy,Left,Hard,Mid,0.0163533999948413,,,,,,,,,,,,,40,29,Female,0.2857142857142857,0.5,0.2,1.0,1.6666666666666667,2.25,3.0,2.5555555555555554,3.0,1.7777777777777777,2.0,2.25,1.25,1.0,0.8680555555555555,0.6944444444444444,0.4247024571434719,-1.046420115378837,,,,,,,,,,,,,,,,,,,0.01669122827699822,-0.2111291901316589,0.0061506356337040075,0.5745968555985141,,,,,,,,,,
7,240710_100537,FalseCHOICE,9.0,8,2.0,361.0,,,,,,,,,,,8.0,8.0,,,B,,,,,,False,cue2.png,Easy,cue1.png,Hard,Left,Easy,Mid,0.015363200000138,,,,,,,,,,,,,40,29,Female,0.2857142857142857,0.5,0.2,1.0,1.6666666666666667,2.25,3.0,2.5555555555555554,3.0,1.7777777777777777,2.0,2.25,1.25,1.0,0.8,0.6239316239316239,0.4367888285726491,-0.8967458177945051,,,,,,,,,,,,,,,,,,,0.016091044101033507,-0.4409571278838579,0.005045341160928189,-0.28392512811384785,,,,,,,,,,
8,240710_100606,FalseCHOICE,9.0,9,2.0,361.0,,,,,,,,,,,9.0,9.0,,,B,,,,,,False,cue2.png,Easy,cue1.png,Hard,Right,Hard,Mid,0.0169286000018473,,,,,,,,,,,,,40,29,Female,0.2857142857142857,0.5,0.2,1.0,1.6666666666666667,2.25,3.0,2.5555555555555554,3.0,1.7777777777777777,2.0,2.25,1.25,1.0,0.85,0.7222222222222222,0.4632772307690734,-0.5687207346574592,,,,,,,,,,,,,,,,,,,0.013584989863154765,-1.4005980188837799,0.004860133930750796,-0.42778224724920966,,,,,,,,,,
9,240710_100634,FalseCHOICE,9.0,10,2.0,361.0,,,,,,,,,,,10.0,10.0,,,B,,,,,,False,cue1.png,Hard,cue2.png,Easy,Right,Easy,Mid,0.0164359000045806,,,,,,,,,,,,,40,29,Female,0.2857142857142857,0.5,0.2,1.0,1.6666666666666667,2.25,3.0,2.5555555555555554,3.0,1.7777777777777777,2.0,2.25,1.25,1.0,0.7153846153846154,0.7905982905982906,0.5422931529422331,0.40979070018854064,,,,,,,,,,,,,,,,,,,0.016553184112304976,-0.2639903067033796,0.004519217056572131,-0.6925846490614991,1.6151571687740947e+43,-0.17403381763063744,,,,,,,,
10,240710_100702,FalseCHOICE,9.0,11,2.0,361.0,,,,,,,,,,,11.0,11.0,,,B,,,,,,False,cue2.png,Easy,cue1.png,Hard,Left,Easy,Mid,0.0171065999966231,,,,,,,,,,,,,40,29,Female,0.2857142857142857,0.5,0.2,1.0,1.6666666666666667,2.25,3.0,2.5555555555555554,3.0,1.7777777777777777,2.0,2.25,1.25,1.0,0.9236111111111112,0.8055555555555556,0.519285256250896,0.12486723938412832,,,,,,,,,,,,,,,,,,,0.019983075533347622,1.0494146506084878,0.003912137217481786,-1.1641254018336664,,,,,,,,,,
11,240710_100731,FalseCHOICE,9.0,12,2.0,361.0,,,,,,,,,,,12.0,12.0,,,B,,,,,,False,cue1.png,Hard,cue2.png,Easy,Right,Easy,Mid,0.0163444999998318,,,,,,,,,,,,,40,29,Female,0.2857142857142857,0.5,0.2,1.0,1.6666666666666667,2.25,3.0,2.5555555555555554,3.0,1.7777777777777777,2.0,2.25,1.25,1.0,0.7826923076923077,0.5341880341880343,0.4318713181816168,-0.9576429131679444,,,,,,,,,,,,,,,,,,,0.017958377164204387,0.2740988902379749,0.004278462411665485,-0.8795874437232091,4.9875427066601445e+42,-0.17410725773948535,,,,,,,,
12,240710_100801,FalseCHOICE,9.0,13,2.0,361.0,,,,,,,,,,,13.0,13.0,,,B,,,,,,False,cue2.png,Easy,cue1.png,Hard,Right,Hard,Mid,0.016449199996714,,,,,,,,,,,,,40,29,Female,0.2857142857142857,0.5,0.2,1.0,1.6666666666666667,2.25,3.0,2.5555555555555554,3.0,1.7777777777777777,2.0,2.25,1.25,1.0,0.85,0.6666666666666667,0.5309143166681073,0.2688783232492165,,,,,,,,,,,,,,,,,,,0.015663344990988006,-0.6047355285426378,,,,,,,,,,,,
13,240710_100831,FalseCHOICE,9.0,14,2.0,361.0,,,,,,,,,,,14.0,14.0,,,B,,,,,,False,cue1.png,Hard,cue2.png,Easy,Left,Hard,Mid,0.0160117000050377,,,,,,,,,,,,,40,29,Female,0.2857142857142857,0.5,0.2,1.0,1.6666666666666667,2.25,3.0,2.5555555555555554,3.0,1.7777777777777777,2.0,2.25,1.25,1.0,1.0,0.8333333333333334,0.6357969599989398,1.567716114336281,,,,,,,,,,,,,,,,,,,0.01966349515592786,0.9270380501751373,0.004576067551154689,-0.6484268245303835,,,,,,,,,,
14,240710_100902,FalseCHOICE,9.0,15,2.0,361.0,,,,,,,,,,,15.0,15.0,,,B,,,,,,False,cue2.png,Easy,cue1.png,Hard,Right,Hard,Mid,0.0176135000001522,,,,,,,,,,,,,40,29,Female,0.2857142857142857,0.5,0.2,1.0,1.6666666666666667,2.25,3.0,2.5555555555555554,3.0,1.7777777777777777,2.0,2.25,1.25,1.0,0.9153846153846156,0.6452991452991453,0.6097856923079235,1.245599733605797,,,,,,,,,,,,,,,,,,,0.019983768783697443,1.0496801162849014,0.004200991017723824,-0.9397622626931456,,,,,,,,,,
15,240710_100931,FalseCHOICE,9.0,16,2.0,361.0,,,,,,,,,,,16.0,16.0,,,B,,,,,,False,cue2.png,Easy,cue1.png,Hard,Right,Hard,Mid,0.016653500002576,,,,,,,,,,,,,40,29,Female,0.2857142857142857,0.5,0.2,1.0,1.6666666666666667,2.25,3.0,2.5555555555555554,3.0,1.7777777777777777,2.0,2.25,1.25,1.0,0.85,0.7008547008547009,0.5646551071430232,0.6867149869547388,,,,,,,,,,,,,,,,,,,,,0.004262644242071279,-0.8918739851591858,,,,,,,,,,
16,240710_100959,FalseCHOICE,9.0,17,2.0,361.0,,,,,,,,,,,17.0,17.0,,,B,,,,,,False,cue1.png,Hard,cue2.png,Easy,Left,Hard,Mid,0.0159637000033399,,,,,,,,,,,,,40,29,Female,0.2857142857142857,0.5,0.2,1.0,1.6666666666666667,2.25,3.0,2.5555555555555554,3.0,1.7777777777777777,2.0,2.25,1.25,1.0,0.8,0.6239316239316239,0.4563493285708578,-0.654513968907042,,,,,,,,,,,,,,,,,,,,,0.00496318259379341,-0.3477406431397897,,,,,,,,,,
17,240710_101027,FalseCHOICE,9.0,18,2.0,361.0,,,,,,,,,,,18.0,18.0,,,B,,,,,,False,cue1.png,Hard,cue2.png,Easy,Right,Easy,Mid,0.0154926000031991,,,,,,,,,,,,,40,29,Female,0.2857142857142857,0.5,0.2,1.0,1.6666666666666667,2.25,3.0,2.5555555555555554,3.0,1.7777777777777777,2.0,2.25,1.25,1.0,0.9236111111111112,0.75,0.5059304866663297,-0.04051455189072772,,,,,,,,,,,,,,,,,,,,,,,,,,,,,,,,
18,240710_101055,FalseCHOICE,9.0,19,2.0,361.0,,,,,,,,,,,19.0,19.0,,,B,,,,,,False,cue2.png,Easy,cue1.png,Hard,Left,Easy,Mid,0.0176743000047281,,,,,,,,,,,,,40,29,Female,0.2857142857142857,0.5,0.2,1.0,1.6666666666666667,2.25,3.0,2.5555555555555554,3.0,1.7777777777777777,2.0,2.25,1.25,1.0,1.0,0.8888888888888888,0.5248076875000152,0.1932555081886337,,,,,,,,,,,,,,,,,,,0.01389834645366828,-1.2806046870652217,,,,,,,,,,,,
19,240710_101126,FalseCHOICE,9.0,20,2.0,361.0,,,,,,,,,,,20.0,20.0,,,B,,,,,,False,cue2.png,Easy,cue1.png,Hard,Left,Easy,Mid,0.0160570999942137,,,,,,,,,,,,,40,29,Female,0.2857142857142857,0.5,0.2,1.0,1.6666666666666667,2.25,3.0,2.5555555555555554,3.0,1.7777777777777777,2.0,2.25,1.25,1.0,0.9583333333333334,0.7777777777777778,0.6866434071421931,2.197384522710138,,,,,,,,,,,,,,,,,,,,,0.005457758439979055,0.036414210631600004,4.670260819788452e+42,-0.17410934490858412,,,,,,,,
20,240710_101157,FalseCHOICE,9.0,21,2.0,361.0,,,,,,,,,,,21.0,21.0,,,B,,,,,,False,cue2.png,Easy,cue1.png,Hard,Left,Easy,Mid,0.0160853999987011,,,,,,,,,,,,,40,29,Female,0.2857142857142857,0.5,0.2,1.0,1.6666666666666667,2.25,3.0,2.5555555555555554,3.0,1.7777777777777777,2.0,2.25,1.25,1.0,0.8680555555555555,0.6388888888888888,0.6218789769230241,1.3953596421820809,,,,,,,,,,,,,,,,,,,0.014342092836560835,-1.110681319956673,0.004060558993620069,-1.0488408683316197,2.149575366487043e+42,-0.17412592668335158,,,,,,,,
21,240710_101227,FalseCHOICE,9.0,22,2.0,361.0,,,,,,,,,,,22.0,22.0,,,B,,,,,,False,cue1.png,Hard,cue2.png,Easy,Right,Easy,Mid,0.0164536000011139,,,,,,,,,,,,,40,29,Female,0.2857142857142857,0.5,0.2,1.0,1.6666666666666667,2.25,3.0,2.5555555555555554,3.0,1.7777777777777777,2.0,2.25,1.25,1.0,0.5692307692307692,0.5683760683760684,0.5313493076929052,0.2742651323898778,,,,,,,,,,,,,,,,,,,0.014540421638529198,-1.034735466369335,0.004141267244689363,-0.9861518659737659,-5.603911746891459e+41,-0.1741437536021186,,,,,,,,
22,240710_101255,FalseCHOICE,9.0,23,2.0,361.0,,,,,,,,,,,23.0,23.0,,,B,,,,,,False,cue2.png,Easy,cue1.png,Hard,Left,Easy,Mid,0.0161654999974416,,,,,,,,,,,,,40,29,Female,0.2857142857142857,0.5,0.2,1.0,1.6666666666666667,2.25,3.0,2.5555555555555554,3.0,1.7777777777777777,2.0,2.25,1.25,1.0,0.85,0.811965811965812,0.5293726124996283,0.249786283106972,,,,,,,,,,,,,,,,,,,0.015702709577886005,-0.5896616858964326,,,-2.7674212828547773e+42,-0.17415827206419432,,,,,,,,
23,240710_101323,FalseCHOICE,9.0,24,2.0,361.0,,,,,,,,,,,24.0,24.0,,,B,,,,,,False,cue1.png,Hard,cue2.png,Easy,Right,Easy,Mid,0.0169519999981275,,,,,,,,,,,,,40,29,Female,0.2857142857142857,0.5,0.2,1.0,1.6666666666666667,2.25,3.0,2.5555555555555554,3.0,1.7777777777777777,2.0,2.25,1.25,1.0,0.8125,0.6944444444444444,0.4526877428553624,-0.6998580387317195,,,,,,,,,,,,,,,,,,,0.019077588824427685,0.7026775133979084,0.004323644863980298,-0.8444926074187397,-4.1219453393698215e+42,-0.17416718250273908,,,,,,,,
24,240710_101352,FalseCHOICE,9.0,25,2.0,361.0,,,,,,,,,,,25.0,25.0,,,B,,,,,,False,cue1.png,Hard,cue2.png,Easy,Right,Easy,Mid,0.0135611000005155,,,,,,,,,,,,,40,29,Female,0.2857142857142857,0.5,0.2,1.0,1.6666666666666667,2.25,3.0,2.5555555555555554,3.0,1.7777777777777777,2.0,2.25,1.25,1.0,0.85,0.811965811965812,0.593870499998502,1.0485103719400048,,,,,,,,,,,,,,,,,,,0.02103483568985269,1.4521641356160737,0.005015775537043019,-0.3068898119087866,-4.2738490131519424e+42,-0.17416818176764207,,,,,,,,
25,240710_101420,FalseCHOICE,9.0,26,2.0,361.0,,,,,,,,,,,26.0,26.0,,,B,,,,,,False,cue2.png,Easy,cue1.png,Hard,Left,Easy,Mid,0.0159951000023284,,,,,,,,,,,,,40,29,Female,0.2857142857142857,0.5,0.2,1.0,1.6666666666666667,2.25,3.0,2.5555555555555554,3.0,1.7777777777777777,2.0,2.25,1.25,1.0,0.85,0.5897435897435899,0.4395497416668756,-0.8625554298446401,,,,,,,,,,,,,,,,,,,0.014728985610626952,-0.9625288495055508,0.0044814297531031045,-0.7219354071919524,-3.1683663500096267e+42,-0.17416090959312083,,,,,,,,
26,240710_101450,FalseCHOICE,9.0,27,2.0,361.0,,,,,,,,,,,27.0,27.0,,,B,,,,,,False,cue2.png,Easy,cue1.png,Hard,Left,Easy,Mid,0.0167235999979311,,,,,,,,,,,,,40,29,Female,0.2857142857142857,0.5,0.2,1.0,1.6666666666666667,2.25,3.0,2.5555555555555554,3.0,1.7777777777777777,2.0,2.25,1.25,1.0,0.7826923076923077,0.7008547008547009,0.578801064286381,0.8618946272212026,,,,,,,,,,,,,,,,,,,0.014471064491473326,-1.0612943306556275,0.0051499478100537205,-0.20267338016000708,8.193125120380637e+42,-0.17408617052072378,,,,,,,,
27,240710_101519,FalseCHOICE,9.0,28,2.0,361.0,,,,,,,,,,,28.0,28.0,,,B,,,,,,False,cue1.png,Hard,cue2.png,Easy,Right,Easy,Mid,0.0164153000005171,,,,,,,,,,,,,40,29,Female,0.2857142857142857,0.5,0.2,1.0,1.6666666666666667,2.25,3.0,2.5555555555555554,3.0,1.7777777777777777,2.0,2.25,1.25,1.0,0.0256410256410256,0.3803418803418802,0.4185940363637531,-1.1220651172647491,,,,,,,,,,,,,,,,,,,0.017148618939835488,-0.035981032288220985,0.006912885986145529,1.1666641288746311,7.492435528851633e+41,-0.17413513845814976,,,,,,,,
28,240710_101546,FalseCHOICE,9.0,29,2.0,361.0,,,,,,,,,,,29.0,29.0,,,B,,,,,,False,cue2.png,Easy,cue1.png,Hard,Left,Easy,Mid,0.0160085999959846,,,,,,,,,,,,,40,29,Female,0.2857142857142857,0.5,0.2,1.0,1.6666666666666667,2.25,3.0,2.5555555555555554,3.0,1.7777777777777777,2.0,2.25,1.25,1.0,0.8194444444444444,0.8333333333333334,0.5278589611112289,0.23104164087304926,,,,,,,,,,,,,,,,,,,0.018216731765428023,0.3730303642518967,0.005132948428168867,-0.21587741168023775,2.403489707864556e+42,-0.17412425636371157,,,,,,,,
29,240710_101616,FalseCHOICE,9.0,30,2.0,361.0,,,,,,,,,,,30.0,30.0,,,B,,,,,,False,cue2.png,Easy,cue1.png,Hard,Left,Easy,Mid,0.0145214000003761,,,,,,,,,,,,,40,29,Female,0.2857142857142857,0.5,0.2,1.0,1.6666666666666667,2.25,3.0,2.5555555555555554,3.0,1.7777777777777777,2.0,2.25,1.25,1.0,0.8194444444444444,0.6111111111111112,0.5609546499986858,0.6408895440527801,,,,,,,,,,,,,,,,,,,,,0.008605572472207305,2.481434622720764,3.491249759598924e+42,-0.17411710077349096,,,,,,,,
30,240710_101644,FalseCHOICE,9.0,31,2.0,361.0,,,,,,,,,,,31.0,31.0,,,B,,,,,,False,cue1.png,Hard,cue2.png,Easy,Right,Easy,Mid,0.0164299999960348,,,,,,,,,,,,,40,29,Female,0.2857142857142857,0.5,0.2,1.0,1.6666666666666667,2.25,3.0,2.5555555555555554,3.0,1.7777777777777777,2.0,2.25,1.25,1.0,0.75,0.6111111111111112,0.5264527714280121,0.21362777482242276,,,,,,,,,,,,,,,,,,,,,,,,,,,,,,,,
31,240710_101711,FalseCHOICE,9.0,32,2.0,361.0,,,,,,,,,,,32.0,32.0,,,B,,,,,,False,cue2.png,Easy,cue1.png,Hard,Left,Easy,Mid,0.0168447999967611,,,,,,,,,,,,,40,29,Female,0.2857142857142857,0.5,0.2,1.0,1.6666666666666667,2.25,3.0,2.5555555555555554,3.0,1.7777777777777777,2.0,2.25,1.25,1.0,0.875,0.7222222222222222,0.3453552230768344,-2.029034425535942,,,,,,,,,,,,,,,,,,,0.017965724064186735,0.27691223144128224,0.005433885139473796,0.017870959206426503,2.826919694246253e+42,-0.17412147092269004,,,,,,,,
32,240710_101740,FalseCHOICE,9.0,33,2.0,361.0,,,,,,,,,,,33.0,33.0,,,B,,,,,,False,cue1.png,Hard,cue2.png,Easy,Right,Easy,Mid,0.0163679999968735,,,,,,,,,,,,,40,29,Female,0.2857142857142857,0.5,0.2,1.0,1.6666666666666667,2.25,3.0,2.5555555555555554,3.0,1.7777777777777777,2.0,2.25,1.25,1.0,1.0,0.8888888888888888,0.5778005249985654,0.8495042240313905,,,,,,,,,,,,,,,,,,,0.01612133431806998,-0.42935812478723384,0.007173377610031454,1.3689973452141273,1.2564777772724656e+42,-0.17413180172938336,,,,,,,,
33,240710_101809,FalseCHOICE,9.0,34,2.0,361.0,,,,,,,,,,,34.0,34.0,,,B,,,,,,False,cue1.png,Hard,cue2.png,Easy,Right,Easy,Mid,0.0164829999994253,,,,,,,,,,,,,40,29,Female,0.2857142857142857,0.5,0.2,1.0,1.6666666666666667,2.25,3.0,2.5555555555555554,3.0,1.7777777777777777,2.0,2.25,1.25,1.0,1.0,0.9444444444444444,0.6013971823520157,1.141718734847252,,,,,,,,,,,,,,,,,,,0.018047437758259156,0.3082027761554817,0.004866276325129272,-0.42301122854203266,-4.346484334243883e+41,-0.1741429264311554,,,,,,,,
34,240710_101839,FalseCHOICE,9.0,35,2.0,361.0,,,,,,,,,,,35.0,35.0,,,B,,,,,,False,cue1.png,Hard,cue2.png,Easy,Right,Easy,Mid,0.0165235000022221,,,,,,,,,,,,,40,29,Female,0.2857142857142857,0.5,0.2,1.0,1.6666666666666667,2.25,3.0,2.5555555555555554,3.0,1.7777777777777777,2.0,2.25,1.25,1.0,0.9166666666666666,0.7222222222222222,0.6121238000000281,1.2745542158127123,,,,,,,,,,,,,,,,,,,0.016493475856654317,-0.2868543304689426,,,-2.1924756362383332e+42,-0.17415448991073154,,,,,,,,
35,240710_101907,FalseCHOICE,9.0,36,2.0,361.0,,,,,,,,,,,36.0,36.0,,,B,,,,,,False,cue2.png,Easy,cue1.png,Hard,Left,Easy,Mid,0.0137881999980891,,,,,,,,,,,,,40,29,Female,0.2857142857142857,0.5,0.2,1.0,1.6666666666666667,2.25,3.0,2.5555555555555554,3.0,1.7777777777777777,2.0,2.25,1.25,1.0,0.8194444444444444,0.5,0.4160236166656735,-1.1538964874209103,,,,,,,,,,,,,,,,,,,0.022681624858509275,2.0827674965538234,0.005301463319328568,-0.08498583282327632,-3.107128626005602e+42,-0.1741605067542242,,,,,,,,
36,240710_101936,FalseCHOICE,9.0,37,2.0,361.0,,,,,,,,,,,37.0,37.0,,,B,,,,,,False,cue1.png,Hard,cue2.png,Easy,Right,Easy,Mid,0.0164775999946868,,,,,,,,,,,,,40,29,Female,0.2857142857142857,0.5,0.2,1.0,1.6666666666666667,2.25,3.0,2.5555555555555554,3.0,1.7777777777777777,2.0,2.25,1.25,1.0,0.6875,0.5277777777777778,0.5454459357138798,0.4488338943802253,,,,,,,,,,,,,,,,,,,0.015770188923133623,-0.5638218864145476,0.0074206262839709965,1.5610442858703486,-3.233633667053789e+42,-0.17416133893980884,,,,,,,,
37,240710_102011,FalseCHOICE,9.0,38,2.0,361.0,,,,,,,,,,,39.0,38.0,,,B,,,,,,False,cue2.png,Easy,cue1.png,Hard,Right,Hard,Mid,0.0161047000001417,,,,,,,,,,,,,40,29,Female,0.2857142857142857,0.5,0.2,1.0,1.6666666666666667,2.25,3.0,2.5555555555555554,3.0,1.7777777777777777,2.0,2.25,1.25,1.0,0.7153846153846154,0.5683760683760684,0.5474328000010036,0.4734386749227751,,,,,,,,,,,,,,,,,,,0.014731089757972595,-0.9617231104265445,0.005611544081990941,0.15586505174089285,-2.3438055104205124e+42,-0.17415548540102013,,,,,,,,
38,240710_102041,FalseCHOICE,9.0,39,2.0,361.0,,,,,,,,,,,40.0,39.0,,,B,,,,,,False,cue2.png,Easy,cue1.png,Hard,Right,Hard,Mid,0.0166527000037604,,,,,,,,,,,,,40,29,Female,0.2857142857142857,0.5,0.2,1.0,1.6666666666666667,2.25,3.0,2.5555555555555554,3.0,1.7777777777777777,2.0,2.25,1.25,1.0,0.8680555555555555,0.5833333333333333,0.5566633500014481,0.5877472658616878,,,,,,,,,,,,,,,,,,,0.01439633637753205,-1.089909894022704,0.004961634532034149,-0.34894307840496624,,,,,,,,,,
39,240710_102108,FalseCHOICE,9.0,40,2.0,361.0,,,,,,,,,,,41.0,40.0,,,B,,,,,,False,cue1.png,Hard,cue2.png,Easy,Right,Easy,Mid,0.0168871999994735,,,,,,,,,,,,,40,29,Female,0.2857142857142857,0.5,0.2,1.0,1.6666666666666667,2.25,3.0,2.5555555555555554,3.0,1.7777777777777777,2.0,2.25,1.25,1.0,0.8680555555555555,0.6944444444444444,0.4407631214281927,-0.8475292688051277,,,,,,,,,,,,,,,,,,,0.01939916806450822,0.8258195363491666,0.005314343554844111,-0.07498129048831348,1.3606227044278417e+42,-0.1741311166348893,,,,,,,,
40,240710_102139,FalseCHOICE,9.0,41,2.0,361.0,,,,,,,,,,,42.0,41.0,,,B,,,,,,False,cue1.png,Hard,cue2.png,Easy,Right,Easy,Mid,0.0155295000004116,,,,,,,,,,,,,40,29,Female,0.2857142857142857,0.5,0.2,1.0,1.6666666666666667,2.25,3.0,2.5555555555555554,3.0,1.7777777777777777,2.0,2.25,1.25,1.0,0.9166666666666666,0.7222222222222222,0.6175904923074995,1.3422522289033259,,,,,,,,,,,,,,,,,,,0.01677229849150347,-0.18008505241689488,0.00596120672395432,0.4274606060501491,2.9674739132877894e+42,-0.17412054631767845,,,,,,,,
41,240710_102207,FalseCHOICE,9.0,42,2.0,361.0,,,,,,,,,,,43.0,42.0,,,B,,,,,,False,cue2.png,Easy,cue1.png,Hard,Left,Easy,Mid,0.0149841999955242,,,,,,,,,,,,,40,29,Female,0.2857142857142857,0.5,0.2,1.0,1.6666666666666667,2.25,3.0,2.5555555555555554,3.0,1.7777777777777777,2.0,2.25,1.25,1.0,0.5692307692307692,0.3461538461538461,0.2836512999985845,-2.7931588278887984,,,,,,,,,,,,,,,,,,,0.022531901804015573,2.025434194167206,0.0038328589802956027,-1.225703660958921,,,,,,,,,,
42,240710_102236,FalseCHOICE,9.0,43,2.0,361.0,,,,,,,,,,,44.0,43.0,,,B,,,,,,False,cue1.png,Hard,cue2.png,Easy,Right,Easy,Mid,0.0150896000050124,,,,,,,,,,,,,40,29,Female,0.2857142857142857,0.5,0.2,1.0,1.6666666666666667,2.25,3.0,2.5555555555555554,3.0,1.7777777777777777,2.0,2.25,1.25,1.0,0.9166666666666666,0.7222222222222222,0.520874738461526,0.14455094965175339,,,,,,,,,,,,,,,,,,,0.018016610031877933,0.29639794513274215,0.004630669929578414,-0.606015192703417,2.514336446102124e+42,-0.17412352718282756,,,,,,,,
43,240710_102304,FalseCHOICE,9.0,44,2.0,361.0,,,,,,,,,,,45.0,44.0,,,B,,,,,,False,cue2.png,Easy,cue1.png,Hard,Left,Easy,Mid,0.0154699000049731,,,,,,,,,,,,,40,29,Female,0.2857142857142857,0.5,0.2,1.0,1.6666666666666667,2.25,3.0,2.5555555555555554,3.0,1.7777777777777777,2.0,2.25,1.25,1.0,0.8125,0.6388888888888888,0.4738442769236056,-0.4378613431528506,,,,,,,,,,,,,,,,,,,0.019376633198429066,0.8171902821870267,0.010163414582546,3.691466638460244,5.666766390319431e+41,-0.17413633943443244,,,,,,,,
44,240710_102333,FalseCHOICE,9.0,45,2.0,361.0,,,,,,,,,,,46.0,45.0,,,B,,,,,,False,cue1.png,Hard,cue2.png,Easy,Right,Easy,Mid,0.0142562999972142,,,,,,,,,,,,,40,29,Female,0.2857142857142857,0.5,0.2,1.0,1.6666666666666667,2.25,3.0,2.5555555555555554,3.0,1.7777777777777777,2.0,2.25,1.25,1.0,0.8680555555555555,0.6944444444444444,0.519216935714212,0.12402117665978718,,,,,,,,,,,,,,,,,,,0.015085773134351478,-0.8259045530360237,0.004873608798315839,-0.4173158328075001,-1.9876412295851662e+42,-0.1741531424526458,,,,,,,,
45,240710_102402,FalseCHOICE,9.0,46,2.0,361.0,,,,,,,,,,,47.0,46.0,,,B,,,,,,False,cue1.png,Hard,cue2.png,Easy,Right,Easy,Mid,0.0163720999989891,,,,,,,,,,,,,40,29,Female,0.2857142857142857,0.5,0.2,1.0,1.6666666666666667,2.25,3.0,2.5555555555555554,3.0,1.7777777777777777,2.0,2.25,1.25,1.0,0.648076923076923,0.547008547008547,0.5656667714283685,0.6992431590523355,,,,,,,,,,,,,,,,,,,0.016848326359973263,-0.15097177532320644,0.005507662314175052,0.07517634518030819,-3.6201998649901553e+42,-0.17416388188050716,,,,,,,,
46,240710_102433,FalseCHOICE,9.0,47,2.0,361.0,,,,,,,,,,,48.0,47.0,,,B,,,,,,False,cue2.png,Easy,cue1.png,Hard,Left,Easy,Mid,0.0168507999987923,,,,,,,,,,,,,40,29,Female,0.2857142857142857,0.5,0.2,1.0,1.6666666666666667,2.25,3.0,2.5555555555555554,3.0,1.7777777777777777,2.0,2.25,1.25,1.0,0.8125,0.5277777777777777,0.5976318636365415,1.0950900640983758,,,,,,,,,,,,,,,,,,,0.016288067083836955,-0.365511310348399,0.005356345020229391,-0.04235724117877636,,,,,,,,,,
47,240710_102501,FalseCHOICE,9.0,48,2.0,361.0,,,,,,,,,,,49.0,48.0,,,B,,,,,,False,cue2.png,Easy,cue1.png,Hard,Left,Easy,Mid,0.0160447999951429,,,,,,,,,,,,,40,29,Female,0.2857142857142857,0.5,0.2,1.0,1.6666666666666667,2.25,3.0,2.5555555555555554,3.0,1.7777777777777777,2.0,2.25,1.25,1.0,0.85,0.7564102564102565,0.5056689933325591,-0.04375281337263217,,,,,,,,,,,,,,,,,,,,,,,9.973243731038349e+41,-0.1741335065130455,,,,,,,,
48,240710_102530,FalseCHOICE,9.0,49,2.0,361.0,,,,,,,,,,,50.0,49.0,,,B,,,,,,False,cue1.png,Hard,cue2.png,Easy,Right,Easy,Mid,0.016493499999342,,,,,,,,,,,,,40,29,Female,0.2857142857142857,0.5,0.2,1.0,1.6666666666666667,2.25,3.0,2.5555555555555554,3.0,1.7777777777777777,2.0,2.25,1.25,1.0,0.8680555555555555,0.75,0.5470271066675195,0.4684146803285591,,,,,,,,,,,,,,,,,,,0.013762407896631444,-1.3326595053625685,0.004726560534358945,-0.5315335099815153,4.5597780679651287e+42,-0.1741100716950636,,,,,,,,
49,240710_102559,FalseCHOICE,9.0,50,2.0,361.0,,,,,,,,,,,51.0,50.0,,,B,,,,,,False,cue2.png,Easy,cue1.png,Hard,Left,Easy,Mid,0.0155677000002469,,,,,,,,,,,,,40,29,Female,0.2857142857142857,0.5,0.2,1.0,1.6666666666666667,2.25,3.0,2.5555555555555554,3.0,1.7777777777777777,2.0,2.25,1.25,1.0,0.75,0.4722222222222222,0.4161536800005706,-1.1522858188752452,,,,,,,,,,,,,,,,,,,0.01427978910418915,-1.1345392270769887,,,-1.1066593209700001e+42,-0.17414734710695373,,,,,,,,
0,240710_092751,OFFLINERATING,9.0,1,1.0,,,,,,,,,,,,,,,,,T0,cue2.png,Easy,32.0,1.4699748000057298,,,,,,,,,,,,,,,,,,,,,,40,29,Female,0.2857142857142857,0.5,0.2,1.0,1.6666666666666667,2.25,3.0,2.5555555555555554,3.0,1.7777777777777777,2.0,2.25,1.25,1.0,,,,,,,,,,,,,,,,,,,,,,,,,,,,,-0.04582914843203187,,,0.003994540994104091,-1.4087873514077804,82575180.66104136,1.4141341860113696,
1,240710_092759,OFFLINERATING,9.0,2,3.0,,,,,,,,,,,,,,,,,T0,cue1.png,Hard,60.0,1.4853750999973272,,,,,,,,,,,,,,,,,,,,,,40,29,Female,0.2857142857142857,0.5,0.2,1.0,1.6666666666666667,2.25,3.0,2.5555555555555554,3.0,1.7777777777777777,2.0,2.25,1.25,1.0,,,,,,,,,,,,,,,,,,,,,,,,,,,,,0.9807437764454819,,,,,1016372.3904756714,-0.6940910394657689,
2,240710_095406,OFFLINERATING,9.0,3,1.0,,,,,,,,,,,,,,,,,T1,cue2.png,Easy,22.0,1.9037959999986924,,,,,,,,,,,,,,,,,,,,,,40,29,Female,0.2857142857142857,0.5,0.2,1.0,1.6666666666666667,2.25,3.0,2.5555555555555554,3.0,1.7777777777777777,2.0,2.25,1.25,1.0,,,,,,,,,,,,,,,,,,,,,,,,,,,,,-0.4124623358882868,0.015856552263816798,1.3905791998176285,,,12389.087381401492,-0.7200431465456009,
3,240710_095414,OFFLINERATING,9.0,4,3.0,,,,,,,,,,,,,,,,,T1,cue1.png,Hard,34.0,2.0367305999970995,,,,,,,,,,,,,,,,,,,,,,40,29,Female,0.2857142857142857,0.5,0.2,1.0,1.6666666666666667,2.25,3.0,2.5555555555555554,3.0,1.7777777777777777,2.0,2.25,1.25,1.0,,,,,,,,,,,,,,,,,,,,,,,,,,,,,0.02749748905921912,0.012231163090166277,-0.47231624550088863,,,,,
4,240710_100027,OFFLINERATING,9.0,5,1.0,,,,,,,,,,,,,,,,,T2,cue2.png,Easy,91.0,2.2354219000044395,,,,,,,,,,,,,,,,,,,,,,40,29,Female,0.2857142857142857,0.5,0.2,1.0,1.6666666666666667,2.25,3.0,2.5555555555555554,3.0,1.7777777777777777,2.0,2.25,1.25,1.0,,,,,,,,,,,,,,,,,,,,,,,,,,,,,2.117306657559872,,,0.00600025025099298,0.5972085606687965,,,
5,240710_100036,OFFLINERATING,9.0,6,3.0,,,,,,,,,,,,,,,,,T2,cue1.png,Hard,9.0,2.235968499997398,,,,,,,,,,,,,,,,,,,,,,40,29,Female,0.2857142857142857,0.5,0.2,1.0,1.6666666666666667,2.25,3.0,2.5555555555555554,3.0,1.7777777777777777,2.0,2.25,1.25,1.0,,,,,,,,,,,,,,,,,,,,,,,,,,,,,-0.8890854795814183,,,0.006214589847731285,0.8115787907389865,,,
6,240710_102622,OFFLINERATING,9.0,7,1.0,,,,,,,,,,,,,,,,,T3,cue2.png,Easy,11.0,2.2203785000019707,,,,,,,,,,,,,,,,,,,,,,40,29,Female,0.2857142857142857,0.5,0.2,1.0,1.6666666666666667,2.25,3.0,2.5555555555555554,3.0,1.7777777777777777,2.0,2.25,1.25,1.0,,,,,,,,,,,,,,,,,,,,,,,,,,,,,-0.8157588420901672,0.011363304201880873,-0.9182629543167408,,,,,
7,240710_102630,OFFLINERATING,9.0,8,3.0,,,,,,,,,,,,,,,,,T3,cue1.png,Hard,7.0,2.202550599999085,,,,,,,,,,,,,,,,,,,,,,40,29,Female,0.2857142857142857,0.5,0.2,1.0,1.6666666666666667,2.25,3.0,2.5555555555555554,3.0,1.7777777777777777,2.0,2.25,1.25,1.0,,,,,,,,,,,,,,,,,,,,,,,,,,,,,-0.9624121170726692,,,,,,,
0,240710_100054,LEARNINGCHECK,9.0,1,,,,,,,,,,,,1.0,1.0,1.0,,,B,,,,,,,,,,,,,,,cue2.png,Easy,Left,Left,Easy,0.0137947000039275,1.0,,,,,,40,29,Female,0.2857142857142857,0.5,0.2,1.0,1.6666666666666667,2.25,3.0,2.5555555555555554,3.0,1.7777777777777777,2.0,2.25,1.25,1.0,,,,,,,,,,,,,,,,,,,,,,,,,,,,,,,,,,,,
1,240710_100100,LEARNINGCHECK,9.0,2,,,,,,,,,,,,2.0,2.0,2.0,,,B,,,,,,,,,,,,,,,cue1.png,Hard,Right,Right,Hard,0.0123254000063752,1.0,,,,,,40,29,Female,0.2857142857142857,0.5,0.2,1.0,1.6666666666666667,2.25,3.0,2.5555555555555554,3.0,1.7777777777777777,2.0,2.25,1.25,1.0,,,,,,,,,,,,,,,,,,,,,,,,,,,,,,,,,,,,
2,240710_102645,LEARNINGCHECK,9.0,1,,,,,,,,,,,,1.0,1.0,1.0,,,B,,,,,,,,,,,,,,,cue2.png,Easy,Middle,Middle,Mid,0.0144158999974024,1.0,,,,,,40,29,Female,0.2857142857142857,0.5,0.2,1.0,1.6666666666666667,2.25,3.0,2.5555555555555554,3.0,1.7777777777777777,2.0,2.25,1.25,1.0,,,,,,,,,,,,,,,,,,,,,,,,,,,,,,,,,,,,
3,240710_102649,LEARNINGCHECK,9.0,2,,,,,,,,,,,,2.0,2.0,2.0,,,B,,,,,,,,,,,,,,,cue1.png,Hard,Middle,Middle,Mid,0.0161766999954124,1.0,,,,,,40,29,Female,0.2857142857142857,0.5,0.2,1.0,1.6666666666666667,2.25,3.0,2.5555555555555554,3.0,1.7777777777777777,2.0,2.25,1.25,1.0,,,,,,,,,,,,,,,,,,,,,,,,,,,,,,,,,,,,
0,240710_102705,DEMANDRATING,9.0,-1,,,,,,,,,,,,,,,,,,,,,,,,,,,,,,,,,,,,,,,1.0,MentalDemand,1.0,97.0,4.6697462000011,40,29,Female,0.2857142857142857,0.5,0.2,1.0,1.6666666666666667,2.25,3.0,2.5555555555555554,3.0,1.7777777777777777,2.0,2.25,1.25,1.0,,,,,,,,,,,,,,,,,,,,,,,,,,,,,,,,,,,,0.7420779913935045
1,240710_102715,DEMANDRATING,9.0,-1,,,,,,,,,,,,,,,,,,,,,,,,,,,,,,,,,,,,,,,2.0,Effort,1.0,9.0,7.981241200002842,40,29,Female,0.2857142857142857,0.5,0.2,1.0,1.6666666666666667,2.25,3.0,2.5555555555555554,3.0,1.7777777777777777,2.0,2.25,1.25,1.0,,,,,,,,,,,,,,,,,,,,,,,,,,,,,,,,,,,,-1.70677938020506
2,240710_102723,DEMANDRATING,9.0,-1,,,,,,,,,,,,,,,,,,,,,,,,,,,,,,,,,,,,,,,3.0,Frustration,1.0,2.0,6.731247099996836,40,29,Female,0.2857142857142857,0.5,0.2,1.0,1.6666666666666667,2.25,3.0,2.5555555555555554,3.0,1.7777777777777777,2.0,2.25,1.25,1.0,,,,,,,,,,,,,,,,,,,,,,,,,,,,,,,,,,,,-1.9015748529458547
3,240710_102732,DEMANDRATING,9.0,-1,,,,,,,,,,,,,,,,,,,,,,,,,,,,,,,,,,,,,,,4.0,MentalDemand,2.0,74.0,7.007981499999005,40,29,Female,0.2857142857142857,0.5,0.2,1.0,1.6666666666666667,2.25,3.0,2.5555555555555554,3.0,1.7777777777777777,2.0,2.25,1.25,1.0,,,,,,,,,,,,,,,,,,,,,,,,,,,,,,,,,,,,0.10203572381660699
4,240710_102739,DEMANDRATING,9.0,-1,,,,,,,,,,,,,,,,,,,,,,,,,,,,,,,,,,,,,,,5.0,Effort,2.0,72.0,6.322239699999045,40,29,Female,0.2857142857142857,0.5,0.2,1.0,1.6666666666666667,2.25,3.0,2.5555555555555554,3.0,1.7777777777777777,2.0,2.25,1.25,1.0,,,,,,,,,,,,,,,,,,,,,,,,,,,,,,,,,,,,0.046379874462094156
5,240710_102747,DEMANDRATING,9.0,-1,,,,,,,,,,,,,,,,,,,,,,,,,,,,,,,,,,,,,,,6.0,Frustration,2.0,92.0,5.680457400005253,40,29,Female,0.2857142857142857,0.5,0.2,1.0,1.6666666666666667,2.25,3.0,2.5555555555555554,3.0,1.7777777777777777,2.0,2.25,1.25,1.0,,,,,,,,,,,,,,,,,,,,,,,,,,,,,,,,,,,,0.6029383680072224
6,240710_102752,DEMANDRATING,9.0,-1,,,,,,,,,,,,,,,,,,,,,,,,,,,,,,,,,,,,,,,7.0,MentalDemand,3.0,100.0,3.6596561999976975,40,29,Female,0.2857142857142857,0.5,0.2,1.0,1.6666666666666667,2.25,3.0,2.5555555555555554,3.0,1.7777777777777777,2.0,2.25,1.25,1.0,,,,,,,,,,,,,,,,,,,,,,,,,,,,,,,,,,,,0.8255617654252737
7,240710_102757,DEMANDRATING,9.0,-1,,,,,,,,,,,,,,,,,,,,,,,,,,,,,,,,,,,,,,,8.0,Effort,3.0,98.0,3.7417677999983434,40,29,Female,0.2857142857142857,0.5,0.2,1.0,1.6666666666666667,2.25,3.0,2.5555555555555554,3.0,1.7777777777777777,2.0,2.25,1.25,1.0,,,,,,,,,,,,,,,,,,,,,,,,,,,,,,,,,,,,0.7699059160707609
8,240710_102803,DEMANDRATING,9.0,-1,,,,,,,,,,,,,,,,,,,,,,,,,,,,,,,,,,,,,,,9.0,Frustration,3.0,89.0,4.729844800000137,40,29,Female,0.2857142857142857,0.5,0.2,1.0,1.6666666666666667,2.25,3.0,2.5555555555555554,3.0,1.7777777777777777,2.0,2.25,1.25,1.0,,,,,,,,,,,,,,,,,,,,,,,,,,,,,,,,,,,,0.5194545939754531
