,END,Phase,Block,TrialN,NbackLevel,ISI,Letter_Resp,Letter_RT,Letter_Accuracy,Trial_A_measure,Trial_ACC,Trial_RT,TrialCountCali,CaliEnd_A_measure,ISI_calibrated,TrialIndex,TrialNumber_total,TrialNumber_valid,CueLearning,TrialDemandLearning,CueMapping,OfflineRatingTimePoint,CueFigure,TrialDemand,OfflineRating,OfflineRatingRT,PhaseType,CueLeft,CueDemandLeft,CueRight,CueDemandRight,Choice,ChoiceDemand,TaskDemand,ChoiceRT,CueCheck,CueDemandCheck,CorrectAnswer,Answer,AnswerDemand,AnswerRT,AnswerACC,DemandRatingQuesIndex,QuesTLX,DemandLevel,DemandRating,DemandRatingRT,PID,Age,Gender,BAI_bis,BAI_bas_d,BAI_bas_rr,BAI_bas_fs,NFC,BFI_ext,BFI_agr,BFI_con,BFI_neu,BFI_open,UPPS_lps,UPPS_lpm,UPPS_pu,UPPS_ss,Task_A_measure,Task_ACC,Task_RT,Task_RT_z,cue_i_on_zyg_values,cue_i_on_zyg_zvalues,cue_e_on_zyg_values,cue_e_on_zyg_zvalues,cue_i_on_cor_values,cue_i_on_cor_zvalues,cue_e_on_cor_values,cue_e_on_cor_zvalues,cue_i_on_scr_values,cue_i_on_scr_zvalues,cue_e_on_scr_values,cue_e_on_scr_zvalues,cue_e_true_zyg_values,cue_e_true_zyg_zvalues,cue_e_true_cor_values,cue_e_true_cor_zvalues,cue_e_true_scr_values,cue_e_true_scr_zvalues,cue_e_false_zyg_values,cue_e_false_zyg_zvalues,cue_e_false_cor_values,cue_e_false_cor_zvalues,cue_e_false_scr_values,cue_e_false_scr_zvalues,OfflineRating_z,cue_i_off_zyg_values,cue_i_off_zyg_zvalues,cue_i_off_cor_values,cue_i_off_cor_zvalues,cue_i_off_scr_values,cue_i_off_scr_zvalues,DemandRating_z
0,240712_144145,PRACTICE,0.0,1,3.0,1068.0,,,,,,,,,,10.0,1.0,1.0,cue1.png,Hard,B,,,,,,,,,,,,,,,,,,,,,,,,,,,42,21,Female,0.0,1.0,0.4,0.5,1.7222222222222223,3.125,2.2222222222222223,0.7777777777777778,2.625,3.0,1.5,1.5,0.25,2.5,,,,,,,,,,,,,,,,,,,,,,,,,,,,,,,,,,,,
0,240712_144548,LEARNING,1.0,1,1.0,1068.0,,,,,,,,,,1.0,1.0,1.0,cue2.png,Easy,B,,,,,,,,,,,,,,,,,,,,,,,,,,,42,21,Female,0.0,1.0,0.4,0.5,1.7222222222222223,3.125,2.2222222222222223,0.7777777777777778,2.625,3.0,1.5,1.5,0.25,2.5,0.15625,0.625,0.5863264909077605,-0.1789153124262423,0.007894979176225458,-1.0318477254621272,0.010496512130496237,-0.7842992013071703,,,,,,,,,,,,,,,,,,,,,,,,,,,,
1,240712_144612,LEARNING,1.0,2,3.0,1068.0,,,,,,,,,,2.0,2.0,2.0,cue1.png,Hard,B,,,,,,,,,,,,,,,,,,,,,,,,,,,42,21,Female,0.0,1.0,0.4,0.5,1.7222222222222223,3.125,2.2222222222222223,0.7777777777777778,2.625,3.0,1.5,1.5,0.25,2.5,0.5833333333333334,0.75,0.6790982909098436,0.8099639514745339,,,0.014328822562105874,-0.6302100598632533,0.02219989508277817,-0.7177847734412618,,,4.652086857161892e+44,-0.17387502947663191,3.3253780924527852e+44,2.7483281899102354,,,,,,,,,,,,,,,,,,,,
2,240712_144636,LEARNING,1.0,3,1.0,1068.0,,,,,,,,,,3.0,3.0,3.0,cue2.png,Easy,B,,,,,,,,,,,,,,,,,,,,,,,,,,,42,21,Female,0.0,1.0,0.4,0.5,1.7222222222222223,3.125,2.2222222222222223,0.7777777777777778,2.625,3.0,1.5,1.5,0.25,2.5,0.15625,0.625,0.599540272722317,-0.038066101417824356,,,0.017499443478066354,-0.502726062023529,,,,,-3.426233023509927e+45,-0.175194532391597,-3.77785297245757e+44,-2.9821407560552182,,,,,,,,,,,,,,,,,,,,
3,240712_144659,LEARNING,1.0,4,3.0,1068.0,,,,,,,,,,4.0,4.0,4.0,cue1.png,Hard,B,,,,,,,,,,,,,,,,,,,,,,,,,,,42,21,Female,0.0,1.0,0.4,0.5,1.7222222222222223,3.125,2.2222222222222223,0.7777777777777778,2.625,3.0,1.5,1.5,0.25,2.5,0.84375,0.875,0.5991737181849947,-0.041973303617616725,,,,,0.030890414310372566,-0.34956754862664746,,,-3.786587193582525e+45,-0.17531672062242754,-4.600848419116357e+44,-3.646085066278592,,,,,,,,,,,,,,,,,,,,
4,240712_144722,LEARNING,1.0,5,3.0,1068.0,,,,,,,,,,5.0,5.0,5.0,cue1.png,Hard,B,,,,,,,,,,,,,,,,,,,,,,,,,,,42,21,Female,0.0,1.0,0.4,0.5,1.7222222222222223,3.125,2.2222222222222223,0.7777777777777778,2.625,3.0,1.5,1.5,0.25,2.5,0.84375,0.875,0.5620178545412439,-0.43802752579294196,,,0.012272136734504665,-0.7129050708887128,0.012578956804998528,-1.1254238453977636,,,1.745495786490135e+49,5.7445623158672685,,,,,,,,,,,,,,,,,,,,,,
5,240712_144745,LEARNING,1.0,6,1.0,1068.0,,,,,,,,,,6.0,6.0,6.0,cue2.png,Easy,B,,,,,,,,,,,,,,,,,,,,,,,,,,,42,21,Female,0.0,1.0,0.4,0.5,1.7222222222222223,3.125,2.2222222222222223,0.7777777777777778,2.625,3.0,1.5,1.5,0.25,2.5,0.15625,0.625,0.5565536272796717,-0.49627217591386963,0.025013869997670326,-0.21873037213260532,,,,,,,,,,,,,,,,,,,,,,,,,,,,,,
6,240712_144808,LEARNING,1.0,7,3.0,1068.0,,,,,,,,,,7.0,7.0,7.0,cue1.png,Hard,B,,,,,,,,,,,,,,,,,,,,,,,,,,,42,21,Female,0.0,1.0,0.4,0.5,1.7222222222222223,3.125,2.2222222222222223,0.7777777777777778,2.625,3.0,1.5,1.5,0.25,2.5,0.5833333333333334,0.75,0.5412947454526809,-0.6589206512984674,0.014361660558006374,-0.7246916775135024,0.012626942432039727,-0.6986390801011073,,,0.07255273345649776,1.5338368346452758,,,5.131696583823526e+43,0.47960386519672854,,,,,,,,,,,,,,,,,,,,
7,240712_144831,LEARNING,1.0,8,3.0,1068.0,,,,,,,,,,8.0,8.0,8.0,cue1.png,Hard,B,,,,,,,,,,,,,,,,,,,,,,,,,,,42,21,Female,0.0,1.0,0.4,0.5,1.7222222222222223,3.125,2.2222222222222223,0.7777777777777778,2.625,3.0,1.5,1.5,0.25,2.5,0.5833333333333334,0.75,0.5709205090904355,-0.3431317656894429,0.07930133103812442,2.3598290158913375,0.015469454719559128,-0.5843476400562355,0.13714929340676862,4.152620243392895,0.06635838488374775,1.2365496790537922,,,,,,,,,,,,,,,,,,,,,,,,
8,240712_144856,LEARNING,1.0,9,1.0,1068.0,,,,,,,,,,9.0,9.0,9.0,cue2.png,Easy,B,,,,,,,,,,,,,,,,,,,,,,,,,,,42,21,Female,0.0,1.0,0.4,0.5,1.7222222222222223,3.125,2.2222222222222223,0.7777777777777778,2.625,3.0,1.5,1.5,0.25,2.5,0.5833333333333334,0.75,0.6597260909038596,0.6034705247907145,0.02573900170687556,-0.18428788503725818,0.09933053720707953,2.787530090535653,0.03292358132753813,-0.2634222796226754,0.030916260434908683,-0.4644344101959687,,,,,,,,,,,,,,,,,,,,,,,,
9,240712_144920,LEARNING,1.0,10,1.0,1068.0,,,,,,,,,,10.0,10.0,10.0,cue2.png,Easy,B,,,,,,,,,,,,,,,,,,,,,,,,,,,42,21,Female,0.0,1.0,0.4,0.5,1.7222222222222223,3.125,2.2222222222222223,0.7777777777777778,2.625,3.0,1.5,1.5,0.25,2.5,0.15625,0.625,0.6945677636381746,0.9748571712264583,,,,,0.06619729924916146,1.146384862102719,0.029407115727307878,-0.5368632269196947,1.7169900837081458e+45,-0.1734505777368992,1.888710375741199e+44,1.5893091940399755,,,,,,,,,,,,,,,,,,,,
10,240712_144954,LEARNING,1.0,11,3.0,1068.0,,,,,,,,,,11.0,11.0,11.0,cue1.png,Hard,B,,,,,,,,,,,,,,,,,,,,,,,,,,,42,21,Female,0.0,1.0,0.4,0.5,1.7222222222222223,3.125,2.2222222222222223,0.7777777777777778,2.625,3.0,1.5,1.5,0.25,2.5,,,,,0.026022649753522087,-0.17081509924920985,,,,,0.02641961923016138,-0.680243006979748,1.5599579599992522e+45,-0.17350382390129268,,,,,,,,,,,,,,,,,,,,,,
11,240712_145017,LEARNING,1.0,12,1.0,1068.0,,,,,,,,,,12.0,12.0,12.0,cue2.png,Easy,B,,,,,,,,,,,,,,,,,,,,,,,,,,,42,21,Female,0.0,1.0,0.4,0.5,1.7222222222222223,3.125,2.2222222222222223,0.7777777777777778,2.625,3.0,1.5,1.5,0.25,2.5,0.15625,0.625,0.5622780272705395,-0.4352542755485014,,,0.01762642011858223,-0.4976205983953368,0.043009128663803714,0.16390227413981753,0.024344469472396407,-0.7798362671372762,,,5.357829738784728e+43,0.4978469578163647,,,,,,,,,,,,,,,,,,,,
12,240712_145039,LEARNING,1.0,13,1.0,1068.0,,,,,,,,,,13.0,13.0,13.0,cue2.png,Easy,B,,,,,,,,,,,,,,,,,,,,,,,,,,,42,21,Female,0.0,1.0,0.4,0.5,1.7222222222222223,3.125,2.2222222222222223,0.7777777777777778,2.625,3.0,1.5,1.5,0.25,2.5,1.0,1.0,0.45574968181741,-1.5707682122608737,0.009553379902725465,-0.9530765934094474,0.008697899529340747,-0.8566176307371822,0.019076569817286202,-0.8501200380363977,0.01995417401883251,-0.9905409816471978,,,-4.4023405941607936e+43,-0.2895461663714584,,,,,,,,,,,,,,,,,,,,
13,240712_145102,LEARNING,1.0,14,1.0,1068.0,,,,,,,,,,14.0,14.0,14.0,cue2.png,Easy,B,,,,,,,,,,,,,,,,,,,,,,,,,,,42,21,Female,0.0,1.0,0.4,0.5,1.7222222222222223,3.125,2.2222222222222223,0.7777777777777778,2.625,3.0,1.5,1.5,0.25,2.5,1.0,1.0,0.5046622363628227,-1.0493962982386367,0.00718369840368013,-1.065632317307396,0.007113512836902671,-0.9203224869876736,0.022274054214588848,-0.7146426516652367,0.013979308814719631,-1.2772944086963751,,,,,,,,,,,,,,,,,,,,,,,,
14,240712_145126,LEARNING,1.0,15,3.0,1068.0,,,,,,,,,,15.0,15.0,15.0,cue1.png,Hard,B,,,,,,,,,,,,,,,,,,,,,,,,,,,42,21,Female,0.0,1.0,0.4,0.5,1.7222222222222223,3.125,2.2222222222222223,0.7777777777777778,2.625,3.0,1.5,1.5,0.25,2.5,0.5833333333333334,0.75,0.6837729272691914,0.8597921423895726,0.059016083184397126,1.3963152451396905,0.07521010239048531,1.817698142297084,0.05351102809288709,0.6088676624886186,0.0722823929335152,1.5208623040429528,-7.701508304797768e+44,-0.17429391291481516,-6.963258070597528e+43,-0.49614592270482677,,,,,,,,,,,,,,,,,,,,
15,240712_145149,LEARNING,1.0,16,1.0,1068.0,,,,,,,,,,16.0,16.0,16.0,cue2.png,Easy,B,,,,,,,,,,,,,,,,,,,,,,,,,,,42,21,Female,0.0,1.0,0.4,0.5,1.7222222222222223,3.125,2.2222222222222223,0.7777777777777778,2.625,3.0,1.5,1.5,0.25,2.5,1.0,1.0,0.5975774818242908,-0.0589880110755836,0.050454854552656234,0.9896718685974635,0.0204084262405899,-0.3857619839949812,,,0.04614114081623868,0.26625766010461516,,,,,,,,,,,,,,,,,,,,,,,,
16,240712_145213,LEARNING,1.0,17,1.0,1068.0,,,,,,,,,,17.0,17.0,17.0,cue2.png,Easy,B,,,,,,,,,,,,,,,,,,,,,,,,,,,42,21,Female,0.0,1.0,0.4,0.5,1.7222222222222223,3.125,2.2222222222222223,0.7777777777777778,2.625,3.0,1.5,1.5,0.25,2.5,1.0,1.0,0.5772089636381927,-0.2761014579437694,0.05039071594309021,0.9866253968954986,0.009903513642285073,-0.8081424231851068,0.05622729136371531,0.7239557138762098,0.01689689023857563,-1.1372700828906945,,,,,,,,,,,,,,,,,,,,,,,,
17,240712_145238,LEARNING,1.0,18,3.0,1068.0,,,,,,,,,,18.0,18.0,18.0,cue1.png,Hard,B,,,,,,,,,,,,,,,,,,,,,,,,,,,42,21,Female,0.0,1.0,0.4,0.5,1.7222222222222223,3.125,2.2222222222222223,0.7777777777777778,2.625,3.0,1.5,1.5,0.25,2.5,0.84375,0.875,0.7691726363634437,1.7700903306813631,0.09295125869444659,3.0081766900960463,0.006607405331000083,-0.9406720052364071,,,0.02752260967936869,-0.6273068685887117,,,,,,,,,,,,,,,,,,,,,,,,
18,240712_145303,LEARNING,1.0,19,3.0,1068.0,,,,,,,,,,19.0,19.0,19.0,cue1.png,Hard,B,,,,,,,,,,,,,,,,,,,,,,,,,,,42,21,Female,0.0,1.0,0.4,0.5,1.7222222222222223,3.125,2.2222222222222223,0.7777777777777778,2.625,3.0,1.5,1.5,0.25,2.5,0.84375,0.875,0.7101377181825228,1.140821453351391,0.026106491851735913,-0.16683274632060657,0.015979797896755393,-0.5638278143742372,0.044556673285030324,0.22947172641091962,0.029393560790224944,-0.5375137729201788,6.026396330918434e+44,-0.17382842964314638,,,,,,,,,,,,,,,,,,,,,,
19,240712_145328,LEARNING,1.0,20,3.0,1068.0,,,,,,,,,,20.0,20.0,20.0,cue1.png,Hard,B,,,,,,,,,,,,,,,,,,,,,,,,,,,42,21,Female,0.0,1.0,0.4,0.5,1.7222222222222223,3.125,2.2222222222222223,0.7777777777777778,2.625,3.0,1.5,1.5,0.25,2.5,0.84375,0.875,0.7477045818152626,1.5412566336041225,0.02335707143153494,-0.29742540437199244,0.06435435347255161,1.3812113126556371,0.03349664818762901,-0.23914144169691884,0.06194514407055887,1.0247437412890248,,,5.550889449877702e+43,0.513421879553045,,,,,,,,,,,,,,,,,,,,
20,240712_145350,LEARNING,1.0,21,1.0,1068.0,,,,,,,,,,21.0,21.0,21.0,cue2.png,Easy,B,,,,,,,,,,,,,,,,,,,,,,,,,,,42,21,Female,0.0,1.0,0.4,0.5,1.7222222222222223,3.125,2.2222222222222223,0.7777777777777778,2.625,3.0,1.5,1.5,0.25,2.5,1.0,1.0,0.4865976636382667,-1.2419513783183578,0.0493808926567092,0.9386605581383022,0.05516808576808307,1.011850810964493,0.07947786855329576,1.7090824691224686,0.10840334993408554,3.2544257995138763,3.6490968877025946e+44,-0.17390903867649335,3.196965429203626e+43,0.3235211375052403,,,,,,,,,,,,,,,,,,,,
21,240712_145415,LEARNING,1.0,22,3.0,1068.0,,,,,,,,,,22.0,22.0,22.0,cue1.png,Hard,B,,,,,,,,,,,,,,,,,,,,,,,,,,,42,21,Female,0.0,1.0,0.4,0.5,1.7222222222222223,3.125,2.2222222222222223,0.7777777777777778,2.625,3.0,1.5,1.5,0.25,2.5,1.0,1.0,0.6915708909112833,0.9429127086192216,0.05259044731278145,1.0911087870879654,0.05244758506338022,0.9024652000213936,0.07460951048579367,1.5028101797375606,0.05750075037315873,0.811442674177423,5.497553656125918e+43,-0.17401413058017456,-3.512992423929904e+42,0.03726801794819928,,,,,,,,,,,,,,,,,,,,
22,240712_145439,LEARNING,1.0,23,3.0,1068.0,,,,,,,,,,23.0,23.0,23.0,cue1.png,Hard,B,,,,,,,,,,,,,,,,,,,,,,,,,,,42,21,Female,0.0,1.0,0.4,0.5,1.7222222222222223,3.125,2.2222222222222223,0.7777777777777778,2.625,3.0,1.5,1.5,0.25,2.5,0.84375,0.875,0.7246592363649556,1.2956101737453403,0.013607167198411237,-0.7605287916149707,0.0996591381396741,2.8007424428449887,0.03231991544004373,-0.2889995980759444,0.07533822146984723,1.6675215633455207,,,-3.288121641237903e+43,-0.199657536107516,,,,,,,,,,,,,,,,,,,,
23,240712_145503,LEARNING,1.0,24,3.0,1068.0,,,,,,,,,,24.0,24.0,24.0,cue1.png,Hard,B,,,,,,,,,,,,,,,,,,,,,,,,,,,42,21,Female,0.0,1.0,0.4,0.5,1.7222222222222223,3.125,2.2222222222222223,0.7777777777777778,2.625,3.0,1.5,1.5,0.25,2.5,0.15625,0.625,0.6150478818136352,0.12723362395927715,0.04635584020607232,0.7949758610396128,0.011895964512629593,-0.7280301646769617,0.05268168008897792,0.5737281947068406,0.021269205001864265,-0.9274283208292384,-4.0343589244823375e+44,-0.1741695678864555,,,,,,,,,,,,,,,,,,,,,,
24,240712_145526,LEARNING,1.0,25,1.0,1068.0,,,,,,,,,,25.0,25.0,25.0,cue2.png,Easy,B,,,,,,,,,,,,,,,,,,,,,,,,,,,42,21,Female,0.0,1.0,0.4,0.5,1.7222222222222223,3.125,2.2222222222222223,0.7777777777777778,2.625,3.0,1.5,1.5,0.25,2.5,1.0,1.0,0.5816302545453337,-0.2289737435128049,0.015947123864821142,-0.6493849452441807,0.011598982011931222,-0.7399712063470278,0.05267552701661908,0.5734674890839981,0.02635161482671768,-0.6835067619057157,-4.5930097453953495e+44,-0.17418851051599285,-4.983969724168208e+43,-0.33646858290442605,,,,,,,,,,,,,,,,,,,,
25,240712_145550,LEARNING,1.0,26,1.0,1068.0,,,,,,,,,,26.0,26.0,26.0,cue2.png,Easy,B,,,,,,,,,,,,,,,,,,,,,,,,,,,42,21,Female,0.0,1.0,0.4,0.5,1.7222222222222223,3.125,2.2222222222222223,0.7777777777777778,2.625,3.0,1.5,1.5,0.25,2.5,1.0,1.0,0.6139406454537741,0.115431297428165,0.05590754997689478,1.248665358194042,0.011723774356574318,-0.7349535686613585,0.07101139510461252,1.3503580620304299,0.024179719460735404,-0.7877431619100091,-3.7597616278191886e+44,-0.17416025689170178,-3.645400597490516e+43,-0.22848070045544908,,,,,,,,,,,,,,,,,,,,
26,240712_145612,LEARNING,1.0,27,3.0,1068.0,,,,,,,,,,27.0,27.0,27.0,cue1.png,Hard,B,,,,,,,,,,,,,,,,,,,,,,,,,,,42,21,Female,0.0,1.0,0.4,0.5,1.7222222222222223,3.125,2.2222222222222223,0.7777777777777778,2.625,3.0,1.5,1.5,0.25,2.5,0.84375,0.875,0.4877849999968682,-1.2292952446196463,,,0.03215209723209658,0.08642632453957744,0.021662603642677122,-0.7405498071302119,0.03660657402841851,-0.19133755057137863,-1.5468271764067506e+43,-0.17403801653745515,5.949673147799492e+43,0.5455934022898873,,,,,,,,,,,,,,,,,,,,
27,240712_145635,LEARNING,1.0,28,1.0,1068.0,,,,,,,,,,28.0,28.0,28.0,cue2.png,Easy,B,,,,,,,,,,,,,,,,,,,,,,,,,,,42,21,Female,0.0,1.0,0.4,0.5,1.7222222222222223,3.125,2.2222222222222223,0.7777777777777778,2.625,3.0,1.5,1.5,0.25,2.5,1.0,1.0,0.5007807545453861,-1.0907700441655757,0.028842957246127416,-0.03685542932188499,0.031108051717526626,0.0444474504792925,0.03055631222796285,-0.3637234509804523,0.03733008887657953,-0.15661369402507175,3.5543790759837063e+43,-0.17402071946088862,1.0848226815850736e+43,0.1531258861883382,,,,,,,,,,,,,,,,,,,,
28,240712_145657,LEARNING,1.0,29,1.0,1068.0,,,,,,,,,,29.0,29.0,29.0,cue2.png,Easy,B,,,,,,,,,,,,,,,,,,,,,,,,,,,42,21,Female,0.0,1.0,0.4,0.5,1.7222222222222223,3.125,2.2222222222222223,0.7777777777777778,2.625,3.0,1.5,1.5,0.25,2.5,1.0,1.0,0.49974706363388,-1.101788430223064,0.027110422892137186,-0.1191477789351123,0.022551672502849958,-0.2995865599660291,0.015943825555872444,-0.9828543854076064,0.052729956980959745,0.582476612480346,2.2624426051105463e+44,-0.17395605709549192,2.9677026957419554e+43,0.3050255689032377,,,,,,,,,,,,,,,,,,,,
29,240712_145721,LEARNING,1.0,30,3.0,1068.0,,,,,,,,,,30.0,30.0,30.0,cue1.png,Hard,B,,,,,,,,,,,,,,,,,,,,,,,,,,,42,21,Female,0.0,1.0,0.4,0.5,1.7222222222222223,3.125,2.2222222222222223,0.7777777777777778,2.625,3.0,1.5,1.5,0.25,2.5,0.84375,0.875,0.6691000181811184,0.7033897061107597,0.014844354227083568,-0.7017645730204183,0.03560695514773563,0.22533889426267867,0.03412837670455851,-0.2123751098762112,0.04704419738094146,0.3095983139773628,3.5673420705816287e+44,-0.17391181080383236,4.052941707887317e+43,0.392576268031842,,,,,,,,,,,,,,,,,,,,
30,240712_145746,LEARNING,1.0,31,3.0,1068.0,,,,,,,,,,31.0,31.0,31.0,cue1.png,Hard,B,,,,,,,,,,,,,,,,,,,,,,,,,,,42,21,Female,0.0,1.0,0.4,0.5,1.7222222222222223,3.125,2.2222222222222223,0.7777777777777778,2.625,3.0,1.5,1.5,0.25,2.5,0.84375,0.875,0.7288068272808398,1.339820447252689,0.05754238281636174,1.326317056860075,0.04723599245045775,0.69291802329558,,,0.06537032981354163,1.1891296674190717,3.9215072144250156e+44,-0.17389980183711518,,,,,,,,,,,,,,,,,,,,,,
31,240712_145808,LEARNING,1.0,32,1.0,1068.0,,,,,,,,,,32.0,32.0,32.0,cue2.png,Easy,B,,,,,,,,,,,,,,,,,,,,,,,,,,,42,21,Female,0.0,1.0,0.4,0.5,1.7222222222222223,3.125,2.2222222222222223,0.7777777777777778,2.625,3.0,1.5,1.5,0.25,2.5,1.0,1.0,0.4711404454508077,-1.4067139736633323,0.016243050479703626,-0.6353289489543054,0.051166955136769096,0.8509737643925706,0.037838573729514775,-0.05517409388778013,,,3.3344564986601418e+44,-0.17391970744507654,3.2834907558760683e+43,0.33050149183983785,,,,,,,,,,,,,,,,,,,,
32,240712_145838,LEARNING,1.0,33,1.0,1068.0,,,,,,,,,,33.0,33.0,33.0,cue2.png,Easy,B,,,,,,,,,,,,,,,,,,,,,,,,,,,42,21,Female,0.0,1.0,0.4,0.5,1.7222222222222223,3.125,2.2222222222222223,0.7777777777777778,2.625,3.0,1.5,1.5,0.25,2.5,0.21875,0.3295454545454546,0.6505376199958846,0.5055281721830469,0.010263542788273513,-0.9193450992400753,,,0.02472927867582098,-0.6106148123916906,0.019564752930742377,-1.009230580116833,2.0493833458497266e+44,-0.17396328146976403,1.531379869453344e+43,0.18915149304657547,,,,,,,,,,,,,,,,,,,,
33,240712_145912,LEARNING,1.0,34,1.0,1068.0,,,,,,,,,,34.0,34.0,34.0,cue2.png,Easy,B,,,,,,,,,,,,,,,,,,,,,,,,,,,42,21,Female,0.0,1.0,0.4,0.5,1.7222222222222223,3.125,2.2222222222222223,0.7777777777777778,2.625,3.0,1.5,1.5,0.25,2.5,,,,,0.04169426974845547,0.5735594227673237,0.028884957930052253,-0.04493847458454764,,,,,,,-6.086084388831378e+42,0.016509825704079713,,,,,,,,,,,,,,,,,,,,
34,240712_145946,LEARNING,1.0,35,3.0,1068.0,,,,,,,,,,35.0,35.0,35.0,cue1.png,Hard,B,,,,,,,,,,,,,,,,,,,,,,,,,,,42,21,Female,0.0,1.0,0.4,0.5,1.7222222222222223,3.125,2.2222222222222223,0.7777777777777778,2.625,3.0,1.5,1.5,0.25,2.5,,,,,,,,,0.014708505247030493,-1.0351948962524142,,,-1.9530713141764803e+44,-0.17409899596802822,-2.295106368633221e+43,-0.11954690574042735,,,,,,,,,,,,,,,,,,,,
35,240712_150010,LEARNING,1.0,36,3.0,1068.0,,,,,,,,,,36.0,36.0,36.0,cue1.png,Hard,B,,,,,,,,,,,,,,,,,,,,,,,,,,,42,21,Female,0.0,1.0,0.4,0.5,1.7222222222222223,3.125,2.2222222222222223,0.7777777777777778,2.625,3.0,1.5,1.5,0.25,2.5,1.0,1.0,0.6697540727221746,0.7103614472335583,0.009250713465121524,-0.9674527194828666,,,,,,,-3.280831699206026e+44,-0.17414401742355376,-3.6610547296309337e+43,-0.22974358374457426,,,,,,,,,,,,,,,,,,,,
36,240712_150032,LEARNING,1.0,37,1.0,1068.0,,,,,,,,,,37.0,37.0,37.0,cue2.png,Easy,B,,,,,,,,,,,,,,,,,,,,,,,,,,,42,21,Female,0.0,1.0,0.4,0.5,1.7222222222222223,3.125,2.2222222222222223,0.7777777777777778,2.625,3.0,1.5,1.5,0.25,2.5,1.0,1.0,0.4613681272656487,-1.5108797095154685,0.018857485319960343,-0.5111478697047674,,,0.026859841935427307,-0.5203428654344568,0.0394953804296189,-0.05269423271784984,-3.590950221495119e+44,-0.17415453286550872,-3.802602344111396e+43,-0.24116281256795785,,,,,,,,,,,,,,,,,,,,
37,240712_150057,LEARNING,1.0,38,3.0,1068.0,,,,,,,,,,38.0,38.0,38.0,cue1.png,Hard,B,,,,,,,,,,,,,,,,,,,,,,,,,,,42,21,Female,0.0,1.0,0.4,0.5,1.7222222222222223,3.125,2.2222222222222223,0.7777777777777778,2.625,3.0,1.5,1.5,0.25,2.5,1.0,1.0,0.7683812363671181,1.761654587860808,0.010960200072856934,-0.8862550974796464,0.009078629851409392,-0.8413092653278115,0.026396245553982834,-0.5399854401229238,,,-2.67182508260379e+44,-0.17412336733893513,-2.6856261102683e+43,-0.15105174110022868,,,,,,,,,,,,,,,,,,,,
38,240712_150122,LEARNING,1.0,39,3.0,1068.0,,,,,,,,,,39.0,39.0,39.0,cue1.png,Hard,B,,,,,,,,,,,,,,,,,,,,,,,,,,,42,21,Female,0.0,1.0,0.4,0.5,1.7222222222222223,3.125,2.2222222222222223,0.7777777777777778,2.625,3.0,1.5,1.5,0.25,2.5,1.0,1.0,0.6733144090950108,0.7483120185443491,0.019820895613096724,-0.4653875668968221,0.00669736281248485,-0.9370550041255074,0.02152823305793256,-0.7462430876483952,0.035236571700033054,-0.2570884670036786,-7.609225859015503e+43,-0.17405857280767864,-5.344625577579464e+42,0.022491479199178533,,,,,,,,,,,,,,,,,,,,
39,240712_150145,LEARNING,1.0,40,3.0,1068.0,,,,,,,,,,40.0,40.0,40.0,cue1.png,Hard,B,,,,,,,,,,,,,,,,,,,,,,,,,,,42,21,Female,0.0,1.0,0.4,0.5,1.7222222222222223,3.125,2.2222222222222223,0.7777777777777778,2.625,3.0,1.5,1.5,0.25,2.5,0.15625,0.5340909090909091,0.4768327700032387,-1.3460379739180877,0.007087114380405489,-1.0702198893760615,,,0.015945277277478374,-0.982792875975668,0.039990543770075875,-0.02892971586692315,1.2056343543796135e+44,-0.17399189115576044,1.5339609788076117e+43,0.18935972176482507,,,,,,,,,,,,,,,,,,,,
40,240712_150208,LEARNING,1.0,41,1.0,1068.0,,,,,,,,,,41.0,41.0,41.0,cue2.png,Easy,B,,,,,,,,,,,,,,,,,,,,,,,,,,,42,21,Female,0.0,1.0,0.4,0.5,1.7222222222222223,3.125,2.2222222222222223,0.7777777777777778,2.625,3.0,1.5,1.5,0.25,2.5,1.0,1.0,0.5427706363685005,-0.6431887379109851,0.01688354961019313,-0.6049063612279395,0.07255545166931915,1.7109602206809167,,,0.057622400989058305,0.817281087232806,2.9493108786550926e+44,-0.1739327668920953,3.4286311799915984e+43,0.34221056740837696,,,,,,,,,,,,,,,,,,,,
41,240712_150232,LEARNING,1.0,42,3.0,1068.0,,,,,,,,,,42.0,42.0,42.0,cue1.png,Hard,B,,,,,,,,,,,,,,,,,,,,,,,,,,,42,21,Female,0.0,1.0,0.4,0.5,1.7222222222222223,3.125,2.2222222222222223,0.7777777777777778,2.625,3.0,1.5,1.5,0.25,2.5,1.0,1.0,0.6592273636355954,0.5981544583360673,0.00957293282086785,-0.9521478640182949,,,0.06335919551314455,1.0261344312545948,0.01853934140089335,-1.0584434510812761,,,3.9543013588607115e+43,0.38461854496538433,,,,,,,,,,,,,,,,,,,,
42,240712_150257,LEARNING,1.0,43,3.0,1068.0,,,,,,,,,,43.0,43.0,43.0,cue1.png,Hard,B,,,,,,,,,,,,,,,,,,,,,,,,,,,42,21,Female,0.0,1.0,0.4,0.5,1.7222222222222223,3.125,2.2222222222222223,0.7777777777777778,2.625,3.0,1.5,1.5,0.25,2.5,0.84375,0.875,0.7343988454535562,1.3994272546470843,0.036692988754650775,0.33600732857174415,0.028667758724934364,-0.05367159775819921,0.03162207792952192,-0.3185669673857072,0.018658271848384627,-1.0527355878519702,2.824635863776798e+44,-0.17393699434962515,,,,,,,,,,,,,,,,,,,,,,
43,240712_150319,LEARNING,1.0,44,1.0,1068.0,,,,,,,,,,44.0,44.0,44.0,cue2.png,Easy,B,,,,,,,,,,,,,,,,,,,,,,,,,,,42,21,Female,0.0,1.0,0.4,0.5,1.7222222222222223,3.125,2.2222222222222223,0.7777777777777778,2.625,3.0,1.5,1.5,0.25,2.5,0.84375,0.875,0.5371308545449707,-0.7033046707492825,0.051395243946759185,1.034338718991431,0.05063767602830119,0.8296925647446164,0.0492817303094848,0.42967235183626956,0.03783004825783694,-0.132618999406311,7.496256033380766e+43,-0.17400735341682483,7.506809756917313e+42,0.12616929908486227,,,,,,,,,,,,,,,,,,,,
44,240712_150342,LEARNING,1.0,45,1.0,1068.0,,,,,,,,,,45.0,45.0,45.0,cue2.png,Easy,B,,,,,,,,,,,,,,,,,,,,,,,,,,,42,21,Female,0.0,1.0,0.4,0.5,1.7222222222222223,3.125,2.2222222222222223,0.7777777777777778,2.625,3.0,1.5,1.5,0.25,2.5,1.0,1.0,0.5261033818136308,-0.8208494323795233,,,,,0.037380741613680955,-0.07457243669197608,0.021104498885340994,-0.9353331089299805,-1.6568765273670875e+44,-0.17408895264954127,-2.308547822073463e+43,-0.120631283129028,,,,,,,,,,,,,,,,,,,,
45,240712_150404,LEARNING,1.0,46,1.0,1068.0,,,,,,,,,,46.0,46.0,46.0,cue2.png,Easy,B,,,,,,,,,,,,,,,,,,,,,,,,,,,42,21,Female,0.0,1.0,0.4,0.5,1.7222222222222223,3.125,2.2222222222222223,0.7777777777777778,2.625,3.0,1.5,1.5,0.25,2.5,1.0,1.0,0.4761007909123277,-1.3538403335208393,0.008917743045553053,-0.9832682316629767,0.009621308500716547,-0.8194892983277577,0.031270000625345636,-0.3334844797309263,,,-3.7183253210848606e+44,-0.17415885187701555,-4.2247863747478324e+43,-0.27522213648599736,,,,,,,,,,,,,,,,,,,,
46,240712_150429,LEARNING,1.0,47,3.0,1068.0,,,,,,,,,,47.0,47.0,47.0,cue1.png,Hard,B,,,,,,,,,,,,,,,,,,,,,,,,,,,42,21,Female,0.0,1.0,0.4,0.5,1.7222222222222223,3.125,2.2222222222222223,0.7777777777777778,2.625,3.0,1.5,1.5,0.25,2.5,1.0,1.0,0.7547324818257369,1.6161688869933,,,0.02389106265421164,-0.2457324992982261,0.021272176623636382,-0.7570921965639004,0.03281199246470644,-0.37345199674550295,-2.7022591462502586e+44,-0.17412439929158138,-2.6480518333203317e+43,-0.1480204694824279,,,,,,,,,,,,,,,,,,,,
47,240712_150454,LEARNING,1.0,48,3.0,1068.0,,,,,,,,,,48.0,48.0,48.0,cue1.png,Hard,B,,,,,,,,,,,,,,,,,,,,,,,,,,,42,21,Female,0.0,1.0,0.4,0.5,1.7222222222222223,3.125,2.2222222222222223,0.7777777777777778,2.625,3.0,1.5,1.5,0.25,2.5,0.84375,0.875,0.6902034363645891,0.9283366472997004,0.026243784628195082,-0.16031157972224874,0.03990186807652201,0.39802830906436665,0.03581323696557755,-0.14098759512991607,0.06114862958166321,0.9865163919543599,7.932041479353455e+43,-0.1740058757635302,2.1846146486359323e+43,0.24185063210488883,,,,,,,,,,,,,,,,,,,,
48,240712_150516,LEARNING,1.0,49,1.0,1068.0,,,,,,,,,,49.0,49.0,49.0,cue2.png,Easy,B,,,,,,,,,,,,,,,,,,,,,,,,,,,42,21,Female,0.0,1.0,0.4,0.5,1.7222222222222223,3.125,2.2222222222222223,0.7777777777777778,2.625,3.0,1.5,1.5,0.25,2.5,1.0,1.0,0.4863910090987867,-1.2441541639588019,0.011776995555666005,-0.8474587415638041,0.02050269629167254,-0.3819715835317553,0.03564445859536695,-0.14813873322191284,0.04563669588553825,0.24204768921918676,,,,,,,,,,,,,,,,,,,,,,,,
49,240712_150539,LEARNING,1.0,50,1.0,1068.0,,,,,,,,,,50.0,50.0,50.0,cue2.png,Easy,B,,,,,,,,,,,,,,,,,,,,,,,,,,,42,21,Female,0.0,1.0,0.4,0.5,1.7222222222222223,3.125,2.2222222222222223,0.7777777777777778,2.625,3.0,1.5,1.5,0.25,2.5,1.0,1.0,0.5107006999976214,-0.9850307100519549,,,0.009422517383110752,-0.8274822710227406,0.013682652937083827,-1.0786602497883482,0.024669617096986816,-0.764231363518025,-2.626137723352071e+44,-0.1741218181803401,-3.742034573753273e+42,0.0354202406270253,,,,,,,,,,,,,,,,,,,,
0,240712_150715,TrueCHOICE,9.0,1,1.0,1068.0,,,,,,,,,,,2.0,1.0,,,B,,,,,,True,cue2.png,Easy,cue1.png,Hard,Left,Easy,Easy,0.0160589999868534,,,,,,,,,,,,,42,21,Female,0.0,1.0,0.4,0.5,1.7222222222222223,3.125,2.2222222222222223,0.7777777777777778,2.625,3.0,1.5,1.5,0.25,2.5,1.0,1.0,0.5354639818198682,-0.46533020985305246,,,,,,,,,,,,,0.01221140633435157,-0.9280786180597835,,,74700666.55575705,-0.09335718970292163,,,,,,,,,,,,,,
1,240712_150738,TrueCHOICE,9.0,2,1.0,1068.0,,,,,,,,,,,3.0,2.0,,,B,,,,,,True,cue2.png,Easy,cue1.png,Hard,Left,Easy,Easy,0.0160467999812681,,,,,,,,,,,,,42,21,Female,0.0,1.0,0.4,0.5,1.7222222222222223,3.125,2.2222222222222223,0.7777777777777778,2.625,3.0,1.5,1.5,0.25,2.5,1.0,1.0,0.6058670909101651,0.4511479345838541,,,,,,,,,,,,,,,0.039022428608167584,-0.02421303549772746,22798425.26603525,-0.4238483000377015,,,,,,,,,,,,,,
2,240712_150800,TrueCHOICE,9.0,3,3.0,1068.0,,,,,,,,,,,4.0,3.0,,,B,,,,,,True,cue1.png,Hard,cue2.png,Easy,Left,Hard,Hard,0.013799000007566,,,,,,,,,,,,,42,21,Female,0.0,1.0,0.4,0.5,1.7222222222222223,3.125,2.2222222222222223,0.7777777777777778,2.625,3.0,1.5,1.5,0.25,2.5,0.84375,0.875,0.6708350545430387,1.2968736351595775,,,,,,,,,,,,,,,,,,,,,,,,,,,,,,,,
3,240712_150823,TrueCHOICE,9.0,4,1.0,1068.0,,,,,,,,,,,5.0,4.0,,,B,,,,,,True,cue2.png,Easy,cue1.png,Hard,Left,Easy,Easy,0.0173259000002872,,,,,,,,,,,,,42,21,Female,0.0,1.0,0.4,0.5,1.7222222222222223,3.125,2.2222222222222223,0.7777777777777778,2.625,3.0,1.5,1.5,0.25,2.5,1.0,1.0,0.5594096545431636,-0.15361548605310862,,,,,,,,,,,,,0.02282749003676031,0.41956210841858244,0.025737449919599673,-1.0983747737513798,1394308.4184940327,-0.5601404941106405,,,,,,,,,,,,,,
4,240712_150845,TrueCHOICE,9.0,5,3.0,1068.0,,,,,,,,,,,6.0,5.0,,,B,,,,,,True,cue1.png,Hard,cue2.png,Easy,Left,Hard,Hard,0.0165044000023044,,,,,,,,,,,,,42,21,Female,0.0,1.0,0.4,0.5,1.7222222222222223,3.125,2.2222222222222223,0.7777777777777778,2.625,3.0,1.5,1.5,0.25,2.5,0.84375,0.875,0.5877368272684346,0.2151357670073633,,,,,,,,,,,,,,,,,,,,,,,,,,,,,,,,
5,240712_150905,TrueCHOICE,9.0,6,1.0,1068.0,,,,,,,,,,,7.0,6.0,,,B,,,,,,True,cue1.png,Hard,cue2.png,Easy,Right,Easy,Easy,0.0173455000040121,,,,,,,,,,,,,42,21,Female,0.0,1.0,0.4,0.5,1.7222222222222223,3.125,2.2222222222222223,0.7777777777777778,2.625,3.0,1.5,1.5,0.25,2.5,1.0,1.0,0.4500068454442292,-1.5777753672677195,,,,,,,,,,,,,0.023350122423940214,0.4859067897232751,,,1022917.7727432956,-0.5625053497282805,,,,,,,,,,,,,,
6,240712_150928,TrueCHOICE,9.0,7,1.0,1068.0,,,,,,,,,,,8.0,7.0,,,B,,,,,,True,cue2.png,Easy,cue1.png,Hard,Left,Easy,Easy,0.0161417000053916,,,,,,,,,,,,,42,21,Female,0.0,1.0,0.4,0.5,1.7222222222222223,3.125,2.2222222222222223,0.7777777777777778,2.625,3.0,1.5,1.5,0.25,2.5,0.84375,0.875,0.6185050090954808,0.6156630527041114,,,,,,,,,,,,,0.03036401218997434,1.3762731211033439,0.05212415772066554,1.0351319922605642,606395.779211496,-0.5651575823236471,,,,,,,,,,,,,,
7,240712_150949,TrueCHOICE,9.0,8,1.0,1068.0,,,,,,,,,,,9.0,8.0,,,B,,,,,,True,cue1.png,Hard,cue2.png,Easy,Right,Easy,Easy,0.0160349000070709,,,,,,,,,,,,,42,21,Female,0.0,1.0,0.4,0.5,1.7222222222222223,3.125,2.2222222222222223,0.7777777777777778,2.625,3.0,1.5,1.5,0.25,2.5,0.84375,0.875,0.4500938636351334,-1.5766426009572172,,,,,,,,,,,,,,,0.022269289587173415,-1.378794126958708,435649413.6020794,2.205008915903191,,,,,,,,,,,,,,
8,240712_151012,TrueCHOICE,9.0,9,1.0,1068.0,,,,,,,,,,,10.0,9.0,,,B,,,,,,True,cue2.png,Easy,cue1.png,Hard,Left,Easy,Easy,0.0146626000059768,,,,,,,,,,,,,42,21,Female,0.0,1.0,0.4,0.5,1.7222222222222223,3.125,2.2222222222222223,0.7777777777777778,2.625,3.0,1.5,1.5,0.25,2.5,1.0,1.0,0.689164936367888,1.5354843485165666,,,,,,,,,,,,,,,0.04083823241795667,0.1226044357511411,,,,,,,,,,,,,,,,
9,240712_151033,TrueCHOICE,9.0,10,1.0,1068.0,,,,,,,,,,,11.0,10.0,,,B,,,,,,True,cue1.png,Hard,cue2.png,Easy,Right,Easy,Easy,0.0165393000061158,,,,,,,,,,,,,42,21,Female,0.0,1.0,0.4,0.5,1.7222222222222223,3.125,2.2222222222222223,0.7777777777777778,2.625,3.0,1.5,1.5,0.25,2.5,1.0,1.0,0.5450194545450028,-0.340941073840368,,,,,,,,,,,,,0.008858848348114616,-1.353663401185419,0.055939780022575394,1.3436455081961107,,,,,,,,,,,,,,,,
0,240712_151222,FalseCHOICE,9.0,1,2.0,1068.0,,,,,,,,,,,2.0,1.0,,,B,,,,,,False,cue2.png,Easy,cue1.png,Hard,Left,Easy,Mid,0.0160396000137552,,,,,,,,,,,,,42,21,Female,0.0,1.0,0.4,0.5,1.7222222222222223,3.125,2.2222222222222223,0.7777777777777778,2.625,3.0,1.5,1.5,0.25,2.5,0.5833333333333334,0.75,0.6263135818193074,-0.28027595018172013,,,,,,,,,,,,,,,,,,,0.012010176876093712,-0.6470702851830228,0.0468712106549786,0.26515743127978425,,,,,,,,,,
1,240712_151245,FalseCHOICE,9.0,2,2.0,1068.0,,,,,,,,,,,3.0,2.0,,,B,,,,,,False,cue1.png,Hard,cue2.png,Easy,Right,Easy,Mid,0.015557600010652,,,,,,,,,,,,,42,21,Female,0.0,1.0,0.4,0.5,1.7222222222222223,3.125,2.2222222222222223,0.7777777777777778,2.625,3.0,1.5,1.5,0.25,2.5,1.0,1.0,0.6882019272677347,0.9101170705174538,,,,,,,,,,,,,,,,,,,0.03474619782038554,0.5289886402559858,0.050429617065757104,0.4479840550399708,1.3816591350779164e+45,-0.1709606734486779,,,,,,,,
2,240712_151306,FalseCHOICE,9.0,3,2.0,1068.0,,,,,,,,,,,4.0,3.0,,,B,,,,,,False,cue1.png,Hard,cue2.png,Easy,Left,Hard,Mid,0.0159733000036794,,,,,,,,,,,,,42,21,Female,0.0,1.0,0.4,0.5,1.7222222222222223,3.125,2.2222222222222223,0.7777777777777778,2.625,3.0,1.5,1.5,0.25,2.5,1.0,1.0,0.6044333909098483,-0.7011310621008184,,,,,,,,,,,,,,,,,,,0.070689160961516,2.3881988649661494,0.08850108805192876,2.404050253915457,-7.578253132849845e+44,-0.1717887552074727,,,,,,,,
3,240712_151327,FalseCHOICE,9.0,4,2.0,1068.0,,,,,,,,,,,5.0,4.0,,,B,,,,,,False,cue1.png,Hard,cue2.png,Easy,Right,Easy,Mid,0.0164557000098284,,,,,,,,,,,,,42,21,Female,0.0,1.0,0.4,0.5,1.7222222222222223,3.125,2.2222222222222223,0.7777777777777778,2.625,3.0,1.5,1.5,0.25,2.5,0.84375,0.875,0.6182193999967157,-0.4359637049612128,,,,,,,,,,,,,,,,,,,,,0.03135516665778327,-0.5320381699672118,-9.684499401044863e+44,-0.17187027690843934,,,,,,,,
4,240712_151349,FalseCHOICE,9.0,5,2.0,1068.0,,,,,,,,,,,6.0,5.0,,,B,,,,,,False,cue2.png,Easy,cue1.png,Hard,Left,Easy,Mid,0.0160192000039387,,,,,,,,,,,,,42,21,Female,0.0,1.0,0.4,0.5,1.7222222222222223,3.125,2.2222222222222223,0.7777777777777778,2.625,3.0,1.5,1.5,0.25,2.5,1.0,1.0,0.6676904909069311,0.5155893042393476,,,,,,,,,,,,,,,,,,,0.010805542457832999,-0.709382026668387,0.02274396192936049,-0.9744714688272079,1.550830275926913e+49,5.830951847073412,,,,,,,,
5,240712_151411,FalseCHOICE,9.0,6,2.0,1068.0,,,,,,,,,,,7.0,6.0,,,B,,,,,,False,cue1.png,Hard,cue2.png,Easy,Right,Easy,Mid,0.0164279000018723,,,,,,,,,,,,,42,21,Female,0.0,1.0,0.4,0.5,1.7222222222222223,3.125,2.2222222222222223,0.7777777777777778,2.625,3.0,1.5,1.5,0.25,2.5,0.84375,0.875,0.607568809093209,-0.6408227779577863,,,,,,,,,,,,,,,,,,,,,0.024528809694351953,-0.8827681462919068,-1.6264905870058514e+44,-0.17155839382295024,,,,,,,,
6,240712_151434,FalseCHOICE,9.0,7,2.0,1068.0,,,,,,,,,,,8.0,7.0,,,B,,,,,,False,cue1.png,Hard,cue2.png,Easy,Right,Easy,Mid,0.0165993999980855,,,,,,,,,,,,,42,21,Female,0.0,1.0,0.4,0.5,1.7222222222222223,3.125,2.2222222222222223,0.7777777777777778,2.625,3.0,1.5,1.5,0.25,2.5,0.84375,0.875,0.6549173000014641,0.26990302525170157,,,,,,,,,,,,,,,,,,,,,0.1117727453748951,3.599719901085164,,,,,,,,,,
7,240712_151455,FalseCHOICE,9.0,8,2.0,1068.0,,,,,,,,,,,9.0,8.0,,,B,,,,,,False,cue2.png,Easy,cue1.png,Hard,Left,Easy,Mid,0.0161351999850012,,,,,,,,,,,,,42,21,Female,0.0,1.0,0.4,0.5,1.7222222222222223,3.125,2.2222222222222223,0.7777777777777778,2.625,3.0,1.5,1.5,0.25,2.5,0.84375,0.875,0.6052782999997196,-0.6848796358198193,,,,,,,,,,,,,,,,,,,0.021383553134336312,-0.16221663216191498,0.033761954153789166,-0.40838033519315525,,,,,,,,,,
8,240712_151518,FalseCHOICE,9.0,9,2.0,1068.0,,,,,,,,,,,10.0,9.0,,,B,,,,,,False,cue2.png,Easy,cue1.png,Hard,Left,Easy,Mid,0.016179700003704,,,,,,,,,,,,,42,21,Female,0.0,1.0,0.4,0.5,1.7222222222222223,3.125,2.2222222222222223,0.7777777777777778,2.625,3.0,1.5,1.5,0.25,2.5,1.0,1.0,0.7230371181847824,1.5801554734172802,,,,,,,,,,,,,,,,,,,0.0638000960528557,2.0318503951257085,0.05530029333786897,0.6982335193961922,,,,,,,,,,
9,240712_151541,FalseCHOICE,9.0,10,2.0,1068.0,,,,,,,,,,,11.0,10.0,,,B,,,,,,False,cue1.png,Hard,cue2.png,Easy,Left,Hard,Mid,0.0127004999958444,,,,,,,,,,,,,42,21,Female,0.0,1.0,0.4,0.5,1.7222222222222223,3.125,2.2222222222222223,0.7777777777777778,2.625,3.0,1.5,1.5,0.25,2.5,1.0,1.0,0.6980719181777783,1.099961672252218,,,,,,,,,,,,,,,,,,,0.016621283222245896,-0.40855305352546534,0.02542878543568096,-0.8365284796380759,4.27897238404787e+44,-0.17132982445114156,,,,,,,,
10,240712_151604,FalseCHOICE,9.0,11,2.0,1068.0,,,,,,,,,,,12.0,11.0,,,B,,,,,,False,cue2.png,Easy,cue1.png,Hard,Left,Easy,Mid,0.0164364000083878,,,,,,,,,,,,,42,21,Female,0.0,1.0,0.4,0.5,1.7222222222222223,3.125,2.2222222222222223,0.7777777777777778,2.625,3.0,1.5,1.5,0.25,2.5,0.84375,0.875,0.5891580181778409,-0.9949456237441398,,,,,,,,,,,,,,,,,,,0.006732205359590153,-0.9200822394473976,0.020009123737057,-1.1149841521774693,,,,,,,,,,
11,240712_151628,FalseCHOICE,9.0,12,2.0,1068.0,,,,,,,,,,,13.0,12.0,,,B,,,,,,False,cue1.png,Hard,cue2.png,Easy,Right,Easy,Mid,0.0166463999776169,,,,,,,,,,,,,42,21,Female,0.0,1.0,0.4,0.5,1.7222222222222223,3.125,2.2222222222222223,0.7777777777777778,2.625,3.0,1.5,1.5,0.25,2.5,1.0,0.8181818181818181,0.6550682111087048,0.2728057289433857,,,,,,,,,,,,,,,,,,,0.009066664920058568,-0.7993283921100698,0.03580844820344212,-0.30323394255232583,,,,,,,,,,
12,240712_151650,FalseCHOICE,9.0,13,2.0,1068.0,,,,,,,,,,,14.0,13.0,,,B,,,,,,False,cue2.png,Easy,cue1.png,Hard,Left,Easy,Mid,0.0167569000041112,,,,,,,,,,,,,42,21,Female,0.0,1.0,0.4,0.5,1.7222222222222223,3.125,2.2222222222222223,0.7777777777777778,2.625,3.0,1.5,1.5,0.25,2.5,1.0,1.0,0.6041393727249339,-0.7067863626706545,,,,,,,,,,,,,,,,,,,0.04351010557060797,0.9823165095708173,0.04210367679172308,0.020207299321509203,-1.5710629387623833e+44,-0.17155624851058407,,,,,,,,
13,240712_151713,FalseCHOICE,9.0,14,2.0,1068.0,,,,,,,,,,,15.0,14.0,,,B,,,,,,False,cue1.png,Hard,cue2.png,Easy,Right,Easy,Mid,0.0168919000134337,,,,,,,,,,,,,42,21,Female,0.0,1.0,0.4,0.5,1.7222222222222223,3.125,2.2222222222222223,0.7777777777777778,2.625,3.0,1.5,1.5,0.25,2.5,0.84375,0.875,0.7427246272722683,1.9588353887209504,,,,,,,,,,,,,,,,,,,0.009255048036822724,-0.7895839585341442,0.031196004785074248,-0.5402157147610266,,,,,,,,,,
14,240712_151735,FalseCHOICE,9.0,15,2.0,1068.0,,,,,,,,,,,16.0,15.0,,,B,,,,,,False,cue2.png,Easy,cue1.png,Hard,Left,Easy,Mid,0.0160449999966658,,,,,,,,,,,,,42,21,Female,0.0,1.0,0.4,0.5,1.7222222222222223,3.125,2.2222222222222223,0.7777777777777778,2.625,3.0,1.5,1.5,0.25,2.5,0.84375,0.875,0.6348287545419722,-0.11649063477762693,,,,,,,,,,,,,,,,,,,0.02009728724584489,-0.22875089874948432,0.03018068376527122,-0.5923816825158805,,,,,,,,,,
15,240712_151758,FalseCHOICE,9.0,16,2.0,1068.0,,,,,,,,,,,17.0,16.0,,,B,,,,,,False,cue2.png,Easy,cue1.png,Hard,Left,Easy,Mid,0.0166313000081572,,,,,,,,,,,,,42,21,Female,0.0,1.0,0.4,0.5,1.7222222222222223,3.125,2.2222222222222223,0.7777777777777778,2.625,3.0,1.5,1.5,0.25,2.5,1.0,1.0,0.7536860272759275,2.169672727591502,,,,,,,,,,,,,,,,,,,0.004462156350552056,-1.0375043426731383,0.025218686360436563,-0.8473231163793206,,,,,,,,,,
16,240712_151822,FalseCHOICE,9.0,17,2.0,1068.0,,,,,,,,,,,18.0,17.0,,,B,,,,,,False,cue1.png,Hard,cue2.png,Easy,Left,Hard,Mid,0.0165098000143189,,,,,,,,,,,,,42,21,Female,0.0,1.0,0.4,0.5,1.7222222222222223,3.125,2.2222222222222223,0.7777777777777778,2.625,3.0,1.5,1.5,0.25,2.5,0.84375,0.875,0.6476300636396363,0.12973648432302462,,,,,,,,,,,,,,,,,,,0.052349248609458554,1.4395360507360535,0.04842935808899308,0.3452131646042816,,,,,,,,,,
17,240712_151845,FalseCHOICE,9.0,18,2.0,1068.0,,,,,,,,,,,19.0,18.0,,,B,,,,,,False,cue1.png,Hard,cue2.png,Easy,Left,Hard,Mid,0.016124599991599,,,,,,,,,,,,,42,21,Female,0.0,1.0,0.4,0.5,1.7222222222222223,3.125,2.2222222222222223,0.7777777777777778,2.625,3.0,1.5,1.5,0.25,2.5,0.84375,0.875,0.7263511909060815,1.643900093005008,,,,,,,,,,,,,,,,,,,0.017276198444738572,-0.3746764620715083,0.0348696476698456,-0.35146838014265225,,,,,,,,,,
18,240712_151908,FalseCHOICE,9.0,19,2.0,1068.0,,,,,,,,,,,20.0,19.0,,,B,,,,,,False,cue2.png,Easy,cue1.png,Hard,Right,Hard,Mid,0.0166214000200852,,,,,,,,,,,,,42,21,Female,0.0,1.0,0.4,0.5,1.7222222222222223,3.125,2.2222222222222223,0.7777777777777778,2.625,3.0,1.5,1.5,0.25,2.5,1.0,1.0,0.6280587999975648,-0.24670750488007462,,,,,,,,,,,,,,,,,,,0.011979865656503965,-0.6486381839999181,0.02641880942272567,-0.7856622428741353,,,,,,,,,,
19,240712_151931,FalseCHOICE,9.0,20,2.0,1068.0,,,,,,,,,,,21.0,20.0,,,B,,,,,,False,cue2.png,Easy,cue1.png,Hard,Right,Hard,Mid,0.0165120000019669,,,,,,,,,,,,,42,21,Female,0.0,1.0,0.4,0.5,1.7222222222222223,3.125,2.2222222222222223,0.7777777777777778,2.625,3.0,1.5,1.5,0.25,2.5,0.84375,0.875,0.59759432727217,-0.8326772128893207,,,,,,,,,,,,,,,,,,,,,0.0618188923552155,1.0331512641422744,1.1963677250387495e+44,-0.17144913584364335,,,,,,,,
20,240712_151952,FalseCHOICE,9.0,21,2.0,1068.0,,,,,,,,,,,22.0,21.0,,,B,,,,,,False,cue2.png,Easy,cue1.png,Hard,Left,Easy,Mid,0.016207700013183,,,,,,,,,,,,,42,21,Female,0.0,1.0,0.4,0.5,1.7222222222222223,3.125,2.2222222222222223,0.7777777777777778,2.625,3.0,1.5,1.5,0.25,2.5,1.0,1.0,0.65220310909155,0.21769684826318775,,,,,,,,,,,,,,,,,,,0.041880684586066336,0.8980319684515446,,,6.141180759790768e+43,-0.17147167166127084,,,,,,,,
21,240712_152013,FalseCHOICE,9.0,22,2.0,1068.0,,,,,,,,,,,23.0,22.0,,,B,,,,,,False,cue1.png,Hard,cue2.png,Easy,Right,Easy,Mid,0.0162635000015143,,,,,,,,,,,,,42,21,Female,0.0,1.0,0.4,0.5,1.7222222222222223,3.125,2.2222222222222223,0.7777777777777778,2.625,3.0,1.5,1.5,0.25,2.5,0.84375,0.875,0.5506659454523205,-1.7353224167040957,,,,,,,,,,,,,,,,,,,0.010378580763458592,-0.7314673384615067,0.06857928630471741,1.3804921404773698,-1.9753150001543296e+43,-0.17150308634198647,,,,,,,,
22,240712_152037,FalseCHOICE,9.0,23,2.0,1068.0,,,,,,,,,,,24.0,23.0,,,B,,,,,,False,cue2.png,Easy,cue1.png,Hard,Right,Hard,Mid,0.0176377000170759,,,,,,,,,,,,,42,21,Female,0.0,1.0,0.4,0.5,1.7222222222222223,3.125,2.2222222222222223,0.7777777777777778,2.625,3.0,1.5,1.5,0.25,2.5,1.0,1.0,0.7154624363571532,1.4344600550587365,,,,,,,,,,,,,,,,,,,0.008032675940173772,-0.8528132112689997,,,-7.619172892760849e+43,-0.17152493074367714,,,,,,,,
23,240712_152100,FalseCHOICE,9.0,24,2.0,1068.0,,,,,,,,,,,25.0,24.0,,,B,,,,,,False,cue1.png,Hard,cue2.png,Easy,Right,Easy,Mid,0.0163863000052515,,,,,,,,,,,,,42,21,Female,0.0,1.0,0.4,0.5,1.7222222222222223,3.125,2.2222222222222223,0.7777777777777778,2.625,3.0,1.5,1.5,0.25,2.5,0.84375,0.7840909090909091,0.6401999899942894,-0.013177464120988107,,,,,,,,,,,,,,,,,,,0.01060114299121928,-0.719954932879858,0.0258072857516137,-0.8170815905349822,-1.1084505029676497e+44,-0.17153834321943942,,,,,,,,
24,240712_152123,FalseCHOICE,9.0,25,2.0,1068.0,,,,,,,,,,,26.0,25.0,,,B,,,,,,False,cue1.png,Hard,cue2.png,Easy,Right,Easy,Mid,0.0169543999945744,,,,,,,,,,,,,42,21,Female,0.0,1.0,0.4,0.5,1.7222222222222223,3.125,2.2222222222222223,0.7777777777777778,2.625,3.0,1.5,1.5,0.25,2.5,0.5833333333333334,0.75,0.6596433999895287,0.3608073207237263,,,,,,,,,,,,,,,,,,,0.0796208994014322,2.8502080589974104,,,-1.0853062204417496e+44,-0.17153744742614704,,,,,,,,
25,240712_152145,FalseCHOICE,9.0,26,2.0,1068.0,,,,,,,,,,,27.0,26.0,,,B,,,,,,False,cue2.png,Easy,cue1.png,Hard,Left,Easy,Mid,0.01601859999937,,,,,,,,,,,,,42,21,Female,0.0,1.0,0.4,0.5,1.7222222222222223,3.125,2.2222222222222223,0.7777777777777778,2.625,3.0,1.5,1.5,0.25,2.5,1.0,1.0,0.6400927545433991,-0.015240087243102872,,,,,,,,,,,,,,,,,,,,,0.020535189805235513,-1.0879555129448775,-8.300176819715592e+43,-0.1715275665512429,,,,,,,,
26,240712_152208,FalseCHOICE,9.0,27,2.0,1068.0,,,,,,,,,,,28.0,27.0,,,B,,,,,,False,cue2.png,Easy,cue1.png,Hard,Left,Easy,Mid,0.0165748000144958,,,,,,,,,,,,,42,21,Female,0.0,1.0,0.4,0.5,1.7222222222222223,3.125,2.2222222222222223,0.7777777777777778,2.625,3.0,1.5,1.5,0.25,2.5,1.0,0.9090909090909092,0.6880725099996198,0.9076277906440681,,,,,,,,,,,,,,,,,,,0.0336624842227938,0.47293173160912044,,,1.866520769899188e+44,-0.17142319774848802,,,,,,,,
27,240712_152231,FalseCHOICE,9.0,28,2.0,1068.0,,,,,,,,,,,29.0,28.0,,,B,,,,,,False,cue1.png,Hard,cue2.png,Easy,Right,Easy,Mid,0.0165490000217687,,,,,,,,,,,,,42,21,Female,0.0,1.0,0.4,0.5,1.7222222222222223,3.125,2.2222222222222223,0.7777777777777778,2.625,3.0,1.5,1.5,0.25,2.5,1.0,0.9090909090909092,0.6298303800023859,-0.21263200232674398,,,,,,,,,,,,,,,,,,,,,0.04992948338391549,0.42228779049781906,,,,,,,,,,
28,240712_152253,FalseCHOICE,9.0,29,2.0,1068.0,,,,,,,,,,,30.0,29.0,,,B,,,,,,False,cue2.png,Easy,cue1.png,Hard,Left,Easy,Mid,0.0166345000034198,,,,,,,,,,,,,42,21,Female,0.0,1.0,0.4,0.5,1.7222222222222223,3.125,2.2222222222222223,0.7777777777777778,2.625,3.0,1.5,1.5,0.25,2.5,1.0,1.0,0.6452960545482876,0.08484292459932666,,,,,,,,,,,,,,,,,,,0.014847603519253684,-0.5002996195004455,0.03057711286088883,-0.572013634365862,6.808151235413859e+43,-0.17146909016980477,,,,,,,,
29,240712_152315,FalseCHOICE,9.0,30,2.0,1068.0,,,,,,,,,,,31.0,30.0,,,B,,,,,,False,cue2.png,Easy,cue1.png,Hard,Left,Easy,Mid,0.0151208999741356,,,,,,,,,,,,,42,21,Female,0.0,1.0,0.4,0.5,1.7222222222222223,3.125,2.2222222222222223,0.7777777777777778,2.625,3.0,1.5,1.5,0.25,2.5,1.0,1.0,0.596051163638053,-0.862359234706828,,,,,,,,,,,,,,,,,,,0.02093853716000536,-0.18523583195317184,0.04582567318224194,0.2114389786667838,9.385590772129433e+43,-0.17145911425870905,,,,,,,,
30,240712_152336,FalseCHOICE,9.0,31,2.0,1068.0,,,,,,,,,,,32.0,31.0,,,B,,,,,,False,cue1.png,Hard,cue2.png,Easy,Right,Easy,Mid,0.0167720000026747,,,,,,,,,,,,,42,21,Female,0.0,1.0,0.4,0.5,1.7222222222222223,3.125,2.2222222222222223,0.7777777777777778,2.625,3.0,1.5,1.5,0.25,2.5,1.0,1.0,0.5915140181790445,-0.9496290792820306,,,,,,,,,,,,,,,,,,,0.006889824562514983,-0.9119291210598609,,,9.647871598559972e+43,-0.1714580991077543,,,,,,,,
31,240712_152359,FalseCHOICE,9.0,32,2.0,1068.0,,,,,,,,,,,33.0,32.0,,,B,,,,,,False,cue2.png,Easy,cue1.png,Hard,Left,Easy,Mid,0.0148527999990619,,,,,,,,,,,,,42,21,Female,0.0,1.0,0.4,0.5,1.7222222222222223,3.125,2.2222222222222223,0.7777777777777778,2.625,3.0,1.5,1.5,0.25,2.5,1.0,1.0,0.6884026363682509,0.9139776150305478,,,,,,,,,,,,,,,,,,,0.017129015010559374,-0.38228977276766457,,,7.316832680796974e+43,-0.1714671213318154,,,,,,,,
32,240712_152421,FalseCHOICE,9.0,33,2.0,1068.0,,,,,,,,,,,34.0,33.0,,,B,,,,,,False,cue1.png,Hard,cue2.png,Easy,Right,Easy,Mid,0.0155816999904345,,,,,,,,,,,,,42,21,Female,0.0,1.0,0.4,0.5,1.7222222222222223,3.125,2.2222222222222223,0.7777777777777778,2.625,3.0,1.5,1.5,0.25,2.5,0.84375,0.7840909090909091,0.6235079199977918,-0.3342415268436057,,,,,,,,,,,,,,,,,,,0.00732375723520419,-0.8894832236881894,0.048286266410686035,0.3378612869902423,2.987336656033954e+43,-0.17148387853089495,,,,,,,,
33,240712_152444,FalseCHOICE,9.0,34,2.0,1068.0,,,,,,,,,,,35.0,34.0,,,B,,,,,,False,cue1.png,Hard,cue2.png,Easy,Right,Easy,Mid,0.0180200999893713,,,,,,,,,,,,,42,21,Female,0.0,1.0,0.4,0.5,1.7222222222222223,3.125,2.2222222222222223,0.7777777777777778,2.625,3.0,1.5,1.5,0.25,2.5,1.0,1.0,0.7142478272699836,1.4110976243818751,,,,,,,,,,,,,,,,,,,0.0448291701777617,1.0505473450487957,,,-1.4761765881772001e+43,-0.17150115444005382,,,,,,,,
34,240712_152506,FalseCHOICE,9.0,35,2.0,1068.0,,,,,,,,,,,36.0,35.0,,,B,,,,,,False,cue1.png,Hard,cue2.png,Easy,Right,Easy,Mid,0.0163909000111743,,,,,,,,,,,,,42,21,Female,0.0,1.0,0.4,0.5,1.7222222222222223,3.125,2.2222222222222223,0.7777777777777778,2.625,3.0,1.5,1.5,0.25,2.5,1.0,1.0,0.6601900090966162,0.3713210880802921,,,,,,,,,,,,,,,,,,,0.044302636682526965,1.0233115143759322,0.029606653358298672,-0.6218746715473151,-5.678469389412205e+43,-0.17151741930244382,,,,,,,,
35,240712_152528,FalseCHOICE,9.0,36,2.0,1068.0,,,,,,,,,,,37.0,36.0,,,B,,,,,,False,cue2.png,Easy,cue1.png,Hard,Right,Hard,Mid,0.0166337999980896,,,,,,,,,,,,,42,21,Female,0.0,1.0,0.4,0.5,1.7222222222222223,3.125,2.2222222222222223,0.7777777777777778,2.625,3.0,1.5,1.5,0.25,2.5,1.0,1.0,0.6118311999995388,-0.5588377071076556,,,,,,,,,,,,,,,,,,,,,0.059416217069786864,0.9097047097812009,-8.385496911410508e+43,-0.17152789678038594,,,,,,,,
36,240712_152551,FalseCHOICE,9.0,37,2.0,1068.0,,,,,,,,,,,38.0,37.0,,,B,,,,,,False,cue1.png,Hard,cue2.png,Easy,Right,Easy,Mid,0.0158721999905537,,,,,,,,,,,,,42,21,Female,0.0,1.0,0.4,0.5,1.7222222222222223,3.125,2.2222222222222223,0.7777777777777778,2.625,3.0,1.5,1.5,0.25,2.5,1.0,0.9090909090909092,0.6398841199959862,-0.019253073974571527,,,,,,,,,,,,,,,,,,,0.02964868677557697,0.2653113074254073,0.03169408207737588,-0.5146251050298574,-8.458268466780356e+43,-0.17152817844075327,,,,,,,,
37,240712_152613,FalseCHOICE,9.0,38,2.0,1068.0,,,,,,,,,,,39.0,38.0,,,B,,,,,,False,cue2.png,Easy,cue1.png,Hard,Left,Easy,Mid,0.0161068000015802,,,,,,,,,,,,,42,21,Female,0.0,1.0,0.4,0.5,1.7222222222222223,3.125,2.2222222222222223,0.7777777777777778,2.625,3.0,1.5,1.5,0.25,2.5,1.0,1.0,0.7169955000016753,1.4639478083587099,,,,,,,,,,,,,,,,,,,0.012720634211408878,-0.6103206845212241,0.04100971926638469,-0.03599891711539016,-6.008508533351367e+43,-0.17151869671016226,,,,,,,,
38,240712_152634,FalseCHOICE,9.0,39,2.0,1068.0,,,,,,,,,,,40.0,39.0,,,B,,,,,,False,cue2.png,Easy,cue1.png,Hard,Right,Hard,Mid,0.0163878999883309,,,,,,,,,,,,,42,21,Female,0.0,1.0,0.4,0.5,1.7222222222222223,3.125,2.2222222222222223,0.7777777777777778,2.625,3.0,1.5,1.5,0.25,2.5,0.84375,0.875,0.5810757272808008,-1.1504046622009747,,,,,,,,,,,,,,,,,,,0.026974296938836125,0.12697399478354424,0.053840374411677216,0.623224648169243,-1.6796162085158338e+43,-0.17150194184768722,,,,,,,,
39,240712_152657,FalseCHOICE,9.0,40,2.0,1068.0,,,,,,,,,,,41.0,40.0,,,B,,,,,,False,cue1.png,Hard,cue2.png,Easy,Right,Easy,Mid,0.0168417000095359,,,,,,,,,,,,,42,21,Female,0.0,1.0,0.4,0.5,1.7222222222222223,3.125,2.2222222222222223,0.7777777777777778,2.625,3.0,1.5,1.5,0.25,2.5,0.84375,0.875,0.6256141454531726,-0.29372927750267536,,,,,,,,,,,,,,,,,,,0.007249457661579438,-0.8933264941061665,0.029472122595386965,-0.6287866996676919,3.9461824838253515e+43,-0.17148016734365032,,,,,,,,
40,240712_152720,FalseCHOICE,9.0,41,2.0,1068.0,,,,,,,,,,,42.0,41.0,,,B,,,,,,False,cue1.png,Hard,cue2.png,Easy,Left,Hard,Mid,0.0153232000011485,,,,,,,,,,,,,42,21,Female,0.0,1.0,0.4,0.5,1.7222222222222223,3.125,2.2222222222222223,0.7777777777777778,2.625,3.0,1.5,1.5,0.25,2.5,1.0,1.0,0.6295864818173207,-0.21732326843119587,,,,,,,,,,,,,,,,,,,0.008621743360835352,-0.8223427081210724,0.028436433491032018,-0.6819991550074967,7.90534381197773e+43,-0.17146484351515281,,,,,,,,
41,240712_152744,FalseCHOICE,9.0,42,2.0,1068.0,,,,,,,,,,,43.0,42.0,,,B,,,,,,False,cue2.png,Easy,cue1.png,Hard,Right,Hard,Mid,0.0173853999876882,,,,,,,,,,,,,42,21,Female,0.0,1.0,0.4,0.5,1.7222222222222223,3.125,2.2222222222222223,0.7777777777777778,2.625,3.0,1.5,1.5,0.25,2.5,0.84375,0.875,0.6377470999961422,-0.06035764179709734,,,,,,,,,,,,,,,,,,,0.03381599819262185,0.4808724999097049,0.038391355490745516,-0.17052728560811517,,,,,,,,,,
42,240712_152806,FalseCHOICE,9.0,43,2.0,1068.0,,,,,,,,,,,44.0,43.0,,,B,,,,,,False,cue1.png,Hard,cue2.png,Easy,Right,Easy,Mid,0.0165124999766703,,,,,,,,,,,,,42,21,Female,0.0,1.0,0.4,0.5,1.7222222222222223,3.125,2.2222222222222223,0.7777777777777778,2.625,3.0,1.5,1.5,0.25,2.5,1.0,1.0,0.6287025999997489,-0.23432431667600934,,,,,,,,,,,,,,,,,,,,,0.05995837342184088,0.937560048366455,6.232518589937596e+43,-0.17147131814063135,,,,,,,,
43,240712_152828,FalseCHOICE,9.0,44,2.0,1068.0,,,,,,,,,,,45.0,44.0,,,B,,,,,,False,cue2.png,Easy,cue1.png,Hard,Left,Easy,Mid,0.0160451000265311,,,,,,,,,,,,,42,21,Female,0.0,1.0,0.4,0.5,1.7222222222222223,3.125,2.2222222222222223,0.7777777777777778,2.625,3.0,1.5,1.5,0.25,2.5,0.84375,0.875,0.6946546818230259,1.0342327490227792,,,,,,,,,,,,,,,,,,,,,0.026675367757966573,-0.7724805854649226,1.1841401183740468e+43,-0.17149085775507908,,,,,,,,
44,240712_152850,FalseCHOICE,9.0,45,2.0,1068.0,,,,,,,,,,,46.0,45.0,,,B,,,,,,False,cue1.png,Hard,cue2.png,Easy,Right,Easy,Mid,0.0162150999822188,,,,,,,,,,,,,42,21,Female,0.0,1.0,0.4,0.5,1.7222222222222223,3.125,2.2222222222222223,0.7777777777777778,2.625,3.0,1.5,1.5,0.25,2.5,1.0,1.0,0.6697963545448147,0.5560945941920372,,,,,,,,,,,,,,,,,,,0.013834737815099593,-0.5526918016927542,,,-5.604209294184108e+43,-0.1715171318807226,,,,,,,,
45,240712_152912,FalseCHOICE,9.0,46,2.0,1068.0,,,,,,,,,,,47.0,46.0,,,B,,,,,,False,cue1.png,Hard,cue2.png,Easy,Right,Easy,Mid,0.0166470000112894,,,,,,,,,,,,,42,21,Female,0.0,1.0,0.4,0.5,1.7222222222222223,3.125,2.2222222222222223,0.7777777777777778,2.625,3.0,1.5,1.5,0.25,2.5,0.84375,0.875,0.5913176181837282,-0.9534067401969548,,,,,,,,,,,,,,,,,,,0.01056708793381118,-0.7217164880050607,0.05506291023246662,0.6860370621374147,-9.589042699166356e+43,-0.17153255507230983,,,,,,,,
46,240712_152934,FalseCHOICE,9.0,47,2.0,1068.0,,,,,,,,,,,48.0,47.0,,,B,,,,,,False,cue2.png,Easy,cue1.png,Hard,Right,Hard,Mid,0.0165477999835275,,,,,,,,,,,,,42,21,Female,0.0,1.0,0.4,0.5,1.7222222222222223,3.125,2.2222222222222223,0.7777777777777778,2.625,3.0,1.5,1.5,0.25,2.5,0.84375,0.7840909090909091,0.623435809998773,-0.33562852853079844,,,,,,,,,,,,,,,,,,,0.0547429154673435,1.5633524951192077,0.08006621901929353,1.9706768701375572,-6.955156191863309e+43,-0.17152236068471752,,,,,,,,
47,240712_152956,FalseCHOICE,9.0,48,2.0,1068.0,,,,,,,,,,,49.0,48.0,,,B,,,,,,False,cue2.png,Easy,cue1.png,Hard,Left,Easy,Mid,0.0166871999972499,,,,,,,,,,,,,42,21,Female,0.0,1.0,0.4,0.5,1.7222222222222223,3.125,2.2222222222222223,0.7777777777777778,2.625,3.0,1.5,1.5,0.25,2.5,0.84375,0.875,0.5776914545488332,-1.2154995457543556,,,,,,,,,,,,,,,,,,,0.012866535920232512,-0.6027736732249525,0.03266201367594064,-0.46489394850418125,3.8608053508072974e+43,-0.17148049779357027,,,,,,,,
48,240712_153017,FalseCHOICE,9.0,49,2.0,1068.0,,,,,,,,,,,50.0,49.0,,,B,,,,,,False,cue1.png,Hard,cue2.png,Easy,Right,Easy,Mid,0.0165323999826796,,,,,,,,,,,,,42,21,Female,0.0,1.0,0.4,0.5,1.7222222222222223,3.125,2.2222222222222223,0.7777777777777778,2.625,3.0,1.5,1.5,0.25,2.5,0.5833333333333334,0.75,0.5614635454548988,-1.5276356932953787,,,,,,,,,,,,,,,,,,,,,0.01795021434712544,-1.220768430007325,,,,,,,,,,
49,240712_153037,FalseCHOICE,9.0,50,2.0,1068.0,,,,,,,,,,,51.0,50.0,,,B,,,,,,False,cue2.png,Easy,cue1.png,Hard,Left,Easy,Mid,0.0162829000037163,,,,,,,,,,,,,42,21,Female,0.0,1.0,0.4,0.5,1.7222222222222223,3.125,2.2222222222222223,0.7777777777777778,2.625,3.0,1.5,1.5,0.25,2.5,0.84375,0.875,0.486106090906436,-2.977100649938925,,,,,,,,,,,,,,,,,,,,,0.03130649118658062,-0.5345390568903472,-6.33802166190836e+43,-0.1715199720819522,,,,,,,,
0,240712_144442,OFFLINERATING,9.0,1,1.0,,,,,,,,,,,,,,,,,T0,cue2.png,Easy,0.0,1.3017451999767218,,,,,,,,,,,,,,,,,,,,,,42,21,Female,0.0,1.0,0.4,0.5,1.7222222222222223,3.125,2.2222222222222223,0.7777777777777778,2.625,3.0,1.5,1.5,0.25,2.5,,,,,,,,,,,,,,,,,,,,,,,,,,,,,-0.7694127308096826,0.008486298787993032,-0.32793509605367277,,,,,
1,240712_144450,OFFLINERATING,9.0,2,3.0,,,,,,,,,,,,,,,,,T0,cue1.png,Hard,0.0,1.385247199999867,,,,,,,,,,,,,,,,,,,,,,42,21,Female,0.0,1.0,0.4,0.5,1.7222222222222223,3.125,2.2222222222222223,0.7777777777777778,2.625,3.0,1.5,1.5,0.25,2.5,,,,,,,,,,,,,,,,,,,,,,,,,,,,,-0.7694127308096826,,,,,8966335.967181293,-0.7173949828923633,
2,240712_150614,OFFLINERATING,9.0,3,1.0,,,,,,,,,,,,,,,,,T1,cue2.png,Easy,49.0,2.6620076000108384,,,,,,,,,,,,,,,,,,,,,,42,21,Female,0.0,1.0,0.4,0.5,1.7222222222222223,3.125,2.2222222222222223,0.7777777777777778,2.625,3.0,1.5,1.5,0.25,2.5,,,,,,,,,,,,,,,,,,,,,,,,,,,,,1.3696637973987968,0.00913874214908067,1.3553297639721806,,,,,
3,240712_150622,OFFLINERATING,9.0,4,3.0,,,,,,,,,,,,,,,,,T1,cue1.png,Hard,0.0,2.3026058000104968,,,,,,,,,,,,,,,,,,,,,,42,21,Female,0.0,1.0,0.4,0.5,1.7222222222222223,3.125,2.2222222222222223,0.7777777777777778,2.625,3.0,1.5,1.5,0.25,2.5,,,,,,,,,,,,,,,,,,,,,,,,,,,,,-0.7694127308096826,0.008215184143560067,-1.027394667918508,0.011786875866828986,-1.4141524031101826,,,
4,240712_151058,OFFLINERATING,9.0,5,1.0,,,,,,,,,,,,,,,,,T2,cue2.png,Easy,51.0,2.9529232000058983,,,,,,,,,,,,,,,,,,,,,,42,21,Female,0.0,1.0,0.4,0.5,1.7222222222222223,3.125,2.2222222222222223,0.7777777777777778,2.625,3.0,1.5,1.5,0.25,2.5,,,,,,,,,,,,,,,,,,,,,,,,,,,,,1.4569730434481225,,,0.017821207835354094,0.7184663544632091,8728681027.97182,1.4141634212092646,
5,240712_151105,OFFLINERATING,9.0,6,3.0,,,,,,,,,,,,,,,,,T2,cue1.png,Hard,41.0,1.4854396999871824,,,,,,,,,,,,,,,,,,,,,,42,21,Female,0.0,1.0,0.4,0.5,1.7222222222222223,3.125,2.2222222222222223,0.7777777777777778,2.625,3.0,1.5,1.5,0.25,2.5,,,,,,,,,,,,,,,,,,,,,,,,,,,,,1.020426813201494,,,0.017756750028654462,0.695686048646976,93344781.06812438,-0.6967684383169014,
6,240712_153107,OFFLINERATING,9.0,7,1.0,,,,,,,,,,,,,,,,,T3,cue2.png,Easy,0.0,1.6426544999994803,,,,,,,,,,,,,,,,,,,,,,42,21,Female,0.0,1.0,0.4,0.5,1.7222222222222223,3.125,2.2222222222222223,0.7777777777777778,2.625,3.0,1.5,1.5,0.25,2.5,,,,,,,,,,,,,,,,,,,,,,,,,,,,,-0.7694127308096826,,,,,,,
7,240712_153115,OFFLINERATING,9.0,8,3.0,,,,,,,,,,,,,,,,,T3,cue1.png,Hard,0.0,1.7188377000275068,,,,,,,,,,,,,,,,,,,,,,42,21,Female,0.0,1.0,0.4,0.5,1.7222222222222223,3.125,2.2222222222222223,0.7777777777777778,2.625,3.0,1.5,1.5,0.25,2.5,,,,,,,,,,,,,,,,,,,,,,,,,,,,,-0.7694127308096826,,,,,,,
0,240712_151128,LEARNINGCHECK,9.0,1,,,,,,,,,,,,1.0,1.0,1.0,,,B,,,,,,,,,,,,,,,cue2.png,Easy,Left,Left,Easy,0.0151959000213537,1.0,,,,,,42,21,Female,0.0,1.0,0.4,0.5,1.7222222222222223,3.125,2.2222222222222223,0.7777777777777778,2.625,3.0,1.5,1.5,0.25,2.5,,,,,,,,,,,,,,,,,,,,,,,,,,,,,,,,,,,,
1,240712_151137,LEARNINGCHECK,9.0,2,,,,,,,,,,,,2.0,2.0,2.0,,,B,,,,,,,,,,,,,,,cue1.png,Hard,Right,Right,Hard,0.0156461000151466,1.0,,,,,,42,21,Female,0.0,1.0,0.4,0.5,1.7222222222222223,3.125,2.2222222222222223,0.7777777777777778,2.625,3.0,1.5,1.5,0.25,2.5,,,,,,,,,,,,,,,,,,,,,,,,,,,,,,,,,,,,
2,240712_153139,LEARNINGCHECK,9.0,1,,,,,,,,,,,,1.0,1.0,1.0,,,B,,,,,,,,,,,,,,,cue2.png,Easy,Middle,Middle,Mid,0.0152340999920852,1.0,,,,,,42,21,Female,0.0,1.0,0.4,0.5,1.7222222222222223,3.125,2.2222222222222223,0.7777777777777778,2.625,3.0,1.5,1.5,0.25,2.5,,,,,,,,,,,,,,,,,,,,,,,,,,,,,,,,,,,,
3,240712_153147,LEARNINGCHECK,9.0,2,,,,,,,,,,,,2.0,2.0,2.0,,,B,,,,,,,,,,,,,,,cue1.png,Hard,Middle,Middle,Mid,0.0149112999788485,1.0,,,,,,42,21,Female,0.0,1.0,0.4,0.5,1.7222222222222223,3.125,2.2222222222222223,0.7777777777777778,2.625,3.0,1.5,1.5,0.25,2.5,,,,,,,,,,,,,,,,,,,,,,,,,,,,,,,,,,,,
0,240712_153202,DEMANDRATING,9.0,-1,,,,,,,,,,,,,,,,,,,,,,,,,,,,,,,,,,,,,,,1.0,MentalDemand,1.0,100.0,3.2365906000195537,42,21,Female,0.0,1.0,0.4,0.5,1.7222222222222223,3.125,2.2222222222222223,0.7777777777777778,2.625,3.0,1.5,1.5,0.25,2.5,,,,,,,,,,,,,,,,,,,,,,,,,,,,,,,,,,,,0.9505416412576074
1,240712_153209,DEMANDRATING,9.0,-1,,,,,,,,,,,,,,,,,,,,,,,,,,,,,,,,,,,,,,,2.0,Effort,1.0,8.0,5.404151099995943,42,21,Female,0.0,1.0,0.4,0.5,1.7222222222222223,3.125,2.2222222222222223,0.7777777777777778,2.625,3.0,1.5,1.5,0.25,2.5,,,,,,,,,,,,,,,,,,,,,,,,,,,,,,,,,,,,-1.7822655773580138
2,240712_153218,DEMANDRATING,9.0,-1,,,,,,,,,,,,,,,,,,,,,,,,,,,,,,,,,,,,,,,3.0,Frustration,1.0,6.0,6.762708599999314,42,21,Female,0.0,1.0,0.4,0.5,1.7222222222222223,3.125,2.2222222222222223,0.7777777777777778,2.625,3.0,1.5,1.5,0.25,2.5,,,,,,,,,,,,,,,,,,,,,,,,,,,,,,,,,,,,-1.8416744299366143
3,240712_153225,DEMANDRATING,9.0,-1,,,,,,,,,,,,,,,,,,,,,,,,,,,,,,,,,,,,,,,4.0,MentalDemand,2.0,75.0,5.995122799999081,42,21,Female,0.0,1.0,0.4,0.5,1.7222222222222223,3.125,2.2222222222222223,0.7777777777777778,2.625,3.0,1.5,1.5,0.25,2.5,,,,,,,,,,,,,,,,,,,,,,,,,,,,,,,,,,,,0.20793098402510163
4,240712_153234,DEMANDRATING,9.0,-1,,,,,,,,,,,,,,,,,,,,,,,,,,,,,,,,,,,,,,,5.0,Effort,2.0,83.0,7.246757799992338,42,21,Female,0.0,1.0,0.4,0.5,1.7222222222222223,3.125,2.2222222222222223,0.7777777777777778,2.625,3.0,1.5,1.5,0.25,2.5,,,,,,,,,,,,,,,,,,,,,,,,,,,,,,,,,,,,0.44556639433950346
5,240712_153241,DEMANDRATING,9.0,-1,,,,,,,,,,,,,,,,,,,,,,,,,,,,,,,,,,,,,,,6.0,Frustration,2.0,100.0,5.671115099976305,42,21,Female,0.0,1.0,0.4,0.5,1.7222222222222223,3.125,2.2222222222222223,0.7777777777777778,2.625,3.0,1.5,1.5,0.25,2.5,,,,,,,,,,,,,,,,,,,,,,,,,,,,,,,,,,,,0.9505416412576074
6,240712_153246,DEMANDRATING,9.0,-1,,,,,,,,,,,,,,,,,,,,,,,,,,,,,,,,,,,,,,,7.0,MentalDemand,3.0,81.0,3.0828585000126623,42,21,Female,0.0,1.0,0.4,0.5,1.7222222222222223,3.125,2.2222222222222223,0.7777777777777778,2.625,3.0,1.5,1.5,0.25,2.5,,,,,,,,,,,,,,,,,,,,,,,,,,,,,,,,,,,,0.386157541760903
7,240712_153251,DEMANDRATING,9.0,-1,,,,,,,,,,,,,,,,,,,,,,,,,,,,,,,,,,,,,,,8.0,Effort,3.0,79.0,3.450413900020066,42,21,Female,0.0,1.0,0.4,0.5,1.7222222222222223,3.125,2.2222222222222223,0.7777777777777778,2.625,3.0,1.5,1.5,0.25,2.5,,,,,,,,,,,,,,,,,,,,,,,,,,,,,,,,,,,,0.32674868918230254
8,240712_153258,DEMANDRATING,9.0,-1,,,,,,,,,,,,,,,,,,,,,,,,,,,,,,,,,,,,,,,9.0,Frustration,3.0,80.0,6.005218400008744,42,21,Female,0.0,1.0,0.4,0.5,1.7222222222222223,3.125,2.2222222222222223,0.7777777777777778,2.625,3.0,1.5,1.5,0.25,2.5,,,,,,,,,,,,,,,,,,,,,,,,,,,,,,,,,,,,0.35645311547160274
