,END,Phase,Block,TrialN,NbackLevel,ISI,Letter_Resp,Letter_RT,Letter_Accuracy,Trial_A_measure,Trial_ACC,Trial_RT,TrialCountCali,CaliEnd_A_measure,ISI_calibrated,TrialIndex,TrialNumber_total,TrialNumber_valid,CueLearning,TrialDemandLearning,CueMapping,OfflineRatingTimePoint,CueFigure,TrialDemand,OfflineRating,OfflineRatingRT,PhaseType,CueLeft,CueDemandLeft,CueRight,CueDemandRight,Choice,ChoiceDemand,TaskDemand,ChoiceRT,CueCheck,CueDemandCheck,CorrectAnswer,Answer,AnswerDemand,AnswerRT,AnswerACC,DemandRatingQuesIndex,QuesTLX,DemandLevel,DemandRating,DemandRatingRT,PID,Age,Gender,BAI_bis,BAI_bas_d,BAI_bas_rr,BAI_bas_fs,NFC,BFI_ext,BFI_agr,BFI_con,BFI_neu,BFI_open,UPPS_lps,UPPS_lpm,UPPS_pu,UPPS_ss,Task_A_measure,Task_ACC,Task_RT,Task_RT_z,cue_i_on_zyg_values,cue_i_on_zyg_zvalues,cue_e_on_zyg_values,cue_e_on_zyg_zvalues,cue_i_on_cor_values,cue_i_on_cor_zvalues,cue_e_on_cor_values,cue_e_on_cor_zvalues,cue_i_on_scr_values,cue_i_on_scr_zvalues,cue_e_on_scr_values,cue_e_on_scr_zvalues,cue_e_true_zyg_values,cue_e_true_zyg_zvalues,cue_e_true_cor_values,cue_e_true_cor_zvalues,cue_e_true_scr_values,cue_e_true_scr_zvalues,cue_e_false_zyg_values,cue_e_false_zyg_zvalues,cue_e_false_cor_values,cue_e_false_cor_zvalues,cue_e_false_scr_values,cue_e_false_scr_zvalues,OfflineRating_z,cue_i_off_zyg_values,cue_i_off_zyg_zvalues,cue_i_off_cor_values,cue_i_off_cor_zvalues,cue_i_off_scr_values,cue_i_off_scr_zvalues,DemandRating_z
0,240719_144144,PRACTICE,0.0,1,1.0,1472.0,,,,,,,,,,26.0,1.0,1.0,cue2.png,Easy,B,,,,,,,,,,,,,,,,,,,,,,,,,,,48,29,Female,1.0,1.0,0.2,1.5,3.0,2.5,2.5555555555555554,3.111111111111111,2.125,2.111111111111111,0.75,2.0,2.5,1.75,,,,,,,,,,,,,,,,,,,,,,,,,,,,,,,,,,,,
0,240719_144528,LEARNING,1.0,1,1.0,1472.0,,,,,,,,,,1.0,1.0,1.0,cue2.png,Easy,B,,,,,,,,,,,,,,,,,,,,,,,,,,,48,29,Female,1.0,1.0,0.2,1.5,3.0,2.5,2.5555555555555554,3.111111111111111,2.125,2.111111111111111,0.75,2.0,2.5,1.75,1.0,1.0,0.5453128222401978,1.1520479848632685,0.007160732309089897,0.37524782107585536,0.00831763154138473,1.2330114313702885,0.02507335888821821,0.11011169980843162,0.032007690985635925,0.9869611662185729,8.571559500929559e+45,-0.1778752135339898,,,,,,,,,,,,,,,,,,,,,,
1,240719_144549,LEARNING,1.0,2,3.0,1472.0,,,,,,,,,,2.0,2.0,2.0,cue1.png,Hard,B,,,,,,,,,,,,,,,,,,,,,,,,,,,48,29,Female,1.0,1.0,0.2,1.5,3.0,2.5,2.5555555555555554,3.111111111111111,2.125,2.111111111111111,0.75,2.0,2.5,1.75,0.8194444444444444,0.8333333333333334,0.5409289111202169,1.0707049505466968,0.007086410277125846,0.2906884023760703,0.009570571727466597,2.3768006431347533,0.030303029190633754,1.4566072985010432,0.0293861418001041,0.5014378017091228,,,8.256182859836613e+44,-0.19456486159021277,,,,,,,,,,,,,,,,,,,,
2,240719_144609,LEARNING,1.0,3,1.0,1472.0,,,,,,,,,,3.0,3.0,3.0,cue2.png,Easy,B,,,,,,,,,,,,,,,,,,,,,,,,,,,48,29,Female,1.0,1.0,0.2,1.5,3.0,2.5,2.5555555555555554,3.111111111111111,2.125,2.111111111111111,0.75,2.0,2.5,1.75,0.8194444444444444,0.8333333333333334,0.4531892000231892,-0.5572966524426133,0.007034374943501866,0.23148553282560663,,,0.02279277363556971,-0.4770759865197308,0.03490204817363885,1.5230098689348663,,,-3.075814229752005e+45,-0.19510595494214095,,,,,,,,,,,,,,,,,,,,
3,240719_144628,LEARNING,1.0,4,3.0,1472.0,,,,,,,,,,4.0,4.0,4.0,cue1.png,Hard,B,,,,,,,,,,,,,,,,,,,,,,,,,,,48,29,Female,1.0,1.0,0.2,1.5,3.0,2.5,2.5555555555555554,3.111111111111111,2.125,2.111111111111111,0.75,2.0,2.5,1.75,1.0,1.0,0.3402771333284262,-2.6523688070868197,,,,,0.03226981879721173,1.963001276643108,,,-9.047879945935197e+44,-0.17984764886932592,,,,,,,,,,,,,,,,,,,,,,
4,240719_144648,LEARNING,1.0,5,3.0,1472.0,,,,,,,,,,5.0,5.0,5.0,cue1.png,Hard,B,,,,,,,,,,,,,,,,,,,,,,,,,,,48,29,Female,1.0,1.0,0.2,1.5,3.0,2.5,2.5555555555555554,3.111111111111111,2.125,2.111111111111111,0.75,2.0,2.5,1.75,1.0,1.0,0.457678955539854,-0.47398968588470747,,,0.007224508449302438,0.23511670842727145,0.020014412996872743,-1.1924270804229735,0.03069618310322924,0.7440636752384145,2.761286034992354e+49,5.567764089243219,4.2513534540507313e+49,5.701562798568042,,,,,,,,,,,,,,,,,,,,
5,240719_144709,LEARNING,1.0,6,1.0,1472.0,,,,,,,,,,6.0,6.0,6.0,cue2.png,Easy,B,,,,,,,,,,,,,,,,,,,,,,,,,,,48,29,Female,1.0,1.0,0.2,1.5,3.0,2.5,2.5555555555555554,3.111111111111111,2.125,2.111111111111111,0.75,2.0,2.5,1.75,1.0,1.0,0.5405483333031751,1.0636433670463696,,,,,0.027269375200570645,0.6755252207858347,0.032273258169752905,1.0361454704640867,-1.4186098451067205e+44,-0.17968885095761145,-4.408034189870483e+44,-0.19474050280982463,,,,,,,,,,,,,,,,,,,,
6,240719_144729,LEARNING,1.0,7,3.0,1472.0,,,,,,,,,,7.0,7.0,7.0,cue1.png,Hard,B,,,,,,,,,,,,,,,,,,,,,,,,,,,48,29,Female,1.0,1.0,0.2,1.5,3.0,2.5,2.5555555555555554,3.111111111111111,2.125,2.111111111111111,0.75,2.0,2.5,1.75,0.8194444444444444,0.8333333333333334,0.4349804888738112,-0.8951574747420489,,,0.006955126233530248,-0.010798041266379106,0.023373217956872194,-0.32762761239203186,0.024353585915451177,-0.4306154585095395,,,4.429487615539729e+44,-0.19461793438714553,,,,,,,,,,,,,,,,,,,,
7,240719_144748,LEARNING,1.0,8,3.0,1472.0,,,,,,,,,,8.0,8.0,8.0,cue1.png,Hard,B,,,,,,,,,,,,,,,,,,,,,,,,,,,48,29,Female,1.0,1.0,0.2,1.5,3.0,2.5,2.5555555555555554,3.111111111111111,2.125,2.111111111111111,0.75,2.0,2.5,1.75,1.0,1.0,0.3829061000012896,-1.8613925751221063,0.006269912324821771,-0.6382769446665496,0.00841620723757274,1.3229996200280432,0.023752596276487584,-0.2299481779226023,0.03543740547330998,1.622160584391799,2.128325742937085e+44,-0.17961502397850032,,,,,,,,,,,,,,,,,,,,,,
8,240719_144809,LEARNING,1.0,9,1.0,1472.0,,,,,,,,,,9.0,9.0,9.0,cue2.png,Easy,B,,,,,,,,,,,,,,,,,,,,,,,,,,,48,29,Female,1.0,1.0,0.2,1.5,3.0,2.5,2.5555555555555554,3.111111111111111,2.125,2.111111111111111,0.75,2.0,2.5,1.75,1.0,1.0,0.4995344777513916,0.3026353611134953,0.006882566797972149,0.058766781727758205,0.009076022139457834,1.9253341727233524,,,,,,,5.214031708168916e+48,0.5284596034209466,,,,,,,,,,,,,,,,,,,,
9,240719_144829,LEARNING,1.0,10,1.0,1472.0,,,,,,,,,,10.0,10.0,10.0,cue2.png,Easy,B,,,,,,,,,,,,,,,,,,,,,,,,,,,48,29,Female,1.0,1.0,0.2,1.5,3.0,2.5,2.5555555555555554,3.111111111111111,2.125,2.111111111111111,0.75,2.0,2.5,1.75,1.0,1.0,0.4276343444362283,-1.031464453311313,,,0.008958412874108904,1.8179705408405609,,,0.019464532708879826,-1.3360913409460848,,,,,,,,,,,,,,,,,,,,,,,,
10,240719_144849,LEARNING,1.0,11,3.0,1472.0,,,,,,,,,,11.0,11.0,11.0,cue1.png,Hard,B,,,,,,,,,,,,,,,,,,,,,,,,,,,48,29,Female,1.0,1.0,0.2,1.5,3.0,2.5,2.5555555555555554,3.111111111111111,2.125,2.111111111111111,0.75,2.0,2.5,1.75,0.8194444444444444,0.8333333333333334,0.4959538666557314,0.2361974787620271,0.0076861972010841256,0.9730921565976441,,,0.02676471412658446,0.545588938829395,0.02000285539340326,-1.236391422125544,,,,,,,,,,,,,,,,,,,,,,,,
11,240719_144909,LEARNING,1.0,12,1.0,1472.0,,,,,,,,,,12.0,12.0,12.0,cue2.png,Easy,B,,,,,,,,,,,,,,,,,,,,,,,,,,,48,29,Female,1.0,1.0,0.2,1.5,3.0,2.5,2.5555555555555554,3.111111111111111,2.125,2.111111111111111,0.75,2.0,2.5,1.75,1.0,1.0,0.4704979999999826,-0.23613359234455472,0.007801789837399688,1.1046069426512253,0.006259798718199788,-0.6455514951922349,0.022528791251499463,-0.5450441561610925,0.02178304775875832,-0.9066913381174385,1.6850696785309967e+43,-0.1796558162331602,-5.779915714164454e+42,-0.194680168990233,,,,,,,,,,,,,,,,,,,,
12,240719_144929,LEARNING,1.0,13,1.0,1472.0,,,,,,,,,,13.0,13.0,13.0,cue2.png,Easy,B,,,,,,,,,,,,,,,,,,,,,,,,,,,48,29,Female,1.0,1.0,0.2,1.5,3.0,2.5,2.5555555555555554,3.111111111111111,2.125,2.111111111111111,0.75,2.0,2.5,1.75,1.0,1.0,0.4468749222190429,-0.6744574483734561,,,0.007545294587749895,0.5279572833530154,0.024011248460507475,-0.1633523875122298,0.030765713091304846,0.756940959376771,-1.7538748323140895e+44,-0.17969582926341734,-5.69551860351945e+44,-0.1947583590524772,,,,,,,,,,,,,,,,,,,,
13,240719_144949,LEARNING,1.0,14,1.0,1472.0,,,,,,,,,,14.0,14.0,14.0,cue2.png,Easy,B,,,,,,,,,,,,,,,,,,,,,,,,,,,48,29,Female,1.0,1.0,0.2,1.5,3.0,2.5,2.5555555555555554,3.111111111111111,2.125,2.111111111111111,0.75,2.0,2.5,1.75,1.0,1.0,0.4448378555502535,-0.7122550175780983,0.0076902002097020165,0.9776465541677054,0.006788395221815069,-0.16300413584680745,0.026348449012682344,0.43841217407242977,0.019433447698235393,-1.3418484326066922,,,,,,,,,,,,,,,,,,,,,,,,
14,240719_145009,LEARNING,1.0,15,3.0,1472.0,,,,,,,,,,15.0,15.0,15.0,cue1.png,Hard,B,,,,,,,,,,,,,,,,,,,,,,,,,,,48,29,Female,1.0,1.0,0.2,1.5,3.0,2.5,2.5555555555555554,3.111111111111111,2.125,2.111111111111111,0.75,2.0,2.5,1.75,1.0,1.0,0.4554558666811014,-0.5152388783015209,0.007467112444519733,0.723829869608106,,,0.019324686891221476,-1.3700124943894831,0.020006204861459334,-1.2357710847277656,,,,,,,,,,,,,,,,,,,,,,,,
15,240719_145029,LEARNING,1.0,16,1.0,1472.0,,,,,,,,,,16.0,16.0,16.0,cue2.png,Easy,B,,,,,,,,,,,,,,,,,,,,,,,,,,,48,29,Female,1.0,1.0,0.2,1.5,3.0,2.5,2.5555555555555554,3.111111111111111,2.125,2.111111111111111,0.75,2.0,2.5,1.75,1.0,1.0,0.4842550333253004,0.01912679119178275,0.008270428912547161,1.6377980668341976,0.006684887138410114,-0.25749502251812734,,,0.02370959188894125,-0.5498862119253892,,,,,,,,,,,,,,,,,,,,,,,,
16,240719_145050,LEARNING,1.0,17,1.0,1472.0,,,,,,,,,,17.0,17.0,17.0,cue2.png,Easy,B,,,,,,,,,,,,,,,,,,,,,,,,,,,48,29,Female,1.0,1.0,0.2,1.5,3.0,2.5,2.5555555555555554,3.111111111111111,2.125,2.111111111111111,0.75,2.0,2.5,1.75,1.0,1.0,0.5130488888696871,0.5533939137569063,0.00760850566128129,0.8846991018060767,0.007182919779281226,0.19715107157540426,0.024454016844151258,-0.04935176312464227,0.024865595607930575,-0.33578883083228134,,,,,,,,,,,,,,,,,,,,,,,,
17,240719_145110,LEARNING,1.0,18,3.0,1472.0,,,,,,,,,,18.0,18.0,18.0,cue1.png,Hard,B,,,,,,,,,,,,,,,,,,,,,,,,,,,48,29,Female,1.0,1.0,0.2,1.5,3.0,2.5,2.5555555555555554,3.111111111111111,2.125,2.111111111111111,0.75,2.0,2.5,1.75,0.5,0.6666666666666667,0.4782354667161901,-0.09256566786014209,0.00660638401778742,-0.2554584181242488,0.00624990265419725,-0.6545854549700196,0.01960549734381076,-1.2977115620909965,0.020476912844264138,-1.1485937299124749,,,,,,,,,,,,,,,,,,,,,,,,
18,240719_145132,LEARNING,1.0,19,3.0,1472.0,,,,,,,,,,19.0,19.0,19.0,cue1.png,Hard,B,,,,,,,,,,,,,,,,,,,,,,,,,,,48,29,Female,1.0,1.0,0.2,1.5,3.0,2.5,2.5555555555555554,3.111111111111111,2.125,2.111111111111111,0.75,2.0,2.5,1.75,1.0,1.0,0.5860680999984551,1.9082581055843646,0.00638121328849062,-0.5116449818440582,0.006721999281442861,-0.22361593611172886,0.02176253021310581,-0.742335200525805,0.02657091391745825,-0.019955777700578953,1.3162338141808652e+44,-0.17963192710300663,4.956711648124588e+44,-0.19461062226735729,,,,,,,,,,,,,,,,,,,,
19,240719_145152,LEARNING,1.0,20,3.0,1472.0,,,,,,,,,,20.0,20.0,20.0,cue1.png,Hard,B,,,,,,,,,,,,,,,,,,,,,,,,,,,48,29,Female,1.0,1.0,0.2,1.5,3.0,2.5,2.5555555555555554,3.111111111111111,2.125,2.111111111111111,0.75,2.0,2.5,1.75,0.8194444444444444,0.8333333333333334,0.5268230666535803,0.8089724110150012,,,0.006087300787165396,-0.8030221188983988,0.022989949216834112,-0.4263087226217478,0.024505383856460415,-0.40250175862125737,9.447303099099989e+43,-0.1796396596881548,3.641452587515492e+44,-0.19462886371920576,,,,,,,,,,,,,,,,,,,,
20,240719_145213,LEARNING,1.0,21,1.0,1472.0,,,,,,,,,,21.0,21.0,21.0,cue2.png,Easy,B,,,,,,,,,,,,,,,,,,,,,,,,,,,48,29,Female,1.0,1.0,0.2,1.5,3.0,2.5,2.5555555555555554,3.111111111111111,2.125,2.111111111111111,0.75,2.0,2.5,1.75,1.0,1.0,0.5117945999890152,0.5301207084680559,0.00609312789971482,-0.8394122988432227,0.008134571166692112,1.0658985204740812,0.024261297829976543,-0.09897158413912825,0.01918795438941422,-1.3873149597736174,3.138395292167785e+43,-0.17965279123772243,1.2383294897874576e+44,-0.19466219285989447,,,,,,,,,,,,,,,,,,,,
21,240719_145233,LEARNING,1.0,22,3.0,1472.0,,,,,,,,,,22.0,22.0,22.0,cue1.png,Hard,B,,,,,,,,,,,,,,,,,,,,,,,,,,,48,29,Female,1.0,1.0,0.2,1.5,3.0,2.5,2.5555555555555554,3.111111111111111,2.125,2.111111111111111,0.75,2.0,2.5,1.75,0.8194444444444444,0.8333333333333334,0.495816188903215,0.23364288177293085,0.006749817403340325,-0.09226799687254925,0.0056305802979323225,-1.219955005383727,0.025762003123547372,0.2874185620608115,0.021599000015121803,-0.9407778546756416,-3.2373027959840327e+43,-0.1796660618065808,-8.601050835868548e+43,-0.19469129624672815,,,,,,,,,,,,,,,,,,,,
22,240719_145254,LEARNING,1.0,23,3.0,1472.0,,,,,,,,,,23.0,23.0,23.0,cue1.png,Hard,B,,,,,,,,,,,,,,,,,,,,,,,,,,,48,29,Female,1.0,1.0,0.2,1.5,3.0,2.5,2.5555555555555554,3.111111111111111,2.125,2.111111111111111,0.75,2.0,2.5,1.75,0.8194444444444444,0.8333333333333334,0.5258293555428585,0.7905342003013334,0.006019863044848427,-0.9227689210306096,0.007334928469943517,0.3359173929092866,0.023578345997480463,-0.27481280995221125,0.03657993477833468,1.8337624399998227,-7.949821376612839e+43,-0.1796758705838246,-2.743499619632429e+44,-0.19471741722302088,,,,,,,,,,,,,,,,,,,,
23,240719_145315,LEARNING,1.0,24,3.0,1472.0,,,,,,,,,,24.0,24.0,24.0,cue1.png,Hard,B,,,,,,,,,,,,,,,,,,,,,,,,,,,48,29,Female,1.0,1.0,0.2,1.5,3.0,2.5,2.5555555555555554,3.111111111111111,2.125,2.111111111111111,0.75,2.0,2.5,1.75,0.8194444444444444,0.8333333333333334,0.5442070666467771,1.1315307999296114,0.006412470489837086,-0.4760823000094474,0.006276125349108331,-0.6306471729387929,0.02261686235613721,-0.5223682802627686,0.031388062383051245,0.8722030050772355,,,,,,,,,,,,,,,,,,,,,,,,
24,240719_145335,LEARNING,1.0,25,1.0,1472.0,,,,,,,,,,25.0,25.0,25.0,cue2.png,Easy,B,,,,,,,,,,,,,,,,,,,,,,,,,,,48,29,Female,1.0,1.0,0.2,1.5,3.0,2.5,2.5555555555555554,3.111111111111111,2.125,2.111111111111111,0.75,2.0,2.5,1.75,1.0,1.0,0.4813762333295825,-0.0342890560809706,0.006750463906004898,-0.09153244258185642,,,0.030071458075824134,1.3969841351189325,0.023601301428764605,-0.5699421196533132,-9.417363512957807e+43,-0.17967892516995831,-3.5457844347638785e+44,-0.19472854418672125,,,,,,,,,,,,,,,,,,,,
25,240719_145355,LEARNING,1.0,26,1.0,1472.0,,,,,,,,,,26.0,26.0,26.0,cue2.png,Easy,B,,,,,,,,,,,,,,,,,,,,,,,,,,,48,29,Female,1.0,1.0,0.2,1.5,3.0,2.5,2.5555555555555554,3.111111111111111,2.125,2.111111111111111,0.75,2.0,2.5,1.75,1.0,1.0,0.4639438222317646,-0.3577457082214355,0.007286366733397038,0.5181875874863393,,,0.023366263025179128,-0.3294183151270773,0.025180898848354463,-0.277393172655728,-6.386831444841254e+43,-0.17967261732979223,-2.4518988973526286e+44,-0.19471337298512603,,,,,,,,,,,,,,,,,,,,
26,240719_145416,LEARNING,1.0,27,3.0,1472.0,,,,,,,,,,27.0,27.0,27.0,cue1.png,Hard,B,,,,,,,,,,,,,,,,,,,,,,,,,,,48,29,Female,1.0,1.0,0.2,1.5,3.0,2.5,2.5555555555555554,3.111111111111111,2.125,2.111111111111111,0.75,2.0,2.5,1.75,0.5,0.6666666666666667,0.5705429777735844,1.6201910085689215,,,,,,,0.023921185718358183,-0.5106980294053244,4.438454979038918e+44,-0.1795669402570387,9.979908812191784e+44,-0.19454095507255284,,,,,,,,,,,,,,,,,,,,
27,240719_145436,LEARNING,1.0,28,1.0,1472.0,,,,,,,,,,28.0,28.0,28.0,cue2.png,Easy,B,,,,,,,,,,,,,,,,,,,,,,,,,,,48,29,Female,1.0,1.0,0.2,1.5,3.0,2.5,2.5555555555555554,3.111111111111111,2.125,2.111111111111111,0.75,2.0,2.5,1.75,1.0,1.0,0.4152342666639015,-1.261546661676642,0.006496635326466974,-0.38032429296480547,0.00733126453791382,0.33257264750582777,0.027547877815510997,0.7472319486589774,0.02450833087150269,-0.4019559574337448,3.072042094866833e+43,-0.17965292934725355,9.740336228389228e+43,-0.1946658584041778,,,,,,,,,,,,,,,,,,,,
28,240719_145456,LEARNING,1.0,29,1.0,1472.0,,,,,,,,,,29.0,29.0,29.0,cue2.png,Easy,B,,,,,,,,,,,,,,,,,,,,,,,,,,,48,29,Female,1.0,1.0,0.2,1.5,3.0,2.5,2.5555555555555554,3.111111111111111,2.125,2.111111111111111,0.75,2.0,2.5,1.75,1.0,1.0,0.4748963111002619,-0.15452336782738063,0.006648358765470076,-0.2077019161783336,0.0068462481815361916,-0.11019108704150682,,,0.030702443924684648,0.7452232091179996,,,,,,,,,,,,,,,,,,,,,,,,
29,240719_145517,LEARNING,1.0,30,3.0,1472.0,,,,,,,,,,30.0,30.0,30.0,cue1.png,Hard,B,,,,,,,,,,,,,,,,,,,,,,,,,,,48,29,Female,1.0,1.0,0.2,1.5,3.0,2.5,2.5555555555555554,3.111111111111111,2.125,2.111111111111111,0.75,2.0,2.5,1.75,0.8194444444444444,0.8333333333333334,0.4809838999968229,-0.0415687620049218,0.007235497629091026,0.46031158791765575,0.008509496502210135,1.4081619092186948,0.02520178087827707,0.14317681374299998,0.03236102312113418,1.0523999564435291,,,3.1806561099854114e+44,-0.19463525454897349,,,,,,,,,,,,,,,,,,,,
30,240719_145537,LEARNING,1.0,31,3.0,1472.0,,,,,,,,,,31.0,31.0,31.0,cue1.png,Hard,B,,,,,,,,,,,,,,,,,,,,,,,,,,,48,29,Female,1.0,1.0,0.2,1.5,3.0,2.5,2.5555555555555554,3.111111111111111,2.125,2.111111111111111,0.75,2.0,2.5,1.75,0.8194444444444444,0.8333333333333334,0.5144432333763689,0.5792658372407542,0.0075848850562764865,0.8578249088412031,0.005589981021118615,-1.257017440878093,0.019857376197681888,-1.2328597170359537,0.022005237763150935,-0.8655406936479597,,,,,,,,,,,,,,,,,,,,,,,,
31,240719_145557,LEARNING,1.0,32,1.0,1472.0,,,,,,,,,,32.0,32.0,32.0,cue2.png,Easy,B,,,,,,,,,,,,,,,,,,,,,,,,,,,48,29,Female,1.0,1.0,0.2,1.5,3.0,2.5,2.5555555555555554,3.111111111111111,2.125,2.111111111111111,0.75,2.0,2.5,1.75,1.0,1.0,0.4475217777459572,-0.6624551084802417,0.00765537355522809,0.9380227497620627,0.005578019623796806,-1.2679368106662843,,,0.022684108453869662,-0.7398106163167026,6.250395433516395e+43,-0.17964631382746993,2.316607417833716e+44,-0.19464723812170426,,,,,,,,,,,,,,,,,,,,
32,240719_145618,LEARNING,1.0,33,1.0,1472.0,,,,,,,,,,33.0,33.0,33.0,cue2.png,Easy,B,,,,,,,,,,,,,,,,,,,,,,,,,,,48,29,Female,1.0,1.0,0.2,1.5,3.0,2.5,2.5555555555555554,3.111111111111111,2.125,2.111111111111111,0.75,2.0,2.5,1.75,1.0,1.0,0.4802891000096376,-0.054460706584540344,0.005819635547024815,-1.1505764819415727,0.006044787608366688,-0.8418317251413246,0.02460414199853019,-0.010698684070899455,0.03155895234875417,0.903852638647684,2.412310802480537e+43,-0.17965430253171474,1.0191187021799312e+44,-0.19466523311496406,,,,,,,,,,,,,,,,,,,,
33,240719_145638,LEARNING,1.0,34,1.0,1472.0,,,,,,,,,,34.0,34.0,34.0,cue2.png,Easy,B,,,,,,,,,,,,,,,,,,,,,,,,,,,48,29,Female,1.0,1.0,0.2,1.5,3.0,2.5,2.5555555555555554,3.111111111111111,2.125,2.111111111111111,0.75,2.0,2.5,1.75,1.0,1.0,0.4640614333071021,-0.3555634464293153,0.005581715095701397,-1.4212689607267313,,,0.022916852342557283,-0.44512914796414016,,,-1.9567574344844937e+43,-0.179663396441132,-5.676483230266356e+43,-0.19468724013635774,,,,,,,,,,,,,,,,,,,,
34,240719_145658,LEARNING,1.0,35,3.0,1472.0,,,,,,,,,,35.0,35.0,35.0,cue1.png,Hard,B,,,,,,,,,,,,,,,,,,,,,,,,,,,48,29,Female,1.0,1.0,0.2,1.5,3.0,2.5,2.5555555555555554,3.111111111111111,2.125,2.111111111111111,0.75,2.0,2.5,1.75,0.5,0.6666666666666667,0.5201784888437638,0.6856829313675719,0.005994691098487477,-0.9514081427469063,0.006127119696284805,-0.7666720686877541,0.024576399661670648,-0.01784156924696224,0.025323788054880253,-0.2509294127204312,-5.835974376316905e+43,-0.1796714707593998,-2.02340834022038e+44,-0.1947074302092125,,,,,,,,,,,,,,,,,,,,
35,240719_145718,LEARNING,1.0,36,3.0,1472.0,,,,,,,,,,36.0,36.0,36.0,cue1.png,Hard,B,,,,,,,,,,,,,,,,,,,,,,,,,,,48,29,Female,1.0,1.0,0.2,1.5,3.0,2.5,2.5555555555555554,3.111111111111111,2.125,2.111111111111111,0.75,2.0,2.5,1.75,0.8194444444444444,0.8333333333333334,0.4072855333409582,-1.409034617012805,0.007207442964862519,0.4283925723002188,0.007369469622011474,0.36744946246544874,,,0.029518027749809633,0.5258637062032874,-7.573018982515471e+43,-0.17967508629604187,-2.8017078608357667e+44,-0.1947182245186031,,,,,,,,,,,,,,,,,,,,
36,240719_145737,LEARNING,1.0,37,1.0,1472.0,,,,,,,,,,37.0,37.0,37.0,cue2.png,Easy,B,,,,,,,,,,,,,,,,,,,,,,,,,,,48,29,Female,1.0,1.0,0.2,1.5,3.0,2.5,2.5555555555555554,3.111111111111111,2.125,2.111111111111111,0.75,2.0,2.5,1.75,1.0,1.0,0.3990413444634113,-1.5620047207455454,0.009423223896690189,2.9493832208341906,0.0062663865250509295,-0.6395375908660542,,,,,,,-2.8891955438386615e+44,-0.1947194378935226,,,,,,,,,,,,,,,,,,,,
37,240719_145758,LEARNING,1.0,38,3.0,1472.0,,,,,,,,,,38.0,38.0,38.0,cue1.png,Hard,B,,,,,,,,,,,,,,,,,,,,,,,,,,,48,29,Female,1.0,1.0,0.2,1.5,3.0,2.5,2.5555555555555554,3.111111111111111,2.125,2.111111111111111,0.75,2.0,2.5,1.75,1.0,1.0,0.5352367111223025,0.9650867463689733,0.007870526427181009,1.1828115600670333,0.005611723822034049,-1.2371687829797569,,,,,-5.056101359904182e+43,-0.1796698475083578,,,,,,,,,,,,,,,,,,,,,,
38,240719_145819,LEARNING,1.0,39,3.0,1472.0,,,,,,,,,,39.0,39.0,39.0,cue1.png,Hard,B,,,,,,,,,,,,,,,,,,,,,,,,,,,48,29,Female,1.0,1.0,0.2,1.5,3.0,2.5,2.5555555555555554,3.111111111111111,2.125,2.111111111111111,0.75,2.0,2.5,1.75,0.8194444444444444,0.8333333333333334,0.538409600008486,1.0239593837213055,0.005800562675761839,-1.1722765197945901,0.006112459729052496,-0.7800549201210468,,,,,-5.4981000925205796e+42,-0.17966046797864388,-2.358042303720797e+43,-0.19468263775936703,,,,,,,,,,,,,,,,,,,,
39,240719_145841,LEARNING,1.0,40,3.0,1472.0,,,,,,,,,,40.0,40.0,40.0,cue1.png,Hard,B,,,,,,,,,,,,,,,,,,,,,,,,,,,48,29,Female,1.0,1.0,0.2,1.5,3.0,2.5,2.5555555555555554,3.111111111111111,2.125,2.111111111111111,0.75,2.0,2.5,1.75,1.0,1.0,0.6165317555811877,2.4735082015957124,0.005711662512731416,-1.2734221143042346,,,0.021207234638580562,-0.8853084672585804,0.022533513371301293,-0.7677015411067861,4.426779886022769e+43,-0.17965010955546076,1.4915036264746115e+44,-0.19465868156393618,,,,,,,,,,,,,,,,,,,,
40,240719_145900,LEARNING,1.0,41,1.0,1472.0,,,,,,,,,,41.0,41.0,41.0,cue2.png,Easy,B,,,,,,,,,,,,,,,,,,,,,,,,,,,48,29,Female,1.0,1.0,0.2,1.5,3.0,2.5,2.5555555555555554,3.111111111111111,2.125,2.111111111111111,0.75,2.0,2.5,1.75,1.0,1.0,0.4066316000082426,-1.421168284887911,0.00585271993911192,-1.112934925474514,0.00739184297465533,0.3878737410298313,0.02415170369751654,-0.12718904498589859,0.037178349766771424,1.9445917390120966,7.215511409864551e+43,-0.17964430500618583,,,,,,,,,,,,,,,,,,,,,,
41,240719_145920,LEARNING,1.0,42,3.0,1472.0,,,,,,,,,,42.0,42.0,42.0,cue1.png,Hard,B,,,,,,,,,,,,,,,,,,,,,,,,,,,48,29,Female,1.0,1.0,0.2,1.5,3.0,2.5,2.5555555555555554,3.111111111111111,2.125,2.111111111111111,0.75,2.0,2.5,1.75,0.8194444444444444,0.8333333333333334,0.4921489888802171,0.16559835049654176,,,0.007270244461551301,0.27686838818060844,,,,,8.12976523506659e+43,-0.1796424020509057,2.942330703259439e+44,-0.19463855990649678,,,,,,,,,,,,,,,,,,,,
42,240719_145940,LEARNING,1.0,43,3.0,1472.0,,,,,,,,,,43.0,43.0,43.0,cue1.png,Hard,B,,,,,,,,,,,,,,,,,,,,,,,,,,,48,29,Female,1.0,1.0,0.2,1.5,3.0,2.5,2.5555555555555554,3.111111111111111,2.125,2.111111111111111,0.75,2.0,2.5,1.75,0.8194444444444444,0.8333333333333334,0.40839340002276,-1.3884782610444428,0.006894489203116296,0.07233142227714474,0.005476838631351205,-1.360303332931648,0.024151345421959874,-0.12728129104201194,,,5.921520660710886e+43,-0.17964699835726697,2.0995353014301054e+44,-0.19465024871534137,,,,,,,,,,,,,,,,,,,,
43,240719_150001,LEARNING,1.0,44,1.0,1472.0,,,,,,,,,,44.0,44.0,44.0,cue2.png,Easy,B,,,,,,,,,,,,,,,,,,,,,,,,,,,48,29,Female,1.0,1.0,0.2,1.5,3.0,2.5,2.5555555555555554,3.111111111111111,2.125,2.111111111111111,0.75,2.0,2.5,1.75,1.0,1.0,0.4969541110977944,0.25475691478819534,0.005448427187232328,-1.5729164300169431,0.0063025492841881775,-0.6065251819511737,0.02337862038876709,-0.3262366354569553,0.02402417537261163,-0.4916238561192509,7.242049818376751e+42,-0.17965781620570356,4.574749309893207e+43,-0.19467302260535038,,,,,,,,,,,,,,,,,,,,
44,240719_150021,LEARNING,1.0,45,1.0,1472.0,,,,,,,,,,45.0,45.0,45.0,cue2.png,Easy,B,,,,,,,,,,,,,,,,,,,,,,,,,,,48,29,Female,1.0,1.0,0.2,1.5,3.0,2.5,2.5555555555555554,3.111111111111111,2.125,2.111111111111111,0.75,2.0,2.5,1.75,1.0,1.0,0.4960752222298955,0.23844921935702806,,,0.008665869226207844,1.5509120873274487,,,,,-5.247229869242972e+43,-0.1796702453289586,-1.8222017804814906e+44,-0.19470463965647578,,,,,,,,,,,,,,,,,,,,
45,240719_150041,LEARNING,1.0,46,1.0,1472.0,,,,,,,,,,46.0,46.0,46.0,cue2.png,Easy,B,,,,,,,,,,,,,,,,,,,,,,,,,,,48,29,Female,1.0,1.0,0.2,1.5,3.0,2.5,2.5555555555555554,3.111111111111111,2.125,2.111111111111111,0.75,2.0,2.5,1.75,1.0,1.0,0.4460354888837577,-0.6900330503256403,,,,,0.02121359358555535,-0.8836712141204777,0.0369503200740425,1.9023595565175533,-8.814191736641193e+43,-0.17967766971016702,-3.1629528608887794e+44,-0.19472323465954897,,,,,,,,,,,,,,,,,,,,
46,240719_150102,LEARNING,1.0,47,3.0,1472.0,,,,,,,,,,47.0,47.0,47.0,cue1.png,Hard,B,,,,,,,,,,,,,,,,,,,,,,,,,,,48,29,Female,1.0,1.0,0.2,1.5,3.0,2.5,2.5555555555555554,3.111111111111111,2.125,2.111111111111111,0.75,2.0,2.5,1.75,1.0,1.0,0.529087055565065,0.85098049983776,0.005429146638986589,-1.5948527510349353,,,0.040503529456577654,4.082954260796586,,,,,-2.0104465953311516e+44,-0.19470725044155124,,,,,,,,,,,,,,,,,,,,
47,240719_150123,LEARNING,1.0,48,3.0,1472.0,,,,,,,,,,48.0,48.0,48.0,cue1.png,Hard,B,,,,,,,,,,,,,,,,,,,,,,,,,,,48,29,Female,1.0,1.0,0.2,1.5,3.0,2.5,2.5555555555555554,3.111111111111111,2.125,2.111111111111111,0.75,2.0,2.5,1.75,0.8194444444444444,0.8333333333333334,0.5447811333514336,1.1421825504735599,,,0.005811589070558475,-1.0547149694551547,0.02333784392977887,-0.3367354469274509,0.021431319639363147,-0.9718330569391977,2.667137666654944e+43,-0.17965377212745134,1.425986642697577e+44,-0.19465959022515783,,,,,,,,,,,,,,,,,,,,
48,240719_150143,LEARNING,1.0,49,1.0,1472.0,,,,,,,,,,49.0,49.0,49.0,cue2.png,Easy,B,,,,,,,,,,,,,,,,,,,,,,,,,,,48,29,Female,1.0,1.0,0.2,1.5,3.0,2.5,2.5555555555555554,3.111111111111111,2.125,2.111111111111111,0.75,2.0,2.5,1.75,1.0,1.0,0.4526000222087734,-0.5682287881235019,,,0.006056250616736596,-0.8313673267179114,0.026947708844500977,0.5927050222552994,0.02758944425028561,0.1686808791199367,,,,,,,,,,,,,,,,,,,,,,,,
49,240719_150203,LEARNING,1.0,50,1.0,1472.0,,,,,,,,,,50.0,50.0,50.0,cue2.png,Easy,B,,,,,,,,,,,,,,,,,,,,,,,,,,,48,29,Female,1.0,1.0,0.2,1.5,3.0,2.5,2.5555555555555554,3.111111111111111,2.125,2.111111111111111,0.75,2.0,2.5,1.75,1.0,1.0,0.4758380333272119,-0.13704980567546254,,,,,,,,,-2.1411296700060817e+43,-0.1796637801990222,-2.7547442317285603e+44,-0.19471757317560562,,,,,,,,,,,,,,,,,,,,
0,240719_150336,TrueCHOICE,9.0,1,3.0,1472.0,,,,,,,,,,,1.0,1.0,,,B,,,,,,True,cue2.png,Easy,cue1.png,Hard,Right,Hard,Hard,0.0136343999765813,,,,,,,,,,,,,48,29,Female,1.0,1.0,0.2,1.5,3.0,2.5,2.5555555555555554,3.111111111111111,2.125,2.111111111111111,0.75,2.0,2.5,1.75,1.0,1.0,0.509091033328635,0.16528146525522788,,,,,,,,,,,,,,,,,86801352.26792382,-0.5617532994488557,,,,,,,,,,,,,,
1,240719_150355,TrueCHOICE,9.0,2,3.0,1472.0,,,,,,,,,,,2.0,2.0,,,B,,,,,,True,cue2.png,Easy,cue1.png,Hard,Right,Hard,Hard,0.0167011999292299,,,,,,,,,,,,,48,29,Female,1.0,1.0,0.2,1.5,3.0,2.5,2.5555555555555554,3.111111111111111,2.125,2.111111111111111,0.75,2.0,2.5,1.75,0.8194444444444444,0.8333333333333334,0.5395030444487929,0.729979589084088,,,,,,,,,,,,,0.007319238765912577,1.2072957146136172,,,,,,,,,,,,,,,,,,
2,240719_150415,TrueCHOICE,9.0,3,3.0,1472.0,,,,,,,,,,,3.0,3.0,,,B,,,,,,True,cue1.png,Hard,cue2.png,Easy,Left,Hard,Hard,0.0160811999812722,,,,,,,,,,,,,48,29,Female,1.0,1.0,0.2,1.5,3.0,2.5,2.5555555555555554,3.111111111111111,2.125,2.111111111111111,0.75,2.0,2.5,1.75,0.8194444444444444,0.8333333333333334,0.5682218222387342,1.2632373165182467,,,,,,,,,,,,,,,0.02881963802269612,-0.44635976834857594,11035258.75300304,-0.5629726040506486,,,,,,,,,,,,,,
3,240719_150433,TrueCHOICE,9.0,4,3.0,1472.0,,,,,,,,,,,4.0,4.0,,,B,,,,,,True,cue2.png,Easy,cue1.png,Hard,Right,Hard,Hard,0.0166049000108614,,,,,,,,,,,,,48,29,Female,1.0,1.0,0.2,1.5,3.0,2.5,2.5555555555555554,3.111111111111111,2.125,2.111111111111111,0.75,2.0,2.5,1.75,0.8194444444444444,0.8333333333333334,0.5406581222260785,0.7514273733536788,,,,,,,,,,,,,0.00719692355868368,1.0146949495044748,,,,,,,,,,,,,,,,,,
4,240719_150452,TrueCHOICE,9.0,5,1.0,1472.0,,,,,,,,,,,5.0,5.0,,,B,,,,,,True,cue1.png,Hard,cue2.png,Easy,Right,Easy,Easy,0.0166563000530004,,,,,,,,,,,,,48,29,Female,1.0,1.0,0.2,1.5,3.0,2.5,2.5555555555555554,3.111111111111111,2.125,2.111111111111111,0.75,2.0,2.5,1.75,1.0,1.0,0.5806855444356592,1.4946669484725292,,,,,,,,,,,,,0.00572837856631574,-1.2977148933531002,0.03481817913708942,0.744118330468169,158635833664.86795,1.989778074813244,,,,,,,,,,,,,,
5,240719_150509,TrueCHOICE,9.0,6,1.0,1472.0,,,,,,,,,,,6.0,6.0,,,B,,,,,,True,cue1.png,Hard,cue2.png,Easy,Right,Easy,Easy,0.0153647999977692,,,,,,,,,,,,,48,29,Female,1.0,1.0,0.2,1.5,3.0,2.5,2.5555555555555554,3.111111111111111,2.125,2.111111111111111,0.75,2.0,2.5,1.75,1.0,1.0,0.4119855888938117,-1.6377976559925633,,,,,,,,,,,,,,,,,,,,,,,,,,,,,,,,
6,240719_150528,TrueCHOICE,9.0,7,1.0,1472.0,,,,,,,,,,,7.0,7.0,,,B,,,,,,True,cue2.png,Easy,cue1.png,Hard,Left,Easy,Easy,0.0168098000576719,,,,,,,,,,,,,48,29,Female,1.0,1.0,0.2,1.5,3.0,2.5,2.5555555555555554,3.111111111111111,2.125,2.111111111111111,0.75,2.0,2.5,1.75,1.0,1.0,0.4535533888782892,-0.8659559461436193,,,,,,,,,,,,,,,,,,,,,,,,,,,,,,,,
7,240719_150546,TrueCHOICE,9.0,8,1.0,1472.0,,,,,,,,,,,8.0,8.0,,,B,,,,,,True,cue1.png,Hard,cue2.png,Easy,Right,Easy,Easy,0.0165964000625535,,,,,,,,,,,,,48,29,Female,1.0,1.0,0.2,1.5,3.0,2.5,2.5555555555555554,3.111111111111111,2.125,2.111111111111111,0.75,2.0,2.5,1.75,1.0,1.0,0.4702711444373967,-0.5555363174792037,,,,,,,,,,,,,,,0.023327638076986394,-1.5363090625831717,,,,,,,,,,,,,,,,
8,240719_150603,TrueCHOICE,9.0,9,1.0,1472.0,,,,,,,,,,,9.0,9.0,,,B,,,,,,True,cue2.png,Easy,cue1.png,Hard,Left,Easy,Easy,0.0159232000587508,,,,,,,,,,,,,48,29,Female,1.0,1.0,0.2,1.5,3.0,2.5,2.5555555555555554,3.111111111111111,2.125,2.111111111111111,0.75,2.0,2.5,1.75,1.0,1.0,0.4398919889030771,-1.1196243702540025,,,,,,,,,,,,,0.006543618099860531,-0.014017130293166678,0.037959457673807206,1.3675404641053852,16233090487.310839,-0.3019108853700203,,,,,,,,,,,,,,
9,240719_150621,TrueCHOICE,9.0,10,1.0,1472.0,,,,,,,,,,,10.0,10.0,,,B,,,,,,True,cue1.png,Hard,cue2.png,Easy,Right,Easy,Easy,0.0165930000366643,,,,,,,,,,,,,48,29,Female,1.0,1.0,0.2,1.5,3.0,2.5,2.5555555555555554,3.111111111111111,2.125,2.111111111111111,0.75,2.0,2.5,1.75,1.0,1.0,0.4880357555553524,-0.22567840281437437,,,,,,,,,,,,,0.005974440890296904,-0.9102586404718181,0.030418790349725708,-0.12898996364180193,553572.6625206488,-0.5631412859437195,,,,,,,,,,,,,,
0,240719_150746,FalseCHOICE,9.0,1,2.0,1472.0,,,,,,,,,,,1.0,1.0,,,B,,,,,,False,cue2.png,Easy,cue1.png,Hard,Left,Easy,Mid,0.0167549999896436,,,,,,,,,,,,,48,29,Female,1.0,1.0,0.2,1.5,3.0,2.5,2.5555555555555554,3.111111111111111,2.125,2.111111111111111,0.75,2.0,2.5,1.75,0.8194444444444444,0.8333333333333334,0.5100550555572327,0.07652556811505598,,,,,,,,,,,,,,,,,,,0.006216134015714955,-0.7687272958475879,0.03106579612931057,1.0165210916757457,,,,,,,,,,
1,240719_150805,FalseCHOICE,9.0,2,2.0,1472.0,,,,,,,,,,,2.0,2.0,,,B,,,,,,False,cue1.png,Hard,cue2.png,Easy,Left,Hard,Mid,0.0159174000145867,,,,,,,,,,,,,48,29,Female,1.0,1.0,0.2,1.5,3.0,2.5,2.5555555555555554,3.111111111111111,2.125,2.111111111111111,0.75,2.0,2.5,1.75,0.8194444444444444,0.8333333333333334,0.5209707222206311,0.25024179302289035,,,,,,,,,,,,,,,,,,,,,,,1.2597934625841626e+45,-0.1681643170596289,,,,,,,,
2,240719_150824,FalseCHOICE,9.0,3,2.0,1472.0,,,,,,,,,,,3.0,3.0,,,B,,,,,,False,cue1.png,Hard,cue2.png,Easy,Left,Hard,Mid,0.0159213000442832,,,,,,,,,,,,,48,29,Female,1.0,1.0,0.2,1.5,3.0,2.5,2.5555555555555554,3.111111111111111,2.125,2.111111111111111,0.75,2.0,2.5,1.75,1.0,1.0,0.5649571222149663,0.9502587127336805,,,,,,,,,,,,,,,,,,,,,0.02983380026568569,0.7443264969736698,-8.985213932244252e+44,-0.1782844228584916,,,,,,,,
3,240719_150843,FalseCHOICE,9.0,4,2.0,1472.0,,,,,,,,,,,4.0,4.0,,,B,,,,,,False,cue1.png,Hard,cue2.png,Easy,Right,Easy,Mid,0.0166011999826878,,,,,,,,,,,,,48,29,Female,1.0,1.0,0.2,1.5,3.0,2.5,2.5555555555555554,3.111111111111111,2.125,2.111111111111111,0.75,2.0,2.5,1.75,0.5,0.6666666666666667,0.6068768888686059,1.6173864142881396,,,,,,,,,,,,,,,,,,,0.0067604918549954785,-0.3437354164008937,0.031399875812103184,1.090331959504781,-1.0226480098487354e+45,-0.17886643918910816,,,,,,,,
4,240719_150901,FalseCHOICE,9.0,5,2.0,1472.0,,,,,,,,,,,5.0,5.0,,,B,,,,,,False,cue2.png,Easy,cue1.png,Hard,Right,Hard,Mid,0.0171441999264061,,,,,,,,,,,,,48,29,Female,1.0,1.0,0.2,1.5,3.0,2.5,2.5555555555555554,3.111111111111111,2.125,2.111111111111111,0.75,2.0,2.5,1.75,1.0,1.0,0.4688467999997859,-0.5792788652028332,,,,,,,,,,,,,,,,,,,,,0.029511656241105164,0.6731526685580491,,,,,,,,,,
5,240719_150919,FalseCHOICE,9.0,6,2.0,1472.0,,,,,,,,,,,6.0,6.0,,,B,,,,,,False,cue1.png,Hard,cue2.png,Easy,Right,Easy,Mid,0.0151214000070467,,,,,,,,,,,,,48,29,Female,1.0,1.0,0.2,1.5,3.0,2.5,2.5555555555555554,3.111111111111111,2.125,2.111111111111111,0.75,2.0,2.5,1.75,0.8194444444444444,0.8333333333333334,0.5076027777589237,0.03749905194486415,,,,,,,,,,,,,,,,,,,0.004665374597032668,-1.9794385456139674,0.023802043404585024,-0.588317274506283,,,,,,,,,,
6,240719_150937,FalseCHOICE,9.0,7,2.0,1472.0,,,,,,,,,,,7.0,7.0,,,B,,,,,,False,cue1.png,Hard,cue2.png,Easy,Left,Hard,Mid,0.0160732000367715,,,,,,,,,,,,,48,29,Female,1.0,1.0,0.2,1.5,3.0,2.5,2.5555555555555554,3.111111111111111,2.125,2.111111111111111,0.75,2.0,2.5,1.75,1.0,1.0,0.5330528555593143,0.4425216287077666,,,,,,,,,,,,,,,,,,,,,0.02709849691027582,0.13999428272224676,6.051048224918755e+43,-0.1737876257307905,,,,,,,,
7,240719_150955,FalseCHOICE,9.0,8,2.0,1472.0,,,,,,,,,,,8.0,8.0,,,B,,,,,,False,cue2.png,Easy,cue1.png,Hard,Right,Hard,Mid,0.0154342999448999,,,,,,,,,,,,,48,29,Female,1.0,1.0,0.2,1.5,3.0,2.5,2.5555555555555554,3.111111111111111,2.125,2.111111111111111,0.75,2.0,2.5,1.75,0.8194444444444444,0.8333333333333334,0.4459724222801419,-0.9433107349095722,,,,,,,,,,,,,,,,,,,0.0057639637984702365,-1.1217463149373874,0.028128536874622335,0.3675691625577269,,,,,,,,,,
8,240719_151013,FalseCHOICE,9.0,9,2.0,1472.0,,,,,,,,,,,9.0,9.0,,,B,,,,,,False,cue2.png,Easy,cue1.png,Hard,Left,Easy,Mid,0.0141425000037997,,,,,,,,,,,,,48,29,Female,1.0,1.0,0.2,1.5,3.0,2.5,2.5555555555555554,3.111111111111111,2.125,2.111111111111111,0.75,2.0,2.5,1.75,0.5,0.6666666666666667,0.5128767777932808,0.12143156879281494,,,,,,,,,,,,,,,,,,,0.007545520190411065,0.2691530984924331,0.030145169393518943,0.8131197421911854,1.2622654526756625e+48,5.744555344697053,,,,,,,,
9,240719_151031,FalseCHOICE,9.0,10,2.0,1472.0,,,,,,,,,,,10.0,10.0,,,B,,,,,,False,cue1.png,Hard,cue2.png,Easy,Right,Easy,Mid,0.0167393999872729,,,,,,,,,,,,,48,29,Female,1.0,1.0,0.2,1.5,3.0,2.5,2.5555555555555554,3.111111111111111,2.125,2.111111111111111,0.75,2.0,2.5,1.75,0.8194444444444444,0.8333333333333334,0.4889881777991023,-0.25874103424543377,,,,,,,,,,,,,,,,,,,0.006948019340089772,-0.19732867328597503,0.02041166388589875,-1.3373806490047693,4.8683408526014456e+44,-0.171788640292956,,,,,,,,
10,240719_151050,FalseCHOICE,9.0,11,2.0,1472.0,,,,,,,,,,,11.0,11.0,,,B,,,,,,False,cue2.png,Easy,cue1.png,Hard,Left,Easy,Mid,0.0164769000839442,,,,,,,,,,,,,48,29,Female,1.0,1.0,0.2,1.5,3.0,2.5,2.5555555555555554,3.111111111111111,2.125,2.111111111111111,0.75,2.0,2.5,1.75,0.8194444444444444,0.8333333333333334,0.529145733311048,0.38034214410531914,,,,,,,,,,,,,,,,,,,0.006061950326345458,-0.8891018200976195,0.02801604091976192,0.3427145410910937,,,,,,,,,,
11,240719_151108,FalseCHOICE,9.0,12,2.0,1472.0,,,,,,,,,,,12.0,12.0,,,B,,,,,,False,cue1.png,Hard,cue2.png,Easy,Right,Easy,Mid,0.0165229000849649,,,,,,,,,,,,,48,29,Female,1.0,1.0,0.2,1.5,3.0,2.5,2.5555555555555554,3.111111111111111,2.125,2.111111111111111,0.75,2.0,2.5,1.75,1.0,1.0,0.4725157444287712,-0.5208898363643941,,,,,,,,,,,,,,,,,,,0.00836883129220206,0.9119297929218659,0.023438284686048003,-0.6686853665469543,3.000526926804978e+44,-0.17266443811692864,,,,,,,,
12,240719_151126,FalseCHOICE,9.0,13,2.0,1472.0,,,,,,,,,,,13.0,13.0,,,B,,,,,,False,cue2.png,Easy,cue1.png,Hard,Right,Hard,Mid,0.0167890000157058,,,,,,,,,,,,,48,29,Female,1.0,1.0,0.2,1.5,3.0,2.5,2.5555555555555554,3.111111111111111,2.125,2.111111111111111,0.75,2.0,2.5,1.75,0.8194444444444444,0.8333333333333334,0.4893681110891824,-0.2526946260044391,,,,,,,,,,,,,,,,,,,0.006057592698912567,-0.8925039136085355,0.019819160630664877,-1.4682870815503501,1.126523741349506e+43,-0.17401853137761347,,,,,,,,
13,240719_151145,FalseCHOICE,9.0,14,2.0,1472.0,,,,,,,,,,,14.0,14.0,,,B,,,,,,False,cue1.png,Hard,cue2.png,Easy,Right,Easy,Mid,0.0164182999869808,,,,,,,,,,,,,48,29,Female,1.0,1.0,0.2,1.5,3.0,2.5,2.5555555555555554,3.111111111111111,2.125,2.111111111111111,0.75,2.0,2.5,1.75,0.8194444444444444,0.8333333333333334,0.6067298666910372,1.6150466453621977,,,,,,,,,,,,,,,,,,,0.007551304730415898,0.2736692133547406,0.027327631123935294,0.19061871764194854,,,,,,,,,,
14,240719_151204,FalseCHOICE,9.0,15,2.0,1472.0,,,,,,,,,,,15.0,15.0,,,B,,,,,,False,cue2.png,Easy,cue1.png,Hard,Right,Hard,Mid,0.0167491000611335,,,,,,,,,,,,,48,29,Female,1.0,1.0,0.2,1.5,3.0,2.5,2.5555555555555554,3.111111111111111,2.125,2.111111111111111,0.75,2.0,2.5,1.75,0.8194444444444444,0.8333333333333334,0.5954308888823208,1.4352302556927337,,,,,,,,,,,,,,,,,,,0.0077352725860263755,0.41729687713011987,0.03515816702142284,1.9206809750308744,,,,,,,,,,
15,240719_151223,FalseCHOICE,9.0,16,2.0,1472.0,,,,,,,,,,,16.0,16.0,,,B,,,,,,False,cue2.png,Easy,cue1.png,Hard,Right,Hard,Mid,0.0166504000080749,,,,,,,,,,,,,48,29,Female,1.0,1.0,0.2,1.5,3.0,2.5,2.5555555555555554,3.111111111111111,2.125,2.111111111111111,0.75,2.0,2.5,1.75,1.0,1.0,0.4872749666683376,-0.2860057519474192,,,,,,,,,,,,,,,,,,,,,,,,,,,,,,,,
16,240719_151240,FalseCHOICE,9.0,17,2.0,1472.0,,,,,,,,,,,17.0,17.0,,,B,,,,,,False,cue1.png,Hard,cue2.png,Easy,Right,Easy,Mid,0.0163286000024527,,,,,,,,,,,,,48,29,Female,1.0,1.0,0.2,1.5,3.0,2.5,2.5555555555555554,3.111111111111111,2.125,2.111111111111111,0.75,2.0,2.5,1.75,1.0,1.0,0.4608122889055974,-0.7071432439258099,,,,,,,,,,,,,,,,,,,0.006823536975348164,-0.29451473424071023,0.028886704341875902,0.5350771003345534,,,,,,,,,,
17,240719_151258,FalseCHOICE,9.0,18,2.0,1472.0,,,,,,,,,,,18.0,18.0,,,B,,,,,,False,cue1.png,Hard,cue2.png,Easy,Right,Easy,Mid,0.0165852999780327,,,,,,,,,,,,,48,29,Female,1.0,1.0,0.2,1.5,3.0,2.5,2.5555555555555554,3.111111111111111,2.125,2.111111111111111,0.75,2.0,2.5,1.75,0.8194444444444444,0.8333333333333334,0.517974177802292,0.2025536031784742,,,,,,,,,,,,,,,,,,,0.008696105256058451,1.167439619283751,0.02235518726136453,-0.9079826509283779,,,,,,,,,,
18,240719_151316,FalseCHOICE,9.0,19,2.0,1472.0,,,,,,,,,,,19.0,19.0,,,B,,,,,,False,cue2.png,Easy,cue1.png,Hard,Right,Hard,Mid,0.0155462999828159,,,,,,,,,,,,,48,29,Female,1.0,1.0,0.2,1.5,3.0,2.5,2.5555555555555554,3.111111111111111,2.125,2.111111111111111,0.75,2.0,2.5,1.75,1.0,1.0,0.476262433337979,-0.4612635512017982,,,,,,,,,,,,,,,,,,,0.007143298468927823,-0.044870055088638415,0.027137647765100616,0.14864419087203573,,,,,,,,,,
19,240719_151334,FalseCHOICE,9.0,20,2.0,1472.0,,,,,,,,,,,20.0,20.0,,,B,,,,,,False,cue2.png,Easy,cue1.png,Hard,Right,Hard,Mid,0.0164568999316543,,,,,,,,,,,,,48,29,Female,1.0,1.0,0.2,1.5,3.0,2.5,2.5555555555555554,3.111111111111111,2.125,2.111111111111111,0.75,2.0,2.5,1.75,0.8194444444444444,0.8333333333333334,0.4911599222104996,-0.22417903704945422,,,,,,,,,,,,,,,,,,,0.008438302788005477,0.9661676846889622,0.02110842361524557,-1.1834400086715546,,,,,,,,,,
20,240719_151352,FalseCHOICE,9.0,21,2.0,1472.0,,,,,,,,,,,21.0,21.0,,,B,,,,,,False,cue2.png,Easy,cue1.png,Hard,Right,Hard,Mid,0.0167479999363422,,,,,,,,,,,,,48,29,Female,1.0,1.0,0.2,1.5,3.0,2.5,2.5555555555555554,3.111111111111111,2.125,2.111111111111111,0.75,2.0,2.5,1.75,0.8194444444444444,0.8333333333333334,0.4753188888878665,-0.47627948975696616,,,,,,,,,,,,,,,,,,,0.0069834968135218545,-0.16963064631928526,0.02588003284760725,-0.12921062411995723,1.1615611626459535e+44,-0.17352670934875056,,,,,,,,
21,240719_151410,FalseCHOICE,9.0,22,2.0,1472.0,,,,,,,,,,,22.0,22.0,,,B,,,,,,False,cue1.png,Hard,cue2.png,Easy,Right,Easy,Mid,0.0166046000085771,,,,,,,,,,,,,48,29,Female,1.0,1.0,0.2,1.5,3.0,2.5,2.5555555555555554,3.111111111111111,2.125,2.111111111111111,0.75,2.0,2.5,1.75,0.8194444444444444,0.8333333333333334,0.5059115777775232,0.010584628356040722,,,,,,,,,,,,,,,,,,,0.00963374183905912,1.8994726771232622,0.03290021973685134,1.4218148147385317,3.053034045017021e+43,-0.17392819938530363,,,,,,,,
22,240719_151428,FalseCHOICE,9.0,23,2.0,1472.0,,,,,,,,,,,23.0,23.0,,,B,,,,,,False,cue2.png,Easy,cue1.png,Hard,Right,Hard,Mid,0.0166035000002011,,,,,,,,,,,,,48,29,Female,1.0,1.0,0.2,1.5,3.0,2.5,2.5555555555555554,3.111111111111111,2.125,2.111111111111111,0.75,2.0,2.5,1.75,1.0,1.0,0.5190272666772621,0.2193128749200387,,,,,,,,,,,,,,,,,,,0.006656484862347836,-0.42493591374165374,0.02748626622394386,0.22566722553653507,-5.361481943024788e+43,-0.17432274697327965,,,,,,,,
23,240719_151445,FalseCHOICE,9.0,24,2.0,1472.0,,,,,,,,,,,24.0,24.0,,,B,,,,,,False,cue1.png,Hard,cue2.png,Easy,Right,Easy,Mid,0.0166554000461474,,,,,,,,,,,,,48,29,Female,1.0,1.0,0.2,1.5,3.0,2.5,2.5555555555555554,3.111111111111111,2.125,2.111111111111111,0.75,2.0,2.5,1.75,1.0,1.0,0.379334311104483,-2.0038159212066433,,,,,,,,,,,,,,,,,,,0.007125513868366034,-0.0587548754633269,0.022187070386525412,-0.9451260423637784,-1.1024851288228963e+44,-0.17458829625955385,,,,,,,,
24,240719_151501,FalseCHOICE,9.0,25,2.0,1472.0,,,,,,,,,,,25.0,25.0,,,B,,,,,,False,cue1.png,Hard,cue2.png,Easy,Right,Easy,Mid,0.0157020000042393,,,,,,,,,,,,,48,29,Female,1.0,1.0,0.2,1.5,3.0,2.5,2.5555555555555554,3.111111111111111,2.125,2.111111111111111,0.75,2.0,2.5,1.75,0.5,0.6666666666666667,0.3759067333174041,-2.058363746099999,,,,,,,,,,,,,,,,,,,0.00738104459590363,0.14074346242433666,0.031214791085094232,1.0494397262260777,-1.306934077606948e+44,-0.17468416016868613,,,,,,,,
25,240719_151520,FalseCHOICE,9.0,26,2.0,1472.0,,,,,,,,,,,26.0,26.0,,,B,,,,,,False,cue2.png,Easy,cue1.png,Hard,Right,Hard,Mid,0.0164739999454468,,,,,,,,,,,,,48,29,Female,1.0,1.0,0.2,1.5,3.0,2.5,2.5555555555555554,3.111111111111111,2.125,2.111111111111111,0.75,2.0,2.5,1.75,1.0,1.0,0.5473638222449355,0.6702719974272457,,,,,,,,,,,,,,,,,,,0.01208494091383752,3.8131765434346865,0.02591543426153828,-0.12138910961544762,-1.1051240519436834e+44,-0.17458953362217058,,,,,,,,
26,240719_151536,FalseCHOICE,9.0,27,2.0,1472.0,,,,,,,,,,,27.0,27.0,,,B,,,,,,False,cue2.png,Easy,cue1.png,Hard,Right,Hard,Mid,0.0159611999988555,,,,,,,,,,,,,48,29,Female,1.0,1.0,0.2,1.5,3.0,2.5,2.5555555555555554,3.111111111111111,2.125,2.111111111111111,0.75,2.0,2.5,1.75,0.8194444444444444,0.8333333333333334,0.3208615555583189,-2.934374417234944,,,,,,,,,,,,,,,,,,,0.006864945741398263,-0.26218601948855424,0.019123539932032897,-1.6219760668147993,,,,,,,,,,
27,240719_151554,FalseCHOICE,9.0,28,2.0,1472.0,,,,,,,,,,,28.0,28.0,,,B,,,,,,False,cue1.png,Hard,cue2.png,Easy,Right,Easy,Mid,0.0171035999665036,,,,,,,,,,,,,48,29,Female,1.0,1.0,0.2,1.5,3.0,2.5,2.5555555555555554,3.111111111111111,2.125,2.111111111111111,0.75,2.0,2.5,1.75,0.8194444444444444,0.8333333333333334,0.507835844428175,0.04120816685123382,,,,,,,,,,,,,,,,,,,0.007620309675696813,0.32754285908897546,0.03297943908440401,1.4393173720411332,-1.715560075392765e+42,-0.17407939693834834,,,,,,,,
28,240719_151612,FalseCHOICE,9.0,29,2.0,1472.0,,,,,,,,,,,29.0,29.0,,,B,,,,,,False,cue2.png,Easy,cue1.png,Hard,Right,Hard,Mid,0.0154664000729098,,,,,,,,,,,,,48,29,Female,1.0,1.0,0.2,1.5,3.0,2.5,2.5555555555555554,3.111111111111111,2.125,2.111111111111111,0.75,2.0,2.5,1.75,1.0,1.0,0.5168426888865523,0.18454664226362175,,,,,,,,,,,,,,,,,,,0.00932785178350621,1.6606577281453856,0.03818871503071093,2.5902439268790003,5.697748599515719e+43,-0.17380419156954272,,,,,,,,
29,240719_151630,FalseCHOICE,9.0,30,2.0,1472.0,,,,,,,,,,,30.0,30.0,,,B,,,,,,False,cue2.png,Easy,cue1.png,Hard,Right,Hard,Mid,0.0164480000967159,,,,,,,,,,,,,48,29,Female,1.0,1.0,0.2,1.5,3.0,2.5,2.5555555555555554,3.111111111111111,2.125,2.111111111111111,0.75,2.0,2.5,1.75,0.8194444444444444,0.8333333333333334,0.448272188879653,-0.9067113421142801,,,,,,,,,,,,,,,,,,,0.007420015617914654,0.17116897794610061,0.023090634035856802,-0.7454945755878702,9.519068233733463e+43,-0.17362501400939442,,,,,,,,
30,240719_151647,FalseCHOICE,9.0,31,2.0,1472.0,,,,,,,,,,,31.0,31.0,,,B,,,,,,False,cue1.png,Hard,cue2.png,Easy,Right,Easy,Mid,0.0167434000177308,,,,,,,,,,,,,48,29,Female,1.0,1.0,0.2,1.5,3.0,2.5,2.5555555555555554,3.111111111111111,2.125,2.111111111111111,0.75,2.0,2.5,1.75,1.0,1.0,0.4947761666650573,-0.16662869639127964,,,,,,,,,,,,,,,,,,,0.008209720182893423,0.7877083258896278,0.028286593597047115,0.4024898849161349,,,,,,,,,,
31,240719_151706,FalseCHOICE,9.0,32,2.0,1472.0,,,,,,,,,,,32.0,32.0,,,B,,,,,,False,cue2.png,Easy,cue1.png,Hard,Right,Hard,Mid,0.0156340000685304,,,,,,,,,,,,,48,29,Female,1.0,1.0,0.2,1.5,3.0,2.5,2.5555555555555554,3.111111111111111,2.125,2.111111111111111,0.75,2.0,2.5,1.75,1.0,1.0,0.5413270666807269,0.5742006882123865,,,,,,,,,,,,,,,,,,,0.0060461604526701705,-0.9014293142664469,0.02467536528514966,-0.3953673610014395,9.799413367766118e+43,-0.1736118689281336,,,,,,,,
32,240719_151724,FalseCHOICE,9.0,33,2.0,1472.0,,,,,,,,,,,33.0,33.0,,,B,,,,,,False,cue1.png,Hard,cue2.png,Easy,Right,Easy,Mid,0.016650200006552,,,,,,,,,,,,,48,29,Female,1.0,1.0,0.2,1.5,3.0,2.5,2.5555555555555554,3.111111111111111,2.125,2.111111111111111,0.75,2.0,2.5,1.75,1.0,1.0,0.551005099964742,0.7282207273428274,,,,,,,,,,,,,,,,,,,0.007037802300208469,-0.12723318423494046,0.022892623157280252,-0.7892426858146079,5.416637442521897e+43,-0.1738173725687948,,,,,,,,
33,240719_151748,FalseCHOICE,9.0,34,2.0,1472.0,,,,,,,,,,,35.0,34.0,,,B,,,,,,False,cue1.png,Hard,cue2.png,Easy,Right,Easy,Mid,0.0168421000707894,,,,,,,,,,,,,48,29,Female,1.0,1.0,0.2,1.5,3.0,2.5,2.5555555555555554,3.111111111111111,2.125,2.111111111111111,0.75,2.0,2.5,1.75,0.8194444444444444,0.8333333333333334,0.5004918666737568,-0.07566679192544414,,,,,,,,,,,,,,,,,,,0.006575104960935495,-0.4884709540308309,0.025179780302263716,-0.2839229599293213,3.291633034583846e+42,-0.17405591874938442,,,,,,,,
34,240719_151805,FalseCHOICE,9.0,35,2.0,1472.0,,,,,,,,,,,36.0,35.0,,,B,,,,,,False,cue1.png,Hard,cue2.png,Easy,Right,Easy,Mid,0.0159415999660268,,,,,,,,,,,,,48,29,Female,1.0,1.0,0.2,1.5,3.0,2.5,2.5555555555555554,3.111111111111111,2.125,2.111111111111111,0.75,2.0,2.5,1.75,1.0,1.0,0.4233664110975547,-1.3030717136898395,,,,,,,,,,,,,,,,,,,0.008804285897005028,1.2518985736664046,0.030886119102882914,0.9768236244765856,-5.245142543912297e+43,-0.1743172919442118,,,,,,,,
35,240719_151823,FalseCHOICE,9.0,36,2.0,1472.0,,,,,,,,,,,37.0,36.0,,,B,,,,,,False,cue2.png,Easy,cue1.png,Hard,Right,Hard,Mid,0.0164553000358864,,,,,,,,,,,,,48,29,Female,1.0,1.0,0.2,1.5,3.0,2.5,2.5555555555555554,3.111111111111111,2.125,2.111111111111111,0.75,2.0,2.5,1.75,0.8194444444444444,0.8333333333333334,0.4628931999905035,-0.6740268041163322,,,,,,,,,,,,,,,,,,,,,,,-8.96681948573018e+43,-0.1744917973658792,,,,,,,,
36,240719_151843,FalseCHOICE,9.0,37,2.0,1472.0,,,,,,,,,,,38.0,37.0,,,B,,,,,,False,cue1.png,Hard,cue2.png,Easy,Right,Easy,Mid,0.01656230003573,,,,,,,,,,,,,48,29,Female,1.0,1.0,0.2,1.5,3.0,2.5,2.5555555555555554,3.111111111111111,2.125,2.111111111111111,0.75,2.0,2.5,1.75,1.0,1.0,0.6438390000257641,2.205616030750817,,,,,,,,,,,,,,,,,,,0.006782820406051937,-0.3263030360913753,,,-1.020081823697603e+44,-0.17454965823768231,,,,,,,,
37,240719_151901,FalseCHOICE,9.0,38,2.0,1472.0,,,,,,,,,,,39.0,38.0,,,B,,,,,,False,cue2.png,Easy,cue1.png,Hard,Right,Hard,Mid,0.0165762000251561,,,,,,,,,,,,,48,29,Female,1.0,1.0,0.2,1.5,3.0,2.5,2.5555555555555554,3.111111111111111,2.125,2.111111111111111,0.75,2.0,2.5,1.75,0.8194444444444444,0.8333333333333334,0.5557893000465507,0.8043583745469435,,,,,,,,,,,,,,,,,,,0.006135910238027011,-0.831359725465899,0.026170413982124663,-0.06505442233975164,-7.189036187251884e+43,-0.1744084390225882,,,,,,,,
38,240719_151920,FalseCHOICE,9.0,39,2.0,1472.0,,,,,,,,,,,40.0,39.0,,,B,,,,,,False,cue2.png,Easy,cue1.png,Hard,Right,Hard,Mid,0.0164621999720111,,,,,,,,,,,,,48,29,Female,1.0,1.0,0.2,1.5,3.0,2.5,2.5555555555555554,3.111111111111111,2.125,2.111111111111111,0.75,2.0,2.5,1.75,0.8194444444444444,0.8333333333333334,0.5559800333446927,0.8073937794873078,,,,,,,,,,,,,,,,,,,,,0.026207952052824703,-0.056760839348302346,-2.6564233205094217e+43,-0.17419590968919058,,,,,,,,
39,240719_151938,FalseCHOICE,9.0,40,2.0,1472.0,,,,,,,,,,,41.0,40.0,,,B,,,,,,False,cue1.png,Hard,cue2.png,Easy,Right,Easy,Mid,0.0163436000002548,,,,,,,,,,,,,48,29,Female,1.0,1.0,0.2,1.5,3.0,2.5,2.5555555555555554,3.111111111111111,2.125,2.111111111111111,0.75,2.0,2.5,1.75,0.8194444444444444,0.8333333333333334,0.5677752889071902,0.9951081290845568,,,,,,,,,,,,,,,,,,,0.0076637139173586855,0.36142948459292384,0.02952532767123496,0.676173205796079,3.6106454126704566e+43,-0.17390205358910474,,,,,,,,
40,240719_151956,FalseCHOICE,9.0,41,2.0,1472.0,,,,,,,,,,,42.0,41.0,,,B,,,,,,False,cue1.png,Hard,cue2.png,Easy,Right,Easy,Mid,0.0160917000612244,,,,,,,,,,,,,48,29,Female,1.0,1.0,0.2,1.5,3.0,2.5,2.5555555555555554,3.111111111111111,2.125,2.111111111111111,0.75,2.0,2.5,1.75,0.8194444444444444,0.8333333333333334,0.4752220000243849,-0.47782141734770767,,,,,,,,,,,,,,,,,,,0.006125265037213395,-0.8396706628207198,,,8.368171575973169e+43,-0.17367897831357715,,,,,,,,
41,240719_152014,FalseCHOICE,9.0,42,2.0,1472.0,,,,,,,,,,,43.0,42.0,,,B,,,,,,False,cue2.png,Easy,cue1.png,Hard,Right,Hard,Mid,0.0166025999933481,,,,,,,,,,,,,48,29,Female,1.0,1.0,0.2,1.5,3.0,2.5,2.5555555555555554,3.111111111111111,2.125,2.111111111111111,0.75,2.0,2.5,1.75,0.8194444444444444,0.8333333333333334,0.4698441888645498,-0.5634060253942607,,,,,,,,,,,,,,,,,,,0.006568818166788349,-0.4933791895103114,,,,,,,,,,,,
42,240719_152031,FalseCHOICE,9.0,43,2.0,1472.0,,,,,,,,,,,44.0,43.0,,,B,,,,,,False,cue1.png,Hard,cue2.png,Easy,Right,Easy,Mid,0.0168124999618157,,,,,,,,,,,,,48,29,Female,1.0,1.0,0.2,1.5,3.0,2.5,2.5555555555555554,3.111111111111111,2.125,2.111111111111111,0.75,2.0,2.5,1.75,0.8194444444444444,0.8333333333333334,0.4299198444285947,-1.1987777906928343,,,,,,,,,,,,,,,,,,,0.0068375686133681935,-0.283559932484333,0.02195015448319546,-0.9974697475574251,,,,,,,,,,
43,240719_152050,FalseCHOICE,9.0,44,2.0,1472.0,,,,,,,,,,,45.0,44.0,,,B,,,,,,False,cue2.png,Easy,cue1.png,Hard,Right,Hard,Mid,0.0169644999550655,,,,,,,,,,,,,48,29,Female,1.0,1.0,0.2,1.5,3.0,2.5,2.5555555555555554,3.111111111111111,2.125,2.111111111111111,0.75,2.0,2.5,1.75,0.8194444444444444,0.8333333333333334,0.5006248333180944,-0.07355070829947176,,,,,,,,,,,,,,,,,,,0.006785982287910319,-0.3238344868823508,0.020920405020859734,-1.2249804444849735,2.3526497956262886e+43,-0.17396103964808834,,,,,,,,
44,240719_152107,FalseCHOICE,9.0,45,2.0,1472.0,,,,,,,,,,,46.0,45.0,,,B,,,,,,False,cue1.png,Hard,cue2.png,Easy,Right,Easy,Mid,0.0165513000683859,,,,,,,,,,,,,48,29,Female,1.0,1.0,0.2,1.5,3.0,2.5,2.5555555555555554,3.111111111111111,2.125,2.111111111111111,0.75,2.0,2.5,1.75,0.8194444444444444,0.8333333333333334,0.3976360444341683,-1.7125549179769057,,,,,,,,,,,,,,,,,,,,,0.02535144353147939,-0.24599604435987354,-5.022209146046605e+43,-0.17430683883739828,,,,,,,,
45,240719_152125,FalseCHOICE,9.0,46,2.0,1472.0,,,,,,,,,,,47.0,46.0,,,B,,,,,,False,cue1.png,Hard,cue2.png,Easy,Right,Easy,Mid,0.0148245000746101,,,,,,,,,,,,,48,29,Female,1.0,1.0,0.2,1.5,3.0,2.5,2.5555555555555554,3.111111111111111,2.125,2.111111111111111,0.75,2.0,2.5,1.75,0.8194444444444444,0.8333333333333334,0.5555928111231575,0.8012313723160561,,,,,,,,,,,,,,,,,,,,,,,-1.0584445378301107e+44,-0.17456764610097797,,,,,,,,
46,240719_152144,FalseCHOICE,9.0,47,2.0,1472.0,,,,,,,,,,,48.0,47.0,,,B,,,,,,False,cue2.png,Easy,cue1.png,Hard,Right,Hard,Mid,0.0162109999218955,,,,,,,,,,,,,48,29,Female,1.0,1.0,0.2,1.5,3.0,2.5,2.5555555555555554,3.111111111111111,2.125,2.111111111111111,0.75,2.0,2.5,1.75,0.8194444444444444,0.8333333333333334,0.5040082333402501,-0.019705945782786748,,,,,,,,,,,,,,,,,,,0.0060129855151456755,-0.9273297019006115,,,-8.13972299264324e+43,-0.17445301570252095,,,,,,,,
47,240719_152203,FalseCHOICE,9.0,48,2.0,1472.0,,,,,,,,,,,49.0,48.0,,,B,,,,,,False,cue2.png,Easy,cue1.png,Hard,Right,Hard,Mid,0.0155515000224113,,,,,,,,,,,,,48,29,Female,1.0,1.0,0.2,1.5,3.0,2.5,2.5555555555555554,3.111111111111111,2.125,2.111111111111111,0.75,2.0,2.5,1.75,0.8194444444444444,0.8333333333333334,0.5681219444506698,1.0006249421399214,,,,,,,,,,,,,,,,,,,,,0.021489593127866007,-1.099225212125697,3.2256722902097965e+43,-0.17392010456400553,,,,,,,,
48,240719_152223,FalseCHOICE,9.0,49,2.0,1472.0,,,,,,,,,,,50.0,49.0,,,B,,,,,,False,cue1.png,Hard,cue2.png,Easy,Right,Easy,Mid,0.0170033000176772,,,,,,,,,,,,,48,29,Female,1.0,1.0,0.2,1.5,3.0,2.5,2.5555555555555554,3.111111111111111,2.125,2.111111111111111,0.75,2.0,2.5,1.75,0.5,0.6666666666666667,0.5881328999918575,1.3190871818370964,,,,,,,,,,,,,,,,,,,0.006863485275108987,-0.2633262369491284,,,1.37832144560115e+44,-0.17342507278768096,,,,,,,,
49,240719_152242,FalseCHOICE,9.0,50,2.0,1472.0,,,,,,,,,,,51.0,50.0,,,B,,,,,,False,cue2.png,Easy,cue1.png,Hard,Left,Easy,Mid,0.0168456999817863,,,,,,,,,,,,,48,29,Female,1.0,1.0,0.2,1.5,3.0,2.5,2.5555555555555554,3.111111111111111,2.125,2.111111111111111,0.75,2.0,2.5,1.75,0.8194444444444444,0.8333333333333334,0.592429155548517,1.3874594874008732,,,,,,,,,,,,,,,,,,,0.0057071728001866886,-1.166084269412479,0.01791308459245744,-1.8894115430925231,-2.0969320694837887e+43,-0.17416967574728595,,,,,,,,
0,240719_144445,OFFLINERATING,9.0,1,1.0,,,,,,,,,,,,,,,,,T0,cue2.png,Easy,28.0,0.8682278000051156,,,,,,,,,,,,,,,,,,,,,,48,29,Female,1.0,1.0,0.2,1.5,3.0,2.5,2.5555555555555554,3.111111111111111,2.125,2.111111111111111,0.75,2.0,2.5,1.75,,,,,,,,,,,,,,,,,,,,,,,,,,,,,1.5449078715223483,,,,,112565641.8959579,-0.5744922801971569,
1,240719_144452,OFFLINERATING,9.0,2,3.0,,,,,,,,,,,,,,,,,T0,cue1.png,Hard,21.0,0.935016299947165,,,,,,,,,,,,,,,,,,,,,,48,29,Female,1.0,1.0,0.2,1.5,3.0,2.5,2.5555555555555554,3.111111111111111,2.125,2.111111111111111,0.75,2.0,2.5,1.75,,,,,,,,,,,,,,,,,,,,,,,,,,,,,0.9441103659303239,,,0.027660237861386668,0.5030395205028403,,,
2,240719_150245,OFFLINERATING,9.0,3,1.0,,,,,,,,,,,,,,,,,T1,cue2.png,Easy,0.0,1.9301888999762011,,,,,,,,,,,,,,,,,,,,,,48,29,Female,1.0,1.0,0.2,1.5,3.0,2.5,2.5555555555555554,3.111111111111111,2.125,2.111111111111111,0.75,2.0,2.5,1.75,,,,,,,,,,,,,,,,,,,,,,,,,,,,,-0.858282150845749,0.0062810966314848695,1.033537862539413,,,,,
3,240719_150253,OFFLINERATING,9.0,4,3.0,,,,,,,,,,,,,,,,,T1,cue1.png,Hard,0.0,1.3282851000549272,,,,,,,,,,,,,,,,,,,,,,48,29,Female,1.0,1.0,0.2,1.5,3.0,2.5,2.5555555555555554,3.111111111111111,2.125,2.111111111111111,0.75,2.0,2.5,1.75,,,,,,,,,,,,,,,,,,,,,,,,,,,,,-0.858282150845749,,,0.021173752519127044,-1.3961653082745649,-6402.473211612836,-0.831891458677999,
4,240719_150645,OFFLINERATING,9.0,5,1.0,,,,,,,,,,,,,,,,,T2,cue2.png,Easy,25.0,1.2187385000288486,,,,,,,,,,,,,,,,,,,,,,48,29,Female,1.0,1.0,0.2,1.5,3.0,2.5,2.5555555555555554,3.111111111111111,2.125,2.111111111111111,0.75,2.0,2.5,1.75,,,,,,,,,,,,,,,,,,,,,,,,,,,,,1.2874232262686236,0.004721029568511425,-1.3527411885983196,,,978890330.3620056,1.4063837388751559,
5,240719_150652,OFFLINERATING,9.0,6,3.0,,,,,,,,,,,,,,,,,T2,cue1.png,Hard,6.0,1.2184813999338076,,,,,,,,,,,,,,,,,,,,,,48,29,Female,1.0,1.0,0.2,1.5,3.0,2.5,2.5555555555555554,3.111111111111111,2.125,2.111111111111111,0.75,2.0,2.5,1.75,,,,,,,,,,,,,,,,,,,,,,,,,,,,,-0.3433128603382996,0.005814089312380126,0.31920332605890406,,,,,
6,240719_152302,OFFLINERATING,9.0,7,1.0,,,,,,,,,,,,,,,,,T3,cue2.png,Easy,0.0,1.227960200048983,,,,,,,,,,,,,,,,,,,,,,48,29,Female,1.0,1.0,0.2,1.5,3.0,2.5,2.5555555555555554,3.111111111111111,2.125,2.111111111111111,0.75,2.0,2.5,1.75,,,,,,,,,,,,,,,,,,,,,,,,,,,,,-0.858282150845749,,,0.028992526415268047,0.8931257877717235,,,
7,240719_152309,OFFLINERATING,9.0,8,3.0,,,,,,,,,,,,,,,,,T3,cue1.png,Hard,0.0,1.418460600078106,,,,,,,,,,,,,,,,,,,,,,48,29,Female,1.0,1.0,0.2,1.5,3.0,2.5,2.5555555555555554,3.111111111111111,2.125,2.111111111111111,0.75,2.0,2.5,1.75,,,,,,,,,,,,,,,,,,,,,,,,,,,,,-0.858282150845749,,,,,,,
0,240719_150711,LEARNINGCHECK,9.0,1,,,,,,,,,,,,1.0,1.0,1.0,,,B,,,,,,,,,,,,,,,cue2.png,Easy,Left,Left,Easy,0.0155967000173404,1.0,,,,,,48,29,Female,1.0,1.0,0.2,1.5,3.0,2.5,2.5555555555555554,3.111111111111111,2.125,2.111111111111111,0.75,2.0,2.5,1.75,,,,,,,,,,,,,,,,,,,,,,,,,,,,,,,,,,,,
1,240719_150716,LEARNINGCHECK,9.0,2,,,,,,,,,,,,2.0,2.0,2.0,,,B,,,,,,,,,,,,,,,cue1.png,Hard,Right,Right,Hard,0.0134196999715641,1.0,,,,,,48,29,Female,1.0,1.0,0.2,1.5,3.0,2.5,2.5555555555555554,3.111111111111111,2.125,2.111111111111111,0.75,2.0,2.5,1.75,,,,,,,,,,,,,,,,,,,,,,,,,,,,,,,,,,,,
2,240719_152320,LEARNINGCHECK,9.0,1,,,,,,,,,,,,1.0,1.0,1.0,,,B,,,,,,,,,,,,,,,cue2.png,Easy,Middle,Middle,Mid,0.0149706999072805,1.0,,,,,,48,29,Female,1.0,1.0,0.2,1.5,3.0,2.5,2.5555555555555554,3.111111111111111,2.125,2.111111111111111,0.75,2.0,2.5,1.75,,,,,,,,,,,,,,,,,,,,,,,,,,,,,,,,,,,,
3,240719_152325,LEARNINGCHECK,9.0,2,,,,,,,,,,,,2.0,2.0,2.0,,,B,,,,,,,,,,,,,,,cue1.png,Hard,Middle,Middle,Mid,0.0138473999686539,1.0,,,,,,48,29,Female,1.0,1.0,0.2,1.5,3.0,2.5,2.5555555555555554,3.111111111111111,2.125,2.111111111111111,0.75,2.0,2.5,1.75,,,,,,,,,,,,,,,,,,,,,,,,,,,,,,,,,,,,
0,240719_152338,DEMANDRATING,9.0,-1,,,,,,,,,,,,,,,,,,,,,,,,,,,,,,,,,,,,,,,1.0,MentalDemand,1.0,100.0,2.6651379000395536,48,29,Female,1.0,1.0,0.2,1.5,3.0,2.5,2.5555555555555554,3.111111111111111,2.125,2.111111111111111,0.75,2.0,2.5,1.75,,,,,,,,,,,,,,,,,,,,,,,,,,,,,,,,,,,,0.7622983969978973
1,240719_152343,DEMANDRATING,9.0,-1,,,,,,,,,,,,,,,,,,,,,,,,,,,,,,,,,,,,,,,2.0,Effort,1.0,100.0,3.43413910001982,48,29,Female,1.0,1.0,0.2,1.5,3.0,2.5,2.5555555555555554,3.111111111111111,2.125,2.111111111111111,0.75,2.0,2.5,1.75,,,,,,,,,,,,,,,,,,,,,,,,,,,,,,,,,,,,0.7622983969978973
2,240719_152349,DEMANDRATING,9.0,-1,,,,,,,,,,,,,,,,,,,,,,,,,,,,,,,,,,,,,,,3.0,Frustration,1.0,0.0,3.986495499964804,48,29,Female,1.0,1.0,0.2,1.5,3.0,2.5,2.5555555555555554,3.111111111111111,2.125,2.111111111111111,0.75,2.0,2.5,1.75,,,,,,,,,,,,,,,,,,,,,,,,,,,,,,,,,,,,-2.1447717610449306
3,240719_152352,DEMANDRATING,9.0,-1,,,,,,,,,,,,,,,,,,,,,,,,,,,,,,,,,,,,,,,4.0,MentalDemand,2.0,69.0,2.01700799993705,48,29,Female,1.0,1.0,0.2,1.5,3.0,2.5,2.5555555555555554,3.111111111111111,2.125,2.111111111111111,0.75,2.0,2.5,1.75,,,,,,,,,,,,,,,,,,,,,,,,,,,,,,,,,,,,-0.13889335199537936
4,240719_152356,DEMANDRATING,9.0,-1,,,,,,,,,,,,,,,,,,,,,,,,,,,,,,,,,,,,,,,5.0,Effort,2.0,61.0,2.4192395999561995,48,29,Female,1.0,1.0,0.2,1.5,3.0,2.5,2.5555555555555554,3.111111111111111,2.125,2.111111111111111,0.75,2.0,2.5,1.75,,,,,,,,,,,,,,,,,,,,,,,,,,,,,,,,,,,,-0.37145896463880557
5,240719_152400,DEMANDRATING,9.0,-1,,,,,,,,,,,,,,,,,,,,,,,,,,,,,,,,,,,,,,,6.0,Frustration,2.0,34.0,2.640111699933186,48,29,Female,1.0,1.0,0.2,1.5,3.0,2.5,2.5555555555555554,3.111111111111111,2.125,2.111111111111111,0.75,2.0,2.5,1.75,,,,,,,,,,,,,,,,,,,,,,,,,,,,,,,,,,,,-1.156367907310369
6,240719_152405,DEMANDRATING,9.0,-1,,,,,,,,,,,,,,,,,,,,,,,,,,,,,,,,,,,,,,,7.0,MentalDemand,3.0,100.0,2.968929299968295,48,29,Female,1.0,1.0,0.2,1.5,3.0,2.5,2.5555555555555554,3.111111111111111,2.125,2.111111111111111,0.75,2.0,2.5,1.75,,,,,,,,,,,,,,,,,,,,,,,,,,,,,,,,,,,,0.7622983969978973
7,240719_152409,DEMANDRATING,9.0,-1,,,,,,,,,,,,,,,,,,,,,,,,,,,,,,,,,,,,,,,8.0,Effort,3.0,100.0,2.3121857999358326,48,29,Female,1.0,1.0,0.2,1.5,3.0,2.5,2.5555555555555554,3.111111111111111,2.125,2.111111111111111,0.75,2.0,2.5,1.75,,,,,,,,,,,,,,,,,,,,,,,,,,,,,,,,,,,,0.7622983969978973
8,240719_152413,DEMANDRATING,9.0,-1,,,,,,,,,,,,,,,,,,,,,,,,,,,,,,,,,,,,,,,9.0,Frustration,3.0,100.0,2.775583599926904,48,29,Female,1.0,1.0,0.2,1.5,3.0,2.5,2.5555555555555554,3.111111111111111,2.125,2.111111111111111,0.75,2.0,2.5,1.75,,,,,,,,,,,,,,,,,,,,,,,,,,,,,,,,,,,,0.7622983969978973
