,END,Phase,Block,TrialN,NbackLevel,ISI,Letter_Resp,Letter_RT,Letter_Accuracy,Trial_A_measure,Trial_ACC,Trial_RT,TrialCountCali,CaliEnd_A_measure,ISI_calibrated,TrialIndex,TrialNumber_total,TrialNumber_valid,CueLearning,TrialDemandLearning,CueMapping,OfflineRatingTimePoint,CueFigure,TrialDemand,OfflineRating,OfflineRatingRT,PhaseType,CueLeft,CueDemandLeft,CueRight,CueDemandRight,Choice,ChoiceDemand,TaskDemand,ChoiceRT,CueCheck,CueDemandCheck,CorrectAnswer,Answer,AnswerDemand,AnswerRT,AnswerACC,DemandRatingQuesIndex,QuesTLX,DemandLevel,DemandRating,DemandRatingRT,PID,Age,Gender,BAI_bis,BAI_bas_d,BAI_bas_rr,BAI_bas_fs,NFC,BFI_ext,BFI_agr,BFI_con,BFI_neu,BFI_open,UPPS_lps,UPPS_lpm,UPPS_pu,UPPS_ss,Task_A_measure,Task_ACC,Task_RT,Task_RT_z,Task_RT_log,Task_RT_log_z,cue_i_on_zyg_values,cue_i_on_zyg_zvalues,cue_e_on_zyg_values,cue_e_on_zyg_zvalues,cue_i_on_cor_values,cue_i_on_cor_zvalues,cue_e_on_cor_values,cue_e_on_cor_zvalues,cue_i_on_scr_values,cue_i_on_scr_zvalues,cue_e_on_scr_values,cue_e_on_scr_zvalues,cue_e_true_zyg_values,cue_e_true_zyg_zvalues,cue_e_true_cor_values,cue_e_true_cor_zvalues,cue_e_true_scr_values,cue_e_true_scr_zvalues,cue_e_false_zyg_values,cue_e_false_zyg_zvalues,cue_e_false_cor_values,cue_e_false_cor_zvalues,cue_e_false_scr_values,cue_e_false_scr_zvalues,OfflineRating_z,cue_i_off_zyg_values,cue_i_off_zyg_zvalues,cue_i_off_cor_values,cue_i_off_cor_zvalues,cue_i_off_scr_values,cue_i_off_scr_zvalues,DemandRating_z
0,240719_144144,PRACTICE,0.0,1,1.0,1472.0,,,,,,,,,,26.0,1.0,1.0,cue2.png,Easy,B,,,,,,,,,,,,,,,,,,,,,,,,,,,48,29,Female,1.0,1.0,0.2,1.5,3.0,2.5,2.5555555555555554,3.111111111111111,2.125,2.111111111111111,0.75,2.0,2.5,1.75,,,,,,,,,,,,,,,,,,,,,,,,,,,,,,,,,,,,,,
0,240719_144528,LEARNING,1.0,1,1.0,1472.0,,,,,,,,,,1.0,1.0,1.0,cue2.png,Easy,B,,,,,,,,,,,,,,,,,,,,,,,,,,,48,29,Female,1.0,1.0,0.2,1.5,3.0,2.5,2.5555555555555554,3.111111111111111,2.125,2.111111111111111,0.75,2.0,2.5,1.75,1.0,1.0,0.5453128222401978,1.1520479848632685,-0.6063956632238815,1.1154561084925498,-1.6219155667674106e-05,0.12206557333734654,-0.00013536053932661045,-1.0732282278618046,-0.00018967235460987542,0.20702378530637056,-0.0009473086754376208,-1.6535235217497226,1.5940000000000003,-0.08447200407010033,,,,,,,,,,,,,,,,,,,,,,
1,240719_144549,LEARNING,1.0,2,3.0,1472.0,,,,,,,,,,2.0,2.0,2.0,cue1.png,Hard,B,,,,,,,,,,,,,,,,,,,,,,,,,,,48,29,Female,1.0,1.0,0.2,1.5,3.0,2.5,2.5555555555555554,3.111111111111111,2.125,2.111111111111111,0.75,2.0,2.5,1.75,0.8194444444444444,0.8333333333333334,0.5409289111202169,1.0707049505466968,-0.614467411505025,1.0447140970440338,-2.6802662862858602e-05,-0.000579884948373224,4.279885285678924e-05,0.5919005388050625,0.000670888528585406,1.747262442222416,0.00011793978129254635,0.06873932020904813,,,1.977,0.6892841925712724,,,,,,,,,,,,,,,,,,,,
2,240719_144609,LEARNING,1.0,3,1.0,1472.0,,,,,,,,,,3.0,3.0,3.0,cue2.png,Easy,B,,,,,,,,,,,,,,,,,,,,,,,,,,,48,29,Female,1.0,1.0,0.2,1.5,3.0,2.5,2.5555555555555554,3.111111111111111,2.125,2.111111111111111,0.75,2.0,2.5,1.75,0.8194444444444444,0.8333333333333334,0.4531892000231892,-0.5572966524426133,-0.7914455805994624,-0.5063490962252208,-0.0002045569224262923,-2.060459679456896,,,-0.00025828562116037793,0.08421921960734244,0.0009793325760157493,1.4614142340377014,,,1.5950000000000002,0.07694335172888661,,,,,,,,,,,,,,,,,,,,
3,240719_144628,LEARNING,1.0,4,3.0,1472.0,,,,,,,,,,4.0,4.0,4.0,cue1.png,Hard,B,,,,,,,,,,,,,,,,,,,,,,,,,,,48,29,Female,1.0,1.0,0.2,1.5,3.0,2.5,2.5555555555555554,3.111111111111111,2.125,2.111111111111111,0.75,2.0,2.5,1.75,1.0,1.0,0.3402771333284262,-2.6523688070868197,-1.0779948953591394,-3.0177102288126827,,,,,-0.0004113529073110113,-0.18974181655206662,,,1.4609999999999999,-0.365122159669125,,,,,,,,,,,,,,,,,,,,,,
4,240719_144648,LEARNING,1.0,5,3.0,1472.0,,,,,,,,,,5.0,5.0,5.0,cue1.png,Hard,B,,,,,,,,,,,,,,,,,,,,,,,,,,,48,29,Female,1.0,1.0,0.2,1.5,3.0,2.5,2.5555555555555554,3.111111111111111,2.125,2.111111111111111,0.75,2.0,2.5,1.75,1.0,1.0,0.457678955539854,-0.47398968588470747,-0.7815873110995988,-0.41994974511424865,,,8.314358517922229e-05,0.9689739759685811,-0.0003158035251086362,-0.018726778585080546,0.00023253337697834442,0.2540109256539451,1.461,-0.3651221596691245,1.464,-0.133047879031199,,,,,,,,,,,,,,,,,,,,
5,240719_144709,LEARNING,1.0,6,1.0,1472.0,,,,,,,,,,6.0,6.0,6.0,cue2.png,Easy,B,,,,,,,,,,,,,,,,,,,,,,,,,,,48,29,Female,1.0,1.0,0.2,1.5,3.0,2.5,2.5555555555555554,3.111111111111111,2.125,2.111111111111111,0.75,2.0,2.5,1.75,1.0,1.0,0.5405483333031751,1.0636433670463696,-0.6151712225832778,1.0385457912915286,,,,,-0.0005196001408541793,-0.3834835690104716,6.886819377373808e-05,-0.010598200766097604,1.957,0.6815130070761067,1.733,0.29815548794943425,,,,,,,,,,,,,,,,,,,,
6,240719_144729,LEARNING,1.0,7,3.0,1472.0,,,,,,,,,,7.0,7.0,7.0,cue1.png,Hard,B,,,,,,,,,,,,,,,,,,,,,,,,,,,48,29,Female,1.0,1.0,0.2,1.5,3.0,2.5,2.5555555555555554,3.111111111111111,2.125,2.111111111111111,0.75,2.0,2.5,1.75,0.8194444444444444,0.8333333333333334,0.4349804888738112,-0.8951574747420489,-0.8324541020630386,-0.8657539232612838,,,-0.00017499990569165265,-1.4437091125234043,-2.500728516828185e-05,0.5017426254841831,-0.00019926160064188177,-0.44410268399393865,,,1.1260000000000001,-0.6748573141221057,,,,,,,,,,,,,,,,,,,,
7,240719_144748,LEARNING,1.0,8,3.0,1472.0,,,,,,,,,,8.0,8.0,8.0,cue1.png,Hard,B,,,,,,,,,,,,,,,,,,,,,,,,,,,48,29,Female,1.0,1.0,0.2,1.5,3.0,2.5,2.5555555555555554,3.111111111111111,2.125,2.111111111111111,0.75,2.0,2.5,1.75,1.0,1.0,0.3829061000012896,-1.8613925751221063,-0.959965489569924,-1.9832828303384418,-8.793210481609654e-05,-0.7089696734030384,-2.058848030147501e-05,-0.000535653250811535,-0.00039772931329184417,-0.16535820051256117,0.0003124005230659716,0.3831378134996562,1.4729999999999999,-0.3398003411188371,,,,,,,,,,,,,,,,,,,,,,
8,240719_144809,LEARNING,1.0,9,1.0,1472.0,,,,,,,,,,9.0,9.0,9.0,cue2.png,Easy,B,,,,,,,,,,,,,,,,,,,,,,,,,,,48,29,Female,1.0,1.0,0.2,1.5,3.0,2.5,2.5555555555555554,3.111111111111111,2.125,2.111111111111111,0.75,2.0,2.5,1.75,1.0,1.0,0.4995344777513916,0.3026353611134953,-0.6940786587483014,0.34698919684228535,6.904970491449685e-05,1.110191559433886,3.299931886828955e-05,0.5003112841258419,,,,,,,2.822,2.0438077802985397,,,,,,,,,,,,,,,,,,,,
9,240719_144829,LEARNING,1.0,10,1.0,1472.0,,,,,,,,,,10.0,10.0,10.0,cue2.png,Easy,B,,,,,,,,,,,,,,,,,,,,,,,,,,,48,29,Female,1.0,1.0,0.2,1.5,3.0,2.5,2.5555555555555554,3.111111111111111,2.125,2.111111111111111,0.75,2.0,2.5,1.75,1.0,1.0,0.4276343444362283,-1.031464453311313,-0.8494867839822163,-1.0150308998662456,,,-1.3772092015532783e-05,0.06317226627334944,,,-0.00031132315206903755,-0.6252805536410476,,,,,,,,,,,,,,,,,,,,,,,,
10,240719_144849,LEARNING,1.0,11,3.0,1472.0,,,,,,,,,,11.0,11.0,11.0,cue1.png,Hard,B,,,,,,,,,,,,,,,,,,,,,,,,,,,48,29,Female,1.0,1.0,0.2,1.5,3.0,2.5,2.5555555555555554,3.111111111111111,2.125,2.111111111111111,0.75,2.0,2.5,1.75,0.8194444444444444,0.8333333333333334,0.4959538666557314,0.2361974787620271,-0.701272367357715,0.28394245664682305,-2.352295417935987e-05,0.03742654969688093,,,3.592847426842245e-05,0.6108059283901446,-0.0004566789362734818,-0.8602875742262035,,,,,,,,,,,,,,,,,,,,,,,,
11,240719_144909,LEARNING,1.0,12,1.0,1472.0,,,,,,,,,,12.0,12.0,12.0,cue2.png,Easy,B,,,,,,,,,,,,,,,,,,,,,,,,,,,48,29,Female,1.0,1.0,0.2,1.5,3.0,2.5,2.5555555555555554,3.111111111111111,2.125,2.111111111111111,0.75,2.0,2.5,1.75,1.0,1.0,0.4704979999999826,-0.23613359234455472,-0.7539635707627989,-0.17785114551819076,-3.772481009664888e-05,-0.12714962485102216,-2.064717101339219e-06,0.17259274931872304,-3.545564396598231e-05,0.48304207049056835,0.0005027080394834141,0.6908214923639223,1.2790000000000001,-0.7491697410151568,2.426,1.4090251285352289,,,,,,,,,,,,,,,,,,,,
12,240719_144929,LEARNING,1.0,13,1.0,1472.0,,,,,,,,,,13.0,13.0,13.0,cue2.png,Easy,B,,,,,,,,,,,,,,,,,,,,,,,,,,,48,29,Female,1.0,1.0,0.2,1.5,3.0,2.5,2.5555555555555554,3.111111111111111,2.125,2.111111111111111,0.75,2.0,2.5,1.75,1.0,1.0,0.4468749222190429,-0.6744574483734561,-0.8054765395891688,-0.6293185232825833,,,6.679704865275582e-05,0.8161945582123155,-0.0008300409591476734,-0.9391129943741914,0.0003460135077222948,0.4374823132406961,1.6440000000000001,0.02103557322276534,1.465,-0.13144489253684702,,,,,,,,,,,,,,,,,,,,
13,240719_144949,LEARNING,1.0,14,1.0,1472.0,,,,,,,,,,14.0,14.0,14.0,cue2.png,Easy,B,,,,,,,,,,,,,,,,,,,,,,,,,,,48,29,Female,1.0,1.0,0.2,1.5,3.0,2.5,2.5555555555555554,3.111111111111111,2.125,2.111111111111111,0.75,2.0,2.5,1.75,1.0,1.0,0.4448378555502535,-0.7122550175780983,-0.8100454327646031,-0.6693609876987098,0.00014470380665928444,1.9868982889295423,0.00014273183178996817,1.5259028157608268,0.0003349816747940564,1.1460537056465077,0.00024130424057955922,0.26819140381077694,,,,,,,,,,,,,,,,,,,,,,,,
14,240719_145009,LEARNING,1.0,15,3.0,1472.0,,,,,,,,,,15.0,15.0,15.0,cue1.png,Hard,B,,,,,,,,,,,,,,,,,,,,,,,,,,,48,29,Female,1.0,1.0,0.2,1.5,3.0,2.5,2.5555555555555554,3.111111111111111,2.125,2.111111111111111,0.75,2.0,2.5,1.75,1.0,1.0,0.4554558666811014,-0.5152388783015209,-0.7864564568091749,-0.46262366773098884,6.990108354994846e-05,1.120057638890717,,,-0.0008433875914717771,-0.9630009021871763,-0.0004445137227791999,-0.8406192095049727,,,,,,,,,,,,,,,,,,,,,,,,
15,240719_145029,LEARNING,1.0,16,1.0,1472.0,,,,,,,,,,16.0,16.0,16.0,cue2.png,Easy,B,,,,,,,,,,,,,,,,,,,,,,,,,,,48,29,Female,1.0,1.0,0.2,1.5,3.0,2.5,2.5555555555555554,3.111111111111111,2.125,2.111111111111111,0.75,2.0,2.5,1.75,1.0,1.0,0.4842550333253004,0.01912679119178275,-0.7251435826854453,0.07473154852803696,-0.0001341628687589057,-1.244708264221459,-1.9085136791584852e-05,0.013515026277344628,,,0.00021152508518415547,0.22004532814327532,,,,,,,,,,,,,,,,,,,,,,,,
16,240719_145050,LEARNING,1.0,17,1.0,1472.0,,,,,,,,,,17.0,17.0,17.0,cue2.png,Easy,B,,,,,,,,,,,,,,,,,,,,,,,,,,,48,29,Female,1.0,1.0,0.2,1.5,3.0,2.5,2.5555555555555554,3.111111111111111,2.125,2.111111111111111,0.75,2.0,2.5,1.75,1.0,1.0,0.5130488888696871,0.5533939137569063,-0.6673841384112078,0.5809439731217791,-4.1081243866195136e-05,-0.16604517717407136,3.014509746374029e-05,0.4736349124290928,0.0006276334111162216,1.6698440917762407,-0.0004690163823730456,-0.8802343996336495,,,,,,,,,,,,,,,,,,,,,,,,
17,240719_145110,LEARNING,1.0,18,3.0,1472.0,,,,,,,,,,18.0,18.0,18.0,cue1.png,Hard,B,,,,,,,,,,,,,,,,,,,,,,,,,,,48,29,Female,1.0,1.0,0.2,1.5,3.0,2.5,2.5555555555555554,3.111111111111111,2.125,2.111111111111111,0.75,2.0,2.5,1.75,0.5,0.6666666666666667,0.4782354667161901,-0.09256566786014209,-0.7376520595893994,-0.034894617393189845,-8.681641431198227e-05,-0.6960406536878744,7.130421985274138e-05,0.8583198726816341,-0.0008411730663132723,-0.9590373275901327,-0.0004514468481840797,-0.8518284857897912,,,,,,,,,,,,,,,,,,,,,,,,
18,240719_145132,LEARNING,1.0,19,3.0,1472.0,,,,,,,,,,19.0,19.0,19.0,cue1.png,Hard,B,,,,,,,,,,,,,,,,,,,,,,,,,,,48,29,Female,1.0,1.0,0.2,1.5,3.0,2.5,2.5555555555555554,3.111111111111111,2.125,2.111111111111111,0.75,2.0,2.5,1.75,1.0,1.0,0.5860680999984551,1.9082581055843646,-0.5343192845557103,1.7471442914383382,-3.173445148540576e-05,-0.057731211500672196,-8.156892359824537e-07,0.18426652190789472,-0.00022720530005206942,0.13984702349105377,-0.00018025684946405655,-0.4133763529042786,1.01,-1.3168005068507764,0.5049999999999997,-1.6703119271145714,,,,,,,,,,,,,,,,,,,,
19,240719_145152,LEARNING,1.0,20,3.0,1472.0,,,,,,,,,,20.0,20.0,20.0,cue1.png,Hard,B,,,,,,,,,,,,,,,,,,,,,,,,,,,48,29,Female,1.0,1.0,0.2,1.5,3.0,2.5,2.5555555555555554,3.111111111111111,2.125,2.111111111111111,0.75,2.0,2.5,1.75,0.8194444444444444,0.8333333333333334,0.5268230666535803,0.8089724110150012,-0.6408905237132528,0.81313798227512,,,-4.9360055506525186e-05,-0.26944304538498925,-7.060483980047584e-05,0.42013176252632156,0.0004787852687224807,0.6521438496994845,1.994,0.7595886142728274,1.424,-0.19716733880527088,,,,,,,,,,,,,,,,,,,,
20,240719_145213,LEARNING,1.0,21,1.0,1472.0,,,,,,,,,,21.0,21.0,21.0,cue2.png,Easy,B,,,,,,,,,,,,,,,,,,,,,,,,,,,48,29,Female,1.0,1.0,0.2,1.5,3.0,2.5,2.5555555555555554,3.111111111111111,2.125,2.111111111111111,0.75,2.0,2.5,1.75,1.0,1.0,0.5117945999890152,0.5301207084680559,-0.6698319063300571,0.5594913682947598,-4.405198901515691e-05,-0.20047123212212056,-0.00025140636339177893,-2.157825775789895,-0.00011795855457969254,0.3353777102845869,-0.00034233050797918656,-0.6754123483167827,1.2679999999999998,-0.772381408019588,1.1059999999999999,-0.706917044009142,,,,,,,,,,,,,,,,,,,,
21,240719_145233,LEARNING,1.0,22,3.0,1472.0,,,,,,,,,,22.0,22.0,22.0,cue1.png,Hard,B,,,,,,,,,,,,,,,,,,,,,,,,,,,48,29,Female,1.0,1.0,0.2,1.5,3.0,2.5,2.5555555555555554,3.111111111111111,2.125,2.111111111111111,0.75,2.0,2.5,1.75,0.8194444444444444,0.8333333333333334,0.495816188903215,0.23364288177293085,-0.7015500078301796,0.2815091739430568,-4.5697805653521686e-05,-0.21954354266567586,-6.832343969789909e-05,-0.4466802718002385,0.00011031502861462601,0.7439435701260747,-0.0009687517270523631,-1.6881920263421957,1.624,-0.021167457694381116,1.5270000000000001,-0.032059729887035586,,,,,,,,,,,,,,,,,,,,
22,240719_145254,LEARNING,1.0,23,3.0,1472.0,,,,,,,,,,23.0,23.0,23.0,cue1.png,Hard,B,,,,,,,,,,,,,,,,,,,,,,,,,,,48,29,Female,1.0,1.0,0.2,1.5,3.0,2.5,2.5555555555555554,3.111111111111111,2.125,2.111111111111111,0.75,2.0,2.5,1.75,0.8194444444444444,0.8333333333333334,0.5258293555428585,0.7905342003013334,-0.6427785379997351,0.7965911421585492,-3.6086113834871494e-05,-0.10815982777239128,6.111761735963029e-05,0.7631129647661715,-0.0006781843033247872,-0.6673187539249332,-0.0001877114115198886,-0.42542867285904706,2.34,1.4897010491394602,2.102,0.8896575043652465,,,,,,,,,,,,,,,,,,,,
23,240719_145315,LEARNING,1.0,24,3.0,1472.0,,,,,,,,,,24.0,24.0,24.0,cue1.png,Hard,B,,,,,,,,,,,,,,,,,,,,,,,,,,,48,29,Female,1.0,1.0,0.2,1.5,3.0,2.5,2.5555555555555554,3.111111111111111,2.125,2.111111111111111,0.75,2.0,2.5,1.75,0.8194444444444444,0.8333333333333334,0.5442070666467771,1.1315307999296114,-0.6084254673318226,1.0976666011341925,3.4233436793045576e-05,0.706728219653972,8.758616780323242e-05,1.0104956270860175,-0.0009452286696908533,-1.145276867314256,-0.0002018220186902524,-0.44824229371290053,,,,,,,,,,,,,,,,,,,,,,,,
24,240719_145335,LEARNING,1.0,25,1.0,1472.0,,,,,,,,,,25.0,25.0,25.0,cue2.png,Easy,B,,,,,,,,,,,,,,,,,,,,,,,,,,,48,29,Female,1.0,1.0,0.2,1.5,3.0,2.5,2.5555555555555554,3.111111111111111,2.125,2.111111111111111,0.75,2.0,2.5,1.75,1.0,1.0,0.4813762333295825,-0.0342890560809706,-0.7311061247530573,0.022474936389296544,-6.427189582592979e-05,-0.4347867280694502,,,-0.000644929767199375,-0.6077995228532276,0.001370502812982794,2.0938469399967383,1.126,-1.0720229275313273,0.8779999999999999,-1.0723979647213513,,,,,,,,,,,,,,,,,,,,
25,240719_145355,LEARNING,1.0,26,1.0,1472.0,,,,,,,,,,26.0,26.0,26.0,cue2.png,Easy,B,,,,,,,,,,,,,,,,,,,,,,,,,,,48,29,Female,1.0,1.0,0.2,1.5,3.0,2.5,2.5555555555555554,3.111111111111111,2.125,2.111111111111111,0.75,2.0,2.5,1.75,1.0,1.0,0.4639438222317646,-0.3577457082214355,-0.7679918068621514,-0.30079670875648007,-4.06908246091491e-05,-0.16152085949554532,,,-0.00021363587283988392,0.1641336913521514,-3.49654692043443e-05,-0.17847345875102383,0.9949999999999999,-1.3484527800386366,2.364,1.309639965885417,,,,,,,,,,,,,,,,,,,,
26,240719_145416,LEARNING,1.0,27,3.0,1472.0,,,,,,,,,,27.0,27.0,27.0,cue1.png,Hard,B,,,,,,,,,,,,,,,,,,,,,,,,,,,48,29,Female,1.0,1.0,0.2,1.5,3.0,2.5,2.5555555555555554,3.111111111111111,2.125,2.111111111111111,0.75,2.0,2.5,1.75,0.5,0.6666666666666667,0.5705429777735844,1.6201910085689215,-0.56116677899669,1.511848827189955,,,,,,,0.0007500941739402404,1.0907882271655223,1.9029999999999998,0.5675648235998108,0.7160000000000002,-1.3320817768063418,,,,,,,,,,,,,,,,,,,,
27,240719_145436,LEARNING,1.0,28,1.0,1472.0,,,,,,,,,,28.0,28.0,28.0,cue2.png,Easy,B,,,,,,,,,,,,,,,,,,,,,,,,,,,48,29,Female,1.0,1.0,0.2,1.5,3.0,2.5,2.5555555555555554,3.111111111111111,2.125,2.111111111111111,0.75,2.0,2.5,1.75,1.0,1.0,0.4152342666639015,-1.261546661676642,-0.8789124200351864,-1.272921583524207,-3.7581326814596725e-05,-0.12548688937410646,6.896947390442774e-05,0.8364986675587857,0.0009665770884202084,2.276488159029774,0.0010328317188684688,1.5479100981994858,1.6329999999999998,-0.0021760937816659135,2.4,1.3673474796820817,,,,,,,,,,,,,,,,,,,,
28,240719_145456,LEARNING,1.0,29,1.0,1472.0,,,,,,,,,,29.0,29.0,29.0,cue2.png,Easy,B,,,,,,,,,,,,,,,,,,,,,,,,,,,48,29,Female,1.0,1.0,0.2,1.5,3.0,2.5,2.5555555555555554,3.111111111111111,2.125,2.111111111111111,0.75,2.0,2.5,1.75,1.0,1.0,0.4748963111002619,-0.15452336782738063,-0.7446587911972554,-0.09630266312939917,-9.003748127060351e-05,-0.7333675270979325,-0.0001284756454206235,-1.0088800351686749,,,0.00038949652441358854,0.507784394816636,,,,,,,,,,,,,,,,,,,,,,,,
29,240719_145517,LEARNING,1.0,30,3.0,1472.0,,,,,,,,,,30.0,30.0,30.0,cue1.png,Hard,B,,,,,,,,,,,,,,,,,,,,,,,,,,,48,29,Female,1.0,1.0,0.2,1.5,3.0,2.5,2.5555555555555554,3.111111111111111,2.125,2.111111111111111,0.75,2.0,2.5,1.75,0.8194444444444444,0.8333333333333334,0.4809838999968229,-0.0415687620049218,-0.7319214813766509,0.01532902876286162,-0.00011788521316047004,-1.0560769821833453,0.00020202221727235858,2.080047760035591,0.0004121535069375286,1.2841764595544836,0.0006456338039544521,0.9218997274477891,,,1.9399999999999997,0.6299736922802553,,,,,,,,,,,,,,,,,,,,
30,240719_145537,LEARNING,1.0,31,3.0,1472.0,,,,,,,,,,31.0,31.0,31.0,cue1.png,Hard,B,,,,,,,,,,,,,,,,,,,,,,,,,,,48,29,Female,1.0,1.0,0.2,1.5,3.0,2.5,2.5555555555555554,3.111111111111111,2.125,2.111111111111111,0.75,2.0,2.5,1.75,0.8194444444444444,0.8333333333333334,0.5144432333763689,0.5792658372407542,-0.6646700633688563,0.6047305334840114,5.20113828244872e-05,0.9127454026343954,-9.036004877834318e-05,-0.6526407392779602,-0.0009823208773864864,-1.2116647932342033,-0.0014911869816667828,-2.5328502097612784,,,,,,,,,,,,,,,,,,,,,,,,
31,240719_145557,LEARNING,1.0,32,1.0,1472.0,,,,,,,,,,32.0,32.0,32.0,cue2.png,Easy,B,,,,,,,,,,,,,,,,,,,,,,,,,,,48,29,Female,1.0,1.0,0.2,1.5,3.0,2.5,2.5555555555555554,3.111111111111111,2.125,2.111111111111111,0.75,2.0,2.5,1.75,1.0,1.0,0.4475217777459572,-0.6624551084802417,-0.8040300770972526,-0.6166415092579977,-1.4930576839934564e-05,0.1369980846448741,-0.0002537941675196517,-2.18014287787337,,,0.0003252915673956497,0.4039796804864409,0.9969999999999999,-1.3442324769469218,1.011,-0.8592007609725625,,,,,,,,,,,,,,,,,,,,
32,240719_145618,LEARNING,1.0,33,1.0,1472.0,,,,,,,,,,33.0,33.0,33.0,cue2.png,Easy,B,,,,,,,,,,,,,,,,,,,,,,,,,,,48,29,Female,1.0,1.0,0.2,1.5,3.0,2.5,2.5555555555555554,3.111111111111111,2.125,2.111111111111111,0.75,2.0,2.5,1.75,1.0,1.0,0.4802891000096376,-0.054460706584540344,-0.7333670646982982,0.002659719918252183,-0.00010832700000050531,-0.9453129970716938,-1.1202477313341716e-05,0.0871886221187032,-0.0011939203824695632,-1.5903872565457278,0.000698856770473425,1.0079490777146833,2.1519999999999997,1.0929925585182834,0.5719999999999998,-1.5629118319930009,,,,,,,,,,,,,,,,,,,,
33,240719_145638,LEARNING,1.0,34,1.0,1472.0,,,,,,,,,,34.0,34.0,34.0,cue2.png,Easy,B,,,,,,,,,,,,,,,,,,,,,,,,,,,48,29,Female,1.0,1.0,0.2,1.5,3.0,2.5,2.5555555555555554,3.111111111111111,2.125,2.111111111111111,0.75,2.0,2.5,1.75,1.0,1.0,0.4640614333071021,-0.3555634464293153,-0.7677383361511502,-0.2985752534639009,0.00014835838410711929,2.0292488365943373,,,-0.0001747382182877748,0.23375302029732895,,,2.555,1.943383631498785,1.1719999999999997,-0.6011199353819238,,,,,,,,,,,,,,,,,,,,
34,240719_145658,LEARNING,1.0,35,3.0,1472.0,,,,,,,,,,35.0,35.0,35.0,cue1.png,Hard,B,,,,,,,,,,,,,,,,,,,,,,,,,,,48,29,Female,1.0,1.0,0.2,1.5,3.0,2.5,2.5555555555555554,3.111111111111111,2.125,2.111111111111111,0.75,2.0,2.5,1.75,0.5,0.6666666666666667,0.5201784888437638,0.6856829313675719,-0.6535832785262362,0.701896777146004,-0.00010675773916680271,-0.9271278425128291,7.941532513811023e-05,0.9341285885433723,1.1517274888962238e-05,0.567114571183292,0.00041601908915733614,0.5506653090700259,2.229,1.255474227549298,1.416,-0.20999123076008525,,,,,,,,,,,,,,,,,,,,
35,240719_145718,LEARNING,1.0,36,3.0,1472.0,,,,,,,,,,36.0,36.0,36.0,cue1.png,Hard,B,,,,,,,,,,,,,,,,,,,,,,,,,,,48,29,Female,1.0,1.0,0.2,1.5,3.0,2.5,2.5555555555555554,3.111111111111111,2.125,2.111111111111111,0.75,2.0,2.5,1.75,0.8194444444444444,0.8333333333333334,0.4072855333409582,-1.409034617012805,-0.8982407833947097,-1.4423182562691557,6.262473278391021e-05,1.0357366895220186,1.5693175260362863e-05,0.33856310341829843,,,9.913358216995238e-05,0.03833400232974181,1.6839999999999997,0.10544163505705732,1.0999999999999999,-0.7165349629752528,,,,,,,,,,,,,,,,,,,,
36,240719_145737,LEARNING,1.0,37,1.0,1472.0,,,,,,,,,,37.0,37.0,37.0,cue2.png,Easy,B,,,,,,,,,,,,,,,,,,,,,,,,,,,48,29,Female,1.0,1.0,0.2,1.5,3.0,2.5,2.5555555555555554,3.111111111111111,2.125,2.111111111111111,0.75,2.0,2.5,1.75,1.0,1.0,0.3990413444634113,-1.5620047207455454,-0.9186902472514258,-1.6215404217630083,6.525191402773252e-06,0.3856351839040313,-5.8308785337116056e-05,-0.35308044043575204,,,,,,,1.664,0.18754941983916007,,,,,,,,,,,,,,,,,,,,
37,240719_145758,LEARNING,1.0,38,3.0,1472.0,,,,,,,,,,38.0,38.0,38.0,cue1.png,Hard,B,,,,,,,,,,,,,,,,,,,,,,,,,,,48,29,Female,1.0,1.0,0.2,1.5,3.0,2.5,2.5555555555555554,3.111111111111111,2.125,2.111111111111111,0.75,2.0,2.5,1.75,1.0,1.0,0.5352367111223025,0.9650867463689733,-0.6250461792426849,0.9520001914138267,0.00019169081771645792,2.531400541189103,-5.155544036715984e-05,-0.28996174182050793,,,,,2.0860000000000003,0.9537225564917016,,,,,,,,,,,,,,,,,,,,,,
38,240719_145819,LEARNING,1.0,39,3.0,1472.0,,,,,,,,,,39.0,39.0,39.0,cue1.png,Hard,B,,,,,,,,,,,,,,,,,,,,,,,,,,,48,29,Female,1.0,1.0,0.2,1.5,3.0,2.5,2.5555555555555554,3.111111111111111,2.125,2.111111111111111,0.75,2.0,2.5,1.75,0.8194444444444444,0.8333333333333334,0.538409600008486,1.0239593837213055,-0.6191356701856087,1.0038007784513365,-0.00012146028117294896,-1.097506146136916,-2.030264819459374e-05,0.0021358155826421417,,,,,1.506,-0.2701653401055452,2.07,0.838361936545989,,,,,,,,,,,,,,,,,,,,
39,240719_145841,LEARNING,1.0,40,3.0,1472.0,,,,,,,,,,40.0,40.0,40.0,cue1.png,Hard,B,,,,,,,,,,,,,,,,,,,,,,,,,,,48,29,Female,1.0,1.0,0.2,1.5,3.0,2.5,2.5555555555555554,3.111111111111111,2.125,2.111111111111111,0.75,2.0,2.5,1.75,1.0,1.0,0.6165317555811877,2.4735082015957124,-0.48364544824576833,2.1912573860887936,-1.1679357976329685e-05,0.17467436909011239,,,-0.00038604259908855444,-0.14444122724577613,-0.001077581679958378,-1.8641451411277263,1.927,0.618208460700387,1.4339999999999997,-0.18113747386175325,,,,,,,,,,,,,,,,,,,,
40,240719_145900,LEARNING,1.0,41,1.0,1472.0,,,,,,,,,,41.0,41.0,41.0,cue2.png,Easy,B,,,,,,,,,,,,,,,,,,,,,,,,,,,48,29,Female,1.0,1.0,0.2,1.5,3.0,2.5,2.5555555555555554,3.111111111111111,2.125,2.111111111111111,0.75,2.0,2.5,1.75,1.0,1.0,0.4066316000082426,-1.421168284887911,-0.8998476631288486,-1.4564011910423318,-0.00017534450963341795,-1.7219358150574027,2.3715678407694712e-05,0.41354371829122255,-0.0016667164893530342,-2.4366014580993003,0.00043130561770079925,0.5753801255305556,0.8419999999999999,-1.6713059665548067,,,,,,,,,,,,,,,,,,,,,,
41,240719_145920,LEARNING,1.0,42,3.0,1472.0,,,,,,,,,,42.0,42.0,42.0,cue1.png,Hard,B,,,,,,,,,,,,,,,,,,,,,,,,,,,48,29,Female,1.0,1.0,0.2,1.5,3.0,2.5,2.5555555555555554,3.111111111111111,2.125,2.111111111111111,0.75,2.0,2.5,1.75,0.8194444444444444,0.8333333333333334,0.4921489888802171,0.16559835049654176,-0.7089737854041668,0.21644607486734643,,,-3.0913542275316265e-06,0.16299750434846957,,,,,2.532,1.894850145944066,2.532,1.5789416969365189,,,,,,,,,,,,,,,,,,,,
42,240719_145940,LEARNING,1.0,43,3.0,1472.0,,,,,,,,,,43.0,43.0,43.0,cue1.png,Hard,B,,,,,,,,,,,,,,,,,,,,,,,,,,,48,29,Female,1.0,1.0,0.2,1.5,3.0,2.5,2.5555555555555554,3.111111111111111,2.125,2.111111111111111,0.75,2.0,2.5,1.75,0.8194444444444444,0.8333333333333334,0.40839340002276,-1.3884782610444428,-0.8955243533933168,-1.418511056693006,6.0730815569165746e-05,1.013789300960386,-5.586444483498881e-05,-0.3302349331866526,-0.0006006485725799952,-0.5285446914298539,,,1.028,-1.2788177790253445,2.6229999999999998,1.724813467922532,,,,,,,,,,,,,,,,,,,,
43,240719_150001,LEARNING,1.0,44,1.0,1472.0,,,,,,,,,,44.0,44.0,44.0,cue2.png,Easy,B,,,,,,,,,,,,,,,,,,,,,,,,,,,48,29,Female,1.0,1.0,0.2,1.5,3.0,2.5,2.5555555555555554,3.111111111111111,2.125,2.111111111111111,0.75,2.0,2.5,1.75,1.0,1.0,0.4969541110977944,0.25475691478819534,-0.6992575889435332,0.30160027657354693,-9.302851806889832e-05,-0.7680287289198796,-1.4294270036070093e-05,0.058291840758523,-0.001184312597326355,-1.5731911669094354,-0.0008194801116848194,-1.4468540033838546,1.551,-0.17520852054196592,1.7710000000000001,0.35906897473480254,,,,,,,,,,,,,,,,,,,,
44,240719_150021,LEARNING,1.0,45,1.0,1472.0,,,,,,,,,,45.0,45.0,45.0,cue2.png,Easy,B,,,,,,,,,,,,,,,,,,,,,,,,,,,48,29,Female,1.0,1.0,0.2,1.5,3.0,2.5,2.5555555555555554,3.111111111111111,2.125,2.111111111111111,0.75,2.0,2.5,1.75,1.0,1.0,0.4960752222298955,0.23844921935702806,-0.7010277060345158,0.28608670514466106,,,-0.00033558962236925234,-2.944626653797262,,,,,1.719,0.17929693916206432,1.3599999999999999,-0.2997584744437859,,,,,,,,,,,,,,,,,,,,
45,240719_150041,LEARNING,1.0,46,1.0,1472.0,,,,,,,,,,46.0,46.0,46.0,cue2.png,Easy,B,,,,,,,,,,,,,,,,,,,,,,,,,,,48,29,Female,1.0,1.0,0.2,1.5,3.0,2.5,2.5555555555555554,3.111111111111111,2.125,2.111111111111111,0.75,2.0,2.5,1.75,1.0,1.0,0.4460354888837577,-0.6900330503256403,-0.80735675863947,-0.6457970447811853,,,,,-0.0006449343611482326,-0.6078077451391304,0.0005414240479100531,0.7534164130895885,1.1139999999999999,-1.0973447460816153,1.416,-0.20999123076008525,,,,,,,,,,,,,,,,,,,,
46,240719_150102,LEARNING,1.0,47,3.0,1472.0,,,,,,,,,,47.0,47.0,47.0,cue1.png,Hard,B,,,,,,,,,,,,,,,,,,,,,,,,,,,48,29,Female,1.0,1.0,0.2,1.5,3.0,2.5,2.5555555555555554,3.111111111111111,2.125,2.111111111111111,0.75,2.0,2.5,1.75,1.0,1.0,0.529087055565065,0.85098049983776,-0.6366022943778163,0.8507206667413821,-4.5395467763260575e-06,0.2574130492410918,,,-0.00020105544892359307,0.1866502333129196,,,,,1.7440000000000002,0.3157883393873042,,,,,,,,,,,,,,,,,,,,
47,240719_150123,LEARNING,1.0,48,3.0,1472.0,,,,,,,,,,48.0,48.0,48.0,cue1.png,Hard,B,,,,,,,,,,,,,,,,,,,,,,,,,,,48,29,Female,1.0,1.0,0.2,1.5,3.0,2.5,2.5555555555555554,3.111111111111111,2.125,2.111111111111111,0.75,2.0,2.5,1.75,0.8194444444444444,0.8333333333333334,0.5447811333514336,1.1421825504735599,-0.6073711551586807,1.1069067510032053,,,3.0576505814603784e-05,0.4776669785828863,-0.0004603301642540497,-0.27740169736523995,0.0006884416815860182,0.9911102637524097,1.232,-0.8483468636704512,0.3959999999999999,-1.8450374549989168,,,,,,,,,,,,,,,,,,,,
48,240719_150143,LEARNING,1.0,49,1.0,1472.0,,,,,,,,,,49.0,49.0,49.0,cue2.png,Easy,B,,,,,,,,,,,,,,,,,,,,,,,,,,,48,29,Female,1.0,1.0,0.2,1.5,3.0,2.5,2.5555555555555554,3.111111111111111,2.125,2.111111111111111,0.75,2.0,2.5,1.75,1.0,1.0,0.4526000222087734,-0.5682287881235019,-0.7927464967133832,-0.517750519983632,,,-4.005402381442556e-05,-0.18246620468002603,0.000592681395650281,1.6072866987910044,0.000644705081695186,0.9203981962063885,,,,,,,,,,,,,,,,,,,,,,,,
49,240719_150203,LEARNING,1.0,50,1.0,1472.0,,,,,,,,,,50.0,50.0,50.0,cue2.png,Easy,B,,,,,,,,,,,,,,,,,,,,,,,,,,,48,29,Female,1.0,1.0,0.2,1.5,3.0,2.5,2.5555555555555554,3.111111111111111,2.125,2.111111111111111,0.75,2.0,2.5,1.75,1.0,1.0,0.4758380333272119,-0.13704980567546254,-0.7426777487736712,-0.07894051047944857,,,,,,,,,2.373,1.5593360501527525,0.747,-1.2823891954814364,,,,,,,,,,,,,,,,,,,,
0,240719_150336,TrueCHOICE,9.0,1,3.0,1472.0,,,,,,,,,,,1.0,1.0,,,B,,,,,,True,cue2.png,Easy,cue1.png,Hard,Right,Hard,Hard,0.0136343999765813,,,,,,,,,,,,,48,29,Female,1.0,1.0,0.2,1.5,3.0,2.5,2.5555555555555554,3.111111111111111,2.125,2.111111111111111,0.75,2.0,2.5,1.75,0.8194444444444444,0.8333333333333334,0.5100550555572327,0.03632502723482887,-0.6732366070171659,0.08297061702918286,,,,,,,,,,,,,,,,,1.46,-0.9847851454129731,,,,,,,,,,,,,,
1,240719_150355,TrueCHOICE,9.0,2,3.0,1472.0,,,,,,,,,,,2.0,2.0,,,B,,,,,,True,cue2.png,Easy,cue1.png,Hard,Right,Hard,Hard,0.0167011999292299,,,,,,,,,,,,,48,29,Female,1.0,1.0,0.2,1.5,3.0,2.5,2.5555555555555554,3.111111111111111,2.125,2.111111111111111,0.75,2.0,2.5,1.75,,,,,,,,,,,,,,,,,,,0.00017293147211489045,1.6897406029088493,,,,,,,,,,,,,,,,,,
2,240719_150415,TrueCHOICE,9.0,3,3.0,1472.0,,,,,,,,,,,3.0,3.0,,,B,,,,,,True,cue1.png,Hard,cue2.png,Easy,Left,Hard,Hard,0.0160811999812722,,,,,,,,,,,,,48,29,Female,1.0,1.0,0.2,1.5,3.0,2.5,2.5555555555555554,3.111111111111111,2.125,2.111111111111111,0.75,2.0,2.5,1.75,0.8194444444444444,0.8333333333333334,0.5682218222387342,1.2634933160497266,-0.5652434043883546,1.24628370801038,,,,,,,,,,,,,,,-0.0014612719110734277,-1.9001745642637935,1.599,1.550124765927826,,,,,,,,,,,,,,
3,240719_150433,TrueCHOICE,9.0,4,3.0,1472.0,,,,,,,,,,,4.0,4.0,,,B,,,,,,True,cue2.png,Easy,cue1.png,Hard,Right,Hard,Hard,0.0166049000108614,,,,,,,,,,,,,48,29,Female,1.0,1.0,0.2,1.5,3.0,2.5,2.5555555555555554,3.111111111111111,2.125,2.111111111111111,0.75,2.0,2.5,1.75,0.8194444444444444,0.8333333333333334,0.5406581222260785,0.6819705581637319,-0.614968136627364,0.7106441441204396,,,,,,,,,,,,,1.675393306590188e-05,-0.5117722087412363,,,,,,,,,,,,,,,,,,
4,240719_150452,TrueCHOICE,9.0,5,1.0,1472.0,,,,,,,,,,,5.0,5.0,,,B,,,,,,True,cue1.png,Hard,cue2.png,Easy,Right,Easy,Easy,0.0166563000530004,,,,,,,,,,,,,48,29,Female,1.0,1.0,0.2,1.5,3.0,2.5,2.5555555555555554,3.111111111111111,2.125,2.111111111111111,0.75,2.0,2.5,1.75,1.0,1.0,0.4688467999997859,-0.8330625516618584,-0.7574792163508731,-0.8244988150345995,,,,,,,,,,,,,-9.617879112869265e-06,-0.8835150517359852,-0.00012068776971087096,0.3570113032323249,1.5479999999999998,0.6200499063711272,,,,,,,,,,,,,,
5,240719_150509,TrueCHOICE,9.0,6,1.0,1472.0,,,,,,,,,,,6.0,6.0,,,B,,,,,,True,cue1.png,Hard,cue2.png,Easy,Right,Easy,Easy,0.0153647999977692,,,,,,,,,,,,,48,29,Female,1.0,1.0,0.2,1.5,3.0,2.5,2.5555555555555554,3.111111111111111,2.125,2.111111111111111,0.75,2.0,2.5,1.75,1.0,1.0,0.5806855444356592,1.5264456084543343,-0.5435459002570817,1.480011294405659,,,,,,,,,,,,,,,,,,,,,,,,,,,,,,,,
6,240719_150528,TrueCHOICE,9.0,7,1.0,1472.0,,,,,,,,,,,7.0,7.0,,,B,,,,,,True,cue2.png,Easy,cue1.png,Hard,Left,Easy,Easy,0.0168098000576719,,,,,,,,,,,,,48,29,Female,1.0,1.0,0.2,1.5,3.0,2.5,2.5555555555555554,3.111111111111111,2.125,2.111111111111111,0.75,2.0,2.5,1.75,,,,,,,,,,,,,,,,,,,,,,,,,,,,,,,,,,,,,,
7,240719_150546,TrueCHOICE,9.0,8,1.0,1472.0,,,,,,,,,,,8.0,8.0,,,B,,,,,,True,cue1.png,Hard,cue2.png,Easy,Right,Easy,Easy,0.0165964000625535,,,,,,,,,,,,,48,29,Female,1.0,1.0,0.2,1.5,3.0,2.5,2.5555555555555554,3.111111111111111,2.125,2.111111111111111,0.75,2.0,2.5,1.75,1.0,1.0,0.4702711444373967,-0.8030125690703084,-0.7544458475643379,-0.7918230768098606,,,,,,,,,,,,,,,-8.157061799993811e-05,0.42287414562644526,,,,,,,,,,,,,,,,
8,240719_150603,TrueCHOICE,9.0,9,1.0,1472.0,,,,,,,,,,,9.0,9.0,,,B,,,,,,True,cue2.png,Easy,cue1.png,Hard,Left,Easy,Easy,0.0159232000587508,,,,,,,,,,,,,48,29,Female,1.0,1.0,0.2,1.5,3.0,2.5,2.5555555555555554,3.111111111111111,2.125,2.111111111111111,0.75,2.0,2.5,1.75,1.0,1.0,0.4398919889030771,-1.4439341543601558,-0.8212260619706535,-1.5111859232328664,,,,,,,,,,,,,-9.004250200460567e-06,-0.8748652041299033,-0.0002834901280556919,0.08289558672275146,1.51,-0.07294704780836839,,,,,,,,,,,,,,
9,240719_150621,TrueCHOICE,9.0,10,1.0,1472.0,,,,,,,,,,,10.0,10.0,,,B,,,,,,True,cue1.png,Hard,cue2.png,Easy,Right,Easy,Easy,0.0165930000366643,,,,,,,,,,,,,48,29,Female,1.0,1.0,0.2,1.5,3.0,2.5,2.5555555555555554,3.111111111111111,2.125,2.111111111111111,0.75,2.0,2.5,1.75,1.0,1.0,0.4880357555553524,-0.4282252348103002,-0.7173666062324343,-0.39240194848833954,,,,,,,,,,,,,9.423457247308316e-05,0.5804118616982752,0.0002834037296369253,1.0373935286822717,1.453,-1.1124424790776157,,,,,,,,,,,,,,
0,240719_150746,FalseCHOICE,9.0,1,2.0,1472.0,,,,,,,,,,,1.0,1.0,,,B,,,,,,False,cue2.png,Easy,cue1.png,Hard,Left,Easy,Mid,0.0167549999896436,,,,,,,,,,,,,48,29,Female,1.0,1.0,0.2,1.5,3.0,2.5,2.5555555555555554,3.111111111111111,2.125,2.111111111111111,0.75,2.0,2.5,1.75,1.0,1.0,0.509091033328635,0.12437977171723125,-0.6751284310189065,0.1838122557319424,,,,,,,,,,,,,,,,,,,3.307713008917409e-05,-0.3211661520858157,-0.00035955122400562357,-0.5737160753328399,,,,,,,,,,
1,240719_150805,FalseCHOICE,9.0,2,2.0,1472.0,,,,,,,,,,,2.0,2.0,,,B,,,,,,False,cue1.png,Hard,cue2.png,Easy,Left,Hard,Mid,0.0159174000145867,,,,,,,,,,,,,48,29,Female,1.0,1.0,0.2,1.5,3.0,2.5,2.5555555555555554,3.111111111111111,2.125,2.111111111111111,0.75,2.0,2.5,1.75,,,,,,,,,,,,,,,,,,,,,,,,,,,,,1.091,-1.0767166650105504,,,,,,,,
2,240719_150824,FalseCHOICE,9.0,3,2.0,1472.0,,,,,,,,,,,3.0,3.0,,,B,,,,,,False,cue1.png,Hard,cue2.png,Easy,Left,Hard,Mid,0.0159213000442832,,,,,,,,,,,,,48,29,Female,1.0,1.0,0.2,1.5,3.0,2.5,2.5555555555555554,3.111111111111111,2.125,2.111111111111111,0.75,2.0,2.5,1.75,,,,,,,,,,,,,,,,,,,,,,,,,,,-0.0006925924925769988,-1.0725857310858327,1.602,-0.11724211313624629,,,,,,,,
3,240719_150843,FalseCHOICE,9.0,4,2.0,1472.0,,,,,,,,,,,4.0,4.0,,,B,,,,,,False,cue1.png,Hard,cue2.png,Easy,Right,Easy,Mid,0.0166011999826878,,,,,,,,,,,,,48,29,Female,1.0,1.0,0.2,1.5,3.0,2.5,2.5555555555555554,3.111111111111111,2.125,2.111111111111111,0.75,2.0,2.5,1.75,0.5,0.6666666666666667,0.6068768888686059,1.6165401173512857,-0.4994293274905474,1.4640547711111485,,,,,,,,,,,,,,,,,,,2.9342324445189808e-05,-0.3754169489943552,-0.000321788958303041,-0.5171511680097612,1.5839999999999999,-0.15103965116704413,,,,,,,,
4,240719_150901,FalseCHOICE,9.0,5,2.0,1472.0,,,,,,,,,,,5.0,5.0,,,B,,,,,,False,cue2.png,Easy,cue1.png,Hard,Right,Hard,Mid,0.0171441999264061,,,,,,,,,,,,,48,29,Female,1.0,1.0,0.2,1.5,3.0,2.5,2.5555555555555554,3.111111111111111,2.125,2.111111111111111,0.75,2.0,2.5,1.75,,,,,,,,,,,,,,,,,,,,,,,,,,,-0.00042827872475271166,-0.6766644720451693,,,,,,,,,,
5,240719_150919,FalseCHOICE,9.0,6,2.0,1472.0,,,,,,,,,,,6.0,6.0,,,B,,,,,,False,cue1.png,Hard,cue2.png,Easy,Right,Easy,Mid,0.0151214000070467,,,,,,,,,,,,,48,29,Female,1.0,1.0,0.2,1.5,3.0,2.5,2.5555555555555554,3.111111111111111,2.125,2.111111111111111,0.75,2.0,2.5,1.75,0.8194444444444444,0.8333333333333334,0.5076027777589237,0.10166978024628151,-0.6780560708185724,0.16247982508215475,,,,,,,,,,,,,,,,,,,4.9869201345987754e-05,-0.07724897559379154,-0.0004094738194749944,-0.6484962013002123,,,,,,,,,,
6,240719_150937,FalseCHOICE,9.0,7,2.0,1472.0,,,,,,,,,,,7.0,7.0,,,B,,,,,,False,cue1.png,Hard,cue2.png,Easy,Left,Hard,Mid,0.0160732000367715,,,,,,,,,,,,,48,29,Female,1.0,1.0,0.2,1.5,3.0,2.5,2.5555555555555554,3.111111111111111,2.125,2.111111111111111,0.75,2.0,2.5,1.75,1.0,1.0,0.4535533888782892,-0.7230952570700856,-0.7906422900534106,-0.6578867084726341,,,,,,,,,,,,,,,,,,,,,0.000645575199103317,0.9318843412027203,1.4620000000000002,-0.3801118533757814,,,,,,,,
7,240719_150955,FalseCHOICE,9.0,8,2.0,1472.0,,,,,,,,,,,8.0,8.0,,,B,,,,,,False,cue2.png,Easy,cue1.png,Hard,Right,Hard,Mid,0.0154342999448999,,,,,,,,,,,,,48,29,Female,1.0,1.0,0.2,1.5,3.0,2.5,2.5555555555555554,3.111111111111111,2.125,2.111111111111111,0.75,2.0,2.5,1.75,,,,,,,,,,,,,,,,,,,,,,,,,-1.8272556433947262e-05,-1.0670580887572998,0.0002505178468645095,0.3401194642567714,,,,,,,,,,
8,240719_151013,FalseCHOICE,9.0,9,2.0,1472.0,,,,,,,,,,,9.0,9.0,,,B,,,,,,False,cue2.png,Easy,cue1.png,Hard,Left,Easy,Mid,0.0141425000037997,,,,,,,,,,,,,48,29,Female,1.0,1.0,0.2,1.5,3.0,2.5,2.5555555555555554,3.111111111111111,2.125,2.111111111111111,0.75,2.0,2.5,1.75,0.8194444444444444,0.8333333333333334,0.4459724222801419,-0.8387767907322609,-0.8074981623264363,-0.78070807684829,,,,,,,,,,,,,,,,,,,-7.573936493653326e-06,-0.9116527710756657,0.0006963406135205592,1.0079269437400094,0.06999999999999984,-2.993788127757447,,,,,,,,
9,240719_151031,FalseCHOICE,9.0,10,2.0,1472.0,,,,,,,,,,,10.0,10.0,,,B,,,,,,False,cue1.png,Hard,cue2.png,Easy,Right,Easy,Mid,0.0167393999872729,,,,,,,,,,,,,48,29,Female,1.0,1.0,0.2,1.5,3.0,2.5,2.5555555555555554,3.111111111111111,2.125,2.111111111111111,0.75,2.0,2.5,1.75,,,,,,,,,,,,,,,,,,,,,,,,,-8.308245119630162e-06,-0.9223191435548397,-0.0006166709608821409,-0.9588612411950653,1.4599999999999997,-0.3838671353792042,,,,,,,,
10,240719_151050,FalseCHOICE,9.0,11,2.0,1472.0,,,,,,,,,,,11.0,11.0,,,B,,,,,,False,cue2.png,Easy,cue1.png,Hard,Left,Easy,Mid,0.0164769000839442,,,,,,,,,,,,,48,29,Female,1.0,1.0,0.2,1.5,3.0,2.5,2.5555555555555554,3.111111111111111,2.125,2.111111111111111,0.75,2.0,2.5,1.75,0.8194444444444444,0.8333333333333334,0.529145733311048,0.4304038678618163,-0.636491396763114,0.4653434242415441,,,,,,,,,,,,,,,,,,,-7.071927062621188e-05,-1.8288851585936383,-0.0004904198619887839,-0.7697470136594229,,,,,,,,,,
11,240719_151108,FalseCHOICE,9.0,12,2.0,1472.0,,,,,,,,,,,12.0,12.0,,,B,,,,,,False,cue1.png,Hard,cue2.png,Easy,Right,Easy,Mid,0.0165229000849649,,,,,,,,,,,,,48,29,Female,1.0,1.0,0.2,1.5,3.0,2.5,2.5555555555555554,3.111111111111111,2.125,2.111111111111111,0.75,2.0,2.5,1.75,,,,,,,,,,,,,,,,,,,,,,,,,-2.298754331960494e-05,-1.1355467385943403,0.0004504489140700887,0.6396004958388986,2.234,1.0694269999450843,,,,,,,,
12,240719_151126,FalseCHOICE,9.0,13,2.0,1472.0,,,,,,,,,,,13.0,13.0,,,B,,,,,,False,cue2.png,Easy,cue1.png,Hard,Right,Hard,Mid,0.0167890000157058,,,,,,,,,,,,,48,29,Female,1.0,1.0,0.2,1.5,3.0,2.5,2.5555555555555554,3.111111111111111,2.125,2.111111111111111,0.75,2.0,2.5,1.75,1.0,1.0,0.4725157444287712,-0.4337397581996255,-0.7496842110611169,-0.3594431022095512,,,,,,,,,,,,,,,,,,,0.00011148354457377356,0.8177446438165474,-0.0005442633462801197,-0.8504003230471263,2.237,1.0750599229502174,,,,,,,,
13,240719_151145,FalseCHOICE,9.0,14,2.0,1472.0,,,,,,,,,,,14.0,14.0,,,B,,,,,,False,cue1.png,Hard,cue2.png,Easy,Right,Easy,Mid,0.0164182999869808,,,,,,,,,,,,,48,29,Female,1.0,1.0,0.2,1.5,3.0,2.5,2.5555555555555554,3.111111111111111,2.125,2.111111111111111,0.75,2.0,2.5,1.75,0.8194444444444444,0.8333333333333334,0.6067298666910372,1.614296636818387,-0.4996716171409871,1.4622893124076028,,,,,,,,,,,,,,,,,,,5.058833683885787e-05,-0.06680300402462593,0.0010639345932241702,1.5585538462204505,,,,,,,,,,
14,240719_151204,FalseCHOICE,9.0,15,2.0,1472.0,,,,,,,,,,,15.0,15.0,,,B,,,,,,False,cue2.png,Easy,cue1.png,Hard,Right,Hard,Mid,0.0167491000611335,,,,,,,,,,,,,48,29,Female,1.0,1.0,0.2,1.5,3.0,2.5,2.5555555555555554,3.111111111111111,2.125,2.111111111111111,0.75,2.0,2.5,1.75,,,,,,,,,,,,,,,,,,,,,,,,,9.027618029806622e-05,0.5096920911649865,0.0010261722347317927,1.5019887999055488,,,,,,,,,,
15,240719_151223,FalseCHOICE,9.0,16,2.0,1472.0,,,,,,,,,,,16.0,16.0,,,B,,,,,,False,cue2.png,Easy,cue1.png,Hard,Right,Hard,Mid,0.0166504000080749,,,,,,,,,,,,,48,29,Female,1.0,1.0,0.2,1.5,3.0,2.5,2.5555555555555554,3.111111111111111,2.125,2.111111111111111,0.75,2.0,2.5,1.75,1.0,1.0,0.4872749666683376,-0.20852184670649512,-0.7189267019516471,-0.1353265868811121,,,,,,,,,,,,,,,,,,,,,,,,,,,,,,,,
16,240719_151240,FalseCHOICE,9.0,17,2.0,1472.0,,,,,,,,,,,17.0,17.0,,,B,,,,,,False,cue1.png,Hard,cue2.png,Easy,Right,Easy,Mid,0.0163286000024527,,,,,,,,,,,,,48,29,Female,1.0,1.0,0.2,1.5,3.0,2.5,2.5555555555555554,3.111111111111111,2.125,2.111111111111111,0.75,2.0,2.5,1.75,1.0,1.0,0.4608122889055974,-0.612328288638299,-0.7747645013241184,-0.5421922070594976,,,,,,,,,,,,,,,,,,,0.0001540519507657128,1.43608202979508,0.001157822507624526,1.6991905659194506,,,,,,,,,,
17,240719_151258,FalseCHOICE,9.0,18,2.0,1472.0,,,,,,,,,,,18.0,18.0,,,B,,,,,,False,cue1.png,Hard,cue2.png,Easy,Right,Easy,Mid,0.0165852999780327,,,,,,,,,,,,,48,29,Female,1.0,1.0,0.2,1.5,3.0,2.5,2.5555555555555554,3.111111111111111,2.125,2.111111111111111,0.75,2.0,2.5,1.75,0.8194444444444444,0.8333333333333334,0.517974177802292,0.25993184982643336,-0.6578298877677217,0.3098591738980234,,,,,,,,,,,,,,,,,,,7.076520200312818e-05,0.22628079165853732,-6.501374050784433e-05,-0.13252206466506125,,,,,,,,,,
18,240719_151316,FalseCHOICE,9.0,19,2.0,1472.0,,,,,,,,,,,19.0,19.0,,,B,,,,,,False,cue2.png,Easy,cue1.png,Hard,Right,Hard,Mid,0.0155462999828159,,,,,,,,,,,,,48,29,Female,1.0,1.0,0.2,1.5,3.0,2.5,2.5555555555555554,3.111111111111111,2.125,2.111111111111111,0.75,2.0,2.5,1.75,1.0,1.0,0.476262433337979,-0.3765672705542975,-0.7417862461355889,-0.30189408642300924,,,,,,,,,,,,,,,,,,,0.00019260851915578426,1.9961445231644899,-3.354034130215438e-05,-0.08537738528502192,,,,,,,,,,
19,240719_151334,FalseCHOICE,9.0,20,2.0,1472.0,,,,,,,,,,,20.0,20.0,,,B,,,,,,False,cue2.png,Easy,cue1.png,Hard,Right,Hard,Mid,0.0164568999316543,,,,,,,,,,,,,48,29,Female,1.0,1.0,0.2,1.5,3.0,2.5,2.5555555555555554,3.111111111111111,2.125,2.111111111111111,0.75,2.0,2.5,1.75,0.8194444444444444,0.8333333333333334,0.4911599222104996,-0.1492394835001332,-0.7109854970689817,-0.07746250044037413,,,,,,,,,,,,,,,,,,,-3.038679753114299e-05,-1.2430263441666873,-0.0009525271781241152,-1.4619474689071066,,,,,,,,,,
20,240719_151352,FalseCHOICE,9.0,21,2.0,1472.0,,,,,,,,,,,21.0,21.0,,,B,,,,,,False,cue2.png,Easy,cue1.png,Hard,Right,Hard,Mid,0.0167479999363422,,,,,,,,,,,,,48,29,Female,1.0,1.0,0.2,1.5,3.0,2.5,2.5555555555555554,3.111111111111111,2.125,2.111111111111111,0.75,2.0,2.5,1.75,0.8194444444444444,0.8333333333333334,0.4753188888878665,-0.3909652589446071,-0.7437693551716726,-0.31634413454301774,,,,,,,,,,,,,,,,,,,9.519796097543247e-05,0.5811845728115881,0.0006264651019884443,0.9032589170623494,1.8160000000000003,0.2845730612299009,,,,,,,,
21,240719_151410,FalseCHOICE,9.0,22,2.0,1472.0,,,,,,,,,,,22.0,22.0,,,B,,,,,,False,cue1.png,Hard,cue2.png,Easy,Right,Easy,Mid,0.0166046000085771,,,,,,,,,,,,,48,29,Female,1.0,1.0,0.2,1.5,3.0,2.5,2.5555555555555554,3.111111111111111,2.125,2.111111111111111,0.75,2.0,2.5,1.75,0.8194444444444444,0.8333333333333334,0.5059115777775232,0.075862964579046,-0.6813933724400412,0.13816236792587164,,,,,,,,,,,,,,,,,,,0.0001456648497659618,1.3142532235968813,0.0005498047173565362,0.7884276835180422,1.608,-0.10597626712598049,,,,,,,,
22,240719_151428,FalseCHOICE,9.0,23,2.0,1472.0,,,,,,,,,,,23.0,23.0,,,B,,,,,,False,cue2.png,Easy,cue1.png,Hard,Right,Hard,Mid,0.0166035000002011,,,,,,,,,,,,,48,29,Female,1.0,1.0,0.2,1.5,3.0,2.5,2.5555555555555554,3.111111111111111,2.125,2.111111111111111,0.75,2.0,2.5,1.75,1.0,1.0,0.5190272666772621,0.2760014281001166,-0.6557988602458571,0.3246583830640315,,,,,,,,,,,,,,,,,,,4.972667816083428e-05,-0.07931922960686802,0.0003886619740924224,0.5470485138911019,2.238,1.0769375639519283,,,,,,,,
23,240719_151445,FalseCHOICE,9.0,24,2.0,1472.0,,,,,,,,,,,24.0,24.0,,,B,,,,,,False,cue1.png,Hard,cue2.png,Easy,Right,Easy,Mid,0.0166554000461474,,,,,,,,,,,,,48,29,Female,1.0,1.0,0.2,1.5,3.0,2.5,2.5555555555555554,3.111111111111111,2.125,2.111111111111111,0.75,2.0,2.5,1.75,1.0,1.0,0.379334311104483,-1.8556390603846116,-0.9693373753632073,-1.9599596326295312,,,,,,,,,,,,,,,,,,,4.571267495321685e-05,-0.13762557632598954,-0.0007433410684157095,-1.148603110755363,1.4369999999999998,-0.42705287841855627,,,,,,,,
24,240719_151501,FalseCHOICE,9.0,25,2.0,1472.0,,,,,,,,,,,25.0,25.0,,,B,,,,,,False,cue1.png,Hard,cue2.png,Easy,Right,Easy,Mid,0.0157020000042393,,,,,,,,,,,,,48,29,Female,1.0,1.0,0.2,1.5,3.0,2.5,2.5555555555555554,3.111111111111111,2.125,2.111111111111111,0.75,2.0,2.5,1.75,0.5,0.6666666666666667,0.3759067333174041,-1.9079420813809835,-0.9784142160494097,-2.026098600435502,,,,,,,,,,,,,,,,,,,0.00013763071821536925,1.1975515580658436,0.0008003846605831024,1.16377675227542,1.834,0.3183705992606979,,,,,,,,
25,240719_151520,FalseCHOICE,9.0,26,2.0,1472.0,,,,,,,,,,,26.0,26.0,,,B,,,,,,False,cue2.png,Easy,cue1.png,Hard,Right,Hard,Mid,0.0164739999454468,,,,,,,,,,,,,48,29,Female,1.0,1.0,0.2,1.5,3.0,2.5,2.5555555555555554,3.111111111111111,2.125,2.111111111111111,0.75,2.0,2.5,1.75,1.0,1.0,0.5473638222449355,0.7084022524980251,-0.6026415747223139,0.7119922713010144,,,,,,,,,,,,,,,,,,,0.000170922793995817,1.6811434270933339,-0.0001507618429898057,-0.2609659855945802,2.475,1.5219384813574275,,,,,,,,
26,240719_151536,FalseCHOICE,9.0,27,2.0,1472.0,,,,,,,,,,,27.0,27.0,,,B,,,,,,False,cue2.png,Easy,cue1.png,Hard,Right,Hard,Mid,0.0159611999988555,,,,,,,,,,,,,48,29,Female,1.0,1.0,0.2,1.5,3.0,2.5,2.5555555555555554,3.111111111111111,2.125,2.111111111111111,0.75,2.0,2.5,1.75,0.8194444444444444,0.8333333333333334,0.3208615555583189,-2.7479023293834213,-1.1367455399804558,-3.179789702678859,,,,,,,,,,,,,,,,,,,5.1195540124464225e-05,-0.05798293003156892,4.434955971386288e-05,0.03129556720875482,,,,,,,,,,
27,240719_151554,FalseCHOICE,9.0,28,2.0,1472.0,,,,,,,,,,,28.0,28.0,,,B,,,,,,False,cue1.png,Hard,cue2.png,Easy,Right,Easy,Mid,0.0171035999665036,,,,,,,,,,,,,48,29,Female,1.0,1.0,0.2,1.5,3.0,2.5,2.5555555555555554,3.111111111111111,2.125,2.111111111111111,0.75,2.0,2.5,1.75,0.8194444444444444,0.8333333333333334,0.507835844428175,0.1052262541332804,-0.6775970245143419,0.16582469471097894,,,,,,,,,,,,,,,,,,,0.00012445258971851723,1.0061295562626449,-0.00011931523777351273,-0.21386144150565373,1.0330000000000001,-1.1856198431097862,,,,,,,,
28,240719_151612,FalseCHOICE,9.0,29,2.0,1472.0,,,,,,,,,,,29.0,29.0,,,B,,,,,,False,cue2.png,Easy,cue1.png,Hard,Right,Hard,Mid,0.0154664000729098,,,,,,,,,,,,,48,29,Female,1.0,1.0,0.2,1.5,3.0,2.5,2.5555555555555554,3.111111111111111,2.125,2.111111111111111,0.75,2.0,2.5,1.75,1.0,1.0,0.5168426888865523,0.24266592846931814,-0.66001672759047,0.2939246286488788,,,,,,,,,,,,,,,,,,,6.88815210986792e-05,0.19891894209285602,-0.0003954176486200313,-0.627441161647918,1.0959999999999999,-1.0673284600019957,,,,,,,,
29,240719_151630,FalseCHOICE,9.0,30,2.0,1472.0,,,,,,,,,,,30.0,30.0,,,B,,,,,,False,cue2.png,Easy,cue1.png,Hard,Right,Hard,Mid,0.0164480000967159,,,,,,,,,,,,,48,29,Female,1.0,1.0,0.2,1.5,3.0,2.5,2.5555555555555554,3.111111111111111,2.125,2.111111111111111,0.75,2.0,2.5,1.75,0.8194444444444444,0.8333333333333334,0.448272188879653,-0.8036835709096719,-0.8023546665962058,-0.7432296732635518,,,,,,,,,,,,,,,,,,,3.714959781983031e-05,-0.2620105652005183,-0.0011242433778745455,-1.7191648456729842,1.722,0.10807480706906947,,,,,,,,
30,240719_151647,FalseCHOICE,9.0,31,2.0,1472.0,,,,,,,,,,,31.0,31.0,,,B,,,,,,False,cue1.png,Hard,cue2.png,Easy,Right,Easy,Mid,0.0167434000177308,,,,,,,,,,,,,48,29,Female,1.0,1.0,0.2,1.5,3.0,2.5,2.5555555555555554,3.111111111111111,2.125,2.111111111111111,0.75,2.0,2.5,1.75,1.0,1.0,0.4947761666650573,-0.09405750911934556,-0.7036498072369621,-0.02401053731712128,,,,,,,,,,,,,,,,,,,0.0001465174291989703,1.3266375664724048,-0.00046014375995309924,-0.7243957913773484,,,,,,,,,,
31,240719_151706,FalseCHOICE,9.0,32,2.0,1472.0,,,,,,,,,,,32.0,32.0,,,B,,,,,,False,cue2.png,Easy,cue1.png,Hard,Right,Hard,Mid,0.0156340000685304,,,,,,,,,,,,,48,29,Female,1.0,1.0,0.2,1.5,3.0,2.5,2.5555555555555554,3.111111111111111,2.125,2.111111111111111,0.75,2.0,2.5,1.75,1.0,1.0,0.5413270666807269,0.6162845610440117,-0.6137316233243361,0.6311839380038625,,,,,,,,,,,,,,,,,,,4.28103558378903e-05,-0.1797838945621648,0.001493449846183899,2.2019339513462453,1.7359999999999998,0.1343617810930226,,,,,,,,
32,240719_151724,FalseCHOICE,9.0,33,2.0,1472.0,,,,,,,,,,,33.0,33.0,,,B,,,,,,False,cue1.png,Hard,cue2.png,Easy,Right,Easy,Mid,0.016650200006552,,,,,,,,,,,,,48,29,Female,1.0,1.0,0.2,1.5,3.0,2.5,2.5555555555555554,3.111111111111111,2.125,2.111111111111111,0.75,2.0,2.5,1.75,1.0,1.0,0.551005099964742,0.7639662212431275,-0.59601121403768,0.7603048094432314,,,,,,,,,,,,,,,,,,,3.7553656449266105e-05,-0.25614131664136713,0.0004577537303545173,0.6505425367480742,1.3050000000000002,-0.6749014906444032,,,,,,,,
33,240719_151748,FalseCHOICE,9.0,34,2.0,1472.0,,,,,,,,,,,35.0,34.0,,,B,,,,,,False,cue1.png,Hard,cue2.png,Easy,Right,Easy,Mid,0.0168421000707894,,,,,,,,,,,,,48,29,Female,1.0,1.0,0.2,1.5,3.0,2.5,2.5555555555555554,3.111111111111111,2.125,2.111111111111111,0.75,2.0,2.5,1.75,0.8194444444444444,0.8333333333333334,0.5004918666737568,-0.0068389553374504355,-0.6921639307609854,0.059682020559623364,,,,,,,,,,,,,,,,,,,1.4584987806687787e-05,-0.5897781097085302,-0.00037572922656363764,-0.5979494521798232,1.985,0.6018943905190539,,,,,,,,
34,240719_151805,FalseCHOICE,9.0,35,2.0,1472.0,,,,,,,,,,,36.0,35.0,,,B,,,,,,False,cue1.png,Hard,cue2.png,Easy,Right,Easy,Mid,0.0159415999660268,,,,,,,,,,,,,48,29,Female,1.0,1.0,0.2,1.5,3.0,2.5,2.5555555555555554,3.111111111111111,2.125,2.111111111111111,0.75,2.0,2.5,1.75,1.0,1.0,0.4233664110975547,-1.183732544029612,-0.8595172547991867,-1.1597484501778457,,,,,,,,,,,,,,,,,,,8.733335758134408e-05,0.46694542835004693,0.0011277015402656387,1.654071723195445,1.215,-0.8438891807983904,,,,,,,,
35,240719_151823,FalseCHOICE,9.0,36,2.0,1472.0,,,,,,,,,,,37.0,36.0,,,B,,,,,,False,cue2.png,Easy,cue1.png,Hard,Right,Hard,Mid,0.0164553000358864,,,,,,,,,,,,,48,29,Female,1.0,1.0,0.2,1.5,3.0,2.5,2.5555555555555554,3.111111111111111,2.125,2.111111111111111,0.75,2.0,2.5,1.75,0.8194444444444444,0.8333333333333334,0.4628931999905035,-0.5805746880123066,-0.7702589210711666,-0.5093620145289421,,,,,,,,,,,,,,,,,,,,,,,1.476,-0.35382487935182827,,,,,,,,
36,240719_151843,FalseCHOICE,9.0,37,2.0,1472.0,,,,,,,,,,,38.0,37.0,,,B,,,,,,False,cue1.png,Hard,cue2.png,Easy,Right,Easy,Mid,0.01656230003573,,,,,,,,,,,,,48,29,Female,1.0,1.0,0.2,1.5,3.0,2.5,2.5555555555555554,3.111111111111111,2.125,2.111111111111111,0.75,2.0,2.5,1.75,1.0,1.0,0.6438390000257641,2.1805623499643145,-0.44030658409297635,1.8948563415426594,,,,,,,,,,,,,,,,,,,-2.1463847243404117e-05,-1.113413933233115,,,1.476,-0.35382487935182827,,,,,,,,
37,240719_151901,FalseCHOICE,9.0,38,2.0,1472.0,,,,,,,,,,,39.0,38.0,,,B,,,,,,False,cue2.png,Easy,cue1.png,Hard,Right,Hard,Mid,0.0165762000251561,,,,,,,,,,,,,48,29,Female,1.0,1.0,0.2,1.5,3.0,2.5,2.5555555555555554,3.111111111111111,2.125,2.111111111111111,0.75,2.0,2.5,1.75,0.8194444444444444,0.8333333333333334,0.5557893000465507,0.8369705796775236,-0.5873660133046179,0.8232986057130405,,,,,,,,,,,,,,,,,,,3.217503876399089e-05,-0.3342696915843961,0.00010462831116025452,0.12158840122381902,1.391,-0.5134243644972604,,,,,,,,
38,240719_151920,FalseCHOICE,9.0,39,2.0,1472.0,,,,,,,,,,,40.0,39.0,,,B,,,,,,False,cue2.png,Easy,cue1.png,Hard,Right,Hard,Mid,0.0164621999720111,,,,,,,,,,,,,48,29,Female,1.0,1.0,0.2,1.5,3.0,2.5,2.5555555555555554,3.111111111111111,2.125,2.111111111111111,0.75,2.0,2.5,1.75,0.8194444444444444,0.8333333333333334,0.5559800333446927,0.8398810687508965,-0.5870228966269317,0.8257987468616752,,,,,,,,,,,,,,,,,,,,,0.00022255556763335974,0.2982341667561009,2.557,1.6759050434977265,,,,,,,,
39,240719_151938,FalseCHOICE,9.0,40,2.0,1472.0,,,,,,,,,,,41.0,40.0,,,B,,,,,,False,cue1.png,Hard,cue2.png,Easy,Right,Easy,Mid,0.0163436000002548,,,,,,,,,,,,,48,29,Female,1.0,1.0,0.2,1.5,3.0,2.5,2.5555555555555554,3.111111111111111,2.125,2.111111111111111,0.75,2.0,2.5,1.75,0.8194444444444444,0.8333333333333334,0.5677752889071902,1.0198704191512102,-0.5660295566596246,0.9787680325678941,,,,,,,,,,,,,,,,,,,0.00020472092212168828,2.172086078365914,0.00042469585400528066,0.6010244350875459,2.485,1.5407148913745368,,,,,,,,
40,240719_151956,FalseCHOICE,9.0,41,2.0,1472.0,,,,,,,,,,,42.0,41.0,,,B,,,,,,False,cue1.png,Hard,cue2.png,Easy,Right,Easy,Mid,0.0160917000612244,,,,,,,,,,,,,48,29,Female,1.0,1.0,0.2,1.5,3.0,2.5,2.5555555555555554,3.111111111111111,2.125,2.111111111111111,0.75,2.0,2.5,1.75,0.8194444444444444,0.8333333333333334,0.4752220000243849,-0.39244373166668367,-0.7439732156577333,-0.3178295767349219,,,,,,,,,,,,,,,,,,,7.00190646262277e-05,0.2154425978785484,,,0.8730000000000002,-1.4860424033835407,,,,,,,,
41,240719_152014,FalseCHOICE,9.0,42,2.0,1472.0,,,,,,,,,,,43.0,42.0,,,B,,,,,,False,cue2.png,Easy,cue1.png,Hard,Right,Hard,Mid,0.0166025999933481,,,,,,,,,,,,,48,29,Female,1.0,1.0,0.2,1.5,3.0,2.5,2.5555555555555554,3.111111111111111,2.125,2.111111111111111,0.75,2.0,2.5,1.75,0.8194444444444444,0.8333333333333334,0.4698441888645498,-0.47450628063864725,-0.7553541522947822,-0.4007574839068275,,,,,,,,,,,,,,,,,,,-6.082799695195486e-05,-1.6852071387927345,,,,,,,,,,,,
42,240719_152031,FalseCHOICE,9.0,43,2.0,1472.0,,,,,,,,,,,44.0,43.0,,,B,,,,,,False,cue1.png,Hard,cue2.png,Easy,Right,Easy,Mid,0.0168124999618157,,,,,,,,,,,,,48,29,Female,1.0,1.0,0.2,1.5,3.0,2.5,2.5555555555555554,3.111111111111111,2.125,2.111111111111111,0.75,2.0,2.5,1.75,0.8194444444444444,0.8333333333333334,0.4299198444285947,-1.0837306236052695,-0.8441564959763103,-1.0478213195402182,,,,,,,,,,,,,,,,,,,-1.380398204899871e-05,-1.002148761596187,-0.0003022830717044952,-0.4879328823170738,,,,,,,,,,
43,240719_152050,FalseCHOICE,9.0,44,2.0,1472.0,,,,,,,,,,,45.0,44.0,,,B,,,,,,False,cue2.png,Easy,cue1.png,Hard,Right,Hard,Mid,0.0169644999550655,,,,,,,,,,,,,48,29,Female,1.0,1.0,0.2,1.5,3.0,2.5,2.5555555555555554,3.111111111111111,2.125,2.111111111111111,0.75,2.0,2.5,1.75,0.8194444444444444,0.8333333333333334,0.5006248333180944,-0.004809954794611335,-0.6918982941071955,0.06161759866443689,,,,,,,,,,,,,,,,,,,0.00010646503561672228,0.7448471128161843,-0.0015263966010916922,-2.3215587798748603,1.4900000000000002,-0.3275379053278743,,,,,,,,
44,240719_152107,FalseCHOICE,9.0,45,2.0,1472.0,,,,,,,,,,,46.0,45.0,,,B,,,,,,False,cue1.png,Hard,cue2.png,Easy,Right,Easy,Mid,0.0165513000683859,,,,,,,,,,,,,48,29,Female,1.0,1.0,0.2,1.5,3.0,2.5,2.5555555555555554,3.111111111111111,2.125,2.111111111111111,0.75,2.0,2.5,1.75,0.8194444444444444,0.8333333333333334,0.3976360444341683,-1.5763643065858621,-0.9222181532931218,-1.6166224716861866,,,,,,,,,,,,,,,,,,,,,0.00037303056234135566,0.5236338871313653,1.8430000000000002,0.3352693682760968,,,,,,,,
45,240719_152125,FalseCHOICE,9.0,46,2.0,1472.0,,,,,,,,,,,47.0,46.0,,,B,,,,,,False,cue1.png,Hard,cue2.png,Easy,Right,Easy,Mid,0.0148245000746101,,,,,,,,,,,,,48,29,Female,1.0,1.0,0.2,1.5,3.0,2.5,2.5555555555555554,3.111111111111111,2.125,2.111111111111111,0.75,2.0,2.5,1.75,0.8194444444444444,0.8333333333333334,0.5555928111231575,0.8339722628123223,-0.5877196071288583,0.8207221221802432,,,,,,,,,,,,,,,,,,,,,,,1.3379999999999996,-0.6129393375879423,,,,,,,,
46,240719_152144,FalseCHOICE,9.0,47,2.0,1472.0,,,,,,,,,,,48.0,47.0,,,B,,,,,,False,cue2.png,Easy,cue1.png,Hard,Right,Hard,Mid,0.0162109999218955,,,,,,,,,,,,,48,29,Female,1.0,1.0,0.2,1.5,3.0,2.5,2.5555555555555554,3.111111111111111,2.125,2.111111111111111,0.75,2.0,2.5,1.75,0.8194444444444444,0.8333333333333334,0.5040082333402501,0.0468189369157501,-0.6851626750516395,0.11069710851480583,,,,,,,,,,,,,,,,,,,-3.849284752003874e-05,-1.360772677871195,,,2.745,2.0289015518193882,,,,,,,,
47,240719_152203,FalseCHOICE,9.0,48,2.0,1472.0,,,,,,,,,,,49.0,48.0,,,B,,,,,,False,cue2.png,Easy,cue1.png,Hard,Right,Hard,Mid,0.0155515000224113,,,,,,,,,,,,,48,29,Female,1.0,1.0,0.2,1.5,3.0,2.5,2.5555555555555554,3.111111111111111,2.125,2.111111111111111,0.75,2.0,2.5,1.75,0.8194444444444444,0.8333333333333334,0.5681219444506698,1.0251601990761094,-0.5654191923695085,0.9832154901723077,,,,,,,,,,,,,,,,,,,,,-0.0004237792731207387,-0.6699246469888084,1.896,0.4347843413667775,,,,,,,,
48,240719_152223,FalseCHOICE,9.0,49,2.0,1472.0,,,,,,,,,,,50.0,49.0,,,B,,,,,,False,cue1.png,Hard,cue2.png,Easy,Right,Easy,Mid,0.0170033000176772,,,,,,,,,,,,,48,29,Female,1.0,1.0,0.2,1.5,3.0,2.5,2.5555555555555554,3.111111111111111,2.125,2.111111111111111,0.75,2.0,2.5,1.75,0.5,0.6666666666666667,0.5881328999918575,1.3305167782247262,-0.5308023362279559,1.2354533792178155,,,,,,,,,,,,,,,,,,,-2.5436633883552193e-05,-1.1711215790172498,,,1.7559999999999998,0.17191460112724197,,,,,,,,
49,240719_152242,FalseCHOICE,9.0,50,2.0,1472.0,,,,,,,,,,,51.0,50.0,,,B,,,,,,False,cue2.png,Easy,cue1.png,Hard,Left,Easy,Mid,0.0168456999817863,,,,,,,,,,,,,48,29,Female,1.0,1.0,0.2,1.5,3.0,2.5,2.5555555555555554,3.111111111111111,2.125,2.111111111111111,0.75,2.0,2.5,1.75,0.8194444444444444,0.8333333333333334,0.592429155548517,1.396075361733125,-0.523523981816243,1.2884875642122122,,,,,,,,,,,,,,,,,,,7.498762480795743e-05,0.28761458620705527,-0.00040702879724116136,-0.6448337500810797,2.0250000000000004,0.677000030587493,,,,,,,,
0,240719_144445,OFFLINERATING,9.0,1,1.0,,,,,,,,,,,,,,,,,T0,cue2.png,Easy,28.0,0.8682278000051156,,,,,,,,,,,,,,,,,,,,,,48,29,Female,1.0,1.0,0.2,1.5,3.0,2.5,2.5555555555555554,3.111111111111111,2.125,2.111111111111111,0.75,2.0,2.5,1.75,,,,,,,,,,,,,,,,,,,,,,,,,,,,,,,1.5449078715223483,,,,,1.584,-0.36854809733216876,
1,240719_144452,OFFLINERATING,9.0,2,3.0,,,,,,,,,,,,,,,,,T0,cue1.png,Hard,21.0,0.935016299947165,,,,,,,,,,,,,,,,,,,,,,48,29,Female,1.0,1.0,0.2,1.5,3.0,2.5,2.5555555555555554,3.111111111111111,2.125,2.111111111111111,0.75,2.0,2.5,1.75,,,,,,,,,,,,,,,,,,,,,,,,,,,,,,,0.9441103659303239,,,0.00011404780303849501,1.316596946512607,,,
2,240719_150245,OFFLINERATING,9.0,3,1.0,,,,,,,,,,,,,,,,,T1,cue2.png,Easy,0.0,1.9301888999762011,,,,,,,,,,,,,,,,,,,,,,48,29,Female,1.0,1.0,0.2,1.5,3.0,2.5,2.5555555555555554,3.111111111111111,2.125,2.111111111111111,0.75,2.0,2.5,1.75,,,,,,,,,,,,,,,,,,,,,,,,,,,,,,,-0.858282150845749,-9.990582369912579e-05,1.027632059972369,,,,,
3,240719_150253,OFFLINERATING,9.0,4,3.0,,,,,,,,,,,,,,,,,T1,cue1.png,Hard,0.0,1.3282851000549272,,,,,,,,,,,,,,,,,,,,,,48,29,Female,1.0,1.0,0.2,1.5,3.0,2.5,2.5555555555555554,3.111111111111111,2.125,2.111111111111111,0.75,2.0,2.5,1.75,,,,,,,,,,,,,,,,,,,,,,,,,,,,,,,-0.858282150845749,,,-0.0008949150492541221,-1.1054330842240296,1.4609999999999999,-0.9981510969412929,
4,240719_150645,OFFLINERATING,9.0,5,1.0,,,,,,,,,,,,,,,,,T2,cue2.png,Easy,25.0,1.2187385000288486,,,,,,,,,,,,,,,,,,,,,,48,29,Female,1.0,1.0,0.2,1.5,3.0,2.5,2.5555555555555554,3.111111111111111,2.125,2.111111111111111,0.75,2.0,2.5,1.75,,,,,,,,,,,,,,,,,,,,,,,,,,,,,,,1.2874232262686236,-0.00016784414019111642,-1.355231065499402,,,1.923,1.3666991942734628,
5,240719_150652,OFFLINERATING,9.0,6,3.0,,,,,,,,,,,,,,,,,T2,cue1.png,Hard,6.0,1.2184813999338076,,,,,,,,,,,,,,,,,,,,,,48,29,Female,1.0,1.0,0.2,1.5,3.0,2.5,2.5555555555555554,3.111111111111111,2.125,2.111111111111111,0.75,2.0,2.5,1.75,,,,,,,,,,,,,,,,,,,,,,,,,,,,,,,-0.3433128603382996,-0.00011986461474313348,0.327599005527033,,,,,
6,240719_152302,OFFLINERATING,9.0,7,1.0,,,,,,,,,,,,,,,,,T3,cue2.png,Easy,0.0,1.227960200048983,,,,,,,,,,,,,,,,,,,,,,48,29,Female,1.0,1.0,0.2,1.5,3.0,2.5,2.5555555555555554,3.111111111111111,2.125,2.111111111111111,0.75,2.0,2.5,1.75,,,,,,,,,,,,,,,,,,,,,,,,,,,,,,,-0.858282150845749,,,-0.000522382746420919,-0.2111638622885778,,,
7,240719_152309,OFFLINERATING,9.0,8,3.0,,,,,,,,,,,,,,,,,T3,cue1.png,Hard,0.0,1.418460600078106,,,,,,,,,,,,,,,,,,,,,,48,29,Female,1.0,1.0,0.2,1.5,3.0,2.5,2.5555555555555554,3.111111111111111,2.125,2.111111111111111,0.75,2.0,2.5,1.75,,,,,,,,,,,,,,,,,,,,,,,,,,,,,,,-0.858282150845749,,,,,,,
0,240719_150711,LEARNINGCHECK,9.0,1,,,,,,,,,,,,1.0,1.0,1.0,,,B,,,,,,,,,,,,,,,cue2.png,Easy,Left,Left,Easy,0.0155967000173404,1.0,,,,,,48,29,Female,1.0,1.0,0.2,1.5,3.0,2.5,2.5555555555555554,3.111111111111111,2.125,2.111111111111111,0.75,2.0,2.5,1.75,,,,,,,,,,,,,,,,,,,,,,,,,,,,,,,,,,,,,,
1,240719_152320,LEARNINGCHECK,9.0,1,,,,,,,,,,,,1.0,1.0,1.0,,,B,,,,,,,,,,,,,,,cue2.png,Easy,Middle,Middle,Mid,0.0149706999072805,1.0,,,,,,48,29,Female,1.0,1.0,0.2,1.5,3.0,2.5,2.5555555555555554,3.111111111111111,2.125,2.111111111111111,0.75,2.0,2.5,1.75,,,,,,,,,,,,,,,,,,,,,,,,,,,,,,,,,,,,,,
2,240719_150716,LEARNINGCHECK,9.0,2,,,,,,,,,,,,2.0,2.0,2.0,,,B,,,,,,,,,,,,,,,cue1.png,Hard,Right,Right,Hard,0.0134196999715641,1.0,,,,,,48,29,Female,1.0,1.0,0.2,1.5,3.0,2.5,2.5555555555555554,3.111111111111111,2.125,2.111111111111111,0.75,2.0,2.5,1.75,,,,,,,,,,,,,,,,,,,,,,,,,,,,,,,,,,,,,,
3,240719_152325,LEARNINGCHECK,9.0,2,,,,,,,,,,,,2.0,2.0,2.0,,,B,,,,,,,,,,,,,,,cue1.png,Hard,Middle,Middle,Mid,0.0138473999686539,1.0,,,,,,48,29,Female,1.0,1.0,0.2,1.5,3.0,2.5,2.5555555555555554,3.111111111111111,2.125,2.111111111111111,0.75,2.0,2.5,1.75,,,,,,,,,,,,,,,,,,,,,,,,,,,,,,,,,,,,,,
0,240719_152338,DEMANDRATING,9.0,-1,,,,,,,,,,,,,,,,,,,,,,,,,,,,,,,,,,,,,,,1.0,MentalDemand,1.0,100.0,2.6651379000395536,48,29,Female,1.0,1.0,0.2,1.5,3.0,2.5,2.5555555555555554,3.111111111111111,2.125,2.111111111111111,0.75,2.0,2.5,1.75,,,,,,,,,,,,,,,,,,,,,,,,,,,,,,,,,,,,,,0.7622983969978973
1,240719_152343,DEMANDRATING,9.0,-1,,,,,,,,,,,,,,,,,,,,,,,,,,,,,,,,,,,,,,,2.0,Effort,1.0,100.0,3.43413910001982,48,29,Female,1.0,1.0,0.2,1.5,3.0,2.5,2.5555555555555554,3.111111111111111,2.125,2.111111111111111,0.75,2.0,2.5,1.75,,,,,,,,,,,,,,,,,,,,,,,,,,,,,,,,,,,,,,0.7622983969978973
2,240719_152349,DEMANDRATING,9.0,-1,,,,,,,,,,,,,,,,,,,,,,,,,,,,,,,,,,,,,,,3.0,Frustration,1.0,0.0,3.986495499964804,48,29,Female,1.0,1.0,0.2,1.5,3.0,2.5,2.5555555555555554,3.111111111111111,2.125,2.111111111111111,0.75,2.0,2.5,1.75,,,,,,,,,,,,,,,,,,,,,,,,,,,,,,,,,,,,,,-2.1447717610449306
3,240719_152352,DEMANDRATING,9.0,-1,,,,,,,,,,,,,,,,,,,,,,,,,,,,,,,,,,,,,,,4.0,MentalDemand,2.0,69.0,2.01700799993705,48,29,Female,1.0,1.0,0.2,1.5,3.0,2.5,2.5555555555555554,3.111111111111111,2.125,2.111111111111111,0.75,2.0,2.5,1.75,,,,,,,,,,,,,,,,,,,,,,,,,,,,,,,,,,,,,,-0.13889335199537936
4,240719_152356,DEMANDRATING,9.0,-1,,,,,,,,,,,,,,,,,,,,,,,,,,,,,,,,,,,,,,,5.0,Effort,2.0,61.0,2.4192395999561995,48,29,Female,1.0,1.0,0.2,1.5,3.0,2.5,2.5555555555555554,3.111111111111111,2.125,2.111111111111111,0.75,2.0,2.5,1.75,,,,,,,,,,,,,,,,,,,,,,,,,,,,,,,,,,,,,,-0.37145896463880557
5,240719_152400,DEMANDRATING,9.0,-1,,,,,,,,,,,,,,,,,,,,,,,,,,,,,,,,,,,,,,,6.0,Frustration,2.0,34.0,2.640111699933186,48,29,Female,1.0,1.0,0.2,1.5,3.0,2.5,2.5555555555555554,3.111111111111111,2.125,2.111111111111111,0.75,2.0,2.5,1.75,,,,,,,,,,,,,,,,,,,,,,,,,,,,,,,,,,,,,,-1.156367907310369
6,240719_152405,DEMANDRATING,9.0,-1,,,,,,,,,,,,,,,,,,,,,,,,,,,,,,,,,,,,,,,7.0,MentalDemand,3.0,100.0,2.968929299968295,48,29,Female,1.0,1.0,0.2,1.5,3.0,2.5,2.5555555555555554,3.111111111111111,2.125,2.111111111111111,0.75,2.0,2.5,1.75,,,,,,,,,,,,,,,,,,,,,,,,,,,,,,,,,,,,,,0.7622983969978973
7,240719_152409,DEMANDRATING,9.0,-1,,,,,,,,,,,,,,,,,,,,,,,,,,,,,,,,,,,,,,,8.0,Effort,3.0,100.0,2.3121857999358326,48,29,Female,1.0,1.0,0.2,1.5,3.0,2.5,2.5555555555555554,3.111111111111111,2.125,2.111111111111111,0.75,2.0,2.5,1.75,,,,,,,,,,,,,,,,,,,,,,,,,,,,,,,,,,,,,,0.7622983969978973
8,240719_152413,DEMANDRATING,9.0,-1,,,,,,,,,,,,,,,,,,,,,,,,,,,,,,,,,,,,,,,9.0,Frustration,3.0,100.0,2.775583599926904,48,29,Female,1.0,1.0,0.2,1.5,3.0,2.5,2.5555555555555554,3.111111111111111,2.125,2.111111111111111,0.75,2.0,2.5,1.75,,,,,,,,,,,,,,,,,,,,,,,,,,,,,,,,,,,,,,0.7622983969978973
