,END,Phase,Block,TrialN,NbackLevel,ISI,Letter_Resp,Letter_RT,Letter_Accuracy,Trial_A_measure,Trial_ACC,Trial_RT,TrialCountCali,CaliEnd_A_measure,ISI_calibrated,TrialIndex,TrialNumber_total,TrialNumber_valid,CueLearning,TrialDemandLearning,CueMapping,OfflineRatingTimePoint,CueFigure,TrialDemand,OfflineRating,OfflineRatingRT,PhaseType,CueLeft,CueDemandLeft,CueRight,CueDemandRight,Choice,ChoiceDemand,TaskDemand,ChoiceRT,CueCheck,CueDemandCheck,CorrectAnswer,Answer,AnswerDemand,AnswerRT,AnswerACC,DemandRatingQuesIndex,QuesTLX,DemandLevel,DemandRating,DemandRatingRT,PID,Age,Gender,BAI_bis,BAI_bas_d,BAI_bas_rr,BAI_bas_fs,NFC,BFI_ext,BFI_agr,BFI_con,BFI_neu,BFI_open,UPPS_lps,UPPS_lpm,UPPS_pu,UPPS_ss,Task_A_measure,Task_ACC,Task_RT,Task_RT_z,cue_i_on_zyg_values,cue_i_on_zyg_zvalues,cue_e_on_zyg_values,cue_e_on_zyg_zvalues,cue_i_on_cor_values,cue_i_on_cor_zvalues,cue_e_on_cor_values,cue_e_on_cor_zvalues,cue_i_on_scr_values,cue_i_on_scr_zvalues,cue_e_on_scr_values,cue_e_on_scr_zvalues,cue_e_true_zyg_values,cue_e_true_zyg_zvalues,cue_e_true_cor_values,cue_e_true_cor_zvalues,cue_e_true_scr_values,cue_e_true_scr_zvalues,cue_e_false_zyg_values,cue_e_false_zyg_zvalues,cue_e_false_cor_values,cue_e_false_cor_zvalues,cue_e_false_scr_values,cue_e_false_scr_zvalues,OfflineRating_z,cue_i_off_zyg_values,cue_i_off_zyg_zvalues,cue_i_off_cor_values,cue_i_off_cor_zvalues,cue_i_off_scr_values,cue_i_off_scr_zvalues,DemandRating_z
0,240722_143902,PRACTICE,0.0,1,1.0,1472.0,,,,,,,,,,13.0,1.0,1.0,cue1.png,Easy,A,,,,,,,,,,,,,,,,,,,,,,,,,,,49,28,Female,0.14285714285714285,0.25,0.0,0.25,3.111111111111111,3.75,3.5555555555555554,3.2222222222222223,1.625,3.7777777777777777,2.0,2.25,3.0,2.5,,,,,,,,,,,,,,,,,,,,,,,,,,,,,,,,,,,,
0,240722_144217,LEARNING,1.0,1,1.0,1472.0,,,,,,,,,,1.0,1.0,1.0,cue1.png,Easy,A,,,,,,,,,,,,,,,,,,,,,,,,,,,49,28,Female,0.14285714285714285,0.25,0.0,0.25,3.111111111111111,3.75,3.5555555555555554,3.2222222222222223,1.625,3.7777777777777777,2.0,2.25,3.0,2.5,1.0,1.0,0.4595109000025938,1.8859333482280314,,,,,,,,,6.662989774212844e+45,5.326099908278024,,,,,,,,,,,,,,,,,,,,,,
1,240722_144236,LEARNING,1.0,2,3.0,1472.0,,,,,,,,,,2.0,2.0,2.0,cue2.png,Hard,A,,,,,,,,,,,,,,,,,,,,,,,,,,,49,28,Female,0.14285714285714285,0.25,0.0,0.25,3.111111111111111,3.75,3.5555555555555554,3.2222222222222223,1.625,3.7777777777777777,2.0,2.25,3.0,2.5,0.5,0.6666666666666667,0.3950490777561855,0.16747267884445516,0.01513773710964813,2.9487559221075745,0.010396126964041612,-0.008462058043683544,,,0.02210466323056498,-1.739833072070118,8.38976046638091e+44,0.5397890326954334,1.2019511041347826e+44,-0.19345931374697978,,,,,,,,,,,,,,,,,,,,
2,240722_144256,LEARNING,1.0,3,1.0,1472.0,,,,,,,,,,3.0,3.0,3.0,cue1.png,Easy,A,,,,,,,,,,,,,,,,,,,,,,,,,,,49,28,Female,0.14285714285714285,0.25,0.0,0.25,3.111111111111111,3.75,3.5555555555555554,3.2222222222222223,1.625,3.7777777777777777,2.0,2.25,3.0,2.5,0.8194444444444444,0.8333333333333334,0.4069337000061447,0.4842998363046807,0.00673716935123612,-0.2826848813639033,,,,,0.04501734612460185,1.7141381781991039,-1.0238625397751929e+45,-0.9911353439745488,-4.609400892267573e+44,-0.19580816947014595,,,,,,,,,,,,,,,,,,,,
3,240722_144316,LEARNING,1.0,4,3.0,1472.0,,,,,,,,,,4.0,4.0,4.0,cue2.png,Hard,A,,,,,,,,,,,,,,,,,,,,,,,,,,,49,28,Female,0.14285714285714285,0.25,0.0,0.25,3.111111111111111,3.75,3.5555555555555554,3.2222222222222223,1.625,3.7777777777777777,2.0,2.25,3.0,2.5,0.8194444444444444,0.8333333333333334,0.5173647000143925,3.4282335257598344,0.007760557619378081,0.11098120199771473,0.009149598011748635,-0.10294263429448705,0.03148869452302877,-0.30521782892225385,0.0346046584953505,0.14447809623514352,-1.2500019520826526e+45,-1.1769820090331102,-4.466730450143476e+44,-0.19575050435457267,,,,,,,,,,,,,,,,,,,,
4,240722_144336,LEARNING,1.0,5,3.0,1472.0,,,,,,,,,,5.0,5.0,5.0,cue2.png,Hard,A,,,,,,,,,,,,,,,,,,,,,,,,,,,49,28,Female,0.14285714285714285,0.25,0.0,0.25,3.111111111111111,3.75,3.5555555555555554,3.2222222222222223,1.625,3.7777777777777777,2.0,2.25,3.0,2.5,0.5,0.6666666666666667,0.4259790777901394,0.9920225707045782,0.008053765380109615,0.2237692359938224,0.018885962929895313,0.6350244753843243,0.02754631900442474,-0.5781745528890254,0.031100903920461585,-0.383695213963076,,,1.477146392236295e+48,5.776444829958867,,,,,,,,,,,,,,,,,,,,
5,240722_144356,LEARNING,1.0,6,1.0,1472.0,,,,,,,,,,6.0,6.0,6.0,cue1.png,Easy,A,,,,,,,,,,,,,,,,,,,,,,,,,,,49,28,Female,0.14285714285714285,0.25,0.0,0.25,3.111111111111111,3.75,3.5555555555555554,3.2222222222222223,1.625,3.7777777777777777,2.0,2.25,3.0,2.5,1.0,1.0,0.4258069111060144,0.9874328513181782,0.014519285243257823,2.710856454653662,0.013489527669930099,0.22600203581419728,0.03613009652257139,0.01613712025229311,,,-1.908539419978501e+44,-0.3065493698518901,,,,,,,,,,,,,,,,,,,,,,
6,240722_144416,LEARNING,1.0,7,3.0,1472.0,,,,,,,,,,7.0,7.0,7.0,cue2.png,Hard,A,,,,,,,,,,,,,,,,,,,,,,,,,,,49,28,Female,0.14285714285714285,0.25,0.0,0.25,3.111111111111111,3.75,3.5555555555555554,3.2222222222222223,1.625,3.7777777777777777,2.0,2.25,3.0,2.5,0.8194444444444444,0.8333333333333334,0.4441405444328363,1.4761814889010827,,,0.005321844001048292,-0.39306698641005094,0.029415928862293696,-0.4487291006504743,0.037156537872325285,0.5291610267757549,,,2.9196218085162477e+43,-0.19382711674562703,,,,,,,,,,,,,,,,,,,,
7,240722_144435,LEARNING,1.0,8,3.0,1472.0,,,,,,,,,,8.0,8.0,8.0,cue2.png,Hard,A,,,,,,,,,,,,,,,,,,,,,,,,,,,49,28,Female,0.14285714285714285,0.25,0.0,0.25,3.111111111111111,3.75,3.5555555555555554,3.2222222222222223,1.625,3.7777777777777777,2.0,2.25,3.0,2.5,0.8194444444444444,0.8333333333333334,0.3660044777724478,-0.606815124240618,,,0.011966607713634727,0.11057242241455843,0.03413175884478406,-0.12222101010189983,0.02629610914765057,-1.1079937644855977,,,1.428875628121566e+44,-0.19336759447627938,,,,,,,,,,,,,,,,,,,,
8,240722_144455,LEARNING,1.0,9,1.0,1472.0,,,,,,,,,,9.0,9.0,9.0,cue1.png,Easy,A,,,,,,,,,,,,,,,,,,,,,,,,,,,49,28,Female,0.14285714285714285,0.25,0.0,0.25,3.111111111111111,3.75,3.5555555555555554,3.2222222222222223,1.625,3.7777777777777777,2.0,2.25,3.0,2.5,1.0,1.0,0.4198513333426995,0.8286656028437169,,,0.007261993948345925,-0.24601345452340204,0.02663677915776272,-0.6411480103109644,0.024490931997687322,-1.3801151047254474,,,2.0265901797455554e+47,0.6251702814699397,,,,,,,,,,,,,,,,,,,,
9,240722_144514,LEARNING,1.0,10,1.0,1472.0,,,,,,,,,,10.0,10.0,10.0,cue1.png,Easy,A,,,,,,,,,,,,,,,,,,,,,,,,,,,49,28,Female,0.14285714285714285,0.25,0.0,0.25,3.111111111111111,3.75,3.5555555555555554,3.2222222222222223,1.625,3.7777777777777777,2.0,2.25,3.0,2.5,0.8194444444444444,0.8333333333333334,0.3566552222473547,-0.8560530040894898,0.005338172773661096,-0.8208359628983573,0.005501901728590761,-0.37941952332840384,0.025173059856493332,-0.7424909755855904,,,5.201641570582022e+44,0.27778195549084567,2.0558038886121668e+44,-0.19311420007966057,,,,,,,,,,,,,,,,,,,,
10,240722_144534,LEARNING,1.0,11,3.0,1472.0,,,,,,,,,,11.0,11.0,11.0,cue2.png,Hard,A,,,,,,,,,,,,,,,,,,,,,,,,,,,49,28,Female,0.14285714285714285,0.25,0.0,0.25,3.111111111111111,3.75,3.5555555555555554,3.2222222222222223,1.625,3.7777777777777777,2.0,2.25,3.0,2.5,0.8194444444444444,0.8333333333333334,0.4327901777837218,1.1735968273160142,0.007603251416340754,0.05047032966709498,,,0.034609122349712446,-0.08916997834917471,0.03409195083718202,0.06719000564808852,4.702360537743019e+44,0.23674987093144756,,,,,,,,,,,,,,,,,,,,,,
11,240722_144553,LEARNING,1.0,12,1.0,1472.0,,,,,,,,,,12.0,12.0,12.0,cue1.png,Easy,A,,,,,,,,,,,,,,,,,,,,,,,,,,,49,28,Female,0.14285714285714285,0.25,0.0,0.25,3.111111111111111,3.75,3.5555555555555554,3.2222222222222223,1.625,3.7777777777777777,2.0,2.25,3.0,2.5,1.0,1.0,0.4175175555541904,0.7664504000946621,0.004856829074535085,-1.0059941229872558,0.005599198443842072,-0.3720449254842507,0.03058033722973101,-0.368109410355794,0.027701154379999027,-0.8961902903877468,1.1452030197994298e+44,-0.055585664503212735,9.495014453741693e+43,-0.19356134986975432,,,,,,,,,,,,,,,,,,,,
12,240722_144613,LEARNING,1.0,13,1.0,1472.0,,,,,,,,,,13.0,13.0,13.0,cue1.png,Easy,A,,,,,,,,,,,,,,,,,,,,,,,,,,,49,28,Female,0.14285714285714285,0.25,0.0,0.25,3.111111111111111,3.75,3.5555555555555554,3.2222222222222223,1.625,3.7777777777777777,2.0,2.25,3.0,2.5,1.0,1.0,0.4049175777601906,0.43055287936794223,0.005202478610110833,-0.873033346396653,0.05885727192407328,3.66464709291118,0.028235085945678893,-0.5304866634492295,,,-1.4020712864151997e+44,-0.2649266325232901,,,,,,,,,,,,,,,,,,,,,,
13,240722_144633,LEARNING,1.0,14,1.0,1472.0,,,,,,,,,,14.0,14.0,14.0,cue1.png,Easy,A,,,,,,,,,,,,,,,,,,,,,,,,,,,49,28,Female,0.14285714285714285,0.25,0.0,0.25,3.111111111111111,3.75,3.5555555555555554,3.2222222222222223,1.625,3.7777777777777777,2.0,2.25,3.0,2.5,1.0,1.0,0.4356668555539929,1.25028497286369,,,0.007575472948168623,-0.22225333528085042,0.03315457357968136,-0.18987800711102337,0.03760805808651663,0.597225419145021,,,,,,,,,,,,,,,,,,,,,,,,
14,240722_144652,LEARNING,1.0,15,3.0,1472.0,,,,,,,,,,15.0,15.0,15.0,cue2.png,Hard,A,,,,,,,,,,,,,,,,,,,,,,,,,,,49,28,Female,0.14285714285714285,0.25,0.0,0.25,3.111111111111111,3.75,3.5555555555555554,3.2222222222222223,1.625,3.7777777777777777,2.0,2.25,3.0,2.5,1.0,1.0,0.4291727444312225,1.0771611895423272,0.006197894173815479,-0.4901275046165247,0.007517761312618439,-0.22662758473019348,,,,,,,,,,,,,,,,,,,,,,,,,,,,
15,240722_144712,LEARNING,1.0,16,1.0,1472.0,,,,,,,,,,16.0,16.0,16.0,cue1.png,Easy,A,,,,,,,,,,,,,,,,,,,,,,,,,,,49,28,Female,0.14285714285714285,0.25,0.0,0.25,3.111111111111111,3.75,3.5555555555555554,3.2222222222222223,1.625,3.7777777777777777,2.0,2.25,3.0,2.5,1.0,1.0,0.4030160221866228,0.37986010727514785,0.00878783426304663,0.5061430241828487,,,0.029809516109729046,-0.4214784531289278,,,,,,,,,,,,,,,,,,,,,,,,,,
16,240722_144732,LEARNING,1.0,17,1.0,1472.0,,,,,,,,,,17.0,17.0,17.0,cue1.png,Easy,A,,,,,,,,,,,,,,,,,,,,,,,,,,,49,28,Female,0.14285714285714285,0.25,0.0,0.25,3.111111111111111,3.75,3.5555555555555554,3.2222222222222223,1.625,3.7777777777777777,2.0,2.25,3.0,2.5,1.0,1.0,0.4053404888836667,0.44182708954401234,0.0057570163075128114,-0.6597196997501539,0.005492827444071367,-0.38010730809977156,0.10506381939319055,4.788874541333917,0.03604797455410301,0.3620507041675156,,,,,,,,,,,,,,,,,,,,,,,,
17,240722_144751,LEARNING,1.0,18,3.0,1472.0,,,,,,,,,,18.0,18.0,18.0,cue2.png,Hard,A,,,,,,,,,,,,,,,,,,,,,,,,,,,49,28,Female,0.14285714285714285,0.25,0.0,0.25,3.111111111111111,3.75,3.5555555555555554,3.2222222222222223,1.625,3.7777777777777777,2.0,2.25,3.0,2.5,0.5,0.6666666666666667,0.404983999983718,0.4323236015524389,0.0065644340357742595,-0.34913086009254707,0.008629836977738538,-0.14233788613814063,0.02633988440882839,-0.661703996834731,0.02694112832128965,-1.0107603810391919,,,,,,,,,,,,,,,,,,,,,,,,
18,240722_144811,LEARNING,1.0,19,3.0,1472.0,,,,,,,,,,19.0,19.0,19.0,cue2.png,Hard,A,,,,,,,,,,,,,,,,,,,,,,,,,,,49,28,Female,0.14285714285714285,0.25,0.0,0.25,3.111111111111111,3.75,3.5555555555555554,3.2222222222222223,1.625,3.7777777777777777,2.0,2.25,3.0,2.5,0.8194444444444444,0.8333333333333334,0.420148166672637,0.8365787580274149,0.006151485532584827,-0.5079794857229478,0.007250174016775207,-0.24690934542428503,0.039654635730189736,0.26016427369418527,0.03800782348388845,0.6574880342111115,,,,,,,,,,,,,,,,,,,,,,,,
19,240722_144830,LEARNING,1.0,20,3.0,1472.0,,,,,,,,,,20.0,20.0,20.0,cue2.png,Hard,A,,,,,,,,,,,,,,,,,,,,,,,,,,,49,28,Female,0.14285714285714285,0.25,0.0,0.25,3.111111111111111,3.75,3.5555555555555554,3.2222222222222223,1.625,3.7777777777777777,2.0,2.25,3.0,2.5,0.8194444444444444,0.8333333333333334,0.3806705888774659,-0.21583742257957725,0.0055986354873395,-0.7206439443386012,0.0062315347472336365,-0.3241170388364193,0.027408195908794286,-0.587737728063365,0.04534684402480609,1.7638083228780457,1.5122555511780623e+44,-0.025420427863579162,6.683338277483889e+43,-0.19367499333314084,,,,,,,,,,,,,,,,,,,,
20,240722_144850,LEARNING,1.0,21,1.0,1472.0,,,,,,,,,,21.0,21.0,21.0,cue1.png,Easy,A,,,,,,,,,,,,,,,,,,,,,,,,,,,49,28,Female,0.14285714285714285,0.25,0.0,0.25,3.111111111111111,3.75,3.5555555555555554,3.2222222222222223,1.625,3.7777777777777777,2.0,2.25,3.0,2.5,1.0,1.0,0.3789062333396739,-0.2628726364913844,0.012835573489259339,2.063184175871432,,,0.03353951897933841,-0.16322569185068633,0.033827503188714164,0.02732585795166166,8.630211362354699e+43,-0.07877603254441214,3.8923817518837754e+43,-0.19378779934131798,,,,,,,,,,,,,,,,,,,,
21,240722_144908,LEARNING,1.0,22,3.0,1472.0,,,,,,,,,,22.0,22.0,22.0,cue2.png,Hard,A,,,,,,,,,,,,,,,,,,,,,,,,,,,49,28,Female,0.14285714285714285,0.25,0.0,0.25,3.111111111111111,3.75,3.5555555555555554,3.2222222222222223,1.625,3.7777777777777777,2.0,2.25,3.0,2.5,0.8194444444444444,0.8333333333333334,0.3383109111131893,-1.3450862968576742,0.007086645584048892,-0.1482520916963434,0.0067777274703322435,-0.2827183989352555,0.03728237040825081,0.09591666014221381,0.030094068744783573,-0.5354705327519843,-4.866140732931221e+42,-0.1537002390702785,7.939488983446547e+42,-0.19391303305191387,,,,,,,,,,,,,,,,,,,,
22,240722_144927,LEARNING,1.0,23,3.0,1472.0,,,,,,,,,,23.0,23.0,23.0,cue2.png,Hard,A,,,,,,,,,,,,,,,,,,,,,,,,,,,49,28,Female,0.14285714285714285,0.25,0.0,0.25,3.111111111111111,3.75,3.5555555555555554,3.2222222222222223,1.625,3.7777777777777777,2.0,2.25,3.0,2.5,0.8194444444444444,0.8333333333333334,0.330481188889179,-1.5538155760692913,0.006041594675121819,-0.5502511286578964,0.00628095543806579,-0.3203712009720476,0.027524172531691163,-0.5797078996278763,0.043234531245900515,1.4453878374352462,-8.292233042148197e+43,-0.21784864377680785,-2.675157356784737e+43,-0.1940532487897779,,,,,,,,,,,,,,,,,,,,
23,240722_144946,LEARNING,1.0,24,3.0,1472.0,,,,,,,,,,24.0,24.0,24.0,cue2.png,Hard,A,,,,,,,,,,,,,,,,,,,,,,,,,,,49,28,Female,0.14285714285714285,0.25,0.0,0.25,3.111111111111111,3.75,3.5555555555555554,3.2222222222222223,1.625,3.7777777777777777,2.0,2.25,3.0,2.5,0.5,0.6666666666666667,0.3214111333299014,-1.7956103811891673,,,0.0058430464916754445,-0.3535624794611955,0.030983401632987347,-0.34020259667422253,0.030808626861760717,-0.4277545047294479,-1.325643974543508e+44,-0.2586456570463427,-4.765292425525318e+43,-0.1941377287132353,,,,,,,,,,,,,,,,,,,,
24,240722_145005,LEARNING,1.0,25,1.0,1472.0,,,,,,,,,,25.0,25.0,25.0,cue1.png,Easy,A,,,,,,,,,,,,,,,,,,,,,,,,,,,49,28,Female,0.14285714285714285,0.25,0.0,0.25,3.111111111111111,3.75,3.5555555555555554,3.2222222222222223,1.625,3.7777777777777777,2.0,2.25,3.0,2.5,1.0,1.0,0.3765418110932741,-0.3259047769841232,0.006904508236743366,-0.21831474375099322,0.008130428173096966,-0.18019054215584915,0.03421643563605286,-0.11635827596313524,0.03154701961846427,-0.3164455251195196,-1.3690061042581602e+44,-0.2622092584173183,-5.503939598357132e+43,-0.19416758365302178,,,,,,,,,,,,,,,,,,,,
25,240722_145025,LEARNING,1.0,26,1.0,1472.0,,,,,,,,,,26.0,26.0,26.0,cue1.png,Easy,A,,,,,,,,,,,,,,,,,,,,,,,,,,,49,28,Female,0.14285714285714285,0.25,0.0,0.25,3.111111111111111,3.75,3.5555555555555554,3.2222222222222223,1.625,3.7777777777777777,2.0,2.25,3.0,2.5,1.0,1.0,0.3693139222191853,-0.5185900334653551,,,0.007660983461159544,-0.21577207182682262,0.03692134996815846,0.0709208280233235,0.03313634915595328,-0.07686212255257735,-1.0664166629794238e+44,-0.23734174949006903,-4.383794030701605e+43,-0.1941223091570182,,,,,,,,,,,,,,,,,,,,
26,240722_145044,LEARNING,1.0,27,3.0,1472.0,,,,,,,,,,27.0,27.0,27.0,cue2.png,Hard,A,,,,,,,,,,,,,,,,,,,,,,,,,,,49,28,Female,0.14285714285714285,0.25,0.0,0.25,3.111111111111111,3.75,3.5555555555555554,3.2222222222222223,1.625,3.7777777777777777,2.0,2.25,3.0,2.5,0.8194444444444444,0.8333333333333334,0.3885048222469373,-0.006987882634109275,,,0.007401641018645546,-0.2354289144295883,0.029978459210538023,-0.4097814052155582,0.034377623539507005,0.11025372303903645,,,,,,,,,,,,,,,,,,,,,,,,
27,240722_145103,LEARNING,1.0,28,1.0,1472.0,,,,,,,,,,28.0,28.0,28.0,cue1.png,Easy,A,,,,,,,,,,,,,,,,,,,,,,,,,,,49,28,Female,0.14285714285714285,0.25,0.0,0.25,3.111111111111111,3.75,3.5555555555555554,3.2222222222222223,1.625,3.7777777777777777,2.0,2.25,3.0,2.5,0.8194444444444444,0.8333333333333334,0.3749569111063869,-0.36815596066864853,0.006985769319568533,-0.1870560971538544,0.006026802893226433,-0.33963467563732497,0.032728524838909354,-0.21937617845023494,0.03224610752805616,-0.21106155274456864,2.405013811728729e+43,-0.1299361639124726,6.4589375249691e+41,-0.1939425125997218,,,,,,,,,,,,,,,,,,,,
28,240722_145123,LEARNING,1.0,29,1.0,1472.0,,,,,,,,,,29.0,29.0,29.0,cue1.png,Easy,A,,,,,,,,,,,,,,,,,,,,,,,,,,,49,28,Female,0.14285714285714285,0.25,0.0,0.25,3.111111111111111,3.75,3.5555555555555554,3.2222222222222223,1.625,3.7777777777777777,2.0,2.25,3.0,2.5,1.0,1.0,0.4114921333190675,0.6058211971548563,0.007137204746796154,-0.12880353224305444,0.06983229322813404,4.496498078213279,0.03620808477312154,0.021536762492768154,0.02860784720005341,-0.759510926047205,8.071541593826843e+43,-0.08336731153866271,2.7599982387492614e+43,-0.19383356847554514,,,,,,,,,,,,,,,,,,,,
29,240722_145143,LEARNING,1.0,30,3.0,1472.0,,,,,,,,,,30.0,30.0,30.0,cue2.png,Hard,A,,,,,,,,,,,,,,,,,,,,,,,,,,,49,28,Female,0.14285714285714285,0.25,0.0,0.25,3.111111111111111,3.75,3.5555555555555554,3.2222222222222223,1.625,3.7777777777777777,2.0,2.25,3.0,2.5,0.8194444444444444,0.8333333333333334,0.3972170333274537,0.22526729668746814,0.005930361728465754,-0.5930390321486861,,,,,0.02678073749171822,-1.034938488714689,1.1349977858631587e+44,-0.05642435452802797,4.285672690087846e+43,-0.19377190314931925,,,,,,,,,,,,,,,,,,,,
30,240722_145202,LEARNING,1.0,31,3.0,1472.0,,,,,,,,,,31.0,31.0,31.0,cue2.png,Hard,A,,,,,,,,,,,,,,,,,,,,,,,,,,,49,28,Female,0.14285714285714285,0.25,0.0,0.25,3.111111111111111,3.75,3.5555555555555554,3.2222222222222223,1.625,3.7777777777777777,2.0,2.25,3.0,2.5,0.8194444444444444,0.8333333333333334,0.3644199333179535,-0.6490568299362715,0.007167357413554133,-0.11720472600788753,0.007392256206157154,-0.23614023564702008,,,,,,,,,,,,,,,,,,,,,,,,,,,,
31,240722_145221,LEARNING,1.0,32,1.0,1472.0,,,,,,,,,,32.0,32.0,32.0,cue1.png,Easy,A,,,,,,,,,,,,,,,,,,,,,,,,,,,49,28,Female,0.14285714285714285,0.25,0.0,0.25,3.111111111111111,3.75,3.5555555555555554,3.2222222222222223,1.625,3.7777777777777777,2.0,2.25,3.0,2.5,1.0,1.0,0.3630414444487542,-0.6858053862499132,0.005855628007317822,-0.6217868028777374,,,,,,,9.020636132381269e+43,-0.07556743034962787,3.9461634505789897e+43,-0.1937856255708966,,,,,,,,,,,,,,,,,,,,
32,240722_145240,LEARNING,1.0,33,1.0,1472.0,,,,,,,,,,33.0,33.0,33.0,cue1.png,Easy,A,,,,,,,,,,,,,,,,,,,,,,,,,,,49,28,Female,0.14285714285714285,0.25,0.0,0.25,3.111111111111111,3.75,3.5555555555555554,3.2222222222222223,1.625,3.7777777777777777,2.0,2.25,3.0,2.5,1.0,1.0,0.3829504444729537,-0.15505970894710086,0.006794826401297147,-0.26050598232598654,0.006712233772240924,-0.2876824892799535,0.030265587245735533,-0.3899016328608741,,,4.0153335217342527e+43,-0.11670217941021763,2.1468197811274638e+43,-0.19385835217012085,,,,,,,,,,,,,,,,,,,,
33,240722_145300,LEARNING,1.0,34,1.0,1472.0,,,,,,,,,,34.0,34.0,34.0,cue1.png,Easy,A,,,,,,,,,,,,,,,,,,,,,,,,,,,49,28,Female,0.14285714285714285,0.25,0.0,0.25,3.111111111111111,3.75,3.5555555555555554,3.2222222222222223,1.625,3.7777777777777777,2.0,2.25,3.0,2.5,1.0,1.0,0.386353166670435,-0.06434796575656561,0.012985457869363354,2.120840100518447,0.005698009860704702,-0.3645555209355905,0.03647461864051125,0.039990664442385,0.03069034021403933,-0.445585619593204,-1.4754417011153617e+43,-0.16182665609212327,-2.3595413360756176e+42,-0.19395466008865855,,,,,,,,,,,,,,,,,,,,
34,240722_145319,LEARNING,1.0,35,3.0,1472.0,,,,,,,,,,35.0,35.0,35.0,cue2.png,Hard,A,,,,,,,,,,,,,,,,,,,,,,,,,,,49,28,Female,0.14285714285714285,0.25,0.0,0.25,3.111111111111111,3.75,3.5555555555555554,3.2222222222222223,1.625,3.7777777777777777,2.0,2.25,3.0,2.5,0.8194444444444444,0.8333333333333334,0.4250578111322183,0.9674629094588857,,,,,0.03338539546589485,-0.17389668174428743,0.03378520353418121,0.020949398619997908,,,-2.48029737123563e+43,-0.19404537286017398,,,,,,,,,,,,,,,,,,,,
35,240722_145339,LEARNING,1.0,36,3.0,1472.0,,,,,,,,,,36.0,36.0,36.0,cue2.png,Hard,A,,,,,,,,,,,,,,,,,,,,,,,,,,,49,28,Female,0.14285714285714285,0.25,0.0,0.25,3.111111111111111,3.75,3.5555555555555554,3.2222222222222223,1.625,3.7777777777777777,2.0,2.25,3.0,2.5,0.5,0.6666666666666667,0.3932807555473927,0.12033171911495967,0.007290853394042274,-0.06969960946210589,0.00787914335469966,-0.19923665769258309,0.029364925704678232,-0.45226038648283134,0.057538216123322786,3.601596107239605,-1.017099299614017e+44,-0.23328873307094047,-3.892595190502149e+43,-0.19410245568388956,,,,,,,,,,,,,,,,,,,,
36,240722_145358,LEARNING,1.0,37,1.0,1472.0,,,,,,,,,,37.0,37.0,37.0,cue1.png,Easy,A,,,,,,,,,,,,,,,,,,,,,,,,,,,49,28,Female,0.14285714285714285,0.25,0.0,0.25,3.111111111111111,3.75,3.5555555555555554,3.2222222222222223,1.625,3.7777777777777777,2.0,2.25,3.0,2.5,1.0,1.0,0.3653563666545475,-0.6240928465681769,,,,,0.03712246270712842,0.08484519269081267,,,-1.040572618161676e+44,-0.23521782536203056,-4.2670723964279145e+43,-0.19411759145485782,,,,,,,,,,,,,,,,,,,,
37,240722_145418,LEARNING,1.0,38,3.0,1472.0,,,,,,,,,,38.0,38.0,38.0,cue2.png,Hard,A,,,,,,,,,,,,,,,,,,,,,,,,,,,49,28,Female,0.14285714285714285,0.25,0.0,0.25,3.111111111111111,3.75,3.5555555555555554,3.2222222222222223,1.625,3.7777777777777777,2.0,2.25,3.0,2.5,0.8194444444444444,0.8333333333333334,0.4062267111019335,0.4654525157785335,0.005758750103047338,-0.65905276177688,0.00519681722892276,-0.4025433820087805,,,0.03882159639785182,0.7801601919010689,-7.75760040085731e+43,-0.21345490752351506,-3.023736125439635e+43,-0.19406733778724763,,,,,,,,,,,,,,,,,,,,
38,240722_145437,LEARNING,1.0,39,3.0,1472.0,,,,,,,,,,39.0,39.0,39.0,cue2.png,Hard,A,,,,,,,,,,,,,,,,,,,,,,,,,,,49,28,Female,0.14285714285714285,0.25,0.0,0.25,3.111111111111111,3.75,3.5555555555555554,3.2222222222222223,1.625,3.7777777777777777,2.0,2.25,3.0,2.5,0.5,0.6666666666666667,0.3366619333262658,-1.3890457037246284,0.005565019967196111,-0.7335748040787052,0.0066569490563692865,-0.2918727905190911,0.03867323275176479,0.1922152565044276,,,-1.8838087467389856e+43,-0.16518271210971752,-1.0168135506462388e+43,-0.19398622117998182,,,,,,,,,,,,,,,,,,,,
39,240722_145456,LEARNING,1.0,40,3.0,1472.0,,,,,,,,,,40.0,40.0,40.0,cue2.png,Hard,A,,,,,,,,,,,,,,,,,,,,,,,,,,,49,28,Female,0.14285714285714285,0.25,0.0,0.25,3.111111111111111,3.75,3.5555555555555554,3.2222222222222223,1.625,3.7777777777777777,2.0,2.25,3.0,2.5,0.8194444444444444,0.8333333333333334,0.3822853555773488,-0.17279003472616256,0.009276882710303273,0.694264964602531,0.006800516450976138,-0.28099110971389973,0.07927013697201801,3.003007360620604,0.03278431602913592,-0.12992933885337993,4.693245986320093e+43,-0.11113093601397074,1.6628356929696365e+43,-0.19387791403448726,,,,,,,,,,,,,,,,,,,,
40,240722_145515,LEARNING,1.0,41,1.0,1472.0,,,,,,,,,,41.0,41.0,41.0,cue1.png,Easy,A,,,,,,,,,,,,,,,,,,,,,,,,,,,49,28,Female,0.14285714285714285,0.25,0.0,0.25,3.111111111111111,3.75,3.5555555555555554,3.2222222222222223,1.625,3.7777777777777777,2.0,2.25,3.0,2.5,1.0,1.0,0.3531201000118421,-0.9502943443353475,,,0.005206603761601548,-0.40180161243713247,,,0.03845724342584823,0.7252358211466479,,,3.6244592629601186e+43,-0.19379862834069478,,,,,,,,,,,,,,,,,,,,
41,240722_145534,LEARNING,1.0,42,3.0,1472.0,,,,,,,,,,42.0,42.0,42.0,cue2.png,Hard,A,,,,,,,,,,,,,,,,,,,,,,,,,,,49,28,Female,0.14285714285714285,0.25,0.0,0.25,3.111111111111111,3.75,3.5555555555555554,3.2222222222222223,1.625,3.7777777777777777,2.0,2.25,3.0,2.5,0.5,0.6666666666666667,0.3602963777569433,-0.7589849672844031,0.006425010442793578,-0.40276284072543006,0.004862466472419809,-0.42788547461415644,,,0.036505849140175614,0.4310729860119208,,,,,,,,,,,,,,,,,,,,,,,,
42,240722_145554,LEARNING,1.0,43,3.0,1472.0,,,,,,,,,,43.0,43.0,43.0,cue2.png,Hard,A,,,,,,,,,,,,,,,,,,,,,,,,,,,49,28,Female,0.14285714285714285,0.25,0.0,0.25,3.111111111111111,3.75,3.5555555555555554,3.2222222222222223,1.625,3.7777777777777777,2.0,2.25,3.0,2.5,0.8194444444444444,0.8333333333333334,0.387723399985892,-0.027819490785892586,0.0057400804268200895,-0.6662344136941472,,,0.034076460137667644,-0.12604970522819253,0.02701533844101871,-0.9995735802089004,8.530020933831187e+43,-0.07959942094990455,3.358806522879379e+43,-0.19380936560044604,,,,,,,,,,,,,,,,,,,,
43,240722_145613,LEARNING,1.0,44,1.0,1472.0,,,,,,,,,,44.0,44.0,44.0,cue1.png,Easy,A,,,,,,,,,,,,,,,,,,,,,,,,,,,49,28,Female,0.14285714285714285,0.25,0.0,0.25,3.111111111111111,3.75,3.5555555555555554,3.2222222222222223,1.625,3.7777777777777777,2.0,2.25,3.0,2.5,1.0,1.0,0.3433564111150594,-1.2105804295329008,0.012150358162938371,1.7996028527614139,0.006785877716352253,-0.28210065159842884,,,0.039001317507674216,0.8072522417174867,1.6960029207260694e+43,-0.1357629814600433,1.2096876539269924e+43,-0.19389622955496522,,,,,,,,,,,,,,,,,,,,
44,240722_145632,LEARNING,1.0,45,1.0,1472.0,,,,,,,,,,45.0,45.0,45.0,cue1.png,Easy,A,,,,,,,,,,,,,,,,,,,,,,,,,,,49,28,Female,0.14285714285714285,0.25,0.0,0.25,3.111111111111111,3.75,3.5555555555555554,3.2222222222222223,1.625,3.7777777777777777,2.0,2.25,3.0,2.5,1.0,1.0,0.3479312555217702,-1.0886215722199588,,,0.0067467350961261385,-0.2850674638077456,0.029387119515776668,-0.45072376219598226,0.026454446394886033,-1.0841252239778254,-5.615293401060215e+43,-0.1958489268861112,,,,,,,,,,,,,,,,,,,,,,
45,240722_145651,LEARNING,1.0,46,1.0,1472.0,,,,,,,,,,46.0,46.0,46.0,cue1.png,Easy,A,,,,,,,,,,,,,,,,,,,,,,,,,,,49,28,Female,0.14285714285714285,0.25,0.0,0.25,3.111111111111111,3.75,3.5555555555555554,3.2222222222222223,1.625,3.7777777777777777,2.0,2.25,3.0,2.5,1.0,1.0,0.3784979778057378,-0.27375614945578014,0.005987896660079451,-0.5709071083325529,0.005945398317700641,-0.3458047298434316,,,0.02919663567082411,-0.6707540371251641,-1.1537506434536045e+44,-0.24451906053541156,-4.502248552777547e+43,-0.19412709689973773,,,,,,,,,,,,,,,,,,,,
46,240722_145710,LEARNING,1.0,47,3.0,1472.0,,,,,,,,,,47.0,47.0,47.0,cue2.png,Hard,A,,,,,,,,,,,,,,,,,,,,,,,,,,,49,28,Female,0.14285714285714285,0.25,0.0,0.25,3.111111111111111,3.75,3.5555555555555554,3.2222222222222223,1.625,3.7777777777777777,2.0,2.25,3.0,2.5,0.5,0.6666666666666667,0.3928022110938198,0.10757440333705286,0.005748383478280535,-0.6630404844200526,,,0.05266978703825377,1.1612892543603965,,,,,-3.266502380966044e+43,-0.19407715001182183,,,,,,,,,,,,,,,,,,,,
47,240722_145730,LEARNING,1.0,48,3.0,1472.0,,,,,,,,,,48.0,48.0,48.0,cue2.png,Hard,A,,,,,,,,,,,,,,,,,,,,,,,,,,,49,28,Female,0.14285714285714285,0.25,0.0,0.25,3.111111111111111,3.75,3.5555555555555554,3.2222222222222223,1.625,3.7777777777777777,2.0,2.25,3.0,2.5,0.5,0.6666666666666667,0.3587461222454698,-0.8003125784366106,0.005929581418628694,-0.5933391934138936,,,0.035716893366223,-0.01247166634283122,0.033906549039431036,0.03924162081067644,4.408610200914283e+43,-0.11347013955811337,1.8372414253367255e+43,-0.19387086483315033,,,,,,,,,,,,,,,,,,,,
48,240722_145748,LEARNING,1.0,49,1.0,1472.0,,,,,,,,,,49.0,49.0,49.0,cue1.png,Easy,A,,,,,,,,,,,,,,,,,,,,,,,,,,,49,28,Female,0.14285714285714285,0.25,0.0,0.25,3.111111111111111,3.75,3.5555555555555554,3.2222222222222223,1.625,3.7777777777777777,2.0,2.25,3.0,2.5,1.0,1.0,0.3147736110905599,-1.9725573012881052,,,,,0.03352608216741866,-0.16415601118350118,0.029266069659881627,-0.6602872138768667,,,,,,,,,,,,,,,,,,,,,,,,
49,240722_145808,LEARNING,1.0,50,1.0,1472.0,,,,,,,,,,50.0,50.0,50.0,cue1.png,Easy,A,,,,,,,,,,,,,,,,,,,,,,,,,,,49,28,Female,0.14285714285714285,0.25,0.0,0.25,3.111111111111111,3.75,3.5555555555555554,3.2222222222222223,1.625,3.7777777777777777,2.0,2.25,3.0,2.5,1.0,1.0,0.3568097555544227,-0.8519333655026219,0.006601447016578256,-0.33489310142339374,0.00582300368483759,-0.35508162262769855,0.02939410219730385,-0.4502403049846719,0.033957159683395674,0.04687091983340093,,,-5.426120904988979e+41,-0.19394731635064424,,,,,,,,,,,,,,,,,,,,
0,240722_145909,TrueCHOICE,9.0,1,1.0,1472.0,,,,,,,,,,,1.0,1.0,,,A,,,,,,True,cue1.png,Easy,cue2.png,Hard,Left,Easy,Easy,0.0162428999319672,,,,,,,,,,,,,49,28,Female,0.14285714285714285,0.25,0.0,0.25,3.111111111111111,3.75,3.5555555555555554,3.2222222222222223,1.625,3.7777777777777777,2.0,2.25,3.0,2.5,1.0,1.0,0.3900742111210193,0.5397698393455278,,,,,,,,,,,,,0.005583341255183883,-0.5173614205969649,,,,,,,,,,,,,,,,,,
1,240722_145927,TrueCHOICE,9.0,2,1.0,1472.0,,,,,,,,,,,2.0,2.0,,,A,,,,,,True,cue1.png,Easy,cue2.png,Hard,Left,Easy,Easy,0.0169873998966068,,,,,,,,,,,,,49,28,Female,0.14285714285714285,0.25,0.0,0.25,3.111111111111111,3.75,3.5555555555555554,3.2222222222222223,1.625,3.7777777777777777,2.0,2.25,3.0,2.5,0.8194444444444444,0.8333333333333334,0.3837425999809056,0.22490727585284326,,,,,,,,,,,,,0.022758275269245308,1.9908995504002094,0.032688822652167694,-0.34096124098866526,,,,,,,,,,,,,,,,
2,240722_145945,TrueCHOICE,9.0,3,1.0,1472.0,,,,,,,,,,,3.0,3.0,,,A,,,,,,True,cue2.png,Hard,cue1.png,Easy,Right,Easy,Easy,0.0159531000535935,,,,,,,,,,,,,49,28,Female,0.14285714285714285,0.25,0.0,0.25,3.111111111111111,3.75,3.5555555555555554,3.2222222222222223,1.625,3.7777777777777777,2.0,2.25,3.0,2.5,1.0,1.0,0.3872100444407099,0.39733865662189005,,,,,,,,,,,,,0.006896503358464449,-0.3255846574632871,0.04056399808424582,1.0790019710753482,31716977.169860836,-0.4992358530253225,,,,,,,,,,,,,,
3,240722_150004,TrueCHOICE,9.0,4,3.0,1472.0,,,,,,,,,,,4.0,4.0,,,A,,,,,,True,cue1.png,Easy,cue2.png,Hard,Right,Hard,Hard,0.0164573000511154,,,,,,,,,,,,,49,28,Female,0.14285714285714285,0.25,0.0,0.25,3.111111111111111,3.75,3.5555555555555554,3.2222222222222223,1.625,3.7777777777777777,2.0,2.25,3.0,2.5,0.8194444444444444,0.8333333333333334,0.4122406333271,1.6420764031599289,,,,,,,,,,,,,,,0.038379232830832846,0.685069630951784,5042089.700185164,-0.5002004808106407,,,,,,,,,,,,,,
4,240722_150022,TrueCHOICE,9.0,5,3.0,1472.0,,,,,,,,,,,5.0,5.0,,,A,,,,,,True,cue2.png,Hard,cue1.png,Easy,Left,Hard,Hard,0.0163869999814778,,,,,,,,,,,,,49,28,Female,0.14285714285714285,0.25,0.0,0.25,3.111111111111111,3.75,3.5555555555555554,3.2222222222222223,1.625,3.7777777777777777,2.0,2.25,3.0,2.5,0.8194444444444444,0.8333333333333334,0.4049089110922068,1.2774796509889912,,,,,,,,,,,,,0.005492261697733136,-0.5306628573898147,,,,,,,,,,,,,,,,,,
5,240722_150039,TrueCHOICE,9.0,6,1.0,1472.0,,,,,,,,,,,6.0,6.0,,,A,,,,,,True,cue2.png,Hard,cue1.png,Easy,Right,Easy,Easy,0.0164918999653309,,,,,,,,,,,,,49,28,Female,0.14285714285714285,0.25,0.0,0.25,3.111111111111111,3.75,3.5555555555555554,3.2222222222222223,1.625,3.7777777777777777,2.0,2.25,3.0,2.5,1.0,1.0,0.364089488866739,-0.7524156849349758,,,,,,,,,,,,,,,,,3105520.6694751484,-0.5002705117825551,,,,,,,,,,,,,,
6,240722_150057,TrueCHOICE,9.0,7,1.0,1472.0,,,,,,,,,,,7.0,7.0,,,A,,,,,,True,cue1.png,Easy,cue2.png,Hard,Left,Easy,Easy,0.016888799960725,,,,,,,,,,,,,49,28,Female,0.14285714285714285,0.25,0.0,0.25,3.111111111111111,3.75,3.5555555555555554,3.2222222222222223,1.625,3.7777777777777777,2.0,2.25,3.0,2.5,1.0,1.0,0.3400103888836586,-1.9498371594213553,,,,,,,,,,,,,0.004899091354978392,-0.6172906149501425,0.03723466355180123,0.47869374969034917,2483715.2781624007,-0.5002929977539844,,,,,,,,,,,,,,
7,240722_150115,TrueCHOICE,9.0,8,1.0,1472.0,,,,,,,,,,,8.0,8.0,,,A,,,,,,True,cue2.png,Hard,cue1.png,Easy,Right,Easy,Easy,0.0165950999362394,,,,,,,,,,,,,49,28,Female,0.14285714285714285,0.25,0.0,0.25,3.111111111111111,3.75,3.5555555555555554,3.2222222222222223,1.625,3.7777777777777777,2.0,2.25,3.0,2.5,1.0,1.0,0.3756759555803405,-0.17623617382215048,,,,,,,,,,,,,,,0.035139439858529464,0.10090653832587639,,,,,,,,,,,,,,,,
8,240722_150132,TrueCHOICE,9.0,9,3.0,1472.0,,,,,,,,,,,9.0,9.0,,,A,,,,,,True,cue1.png,Easy,cue2.png,Hard,Right,Hard,Hard,0.0167008000425994,,,,,,,,,,,,,49,28,Female,0.14285714285714285,0.25,0.0,0.25,3.111111111111111,3.75,3.5555555555555554,3.2222222222222223,1.625,3.7777777777777777,2.0,2.25,3.0,2.5,1.0,1.0,0.3702729555467764,-0.4449201475332234,,,,,,,,,,,,,,,0.023472690852774317,-2.002710649054688,69143173205.45369,1.9999998433725026,,,,,,,,,,,,,,
9,240722_150149,TrueCHOICE,9.0,10,3.0,1472.0,,,,,,,,,,,10.0,10.0,,,A,,,,,,True,cue2.png,Hard,cue1.png,Easy,Left,Hard,Hard,0.0161547000752761,,,,,,,,,,,,,49,28,Female,0.14285714285714285,0.25,0.0,0.25,3.111111111111111,3.75,3.5555555555555554,3.2222222222222223,1.625,3.7777777777777777,2.0,2.25,3.0,2.5,0.8194444444444444,0.8333333333333334,0.3639739222126081,-0.7581626602574788,,,,,,,,,,,,,,,,,,,,,,,,,,,,,,,,
0,240722_150306,FalseCHOICE,9.0,1,2.0,1472.0,,,,,,,,,,,1.0,1.0,,,A,,,,,,False,cue1.png,Easy,cue2.png,Hard,Left,Easy,Mid,0.015630800044164,,,,,,,,,,,,,49,28,Female,0.14285714285714285,0.25,0.0,0.25,3.111111111111111,3.75,3.5555555555555554,3.2222222222222223,1.625,3.7777777777777777,2.0,2.25,3.0,2.5,0.8194444444444444,0.8333333333333334,0.3894428000009308,-0.4516897517147216,,,,,,,,,,,,,,,,,,,0.01056936197502164,-0.3135851148985213,,,4.205709437848336e+45,-0.10068001602648476,,,,,,,,
1,240722_150323,FalseCHOICE,9.0,2,2.0,1472.0,,,,,,,,,,,2.0,2.0,,,A,,,,,,False,cue2.png,Hard,cue1.png,Easy,Left,Hard,Mid,0.0163120999932289,,,,,,,,,,,,,49,28,Female,0.14285714285714285,0.25,0.0,0.25,3.111111111111111,3.75,3.5555555555555554,3.2222222222222223,1.625,3.7777777777777777,2.0,2.25,3.0,2.5,0.5,0.6666666666666667,0.3710042333307986,-1.0995803539986886,,,,,,,,,,,,,,,,,,,0.05496973989432527,2.398847552743151,,,2.1309289170596952e+44,-0.16266035942333262,,,,,,,,
2,240722_150341,FalseCHOICE,9.0,3,2.0,1472.0,,,,,,,,,,,3.0,3.0,,,A,,,,,,False,cue2.png,Hard,cue1.png,Easy,Left,Hard,Mid,0.0150250999722629,,,,,,,,,,,,,49,28,Female,0.14285714285714285,0.25,0.0,0.25,3.111111111111111,3.75,3.5555555555555554,3.2222222222222223,1.625,3.7777777777777777,2.0,2.25,3.0,2.5,0.5,0.6666666666666667,0.3654754000017419,-1.2938513740608224,,,,,,,,,,,,,,,,,,,,,0.04661371579321895,1.3409123881384717,-9.548028444086405e+44,-0.18079046982575467,,,,,,,,
3,240722_150358,FalseCHOICE,9.0,4,2.0,1472.0,,,,,,,,,,,4.0,4.0,,,A,,,,,,False,cue2.png,Hard,cue1.png,Easy,Right,Easy,Mid,0.0167346000671386,,,,,,,,,,,,,49,28,Female,0.14285714285714285,0.25,0.0,0.25,3.111111111111111,3.75,3.5555555555555554,3.2222222222222223,1.625,3.7777777777777777,2.0,2.25,3.0,2.5,0.5,0.6666666666666667,0.3523033000270111,-1.7566899416484507,,,,,,,,,,,,,,,,,,,0.011553719023999567,-0.2534504416954298,,,-8.476700711629732e+44,-0.17912736844897986,,,,,,,,
4,240722_150415,FalseCHOICE,9.0,5,2.0,1472.0,,,,,,,,,,,5.0,5.0,,,A,,,,,,False,cue1.png,Easy,cue2.png,Hard,Left,Easy,Mid,0.0165794999338686,,,,,,,,,,,,,49,28,Female,0.14285714285714285,0.25,0.0,0.25,3.111111111111111,3.75,3.5555555555555554,3.2222222222222223,1.625,3.7777777777777777,2.0,2.25,3.0,2.5,0.5,0.6666666666666667,0.3468187777842912,-1.949403967778885,,,,,,,,,,,,,,,,,,,0.01718810985892857,0.09075621777712008,,,4.02503026911966e+47,6.082384204087803,,,,,,,,
5,240722_150432,FalseCHOICE,9.0,6,2.0,1472.0,,,,,,,,,,,6.0,6.0,,,A,,,,,,False,cue2.png,Hard,cue1.png,Easy,Left,Hard,Mid,0.0159092000685632,,,,,,,,,,,,,49,28,Female,0.14285714285714285,0.25,0.0,0.25,3.111111111111111,3.75,3.5555555555555554,3.2222222222222223,1.625,3.7777777777777777,2.0,2.25,3.0,2.5,0.5,0.6666666666666667,0.4048332110978663,0.08909538052353834,,,,,,,,,,,,,,,,,,,0.02451504679842119,0.5383610364692122,,,1.1053860217918173e+43,-0.16579676093008267,,,,,,,,
6,240722_150450,FalseCHOICE,9.0,7,2.0,1472.0,,,,,,,,,,,7.0,7.0,,,A,,,,,,False,cue2.png,Hard,cue1.png,Easy,Left,Hard,Mid,0.0161102999700233,,,,,,,,,,,,,49,28,Female,0.14285714285714285,0.25,0.0,0.25,3.111111111111111,3.75,3.5555555555555554,3.2222222222222223,1.625,3.7777777777777777,2.0,2.25,3.0,2.5,0.8194444444444444,0.8333333333333334,0.4509992444396226,1.7112680624870973,,,,,,,,,,,,,,,,,,,0.006674915198282233,-0.5514980596671107,,,1.0229421220853523e+44,-0.16438036937765782,,,,,,,,
7,240722_150508,FalseCHOICE,9.0,8,2.0,1472.0,,,,,,,,,,,8.0,8.0,,,A,,,,,,False,cue1.png,Easy,cue2.png,Hard,Left,Easy,Mid,0.0158008000580593,,,,,,,,,,,,,49,28,Female,0.14285714285714285,0.25,0.0,0.25,3.111111111111111,3.75,3.5555555555555554,3.2222222222222223,1.625,3.7777777777777777,2.0,2.25,3.0,2.5,0.8194444444444444,0.8333333333333334,0.4297733110789623,0.965435536830211,,,,,,,,,,,,,,,,,,,,,0.03587568005777686,-0.3545916654825246,3.1254835195833558e+44,-0.16111643866162334,,,,,,,,
8,240722_150526,FalseCHOICE,9.0,9,2.0,1472.0,,,,,,,,,,,9.0,9.0,,,A,,,,,,False,cue1.png,Easy,cue2.png,Hard,Left,Easy,Mid,0.0152650000527501,,,,,,,,,,,,,49,28,Female,0.14285714285714285,0.25,0.0,0.25,3.111111111111111,3.75,3.5555555555555554,3.2222222222222223,1.625,3.7777777777777777,2.0,2.25,3.0,2.5,0.8194444444444444,0.8333333333333334,0.3859651444945484,-0.5738869029833186,,,,,,,,,,,,,,,,,,,0.006756935207112905,-0.5464874322405399,0.04043852012606419,0.3658672734154813,,,,,,,,,,
9,240722_150544,FalseCHOICE,9.0,10,2.0,1472.0,,,,,,,,,,,10.0,10.0,,,A,,,,,,False,cue2.png,Hard,cue1.png,Easy,Left,Hard,Mid,0.0159315000055357,,,,,,,,,,,,,49,28,Female,0.14285714285714285,0.25,0.0,0.25,3.111111111111111,3.75,3.5555555555555554,3.2222222222222223,1.625,3.7777777777777777,2.0,2.25,3.0,2.5,0.8194444444444444,0.8333333333333334,0.398776344437566,-0.1237295672448946,,,,,,,,,,,,,,,,,,,0.007153345449607234,-0.5222706092782763,0.03242206454710861,-0.8999073304936998,4.081697272564478e+44,-0.1596320372400087,,,,,,,,
10,240722_150602,FalseCHOICE,9.0,11,2.0,1472.0,,,,,,,,,,,11.0,11.0,,,A,,,,,,False,cue1.png,Easy,cue2.png,Hard,Left,Easy,Mid,0.0162829000037163,,,,,,,,,,,,,49,28,Female,0.14285714285714285,0.25,0.0,0.25,3.111111111111111,3.75,3.5555555555555554,3.2222222222222223,1.625,3.7777777777777777,2.0,2.25,3.0,2.5,1.0,1.0,0.4072290111022691,0.17327851338705091,,,,,,,,,,,,,,,,,,,,,0.03805561380040401,-0.010386581022787323,4.013669601033355e+44,-0.15973764163234788,,,,,,,,
11,240722_150619,FalseCHOICE,9.0,12,2.0,1472.0,,,,,,,,,,,12.0,12.0,,,A,,,,,,False,cue2.png,Hard,cue1.png,Easy,Left,Hard,Mid,0.0168452999787405,,,,,,,,,,,,,49,28,Female,0.14285714285714285,0.25,0.0,0.25,3.111111111111111,3.75,3.5555555555555554,3.2222222222222223,1.625,3.7777777777777777,2.0,2.25,3.0,2.5,0.8194444444444444,0.8333333333333334,0.3817694777778039,-0.7213133860026135,,,,,,,,,,,,,,,,,,,0.0177322815506365,0.1239998328669975,0.03230809686635079,-0.9179024898941176,,,,,,,,,,
12,240722_150636,FalseCHOICE,9.0,13,2.0,1472.0,,,,,,,,,,,13.0,13.0,,,A,,,,,,False,cue1.png,Easy,cue2.png,Hard,Left,Easy,Mid,0.0167107000015676,,,,,,,,,,,,,49,28,Female,0.14285714285714285,0.25,0.0,0.25,3.111111111111111,3.75,3.5555555555555554,3.2222222222222223,1.625,3.7777777777777777,2.0,2.25,3.0,2.5,0.8194444444444444,0.8333333333333334,0.3775913777838771,-0.8681226130914393,,,,,,,,,,,,,,,,,,,,,0.029344446883113585,-1.3858540486235507,2.3910214659161674e+44,-0.16225659849846594,,,,,,,,
13,240722_150654,FalseCHOICE,9.0,14,2.0,1472.0,,,,,,,,,,,14.0,14.0,,,A,,,,,,False,cue2.png,Hard,cue1.png,Easy,Left,Hard,Mid,0.016025299904868,,,,,,,,,,,,,49,28,Female,0.14285714285714285,0.25,0.0,0.25,3.111111111111111,3.75,3.5555555555555554,3.2222222222222223,1.625,3.7777777777777777,2.0,2.25,3.0,2.5,0.8194444444444444,0.8333333333333334,0.4120661888737231,0.34324628126016365,,,,,,,,,,,,,,,,,,,0.00708404721667206,-0.5265040595242366,0.029923641651719096,-1.294400909315639,,,,,,,,,,
14,240722_150712,FalseCHOICE,9.0,15,2.0,1472.0,,,,,,,,,,,15.0,15.0,,,A,,,,,,False,cue1.png,Easy,cue2.png,Hard,Left,Easy,Mid,0.0168255000608041,,,,,,,,,,,,,49,28,Female,0.14285714285714285,0.25,0.0,0.25,3.111111111111111,3.75,3.5555555555555554,3.2222222222222223,1.625,3.7777777777777777,2.0,2.25,3.0,2.5,0.5,0.6666666666666667,0.3954760111066409,-0.2396960080081339,,,,,,,,,,,,,,,,,,,0.01608857962916891,0.023585579732550196,0.04238583520199295,0.673342559050536,-1.60417613021301e+44,-0.1684586395931861,,,,,,,,
15,240722_150729,FalseCHOICE,9.0,16,2.0,1472.0,,,,,,,,,,,16.0,16.0,,,A,,,,,,False,cue1.png,Easy,cue2.png,Hard,Left,Easy,Mid,0.0159706000704318,,,,,,,,,,,,,49,28,Female,0.14285714285714285,0.25,0.0,0.25,3.111111111111111,3.75,3.5555555555555554,3.2222222222222223,1.625,3.7777777777777777,2.0,2.25,3.0,2.5,0.8194444444444444,0.8333333333333334,0.4489285000082519,1.6385066661801846,,,,,,,,,,,,,,,,,,,,,0.03857402585434882,0.07146914758205178,,,,,,,,,,
16,240722_150747,FalseCHOICE,9.0,17,2.0,1472.0,,,,,,,,,,,17.0,17.0,,,A,,,,,,False,cue2.png,Hard,cue1.png,Easy,Left,Hard,Mid,0.015942099969834,,,,,,,,,,,,,49,28,Female,0.14285714285714285,0.25,0.0,0.25,3.111111111111111,3.75,3.5555555555555554,3.2222222222222223,1.625,3.7777777777777777,2.0,2.25,3.0,2.5,0.8194444444444444,0.8333333333333334,0.3786251888636293,-0.8317967698146153,,,,,,,,,,,,,,,,,,,0.00606386147475659,-0.5888275185376498,0.03548780914047758,-0.41583533506652626,,,,,,,,,,
17,240722_150806,FalseCHOICE,9.0,18,2.0,1472.0,,,,,,,,,,,18.0,18.0,,,A,,,,,,False,cue2.png,Hard,cue1.png,Easy,Right,Easy,Mid,0.0163971000583842,,,,,,,,,,,,,49,28,Female,0.14285714285714285,0.25,0.0,0.25,3.111111111111111,3.75,3.5555555555555554,3.2222222222222223,1.625,3.7777777777777777,2.0,2.25,3.0,2.5,0.8194444444444444,0.8333333333333334,0.4381706666899845,1.2605001089170849,,,,,,,,,,,,,,,,,,,0.0065700636772528164,-0.5579034711572786,0.02461426378138533,-2.132735957097625,,,,,,,,,,
18,240722_150824,FalseCHOICE,9.0,19,2.0,1472.0,,,,,,,,,,,19.0,19.0,,,A,,,,,,False,cue1.png,Easy,cue2.png,Hard,Right,Hard,Mid,0.0171074999962002,,,,,,,,,,,,,49,28,Female,0.14285714285714285,0.25,0.0,0.25,3.111111111111111,3.75,3.5555555555555554,3.2222222222222223,1.625,3.7777777777777777,2.0,2.25,3.0,2.5,0.8194444444444444,0.8333333333333334,0.384293011118037,-0.6326419851862091,,,,,,,,,,,,,,,,,,,0.007089058824333846,-0.5261978988792992,0.04341614875060749,0.8360260182246143,,,,,,,,,,
19,240722_150842,FalseCHOICE,9.0,20,2.0,1472.0,,,,,,,,,,,20.0,20.0,,,A,,,,,,False,cue1.png,Easy,cue2.png,Hard,Right,Hard,Mid,0.0168987999204546,,,,,,,,,,,,,49,28,Female,0.14285714285714285,0.25,0.0,0.25,3.111111111111111,3.75,3.5555555555555554,3.2222222222222223,1.625,3.7777777777777777,2.0,2.25,3.0,2.5,0.5,0.6666666666666667,0.4034009777889069,0.038769858060016746,,,,,,,,,,,,,,,,,,,0.006171667728267649,-0.582241601536427,0.05107218013018046,2.0448907080552536,,,,,,,,,,
20,240722_150900,FalseCHOICE,9.0,21,2.0,1472.0,,,,,,,,,,,21.0,21.0,,,A,,,,,,False,cue1.png,Easy,cue2.png,Hard,Left,Easy,Mid,0.0142584999557584,,,,,,,,,,,,,49,28,Female,0.14285714285714285,0.25,0.0,0.25,3.111111111111111,3.75,3.5555555555555554,3.2222222222222223,1.625,3.7777777777777777,2.0,2.25,3.0,2.5,0.8194444444444444,0.8333333333333334,0.4934030222163225,3.2012433742538153,,,,,,,,,,,,,,,,,,,0.008724180612170307,-0.42630780873274604,0.036293848975984304,-0.2885640312496759,,,,,,,,,,
21,240722_150918,FalseCHOICE,9.0,22,2.0,1472.0,,,,,,,,,,,22.0,22.0,,,A,,,,,,False,cue2.png,Hard,cue1.png,Easy,Left,Hard,Mid,0.0164132999489083,,,,,,,,,,,,,49,28,Female,0.14285714285714285,0.25,0.0,0.25,3.111111111111111,3.75,3.5555555555555554,3.2222222222222223,1.625,3.7777777777777777,2.0,2.25,3.0,2.5,0.8194444444444444,0.8333333333333334,0.440047077795801,1.3264330603893402,,,,,,,,,,,,,,,,,,,,,0.03463810424777182,-0.5500012221485645,9.422002172838925e+43,-0.1645057110158611,,,,,,,,
22,240722_150936,FalseCHOICE,9.0,23,2.0,1472.0,,,,,,,,,,,23.0,23.0,,,A,,,,,,False,cue1.png,Easy,cue2.png,Hard,Left,Easy,Mid,0.0150663999374955,,,,,,,,,,,,,49,28,Female,0.14285714285714285,0.25,0.0,0.25,3.111111111111111,3.75,3.5555555555555554,3.2222222222222223,1.625,3.7777777777777777,2.0,2.25,3.0,2.5,1.0,1.0,0.4056103111296478,0.11640096325309847,,,,,,,,,,,,,,,,,,,0.004906502827836385,-0.6595309122742851,0.0264536407299036,-1.8423037822394035,2.691344702425815e+43,-0.16555056081919578,,,,,,,,
23,240722_150955,FalseCHOICE,9.0,24,2.0,1472.0,,,,,,,,,,,24.0,24.0,,,A,,,,,,False,cue2.png,Hard,cue1.png,Easy,Left,Hard,Mid,0.0159974000416696,,,,,,,,,,,,,49,28,Female,0.14285714285714285,0.25,0.0,0.25,3.111111111111111,3.75,3.5555555555555554,3.2222222222222223,1.625,3.7777777777777777,2.0,2.25,3.0,2.5,0.8194444444444444,0.8333333333333334,0.4412562221987173,1.3689197302844962,,,,,,,,,,,,,,,,,,,0.007645869237866525,-0.49218218040739686,0.03085379397673651,-1.1475326108291013,-5.124677355199313e+43,-0.1667638998051222,,,,,,,,
24,240722_151013,FalseCHOICE,9.0,25,2.0,1472.0,,,,,,,,,,,25.0,25.0,,,A,,,,,,False,cue2.png,Hard,cue1.png,Easy,Left,Hard,Mid,0.0160906999371945,,,,,,,,,,,,,49,28,Female,0.14285714285714285,0.25,0.0,0.25,3.111111111111111,3.75,3.5555555555555554,3.2222222222222223,1.625,3.7777777777777777,2.0,2.25,3.0,2.5,1.0,1.0,0.3968689111061394,-0.1907525713657249,,,,,,,,,,,,,,,,,,,0.008441706788271094,-0.44356422103379484,0.037685400236188826,-0.06884220682784306,-9.292099027662781e+43,-0.16741083953337713,,,,,,,,
25,240722_151031,FalseCHOICE,9.0,26,2.0,1472.0,,,,,,,,,,,26.0,26.0,,,A,,,,,,False,cue1.png,Easy,cue2.png,Hard,Right,Hard,Mid,0.0173454999458044,,,,,,,,,,,,,49,28,Female,0.14285714285714285,0.25,0.0,0.25,3.111111111111111,3.75,3.5555555555555554,3.2222222222222223,1.625,3.7777777777777777,2.0,2.25,3.0,2.5,0.8194444444444444,0.8333333333333334,0.4582380333449691,1.9656231535088136,,,,,,,,,,,,,,,,,,,,,0.03598793854811663,-0.3368663821892089,-1.0900173628702474e+44,-0.16766047286236907,,,,,,,,
26,240722_151049,FalseCHOICE,9.0,27,2.0,1472.0,,,,,,,,,,,27.0,27.0,,,A,,,,,,False,cue1.png,Easy,cue2.png,Hard,Left,Easy,Mid,0.0149679000023752,,,,,,,,,,,,,49,28,Female,0.14285714285714285,0.25,0.0,0.25,3.111111111111111,3.75,3.5555555555555554,3.2222222222222223,1.625,3.7777777777777777,2.0,2.25,3.0,2.5,0.8194444444444444,0.8333333333333334,0.4278299666734205,0.8971506966972107,,,,,,,,,,,,,,,,,,,0.006986551670212218,-0.5324600922780092,0.03228152869288643,-0.9220975258314115,-8.322961355303872e+43,-0.16726039311550195,,,,,,,,
27,240722_151107,FalseCHOICE,9.0,28,2.0,1472.0,,,,,,,,,,,28.0,28.0,,,A,,,,,,False,cue2.png,Hard,cue1.png,Easy,Left,Hard,Mid,0.0150062999455258,,,,,,,,,,,,,49,28,Female,0.14285714285714285,0.25,0.0,0.25,3.111111111111111,3.75,3.5555555555555554,3.2222222222222223,1.625,3.7777777777777777,2.0,2.25,3.0,2.5,0.8194444444444444,0.8333333333333334,0.3980088111323615,-0.1506989962834042,,,,,,,,,,,,,,,,,,,,,0.03724805988466534,-0.13789695362596147,-4.0682981701371065e+43,-0.16659991024115892,,,,,,,,
28,240722_151124,FalseCHOICE,9.0,29,2.0,1472.0,,,,,,,,,,,29.0,29.0,,,A,,,,,,False,cue1.png,Easy,cue2.png,Hard,Right,Hard,Mid,0.0155142000876367,,,,,,,,,,,,,49,28,Female,0.14285714285714285,0.25,0.0,0.25,3.111111111111111,3.75,3.5555555555555554,3.2222222222222223,1.625,3.7777777777777777,2.0,2.25,3.0,2.5,0.8194444444444444,0.8333333333333334,0.3874009555567884,-0.5234356661533146,,,,,,,,,,,,,,,,,,,0.009279585083889996,-0.3923779796762285,0.04383416813985101,0.9020300422767275,1.5163693219256573e+43,-0.1657329609488466,,,,,,,,
29,240722_151141,FalseCHOICE,9.0,30,2.0,1472.0,,,,,,,,,,,30.0,30.0,,,A,,,,,,False,cue1.png,Easy,cue2.png,Hard,Right,Hard,Mid,0.0166596000781282,,,,,,,,,,,,,49,28,Female,0.14285714285714285,0.25,0.0,0.25,3.111111111111111,3.75,3.5555555555555554,3.2222222222222223,1.625,3.7777777777777777,2.0,2.25,3.0,2.5,0.8194444444444444,0.8333333333333334,0.3822561555490311,-0.7042126015457956,,,,,,,,,,,,,,,,,,,0.009726886234053734,-0.365052215598659,0.03575016801176859,-0.37440964597991594,6.382472397459399e+43,-0.16497755973227488,,,,,,,,
30,240722_151159,FalseCHOICE,9.0,31,2.0,1472.0,,,,,,,,,,,31.0,31.0,,,A,,,,,,False,cue2.png,Hard,cue1.png,Easy,Left,Hard,Mid,0.0170158999972045,,,,,,,,,,,,,49,28,Female,0.14285714285714285,0.25,0.0,0.25,3.111111111111111,3.75,3.5555555555555554,3.2222222222222223,1.625,3.7777777777777777,2.0,2.25,3.0,2.5,1.0,1.0,0.4199810666678887,0.6213576460319459,,,,,,,,,,,,,,,,,,,0.007924275242828752,-0.47517427240941473,0.043742712561785566,0.8875894772463455,,,,,,,,,,
31,240722_151216,FalseCHOICE,9.0,32,2.0,1472.0,,,,,,,,,,,32.0,32.0,,,A,,,,,,False,cue1.png,Easy,cue2.png,Hard,Right,Hard,Mid,0.0167755000293254,,,,,,,,,,,,,49,28,Female,0.14285714285714285,0.25,0.0,0.25,3.111111111111111,3.75,3.5555555555555554,3.2222222222222223,1.625,3.7777777777777777,2.0,2.25,3.0,2.5,0.8194444444444444,0.8333333333333334,0.4051735888675062,0.10105550530554201,,,,,,,,,,,,,,,,,,,0.00639993534922653,-0.5682966627528198,0.03867294026649633,0.08708744043277258,9.103949874810961e+43,-0.16455508462943533,,,,,,,,
32,240722_151234,FalseCHOICE,9.0,33,2.0,1472.0,,,,,,,,,,,33.0,33.0,,,A,,,,,,False,cue2.png,Hard,cue1.png,Easy,Left,Hard,Mid,0.0136647999752312,,,,,,,,,,,,,49,28,Female,0.14285714285714285,0.25,0.0,0.25,3.111111111111111,3.75,3.5555555555555554,3.2222222222222223,1.625,3.7777777777777777,2.0,2.25,3.0,2.5,0.5,0.6666666666666667,0.4388467777623898,1.2842571621494865,,,,,,,,,,,,,,,,,,,,,0.02889333189764126,-1.457083769343605,6.953612590472794e+43,-0.16488889741050766,,,,,,,,
33,240722_151251,FalseCHOICE,9.0,34,2.0,1472.0,,,,,,,,,,,34.0,34.0,,,A,,,,,,False,cue2.png,Hard,cue1.png,Easy,Right,Easy,Mid,0.0165656999452039,,,,,,,,,,,,,49,28,Female,0.14285714285714285,0.25,0.0,0.25,3.111111111111111,3.75,3.5555555555555554,3.2222222222222223,1.625,3.7777777777777777,2.0,2.25,3.0,2.5,0.8194444444444444,0.8333333333333334,0.3913214333458907,-0.3856787156558056,,,,,,,,,,,,,,,,,,,0.051919731219048554,2.2125215898775443,0.03951552974476509,0.22012982463976374,2.8836689837988054e+43,-0.16552070489673168,,,,,,,,
34,240722_151308,FalseCHOICE,9.0,35,2.0,1472.0,,,,,,,,,,,35.0,35.0,,,A,,,,,,False,cue2.png,Hard,cue1.png,Easy,Right,Easy,Mid,0.0137838999507948,,,,,,,,,,,,,49,28,Female,0.14285714285714285,0.25,0.0,0.25,3.111111111111111,3.75,3.5555555555555554,3.2222222222222223,1.625,3.7777777777777777,2.0,2.25,3.0,2.5,0.8194444444444444,0.8333333333333334,0.3907528000159396,-0.40565923785211794,,,,,,,,,,,,,,,,,,,0.006934600268105423,-0.5356338193228638,,,,,,,,,,,,
35,240722_151326,FalseCHOICE,9.0,36,2.0,1472.0,,,,,,,,,,,36.0,36.0,,,A,,,,,,False,cue1.png,Easy,cue2.png,Hard,Left,Easy,Mid,0.0163047000532969,,,,,,,,,,,,,49,28,Female,0.14285714285714285,0.25,0.0,0.25,3.111111111111111,3.75,3.5555555555555554,3.2222222222222223,1.625,3.7777777777777777,2.0,2.25,3.0,2.5,0.5,0.6666666666666667,0.3824120888667595,-0.6987334483693809,,,,,,,,,,,,,,,,,,,0.04036912579829301,1.5068915717899032,0.04077296049849028,0.4186744181404102,-5.9897661663785e+43,-0.16689819394773767,,,,,,,,
36,240722_151344,FalseCHOICE,9.0,37,2.0,1472.0,,,,,,,,,,,37.0,37.0,,,A,,,,,,False,cue2.png,Hard,cue1.png,Easy,Left,Hard,Mid,0.0173529000021517,,,,,,,,,,,,,49,28,Female,0.14285714285714285,0.25,0.0,0.25,3.111111111111111,3.75,3.5555555555555554,3.2222222222222223,1.625,3.7777777777777777,2.0,2.25,3.0,2.5,0.8194444444444444,0.8333333333333334,0.4258267666704746,0.8267626627668833,,,,,,,,,,,,,,,,,,,0.006471314592544431,-0.5639360829460691,0.036229910919180514,-0.2986596611360308,-8.369831053437618e+43,-0.167267669045839,,,,,,,,
37,240722_151402,FalseCHOICE,9.0,38,2.0,1472.0,,,,,,,,,,,38.0,38.0,,,A,,,,,,False,cue1.png,Easy,cue2.png,Hard,Left,Easy,Mid,0.0160578999202698,,,,,,,,,,,,,49,28,Female,0.14285714285714285,0.25,0.0,0.25,3.111111111111111,3.75,3.5555555555555554,3.2222222222222223,1.625,3.7777777777777777,2.0,2.25,3.0,2.5,0.5,0.6666666666666667,0.428020722245694,0.9038534271653816,,,,,,,,,,,,,,,,,,,0.06370587461302961,2.9325406947925123,0.05043048934120398,1.9435696321447078,-7.579329527194476e+43,-0.16714495363982385,,,,,,,,
38,240722_151420,FalseCHOICE,9.0,39,2.0,1472.0,,,,,,,,,,,39.0,39.0,,,A,,,,,,False,cue1.png,Easy,cue2.png,Hard,Right,Hard,Mid,0.0167614000383764,,,,,,,,,,,,,49,28,Female,0.14285714285714285,0.25,0.0,0.25,3.111111111111111,3.75,3.5555555555555554,3.2222222222222223,1.625,3.7777777777777777,2.0,2.25,3.0,2.5,0.8194444444444444,0.8333333333333334,0.3906089888833877,-0.41071244415340397,,,,,,,,,,,,,,,,,,,0.030982201349457172,0.9334414860725708,,,-4.2934185451249823e+43,-0.1666348573441079,,,,,,,,
39,240722_151437,FalseCHOICE,9.0,40,2.0,1472.0,,,,,,,,,,,40.0,40.0,,,A,,,,,,False,cue2.png,Hard,cue1.png,Easy,Left,Hard,Mid,0.0160815000999718,,,,,,,,,,,,,49,28,Female,0.14285714285714285,0.25,0.0,0.25,3.111111111111111,3.75,3.5555555555555554,3.2222222222222223,1.625,3.7777777777777777,2.0,2.25,3.0,2.5,0.8194444444444444,0.8333333333333334,0.3793650333278088,-0.8058002656356769,,,,,,,,,,,,,,,,,,,0.006923028862002016,-0.5363407200610167,,,1.0903612902475809e+43,-0.1657990933304266,,,,,,,,
40,240722_151455,FalseCHOICE,9.0,41,2.0,1472.0,,,,,,,,,,,41.0,41.0,,,A,,,,,,False,cue2.png,Hard,cue1.png,Easy,Right,Easy,Mid,0.0167795999441295,,,,,,,,,,,,,49,28,Female,0.14285714285714285,0.25,0.0,0.25,3.111111111111111,3.75,3.5555555555555554,3.2222222222222223,1.625,3.7777777777777777,2.0,2.25,3.0,2.5,0.8194444444444444,0.8333333333333334,0.3859011222246206,-0.576136504471611,,,,,,,,,,,,,,,,,,,0.0067924161701864855,-0.5443198893539662,0.0372627684180851,-0.13557451974229368,5.364465627972656e+43,-0.1651355924619996,,,,,,,,
41,240722_151513,FalseCHOICE,9.0,42,2.0,1472.0,,,,,,,,,,,42.0,42.0,,,A,,,,,,False,cue1.png,Easy,cue2.png,Hard,Left,Easy,Mid,0.0150160000193864,,,,,,,,,,,,,49,28,Female,0.14285714285714285,0.25,0.0,0.25,3.111111111111111,3.75,3.5555555555555554,3.2222222222222223,1.625,3.7777777777777777,2.0,2.25,3.0,2.5,0.8194444444444444,0.8333333333333334,0.3866819222457707,-0.5487009122687898,,,,,,,,,,,,,,,,,,,,,0.045429360629435776,1.1539062139558474,,,,,,,,,,
42,240722_151532,FalseCHOICE,9.0,43,2.0,1472.0,,,,,,,,,,,43.0,43.0,,,A,,,,,,False,cue2.png,Hard,cue1.png,Easy,Right,Easy,Mid,0.0165518000721931,,,,,,,,,,,,,49,28,Female,0.14285714285714285,0.25,0.0,0.25,3.111111111111111,3.75,3.5555555555555554,3.2222222222222223,1.625,3.7777777777777777,2.0,2.25,3.0,2.5,0.8194444444444444,0.8333333333333334,0.3972722888768961,-0.17657876536881736,,,,,,,,,,,,,,,,,,,0.008481639728937975,-0.44112470547433935,,,7.590475911761288e+43,-0.16479003240082257,,,,,,,,
43,240722_151549,FalseCHOICE,9.0,44,2.0,1472.0,,,,,,,,,,,44.0,44.0,,,A,,,,,,False,cue1.png,Easy,cue2.png,Hard,Right,Hard,Mid,0.0167566000018268,,,,,,,,,,,,,49,28,Female,0.14285714285714285,0.25,0.0,0.25,3.111111111111111,3.75,3.5555555555555554,3.2222222222222223,1.625,3.7777777777777777,2.0,2.25,3.0,2.5,0.8194444444444444,0.8333333333333334,0.3586597222084593,-1.5333392729557125,,,,,,,,,,,,,,,,,,,0.008642928573899863,-0.43127152060289675,0.03887497942562974,0.11898882554087206,2.7270966029296794e+43,-0.16554501078691816,,,,,,,,
44,240722_151607,FalseCHOICE,9.0,45,2.0,1472.0,,,,,,,,,,,45.0,45.0,,,A,,,,,,False,cue2.png,Hard,cue1.png,Easy,Right,Easy,Mid,0.016522999969311,,,,,,,,,,,,,49,28,Female,0.14285714285714285,0.25,0.0,0.25,3.111111111111111,3.75,3.5555555555555554,3.2222222222222223,1.625,3.7777777777777777,2.0,2.25,3.0,2.5,0.8194444444444444,0.8333333333333334,0.3887651999894943,-0.47549912298371116,,,,,,,,,,,,,,,,,,,0.007117666112799403,-0.524450270876951,,,-3.3920368904987363e+43,-0.16649492919463577,,,,,,,,
45,240722_151625,FalseCHOICE,9.0,46,2.0,1472.0,,,,,,,,,,,46.0,46.0,,,A,,,,,,False,cue2.png,Hard,cue1.png,Easy,Right,Easy,Mid,0.0165235000895336,,,,,,,,,,,,,49,28,Female,0.14285714285714285,0.25,0.0,0.25,3.111111111111111,3.75,3.5555555555555554,3.2222222222222223,1.625,3.7777777777777777,2.0,2.25,3.0,2.5,0.8194444444444444,0.8333333333333334,0.3758575444420178,-0.9290456961170236,,,,,,,,,,,,,,,,,,,0.0654941663491939,3.041787983931842,0.04086687731005241,0.4335036046536542,-8.545443315044669e+43,-0.1672949306377132,,,,,,,,
46,240722_151642,FalseCHOICE,9.0,47,2.0,1472.0,,,,,,,,,,,47.0,47.0,,,A,,,,,,False,cue1.png,Easy,cue2.png,Hard,Right,Hard,Mid,0.0168841000413522,,,,,,,,,,,,,49,28,Female,0.14285714285714285,0.25,0.0,0.25,3.111111111111111,3.75,3.5555555555555554,3.2222222222222223,1.625,3.7777777777777777,2.0,2.25,3.0,2.5,0.8194444444444444,0.8333333333333334,0.4109735000335301,0.30485160322218124,,,,,,,,,,,,,,,,,,,0.00895073470087112,-0.4124675501588949,0.04470616318389948,1.0397154782677565,-7.130874306337485e+43,-0.16707533661483384,,,,,,,,
47,240722_151659,FalseCHOICE,9.0,48,2.0,1472.0,,,,,,,,,,,48.0,48.0,,,A,,,,,,False,cue1.png,Easy,cue2.png,Hard,Left,Easy,Mid,0.0166179999941959,,,,,,,,,,,,,49,28,Female,0.14285714285714285,0.25,0.0,0.25,3.111111111111111,3.75,3.5555555555555554,3.2222222222222223,1.625,3.7777777777777777,2.0,2.25,3.0,2.5,0.8194444444444444,0.8333333333333334,0.3950199999768908,-0.25571923425925835,,,,,,,,,,,,,,,,,,,0.016078549422451814,0.02297283133630689,,,3.0459229016807734e+43,-0.1654955170194798,,,,,,,,
48,240722_151717,FalseCHOICE,9.0,49,2.0,1472.0,,,,,,,,,,,49.0,49.0,,,A,,,,,,False,cue2.png,Hard,cue1.png,Easy,Left,Hard,Mid,0.0149420000379905,,,,,,,,,,,,,49,28,Female,0.14285714285714285,0.25,0.0,0.25,3.111111111111111,3.75,3.5555555555555554,3.2222222222222223,1.625,3.7777777777777777,2.0,2.25,3.0,2.5,0.8194444444444444,0.8333333333333334,0.4120711222316863,0.3434196285880358,,,,,,,,,,,,,,,,,,,0.007317386914479326,-0.5122492660145873,0.04136811420593377,0.5126474266458109,1.0996955394634526e+44,-0.16426121936385113,,,,,,,,
49,240722_151735,FalseCHOICE,9.0,50,2.0,1472.0,,,,,,,,,,,50.0,50.0,,,A,,,,,,False,cue1.png,Easy,cue2.png,Hard,Left,Easy,Mid,0.016940200002864,,,,,,,,,,,,,49,28,Female,0.14285714285714285,0.25,0.0,0.25,3.111111111111111,3.75,3.5555555555555554,3.2222222222222223,1.625,3.7777777777777777,2.0,2.25,3.0,2.5,0.8194444444444444,0.8333333333333334,0.3975072444494192,-0.1683229442892666,,,,,,,,,,,,,,,,,,,,,0.050288159361649806,1.9210961497284236,-3.31631053260838e+43,-0.1664831736313053,,,,,,,,
0,240722_144134,OFFLINERATING,9.0,1,1.0,,,,,,,,,,,,,,,,,T0,cue1.png,Easy,72.0,1.677834999980405,,,,,,,,,,,,,,,,,,,,,,49,28,Female,0.14285714285714285,0.25,0.0,0.25,3.111111111111111,3.75,3.5555555555555554,3.2222222222222223,1.625,3.7777777777777777,2.0,2.25,3.0,2.5,,,,,,,,,,,,,,,,,,,,,,,,,,,,,0.9053662845289709,,,,,388061612.40978175,1.4142134810120086,
1,240722_144142,OFFLINERATING,9.0,2,3.0,,,,,,,,,,,,,,,,,T0,cue2.png,Hard,29.0,1.2017526000272485,,,,,,,,,,,,,,,,,,,,,,49,28,Female,0.14285714285714285,0.25,0.0,0.25,3.111111111111111,3.75,3.5555555555555554,3.2222222222222223,1.625,3.7777777777777777,2.0,2.25,3.0,2.5,,,,,,,,,,,,,,,,,,,,,,,,,,,,,-1.7795130420052188,,,,,,,
2,240722_145824,OFFLINERATING,9.0,3,1.0,,,,,,,,,,,,,,,,,T1,cue1.png,Easy,70.0,0.9961621999973432,,,,,,,,,,,,,,,,,,,,,,49,28,Female,0.14285714285714285,0.25,0.0,0.25,3.111111111111111,3.75,3.5555555555555554,3.2222222222222223,1.625,3.7777777777777777,2.0,2.25,3.0,2.5,,,,,,,,,,,,,,,,,,,,,,,,,,,,,0.7804881763180784,0.006561756333328237,0.015218650097713607,0.02336571551392079,-1.2148542249798597,170001.84934582096,-0.7066912974623093,
3,240722_145831,OFFLINERATING,9.0,4,3.0,,,,,,,,,,,,,,,,,T1,cue2.png,Hard,50.0,0.5847059999359772,,,,,,,,,,,,,,,,,,,,,,49,28,Female,0.14285714285714285,0.25,0.0,0.25,3.111111111111111,3.75,3.5555555555555554,3.2222222222222223,1.625,3.7777777777777777,2.0,2.25,3.0,2.5,,,,,,,,,,,,,,,,,,,,,,,,,,,,,-0.46829290579084704,0.0073091199872503685,1.2170646293230394,0.03896191658029949,1.206394599288481,,,
4,240722_150206,OFFLINERATING,9.0,5,1.0,,,,,,,,,,,,,,,,,T2,cue1.png,Easy,78.0,0.9513082000194116,,,,,,,,,,,,,,,,,,,,,,49,28,Female,0.14285714285714285,0.25,0.0,0.25,3.111111111111111,3.75,3.5555555555555554,3.2222222222222223,1.625,3.7777777777777777,2.0,2.25,3.0,2.5,,,,,,,,,,,,,,,,,,,,,,,,,,,,,1.2800006091616485,,,0.02650969011195809,-0.7267645442538556,,,
5,240722_150213,OFFLINERATING,9.0,6,3.0,,,,,,,,,,,,,,,,,T2,cue2.png,Hard,69.0,0.667925100075081,,,,,,,,,,,,,,,,,,,,,,49,28,Female,0.14285714285714285,0.25,0.0,0.25,3.111111111111111,3.75,3.5555555555555554,3.2222222222222223,1.625,3.7777777777777777,2.0,2.25,3.0,2.5,,,,,,,,,,,,,,,,,,,,,,,,,,,,,0.7180491222126322,0.005786001688859741,-1.2322832794207572,0.03592692543072614,0.7352241699452321,18041.35309863705,-0.7075221835496994,
6,240722_151751,OFFLINERATING,9.0,7,1.0,,,,,,,,,,,,,,,,,T3,cue1.png,Easy,46.0,1.0628638999769464,,,,,,,,,,,,,,,,,,,,,,49,28,Female,0.14285714285714285,0.25,0.0,0.25,3.111111111111111,3.75,3.5555555555555554,3.2222222222222223,1.625,3.7777777777777777,2.0,2.25,3.0,2.5,,,,,,,,,,,,,,,,,,,,,,,,,,,,,-0.7180491222126322,,,,,,,
7,240722_151758,OFFLINERATING,9.0,8,3.0,,,,,,,,,,,,,,,,,T3,cue2.png,Hard,46.0,0.6677925999974832,,,,,,,,,,,,,,,,,,,,,,49,28,Female,0.14285714285714285,0.25,0.0,0.25,3.111111111111111,3.75,3.5555555555555554,3.2222222222222223,1.625,3.7777777777777777,2.0,2.25,3.0,2.5,,,,,,,,,,,,,,,,,,,,,,,,,,,,,-0.7180491222126322,,,,,,,
0,240722_150227,LEARNINGCHECK,9.0,1,,,,,,,,,,,,1.0,1.0,1.0,,,A,,,,,,,,,,,,,,,cue1.png,Easy,Left,Left,Easy,0.0128679999615997,1.0,,,,,,49,28,Female,0.14285714285714285,0.25,0.0,0.25,3.111111111111111,3.75,3.5555555555555554,3.2222222222222223,1.625,3.7777777777777777,2.0,2.25,3.0,2.5,,,,,,,,,,,,,,,,,,,,,,,,,,,,,,,,,,,,
1,240722_150232,LEARNINGCHECK,9.0,2,,,,,,,,,,,,2.0,2.0,2.0,,,A,,,,,,,,,,,,,,,cue2.png,Hard,Right,Right,Hard,0.0149646999780088,1.0,,,,,,49,28,Female,0.14285714285714285,0.25,0.0,0.25,3.111111111111111,3.75,3.5555555555555554,3.2222222222222223,1.625,3.7777777777777777,2.0,2.25,3.0,2.5,,,,,,,,,,,,,,,,,,,,,,,,,,,,,,,,,,,,
2,240722_151810,LEARNINGCHECK,9.0,1,,,,,,,,,,,,1.0,1.0,1.0,,,A,,,,,,,,,,,,,,,cue1.png,Easy,Middle,Middle,Mid,0.0155303999781608,1.0,,,,,,49,28,Female,0.14285714285714285,0.25,0.0,0.25,3.111111111111111,3.75,3.5555555555555554,3.2222222222222223,1.625,3.7777777777777777,2.0,2.25,3.0,2.5,,,,,,,,,,,,,,,,,,,,,,,,,,,,,,,,,,,,
3,240722_151815,LEARNINGCHECK,9.0,2,,,,,,,,,,,,2.0,2.0,2.0,,,A,,,,,,,,,,,,,,,cue2.png,Hard,Middle,Middle,Mid,0.0163586999988183,1.0,,,,,,49,28,Female,0.14285714285714285,0.25,0.0,0.25,3.111111111111111,3.75,3.5555555555555554,3.2222222222222223,1.625,3.7777777777777777,2.0,2.25,3.0,2.5,,,,,,,,,,,,,,,,,,,,,,,,,,,,,,,,,,,,
0,240722_151826,DEMANDRATING,9.0,-1,,,,,,,,,,,,,,,,,,,,,,,,,,,,,,,,,,,,,,,1.0,MentalDemand,1.0,24.0,3.2842896000947803,49,28,Female,0.14285714285714285,0.25,0.0,0.25,3.111111111111111,3.75,3.5555555555555554,3.2222222222222223,1.625,3.7777777777777777,2.0,2.25,3.0,2.5,,,,,,,,,,,,,,,,,,,,,,,,,,,,,,,,,,,,-1.802804433863429
1,240722_151830,DEMANDRATING,9.0,-1,,,,,,,,,,,,,,,,,,,,,,,,,,,,,,,,,,,,,,,2.0,Effort,1.0,34.0,2.6238253000192344,49,28,Female,0.14285714285714285,0.25,0.0,0.25,3.111111111111111,3.75,3.5555555555555554,3.2222222222222223,1.625,3.7777777777777777,2.0,2.25,3.0,2.5,,,,,,,,,,,,,,,,,,,,,,,,,,,,,,,,,,,,-1.31261591710298
2,240722_151833,DEMANDRATING,9.0,-1,,,,,,,,,,,,,,,,,,,,,,,,,,,,,,,,,,,,,,,3.0,Frustration,1.0,41.0,2.18277269997634,49,28,Female,0.14285714285714285,0.25,0.0,0.25,3.111111111111111,3.75,3.5555555555555554,3.2222222222222223,1.625,3.7777777777777777,2.0,2.25,3.0,2.5,,,,,,,,,,,,,,,,,,,,,,,,,,,,,,,,,,,,-0.9694839553706658
3,240722_151837,DEMANDRATING,9.0,-1,,,,,,,,,,,,,,,,,,,,,,,,,,,,,,,,,,,,,,,4.0,MentalDemand,2.0,82.0,1.731603700085543,49,28,Female,0.14285714285714285,0.25,0.0,0.25,3.111111111111111,3.75,3.5555555555555554,3.2222222222222223,1.625,3.7777777777777777,2.0,2.25,3.0,2.5,,,,,,,,,,,,,,,,,,,,,,,,,,,,,,,,,,,,1.040288963347175
4,240722_151840,DEMANDRATING,9.0,-1,,,,,,,,,,,,,,,,,,,,,,,,,,,,,,,,,,,,,,,5.0,Effort,2.0,70.0,1.6103916000574827,49,28,Female,0.14285714285714285,0.25,0.0,0.25,3.111111111111111,3.75,3.5555555555555554,3.2222222222222223,1.625,3.7777777777777777,2.0,2.25,3.0,2.5,,,,,,,,,,,,,,,,,,,,,,,,,,,,,,,,,,,,0.4520627432346362
5,240722_151842,DEMANDRATING,9.0,-1,,,,,,,,,,,,,,,,,,,,,,,,,,,,,,,,,,,,,,,6.0,Frustration,2.0,75.0,0.7701748999534175,49,28,Female,0.14285714285714285,0.25,0.0,0.25,3.111111111111111,3.75,3.5555555555555554,3.2222222222222223,1.625,3.7777777777777777,2.0,2.25,3.0,2.5,,,,,,,,,,,,,,,,,,,,,,,,,,,,,,,,,,,,0.6971570016148607
6,240722_151845,DEMANDRATING,9.0,-1,,,,,,,,,,,,,,,,,,,,,,,,,,,,,,,,,,,,,,,7.0,MentalDemand,3.0,76.0,1.3469467000104487,49,28,Female,0.14285714285714285,0.25,0.0,0.25,3.111111111111111,3.75,3.5555555555555554,3.2222222222222223,1.625,3.7777777777777777,2.0,2.25,3.0,2.5,,,,,,,,,,,,,,,,,,,,,,,,,,,,,,,,,,,,0.7461758532909056
7,240722_151848,DEMANDRATING,9.0,-1,,,,,,,,,,,,,,,,,,,,,,,,,,,,,,,,,,,,,,,8.0,Effort,3.0,77.0,1.9369276999495924,49,28,Female,0.14285714285714285,0.25,0.0,0.25,3.111111111111111,3.75,3.5555555555555554,3.2222222222222223,1.625,3.7777777777777777,2.0,2.25,3.0,2.5,,,,,,,,,,,,,,,,,,,,,,,,,,,,,,,,,,,,0.7951947049669504
8,240722_151852,DEMANDRATING,9.0,-1,,,,,,,,,,,,,,,,,,,,,,,,,,,,,,,,,,,,,,,9.0,Frustration,3.0,68.0,1.5234549000160769,49,28,Female,0.14285714285714285,0.25,0.0,0.25,3.111111111111111,3.75,3.5555555555555554,3.2222222222222223,1.625,3.7777777777777777,2.0,2.25,3.0,2.5,,,,,,,,,,,,,,,,,,,,,,,,,,,,,,,,,,,,0.3540250398825464
