,END,Phase,Block,TrialN,NbackLevel,ISI,Letter_Resp,Letter_RT,Letter_Accuracy,Trial_A_measure,Trial_ACC,Trial_RT,TrialCountCali,CaliEnd_A_measure,ISI_calibrated,TrialIndex,TrialNumber_total,TrialNumber_valid,CueLearning,TrialDemandLearning,CueMapping,OfflineRatingTimePoint,CueFigure,TrialDemand,OfflineRating,OfflineRatingRT,PhaseType,CueLeft,CueDemandLeft,CueRight,CueDemandRight,Choice,ChoiceDemand,TaskDemand,ChoiceRT,CueCheck,CueDemandCheck,CorrectAnswer,Answer,AnswerDemand,AnswerRT,AnswerACC,DemandRatingQuesIndex,QuesTLX,DemandLevel,DemandRating,DemandRatingRT,PID,Age,Gender,BAI_bis,BAI_bas_d,BAI_bas_rr,BAI_bas_fs,NFC,BFI_ext,BFI_agr,BFI_con,BFI_neu,BFI_open,UPPS_lps,UPPS_lpm,UPPS_pu,UPPS_ss,Task_A_measure,Task_ACC,Task_RT,Task_RT_z,Task_RT_log,Task_RT_log_z,cue_i_on_zyg_values,cue_i_on_zyg_zvalues,cue_e_on_zyg_values,cue_e_on_zyg_zvalues,cue_i_on_cor_values,cue_i_on_cor_zvalues,cue_e_on_cor_values,cue_e_on_cor_zvalues,cue_i_on_scr_values,cue_i_on_scr_zvalues,cue_e_on_scr_values,cue_e_on_scr_zvalues,cue_e_true_zyg_values,cue_e_true_zyg_zvalues,cue_e_true_cor_values,cue_e_true_cor_zvalues,cue_e_true_scr_values,cue_e_true_scr_zvalues,cue_e_false_zyg_values,cue_e_false_zyg_zvalues,cue_e_false_cor_values,cue_e_false_cor_zvalues,cue_e_false_scr_values,cue_e_false_scr_zvalues,OfflineRating_z,cue_i_off_zyg_values,cue_i_off_zyg_zvalues,cue_i_off_cor_values,cue_i_off_cor_zvalues,cue_i_off_scr_values,cue_i_off_scr_zvalues,DemandRating_z
0,240722_143902,PRACTICE,0.0,1,1.0,1472.0,,,,,,,,,,13.0,1.0,1.0,cue1.png,Easy,A,,,,,,,,,,,,,,,,,,,,,,,,,,,49,28,Female,0.14285714285714285,0.25,0.0,0.25,3.111111111111111,3.75,3.5555555555555554,3.2222222222222223,1.625,3.7777777777777777,2.0,2.25,3.0,2.5,,,,,,,,,,,,,,,,,,,,,,,,,,,,,,,,,,,,,,
0,240722_144217,LEARNING,1.0,1,1.0,1472.0,,,,,,,,,,1.0,1.0,1.0,cue1.png,Easy,A,,,,,,,,,,,,,,,,,,,,,,,,,,,49,28,Female,0.14285714285714285,0.25,0.0,0.25,3.111111111111111,3.75,3.5555555555555554,3.2222222222222223,1.625,3.7777777777777777,2.0,2.25,3.0,2.5,1.0,1.0,0.4595109000025938,1.8859333482280314,-0.7775926160257556,1.8068627258366432,,,,,,,,,1.2579999999999998,0.09649099131063828,,,,,,,,,,,,,,,,,,,,,,
1,240722_144236,LEARNING,1.0,2,3.0,1472.0,,,,,,,,,,2.0,2.0,2.0,cue2.png,Hard,A,,,,,,,,,,,,,,,,,,,,,,,,,,,49,28,Female,0.14285714285714285,0.25,0.0,0.25,3.111111111111111,3.75,3.5555555555555554,3.2222222222222223,1.625,3.7777777777777777,2.0,2.25,3.0,2.5,0.5,0.6666666666666667,0.3950490777561855,0.16747267884445516,-0.9287452743150807,0.21655958424495536,-0.0008634288218104507,-0.7258120504108367,0.00024800861253348235,0.09900216387635426,,,-0.00011804945861965295,-0.24523860272519296,1.1340000000000001,-0.09965463037000384,1.4629999999999999,-0.3784002196350591,,,,,,,,,,,,,,,,,,,,
2,240722_144256,LEARNING,1.0,3,1.0,1472.0,,,,,,,,,,3.0,3.0,3.0,cue1.png,Easy,A,,,,,,,,,,,,,,,,,,,,,,,,,,,49,28,Female,0.14285714285714285,0.25,0.0,0.25,3.111111111111111,3.75,3.5555555555555554,3.2222222222222223,1.625,3.7777777777777777,2.0,2.25,3.0,2.5,0.8194444444444444,0.8333333333333334,0.4069337000061447,0.4842998363046807,-0.8991050060568673,0.5284099497107816,-0.00012722659969090135,0.18510645161914802,,,,,0.0006040968763432039,1.0419989558684626,1.573,0.5947641431606582,1.117,-1.0461004469089277,,,,,,,,,,,,,,,,,,,,
3,240722_144316,LEARNING,1.0,4,3.0,1472.0,,,,,,,,,,4.0,4.0,4.0,cue2.png,Hard,A,,,,,,,,,,,,,,,,,,,,,,,,,,,49,28,Female,0.14285714285714285,0.25,0.0,0.25,3.111111111111111,3.75,3.5555555555555554,3.2222222222222223,1.625,3.7777777777777777,2.0,2.25,3.0,2.5,0.8194444444444444,0.8333333333333334,0.5173647000143925,3.4282335257598344,-0.6590072372739765,3.054519912353442,-0.0005334007195665564,-0.3174613344101605,0.00011515279774067678,-0.11543124190841504,0.0009332252906769107,1.4767802339170963,-0.00039028154643746225,-0.7304967161122455,1.5770000000000002,0.601091421279389,1.59,-0.13331950037557497,,,,,,,,,,,,,,,,,,,,
4,240722_144336,LEARNING,1.0,5,3.0,1472.0,,,,,,,,,,5.0,5.0,5.0,cue2.png,Hard,A,,,,,,,,,,,,,,,,,,,,,,,,,,,49,28,Female,0.14285714285714285,0.25,0.0,0.25,3.111111111111111,3.75,3.5555555555555554,3.2222222222222223,1.625,3.7777777777777777,2.0,2.25,3.0,2.5,0.5,0.6666666666666667,0.4259790777901394,0.9920225707045782,-0.8533650470875447,1.0096479330081338,-0.001868699330309552,-1.9696544054373364,0.00033234468565604804,0.235123201697609,-0.0004263068674814213,-0.6000263201331355,-0.00017977296572277597,-0.3552617555746066,,,1.575,-0.16226604202039613,,,,,,,,,,,,,,,,,,,,
5,240722_144356,LEARNING,1.0,6,1.0,1472.0,,,,,,,,,,6.0,6.0,6.0,cue1.png,Easy,A,,,,,,,,,,,,,,,,,,,,,,,,,,,49,28,Female,0.14285714285714285,0.25,0.0,0.25,3.111111111111111,3.75,3.5555555555555554,3.2222222222222223,1.625,3.7777777777777777,2.0,2.25,3.0,2.5,1.0,1.0,0.4258069111060144,0.9874328513181782,-0.8537692957807939,1.0053947629075595,0.00013608816122494738,0.5109113464825308,9.545802813384473e-05,-0.1472192109147069,0.00047578044857154826,0.7779924630652283,,,0.1100000000000001,-1.7194378287649883,,,,,,,,,,,,,,,,,,,,,,
6,240722_144416,LEARNING,1.0,7,3.0,1472.0,,,,,,,,,,7.0,7.0,7.0,cue2.png,Hard,A,,,,,,,,,,,,,,,,,,,,,,,,,,,49,28,Female,0.14285714285714285,0.25,0.0,0.25,3.111111111111111,3.75,3.5555555555555554,3.2222222222222223,1.625,3.7777777777777777,2.0,2.25,3.0,2.5,0.8194444444444444,0.8333333333333334,0.4441405444328363,1.4761814889010827,-0.8116142251232109,1.4489155190721783,,,7.023186892897004e-05,-0.1879350142960356,0.00013700698053445252,0.26048579392483623,0.00041102601260552957,0.6978470087620149,,,1.4659999999999997,-0.37261091130609514,,,,,,,,,,,,,,,,,,,,
7,240722_144435,LEARNING,1.0,8,3.0,1472.0,,,,,,,,,,8.0,8.0,8.0,cue2.png,Hard,A,,,,,,,,,,,,,,,,,,,,,,,,,,,49,28,Female,0.14285714285714285,0.25,0.0,0.25,3.111111111111111,3.75,3.5555555555555554,3.2222222222222223,1.625,3.7777777777777777,2.0,2.25,3.0,2.5,0.8194444444444444,0.8333333333333334,0.3660044777724478,-0.606815124240618,-1.0051097113046594,-0.5868838048746141,,,0.00012022000807017288,-0.10725260726998255,0.000349412836077043,0.5849546711502654,-7.259176014367055e-06,-0.0477531264552558,,,1.959,0.5787654240870194,,,,,,,,,,,,,,,,,,,,
8,240722_144455,LEARNING,1.0,9,1.0,1472.0,,,,,,,,,,9.0,9.0,9.0,cue1.png,Easy,A,,,,,,,,,,,,,,,,,,,,,,,,,,,49,28,Female,0.14285714285714285,0.25,0.0,0.25,3.111111111111111,3.75,3.5555555555555554,3.2222222222222223,1.625,3.7777777777777777,2.0,2.25,3.0,2.5,1.0,1.0,0.4198513333426995,0.8286656028437169,-0.8678545985979327,0.8572008669226809,,,1.8989283099551686e-05,-0.27064213718528957,-0.0004514548574442879,-0.6384421163779407,-6.944371402420497e-05,-0.1585980743759224,,,0.9349999999999998,-1.3973184855327552,,,,,,,,,,,,,,,,,,,,
9,240722_144514,LEARNING,1.0,10,1.0,1472.0,,,,,,,,,,10.0,10.0,10.0,cue1.png,Easy,A,,,,,,,,,,,,,,,,,,,,,,,,,,,49,28,Female,0.14285714285714285,0.25,0.0,0.25,3.111111111111111,3.75,3.5555555555555554,3.2222222222222223,1.625,3.7777777777777777,2.0,2.25,3.0,2.5,0.8194444444444444,0.8333333333333334,0.3566552222473547,-0.8560530040894898,-1.0309857278660481,-0.8591298301524984,-5.5245266610545914e-05,0.27417046981092036,7.104699590513262e-05,-0.1866193740742043,-0.0006266342133176006,-0.906044197159044,,,0.8560000000000001,-0.5394004596217672,2.778,2.159246597894241,,,,,,,,,,,,,,,,,,,,
10,240722_144534,LEARNING,1.0,11,3.0,1472.0,,,,,,,,,,11.0,11.0,11.0,cue2.png,Hard,A,,,,,,,,,,,,,,,,,,,,,,,,,,,49,28,Female,0.14285714285714285,0.25,0.0,0.25,3.111111111111111,3.75,3.5555555555555554,3.2222222222222223,1.625,3.7777777777777777,2.0,2.25,3.0,2.5,0.8194444444444444,0.8333333333333334,0.4327901777837218,1.1735968273160142,-0.8375022462921375,1.176543191251572,2.7355956468575957e-05,0.376374701382582,,,-2.2811363398329843e-05,0.016349028093069956,-0.0008843206731249664,-1.611129475011,0.8460000000000001,-0.5552186549185932,,,,,,,,,,,,,,,,,,,,,,
11,240722_144553,LEARNING,1.0,12,1.0,1472.0,,,,,,,,,,12.0,12.0,12.0,cue1.png,Easy,A,,,,,,,,,,,,,,,,,,,,,,,,,,,49,28,Female,0.14285714285714285,0.25,0.0,0.25,3.111111111111111,3.75,3.5555555555555554,3.2222222222222223,1.625,3.7777777777777777,2.0,2.25,3.0,2.5,1.0,1.0,0.4175175555541904,0.7664504000946621,-0.8734286863436772,0.7985549300672569,-3.3675384960462316e-05,0.3008593382920421,3.432454821952584e-05,-0.24589054363692414,-0.0007870112363273212,-1.151034395078925,-0.0005932786668326646,-1.0923423767601013,-0.10399999999999998,-2.0579472081170653,1.553,-0.2047209697661335,,,,,,,,,,,,,,,,,,,,
12,240722_144613,LEARNING,1.0,13,1.0,1472.0,,,,,,,,,,13.0,13.0,13.0,cue1.png,Easy,A,,,,,,,,,,,,,,,,,,,,,,,,,,,49,28,Female,0.14285714285714285,0.25,0.0,0.25,3.111111111111111,3.75,3.5555555555555554,3.2222222222222223,1.625,3.7777777777777777,2.0,2.25,3.0,2.5,1.0,1.0,0.4049175777601906,0.43055287936794223,-0.9040717442901477,0.47615404164246,-8.097207826341518e-06,0.3325077551259258,0.002529885179595115,3.782021718711681,-3.0188679508226166e-05,0.005079520155068889,,,0.859,-0.5346550010327196,,,,,,,,,,,,,,,,,,,,,,
13,240722_144633,LEARNING,1.0,14,1.0,1472.0,,,,,,,,,,14.0,14.0,14.0,cue1.png,Easy,A,,,,,,,,,,,,,,,,,,,,,,,,,,,49,28,Female,0.14285714285714285,0.25,0.0,0.25,3.111111111111111,3.75,3.5555555555555554,3.2222222222222223,1.625,3.7777777777777777,2.0,2.25,3.0,2.5,1.0,1.0,0.4356668555539929,1.25028497286369,-0.8308774204668389,1.246244124346007,,,7.410709519757846e-05,-0.181680278902931,0.0003333457935003146,0.5604108314718018,3.324906506249614e-05,0.02445347049352827,,,,,,,,,,,,,,,,,,,,,,,,
14,240722_144652,LEARNING,1.0,15,3.0,1472.0,,,,,,,,,,15.0,15.0,15.0,cue2.png,Hard,A,,,,,,,,,,,,,,,,,,,,,,,,,,,49,28,Female,0.14285714285714285,0.25,0.0,0.25,3.111111111111111,3.75,3.5555555555555554,3.2222222222222223,1.625,3.7777777777777777,2.0,2.25,3.0,2.5,1.0,1.0,0.4291727444312225,1.0771611895423272,-0.8458957734311433,1.0882334471209347,-0.00023027438942982556,0.05760325284282221,-2.241760265710201e-05,-0.33747413508908713,,,,,,,,,,,,,,,,,,,,,,,,,,,,
15,240722_144712,LEARNING,1.0,16,1.0,1472.0,,,,,,,,,,16.0,16.0,16.0,cue1.png,Easy,A,,,,,,,,,,,,,,,,,,,,,,,,,,,49,28,Female,0.14285714285714285,0.25,0.0,0.25,3.111111111111111,3.75,3.5555555555555554,3.2222222222222223,1.625,3.7777777777777777,2.0,2.25,3.0,2.5,1.0,1.0,0.4030160221866228,0.37986010727514785,-0.9087789605388489,0.42662860905541294,0.00011588006414242581,0.4859074427041775,,,0.0006162617393281403,0.9925901565541004,,,,,,,,,,,,,,,,,,,,,,,,,,
16,240722_144732,LEARNING,1.0,17,1.0,1472.0,,,,,,,,,,17.0,17.0,17.0,cue1.png,Easy,A,,,,,,,,,,,,,,,,,,,,,,,,,,,49,28,Female,0.14285714285714285,0.25,0.0,0.25,3.111111111111111,3.75,3.5555555555555554,3.2222222222222223,1.625,3.7777777777777777,2.0,2.25,3.0,2.5,1.0,1.0,0.4053404888836667,0.44182708954401234,-0.9030278517840673,0.4871370144243612,-0.0032794611621199594,-3.71521970793534,-2.179486173684497e-05,-0.3364690119286104,-0.00023441331677665628,-0.30689181692029277,0.0003667822347487703,0.6189817568955436,,,,,,,,,,,,,,,,,,,,,,,,
17,240722_144751,LEARNING,1.0,18,3.0,1472.0,,,,,,,,,,18.0,18.0,18.0,cue2.png,Hard,A,,,,,,,,,,,,,,,,,,,,,,,,,,,49,28,Female,0.14285714285714285,0.25,0.0,0.25,3.111111111111111,3.75,3.5555555555555554,3.2222222222222223,1.625,3.7777777777777777,2.0,2.25,3.0,2.5,0.5,0.6666666666666667,0.404983999983718,0.4323236015524389,-0.9039077188690309,0.4778797813380443,-0.00010149279084877656,0.21694743484045068,-2.7637500394453365e-05,-0.3458992119396119,-0.001311844168205345,-1.952763479723894,0.0006027562180049052,1.0396092106288242,,,,,,,,,,,,,,,,,,,,,,,,
18,240722_144811,LEARNING,1.0,19,3.0,1472.0,,,,,,,,,,19.0,19.0,19.0,cue2.png,Hard,A,,,,,,,,,,,,,,,,,,,,,,,,,,,49,28,Female,0.14285714285714285,0.25,0.0,0.25,3.111111111111111,3.75,3.5555555555555554,3.2222222222222223,1.625,3.7777777777777777,2.0,2.25,3.0,2.5,0.8194444444444444,0.8333333333333334,0.420148166672637,0.8365787580274149,-0.8671478521241847,0.8646366682524793,5.3797191567634545e-06,0.3491830404898756,-8.714563967737775e-05,-0.44194719447054204,-0.0004474805145907139,-0.632370953414406,0.0007498913984019077,1.3018800568932676,,,,,,,,,,,,,,,,,,,,,,,,
19,240722_144830,LEARNING,1.0,20,3.0,1472.0,,,,,,,,,,20.0,20.0,20.0,cue2.png,Hard,A,,,,,,,,,,,,,,,,,,,,,,,,,,,49,28,Female,0.14285714285714285,0.25,0.0,0.25,3.111111111111111,3.75,3.5555555555555554,3.2222222222222223,1.625,3.7777777777777777,2.0,2.25,3.0,2.5,0.8194444444444444,0.8333333333333334,0.3806705888774659,-0.21583742257957725,-0.965820873956376,-0.17351918283228596,-3.1232363773627935e-05,0.3038821398173237,-3.8511530910729196e-05,-0.36345023446616825,-0.0005770536048285146,-0.8303053983038423,-0.0001791192870560527,-0.35409656274550927,0.6409999999999998,-0.8794916585035271,2.644,1.9006574925338409,,,,,,,,,,,,,,,,,,,,
20,240722_144850,LEARNING,1.0,21,1.0,1472.0,,,,,,,,,,21.0,21.0,21.0,cue1.png,Easy,A,,,,,,,,,,,,,,,,,,,,,,,,,,,49,28,Female,0.14285714285714285,0.25,0.0,0.25,3.111111111111111,3.75,3.5555555555555554,3.2222222222222223,1.625,3.7777777777777777,2.0,2.25,3.0,2.5,1.0,1.0,0.3789062333396739,-0.2628726364913844,-0.970466509945701,-0.22239671890825505,0.00033464285266461904,0.7565872445754886,,,0.000214187256244407,0.37838554456771145,0.001082205382102474,1.8942351244949753,1.261,0.10123644989968626,0.9079999999999999,-1.4494222604934326,,,,,,,,,,,,,,,,,,,,
21,240722_144908,LEARNING,1.0,22,3.0,1472.0,,,,,,,,,,22.0,22.0,22.0,cue2.png,Hard,A,,,,,,,,,,,,,,,,,,,,,,,,,,,49,28,Female,0.14285714285714285,0.25,0.0,0.25,3.111111111111111,3.75,3.5555555555555554,3.2222222222222223,1.625,3.7777777777777777,2.0,2.25,3.0,2.5,0.8194444444444444,0.8333333333333334,0.3383109111131893,-1.3450862968576742,-1.0837899509423372,-1.4146921523631517,-1.6570475866429634e-05,0.3220236022689106,0.00016550682731675563,-0.034158276371867795,-6.253689944433691e-05,-0.04433526916935489,5.296334945540174e-06,-0.02537272446130516,1.749,0.8731643803847964,1.5669999999999997,-0.17770419756430106,,,,,,,,,,,,,,,,,,,,
22,240722_144927,LEARNING,1.0,23,3.0,1472.0,,,,,,,,,,23.0,23.0,23.0,cue2.png,Hard,A,,,,,,,,,,,,,,,,,,,,,,,,,,,49,28,Female,0.14285714285714285,0.25,0.0,0.25,3.111111111111111,3.75,3.5555555555555554,3.2222222222222223,1.625,3.7777777777777777,2.0,2.25,3.0,2.5,0.8194444444444444,0.8333333333333334,0.330481188889179,-1.5538155760692913,-1.1072055384382888,-1.661051579835138,-8.991213188397438e-05,0.2312764278803884,-1.0525522298459634e-05,-0.31827994854070935,-0.0007007773056204487,-1.0193043794269603,0.0001021324038263851,0.1472391394435324,2.016,1.295510194810051,1.709,0.09632306334000422,,,,,,,,,,,,,,,,,,,,
23,240722_144946,LEARNING,1.0,24,3.0,1472.0,,,,,,,,,,24.0,24.0,24.0,cue2.png,Hard,A,,,,,,,,,,,,,,,,,,,,,,,,,,,49,28,Female,0.14285714285714285,0.25,0.0,0.25,3.111111111111111,3.75,3.5555555555555554,3.2222222222222223,1.625,3.7777777777777777,2.0,2.25,3.0,2.5,0.5,0.6666666666666667,0.3214111333299014,-1.7956103811891673,-1.135034186173199,-1.9538415738712631,,,8.766131542678598e-05,-0.15980334704986487,9.850379645664868e-05,0.20166874824869196,-0.0010457891803324505,-1.8989497088673617,0.383,-1.287601097161638,1.8010000000000002,0.27386185209490593,,,,,,,,,,,,,,,,,,,,
24,240722_145005,LEARNING,1.0,25,1.0,1472.0,,,,,,,,,,25.0,25.0,25.0,cue1.png,Easy,A,,,,,,,,,,,,,,,,,,,,,,,,,,,49,28,Female,0.14285714285714285,0.25,0.0,0.25,3.111111111111111,3.75,3.5555555555555554,3.2222222222222223,1.625,3.7777777777777777,2.0,2.25,3.0,2.5,1.0,1.0,0.3765418110932741,-0.3259047769841232,-0.9767261858674414,-0.28825584700003404,7.807421891579003e-05,0.43912947482101045,-2.3082242915548577e-05,-0.3385468850809685,-0.0006495004938753563,-0.9409744789064273,-0.00027520598431167963,-0.5253726595701544,1.608,0.6501278266995495,0.8979999999999999,-1.4687199549233132,,,,,,,,,,,,,,,,,,,,
25,240722_145025,LEARNING,1.0,26,1.0,1472.0,,,,,,,,,,26.0,26.0,26.0,cue1.png,Easy,A,,,,,,,,,,,,,,,,,,,,,,,,,,,49,28,Female,0.14285714285714285,0.25,0.0,0.25,3.111111111111111,3.75,3.5555555555555554,3.2222222222222223,1.625,3.7777777777777777,2.0,2.25,3.0,2.5,1.0,1.0,0.3693139222191853,-0.5185900334653551,-0.9961082588924648,-0.4921779742791612,,,3.344267015154218e-05,-0.24731392219133325,0.001088083381895217,1.7133397715933152,-0.00041633913238947086,-0.7769447858451386,0.8140000000000003,-0.6058368798684362,1.558,-0.19507212255119297,,,,,,,,,,,,,,,,,,,,
26,240722_145044,LEARNING,1.0,27,3.0,1472.0,,,,,,,,,,27.0,27.0,27.0,cue2.png,Hard,A,,,,,,,,,,,,,,,,,,,,,,,,,,,49,28,Female,0.14285714285714285,0.25,0.0,0.25,3.111111111111111,3.75,3.5555555555555554,3.2222222222222223,1.625,3.7777777777777777,2.0,2.25,3.0,2.5,0.8194444444444444,0.8333333333333334,0.3885048222469373,-0.006987882634109275,-0.94544969677544,0.040809479563797636,,,4.226032424401718e-05,-0.2330819549941864,-0.0008633279427978872,-1.2676149667340315,8.616183485938428e-05,0.11877134114404908,,,,,,,,,,,,,,,,,,,,,,,,
27,240722_145103,LEARNING,1.0,28,1.0,1472.0,,,,,,,,,,28.0,28.0,28.0,cue1.png,Easy,A,,,,,,,,,,,,,,,,,,,,,,,,,,,49,28,Female,0.14285714285714285,0.25,0.0,0.25,3.111111111111111,3.75,3.5555555555555554,3.2222222222222223,1.625,3.7777777777777777,2.0,2.25,3.0,2.5,0.8194444444444444,0.8333333333333334,0.3749569111063869,-0.36815596066864853,-0.9809441633299656,-0.33263391408619425,-2.5039339001131124e-06,0.33942843065941525,4.8485632346848516e-05,-0.22303411462956632,-0.001063140207477293,-1.572846011380996,0.0007934116404707901,1.3794555944787825,1.7879999999999998,0.9348553420424174,1.3800000000000001,-0.5385710834030676,,,,,,,,,,,,,,,,,,,,
28,240722_145123,LEARNING,1.0,29,1.0,1472.0,,,,,,,,,,29.0,29.0,29.0,cue1.png,Easy,A,,,,,,,,,,,,,,,,,,,,,,,,,,,49,28,Female,0.14285714285714285,0.25,0.0,0.25,3.111111111111111,3.75,3.5555555555555554,3.2222222222222223,1.625,3.7777777777777777,2.0,2.25,3.0,2.5,1.0,1.0,0.4114921333190675,0.6058211971548563,-0.8879653761338522,0.6456119140244373,9.672705184282995e-05,0.46220901753088783,0.0029634989899683384,4.481887857793736,0.00013707209454580718,0.2605852613811449,-8.534478902892315e-05,-0.18694199856012644,1.264,0.10598190848873425,1.082,-1.1136423774135098,,,,,,,,,,,,,,,,,,,,
29,240722_145143,LEARNING,1.0,30,3.0,1472.0,,,,,,,,,,30.0,30.0,30.0,cue2.png,Hard,A,,,,,,,,,,,,,,,,,,,,,,,,,,,49,28,Female,0.14285714285714285,0.25,0.0,0.25,3.111111111111111,3.75,3.5555555555555554,3.2222222222222223,1.625,3.7777777777777777,2.0,2.25,3.0,2.5,0.8194444444444444,0.8333333333333334,0.3972170333274537,0.22526729668746814,-0.9232724642274344,0.27413996142270364,6.328638864848066e-06,0.35035715881370594,,,,,-0.0012467917629590663,-2.2572400735821705,2.1799999999999997,1.5549285976779972,2.791,2.1843336006530856,,,,,,,,,,,,,,,,,,,,
30,240722_145202,LEARNING,1.0,31,3.0,1472.0,,,,,,,,,,31.0,31.0,31.0,cue2.png,Hard,A,,,,,,,,,,,,,,,,,,,,,,,,,,,49,28,Female,0.14285714285714285,0.25,0.0,0.25,3.111111111111111,3.75,3.5555555555555554,3.2222222222222223,1.625,3.7777777777777777,2.0,2.25,3.0,2.5,0.8194444444444444,0.8333333333333334,0.3644199333179535,-0.6490568299362715,-1.0094484133417243,-0.6325320359944886,-0.0001524354339592789,0.1539150304854806,3.322547951801558e-05,-0.24766447461031688,,,,,,,,,,,,,,,,,,,,,,,,,,,,
31,240722_145221,LEARNING,1.0,32,1.0,1472.0,,,,,,,,,,32.0,32.0,32.0,cue1.png,Easy,A,,,,,,,,,,,,,,,,,,,,,,,,,,,49,28,Female,0.14285714285714285,0.25,0.0,0.25,3.111111111111111,3.75,3.5555555555555554,3.2222222222222223,1.625,3.7777777777777777,2.0,2.25,3.0,2.5,1.0,1.0,0.3630414444487542,-0.6858053862499132,-1.0132382791992816,-0.6724058671774499,-2.514490981053892e-05,0.31141427470991995,,,,,,,0.2330000000000001,-1.5248740266140282,1.388,-0.5231329278591635,,,,,,,,,,,,,,,,,,,,
32,240722_145240,LEARNING,1.0,33,1.0,1472.0,,,,,,,,,,33.0,33.0,33.0,cue1.png,Easy,A,,,,,,,,,,,,,,,,,,,,,,,,,,,49,28,Female,0.14285714285714285,0.25,0.0,0.25,3.111111111111111,3.75,3.5555555555555554,3.2222222222222223,1.625,3.7777777777777777,2.0,2.25,3.0,2.5,1.0,1.0,0.3829504444729537,-0.15505970894710086,-0.959849685971891,-0.11069528599691314,-7.90910270295547e-06,0.3327405015535658,1.6842997084990513e-05,-0.27410630938285824,9.15728132902232e-05,0.19108105366591485,,,0.4690000000000001,-1.1515646176089342,2.146,0.9396323099257864,,,,,,,,,,,,,,,,,,,,
33,240722_145300,LEARNING,1.0,34,1.0,1472.0,,,,,,,,,,34.0,34.0,34.0,cue1.png,Easy,A,,,,,,,,,,,,,,,,,,,,,,,,,,,49,28,Female,0.14285714285714285,0.25,0.0,0.25,3.111111111111111,3.75,3.5555555555555554,3.2222222222222223,1.625,3.7777777777777777,2.0,2.25,3.0,2.5,1.0,1.0,0.386353166670435,-0.06434796575656561,-0.9510033882586656,-0.01762186470207041,-0.00017995951239322327,0.11985890902387895,3.2559019237120724e-05,-0.24874016217488026,1.4370345899506615e-06,0.05339061741119077,-0.00017820218303464704,-0.35246180994772436,1.5980000000000003,0.6343096314027238,2.3209999999999997,1.2773419624486966,,,,,,,,,,,,,,,,,,,,
34,240722_145319,LEARNING,1.0,35,3.0,1472.0,,,,,,,,,,35.0,35.0,35.0,cue2.png,Hard,A,,,,,,,,,,,,,,,,,,,,,,,,,,,49,28,Female,0.14285714285714285,0.25,0.0,0.25,3.111111111111111,3.75,3.5555555555555554,3.2222222222222223,1.625,3.7777777777777777,2.0,2.25,3.0,2.5,0.8194444444444444,0.8333333333333334,0.4250578111322183,0.9674629094588857,-0.8555300931149892,0.9868691110006167,,,,,-0.0002442094288905173,-0.321856251354736,0.0005772841779194335,0.99420488590327,,,2.014,0.6849027434513622,,,,,,,,,,,,,,,,,,,,
35,240722_145339,LEARNING,1.0,36,3.0,1472.0,,,,,,,,,,36.0,36.0,36.0,cue2.png,Hard,A,,,,,,,,,,,,,,,,,,,,,,,,,,,49,28,Female,0.14285714285714285,0.25,0.0,0.25,3.111111111111111,3.75,3.5555555555555554,3.2222222222222223,1.625,3.7777777777777777,2.0,2.25,3.0,2.5,0.5,0.6666666666666667,0.3932807555473927,0.12033171911495967,-0.9332315314626165,0.16935890040347093,-1.6615605308128913e-05,0.3219677626609944,-4.718586051134267e-05,-0.37745087148804074,0.0007495410742433695,1.1961862205459668,-6.688932075631787e-05,-0.15404482693195085,0.7429999999999999,-0.7181460664759016,1.9049999999999998,0.47455787416566353,,,,,,,,,,,,,,,,,,,,
36,240722_145358,LEARNING,1.0,37,1.0,1472.0,,,,,,,,,,37.0,37.0,37.0,cue1.png,Easy,A,,,,,,,,,,,,,,,,,,,,,,,,,,,49,28,Female,0.14285714285714285,0.25,0.0,0.25,3.111111111111111,3.75,3.5555555555555554,3.2222222222222223,1.625,3.7777777777777777,2.0,2.25,3.0,2.5,1.0,1.0,0.3653563666545475,-0.6240928465681769,-1.0068820547176078,-0.6055309350639893,,,,,0.0004954923560645946,0.8081041587899152,,,2.2220000000000004,1.6213650179246675,2.078,0.8084079878025981,,,,,,,,,,,,,,,,,,,,
37,240722_145418,LEARNING,1.0,38,3.0,1472.0,,,,,,,,,,38.0,38.0,38.0,cue2.png,Hard,A,,,,,,,,,,,,,,,,,,,,,,,,,,,49,28,Female,0.14285714285714285,0.25,0.0,0.25,3.111111111111111,3.75,3.5555555555555554,3.2222222222222223,1.625,3.7777777777777777,2.0,2.25,3.0,2.5,0.8194444444444444,0.8333333333333334,0.4062267111019335,0.4654525157785335,-0.900843873499735,0.510115025966133,3.180011774608048e-05,0.3818735556539383,-3.8890095875165204e-07,-0.3019191272969119,,,0.0009641921827187733,1.6838746818787091,1.64,0.7007460516493924,1.1910000000000003,-0.9032975081278107,,,,,,,,,,,,,,,,,,,,
38,240722_145437,LEARNING,1.0,39,3.0,1472.0,,,,,,,,,,39.0,39.0,39.0,cue2.png,Hard,A,,,,,,,,,,,,,,,,,,,,,,,,,,,49,28,Female,0.14285714285714285,0.25,0.0,0.25,3.111111111111111,3.75,3.5555555555555554,3.2222222222222223,1.625,3.7777777777777777,2.0,2.25,3.0,2.5,0.5,0.6666666666666667,0.3366619333262658,-1.3890457037246284,-1.0886760173407095,-1.4660992981672545,-8.836608484060794e-07,0.3414332286032346,5.435102513583678e-05,-0.21356718874476652,-0.0010786921435104006,-1.5966029798998431,,,0.6819999999999999,-0.8146370577865402,2.2670000000000003,1.1731344125273424,,,,,,,,,,,,,,,,,,,,
39,240722_145456,LEARNING,1.0,40,3.0,1472.0,,,,,,,,,,40.0,40.0,40.0,cue2.png,Hard,A,,,,,,,,,,,,,,,,,,,,,,,,,,,49,28,Female,0.14285714285714285,0.25,0.0,0.25,3.111111111111111,3.75,3.5555555555555554,3.2222222222222223,1.625,3.7777777777777777,2.0,2.25,3.0,2.5,0.8194444444444444,0.8333333333333334,0.3822853555773488,-0.17279003472616256,-0.9615879451150924,-0.12898380971604131,5.50763016519914e-05,0.41067366782353154,7.646326698848658e-05,-0.17787734455243703,-0.0001836071222267241,-0.22928082611402603,-0.0011480433735904256,-2.0812194673812363,1.827,0.996546303700039,1.4849999999999999,-0.3359452918893217,,,,,,,,,,,,,,,,,,,,
40,240722_145515,LEARNING,1.0,41,1.0,1472.0,,,,,,,,,,41.0,41.0,41.0,cue1.png,Easy,A,,,,,,,,,,,,,,,,,,,,,,,,,,,49,28,Female,0.14285714285714285,0.25,0.0,0.25,3.111111111111111,3.75,3.5555555555555554,3.2222222222222223,1.625,3.7777777777777777,2.0,2.25,3.0,2.5,1.0,1.0,0.3531201000118421,-0.9502943443353475,-1.0409470532503649,-0.9639346495475581,,,2.229133055786734e-06,-0.297693539195455,,,-0.0001822425018409117,-0.35966374377237453,,,1.919,0.5015746463674968,,,,,,,,,,,,,,,,,,,,
41,240722_145534,LEARNING,1.0,42,3.0,1472.0,,,,,,,,,,42.0,42.0,42.0,cue2.png,Hard,A,,,,,,,,,,,,,,,,,,,,,,,,,,,49,28,Female,0.14285714285714285,0.25,0.0,0.25,3.111111111111111,3.75,3.5555555555555554,3.2222222222222223,1.625,3.7777777777777777,2.0,2.25,3.0,2.5,0.5,0.6666666666666667,0.3602963777569433,-0.7589849672844031,-1.0208283146870536,-0.7522619373094875,-0.00015473408096590945,0.15107086617156798,-7.636604274079356e-05,-0.4245485906705977,,,0.0002716871398042043,0.44947320727869744,,,,,,,,,,,,,,,,,,,,,,,,
42,240722_145554,LEARNING,1.0,43,3.0,1472.0,,,,,,,,,,43.0,43.0,43.0,cue2.png,Hard,A,,,,,,,,,,,,,,,,,,,,,,,,,,,49,28,Female,0.14285714285714285,0.25,0.0,0.25,3.111111111111111,3.75,3.5555555555555554,3.2222222222222223,1.625,3.7777777777777777,2.0,2.25,3.0,2.5,0.8194444444444444,0.8333333333333334,0.387723399985892,-0.027819490785892586,-0.9474630802176686,0.019626325726860426,-0.0033691676575230284,-3.8262154424764043,,,0.0007567053622337377,1.2071303090430388,0.0004980587618246008,0.852984296314978,1.523,0.515673166676528,1.626,-0.06384780042800517,,,,,,,,,,,,,,,,,,,,
43,240722_145613,LEARNING,1.0,44,1.0,1472.0,,,,,,,,,,44.0,44.0,44.0,cue1.png,Easy,A,,,,,,,,,,,,,,,,,,,,,,,,,,,49,28,Female,0.14285714285714285,0.25,0.0,0.25,3.111111111111111,3.75,3.5555555555555554,3.2222222222222223,1.625,3.7777777777777777,2.0,2.25,3.0,2.5,1.0,1.0,0.3433564111150594,-1.2105804295329008,-1.0689862718455372,-1.2589400958581758,7.123982094429156e-05,0.43067313038815813,-6.802374093429348e-05,-0.4110838568067313,,,0.00038218678492476024,0.6464406175166317,1.3730000000000002,0.2784002372241382,1.7249999999999999,0.1271993744278128,,,,,,,,,,,,,,,,,,,,
44,240722_145632,LEARNING,1.0,45,1.0,1472.0,,,,,,,,,,45.0,45.0,45.0,cue1.png,Easy,A,,,,,,,,,,,,,,,,,,,,,,,,,,,49,28,Female,0.14285714285714285,0.25,0.0,0.25,3.111111111111111,3.75,3.5555555555555554,3.2222222222222223,1.625,3.7777777777777777,2.0,2.25,3.0,2.5,1.0,1.0,0.3479312555217702,-1.0886215722199588,-1.055750360325684,-1.1196827919504826,,,1.1002747531253885e-05,-0.2835326533061092,-0.0004977847046195912,-0.7092150875683801,0.0006497842310130009,1.123437406825604,1.1390000000000002,-0.09174553272159064,,,,,,,,,,,,,,,,,,,,,,
45,240722_145651,LEARNING,1.0,46,1.0,1472.0,,,,,,,,,,46.0,46.0,46.0,cue1.png,Easy,A,,,,,,,,,,,,,,,,,,,,,,,,,,,49,28,Female,0.14285714285714285,0.25,0.0,0.25,3.111111111111111,3.75,3.5555555555555554,3.2222222222222223,1.625,3.7777777777777777,2.0,2.25,3.0,2.5,1.0,1.0,0.3784979778057378,-0.27375614945578014,-0.9715445487721743,-0.23373895100593134,-0.00014837942671173119,0.15893361360727803,-3.0912928544804975e-05,-0.35118585456627116,,,0.000496841984205465,0.8508153704671603,0.6280000000000001,-0.9000553123894004,0.4720000000000002,-2.2908017376362264,,,,,,,,,,,,,,,,,,,,
46,240722_145710,LEARNING,1.0,47,3.0,1472.0,,,,,,,,,,47.0,47.0,47.0,cue2.png,Hard,A,,,,,,,,,,,,,,,,,,,,,,,,,,,49,28,Female,0.14285714285714285,0.25,0.0,0.25,3.111111111111111,3.75,3.5555555555555554,3.2222222222222223,1.625,3.7777777777777777,2.0,2.25,3.0,2.5,0.5,0.6666666666666667,0.3928022110938198,0.10757440333705286,-0.9344490734600833,0.15654893142571696,-1.965095675372265e-05,0.31821205844158257,,,0.0012654079052487506,1.98421878691085,,,,,1.6710000000000003,0.02299182450645828,,,,,,,,,,,,,,,,,,,,
47,240722_145730,LEARNING,1.0,48,3.0,1472.0,,,,,,,,,,48.0,48.0,48.0,cue2.png,Hard,A,,,,,,,,,,,,,,,,,,,,,,,,,,,49,28,Female,0.14285714285714285,0.25,0.0,0.25,3.111111111111111,3.75,3.5555555555555554,3.2222222222222223,1.625,3.7777777777777777,2.0,2.25,3.0,2.5,0.5,0.6666666666666667,0.3587461222454698,-0.8003125784366106,-1.0251403210385859,-0.797629298525717,9.667621836798902e-05,0.46214612020273016,,,0.0010276041214533037,1.6209523104243029,-0.00013488933460836447,-0.2752559548950186,2.414,1.9250743676237267,1.707,0.09246352445402808,,,,,,,,,,,,,,,,,,,,
48,240722_145748,LEARNING,1.0,49,1.0,1472.0,,,,,,,,,,49.0,49.0,49.0,cue1.png,Easy,A,,,,,,,,,,,,,,,,,,,,,,,,,,,49,28,Female,0.14285714285714285,0.25,0.0,0.25,3.111111111111111,3.75,3.5555555555555554,3.2222222222222223,1.625,3.7777777777777777,2.0,2.25,3.0,2.5,1.0,1.0,0.3147736110905599,-1.9725573012881052,-1.1559015934921308,-2.173391158984411,,,,,-0.0006882501099738474,-1.0001679714599916,-0.0006921091051317312,-1.268509236510729,,,,,,,,,,,,,,,,,,,,,,,,
49,240722_145808,LEARNING,1.0,50,1.0,1472.0,,,,,,,,,,50.0,50.0,50.0,cue1.png,Easy,A,,,,,,,,,,,,,,,,,,,,,,,,,,,49,28,Female,0.14285714285714285,0.25,0.0,0.25,3.111111111111111,3.75,3.5555555555555554,3.2222222222222223,1.625,3.7777777777777777,2.0,2.25,3.0,2.5,1.0,1.0,0.3568097555544227,-0.8519333655026219,-1.030552536849551,-0.8545721528860747,1.8151223346418287e-05,0.3649854913866088,8.348978636401163e-05,-0.16653632434299942,0.0009028579526087644,1.430391418212716,-4.151149748312169e-05,-0.10880844520290624,,,1.379,-0.5405008528460559,,,,,,,,,,,,,,,,,,,,
0,240722_145909,TrueCHOICE,9.0,1,1.0,1472.0,,,,,,,,,,,1.0,1.0,,,A,,,,,,True,cue1.png,Easy,cue2.png,Hard,Left,Easy,Easy,0.0162428999319672,,,,,,,,,,,,,49,28,Female,0.14285714285714285,0.25,0.0,0.25,3.111111111111111,3.75,3.5555555555555554,3.2222222222222223,1.625,3.7777777777777777,2.0,2.25,3.0,2.5,0.8194444444444444,0.8333333333333334,0.3894428000009308,0.40258872653992384,-0.9430382793954205,0.4232237824266484,,,,,,,,,,,,,3.621687893143278e-05,-0.36448277028264525,,,,,,,,,,,,,,,,,,
1,240722_145927,TrueCHOICE,9.0,2,1.0,1472.0,,,,,,,,,,,2.0,2.0,,,A,,,,,,True,cue1.png,Easy,cue2.png,Hard,Left,Easy,Easy,0.0169873998966068,,,,,,,,,,,,,49,28,Female,0.14285714285714285,0.25,0.0,0.25,3.111111111111111,3.75,3.5555555555555554,3.2222222222222223,1.625,3.7777777777777777,2.0,2.25,3.0,2.5,,,,,,,,,,,,,,,,,,,0.0008354243613995023,1.9875398653244272,-0.0016935097600153156,-2.0365541697308127,,,,,,,,,,,,,,,,
2,240722_145945,TrueCHOICE,9.0,3,1.0,1472.0,,,,,,,,,,,3.0,3.0,,,A,,,,,,True,cue2.png,Hard,cue1.png,Easy,Right,Easy,Easy,0.0159531000535935,,,,,,,,,,,,,49,28,Female,0.14285714285714285,0.25,0.0,0.25,3.111111111111111,3.75,3.5555555555555554,3.2222222222222223,1.625,3.7777777777777777,2.0,2.25,3.0,2.5,1.0,1.0,0.3872100444407099,0.2919543457116764,-0.9487879826953411,0.31503028833115965,,,,,,,,,,,,,-6.411316576245343e-05,-0.6597484445012517,9.214229865037692e-05,0.5814187715335045,1.591,1.1959551753994104,,,,,,,,,,,,,,
3,240722_150004,TrueCHOICE,9.0,4,3.0,1472.0,,,,,,,,,,,4.0,4.0,,,A,,,,,,True,cue1.png,Easy,cue2.png,Hard,Right,Hard,Hard,0.0164573000511154,,,,,,,,,,,,,49,28,Female,0.14285714285714285,0.25,0.0,0.25,3.111111111111111,3.75,3.5555555555555554,3.2222222222222223,1.625,3.7777777777777777,2.0,2.25,3.0,2.5,0.8194444444444444,0.8333333333333334,0.4122406333271,1.532235078878097,-0.8861480386565853,1.4937405733631575,,,,,,,,,,,,,,,0.00012819258748412825,0.6342726745284964,1.5810000000000002,1.0662420327313644,,,,,,,,,,,,,,
4,240722_150022,TrueCHOICE,9.0,5,3.0,1472.0,,,,,,,,,,,5.0,5.0,,,A,,,,,,True,cue2.png,Hard,cue1.png,Easy,Left,Hard,Hard,0.0163869999814778,,,,,,,,,,,,,49,28,Female,0.14285714285714285,0.25,0.0,0.25,3.111111111111111,3.75,3.5555555555555554,3.2222222222222223,1.625,3.7777777777777777,2.0,2.25,3.0,2.5,0.5,0.6666666666666667,0.3468187777842912,-1.709457209147202,-1.0589528896814597,-1.7579681938161196,,,,,,,,,,,,,-3.54621565748529e-05,-0.5754301371524275,,,,,,,,,,,,,,,,,,
5,240722_150039,TrueCHOICE,9.0,6,1.0,1472.0,,,,,,,,,,,6.0,6.0,,,A,,,,,,True,cue2.png,Hard,cue1.png,Easy,Right,Easy,Easy,0.0164918999653309,,,,,,,,,,,,,49,28,Female,0.14285714285714285,0.25,0.0,0.25,3.111111111111111,3.75,3.5555555555555554,3.2222222222222223,1.625,3.7777777777777777,2.0,2.25,3.0,2.5,0.8194444444444444,0.8333333333333334,0.4049089110922068,1.168943832709684,-0.9040931480552837,1.1560633078601226,,,,,,,,,,,,,,,,,1.467,-0.41248779368439287,,,,,,,,,,,,,,
6,240722_150057,TrueCHOICE,9.0,7,1.0,1472.0,,,,,,,,,,,7.0,7.0,,,A,,,,,,True,cue1.png,Easy,cue2.png,Hard,Left,Easy,Easy,0.016888799960725,,,,,,,,,,,,,49,28,Female,0.14285714285714285,0.25,0.0,0.25,3.111111111111111,3.75,3.5555555555555554,3.2222222222222223,1.625,3.7777777777777777,2.0,2.25,3.0,2.5,,,,,,,,,,,,,,,,,,,2.826710299615306e-05,-0.38787851338810264,-2.177552036075614e-06,0.4431349352604198,1.4679999999999997,-0.39951647941759233,,,,,,,,,,,,,,
7,240722_150115,TrueCHOICE,9.0,8,1.0,1472.0,,,,,,,,,,,8.0,8.0,,,A,,,,,,True,cue2.png,Hard,cue1.png,Easy,Right,Easy,Easy,0.0165950999362394,,,,,,,,,,,,,49,28,Female,0.14285714285714285,0.25,0.0,0.25,3.111111111111111,3.75,3.5555555555555554,3.2222222222222223,1.625,3.7777777777777777,2.0,2.25,3.0,2.5,1.0,1.0,0.3756759555803405,-0.2795666941278591,-0.9790283274378848,-0.25400925852564976,,,,,,,,,,,,,,,0.00026757889064846045,0.8386291550064239,,,,,,,,,,,,,,,,
8,240722_150132,TrueCHOICE,9.0,9,3.0,1472.0,,,,,,,,,,,9.0,9.0,,,A,,,,,,True,cue1.png,Easy,cue2.png,Hard,Right,Hard,Hard,0.0167008000425994,,,,,,,,,,,,,49,28,Female,0.14285714285714285,0.25,0.0,0.25,3.111111111111111,3.75,3.5555555555555554,3.2222222222222223,1.625,3.7777777777777777,2.0,2.25,3.0,2.5,1.0,1.0,0.3702729555467764,-0.5472885952522362,-0.9935148276298199,-0.5266050762962918,,,,,,,,,,,,,,,-0.00061879747888011,-0.46090136659803244,1.3869999999999998,-1.450192935028787,,,,,,,,,,,,,,
9,240722_150149,TrueCHOICE,9.0,10,3.0,1472.0,,,,,,,,,,,10.0,10.0,,,A,,,,,,True,cue2.png,Hard,cue1.png,Easy,Left,Hard,Hard,0.0161547000752761,,,,,,,,,,,,,49,28,Female,0.14285714285714285,0.25,0.0,0.25,3.111111111111111,3.75,3.5555555555555554,3.2222222222222223,1.625,3.7777777777777777,2.0,2.25,3.0,2.5,0.8194444444444444,0.8333333333333334,0.3639739222126081,-0.8594094853120756,-1.0106730561848813,-0.8494754233430185,,,,,,,,,,,,,,,,,,,,,,,,,,,,,,,,
0,240722_150306,FalseCHOICE,9.0,1,2.0,1472.0,,,,,,,,,,,1.0,1.0,,,A,,,,,,False,cue1.png,Easy,cue2.png,Hard,Left,Easy,Mid,0.015630800044164,,,,,,,,,,,,,49,28,Female,0.14285714285714285,0.25,0.0,0.25,3.111111111111111,3.75,3.5555555555555554,3.2222222222222223,1.625,3.7777777777777777,2.0,2.25,3.0,2.5,1.0,1.0,0.3900742111210193,-0.47742879553997836,-0.9414182730346345,-0.4569732091249374,,,,,,,,,,,,,,,,,,,1.8605584190113482e-05,-0.43920256026390514,,,1.368,-0.15630631782148202,,,,,,,,
1,240722_150323,FalseCHOICE,9.0,2,2.0,1472.0,,,,,,,,,,,2.0,2.0,,,A,,,,,,False,cue2.png,Hard,cue1.png,Easy,Left,Hard,Mid,0.0163120999932289,,,,,,,,,,,,,49,28,Female,0.14285714285714285,0.25,0.0,0.25,3.111111111111111,3.75,3.5555555555555554,3.2222222222222223,1.625,3.7777777777777777,2.0,2.25,3.0,2.5,,,,,,,,,,,,,,,,,,,,,,,,,0.003513749851223806,2.7084040849070092,,,1.4639999999999997,0.0011872458887143957,,,,,,,,
2,240722_150341,FalseCHOICE,9.0,3,2.0,1472.0,,,,,,,,,,,3.0,3.0,,,A,,,,,,False,cue2.png,Hard,cue1.png,Easy,Left,Hard,Mid,0.0150250999722629,,,,,,,,,,,,,49,28,Female,0.14285714285714285,0.25,0.0,0.25,3.111111111111111,3.75,3.5555555555555554,3.2222222222222223,1.625,3.7777777777777777,2.0,2.25,3.0,2.5,,,,,,,,,,,,,,,,,,,,,,,,,,,-0.00038434876657298354,0.026911599137454275,1.1609999999999998,-0.4959018145715948,,,,,,,,
3,240722_150358,FalseCHOICE,9.0,4,2.0,1472.0,,,,,,,,,,,4.0,4.0,,,A,,,,,,False,cue2.png,Hard,cue1.png,Easy,Right,Easy,Mid,0.0167346000671386,,,,,,,,,,,,,49,28,Female,0.14285714285714285,0.25,0.0,0.25,3.111111111111111,3.75,3.5555555555555554,3.2222222222222223,1.625,3.7777777777777777,2.0,2.25,3.0,2.5,0.5,0.6666666666666667,0.3523033000270111,-1.7911920086326611,-1.0432628265853983,-1.9069502481849507,,,,,,,,,,,,,,,,,,,0.0003422382257293032,-0.1477501407712163,,,1.5909999999999997,0.20953810621366253,,,,,,,,
4,240722_150415,FalseCHOICE,9.0,5,2.0,1472.0,,,,,,,,,,,5.0,5.0,,,A,,,,,,False,cue1.png,Easy,cue2.png,Hard,Left,Easy,Mid,0.0165794999338686,,,,,,,,,,,,,49,28,Female,0.14285714285714285,0.25,0.0,0.25,3.111111111111111,3.75,3.5555555555555554,3.2222222222222223,1.625,3.7777777777777777,2.0,2.25,3.0,2.5,,,,,,,,,,,,,,,,,,,,,,,,,0.00022166119479749644,-0.2563376652965023,,,1.515,0.0848557016097568,,,,,,,,
5,240722_150432,FalseCHOICE,9.0,6,2.0,1472.0,,,,,,,,,,,6.0,6.0,,,A,,,,,,False,cue2.png,Hard,cue1.png,Easy,Left,Hard,Mid,0.0159092000685632,,,,,,,,,,,,,49,28,Female,0.14285714285714285,0.25,0.0,0.25,3.111111111111111,3.75,3.5555555555555554,3.2222222222222223,1.625,3.7777777777777777,2.0,2.25,3.0,2.5,0.5,0.6666666666666667,0.4048332110978663,0.035924752733132725,-0.9042801211482884,0.07176854122781338,,,,,,,,,,,,,,,,,,,0.0014253781383679071,0.8276883894284439,,,0.01649999999999996,-2.3735203944290997,,,,,,,,
6,240722_150450,FalseCHOICE,9.0,7,2.0,1472.0,,,,,,,,,,,7.0,7.0,,,A,,,,,,False,cue2.png,Hard,cue1.png,Easy,Left,Hard,Mid,0.0161102999700233,,,,,,,,,,,,,49,28,Female,0.14285714285714285,0.25,0.0,0.25,3.111111111111111,3.75,3.5555555555555554,3.2222222222222223,1.625,3.7777777777777777,2.0,2.25,3.0,2.5,1.0,1.0,0.3400103888836586,-2.2187690507050086,-1.0787791062985688,-2.4126011475358076,,,,,,,,,,,,,,,,,,,3.420377362113288e-05,-0.42515536765763834,,,1.456,-0.011937217753801669,,,,,,,,
7,240722_150508,FalseCHOICE,9.0,8,2.0,1472.0,,,,,,,,,,,8.0,8.0,,,A,,,,,,False,cue1.png,Easy,cue2.png,Hard,Left,Easy,Mid,0.0158008000580593,,,,,,,,,,,,,49,28,Female,0.14285714285714285,0.25,0.0,0.25,3.111111111111111,3.75,3.5555555555555554,3.2222222222222223,1.625,3.7777777777777777,2.0,2.25,3.0,2.5,,,,,,,,,,,,,,,,,,,,,,,,,,,-0.00021303896659188512,0.2657682609247182,1.983,0.8526368246969676,,,,,,,,
8,240722_150526,FalseCHOICE,9.0,9,2.0,1472.0,,,,,,,,,,,9.0,9.0,,,A,,,,,,False,cue1.png,Easy,cue2.png,Hard,Left,Easy,Mid,0.0152650000527501,,,,,,,,,,,,,49,28,Female,0.14285714285714285,0.25,0.0,0.25,3.111111111111111,3.75,3.5555555555555554,3.2222222222222223,1.625,3.7777777777777777,2.0,2.25,3.0,2.5,0.8194444444444444,0.8333333333333334,0.4297733110789623,0.903401467935143,-0.844497392841925,0.9229047125242303,,,,,,,,,,,,,,,,,,,-0.00017379525024160394,-0.6124721304804368,-0.0002502266944871337,0.21391754050188044,,,,,,,,,,
9,240722_150544,FalseCHOICE,9.0,10,2.0,1472.0,,,,,,,,,,,10.0,10.0,,,A,,,,,,False,cue2.png,Hard,cue1.png,Easy,Left,Hard,Mid,0.0159315000055357,,,,,,,,,,,,,49,28,Female,0.14285714285714285,0.25,0.0,0.25,3.111111111111111,3.75,3.5555555555555554,3.2222222222222223,1.625,3.7777777777777777,2.0,2.25,3.0,2.5,,,,,,,,,,,,,,,,,,,,,,,,,4.120572782538405e-05,-0.4188496486661908,-4.037090686844283e-05,0.5065187395743688,2.005,0.8887290997138874,,,,,,,,
10,240722_150602,FalseCHOICE,9.0,11,2.0,1472.0,,,,,,,,,,,11.0,11.0,,,A,,,,,,False,cue1.png,Easy,cue2.png,Hard,Left,Easy,Mid,0.0162829000037163,,,,,,,,,,,,,49,28,Female,0.14285714285714285,0.25,0.0,0.25,3.111111111111111,3.75,3.5555555555555554,3.2222222222222223,1.625,3.7777777777777777,2.0,2.25,3.0,2.5,1.0,1.0,0.4072290111022691,0.11925644425303922,-0.898379570944092,0.15577560901510593,,,,,,,,,,,,,,,,,,,,,0.0010526034671801895,2.0304491302063425,0.42900000000000005,-1.6967902378618467,,,,,,,,
11,240722_150619,FalseCHOICE,9.0,12,2.0,1472.0,,,,,,,,,,,12.0,12.0,,,A,,,,,,False,cue2.png,Hard,cue1.png,Easy,Left,Hard,Mid,0.0168452999787405,,,,,,,,,,,,,49,28,Female,0.14285714285714285,0.25,0.0,0.25,3.111111111111111,3.75,3.5555555555555554,3.2222222222222223,1.625,3.7777777777777777,2.0,2.25,3.0,2.5,,,,,,,,,,,,,,,,,,,,,,,,,0.0003411045435909453,-0.1487710958905411,-5.911670387771448e-05,0.4803815396204237,,,,,,,,,,
12,240722_150636,FalseCHOICE,9.0,13,2.0,1472.0,,,,,,,,,,,13.0,13.0,,,A,,,,,,False,cue1.png,Easy,cue2.png,Hard,Left,Easy,Mid,0.0167107000015676,,,,,,,,,,,,,49,28,Female,0.14285714285714285,0.25,0.0,0.25,3.111111111111111,3.75,3.5555555555555554,3.2222222222222223,1.625,3.7777777777777777,2.0,2.25,3.0,2.5,0.8194444444444444,0.8333333333333334,0.3817694777778039,-0.76628741305401,-0.9629383138462769,-0.7633574385080302,,,,,,,,,,,,,,,,,,,,,-0.0018780479666059887,-2.055748030805233,1.9150000000000003,0.7410788837355783,,,,,,,,
13,240722_150654,FalseCHOICE,9.0,14,2.0,1472.0,,,,,,,,,,,14.0,14.0,,,A,,,,,,False,cue2.png,Hard,cue1.png,Easy,Left,Hard,Mid,0.016025299904868,,,,,,,,,,,,,49,28,Female,0.14285714285714285,0.25,0.0,0.25,3.111111111111111,3.75,3.5555555555555554,3.2222222222222223,1.625,3.7777777777777777,2.0,2.25,3.0,2.5,0.8194444444444444,0.8333333333333334,0.4120661888737231,0.2875051315963,-0.8865712899297347,0.32389197601407627,,,,,,,,,,,,,,,,,,,-7.504091304753923e-05,-0.5235373729302728,-0.00048446858981371875,-0.11268512422951908,,,,,,,,,,
14,240722_150712,FalseCHOICE,9.0,15,2.0,1472.0,,,,,,,,,,,15.0,15.0,,,A,,,,,,False,cue1.png,Easy,cue2.png,Hard,Left,Easy,Mid,0.0168255000608041,,,,,,,,,,,,,49,28,Female,0.14285714285714285,0.25,0.0,0.25,3.111111111111111,3.75,3.5555555555555554,3.2222222222222223,1.625,3.7777777777777777,2.0,2.25,3.0,2.5,,,,,,,,,,,,,,,,,,,,,,,,,0.0002486325139711243,-0.23204822343835932,0.00015478811591741574,0.778628290256455,1.56,0.1586808095989119,,,,,,,,
15,240722_150729,FalseCHOICE,9.0,16,2.0,1472.0,,,,,,,,,,,16.0,16.0,,,A,,,,,,False,cue1.png,Easy,cue2.png,Hard,Left,Easy,Mid,0.0159706000704318,,,,,,,,,,,,,49,28,Female,0.14285714285714285,0.25,0.0,0.25,3.111111111111111,3.75,3.5555555555555554,3.2222222222222223,1.625,3.7777777777777777,2.0,2.25,3.0,2.5,0.8194444444444444,0.8333333333333334,0.4489285000082519,1.5696650508417531,-0.8008916466636689,1.5437266271495929,,,,,,,,,,,,,,,,,,,,,0.0005462578697206111,1.3244532144255934,,,,,,,,,,
16,240722_150747,FalseCHOICE,9.0,17,2.0,1472.0,,,,,,,,,,,17.0,17.0,,,A,,,,,,False,cue2.png,Hard,cue1.png,Easy,Left,Hard,Mid,0.015942099969834,,,,,,,,,,,,,49,28,Female,0.14285714285714285,0.25,0.0,0.25,3.111111111111111,3.75,3.5555555555555554,3.2222222222222223,1.625,3.7777777777777777,2.0,2.25,3.0,2.5,0.8194444444444444,0.8333333333333334,0.3786251888636293,-0.8756533506798316,-0.9712085108203886,-0.8811015426636679,,,,,,,,,,,,,,,,,,,-0.00015251822884934738,-0.5933107772409184,-0.00041150381832344776,-0.010950595626020646,,,,,,,,,,
17,240722_150806,FalseCHOICE,9.0,18,2.0,1472.0,,,,,,,,,,,18.0,18.0,,,A,,,,,,False,cue2.png,Hard,cue1.png,Easy,Right,Easy,Mid,0.0163971000583842,,,,,,,,,,,,,49,28,Female,0.14285714285714285,0.25,0.0,0.25,3.111111111111111,3.75,3.5555555555555554,3.2222222222222223,1.625,3.7777777777777777,2.0,2.25,3.0,2.5,0.8194444444444444,0.8333333333333334,0.4381706666899845,1.1954817108914353,-0.8251467945223957,1.1984022455504373,,,,,,,,,,,,,,,,,,,-9.52467829410694e-05,-0.5417340839925923,-0.0014887447580955292,-1.5129439132466382,,,,,,,,,,
18,240722_150824,FalseCHOICE,9.0,19,2.0,1472.0,,,,,,,,,,,19.0,19.0,,,A,,,,,,False,cue1.png,Easy,cue2.png,Hard,Right,Hard,Mid,0.0171074999962002,,,,,,,,,,,,,49,28,Female,0.14285714285714285,0.25,0.0,0.25,3.111111111111111,3.75,3.5555555555555554,3.2222222222222223,1.625,3.7777777777777777,2.0,2.25,3.0,2.5,0.8194444444444444,0.8333333333333334,0.384293011118037,-0.6785128486237373,-0.9563499675823347,-0.6695581092848779,,,,,,,,,,,,,,,,,,,-0.00012147444247299303,-0.5653538115696821,0.00025833621019458533,0.9230050400758264,,,,,,,,,,
19,240722_150842,FalseCHOICE,9.0,20,2.0,1472.0,,,,,,,,,,,20.0,20.0,,,A,,,,,,False,cue1.png,Easy,cue2.png,Hard,Right,Hard,Mid,0.0168987999204546,,,,,,,,,,,,,49,28,Female,0.14285714285714285,0.25,0.0,0.25,3.111111111111111,3.75,3.5555555555555554,3.2222222222222223,1.625,3.7777777777777777,2.0,2.25,3.0,2.5,0.5,0.6666666666666667,0.4034009777889069,-0.013891769542269339,-0.9078242295955857,0.02131050794713957,,,,,,,,,,,,,,,,,,,2.913118164522919e-05,-0.4297235694232112,0.0007739963046904386,1.6419881268681433,,,,,,,,,,
20,240722_150900,FalseCHOICE,9.0,21,2.0,1472.0,,,,,,,,,,,21.0,21.0,,,A,,,,,,False,cue1.png,Easy,cue2.png,Hard,Left,Easy,Mid,0.0142584999557584,,,,,,,,,,,,,49,28,Female,0.14285714285714285,0.25,0.0,0.25,3.111111111111111,3.75,3.5555555555555554,3.2222222222222223,1.625,3.7777777777777777,2.0,2.25,3.0,2.5,0.8194444444444444,0.8333333333333334,0.4934030222163225,3.1165959959654352,-0.7064289496192144,2.888607005989586,,,,,,,,,,,,,,,,,,,-3.2600430887633116e-05,-0.4853169352416873,-0.0007177765749895957,-0.4379856412669047,,,,,,,,,,
21,240722_150918,FalseCHOICE,9.0,22,2.0,1472.0,,,,,,,,,,,22.0,22.0,,,A,,,,,,False,cue2.png,Hard,cue1.png,Easy,Left,Hard,Mid,0.0164132999489083,,,,,,,,,,,,,49,28,Female,0.14285714285714285,0.25,0.0,0.25,3.111111111111111,3.75,3.5555555555555554,3.2222222222222223,1.625,3.7777777777777777,2.0,2.25,3.0,2.5,0.8194444444444444,0.8333333333333334,0.440047077795801,1.2607478062028434,-0.8208735628029291,1.2592409223356529,,,,,,,,,,,,,,,,,,,,,0.0005040797702424871,1.2656444361596249,2.231,1.2594951976149762,,,,,,,,
22,240722_150936,FalseCHOICE,9.0,23,2.0,1472.0,,,,,,,,,,,23.0,23.0,,,A,,,,,,False,cue1.png,Easy,cue2.png,Hard,Left,Easy,Mid,0.0150663999374955,,,,,,,,,,,,,49,28,Female,0.14285714285714285,0.25,0.0,0.25,3.111111111111111,3.75,3.5555555555555554,3.2222222222222223,1.625,3.7777777777777777,2.0,2.25,3.0,2.5,1.0,1.0,0.4056103111296478,0.06295416253759042,-0.9023624051110175,0.09907136817863231,,,,,,,,,,,,,,,,,,,1.1161547539798207e-06,-0.4549529385337391,-0.001937963349668878,-2.1392878422444266,1.407,-0.09232455756421461,,,,,,,,
23,240722_150955,FalseCHOICE,9.0,24,2.0,1472.0,,,,,,,,,,,24.0,24.0,,,A,,,,,,False,cue2.png,Hard,cue1.png,Easy,Left,Hard,Mid,0.0159974000416696,,,,,,,,,,,,,49,28,Female,0.14285714285714285,0.25,0.0,0.25,3.111111111111111,3.75,3.5555555555555554,3.2222222222222223,1.625,3.7777777777777777,2.0,2.25,3.0,2.5,0.8194444444444444,0.8333333333333334,0.4412562221987173,1.302804759288107,-0.8181295695338437,1.298307589101744,,,,,,,,,,,,,,,,,,,0.00011663531625888445,-0.35092035715305614,-0.0010423832712141388,-0.8905836354420286,1.415,-0.07920009392169819,,,,,,,,
24,240722_151013,FalseCHOICE,9.0,25,2.0,1472.0,,,,,,,,,,,25.0,25.0,,,A,,,,,,False,cue2.png,Hard,cue1.png,Easy,Left,Hard,Mid,0.0160906999371945,,,,,,,,,,,,,49,28,Female,0.14285714285714285,0.25,0.0,0.25,3.111111111111111,3.75,3.5555555555555554,3.2222222222222223,1.625,3.7777777777777777,2.0,2.25,3.0,2.5,1.0,1.0,0.3968689111061394,-0.24109277329697035,-0.9241492515476389,-0.21111141514400766,,,,,,,,,,,,,,,,,,,-6.307313679765987e-05,-0.5127596054980835,7.626708827207507e-05,0.6691466929074363,2.841,2.2602355503568536,,,,,,,,
25,240722_151031,FalseCHOICE,9.0,26,2.0,1472.0,,,,,,,,,,,26.0,26.0,,,A,,,,,,False,cue1.png,Easy,cue2.png,Hard,Right,Hard,Mid,0.0173454999458044,,,,,,,,,,,,,49,28,Female,0.14285714285714285,0.25,0.0,0.25,3.111111111111111,3.75,3.5555555555555554,3.2222222222222223,1.625,3.7777777777777777,2.0,2.25,3.0,2.5,0.8194444444444444,0.8333333333333334,0.4582380333449691,1.8934730309669456,-0.7803665064167823,1.8359462996197358,,,,,,,,,,,,,,,,,,,,,-0.00036527266357350846,0.05350934359146315,1.411,-0.0857623257429564,,,,,,,,
26,240722_151049,FalseCHOICE,9.0,27,2.0,1472.0,,,,,,,,,,,27.0,27.0,,,A,,,,,,False,cue1.png,Easy,cue2.png,Hard,Left,Easy,Mid,0.0149679000023752,,,,,,,,,,,,,49,28,Female,0.14285714285714285,0.25,0.0,0.25,3.111111111111111,3.75,3.5555555555555554,3.2222222222222223,1.625,3.7777777777777777,2.0,2.25,3.0,2.5,0.8194444444444444,0.8333333333333334,0.4278299666734205,0.8358072713319462,-0.849029436462135,0.8583812897174581,,,,,,,,,,,,,,,,,,,-0.00010861709208286876,-0.5537749242805481,-1.701809983259417e-05,0.5390794776790212,0.8730000000000001,-0.9683825057021853,,,,,,,,
27,240722_151107,FalseCHOICE,9.0,28,2.0,1472.0,,,,,,,,,,,28.0,28.0,,,A,,,,,,False,cue2.png,Hard,cue1.png,Easy,Left,Hard,Mid,0.0150062999455258,,,,,,,,,,,,,49,28,Female,0.14285714285714285,0.25,0.0,0.25,3.111111111111111,3.75,3.5555555555555554,3.2222222222222223,1.625,3.7777777777777777,2.0,2.25,3.0,2.5,0.8194444444444444,0.8333333333333334,0.3980088111323615,-0.2014443063238906,-0.9212811354192315,-0.17027759157114872,,,,,,,,,,,,,,,,,,,,,-0.0004191225957338538,-0.02157343062641521,0.359,-1.8116292947338652,,,,,,,,
28,240722_151124,FalseCHOICE,9.0,29,2.0,1472.0,,,,,,,,,,,29.0,29.0,,,A,,,,,,False,cue1.png,Easy,cue2.png,Hard,Right,Hard,Mid,0.0155142000876367,,,,,,,,,,,,,49,28,Female,0.14285714285714285,0.25,0.0,0.25,3.111111111111111,3.75,3.5555555555555554,3.2222222222222223,1.625,3.7777777777777777,2.0,2.25,3.0,2.5,0.8194444444444444,0.8333333333333334,0.3874009555567884,-0.5704110593445453,-0.948295061422742,-0.554879134553343,,,,,,,,,,,,,,,,,,,2.735038459409072e-06,-0.45349502758081217,-0.00030455646914373177,0.13816572355059606,1.7630000000000001,0.4917140745277661,,,,,,,,
29,240722_151141,FalseCHOICE,9.0,30,2.0,1472.0,,,,,,,,,,,30.0,30.0,,,A,,,,,,False,cue1.png,Easy,cue2.png,Hard,Right,Hard,Mid,0.0166596000781282,,,,,,,,,,,,,49,28,Female,0.14285714285714285,0.25,0.0,0.25,3.111111111111111,3.75,3.5555555555555554,3.2222222222222223,1.625,3.7777777777777777,2.0,2.25,3.0,2.5,0.8194444444444444,0.8333333333333334,0.3822561555490311,-0.7493595885999783,-0.9616643308388416,-0.7452195406575273,,,,,,,,,,,,,,,,,,,-0.00018994203038455752,-0.6270133650026983,-0.0006802427989112177,-0.3856524270588372,0.879,-0.9585391579702982,,,,,,,,
30,240722_151159,FalseCHOICE,9.0,31,2.0,1472.0,,,,,,,,,,,31.0,31.0,,,A,,,,,,False,cue2.png,Hard,cue1.png,Easy,Left,Hard,Mid,0.0170158999972045,,,,,,,,,,,,,49,28,Female,0.14285714285714285,0.25,0.0,0.25,3.111111111111111,3.75,3.5555555555555554,3.2222222222222223,1.625,3.7777777777777777,2.0,2.25,3.0,2.5,1.0,1.0,0.4199810666678887,0.5628036346220443,-0.8675456480829978,0.5947630522704745,,,,,,,,,,,,,,,,,,,5.784035409261458e-07,-0.4554372187700719,-0.000261503159732902,0.1981948039995817,,,,,,,,,,
31,240722_151216,FalseCHOICE,9.0,32,2.0,1472.0,,,,,,,,,,,32.0,32.0,,,A,,,,,,False,cue1.png,Easy,cue2.png,Hard,Right,Hard,Mid,0.0167755000293254,,,,,,,,,,,,,49,28,Female,0.14285714285714285,0.25,0.0,0.25,3.111111111111111,3.75,3.5555555555555554,3.2222222222222223,1.625,3.7777777777777777,2.0,2.25,3.0,2.5,0.8194444444444444,0.8333333333333334,0.4051735888675062,0.047763910946565055,-0.9034396892168792,0.08373390374303828,,,,,,,,,,,,,,,,,,,1.6817892496997014e-05,-0.4408124938811935,-0.0006209007003238187,-0.3029119441816125,0.6450000000000002,-1.342429719513903,,,,,,,,
32,240722_151234,FalseCHOICE,9.0,33,2.0,1472.0,,,,,,,,,,,33.0,33.0,,,A,,,,,,False,cue2.png,Hard,cue1.png,Easy,Left,Hard,Mid,0.0136647999752312,,,,,,,,,,,,,49,28,Female,0.14285714285714285,0.25,0.0,0.25,3.111111111111111,3.75,3.5555555555555554,3.2222222222222223,1.625,3.7777777777777777,2.0,2.25,3.0,2.5,0.5,0.6666666666666667,0.4388467777623898,1.218998481579861,-0.8236049524287771,1.2203536956344998,,,,,,,,,,,,,,,,,,,,,-0.0020994522448638444,-2.364451250445469,1.43,-0.05459172459198006,,,,,,,,
33,240722_151251,FalseCHOICE,9.0,34,2.0,1472.0,,,,,,,,,,,34.0,34.0,,,A,,,,,,False,cue2.png,Hard,cue1.png,Easy,Right,Easy,Mid,0.0165656999452039,,,,,,,,,,,,,49,28,Female,0.14285714285714285,0.25,0.0,0.25,3.111111111111111,3.75,3.5555555555555554,3.2222222222222223,1.625,3.7777777777777777,2.0,2.25,3.0,2.5,0.8194444444444444,0.8333333333333334,0.3913214333458907,-0.43404740414305293,-0.9382259765510771,-0.41152397849206745,,,,,,,,,,,,,,,,,,,0.0028314332428533433,2.0939332286181336,-0.0018473188306245298,-2.012902502756353,1.213,-0.41059280089523764,,,,,,,,
34,240722_151308,FalseCHOICE,9.0,35,2.0,1472.0,,,,,,,,,,,35.0,35.0,,,A,,,,,,False,cue2.png,Hard,cue1.png,Easy,Right,Easy,Mid,0.0137838999507948,,,,,,,,,,,,,49,28,Female,0.14285714285714285,0.25,0.0,0.25,3.111111111111111,3.75,3.5555555555555554,3.2222222222222223,1.625,3.7777777777777777,2.0,2.25,3.0,2.5,0.8194444444444444,0.8333333333333334,0.3907528000159396,-0.4538258402196628,-0.9396801439584588,-0.432227190182243,,,,,,,,,,,,,,,,,,,6.334871366959951e-05,-0.3989084376424954,,,,,,,,,,,,
35,240722_151326,FalseCHOICE,9.0,36,2.0,1472.0,,,,,,,,,,,36.0,36.0,,,A,,,,,,False,cue1.png,Easy,cue2.png,Hard,Left,Easy,Mid,0.0163047000532969,,,,,,,,,,,,,49,28,Female,0.14285714285714285,0.25,0.0,0.25,3.111111111111111,3.75,3.5555555555555554,3.2222222222222223,1.625,3.7777777777777777,2.0,2.25,3.0,2.5,0.5,0.6666666666666667,0.3824120888667595,-0.7439358524338799,-0.9612564851592843,-0.7394129771230014,,,,,,,,,,,,,,,,,,,0.002956113881437952,2.206216320974185,-0.0005844485257108338,-0.2520868031569619,1.347,-0.19075803488308782,,,,,,,,
36,240722_151344,FalseCHOICE,9.0,37,2.0,1472.0,,,,,,,,,,,37.0,37.0,,,A,,,,,,False,cue2.png,Hard,cue1.png,Easy,Left,Hard,Mid,0.0173529000021517,,,,,,,,,,,,,49,28,Female,0.14285714285714285,0.25,0.0,0.25,3.111111111111111,3.75,3.5555555555555554,3.2222222222222223,1.625,3.7777777777777777,2.0,2.25,3.0,2.5,0.8194444444444444,0.8333333333333334,0.4258267666704746,0.766131152961718,-0.8537226664259856,0.791563031407554,,,,,,,,,,,,,,,,,,,-0.00010756210600182479,-0.552824840122198,-0.0005790962932328819,-0.24462420391900805,1.2479999999999998,-0.3531732724592288,,,,,,,,
37,240722_151402,FalseCHOICE,9.0,38,2.0,1472.0,,,,,,,,,,,38.0,38.0,,,A,,,,,,False,cue1.png,Easy,cue2.png,Hard,Left,Easy,Mid,0.0160578999202698,,,,,,,,,,,,,49,28,Female,0.14285714285714285,0.25,0.0,0.25,3.111111111111111,3.75,3.5555555555555554,3.2222222222222223,1.625,3.7777777777777777,2.0,2.25,3.0,2.5,0.5,0.6666666666666667,0.428020722245694,0.8424422093381176,-0.8485836681104775,0.8647277643408743,,,,,,,,,,,,,,,,,,,0.003701359729583876,2.8773590849611375,0.00018653839342566356,0.8228975924054043,2.5959999999999996,1.8582988513047873,,,,,,,,
38,240722_151420,FalseCHOICE,9.0,39,2.0,1472.0,,,,,,,,,,,39.0,39.0,,,A,,,,,,False,cue1.png,Easy,cue2.png,Hard,Right,Hard,Mid,0.0167614000383764,,,,,,,,,,,,,49,28,Female,0.14285714285714285,0.25,0.0,0.25,3.111111111111111,3.75,3.5555555555555554,3.2222222222222223,1.625,3.7777777777777777,2.0,2.25,3.0,2.5,0.8194444444444444,0.8333333333333334,0.3906089888833877,-0.458827937603802,-0.9400482477900485,-0.4374679427329332,,,,,,,,,,,,,,,,,,,0.000919091030204911,0.37174364315601477,,,0.8779999999999999,-0.9601797159256129,,,,,,,,
39,240722_151437,FalseCHOICE,9.0,40,2.0,1472.0,,,,,,,,,,,40.0,40.0,,,A,,,,,,False,cue2.png,Hard,cue1.png,Easy,Left,Hard,Mid,0.0160815000999718,,,,,,,,,,,,,49,28,Female,0.14285714285714285,0.25,0.0,0.25,3.111111111111111,3.75,3.5555555555555554,3.2222222222222223,1.625,3.7777777777777777,2.0,2.25,3.0,2.5,0.8194444444444444,0.8333333333333334,0.3793650333278088,-0.8499197792012366,-0.9692563888075498,-0.8533088723894642,,,,,,,,,,,,,,,,,,,3.2521321044221355e-05,-0.42667052654856624,,,2.211,1.226684038508685,,,,,,,,
40,240722_151455,FalseCHOICE,9.0,41,2.0,1472.0,,,,,,,,,,,41.0,41.0,,,A,,,,,,False,cue2.png,Hard,cue1.png,Easy,Right,Easy,Mid,0.0167795999441295,,,,,,,,,,,,,49,28,Female,0.14285714285714285,0.25,0.0,0.25,3.111111111111111,3.75,3.5555555555555554,3.2222222222222223,1.625,3.7777777777777777,2.0,2.25,3.0,2.5,0.8194444444444444,0.8333333333333334,0.3859011222246206,-0.6225788731594694,-0.9521741023717362,-0.610105654907341,,,,,,,,,,,,,,,,,,,8.357258571680499e-05,-0.38069551446010114,-0.00041225755355464404,-0.012001526052737964,1.6480000000000001,0.3030499096665926,,,,,,,,
41,240722_151513,FalseCHOICE,9.0,42,2.0,1472.0,,,,,,,,,,,42.0,42.0,,,A,,,,,,False,cue1.png,Easy,cue2.png,Hard,Left,Easy,Mid,0.0150160000193864,,,,,,,,,,,,,49,28,Female,0.14285714285714285,0.25,0.0,0.25,3.111111111111111,3.75,3.5555555555555554,3.2222222222222223,1.625,3.7777777777777777,2.0,2.25,3.0,2.5,0.8194444444444444,0.8333333333333334,0.3866819222457707,-0.5954207688178528,-0.9501528302442386,-0.581328483498733,,,,,,,,,,,,,,,,,,,,,-0.00045265161766263814,-0.06832282997067358,,,,,,,,,,
42,240722_151532,FalseCHOICE,9.0,43,2.0,1472.0,,,,,,,,,,,43.0,43.0,,,A,,,,,,False,cue2.png,Hard,cue1.png,Easy,Right,Easy,Mid,0.0165518000721931,,,,,,,,,,,,,49,28,Female,0.14285714285714285,0.25,0.0,0.25,3.111111111111111,3.75,3.5555555555555554,3.2222222222222223,1.625,3.7777777777777777,2.0,2.25,3.0,2.5,0.8194444444444444,0.8333333333333334,0.3972722888768961,-0.22706232338591417,-0.9231333672050145,-0.1966481088621276,,,,,,,,,,,,,,,,,,,-0.00012332850457396965,-0.5670235160922215,,,1.9720000000000002,0.8345906871885076,,,,,,,,
43,240722_151549,FalseCHOICE,9.0,44,2.0,1472.0,,,,,,,,,,,44.0,44.0,,,A,,,,,,False,cue1.png,Easy,cue2.png,Hard,Right,Hard,Mid,0.0167566000018268,,,,,,,,,,,,,49,28,Female,0.14285714285714285,0.25,0.0,0.25,3.111111111111111,3.75,3.5555555555555554,3.2222222222222223,1.625,3.7777777777777777,2.0,2.25,3.0,2.5,0.8194444444444444,0.8333333333333334,0.3586597222084593,-1.57010034345973,-1.0253811889882858,-1.6523665416180429,,,,,,,,,,,,,,,,,,,3.492273778969235e-05,-0.42450789326983057,-0.0006522433336934377,-0.34661286951755554,1.1540000000000004,-0.5073857202587958,,,,,,,,
44,240722_151607,FalseCHOICE,9.0,45,2.0,1472.0,,,,,,,,,,,45.0,45.0,,,A,,,,,,False,cue2.png,Hard,cue1.png,Easy,Right,Easy,Mid,0.016522999969311,,,,,,,,,,,,,49,28,Female,0.14285714285714285,0.25,0.0,0.25,3.111111111111111,3.75,3.5555555555555554,3.2222222222222223,1.625,3.7777777777777777,2.0,2.25,3.0,2.5,0.8194444444444444,0.8333333333333334,0.3887651999894943,-0.5229593538536528,-0.9447797166016323,-0.5048306135742907,,,,,,,,,,,,,,,,,,,-4.654514961032223e-05,-0.4978750690304899,,,2.6380000000000003,1.9272022854279995,,,,,,,,
45,240722_151625,FalseCHOICE,9.0,46,2.0,1472.0,,,,,,,,,,,46.0,46.0,,,A,,,,,,False,cue2.png,Hard,cue1.png,Easy,Right,Easy,Mid,0.0165235000895336,,,,,,,,,,,,,49,28,Female,0.14285714285714285,0.25,0.0,0.25,3.111111111111111,3.75,3.5555555555555554,3.2222222222222223,1.625,3.7777777777777777,2.0,2.25,3.0,2.5,0.8194444444444444,0.8333333333333334,0.3758575444420178,-0.9719186861647133,-0.9785450785469019,-0.985553419352887,,,,,,,,,,,,,,,,,,,0.0034125197564179367,2.6172397452522524,-0.0004785358260027406,-0.10441309216119092,0.6220000000000001,-1.3801625524861378,,,,,,,,
46,240722_151642,FalseCHOICE,9.0,47,2.0,1472.0,,,,,,,,,,,47.0,47.0,,,A,,,,,,False,cue1.png,Easy,cue2.png,Hard,Right,Hard,Mid,0.0168841000413522,,,,,,,,,,,,,49,28,Female,0.14285714285714285,0.25,0.0,0.25,3.111111111111111,3.75,3.5555555555555554,3.2222222222222223,1.625,3.7777777777777777,2.0,2.25,3.0,2.5,0.8194444444444444,0.8333333333333334,0.4109735000335301,0.24949878332396055,-0.8892265433686839,0.28608871226426275,,,,,,,,,,,,,,,,,,,0.00022676075931421643,-0.251745172988902,-7.753747364968623e-05,0.45469752401962105,1.6489999999999998,0.3046904676219066,,,,,,,,
47,240722_151659,FalseCHOICE,9.0,48,2.0,1472.0,,,,,,,,,,,48.0,48.0,,,A,,,,,,False,cue1.png,Easy,cue2.png,Hard,Left,Easy,Mid,0.0166179999941959,,,,,,,,,,,,,49,28,Female,0.14285714285714285,0.25,0.0,0.25,3.111111111111111,3.75,3.5555555555555554,3.2222222222222223,1.625,3.7777777777777777,2.0,2.25,3.0,2.5,0.8194444444444444,0.8333333333333334,0.3950199999768908,-0.30540235322314313,-0.9288188825099267,-0.2775936907310484,,,,,,,,,,,,,,,,,,,0.000411361123164511,-0.08550043813299606,,,1.6840000000000002,0.36210999605791655,,,,,,,,
48,240722_151717,FalseCHOICE,9.0,49,2.0,1472.0,,,,,,,,,,,49.0,49.0,,,A,,,,,,False,cue2.png,Hard,cue1.png,Easy,Left,Hard,Mid,0.0149420000379905,,,,,,,,,,,,,49,28,Female,0.14285714285714285,0.25,0.0,0.25,3.111111111111111,3.75,3.5555555555555554,3.2222222222222223,1.625,3.7777777777777777,2.0,2.25,3.0,2.5,0.8194444444444444,0.8333333333333334,0.4120711222316863,0.287676725662245,-0.8865593177549604,0.32406242576249195,,,,,,,,,,,,,,,,,,,8.721556507957934e-06,-0.44810377544602115,-0.0006663857427224012,-0.3663315815273821,1.6190000000000002,0.2554737289624707,,,,,,,,
49,240722_151735,FalseCHOICE,9.0,50,2.0,1472.0,,,,,,,,,,,50.0,50.0,,,A,,,,,,False,cue1.png,Easy,cue2.png,Hard,Left,Easy,Mid,0.016940200002864,,,,,,,,,,,,,49,28,Female,0.14285714285714285,0.25,0.0,0.25,3.111111111111111,3.75,3.5555555555555554,3.2222222222222223,1.625,3.7777777777777777,2.0,2.25,3.0,2.5,0.8194444444444444,0.8333333333333334,0.3975072444494192,-0.2188900029691855,-0.9225421200238388,-0.18823042910190035,,,,,,,,,,,,,,,,,,,,,0.0005349682726971134,1.3087121683310114,1.408,-0.09068399960890024,,,,,,,,
0,240722_144134,OFFLINERATING,9.0,1,1.0,,,,,,,,,,,,,,,,,T0,cue1.png,Easy,72.0,1.677834999980405,,,,,,,,,,,,,,,,,,,,,,49,28,Female,0.14285714285714285,0.25,0.0,0.25,3.111111111111111,3.75,3.5555555555555554,3.2222222222222223,1.625,3.7777777777777777,2.0,2.25,3.0,2.5,,,,,,,,,,,,,,,,,,,,,,,,,,,,,,,0.9053662845289709,,,,,1.227,-1.314480874600825,
1,240722_144142,OFFLINERATING,9.0,2,3.0,,,,,,,,,,,,,,,,,T0,cue2.png,Hard,29.0,1.2017526000272485,,,,,,,,,,,,,,,,,,,,,,49,28,Female,0.14285714285714285,0.25,0.0,0.25,3.111111111111111,3.75,3.5555555555555554,3.2222222222222223,1.625,3.7777777777777777,2.0,2.25,3.0,2.5,,,,,,,,,,,,,,,,,,,,,,,,,,,,,,,-1.7795130420052188,,,,,,,
2,240722_145824,OFFLINERATING,9.0,3,1.0,,,,,,,,,,,,,,,,,T1,cue1.png,Easy,70.0,0.9961621999973432,,,,,,,,,,,,,,,,,,,,,,49,28,Female,0.14285714285714285,0.25,0.0,0.25,3.111111111111111,3.75,3.5555555555555554,3.2222222222222223,1.625,3.7777777777777777,2.0,2.25,3.0,2.5,,,,,,,,,,,,,,,,,,,,,,,,,,,,,,,0.7804881763180784,3.043636414249958e-05,-1.059780612921079,-0.0006838820458968994,-1.5743401561730008,1.573,1.1090202760841794,
3,240722_145831,OFFLINERATING,9.0,4,3.0,,,,,,,,,,,,,,,,,T1,cue2.png,Hard,50.0,0.5847059999359772,,,,,,,,,,,,,,,,,,,,,,49,28,Female,0.14285714285714285,0.25,0.0,0.25,3.111111111111111,3.75,3.5555555555555554,3.2222222222222223,1.625,3.7777777777777777,2.0,2.25,3.0,2.5,,,,,,,,,,,,,,,,,,,,,,,,,,,,,,,-0.46829290579084704,9.77826798525443e-05,1.3408457857301888,0.00040930168654399086,0.8964339999371865,,,
4,240722_150206,OFFLINERATING,9.0,5,1.0,,,,,,,,,,,,,,,,,T2,cue1.png,Easy,78.0,0.9513082000194116,,,,,,,,,,,,,,,,,,,,,,49,28,Female,0.14285714285714285,0.25,0.0,0.25,3.111111111111111,3.75,3.5555555555555554,3.2222222222222223,1.625,3.7777777777777777,2.0,2.25,3.0,2.5,,,,,,,,,,,,,,,,,,,,,,,,,,,,,,,1.2800006091616485,,,-5.5923632470594384e-05,-0.1550513642136266,,,
5,240722_150213,OFFLINERATING,9.0,6,3.0,,,,,,,,,,,,,,,,,T2,cue2.png,Hard,69.0,0.667925100075081,,,,,,,,,,,,,,,,,,,,,,49,28,Female,0.14285714285714285,0.25,0.0,0.25,3.111111111111111,3.75,3.5555555555555554,3.2222222222222223,1.625,3.7777777777777777,2.0,2.25,3.0,2.5,,,,,,,,,,,,,,,,,,,,,,,,,,,,,,,0.7180491222126322,5.2282169015565715e-05,-0.28106517280911014,0.00038121678262955684,0.8329575204494408,1.4440000000000002,0.2054605985166501,
6,240722_151751,OFFLINERATING,9.0,7,1.0,,,,,,,,,,,,,,,,,T3,cue1.png,Easy,46.0,1.0628638999769464,,,,,,,,,,,,,,,,,,,,,,49,28,Female,0.14285714285714285,0.25,0.0,0.25,3.111111111111111,3.75,3.5555555555555554,3.2222222222222223,1.625,3.7777777777777777,2.0,2.25,3.0,2.5,,,,,,,,,,,,,,,,,,,,,,,,,,,,,,,-0.7180491222126322,,,,,,,
7,240722_151758,OFFLINERATING,9.0,8,3.0,,,,,,,,,,,,,,,,,T3,cue2.png,Hard,46.0,0.6677925999974832,,,,,,,,,,,,,,,,,,,,,,49,28,Female,0.14285714285714285,0.25,0.0,0.25,3.111111111111111,3.75,3.5555555555555554,3.2222222222222223,1.625,3.7777777777777777,2.0,2.25,3.0,2.5,,,,,,,,,,,,,,,,,,,,,,,,,,,,,,,-0.7180491222126322,,,,,,,
0,240722_150227,LEARNINGCHECK,9.0,1,,,,,,,,,,,,1.0,1.0,1.0,,,A,,,,,,,,,,,,,,,cue1.png,Easy,Left,Left,Easy,0.0128679999615997,1.0,,,,,,49,28,Female,0.14285714285714285,0.25,0.0,0.25,3.111111111111111,3.75,3.5555555555555554,3.2222222222222223,1.625,3.7777777777777777,2.0,2.25,3.0,2.5,,,,,,,,,,,,,,,,,,,,,,,,,,,,,,,,,,,,,,
1,240722_151810,LEARNINGCHECK,9.0,1,,,,,,,,,,,,1.0,1.0,1.0,,,A,,,,,,,,,,,,,,,cue1.png,Easy,Middle,Middle,Mid,0.0155303999781608,1.0,,,,,,49,28,Female,0.14285714285714285,0.25,0.0,0.25,3.111111111111111,3.75,3.5555555555555554,3.2222222222222223,1.625,3.7777777777777777,2.0,2.25,3.0,2.5,,,,,,,,,,,,,,,,,,,,,,,,,,,,,,,,,,,,,,
2,240722_150232,LEARNINGCHECK,9.0,2,,,,,,,,,,,,2.0,2.0,2.0,,,A,,,,,,,,,,,,,,,cue2.png,Hard,Right,Right,Hard,0.0149646999780088,1.0,,,,,,49,28,Female,0.14285714285714285,0.25,0.0,0.25,3.111111111111111,3.75,3.5555555555555554,3.2222222222222223,1.625,3.7777777777777777,2.0,2.25,3.0,2.5,,,,,,,,,,,,,,,,,,,,,,,,,,,,,,,,,,,,,,
3,240722_151815,LEARNINGCHECK,9.0,2,,,,,,,,,,,,2.0,2.0,2.0,,,A,,,,,,,,,,,,,,,cue2.png,Hard,Middle,Middle,Mid,0.0163586999988183,1.0,,,,,,49,28,Female,0.14285714285714285,0.25,0.0,0.25,3.111111111111111,3.75,3.5555555555555554,3.2222222222222223,1.625,3.7777777777777777,2.0,2.25,3.0,2.5,,,,,,,,,,,,,,,,,,,,,,,,,,,,,,,,,,,,,,
0,240722_151826,DEMANDRATING,9.0,-1,,,,,,,,,,,,,,,,,,,,,,,,,,,,,,,,,,,,,,,1.0,MentalDemand,1.0,24.0,3.2842896000947803,49,28,Female,0.14285714285714285,0.25,0.0,0.25,3.111111111111111,3.75,3.5555555555555554,3.2222222222222223,1.625,3.7777777777777777,2.0,2.25,3.0,2.5,,,,,,,,,,,,,,,,,,,,,,,,,,,,,,,,,,,,,,-1.802804433863429
1,240722_151830,DEMANDRATING,9.0,-1,,,,,,,,,,,,,,,,,,,,,,,,,,,,,,,,,,,,,,,2.0,Effort,1.0,34.0,2.6238253000192344,49,28,Female,0.14285714285714285,0.25,0.0,0.25,3.111111111111111,3.75,3.5555555555555554,3.2222222222222223,1.625,3.7777777777777777,2.0,2.25,3.0,2.5,,,,,,,,,,,,,,,,,,,,,,,,,,,,,,,,,,,,,,-1.31261591710298
2,240722_151833,DEMANDRATING,9.0,-1,,,,,,,,,,,,,,,,,,,,,,,,,,,,,,,,,,,,,,,3.0,Frustration,1.0,41.0,2.18277269997634,49,28,Female,0.14285714285714285,0.25,0.0,0.25,3.111111111111111,3.75,3.5555555555555554,3.2222222222222223,1.625,3.7777777777777777,2.0,2.25,3.0,2.5,,,,,,,,,,,,,,,,,,,,,,,,,,,,,,,,,,,,,,-0.9694839553706658
3,240722_151837,DEMANDRATING,9.0,-1,,,,,,,,,,,,,,,,,,,,,,,,,,,,,,,,,,,,,,,4.0,MentalDemand,2.0,82.0,1.731603700085543,49,28,Female,0.14285714285714285,0.25,0.0,0.25,3.111111111111111,3.75,3.5555555555555554,3.2222222222222223,1.625,3.7777777777777777,2.0,2.25,3.0,2.5,,,,,,,,,,,,,,,,,,,,,,,,,,,,,,,,,,,,,,1.040288963347175
4,240722_151840,DEMANDRATING,9.0,-1,,,,,,,,,,,,,,,,,,,,,,,,,,,,,,,,,,,,,,,5.0,Effort,2.0,70.0,1.6103916000574827,49,28,Female,0.14285714285714285,0.25,0.0,0.25,3.111111111111111,3.75,3.5555555555555554,3.2222222222222223,1.625,3.7777777777777777,2.0,2.25,3.0,2.5,,,,,,,,,,,,,,,,,,,,,,,,,,,,,,,,,,,,,,0.4520627432346362
5,240722_151842,DEMANDRATING,9.0,-1,,,,,,,,,,,,,,,,,,,,,,,,,,,,,,,,,,,,,,,6.0,Frustration,2.0,75.0,0.7701748999534175,49,28,Female,0.14285714285714285,0.25,0.0,0.25,3.111111111111111,3.75,3.5555555555555554,3.2222222222222223,1.625,3.7777777777777777,2.0,2.25,3.0,2.5,,,,,,,,,,,,,,,,,,,,,,,,,,,,,,,,,,,,,,0.6971570016148607
6,240722_151845,DEMANDRATING,9.0,-1,,,,,,,,,,,,,,,,,,,,,,,,,,,,,,,,,,,,,,,7.0,MentalDemand,3.0,76.0,1.3469467000104487,49,28,Female,0.14285714285714285,0.25,0.0,0.25,3.111111111111111,3.75,3.5555555555555554,3.2222222222222223,1.625,3.7777777777777777,2.0,2.25,3.0,2.5,,,,,,,,,,,,,,,,,,,,,,,,,,,,,,,,,,,,,,0.7461758532909056
7,240722_151848,DEMANDRATING,9.0,-1,,,,,,,,,,,,,,,,,,,,,,,,,,,,,,,,,,,,,,,8.0,Effort,3.0,77.0,1.9369276999495924,49,28,Female,0.14285714285714285,0.25,0.0,0.25,3.111111111111111,3.75,3.5555555555555554,3.2222222222222223,1.625,3.7777777777777777,2.0,2.25,3.0,2.5,,,,,,,,,,,,,,,,,,,,,,,,,,,,,,,,,,,,,,0.7951947049669504
8,240722_151852,DEMANDRATING,9.0,-1,,,,,,,,,,,,,,,,,,,,,,,,,,,,,,,,,,,,,,,9.0,Frustration,3.0,68.0,1.5234549000160769,49,28,Female,0.14285714285714285,0.25,0.0,0.25,3.111111111111111,3.75,3.5555555555555554,3.2222222222222223,1.625,3.7777777777777777,2.0,2.25,3.0,2.5,,,,,,,,,,,,,,,,,,,,,,,,,,,,,,,,,,,,,,0.3540250398825464
