,END,Phase,Block,TrialN,NbackLevel,ISI,Letter_Resp,Letter_RT,Letter_Accuracy,Trial_A_measure,Trial_ACC,Trial_RT,TrialCountCali,CaliEnd_A_measure,ISI_calibrated,TrialIndex,TrialNumber_total,TrialNumber_valid,CueLearning,TrialDemandLearning,CueMapping,OfflineRatingTimePoint,CueFigure,TrialDemand,OfflineRating,OfflineRatingRT,PhaseType,CueLeft,CueDemandLeft,CueRight,CueDemandRight,Choice,ChoiceDemand,TaskDemand,ChoiceRT,CueCheck,CueDemandCheck,CorrectAnswer,Answer,AnswerDemand,AnswerRT,AnswerACC,DemandRatingQuesIndex,QuesTLX,DemandLevel,DemandRating,DemandRatingRT,PID,Age,Gender,BAI_bis,BAI_bas_d,BAI_bas_rr,BAI_bas_fs,NFC,BFI_ext,BFI_agr,BFI_con,BFI_neu,BFI_open,UPPS_lps,UPPS_lpm,UPPS_pu,UPPS_ss,Task_A_measure,Task_ACC,Task_RT,Task_RT_z,cue_i_on_zyg_values,cue_i_on_zyg_zvalues,cue_e_on_zyg_values,cue_e_on_zyg_zvalues,cue_i_on_cor_values,cue_i_on_cor_zvalues,cue_e_on_cor_values,cue_e_on_cor_zvalues,cue_i_on_scr_values,cue_i_on_scr_zvalues,cue_e_on_scr_values,cue_e_on_scr_zvalues,cue_e_true_zyg_values,cue_e_true_zyg_zvalues,cue_e_true_cor_values,cue_e_true_cor_zvalues,cue_e_true_scr_values,cue_e_true_scr_zvalues,cue_e_false_zyg_values,cue_e_false_zyg_zvalues,cue_e_false_cor_values,cue_e_false_cor_zvalues,cue_e_false_scr_values,cue_e_false_scr_zvalues,OfflineRating_z,cue_i_off_zyg_values,cue_i_off_zyg_zvalues,cue_i_off_cor_values,cue_i_off_cor_zvalues,cue_i_off_scr_values,cue_i_off_scr_zvalues,DemandRating_z
0,240724_093344,PRACTICE,0.0,1,3.0,500.0,,,,,,,,,,3.0,1.0,1.0,cue1.png,Hard,B,,,,,,,,,,,,,,,,,,,,,,,,,,,50,23,Female,1.1428571428571428,1.5,0.4,1.0,1.7777777777777777,2.125,3.111111111111111,2.3333333333333335,1.25,1.7777777777777777,1.25,1.5,2.75,2.25,,,,,,,,,,,,,,,,,,,,,,,,,,,,,,,,,,,,
0,240724_093628,LEARNING,1.0,1,1.0,500.0,,,,,,,,,,1.0,1.0,1.0,cue2.png,Easy,B,,,,,,,,,,,,,,,,,,,,,,,,,,,50,23,Female,1.1428571428571428,1.5,0.4,1.0,1.7777777777777777,2.125,3.111111111111111,2.3333333333333335,1.25,1.7777777777777777,1.25,1.5,2.75,2.25,1.0,1.0,0.4811813437700039,-0.7108505348259111,,,0.007554709519179751,-1.7233277924795236,0.01437660881972572,-0.48865079080441026,0.011961387641306944,-0.7165887849614819,,,8.950711399604071e+45,-0.1369960357652241,,,,,,,,,,,,,,,,,,,,
1,240724_093659,LEARNING,1.0,2,3.0,500.0,,,,,,,,,,2.0,2.0,2.0,cue1.png,Hard,B,,,,,,,,,,,,,,,,,,,,,,,,,,,50,23,Female,1.1428571428571428,1.5,0.4,1.0,1.7777777777777777,2.125,3.111111111111111,2.3333333333333335,1.25,1.7777777777777777,1.25,1.5,2.75,2.25,0.0484848484848484,0.6647727272727273,0.6743218200126042,1.500749005836773,0.006635299645253221,-1.9743209369364354,0.008559073709228041,-1.355162666318417,0.01142463867843694,-1.3738322137816272,0.011153119419304143,-0.8170656363490899,8.116433168726146e+44,-0.17080192261110336,4.22172750210282e+44,-0.16368709772640067,,,,,,,,,,,,,,,,,,,,
2,240724_093725,LEARNING,1.0,3,1.0,500.0,,,,,,,,,,3.0,3.0,3.0,cue2.png,Easy,B,,,,,,,,,,,,,,,,,,,,,,,,,,,50,23,Female,1.1428571428571428,1.5,0.4,1.0,1.7777777777777777,2.125,3.111111111111111,2.3333333333333335,1.25,1.7777777777777777,1.25,1.5,2.75,2.25,1.0,1.0,0.4846794375189347,-0.6707948060691231,0.007111497546130215,-1.7835568451989186,0.01237509013785888,0.04365678961238334,0.017497527746972948,0.44719182439600424,0.01776216403857624,0.004513111828357886,-3.079554163703404e+44,-0.1717779405478364,-2.070452777346428e+45,-0.17148806165903827,,,,,,,,,,,,,,,,,,,,
3,240724_093754,LEARNING,1.0,4,3.0,500.0,,,,,,,,,,4.0,4.0,4.0,cue1.png,Hard,B,,,,,,,,,,,,,,,,,,,,,,,,,,,50,23,Female,1.1428571428571428,1.5,0.4,1.0,1.7777777777777777,2.125,3.111111111111111,2.3333333333333335,1.25,1.7777777777777777,1.25,1.5,2.75,2.25,0.7818181818181817,0.8181818181818181,0.5870329437457258,0.5012276087045325,,,0.009059420872600579,-1.1717527256289295,0.0161377374628485,0.039443425516069865,0.01434670375969856,-0.4200671024113175,-5.34525651603396e+44,-0.17197545471693226,-1.8889344915685214e+45,-0.17091997889457436,,,,,,,,,,,,,,,,,,,,
4,240724_093822,LEARNING,1.0,5,3.0,500.0,,,,,,,,,,5.0,5.0,5.0,cue1.png,Hard,B,,,,,,,,,,,,,,,,,,,,,,,,,,,50,23,Female,1.1428571428571428,1.5,0.4,1.0,1.7777777777777777,2.125,3.111111111111111,2.3333333333333335,1.25,1.7777777777777777,1.25,1.5,2.75,2.25,0.75,0.7708333333333334,0.5625327333342284,0.22068230227095817,0.009128900589198564,-0.9753885217546591,0.013573853452966515,0.4830819020536072,0.019757829876728025,1.1249688207112607,0.016324708763955757,-0.1741787828579026,6.885475986371337e+48,5.830951819771236,1.9963147638508725e+48,6.082692851634286,,,,,,,,,,,,,,,,,,,,
5,240724_093850,LEARNING,1.0,6,1.0,500.0,,,,,,,,,,6.0,6.0,6.0,cue2.png,Easy,B,,,,,,,,,,,,,,,,,,,,,,,,,,,50,23,Female,1.1428571428571428,1.5,0.4,1.0,1.7777777777777777,2.125,3.111111111111111,2.3333333333333335,1.25,1.7777777777777777,1.25,1.5,2.75,2.25,0.9090909090909092,0.9090909090909092,0.5391668999945978,-0.046873558035706565,0.009985467591988597,-0.6322491966996001,0.009197865448526169,-1.1210037390889822,0.0150477063365115,-0.28741465817687495,0.012891639214661259,-0.6009480279150096,-8.099011374393882e+43,-0.1715800819760088,-4.847662464732075e+43,-0.16516005014448065,,,,,,,,,,,,,,,,,,,,
6,240724_093919,LEARNING,1.0,7,3.0,500.0,,,,,,,,,,7.0,7.0,7.0,cue1.png,Hard,B,,,,,,,,,,,,,,,,,,,,,,,,,,,50,23,Female,1.1428571428571428,1.5,0.4,1.0,1.7777777777777777,2.125,3.111111111111111,2.3333333333333335,1.25,1.7777777777777777,1.25,1.5,2.75,2.25,0.95,0.9375,0.6110932199905316,0.7767353475608428,0.008640370327116875,-1.1710929370002383,0.007653217572612638,-1.687218151893612,0.01739606866291959,0.4167681777811013,0.0200696070181507,0.2913542853803708,,,1.5640038758991021e+44,-0.16451886350596628,,,,,,,,,,,,,,,,,,,,
7,240724_093949,LEARNING,1.0,8,3.0,500.0,,,,,,,,,,8.0,8.0,8.0,cue1.png,Hard,B,,,,,,,,,,,,,,,,,,,,,,,,,,,50,23,Female,1.1428571428571428,1.5,0.4,1.0,1.7777777777777777,2.125,3.111111111111111,2.3333333333333335,1.25,1.7777777777777777,1.25,1.5,2.75,2.25,0.8958333333333333,0.8541666666666666,0.6377313666666548,1.0817615859709615,0.01138258744245143,-0.07256529462620145,0.012285991857812486,0.010996446044736366,0.01543170710580688,-0.17226771185958223,0.017315838205496294,-0.05097022053586894,,,6.278939313350716e+44,-0.1630432691623455,,,,,,,,,,,,,,,,,,,,
8,240724_094017,LEARNING,1.0,9,1.0,500.0,,,,,,,,,,9.0,9.0,9.0,cue2.png,Easy,B,,,,,,,,,,,,,,,,,,,,,,,,,,,50,23,Female,1.1428571428571428,1.5,0.4,1.0,1.7777777777777777,2.125,3.111111111111111,2.3333333333333335,1.25,1.7777777777777777,1.25,1.5,2.75,2.25,1.0,1.0,0.5522243062296184,0.10264328169365607,0.011148827366239634,-0.1662091946537124,0.014492224426606245,0.8197248934335695,0.01763143739042494,0.4873461359465456,0.021711328117666056,0.4954387247353715,,,,,,,,,,,,,,,,,,,,,,,,
9,240724_094043,LEARNING,1.0,10,1.0,500.0,,,,,,,,,,10.0,10.0,10.0,cue2.png,Easy,B,,,,,,,,,,,,,,,,,,,,,,,,,,,50,23,Female,1.1428571428571428,1.5,0.4,1.0,1.7777777777777777,2.125,3.111111111111111,2.3333333333333335,1.25,1.7777777777777777,1.25,1.5,2.75,2.25,1.0,1.0,0.48361080622999,-0.6830314149547684,0.009921528320661987,-0.6578631630747479,0.011429254488799903,-0.30305380054389036,0.012452553306982053,-1.0656004600561586,0.014198900097943437,-0.43844076371884116,2.2757017486732067e+44,-0.17131109241099227,8.74651568359048e+44,-0.16227101219664966,,,,,,,,,,,,,,,,,,,,
10,240724_094114,LEARNING,1.0,11,3.0,500.0,,,,,,,,,,11.0,11.0,11.0,cue1.png,Hard,B,,,,,,,,,,,,,,,,,,,,,,,,,,,50,23,Female,1.1428571428571428,1.5,0.4,1.0,1.7777777777777777,2.125,3.111111111111111,2.3333333333333335,1.25,1.7777777777777777,1.25,1.5,2.75,2.25,0.95,0.9375,0.6909871933205675,1.6915797041445066,0.011118095876003473,-0.1785201788303437,0.01035715776167495,-0.6960473288972762,0.016468828079403548,0.1387246678963369,0.01875928146713682,0.12846604843796788,2.082831465633027e+44,-0.17132790601126893,,,,,,,,,,,,,,,,,,,,,,
11,240724_094141,LEARNING,1.0,12,1.0,500.0,,,,,,,,,,12.0,12.0,12.0,cue2.png,Easy,B,,,,,,,,,,,,,,,,,,,,,,,,,,,50,23,Female,1.1428571428571428,1.5,0.4,1.0,1.7777777777777777,2.125,3.111111111111111,2.3333333333333335,1.25,1.7777777777777777,1.25,1.5,2.75,2.25,1.0,1.0,0.4976060937478905,-0.5227751494211121,,,0.012394783996179654,0.05087587598076316,,,0.015482036067384537,-0.27893249826685496,9.179308298984564e+43,-0.17142945702961418,6.813508099822751e+44,-0.16287596959100276,,,,,,,,,,,,,,,,,,,,
12,240724_094208,LEARNING,1.0,13,1.0,500.0,,,,,,,,,,13.0,13.0,13.0,cue2.png,Easy,B,,,,,,,,,,,,,,,,,,,,,,,,,,,50,23,Female,1.1428571428571428,1.5,0.4,1.0,1.7777777777777777,2.125,3.111111111111111,2.3333333333333335,1.25,1.7777777777777777,1.25,1.5,2.75,2.25,1.0,1.0,0.503211424977053,-0.4585900121943272,0.010371278440376169,-0.47769400874183704,0.011761127134840683,-0.18140078283409977,0.01373950121866064,-0.6796946652028741,0.016180888340331507,-0.1920572827637748,-4.827525635089606e+43,-0.17155156257288232,9.33976534309622e+43,-0.16471603795170556,,,,,,,,,,,,,,,,,,,,
13,240724_094235,LEARNING,1.0,14,1.0,500.0,,,,,,,,,,14.0,14.0,14.0,cue2.png,Easy,B,,,,,,,,,,,,,,,,,,,,,,,,,,,50,23,Female,1.1428571428571428,1.5,0.4,1.0,1.7777777777777777,2.125,3.111111111111111,2.3333333333333335,1.25,1.7777777777777777,1.25,1.5,2.75,2.25,1.0,1.0,0.5237606500013499,-0.2232863746097102,0.010709130578615094,-0.34235100077386516,0.012801213706054,0.19985893102608127,0.01912749054011634,0.9359544864751945,0.017537622479601438,-0.023399935149474218,,,,,,,,,,,,,,,,,,,,,,,,
14,240724_094305,LEARNING,1.0,15,3.0,500.0,,,,,,,,,,15.0,15.0,15.0,cue1.png,Hard,B,,,,,,,,,,,,,,,,,,,,,,,,,,,50,23,Female,1.1428571428571428,1.5,0.4,1.0,1.7777777777777777,2.125,3.111111111111111,2.3333333333333335,1.25,1.7777777777777777,1.25,1.5,2.75,2.25,0.8125,0.7916666666666666,0.6057364285890279,0.715396172917251,0.00894436752419439,-1.049312162485185,0.012249918258523182,-0.0022268860543431337,0.014959930994998196,-0.31373508080457,0.038416958230543787,2.5721368658904837,,,,,,,,,,,,,,,,,,,,,,,,
15,240724_094331,LEARNING,1.0,16,1.0,500.0,,,,,,,,,,16.0,16.0,16.0,cue2.png,Easy,B,,,,,,,,,,,,,,,,,,,,,,,,,,,50,23,Female,1.1428571428571428,1.5,0.4,1.0,1.7777777777777777,2.125,3.111111111111111,2.3333333333333335,1.25,1.7777777777777777,1.25,1.5,2.75,2.25,1.0,1.0,0.4730036999535514,-0.8044905302324267,0.013173262964978501,0.6447763589644083,0.014071769995561029,0.6656008613498334,0.01866501072613176,0.7972747166105912,0.018414207715051527,0.08556949112915131,,,,,,,,,,,,,,,,,,,,,,,,
16,240724_094358,LEARNING,1.0,17,1.0,500.0,,,,,,,,,,17.0,17.0,17.0,cue2.png,Easy,B,,,,,,,,,,,,,,,,,,,,,,,,,,,50,23,Female,1.1428571428571428,1.5,0.4,1.0,1.7777777777777777,2.125,3.111111111111111,2.3333333333333335,1.25,1.7777777777777777,1.25,1.5,2.75,2.25,1.0,1.0,0.4833024249965092,-0.6865626053483261,0.01412462523033272,1.0258905094665611,0.01330687072300495,0.3852152801319211,0.016514365638629222,0.15237961681011336,,,,,,,,,,,,,,,,,,,,,,,,,,
17,240724_094428,LEARNING,1.0,18,3.0,500.0,,,,,,,,,,18.0,18.0,18.0,cue1.png,Hard,B,,,,,,,,,,,,,,,,,,,,,,,,,,,50,23,Female,1.1428571428571428,1.5,0.4,1.0,1.7777777777777777,2.125,3.111111111111111,2.3333333333333335,1.25,1.7777777777777777,1.25,1.5,2.75,2.25,1.0,1.0,0.6633938750310335,1.3756160530150583,0.01271974444585484,0.4630975900587967,0.010115588706526197,-0.7845981778290602,0.01682988975170125,0.2469930681747625,0.015679912419084858,-0.2543342371430293,,,,,,,,,,,,,,,,,,,,,,,,
18,240724_094458,LEARNING,1.0,19,3.0,500.0,,,,,,,,,,19.0,19.0,19.0,cue1.png,Hard,B,,,,,,,,,,,,,,,,,,,,,,,,,,,50,23,Female,1.1428571428571428,1.5,0.4,1.0,1.7777777777777777,2.125,3.111111111111111,2.3333333333333335,1.25,1.7777777777777777,1.25,1.5,2.75,2.25,0.9375,0.9375,0.6639142133140316,1.381574306458641,0.011036936284411944,-0.21103257703124403,0.010149232775261596,-0.7722654274848394,0.02438251399014783,2.5117323272519596,0.016659514945021738,-0.13255860037038344,,,,,,,,,,,,,,,,,,,,,,,,
19,240724_094528,LEARNING,1.0,20,3.0,500.0,,,,,,,,,,20.0,20.0,20.0,cue1.png,Hard,B,,,,,,,,,,,,,,,,,,,,,,,,,,,50,23,Female,1.1428571428571428,1.5,0.4,1.0,1.7777777777777777,2.125,3.111111111111111,2.3333333333333335,1.25,1.7777777777777777,1.25,1.5,2.75,2.25,0.6041666666666667,0.5208333333333334,0.555725209118629,0.14273117715641345,0.010448741063865667,-0.44666260984997924,0.010642646981751767,-0.5913968686671439,0.019638210542822356,1.089099619081742,0.018657066861336995,0.11575962069898828,7.109421762395658e+43,-0.1714475014086111,,,,,,,,,,,,,,,,,,,,,,
20,240724_094555,LEARNING,1.0,21,1.0,500.0,,,,,,,,,,21.0,21.0,21.0,cue2.png,Easy,B,,,,,,,,,,,,,,,,,,,,,,,,,,,50,23,Female,1.1428571428571428,1.5,0.4,1.0,1.7777777777777777,2.125,3.111111111111111,2.3333333333333335,1.25,1.7777777777777777,1.25,1.5,2.75,2.25,1.0,1.0,0.4981310999864945,-0.516763444475934,0.011099212302881748,-0.18608490700048166,0.00970947530231071,-0.9334652861750102,,,,,4.168639816555386e+43,-0.17147313787855284,2.2222657675670203e+44,-0.16431285272663498,,,,,,,,,,,,,,,,,,,,
21,240724_094624,LEARNING,1.0,22,3.0,500.0,,,,,,,,,,22.0,22.0,22.0,cue1.png,Hard,B,,,,,,,,,,,,,,,,,,,,,,,,,,,50,23,Female,1.1428571428571428,1.5,0.4,1.0,1.7777777777777777,2.125,3.111111111111111,2.3333333333333335,1.25,1.7777777777777777,1.25,1.5,2.75,2.25,1.0,0.8125,0.550904292272977,0.08752815762971057,0.011480666813763942,-0.033274860644529745,0.010555041815116352,-0.6235098885719471,0.01535656068894762,-0.1948012094979014,0.018200612535118572,0.059017202461839995,3.061747404738699e+42,-0.17150680918490868,8.38382727584492e+43,-0.16474595515467894,,,,,,,,,,,,,,,,,,,,
22,240724_094652,LEARNING,1.0,23,3.0,500.0,,,,,,,,,,23.0,23.0,23.0,cue1.png,Hard,B,,,,,,,,,,,,,,,,,,,,,,,,,,,50,23,Female,1.1428571428571428,1.5,0.4,1.0,1.7777777777777777,2.125,3.111111111111111,2.3333333333333335,1.25,1.7777777777777777,1.25,1.5,2.75,2.25,0.6041666666666667,0.7708333333333334,0.5026631866736958,-0.4648677412517796,0.01033766264167892,-0.491160442119015,0.013023378919889177,0.2812970037796553,,,0.021281770430873106,0.44203986197747097,-3.229863987221899e+43,-0.17153763484700293,-4.687313255156889e+43,-0.16515503182790364,,,,,,,,,,,,,,,,,,,,
23,240724_094721,LEARNING,1.0,24,3.0,500.0,,,,,,,,,,24.0,24.0,24.0,cue1.png,Hard,B,,,,,,,,,,,,,,,,,,,,,,,,,,,50,23,Female,1.1428571428571428,1.5,0.4,1.0,1.7777777777777777,2.125,3.111111111111111,2.3333333333333335,1.25,1.7777777777777777,1.25,1.5,2.75,2.25,0.7818181818181817,0.7556818181818181,0.6149377533234656,0.8207580626260127,0.012640223569660875,0.43124165853667956,0.012234539694492985,-0.007864134994971017,,,,,-5.593388344311887e+43,-0.17155823903400255,-1.836914586818747e+44,-0.1655832208260772,,,,,,,,,,,,,,,,,,,,
24,240724_094747,LEARNING,1.0,25,1.0,500.0,,,,,,,,,,25.0,25.0,25.0,cue2.png,Easy,B,,,,,,,,,,,,,,,,,,,,,,,,,,,50,23,Female,1.1428571428571428,1.5,0.4,1.0,1.7777777777777777,2.125,3.111111111111111,2.3333333333333335,1.25,1.7777777777777777,1.25,1.5,2.75,2.25,1.0,1.0,0.4364361499756342,-1.223215689803529,0.01359981339106251,0.8156517543878443,0.01355302903284307,0.47544839088510205,0.020287658379557896,1.283843851833384,,,-6.133944294153815e+43,-0.17156295136786992,-2.3223642415349598e+44,-0.16573514798905,,,,,,,,,,,,,,,,,,,,
25,240724_094813,LEARNING,1.0,26,1.0,500.0,,,,,,,,,,26.0,26.0,26.0,cue2.png,Easy,B,,,,,,,,,,,,,,,,,,,,,,,,,,,50,23,Female,1.1428571428571428,1.5,0.4,1.0,1.7777777777777777,2.125,3.111111111111111,2.3333333333333335,1.25,1.7777777777777777,1.25,1.5,2.75,2.25,1.0,1.0,0.4553964249935234,-1.0061066905084703,0.009489628457990283,-0.8308815339503646,0.022062680320987405,3.5947918234063754,0.015475094673895238,-0.15925746195129337,0.013525423521600162,-0.5221614940806043,,,-2.094844843775549e+44,-0.16566394312509128,,,,,,,,,,,,,,,,,,,,
26,240724_094843,LEARNING,1.0,27,3.0,500.0,,,,,,,,,,27.0,27.0,27.0,cue1.png,Hard,B,,,,,,,,,,,,,,,,,,,,,,,,,,,50,23,Female,1.1428571428571428,1.5,0.4,1.0,1.7777777777777777,2.125,3.111111111111111,2.3333333333333335,1.25,1.7777777777777777,1.25,1.5,2.75,2.25,0.8125,0.8541666666666666,0.6395217267020296,1.1022625162207254,0.013387846665360161,0.730738234540917,0.011316873040768997,-0.34424894708777193,0.01397168598230469,-0.6100714543846439,0.013442200046914102,-0.5325071101401735,4.845251509324725e+43,-0.17146723946933945,-9.871721066840223e+43,-0.1653172839508315,,,,,,,,,,,,,,,,,,,,
27,240724_094909,LEARNING,1.0,28,1.0,500.0,,,,,,,,,,28.0,28.0,28.0,cue2.png,Easy,B,,,,,,,,,,,,,,,,,,,,,,,,,,,50,23,Female,1.1428571428571428,1.5,0.4,1.0,1.7777777777777777,2.125,3.111111111111111,2.3333333333333335,1.25,1.7777777777777777,1.25,1.5,2.75,2.25,1.0,0.9375,0.4029775332969924,-1.6063412920452187,0.012207584745476003,0.2579272609006995,0.011720940649452921,-0.19613175652805995,0.018763913496572835,0.8269318238593784,0.0160296670421784,-0.2108557948016737,4.641534633154348e+42,-0.17150543199446946,-1.9952190673912336e+43,-0.16507077958291197,,,,,,,,,,,,,,,,,,,,
28,240724_094934,LEARNING,1.0,29,1.0,500.0,,,,,,,,,,29.0,29.0,29.0,cue2.png,Easy,B,,,,,,,,,,,,,,,,,,,,,,,,,,,50,23,Female,1.1428571428571428,1.5,0.4,1.0,1.7777777777777777,2.125,3.111111111111111,2.3333333333333335,1.25,1.7777777777777777,1.25,1.5,2.75,2.25,1.0,1.0,0.4184701624908484,-1.428939370524887,,,,,,,0.02757926804432225,1.2248898053446036,3.02773029232741e+43,-0.17148308383621402,8.72767611483326e+43,-0.16473519400198444,,,,,,,,,,,,,,,,,,,,
29,240724_095004,LEARNING,1.0,30,3.0,500.0,,,,,,,,,,30.0,30.0,30.0,cue1.png,Hard,B,,,,,,,,,,,,,,,,,,,,,,,,,,,50,23,Female,1.1428571428571428,1.5,0.4,1.0,1.7777777777777777,2.125,3.111111111111111,2.3333333333333335,1.25,1.7777777777777777,1.25,1.5,2.75,2.25,0.0484848484848484,0.6647727272727273,0.6172375866677612,0.8470928344293922,,,,,0.015289006226553015,-0.21505817426679638,0.018881119836872573,0.1436119312476537,4.852261768143331e+43,-0.17146717835692352,1.7516762240286387e+44,-0.16446012924352987,,,,,,,,,,,,,,,,,,,,
30,240724_095034,LEARNING,1.0,31,3.0,500.0,,,,,,,,,,31.0,31.0,31.0,cue1.png,Hard,B,,,,,,,,,,,,,,,,,,,,,,,,,,,50,23,Female,1.1428571428571428,1.5,0.4,1.0,1.7777777777777777,2.125,3.111111111111111,2.3333333333333335,1.25,1.7777777777777777,1.25,1.5,2.75,2.25,0.9375,0.8125,0.6201031692146969,0.8799058478785956,0.009632746543171077,-0.7735486656608443,0.015972946769691666,1.3625064199487695,0.01368066534865765,-0.6973372620580753,0.057273729846961455,4.916246145181556,,,,,,,,,,,,,,,,,,,,,,,,
31,240724_095101,LEARNING,1.0,32,1.0,500.0,,,,,,,,,,32.0,32.0,32.0,cue2.png,Easy,B,,,,,,,,,,,,,,,,,,,,,,,,,,,50,23,Female,1.1428571428571428,1.5,0.4,1.0,1.7777777777777777,2.125,3.111111111111111,2.3333333333333335,1.25,1.7777777777777777,1.25,1.5,2.75,2.25,1.0,1.0,0.5127683999889996,-0.349155667008199,0.011932908917824066,0.1478925784970756,0.010336114351809766,-0.7037611141204457,0.013420680450867325,-0.7752966555355963,0.01587700325971122,-0.22983362390055423,4.3688220953280543e+43,-0.1714713927756968,1.831232995902655e+44,-0.1644352310187013,,,,,,,,,,,,,,,,,,,,
32,240724_095127,LEARNING,1.0,33,1.0,500.0,,,,,,,,,,33.0,33.0,33.0,cue2.png,Easy,B,,,,,,,,,,,,,,,,,,,,,,,,,,,50,23,Female,1.1428571428571428,1.5,0.4,1.0,1.7777777777777777,2.125,3.111111111111111,2.3333333333333335,1.25,1.7777777777777777,1.25,1.5,2.75,2.25,1.0,1.0,0.4245153687661513,-1.3597173426943363,0.011460622836516353,-0.04130444478885696,0.010615026243927236,-0.6015216745160488,0.015979610599513742,-0.007972691584787436,0.017369380720799965,-0.04431428231309037,2.4390826895589084e+43,-0.17148821541239093,1.1051870042722032e+44,-0.16466245562711238,,,,,,,,,,,,,,,,,,,,
33,240724_095152,LEARNING,1.0,34,1.0,500.0,,,,,,,,,,34.0,34.0,34.0,cue2.png,Easy,B,,,,,,,,,,,,,,,,,,,,,,,,,,,50,23,Female,1.1428571428571428,1.5,0.4,1.0,1.7777777777777777,2.125,3.111111111111111,2.3333333333333335,1.25,1.7777777777777777,1.25,1.5,2.75,2.25,1.0,1.0,0.3973005374864442,-1.6713470410793148,0.016149840310402494,1.8371883220170353,0.012911730331326135,0.24037049813428202,0.015150323034669072,-0.25664388796282195,0.01907248184011383,0.1674003854235006,,,1.0977131848928328e+43,-0.16497398264057378,,,,,,,,,,,,,,,,,,,,
34,240724_095222,LEARNING,1.0,35,3.0,500.0,,,,,,,,,,35.0,35.0,35.0,cue1.png,Hard,B,,,,,,,,,,,,,,,,,,,,,,,,,,,50,23,Female,1.1428571428571428,1.5,0.4,1.0,1.7777777777777777,2.125,3.111111111111111,2.3333333333333335,1.25,1.7777777777777777,1.25,1.5,2.75,2.25,1.0,0.8125,0.6007587922772822,0.6583986010213687,,,,,0.015710420209117823,-0.08869245547725772,0.016390953232318824,-0.16594384868410314,-2.637101931989761e+43,-0.17153246740280223,-8.866065723091137e+43,-0.16528581078737986,,,,,,,,,,,,,,,,,,,,
35,240724_095252,LEARNING,1.0,36,3.0,500.0,,,,,,,,,,36.0,36.0,36.0,cue1.png,Hard,B,,,,,,,,,,,,,,,,,,,,,,,,,,,50,23,Female,1.1428571428571428,1.5,0.4,1.0,1.7777777777777777,2.125,3.111111111111111,2.3333333333333335,1.25,1.7777777777777777,1.25,1.5,2.75,2.25,0.75,0.8333333333333334,0.6620026187447365,1.359685152234563,,,0.016543201192577517,1.5715419407548268,,,0.015504743411401456,-0.27610971943170315,-4.357008530854784e+43,-0.17154746080749408,-1.5727083311184167e+44,-0.16550053437964915,,,,,,,,,,,,,,,,,,,,
36,240724_095318,LEARNING,1.0,37,1.0,500.0,,,,,,,,,,37.0,37.0,37.0,cue2.png,Easy,B,,,,,,,,,,,,,,,,,,,,,,,,,,,50,23,Female,1.1428571428571428,1.5,0.4,1.0,1.7777777777777777,2.125,3.111111111111111,2.3333333333333335,1.25,1.7777777777777777,1.25,1.5,2.75,2.25,1.0,1.0,0.4529925624956377,-1.0336326721129814,0.018944400422406506,2.956684482312045,0.01491716216262017,0.975492349840652,0.011190526359914294,-1.4440334235932877,0.01023988556043226,-0.9305908996492273,-4.590491515263903e+43,-0.17154949621155394,-1.8150649446011455e+44,-0.16557638272428468,,,,,,,,,,,,,,,,,,,,
37,240724_095348,LEARNING,1.0,38,3.0,500.0,,,,,,,,,,38.0,38.0,38.0,cue1.png,Hard,B,,,,,,,,,,,,,,,,,,,,,,,,,,,50,23,Female,1.1428571428571428,1.5,0.4,1.0,1.7777777777777777,2.125,3.111111111111111,2.3333333333333335,1.25,1.7777777777777777,1.25,1.5,2.75,2.25,1.0,0.875,0.6305059071164578,0.9990247959766136,0.014142965431010924,1.033237563534246,0.011738924024884157,-0.1895396739448238,,,,,-3.2698788142384237e+43,-0.17153798367902412,-1.4426422320351751e+44,-0.16545982866847875,,,,,,,,,,,,,,,,,,,,
38,240724_095419,LEARNING,1.0,39,3.0,500.0,,,,,,,,,,39.0,39.0,39.0,cue1.png,Hard,B,,,,,,,,,,,,,,,,,,,,,,,,,,,50,23,Female,1.1428571428571428,1.5,0.4,1.0,1.7777777777777777,2.125,3.111111111111111,2.3333333333333335,1.25,1.7777777777777777,1.25,1.5,2.75,2.25,0.9375,0.875,0.7403780285967514,2.257140847695532,0.012501791827716414,0.37578613159915397,0.013226435342051215,0.3557304553342306,,,0.012593357277519774,-0.6380278351546278,-1.2480699605510128e+43,-0.17152035842055205,-5.866427880180656e+43,-0.16519193360300208,,,,,,,,,,,,,,,,,,,,
39,240724_095449,LEARNING,1.0,40,3.0,500.0,,,,,,,,,,40.0,40.0,40.0,cue1.png,Hard,B,,,,,,,,,,,,,,,,,,,,,,,,,,,50,23,Female,1.1428571428571428,1.5,0.4,1.0,1.7777777777777777,2.125,3.111111111111111,2.3333333333333335,1.25,1.7777777777777777,1.25,1.5,2.75,2.25,0.7083333333333333,0.7916666666666666,0.5950799928811777,0.5933721996151466,0.01453043376646088,1.1884567380686824,,,0.02383612585456285,2.3478917041405665,,,1.9586130308133987e+43,-0.17149240393986123,4.954003244250098e+43,-0.16485329552036954,,,,,,,,,,,,,,,,,,,,
40,240724_095515,LEARNING,1.0,41,1.0,500.0,,,,,,,,,,41.0,41.0,41.0,cue2.png,Easy,B,,,,,,,,,,,,,,,,,,,,,,,,,,,50,23,Female,1.1428571428571428,1.5,0.4,1.0,1.7777777777777777,2.125,3.111111111111111,2.3333333333333335,1.25,1.7777777777777777,1.25,1.5,2.75,2.25,1.0,1.0,0.4906885187665466,-0.6019864361946992,,,,,0.010903540406344649,-1.5300893871012198,0.013618759067604288,-0.5105588335655095,4.0580370689282165e+43,-0.17147410206565247,1.4210510407551788e+44,-0.16456360227232722,,,,,,,,,,,,,,,,,,,,
41,240724_095544,LEARNING,1.0,42,3.0,500.0,,,,,,,,,,42.0,42.0,42.0,cue1.png,Hard,B,,,,,,,,,,,,,,,,,,,,,,,,,,,50,23,Female,1.1428571428571428,1.5,0.4,1.0,1.7777777777777777,2.125,3.111111111111111,2.3333333333333335,1.25,1.7777777777777777,1.25,1.5,2.75,2.25,0.75,0.8333333333333334,0.5700956687651342,0.30728343762304955,0.015721953768205992,1.6657776806880915,0.012971543553869012,0.26229595390201693,0.011286259377724334,-1.4153268022946055,0.011190882119554924,-0.812371307019043,4.745357070472054e+43,-0.17146811030601697,,,,,,,,,,,,,,,,,,,,,,
42,240724_095613,LEARNING,1.0,43,3.0,500.0,,,,,,,,,,43.0,43.0,43.0,cue1.png,Hard,B,,,,,,,,,,,,,,,,,,,,,,,,,,,50,23,Female,1.1428571428571428,1.5,0.4,1.0,1.7777777777777777,2.125,3.111111111111111,2.3333333333333335,1.25,1.7777777777777777,1.25,1.5,2.75,2.25,0.6113636363636364,0.7272727272727273,0.6722137624892639,1.476610207274146,,,0.015728696167035698,1.272972608575589,0.02030876900994297,1.2901741116089955,,,3.5424968055491745e+43,-0.1714785963235435,1.4854606677184982e+44,-0.1645434445241496,,,,,,,,,,,,,,,,,,,,
43,240724_095640,LEARNING,1.0,44,1.0,500.0,,,,,,,,,,44.0,44.0,44.0,cue2.png,Easy,B,,,,,,,,,,,,,,,,,,,,,,,,,,,50,23,Female,1.1428571428571428,1.5,0.4,1.0,1.7777777777777777,2.125,3.111111111111111,2.3333333333333335,1.25,1.7777777777777777,1.25,1.5,2.75,2.25,1.0,1.0,0.4552372938051121,-1.0079288588599324,,,,,0.012480915431959273,-1.0570957581301992,0.013009283599268657,-0.5863235047344568,,,5.03053917757505e+43,-0.16485090023857202,,,,,,,,,,,,,,,,,,,,
44,240724_095705,LEARNING,1.0,45,1.0,500.0,,,,,,,,,,45.0,45.0,45.0,cue2.png,Easy,B,,,,,,,,,,,,,,,,,,,,,,,,,,,50,23,Female,1.1428571428571428,1.5,0.4,1.0,1.7777777777777777,2.125,3.111111111111111,2.3333333333333335,1.25,1.7777777777777777,1.25,1.5,2.75,2.25,1.0,1.0,0.4011138875066535,-1.6276813977240214,0.010787828325920651,-0.31082481332346923,0.010264211567637729,-0.7301181844623901,0.013909261312831937,-0.6287901930940571,0.014857316835856522,-0.35659214103950315,-2.6720021435554135e+43,-0.1715327716478096,-8.334419080824218e+43,-0.1652691722821757,,,,,,,,,,,,,,,,,,,,
45,240724_095731,LEARNING,1.0,46,1.0,500.0,,,,,,,,,,46.0,46.0,46.0,cue2.png,Easy,B,,,,,,,,,,,,,,,,,,,,,,,,,,,50,23,Female,1.1428571428571428,1.5,0.4,1.0,1.7777777777777777,2.125,3.111111111111111,2.3333333333333335,1.25,1.7777777777777777,1.25,1.5,2.75,2.25,1.0,1.0,0.461278000017046,-0.9387583600422197,0.01252326521039948,0.38438833319752924,0.0168067684914372,1.668156583927192,0.009738552762807239,-1.8794240248855651,0.011847782273845744,-0.7307112127799963,-5.082647487918004e+43,-0.17155378661527373,-1.847420081236656e+44,-0.16558650864376753,,,,,,,,,,,,,,,,,,,,
46,240724_095800,LEARNING,1.0,47,3.0,500.0,,,,,,,,,,47.0,47.0,47.0,cue1.png,Hard,B,,,,,,,,,,,,,,,,,,,,,,,,,,,50,23,Female,1.1428571428571428,1.5,0.4,1.0,1.7777777777777777,2.125,3.111111111111111,2.3333333333333335,1.25,1.7777777777777777,1.25,1.5,2.75,2.25,0.75,0.7708333333333334,0.6074522999891391,0.7350441538798512,0.01311227988827816,0.6203466392687206,,,0.020022616429537114,1.2043680444102016,,,-3.839567924751779e+43,-0.17154294998323397,-1.4921508956274302e+44,-0.16547532298540543,,,,,,,,,,,,,,,,,,,,
47,240724_095831,LEARNING,1.0,48,3.0,500.0,,,,,,,,,,48.0,48.0,48.0,cue1.png,Hard,B,,,,,,,,,,,,,,,,,,,,,,,,,,,50,23,Female,1.1428571428571428,1.5,0.4,1.0,1.7777777777777777,2.125,3.111111111111111,2.3333333333333335,1.25,1.7777777777777777,1.25,1.5,2.75,2.25,0.2291666666666666,0.6041666666666666,0.5501514272764325,0.07890730345698212,,,,,,,,,1.3849658470920833e+43,-0.17149740474884792,4.571044852973178e+43,-0.16486528065237202,,,,,,,,,,,,,,,,,,,,
48,240724_095857,LEARNING,1.0,49,1.0,500.0,,,,,,,,,,49.0,49.0,49.0,cue2.png,Easy,B,,,,,,,,,,,,,,,,,,,,,,,,,,,50,23,Female,1.1428571428571428,1.5,0.4,1.0,1.7777777777777777,2.125,3.111111111111111,2.3333333333333335,1.25,1.7777777777777777,1.25,1.5,2.75,2.25,1.0,1.0,0.4537731499731308,-1.0246943752823245,0.007137392072139668,-1.773183540893987,,,,,,,,,,,,,,,,,,,,,,,,,,,,,,
49,240724_095923,LEARNING,1.0,50,1.0,500.0,,,,,,,,,,50.0,50.0,50.0,cue2.png,Easy,B,,,,,,,,,,,,,,,,,,,,,,,,,,,50,23,Female,1.1428571428571428,1.5,0.4,1.0,1.7777777777777777,2.125,3.111111111111111,2.3333333333333335,1.25,1.7777777777777777,1.25,1.5,2.75,2.25,1.0,1.0,0.4537185750523349,-1.0253192979920118,,,,,,,,,1.1223435421290194e+43,-0.1714996941769494,-4.310852271187713e+43,-0.16514325003988325,,,,,,,,,,,,,,,,,,,,
0,240724_100048,TrueCHOICE,9.0,1,1.0,500.0,,,,,,,,,,,1.0,1.0,,,B,,,,,,True,cue2.png,Easy,cue1.png,Hard,Left,Easy,Easy,0.0165186000522226,,,,,,,,,,,,,50,23,Female,1.1428571428571428,1.5,0.4,1.0,1.7777777777777777,2.125,3.111111111111111,2.3333333333333335,1.25,1.7777777777777777,1.25,1.5,2.75,2.25,1.0,0.9375,0.5269017733633519,1.4241466752965637,,,,,,,,,,,,,,,0.011636394971418492,0.04783903287336287,52805562.22948366,-0.4532475310901752,,,,,,,,,,,,,,
1,240724_100113,TrueCHOICE,9.0,2,1.0,500.0,,,,,,,,,,,2.0,2.0,,,B,,,,,,True,cue2.png,Easy,cue1.png,Hard,Left,Easy,Easy,0.0162500999867916,,,,,,,,,,,,,50,23,Female,1.1428571428571428,1.5,0.4,1.0,1.7777777777777777,2.125,3.111111111111111,2.3333333333333335,1.25,1.7777777777777777,1.25,1.5,2.75,2.25,1.0,1.0,0.4744305874919519,0.31874281926705106,,,,,,,,,,,,,,,,,16445060.376003727,-0.45556191899334836,,,,,,,,,,,,,,
2,240724_100138,TrueCHOICE,9.0,3,1.0,500.0,,,,,,,,,,,3.0,3.0,,,B,,,,,,True,cue1.png,Hard,cue2.png,Easy,Right,Easy,Easy,0.016700399806723,,,,,,,,,,,,,50,23,Female,1.1428571428571428,1.5,0.4,1.0,1.7777777777777777,2.125,3.111111111111111,2.3333333333333335,1.25,1.7777777777777777,1.25,1.5,2.75,2.25,0.8958333333333333,0.9166666666666666,0.498792081270949,0.8319633366752633,,,,,,,,,,,,,0.010301964036103846,-0.6046455679095908,,,10201015.784827465,-0.45595935963723505,,,,,,,,,,,,,,
3,240724_100203,TrueCHOICE,9.0,4,1.0,500.0,,,,,,,,,,,4.0,4.0,,,B,,,,,,True,cue2.png,Easy,cue1.png,Hard,Left,Easy,Easy,0.0161261002067476,,,,,,,,,,,,,50,23,Female,1.1428571428571428,1.5,0.4,1.0,1.7777777777777777,2.125,3.111111111111111,2.3333333333333335,1.25,1.7777777777777777,1.25,1.5,2.75,2.25,1.0,1.0,0.5078314312559087,1.0223941829279892,,,,,,,,,,,,,0.010934842223961067,-0.4084432121078372,0.009715511909619185,-0.5276476112317292,-225344.84674120985,-0.4566230095235062,,,,,,,,,,,,,,
4,240724_100227,TrueCHOICE,9.0,5,1.0,500.0,,,,,,,,,,,5.0,5.0,,,B,,,,,,True,cue1.png,Hard,cue2.png,Easy,Right,Easy,Easy,0.0169921999331563,,,,,,,,,,,,,50,23,Female,1.1428571428571428,1.5,0.4,1.0,1.7777777777777777,2.125,3.111111111111111,2.3333333333333335,1.25,1.7777777777777777,1.25,1.5,2.75,2.25,0.75,0.8333333333333334,0.4541513812582707,-0.10847666120875404,,,,,,,,,,,,,0.013149454688076597,0.2781220558761191,0.012281490158613757,0.24110621909114435,45454161336.99246,2.436601157362795,,,,,,,,,,,,,,
5,240724_100251,TrueCHOICE,9.0,6,1.0,500.0,,,,,,,,,,,6.0,6.0,,,B,,,,,,True,cue1.png,Hard,cue2.png,Easy,Right,Easy,Easy,0.0165662998333573,,,,,,,,,,,,,50,23,Female,1.1428571428571428,1.5,0.4,1.0,1.7777777777777777,2.125,3.111111111111111,2.3333333333333335,1.25,1.7777777777777777,1.25,1.5,2.75,2.25,1.0,1.0,0.4147873499896377,-0.937753744060632,,,,,,,,,,,,,0.010492775388374646,-0.545490998282212,0.01872231203954922,2.1707431882808184,,,,,,,,,,,,,,,,
6,240724_100316,TrueCHOICE,9.0,7,1.0,500.0,,,,,,,,,,,7.0,7.0,,,B,,,,,,True,cue2.png,Easy,cue1.png,Hard,Left,Easy,Easy,0.0152410001028329,,,,,,,,,,,,,50,23,Female,1.1428571428571428,1.5,0.4,1.0,1.7777777777777777,2.125,3.111111111111111,2.3333333333333335,1.25,1.7777777777777777,1.25,1.5,2.75,2.25,1.0,1.0,0.4851544999983161,0.5446621317314455,,,,,,,,,,,,,0.01024863476659738,-0.6211784940099222,0.007726969049338796,-1.123404781504214,,,,,,,,,,,,,,,,
7,240724_100339,TrueCHOICE,9.0,8,1.0,500.0,,,,,,,,,,,8.0,8.0,,,B,,,,,,True,cue1.png,Hard,cue2.png,Easy,Right,Easy,Easy,0.0142892999574542,,,,,,,,,,,,,50,23,Female,1.1428571428571428,1.5,0.4,1.0,1.7777777777777777,2.125,3.111111111111111,2.3333333333333335,1.25,1.7777777777777777,1.25,1.5,2.75,2.25,1.0,1.0,0.4367262687301263,-0.47556930949703724,,,,,,,,,,,,,0.020421298084628545,2.5325097608080465,,,,,,,,,,,,,,,,,,
8,240724_100403,TrueCHOICE,9.0,9,1.0,500.0,,,,,,,,,,,9.0,9.0,,,B,,,,,,True,cue2.png,Easy,cue1.png,Hard,Left,Easy,Easy,0.0162048998754471,,,,,,,,,,,,,50,23,Female,1.1428571428571428,1.5,0.4,1.0,1.7777777777777777,2.125,3.111111111111111,2.3333333333333335,1.25,1.7777777777777777,1.25,1.5,2.75,2.25,1.0,1.0,0.435182618748513,-0.5080891890022825,,,,,,,,,,,,,0.010534815070928325,-0.5324580246192762,0.011543404308367509,0.019979510512751326,4680725419.927651,-0.15867509150526224,,,,,,,,,,,,,,
9,240724_100426,TrueCHOICE,9.0,10,1.0,500.0,,,,,,,,,,,10.0,10.0,,,B,,,,,,True,cue1.png,Hard,cue2.png,Easy,Right,Easy,Easy,0.0166708000469952,,,,,,,,,,,,,50,23,Female,1.1428571428571428,1.5,0.4,1.0,1.7777777777777777,2.125,3.111111111111111,2.3333333333333335,1.25,1.7777777777777777,1.25,1.5,2.75,2.25,0.9090909090909092,0.8465909090909091,0.3590473999734968,-2.112020242129594,,,,,,,,,,,,,0.011934879982528375,-0.09841551975532928,0.008710928680701314,-0.8286155580221335,1169176.770754745,-0.4565342466132677,,,,,,,,,,,,,,
0,240724_100600,FalseCHOICE,9.0,1,2.0,500.0,,,,,,,,,,,1.0,1.0,,,B,,,,,,False,cue2.png,Easy,cue1.png,Hard,Left,Easy,Mid,0.0161150998901575,,,,,,,,,,,,,50,23,Female,1.1428571428571428,1.5,0.4,1.0,1.7777777777777777,2.125,3.111111111111111,2.3333333333333335,1.25,1.7777777777777777,1.25,1.5,2.75,2.25,0.9090909090909092,0.8465909090909091,0.6445647666696459,1.1861747722307274,,,,,,,,,,,,,,,,,,,,,0.017057909697731178,0.11053428055146107,,,,,,,,,,
1,240724_100627,FalseCHOICE,9.0,2,2.0,500.0,,,,,,,,,,,2.0,2.0,,,B,,,,,,False,cue1.png,Hard,cue2.png,Easy,Left,Hard,Mid,0.0167857999913394,,,,,,,,,,,,,50,23,Female,1.1428571428571428,1.5,0.4,1.0,1.7777777777777777,2.125,3.111111111111111,2.3333333333333335,1.25,1.7777777777777777,1.25,1.5,2.75,2.25,1.0,1.0,0.6186936750164023,0.798098776398426,,,,,,,,,,,,,,,,,,,0.007104125012571837,-0.8383571303555448,0.015023120403654095,-0.08947755961949712,9.619707050669562e+43,-0.16886034352927265,,,,,,,,
2,240724_100653,FalseCHOICE,9.0,3,2.0,500.0,,,,,,,,,,,3.0,3.0,,,B,,,,,,False,cue1.png,Hard,cue2.png,Easy,Right,Easy,Mid,0.0171216002199798,,,,,,,,,,,,,50,23,Female,1.1428571428571428,1.5,0.4,1.0,1.7777777777777777,2.125,3.111111111111111,2.3333333333333335,1.25,1.7777777777777777,1.25,1.5,2.75,2.25,1.0,0.9375,0.5115429866748552,-0.8092013963041412,,,,,,,,,,,,,,,,,,,,,,,-5.871536219658982e+44,-0.16994944665470166,,,,,,,,
3,240724_100719,FalseCHOICE,9.0,4,2.0,500.0,,,,,,,,,,,4.0,4.0,,,B,,,,,,False,cue1.png,Hard,cue2.png,Easy,Right,Easy,Mid,0.0163838998414576,,,,,,,,,,,,,50,23,Female,1.1428571428571428,1.5,0.4,1.0,1.7777777777777777,2.125,3.111111111111111,2.3333333333333335,1.25,1.7777777777777777,1.25,1.5,2.75,2.25,0.6113636363636364,0.7272727272727273,0.5743420000071637,0.13280715760108483,,,,,,,,,,,,,,,,,,,0.0074305922509801834,-0.7973331143790585,,,-6.716143987186895e+44,-0.17008405761939505,,,,,,,,
4,240724_100747,FalseCHOICE,9.0,5,2.0,500.0,,,,,,,,,,,5.0,5.0,,,B,,,,,,False,cue2.png,Easy,cue1.png,Hard,Left,Easy,Mid,0.0162639999762177,,,,,,,,,,,,,50,23,Female,1.1428571428571428,1.5,0.4,1.0,1.7777777777777777,2.125,3.111111111111111,2.3333333333333335,1.25,1.7777777777777777,1.25,1.5,2.75,2.25,0.8409090909090908,0.8465909090909091,0.7135913866882523,2.2215997423749614,,,,,,,,,,,,,,,,,,,0.0068332711203208316,-0.8723927489283967,,,3.818052275566581e+48,5.916079561624392,,,,,,,,
5,240724_100814,FalseCHOICE,9.0,6,2.0,500.0,,,,,,,,,,,6.0,6.0,,,B,,,,,,False,cue1.png,Hard,cue2.png,Easy,Right,Easy,Mid,0.0166485998779535,,,,,,,,,,,,,50,23,Female,1.1428571428571428,1.5,0.4,1.0,1.7777777777777777,2.125,3.111111111111111,2.3333333333333335,1.25,1.7777777777777777,1.25,1.5,2.75,2.25,1.0,1.0,0.6441111125459429,1.1793697916686718,,,,,,,,,,,,,,,,,,,0.011253015099863038,-0.31700578724518885,0.010511755676260632,-0.5329270919297145,-3.123948299638827e+43,-0.1690634479531694,,,,,,,,
6,240724_100841,FalseCHOICE,9.0,7,2.0,500.0,,,,,,,,,,,7.0,7.0,,,B,,,,,,False,cue1.png,Hard,cue2.png,Easy,Right,Easy,Mid,0.0166960000060498,,,,,,,,,,,,,50,23,Female,1.1428571428571428,1.5,0.4,1.0,1.7777777777777777,2.125,3.111111111111111,2.3333333333333335,1.25,1.7777777777777777,1.25,1.5,2.75,2.25,1.0,0.9375,0.6164440733380616,0.764353914633437,,,,,,,,,,,,,,,,,,,0.006277790589182618,-0.9421946754406609,0.008330419687641536,-0.7473438997951848,1.4172100752806449e+44,-0.16878778889131302,,,,,,,,
7,240724_100908,FalseCHOICE,9.0,8,2.0,500.0,,,,,,,,,,,8.0,8.0,,,B,,,,,,False,cue2.png,Easy,cue1.png,Hard,Left,Easy,Mid,0.016279499977827,,,,,,,,,,,,,50,23,Female,1.1428571428571428,1.5,0.4,1.0,1.7777777777777777,2.125,3.111111111111111,2.3333333333333335,1.25,1.7777777777777777,1.25,1.5,2.75,2.25,1.0,1.0,0.6294879187335027,0.9600164463567064,,,,,,,,,,,,,,,,,,,0.012452770475412763,-0.16624400197574532,0.013097001304901375,-0.2788075440318119,,,,,,,,,,
8,240724_100937,FalseCHOICE,9.0,9,2.0,500.0,,,,,,,,,,,9.0,9.0,,,B,,,,,,False,cue2.png,Easy,cue1.png,Hard,Left,Easy,Mid,0.0168258000630885,,,,,,,,,,,,,50,23,Female,1.1428571428571428,1.5,0.4,1.0,1.7777777777777777,2.125,3.111111111111111,2.3333333333333335,1.25,1.7777777777777777,1.25,1.5,2.75,2.25,0.9375,0.9375,0.7004145866880814,2.0239428421371146,,,,,,,,,,,,,,,,,,,0.007776025158311601,-0.7539258641500386,0.009927320911996582,-0.590374746583978,,,,,,,,,,
9,240724_101005,FalseCHOICE,9.0,10,2.0,500.0,,,,,,,,,,,10.0,10.0,,,B,,,,,,False,cue1.png,Hard,cue2.png,Easy,Right,Easy,Mid,0.0150282999966293,,,,,,,,,,,,,50,23,Female,1.1428571428571428,1.5,0.4,1.0,1.7777777777777777,2.125,3.111111111111111,2.3333333333333335,1.25,1.7777777777777777,1.25,1.5,2.75,2.25,0.8125,0.8541666666666666,0.6976392533319692,1.9823118096945842,,,,,,,,,,,,,,,,,,,0.019961501065802315,0.7773063683618062,0.014211769888949117,-0.16923014625938404,2.9629164298743363e+44,-0.1685414390097182,,,,,,,,
10,240724_101033,FalseCHOICE,9.0,11,2.0,500.0,,,,,,,,,,,11.0,11.0,,,B,,,,,,False,cue2.png,Easy,cue1.png,Hard,Left,Easy,Mid,0.016253599897027,,,,,,,,,,,,,50,23,Female,1.1428571428571428,1.5,0.4,1.0,1.7777777777777777,2.125,3.111111111111111,2.3333333333333335,1.25,1.7777777777777777,1.25,1.5,2.75,2.25,0.8958333333333333,0.9166666666666666,0.7027993999654427,2.059715928170384,,,,,,,,,,,,,,,,,,,0.014607622613650095,0.10453566025621878,0.014883398367394697,-0.10321169006043354,2.7073410788525906e+44,-0.1685821718159693,,,,,,,,
11,240724_101101,FalseCHOICE,9.0,12,2.0,500.0,,,,,,,,,,,12.0,12.0,,,B,,,,,,False,cue1.png,Hard,cue2.png,Easy,Right,Easy,Mid,0.0172552999574691,,,,,,,,,,,,,50,23,Female,1.1428571428571428,1.5,0.4,1.0,1.7777777777777777,2.125,3.111111111111111,2.3333333333333335,1.25,1.7777777777777777,1.25,1.5,2.75,2.25,0.8125,0.8541666666666666,0.6307963533637424,0.9796434523956288,,,,,,,,,,,,,,,,,,,0.013024522989596485,-0.09439733095655128,0.021078441567690342,0.5057368600604394,1.214244710554555e+44,-0.16882013688122685,,,,,,,,
12,240724_101127,FalseCHOICE,9.0,13,2.0,500.0,,,,,,,,,,,13.0,13.0,,,B,,,,,,False,cue2.png,Easy,cue1.png,Hard,Left,Easy,Mid,0.0160960999783128,,,,,,,,,,,,,50,23,Female,1.1428571428571428,1.5,0.4,1.0,1.7777777777777777,2.125,3.111111111111111,2.3333333333333335,1.25,1.7777777777777777,1.25,1.5,2.75,2.25,0.7083333333333333,0.7916666666666666,0.5502845214713099,-0.22806396701746812,,,,,,,,,,,,,,,,,,,0.013917404443061474,0.017802543035826755,0.010222884738602896,-0.5613219768354955,,,,,,,,,,
13,240724_101153,FalseCHOICE,9.0,14,2.0,500.0,,,,,,,,,,,14.0,14.0,,,B,,,,,,False,cue1.png,Hard,cue2.png,Easy,Right,Easy,Mid,0.0171176998410373,,,,,,,,,,,,,50,23,Female,1.1428571428571428,1.5,0.4,1.0,1.7777777777777777,2.125,3.111111111111111,2.3333333333333335,1.25,1.7777777777777777,1.25,1.5,2.75,2.25,0.8958333333333333,0.9166666666666666,0.5929141999804415,0.41139706389608105,,,,,,,,,,,,,,,,,,,0.047050582193011496,4.181332151680816,,,,,,,,,,,,
14,240724_101222,FalseCHOICE,9.0,15,2.0,500.0,,,,,,,,,,,15.0,15.0,,,B,,,,,,False,cue2.png,Easy,cue1.png,Hard,Left,Easy,Mid,0.016378000145778,,,,,,,,,,,,,50,23,Female,1.1428571428571428,1.5,0.4,1.0,1.7777777777777777,2.125,3.111111111111111,2.3333333333333335,1.25,1.7777777777777777,1.25,1.5,2.75,2.25,0.8958333333333333,0.8541666666666666,0.6711629400184999,1.5851572638869122,,,,,,,,,,,,,,,,,,,0.012416804467933907,-0.17076350620721586,0.01865606976853316,0.2676271734516261,,,,,,,,,,
15,240724_101248,FalseCHOICE,9.0,16,2.0,500.0,,,,,,,,,,,16.0,16.0,,,B,,,,,,False,cue2.png,Easy,cue1.png,Hard,Left,Easy,Mid,0.0165109999943524,,,,,,,,,,,,,50,23,Female,1.1428571428571428,1.5,0.4,1.0,1.7777777777777777,2.125,3.111111111111111,2.3333333333333335,1.25,1.7777777777777777,1.25,1.5,2.75,2.25,0.9090909090909092,0.8465909090909091,0.5486375666378687,-0.2527689019945122,,,,,,,,,,,,,,,,,,,0.011800125057827264,-0.24825571061929066,0.013397087542793257,-0.24931023891749604,,,,,,,,,,
16,240724_101314,FalseCHOICE,9.0,17,2.0,500.0,,,,,,,,,,,17.0,17.0,,,B,,,,,,False,cue1.png,Hard,cue2.png,Easy,Right,Easy,Mid,0.0164423999376595,,,,,,,,,,,,,50,23,Female,1.1428571428571428,1.5,0.4,1.0,1.7777777777777777,2.125,3.111111111111111,2.3333333333333335,1.25,1.7777777777777777,1.25,1.5,2.75,2.25,0.9375,0.9375,0.609934419983377,0.6667066934801092,,,,,,,,,,,,,,,,,,,0.012813789879332526,-0.12087814576783709,0.01102777474387014,-0.4822044330400173,,,,,,,,,,
17,240724_101341,FalseCHOICE,9.0,18,2.0,500.0,,,,,,,,,,,18.0,18.0,,,B,,,,,,False,cue1.png,Hard,cue2.png,Easy,Right,Easy,Mid,0.0164975998923182,,,,,,,,,,,,,50,23,Female,1.1428571428571428,1.5,0.4,1.0,1.7777777777777777,2.125,3.111111111111111,2.3333333333333335,1.25,1.7777777777777777,1.25,1.5,2.75,2.25,1.0,1.0,0.602753037455841,0.558983284928973,,,,,,,,,,,,,,,,,,,0.009096961445407326,-0.5879364325307026,0.018861527678562418,0.2878228835343596,,,,,,,,,,
18,240724_101408,FalseCHOICE,9.0,19,2.0,500.0,,,,,,,,,,,19.0,19.0,,,B,,,,,,False,cue2.png,Easy,cue1.png,Hard,Left,Easy,Mid,0.0165279998909682,,,,,,,,,,,,,50,23,Female,1.1428571428571428,1.5,0.4,1.0,1.7777777777777777,2.125,3.111111111111111,2.3333333333333335,1.25,1.7777777777777777,1.25,1.5,2.75,2.25,0.9090909090909092,0.9090909090909092,0.6226064312650124,0.8567915752172978,,,,,,,,,,,,,,,,,,,0.011473147446333622,-0.28934386030091447,0.01153435206188011,-0.4324098612585695,,,,,,,,,,
19,240724_101435,FalseCHOICE,9.0,20,2.0,500.0,,,,,,,,,,,20.0,20.0,,,B,,,,,,False,cue2.png,Easy,cue1.png,Hard,Left,Easy,Mid,0.0168904999736696,,,,,,,,,,,,,50,23,Female,1.1428571428571428,1.5,0.4,1.0,1.7777777777777777,2.125,3.111111111111111,2.3333333333333335,1.25,1.7777777777777777,1.25,1.5,2.75,2.25,1.0,1.0,0.6174008437665179,0.7787058268674742,,,,,,,,,,,,,,,,,,,0.009048748839190074,-0.593994849716352,0.010002637784755212,-0.5829713921628471,,,,,,,,,,
20,240724_101502,FalseCHOICE,9.0,21,2.0,500.0,,,,,,,,,,,21.0,21.0,,,B,,,,,,False,cue2.png,Easy,cue1.png,Hard,Left,Easy,Mid,0.0166225999128073,,,,,,,,,,,,,50,23,Female,1.1428571428571428,1.5,0.4,1.0,1.7777777777777777,2.125,3.111111111111111,2.3333333333333335,1.25,1.7777777777777777,1.25,1.5,2.75,2.25,0.8958333333333333,0.7916666666666666,0.5574689999921247,-0.12029411741580169,,,,,,,,,,,,,,,,,,,0.010281896924582434,-0.43903692192197635,0.011191209382738716,-0.4661394463787784,5.233303652002114e+43,-0.16893025266529174,,,,,,,,
21,240724_101526,FalseCHOICE,9.0,22,2.0,500.0,,,,,,,,,,,22.0,22.0,,,B,,,,,,False,cue1.png,Hard,cue2.png,Easy,Right,Easy,Mid,0.0168243001680821,,,,,,,,,,,,,50,23,Female,1.1428571428571428,1.5,0.4,1.0,1.7777777777777777,2.125,3.111111111111111,2.3333333333333335,1.25,1.7777777777777777,1.25,1.5,2.75,2.25,1.0,1.0,0.4861948312754975,-1.1894331538567582,,,,,,,,,,,,,,,,,,,0.008703979785898344,-0.6373186797563725,0.011033186028153815,-0.4816725249302113,3.717854959845641e+42,-0.16900773403285851,,,,,,,,
22,240724_101550,FalseCHOICE,9.0,23,2.0,500.0,,,,,,,,,,,23.0,23.0,,,B,,,,,,False,cue2.png,Easy,cue1.png,Hard,Left,Easy,Mid,0.0159263000823557,,,,,,,,,,,,,50,23,Female,1.1428571428571428,1.5,0.4,1.0,1.7777777777777777,2.125,3.111111111111111,2.3333333333333335,1.25,1.7777777777777777,1.25,1.5,2.75,2.25,1.0,1.0,0.4935337187198456,-1.079347112979953,,,,,,,,,,,,,,,,,,,0.010166715583913424,-0.45351065957122944,0.013494844144429537,-0.23970114679230867,-4.3907989677269347e+43,-0.16908363862594206,,,,,,,,
23,240724_101615,FalseCHOICE,9.0,24,2.0,500.0,,,,,,,,,,,24.0,24.0,,,B,,,,,,False,cue1.png,Hard,cue2.png,Easy,Right,Easy,Mid,0.0156141000334173,,,,,,,,,,,,,50,23,Female,1.1428571428571428,1.5,0.4,1.0,1.7777777777777777,2.125,3.111111111111111,2.3333333333333335,1.25,1.7777777777777777,1.25,1.5,2.75,2.25,1.0,1.0,0.5325058562593767,-0.4947505567897641,,,,,,,,,,,,,,,,,,,0.009688322418637645,-0.5136257539708938,0.011225887722144662,-0.46273070106109565,-7.381597246629936e+43,-0.16913130504069748,,,,,,,,
24,240724_101640,FalseCHOICE,9.0,25,2.0,500.0,,,,,,,,,,,25.0,25.0,,,B,,,,,,False,cue1.png,Hard,cue2.png,Easy,Right,Easy,Mid,0.016610600054264,,,,,,,,,,,,,50,23,Female,1.1428571428571428,1.5,0.4,1.0,1.7777777777777777,2.125,3.111111111111111,2.3333333333333335,1.25,1.7777777777777777,1.25,1.5,2.75,2.25,0.8958333333333333,0.8541666666666666,0.4811376066567997,-1.2652934038359163,,,,,,,,,,,,,,,,,,,0.01734911097028215,0.44903228628872405,0.01714062936959547,0.11866530121098302,-7.948832668259571e+43,-0.16914034546280218,,,,,,,,
25,240724_101706,FalseCHOICE,9.0,26,2.0,500.0,,,,,,,,,,,26.0,26.0,,,B,,,,,,False,cue2.png,Easy,cue1.png,Hard,Left,Easy,Mid,0.0160156998317688,,,,,,,,,,,,,50,23,Female,1.1428571428571428,1.5,0.4,1.0,1.7777777777777777,2.125,3.111111111111111,2.3333333333333335,1.25,1.7777777777777777,1.25,1.5,2.75,2.25,1.0,1.0,0.5677379437547643,0.03374385787514802,,,,,,,,,,,,,,,,,,,0.029908123176344028,2.0272032534653124,0.018381047735202664,0.24059358175045625,-6.436734214802494e+43,-0.16911624610694062,,,,,,,,
26,240724_101731,FalseCHOICE,9.0,27,2.0,500.0,,,,,,,,,,,27.0,27.0,,,B,,,,,,False,cue2.png,Easy,cue1.png,Hard,Left,Easy,Mid,0.0161948997993022,,,,,,,,,,,,,50,23,Female,1.1428571428571428,1.5,0.4,1.0,1.7777777777777777,2.125,3.111111111111111,2.3333333333333335,1.25,1.7777777777777777,1.25,1.5,2.75,2.25,0.9090909090909092,0.9090909090909092,0.5024391937331529,-0.9457616759805976,,,,,,,,,,,,,,,,,,,0.006327539302868914,-0.9359432303185519,0.011623381123005639,-0.4236586522777465,,,,,,,,,,
27,240724_101755,FalseCHOICE,9.0,28,2.0,500.0,,,,,,,,,,,28.0,28.0,,,B,,,,,,False,cue1.png,Hard,cue2.png,Easy,Right,Easy,Mid,0.0168988001532852,,,,,,,,,,,,,50,23,Female,1.1428571428571428,1.5,0.4,1.0,1.7777777777777777,2.125,3.111111111111111,2.3333333333333335,1.25,1.7777777777777777,1.25,1.5,2.75,2.25,0.8958333333333333,0.9166666666666666,0.4415737250092206,-1.8587663417067297,,,,,,,,,,,,,,,,,,,,,0.012728407072537066,-0.3150389174256974,9.025538149727887e+42,-0.1689992748121179,,,,,,,,
28,240724_101821,FalseCHOICE,9.0,29,2.0,500.0,,,,,,,,,,,29.0,29.0,,,B,,,,,,False,cue2.png,Easy,cue1.png,Hard,Left,Easy,Mid,0.0160771999508142,,,,,,,,,,,,,50,23,Female,1.1428571428571428,1.5,0.4,1.0,1.7777777777777777,2.125,3.111111111111111,2.3333333333333335,1.25,1.7777777777777777,1.25,1.5,2.75,2.25,1.0,0.9375,0.5734422666641573,0.1193108228599506,,,,,,,,,,,,,,,,,,,,,,,4.3657889026058097e+43,-0.16894407884612875,,,,,,,,
29,240724_101847,FalseCHOICE,9.0,30,2.0,500.0,,,,,,,,,,,30.0,30.0,,,B,,,,,,False,cue2.png,Easy,cue1.png,Hard,Left,Easy,Mid,0.0156633998267352,,,,,,,,,,,,,50,23,Female,1.1428571428571428,1.5,0.4,1.0,1.7777777777777777,2.125,3.111111111111111,2.3333333333333335,1.25,1.7777777777777777,1.25,1.5,2.75,2.25,0.0484848484848484,0.6647727272727273,0.5214769733293603,-0.6601879022002503,,,,,,,,,,,,,,,,,,,0.007043363261398802,-0.8459924785853847,0.016565301530510255,0.06211282173216404,6.149663130750624e+43,-0.1689156480123176,,,,,,,,
30,240724_101912,FalseCHOICE,9.0,31,2.0,500.0,,,,,,,,,,,31.0,31.0,,,B,,,,,,False,cue1.png,Hard,cue2.png,Easy,Right,Easy,Mid,0.0167407998815178,,,,,,,,,,,,,50,23,Female,1.1428571428571428,1.5,0.4,1.0,1.7777777777777777,2.125,3.111111111111111,2.3333333333333335,1.25,1.7777777777777777,1.25,1.5,2.75,2.25,0.8958333333333333,0.8541666666666666,0.5011592866387218,-0.9649607583734707,,,,,,,,,,,,,,,,,,,0.010939352893161886,-0.3564207173363764,0.015017971605326514,-0.08998366638503115,6.795772605864196e+43,-0.1689053505200275,,,,,,,,
31,240724_101937,FalseCHOICE,9.0,32,2.0,500.0,,,,,,,,,,,32.0,32.0,,,B,,,,,,False,cue2.png,Easy,cue1.png,Hard,Left,Easy,Mid,0.0141869999933987,,,,,,,,,,,,,50,23,Female,1.1428571428571428,1.5,0.4,1.0,1.7777777777777777,2.125,3.111111111111111,2.3333333333333335,1.25,1.7777777777777777,1.25,1.5,2.75,2.25,0.8958333333333333,0.9166666666666666,0.5097355312609579,-0.8363138996755528,,,,,,,,,,,,,,,,,,,0.030559869852950835,2.1091020259243622,0.07563017772016649,5.867959456836107,,,,,,,,,,
32,240724_102002,FalseCHOICE,9.0,33,2.0,500.0,,,,,,,,,,,33.0,33.0,,,B,,,,,,False,cue1.png,Hard,cue2.png,Easy,Right,Easy,Mid,0.0173188000917434,,,,,,,,,,,,,50,23,Female,1.1428571428571428,1.5,0.4,1.0,1.7777777777777777,2.125,3.111111111111111,2.3333333333333335,1.25,1.7777777777777777,1.25,1.5,2.75,2.25,0.9090909090909092,0.9090909090909092,0.5263518874562578,-0.5870623773963701,,,,,,,,,,,,,,,,,,,0.011990985835147584,-0.22427206185794146,0.018831766745606625,0.28489750006442516,2.9864057866569437e+43,-0.16896606302613024,,,,,,,,
33,240724_102026,FalseCHOICE,9.0,34,2.0,500.0,,,,,,,,,,,34.0,34.0,,,B,,,,,,False,cue1.png,Hard,cue2.png,Easy,Right,Easy,Mid,0.0168732998427003,,,,,,,,,,,,,50,23,Female,1.1428571428571428,1.5,0.4,1.0,1.7777777777777777,2.125,3.111111111111111,2.3333333333333335,1.25,1.7777777777777777,1.25,1.5,2.75,2.25,0.8958333333333333,0.9166666666666666,0.4474659562547458,-1.7703806817999244,,,,,,,,,,,,,,,,,,,0.012370129769620933,-0.1766286692129264,0.018141820469146867,0.21707847586594753,-4.457301414427976e+42,-0.16902076334336652,,,,,,,,
34,240724_102053,FalseCHOICE,9.0,35,2.0,500.0,,,,,,,,,,,35.0,35.0,,,B,,,,,,False,cue1.png,Hard,cue2.png,Easy,Right,Easy,Mid,0.0167591001372784,,,,,,,,,,,,,50,23,Female,1.1428571428571428,1.5,0.4,1.0,1.7777777777777777,2.125,3.111111111111111,2.3333333333333335,1.25,1.7777777777777777,1.25,1.5,2.75,2.25,0.9090909090909092,0.8465909090909091,0.6044087266859909,0.5838192391048257,,,,,,,,,,,,,,,,,,,0.009786815186387217,-0.5012491096943466,0.01394979041709518,-0.19498170510876764,-3.7138104836134104e+43,-0.16907284899359004,,,,,,,,
35,240724_102119,FalseCHOICE,9.0,36,2.0,500.0,,,,,,,,,,,36.0,36.0,,,B,,,,,,False,cue2.png,Easy,cue1.png,Hard,Left,Easy,Mid,0.0161329999100416,,,,,,,,,,,,,50,23,Female,1.1428571428571428,1.5,0.4,1.0,1.7777777777777777,2.125,3.111111111111111,2.3333333333333335,1.25,1.7777777777777777,1.25,1.5,2.75,2.25,0.9090909090909092,0.9090909090909092,0.5564420624723425,-0.13569856211371506,,,,,,,,,,,,,,,,,,,,,,,-5.678951043970452e+43,-0.16910416879394685,,,,,,,,
36,240724_102144,FalseCHOICE,9.0,37,2.0,500.0,,,,,,,,,,,37.0,37.0,,,B,,,,,,False,cue1.png,Hard,cue2.png,Easy,Right,Easy,Mid,0.0167980000842362,,,,,,,,,,,,,50,23,Female,1.1428571428571428,1.5,0.4,1.0,1.7777777777777777,2.125,3.111111111111111,2.3333333333333335,1.25,1.7777777777777777,1.25,1.5,2.75,2.25,1.0,0.9375,0.5416647533265253,-0.35736369473929513,,,,,,,,,,,,,,,,,,,0.013914536278920666,0.017442128275346174,0.015454290898756069,-0.04709518400753765,-6.096115597467131e+43,-0.16911081743313075,,,,,,,,
37,240724_102210,FalseCHOICE,9.0,38,2.0,500.0,,,,,,,,,,,38.0,38.0,,,B,,,,,,False,cue2.png,Easy,cue1.png,Hard,Left,Easy,Mid,0.0169343999586999,,,,,,,,,,,,,50,23,Female,1.1428571428571428,1.5,0.4,1.0,1.7777777777777777,2.125,3.111111111111111,2.3333333333333335,1.25,1.7777777777777777,1.25,1.5,2.75,2.25,0.9090909090909092,0.9090909090909092,0.5401315374911064,-0.3803625024483403,,,,,,,,,,,,,,,,,,,0.013137776711341507,-0.08016581874443479,0.01787526350872829,0.19087696776931762,-4.1768057298133904e+43,-0.1690802280681304,,,,,,,,
38,240724_102236,FalseCHOICE,9.0,39,2.0,500.0,,,,,,,,,,,39.0,39.0,,,B,,,,,,False,cue2.png,Easy,cue1.png,Hard,Left,Easy,Mid,0.0149679000023752,,,,,,,,,,,,,50,23,Female,1.1428571428571428,1.5,0.4,1.0,1.7777777777777777,2.125,3.111111111111111,2.3333333333333335,1.25,1.7777777777777777,1.25,1.5,2.75,2.25,0.6113636363636364,0.7272727272727273,0.6057950812246418,0.6046150727470492,,,,,,,,,,,,,,,,,,,0.012887430881647476,-0.11162438520606757,0.010104852768853631,-0.572924058455087,-1.4250615369713875e+43,-0.16903637162320662,,,,,,,,
39,240724_102303,FalseCHOICE,9.0,40,2.0,500.0,,,,,,,,,,,40.0,40.0,,,B,,,,,,False,cue1.png,Hard,cue2.png,Easy,Right,Easy,Mid,0.0170318998862057,,,,,,,,,,,,,50,23,Female,1.1428571428571428,1.5,0.4,1.0,1.7777777777777777,2.125,3.111111111111111,2.3333333333333335,1.25,1.7777777777777777,1.25,1.5,2.75,2.25,0.95,0.9375,0.5746950533706695,0.13810308934841287,,,,,,,,,,,,,,,,,,,0.011245464445629877,-0.3179546057588146,0.012393989378705058,-0.347910870567856,2.041620369576892e+43,-0.16898112072288735,,,,,,,,
40,240724_102328,FalseCHOICE,9.0,41,2.0,500.0,,,,,,,,,,,41.0,41.0,,,B,,,,,,False,cue1.png,Hard,cue2.png,Easy,Right,Easy,Mid,0.0168512999080121,,,,,,,,,,,,,50,23,Female,1.1428571428571428,1.5,0.4,1.0,1.7777777777777777,2.125,3.111111111111111,2.3333333333333335,1.25,1.7777777777777777,1.25,1.5,2.75,2.25,0.75,0.7708333333333334,0.4886496000147114,-1.1526107098804135,,,,,,,,,,,,,,,,,,,,,,,5.191613778193848e+43,-0.16893091710556177,,,,,,,,
41,240724_102354,FalseCHOICE,9.0,42,2.0,500.0,,,,,,,,,,,42.0,42.0,,,B,,,,,,False,cue2.png,Easy,cue1.png,Hard,Left,Easy,Mid,0.0163509999401867,,,,,,,,,,,,,50,23,Female,1.1428571428571428,1.5,0.4,1.0,1.7777777777777777,2.125,3.111111111111111,2.3333333333333335,1.25,1.7777777777777777,1.25,1.5,2.75,2.25,0.95,0.875,0.5073146785476378,-0.8726275906506786,,,,,,,,,,,,,,,,,,,0.02812996872038631,1.803759586757698,0.012909108169899694,-0.2972767053334601,6.157977690282536e+43,-0.16891551549744824,,,,,,,,
42,240724_102419,FalseCHOICE,9.0,43,2.0,500.0,,,,,,,,,,,43.0,43.0,,,B,,,,,,False,cue1.png,Hard,cue2.png,Easy,Right,Easy,Mid,0.0163636000361293,,,,,,,,,,,,,50,23,Female,1.1428571428571428,1.5,0.4,1.0,1.7777777777777777,2.125,3.111111111111111,2.3333333333333335,1.25,1.7777777777777777,1.25,1.5,2.75,2.25,0.8409090909090908,0.8465909090909091,0.5236193267007668,-0.6280518049231548,,,,,,,,,,,,,,,,,,,0.022260261334183056,1.0661695891735907,0.02777239366273507,1.1637262059073796,4.737935266305584e+43,-0.16893814769288218,,,,,,,,
43,240724_102444,FalseCHOICE,9.0,44,2.0,500.0,,,,,,,,,,,44.0,44.0,,,B,,,,,,False,cue2.png,Easy,cue1.png,Hard,Left,Easy,Mid,0.0154870999976992,,,,,,,,,,,,,50,23,Female,1.1428571428571428,1.5,0.4,1.0,1.7777777777777777,2.125,3.111111111111111,2.3333333333333335,1.25,1.7777777777777777,1.25,1.5,2.75,2.25,0.9090909090909092,0.9090909090909092,0.535141325002769,-0.4552175455513834,,,,,,,,,,,,,,,,,,,0.018356664710321945,0.5756419299702151,0.020071031095867702,0.4067123454027038,1.307415612737923e+43,-0.1689928222504366,,,,,,,,
44,240724_102509,FalseCHOICE,9.0,45,2.0,500.0,,,,,,,,,,,45.0,45.0,,,B,,,,,,False,cue1.png,Hard,cue2.png,Easy,Right,Easy,Mid,0.015478900168091,,,,,,,,,,,,,50,23,Female,1.1428571428571428,1.5,0.4,1.0,1.7777777777777777,2.125,3.111111111111111,2.3333333333333335,1.25,1.7777777777777777,1.25,1.5,2.75,2.25,1.0,1.0,0.5238879812386585,-0.6240218869465733,,,,,,,,,,,,,,,,,,,0.01927145110090566,0.6905943879422406,0.022106367459632827,0.6067779603872633,-3.8180412212693293e+43,-0.16907451019073813,,,,,,,,
45,240724_102535,FalseCHOICE,9.0,46,2.0,500.0,,,,,,,,,,,46.0,46.0,,,B,,,,,,False,cue1.png,Hard,cue2.png,Easy,Right,Easy,Mid,0.016289500053972,,,,,,,,,,,,,50,23,Female,1.1428571428571428,1.5,0.4,1.0,1.7777777777777777,2.125,3.111111111111111,2.3333333333333335,1.25,1.7777777777777777,1.25,1.5,2.75,2.25,0.95,0.9375,0.542335886694491,-0.34729644463634474,,,,,,,,,,,,,,,,,,,,,0.016372241114858913,0.04313573692490926,,,,,,,,,,
46,240724_102600,FalseCHOICE,9.0,47,2.0,500.0,,,,,,,,,,,47.0,47.0,,,B,,,,,,False,cue2.png,Easy,cue1.png,Hard,Left,Easy,Mid,0.0159595001023262,,,,,,,,,,,,,50,23,Female,1.1428571428571428,1.5,0.4,1.0,1.7777777777777777,2.125,3.111111111111111,2.3333333333333335,1.25,1.7777777777777777,1.25,1.5,2.75,2.25,1.0,1.0,0.5354996937385295,-0.44984188124353564,,,,,,,,,,,,,,,,,,,,,0.012525721906992773,-0.3349620775552855,-4.71496733884021e+43,-0.16908880512083307,,,,,,,,
47,240724_102625,FalseCHOICE,9.0,48,2.0,500.0,,,,,,,,,,,48.0,48.0,,,B,,,,,,False,cue2.png,Easy,cue1.png,Hard,Left,Easy,Mid,0.0162158000748604,,,,,,,,,,,,,50,23,Female,1.1428571428571428,1.5,0.4,1.0,1.7777777777777777,2.125,3.111111111111111,2.3333333333333335,1.25,1.7777777777777777,1.25,1.5,2.75,2.25,0.75,0.7708333333333334,0.4631243866713097,-1.5354984024386296,,,,,,,,,,,,,,,,,,,0.00981107545235927,-0.4982005540607597,0.010926366347858815,-0.4921724822891707,2.8063839281619123e+43,-0.16896893215863995,,,,,,,,
48,240724_102650,FalseCHOICE,9.0,49,2.0,500.0,,,,,,,,,,,49.0,49.0,,,B,,,,,,False,cue1.png,Hard,cue2.png,Easy,Right,Easy,Mid,0.0168549998197704,,,,,,,,,,,,,50,23,Female,1.1428571428571428,1.5,0.4,1.0,1.7777777777777777,2.125,3.111111111111111,2.3333333333333335,1.25,1.7777777777777777,1.25,1.5,2.75,2.25,0.9090909090909092,0.9090909090909092,0.5413640000333544,-0.361875105982064,,,,,,,,,,,,,,,,,,,,,,,8.20255637433977e+43,-0.16888292963693002,,,,,,,,
49,240724_102716,FalseCHOICE,9.0,50,2.0,500.0,,,,,,,,,,,50.0,50.0,,,B,,,,,,False,cue2.png,Easy,cue1.png,Hard,Left,Easy,Mid,0.0161208000499755,,,,,,,,,,,,,50,23,Female,1.1428571428571428,1.5,0.4,1.0,1.7777777777777777,2.125,3.111111111111111,2.3333333333333335,1.25,1.7777777777777777,1.25,1.5,2.75,2.25,0.7818181818181817,0.8181818181818181,0.5480011062172707,-0.262316044992648,,,,,,,,,,,,,,,,,,,0.006335402746418697,-0.934955106562584,0.00791255026040412,-0.7884188323870869,-2.3989707912764467e+43,-0.16905189348664262,,,,,,,,
0,240724_093536,OFFLINERATING,9.0,1,1.0,,,,,,,,,,,,,,,,,T0,cue2.png,Easy,33.0,2.8090702001936734,,,,,,,,,,,,,,,,,,,,,,50,23,Female,1.1428571428571428,1.5,0.4,1.0,1.7777777777777777,2.125,3.111111111111111,2.3333333333333335,1.25,1.7777777777777777,1.25,1.5,2.75,2.25,,,,,,,,,,,,,,,,,,,,,,,,,,,,,-0.9927945535915402,0.007224771451027923,-1.1981819667247149,0.011213672974091909,0.08260233009784125,860945723.2596915,-0.4198545706773702,
1,240724_093544,OFFLINERATING,9.0,2,3.0,,,,,,,,,,,,,,,,,T0,cue1.png,Hard,36.0,1.852209400152788,,,,,,,,,,,,,,,,,,,,,,50,23,Female,1.1428571428571428,1.5,0.4,1.0,1.7777777777777777,2.125,3.111111111111111,2.3333333333333335,1.25,1.7777777777777777,1.25,1.5,2.75,2.25,,,,,,,,,,,,,,,,,,,,,,,,,,,,,-0.6084869844593311,0.011160580927965897,-0.018544661325330322,,,8628539.161473986,-0.6510332663007586,
2,240724_095946,OFFLINERATING,9.0,3,1.0,,,,,,,,,,,,,,,,,T1,cue2.png,Easy,40.0,1.82724849996157,,,,,,,,,,,,,,,,,,,,,,50,23,Female,1.1428571428571428,1.5,0.4,1.0,1.7777777777777777,2.125,3.111111111111111,2.3333333333333335,1.25,1.7777777777777777,1.25,1.5,2.75,2.25,,,,,,,,,,,,,,,,,,,,,,,,,,,,,-0.09607689228305229,,,,,,,
3,240724_095954,OFFLINERATING,9.0,4,3.0,,,,,,,,,,,,,,,,,T1,cue1.png,Hard,33.0,2.286127300001681,,,,,,,,,,,,,,,,,,,,,,50,23,Female,1.1428571428571428,1.5,0.4,1.0,1.7777777777777777,2.125,3.111111111111111,2.3333333333333335,1.25,1.7777777777777777,1.25,1.5,2.75,2.25,,,,,,,,,,,,,,,,,,,,,,,,,,,,,-0.9927945535915402,,,,,,,
4,240724_100444,OFFLINERATING,9.0,5,1.0,,,,,,,,,,,,,,,,,T2,cue2.png,Easy,51.0,1.684984700055793,,,,,,,,,,,,,,,,,,,,,,50,23,Female,1.1428571428571428,1.5,0.4,1.0,1.7777777777777777,2.125,3.111111111111111,2.3333333333333335,1.25,1.7777777777777777,1.25,1.5,2.75,2.25,,,,,,,,,,,,,,,,,,,,,,,,,,,,,1.3130508612017147,,,,,8765867817.749397,1.7242410933589492,
5,240724_100452,OFFLINERATING,9.0,6,3.0,,,,,,,,,,,,,,,,,T2,cue1.png,Hard,33.0,1.5353003002237529,,,,,,,,,,,,,,,,,,,,,,50,23,Female,1.1428571428571428,1.5,0.4,1.0,1.7777777777777777,2.125,3.111111111111111,2.3333333333333335,1.25,1.7777777777777777,1.25,1.5,2.75,2.25,,,,,,,,,,,,,,,,,,,,,,,,,,,,,-0.9927945535915402,,,0.014878226099771961,1.59114267164069,,,
6,240724_102743,OFFLINERATING,9.0,7,1.0,,,,,,,,,,,,,,,,,T3,cue2.png,Easy,52.0,1.821869199862704,,,,,,,,,,,,,,,,,,,,,,50,23,Female,1.1428571428571428,1.5,0.4,1.0,1.7777777777777777,2.125,3.111111111111111,2.3333333333333335,1.25,1.7777777777777777,1.25,1.5,2.75,2.25,,,,,,,,,,,,,,,,,,,,,,,,,,,,,1.4411533842457842,0.01006613057368293,-0.346572345181661,0.00940338529547929,-0.6626159541856762,,,
7,240724_102751,OFFLINERATING,9.0,8,3.0,,,,,,,,,,,,,,,,,T3,cue1.png,Hard,48.0,2.502945799846202,,,,,,,,,,,,,,,,,,,,,,50,23,Female,1.1428571428571428,1.5,0.4,1.0,1.7777777777777777,2.125,3.111111111111111,2.3333333333333335,1.25,1.7777777777777777,1.25,1.5,2.75,2.25,,,,,,,,,,,,,,,,,,,,,,,,,,,,,0.9287432920695055,0.016438334640422235,1.5632989732317062,0.00855677568851782,-1.0111290475528536,75123.77498306413,-0.6533532563808203,
0,240724_100509,LEARNINGCHECK,9.0,1,,,,,,,,,,,,1.0,1.0,1.0,,,B,,,,,,,,,,,,,,,cue2.png,Easy,Left,Left,Easy,0.013953800080344,1.0,,,,,,50,23,Female,1.1428571428571428,1.5,0.4,1.0,1.7777777777777777,2.125,3.111111111111111,2.3333333333333335,1.25,1.7777777777777777,1.25,1.5,2.75,2.25,,,,,,,,,,,,,,,,,,,,,,,,,,,,,,,,,,,,
1,240724_100515,LEARNINGCHECK,9.0,2,,,,,,,,,,,,2.0,2.0,2.0,,,B,,,,,,,,,,,,,,,cue1.png,Hard,Right,Right,Hard,0.0158534999936819,1.0,,,,,,50,23,Female,1.1428571428571428,1.5,0.4,1.0,1.7777777777777777,2.125,3.111111111111111,2.3333333333333335,1.25,1.7777777777777777,1.25,1.5,2.75,2.25,,,,,,,,,,,,,,,,,,,,,,,,,,,,,,,,,,,,
2,240724_102803,LEARNINGCHECK,9.0,1,,,,,,,,,,,,1.0,1.0,1.0,,,B,,,,,,,,,,,,,,,cue2.png,Easy,Middle,Middle,Mid,0.0161131001077592,1.0,,,,,,50,23,Female,1.1428571428571428,1.5,0.4,1.0,1.7777777777777777,2.125,3.111111111111111,2.3333333333333335,1.25,1.7777777777777777,1.25,1.5,2.75,2.25,,,,,,,,,,,,,,,,,,,,,,,,,,,,,,,,,,,,
3,240724_102808,LEARNINGCHECK,9.0,2,,,,,,,,,,,,2.0,2.0,2.0,,,B,,,,,,,,,,,,,,,cue1.png,Hard,Middle,Middle,Mid,0.0115075998473912,1.0,,,,,,50,23,Female,1.1428571428571428,1.5,0.4,1.0,1.7777777777777777,2.125,3.111111111111111,2.3333333333333335,1.25,1.7777777777777777,1.25,1.5,2.75,2.25,,,,,,,,,,,,,,,,,,,,,,,,,,,,,,,,,,,,
0,240724_102826,DEMANDRATING,9.0,-1,,,,,,,,,,,,,,,,,,,,,,,,,,,,,,,,,,,,,,,1.0,MentalDemand,1.0,46.0,9.139015999855474,50,23,Female,1.1428571428571428,1.5,0.4,1.0,1.7777777777777777,2.125,3.111111111111111,2.3333333333333335,1.25,1.7777777777777777,1.25,1.5,2.75,2.25,,,,,,,,,,,,,,,,,,,,,,,,,,,,,,,,,,,,-1.0945519676013336
1,240724_102836,DEMANDRATING,9.0,-1,,,,,,,,,,,,,,,,,,,,,,,,,,,,,,,,,,,,,,,2.0,Effort,1.0,54.0,7.951450099935755,50,23,Female,1.1428571428571428,1.5,0.4,1.0,1.7777777777777777,2.125,3.111111111111111,2.3333333333333335,1.25,1.7777777777777777,1.25,1.5,2.75,2.25,,,,,,,,,,,,,,,,,,,,,,,,,,,,,,,,,,,,-0.7192770072808763
2,240724_102842,DEMANDRATING,9.0,-1,,,,,,,,,,,,,,,,,,,,,,,,,,,,,,,,,,,,,,,3.0,Frustration,1.0,38.0,4.291413400089368,50,23,Female,1.1428571428571428,1.5,0.4,1.0,1.7777777777777777,2.125,3.111111111111111,2.3333333333333335,1.25,1.7777777777777777,1.25,1.5,2.75,2.25,,,,,,,,,,,,,,,,,,,,,,,,,,,,,,,,,,,,-1.4698269279217908
3,240724_102847,DEMANDRATING,9.0,-1,,,,,,,,,,,,,,,,,,,,,,,,,,,,,,,,,,,,,,,4.0,MentalDemand,2.0,62.0,3.594545300118625,50,23,Female,1.1428571428571428,1.5,0.4,1.0,1.7777777777777777,2.125,3.111111111111111,2.3333333333333335,1.25,1.7777777777777777,1.25,1.5,2.75,2.25,,,,,,,,,,,,,,,,,,,,,,,,,,,,,,,,,,,,-0.344002046960419
4,240724_102851,DEMANDRATING,9.0,-1,,,,,,,,,,,,,,,,,,,,,,,,,,,,,,,,,,,,,,,5.0,Effort,2.0,70.0,2.864719599951058,50,23,Female,1.1428571428571428,1.5,0.4,1.0,1.7777777777777777,2.125,3.111111111111111,2.3333333333333335,1.25,1.7777777777777777,1.25,1.5,2.75,2.25,,,,,,,,,,,,,,,,,,,,,,,,,,,,,,,,,,,,0.03127291336003833
5,240724_102855,DEMANDRATING,9.0,-1,,,,,,,,,,,,,,,,,,,,,,,,,,,,,,,,,,,,,,,6.0,Frustration,2.0,64.0,1.8433320000767708,50,23,Female,1.1428571428571428,1.5,0.4,1.0,1.7777777777777777,2.125,3.111111111111111,2.3333333333333335,1.25,1.7777777777777777,1.25,1.5,2.75,2.25,,,,,,,,,,,,,,,,,,,,,,,,,,,,,,,,,,,,-0.25018330688030466
6,240724_102858,DEMANDRATING,9.0,-1,,,,,,,,,,,,,,,,,,,,,,,,,,,,,,,,,,,,,,,7.0,MentalDemand,3.0,97.0,2.263611099915579,50,23,Female,1.1428571428571428,1.5,0.4,1.0,1.7777777777777777,2.125,3.111111111111111,2.3333333333333335,1.25,1.7777777777777777,1.25,1.5,2.75,2.25,,,,,,,,,,,,,,,,,,,,,,,,,,,,,,,,,,,,1.2978259044415816
7,240724_102902,DEMANDRATING,9.0,-1,,,,,,,,,,,,,,,,,,,,,,,,,,,,,,,,,,,,,,,8.0,Effort,3.0,98.0,2.547537500038743,50,23,Female,1.1428571428571428,1.5,0.4,1.0,1.7777777777777777,2.125,3.111111111111111,2.3333333333333335,1.25,1.7777777777777777,1.25,1.5,2.75,2.25,,,,,,,,,,,,,,,,,,,,,,,,,,,,,,,,,,,,1.3447352744816388
8,240724_102906,DEMANDRATING,9.0,-1,,,,,,,,,,,,,,,,,,,,,,,,,,,,,,,,,,,,,,,9.0,Frustration,3.0,95.0,2.285885199904442,50,23,Female,1.1428571428571428,1.5,0.4,1.0,1.7777777777777777,2.125,3.111111111111111,2.3333333333333335,1.25,1.7777777777777777,1.25,1.5,2.75,2.25,,,,,,,,,,,,,,,,,,,,,,,,,,,,,,,,,,,,1.2040071643614674
