,END,Phase,Block,TrialN,NbackLevel,ISI,Letter_Resp,Letter_RT,Letter_Accuracy,Trial_A_measure,Trial_ACC,Trial_RT,TrialCountCali,CaliEnd_A_measure,ISI_calibrated,TrialIndex,TrialNumber_total,TrialNumber_valid,CueLearning,TrialDemandLearning,CueMapping,OfflineRatingTimePoint,CueFigure,TrialDemand,OfflineRating,OfflineRatingRT,PhaseType,CueLeft,CueDemandLeft,CueRight,CueDemandRight,Choice,ChoiceDemand,TaskDemand,ChoiceRT,CueCheck,CueDemandCheck,CorrectAnswer,Answer,AnswerDemand,AnswerRT,AnswerACC,DemandRatingQuesIndex,QuesTLX,DemandLevel,DemandRating,DemandRatingRT,PID,Age,Gender,BAI_bis,BAI_bas_d,BAI_bas_rr,BAI_bas_fs,NFC,BFI_ext,BFI_agr,BFI_con,BFI_neu,BFI_open,UPPS_lps,UPPS_lpm,UPPS_pu,UPPS_ss,Task_A_measure,Task_ACC,Task_RT,Task_RT_z,cue_i_on_zyg_values,cue_i_on_zyg_zvalues,cue_e_on_zyg_values,cue_e_on_zyg_zvalues,cue_i_on_cor_values,cue_i_on_cor_zvalues,cue_e_on_cor_values,cue_e_on_cor_zvalues,cue_i_on_scr_values,cue_i_on_scr_zvalues,cue_e_on_scr_values,cue_e_on_scr_zvalues,cue_e_true_zyg_values,cue_e_true_zyg_zvalues,cue_e_true_cor_values,cue_e_true_cor_zvalues,cue_e_true_scr_values,cue_e_true_scr_zvalues,cue_e_false_zyg_values,cue_e_false_zyg_zvalues,cue_e_false_cor_values,cue_e_false_cor_zvalues,cue_e_false_scr_values,cue_e_false_scr_zvalues,OfflineRating_z,cue_i_off_zyg_values,cue_i_off_zyg_zvalues,cue_i_off_cor_values,cue_i_off_cor_zvalues,cue_i_off_scr_values,cue_i_off_scr_zvalues,DemandRating_z
0,240725_142623,PRACTICE,0.0,1,3.0,2583.0,,,,,,,,,,36.0,1.0,1.0,cue2.png,Hard,A,,,,,,,,,,,,,,,,,,,,,,,,,,,51,28,Female,0.7142857142857143,0.5,0.4,1.0,2.111111111111111,3.375,1.8888888888888888,2.6666666666666665,3.25,3.5555555555555554,1.5,1.75,2.5,0.0,,,,,,,,,,,,,,,,,,,,,,,,,,,,,,,,,,,,
0,240725_143007,LEARNING,1.0,1,1.0,2583.0,,,,,,,,,,1.0,1.0,1.0,cue1.png,Easy,A,,,,,,,,,,,,,,,,,,,,,,,,,,,51,28,Female,0.7142857142857143,0.5,0.4,1.0,2.111111111111111,3.375,1.8888888888888888,2.6666666666666665,3.25,3.5555555555555554,1.5,1.75,2.5,0.0,0.6875,0.75,0.4464364666667582,-0.23037025346545945,0.007695477346486991,-0.24160156955692427,0.0054605951866825405,-0.45980759751570305,0.009815926825101325,-0.6754987993820812,0.01093715619006829,-0.5890557777396576,,,,,,,,,,,,,,,,,,,,,,,,
1,240725_143025,LEARNING,1.0,2,3.0,2583.0,,,,,,,,,,2.0,2.0,2.0,cue2.png,Hard,A,,,,,,,,,,,,,,,,,,,,,,,,,,,51,28,Female,0.7142857142857143,0.5,0.4,1.0,2.111111111111111,3.375,1.8888888888888888,2.6666666666666665,3.25,3.5555555555555554,1.5,1.75,2.5,0.0,1.0,1.0,0.5025705333324973,0.42475146553435694,0.006319276082162258,-0.472541530931317,0.005796552710148175,-0.4335377014521107,0.009583215727118607,-0.6957331176110125,0.014526586333312209,-0.19493498762124817,1.1304489605269277e+44,-0.185577453047096,5.196723819849494e+44,-0.199074347488316,,,,,,,,,,,,,,,,,,,,
2,240725_143042,LEARNING,1.0,3,1.0,2583.0,,,,,,,,,,3.0,3.0,3.0,cue1.png,Easy,A,,,,,,,,,,,,,,,,,,,,,,,,,,,51,28,Female,0.7142857142857143,0.5,0.4,1.0,2.111111111111111,3.375,1.8888888888888888,2.6666666666666665,3.25,3.5555555555555554,1.5,1.75,2.5,0.0,1.0,1.0,0.4066889833338791,-0.6942496969771691,,,,,0.009643672682910902,-0.6904763623756237,0.01024627157012367,-0.6649151708541168,-1.1011208386567945e+45,-0.1864838939604905,-7.496077642292494e+44,-0.2011115483133227,,,,,,,,,,,,,,,,,,,,
3,240725_143100,LEARNING,1.0,4,3.0,2583.0,,,,,,,,,,4.0,4.0,4.0,cue2.png,Hard,A,,,,,,,,,,,,,,,,,,,,,,,,,,,51,28,Female,0.7142857142857143,0.5,0.4,1.0,2.111111111111111,3.375,1.8888888888888888,2.6666666666666665,3.25,3.5555555555555554,1.5,1.75,2.5,0.0,1.0,1.0,0.5376870166661926,0.8345840733122648,0.0052162579707590445,-0.6576387014151007,0.0055242856365261064,-0.4548273801347249,0.00980987672700546,-0.6760248577061113,0.011031818801740784,-0.5786617871009879,-1.2760647493379452e+45,-0.18661449912719666,-7.606331330729192e+44,-0.20112924408408794,,,,,,,,,,,,,,,,,,,,
4,240725_143117,LEARNING,1.0,5,3.0,2583.0,,,,,,,,,,5.0,5.0,5.0,cue2.png,Hard,A,,,,,,,,,,,,,,,,,,,,,,,,,,,51,28,Female,0.7142857142857143,0.5,0.4,1.0,2.111111111111111,3.375,1.8888888888888888,2.6666666666666665,3.25,3.5555555555555554,1.5,1.75,2.5,0.0,1.0,1.0,0.4097436166666739,-0.6586001038021201,0.00605421273785107,-0.5170217389385587,,,0.008163849929602349,-0.8191475120217929,0.021007695795886235,0.5166932877030097,7.462049119508191e+48,5.3851646275480745,3.616289764910751e+48,5.604254285283788,,,,,,,,,,,,,,,,,,,,
5,240725_143134,LEARNING,1.0,6,1.0,2583.0,,,,,,,,,,6.0,6.0,6.0,cue1.png,Easy,A,,,,,,,,,,,,,,,,,,,,,,,,,,,51,28,Female,0.7142857142857143,0.5,0.4,1.0,2.111111111111111,3.375,1.8888888888888888,2.6666666666666665,3.25,3.5555555555555554,1.5,1.75,2.5,0.0,1.0,1.0,0.4383648666662338,-0.3245711689079504,0.005871707969672787,-0.5476478146487972,0.016201560657460902,0.3800725267013838,0.01161805701894325,-0.5188028955413829,,,,,,,,,,,,,,,,,,,,,,,,,,
6,240725_143153,LEARNING,1.0,7,3.0,2583.0,,,,,,,,,,7.0,7.0,7.0,cue2.png,Hard,A,,,,,,,,,,,,,,,,,,,,,,,,,,,51,28,Female,0.7142857142857143,0.5,0.4,1.0,2.111111111111111,3.375,1.8888888888888888,2.6666666666666665,3.25,3.5555555555555554,1.5,1.75,2.5,0.0,1.0,1.0,0.5676867499999693,1.18470082127906,0.005075121031998444,-0.6813228528766722,,,0.010819363526039742,-0.588249597666378,0.012240070737090254,-0.44599526667341083,,,3.3241237975604136e+43,-0.19985507184679627,,,,,,,,,,,,,,,,,,,,
7,240725_143212,LEARNING,1.0,8,3.0,2583.0,,,,,,,,,,8.0,8.0,8.0,cue2.png,Hard,A,,,,,,,,,,,,,,,,,,,,,,,,,,,51,28,Female,0.7142857142857143,0.5,0.4,1.0,2.111111111111111,3.375,1.8888888888888888,2.6666666666666665,3.25,3.5555555555555554,1.5,1.75,2.5,0.0,0.1875,0.5833333333333334,0.371242180000263,-1.107937357827515,0.016478831037596085,1.2323306340714906,0.00615201137115233,-0.405742931496801,0.01063112638931407,-0.6046168880965617,0.011199793508147041,-0.5602181006753448,,,,,,,,,,,,,,,,,,,,,,,,
8,240725_143229,LEARNING,1.0,9,1.0,2583.0,,,,,,,,,,9.0,9.0,9.0,cue1.png,Easy,A,,,,,,,,,,,,,,,,,,,,,,,,,,,51,28,Female,0.7142857142857143,0.5,0.4,1.0,2.111111111111111,3.375,1.8888888888888888,2.6666666666666665,3.25,3.5555555555555554,1.5,1.75,2.5,0.0,1.0,1.0,0.4335557833328494,-0.38069635504386,0.013881669924961046,0.7965017312915532,0.0057784170245909795,-0.43495580505555104,,,0.01079727459275568,-0.6044148301395593,,,4.9472075583332e+47,0.5941208016906308,,,,,,,,,,,,,,,,,,,,
9,240725_143246,LEARNING,1.0,10,1.0,2583.0,,,,,,,,,,10.0,10.0,10.0,cue1.png,Easy,A,,,,,,,,,,,,,,,,,,,,,,,,,,,51,28,Female,0.7142857142857143,0.5,0.4,1.0,2.111111111111111,3.375,1.8888888888888888,2.6666666666666665,3.25,3.5555555555555554,1.5,1.75,2.5,0.0,1.0,1.0,0.3987710166657052,-0.7866576097251565,0.009371762115458194,0.03969532344414629,0.07510770144521076,4.986185168675954,0.005699185806116104,-1.0334509923214497,0.01418023502318721,-0.23296449273975314,5.691477049793177e+44,-0.1852369474349654,3.477795359667724e+44,-0.19935023634450386,,,,,,,,,,,,,,,,,,,,
10,240725_143304,LEARNING,1.0,11,3.0,2583.0,,,,,,,,,,11.0,11.0,11.0,cue2.png,Hard,A,,,,,,,,,,,,,,,,,,,,,,,,,,,51,28,Female,0.7142857142857143,0.5,0.4,1.0,2.111111111111111,3.375,1.8888888888888888,2.6666666666666665,3.25,3.5555555555555554,1.5,1.75,2.5,0.0,0.6875,0.75,0.4827964666656044,0.19397501700851938,0.034105707050814886,4.190291922997768,,,0.010888329611607163,-0.5822529703698209,0.01111276715237092,-0.5697736275224596,4.9689398248457265e+44,-0.18529088877784966,,,,,,,,,,,,,,,,,,,,,,
11,240725_143322,LEARNING,1.0,12,1.0,2583.0,,,,,,,,,,12.0,12.0,12.0,cue1.png,Easy,A,,,,,,,,,,,,,,,,,,,,,,,,,,,51,28,Female,0.7142857142857143,0.5,0.4,1.0,2.111111111111111,3.375,1.8888888888888888,2.6666666666666665,3.25,3.5555555555555554,1.5,1.75,2.5,0.0,1.0,1.0,0.5738527333336,1.256661928691893,0.0062321451242403555,-0.4871629533777434,0.00512698545379864,-0.48589391020862105,0.008179076561215422,-0.8178235506280974,0.016142774509596752,-0.017476913331596285,,,1.733100125511469e+44,-0.19963026078048118,,,,,,,,,,,,,,,,,,,,
12,240725_143339,LEARNING,1.0,13,1.0,2583.0,,,,,,,,,,13.0,13.0,13.0,cue1.png,Easy,A,,,,,,,,,,,,,,,,,,,,,,,,,,,51,28,Female,0.7142857142857143,0.5,0.4,1.0,2.111111111111111,3.375,1.8888888888888888,2.6666666666666665,3.25,3.5555555555555554,1.5,1.75,2.5,0.0,1.0,1.0,0.3618217166658724,-1.2178804013299638,0.005609891773397052,-0.5915831196238125,,,0.014798689072969651,-0.24224573213919207,0.011984481917162278,-0.4740590159693949,,,-4.110826988168686e+43,-0.1999744031695129,,,,,,,,,,,,,,,,,,,,
13,240725_143356,LEARNING,1.0,14,1.0,2583.0,,,,,,,,,,14.0,14.0,14.0,cue1.png,Easy,A,,,,,,,,,,,,,,,,,,,,,,,,,,,51,28,Female,0.7142857142857143,0.5,0.4,1.0,2.111111111111111,3.375,1.8888888888888888,2.6666666666666665,3.25,3.5555555555555554,1.5,1.75,2.5,0.0,1.0,1.0,0.4421989833335829,-0.27982448919709624,0.006735448320983883,-0.40270378026937453,0.010330017317666565,-0.07904751823207366,0.04697772892295615,2.555733987222732,0.008041403411083281,-0.9070105303594511,,,-1.6837697787418128e+44,-0.2001786700665357,,,,,,,,,,,,,,,,,,,,
14,240725_143414,LEARNING,1.0,15,3.0,2583.0,,,,,,,,,,15.0,15.0,15.0,cue2.png,Hard,A,,,,,,,,,,,,,,,,,,,,,,,,,,,51,28,Female,0.7142857142857143,0.5,0.4,1.0,2.111111111111111,3.375,1.8888888888888888,2.6666666666666665,3.25,3.5555555555555554,1.5,1.75,2.5,0.0,1.0,1.0,0.4935428666673639,0.31939261919534334,0.026139161393148383,2.8534280542005117,0.004829522740770445,-0.5091537392293699,0.016207361693258072,-0.1197611135439273,0.010123262871973559,-0.6784215725311654,,,,,,,,,,,,,,,,,,,,,,,,
15,240725_143431,LEARNING,1.0,16,1.0,2583.0,,,,,,,,,,16.0,16.0,16.0,cue1.png,Easy,A,,,,,,,,,,,,,,,,,,,,,,,,,,,51,28,Female,0.7142857142857143,0.5,0.4,1.0,2.111111111111111,3.375,1.8888888888888888,2.6666666666666665,3.25,3.5555555555555554,1.5,1.75,2.5,0.0,1.0,1.0,0.4142515166665059,-0.6059899265535214,0.005788375259034866,-0.5616318542473859,0.006272266892892059,-0.39633965924801356,0.013168604739939655,-0.38398218313120175,0.01415298357116159,-0.2359567125004378,,,,,,,,,,,,,,,,,,,,,,,,
16,240725_143449,LEARNING,1.0,17,1.0,2583.0,,,,,,,,,,17.0,17.0,17.0,cue1.png,Easy,A,,,,,,,,,,,,,,,,,,,,,,,,,,,51,28,Female,0.7142857142857143,0.5,0.4,1.0,2.111111111111111,3.375,1.8888888888888888,2.6666666666666665,3.25,3.5555555555555554,1.5,1.75,2.5,0.0,1.0,1.0,0.5530375333340393,1.0137347649387618,0.005125415213477622,-0.6728829999065783,0.0060243801684489034,-0.41572293847775277,0.014319539126161863,-0.2839080017392622,,,,,,,,,,,,,,,,,,,,,,,,,,
17,240725_143506,LEARNING,1.0,18,3.0,2583.0,,,,,,,,,,18.0,18.0,18.0,cue2.png,Hard,A,,,,,,,,,,,,,,,,,,,,,,,,,,,51,28,Female,0.7142857142857143,0.5,0.4,1.0,2.111111111111111,3.375,1.8888888888888888,2.6666666666666665,3.25,3.5555555555555554,1.5,1.75,2.5,0.0,0.6875,0.75,0.4241502166672338,-0.490465544560041,,,,,0.049980701126255654,2.816843559223934,0.01944964156505993,0.3456183426573762,,,,,,,,,,,,,,,,,,,,,,,,
18,240725_143524,LEARNING,1.0,19,3.0,2583.0,,,,,,,,,,19.0,19.0,19.0,cue2.png,Hard,A,,,,,,,,,,,,,,,,,,,,,,,,,,,51,28,Female,0.7142857142857143,0.5,0.4,1.0,2.111111111111111,3.375,1.8888888888888888,2.6666666666666665,3.25,3.5555555555555554,1.5,1.75,2.5,0.0,0.6875,0.75,0.4224415666667482,-0.5104066211998768,,,0.007205427732441542,-0.3233719875831548,0.04935129509561804,2.7621164661478836,,,,,,,,,,,,,,,,,,,,,,,,,,
19,240725_143540,LEARNING,1.0,20,3.0,2583.0,,,,,,,,,,20.0,20.0,20.0,cue2.png,Hard,A,,,,,,,,,,,,,,,,,,,,,,,,,,,51,28,Female,0.7142857142857143,0.5,0.4,1.0,2.111111111111111,3.375,1.8888888888888888,2.6666666666666665,3.25,3.5555555555555554,1.5,1.75,2.5,0.0,1.0,1.0,0.3401318500006406,-1.4710155041048365,0.005592718342918071,-0.5944649883404698,0.0053855887603918694,-0.46567265748647335,,,0.014406718995576669,-0.20809646673420468,1.7631999290366508e+44,-0.18553021473774076,1.100690065031789e+44,-0.19973176290361722,,,,,,,,,,,,,,,,,,,,
20,240725_143557,LEARNING,1.0,21,1.0,2583.0,,,,,,,,,,21.0,21.0,21.0,cue1.png,Easy,A,,,,,,,,,,,,,,,,,,,,,,,,,,,51,28,Female,0.7142857142857143,0.5,0.4,1.0,2.111111111111111,3.375,1.8888888888888888,2.6666666666666665,3.25,3.5555555555555554,1.5,1.75,2.5,0.0,1.0,1.0,0.3978886833331974,-0.7969550238242522,0.00649508117293978,-0.44303972627085975,0.004714574535052271,-0.5181420106803641,0.017039531436629916,-0.04740363874431755,0.01807151210431012,0.19429920555743954,9.463207442692437e+43,-0.18559119922224782,6.490212817623856e+43,-0.19980425596361273,,,,,,,,,,,,,,,,,,,,
21,240725_143616,LEARNING,1.0,22,3.0,2583.0,,,,,,,,,,22.0,22.0,22.0,cue2.png,Hard,A,,,,,,,,,,,,,,,,,,,,,,,,,,,51,28,Female,0.7142857142857143,0.5,0.4,1.0,2.111111111111111,3.375,1.8888888888888888,2.6666666666666665,3.25,3.5555555555555554,1.5,1.75,2.5,0.0,1.0,1.0,0.6676200499999444,2.3509885885835806,,,0.007353831164191543,-0.3117677148544575,,,0.018901178804622814,0.2853969236945749,4.3827033831501665e+42,-0.18565857529783913,,,,,,,,,,,,,,,,,,,,,,
22,240725_143633,LEARNING,1.0,23,3.0,2583.0,,,,,,,,,,23.0,23.0,23.0,cue2.png,Hard,A,,,,,,,,,,,,,,,,,,,,,,,,,,,51,28,Female,0.7142857142857143,0.5,0.4,1.0,2.111111111111111,3.375,1.8888888888888888,2.6666666666666665,3.25,3.5555555555555554,1.5,1.75,2.5,0.0,1.0,1.0,0.4485788333337647,-0.2053674162048939,0.005074668266437158,-0.6813988313428643,0.005803749560370158,-0.4329749502287821,0.017640270419953114,0.004830843695316582,0.03125464125349027,1.6418117825294207,-7.702142414742632e+43,-0.18571934791693345,-4.707141768424501e+43,-0.19998397405081852,,,,,,,,,,,,,,,,,,,,
23,240725_143651,LEARNING,1.0,24,3.0,2583.0,,,,,,,,,,24.0,24.0,24.0,cue2.png,Hard,A,,,,,,,,,,,,,,,,,,,,,,,,,,,51,28,Female,0.7142857142857143,0.5,0.4,1.0,2.111111111111111,3.375,1.8888888888888888,2.6666666666666665,3.25,3.5555555555555554,1.5,1.75,2.5,0.0,1.0,1.0,0.5176600166657105,0.6008557253404107,,,0.005331267502160133,-0.46992025936504017,0.016543769714422056,-0.09051030851570027,0.015012345212038702,-0.14159847863497804,-1.3984584569629432e+44,-0.18576624977260633,-8.098607218998355e+43,-0.2000384072367034,,,,,,,,,,,,,,,,,,,,
24,240725_143709,LEARNING,1.0,25,1.0,2583.0,,,,,,,,,,25.0,25.0,25.0,cue1.png,Easy,A,,,,,,,,,,,,,,,,,,,,,,,,,,,51,28,Female,0.7142857142857143,0.5,0.4,1.0,2.111111111111111,3.375,1.8888888888888888,2.6666666666666665,3.25,3.5555555555555554,1.5,1.75,2.5,0.0,1.0,1.0,0.4415548666662895,-0.28734175711260973,0.0055788750454262605,-0.5967880283426322,0.027971607882063,1.30042077211134,0.015349370288068188,-0.1943637916318859,0.048938424107562155,3.5834978420415076,-1.5251589591876633e+44,-0.18577570865582801,-9.29180683190484e+43,-0.20005755814868342,,,,,,,,,,,,,,,,,,,,
25,240725_143727,LEARNING,1.0,26,1.0,2583.0,,,,,,,,,,26.0,26.0,26.0,cue1.png,Easy,A,,,,,,,,,,,,,,,,,,,,,,,,,,,51,28,Female,0.7142857142857143,0.5,0.4,1.0,2.111111111111111,3.375,1.8888888888888888,2.6666666666666665,3.25,3.5555555555555554,1.5,1.75,2.5,0.0,1.0,1.0,0.5771850166674994,1.2955518811854123,0.007221227161507577,-0.3211853646311752,0.006320459716191029,-0.392571264821197,,,,,-1.1795517096286884e+44,-0.1857499071905082,-7.862640976782116e+43,-0.2000346199670077,,,,,,,,,,,,,,,,,,,,
26,240725_143744,LEARNING,1.0,27,3.0,2583.0,,,,,,,,,,27.0,27.0,27.0,cue2.png,Hard,A,,,,,,,,,,,,,,,,,,,,,,,,,,,51,28,Female,0.7142857142857143,0.5,0.4,1.0,2.111111111111111,3.375,1.8888888888888888,2.6666666666666665,3.25,3.5555555555555554,1.5,1.75,2.5,0.0,1.0,1.0,0.4851265833331126,0.22116902106630468,,,,,,,0.017800888501255708,0.16458463137600574,,,1.208956534444305e+43,-0.19988902038452686,,,,,,,,,,,,,,,,,,,,
27,240725_143802,LEARNING,1.0,28,1.0,2583.0,,,,,,,,,,28.0,28.0,28.0,cue1.png,Easy,A,,,,,,,,,,,,,,,,,,,,,,,,,,,51,28,Female,0.7142857142857143,0.5,0.4,1.0,2.111111111111111,3.375,1.8888888888888888,2.6666666666666665,3.25,3.5555555555555554,1.5,1.75,2.5,0.0,1.0,1.0,0.5352439333334283,0.8060716734864892,,,0.007087718876844515,-0.3325761255658382,0.01761731017101879,0.0028344413424426095,0.019253123443855935,0.32404057846901757,1.6284321965536225e+43,-0.18564969009072918,6.513050864805304e+42,-0.19989797071746357,,,,,,,,,,,,,,,,,,,,
28,240725_143819,LEARNING,1.0,29,1.0,2583.0,,,,,,,,,,29.0,29.0,29.0,cue1.png,Easy,A,,,,,,,,,,,,,,,,,,,,,,,,,,,51,28,Female,0.7142857142857143,0.5,0.4,1.0,2.111111111111111,3.375,1.8888888888888888,2.6666666666666665,3.25,3.5555555555555554,1.5,1.75,2.5,0.0,1.0,1.0,0.375548183332891,-1.0576834483417101,0.008226229362505378,-0.15253621752150798,0.004725096329963887,-0.5173192684006875,0.019647874086983902,0.179392743958824,0.009591656619155384,-0.7367921405688085,7.643075978115208e+43,-0.18560478749590836,4.525758284383018e+43,-0.1998357855546785,,,,,,,,,,,,,,,,,,,,
29,240725_143837,LEARNING,1.0,30,3.0,2583.0,,,,,,,,,,30.0,30.0,30.0,cue2.png,Hard,A,,,,,,,,,,,,,,,,,,,,,,,,,,,51,28,Female,0.7142857142857143,0.5,0.4,1.0,2.111111111111111,3.375,1.8888888888888888,2.6666666666666665,3.25,3.5555555555555554,1.5,1.75,2.5,0.0,1.0,1.0,0.5025549166675773,0.4245692087164364,0.006275877584059253,-0.4798242211419908,0.005195079855058644,-0.4805693298117905,0.013347205705652985,-0.3684527614252101,0.012840036034872486,-0.38011884959070863,1.2081566565172386e+44,-0.1855716517439528,7.097384917991782e+43,-0.19979451082178978,,,,,,,,,,,,,,,,,,,,
30,240725_143855,LEARNING,1.0,31,3.0,2583.0,,,,,,,,,,31.0,31.0,31.0,cue2.png,Hard,A,,,,,,,,,,,,,,,,,,,,,,,,,,,51,28,Female,0.7142857142857143,0.5,0.4,1.0,2.111111111111111,3.375,1.8888888888888888,2.6666666666666665,3.25,3.5555555555555554,1.5,1.75,2.5,0.0,1.0,1.0,0.5723704833326337,1.2393630899242902,0.008329047259491573,-0.13528237408005525,0.005999578653532211,-0.4176622706062913,0.013603077649934493,-0.34620459882648463,0.012017055218218855,-0.4704824551681362,1.297436667525812e+44,-0.18556498650440495,,,,,,,,,,,,,,,,,,,,,,
31,240725_143912,LEARNING,1.0,32,1.0,2583.0,,,,,,,,,,32.0,32.0,32.0,cue1.png,Easy,A,,,,,,,,,,,,,,,,,,,,,,,,,,,51,28,Female,0.7142857142857143,0.5,0.4,1.0,2.111111111111111,3.375,1.8888888888888888,2.6666666666666665,3.25,3.5555555555555554,1.5,1.75,2.5,0.0,1.0,1.0,0.4721557166661417,0.06979042028928764,0.0065598052104815065,-0.43217840306373767,0.006969261021157931,-0.34183883093615236,0.0125837309952016,-0.4348371770587172,0.01813114643056593,0.20084707718167402,1.0671456715004356e+44,-0.18558217898273113,,,,,,,,,,,,,,,,,,,,,,
32,240725_143929,LEARNING,1.0,33,1.0,2583.0,,,,,,,,,,33.0,33.0,33.0,cue1.png,Easy,A,,,,,,,,,,,,,,,,,,,,,,,,,,,51,28,Female,0.7142857142857143,0.5,0.4,1.0,2.111111111111111,3.375,1.8888888888888888,2.6666666666666665,3.25,3.5555555555555554,1.5,1.75,2.5,0.0,1.0,1.0,0.3046427500000088,-1.885196795059844,0.006357508686055522,-0.46612572802861796,,,0.01187840565355749,-0.4961654830203716,0.010504385865009576,-0.6365741234505996,5.303666450827127e+43,-0.18562225246340083,3.5397591761820813e+43,-0.19985161088845274,,,,,,,,,,,,,,,,,,,,
33,240725_143946,LEARNING,1.0,34,1.0,2583.0,,,,,,,,,,34.0,34.0,34.0,cue1.png,Easy,A,,,,,,,,,,,,,,,,,,,,,,,,,,,51,28,Female,0.7142857142857143,0.5,0.4,1.0,2.111111111111111,3.375,1.8888888888888888,2.6666666666666665,3.25,3.5555555555555554,1.5,1.75,2.5,0.0,1.0,1.0,0.4427019166663133,-0.27395492425994966,0.005721946623561987,-0.5727792255715851,0.008892371285354856,-0.19146295532505417,0.011638650551655812,-0.5170122800616055,0.015982294287931232,-0.03509770249230465,-8.045933870282407e+42,-0.18566785395311838,-7.232128546923453e+42,-0.19992003179745524,,,,,,,,,,,,,,,,,,,,
34,240725_144003,LEARNING,1.0,35,3.0,2583.0,,,,,,,,,,35.0,35.0,35.0,cue2.png,Hard,A,,,,,,,,,,,,,,,,,,,,,,,,,,,51,28,Female,0.7142857142857143,0.5,0.4,1.0,2.111111111111111,3.375,1.8888888888888888,2.6666666666666665,3.25,3.5555555555555554,1.5,1.75,2.5,0.0,1.0,1.0,0.3843487833346444,-0.9549746202835182,,,0.0063392284705065015,-0.3911036589761949,0.018764589151289545,0.10259078380053333,,,-7.081631853950643e+43,-0.18571471546731463,,,,,,,,,,,,,,,,,,,,,,
35,240725_144021,LEARNING,1.0,36,3.0,2583.0,,,,,,,,,,36.0,36.0,36.0,cue2.png,Hard,A,,,,,,,,,,,,,,,,,,,,,,,,,,,51,28,Female,0.7142857142857143,0.5,0.4,1.0,2.111111111111111,3.375,1.8888888888888888,2.6666666666666665,3.25,3.5555555555555554,1.5,1.75,2.5,0.0,1.0,1.0,0.4815721999996943,0.17968701454717798,0.008741896550337816,-0.06600224641772577,0.006834337533055748,-0.35238905160815426,0.012065767835114202,-0.4798742702739693,0.018336003678368365,0.2233404806310615,-1.0811915151425786e+44,-0.18574256406576148,-6.498943765548525e+43,-0.20001273256025928,,,,,,,,,,,,,,,,,,,,
36,240725_144038,LEARNING,1.0,37,1.0,2583.0,,,,,,,,,,37.0,37.0,37.0,cue1.png,Easy,A,,,,,,,,,,,,,,,,,,,,,,,,,,,51,28,Female,0.7142857142857143,0.5,0.4,1.0,2.111111111111111,3.375,1.8888888888888888,2.6666666666666665,3.25,3.5555555555555554,1.5,1.75,2.5,0.0,1.0,1.0,0.4436001999996127,-0.2634713630926424,,,0.03831416997152033,2.1091481026337866,0.039938111960061674,1.9436366224139061,0.0519772084525339,3.9171575148154574,-1.1543741224325244e+44,-0.18574802754636388,-7.211448800087154e+43,-0.20002416830081282,,,,,,,,,,,,,,,,,,,,
37,240725_144056,LEARNING,1.0,38,3.0,2583.0,,,,,,,,,,38.0,38.0,38.0,cue2.png,Hard,A,,,,,,,,,,,,,,,,,,,,,,,,,,,51,28,Female,0.7142857142857143,0.5,0.4,1.0,2.111111111111111,3.375,1.8888888888888888,2.6666666666666665,3.25,3.5555555555555554,1.5,1.75,2.5,0.0,1.0,1.0,0.5504327166666675,0.9833348300299037,0.00721915300722571,-0.3215334278993584,0.017886964251717465,0.5118611432788419,0.01584687773319003,-0.15110533059103987,0.013730807489793677,-0.28231180623892277,-8.220123906181616e+43,-0.18572321493115404,-5.050733516663397e+43,-0.19998948871513486,,,,,,,,,,,,,,,,,,,,
38,240725_144114,LEARNING,1.0,39,3.0,2583.0,,,,,,,,,,39.0,39.0,39.0,cue2.png,Hard,A,,,,,,,,,,,,,,,,,,,,,,,,,,,51,28,Female,0.7142857142857143,0.5,0.4,1.0,2.111111111111111,3.375,1.8888888888888888,2.6666666666666665,3.25,3.5555555555555554,1.5,1.75,2.5,0.0,1.0,1.0,0.5182876333340877,0.6081804273454972,,,0.016190974786454728,0.3792447740491851,0.008909485298836627,-0.7543142338729631,0.009868295043285857,-0.7064171367536125,,,-1.80862228771232e+43,-0.19993745267179108,,,,,,,,,,,,,,,,,,,,
39,240725_144131,LEARNING,1.0,40,3.0,2583.0,,,,,,,,,,40.0,40.0,40.0,cue2.png,Hard,A,,,,,,,,,,,,,,,,,,,,,,,,,,,51,28,Female,0.7142857142857143,0.5,0.4,1.0,2.111111111111111,3.375,1.8888888888888888,2.6666666666666665,3.25,3.5555555555555554,1.5,1.75,2.5,0.0,1.0,1.0,0.4880050833332158,0.2547630216477651,0.019095976211697226,1.6715130567926768,0.010233641793850484,-0.08658351554389371,0.04210375970708398,2.131940515373372,0.011095585144530731,-0.5716602184952753,4.79565117890686e+43,-0.18562604507435942,3.003356576004556e+43,-0.19986022017634616,,,,,,,,,,,,,,,,,,,,
40,240725_144149,LEARNING,1.0,41,1.0,2583.0,,,,,,,,,,41.0,41.0,41.0,cue1.png,Easy,A,,,,,,,,,,,,,,,,,,,,,,,,,,,51,28,Female,0.7142857142857143,0.5,0.4,1.0,2.111111111111111,3.375,1.8888888888888888,2.6666666666666665,3.25,3.5555555555555554,1.5,1.75,2.5,0.0,1.0,1.0,0.5188201000012972,0.614394665847218,0.010185614317950006,0.17626764108414372,0.019780396753446748,0.6599163929745492,0.025876376624021546,0.7209634018115296,0.00784832257868375,-0.928210878934351,,,5.94327092426806e+43,-0.1998130344076757,,,,,,,,,,,,,,,,,,,,
41,240725_144206,LEARNING,1.0,42,3.0,2583.0,,,,,,,,,,42.0,42.0,42.0,cue2.png,Hard,A,,,,,,,,,,,,,,,,,,,,,,,,,,,51,28,Female,0.7142857142857143,0.5,0.4,1.0,2.111111111111111,3.375,1.8888888888888888,2.6666666666666665,3.25,3.5555555555555554,1.5,1.75,2.5,0.0,1.0,1.0,0.4256307666667756,-0.4731865459344705,0.010238184595360994,0.185089445095995,0.011076047491721221,-0.02071236047001137,0.018035385168975803,0.03918622097630546,0.018923268790220903,0.28782241248532625,,,,,,,,,,,,,,,,,,,,,,,,
42,240725_144223,LEARNING,1.0,43,3.0,2583.0,,,,,,,,,,43.0,43.0,43.0,cue2.png,Hard,A,,,,,,,,,,,,,,,,,,,,,,,,,,,51,28,Female,0.7142857142857143,0.5,0.4,1.0,2.111111111111111,3.375,1.8888888888888888,2.6666666666666665,3.25,3.5555555555555554,1.5,1.75,2.5,0.0,1.0,1.0,0.3903542500011099,-0.8848868486392762,0.010343084943638711,0.20269274412457372,0.006181125645858877,-0.40346636699954513,,,,,8.988382659298452e+43,-0.18559474404811513,5.85028345434966e+43,-0.1998145268611029,,,,,,,,,,,,,,,,,,,,
43,240725_144242,LEARNING,1.0,44,1.0,2583.0,,,,,,,,,,44.0,44.0,44.0,cue1.png,Easy,A,,,,,,,,,,,,,,,,,,,,,,,,,,,51,28,Female,0.7142857142857143,0.5,0.4,1.0,2.111111111111111,3.375,1.8888888888888888,2.6666666666666665,3.25,3.5555555555555554,1.5,1.75,2.5,0.0,0.6875,0.75,0.704815916666727,2.7850889764199613,0.0063391948850111905,-0.4691989620209377,0.005484039290036239,-0.4579744069621693,0.011614383373162014,-0.5191223204353492,,,1.4039390320851383e+43,-0.18565136605458846,1.5043860471049056e+43,-0.19988427872644043,,,,,,,,,,,,,,,,,,,,
44,240725_144259,LEARNING,1.0,45,1.0,2583.0,,,,,,,,,,45.0,45.0,45.0,cue1.png,Easy,A,,,,,,,,,,,,,,,,,,,,,,,,,,,51,28,Female,0.7142857142857143,0.5,0.4,1.0,2.111111111111111,3.375,1.8888888888888888,2.6666666666666665,3.25,3.5555555555555554,1.5,1.75,2.5,0.0,1.0,1.0,0.4170080166671444,-0.5738197467303756,0.009524039368019134,0.06524892794681159,,,0.016104225815449482,-0.1287288172352836,,,,,,,,,,,,,,,,,,,,,,,,,,
45,240725_144319,LEARNING,1.0,46,1.0,2583.0,,,,,,,,,,46.0,46.0,46.0,cue1.png,Easy,A,,,,,,,,,,,,,,,,,,,,,,,,,,,51,28,Female,0.7142857142857143,0.5,0.4,1.0,2.111111111111111,3.375,1.8888888888888888,2.6666666666666665,3.25,3.5555555555555554,1.5,1.75,2.5,0.0,0.6875,0.5833333333333334,0.4128471800002444,-0.6223794651261333,0.005183249832788393,-0.6631777881065545,,,,,,,-1.2578398629256532e+44,-0.1857557518279538,-7.535230498804113e+43,-0.2000293650128682,,,,,,,,,,,,,,,,,,,,
46,240725_144336,LEARNING,1.0,47,3.0,2583.0,,,,,,,,,,47.0,47.0,47.0,cue2.png,Hard,A,,,,,,,,,,,,,,,,,,,,,,,,,,,51,28,Female,0.7142857142857143,0.5,0.4,1.0,2.111111111111111,3.375,1.8888888888888888,2.6666666666666665,3.25,3.5555555555555554,1.5,1.75,2.5,0.0,0.6875,0.75,0.3948945499996625,-0.8318985419566595,0.014228421644755903,0.8546900434605739,,,,,0.019683052456761954,0.3712469470287395,,,-6.034619614616779e+43,-0.20000528013499155,,,,,,,,,,,,,,,,,,,,
47,240725_144353,LEARNING,1.0,48,3.0,2583.0,,,,,,,,,,48.0,48.0,48.0,cue2.png,Hard,A,,,,,,,,,,,,,,,,,,,,,,,,,,,51,28,Female,0.7142857142857143,0.5,0.4,1.0,2.111111111111111,3.375,1.8888888888888888,2.6666666666666665,3.25,3.5555555555555554,1.5,1.75,2.5,0.0,1.0,1.0,0.3898287833326321,-0.8910193925217667,0.008905815356624231,-0.03849507593790794,0.005791478437644312,-0.4339344796218618,,,,,3.5626437902862877e+43,-0.18563525014671167,2.9392631706174703e+43,-0.1998612488786285,,,,,,,,,,,,,,,,,,,,
48,240725_144410,LEARNING,1.0,49,1.0,2583.0,,,,,,,,,,49.0,49.0,49.0,cue1.png,Easy,A,,,,,,,,,,,,,,,,,,,,,,,,,,,51,28,Female,0.7142857142857143,0.5,0.4,1.0,2.111111111111111,3.375,1.8888888888888888,2.6666666666666665,3.25,3.5555555555555554,1.5,1.75,2.5,0.0,1.0,1.0,0.3478204666668413,-1.381284257710634,,,,,,,0.014433663195688205,-0.2051379833501347,,,,,,,,,,,,,,,,,,,,,,,,
49,240725_144429,LEARNING,1.0,50,1.0,2583.0,,,,,,,,,,50.0,50.0,50.0,cue1.png,Easy,A,,,,,,,,,,,,,,,,,,,,,,,,,,,51,28,Female,0.7142857142857143,0.5,0.4,1.0,2.111111111111111,3.375,1.8888888888888888,2.6666666666666665,3.25,3.5555555555555554,1.5,1.75,2.5,0.0,1.0,1.0,0.6787151666667341,2.4804759451033456,,,0.025283080146401238,1.0901937664728,,,,,-7.074471343889334e+43,-0.18571466201020337,,,,,,,,,,,,,,,,,,,,,,
0,240725_144621,TrueCHOICE,9.0,1,1.0,2583.0,,,,,,,,,,,1.0,1.0,,,A,,,,,,True,cue1.png,Easy,cue2.png,Hard,Left,Easy,Easy,0.0161369000015838,,,,,,,,,,,,,51,28,Female,0.7142857142857143,0.5,0.4,1.0,2.111111111111111,3.375,1.8888888888888888,2.6666666666666665,3.25,3.5555555555555554,1.5,1.75,2.5,0.0,0.6875,0.75,0.5390858500001438,1.1952930285725731,,,,,,,,,,,,,,,,,78803856.96144027,-0.46922283685589933,,,,,,,,,,,,,,
1,240725_144637,TrueCHOICE,9.0,2,1.0,2583.0,,,,,,,,,,,2.0,2.0,,,A,,,,,,True,cue1.png,Easy,cue2.png,Hard,Left,Easy,Easy,0.0149787000009382,,,,,,,,,,,,,51,28,Female,0.7142857142857143,0.5,0.4,1.0,2.111111111111111,3.375,1.8888888888888888,2.6666666666666665,3.25,3.5555555555555554,1.5,1.75,2.5,0.0,1.0,1.0,0.5497417166673889,1.3325620865034231,,,,,,,,,,,,,,,0.010930367415726495,-0.8076228069783579,21612029.575291444,-0.47025991075360263,,,,,,,,,,,,,,
2,240725_144653,TrueCHOICE,9.0,3,1.0,2583.0,,,,,,,,,,,3.0,3.0,,,A,,,,,,True,cue2.png,Hard,cue1.png,Easy,Right,Easy,Easy,0.0160952000005636,,,,,,,,,,,,,51,28,Female,0.7142857142857143,0.5,0.4,1.0,2.111111111111111,3.375,1.8888888888888888,2.6666666666666665,3.25,3.5555555555555554,1.5,1.75,2.5,0.0,1.0,1.0,0.5004585666671725,0.6976956994089387,,,,,,,,,,,,,0.005006769135110396,-1.0111336640942388,0.008707358519236139,-1.1883295205382765,11413641.56134489,-0.47044484070760645,,,,,,,,,,,,,,
3,240725_144709,TrueCHOICE,9.0,4,1.0,2583.0,,,,,,,,,,,4.0,4.0,,,A,,,,,,True,cue1.png,Easy,cue2.png,Hard,Left,Easy,Easy,0.0152544000011403,,,,,,,,,,,,,51,28,Female,0.7142857142857143,0.5,0.4,1.0,2.111111111111111,3.375,1.8888888888888888,2.6666666666666665,3.25,3.5555555555555554,1.5,1.75,2.5,0.0,1.0,1.0,0.5217775000000984,0.9723265657744895,,,,,,,,,,,,,0.009696137389747346,1.394946118276464,0.009909441021159286,-0.9824640022051916,835497.5735852539,-0.4706366568729089,,,,,,,,,,,,,,
4,240725_144724,TrueCHOICE,9.0,5,1.0,2583.0,,,,,,,,,,,5.0,5.0,,,A,,,,,,True,cue2.png,Hard,cue1.png,Easy,Right,Easy,Easy,0.0164818000012019,,,,,,,,,,,,,51,28,Female,0.7142857142857143,0.5,0.4,1.0,2.111111111111111,3.375,1.8888888888888888,2.6666666666666665,3.25,3.5555555555555554,1.5,1.75,2.5,0.0,1.0,1.0,0.4877937166669047,0.5345468835818603,,,,,,,,,,,,,0.0048802509825138785,-1.076049182035139,0.014579687045942046,-0.18264983213219668,159778834610.09317,2.4266582868271014,,,,,,,,,,,,,,
5,240725_144739,TrueCHOICE,9.0,6,1.0,2583.0,,,,,,,,,,,6.0,6.0,,,A,,,,,,True,cue2.png,Hard,cue1.png,Easy,Right,Easy,Easy,0.0162584999998216,,,,,,,,,,,,,51,28,Female,0.7142857142857143,0.5,0.4,1.0,2.111111111111111,3.375,1.8888888888888888,2.6666666666666665,3.25,3.5555555555555554,1.5,1.75,2.5,0.0,1.0,1.0,0.3666726166660131,-1.0257372126688478,,,,,,,,,,,,,0.00939714931060234,1.2415375708267506,0.026663933902552645,1.8868668098795665,,,,,,,,,,,,,,,,
6,240725_144754,TrueCHOICE,9.0,7,1.0,2583.0,,,,,,,,,,,7.0,7.0,,,A,,,,,,True,cue1.png,Easy,cue2.png,Hard,Left,Easy,Easy,0.0156566000005113,,,,,,,,,,,,,51,28,Female,0.7142857142857143,0.5,0.4,1.0,2.111111111111111,3.375,1.8888888888888888,2.6666666666666665,3.25,3.5555555555555554,1.5,1.75,2.5,0.0,1.0,1.0,0.3760754166663294,-0.9046101811226377,,,,,,,,,,,,,0.005854914338703487,-0.5759567029199641,,,,,,,,,,,,,,,,,,
7,240725_144808,TrueCHOICE,9.0,8,1.0,2583.0,,,,,,,,,,,8.0,8.0,,,A,,,,,,True,cue2.png,Hard,cue1.png,Easy,Right,Easy,Easy,0.0145198999998683,,,,,,,,,,,,,51,28,Female,0.7142857142857143,0.5,0.4,1.0,2.111111111111111,3.375,1.8888888888888888,2.6666666666666665,3.25,3.5555555555555554,1.5,1.75,2.5,0.0,1.0,1.0,0.3308626333327993,-1.487042034713934,,,,,,,,,,,,,,,0.02097487963155501,0.9125741931496257,,,,,,,,,,,,,,,,
8,240725_144823,TrueCHOICE,9.0,9,1.0,2583.0,,,,,,,,,,,9.0,9.0,,,A,,,,,,True,cue1.png,Easy,cue2.png,Hard,Left,Easy,Easy,0.0160623999981908,,,,,,,,,,,,,51,28,Female,0.7142857142857143,0.5,0.4,1.0,2.111111111111111,3.375,1.8888888888888888,2.6666666666666665,3.25,3.5555555555555554,1.5,1.75,2.5,0.0,1.0,1.0,0.4151394166668372,-0.4013870603263329,,,,,,,,,,,,,0.007029385876536425,0.02665585994612661,0.019558356104552685,0.6699840633949652,21794269946.33139,-0.07545078782358218,,,,,,,,,,,,,,
9,240725_144838,TrueCHOICE,9.0,10,1.0,2583.0,,,,,,,,,,,10.0,10.0,,,A,,,,,,True,cue2.png,Hard,cue1.png,Easy,Right,Easy,Easy,0.0164755000005243,,,,,,,,,,,,,51,28,Female,0.7142857142857143,0.5,0.4,1.0,2.111111111111111,3.375,1.8888888888888888,2.6666666666666665,3.25,3.5555555555555554,1.5,1.75,2.5,0.0,1.0,1.0,0.3753738499993536,-0.9136477750095318,,,,,,,,,,,,,,,0.013845651168859703,-0.3083589045701367,471694.0987128813,-0.47064325381350214,,,,,,,,,,,,,,
0,240725_145009,FalseCHOICE,9.0,1,2.0,2583.0,,,,,,,,,,,1.0,1.0,,,A,,,,,,False,cue1.png,Easy,cue2.png,Hard,Left,Easy,Mid,0.016058699999121,,,,,,,,,,,,,51,28,Female,0.7142857142857143,0.5,0.4,1.0,2.111111111111111,3.375,1.8888888888888888,2.6666666666666665,3.25,3.5555555555555554,1.5,1.75,2.5,0.0,1.0,1.0,0.5796408166667485,1.1701118920698848,,,,,,,,,,,,,,,,,,,0.00627764095561666,-0.41836681306023066,0.022006022817184074,1.4766057874543606,6.256074384314317e+45,-0.17199047640070894,,,,,,,,
1,240725_145025,FalseCHOICE,9.0,2,2.0,2583.0,,,,,,,,,,,2.0,2.0,,,A,,,,,,False,cue2.png,Hard,cue1.png,Easy,Left,Hard,Mid,0.0165615000005345,,,,,,,,,,,,,51,28,Female,0.7142857142857143,0.5,0.4,1.0,2.111111111111111,3.375,1.8888888888888888,2.6666666666666665,3.25,3.5555555555555554,1.5,1.75,2.5,0.0,1.0,1.0,0.5293997499993566,0.5948942374696787,,,,,,,,,,,,,,,,,,,,,,,,,,,,,,,,
2,240725_145041,FalseCHOICE,9.0,3,2.0,2583.0,,,,,,,,,,,3.0,3.0,,,A,,,,,,False,cue2.png,Hard,cue1.png,Easy,Left,Hard,Mid,0.0161804999988817,,,,,,,,,,,,,51,28,Female,0.7142857142857143,0.5,0.4,1.0,2.111111111111111,3.375,1.8888888888888888,2.6666666666666665,3.25,3.5555555555555554,1.5,1.75,2.5,0.0,1.0,1.0,0.4911576666666709,0.15705477782440413,,,,,,,,,,,,,,,,,,,0.0062248021594829015,-0.4282610527462136,,,,,,,,,,,,
3,240725_145056,FalseCHOICE,9.0,4,2.0,2583.0,,,,,,,,,,,4.0,4.0,,,A,,,,,,False,cue2.png,Hard,cue1.png,Easy,Right,Easy,Mid,0.0165041000000201,,,,,,,,,,,,,51,28,Female,0.7142857142857143,0.5,0.4,1.0,2.111111111111111,3.375,1.8888888888888888,2.6666666666666665,3.25,3.5555555555555554,1.5,1.75,2.5,0.0,1.0,1.0,0.4326197166671288,-0.5131551627160301,,,,,,,,,,,,,,,,,,,,,0.010824074114296995,-0.3447642578194229,-7.199034152423685e+44,-0.1743865343469949,,,,,,,,
4,240725_145112,FalseCHOICE,9.0,5,2.0,2583.0,,,,,,,,,,,5.0,5.0,,,A,,,,,,False,cue1.png,Easy,cue2.png,Hard,Right,Hard,Mid,0.016799599998194,,,,,,,,,,,,,51,28,Female,0.7142857142857143,0.5,0.4,1.0,2.111111111111111,3.375,1.8888888888888888,2.6666666666666665,3.25,3.5555555555555554,1.5,1.75,2.5,0.0,1.0,1.0,0.528395383333797,0.5833950899387053,,,,,,,,,,,,,,,,,,,0.006821534129109284,-0.3165210138394606,0.018552668522104895,0.91410668860312,1.7231941537843912e+49,5.744562259413269,,,,,,,,
5,240725_145128,FalseCHOICE,9.0,6,2.0,2583.0,,,,,,,,,,,6.0,6.0,,,A,,,,,,False,cue2.png,Hard,cue1.png,Easy,Left,Hard,Mid,0.0153286999993724,,,,,,,,,,,,,51,28,Female,0.7142857142857143,0.5,0.4,1.0,2.111111111111111,3.375,1.8888888888888888,2.6666666666666665,3.25,3.5555555555555554,1.5,1.75,2.5,0.0,0.6875,0.75,0.4778915999995661,0.005169552048043989,,,,,,,,,,,,,,,,,,,0.00703043853558921,-0.27740297140832637,0.007817341582637803,-0.8345154374058853,-1.0456614798777452e+44,-0.1741751827929597,,,,,,,,
6,240725_145142,FalseCHOICE,9.0,7,2.0,2583.0,,,,,,,,,,,7.0,7.0,,,A,,,,,,False,cue2.png,Hard,cue1.png,Easy,Left,Hard,Mid,0.0162698000021919,,,,,,,,,,,,,51,28,Female,0.7142857142857143,0.5,0.4,1.0,2.111111111111111,3.375,1.8888888888888888,2.6666666666666665,3.25,3.5555555555555554,1.5,1.75,2.5,0.0,1.0,1.0,0.469072199999573,-0.09580510711996436,,,,,,,,,,,,,,,,,,,0.00578661608132584,-0.5103128480477518,0.007937655781921751,-0.8149180770155353,,,,,,,,,,
7,240725_145200,FalseCHOICE,9.0,8,2.0,2583.0,,,,,,,,,,,8.0,8.0,,,A,,,,,,False,cue1.png,Easy,cue2.png,Hard,Left,Easy,Mid,0.0152113000003737,,,,,,,,,,,,,51,28,Female,0.7142857142857143,0.5,0.4,1.0,2.111111111111111,3.375,1.8888888888888888,2.6666666666666665,3.25,3.5555555555555554,1.5,1.75,2.5,0.0,1.0,1.0,0.7003985833337841,2.552686027623704,,,,,,,,,,,,,,,,,,,0.005031860922366482,-0.6516432528524327,0.020792444157972788,1.2789322087068333,,,,,,,,,,
8,240725_145218,FalseCHOICE,9.0,9,2.0,2583.0,,,,,,,,,,,9.0,9.0,,,A,,,,,,False,cue1.png,Easy,cue2.png,Hard,Right,Hard,Mid,0.0165745000012975,,,,,,,,,,,,,51,28,Female,0.7142857142857143,0.5,0.4,1.0,2.111111111111111,3.375,1.8888888888888888,2.6666666666666665,3.25,3.5555555555555554,1.5,1.75,2.5,0.0,0.6875,0.75,0.571036366667613,1.0715982283295449,,,,,,,,,,,,,,,,,,,0.02162893540769472,2.4562139479105927,0.017351161722490765,0.7183994329040375,,,,,,,,,,
9,240725_145233,FalseCHOICE,9.0,10,2.0,2583.0,,,,,,,,,,,10.0,10.0,,,A,,,,,,False,cue2.png,Hard,cue1.png,Easy,Right,Easy,Mid,0.016968200001429,,,,,,,,,,,,,51,28,Female,0.7142857142857143,0.5,0.4,1.0,2.111111111111111,3.375,1.8888888888888888,2.6666666666666665,3.25,3.5555555555555554,1.5,1.75,2.5,0.0,0.6875,0.75,0.4794339999989461,0.022828725488216028,,,,,,,,,,,,,,,,,,,0.011952818240302513,0.6443289412673951,0.005990910363437801,-1.1320134139030282,2.7708456534394886e+44,-0.17404409619110123,,,,,,,,
10,240725_145249,FalseCHOICE,9.0,11,2.0,2583.0,,,,,,,,,,,11.0,11.0,,,A,,,,,,False,cue1.png,Easy,cue2.png,Hard,Left,Easy,Mid,0.0166262000020651,,,,,,,,,,,,,51,28,Female,0.7142857142857143,0.5,0.4,1.0,2.111111111111111,3.375,1.8888888888888888,2.6666666666666665,3.25,3.5555555555555554,1.5,1.75,2.5,0.0,1.0,1.0,0.5236702166663841,0.5292959342416714,,,,,,,,,,,,,,,,,,,,,,,,,,,,,,,,
11,240725_145310,FalseCHOICE,9.0,12,2.0,2583.0,,,,,,,,,,,13.0,12.0,,,A,,,,,,False,cue2.png,Hard,cue1.png,Easy,Left,Hard,Mid,0.0159851999997044,,,,,,,,,,,,,51,28,Female,0.7142857142857143,0.5,0.4,1.0,2.111111111111111,3.375,1.8888888888888888,2.6666666666666665,3.25,3.5555555555555554,1.5,1.75,2.5,0.0,1.0,1.0,0.401995483332333,-0.8637766928955194,,,,,,,,,,,,,,,,,,,0.007684193218301643,-0.15498524050060133,0.008965443643089158,-0.6475070046732883,,,,,,,,,,
12,240725_145325,FalseCHOICE,9.0,13,2.0,2583.0,,,,,,,,,,,14.0,13.0,,,A,,,,,,False,cue1.png,Easy,cue2.png,Hard,Left,Easy,Mid,0.0160265000013168,,,,,,,,,,,,,51,28,Female,0.7142857142857143,0.5,0.4,1.0,2.111111111111111,3.375,1.8888888888888888,2.6666666666666665,3.25,3.5555555555555554,1.5,1.75,2.5,0.0,1.0,1.0,0.5142714666653774,0.4216882083240671,,,,,,,,,,,,,,,,,,,0.0053608417031631795,-0.5900405113924556,0.006568084099710161,-1.0380005560284609,,,,,,,,,,
13,240725_145341,FalseCHOICE,9.0,14,2.0,2583.0,,,,,,,,,,,15.0,14.0,,,A,,,,,,False,cue2.png,Hard,cue1.png,Easy,Left,Hard,Mid,0.0162692000012611,,,,,,,,,,,,,51,28,Female,0.7142857142857143,0.5,0.4,1.0,2.111111111111111,3.375,1.8888888888888888,2.6666666666666665,3.25,3.5555555555555554,1.5,1.75,2.5,0.0,1.0,1.0,0.5075609333331764,0.34485828610089087,,,,,,,,,,,,,,,,,,,0.010537999892749804,0.37939951692214,0.010330203883413495,-0.4252082366539356,-1.195116568855127e+44,-0.17418031616728868,,,,,,,,
14,240725_145357,FalseCHOICE,9.0,15,2.0,2583.0,,,,,,,,,,,16.0,15.0,,,A,,,,,,False,cue1.png,Easy,cue2.png,Hard,Left,Easy,Mid,0.0151810000024852,,,,,,,,,,,,,51,28,Female,0.7142857142857143,0.5,0.4,1.0,2.111111111111111,3.375,1.8888888888888888,2.6666666666666665,3.25,3.5555555555555554,1.5,1.75,2.5,0.0,1.0,1.0,0.6187322499990842,1.6176756897346471,,,,,,,,,,,,,,,,,,,,,0.00728319395976367,-0.9215199932223463,,,,,,,,,,
15,240725_145413,FalseCHOICE,9.0,16,2.0,2583.0,,,,,,,,,,,17.0,16.0,,,A,,,,,,False,cue1.png,Easy,cue2.png,Hard,Left,Easy,Mid,0.0139051000005565,,,,,,,,,,,,,51,28,Female,0.7142857142857143,0.5,0.4,1.0,2.111111111111111,3.375,1.8888888888888888,2.6666666666666665,3.25,3.5555555555555554,1.5,1.75,2.5,0.0,1.0,1.0,0.3895247833346123,-1.0065556440551575,,,,,,,,,,,,,,,,,,,0.0047623967780835354,-0.7021013068846365,0.014203556393037128,0.20570220867774716,,,,,,,,,,
16,240725_145429,FalseCHOICE,9.0,17,2.0,2583.0,,,,,,,,,,,18.0,17.0,,,A,,,,,,False,cue2.png,Hard,cue1.png,Easy,Left,Hard,Mid,0.0160489000008965,,,,,,,,,,,,,51,28,Female,0.7142857142857143,0.5,0.4,1.0,2.111111111111111,3.375,1.8888888888888888,2.6666666666666665,3.25,3.5555555555555554,1.5,1.75,2.5,0.0,1.0,1.0,0.4981228833342659,0.2368006084979522,,,,,,,,,,,,,,,,,,,0.004617598379610507,-0.7292152868665402,0.01547003475023765,0.4119923468355985,,,,,,,,,,
17,240725_145446,FalseCHOICE,9.0,18,2.0,2583.0,,,,,,,,,,,19.0,18.0,,,A,,,,,,False,cue2.png,Hard,cue1.png,Easy,Left,Hard,Mid,0.016008900001907,,,,,,,,,,,,,51,28,Female,0.7142857142857143,0.5,0.4,1.0,2.111111111111111,3.375,1.8888888888888888,2.6666666666666665,3.25,3.5555555555555554,1.5,1.75,2.5,0.0,1.0,1.0,0.6816820333339516,2.338397384741472,,,,,,,,,,,,,,,,,,,,,0.03812653870990179,4.1023936122344145,,,,,,,,,,
18,240725_145501,FalseCHOICE,9.0,19,2.0,2583.0,,,,,,,,,,,20.0,19.0,,,A,,,,,,False,cue1.png,Easy,cue2.png,Hard,Left,Easy,Mid,0.0166916999987734,,,,,,,,,,,,,51,28,Female,0.7142857142857143,0.5,0.4,1.0,2.111111111111111,3.375,1.8888888888888888,2.6666666666666665,3.25,3.5555555555555554,1.5,1.75,2.5,0.0,1.0,1.0,0.4382804999998673,-0.44834398875321396,,,,,,,,,,,,,,,,,,,0.006728159070556131,-0.33400580300231075,,,9.252028653070856e+43,-0.17410748898270084,,,,,,,,
19,240725_145515,FalseCHOICE,9.0,20,2.0,2583.0,,,,,,,,,,,21.0,20.0,,,A,,,,,,False,cue1.png,Easy,cue2.png,Hard,Left,Easy,Mid,0.0160680999979376,,,,,,,,,,,,,51,28,Female,0.7142857142857143,0.5,0.4,1.0,2.111111111111111,3.375,1.8888888888888888,2.6666666666666665,3.25,3.5555555555555554,1.5,1.75,2.5,0.0,0.6875,0.75,0.3474266333335739,-1.4885438006147733,,,,,,,,,,,,,,,,,,,0.006643608088921161,-0.3498382545188786,,,6.00125895416316e+43,-0.17411865448923258,,,,,,,,
20,240725_145530,FalseCHOICE,9.0,21,2.0,2583.0,,,,,,,,,,,22.0,21.0,,,A,,,,,,False,cue1.png,Easy,cue2.png,Hard,Left,Easy,Mid,0.0150696999990032,,,,,,,,,,,,,51,28,Female,0.7142857142857143,0.5,0.4,1.0,2.111111111111111,3.375,1.8888888888888888,2.6666666666666665,3.25,3.5555555555555554,1.5,1.75,2.5,0.0,1.0,1.0,0.3540274166662129,-1.4129704229183746,,,,,,,,,,,,,,,,,,,0.004786495855643993,-0.6975886747461096,0.008429506292136834,-0.7348030800806022,1.4361110797942812e+43,-0.17413433452600255,,,,,,,,
21,240725_145545,FalseCHOICE,9.0,22,2.0,2583.0,,,,,,,,,,,23.0,22.0,,,A,,,,,,False,cue2.png,Hard,cue1.png,Easy,Left,Hard,Mid,0.0157964999998512,,,,,,,,,,,,,51,28,Female,0.7142857142857143,0.5,0.4,1.0,2.111111111111111,3.375,1.8888888888888888,2.6666666666666665,3.25,3.5555555555555554,1.5,1.75,2.5,0.0,1.0,1.0,0.4397856833335633,-0.43111091460923107,,,,,,,,,,,,,,,,,,,,,0.0077324570979162045,-0.848341834028551,-2.889171052396899e+43,-0.17414919068942586,,,,,,,,
22,240725_145600,FalseCHOICE,9.0,23,2.0,2583.0,,,,,,,,,,,24.0,23.0,,,A,,,,,,False,cue1.png,Easy,cue2.png,Hard,Left,Easy,Mid,0.0143664999995962,,,,,,,,,,,,,51,28,Female,0.7142857142857143,0.5,0.4,1.0,2.111111111111111,3.375,1.8888888888888888,2.6666666666666665,3.25,3.5555555555555554,1.5,1.75,2.5,0.0,1.0,1.0,0.4938718166661904,0.18812949618762026,,,,,,,,,,,,,,,,,,,0.007040975326941404,-0.2754299223082695,0.012391537281501481,-0.08944825381386835,-6.230666259629694e+43,-0.17416066781331274,,,,,,,,
23,240725_145614,FalseCHOICE,9.0,24,2.0,2583.0,,,,,,,,,,,25.0,24.0,,,A,,,,,,False,cue2.png,Hard,cue1.png,Easy,Left,Hard,Mid,0.0126976999999897,,,,,,,,,,,,,51,28,Female,0.7142857142857143,0.5,0.4,1.0,2.111111111111111,3.375,1.8888888888888888,2.6666666666666665,3.25,3.5555555555555554,1.5,1.75,2.5,0.0,1.0,1.0,0.3679466499991879,-1.253606992109223,,,,,,,,,,,,,,,,,,,0.0316136778736715,4.325890064510645,0.018620953638294448,0.92522929956033,-7.645340676568729e+43,-0.17416552683376194,,,,,,,,
24,240725_145630,FalseCHOICE,9.0,25,2.0,2583.0,,,,,,,,,,,26.0,25.0,,,A,,,,,,False,cue2.png,Hard,cue1.png,Easy,Left,Hard,Mid,0.0150503999975626,,,,,,,,,,,,,51,28,Female,0.7142857142857143,0.5,0.4,1.0,2.111111111111111,3.375,1.8888888888888888,2.6666666666666665,3.25,3.5555555555555554,1.5,1.75,2.5,0.0,1.0,1.0,0.4121544000002662,-0.7474657025717377,,,,,,,,,,,,,,,,,,,0.017916224038979755,1.760996440041021,0.007687598973222421,-0.8556485429730588,-6.94206278164179e+43,-0.17416311126617126,,,,,,,,
25,240725_145645,FalseCHOICE,9.0,26,2.0,2583.0,,,,,,,,,,,27.0,26.0,,,A,,,,,,False,cue1.png,Easy,cue2.png,Hard,Left,Easy,Mid,0.0162453000011737,,,,,,,,,,,,,51,28,Female,0.7142857142857143,0.5,0.4,1.0,2.111111111111111,3.375,1.8888888888888888,2.6666666666666665,3.25,3.5555555555555554,1.5,1.75,2.5,0.0,0.6875,0.75,0.3477235833330875,-1.4851439746639317,,,,,,,,,,,,,,,,,,,0.006143320731807707,-0.44351872011118576,0.011452297812460606,-0.2424361345227304,-4.273560889841616e+43,-0.17415394569061146,,,,,,,,
26,240725_145700,FalseCHOICE,9.0,27,2.0,2583.0,,,,,,,,,,,28.0,27.0,,,A,,,,,,False,cue1.png,Easy,cue2.png,Hard,Right,Hard,Mid,0.0164843999991717,,,,,,,,,,,,,51,28,Female,0.7142857142857143,0.5,0.4,1.0,2.111111111111111,3.375,1.8888888888888888,2.6666666666666665,3.25,3.5555555555555554,1.5,1.75,2.5,0.0,0.6875,0.75,0.3779419666661852,-1.139169083212115,,,,,,,,,,,,,,,,,,,0.007253648967730594,-0.23560607826132862,0.027133348838902418,2.311769521115507,2.857818903528574e+44,-0.17404110889737726,,,,,,,,
27,240725_145715,FalseCHOICE,9.0,28,2.0,2583.0,,,,,,,,,,,29.0,28.0,,,A,,,,,,False,cue2.png,Hard,cue1.png,Easy,Right,Easy,Mid,0.0164226000015332,,,,,,,,,,,,,51,28,Female,0.7142857142857143,0.5,0.4,1.0,2.111111111111111,3.375,1.8888888888888888,2.6666666666666665,3.25,3.5555555555555554,1.5,1.75,2.5,0.0,1.0,1.0,0.4300482833338416,-0.5425958961448498,,,,,,,,,,,,,,,,,,,0.006380539389262829,-0.39909874035035764,0.00967771588921756,-0.5314886461877772,2.450659655129016e+43,-0.17413084982859428,,,,,,,,
28,240725_145730,FalseCHOICE,9.0,29,2.0,2583.0,,,,,,,,,,,30.0,29.0,,,A,,,,,,False,cue1.png,Easy,cue2.png,Hard,Right,Hard,Mid,0.0165561999965575,,,,,,,,,,,,,51,28,Female,0.7142857142857143,0.5,0.4,1.0,2.111111111111111,3.375,1.8888888888888888,2.6666666666666665,3.25,3.5555555555555554,1.5,1.75,2.5,0.0,1.0,1.0,0.3665990333326287,-1.2690360613877507,,,,,,,,,,,,,,,,,,,0.010474234558420798,0.3674592467481014,,,5.251200959328106e+43,-0.17412123073369656,,,,,,,,
29,240725_145745,FalseCHOICE,9.0,30,2.0,2583.0,,,,,,,,,,,31.0,30.0,,,A,,,,,,False,cue1.png,Easy,cue2.png,Hard,Left,Easy,Mid,0.016080299999885,,,,,,,,,,,,,51,28,Female,0.7142857142857143,0.5,0.4,1.0,2.111111111111111,3.375,1.8888888888888888,2.6666666666666665,3.25,3.5555555555555554,1.5,1.75,2.5,0.0,1.0,1.0,0.3881655000004684,-1.0221182867948047,,,,,,,,,,,,,,,,,,,,,0.011066718341584892,-0.30524118907858055,,,,,,,,,,
30,240725_145801,FalseCHOICE,9.0,31,2.0,2583.0,,,,,,,,,,,32.0,31.0,,,A,,,,,,False,cue2.png,Hard,cue1.png,Easy,Right,Easy,Mid,0.015703900000517,,,,,,,,,,,,,51,28,Female,0.7142857142857143,0.5,0.4,1.0,2.111111111111111,3.375,1.8888888888888888,2.6666666666666665,3.25,3.5555555555555554,1.5,1.75,2.5,0.0,1.0,1.0,0.4882661999999982,0.12394993382558803,,,,,,,,,,,,,,,,,,,0.005170049114734447,-0.6257670558701961,0.013133146878669053,0.0313487147162968,6.101088253131166e+43,-0.1741183116028417,,,,,,,,
31,240725_145818,FalseCHOICE,9.0,32,2.0,2583.0,,,,,,,,,,,33.0,32.0,,,A,,,,,,False,cue1.png,Easy,cue2.png,Hard,Left,Easy,Mid,0.0168045999998867,,,,,,,,,,,,,51,28,Female,0.7142857142857143,0.5,0.4,1.0,2.111111111111111,3.375,1.8888888888888888,2.6666666666666665,3.25,3.5555555555555554,1.5,1.75,2.5,0.0,0.6875,0.75,0.656169866667066,2.04630468752531,,,,,,,,,,,,,,,,,,,0.004857605233595499,-0.6842732080652962,0.008388586061081522,-0.7414683658076404,4.488836341818409e+43,-0.17412384924805002,,,,,,,,
32,240725_145833,FalseCHOICE,9.0,33,2.0,2583.0,,,,,,,,,,,34.0,33.0,,,A,,,,,,False,cue2.png,Hard,cue1.png,Easy,Left,Hard,Mid,0.0159218000007967,,,,,,,,,,,,,51,28,Female,0.7142857142857143,0.5,0.4,1.0,2.111111111111111,3.375,1.8888888888888888,2.6666666666666665,3.25,3.5555555555555554,1.5,1.75,2.5,0.0,0.125,0.5,0.4881963999996515,0.12315078294855064,,,,,,,,,,,,,,,,,,,,,0.009981063474675403,-0.48207792001297456,1.6910393044491618e+43,-0.1741334589171403,,,,,,,,
33,240725_145848,FalseCHOICE,9.0,34,2.0,2583.0,,,,,,,,,,,35.0,34.0,,,A,,,,,,False,cue2.png,Hard,cue1.png,Easy,Left,Hard,Mid,0.0141007999991416,,,,,,,,,,,,,51,28,Female,0.7142857142857143,0.5,0.4,1.0,2.111111111111111,3.375,1.8888888888888888,2.6666666666666665,3.25,3.5555555555555554,1.5,1.75,2.5,0.0,1.0,1.0,0.3785076833325244,-1.1326921065958706,,,,,,,,,,,,,,,,,,,,,0.011547809210605086,-0.2268787746935211,-1.9382741615574665e+43,-0.1741459246181784,,,,,,,,
34,240725_145904,FalseCHOICE,9.0,35,2.0,2583.0,,,,,,,,,,,36.0,35.0,,,A,,,,,,False,cue2.png,Hard,cue1.png,Easy,Left,Hard,Mid,0.0141407000010076,,,,,,,,,,,,,51,28,Female,0.7142857142857143,0.5,0.4,1.0,2.111111111111111,3.375,1.8888888888888888,2.6666666666666665,3.25,3.5555555555555554,1.5,1.75,2.5,0.0,1.0,1.0,0.4347634499996881,-0.4886112319948424,,,,,,,,,,,,,,,,,,,0.0105448927578634,0.3806902287578986,0.007018539343305182,-0.9646282209176188,-4.472401602486847e+43,-0.17415462865418058,,,,,,,,
35,240725_145918,FalseCHOICE,9.0,36,2.0,2583.0,,,,,,,,,,,37.0,36.0,,,A,,,,,,False,cue1.png,Easy,cue2.png,Hard,Right,Hard,Mid,0.0175973000004887,,,,,,,,,,,,,51,28,Female,0.7142857142857143,0.5,0.4,1.0,2.111111111111111,3.375,1.8888888888888888,2.6666666666666665,3.25,3.5555555555555554,1.5,1.75,2.5,0.0,1.0,1.0,0.3680613333326619,-1.2522939650881337,,,,,,,,,,,,,,,,,,,0.006137183012231763,-0.4446680284424355,0.008286909422821596,-0.7580299498527321,-5.919951214629931e+43,-0.1741596005919511,,,,,,,,
36,240725_145934,FalseCHOICE,9.0,37,2.0,2583.0,,,,,,,,,,,38.0,37.0,,,A,,,,,,False,cue2.png,Hard,cue1.png,Easy,Right,Easy,Mid,0.0181317000024137,,,,,,,,,,,,,51,28,Female,0.7142857142857143,0.5,0.4,1.0,2.111111111111111,3.375,1.8888888888888888,2.6666666666666665,3.25,3.5555555555555554,1.5,1.75,2.5,0.0,1.0,1.0,0.532095799999297,0.6257617261700561,,,,,,,,,,,,,,,,,,,,,0.01422660566317838,0.2094565856040034,,,,,,,,,,
37,240725_145950,FalseCHOICE,9.0,38,2.0,2583.0,,,,,,,,,,,39.0,38.0,,,A,,,,,,False,cue1.png,Easy,cue2.png,Hard,Right,Hard,Mid,0.0154211000008217,,,,,,,,,,,,,51,28,Female,0.7142857142857143,0.5,0.4,1.0,2.111111111111111,3.375,1.8888888888888888,2.6666666666666665,3.25,3.5555555555555554,1.5,1.75,2.5,0.0,1.0,1.0,0.5885879833331273,1.2725493713380522,,,,,,,,,,,,,,,,,,,0.010799608161659438,0.42838653225599793,0.011826721766727022,-0.18144814462453543,-3.4926327703958665e+43,-0.17415126341569626,,,,,,,,
38,240725_150006,FalseCHOICE,9.0,39,2.0,2583.0,,,,,,,,,,,40.0,39.0,,,A,,,,,,False,cue1.png,Easy,cue2.png,Hard,Left,Easy,Mid,0.0149682000010216,,,,,,,,,,,,,51,28,Female,0.7142857142857143,0.5,0.4,1.0,2.111111111111111,3.375,1.8888888888888888,2.6666666666666665,3.25,3.5555555555555554,1.5,1.75,2.5,0.0,1.0,1.0,0.5453588166668245,0.7776120320348826,,,,,,,,,,,,,,,,,,,0.005201894722992085,-0.6198038601863021,0.01382434547132886,0.1439344943023652,-4.375487153905286e+42,-0.17414077003593373,,,,,,,,
39,240725_150022,FalseCHOICE,9.0,40,2.0,2583.0,,,,,,,,,,,41.0,40.0,,,A,,,,,,False,cue2.png,Hard,cue1.png,Easy,Left,Hard,Mid,0.0162798999990627,,,,,,,,,,,,,51,28,Female,0.7142857142857143,0.5,0.4,1.0,2.111111111111111,3.375,1.8888888888888888,2.6666666666666665,3.25,3.5555555555555554,1.5,1.75,2.5,0.0,1.0,1.0,0.5251274499999757,0.5459800215024587,,,,,,,,,,,,,,,,,,,0.005996701661327188,-0.4709736269602739,0.01565930351604207,0.44282136150037715,3.015478060108955e+43,-0.17412890983155538,,,,,,,,
40,240725_150036,FalseCHOICE,9.0,41,2.0,2583.0,,,,,,,,,,,42.0,41.0,,,A,,,,,,False,cue2.png,Hard,cue1.png,Easy,Left,Hard,Mid,0.0161136999995505,,,,,,,,,,,,,51,28,Female,0.7142857142857143,0.5,0.4,1.0,2.111111111111111,3.375,1.8888888888888888,2.6666666666666665,3.25,3.5555555555555554,1.5,1.75,2.5,0.0,1.0,1.0,0.4253013833337415,-0.596943880091048,,,,,,,,,,,,,,,,,,,0.005997517036744985,-0.47082094521110385,0.011979270586552578,-0.15660025287911936,,,,,,,,,,
41,240725_150052,FalseCHOICE,9.0,42,2.0,2583.0,,,,,,,,,,,43.0,42.0,,,A,,,,,,False,cue1.png,Easy,cue2.png,Hard,Left,Easy,Mid,0.0166420999994443,,,,,,,,,,,,,51,28,Female,0.7142857142857143,0.5,0.4,1.0,2.111111111111111,3.375,1.8888888888888888,2.6666666666666665,3.25,3.5555555555555554,1.5,1.75,2.5,0.0,1.0,1.0,0.4881200500009678,0.12227664013899815,,,,,,,,,,,,,,,,,,,0.007318364457075236,-0.22348788841175946,,,5.903967171296812e+43,-0.17411898865994835,,,,,,,,
42,240725_150108,FalseCHOICE,9.0,43,2.0,2583.0,,,,,,,,,,,44.0,43.0,,,A,,,,,,False,cue2.png,Hard,cue1.png,Easy,Right,Easy,Mid,0.0166110999998636,,,,,,,,,,,,,51,28,Female,0.7142857142857143,0.5,0.4,1.0,2.111111111111111,3.375,1.8888888888888888,2.6666666666666665,3.25,3.5555555555555554,1.5,1.75,2.5,0.0,1.0,1.0,0.5777190500005721,1.1481092916528777,,,,,,,,,,,,,,,,,,,0.0149335617872834,1.2024830487458893,,,4.1213348009448367e+43,-0.1741251115155236,,,,,,,,
43,240725_150124,FalseCHOICE,9.0,44,2.0,2583.0,,,,,,,,,,,45.0,44.0,,,A,,,,,,False,cue1.png,Easy,cue2.png,Hard,Left,Easy,Mid,0.0151101000010385,,,,,,,,,,,,,51,28,Female,0.7142857142857143,0.5,0.4,1.0,2.111111111111111,3.375,1.8888888888888888,2.6666666666666665,3.25,3.5555555555555554,1.5,1.75,2.5,0.0,1.0,1.0,0.3995740500001072,-0.8915000533757951,,,,,,,,,,,,,,,,,,,0.006554386532839061,-0.36654528657914676,0.010290671543082011,-0.43164745600760174,1.75754079541639e+42,-0.17413866350825047,,,,,,,,
44,240725_150139,FalseCHOICE,9.0,45,2.0,2583.0,,,,,,,,,,,46.0,45.0,,,A,,,,,,False,cue2.png,Hard,cue1.png,Easy,Left,Hard,Mid,0.0157055000017862,,,,,,,,,,,,,51,28,Female,0.7142857142857143,0.5,0.4,1.0,2.111111111111111,3.375,1.8888888888888888,2.6666666666666665,3.25,3.5555555555555554,1.5,1.75,2.5,0.0,0.6875,0.75,0.4075650000001284,-0.8000104449351564,,,,,,,,,,,,,,,,,,,0.007562144071778982,-0.17783934766284512,0.015066607350032712,0.34628013497522425,,,,,,,,,,
45,240725_150155,FalseCHOICE,9.0,46,2.0,2583.0,,,,,,,,,,,47.0,46.0,,,A,,,,,,False,cue2.png,Hard,cue1.png,Easy,Left,Hard,Mid,0.016416599999502,,,,,,,,,,,,,51,28,Female,0.7142857142857143,0.5,0.4,1.0,2.111111111111111,3.375,1.8888888888888888,2.6666666666666665,3.25,3.5555555555555554,1.5,1.75,2.5,0.0,1.0,1.0,0.4900851833329701,0.14477575214421132,,,,,,,,,,,,,,,,,,,0.006063186394147899,-0.4585241404064653,0.009457016636641481,-0.567437210998542,-6.365268245350755e+43,-0.17416113013439052,,,,,,,,
46,240725_150210,FalseCHOICE,9.0,47,2.0,2583.0,,,,,,,,,,,48.0,47.0,,,A,,,,,,False,cue1.png,Easy,cue2.png,Hard,Left,Easy,Mid,0.015980699998181,,,,,,,,,,,,,51,28,Female,0.7142857142857143,0.5,0.4,1.0,2.111111111111111,3.375,1.8888888888888888,2.6666666666666665,3.25,3.5555555555555554,1.5,1.75,2.5,0.0,0.6875,0.75,0.363920783333621,-1.2996997551556642,,,,,,,,,,,,,,,,,,,0.006484266039453849,-0.37967558134771767,0.010421406003972827,-0.4103527928609117,-4.60035072065982e+43,-0.17415506812447437,,,,,,,,
47,240725_150226,FalseCHOICE,9.0,48,2.0,2583.0,,,,,,,,,,,49.0,48.0,,,A,,,,,,False,cue1.png,Easy,cue2.png,Hard,Left,Easy,Mid,0.016438200000266,,,,,,,,,,,,,51,28,Female,0.7142857142857143,0.5,0.4,1.0,2.111111111111111,3.375,1.8888888888888888,2.6666666666666665,3.25,3.5555555555555554,1.5,1.75,2.5,0.0,0.6875,0.75,0.5178768166667093,0.46296641178078196,,,,,,,,,,,,,,,,,,,0.005704183745208353,-0.5257485761698927,0.01346911651127165,0.08607307817058589,2.2220075383651037e+43,-0.17413163518619867,,,,,,,,
48,240725_150241,FalseCHOICE,9.0,49,2.0,2583.0,,,,,,,,,,,50.0,49.0,,,A,,,,,,False,cue2.png,Hard,cue1.png,Easy,Left,Hard,Mid,0.0167080999999598,,,,,,,,,,,,,51,28,Female,0.7142857142857143,0.5,0.4,1.0,2.111111111111111,3.375,1.8888888888888888,2.6666666666666665,3.25,3.5555555555555554,1.5,1.75,2.5,0.0,1.0,1.0,0.4730601833343826,-0.05014607612007642,,,,,,,,,,,,,,,,,,,0.005124321797863622,-0.634329647496461,0.010400447670813443,-0.41376658782900283,8.052358233095832e+43,-0.17411160952311153,,,,,,,,
49,240725_150257,FalseCHOICE,9.0,50,2.0,2583.0,,,,,,,,,,,51.0,50.0,,,A,,,,,,False,cue1.png,Easy,cue2.png,Hard,Left,Easy,Mid,0.0162171000010857,,,,,,,,,,,,,51,28,Female,0.7142857142857143,0.5,0.4,1.0,2.111111111111111,3.375,1.8888888888888888,2.6666666666666665,3.25,3.5555555555555554,1.5,1.75,2.5,0.0,0.6875,0.75,0.5650687833337239,1.0032744542409886,,,,,,,,,,,,,,,,,,,0.017326377477067754,1.6505457165473094,0.022119839854150374,1.4951448585304703,-3.939236963682465e+42,-0.174140620195902,,,,,,,,
0,240725_142929,OFFLINERATING,9.0,1,1.0,,,,,,,,,,,,,,,,,T0,cue1.png,Easy,7.0,1.341774100001203,,,,,,,,,,,,,,,,,,,,,,51,28,Female,0.7142857142857143,0.5,0.4,1.0,2.111111111111111,3.375,1.8888888888888888,2.6666666666666665,3.25,3.5555555555555554,1.5,1.75,2.5,0.0,,,,,,,,,,,,,,,,,,,,,,,,,,,,,-0.8516910493274727,,,,,452181608.2219155,1.414213556505976,
1,240725_142937,OFFLINERATING,9.0,2,3.0,,,,,,,,,,,,,,,,,T0,cue2.png,Hard,7.0,1.468922699998075,,,,,,,,,,,,,,,,,,,,,,51,28,Female,0.7142857142857143,0.5,0.4,1.0,2.111111111111111,3.375,1.8888888888888888,2.6666666666666665,3.25,3.5555555555555554,1.5,1.75,2.5,0.0,,,,,,,,,,,,,,,,,,,,,,,,,,,,,-0.8516910493274727,,,,,,,
2,240725_144458,OFFLINERATING,9.0,3,1.0,,,,,,,,,,,,,,,,,T1,cue1.png,Easy,48.0,1.6984948999997869,,,,,,,,,,,,,,,,,,,,,,51,28,Female,0.7142857142857143,0.5,0.4,1.0,2.111111111111111,3.375,1.8888888888888888,2.6666666666666665,3.25,3.5555555555555554,1.5,1.75,2.5,0.0,,,,,,,,,,,,,,,,,,,,,,,,,,,,,0.5735878495470735,,,0.008716901457522033,0.5586887225631789,,,
3,240725_144506,OFFLINERATING,9.0,4,3.0,,,,,,,,,,,,,,,,,T1,cue2.png,Hard,3.0,1.0182284000002255,,,,,,,,,,,,,,,,,,,,,,51,28,Female,0.7142857142857143,0.5,0.4,1.0,2.111111111111111,3.375,1.8888888888888888,2.6666666666666665,3.25,3.5555555555555554,1.5,1.75,2.5,0.0,,,,,,,,,,,,,,,,,,,,,,,,,,,,,-0.9907426492176724,0.0055287480938313975,0.561337750148233,0.009595287748644845,1.3413098818988545,-7332.500624740609,-0.7072183400702321,
4,240725_144901,OFFLINERATING,9.0,5,1.0,,,,,,,,,,,,,,,,,T2,cue1.png,Easy,85.0,0.801524899998185,,,,,,,,,,,,,,,,,,,,,,51,28,Female,0.7142857142857143,0.5,0.4,1.0,2.111111111111111,3.375,1.8888888888888888,2.6666666666666665,3.25,3.5555555555555554,1.5,1.75,2.5,0.0,,,,,,,,,,,,,,,,,,,,,,,,,,,,,1.8598151485314203,0.005661161744355079,0.8434641009095468,0.006793919560156582,-1.1546421173044588,,,
5,240725_144908,OFFLINERATING,9.0,6,3.0,,,,,,,,,,,,,,,,,T2,cue2.png,Hard,3.0,0.9015422000011312,,,,,,,,,,,,,,,,,,,,,,51,28,Female,0.7142857142857143,0.5,0.4,1.0,2.111111111111111,3.375,1.8888888888888888,2.6666666666666665,3.25,3.5555555555555554,1.5,1.75,2.5,0.0,,,,,,,,,,,,,,,,,,,,,,,,,,,,,-0.9907426492176724,0.004605956864538813,-1.4048018510577815,,,,,
6,240725_150310,OFFLINERATING,9.0,7,1.0,,,,,,,,,,,,,,,,,T3,cue1.png,Easy,52.0,1.0140532000004896,,,,,,,,,,,,,,,,,,,,,,51,28,Female,0.7142857142857143,0.5,0.4,1.0,2.111111111111111,3.375,1.8888888888888888,2.6666666666666665,3.25,3.5555555555555554,1.5,1.75,2.5,0.0,,,,,,,,,,,,,,,,,,,,,,,,,,,,,0.7126394494372732,,,,,,,
7,240725_150317,OFFLINERATING,9.0,8,3.0,,,,,,,,,,,,,,,,,T3,cue2.png,Hard,47.0,0.5012800000004063,,,,,,,,,,,,,,,,,,,,,,51,28,Female,0.7142857142857143,0.5,0.4,1.0,2.111111111111111,3.375,1.8888888888888888,2.6666666666666665,3.25,3.5555555555555554,1.5,1.75,2.5,0.0,,,,,,,,,,,,,,,,,,,,,,,,,,,,,0.5388249495745236,,,0.007253287266212157,-0.7453564871575754,40226.904931571924,-0.7069952164357439,
0,240725_144928,LEARNINGCHECK,9.0,1,,,,,,,,,,,,1.0,1.0,1.0,,,A,,,,,,,,,,,,,,,cue1.png,Easy,Left,Left,Easy,0.0130337000009603,1.0,,,,,,51,28,Female,0.7142857142857143,0.5,0.4,1.0,2.111111111111111,3.375,1.8888888888888888,2.6666666666666665,3.25,3.5555555555555554,1.5,1.75,2.5,0.0,,,,,,,,,,,,,,,,,,,,,,,,,,,,,,,,,,,,
1,240725_144934,LEARNINGCHECK,9.0,2,,,,,,,,,,,,2.0,2.0,2.0,,,A,,,,,,,,,,,,,,,cue2.png,Hard,Right,Right,Hard,0.0136005000022123,1.0,,,,,,51,28,Female,0.7142857142857143,0.5,0.4,1.0,2.111111111111111,3.375,1.8888888888888888,2.6666666666666665,3.25,3.5555555555555554,1.5,1.75,2.5,0.0,,,,,,,,,,,,,,,,,,,,,,,,,,,,,,,,,,,,
2,240725_150330,LEARNINGCHECK,9.0,1,,,,,,,,,,,,1.0,1.0,1.0,,,A,,,,,,,,,,,,,,,cue1.png,Easy,Middle,Middle,Mid,0.0162802000013471,1.0,,,,,,51,28,Female,0.7142857142857143,0.5,0.4,1.0,2.111111111111111,3.375,1.8888888888888888,2.6666666666666665,3.25,3.5555555555555554,1.5,1.75,2.5,0.0,,,,,,,,,,,,,,,,,,,,,,,,,,,,,,,,,,,,
3,240725_150335,LEARNINGCHECK,9.0,2,,,,,,,,,,,,2.0,2.0,2.0,,,A,,,,,,,,,,,,,,,cue2.png,Hard,Middle,Middle,Mid,0.0147262000027694,1.0,,,,,,51,28,Female,0.7142857142857143,0.5,0.4,1.0,2.111111111111111,3.375,1.8888888888888888,2.6666666666666665,3.25,3.5555555555555554,1.5,1.75,2.5,0.0,,,,,,,,,,,,,,,,,,,,,,,,,,,,,,,,,,,,
0,240725_150358,DEMANDRATING,9.0,-1,,,,,,,,,,,,,,,,,,,,,,,,,,,,,,,,,,,,,,,1.0,MentalDemand,1.0,5.0,4.309312400000636,51,28,Female,0.7142857142857143,0.5,0.4,1.0,2.111111111111111,3.375,1.8888888888888888,2.6666666666666665,3.25,3.5555555555555554,1.5,1.75,2.5,0.0,,,,,,,,,,,,,,,,,,,,,,,,,,,,,,,,,,,,-1.1686463835437038
1,240725_150403,DEMANDRATING,9.0,-1,,,,,,,,,,,,,,,,,,,,,,,,,,,,,,,,,,,,,,,2.0,Effort,1.0,3.0,3.664224899999681,51,28,Female,0.7142857142857143,0.5,0.4,1.0,2.111111111111111,3.375,1.8888888888888888,2.6666666666666665,3.25,3.5555555555555554,1.5,1.75,2.5,0.0,,,,,,,,,,,,,,,,,,,,,,,,,,,,,,,,,,,,-1.2462686525613667
2,240725_150407,DEMANDRATING,9.0,-1,,,,,,,,,,,,,,,,,,,,,,,,,,,,,,,,,,,,,,,3.0,Frustration,1.0,1.0,2.934079300001031,51,28,Female,0.7142857142857143,0.5,0.4,1.0,2.111111111111111,3.375,1.8888888888888888,2.6666666666666665,3.25,3.5555555555555554,1.5,1.75,2.5,0.0,,,,,,,,,,,,,,,,,,,,,,,,,,,,,,,,,,,,-1.3238909215790295
3,240725_150413,DEMANDRATING,9.0,-1,,,,,,,,,,,,,,,,,,,,,,,,,,,,,,,,,,,,,,,4.0,MentalDemand,2.0,36.0,3.7657877999990887,51,28,Female,0.7142857142857143,0.5,0.4,1.0,2.111111111111111,3.375,1.8888888888888888,2.6666666666666665,3.25,3.5555555555555554,1.5,1.75,2.5,0.0,,,,,,,,,,,,,,,,,,,,,,,,,,,,,,,,,,,,0.034498786230072305
4,240725_150416,DEMANDRATING,9.0,-1,,,,,,,,,,,,,,,,,,,,,,,,,,,,,,,,,,,,,,,5.0,Effort,2.0,32.0,1.465843699999823,51,28,Female,0.7142857142857143,0.5,0.4,1.0,2.111111111111111,3.375,1.8888888888888888,2.6666666666666665,3.25,3.5555555555555554,1.5,1.75,2.5,0.0,,,,,,,,,,,,,,,,,,,,,,,,,,,,,,,,,,,,-0.12074575180525363
5,240725_150421,DEMANDRATING,9.0,-1,,,,,,,,,,,,,,,,,,,,,,,,,,,,,,,,,,,,,,,6.0,Frustration,2.0,73.0,3.967034299999796,51,28,Female,0.7142857142857143,0.5,0.4,1.0,2.111111111111111,3.375,1.8888888888888888,2.6666666666666665,3.25,3.5555555555555554,1.5,1.75,2.5,0.0,,,,,,,,,,,,,,,,,,,,,,,,,,,,,,,,,,,,1.4705107630568373
6,240725_150426,DEMANDRATING,9.0,-1,,,,,,,,,,,,,,,,,,,,,,,,,,,,,,,,,,,,,,,7.0,MentalDemand,3.0,45.0,3.297169599998597,51,28,Female,0.7142857142857143,0.5,0.4,1.0,2.111111111111111,3.375,1.8888888888888888,2.6666666666666665,3.25,3.5555555555555554,1.5,1.75,2.5,0.0,,,,,,,,,,,,,,,,,,,,,,,,,,,,,,,,,,,,0.38379899680955565
7,240725_150430,DEMANDRATING,9.0,-1,,,,,,,,,,,,,,,,,,,,,,,,,,,,,,,,,,,,,,,8.0,Effort,3.0,56.0,2.372430399998848,51,28,Female,0.7142857142857143,0.5,0.4,1.0,2.111111111111111,3.375,1.8888888888888888,2.6666666666666665,3.25,3.5555555555555554,1.5,1.75,2.5,0.0,,,,,,,,,,,,,,,,,,,,,,,,,,,,,,,,,,,,0.810721476406702
8,240725_150434,DEMANDRATING,9.0,-1,,,,,,,,,,,,,,,,,,,,,,,,,,,,,,,,,,,,,,,9.0,Frustration,3.0,65.0,2.597865399999137,51,28,Female,0.7142857142857143,0.5,0.4,1.0,2.111111111111111,3.375,1.8888888888888888,2.6666666666666665,3.25,3.5555555555555554,1.5,1.75,2.5,0.0,,,,,,,,,,,,,,,,,,,,,,,,,,,,,,,,,,,,1.1600216869861852
