,END,Phase,Block,TrialN,NbackLevel,ISI,Letter_Resp,Letter_RT,Letter_Accuracy,Trial_A_measure,Trial_ACC,Trial_RT,TrialCountCali,CaliEnd_A_measure,ISI_calibrated,TrialIndex,TrialNumber_total,TrialNumber_valid,CueLearning,TrialDemandLearning,CueMapping,OfflineRatingTimePoint,CueFigure,TrialDemand,OfflineRating,OfflineRatingRT,PhaseType,CueLeft,CueDemandLeft,CueRight,CueDemandRight,Choice,ChoiceDemand,TaskDemand,ChoiceRT,CueCheck,CueDemandCheck,CorrectAnswer,Answer,AnswerDemand,AnswerRT,AnswerACC,DemandRatingQuesIndex,QuesTLX,DemandLevel,DemandRating,DemandRatingRT,PID,Age,Gender,BAI_bis,BAI_bas_d,BAI_bas_rr,BAI_bas_fs,NFC,BFI_ext,BFI_agr,BFI_con,BFI_neu,BFI_open,UPPS_lps,UPPS_lpm,UPPS_pu,UPPS_ss,Task_A_measure,Task_ACC,Task_RT,Task_RT_z,cue_i_on_zyg_values,cue_i_on_zyg_zvalues,cue_e_on_zyg_values,cue_e_on_zyg_zvalues,cue_i_on_cor_values,cue_i_on_cor_zvalues,cue_e_on_cor_values,cue_e_on_cor_zvalues,cue_i_on_scr_values,cue_i_on_scr_zvalues,cue_e_on_scr_values,cue_e_on_scr_zvalues,cue_e_true_zyg_values,cue_e_true_zyg_zvalues,cue_e_true_cor_values,cue_e_true_cor_zvalues,cue_e_true_scr_values,cue_e_true_scr_zvalues,cue_e_false_zyg_values,cue_e_false_zyg_zvalues,cue_e_false_cor_values,cue_e_false_cor_zvalues,cue_e_false_scr_values,cue_e_false_scr_zvalues,OfflineRating_z,cue_i_off_zyg_values,cue_i_off_zyg_zvalues,cue_i_off_cor_values,cue_i_off_cor_zvalues,cue_i_off_scr_values,cue_i_off_scr_zvalues,DemandRating_z
0,240801_092500,PRACTICE,0.0,1,1.0,303.0,,,,,,,,,,9.0,1.0,1.0,cue2.png,Easy,B,,,,,,,,,,,,,,,,,,,,,,,,,,,52,26,Male,1.1428571428571428,1.0,0.6,2.25,2.0555555555555554,2.25,2.111111111111111,2.0,2.5,1.8888888888888888,1.5,1.25,1.75,1.5,,,,,,,,,,,,,,,,,,,,,,,,,,,,,,,,,,,,
0,240801_092719,LEARNING,1.0,1,1.0,303.0,,,,,,,,,,1.0,1.0,1.0,cue2.png,Easy,B,,,,,,,,,,,,,,,,,,,,,,,,,,,52,26,Male,1.1428571428571428,1.0,0.6,2.25,2.0555555555555554,2.25,2.111111111111111,2.0,2.5,1.8888888888888888,1.5,1.25,1.75,1.5,1.0,1.0,0.4904991420917213,0.7676972933935563,0.010347884219611678,-0.23056455694121786,0.00675059338670685,-0.6688351763981455,0.024509001237879288,0.17606914088061618,0.015219801609383136,-0.763308387856272,3.8260152421135524e+44,5.677258976551237,,,,,,,,,,,,,,,,,,,,,,
1,240801_092751,LEARNING,1.0,2,3.0,303.0,,,,,,,,,,2.0,2.0,2.0,cue1.png,Hard,B,,,,,,,,,,,,,,,,,,,,,,,,,,,52,26,Male,1.1428571428571428,1.0,0.6,2.25,2.0555555555555554,2.25,2.111111111111111,2.0,2.5,1.8888888888888888,1.5,1.25,1.75,1.5,0.6625000000000001,0.575187969924812,0.5820576200106492,1.4165805565553702,0.009833830776379523,-0.28181106641990844,0.011252448471992246,-0.1482337550548194,0.02396797893709718,0.127505560444797,0.022538216939272285,0.10360552409359267,6.678022901679667e+43,0.8673456402541211,2.4229319614907154e+44,3.3599445279762596,,,,,,,,,,,,,,,,,,,,
2,240801_092821,LEARNING,1.0,3,1.0,303.0,,,,,,,,,,3.0,3.0,3.0,cue2.png,Easy,B,,,,,,,,,,,,,,,,,,,,,,,,,,,52,26,Male,1.1428571428571428,1.0,0.6,2.25,2.0555555555555554,2.25,2.111111111111111,2.0,2.5,1.8888888888888888,1.5,1.25,1.75,1.5,0.95,0.8421052631578947,0.4610529250130639,0.5590092738888073,,,0.015205258886778504,0.3088752991580999,0.026404430216778185,0.3462078163919067,0.031968078582855775,1.2206339896956901,-5.034007099240916e+43,-0.9163798448128668,-2.1733558875006613e+44,-2.8812544830151756,,,,,,,,,,,,,,,,,,,,
3,240801_092852,LEARNING,1.0,4,3.0,303.0,,,,,,,,,,4.0,4.0,4.0,cue1.png,Hard,B,,,,,,,,,,,,,,,,,,,,,,,,,,,52,26,Male,1.1428571428571428,1.0,0.6,2.25,2.0555555555555554,2.25,2.111111111111111,2.0,2.5,1.8888888888888888,1.5,1.25,1.75,1.5,0.9583333333333334,0.9473684210526316,0.5674921555522209,1.3133537847470709,0.010220623871816667,-0.24325127017191434,0.011038840641825384,-0.1729356918982356,0.020097702272066493,-0.2199006219979265,0.02696407282376872,0.6278769497511534,-5.836663077110213e+43,-1.0386232068392869,-2.421582804156251e+44,-3.218316398550402,,,,,,,,,,,,,,,,,,,,
4,240801_092925,LEARNING,1.0,5,3.0,303.0,,,,,,,,,,5.0,5.0,5.0,cue1.png,Hard,B,,,,,,,,,,,,,,,,,,,,,,,,,,,52,26,Male,1.1428571428571428,1.0,0.6,2.25,2.0555555555555554,2.25,2.111111111111111,2.0,2.5,1.8888888888888888,1.5,1.25,1.75,1.5,0.0535714285714285,0.6090225563909775,0.5954444647205117,1.5114543429726988,0.007254945540506579,-0.5389027529450643,0.012441725901696177,-0.010703890466529625,0.019565807308636475,-0.2676449086984923,,,,,,,,,,,,,,,,,,,,,,,,,,
5,240801_092956,LEARNING,1.0,6,1.0,303.0,,,,,,,,,,6.0,6.0,6.0,cue2.png,Easy,B,,,,,,,,,,,,,,,,,,,,,,,,,,,52,26,Male,1.1428571428571428,1.0,0.6,2.25,2.0555555555555554,2.25,2.111111111111111,2.0,2.5,1.8888888888888888,1.5,1.25,1.75,1.5,1.0,0.9473684210526316,0.5792739222201312,1.3968522370482779,0.004815206751845505,-0.7821227889252226,0.006231937344935622,-0.7288133559306142,0.027296602616875512,0.42629155055981455,0.024177160047443646,0.2977489987834373,-1.1706344857627563e+43,-0.32799369924893057,-4.737351707044443e+43,-0.5733765856252454,,,,,,,,,,,,,,,,,,,,
6,240801_093028,LEARNING,1.0,7,3.0,303.0,,,,,,,,,,7.0,7.0,7.0,cue1.png,Hard,B,,,,,,,,,,,,,,,,,,,,,,,,,,,52,26,Male,1.1428571428571428,1.0,0.6,2.25,2.0555555555555554,2.25,2.111111111111111,2.0,2.5,1.8888888888888888,1.5,1.25,1.75,1.5,0.6025641025641025,0.7165991902834008,0.6043449277834346,1.5745327344793214,0.017914489383038287,0.5237579912961092,,,,,,,,,,,,,,,,,,,,,,,,,,,,,,
7,240801_093058,LEARNING,1.0,8,3.0,303.0,,,,,,,,,,8.0,8.0,8.0,cue1.png,Hard,B,,,,,,,,,,,,,,,,,,,,,,,,,,,52,26,Male,1.1428571428571428,1.0,0.6,2.25,2.0555555555555554,2.25,2.111111111111111,2.0,2.5,1.8888888888888888,1.5,1.25,1.75,1.5,0.8071428571428572,0.8045112781954888,0.4751684111025598,0.6590470080566642,0.014058570344223491,0.13935750886913778,,,0.02188328991127416,-0.059621593173217746,0.024225307001852804,0.3034523187938291,,,,,,,,,,,,,,,,,,,,,,,,
8,240801_093129,LEARNING,1.0,9,1.0,303.0,,,,,,,,,,9.0,9.0,9.0,cue2.png,Easy,B,,,,,,,,,,,,,,,,,,,,,,,,,,,52,26,Male,1.1428571428571428,1.0,0.6,2.25,2.0555555555555554,2.25,2.111111111111111,2.0,2.5,1.8888888888888888,1.5,1.25,1.75,1.5,0.9262820512820512,0.7651821862348178,0.552826031249424,1.2094136274635225,0.010131824773791117,-0.2521037423780199,0.01391315051201851,0.15945390649080937,0.015448702578115307,-0.6372070255545224,0.014915520692727995,-0.7993524421902578,,,,,,,,,,,,,,,,,,,,,,,,
9,240801_093200,LEARNING,1.0,10,1.0,303.0,,,,,,,,,,10.0,10.0,10.0,cue2.png,Easy,B,,,,,,,,,,,,,,,,,,,,,,,,,,,52,26,Male,1.1428571428571428,1.0,0.6,2.25,2.0555555555555554,2.25,2.111111111111111,2.0,2.5,1.8888888888888888,1.5,1.25,1.75,1.5,1.0,0.9473684210526316,0.5270803166527508,1.0269514057267803,0.015407895868237376,0.27387313981490363,,,0.016811380758935377,-0.5148894587061218,0.017614029914494334,-0.4796964674439221,2.8116897114975026e+43,0.2785086030755788,,,,,,,,,,,,,,,,,,,,,,
10,240801_093232,LEARNING,1.0,11,3.0,303.0,,,,,,,,,,11.0,11.0,11.0,cue1.png,Hard,B,,,,,,,,,,,,,,,,,,,,,,,,,,,52,26,Male,1.1428571428571428,1.0,0.6,2.25,2.0555555555555554,2.25,2.111111111111111,2.0,2.5,1.8888888888888888,1.5,1.25,1.75,1.5,0.013095238095238,0.7330827067669172,0.620151205557502,1.6865532631469196,0.01906111677739716,0.6380664399742773,0.010149486554046908,-0.2757819615812189,0.017472197625039734,-0.45557280395083216,0.015313127628899914,-0.752253313633363,,,,,,,,,,,,,,,,,,,,,,,,
11,240801_093301,LEARNING,1.0,12,1.0,303.0,,,,,,,,,,12.0,12.0,12.0,cue2.png,Easy,B,,,,,,,,,,,,,,,,,,,,,,,,,,,52,26,Male,1.1428571428571428,1.0,0.6,2.25,2.0555555555555554,2.25,2.111111111111111,2.0,2.5,1.8888888888888888,1.5,1.25,1.75,1.5,0.8071428571428572,0.8045112781954888,0.3979567444314145,0.11184090150585205,,,0.016428945485532514,0.45038429278882935,0.013925169298701632,-0.7739633678614751,0.01786447721117406,-0.45002935565605107,1.1631917003761013e+43,0.027444704307529044,5.621655772148373e+43,0.8332504437976106,,,,,,,,,,,,,,,,,,,,
12,240801_093330,LEARNING,1.0,13,1.0,303.0,,,,,,,,,,13.0,13.0,13.0,cue2.png,Easy,B,,,,,,,,,,,,,,,,,,,,,,,,,,,52,26,Male,1.1428571428571428,1.0,0.6,2.25,2.0555555555555554,2.25,2.111111111111111,2.0,2.5,1.8888888888888888,1.5,1.25,1.75,1.5,1.0,1.0,0.4753208526067043,0.6601273748659309,,,0.023216042256728745,1.2352545649192035,0.014590524922496195,-0.7142393023139717,0.017481083579507912,-0.495444825817595,-5.2234076439189326e+42,-0.2292594889944117,-1.2051139796718067e+43,-0.0937417295206077,,,,,,,,,,,,,,,,,,,,
13,240801_093359,LEARNING,1.0,14,1.0,303.0,,,,,,,,,,14.0,14.0,14.0,cue2.png,Easy,B,,,,,,,,,,,,,,,,,,,,,,,,,,,52,26,Male,1.1428571428571428,1.0,0.6,2.25,2.0555555555555554,2.25,2.111111111111111,2.0,2.5,1.8888888888888888,1.5,1.25,1.75,1.5,0.8535714285714285,0.8233082706766918,0.4397832941168043,0.4082694645788157,0.013156364735804811,0.049415716099790855,0.012791107224129409,0.0296991011011167,0.01570550377022653,-0.6141558771433032,0.01340728804316263,-0.9780124126110709,,,,,,,,,,,,,,,,,,,,,,,,
14,240801_093428,LEARNING,1.0,15,3.0,303.0,,,,,,,,,,15.0,15.0,15.0,cue1.png,Hard,B,,,,,,,,,,,,,,,,,,,,,,,,,,,52,26,Male,1.1428571428571428,1.0,0.6,2.25,2.0555555555555554,2.25,2.111111111111111,2.0,2.5,1.8888888888888888,1.5,1.25,1.75,1.5,0.6625000000000001,0.7857142857142857,0.4631762473696941,0.5740574526138253,0.012290644091630724,-0.03688885355471007,,,0.018202987229595555,-0.3899752127032947,,,-1.170259076407239e+43,-0.3279365249388651,,,,,,,,,,,,,,,,,,,,,,
15,240801_093457,LEARNING,1.0,16,1.0,303.0,,,,,,,,,,16.0,16.0,16.0,cue2.png,Easy,B,,,,,,,,,,,,,,,,,,,,,,,,,,,52,26,Male,1.1428571428571428,1.0,0.6,2.25,2.0555555555555554,2.25,2.111111111111111,2.0,2.5,1.8888888888888888,1.5,1.25,1.75,1.5,1.0,0.9473684210526316,0.4572323333252118,0.5319323929928891,0.007465610449526095,-0.517901354356979,0.007900609394464289,-0.5358455628135168,0.021036105122659486,-0.13566712136385842,0.023138228367794327,0.17468078168252602,,,,,,,,,,,,,,,,,,,,,,,,
16,240801_093526,LEARNING,1.0,17,1.0,303.0,,,,,,,,,,17.0,17.0,17.0,cue2.png,Easy,B,,,,,,,,,,,,,,,,,,,,,,,,,,,52,26,Male,1.1428571428571428,1.0,0.6,2.25,2.0555555555555554,2.25,2.111111111111111,2.0,2.5,1.8888888888888888,1.5,1.25,1.75,1.5,1.0,1.0,0.4368997789416952,0.38783373018556627,0.028278705736606184,1.5569772384288452,0.007937850452244235,-0.5315389498183676,0.06214872769737535,3.554709690180526,0.014622763750460302,-0.8340314067791138,,,,,,,,,,,,,,,,,,,,,,,,
17,240801_093555,LEARNING,1.0,18,3.0,303.0,,,,,,,,,,18.0,18.0,18.0,cue1.png,Hard,B,,,,,,,,,,,,,,,,,,,,,,,,,,,52,26,Male,1.1428571428571428,1.0,0.6,2.25,2.0555555555555554,2.25,2.111111111111111,2.0,2.5,1.8888888888888888,1.5,1.25,1.75,1.5,0.7019230769230769,0.7692307692307692,0.4520296579177834,0.4950605590319407,0.013778753305796301,0.11146226431655509,0.011966147594303273,-0.065700494777062,0.02197361764995687,-0.051513538483490454,0.029241505947915275,0.8976537210686674,,,,,,,,,,,,,,,,,,,,,,,,
18,240801_093623,LEARNING,1.0,19,3.0,303.0,,,,,,,,,,19.0,19.0,19.0,cue1.png,Hard,B,,,,,,,,,,,,,,,,,,,,,,,,,,,52,26,Male,1.1428571428571428,1.0,0.6,2.25,2.0555555555555554,2.25,2.111111111111111,2.0,2.5,1.8888888888888888,1.5,1.25,1.75,1.5,0.8071428571428572,0.8571428571428572,0.440402168419065,0.41265548306520317,0.005710996258753676,-0.6928206238272849,0.008215041638940641,-0.4994841361817256,0.011458765244642666,-0.9953542633816249,0.027468041772702574,0.687575350747497,9.888766444749779e+42,0.000896769609848904,,,,,,,,,,,,,,,,,,,,,,
19,240801_093652,LEARNING,1.0,20,3.0,303.0,,,,,,,,,,20.0,20.0,20.0,cue1.png,Hard,B,,,,,,,,,,,,,,,,,,,,,,,,,,,52,26,Male,1.1428571428571428,1.0,0.6,2.25,2.0555555555555554,2.25,2.111111111111111,2.0,2.5,1.8888888888888888,1.5,1.25,1.75,1.5,0.8071428571428572,0.8571428571428572,0.4596095684376594,0.5487800745198113,0.006077463356828421,-0.6562871468856,0.007132690613999806,-0.6246488674540301,0.019463862705090818,-0.2767957236411116,0.016229672631670532,-0.6436825946985015,8.732307648998993e+42,-0.016715933109051378,3.624457862219403e+43,0.5620552961103702,,,,,,,,,,,,,,,,,,,,
20,240801_093720,LEARNING,1.0,21,1.0,303.0,,,,,,,,,,21.0,21.0,21.0,cue2.png,Easy,B,,,,,,,,,,,,,,,,,,,,,,,,,,,52,26,Male,1.1428571428571428,1.0,0.6,2.25,2.0555555555555554,2.25,2.111111111111111,2.0,2.5,1.8888888888888888,1.5,1.25,1.75,1.5,1.0,1.0,0.3953591420952427,0.09343145741500124,,,,,,,,,4.8206368523028974e+42,-0.07629012211565983,2.247072953554957e+43,0.3750232038623288,,,,,,,,,,,,,,,,,,,,
21,240801_093747,LEARNING,1.0,22,3.0,303.0,,,,,,,,,,22.0,22.0,22.0,cue1.png,Hard,B,,,,,,,,,,,,,,,,,,,,,,,,,,,52,26,Male,1.1428571428571428,1.0,0.6,2.25,2.0555555555555554,2.25,2.111111111111111,2.0,2.5,1.8888888888888888,1.5,1.25,1.75,1.5,0.6625000000000001,0.7857142857142857,0.3793795789640985,-0.019817160344004665,,,0.005472636451079674,-0.8166200749564455,0.013708508747646005,-0.7934113870711239,0.012088219359203118,-1.13426468054012,3.31426359825653e+41,-0.14466015841707283,,,,,,,,,,,,,,,,,,,,,,
22,240801_093812,LEARNING,1.0,23,3.0,303.0,,,,,,,,,,23.0,23.0,23.0,cue1.png,Hard,B,,,,,,,,,,,,,,,,,,,,,,,,,,,52,26,Male,1.1428571428571428,1.0,0.6,2.25,2.0555555555555554,2.25,2.111111111111111,2.0,2.5,1.8888888888888888,1.5,1.25,1.75,1.5,0.1607142857142857,0.6428571428571428,0.2226431315617734,-1.130622623240254,0.009362527757577392,-0.32879574269892947,,,0.015742763728861343,-0.6108113255498085,0.043674264449370045,2.6073078700514007,-4.1736057926989347e+42,-0.2132711563471727,-1.5691939167946046e+43,-0.14317935001235454,,,,,,,,,,,,,,,,,,,,
23,240801_093837,LEARNING,1.0,24,3.0,303.0,,,,,,,,,,24.0,24.0,24.0,cue1.png,Hard,B,,,,,,,,,,,,,,,,,,,,,,,,,,,52,26,Male,1.1428571428571428,1.0,0.6,2.25,2.0555555555555554,2.25,2.111111111111111,2.0,2.5,1.8888888888888888,1.5,1.25,1.75,1.5,0.0535714285714285,0.7142857142857143,0.2726559684379026,-0.7761770980438015,0.007574521751439411,-0.5070438761330336,0.008858272480508715,-0.4250999358846665,0.012241521057022038,-0.9250920490493546,0.02285962812355623,0.141678770083617,-6.881470292522711e+42,-0.2545115469375673,-2.807690581739099e+43,-0.31135211060357815,,,,,,,,,,,,,,,,,,,,
24,240801_093905,LEARNING,1.0,25,1.0,303.0,,,,,,,,,,25.0,25.0,25.0,cue2.png,Easy,B,,,,,,,,,,,,,,,,,,,,,,,,,,,52,26,Male,1.1428571428571428,1.0,0.6,2.25,2.0555555555555554,2.25,2.111111111111111,2.0,2.5,1.8888888888888888,1.5,1.25,1.75,1.5,1.0,1.0,0.3985368789443256,0.11595236758050521,0.006308360222125896,-0.6332688040423576,0.02783993491824955,1.7699685986060743,0.009957687973698379,-1.1300948954821888,,,-7.555902018991573e+42,-0.26478304605723896,,,,,,,,,,,,,,,,,,,,,,
25,240801_093932,LEARNING,1.0,26,1.0,303.0,,,,,,,,,,26.0,26.0,26.0,cue2.png,Easy,B,,,,,,,,,,,,,,,,,,,,,,,,,,,52,26,Male,1.1428571428571428,1.0,0.6,2.25,2.0555555555555554,2.25,2.111111111111111,2.0,2.5,1.8888888888888888,1.5,1.25,1.75,1.5,1.0,1.0,0.3906915368463255,0.060351714349040304,0.01646376975492786,0.3791342792061029,0.009635205804428717,-0.3352541756237925,0.03330902858456881,0.9659826717472102,0.022977345627430305,0.15562317432802505,-5.898215340833941e+42,-0.23953671409042027,-2.5374442983396345e+43,-0.2746559572709061,,,,,,,,,,,,,,,,,,,,
26,240801_093958,LEARNING,1.0,27,3.0,303.0,,,,,,,,,,27.0,27.0,27.0,cue1.png,Hard,B,,,,,,,,,,,,,,,,,,,,,,,,,,,52,26,Male,1.1428571428571428,1.0,0.6,2.25,2.0555555555555554,2.25,2.111111111111111,2.0,2.5,1.8888888888888888,1.5,1.25,1.75,1.5,0.0535714285714285,0.7142857142857143,0.2880489526341032,-0.6670856185647176,0.007000880234139504,-0.5642307811926384,,,0.01641746987405894,-0.5502479326813855,0.016496791232351718,-0.6120406584824262,,,6.19862608756402e+42,0.15406786058763855,,,,,,,,,,,,,,,,,,,,
27,240801_094026,LEARNING,1.0,28,1.0,303.0,,,,,,,,,,28.0,28.0,28.0,cue2.png,Easy,B,,,,,,,,,,,,,,,,,,,,,,,,,,,52,26,Male,1.1428571428571428,1.0,0.6,2.25,2.0555555555555554,2.25,2.111111111111111,2.0,2.5,1.8888888888888888,1.5,1.25,1.75,1.5,1.0,1.0,0.4205003842086482,0.2716097276668623,,,0.009001382781911555,-0.4085504413079286,0.03491731553016972,1.1103467253798593,0.017067572593491856,-0.5444278925557402,5.036846634080166e+41,-0.14203668899213012,1.540088357281176e+42,0.09081059291827828,,,,,,,,,,,,,,,,,,,,
28,240801_094054,LEARNING,1.0,29,1.0,303.0,,,,,,,,,,29.0,29.0,29.0,cue2.png,Easy,B,,,,,,,,,,,,,,,,,,,,,,,,,,,52,26,Male,1.1428571428571428,1.0,0.6,2.25,2.0555555555555554,2.25,2.111111111111111,2.0,2.5,1.8888888888888888,1.5,1.25,1.75,1.5,1.0,1.0,0.4065629105500288,0.17283358379250935,,,,,0.013465519946480237,-0.8152226990509781,0.020994946278022234,-0.07920492678061326,4.071868485569693e+42,-0.08769375767712116,1.627531452448356e+43,0.2908970148373489,,,,,,,,,,,,,,,,,,,,
29,240801_094116,LEARNING,1.0,30,3.0,303.0,,,,,,,,,,30.0,30.0,30.0,cue1.png,Hard,B,,,,,,,,,,,,,,,,,,,,,,,,,,,52,26,Male,1.1428571428571428,1.0,0.6,2.25,2.0555555555555554,2.25,2.111111111111111,2.0,2.5,1.8888888888888888,1.5,1.25,1.75,1.5,0.5256410256410255,0.6923076923076923,0.1152532947261964,-1.8917041674090687,,,0.00798576689433372,-0.5259978190211909,,,,,5.834284267674291e+42,-0.06085241637610725,2.4069858889793115e+43,0.3967374325443778,,,,,,,,,,,,,,,,,,,,
30,240801_094140,LEARNING,1.0,31,3.0,303.0,,,,,,,,,,31.0,31.0,31.0,cue1.png,Hard,B,,,,,,,,,,,,,,,,,,,,,,,,,,,52,26,Male,1.1428571428571428,1.0,0.6,2.25,2.0555555555555554,2.25,2.111111111111111,2.0,2.5,1.8888888888888888,1.5,1.25,1.75,1.5,0.0535714285714285,0.7142857142857143,0.1738567631630423,-1.4763760547511404,0.008899129476343554,-0.374992387667095,0.008878707190719702,-0.42273683467882117,0.027283230376034813,0.4250912231560538,0.022700256592715184,0.12280017532956075,,,2.6680400521495854e+43,0.43218540792196536,,,,,,,,,,,,,,,,,,,,
31,240801_094208,LEARNING,1.0,32,1.0,303.0,,,,,,,,,,32.0,32.0,32.0,cue2.png,Easy,B,,,,,,,,,,,,,,,,,,,,,,,,,,,52,26,Male,1.1428571428571428,1.0,0.6,2.25,2.0555555555555554,2.25,2.111111111111111,2.0,2.5,1.8888888888888888,1.5,1.25,1.75,1.5,1.0,1.0,0.4375316789435026,0.39231206298974214,0.019647341897530833,0.6965078171717244,0.00877881411694488,-0.4342886228204488,,,0.014532302298103626,-0.8447471543840506,5.298614556388968e+42,-0.06901058977152208,2.2100141936762886e+43,0.3699910756949411,,,,,,,,,,,,,,,,,,,,
32,240801_094236,LEARNING,1.0,33,1.0,303.0,,,,,,,,,,33.0,33.0,33.0,cue2.png,Easy,B,,,,,,,,,,,,,,,,,,,,,,,,,,,52,26,Male,1.1428571428571428,1.0,0.6,2.25,2.0555555555555554,2.25,2.111111111111111,2.0,2.5,1.8888888888888888,1.5,1.25,1.75,1.5,0.9262820512820512,0.9230769230769232,0.413060105264824,0.2188797938623957,0.061014625651062325,4.820454319025312,0.00733769916991444,-0.6009413638638885,0.022862518472026423,0.02827653026161658,0.024317417993715562,0.3143634650857321,,,1.2487990210039576e+43,0.23946976410326212,,,,,,,,,,,,,,,,,,,,
33,240801_094304,LEARNING,1.0,34,1.0,303.0,,,,,,,,,,34.0,34.0,34.0,cue2.png,Easy,B,,,,,,,,,,,,,,,,,,,,,,,,,,,52,26,Male,1.1428571428571428,1.0,0.6,2.25,2.0555555555555554,2.25,2.111111111111111,2.0,2.5,1.8888888888888888,1.5,1.25,1.75,1.5,1.0,1.0,0.4123214789372134,0.21364508187710474,0.009123837290409852,-0.35259103762247745,0.012951597937015225,0.048258493097952264,0.016315065557059135,-0.5594400127091514,0.01680594240279053,-0.57541969090022,-3.922541459866853e+41,-0.15568170943053652,-2.7080909123416864e+42,0.03312549327443683,,,,,,,,,,,,,,,,,,,,
34,240801_094327,LEARNING,1.0,35,3.0,303.0,,,,,,,,,,35.0,35.0,35.0,cue1.png,Hard,B,,,,,,,,,,,,,,,,,,,,,,,,,,,52,26,Male,1.1428571428571428,1.0,0.6,2.25,2.0555555555555554,2.25,2.111111111111111,2.0,2.5,1.8888888888888888,1.5,1.25,1.75,1.5,0.0871794871794871,0.6153846153846154,0.1638859947346837,-1.5470397977608588,0.005183453262795144,-0.7454119205080785,,,0.03274108935219074,0.9150029569473253,0.0223428689369473,0.08046528221698009,-3.5736932190518686e+42,-0.2041345733095414,,,,,,,,,,,,,,,,,,,,,,
35,240801_094354,LEARNING,1.0,36,3.0,303.0,,,,,,,,,,36.0,36.0,36.0,cue1.png,Hard,B,,,,,,,,,,,,,,,,,,,,,,,,,,,52,26,Male,1.1428571428571428,1.0,0.6,2.25,2.0555555555555554,2.25,2.111111111111111,2.0,2.5,1.8888888888888888,1.5,1.25,1.75,1.5,0.0535714285714285,0.6616541353383458,0.317314399994858,-0.45967873049748925,0.006499840083537005,-0.6141799823216338,0.05319044401762831,4.701540321572108,0.050282245228660136,2.489543106424898,0.02944519374050414,0.921781865363577,-5.375533435553154e+42,-0.23157634313030978,-2.256860441010447e+43,-0.23655608732374053,,,,,,,,,,,,,,,,,,,,
36,240801_094421,LEARNING,1.0,37,1.0,303.0,,,,,,,,,,37.0,37.0,37.0,cue2.png,Easy,B,,,,,,,,,,,,,,,,,,,,,,,,,,,52,26,Male,1.1428571428571428,1.0,0.6,2.25,2.0555555555555554,2.25,2.111111111111111,2.0,2.5,1.8888888888888888,1.5,1.25,1.75,1.5,0.8071428571428572,0.8045112781954888,0.3481677611060958,-0.24101815320941902,0.005581561760258531,-0.7057240803478658,0.009513784215560407,-0.3492955542441796,0.03169271517807323,0.8208981419369442,0.02587294021433272,0.49862519287982615,-5.745737351497523e+42,-0.23721449603368916,-2.3872176365022307e+43,-0.25425700655049166,,,,,,,,,,,,,,,,,,,,
37,240801_094447,LEARNING,1.0,38,3.0,303.0,,,,,,,,,,38.0,38.0,38.0,cue1.png,Hard,B,,,,,,,,,,,,,,,,,,,,,,,,,,,52,26,Male,1.1428571428571428,1.0,0.6,2.25,2.0555555555555554,2.25,2.111111111111111,2.0,2.5,1.8888888888888888,1.5,1.25,1.75,1.5,0.6625000000000001,0.7857142857142857,0.265176710544007,-0.829183279213797,0.008542554602430835,-0.410539698742256,0.007018489382639868,-0.6378552728666498,0.0290692849638831,0.5854121665152194,0.018665720625763174,-0.3551168600330353,-4.1833907748584544e+42,-0.21342018023156753,-1.6971307902345675e+43,-0.16055161898715456,,,,,,,,,,,,,,,,,,,,
38,240801_094512,LEARNING,1.0,39,3.0,303.0,,,,,,,,,,39.0,39.0,39.0,cue1.png,Hard,B,,,,,,,,,,,,,,,,,,,,,,,,,,,52,26,Male,1.1428571428571428,1.0,0.6,2.25,2.0555555555555554,2.25,2.111111111111111,2.0,2.5,1.8888888888888888,1.5,1.25,1.75,1.5,0.0535714285714285,0.7142857142857143,0.2862813263261494,-0.6796129470309176,0.0071672821753454505,-0.5476420027892382,,,0.013857439263021156,-0.780042993471981,,,-1.3243607236906644e+42,-0.1698775598281062,-5.1999931073474443e+42,-0.0007115030711471412,,,,,,,,,,,,,,,,,,,,
39,240801_094535,LEARNING,1.0,40,3.0,303.0,,,,,,,,,,40.0,40.0,40.0,cue1.png,Hard,B,,,,,,,,,,,,,,,,,,,,,,,,,,,52,26,Male,1.1428571428571428,1.0,0.6,2.25,2.0555555555555554,2.25,2.111111111111111,2.0,2.5,1.8888888888888888,1.5,1.25,1.75,1.5,0.8071428571428572,0.8571428571428572,0.1504863684408758,-1.6420041684264992,,,0.021015330957789423,0.9807609376278894,,,,,2.23863956004281e+42,-0.11561357306495101,8.338300458357985e+42,0.18312203213995656,,,,,,,,,,,,,,,,,,,,
40,240801_094603,LEARNING,1.0,41,1.0,303.0,,,,,,,,,,41.0,41.0,41.0,cue2.png,Easy,B,,,,,,,,,,,,,,,,,,,,,,,,,,,52,26,Male,1.1428571428571428,1.0,0.6,2.25,2.0555555555555554,2.25,2.111111111111111,2.0,2.5,1.8888888888888888,1.5,1.25,1.75,1.5,0.9178571428571428,0.9285714285714286,0.4066521684014189,0.17346616230614617,0.012376613534589645,-0.02831847253406888,0.006495456213615244,-0.6983396301028315,,,0.05301662539660989,3.7139713088620008,4.7951860543511104e+42,-0.07667773414293712,2.0607900209354949e+43,0.3497282507822187,,,,,,,,,,,,,,,,,,,,
41,240801_094624,LEARNING,1.0,42,3.0,303.0,,,,,,,,,,42.0,42.0,42.0,cue1.png,Hard,B,,,,,,,,,,,,,,,,,,,,,,,,,,,52,26,Male,1.1428571428571428,1.0,0.6,2.25,2.0555555555555554,2.25,2.111111111111111,2.0,2.5,1.8888888888888888,1.5,1.25,1.75,1.5,0.5256410256410255,0.6923076923076923,0.0648605894714005,-2.2488418543662214,0.006406330267101147,-0.6235020708270632,0.010149361785762707,-0.2757963899768165,0.014090213025980071,-0.7591486101083712,0.013566871423877224,-0.9591087228611247,5.841540142470739e+42,-0.060741910436574446,2.429224910821311e+43,0.39975722081016635,,,,,,,,,,,,,,,,,,,,
42,240801_094646,LEARNING,1.0,43,3.0,303.0,,,,,,,,,,43.0,43.0,43.0,cue1.png,Hard,B,,,,,,,,,,,,,,,,,,,,,,,,,,,52,26,Male,1.1428571428571428,1.0,0.6,2.25,2.0555555555555554,2.25,2.111111111111111,2.0,2.5,1.8888888888888888,1.5,1.25,1.75,1.5,0.0871794871794871,0.6153846153846154,0.0831374052581132,-2.119312398029139,0.033854621148410306,2.112845904937027,0.025738110258877817,1.5269103738622611,0.048414844556041274,2.3219203251836635,0.027777801272853248,0.7242683789420752,4.8115552734290475e+42,-0.07642843326821544,1.8323168575796182e+43,0.31870437830026144,,,,,,,,,,,,,,,,,,,,
43,240801_094713,LEARNING,1.0,44,1.0,303.0,,,,,,,,,,44.0,44.0,44.0,cue2.png,Easy,B,,,,,,,,,,,,,,,,,,,,,,,,,,,52,26,Male,1.1428571428571428,1.0,0.6,2.25,2.0555555555555554,2.25,2.111111111111111,2.0,2.5,1.8888888888888888,1.5,1.25,1.75,1.5,0.9178571428571428,0.9285714285714286,0.3620643210597336,-0.14253196848467148,,,,,,,,,6.433782484987695e+41,-0.13990917559089086,4.3150350408531595e+42,0.1284909886334073,,,,,,,,,,,,,,,,,,,,
44,240801_094741,LEARNING,1.0,45,1.0,303.0,,,,,,,,,,45.0,45.0,45.0,cue2.png,Easy,B,,,,,,,,,,,,,,,,,,,,,,,,,,,52,26,Male,1.1428571428571428,1.0,0.6,2.25,2.0555555555555554,2.25,2.111111111111111,2.0,2.5,1.8888888888888888,1.5,1.25,1.75,1.5,1.0,1.0,0.3902803526480535,0.05743761452562937,0.014059162800053659,0.1394165713921422,0.0076332457019948115,-0.5667639099567114,0.01906266030211703,-0.31280870340127176,0.01186620936785198,-1.160563208488941,,,-1.1654777964243677e+43,-0.08835961865612656,,,,,,,,,,,,,,,,,,,,
45,240801_094809,LEARNING,1.0,46,1.0,303.0,,,,,,,,,,46.0,46.0,46.0,cue2.png,Easy,B,,,,,,,,,,,,,,,,,,,,,,,,,,,52,26,Male,1.1428571428571428,1.0,0.6,2.25,2.0555555555555554,2.25,2.111111111111111,2.0,2.5,1.8888888888888888,1.5,1.25,1.75,1.5,0.9178571428571428,0.9285714285714286,0.4281547947443629,0.32585723154512336,0.012697187943282142,0.0036399156257131745,0.008973889978554767,-0.41172975122197686,0.01581903548319473,-0.6039649728741501,0.024571256008255854,0.34443222946536234,-6.132431495417772e+42,-0.24310379276006788,-2.532267614095431e+43,-0.27395302660932386,,,,,,,,,,,,,,,,,,,,
46,240801_094833,LEARNING,1.0,47,3.0,303.0,,,,,,,,,,47.0,47.0,47.0,cue1.png,Hard,B,,,,,,,,,,,,,,,,,,,,,,,,,,,52,26,Male,1.1428571428571428,1.0,0.6,2.25,2.0555555555555554,2.25,2.111111111111111,2.0,2.5,1.8888888888888888,1.5,1.25,1.75,1.5,0.0871794871794871,0.6153846153846154,0.18644954210858,-1.3871298846510731,,,,,,,,,-3.951313464790544e+42,-0.20988567585921375,-1.7139009543792892e+43,-0.16282880299548794,,,,,,,,,,,,,,,,,,,,
47,240801_094855,LEARNING,1.0,48,3.0,303.0,,,,,,,,,,48.0,48.0,48.0,cue1.png,Hard,B,,,,,,,,,,,,,,,,,,,,,,,,,,,52,26,Male,1.1428571428571428,1.0,0.6,2.25,2.0555555555555554,2.25,2.111111111111111,2.0,2.5,1.8888888888888888,1.5,1.25,1.75,1.5,0.1346153846153846,0.48582995951417,0.094588677793379,-2.0381561877149177,,,0.010388779125886517,-0.24810980184782694,0.03275108195119342,0.9158999188373024,,,1.7047711637417952e+42,-0.12374431268975655,6.424707709813146e+42,0.1571377736208143,,,,,,,,,,,,,,,,,,,,
48,240801_094923,LEARNING,1.0,49,1.0,303.0,,,,,,,,,,49.0,49.0,49.0,cue2.png,Easy,B,,,,,,,,,,,,,,,,,,,,,,,,,,,52,26,Male,1.1428571428571428,1.0,0.6,2.25,2.0555555555555554,2.25,2.111111111111111,2.0,2.5,1.8888888888888888,1.5,1.25,1.75,1.5,0.8071428571428572,0.8571428571428572,0.3727549736902706,-0.06676634063779116,0.005943891371575627,-0.6696030736602671,0.005953874325379168,-0.7609689896553125,0.008484065372583498,-1.2623711244247462,0.00918778209680806,-1.4778403455121354,,,,,,,,,,,,,,,,,,,,,,,,
49,240801_094950,LEARNING,1.0,50,1.0,303.0,,,,,,,,,,50.0,50.0,50.0,cue2.png,Easy,B,,,,,,,,,,,,,,,,,,,,,,,,,,,52,26,Male,1.1428571428571428,1.0,0.6,2.25,2.0555555555555554,2.25,2.111111111111111,2.0,2.5,1.8888888888888888,1.5,1.25,1.75,1.5,0.8071428571428572,0.8571428571428572,0.3843316579004749,0.015278673626893046,0.011593267651375574,-0.10641101866471235,0.020920240411972664,0.9697645211794068,,,,,-2.2444461167858597e+42,-0.18389032929653118,-5.251026849506731e+42,-0.0014044791239016022,,,,,,,,,,,,,,,,,,,,
0,240801_095102,TrueCHOICE,9.0,1,1.0,303.0,,,,,,,,,,,1.0,1.0,,,B,,,,,,True,cue2.png,Easy,cue1.png,Hard,Left,Easy,Easy,0.0169080999912694,,,,,,,,,,,,,52,26,Male,1.1428571428571428,1.0,0.6,2.25,2.0555555555555554,2.25,2.111111111111111,2.0,2.5,1.8888888888888888,1.5,1.25,1.75,1.5,1.0,1.0,0.3724894421175122,-1.1688567703190422,,,,,,,,,,,,,0.005849098781532598,-0.6317733473359906,,,23456359.40299557,-0.39025481694832137,,,,,,,,,,,,,,
1,240801_095128,TrueCHOICE,9.0,2,1.0,303.0,,,,,,,,,,,2.0,2.0,,,B,,,,,,True,cue2.png,Easy,cue1.png,Hard,Left,Easy,Easy,0.0150874000973999,,,,,,,,,,,,,52,26,Male,1.1428571428571428,1.0,0.6,2.25,2.0555555555555554,2.25,2.111111111111111,2.0,2.5,1.8888888888888888,1.5,1.25,1.75,1.5,1.0,1.0,0.3849159210344384,-0.683322612124647,,,,,,,,,,,,,0.004730783257941235,-1.3828979011325377,0.009252987478450957,-0.8078399715343003,6123476.311968048,-0.4139688522258779,,,,,,,,,,,,,,
2,240801_095153,TrueCHOICE,9.0,3,1.0,303.0,,,,,,,,,,,3.0,3.0,,,B,,,,,,True,cue1.png,Hard,cue2.png,Easy,Right,Easy,Easy,0.0165163999190554,,,,,,,,,,,,,52,26,Male,1.1428571428571428,1.0,0.6,2.25,2.0555555555555554,2.25,2.111111111111111,2.0,2.5,1.8888888888888888,1.5,1.25,1.75,1.5,0.9178571428571428,0.9285714285714286,0.3846200526214057,-0.6948829440431658,,,,,,,,,,,,,,,,,3744053.0630965964,-0.4172242671829652,,,,,,,,,,,,,,
3,240801_095220,TrueCHOICE,9.0,4,1.0,303.0,,,,,,,,,,,4.0,4.0,,,B,,,,,,True,cue2.png,Easy,cue1.png,Hard,Left,Easy,Easy,0.0163542000809684,,,,,,,,,,,,,52,26,Male,1.1428571428571428,1.0,0.6,2.25,2.0555555555555554,2.25,2.111111111111111,2.0,2.5,1.8888888888888888,1.5,1.25,1.75,1.5,1.0,1.0,0.439324999987883,1.4425785803531161,,,,,,,,,,,,,0.007010827254368695,0.14850982175521354,0.010767296435651616,-0.3175123740973975,247563.09355196657,-0.4220080002786049,,,,,,,,,,,,,,
4,240801_095246,TrueCHOICE,9.0,5,1.0,303.0,,,,,,,,,,,5.0,5.0,,,B,,,,,,True,cue1.png,Hard,cue2.png,Easy,Right,Easy,Easy,0.0166157999774441,,,,,,,,,,,,,52,26,Male,1.1428571428571428,1.0,0.6,2.25,2.0555555555555554,2.25,2.111111111111111,2.0,2.5,1.8888888888888888,1.5,1.25,1.75,1.5,0.9178571428571428,0.9285714285714286,0.4215427368425911,0.7477803012299562,,,,,,,,,,,,,0.008878733303589724,1.403102169046719,0.016834056503918792,1.646881928897807,,,,,,,,,,,,,,,,
5,240801_095312,TrueCHOICE,9.0,6,1.0,303.0,,,,,,,,,,,6.0,6.0,,,B,,,,,,True,cue1.png,Hard,cue2.png,Easy,Right,Easy,Easy,0.0166321999859064,,,,,,,,,,,,,52,26,Male,1.1428571428571428,1.0,0.6,2.25,2.0555555555555554,2.25,2.111111111111111,2.0,2.5,1.8888888888888888,1.5,1.25,1.75,1.5,1.0,1.0,0.4474408947372515,1.7596872441566274,,,,,,,,,,,,,,,0.014002781171832873,0.730125526802444,,,,,,,,,,,,,,,,
6,240801_095338,TrueCHOICE,9.0,7,1.0,303.0,,,,,,,,,,,7.0,7.0,,,B,,,,,,True,cue2.png,Easy,cue1.png,Hard,Left,Easy,Easy,0.0154079999774694,,,,,,,,,,,,,52,26,Male,1.1428571428571428,1.0,0.6,2.25,2.0555555555555554,2.25,2.111111111111111,2.0,2.5,1.8888888888888888,1.5,1.25,1.75,1.5,1.0,1.0,0.3732116052599035,-1.1406400183522112,,,,,,,,,,,,,,,0.008225963202799062,-1.1403866048981288,,,,,,,,,,,,,,,,
7,240801_095403,TrueCHOICE,9.0,8,1.0,303.0,,,,,,,,,,,8.0,8.0,,,B,,,,,,True,cue1.png,Hard,cue2.png,Easy,Right,Easy,Easy,0.0156149000395089,,,,,,,,,,,,,52,26,Male,1.1428571428571428,1.0,0.6,2.25,2.0555555555555554,2.25,2.111111111111111,2.0,2.5,1.8888888888888888,1.5,1.25,1.75,1.5,1.0,1.0,0.3962108263145446,-0.24200191591424103,,,,,,,,,,,,,0.005166441026632733,-1.090285270606295,0.007818053334819344,-1.2724663001190004,27910280.913624436,-0.3841611710573388,,,,,,,,,,,,,,
8,240801_095429,TrueCHOICE,9.0,9,1.0,303.0,,,,,,,,,,,9.0,9.0,,,B,,,,,,True,cue2.png,Easy,cue1.png,Hard,Left,Easy,Easy,0.0167848999844864,,,,,,,,,,,,,52,26,Male,1.1428571428571428,1.0,0.6,2.25,2.0555555555555554,2.25,2.111111111111111,2.0,2.5,1.8888888888888888,1.5,1.25,1.75,1.5,1.0,1.0,0.4160148000136311,0.5317897400465319,,,,,,,,,,,,,0.008525140243476583,1.165608882134172,0.01214705476581713,0.12924823169353955,2098883740.175701,2.4492472938763896,,,,,,,,,,,,,,
9,240801_095455,TrueCHOICE,9.0,10,1.0,303.0,,,,,,,,,,,10.0,10.0,,,B,,,,,,True,cue1.png,Hard,cue2.png,Easy,Right,Easy,Easy,0.0156520999735221,,,,,,,,,,,,,52,26,Male,1.1428571428571428,1.0,0.6,2.25,2.0555555555555554,2.25,2.111111111111111,2.0,2.5,1.8888888888888888,1.5,1.25,1.75,1.5,0.8071428571428572,0.8571428571428572,0.388273547385133,-0.5521316050329071,,,,,,,,,,,,,0.0073669998115029126,0.387735646138718,0.014934922956810488,1.031949563255037,523712.1111164196,-0.42163018618328135,,,,,,,,,,,,,,
0,240801_095615,FalseCHOICE,9.0,1,2.0,303.0,,,,,,,,,,,1.0,1.0,,,B,,,,,,False,cue2.png,Easy,cue1.png,Hard,Right,Hard,Mid,0.0160103000234812,,,,,,,,,,,,,52,26,Male,1.1428571428571428,1.0,0.6,2.25,2.0555555555555554,2.25,2.111111111111111,2.0,2.5,1.8888888888888888,1.5,1.25,1.75,1.5,0.9178571428571428,0.9285714285714286,0.4368702842192234,1.207409466220049,,,,,,,,,,,,,,,,,,,0.0058282578708168924,-0.7899743209113277,0.007730186525439246,-1.1563506201156502,1.167134229173817e+45,-0.1625180712609246,,,,,,,,
1,240801_095642,FalseCHOICE,9.0,2,2.0,303.0,,,,,,,,,,,2.0,2.0,,,B,,,,,,False,cue1.png,Hard,cue2.png,Easy,Right,Easy,Mid,0.0163801999296993,,,,,,,,,,,,,52,26,Male,1.1428571428571428,1.0,0.6,2.25,2.0555555555555554,2.25,2.111111111111111,2.0,2.5,1.8888888888888888,1.5,1.25,1.75,1.5,0.8269230769230769,0.8461538461538461,0.4532821999899553,1.342211067258225,,,,,,,,,,,,,,,,,,,,,0.011135648116049422,-0.7433159099045287,,,,,,,,,,
2,240801_095708,FalseCHOICE,9.0,3,2.0,303.0,,,,,,,,,,,3.0,3.0,,,B,,,,,,False,cue1.png,Hard,cue2.png,Easy,Left,Hard,Mid,0.0138430999359115,,,,,,,,,,,,,52,26,Male,1.1428571428571428,1.0,0.6,2.25,2.0555555555555554,2.25,2.111111111111111,2.0,2.5,1.8888888888888888,1.5,1.25,1.75,1.5,0.8071428571428572,0.8045112781954888,0.3847076111059222,0.778963942349897,,,,,,,,,,,,,,,,,,,0.011059575153806107,0.12748984523350237,0.01015914433783975,-0.8617521172501033,-1.1172341229495422e+44,-0.1646246557368789,,,,,,,,
3,240801_095734,FalseCHOICE,9.0,4,2.0,303.0,,,,,,,,,,,4.0,4.0,,,B,,,,,,False,cue1.png,Hard,cue2.png,Easy,Right,Easy,Mid,0.0150574999861419,,,,,,,,,,,,,52,26,Male,1.1428571428571428,1.0,0.6,2.25,2.0555555555555554,2.25,2.111111111111111,2.0,2.5,1.8888888888888888,1.5,1.25,1.75,1.5,1.0,1.0,0.4366206684162056,1.2053592113709937,,,,,,,,,,,,,,,,,,,0.012463107202419468,0.3736401532688823,0.02073739056933667,0.42124073130097,-1.308859805196018e+44,-0.16465622107099626,,,,,,,,
4,240801_095801,FalseCHOICE,9.0,5,2.0,303.0,,,,,,,,,,,5.0,5.0,,,B,,,,,,False,cue2.png,Easy,cue1.png,Hard,Right,Hard,Mid,0.0179570999462157,,,,,,,,,,,,,52,26,Male,1.1428571428571428,1.0,0.6,2.25,2.0555555555555554,2.25,2.111111111111111,2.0,2.5,1.8888888888888888,1.5,1.25,1.75,1.5,0.8269230769230769,0.8461538461538461,0.3914846473704337,0.8346280921976017,,,,,,,,,,,,,,,,,,,0.008496748355669569,-0.32197663216249534,0.01888714964153542,0.19683246678191055,3.792529184583887e+48,6.082762231264907,,,,,,,,
5,240801_095827,FalseCHOICE,9.0,6,2.0,303.0,,,,,,,,,,,6.0,6.0,,,B,,,,,,False,cue1.png,Hard,cue2.png,Easy,Left,Hard,Mid,0.016262000077404,,,,,,,,,,,,,52,26,Male,1.1428571428571428,1.0,0.6,2.25,2.0555555555555554,2.25,2.111111111111111,2.0,2.5,1.8888888888888888,1.5,1.25,1.75,1.5,0.9178571428571428,0.9285714285714286,0.4292802210456054,1.1450674043865827,,,,,,,,,,,,,,,,,,,0.008322945903290342,-0.35245796476385466,0.018900598035930482,0.19846356833275014,-1.8044577396679072e+43,-0.164470344285062,,,,,,,,
6,240801_095854,FalseCHOICE,9.0,7,2.0,303.0,,,,,,,,,,,7.0,7.0,,,B,,,,,,False,cue1.png,Hard,cue2.png,Easy,Right,Easy,Mid,0.0150804000440984,,,,,,,,,,,,,52,26,Male,1.1428571428571428,1.0,0.6,2.25,2.0555555555555554,2.25,2.111111111111111,2.0,2.5,1.8888888888888888,1.5,1.25,1.75,1.5,0.7019230769230769,0.7692307692307692,0.3607964631549916,0.5825663327427149,,,,,,,,,,,,,,,,,,,0.032814481505039815,3.9428476099012526,0.016983656167530288,-0.03403458442555925,,,,,,,,,,
7,240801_095920,FalseCHOICE,9.0,8,2.0,303.0,,,,,,,,,,,8.0,8.0,,,B,,,,,,False,cue2.png,Easy,cue1.png,Hard,Right,Hard,Mid,0.0167545999865978,,,,,,,,,,,,,52,26,Male,1.1428571428571428,1.0,0.6,2.25,2.0555555555555554,2.25,2.111111111111111,2.0,2.5,1.8888888888888888,1.5,1.25,1.75,1.5,0.8071428571428572,0.8571428571428572,0.3995544473689638,0.9009105405757302,,,,,,,,,,,,,,,,,,,0.005998088940044189,-0.7601894862539519,0.011930284355641047,-0.6469376832794047,2.702426355040962e+43,-0.16439610512222652,,,,,,,,
8,240801_095946,FalseCHOICE,9.0,9,2.0,303.0,,,,,,,,,,,9.0,9.0,,,B,,,,,,False,cue2.png,Easy,cue1.png,Hard,Left,Easy,Mid,0.0165534999687224,,,,,,,,,,,,,52,26,Male,1.1428571428571428,1.0,0.6,2.25,2.0555555555555554,2.25,2.111111111111111,2.0,2.5,1.8888888888888888,1.5,1.25,1.75,1.5,0.6625000000000001,0.7857142857142857,0.3845284368328162,0.7774922690110282,,,,,,,,,,,,,,,,,,,0.008404470811135876,-0.3381601927973648,0.012467182343588868,-0.581819490351782,,,,,,,,,,
9,240801_100012,FalseCHOICE,9.0,10,2.0,303.0,,,,,,,,,,,10.0,10.0,,,B,,,,,,False,cue1.png,Hard,cue2.png,Easy,Right,Easy,Mid,0.0165768999140709,,,,,,,,,,,,,52,26,Male,1.1428571428571428,1.0,0.6,2.25,2.0555555555555554,2.25,2.111111111111111,2.0,2.5,1.8888888888888888,1.5,1.25,1.75,1.5,0.7019230769230769,0.7692307692307692,0.3957567420959669,0.8697175489577702,,,,,,,,,,,,,,,,,,,0.009775196965040922,-0.09776335586783236,,,5.155464630254307e+43,-0.1643556977134429,,,,,,,,
10,240801_100036,FalseCHOICE,9.0,11,2.0,303.0,,,,,,,,,,,11.0,11.0,,,B,,,,,,False,cue2.png,Easy,cue1.png,Hard,Left,Easy,Mid,0.0139439000049605,,,,,,,,,,,,,52,26,Male,1.1428571428571428,1.0,0.6,2.25,2.0555555555555554,2.25,2.111111111111111,2.0,2.5,1.8888888888888888,1.5,1.25,1.75,1.5,0.6625000000000001,0.7857142857142857,0.3668450631666928,0.6322473679738927,,,,,,,,,,,,,,,,,,,,,,,,,,,,,,,,
11,240801_100103,FalseCHOICE,9.0,12,2.0,303.0,,,,,,,,,,,12.0,12.0,,,B,,,,,,False,cue1.png,Hard,cue2.png,Easy,Right,Easy,Mid,0.0165090999798849,,,,,,,,,,,,,52,26,Male,1.1428571428571428,1.0,0.6,2.25,2.0555555555555554,2.25,2.111111111111111,2.0,2.5,1.8888888888888888,1.5,1.25,1.75,1.5,0.8269230769230769,0.8461538461538461,0.423376084207312,1.0965729379471574,,,,,,,,,,,,,,,,,,,0.008359384096407534,-0.34606746412020295,0.008726984829748687,-1.035452971498912,,,,,,,,,,
12,240801_100130,FalseCHOICE,9.0,13,2.0,303.0,,,,,,,,,,,13.0,13.0,,,B,,,,,,False,cue2.png,Easy,cue1.png,Hard,Right,Hard,Mid,0.0153524000197649,,,,,,,,,,,,,52,26,Male,1.1428571428571428,1.0,0.6,2.25,2.0555555555555554,2.25,2.111111111111111,2.0,2.5,1.8888888888888888,1.5,1.25,1.75,1.5,0.9178571428571428,0.9285714285714286,0.4733447263225619,1.506997476613855,,,,,,,,,,,,,,,,,,,0.0054741254614374315,-0.8520817745602745,0.008799906148661735,-1.026608638645912,-2.2803707925634937e+43,-0.16447818371156753,,,,,,,,
13,240801_100155,FalseCHOICE,9.0,14,2.0,303.0,,,,,,,,,,,14.0,14.0,,,B,,,,,,False,cue1.png,Hard,cue2.png,Easy,Right,Easy,Mid,0.0165075999684631,,,,,,,,,,,,,52,26,Male,1.1428571428571428,1.0,0.6,2.25,2.0555555555555554,2.25,2.111111111111111,2.0,2.5,1.8888888888888888,1.5,1.25,1.75,1.5,0.8071428571428572,0.8571428571428572,0.346726768423411,0.46700289685683355,,,,,,,,,,,,,,,,,,,0.006276849741424704,-0.7113006438539551,0.00817822727826174,-1.1020095630868278,-2.385949057319075e+43,-0.1644799228381624,,,,,,,,
14,240801_100220,FalseCHOICE,9.0,15,2.0,303.0,,,,,,,,,,,15.0,15.0,,,B,,,,,,False,cue2.png,Easy,cue1.png,Hard,Right,Hard,Mid,0.0165720001095905,,,,,,,,,,,,,52,26,Male,1.1428571428571428,1.0,0.6,2.25,2.0555555555555554,2.25,2.111111111111111,2.0,2.5,1.8888888888888888,1.5,1.25,1.75,1.5,0.7019230769230769,0.7692307692307692,0.3607609999966563,0.5822750510551744,,,,,,,,,,,,,,,,,,,0.008546646881729748,-0.3132254692856951,0.013906181649428523,-0.40728906460265685,-1.4135086159499402e+43,-0.16446390441772876,,,,,,,,
15,240801_100246,FalseCHOICE,9.0,16,2.0,303.0,,,,,,,,,,,16.0,16.0,,,B,,,,,,False,cue2.png,Easy,cue1.png,Hard,Left,Easy,Mid,0.016216899966821,,,,,,,,,,,,,52,26,Male,1.1428571428571428,1.0,0.6,2.25,2.0555555555555554,2.25,2.111111111111111,2.0,2.5,1.8888888888888888,1.5,1.25,1.75,1.5,0.8071428571428572,0.8571428571428572,0.4116392631549388,1.0001708913451404,,,,,,,,,,,,,,,,,,,,,,,,,,,,,,,,
16,240801_100314,FalseCHOICE,9.0,17,2.0,303.0,,,,,,,,,,,17.0,17.0,,,B,,,,,,False,cue1.png,Hard,cue2.png,Easy,Right,Easy,Mid,0.0166292000794783,,,,,,,,,,,,,52,26,Male,1.1428571428571428,1.0,0.6,2.25,2.0555555555555554,2.25,2.111111111111111,2.0,2.5,1.8888888888888888,1.5,1.25,1.75,1.5,0.5256410256410255,0.6396761133603239,0.4304248722360676,1.1544691595052465,,,,,,,,,,,,,,,,,,,0.006653382716187865,-0.6452645972848736,,,,,,,,,,,,
17,240801_100338,FalseCHOICE,9.0,18,2.0,303.0,,,,,,,,,,,18.0,18.0,,,B,,,,,,False,cue1.png,Hard,cue2.png,Easy,Left,Hard,Mid,0.0160579000366851,,,,,,,,,,,,,52,26,Male,1.1428571428571428,1.0,0.6,2.25,2.0555555555555554,2.25,2.111111111111111,2.0,2.5,1.8888888888888888,1.5,1.25,1.75,1.5,0.6625000000000001,0.7857142857142857,0.310158710516254,0.16664595976284807,,,,,,,,,,,,,,,,,,,0.007471825042906342,-0.5017268483392894,,,,,,,,,,,,
18,240801_100402,FalseCHOICE,9.0,19,2.0,303.0,,,,,,,,,,,19.0,19.0,,,B,,,,,,False,cue2.png,Easy,cue1.png,Hard,Right,Hard,Mid,0.0163532000733539,,,,,,,,,,,,,52,26,Male,1.1428571428571428,1.0,0.6,2.25,2.0555555555555554,2.25,2.111111111111111,2.0,2.5,1.8888888888888888,1.5,1.25,1.75,1.5,0.8269230769230769,0.8461538461538461,0.3286348157991214,0.3184020745195451,,,,,,,,,,,,,,,,,,,0.011669883608673229,0.2345252451807699,0.013421429875428596,-0.4660826534219959,1.7752428218319966e+43,-0.16441137805311487,,,,,,,,
19,240801_100425,FalseCHOICE,9.0,20,2.0,303.0,,,,,,,,,,,20.0,20.0,,,B,,,,,,False,cue2.png,Easy,cue1.png,Hard,Right,Hard,Mid,0.0154059999622404,,,,,,,,,,,,,52,26,Male,1.1428571428571428,1.0,0.6,2.25,2.0555555555555554,2.25,2.111111111111111,2.0,2.5,1.8888888888888888,1.5,1.25,1.75,1.5,0.8071428571428572,0.8571428571428572,0.2922192894682092,0.019297977189905866,,,,,,,,,,,,,,,,,,,0.01117381988054251,0.14752599239905256,,,1.2189516111603938e+43,-0.16442054150016724,,,,,,,,
20,240801_100450,FalseCHOICE,9.0,21,2.0,303.0,,,,,,,,,,,21.0,21.0,,,B,,,,,,False,cue2.png,Easy,cue1.png,Hard,Right,Hard,Mid,0.0166579999495297,,,,,,,,,,,,,52,26,Male,1.1428571428571428,1.0,0.6,2.25,2.0555555555555554,2.25,2.111111111111111,2.0,2.5,1.8888888888888888,1.5,1.25,1.75,1.5,0.8071428571428572,0.8571428571428572,0.367764726330183,0.6398011519797426,,,,,,,,,,,,,,,,,,,0.009734846833390286,-0.10483992910667285,0.009368893881308234,-0.9575984099252814,4.8877040874066865e+42,-0.1644325693313798,,,,,,,,
21,240801_100516,FalseCHOICE,9.0,22,2.0,303.0,,,,,,,,,,,22.0,22.0,,,B,,,,,,False,cue1.png,Hard,cue2.png,Easy,Right,Easy,Mid,0.0175731000490486,,,,,,,,,,,,,52,26,Male,1.1428571428571428,1.0,0.6,2.25,2.0555555555555554,2.25,2.111111111111111,2.0,2.5,1.8888888888888888,1.5,1.25,1.75,1.5,0.7019230769230769,0.7692307692307692,0.3946942631584151,0.8609907273086644,,,,,,,,,,,,,,,,,,,0.006154774626776308,-0.7327100780765966,0.007119686211494895,-1.2303957425005494,-4.388511744313161e+42,-0.16444784947799898,,,,,,,,
22,240801_100542,FalseCHOICE,9.0,23,2.0,303.0,,,,,,,,,,,23.0,23.0,,,B,,,,,,False,cue2.png,Easy,cue1.png,Hard,Right,Hard,Mid,0.014456299948506,,,,,,,,,,,,,52,26,Male,1.1428571428571428,1.0,0.6,2.25,2.0555555555555554,2.25,2.111111111111111,2.0,2.5,1.8888888888888888,1.5,1.25,1.75,1.5,0.8071428571428572,0.8571428571428572,0.3791717842196752,0.7334946420097694,,,,,,,,,,,,,,,,,,,0.007495213294386628,-0.49762503583563555,,,-1.0608492176665943e+43,-0.1644580952737738,,,,,,,,
23,240801_100609,FalseCHOICE,9.0,24,2.0,303.0,,,,,,,,,,,24.0,24.0,,,B,,,,,,False,cue1.png,Hard,cue2.png,Easy,Right,Easy,Mid,0.0153352000052109,,,,,,,,,,,,,52,26,Male,1.1428571428571428,1.0,0.6,2.25,2.0555555555555554,2.25,2.111111111111111,2.0,2.5,1.8888888888888888,1.5,1.25,1.75,1.5,0.9178571428571428,0.9285714285714286,0.3717319684127639,0.6723866582612003,,,,,,,,,,,,,,,,,,,,,,,-1.410964829631098e+43,-0.16446386251548262,,,,,,,,
24,240801_100634,FalseCHOICE,9.0,25,2.0,303.0,,,,,,,,,,,25.0,25.0,,,B,,,,,,False,cue1.png,Hard,cue2.png,Easy,Right,Easy,Mid,0.0167447000276297,,,,,,,,,,,,,52,26,Male,1.1428571428571428,1.0,0.6,2.25,2.0555555555555554,2.25,2.111111111111111,2.0,2.5,1.8888888888888888,1.5,1.25,1.75,1.5,0.9178571428571428,0.9285714285714286,0.387808710532753,0.8044352629169241,,,,,,,,,,,,,,,,,,,0.007068755205569823,-0.572416908262165,0.02283431442005152,0.6755681732556487,-1.3201828131946047e+43,-0.16446236711849455,,,,,,,,
25,240801_100654,FalseCHOICE,9.0,26,2.0,303.0,,,,,,,,,,,26.0,26.0,,,B,,,,,,False,cue2.png,Easy,cue1.png,Hard,Right,Hard,Mid,0.0168406999437138,,,,,,,,,,,,,52,26,Male,1.1428571428571428,1.0,0.6,2.25,2.0555555555555554,2.25,2.111111111111111,2.0,2.5,1.8888888888888888,1.5,1.25,1.75,1.5,0.8071428571428572,0.8571428571428572,0.1085417473590687,-1.4893636011996723,,,,,,,,,,,,,,,,,,,,,0.018672541468861784,0.17080350652183848,-8.648437387889787e+42,-0.1644548665946338,,,,,,,,
26,240801_100717,FalseCHOICE,9.0,27,2.0,303.0,,,,,,,,,,,27.0,27.0,,,B,,,,,,False,cue2.png,Easy,cue1.png,Hard,Right,Hard,Mid,0.0169447000371292,,,,,,,,,,,,,52,26,Male,1.1428571428571428,1.0,0.6,2.25,2.0555555555555554,2.25,2.111111111111111,2.0,2.5,1.8888888888888888,1.5,1.25,1.75,1.5,0.8269230769230769,0.8461538461538461,0.2825344105398184,-0.060250151355586375,,,,,,,,,,,,,,,,,,,0.0073851872763921154,-0.5169213092965889,0.0232705178608348,0.7284735304189149,3.7672760492297846e+43,-0.16437856450032878,,,,,,,,
27,240801_100742,FalseCHOICE,9.0,28,2.0,303.0,,,,,,,,,,,28.0,28.0,,,B,,,,,,False,cue1.png,Hard,cue2.png,Easy,Right,Easy,Mid,0.0166047000093385,,,,,,,,,,,,,52,26,Male,1.1428571428571428,1.0,0.6,2.25,2.0555555555555554,2.25,2.111111111111111,2.0,2.5,1.8888888888888888,1.5,1.25,1.75,1.5,0.7019230769230769,0.7692307692307692,0.3654522000027722,0.6208068885596344,,,,,,,,,,,,,,,,,,,0.007185116132404917,-0.5520096236461576,,,,,,,,,,,,
28,240801_100804,FalseCHOICE,9.0,29,2.0,303.0,,,,,,,,,,,29.0,29.0,,,B,,,,,,False,cue2.png,Easy,cue1.png,Hard,Right,Hard,Mid,0.0166201000101864,,,,,,,,,,,,,52,26,Male,1.1428571428571428,1.0,0.6,2.25,2.0555555555555554,2.25,2.111111111111111,2.0,2.5,1.8888888888888888,1.5,1.25,1.75,1.5,0.0535714285714285,0.7142857142857143,0.2163674421118278,-0.6037219437128195,,,,,,,,,,,,,,,,,,,0.02030608117528165,1.7491345434688128,0.030012639669556303,1.546198309682807,,,,,,,,,,
29,240801_100823,FalseCHOICE,9.0,30,2.0,303.0,,,,,,,,,,,30.0,30.0,,,B,,,,,,False,cue2.png,Easy,cue1.png,Hard,Right,Hard,Mid,0.0165415999945253,,,,,,,,,,,,,52,26,Male,1.1428571428571428,1.0,0.6,2.25,2.0555555555555554,2.25,2.111111111111111,2.0,2.5,1.8888888888888888,1.5,1.25,1.75,1.5,0.6625000000000001,0.7857142857142857,0.1256832105144368,-1.3485697591059116,,,,,,,,,,,,,,,,,,,0.007688483322581782,-0.4637294956367176,0.022333260290648943,0.6147973374580856,,,,,,,,,,
30,240801_100845,FalseCHOICE,9.0,31,2.0,303.0,,,,,,,,,,,31.0,31.0,,,B,,,,,,False,cue1.png,Hard,cue2.png,Easy,Right,Easy,Mid,0.0163902000058442,,,,,,,,,,,,,52,26,Male,1.1428571428571428,1.0,0.6,2.25,2.0555555555555554,2.25,2.111111111111111,2.0,2.5,1.8888888888888888,1.5,1.25,1.75,1.5,0.6625000000000001,0.7857142857142857,0.2080856315718081,-0.6717457707836619,,,,,,,,,,,,,,,,,,,,,0.013130896957024005,-0.5013202200681464,,,,,,,,,,
31,240801_100906,FalseCHOICE,9.0,32,2.0,303.0,,,,,,,,,,,32.0,32.0,,,B,,,,,,False,cue2.png,Easy,cue1.png,Hard,Right,Hard,Mid,0.0171706998953595,,,,,,,,,,,,,52,26,Male,1.1428571428571428,1.0,0.6,2.25,2.0555555555555554,2.25,2.111111111111111,2.0,2.5,1.8888888888888888,1.5,1.25,1.75,1.5,0.0535714285714285,0.6616541353383458,0.0575318944433497,-1.9083402726510006,,,,,,,,,,,,,,,,,,,0.02503435563933453,2.5783754695682886,0.013400636443013685,-0.46860460502922235,8.279796608909102e+42,-0.16442698174350834,,,,,,,,
32,240801_100925,FalseCHOICE,9.0,33,2.0,303.0,,,,,,,,,,,33.0,33.0,,,B,,,,,,False,cue1.png,Hard,cue2.png,Easy,Right,Easy,Mid,0.0156820000847801,,,,,,,,,,,,,52,26,Male,1.1428571428571428,1.0,0.6,2.25,2.0555555555555554,2.25,2.111111111111111,2.0,2.5,1.8888888888888888,1.5,1.25,1.75,1.5,0.1346153846153846,0.5384615384615384,0.1126762631557587,-1.4554041685108103,,,,,,,,,,,,,,,,,,,0.014899835046081576,0.800991498689457,0.012489255293921269,-0.5791423511735909,2.334572086654536e+42,-0.1644367749505695,,,,,,,,
33,240801_100949,FalseCHOICE,9.0,34,2.0,303.0,,,,,,,,,,,34.0,34.0,,,B,,,,,,False,cue1.png,Hard,cue2.png,Easy,Right,Easy,Mid,0.0165942000458017,,,,,,,,,,,,,52,26,Male,1.1428571428571428,1.0,0.6,2.25,2.0555555555555554,2.25,2.111111111111111,2.0,2.5,1.8888888888888888,1.5,1.25,1.75,1.5,0.8269230769230769,0.8461538461538461,0.3074037526354292,0.1440177219437014,,,,,,,,,,,,,,,,,,,0.017439852406988227,1.2464576755538084,0.012883331850002146,-0.5313463940585091,-2.9360888016682054e+42,-0.16444545698995006,,,,,,,,
34,240801_101011,FalseCHOICE,9.0,35,2.0,303.0,,,,,,,,,,,35.0,35.0,,,B,,,,,,False,cue1.png,Hard,cue2.png,Easy,Right,Easy,Mid,0.0166448999661952,,,,,,,,,,,,,52,26,Male,1.1428571428571428,1.0,0.6,2.25,2.0555555555555554,2.25,2.111111111111111,2.0,2.5,1.8888888888888888,1.5,1.25,1.75,1.5,0.0871794871794871,0.6153846153846154,0.2094532631423422,-0.6605125346451285,,,,,,,,,,,,,,,,,,,,,0.04403764250594178,3.247234374282409,-7.713293674541955e+42,-0.16445332618922395,,,,,,,,
35,240801_101035,FalseCHOICE,9.0,36,2.0,303.0,,,,,,,,,,,36.0,36.0,,,B,,,,,,False,cue2.png,Easy,cue1.png,Hard,Right,Hard,Mid,0.0165698000928387,,,,,,,,,,,,,52,26,Male,1.1428571428571428,1.0,0.6,2.25,2.0555555555555554,2.25,2.111111111111111,2.0,2.5,1.8888888888888888,1.5,1.25,1.75,1.5,0.5256410256410255,0.6923076923076923,0.2825914842113362,-0.05978136864885083,,,,,,,,,,,,,,,,,,,0.01036812706353993,0.0062242420877485,0.01697373425869854,-0.03523797275634007,-1.0764742897740211e+43,-0.16445835265609118,,,,,,,,
36,240801_101055,FalseCHOICE,9.0,37,2.0,303.0,,,,,,,,,,,37.0,37.0,,,B,,,,,,False,cue1.png,Hard,cue2.png,Easy,Right,Easy,Mid,0.0160113000310957,,,,,,,,,,,,,52,26,Male,1.1428571428571428,1.0,0.6,2.25,2.0555555555555554,2.25,2.111111111111111,2.0,2.5,1.8888888888888888,1.5,1.25,1.75,1.5,0.6625000000000001,0.7330827067669172,0.1121737388829286,-1.459531722995269,,,,,,,,,,,,,,,,,,,0.006464949554821202,-0.6783118517172246,0.011670758493122409,-0.6784145290947383,-1.0195527518258567e+43,-0.16445741502218808,,,,,,,,
37,240801_101119,FalseCHOICE,9.0,38,2.0,303.0,,,,,,,,,,,38.0,38.0,,,B,,,,,,False,cue2.png,Easy,cue1.png,Hard,Right,Hard,Mid,0.0158382999943569,,,,,,,,,,,,,52,26,Male,1.1428571428571428,1.0,0.6,2.25,2.0555555555555554,2.25,2.111111111111111,2.0,2.5,1.8888888888888888,1.5,1.25,1.75,1.5,0.8071428571428572,0.8571428571428572,0.2842708315920869,-0.04598781043255932,,,,,,,,,,,,,,,,,,,0.008184453982640293,-0.37674656505773496,0.02852834401670147,1.366174072576472,-6.835447225760733e+42,-0.16445188016611606,,,,,,,,
38,240801_101138,FalseCHOICE,9.0,39,2.0,303.0,,,,,,,,,,,39.0,39.0,,,B,,,,,,False,cue2.png,Easy,cue1.png,Hard,Left,Easy,Mid,0.014983500004746,,,,,,,,,,,,,52,26,Male,1.1428571428571428,1.0,0.6,2.25,2.0555555555555554,2.25,2.111111111111111,2.0,2.5,1.8888888888888888,1.5,1.25,1.75,1.5,0.9178571428571428,0.9285714285714286,0.1083610842041181,-1.4908475036810254,,,,,,,,,,,,,,,,,,,0.006806223461756021,-0.6184595117585919,0.01317260729480805,-0.496261341316748,-1.3174689895253123e+42,-0.16444279073589788,,,,,,,,
39,240801_101200,FalseCHOICE,9.0,40,2.0,303.0,,,,,,,,,,,40.0,40.0,,,B,,,,,,False,cue1.png,Hard,cue2.png,Easy,Right,Easy,Mid,0.0158567000180482,,,,,,,,,,,,,52,26,Male,1.1428571428571428,1.0,0.6,2.25,2.0555555555555554,2.25,2.111111111111111,2.0,2.5,1.8888888888888888,1.5,1.25,1.75,1.5,0.5256410256410255,0.6923076923076923,0.1939469947491919,-0.787875472325567,,,,,,,,,,,,,,,,,,,0.006155615061732156,-0.7325626832782589,0.01631186877030933,-0.11551297011627133,5.468675238504945e+42,-0.1644316123329085,,,,,,,,
40,240801_101224,FalseCHOICE,9.0,41,2.0,303.0,,,,,,,,,,,41.0,41.0,,,B,,,,,,False,cue1.png,Hard,cue2.png,Easy,Right,Easy,Mid,0.0165298999054357,,,,,,,,,,,,,52,26,Male,1.1428571428571428,1.0,0.6,2.25,2.0555555555555554,2.25,2.111111111111111,2.0,2.5,1.8888888888888888,1.5,1.25,1.75,1.5,0.5256410256410255,0.6923076923076923,0.2646662526469874,-0.207012803882235,,,,,,,,,,,,,,,,,,,0.005547753961025113,-0.839168868245384,0.012529196436551124,-0.5742980509714948,9.658385518659686e+42,-0.16442471087777488,,,,,,,,
41,240801_101244,FalseCHOICE,9.0,42,2.0,303.0,,,,,,,,,,,42.0,42.0,,,B,,,,,,False,cue2.png,Easy,cue1.png,Hard,Right,Hard,Mid,0.0166045000078156,,,,,,,,,,,,,52,26,Male,1.1428571428571428,1.0,0.6,2.25,2.0555555555555554,2.25,2.111111111111111,2.0,2.5,1.8888888888888888,1.5,1.25,1.75,1.5,0.6625000000000001,0.7857142857142857,0.1529861526306424,-1.1243131664124042,,,,,,,,,,,,,,,,,,,,,0.02724646186923519,1.2106997536872435,1.0906452325573901e+43,-0.1644226550131695,,,,,,,,
42,240801_101304,FalseCHOICE,9.0,43,2.0,303.0,,,,,,,,,,,43.0,43.0,,,B,,,,,,False,cue1.png,Hard,cue2.png,Easy,Right,Easy,Mid,0.0165543999755755,,,,,,,,,,,,,52,26,Male,1.1428571428571428,1.0,0.6,2.25,2.0555555555555554,2.25,2.111111111111111,2.0,2.5,1.8888888888888888,1.5,1.25,1.75,1.5,0.8071428571428572,0.8571428571428572,0.0828845473680351,-1.7001026572162736,,,,,,,,,,,,,,,,,,,0.022869691279798623,2.1987383965001017,,,7.643270683894205e+42,-0.16442803025398262,,,,,,,,
43,240801_101326,FalseCHOICE,9.0,44,2.0,303.0,,,,,,,,,,,44.0,44.0,,,B,,,,,,False,cue2.png,Easy,cue1.png,Hard,Right,Hard,Mid,0.0167415000032633,,,,,,,,,,,,,52,26,Male,1.1428571428571428,1.0,0.6,2.25,2.0555555555555554,2.25,2.111111111111111,2.0,2.5,1.8888888888888888,1.5,1.25,1.75,1.5,0.5256410256410255,0.6923076923076923,0.2501721526434841,-0.32606215274399514,,,,,,,,,,,,,,,,,,,0.011674433715179382,0.23532323915546396,0.029012426140154077,1.4248864421800318,6.943048465516479e+41,-0.16443947686311425,,,,,,,,
44,240801_101350,FalseCHOICE,9.0,45,2.0,303.0,,,,,,,,,,,45.0,45.0,,,B,,,,,,False,cue1.png,Hard,cue2.png,Easy,Right,Easy,Mid,0.0168529000366106,,,,,,,,,,,,,52,26,Male,1.1428571428571428,1.0,0.6,2.25,2.0555555555555554,2.25,2.111111111111111,2.0,2.5,1.8888888888888888,1.5,1.25,1.75,1.5,0.8071428571428572,0.8571428571428572,0.3112577210719648,0.17567283904600126,,,,,,,,,,,,,,,,,,,0.007684485554828837,-0.4644306208905467,0.016338092828594206,-0.11233235978605402,-7.143091459780693e+42,-0.16445238692976705,,,,,,,,
45,240801_101414,FalseCHOICE,9.0,46,2.0,303.0,,,,,,,,,,,46.0,46.0,,,B,,,,,,False,cue1.png,Hard,cue2.png,Easy,Left,Hard,Mid,0.0156905999174341,,,,,,,,,,,,,52,26,Male,1.1428571428571428,1.0,0.6,2.25,2.0555555555555554,2.25,2.111111111111111,2.0,2.5,1.8888888888888888,1.5,1.25,1.75,1.5,0.0535714285714285,0.7142857142857143,0.3205897473779164,0.2523227624642076,,,,,,,,,,,,,,,,,,,0.010615907384489198,0.04967975305169467,0.03383801840834978,2.010163078271564,-1.1803039219657122e+43,-0.16446006297852447,,,,,,,,
46,240801_101435,FalseCHOICE,9.0,47,2.0,303.0,,,,,,,,,,,47.0,47.0,,,B,,,,,,False,cue2.png,Easy,cue1.png,Hard,Right,Hard,Mid,0.0168192000128328,,,,,,,,,,,,,52,26,Male,1.1428571428571428,1.0,0.6,2.25,2.0555555555555554,2.25,2.111111111111111,2.0,2.5,1.8888888888888888,1.5,1.25,1.75,1.5,0.6625000000000001,0.7857142857142857,0.162079815789567,-1.0496210725551463,,,,,,,,,,,,,,,,,,,,,0.032489514264817713,1.8466084460073169,-8.744896155581954e+42,-0.16445502548529997,,,,,,,,
47,240801_101453,FalseCHOICE,9.0,48,2.0,303.0,,,,,,,,,,,48.0,48.0,,,B,,,,,,False,cue2.png,Easy,cue1.png,Hard,Right,Hard,Mid,0.0164976000087335,,,,,,,,,,,,,52,26,Male,1.1428571428571428,1.0,0.6,2.25,2.0555555555555554,2.25,2.111111111111111,2.0,2.5,1.8888888888888888,1.5,1.25,1.75,1.5,0.5256410256410255,0.6923076923076923,0.0624199157985123,-1.8681918150431576,,,,,,,,,,,,,,,,,,,0.007589706873123565,-0.4810528289263297,0.017199511792157323,-0.007854325746061564,5.2467972264618847e+42,-0.1644319778190741,,,,,,,,
48,240801_101514,FalseCHOICE,9.0,49,2.0,303.0,,,,,,,,,,,49.0,49.0,,,B,,,,,,False,cue1.png,Hard,cue2.png,Easy,Right,Easy,Mid,0.0164193999953567,,,,,,,,,,,,,52,26,Male,1.1428571428571428,1.0,0.6,2.25,2.0555555555555554,2.25,2.111111111111111,2.0,2.5,1.8888888888888888,1.5,1.25,1.75,1.5,0.8071428571428572,0.8571428571428572,0.1059517421036664,-1.5106369772029877,,,,,,,,,,,,,,,,,,,0.008578099436992219,-0.3077093457500723,0.010583252467658172,-0.8103137516021893,1.485475092754675e+43,-0.16441615122082262,,,,,,,,
49,240801_101535,FalseCHOICE,9.0,50,2.0,303.0,,,,,,,,,,,50.0,50.0,,,B,,,,,,False,cue2.png,Easy,cue1.png,Hard,Right,Hard,Mid,0.0168101999443024,,,,,,,,,,,,,52,26,Male,1.1428571428571428,1.0,0.6,2.25,2.0555555555555554,2.25,2.111111111111111,2.0,2.5,1.8888888888888888,1.5,1.25,1.75,1.5,0.6625000000000001,0.7330827067669172,0.087223555556395,-1.6644635972259854,,,,,,,,,,,,,,,,,,,0.011917373048367139,0.27792974162696493,0.013159447250651173,-0.4978574700294279,-8.09959174422336e+42,-0.1644539625145586,,,,,,,,
0,240801_092635,OFFLINERATING,9.0,1,1.0,,,,,,,,,,,,,,,,,T0,cue2.png,Easy,25.0,0.9747233000816776,,,,,,,,,,,,,,,,,,,,,,52,26,Male,1.1428571428571428,1.0,0.6,2.25,2.0555555555555554,2.25,2.111111111111111,2.0,2.5,1.8888888888888888,1.5,1.25,1.75,1.5,,,,,,,,,,,,,,,,,,,,,,,,,,,,,-0.005851356040665864,,,,,,,
1,240801_092641,OFFLINERATING,9.0,2,3.0,,,,,,,,,,,,,,,,,T0,cue1.png,Hard,39.0,0.8110073000425473,,,,,,,,,,,,,,,,,,,,,,52,26,Male,1.1428571428571428,1.0,0.6,2.25,2.0555555555555554,2.25,2.111111111111111,2.0,2.5,1.8888888888888888,1.5,1.25,1.75,1.5,,,,,,,,,,,,,,,,,,,,,,,,,,,,,0.6495005205139109,0.009397716581134549,1.31989931398688,,,2484921.2426579203,1.4141587791985086,
2,240801_095008,OFFLINERATING,9.0,3,1.0,,,,,,,,,,,,,,,,,T1,cue2.png,Easy,21.0,0.6024804000044242,,,,,,,,,,,,,,,,,,,,,,52,26,Male,1.1428571428571428,1.0,0.6,2.25,2.0555555555555554,2.25,2.111111111111111,2.0,2.5,1.8888888888888888,1.5,1.25,1.75,1.5,,,,,,,,,,,,,,,,,,,,,,,,,,,,,-0.19309474934197354,0.005685107298029433,-1.0997215873195154,,,42617.77848396981,-0.6962992962861905,
3,240801_095015,OFFLINERATING,9.0,4,3.0,,,,,,,,,,,,,,,,,T1,cue1.png,Hard,17.0,0.8515660000266507,,,,,,,,,,,,,,,,,,,,,,52,26,Male,1.1428571428571428,1.0,0.6,2.25,2.0555555555555554,2.25,2.111111111111111,2.0,2.5,1.8888888888888888,1.5,1.25,1.75,1.5,,,,,,,,,,,,,,,,,,,,,,,,,,,,,-0.3803381426432812,,,,,,,
4,240801_095507,OFFLINERATING,9.0,5,1.0,,,,,,,,,,,,,,,,,T2,cue2.png,Easy,71.0,0.6354544999776408,,,,,,,,,,,,,,,,,,,,,,52,26,Male,1.1428571428571428,1.0,0.6,2.25,2.0555555555555554,2.25,2.111111111111111,2.0,2.5,1.8888888888888888,1.5,1.25,1.75,1.5,,,,,,,,,,,,,,,,,,,,,,,,,,,,,2.1474476669243723,,,,,,,
5,240801_095514,OFFLINERATING,9.0,6,3.0,,,,,,,,,,,,,,,,,T2,cue1.png,Hard,28.0,0.6015340999001637,,,,,,,,,,,,,,,,,,,,,,52,26,Male,1.1428571428571428,1.0,0.6,2.25,2.0555555555555554,2.25,2.111111111111111,2.0,2.5,1.8888888888888888,1.5,1.25,1.75,1.5,,,,,,,,,,,,,,,,,,,,,,,,,,,,,0.13458118893531487,,,0.03101845342600415,1.4121136420000566,17667.49915983124,-0.7178594829123176,
6,240801_101547,OFFLINERATING,9.0,7,1.0,,,,,,,,,,,,,,,,,T3,cue2.png,Easy,0.0,1.102956600021571,,,,,,,,,,,,,,,,,,,,,,52,26,Male,1.1428571428571428,1.0,0.6,2.25,2.0555555555555554,2.25,2.111111111111111,2.0,2.5,1.8888888888888888,1.5,1.25,1.75,1.5,,,,,,,,,,,,,,,,,,,,,,,,,,,,,-1.1761225641738389,,,0.009482162932427513,-0.7727748587259798,,,
7,240801_101554,OFFLINERATING,9.0,8,3.0,,,,,,,,,,,,,,,,,T3,cue1.png,Hard,0.0,0.8010134999640286,,,,,,,,,,,,,,,,,,,,,,52,26,Male,1.1428571428571428,1.0,0.6,2.25,2.0555555555555554,2.25,2.111111111111111,2.0,2.5,1.8888888888888888,1.5,1.25,1.75,1.5,,,,,,,,,,,,,,,,,,,,,,,,,,,,,-1.1761225641738389,0.00703465866791231,-0.22017772666736465,0.010797432833980864,-0.6393387832740772,,,
0,240801_095528,LEARNINGCHECK,9.0,1,,,,,,,,,,,,1.0,1.0,1.0,,,B,,,,,,,,,,,,,,,cue2.png,Easy,Left,Left,Easy,0.0138143999502062,1.0,,,,,,52,26,Male,1.1428571428571428,1.0,0.6,2.25,2.0555555555555554,2.25,2.111111111111111,2.0,2.5,1.8888888888888888,1.5,1.25,1.75,1.5,,,,,,,,,,,,,,,,,,,,,,,,,,,,,,,,,,,,
1,240801_095533,LEARNINGCHECK,9.0,2,,,,,,,,,,,,2.0,2.0,2.0,,,B,,,,,,,,,,,,,,,cue1.png,Hard,Right,Right,Hard,0.0157327998895198,1.0,,,,,,52,26,Male,1.1428571428571428,1.0,0.6,2.25,2.0555555555555554,2.25,2.111111111111111,2.0,2.5,1.8888888888888888,1.5,1.25,1.75,1.5,,,,,,,,,,,,,,,,,,,,,,,,,,,,,,,,,,,,
2,240801_101606,LEARNINGCHECK,9.0,1,,,,,,,,,,,,1.0,1.0,1.0,,,B,,,,,,,,,,,,,,,cue2.png,Easy,Middle,Middle,Mid,0.0154009000398218,1.0,,,,,,52,26,Male,1.1428571428571428,1.0,0.6,2.25,2.0555555555555554,2.25,2.111111111111111,2.0,2.5,1.8888888888888888,1.5,1.25,1.75,1.5,,,,,,,,,,,,,,,,,,,,,,,,,,,,,,,,,,,,
3,240801_101610,LEARNINGCHECK,9.0,2,,,,,,,,,,,,2.0,2.0,2.0,,,B,,,,,,,,,,,,,,,cue1.png,Hard,Middle,Middle,Mid,0.0161652999231591,1.0,,,,,,52,26,Male,1.1428571428571428,1.0,0.6,2.25,2.0555555555555554,2.25,2.111111111111111,2.0,2.5,1.8888888888888888,1.5,1.25,1.75,1.5,,,,,,,,,,,,,,,,,,,,,,,,,,,,,,,,,,,,
0,240801_101621,DEMANDRATING,9.0,-1,,,,,,,,,,,,,,,,,,,,,,,,,,,,,,,,,,,,,,,1.0,MentalDemand,1.0,13.0,3.439124900032766,52,26,Male,1.1428571428571428,1.0,0.6,2.25,2.0555555555555554,2.25,2.111111111111111,2.0,2.5,1.8888888888888888,1.5,1.25,1.75,1.5,,,,,,,,,,,,,,,,,,,,,,,,,,,,,,,,,,,,-1.8570448482268795
1,240801_101624,DEMANDRATING,9.0,-1,,,,,,,,,,,,,,,,,,,,,,,,,,,,,,,,,,,,,,,2.0,Effort,1.0,100.0,0.8900331000331789,52,26,Male,1.1428571428571428,1.0,0.6,2.25,2.0555555555555554,2.25,2.111111111111111,2.0,2.5,1.8888888888888888,1.5,1.25,1.75,1.5,,,,,,,,,,,,,,,,,,,,,,,,,,,,,,,,,,,,0.5345112638810919
2,240801_101628,DEMANDRATING,9.0,-1,,,,,,,,,,,,,,,,,,,,,,,,,,,,,,,,,,,,,,,3.0,Frustration,1.0,12.0,2.6134671999607235,52,26,Male,1.1428571428571428,1.0,0.6,2.25,2.0555555555555554,2.25,2.111111111111111,2.0,2.5,1.8888888888888888,1.5,1.25,1.75,1.5,,,,,,,,,,,,,,,,,,,,,,,,,,,,,,,,,,,,-1.8845339989407643
3,240801_101631,DEMANDRATING,9.0,-1,,,,,,,,,,,,,,,,,,,,,,,,,,,,,,,,,,,,,,,4.0,MentalDemand,2.0,100.0,1.6541930000530556,52,26,Male,1.1428571428571428,1.0,0.6,2.25,2.0555555555555554,2.25,2.111111111111111,2.0,2.5,1.8888888888888888,1.5,1.25,1.75,1.5,,,,,,,,,,,,,,,,,,,,,,,,,,,,,,,,,,,,0.5345112638810919
4,240801_101636,DEMANDRATING,9.0,-1,,,,,,,,,,,,,,,,,,,,,,,,,,,,,,,,,,,,,,,5.0,Effort,2.0,100.0,3.3418785999529064,52,26,Male,1.1428571428571428,1.0,0.6,2.25,2.0555555555555554,2.25,2.111111111111111,2.0,2.5,1.8888888888888888,1.5,1.25,1.75,1.5,,,,,,,,,,,,,,,,,,,,,,,,,,,,,,,,,,,,0.5345112638810919
5,240801_101639,DEMANDRATING,9.0,-1,,,,,,,,,,,,,,,,,,,,,,,,,,,,,,,,,,,,,,,6.0,Frustration,2.0,100.0,1.9085173000348727,52,26,Male,1.1428571428571428,1.0,0.6,2.25,2.0555555555555554,2.25,2.111111111111111,2.0,2.5,1.8888888888888888,1.5,1.25,1.75,1.5,,,,,,,,,,,,,,,,,,,,,,,,,,,,,,,,,,,,0.5345112638810919
6,240801_101642,DEMANDRATING,9.0,-1,,,,,,,,,,,,,,,,,,,,,,,,,,,,,,,,,,,,,,,7.0,MentalDemand,3.0,100.0,1.3109153000405058,52,26,Male,1.1428571428571428,1.0,0.6,2.25,2.0555555555555554,2.25,2.111111111111111,2.0,2.5,1.8888888888888888,1.5,1.25,1.75,1.5,,,,,,,,,,,,,,,,,,,,,,,,,,,,,,,,,,,,0.5345112638810919
7,240801_101644,DEMANDRATING,9.0,-1,,,,,,,,,,,,,,,,,,,,,,,,,,,,,,,,,,,,,,,8.0,Effort,3.0,100.0,0.8329476999351755,52,26,Male,1.1428571428571428,1.0,0.6,2.25,2.0555555555555554,2.25,2.111111111111111,2.0,2.5,1.8888888888888888,1.5,1.25,1.75,1.5,,,,,,,,,,,,,,,,,,,,,,,,,,,,,,,,,,,,0.5345112638810919
8,240801_101647,DEMANDRATING,9.0,-1,,,,,,,,,,,,,,,,,,,,,,,,,,,,,,,,,,,,,,,9.0,Frustration,3.0,100.0,0.6314737000502646,52,26,Male,1.1428571428571428,1.0,0.6,2.25,2.0555555555555554,2.25,2.111111111111111,2.0,2.5,1.8888888888888888,1.5,1.25,1.75,1.5,,,,,,,,,,,,,,,,,,,,,,,,,,,,,,,,,,,,0.5345112638810919
