,END,Phase,Block,TrialN,NbackLevel,ISI,Letter_Resp,Letter_RT,Letter_Accuracy,Trial_A_measure,Trial_ACC,Trial_RT,TrialCountCali,CaliEnd_A_measure,ISI_calibrated,TrialIndex,TrialNumber_total,TrialNumber_valid,CueLearning,TrialDemandLearning,CueMapping,OfflineRatingTimePoint,CueFigure,TrialDemand,OfflineRating,OfflineRatingRT,PhaseType,CueLeft,CueDemandLeft,CueRight,CueDemandRight,Choice,ChoiceDemand,TaskDemand,ChoiceRT,CueCheck,CueDemandCheck,CorrectAnswer,Answer,AnswerDemand,AnswerRT,AnswerACC,DemandRatingQuesIndex,QuesTLX,DemandLevel,DemandRating,DemandRatingRT,PID,Age,Gender,BAI_bis,BAI_bas_d,BAI_bas_rr,BAI_bas_fs,NFC,BFI_ext,BFI_agr,BFI_con,BFI_neu,BFI_open,UPPS_lps,UPPS_lpm,UPPS_pu,UPPS_ss,Task_A_measure,Task_ACC,Task_RT,Task_RT_z,cue_i_on_zyg_values,cue_i_on_zyg_zvalues,cue_e_on_zyg_values,cue_e_on_zyg_zvalues,cue_i_on_cor_values,cue_i_on_cor_zvalues,cue_e_on_cor_values,cue_e_on_cor_zvalues,cue_i_on_scr_values,cue_i_on_scr_zvalues,cue_e_on_scr_values,cue_e_on_scr_zvalues,cue_e_true_zyg_values,cue_e_true_zyg_zvalues,cue_e_true_cor_values,cue_e_true_cor_zvalues,cue_e_true_scr_values,cue_e_true_scr_zvalues,cue_e_false_zyg_values,cue_e_false_zyg_zvalues,cue_e_false_cor_values,cue_e_false_cor_zvalues,cue_e_false_scr_values,cue_e_false_scr_zvalues,OfflineRating_z,cue_i_off_zyg_values,cue_i_off_zyg_zvalues,cue_i_off_cor_values,cue_i_off_cor_zvalues,cue_i_off_scr_values,cue_i_off_scr_zvalues,DemandRating_z
0,240802_152102,PRACTICE,0.0,1,1.0,583.0,,,,,,,,,,23.0,1.0,1.0,cue2.png,Easy,B,,,,,,,,,,,,,,,,,,,,,,,,,,,54,26,Male,1.8571428571428572,1.25,0.8,1.25,3.111111111111111,3.25,3.111111111111111,2.888888888888889,0.625,3.6666666666666665,1.75,1.75,2.75,0.5,,,,,,,,,,,,,,,,,,,,,,,,,,,,,,,,,,,,
0,240802_152515,LEARNING,1.0,1,1.0,583.0,,,,,,,,,,1.0,1.0,1.0,cue2.png,Easy,B,,,,,,,,,,,,,,,,,,,,,,,,,,,54,26,Male,1.8571428571428572,1.25,0.8,1.25,3.111111111111111,3.25,3.111111111111111,2.888888888888889,0.625,3.6666666666666665,1.75,1.75,2.75,0.5,1.0,1.0,0.5300762533210218,0.17236432318144576,0.009148676474333293,0.9476820367292341,0.007595056854583558,0.005212478720392717,0.020738496139873733,1.7898405321429904,0.029232560711073684,3.6040711290435676,7.859662336017217e+44,-0.1936586808203623,,,,,,,,,,,,,,,,,,,,,,
1,240802_152543,LEARNING,1.0,2,3.0,583.0,,,,,,,,,,2.0,2.0,2.0,cue1.png,Hard,B,,,,,,,,,,,,,,,,,,,,,,,,,,,54,26,Male,1.8571428571428572,1.25,0.8,1.25,3.111111111111111,3.25,3.111111111111111,2.888888888888889,0.625,3.6666666666666665,1.75,1.75,2.75,0.5,0.8920454545454546,0.9090909090909092,0.6436540999993061,1.566352917751679,0.007697960027772836,0.27538668693577595,0.007670634312122318,0.023579694769357906,0.02113099194759843,1.8971735689413058,0.014838113308657593,0.10539050292456081,4.934812670930458e+43,-0.20639624409180854,1.2232954003443301e+44,3.3733652562917156,,,,,,,,,,,,,,,,,,,,
2,240802_152608,LEARNING,1.0,3,1.0,583.0,,,,,,,,,,3.0,3.0,3.0,cue2.png,Easy,B,,,,,,,,,,,,,,,,,,,,,,,,,,,54,26,Male,1.8571428571428572,1.25,0.8,1.25,3.111111111111111,3.25,3.111111111111111,2.888888888888889,0.625,3.6666666666666665,1.75,1.75,2.75,0.5,1.0,1.0,0.4518184933500985,-0.7881260191393318,0.007365647035021744,0.12138520702410775,0.005890549430663271,-0.4090255379018637,0.01597908375405289,0.4883178796921893,0.019913413463035837,1.3389810552705648,-1.8218596737614983e+44,-0.21039992000652671,-1.1517844796857724e+44,-3.0049547211794736,,,,,,,,,,,,,,,,,,,,
3,240802_152638,LEARNING,1.0,4,3.0,583.0,,,,,,,,,,4.0,4.0,4.0,cue1.png,Hard,B,,,,,,,,,,,,,,,,,,,,,,,,,,,54,26,Male,1.8571428571428572,1.25,0.8,1.25,3.111111111111111,3.25,3.111111111111111,2.888888888888889,0.625,3.6666666666666665,1.75,1.75,2.75,0.5,0.5,0.6,0.515712044460492,-0.003933642550560565,0.007732967768623795,0.2916100787892806,0.007992442967008604,0.10178726198861651,0.01919184886266787,1.3668899022224,0.012354007906329748,-0.49839033015578393,-1.654527709770552e+44,-0.2101105704156428,-1.2079857756217566e+44,-3.1558843179658,,,,,,,,,,,,,,,,,,,,
4,240802_152705,LEARNING,1.0,5,3.0,583.0,,,,,,,,,,5.0,5.0,5.0,cue1.png,Hard,B,,,,,,,,,,,,,,,,,,,,,,,,,,,54,26,Male,1.8571428571428572,1.25,0.8,1.25,3.111111111111111,3.25,3.111111111111111,2.888888888888889,0.625,3.6666666666666665,1.75,1.75,2.75,0.5,0.675,0.6666666666666667,0.5278830461544343,0.14544617087298778,0.0055092385200006255,-0.7389171731720529,0.008661976708147737,0.26450073867930174,0.018082155509374077,1.0634299539126535,0.02643169113640785,2.923298339146491,3.372532874034984e+47,5.624517321200612,,,,,,,,,,,,,,,,,,,,,,
5,240802_152734,LEARNING,1.0,6,1.0,583.0,,,,,,,,,,6.0,6.0,6.0,cue2.png,Easy,B,,,,,,,,,,,,,,,,,,,,,,,,,,,54,26,Male,1.8571428571428572,1.25,0.8,1.25,3.111111111111111,3.25,3.111111111111111,2.888888888888889,0.625,3.6666666666666665,1.75,1.75,2.75,0.5,0.905,0.8333333333333334,0.6605863928478877,1.7741700564028797,0.008783507546309351,0.7784543611337559,0.006394075298929661,-0.28665613424802333,,,0.013820775639074617,-0.14188120506706287,,,-1.9669296674807153e+43,-0.44003918780949314,,,,,,,,,,,,,,,,,,,,
6,240802_152803,LEARNING,1.0,7,3.0,583.0,,,,,,,,,,7.0,7.0,7.0,cue1.png,Hard,B,,,,,,,,,,,,,,,,,,,,,,,,,,,54,26,Male,1.8571428571428572,1.25,0.8,1.25,3.111111111111111,3.25,3.111111111111111,2.888888888888889,0.625,3.6666666666666665,1.75,1.75,2.75,0.5,0.905,0.9,0.6417675933179756,1.5431990292578759,0.0065079522189464105,-0.2760902870716104,0.007084598000685796,-0.11884181417294683,0.014465515298546523,0.07441307985905588,0.015734002055985873,0.3231431207089274,1.4894097373023612e+43,-0.20699202143494033,1.3337569840472633e+43,0.44636618262994493,,,,,,,,,,,,,,,,,,,,
7,240802_152828,LEARNING,1.0,8,3.0,583.0,,,,,,,,,,8.0,8.0,8.0,cue1.png,Hard,B,,,,,,,,,,,,,,,,,,,,,,,,,,,54,26,Male,1.8571428571428572,1.25,0.8,1.25,3.111111111111111,3.25,3.111111111111111,2.888888888888889,0.625,3.6666666666666665,1.75,1.75,2.75,0.5,0.5875,0.7,0.4772505399926255,-0.47598783380570225,,,0.006612171392087595,-0.23365331842278095,0.01864224815762096,1.2165945066074826,0.013602088467637762,-0.19503479606621893,,,,,,,,,,,,,,,,,,,,,,,,
8,240802_152856,LEARNING,1.0,9,1.0,583.0,,,,,,,,,,9.0,9.0,9.0,cue2.png,Easy,B,,,,,,,,,,,,,,,,,,,,,,,,,,,54,26,Male,1.8571428571428572,1.25,0.8,1.25,3.111111111111111,3.25,3.111111111111111,2.888888888888889,0.625,3.6666666666666665,1.75,1.75,2.75,0.5,0.8068181818181819,0.6424242424242423,0.4271287909306755,-1.0911531021716179,0.007193384954846041,0.041554999182698095,0.006643025528821818,-0.2261549900341718,0.013421844570335597,-0.21099213077433004,0.013056540784104422,-0.3276343365447111,6.965304038195435e+46,0.9971873031110862,,,,,,,,,,,,,,,,,,,,,,
9,240802_152920,LEARNING,1.0,10,1.0,583.0,,,,,,,,,,10.0,10.0,10.0,cue2.png,Easy,B,,,,,,,,,,,,,,,,,,,,,,,,,,,54,26,Male,1.8571428571428572,1.25,0.8,1.25,3.111111111111111,3.25,3.111111111111111,2.888888888888889,0.625,3.6666666666666665,1.75,1.75,2.75,0.5,1.0,1.0,0.4040152533290287,-1.374835252689323,0.005677545615742397,-0.6609197960328395,0.0065476417360451344,-0.2493356418654481,,,0.013872610352714492,-0.12928238113848203,7.779829672003722e+43,-0.20590428518229448,,,,,,,,,,,,,,,,,,,,,,
10,240802_152948,LEARNING,1.0,11,3.0,583.0,,,,,,,,,,11.0,11.0,11.0,cue1.png,Hard,B,,,,,,,,,,,,,,,,,,,,,,,,,,,54,26,Male,1.8571428571428572,1.25,0.8,1.25,3.111111111111111,3.25,3.111111111111111,2.888888888888889,0.625,3.6666666666666665,1.75,1.75,2.75,0.5,0.77,0.7333333333333334,0.5593075142657783,0.5311318606336919,0.006406276955632876,-0.3232089413591395,0.006663666113886848,-0.2211388106387215,,,0.020403967267039948,1.4582139123686486,,,,,,,,,,,,,,,,,,,,,,,,
11,240802_153013,LEARNING,1.0,12,1.0,583.0,,,,,,,,,,12.0,12.0,12.0,cue2.png,Easy,B,,,,,,,,,,,,,,,,,,,,,,,,,,,54,26,Male,1.8571428571428572,1.25,0.8,1.25,3.111111111111111,3.25,3.111111111111111,2.888888888888889,0.625,3.6666666666666665,1.75,1.75,2.75,0.5,1.0,1.0,0.438067360005031,-0.9568994516885118,0.007847510911369128,0.3446920042068859,0.014008979096383729,1.563956307539839,0.01847394042486538,1.1705685880683299,,,5.234854801139726e+43,-0.20634436095749675,,,,,,,,,,,,,,,,,,,,,,
12,240802_153040,LEARNING,1.0,13,1.0,583.0,,,,,,,,,,13.0,13.0,13.0,cue2.png,Easy,B,,,,,,,,,,,,,,,,,,,,,,,,,,,54,26,Male,1.8571428571428572,1.25,0.8,1.25,3.111111111111111,3.25,3.111111111111111,2.888888888888889,0.625,3.6666666666666665,1.75,1.75,2.75,0.5,0.8920454545454546,0.8424242424242424,0.4972034000093117,-0.23109800620488624,0.006334452081047558,-0.356494239321876,0.005668645900354144,-0.46295365636397984,,,,,,,1.0629736755340718e+43,0.3736468353449373,,,,,,,,,,,,,,,,,,,,
13,240802_153107,LEARNING,1.0,14,1.0,583.0,,,,,,,,,,14.0,14.0,14.0,cue2.png,Easy,B,,,,,,,,,,,,,,,,,,,,,,,,,,,54,26,Male,1.8571428571428572,1.25,0.8,1.25,3.111111111111111,3.25,3.111111111111111,2.888888888888889,0.625,3.6666666666666665,1.75,1.75,2.75,0.5,1.0,0.9333333333333332,0.5589303285482207,0.5265025019718794,0.0065284403524568605,-0.2665956150303025,0.007992462753735179,0.10179207065900235,,,0.016565109668478406,0.5251501877922794,-2.6898046774108985e+43,-0.207714689090463,,,,,,,,,,,,,,,,,,,,,,
14,240802_153133,LEARNING,1.0,15,3.0,583.0,,,,,,,,,,15.0,15.0,15.0,cue1.png,Hard,B,,,,,,,,,,,,,,,,,,,,,,,,,,,54,26,Male,1.8571428571428572,1.25,0.8,1.25,3.111111111111111,3.25,3.111111111111111,2.888888888888889,0.625,3.6666666666666665,1.75,1.75,2.75,0.5,0.7386363636363636,0.8181818181818181,0.4946308399938667,-0.2626721152874049,,,0.006429566330583717,-0.2780309241996914,0.01388280097123142,-0.08493766250731172,0.015017434706434083,0.14897594130296496,,,,,,,,,,,,,,,,,,,,,,,,
15,240802_153200,LEARNING,1.0,16,1.0,583.0,,,,,,,,,,16.0,16.0,16.0,cue2.png,Easy,B,,,,,,,,,,,,,,,,,,,,,,,,,,,54,26,Male,1.8571428571428572,1.25,0.8,1.25,3.111111111111111,3.25,3.111111111111111,2.888888888888889,0.625,3.6666666666666665,1.75,1.75,2.75,0.5,1.0,0.8666666666666667,0.4967686307813542,-0.2364341114645638,0.007106752389428557,0.0014074768953887097,0.00650736416578963,-0.25912410073800035,0.02023310513257452,1.65163484811685,,,,,,,,,,,,,,,,,,,,,,,,,,
16,240802_153226,LEARNING,1.0,17,1.0,583.0,,,,,,,,,,17.0,17.0,17.0,cue2.png,Easy,B,,,,,,,,,,,,,,,,,,,,,,,,,,,54,26,Male,1.8571428571428572,1.25,0.8,1.25,3.111111111111111,3.25,3.111111111111111,2.888888888888889,0.625,3.6666666666666665,1.75,1.75,2.75,0.5,1.0,1.0,0.5042076999942462,-0.14513129194234162,,,0.004925104171250395,-0.643652928668366,0.013774044977644201,-0.11467839051509247,,,,,,,,,,,,,,,,,,,,,,,,,,
17,240802_153254,LEARNING,1.0,18,3.0,583.0,,,,,,,,,,18.0,18.0,18.0,cue1.png,Hard,B,,,,,,,,,,,,,,,,,,,,,,,,,,,54,26,Male,1.8571428571428572,1.25,0.8,1.25,3.111111111111111,3.25,3.111111111111111,2.888888888888889,0.625,3.6666666666666665,1.75,1.75,2.75,0.5,0.8920454545454546,0.9090909090909092,0.5939650799846277,0.956498714651373,,,0.007326259516958658,-0.06011201001371366,0.012042819483672366,-0.5881043125086253,0.015081719001474172,0.16460073128849279,,,,,,,,,,,,,,,,,,,,,,,,
18,240802_153323,LEARNING,1.0,19,3.0,583.0,,,,,,,,,,19.0,19.0,19.0,cue1.png,Hard,B,,,,,,,,,,,,,,,,,,,,,,,,,,,54,26,Male,1.8571428571428572,1.25,0.8,1.25,3.111111111111111,3.25,3.111111111111111,2.888888888888889,0.625,3.6666666666666665,1.75,1.75,2.75,0.5,0.0151515151515151,0.7272727272727273,0.6818963466444984,2.0357160657002513,0.004629874379438357,-1.146434730360302,0.00618637903648544,-0.33713153060439227,0.013732216584581526,-0.1261169036493769,,,,,,,,,,,,,,,,,,,,,,,,,,
19,240802_153348,LEARNING,1.0,20,3.0,583.0,,,,,,,,,,20.0,20.0,20.0,cue1.png,Hard,B,,,,,,,,,,,,,,,,,,,,,,,,,,,54,26,Male,1.8571428571428572,1.25,0.8,1.25,3.111111111111111,3.25,3.111111111111111,2.888888888888889,0.625,3.6666666666666665,1.75,1.75,2.75,0.5,0.075,0.5333333333333333,0.4111298928702516,-1.2875142947296636,0.0056132699891857695,-0.690706598920154,0.003765938326911533,-0.9253592759430666,,,0.012249192534576264,-0.5238665085891304,2.665074301007461e+43,-0.20678872610964125,,,,,,,,,,,,,,,,,,,,,,
20,240802_153413,LEARNING,1.0,21,1.0,583.0,,,,,,,,,,21.0,21.0,21.0,cue2.png,Easy,B,,,,,,,,,,,,,,,,,,,,,,,,,,,54,26,Male,1.8571428571428572,1.25,0.8,1.25,3.111111111111111,3.25,3.111111111111111,2.888888888888889,0.625,3.6666666666666665,1.75,1.75,2.75,0.5,1.0,1.0,0.4047539200012882,-1.3657692865134057,0.006411991013105656,-0.3205609157739117,,,0.022020837852862907,2.1405133993671503,0.013146516676413783,-0.30576500718180044,2.0077065335394278e+43,-0.20690239781350497,1.4621215615052768e+43,0.48083872208784806,,,,,,,,,,,,,,,,,,,,
21,240802_153439,LEARNING,1.0,22,3.0,583.0,,,,,,,,,,22.0,22.0,22.0,cue1.png,Hard,B,,,,,,,,,,,,,,,,,,,,,,,,,,,54,26,Male,1.8571428571428572,1.25,0.8,1.25,3.111111111111111,3.25,3.111111111111111,2.888888888888889,0.625,3.6666666666666665,1.75,1.75,2.75,0.5,0.77,0.8,0.5008361333282665,-0.18651194508609867,0.005008112912165164,-0.9711502995069592,,,0.012081230984163617,-0.5776001926822096,,,7.810163439364087e+42,-0.2071145164643816,5.716679337945211e+42,0.24170578974339063,,,,,,,,,,,,,,,,,,,,
22,240802_153507,LEARNING,1.0,23,3.0,583.0,,,,,,,,,,23.0,23.0,23.0,cue1.png,Hard,B,,,,,,,,,,,,,,,,,,,,,,,,,,,54,26,Male,1.8571428571428572,1.25,0.8,1.25,3.111111111111111,3.25,3.111111111111111,2.888888888888889,0.625,3.6666666666666665,1.75,1.75,2.75,0.5,0.8068181818181819,0.7757575757575758,0.5650062769060381,0.6010751669739414,,,0.005341762935937569,-0.5423944079543103,0.015165964521283689,0.2659599466529382,0.013243490063194835,-0.28219488322392877,-4.4910625781933044e+42,-0.20732722864624203,-4.9511068958322285e+42,-0.0447795391181902,,,,,,,,,,,,,,,,,,,,
23,240802_153533,LEARNING,1.0,24,3.0,583.0,,,,,,,,,,24.0,24.0,24.0,cue1.png,Hard,B,,,,,,,,,,,,,,,,,,,,,,,,,,,54,26,Male,1.8571428571428572,1.25,0.8,1.25,3.111111111111111,3.25,3.111111111111111,2.888888888888889,0.625,3.6666666666666665,1.75,1.75,2.75,0.5,0.1590909090909091,0.5696969696969697,0.4463276785681955,-0.8555170941132322,0.007249151439838878,0.06739847026479706,0.00406089340143714,-0.8536778016652102,0.014401674536432048,0.05695500072952874,0.013197925197153607,-0.2932697726999495,-1.6100981688345814e+43,-0.2075279867838146,-1.218807810627293e+43,-0.2391297099737184,,,,,,,,,,,,,,,,,,,,
24,240802_153558,LEARNING,1.0,25,1.0,583.0,,,,,,,,,,25.0,25.0,25.0,cue2.png,Easy,B,,,,,,,,,,,,,,,,,,,,,,,,,,,54,26,Male,1.8571428571428572,1.25,0.8,1.25,3.111111111111111,3.25,3.111111111111111,2.888888888888889,0.625,3.6666666666666665,1.75,1.75,2.75,0.5,1.0,1.0,0.4315617466500649,-1.0367455755826744,,,0.00823609484747788,0.16100077452336528,0.016980352325374252,0.7621276740786129,0.014984111171381372,0.14087640102723709,-2.0729893722065164e+43,-0.2076080296979865,-1.5874094879293622e+43,-0.3381183571275724,,,,,,,,,,,,,,,,,,,,
25,240802_153626,LEARNING,1.0,26,1.0,583.0,,,,,,,,,,26.0,26.0,26.0,cue2.png,Easy,B,,,,,,,,,,,,,,,,,,,,,,,,,,,54,26,Male,1.8571428571428572,1.25,0.8,1.25,3.111111111111111,3.25,3.111111111111111,2.888888888888889,0.625,3.6666666666666665,1.75,1.75,2.75,0.5,1.0,1.0,0.6141396200051531,1.204109314005078,,,0.007452791531839781,-0.029361559679491278,0.012296861691857397,-0.5186331967850787,0.01345344774753701,-0.2311630608846092,-1.9071260515889327e+43,-0.20757934869597186,-1.4507204091307406e+43,-0.3014102577775694,,,,,,,,,,,,,,,,,,,,
26,240802_153652,LEARNING,1.0,27,3.0,583.0,,,,,,,,,,27.0,27.0,27.0,cue1.png,Hard,B,,,,,,,,,,,,,,,,,,,,,,,,,,,54,26,Male,1.8571428571428572,1.25,0.8,1.25,3.111111111111111,3.25,3.111111111111111,2.888888888888889,0.625,3.6666666666666665,1.75,1.75,2.75,0.5,0.7386363636363636,0.8181818181818181,0.5555908199865371,0.485515311400793,,,,,0.013846115917237998,-0.094969663289817,0.015434195346619274,0.25027280507143046,,,9.580431690931004e+42,0.3454675580454245,,,,,,,,,,,,,,,,,,,,
27,240802_153718,LEARNING,1.0,28,1.0,583.0,,,,,,,,,,28.0,28.0,28.0,cue2.png,Easy,B,,,,,,,,,,,,,,,,,,,,,,,,,,,54,26,Male,1.8571428571428572,1.25,0.8,1.25,3.111111111111111,3.25,3.111111111111111,2.888888888888889,0.625,3.6666666666666665,1.75,1.75,2.75,0.5,1.0,1.0,0.463981333336172,-0.6388463777829076,0.006817723044191183,-0.1325353657722027,,,0.013207294334839961,-0.26966365762460615,0.01935197925988967,1.2025201745938705,-2.7331943679335123e+42,-0.20729683167752577,-1.5924183131274503e+42,0.045418650278701844,,,,,,,,,,,,,,,,,,,,
28,240802_153744,LEARNING,1.0,29,1.0,583.0,,,,,,,,,,29.0,29.0,29.0,cue2.png,Easy,B,,,,,,,,,,,,,,,,,,,,,,,,,,,54,26,Male,1.8571428571428572,1.25,0.8,1.25,3.111111111111111,3.25,3.111111111111111,2.888888888888889,0.625,3.6666666666666665,1.75,1.75,2.75,0.5,1.0,1.0,0.4870453933641935,-0.35577148629799626,0.011871583317359796,2.2095396608209152,0.0051807629352509064,-0.5815214425595546,0.00981106159086003,-1.1984072694313546,0.009221873049453759,-1.2596796826254526,8.724727009292284e+42,-0.2070987018771094,5.990561563718652e+42,0.24906094645543717,,,,,,,,,,,,,,,,,,,,
29,240802_153813,LEARNING,1.0,30,3.0,583.0,,,,,,,,,,30.0,30.0,30.0,cue1.png,Hard,B,,,,,,,,,,,,,,,,,,,,,,,,,,,54,26,Male,1.8571428571428572,1.25,0.8,1.25,3.111111111111111,3.25,3.111111111111111,2.888888888888889,0.625,3.6666666666666665,1.75,1.75,2.75,0.5,0.075,0.6,0.6971548133529722,2.2229896334276886,,,0.005045572914051298,-0.6143760053868887,,,0.012692342954395454,-0.41615540687516933,1.5272110483203656e+43,-0.20698548485124343,1.1135216604398165e+43,0.38722158812087915,,,,,,,,,,,,,,,,,,,,
30,240802_153841,LEARNING,1.0,31,3.0,583.0,,,,,,,,,,31.0,31.0,31.0,cue1.png,Hard,B,,,,,,,,,,,,,,,,,,,,,,,,,,,54,26,Male,1.8571428571428572,1.25,0.8,1.25,3.111111111111111,3.25,3.111111111111111,2.888888888888889,0.625,3.6666666666666665,1.75,1.75,2.75,0.5,0.77,0.8,0.6387569600250572,1.5062482629288636,0.007708049079897363,0.28006218561315327,,,0.01736614676341751,0.8676281349755784,0.009043129920349764,-1.3031245683765422,,,1.3583320562470983e+43,0.4529658627197791,,,,,,,,,,,,,,,,,,,,
31,240802_153911,LEARNING,1.0,32,1.0,583.0,,,,,,,,,,32.0,32.0,32.0,cue2.png,Easy,B,,,,,,,,,,,,,,,,,,,,,,,,,,,54,26,Male,1.8571428571428572,1.25,0.8,1.25,3.111111111111111,3.25,3.111111111111111,2.888888888888889,0.625,3.6666666666666665,1.75,1.75,2.75,0.5,0.2045454545454545,0.3515151515151514,0.5059444249782246,-0.123815737101541,0.009431579865543313,1.0787859714797043,0.005975769412742403,-0.38831494676119704,0.013806699845766974,-0.10574849599676886,0.011219683034451557,-0.7740966731654515,1.6241207325729926e+43,-0.2069687272773631,1.2159188867826474e+43,0.41472054846792394,,,,,,,,,,,,,,,,,,,,
32,240802_153937,LEARNING,1.0,33,1.0,583.0,,,,,,,,,,33.0,33.0,33.0,cue2.png,Easy,B,,,,,,,,,,,,,,,,,,,,,,,,,,,54,26,Male,1.8571428571428572,1.25,0.8,1.25,3.111111111111111,3.25,3.111111111111111,2.888888888888889,0.625,3.6666666666666665,1.75,1.75,2.75,0.5,1.0,1.0,0.469580340005147,-0.5701274183578201,,,0.00600537724731997,-0.38111950102727177,0.017458694618274675,0.8929365385699344,0.011503313124421677,-0.7051582086991958,1.0510655364489631e+43,-0.20706781969377755,7.548065656071e+42,0.2908880005716895,,,,,,,,,,,,,,,,,,,,
33,240802_154003,LEARNING,1.0,34,1.0,583.0,,,,,,,,,,34.0,34.0,34.0,cue2.png,Easy,B,,,,,,,,,,,,,,,,,,,,,,,,,,,54,26,Male,1.8571428571428572,1.25,0.8,1.25,3.111111111111111,3.25,3.111111111111111,2.888888888888889,0.625,3.6666666666666665,1.75,1.75,2.75,0.5,1.0,1.0,0.5116442666621879,-0.05385918720491396,0.007500885048648984,0.1840576113333457,0.006050017927428072,-0.3702706971270116,0.01297702072837012,-0.33263494289816625,0.01072841288296168,-0.8935036440033656,4.719145969017016e+41,-0.20724140909444036,4.568872336452002e+41,0.10045312140881325,,,,,,,,,,,,,,,,,,,,
34,240802_154030,LEARNING,1.0,35,3.0,583.0,,,,,,,,,,35.0,35.0,35.0,cue1.png,Hard,B,,,,,,,,,,,,,,,,,,,,,,,,,,,54,26,Male,1.8571428571428572,1.25,0.8,1.25,3.111111111111111,3.25,3.111111111111111,2.888888888888889,0.625,3.6666666666666665,1.75,1.75,2.75,0.5,0.7386363636363636,0.8181818181818181,0.5906867733458057,0.9162626809733767,0.013420546402017952,2.9273647611610953,0.005565628003547147,-0.48798958677475995,0.009919480617194342,-1.1687586894614495,0.015478606820412587,0.26106735373274104,,,-6.111143372841385e+42,-0.07593252853178846,,,,,,,,,,,,,,,,,,,,
35,240802_154057,LEARNING,1.0,36,3.0,583.0,,,,,,,,,,36.0,36.0,36.0,cue1.png,Hard,B,,,,,,,,,,,,,,,,,,,,,,,,,,,54,26,Male,1.8571428571428572,1.25,0.8,1.25,3.111111111111111,3.25,3.111111111111111,2.888888888888889,0.625,3.6666666666666665,1.75,1.75,2.75,0.5,0.8920454545454546,0.9090909090909092,0.5626042533433064,0.571594123370241,0.00565069703465973,-0.673362045690397,,,0.012481414048878849,-0.4681649763925353,0.009935367557258181,-1.0862593809278238,-1.3875313025828993e+43,-0.2074895006331962,-1.0555487917901132e+43,-0.1952862051675419,,,,,,,,,,,,,,,,,,,,
36,240802_154123,LEARNING,1.0,37,1.0,583.0,,,,,,,,,,37.0,37.0,37.0,cue2.png,Easy,B,,,,,,,,,,,,,,,,,,,,,,,,,,,54,26,Male,1.8571428571428572,1.25,0.8,1.25,3.111111111111111,3.25,3.111111111111111,2.888888888888889,0.625,3.6666666666666665,1.75,1.75,2.75,0.5,0.905,0.9,0.4450264466926455,-0.8714876592054361,0.014351236194835647,3.358667805456939,0.007149319396152851,-0.10311289324537717,0.010707901857057268,-0.9531547408706471,0.014940392890318961,0.13025033816534426,-1.6292200046733508e+43,-0.20753129332205447,-1.2397543677939479e+43,-0.24475494578825546,,,,,,,,,,,,,,,,,,,,
37,240802_154152,LEARNING,1.0,38,3.0,583.0,,,,,,,,,,38.0,38.0,38.0,cue1.png,Hard,B,,,,,,,,,,,,,,,,,,,,,,,,,,,54,26,Male,1.8571428571428572,1.25,0.8,1.25,3.111111111111111,3.25,3.111111111111111,2.888888888888889,0.625,3.6666666666666665,1.75,1.75,2.75,0.5,0.835,0.6333333333333333,0.6226265818325125,1.3082733595112688,0.004790206983326379,-1.072132916060369,,,0.009378211483387328,-1.3167757095501078,0.010624516906927058,-0.9187563562695579,-1.3001833244696448e+43,-0.20747439646473442,-1.0325486934517021e+43,-0.1891094871569531,,,,,,,,,,,,,,,,,,,,
38,240802_154220,LEARNING,1.0,39,3.0,583.0,,,,,,,,,,39.0,39.0,39.0,cue1.png,Hard,B,,,,,,,,,,,,,,,,,,,,,,,,,,,54,26,Male,1.8571428571428572,1.25,0.8,1.25,3.111111111111111,3.25,3.111111111111111,2.888888888888889,0.625,3.6666666666666665,1.75,1.75,2.75,0.5,0.5875,0.4999999999999999,0.4940777666827974,-0.2694602162255714,0.007490629991059798,0.17930518190758166,0.00968019309464534,0.5119528356991933,,,,,,,-3.311935339891966e+42,-0.0007592904955468346,,,,,,,,,,,,,,,,,,,,
39,240802_154247,LEARNING,1.0,40,3.0,583.0,,,,,,,,,,40.0,40.0,40.0,cue1.png,Hard,B,,,,,,,,,,,,,,,,,,,,,,,,,,,54,26,Male,1.8571428571428572,1.25,0.8,1.25,3.111111111111111,3.25,3.111111111111111,2.888888888888889,0.625,3.6666666666666665,1.75,1.75,2.75,0.5,0.8068181818181819,0.8424242424242424,0.5110866571610261,-0.06070296270847045,0.007950435905172224,0.39238981233155473,0.029021763357387195,5.212439082670735,0.010286833326204625,-1.06830135703099,0.011214648560544323,-0.775320340585917,4.0380002342477693e+42,-0.2071797445208817,2.961880119904978e+42,0.16772515846405303,,,,,,,,,,,,,,,,,,,,
40,240802_154312,LEARNING,1.0,41,1.0,583.0,,,,,,,,,,41.0,41.0,41.0,cue2.png,Easy,B,,,,,,,,,,,,,,,,,,,,,,,,,,,54,26,Male,1.8571428571428572,1.25,0.8,1.25,3.111111111111111,3.25,3.111111111111111,2.888888888888889,0.625,3.6666666666666665,1.75,1.75,2.75,0.5,1.0,0.9333333333333332,0.4118193571505669,-1.279052210166241,0.004827975333344669,-1.0546301944590046,,,0.008438523513409905,-1.5737454948968745,,,1.2756839832757238e+43,-0.20702897878487758,9.402588966726996e+42,0.34069155951932883,,,,,,,,,,,,,,,,,,,,
41,240802_154339,LEARNING,1.0,42,3.0,583.0,,,,,,,,,,42.0,42.0,42.0,cue1.png,Hard,B,,,,,,,,,,,,,,,,,,,,,,,,,,,54,26,Male,1.8571428571428572,1.25,0.8,1.25,3.111111111111111,3.25,3.111111111111111,2.888888888888889,0.625,3.6666666666666665,1.75,1.75,2.75,0.5,0.675,0.7333333333333334,0.5025891571422108,-0.1649963478625466,0.006412063101673079,-0.32052750827462645,,,0.009828162295554946,-1.193730861352153,,,,,1.234287629498544e+43,0.41965350754904535,,,,,,,,,,,,,,,,,,,,
42,240802_154408,LEARNING,1.0,43,3.0,583.0,,,,,,,,,,43.0,43.0,43.0,cue1.png,Hard,B,,,,,,,,,,,,,,,,,,,,,,,,,,,54,26,Male,1.8571428571428572,1.25,0.8,1.25,3.111111111111111,3.25,3.111111111111111,2.888888888888889,0.625,3.6666666666666665,1.75,1.75,2.75,0.5,1.0,1.0,0.6997923066761965,2.255360696256904,0.0050975176974035995,-0.9297180668280018,0.014917021161579844,1.7846332836666425,,,,,1.3705284978985307e+43,-0.2070125783190914,1.0008333311972026e+43,0.35695893347589497,,,,,,,,,,,,,,,,,,,,
43,240802_154434,LEARNING,1.0,44,1.0,583.0,,,,,,,,,,44.0,44.0,44.0,cue2.png,Easy,B,,,,,,,,,,,,,,,,,,,,,,,,,,,54,26,Male,1.8571428571428572,1.25,0.8,1.25,3.111111111111111,3.25,3.111111111111111,2.888888888888889,0.625,3.6666666666666665,1.75,1.75,2.75,0.5,1.0,1.0,0.4906182933288316,-0.3119197850559953,,,,,,,0.01129030907319204,-0.7569304738294923,,,,,,,,,,,,,,,,,,,,,,,,
44,240802_154458,LEARNING,1.0,45,1.0,583.0,,,,,,,,,,45.0,45.0,45.0,cue2.png,Easy,B,,,,,,,,,,,,,,,,,,,,,,,,,,,54,26,Male,1.8571428571428572,1.25,0.8,1.25,3.111111111111111,3.25,3.111111111111111,2.888888888888889,0.625,3.6666666666666665,1.75,1.75,2.75,0.5,1.0,1.0,0.3968571133135507,-1.462690110231898,0.006452595329379907,-0.3017439422175398,0.00616849308363011,-0.3414782653455942,0.01229114362415305,-0.5201968760887732,,,-8.100925687712003e+42,-0.20738965021764857,-5.490706291116063e+42,-0.05927057847947111,,,,,,,,,,,,,,,,,,,,
45,240802_154523,LEARNING,1.0,46,1.0,583.0,,,,,,,,,,46.0,46.0,46.0,cue2.png,Easy,B,,,,,,,,,,,,,,,,,,,,,,,,,,,54,26,Male,1.8571428571428572,1.25,0.8,1.25,3.111111111111111,3.25,3.111111111111111,2.888888888888889,0.625,3.6666666666666665,1.75,1.75,2.75,0.5,1.0,1.0,0.44075470000195,-0.9239165997063942,0.0070807869611548705,-0.010625499448943136,0.007596097478823494,0.005465376487308233,0.011432988766804389,-0.75487038105284,0.013784892600377357,-0.15060285229579273,-1.6687367043082695e+43,-0.2075381265298886,-1.3053532791755633e+43,-0.26237165209290475,,,,,,,,,,,,,,,,,,,,
46,240802_154549,LEARNING,1.0,47,3.0,583.0,,,,,,,,,,47.0,47.0,47.0,cue1.png,Hard,B,,,,,,,,,,,,,,,,,,,,,,,,,,,54,26,Male,1.8571428571428572,1.25,0.8,1.25,3.111111111111111,3.25,3.111111111111111,2.888888888888889,0.625,3.6666666666666665,1.75,1.75,2.75,0.5,0.0151515151515151,0.6606060606060606,0.4588384285702237,-0.7019674070713021,0.00568329534942876,-0.6582552372701279,,,0.011142899838623911,-0.8341989369008008,,,-1.4102000807717409e+43,-0.20749342050692407,,,,,,,,,,,,,,,,,,,,,,
47,240802_154615,LEARNING,1.0,48,3.0,583.0,,,,,,,,,,48.0,48.0,48.0,cue1.png,Hard,B,,,,,,,,,,,,,,,,,,,,,,,,,,,54,26,Male,1.8571428571428572,1.25,0.8,1.25,3.111111111111111,3.25,3.111111111111111,2.888888888888889,0.625,3.6666666666666665,1.75,1.75,2.75,0.5,0.8920454545454546,0.9090909090909092,0.4648931466586267,-0.6276553100786624,0.0052663046349408485,-0.8514983199703636,0.0068375071823782016,-0.17889107477745506,0.0077585924978951105,-1.7596813935033488,0.014192665153187595,-0.051490611964788185,2.7508366576209023e+42,-0.2072020020887375,5.253297051089708e+42,0.22926157461484817,,,,,,,,,,,,,,,,,,,,
48,240802_154640,LEARNING,1.0,49,1.0,583.0,,,,,,,,,,49.0,49.0,49.0,cue2.png,Easy,B,,,,,,,,,,,,,,,,,,,,,,,,,,,54,26,Male,1.8571428571428572,1.25,0.8,1.25,3.111111111111111,3.25,3.111111111111111,2.888888888888889,0.625,3.6666666666666665,1.75,1.75,2.75,0.5,1.0,1.0,0.4658719666535035,-0.6156418413530184,0.004319555674047638,-1.2902435519137785,,,,,0.015764471021833707,0.3305488360885819,,,,,,,,,,,,,,,,,,,,,,,,
49,240802_154705,LEARNING,1.0,50,1.0,583.0,,,,,,,,,,50.0,50.0,50.0,cue2.png,Easy,B,,,,,,,,,,,,,,,,,,,,,,,,,,,54,26,Male,1.8571428571428572,1.25,0.8,1.25,3.111111111111111,3.25,3.111111111111111,2.888888888888889,0.625,3.6666666666666665,1.75,1.75,2.75,0.5,1.0,1.0,0.4351609933422878,-0.9925705098921339,0.006168515497081953,-0.43339306681168976,0.006945520840071353,-0.15264104928444858,0.014665431281753186,0.12908268182622643,0.010751877672232542,-0.88780034735551,-5.053381752131942e+42,-0.20733695224112758,-9.413168743695427e+42,-0.1646090171253768,,,,,,,,,,,,,,,,,,,,
0,240802_154901,TrueCHOICE,9.0,1,1.0,583.0,,,,,,,,,,,1.0,1.0,,,B,,,,,,True,cue2.png,Easy,cue1.png,Hard,Left,Easy,Easy,0.0164970000041648,,,,,,,,,,,,,54,26,Male,1.8571428571428572,1.25,0.8,1.25,3.111111111111111,3.25,3.111111111111111,2.888888888888889,0.625,3.6666666666666665,1.75,1.75,2.75,0.5,1.0,0.9333333333333332,0.3907938142656348,-0.47426154102823864,,,,,,,,,,,,,,,,,153571650.5103908,-0.6369322337125783,,,,,,,,,,,,,,
1,240802_154925,TrueCHOICE,9.0,2,1.0,583.0,,,,,,,,,,,2.0,2.0,,,B,,,,,,True,cue2.png,Easy,cue1.png,Hard,Left,Easy,Easy,0.0161126999882981,,,,,,,,,,,,,54,26,Male,1.8571428571428572,1.25,0.8,1.25,3.111111111111111,3.25,3.111111111111111,2.888888888888889,0.625,3.6666666666666665,1.75,1.75,2.75,0.5,1.0,1.0,0.4254249133247261,0.0437817714796188,,,,,,,,,,,,,0.006775623165272903,0.38509932013070436,0.016044663091724958,0.65375190815288,5039521.258113585,-0.6418999265171589,,,,,,,,,,,,,,
2,240802_154954,TrueCHOICE,9.0,3,1.0,583.0,,,,,,,,,,,4.0,3.0,,,B,,,,,,True,cue1.png,Hard,cue2.png,Easy,Right,Easy,Easy,0.0162867000326514,,,,,,,,,,,,,54,26,Male,1.8571428571428572,1.25,0.8,1.25,3.111111111111111,3.25,3.111111111111111,2.888888888888889,0.625,3.6666666666666665,1.75,1.75,2.75,0.5,0.905,0.8333333333333334,0.3487674785594988,-1.1029294942059633,,,,,,,,,,,,,0.006632348624992548,0.23415098656307293,,,,,,,,,,,,,,,,,,
3,240802_155018,TrueCHOICE,9.0,4,3.0,583.0,,,,,,,,,,,5.0,4.0,,,B,,,,,,True,cue2.png,Easy,cue1.png,Hard,Right,Hard,Hard,0.0164674000116065,,,,,,,,,,,,,54,26,Male,1.8571428571428572,1.25,0.8,1.25,3.111111111111111,3.25,3.111111111111111,2.888888888888889,0.625,3.6666666666666665,1.75,1.75,2.75,0.5,0.8920454545454546,0.9090909090909092,0.4806594066787511,0.8700292969476477,,,,,,,,,,,,,,,,,,,,,,,,,,,,,,,,
4,240802_155040,TrueCHOICE,9.0,5,1.0,583.0,,,,,,,,,,,6.0,5.0,,,B,,,,,,True,cue1.png,Hard,cue2.png,Easy,Right,Easy,Easy,0.0156741000246256,,,,,,,,,,,,,54,26,Male,1.8571428571428572,1.25,0.8,1.25,3.111111111111111,3.25,3.111111111111111,2.888888888888889,0.625,3.6666666666666665,1.75,1.75,2.75,0.5,1.0,0.9333333333333332,0.3701441857182154,-0.7831573677679249,,,,,,,,,,,,,0.0077084219479617655,1.3678588636286464,0.01807387807559487,1.3335542000641103,70826676043.51024,1.7267467489953714,,,,,,,,,,,,,,
5,240802_155104,TrueCHOICE,9.0,6,1.0,583.0,,,,,,,,,,,7.0,6.0,,,B,,,,,,True,cue1.png,Hard,cue2.png,Easy,Right,Easy,Easy,0.016621800023131,,,,,,,,,,,,,54,26,Male,1.8571428571428572,1.25,0.8,1.25,3.111111111111111,3.25,3.111111111111111,2.888888888888889,0.625,3.6666666666666665,1.75,1.75,2.75,0.5,1.0,1.0,0.4694564066594466,0.702444686649161,,,,,,,,,,,,,,,,,,,,,,,,,,,,,,,,
6,240802_155129,TrueCHOICE,9.0,7,3.0,583.0,,,,,,,,,,,8.0,7.0,,,B,,,,,,True,cue2.png,Easy,cue1.png,Hard,Right,Hard,Hard,0.0168408999452367,,,,,,,,,,,,,54,26,Male,1.8571428571428572,1.25,0.8,1.25,3.111111111111111,3.25,3.111111111111111,2.888888888888889,0.625,3.6666666666666665,1.75,1.75,2.75,0.5,0.77,0.7333333333333334,0.5818826499910627,2.3842181530051274,,,,,,,,,,,,,,,,,,,,,,,,,,,,,,,,
7,240802_155152,TrueCHOICE,9.0,8,1.0,583.0,,,,,,,,,,,9.0,8.0,,,B,,,,,,True,cue1.png,Hard,cue2.png,Easy,Right,Easy,Easy,0.0166110000573098,,,,,,,,,,,,,54,26,Male,1.8571428571428572,1.25,0.8,1.25,3.111111111111111,3.25,3.111111111111111,2.888888888888889,0.625,3.6666666666666665,1.75,1.75,2.75,0.5,1.0,0.9333333333333332,0.3677192785876936,-0.8194313225816591,,,,,,,,,,,,,0.0048123634513629835,-1.6833127061461057,0.009385478534397853,-1.5771250370279328,,,,,,,,,,,,,,,,
8,240802_155214,TrueCHOICE,9.0,9,1.0,583.0,,,,,,,,,,,10.0,9.0,,,B,,,,,,True,cue2.png,Easy,cue1.png,Hard,Left,Easy,Easy,0.0160538000054657,,,,,,,,,,,,,54,26,Male,1.8571428571428572,1.25,0.8,1.25,3.111111111111111,3.25,3.111111111111111,2.888888888888889,0.625,3.6666666666666665,1.75,1.75,2.75,0.5,1.0,1.0,0.394308193346175,-0.4216902790770987,,,,,,,,,,,,,,,0.012484730130094098,-0.5388524268258225,5805127488.329885,-0.4479145887656344,,,,,,,,,,,,,,
9,240802_155238,TrueCHOICE,9.0,10,1.0,583.0,,,,,,,,,,,11.0,10.0,,,B,,,,,,True,cue1.png,Hard,cue2.png,Easy,Right,Easy,Easy,0.0165432000067085,,,,,,,,,,,,,54,26,Male,1.8571428571428572,1.25,0.8,1.25,3.111111111111111,3.25,3.111111111111111,2.888888888888889,0.625,3.6666666666666665,1.75,1.75,2.75,0.5,1.0,1.0,0.3958247733380025,-0.3990039034206728,,,,,,,,,,,,,0.006121748925889926,-0.30379646417631617,0.014477293670376317,0.1286713556367684,,,,,,,,,,,,,,,,
0,240802_155455,FalseCHOICE,9.0,1,2.0,583.0,,,,,,,,,,,1.0,1.0,,,B,,,,,,False,cue2.png,Easy,cue1.png,Hard,Left,Easy,Mid,0.0161293999990448,,,,,,,,,,,,,54,26,Male,1.8571428571428572,1.25,0.8,1.25,3.111111111111111,3.25,3.111111111111111,2.888888888888889,0.625,3.6666666666666665,1.75,1.75,2.75,0.5,0.8920454545454546,0.8424242424242424,0.511959250001902,0.8006517306183626,,,,,,,,,,,,,,,,,,,0.008293423671390849,-0.24557022475771792,0.019493273825201936,1.146495453477162,1.573232845029856e+45,-0.16728500231140417,,,,,,,,
1,240802_155520,FalseCHOICE,9.0,2,2.0,583.0,,,,,,,,,,,2.0,2.0,,,B,,,,,,False,cue1.png,Hard,cue2.png,Easy,Right,Easy,Mid,0.0167517999652773,,,,,,,,,,,,,54,26,Male,1.8571428571428572,1.25,0.8,1.25,3.111111111111111,3.25,3.111111111111111,2.888888888888889,0.625,3.6666666666666665,1.75,1.75,2.75,0.5,0.0151515151515151,0.7272727272727273,0.5268692466663196,0.9549178837958919,,,,,,,,,,,,,,,,,,,0.04159811012203672,4.273108837456458,0.01096406027417324,-0.9924487260205288,5.820297058390201e+43,-0.16900866898093458,,,,,,,,
2,240802_155545,FalseCHOICE,9.0,3,2.0,583.0,,,,,,,,,,,3.0,3.0,,,B,,,,,,False,cue1.png,Hard,cue2.png,Easy,Left,Hard,Mid,0.0159749999875202,,,,,,,,,,,,,54,26,Male,1.8571428571428572,1.25,0.8,1.25,3.111111111111111,3.25,3.111111111111111,2.888888888888889,0.625,3.6666666666666665,1.75,1.75,2.75,0.5,0.7386363636363636,0.8181818181818181,0.5913624066549042,1.6221958129348866,,,,,,,,,,,,,,,,,,,,,0.015887657376092525,0.24228403103088625,-3.566741945827037e+44,-0.16948067943670758,,,,,,,,
3,240802_155608,FalseCHOICE,9.0,4,2.0,583.0,,,,,,,,,,,4.0,4.0,,,B,,,,,,False,cue1.png,Hard,cue2.png,Easy,Left,Hard,Mid,0.013921899953857,,,,,,,,,,,,,54,26,Male,1.8571428571428572,1.25,0.8,1.25,3.111111111111111,3.25,3.111111111111111,2.888888888888889,0.625,3.6666666666666665,1.75,1.75,2.75,0.5,0.905,0.9,0.4611466533193986,0.2749196329125396,,,,,,,,,,,,,,,,,,,0.007860169282703895,-0.3043528689862803,,,,,,,,,,,,
4,240802_155634,FalseCHOICE,9.0,5,2.0,583.0,,,,,,,,,,,5.0,5.0,,,B,,,,,,False,cue2.png,Easy,cue1.png,Hard,Left,Easy,Mid,0.0163023999193683,,,,,,,,,,,,,54,26,Male,1.8571428571428572,1.25,0.8,1.25,3.111111111111111,3.25,3.111111111111111,2.888888888888889,0.625,3.6666666666666665,1.75,1.75,2.75,0.5,0.835,0.8333333333333334,0.5301886642784146,0.989262209776171,,,,,,,,,,,,,,,,,,,0.006770593206480845,-0.4521832534462756,,,5.348592545735136e+48,5.916079508460708,,,,,,,,
5,240802_155704,FalseCHOICE,9.0,6,2.0,583.0,,,,,,,,,,,7.0,6.0,,,B,,,,,,False,cue1.png,Hard,cue2.png,Easy,Left,Hard,Mid,0.017284300061874,,,,,,,,,,,,,54,26,Male,1.8571428571428572,1.25,0.8,1.25,3.111111111111111,3.25,3.111111111111111,2.888888888888889,0.625,3.6666666666666665,1.75,1.75,2.75,0.5,0.875,0.8666666666666667,0.4971600846262075,0.6475322924232597,,,,,,,,,,,,,,,,,,,0.007753452521166602,-0.3188318762173037,0.020890142824637265,1.4968002967065361,1.0068651439580938e+42,-0.16907374163873273,,,,,,,,
6,240802_155730,FalseCHOICE,9.0,7,2.0,583.0,,,,,,,,,,,8.0,7.0,,,B,,,,,,False,cue1.png,Hard,cue2.png,Easy,Right,Easy,Mid,0.0162332999752834,,,,,,,,,,,,,54,26,Male,1.8571428571428572,1.25,0.8,1.25,3.111111111111111,3.25,3.111111111111111,2.888888888888889,0.625,3.6666666666666665,1.75,1.75,2.75,0.5,0.77,0.8,0.5244652933208271,0.9300454010332097,,,,,,,,,,,,,,,,,,,0.013973775751371958,0.5251227540773257,0.014540456394042955,-0.09556513664776296,,,,,,,,,,
7,240802_155759,FalseCHOICE,9.0,8,2.0,583.0,,,,,,,,,,,9.0,8.0,,,B,,,,,,False,cue2.png,Easy,cue1.png,Hard,Right,Hard,Mid,0.0166408000513911,,,,,,,,,,,,,54,26,Male,1.8571428571428572,1.25,0.8,1.25,3.111111111111111,3.25,3.111111111111111,2.888888888888889,0.625,3.6666666666666665,1.75,1.75,2.75,0.5,0.8068181818181819,0.709090909090909,0.6744189333209457,2.481539456896565,,,,,,,,,,,,,,,,,,,0.006154259972704544,-0.5358054812951648,0.008800127572336237,-1.5351167257988592,,,,,,,,,,
8,240802_155824,FalseCHOICE,9.0,9,2.0,583.0,,,,,,,,,,,10.0,9.0,,,B,,,,,,False,cue2.png,Easy,cue1.png,Hard,Right,Hard,Mid,0.0149997000116854,,,,,,,,,,,,,54,26,Male,1.8571428571428572,1.25,0.8,1.25,3.111111111111111,3.25,3.111111111111111,2.888888888888889,0.625,3.6666666666666665,1.75,1.75,2.75,0.5,0.7386363636363636,0.7515151515151515,0.4750678856923644,0.4189555447912504,,,,,,,,,,,,,,,,,,,,,,,,,,,,,,,,
9,240802_155851,FalseCHOICE,9.0,10,2.0,583.0,,,,,,,,,,,11.0,10.0,,,B,,,,,,False,cue1.png,Hard,cue2.png,Easy,Left,Hard,Mid,0.0161373999435454,,,,,,,,,,,,,54,26,Male,1.8571428571428572,1.25,0.8,1.25,3.111111111111111,3.25,3.111111111111111,2.888888888888889,0.625,3.6666666666666665,1.75,1.75,2.75,0.5,0.5875,0.5666666666666667,0.6205927846290601,1.9246276690572592,,,,,,,,,,,,,,,,,,,0.00508532912193594,-0.6808347840475168,0.015023838146237221,0.02565665937663388,,,,,,,,,,
10,240802_155916,FalseCHOICE,9.0,11,2.0,583.0,,,,,,,,,,,12.0,11.0,,,B,,,,,,False,cue2.png,Easy,cue1.png,Hard,Right,Hard,Mid,0.0158635999541729,,,,,,,,,,,,,54,26,Male,1.8571428571428572,1.25,0.8,1.25,3.111111111111111,3.25,3.111111111111111,2.888888888888889,0.625,3.6666666666666665,1.75,1.75,2.75,0.5,0.905,0.9,0.5239379200075442,0.924588937550371,,,,,,,,,,,,,,,,,,,,,,,6.781847974302243e+43,-0.16899772930711843,,,,,,,,
11,240802_155941,FalseCHOICE,9.0,12,2.0,583.0,,,,,,,,,,,13.0,12.0,,,B,,,,,,False,cue1.png,Hard,cue2.png,Easy,Right,Easy,Mid,0.0167106000008061,,,,,,,,,,,,,54,26,Male,1.8571428571428572,1.25,0.8,1.25,3.111111111111111,3.25,3.111111111111111,2.888888888888889,0.625,3.6666666666666665,1.75,1.75,2.75,0.5,0.7386363636363636,0.8181818181818181,0.5333176133222878,1.0216358543416828,,,,,,,,,,,,,,,,,,,0.012360252142903396,0.3062047541502084,0.01444795421910297,-0.11876270199127491,,,,,,,,,,
12,240802_160008,FalseCHOICE,9.0,13,2.0,583.0,,,,,,,,,,,14.0,13.0,,,B,,,,,,False,cue2.png,Easy,cue1.png,Hard,Left,Easy,Mid,0.0161487999139353,,,,,,,,,,,,,54,26,Male,1.8571428571428572,1.25,0.8,1.25,3.111111111111111,3.25,3.111111111111111,2.888888888888889,0.625,3.6666666666666665,1.75,1.75,2.75,0.5,0.9375,0.9333333333333332,0.562196299999154,1.3204289394596085,,,,,,,,,,,,,,,,,,,,,0.01015455078900306,-1.1954563762796897,,,,,,,,,,
13,240802_160034,FalseCHOICE,9.0,14,2.0,583.0,,,,,,,,,,,15.0,14.0,,,B,,,,,,False,cue1.png,Hard,cue2.png,Easy,Left,Hard,Mid,0.0161649000365287,,,,,,,,,,,,,54,26,Male,1.8571428571428572,1.25,0.8,1.25,3.111111111111111,3.25,3.111111111111111,2.888888888888889,0.625,3.6666666666666665,1.75,1.75,2.75,0.5,1.0,0.9333333333333332,0.5260477928511266,0.9464187189110829,,,,,,,,,,,,,,,,,,,0.0057755990437629474,-0.5871810501305766,0.011092180070715503,-0.9603190236214784,,,,,,,,,,
14,240802_160102,FalseCHOICE,9.0,15,2.0,583.0,,,,,,,,,,,16.0,15.0,,,B,,,,,,False,cue2.png,Easy,cue1.png,Hard,Right,Hard,Mid,0.0150272999890148,,,,,,,,,,,,,54,26,Male,1.8571428571428572,1.25,0.8,1.25,3.111111111111111,3.25,3.111111111111111,2.888888888888889,0.625,3.6666666666666665,1.75,1.75,2.75,0.5,0.8680555555555555,0.85,0.5668658714275807,1.3687426203721071,,,,,,,,,,,,,,,,,,,0.006469114200128307,-0.49308701261305576,0.009673877945583984,-1.3159988359710453,,,,,,,,,,
15,240802_160126,FalseCHOICE,9.0,16,2.0,583.0,,,,,,,,,,,17.0,16.0,,,B,,,,,,False,cue2.png,Easy,cue1.png,Hard,Right,Hard,Mid,0.0168577999575063,,,,,,,,,,,,,54,26,Male,1.8571428571428572,1.25,0.8,1.25,3.111111111111111,3.25,3.111111111111111,2.888888888888889,0.625,3.6666666666666665,1.75,1.75,2.75,0.5,0.77,0.8,0.5176013466669247,0.8590276355872732,,,,,,,,,,,,,,,,,,,,,0.008580252002335002,-1.5902568120276952,5.335793804812937e+42,-0.16906881656750253,,,,,,,,
16,240802_160155,FalseCHOICE,9.0,17,2.0,583.0,,,,,,,,,,,19.0,17.0,,,B,,,,,,False,cue1.png,Hard,cue2.png,Easy,Right,Easy,Mid,0.0168333000037819,,,,,,,,,,,,,54,26,Male,1.8571428571428572,1.25,0.8,1.25,3.111111111111111,3.25,3.111111111111111,2.888888888888889,0.625,3.6666666666666665,1.75,1.75,2.75,0.5,0.8920454545454546,0.9090909090909092,0.424450339966764,-0.1047584598544422,,,,,,,,,,,,,,,,,,,0.007361157157009133,-0.37205732395868796,0.011486149701974209,-0.8615198735429783,,,,,,,,,,
17,240802_160217,FalseCHOICE,9.0,18,2.0,583.0,,,,,,,,,,,20.0,18.0,,,B,,,,,,False,cue1.png,Hard,cue2.png,Easy,Left,Hard,Mid,0.0163917000172659,,,,,,,,,,,,,54,26,Male,1.8571428571428572,1.25,0.8,1.25,3.111111111111111,3.25,3.111111111111111,2.888888888888889,0.625,3.6666666666666665,1.75,1.75,2.75,0.5,0.905,0.9,0.3367413800287371,-1.012238464939336,,,,,,,,,,,,,,,,,,,0.007978283191558916,-0.28832753130023514,0.020988560892629324,1.521481441389991,,,,,,,,,,
18,240802_160238,FalseCHOICE,9.0,19,2.0,583.0,,,,,,,,,,,21.0,19.0,,,B,,,,,,False,cue2.png,Easy,cue1.png,Hard,Left,Easy,Mid,0.0161589999916031,,,,,,,,,,,,,54,26,Male,1.8571428571428572,1.25,0.8,1.25,3.111111111111111,3.25,3.111111111111111,2.888888888888889,0.625,3.6666666666666665,1.75,1.75,2.75,0.5,0.0151515151515151,0.7272727272727273,0.3023555800163497,-1.3680108511600568,,,,,,,,,,,,,,,,,,,0.006368640605068217,-0.5067189659111662,0.0181794475190661,0.8170159400885845,,,,,,,,,,
19,240802_160307,FalseCHOICE,9.0,20,2.0,583.0,,,,,,,,,,,23.0,20.0,,,B,,,,,,False,cue2.png,Easy,cue1.png,Hard,Right,Hard,Mid,0.0158028999576345,,,,,,,,,,,,,54,26,Male,1.8571428571428572,1.25,0.8,1.25,3.111111111111111,3.25,3.111111111111111,2.888888888888889,0.625,3.6666666666666665,1.75,1.75,2.75,0.5,0.5875,0.7,0.4709139400006582,0.37597678116099614,,,,,,,,,,,,,,,,,,,0.00757141017236683,-0.343530831157979,0.014337722886336324,-0.14640636060163464,3.413130155173058e+43,-0.16903605559178006,,,,,,,,
20,240802_160332,FalseCHOICE,9.0,21,2.0,583.0,,,,,,,,,,,24.0,21.0,,,B,,,,,,False,cue2.png,Easy,cue1.png,Hard,Right,Hard,Mid,0.016600799979642,,,,,,,,,,,,,54,26,Male,1.8571428571428572,1.25,0.8,1.25,3.111111111111111,3.25,3.111111111111111,2.888888888888889,0.625,3.6666666666666665,1.75,1.75,2.75,0.5,0.77,0.8,0.4617170266807079,0.28082099602512245,,,,,,,,,,,,,,,,,,,0.028792825010891965,2.535726508301078,0.019172061715713402,1.0659423323876087,9.971044798713788e+42,-0.16906354298988016,,,,,,,,
21,240802_160355,FalseCHOICE,9.0,22,2.0,583.0,,,,,,,,,,,25.0,22.0,,,B,,,,,,False,cue1.png,Hard,cue2.png,Easy,Right,Easy,Mid,0.0153657998889684,,,,,,,,,,,,,54,26,Male,1.8571428571428572,1.25,0.8,1.25,3.111111111111111,3.25,3.111111111111111,2.888888888888889,0.625,3.6666666666666665,1.75,1.75,2.75,0.5,0.8920454545454546,0.9090909090909092,0.4598877133413528,0.2618940211793052,,,,,,,,,,,,,,,,,,,,,,,-1.4457370973936065e+43,-0.16909133547553803,,,,,,,,
22,240802_160416,FalseCHOICE,9.0,23,2.0,583.0,,,,,,,,,,,26.0,23.0,,,B,,,,,,False,cue2.png,Easy,cue1.png,Hard,Left,Easy,Mid,0.0159221000503748,,,,,,,,,,,,,54,26,Male,1.8571428571428572,1.25,0.8,1.25,3.111111111111111,3.25,3.111111111111111,2.888888888888889,0.625,3.6666666666666665,1.75,1.75,2.75,0.5,0.77,0.8,0.3281569400026152,-1.1010573003702937,,,,,,,,,,,,,,,,,,,0.015287097346070594,0.7033102533265002,0.01600595894341788,0.27195153171452224,-3.3121208101973414e+43,-0.16911256953469803,,,,,,,,
23,240802_160437,FalseCHOICE,9.0,24,2.0,583.0,,,,,,,,,,,27.0,24.0,,,B,,,,,,False,cue1.png,Hard,cue2.png,Easy,Left,Hard,Mid,0.0163176999194547,,,,,,,,,,,,,54,26,Male,1.8571428571428572,1.25,0.8,1.25,3.111111111111111,3.25,3.111111111111111,2.888888888888889,0.625,3.6666666666666665,1.75,1.75,2.75,0.5,0.77,0.8,0.3421028400072828,-0.956766165050808,,,,,,,,,,,,,,,,,,,0.007390664160116647,-0.3680539030789209,0.01705443178111107,0.5348860754597423,-4.052231761938351e+43,-0.16912098986092913,,,,,,,,
24,240802_160501,FalseCHOICE,9.0,25,2.0,583.0,,,,,,,,,,,28.0,25.0,,,B,,,,,,False,cue1.png,Hard,cue2.png,Easy,Right,Easy,Mid,0.0154482000507414,,,,,,,,,,,,,54,26,Male,1.8571428571428572,1.25,0.8,1.25,3.111111111111111,3.25,3.111111111111111,2.888888888888889,0.625,3.6666666666666665,1.75,1.75,2.75,0.5,0.77,0.8,0.4818384400180851,0.48900702731109663,,,,,,,,,,,,,,,,,,,0.008125648337007792,-0.2683334743609279,0.014838803706163254,-0.020746017286924715,-3.555101427787556e+43,-0.16911533395273984,,,,,,,,
25,240802_160524,FalseCHOICE,9.0,26,2.0,583.0,,,,,,,,,,,29.0,26.0,,,B,,,,,,False,cue2.png,Easy,cue1.png,Hard,Right,Hard,Mid,0.0156191999558359,,,,,,,,,,,,,54,26,Male,1.8571428571428572,1.25,0.8,1.25,3.111111111111111,3.25,3.111111111111111,2.888888888888889,0.625,3.6666666666666665,1.75,1.75,2.75,0.5,0.77,0.8,0.4216908999951556,-0.13330898195886626,,,,,,,,,,,,,,,,,,,,,0.01781786830344947,0.7263396128934174,-2.431543006312415e+43,-0.16910255110116026,,,,,,,,
26,240802_160546,FalseCHOICE,9.0,27,2.0,583.0,,,,,,,,,,,30.0,27.0,,,B,,,,,,False,cue2.png,Easy,cue1.png,Hard,Right,Hard,Mid,0.0170370999258011,,,,,,,,,,,,,54,26,Male,1.8571428571428572,1.25,0.8,1.25,3.111111111111111,3.25,3.111111111111111,2.888888888888889,0.625,3.6666666666666665,1.75,1.75,2.75,0.5,0.8920454545454546,0.9090909090909092,0.4263490333221852,-0.08511364526480694,,,,,,,,,,,,,,,,,,,,,0.014238003305785788,-0.17141389677415733,8.641374544474635e+43,-0.1689765732624478,,,,,,,,
27,240802_160610,FalseCHOICE,9.0,28,2.0,583.0,,,,,,,,,,,31.0,28.0,,,B,,,,,,False,cue1.png,Hard,cue2.png,Easy,Right,Easy,Mid,0.0157771999947726,,,,,,,,,,,,,54,26,Male,1.8571428571428572,1.25,0.8,1.25,3.111111111111111,3.25,3.111111111111111,2.888888888888889,0.625,3.6666666666666665,1.75,1.75,2.75,0.5,0.7386363636363636,0.8181818181818181,0.4538615266870086,0.1995441324154795,,,,,,,,,,,,,,,,,,,0.008396418451215148,-0.23159620474107265,0.022444511872571144,1.8866027806024341,1.238561778433665e+43,-0.1690607959028117,,,,,,,,
28,240802_160632,FalseCHOICE,9.0,29,2.0,583.0,,,,,,,,,,,32.0,29.0,,,B,,,,,,False,cue2.png,Easy,cue1.png,Hard,Right,Hard,Mid,0.0167570000048726,,,,,,,,,,,,,54,26,Male,1.8571428571428572,1.25,0.8,1.25,3.111111111111111,3.25,3.111111111111111,2.888888888888889,0.625,3.6666666666666665,1.75,1.75,2.75,0.5,0.0151515151515151,0.7272727272727273,0.3425650133363281,-0.9519842926481655,,,,,,,,,,,,,,,,,,,0.005953851668400038,-0.562996273494833,0.013715024204615595,-0.3025658602880741,2.6444469103289116e+43,-0.16904480098823008,,,,,,,,
29,240802_160653,FalseCHOICE,9.0,30,2.0,583.0,,,,,,,,,,,33.0,30.0,,,B,,,,,,False,cue2.png,Easy,cue1.png,Hard,Right,Hard,Mid,0.0165090000955387,,,,,,,,,,,,,54,26,Male,1.8571428571428572,1.25,0.8,1.25,3.111111111111111,3.25,3.111111111111111,2.888888888888889,0.625,3.6666666666666665,1.75,1.75,2.75,0.5,0.905,0.9,0.2670624266611412,-1.7331711609947267,,,,,,,,,,,,,,,,,,,,,0.015700336579595985,0.19530798511903055,3.435582902324998e+43,-0.16903580014432942,,,,,,,,
30,240802_160714,FalseCHOICE,9.0,31,2.0,583.0,,,,,,,,,,,34.0,31.0,,,B,,,,,,False,cue1.png,Hard,cue2.png,Easy,Left,Hard,Mid,0.0164390000281855,,,,,,,,,,,,,54,26,Male,1.8571428571428572,1.25,0.8,1.25,3.111111111111111,3.25,3.111111111111111,2.888888888888889,0.625,3.6666666666666665,1.75,1.75,2.75,0.5,0.5875,0.7,0.2983161000146841,-1.4098052965056858,,,,,,,,,,,,,,,,,,,0.006753476586600599,-0.4545055846288063,0.013983365083361041,-0.23527171209024358,3.3036855700198845e+43,-0.16903730075523704,,,,,,,,
31,240802_160736,FalseCHOICE,9.0,32,2.0,583.0,,,,,,,,,,,35.0,32.0,,,B,,,,,,False,cue2.png,Easy,cue1.png,Hard,Left,Easy,Mid,0.0159651000285521,,,,,,,,,,,,,54,26,Male,1.8571428571428572,1.25,0.8,1.25,3.111111111111111,3.25,3.111111111111111,2.888888888888889,0.625,3.6666666666666665,1.75,1.75,2.75,0.5,0.7386363636363636,0.8181818181818181,0.376811119976143,-0.5976572427139764,,,,,,,,,,,,,,,,,,,0.0057491861437405966,-0.5907646724679381,0.01015071255054131,-1.1964189243233245,,,,,,,,,,
32,240802_160759,FalseCHOICE,9.0,33,2.0,583.0,,,,,,,,,,,36.0,33.0,,,B,,,,,,False,cue1.png,Hard,cue2.png,Easy,Left,Hard,Mid,0.016619800007902,,,,,,,,,,,,,54,26,Male,1.8571428571428572,1.25,0.8,1.25,3.111111111111111,3.25,3.111111111111111,2.888888888888889,0.625,3.6666666666666665,1.75,1.75,2.75,0.5,0.77,0.8,0.4448699199827388,0.10651255042570817,,,,,,,,,,,,,,,,,,,0.007515601185635412,-0.35110282557385064,0.022801021437463497,1.9760077479185336,8.739498923105728e+42,-0.16906494413358933,,,,,,,,
33,240802_160822,FalseCHOICE,9.0,34,2.0,583.0,,,,,,,,,,,37.0,34.0,,,B,,,,,,False,cue1.png,Hard,cue2.png,Easy,Left,Hard,Mid,0.0156942999456077,,,,,,,,,,,,,54,26,Male,1.8571428571428572,1.25,0.8,1.25,3.111111111111111,3.25,3.111111111111111,2.888888888888889,0.625,3.6666666666666665,1.75,1.75,2.75,0.5,0.7386363636363636,0.8181818181818181,0.3906226333463564,-0.4547565375603946,,,,,,,,,,,,,,,,,,,,,,,-8.45316146276234e+42,-0.1690845044182857,,,,,,,,
34,240802_160845,FalseCHOICE,9.0,35,2.0,583.0,,,,,,,,,,,38.0,35.0,,,B,,,,,,False,cue1.png,Hard,cue2.png,Easy,Right,Easy,Mid,0.0168598999734967,,,,,,,,,,,,,54,26,Male,1.8571428571428572,1.25,0.8,1.25,3.111111111111111,3.25,3.111111111111111,2.888888888888889,0.625,3.6666666666666665,1.75,1.75,2.75,0.5,0.5875,0.5666666666666667,0.3483826999928659,-0.8917916473313406,,,,,,,,,,,,,,,,,,,0.0060615560685761995,-0.54838326644234,0.012134719508124064,-0.6988724496553606,-2.2871032991734115e+43,-0.1691009077942318,,,,,,,,
35,240802_160905,FalseCHOICE,9.0,36,2.0,583.0,,,,,,,,,,,39.0,36.0,,,B,,,,,,False,cue2.png,Easy,cue1.png,Hard,Left,Easy,Mid,0.0163002000190317,,,,,,,,,,,,,54,26,Male,1.8571428571428572,1.25,0.8,1.25,3.111111111111111,3.25,3.111111111111111,2.888888888888889,0.625,3.6666666666666665,1.75,1.75,2.75,0.5,0.5875,0.7,0.2648589399798463,-1.7559695171279988,,,,,,,,,,,,,,,,,,,0.02803935263678213,2.433497656938303,0.02179252636508922,1.723098771938339,-3.1341670288726134e+43,-0.16911054493434682,,,,,,,,
36,240802_160927,FalseCHOICE,9.0,37,2.0,583.0,,,,,,,,,,,40.0,37.0,,,B,,,,,,False,cue1.png,Hard,cue2.png,Easy,Left,Hard,Mid,0.0167666999623179,,,,,,,,,,,,,54,26,Male,1.8571428571428572,1.25,0.8,1.25,3.111111111111111,3.25,3.111111111111111,2.888888888888889,0.625,3.6666666666666665,1.75,1.75,2.75,0.5,0.0151515151515151,0.7272727272727273,0.3149113533319905,-1.238102649758817,,,,,,,,,,,,,,,,,,,0.006529421274460093,-0.48490473128486294,0.013131685879676686,-0.44885462505414375,-2.8491968498089577e+43,-0.16910730279630223,,,,,,,,
37,240802_160949,FalseCHOICE,9.0,38,2.0,583.0,,,,,,,,,,,41.0,38.0,,,B,,,,,,False,cue2.png,Easy,cue1.png,Hard,Left,Easy,Mid,0.0162971999961882,,,,,,,,,,,,,54,26,Male,1.8571428571428572,1.25,0.8,1.25,3.111111111111111,3.25,3.111111111111111,2.888888888888889,0.625,3.6666666666666665,1.75,1.75,2.75,0.5,0.0151515151515151,0.6606060606060606,0.3118802928615228,-1.269463491035423,,,,,,,,,,,,,,,,,,,0.006915577432124552,-0.43251223250036747,0.01587625183593864,0.23942376571096832,-1.9000828439613658e+43,-0.16909650461862233,,,,,,,,
38,240802_161016,FalseCHOICE,9.0,39,2.0,583.0,,,,,,,,,,,43.0,39.0,,,B,,,,,,False,cue2.png,Easy,cue1.png,Hard,Left,Easy,Mid,0.0160995000042021,,,,,,,,,,,,,54,26,Male,1.8571428571428572,1.25,0.8,1.25,3.111111111111111,3.25,3.111111111111111,2.888888888888889,0.625,3.6666666666666665,1.75,1.75,2.75,0.5,0.7386363636363636,0.7515151515151515,0.2902834571432322,-1.4929149673874391,,,,,,,,,,,,,,,,,,,0.01837182639432852,1.1218369547750475,0.015615035416719011,0.17391627945373136,-9.864503818743363e+41,-0.16907600945641188,,,,,,,,
39,240802_161039,FalseCHOICE,9.0,40,2.0,583.0,,,,,,,,,,,44.0,40.0,,,B,,,,,,False,cue1.png,Hard,cue2.png,Easy,Left,Hard,Mid,0.0154182000551372,,,,,,,,,,,,,54,26,Male,1.8571428571428572,1.25,0.8,1.25,3.111111111111111,3.25,3.111111111111111,2.888888888888889,0.625,3.6666666666666665,1.75,1.75,2.75,0.5,0.77,0.8,0.4545324200065807,0.20648552441792584,,,,,,,,,,,,,,,,,,,,,0.017775107379866435,0.7156160886129346,1.5939321692254401e+43,-0.16905675281357443,,,,,,,,
40,240802_161101,FalseCHOICE,9.0,41,2.0,583.0,,,,,,,,,,,45.0,41.0,,,B,,,,,,False,cue1.png,Hard,cue2.png,Easy,Left,Hard,Mid,0.0154860001057386,,,,,,,,,,,,,54,26,Male,1.8571428571428572,1.25,0.8,1.25,3.111111111111111,3.25,3.111111111111111,2.888888888888889,0.625,3.6666666666666665,1.75,1.75,2.75,0.5,0.8920454545454546,0.9090909090909092,0.3574171600087235,-0.7983166839191349,,,,,,,,,,,,,,,,,,,0.006477524079061299,-0.49194598569161685,0.01774696036090943,0.7085574187826972,2.841941043722879e+43,-0.1690425540750774,,,,,,,,
41,240802_161125,FalseCHOICE,9.0,42,2.0,583.0,,,,,,,,,,,46.0,42.0,,,B,,,,,,False,cue2.png,Easy,cue1.png,Hard,Left,Easy,Mid,0.0164653999963775,,,,,,,,,,,,,54,26,Male,1.8571428571428572,1.25,0.8,1.25,3.111111111111111,3.25,3.111111111111111,2.888888888888889,0.625,3.6666666666666665,1.75,1.75,2.75,0.5,0.0151515151515151,0.6606060606060606,0.4413252714356141,0.0698378744993069,,,,,,,,,,,,,,,,,,,0.007926123041610156,-0.29540446258450603,0.007774842793259297,-1.792236200814196,3.135985282272902e+43,-0.169039208700429,,,,,,,,
42,240802_161147,FalseCHOICE,9.0,43,2.0,583.0,,,,,,,,,,,47.0,43.0,,,B,,,,,,False,cue1.png,Hard,cue2.png,Easy,Left,Hard,Mid,0.0163614000193774,,,,,,,,,,,,,54,26,Male,1.8571428571428572,1.25,0.8,1.25,3.111111111111111,3.25,3.111111111111111,2.888888888888889,0.625,3.6666666666666665,1.75,1.75,2.75,0.5,0.7386363636363636,0.8181818181818181,0.3636243000005682,-0.7340945629939528,,,,,,,,,,,,,,,,,,,0.007123841957563886,-0.40425553199369024,,,2.0579890835575655e+43,-0.16905147318543318,,,,,,,,
43,240802_161212,FalseCHOICE,9.0,44,2.0,583.0,,,,,,,,,,,48.0,44.0,,,B,,,,,,False,cue2.png,Easy,cue1.png,Hard,Right,Hard,Mid,0.0158709000097587,,,,,,,,,,,,,54,26,Male,1.8571428571428572,1.25,0.8,1.25,3.111111111111111,3.25,3.111111111111111,2.888888888888889,0.625,3.6666666666666665,1.75,1.75,2.75,0.5,1.0,1.0,0.5132283866560707,0.8137828421740375,,,,,,,,,,,,,,,,,,,0.006028960241833936,-0.5528057695646587,,,2.8932992069358725e+42,-0.16907159542130595,,,,,,,,
44,240802_161234,FalseCHOICE,9.0,45,2.0,583.0,,,,,,,,,,,49.0,45.0,,,B,,,,,,False,cue1.png,Hard,cue2.png,Easy,Right,Easy,Mid,0.0163379000732675,,,,,,,,,,,,,54,26,Male,1.8571428571428572,1.25,0.8,1.25,3.111111111111111,3.25,3.111111111111111,2.888888888888889,0.625,3.6666666666666665,1.75,1.75,2.75,0.5,0.77,0.8,0.3365741333070521,-1.0139688817171928,,,,,,,,,,,,,,,,,,,0.00910641268141731,-0.13526633635868585,0.01075225220101515,-1.0455656567365477,-1.9263547881952487e+43,-0.16909680351751127,,,,,,,,
45,240802_161256,FalseCHOICE,9.0,46,2.0,583.0,,,,,,,,,,,50.0,46.0,,,B,,,,,,False,cue1.png,Hard,cue2.png,Easy,Left,Hard,Mid,0.0164849000284448,,,,,,,,,,,,,54,26,Male,1.8571428571428572,1.25,0.8,1.25,3.111111111111111,3.25,3.111111111111111,2.888888888888889,0.625,3.6666666666666665,1.75,1.75,2.75,0.5,0.7386363636363636,0.8181818181818181,0.3625505199888721,-0.745204418716362,,,,,,,,,,,,,,,,,,,0.007549077088650447,-0.3465609163663608,0.011200732238671891,-0.9330964636007871,-3.378654037176806e+43,-0.16911332649076663,,,,,,,,
46,240802_161318,FalseCHOICE,9.0,47,2.0,583.0,,,,,,,,,,,51.0,47.0,,,B,,,,,,False,cue2.png,Easy,cue1.png,Hard,Right,Hard,Mid,0.0165225999662652,,,,,,,,,,,,,54,26,Male,1.8571428571428572,1.25,0.8,1.25,3.111111111111111,3.25,3.111111111111111,2.888888888888889,0.625,3.6666666666666665,1.75,1.75,2.75,0.5,0.7386363636363636,0.8181818181818181,0.3831051800011967,-0.5325358044073756,,,,,,,,,,,,,,,,,,,0.006594469152710987,-0.4760792320287945,0.018837075245103262,0.9819348963871799,-1.970523422581996e+43,-0.16909730602907372,,,,,,,,
47,240802_161343,FalseCHOICE,9.0,48,2.0,583.0,,,,,,,,,,,52.0,48.0,,,B,,,,,,False,cue2.png,Easy,cue1.png,Hard,Left,Easy,Mid,0.0165827999589964,,,,,,,,,,,,,54,26,Male,1.8571428571428572,1.25,0.8,1.25,3.111111111111111,3.25,3.111111111111111,2.888888888888889,0.625,3.6666666666666665,1.75,1.75,2.75,0.5,0.905,0.9,0.5233036266562219,0.918026226806907,,,,,,,,,,,,,,,,,,,0.01571376114483377,0.7611987062603827,0.011761664220999496,-0.7924267299242248,1.2592192752139112e+43,-0.16906056088012814,,,,,,,,
48,240802_161417,FalseCHOICE,9.0,49,2.0,583.0,,,,,,,,,,,55.0,49.0,,,B,,,,,,False,cue1.png,Hard,cue2.png,Easy,Right,Easy,Mid,0.0154413999989628,,,,,,,,,,,,,54,26,Male,1.8571428571428572,1.25,0.8,1.25,3.111111111111111,3.25,3.111111111111111,2.888888888888889,0.625,3.6666666666666665,1.75,1.75,2.75,0.5,0.7386363636363636,0.8181818181818181,0.3957848333443204,-0.4013458793595488,,,,,,,,,,,,,,,,,,,0.008525462766184218,-0.21408786263394558,,,,,,,,,,,,
49,240802_161441,FalseCHOICE,9.0,50,2.0,583.0,,,,,,,,,,,56.0,50.0,,,B,,,,,,False,cue2.png,Easy,cue1.png,Hard,Left,Easy,Mid,0.0152349999407306,,,,,,,,,,,,,54,26,Male,1.8571428571428572,1.25,0.8,1.25,3.111111111111111,3.25,3.111111111111111,2.888888888888889,0.625,3.6666666666666665,1.75,1.75,2.75,0.5,0.77,0.8,0.3934946333446229,-0.4250414141012603,,,,,,,,,,,,,,,,,,,0.007730352953361101,-0.32196595566716113,,,-1.9367155818649267e+43,-0.16909692139343585,,,,,,,,
0,240802_152425,OFFLINERATING,9.0,1,1.0,,,,,,,,,,,,,,,,,T0,cue2.png,Easy,56.0,1.535731999902055,,,,,,,,,,,,,,,,,,,,,,54,26,Male,1.8571428571428572,1.25,0.8,1.25,3.111111111111111,3.25,3.111111111111111,2.888888888888889,0.625,3.6666666666666665,1.75,1.75,2.75,0.5,,,,,,,,,,,,,,,,,,,,,,,,,,,,,-0.5830724136632028,,,,,47910803.19204855,1.7234280515447233,
1,240802_152432,OFFLINERATING,9.0,2,3.0,,,,,,,,,,,,,,,,,T0,cue1.png,Hard,46.0,1.2352127999765798,,,,,,,,,,,,,,,,,,,,,,54,26,Male,1.8571428571428572,1.25,0.8,1.25,3.111111111111111,3.25,3.111111111111111,2.888888888888889,0.625,3.6666666666666665,1.75,1.75,2.75,0.5,,,,,,,,,,,,,,,,,,,,,,,,,,,,,-1.3119129307422064,,,,,666066.9947011366,-0.6394343209927763,
2,240802_154747,OFFLINERATING,9.0,3,1.0,,,,,,,,,,,,,,,,,T1,cue2.png,Easy,72.0,2.940755599993281,,,,,,,,,,,,,,,,,,,,,,54,26,Male,1.8571428571428572,1.25,0.8,1.25,3.111111111111111,3.25,3.111111111111111,2.888888888888889,0.625,3.6666666666666665,1.75,1.75,2.75,0.5,,,,,,,,,,,,,,,,,,,,,,,,,,,,,0.5830724136632028,,,,,30480.744152973668,-0.6712220492520519,
3,240802_154756,OFFLINERATING,9.0,4,3.0,,,,,,,,,,,,,,,,,T1,cue1.png,Hard,50.0,2.7361786999972537,,,,,,,,,,,,,,,,,,,,,,54,26,Male,1.8571428571428572,1.25,0.8,1.25,3.111111111111111,3.25,3.111111111111111,2.888888888888889,0.625,3.6666666666666665,1.75,1.75,2.75,0.5,,,,,,,,,,,,,,,,,,,,,,,,,,,,,-1.020376723910605,0.009484527320528785,0.9439833611516804,,,,,
4,240802_155314,OFFLINERATING,9.0,5,1.0,,,,,,,,,,,,,,,,,T2,cue2.png,Easy,83.0,1.7022869000211358,,,,,,,,,,,,,,,,,,,,,,54,26,Male,1.8571428571428572,1.25,0.8,1.25,3.111111111111111,3.25,3.111111111111111,2.888888888888889,0.625,3.6666666666666665,1.75,1.75,2.75,0.5,,,,,,,,,,,,,,,,,,,,,,,,,,,,,1.3847969824501067,,,,,,,
5,240802_155321,OFFLINERATING,9.0,6,3.0,,,,,,,,,,,,,,,,,T2,cue1.png,Hard,52.0,1.3019755000714213,,,,,,,,,,,,,,,,,,,,,,54,26,Male,1.8571428571428572,1.25,0.8,1.25,3.111111111111111,3.25,3.111111111111111,2.888888888888889,0.625,3.6666666666666665,1.75,1.75,2.75,0.5,,,,,,,,,,,,,,,,,,,,,,,,,,,,,-0.8746086204948043,,,0.022794365926745913,1.0,5198119.619748654,-0.41277168129989505,
6,240802_161539,OFFLINERATING,9.0,7,1.0,,,,,,,,,,,,,,,,,T3,cue2.png,Easy,81.0,1.5022070000413803,,,,,,,,,,,,,,,,,,,,,,54,26,Male,1.8571428571428572,1.25,0.8,1.25,3.111111111111111,3.25,3.111111111111111,2.888888888888889,0.625,3.6666666666666665,1.75,1.75,2.75,0.5,,,,,,,,,,,,,,,,,,,,,,,,,,,,,1.239028879034306,0.008874968192851752,0.43996860386728354,0.017187007112491257,-1.0,,,
7,240802_161548,OFFLINERATING,9.0,8,3.0,,,,,,,,,,,,,,,,,T3,cue1.png,Hard,72.0,2.502330500050448,,,,,,,,,,,,,,,,,,,,,,54,26,Male,1.8571428571428572,1.25,0.8,1.25,3.111111111111111,3.25,3.111111111111111,2.888888888888889,0.625,3.6666666666666665,1.75,1.75,2.75,0.5,,,,,,,,,,,,,,,,,,,,,,,,,,,,,0.5830724136632028,0.006669105338929089,-1.3839519650189631,,,,,
0,240802_155341,LEARNINGCHECK,9.0,1,,,,,,,,,,,,1.0,1.0,1.0,,,B,,,,,,,,,,,,,,,cue2.png,Easy,Left,Left,Easy,0.0156211999710649,1.0,,,,,,54,26,Male,1.8571428571428572,1.25,0.8,1.25,3.111111111111111,3.25,3.111111111111111,2.888888888888889,0.625,3.6666666666666665,1.75,1.75,2.75,0.5,,,,,,,,,,,,,,,,,,,,,,,,,,,,,,,,,,,,
1,240802_155346,LEARNINGCHECK,9.0,2,,,,,,,,,,,,2.0,2.0,2.0,,,B,,,,,,,,,,,,,,,cue1.png,Hard,Right,Right,Hard,0.0149805999826639,1.0,,,,,,54,26,Male,1.8571428571428572,1.25,0.8,1.25,3.111111111111111,3.25,3.111111111111111,2.888888888888889,0.625,3.6666666666666665,1.75,1.75,2.75,0.5,,,,,,,,,,,,,,,,,,,,,,,,,,,,,,,,,,,,
2,240802_161608,LEARNINGCHECK,9.0,1,,,,,,,,,,,,1.0,1.0,1.0,,,B,,,,,,,,,,,,,,,cue2.png,Easy,Middle,Middle,Mid,0.0159974000416696,1.0,,,,,,54,26,Male,1.8571428571428572,1.25,0.8,1.25,3.111111111111111,3.25,3.111111111111111,2.888888888888889,0.625,3.6666666666666665,1.75,1.75,2.75,0.5,,,,,,,,,,,,,,,,,,,,,,,,,,,,,,,,,,,,
3,240802_161613,LEARNINGCHECK,9.0,2,,,,,,,,,,,,2.0,2.0,2.0,,,B,,,,,,,,,,,,,,,cue1.png,Hard,Middle,Middle,Mid,0.0139794000424444,1.0,,,,,,54,26,Male,1.8571428571428572,1.25,0.8,1.25,3.111111111111111,3.25,3.111111111111111,2.888888888888889,0.625,3.6666666666666665,1.75,1.75,2.75,0.5,,,,,,,,,,,,,,,,,,,,,,,,,,,,,,,,,,,,
0,240802_161634,DEMANDRATING,9.0,-1,,,,,,,,,,,,,,,,,,,,,,,,,,,,,,,,,,,,,,,1.0,MentalDemand,1.0,32.0,4.532928199972957,54,26,Male,1.8571428571428572,1.25,0.8,1.25,3.111111111111111,3.25,3.111111111111111,2.888888888888889,0.625,3.6666666666666665,1.75,1.75,2.75,0.5,,,,,,,,,,,,,,,,,,,,,,,,,,,,,,,,,,,,-1.5344052673188215
1,240802_161641,DEMANDRATING,9.0,-1,,,,,,,,,,,,,,,,,,,,,,,,,,,,,,,,,,,,,,,2.0,Effort,1.0,46.0,5.632856499985792,54,26,Male,1.8571428571428572,1.25,0.8,1.25,3.111111111111111,3.25,3.111111111111111,2.888888888888889,0.625,3.6666666666666665,1.75,1.75,2.75,0.5,,,,,,,,,,,,,,,,,,,,,,,,,,,,,,,,,,,,-0.5628722839913266
2,240802_161648,DEMANDRATING,9.0,-1,,,,,,,,,,,,,,,,,,,,,,,,,,,,,,,,,,,,,,,3.0,Frustration,1.0,45.0,5.542763900011778,54,26,Male,1.8571428571428572,1.25,0.8,1.25,3.111111111111111,3.25,3.111111111111111,2.888888888888889,0.625,3.6666666666666665,1.75,1.75,2.75,0.5,,,,,,,,,,,,,,,,,,,,,,,,,,,,,,,,,,,,-0.6322674970861477
3,240802_161653,DEMANDRATING,9.0,-1,,,,,,,,,,,,,,,,,,,,,,,,,,,,,,,,,,,,,,,4.0,MentalDemand,2.0,58.0,3.558044199948199,54,26,Male,1.8571428571428572,1.25,0.8,1.25,3.111111111111111,3.25,3.111111111111111,2.888888888888889,0.625,3.6666666666666665,1.75,1.75,2.75,0.5,,,,,,,,,,,,,,,,,,,,,,,,,,,,,,,,,,,,0.2698702731465262
4,240802_161657,DEMANDRATING,9.0,-1,,,,,,,,,,,,,,,,,,,,,,,,,,,,,,,,,,,,,,,5.0,Effort,2.0,52.0,2.804256599978544,54,26,Male,1.8571428571428572,1.25,0.8,1.25,3.111111111111111,3.25,3.111111111111111,2.888888888888889,0.625,3.6666666666666665,1.75,1.75,2.75,0.5,,,,,,,,,,,,,,,,,,,,,,,,,,,,,,,,,,,,-0.14650100542240024
5,240802_161704,DEMANDRATING,9.0,-1,,,,,,,,,,,,,,,,,,,,,,,,,,,,,,,,,,,,,,,6.0,Frustration,2.0,46.0,4.877758000046015,54,26,Male,1.8571428571428572,1.25,0.8,1.25,3.111111111111111,3.25,3.111111111111111,2.888888888888889,0.625,3.6666666666666665,1.75,1.75,2.75,0.5,,,,,,,,,,,,,,,,,,,,,,,,,,,,,,,,,,,,-0.5628722839913266
6,240802_161709,DEMANDRATING,9.0,-1,,,,,,,,,,,,,,,,,,,,,,,,,,,,,,,,,,,,,,,7.0,MentalDemand,3.0,78.0,3.351839000009932,54,26,Male,1.8571428571428572,1.25,0.8,1.25,3.111111111111111,3.25,3.111111111111111,2.888888888888889,0.625,3.6666666666666665,1.75,1.75,2.75,0.5,,,,,,,,,,,,,,,,,,,,,,,,,,,,,,,,,,,,1.6577745350429474
7,240802_161714,DEMANDRATING,9.0,-1,,,,,,,,,,,,,,,,,,,,,,,,,,,,,,,,,,,,,,,8.0,Effort,3.0,78.0,3.737045199959539,54,26,Male,1.8571428571428572,1.25,0.8,1.25,3.111111111111111,3.25,3.111111111111111,2.888888888888889,0.625,3.6666666666666665,1.75,1.75,2.75,0.5,,,,,,,,,,,,,,,,,,,,,,,,,,,,,,,,,,,,1.6577745350429474
8,240802_161719,DEMANDRATING,9.0,-1,,,,,,,,,,,,,,,,,,,,,,,,,,,,,,,,,,,,,,,9.0,Frustration,3.0,52.0,3.564985199947841,54,26,Male,1.8571428571428572,1.25,0.8,1.25,3.111111111111111,3.25,3.111111111111111,2.888888888888889,0.625,3.6666666666666665,1.75,1.75,2.75,0.5,,,,,,,,,,,,,,,,,,,,,,,,,,,,,,,,,,,,-0.14650100542240024
