"","PID","Gender","Age","CueMapping","Phase","Block","TrialN","NbackLevel","ISI","ISI_calibrated","CaliEnd_A_measure","Trial_A_measure","Trial_ACC","Trial_RT","CueLearning","TrialDemandLearning","cue_i_on_zyg_values","cue_i_on_zyg_zvalues","cue_e_on_zyg_values","cue_e_on_zyg_zvalues","cue_i_on_scr_values","cue_i_on_scr_zvalues","cue_e_on_scr_values","cue_e_on_scr_zvalues","PhaseType","Choice","ChoiceDemand","TaskDemand","ChoiceRT","cue_e_true_zyg_values","cue_e_true_zyg_zvalues","cue_e_true_cor_values","cue_e_true_cor_zvalues","cue_e_true_scr_values","cue_e_true_scr_zvalues","OfflineRatingTimePoint","TrialDemand","OfflineRating","OfflineRatingRT","cue_i_off_zyg_values","cue_i_off_zyg_zvalues","cue_i_off_cor_values","cue_i_off_cor_zvalues","cue_i_off_scr_values","cue_i_off_scr_zvalues","CueCheck","CueDemandCheck","CorrectAnswer","Answer","AnswerDemand","AnswerRT","AnswerACC","DemandRatingQuesIndex","QuesTLX","DemandLevel","DemandRating","DemandRatingRT","BAI_bis","BAI_bas_d","BAI_bas_rr","BAI_bas_fs","NFC","BFI_ext","BFI_agr","BFI_con","BFI_neu","BFI_open","UPPS_lps","UPPS_lpm","UPPS_pu","UPPS_ss"
"007.1",7,"Female",20,"A","LEARNING",1,1,1,1750,,,,,,"cue1.png","Easy",4.89687127352197e-05,0.096037052829883,0.000167146426834415,-0.244134193903824,,,,,"","","","",,,,,,,,"","",,,,,,,,,,,,,,,,,,,,,1,1.25,0.8,0.75,2.94444444444444,2.75,2.66666666666667,2.11111111111111,1.875,3,2,2.75,2.25,1.25
"007.2",7,"Female",20,"A","LEARNING",1,2,3,1750,,,,,,"cue2.png","Hard",0.000216904533023038,0.283855277199724,0.000951705796796061,0.570754853838501,1.437,-0.255584866607897,1.134,-0.623506685645717,"","","","",,,,,,,,"","",,,,,,,,,,,,,,,,,,,,,1,1.25,0.8,0.75,2.94444444444444,2.75,2.66666666666667,2.11111111111111,1.875,3,2,2.75,2.25,1.25
"007.3",7,"Female",20,"A","LEARNING",1,3,1,1750,,,,,,"cue1.png","Easy",0.00106590304397775,1.2333691602228,,,1.953,0.656582809933808,1.603,0.187525014273248,"","","","",,,,,,,,"","",,,,,,,,,,,,,,,,,,,,,1,1.25,0.8,0.75,2.94444444444444,2.75,2.66666666666667,2.11111111111111,1.875,3,2,2.75,2.25,1.25
"007.4",7,"Female",20,"A","LEARNING",1,4,3,1750,,,,,,"cue2.png","Hard",,,0.000167527354803011,-0.243738539933618,1.577,-0.00809751250743466,1.585,0.156397998071668,"","","","",,,,,,,,"","",,,,,,,,,,,,,,,,,,,,,1,1.25,0.8,0.75,2.94444444444444,2.75,2.66666666666667,2.11111111111111,1.875,3,2,2.75,2.25,1.25
"007.5",7,"Female",20,"A","LEARNING",1,5,3,1750,,,,,,"cue2.png","Hard",5.68259502519547e-05,0.104824531262513,0.00029733955847123,-0.108908026039305,1.563,-0.0328462479174809,,,"","","","",,,,,,,,"","",,,,,,,,,,,,,,,,,,,,,1,1.25,0.8,0.75,2.94444444444444,2.75,2.66666666666667,2.11111111111111,1.875,3,2,2.75,2.25,1.25
"007.6",7,"Female",20,"A","LEARNING",1,6,1,1750,,,,,,"cue1.png","Easy",-0.000236501517425364,-0.223230817760914,0.00019367361632468,-0.216581510180145,,,0.113,-2.38910021574649,"","","","",,,,,,,,"","",,,,,,,,,,,,,,,,,,,,,1,1.25,0.8,0.75,2.94444444444444,2.75,2.66666666666667,2.11111111111111,1.875,3,2,2.75,2.25,1.25
"007.7",7,"Female",20,"A","LEARNING",1,7,3,1750,,,,,,"cue2.png","Hard",-4.33563217073123e-05,-0.00721860760135707,0.000164559984429505,-0.246820623598088,1.443,-0.244978265717877,1.201,-0.507645014228722,"","","","",,,,,,,,"","",,,,,,,,,,,,,,,,,,,,,1,1.25,0.8,0.75,2.94444444444444,2.75,2.66666666666667,2.11111111111111,1.875,3,2,2.75,2.25,1.25
"007.8",7,"Female",20,"A","LEARNING",1,8,3,1750,,,,,,"cue2.png","Hard",1.51471373703977e-05,0.0582112440207519,0.000194227055837878,-0.216006675674103,,,,,"","","","",,,,,,,,"","",,,,,,,,,,,,,,,,,,,,,1,1.25,0.8,0.75,2.94444444444444,2.75,2.66666666666667,2.11111111111111,1.875,3,2,2.75,2.25,1.25
"007.9",7,"Female",20,"A","LEARNING",1,9,1,1750,,,,,,"cue1.png","Easy",,,-0.00140657858493567,-1.87869663155885,,,,,"","","","",,,,,,,,"","",,,,,,,,,,,,,,,,,,,,,1,1.25,0.8,0.75,2.94444444444444,2.75,2.66666666666667,2.11111111111111,1.875,3,2,2.75,2.25,1.25
"007.10",7,"Female",20,"A","LEARNING",1,10,1,1750,,,,,,"cue1.png","Easy",0.00113183867899963,1.3071111044446,0.000112873449741084,-0.300505268311983,1.454,-0.225532830752841,1.53,0.0612876707890598,"","","","",,,,,,,,"","",,,,,,,,,,,,,,,,,,,,,1,1.25,0.8,0.75,2.94444444444444,2.75,2.66666666666667,2.11111111111111,1.875,3,2,2.75,2.25,1.25
"007.11",7,"Female",20,"A","LEARNING",1,11,3,1750,,,,,,"cue2.png","Hard",6.78203726182098e-05,0.117120614869114,-6.94473879115443e-05,-0.489874307121112,2.306,1.28060449562997,,,"","","","",,,,,,,,"","",,,,,,,,,,,,,,,,,,,,,1,1.25,0.8,0.75,2.94444444444444,2.75,2.66666666666667,2.11111111111111,1.875,3,2,2.75,2.25,1.25
"007.12",7,"Female",20,"A","LEARNING",1,12,1,1750,,,,,,"cue1.png","Easy",-6.4477198355018e-05,-0.0308400454953563,-0.000212968848416091,-0.638944053476771,,,,,"","","","",,,,,,,,"","",,,,,,,,,,,,,,,,,,,,,1,1.25,0.8,0.75,2.94444444444444,2.75,2.66666666666667,2.11111111111111,1.875,3,2,2.75,2.25,1.25
"007.13",7,"Female",20,"A","LEARNING",1,13,1,1750,,,,,,"cue1.png","Easy",3.73839145969873e-05,0.0830806971680786,0.00118412685372729,0.812160897803302,,,,,"","","","",,,,,,,,"","",,,,,,,,,,,,,,,,,,,,,1,1.25,0.8,0.75,2.94444444444444,2.75,2.66666666666667,2.11111111111111,1.875,3,2,2.75,2.25,1.25
"007.14",7,"Female",20,"A","LEARNING",1,14,1,1750,,,,,,"cue1.png","Easy",-4.3480928627956e-05,-0.00735796709321169,0.000121489479436554,-0.291556158145591,2.928,2.38015545456203,,,"","","","",,,,,,,,"","",,,,,,,,,,,,,,,,,,,,,1,1.25,0.8,0.75,2.94444444444444,2.75,2.66666666666667,2.11111111111111,1.875,3,2,2.75,2.25,1.25
"007.15",7,"Female",20,"A","LEARNING",1,15,3,1750,,,,,,"cue2.png","Hard",0.00146994935586355,1.68525167540934,,,,,,,"","","","",,,,,,,,"","",,,,,,,,,,,,,,,,,,,,,1,1.25,0.8,0.75,2.94444444444444,2.75,2.66666666666667,2.11111111111111,1.875,3,2,2.75,2.25,1.25
"007.16",7,"Female",20,"A","LEARNING",1,16,1,1750,,,,,,"cue1.png","Easy",-0.000143415370252812,-0.119123934277601,0.000210653189819295,-0.198945536401929,,,,,"","","","",,,,,,,,"","",,,,,,,,,,,,,,,,,,,,,1,1.25,0.8,0.75,2.94444444444444,2.75,2.66666666666667,2.11111111111111,1.875,3,2,2.75,2.25,1.25
"007.17",7,"Female",20,"A","LEARNING",1,17,1,1750,,,,,,"cue1.png","Easy",3.35847997741628e-05,0.0788317942301757,-0.00108614764978738,-1.54587840312709,,,,,"","","","",,,,,,,,"","",,,,,,,,,,,,,,,,,,,,,1,1.25,0.8,0.75,2.94444444444444,2.75,2.66666666666667,2.11111111111111,1.875,3,2,2.75,2.25,1.25
"007.18",7,"Female",20,"A","LEARNING",1,18,3,1750,,,,,,"cue2.png","Hard",-1.34815480348502e-05,0.026193126327689,-3.63703697149782e-05,-0.455518589896458,,,,,"","","","",,,,,,,,"","",,,,,,,,,,,,,,,,,,,,,1,1.25,0.8,0.75,2.94444444444444,2.75,2.66666666666667,2.11111111111111,1.875,3,2,2.75,2.25,1.25
"007.19",7,"Female",20,"A","LEARNING",1,19,3,1750,,,,,,"cue2.png","Hard",0.00268641426974524,3.04573736417959,-0.000617333431585595,-1.05894065632893,,,,,"","","","",,,,,,,,"","",,,,,,,,,,,,,,,,,,,,,1,1.25,0.8,0.75,2.94444444444444,2.75,2.66666666666667,2.11111111111111,1.875,3,2,2.75,2.25,1.25
"007.20",7,"Female",20,"A","LEARNING",1,20,3,1750,,,,,,"cue2.png","Hard",-5.22420469729733e-05,-0.0171563394013651,-2.36573770164604e-05,-0.442314135382637,,,0.589,-1.56596356508247,"","","","",,,,,,,,"","",,,,,,,,,,,,,,,,,,,,,1,1.25,0.8,0.75,2.94444444444444,2.75,2.66666666666667,2.11111111111111,1.875,3,2,2.75,2.25,1.25
"007.21",7,"Female",20,"A","LEARNING",1,21,1,1750,,,,,,"cue1.png","Easy",-5.31401481832948e-05,-0.0181607693933577,-2.84579820493099e-05,-0.447300323316378,1.994,0.729061249348943,0.68,-1.4085992053967,"","","","",,,,,,,,"","",,,,,,,,,,,,,,,,,,,,,1,1.25,0.8,0.75,2.94444444444444,2.75,2.66666666666667,2.11111111111111,1.875,3,2,2.75,2.25,1.25
"007.22",7,"Female",20,"A","LEARNING",1,22,3,1750,,,,,,"cue2.png","Hard",-1.34682351435487e-05,0.0262080153704268,,,1.492,-0.158357691782715,2.589,1.89259379064873,"","","","",,,,,,,,"","",,,,,,,,,,,,,,,,,,,,,1,1.25,0.8,0.75,2.94444444444444,2.75,2.66666666666667,2.11111111111111,1.875,3,2,2.75,2.25,1.25
"007.23",7,"Female",20,"A","LEARNING",1,23,3,1750,,,,,,"cue2.png","Hard",0.000383992628837396,0.470725412560993,0.00169774191225192,1.34563140618268,1.293,-0.510143287968373,2.181,1.18704809007957,"","","","",,,,,,,,"","",,,,,,,,,,,,,,,,,,,,,1,1.25,0.8,0.75,2.94444444444444,2.75,2.66666666666667,2.11111111111111,1.875,3,2,2.75,2.25,1.25
"007.24",7,"Female",20,"A","LEARNING",1,24,3,1750,,,,,,"cue2.png","Hard",-0.000632294633660145,-0.665883017759812,0.00077802487528437,0.390359735048969,-0.0490000000000002,-2.88248635370281,0.947,-0.946881798406584,"","","","",,,,,,,,"","",,,,,,,,,,,,,,,,,,,,,1,1.25,0.8,0.75,2.94444444444444,2.75,2.66666666666667,2.11111111111111,1.875,3,2,2.75,2.25,1.25
"007.25",7,"Female",20,"A","LEARNING",1,25,1,1750,,,,,,"cue1.png","Easy",-8.07852216980309e-05,-0.0490788225592199,0.0033275483588874,3.03844328779722,0.43,-2.03572604931622,1.408,-0.149684327910543,"","","","",,,,,,,,"","",,,,,,,,,,,,,,,,,,,,,1,1.25,0.8,0.75,2.94444444444444,2.75,2.66666666666667,2.11111111111111,1.875,3,2,2.75,2.25,1.25
"007.26",7,"Female",20,"A","LEARNING",1,26,1,1750,,,,,,"cue1.png","Easy",2.88221818046984e-06,0.044494245822608,0.00178144543671574,1.43257076087593,1.938,0.630066307708758,1.223,-0.469600883315679,"","","","",,,,,,,,"","",,,,,,,,,,,,,,,,,,,,,1,1.25,0.8,0.75,2.94444444444444,2.75,2.66666666666667,2.11111111111111,1.875,3,2,2.75,2.25,1.25
"007.27",7,"Female",20,"A","LEARNING",1,27,3,1750,,,,,,"cue2.png","Hard",-0.000477365598647608,-0.492611489329983,2.49473577767223e-05,-0.39183042749789,,,2.176,1.17840169669024,"","","","",,,,,,,,"","",,,,,,,,,,,,,,,,,,,,,1,1.25,0.8,0.75,2.94444444444444,2.75,2.66666666666667,2.11111111111111,1.875,3,2,2.75,2.25,1.25
"007.28",7,"Female",20,"A","LEARNING",1,28,1,1750,,,,,,"cue1.png","Easy",-0.00330826826659826,-3.65867285460086,,,1.054,-0.932639556754162,1.723,0.395038455617121,"","","","",,,,,,,,"","",,,,,,,,,,,,,,,,,,,,,1,1.25,0.8,0.75,2.94444444444444,2.75,2.66666666666667,2.11111111111111,1.875,3,2,2.75,2.25,1.25
"007.29",7,"Female",20,"A","LEARNING",1,29,1,1750,,,,,,"cue1.png","Easy",0.000337254166461859,0.418453449390151,0.000298652483456671,-0.107544345695782,1.618,0.0643809269077006,,,"","","","",,,,,,,,"","",,,,,,,,,,,,,,,,,,,,,1,1.25,0.8,0.75,2.94444444444444,2.75,2.66666666666667,2.11111111111111,1.875,3,2,2.75,2.25,1.25
"007.30",7,"Female",20,"A","LEARNING",1,30,3,1750,,,,,,"cue2.png","Hard",-0.0021052961575738,-2.31327742260674,0.000307621860505315,-0.0982282283924241,1.315,-0.4712524180383,1.374,-0.208479802957974,"","","","",,,,,,,,"","",,,,,,,,,,,,,,,,,,,,,1,1.25,0.8,0.75,2.94444444444444,2.75,2.66666666666667,2.11111111111111,1.875,3,2,2.75,2.25,1.25
"007.31",7,"Female",20,"A","LEARNING",1,31,3,1750,,,,,,"cue2.png","Hard",4.02928067228655e-05,0.0863339813871898,0.000179497615394452,-0.231305530236642,,,1.43,-0.1116401969975,"","","","",,,,,,,,"","",,,,,,,,,,,,,,,,,,,,,1,1.25,0.8,0.75,2.94444444444444,2.75,2.66666666666667,2.11111111111111,1.875,3,2,2.75,2.25,1.25
"007.32",7,"Female",20,"A","LEARNING",1,32,1,1750,,,,,,"cue1.png","Easy",-0.00144379968573757,-1.57346448362647,4.64137510997179e-05,-0.36953418137149,1.062,-0.918497422234136,1.247,-0.428098195046905,"","","","",,,,,,,,"","",,,,,,,,,,,,,,,,,,,,,1,1.25,0.8,0.75,2.94444444444444,2.75,2.66666666666667,2.11111111111111,1.875,3,2,2.75,2.25,1.25
"007.33",7,"Female",20,"A","LEARNING",1,33,1,1750,,,,,,"cue1.png","Easy",,,0.000878167884391802,0.494374095789566,0.822,-1.34276145783493,1.741,0.426165471818701,"","","","",,,,,,,,"","",,,,,,,,,,,,,,,,,,,,,1,1.25,0.8,0.75,2.94444444444444,2.75,2.66666666666667,2.11111111111111,1.875,3,2,2.75,2.25,1.25
"007.34",7,"Female",20,"A","LEARNING",1,34,1,1750,,,,,,"cue1.png","Easy",-4.81609011056287e-05,-0.0125920149535773,0.000180140227527272,-0.230638075855201,2.398,1.44323904261028,2.203,1.22509222099261,"","","","",,,,,,,,"","",,,,,,,,,,,,,,,,,,,,,1,1.25,0.8,0.75,2.94444444444444,2.75,2.66666666666667,2.11111111111111,1.875,3,2,2.75,2.25,1.25
"007.35",7,"Female",20,"A","LEARNING",1,35,3,1750,,,,,,"cue2.png","Hard",-0.000866398738378616,-0.927703379791913,1.11752551949697e-05,-0.406134935210038,1.695,0.200498971662955,1.359,-0.234418983125957,"","","","",,,,,,,,"","",,,,,,,,,,,,,,,,,,,,,1,1.25,0.8,0.75,2.94444444444444,2.75,2.66666666666667,2.11111111111111,1.875,3,2,2.75,2.25,1.25
"007.36",7,"Female",20,"A","LEARNING",1,36,3,1750,,,,,,"cue2.png","Hard",,,,,1.592,0.0184189897176151,1.728,0.403684849006449,"","","","",,,,,,,,"","",,,,,,,,,,,,,,,,,,,,,1,1.25,0.8,0.75,2.94444444444444,2.75,2.66666666666667,2.11111111111111,1.875,3,2,2.75,2.25,1.25
"007.37",7,"Female",20,"A","LEARNING",1,37,1,1750,,,,,,"cue1.png","Easy",-3.28928409068334e-05,0.0044836747426106,0.00311381113106413,2.8164433567321,,,0.604,-1.54002438491448,"","","","",,,,,,,,"","",,,,,,,,,,,,,,,,,,,,,1,1.25,0.8,0.75,2.94444444444444,2.75,2.66666666666667,2.11111111111111,1.875,3,2,2.75,2.25,1.25
"007.38",7,"Female",20,"A","LEARNING",1,38,3,1750,,,,,,"cue2.png","Hard",0.000372694365800979,0.458089515714648,,,2.096,0.909373464479279,2.098,1.04351795981672,"","","","",,,,,,,,"","",,,,,,,,,,,,,,,,,,,,,1,1.25,0.8,0.75,2.94444444444444,2.75,2.66666666666667,2.11111111111111,1.875,3,2,2.75,2.25,1.25
"007.39",7,"Female",20,"A","LEARNING",1,39,3,1750,,,,,,"cue2.png","Hard",8.88788138587843e-05,0.140672225448815,,,2.319,1.30358546422502,1.636,0.244591210642814,"","","","",,,,,,,,"","",,,,,,,,,,,,,,,,,,,,,1,1.25,0.8,0.75,2.94444444444444,2.75,2.66666666666667,2.11111111111111,1.875,3,2,2.75,2.25,1.25
"007.40",7,"Female",20,"A","LEARNING",1,40,3,1750,,,,,,"cue2.png","Hard",,,-2.60242039831727e-06,-0.42044523137649,1.597,0.027257823792631,1.342,-0.263816720649673,"","","","",,,,,,,,"","",,,,,,,,,,,,,,,,,,,,,1,1.25,0.8,0.75,2.94444444444444,2.75,2.66666666666667,2.11111111111111,1.875,3,2,2.75,2.25,1.25
"007.41",7,"Female",20,"A","LEARNING",1,41,1,1750,,,,,,"cue1.png","Easy",,,,,,,2.021,0.910363501621069,"","","","",,,,,,,,"","",,,,,,,,,,,,,,,,,,,,,1,1.25,0.8,0.75,2.94444444444444,2.75,2.66666666666667,2.11111111111111,1.875,3,2,2.75,2.25,1.25
"007.42",7,"Female",20,"A","LEARNING",1,42,3,1750,,,,,,"cue2.png","Hard",6.92137812214537e-05,0.118678993118819,5.16751172190372e-05,-0.364069420142515,,,1.502,0.0128678678088229,"","","","",,,,,,,,"","",,,,,,,,,,,,,,,,,,,,,1,1.25,0.8,0.75,2.94444444444444,2.75,2.66666666666667,2.11111111111111,1.875,3,2,2.75,2.25,1.25
"007.43",7,"Female",20,"A","LEARNING",1,43,3,1750,,,,,,"cue2.png","Hard",,,,,1.66,0.13862713313784,2.281,1.35997595786612,"","","","",,,,,,,,"","",,,,,,,,,,,,,,,,,,,,,1,1.25,0.8,0.75,2.94444444444444,2.75,2.66666666666667,2.11111111111111,1.875,3,2,2.75,2.25,1.25
"007.44",7,"Female",20,"A","LEARNING",1,44,1,1750,,,,,,"cue1.png","Easy",,,0.00251075379280448,2.19007288825824,1.283,-0.527820956118406,2.054,0.967429697990634,"","","","",,,,,,,,"","",,,,,,,,,,,,,,,,,,,,,1,1.25,0.8,0.75,2.94444444444444,2.75,2.66666666666667,2.11111111111111,1.875,3,2,2.75,2.25,1.25
"007.45",7,"Female",20,"A","LEARNING",1,45,1,1750,,,,,,"cue1.png","Easy",-8.55562265980195e-05,-0.0544146804318281,-0.000548638824537779,-0.987590437256323,1.639,0.101504030022771,1.702,0.358723603381943,"","","","",,,,,,,,"","",,,,,,,,,,,,,,,,,,,,,1,1.25,0.8,0.75,2.94444444444444,2.75,2.66666666666667,2.11111111111111,1.875,3,2,2.75,2.25,1.25
"007.46",7,"Female",20,"A","LEARNING",1,46,1,1750,,,,,,"cue1.png","Easy",7.52205923109351e-05,0.125396967824977,,,2.051,0.829823957804131,0.178,-2.27669710168523,"","","","",,,,,,,,"","",,,,,,,,,,,,,,,,,,,,,1,1.25,0.8,0.75,2.94444444444444,2.75,2.66666666666667,2.11111111111111,1.875,3,2,2.75,2.25,1.25
"007.47",7,"Female",20,"A","LEARNING",1,47,3,1750,,,,,,"cue2.png","Hard",,,0.000296872653460648,-0.109392980771893,,,1.636,0.244591210642814,"","","","",,,,,,,,"","",,,,,,,,,,,,,,,,,,,,,1,1.25,0.8,0.75,2.94444444444444,2.75,2.66666666666667,2.11111111111111,1.875,3,2,2.75,2.25,1.25
"007.48",7,"Female",20,"A","LEARNING",1,48,3,1750,,,,,,"cue2.png","Hard",0.000104038332587065,0.157626523138059,,,1.585,0.00604462201259178,1.997,0.868860813352295,"","","","",,,,,,,,"","",,,,,,,,,,,,,,,,,,,,,1,1.25,0.8,0.75,2.94444444444444,2.75,2.66666666666667,2.11111111111111,1.875,3,2,2.75,2.25,1.25
"007.49",7,"Female",20,"A","LEARNING",1,49,1,1750,,,,,,"cue1.png","Easy",,,,,,,,,"","","","",,,,,,,,"","",,,,,,,,,,,,,,,,,,,,,1,1.25,0.8,0.75,2.94444444444444,2.75,2.66666666666667,2.11111111111111,1.875,3,2,2.75,2.25,1.25
"007.50",7,"Female",20,"A","LEARNING",1,50,1,1750,,,,,,"cue1.png","Easy",,,6.57659543925075e-05,-0.349433856123003,1.484,-0.172499826302742,,,"","","","",,,,,,,,"","",,,,,,,,,,,,,,,,,,,,,1,1.25,0.8,0.75,2.94444444444444,2.75,2.66666666666667,2.11111111111111,1.875,3,2,2.75,2.25,1.25
"007.51",7,"Female",20,"A","TrueCHOICE",9,1,1,1750,,,,,,"","",,,,,,,,,"True","Left","Easy","Easy",0.0140102002769708,,,-0.00032953050792436,-0.615945726310269,,,"","",,,,,,,,,,,,,,,,,,,,,1,1.25,0.8,0.75,2.94444444444444,2.75,2.66666666666667,2.11111111111111,1.875,3,2,2.75,2.25,1.25
"007.52",7,"Female",20,"A","TrueCHOICE",9,2,3,1750,,,,,,"","",,,,,,,,,"True","Right","Hard","Hard",0.0140955997630953,,,,,,,"","",,,,,,,,,,,,,,,,,,,,,1,1.25,0.8,0.75,2.94444444444444,2.75,2.66666666666667,2.11111111111111,1.875,3,2,2.75,2.25,1.25
"007.53",7,"Female",20,"A","TrueCHOICE",9,3,1,1750,,,,,,"","",,,,,,,,,"True","Right","Easy","Easy",0.0178204998373985,,,,,,,"","",,,,,,,,,,,,,,,,,,,,,1,1.25,0.8,0.75,2.94444444444444,2.75,2.66666666666667,2.11111111111111,1.875,3,2,2.75,2.25,1.25
"007.54",7,"Female",20,"A","TrueCHOICE",9,4,1,1750,,,,,,"","",,,,,,,,,"True","Left","Easy","Easy",0.0166081003844738,-1.87528073842379e-05,-0.978749653691914,-0.000410715049206719,-0.795723361257228,1.324,-0.986901690180926,"","",,,,,,,,,,,,,,,,,,,,,1,1.25,0.8,0.75,2.94444444444444,2.75,2.66666666666667,2.11111111111111,1.875,3,2,2.75,2.25,1.25
"007.55",7,"Female",20,"A","TrueCHOICE",9,5,1,1750,,,,,,"","",,,,,,,,,"True","Right","Easy","Easy",0.0168340997770428,0.00114402306577437,1.74002128310469,0.000717932449381613,1.70358962099278,1.581,-0.464591693524216,"","",,,,,,,,,,,,,,,,,,,,,1,1.25,0.8,0.75,2.94444444444444,2.75,2.66666666666667,2.11111111111111,1.875,3,2,2.75,2.25,1.25
"007.56",7,"Female",20,"A","TrueCHOICE",9,6,1,1750,,,,,,"","",,,,,,,,,"True","Right","Easy","Easy",0.016665400005877,,,,,1.556,-0.515400058957749,"","",,,,,,,,,,,,,,,,,,,,,1,1.25,0.8,0.75,2.94444444444444,2.75,2.66666666666667,2.11111111111111,1.875,3,2,2.75,2.25,1.25
"007.57",7,"Female",20,"A","TrueCHOICE",9,7,3,1750,,,,,,"","",,,,,,,,,"True","Right","Hard","Hard",0.0166946998797357,,,,,,,"","",,,,,,,,,,,,,,,,,,,,,1,1.25,0.8,0.75,2.94444444444444,2.75,2.66666666666667,2.11111111111111,1.875,3,2,2.75,2.25,1.25
"007.58",7,"Female",20,"A","TrueCHOICE",9,8,1,1750,,,,,,"","",,,,,,,,,"True","Right","Easy","Easy",0.0168309998698532,0.000143204117042063,-0.600066375764003,,,,,"","",,,,,,,,,,,,,,,,,,,,,1,1.25,0.8,0.75,2.94444444444444,2.75,2.66666666666667,2.11111111111111,1.875,3,2,2.75,2.25,1.25
"007.59",7,"Female",20,"A","TrueCHOICE",9,9,1,1750,,,,,,"","",,,,,,,,,"True","Left","Easy","Easy",0.0141937001608312,0.000123189892538896,-0.646863091414733,-0.00018320620759603,-0.29192053342528,2.735,1.88072245488762,"","",,,,,,,,,,,,,,,,,,,,,1,1.25,0.8,0.75,2.94444444444444,2.75,2.66666666666667,2.11111111111111,1.875,3,2,2.75,2.25,1.25
"007.60",7,"Female",20,"A","TrueCHOICE",9,10,1,1750,,,,,,"","",,,,,,,,,"True","Right","Easy","Easy",0.0161120002157986,0.000607551408426692,0.485657837765965,,,1.852,0.0861709877752703,"","",,,,,,,,,,,,,,,,,,,,,1,1.25,0.8,0.75,2.94444444444444,2.75,2.66666666666667,2.11111111111111,1.875,3,2,2.75,2.25,1.25
"007.61",7,"Female",20,"A","FalseCHOICE",9,1,2,1750,,,,,,"","",,,,,,,,,"False","Left","Easy","Mid",0.017319899983704,,,-0.00032953050792436,-0.615945726310269,,,"","",,,,,,,,,,,,,,,,,,,,,1,1.25,0.8,0.75,2.94444444444444,2.75,2.66666666666667,2.11111111111111,1.875,3,2,2.75,2.25,1.25
"007.62",7,"Female",20,"A","FalseCHOICE",9,2,2,1750,,,,,,"","",,,,,,,,,"False","Left","Hard","Mid",0.0153878000564873,,,,,,,"","",,,,,,,,,,,,,,,,,,,,,1,1.25,0.8,0.75,2.94444444444444,2.75,2.66666666666667,2.11111111111111,1.875,3,2,2.75,2.25,1.25
"007.63",7,"Female",20,"A","FalseCHOICE",9,3,2,1750,,,,,,"","",,,,,,,,,"False","Right","Easy","Mid",0.0164328999817371,,,,,,,"","",,,,,,,,,,,,,,,,,,,,,1,1.25,0.8,0.75,2.94444444444444,2.75,2.66666666666667,2.11111111111111,1.875,3,2,2.75,2.25,1.25
"007.64",7,"Female",20,"A","FalseCHOICE",9,4,2,1750,,,,,,"","",,,,,,,,,"False","Right","Easy","Mid",0.0164577001705765,-1.87528073842379e-05,-0.978749653691914,-0.000410715049206719,-0.795723361257228,1.324,-0.986901690180926,"","",,,,,,,,,,,,,,,,,,,,,1,1.25,0.8,0.75,2.94444444444444,2.75,2.66666666666667,2.11111111111111,1.875,3,2,2.75,2.25,1.25
"007.65",7,"Female",20,"A","FalseCHOICE",9,5,2,1750,,,,,,"","",,,,,,,,,"False","Left","Easy","Mid",0.0161144998855888,0.00114402306577437,1.74002128310469,0.000717932449381613,1.70358962099278,1.581,-0.464591693524216,"","",,,,,,,,,,,,,,,,,,,,,1,1.25,0.8,0.75,2.94444444444444,2.75,2.66666666666667,2.11111111111111,1.875,3,2,2.75,2.25,1.25
"007.66",7,"Female",20,"A","FalseCHOICE",9,6,2,1750,,,,,,"","",,,,,,,,,"False","Right","Easy","Mid",0.0168093997053802,,,,,1.556,-0.515400058957749,"","",,,,,,,,,,,,,,,,,,,,,1,1.25,0.8,0.75,2.94444444444444,2.75,2.66666666666667,2.11111111111111,1.875,3,2,2.75,2.25,1.25
"007.67",7,"Female",20,"A","FalseCHOICE",9,7,2,1750,,,,,,"","",,,,,,,,,"False","Right","Easy","Mid",0.0162447998300194,,,,,,,"","",,,,,,,,,,,,,,,,,,,,,1,1.25,0.8,0.75,2.94444444444444,2.75,2.66666666666667,2.11111111111111,1.875,3,2,2.75,2.25,1.25
"007.68",7,"Female",20,"A","FalseCHOICE",9,8,2,1750,,,,,,"","",,,,,,,,,"False","Left","Easy","Mid",0.0137207997031509,0.000143204117042063,-0.600066375764003,,,,,"","",,,,,,,,,,,,,,,,,,,,,1,1.25,0.8,0.75,2.94444444444444,2.75,2.66666666666667,2.11111111111111,1.875,3,2,2.75,2.25,1.25
"007.69",7,"Female",20,"A","FalseCHOICE",9,9,2,1750,,,,,,"","",,,,,,,,,"False","Left","Easy","Mid",0.0170081001706421,0.000123189892538896,-0.646863091414733,-0.00018320620759603,-0.29192053342528,2.735,1.88072245488762,"","",,,,,,,,,,,,,,,,,,,,,1,1.25,0.8,0.75,2.94444444444444,2.75,2.66666666666667,2.11111111111111,1.875,3,2,2.75,2.25,1.25
"007.70",7,"Female",20,"A","FalseCHOICE",9,10,2,1750,,,,,,"","",,,,,,,,,"False","Right","Easy","Mid",0.0162963001057505,0.000607551408426692,0.485657837765965,,,1.852,0.0861709877752703,"","",,,,,,,,,,,,,,,,,,,,,1,1.25,0.8,0.75,2.94444444444444,2.75,2.66666666666667,2.11111111111111,1.875,3,2,2.75,2.25,1.25
"007.71",7,"Female",20,"","OFFLINERATING",9,1,1,,,,,,,"","",,,,,,,,,"","","","",,,,,,,,"T0","Easy",36,1.38547919970006,,,0.00012455867517124,0.945420507258537,1.598,-0.114838621577939,,,,,,,,,,,,,1,1.25,0.8,0.75,2.94444444444444,2.75,2.66666666666667,2.11111111111111,1.875,3,2,2.75,2.25,1.25
"007.72",7,"Female",20,"","OFFLINERATING",9,2,3,,,,,,,"","",,,,,,,,,"","","","",,,,,,,,"T0","Hard",50,1.235476099886,,,-0.000475224351636245,-0.668209231866894,,,,,,,,,,,,,,,1,1.25,0.8,0.75,2.94444444444444,2.75,2.66666666666667,2.11111111111111,1.875,3,2,2.75,2.25,1.25
"007.73",7,"Female",20,"","OFFLINERATING",9,3,1,,,,,,,"","",,,,,,,,,"","","","",,,,,,,,"T1","Easy",59,1.28328920016065,,,0.0001471578871191,1.00622042797982,,,,,,,,,,,,,,,1,1.25,0.8,0.75,2.94444444444444,2.75,2.66666666666667,2.11111111111111,1.875,3,2,2.75,2.25,1.25
"007.74",7,"Female",20,"","OFFLINERATING",9,4,3,,,,,,,"","",,,,,,,,,"","","","",,,,,,,,"T1","Hard",56,1.13493780000135,,,-0.000703901344363823,-1.28343170337146,1.467,-0.768919466217498,,,,,,,,,,,,,1,1.25,0.8,0.75,2.94444444444444,2.75,2.66666666666667,2.11111111111111,1.875,3,2,2.75,2.25,1.25
"007.75",7,"Female",20,"","OFFLINERATING",9,5,1,,,,,,,"","",,,,,,,,,"","","","",,,,,,,,"T2","Easy",80,2.27708509983495,3.89139505142053e-05,1.06560520066782,,,1.464,-0.7838984168581,,,,,,,,,,,,,1,1.25,0.8,0.75,2.94444444444444,2.75,2.66666666666667,2.11111111111111,1.875,3,2,2.75,2.25,1.25
"007.76",7,"Female",20,"","OFFLINERATING",9,6,3,,,,,,,"","",,,,,,,,,"","","","",,,,,,,,"T2","Hard",66,1.1352021000348,1.67520061573794e-05,0.272408034985982,,,1.955,1.66765650465353,,,,,,,,,,,,,1,1.25,0.8,0.75,2.94444444444444,2.75,2.66666666666667,2.11111111111111,1.875,3,2,2.75,2.25,1.25
"007.77",7,"Female",20,"","OFFLINERATING",9,7,1,,,,,,,"","",,,,,,,,,"","","","",,,,,,,,"T3","Easy",81,1.33533120015636,-2.82431957106056e-05,-1.33801323565381,,,,,,,,,,,,,,,,,1,1.25,0.8,0.75,2.94444444444444,2.75,2.66666666666667,2.11111111111111,1.875,3,2,2.75,2.25,1.25
"007.78",7,"Female",20,"","OFFLINERATING",9,8,3,,,,,,,"","",,,,,,,,,"","","","",,,,,,,,"T3","Hard",78,1.53555299993604,,,,,,,,,,,,,,,,,,,1,1.25,0.8,0.75,2.94444444444444,2.75,2.66666666666667,2.11111111111111,1.875,3,2,2.75,2.25,1.25
"008.1",8,"Female",24,"B","LEARNING",1,1,1,2583,,,,,,"cue2.png","Easy",-0.000860509016031173,-0.686209599922561,0.00126262132249613,0.606392704027109,1.279,-0.445914143636605,,,"","","","",,,,,,,,"","",,,,,,,,,,,,,,,,,,,,,1.14285714285714,0.5,0.4,1,2.88888888888889,3.5,3.44444444444444,3.44444444444444,0.375,3.11111111111111,2.5,2.25,3,2.25
"008.2",8,"Female",24,"B","LEARNING",1,2,3,2583,,,,,,"cue1.png","Hard",0.00483330671864825,1.8224690876999,,,1.113,-0.748537806120973,1.162,-0.974986416226913,"","","","",,,,,,,,"","",,,,,,,,,,,,,,,,,,,,,1.14285714285714,0.5,0.4,1,2.88888888888889,3.5,3.44444444444444,3.44444444444444,0.375,3.11111111111111,2.5,2.25,3,2.25
"008.3",8,"Female",24,"B","LEARNING",1,3,1,2583,,,,,,"cue2.png","Easy",,,0.000377713359396761,0.115963246847364,,,1.575,-0.25061199977132,"","","","",,,,,,,,"","",,,,,,,,,,,,,,,,,,,,,1.14285714285714,0.5,0.4,1,2.88888888888889,3.5,3.44444444444444,3.44444444444444,0.375,3.11111111111111,2.5,2.25,3,2.25
"008.4",8,"Female",24,"B","LEARNING",1,4,3,2583,,,,,,"cue1.png","Hard",0.00384070333766367,1.38513091885622,-0.0019886680699923,-1.1955213462291,1.579,0.100996089768879,1.583,-0.236580534077264,"","","","",,,,,,,,"","",,,,,,,,,,,,,,,,,,,,,1.14285714285714,0.5,0.4,1,2.88888888888889,3.5,3.44444444444444,3.44444444444444,0.375,3.11111111111111,2.5,2.25,3,2.25
"008.5",8,"Female",24,"B","LEARNING",1,5,3,2583,,,,,,"cue1.png","Hard",,,-0.00111936333314942,-0.713739434446533,1.502,-0.0393775368051954,,,"","","","",,,,,,,,"","",,,,,,,,,,,,,,,,,,,,,1.14285714285714,0.5,0.4,1,2.88888888888889,3.5,3.44444444444444,3.44444444444444,0.375,3.11111111111111,2.5,2.25,3,2.25
"008.6",8,"Female",24,"B","LEARNING",1,6,1,2583,,,,,,"cue2.png","Easy",0.00286380205298092,0.954711048071166,-0.00326602355350855,-1.90345119038183,0.083,-2.62626294081314,1.637,-0.141868140642392,"","","","",,,,,,,,"","",,,,,,,,,,,,,,,,,,,,,1.14285714285714,0.5,0.4,1,2.88888888888889,3.5,3.44444444444444,3.44444444444444,0.375,3.11111111111111,2.5,2.25,3,2.25
"008.7",8,"Female",24,"B","LEARNING",1,7,3,2583,,,,,,"cue1.png","Hard",0.00141096207064502,0.31459396840999,-2.68612796246494e-05,-0.108258173772489,,,1.211,-0.889043688850826,"","","","",,,,,,,,"","",,,,,,,,,,,,,,,,,,,,,1.14285714285714,0.5,0.4,1,2.88888888888889,3.5,3.44444444444444,3.44444444444444,0.375,3.11111111111111,2.5,2.25,3,2.25
"008.8",8,"Female",24,"B","LEARNING",1,8,3,2583,,,,,,"cue1.png","Hard",-0.000604521411650334,-0.573422204381406,0.00279772881956837,1.45717263583471,2.687,2.12091788514647,2.894,2.06282590653601,"","","","",,,,,,,,"","",,,,,,,,,,,,,,,,,,,,,1.14285714285714,0.5,0.4,1,2.88888888888889,3.5,3.44444444444444,3.44444444444444,0.375,3.11111111111111,2.5,2.25,3,2.25
"008.9",8,"Female",24,"B","LEARNING",1,9,1,2583,,,,,,"cue2.png","Easy",,,0.000457358926365551,0.160104031882757,,,0.571,-2.01156094437523,"","","","",,,,,,,,"","",,,,,,,,,,,,,,,,,,,,,1.14285714285714,0.5,0.4,1,2.88888888888889,3.5,3.44444444444444,3.44444444444444,0.375,3.11111111111111,2.5,2.25,3,2.25
"008.10",8,"Female",24,"B","LEARNING",1,10,1,2583,,,,,,"cue2.png","Easy",0.00911050748107918,3.70699132997037,-0.00127474480894305,-0.799854212487808,,,,,"","","","",,,,,,,,"","",,,,,,,,,,,,,,,,,,,,,1.14285714285714,0.5,0.4,1,2.88888888888889,3.5,3.44444444444444,3.44444444444444,0.375,3.11111111111111,2.5,2.25,3,2.25
"008.11",8,"Female",24,"B","LEARNING",1,11,3,2583,,,,,,"cue1.png","Hard",-0.00133204493587027,-0.893966957671931,,,,,0.695,-1.79407322611738,"","","","",,,,,,,,"","",,,,,,,,,,,,,,,,,,,,,1.14285714285714,0.5,0.4,1,2.88888888888889,3.5,3.44444444444444,3.44444444444444,0.375,3.11111111111111,2.5,2.25,3,2.25
"008.12",8,"Female",24,"B","LEARNING",1,12,1,2583,,,,,,"cue2.png","Easy",0.00231163452149988,0.711427636248289,-0.00326342088221893,-1.90200875035302,2.519,1.8146481544394,2.475,1.32792789080988,"","","","",,,,,,,,"","",,,,,,,,,,,,,,,,,,,,,1.14285714285714,0.5,0.4,1,2.88888888888889,3.5,3.44444444444444,3.44444444444444,0.375,3.11111111111111,2.5,2.25,3,2.25
"008.13",8,"Female",24,"B","LEARNING",1,13,1,2583,,,,,,"cue2.png","Easy",0.000472480243989419,-0.0988984006725268,0.00160687770857304,0.797184831112307,,,,,"","","","",,,,,,,,"","",,,,,,,,,,,,,,,,,,,,,1.14285714285714,0.5,0.4,1,2.88888888888889,3.5,3.44444444444444,3.44444444444444,0.375,3.11111111111111,2.5,2.25,3,2.25
"008.14",8,"Female",24,"B","LEARNING",1,14,1,2583,,,,,,"cue2.png","Easy",0.00172658554627914,0.453656755745031,-0.00226528978751618,-1.34882931092885,,,,,"","","","",,,,,,,,"","",,,,,,,,,,,,,,,,,,,,,1.14285714285714,0.5,0.4,1,2.88888888888889,3.5,3.44444444444444,3.44444444444444,0.375,3.11111111111111,2.5,2.25,3,2.25
"008.15",8,"Female",24,"B","LEARNING",1,15,3,2583,,,,,,"cue1.png","Hard",0.000181661130779935,-0.227032457912609,,,,,,,"","","","",,,,,,,,"","",,,,,,,,,,,,,,,,,,,,,1.14285714285714,0.5,0.4,1,2.88888888888889,3.5,3.44444444444444,3.44444444444444,0.375,3.11111111111111,2.5,2.25,3,2.25
"008.16",8,"Female",24,"B","LEARNING",1,16,1,2583,,,,,,"cue2.png","Easy",0.000353824803180889,-0.151177643520832,,,,,,,"","","","",,,,,,,,"","",,,,,,,,,,,,,,,,,,,,,1.14285714285714,0.5,0.4,1,2.88888888888889,3.5,3.44444444444444,3.44444444444444,0.375,3.11111111111111,2.5,2.25,3,2.25
"008.17",8,"Female",24,"B","LEARNING",1,17,1,2583,,,,,,"cue2.png","Easy",0.00050399622792245,-0.0850125496200079,0.000407120221732647,0.132260977384487,,,,,"","","","",,,,,,,,"","",,,,,,,,,,,,,,,,,,,,,1.14285714285714,0.5,0.4,1,2.88888888888889,3.5,3.44444444444444,3.44444444444444,0.375,3.11111111111111,2.5,2.25,3,2.25
"008.18",8,"Female",24,"B","LEARNING",1,18,3,2583,,,,,,"cue1.png","Hard",,,0.0014051772038059,0.685399342461752,,,,,"","","","",,,,,,,,"","",,,,,,,,,,,,,,,,,,,,,1.14285714285714,0.5,0.4,1,2.88888888888889,3.5,3.44444444444444,3.44444444444444,0.375,3.11111111111111,2.5,2.25,3,2.25
"008.19",8,"Female",24,"B","LEARNING",1,19,3,2583,,,,,,"cue1.png","Hard",6.39485372629996e-05,-0.27889628498065,8.35240024720787e-06,-0.0887422166051816,,,,,"","","","",,,,,,,,"","",,,,,,,,,,,,,,,,,,,,,1.14285714285714,0.5,0.4,1,2.88888888888889,3.5,3.44444444444444,3.44444444444444,0.375,3.11111111111111,2.5,2.25,3,2.25
"008.20",8,"Female",24,"B","LEARNING",1,20,3,2583,,,,,,"cue1.png","Hard",-0.000610936135479143,-0.576248513083021,,,2.035,0.932299644545216,2.443,1.27180202803366,"","","","",,,,,,,,"","",,,,,,,,,,,,,,,,,,,,,1.14285714285714,0.5,0.4,1,2.88888888888889,3.5,3.44444444444444,3.44444444444444,0.375,3.11111111111111,2.5,2.25,3,2.25
"008.21",8,"Female",24,"B","LEARNING",1,21,1,2583,,,,,,"cue2.png","Easy",-0.000405112609335238,-0.485563264822596,-4.68582396433949e-05,-0.119340793272136,2.146,1.13465643090524,1.512,-0.361109792112003,"","","","",,,,,,,,"","",,,,,,,,,,,,,,,,,,,,,1.14285714285714,0.5,0.4,1,2.88888888888889,3.5,3.44444444444444,3.44444444444444,0.375,3.11111111111111,2.5,2.25,3,2.25
"008.22",8,"Female",24,"B","LEARNING",1,22,3,2583,,,,,,"cue1.png","Hard",,,0.000356387200743765,0.104143965240624,1.417,-0.194335436270082,1.82,0.179101637109118,"","","","",,,,,,,,"","",,,,,,,,,,,,,,,,,,,,,1.14285714285714,0.5,0.4,1,2.88888888888889,3.5,3.44444444444444,3.44444444444444,0.375,3.11111111111111,2.5,2.25,3,2.25
"008.23",8,"Female",24,"B","LEARNING",1,23,3,2583,,,,,,"cue1.png","Hard",-0.000182700400909322,-0.387569091293805,0.00134989389358361,0.654760490791284,1.359,-0.300071414728476,1.456,-0.459330051970388,"","","","",,,,,,,,"","",,,,,,,,,,,,,,,,,,,,,1.14285714285714,0.5,0.4,1,2.88888888888889,3.5,3.44444444444444,3.44444444444444,0.375,3.11111111111111,2.5,2.25,3,2.25
"008.24",8,"Female",24,"B","LEARNING",1,24,3,2583,,,,,,"cue1.png","Hard",-0.000212793639682095,-0.400828084957926,0.000147949099283483,-0.0113756020109851,2.102,1.05444293000577,1.946,0.400097221790485,"","","","",,,,,,,,"","",,,,,,,,,,,,,,,,,,,,,1.14285714285714,0.5,0.4,1,2.88888888888889,3.5,3.44444444444444,3.44444444444444,0.375,3.11111111111111,2.5,2.25,3,2.25
"008.25",8,"Female",24,"B","LEARNING",1,25,1,2583,,,,,,"cue2.png","Easy",8.39979241114785e-05,-0.270062583324249,0.00323074812932568,1.69715852576707,1.01,-0.93631031959019,1.206,-0.89781335490961,"","","","",,,,,,,,"","",,,,,,,,,,,,,,,,,,,,,1.14285714285714,0.5,0.4,1,2.88888888888889,3.5,3.44444444444444,3.44444444444444,0.375,3.11111111111111,2.5,2.25,3,2.25
"008.26",8,"Female",24,"B","LEARNING",1,26,1,2583,,,,,,"cue2.png","Easy",,,,,1.862,0.616914743281387,1.496,-0.389172723500113,"","","","",,,,,,,,"","",,,,,,,,,,,,,,,,,,,,,1.14285714285714,0.5,0.4,1,2.88888888888889,3.5,3.44444444444444,3.44444444444444,0.375,3.11111111111111,2.5,2.25,3,2.25
"008.27",8,"Female",24,"B","LEARNING",1,27,3,2583,,,,,,"cue1.png","Hard",,,,,1.437,-0.157874754043049,1.89,0.3018769619321,"","","","",,,,,,,,"","",,,,,,,,,,,,,,,,,,,,,1.14285714285714,0.5,0.4,1,2.88888888888889,3.5,3.44444444444444,3.44444444444444,0.375,3.11111111111111,2.5,2.25,3,2.25
"008.28",8,"Female",24,"B","LEARNING",1,28,1,2583,,,,,,"cue2.png","Easy",,,0.000475272719817121,0.170032128775131,0.909,-1.1204367648367,1.475,-0.426005320947008,"","","","",,,,,,,,"","",,,,,,,,,,,,,,,,,,,,,1.14285714285714,0.5,0.4,1,2.88888888888889,3.5,3.44444444444444,3.44444444444444,0.375,3.11111111111111,2.5,2.25,3,2.25
"008.29",8,"Female",24,"B","LEARNING",1,29,1,2583,,,,,,"cue2.png","Easy",,,0.00180828040309011,0.908805268791033,0.997,-0.960009763037761,1.023,-1.21878313266112,"","","","",,,,,,,,"","",,,,,,,,,,,,,,,,,,,,,1.14285714285714,0.5,0.4,1,2.88888888888889,3.5,3.44444444444444,3.44444444444444,0.375,3.11111111111111,2.5,2.25,3,2.25
"008.30",8,"Female",24,"B","LEARNING",1,30,3,2583,,,,,,"cue1.png","Hard",-0.000233492316271644,-0.409947861789818,-0.000729624360780751,-0.497740166012904,1.683,0.290591637349447,2.032,0.550935478001578,"","","","",,,,,,,,"","",,,,,,,,,,,,,,,,,,,,,1.14285714285714,0.5,0.4,1,2.88888888888889,3.5,3.44444444444444,3.44444444444444,0.375,3.11111111111111,2.5,2.25,3,2.25
"008.31",8,"Female",24,"B","LEARNING",1,31,3,2583,,,,,,"cue1.png","Hard",,,,,,,0.617,-1.93088001663442,"","","","",,,,,,,,"","",,,,,,,,,,,,,,,,,,,,,1.14285714285714,0.5,0.4,1,2.88888888888889,3.5,3.44444444444444,3.44444444444444,0.375,3.11111111111111,2.5,2.25,3,2.25
"008.32",8,"Female",24,"B","LEARNING",1,32,1,2583,,,,,,"cue2.png","Easy",,,-0.000188896465150193,-0.19806053898455,0.374,-2.09576001440982,2.048,0.578998409389688,"","","","",,,,,,,,"","",,,,,,,,,,,,,,,,,,,,,1.14285714285714,0.5,0.4,1,2.88888888888889,3.5,3.44444444444444,3.44444444444444,0.375,3.11111111111111,2.5,2.25,3,2.25
"008.33",8,"Female",24,"B","LEARNING",1,33,1,2583,,,,,,"cue2.png","Easy",-0.000770463727031187,-0.646535906926279,-0.000374296435120196,-0.30081202323503,1.346,-0.323770858176047,1.121,-1.04689767790894,"","","","",,,,,,,,"","",,,,,,,,,,,,,,,,,,,,,1.14285714285714,0.5,0.4,1,2.88888888888889,3.5,3.44444444444444,3.44444444444444,0.375,3.11111111111111,2.5,2.25,3,2.25
"008.34",8,"Female",24,"B","LEARNING",1,34,1,2583,,,,,,"cue2.png","Easy",0.000101952865614654,-0.262151688208311,0.00130061023183844,0.62744673559254,1.496,-0.0503157414733047,2.227,0.892952454294171,"","","","",,,,,,,,"","",,,,,,,,,,,,,,,,,,,,,1.14285714285714,0.5,0.4,1,2.88888888888889,3.5,3.44444444444444,3.44444444444444,0.375,3.11111111111111,2.5,2.25,3,2.25
"008.35",8,"Female",24,"B","LEARNING",1,35,3,2583,,,,,,"cue1.png","Hard",-0.000471486009726932,-0.514807192400637,0.00043993985447941,0.15045011720922,,,1.898,0.315908427626155,"","","","",,,,,,,,"","",,,,,,,,,,,,,,,,,,,,,1.14285714285714,0.5,0.4,1,2.88888888888889,3.5,3.44444444444444,3.44444444444444,0.375,3.11111111111111,2.5,2.25,3,2.25
"008.36",8,"Female",24,"B","LEARNING",1,36,3,2583,,,,,,"cue1.png","Hard",-0.00168035019958637,-1.04742924598402,0.00432975209521911,2.30624324520356,1.869,0.629675982060848,2.59,1.52963021016192,"","","","",,,,,,,,"","",,,,,,,,,,,,,,,,,,,,,1.14285714285714,0.5,0.4,1,2.88888888888889,3.5,3.44444444444444,3.44444444444444,0.375,3.11111111111111,2.5,2.25,3,2.25
"008.37",8,"Female",24,"B","LEARNING",1,37,1,2583,,,,,,"cue2.png","Easy",0.00315554015587309,1.08325000949827,-0.000856459914602141,-0.568034359765945,1.229,-0.537065849204186,2.205,0.854365923635519,"","","","",,,,,,,,"","",,,,,,,,,,,,,,,,,,,,,1.14285714285714,0.5,0.4,1,2.88888888888889,3.5,3.44444444444444,3.44444444444444,0.375,3.11111111111111,2.5,2.25,3,2.25
"008.38",8,"Female",24,"B","LEARNING",1,38,3,2583,,,,,,"cue1.png","Hard",0.00140882777613917,0.313653604445041,-0.00254673978236806,-1.50481318038686,1.523,-0.00109382046681085,,,"","","","",,,,,,,,"","",,,,,,,,,,,,,,,,,,,,,1.14285714285714,0.5,0.4,1,2.88888888888889,3.5,3.44444444444444,3.44444444444444,0.375,3.11111111111111,2.5,2.25,3,2.25
"008.39",8,"Female",24,"B","LEARNING",1,39,3,2583,,,,,,"cue1.png","Hard",-0.000963343659823259,-0.731518245521886,0.0012726783306761,0.611966450979591,1.227,-0.540711917426889,2.37,1.14376490357541,"","","","",,,,,,,,"","",,,,,,,,,,,,,,,,,,,,,1.14285714285714,0.5,0.4,1,2.88888888888889,3.5,3.44444444444444,3.44444444444444,0.375,3.11111111111111,2.5,2.25,3,2.25
"008.40",8,"Female",24,"B","LEARNING",1,40,3,2583,,,,,,"cue1.png","Hard",-9.49945304543681e-05,-0.348926139318804,-0.000218772082244843,-0.214618060541166,1.509,-0.0266162980257335,2.041,0.566720876907389,"","","","",,,,,,,,"","",,,,,,,,,,,,,,,,,,,,,1.14285714285714,0.5,0.4,1,2.88888888888889,3.5,3.44444444444444,3.44444444444444,0.375,3.11111111111111,2.5,2.25,3,2.25
"008.41",8,"Female",24,"B","LEARNING",1,41,1,2583,,,,,,"cue2.png","Easy",0.00119015967834909,0.217309075195923,-0.00227401527877144,-1.3536651109424,2.469,1.72349644887182,1.799,0.142269039662224,"","","","",,,,,,,,"","",,,,,,,,,,,,,,,,,,,,,1.14285714285714,0.5,0.4,1,2.88888888888889,3.5,3.44444444444444,3.44444444444444,0.375,3.11111111111111,2.5,2.25,3,2.25
"008.42",8,"Female",24,"B","LEARNING",1,42,3,2583,,,,,,"cue1.png","Hard",0.00571781798897923,2.21218218630373,-0.00164582426394974,-1.00551209249159,1.496,-0.0503157414733047,,,"","","","",,,,,,,,"","",,,,,,,,,,,,,,,,,,,,,1.14285714285714,0.5,0.4,1,2.88888888888889,3.5,3.44444444444444,3.44444444444444,0.375,3.11111111111111,2.5,2.25,3,2.25
"008.43",8,"Female",24,"B","LEARNING",1,43,3,2583,,,,,,"cue1.png","Hard",-0.00412958968198388,-2.1265570535368,,,1.428,-0.174282061045215,,,"","","","",,,,,,,,"","",,,,,,,,,,,,,,,,,,,,,1.14285714285714,0.5,0.4,1,2.88888888888889,3.5,3.44444444444444,3.44444444444444,0.375,3.11111111111111,2.5,2.25,3,2.25
"008.44",8,"Female",24,"B","LEARNING",1,44,1,2583,,,,,,"cue2.png","Easy",0.0012907797928856,0.261642005632439,,,1.185,-0.617279350103657,1.452,-0.466345784817416,"","","","",,,,,,,,"","",,,,,,,,,,,,,,,,,,,,,1.14285714285714,0.5,0.4,1,2.88888888888889,3.5,3.44444444444444,3.44444444444444,0.375,3.11111111111111,2.5,2.25,3,2.25
"008.45",8,"Female",24,"B","LEARNING",1,45,1,2583,,,,,,"cue2.png","Easy",-0.000249599517057931,-0.417044647708565,0.00391923165598645,2.07872657164024,1.531,0.0134904524240021,2.566,1.48753581307975,"","","","",,,,,,,,"","",,,,,,,,,,,,,,,,,,,,,1.14285714285714,0.5,0.4,1,2.88888888888889,3.5,3.44444444444444,3.44444444444444,0.375,3.11111111111111,2.5,2.25,3,2.25
"008.46",8,"Female",24,"B","LEARNING",1,46,1,2583,,,,,,"cue2.png","Easy",-0.000699630288044053,-0.615326899287391,0.000939234093948893,0.42716658157275,1.836,0.569515856386245,,,"","","","",,,,,,,,"","",,,,,,,,,,,,,,,,,,,,,1.14285714285714,0.5,0.4,1,2.88888888888889,3.5,3.44444444444444,3.44444444444444,0.375,3.11111111111111,2.5,2.25,3,2.25
"008.47",8,"Female",24,"B","LEARNING",1,47,3,2583,,,,,,"cue1.png","Hard",-0.000680837781715211,-0.607046975540117,0.00211187572849887,1.07706241738876,1.351,-0.314655687619289,1.346,-0.652262705263646,"","","","",,,,,,,,"","",,,,,,,,,,,,,,,,,,,,,1.14285714285714,0.5,0.4,1,2.88888888888889,3.5,3.44444444444444,3.44444444444444,0.375,3.11111111111111,2.5,2.25,3,2.25
"008.48",8,"Female",24,"B","LEARNING",1,48,3,2583,,,,,,"cue1.png","Hard",7.01082110069785e-05,-0.276182350606183,,,2.485,1.75266499465344,2.252,0.936800784588092,"","","","",,,,,,,,"","",,,,,,,,,,,,,,,,,,,,,1.14285714285714,0.5,0.4,1,2.88888888888889,3.5,3.44444444444444,3.44444444444444,0.375,3.11111111111111,2.5,2.25,3,2.25
"008.49",8,"Female",24,"B","LEARNING",1,49,1,2583,,,,,,"cue2.png","Easy",-2.62914990627064e-05,-0.318655783083431,,,,,,,"","","","",,,,,,,,"","",,,,,,,,,,,,,,,,,,,,,1.14285714285714,0.5,0.4,1,2.88888888888889,3.5,3.44444444444444,3.44444444444444,0.375,3.11111111111111,2.5,2.25,3,2.25
"008.50",8,"Female",24,"B","LEARNING",1,50,1,2583,,,,,,"cue2.png","Easy",,,-0.00151690613813638,-0.934063705653906,1.253,-0.493313030531747,1.492,-0.39618845634714,"","","","",,,,,,,,"","",,,,,,,,,,,,,,,,,,,,,1.14285714285714,0.5,0.4,1,2.88888888888889,3.5,3.44444444444444,3.44444444444444,0.375,3.11111111111111,2.5,2.25,3,2.25
"008.51",8,"Female",24,"B","TrueCHOICE",9,1,3,2583,,,,,,"","",,,,,,,,,"True","Right","Hard","Hard",0.016624200005026,0.000898530679896508,0.829461186675786,-2.73661539324042e-05,-0.138361745060581,1.727,0.0533777503090983,"","",,,,,,,,,,,,,,,,,,,,,1.14285714285714,0.5,0.4,1,2.88888888888889,3.5,3.44444444444444,3.44444444444444,0.375,3.11111111111111,2.5,2.25,3,2.25
"008.52",8,"Female",24,"B","TrueCHOICE",9,2,3,2583,,,,,,"","",,,,,,,,,"True","Right","Hard","Hard",0.0161028000002261,0.0018833754565026,2.34764417926239,-0.000191150318670088,-0.660044222636164,1.573,-0.527846641945516,"","",,,,,,,,,,,,,,,,,,,,,1.14285714285714,0.5,0.4,1,2.88888888888889,3.5,3.44444444444444,3.44444444444444,0.375,3.11111111111111,2.5,2.25,3,2.25
"008.53",8,"Female",24,"B","TrueCHOICE",9,3,3,2583,,,,,,"","",,,,,,,,,"True","Left","Hard","Hard",0.0154362000030232,0.000181359752768863,-0.276090398920172,,,,,"","",,,,,,,,,,,,,,,,,,,,,1.14285714285714,0.5,0.4,1,2.88888888888889,3.5,3.44444444444444,3.44444444444444,0.375,3.11111111111111,2.5,2.25,3,2.25
"008.54",8,"Female",24,"B","TrueCHOICE",9,4,3,2583,,,,,,"","",,,,,,,,,"True","Right","Hard","Hard",0.0166398000001208,,,0.000252789471376646,0.753985088053835,1.471,-0.912813447205065,"","",,,,,,,,,,,,,,,,,,,,,1.14285714285714,0.5,0.4,1,2.88888888888889,3.5,3.44444444444444,3.44444444444444,0.375,3.11111111111111,2.5,2.25,3,2.25
"008.55",8,"Female",24,"B","TrueCHOICE",9,5,3,2583,,,,,,"","",,,,,,,,,"True","Left","Hard","Hard",0.0154607999938889,-1.89620741195776e-05,-0.584895601374478,,,1.466,-0.931684369031512,"","",,,,,,,,,,,,,,,,,,,,,1.14285714285714,0.5,0.4,1,2.88888888888889,3.5,3.44444444444444,3.44444444444444,0.375,3.11111111111111,2.5,2.25,3,2.25
"008.56",8,"Female",24,"B","TrueCHOICE",9,6,3,2583,,,,,,"","",,,,,,,,,"True","Left","Hard","Hard",0.0158441000021412,9.40399230488624e-05,-0.410697885851574,,,1.876,0.615731220737263,"","",,,,,,,,,,,,,,,,,,,,,1.14285714285714,0.5,0.4,1,2.88888888888889,3.5,3.44444444444444,3.44444444444444,0.375,3.11111111111111,2.5,2.25,3,2.25
"008.57",8,"Female",24,"B","TrueCHOICE",9,7,3,2583,,,,,,"","",,,,,,,,,"True","Right","Hard","Hard",0.0166228000016417,-8.21874460747323e-05,-0.682360386366347,0.000495744015494286,1.52783968331664,1.604,-0.410846926621534,"","",,,,,,,,,,,,,,,,,,,,,1.14285714285714,0.5,0.4,1,2.88888888888889,3.5,3.44444444444444,3.44444444444444,0.375,3.11111111111111,2.5,2.25,3,2.25
"008.58",8,"Female",24,"B","TrueCHOICE",9,8,3,2583,,,,,,"","",,,,,,,,,"True","Left","Hard","Hard",0.0174470000056317,,,5.88956194543626e-05,0.136397757682226,,,"","",,,,,,,,,,,,,,,,,,,,,1.14285714285714,0.5,0.4,1,2.88888888888889,3.5,3.44444444444444,3.44444444444444,0.375,3.11111111111111,2.5,2.25,3,2.25
"008.59",8,"Female",24,"B","TrueCHOICE",9,9,3,2583,,,,,,"","",,,,,,,,,"True","Right","Hard","Hard",0.0153907999992952,-3.52665596200629e-05,-0.610029706948977,-0.000492474433610827,-1.61981656135596,2.273,2.11408241375727,"","",,,,,,,,,,,,,,,,,,,,,1.14285714285714,0.5,0.4,1,2.88888888888889,3.5,3.44444444444444,3.44444444444444,0.375,3.11111111111111,2.5,2.25,3,2.25
"008.60",8,"Female",24,"B","TrueCHOICE",9,10,3,2583,,,,,,"","",,,,,,,,,"True","Left","Hard","Hard",0.0161360999991302,-3.72137480804061e-05,-0.61303138647663,,,,,"","",,,,,,,,,,,,,,,,,,,,,1.14285714285714,0.5,0.4,1,2.88888888888889,3.5,3.44444444444444,3.44444444444444,0.375,3.11111111111111,2.5,2.25,3,2.25
"008.61",8,"Female",24,"B","FalseCHOICE",9,1,2,2583,,,,,,"","",,,,,,,,,"False","Right","Hard","Mid",0.0164647999990847,0.000898530679896508,0.829461186675786,-2.73661539324042e-05,-0.138361745060581,1.727,0.0533777503090983,"","",,,,,,,,,,,,,,,,,,,,,1.14285714285714,0.5,0.4,1,2.88888888888889,3.5,3.44444444444444,3.44444444444444,0.375,3.11111111111111,2.5,2.25,3,2.25
"008.62",8,"Female",24,"B","FalseCHOICE",9,2,2,2583,,,,,,"","",,,,,,,,,"False","Left","Hard","Mid",0.0160709999981918,0.0018833754565026,2.34764417926239,-0.000191150318670088,-0.660044222636164,1.573,-0.527846641945516,"","",,,,,,,,,,,,,,,,,,,,,1.14285714285714,0.5,0.4,1,2.88888888888889,3.5,3.44444444444444,3.44444444444444,0.375,3.11111111111111,2.5,2.25,3,2.25
"008.63",8,"Female",24,"B","FalseCHOICE",9,3,2,2583,,,,,,"","",,,,,,,,,"False","Left","Hard","Mid",0.0161112999994657,0.000181359752768863,-0.276090398920172,,,,,"","",,,,,,,,,,,,,,,,,,,,,1.14285714285714,0.5,0.4,1,2.88888888888889,3.5,3.44444444444444,3.44444444444444,0.375,3.11111111111111,2.5,2.25,3,2.25
"008.64",8,"Female",24,"B","FalseCHOICE",9,4,2,2583,,,,,,"","",,,,,,,,,"False","Left","Hard","Mid",0.0161946000007446,,,0.000252789471376646,0.753985088053835,1.471,-0.912813447205065,"","",,,,,,,,,,,,,,,,,,,,,1.14285714285714,0.5,0.4,1,2.88888888888889,3.5,3.44444444444444,3.44444444444444,0.375,3.11111111111111,2.5,2.25,3,2.25
"008.65",8,"Female",24,"B","FalseCHOICE",9,5,2,2583,,,,,,"","",,,,,,,,,"False","Right","Hard","Mid",0.0161671999958343,-1.89620741195776e-05,-0.584895601374478,,,1.466,-0.931684369031512,"","",,,,,,,,,,,,,,,,,,,,,1.14285714285714,0.5,0.4,1,2.88888888888889,3.5,3.44444444444444,3.44444444444444,0.375,3.11111111111111,2.5,2.25,3,2.25
"008.66",8,"Female",24,"B","FalseCHOICE",9,6,2,2583,,,,,,"","",,,,,,,,,"False","Left","Hard","Mid",0.0162263000020175,9.40399230488624e-05,-0.410697885851574,,,1.876,0.615731220737263,"","",,,,,,,,,,,,,,,,,,,,,1.14285714285714,0.5,0.4,1,2.88888888888889,3.5,3.44444444444444,3.44444444444444,0.375,3.11111111111111,2.5,2.25,3,2.25
"008.67",8,"Female",24,"B","FalseCHOICE",9,7,2,2583,,,,,,"","",,,,,,,,,"False","Left","Hard","Mid",0.0160356999986106,-8.21874460747323e-05,-0.682360386366347,0.000495744015494286,1.52783968331664,1.604,-0.410846926621534,"","",,,,,,,,,,,,,,,,,,,,,1.14285714285714,0.5,0.4,1,2.88888888888889,3.5,3.44444444444444,3.44444444444444,0.375,3.11111111111111,2.5,2.25,3,2.25
"008.68",8,"Female",24,"B","FalseCHOICE",9,8,2,2583,,,,,,"","",,,,,,,,,"False","Right","Hard","Mid",0.0165338000006158,,,5.88956194543626e-05,0.136397757682226,,,"","",,,,,,,,,,,,,,,,,,,,,1.14285714285714,0.5,0.4,1,2.88888888888889,3.5,3.44444444444444,3.44444444444444,0.375,3.11111111111111,2.5,2.25,3,2.25
"008.69",8,"Female",24,"B","FalseCHOICE",9,9,2,2583,,,,,,"","",,,,,,,,,"False","Right","Hard","Mid",0.0168188000025111,-3.52665596200629e-05,-0.610029706948977,-0.000492474433610827,-1.61981656135596,2.273,2.11408241375727,"","",,,,,,,,,,,,,,,,,,,,,1.14285714285714,0.5,0.4,1,2.88888888888889,3.5,3.44444444444444,3.44444444444444,0.375,3.11111111111111,2.5,2.25,3,2.25
"008.70",8,"Female",24,"B","FalseCHOICE",9,10,2,2583,,,,,,"","",,,,,,,,,"False","Left","Hard","Mid",0.0160424999994575,-3.72137480804061e-05,-0.61303138647663,,,,,"","",,,,,,,,,,,,,,,,,,,,,1.14285714285714,0.5,0.4,1,2.88888888888889,3.5,3.44444444444444,3.44444444444444,0.375,3.11111111111111,2.5,2.25,3,2.25
"008.71",8,"Female",24,"","OFFLINERATING",9,1,1,,,,,,,"","",,,,,,,,,"","","","",,,,,,,,"T0","Easy",34,2.32868639999651,,,,,1.579,0.791141313066522,,,,,,,,,,,,,1.14285714285714,0.5,0.4,1,2.88888888888889,3.5,3.44444444444444,3.44444444444444,0.375,3.11111111111111,2.5,2.25,3,2.25
"008.72",8,"Female",24,"","OFFLINERATING",9,2,3,,,,,,,"","",,,,,,,,,"","","","",,,,,,,,"T0","Hard",67,1.81861919999938,-1.95729044471073e-06,-1,,,,,,,,,,,,,,,,,1.14285714285714,0.5,0.4,1,2.88888888888889,3.5,3.44444444444444,3.44444444444444,0.375,3.11111111111111,2.5,2.25,3,2.25
"008.73",8,"Female",24,"","OFFLINERATING",9,3,1,,,,,,,"","",,,,,,,,,"","","","",,,,,,,,"T1","Easy",20,1.88561990000016,,,-0.000111293435758506,0.52074931577316,,,,,,,,,,,,,,,1.14285714285714,0.5,0.4,1,2.88888888888889,3.5,3.44444444444444,3.44444444444444,0.375,3.11111111111111,2.5,2.25,3,2.25
"008.74",8,"Female",24,"","OFFLINERATING",9,4,3,,,,,,,"","",,,,,,,,,"","","","",,,,,,,,"T1","Hard",40,1.25185689999489,,,-4.67296063502666e-05,0.569615266757842,1.448,0.619600051805753,,,,,,,,,,,,,1.14285714285714,0.5,0.4,1,2.88888888888889,3.5,3.44444444444444,3.44444444444444,0.375,3.11111111111111,2.5,2.25,3,2.25
"008.75",8,"Female",24,"","OFFLINERATING",9,5,1,,,,,,,"","",,,,,,,,,"","","","",,,,,,,,"T2","Easy",47,1.38537970000471,,,,,-0.1025,-1.41074136487227,,,,,,,,,,,,,1.14285714285714,0.5,0.4,1,2.88888888888889,3.5,3.44444444444444,3.44444444444444,0.375,3.11111111111111,2.5,2.25,3,2.25
"008.76",8,"Female",24,"","OFFLINERATING",9,6,3,,,,,,,"","",,,,,,,,,"","","","",,,,,,,,"T2","Hard",56,0.834863600000972,,,-0.00308572984802934,-1.73049050784446,,,,,,,,,,,,,,,1.14285714285714,0.5,0.4,1,2.88888888888889,3.5,3.44444444444444,3.44444444444444,0.375,3.11111111111111,2.5,2.25,3,2.25
"008.77",8,"Female",24,"","OFFLINERATING",9,7,1,,,,,,,"","",,,,,,,,,"","","","",,,,,,,,"T3","Easy",35,1.81511789999786,0.000118717387898438,1,4.64321563641073e-05,0.640125925313456,,,,,,,,,,,,,,,1.14285714285714,0.5,0.4,1,2.88888888888889,3.5,3.44444444444444,3.44444444444444,0.375,3.11111111111111,2.5,2.25,3,2.25
"008.78",8,"Female",24,"","OFFLINERATING",9,8,3,,,,,,,"","",,,,,,,,,"","","","",,,,,,,,"T3","Hard",37,1.45192040000256,,,,,,,,,,,,,,,,,,,1.14285714285714,0.5,0.4,1,2.88888888888889,3.5,3.44444444444444,3.44444444444444,0.375,3.11111111111111,2.5,2.25,3,2.25
"009.1",9,"Female",19,"A","LEARNING",1,1,1,679,,,,,,"cue1.png","Easy",0.00166702875374984,1.21593627573673,0.00057576847237573,0.0516516271529196,1.48,-0.0997182137511689,,,"","","","",,,,,,,,"","",,,,,,,,,,,,,,,,,,,,,0.714285714285714,1.25,0,1,3.22222222222222,2.125,1.55555555555556,2.33333333333333,2.625,3.33333333333333,2,2,1.5,1
"009.2",9,"Female",19,"A","LEARNING",1,2,3,679,,,,,,"cue2.png","Hard",0.000688953106982024,0.306036831058117,-0.000728843609863039,-0.827009703332382,1.434,-0.185058452496356,1.447,-0.309492550049469,"","","","",,,,,,,,"","",,,,,,,,,,,,,,,,,,,,,0.714285714285714,1.25,0,1,3.22222222222222,2.125,1.55555555555556,2.33333333333333,2.625,3.33333333333333,2,2,1.5,1
"009.3",9,"Female",19,"A","LEARNING",1,3,1,679,,,,,,"cue1.png","Easy",,,0.00427757622430308,2.54483359962678,1.446,-0.16279578151935,1.467,-0.280032656337727,"","","","",,,,,,,,"","",,,,,,,,,,,,,,,,,,,,,0.714285714285714,1.25,0,1,3.22222222222222,2.125,1.55555555555556,2.33333333333333,2.625,3.33333333333333,2,2,1.5,1
"009.4",9,"Female",19,"A","LEARNING",1,4,3,679,,,,,,"cue2.png","Hard",0.000172507710111722,-0.174410035574342,-0.000145289875805449,-0.433983985299161,1.968,0.805630405980374,1.954,0.437315755543196,"","","","",,,,,,,,"","",,,,,,,,,,,,,,,,,,,,,0.714285714285714,1.25,0,1,3.22222222222222,2.125,1.55555555555556,2.33333333333333,2.625,3.33333333333333,2,2,1.5,1
"009.5",9,"Female",19,"A","LEARNING",1,5,3,679,,,,,,"cue2.png","Hard",0.00101511587743071,0.60946461262781,,,1.567,0.0616861508321185,1.587,-0.103273294067274,"","","","",,,,,,,,"","",,,,,,,,,,,,,,,,,,,,,0.714285714285714,1.25,0,1,3.22222222222222,2.125,1.55555555555556,2.33333333333333,2.625,3.33333333333333,2,2,1.5,1
"009.6",9,"Female",19,"A","LEARNING",1,6,1,679,,,,,,"cue1.png","Easy",0.00102484343193972,0.618514113527944,,,1.574,0.0746727089020379,1.604,-0.0782323844122928,"","","","",,,,,,,,"","",,,,,,,,,,,,,,,,,,,,,0.714285714285714,1.25,0,1,3.22222222222222,2.125,1.55555555555556,2.33333333333333,2.625,3.33333333333333,2,2,1.5,1
"009.7",9,"Female",19,"A","LEARNING",1,7,3,679,,,,,,"cue2.png","Hard",,,9.31790444384122e-05,-0.273374236552011,,,,,"","","","",,,,,,,,"","",,,,,,,,,,,,,,,,,,,,,0.714285714285714,1.25,0,1,3.22222222222222,2.125,1.55555555555556,2.33333333333333,2.625,3.33333333333333,2,2,1.5,1
"009.8",9,"Female",19,"A","LEARNING",1,8,3,679,,,,,,"cue2.png","Hard",-0.000215889811177436,-0.53573453036513,,,,,0.614,-1.53649712314353,"","","","",,,,,,,,"","",,,,,,,,,,,,,,,,,,,,,0.714285714285714,1.25,0,1,3.22222222222222,2.125,1.55555555555556,2.33333333333333,2.625,3.33333333333333,2,2,1.5,1
"009.9",9,"Female",19,"A","LEARNING",1,9,1,679,,,,,,"cue1.png","Easy",0.00017798218428754,-0.169317156481661,0.00107887909433432,0.390498595144218,,,,,"","","","",,,,,,,,"","",,,,,,,,,,,,,,,,,,,,,0.714285714285714,1.25,0,1,3.22222222222222,2.125,1.55555555555556,2.33333333333333,2.625,3.33333333333333,2,2,1.5,1
"009.10",9,"Female",19,"A","LEARNING",1,10,1,679,,,,,,"cue1.png","Easy",0.000860645367092227,0.465761380632732,0.000240549327646005,-0.174119775490321,2.712,2.18591600655469,0.801,-1.26104711693874,"","","","",,,,,,,,"","",,,,,,,,,,,,,,,,,,,,,0.714285714285714,1.25,0,1,3.22222222222222,2.125,1.55555555555556,2.33333333333333,2.625,3.33333333333333,2,2,1.5,1
"009.11",9,"Female",19,"A","LEARNING",1,11,3,679,,,,,,"cue2.png","Hard",0.00118083227829716,0.763629846800455,-0.000572754703522613,-0.721883215553945,,,2.012,0.522749447307248,"","","","",,,,,,,,"","",,,,,,,,,,,,,,,,,,,,,0.714285714285714,1.25,0,1,3.22222222222222,2.125,1.55555555555556,2.33333333333333,2.625,3.33333333333333,2,2,1.5,1
"009.12",9,"Female",19,"A","LEARNING",1,12,1,679,,,,,,"cue1.png","Easy",,,-0.000292772034575207,-0.533313794988723,,,2.792,1.67168530206519,"","","","",,,,,,,,"","",,,,,,,,,,,,,,,,,,,,,0.714285714285714,1.25,0,1,3.22222222222222,2.125,1.55555555555556,2.33333333333333,2.625,3.33333333333333,2,2,1.5,1
"009.13",9,"Female",19,"A","LEARNING",1,13,1,679,,,,,,"cue1.png","Easy",-0.00143649875459787,-1.67126162733174,0.000757829758935017,0.174270614402779,,,,,"","","","",,,,,,,,"","",,,,,,,,,,,,,,,,,,,,,0.714285714285714,1.25,0,1,3.22222222222222,2.125,1.55555555555556,2.33333333333333,2.625,3.33333333333333,2,2,1.5,1
"009.14",9,"Female",19,"A","LEARNING",1,14,1,679,,,,,,"cue1.png","Easy",,,,,,,,,"","","","",,,,,,,,"","",,,,,,,,,,,,,,,,,,,,,0.714285714285714,1.25,0,1,3.22222222222222,2.125,1.55555555555556,2.33333333333333,2.625,3.33333333333333,2,2,1.5,1
"009.15",9,"Female",19,"A","LEARNING",1,15,3,679,,,,,,"cue2.png","Hard",-5.81149521428756e-05,-0.388957277404989,-0.000128089147100662,-0.422399227366267,,,,,"","","","",,,,,,,,"","",,,,,,,,,,,,,,,,,,,,,0.714285714285714,1.25,0,1,3.22222222222222,2.125,1.55555555555556,2.33333333333333,2.625,3.33333333333333,2,2,1.5,1
"009.16",9,"Female",19,"A","LEARNING",1,16,1,679,,,,,,"cue1.png","Easy",,,-0.000224599057371651,-0.487399028700472,,,,,"","","","",,,,,,,,"","",,,,,,,,,,,,,,,,,,,,,0.714285714285714,1.25,0,1,3.22222222222222,2.125,1.55555555555556,2.33333333333333,2.625,3.33333333333333,2,2,1.5,1
"009.17",9,"Female",19,"A","LEARNING",1,17,1,679,,,,,,"cue1.png","Easy",0.000139253394968182,-0.205346377750192,0.000934565101169521,0.293302557357852,,,,,"","","","",,,,,,,,"","",,,,,,,,,,,,,,,,,,,,,0.714285714285714,1.25,0,1,3.22222222222222,2.125,1.55555555555556,2.33333333333333,2.625,3.33333333333333,2,2,1.5,1
"009.18",9,"Female",19,"A","LEARNING",1,18,3,679,,,,,,"cue2.png","Hard",0.000212878078132742,-0.1368536609062,-0.000868923426109441,-0.921354006434331,,,,,"","","","",,,,,,,,"","",,,,,,,,,,,,,,,,,,,,,0.714285714285714,1.25,0,1,3.22222222222222,2.125,1.55555555555556,2.33333333333333,2.625,3.33333333333333,2,2,1.5,1
"009.19",9,"Female",19,"A","LEARNING",1,19,3,679,,,,,,"cue2.png","Hard",-0.00105661789205067,-1.31786014246911,0.00269068386828388,1.47605540275156,,,,,"","","","",,,,,,,,"","",,,,,,,,,,,,,,,,,,,,,0.714285714285714,1.25,0,1,3.22222222222222,2.125,1.55555555555556,2.33333333333333,2.625,3.33333333333333,2,2,1.5,1
"009.20",9,"Female",19,"A","LEARNING",1,20,3,679,,,,,,"cue2.png","Hard",-0.00239459519123157,-2.56257450126173,,,1.163,-0.687823772060389,1.322,-0.493616885747858,"","","","",,,,,,,,"","",,,,,,,,,,,,,,,,,,,,,0.714285714285714,1.25,0,1,3.22222222222222,2.125,1.55555555555556,2.33333333333333,2.625,3.33333333333333,2,2,1.5,1
"009.21",9,"Female",19,"A","LEARNING",1,21,1,679,,,,,,"cue1.png","Easy",0.000468328676693364,0.100790900167618,0.00150067475899935,0.674579621951449,1.051,-0.895608701179104,2.013,0.524222441992835,"","","","",,,,,,,,"","",,,,,,,,,,,,,,,,,,,,,0.714285714285714,1.25,0,1,3.22222222222222,2.125,1.55555555555556,2.33333333333333,2.625,3.33333333333333,2,2,1.5,1
"009.22",9,"Female",19,"A","LEARNING",1,22,3,679,,,,,,"cue2.png","Hard",,,0.000749847771060323,0.168894714408154,1.461,-0.134967442798094,2.95,1.90441846238796,"","","","",,,,,,,,"","",,,,,,,,,,,,,,,,,,,,,0.714285714285714,1.25,0,1,3.22222222222222,2.125,1.55555555555556,2.33333333333333,2.625,3.33333333333333,2,2,1.5,1
"009.23",9,"Female",19,"A","LEARNING",1,23,3,679,,,,,,"cue2.png","Hard",,,0.000102510608534286,-0.267089391703788,2.388,1.58482389017555,2.103,0.656791963695674,"","","","",,,,,,,,"","",,,,,,,,,,,,,,,,,,,,,0.714285714285714,1.25,0,1,3.22222222222222,2.125,1.55555555555556,2.33333333333333,2.625,3.33333333333333,2,2,1.5,1
"009.24",9,"Female",19,"A","LEARNING",1,24,3,679,,,,,,"cue2.png","Hard",-0.00133500103153345,-1.57683874485056,-0.000116904893017168,-0.414866588578633,1.369,-0.305647920288467,2.973,1.93829734015646,"","","","",,,,,,,,"","",,,,,,,,,,,,,,,,,,,,,0.714285714285714,1.25,0,1,3.22222222222222,2.125,1.55555555555556,2.33333333333333,2.625,3.33333333333333,2,2,1.5,1
"009.25",9,"Female",19,"A","LEARNING",1,25,1,679,,,,,,"cue1.png","Easy",0.00122438379670652,0.804145631593318,0.00241237058713766,1.28861032138759,1.66,0.234221850903908,1.757,0.147135802482535,"","","","",,,,,,,,"","",,,,,,,,,,,,,,,,,,,,,0.714285714285714,1.25,0,1,3.22222222222222,2.125,1.55555555555556,2.33333333333333,2.625,3.33333333333333,2,2,1.5,1
"009.26",9,"Female",19,"A","LEARNING",1,26,1,679,,,,,,"cue1.png","Easy",-0.00134759481974182,-1.58855469027367,-0.00270428418139557,-2.15747664021588,0.632,-1.67294696279287,1.455,-0.297708592564772,"","","","",,,,,,,,"","",,,,,,,,,,,,,,,,,,,,,0.714285714285714,1.25,0,1,3.22222222222222,2.125,1.55555555555556,2.33333333333333,2.625,3.33333333333333,2,2,1.5,1
"009.27",9,"Female",19,"A","LEARNING",1,27,3,679,,,,,,"cue2.png","Hard",0.000510900947916325,0.140395695637672,,,2.25,1.32880317394,,,"","","","",,,,,,,,"","",,,,,,,,,,,,,,,,,,,,,0.714285714285714,1.25,0,1,3.22222222222222,2.125,1.55555555555556,2.33333333333333,2.625,3.33333333333333,2,2,1.5,1
"009.28",9,"Female",19,"A","LEARNING",1,28,1,679,,,,,,"cue1.png","Easy",,,0.00111477583436099,0.414675189690078,0.961,-1.06257873350664,1.494,-0.240261799826875,"","","","",,,,,,,,"","",,,,,,,,,,,,,,,,,,,,,0.714285714285714,1.25,0,1,3.22222222222222,2.125,1.55555555555556,2.33333333333333,2.625,3.33333333333333,2,2,1.5,1
"009.29",9,"Female",19,"A","LEARNING",1,29,1,679,,,,,,"cue1.png","Easy",,,0.000107379794468856,-0.263809975967956,1.74,0.382639657417275,2.805,1.69083423297783,"","","","",,,,,,,,"","",,,,,,,,,,,,,,,,,,,,,0.714285714285714,1.25,0,1,3.22222222222222,2.125,1.55555555555556,2.33333333333333,2.625,3.33333333333333,2,2,1.5,1
"009.30",9,"Female",19,"A","LEARNING",1,30,3,679,,,,,,"cue2.png","Hard",,,-7.0931878097015e-06,-0.340907976425604,1.555,0.0394234798551129,0.613,-1.53797011782912,"","","","",,,,,,,,"","",,,,,,,,,,,,,,,,,,,,,0.714285714285714,1.25,0,1,3.22222222222222,2.125,1.55555555555556,2.33333333333333,2.625,3.33333333333333,2,2,1.5,1
"009.31",9,"Female",19,"A","LEARNING",1,31,3,679,,,,,,"cue2.png","Hard",0.000912482437550461,0.51398517782018,0.00382750682133638,2.24171009969505,,,,,"","","","",,,,,,,,"","",,,,,,,,,,,,,,,,,,,,,0.714285714285714,1.25,0,1,3.22222222222222,2.125,1.55555555555556,2.33333333333333,2.625,3.33333333333333,2,2,1.5,1
"009.32",9,"Female",19,"A","LEARNING",1,32,1,679,,,,,,"cue1.png","Easy",-0.00167656773784655,-1.89459673976849,0.00480472135015402,2.89986789981829,1.574,0.0746727089020375,1.215,-0.651227317105679,"","","","",,,,,,,,"","",,,,,,,,,,,,,,,,,,,,,0.714285714285714,1.25,0,1,3.22222222222222,2.125,1.55555555555556,2.33333333333333,2.625,3.33333333333333,2,2,1.5,1
"009.33",9,"Female",19,"A","LEARNING",1,33,1,679,,,,,,"cue1.png","Easy",,,-0.0021952033393228,-1.81460870567043,2.146,1.13586002547262,1.76,0.151554786539296,"","","","",,,,,,,,"","",,,,,,,,,,,,,,,,,,,,,0.714285714285714,1.25,0,1,3.22222222222222,2.125,1.55555555555556,2.33333333333333,2.625,3.33333333333333,2,2,1.5,1
"009.34",9,"Female",19,"A","LEARNING",1,34,1,679,,,,,,"cue1.png","Easy",0.000100766553763499,-0.241150515758637,0.00211198536467271,1.08629970137842,2.297,1.4159986352666,1.588,-0.101800299381687,"","","","",,,,,,,,"","",,,,,,,,,,,,,,,,,,,,,0.714285714285714,1.25,0,1,3.22222222222222,2.125,1.55555555555556,2.33333333333333,2.625,3.33333333333333,2,2,1.5,1
"009.35",9,"Female",19,"A","LEARNING",1,35,3,679,,,,,,"cue2.png","Hard",0.000888901459131684,0.492047897979782,7.58177365262317e-05,-0.285067145207973,0.959,-1.06628917866948,2.287,0.927822985843703,"","","","",,,,,,,,"","",,,,,,,,,,,,,,,,,,,,,0.714285714285714,1.25,0,1,3.22222222222222,2.125,1.55555555555556,2.33333333333333,2.625,3.33333333333333,2,2,1.5,1
"009.36",9,"Female",19,"A","LEARNING",1,36,3,679,,,,,,"cue2.png","Hard",0.00149160574220476,1.05274102461664,0.000103208308741463,-0.26661948789049,0.67,-1.60244850469902,1.456,-0.296235597879185,"","","","",,,,,,,,"","",,,,,,,,,,,,,,,,,,,,,0.714285714285714,1.25,0,1,3.22222222222222,2.125,1.55555555555556,2.33333333333333,2.625,3.33333333333333,2,2,1.5,1
"009.37",9,"Female",19,"A","LEARNING",1,37,1,679,,,,,,"cue1.png","Easy",0.00158402827992005,1.13872130233936,0.000282017280209683,-0.146190947551232,0.605,-1.72303797249113,1.577,-0.118003240923145,"","","","",,,,,,,,"","",,,,,,,,,,,,,,,,,,,,,0.714285714285714,1.25,0,1,3.22222222222222,2.125,1.55555555555556,2.33333333333333,2.625,3.33333333333333,2,2,1.5,1
"009.38",9,"Female",19,"A","LEARNING",1,38,3,679,,,,,,"cue2.png","Hard",,,,,1.81,0.512505238116472,1.121,-0.789688817550867,"","","","",,,,,,,,"","",,,,,,,,,,,,,,,,,,,,,0.714285714285714,1.25,0,1,3.22222222222222,2.125,1.55555555555556,2.33333333333333,2.625,3.33333333333333,2,2,1.5,1
"009.39",9,"Female",19,"A","LEARNING",1,39,3,679,,,,,,"cue2.png","Hard",9.7225235010935e-05,-0.244444988918292,-0.00020312001297731,-0.472932808448474,2.167,1.17481969968238,2.66,1.4772500035677,"","","","",,,,,,,,"","",,,,,,,,,,,,,,,,,,,,,0.714285714285714,1.25,0,1,3.22222222222222,2.125,1.55555555555556,2.33333333333333,2.625,3.33333333333333,2,2,1.5,1
"009.40",9,"Female",19,"A","LEARNING",1,40,3,679,,,,,,"cue2.png","Hard",3.15370808135788e-05,-0.305554387995607,7.24919003107839e-05,-0.287307108882866,1.874,0.631239483327167,1.496,-0.237315810455701,"","","","",,,,,,,,"","",,,,,,,,,,,,,,,,,,,,,0.714285714285714,1.25,0,1,3.22222222222222,2.125,1.55555555555556,2.33333333333333,2.625,3.33333333333333,2,2,1.5,1
"009.41",9,"Female",19,"A","LEARNING",1,41,1,679,,,,,,"cue1.png","Easy",0.00030487488427768,-0.0512694393788477,0.000182115925487556,-0.213474899963197,0.784,-1.39095313041747,0.486,-1.72504044289868,"","","","",,,,,,,,"","",,,,,,,,,,,,,,,,,,,,,0.714285714285714,1.25,0,1,3.22222222222222,2.125,1.55555555555556,2.33333333333333,2.625,3.33333333333333,2,2,1.5,1
"009.42",9,"Female",19,"A","LEARNING",1,42,3,679,,,,,,"cue2.png","Hard",0.000446473679250699,0.0804592927891413,0.000521607317779494,0.0151738780916939,,,,,"","","","",,,,,,,,"","",,,,,,,,,,,,,,,,,,,,,0.714285714285714,1.25,0,1,3.22222222222222,2.125,1.55555555555556,2.33333333333333,2.625,3.33333333333333,2,2,1.5,1
"009.43",9,"Female",19,"A","LEARNING",1,43,3,679,,,,,,"cue2.png","Hard",,,,,1.018,-0.956831046365868,1.899,0.356301047835904,"","","","",,,,,,,,"","",,,,,,,,,,,,,,,,,,,,,0.714285714285714,1.25,0,1,3.22222222222222,2.125,1.55555555555556,2.33333333333333,2.625,3.33333333333333,2,2,1.5,1
"009.44",9,"Female",19,"A","LEARNING",1,44,1,679,,,,,,"cue1.png","Easy",0.00314064846260084,2.58683816781634,,,1.454,-0.147954000868014,0.792,-1.27430406910903,"","","","",,,,,,,,"","",,,,,,,,,,,,,,,,,,,,,0.714285714285714,1.25,0,1,3.22222222222222,2.125,1.55555555555556,2.33333333333333,2.625,3.33333333333333,2,2,1.5,1
"009.45",9,"Female",19,"A","LEARNING",1,45,1,679,,,,,,"cue1.png","Easy",0.00110145802919327,0.689788334213894,-0.000467754028149542,-0.651164850776244,1.307,-0.420671720336327,1.762,0.15450077591047,"","","","",,,,,,,,"","",,,,,,,,,,,,,,,,,,,,,0.714285714285714,1.25,0,1,3.22222222222222,2.125,1.55555555555556,2.33333333333333,2.625,3.33333333333333,2,2,1.5,1
"009.46",9,"Female",19,"A","LEARNING",1,46,1,679,,,,,,"cue1.png","Easy",7.27814599590375e-05,-0.267184924647261,,,0.627,-1.68222307569995,2.036,0.558101319761338,"","","","",,,,,,,,"","",,,,,,,,,,,,,,,,,,,,,0.714285714285714,1.25,0,1,3.22222222222222,2.125,1.55555555555556,2.33333333333333,2.625,3.33333333333333,2,2,1.5,1
"009.47",9,"Female",19,"A","LEARNING",1,47,3,679,,,,,,"cue2.png","Hard",0.000238287939042305,-0.11321497978028,-0.000223820169973272,-0.486874444996952,1.409,-0.231439017031783,0.262,-2.05499125247019,"","","","",,,,,,,,"","",,,,,,,,,,,,,,,,,,,,,0.714285714285714,1.25,0,1,3.22222222222222,2.125,1.55555555555556,2.33333333333333,2.625,3.33333333333333,2,2,1.5,1
"009.48",9,"Female",19,"A","LEARNING",1,48,3,679,,,,,,"cue2.png","Hard",0.00206226145693861,1.58361950999239,-0.000562746182224896,-0.715142437387495,2.164,1.16925403193812,2.289,0.930768975214877,"","","","",,,,,,,,"","",,,,,,,,,,,,,,,,,,,,,0.714285714285714,1.25,0,1,3.22222222222222,2.125,1.55555555555556,2.33333333333333,2.625,3.33333333333333,2,2,1.5,1
"009.49",9,"Female",19,"A","LEARNING",1,49,1,679,,,,,,"cue1.png","Easy",0.000428969055121838,0.0641748184473123,0.000288160537962424,-0.142053439471992,2.074,1.00228399961059,,,"","","","",,,,,,,,"","",,,,,,,,,,,,,,,,,,,,,0.714285714285714,1.25,0,1,3.22222222222222,2.125,1.55555555555556,2.33333333333333,2.625,3.33333333333333,2,2,1.5,1
"009.50",9,"Female",19,"A","LEARNING",1,50,1,679,,,,,,"cue1.png","Easy",0.000594399368955043,0.21807390711931,,,1.865,0.614542480094413,1.207,-0.663011274590376,"","","","",,,,,,,,"","",,,,,,,,,,,,,,,,,,,,,0.714285714285714,1.25,0,1,3.22222222222222,2.125,1.55555555555556,2.33333333333333,2.625,3.33333333333333,2,2,1.5,1
"009.51",9,"Female",19,"A","TrueCHOICE",9,1,1,679,,,,,,"","",,,,,,,,,"True","Left","Easy","Easy",0.0160728000046219,,,0.000702302598343705,1.11094005593056,,,"","",,,,,,,,,,,,,,,,,,,,,0.714285714285714,1.25,0,1,3.22222222222222,2.125,1.55555555555556,2.33333333333333,2.625,3.33333333333333,2,2,1.5,1
"009.52",9,"Female",19,"A","TrueCHOICE",9,2,1,679,,,,,,"","",,,,,,,,,"True","Left","Easy","Easy",0.0170209999923827,0.000217805932624619,-0.274382719474024,0.000740774365618672,1.13494917365395,1.457,0.105815514799854,"","",,,,,,,,,,,,,,,,,,,,,0.714285714285714,1.25,0,1,3.22222222222222,2.125,1.55555555555556,2.33333333333333,2.625,3.33333333333333,2,2,1.5,1
"009.53",9,"Female",19,"A","TrueCHOICE",9,3,3,679,,,,,,"","",,,,,,,,,"True","Left","Hard","Hard",0.0163201999966986,,,,,,,"","",,,,,,,,,,,,,,,,,,,,,0.714285714285714,1.25,0,1,3.22222222222222,2.125,1.55555555555556,2.33333333333333,2.625,3.33333333333333,2,2,1.5,1
"009.54",9,"Female",19,"A","TrueCHOICE",9,4,1,679,,,,,,"","",,,,,,,,,"True","Left","Easy","Easy",0.0137429000023985,,,,,1.139,-1.66520204869244,"","",,,,,,,,,,,,,,,,,,,,,0.714285714285714,1.25,0,1,3.22222222222222,2.125,1.55555555555556,2.33333333333333,2.625,3.33333333333333,2,2,1.5,1
"009.55",9,"Female",19,"A","TrueCHOICE",9,5,1,679,,,,,,"","",,,,,,,,,"True","Right","Easy","Easy",0.0164724000060232,-0.000896922745969989,-0.929225758037092,-0.00112672116941064,-0.0305007997760565,1.579,0.78526250456734,"","",,,,,,,,,,,,,,,,,,,,,0.714285714285714,1.25,0,1,3.22222222222222,2.125,1.55555555555556,2.33333333333333,2.625,3.33333333333333,2,2,1.5,1
"009.56",9,"Female",19,"A","TrueCHOICE",9,6,1,679,,,,,,"","",,,,,,,,,"True","Right","Easy","Easy",0.0164550999907078,0.000912277517203193,0.133581919252676,-0.00268171104643702,-1.00092502669978,1.577,0.774124029325249,"","",,,,,,,,,,,,,,,,,,,,,0.714285714285714,1.25,0,1,3.22222222222222,2.125,1.55555555555556,2.33333333333333,2.625,3.33333333333333,2,2,1.5,1
"009.57",9,"Female",19,"A","TrueCHOICE",9,7,1,679,,,,,,"","",,,,,,,,,"True","Left","Easy","Easy",0.0169989999994868,0.00429283766545024,2.11947886622481,,,,,"","",,,,,,,,,,,,,,,,,,,,,0.714285714285714,1.25,0,1,3.22222222222222,2.125,1.55555555555556,2.33333333333333,2.625,3.33333333333333,2,2,1.5,1
"009.58",9,"Female",19,"A","TrueCHOICE",9,8,1,679,,,,,,"","",,,,,,,,,"True","Right","Easy","Easy",0.0166171000018948,-0.000180281380133241,-0.508237567299794,-0.00302388100104036,-1.21446340310867,,,"","",,,,,,,,,,,,,,,,,,,,,0.714285714285714,1.25,0,1,3.22222222222222,2.125,1.55555555555556,2.33333333333333,2.625,3.33333333333333,2,2,1.5,1
"009.59",9,"Female",19,"A","TrueCHOICE",9,9,3,679,,,,,,"","",,,,,,,,,"True","Right","Hard","Hard",0.0165264999959617,,,,,,,"","",,,,,,,,,,,,,,,,,,,,,0.714285714285714,1.25,0,1,3.22222222222222,2.125,1.55555555555556,2.33333333333333,2.625,3.33333333333333,2,2,1.5,1
"009.60",9,"Female",19,"A","TrueCHOICE",9,10,1,679,,,,,,"","",,,,,,,,,"True","Right","Easy","Easy",0.0163140999939059,-0.00023641788724432,-0.541214740666574,,,,,"","",,,,,,,,,,,,,,,,,,,,,0.714285714285714,1.25,0,1,3.22222222222222,2.125,1.55555555555556,2.33333333333333,2.625,3.33333333333333,2,2,1.5,1
"009.61",9,"Female",19,"A","FalseCHOICE",9,1,2,679,,,,,,"","",,,,,,,,,"False","Left","Easy","Mid",0.0163135999900987,,,0.000702302598343705,1.11094005593056,,,"","",,,,,,,,,,,,,,,,,,,,,0.714285714285714,1.25,0,1,3.22222222222222,2.125,1.55555555555556,2.33333333333333,2.625,3.33333333333333,2,2,1.5,1
"009.62",9,"Female",19,"A","FalseCHOICE",9,2,2,679,,,,,,"","",,,,,,,,,"False","Right","Easy","Mid",0.0176253000099677,0.000217805932624619,-0.274382719474024,0.000740774365618672,1.13494917365395,1.457,0.105815514799854,"","",,,,,,,,,,,,,,,,,,,,,0.714285714285714,1.25,0,1,3.22222222222222,2.125,1.55555555555556,2.33333333333333,2.625,3.33333333333333,2,2,1.5,1
"009.63",9,"Female",19,"A","FalseCHOICE",9,3,2,679,,,,,,"","",,,,,,,,,"False","Right","Easy","Mid",0.0165771000029053,,,,,,,"","",,,,,,,,,,,,,,,,,,,,,0.714285714285714,1.25,0,1,3.22222222222222,2.125,1.55555555555556,2.33333333333333,2.625,3.33333333333333,2,2,1.5,1
"009.64",9,"Female",19,"A","FalseCHOICE",9,4,2,679,,,,,,"","",,,,,,,,,"False","Right","Easy","Mid",0.0165107999928295,,,,,1.139,-1.66520204869244,"","",,,,,,,,,,,,,,,,,,,,,0.714285714285714,1.25,0,1,3.22222222222222,2.125,1.55555555555556,2.33333333333333,2.625,3.33333333333333,2,2,1.5,1
"009.65",9,"Female",19,"A","FalseCHOICE",9,5,2,679,,,,,,"","",,,,,,,,,"False","Left","Easy","Mid",0.0016451999981654,-0.000896922745969989,-0.929225758037092,-0.00112672116941064,-0.0305007997760565,1.579,0.78526250456734,"","",,,,,,,,,,,,,,,,,,,,,0.714285714285714,1.25,0,1,3.22222222222222,2.125,1.55555555555556,2.33333333333333,2.625,3.33333333333333,2,2,1.5,1
"009.66",9,"Female",19,"A","FalseCHOICE",9,6,2,679,,,,,,"","",,,,,,,,,"False","Right","Easy","Mid",0.0171145999920554,0.000912277517203193,0.133581919252676,-0.00268171104643702,-1.00092502669978,1.577,0.774124029325249,"","",,,,,,,,,,,,,,,,,,,,,0.714285714285714,1.25,0,1,3.22222222222222,2.125,1.55555555555556,2.33333333333333,2.625,3.33333333333333,2,2,1.5,1
"009.67",9,"Female",19,"A","FalseCHOICE",9,7,2,679,,,,,,"","",,,,,,,,,"False","Right","Easy","Mid",0.016542199999094,0.00429283766545024,2.11947886622481,,,,,"","",,,,,,,,,,,,,,,,,,,,,0.714285714285714,1.25,0,1,3.22222222222222,2.125,1.55555555555556,2.33333333333333,2.625,3.33333333333333,2,2,1.5,1
"009.68",9,"Female",19,"A","FalseCHOICE",9,8,2,679,,,,,,"","",,,,,,,,,"False","Right","Hard","Mid",0.0175775999960023,-0.000180281380133241,-0.508237567299794,-0.00302388100104036,-1.21446340310867,,,"","",,,,,,,,,,,,,,,,,,,,,0.714285714285714,1.25,0,1,3.22222222222222,2.125,1.55555555555556,2.33333333333333,2.625,3.33333333333333,2,2,1.5,1
"009.69",9,"Female",19,"A","FalseCHOICE",9,9,2,679,,,,,,"","",,,,,,,,,"False","Right","Hard","Mid",0.0150030000077094,,,,,,,"","",,,,,,,,,,,,,,,,,,,,,0.714285714285714,1.25,0,1,3.22222222222222,2.125,1.55555555555556,2.33333333333333,2.625,3.33333333333333,2,2,1.5,1
"009.70",9,"Female",19,"A","FalseCHOICE",9,10,2,679,,,,,,"","",,,,,,,,,"False","Right","Easy","Mid",0.0165926000045146,-0.00023641788724432,-0.541214740666574,,,,,"","",,,,,,,,,,,,,,,,,,,,,0.714285714285714,1.25,0,1,3.22222222222222,2.125,1.55555555555556,2.33333333333333,2.625,3.33333333333333,2,2,1.5,1
"009.71",9,"Female",19,"","OFFLINERATING",9,1,1,,,,,,,"","",,,,,,,,,"","","","",,,,,,,,"T0","Easy",43,2.34057190000021,-0.000314630303598806,-1.52071695941298,-3.47342970489035e-05,-1.37600388981274,,,,,,,,,,,,,,,0.714285714285714,1.25,0,1,3.22222222222222,2.125,1.55555555555556,2.33333333333333,2.625,3.33333333333333,2,2,1.5,1
"009.72",9,"Female",19,"","OFFLINERATING",9,2,3,,,,,,,"","",,,,,,,,,"","","","",,,,,,,,"T0","Hard",46,1.2853441999905,,,0.000220847769796082,0.970773887317831,,,,,,,,,,,,,,,0.714285714285714,1.25,0,1,3.22222222222222,2.125,1.55555555555556,2.33333333333333,2.625,3.33333333333333,2,2,1.5,1
"009.73",9,"Female",19,"","OFFLINERATING",9,3,1,,,,,,,"","",,,,,,,,,"","","","",,,,,,,,"T1","Easy",36,1.3123995999922,,,,,1.124,0.0608986480143078,,,,,,,,,,,,,0.714285714285714,1.25,0,1,3.22222222222222,2.125,1.55555555555556,2.33333333333333,2.625,3.33333333333333,2,2,1.5,1
"009.74",9,"Female",19,"","OFFLINERATING",9,4,3,,,,,,,"","",,,,,,,,,"","","","",,,,,,,,"T1","Hard",0,1.63567370000237,-3.76046791154211e-05,-0.148763451785037,,,1.58,0.791682424186001,,,,,,,,,,,,,0.714285714285714,1.25,0,1,3.22222222222222,2.125,1.55555555555556,2.33333333333333,2.625,3.33333333333333,2,2,1.5,1
"009.75",9,"Female",19,"","OFFLINERATING",9,5,1,,,,,,,"","",,,,,,,,,"","","","",,,,,,,,"T2","Easy",15,1.91930999999749,8.65604341836047e-05,0.466157146384522,,,1.585,0.799695404187884,,,,,,,,,,,,,0.714285714285714,1.25,0,1,3.22222222222222,2.125,1.55555555555556,2.33333333333333,2.625,3.33333333333333,2,2,1.5,1
"009.76",9,"Female",19,"","OFFLINERATING",9,6,3,,,,,,,"","",,,,,,,,,"","","","",,,,,,,,"T2","Hard",0,2.06900399998994,0.000235409431741005,1.20332326481349,0.000159255710938546,0.405230002494913,0.0549999999999999,-1.65227647638819,,,,,,,,,,,,,0.714285714285714,1.25,0,1,3.22222222222222,2.125,1.55555555555556,2.33333333333333,2.625,3.33333333333333,2,2,1.5,1
"009.77",9,"Female",19,"","OFFLINERATING",9,7,1,,,,,,,"","",,,,,,,,,"","","","",,,,,,,,"T3","Easy",0,1.68229290000454,,,,,,,,,,,,,,,,,,,0.714285714285714,1.25,0,1,3.22222222222222,2.125,1.55555555555556,2.33333333333333,2.625,3.33333333333333,2,2,1.5,1
"009.78",9,"Female",19,"","OFFLINERATING",9,8,3,,,,,,,"","",,,,,,,,,"","","","",,,,,,,,"T3","Hard",0,2.10238620000018,,,,,,,,,,,,,,,,,,,0.714285714285714,1.25,0,1,3.22222222222222,2.125,1.55555555555556,2.33333333333333,2.625,3.33333333333333,2,2,1.5,1
"010.1",10,"Female",26,"B","LEARNING",1,1,1,583,,,,,,"cue2.png","Easy",0.000120399194507555,0.052110050959127,0.000128955906624297,0.753714399367017,,,1.591,0.344684321348286,"","","","",,,,,,,,"","",,,,,,,,,,,,,,,,,,,,,0.142857142857143,1.75,1,1.5,2.27777777777778,2,2.11111111111111,2.77777777777778,2.5,2.44444444444444,2.25,1.75,2,2.25
"010.2",10,"Female",26,"B","LEARNING",1,2,3,583,,,,,,"cue1.png","Hard",-0.00040392235270215,-1.98823969453755,-0.000114131201861956,-0.54391732763325,1.094,-0.706076574087007,1.53,0.248249779959171,"","","","",,,,,,,,"","",,,,,,,,,,,,,,,,,,,,,0.142857142857143,1.75,1,1.5,2.27777777777778,2,2.11111111111111,2.77777777777778,2.5,2.44444444444444,2.25,1.75,2,2.25
"010.3",10,"Female",26,"B","LEARNING",1,3,1,583,,,,,,"cue2.png","Easy",,,4.70457119294177e-05,0.316466747433823,1.58,0.375875181933622,1.449,0.120197356147396,"","","","",,,,,,,,"","",,,,,,,,,,,,,,,,,,,,,0.142857142857143,1.75,1,1.5,2.27777777777778,2,2.11111111111111,2.77777777777778,2.5,2.44444444444444,2.25,1.75,2,2.25
"010.4",10,"Female",26,"B","LEARNING",1,4,3,583,,,,,,"cue1.png","Hard",-0.000341542057005499,-1.74549243166803,-8.49876036316676e-05,-0.388344874869017,1.582,0.380327658295847,1.017,-0.562748904182074,"","","","",,,,,,,,"","",,,,,,,,,,,,,,,,,,,,,0.142857142857143,1.75,1,1.5,2.27777777777778,2,2.11111111111111,2.77777777777778,2.5,2.44444444444444,2.25,1.75,2,2.25
"010.5",10,"Female",26,"B","LEARNING",1,5,3,583,,,,,,"cue1.png","Hard",,,-0.000471818485634026,-2.45330022604159,1.545,0.297956845594688,,,"","","","",,,,,,,,"","",,,,,,,,,,,,,,,,,,,,,0.142857142857143,1.75,1,1.5,2.27777777777778,2,2.11111111111111,2.77777777777778,2.5,2.44444444444444,2.25,1.75,2,2.25
"010.6",10,"Female",26,"B","LEARNING",1,6,1,583,,,,,,"cue2.png","Easy",-7.45737519634517e-05,-0.706609486370413,,,0.0499999999999998,-3.03026923516836,2.035,1.04660131113135,"","","","",,,,,,,,"","",,,,,,,,,,,,,,,,,,,,,0.142857142857143,1.75,1,1.5,2.27777777777778,2,2.11111111111111,2.77777777777778,2.5,2.44444444444444,2.25,1.75,2,2.25
"010.7",10,"Female",26,"B","LEARNING",1,7,3,583,,,,,,"cue1.png","Hard",7.73544607160495e-05,-0.115394626473754,0.000123914721224459,0.726803872695096,1.285,-0.280865081494538,,,"","","","",,,,,,,,"","",,,,,,,,,,,,,,,,,,,,,0.142857142857143,1.75,1,1.5,2.27777777777778,2,2.11111111111111,2.77777777777778,2.5,2.44444444444444,2.25,1.75,2,2.25
"010.8",10,"Female",26,"B","LEARNING",1,8,3,583,,,,,,"cue1.png","Hard",0.000230149964848909,0.479195219451131,7.61539600778677e-06,0.105982410094125,,,,,"","","","",,,,,,,,"","",,,,,,,,,,,,,,,,,,,,,0.142857142857143,1.75,1,1.5,2.27777777777778,2,2.11111111111111,2.77777777777778,2.5,2.44444444444444,2.25,1.75,2,2.25
"010.9",10,"Female",26,"B","LEARNING",1,9,1,583,,,,,,"cue2.png","Easy",,,8.23750012634013e-05,0.505059252472986,,,,,"","","","",,,,,,,,"","",,,,,,,,,,,,,,,,,,,,,0.142857142857143,1.75,1,1.5,2.27777777777778,2,2.11111111111111,2.77777777777778,2.5,2.44444444444444,2.25,1.75,2,2.25
"010.10",10,"Female",26,"B","LEARNING",1,10,1,583,,,,,,"cue2.png","Easy",,,,,,,,,"","","","",,,,,,,,"","",,,,,,,,,,,,,,,,,,,,,0.142857142857143,1.75,1,1.5,2.27777777777778,2,2.11111111111111,2.77777777777778,2.5,2.44444444444444,2.25,1.75,2,2.25
"010.11",10,"Female",26,"B","LEARNING",1,11,3,583,,,,,,"cue1.png","Hard",0.000448363426725144,1.32835311458728,0.000114564187942267,0.676889466592272,,,1.466,0.147072556206657,"","","","",,,,,,,,"","",,,,,,,,,,,,,,,,,,,,,0.142857142857143,1.75,1,1.5,2.27777777777778,2,2.11111111111111,2.77777777777778,2.5,2.44444444444444,2.25,1.75,2,2.25
"010.12",10,"Female",26,"B","LEARNING",1,12,1,583,,,,,,"cue2.png","Easy",0.000528150818711503,1.63883851386099,0.000282313384736574,1.57235727356326,1.539,0.284599416508014,,,"","","","",,,,,,,,"","",,,,,,,,,,,,,,,,,,,,,0.142857142857143,1.75,1,1.5,2.27777777777778,2,2.11111111111111,2.77777777777778,2.5,2.44444444444444,2.25,1.75,2,2.25
"010.13",10,"Female",26,"B","LEARNING",1,13,1,583,,,,,,"cue2.png","Easy",,,,,,,,,"","","","",,,,,,,,"","",,,,,,,,,,,,,,,,,,,,,0.142857142857143,1.75,1,1.5,2.27777777777778,2,2.11111111111111,2.77777777777778,2.5,2.44444444444444,2.25,1.75,2,2.25
"010.14",10,"Female",26,"B","LEARNING",1,14,1,583,,,,,,"cue2.png","Easy",0.000178511342185863,0.278248202932268,-2.76897558748814e-05,-0.0824812459787931,,,-0.339,-2.70644133243846,"","","","",,,,,,,,"","",,,,,,,,,,,,,,,,,,,,,0.142857142857143,1.75,1,1.5,2.27777777777778,2,2.11111111111111,2.77777777777778,2.5,2.44444444444444,2.25,1.75,2,2.25
"010.15",10,"Female",26,"B","LEARNING",1,15,3,583,,,,,,"cue1.png","Hard",0.000189693137306366,0.321761144465432,9.52042409641122e-05,0.573543461991959,,,,,"","","","",,,,,,,,"","",,,,,,,,,,,,,,,,,,,,,0.142857142857143,1.75,1,1.5,2.27777777777778,2,2.11111111111111,2.77777777777778,2.5,2.44444444444444,2.25,1.75,2,2.25
"010.16",10,"Female",26,"B","LEARNING",1,16,1,583,,,,,,"cue2.png","Easy",,,0.000332812233502151,1.84192693006731,,,,,"","","","",,,,,,,,"","",,,,,,,,,,,,,,,,,,,,,0.142857142857143,1.75,1,1.5,2.27777777777778,2,2.11111111111111,2.77777777777778,2.5,2.44444444444444,2.25,1.75,2,2.25
"010.17",10,"Female",26,"B","LEARNING",1,17,1,583,,,,,,"cue2.png","Easy",,,,,,,,,"","","","",,,,,,,,"","",,,,,,,,,,,,,,,,,,,,,0.142857142857143,1.75,1,1.5,2.27777777777778,2,2.11111111111111,2.77777777777778,2.5,2.44444444444444,2.25,1.75,2,2.25
"010.18",10,"Female",26,"B","LEARNING",1,18,3,583,,,,,,"cue1.png","Hard",-0.000877759720033028,-3.83213483290328,-2.78022769426879e-05,-0.0830818985944376,,,,,"","","","",,,,,,,,"","",,,,,,,,,,,,,,,,,,,,,0.142857142857143,1.75,1,1.5,2.27777777777778,2,2.11111111111111,2.77777777777778,2.5,2.44444444444444,2.25,1.75,2,2.25
"010.19",10,"Female",26,"B","LEARNING",1,19,3,583,,,,,,"cue1.png","Hard",,,9.52850128922863e-05,0.573974633423889,,,,,"","","","",,,,,,,,"","",,,,,,,,,,,,,,,,,,,,,0.142857142857143,1.75,1,1.5,2.27777777777778,2,2.11111111111111,2.77777777777778,2.5,2.44444444444444,2.25,1.75,2,2.25
"010.20",10,"Female",26,"B","LEARNING",1,20,3,583,,,,,,"cue1.png","Hard",0.000287956634198374,0.704144630214178,8.41840105609095e-05,0.514715987762253,,,1.72,0.548619662974447,"","","","",,,,,,,,"","",,,,,,,,,,,,,,,,,,,,,0.142857142857143,1.75,1,1.5,2.27777777777778,2,2.11111111111111,2.77777777777778,2.5,2.44444444444444,2.25,1.75,2,2.25
"010.21",10,"Female",26,"B","LEARNING",1,21,1,583,,,,,,"cue2.png","Easy",0.000399823440722198,1.13946416158778,9.77179017460738e-05,0.586961721816191,1.469,0.128762743830146,1.402,0.0458953324541434,"","","","",,,,,,,,"","",,,,,,,,,,,,,,,,,,,,,0.142857142857143,1.75,1,1.5,2.27777777777778,2,2.11111111111111,2.77777777777778,2.5,2.44444444444444,2.25,1.75,2,2.25
"010.22",10,"Female",26,"B","LEARNING",1,22,3,583,,,,,,"cue1.png","Hard",0.000131838064173049,0.0966233747677053,-0.000482263826075041,-2.50905886022004,1.296,-0.256376461502301,1.581,0.328875380136956,"","","","",,,,,,,,"","",,,,,,,,,,,,,,,,,,,,,0.142857142857143,1.75,1,1.5,2.27777777777778,2,2.11111111111111,2.77777777777778,2.5,2.44444444444444,2.25,1.75,2,2.25
"010.23",10,"Female",26,"B","LEARNING",1,23,3,583,,,,,,"cue1.png","Hard",0.000290353134747361,0.713470394740221,,,1.514,0.228943461980204,1.953,0.916967993198443,"","","","",,,,,,,,"","",,,,,,,,,,,,,,,,,,,,,0.142857142857143,1.75,1,1.5,2.27777777777778,2,2.11111111111111,2.77777777777778,2.5,2.44444444444444,2.25,1.75,2,2.25
"010.24",10,"Female",26,"B","LEARNING",1,24,3,583,,,,,,"cue1.png","Hard",0.000288695724067993,0.707020731407046,,,,,,,"","","","",,,,,,,,"","",,,,,,,,,,,,,,,,,,,,,0.142857142857143,1.75,1,1.5,2.27777777777778,2,2.11111111111111,2.77777777777778,2.5,2.44444444444444,2.25,1.75,2,2.25
"010.25",10,"Female",26,"B","LEARNING",1,25,1,583,,,,,,"cue2.png","Easy",,,,,,,1.99,0.975461075680365,"","","","",,,,,,,,"","",,,,,,,,,,,,,,,,,,,,,0.142857142857143,1.75,1,1.5,2.27777777777778,2,2.11111111111111,2.77777777777778,2.5,2.44444444444444,2.25,1.75,2,2.25
"010.26",10,"Female",26,"B","LEARNING",1,26,1,583,,,,,,"cue2.png","Easy",8.7391302649553e-05,-0.0763371664216239,,,,,1.973,0.948585875621104,"","","","",,,,,,,,"","",,,,,,,,,,,,,,,,,,,,,0.142857142857143,1.75,1,1.5,2.27777777777778,2,2.11111111111111,2.77777777777778,2.5,2.44444444444444,2.25,1.75,2,2.25
"010.27",10,"Female",26,"B","LEARNING",1,27,3,583,,,,,,"cue1.png","Hard",6.43830156294742e-05,-0.165871828530325,0.000106368994596573,0.633142420685572,0.826,-1.30270840662513,,,"","","","",,,,,,,,"","",,,,,,,,,,,,,,,,,,,,,0.142857142857143,1.75,1,1.5,2.27777777777778,2,2.11111111111111,2.77777777777778,2.5,2.44444444444444,2.25,1.75,2,2.25
"010.28",10,"Female",26,"B","LEARNING",1,28,1,583,,,,,,"cue2.png","Easy",,,-0.000460081035786832,-2.39064413781611,1.349,-0.138385837903343,0.988,-0.608594833694931,"","","","",,,,,,,,"","",,,,,,,,,,,,,,,,,,,,,0.142857142857143,1.75,1,1.5,2.27777777777778,2,2.11111111111111,2.77777777777778,2.5,2.44444444444444,2.25,1.75,2,2.25
"010.29",10,"Female",26,"B","LEARNING",1,29,1,583,,,,,,"cue2.png","Easy",0.00021880798307424,0.435058926082057,5.73774126043157e-05,0.371618757234358,2.134,1.6092111342699,1.272,-0.159620903293151,"","","","",,,,,,,,"","",,,,,,,,,,,,,,,,,,,,,0.142857142857143,1.75,1,1.5,2.27777777777778,2,2.11111111111111,2.77777777777778,2.5,2.44444444444444,2.25,1.75,2,2.25
"010.30",10,"Female",26,"B","LEARNING",1,30,3,583,,,,,,"cue1.png","Hard",0.000102788913801498,-0.0164187591726416,,,2.213,1.78508395057778,,,"","","","",,,,,,,,"","",,,,,,,,,,,,,,,,,,,,,0.142857142857143,1.75,1,1.5,2.27777777777778,2,2.11111111111111,2.77777777777778,2.5,2.44444444444444,2.25,1.75,2,2.25
"010.31",10,"Female",26,"B","LEARNING",1,31,3,583,,,,,,"cue1.png","Hard",-3.62324054350273e-05,-0.557407613879024,,,,,,,"","","","",,,,,,,,"","",,,,,,,,,,,,,,,,,,,,,0.142857142857143,1.75,1,1.5,2.27777777777778,2,2.11111111111111,2.77777777777778,2.5,2.44444444444444,2.25,1.75,2,2.25
"010.32",10,"Female",26,"B","LEARNING",1,32,1,583,,,,,,"cue2.png","Easy",,,-1.47419527590413e-05,-0.0133641289803115,1.231,-0.401081943274607,0.4,-1.53816057692115,"","","","",,,,,,,,"","",,,,,,,,,,,,,,,,,,,,,0.142857142857143,1.75,1,1.5,2.27777777777778,2,2.11111111111111,2.77777777777778,2.5,2.44444444444444,2.25,1.75,2,2.25
"010.33",10,"Female",26,"B","LEARNING",1,33,1,583,,,,,,"cue2.png","Easy",-7.74292282064342e-05,-0.717721313180977,0.000144295680486128,0.835600178387043,0.713,-1.55427332109084,1.361,-0.0189213265123107,"","","","",,,,,,,,"","",,,,,,,,,,,,,,,,,,,,,0.142857142857143,1.75,1,1.5,2.27777777777778,2,2.11111111111111,2.77777777777778,2.5,2.44444444444444,2.25,1.75,2,2.25
"010.34",10,"Female",26,"B","LEARNING",1,34,1,583,,,,,,"cue2.png","Easy",-2.82701088504863e-05,-0.526423058893074,,,,,0.846,-0.833081798895822,"","","","",,,,,,,,"","",,,,,,,,,,,,,,,,,,,,,0.142857142857143,1.75,1,1.5,2.27777777777778,2,2.11111111111111,2.77777777777778,2.5,2.44444444444444,2.25,1.75,2,2.25
"010.35",10,"Female",26,"B","LEARNING",1,35,3,583,,,,,,"cue1.png","Hard",0.00010636007180078,-0.00252192171909854,,,1.619,0.462698470997007,1.019,-0.559587115939808,"","","","",,,,,,,,"","",,,,,,,,,,,,,,,,,,,,,0.142857142857143,1.75,1,1.5,2.27777777777778,2,2.11111111111111,2.77777777777778,2.5,2.44444444444444,2.25,1.75,2,2.25
"010.36",10,"Female",26,"B","LEARNING",1,36,3,583,,,,,,"cue1.png","Hard",,,-0.000169662017701375,-0.840348302143418,1.305,-0.236340317872289,1.77,0.627664369031098,"","","","",,,,,,,,"","",,,,,,,,,,,,,,,,,,,,,0.142857142857143,1.75,1,1.5,2.27777777777778,2,2.11111111111111,2.77777777777778,2.5,2.44444444444444,2.25,1.75,2,2.25
"010.37",10,"Female",26,"B","LEARNING",1,37,1,583,,,,,,"cue2.png","Easy",0.000521103761888804,1.61141553139686,-0.000215554122796615,-1.08532654044346,0.93,-1.07117963578944,0,-2.17051822537437,"","","","",,,,,,,,"","",,,,,,,,,,,,,,,,,,,,,0.142857142857143,1.75,1,1.5,2.27777777777778,2,2.11111111111111,2.77777777777778,2.5,2.44444444444444,2.25,1.75,2,2.25
"010.38",10,"Female",26,"B","LEARNING",1,38,3,583,,,,,,"cue1.png","Hard",-4.50353376893254e-05,-0.59166342632897,,,1.747,0.747656958179394,,,"","","","",,,,,,,,"","",,,,,,,,,,,,,,,,,,,,,0.142857142857143,1.75,1,1.5,2.27777777777778,2,2.11111111111111,2.77777777777778,2.5,2.44444444444444,2.25,1.75,2,2.25
"010.39",10,"Female",26,"B","LEARNING",1,39,3,583,,,,,,"cue1.png","Hard",0.000115512184935154,0.0330926964552886,0.000165526750883194,0.948934491822948,1.329,-0.182910601525592,0.944,-0.678154175024785,"","","","",,,,,,,,"","",,,,,,,,,,,,,,,,,,,,,0.142857142857143,1.75,1,1.5,2.27777777777778,2,2.11111111111111,2.77777777777778,2.5,2.44444444444444,2.25,1.75,2,2.25
"010.40",10,"Female",26,"B","LEARNING",1,40,3,583,,,,,,"cue1.png","Hard",,,7.07110566629922e-05,0.442795545155408,1.591,0.40036380192586,1.92,0.864798487201053,"","","","",,,,,,,,"","",,,,,,,,,,,,,,,,,,,,,0.142857142857143,1.75,1,1.5,2.27777777777778,2,2.11111111111111,2.77777777777778,2.5,2.44444444444444,2.25,1.75,2,2.25
"010.41",10,"Female",26,"B","LEARNING",1,41,1,583,,,,,,"cue2.png","Easy",0.00013362369146328,0.103571981412926,3.61659717234997e-05,0.258389228800135,0.717,-1.54536836836639,1.476,0.162881497417987,"","","","",,,,,,,,"","",,,,,,,,,,,,,,,,,,,,,0.142857142857143,1.75,1,1.5,2.27777777777778,2,2.11111111111111,2.77777777777778,2.5,2.44444444444444,2.25,1.75,2,2.25
"010.42",10,"Female",26,"B","LEARNING",1,42,3,583,,,,,,"cue1.png","Hard",-7.45117612959618e-05,-0.706368255310371,-0.000274968375428891,-1.40248782362196,2.11,1.5557814179232,2.268,1.41494964135535,"","","","",,,,,,,,"","",,,,,,,,,,,,,,,,,,,,,0.142857142857143,1.75,1,1.5,2.27777777777778,2,2.11111111111111,2.77777777777778,2.5,2.44444444444444,2.25,1.75,2,2.25
"010.43",10,"Female",26,"B","LEARNING",1,43,3,583,,,,,,"cue1.png","Hard",0.000142071744431009,0.136446813306406,-0.000216184930254416,-1.08869387561795,1.704,0.651928716391562,1.559,0.294095709472029,"","","","",,,,,,,,"","",,,,,,,,,,,,,,,,,,,,,0.142857142857143,1.75,1,1.5,2.27777777777778,2,2.11111111111111,2.77777777777778,2.5,2.44444444444444,2.25,1.75,2,2.25
"010.44",10,"Female",26,"B","LEARNING",1,44,1,583,,,,,,"cue2.png","Easy",0.00019513030299676,0.342919381603798,-0.000181854430335687,-0.905433043006409,1.941,1.1795471653152,0.206,-1.84485403642096,"","","","",,,,,,,,"","",,,,,,,,,,,,,,,,,,,,,0.142857142857143,1.75,1,1.5,2.27777777777778,2,2.11111111111111,2.77777777777778,2.5,2.44444444444444,2.25,1.75,2,2.25
"010.45",10,"Female",26,"B","LEARNING",1,45,1,583,,,,,,"cue2.png","Easy",0.000247571129870121,0.546988103047941,-0.000107307966887077,-0.507493980301849,1.427,0.0352607402234239,1.733,0.569171286549176,"","","","",,,,,,,,"","",,,,,,,,,,,,,,,,,,,,,0.142857142857143,1.75,1,1.5,2.27777777777778,2,2.11111111111111,2.77777777777778,2.5,2.44444444444444,2.25,1.75,2,2.25
"010.46",10,"Female",26,"B","LEARNING",1,46,1,583,,,,,,"cue2.png","Easy",0.000176201884695477,0.269261158574049,7.66537136319633e-05,0.474518248484418,1.154,-0.572502283220263,0.824,-0.867861469560748,"","","","",,,,,,,,"","",,,,,,,,,,,,,,,,,,,,,0.142857142857143,1.75,1,1.5,2.27777777777778,2,2.11111111111111,2.77777777777778,2.5,2.44444444444444,2.25,1.75,2,2.25
"010.47",10,"Female",26,"B","LEARNING",1,47,3,583,,,,,,"cue1.png","Hard",0.000277336590748568,0.662817694357183,7.62179830767155e-05,0.472192260091064,1.404,-0.0159427379421612,1.72,0.548619662974447,"","","","",,,,,,,,"","",,,,,,,,,,,,,,,,,,,,,0.142857142857143,1.75,1,1.5,2.27777777777778,2,2.11111111111111,2.77777777777778,2.5,2.44444444444444,2.25,1.75,2,2.25
"010.48",10,"Female",26,"B","LEARNING",1,48,3,583,,,,,,"cue1.png","Hard",1.32918142478661e-05,-0.364688604783067,1.40337131288699e-05,0.140244251382749,1.395,-0.0359788815721722,,,"","","","",,,,,,,,"","",,,,,,,,,,,,,,,,,,,,,0.142857142857143,1.75,1,1.5,2.27777777777778,2,2.11111111111111,2.77777777777778,2.5,2.44444444444444,2.25,1.75,2,2.25
"010.49",10,"Female",26,"B","LEARNING",1,49,1,583,,,,,,"cue2.png","Easy",0.00023870624174924,0.512491194962525,6.84251303759188e-05,0.430592962738916,,,1.992,0.978622863922631,"","","","",,,,,,,,"","",,,,,,,,,,,,,,,,,,,,,0.142857142857143,1.75,1,1.5,2.27777777777778,2,2.11111111111111,2.77777777777778,2.5,2.44444444444444,2.25,1.75,2,2.25
"010.50",10,"Female",26,"B","LEARNING",1,50,1,583,,,,,,"cue2.png","Easy",,,8.84618672956912e-05,0.537551763205805,1.953,1.20626202348855,2.269,1.41653053547648,"","","","",,,,,,,,"","",,,,,,,,,,,,,,,,,,,,,0.142857142857143,1.75,1,1.5,2.27777777777778,2,2.11111111111111,2.77777777777778,2.5,2.44444444444444,2.25,1.75,2,2.25
"010.51",10,"Female",26,"B","TrueCHOICE",9,1,3,583,,,,,,"","",,,,,,,,,"True","Right","Hard","Hard",0.0164147999894339,-4.25500941108412e-05,0.628279753887773,,,1.468,0.100434435513247,"","",,,,,,,,,,,,,,,,,,,,,0.142857142857143,1.75,1,1.5,2.27777777777778,2,2.11111111111111,2.77777777777778,2.5,2.44444444444444,2.25,1.75,2,2.25
"010.52",10,"Female",26,"B","TrueCHOICE",9,2,3,583,,,,,,"","",,,,,,,,,"True","Right","Hard","Hard",0.0162202999927103,-0.000309383635645042,-0.0959997850685418,5.34183146370113e-06,0.207351668453166,1.091,-2.28737164844585,"","",,,,,,,,,,,,,,,,,,,,,0.142857142857143,1.75,1,1.5,2.27777777777778,2,2.11111111111111,2.77777777777778,2.5,2.44444444444444,2.25,1.75,2,2.25
"010.53",10,"Female",26,"B","TrueCHOICE",9,3,3,583,,,,,,"","",,,,,,,,,"True","Left","Hard","Hard",0.0159833000216167,,,-5.1127544934484e-05,-0.855228196027189,1.602,0.949150656336906,"","",,,,,,,,,,,,,,,,,,,,,0.142857142857143,1.75,1,1.5,2.27777777777778,2,2.11111111111111,2.77777777777778,2.5,2.44444444444444,2.25,1.75,2,2.25
"010.54",10,"Female",26,"B","TrueCHOICE",9,4,3,583,,,,,,"","",,,,,,,,,"True","Right","Hard","Hard",0.0164409000135492,-0.000362366831288878,-0.239814705384438,,,1.488,0.227108498322749,"","",,,,,,,,,,,,,,,,,,,,,0.142857142857143,1.75,1,1.5,2.27777777777778,2,2.11111111111111,2.77777777777778,2.5,2.44444444444444,2.25,1.75,2,2.25
"010.55",10,"Female",26,"B","TrueCHOICE",9,5,3,583,,,,,,"","",,,,,,,,,"True","Left","Hard","Hard",0.0160125000111293,-0.00111352462643254,-2.27871962873855,-6.41722931785183e-05,-1.10069020934193,,,"","",,,,,,,,,,,,,,,,,,,,,0.142857142857143,1.75,1,1.5,2.27777777777778,2,2.11111111111111,2.77777777777778,2.5,2.44444444444444,2.25,1.75,2,2.25
"010.56",10,"Female",26,"B","TrueCHOICE",9,6,3,583,,,,,,"","",,,,,,,,,"True","Left","Hard","Hard",0.0165313000034075,1.92316158429502e-06,0.748995721399042,8.82173862033508e-05,1.76681453737235,1.456,0.0244299978275475,"","",,,,,,,,,,,,,,,,,,,,,0.142857142857143,1.75,1,1.5,2.27777777777778,2,2.11111111111111,2.77777777777778,2.5,2.44444444444444,2.25,1.75,2,2.25
"010.57",10,"Female",26,"B","TrueCHOICE",9,7,3,583,,,,,,"","",,,,,,,,,"True","Right","Hard","Hard",0.0163858000014442,,,-4.01727889889412e-05,-0.649093405269976,1.467,0.0941007323727724,"","",,,,,,,,,,,,,,,,,,,,,0.142857142857143,1.75,1,1.5,2.27777777777778,2,2.11111111111111,2.77777777777778,2.5,2.44444444444444,2.25,1.75,2,2.25
"010.58",10,"Female",26,"B","TrueCHOICE",9,8,3,583,,,,,,"","",,,,,,,,,"True","Left","Hard","Hard",0.0161229000077582,-9.65746923895644e-06,0.717561839791573,,,,,"","",,,,,,,,,,,,,,,,,,,,,0.142857142857143,1.75,1,1.5,2.27777777777778,2,2.11111111111111,2.77777777777778,2.5,2.44444444444444,2.25,1.75,2,2.25
"010.59",10,"Female",26,"B","TrueCHOICE",9,9,3,583,,,,,,"","",,,,,,,,,"True","Right","Hard","Hard",0.0166809999791439,,,-3.12989304774658e-05,-0.482114699713659,,,"","",,,,,,,,,,,,,,,,,,,,,0.142857142857143,1.75,1,1.5,2.27777777777778,2,2.11111111111111,2.77777777777778,2.5,2.44444444444444,2.25,1.75,2,2.25
"010.60",10,"Female",26,"B","TrueCHOICE",9,10,1,583,,,,,,"","",,,,,,,,,"True","Right","Easy","Easy",0.0165231999999377,-8.2553395985621e-05,0.519696804113139,5.34691832509691e-05,1.11296030452723,1.593,0.892147328072629,"","",,,,,,,,,,,,,,,,,,,,,0.142857142857143,1.75,1,1.5,2.27777777777778,2,2.11111111111111,2.77777777777778,2.5,2.44444444444444,2.25,1.75,2,2.25
"010.61",10,"Female",26,"B","FalseCHOICE",9,1,2,583,,,,,,"","",,,,,,,,,"False","Left","Easy","Mid",0.0161808999837376,-4.25500941108412e-05,0.628279753887773,,,1.468,0.100434435513247,"","",,,,,,,,,,,,,,,,,,,,,0.142857142857143,1.75,1,1.5,2.27777777777778,2,2.11111111111111,2.77777777777778,2.5,2.44444444444444,2.25,1.75,2,2.25
"010.62",10,"Female",26,"B","FalseCHOICE",9,2,2,583,,,,,,"","",,,,,,,,,"False","Right","Easy","Mid",0.0164555000083055,-0.000309383635645042,-0.0959997850685418,5.34183146370113e-06,0.207351668453166,1.091,-2.28737164844585,"","",,,,,,,,,,,,,,,,,,,,,0.142857142857143,1.75,1,1.5,2.27777777777778,2,2.11111111111111,2.77777777777778,2.5,2.44444444444444,2.25,1.75,2,2.25
"010.63",10,"Female",26,"B","FalseCHOICE",9,3,2,583,,,,,,"","",,,,,,,,,"False","Right","Easy","Mid",0.0165060000144876,,,-5.1127544934484e-05,-0.855228196027189,1.602,0.949150656336906,"","",,,,,,,,,,,,,,,,,,,,,0.142857142857143,1.75,1,1.5,2.27777777777778,2,2.11111111111111,2.77777777777778,2.5,2.44444444444444,2.25,1.75,2,2.25
"010.64",10,"Female",26,"B","FalseCHOICE",9,4,2,583,,,,,,"","",,,,,,,,,"False","Right","Easy","Mid",0.0160610000020824,-0.000362366831288878,-0.239814705384438,,,1.488,0.227108498322749,"","",,,,,,,,,,,,,,,,,,,,,0.142857142857143,1.75,1,1.5,2.27777777777778,2,2.11111111111111,2.77777777777778,2.5,2.44444444444444,2.25,1.75,2,2.25
"010.65",10,"Female",26,"B","FalseCHOICE",9,5,2,583,,,,,,"","",,,,,,,,,"False","Right","Hard","Mid",0.015484200004721,-0.00111352462643254,-2.27871962873855,-6.41722931785183e-05,-1.10069020934193,,,"","",,,,,,,,,,,,,,,,,,,,,0.142857142857143,1.75,1,1.5,2.27777777777778,2,2.11111111111111,2.77777777777778,2.5,2.44444444444444,2.25,1.75,2,2.25
"010.66",10,"Female",26,"B","FalseCHOICE",9,6,2,583,,,,,,"","",,,,,,,,,"False","Left","Hard","Mid",0.0158868000144138,1.92316158429502e-06,0.748995721399042,8.82173862033508e-05,1.76681453737235,1.456,0.0244299978275475,"","",,,,,,,,,,,,,,,,,,,,,0.142857142857143,1.75,1,1.5,2.27777777777778,2,2.11111111111111,2.77777777777778,2.5,2.44444444444444,2.25,1.75,2,2.25
"010.67",10,"Female",26,"B","FalseCHOICE",9,7,2,583,,,,,,"","",,,,,,,,,"False","Left","Hard","Mid",0.0160865999932866,,,-4.01727889889412e-05,-0.649093405269976,1.467,0.0941007323727724,"","",,,,,,,,,,,,,,,,,,,,,0.142857142857143,1.75,1,1.5,2.27777777777778,2,2.11111111111111,2.77777777777778,2.5,2.44444444444444,2.25,1.75,2,2.25
"010.68",10,"Female",26,"B","FalseCHOICE",9,8,2,583,,,,,,"","",,,,,,,,,"False","Right","Hard","Mid",0.014173200004734,-9.65746923895644e-06,0.717561839791573,,,,,"","",,,,,,,,,,,,,,,,,,,,,0.142857142857143,1.75,1,1.5,2.27777777777778,2,2.11111111111111,2.77777777777778,2.5,2.44444444444444,2.25,1.75,2,2.25
"010.69",10,"Female",26,"B","FalseCHOICE",9,9,2,583,,,,,,"","",,,,,,,,,"False","Right","Hard","Mid",0.0166761000000406,,,-3.12989304774658e-05,-0.482114699713659,,,"","",,,,,,,,,,,,,,,,,,,,,0.142857142857143,1.75,1,1.5,2.27777777777778,2,2.11111111111111,2.77777777777778,2.5,2.44444444444444,2.25,1.75,2,2.25
"010.70",10,"Female",26,"B","FalseCHOICE",9,10,2,583,,,,,,"","",,,,,,,,,"False","Left","Hard","Mid",0.0160335999971721,-8.2553395985621e-05,0.519696804113139,5.34691832509691e-05,1.11296030452723,1.593,0.892147328072629,"","",,,,,,,,,,,,,,,,,,,,,0.142857142857143,1.75,1,1.5,2.27777777777778,2,2.11111111111111,2.77777777777778,2.5,2.44444444444444,2.25,1.75,2,2.25
"010.71",10,"Female",26,"","OFFLINERATING",9,1,1,,,,,,,"","",,,,,,,,,"","","","",,,,,,,,"T0","Easy",76,1.25625350000337,6.58521162685759e-05,0.175406273124877,,,,,,,,,,,,,,,,,0.142857142857143,1.75,1,1.5,2.27777777777778,2,2.11111111111111,2.77777777777778,2.5,2.44444444444444,2.25,1.75,2,2.25
"010.72",10,"Female",26,"","OFFLINERATING",9,2,3,,,,,,,"","",,,,,,,,,"","","","",,,,,,,,"T0","Hard",78,0.568041299993638,,,,,1.582,1,,,,,,,,,,,,,0.142857142857143,1.75,1,1.5,2.27777777777778,2,2.11111111111111,2.77777777777778,2.5,2.44444444444444,2.25,1.75,2,2.25
"010.73",10,"Female",26,"","OFFLINERATING",9,3,1,,,,,,,"","",,,,,,,,,"","","","",,,,,,,,"T1","Easy",72,0.873322100000223,0.000194471827394753,1.12758468099821,0.000124539161269165,0.379331561315961,,,,,,,,,,,,,,,0.142857142857143,1.75,1,1.5,2.27777777777778,2,2.11111111111111,2.77777777777778,2.5,2.44444444444444,2.25,1.75,2,2.25
