"","PID","Gender","Age","CueMapping","Phase","Block","TrialN","NbackLevel","ISI","ISI_calibrated","CaliEnd_A_measure","Task_A_measure","Task_ACC","Task_RT","Task_RT_log","Task_RT_log_z","CueLearning","TrialDemandLearning","cue_i_on_zyg_values","cue_i_on_zyg_zvalues","cue_e_on_zyg_values","cue_e_on_zyg_zvalues","cue_i_on_cor_values","cue_i_on_cor_zvalues","cue_e_on_cor_values","cue_e_on_cor_zvalues","cue_i_on_scr_values","cue_i_on_scr_zvalues","cue_e_on_scr_values","cue_e_on_scr_zvalues","PhaseType","Choice","ChoiceDemand","TaskDemand","ChoiceRT","cue_e_true_zyg_values","cue_e_true_zyg_zvalues","cue_e_true_cor_values","cue_e_true_cor_zvalues","cue_e_true_scr_values","cue_e_true_scr_zvalues","cue_e_false_zyg_values","cue_e_false_zyg_zvalues","cue_e_false_cor_values","cue_e_false_cor_zvalues","cue_e_false_scr_values","cue_e_false_scr_zvalues","OfflineRatingTimePoint","TrialDemand","OfflineRating","OfflineRating_z","OfflineRatingRT","cue_i_off_zyg_values","cue_i_off_zyg_zvalues","cue_i_off_cor_values","cue_i_off_cor_zvalues","cue_i_off_scr_values","cue_i_off_scr_zvalues","CueCheck","CueDemandCheck","CorrectAnswer","Answer","AnswerDemand","AnswerRT","AnswerACC","DemandRatingQuesIndex","QuesTLX","DemandLevel","DemandRating","DemandRating_z","DemandRatingRT","BAI_bis","BAI_bas_d","BAI_bas_rr","BAI_bas_fs","NFC","BFI_ext","BFI_agr","BFI_con","BFI_neu","BFI_open","UPPS_lps","UPPS_lpm","UPPS_pu","UPPS_ss"
"007.1",7,"Female",20,"A","PRACTICE",0,1,1,1750,,,,,,,,"cue1.png","Easy",,,,,,,,,,,,,"","","","",,,,,,,,,,,,,,"","",,,,,,,,,,"","","","","",,,,"",,,,,1,1.25,0.8,0.75,2.94444444444444,2.75,2.66666666666667,2.11111111111111,1.875,3,2,2.75,2.25,1.25
"007.2",7,"Female",20,"A","LEARNING",1,1,1,1750,,,1,1,0.433099775051232,-0.836787150153904,-0.749959379754836,"cue1.png","Easy",4.89687127352197e-05,0.096037052829883,0.000167146426834415,-0.244134193903824,0.000579648779563127,1.45504965699542,,,,,,,"","","","",,,,,,,,,,,,,,"","",,,,,,,,,,"","","","","",,,,"",,,,,1,1.25,0.8,0.75,2.94444444444444,2.75,2.66666666666667,2.11111111111111,1.875,3,2,2.75,2.25,1.25
"007.3",7,"Female",20,"A","LEARNING",1,2,3,1750,,,1,1,0.852188574965112,-0.159947444524485,2.94012281800559,"cue2.png","Hard",0.000216904533023038,0.283855277199724,0.000951705796796061,0.570754853838501,5.5165160879893e-06,0.00534437584189516,,,1.437,-0.255584866607897,1.134,-0.623506685645717,"","","","",,,,,,,,,,,,,,"","",,,,,,,,,,"","","","","",,,,"",,,,,1,1.25,0.8,0.75,2.94444444444444,2.75,2.66666666666667,2.11111111111111,1.875,3,2,2.75,2.25,1.25
"007.4",7,"Female",20,"A","LEARNING",1,3,1,1750,,,1,0.875,0.532008114204343,-0.631096537493005,0.371451290620336,"cue1.png","Easy",0.00106590304397775,1.2333691602228,,,0.00017746328805384,0.439516358944512,0.00202265873870663,3.98015223032949,1.953,0.656582809933808,1.603,0.187525014273248,"","","","",,,,,,,,,,,,,,"","",,,,,,,,,,"","","","","",,,,"",,,,,1,1.25,0.8,0.75,2.94444444444444,2.75,2.66666666666667,2.11111111111111,1.875,3,2,2.75,2.25,1.25
"007.5",7,"Female",20,"A","LEARNING",1,4,3,1750,,,0.75,0.833333333333333,0.48416868748609,-0.725321905123411,-0.142258748519663,"cue2.png","Hard",,,0.000167527354803011,-0.243738539933618,-0.00134144114706585,-3.39577373228352,0.000173378787023361,-0.13313292455474,1.577,-0.00809751250743466,1.585,0.156397998071668,"","","","",,,,,,,,,,,,,,"","",,,,,,,,,,"","","","","",,,,"",,,,,1,1.25,0.8,0.75,2.94444444444444,2.75,2.66666666666667,2.11111111111111,1.875,3,2,2.75,2.25,1.25
"007.6",7,"Female",20,"A","LEARNING",1,5,3,1750,,,1,1,0.460531375021674,-0.775374293095912,-0.415140827210608,"cue2.png","Hard",5.68259502519547e-05,0.104824531262513,0.00029733955847123,-0.108908026039305,,,0.000557816125751679,0.721956861572582,1.563,-0.0328462479174809,,,"","","","",,,,,,,,,,,,,,"","",,,,,,,,,,"","","","","",,,,"",,,,,1,1.25,0.8,0.75,2.94444444444444,2.75,2.66666666666667,2.11111111111111,1.875,3,2,2.75,2.25,1.25
"007.7",7,"Female",20,"A","LEARNING",1,6,1,1750,,,1,1,0.352339000091888,-1.04316149839406,-1.87509772814297,"cue1.png","Easy",-0.000236501517425364,-0.223230817760914,0.00019367361632468,-0.216581510180145,5.76623950711199e-06,0.0059749367466919,0.000244215911418543,0.0244274772244354,,,0.113,-2.38910021574649,"","","","",,,,,,,,,,,,,,"","",,,,,,,,,,"","","","","",,,,"",,,,,1,1.25,0.8,0.75,2.94444444444444,2.75,2.66666666666667,2.11111111111111,1.875,3,2,2.75,2.25,1.25
"007.8",7,"Female",20,"A","LEARNING",1,7,3,1750,,,0.75,0.833333333333333,0.549511762510519,-0.598725099524943,0.547938080577149,"cue2.png","Hard",-4.33563217073123e-05,-0.00721860760135707,0.000164559984429505,-0.246820623598088,-5.39150869706935e-05,-0.144722628405678,,,1.443,-0.244978265717877,1.201,-0.507645014228722,"","","","",,,,,,,,,,,,,,"","",,,,,,,,,,"","","","","",,,,"",,,,,1,1.25,0.8,0.75,2.94444444444444,2.75,2.66666666666667,2.11111111111111,1.875,3,2,2.75,2.25,1.25
"007.9",7,"Female",20,"A","LEARNING",1,8,3,1750,,,0.75,0.833333333333333,0.603178224992007,-0.505542562091163,1.05596268325139,"cue2.png","Hard",1.51471373703977e-05,0.0582112440207519,0.000194227055837878,-0.216006675674103,,,,,,,,,"","","","",,,,,,,,,,,,,,"","",,,,,,,,,,"","","","","",,,,"",,,,,1,1.25,0.8,0.75,2.94444444444444,2.75,2.66666666666667,2.11111111111111,1.875,3,2,2.75,2.25,1.25
"007.10",7,"Female",20,"A","LEARNING",1,9,1,1750,,,1,1,0.399658687529154,-0.917144377302874,-1.18806129797498,"cue1.png","Easy",,,-0.00140657858493567,-1.87869663155885,,,-6.57476541533544e-05,-0.665013043482751,,,,,"","","","",,,,,,,,,,,,,,"","",,,,,,,,,,"","","","","",,,,"",,,,,1,1.25,0.8,0.75,2.94444444444444,2.75,2.66666666666667,2.11111111111111,1.875,3,2,2.75,2.25,1.25
"007.11",7,"Female",20,"A","LEARNING",1,10,1,1750,,,1,1,0.562522375083063,-0.575324367769238,0.675517214821343,"cue1.png","Easy",0.00113183867899963,1.3071111044446,0.000112873449741084,-0.300505268311983,,,0.00054186626294865,0.686480170317467,1.454,-0.225532830752841,1.53,0.0612876707890598,"","","","",,,,,,,,,,,,,,"","",,,,,,,,,,"","","","","",,,,"",,,,,1,1.25,0.8,0.75,2.94444444444444,2.75,2.66666666666667,2.11111111111111,1.875,3,2,2.75,2.25,1.25
"007.12",7,"Female",20,"A","LEARNING",1,11,3,1750,,,0.75,0.833333333333333,0.540110787551384,-0.615980998334496,0.453860140890866,"cue2.png","Hard",6.78203726182098e-05,0.117120614869114,-6.94473879115443e-05,-0.489874307121112,0.000129304418027553,0.317913424127876,0.000112436887978143,-0.268683741739007,2.306,1.28060449562997,,,"","","","",,,,,,,,,,,,,,"","",,,,,,,,,,"","","","","",,,,"",,,,,1,1.25,0.8,0.75,2.94444444444444,2.75,2.66666666666667,2.11111111111111,1.875,3,2,2.75,2.25,1.25
"007.13",7,"Female",20,"A","LEARNING",1,12,1,1750,,,1,1,0.399273324990645,-0.918109071575619,-1.1933207429108,"cue1.png","Easy",-6.4477198355018e-05,-0.0308400454953563,-0.000212968848416091,-0.638944053476771,,,0.00011788265046438,-0.256570933198973,,,,,"","","","",,,,,,,,,,,,,,"","",,,,,,,,,,"","","","","",,,,"",,,,,1,1.25,0.8,0.75,2.94444444444444,2.75,2.66666666666667,2.11111111111111,1.875,3,2,2.75,2.25,1.25
"007.14",7,"Female",20,"A","LEARNING",1,13,1,1750,,,1,1,0.416256175027229,-0.87645440289727,-0.966222435785565,"cue1.png","Easy",3.73839145969873e-05,0.0830806971680786,0.00118412685372729,0.812160897803302,0.000131319632846622,0.323001916365152,0.000292251274244875,0.131270762170657,,,,,"","","","",,,,,,,,,,,,,,"","",,,,,,,,,,"","","","","",,,,"",,,,,1,1.25,0.8,0.75,2.94444444444444,2.75,2.66666666666667,2.11111111111111,1.875,3,2,2.75,2.25,1.25
"007.15",7,"Female",20,"A","LEARNING",1,14,1,1750,,,1,1,0.435510375013109,-0.831236659751513,-0.719698498703748,"cue1.png","Easy",-4.3480928627956e-05,-0.00735796709321169,0.000121489479436554,-0.291556158145591,0.000147116336200342,0.362889178819433,-0.000134013176203099,-0.816853525061567,2.928,2.38015545456203,,,"","","","",,,,,,,,,,,,,,"","",,,,,,,,,,"","","","","",,,,"",,,,,1,1.25,0.8,0.75,2.94444444444444,2.75,2.66666666666667,2.11111111111111,1.875,3,2,2.75,2.25,1.25
"007.16",7,"Female",20,"A","LEARNING",1,15,3,1750,,,0.166666666666667,0.666666666666667,0.462945225008298,-0.77014653641215,-0.386639467564407,"cue2.png","Hard",0.00146994935586355,1.68525167540934,,,,,-0.000701198965598346,-2.07842394627183,,,,,"","","","",,,,,,,,,,,,,,"","",,,,,,,,,,"","","","","",,,,"",,,,,1,1.25,0.8,0.75,2.94444444444444,2.75,2.66666666666667,2.11111111111111,1.875,3,2,2.75,2.25,1.25
"007.17",7,"Female",20,"A","LEARNING",1,16,1,1750,,,0.75,0.833333333333333,0.404652725090273,-0.904726048625261,-1.12035744845482,"cue1.png","Easy",-0.000143415370252812,-0.119123934277601,0.000210653189819295,-0.198945536401929,,,0.000299818866165271,0.148103077621896,,,,,"","","","",,,,,,,,,,,,,,"","",,,,,,,,,,"","","","","",,,,"",,,,,1,1.25,0.8,0.75,2.94444444444444,2.75,2.66666666666667,2.11111111111111,1.875,3,2,2.75,2.25,1.25
"007.18",7,"Female",20,"A","LEARNING",1,17,1,1750,,,1,1,0.45675652497448,-0.783604798167647,-0.460012958663863,"cue1.png","Easy",3.35847997741628e-05,0.0788317942301757,-0.00108614764978738,-1.54587840312709,0.000692463475816102,1.73991095351921,0.000347420912692697,0.253982553114585,,,,,"","","","",,,,,,,,,,,,,,"","",,,,,,,,,,"","","","","",,,,"",,,,,1,1.25,0.8,0.75,2.94444444444444,2.75,2.66666666666667,2.11111111111111,1.875,3,2,2.75,2.25,1.25
"007.19",7,"Female",20,"A","LEARNING",1,18,3,1750,,,1,1,0.485236549924593,-0.723118775143864,-0.130247439713071,"cue2.png","Hard",-1.34815480348502e-05,0.026193126327689,-3.63703697149782e-05,-0.455518589896458,-0.000183102287975231,-0.470925107291153,0.000509744839800076,0.615033674144446,,,,,"","","","",,,,,,,,,,,,,,"","",,,,,,,,,,"","","","","",,,,"",,,,,1,1.25,0.8,0.75,2.94444444444444,2.75,2.66666666666667,2.11111111111111,1.875,3,2,2.75,2.25,1.25
"007.20",7,"Female",20,"A","LEARNING",1,19,3,1750,,,0.75,0.833333333333333,0.516816275019664,-0.66006783509849,0.213501825405965,"cue2.png","Hard",0.00268641426974524,3.04573736417959,-0.000617333431585595,-1.05894065632893,-0.000324429214411839,-0.827780843605681,0.000496947077573747,0.586568083884095,,,,,"","","","",,,,,,,,,,,,,,"","",,,,,,,,,,"","","","","",,,,"",,,,,1,1.25,0.8,0.75,2.94444444444444,2.75,2.66666666666667,2.11111111111111,1.875,3,2,2.75,2.25,1.25
"007.21",7,"Female",20,"A","LEARNING",1,20,3,1750,,,1,1,0.518325262470171,-0.657152313955236,0.229397040444965,"cue2.png","Hard",-5.22420469729733e-05,-0.0171563394013651,-2.36573770164604e-05,-0.442314135382637,-0.000112070027912356,-0.291566013408984,0.000115470701631384,-0.261935741983103,,,0.589,-1.56596356508247,"","","","",,,,,,,,,,,,,,"","",,,,,,,,,,"","","","","",,,,"",,,,,1,1.25,0.8,0.75,2.94444444444444,2.75,2.66666666666667,2.11111111111111,1.875,3,2,2.75,2.25,1.25
"007.22",7,"Female",20,"A","LEARNING",1,21,1,1750,,,1,1,0.387671149976086,-0.947597850341828,-1.35409147880859,"cue1.png","Easy",-5.31401481832948e-05,-0.0181607693933577,-2.84579820493099e-05,-0.447300323316378,,,,,1.994,0.729061249348943,0.68,-1.4085992053967,"","","","",,,,,,,,,,,,,,"","",,,,,,,,,,"","","","","",,,,"",,,,,1,1.25,0.8,0.75,2.94444444444444,2.75,2.66666666666667,2.11111111111111,1.875,3,2,2.75,2.25,1.25
"007.23",7,"Female",20,"A","LEARNING",1,22,3,1750,,,0.75,0.833333333333333,0.435348912549671,-0.831607471586661,-0.721720138599014,"cue2.png","Hard",-1.34682351435487e-05,0.0262080153704268,,,0.000433819922120192,1.08682637774617,0.000333040980783341,0.22199780121309,1.492,-0.158357691782715,2.589,1.89259379064873,"","","","",,,,,,,,,,,,,,"","",,,,,,,,,,"","","","","",,,,"",,,,,1,1.25,0.8,0.75,2.94444444444444,2.75,2.66666666666667,2.11111111111111,1.875,3,2,2.75,2.25,1.25
"007.24",7,"Female",20,"A","LEARNING",1,23,3,1750,,,1,1,0.537779412581585,-0.620306816687864,0.430276085221932,"cue2.png","Hard",0.000383992628837396,0.470725412560993,0.00169774191225192,1.34563140618268,7.44363047125098e-05,0.179369400912235,,,1.293,-0.510143287968373,2.181,1.18704809007957,"","","","",,,,,,,,,,,,,,"","",,,,,,,,,,"","","","","",,,,"",,,,,1,1.25,0.8,0.75,2.94444444444444,2.75,2.66666666666667,2.11111111111111,1.875,3,2,2.75,2.25,1.25
"007.25",7,"Female",20,"A","LEARNING",1,24,3,1750,,,0.75,0.833333333333333,0.511210712487809,-0.670973420567545,0.154045344852579,"cue2.png","Hard",-0.000632294633660145,-0.665883017759812,0.00077802487528437,0.390359735048969,-6.81323886947893e-05,-0.180621843106521,1.43098789921652e-05,-0.486944026769311,-0.0490000000000002,-2.88248635370281,0.947,-0.946881798406584,"","","","",,,,,,,,,,,,,,"","",,,,,,,,,,"","","","","",,,,"",,,,,1,1.25,0.8,0.75,2.94444444444444,2.75,2.66666666666667,2.11111111111111,1.875,3,2,2.75,2.25,1.25
"007.26",7,"Female",20,"A","LEARNING",1,25,1,1750,,,1,1,0.368262049974874,-0.998960501907621,-1.63411702192659,"cue1.png","Easy",-8.07852216980309e-05,-0.0490788225592199,0.0033275483588874,3.03844328779722,-0.000830193810195509,-2.10485522554348,0.00114406816005296,2.02593562774975,0.43,-2.03572604931622,1.408,-0.149684327910543,"","","","",,,,,,,,,,,,,,"","",,,,,,,,,,"","","","","",,,,"",,,,,1,1.25,0.8,0.75,2.94444444444444,2.75,2.66666666666667,2.11111111111111,1.875,3,2,2.75,2.25,1.25
"007.27",7,"Female",20,"A","LEARNING",1,26,1,1750,,,0.166666666666667,0.666666666666667,0.627340612409171,-0.466265644369522,1.27009766035464,"cue1.png","Easy",2.88221818046984e-06,0.044494245822608,0.00178144543671574,1.43257076087593,-0.000245580175463363,-0.62868409282286,,,1.938,0.630066307708758,1.223,-0.469600883315679,"","","","",,,,,,,,,,,,,,"","",,,,,,,,,,"","","","","",,,,"",,,,,1,1.25,0.8,0.75,2.94444444444444,2.75,2.66666666666667,2.11111111111111,1.875,3,2,2.75,2.25,1.25
"007.28",7,"Female",20,"A","LEARNING",1,27,3,1750,,,1,1,0.576982875005342,-0.549942692281303,0.813896314168447,"cue2.png","Hard",-0.000477365598647608,-0.492611489329983,2.49473577767223e-05,-0.39183042749789,-0.000125669720881932,-0.325905743074629,5.86189219895037e-06,-0.50573457204806,,,2.176,1.17840169669024,"","","","",,,,,,,,,,,,,,"","",,,,,,,,,,"","","","","",,,,"",,,,,1,1.25,0.8,0.75,2.94444444444444,2.75,2.66666666666667,2.11111111111111,1.875,3,2,2.75,2.25,1.25
"007.29",7,"Female",20,"A","LEARNING",1,28,1,1750,,,1,1,0.559729050088208,-0.580302451469062,0.648377054622553,"cue1.png","Easy",-0.00330826826659826,-3.65867285460086,,,,,,,1.054,-0.932639556754162,1.723,0.395038455617121,"","","","",,,,,,,,,,,,,,"","",,,,,,,,,,"","","","","",,,,"",,,,,1,1.25,0.8,0.75,2.94444444444444,2.75,2.66666666666667,2.11111111111111,1.875,3,2,2.75,2.25,1.25
"007.30",7,"Female",20,"A","LEARNING",1,29,1,1750,,,0.75,0.833333333333333,0.592000712524168,-0.524247440510734,0.953985009227164,"cue1.png","Easy",0.000337254166461859,0.418453449390151,0.000298652483456671,-0.107544345695782,0.000125778035748474,0.309009177948774,-0.000224471880427192,-1.01805748278379,1.618,0.0643809269077006,,,"","","","",,,,,,,,,,,,,,"","",,,,,,,,,,"","","","","",,,,"",,,,,1,1.25,0.8,0.75,2.94444444444444,2.75,2.66666666666667,2.11111111111111,1.875,3,2,2.75,2.25,1.25
"007.31",7,"Female",20,"A","LEARNING",1,30,3,1750,,,0.75,0.833333333333333,0.415754825051408,-0.877659555320623,-0.972792841549314,"cue2.png","Hard",-0.0021052961575738,-2.31327742260674,0.000307621860505315,-0.0982282283924241,-0.000577116625702349,-1.46582593867066,0.000371975867096528,0.308599232074525,1.315,-0.4712524180383,1.374,-0.208479802957974,"","","","",,,,,,,,,,,,,,"","",,,,,,,,,,"","","","","",,,,"",,,,,1,1.25,0.8,0.75,2.94444444444444,2.75,2.66666666666667,2.11111111111111,1.875,3,2,2.75,2.25,1.25
"007.32",7,"Female",20,"A","LEARNING",1,31,3,1750,,,0.75,0.833333333333333,0.534129924955778,-0.62711616445521,0.393152002864387,"cue2.png","Hard",4.02928067228655e-05,0.0863339813871898,0.000179497615394452,-0.231305530236642,0.000165841725471007,0.41017148194768,0.000331337931093645,0.218209770633792,,,1.43,-0.1116401969975,"","","","",,,,,,,,,,,,,,"","",,,,,,,,,,"","","","","",,,,"",,,,,1,1.25,0.8,0.75,2.94444444444444,2.75,2.66666666666667,2.11111111111111,1.875,3,2,2.75,2.25,1.25
"007.33",7,"Female",20,"A","LEARNING",1,32,1,1750,,,0.166666666666667,0.666666666666667,0.566209799959324,-0.568790598154364,0.711138864585064,"cue1.png","Easy",-0.00144379968573757,-1.57346448362647,4.64137510997179e-05,-0.36953418137149,-0.000155333750636377,-0.400808519544665,0.000213085568973111,-0.0448145947131885,1.062,-0.918497422234136,1.247,-0.428098195046905,"","","","",,,,,,,,,,,,,,"","",,,,,,,,,,"","","","","",,,,"",,,,,1,1.25,0.8,0.75,2.94444444444444,2.75,2.66666666666667,2.11111111111111,1.875,3,2,2.75,2.25,1.25
"007.34",7,"Female",20,"A","LEARNING",1,33,1,1750,,,1,1,0.480846687511075,-0.732206796667016,-0.179794690201662,"cue1.png","Easy",,,0.000878167884391802,0.494374095789566,,,0.000359580522634519,0.281028724797434,0.822,-1.34276145783493,1.741,0.426165471818701,"","","","",,,,,,,,,,,,,,"","",,,,,,,,,,"","","","","",,,,"",,,,,1,1.25,0.8,0.75,2.94444444444444,2.75,2.66666666666667,2.11111111111111,1.875,3,2,2.75,2.25,1.25
"007.35",7,"Female",20,"A","LEARNING",1,34,1,1750,,,0.75,0.833333333333333,0.430518787645269,-0.842764314614187,-0.782546457588078,"cue1.png","Easy",-4.81609011056287e-05,-0.0125920149535773,0.000180140227527272,-0.230638075855201,-0.000182818057607624,-0.470207415060291,0.00025423429872127,0.0467110064059832,2.398,1.44323904261028,2.203,1.22509222099261,"","","","",,,,,,,,,,,,,,"","",,,,,,,,,,"","","","","",,,,"",,,,,1,1.25,0.8,0.75,2.94444444444444,2.75,2.66666666666667,2.11111111111111,1.875,3,2,2.75,2.25,1.25
"007.36",7,"Female",20,"A","LEARNING",1,35,3,1750,,,0.75,0.833333333333333,0.495912687503733,-0.701355401011486,-0.0115950634101638,"cue2.png","Hard",-0.000866398738378616,-0.927703379791913,1.11752551949697e-05,-0.406134935210038,0.000168830880320778,0.41771920892207,0.000469160900945132,0.524764316567286,1.695,0.200498971662955,1.359,-0.234418983125957,"","","","",,,,,,,,,,,,,,"","",,,,,,,,,,"","","","","",,,,"",,,,,1,1.25,0.8,0.75,2.94444444444444,2.75,2.66666666666667,2.11111111111111,1.875,3,2,2.75,2.25,1.25
"007.37",7,"Female",20,"A","LEARNING",1,36,3,1750,,,1,1,0.662283487559762,-0.412061585766736,1.56561435364689,"cue2.png","Hard",,,,,-0.00019229016790929,-0.494124845244196,-0.000302688331106746,-1.19203144770732,1.592,0.0184189897176151,1.728,0.403684849006449,"","","","",,,,,,,,,,,,,,"","",,,,,,,,,,"","","","","",,,,"",,,,,1,1.25,0.8,0.75,2.94444444444444,2.75,2.66666666666667,2.11111111111111,1.875,3,2,2.75,2.25,1.25
"007.38",7,"Female",20,"A","LEARNING",1,37,1,1750,,,1,1,0.502654500072822,-0.68785222347443,0.0620233053531628,"cue1.png","Easy",-3.28928409068334e-05,0.0044836747426106,0.00311381113106413,2.8164433567321,0.000380943072522575,0.953310369346923,0.000922905860375842,1.53401248585126,,,0.604,-1.54002438491448,"","","","",,,,,,,,,,,,,,"","",,,,,,,,,,"","","","","",,,,"",,,,,1,1.25,0.8,0.75,2.94444444444444,2.75,2.66666666666667,2.11111111111111,1.875,3,2,2.75,2.25,1.25
"007.39",7,"Female",20,"A","LEARNING",1,38,3,1750,,,1,1,0.769485049997456,-0.262033754095369,2.38355547946232,"cue2.png","Hard",0.000372694365800979,0.458089515714648,,,0.000577176812420496,1.44880784818325,-3.5205146585734e-05,-0.597078470971715,2.096,0.909373464479279,2.098,1.04351795981672,"","","","",,,,,,,,,,,,,,"","",,,,,,,,,,"","","","","",,,,"",,,,,1,1.25,0.8,0.75,2.94444444444444,2.75,2.66666666666667,2.11111111111111,1.875,3,2,2.75,2.25,1.25
"007.40",7,"Female",20,"A","LEARNING",1,39,3,1750,,,0.166666666666667,0.666666666666667,0.525444274942856,-0.643511136261611,0.303767776300249,"cue2.png","Hard",8.88788138587843e-05,0.140672225448815,,,0.000348704389477832,0.871906497729417,-0.000523823576468038,-1.68389441368949,2.319,1.30358546422502,1.636,0.244591210642814,"","","","",,,,,,,,,,,,,,"","",,,,,,,,,,"","","","","",,,,"",,,,,1,1.25,0.8,0.75,2.94444444444444,2.75,2.66666666666667,2.11111111111111,1.875,3,2,2.75,2.25,1.25
"007.41",7,"Female",20,"A","LEARNING",1,40,3,1750,,,0.75,0.833333333333333,0.63951804995304,-0.447040433259074,1.37491215140297,"cue2.png","Hard",,,-2.60242039831727e-06,-0.42044523137649,-0.000184721481990317,-0.475013632295261,0.000209079890910793,-0.0537242766107192,1.597,0.027257823792631,1.342,-0.263816720649673,"","","","",,,,,,,,,,,,,,"","",,,,,,,,,,"","","","","",,,,"",,,,,1,1.25,0.8,0.75,2.94444444444444,2.75,2.66666666666667,2.11111111111111,1.875,3,2,2.75,2.25,1.25
"007.42",7,"Female",20,"A","LEARNING",1,41,1,1750,,,1,1,0.425732225063257,-0.853944710015505,-0.843501182453048,"cue1.png","Easy",,,,,0.000126466351984321,0.31074720199949,0.000501197776578379,0.596022756821916,,,2.021,0.910363501621069,"","","","",,,,,,,,,,,,,,"","",,,,,,,,,,"","","","","",,,,"",,,,,1,1.25,0.8,0.75,2.94444444444444,2.75,2.66666666666667,2.11111111111111,1.875,3,2,2.75,2.25,1.25
"007.43",7,"Female",20,"A","LEARNING",1,42,3,1750,,,0.75,0.833333333333333,0.38817458745325,-0.946300072900939,-1.34701608800121,"cue2.png","Hard",6.92137812214537e-05,0.118678993118819,5.16751172190372e-05,-0.364069420142515,0.000372923866027336,0.933061575216385,0.000267492958066519,0.0762017531200427,,,1.502,0.0128678678088229,"","","","",,,,,,,,,,,,,,"","",,,,,,,,,,"","","","","",,,,"",,,,,1,1.25,0.8,0.75,2.94444444444444,2.75,2.66666666666667,2.11111111111111,1.875,3,2,2.75,2.25,1.25
"007.44",7,"Female",20,"A","LEARNING",1,43,3,1750,,,1,1,0.47259763762122,-0.74951091292735,-0.274135508018864,"cue2.png","Hard",,,,,,,,,1.66,0.13862713313784,2.281,1.35997595786612,"","","","",,,,,,,,,,,,,,"","",,,,,,,,,,"","","","","",,,,"",,,,,1,1.25,0.8,0.75,2.94444444444444,2.75,2.66666666666667,2.11111111111111,1.875,3,2,2.75,2.25,1.25
"007.45",7,"Female",20,"A","LEARNING",1,44,1,1750,,,1,1,0.524315924907569,-0.645660866209439,0.292047600689253,"cue1.png","Easy",,,0.00251075379280448,2.19007288825824,0.000325987728374141,0.81454608503834,0.000370083552903251,0.304390227444102,1.283,-0.527820956118406,2.054,0.967429697990634,"","","","",,,,,,,,,,,,,,"","",,,,,,,,,,"","","","","",,,,"",,,,,1,1.25,0.8,0.75,2.94444444444444,2.75,2.66666666666667,2.11111111111111,1.875,3,2,2.75,2.25,1.25
"007.46",7,"Female",20,"A","LEARNING",1,45,1,1750,,,1,1,0.464086300169583,-0.76768475230541,-0.373217994752668,"cue1.png","Easy",-8.55562265980195e-05,-0.0544146804318281,-0.000548638824537779,-0.987590437256323,,,-2.80544248625844e-05,-0.581173384516975,1.639,0.101504030022771,1.702,0.358723603381943,"","","","",,,,,,,,,,,,,,"","",,,,,,,,,,"","","","","",,,,"",,,,,1,1.25,0.8,0.75,2.94444444444444,2.75,2.66666666666667,2.11111111111111,1.875,3,2,2.75,2.25,1.25
"007.47",7,"Female",20,"A","LEARNING",1,46,1,1750,,,1,1,0.406070237455424,-0.901229135684267,-1.10129252646022,"cue1.png","Easy",7.52205923109351e-05,0.125396967824977,,,-0.000418335744401878,-1.06489831830976,,,2.051,0.829823957804131,0.178,-2.27669710168523,"","","","",,,,,,,,,,,,,,"","",,,,,,,,,,"","","","","",,,,"",,,,,1,1.25,0.8,0.75,2.94444444444444,2.75,2.66666666666667,2.11111111111111,1.875,3,2,2.75,2.25,1.25
"007.48",7,"Female",20,"A","LEARNING",1,47,3,1750,,,0.166666666666667,0.666666666666667,0.619810962467454,-0.478340746680267,1.204265056708,"cue2.png","Hard",,,0.000296872653460648,-0.109392980771893,0.00012416669630906,0.304940486039858,0.000296913054116573,0.141639787111493,,,1.636,0.244591210642814,"","","","",,,,,,,,,,,,,,"","",,,,,,,,,,"","","","","",,,,"",,,,,1,1.25,0.8,0.75,2.94444444444444,2.75,2.66666666666667,2.11111111111111,1.875,3,2,2.75,2.25,1.25
"007.49",7,"Female",20,"A","LEARNING",1,48,3,1750,,,1,1,0.478331524995156,-0.737451219961604,-0.208386915031148,"cue2.png","Hard",0.000104038332587065,0.157626523138059,,,0.000607653921595516,1.52576368037753,-0.000114045288594961,-0.772439689504549,1.585,0.00604462201259178,1.997,0.868860813352295,"","","","",,,,,,,,,,,,,,"","",,,,,,,,,,"","","","","",,,,"",,,,,1,1.25,0.8,0.75,2.94444444444444,2.75,2.66666666666667,2.11111111111111,1.875,3,2,2.75,2.25,1.25
"007.50",7,"Female",20,"A","LEARNING",1,49,1,1750,,,0.75,0.833333333333333,0.415643000102136,-0.877928559993387,-0.974259435996753,"cue1.png","Easy",,,,,-0.000189633832129782,-0.487417498778834,-0.000117307539256323,-0.779695793267896,,,,,"","","","",,,,,,,,,,,,,,"","",,,,,,,,,,"","","","","",,,,"",,,,,1,1.25,0.8,0.75,2.94444444444444,2.75,2.66666666666667,2.11111111111111,1.875,3,2,2.75,2.25,1.25
"007.51",7,"Female",20,"A","LEARNING",1,50,1,1750,,,1,1,0.605463462532498,-0.501761060447999,1.0765791627194,"cue1.png","Easy",,,6.57659543925075e-05,-0.349433856123003,-0.000387346289970848,-0.986648795322141,-0.000320336838434275,-1.23128637129534,1.484,-0.172499826302742,,,"","","","",,,,,,,,,,,,,,"","",,,,,,,,,,"","","","","",,,,"",,,,,1,1.25,0.8,0.75,2.94444444444444,2.75,2.66666666666667,2.11111111111111,1.875,3,2,2.75,2.25,1.25
"007.52",7,"Female",20,"A","TrueCHOICE",9,1,1,1750,,,0.75,0.833333333333333,0.800613475032151,-0.222377001398493,2.21277180405265,"","",,,,,,,,,,,,,"True","Left","Easy","Easy",0.0140102002769708,,,-0.00032953050792436,-0.615945726310269,,,,,,,,,"","",,,,,,,,,,"","","","","",,,,"",,,,,1,1.25,0.8,0.75,2.94444444444444,2.75,2.66666666666667,2.11111111111111,1.875,3,2,2.75,2.25,1.25
"007.53",7,"Female",20,"A","TrueCHOICE",9,2,3,1750,,,,,,,,"","",,,,,,,,,,,,,"True","Right","Hard","Hard",0.0140955997630953,,,,,,,,,,,,,"","",,,,,,,,,,"","","","","",,,,"",,,,,1,1.25,0.8,0.75,2.94444444444444,2.75,2.66666666666667,2.11111111111111,1.875,3,2,2.75,2.25,1.25
"007.54",7,"Female",20,"A","TrueCHOICE",9,3,1,1750,,,0.75,0.833333333333333,0.542218187474646,-0.612086798631675,0.453130990057709,"","",,,,,,,,,,,,,"True","Right","Easy","Easy",0.0178204998373985,,,,,,,,,,,,,"","",,,,,,,,,,"","","","","",,,,"",,,,,1,1.25,0.8,0.75,2.94444444444444,2.75,2.66666666666667,2.11111111111111,1.875,3,2,2.75,2.25,1.25
"007.55",7,"Female",20,"A","TrueCHOICE",9,4,1,1750,,,1,1,0.395739787491038,-0.926998386009349,-0.96877650594021,"","",,,,,,,,,,,,,"True","Left","Easy","Easy",0.0166081003844738,-1.87528073842379e-05,-0.978749653691914,-0.000410715049206719,-0.795723361257228,1.324,-0.986901690180926,,,,,,,"","",,,,,,,,,,"","","","","",,,,"",,,,,1,1.25,0.8,0.75,2.94444444444444,2.75,2.66666666666667,2.11111111111111,1.875,3,2,2.75,2.25,1.25
"007.56",7,"Female",20,"A","TrueCHOICE",9,5,1,1750,,,1,1,0.542582837515511,-0.611414509343226,0.456166550567514,"","",,,,,,,,,,,,,"True","Right","Easy","Easy",0.0168340997770428,0.00114402306577437,1.74002128310469,0.000717932449381613,1.70358962099278,1.581,-0.464591693524216,,,,,,,"","",,,,,,,,,,"","","","","",,,,"",,,,,1,1.25,0.8,0.75,2.94444444444444,2.75,2.66666666666667,2.11111111111111,1.875,3,2,2.75,2.25,1.25
"007.57",7,"Female",20,"A","TrueCHOICE",9,6,1,1750,,,1,1,0.475130949926097,-0.744164828886421,-0.143235573776069,"","",,,,,,,,,,,,,"True","Right","Easy","Easy",0.016665400005877,,,,,1.556,-0.515400058957749,,,,,,,"","",,,,,,,,,,"","","","","",,,,"",,,,,1,1.25,0.8,0.75,2.94444444444444,2.75,2.66666666666667,2.11111111111111,1.875,3,2,2.75,2.25,1.25
"007.58",7,"Female",20,"A","TrueCHOICE",9,7,3,1750,,,,,,,,"","",,,,,,,,,,,,,"True","Right","Hard","Hard",0.0166946998797357,,,,,,,,,,,,,"","",,,,,,,,,,"","","","","",,,,"",,,,,1,1.25,0.8,0.75,2.94444444444444,2.75,2.66666666666667,2.11111111111111,1.875,3,2,2.75,2.25,1.25
"007.59",7,"Female",20,"A","TrueCHOICE",9,8,1,1750,,,0.75,0.833333333333333,0.46716798748821,-0.761066369746774,-0.219550414533037,"","",,,,,,,,,,,,,"True","Right","Easy","Easy",0.0168309998698532,0.000143204117042063,-0.600066375764003,,,,,,,,,,,"","",,,,,,,,,,"","","","","",,,,"",,,,,1,1.25,0.8,0.75,2.94444444444444,2.75,2.66666666666667,2.11111111111111,1.875,3,2,2.75,2.25,1.25
"007.60",7,"Female",20,"A","TrueCHOICE",9,9,1,1750,,,1,1,0.384806274960283,-0.955015253254201,-1.09527992831843,"","",,,,,,,,,,,,,"True","Left","Easy","Easy",0.0141937001608312,0.000123189892538896,-0.646863091414733,-0.00018320620759603,-0.29192053342528,2.735,1.88072245488762,,,,,,,"","",,,,,,,,,,"","","","","",,,,"",,,,,1,1.25,0.8,0.75,2.94444444444444,2.75,2.66666666666667,2.11111111111111,1.875,3,2,2.75,2.25,1.25
"007.61",7,"Female",20,"A","TrueCHOICE",9,10,1,1750,,,1,1,0.420456175052095,-0.866415026041915,-0.695226922110123,"","",,,,,,,,,,,,,"True","Right","Easy","Easy",0.0161120002157986,0.000607551408426692,0.485657837765965,,,1.852,0.0861709877752703,,,,,,,"","",,,,,,,,,,"","","","","",,,,"",,,,,1,1.25,0.8,0.75,2.94444444444444,2.75,2.66666666666667,2.11111111111111,1.875,3,2,2.75,2.25,1.25
"007.62",7,"Female",20,"A","FalseCHOICE",9,1,2,1750,,,1,1,0.428238574997522,-0.848074820481658,-1.13995456923336,"","",,,,,,,,,,,,,"False","Left","Easy","Mid",0.017319899983704,,,,,,,0.00172587456398857,3.81499184566795,0.000404218744948661,1.03099221174191,1.335,-0.579326315301461,"","",,,,,,,,,,"","","","","",,,,"",,,,,1,1.25,0.8,0.75,2.94444444444444,2.75,2.66666666666667,2.11111111111111,1.875,3,2,2.75,2.25,1.25
"007.63",7,"Female",20,"A","FalseCHOICE",9,2,2,1750,,,,,,,,"","",,,,,,,,,,,,,"False","Left","Hard","Mid",0.0153878000564873,,,,,,,,,-0.000286139696829103,-0.844573582012637,1.086,-1.08370482058141,"","",,,,,,,,,,"","","","","",,,,"",,,,,1,1.25,0.8,0.75,2.94444444444444,2.75,2.66666666666667,2.11111111111111,1.875,3,2,2.75,2.25,1.25
"007.64",7,"Female",20,"A","FalseCHOICE",9,3,2,1750,,,,,,,,"","",,,,,,,,,,,,,"False","Right","Easy","Mid",0.0164328999817371,,,,,,,1.22620054232884e-06,-0.177692411790012,,,1.589,-0.0648197275861771,"","",,,,,,,,,,"","","","","",,,,"",,,,,1,1.25,0.8,0.75,2.94444444444444,2.75,2.66666666666667,2.11111111111111,1.875,3,2,2.75,2.25,1.25
"007.65",7,"Female",20,"A","FalseCHOICE",9,4,2,1750,,,1,1,0.674586974957492,-0.393654664341916,0.800371608232667,"","",,,,,,,,,,,,,"False","Right","Easy","Mid",0.0164577001705765,,,,,,,0.000195412854170937,0.271863573873121,-2.23262591348833e-05,-0.127845242459201,1.594,-0.0546916451508371,"","",,,,,,,,,,"","","","","",,,,"",,,,,1,1.25,0.8,0.75,2.94444444444444,2.75,2.66666666666667,2.11111111111111,1.875,3,2,2.75,2.25,1.25
"007.66",7,"Female",20,"A","FalseCHOICE",9,5,2,1750,,,,,,,,"","",,,,,,,,,,,,,"False","Left","Easy","Mid",0.0161144998855888,,,,,,,-0.000113887190536627,-0.444188141658761,8.82445373587004e-05,0.172553494112373,1.558,-0.127613838685286,"","",,,,,,,,,,"","","","","",,,,"",,,,,1,1.25,0.8,0.75,2.94444444444444,2.75,2.66666666666667,2.11111111111111,1.875,3,2,2.75,2.25,1.25
"007.67",7,"Female",20,"A","FalseCHOICE",9,6,2,1750,,,0.75,0.833333333333333,0.340398112486582,-1.07763942728483,-2.12017124752461,"","",,,,,,,,,,,,,"False","Right","Easy","Mid",0.0168093997053802,,,,,,,0.000427024699406035,0.808061553653243,0.000187960728295993,0.443462438636715,,,"","",,,,,,,,,,"","","","","",,,,"",,,,,1,1.25,0.8,0.75,2.94444444444444,2.75,2.66666666666667,2.11111111111111,1.875,3,2,2.75,2.25,1.25
"007.68",7,"Female",20,"A","FalseCHOICE",9,7,2,1750,,,0.166666666666667,0.666666666666667,0.37837321247207,-0.971874235874552,-1.6685650263099,"","",,,,,,,,,,,,,"False","Right","Easy","Mid",0.0162447998300194,,,,,,,-4.05549310787852e-05,-0.274418718449451,,,1.458,-0.330175487392091,"","",,,,,,,,,,"","","","","",,,,"",,,,,1,1.25,0.8,0.75,2.94444444444444,2.75,2.66666666666667,2.11111111111111,1.875,3,2,2.75,2.25,1.25
"007.69",7,"Female",20,"A","FalseCHOICE",9,8,2,1750,,,,,,,,"","",,,,,,,,,,,,,"False","Left","Easy","Mid",0.0137207997031509,,,,,,,,,,,,,"","",,,,,,,,,,"","","","","",,,,"",,,,,1,1.25,0.8,0.75,2.94444444444444,2.75,2.66666666666667,2.11111111111111,1.875,3,2,2.75,2.25,1.25
"007.70",7,"Female",20,"A","FalseCHOICE",9,9,2,1750,,,1,1,0.570219187589828,-0.56173445243868,0.0826886262154635,"","",,,,,,,,,,,,,"False","Left","Easy","Mid",0.0170081001706421,,,,,,,2.57596619011487e-05,-0.120895694833416,,,,,"","",,,,,,,,,,"","","","","",,,,"",,,,,1,1.25,0.8,0.75,2.94444444444444,2.75,2.66666666666667,2.11111111111111,1.875,3,2,2.75,2.25,1.25
"007.71",7,"Female",20,"A","FalseCHOICE",9,10,2,1750,,,,,,,,"","",,,,,,,,,,,,,"False","Right","Easy","Mid",0.0162963001057505,,,,,,,0.000787075913908217,1.64160585548929,0.000498325328251284,1.28666097441394,,,"","",,,,,,,,,,"","","","","",,,,"",,,,,1,1.25,0.8,0.75,2.94444444444444,2.75,2.66666666666667,2.11111111111111,1.875,3,2,2.75,2.25,1.25
"007.72",7,"Female",20,"A","FalseCHOICE",9,11,2,1750,,,1,1,0.684195674955845,-0.379511327774244,0.860762164875421,"","",,,,,,,,,,,,,"False","Left","Easy","Mid",0.0166025003418326,,,,,,,-6.40990761290733e-06,-0.195370548079044,0.000216063223459732,0.519811296648116,,,"","",,,,,,,,,,"","","","","",,,,"",,,,,1,1.25,0.8,0.75,2.94444444444444,2.75,2.66666666666667,2.11111111111111,1.875,3,2,2.75,2.25,1.25
"007.73",7,"Female",20,"A","FalseCHOICE",9,12,2,1750,,,,,,,,"","",,,,,,,,,,,,,"False","Left","Hard","Mid",0.0161528997123241,,,,,,,-2.58271527398993e-05,-0.240322858697787,-7.24744087486334e-05,-0.264087733814022,1.463,-0.320047404956751,"","",,,,,,,,,,"","","","","",,,,"",,,,,1,1.25,0.8,0.75,2.94444444444444,2.75,2.66666666666667,2.11111111111111,1.875,3,2,2.75,2.25,1.25
"007.74",7,"Female",20,"A","FalseCHOICE",9,13,2,1750,,,1,1,0.564773787453305,-0.571330004196483,0.0417166314407183,"","",,,,,,,,,,,,,"False","Right","Hard","Mid",0.0170408999547362,,,,,,,7.06546883617654e-05,-0.0169604990064374,-0.000210444592611562,-0.638925125162439,1.461,-0.324098637930888,"","",,,,,,,,,,"","","","","",,,,"",,,,,1,1.25,0.8,0.75,2.94444444444444,2.75,2.66666666666667,2.11111111111111,1.875,3,2,2.75,2.25,1.25
"007.75",7,"Female",20,"A","FalseCHOICE",9,14,2,1750,,,1,1,0.708165912539698,-0.34507687299635,1.00779365788818,"","",,,,,,,,,,,,,"False","Left","Hard","Mid",0.0165388998575508,,,,,,,-3.02575023705138e-05,-0.250579434820843,-0.000387533984435627,-1.12004157951723,1.442,-0.36258535118518,"","",,,,,,,,,,"","","","","",,,,"",,,,,1,1.25,0.8,0.75,2.94444444444444,2.75,2.66666666666667,2.11111111111111,1.875,3,2,2.75,2.25,1.25
"007.76",7,"Female",20,"A","FalseCHOICE",9,15,2,1750,,,,,,,,"","",,,,,,,,,,,,,"False","Right","Hard","Mid",0.0155209000222384,,,,,,,2.91864591763606e-05,-0.112962414157639,0.000212366080562459,0.509766898936556,,,"","",,,,,,,,,,"","","","","",,,,"",,,,,1,1.25,0.8,0.75,2.94444444444444,2.75,2.66666666666667,2.11111111111111,1.875,3,2,2.75,2.25,1.25
"007.77",7,"Female",20,"A","FalseCHOICE",9,16,2,1750,,,0.75,0.833333333333333,0.557630399940535,-0.584058901759865,-0.0126344197149379,"","",,,,,,,,,,,,,"False","Left","Easy","Mid",0.0162741001695394,,,,,,,-0.000238654218871849,-0.733032731919714,-0.000277215379973603,-0.82032799824937,,,"","",,,,,,,,,,"","","","","",,,,"",,,,,1,1.25,0.8,0.75,2.94444444444444,2.75,2.66666666666667,2.11111111111111,1.875,3,2,2.75,2.25,1.25
"007.78",7,"Female",20,"A","FalseCHOICE",9,17,2,1750,,,1,1,0.543717099935748,-0.609326204275089,-0.12052313865012,"","",,,,,,,,,,,,,"False","Left","Hard","Mid",0.0135706001892685,,,,,,,-4.35439036281177e-06,-0.19061187869499,-2.57401333468568e-05,-0.1371200558151,,,"","",,,,,,,,,,"","","","","",,,,"",,,,,1,1.25,0.8,0.75,2.94444444444444,2.75,2.66666666666667,2.11111111111111,1.875,3,2,2.75,2.25,1.25
"007.79",7,"Female",20,"A","FalseCHOICE",9,18,2,1750,,,0.75,0.833333333333333,0.513620949874166,-0.666269737184846,-0.363666023157698,"","",,,,,,,,,,,,,"False","Right","Easy","Mid",0.0159013997763395,,,,,,,0.00175976589654253,3.89345270344077,0.000260744640014723,0.641201767794142,,,"","",,,,,,,,,,"","","","","",,,,"",,,,,1,1.25,0.8,0.75,2.94444444444444,2.75,2.66666666666667,2.11111111111111,1.875,3,2,2.75,2.25,1.25
"007.80",7,"Female",20,"A","FalseCHOICE",9,19,2,1750,,,0.75,0.833333333333333,0.819487262517214,-0.199076423912074,1.63120018916207,"","",,,,,,,,,,,,,"False","Right","Hard","Mid",0.0164640001021325,,,,,,,-3.83317069661332e-05,-0.269271795689122,-0.000189502280842753,-0.582029053181955,,,"","",,,,,,,,,,"","","","","",,,,"",,,,,1,1.25,0.8,0.75,2.94444444444444,2.75,2.66666666666667,2.11111111111111,1.875,3,2,2.75,2.25,1.25
"007.81",7,"Female",20,"A","FalseCHOICE",9,20,2,1750,,,1,1,0.761038374970667,-0.273071495360751,1.31524903207654,"","",,,,,,,,,,,,,"False","Right","Hard","Mid",0.0171076999977231,,,,,,,,,3.7591518091901e-05,0.034939372899408,,,"","",,,,,,,,,,"","","","","",,,,"",,,,,1,1.25,0.8,0.75,2.94444444444444,2.75,2.66666666666667,2.11111111111111,1.875,3,2,2.75,2.25,1.25
"007.82",7,"Female",20,"A","FalseCHOICE",9,21,2,1750,,,0.75,0.833333333333333,0.732844450045377,-0.310821809648813,1.15405916839856,"","",,,,,,,,,,,,,"False","Right","Hard","Mid",0.0166061003692448,,,,,,,-7.89962207845963e-05,-0.36341305230779,0.000238583821380155,0.580995256397597,2.103,0.9763471467668,"","",,,,,,,,,,"","","","","",,,,"",,,,,1,1.25,0.8,0.75,2.94444444444444,2.75,2.66666666666667,2.11111111111111,1.875,3,2,2.75,2.25,1.25
"007.83",7,"Female",20,"A","FalseCHOICE",9,22,2,1750,,,1,1,0.716245074989274,-0.333732887082554,1.05623128224958,"","",,,,,,,,,,,,,"False","Left","Hard","Mid",0.0161568000912666,,,,,,,4.89812037947537e-05,-0.0671361652286512,9.96245166436276e-05,0.203470621489684,,,"","",,,,,,,,,,"","","","","",,,,"",,,,,1,1.25,0.8,0.75,2.94444444444444,2.75,2.66666666666667,2.11111111111111,1.875,3,2,2.75,2.25,1.25
"007.84",7,"Female",20,"A","FalseCHOICE",9,23,2,1750,,,1,1,0.707402662432287,-0.346155238530694,1.00318915070052,"","",,,,,,,,,,,,,"False","Right","Hard","Mid",0.0165727999992668,,,,,,,-1.62322918448956e-05,-0.218110069783861,-0.000252464635896359,-0.753085177488447,1.368,-0.512480971228215,"","",,,,,,,,,,"","","","","",,,,"",,,,,1,1.25,0.8,0.75,2.94444444444444,2.75,2.66666666666667,2.11111111111111,1.875,3,2,2.75,2.25,1.25
"007.85",7,"Female",20,"A","FalseCHOICE",9,24,2,1750,,,1,1,0.637364712485578,-0.450413240179393,0.558018470931951,"","",,,,,,,,,,,,,"False","Left","Hard","Mid",0.015200600028038,,,,,,,-8.7301468192952e-06,-0.200742067717035,-6.41236530061731e-05,-0.241400400865322,2.008,0.783913580495335,"","",,,,,,,,,,"","","","","",,,,"",,,,,1,1.25,0.8,0.75,2.94444444444444,2.75,2.66666666666667,2.11111111111111,1.875,3,2,2.75,2.25,1.25
"007.86",7,"Female",20,"A","FalseCHOICE",9,25,2,1750,,,0.5,0.5,0.622717075049877,-0.473662996490636,0.45874446166785,"","",,,,,,,,,,,,,"False","Left","Hard","Mid",0.0165083999745547,,,,,,,-1.78813271070706e-05,-0.221927704306253,8.52869254529347e-05,0.164518254176188,1.78,0.32207302144382,"","",,,,,,,,,,"","","","","",,,,"",,,,,1,1.25,0.8,0.75,2.94444444444444,2.75,2.66666666666667,2.11111111111111,1.875,3,2,2.75,2.25,1.25
"007.87",7,"Female",20,"A","FalseCHOICE",9,26,2,1750,,,1,1,0.590928225021344,-0.526060715615675,0.235011722958609,"","",,,,,,,,,,,,,"False","Right","Hard","Mid",0.0164374001324176,,,,,,,1.59067438206548e-05,-0.143705904580405,4.71906654451004e-05,0.0610183361384293,,,"","",,,,,,,,,,"","","","","",,,,"",,,,,1,1.25,0.8,0.75,2.94444444444444,2.75,2.66666666666667,2.11111111111111,1.875,3,2,2.75,2.25,1.25
"007.88",7,"Female",20,"A","FalseCHOICE",9,27,2,1750,,,0.75,0.833333333333333,0.533037912449799,-0.629162727046121,-0.205223000402509,"","",,,,,,,,,,,,,"False","Right","Hard","Mid",0.0165689000859856,,,,,,,-8.28140779513902e-05,-0.372251664589671,-8.41173301493999e-05,-0.295719222323697,2.864,2.51784129342558,"","",,,,,,,,,,"","","","","",,,,"",,,,,1,1.25,0.8,0.75,2.94444444444444,2.75,2.66666666666667,2.11111111111111,1.875,3,2,2.75,2.25,1.25
"007.89",7,"Female",20,"A","FalseCHOICE",9,28,2,1750,,,1,1,0.790710237517487,-0.234823702578566,1.47856307649747,"","",,,,,,,,,,,,,"False","Left","Hard","Mid",0.0172021999023854,,,,,,,5.20220921848918e-05,-0.0600962912106631,2.60795355601817e-05,0.00366361910520273,2.039,0.846707691594444,"","",,,,,,,,,,"","","","","",,,,"",,,,,1,1.25,0.8,0.75,2.94444444444444,2.75,2.66666666666667,2.11111111111111,1.875,3,2,2.75,2.25,1.25
"007.90",7,"Female",20,"A","FalseCHOICE",9,29,2,1750,,,0.166666666666667,0.666666666666667,0.421297524939291,-0.864415984832151,-1.2097296188898,"","",,,,,,,,,,,,,"False","Right","Hard","Mid",0.0168886999599635,,,,,,,4.91404941275046e-05,-0.0667673967205776,,,1.638,0.0344354802801575,"","",,,,,,,,,,"","","","","",,,,"",,,,,1,1.25,0.8,0.75,2.94444444444444,2.75,2.66666666666667,2.11111111111111,1.875,3,2,2.75,2.25,1.25
"007.91",7,"Female",20,"A","FalseCHOICE",9,30,2,1750,,,0.75,0.833333333333333,0.521129637490958,-0.651756443821572,-0.301695789985769,"","",,,,,,,,,,,,,"False","Right","Hard","Mid",0.0177270001731812,,,,,,,6.27070850446427e-05,-0.0353597688642003,-0.000123946029740767,-0.403925832169632,1.211,-0.830502759697899,"","",,,,,,,,,,"","","","","",,,,"",,,,,1,1.25,0.8,0.75,2.94444444444444,2.75,2.66666666666667,2.11111111111111,1.875,3,2,2.75,2.25,1.25
"007.92",7,"Female",20,"A","FalseCHOICE",9,31,2,1750,,,0.166666666666667,0.666666666666667,0.480007825011853,-0.733952873105051,-0.652665880722509,"","",,,,,,,,,,,,,"False","Left","Hard","Mid",0.0170951997861266,,,,,,,,,,,2.308,1.39159852661575,"","",,,,,,,,,,"","","","","",,,,"",,,,,1,1.25,0.8,0.75,2.94444444444444,2.75,2.66666666666667,2.11111111111111,1.875,3,2,2.75,2.25,1.25
"007.93",7,"Female",20,"A","FalseCHOICE",9,32,2,1750,,,1,1,0.59657033754047,-0.516558127312067,0.275586773580931,"","",,,,,,,,,,,,,"False","Right","Hard","Mid",0.0163549999706447,,,,,,,-0.000200310321455118,-0.644263868173225,-0.000120017721578373,-0.393253404672779,1.161,-0.931783584051302,"","",,,,,,,,,,"","","","","",,,,"",,,,,1,1.25,0.8,0.75,2.94444444444444,2.75,2.66666666666667,2.11111111111111,1.875,3,2,2.75,2.25,1.25
"007.94",7,"Female",20,"A","FalseCHOICE",9,33,2,1750,,,1,1,0.657864237437025,-0.418756695028524,0.693188582588438,"","",,,,,,,,,,,,,"False","Left","Hard","Mid",0.0164540000259876,,,,,,,-0.000198394185862129,-0.639827877289845,-0.00127963085670604,-3.54369033513632,2.054,0.877091938900466,"","",,,,,,,,,,"","","","","",,,,"",,,,,1,1.25,0.8,0.75,2.94444444444444,2.75,2.66666666666667,2.11111111111111,1.875,3,2,2.75,2.25,1.25
"007.95",7,"Female",20,"A","FalseCHOICE",9,34,2,1750,,,0.75,0.833333333333333,0.521088162495289,-0.651836033703248,-0.302035630392914,"","",,,,,,,,,,,,,"False","Left","Hard","Mid",0.0145804998464882,,,,,,,-0.00011360353811585,-0.443531466026191,0.000291781072676103,0.725521547110448,2.17,1.11206345140036,"","",,,,,,,,,,"","","","","",,,,"",,,,,1,1.25,0.8,0.75,2.94444444444444,2.75,2.66666666666667,2.11111111111111,1.875,3,2,2.75,2.25,1.25
"007.96",7,"Female",20,"A","FalseCHOICE",9,35,2,1750,,,1,1,0.449255074956454,-0.80016445687375,-0.935382365680504,"","",,,,,,,,,,,,,"False","Left","Hard","Mid",0.0168215003795921,,,,,,,0.000115660019440534,0.0872300598973014,0.000914634324020492,2.41768924153606,0.741,-1.78254250861988,"","",,,,,,,,,,"","","","","",,,,"",,,,,1,1.25,0.8,0.75,2.94444444444444,2.75,2.66666666666667,2.11111111111111,1.875,3,2,2.75,2.25,1.25
"007.97",7,"Female",20,"A","FalseCHOICE",9,36,2,1750,,,0.75,0.833333333333333,0.632751225086395,-0.457677943428561,0.526998953651673,"","",,,,,,,,,,,,,"False","Right","Hard","Mid",0.0166503000073134,,,,,,,4.38150150760467e-05,-0.0790962614461901,0.000155261310687789,0.354624661867143,1.241,-0.769734265085858,"","",,,,,,,,,,"","","","","",,,,"",,,,,1,1.25,0.8,0.75,2.94444444444444,2.75,2.66666666666667,2.11111111111111,1.875,3,2,2.75,2.25,1.25
"007.98",7,"Female",20,"A","FalseCHOICE",9,37,2,1750,,,0.166666666666667,0.666666666666667,0.371490949997678,-0.990230775827165,-1.74694551739622,"","",,,,,,,,,,,,,"False","Left","Hard","Mid",0.0160327996127307,,,,,,,-2.85118814754687e-05,-0.246538197653395,-0.000219286843233606,-0.662947751385136,1.199,-0.854810157542716,"","",,,,,,,,,,"","","","","",,,,"",,,,,1,1.25,0.8,0.75,2.94444444444444,2.75,2.66666666666667,2.11111111111111,1.875,3,2,2.75,2.25,1.25
"007.99",7,"Female",20,"A","FalseCHOICE",9,38,2,1750,,,0.75,0.833333333333333,0.421449312474579,-0.864055763873282,-1.20819151335745,"","",,,,,,,,,,,,,"False","Right","Hard","Mid",0.0166778001002967,,,,,,,,,,,0.394,-2.48543142963249,"","",,,,,,,,,,"","","","","",,,,"",,,,,1,1.25,0.8,0.75,2.94444444444444,2.75,2.66666666666667,2.11111111111111,1.875,3,2,2.75,2.25,1.25
"007.100",7,"Female",20,"A","FalseCHOICE",9,39,2,1750,,,0.75,0.833333333333333,0.679659337503836,-0.386163580600581,0.8323577463573,"","",,,,,,,,,,,,,"False","Right","Hard","Mid",0.0173982996493577,,,,,,,-0.00045163393267721,-1.22609599541845,0.000881984461609332,2.32898609632432,1.536,-0.172177401400784,"","",,,,,,,,,,"","","","","",,,,"",,,,,1,1.25,0.8,0.75,2.94444444444444,2.75,2.66666666666667,2.11111111111111,1.875,3,2,2.75,2.25,1.25
"007.101",7,"Female",20,"A","FalseCHOICE",9,40,2,1750,,,0.75,0.833333333333333,0.583732124883682,-0.538313091652139,0.182695368504476,"","",,,,,,,,,,,,,"False","Left","Hard","Mid",0.0176434000022709,,,,,,,,,0.000491263930510803,1.26747656924605,2.44,1.65897990290873,"","",,,,,,,,,,"","","","","",,,,"",,,,,1,1.25,0.8,0.75,2.94444444444444,2.75,2.66666666666667,2.11111111111111,1.875,3,2,2.75,2.25,1.25
"007.102",7,"Female",20,"A","FalseCHOICE",9,41,2,1750,,,0.166666666666667,0.666666666666667,0.490881675039418,-0.711552167929578,-0.557017230330551,"","",,,,,,,,,,,,,"False","Left","Hard","Mid",0.0165892001241445,,,,,,,,,0.000318661708006076,0.798550856362405,1.943,0.652248508835912,"","",,,,,,,,,,"","","","","",,,,"",,,,,1,1.25,0.8,0.75,2.94444444444444,2.75,2.66666666666667,2.11111111111111,1.875,3,2,2.75,2.25,1.25
"007.103",7,"Female",20,"A","FalseCHOICE",9,42,2,1750,,,0.75,0.833333333333333,0.530029824993107,-0.634822000447367,-0.229387501421028,"","",,,,,,,,,,,,,"False","Right","Hard","Mid",0.0169424000196158,,,,,,,-5.73476506901443e-05,-0.313295064870702,0.000313806083199591,0.785359095034916,,,"","",,,,,,,,,,"","","","","",,,,"",,,,,1,1.25,0.8,0.75,2.94444444444444,2.75,2.66666666666667,2.11111111111111,1.875,3,2,2.75,2.25,1.25
"007.104",7,"Female",20,"A","FalseCHOICE",9,43,2,1750,,,1,1,0.613532462564763,-0.488522102515058,0.395297644876427,"","",,,,,,,,,,,,,"False","Left","Hard","Mid",0.0169040998443961,,,,,,,2.23818935875964e-05,-0.128715469957843,-0.000539610478961304,-1.53320299524781,,,"","",,,,,,,,,,"","","","","",,,,"",,,,,1,1.25,0.8,0.75,2.94444444444444,2.75,2.66666666666667,2.11111111111111,1.875,3,2,2.75,2.25,1.25
"007.105",7,"Female",20,"A","FalseCHOICE",9,44,2,1750,,,1,1,0.639550662599504,-0.446989438897081,0.572637741588751,"","",,,,,,,,,,,,,"False","Right","Hard","Mid",0.0143838999792933,,,,,,,,,,,1.269,-0.713017003447953,"","",,,,,,,,,,"","","","","",,,,"",,,,,1,1.25,0.8,0.75,2.94444444444444,2.75,2.66666666666667,2.11111111111111,1.875,3,2,2.75,2.25,1.25
"007.106",7,"Female",20,"A","FalseCHOICE",9,45,2,1750,,,0.166666666666667,0.666666666666667,0.448655612475704,-0.801499695618992,-0.941083694408016,"","",,,,,,,,,,,,,"False","Left","Hard","Mid",0.015816000290215,,,,,,,,,-0.000225308408839713,-0.679307140641794,1.576,-0.0911527419180616,"","",,,,,,,,,,"","","","","",,,,"",,,,,1,1.25,0.8,0.75,2.94444444444444,2.75,2.66666666666667,2.11111111111111,1.875,3,2,2.75,2.25,1.25
"007.107",7,"Female",20,"A","FalseCHOICE",9,46,2,1750,,,1,1,0.725850162620191,-0.320411673033683,1.11311146237677,"","",,,,,,,,,,,,,"False","Left","Hard","Mid",0.0167770003899931,,,,,,,,,0.000104870323206035,0.217722428599868,,,"","",,,,,,,,,,"","","","","",,,,"",,,,,1,1.25,0.8,0.75,2.94444444444444,2.75,2.66666666666667,2.11111111111111,1.875,3,2,2.75,2.25,1.25
"007.108",7,"Female",20,"A","FalseCHOICE",9,47,2,1750,,,1,1,0.514459762489423,-0.664637933784003,-0.356698394604355,"","",,,,,,,,,,,,,"False","Right","Hard","Mid",0.0168503997847437,,,,,,,-0.000591218684144769,-1.54924467405811,0.000104851581652419,0.217671511547572,,,"","",,,,,,,,,,"","","","","",,,,"",,,,,1,1.25,0.8,0.75,2.94444444444444,2.75,2.66666666666667,2.11111111111111,1.875,3,2,2.75,2.25,1.25
"007.109",7,"Female",20,"A","FalseCHOICE",9,48,2,1750,,,0.166666666666667,0.666666666666667,0.303597437567078,-1.19205267365742,-2.60870375204965,"","",,,,,,,,,,,,,"False","Right","Hard","Mid",0.0163926999084651,,,,,,,-5.7631655882657e-05,-0.31395255719506,-0.000310900980590716,-0.911845036987735,1.312,-0.625915494504027,"","",,,,,,,,,,"","","","","",,,,"",,,,,1,1.25,0.8,0.75,2.94444444444444,2.75,2.66666666666667,2.11111111111111,1.875,3,2,2.75,2.25,1.25
"007.110",7,"Female",20,"A","FalseCHOICE",9,49,2,1750,,,0.75,0.833333333333333,0.458357850089669,-0.78010506787544,-0.849730888624488,"","",,,,,,,,,,,,,"False","Left","Hard","Mid",0.0171823999844491,,,,,,,0.000119709751302888,0.0966054786762558,-0.000274639144940179,-0.813328882988434,2.14,1.05129495678832,"","",,,,,,,,,,"","","","","",,,,"",,,,,1,1.25,0.8,0.75,2.94444444444444,2.75,2.66666666666667,2.11111111111111,1.875,3,2,2.75,2.25,1.25
"007.111",7,"Female",20,"A","FalseCHOICE",9,50,2,1750,,,0.75,0.833333333333333,0.750293087621685,-0.287291365292184,1.25453168603603,"","",,,,,,,,,,,,,"False","Right","Hard","Mid",0.0153282997198402,,,,,,,-3.14898576966351e-05,-0.253432425502588,,,2.012,0.792016046443607,"","",,,,,,,,,,"","","","","",,,,"",,,,,1,1.25,0.8,0.75,2.94444444444444,2.75,2.66666666666667,2.11111111111111,1.875,3,2,2.75,2.25,1.25
"007.112",7,"Female",20,"","OFFLINERATING",9,1,1,,,,,,,,,"","",,,,,,,,,,,,,"","","","",,,,,,,,,,,,,,"T0","Easy",36,-1.81189157828545,1.38547919970006,,,0.00012455867517124,0.945420507258537,1.598,-0.114838621577939,"","","","","",,,,"",,,,,1,1.25,0.8,0.75,2.94444444444444,2.75,2.66666666666667,2.11111111111111,1.875,3,2,2.75,2.25,1.25
"007.113",7,"Female",20,"","OFFLINERATING",9,2,3,,,,,,,,,"","",,,,,,,,,,,,,"","","","",,,,,,,,,,,,,,"T0","Hard",50,-0.881011501368153,1.235476099886,,,-0.000475224351636245,-0.668209231866894,,,"","","","","",,,,"",,,,,1,1.25,0.8,0.75,2.94444444444444,2.75,2.66666666666667,2.11111111111111,1.875,3,2,2.75,2.25,1.25
"007.114",7,"Female",20,"","OFFLINERATING",9,3,1,,,,,,,,,"","",,,,,,,,,,,,,"","","","",,,,,,,,,,,,,,"T1","Easy",59,-0.282588594778464,1.28328920016065,,,0.0001471578871191,1.00622042797982,,,"","","","","",,,,"",,,,,1,1.25,0.8,0.75,2.94444444444444,2.75,2.66666666666667,2.11111111111111,1.875,3,2,2.75,2.25,1.25
"007.115",7,"Female",20,"","OFFLINERATING",9,4,3,,,,,,,,,"","",,,,,,,,,,,,,"","","","",,,,,,,,,,,,,,"T1","Hard",56,-0.482062896975027,1.13493780000135,,,-0.000703901344363823,-1.28343170337146,1.467,-0.768919466217498,"","","","","",,,,"",,,,,1,1.25,0.8,0.75,2.94444444444444,2.75,2.66666666666667,2.11111111111111,1.875,3,2,2.75,2.25,1.25
"007.116",7,"Female",20,"","OFFLINERATING",9,5,1,,,,,,,,,"","",,,,,,,,,,,,,"","","","",,,,,,,,,,,,,,"T2","Easy",80,1.11373152059748,2.27708509983495,3.89139505142053e-05,1.06560520066782,,,1.464,-0.7838984168581,"","","","","",,,,"",,,,,1,1.25,0.8,0.75,2.94444444444444,2.75,2.66666666666667,2.11111111111111,1.875,3,2,2.75,2.25,1.25
"007.117",7,"Female",20,"","OFFLINERATING",9,6,3,,,,,,,,,"","",,,,,,,,,,,,,"","","","",,,,,,,,,,,,,,"T2","Hard",66,0.182851443680183,1.1352021000348,1.67520061573794e-05,0.272408034985982,,,1.955,1.66765650465353,"","","","","",,,,"",,,,,1,1.25,0.8,0.75,2.94444444444444,2.75,2.66666666666667,2.11111111111111,1.875,3,2,2.75,2.25,1.25
"007.118",7,"Female",20,"","OFFLINERATING",9,7,1,,,,,,,,,"","",,,,,,,,,,,,,"","","","",,,,,,,,,,,,,,"T3","Easy",81,1.180222954663,1.33533120015636,-2.82431957106056e-05,-1.33801323565381,,,,,"","","","","",,,,"",,,,,1,1.25,0.8,0.75,2.94444444444444,2.75,2.66666666666667,2.11111111111111,1.875,3,2,2.75,2.25,1.25
"007.119",7,"Female",20,"","OFFLINERATING",9,8,3,,,,,,,,,"","",,,,,,,,,,,,,"","","","",,,,,,,,,,,,,,"T3","Hard",78,0.980748652466435,1.53555299993604,,,,,,,"","","","","",,,,"",,,,,1,1.25,0.8,0.75,2.94444444444444,2.75,2.66666666666667,2.11111111111111,1.875,3,2,2.75,2.25,1.25
"007.120",7,"Female",20,"A","LEARNINGCHECK",9,1,,,,,,,,,,"","",,,,,,,,,,,,,"","","","",,,,,,,,,,,,,,"","",,,,,,,,,,"cue1.png","Easy","Left","Left","Easy",0.0159650999121367,1,,"",,,,,1,1.25,0.8,0.75,2.94444444444444,2.75,2.66666666666667,2.11111111111111,1.875,3,2,2.75,2.25,1.25
"007.121",7,"Female",20,"A","LEARNINGCHECK",9,1,,,,,,,,,,"","",,,,,,,,,,,,,"","","","",,,,,,,,,,,,,,"","",,,,,,,,,,"cue1.png","Easy","Middle","Middle","Mid",0.0142455003224313,1,,"",,,,,1,1.25,0.8,0.75,2.94444444444444,2.75,2.66666666666667,2.11111111111111,1.875,3,2,2.75,2.25,1.25
"007.122",7,"Female",20,"A","LEARNINGCHECK",9,2,,,,,,,,,,"","",,,,,,,,,,,,,"","","","",,,,,,,,,,,,,,"","",,,,,,,,,,"cue2.png","Hard","Right","Right","Hard",0.0151575999334454,1,,"",,,,,1,1.25,0.8,0.75,2.94444444444444,2.75,2.66666666666667,2.11111111111111,1.875,3,2,2.75,2.25,1.25
"007.123",7,"Female",20,"A","LEARNINGCHECK",9,2,,,,,,,,,,"","",,,,,,,,,,,,,"","","","",,,,,,,,,,,,,,"","",,,,,,,,,,"cue2.png","Hard","Middle","Middle","Mid",0.0137447998858988,1,,"",,,,,1,1.25,0.8,0.75,2.94444444444444,2.75,2.66666666666667,2.11111111111111,1.875,3,2,2.75,2.25,1.25
"007.124",7,"Female",20,"","DEMANDRATING",9,-1,,,,,,,,,,"","",,,,,,,,,,,,,"","","","",,,,,,,,,,,,,,"","",,,,,,,,,,"","","","","",,,1,"MentalDemand",1,51,-0.0270717551140132,5.31529460009187,1,1.25,0.8,0.75,2.94444444444444,2.75,2.66666666666667,2.11111111111111,1.875,3,2,2.75,2.25,1.25
"007.125",7,"Female",20,"","DEMANDRATING",9,-1,,,,,,,,,,"","",,,,,,,,,,,,,"","","","",,,,,,,,,,,,,,"","",,,,,,,,,,"","","","","",,,2,"Effort",1,51,-0.0270717551140132,2.87286659982055,1,1.25,0.8,0.75,2.94444444444444,2.75,2.66666666666667,2.11111111111111,1.875,3,2,2.75,2.25,1.25
"007.126",7,"Female",20,"","DEMANDRATING",9,-1,,,,,,,,,,"","",,,,,,,,,,,,,"","","","",,,,,,,,,,,,,,"","",,,,,,,,,,"","","","","",,,3,"Frustration",1,0,-2.51225887458042,4.14603029983118,1,1.25,0.8,0.75,2.94444444444444,2.75,2.66666666666667,2.11111111111111,1.875,3,2,2.75,2.25,1.25
"007.127",7,"Female",20,"","DEMANDRATING",9,-1,,,,,,,,,,"","",,,,,,,,,,,,,"","","","",,,,,,,,,,,,,,"","",,,,,,,,,,"","","","","",,,4,"MentalDemand",2,59,0.362761518527776,2.74891289975494,1,1.25,0.8,0.75,2.94444444444444,2.75,2.66666666666667,2.11111111111111,1.875,3,2,2.75,2.25,1.25
"007.128",7,"Female",20,"","DEMANDRATING",9,-1,,,,,,,,,,"","",,,,,,,,,,,,,"","","","",,,,,,,,,,,,,,"","",,,,,,,,,,"","","","","",,,5,"Effort",2,54,0.119115722501658,2.45118930004537,1,1.25,0.8,0.75,2.94444444444444,2.75,2.66666666666667,2.11111111111111,1.875,3,2,2.75,2.25,1.25
"007.129",7,"Female",20,"","DEMANDRATING",9,-1,,,,,,,,,,"","",,,,,,,,,,,,,"","","","",,,,,,,,,,,,,,"","",,,,,,,,,,"","","","","",,,6,"Frustration",2,45,-0.319446710345355,3.61996009992436,1,1.25,0.8,0.75,2.94444444444444,2.75,2.66666666666667,2.11111111111111,1.875,3,2,2.75,2.25,1.25
"007.130",7,"Female",20,"","DEMANDRATING",9,-1,,,,,,,,,,"","",,,,,,,,,,,,,"","","","",,,,,,,,,,,,,,"","",,,,,,,,,,"","","","","",,,7,"MentalDemand",3,74,1.09369890660613,2.3870653999038,1,1.25,0.8,0.75,2.94444444444444,2.75,2.66666666666667,2.11111111111111,1.875,3,2,2.75,2.25,1.25
"007.131",7,"Female",20,"","DEMANDRATING",9,-1,,,,,,,,,,"","",,,,,,,,,,,,,"","","","",,,,,,,,,,,,,,"","",,,,,,,,,,"","","","","",,,8,"Effort",3,74,1.09369890660613,2.3967605996877,1,1.25,0.8,0.75,2.94444444444444,2.75,2.66666666666667,2.11111111111111,1.875,3,2,2.75,2.25,1.25
"007.132",7,"Female",20,"","DEMANDRATING",9,-1,,,,,,,,,,"","",,,,,,,,,,,,,"","","","",,,,,,,,,,,,,,"","",,,,,,,,,,"","","","","",,,9,"Frustration",3,56,0.216574040912105,1.75952810002491,1,1.25,0.8,0.75,2.94444444444444,2.75,2.66666666666667,2.11111111111111,1.875,3,2,2.75,2.25,1.25
"008.1",8,"Female",24,"B","PRACTICE",0,1,1,2583,,,,,,,,"cue2.png","Easy",,,,,,,,,,,,,"","","","",,,,,,,,,,,,,,"","",,,,,,,,,,"","","","","",,,,"",,,,,1.14285714285714,0.5,0.4,1,2.88888888888889,3.5,3.44444444444444,3.44444444444444,0.375,3.11111111111111,2.5,2.25,3,2.25
"008.2",8,"Female",24,"B","LEARNING",1,1,1,2583,,,1,1,0.833764216667381,-0.181804630422559,2.42732076597692,"cue2.png","Easy",-0.000860509016031173,-0.686209599922561,0.00126262132249613,0.606392704027109,,,-0.000681511966461308,-0.490222034408794,1.279,-0.445914143636605,,,"","","","",,,,,,,,,,,,,,"","",,,,,,,,,,"","","","","",,,,"",,,,,1.14285714285714,0.5,0.4,1,2.88888888888889,3.5,3.44444444444444,3.44444444444444,0.375,3.11111111111111,2.5,2.25,3,2.25
"008.3",8,"Female",24,"B","LEARNING",1,2,3,2583,,,1,1,0.576087816666889,-0.551495170415886,-0.165683328883655,"cue1.png","Hard",0.00483330671864825,1.8224690876999,,,-0.000822302028999653,-0.416785606318197,-0.0012005456396594,-0.737146696346046,1.113,-0.748537806120973,1.162,-0.974986416226913,"","","","",,,,,,,,,,,,,,"","",,,,,,,,,,"","","","","",,,,"",,,,,1.14285714285714,0.5,0.4,1,2.88888888888889,3.5,3.44444444444444,3.44444444444444,0.375,3.11111111111111,2.5,2.25,3,2.25
"008.4",8,"Female",24,"B","LEARNING",1,3,1,2583,,,1,1,0.640335133333186,-0.445763593849952,0.575916418289964,"cue2.png","Easy",,,0.000377713359396761,0.115963246847364,,,-0.00356512928545029,-1.86207181683323,,,1.575,-0.25061199977132,"","","","",,,,,,,,,,,,,,"","",,,,,,,,,,"","","","","",,,,"",,,,,1.14285714285714,0.5,0.4,1,2.88888888888889,3.5,3.44444444444444,3.44444444444444,0.375,3.11111111111111,2.5,2.25,3,2.25
"008.5",8,"Female",24,"B","LEARNING",1,4,3,2583,,,1,1,0.539075683333067,-0.617899303583249,-0.631440957471466,"cue1.png","Hard",0.00384070333766367,1.38513091885622,-0.0019886680699923,-1.1955213462291,-0.00149896504327372,-0.894202124606219,-0.00176406654066789,-1.00523567623578,1.579,0.100996089768879,1.583,-0.236580534077264,"","","","",,,,,,,,,,,,,,"","",,,,,,,,,,"","","","","",,,,"",,,,,1.14285714285714,0.5,0.4,1,2.88888888888889,3.5,3.44444444444444,3.44444444444444,0.375,3.11111111111111,2.5,2.25,3,2.25
"008.6",8,"Female",24,"B","LEARNING",1,5,3,2583,,,1,1,0.551127800001268,-0.595788554797516,-0.476356485624087,"cue1.png","Hard",,,-0.00111936333314942,-0.713739434446533,0.00118494793510301,0.999420494769976,0.000130947700148925,-0.103703126532817,1.502,-0.0393775368051954,,,"","","","",,,,,,,,,,,,,,"","",,,,,,,,,,"","","","","",,,,"",,,,,1.14285714285714,0.5,0.4,1,2.88888888888889,3.5,3.44444444444444,3.44444444444444,0.375,3.11111111111111,2.5,2.25,3,2.25
"008.7",8,"Female",24,"B","LEARNING",1,6,1,2583,,,1,1,0.691948183333201,-0.368244205744383,1.11963628407949,"cue2.png","Easy",0.00286380205298092,0.954711048071166,-0.00326602355350855,-1.90345119038183,-0.000168632885821998,0.0444076905889567,-0.00167871618274973,-0.964631165654974,0.083,-2.62626294081314,1.637,-0.141868140642392,"","","","",,,,,,,,,,,,,,"","",,,,,,,,,,"","","","","",,,,"",,,,,1.14285714285714,0.5,0.4,1,2.88888888888889,3.5,3.44444444444444,3.44444444444444,0.375,3.11111111111111,2.5,2.25,3,2.25
"008.8",8,"Female",24,"B","LEARNING",1,7,3,2583,,,1,1,0.622865749999619,-0.473424272983122,0.381904815341651,"cue1.png","Hard",0.00141096207064502,0.31459396840999,-2.68612796246494e-05,-0.108258173772489,0.000939072880209404,0.825944465838333,-0.00147693650275936,-0.868636663100969,,,1.211,-0.889043688850826,"","","","",,,,,,,,,,,,,,"","",,,,,,,,,,"","","","","",,,,"",,,,,1.14285714285714,0.5,0.4,1,2.88888888888889,3.5,3.44444444444444,3.44444444444444,0.375,3.11111111111111,2.5,2.25,3,2.25
"008.9",8,"Female",24,"B","LEARNING",1,8,3,2583,,,0.6875,0.75,0.764274450000812,-0.268828326572703,1.81693782117314,"cue1.png","Hard",-0.000604521411650334,-0.573422204381406,0.00279772881956837,1.45717263583471,-0.00520306254886205,-3.50761130644909,,,2.687,2.12091788514647,2.894,2.06282590653601,"","","","",,,,,,,,,,,,,,"","",,,,,,,,,,"","","","","",,,,"",,,,,1.14285714285714,0.5,0.4,1,2.88888888888889,3.5,3.44444444444444,3.44444444444444,0.375,3.11111111111111,2.5,2.25,3,2.25
"008.10",8,"Female",24,"B","LEARNING",1,9,1,2583,,,1,1,0.634540533334075,-0.454854111544876,0.512155658796996,"cue2.png","Easy",,,0.000457358926365551,0.160104031882757,0.00126181463906362,1.05365344884464,0.00168820749000453,0.637146392515271,,,0.571,-2.01156094437523,"","","","",,,,,,,,,,,,,,"","",,,,,,,,,,"","","","","",,,,"",,,,,1.14285714285714,0.5,0.4,1,2.88888888888889,3.5,3.44444444444444,3.44444444444444,0.375,3.11111111111111,2.5,2.25,3,2.25
"008.11",8,"Female",24,"B","LEARNING",1,10,1,2583,,,0.6875,0.75,0.750439616665972,-0.287096088619218,1.68880800267303,"cue2.png","Easy",0.00911050748107918,3.70699132997037,-0.00127474480894305,-0.799854212487808,0.000535053995576689,0.540890775663039,0.000938965725516674,0.280702718513365,,,,,"","","","",,,,,,,,,,,,,,"","",,,,,,,,,,"","","","","",,,,"",,,,,1.14285714285714,0.5,0.4,1,2.88888888888889,3.5,3.44444444444444,3.44444444444444,0.375,3.11111111111111,2.5,2.25,3,2.25
"008.12",8,"Female",24,"B","LEARNING",1,11,3,2583,,,1,1,0.734405349999482,-0.308694154844708,1.53731947888019,"cue1.png","Hard",-0.00133204493587027,-0.893966957671931,,,0.00248775054936881,1.91860696572934,,,,,0.695,-1.79407322611738,"","","","",,,,,,,,,,,,,,"","",,,,,,,,,,"","","","","",,,,"",,,,,1.14285714285714,0.5,0.4,1,2.88888888888889,3.5,3.44444444444444,3.44444444444444,0.375,3.11111111111111,2.5,2.25,3,2.25
"008.13",8,"Female",24,"B","LEARNING",1,12,1,2583,,,0.6875,0.75,0.545857833333381,-0.605396715651892,-0.543747986742634,"cue2.png","Easy",0.00231163452149988,0.711427636248289,-0.00326342088221893,-1.90200875035302,-0.000107729778863348,0.0873776012590634,-0.00109493574519024,-0.68690393015258,2.519,1.8146481544394,2.475,1.32792789080988,"","","","",,,,,,,,,,,,,,"","",,,,,,,,,,"","","","","",,,,"",,,,,1.14285714285714,0.5,0.4,1,2.88888888888889,3.5,3.44444444444444,3.44444444444444,0.375,3.11111111111111,2.5,2.25,3,2.25
"008.14",8,"Female",24,"B","LEARNING",1,13,1,2583,,,1,1,0.554142316667518,-0.590333735933708,-0.438096465092234,"cue2.png","Easy",0.000472480243989419,-0.0988984006725268,0.00160687770857304,0.797184831112307,0.000315107685630548,0.385708655036221,0.00191649475074311,0.74575159019951,,,,,"","","","",,,,,,,,,,,,,,"","",,,,,,,,,,"","","","","",,,,"",,,,,1.14285714285714,0.5,0.4,1,2.88888888888889,3.5,3.44444444444444,3.44444444444444,0.375,3.11111111111111,2.5,2.25,3,2.25
"008.15",8,"Female",24,"B","LEARNING",1,14,1,2583,,,1,1,0.527905833332625,-0.638837357142346,-0.778300161978373,"cue2.png","Easy",0.00172658554627914,0.453656755745031,-0.00226528978751618,-1.34882931092885,-0.00219228980344579,-1.38337426208344,,,,,,,"","","","",,,,,,,,,,,,,,"","",,,,,,,,,,"","","","","",,,,"",,,,,1.14285714285714,0.5,0.4,1,2.88888888888889,3.5,3.44444444444444,3.44444444444444,0.375,3.11111111111111,2.5,2.25,3,2.25
"008.16",8,"Female",24,"B","LEARNING",1,15,3,2583,,,0.6875,0.75,0.656555899999754,-0.420747440349738,0.751379356738126,"cue1.png","Hard",0.000181661130779935,-0.227032457912609,,,,,,,,,,,"","","","",,,,,,,,,,,,,,"","",,,,,,,,,,"","","","","",,,,"",,,,,1.14285714285714,0.5,0.4,1,2.88888888888889,3.5,3.44444444444444,3.44444444444444,0.375,3.11111111111111,2.5,2.25,3,2.25
"008.17",8,"Female",24,"B","LEARNING",1,16,1,2583,,,0.6875,0.75,0.614348116667922,-0.48719354624187,0.285327332066496,"cue2.png","Easy",0.000353824803180889,-0.151177643520832,,,,,,,,,,,"","","","",,,,,,,,,,,,,,"","",,,,,,,,,,"","","","","",,,,"",,,,,1.14285714285714,0.5,0.4,1,2.88888888888889,3.5,3.44444444444444,3.44444444444444,0.375,3.11111111111111,2.5,2.25,3,2.25
"008.18",8,"Female",24,"B","LEARNING",1,17,1,2583,,,1,1,0.602007283333175,-0.507485735186412,0.142998212614773,"cue2.png","Easy",0.00050399622792245,-0.0850125496200079,0.000407120221732647,0.132260977384487,0.000712303489948804,0.665948351866211,,,,,,,"","","","",,,,,,,,,,,,,,"","",,,,,,,,,,"","","","","",,,,"",,,,,1.14285714285714,0.5,0.4,1,2.88888888888889,3.5,3.44444444444444,3.44444444444444,0.375,3.11111111111111,2.5,2.25,3,2.25
"008.19",8,"Female",24,"B","LEARNING",1,18,3,2583,,,1,1,0.530207750000651,-0.6344863681072,-0.747782387882691,"cue1.png","Hard",,,0.0014051772038059,0.685399342461752,,,-0.000172846491311397,-0.248229930666026,,,,,"","","","",,,,,,,,,,,,,,"","",,,,,,,,,,"","","","","",,,,"",,,,,1.14285714285714,0.5,0.4,1,2.88888888888889,3.5,3.44444444444444,3.44444444444444,0.375,3.11111111111111,2.5,2.25,3,2.25
"008.20",8,"Female",24,"B","LEARNING",1,19,3,2583,,,1,1,0.527889566665787,-0.638868171193703,-0.778516291288444,"cue1.png","Hard",6.39485372629996e-05,-0.27889628498065,8.35240024720787e-06,-0.0887422166051816,-0.00049374336254362,-0.184972530556882,0.000321587378989806,-0.0130083591595171,,,,,"","","","",,,,,,,,,,,,,,"","",,,,,,,,,,"","","","","",,,,"",,,,,1.14285714285714,0.5,0.4,1,2.88888888888889,3.5,3.44444444444444,3.44444444444444,0.375,3.11111111111111,2.5,2.25,3,2.25
"008.21",8,"Female",24,"B","LEARNING",1,20,3,2583,,,0.6875,0.75,0.569892150000669,-0.562308146581253,-0.241525387149288,"cue1.png","Hard",-0.000610936135479143,-0.576248513083021,,,-0.00158551802246878,-0.955269186205692,,,2.035,0.932299644545216,2.443,1.27180202803366,"","","","",,,,,,,,,,,,,,"","",,,,,,,,,,"","","","","",,,,"",,,,,1.14285714285714,0.5,0.4,1,2.88888888888889,3.5,3.44444444444444,3.44444444444444,0.375,3.11111111111111,2.5,2.25,3,2.25
"008.22",8,"Female",24,"B","LEARNING",1,21,1,2583,,,1,1,0.489901199998712,-0.713551540863751,-1.30234436483319,"cue2.png","Easy",-0.000405112609335238,-0.485563264822596,-4.68582396433949e-05,-0.119340793272136,-8.74528294374059e-06,0.157215663055793,,,2.146,1.13465643090524,1.512,-0.361109792112003,"","","","",,,,,,,,,,,,,,"","",,,,,,,,,,"","","","","",,,,"",,,,,1.14285714285714,0.5,0.4,1,2.88888888888889,3.5,3.44444444444444,3.44444444444444,0.375,3.11111111111111,2.5,2.25,3,2.25
"008.23",8,"Female",24,"B","LEARNING",1,22,3,2583,,,0.1875,0.583333333333333,0.532116260001203,-0.630893279678685,-0.72258051766848,"cue1.png","Hard",,,0.000356387200743765,0.104143965240624,,,-0.000156479334747232,-0.240443432775478,1.417,-0.194335436270082,1.82,0.179101637109118,"","","","",,,,,,,,,,,,,,"","",,,,,,,,,,"","","","","",,,,"",,,,,1.14285714285714,0.5,0.4,1,2.88888888888889,3.5,3.44444444444444,3.44444444444444,0.375,3.11111111111111,2.5,2.25,3,2.25
"008.24",8,"Female",24,"B","LEARNING",1,23,3,2583,,,1,1,0.580576316664519,-0.543734019362894,-0.111246727769648,"cue1.png","Hard",-0.000182700400909322,-0.387569091293805,0.00134989389358361,0.654760490791284,0.00268603224400418,2.05850371536125,-0.00473222094894304,-2.4173030654766,1.359,-0.300071414728476,1.456,-0.459330051970388,"","","","",,,,,,,,,,,,,,"","",,,,,,,,,,"","","","","",,,,"",,,,,1.14285714285714,0.5,0.4,1,2.88888888888889,3.5,3.44444444444444,3.44444444444444,0.375,3.11111111111111,2.5,2.25,3,2.25
"008.25",8,"Female",24,"B","LEARNING",1,24,3,2583,,,1,1,0.687891449999976,-0.374124229659587,1.07839388147357,"cue1.png","Hard",-0.000212793639682095,-0.400828084957926,0.000147949099283483,-0.0113756020109851,-0.00028071502047257,-0.0346713507630685,0.000124439364076028,-0.106799397097831,2.102,1.05444293000577,1.946,0.400097221790485,"","","","",,,,,,,,,,,,,,"","",,,,,,,,,,"","","","","",,,,"",,,,,1.14285714285714,0.5,0.4,1,2.88888888888889,3.5,3.44444444444444,3.44444444444444,0.375,3.11111111111111,2.5,2.25,3,2.25
"008.26",8,"Female",24,"B","LEARNING",1,25,1,2583,,,1,1,0.880642133334428,-0.127103940638338,2.81099061212647,"cue2.png","Easy",8.39979241114785e-05,-0.270062583324249,0.00323074812932568,1.69715852576707,0.000103873697695024,0.236673473657997,0.00571242615207039,2.55162493986945,1.01,-0.93631031959019,1.206,-0.89781335490961,"","","","",,,,,,,,,,,,,,"","",,,,,,,,,,"","","","","",,,,"",,,,,1.14285714285714,0.5,0.4,1,2.88888888888889,3.5,3.44444444444444,3.44444444444444,0.375,3.11111111111111,2.5,2.25,3,2.25
"008.27",8,"Female",24,"B","LEARNING",1,26,1,2583,,,1,1,0.617897050000465,-0.48143342116116,0.325728765983251,"cue2.png","Easy",,,,,,,,,1.862,0.616914743281387,1.496,-0.389172723500113,"","","","",,,,,,,,,,,,,,"","",,,,,,,,,,"","","","","",,,,"",,,,,1.14285714285714,0.5,0.4,1,2.88888888888889,3.5,3.44444444444444,3.44444444444444,0.375,3.11111111111111,2.5,2.25,3,2.25
"008.28",8,"Female",24,"B","LEARNING",1,27,3,2583,,,1,1,0.598767400000118,-0.512882070136266,0.105148397408616,"cue1.png","Hard",,,,,-0.000280678254589089,-0.0346454107608621,,,1.437,-0.157874754043049,1.89,0.3018769619321,"","","","",,,,,,,,,,,,,,"","",,,,,,,,,,"","","","","",,,,"",,,,,1.14285714285714,0.5,0.4,1,2.88888888888889,3.5,3.44444444444444,3.44444444444444,0.375,3.11111111111111,2.5,2.25,3,2.25
"008.29",8,"Female",24,"B","LEARNING",1,28,1,2583,,,1,1,0.615945366665983,-0.484597009859151,0.303539400660317,"cue2.png","Easy",,,0.000475272719817121,0.170032128775131,-0.000679787454679474,-0.316235095292806,0.000198893250757581,-0.0713787649729856,0.909,-1.1204367648367,1.475,-0.426005320947008,"","","","",,,,,,,,,,,,,,"","",,,,,,,,,,"","","","","",,,,"",,,,,1.14285714285714,0.5,0.4,1,2.88888888888889,3.5,3.44444444444444,3.44444444444444,0.375,3.11111111111111,2.5,2.25,3,2.25
"008.30",8,"Female",24,"B","LEARNING",1,29,1,2583,,,1,1,0.590001399997467,-0.527630369208125,0.00170404125536348,"cue2.png","Easy",,,0.00180828040309011,0.908805268791033,-0.000133072840255093,0.0694969193285067,0.00252499315525187,1.03523813140382,0.997,-0.960009763037761,1.023,-1.21878313266112,"","","","",,,,,,,,,,,,,,"","",,,,,,,,,,"","","","","",,,,"",,,,,1.14285714285714,0.5,0.4,1,2.88888888888889,3.5,3.44444444444444,3.44444444444444,0.375,3.11111111111111,2.5,2.25,3,2.25
"008.31",8,"Female",24,"B","LEARNING",1,30,3,2583,,,1,1,0.596491866666232,-0.516689672631455,0.0784419286366407,"cue1.png","Hard",-0.000233492316271644,-0.409947861789818,-0.000729624360780751,-0.497740166012904,,,0.00112300687219195,0.368258305505104,1.683,0.290591637349447,2.032,0.550935478001578,"","","","",,,,,,,,,,,,,,"","",,,,,,,,,,"","","","","",,,,"",,,,,1.14285714285714,0.5,0.4,1,2.88888888888889,3.5,3.44444444444444,3.44444444444444,0.375,3.11111111111111,2.5,2.25,3,2.25
"008.32",8,"Female",24,"B","LEARNING",1,31,3,2583,,,0.6875,0.75,0.632835800002795,-0.457544290167506,0.493286784888261,"cue1.png","Hard",,,,,-0.000829514037769158,-0.421874006369578,0.00117229035217698,0.391704388606824,,,0.617,-1.93088001663442,"","","","",,,,,,,,,,,,,,"","",,,,,,,,,,"","","","","",,,,"",,,,,1.14285714285714,0.5,0.4,1,2.88888888888889,3.5,3.44444444444444,3.44444444444444,0.375,3.11111111111111,2.5,2.25,3,2.25
"008.33",8,"Female",24,"B","LEARNING",1,32,1,2583,,,1,1,0.59437135000068,-0.520250986604504,0.0534629239930088,"cue2.png","Easy",,,-0.000188896465150193,-0.19806053898455,0.00118152844408137,0.997007888401031,0.00195764528419061,0.765328511861362,0.374,-2.09576001440982,2.048,0.578998409389688,"","","","",,,,,,,,,,,,,,"","",,,,,,,,,,"","","","","",,,,"",,,,,1.14285714285714,0.5,0.4,1,2.88888888888889,3.5,3.44444444444444,3.44444444444444,0.375,3.11111111111111,2.5,2.25,3,2.25
"008.34",8,"Female",24,"B","LEARNING",1,33,1,2583,,,1,1,0.532387233334399,-0.630384172210752,-0.719009645259629,"cue2.png","Easy",-0.000770463727031187,-0.646535906926279,-0.000374296435120196,-0.30081202323503,0.00212841801591174,1.66508152779075,0.00230397134015861,0.930089390983209,1.346,-0.323770858176047,1.121,-1.04689767790894,"","","","",,,,,,,,,,,,,,"","",,,,,,,,,,"","","","","",,,,"",,,,,1.14285714285714,0.5,0.4,1,2.88888888888889,3.5,3.44444444444444,3.44444444444444,0.375,3.11111111111111,2.5,2.25,3,2.25
"008.35",8,"Female",24,"B","LEARNING",1,34,1,2583,,,1,1,0.472013549999247,-0.750747586183115,-1.5632368881514,"cue2.png","Easy",0.000101952865614654,-0.262151688208311,0.00130061023183844,0.62744673559254,0.000647643464073689,0.620327764107579,4.92111400292906e-05,-0.142588411857555,1.496,-0.0503157414733047,2.227,0.892952454294171,"","","","",,,,,,,,,,,,,,"","",,,,,,,,,,"","","","","",,,,"",,,,,1.14285714285714,0.5,0.4,1,2.88888888888889,3.5,3.44444444444444,3.44444444444444,0.375,3.11111111111111,2.5,2.25,3,2.25
"008.36",8,"Female",24,"B","LEARNING",1,35,3,2583,,,0.6875,0.75,0.521947216668195,-0.650188813706095,-0.857919113961745,"cue1.png","Hard",-0.000471486009726932,-0.514807192400637,0.00043993985447941,0.15045011720922,0.000276049743360467,0.358151501155007,-0.000371568303250752,-0.3427696855346,,,1.898,0.315908427626155,"","","","",,,,,,,,,,,,,,"","",,,,,,,,,,"","","","","",,,,"",,,,,1.14285714285714,0.5,0.4,1,2.88888888888889,3.5,3.44444444444444,3.44444444444444,0.375,3.11111111111111,2.5,2.25,3,2.25
"008.37",8,"Female",24,"B","LEARNING",1,36,3,2583,,,1,1,0.593602166665126,-0.521545937093299,0.0443801600138515,"cue1.png","Hard",-0.00168035019958637,-1.04742924598402,0.00432975209521911,2.30624324520356,0.000359375949089501,0.416941927382137,-2.58813082909736e-05,-0.178312832782448,1.869,0.629675982060848,2.59,1.52963021016192,"","","","",,,,,,,,,,,,,,"","",,,,,,,,,,"","","","","",,,,"",,,,,1.14285714285714,0.5,0.4,1,2.88888888888889,3.5,3.44444444444444,3.44444444444444,0.375,3.11111111111111,2.5,2.25,3,2.25
"008.38",8,"Female",24,"B","LEARNING",1,37,1,2583,,,1,1,0.798336799999864,-0.225224715434871,2.12277291836861,"cue2.png","Easy",0.00315554015587309,1.08325000949827,-0.000856459914602141,-0.568034359765945,-0.000611671708439045,-0.268176339716245,0.000144960884357339,-0.097036505556173,1.229,-0.537065849204186,2.205,0.854365923635519,"","","","",,,,,,,,,,,,,,"","",,,,,,,,,,"","","","","",,,,"",,,,,1.14285714285714,0.5,0.4,1,2.88888888888889,3.5,3.44444444444444,3.44444444444444,0.375,3.11111111111111,2.5,2.25,3,2.25
"008.39",8,"Female",24,"B","LEARNING",1,38,3,2583,,,1,1,0.579307083335152,-0.545922573550287,-0.126597215152518,"cue1.png","Hard",0.00140882777613917,0.313653604445041,-0.00254673978236806,-1.50481318038686,,,8.65246230598556e-05,-0.124836925472765,1.523,-0.00109382046681085,,,"","","","",,,,,,,,,,,,,,"","",,,,,,,,,,"","","","","",,,,"",,,,,1.14285714285714,0.5,0.4,1,2.88888888888889,3.5,3.44444444444444,3.44444444444444,0.375,3.11111111111111,2.5,2.25,3,2.25
"008.40",8,"Female",24,"B","LEARNING",1,39,3,2583,,,1,1,0.604528949998591,-0.503305719257491,0.172316783818869,"cue1.png","Hard",-0.000963343659823259,-0.731518245521886,0.0012726783306761,0.611966450979591,-0.00263809041909453,-1.69790686292613,-0.00223610663581929,-1.2298036511764,1.227,-0.540711917426889,2.37,1.14376490357541,"","","","",,,,,,,,,,,,,,"","",,,,,,,,,,"","","","","",,,,"",,,,,1.14285714285714,0.5,0.4,1,2.88888888888889,3.5,3.44444444444444,3.44444444444444,0.375,3.11111111111111,2.5,2.25,3,2.25
"008.41",8,"Female",24,"B","LEARNING",1,40,3,2583,,,1,1,0.505555150000873,-0.682098146569757,-1.08173071266058,"cue1.png","Hard",-9.49945304543681e-05,-0.348926139318804,-0.000218772082244843,-0.214618060541166,-0.000458966178302997,-0.160435646072614,,,1.509,-0.0266162980257335,2.041,0.566720876907389,"","","","",,,,,,,,,,,,,,"","",,,,,,,,,,"","","","","",,,,"",,,,,1.14285714285714,0.5,0.4,1,2.88888888888889,3.5,3.44444444444444,3.44444444444444,0.375,3.11111111111111,2.5,2.25,3,2.25
"008.42",8,"Female",24,"B","LEARNING",1,41,1,2583,,,1,1,0.520908966667776,-0.652179980580384,-0.871885129588421,"cue2.png","Easy",0.00119015967834909,0.217309075195923,-0.00227401527877144,-1.3536651109424,-0.000333808507192119,-0.0721312193220316,0.00114408382961105,0.378285440263644,2.469,1.72349644887182,1.799,0.142269039662224,"","","","",,,,,,,,,,,,,,"","",,,,,,,,,,"","","","","",,,,"",,,,,1.14285714285714,0.5,0.4,1,2.88888888888889,3.5,3.44444444444444,3.44444444444444,0.375,3.11111111111111,2.5,2.25,3,2.25
"008.43",8,"Female",24,"B","LEARNING",1,42,3,2583,,,1,1,0.523408366666748,-0.647393303788887,-0.838311447877899,"cue1.png","Hard",0.00571781798897923,2.21218218630373,-0.00164582426394974,-1.00551209249159,-0.000350389765712058,-0.0838300510069809,0.00438882555791095,1.92193625851866,1.496,-0.0503157414733047,,,"","","","",,,,,,,,,,,,,,"","",,,,,,,,,,"","","","","",,,,"",,,,,1.14285714285714,0.5,0.4,1,2.88888888888889,3.5,3.44444444444444,3.44444444444444,0.375,3.11111111111111,2.5,2.25,3,2.25
"008.44",8,"Female",24,"B","LEARNING",1,43,3,2583,,,1,1,0.440136983332195,-0.820669274766648,-2.05366659949846,"cue1.png","Hard",-0.00412958968198388,-2.1265570535368,,,0.000181492355584028,0.291436965413655,0.000181308581359299,-0.0797444814393079,1.428,-0.174282061045215,,,"","","","",,,,,,,,,,,,,,"","",,,,,,,,,,"","","","","",,,,"",,,,,1.14285714285714,0.5,0.4,1,2.88888888888889,3.5,3.44444444444444,3.44444444444444,0.375,3.11111111111111,2.5,2.25,3,2.25
"008.45",8,"Female",24,"B","LEARNING",1,44,1,2583,,,1,1,0.578544299999824,-0.547240157925376,-0.135838732882435,"cue2.png","Easy",0.0012907797928856,0.261642005632439,,,-0.00136259056159159,-0.797983728071183,-1.95136697410652e-06,-0.16692842176064,1.185,-0.617279350103657,1.452,-0.466345784817416,"","","","",,,,,,,,,,,,,,"","",,,,,,,,,,"","","","","",,,,"",,,,,1.14285714285714,0.5,0.4,1,2.88888888888889,3.5,3.44444444444444,3.44444444444444,0.375,3.11111111111111,2.5,2.25,3,2.25
"008.46",8,"Female",24,"B","LEARNING",1,45,1,2583,,,1,1,0.529719133332643,-0.635408350010487,-0.754249155603212,"cue2.png","Easy",-0.000249599517057931,-0.417044647708565,0.00391923165598645,2.07872657164024,-0.00258858029423469,-1.66297521906209,0.000173841954643905,-0.0832966484232922,1.531,0.0134904524240021,2.566,1.48753581307975,"","","","",,,,,,,,,,,,,,"","",,,,,,,,,,"","","","","",,,,"",,,,,1.14285714285714,0.5,0.4,1,2.88888888888889,3.5,3.44444444444444,3.44444444444444,0.375,3.11111111111111,2.5,2.25,3,2.25
"008.47",8,"Female",24,"B","LEARNING",1,46,1,2583,,,1,1,0.512507600001603,-0.668439738808106,-0.985930838376878,"cue2.png","Easy",-0.000699630288044053,-0.615326899287391,0.000939234093948893,0.42716658157275,-0.000754213774465692,-0.368746247390348,6.41537702996938e-05,-0.135479616959455,1.836,0.569515856386245,,,"","","","",,,,,,,,,,,,,,"","",,,,,,,,,,"","","","","",,,,"",,,,,1.14285714285714,0.5,0.4,1,2.88888888888889,3.5,3.44444444444444,3.44444444444444,0.375,3.11111111111111,2.5,2.25,3,2.25
"008.48",8,"Female",24,"B","LEARNING",1,47,3,2583,,,1,1,0.593453866666096,-0.521795798929031,0.0426276327157141,"cue1.png","Hard",-0.000680837781715211,-0.607046975540117,0.00211187572849887,1.07706241738876,0.000749264746991687,0.692026199002414,3.40256647727534e-05,-0.149812737633902,1.351,-0.314655687619289,1.346,-0.652262705263646,"","","","",,,,,,,,,,,,,,"","",,,,,,,,,,"","","","","",,,,"",,,,,1.14285714285714,0.5,0.4,1,2.88888888888889,3.5,3.44444444444444,3.44444444444444,0.375,3.11111111111111,2.5,2.25,3,2.25
"008.49",8,"Female",24,"B","LEARNING",1,48,3,2583,,,1,1,0.505725966665826,-0.681760324249609,-1.0793612317983,"cue1.png","Hard",7.01082110069785e-05,-0.276182350606183,,,-0.000738156910621582,-0.357417399988656,-0.00042743375148223,-0.369347068912318,2.485,1.75266499465344,2.252,0.936800784588092,"","","","",,,,,,,,,,,,,,"","",,,,,,,,,,"","","","","",,,,"",,,,,1.14285714285714,0.5,0.4,1,2.88888888888889,3.5,3.44444444444444,3.44444444444444,0.375,3.11111111111111,2.5,2.25,3,2.25
"008.50",8,"Female",24,"B","LEARNING",1,49,1,2583,,,1,1,0.552486649999385,-0.593326008779197,-0.459084223506154,"cue2.png","Easy",-2.62914990627064e-05,-0.318655783083431,,,,,,,,,,,"","","","",,,,,,,,,,,,,,"","",,,,,,,,,,"","","","","",,,,"",,,,,1.14285714285714,0.5,0.4,1,2.88888888888889,3.5,3.44444444444444,3.44444444444444,0.375,3.11111111111111,2.5,2.25,3,2.25
"008.51",8,"Female",24,"B","LEARNING",1,50,1,2583,,,1,1,0.556520733333552,-0.586050852296486,-0.408056381271506,"cue2.png","Easy",,,-0.00151690613813638,-0.934063705653906,-0.000891458160921356,-0.465578401289778,0.00646489734315709,2.90960497868225,1.253,-0.493313030531747,1.492,-0.39618845634714,"","","","",,,,,,,,,,,,,,"","",,,,,,,,,,"","","","","",,,,"",,,,,1.14285714285714,0.5,0.4,1,2.88888888888889,3.5,3.44444444444444,3.44444444444444,0.375,3.11111111111111,2.5,2.25,3,2.25
"008.52",8,"Female",24,"B","TrueCHOICE",9,1,3,2583,,,0.6875,0.75,1.21688561666694,0.196294821639962,2.38393511099459,"","",,,,,,,,,,,,,"True","Right","Hard","Hard",0.016624200005026,0.000898530679896508,0.829461186675786,-2.73661539324042e-05,-0.138361745060581,1.727,0.0533777503090983,,,,,,,"","",,,,,,,,,,"","","","","",,,,"",,,,,1.14285714285714,0.5,0.4,1,2.88888888888889,3.5,3.44444444444444,3.44444444444444,0.375,3.11111111111111,2.5,2.25,3,2.25
"008.53",8,"Female",24,"B","TrueCHOICE",9,2,3,2583,,,,,,,,"","",,,,,,,,,,,,,"True","Right","Hard","Hard",0.0161028000002261,0.0018833754565026,2.34764417926239,-0.000191150318670088,-0.660044222636164,1.573,-0.527846641945516,,,,,,,"","",,,,,,,,,,"","","","","",,,,"",,,,,1.14285714285714,0.5,0.4,1,2.88888888888889,3.5,3.44444444444444,3.44444444444444,0.375,3.11111111111111,2.5,2.25,3,2.25
"008.54",8,"Female",24,"B","TrueCHOICE",9,3,3,2583,,,1,1,0.488512966666652,-0.716389264009919,-0.380963771006753,"","",,,,,,,,,,,,,"True","Left","Hard","Hard",0.0154362000030232,0.000181359752768863,-0.276090398920172,,,,,,,,,,,"","",,,,,,,,,,"","","","","",,,,"",,,,,1.14285714285714,0.5,0.4,1,2.88888888888889,3.5,3.44444444444444,3.44444444444444,0.375,3.11111111111111,2.5,2.25,3,2.25
"008.55",8,"Female",24,"B","TrueCHOICE",9,4,3,2583,,,1,1,0.659059633332314,-0.41694125793282,0.526188517761996,"","",,,,,,,,,,,,,"True","Right","Hard","Hard",0.0166398000001208,,,0.000252789471376646,0.753985088053835,1.471,-0.912813447205065,,,,,,,"","",,,,,,,,,,"","","","","",,,,"",,,,,1.14285714285714,0.5,0.4,1,2.88888888888889,3.5,3.44444444444444,3.44444444444444,0.375,3.11111111111111,2.5,2.25,3,2.25
"008.56",8,"Female",24,"B","TrueCHOICE",9,5,3,2583,,,0.6875,0.75,0.545961699999073,-0.605206452219458,-0.0441448904646214,"","",,,,,,,,,,,,,"True","Left","Hard","Hard",0.0154607999938889,-1.89620741195776e-05,-0.584895601374478,,,1.466,-0.931684369031512,,,,,,,"","",,,,,,,,,,"","","","","",,,,"",,,,,1.14285714285714,0.5,0.4,1,2.88888888888889,3.5,3.44444444444444,3.44444444444444,0.375,3.11111111111111,2.5,2.25,3,2.25
"008.57",8,"Female",24,"B","TrueCHOICE",9,6,3,2583,,,1,1,0.395896499999556,-0.926602465526569,-1.01778680210129,"","",,,,,,,,,,,,,"True","Left","Hard","Hard",0.0158441000021412,9.40399230488624e-05,-0.410697885851574,,,1.876,0.615731220737263,,,,,,,"","",,,,,,,,,,"","","","","",,,,"",,,,,1.14285714285714,0.5,0.4,1,2.88888888888889,3.5,3.44444444444444,3.44444444444444,0.375,3.11111111111111,2.5,2.25,3,2.25
"008.58",8,"Female",24,"B","TrueCHOICE",9,7,3,2583,,,,,,,,"","",,,,,,,,,,,,,"True","Right","Hard","Hard",0.0166228000016417,-8.21874460747323e-05,-0.682360386366347,0.000495744015494286,1.52783968331664,1.604,-0.410846926621534,,,,,,,"","",,,,,,,,,,"","","","","",,,,"",,,,,1.14285714285714,0.5,0.4,1,2.88888888888889,3.5,3.44444444444444,3.44444444444444,0.375,3.11111111111111,2.5,2.25,3,2.25
"008.59",8,"Female",24,"B","TrueCHOICE",9,8,3,2583,,,0.6875,0.75,0.471638616668012,-0.751542229303129,-0.48745669223373,"","",,,,,,,,,,,,,"True","Left","Hard","Hard",0.0174470000056317,,,5.88956194543626e-05,0.136397757682226,,,,,,,,,"","",,,,,,,,,,"","","","","",,,,"",,,,,1.14285714285714,0.5,0.4,1,2.88888888888889,3.5,3.44444444444444,3.44444444444444,0.375,3.11111111111111,2.5,2.25,3,2.25
"008.60",8,"Female",24,"B","TrueCHOICE",9,9,3,2583,,,1,1,0.514175433333245,-0.665190761773117,-0.225862259081211,"","",,,,,,,,,,,,,"True","Right","Hard","Hard",0.0153907999992952,-3.52665596200629e-05,-0.610029706948977,-0.000492474433610827,-1.61981656135596,2.273,2.11408241375727,,,,,,,"","",,,,,,,,,,"","","","","",,,,"",,,,,1.14285714285714,0.5,0.4,1,2.88888888888889,3.5,3.44444444444444,3.44444444444444,0.375,3.11111111111111,2.5,2.25,3,2.25
"008.61",8,"Female",24,"B","TrueCHOICE",9,10,3,2583,,,1,1,0.43192758333195,-0.839497335965743,-0.753909213868977,"","",,,,,,,,,,,,,"True","Left","Hard","Hard",0.0161360999991302,-3.72137480804061e-05,-0.61303138647663,,,,,,,,,,,"","",,,,,,,,,,"","","","","",,,,"",,,,,1.14285714285714,0.5,0.4,1,2.88888888888889,3.5,3.44444444444444,3.44444444444444,0.375,3.11111111111111,2.5,2.25,3,2.25
"008.62",8,"Female",24,"B","FalseCHOICE",9,1,2,2583,,,1,1,0.573481316664887,-0.556029920685511,0.57501651552051,"","",,,,,,,,,,,,,"False","Right","Hard","Mid",0.0164647999990847,,,,,,,0.00100051444378015,0.439664351124288,-0.00308609617405111,-0.994333163822034,,,"","",,,,,,,,,,"","","","","",,,,"",,,,,1.14285714285714,0.5,0.4,1,2.88888888888889,3.5,3.44444444444444,3.44444444444444,0.375,3.11111111111111,2.5,2.25,3,2.25
"008.63",8,"Female",24,"B","FalseCHOICE",9,2,2,2583,,,,,,,,"","",,,,,,,,,,,,,"False","Left","Hard","Mid",0.0160709999981918,,,,,,,0.00141874587110959,0.770108385644551,-0.00118075299874291,-0.22076510051154,1.461,-0.137537219299397,"","",,,,,,,,,,"","","","","",,,,"",,,,,1.14285714285714,0.5,0.4,1,2.88888888888889,3.5,3.44444444444444,3.44444444444444,0.375,3.11111111111111,2.5,2.25,3,2.25
"008.64",8,"Female",24,"B","FalseCHOICE",9,3,2,2583,,,,,,,,"","",,,,,,,,,,,,,"False","Left","Hard","Mid",0.0161112999994657,,,,,,,0.000280353564457168,-0.129333698560047,0.000346595262832552,0.399337278954281,1.466,-0.127687548646445,"","",,,,,,,,,,"","","","","",,,,"",,,,,1.14285714285714,0.5,0.4,1,2.88888888888889,3.5,3.44444444444444,3.44444444444444,0.375,3.11111111111111,2.5,2.25,3,2.25
"008.65",8,"Female",24,"B","FalseCHOICE",9,4,2,2583,,,1,1,0.682241350000064,-0.382371798110833,1.86251724566766,"","",,,,,,,,,,,,,"False","Left","Hard","Mid",0.0161946000007446,,,,,,,-0.000232821478816208,-0.534792544149837,0.000287381164262119,0.375296394275122,1.104,-0.840803703920139,"","",,,,,,,,,,"","","","","",,,,"",,,,,1.14285714285714,0.5,0.4,1,2.88888888888889,3.5,3.44444444444444,3.44444444444444,0.375,3.11111111111111,2.5,2.25,3,2.25
"008.66",8,"Female",24,"B","FalseCHOICE",9,5,2,2583,,,,,,,,"","",,,,,,,,,,,,,"False","Right","Hard","Mid",0.0161671999958343,,,,,,,0.00111395373841296,0.529292570674774,0.000178202658887958,0.330969993628812,1.57,0.0771856009349478,"","",,,,,,,,,,"","","","","",,,,"",,,,,1.14285714285714,0.5,0.4,1,2.88888888888889,3.5,3.44444444444444,3.44444444444444,0.375,3.11111111111111,2.5,2.25,3,2.25
"008.67",8,"Female",24,"B","FalseCHOICE",9,6,2,2583,,,0.125,0.5,0.586870133333529,-0.532951721563422,0.746118205321363,"","",,,,,,,,,,,,,"False","Left","Hard","Mid",0.0162263000020175,,,,,,,0.000168302972260494,-0.217864706361831,-0.000314616854043065,0.130885598796367,1.587,0.110674481154983,"","",,,,,,,,,,"","","","","",,,,"",,,,,1.14285714285714,0.5,0.4,1,2.88888888888889,3.5,3.44444444444444,3.44444444444444,0.375,3.11111111111111,2.5,2.25,3,2.25
"008.68",8,"Female",24,"B","FalseCHOICE",9,7,2,2583,,,1,1,0.37383069999972,-0.98395225785286,-2.59759823684911,"","",,,,,,,,,,,,,"False","Left","Hard","Mid",0.0160356999986106,,,,,,,-0.00137661989141436,-1.43850598469692,-0.00083267731289587,-0.0794466033108394,,,"","",,,,,,,,,,"","","","","",,,,"",,,,,1.14285714285714,0.5,0.4,1,2.88888888888889,3.5,3.44444444444444,3.44444444444444,0.375,3.11111111111111,2.5,2.25,3,2.25
"008.69",8,"Female",24,"B","FalseCHOICE",9,8,2,2583,,,,,,,,"","",,,,,,,,,,,,,"False","Right","Hard","Mid",0.0165338000006158,,,,,,,-0.000371182809284668,-0.644111627494511,-0.000363982534831934,0.110843165193469,,,"","",,,,,,,,,,"","","","","",,,,"",,,,,1.14285714285714,0.5,0.4,1,2.88888888888889,3.5,3.44444444444444,3.44444444444444,0.375,3.11111111111111,2.5,2.25,3,2.25
"008.70",8,"Female",24,"B","FalseCHOICE",9,9,2,2583,,,0.6875,0.75,0.545331783333192,-0.606360892790142,0.20186285951538,"","",,,,,,,,,,,,,"False","Right","Hard","Mid",0.0168188000025111,,,,,,,0.001263758004169,0.647652700330404,-0.000146218610096748,0.199255173958788,,,"","",,,,,,,,,,"","","","","",,,,"",,,,,1.14285714285714,0.5,0.4,1,2.88888888888889,3.5,3.44444444444444,3.44444444444444,0.375,3.11111111111111,2.5,2.25,3,2.25
"008.71",8,"Female",24,"B","FalseCHOICE",9,10,2,2583,,,,,,,,"","",,,,,,,,,,,,,"False","Left","Hard","Mid",0.0160424999994575,,,,,,,0.000383107405821926,-0.0481480398929381,-0.00102484293351559,-0.157465717612184,1.322,-0.411358063451451,"","",,,,,,,,,,"","","","","",,,,"",,,,,1.14285714285714,0.5,0.4,1,2.88888888888889,3.5,3.44444444444444,3.44444444444444,0.375,3.11111111111111,2.5,2.25,3,2.25
"008.72",8,"Female",24,"B","FalseCHOICE",9,11,2,2583,,,0.6875,0.75,0.466558799998893,-0.76237122162404,-0.954797187858812,"","",,,,,,,,,,,,,"False","Right","Hard","Mid",0.015209600001981,,,,,,,,,-0.000469242114927429,0.0681078456066559,1.234,-0.584712266943398,"","",,,,,,,,,,"","","","","",,,,"",,,,,1.14285714285714,0.5,0.4,1,2.88888888888889,3.5,3.44444444444444,3.44444444444444,0.375,3.11111111111111,2.5,2.25,3,2.25
"008.73",8,"Female",24,"B","FalseCHOICE",9,12,2,2583,,,,,,,,"","",,,,,,,,,,,,,"False","Left","Hard","Mid",0.0165729999935138,,,,,,,0.000291393569315528,-0.120611006987551,0.000406612163208049,0.423704100632933,,,"","",,,,,,,,,,"","","","","",,,,"",,,,,1.14285714285714,0.5,0.4,1,2.88888888888889,3.5,3.44444444444444,3.44444444444444,0.375,3.11111111111111,2.5,2.25,3,2.25
"008.74",8,"Female",24,"B","FalseCHOICE",9,13,2,2583,,,0.6875,0.75,0.489136266665203,-0.715114164389827,-0.604433526248398,"","",,,,,,,,,,,,,"False","Right","Hard","Mid",0.0165347000001929,,,,,,,,,0.00116016836574998,0.729647418220159,0.695,-1.64650676333158,"","",,,,,,,,,,"","","","","",,,,"",,,,,1.14285714285714,0.5,0.4,1,2.88888888888889,3.5,3.44444444444444,3.44444444444444,0.375,3.11111111111111,2.5,2.25,3,2.25
"008.75",8,"Female",24,"B","FalseCHOICE",9,14,2,2583,,,1,1,0.534114216667755,-0.627145574001983,0.0477653037007189,"","",,,,,,,,,,,,,"False","Left","Hard","Mid",0.0160255000009783,,,,,,,-0.000410115717095141,-0.6748724605927,-0.00064930804601929,-0.0049988027851226,,,"","",,,,,,,,,,"","","","","",,,,"",,,,,1.14285714285714,0.5,0.4,1,2.88888888888889,3.5,3.44444444444444,3.44444444444444,0.375,3.11111111111111,2.5,2.25,3,2.25
"008.76",8,"Female",24,"B","FalseCHOICE",9,15,2,2583,,,,,,,,"","",,,,,,,,,,,,,"False","Right","Hard","Mid",0.0180508000048575,,,,,,,-0.00031353655137634,-0.598565404055834,8.75796398425071e-05,0.294177108104135,,,"","",,,,,,,,,,"","","","","",,,,"",,,,,1.14285714285714,0.5,0.4,1,2.88888888888889,3.5,3.44444444444444,3.44444444444444,0.375,3.11111111111111,2.5,2.25,3,2.25
"008.77",8,"Female",24,"B","FalseCHOICE",9,16,2,2583,,,0.6875,0.75,0.496175583333146,-0.700825416244415,-0.498496796095186,"","",,,,,,,,,,,,,"False","Right","Hard","Mid",0.0141619999994873,,,,,,,,,0.000315341472443823,0.386648260820731,,,"","",,,,,,,,,,"","","","","",,,,"",,,,,1.14285714285714,0.5,0.4,1,2.88888888888889,3.5,3.44444444444444,3.44444444444444,0.375,3.11111111111111,2.5,2.25,3,2.25
"008.78",8,"Female",24,"B","FalseCHOICE",9,17,2,2583,,,1,1,0.477269933333446,-0.739673050179991,-0.786513021970453,"","",,,,,,,,,,,,,"False","Left","Hard","Mid",0.0129952999996021,,,,,,,-5.16202571572751e-05,-0.391625725894897,0.00323863761584307,1.57350455287248,,,"","",,,,,,,,,,"","","","","",,,,"",,,,,1.14285714285714,0.5,0.4,1,2.88888888888889,3.5,3.44444444444444,3.44444444444444,0.375,3.11111111111111,2.5,2.25,3,2.25
"008.79",8,"Female",24,"B","FalseCHOICE",9,18,2,2583,,,1,1,0.486091866669691,-0.721357646875496,-0.650722684162694,"","",,,,,,,,,,,,,"False","Left","Hard","Mid",0.016689199997927,,,,,,,-0.00195804450045961,-1.8978887116457,,,,,"","",,,,,,,,,,"","","","","",,,,"",,,,,1.14285714285714,0.5,0.4,1,2.88888888888889,3.5,3.44444444444444,3.44444444444444,0.375,3.11111111111111,2.5,2.25,3,2.25
"008.80",8,"Female",24,"B","FalseCHOICE",9,19,2,2583,,,0.6875,0.75,0.551584066666692,-0.594961019146085,0.286381483940773,"","",,,,,,,,,,,,,"False","Right","Hard","Mid",0.016471700000693,,,,,,,0.00141874857851969,0.770110524765283,0.00233440475492823,1.20638661209183,,,"","",,,,,,,,,,"","","","","",,,,"",,,,,1.14285714285714,0.5,0.4,1,2.88888888888889,3.5,3.44444444444444,3.44444444444444,0.375,3.11111111111111,2.5,2.25,3,2.25
"008.81",8,"Female",24,"B","FalseCHOICE",9,20,2,2583,,,1,1,0.540569299998121,-0.615132435509046,0.13683067162996,"","",,,,,,,,,,,,,"False","Right","Hard","Mid",0.0161547000025166,,,,,,,-0.00124726069177091,-1.33629947165355,-0.000895042079355124,-0.10476665705963,2.282,1.47977870191525,"","",,,,,,,,,,"","","","","",,,,"",,,,,1.14285714285714,0.5,0.4,1,2.88888888888889,3.5,3.44444444444444,3.44444444444444,0.375,3.11111111111111,2.5,2.25,3,2.25
"008.82",8,"Female",24,"B","FalseCHOICE",9,21,2,2583,,,1,1,0.432320683333576,-0.838587643591695,-1.51986548111046,"","",,,,,,,,,,,,,"False","Right","Hard","Mid",0.0171087000053375,,,,,,,-0.00111179305928331,-1.22926669482004,0.000343331037634173,0.398012005692413,1.378,-0.301041752138393,"","",,,,,,,,,,"","","","","",,,,"",,,,,1.14285714285714,0.5,0.4,1,2.88888888888889,3.5,3.44444444444444,3.44444444444444,0.375,3.11111111111111,2.5,2.25,3,2.25
"008.83",8,"Female",24,"B","FalseCHOICE",9,22,2,2583,,,1,1,0.562935166666042,-0.574590814372194,0.437406112854135,"","",,,,,,,,,,,,,"False","Left","Hard","Mid",0.0163363000028766,,,,,,,0.000115720564751115,-0.25940998906126,,,,,"","",,,,,,,,,,"","","","","",,,,"",,,,,1.14285714285714,0.5,0.4,1,2.88888888888889,3.5,3.44444444444444,3.44444444444444,0.375,3.11111111111111,2.5,2.25,3,2.25
"008.84",8,"Female",24,"B","FalseCHOICE",9,23,2,2583,,,1,1,0.606787566665541,-0.499576521721736,0.993561823436597,"","",,,,,,,,,,,,,"False","Right","Hard","Mid",0.0156037999986438,,,,,,,0.000212442679580153,-0.182989988643015,0.000227901956769924,0.35114787554986,1.552,0.0417267865843221,"","",,,,,,,,,,"","","","","",,,,"",,,,,1.14285714285714,0.5,0.4,1,2.88888888888889,3.5,3.44444444444444,3.44444444444444,0.375,3.11111111111111,2.5,2.25,3,2.25
"008.85",8,"Female",24,"B","FalseCHOICE",9,24,2,2583,,,1,1,0.556026533332139,-0.58693926404981,0.345854748942092,"","",,,,,,,,,,,,,"False","Left","Hard","Mid",0.0166489000039291,,,,,,,,,-0.000825532465613493,-0.0765458000610605,1.184,-0.683208973472914,"","",,,,,,,,,,"","","","","",,,,"",,,,,1.14285714285714,0.5,0.4,1,2.88888888888889,3.5,3.44444444444444,3.44444444444444,0.375,3.11111111111111,2.5,2.25,3,2.25
"008.86",8,"Female",24,"B","FalseCHOICE",9,25,2,2583,,,1,1,0.474906283331317,-0.744637792663215,-0.823321605855692,"","",,,,,,,,,,,,,"False","Left","Hard","Mid",0.0159911000009742,,,,,,,,,-0.000656211697372604,-0.00780168064794655,1.464,-0.131627416907626,"","",,,,,,,,,,"","","","","",,,,"",,,,,1.14285714285714,0.5,0.4,1,2.88888888888889,3.5,3.44444444444444,3.44444444444444,0.375,3.11111111111111,2.5,2.25,3,2.25
"008.87",8,"Female",24,"B","FalseCHOICE",9,26,2,2583,,,1,1,0.549259800001892,-0.599183725360632,0.255074354427794,"","",,,,,,,,,,,,,"False","Right","Hard","Mid",0.0167322000052081,,,,,,,-0.000702792539008224,-0.906115986362816,,,1.974,0.873038989693435,"","",,,,,,,,,,"","","","","",,,,"",,,,,1.14285714285714,0.5,0.4,1,2.88888888888889,3.5,3.44444444444444,3.44444444444444,0.375,3.11111111111111,2.5,2.25,3,2.25
"008.88",8,"Female",24,"B","FalseCHOICE",9,27,2,2583,,,0.6875,0.75,0.753505866666577,-0.283018475057938,2.5991224448753,"","",,,,,,,,,,,,,"False","Right","Hard","Mid",0.0165926999980001,,,,,,,0.00251883415881905,1.63928652091859,-0.0016462122943797,-0.409741265300005,1.028,-0.990518697845003,"","",,,,,,,,,,"","","","","",,,,"",,,,,1.14285714285714,0.5,0.4,1,2.88888888888889,3.5,3.44444444444444,3.44444444444444,0.375,3.11111111111111,2.5,2.25,3,2.25
"008.89",8,"Female",24,"B","FalseCHOICE",9,28,2,2583,,,1,1,0.560895450000923,-0.578220754462019,0.410493749373809,"","",,,,,,,,,,,,,"False","Left","Hard","Mid",0.0161860000007436,,,,,,,0.000292479473179775,-0.119753035944355,-0.000663006038719941,-0.0105601787209667,0.733,-1.57164926636915,"","",,,,,,,,,,"","","","","",,,,"",,,,,1.14285714285714,0.5,0.4,1,2.88888888888889,3.5,3.44444444444444,3.44444444444444,0.375,3.11111111111111,2.5,2.25,3,2.25
"008.90",8,"Female",24,"B","FalseCHOICE",9,29,2,2583,,,0.6875,0.75,0.535123583330763,-0.625257561881871,0.0617630191379872,"","",,,,,,,,,,,,,"False","Right","Hard","Mid",0.0163730999993276,,,,,,,-0.000177135130881566,-0.490794842693682,0.000375324487161831,0.411001324944956,2.023,0.96956576209236,"","",,,,,,,,,,"","","","","",,,,"",,,,,1.14285714285714,0.5,0.4,1,2.88888888888889,3.5,3.44444444444444,3.44444444444444,0.375,3.11111111111111,2.5,2.25,3,2.25
"008.91",8,"Female",24,"B","FalseCHOICE",9,30,2,2583,,,1,1,0.52710249999897,-0.640360252201148,-0.0502082755239913,"","",,,,,,,,,,,,,"False","Right","Hard","Mid",0.0166313000008813,,,,,,,0.00123983165141221,0.628748524269811,-0.000238546012930798,0.161770309748291,1.292,-0.47045608736916,"","",,,,,,,,,,"","","","","",,,,"",,,,,1.14285714285714,0.5,0.4,1,2.88888888888889,3.5,3.44444444444444,3.44444444444444,0.375,3.11111111111111,2.5,2.25,3,2.25
"008.92",8,"Female",24,"B","FalseCHOICE",9,31,2,2583,,,1,1,0.53482064999965,-0.625823821935005,0.0575647690299374,"","",,,,,,,,,,,,,"False","Left","Hard","Mid",0.0146643000043695,,,,,,,,,,,,,"","",,,,,,,,,,"","","","","",,,,"",,,,,1.14285714285714,0.5,0.4,1,2.88888888888889,3.5,3.44444444444444,3.44444444444444,0.375,3.11111111111111,2.5,2.25,3,2.25
"008.93",8,"Female",24,"B","FalseCHOICE",9,32,2,2583,,,1,1,0.575424016665541,-0.552648089657636,0.600089399259364,"","",,,,,,,,,,,,,"False","Right","Hard","Mid",0.0166418000007979,,,,,,,0.00323089942905982,2.20188824179495,-0.00870698650915014,-3.27641090548654,1.527,-0.00752156668043556,"","",,,,,,,,,,"","","","","",,,,"",,,,,1.14285714285714,0.5,0.4,1,2.88888888888889,3.5,3.44444444444444,3.44444444444444,0.375,3.11111111111111,2.5,2.25,3,2.25
"008.94",8,"Female",24,"B","FalseCHOICE",9,33,2,2583,,,1,1,0.626688699999553,-0.467305352870581,1.23282015954291,"","",,,,,,,,,,,,,"False","Left","Hard","Mid",0.0145910999999614,,,,,,,-0.000563343227465488,-0.795937290774362,,,0.599,-1.83562043986825,"","",,,,,,,,,,"","","","","",,,,"",,,,,1.14285714285714,0.5,0.4,1,2.88888888888889,3.5,3.44444444444444,3.44444444444444,0.375,3.11111111111111,2.5,2.25,3,2.25
"008.95",8,"Female",24,"B","FalseCHOICE",9,34,2,2583,,,1,1,0.483354783333198,-0.727004353910295,-0.692587350913909,"","",,,,,,,,,,,,,"False","Left","Hard","Mid",0.015229000004183,,,,,,,0.000403323087270242,-0.0321756597659514,,,1.686,0.305697960083424,"","",,,,,,,,,,"","","","","",,,,"",,,,,1.14285714285714,0.5,0.4,1,2.88888888888889,3.5,3.44444444444444,3.44444444444444,0.375,3.11111111111111,2.5,2.25,3,2.25
"008.96",8,"Female",24,"B","FalseCHOICE",9,35,2,2583,,,1,1,0.451241133331981,-0.795753418653897,-1.20229268310335,"","",,,,,,,,,,,,,"False","Left","Hard","Mid",0.016500999998243,,,,,,,-0.00167943559906652,-1.67776022915107,-0.00929676959179417,-3.51586244520218,1.203,-0.645780224991698,"","",,,,,,,,,,"","","","","",,,,"",,,,,1.14285714285714,0.5,0.4,1,2.88888888888889,3.5,3.44444444444444,3.44444444444444,0.375,3.11111111111111,2.5,2.25,3,2.25
"008.97",8,"Female",24,"B","FalseCHOICE",9,36,2,2583,,,0.6875,0.75,0.43283305000053,-0.837403191147897,-1.51108395472054,"","",,,,,,,,,,,,,"False","Right","Hard","Mid",0.016594000000623,,,,,,,-0.000174324923312162,-0.488574501833593,-0.0067575379609842,-2.48493609009837,2.232,1.38128199538574,"","",,,,,,,,,,"","","","","",,,,"",,,,,1.14285714285714,0.5,0.4,1,2.88888888888889,3.5,3.44444444444444,3.44444444444444,0.375,3.11111111111111,2.5,2.25,3,2.25
"008.98",8,"Female",24,"B","FalseCHOICE",9,37,2,2583,,,1,1,0.668030166666237,-0.403421946785164,1.70645151498896,"","",,,,,,,,,,,,,"False","Left","Hard","Mid",0.0125257999970926,,,,,,,,,,,1.998,0.920317408827603,"","",,,,,,,,,,"","","","","",,,,"",,,,,1.14285714285714,0.5,0.4,1,2.88888888888889,3.5,3.44444444444444,3.44444444444444,0.375,3.11111111111111,2.5,2.25,3,2.25
"008.99",8,"Female",24,"B","FalseCHOICE",9,38,2,2583,,,1,1,0.527862966665756,-0.638918561790357,-0.0395195877216642,"","",,,,,,,,,,,,,"False","Right","Hard","Mid",0.0167360999985248,,,,,,,,,0.00257686418806539,1.30482498086124,1.669,0.272209079863389,"","",,,,,,,,,,"","","","","",,,,"",,,,,1.14285714285714,0.5,0.4,1,2.88888888888889,3.5,3.44444444444444,3.44444444444444,0.375,3.11111111111111,2.5,2.25,3,2.25
"008.100",8,"Female",24,"B","FalseCHOICE",9,39,2,2583,,,1,1,0.407455000001695,-0.897824781842694,-1.95904942263437,"","",,,,,,,,,,,,,"False","Right","Hard","Mid",0.0165311000018846,,,,,,,0.00124553597956682,0.633255505540142,,,,,"","",,,,,,,,,,"","","","","",,,,"",,,,,1.14285714285714,0.5,0.4,1,2.88888888888889,3.5,3.44444444444444,3.44444444444444,0.375,3.11111111111111,2.5,2.25,3,2.25
"008.101",8,"Female",24,"B","FalseCHOICE",9,40,2,2583,,,1,1,0.51667573333422,-0.660339809502113,-0.198336645401695,"","",,,,,,,,,,,,,"False","Left","Hard","Mid",0.0160612000036053,,,,,,,0.00275103577554686,1.82274867617462,0.00074935397331052,0.562857047825039,2.324,1.56251593540005,"","",,,,,,,,,,"","","","","",,,,"",,,,,1.14285714285714,0.5,0.4,1,2.88888888888889,3.5,3.44444444444444,3.44444444444444,0.375,3.11111111111111,2.5,2.25,3,2.25
