Instruction,Stimulus,Key,RT,START,END,Phase,Block,TrialN,NbackLevel,ISI,LetterN,Letter,Letter_isSame,Letter_Resp,Letter_RT,Letter_Accuracy,Letter_Timeout,Trial_A_measure,Trial_HR,Trial_FAR,Trial_CDR,Trial_MSR,Trial_ACC,Trial_RT,Trial_HitsCount,Trial_FAsCount,Trial_SameNoRespCount,Trial_DiffNoRespCount,Trial_NoRespCount,Trial_CDsCount,Trial_CorrectRespCount,Trial_SameLetterCount,Trial_DiffLetterCount,Trial_InvalidLetterCount,TrialCountCali,CaliEnd_A_measure,ISI_calibrated,Run,TrialIndex,TrialNumber_total,TrialNumber_valid,CueLearning,TrialDemandLearning,CueMapping,OnlineRating,OnlineRatingRT,OnlineRatingTimeOut,CueSTART,RatingSTART,OfflineRatingTimePoint,OfflineRatingQuesIndex,CueFigure,TrialDemand,OfflineRating,OfflineRatingRT,CueStart,OfflineRatingStart,PhaseType,CueLeft,CueDemandLeft,CueRight,CueDemandRight,Choice,ChoiceDemand,TaskDemand,ChoiceRT,ChoiceTimeOut,ChoiceSTART,CueCheck,CueDemandCheck,CorrectAnswer,Answer,AnswerDemand,AnswerRT,AnswerACC,AnswerTimeOut,CheckSTART,DemandRatingQuesIndex,QuesTLX,DemandLevel,DemandRating,DemandRatingRT,QuesStart,PID,SONA,Age,Gender,Run,TIME,EXPERIMENTER,frameRate
-1,./instructions/inst_begin/Slide2.png,left,29.58073857,0.519130506,30.09986908,,,,,,,,,,,,,,,,,,,,,,,,,,,,,,,,,1,,,,,,,,,,,,,,,,,,,,,,,,,,,,,,,,,,,,,,,,,,,,,,41,151321,19,Female,1,2024/02/09_08:48:31,YZ,59.89850928
-2,./instructions/inst_begin/Slide4.png,left,7.69823922,30.16946267,37.86770189,,,,,,,,,,,,,,,,,,,,,,,,,,,,,,,,,1,,,,,,,,,,,,,,,,,,,,,,,,,,,,,,,,,,,,,,,,,,,,,,41,151321,19,Female,1,2024/02/09_08:48:31,YZ,59.89850928
-3,./instructions/inst_begin/Slide3.png,left,4.561116815,37.91457798,42.47569479,,,,,,,,,,,,,,,,,,,,,,,,,,,,,,,,,1,,,,,,,,,,,,,,,,,,,,,,,,,,,,,,,,,,,,,,,,,,,,,,41,151321,19,Female,1,2024/02/09_08:48:31,YZ,59.89850928
1,./instructions/inst_prac_2/Slide6.png,right,1.138977706,42.53638843,43.67536614,,,,,,,,,,,,,,,,,,,,,,,,,,,,,,,,,1,,,,,,,,,,,,,,,,,,,,,,,,,,,,,,,,,,,,,,,,,,,,,,41,151321,19,Female,1,2024/02/09_08:48:31,YZ,59.89850928
0,./instructions/inst_prac_2/Slide7.png,left,1.603218005,43.80832319,45.41154119,,,,,,,,,,,,,,,,,,,,,,,,,,,,,,,,,1,,,,,,,,,,,,,,,,,,,,,,,,,,,,,,,,,,,,,,,,,,,,,,41,151321,19,Female,1,2024/02/09_08:48:31,YZ,59.89850928
1,./instructions/inst_prac_2/Slide6.png,right,7.580863397,45.44665413,53.02751753,,,,,,,,,,,,,,,,,,,,,,,,,,,,,,,,,1,,,,,,,,,,,,,,,,,,,,,,,,,,,,,,,,,,,,,,,,,,,,,,41,151321,19,Female,1,2024/02/09_08:48:31,YZ,59.89850928
2,./instructions/inst_prac_2/Slide7.png,right,4.142514852,53.06081467,57.20332952,,,,,,,,,,,,,,,,,,,,,,,,,,,,,,,,,1,,,,,,,,,,,,,,,,,,,,,,,,,,,,,,,,,,,,,,,,,,,,,,41,151321,19,Female,1,2024/02/09_08:48:31,YZ,59.89850928
3,./instructions/inst_prac_2/Slide8.png,right,4.308496275,57.24712532,61.5556216,,,,,,,,,,,,,,,,,,,,,,,,,,,,,,,,,1,,,,,,,,,,,,,,,,,,,,,,,,,,,,,,,,,,,,,,,,,,,,,,41,151321,19,Female,1,2024/02/09_08:48:31,YZ,59.89850928
4,./instructions/inst_prac_2/Slide9.png,right,3.516798683,61.60665787,65.12345656,,,,,,,,,,,,,,,,,,,,,,,,,,,,,,,,,1,,,,,,,,,,,,,,,,,,,,,,,,,,,,,,,,,,,,,,,,,,,,,,41,151321,19,Female,1,2024/02/09_08:48:31,YZ,59.89850928
5,./instructions/inst_prac_2/Slide10.png,right,1.239897632,65.17971226,66.41960989,,,,,,,,,,,,,,,,,,,,,,,,,,,,,,,,,1,,,,,,,,,,,,,,,,,,,,,,,,,,,,,,,,,,,,,,,,,,,,,,41,151321,19,Female,1,2024/02/09_08:48:31,YZ,59.89850928
6,./instructions/inst_prac_2/Slide11.png,right,0.677976378,66.46161414,67.13959051,,,,,,,,,,,,,,,,,,,,,,,,,,,,,,,,,1,,,,,,,,,,,,,,,,,,,,,,,,,,,,,,,,,,,,,,,,,,,,,,41,151321,19,Female,1,2024/02/09_08:48:31,YZ,59.89850928
7,./instructions/inst_prac_2/Slide12.png,right,0.551713574,67.23579925,67.78751282,,,,,,,,,,,,,,,,,,,,,,,,,,,,,,,,,1,,,,,,,,,,,,,,,,,,,,,,,,,,,,,,,,,,,,,,,,,,,,,,41,151321,19,Female,1,2024/02/09_08:48:31,YZ,59.89850928
8,./instructions/inst_prac_2/Slide13.png,right,0.926117504,67.86927963,68.79539713,,,,,,,,,,,,,,,,,,,,,,,,,,,,,,,,,1,,,,,,,,,,,,,,,,,,,,,,,,,,,,,,,,,,,,,,,,,,,,,,41,151321,19,Female,1,2024/02/09_08:48:31,YZ,59.89850928
9,./instructions/inst_prac_2/Slide14.png,right,4.422029779,68.86940422,73.29143399,,,,,,,,,,,,,,,,,,,,,,,,,,,,,,,,,1,,,,,,,,,,,,,,,,,,,,,,,,,,,,,,,,,,,,,,,,,,,,,,41,151321,19,Female,1,2024/02/09_08:48:31,YZ,59.89850928
8,./instructions/inst_prac_2/Slide15.png,left,21.77539635,73.34836811,95.12376446,,,,,,,,,,,,,,,,,,,,,,,,,,,,,,,,,1,,,,,,,,,,,,,,,,,,,,,,,,,,,,,,,,,,,,,,,,,,,,,,41,151321,19,Female,1,2024/02/09_08:48:31,YZ,59.89850928
9,./instructions/inst_prac_2/Slide14.png,right,0.390895731,95.15702432,95.54792005,,,,,,,,,,,,,,,,,,,,,,,,,,,,,,,,,1,,,,,,,,,,,,,,,,,,,,,,,,,,,,,,,,,,,,,,,,,,,,,,41,151321,19,Female,1,2024/02/09_08:48:31,YZ,59.89850928
10,./instructions/inst_prac_2/Slide15.png,right,0.836637646,95.58290389,96.41954154,,,,,,,,,,,,,,,,,,,,,,,,,,,,,,,,,1,,,,,,,,,,,,,,,,,,,,,,,,,,,,,,,,,,,,,,,,,,,,,,41,151321,19,Female,1,2024/02/09_08:48:31,YZ,59.89850928
,,,,,,practice,0,21,2,2583,1,S,0,right,2.084499106,1,0,,,,,,,,,,,,,,,,,,,,,1,,,,,,,,,,,,,,,,,,,,,,,,,,,,,,,,,,,,,,,,,,,,,,41,151321,19,Female,1,2024/02/09_08:48:31,YZ,59.89850928
,,,,,,practice,0,21,2,2583,2,V,0,right,1.102417457,1,0,,,,,,,,,,,,,,,,,,,,,1,,,,,,,,,,,,,,,,,,,,,,,,,,,,,,,,,,,,,,,,,,,,,,41,151321,19,Female,1,2024/02/09_08:48:31,YZ,59.89850928
,,,,,,practice,0,21,2,2583,3,N,0,right,2.797571076,1,0,,,,,,,,,,,,,,,,,,,,,1,,,,,,,,,,,,,,,,,,,,,,,,,,,,,,,,,,,,,,,,,,,,,,41,151321,19,Female,1,2024/02/09_08:48:31,YZ,59.89850928
,,,,,,practice,0,21,2,2583,4,V,1,left,0.807397898,1,0,,,,,,,,,,,,,,,,,,,,,1,,,,,,,,,,,,,,,,,,,,,,,,,,,,,,,,,,,,,,,,,,,,,,41,151321,19,Female,1,2024/02/09_08:48:31,YZ,59.89850928
,,,,,,practice,0,21,2,2583,5,N,1,left,0.86604344,1,0,,,,,,,,,,,,,,,,,,,,,1,,,,,,,,,,,,,,,,,,,,,,,,,,,,,,,,,,,,,,,,,,,,,,41,151321,19,Female,1,2024/02/09_08:48:31,YZ,59.89850928
,,,,,,practice,0,21,2,2583,6,S,0,right,0.925374266,1,0,,,,,,,,,,,,,,,,,,,,,1,,,,,,,,,,,,,,,,,,,,,,,,,,,,,,,,,,,,,,,,,,,,,,41,151321,19,Female,1,2024/02/09_08:48:31,YZ,59.89850928
,,,,,,practice,0,21,2,2583,,,,,,,,1,1,0,1,0,1,1.430550541,2,0,0,0,0,4,6,2,4,0,,,,1,,,,,,,,,,,,,,,,,,,,,,,,,,,,,,,,,,,,,,,,,,,,,,41,151321,19,Female,1,2024/02/09_08:48:31,YZ,59.89850928
1,./instructions/inst_to_cali/Slide20.png,right,3.8042945,111.463073,115.2673675,,,,,,,,,,,,,,,,,,,,,,,,,,,,,,,,,1,,,,,,,,,,,,,,,,,,,,,,,,,,,,,,,,,,,,,,,,,,,,,,41,151321,19,Female,1,2024/02/09_08:48:31,YZ,59.89850928
1,./instructions/inst_cali/Slide22.png,right,4.634747028,115.3212813,119.9560283,,,,,,,,,,,,,,,,,,,,,,,,,,,,,,,,,1,,,,,,,,,,,,,,,,,,,,,,,,,,,,,,,,,,,,,,,,,,,,,,41,151321,19,Female,1,2024/02/09_08:48:31,YZ,59.89850928
,,,,,,calibration,0,6,2,583,1,J,0,right,1.161870921,1,0,,,,,,,,,,,,,,,,,,,,,1,,,,,,,,,,,,,,,,,,,,,,,,,,,,,,,,,,,,,,,,,,,,,,41,151321,19,Female,1,2024/02/09_08:48:31,YZ,59.89850928
,,,,,,calibration,0,6,2,583,2,S,0,right,nan,0,1,,,,,,,,,,,,,,,,,,,,,1,,,,,,,,,,,,,,,,,,,,,,,,,,,,,,,,,,,,,,,,,,,,,,41,151321,19,Female,1,2024/02/09_08:48:31,YZ,59.89850928
,,,,,,calibration,0,6,2,583,3,C,0,right,nan,0,1,,,,,,,,,,,,,,,,,,,,,1,,,,,,,,,,,,,,,,,,,,,,,,,,,,,,,,,,,,,,,,,,,,,,41,151321,19,Female,1,2024/02/09_08:48:31,YZ,59.89850928
,,,,,,calibration,0,6,2,583,4,J,0,right,0.96188104,1,0,,,,,,,,,,,,,,,,,,,,,1,,,,,,,,,,,,,,,,,,,,,,,,,,,,,,,,,,,,,,,,,,,,,,41,151321,19,Female,1,2024/02/09_08:48:31,YZ,59.89850928
,,,,,,calibration,0,6,2,583,5,N,0,right,1.325280415,1,0,,,,,,,,,,,,,,,,,,,,,1,,,,,,,,,,,,,,,,,,,,,,,,,,,,,,,,,,,,,,,,,,,,,,41,151321,19,Female,1,2024/02/09_08:48:31,YZ,59.89850928
,,,,,,calibration,0,6,2,583,6,J,1,left,0.877022043,1,0,,,,,,,,,,,,,,,,,,,,,1,,,,,,,,,,,,,,,,,,,,,,,,,,,,,,,,,,,,,,,,,,,,,,41,151321,19,Female,1,2024/02/09_08:48:31,YZ,59.89850928
,,,,,,calibration,0,6,2,583,7,N,1,right,1.379927992,0,0,,,,,,,,,,,,,,,,,,,,,1,,,,,,,,,,,,,,,,,,,,,,,,,,,,,,,,,,,,,,,,,,,,,,41,151321,19,Female,1,2024/02/09_08:48:31,YZ,59.89850928
,,,,,,calibration,0,6,2,583,8,V,0,right,1.056625535,1,0,,,,,,,,,,,,,,,,,,,,,1,,,,,,,,,,,,,,,,,,,,,,,,,,,,,,,,,,,,,,,,,,,,,,41,151321,19,Female,1,2024/02/09_08:48:31,YZ,59.89850928
,,,,,,calibration,0,6,2,583,9,N,1,left,0.81032643,1,0,,,,,,,,,,,,,,,,,,,,,1,,,,,,,,,,,,,,,,,,,,,,,,,,,,,,,,,,,,,,,,,,,,,,41,151321,19,Female,1,2024/02/09_08:48:31,YZ,59.89850928
,,,,,,calibration,0,6,2,583,10,F,0,right,0.992314009,1,0,,,,,,,,,,,,,,,,,,,,,1,,,,,,,,,,,,,,,,,,,,,,,,,,,,,,,,,,,,,,,,,,,,,,41,151321,19,Female,1,2024/02/09_08:48:31,YZ,59.89850928
,,,,,,calibration,0,6,2,583,11,X,0,right,0.694157363,1,0,,,,,,,,,,,,,,,,,,,,,1,,,,,,,,,,,,,,,,,,,,,,,,,,,,,,,,,,,,,,,,,,,,,,41,151321,19,Female,1,2024/02/09_08:48:31,YZ,59.89850928
,,,,,,calibration,0,6,2,583,12,J,0,right,1.026561085,1,0,,,,,,,,,,,,,,,,,,,,,1,,,,,,,,,,,,,,,,,,,,,,,,,,,,,,,,,,,,,,,,,,,,,,41,151321,19,Female,1,2024/02/09_08:48:31,YZ,59.89850928
,,,,,,calibration,0,6,2,583,13,X,1,left,0.626969703,1,0,,,,,,,,,,,,,,,,,,,,,1,,,,,,,,,,,,,,,,,,,,,,,,,,,,,,,,,,,,,,,,,,,,,,41,151321,19,Female,1,2024/02/09_08:48:31,YZ,59.89850928
,,,,,,calibration,0,6,2,583,14,J,1,right,0.809889363,0,0,,,,,,,,,,,,,,,,,,,,,1,,,,,,,,,,,,,,,,,,,,,,,,,,,,,,,,,,,,,,,,,,,,,,41,151321,19,Female,1,2024/02/09_08:48:31,YZ,59.89850928
,,,,,,calibration,0,6,2,583,15,Q,0,right,0.665155941,1,0,,,,,,,,,,,,,,,,,,,,,1,,,,,,,,,,,,,,,,,,,,,,,,,,,,,,,,,,,,,,,,,,,,,,41,151321,19,Female,1,2024/02/09_08:48:31,YZ,59.89850928
,,,,,,calibration,0,6,2,583,,,,,,,,0.9,0.6,0,1,0.133333333,0.866666667,0.95292168,3,0,0,2,2,8,11,5,10,0,,,,1,,,,,,,,,,,,,,,,,,,,,,,,,,,,,,,,,,,,,,,,,,,,,,41,151321,19,Female,1,2024/02/09_08:48:31,YZ,59.89850928
,,,,,,Calibration,0,,2,583,,,,,,,,,,,,,,,,,,,,,,,,,1,,,1,,,,,,,,,,,,,,,,,,,,,,,,,,,,,,,,,,,,,,,,,,,,,,41,151321,19,Female,1,2024/02/09_08:48:31,YZ,59.89850928
,,,,,,calibration,0,10,2,500,1,N,0,right,0.796649634,1,0,,,,,,,,,,,,,,,,,,,,,1,,,,,,,,,,,,,,,,,,,,,,,,,,,,,,,,,,,,,,,,,,,,,,41,151321,19,Female,1,2024/02/09_08:48:31,YZ,59.89850928
,,,,,,calibration,0,10,2,500,2,C,0,right,0.762572528,1,0,,,,,,,,,,,,,,,,,,,,,1,,,,,,,,,,,,,,,,,,,,,,,,,,,,,,,,,,,,,,,,,,,,,,41,151321,19,Female,1,2024/02/09_08:48:31,YZ,59.89850928
,,,,,,calibration,0,10,2,500,3,S,0,right,0.760043337,1,0,,,,,,,,,,,,,,,,,,,,,1,,,,,,,,,,,,,,,,,,,,,,,,,,,,,,,,,,,,,,,,,,,,,,41,151321,19,Female,1,2024/02/09_08:48:31,YZ,59.89850928
,,,,,,calibration,0,10,2,500,4,C,1,left,0.609657921,1,0,,,,,,,,,,,,,,,,,,,,,1,,,,,,,,,,,,,,,,,,,,,,,,,,,,,,,,,,,,,,,,,,,,,,41,151321,19,Female,1,2024/02/09_08:48:31,YZ,59.89850928
,,,,,,calibration,0,10,2,500,5,N,0,right,0.895157688,1,0,,,,,,,,,,,,,,,,,,,,,1,,,,,,,,,,,,,,,,,,,,,,,,,,,,,,,,,,,,,,,,,,,,,,41,151321,19,Female,1,2024/02/09_08:48:31,YZ,59.89850928
,,,,,,calibration,0,10,2,500,6,V,0,right,0.84174511,1,0,,,,,,,,,,,,,,,,,,,,,1,,,,,,,,,,,,,,,,,,,,,,,,,,,,,,,,,,,,,,,,,,,,,,41,151321,19,Female,1,2024/02/09_08:48:31,YZ,59.89850928
,,,,,,calibration,0,10,2,500,7,Q,0,right,0.726820328,1,0,,,,,,,,,,,,,,,,,,,,,1,,,,,,,,,,,,,,,,,,,,,,,,,,,,,,,,,,,,,,,,,,,,,,41,151321,19,Female,1,2024/02/09_08:48:31,YZ,59.89850928
,,,,,,calibration,0,10,2,500,8,N,0,right,nan,0,1,,,,,,,,,,,,,,,,,,,,,1,,,,,,,,,,,,,,,,,,,,,,,,,,,,,,,,,,,,,,,,,,,,,,41,151321,19,Female,1,2024/02/09_08:48:31,YZ,59.89850928
,,,,,,calibration,0,10,2,500,9,J,0,right,0.796137801,1,0,,,,,,,,,,,,,,,,,,,,,1,,,,,,,,,,,,,,,,,,,,,,,,,,,,,,,,,,,,,,,,,,,,,,41,151321,19,Female,1,2024/02/09_08:48:31,YZ,59.89850928
,,,,,,calibration,0,10,2,500,10,N,1,left,0.62316085,1,0,,,,,,,,,,,,,,,,,,,,,1,,,,,,,,,,,,,,,,,,,,,,,,,,,,,,,,,,,,,,,,,,,,,,41,151321,19,Female,1,2024/02/09_08:48:31,YZ,59.89850928
,,,,,,calibration,0,10,2,500,11,V,0,right,0.664941374,1,0,,,,,,,,,,,,,,,,,,,,,1,,,,,,,,,,,,,,,,,,,,,,,,,,,,,,,,,,,,,,,,,,,,,,41,151321,19,Female,1,2024/02/09_08:48:31,YZ,59.89850928
,,,,,,calibration,0,10,2,500,12,C,0,right,0.726547559,1,0,,,,,,,,,,,,,,,,,,,,,1,,,,,,,,,,,,,,,,,,,,,,,,,,,,,,,,,,,,,,,,,,,,,,41,151321,19,Female,1,2024/02/09_08:48:31,YZ,59.89850928
,,,,,,calibration,0,10,2,500,13,F,0,right,0.580221536,1,0,,,,,,,,,,,,,,,,,,,,,1,,,,,,,,,,,,,,,,,,,,,,,,,,,,,,,,,,,,,,,,,,,,,,41,151321,19,Female,1,2024/02/09_08:48:31,YZ,59.89850928
,,,,,,calibration,0,10,2,500,14,C,1,right,0.623782092,0,0,,,,,,,,,,,,,,,,,,,,,1,,,,,,,,,,,,,,,,,,,,,,,,,,,,,,,,,,,,,,,,,,,,,,41,151321,19,Female,1,2024/02/09_08:48:31,YZ,59.89850928
,,,,,,calibration,0,10,2,500,15,F,1,left,0.53138968,1,0,,,,,,,,,,,,,,,,,,,,,1,,,,,,,,,,,,,,,,,,,,,,,,,,,,,,,,,,,,,,,,,,,,,,41,151321,19,Female,1,2024/02/09_08:48:31,YZ,59.89850928
,,,,,,calibration,0,10,2,500,16,J,0,right,0.493821359,1,0,,,,,,,,,,,,,,,,,,,,,1,,,,,,,,,,,,,,,,,,,,,,,,,,,,,,,,,,,,,,,,,,,,,,41,151321,19,Female,1,2024/02/09_08:48:31,YZ,59.89850928
,,,,,,calibration,0,10,2,500,,,,,,,,0.9375,0.75,0,1,0.0625,0.9375,0.69550992,3,0,0,1,1,11,14,4,12,0,,,,1,,,,,,,,,,,,,,,,,,,,,,,,,,,,,,,,,,,,,,,,,,,,,,41,151321,19,Female,1,2024/02/09_08:48:31,YZ,59.89850928
,,,,,,Calibration,0,,2,500,,,,,,,,,,,,,,,,,,,,,,,,,2,,,1,,,,,,,,,,,,,,,,,,,,,,,,,,,,,,,,,,,,,,,,,,,,,,41,151321,19,Female,1,2024/02/09_08:48:31,YZ,59.89850928
,,,,,,calibration,0,16,2,426,1,S,0,right,0.557467351,1,0,,,,,,,,,,,,,,,,,,,,,1,,,,,,,,,,,,,,,,,,,,,,,,,,,,,,,,,,,,,,,,,,,,,,41,151321,19,Female,1,2024/02/09_08:48:31,YZ,59.89850928
,,,,,,calibration,0,16,2,426,2,S,0,right,0.461187578,1,0,,,,,,,,,,,,,,,,,,,,,1,,,,,,,,,,,,,,,,,,,,,,,,,,,,,,,,,,,,,,,,,,,,,,41,151321,19,Female,1,2024/02/09_08:48:31,YZ,59.89850928
,,,,,,calibration,0,16,2,426,3,S,1,left,0.624136571,1,0,,,,,,,,,,,,,,,,,,,,,1,,,,,,,,,,,,,,,,,,,,,,,,,,,,,,,,,,,,,,,,,,,,,,41,151321,19,Female,1,2024/02/09_08:48:31,YZ,59.89850928
,,,,,,calibration,0,16,2,426,4,C,0,right,0.56777747,1,0,,,,,,,,,,,,,,,,,,,,,1,,,,,,,,,,,,,,,,,,,,,,,,,,,,,,,,,,,,,,,,,,,,,,41,151321,19,Female,1,2024/02/09_08:48:31,YZ,59.89850928
,,,,,,calibration,0,16,2,426,5,N,0,right,0.513576996,1,0,,,,,,,,,,,,,,,,,,,,,1,,,,,,,,,,,,,,,,,,,,,,,,,,,,,,,,,,,,,,,,,,,,,,41,151321,19,Female,1,2024/02/09_08:48:31,YZ,59.89850928
,,,,,,calibration,0,16,2,426,6,X,0,right,0.576079974,1,0,,,,,,,,,,,,,,,,,,,,,1,,,,,,,,,,,,,,,,,,,,,,,,,,,,,,,,,,,,,,,,,,,,,,41,151321,19,Female,1,2024/02/09_08:48:31,YZ,59.89850928
,,,,,,calibration,0,16,2,426,7,C,0,left,0.444127202,0,0,,,,,,,,,,,,,,,,,,,,,1,,,,,,,,,,,,,,,,,,,,,,,,,,,,,,,,,,,,,,,,,,,,,,41,151321,19,Female,1,2024/02/09_08:48:31,YZ,59.89850928
,,,,,,calibration,0,16,2,426,8,N,0,right,0.46259931,1,0,,,,,,,,,,,,,,,,,,,,,1,,,,,,,,,,,,,,,,,,,,,,,,,,,,,,,,,,,,,,,,,,,,,,41,151321,19,Female,1,2024/02/09_08:48:31,YZ,59.89850928
,,,,,,calibration,0,16,2,426,9,V,0,right,0.646251281,1,0,,,,,,,,,,,,,,,,,,,,,1,,,,,,,,,,,,,,,,,,,,,,,,,,,,,,,,,,,,,,,,,,,,,,41,151321,19,Female,1,2024/02/09_08:48:31,YZ,59.89850928
,,,,,,calibration,0,16,2,426,10,N,1,left,0.454468924,1,0,,,,,,,,,,,,,,,,,,,,,1,,,,,,,,,,,,,,,,,,,,,,,,,,,,,,,,,,,,,,,,,,,,,,41,151321,19,Female,1,2024/02/09_08:48:31,YZ,59.89850928
,,,,,,calibration,0,16,2,426,11,S,0,right,0.437647217,1,0,,,,,,,,,,,,,,,,,,,,,1,,,,,,,,,,,,,,,,,,,,,,,,,,,,,,,,,,,,,,,,,,,,,,41,151321,19,Female,1,2024/02/09_08:48:31,YZ,59.89850928
,,,,,,calibration,0,16,2,426,12,N,1,left,0.561979386,1,0,,,,,,,,,,,,,,,,,,,,,1,,,,,,,,,,,,,,,,,,,,,,,,,,,,,,,,,,,,,,,,,,,,,,41,151321,19,Female,1,2024/02/09_08:48:31,YZ,59.89850928
,,,,,,calibration,0,16,2,426,13,F,0,right,0.376945014,1,0,,,,,,,,,,,,,,,,,,,,,1,,,,,,,,,,,,,,,,,,,,,,,,,,,,,,,,,,,,,,,,,,,,,,41,151321,19,Female,1,2024/02/09_08:48:31,YZ,59.89850928
,,,,,,calibration,0,16,2,426,14,N,1,left,0.481777329,1,0,,,,,,,,,,,,,,,,,,,,,1,,,,,,,,,,,,,,,,,,,,,,,,,,,,,,,,,,,,,,,,,,,,,,41,151321,19,Female,1,2024/02/09_08:48:31,YZ,59.89850928
,,,,,,calibration,0,16,2,426,15,S,0,right,0.476240843,1,0,,,,,,,,,,,,,,,,,,,,,1,,,,,,,,,,,,,,,,,,,,,,,,,,,,,,,,,,,,,,,,,,,,,,41,151321,19,Female,1,2024/02/09_08:48:31,YZ,59.89850928
,,,,,,calibration,0,16,2,426,16,N,1,left,0.87421864,1,0,,,,,,,,,,,,,,,,,,,,,1,,,,,,,,,,,,,,,,,,,,,,,,,,,,,,,,,,,,,,,,,,,,,,41,151321,19,Female,1,2024/02/09_08:48:31,YZ,59.89850928
,,,,,,calibration,0,16,2,426,17,F,0,right,0.476690601,1,0,,,,,,,,,,,,,,,,,,,,,1,,,,,,,,,,,,,,,,,,,,,,,,,,,,,,,,,,,,,,,,,,,,,,41,151321,19,Female,1,2024/02/09_08:48:31,YZ,59.89850928
,,,,,,calibration,0,16,2,426,,,,,,,,0.979166667,1,0.083333333,0.916666667,0,0.916666667,0.529010099,5,1,0,0,0,11,16,5,12,0,,,,1,,,,,,,,,,,,,,,,,,,,,,,,,,,,,,,,,,,,,,,,,,,,,,41,151321,19,Female,1,2024/02/09_08:48:31,YZ,59.89850928
,,,,,,Calibration,0,,2,426,,,,,,,,,,,,,,,,,,,,,,,,,3,,,1,,,,,,,,,,,,,,,,,,,,,,,,,,,,,,,,,,,,,,,,,,,,,,41,151321,19,Female,1,2024/02/09_08:48:31,YZ,59.89850928
,,,,,,calibration,0,32,2,361,1,S,0,right,0.729008933,1,0,,,,,,,,,,,,,,,,,,,,,1,,,,,,,,,,,,,,,,,,,,,,,,,,,,,,,,,,,,,,,,,,,,,,41,151321,19,Female,1,2024/02/09_08:48:31,YZ,59.89850928
,,,,,,calibration,0,32,2,361,2,C,0,right,0.451617331,1,0,,,,,,,,,,,,,,,,,,,,,1,,,,,,,,,,,,,,,,,,,,,,,,,,,,,,,,,,,,,,,,,,,,,,41,151321,19,Female,1,2024/02/09_08:48:31,YZ,59.89850928
,,,,,,calibration,0,32,2,361,3,S,1,left,0.421224123,1,0,,,,,,,,,,,,,,,,,,,,,1,,,,,,,,,,,,,,,,,,,,,,,,,,,,,,,,,,,,,,,,,,,,,,41,151321,19,Female,1,2024/02/09_08:48:31,YZ,59.89850928
,,,,,,calibration,0,32,2,361,4,Q,0,right,0.460891633,1,0,,,,,,,,,,,,,,,,,,,,,1,,,,,,,,,,,,,,,,,,,,,,,,,,,,,,,,,,,,,,,,,,,,,,41,151321,19,Female,1,2024/02/09_08:48:31,YZ,59.89850928
,,,,,,calibration,0,32,2,361,5,J,0,right,0.43951542,1,0,,,,,,,,,,,,,,,,,,,,,1,,,,,,,,,,,,,,,,,,,,,,,,,,,,,,,,,,,,,,,,,,,,,,41,151321,19,Female,1,2024/02/09_08:48:31,YZ,59.89850928
,,,,,,calibration,0,32,2,361,6,V,0,right,0.44696137,1,0,,,,,,,,,,,,,,,,,,,,,1,,,,,,,,,,,,,,,,,,,,,,,,,,,,,,,,,,,,,,,,,,,,,,41,151321,19,Female,1,2024/02/09_08:48:31,YZ,59.89850928
,,,,,,calibration,0,32,2,361,7,N,0,left,0.526902671,0,0,,,,,,,,,,,,,,,,,,,,,1,,,,,,,,,,,,,,,,,,,,,,,,,,,,,,,,,,,,,,,,,,,,,,41,151321,19,Female,1,2024/02/09_08:48:31,YZ,59.89850928
,,,,,,calibration,0,32,2,361,8,C,0,right,0.419238093,1,0,,,,,,,,,,,,,,,,,,,,,1,,,,,,,,,,,,,,,,,,,,,,,,,,,,,,,,,,,,,,,,,,,,,,41,151321,19,Female,1,2024/02/09_08:48:31,YZ,59.89850928
,,,,,,calibration,0,32,2,361,9,F,0,right,0.663126273,1,0,,,,,,,,,,,,,,,,,,,,,1,,,,,,,,,,,,,,,,,,,,,,,,,,,,,,,,,,,,,,,,,,,,,,41,151321,19,Female,1,2024/02/09_08:48:31,YZ,59.89850928
,,,,,,calibration,0,32,2,361,10,N,0,left,0.358284824,0,0,,,,,,,,,,,,,,,,,,,,,1,,,,,,,,,,,,,,,,,,,,,,,,,,,,,,,,,,,,,,,,,,,,,,41,151321,19,Female,1,2024/02/09_08:48:31,YZ,59.89850928
,,,,,,calibration,0,32,2,361,11,F,1,left,0.550794908,1,0,,,,,,,,,,,,,,,,,,,,,1,,,,,,,,,,,,,,,,,,,,,,,,,,,,,,,,,,,,,,,,,,,,,,41,151321,19,Female,1,2024/02/09_08:48:31,YZ,59.89850928
,,,,,,calibration,0,32,2,361,12,Q,0,right,0.540696758,1,0,,,,,,,,,,,,,,,,,,,,,1,,,,,,,,,,,,,,,,,,,,,,,,,,,,,,,,,,,,,,,,,,,,,,41,151321,19,Female,1,2024/02/09_08:48:31,YZ,59.89850928
,,,,,,calibration,0,32,2,361,13,J,0,right,0.5350115,1,0,,,,,,,,,,,,,,,,,,,,,1,,,,,,,,,,,,,,,,,,,,,,,,,,,,,,,,,,,,,,,,,,,,,,41,151321,19,Female,1,2024/02/09_08:48:31,YZ,59.89850928
,,,,,,calibration,0,32,2,361,14,Q,1,left,0.432780872,1,0,,,,,,,,,,,,,,,,,,,,,1,,,,,,,,,,,,,,,,,,,,,,,,,,,,,,,,,,,,,,,,,,,,,,41,151321,19,Female,1,2024/02/09_08:48:31,YZ,59.89850928
,,,,,,calibration,0,32,2,361,15,F,0,right,0.533744803,1,0,,,,,,,,,,,,,,,,,,,,,1,,,,,,,,,,,,,,,,,,,,,,,,,,,,,,,,,,,,,,,,,,,,,,41,151321,19,Female,1,2024/02/09_08:48:31,YZ,59.89850928
,,,,,,calibration,0,32,2,361,16,J,0,right,0.658062201,1,0,,,,,,,,,,,,,,,,,,,,,1,,,,,,,,,,,,,,,,,,,,,,,,,,,,,,,,,,,,,,,,,,,,,,41,151321,19,Female,1,2024/02/09_08:48:31,YZ,59.89850928
,,,,,,calibration,0,32,2,361,17,F,1,left,0.582143437,1,0,,,,,,,,,,,,,,,,,,,,,1,,,,,,,,,,,,,,,,,,,,,,,,,,,,,,,,,,,,,,,,,,,,,,41,151321,19,Female,1,2024/02/09_08:48:31,YZ,59.89850928
,,,,,,calibration,0,32,2,361,18,J,1,right,0.492730298,0,0,,,,,,,,,,,,,,,,,,,,,1,,,,,,,,,,,,,,,,,,,,,,,,,,,,,,,,,,,,,,,,,,,,,,41,151321,19,Female,1,2024/02/09_08:48:31,YZ,59.89850928
,,,,,,calibration,0,32,2,361,,,,,,,,0.880769231,0.8,0.153846154,0.846153846,0,0.846153846,0.513485303,4,2,0,0,0,11,15,5,13,0,,,,1,,,,,,,,,,,,,,,,,,,,,,,,,,,,,,,,,,,,,,,,,,,,,,41,151321,19,Female,1,2024/02/09_08:48:31,YZ,59.89850928
,,,,,,Calibration,0,,2,361,,,,,,,,,,,,,,,,,,,,,,,,,4,,,1,,,,,,,,,,,,,,,,,,,,,,,,,,,,,,,,,,,,,,,,,,,,,,41,151321,19,Female,1,2024/02/09_08:48:31,YZ,59.89850928
,,,,,,calibration,0,7,2,303,1,J,0,right,0.442948718,1,0,,,,,,,,,,,,,,,,,,,,,1,,,,,,,,,,,,,,,,,,,,,,,,,,,,,,,,,,,,,,,,,,,,,,41,151321,19,Female,1,2024/02/09_08:48:31,YZ,59.89850928
,,,,,,calibration,0,7,2,303,2,Q,0,right,0.480896851,1,0,,,,,,,,,,,,,,,,,,,,,1,,,,,,,,,,,,,,,,,,,,,,,,,,,,,,,,,,,,,,,,,,,,,,41,151321,19,Female,1,2024/02/09_08:48:31,YZ,59.89850928
,,,,,,calibration,0,7,2,303,3,S,0,right,0.395189111,1,0,,,,,,,,,,,,,,,,,,,,,1,,,,,,,,,,,,,,,,,,,,,,,,,,,,,,,,,,,,,,,,,,,,,,41,151321,19,Female,1,2024/02/09_08:48:31,YZ,59.89850928
,,,,,,calibration,0,7,2,303,4,X,0,right,0.401514467,1,0,,,,,,,,,,,,,,,,,,,,,1,,,,,,,,,,,,,,,,,,,,,,,,,,,,,,,,,,,,,,,,,,,,,,41,151321,19,Female,1,2024/02/09_08:48:31,YZ,59.89850928
,,,,,,calibration,0,7,2,303,5,Q,0,right,0.349621088,1,0,,,,,,,,,,,,,,,,,,,,,1,,,,,,,,,,,,,,,,,,,,,,,,,,,,,,,,,,,,,,,,,,,,,,41,151321,19,Female,1,2024/02/09_08:48:31,YZ,59.89850928
,,,,,,calibration,0,7,2,303,6,C,0,right,0.44461912,1,0,,,,,,,,,,,,,,,,,,,,,1,,,,,,,,,,,,,,,,,,,,,,,,,,,,,,,,,,,,,,,,,,,,,,41,151321,19,Female,1,2024/02/09_08:48:31,YZ,59.89850928
,,,,,,calibration,0,7,2,303,7,N,0,right,0.408111212,1,0,,,,,,,,,,,,,,,,,,,,,1,,,,,,,,,,,,,,,,,,,,,,,,,,,,,,,,,,,,,,,,,,,,,,41,151321,19,Female,1,2024/02/09_08:48:31,YZ,59.89850928
,,,,,,calibration,0,7,2,303,8,S,0,right,0.369751892,1,0,,,,,,,,,,,,,,,,,,,,,1,,,,,,,,,,,,,,,,,,,,,,,,,,,,,,,,,,,,,,,,,,,,,,41,151321,19,Female,1,2024/02/09_08:48:31,YZ,59.89850928
,,,,,,calibration,0,7,2,303,9,F,0,right,0.350303796,1,0,,,,,,,,,,,,,,,,,,,,,1,,,,,,,,,,,,,,,,,,,,,,,,,,,,,,,,,,,,,,,,,,,,,,41,151321,19,Female,1,2024/02/09_08:48:31,YZ,59.89850928
,,,,,,calibration,0,7,2,303,10,J,0,right,0.436583044,1,0,,,,,,,,,,,,,,,,,,,,,1,,,,,,,,,,,,,,,,,,,,,,,,,,,,,,,,,,,,,,,,,,,,,,41,151321,19,Female,1,2024/02/09_08:48:31,YZ,59.89850928
,,,,,,calibration,0,7,2,303,11,F,1,left,0.437139396,1,0,,,,,,,,,,,,,,,,,,,,,1,,,,,,,,,,,,,,,,,,,,,,,,,,,,,,,,,,,,,,,,,,,,,,41,151321,19,Female,1,2024/02/09_08:48:31,YZ,59.89850928
,,,,,,calibration,0,7,2,303,12,N,0,right,0.485258587,1,0,,,,,,,,,,,,,,,,,,,,,1,,,,,,,,,,,,,,,,,,,,,,,,,,,,,,,,,,,,,,,,,,,,,,41,151321,19,Female,1,2024/02/09_08:48:31,YZ,59.89850928
,,,,,,calibration,0,7,2,303,13,V,0,right,0.780628479,1,0,,,,,,,,,,,,,,,,,,,,,1,,,,,,,,,,,,,,,,,,,,,,,,,,,,,,,,,,,,,,,,,,,,,,41,151321,19,Female,1,2024/02/09_08:48:31,YZ,59.89850928
,,,,,,calibration,0,7,2,303,14,N,1,right,0.38820011,0,0,,,,,,,,,,,,,,,,,,,,,1,,,,,,,,,,,,,,,,,,,,,,,,,,,,,,,,,,,,,,,,,,,,,,41,151321,19,Female,1,2024/02/09_08:48:31,YZ,59.89850928
,,,,,,calibration,0,7,2,303,15,J,0,right,0.593037808,1,0,,,,,,,,,,,,,,,,,,,,,1,,,,,,,,,,,,,,,,,,,,,,,,,,,,,,,,,,,,,,,,,,,,,,41,151321,19,Female,1,2024/02/09_08:48:31,YZ,59.89850928
,,,,,,calibration,0,7,2,303,16,N,1,left,0.577166317,1,0,,,,,,,,,,,,,,,,,,,,,1,,,,,,,,,,,,,,,,,,,,,,,,,,,,,,,,,,,,,,,,,,,,,,41,151321,19,Female,1,2024/02/09_08:48:31,YZ,59.89850928
,,,,,,calibration,0,7,2,303,17,V,0,right,0.420112054,1,0,,,,,,,,,,,,,,,,,,,,,1,,,,,,,,,,,,,,,,,,,,,,,,,,,,,,,,,,,,,,,,,,,,,,41,151321,19,Female,1,2024/02/09_08:48:31,YZ,59.89850928
,,,,,,calibration,0,7,2,303,18,N,1,left,0.514146027,1,0,,,,,,,,,,,,,,,,,,,,,1,,,,,,,,,,,,,,,,,,,,,,,,,,,,,,,,,,,,,,,,,,,,,,41,151321,19,Female,1,2024/02/09_08:48:31,YZ,59.89850928
,,,,,,calibration,0,7,2,303,19,V,1,right,0.496631801,0,0,,,,,,,,,,,,,,,,,,,,,1,,,,,,,,,,,,,,,,,,,,,,,,,,,,,,,,,,,,,,,,,,,,,,41,151321,19,Female,1,2024/02/09_08:48:31,YZ,59.89850928
,,,,,,calibration,0,7,2,303,,,,,,,,0.9,0.6,0,1,0,1,0.461676836,3,0,0,0,0,14,17,5,14,0,,,,1,,,,,,,,,,,,,,,,,,,,,,,,,,,,,,,,,,,,,,,,,,,,,,41,151321,19,Female,1,2024/02/09_08:48:31,YZ,59.89850928
,,,,,,Calibration,0,,2,303,,,,,,,,,,,,,,,,,,,,,,,,,5,,,1,,,,,,,,,,,,,,,,,,,,,,,,,,,,,,,,,,,,,,,,,,,,,,41,151321,19,Female,1,2024/02/09_08:48:31,YZ,59.89850928
,,,,,,calibration,0,36,2,250,1,Q,0,right,0.448361653,1,0,,,,,,,,,,,,,,,,,,,,,1,,,,,,,,,,,,,,,,,,,,,,,,,,,,,,,,,,,,,,,,,,,,,,41,151321,19,Female,1,2024/02/09_08:48:31,YZ,59.89850928
,,,,,,calibration,0,36,2,250,2,C,0,right,0.378877441,1,0,,,,,,,,,,,,,,,,,,,,,1,,,,,,,,,,,,,,,,,,,,,,,,,,,,,,,,,,,,,,,,,,,,,,41,151321,19,Female,1,2024/02/09_08:48:31,YZ,59.89850928
,,,,,,calibration,0,36,2,250,3,S,0,right,0.43887169,1,0,,,,,,,,,,,,,,,,,,,,,1,,,,,,,,,,,,,,,,,,,,,,,,,,,,,,,,,,,,,,,,,,,,,,41,151321,19,Female,1,2024/02/09_08:48:31,YZ,59.89850928
,,,,,,calibration,0,36,2,250,4,J,0,right,0.422143755,1,0,,,,,,,,,,,,,,,,,,,,,1,,,,,,,,,,,,,,,,,,,,,,,,,,,,,,,,,,,,,,,,,,,,,,41,151321,19,Female,1,2024/02/09_08:48:31,YZ,59.89850928
,,,,,,calibration,0,36,2,250,5,F,0,left,0.512180528,0,0,,,,,,,,,,,,,,,,,,,,,1,,,,,,,,,,,,,,,,,,,,,,,,,,,,,,,,,,,,,,,,,,,,,,41,151321,19,Female,1,2024/02/09_08:48:31,YZ,59.89850928
,,,,,,calibration,0,36,2,250,6,C,0,right,0.229510393,1,0,,,,,,,,,,,,,,,,,,,,,1,,,,,,,,,,,,,,,,,,,,,,,,,,,,,,,,,,,,,,,,,,,,,,41,151321,19,Female,1,2024/02/09_08:48:31,YZ,59.89850928
,,,,,,calibration,0,36,2,250,7,N,0,left,0.404602462,0,0,,,,,,,,,,,,,,,,,,,,,1,,,,,,,,,,,,,,,,,,,,,,,,,,,,,,,,,,,,,,,,,,,,,,41,151321,19,Female,1,2024/02/09_08:48:31,YZ,59.89850928
,,,,,,calibration,0,36,2,250,8,X,0,right,0.34111069,1,0,,,,,,,,,,,,,,,,,,,,,1,,,,,,,,,,,,,,,,,,,,,,,,,,,,,,,,,,,,,,,,,,,,,,41,151321,19,Female,1,2024/02/09_08:48:31,YZ,59.89850928
,,,,,,calibration,0,36,2,250,9,N,1,right,0.365152545,0,0,,,,,,,,,,,,,,,,,,,,,1,,,,,,,,,,,,,,,,,,,,,,,,,,,,,,,,,,,,,,,,,,,,,,41,151321,19,Female,1,2024/02/09_08:48:31,YZ,59.89850928
,,,,,,calibration,0,36,2,250,10,C,0,right,0.49353623,1,0,,,,,,,,,,,,,,,,,,,,,1,,,,,,,,,,,,,,,,,,,,,,,,,,,,,,,,,,,,,,,,,,,,,,41,151321,19,Female,1,2024/02/09_08:48:31,YZ,59.89850928
,,,,,,calibration,0,36,2,250,11,N,1,left,0.470147755,1,0,,,,,,,,,,,,,,,,,,,,,1,,,,,,,,,,,,,,,,,,,,,,,,,,,,,,,,,,,,,,,,,,,,,,41,151321,19,Female,1,2024/02/09_08:48:31,YZ,59.89850928
,,,,,,calibration,0,36,2,250,12,C,1,right,0.357774551,0,0,,,,,,,,,,,,,,,,,,,,,1,,,,,,,,,,,,,,,,,,,,,,,,,,,,,,,,,,,,,,,,,,,,,,41,151321,19,Female,1,2024/02/09_08:48:31,YZ,59.89850928
,,,,,,calibration,0,36,2,250,13,F,0,right,0.439167374,1,0,,,,,,,,,,,,,,,,,,,,,1,,,,,,,,,,,,,,,,,,,,,,,,,,,,,,,,,,,,,,,,,,,,,,41,151321,19,Female,1,2024/02/09_08:48:31,YZ,59.89850928
,,,,,,calibration,0,36,2,250,14,C,1,right,0.513797567,0,0,,,,,,,,,,,,,,,,,,,,,1,,,,,,,,,,,,,,,,,,,,,,,,,,,,,,,,,,,,,,,,,,,,,,41,151321,19,Female,1,2024/02/09_08:48:31,YZ,59.89850928
,,,,,,calibration,0,36,2,250,15,J,0,right,0.725701538,1,0,,,,,,,,,,,,,,,,,,,,,1,,,,,,,,,,,,,,,,,,,,,,,,,,,,,,,,,,,,,,,,,,,,,,41,151321,19,Female,1,2024/02/09_08:48:31,YZ,59.89850928
,,,,,,calibration,0,36,2,250,16,F,0,right,nan,0,1,,,,,,,,,,,,,,,,,,,,,1,,,,,,,,,,,,,,,,,,,,,,,,,,,,,,,,,,,,,,,,,,,,,,41,151321,19,Female,1,2024/02/09_08:48:31,YZ,59.89850928
,,,,,,calibration,0,36,2,250,17,J,1,right,0.51355369,0,0,,,,,,,,,,,,,,,,,,,,,1,,,,,,,,,,,,,,,,,,,,,,,,,,,,,,,,,,,,,,,,,,,,,,41,151321,19,Female,1,2024/02/09_08:48:31,YZ,59.89850928
,,,,,,calibration,0,36,2,250,18,N,0,right,0.425459401,1,0,,,,,,,,,,,,,,,,,,,,,1,,,,,,,,,,,,,,,,,,,,,,,,,,,,,,,,,,,,,,,,,,,,,,41,151321,19,Female,1,2024/02/09_08:48:31,YZ,59.89850928
,,,,,,calibration,0,36,2,250,19,C,0,right,0.809044634,1,0,,,,,,,,,,,,,,,,,,,,,1,,,,,,,,,,,,,,,,,,,,,,,,,,,,,,,,,,,,,,,,,,,,,,41,151321,19,Female,1,2024/02/09_08:48:31,YZ,59.89850928
,,,,,,calibration,0,36,2,250,20,N,1,right,0.595613273,0,0,,,,,,,,,,,,,,,,,,,,,1,,,,,,,,,,,,,,,,,,,,,,,,,,,,,,,,,,,,,,,,,,,,,,41,151321,19,Female,1,2024/02/09_08:48:31,YZ,59.89850928
,,,,,,calibration,0,36,2,250,,,,,,,,0.541666667,0.166666667,0.142857143,0.846153846,0.05,0.807142857,0.467610904,1,2,0,1,1,11,12,6,14,0,,,,1,,,,,,,,,,,,,,,,,,,,,,,,,,,,,,,,,,,,,,,,,,,,,,41,151321,19,Female,1,2024/02/09_08:48:31,YZ,59.89850928
,,,,,,Calibration,0,,2,250,,,,,,,,,,,,,,,,,,,,,,,,,6,,,1,,,,,,,,,,,,,,,,,,,,,,,,,,,,,,,,,,,,,,,,,,,,,,41,151321,19,Female,1,2024/02/09_08:48:31,YZ,59.89850928
,,,,,,calibration,0,36,2,303,1,F,0,right,0.5637142,1,0,,,,,,,,,,,,,,,,,,,,,1,,,,,,,,,,,,,,,,,,,,,,,,,,,,,,,,,,,,,,,,,,,,,,41,151321,19,Female,1,2024/02/09_08:48:31,YZ,59.89850928
,,,,,,calibration,0,36,2,303,2,C,0,right,0.564910012,1,0,,,,,,,,,,,,,,,,,,,,,1,,,,,,,,,,,,,,,,,,,,,,,,,,,,,,,,,,,,,,,,,,,,,,41,151321,19,Female,1,2024/02/09_08:48:31,YZ,59.89850928
,,,,,,calibration,0,36,2,303,3,Q,0,right,0.485481568,1,0,,,,,,,,,,,,,,,,,,,,,1,,,,,,,,,,,,,,,,,,,,,,,,,,,,,,,,,,,,,,,,,,,,,,41,151321,19,Female,1,2024/02/09_08:48:31,YZ,59.89850928
,,,,,,calibration,0,36,2,303,4,F,0,left,0.485900561,0,0,,,,,,,,,,,,,,,,,,,,,1,,,,,,,,,,,,,,,,,,,,,,,,,,,,,,,,,,,,,,,,,,,,,,41,151321,19,Female,1,2024/02/09_08:48:31,YZ,59.89850928
,,,,,,calibration,0,36,2,303,5,Q,1,left,nan,0,1,,,,,,,,,,,,,,,,,,,,,1,,,,,,,,,,,,,,,,,,,,,,,,,,,,,,,,,,,,,,,,,,,,,,41,151321,19,Female,1,2024/02/09_08:48:31,YZ,59.89850928
,,,,,,calibration,0,36,2,303,6,F,1,left,nan,0,1,,,,,,,,,,,,,,,,,,,,,1,,,,,,,,,,,,,,,,,,,,,,,,,,,,,,,,,,,,,,,,,,,,,,41,151321,19,Female,1,2024/02/09_08:48:31,YZ,59.89850928
,,,,,,calibration,0,36,2,303,7,C,0,left,nan,0,1,,,,,,,,,,,,,,,,,,,,,1,,,,,,,,,,,,,,,,,,,,,,,,,,,,,,,,,,,,,,,,,,,,,,41,151321,19,Female,1,2024/02/09_08:48:31,YZ,59.89850928
,,,,,,calibration,0,36,2,303,8,S,0,right,0.993496291,1,0,,,,,,,,,,,,,,,,,,,,,1,,,,,,,,,,,,,,,,,,,,,,,,,,,,,,,,,,,,,,,,,,,,,,41,151321,19,Female,1,2024/02/09_08:48:31,YZ,59.89850928
,,,,,,calibration,0,36,2,303,9,N,0,right,0.726983497,1,0,,,,,,,,,,,,,,,,,,,,,1,,,,,,,,,,,,,,,,,,,,,,,,,,,,,,,,,,,,,,,,,,,,,,41,151321,19,Female,1,2024/02/09_08:48:31,YZ,59.89850928
,,,,,,calibration,0,36,2,303,10,S,1,left,0.357591739,1,0,,,,,,,,,,,,,,,,,,,,,1,,,,,,,,,,,,,,,,,,,,,,,,,,,,,,,,,,,,,,,,,,,,,,41,151321,19,Female,1,2024/02/09_08:48:31,YZ,59.89850928
,,,,,,calibration,0,36,2,303,11,X,0,right,0.490156769,1,0,,,,,,,,,,,,,,,,,,,,,1,,,,,,,,,,,,,,,,,,,,,,,,,,,,,,,,,,,,,,,,,,,,,,41,151321,19,Female,1,2024/02/09_08:48:31,YZ,59.89850928
,,,,,,calibration,0,36,2,303,12,C,0,right,0.543604131,1,0,,,,,,,,,,,,,,,,,,,,,1,,,,,,,,,,,,,,,,,,,,,,,,,,,,,,,,,,,,,,,,,,,,,,41,151321,19,Female,1,2024/02/09_08:48:31,YZ,59.89850928
,,,,,,calibration,0,36,2,303,13,Q,0,right,nan,0,1,,,,,,,,,,,,,,,,,,,,,1,,,,,,,,,,,,,,,,,,,,,,,,,,,,,,,,,,,,,,,,,,,,,,41,151321,19,Female,1,2024/02/09_08:48:31,YZ,59.89850928
,,,,,,calibration,0,36,2,303,14,X,0,right,0.578850732,1,0,,,,,,,,,,,,,,,,,,,,,1,,,,,,,,,,,,,,,,,,,,,,,,,,,,,,,,,,,,,,,,,,,,,,41,151321,19,Female,1,2024/02/09_08:48:31,YZ,59.89850928
,,,,,,calibration,0,36,2,303,15,C,0,left,0.62738793,0,0,,,,,,,,,,,,,,,,,,,,,1,,,,,,,,,,,,,,,,,,,,,,,,,,,,,,,,,,,,,,,,,,,,,,41,151321,19,Female,1,2024/02/09_08:48:31,YZ,59.89850928
,,,,,,calibration,0,36,2,303,16,X,1,left,0.59733672,1,0,,,,,,,,,,,,,,,,,,,,,1,,,,,,,,,,,,,,,,,,,,,,,,,,,,,,,,,,,,,,,,,,,,,,41,151321,19,Female,1,2024/02/09_08:48:31,YZ,59.89850928
,,,,,,calibration,0,36,2,303,17,J,0,right,0.606235868,1,0,,,,,,,,,,,,,,,,,,,,,1,,,,,,,,,,,,,,,,,,,,,,,,,,,,,,,,,,,,,,,,,,,,,,41,151321,19,Female,1,2024/02/09_08:48:31,YZ,59.89850928
,,,,,,calibration,0,36,2,303,18,X,1,left,0.626573761,1,0,,,,,,,,,,,,,,,,,,,,,1,,,,,,,,,,,,,,,,,,,,,,,,,,,,,,,,,,,,,,,,,,,,,,41,151321,19,Female,1,2024/02/09_08:48:31,YZ,59.89850928
,,,,,,calibration,0,36,2,303,19,S,0,right,0.695274202,1,0,,,,,,,,,,,,,,,,,,,,,1,,,,,,,,,,,,,,,,,,,,,,,,,,,,,,,,,,,,,,,,,,,,,,41,151321,19,Female,1,2024/02/09_08:48:31,YZ,59.89850928
,,,,,,calibration,0,36,2,303,,,,,,,,0.807142857,0.6,0.142857143,0.833333333,0.210526316,0.646616541,0.596233199,3,2,2,2,4,10,13,5,14,0,,,,1,,,,,,,,,,,,,,,,,,,,,,,,,,,,,,,,,,,,,,,,,,,,,,41,151321,19,Female,1,2024/02/09_08:48:31,YZ,59.89850928
,,,,,,Calibration,0,,2,303,,,,,,,,,,,,,,,,,,,,,,,,,7,,,1,,,,,,,,,,,,,,,,,,,,,,,,,,,,,,,,,,,,,,,,,,,,,,41,151321,19,Female,1,2024/02/09_08:48:31,YZ,59.89850928
,,,,,,calibration,0,3,2,303,1,Q,0,right,0.395503854,1,0,,,,,,,,,,,,,,,,,,,,,1,,,,,,,,,,,,,,,,,,,,,,,,,,,,,,,,,,,,,,,,,,,,,,41,151321,19,Female,1,2024/02/09_08:48:31,YZ,59.89850928
,,,,,,calibration,0,3,2,303,2,N,0,right,0.401412135,1,0,,,,,,,,,,,,,,,,,,,,,1,,,,,,,,,,,,,,,,,,,,,,,,,,,,,,,,,,,,,,,,,,,,,,41,151321,19,Female,1,2024/02/09_08:48:31,YZ,59.89850928
,,,,,,calibration,0,3,2,303,3,J,0,right,0.414308733,1,0,,,,,,,,,,,,,,,,,,,,,1,,,,,,,,,,,,,,,,,,,,,,,,,,,,,,,,,,,,,,,,,,,,,,41,151321,19,Female,1,2024/02/09_08:48:31,YZ,59.89850928
,,,,,,calibration,0,3,2,303,4,S,0,right,0.615012096,1,0,,,,,,,,,,,,,,,,,,,,,1,,,,,,,,,,,,,,,,,,,,,,,,,,,,,,,,,,,,,,,,,,,,,,41,151321,19,Female,1,2024/02/09_08:48:31,YZ,59.89850928
,,,,,,calibration,0,3,2,303,5,N,0,right,0.59808998,1,0,,,,,,,,,,,,,,,,,,,,,1,,,,,,,,,,,,,,,,,,,,,,,,,,,,,,,,,,,,,,,,,,,,,,41,151321,19,Female,1,2024/02/09_08:48:31,YZ,59.89850928
,,,,,,calibration,0,3,2,303,6,C,0,right,0.625758493,1,0,,,,,,,,,,,,,,,,,,,,,1,,,,,,,,,,,,,,,,,,,,,,,,,,,,,,,,,,,,,,,,,,,,,,41,151321,19,Female,1,2024/02/09_08:48:31,YZ,59.89850928
,,,,,,calibration,0,3,2,303,7,N,1,left,0.547466048,1,0,,,,,,,,,,,,,,,,,,,,,1,,,,,,,,,,,,,,,,,,,,,,,,,,,,,,,,,,,,,,,,,,,,,,41,151321,19,Female,1,2024/02/09_08:48:31,YZ,59.89850928
,,,,,,calibration,0,3,2,303,8,C,1,left,0.610349248,1,0,,,,,,,,,,,,,,,,,,,,,1,,,,,,,,,,,,,,,,,,,,,,,,,,,,,,,,,,,,,,,,,,,,,,41,151321,19,Female,1,2024/02/09_08:48:31,YZ,59.89850928
,,,,,,calibration,0,3,2,303,9,F,0,right,0.51395765,1,0,,,,,,,,,,,,,,,,,,,,,1,,,,,,,,,,,,,,,,,,,,,,,,,,,,,,,,,,,,,,,,,,,,,,41,151321,19,Female,1,2024/02/09_08:48:31,YZ,59.89850928
,,,,,,calibration,0,3,2,303,10,C,1,left,0.708940122,1,0,,,,,,,,,,,,,,,,,,,,,1,,,,,,,,,,,,,,,,,,,,,,,,,,,,,,,,,,,,,,,,,,,,,,41,151321,19,Female,1,2024/02/09_08:48:31,YZ,59.89850928
,,,,,,calibration,0,3,2,303,11,F,1,left,0.5142089,1,0,,,,,,,,,,,,,,,,,,,,,1,,,,,,,,,,,,,,,,,,,,,,,,,,,,,,,,,,,,,,,,,,,,,,41,151321,19,Female,1,2024/02/09_08:48:31,YZ,59.89850928
,,,,,,calibration,0,3,2,303,12,N,0,left,0.745505787,0,0,,,,,,,,,,,,,,,,,,,,,1,,,,,,,,,,,,,,,,,,,,,,,,,,,,,,,,,,,,,,,,,,,,,,41,151321,19,Female,1,2024/02/09_08:48:31,YZ,59.89850928
,,,,,,calibration,0,3,2,303,13,C,0,right,0.641932043,1,0,,,,,,,,,,,,,,,,,,,,,1,,,,,,,,,,,,,,,,,,,,,,,,,,,,,,,,,,,,,,,,,,,,,,41,151321,19,Female,1,2024/02/09_08:48:31,YZ,59.89850928
,,,,,,calibration,0,3,2,303,14,N,1,right,0.976648595,0,0,,,,,,,,,,,,,,,,,,,,,1,,,,,,,,,,,,,,,,,,,,,,,,,,,,,,,,,,,,,,,,,,,,,,41,151321,19,Female,1,2024/02/09_08:48:31,YZ,59.89850928
,,,,,,calibration,0,3,2,303,15,S,0,right,0.680433208,1,0,,,,,,,,,,,,,,,,,,,,,1,,,,,,,,,,,,,,,,,,,,,,,,,,,,,,,,,,,,,,,,,,,,,,41,151321,19,Female,1,2024/02/09_08:48:31,YZ,59.89850928
,,,,,,calibration,0,3,2,303,16,C,0,right,nan,0,1,,,,,,,,,,,,,,,,,,,,,1,,,,,,,,,,,,,,,,,,,,,,,,,,,,,,,,,,,,,,,,,,,,,,41,151321,19,Female,1,2024/02/09_08:48:31,YZ,59.89850928
,,,,,,calibration,0,3,2,303,17,F,0,right,0.431339031,1,0,,,,,,,,,,,,,,,,,,,,,1,,,,,,,,,,,,,,,,,,,,,,,,,,,,,,,,,,,,,,,,,,,,,,41,151321,19,Female,1,2024/02/09_08:48:31,YZ,59.89850928
,,,,,,calibration,0,3,2,303,18,N,0,right,0.785670445,1,0,,,,,,,,,,,,,,,,,,,,,1,,,,,,,,,,,,,,,,,,,,,,,,,,,,,,,,,,,,,,,,,,,,,,41,151321,19,Female,1,2024/02/09_08:48:31,YZ,59.89850928
,,,,,,calibration,0,3,2,303,19,C,0,left,0.457319417,0,0,,,,,,,,,,,,,,,,,,,,,1,,,,,,,,,,,,,,,,,,,,,,,,,,,,,,,,,,,,,,,,,,,,,,41,151321,19,Female,1,2024/02/09_08:48:31,YZ,59.89850928
,,,,,,calibration,0,3,2,303,,,,,,,,0.885714286,0.8,0.142857143,0.846153846,0.052631579,0.804511278,0.592436433,4,2,0,1,1,11,15,5,14,0,,,,1,,,,,,,,,,,,,,,,,,,,,,,,,,,,,,,,,,,,,,,,,,,,,,41,151321,19,Female,1,2024/02/09_08:48:31,YZ,59.89850928
,,,,,,Calibration,0,,2,303,,,,,,,,,,,,,,,,,,,,,,,,,8,,,1,,,,,,,,,,,,,,,,,,,,,,,,,,,,,,,,,,,,,,,,,,,,,,41,151321,19,Female,1,2024/02/09_08:48:31,YZ,59.89850928
,,,,,,calibration,0,28,2,250,1,S,0,right,0.235593431,1,0,,,,,,,,,,,,,,,,,,,,,1,,,,,,,,,,,,,,,,,,,,,,,,,,,,,,,,,,,,,,,,,,,,,,41,151321,19,Female,1,2024/02/09_08:48:31,YZ,59.89850928
,,,,,,calibration,0,28,2,250,2,J,0,right,0.316971746,1,0,,,,,,,,,,,,,,,,,,,,,1,,,,,,,,,,,,,,,,,,,,,,,,,,,,,,,,,,,,,,,,,,,,,,41,151321,19,Female,1,2024/02/09_08:48:31,YZ,59.89850928
,,,,,,calibration,0,28,2,250,3,C,0,right,0.315470951,1,0,,,,,,,,,,,,,,,,,,,,,1,,,,,,,,,,,,,,,,,,,,,,,,,,,,,,,,,,,,,,,,,,,,,,41,151321,19,Female,1,2024/02/09_08:48:31,YZ,59.89850928
,,,,,,calibration,0,28,2,250,4,J,1,right,0.477977316,0,0,,,,,,,,,,,,,,,,,,,,,1,,,,,,,,,,,,,,,,,,,,,,,,,,,,,,,,,,,,,,,,,,,,,,41,151321,19,Female,1,2024/02/09_08:48:31,YZ,59.89850928
,,,,,,calibration,0,28,2,250,5,X,0,right,0.420890388,1,0,,,,,,,,,,,,,,,,,,,,,1,,,,,,,,,,,,,,,,,,,,,,,,,,,,,,,,,,,,,,,,,,,,,,41,151321,19,Female,1,2024/02/09_08:48:31,YZ,59.89850928
,,,,,,calibration,0,28,2,250,6,J,1,left,0.493838812,1,0,,,,,,,,,,,,,,,,,,,,,1,,,,,,,,,,,,,,,,,,,,,,,,,,,,,,,,,,,,,,,,,,,,,,41,151321,19,Female,1,2024/02/09_08:48:31,YZ,59.89850928
,,,,,,calibration,0,28,2,250,7,X,1,left,0.720450311,1,0,,,,,,,,,,,,,,,,,,,,,1,,,,,,,,,,,,,,,,,,,,,,,,,,,,,,,,,,,,,,,,,,,,,,41,151321,19,Female,1,2024/02/09_08:48:31,YZ,59.89850928
,,,,,,calibration,0,28,2,250,8,S,0,right,0.458007208,1,0,,,,,,,,,,,,,,,,,,,,,1,,,,,,,,,,,,,,,,,,,,,,,,,,,,,,,,,,,,,,,,,,,,,,41,151321,19,Female,1,2024/02/09_08:48:31,YZ,59.89850928
,,,,,,calibration,0,28,2,250,9,Q,0,right,0.521338752,1,0,,,,,,,,,,,,,,,,,,,,,1,,,,,,,,,,,,,,,,,,,,,,,,,,,,,,,,,,,,,,,,,,,,,,41,151321,19,Female,1,2024/02/09_08:48:31,YZ,59.89850928
,,,,,,calibration,0,28,2,250,10,S,1,left,0.55357096,1,0,,,,,,,,,,,,,,,,,,,,,1,,,,,,,,,,,,,,,,,,,,,,,,,,,,,,,,,,,,,,,,,,,,,,41,151321,19,Female,1,2024/02/09_08:48:31,YZ,59.89850928
,,,,,,calibration,0,28,2,250,11,J,0,right,0.543547975,1,0,,,,,,,,,,,,,,,,,,,,,1,,,,,,,,,,,,,,,,,,,,,,,,,,,,,,,,,,,,,,,,,,,,,,41,151321,19,Female,1,2024/02/09_08:48:31,YZ,59.89850928
,,,,,,calibration,0,28,2,250,12,C,0,left,0.660021902,0,0,,,,,,,,,,,,,,,,,,,,,1,,,,,,,,,,,,,,,,,,,,,,,,,,,,,,,,,,,,,,,,,,,,,,41,151321,19,Female,1,2024/02/09_08:48:31,YZ,59.89850928
,,,,,,calibration,0,28,2,250,13,S,0,left,0.492589182,0,0,,,,,,,,,,,,,,,,,,,,,1,,,,,,,,,,,,,,,,,,,,,,,,,,,,,,,,,,,,,,,,,,,,,,41,151321,19,Female,1,2024/02/09_08:48:31,YZ,59.89850928
,,,,,,calibration,0,28,2,250,14,F,0,right,0.458471515,1,0,,,,,,,,,,,,,,,,,,,,,1,,,,,,,,,,,,,,,,,,,,,,,,,,,,,,,,,,,,,,,,,,,,,,41,151321,19,Female,1,2024/02/09_08:48:31,YZ,59.89850928
,,,,,,calibration,0,28,2,250,15,C,0,right,0.513793288,1,0,,,,,,,,,,,,,,,,,,,,,1,,,,,,,,,,,,,,,,,,,,,,,,,,,,,,,,,,,,,,,,,,,,,,41,151321,19,Female,1,2024/02/09_08:48:31,YZ,59.89850928
,,,,,,calibration,0,28,2,250,16,S,0,right,0.660094273,1,0,,,,,,,,,,,,,,,,,,,,,1,,,,,,,,,,,,,,,,,,,,,,,,,,,,,,,,,,,,,,,,,,,,,,41,151321,19,Female,1,2024/02/09_08:48:31,YZ,59.89850928
,,,,,,calibration,0,28,2,250,17,C,1,right,0.544724864,0,0,,,,,,,,,,,,,,,,,,,,,1,,,,,,,,,,,,,,,,,,,,,,,,,,,,,,,,,,,,,,,,,,,,,,41,151321,19,Female,1,2024/02/09_08:48:31,YZ,59.89850928
,,,,,,calibration,0,28,2,250,18,J,0,right,0.607887888,1,0,,,,,,,,,,,,,,,,,,,,,1,,,,,,,,,,,,,,,,,,,,,,,,,,,,,,,,,,,,,,,,,,,,,,41,151321,19,Female,1,2024/02/09_08:48:31,YZ,59.89850928
,,,,,,calibration,0,28,2,250,19,C,1,right,0.576359138,0,0,,,,,,,,,,,,,,,,,,,,,1,,,,,,,,,,,,,,,,,,,,,,,,,,,,,,,,,,,,,,,,,,,,,,41,151321,19,Female,1,2024/02/09_08:48:31,YZ,59.89850928
,,,,,,calibration,0,28,2,250,20,V,0,left,0.626260584,0,0,,,,,,,,,,,,,,,,,,,,,1,,,,,,,,,,,,,,,,,,,,,,,,,,,,,,,,,,,,,,,,,,,,,,41,151321,19,Female,1,2024/02/09_08:48:31,YZ,59.89850928
,,,,,,calibration,0,28,2,250,,,,,,,,0.714285714,0.5,0.214285714,0.785714286,0,0.785714286,0.509893024,3,3,0,0,0,11,14,6,14,0,,,,1,,,,,,,,,,,,,,,,,,,,,,,,,,,,,,,,,,,,,,,,,,,,,,41,151321,19,Female,1,2024/02/09_08:48:31,YZ,59.89850928
,,,,,,Calibration,0,,2,250,,,,,,,,,,,,,,,,,,,,,,,,,9,,,1,,,,,,,,,,,,,,,,,,,,,,,,,,,,,,,,,,,,,,,,,,,,,,41,151321,19,Female,1,2024/02/09_08:48:31,YZ,59.89850928
,,,,,,calibration,0,7,2,303,1,J,0,right,0.4579095,1,0,,,,,,,,,,,,,,,,,,,,,1,,,,,,,,,,,,,,,,,,,,,,,,,,,,,,,,,,,,,,,,,,,,,,41,151321,19,Female,1,2024/02/09_08:48:31,YZ,59.89850928
,,,,,,calibration,0,7,2,303,2,Q,0,right,0.576278533,1,0,,,,,,,,,,,,,,,,,,,,,1,,,,,,,,,,,,,,,,,,,,,,,,,,,,,,,,,,,,,,,,,,,,,,41,151321,19,Female,1,2024/02/09_08:48:31,YZ,59.89850928
,,,,,,calibration,0,7,2,303,3,S,0,right,0.758058352,1,0,,,,,,,,,,,,,,,,,,,,,1,,,,,,,,,,,,,,,,,,,,,,,,,,,,,,,,,,,,,,,,,,,,,,41,151321,19,Female,1,2024/02/09_08:48:31,YZ,59.89850928
,,,,,,calibration,0,7,2,303,4,X,0,right,0.427472496,1,0,,,,,,,,,,,,,,,,,,,,,1,,,,,,,,,,,,,,,,,,,,,,,,,,,,,,,,,,,,,,,,,,,,,,41,151321,19,Female,1,2024/02/09_08:48:31,YZ,59.89850928
,,,,,,calibration,0,7,2,303,5,Q,0,right,0.782034726,1,0,,,,,,,,,,,,,,,,,,,,,1,,,,,,,,,,,,,,,,,,,,,,,,,,,,,,,,,,,,,,,,,,,,,,41,151321,19,Female,1,2024/02/09_08:48:31,YZ,59.89850928
,,,,,,calibration,0,7,2,303,6,C,0,left,0.425905393,0,0,,,,,,,,,,,,,,,,,,,,,1,,,,,,,,,,,,,,,,,,,,,,,,,,,,,,,,,,,,,,,,,,,,,,41,151321,19,Female,1,2024/02/09_08:48:31,YZ,59.89850928
,,,,,,calibration,0,7,2,303,7,N,0,right,0.442038332,1,0,,,,,,,,,,,,,,,,,,,,,1,,,,,,,,,,,,,,,,,,,,,,,,,,,,,,,,,,,,,,,,,,,,,,41,151321,19,Female,1,2024/02/09_08:48:31,YZ,59.89850928
,,,,,,calibration,0,7,2,303,8,S,0,right,0.69068796,1,0,,,,,,,,,,,,,,,,,,,,,1,,,,,,,,,,,,,,,,,,,,,,,,,,,,,,,,,,,,,,,,,,,,,,41,151321,19,Female,1,2024/02/09_08:48:31,YZ,59.89850928
,,,,,,calibration,0,7,2,303,9,F,0,right,0.513848017,1,0,,,,,,,,,,,,,,,,,,,,,1,,,,,,,,,,,,,,,,,,,,,,,,,,,,,,,,,,,,,,,,,,,,,,41,151321,19,Female,1,2024/02/09_08:48:31,YZ,59.89850928
,,,,,,calibration,0,7,2,303,10,J,0,right,0.545302746,1,0,,,,,,,,,,,,,,,,,,,,,1,,,,,,,,,,,,,,,,,,,,,,,,,,,,,,,,,,,,,,,,,,,,,,41,151321,19,Female,1,2024/02/09_08:48:31,YZ,59.89850928
,,,,,,calibration,0,7,2,303,11,F,1,left,0.626406732,1,0,,,,,,,,,,,,,,,,,,,,,1,,,,,,,,,,,,,,,,,,,,,,,,,,,,,,,,,,,,,,,,,,,,,,41,151321,19,Female,1,2024/02/09_08:48:31,YZ,59.89850928
,,,,,,calibration,0,7,2,303,12,N,0,right,0.542764742,1,0,,,,,,,,,,,,,,,,,,,,,1,,,,,,,,,,,,,,,,,,,,,,,,,,,,,,,,,,,,,,,,,,,,,,41,151321,19,Female,1,2024/02/09_08:48:31,YZ,59.89850928
,,,,,,calibration,0,7,2,303,13,V,0,right,0.597293784,1,0,,,,,,,,,,,,,,,,,,,,,1,,,,,,,,,,,,,,,,,,,,,,,,,,,,,,,,,,,,,,,,,,,,,,41,151321,19,Female,1,2024/02/09_08:48:31,YZ,59.89850928
,,,,,,calibration,0,7,2,303,14,N,1,left,0.807533684,1,0,,,,,,,,,,,,,,,,,,,,,1,,,,,,,,,,,,,,,,,,,,,,,,,,,,,,,,,,,,,,,,,,,,,,41,151321,19,Female,1,2024/02/09_08:48:31,YZ,59.89850928
,,,,,,calibration,0,7,2,303,15,J,0,right,0.926250925,1,0,,,,,,,,,,,,,,,,,,,,,1,,,,,,,,,,,,,,,,,,,,,,,,,,,,,,,,,,,,,,,,,,,,,,41,151321,19,Female,1,2024/02/09_08:48:31,YZ,59.89850928
,,,,,,calibration,0,7,2,303,16,N,1,right,0.71482376,0,0,,,,,,,,,,,,,,,,,,,,,1,,,,,,,,,,,,,,,,,,,,,,,,,,,,,,,,,,,,,,,,,,,,,,41,151321,19,Female,1,2024/02/09_08:48:31,YZ,59.89850928
,,,,,,calibration,0,7,2,303,17,V,0,right,0.744457428,1,0,,,,,,,,,,,,,,,,,,,,,1,,,,,,,,,,,,,,,,,,,,,,,,,,,,,,,,,,,,,,,,,,,,,,41,151321,19,Female,1,2024/02/09_08:48:31,YZ,59.89850928
,,,,,,calibration,0,7,2,303,18,N,1,left,0.658431992,1,0,,,,,,,,,,,,,,,,,,,,,1,,,,,,,,,,,,,,,,,,,,,,,,,,,,,,,,,,,,,,,,,,,,,,41,151321,19,Female,1,2024/02/09_08:48:31,YZ,59.89850928
,,,,,,calibration,0,7,2,303,19,V,1,right,0.826539343,0,0,,,,,,,,,,,,,,,,,,,,,1,,,,,,,,,,,,,,,,,,,,,,,,,,,,,,,,,,,,,,,,,,,,,,41,151321,19,Female,1,2024/02/09_08:48:31,YZ,59.89850928
,,,,,,calibration,0,7,2,303,,,,,,,,0.853571429,0.6,0.071428571,0.928571429,0,0.928571429,0.634949392,3,1,0,0,0,13,16,5,14,0,,,,1,,,,,,,,,,,,,,,,,,,,,,,,,,,,,,,,,,,,,,,,,,,,,,41,151321,19,Female,1,2024/02/09_08:48:31,YZ,59.89850928
,,,,,,Calibration,0,,2,303,,,,,,,,,,,,,,,,,,,,,,,,,10,,,1,,,,,,,,,,,,,,,,,,,,,,,,,,,,,,,,,,,,,,,,,,,,,,41,151321,19,Female,1,2024/02/09_08:48:31,YZ,59.89850928
,,,,,,calibration,0,24,2,250,1,S,0,right,0.384632809,1,0,,,,,,,,,,,,,,,,,,,,,1,,,,,,,,,,,,,,,,,,,,,,,,,,,,,,,,,,,,,,,,,,,,,,41,151321,19,Female,1,2024/02/09_08:48:31,YZ,59.89850928
,,,,,,calibration,0,24,2,250,2,F,0,right,0.364187335,1,0,,,,,,,,,,,,,,,,,,,,,1,,,,,,,,,,,,,,,,,,,,,,,,,,,,,,,,,,,,,,,,,,,,,,41,151321,19,Female,1,2024/02/09_08:48:31,YZ,59.89850928
,,,,,,calibration,0,24,2,250,3,V,0,right,0.571983847,1,0,,,,,,,,,,,,,,,,,,,,,1,,,,,,,,,,,,,,,,,,,,,,,,,,,,,,,,,,,,,,,,,,,,,,41,151321,19,Female,1,2024/02/09_08:48:31,YZ,59.89850928
,,,,,,calibration,0,24,2,250,4,S,0,left,0.559443044,0,0,,,,,,,,,,,,,,,,,,,,,1,,,,,,,,,,,,,,,,,,,,,,,,,,,,,,,,,,,,,,,,,,,,,,41,151321,19,Female,1,2024/02/09_08:48:31,YZ,59.89850928
,,,,,,calibration,0,24,2,250,5,Q,0,right,0.562659082,1,0,,,,,,,,,,,,,,,,,,,,,1,,,,,,,,,,,,,,,,,,,,,,,,,,,,,,,,,,,,,,,,,,,,,,41,151321,19,Female,1,2024/02/09_08:48:31,YZ,59.89850928
,,,,,,calibration,0,24,2,250,6,S,1,left,0.626900872,1,0,,,,,,,,,,,,,,,,,,,,,1,,,,,,,,,,,,,,,,,,,,,,,,,,,,,,,,,,,,,,,,,,,,,,41,151321,19,Female,1,2024/02/09_08:48:31,YZ,59.89850928
,,,,,,calibration,0,24,2,250,7,Q,1,left,0.542903893,1,0,,,,,,,,,,,,,,,,,,,,,1,,,,,,,,,,,,,,,,,,,,,,,,,,,,,,,,,,,,,,,,,,,,,,41,151321,19,Female,1,2024/02/09_08:48:31,YZ,59.89850928
,,,,,,calibration,0,24,2,250,8,V,0,right,0.370720605,1,0,,,,,,,,,,,,,,,,,,,,,1,,,,,,,,,,,,,,,,,,,,,,,,,,,,,,,,,,,,,,,,,,,,,,41,151321,19,Female,1,2024/02/09_08:48:31,YZ,59.89850928
,,,,,,calibration,0,24,2,250,9,N,0,right,0.486546163,1,0,,,,,,,,,,,,,,,,,,,,,1,,,,,,,,,,,,,,,,,,,,,,,,,,,,,,,,,,,,,,,,,,,,,,41,151321,19,Female,1,2024/02/09_08:48:31,YZ,59.89850928
,,,,,,calibration,0,24,2,250,10,V,1,left,0.477898688,1,0,,,,,,,,,,,,,,,,,,,,,1,,,,,,,,,,,,,,,,,,,,,,,,,,,,,,,,,,,,,,,,,,,,,,41,151321,19,Female,1,2024/02/09_08:48:31,YZ,59.89850928
,,,,,,calibration,0,24,2,250,11,N,1,right,0.463019933,0,0,,,,,,,,,,,,,,,,,,,,,1,,,,,,,,,,,,,,,,,,,,,,,,,,,,,,,,,,,,,,,,,,,,,,41,151321,19,Female,1,2024/02/09_08:48:31,YZ,59.89850928
,,,,,,calibration,0,24,2,250,12,F,0,right,0.595075221,1,0,,,,,,,,,,,,,,,,,,,,,1,,,,,,,,,,,,,,,,,,,,,,,,,,,,,,,,,,,,,,,,,,,,,,41,151321,19,Female,1,2024/02/09_08:48:31,YZ,59.89850928
,,,,,,calibration,0,24,2,250,13,C,0,right,0.561324624,1,0,,,,,,,,,,,,,,,,,,,,,1,,,,,,,,,,,,,,,,,,,,,,,,,,,,,,,,,,,,,,,,,,,,,,41,151321,19,Female,1,2024/02/09_08:48:31,YZ,59.89850928
,,,,,,calibration,0,24,2,250,14,J,0,right,0.64665475,1,0,,,,,,,,,,,,,,,,,,,,,1,,,,,,,,,,,,,,,,,,,,,,,,,,,,,,,,,,,,,,,,,,,,,,41,151321,19,Female,1,2024/02/09_08:48:31,YZ,59.89850928
,,,,,,calibration,0,24,2,250,15,F,0,right,0.560143929,1,0,,,,,,,,,,,,,,,,,,,,,1,,,,,,,,,,,,,,,,,,,,,,,,,,,,,,,,,,,,,,,,,,,,,,41,151321,19,Female,1,2024/02/09_08:48:31,YZ,59.89850928
,,,,,,calibration,0,24,2,250,16,V,0,right,0.707435726,1,0,,,,,,,,,,,,,,,,,,,,,1,,,,,,,,,,,,,,,,,,,,,,,,,,,,,,,,,,,,,,,,,,,,,,41,151321,19,Female,1,2024/02/09_08:48:31,YZ,59.89850928
,,,,,,calibration,0,24,2,250,17,F,1,left,0.632721789,1,0,,,,,,,,,,,,,,,,,,,,,1,,,,,,,,,,,,,,,,,,,,,,,,,,,,,,,,,,,,,,,,,,,,,,41,151321,19,Female,1,2024/02/09_08:48:31,YZ,59.89850928
,,,,,,calibration,0,24,2,250,18,J,0,right,0.829605728,1,0,,,,,,,,,,,,,,,,,,,,,1,,,,,,,,,,,,,,,,,,,,,,,,,,,,,,,,,,,,,,,,,,,,,,41,151321,19,Female,1,2024/02/09_08:48:31,YZ,59.89850928
,,,,,,calibration,0,24,2,250,19,V,0,left,0.754794221,0,0,,,,,,,,,,,,,,,,,,,,,1,,,,,,,,,,,,,,,,,,,,,,,,,,,,,,,,,,,,,,,,,,,,,,41,151321,19,Female,1,2024/02/09_08:48:31,YZ,59.89850928
,,,,,,calibration,0,24,2,250,20,Q,0,right,0.443970552,1,0,,,,,,,,,,,,,,,,,,,,,1,,,,,,,,,,,,,,,,,,,,,,,,,,,,,,,,,,,,,,,,,,,,,,41,151321,19,Female,1,2024/02/09_08:48:31,YZ,59.89850928
,,,,,,calibration,0,24,2,250,,,,,,,,0.89,0.8,0.133333333,0.866666667,0,0.866666667,0.557131141,4,2,0,0,0,13,17,5,15,0,,,,1,,,,,,,,,,,,,,,,,,,,,,,,,,,,,,,,,,,,,,,,,,,,,,41,151321,19,Female,1,2024/02/09_08:48:31,YZ,59.89850928
,,,,,,Calibration,0,,2,250,,,,,,,,,,,,,,,,,,,,,,,,,11,,,1,,,,,,,,,,,,,,,,,,,,,,,,,,,,,,,,,,,,,,,,,,,,,,41,151321,19,Female,1,2024/02/09_08:48:31,YZ,59.89850928
,,,,,,calibration,0,2,2,202,1,C,0,right,0.532272357,1,0,,,,,,,,,,,,,,,,,,,,,1,,,,,,,,,,,,,,,,,,,,,,,,,,,,,,,,,,,,,,,,,,,,,,41,151321,19,Female,1,2024/02/09_08:48:31,YZ,59.89850928
,,,,,,calibration,0,2,2,202,2,Q,0,right,0.352829462,1,0,,,,,,,,,,,,,,,,,,,,,1,,,,,,,,,,,,,,,,,,,,,,,,,,,,,,,,,,,,,,,,,,,,,,41,151321,19,Female,1,2024/02/09_08:48:31,YZ,59.89850928
,,,,,,calibration,0,2,2,202,3,C,1,right,0.550804014,0,0,,,,,,,,,,,,,,,,,,,,,1,,,,,,,,,,,,,,,,,,,,,,,,,,,,,,,,,,,,,,,,,,,,,,41,151321,19,Female,1,2024/02/09_08:48:31,YZ,59.89850928
,,,,,,calibration,0,2,2,202,4,X,0,right,0.40172296,1,0,,,,,,,,,,,,,,,,,,,,,1,,,,,,,,,,,,,,,,,,,,,,,,,,,,,,,,,,,,,,,,,,,,,,41,151321,19,Female,1,2024/02/09_08:48:31,YZ,59.89850928
,,,,,,calibration,0,2,2,202,5,C,1,left,0.611711289,1,0,,,,,,,,,,,,,,,,,,,,,1,,,,,,,,,,,,,,,,,,,,,,,,,,,,,,,,,,,,,,,,,,,,,,41,151321,19,Female,1,2024/02/09_08:48:31,YZ,59.89850928
,,,,,,calibration,0,2,2,202,6,Q,0,left,0.809394892,0,0,,,,,,,,,,,,,,,,,,,,,1,,,,,,,,,,,,,,,,,,,,,,,,,,,,,,,,,,,,,,,,,,,,,,41,151321,19,Female,1,2024/02/09_08:48:31,YZ,59.89850928
,,,,,,calibration,0,2,2,202,7,X,0,right,0.998648273,1,0,,,,,,,,,,,,,,,,,,,,,1,,,,,,,,,,,,,,,,,,,,,,,,,,,,,,,,,,,,,,,,,,,,,,41,151321,19,Female,1,2024/02/09_08:48:31,YZ,59.89850928
,,,,,,calibration,0,2,2,202,8,S,0,right,0.608921758,1,0,,,,,,,,,,,,,,,,,,,,,1,,,,,,,,,,,,,,,,,,,,,,,,,,,,,,,,,,,,,,,,,,,,,,41,151321,19,Female,1,2024/02/09_08:48:31,YZ,59.89850928
,,,,,,calibration,0,2,2,202,9,C,0,right,nan,0,1,,,,,,,,,,,,,,,,,,,,,1,,,,,,,,,,,,,,,,,,,,,,,,,,,,,,,,,,,,,,,,,,,,,,41,151321,19,Female,1,2024/02/09_08:48:31,YZ,59.89850928
,,,,,,calibration,0,2,2,202,10,Q,0,right,0.792007474,1,0,,,,,,,,,,,,,,,,,,,,,1,,,,,,,,,,,,,,,,,,,,,,,,,,,,,,,,,,,,,,,,,,,,,,41,151321,19,Female,1,2024/02/09_08:48:31,YZ,59.89850928
,,,,,,calibration,0,2,2,202,11,X,0,right,0.698058296,1,0,,,,,,,,,,,,,,,,,,,,,1,,,,,,,,,,,,,,,,,,,,,,,,,,,,,,,,,,,,,,,,,,,,,,41,151321,19,Female,1,2024/02/09_08:48:31,YZ,59.89850928
,,,,,,calibration,0,2,2,202,12,C,0,left,0.64844268,0,0,,,,,,,,,,,,,,,,,,,,,1,,,,,,,,,,,,,,,,,,,,,,,,,,,,,,,,,,,,,,,,,,,,,,41,151321,19,Female,1,2024/02/09_08:48:31,YZ,59.89850928
,,,,,,calibration,0,2,2,202,13,Q,0,right,0.52593324,1,0,,,,,,,,,,,,,,,,,,,,,1,,,,,,,,,,,,,,,,,,,,,,,,,,,,,,,,,,,,,,,,,,,,,,41,151321,19,Female,1,2024/02/09_08:48:31,YZ,59.89850928
,,,,,,calibration,0,2,2,202,14,C,1,left,0.634557699,1,0,,,,,,,,,,,,,,,,,,,,,1,,,,,,,,,,,,,,,,,,,,,,,,,,,,,,,,,,,,,,,,,,,,,,41,151321,19,Female,1,2024/02/09_08:48:31,YZ,59.89850928
,,,,,,calibration,0,2,2,202,15,J,0,right,0.38203553,1,0,,,,,,,,,,,,,,,,,,,,,1,,,,,,,,,,,,,,,,,,,,,,,,,,,,,,,,,,,,,,,,,,,,,,41,151321,19,Female,1,2024/02/09_08:48:31,YZ,59.89850928
,,,,,,calibration,0,2,2,202,16,N,0,right,0.492429366,1,0,,,,,,,,,,,,,,,,,,,,,1,,,,,,,,,,,,,,,,,,,,,,,,,,,,,,,,,,,,,,,,,,,,,,41,151321,19,Female,1,2024/02/09_08:48:31,YZ,59.89850928
,,,,,,calibration,0,2,2,202,17,J,1,left,0.513849727,1,0,,,,,,,,,,,,,,,,,,,,,1,,,,,,,,,,,,,,,,,,,,,,,,,,,,,,,,,,,,,,,,,,,,,,41,151321,19,Female,1,2024/02/09_08:48:31,YZ,59.89850928
,,,,,,calibration,0,2,2,202,18,C,0,left,0.812855239,0,0,,,,,,,,,,,,,,,,,,,,,1,,,,,,,,,,,,,,,,,,,,,,,,,,,,,,,,,,,,,,,,,,,,,,41,151321,19,Female,1,2024/02/09_08:48:31,YZ,59.89850928
,,,,,,calibration,0,2,2,202,19,V,0,right,0.534525437,1,0,,,,,,,,,,,,,,,,,,,,,1,,,,,,,,,,,,,,,,,,,,,,,,,,,,,,,,,,,,,,,,,,,,,,41,151321,19,Female,1,2024/02/09_08:48:31,YZ,59.89850928
,,,,,,calibration,0,2,2,202,20,C,1,right,0.682681161,0,0,,,,,,,,,,,,,,,,,,,,,1,,,,,,,,,,,,,,,,,,,,,,,,,,,,,,,,,,,,,,,,,,,,,,41,151321,19,Female,1,2024/02/09_08:48:31,YZ,59.89850928
,,,,,,calibration,0,2,2,202,21,V,1,left,0.542036584,1,0,,,,,,,,,,,,,,,,,,,,,1,,,,,,,,,,,,,,,,,,,,,,,,,,,,,,,,,,,,,,,,,,,,,,41,151321,19,Female,1,2024/02/09_08:48:31,YZ,59.89850928
,,,,,,calibration,0,2,2,202,,,,,,,,0.8,0.666666667,0.2,0.785714286,0.047619048,0.752380952,0.606285872,4,3,0,1,1,11,15,6,15,0,,,,1,,,,,,,,,,,,,,,,,,,,,,,,,,,,,,,,,,,,,,,,,,,,,,41,151321,19,Female,1,2024/02/09_08:48:31,YZ,59.89850928
,,,,,,Calibration,0,,2,202,,,,,,,,,,,,,,,,,,,,,,,,,12,,,1,,,,,,,,,,,,,,,,,,,,,,,,,,,,,,,,,,,,,,,,,,,,,,41,151321,19,Female,1,2024/02/09_08:48:31,YZ,59.89850928
,,,,,,calibration,0,26,2,202,1,V,0,right,0.431674295,1,0,,,,,,,,,,,,,,,,,,,,,1,,,,,,,,,,,,,,,,,,,,,,,,,,,,,,,,,,,,,,,,,,,,,,41,151321,19,Female,1,2024/02/09_08:48:31,YZ,59.89850928
,,,,,,calibration,0,26,2,202,2,Q,0,right,0.405330179,1,0,,,,,,,,,,,,,,,,,,,,,1,,,,,,,,,,,,,,,,,,,,,,,,,,,,,,,,,,,,,,,,,,,,,,41,151321,19,Female,1,2024/02/09_08:48:31,YZ,59.89850928
,,,,,,calibration,0,26,2,202,3,S,0,left,0.526715844,0,0,,,,,,,,,,,,,,,,,,,,,1,,,,,,,,,,,,,,,,,,,,,,,,,,,,,,,,,,,,,,,,,,,,,,41,151321,19,Female,1,2024/02/09_08:48:31,YZ,59.89850928
,,,,,,calibration,0,26,2,202,4,C,0,right,0.551168112,1,0,,,,,,,,,,,,,,,,,,,,,1,,,,,,,,,,,,,,,,,,,,,,,,,,,,,,,,,,,,,,,,,,,,,,41,151321,19,Female,1,2024/02/09_08:48:31,YZ,59.89850928
,,,,,,calibration,0,26,2,202,5,S,1,left,0.674245728,1,0,,,,,,,,,,,,,,,,,,,,,1,,,,,,,,,,,,,,,,,,,,,,,,,,,,,,,,,,,,,,,,,,,,,,41,151321,19,Female,1,2024/02/09_08:48:31,YZ,59.89850928
,,,,,,calibration,0,26,2,202,6,V,0,right,0.389013453,1,0,,,,,,,,,,,,,,,,,,,,,1,,,,,,,,,,,,,,,,,,,,,,,,,,,,,,,,,,,,,,,,,,,,,,41,151321,19,Female,1,2024/02/09_08:48:31,YZ,59.89850928
,,,,,,calibration,0,26,2,202,7,S,1,right,0.796056667,0,0,,,,,,,,,,,,,,,,,,,,,1,,,,,,,,,,,,,,,,,,,,,,,,,,,,,,,,,,,,,,,,,,,,,,41,151321,19,Female,1,2024/02/09_08:48:31,YZ,59.89850928
,,,,,,calibration,0,26,2,202,8,Q,0,right,0.526579686,1,0,,,,,,,,,,,,,,,,,,,,,1,,,,,,,,,,,,,,,,,,,,,,,,,,,,,,,,,,,,,,,,,,,,,,41,151321,19,Female,1,2024/02/09_08:48:31,YZ,59.89850928
,,,,,,calibration,0,26,2,202,9,N,0,right,0.657431993,1,0,,,,,,,,,,,,,,,,,,,,,1,,,,,,,,,,,,,,,,,,,,,,,,,,,,,,,,,,,,,,,,,,,,,,41,151321,19,Female,1,2024/02/09_08:48:31,YZ,59.89850928
,,,,,,calibration,0,26,2,202,10,Q,1,left,0.648612073,1,0,,,,,,,,,,,,,,,,,,,,,1,,,,,,,,,,,,,,,,,,,,,,,,,,,,,,,,,,,,,,,,,,,,,,41,151321,19,Female,1,2024/02/09_08:48:31,YZ,59.89850928
,,,,,,calibration,0,26,2,202,11,N,1,right,0.263595901,0,0,,,,,,,,,,,,,,,,,,,,,1,,,,,,,,,,,,,,,,,,,,,,,,,,,,,,,,,,,,,,,,,,,,,,41,151321,19,Female,1,2024/02/09_08:48:31,YZ,59.89850928
,,,,,,calibration,0,26,2,202,12,S,0,right,0.783937132,1,0,,,,,,,,,,,,,,,,,,,,,1,,,,,,,,,,,,,,,,,,,,,,,,,,,,,,,,,,,,,,,,,,,,,,41,151321,19,Female,1,2024/02/09_08:48:31,YZ,59.89850928
,,,,,,calibration,0,26,2,202,13,J,0,right,0.594807429,1,0,,,,,,,,,,,,,,,,,,,,,1,,,,,,,,,,,,,,,,,,,,,,,,,,,,,,,,,,,,,,,,,,,,,,41,151321,19,Female,1,2024/02/09_08:48:31,YZ,59.89850928
,,,,,,calibration,0,26,2,202,14,V,0,right,0.659029485,1,0,,,,,,,,,,,,,,,,,,,,,1,,,,,,,,,,,,,,,,,,,,,,,,,,,,,,,,,,,,,,,,,,,,,,41,151321,19,Female,1,2024/02/09_08:48:31,YZ,59.89850928
,,,,,,calibration,0,26,2,202,15,F,0,right,0.529407112,1,0,,,,,,,,,,,,,,,,,,,,,1,,,,,,,,,,,,,,,,,,,,,,,,,,,,,,,,,,,,,,,,,,,,,,41,151321,19,Female,1,2024/02/09_08:48:31,YZ,59.89850928
,,,,,,calibration,0,26,2,202,16,Q,0,right,0.895458535,1,0,,,,,,,,,,,,,,,,,,,,,1,,,,,,,,,,,,,,,,,,,,,,,,,,,,,,,,,,,,,,,,,,,,,,41,151321,19,Female,1,2024/02/09_08:48:31,YZ,59.89850928
,,,,,,calibration,0,26,2,202,17,F,1,left,0.495742795,1,0,,,,,,,,,,,,,,,,,,,,,1,,,,,,,,,,,,,,,,,,,,,,,,,,,,,,,,,,,,,,,,,,,,,,41,151321,19,Female,1,2024/02/09_08:48:31,YZ,59.89850928
,,,,,,calibration,0,26,2,202,18,S,0,right,0.448142991,1,0,,,,,,,,,,,,,,,,,,,,,1,,,,,,,,,,,,,,,,,,,,,,,,,,,,,,,,,,,,,,,,,,,,,,41,151321,19,Female,1,2024/02/09_08:48:31,YZ,59.89850928
,,,,,,calibration,0,26,2,202,19,F,1,left,0.713362249,1,0,,,,,,,,,,,,,,,,,,,,,1,,,,,,,,,,,,,,,,,,,,,,,,,,,,,,,,,,,,,,,,,,,,,,41,151321,19,Female,1,2024/02/09_08:48:31,YZ,59.89850928
,,,,,,calibration,0,26,2,202,20,J,0,right,0.344718155,1,0,,,,,,,,,,,,,,,,,,,,,1,,,,,,,,,,,,,,,,,,,,,,,,,,,,,,,,,,,,,,,,,,,,,,41,151321,19,Female,1,2024/02/09_08:48:31,YZ,59.89850928
,,,,,,calibration,0,26,2,202,21,Q,0,right,0.497976148,1,0,,,,,,,,,,,,,,,,,,,,,1,,,,,,,,,,,,,,,,,,,,,,,,,,,,,,,,,,,,,,,,,,,,,,41,151321,19,Female,1,2024/02/09_08:48:31,YZ,59.89850928
,,,,,,calibration,0,26,2,202,,,,,,,,0.877777778,0.666666667,0.066666667,0.933333333,0,0.933333333,0.563476474,4,1,0,0,0,14,18,6,15,0,,,,1,,,,,,,,,,,,,,,,,,,,,,,,,,,,,,,,,,,,,,,,,,,,,,41,151321,19,Female,1,2024/02/09_08:48:31,YZ,59.89850928
,,,,,,Calibration,0,,2,202,,,,,,,,,,,,,,,,,,,,,,,,,13,,,1,,,,,,,,,,,,,,,,,,,,,,,,,,,,,,,,,,,,,,,,,,,,,,41,151321,19,Female,1,2024/02/09_08:48:31,YZ,59.89850928
,,,,,,calibration,0,19,2,159,1,F,0,right,0.263509531,1,0,,,,,,,,,,,,,,,,,,,,,1,,,,,,,,,,,,,,,,,,,,,,,,,,,,,,,,,,,,,,,,,,,,,,41,151321,19,Female,1,2024/02/09_08:48:31,YZ,59.89850928
,,,,,,calibration,0,19,2,159,2,N,0,right,0.393945812,1,0,,,,,,,,,,,,,,,,,,,,,1,,,,,,,,,,,,,,,,,,,,,,,,,,,,,,,,,,,,,,,,,,,,,,41,151321,19,Female,1,2024/02/09_08:48:31,YZ,59.89850928
,,,,,,calibration,0,19,2,159,3,V,0,right,0.511862587,1,0,,,,,,,,,,,,,,,,,,,,,1,,,,,,,,,,,,,,,,,,,,,,,,,,,,,,,,,,,,,,,,,,,,,,41,151321,19,Female,1,2024/02/09_08:48:31,YZ,59.89850928
,,,,,,calibration,0,19,2,159,4,X,0,right,0.540586194,1,0,,,,,,,,,,,,,,,,,,,,,1,,,,,,,,,,,,,,,,,,,,,,,,,,,,,,,,,,,,,,,,,,,,,,41,151321,19,Female,1,2024/02/09_08:48:31,YZ,59.89850928
,,,,,,calibration,0,19,2,159,5,V,1,left,0.39666529,1,0,,,,,,,,,,,,,,,,,,,,,1,,,,,,,,,,,,,,,,,,,,,,,,,,,,,,,,,,,,,,,,,,,,,,41,151321,19,Female,1,2024/02/09_08:48:31,YZ,59.89850928
,,,,,,calibration,0,19,2,159,6,X,1,left,0.690490613,1,0,,,,,,,,,,,,,,,,,,,,,1,,,,,,,,,,,,,,,,,,,,,,,,,,,,,,,,,,,,,,,,,,,,,,41,151321,19,Female,1,2024/02/09_08:48:31,YZ,59.89850928
,,,,,,calibration,0,19,2,159,7,N,0,right,0.478102522,1,0,,,,,,,,,,,,,,,,,,,,,1,,,,,,,,,,,,,,,,,,,,,,,,,,,,,,,,,,,,,,,,,,,,,,41,151321,19,Female,1,2024/02/09_08:48:31,YZ,59.89850928
,,,,,,calibration,0,19,2,159,8,C,0,right,0.59442136,1,0,,,,,,,,,,,,,,,,,,,,,1,,,,,,,,,,,,,,,,,,,,,,,,,,,,,,,,,,,,,,,,,,,,,,41,151321,19,Female,1,2024/02/09_08:48:31,YZ,59.89850928
,,,,,,calibration,0,19,2,159,9,F,0,right,0.746392446,1,0,,,,,,,,,,,,,,,,,,,,,1,,,,,,,,,,,,,,,,,,,,,,,,,,,,,,,,,,,,,,,,,,,,,,41,151321,19,Female,1,2024/02/09_08:48:31,YZ,59.89850928
,,,,,,calibration,0,19,2,159,10,C,1,left,0.743046046,1,0,,,,,,,,,,,,,,,,,,,,,1,,,,,,,,,,,,,,,,,,,,,,,,,,,,,,,,,,,,,,,,,,,,,,41,151321,19,Female,1,2024/02/09_08:48:31,YZ,59.89850928
,,,,,,calibration,0,19,2,159,11,J,0,right,0.3995206,1,0,,,,,,,,,,,,,,,,,,,,,1,,,,,,,,,,,,,,,,,,,,,,,,,,,,,,,,,,,,,,,,,,,,,,41,151321,19,Female,1,2024/02/09_08:48:31,YZ,59.89850928
,,,,,,calibration,0,19,2,159,12,S,0,right,0.579845296,1,0,,,,,,,,,,,,,,,,,,,,,1,,,,,,,,,,,,,,,,,,,,,,,,,,,,,,,,,,,,,,,,,,,,,,41,151321,19,Female,1,2024/02/09_08:48:31,YZ,59.89850928
,,,,,,calibration,0,19,2,159,13,Q,0,right,0.740070942,1,0,,,,,,,,,,,,,,,,,,,,,1,,,,,,,,,,,,,,,,,,,,,,,,,,,,,,,,,,,,,,,,,,,,,,41,151321,19,Female,1,2024/02/09_08:48:31,YZ,59.89850928
,,,,,,calibration,0,19,2,159,14,V,0,right,0.676406481,1,0,,,,,,,,,,,,,,,,,,,,,1,,,,,,,,,,,,,,,,,,,,,,,,,,,,,,,,,,,,,,,,,,,,,,41,151321,19,Female,1,2024/02/09_08:48:31,YZ,59.89850928
,,,,,,calibration,0,19,2,159,15,J,0,left,0.547239442,0,0,,,,,,,,,,,,,,,,,,,,,1,,,,,,,,,,,,,,,,,,,,,,,,,,,,,,,,,,,,,,,,,,,,,,41,151321,19,Female,1,2024/02/09_08:48:31,YZ,59.89850928
,,,,,,calibration,0,19,2,159,16,V,1,right,0.473507247,0,0,,,,,,,,,,,,,,,,,,,,,1,,,,,,,,,,,,,,,,,,,,,,,,,,,,,,,,,,,,,,,,,,,,,,41,151321,19,Female,1,2024/02/09_08:48:31,YZ,59.89850928
,,,,,,calibration,0,19,2,159,17,J,1,left,0.561777309,1,0,,,,,,,,,,,,,,,,,,,,,1,,,,,,,,,,,,,,,,,,,,,,,,,,,,,,,,,,,,,,,,,,,,,,41,151321,19,Female,1,2024/02/09_08:48:31,YZ,59.89850928
,,,,,,calibration,0,19,2,159,18,C,0,right,0.489712531,1,0,,,,,,,,,,,,,,,,,,,,,1,,,,,,,,,,,,,,,,,,,,,,,,,,,,,,,,,,,,,,,,,,,,,,41,151321,19,Female,1,2024/02/09_08:48:31,YZ,59.89850928
,,,,,,calibration,0,19,2,159,19,Q,0,right,0.559451371,1,0,,,,,,,,,,,,,,,,,,,,,1,,,,,,,,,,,,,,,,,,,,,,,,,,,,,,,,,,,,,,,,,,,,,,41,151321,19,Female,1,2024/02/09_08:48:31,YZ,59.89850928
,,,,,,calibration,0,19,2,159,20,S,0,right,0.543135411,1,0,,,,,,,,,,,,,,,,,,,,,1,,,,,,,,,,,,,,,,,,,,,,,,,,,,,,,,,,,,,,,,,,,,,,41,151321,19,Female,1,2024/02/09_08:48:31,YZ,59.89850928
,,,,,,calibration,0,19,2,159,21,Q,1,left,0.762501183,1,0,,,,,,,,,,,,,,,,,,,,,1,,,,,,,,,,,,,,,,,,,,,,,,,,,,,,,,,,,,,,,,,,,,,,41,151321,19,Female,1,2024/02/09_08:48:31,YZ,59.89850928
,,,,,,calibration,0,19,2,159,22,F,0,right,0.725166262,1,0,,,,,,,,,,,,,,,,,,,,,1,,,,,,,,,,,,,,,,,,,,,,,,,,,,,,,,,,,,,,,,,,,,,,41,151321,19,Female,1,2024/02/09_08:48:31,YZ,59.89850928
,,,,,,calibration,0,19,2,159,,,,,,,,0.932291667,0.833333333,0.0625,0.9375,0,0.9375,0.564425294,5,1,0,0,0,15,20,6,16,0,,,,1,,,,,,,,,,,,,,,,,,,,,,,,,,,,,,,,,,,,,,,,,,,,,,41,151321,19,Female,1,2024/02/09_08:48:31,YZ,59.89850928
,,,,,,Calibration,0,,2,159,,,,,,,,,,,,,,,,,,,,,,,,,14,,,1,,,,,,,,,,,,,,,,,,,,,,,,,,,,,,,,,,,,,,,,,,,,,,41,151321,19,Female,1,2024/02/09_08:48:31,YZ,59.89850928
,,,,,,calibration,0,4,2,120,1,X,0,right,0.328651379,1,0,,,,,,,,,,,,,,,,,,,,,1,,,,,,,,,,,,,,,,,,,,,,,,,,,,,,,,,,,,,,,,,,,,,,41,151321,19,Female,1,2024/02/09_08:48:31,YZ,59.89850928
,,,,,,calibration,0,4,2,120,2,F,0,right,0.479271896,1,0,,,,,,,,,,,,,,,,,,,,,1,,,,,,,,,,,,,,,,,,,,,,,,,,,,,,,,,,,,,,,,,,,,,,41,151321,19,Female,1,2024/02/09_08:48:31,YZ,59.89850928
,,,,,,calibration,0,4,2,120,3,V,0,right,0.517884174,1,0,,,,,,,,,,,,,,,,,,,,,1,,,,,,,,,,,,,,,,,,,,,,,,,,,,,,,,,,,,,,,,,,,,,,41,151321,19,Female,1,2024/02/09_08:48:31,YZ,59.89850928
,,,,,,calibration,0,4,2,120,4,F,1,left,0.557458213,1,0,,,,,,,,,,,,,,,,,,,,,1,,,,,,,,,,,,,,,,,,,,,,,,,,,,,,,,,,,,,,,,,,,,,,41,151321,19,Female,1,2024/02/09_08:48:31,YZ,59.89850928
,,,,,,calibration,0,4,2,120,5,S,0,right,0.348793425,1,0,,,,,,,,,,,,,,,,,,,,,1,,,,,,,,,,,,,,,,,,,,,,,,,,,,,,,,,,,,,,,,,,,,,,41,151321,19,Female,1,2024/02/09_08:48:31,YZ,59.89850928
,,,,,,calibration,0,4,2,120,6,J,0,right,0.51370832,1,0,,,,,,,,,,,,,,,,,,,,,1,,,,,,,,,,,,,,,,,,,,,,,,,,,,,,,,,,,,,,,,,,,,,,41,151321,19,Female,1,2024/02/09_08:48:31,YZ,59.89850928
,,,,,,calibration,0,4,2,120,7,S,1,left,0.560267264,1,0,,,,,,,,,,,,,,,,,,,,,1,,,,,,,,,,,,,,,,,,,,,,,,,,,,,,,,,,,,,,,,,,,,,,41,151321,19,Female,1,2024/02/09_08:48:31,YZ,59.89850928
,,,,,,calibration,0,4,2,120,8,X,0,right,0.028433203,1,0,,,,,,,,,,,,,,,,,,,,,1,,,,,,,,,,,,,,,,,,,,,,,,,,,,,,,,,,,,,,,,,,,,,,41,151321,19,Female,1,2024/02/09_08:48:31,YZ,59.89850928
,,,,,,calibration,0,4,2,120,9,N,0,right,0.719733814,1,0,,,,,,,,,,,,,,,,,,,,,1,,,,,,,,,,,,,,,,,,,,,,,,,,,,,,,,,,,,,,,,,,,,,,41,151321,19,Female,1,2024/02/09_08:48:31,YZ,59.89850928
,,,,,,calibration,0,4,2,120,10,C,0,right,0.728306024,1,0,,,,,,,,,,,,,,,,,,,,,1,,,,,,,,,,,,,,,,,,,,,,,,,,,,,,,,,,,,,,,,,,,,,,41,151321,19,Female,1,2024/02/09_08:48:31,YZ,59.89850928
,,,,,,calibration,0,4,2,120,11,S,0,right,0.710193827,1,0,,,,,,,,,,,,,,,,,,,,,1,,,,,,,,,,,,,,,,,,,,,,,,,,,,,,,,,,,,,,,,,,,,,,41,151321,19,Female,1,2024/02/09_08:48:31,YZ,59.89850928
,,,,,,calibration,0,4,2,120,12,X,0,right,0.892727087,1,0,,,,,,,,,,,,,,,,,,,,,1,,,,,,,,,,,,,,,,,,,,,,,,,,,,,,,,,,,,,,,,,,,,,,41,151321,19,Female,1,2024/02/09_08:48:31,YZ,59.89850928
,,,,,,calibration,0,4,2,120,13,Q,0,right,0.693137889,1,0,,,,,,,,,,,,,,,,,,,,,1,,,,,,,,,,,,,,,,,,,,,,,,,,,,,,,,,,,,,,,,,,,,,,41,151321,19,Female,1,2024/02/09_08:48:31,YZ,59.89850928
,,,,,,calibration,0,4,2,120,14,N,0,right,nan,0,1,,,,,,,,,,,,,,,,,,,,,1,,,,,,,,,,,,,,,,,,,,,,,,,,,,,,,,,,,,,,,,,,,,,,41,151321,19,Female,1,2024/02/09_08:48:31,YZ,59.89850928
,,,,,,calibration,0,4,2,120,15,Q,1,left,0.610621725,1,0,,,,,,,,,,,,,,,,,,,,,1,,,,,,,,,,,,,,,,,,,,,,,,,,,,,,,,,,,,,,,,,,,,,,41,151321,19,Female,1,2024/02/09_08:48:31,YZ,59.89850928
,,,,,,calibration,0,4,2,120,16,X,0,right,0.726553981,1,0,,,,,,,,,,,,,,,,,,,,,1,,,,,,,,,,,,,,,,,,,,,,,,,,,,,,,,,,,,,,,,,,,,,,41,151321,19,Female,1,2024/02/09_08:48:31,YZ,59.89850928
,,,,,,calibration,0,4,2,120,17,Q,1,left,0.576423033,1,0,,,,,,,,,,,,,,,,,,,,,1,,,,,,,,,,,,,,,,,,,,,,,,,,,,,,,,,,,,,,,,,,,,,,41,151321,19,Female,1,2024/02/09_08:48:31,YZ,59.89850928
,,,,,,calibration,0,4,2,120,18,C,0,right,0.440939607,1,0,,,,,,,,,,,,,,,,,,,,,1,,,,,,,,,,,,,,,,,,,,,,,,,,,,,,,,,,,,,,,,,,,,,,41,151321,19,Female,1,2024/02/09_08:48:31,YZ,59.89850928
,,,,,,calibration,0,4,2,120,19,X,0,right,0.561435255,1,0,,,,,,,,,,,,,,,,,,,,,1,,,,,,,,,,,,,,,,,,,,,,,,,,,,,,,,,,,,,,,,,,,,,,41,151321,19,Female,1,2024/02/09_08:48:31,YZ,59.89850928
,,,,,,calibration,0,4,2,120,20,C,1,left,0.543261033,1,0,,,,,,,,,,,,,,,,,,,,,1,,,,,,,,,,,,,,,,,,,,,,,,,,,,,,,,,,,,,,,,,,,,,,41,151321,19,Female,1,2024/02/09_08:48:31,YZ,59.89850928
,,,,,,calibration,0,4,2,120,21,N,0,right,0.487666822,1,0,,,,,,,,,,,,,,,,,,,,,1,,,,,,,,,,,,,,,,,,,,,,,,,,,,,,,,,,,,,,,,,,,,,,41,151321,19,Female,1,2024/02/09_08:48:31,YZ,59.89850928
,,,,,,calibration,0,4,2,120,22,J,0,right,0.446931001,1,0,,,,,,,,,,,,,,,,,,,,,1,,,,,,,,,,,,,,,,,,,,,,,,,,,,,,,,,,,,,,,,,,,,,,41,151321,19,Female,1,2024/02/09_08:48:31,YZ,59.89850928
,,,,,,calibration,0,4,2,120,23,N,1,left,0.582938223,1,0,,,,,,,,,,,,,,,,,,,,,1,,,,,,,,,,,,,,,,,,,,,,,,,,,,,,,,,,,,,,,,,,,,,,41,151321,19,Female,1,2024/02/09_08:48:31,YZ,59.89850928
,,,,,,calibration,0,4,2,120,,,,,,,,1,1,0,1,0.043478261,0.956521739,0.547969873,6,0,0,1,1,16,22,6,17,0,,,,1,,,,,,,,,,,,,,,,,,,,,,,,,,,,,,,,,,,,,,,,,,,,,,41,151321,19,Female,1,2024/02/09_08:48:31,YZ,59.89850928
,,,,,,Calibration,0,,2,120,,,,,,,,,,,,,,,,,,,,,,,,,15,,,1,,,,,,,,,,,,,,,,,,,,,,,,,,,,,,,,,,,,,,,,,,,,,,41,151321,19,Female,1,2024/02/09_08:48:31,YZ,59.89850928
,,,,,,CALIBRATION,0,,,,,,,,,,,,,,,,,,,,,,,,,,,,15,1,120,1,,,,,,,,,,,,,,,,,,,,,,,,,,,,,,,,,,,,,,,,,,,,,,41,151321,19,Female,1,2024/02/09_08:48:31,YZ,59.89850928
1,./instructions/inst_prac_1/Slide24.png,right,25.88116271,488.0264863,513.907649,,,,,,,,,,,,,,,,,,,,,,,,,,,,,,,,,1,,,,,,,,,,,,,,,,,,,,,,,,,,,,,,,,,,,,,,,,,,,,,,41,151321,19,Female,1,2024/02/09_08:48:31,YZ,59.89850928
2,./instructions/inst_prac_1/Slide25.png,right,2.890535883,513.9608768,516.8514127,,,,,,,,,,,,,,,,,,,,,,,,,,,,,,,,,1,,,,,,,,,,,,,,,,,,,,,,,,,,,,,,,,,,,,,,,,,,,,,,41,151321,19,Female,1,2024/02/09_08:48:31,YZ,59.89850928
3,./instructions/inst_prac_1/Slide26.png,right,0.712140149,516.9075164,517.6196565,,,,,,,,,,,,,,,,,,,,,,,,,,,,,,,,,1,,,,,,,,,,,,,,,,,,,,,,,,,,,,,,,,,,,,,,,,,,,,,,41,151321,19,Female,1,2024/02/09_08:48:31,YZ,59.89850928
4,./instructions/inst_prac_1/Slide27.png,right,0.660640737,517.6549514,518.3155922,,,,,,,,,,,,,,,,,,,,,,,,,,,,,,,,,1,,,,,,,,,,,,,,,,,,,,,,,,,,,,,,,,,,,,,,,,,,,,,,41,151321,19,Female,1,2024/02/09_08:48:31,YZ,59.89850928
5,./instructions/inst_prac_1/Slide28.png,right,0.630933783,518.3484742,518.979408,,,,,,,,,,,,,,,,,,,,,,,,,,,,,,,,,1,,,,,,,,,,,,,,,,,,,,,,,,,,,,,,,,,,,,,,,,,,,,,,41,151321,19,Female,1,2024/02/09_08:48:31,YZ,59.89850928
4,./instructions/inst_prac_1/Slide29.png,left,1.437528588,519.0140974,520.451626,,,,,,,,,,,,,,,,,,,,,,,,,,,,,,,,,1,,,,,,,,,,,,,,,,,,,,,,,,,,,,,,,,,,,,,,,,,,,,,,41,151321,19,Female,1,2024/02/09_08:48:31,YZ,59.89850928
3,./instructions/inst_prac_1/Slide28.png,left,1.016182425,520.4835604,521.4997428,,,,,,,,,,,,,,,,,,,,,,,,,,,,,,,,,1,,,,,,,,,,,,,,,,,,,,,,,,,,,,,,,,,,,,,,,,,,,,,,41,151321,19,Female,1,2024/02/09_08:48:31,YZ,59.89850928
4,./instructions/inst_prac_1/Slide27.png,right,0.771433836,521.5281214,522.2995552,,,,,,,,,,,,,,,,,,,,,,,,,,,,,,,,,1,,,,,,,,,,,,,,,,,,,,,,,,,,,,,,,,,,,,,,,,,,,,,,41,151321,19,Female,1,2024/02/09_08:48:31,YZ,59.89850928
5,./instructions/inst_prac_1/Slide28.png,right,0.398188741,522.3332241,522.7314128,,,,,,,,,,,,,,,,,,,,,,,,,,,,,,,,,1,,,,,,,,,,,,,,,,,,,,,,,,,,,,,,,,,,,,,,,,,,,,,,41,151321,19,Female,1,2024/02/09_08:48:31,YZ,59.89850928
4,./instructions/inst_prac_1/Slide29.png,left,17.34937127,522.7663762,540.1157474,,,,,,,,,,,,,,,,,,,,,,,,,,,,,,,,,1,,,,,,,,,,,,,,,,,,,,,,,,,,,,,,,,,,,,,,,,,,,,,,41,151321,19,Female,1,2024/02/09_08:48:31,YZ,59.89850928
5,./instructions/inst_prac_1/Slide28.png,right,1.183642739,540.1476814,541.3313241,,,,,,,,,,,,,,,,,,,,,,,,,,,,,,,,,1,,,,,,,,,,,,,,,,,,,,,,,,,,,,,,,,,,,,,,,,,,,,,,41,151321,19,Female,1,2024/02/09_08:48:31,YZ,59.89850928
6,./instructions/inst_prac_1/Slide29.png,right,0.331829262,541.3597034,541.6915327,,,,,,,,,,,,,,,,,,,,,,,,,,,,,,,,,1,,,,,,,,,,,,,,,,,,,,,,,,,,,,,,,,,,,,,,,,,,,,,,41,151321,19,Female,1,2024/02/09_08:48:31,YZ,59.89850928
7,./instructions/inst_prac_1/Slide30.png,right,0.20049342,541.7438438,541.9443372,,,,,,,,,,,,,,,,,,,,,,,,,,,,,,,,,1,,,,,,,,,,,,,,,,,,,,,,,,,,,,,,,,,,,,,,,,,,,,,,41,151321,19,Female,1,2024/02/09_08:48:31,YZ,59.89850928
,,,,,,practice,0,26,1,1250,1,S,0,right,3.292933611,1,0,,,,,,,,,,,,,,,,,,,,,1,,,,,,,,,,,,,,,,,,,,,,,,,,,,,,,,,,,,,,,,,,,,,,41,151321,19,Female,1,2024/02/09_08:48:31,YZ,59.89850928
,,,,,,practice,0,26,1,1250,2,V,0,right,1.213337517,1,0,,,,,,,,,,,,,,,,,,,,,1,,,,,,,,,,,,,,,,,,,,,,,,,,,,,,,,,,,,,,,,,,,,,,41,151321,19,Female,1,2024/02/09_08:48:31,YZ,59.89850928
,,,,,,practice,0,26,1,1250,3,N,0,right,0.694922379,1,0,,,,,,,,,,,,,,,,,,,,,1,,,,,,,,,,,,,,,,,,,,,,,,,,,,,,,,,,,,,,,,,,,,,,41,151321,19,Female,1,2024/02/09_08:48:31,YZ,59.89850928
,,,,,,practice,0,26,1,1250,4,N,1,left,0.846857124,1,0,,,,,,,,,,,,,,,,,,,,,1,,,,,,,,,,,,,,,,,,,,,,,,,,,,,,,,,,,,,,,,,,,,,,41,151321,19,Female,1,2024/02/09_08:48:31,YZ,59.89850928
,,,,,,practice,0,26,1,1250,5,C,0,right,1.688079563,1,0,,,,,,,,,,,,,,,,,,,,,1,,,,,,,,,,,,,,,,,,,,,,,,,,,,,,,,,,,,,,,,,,,,,,41,151321,19,Female,1,2024/02/09_08:48:31,YZ,59.89850928
,,,,,,practice,0,26,1,1250,6,Q,0,right,0.769307935,1,0,,,,,,,,,,,,,,,,,,,,,1,,,,,,,,,,,,,,,,,,,,,,,,,,,,,,,,,,,,,,,,,,,,,,41,151321,19,Female,1,2024/02/09_08:48:31,YZ,59.89850928
,,,,,,practice,0,26,1,1250,7,Q,1,left,0.889294041,1,0,,,,,,,,,,,,,,,,,,,,,1,,,,,,,,,,,,,,,,,,,,,,,,,,,,,,,,,,,,,,,,,,,,,,41,151321,19,Female,1,2024/02/09_08:48:31,YZ,59.89850928
,,,,,,practice,0,26,1,1250,8,N,0,right,0.955481642,1,0,,,,,,,,,,,,,,,,,,,,,1,,,,,,,,,,,,,,,,,,,,,,,,,,,,,,,,,,,,,,,,,,,,,,41,151321,19,Female,1,2024/02/09_08:48:31,YZ,59.89850928
,,,,,,practice,0,26,1,1250,9,Q,0,right,0.667051325,1,0,,,,,,,,,,,,,,,,,,,,,1,,,,,,,,,,,,,,,,,,,,,,,,,,,,,,,,,,,,,,,,,,,,,,41,151321,19,Female,1,2024/02/09_08:48:31,YZ,59.89850928
,,,,,,practice,0,26,1,1250,10,Q,1,left,1.506596774,1,0,,,,,,,,,,,,,,,,,,,,,1,,,,,,,,,,,,,,,,,,,,,,,,,,,,,,,,,,,,,,,,,,,,,,41,151321,19,Female,1,2024/02/09_08:48:31,YZ,59.89850928
,,,,,,practice,0,26,1,1250,,,,,,,,1,1,0,1,0,1,1.252386191,3,0,0,0,0,7,10,3,7,0,,,,1,,,,,,,,,,,,,,,,,,,,,,,,,,,,,,,,,,,,,,,,,,,,,,41,151321,19,Female,1,2024/02/09_08:48:31,YZ,59.89850928
1,./instructions/inst_prac_1_next/Slide35.png,right,2.850119267,565.0656544,567.9157737,,,,,,,,,,,,,,,,,,,,,,,,,,,,,,,,,1,,,,,,,,,,,,,,,,,,,,,,,,,,,,,,,,,,,,,,,,,,,,,,41,151321,19,Female,1,2024/02/09_08:48:31,YZ,59.89850928
,,,,,,practice,0,14,1,120,1,X,0,right,0.990396593,1,0,,,,,,,,,,,,,,,,,,,,,1,,,,,,,,,,,,,,,,,,,,,,,,,,,,,,,,,,,,,,,,,,,,,,41,151321,19,Female,1,2024/02/09_08:48:31,YZ,59.89850928
,,,,,,practice,0,14,1,120,2,Q,0,right,1.001189839,1,0,,,,,,,,,,,,,,,,,,,,,1,,,,,,,,,,,,,,,,,,,,,,,,,,,,,,,,,,,,,,,,,,,,,,41,151321,19,Female,1,2024/02/09_08:48:31,YZ,59.89850928
,,,,,,practice,0,14,1,120,3,Q,1,left,0.477923875,1,0,,,,,,,,,,,,,,,,,,,,,1,,,,,,,,,,,,,,,,,,,,,,,,,,,,,,,,,,,,,,,,,,,,,,41,151321,19,Female,1,2024/02/09_08:48:31,YZ,59.89850928
,,,,,,practice,0,14,1,120,4,V,0,right,0.357083484,1,0,,,,,,,,,,,,,,,,,,,,,1,,,,,,,,,,,,,,,,,,,,,,,,,,,,,,,,,,,,,,,,,,,,,,41,151321,19,Female,1,2024/02/09_08:48:31,YZ,59.89850928
,,,,,,practice,0,14,1,120,5,V,1,left,0.429330561,1,0,,,,,,,,,,,,,,,,,,,,,1,,,,,,,,,,,,,,,,,,,,,,,,,,,,,,,,,,,,,,,,,,,,,,41,151321,19,Female,1,2024/02/09_08:48:31,YZ,59.89850928
,,,,,,practice,0,14,1,120,6,Q,0,right,0.469861852,1,0,,,,,,,,,,,,,,,,,,,,,1,,,,,,,,,,,,,,,,,,,,,,,,,,,,,,,,,,,,,,,,,,,,,,41,151321,19,Female,1,2024/02/09_08:48:31,YZ,59.89850928
,,,,,,practice,0,14,1,120,7,Q,1,left,0.353647618,1,0,,,,,,,,,,,,,,,,,,,,,1,,,,,,,,,,,,,,,,,,,,,,,,,,,,,,,,,,,,,,,,,,,,,,41,151321,19,Female,1,2024/02/09_08:48:31,YZ,59.89850928
,,,,,,practice,0,14,1,120,8,J,0,right,0.759448283,1,0,,,,,,,,,,,,,,,,,,,,,1,,,,,,,,,,,,,,,,,,,,,,,,,,,,,,,,,,,,,,,,,,,,,,41,151321,19,Female,1,2024/02/09_08:48:31,YZ,59.89850928
,,,,,,practice,0,14,1,120,9,F,0,right,0.729976443,1,0,,,,,,,,,,,,,,,,,,,,,1,,,,,,,,,,,,,,,,,,,,,,,,,,,,,,,,,,,,,,,,,,,,,,41,151321,19,Female,1,2024/02/09_08:48:31,YZ,59.89850928
,,,,,,practice,0,14,1,120,10,V,0,right,0.530581886,1,0,,,,,,,,,,,,,,,,,,,,,1,,,,,,,,,,,,,,,,,,,,,,,,,,,,,,,,,,,,,,,,,,,,,,41,151321,19,Female,1,2024/02/09_08:48:31,YZ,59.89850928
,,,,,,practice,0,14,1,120,11,V,1,left,0.411646806,1,0,,,,,,,,,,,,,,,,,,,,,1,,,,,,,,,,,,,,,,,,,,,,,,,,,,,,,,,,,,,,,,,,,,,,41,151321,19,Female,1,2024/02/09_08:48:31,YZ,59.89850928
,,,,,,practice,0,14,1,120,12,Q,0,right,0.470598959,1,0,,,,,,,,,,,,,,,,,,,,,1,,,,,,,,,,,,,,,,,,,,,,,,,,,,,,,,,,,,,,,,,,,,,,41,151321,19,Female,1,2024/02/09_08:48:31,YZ,59.89850928
,,,,,,practice,0,14,1,120,13,V,0,right,0.494258117,1,0,,,,,,,,,,,,,,,,,,,,,1,,,,,,,,,,,,,,,,,,,,,,,,,,,,,,,,,,,,,,,,,,,,,,41,151321,19,Female,1,2024/02/09_08:48:31,YZ,59.89850928
,,,,,,practice,0,14,1,120,14,C,0,right,0.475260647,1,0,,,,,,,,,,,,,,,,,,,,,1,,,,,,,,,,,,,,,,,,,,,,,,,,,,,,,,,,,,,,,,,,,,,,41,151321,19,Female,1,2024/02/09_08:48:31,YZ,59.89850928
,,,,,,practice,0,14,1,120,15,C,1,left,0.472954941,1,0,,,,,,,,,,,,,,,,,,,,,1,,,,,,,,,,,,,,,,,,,,,,,,,,,,,,,,,,,,,,,,,,,,,,41,151321,19,Female,1,2024/02/09_08:48:31,YZ,59.89850928
,,,,,,practice,0,14,1,120,16,N,0,right,0.512886083,1,0,,,,,,,,,,,,,,,,,,,,,1,,,,,,,,,,,,,,,,,,,,,,,,,,,,,,,,,,,,,,,,,,,,,,41,151321,19,Female,1,2024/02/09_08:48:31,YZ,59.89850928
,,,,,,practice,0,14,1,120,17,Q,0,right,0.556214806,1,0,,,,,,,,,,,,,,,,,,,,,1,,,,,,,,,,,,,,,,,,,,,,,,,,,,,,,,,,,,,,,,,,,,,,41,151321,19,Female,1,2024/02/09_08:48:31,YZ,59.89850928
,,,,,,practice,0,14,1,120,18,Q,1,left,0.499529908,1,0,,,,,,,,,,,,,,,,,,,,,1,,,,,,,,,,,,,,,,,,,,,,,,,,,,,,,,,,,,,,,,,,,,,,41,151321,19,Female,1,2024/02/09_08:48:31,YZ,59.89850928
,,,,,,practice,0,14,1,120,19,V,0,right,0.506241311,1,0,,,,,,,,,,,,,,,,,,,,,1,,,,,,,,,,,,,,,,,,,,,,,,,,,,,,,,,,,,,,,,,,,,,,41,151321,19,Female,1,2024/02/09_08:48:31,YZ,59.89850928
,,,,,,practice,0,14,1,120,20,C,0,right,0.578592144,1,0,,,,,,,,,,,,,,,,,,,,,1,,,,,,,,,,,,,,,,,,,,,,,,,,,,,,,,,,,,,,,,,,,,,,41,151321,19,Female,1,2024/02/09_08:48:31,YZ,59.89850928
,,,,,,practice,0,14,1,120,21,C,1,left,0.474305682,1,0,,,,,,,,,,,,,,,,,,,,,1,,,,,,,,,,,,,,,,,,,,,,,,,,,,,,,,,,,,,,,,,,,,,,41,151321,19,Female,1,2024/02/09_08:48:31,YZ,59.89850928
,,,,,,practice,0,14,1,120,22,V,0,right,0.290541992,1,0,,,,,,,,,,,,,,,,,,,,,1,,,,,,,,,,,,,,,,,,,,,,,,,,,,,,,,,,,,,,,,,,,,,,41,151321,19,Female,1,2024/02/09_08:48:31,YZ,59.89850928
,,,,,,practice,0,14,1,120,23,X,0,right,0.514145859,1,0,,,,,,,,,,,,,,,,,,,,,1,,,,,,,,,,,,,,,,,,,,,,,,,,,,,,,,,,,,,,,,,,,,,,41,151321,19,Female,1,2024/02/09_08:48:31,YZ,59.89850928
,,,,,,practice,0,14,1,120,,,,,,,,1,1,0,1,0,1,0.537244247,7,0,0,0,0,16,23,7,16,0,,,,1,,,,,,,,,,,,,,,,,,,,,,,,,,,,,,,,,,,,,,,,,,,,,,41,151321,19,Female,1,2024/02/09_08:48:31,YZ,59.89850928
,,,,,,practice,0,35,1,120,1,S,0,right,0.627948959,1,0,,,,,,,,,,,,,,,,,,,,,1,,,,,,,,,,,,,,,,,,,,,,,,,,,,,,,,,,,,,,,,,,,,,,41,151321,19,Female,1,2024/02/09_08:48:31,YZ,59.89850928
,,,,,,practice,0,35,1,120,2,S,1,left,0.642060871,1,0,,,,,,,,,,,,,,,,,,,,,1,,,,,,,,,,,,,,,,,,,,,,,,,,,,,,,,,,,,,,,,,,,,,,41,151321,19,Female,1,2024/02/09_08:48:31,YZ,59.89850928
,,,,,,practice,0,35,1,120,3,V,0,right,0.37093923,1,0,,,,,,,,,,,,,,,,,,,,,1,,,,,,,,,,,,,,,,,,,,,,,,,,,,,,,,,,,,,,,,,,,,,,41,151321,19,Female,1,2024/02/09_08:48:31,YZ,59.89850928
,,,,,,practice,0,35,1,120,4,X,0,right,0.461211848,1,0,,,,,,,,,,,,,,,,,,,,,1,,,,,,,,,,,,,,,,,,,,,,,,,,,,,,,,,,,,,,,,,,,,,,41,151321,19,Female,1,2024/02/09_08:48:31,YZ,59.89850928
,,,,,,practice,0,35,1,120,5,S,0,right,0.710391068,1,0,,,,,,,,,,,,,,,,,,,,,1,,,,,,,,,,,,,,,,,,,,,,,,,,,,,,,,,,,,,,,,,,,,,,41,151321,19,Female,1,2024/02/09_08:48:31,YZ,59.89850928
,,,,,,practice,0,35,1,120,6,Q,0,right,0.674137201,1,0,,,,,,,,,,,,,,,,,,,,,1,,,,,,,,,,,,,,,,,,,,,,,,,,,,,,,,,,,,,,,,,,,,,,41,151321,19,Female,1,2024/02/09_08:48:31,YZ,59.89850928
,,,,,,practice,0,35,1,120,7,J,0,right,0.466139923,1,0,,,,,,,,,,,,,,,,,,,,,1,,,,,,,,,,,,,,,,,,,,,,,,,,,,,,,,,,,,,,,,,,,,,,41,151321,19,Female,1,2024/02/09_08:48:31,YZ,59.89850928
,,,,,,practice,0,35,1,120,8,X,0,right,0.604500351,1,0,,,,,,,,,,,,,,,,,,,,,1,,,,,,,,,,,,,,,,,,,,,,,,,,,,,,,,,,,,,,,,,,,,,,41,151321,19,Female,1,2024/02/09_08:48:31,YZ,59.89850928
,,,,,,practice,0,35,1,120,9,F,0,right,0.413940151,1,0,,,,,,,,,,,,,,,,,,,,,1,,,,,,,,,,,,,,,,,,,,,,,,,,,,,,,,,,,,,,,,,,,,,,41,151321,19,Female,1,2024/02/09_08:48:31,YZ,59.89850928
,,,,,,practice,0,35,1,120,10,Q,0,right,0.447146617,1,0,,,,,,,,,,,,,,,,,,,,,1,,,,,,,,,,,,,,,,,,,,,,,,,,,,,,,,,,,,,,,,,,,,,,41,151321,19,Female,1,2024/02/09_08:48:31,YZ,59.89850928
,,,,,,practice,0,35,1,120,11,J,0,right,0.430710424,1,0,,,,,,,,,,,,,,,,,,,,,1,,,,,,,,,,,,,,,,,,,,,,,,,,,,,,,,,,,,,,,,,,,,,,41,151321,19,Female,1,2024/02/09_08:48:31,YZ,59.89850928
,,,,,,practice,0,35,1,120,12,X,0,right,0.637194548,1,0,,,,,,,,,,,,,,,,,,,,,1,,,,,,,,,,,,,,,,,,,,,,,,,,,,,,,,,,,,,,,,,,,,,,41,151321,19,Female,1,2024/02/09_08:48:31,YZ,59.89850928
,,,,,,practice,0,35,1,120,13,X,1,left,0.364509537,1,0,,,,,,,,,,,,,,,,,,,,,1,,,,,,,,,,,,,,,,,,,,,,,,,,,,,,,,,,,,,,,,,,,,,,41,151321,19,Female,1,2024/02/09_08:48:31,YZ,59.89850928
,,,,,,practice,0,35,1,120,14,C,0,right,0.487722374,1,0,,,,,,,,,,,,,,,,,,,,,1,,,,,,,,,,,,,,,,,,,,,,,,,,,,,,,,,,,,,,,,,,,,,,41,151321,19,Female,1,2024/02/09_08:48:31,YZ,59.89850928
,,,,,,practice,0,35,1,120,15,F,0,right,0.434553564,1,0,,,,,,,,,,,,,,,,,,,,,1,,,,,,,,,,,,,,,,,,,,,,,,,,,,,,,,,,,,,,,,,,,,,,41,151321,19,Female,1,2024/02/09_08:48:31,YZ,59.89850928
,,,,,,practice,0,35,1,120,16,F,1,left,0.549143728,1,0,,,,,,,,,,,,,,,,,,,,,1,,,,,,,,,,,,,,,,,,,,,,,,,,,,,,,,,,,,,,,,,,,,,,41,151321,19,Female,1,2024/02/09_08:48:31,YZ,59.89850928
,,,,,,practice,0,35,1,120,17,V,0,right,0.293690191,1,0,,,,,,,,,,,,,,,,,,,,,1,,,,,,,,,,,,,,,,,,,,,,,,,,,,,,,,,,,,,,,,,,,,,,41,151321,19,Female,1,2024/02/09_08:48:31,YZ,59.89850928
,,,,,,practice,0,35,1,120,18,V,1,right,0.349681631,0,0,,,,,,,,,,,,,,,,,,,,,1,,,,,,,,,,,,,,,,,,,,,,,,,,,,,,,,,,,,,,,,,,,,,,41,151321,19,Female,1,2024/02/09_08:48:31,YZ,59.89850928
,,,,,,practice,0,35,1,120,19,Q,0,right,0,1,0,,,,,,,,,,,,,,,,,,,,,1,,,,,,,,,,,,,,,,,,,,,,,,,,,,,,,,,,,,,,,,,,,,,,41,151321,19,Female,1,2024/02/09_08:48:31,YZ,59.89850928
,,,,,,practice,0,35,1,120,20,Q,1,right,0,0,0,,,,,,,,,,,,,,,,,,,,,1,,,,,,,,,,,,,,,,,,,,,,,,,,,,,,,,,,,,,,,,,,,,,,41,151321,19,Female,1,2024/02/09_08:48:31,YZ,59.89850928
,,,,,,practice,0,35,1,120,21,F,0,right,0.599503536,1,0,,,,,,,,,,,,,,,,,,,,,1,,,,,,,,,,,,,,,,,,,,,,,,,,,,,,,,,,,,,,,,,,,,,,41,151321,19,Female,1,2024/02/09_08:48:31,YZ,59.89850928
,,,,,,practice,0,35,1,120,22,C,0,right,0.831118812,1,0,,,,,,,,,,,,,,,,,,,,,1,,,,,,,,,,,,,,,,,,,,,,,,,,,,,,,,,,,,,,,,,,,,,,41,151321,19,Female,1,2024/02/09_08:48:31,YZ,59.89850928
,,,,,,practice,0,35,1,120,23,C,1,left,0.565159868,1,0,,,,,,,,,,,,,,,,,,,,,1,,,,,,,,,,,,,,,,,,,,,,,,,,,,,,,,,,,,,,,,,,,,,,41,151321,19,Female,1,2024/02/09_08:48:31,YZ,59.89850928
,,,,,,practice,0,35,1,120,,,,,,,,0.916666667,0.666666667,0,1,0,1,0.476582801,4,0,0,0,0,17,21,6,17,0,,,,1,,,,,,,,,,,,,,,,,,,,,,,,,,,,,,,,,,,,,,,,,,,,,,41,151321,19,Female,1,2024/02/09_08:48:31,YZ,59.89850928
1,./instructions/inst_prac_3/Slide37.png,right,16.11016414,619.621704,635.7318682,,,,,,,,,,,,,,,,,,,,,,,,,,,,,,,,,1,,,,,,,,,,,,,,,,,,,,,,,,,,,,,,,,,,,,,,,,,,,,,,41,151321,19,Female,1,2024/02/09_08:48:31,YZ,59.89850928
2,./instructions/inst_prac_3/Slide38.png,right,1.035205268,635.7843955,636.8196007,,,,,,,,,,,,,,,,,,,,,,,,,,,,,,,,,1,,,,,,,,,,,,,,,,,,,,,,,,,,,,,,,,,,,,,,,,,,,,,,41,151321,19,Female,1,2024/02/09_08:48:31,YZ,59.89850928
3,./instructions/inst_prac_3/Slide39.png,right,0.513928091,636.849528,637.363456,,,,,,,,,,,,,,,,,,,,,,,,,,,,,,,,,1,,,,,,,,,,,,,,,,,,,,,,,,,,,,,,,,,,,,,,,,,,,,,,41,151321,19,Female,1,2024/02/09_08:48:31,YZ,59.89850928
4,./instructions/inst_prac_3/Slide40.png,right,0.476316328,637.3993829,637.8756992,,,,,,,,,,,,,,,,,,,,,,,,,,,,,,,,,1,,,,,,,,,,,,,,,,,,,,,,,,,,,,,,,,,,,,,,,,,,,,,,41,151321,19,Female,1,2024/02/09_08:48:31,YZ,59.89850928
5,./instructions/inst_prac_3/Slide41.png,right,0.980284413,637.9114742,638.8917587,,,,,,,,,,,,,,,,,,,,,,,,,,,,,,,,,1,,,,,,,,,,,,,,,,,,,,,,,,,,,,,,,,,,,,,,,,,,,,,,41,151321,19,Female,1,2024/02/09_08:48:31,YZ,59.89850928
4,./instructions/inst_prac_3/Slide42.png,left,1.452038928,638.9277244,640.3797634,,,,,,,,,,,,,,,,,,,,,,,,,,,,,,,,,1,,,,,,,,,,,,,,,,,,,,,,,,,,,,,,,,,,,,,,,,,,,,,,41,151321,19,Female,1,2024/02/09_08:48:31,YZ,59.89850928
5,./instructions/inst_prac_3/Slide41.png,right,0.661203254,640.4144591,641.0756624,,,,,,,,,,,,,,,,,,,,,,,,,,,,,,,,,1,,,,,,,,,,,,,,,,,,,,,,,,,,,,,,,,,,,,,,,,,,,,,,41,151321,19,Female,1,2024/02/09_08:48:31,YZ,59.89850928
6,./instructions/inst_prac_3/Slide42.png,right,0.444924157,641.1106756,641.5555997,,,,,,,,,,,,,,,,,,,,,,,,,,,,,,,,,1,,,,,,,,,,,,,,,,,,,,,,,,,,,,,,,,,,,,,,,,,,,,,,41,151321,19,Female,1,2024/02/09_08:48:31,YZ,59.89850928
7,./instructions/inst_prac_3/Slide43.png,right,5.519512259,641.58813,647.1076422,,,,,,,,,,,,,,,,,,,,,,,,,,,,,,,,,1,,,,,,,,,,,,,,,,,,,,,,,,,,,,,,,,,,,,,,,,,,,,,,41,151321,19,Female,1,2024/02/09_08:48:31,YZ,59.89850928
8,./instructions/inst_prac_3/Slide44.png,right,5.34220487,647.1411862,652.4833911,,,,,,,,,,,,,,,,,,,,,,,,,,,,,,,,,1,,,,,,,,,,,,,,,,,,,,,,,,,,,,,,,,,,,,,,,,,,,,,,41,151321,19,Female,1,2024/02/09_08:48:31,YZ,59.89850928
,,,,,,practice,0,16,3,788,1,F,0,right,1.109355146,1,0,,,,,,,,,,,,,,,,,,,,,1,,,,,,,,,,,,,,,,,,,,,,,,,,,,,,,,,,,,,,,,,,,,,,41,151321,19,Female,1,2024/02/09_08:48:31,YZ,59.89850928
,,,,,,practice,0,16,3,788,2,C,0,right,0.638245511,1,0,,,,,,,,,,,,,,,,,,,,,1,,,,,,,,,,,,,,,,,,,,,,,,,,,,,,,,,,,,,,,,,,,,,,41,151321,19,Female,1,2024/02/09_08:48:31,YZ,59.89850928
,,,,,,practice,0,16,3,788,3,C,0,left,0.80626746,0,0,,,,,,,,,,,,,,,,,,,,,1,,,,,,,,,,,,,,,,,,,,,,,,,,,,,,,,,,,,,,,,,,,,,,41,151321,19,Female,1,2024/02/09_08:48:31,YZ,59.89850928
,,,,,,practice,0,16,3,788,4,F,1,left,1.843195482,1,0,,,,,,,,,,,,,,,,,,,,,1,,,,,,,,,,,,,,,,,,,,,,,,,,,,,,,,,,,,,,,,,,,,,,41,151321,19,Female,1,2024/02/09_08:48:31,YZ,59.89850928
,,,,,,practice,0,16,3,788,5,C,1,left,0.85562038,1,0,,,,,,,,,,,,,,,,,,,,,1,,,,,,,,,,,,,,,,,,,,,,,,,,,,,,,,,,,,,,,,,,,,,,41,151321,19,Female,1,2024/02/09_08:48:31,YZ,59.89850928
,,,,,,practice,0,16,3,788,6,N,0,right,2.850193072,1,0,,,,,,,,,,,,,,,,,,,,,1,,,,,,,,,,,,,,,,,,,,,,,,,,,,,,,,,,,,,,,,,,,,,,41,151321,19,Female,1,2024/02/09_08:48:31,YZ,59.89850928
,,,,,,practice,0,16,3,788,7,J,0,right,12.04916715,1,0,,,,,,,,,,,,,,,,,,,,,1,,,,,,,,,,,,,,,,,,,,,,,,,,,,,,,,,,,,,,,,,,,,,,41,151321,19,Female,1,2024/02/09_08:48:31,YZ,59.89850928
,,,,,,practice,0,16,3,788,8,F,0,right,1.91891799,1,0,,,,,,,,,,,,,,,,,,,,,1,,,,,,,,,,,,,,,,,,,,,,,,,,,,,,,,,,,,,,,,,,,,,,41,151321,19,Female,1,2024/02/09_08:48:31,YZ,59.89850928
,,,,,,practice,0,16,3,788,9,J,0,left,1.695137383,0,0,,,,,,,,,,,,,,,,,,,,,1,,,,,,,,,,,,,,,,,,,,,,,,,,,,,,,,,,,,,,,,,,,,,,41,151321,19,Female,1,2024/02/09_08:48:31,YZ,59.89850928
,,,,,,practice,0,16,3,788,10,J,1,left,8.431264283,1,0,,,,,,,,,,,,,,,,,,,,,1,,,,,,,,,,,,,,,,,,,,,,,,,,,,,,,,,,,,,,,,,,,,,,41,151321,19,Female,1,2024/02/09_08:48:31,YZ,59.89850928
,,,,,,practice,0,16,3,788,11,Q,0,right,0.875708088,1,0,,,,,,,,,,,,,,,,,,,,,1,,,,,,,,,,,,,,,,,,,,,,,,,,,,,,,,,,,,,,,,,,,,,,41,151321,19,Female,1,2024/02/09_08:48:31,YZ,59.89850928
,,,,,,practice,0,16,3,788,12,J,1,left,1.050029959,1,0,,,,,,,,,,,,,,,,,,,,,1,,,,,,,,,,,,,,,,,,,,,,,,,,,,,,,,,,,,,,,,,,,,,,41,151321,19,Female,1,2024/02/09_08:48:31,YZ,59.89850928
,,,,,,practice,0,16,3,788,13,S,0,right,1.464317845,1,0,,,,,,,,,,,,,,,,,,,,,1,,,,,,,,,,,,,,,,,,,,,,,,,,,,,,,,,,,,,,,,,,,,,,41,151321,19,Female,1,2024/02/09_08:48:31,YZ,59.89850928
,,,,,,practice,0,16,3,788,,,,,,,,0.944444444,1,0.222222222,0.777777778,0,0.777777778,2.737493827,4,2,0,0,0,7,11,4,9,0,,,,1,,,,,,,,,,,,,,,,,,,,,,,,,,,,,,,,,,,,,,,,,,,,,,41,151321,19,Female,1,2024/02/09_08:48:31,YZ,59.89850928
1,./instructions/inst_prac_3_next/Slide49.png,right,46.30789668,702.8716422,749.1795389,,,,,,,,,,,,,,,,,,,,,,,,,,,,,,,,,1,,,,,,,,,,,,,,,,,,,,,,,,,,,,,,,,,,,,,,,,,,,,,,41,151321,19,Female,1,2024/02/09_08:48:31,YZ,59.89850928
,,,,,,practice,0,26,3,120,1,V,0,right,1.030069561,1,0,,,,,,,,,,,,,,,,,,,,,1,,,,,,,,,,,,,,,,,,,,,,,,,,,,,,,,,,,,,,,,,,,,,,41,151321,19,Female,1,2024/02/09_08:48:31,YZ,59.89850928
,,,,,,practice,0,26,3,120,2,Q,0,right,0.474250314,1,0,,,,,,,,,,,,,,,,,,,,,1,,,,,,,,,,,,,,,,,,,,,,,,,,,,,,,,,,,,,,,,,,,,,,41,151321,19,Female,1,2024/02/09_08:48:31,YZ,59.89850928
,,,,,,practice,0,26,3,120,3,C,0,right,0.450966764,1,0,,,,,,,,,,,,,,,,,,,,,1,,,,,,,,,,,,,,,,,,,,,,,,,,,,,,,,,,,,,,,,,,,,,,41,151321,19,Female,1,2024/02/09_08:48:31,YZ,59.89850928
,,,,,,practice,0,26,3,120,4,V,1,left,0.741089933,1,0,,,,,,,,,,,,,,,,,,,,,1,,,,,,,,,,,,,,,,,,,,,,,,,,,,,,,,,,,,,,,,,,,,,,41,151321,19,Female,1,2024/02/09_08:48:31,YZ,59.89850928
,,,,,,practice,0,26,3,120,5,C,0,left,1.191030878,0,0,,,,,,,,,,,,,,,,,,,,,1,,,,,,,,,,,,,,,,,,,,,,,,,,,,,,,,,,,,,,,,,,,,,,41,151321,19,Female,1,2024/02/09_08:48:31,YZ,59.89850928
,,,,,,practice,0,26,3,120,6,X,0,right,1.041754386,1,0,,,,,,,,,,,,,,,,,,,,,1,,,,,,,,,,,,,,,,,,,,,,,,,,,,,,,,,,,,,,,,,,,,,,41,151321,19,Female,1,2024/02/09_08:48:31,YZ,59.89850928
,,,,,,practice,0,26,3,120,7,V,1,right,1.434150771,0,0,,,,,,,,,,,,,,,,,,,,,1,,,,,,,,,,,,,,,,,,,,,,,,,,,,,,,,,,,,,,,,,,,,,,41,151321,19,Female,1,2024/02/09_08:48:31,YZ,59.89850928
,,,,,,practice,0,26,3,120,8,C,1,right,0.633154376,0,0,,,,,,,,,,,,,,,,,,,,,1,,,,,,,,,,,,,,,,,,,,,,,,,,,,,,,,,,,,,,,,,,,,,,41,151321,19,Female,1,2024/02/09_08:48:31,YZ,59.89850928
,,,,,,practice,0,26,3,120,9,S,0,right,0.937395528,1,0,,,,,,,,,,,,,,,,,,,,,1,,,,,,,,,,,,,,,,,,,,,,,,,,,,,,,,,,,,,,,,,,,,,,41,151321,19,Female,1,2024/02/09_08:48:31,YZ,59.89850928
,,,,,,practice,0,26,3,120,10,V,1,left,1.04346676,1,0,,,,,,,,,,,,,,,,,,,,,1,,,,,,,,,,,,,,,,,,,,,,,,,,,,,,,,,,,,,,,,,,,,,,41,151321,19,Female,1,2024/02/09_08:48:31,YZ,59.89850928
,,,,,,practice,0,26,3,120,11,V,0,right,0.902477052,1,0,,,,,,,,,,,,,,,,,,,,,1,,,,,,,,,,,,,,,,,,,,,,,,,,,,,,,,,,,,,,,,,,,,,,41,151321,19,Female,1,2024/02/09_08:48:31,YZ,59.89850928
,,,,,,practice,0,26,3,120,12,N,0,right,1.62085066,1,0,,,,,,,,,,,,,,,,,,,,,1,,,,,,,,,,,,,,,,,,,,,,,,,,,,,,,,,,,,,,,,,,,,,,41,151321,19,Female,1,2024/02/09_08:48:31,YZ,59.89850928
,,,,,,practice,0,26,3,120,13,V,1,left,1.224505206,1,0,,,,,,,,,,,,,,,,,,,,,1,,,,,,,,,,,,,,,,,,,,,,,,,,,,,,,,,,,,,,,,,,,,,,41,151321,19,Female,1,2024/02/09_08:48:31,YZ,59.89850928
,,,,,,practice,0,26,3,120,14,Q,0,right,0.605084077,1,0,,,,,,,,,,,,,,,,,,,,,1,,,,,,,,,,,,,,,,,,,,,,,,,,,,,,,,,,,,,,,,,,,,,,41,151321,19,Female,1,2024/02/09_08:48:31,YZ,59.89850928
,,,,,,practice,0,26,3,120,15,S,0,left,0.66128439,0,0,,,,,,,,,,,,,,,,,,,,,1,,,,,,,,,,,,,,,,,,,,,,,,,,,,,,,,,,,,,,,,,,,,,,41,151321,19,Female,1,2024/02/09_08:48:31,YZ,59.89850928
,,,,,,practice,0,26,3,120,16,J,0,right,1.295035262,1,0,,,,,,,,,,,,,,,,,,,,,1,,,,,,,,,,,,,,,,,,,,,,,,,,,,,,,,,,,,,,,,,,,,,,41,151321,19,Female,1,2024/02/09_08:48:31,YZ,59.89850928
,,,,,,practice,0,26,3,120,17,Q,1,left,0.672182116,1,0,,,,,,,,,,,,,,,,,,,,,1,,,,,,,,,,,,,,,,,,,,,,,,,,,,,,,,,,,,,,,,,,,,,,41,151321,19,Female,1,2024/02/09_08:48:31,YZ,59.89850928
,,,,,,practice,0,26,3,120,18,F,0,right,0.36523091,1,0,,,,,,,,,,,,,,,,,,,,,1,,,,,,,,,,,,,,,,,,,,,,,,,,,,,,,,,,,,,,,,,,,,,,41,151321,19,Female,1,2024/02/09_08:48:31,YZ,59.89850928
,,,,,,practice,0,26,3,120,19,J,1,right,0.935541398,0,0,,,,,,,,,,,,,,,,,,,,,1,,,,,,,,,,,,,,,,,,,,,,,,,,,,,,,,,,,,,,,,,,,,,,41,151321,19,Female,1,2024/02/09_08:48:31,YZ,59.89850928
,,,,,,practice,0,26,3,120,20,C,0,right,0.942428559,1,0,,,,,,,,,,,,,,,,,,,,,1,,,,,,,,,,,,,,,,,,,,,,,,,,,,,,,,,,,,,,,,,,,,,,41,151321,19,Female,1,2024/02/09_08:48:31,YZ,59.89850928
,,,,,,practice,0,26,3,120,21,J,0,left,0.677745215,0,0,,,,,,,,,,,,,,,,,,,,,1,,,,,,,,,,,,,,,,,,,,,,,,,,,,,,,,,,,,,,,,,,,,,,41,151321,19,Female,1,2024/02/09_08:48:31,YZ,59.89850928
,,,,,,practice,0,26,3,120,22,C,0,left,1.588361513,0,0,,,,,,,,,,,,,,,,,,,,,1,,,,,,,,,,,,,,,,,,,,,,,,,,,,,,,,,,,,,,,,,,,,,,41,151321,19,Female,1,2024/02/09_08:48:31,YZ,59.89850928
,,,,,,practice,0,26,3,120,23,S,0,right,0.452722745,1,0,,,,,,,,,,,,,,,,,,,,,1,,,,,,,,,,,,,,,,,,,,,,,,,,,,,,,,,,,,,,,,,,,,,,41,151321,19,Female,1,2024/02/09_08:48:31,YZ,59.89850928
,,,,,,practice,0,26,3,120,,,,,,,,0.723214286,0.571428571,0.25,0.75,0,0.75,0.90959906,4,4,0,0,0,12,16,7,16,0,,,,1,,,,,,,,,,,,,,,,,,,,,,,,,,,,,,,,,,,,,,,,,,,,,,41,151321,19,Female,1,2024/02/09_08:48:31,YZ,59.89850928
,,,,,,practice,0,31,3,120,1,S,0,right,0.993671899,1,0,,,,,,,,,,,,,,,,,,,,,1,,,,,,,,,,,,,,,,,,,,,,,,,,,,,,,,,,,,,,,,,,,,,,41,151321,19,Female,1,2024/02/09_08:48:31,YZ,59.89850928
,,,,,,practice,0,31,3,120,2,S,0,right,0.82038932,1,0,,,,,,,,,,,,,,,,,,,,,1,,,,,,,,,,,,,,,,,,,,,,,,,,,,,,,,,,,,,,,,,,,,,,41,151321,19,Female,1,2024/02/09_08:48:31,YZ,59.89850928
,,,,,,practice,0,31,3,120,3,Q,0,right,0.889277126,1,0,,,,,,,,,,,,,,,,,,,,,1,,,,,,,,,,,,,,,,,,,,,,,,,,,,,,,,,,,,,,,,,,,,,,41,151321,19,Female,1,2024/02/09_08:48:31,YZ,59.89850928
,,,,,,practice,0,31,3,120,4,X,0,right,0.603824222,1,0,,,,,,,,,,,,,,,,,,,,,1,,,,,,,,,,,,,,,,,,,,,,,,,,,,,,,,,,,,,,,,,,,,,,41,151321,19,Female,1,2024/02/09_08:48:31,YZ,59.89850928
,,,,,,practice,0,31,3,120,5,S,1,left,2.02828683,1,0,,,,,,,,,,,,,,,,,,,,,1,,,,,,,,,,,,,,,,,,,,,,,,,,,,,,,,,,,,,,,,,,,,,,41,151321,19,Female,1,2024/02/09_08:48:31,YZ,59.89850928
,,,,,,practice,0,31,3,120,6,X,0,right,0.6793516,1,0,,,,,,,,,,,,,,,,,,,,,1,,,,,,,,,,,,,,,,,,,,,,,,,,,,,,,,,,,,,,,,,,,,,,41,151321,19,Female,1,2024/02/09_08:48:31,YZ,59.89850928
,,,,,,practice,0,31,3,120,7,C,0,right,0.834158208,1,0,,,,,,,,,,,,,,,,,,,,,1,,,,,,,,,,,,,,,,,,,,,,,,,,,,,,,,,,,,,,,,,,,,,,41,151321,19,Female,1,2024/02/09_08:48:31,YZ,59.89850928
,,,,,,practice,0,31,3,120,8,S,1,left,0.722588249,1,0,,,,,,,,,,,,,,,,,,,,,1,,,,,,,,,,,,,,,,,,,,,,,,,,,,,,,,,,,,,,,,,,,,,,41,151321,19,Female,1,2024/02/09_08:48:31,YZ,59.89850928
,,,,,,practice,0,31,3,120,9,N,0,right,0.45015699,1,0,,,,,,,,,,,,,,,,,,,,,1,,,,,,,,,,,,,,,,,,,,,,,,,,,,,,,,,,,,,,,,,,,,,,41,151321,19,Female,1,2024/02/09_08:48:31,YZ,59.89850928
,,,,,,practice,0,31,3,120,10,X,0,right,0.454638464,1,0,,,,,,,,,,,,,,,,,,,,,1,,,,,,,,,,,,,,,,,,,,,,,,,,,,,,,,,,,,,,,,,,,,,,41,151321,19,Female,1,2024/02/09_08:48:31,YZ,59.89850928
,,,,,,practice,0,31,3,120,11,N,0,right,4.222542392,1,0,,,,,,,,,,,,,,,,,,,,,1,,,,,,,,,,,,,,,,,,,,,,,,,,,,,,,,,,,,,,,,,,,,,,41,151321,19,Female,1,2024/02/09_08:48:31,YZ,59.89850928
,,,,,,practice,0,31,3,120,12,N,1,left,0.615635032,1,0,,,,,,,,,,,,,,,,,,,,,1,,,,,,,,,,,,,,,,,,,,,,,,,,,,,,,,,,,,,,,,,,,,,,41,151321,19,Female,1,2024/02/09_08:48:31,YZ,59.89850928
,,,,,,practice,0,31,3,120,13,X,1,right,0.355244129,0,0,,,,,,,,,,,,,,,,,,,,,1,,,,,,,,,,,,,,,,,,,,,,,,,,,,,,,,,,,,,,,,,,,,,,41,151321,19,Female,1,2024/02/09_08:48:31,YZ,59.89850928
,,,,,,practice,0,31,3,120,14,S,0,right,1.276710255,1,0,,,,,,,,,,,,,,,,,,,,,1,,,,,,,,,,,,,,,,,,,,,,,,,,,,,,,,,,,,,,,,,,,,,,41,151321,19,Female,1,2024/02/09_08:48:31,YZ,59.89850928
,,,,,,practice,0,31,3,120,15,F,0,right,1.35885181,1,0,,,,,,,,,,,,,,,,,,,,,1,,,,,,,,,,,,,,,,,,,,,,,,,,,,,,,,,,,,,,,,,,,,,,41,151321,19,Female,1,2024/02/09_08:48:31,YZ,59.89850928
,,,,,,practice,0,31,3,120,16,V,0,right,0.531153307,1,0,,,,,,,,,,,,,,,,,,,,,1,,,,,,,,,,,,,,,,,,,,,,,,,,,,,,,,,,,,,,,,,,,,,,41,151321,19,Female,1,2024/02/09_08:48:31,YZ,59.89850928
,,,,,,practice,0,31,3,120,17,C,0,right,0.650466053,1,0,,,,,,,,,,,,,,,,,,,,,1,,,,,,,,,,,,,,,,,,,,,,,,,,,,,,,,,,,,,,,,,,,,,,41,151321,19,Female,1,2024/02/09_08:48:31,YZ,59.89850928
,,,,,,practice,0,31,3,120,18,F,1,left,0.706204863,1,0,,,,,,,,,,,,,,,,,,,,,1,,,,,,,,,,,,,,,,,,,,,,,,,,,,,,,,,,,,,,,,,,,,,,41,151321,19,Female,1,2024/02/09_08:48:31,YZ,59.89850928
,,,,,,practice,0,31,3,120,19,Q,0,right,1.115441681,1,0,,,,,,,,,,,,,,,,,,,,,1,,,,,,,,,,,,,,,,,,,,,,,,,,,,,,,,,,,,,,,,,,,,,,41,151321,19,Female,1,2024/02/09_08:48:31,YZ,59.89850928
,,,,,,practice,0,31,3,120,20,V,0,right,0.415674886,1,0,,,,,,,,,,,,,,,,,,,,,1,,,,,,,,,,,,,,,,,,,,,,,,,,,,,,,,,,,,,,,,,,,,,,41,151321,19,Female,1,2024/02/09_08:48:31,YZ,59.89850928
,,,,,,practice,0,31,3,120,21,C,0,right,0,1,0,,,,,,,,,,,,,,,,,,,,,1,,,,,,,,,,,,,,,,,,,,,,,,,,,,,,,,,,,,,,,,,,,,,,41,151321,19,Female,1,2024/02/09_08:48:31,YZ,59.89850928
,,,,,,practice,0,31,3,120,22,Q,1,left,1.826648278,1,0,,,,,,,,,,,,,,,,,,,,,1,,,,,,,,,,,,,,,,,,,,,,,,,,,,,,,,,,,,,,,,,,,,,,41,151321,19,Female,1,2024/02/09_08:48:31,YZ,59.89850928
,,,,,,practice,0,31,3,120,23,N,0,right,0.000550985,1,0,,,,,,,,,,,,,,,,,,,,,1,,,,,,,,,,,,,,,,,,,,,,,,,,,,,,,,,,,,,,,,,,,,,,41,151321,19,Female,1,2024/02/09_08:48:31,YZ,59.89850928
,,,,,,practice,0,31,3,120,,,,,,,,0.958333333,0.833333333,0,1,0,1,0.937020286,5,0,0,0,0,17,22,6,17,0,,,,1,,,,,,,,,,,,,,,,,,,,,,,,,,,,,,,,,,,,,,,,,,,,,,41,151321,19,Female,1,2024/02/09_08:48:31,YZ,59.89850928
1,./instructions/inst_prac_main/Slide51.png,right,2.491271171,820.0081671,822.4994383,,,,,,,,,,,,,,,,,,,,,,,,,,,,,,,,,1,,,,,,,,,,,,,,,,,,,,,,,,,,,,,,,,,,,,,,,,,,,,,,41,151321,19,Female,1,2024/02/09_08:48:31,YZ,59.89850928
2,./instructions/inst_prac_main/Slide52.png,right,13.73335006,822.5341786,836.2675287,,,,,,,,,,,,,,,,,,,,,,,,,,,,,,,,,1,,,,,,,,,,,,,,,,,,,,,,,,,,,,,,,,,,,,,,,,,,,,,,41,151321,19,Female,1,2024/02/09_08:48:31,YZ,59.89850928
3,./instructions/inst_prac_main/Slide53.png,right,5.747767315,836.3037174,842.0514847,,,,,,,,,,,,,,,,,,,,,,,,,,,,,,,,,1,,,,,,,,,,,,,,,,,,,,,,,,,,,,,,,,,,,,,,,,,,,,,,41,151321,19,Female,1,2024/02/09_08:48:31,YZ,59.89850928
2,./instructions/inst_prac_main/Slide54.png,left,1.287891068,842.0838126,843.3717037,,,,,,,,,,,,,,,,,,,,,,,,,,,,,,,,,1,,,,,,,,,,,,,,,,,,,,,,,,,,,,,,,,,,,,,,,,,,,,,,41,151321,19,Female,1,2024/02/09_08:48:31,YZ,59.89850928
3,./instructions/inst_prac_main/Slide53.png,right,4.193082244,843.4020873,847.5951695,,,,,,,,,,,,,,,,,,,,,,,,,,,,,,,,,1,,,,,,,,,,,,,,,,,,,,,,,,,,,,,,,,,,,,,,,,,,,,,,41,151321,19,Female,1,2024/02/09_08:48:31,YZ,59.89850928
4,./instructions/inst_prac_main/Slide54.png,right,18.14062854,847.6309094,865.771538,,,,,,,,,,,,,,,,,,,,,,,,,,,,,,,,,1,,,,,,,,,,,,,,,,,,,,,,,,,,,,,,,,,,,,,,,,,,,,,,41,151321,19,Female,1,2024/02/09_08:48:31,YZ,59.89850928
,,,,,,practice_main,0,1,3,120,1,S,0,right,0.708475952,1,0,,,,,,,,,,,,,,,,,,,,,1,,,,,,,,,,,,,,,,,,,,,,,,,,,,,,,,,,,,,,,,,,,,,,41,151321,19,Female,1,2024/02/09_08:48:31,YZ,59.89850928
,,,,,,practice_main,0,1,3,120,2,S,0,right,0.573139736,1,0,,,,,,,,,,,,,,,,,,,,,1,,,,,,,,,,,,,,,,,,,,,,,,,,,,,,,,,,,,,,,,,,,,,,41,151321,19,Female,1,2024/02/09_08:48:31,YZ,59.89850928
,,,,,,practice_main,0,1,3,120,3,N,0,right,0.64524259,1,0,,,,,,,,,,,,,,,,,,,,,1,,,,,,,,,,,,,,,,,,,,,,,,,,,,,,,,,,,,,,,,,,,,,,41,151321,19,Female,1,2024/02/09_08:48:31,YZ,59.89850928
,,,,,,practice_main,0,1,3,120,4,J,0,right,0.467356723,1,0,,,,,,,,,,,,,,,,,,,,,1,,,,,,,,,,,,,,,,,,,,,,,,,,,,,,,,,,,,,,,,,,,,,,41,151321,19,Female,1,2024/02/09_08:48:31,YZ,59.89850928
,,,,,,practice_main,0,1,3,120,5,F,0,right,0.513764548,1,0,,,,,,,,,,,,,,,,,,,,,1,,,,,,,,,,,,,,,,,,,,,,,,,,,,,,,,,,,,,,,,,,,,,,41,151321,19,Female,1,2024/02/09_08:48:31,YZ,59.89850928
,,,,,,practice_main,0,1,3,120,6,N,1,left,0.660389208,1,0,,,,,,,,,,,,,,,,,,,,,1,,,,,,,,,,,,,,,,,,,,,,,,,,,,,,,,,,,,,,,,,,,,,,41,151321,19,Female,1,2024/02/09_08:48:31,YZ,59.89850928
,,,,,,practice_main,0,1,3,120,7,N,0,right,0.543625951,1,0,,,,,,,,,,,,,,,,,,,,,1,,,,,,,,,,,,,,,,,,,,,,,,,,,,,,,,,,,,,,,,,,,,,,41,151321,19,Female,1,2024/02/09_08:48:31,YZ,59.89850928
,,,,,,practice_main,0,1,3,120,8,F,1,right,nan,0,1,,,,,,,,,,,,,,,,,,,,,1,,,,,,,,,,,,,,,,,,,,,,,,,,,,,,,,,,,,,,,,,,,,,,41,151321,19,Female,1,2024/02/09_08:48:31,YZ,59.89850928
,,,,,,practice_main,0,1,3,120,9,C,0,right,0.513564174,1,0,,,,,,,,,,,,,,,,,,,,,1,,,,,,,,,,,,,,,,,,,,,,,,,,,,,,,,,,,,,,,,,,,,,,41,151321,19,Female,1,2024/02/09_08:48:31,YZ,59.89850928
,,,,,,practice_main,0,1,3,120,10,C,0,right,0.643345879,1,0,,,,,,,,,,,,,,,,,,,,,1,,,,,,,,,,,,,,,,,,,,,,,,,,,,,,,,,,,,,,,,,,,,,,41,151321,19,Female,1,2024/02/09_08:48:31,YZ,59.89850928
,,,,,,practice_main,0,1,3,120,11,X,0,right,0.572091886,1,0,,,,,,,,,,,,,,,,,,,,,1,,,,,,,,,,,,,,,,,,,,,,,,,,,,,,,,,,,,,,,,,,,,,,41,151321,19,Female,1,2024/02/09_08:48:31,YZ,59.89850928
,,,,,,practice_main,0,1,3,120,12,N,0,right,nan,0,1,,,,,,,,,,,,,,,,,,,,,1,,,,,,,,,,,,,,,,,,,,,,,,,,,,,,,,,,,,,,,,,,,,,,41,151321,19,Female,1,2024/02/09_08:48:31,YZ,59.89850928
,,,,,,practice_main,0,1,3,120,13,Q,0,right,0.521359763,1,0,,,,,,,,,,,,,,,,,,,,,1,,,,,,,,,,,,,,,,,,,,,,,,,,,,,,,,,,,,,,,,,,,,,,41,151321,19,Female,1,2024/02/09_08:48:31,YZ,59.89850928
,,,,,,practice_main,0,1,3,120,14,X,1,right,0.467103454,0,0,,,,,,,,,,,,,,,,,,,,,1,,,,,,,,,,,,,,,,,,,,,,,,,,,,,,,,,,,,,,,,,,,,,,41,151321,19,Female,1,2024/02/09_08:48:31,YZ,59.89850928
,,,,,,practice_main,0,1,3,120,15,N,1,left,0.513691075,1,0,,,,,,,,,,,,,,,,,,,,,1,,,,,,,,,,,,,,,,,,,,,,,,,,,,,,,,,,,,,,,,,,,,,,41,151321,19,Female,1,2024/02/09_08:48:31,YZ,59.89850928
,,,,,,practice_main,0,1,3,120,16,J,0,right,0.496126441,1,0,,,,,,,,,,,,,,,,,,,,,1,,,,,,,,,,,,,,,,,,,,,,,,,,,,,,,,,,,,,,,,,,,,,,41,151321,19,Female,1,2024/02/09_08:48:31,YZ,59.89850928
,,,,,,practice_main,0,1,3,120,17,V,0,right,0.485187323,1,0,,,,,,,,,,,,,,,,,,,,,1,,,,,,,,,,,,,,,,,,,,,,,,,,,,,,,,,,,,,,,,,,,,,,41,151321,19,Female,1,2024/02/09_08:48:31,YZ,59.89850928
,,,,,,practice_main,0,1,3,120,18,X,0,right,0.454819561,1,0,,,,,,,,,,,,,,,,,,,,,1,,,,,,,,,,,,,,,,,,,,,,,,,,,,,,,,,,,,,,,,,,,,,,41,151321,19,Female,1,2024/02/09_08:48:31,YZ,59.89850928
,,,,,,practice_main,0,1,3,120,19,J,1,right,0.604931595,0,0,,,,,,,,,,,,,,,,,,,,,1,,,,,,,,,,,,,,,,,,,,,,,,,,,,,,,,,,,,,,,,,,,,,,41,151321,19,Female,1,2024/02/09_08:48:31,YZ,59.89850928
,,,,,,practice_main,0,1,3,120,20,J,0,right,0.76010091,1,0,,,,,,,,,,,,,,,,,,,,,1,,,,,,,,,,,,,,,,,,,,,,,,,,,,,,,,,,,,,,,,,,,,,,41,151321,19,Female,1,2024/02/09_08:48:31,YZ,59.89850928
,,,,,,practice_main,0,1,3,120,21,F,0,right,0.497477803,1,0,,,,,,,,,,,,,,,,,,,,,1,,,,,,,,,,,,,,,,,,,,,,,,,,,,,,,,,,,,,,,,,,,,,,41,151321,19,Female,1,2024/02/09_08:48:31,YZ,59.89850928
,,,,,,practice_main,0,1,3,120,22,J,1,left,0.880104989,1,0,,,,,,,,,,,,,,,,,,,,,1,,,,,,,,,,,,,,,,,,,,,,,,,,,,,,,,,,,,,,,,,,,,,,41,151321,19,Female,1,2024/02/09_08:48:31,YZ,59.89850928
,,,,,,practice_main,0,1,3,120,23,V,0,right,0.582872519,1,0,,,,,,,,,,,,,,,,,,,,,1,,,,,,,,,,,,,,,,,,,,,,,,,,,,,,,,,,,,,,,,,,,,,,41,151321,19,Female,1,2024/02/09_08:48:31,YZ,59.89850928
,,,,,,practice_main,0,1,3,120,,,,,,,,0.875,0.5,0,1,0.086956522,0.913043478,0.576417718,3,0,1,1,2,16,19,6,17,0,,,,1,,,,,,,,,,,,,,,,,,,,,,,,,,,,,,,,,,,,,,,,,,,,,,41,151321,19,Female,1,2024/02/09_08:48:31,YZ,59.89850928
,,,,,240209_092959,PRACTICE,0,1,3,120,,,,,,,,,,,,,,,,,,,,,,,,,,,,1,18,2,1,cue2.png,hard,A,48,0.950689966,0,877.4995359,878.4714993,,,,,,,,,,,,,,,,,,,,,,,,,,,,,,,,,,,41,151321,19,Female,1,2024/02/09_08:48:31,YZ,59.89850928
,,,,,,practice_main,0,2,1,120,1,C,0,right,0.443857757,1,0,,,,,,,,,,,,,,,,,,,,,1,,,,,,,,,,,,,,,,,,,,,,,,,,,,,,,,,,,,,,,,,,,,,,41,151321,19,Female,1,2024/02/09_08:48:31,YZ,59.89850928
,,,,,,practice_main,0,2,1,120,2,X,0,right,0.442936988,1,0,,,,,,,,,,,,,,,,,,,,,1,,,,,,,,,,,,,,,,,,,,,,,,,,,,,,,,,,,,,,,,,,,,,,41,151321,19,Female,1,2024/02/09_08:48:31,YZ,59.89850928
,,,,,,practice_main,0,2,1,120,3,V,0,right,0.638456934,1,0,,,,,,,,,,,,,,,,,,,,,1,,,,,,,,,,,,,,,,,,,,,,,,,,,,,,,,,,,,,,,,,,,,,,41,151321,19,Female,1,2024/02/09_08:48:31,YZ,59.89850928
,,,,,,practice_main,0,2,1,120,4,J,0,right,0.429105118,1,0,,,,,,,,,,,,,,,,,,,,,1,,,,,,,,,,,,,,,,,,,,,,,,,,,,,,,,,,,,,,,,,,,,,,41,151321,19,Female,1,2024/02/09_08:48:31,YZ,59.89850928
,,,,,,practice_main,0,2,1,120,5,J,1,right,0.496077033,0,0,,,,,,,,,,,,,,,,,,,,,1,,,,,,,,,,,,,,,,,,,,,,,,,,,,,,,,,,,,,,,,,,,,,,41,151321,19,Female,1,2024/02/09_08:48:31,YZ,59.89850928
,,,,,,practice_main,0,2,1,120,6,Q,0,right,0.461287271,1,0,,,,,,,,,,,,,,,,,,,,,1,,,,,,,,,,,,,,,,,,,,,,,,,,,,,,,,,,,,,,,,,,,,,,41,151321,19,Female,1,2024/02/09_08:48:31,YZ,59.89850928
,,,,,,practice_main,0,2,1,120,7,F,0,right,0.480938244,1,0,,,,,,,,,,,,,,,,,,,,,1,,,,,,,,,,,,,,,,,,,,,,,,,,,,,,,,,,,,,,,,,,,,,,41,151321,19,Female,1,2024/02/09_08:48:31,YZ,59.89850928
,,,,,,practice_main,0,2,1,120,8,F,1,left,0.545456585,1,0,,,,,,,,,,,,,,,,,,,,,1,,,,,,,,,,,,,,,,,,,,,,,,,,,,,,,,,,,,,,,,,,,,,,41,151321,19,Female,1,2024/02/09_08:48:31,YZ,59.89850928
,,,,,,practice_main,0,2,1,120,9,J,0,right,0.629461245,1,0,,,,,,,,,,,,,,,,,,,,,1,,,,,,,,,,,,,,,,,,,,,,,,,,,,,,,,,,,,,,,,,,,,,,41,151321,19,Female,1,2024/02/09_08:48:31,YZ,59.89850928
,,,,,,practice_main,0,2,1,120,10,J,1,left,0.575952417,1,0,,,,,,,,,,,,,,,,,,,,,1,,,,,,,,,,,,,,,,,,,,,,,,,,,,,,,,,,,,,,,,,,,,,,41,151321,19,Female,1,2024/02/09_08:48:31,YZ,59.89850928
,,,,,,practice_main,0,2,1,120,11,V,0,right,0.560286151,1,0,,,,,,,,,,,,,,,,,,,,,1,,,,,,,,,,,,,,,,,,,,,,,,,,,,,,,,,,,,,,,,,,,,,,41,151321,19,Female,1,2024/02/09_08:48:31,YZ,59.89850928
,,,,,,practice_main,0,2,1,120,12,J,0,right,0.641000313,1,0,,,,,,,,,,,,,,,,,,,,,1,,,,,,,,,,,,,,,,,,,,,,,,,,,,,,,,,,,,,,,,,,,,,,41,151321,19,Female,1,2024/02/09_08:48:31,YZ,59.89850928
