Instruction,Stimulus,Key,RT,START,END,Phase,Block,TrialN,NbackLevel,ISI,LetterN,Letter,Letter_isSame,Letter_Resp,Letter_RT,Letter_Accuracy,Letter_Timeout,Trial_A_measure,Trial_HR,Trial_FAR,Trial_CDR,Trial_MSR,Trial_ACC,Trial_RT,Trial_HitsCount,Trial_FAsCount,Trial_SameNoRespCount,Trial_DiffNoRespCount,Trial_NoRespCount,Trial_CDsCount,Trial_CorrectRespCount,Trial_SameLetterCount,Trial_DiffLetterCount,Trial_InvalidLetterCount,TrialCountCali,CaliEnd_A_measure,ISI_calibrated,Run,TrialIndex,TrialNumber_total,TrialNumber_valid,CueLearning,TrialDemandLearning,CueMapping,OnlineRating,OnlineRatingRT,OnlineRatingTimeOut,CueSTART,RatingSTART,OfflineRatingTimePoint,OfflineRatingQuesIndex,CueFigure,TrialDemand,OfflineRating,OfflineRatingRT,CueStart,OfflineRatingStart,PhaseType,CueLeft,CueDemandLeft,CueRight,CueDemandRight,Choice,ChoiceDemand,TaskDemand,ChoiceRT,ChoiceTimeOut,ChoiceSTART,CueCheck,CueDemandCheck,CorrectAnswer,Answer,AnswerDemand,AnswerRT,AnswerACC,AnswerTimeOut,CheckSTART,DemandRatingQuesIndex,QuesTLX,DemandLevel,DemandRating,DemandRatingRT,QuesStart,PID,SONA,Age,Gender,Run,TIME,EXPERIMENTER,frameRate
1,./instructions/inst_begin/Slide2.png,right,17.26231721,0.124445816,17.38676302,,,,,,,,,,,,,,,,,,,,,,,,,,,,,,,,,,,,,,,,,,,,,,,,,,,,,,,,,,,,,,,,,,,,,,,,,,,,,,,93,150124,21,Female,1,2024/03/15_11:32:23,YZ,None
2,./instructions/inst_begin/Slide3.png,right,8.416192587,17.41847782,25.83467041,,,,,,,,,,,,,,,,,,,,,,,,,,,,,,,,,,,,,,,,,,,,,,,,,,,,,,,,,,,,,,,,,,,,,,,,,,,,,,,93,150124,21,Female,1,2024/03/15_11:32:23,YZ,None
3,./instructions/inst_begin/Slide4.png,right,10.69198145,25.86294614,36.55492759,,,,,,,,,,,,,,,,,,,,,,,,,,,,,,,,,,,,,,,,,,,,,,,,,,,,,,,,,,,,,,,,,,,,,,,,,,,,,,,93,150124,21,Female,1,2024/03/15_11:32:23,YZ,None
1,./instructions/inst_prac_2/Slide6.png,right,12.41419919,36.58845271,49.0026519,,,,,,,,,,,,,,,,,,,,,,,,,,,,,,,,,,,,,,,,,,,,,,,,,,,,,,,,,,,,,,,,,,,,,,,,,,,,,,,93,150124,21,Female,1,2024/03/15_11:32:23,YZ,None
2,./instructions/inst_prac_2/Slide7.png,right,13.54821141,49.03058777,62.57879918,,,,,,,,,,,,,,,,,,,,,,,,,,,,,,,,,,,,,,,,,,,,,,,,,,,,,,,,,,,,,,,,,,,,,,,,,,,,,,,93,150124,21,Female,1,2024/03/15_11:32:23,YZ,None
3,./instructions/inst_prac_2/Slide8.png,right,8.084136881,62.60660111,70.69073799,,,,,,,,,,,,,,,,,,,,,,,,,,,,,,,,,,,,,,,,,,,,,,,,,,,,,,,,,,,,,,,,,,,,,,,,,,,,,,,93,150124,21,Female,1,2024/03/15_11:32:23,YZ,None
2,./instructions/inst_prac_2/Slide9.png,left,4.331097514,70.719809,75.05090651,,,,,,,,,,,,,,,,,,,,,,,,,,,,,,,,,,,,,,,,,,,,,,,,,,,,,,,,,,,,,,,,,,,,,,,,,,,,,,,93,150124,21,Female,1,2024/03/15_11:32:23,YZ,None
3,./instructions/inst_prac_2/Slide8.png,right,2.505020016,75.07351752,77.57853753,,,,,,,,,,,,,,,,,,,,,,,,,,,,,,,,,,,,,,,,,,,,,,,,,,,,,,,,,,,,,,,,,,,,,,,,,,,,,,,93,150124,21,Female,1,2024/03/15_11:32:23,YZ,None
4,./instructions/inst_prac_2/Slide9.png,right,0.939547852,77.60713938,78.54668723,,,,,,,,,,,,,,,,,,,,,,,,,,,,,,,,,,,,,,,,,,,,,,,,,,,,,,,,,,,,,,,,,,,,,,,,,,,,,,,93,150124,21,Female,1,2024/03/15_11:32:23,YZ,None
5,./instructions/inst_prac_2/Slide10.png,right,1.507450674,78.57526607,80.08271675,,,,,,,,,,,,,,,,,,,,,,,,,,,,,,,,,,,,,,,,,,,,,,,,,,,,,,,,,,,,,,,,,,,,,,,,,,,,,,,93,150124,21,Female,1,2024/03/15_11:32:23,YZ,None
6,./instructions/inst_prac_2/Slide11.png,right,1.72313384,80.1114611,81.83459494,,,,,,,,,,,,,,,,,,,,,,,,,,,,,,,,,,,,,,,,,,,,,,,,,,,,,,,,,,,,,,,,,,,,,,,,,,,,,,,93,150124,21,Female,1,2024/03/15_11:32:23,YZ,None
7,./instructions/inst_prac_2/Slide12.png,right,0.803339007,81.86322459,82.6665636,,,,,,,,,,,,,,,,,,,,,,,,,,,,,,,,,,,,,,,,,,,,,,,,,,,,,,,,,,,,,,,,,,,,,,,,,,,,,,,93,150124,21,Female,1,2024/03/15_11:32:23,YZ,None
8,./instructions/inst_prac_2/Slide13.png,right,0.819568207,82.69499286,83.51456107,,,,,,,,,,,,,,,,,,,,,,,,,,,,,,,,,,,,,,,,,,,,,,,,,,,,,,,,,,,,,,,,,,,,,,,,,,,,,,,93,150124,21,Female,1,2024/03/15_11:32:23,YZ,None
9,./instructions/inst_prac_2/Slide14.png,right,18.93447137,83.54031607,102.4747874,,,,,,,,,,,,,,,,,,,,,,,,,,,,,,,,,,,,,,,,,,,,,,,,,,,,,,,,,,,,,,,,,,,,,,,,,,,,,,,93,150124,21,Female,1,2024/03/15_11:32:23,YZ,None
10,./instructions/inst_prac_2/Slide15.png,right,0.200567677,102.5028264,102.7033941,,,,,,,,,,,,,,,,,,,,,,,,,,,,,,,,,,,,,,,,,,,,,,,,,,,,,,,,,,,,,,,,,,,,,,,,,,,,,,,93,150124,21,Female,1,2024/03/15_11:32:23,YZ,None
,,,,,,practice,0,16,2,2583,1,S,0,left,0.779289608,0,0,,,,,,,,,,,,,,,,,,,,,,,,,,,,,,,,,,,,,,,,,,,,,,,,,,,,,,,,,,,,,,,,,,,93,150124,21,Female,1,2024/03/15_11:32:23,YZ,None
,,,,,,practice,0,16,2,2583,2,Q,0,right,2.81978523,1,0,,,,,,,,,,,,,,,,,,,,,,,,,,,,,,,,,,,,,,,,,,,,,,,,,,,,,,,,,,,,,,,,,,,93,150124,21,Female,1,2024/03/15_11:32:23,YZ,None
,,,,,,practice,0,16,2,2583,3,X,0,right,1.539138908,1,0,,,,,,,,,,,,,,,,,,,,,,,,,,,,,,,,,,,,,,,,,,,,,,,,,,,,,,,,,,,,,,,,,,,93,150124,21,Female,1,2024/03/15_11:32:23,YZ,None
,,,,,,practice,0,16,2,2583,4,Q,1,left,1.533984158,1,0,,,,,,,,,,,,,,,,,,,,,,,,,,,,,,,,,,,,,,,,,,,,,,,,,,,,,,,,,,,,,,,,,,,93,150124,21,Female,1,2024/03/15_11:32:23,YZ,None
,,,,,,practice,0,16,2,2583,5,V,0,right,1.385149174,1,0,,,,,,,,,,,,,,,,,,,,,,,,,,,,,,,,,,,,,,,,,,,,,,,,,,,,,,,,,,,,,,,,,,,93,150124,21,Female,1,2024/03/15_11:32:23,YZ,None
,,,,,,practice,0,16,2,2583,6,Q,1,left,1.05226805,1,0,,,,,,,,,,,,,,,,,,,,,,,,,,,,,,,,,,,,,,,,,,,,,,,,,,,,,,,,,,,,,,,,,,,93,150124,21,Female,1,2024/03/15_11:32:23,YZ,None
,,,,,,practice,0,16,2,2583,,,,,,,,0.9375,1,0.25,0.75,0,0.75,1.518269188,2,1,0,0,0,3,5,2,4,0,,,,,,,,,,,,,,,,,,,,,,,,,,,,,,,,,,,,,,,,,,,,,,,,,,93,150124,21,Female,1,2024/03/15_11:32:23,YZ,None
1,./instructions/inst_to_cali/Slide20.png,right,4.761180221,118.6734015,123.4345817,,,,,,,,,,,,,,,,,,,,,,,,,,,,,,,,,,,,,,,,,,,,,,,,,,,,,,,,,,,,,,,,,,,,,,,,,,,,,,,93,150124,21,Female,1,2024/03/15_11:32:23,YZ,None
1,./instructions/inst_cali/Slide22.png,right,12.37343598,123.4692779,135.8427138,,,,,,,,,,,,,,,,,,,,,,,,,,,,,,,,,,,,,,,,,,,,,,,,,,,,,,,,,,,,,,,,,,,,,,,,,,,,,,,93,150124,21,Female,1,2024/03/15_11:32:23,YZ,None
,,,,,,calibration,0,2,2,583,1,N,0,None,nan,0,1,,,,,,,,,,,,,,,,,,,,,,,,,,,,,,,,,,,,,,,,,,,,,,,,,,,,,,,,,,,,,,,,,,,93,150124,21,Female,1,2024/03/15_11:32:23,YZ,None
,,,,,,calibration,0,2,2,583,2,Q,0,None,nan,0,1,,,,,,,,,,,,,,,,,,,,,,,,,,,,,,,,,,,,,,,,,,,,,,,,,,,,,,,,,,,,,,,,,,,93,150124,21,Female,1,2024/03/15_11:32:23,YZ,None
,,,,,,calibration,0,2,2,583,3,N,1,left,0.727110628,1,0,,,,,,,,,,,,,,,,,,,,,,,,,,,,,,,,,,,,,,,,,,,,,,,,,,,,,,,,,,,,,,,,,,,93,150124,21,Female,1,2024/03/15_11:32:23,YZ,None
,,,,,,calibration,0,2,2,583,4,Q,1,right,0.534032475,0,0,,,,,,,,,,,,,,,,,,,,,,,,,,,,,,,,,,,,,,,,,,,,,,,,,,,,,,,,,,,,,,,,,,,93,150124,21,Female,1,2024/03/15_11:32:23,YZ,None
,,,,,,calibration,0,2,2,583,5,C,0,left,0.512381258,0,0,,,,,,,,,,,,,,,,,,,,,,,,,,,,,,,,,,,,,,,,,,,,,,,,,,,,,,,,,,,,,,,,,,,93,150124,21,Female,1,2024/03/15_11:32:23,YZ,None
,,,,,,calibration,0,2,2,583,6,S,0,left,0.325485032,0,0,,,,,,,,,,,,,,,,,,,,,,,,,,,,,,,,,,,,,,,,,,,,,,,,,,,,,,,,,,,,,,,,,,,93,150124,21,Female,1,2024/03/15_11:32:23,YZ,None
,,,,,,calibration,0,2,2,583,7,J,0,left,0.388980808,0,0,,,,,,,,,,,,,,,,,,,,,,,,,,,,,,,,,,,,,,,,,,,,,,,,,,,,,,,,,,,,,,,,,,,93,150124,21,Female,1,2024/03/15_11:32:23,YZ,None
,,,,,,calibration,0,2,2,583,8,X,0,left,0.415388084,0,0,,,,,,,,,,,,,,,,,,,,,,,,,,,,,,,,,,,,,,,,,,,,,,,,,,,,,,,,,,,,,,,,,,,93,150124,21,Female,1,2024/03/15_11:32:23,YZ,None
,,,,,,calibration,0,2,2,583,9,S,0,right,0.526440255,1,0,,,,,,,,,,,,,,,,,,,,,,,,,,,,,,,,,,,,,,,,,,,,,,,,,,,,,,,,,,,,,,,,,,,93,150124,21,Female,1,2024/03/15_11:32:23,YZ,None
,,,,,,calibration,0,2,2,583,10,Q,0,left,0.308144062,0,0,,,,,,,,,,,,,,,,,,,,,,,,,,,,,,,,,,,,,,,,,,,,,,,,,,,,,,,,,,,,,,,,,,,93,150124,21,Female,1,2024/03/15_11:32:23,YZ,None
,,,,,,calibration,0,2,2,583,11,S,1,left,0.32200117,1,0,,,,,,,,,,,,,,,,,,,,,,,,,,,,,,,,,,,,,,,,,,,,,,,,,,,,,,,,,,,,,,,,,,,93,150124,21,Female,1,2024/03/15_11:32:23,YZ,None
,,,,,,calibration,0,2,2,583,12,X,0,left,0.716854883,0,0,,,,,,,,,,,,,,,,,,,,,,,,,,,,,,,,,,,,,,,,,,,,,,,,,,,,,,,,,,,,,,,,,,,93,150124,21,Female,1,2024/03/15_11:32:23,YZ,None
,,,,,,calibration,0,2,2,583,13,S,1,right,0.82471691,0,0,,,,,,,,,,,,,,,,,,,,,,,,,,,,,,,,,,,,,,,,,,,,,,,,,,,,,,,,,,,,,,,,,,,93,150124,21,Female,1,2024/03/15_11:32:23,YZ,None
,,,,,,calibration,0,2,2,583,14,N,0,left,0.384647344,0,0,,,,,,,,,,,,,,,,,,,,,,,,,,,,,,,,,,,,,,,,,,,,,,,,,,,,,,,,,,,,,,,,,,,93,150124,21,Female,1,2024/03/15_11:32:23,YZ,None
,,,,,,calibration,0,2,2,583,15,S,1,right,0.665908347,0,0,,,,,,,,,,,,,,,,,,,,,,,,,,,,,,,,,,,,,,,,,,,,,,,,,,,,,,,,,,,,,,,,,,,93,150124,21,Female,1,2024/03/15_11:32:23,YZ,None
,,,,,,calibration,0,2,2,583,,,,,,,,0.125,0.4,0.7,0.125,0.133333333,0.166666667,0.511699327,2,7,0,2,2,1,3,5,10,0,,,,,,,,,,,,,,,,,,,,,,,,,,,,,,,,,,,,,,,,,,,,,,,,,,93,150124,21,Female,1,2024/03/15_11:32:23,YZ,None
,,,,,,Calibration,0,,2,583,,,,,,,,,,,,,,,,,,,,,,,,,1,,,,,,,,,,,,,,,,,,,,,,,,,,,,,,,,,,,,,,,,,,,,,,,,,93,150124,21,Female,1,2024/03/15_11:32:23,YZ,None
,,,,,,calibration,0,31,2,679,1,C,0,left,1.563755441,0,0,,,,,,,,,,,,,,,,,,,,,,,,,,,,,,,,,,,,,,,,,,,,,,,,,,,,,,,,,,,,,,,,,,,93,150124,21,Female,1,2024/03/15_11:32:23,YZ,None
,,,,,,calibration,0,31,2,679,2,Q,0,left,0.500020917,0,0,,,,,,,,,,,,,,,,,,,,,,,,,,,,,,,,,,,,,,,,,,,,,,,,,,,,,,,,,,,,,,,,,,,93,150124,21,Female,1,2024/03/15_11:32:23,YZ,None
,,,,,,calibration,0,31,2,679,3,S,0,right,0.591500114,1,0,,,,,,,,,,,,,,,,,,,,,,,,,,,,,,,,,,,,,,,,,,,,,,,,,,,,,,,,,,,,,,,,,,,93,150124,21,Female,1,2024/03/15_11:32:23,YZ,None
,,,,,,calibration,0,31,2,679,4,Q,1,left,0.359089743,1,0,,,,,,,,,,,,,,,,,,,,,,,,,,,,,,,,,,,,,,,,,,,,,,,,,,,,,,,,,,,,,,,,,,,93,150124,21,Female,1,2024/03/15_11:32:23,YZ,None
,,,,,,calibration,0,31,2,679,5,J,0,left,0.887902663,0,0,,,,,,,,,,,,,,,,,,,,,,,,,,,,,,,,,,,,,,,,,,,,,,,,,,,,,,,,,,,,,,,,,,,93,150124,21,Female,1,2024/03/15_11:32:23,YZ,None
,,,,,,calibration,0,31,2,679,6,N,0,left,0.534291672,0,0,,,,,,,,,,,,,,,,,,,,,,,,,,,,,,,,,,,,,,,,,,,,,,,,,,,,,,,,,,,,,,,,,,,93,150124,21,Female,1,2024/03/15_11:32:23,YZ,None
,,,,,,calibration,0,31,2,679,7,J,1,right,0.651773208,0,0,,,,,,,,,,,,,,,,,,,,,,,,,,,,,,,,,,,,,,,,,,,,,,,,,,,,,,,,,,,,,,,,,,,93,150124,21,Female,1,2024/03/15_11:32:23,YZ,None
,,,,,,calibration,0,31,2,679,8,C,0,left,0.348109844,0,0,,,,,,,,,,,,,,,,,,,,,,,,,,,,,,,,,,,,,,,,,,,,,,,,,,,,,,,,,,,,,,,,,,,93,150124,21,Female,1,2024/03/15_11:32:23,YZ,None
,,,,,,calibration,0,31,2,679,9,V,0,left,0.432086433,0,0,,,,,,,,,,,,,,,,,,,,,,,,,,,,,,,,,,,,,,,,,,,,,,,,,,,,,,,,,,,,,,,,,,,93,150124,21,Female,1,2024/03/15_11:32:23,YZ,None
,,,,,,calibration,0,31,2,679,10,C,1,left,0.435536517,1,0,,,,,,,,,,,,,,,,,,,,,,,,,,,,,,,,,,,,,,,,,,,,,,,,,,,,,,,,,,,,,,,,,,,93,150124,21,Female,1,2024/03/15_11:32:23,YZ,None
,,,,,,calibration,0,31,2,679,11,N,0,left,0.312298059,0,0,,,,,,,,,,,,,,,,,,,,,,,,,,,,,,,,,,,,,,,,,,,,,,,,,,,,,,,,,,,,,,,,,,,93,150124,21,Female,1,2024/03/15_11:32:23,YZ,None
,,,,,,calibration,0,31,2,679,12,C,1,right,0.484933899,0,0,,,,,,,,,,,,,,,,,,,,,,,,,,,,,,,,,,,,,,,,,,,,,,,,,,,,,,,,,,,,,,,,,,,93,150124,21,Female,1,2024/03/15_11:32:23,YZ,None
,,,,,,calibration,0,31,2,679,13,V,0,left,0.393177318,0,0,,,,,,,,,,,,,,,,,,,,,,,,,,,,,,,,,,,,,,,,,,,,,,,,,,,,,,,,,,,,,,,,,,,93,150124,21,Female,1,2024/03/15_11:32:23,YZ,None
,,,,,,calibration,0,31,2,679,14,N,0,left,0.582516203,0,0,,,,,,,,,,,,,,,,,,,,,,,,,,,,,,,,,,,,,,,,,,,,,,,,,,,,,,,,,,,,,,,,,,,93,150124,21,Female,1,2024/03/15_11:32:23,YZ,None
,,,,,,calibration,0,31,2,679,,,,,,,,0.1,0.5,0.9,0.1,0,0.1,0.576928002,2,9,0,0,0,1,3,4,10,0,,,,,,,,,,,,,,,,,,,,,,,,,,,,,,,,,,,,,,,,,,,,,,,,,,93,150124,21,Female,1,2024/03/15_11:32:23,YZ,None
,,,,,,Calibration,0,,2,679,,,,,,,,,,,,,,,,,,,,,,,,,2,,,,,,,,,,,,,,,,,,,,,,,,,,,,,,,,,,,,,,,,,,,,,,,,,93,150124,21,Female,1,2024/03/15_11:32:23,YZ,None
,,,,,,calibration,0,32,2,788,1,N,0,left,1.88115562,0,0,,,,,,,,,,,,,,,,,,,,,,,,,,,,,,,,,,,,,,,,,,,,,,,,,,,,,,,,,,,,,,,,,,,93,150124,21,Female,1,2024/03/15_11:32:23,YZ,None
,,,,,,calibration,0,32,2,788,2,J,0,left,0.746605164,0,0,,,,,,,,,,,,,,,,,,,,,,,,,,,,,,,,,,,,,,,,,,,,,,,,,,,,,,,,,,,,,,,,,,,93,150124,21,Female,1,2024/03/15_11:32:23,YZ,None
,,,,,,calibration,0,32,2,788,3,N,1,right,0.598826966,0,0,,,,,,,,,,,,,,,,,,,,,,,,,,,,,,,,,,,,,,,,,,,,,,,,,,,,,,,,,,,,,,,,,,,93,150124,21,Female,1,2024/03/15_11:32:23,YZ,None
,,,,,,calibration,0,32,2,788,4,Q,0,left,0.406864571,0,0,,,,,,,,,,,,,,,,,,,,,,,,,,,,,,,,,,,,,,,,,,,,,,,,,,,,,,,,,,,,,,,,,,,93,150124,21,Female,1,2024/03/15_11:32:23,YZ,None
,,,,,,calibration,0,32,2,788,5,N,1,right,0.764964477,0,0,,,,,,,,,,,,,,,,,,,,,,,,,,,,,,,,,,,,,,,,,,,,,,,,,,,,,,,,,,,,,,,,,,,93,150124,21,Female,1,2024/03/15_11:32:23,YZ,None
,,,,,,calibration,0,32,2,788,6,Q,1,left,0.631001045,1,0,,,,,,,,,,,,,,,,,,,,,,,,,,,,,,,,,,,,,,,,,,,,,,,,,,,,,,,,,,,,,,,,,,,93,150124,21,Female,1,2024/03/15_11:32:23,YZ,None
,,,,,,calibration,0,32,2,788,7,J,0,left,0.592084627,0,0,,,,,,,,,,,,,,,,,,,,,,,,,,,,,,,,,,,,,,,,,,,,,,,,,,,,,,,,,,,,,,,,,,,93,150124,21,Female,1,2024/03/15_11:32:23,YZ,None
,,,,,,calibration,0,32,2,788,8,F,0,left,0.566282931,0,0,,,,,,,,,,,,,,,,,,,,,,,,,,,,,,,,,,,,,,,,,,,,,,,,,,,,,,,,,,,,,,,,,,,93,150124,21,Female,1,2024/03/15_11:32:23,YZ,None
,,,,,,calibration,0,32,2,788,9,S,0,left,0.85235189,0,0,,,,,,,,,,,,,,,,,,,,,,,,,,,,,,,,,,,,,,,,,,,,,,,,,,,,,,,,,,,,,,,,,,,93,150124,21,Female,1,2024/03/15_11:32:23,YZ,None
,,,,,,calibration,0,32,2,788,10,F,1,right,0.714319913,0,0,,,,,,,,,,,,,,,,,,,,,,,,,,,,,,,,,,,,,,,,,,,,,,,,,,,,,,,,,,,,,,,,,,,93,150124,21,Female,1,2024/03/15_11:32:23,YZ,None
,,,,,,calibration,0,32,2,788,11,V,0,left,0.438450998,0,0,,,,,,,,,,,,,,,,,,,,,,,,,,,,,,,,,,,,,,,,,,,,,,,,,,,,,,,,,,,,,,,,,,,93,150124,21,Female,1,2024/03/15_11:32:23,YZ,None
,,,,,,calibration,0,32,2,788,12,J,0,right,0.693154206,1,0,,,,,,,,,,,,,,,,,,,,,,,,,,,,,,,,,,,,,,,,,,,,,,,,,,,,,,,,,,,,,,,,,,,93,150124,21,Female,1,2024/03/15_11:32:23,YZ,None
,,,,,,calibration,0,32,2,788,13,C,0,left,0.575325107,0,0,,,,,,,,,,,,,,,,,,,,,,,,,,,,,,,,,,,,,,,,,,,,,,,,,,,,,,,,,,,,,,,,,,,93,150124,21,Female,1,2024/03/15_11:32:23,YZ,None
,,,,,,calibration,0,32,2,788,,,,,,,,0.0625,0.25,0.888888889,0.111111111,0,0.111111111,0.72779904,1,8,0,0,0,1,2,4,9,0,,,,,,,,,,,,,,,,,,,,,,,,,,,,,,,,,,,,,,,,,,,,,,,,,,93,150124,21,Female,1,2024/03/15_11:32:23,YZ,None
,,,,,,Calibration,0,,2,788,,,,,,,,,,,,,,,,,,,,,,,,,3,,,,,,,,,,,,,,,,,,,,,,,,,,,,,,,,,,,,,,,,,,,,,,,,,93,150124,21,Female,1,2024/03/15_11:32:23,YZ,None
,,,,,,calibration,0,13,2,917,1,X,0,left,0.954099212,0,0,,,,,,,,,,,,,,,,,,,,,,,,,,,,,,,,,,,,,,,,,,,,,,,,,,,,,,,,,,,,,,,,,,,93,150124,21,Female,1,2024/03/15_11:32:23,YZ,None
,,,,,,calibration,0,13,2,917,2,N,0,left,0.54138807,0,0,,,,,,,,,,,,,,,,,,,,,,,,,,,,,,,,,,,,,,,,,,,,,,,,,,,,,,,,,,,,,,,,,,,93,150124,21,Female,1,2024/03/15_11:32:23,YZ,None
,,,,,,calibration,0,13,2,917,3,X,1,right,0.604810562,0,0,,,,,,,,,,,,,,,,,,,,,,,,,,,,,,,,,,,,,,,,,,,,,,,,,,,,,,,,,,,,,,,,,,,93,150124,21,Female,1,2024/03/15_11:32:23,YZ,None
,,,,,,calibration,0,13,2,917,4,F,0,left,0.432114926,0,0,,,,,,,,,,,,,,,,,,,,,,,,,,,,,,,,,,,,,,,,,,,,,,,,,,,,,,,,,,,,,,,,,,,93,150124,21,Female,1,2024/03/15_11:32:23,YZ,None
,,,,,,calibration,0,13,2,917,5,X,1,left,0.779777918,1,0,,,,,,,,,,,,,,,,,,,,,,,,,,,,,,,,,,,,,,,,,,,,,,,,,,,,,,,,,,,,,,,,,,,93,150124,21,Female,1,2024/03/15_11:32:23,YZ,None
,,,,,,calibration,0,13,2,917,6,V,0,left,0.543438919,0,0,,,,,,,,,,,,,,,,,,,,,,,,,,,,,,,,,,,,,,,,,,,,,,,,,,,,,,,,,,,,,,,,,,,93,150124,21,Female,1,2024/03/15_11:32:23,YZ,None
,,,,,,calibration,0,13,2,917,7,F,0,right,0.58120288,1,0,,,,,,,,,,,,,,,,,,,,,,,,,,,,,,,,,,,,,,,,,,,,,,,,,,,,,,,,,,,,,,,,,,,93,150124,21,Female,1,2024/03/15_11:32:23,YZ,None
,,,,,,calibration,0,13,2,917,8,C,0,left,0.53150372,0,0,,,,,,,,,,,,,,,,,,,,,,,,,,,,,,,,,,,,,,,,,,,,,,,,,,,,,,,,,,,,,,,,,,,93,150124,21,Female,1,2024/03/15_11:32:23,YZ,None
,,,,,,calibration,0,13,2,917,9,S,0,left,0.580016987,0,0,,,,,,,,,,,,,,,,,,,,,,,,,,,,,,,,,,,,,,,,,,,,,,,,,,,,,,,,,,,,,,,,,,,93,150124,21,Female,1,2024/03/15_11:32:23,YZ,None
,,,,,,calibration,0,13,2,917,10,N,0,left,0.690887403,0,0,,,,,,,,,,,,,,,,,,,,,,,,,,,,,,,,,,,,,,,,,,,,,,,,,,,,,,,,,,,,,,,,,,,93,150124,21,Female,1,2024/03/15_11:32:23,YZ,None
,,,,,,calibration,0,13,2,917,11,J,0,left,0.442335792,0,0,,,,,,,,,,,,,,,,,,,,,,,,,,,,,,,,,,,,,,,,,,,,,,,,,,,,,,,,,,,,,,,,,,,93,150124,21,Female,1,2024/03/15_11:32:23,YZ,None
,,,,,,calibration,0,13,2,917,12,N,1,left,0.524012206,1,0,,,,,,,,,,,,,,,,,,,,,,,,,,,,,,,,,,,,,,,,,,,,,,,,,,,,,,,,,,,,,,,,,,,93,150124,21,Female,1,2024/03/15_11:32:23,YZ,None
,,,,,,calibration,0,13,2,917,,,,,,,,0.111111111,0.666666667,0.888888889,0.111111111,0,0.111111111,0.600465716,2,8,0,0,0,1,3,3,9,0,,,,,,,,,,,,,,,,,,,,,,,,,,,,,,,,,,,,,,,,,,,,,,,,,,93,150124,21,Female,1,2024/03/15_11:32:23,YZ,None
,,,,,,Calibration,0,,2,917,,,,,,,,,,,,,,,,,,,,,,,,,4,,,,,,,,,,,,,,,,,,,,,,,,,,,,,,,,,,,,,,,,,,,,,,,,,93,150124,21,Female,1,2024/03/15_11:32:23,YZ,None
,,,,,,calibration,0,23,2,1068,1,S,0,left,0.931745793,0,0,,,,,,,,,,,,,,,,,,,,,,,,,,,,,,,,,,,,,,,,,,,,,,,,,,,,,,,,,,,,,,,,,,,93,150124,21,Female,1,2024/03/15_11:32:23,YZ,None
,,,,,,calibration,0,23,2,1068,2,S,0,left,0.445158302,0,0,,,,,,,,,,,,,,,,,,,,,,,,,,,,,,,,,,,,,,,,,,,,,,,,,,,,,,,,,,,,,,,,,,,93,150124,21,Female,1,2024/03/15_11:32:23,YZ,None
,,,,,,calibration,0,23,2,1068,3,Q,0,left,0.658274475,0,0,,,,,,,,,,,,,,,,,,,,,,,,,,,,,,,,,,,,,,,,,,,,,,,,,,,,,,,,,,,,,,,,,,,93,150124,21,Female,1,2024/03/15_11:32:23,YZ,None
,,,,,,calibration,0,23,2,1068,4,J,0,left,0.462590522,0,0,,,,,,,,,,,,,,,,,,,,,,,,,,,,,,,,,,,,,,,,,,,,,,,,,,,,,,,,,,,,,,,,,,,93,150124,21,Female,1,2024/03/15_11:32:23,YZ,None
,,,,,,calibration,0,23,2,1068,5,X,0,left,0.544363782,0,0,,,,,,,,,,,,,,,,,,,,,,,,,,,,,,,,,,,,,,,,,,,,,,,,,,,,,,,,,,,,,,,,,,,93,150124,21,Female,1,2024/03/15_11:32:23,YZ,None
,,,,,,calibration,0,23,2,1068,6,J,1,left,0.373431466,1,0,,,,,,,,,,,,,,,,,,,,,,,,,,,,,,,,,,,,,,,,,,,,,,,,,,,,,,,,,,,,,,,,,,,93,150124,21,Female,1,2024/03/15_11:32:23,YZ,None
,,,,,,calibration,0,23,2,1068,7,V,0,left,0.614487486,0,0,,,,,,,,,,,,,,,,,,,,,,,,,,,,,,,,,,,,,,,,,,,,,,,,,,,,,,,,,,,,,,,,,,,93,150124,21,Female,1,2024/03/15_11:32:23,YZ,None
,,,,,,calibration,0,23,2,1068,8,J,1,right,0.625654025,0,0,,,,,,,,,,,,,,,,,,,,,,,,,,,,,,,,,,,,,,,,,,,,,,,,,,,,,,,,,,,,,,,,,,,93,150124,21,Female,1,2024/03/15_11:32:23,YZ,None
,,,,,,calibration,0,23,2,1068,9,F,0,left,0.587430151,0,0,,,,,,,,,,,,,,,,,,,,,,,,,,,,,,,,,,,,,,,,,,,,,,,,,,,,,,,,,,,,,,,,,,,93,150124,21,Female,1,2024/03/15_11:32:23,YZ,None
,,,,,,calibration,0,23,2,1068,10,J,1,right,0.688794903,0,0,,,,,,,,,,,,,,,,,,,,,,,,,,,,,,,,,,,,,,,,,,,,,,,,,,,,,,,,,,,,,,,,,,,93,150124,21,Female,1,2024/03/15_11:32:23,YZ,None
,,,,,,calibration,0,23,2,1068,11,N,0,left,0.576715201,0,0,,,,,,,,,,,,,,,,,,,,,,,,,,,,,,,,,,,,,,,,,,,,,,,,,,,,,,,,,,,,,,,,,,,93,150124,21,Female,1,2024/03/15_11:32:23,YZ,None
,,,,,,calibration,0,23,2,1068,,,,,,,,0.083333333,0.333333333,1,0,0,0,0.591695101,1,8,0,0,0,0,1,3,8,0,,,,,,,,,,,,,,,,,,,,,,,,,,,,,,,,,,,,,,,,,,,,,,,,,,93,150124,21,Female,1,2024/03/15_11:32:23,YZ,None
,,,,,,Calibration,0,,2,1068,,,,,,,,,,,,,,,,,,,,,,,,,5,,,,,,,,,,,,,,,,,,,,,,,,,,,,,,,,,,,,,,,,,,,,,,,,,93,150124,21,Female,1,2024/03/15_11:32:23,YZ,None
,,,,,,calibration,0,20,2,1250,1,C,0,left,1.003471378,0,0,,,,,,,,,,,,,,,,,,,,,,,,,,,,,,,,,,,,,,,,,,,,,,,,,,,,,,,,,,,,,,,,,,,93,150124,21,Female,1,2024/03/15_11:32:23,YZ,None
,,,,,,calibration,0,20,2,1250,2,C,0,left,0.580885579,0,0,,,,,,,,,,,,,,,,,,,,,,,,,,,,,,,,,,,,,,,,,,,,,,,,,,,,,,,,,,,,,,,,,,,93,150124,21,Female,1,2024/03/15_11:32:23,YZ,None
,,,,,,calibration,0,20,2,1250,3,C,1,right,0.575843438,0,0,,,,,,,,,,,,,,,,,,,,,,,,,,,,,,,,,,,,,,,,,,,,,,,,,,,,,,,,,,,,,,,,,,,93,150124,21,Female,1,2024/03/15_11:32:23,YZ,None
,,,,,,calibration,0,20,2,1250,4,C,1,right,0.53405963,0,0,,,,,,,,,,,,,,,,,,,,,,,,,,,,,,,,,,,,,,,,,,,,,,,,,,,,,,,,,,,,,,,,,,,93,150124,21,Female,1,2024/03/15_11:32:23,YZ,None
,,,,,,calibration,0,20,2,1250,5,N,0,left,0.43183173,0,0,,,,,,,,,,,,,,,,,,,,,,,,,,,,,,,,,,,,,,,,,,,,,,,,,,,,,,,,,,,,,,,,,,,93,150124,21,Female,1,2024/03/15_11:32:23,YZ,None
,,,,,,calibration,0,20,2,1250,6,C,1,right,0.608939181,0,0,,,,,,,,,,,,,,,,,,,,,,,,,,,,,,,,,,,,,,,,,,,,,,,,,,,,,,,,,,,,,,,,,,,93,150124,21,Female,1,2024/03/15_11:32:23,YZ,None
,,,,,,calibration,0,20,2,1250,7,J,0,left,0.417191938,0,0,,,,,,,,,,,,,,,,,,,,,,,,,,,,,,,,,,,,,,,,,,,,,,,,,,,,,,,,,,,,,,,,,,,93,150124,21,Female,1,2024/03/15_11:32:23,YZ,None
,,,,,,calibration,0,20,2,1250,8,Q,0,right,0.7145645,1,0,,,,,,,,,,,,,,,,,,,,,,,,,,,,,,,,,,,,,,,,,,,,,,,,,,,,,,,,,,,,,,,,,,,93,150124,21,Female,1,2024/03/15_11:32:23,YZ,None
,,,,,,calibration,0,20,2,1250,9,V,0,left,0.488641723,0,0,,,,,,,,,,,,,,,,,,,,,,,,,,,,,,,,,,,,,,,,,,,,,,,,,,,,,,,,,,,,,,,,,,,93,150124,21,Female,1,2024/03/15_11:32:23,YZ,None
,,,,,,calibration,0,20,2,1250,10,F,0,left,0.789390111,0,0,,,,,,,,,,,,,,,,,,,,,,,,,,,,,,,,,,,,,,,,,,,,,,,,,,,,,,,,,,,,,,,,,,,93,150124,21,Female,1,2024/03/15_11:32:23,YZ,None
,,,,,,calibration,0,20,2,1250,,,,,,,,0.035714286,0,0.857142857,0.142857143,0,0.142857143,0.614481921,0,6,0,0,0,1,1,3,7,0,,,,,,,,,,,,,,,,,,,,,,,,,,,,,,,,,,,,,,,,,,,,,,,,,,93,150124,21,Female,1,2024/03/15_11:32:23,YZ,None
,,,,,,Calibration,0,,2,1250,,,,,,,,,,,,,,,,,,,,,,,,,6,,,,,,,,,,,,,,,,,,,,,,,,,,,,,,,,,,,,,,,,,,,,,,,,,93,150124,21,Female,1,2024/03/15_11:32:23,YZ,None
,,,,,,calibration,0,20,2,1472,1,F,0,left,1.008854396,0,0,,,,,,,,,,,,,,,,,,,,,,,,,,,,,,,,,,,,,,,,,,,,,,,,,,,,,,,,,,,,,,,,,,,93,150124,21,Female,1,2024/03/15_11:32:23,YZ,None
,,,,,,calibration,0,20,2,1472,2,V,0,left,0.524619934,0,0,,,,,,,,,,,,,,,,,,,,,,,,,,,,,,,,,,,,,,,,,,,,,,,,,,,,,,,,,,,,,,,,,,,93,150124,21,Female,1,2024/03/15_11:32:23,YZ,None
,,,,,,calibration,0,20,2,1472,3,Q,0,left,0.598007157,0,0,,,,,,,,,,,,,,,,,,,,,,,,,,,,,,,,,,,,,,,,,,,,,,,,,,,,,,,,,,,,,,,,,,,93,150124,21,Female,1,2024/03/15_11:32:23,YZ,None
,,,,,,calibration,0,20,2,1472,4,J,0,left,0.46590068,0,0,,,,,,,,,,,,,,,,,,,,,,,,,,,,,,,,,,,,,,,,,,,,,,,,,,,,,,,,,,,,,,,,,,,93,150124,21,Female,1,2024/03/15_11:32:23,YZ,None
,,,,,,calibration,0,20,2,1472,5,Q,1,right,0.789527126,0,0,,,,,,,,,,,,,,,,,,,,,,,,,,,,,,,,,,,,,,,,,,,,,,,,,,,,,,,,,,,,,,,,,,,93,150124,21,Female,1,2024/03/15_11:32:23,YZ,None
,,,,,,calibration,0,20,2,1472,6,N,0,left,0.322984562,0,0,,,,,,,,,,,,,,,,,,,,,,,,,,,,,,,,,,,,,,,,,,,,,,,,,,,,,,,,,,,,,,,,,,,93,150124,21,Female,1,2024/03/15_11:32:23,YZ,None
,,,,,,calibration,0,20,2,1472,7,C,0,left,0.531305904,0,0,,,,,,,,,,,,,,,,,,,,,,,,,,,,,,,,,,,,,,,,,,,,,,,,,,,,,,,,,,,,,,,,,,,93,150124,21,Female,1,2024/03/15_11:32:23,YZ,None
,,,,,,calibration,0,20,2,1472,8,N,1,right,0.64104557,0,0,,,,,,,,,,,,,,,,,,,,,,,,,,,,,,,,,,,,,,,,,,,,,,,,,,,,,,,,,,,,,,,,,,,93,150124,21,Female,1,2024/03/15_11:32:23,YZ,None
,,,,,,calibration,0,20,2,1472,9,C,1,left,0.51254675,1,0,,,,,,,,,,,,,,,,,,,,,,,,,,,,,,,,,,,,,,,,,,,,,,,,,,,,,,,,,,,,,,,,,,,93,150124,21,Female,1,2024/03/15_11:32:23,YZ,None
,,,,,,calibration,0,20,2,1472,,,,,,,,0.083333333,0.333333333,1,0,0,0,0.599421342,1,6,0,0,0,0,1,3,6,0,,,,,,,,,,,,,,,,,,,,,,,,,,,,,,,,,,,,,,,,,,,,,,,,,,93,150124,21,Female,1,2024/03/15_11:32:23,YZ,None
,,,,,,Calibration,0,,2,1472,,,,,,,,,,,,,,,,,,,,,,,,,7,,,,,,,,,,,,,,,,,,,,,,,,,,,,,,,,,,,,,,,,,,,,,,,,,93,150124,21,Female,1,2024/03/15_11:32:23,YZ,None
,,,,,,calibration,0,10,2,1750,1,V,0,left,1.09189619,0,0,,,,,,,,,,,,,,,,,,,,,,,,,,,,,,,,,,,,,,,,,,,,,,,,,,,,,,,,,,,,,,,,,,,93,150124,21,Female,1,2024/03/15_11:32:23,YZ,None
,,,,,,calibration,0,10,2,1750,2,F,0,left,0.592211512,0,0,,,,,,,,,,,,,,,,,,,,,,,,,,,,,,,,,,,,,,,,,,,,,,,,,,,,,,,,,,,,,,,,,,,93,150124,21,Female,1,2024/03/15_11:32:23,YZ,None
,,,,,,calibration,0,10,2,1750,3,Q,0,left,0.534775702,0,0,,,,,,,,,,,,,,,,,,,,,,,,,,,,,,,,,,,,,,,,,,,,,,,,,,,,,,,,,,,,,,,,,,,93,150124,21,Female,1,2024/03/15_11:32:23,YZ,None
,,,,,,calibration,0,10,2,1750,4,F,1,left,0.427394342,1,0,,,,,,,,,,,,,,,,,,,,,,,,,,,,,,,,,,,,,,,,,,,,,,,,,,,,,,,,,,,,,,,,,,,93,150124,21,Female,1,2024/03/15_11:32:23,YZ,None
,,,,,,calibration,0,10,2,1750,5,V,0,left,0.532654566,0,0,,,,,,,,,,,,,,,,,,,,,,,,,,,,,,,,,,,,,,,,,,,,,,,,,,,,,,,,,,,,,,,,,,,93,150124,21,Female,1,2024/03/15_11:32:23,YZ,None
,,,,,,calibration,0,10,2,1750,6,N,0,right,0.603923391,1,0,,,,,,,,,,,,,,,,,,,,,,,,,,,,,,,,,,,,,,,,,,,,,,,,,,,,,,,,,,,,,,,,,,,93,150124,21,Female,1,2024/03/15_11:32:23,YZ,None
,,,,,,calibration,0,10,2,1750,7,V,1,right,0.600980354,0,0,,,,,,,,,,,,,,,,,,,,,,,,,,,,,,,,,,,,,,,,,,,,,,,,,,,,,,,,,,,,,,,,,,,93,150124,21,Female,1,2024/03/15_11:32:23,YZ,None
,,,,,,calibration,0,10,2,1750,8,S,0,left,0.525017708,0,0,,,,,,,,,,,,,,,,,,,,,,,,,,,,,,,,,,,,,,,,,,,,,,,,,,,,,,,,,,,,,,,,,,,93,150124,21,Female,1,2024/03/15_11:32:23,YZ,None
,,,,,,calibration,0,10,2,1750,,,,,,,,0.083333333,0.5,0.833333333,0.166666667,0,0.166666667,0.613606721,1,5,0,0,0,1,2,2,6,0,,,,,,,,,,,,,,,,,,,,,,,,,,,,,,,,,,,,,,,,,,,,,,,,,,93,150124,21,Female,1,2024/03/15_11:32:23,YZ,None
,,,,,,Calibration,0,,2,1750,,,,,,,,,,,,,,,,,,,,,,,,,8,,,,,,,,,,,,,,,,,,,,,,,,,,,,,,,,,,,,,,,,,,,,,,,,,93,150124,21,Female,1,2024/03/15_11:32:23,YZ,None
,,,,,,calibration,0,28,2,2107,1,N,0,left,0.614286289,0,0,,,,,,,,,,,,,,,,,,,,,,,,,,,,,,,,,,,,,,,,,,,,,,,,,,,,,,,,,,,,,,,,,,,93,150124,21,Female,1,2024/03/15_11:32:23,YZ,None
,,,,,,calibration,0,28,2,2107,2,N,0,left,0.458570868,0,0,,,,,,,,,,,,,,,,,,,,,,,,,,,,,,,,,,,,,,,,,,,,,,,,,,,,,,,,,,,,,,,,,,,93,150124,21,Female,1,2024/03/15_11:32:23,YZ,None
,,,,,,calibration,0,28,2,2107,3,C,0,left,1.066553876,0,0,,,,,,,,,,,,,,,,,,,,,,,,,,,,,,,,,,,,,,,,,,,,,,,,,,,,,,,,,,,,,,,,,,,93,150124,21,Female,1,2024/03/15_11:32:23,YZ,None
,,,,,,calibration,0,28,2,2107,4,F,0,left,0.756097731,0,0,,,,,,,,,,,,,,,,,,,,,,,,,,,,,,,,,,,,,,,,,,,,,,,,,,,,,,,,,,,,,,,,,,,93,150124,21,Female,1,2024/03/15_11:32:23,YZ,None
,,,,,,calibration,0,28,2,2107,5,C,1,right,0.706718259,0,0,,,,,,,,,,,,,,,,,,,,,,,,,,,,,,,,,,,,,,,,,,,,,,,,,,,,,,,,,,,,,,,,,,,93,150124,21,Female,1,2024/03/15_11:32:23,YZ,None
,,,,,,calibration,0,28,2,2107,6,F,1,right,0.668302685,0,0,,,,,,,,,,,,,,,,,,,,,,,,,,,,,,,,,,,,,,,,,,,,,,,,,,,,,,,,,,,,,,,,,,,93,150124,21,Female,1,2024/03/15_11:32:23,YZ,None
,,,,,,calibration,0,28,2,2107,7,X,0,left,0.499702523,0,0,,,,,,,,,,,,,,,,,,,,,,,,,,,,,,,,,,,,,,,,,,,,,,,,,,,,,,,,,,,,,,,,,,,93,150124,21,Female,1,2024/03/15_11:32:23,YZ,None
,,,,,,calibration,0,28,2,2107,,,,,,,,0,0,1,0,0,0,0.681461747,0,5,0,0,0,0,0,2,5,0,,,,,,,,,,,,,,,,,,,,,,,,,,,,,,,,,,,,,,,,,,,,,,,,,,93,150124,21,Female,1,2024/03/15_11:32:23,YZ,None
,,,,,,Calibration,0,,2,2107,,,,,,,,,,,,,,,,,,,,,,,,,9,,,,,,,,,,,,,,,,,,,,,,,,,,,,,,,,,,,,,,,,,,,,,,,,,93,150124,21,Female,1,2024/03/15_11:32:23,YZ,None
,,,,,,calibration,0,4,2,2583,1,V,0,left,0.5477917,0,0,,,,,,,,,,,,,,,,,,,,,,,,,,,,,,,,,,,,,,,,,,,,,,,,,,,,,,,,,,,,,,,,,,,93,150124,21,Female,1,2024/03/15_11:32:23,YZ,None
,,,,,,calibration,0,4,2,2583,2,S,0,left,0.425085365,0,0,,,,,,,,,,,,,,,,,,,,,,,,,,,,,,,,,,,,,,,,,,,,,,,,,,,,,,,,,,,,,,,,,,,93,150124,21,Female,1,2024/03/15_11:32:23,YZ,None
,,,,,,calibration,0,4,2,2583,3,F,0,left,0.673738125,0,0,,,,,,,,,,,,,,,,,,,,,,,,,,,,,,,,,,,,,,,,,,,,,,,,,,,,,,,,,,,,,,,,,,,93,150124,21,Female,1,2024/03/15_11:32:23,YZ,None
,,,,,,calibration,0,4,2,2583,4,J,0,left,0.540278732,0,0,,,,,,,,,,,,,,,,,,,,,,,,,,,,,,,,,,,,,,,,,,,,,,,,,,,,,,,,,,,,,,,,,,,93,150124,21,Female,1,2024/03/15_11:32:23,YZ,None
,,,,,,calibration,0,4,2,2583,5,F,1,right,0.673433944,0,0,,,,,,,,,,,,,,,,,,,,,,,,,,,,,,,,,,,,,,,,,,,,,,,,,,,,,,,,,,,,,,,,,,,93,150124,21,Female,1,2024/03/15_11:32:23,YZ,None
,,,,,,calibration,0,4,2,2583,6,J,1,left,0.343611292,1,0,,,,,,,,,,,,,,,,,,,,,,,,,,,,,,,,,,,,,,,,,,,,,,,,,,,,,,,,,,,,,,,,,,,93,150124,21,Female,1,2024/03/15_11:32:23,YZ,None
,,,,,,calibration,0,4,2,2583,,,,,,,,0.125,0.5,1,0,0,0,0.53398986,1,4,0,0,0,0,1,2,4,0,,,,,,,,,,,,,,,,,,,,,,,,,,,,,,,,,,,,,,,,,,,,,,,,,,93,150124,21,Female,1,2024/03/15_11:32:23,YZ,None
,,,,,,Calibration,0,,2,2583,,,,,,,,,,,,,,,,,,,,,,,,,10,,,,,,,,,,,,,,,,,,,,,,,,,,,,,,,,,,,,,,,,,,,,,,,,,93,150124,21,Female,1,2024/03/15_11:32:23,YZ,None
,,,,,,calibration,0,3,2,2583,1,X,0,left,0.567476554,0,0,,,,,,,,,,,,,,,,,,,,,,,,,,,,,,,,,,,,,,,,,,,,,,,,,,,,,,,,,,,,,,,,,,,93,150124,21,Female,1,2024/03/15_11:32:23,YZ,None
,,,,,,calibration,0,3,2,2583,2,N,0,left,0.32020024,0,0,,,,,,,,,,,,,,,,,,,,,,,,,,,,,,,,,,,,,,,,,,,,,,,,,,,,,,,,,,,,,,,,,,,93,150124,21,Female,1,2024/03/15_11:32:23,YZ,None
,,,,,,calibration,0,3,2,2583,3,V,0,left,0.543482745,0,0,,,,,,,,,,,,,,,,,,,,,,,,,,,,,,,,,,,,,,,,,,,,,,,,,,,,,,,,,,,,,,,,,,,93,150124,21,Female,1,2024/03/15_11:32:23,YZ,None
,,,,,,calibration,0,3,2,2583,4,N,1,left,0.404780672,1,0,,,,,,,,,,,,,,,,,,,,,,,,,,,,,,,,,,,,,,,,,,,,,,,,,,,,,,,,,,,,,,,,,,,93,150124,21,Female,1,2024/03/15_11:32:23,YZ,None
,,,,,,calibration,0,3,2,2583,5,S,0,left,0.826068867,0,0,,,,,,,,,,,,,,,,,,,,,,,,,,,,,,,,,,,,,,,,,,,,,,,,,,,,,,,,,,,,,,,,,,,93,150124,21,Female,1,2024/03/15_11:32:23,YZ,None
,,,,,,calibration,0,3,2,2583,6,N,1,right,0.693686726,0,0,,,,,,,,,,,,,,,,,,,,,,,,,,,,,,,,,,,,,,,,,,,,,,,,,,,,,,,,,,,,,,,,,,,93,150124,21,Female,1,2024/03/15_11:32:23,YZ,None
,,,,,,calibration,0,3,2,2583,,,,,,,,0.125,0.5,1,0,0,0,0.559282634,1,4,0,0,0,0,1,2,4,0,,,,,,,,,,,,,,,,,,,,,,,,,,,,,,,,,,,,,,,,,,,,,,,,,,93,150124,21,Female,1,2024/03/15_11:32:23,YZ,None
,,,,,,Calibration,0,,2,2583,,,,,,,,,,,,,,,,,,,,,,,,,11,,,,,,,,,,,,,,,,,,,,,,,,,,,,,,,,,,,,,,,,,,,,,,,,,93,150124,21,Female,1,2024/03/15_11:32:23,YZ,None
,,,,,,calibration,0,1,2,2583,1,C,0,left,0.432818411,0,0,,,,,,,,,,,,,,,,,,,,,,,,,,,,,,,,,,,,,,,,,,,,,,,,,,,,,,,,,,,,,,,,,,,93,150124,21,Female,1,2024/03/15_11:32:23,YZ,None
,,,,,,calibration,0,1,2,2583,2,C,0,left,0.356415758,0,0,,,,,,,,,,,,,,,,,,,,,,,,,,,,,,,,,,,,,,,,,,,,,,,,,,,,,,,,,,,,,,,,,,,93,150124,21,Female,1,2024/03/15_11:32:23,YZ,None
,,,,,,calibration,0,1,2,2583,3,C,1,right,0.658346073,0,0,,,,,,,,,,,,,,,,,,,,,,,,,,,,,,,,,,,,,,,,,,,,,,,,,,,,,,,,,,,,,,,,,,,93,150124,21,Female,1,2024/03/15_11:32:23,YZ,None
,,,,,,calibration,0,1,2,2583,4,N,0,left,0.592242702,0,0,,,,,,,,,,,,,,,,,,,,,,,,,,,,,,,,,,,,,,,,,,,,,,,,,,,,,,,,,,,,,,,,,,,93,150124,21,Female,1,2024/03/15_11:32:23,YZ,None
,,,,,,calibration,0,1,2,2583,5,C,1,right,0.641132978,0,0,,,,,,,,,,,,,,,,,,,,,,,,,,,,,,,,,,,,,,,,,,,,,,,,,,,,,,,,,,,,,,,,,,,93,150124,21,Female,1,2024/03/15_11:32:23,YZ,None
,,,,,,calibration,0,1,2,2583,6,V,0,left,0.481491717,0,0,,,,,,,,,,,,,,,,,,,,,,,,,,,,,,,,,,,,,,,,,,,,,,,,,,,,,,,,,,,,,,,,,,,93,150124,21,Female,1,2024/03/15_11:32:23,YZ,None
,,,,,,calibration,0,1,2,2583,,,,,,,,0,0,1,0,0,0,0.527074607,0,4,0,0,0,0,0,2,4,0,,,,,,,,,,,,,,,,,,,,,,,,,,,,,,,,,,,,,,,,,,,,,,,,,,93,150124,21,Female,1,2024/03/15_11:32:23,YZ,None
,,,,,,Calibration,0,,2,2583,,,,,,,,,,,,,,,,,,,,,,,,,12,,,,,,,,,,,,,,,,,,,,,,,,,,,,,,,,,,,,,,,,,,,,,,,,,93,150124,21,Female,1,2024/03/15_11:32:23,YZ,None
,,,,,,calibration,0,4,2,2583,1,V,0,left,0.66235379,0,0,,,,,,,,,,,,,,,,,,,,,,,,,,,,,,,,,,,,,,,,,,,,,,,,,,,,,,,,,,,,,,,,,,,93,150124,21,Female,1,2024/03/15_11:32:23,YZ,None
,,,,,,calibration,0,4,2,2583,2,S,0,left,0.583197647,0,0,,,,,,,,,,,,,,,,,,,,,,,,,,,,,,,,,,,,,,,,,,,,,,,,,,,,,,,,,,,,,,,,,,,93,150124,21,Female,1,2024/03/15_11:32:23,YZ,None
,,,,,,calibration,0,4,2,2583,3,F,0,left,0.725052029,0,0,,,,,,,,,,,,,,,,,,,,,,,,,,,,,,,,,,,,,,,,,,,,,,,,,,,,,,,,,,,,,,,,,,,93,150124,21,Female,1,2024/03/15_11:32:23,YZ,None
,,,,,,calibration,0,4,2,2583,4,J,0,left,0.45123115,0,0,,,,,,,,,,,,,,,,,,,,,,,,,,,,,,,,,,,,,,,,,,,,,,,,,,,,,,,,,,,,,,,,,,,93,150124,21,Female,1,2024/03/15_11:32:23,YZ,None
,,,,,,calibration,0,4,2,2583,5,F,1,right,0.557273848,0,0,,,,,,,,,,,,,,,,,,,,,,,,,,,,,,,,,,,,,,,,,,,,,,,,,,,,,,,,,,,,,,,,,,,93,150124,21,Female,1,2024/03/15_11:32:23,YZ,None
,,,,,,calibration,0,4,2,2583,6,J,1,right,0.737017888,0,0,,,,,,,,,,,,,,,,,,,,,,,,,,,,,,,,,,,,,,,,,,,,,,,,,,,,,,,,,,,,,,,,,,,93,150124,21,Female,1,2024/03/15_11:32:23,YZ,None
,,,,,,calibration,0,4,2,2583,,,,,,,,0,0,1,0,0,0,0.619354392,0,4,0,0,0,0,0,2,4,0,,,,,,,,,,,,,,,,,,,,,,,,,,,,,,,,,,,,,,,,,,,,,,,,,,93,150124,21,Female,1,2024/03/15_11:32:23,YZ,None
,,,,,,Calibration,0,,2,2583,,,,,,,,,,,,,,,,,,,,,,,,,13,,,,,,,,,,,,,,,,,,,,,,,,,,,,,,,,,,,,,,,,,,,,,,,,,93,150124,21,Female,1,2024/03/15_11:32:23,YZ,None
,,,,,,calibration,0,22,2,2583,1,F,0,left,0.543792867,0,0,,,,,,,,,,,,,,,,,,,,,,,,,,,,,,,,,,,,,,,,,,,,,,,,,,,,,,,,,,,,,,,,,,,93,150124,21,Female,1,2024/03/15_11:32:23,YZ,None
,,,,,,calibration,0,22,2,2583,2,X,0,left,0.481409701,0,0,,,,,,,,,,,,,,,,,,,,,,,,,,,,,,,,,,,,,,,,,,,,,,,,,,,,,,,,,,,,,,,,,,,93,150124,21,Female,1,2024/03/15_11:32:23,YZ,None
,,,,,,calibration,0,22,2,2583,3,Q,0,left,0.56040719,0,0,,,,,,,,,,,,,,,,,,,,,,,,,,,,,,,,,,,,,,,,,,,,,,,,,,,,,,,,,,,,,,,,,,,93,150124,21,Female,1,2024/03/15_11:32:23,YZ,None
,,,,,,calibration,0,22,2,2583,4,V,0,left,0.525496208,0,0,,,,,,,,,,,,,,,,,,,,,,,,,,,,,,,,,,,,,,,,,,,,,,,,,,,,,,,,,,,,,,,,,,,93,150124,21,Female,1,2024/03/15_11:32:23,YZ,None
,,,,,,calibration,0,22,2,2583,5,Q,1,right,0.446685006,0,0,,,,,,,,,,,,,,,,,,,,,,,,,,,,,,,,,,,,,,,,,,,,,,,,,,,,,,,,,,,,,,,,,,,93,150124,21,Female,1,2024/03/15_11:32:23,YZ,None
,,,,,,calibration,0,22,2,2583,6,V,1,right,0.777858078,0,0,,,,,,,,,,,,,,,,,,,,,,,,,,,,,,,,,,,,,,,,,,,,,,,,,,,,,,,,,,,,,,,,,,,93,150124,21,Female,1,2024/03/15_11:32:23,YZ,None
,,,,,,calibration,0,22,2,2583,,,,,,,,0,0,1,0,0,0,0.555941508,0,4,0,0,0,0,0,2,4,0,,,,,,,,,,,,,,,,,,,,,,,,,,,,,,,,,,,,,,,,,,,,,,,,,,93,150124,21,Female,1,2024/03/15_11:32:23,YZ,None
,,,,,,Calibration,0,,2,2583,,,,,,,,,,,,,,,,,,,,,,,,,14,,,,,,,,,,,,,,,,,,,,,,,,,,,,,,,,,,,,,,,,,,,,,,,,,93,150124,21,Female,1,2024/03/15_11:32:23,YZ,None
,,,,,,calibration,0,25,2,2583,1,V,0,left,0.464434344,0,0,,,,,,,,,,,,,,,,,,,,,,,,,,,,,,,,,,,,,,,,,,,,,,,,,,,,,,,,,,,,,,,,,,,93,150124,21,Female,1,2024/03/15_11:32:23,YZ,None
,,,,,,calibration,0,25,2,2583,2,C,0,left,0.331560528,0,0,,,,,,,,,,,,,,,,,,,,,,,,,,,,,,,,,,,,,,,,,,,,,,,,,,,,,,,,,,,,,,,,,,,93,150124,21,Female,1,2024/03/15_11:32:23,YZ,None
,,,,,,calibration,0,25,2,2583,3,V,1,left,0.322192189,1,0,,,,,,,,,,,,,,,,,,,,,,,,,,,,,,,,,,,,,,,,,,,,,,,,,,,,,,,,,,,,,,,,,,,93,150124,21,Female,1,2024/03/15_11:32:23,YZ,None
,,,,,,calibration,0,25,2,2583,4,C,1,right,0.625437056,0,0,,,,,,,,,,,,,,,,,,,,,,,,,,,,,,,,,,,,,,,,,,,,,,,,,,,,,,,,,,,,,,,,,,,93,150124,21,Female,1,2024/03/15_11:32:23,YZ,None
,,,,,,calibration,0,25,2,2583,5,N,0,left,0.575522842,0,0,,,,,,,,,,,,,,,,,,,,,,,,,,,,,,,,,,,,,,,,,,,,,,,,,,,,,,,,,,,,,,,,,,,93,150124,21,Female,1,2024/03/15_11:32:23,YZ,None
,,,,,,calibration,0,25,2,2583,6,J,0,left,0.652252962,0,0,,,,,,,,,,,,,,,,,,,,,,,,,,,,,,,,,,,,,,,,,,,,,,,,,,,,,,,,,,,,,,,,,,,93,150124,21,Female,1,2024/03/15_11:32:23,YZ,None
,,,,,,calibration,0,25,2,2583,,,,,,,,0.125,0.5,1,0,0,0,0.49523332,1,4,0,0,0,0,1,2,4,0,,,,,,,,,,,,,,,,,,,,,,,,,,,,,,,,,,,,,,,,,,,,,,,,,,93,150124,21,Female,1,2024/03/15_11:32:23,YZ,None
,,,,,,Calibration,0,,2,2583,,,,,,,,,,,,,,,,,,,,,,,,,15,,,,,,,,,,,,,,,,,,,,,,,,,,,,,,,,,,,,,,,,,,,,,,,,,93,150124,21,Female,1,2024/03/15_11:32:23,YZ,None
,,,,,,calibration,0,35,2,2583,1,J,0,left,0.616408738,0,0,,,,,,,,,,,,,,,,,,,,,,,,,,,,,,,,,,,,,,,,,,,,,,,,,,,,,,,,,,,,,,,,,,,93,150124,21,Female,1,2024/03/15_11:32:23,YZ,None
,,,,,,calibration,0,35,2,2583,2,J,0,right,0.724786986,1,0,,,,,,,,,,,,,,,,,,,,,,,,,,,,,,,,,,,,,,,,,,,,,,,,,,,,,,,,,,,,,,,,,,,93,150124,21,Female,1,2024/03/15_11:32:23,YZ,None
,,,,,,calibration,0,35,2,2583,3,V,0,left,0.908655779,0,0,,,,,,,,,,,,,,,,,,,,,,,,,,,,,,,,,,,,,,,,,,,,,,,,,,,,,,,,,,,,,,,,,,,93,150124,21,Female,1,2024/03/15_11:32:23,YZ,None
,,,,,,calibration,0,35,2,2583,4,J,1,right,0.640536928,0,0,,,,,,,,,,,,,,,,,,,,,,,,,,,,,,,,,,,,,,,,,,,,,,,,,,,,,,,,,,,,,,,,,,,93,150124,21,Female,1,2024/03/15_11:32:23,YZ,None
,,,,,,calibration,0,35,2,2583,5,V,1,right,0.756705767,0,0,,,,,,,,,,,,,,,,,,,,,,,,,,,,,,,,,,,,,,,,,,,,,,,,,,,,,,,,,,,,,,,,,,,93,150124,21,Female,1,2024/03/15_11:32:23,YZ,None
,,,,,,calibration,0,35,2,2583,6,Q,0,left,0.462485196,0,0,,,,,,,,,,,,,,,,,,,,,,,,,,,,,,,,,,,,,,,,,,,,,,,,,,,,,,,,,,,,,,,,,,,93,150124,21,Female,1,2024/03/15_11:32:23,YZ,None
,,,,,,calibration,0,35,2,2583,,,,,,,,0.0625,0,0.75,0.25,0,0.25,0.684929899,0,3,0,0,0,1,1,2,4,0,,,,,,,,,,,,,,,,,,,,,,,,,,,,,,,,,,,,,,,,,,,,,,,,,,93,150124,21,Female,1,2024/03/15_11:32:23,YZ,None
,,,,,,Calibration,0,,2,2583,,,,,,,,,,,,,,,,,,,,,,,,,16,,,,,,,,,,,,,,,,,,,,,,,,,,,,,,,,,,,,,,,,,,,,,,,,,93,150124,21,Female,1,2024/03/15_11:32:23,YZ,None
,,,,,,calibration,0,33,2,2583,1,F,0,left,0.583887203,0,0,,,,,,,,,,,,,,,,,,,,,,,,,,,,,,,,,,,,,,,,,,,,,,,,,,,,,,,,,,,,,,,,,,,93,150124,21,Female,1,2024/03/15_11:32:23,YZ,None
,,,,,,calibration,0,33,2,2583,2,Q,0,left,0.61541289,0,0,,,,,,,,,,,,,,,,,,,,,,,,,,,,,,,,,,,,,,,,,,,,,,,,,,,,,,,,,,,,,,,,,,,93,150124,21,Female,1,2024/03/15_11:32:23,YZ,None
,,,,,,calibration,0,33,2,2583,3,X,0,left,0.714883318,0,0,,,,,,,,,,,,,,,,,,,,,,,,,,,,,,,,,,,,,,,,,,,,,,,,,,,,,,,,,,,,,,,,,,,93,150124,21,Female,1,2024/03/15_11:32:23,YZ,None
,,,,,,calibration,0,33,2,2583,4,Q,1,right,0.434599897,0,0,,,,,,,,,,,,,,,,,,,,,,,,,,,,,,,,,,,,,,,,,,,,,,,,,,,,,,,,,,,,,,,,,,,93,150124,21,Female,1,2024/03/15_11:32:23,YZ,None
,,,,,,calibration,0,33,2,2583,5,X,1,right,0.613737058,0,0,,,,,,,,,,,,,,,,,,,,,,,,,,,,,,,,,,,,,,,,,,,,,,,,,,,,,,,,,,,,,,,,,,,93,150124,21,Female,1,2024/03/15_11:32:23,YZ,None
,,,,,,calibration,0,33,2,2583,6,J,0,left,0.590836027,0,0,,,,,,,,,,,,,,,,,,,,,,,,,,,,,,,,,,,,,,,,,,,,,,,,,,,,,,,,,,,,,,,,,,,93,150124,21,Female,1,2024/03/15_11:32:23,YZ,None
,,,,,,calibration,0,33,2,2583,,,,,,,,0,0,1,0,0,0,0.592226066,0,4,0,0,0,0,0,2,4,0,,,,,,,,,,,,,,,,,,,,,,,,,,,,,,,,,,,,,,,,,,,,,,,,,,93,150124,21,Female,1,2024/03/15_11:32:23,YZ,None
,,,,,,Calibration,0,,2,2583,,,,,,,,,,,,,,,,,,,,,,,,,17,,,,,,,,,,,,,,,,,,,,,,,,,,,,,,,,,,,,,,,,,,,,,,,,,93,150124,21,Female,1,2024/03/15_11:32:23,YZ,None
,,,,,,calibration,0,26,2,2583,1,J,0,left,0.478184961,0,0,,,,,,,,,,,,,,,,,,,,,,,,,,,,,,,,,,,,,,,,,,,,,,,,,,,,,,,,,,,,,,,,,,,93,150124,21,Female,1,2024/03/15_11:32:23,YZ,None
,,,,,,calibration,0,26,2,2583,2,Q,0,left,0.488970335,0,0,,,,,,,,,,,,,,,,,,,,,,,,,,,,,,,,,,,,,,,,,,,,,,,,,,,,,,,,,,,,,,,,,,,93,150124,21,Female,1,2024/03/15_11:32:23,YZ,None
,,,,,,calibration,0,26,2,2583,3,F,0,left,0.463808077,0,0,,,,,,,,,,,,,,,,,,,,,,,,,,,,,,,,,,,,,,,,,,,,,,,,,,,,,,,,,,,,,,,,,,,93,150124,21,Female,1,2024/03/15_11:32:23,YZ,None
,,,,,,calibration,0,26,2,2583,4,Q,1,right,0.292360116,0,0,,,,,,,,,,,,,,,,,,,,,,,,,,,,,,,,,,,,,,,,,,,,,,,,,,,,,,,,,,,,,,,,,,,93,150124,21,Female,1,2024/03/15_11:32:23,YZ,None
,,,,,,calibration,0,26,2,2583,5,F,1,left,0.364343877,1,0,,,,,,,,,,,,,,,,,,,,,,,,,,,,,,,,,,,,,,,,,,,,,,,,,,,,,,,,,,,,,,,,,,,93,150124,21,Female,1,2024/03/15_11:32:23,YZ,None
,,,,,,calibration,0,26,2,2583,6,V,0,left,0.482851465,0,0,,,,,,,,,,,,,,,,,,,,,,,,,,,,,,,,,,,,,,,,,,,,,,,,,,,,,,,,,,,,,,,,,,,93,150124,21,Female,1,2024/03/15_11:32:23,YZ,None
,,,,,,calibration,0,26,2,2583,,,,,,,,0.125,0.5,1,0,0,0,0.428419805,1,4,0,0,0,0,1,2,4,0,,,,,,,,,,,,,,,,,,,,,,,,,,,,,,,,,,,,,,,,,,,,,,,,,,93,150124,21,Female,1,2024/03/15_11:32:23,YZ,None
,,,,,,Calibration,0,,2,2583,,,,,,,,,,,,,,,,,,,,,,,,,18,,,,,,,,,,,,,,,,,,,,,,,,,,,,,,,,,,,,,,,,,,,,,,,,,93,150124,21,Female,1,2024/03/15_11:32:23,YZ,None
,,,,,,calibration,0,4,2,2583,1,V,0,left,0,0,0,,,,,,,,,,,,,,,,,,,,,,,,,,,,,,,,,,,,,,,,,,,,,,,,,,,,,,,,,,,,,,,,,,,93,150124,21,Female,1,2024/03/15_11:32:23,YZ,None
,,,,,,calibration,0,4,2,2583,2,S,0,left,0.582871762,0,0,,,,,,,,,,,,,,,,,,,,,,,,,,,,,,,,,,,,,,,,,,,,,,,,,,,,,,,,,,,,,,,,,,,93,150124,21,Female,1,2024/03/15_11:32:23,YZ,None
,,,,,,calibration,0,4,2,2583,3,F,0,left,0.642501219,0,0,,,,,,,,,,,,,,,,,,,,,,,,,,,,,,,,,,,,,,,,,,,,,,,,,,,,,,,,,,,,,,,,,,,93,150124,21,Female,1,2024/03/15_11:32:23,YZ,None
,,,,,,calibration,0,4,2,2583,4,J,0,left,0.607074636,0,0,,,,,,,,,,,,,,,,,,,,,,,,,,,,,,,,,,,,,,,,,,,,,,,,,,,,,,,,,,,,,,,,,,,93,150124,21,Female,1,2024/03/15_11:32:23,YZ,None
,,,,,,calibration,0,4,2,2583,5,F,1,right,0.548395467,0,0,,,,,,,,,,,,,,,,,,,,,,,,,,,,,,,,,,,,,,,,,,,,,,,,,,,,,,,,,,,,,,,,,,,93,150124,21,Female,1,2024/03/15_11:32:23,YZ,None
,,,,,,calibration,0,4,2,2583,6,J,1,right,0.674352651,0,0,,,,,,,,,,,,,,,,,,,,,,,,,,,,,,,,,,,,,,,,,,,,,,,,,,,,,,,,,,,,,,,,,,,93,150124,21,Female,1,2024/03/15_11:32:23,YZ,None
,,,,,,calibration,0,4,2,2583,,,,,,,,0,0,1,0,0,0,0.509199289,0,4,0,0,0,0,0,2,4,0,,,,,,,,,,,,,,,,,,,,,,,,,,,,,,,,,,,,,,,,,,,,,,,,,,93,150124,21,Female,1,2024/03/15_11:32:23,YZ,None
,,,,,,Calibration,0,,2,2583,,,,,,,,,,,,,,,,,,,,,,,,,19,,,,,,,,,,,,,,,,,,,,,,,,,,,,,,,,,,,,,,,,,,,,,,,,,93,150124,21,Female,1,2024/03/15_11:32:23,YZ,None
,,,,,,calibration,0,35,2,2583,1,J,0,left,0,0,0,,,,,,,,,,,,,,,,,,,,,,,,,,,,,,,,,,,,,,,,,,,,,,,,,,,,,,,,,,,,,,,,,,,93,150124,21,Female,1,2024/03/15_11:32:23,YZ,None
,,,,,,calibration,0,35,2,2583,2,J,0,left,0.463028984,0,0,,,,,,,,,,,,,,,,,,,,,,,,,,,,,,,,,,,,,,,,,,,,,,,,,,,,,,,,,,,,,,,,,,,93,150124,21,Female,1,2024/03/15_11:32:23,YZ,None
,,,,,,calibration,0,35,2,2583,3,V,0,right,0.94676267,1,0,,,,,,,,,,,,,,,,,,,,,,,,,,,,,,,,,,,,,,,,,,,,,,,,,,,,,,,,,,,,,,,,,,,93,150124,21,Female,1,2024/03/15_11:32:23,YZ,None
,,,,,,calibration,0,35,2,2583,4,J,1,left,0.489389366,1,0,,,,,,,,,,,,,,,,,,,,,,,,,,,,,,,,,,,,,,,,,,,,,,,,,,,,,,,,,,,,,,,,,,,93,150124,21,Female,1,2024/03/15_11:32:23,YZ,None
,,,,,,calibration,0,35,2,2583,5,V,1,right,0.882517025,0,0,,,,,,,,,,,,,,,,,,,,,,,,,,,,,,,,,,,,,,,,,,,,,,,,,,,,,,,,,,,,,,,,,,,93,150124,21,Female,1,2024/03/15_11:32:23,YZ,None
,,,,,,calibration,0,35,2,2583,6,Q,0,left,0.808312725,0,0,,,,,,,,,,,,,,,,,,,,,,,,,,,,,,,,,,,,,,,,,,,,,,,,,,,,,,,,,,,,,,,,,,,93,150124,21,Female,1,2024/03/15_11:32:23,YZ,None
,,,,,,calibration,0,35,2,2583,,,,,,,,0.0625,0.5,0.75,0.25,0,0.25,0.598335128,1,3,0,0,0,1,2,2,4,0,,,,,,,,,,,,,,,,,,,,,,,,,,,,,,,,,,,,,,,,,,,,,,,,,,93,150124,21,Female,1,2024/03/15_11:32:23,YZ,None
,,,,,,Calibration,0,,2,2583,,,,,,,,,,,,,,,,,,,,,,,,,20,,,,,,,,,,,,,,,,,,,,,,,,,,,,,,,,,,,,,,,,,,,,,,,,,93,150124,21,Female,1,2024/03/15_11:32:23,YZ,None
,,,,,,calibration,0,33,2,2583,1,F,0,left,1.241888075,0,0,,,,,,,,,,,,,,,,,,,,,,,,,,,,,,,,,,,,,,,,,,,,,,,,,,,,,,,,,,,,,,,,,,,93,150124,21,Female,1,2024/03/15_11:32:23,YZ,None
,,,,,,calibration,0,33,2,2583,2,Q,0,left,0.394869856,0,0,,,,,,,,,,,,,,,,,,,,,,,,,,,,,,,,,,,,,,,,,,,,,,,,,,,,,,,,,,,,,,,,,,,93,150124,21,Female,1,2024/03/15_11:32:23,YZ,None
,,,,,,calibration,0,33,2,2583,3,X,0,left,0.562686891,0,0,,,,,,,,,,,,,,,,,,,,,,,,,,,,,,,,,,,,,,,,,,,,,,,,,,,,,,,,,,,,,,,,,,,93,150124,21,Female,1,2024/03/15_11:32:23,YZ,None
,,,,,,calibration,0,33,2,2583,4,Q,1,right,0.99691473,0,0,,,,,,,,,,,,,,,,,,,,,,,,,,,,,,,,,,,,,,,,,,,,,,,,,,,,,,,,,,,,,,,,,,,93,150124,21,Female,1,2024/03/15_11:32:23,YZ,None
,,,,,,calibration,0,33,2,2583,5,X,1,right,0.692292814,0,0,,,,,,,,,,,,,,,,,,,,,,,,,,,,,,,,,,,,,,,,,,,,,,,,,,,,,,,,,,,,,,,,,,,93,150124,21,Female,1,2024/03/15_11:32:23,YZ,None
,,,,,,calibration,0,33,2,2583,6,J,0,left,0.472885029,0,0,,,,,,,,,,,,,,,,,,,,,,,,,,,,,,,,,,,,,,,,,,,,,,,,,,,,,,,,,,,,,,,,,,,93,150124,21,Female,1,2024/03/15_11:32:23,YZ,None
,,,,,,calibration,0,33,2,2583,,,,,,,,0,0,1,0,0,0,0.726922899,0,4,0,0,0,0,0,2,4,0,,,,,,,,,,,,,,,,,,,,,,,,,,,,,,,,,,,,,,,,,,,,,,,,,,93,150124,21,Female,1,2024/03/15_11:32:23,YZ,None
,,,,,,Calibration,0,,2,2583,,,,,,,,,,,,,,,,,,,,,,,,,21,,,,,,,,,,,,,,,,,,,,,,,,,,,,,,,,,,,,,,,,,,,,,,,,,93,150124,21,Female,1,2024/03/15_11:32:23,YZ,None
,,,,,,calibration,0,25,2,2583,1,V,0,left,0.36042635,0,0,,,,,,,,,,,,,,,,,,,,,,,,,,,,,,,,,,,,,,,,,,,,,,,,,,,,,,,,,,,,,,,,,,,93,150124,21,Female,1,2024/03/15_11:32:23,YZ,None
,,,,,,calibration,0,25,2,2583,2,C,0,left,0.306351485,0,0,,,,,,,,,,,,,,,,,,,,,,,,,,,,,,,,,,,,,,,,,,,,,,,,,,,,,,,,,,,,,,,,,,,93,150124,21,Female,1,2024/03/15_11:32:23,YZ,None
,,,,,,calibration,0,25,2,2583,3,V,1,left,0.512389433,1,0,,,,,,,,,,,,,,,,,,,,,,,,,,,,,,,,,,,,,,,,,,,,,,,,,,,,,,,,,,,,,,,,,,,93,150124,21,Female,1,2024/03/15_11:32:23,YZ,None
,,,,,,calibration,0,25,2,2583,4,C,1,right,0.807740493,0,0,,,,,,,,,,,,,,,,,,,,,,,,,,,,,,,,,,,,,,,,,,,,,,,,,,,,,,,,,,,,,,,,,,,93,150124,21,Female,1,2024/03/15_11:32:23,YZ,None
,,,,,,calibration,0,25,2,2583,5,N,0,left,0.697579242,0,0,,,,,,,,,,,,,,,,,,,,,,,,,,,,,,,,,,,,,,,,,,,,,,,,,,,,,,,,,,,,,,,,,,,93,150124,21,Female,1,2024/03/15_11:32:23,YZ,None
,,,,,,calibration,0,25,2,2583,6,J,0,left,0.591614157,0,0,,,,,,,,,,,,,,,,,,,,,,,,,,,,,,,,,,,,,,,,,,,,,,,,,,,,,,,,,,,,,,,,,,,93,150124,21,Female,1,2024/03/15_11:32:23,YZ,None
,,,,,,calibration,0,25,2,2583,,,,,,,,0.125,0.5,1,0,0,0,0.54601686,1,4,0,0,0,0,1,2,4,0,,,,,,,,,,,,,,,,,,,,,,,,,,,,,,,,,,,,,,,,,,,,,,,,,,93,150124,21,Female,1,2024/03/15_11:32:23,YZ,None
,,,,,,Calibration,0,,2,2583,,,,,,,,,,,,,,,,,,,,,,,,,22,,,,,,,,,,,,,,,,,,,,,,,,,,,,,,,,,,,,,,,,,,,,,,,,,93,150124,21,Female,1,2024/03/15_11:32:23,YZ,None
,,,,,,calibration,0,9,2,2583,1,S,0,left,0.480702975,0,0,,,,,,,,,,,,,,,,,,,,,,,,,,,,,,,,,,,,,,,,,,,,,,,,,,,,,,,,,,,,,,,,,,,93,150124,21,Female,1,2024/03/15_11:32:23,YZ,None
,,,,,,calibration,0,9,2,2583,2,V,0,left,0.388222374,0,0,,,,,,,,,,,,,,,,,,,,,,,,,,,,,,,,,,,,,,,,,,,,,,,,,,,,,,,,,,,,,,,,,,,93,150124,21,Female,1,2024/03/15_11:32:23,YZ,None
,,,,,,calibration,0,9,2,2583,3,X,0,left,0.525227015,0,0,,,,,,,,,,,,,,,,,,,,,,,,,,,,,,,,,,,,,,,,,,,,,,,,,,,,,,,,,,,,,,,,,,,93,150124,21,Female,1,2024/03/15_11:32:23,YZ,None
,,,,,,calibration,0,9,2,2583,4,S,0,right,0.540104312,1,0,,,,,,,,,,,,,,,,,,,,,,,,,,,,,,,,,,,,,,,,,,,,,,,,,,,,,,,,,,,,,,,,,,,93,150124,21,Female,1,2024/03/15_11:32:23,YZ,None
,,,,,,calibration,0,9,2,2583,5,X,1,right,0.575678019,0,0,,,,,,,,,,,,,,,,,,,,,,,,,,,,,,,,,,,,,,,,,,,,,,,,,,,,,,,,,,,,,,,,,,,93,150124,21,Female,1,2024/03/15_11:32:23,YZ,None
,,,,,,calibration,0,9,2,2583,6,S,1,right,0.942020383,0,0,,,,,,,,,,,,,,,,,,,,,,,,,,,,,,,,,,,,,,,,,,,,,,,,,,,,,,,,,,,,,,,,,,,93,150124,21,Female,1,2024/03/15_11:32:23,YZ,None
,,,,,,calibration,0,9,2,2583,,,,,,,,0.0625,0,0.75,0.25,0,0.25,0.575325846,0,3,0,0,0,1,1,2,4,0,,,,,,,,,,,,,,,,,,,,,,,,,,,,,,,,,,,,,,,,,,,,,,,,,,93,150124,21,Female,1,2024/03/15_11:32:23,YZ,None
,,,,,,Calibration,0,,2,2583,,,,,,,,,,,,,,,,,,,,,,,,,23,,,,,,,,,,,,,,,,,,,,,,,,,,,,,,,,,,,,,,,,,,,,,,,,,93,150124,21,Female,1,2024/03/15_11:32:23,YZ,None
,,,,,,calibration,0,21,2,2583,1,S,0,left,0.378656325,0,0,,,,,,,,,,,,,,,,,,,,,,,,,,,,,,,,,,,,,,,,,,,,,,,,,,,,,,,,,,,,,,,,,,,93,150124,21,Female,1,2024/03/15_11:32:23,YZ,None
,,,,,,calibration,0,21,2,2583,2,F,0,left,0.496946385,0,0,,,,,,,,,,,,,,,,,,,,,,,,,,,,,,,,,,,,,,,,,,,,,,,,,,,,,,,,,,,,,,,,,,,93,150124,21,Female,1,2024/03/15_11:32:23,YZ,None
,,,,,,calibration,0,21,2,2583,3,V,0,left,0.640538155,0,0,,,,,,,,,,,,,,,,,,,,,,,,,,,,,,,,,,,,,,,,,,,,,,,,,,,,,,,,,,,,,,,,,,,93,150124,21,Female,1,2024/03/15_11:32:23,YZ,None
,,,,,,calibration,0,21,2,2583,4,J,0,left,0.742383341,0,0,,,,,,,,,,,,,,,,,,,,,,,,,,,,,,,,,,,,,,,,,,,,,,,,,,,,,,,,,,,,,,,,,,,93,150124,21,Female,1,2024/03/15_11:32:23,YZ,None
,,,,,,calibration,0,21,2,2583,5,V,1,right,0.914611766,0,0,,,,,,,,,,,,,,,,,,,,,,,,,,,,,,,,,,,,,,,,,,,,,,,,,,,,,,,,,,,,,,,,,,,93,150124,21,Female,1,2024/03/15_11:32:23,YZ,None
,,,,,,calibration,0,21,2,2583,6,J,1,right,0.61565957,0,0,,,,,,,,,,,,,,,,,,,,,,,,,,,,,,,,,,,,,,,,,,,,,,,,,,,,,,,,,,,,,,,,,,,93,150124,21,Female,1,2024/03/15_11:32:23,YZ,None
,,,,,,calibration,0,21,2,2583,,,,,,,,0,0,1,0,0,0,0.631465924,0,4,0,0,0,0,0,2,4,0,,,,,,,,,,,,,,,,,,,,,,,,,,,,,,,,,,,,,,,,,,,,,,,,,,93,150124,21,Female,1,2024/03/15_11:32:23,YZ,None
,,,,,,Calibration,0,,2,2583,,,,,,,,,,,,,,,,,,,,,,,,,24,,,,,,,,,,,,,,,,,,,,,,,,,,,,,,,,,,,,,,,,,,,,,,,,,93,150124,21,Female,1,2024/03/15_11:32:23,YZ,None
,,,,,,calibration,0,14,2,2583,1,X,0,left,0.423050807,0,0,,,,,,,,,,,,,,,,,,,,,,,,,,,,,,,,,,,,,,,,,,,,,,,,,,,,,,,,,,,,,,,,,,,93,150124,21,Female,1,2024/03/15_11:32:23,YZ,None
,,,,,,calibration,0,14,2,2583,2,X,0,left,0.455883842,0,0,,,,,,,,,,,,,,,,,,,,,,,,,,,,,,,,,,,,,,,,,,,,,,,,,,,,,,,,,,,,,,,,,,,93,150124,21,Female,1,2024/03/15_11:32:23,YZ,None
,,,,,,calibration,0,14,2,2583,3,X,1,left,0.58078542,1,0,,,,,,,,,,,,,,,,,,,,,,,,,,,,,,,,,,,,,,,,,,,,,,,,,,,,,,,,,,,,,,,,,,,93,150124,21,Female,1,2024/03/15_11:32:23,YZ,None
,,,,,,calibration,0,14,2,2583,4,X,1,right,0.61831551,0,0,,,,,,,,,,,,,,,,,,,,,,,,,,,,,,,,,,,,,,,,,,,,,,,,,,,,,,,,,,,,,,,,,,,93,150124,21,Female,1,2024/03/15_11:32:23,YZ,None
,,,,,,calibration,0,14,2,2583,5,Q,0,left,0.959487599,0,0,,,,,,,,,,,,,,,,,,,,,,,,,,,,,,,,,,,,,,,,,,,,,,,,,,,,,,,,,,,,,,,,,,,93,150124,21,Female,1,2024/03/15_11:32:23,YZ,None
,,,,,,calibration,0,14,2,2583,6,J,0,left,0.74771363,0,0,,,,,,,,,,,,,,,,,,,,,,,,,,,,,,,,,,,,,,,,,,,,,,,,,,,,,,,,,,,,,,,,,,,93,150124,21,Female,1,2024/03/15_11:32:23,YZ,None
,,,,,,calibration,0,14,2,2583,,,,,,,,0.125,0.5,1,0,0,0,0.630872801,1,4,0,0,0,0,1,2,4,0,,,,,,,,,,,,,,,,,,,,,,,,,,,,,,,,,,,,,,,,,,,,,,,,,,93,150124,21,Female,1,2024/03/15_11:32:23,YZ,None
,,,,,,Calibration,0,,2,2583,,,,,,,,,,,,,,,,,,,,,,,,,25,,,,,,,,,,,,,,,,,,,,,,,,,,,,,,,,,,,,,,,,,,,,,,,,,93,150124,21,Female,1,2024/03/15_11:32:23,YZ,None
,,,,,,calibration,0,18,2,2583,1,Q,0,left,0.5540067,0,0,,,,,,,,,,,,,,,,,,,,,,,,,,,,,,,,,,,,,,,,,,,,,,,,,,,,,,,,,,,,,,,,,,,93,150124,21,Female,1,2024/03/15_11:32:23,YZ,None
,,,,,,calibration,0,18,2,2583,2,X,0,left,0.410028076,0,0,,,,,,,,,,,,,,,,,,,,,,,,,,,,,,,,,,,,,,,,,,,,,,,,,,,,,,,,,,,,,,,,,,,93,150124,21,Female,1,2024/03/15_11:32:23,YZ,None
,,,,,,calibration,0,18,2,2583,3,N,0,left,0.666113162,0,0,,,,,,,,,,,,,,,,,,,,,,,,,,,,,,,,,,,,,,,,,,,,,,,,,,,,,,,,,,,,,,,,,,,93,150124,21,Female,1,2024/03/15_11:32:23,YZ,None
,,,,,,calibration,0,18,2,2583,4,X,1,right,0.775042508,0,0,,,,,,,,,,,,,,,,,,,,,,,,,,,,,,,,,,,,,,,,,,,,,,,,,,,,,,,,,,,,,,,,,,,93,150124,21,Female,1,2024/03/15_11:32:23,YZ,None
,,,,,,calibration,0,18,2,2583,5,N,1,right,0.708861742,0,0,,,,,,,,,,,,,,,,,,,,,,,,,,,,,,,,,,,,,,,,,,,,,,,,,,,,,,,,,,,,,,,,,,,93,150124,21,Female,1,2024/03/15_11:32:23,YZ,None
,,,,,,calibration,0,18,2,2583,6,V,0,left,0.512328373,0,0,,,,,,,,,,,,,,,,,,,,,,,,,,,,,,,,,,,,,,,,,,,,,,,,,,,,,,,,,,,,,,,,,,,93,150124,21,Female,1,2024/03/15_11:32:23,YZ,None
,,,,,,calibration,0,18,2,2583,,,,,,,,0,0,1,0,0,0,0.60439676,0,4,0,0,0,0,0,2,4,0,,,,,,,,,,,,,,,,,,,,,,,,,,,,,,,,,,,,,,,,,,,,,,,,,,93,150124,21,Female,1,2024/03/15_11:32:23,YZ,None
,,,,,,Calibration,0,,2,2583,,,,,,,,,,,,,,,,,,,,,,,,,26,,,,,,,,,,,,,,,,,,,,,,,,,,,,,,,,,,,,,,,,,,,,,,,,,93,150124,21,Female,1,2024/03/15_11:32:23,YZ,None
,,,,,,calibration,0,27,2,2583,1,C,0,left,0.438320442,0,0,,,,,,,,,,,,,,,,,,,,,,,,,,,,,,,,,,,,,,,,,,,,,,,,,,,,,,,,,,,,,,,,,,,93,150124,21,Female,1,2024/03/15_11:32:23,YZ,None
,,,,,,calibration,0,27,2,2583,2,J,0,left,0.384267241,0,0,,,,,,,,,,,,,,,,,,,,,,,,,,,,,,,,,,,,,,,,,,,,,,,,,,,,,,,,,,,,,,,,,,,93,150124,21,Female,1,2024/03/15_11:32:23,YZ,None
,,,,,,calibration,0,27,2,2583,3,C,1,right,0.460351897,0,0,,,,,,,,,,,,,,,,,,,,,,,,,,,,,,,,,,,,,,,,,,,,,,,,,,,,,,,,,,,,,,,,,,,93,150124,21,Female,1,2024/03/15_11:32:23,YZ,None
,,,,,,calibration,0,27,2,2583,4,S,0,left,0.461175604,0,0,,,,,,,,,,,,,,,,,,,,,,,,,,,,,,,,,,,,,,,,,,,,,,,,,,,,,,,,,,,,,,,,,,,93,150124,21,Female,1,2024/03/15_11:32:23,YZ,None
,,,,,,calibration,0,27,2,2583,5,C,1,right,0.924288075,0,0,,,,,,,,,,,,,,,,,,,,,,,,,,,,,,,,,,,,,,,,,,,,,,,,,,,,,,,,,,,,,,,,,,,93,150124,21,Female,1,2024/03/15_11:32:23,YZ,None
,,,,,,calibration,0,27,2,2583,6,N,0,left,0.492305015,0,0,,,,,,,,,,,,,,,,,,,,,,,,,,,,,,,,,,,,,,,,,,,,,,,,,,,,,,,,,,,,,,,,,,,93,150124,21,Female,1,2024/03/15_11:32:23,YZ,None
,,,,,,calibration,0,27,2,2583,,,,,,,,0,0,1,0,0,0,0.526784712,0,4,0,0,0,0,0,2,4,0,,,,,,,,,,,,,,,,,,,,,,,,,,,,,,,,,,,,,,,,,,,,,,,,,,93,150124,21,Female,1,2024/03/15_11:32:23,YZ,None
,,,,,,Calibration,0,,2,2583,,,,,,,,,,,,,,,,,,,,,,,,,27,,,,,,,,,,,,,,,,,,,,,,,,,,,,,,,,,,,,,,,,,,,,,,,,,93,150124,21,Female,1,2024/03/15_11:32:23,YZ,None
,,,,,,calibration,0,31,2,2583,1,X,0,left,0.42539639,0,0,,,,,,,,,,,,,,,,,,,,,,,,,,,,,,,,,,,,,,,,,,,,,,,,,,,,,,,,,,,,,,,,,,,93,150124,21,Female,1,2024/03/15_11:32:23,YZ,None
,,,,,,calibration,0,31,2,2583,2,F,0,left,0.314211889,0,0,,,,,,,,,,,,,,,,,,,,,,,,,,,,,,,,,,,,,,,,,,,,,,,,,,,,,,,,,,,,,,,,,,,93,150124,21,Female,1,2024/03/15_11:32:23,YZ,None
,,,,,,calibration,0,31,2,2583,3,X,1,right,0.433582196,0,0,,,,,,,,,,,,,,,,,,,,,,,,,,,,,,,,,,,,,,,,,,,,,,,,,,,,,,,,,,,,,,,,,,,93,150124,21,Female,1,2024/03/15_11:32:23,YZ,None
,,,,,,calibration,0,31,2,2583,4,N,0,left,0.409885078,0,0,,,,,,,,,,,,,,,,,,,,,,,,,,,,,,,,,,,,,,,,,,,,,,,,,,,,,,,,,,,,,,,,,,,93,150124,21,Female,1,2024/03/15_11:32:23,YZ,None
,,,,,,calibration,0,31,2,2583,5,X,1,right,0.576857092,0,0,,,,,,,,,,,,,,,,,,,,,,,,,,,,,,,,,,,,,,,,,,,,,,,,,,,,,,,,,,,,,,,,,,,93,150124,21,Female,1,2024/03/15_11:32:23,YZ,None
,,,,,,calibration,0,31,2,2583,6,S,0,left,0.424528482,0,0,,,,,,,,,,,,,,,,,,,,,,,,,,,,,,,,,,,,,,,,,,,,,,,,,,,,,,,,,,,,,,,,,,,93,150124,21,Female,1,2024/03/15_11:32:23,YZ,None
,,,,,,calibration,0,31,2,2583,,,,,,,,0,0,1,0,0,0,0.430743521,0,4,0,0,0,0,0,2,4,0,,,,,,,,,,,,,,,,,,,,,,,,,,,,,,,,,,,,,,,,,,,,,,,,,,93,150124,21,Female,1,2024/03/15_11:32:23,YZ,None
,,,,,,Calibration,0,,2,2583,,,,,,,,,,,,,,,,,,,,,,,,,28,,,,,,,,,,,,,,,,,,,,,,,,,,,,,,,,,,,,,,,,,,,,,,,,,93,150124,21,Female,1,2024/03/15_11:32:23,YZ,None
,,,,,,calibration,0,16,2,2583,1,F,0,left,0.448825718,0,0,,,,,,,,,,,,,,,,,,,,,,,,,,,,,,,,,,,,,,,,,,,,,,,,,,,,,,,,,,,,,,,,,,,93,150124,21,Female,1,2024/03/15_11:32:23,YZ,None
,,,,,,calibration,0,16,2,2583,2,F,0,left,0.523991573,0,0,,,,,,,,,,,,,,,,,,,,,,,,,,,,,,,,,,,,,,,,,,,,,,,,,,,,,,,,,,,,,,,,,,,93,150124,21,Female,1,2024/03/15_11:32:23,YZ,None
,,,,,,calibration,0,16,2,2583,3,Q,0,left,0.494521986,0,0,,,,,,,,,,,,,,,,,,,,,,,,,,,,,,,,,,,,,,,,,,,,,,,,,,,,,,,,,,,,,,,,,,,93,150124,21,Female,1,2024/03/15_11:32:23,YZ,None
,,,,,,calibration,0,16,2,2583,4,F,1,right,0.758117411,0,0,,,,,,,,,,,,,,,,,,,,,,,,,,,,,,,,,,,,,,,,,,,,,,,,,,,,,,,,,,,,,,,,,,,93,150124,21,Female,1,2024/03/15_11:32:23,YZ,None
,,,,,,calibration,0,16,2,2583,5,S,0,left,0.563082966,0,0,,,,,,,,,,,,,,,,,,,,,,,,,,,,,,,,,,,,,,,,,,,,,,,,,,,,,,,,,,,,,,,,,,,93,150124,21,Female,1,2024/03/15_11:32:23,YZ,None
,,,,,,calibration,0,16,2,2583,6,F,1,right,0.582449646,0,0,,,,,,,,,,,,,,,,,,,,,,,,,,,,,,,,,,,,,,,,,,,,,,,,,,,,,,,,,,,,,,,,,,,93,150124,21,Female,1,2024/03/15_11:32:23,YZ,None
,,,,,,calibration,0,16,2,2583,,,,,,,,0,0,1,0,0,0,0.56183155,0,4,0,0,0,0,0,2,4,0,,,,,,,,,,,,,,,,,,,,,,,,,,,,,,,,,,,,,,,,,,,,,,,,,,93,150124,21,Female,1,2024/03/15_11:32:23,YZ,None
,,,,,,Calibration,0,,2,2583,,,,,,,,,,,,,,,,,,,,,,,,,29,,,,,,,,,,,,,,,,,,,,,,,,,,,,,,,,,,,,,,,,,,,,,,,,,93,150124,21,Female,1,2024/03/15_11:32:23,YZ,None
,,,,,,calibration,0,33,2,2583,1,F,0,left,0.395660703,0,0,,,,,,,,,,,,,,,,,,,,,,,,,,,,,,,,,,,,,,,,,,,,,,,,,,,,,,,,,,,,,,,,,,,93,150124,21,Female,1,2024/03/15_11:32:23,YZ,None
,,,,,,calibration,0,33,2,2583,2,Q,0,left,0.337609856,0,0,,,,,,,,,,,,,,,,,,,,,,,,,,,,,,,,,,,,,,,,,,,,,,,,,,,,,,,,,,,,,,,,,,,93,150124,21,Female,1,2024/03/15_11:32:23,YZ,None
,,,,,,calibration,0,33,2,2583,3,X,0,left,0.456258085,0,0,,,,,,,,,,,,,,,,,,,,,,,,,,,,,,,,,,,,,,,,,,,,,,,,,,,,,,,,,,,,,,,,,,,93,150124,21,Female,1,2024/03/15_11:32:23,YZ,None
,,,,,,calibration,0,33,2,2583,4,Q,1,right,0.666614501,0,0,,,,,,,,,,,,,,,,,,,,,,,,,,,,,,,,,,,,,,,,,,,,,,,,,,,,,,,,,,,,,,,,,,,93,150124,21,Female,1,2024/03/15_11:32:23,YZ,None
,,,,,,calibration,0,33,2,2583,5,X,1,right,0.530733398,0,0,,,,,,,,,,,,,,,,,,,,,,,,,,,,,,,,,,,,,,,,,,,,,,,,,,,,,,,,,,,,,,,,,,,93,150124,21,Female,1,2024/03/15_11:32:23,YZ,None
,,,,,,calibration,0,33,2,2583,6,J,0,left,0.565080094,0,0,,,,,,,,,,,,,,,,,,,,,,,,,,,,,,,,,,,,,,,,,,,,,,,,,,,,,,,,,,,,,,,,,,,93,150124,21,Female,1,2024/03/15_11:32:23,YZ,None
,,,,,,calibration,0,33,2,2583,,,,,,,,0,0,1,0,0,0,0.491992773,0,4,0,0,0,0,0,2,4,0,,,,,,,,,,,,,,,,,,,,,,,,,,,,,,,,,,,,,,,,,,,,,,,,,,93,150124,21,Female,1,2024/03/15_11:32:23,YZ,None
,,,,,,Calibration,0,,2,2583,,,,,,,,,,,,,,,,,,,,,,,,,30,,,,,,,,,,,,,,,,,,,,,,,,,,,,,,,,,,,,,,,,,,,,,,,,,93,150124,21,Female,1,2024/03/15_11:32:23,YZ,None
,,,,,,calibration,0,35,2,2583,1,J,0,left,0.485095197,0,0,,,,,,,,,,,,,,,,,,,,,,,,,,,,,,,,,,,,,,,,,,,,,,,,,,,,,,,,,,,,,,,,,,,93,150124,21,Female,1,2024/03/15_11:32:23,YZ,None
,,,,,,calibration,0,35,2,2583,2,J,0,left,0.27626686,0,0,,,,,,,,,,,,,,,,,,,,,,,,,,,,,,,,,,,,,,,,,,,,,,,,,,,,,,,,,,,,,,,,,,,93,150124,21,Female,1,2024/03/15_11:32:23,YZ,None
,,,,,,calibration,0,35,2,2583,3,V,0,left,0.389023549,0,0,,,,,,,,,,,,,,,,,,,,,,,,,,,,,,,,,,,,,,,,,,,,,,,,,,,,,,,,,,,,,,,,,,,93,150124,21,Female,1,2024/03/15_11:32:23,YZ,None
,,,,,,calibration,0,35,2,2583,4,J,1,right,0.609427013,0,0,,,,,,,,,,,,,,,,,,,,,,,,,,,,,,,,,,,,,,,,,,,,,,,,,,,,,,,,,,,,,,,,,,,93,150124,21,Female,1,2024/03/15_11:32:23,YZ,None
,,,,,,calibration,0,35,2,2583,5,V,1,right,0.676453697,0,0,,,,,,,,,,,,,,,,,,,,,,,,,,,,,,,,,,,,,,,,,,,,,,,,,,,,,,,,,,,,,,,,,,,93,150124,21,Female,1,2024/03/15_11:32:23,YZ,None
,,,,,,calibration,0,35,2,2583,6,Q,0,left,0.548512815,0,0,,,,,,,,,,,,,,,,,,,,,,,,,,,,,,,,,,,,,,,,,,,,,,,,,,,,,,,,,,,,,,,,,,,93,150124,21,Female,1,2024/03/15_11:32:23,YZ,None
,,,,,,calibration,0,35,2,2583,,,,,,,,0,0,1,0,0,0,0.497463188,0,4,0,0,0,0,0,2,4,0,,,,,,,,,,,,,,,,,,,,,,,,,,,,,,,,,,,,,,,,,,,,,,,,,,93,150124,21,Female,1,2024/03/15_11:32:23,YZ,None
,,,,,,Calibration,0,,2,2583,,,,,,,,,,,,,,,,,,,,,,,,,31,,,,,,,,,,,,,,,,,,,,,,,,,,,,,,,,,,,,,,,,,,,,,,,,,93,150124,21,Female,1,2024/03/15_11:32:23,YZ,None
,,,,,,calibration,0,20,2,2583,1,C,0,left,0.410695576,0,0,,,,,,,,,,,,,,,,,,,,,,,,,,,,,,,,,,,,,,,,,,,,,,,,,,,,,,,,,,,,,,,,,,,93,150124,21,Female,1,2024/03/15_11:32:23,YZ,None
,,,,,,calibration,0,20,2,2583,2,V,0,left,0.311855862,0,0,,,,,,,,,,,,,,,,,,,,,,,,,,,,,,,,,,,,,,,,,,,,,,,,,,,,,,,,,,,,,,,,,,,93,150124,21,Female,1,2024/03/15_11:32:23,YZ,None
,,,,,,calibration,0,20,2,2583,3,C,1,right,0.674635773,0,0,,,,,,,,,,,,,,,,,,,,,,,,,,,,,,,,,,,,,,,,,,,,,,,,,,,,,,,,,,,,,,,,,,,93,150124,21,Female,1,2024/03/15_11:32:23,YZ,None
,,,,,,calibration,0,20,2,2583,4,N,0,left,0.450405691,0,0,,,,,,,,,,,,,,,,,,,,,,,,,,,,,,,,,,,,,,,,,,,,,,,,,,,,,,,,,,,,,,,,,,,93,150124,21,Female,1,2024/03/15_11:32:23,YZ,None
,,,,,,calibration,0,20,2,2583,5,S,0,left,0.579862859,0,0,,,,,,,,,,,,,,,,,,,,,,,,,,,,,,,,,,,,,,,,,,,,,,,,,,,,,,,,,,,,,,,,,,,93,150124,21,Female,1,2024/03/15_11:32:23,YZ,None
,,,,,,calibration,0,20,2,2583,6,N,1,right,0.425496994,0,0,,,,,,,,,,,,,,,,,,,,,,,,,,,,,,,,,,,,,,,,,,,,,,,,,,,,,,,,,,,,,,,,,,,93,150124,21,Female,1,2024/03/15_11:32:23,YZ,None
,,,,,,calibration,0,20,2,2583,,,,,,,,0,0,1,0,0,0,0.475492126,0,4,0,0,0,0,0,2,4,0,,,,,,,,,,,,,,,,,,,,,,,,,,,,,,,,,,,,,,,,,,,,,,,,,,93,150124,21,Female,1,2024/03/15_11:32:23,YZ,None
,,,,,,Calibration,0,,2,2583,,,,,,,,,,,,,,,,,,,,,,,,,32,,,,,,,,,,,,,,,,,,,,,,,,,,,,,,,,,,,,,,,,,,,,,,,,,93,150124,21,Female,1,2024/03/15_11:32:23,YZ,None
,,,,,,calibration,0,1,2,2583,1,C,0,left,0.894966473,0,0,,,,,,,,,,,,,,,,,,,,,,,,,,,,,,,,,,,,,,,,,,,,,,,,,,,,,,,,,,,,,,,,,,,93,150124,21,Female,1,2024/03/15_11:32:23,YZ,None
,,,,,,calibration,0,1,2,2583,2,C,0,left,0.624467445,0,0,,,,,,,,,,,,,,,,,,,,,,,,,,,,,,,,,,,,,,,,,,,,,,,,,,,,,,,,,,,,,,,,,,,93,150124,21,Female,1,2024/03/15_11:32:23,YZ,None
,,,,,,calibration,0,1,2,2583,3,C,1,right,0.431341515,0,0,,,,,,,,,,,,,,,,,,,,,,,,,,,,,,,,,,,,,,,,,,,,,,,,,,,,,,,,,,,,,,,,,,,93,150124,21,Female,1,2024/03/15_11:32:23,YZ,None
,,,,,,calibration,0,1,2,2583,4,N,0,left,0.558357404,0,0,,,,,,,,,,,,,,,,,,,,,,,,,,,,,,,,,,,,,,,,,,,,,,,,,,,,,,,,,,,,,,,,,,,93,150124,21,Female,1,2024/03/15_11:32:23,YZ,None
,,,,,,calibration,0,1,2,2583,5,C,1,right,0.55722504,0,0,,,,,,,,,,,,,,,,,,,,,,,,,,,,,,,,,,,,,,,,,,,,,,,,,,,,,,,,,,,,,,,,,,,93,150124,21,Female,1,2024/03/15_11:32:23,YZ,None
,,,,,,calibration,0,1,2,2583,6,V,0,left,0.469174331,0,0,,,,,,,,,,,,,,,,,,,,,,,,,,,,,,,,,,,,,,,,,,,,,,,,,,,,,,,,,,,,,,,,,,,93,150124,21,Female,1,2024/03/15_11:32:23,YZ,None
,,,,,,calibration,0,1,2,2583,,,,,,,,0,0,1,0,0,0,0.589255368,0,4,0,0,0,0,0,2,4,0,,,,,,,,,,,,,,,,,,,,,,,,,,,,,,,,,,,,,,,,,,,,,,,,,,93,150124,21,Female,1,2024/03/15_11:32:23,YZ,None
,,,,,,Calibration,0,,2,2583,,,,,,,,,,,,,,,,,,,,,,,,,33,,,,,,,,,,,,,,,,,,,,,,,,,,,,,,,,,,,,,,,,,,,,,,,,,93,150124,21,Female,1,2024/03/15_11:32:23,YZ,None
,,,,,,calibration,0,22,2,2583,1,F,0,left,0.697801783,0,0,,,,,,,,,,,,,,,,,,,,,,,,,,,,,,,,,,,,,,,,,,,,,,,,,,,,,,,,,,,,,,,,,,,93,150124,21,Female,1,2024/03/15_11:32:23,YZ,None
,,,,,,calibration,0,22,2,2583,2,X,0,left,0.679836578,0,0,,,,,,,,,,,,,,,,,,,,,,,,,,,,,,,,,,,,,,,,,,,,,,,,,,,,,,,,,,,,,,,,,,,93,150124,21,Female,1,2024/03/15_11:32:23,YZ,None
,,,,,,calibration,0,22,2,2583,3,Q,0,left,0.632174404,0,0,,,,,,,,,,,,,,,,,,,,,,,,,,,,,,,,,,,,,,,,,,,,,,,,,,,,,,,,,,,,,,,,,,,93,150124,21,Female,1,2024/03/15_11:32:23,YZ,None
,,,,,,calibration,0,22,2,2583,4,V,0,left,0.574577625,0,0,,,,,,,,,,,,,,,,,,,,,,,,,,,,,,,,,,,,,,,,,,,,,,,,,,,,,,,,,,,,,,,,,,,93,150124,21,Female,1,2024/03/15_11:32:23,YZ,None
,,,,,,calibration,0,22,2,2583,5,Q,1,right,0.430710835,0,0,,,,,,,,,,,,,,,,,,,,,,,,,,,,,,,,,,,,,,,,,,,,,,,,,,,,,,,,,,,,,,,,,,,93,150124,21,Female,1,2024/03/15_11:32:23,YZ,None
,,,,,,calibration,0,22,2,2583,6,V,1,right,0.700427461,0,0,,,,,,,,,,,,,,,,,,,,,,,,,,,,,,,,,,,,,,,,,,,,,,,,,,,,,,,,,,,,,,,,,,,93,150124,21,Female,1,2024/03/15_11:32:23,YZ,None
,,,,,,calibration,0,22,2,2583,,,,,,,,0,0,1,0,0,0,0.619254781,0,4,0,0,0,0,0,2,4,0,,,,,,,,,,,,,,,,,,,,,,,,,,,,,,,,,,,,,,,,,,,,,,,,,,93,150124,21,Female,1,2024/03/15_11:32:23,YZ,None
,,,,,,Calibration,0,,2,2583,,,,,,,,,,,,,,,,,,,,,,,,,34,,,,,,,,,,,,,,,,,,,,,,,,,,,,,,,,,,,,,,,,,,,,,,,,,93,150124,21,Female,1,2024/03/15_11:32:23,YZ,None
,,,,,,calibration,0,18,2,2583,1,Q,0,left,0.524344461,0,0,,,,,,,,,,,,,,,,,,,,,,,,,,,,,,,,,,,,,,,,,,,,,,,,,,,,,,,,,,,,,,,,,,,93,150124,21,Female,1,2024/03/15_11:32:23,YZ,None
,,,,,,calibration,0,18,2,2583,2,X,0,left,0.541147626,0,0,,,,,,,,,,,,,,,,,,,,,,,,,,,,,,,,,,,,,,,,,,,,,,,,,,,,,,,,,,,,,,,,,,,93,150124,21,Female,1,2024/03/15_11:32:23,YZ,None
,,,,,,calibration,0,18,2,2583,3,N,0,left,0.497671278,0,0,,,,,,,,,,,,,,,,,,,,,,,,,,,,,,,,,,,,,,,,,,,,,,,,,,,,,,,,,,,,,,,,,,,93,150124,21,Female,1,2024/03/15_11:32:23,YZ,None
,,,,,,calibration,0,18,2,2583,4,X,1,right,0.602660983,0,0,,,,,,,,,,,,,,,,,,,,,,,,,,,,,,,,,,,,,,,,,,,,,,,,,,,,,,,,,,,,,,,,,,,93,150124,21,Female,1,2024/03/15_11:32:23,YZ,None
,,,,,,calibration,0,18,2,2583,5,N,1,right,0.628896307,0,0,,,,,,,,,,,,,,,,,,,,,,,,,,,,,,,,,,,,,,,,,,,,,,,,,,,,,,,,,,,,,,,,,,,93,150124,21,Female,1,2024/03/15_11:32:23,YZ,None
,,,,,,calibration,0,18,2,2583,6,V,0,left,0.607548226,0,0,,,,,,,,,,,,,,,,,,,,,,,,,,,,,,,,,,,,,,,,,,,,,,,,,,,,,,,,,,,,,,,,,,,93,150124,21,Female,1,2024/03/15_11:32:23,YZ,None
,,,,,,calibration,0,18,2,2583,,,,,,,,0,0,1,0,0,0,0.567044814,0,4,0,0,0,0,0,2,4,0,,,,,,,,,,,,,,,,,,,,,,,,,,,,,,,,,,,,,,,,,,,,,,,,,,93,150124,21,Female,1,2024/03/15_11:32:23,YZ,None
,,,,,,Calibration,0,,2,2583,,,,,,,,,,,,,,,,,,,,,,,,,35,,,,,,,,,,,,,,,,,,,,,,,,,,,,,,,,,,,,,,,,,,,,,,,,,93,150124,21,Female,1,2024/03/15_11:32:23,YZ,None
,,,,,,calibration,0,30,2,2583,1,X,0,left,0.447105495,0,0,,,,,,,,,,,,,,,,,,,,,,,,,,,,,,,,,,,,,,,,,,,,,,,,,,,,,,,,,,,,,,,,,,,93,150124,21,Female,1,2024/03/15_11:32:23,YZ,None
,,,,,,calibration,0,30,2,2583,2,S,0,left,0.404291317,0,0,,,,,,,,,,,,,,,,,,,,,,,,,,,,,,,,,,,,,,,,,,,,,,,,,,,,,,,,,,,,,,,,,,,93,150124,21,Female,1,2024/03/15_11:32:23,YZ,None
,,,,,,calibration,0,30,2,2583,3,X,1,right,0.640961542,0,0,,,,,,,,,,,,,,,,,,,,,,,,,,,,,,,,,,,,,,,,,,,,,,,,,,,,,,,,,,,,,,,,,,,93,150124,21,Female,1,2024/03/15_11:32:23,YZ,None
,,,,,,calibration,0,30,2,2583,4,N,0,left,0.563842922,0,0,,,,,,,,,,,,,,,,,,,,,,,,,,,,,,,,,,,,,,,,,,,,,,,,,,,,,,,,,,,,,,,,,,,93,150124,21,Female,1,2024/03/15_11:32:23,YZ,None
,,,,,,calibration,0,30,2,2583,5,C,0,left,0.664914641,0,0,,,,,,,,,,,,,,,,,,,,,,,,,,,,,,,,,,,,,,,,,,,,,,,,,,,,,,,,,,,,,,,,,,,93,150124,21,Female,1,2024/03/15_11:32:23,YZ,None
,,,,,,calibration,0,30,2,2583,6,N,1,right,0.557990494,0,0,,,,,,,,,,,,,,,,,,,,,,,,,,,,,,,,,,,,,,,,,,,,,,,,,,,,,,,,,,,,,,,,,,,93,150124,21,Female,1,2024/03/15_11:32:23,YZ,None
,,,,,,calibration,0,30,2,2583,,,,,,,,0,0,1,0,0,0,0.546517735,0,4,0,0,0,0,0,2,4,0,,,,,,,,,,,,,,,,,,,,,,,,,,,,,,,,,,,,,,,,,,,,,,,,,,93,150124,21,Female,1,2024/03/15_11:32:23,YZ,None
,,,,,,Calibration,0,,2,2583,,,,,,,,,,,,,,,,,,,,,,,,,36,,,,,,,,,,,,,,,,,,,,,,,,,,,,,,,,,,,,,,,,,,,,,,,,,93,150124,21,Female,1,2024/03/15_11:32:23,YZ,None
,,,,,,calibration,0,2,2,2583,1,C,0,left,0.367661995,0,0,,,,,,,,,,,,,,,,,,,,,,,,,,,,,,,,,,,,,,,,,,,,,,,,,,,,,,,,,,,,,,,,,,,93,150124,21,Female,1,2024/03/15_11:32:23,YZ,None
,,,,,,calibration,0,2,2,2583,2,Q,0,left,0.328491946,0,0,,,,,,,,,,,,,,,,,,,,,,,,,,,,,,,,,,,,,,,,,,,,,,,,,,,,,,,,,,,,,,,,,,,93,150124,21,Female,1,2024/03/15_11:32:23,YZ,None
,,,,,,calibration,0,2,2,2583,3,C,1,left,0.449627048,1,0,,,,,,,,,,,,,,,,,,,,,,,,,,,,,,,,,,,,,,,,,,,,,,,,,,,,,,,,,,,,,,,,,,,93,150124,21,Female,1,2024/03/15_11:32:23,YZ,None
,,,,,,calibration,0,2,2,2583,4,Q,1,right,0.807800626,0,0,,,,,,,,,,,,,,,,,,,,,,,,,,,,,,,,,,,,,,,,,,,,,,,,,,,,,,,,,,,,,,,,,,,93,150124,21,Female,1,2024/03/15_11:32:23,YZ,None
,,,,,,calibration,0,2,2,2583,5,X,0,left,0.70899812,0,0,,,,,,,,,,,,,,,,,,,,,,,,,,,,,,,,,,,,,,,,,,,,,,,,,,,,,,,,,,,,,,,,,,,93,150124,21,Female,1,2024/03/15_11:32:23,YZ,None
,,,,,,calibration,0,2,2,2583,6,N,0,left,0.618342361,0,0,,,,,,,,,,,,,,,,,,,,,,,,,,,,,,,,,,,,,,,,,,,,,,,,,,,,,,,,,,,,,,,,,,,93,150124,21,Female,1,2024/03/15_11:32:23,YZ,None
,,,,,,calibration,0,2,2,2583,,,,,,,,0.125,0.5,1,0,0,0,0.546820349,1,4,0,0,0,0,1,2,4,0,,,,,,,,,,,,,,,,,,,,,,,,,,,,,,,,,,,,,,,,,,,,,,,,,,93,150124,21,Female,1,2024/03/15_11:32:23,YZ,None
,,,,,,Calibration,0,,2,2583,,,,,,,,,,,,,,,,,,,,,,,,,37,,,,,,,,,,,,,,,,,,,,,,,,,,,,,,,,,,,,,,,,,,,,,,,,,93,150124,21,Female,1,2024/03/15_11:32:23,YZ,None
,,,,,,calibration,0,25,2,2583,1,V,0,left,0.591876864,0,0,,,,,,,,,,,,,,,,,,,,,,,,,,,,,,,,,,,,,,,,,,,,,,,,,,,,,,,,,,,,,,,,,,,93,150124,21,Female,1,2024/03/15_11:32:23,YZ,None
,,,,,,calibration,0,25,2,2583,2,C,0,left,0.492256717,0,0,,,,,,,,,,,,,,,,,,,,,,,,,,,,,,,,,,,,,,,,,,,,,,,,,,,,,,,,,,,,,,,,,,,93,150124,21,Female,1,2024/03/15_11:32:23,YZ,None
,,,,,,calibration,0,25,2,2583,3,V,1,left,0.510736423,1,0,,,,,,,,,,,,,,,,,,,,,,,,,,,,,,,,,,,,,,,,,,,,,,,,,,,,,,,,,,,,,,,,,,,93,150124,21,Female,1,2024/03/15_11:32:23,YZ,None
,,,,,,calibration,0,25,2,2583,4,C,1,right,0.567492585,0,0,,,,,,,,,,,,,,,,,,,,,,,,,,,,,,,,,,,,,,,,,,,,,,,,,,,,,,,,,,,,,,,,,,,93,150124,21,Female,1,2024/03/15_11:32:23,YZ,None
,,,,,,calibration,0,25,2,2583,5,N,0,left,0.65937248,0,0,,,,,,,,,,,,,,,,,,,,,,,,,,,,,,,,,,,,,,,,,,,,,,,,,,,,,,,,,,,,,,,,,,,93,150124,21,Female,1,2024/03/15_11:32:23,YZ,None
,,,,,,calibration,0,25,2,2583,6,J,0,left,0.557592787,0,0,,,,,,,,,,,,,,,,,,,,,,,,,,,,,,,,,,,,,,,,,,,,,,,,,,,,,,,,,,,,,,,,,,,93,150124,21,Female,1,2024/03/15_11:32:23,YZ,None
,,,,,,calibration,0,25,2,2583,,,,,,,,0.125,0.5,1,0,0,0,0.563221309,1,4,0,0,0,0,1,2,4,0,,,,,,,,,,,,,,,,,,,,,,,,,,,,,,,,,,,,,,,,,,,,,,,,,,93,150124,21,Female,1,2024/03/15_11:32:23,YZ,None
,,,,,,Calibration,0,,2,2583,,,,,,,,,,,,,,,,,,,,,,,,,38,,,,,,,,,,,,,,,,,,,,,,,,,,,,,,,,,,,,,,,,,,,,,,,,,93,150124,21,Female,1,2024/03/15_11:32:23,YZ,None
,,,,,,calibration,0,14,2,2583,1,X,0,left,0.372520926,0,0,,,,,,,,,,,,,,,,,,,,,,,,,,,,,,,,,,,,,,,,,,,,,,,,,,,,,,,,,,,,,,,,,,,93,150124,21,Female,1,2024/03/15_11:32:23,YZ,None
,,,,,,calibration,0,14,2,2583,2,X,0,left,0.303577073,0,0,,,,,,,,,,,,,,,,,,,,,,,,,,,,,,,,,,,,,,,,,,,,,,,,,,,,,,,,,,,,,,,,,,,93,150124,21,Female,1,2024/03/15_11:32:23,YZ,None
,,,,,,calibration,0,14,2,2583,3,X,1,right,0.402065376,0,0,,,,,,,,,,,,,,,,,,,,,,,,,,,,,,,,,,,,,,,,,,,,,,,,,,,,,,,,,,,,,,,,,,,93,150124,21,Female,1,2024/03/15_11:32:23,YZ,None
,,,,,,calibration,0,14,2,2583,4,X,1,right,0.498153584,0,0,,,,,,,,,,,,,,,,,,,,,,,,,,,,,,,,,,,,,,,,,,,,,,,,,,,,,,,,,,,,,,,,,,,93,150124,21,Female,1,2024/03/15_11:32:23,YZ,None
,,,,,,calibration,0,14,2,2583,5,Q,0,left,0.465368179,0,0,,,,,,,,,,,,,,,,,,,,,,,,,,,,,,,,,,,,,,,,,,,,,,,,,,,,,,,,,,,,,,,,,,,93,150124,21,Female,1,2024/03/15_11:32:23,YZ,None
,,,,,,calibration,0,14,2,2583,6,J,0,left,0.614321133,0,0,,,,,,,,,,,,,,,,,,,,,,,,,,,,,,,,,,,,,,,,,,,,,,,,,,,,,,,,,,,,,,,,,,,93,150124,21,Female,1,2024/03/15_11:32:23,YZ,None
,,,,,,calibration,0,14,2,2583,,,,,,,,0,0,1,0,0,0,0.442667712,0,4,0,0,0,0,0,2,4,0,,,,,,,,,,,,,,,,,,,,,,,,,,,,,,,,,,,,,,,,,,,,,,,,,,93,150124,21,Female,1,2024/03/15_11:32:23,YZ,None
,,,,,,Calibration,0,,2,2583,,,,,,,,,,,,,,,,,,,,,,,,,39,,,,,,,,,,,,,,,,,,,,,,,,,,,,,,,,,,,,,,,,,,,,,,,,,93,150124,21,Female,1,2024/03/15_11:32:23,YZ,None
,,,,,,calibration,0,33,2,2583,1,F,0,left,0.530764092,0,0,,,,,,,,,,,,,,,,,,,,,,,,,,,,,,,,,,,,,,,,,,,,,,,,,,,,,,,,,,,,,,,,,,,93,150124,21,Female,1,2024/03/15_11:32:23,YZ,None
,,,,,,calibration,0,33,2,2583,2,Q,0,left,0.322617794,0,0,,,,,,,,,,,,,,,,,,,,,,,,,,,,,,,,,,,,,,,,,,,,,,,,,,,,,,,,,,,,,,,,,,,93,150124,21,Female,1,2024/03/15_11:32:23,YZ,None
,,,,,,calibration,0,33,2,2583,3,X,0,left,0.43634733,0,0,,,,,,,,,,,,,,,,,,,,,,,,,,,,,,,,,,,,,,,,,,,,,,,,,,,,,,,,,,,,,,,,,,,93,150124,21,Female,1,2024/03/15_11:32:23,YZ,None
,,,,,,calibration,0,33,2,2583,4,Q,1,right,0.495453879,0,0,,,,,,,,,,,,,,,,,,,,,,,,,,,,,,,,,,,,,,,,,,,,,,,,,,,,,,,,,,,,,,,,,,,93,150124,21,Female,1,2024/03/15_11:32:23,YZ,None
,,,,,,calibration,0,33,2,2583,5,X,1,right,0.531652636,0,0,,,,,,,,,,,,,,,,,,,,,,,,,,,,,,,,,,,,,,,,,,,,,,,,,,,,,,,,,,,,,,,,,,,93,150124,21,Female,1,2024/03/15_11:32:23,YZ,None
,,,,,,calibration,0,33,2,2583,6,J,0,left,0.377458103,0,0,,,,,,,,,,,,,,,,,,,,,,,,,,,,,,,,,,,,,,,,,,,,,,,,,,,,,,,,,,,,,,,,,,,93,150124,21,Female,1,2024/03/15_11:32:23,YZ,None
,,,,,,calibration,0,33,2,2583,,,,,,,,0,0,1,0,0,0,0.449048972,0,4,0,0,0,0,0,2,4,0,,,,,,,,,,,,,,,,,,,,,,,,,,,,,,,,,,,,,,,,,,,,,,,,,,93,150124,21,Female,1,2024/03/15_11:32:23,YZ,None
,,,,,,Calibration,0,,2,2583,,,,,,,,,,,,,,,,,,,,,,,,,40,,,,,,,,,,,,,,,,,,,,,,,,,,,,,,,,,,,,,,,,,,,,,,,,,93,150124,21,Female,1,2024/03/15_11:32:23,YZ,None
,,,,,,calibration,0,15,2,2583,1,J,0,left,0.489293555,0,0,,,,,,,,,,,,,,,,,,,,,,,,,,,,,,,,,,,,,,,,,,,,,,,,,,,,,,,,,,,,,,,,,,,93,150124,21,Female,1,2024/03/15_11:32:23,YZ,None
,,,,,,calibration,0,15,2,2583,2,C,0,left,0.359688695,0,0,,,,,,,,,,,,,,,,,,,,,,,,,,,,,,,,,,,,,,,,,,,,,,,,,,,,,,,,,,,,,,,,,,,93,150124,21,Female,1,2024/03/15_11:32:23,YZ,None
,,,,,,calibration,0,15,2,2583,3,J,1,right,0.625584809,0,0,,,,,,,,,,,,,,,,,,,,,,,,,,,,,,,,,,,,,,,,,,,,,,,,,,,,,,,,,,,,,,,,,,,93,150124,21,Female,1,2024/03/15_11:32:23,YZ,None
,,,,,,calibration,0,15,2,2583,4,F,0,left,0.519786413,0,0,,,,,,,,,,,,,,,,,,,,,,,,,,,,,,,,,,,,,,,,,,,,,,,,,,,,,,,,,,,,,,,,,,,93,150124,21,Female,1,2024/03/15_11:32:23,YZ,None
,,,,,,calibration,0,15,2,2583,5,X,0,left,0.541881537,0,0,,,,,,,,,,,,,,,,,,,,,,,,,,,,,,,,,,,,,,,,,,,,,,,,,,,,,,,,,,,,,,,,,,,93,150124,21,Female,1,2024/03/15_11:32:23,YZ,None
,,,,,,calibration,0,15,2,2583,6,F,1,right,0.658861279,0,0,,,,,,,,,,,,,,,,,,,,,,,,,,,,,,,,,,,,,,,,,,,,,,,,,,,,,,,,,,,,,,,,,,,93,150124,21,Female,1,2024/03/15_11:32:23,YZ,None
,,,,,,calibration,0,15,2,2583,,,,,,,,0,0,1,0,0,0,0.532516048,0,4,0,0,0,0,0,2,4,0,,,,,,,,,,,,,,,,,,,,,,,,,,,,,,,,,,,,,,,,,,,,,,,,,,93,150124,21,Female,1,2024/03/15_11:32:23,YZ,None
,,,,,,Calibration,0,,2,2583,,,,,,,,,,,,,,,,,,,,,,,,,41,,,,,,,,,,,,,,,,,,,,,,,,,,,,,,,,,,,,,,,,,,,,,,,,,93,150124,21,Female,1,2024/03/15_11:32:23,YZ,None
,,,,,,calibration,0,5,2,2583,1,J,0,left,0.554555645,0,0,,,,,,,,,,,,,,,,,,,,,,,,,,,,,,,,,,,,,,,,,,,,,,,,,,,,,,,,,,,,,,,,,,,93,150124,21,Female,1,2024/03/15_11:32:23,YZ,None
,,,,,,calibration,0,5,2,2583,2,V,0,left,0.564989698,0,0,,,,,,,,,,,,,,,,,,,,,,,,,,,,,,,,,,,,,,,,,,,,,,,,,,,,,,,,,,,,,,,,,,,93,150124,21,Female,1,2024/03/15_11:32:23,YZ,None
,,,,,,calibration,0,5,2,2583,3,N,0,left,0.434276417,0,0,,,,,,,,,,,,,,,,,,,,,,,,,,,,,,,,,,,,,,,,,,,,,,,,,,,,,,,,,,,,,,,,,,,93,150124,21,Female,1,2024/03/15_11:32:23,YZ,None
,,,,,,calibration,0,5,2,2583,4,V,1,right,0.496334124,0,0,,,,,,,,,,,,,,,,,,,,,,,,,,,,,,,,,,,,,,,,,,,,,,,,,,,,,,,,,,,,,,,,,,,93,150124,21,Female,1,2024/03/15_11:32:23,YZ,None
,,,,,,calibration,0,5,2,2583,5,F,0,left,0.630588758,0,0,,,,,,,,,,,,,,,,,,,,,,,,,,,,,,,,,,,,,,,,,,,,,,,,,,,,,,,,,,,,,,,,,,,93,150124,21,Female,1,2024/03/15_11:32:23,YZ,None
,,,,,,calibration,0,5,2,2583,6,V,1,right,0.625496649,0,0,,,,,,,,,,,,,,,,,,,,,,,,,,,,,,,,,,,,,,,,,,,,,,,,,,,,,,,,,,,,,,,,,,,93,150124,21,Female,1,2024/03/15_11:32:23,YZ,None
,,,,,,calibration,0,5,2,2583,,,,,,,,0,0,1,0,0,0,0.551040215,0,4,0,0,0,0,0,2,4,0,,,,,,,,,,,,,,,,,,,,,,,,,,,,,,,,,,,,,,,,,,,,,,,,,,93,150124,21,Female,1,2024/03/15_11:32:23,YZ,None
,,,,,,Calibration,0,,2,2583,,,,,,,,,,,,,,,,,,,,,,,,,42,,,,,,,,,,,,,,,,,,,,,,,,,,,,,,,,,,,,,,,,,,,,,,,,,93,150124,21,Female,1,2024/03/15_11:32:23,YZ,None
,,,,,,calibration,0,1,2,2583,1,C,0,left,0.419447425,0,0,,,,,,,,,,,,,,,,,,,,,,,,,,,,,,,,,,,,,,,,,,,,,,,,,,,,,,,,,,,,,,,,,,,93,150124,21,Female,1,2024/03/15_11:32:23,YZ,None
,,,,,,calibration,0,1,2,2583,2,C,0,left,0.320835403,0,0,,,,,,,,,,,,,,,,,,,,,,,,,,,,,,,,,,,,,,,,,,,,,,,,,,,,,,,,,,,,,,,,,,,93,150124,21,Female,1,2024/03/15_11:32:23,YZ,None
,,,,,,calibration,0,1,2,2583,3,C,1,right,0.367656731,0,0,,,,,,,,,,,,,,,,,,,,,,,,,,,,,,,,,,,,,,,,,,,,,,,,,,,,,,,,,,,,,,,,,,,93,150124,21,Female,1,2024/03/15_11:32:23,YZ,None
,,,,,,calibration,0,1,2,2583,4,N,0,left,0.453138981,0,0,,,,,,,,,,,,,,,,,,,,,,,,,,,,,,,,,,,,,,,,,,,,,,,,,,,,,,,,,,,,,,,,,,,93,150124,21,Female,1,2024/03/15_11:32:23,YZ,None
,,,,,,calibration,0,1,2,2583,5,C,1,right,0.566575057,0,0,,,,,,,,,,,,,,,,,,,,,,,,,,,,,,,,,,,,,,,,,,,,,,,,,,,,,,,,,,,,,,,,,,,93,150124,21,Female,1,2024/03/15_11:32:23,YZ,None
,,,,,,calibration,0,1,2,2583,6,V,0,left,0.524139805,0,0,,,,,,,,,,,,,,,,,,,,,,,,,,,,,,,,,,,,,,,,,,,,,,,,,,,,,,,,,,,,,,,,,,,93,150124,21,Female,1,2024/03/15_11:32:23,YZ,None
,,,,,,calibration,0,1,2,2583,,,,,,,,0,0,1,0,0,0,0.441965567,0,4,0,0,0,0,0,2,4,0,,,,,,,,,,,,,,,,,,,,,,,,,,,,,,,,,,,,,,,,,,,,,,,,,,93,150124,21,Female,1,2024/03/15_11:32:23,YZ,None
,,,,,,Calibration,0,,2,2583,,,,,,,,,,,,,,,,,,,,,,,,,43,,,,,,,,,,,,,,,,,,,,,,,,,,,,,,,,,,,,,,,,,,,,,,,,,93,150124,21,Female,1,2024/03/15_11:32:23,YZ,None
,,,,,,calibration,0,2,2,2583,1,C,0,left,0.500165738,0,0,,,,,,,,,,,,,,,,,,,,,,,,,,,,,,,,,,,,,,,,,,,,,,,,,,,,,,,,,,,,,,,,,,,93,150124,21,Female,1,2024/03/15_11:32:23,YZ,None
,,,,,,calibration,0,2,2,2583,2,Q,0,left,0.348780871,0,0,,,,,,,,,,,,,,,,,,,,,,,,,,,,,,,,,,,,,,,,,,,,,,,,,,,,,,,,,,,,,,,,,,,93,150124,21,Female,1,2024/03/15_11:32:23,YZ,None
,,,,,,calibration,0,2,2,2583,3,C,1,right,0.416653017,0,0,,,,,,,,,,,,,,,,,,,,,,,,,,,,,,,,,,,,,,,,,,,,,,,,,,,,,,,,,,,,,,,,,,,93,150124,21,Female,1,2024/03/15_11:32:23,YZ,None
,,,,,,calibration,0,2,2,2583,4,Q,1,right,0.436715203,0,0,,,,,,,,,,,,,,,,,,,,,,,,,,,,,,,,,,,,,,,,,,,,,,,,,,,,,,,,,,,,,,,,,,,93,150124,21,Female,1,2024/03/15_11:32:23,YZ,None
,,,,,,calibration,0,2,2,2583,5,X,0,left,0.408458763,0,0,,,,,,,,,,,,,,,,,,,,,,,,,,,,,,,,,,,,,,,,,,,,,,,,,,,,,,,,,,,,,,,,,,,93,150124,21,Female,1,2024/03/15_11:32:23,YZ,None
,,,,,,calibration,0,2,2,2583,6,N,0,left,0.51216759,0,0,,,,,,,,,,,,,,,,,,,,,,,,,,,,,,,,,,,,,,,,,,,,,,,,,,,,,,,,,,,,,,,,,,,93,150124,21,Female,1,2024/03/15_11:32:23,YZ,None
,,,,,,calibration,0,2,2,2583,,,,,,,,0,0,1,0,0,0,0.437156864,0,4,0,0,0,0,0,2,4,0,,,,,,,,,,,,,,,,,,,,,,,,,,,,,,,,,,,,,,,,,,,,,,,,,,93,150124,21,Female,1,2024/03/15_11:32:23,YZ,None
,,,,,,Calibration,0,,2,2583,,,,,,,,,,,,,,,,,,,,,,,,,44,,,,,,,,,,,,,,,,,,,,,,,,,,,,,,,,,,,,,,,,,,,,,,,,,93,150124,21,Female,1,2024/03/15_11:32:23,YZ,None
,,,,,,calibration,0,16,2,2583,1,F,0,left,0.631313414,0,0,,,,,,,,,,,,,,,,,,,,,,,,,,,,,,,,,,,,,,,,,,,,,,,,,,,,,,,,,,,,,,,,,,,93,150124,21,Female,1,2024/03/15_11:32:23,YZ,None
,,,,,,calibration,0,16,2,2583,2,F,0,left,0.455398744,0,0,,,,,,,,,,,,,,,,,,,,,,,,,,,,,,,,,,,,,,,,,,,,,,,,,,,,,,,,,,,,,,,,,,,93,150124,21,Female,1,2024/03/15_11:32:23,YZ,None
,,,,,,calibration,0,16,2,2583,3,Q,0,left,0.523409963,0,0,,,,,,,,,,,,,,,,,,,,,,,,,,,,,,,,,,,,,,,,,,,,,,,,,,,,,,,,,,,,,,,,,,,93,150124,21,Female,1,2024/03/15_11:32:23,YZ,None
,,,,,,calibration,0,16,2,2583,4,F,1,right,0.512042994,0,0,,,,,,,,,,,,,,,,,,,,,,,,,,,,,,,,,,,,,,,,,,,,,,,,,,,,,,,,,,,,,,,,,,,93,150124,21,Female,1,2024/03/15_11:32:23,YZ,None
,,,,,,calibration,0,16,2,2583,5,S,0,left,0.512505669,0,0,,,,,,,,,,,,,,,,,,,,,,,,,,,,,,,,,,,,,,,,,,,,,,,,,,,,,,,,,,,,,,,,,,,93,150124,21,Female,1,2024/03/15_11:32:23,YZ,None
,,,,,,calibration,0,16,2,2583,6,F,1,left,0.658341482,1,0,,,,,,,,,,,,,,,,,,,,,,,,,,,,,,,,,,,,,,,,,,,,,,,,,,,,,,,,,,,,,,,,,,,93,150124,21,Female,1,2024/03/15_11:32:23,YZ,None
,,,,,,calibration,0,16,2,2583,,,,,,,,0.125,0.5,1,0,0,0,0.548835378,1,4,0,0,0,0,1,2,4,0,,,,,,,,,,,,,,,,,,,,,,,,,,,,,,,,,,,,,,,,,,,,,,,,,,93,150124,21,Female,1,2024/03/15_11:32:23,YZ,None
,,,,,,Calibration,0,,2,2583,,,,,,,,,,,,,,,,,,,,,,,,,45,,,,,,,,,,,,,,,,,,,,,,,,,,,,,,,,,,,,,,,,,,,,,,,,,93,150124,21,Female,1,2024/03/15_11:32:23,YZ,None
,,,,,,calibration,0,33,2,2583,1,F,0,left,0.434577192,0,0,,,,,,,,,,,,,,,,,,,,,,,,,,,,,,,,,,,,,,,,,,,,,,,,,,,,,,,,,,,,,,,,,,,93,150124,21,Female,1,2024/03/15_11:32:23,YZ,None
,,,,,,calibration,0,33,2,2583,2,Q,0,left,0.339586556,0,0,,,,,,,,,,,,,,,,,,,,,,,,,,,,,,,,,,,,,,,,,,,,,,,,,,,,,,,,,,,,,,,,,,,93,150124,21,Female,1,2024/03/15_11:32:23,YZ,None
,,,,,,calibration,0,33,2,2583,3,X,0,left,0.549518428,0,0,,,,,,,,,,,,,,,,,,,,,,,,,,,,,,,,,,,,,,,,,,,,,,,,,,,,,,,,,,,,,,,,,,,93,150124,21,Female,1,2024/03/15_11:32:23,YZ,None
,,,,,,calibration,0,33,2,2583,4,Q,1,right,0.849256298,0,0,,,,,,,,,,,,,,,,,,,,,,,,,,,,,,,,,,,,,,,,,,,,,,,,,,,,,,,,,,,,,,,,,,,93,150124,21,Female,1,2024/03/15_11:32:23,YZ,None
,,,,,,calibration,0,33,2,2583,5,X,1,right,0.657664526,0,0,,,,,,,,,,,,,,,,,,,,,,,,,,,,,,,,,,,,,,,,,,,,,,,,,,,,,,,,,,,,,,,,,,,93,150124,21,Female,1,2024/03/15_11:32:23,YZ,None
,,,,,,calibration,0,33,2,2583,6,J,0,left,0.469265693,0,0,,,,,,,,,,,,,,,,,,,,,,,,,,,,,,,,,,,,,,,,,,,,,,,,,,,,,,,,,,,,,,,,,,,93,150124,21,Female,1,2024/03/15_11:32:23,YZ,None
,,,,,,calibration,0,33,2,2583,,,,,,,,0,0,1,0,0,0,0.549978115,0,4,0,0,0,0,0,2,4,0,,,,,,,,,,,,,,,,,,,,,,,,,,,,,,,,,,,,,,,,,,,,,,,,,,93,150124,21,Female,1,2024/03/15_11:32:23,YZ,None
,,,,,,Calibration,0,,2,2583,,,,,,,,,,,,,,,,,,,,,,,,,46,,,,,,,,,,,,,,,,,,,,,,,,,,,,,,,,,,,,,,,,,,,,,,,,,93,150124,21,Female,1,2024/03/15_11:32:23,YZ,None
,,,,,,calibration,0,30,2,2583,1,X,0,left,0.479522283,0,0,,,,,,,,,,,,,,,,,,,,,,,,,,,,,,,,,,,,,,,,,,,,,,,,,,,,,,,,,,,,,,,,,,,93,150124,21,Female,1,2024/03/15_11:32:23,YZ,None
,,,,,,calibration,0,30,2,2583,2,S,0,left,0.400783004,0,0,,,,,,,,,,,,,,,,,,,,,,,,,,,,,,,,,,,,,,,,,,,,,,,,,,,,,,,,,,,,,,,,,,,93,150124,21,Female,1,2024/03/15_11:32:23,YZ,None
,,,,,,calibration,0,30,2,2583,3,X,1,right,0.741417329,0,0,,,,,,,,,,,,,,,,,,,,,,,,,,,,,,,,,,,,,,,,,,,,,,,,,,,,,,,,,,,,,,,,,,,93,150124,21,Female,1,2024/03/15_11:32:23,YZ,None
,,,,,,calibration,0,30,2,2583,4,N,0,left,0.437516695,0,0,,,,,,,,,,,,,,,,,,,,,,,,,,,,,,,,,,,,,,,,,,,,,,,,,,,,,,,,,,,,,,,,,,,93,150124,21,Female,1,2024/03/15_11:32:23,YZ,None
,,,,,,calibration,0,30,2,2583,5,C,0,left,0.542907111,0,0,,,,,,,,,,,,,,,,,,,,,,,,,,,,,,,,,,,,,,,,,,,,,,,,,,,,,,,,,,,,,,,,,,,93,150124,21,Female,1,2024/03/15_11:32:23,YZ,None
,,,,,,calibration,0,30,2,2583,6,N,1,right,0.710545569,0,0,,,,,,,,,,,,,,,,,,,,,,,,,,,,,,,,,,,,,,,,,,,,,,,,,,,,,,,,,,,,,,,,,,,93,150124,21,Female,1,2024/03/15_11:32:23,YZ,None
,,,,,,calibration,0,30,2,2583,,,,,,,,0,0,1,0,0,0,0.552115332,0,4,0,0,0,0,0,2,4,0,,,,,,,,,,,,,,,,,,,,,,,,,,,,,,,,,,,,,,,,,,,,,,,,,,93,150124,21,Female,1,2024/03/15_11:32:23,YZ,None
,,,,,,Calibration,0,,2,2583,,,,,,,,,,,,,,,,,,,,,,,,,47,,,,,,,,,,,,,,,,,,,,,,,,,,,,,,,,,,,,,,,,,,,,,,,,,93,150124,21,Female,1,2024/03/15_11:32:23,YZ,None
,,,,,,calibration,0,8,2,2583,1,S,0,left,0.462298485,0,0,,,,,,,,,,,,,,,,,,,,,,,,,,,,,,,,,,,,,,,,,,,,,,,,,,,,,,,,,,,,,,,,,,,93,150124,21,Female,1,2024/03/15_11:32:23,YZ,None
,,,,,,calibration,0,8,2,2583,2,X,0,left,0.557421599,0,0,,,,,,,,,,,,,,,,,,,,,,,,,,,,,,,,,,,,,,,,,,,,,,,,,,,,,,,,,,,,,,,,,,,93,150124,21,Female,1,2024/03/15_11:32:23,YZ,None
,,,,,,calibration,0,8,2,2583,3,S,1,left,0.573571513,1,0,,,,,,,,,,,,,,,,,,,,,,,,,,,,,,,,,,,,,,,,,,,,,,,,,,,,,,,,,,,,,,,,,,,93,150124,21,Female,1,2024/03/15_11:32:23,YZ,None
,,,,,,calibration,0,8,2,2583,4,J,0,left,0.985920937,0,0,,,,,,,,,,,,,,,,,,,,,,,,,,,,,,,,,,,,,,,,,,,,,,,,,,,,,,,,,,,,,,,,,,,93,150124,21,Female,1,2024/03/15_11:32:23,YZ,None
,,,,,,calibration,0,8,2,2583,5,V,0,left,0.827134533,0,0,,,,,,,,,,,,,,,,,,,,,,,,,,,,,,,,,,,,,,,,,,,,,,,,,,,,,,,,,,,,,,,,,,,93,150124,21,Female,1,2024/03/15_11:32:23,YZ,None
,,,,,,calibration,0,8,2,2583,6,J,1,right,0.707494402,0,0,,,,,,,,,,,,,,,,,,,,,,,,,,,,,,,,,,,,,,,,,,,,,,,,,,,,,,,,,,,,,,,,,,,93,150124,21,Female,1,2024/03/15_11:32:23,YZ,None
,,,,,,calibration,0,8,2,2583,,,,,,,,0.125,0.5,1,0,0,0,0.685640245,1,4,0,0,0,0,1,2,4,0,,,,,,,,,,,,,,,,,,,,,,,,,,,,,,,,,,,,,,,,,,,,,,,,,,93,150124,21,Female,1,2024/03/15_11:32:23,YZ,None
,,,,,,Calibration,0,,2,2583,,,,,,,,,,,,,,,,,,,,,,,,,48,,,,,,,,,,,,,,,,,,,,,,,,,,,,,,,,,,,,,,,,,,,,,,,,,93,150124,21,Female,1,2024/03/15_11:32:23,YZ,None
,,,,,,calibration,0,27,2,2583,1,C,0,left,0.426829044,0,0,,,,,,,,,,,,,,,,,,,,,,,,,,,,,,,,,,,,,,,,,,,,,,,,,,,,,,,,,,,,,,,,,,,93,150124,21,Female,1,2024/03/15_11:32:23,YZ,None
,,,,,,calibration,0,27,2,2583,2,J,0,left,0.385919793,0,0,,,,,,,,,,,,,,,,,,,,,,,,,,,,,,,,,,,,,,,,,,,,,,,,,,,,,,,,,,,,,,,,,,,93,150124,21,Female,1,2024/03/15_11:32:23,YZ,None
,,,,,,calibration,0,27,2,2583,3,C,1,left,0.512704737,1,0,,,,,,,,,,,,,,,,,,,,,,,,,,,,,,,,,,,,,,,,,,,,,,,,,,,,,,,,,,,,,,,,,,,93,150124,21,Female,1,2024/03/15_11:32:23,YZ,None
,,,,,,calibration,0,27,2,2583,4,S,0,left,0.726796278,0,0,,,,,,,,,,,,,,,,,,,,,,,,,,,,,,,,,,,,,,,,,,,,,,,,,,,,,,,,,,,,,,,,,,,93,150124,21,Female,1,2024/03/15_11:32:23,YZ,None
,,,,,,calibration,0,27,2,2583,5,C,1,right,0.741934838,0,0,,,,,,,,,,,,,,,,,,,,,,,,,,,,,,,,,,,,,,,,,,,,,,,,,,,,,,,,,,,,,,,,,,,93,150124,21,Female,1,2024/03/15_11:32:23,YZ,None
,,,,,,calibration,0,27,2,2583,6,N,0,left,0.45860507,0,0,,,,,,,,,,,,,,,,,,,,,,,,,,,,,,,,,,,,,,,,,,,,,,,,,,,,,,,,,,,,,,,,,,,93,150124,21,Female,1,2024/03/15_11:32:23,YZ,None
,,,,,,calibration,0,27,2,2583,,,,,,,,0.125,0.5,1,0,0,0,0.542131627,1,4,0,0,0,0,1,2,4,0,,,,,,,,,,,,,,,,,,,,,,,,,,,,,,,,,,,,,,,,,,,,,,,,,,93,150124,21,Female,1,2024/03/15_11:32:23,YZ,None
,,,,,,Calibration,0,,2,2583,,,,,,,,,,,,,,,,,,,,,,,,,49,,,,,,,,,,,,,,,,,,,,,,,,,,,,,,,,,,,,,,,,,,,,,,,,,93,150124,21,Female,1,2024/03/15_11:32:23,YZ,None
,,,,,,calibration,0,28,2,2583,1,F,0,left,0.587897129,0,0,,,,,,,,,,,,,,,,,,,,,,,,,,,,,,,,,,,,,,,,,,,,,,,,,,,,,,,,,,,,,,,,,,,93,150124,21,Female,1,2024/03/15_11:32:23,YZ,None
,,,,,,calibration,0,28,2,2583,2,N,0,left,0.437994553,0,0,,,,,,,,,,,,,,,,,,,,,,,,,,,,,,,,,,,,,,,,,,,,,,,,,,,,,,,,,,,,,,,,,,,93,150124,21,Female,1,2024/03/15_11:32:23,YZ,None
,,,,,,calibration,0,28,2,2583,3,Q,0,left,0.532132295,0,0,,,,,,,,,,,,,,,,,,,,,,,,,,,,,,,,,,,,,,,,,,,,,,,,,,,,,,,,,,,,,,,,,,,93,150124,21,Female,1,2024/03/15_11:32:23,YZ,None
,,,,,,calibration,0,28,2,2583,4,N,1,right,0.48330029,0,0,,,,,,,,,,,,,,,,,,,,,,,,,,,,,,,,,,,,,,,,,,,,,,,,,,,,,,,,,,,,,,,,,,,93,150124,21,Female,1,2024/03/15_11:32:23,YZ,None
,,,,,,calibration,0,28,2,2583,5,Q,1,right,0.605858597,0,0,,,,,,,,,,,,,,,,,,,,,,,,,,,,,,,,,,,,,,,,,,,,,,,,,,,,,,,,,,,,,,,,,,,93,150124,21,Female,1,2024/03/15_11:32:23,YZ,None
,,,,,,calibration,0,28,2,2583,6,V,0,left,0.724844174,0,0,,,,,,,,,,,,,,,,,,,,,,,,,,,,,,,,,,,,,,,,,,,,,,,,,,,,,,,,,,,,,,,,,,,93,150124,21,Female,1,2024/03/15_11:32:23,YZ,None
,,,,,,calibration,0,28,2,2583,,,,,,,,0,0,1,0,0,0,0.562004506,0,4,0,0,0,0,0,2,4,0,,,,,,,,,,,,,,,,,,,,,,,,,,,,,,,,,,,,,,,,,,,,,,,,,,93,150124,21,Female,1,2024/03/15_11:32:23,YZ,None
,,,,,,Calibration,0,,2,2583,,,,,,,,,,,,,,,,,,,,,,,,,50,,,,,,,,,,,,,,,,,,,,,,,,,,,,,,,,,,,,,,,,,,,,,,,,,93,150124,21,Female,1,2024/03/15_11:32:23,YZ,None
,,,,,,calibration,0,2,2,2583,1,C,0,left,0.37784175,0,0,,,,,,,,,,,,,,,,,,,,,,,,,,,,,,,,,,,,,,,,,,,,,,,,,,,,,,,,,,,,,,,,,,,93,150124,21,Female,1,2024/03/15_11:32:23,YZ,None
,,,,,,calibration,0,2,2,2583,2,Q,0,left,0.328465675,0,0,,,,,,,,,,,,,,,,,,,,,,,,,,,,,,,,,,,,,,,,,,,,,,,,,,,,,,,,,,,,,,,,,,,93,150124,21,Female,1,2024/03/15_11:32:23,YZ,None
,,,,,,calibration,0,2,2,2583,3,C,1,right,0.774685371,0,0,,,,,,,,,,,,,,,,,,,,,,,,,,,,,,,,,,,,,,,,,,,,,,,,,,,,,,,,,,,,,,,,,,,93,150124,21,Female,1,2024/03/15_11:32:23,YZ,None
,,,,,,calibration,0,2,2,2583,4,Q,1,right,0.694583134,0,0,,,,,,,,,,,,,,,,,,,,,,,,,,,,,,,,,,,,,,,,,,,,,,,,,,,,,,,,,,,,,,,,,,,93,150124,21,Female,1,2024/03/15_11:32:23,YZ,None
,,,,,,calibration,0,2,2,2583,5,X,0,left,0.575576872,0,0,,,,,,,,,,,,,,,,,,,,,,,,,,,,,,,,,,,,,,,,,,,,,,,,,,,,,,,,,,,,,,,,,,,93,150124,21,Female,1,2024/03/15_11:32:23,YZ,None
,,,,,,calibration,0,2,2,2583,6,N,0,left,0.592318541,0,0,,,,,,,,,,,,,,,,,,,,,,,,,,,,,,,,,,,,,,,,,,,,,,,,,,,,,,,,,,,,,,,,,,,93,150124,21,Female,1,2024/03/15_11:32:23,YZ,None
,,,,,,calibration,0,2,2,2583,,,,,,,,0,0,1,0,0,0,0.557245224,0,4,0,0,0,0,0,2,4,0,,,,,,,,,,,,,,,,,,,,,,,,,,,,,,,,,,,,,,,,,,,,,,,,,,93,150124,21,Female,1,2024/03/15_11:32:23,YZ,None
,,,,,,Calibration,0,,2,2583,,,,,,,,,,,,,,,,,,,,,,,,,51,,,,,,,,,,,,,,,,,,,,,,,,,,,,,,,,,,,,,,,,,,,,,,,,,93,150124,21,Female,1,2024/03/15_11:32:23,YZ,None
,,,,,,calibration,0,27,2,2583,1,C,0,left,0.446589791,0,0,,,,,,,,,,,,,,,,,,,,,,,,,,,,,,,,,,,,,,,,,,,,,,,,,,,,,,,,,,,,,,,,,,,93,150124,21,Female,1,2024/03/15_11:32:23,YZ,None
,,,,,,calibration,0,27,2,2583,2,J,0,left,0.565474051,0,0,,,,,,,,,,,,,,,,,,,,,,,,,,,,,,,,,,,,,,,,,,,,,,,,,,,,,,,,,,,,,,,,,,,93,150124,21,Female,1,2024/03/15_11:32:23,YZ,None
,,,,,,calibration,0,27,2,2583,3,C,1,right,0.468741811,0,0,,,,,,,,,,,,,,,,,,,,,,,,,,,,,,,,,,,,,,,,,,,,,,,,,,,,,,,,,,,,,,,,,,,93,150124,21,Female,1,2024/03/15_11:32:23,YZ,None
,,,,,,calibration,0,27,2,2583,4,S,0,left,0.545458342,0,0,,,,,,,,,,,,,,,,,,,,,,,,,,,,,,,,,,,,,,,,,,,,,,,,,,,,,,,,,,,,,,,,,,,93,150124,21,Female,1,2024/03/15_11:32:23,YZ,None
,,,,,,calibration,0,27,2,2583,5,C,1,right,0.474603079,0,0,,,,,,,,,,,,,,,,,,,,,,,,,,,,,,,,,,,,,,,,,,,,,,,,,,,,,,,,,,,,,,,,,,,93,150124,21,Female,1,2024/03/15_11:32:23,YZ,None
,,,,,,calibration,0,27,2,2583,6,N,0,left,0.475495037,0,0,,,,,,,,,,,,,,,,,,,,,,,,,,,,,,,,,,,,,,,,,,,,,,,,,,,,,,,,,,,,,,,,,,,93,150124,21,Female,1,2024/03/15_11:32:23,YZ,None
,,,,,,calibration,0,27,2,2583,,,,,,,,0,0,1,0,0,0,0.496060352,0,4,0,0,0,0,0,2,4,0,,,,,,,,,,,,,,,,,,,,,,,,,,,,,,,,,,,,,,,,,,,,,,,,,,93,150124,21,Female,1,2024/03/15_11:32:23,YZ,None
,,,,,,Calibration,0,,2,2583,,,,,,,,,,,,,,,,,,,,,,,,,52,,,,,,,,,,,,,,,,,,,,,,,,,,,,,,,,,,,,,,,,,,,,,,,,,93,150124,21,Female,1,2024/03/15_11:32:23,YZ,None
,,,,,,calibration,0,22,2,2583,1,F,0,left,0.384296851,0,0,,,,,,,,,,,,,,,,,,,,,,,,,,,,,,,,,,,,,,,,,,,,,,,,,,,,,,,,,,,,,,,,,,,93,150124,21,Female,1,2024/03/15_11:32:23,YZ,None
,,,,,,calibration,0,22,2,2583,2,X,0,left,0.376282677,0,0,,,,,,,,,,,,,,,,,,,,,,,,,,,,,,,,,,,,,,,,,,,,,,,,,,,,,,,,,,,,,,,,,,,93,150124,21,Female,1,2024/03/15_11:32:23,YZ,None
,,,,,,calibration,0,22,2,2583,3,Q,0,left,0.35948083,0,0,,,,,,,,,,,,,,,,,,,,,,,,,,,,,,,,,,,,,,,,,,,,,,,,,,,,,,,,,,,,,,,,,,,93,150124,21,Female,1,2024/03/15_11:32:23,YZ,None
,,,,,,calibration,0,22,2,2583,4,V,0,left,0.465724657,0,0,,,,,,,,,,,,,,,,,,,,,,,,,,,,,,,,,,,,,,,,,,,,,,,,,,,,,,,,,,,,,,,,,,,93,150124,21,Female,1,2024/03/15_11:32:23,YZ,None
,,,,,,calibration,0,22,2,2583,5,Q,1,right,0.572336966,0,0,,,,,,,,,,,,,,,,,,,,,,,,,,,,,,,,,,,,,,,,,,,,,,,,,,,,,,,,,,,,,,,,,,,93,150124,21,Female,1,2024/03/15_11:32:23,YZ,None
,,,,,,calibration,0,22,2,2583,6,V,1,left,0.340307231,1,0,,,,,,,,,,,,,,,,,,,,,,,,,,,,,,,,,,,,,,,,,,,,,,,,,,,,,,,,,,,,,,,,,,,93,150124,21,Female,1,2024/03/15_11:32:23,YZ,None
,,,,,,calibration,0,22,2,2583,,,,,,,,0.125,0.5,1,0,0,0,0.416404869,1,4,0,0,0,0,1,2,4,0,,,,,,,,,,,,,,,,,,,,,,,,,,,,,,,,,,,,,,,,,,,,,,,,,,93,150124,21,Female,1,2024/03/15_11:32:23,YZ,None
,,,,,,Calibration,0,,2,2583,,,,,,,,,,,,,,,,,,,,,,,,,53,,,,,,,,,,,,,,,,,,,,,,,,,,,,,,,,,,,,,,,,,,,,,,,,,93,150124,21,Female,1,2024/03/15_11:32:23,YZ,None
,,,,,,calibration,0,32,2,2583,1,F,0,left,0.359383398,0,0,,,,,,,,,,,,,,,,,,,,,,,,,,,,,,,,,,,,,,,,,,,,,,,,,,,,,,,,,,,,,,,,,,,93,150124,21,Female,1,2024/03/15_11:32:23,YZ,None
,,,,,,calibration,0,32,2,2583,2,C,0,left,0.39185346,0,0,,,,,,,,,,,,,,,,,,,,,,,,,,,,,,,,,,,,,,,,,,,,,,,,,,,,,,,,,,,,,,,,,,,93,150124,21,Female,1,2024/03/15_11:32:23,YZ,None
,,,,,,calibration,0,32,2,2583,3,Q,0,left,0.591371497,0,0,,,,,,,,,,,,,,,,,,,,,,,,,,,,,,,,,,,,,,,,,,,,,,,,,,,,,,,,,,,,,,,,,,,93,150124,21,Female,1,2024/03/15_11:32:23,YZ,None
,,,,,,calibration,0,32,2,2583,4,C,1,right,0.645319058,0,0,,,,,,,,,,,,,,,,,,,,,,,,,,,,,,,,,,,,,,,,,,,,,,,,,,,,,,,,,,,,,,,,,,,93,150124,21,Female,1,2024/03/15_11:32:23,YZ,None
,,,,,,calibration,0,32,2,2583,5,S,0,left,0.592720952,0,0,,,,,,,,,,,,,,,,,,,,,,,,,,,,,,,,,,,,,,,,,,,,,,,,,,,,,,,,,,,,,,,,,,,93,150124,21,Female,1,2024/03/15_11:32:23,YZ,None
,,,,,,calibration,0,32,2,2583,6,C,1,right,0.662491975,0,0,,,,,,,,,,,,,,,,,,,,,,,,,,,,,,,,,,,,,,,,,,,,,,,,,,,,,,,,,,,,,,,,,,,93,150124,21,Female,1,2024/03/15_11:32:23,YZ,None
,,,,,,calibration,0,32,2,2583,,,,,,,,0,0,1,0,0,0,0.54052339,0,4,0,0,0,0,0,2,4,0,,,,,,,,,,,,,,,,,,,,,,,,,,,,,,,,,,,,,,,,,,,,,,,,,,93,150124,21,Female,1,2024/03/15_11:32:23,YZ,None
,,,,,,Calibration,0,,2,2583,,,,,,,,,,,,,,,,,,,,,,,,,54,,,,,,,,,,,,,,,,,,,,,,,,,,,,,,,,,,,,,,,,,,,,,,,,,93,150124,21,Female,1,2024/03/15_11:32:23,YZ,None
,,,,,,calibration,0,8,2,2583,1,S,0,left,0.686953278,0,0,,,,,,,,,,,,,,,,,,,,,,,,,,,,,,,,,,,,,,,,,,,,,,,,,,,,,,,,,,,,,,,,,,,93,150124,21,Female,1,2024/03/15_11:32:23,YZ,None
,,,,,,calibration,0,8,2,2583,2,X,0,left,0.499869189,0,0,,,,,,,,,,,,,,,,,,,,,,,,,,,,,,,,,,,,,,,,,,,,,,,,,,,,,,,,,,,,,,,,,,,93,150124,21,Female,1,2024/03/15_11:32:23,YZ,None
,,,,,,calibration,0,8,2,2583,3,S,1,right,0.664642194,0,0,,,,,,,,,,,,,,,,,,,,,,,,,,,,,,,,,,,,,,,,,,,,,,,,,,,,,,,,,,,,,,,,,,,93,150124,21,Female,1,2024/03/15_11:32:23,YZ,None
,,,,,,calibration,0,8,2,2583,4,J,0,left,0.578456994,0,0,,,,,,,,,,,,,,,,,,,,,,,,,,,,,,,,,,,,,,,,,,,,,,,,,,,,,,,,,,,,,,,,,,,93,150124,21,Female,1,2024/03/15_11:32:23,YZ,None
,,,,,,calibration,0,8,2,2583,5,V,0,left,0.709036626,0,0,,,,,,,,,,,,,,,,,,,,,,,,,,,,,,,,,,,,,,,,,,,,,,,,,,,,,,,,,,,,,,,,,,,93,150124,21,Female,1,2024/03/15_11:32:23,YZ,None
,,,,,,calibration,0,8,2,2583,6,J,1,right,0.758548436,0,0,,,,,,,,,,,,,,,,,,,,,,,,,,,,,,,,,,,,,,,,,,,,,,,,,,,,,,,,,,,,,,,,,,,93,150124,21,Female,1,2024/03/15_11:32:23,YZ,None
,,,,,,calibration,0,8,2,2583,,,,,,,,0,0,1,0,0,0,0.649584453,0,4,0,0,0,0,0,2,4,0,,,,,,,,,,,,,,,,,,,,,,,,,,,,,,,,,,,,,,,,,,,,,,,,,,93,150124,21,Female,1,2024/03/15_11:32:23,YZ,None
,,,,,,Calibration,0,,2,2583,,,,,,,,,,,,,,,,,,,,,,,,,55,,,,,,,,,,,,,,,,,,,,,,,,,,,,,,,,,,,,,,,,,,,,,,,,,93,150124,21,Female,1,2024/03/15_11:32:23,YZ,None
,,,,,,calibration,0,24,2,2583,1,V,0,left,0.60499677,0,0,,,,,,,,,,,,,,,,,,,,,,,,,,,,,,,,,,,,,,,,,,,,,,,,,,,,,,,,,,,,,,,,,,,93,150124,21,Female,1,2024/03/15_11:32:23,YZ,None
,,,,,,calibration,0,24,2,2583,2,X,0,left,0.415570169,0,0,,,,,,,,,,,,,,,,,,,,,,,,,,,,,,,,,,,,,,,,,,,,,,,,,,,,,,,,,,,,,,,,,,,93,150124,21,Female,1,2024/03/15_11:32:23,YZ,None
,,,,,,calibration,0,24,2,2583,3,V,1,right,0.625218624,0,0,,,,,,,,,,,,,,,,,,,,,,,,,,,,,,,,,,,,,,,,,,,,,,,,,,,,,,,,,,,,,,,,,,,93,150124,21,Female,1,2024/03/15_11:32:23,YZ,None
,,,,,,calibration,0,24,2,2583,4,X,1,right,0.757686748,0,0,,,,,,,,,,,,,,,,,,,,,,,,,,,,,,,,,,,,,,,,,,,,,,,,,,,,,,,,,,,,,,,,,,,93,150124,21,Female,1,2024/03/15_11:32:23,YZ,None
,,,,,,calibration,0,24,2,2583,5,N,0,left,0.451523199,0,0,,,,,,,,,,,,,,,,,,,,,,,,,,,,,,,,,,,,,,,,,,,,,,,,,,,,,,,,,,,,,,,,,,,93,150124,21,Female,1,2024/03/15_11:32:23,YZ,None
,,,,,,calibration,0,24,2,2583,6,J,0,left,0.567811323,0,0,,,,,,,,,,,,,,,,,,,,,,,,,,,,,,,,,,,,,,,,,,,,,,,,,,,,,,,,,,,,,,,,,,,93,150124,21,Female,1,2024/03/15_11:32:23,YZ,None
,,,,,,calibration,0,24,2,2583,,,,,,,,0,0,1,0,0,0,0.570467806,0,4,0,0,0,0,0,2,4,0,,,,,,,,,,,,,,,,,,,,,,,,,,,,,,,,,,,,,,,,,,,,,,,,,,93,150124,21,Female,1,2024/03/15_11:32:23,YZ,None
,,,,,,Calibration,0,,2,2583,,,,,,,,,,,,,,,,,,,,,,,,,56,,,,,,,,,,,,,,,,,,,,,,,,,,,,,,,,,,,,,,,,,,,,,,,,,93,150124,21,Female,1,2024/03/15_11:32:23,YZ,None
,,,,,,calibration,0,12,2,2583,1,F,0,left,0.385701953,0,0,,,,,,,,,,,,,,,,,,,,,,,,,,,,,,,,,,,,,,,,,,,,,,,,,,,,,,,,,,,,,,,,,,,93,150124,21,Female,1,2024/03/15_11:32:23,YZ,None
,,,,,,calibration,0,12,2,2583,2,F,0,left,0.51225099,0,0,,,,,,,,,,,,,,,,,,,,,,,,,,,,,,,,,,,,,,,,,,,,,,,,,,,,,,,,,,,,,,,,,,,93,150124,21,Female,1,2024/03/15_11:32:23,YZ,None
,,,,,,calibration,0,12,2,2583,3,C,0,left,0.600501679,0,0,,,,,,,,,,,,,,,,,,,,,,,,,,,,,,,,,,,,,,,,,,,,,,,,,,,,,,,,,,,,,,,,,,,93,150124,21,Female,1,2024/03/15_11:32:23,YZ,None
,,,,,,calibration,0,12,2,2583,4,F,1,right,0.557997587,0,0,,,,,,,,,,,,,,,,,,,,,,,,,,,,,,,,,,,,,,,,,,,,,,,,,,,,,,,,,,,,,,,,,,,93,150124,21,Female,1,2024/03/15_11:32:23,YZ,None
,,,,,,calibration,0,12,2,2583,5,C,1,right,0.585511414,0,0,,,,,,,,,,,,,,,,,,,,,,,,,,,,,,,,,,,,,,,,,,,,,,,,,,,,,,,,,,,,,,,,,,,93,150124,21,Female,1,2024/03/15_11:32:23,YZ,None
,,,,,,calibration,0,12,2,2583,6,V,0,left,0.486447146,0,0,,,,,,,,,,,,,,,,,,,,,,,,,,,,,,,,,,,,,,,,,,,,,,,,,,,,,,,,,,,,,,,,,,,93,150124,21,Female,1,2024/03/15_11:32:23,YZ,None
,,,,,,calibration,0,12,2,2583,,,,,,,,0,0,1,0,0,0,0.521401795,0,4,0,0,0,0,0,2,4,0,,,,,,,,,,,,,,,,,,,,,,,,,,,,,,,,,,,,,,,,,,,,,,,,,,93,150124,21,Female,1,2024/03/15_11:32:23,YZ,None
,,,,,,Calibration,0,,2,2583,,,,,,,,,,,,,,,,,,,,,,,,,57,,,,,,,,,,,,,,,,,,,,,,,,,,,,,,,,,,,,,,,,,,,,,,,,,93,150124,21,Female,1,2024/03/15_11:32:23,YZ,None
,,,,,,calibration,0,9,2,2583,1,S,0,left,0.517587988,0,0,,,,,,,,,,,,,,,,,,,,,,,,,,,,,,,,,,,,,,,,,,,,,,,,,,,,,,,,,,,,,,,,,,,93,150124,21,Female,1,2024/03/15_11:32:23,YZ,None
,,,,,,calibration,0,9,2,2583,2,V,0,left,0.342219721,0,0,,,,,,,,,,,,,,,,,,,,,,,,,,,,,,,,,,,,,,,,,,,,,,,,,,,,,,,,,,,,,,,,,,,93,150124,21,Female,1,2024/03/15_11:32:23,YZ,None
,,,,,,calibration,0,9,2,2583,3,X,0,left,0.543341076,0,0,,,,,,,,,,,,,,,,,,,,,,,,,,,,,,,,,,,,,,,,,,,,,,,,,,,,,,,,,,,,,,,,,,,93,150124,21,Female,1,2024/03/15_11:32:23,YZ,None
,,,,,,calibration,0,9,2,2583,4,S,0,right,0.464937935,1,0,,,,,,,,,,,,,,,,,,,,,,,,,,,,,,,,,,,,,,,,,,,,,,,,,,,,,,,,,,,,,,,,,,,93,150124,21,Female,1,2024/03/15_11:32:23,YZ,None
,,,,,,calibration,0,9,2,2583,5,X,1,right,0.566449496,0,0,,,,,,,,,,,,,,,,,,,,,,,,,,,,,,,,,,,,,,,,,,,,,,,,,,,,,,,,,,,,,,,,,,,93,150124,21,Female,1,2024/03/15_11:32:23,YZ,None
,,,,,,calibration,0,9,2,2583,6,S,1,right,0.458052646,0,0,,,,,,,,,,,,,,,,,,,,,,,,,,,,,,,,,,,,,,,,,,,,,,,,,,,,,,,,,,,,,,,,,,,93,150124,21,Female,1,2024/03/15_11:32:23,YZ,None
,,,,,,calibration,0,9,2,2583,,,,,,,,0.0625,0,0.75,0.25,0,0.25,0.482098144,0,3,0,0,0,1,1,2,4,0,,,,,,,,,,,,,,,,,,,,,,,,,,,,,,,,,,,,,,,,,,,,,,,,,,93,150124,21,Female,1,2024/03/15_11:32:23,YZ,None
,,,,,,Calibration,0,,2,2583,,,,,,,,,,,,,,,,,,,,,,,,,58,,,,,,,,,,,,,,,,,,,,,,,,,,,,,,,,,,,,,,,,,,,,,,,,,93,150124,21,Female,1,2024/03/15_11:32:23,YZ,None
,,,,,,calibration,0,28,2,2583,1,F,0,left,0.386419084,0,0,,,,,,,,,,,,,,,,,,,,,,,,,,,,,,,,,,,,,,,,,,,,,,,,,,,,,,,,,,,,,,,,,,,93,150124,21,Female,1,2024/03/15_11:32:23,YZ,None
,,,,,,calibration,0,28,2,2583,2,N,0,left,0.372968465,0,0,,,,,,,,,,,,,,,,,,,,,,,,,,,,,,,,,,,,,,,,,,,,,,,,,,,,,,,,,,,,,,,,,,,93,150124,21,Female,1,2024/03/15_11:32:23,YZ,None
,,,,,,calibration,0,28,2,2583,3,Q,0,left,0.425872515,0,0,,,,,,,,,,,,,,,,,,,,,,,,,,,,,,,,,,,,,,,,,,,,,,,,,,,,,,,,,,,,,,,,,,,93,150124,21,Female,1,2024/03/15_11:32:23,YZ,None
,,,,,,calibration,0,28,2,2583,4,N,1,left,0.388872348,1,0,,,,,,,,,,,,,,,,,,,,,,,,,,,,,,,,,,,,,,,,,,,,,,,,,,,,,,,,,,,,,,,,,,,93,150124,21,Female,1,2024/03/15_11:32:23,YZ,None
,,,,,,calibration,0,28,2,2583,5,Q,1,right,0.843406682,0,0,,,,,,,,,,,,,,,,,,,,,,,,,,,,,,,,,,,,,,,,,,,,,,,,,,,,,,,,,,,,,,,,,,,93,150124,21,Female,1,2024/03/15_11:32:23,YZ,None
,,,,,,calibration,0,28,2,2583,6,V,0,left,0.56891621,0,0,,,,,,,,,,,,,,,,,,,,,,,,,,,,,,,,,,,,,,,,,,,,,,,,,,,,,,,,,,,,,,,,,,,93,150124,21,Female,1,2024/03/15_11:32:23,YZ,None
,,,,,,calibration,0,28,2,2583,,,,,,,,0.125,0.5,1,0,0,0,0.497742551,1,4,0,0,0,0,1,2,4,0,,,,,,,,,,,,,,,,,,,,,,,,,,,,,,,,,,,,,,,,,,,,,,,,,,93,150124,21,Female,1,2024/03/15_11:32:23,YZ,None
,,,,,,Calibration,0,,2,2583,,,,,,,,,,,,,,,,,,,,,,,,,59,,,,,,,,,,,,,,,,,,,,,,,,,,,,,,,,,,,,,,,,,,,,,,,,,93,150124,21,Female,1,2024/03/15_11:32:23,YZ,None
,,,,,,calibration,0,24,2,2583,1,V,0,left,0.425772768,0,0,,,,,,,,,,,,,,,,,,,,,,,,,,,,,,,,,,,,,,,,,,,,,,,,,,,,,,,,,,,,,,,,,,,93,150124,21,Female,1,2024/03/15_11:32:23,YZ,None
,,,,,,calibration,0,24,2,2583,2,X,0,left,0.468770004,0,0,,,,,,,,,,,,,,,,,,,,,,,,,,,,,,,,,,,,,,,,,,,,,,,,,,,,,,,,,,,,,,,,,,,93,150124,21,Female,1,2024/03/15_11:32:23,YZ,None
,,,,,,calibration,0,24,2,2583,3,V,1,right,0.630447117,0,0,,,,,,,,,,,,,,,,,,,,,,,,,,,,,,,,,,,,,,,,,,,,,,,,,,,,,,,,,,,,,,,,,,,93,150124,21,Female,1,2024/03/15_11:32:23,YZ,None
,,,,,,calibration,0,24,2,2583,4,X,1,right,0.487940418,0,0,,,,,,,,,,,,,,,,,,,,,,,,,,,,,,,,,,,,,,,,,,,,,,,,,,,,,,,,,,,,,,,,,,,93,150124,21,Female,1,2024/03/15_11:32:23,YZ,None
,,,,,,calibration,0,24,2,2583,5,N,0,left,0.708756394,0,0,,,,,,,,,,,,,,,,,,,,,,,,,,,,,,,,,,,,,,,,,,,,,,,,,,,,,,,,,,,,,,,,,,,93,150124,21,Female,1,2024/03/15_11:32:23,YZ,None
,,,,,,calibration,0,24,2,2583,6,J,0,left,0.56840383,0,0,,,,,,,,,,,,,,,,,,,,,,,,,,,,,,,,,,,,,,,,,,,,,,,,,,,,,,,,,,,,,,,,,,,93,150124,21,Female,1,2024/03/15_11:32:23,YZ,None
,,,,,,calibration,0,24,2,2583,,,,,,,,0,0,1,0,0,0,0.548348422,0,4,0,0,0,0,0,2,4,0,,,,,,,,,,,,,,,,,,,,,,,,,,,,,,,,,,,,,,,,,,,,,,,,,,93,150124,21,Female,1,2024/03/15_11:32:23,YZ,None
,,,,,,Calibration,0,,2,2583,,,,,,,,,,,,,,,,,,,,,,,,,60,,,,,,,,,,,,,,,,,,,,,,,,,,,,,,,,,,,,,,,,,,,,,,,,,93,150124,21,Female,1,2024/03/15_11:32:23,YZ,None
,,,,,,calibration,0,7,2,2583,1,Q,0,left,0.373495258,0,0,,,,,,,,,,,,,,,,,,,,,,,,,,,,,,,,,,,,,,,,,,,,,,,,,,,,,,,,,,,,,,,,,,,93,150124,21,Female,1,2024/03/15_11:32:23,YZ,None
,,,,,,calibration,0,7,2,2583,2,C,0,left,0.385012495,0,0,,,,,,,,,,,,,,,,,,,,,,,,,,,,,,,,,,,,,,,,,,,,,,,,,,,,,,,,,,,,,,,,,,,93,150124,21,Female,1,2024/03/15_11:32:23,YZ,None
,,,,,,calibration,0,7,2,2583,3,S,0,left,0.432144691,0,0,,,,,,,,,,,,,,,,,,,,,,,,,,,,,,,,,,,,,,,,,,,,,,,,,,,,,,,,,,,,,,,,,,,93,150124,21,Female,1,2024/03/15_11:32:23,YZ,None
,,,,,,calibration,0,7,2,2583,4,J,0,left,0.542714091,0,0,,,,,,,,,,,,,,,,,,,,,,,,,,,,,,,,,,,,,,,,,,,,,,,,,,,,,,,,,,,,,,,,,,,93,150124,21,Female,1,2024/03/15_11:32:23,YZ,None
,,,,,,calibration,0,7,2,2583,5,S,1,right,0.535037602,0,0,,,,,,,,,,,,,,,,,,,,,,,,,,,,,,,,,,,,,,,,,,,,,,,,,,,,,,,,,,,,,,,,,,,93,150124,21,Female,1,2024/03/15_11:32:23,YZ,None
,,,,,,calibration,0,7,2,2583,6,J,1,right,0.410131048,0,0,,,,,,,,,,,,,,,,,,,,,,,,,,,,,,,,,,,,,,,,,,,,,,,,,,,,,,,,,,,,,,,,,,,93,150124,21,Female,1,2024/03/15_11:32:23,YZ,None
,,,,,,calibration,0,7,2,2583,,,,,,,,0,0,1,0,0,0,0.446422531,0,4,0,0,0,0,0,2,4,0,,,,,,,,,,,,,,,,,,,,,,,,,,,,,,,,,,,,,,,,,,,,,,,,,,93,150124,21,Female,1,2024/03/15_11:32:23,YZ,None
,,,,,,Calibration,0,,2,2583,,,,,,,,,,,,,,,,,,,,,,,,,61,,,,,,,,,,,,,,,,,,,,,,,,,,,,,,,,,,,,,,,,,,,,,,,,,93,150124,21,Female,1,2024/03/15_11:32:23,YZ,None
,,,,,,calibration,0,26,2,2583,1,J,0,left,0.559596161,0,0,,,,,,,,,,,,,,,,,,,,,,,,,,,,,,,,,,,,,,,,,,,,,,,,,,,,,,,,,,,,,,,,,,,93,150124,21,Female,1,2024/03/15_11:32:23,YZ,None
,,,,,,calibration,0,26,2,2583,2,Q,0,left,0.39905798,0,0,,,,,,,,,,,,,,,,,,,,,,,,,,,,,,,,,,,,,,,,,,,,,,,,,,,,,,,,,,,,,,,,,,,93,150124,21,Female,1,2024/03/15_11:32:23,YZ,None
,,,,,,calibration,0,26,2,2583,3,F,0,left,0.497005795,0,0,,,,,,,,,,,,,,,,,,,,,,,,,,,,,,,,,,,,,,,,,,,,,,,,,,,,,,,,,,,,,,,,,,,93,150124,21,Female,1,2024/03/15_11:32:23,YZ,None
,,,,,,calibration,0,26,2,2583,4,Q,1,right,0.859874289,0,0,,,,,,,,,,,,,,,,,,,,,,,,,,,,,,,,,,,,,,,,,,,,,,,,,,,,,,,,,,,,,,,,,,,93,150124,21,Female,1,2024/03/15_11:32:23,YZ,None
,,,,,,calibration,0,26,2,2583,5,F,1,left,0.53893657,1,0,,,,,,,,,,,,,,,,,,,,,,,,,,,,,,,,,,,,,,,,,,,,,,,,,,,,,,,,,,,,,,,,,,,93,150124,21,Female,1,2024/03/15_11:32:23,YZ,None
,,,,,,calibration,0,26,2,2583,6,V,0,left,0.758263336,0,0,,,,,,,,,,,,,,,,,,,,,,,,,,,,,,,,,,,,,,,,,,,,,,,,,,,,,,,,,,,,,,,,,,,93,150124,21,Female,1,2024/03/15_11:32:23,YZ,None
,,,,,,calibration,0,26,2,2583,,,,,,,,0.125,0.5,1,0,0,0,0.602122355,1,4,0,0,0,0,1,2,4,0,,,,,,,,,,,,,,,,,,,,,,,,,,,,,,,,,,,,,,,,,,,,,,,,,,93,150124,21,Female,1,2024/03/15_11:32:23,YZ,None
,,,,,,Calibration,0,,2,2583,,,,,,,,,,,,,,,,,,,,,,,,,62,,,,,,,,,,,,,,,,,,,,,,,,,,,,,,,,,,,,,,,,,,,,,,,,,93,150124,21,Female,1,2024/03/15_11:32:23,YZ,None
,,,,,,calibration,0,30,2,2583,1,X,0,left,0.464548184,0,0,,,,,,,,,,,,,,,,,,,,,,,,,,,,,,,,,,,,,,,,,,,,,,,,,,,,,,,,,,,,,,,,,,,93,150124,21,Female,1,2024/03/15_11:32:23,YZ,None
,,,,,,calibration,0,30,2,2583,2,S,0,left,0.348674844,0,0,,,,,,,,,,,,,,,,,,,,,,,,,,,,,,,,,,,,,,,,,,,,,,,,,,,,,,,,,,,,,,,,,,,93,150124,21,Female,1,2024/03/15_11:32:23,YZ,None
