Instruction,Stimulus,Key,RT,START,END,Phase,Block,TrialN,NbackLevel,ISI,LetterN,Letter,Letter_isSame,Letter_Resp,Letter_RT,Letter_Accuracy,Letter_Timeout,Trial_A_measure,Trial_HR,Trial_FAR,Trial_CDR,Trial_MSR,Trial_ACC,Trial_RT,Trial_HitsCount,Trial_FAsCount,Trial_SameNoRespCount,Trial_DiffNoRespCount,Trial_NoRespCount,Trial_CDsCount,Trial_CorrectRespCount,Trial_SameLetterCount,Trial_DiffLetterCount,Trial_InvalidLetterCount,TrialCountCali,PID,SONA,Age,Gender,Run,TIME,EXPERIMENTER,frameRate,
1,./instructions/inst_begin/Slide2.png,right,17.262317205022555,0.12444581597810611,17.38676302100066,,,,,,,,,,,,,,,,,,,,,,,,,,,,,,,93,150124,21,Female,1,2024/03/15_10:26:35,YZ,None,
2,./instructions/inst_begin/Slide3.png,right,8.416192586999387,17.418477822997374,25.83467040999676,,,,,,,,,,,,,,,,,,,,,,,,,,,,,,,93,150124,21,Female,1,2024/03/15_10:26:35,YZ,None,
3,./instructions/inst_begin/Slide4.png,right,10.691981451993342,25.862946139997803,36.554927591991145,,,,,,,,,,,,,,,,,,,,,,,,,,,,,,,93,150124,21,Female,1,2024/03/15_10:26:35,YZ,None,
1,./instructions/inst_prac_2/Slide6.png,right,12.414199186983751,36.58845270899474,49.00265189597849,,,,,,,,,,,,,,,,,,,,,,,,,,,,,,,93,150124,21,Female,1,2024/03/15_10:26:35,YZ,None,
2,./instructions/inst_prac_2/Slide7.png,right,13.54821141200955,49.030587769986596,62.578799181996146,,,,,,,,,,,,,,,,,,,,,,,,,,,,,,,93,150124,21,Female,1,2024/03/15_10:26:35,YZ,None,
3,./instructions/inst_prac_2/Slide8.png,right,8.08413688102155,62.60660111097968,70.69073799200123,,,,,,,,,,,,,,,,,,,,,,,,,,,,,,,93,150124,21,Female,1,2024/03/15_10:26:35,YZ,None,
2,./instructions/inst_prac_2/Slide9.png,left,4.331097514019348,70.71980899898335,75.0509065130027,,,,,,,,,,,,,,,,,,,,,,,,,,,,,,,93,150124,21,Female,1,2024/03/15_10:26:35,YZ,None,
3,./instructions/inst_prac_2/Slide8.png,right,2.505020016018534,75.07351751698297,77.57853753300151,,,,,,,,,,,,,,,,,,,,,,,,,,,,,,,93,150124,21,Female,1,2024/03/15_10:26:35,YZ,None,
4,./instructions/inst_prac_2/Slide9.png,right,0.9395478520018514,77.60713938099798,78.54668723299983,,,,,,,,,,,,,,,,,,,,,,,,,,,,,,,93,150124,21,Female,1,2024/03/15_10:26:35,YZ,None,
5,./instructions/inst_prac_2/Slide10.png,right,1.5074506739911158,78.57526607299224,80.08271674698335,,,,,,,,,,,,,,,,,,,,,,,,,,,,,,,93,150124,21,Female,1,2024/03/15_10:26:35,YZ,None,
6,./instructions/inst_prac_2/Slide11.png,right,1.7231338400160894,80.11146109798574,81.83459493800183,,,,,,,,,,,,,,,,,,,,,,,,,,,,,,,93,150124,21,Female,1,2024/03/15_10:26:35,YZ,None,
7,./instructions/inst_prac_2/Slide12.png,right,0.8033390069904272,81.86322458900395,82.66656359599438,,,,,,,,,,,,,,,,,,,,,,,,,,,,,,,93,150124,21,Female,1,2024/03/15_10:26:35,YZ,None,
8,./instructions/inst_prac_2/Slide13.png,right,0.8195682070218027,82.6949928579852,83.514561065007,,,,,,,,,,,,,,,,,,,,,,,,,,,,,,,93,150124,21,Female,1,2024/03/15_10:26:35,YZ,None,
9,./instructions/inst_prac_2/Slide14.png,right,18.934471372980624,83.5403160690039,102.47478744198452,,,,,,,,,,,,,,,,,,,,,,,,,,,,,,,93,150124,21,Female,1,2024/03/15_10:26:35,YZ,None,
10,./instructions/inst_prac_2/Slide15.png,right,0.20056767700589262,102.50282639497891,102.7033940719848,,,,,,,,,,,,,,,,,,,,,,,,,,,,,,,93,150124,21,Female,1,2024/03/15_10:26:35,YZ,None,
,,,,,,practice,0,16,2,2583,1,S,0,left,0.7792896080063656,0,0,,,,,,,,,,,,,,,,,,,93,150124,21,Female,1,2024/03/15_10:26:35,YZ,None,
,,,,,,practice,0,16,2,2583,2,Q,0,right,2.8197852300072554,1,0,,,,,,,,,,,,,,,,,,,93,150124,21,Female,1,2024/03/15_10:26:35,YZ,None,
,,,,,,practice,0,16,2,2583,3,X,0,right,1.539138908003224,1,0,,,,,,,,,,,,,,,,,,,93,150124,21,Female,1,2024/03/15_10:26:35,YZ,None,
,,,,,,practice,0,16,2,2583,4,Q,1,left,1.5339841580134816,1,0,,,,,,,,,,,,,,,,,,,93,150124,21,Female,1,2024/03/15_10:26:35,YZ,None,
,,,,,,practice,0,16,2,2583,5,V,0,right,1.3851491740206257,1,0,,,,,,,,,,,,,,,,,,,93,150124,21,Female,1,2024/03/15_10:26:35,YZ,None,
,,,,,,practice,0,16,2,2583,6,Q,1,left,1.0522680499998387,1,0,,,,,,,,,,,,,,,,,,,93,150124,21,Female,1,2024/03/15_10:26:35,YZ,None,
,,,,,,practice,0,16,2,2583,,,,,,,,0.9375,1.0,0.25,0.75,0.0,0.75,1.518269188008465,2,1,0,0,0,3,5,2,4,0,,93,150124,21,Female,1,2024/03/15_10:26:35,YZ,None,
1,./instructions/inst_to_cali/Slide20.png,right,4.76118022101582,118.67340147998766,123.43458170100348,,,,,,,,,,,,,,,,,,,,,,,,,,,,,,,93,150124,21,Female,1,2024/03/15_10:26:35,YZ,None,
1,./instructions/inst_cali/Slide22.png,right,12.373435976012843,123.46927785198204,135.84271382799488,,,,,,,,,,,,,,,,,,,,,,,,,,,,,,,93,150124,21,Female,1,2024/03/15_10:26:35,YZ,None,
,,,,,,calibration,0,2,2,583,1,N,0,None,nan,0,1,,,,,,,,,,,,,,,,,,,93,150124,21,Female,1,2024/03/15_10:26:35,YZ,None,
,,,,,,calibration,0,2,2,583,2,Q,0,None,nan,0,1,,,,,,,,,,,,,,,,,,,93,150124,21,Female,1,2024/03/15_10:26:35,YZ,None,
,,,,,,calibration,0,2,2,583,3,N,1,left,0.727110628009541,1,0,,,,,,,,,,,,,,,,,,,93,150124,21,Female,1,2024/03/15_10:26:35,YZ,None,
,,,,,,calibration,0,2,2,583,4,Q,1,right,0.5340324749995489,0,0,,,,,,,,,,,,,,,,,,,93,150124,21,Female,1,2024/03/15_10:26:35,YZ,None,
,,,,,,calibration,0,2,2,583,5,C,0,left,0.5123812579840887,0,0,,,,,,,,,,,,,,,,,,,93,150124,21,Female,1,2024/03/15_10:26:35,YZ,None,
,,,,,,calibration,0,2,2,583,6,S,0,left,0.325485031993594,0,0,,,,,,,,,,,,,,,,,,,93,150124,21,Female,1,2024/03/15_10:26:35,YZ,None,
,,,,,,calibration,0,2,2,583,7,J,0,left,0.3889808079984505,0,0,,,,,,,,,,,,,,,,,,,93,150124,21,Female,1,2024/03/15_10:26:35,YZ,None,
,,,,,,calibration,0,2,2,583,8,X,0,left,0.4153880840167403,0,0,,,,,,,,,,,,,,,,,,,93,150124,21,Female,1,2024/03/15_10:26:35,YZ,None,
,,,,,,calibration,0,2,2,583,9,S,0,right,0.5264402550237719,1,0,,,,,,,,,,,,,,,,,,,93,150124,21,Female,1,2024/03/15_10:26:35,YZ,None,
,,,,,,calibration,0,2,2,583,10,Q,0,left,0.3081440620007925,0,0,,,,,,,,,,,,,,,,,,,93,150124,21,Female,1,2024/03/15_10:26:35,YZ,None,
,,,,,,calibration,0,2,2,583,11,S,1,left,0.3220011699886527,1,0,,,,,,,,,,,,,,,,,,,93,150124,21,Female,1,2024/03/15_10:26:35,YZ,None,
,,,,,,calibration,0,2,2,583,12,X,0,left,0.7168548830086365,0,0,,,,,,,,,,,,,,,,,,,93,150124,21,Female,1,2024/03/15_10:26:35,YZ,None,
,,,,,,calibration,0,2,2,583,13,S,1,right,0.8247169099922758,0,0,,,,,,,,,,,,,,,,,,,93,150124,21,Female,1,2024/03/15_10:26:35,YZ,None,
,,,,,,calibration,0,2,2,583,14,N,0,left,0.38464734397712164,0,0,,,,,,,,,,,,,,,,,,,93,150124,21,Female,1,2024/03/15_10:26:35,YZ,None,
,,,,,,calibration,0,2,2,583,15,S,1,right,0.6659083470003679,0,0,,,,,,,,,,,,,,,,,,,93,150124,21,Female,1,2024/03/15_10:26:35,YZ,None,
,,,,,,calibration,0,2,2,583,,,,,,,,0.125,0.4,0.7,0.125,0.13333333333333333,0.1666666666666667,0.5116993273841217,2,7,0,2,2,1,3,5,10,0,,93,150124,21,Female,1,2024/03/15_10:26:35,YZ,None,
,,,,,,Calibration,0,,2,583,,,,,,,,,,,,,,,,,,,,,,,,,1,93,150124,21,Female,1,2024/03/15_10:26:35,YZ,None,
,,,,,,calibration,0,31,2,679,1,C,0,left,1.5637554409913719,0,0,,,,,,,,,,,,,,,,,,,93,150124,21,Female,1,2024/03/15_10:26:35,YZ,None,
,,,,,,calibration,0,31,2,679,2,Q,0,left,0.5000209170102607,0,0,,,,,,,,,,,,,,,,,,,93,150124,21,Female,1,2024/03/15_10:26:35,YZ,None,
,,,,,,calibration,0,31,2,679,3,S,0,right,0.59150011400925,1,0,,,,,,,,,,,,,,,,,,,93,150124,21,Female,1,2024/03/15_10:26:35,YZ,None,
,,,,,,calibration,0,31,2,679,4,Q,1,left,0.3590897429967299,1,0,,,,,,,,,,,,,,,,,,,93,150124,21,Female,1,2024/03/15_10:26:35,YZ,None,
,,,,,,calibration,0,31,2,679,5,J,0,left,0.8879026630020235,0,0,,,,,,,,,,,,,,,,,,,93,150124,21,Female,1,2024/03/15_10:26:35,YZ,None,
,,,,,,calibration,0,31,2,679,6,N,0,left,0.5342916719964705,0,0,,,,,,,,,,,,,,,,,,,93,150124,21,Female,1,2024/03/15_10:26:35,YZ,None,
,,,,,,calibration,0,31,2,679,7,J,1,right,0.6517732079955749,0,0,,,,,,,,,,,,,,,,,,,93,150124,21,Female,1,2024/03/15_10:26:35,YZ,None,
,,,,,,calibration,0,31,2,679,8,C,0,left,0.3481098439951893,0,0,,,,,,,,,,,,,,,,,,,93,150124,21,Female,1,2024/03/15_10:26:35,YZ,None,
,,,,,,calibration,0,31,2,679,9,V,0,left,0.43208643299294636,0,0,,,,,,,,,,,,,,,,,,,93,150124,21,Female,1,2024/03/15_10:26:35,YZ,None,
,,,,,,calibration,0,31,2,679,10,C,1,left,0.4355365170049481,1,0,,,,,,,,,,,,,,,,,,,93,150124,21,Female,1,2024/03/15_10:26:35,YZ,None,
,,,,,,calibration,0,31,2,679,11,N,0,left,0.3122980589978397,0,0,,,,,,,,,,,,,,,,,,,93,150124,21,Female,1,2024/03/15_10:26:35,YZ,None,
,,,,,,calibration,0,31,2,679,12,C,1,right,0.48493389898794703,0,0,,,,,,,,,,,,,,,,,,,93,150124,21,Female,1,2024/03/15_10:26:35,YZ,None,
,,,,,,calibration,0,31,2,679,13,V,0,left,0.39317731800838374,0,0,,,,,,,,,,,,,,,,,,,93,150124,21,Female,1,2024/03/15_10:26:35,YZ,None,
,,,,,,calibration,0,31,2,679,14,N,0,left,0.5825162029941566,0,0,,,,,,,,,,,,,,,,,,,93,150124,21,Female,1,2024/03/15_10:26:35,YZ,None,
,,,,,,calibration,0,31,2,679,,,,,,,,0.09999999999999999,0.5,0.9,0.1,0.0,0.09999999999999998,0.576928002213078,2,9,0,0,0,1,3,4,10,0,,93,150124,21,Female,1,2024/03/15_10:26:35,YZ,None,
,,,,,,Calibration,0,,2,679,,,,,,,,,,,,,,,,,,,,,,,,,2,93,150124,21,Female,1,2024/03/15_10:26:35,YZ,None,
,,,,,,calibration,0,32,2,788,1,N,0,left,1.8811556200089399,0,0,,,,,,,,,,,,,,,,,,,93,150124,21,Female,1,2024/03/15_10:26:35,YZ,None,
,,,,,,calibration,0,32,2,788,2,J,0,left,0.7466051639930811,0,0,,,,,,,,,,,,,,,,,,,93,150124,21,Female,1,2024/03/15_10:26:35,YZ,None,
,,,,,,calibration,0,32,2,788,3,N,1,right,0.598826966015622,0,0,,,,,,,,,,,,,,,,,,,93,150124,21,Female,1,2024/03/15_10:26:35,YZ,None,
,,,,,,calibration,0,32,2,788,4,Q,0,left,0.4068645710067358,0,0,,,,,,,,,,,,,,,,,,,93,150124,21,Female,1,2024/03/15_10:26:35,YZ,None,
,,,,,,calibration,0,32,2,788,5,N,1,right,0.7649644770135637,0,0,,,,,,,,,,,,,,,,,,,93,150124,21,Female,1,2024/03/15_10:26:35,YZ,None,
,,,,,,calibration,0,32,2,788,6,Q,1,left,0.6310010449960828,1,0,,,,,,,,,,,,,,,,,,,93,150124,21,Female,1,2024/03/15_10:26:35,YZ,None,
,,,,,,calibration,0,32,2,788,7,J,0,left,0.5920846270164475,0,0,,,,,,,,,,,,,,,,,,,93,150124,21,Female,1,2024/03/15_10:26:35,YZ,None,
,,,,,,calibration,0,32,2,788,8,F,0,left,0.5662829309876543,0,0,,,,,,,,,,,,,,,,,,,93,150124,21,Female,1,2024/03/15_10:26:35,YZ,None,
,,,,,,calibration,0,32,2,788,9,S,0,left,0.8523518899746705,0,0,,,,,,,,,,,,,,,,,,,93,150124,21,Female,1,2024/03/15_10:26:35,YZ,None,
,,,,,,calibration,0,32,2,788,10,F,1,right,0.7143199130077846,0,0,,,,,,,,,,,,,,,,,,,93,150124,21,Female,1,2024/03/15_10:26:35,YZ,None,
,,,,,,calibration,0,32,2,788,11,V,0,left,0.43845099801546894,0,0,,,,,,,,,,,,,,,,,,,93,150124,21,Female,1,2024/03/15_10:26:35,YZ,None,
,,,,,,calibration,0,32,2,788,12,J,0,right,0.6931542060046922,1,0,,,,,,,,,,,,,,,,,,,93,150124,21,Female,1,2024/03/15_10:26:35,YZ,None,
,,,,,,calibration,0,32,2,788,13,C,0,left,0.575325106998207,0,0,,,,,,,,,,,,,,,,,,,93,150124,21,Female,1,2024/03/15_10:26:35,YZ,None,
,,,,,,calibration,0,32,2,788,,,,,,,,0.06250000000000001,0.25,0.8888888888888888,0.1111111111111111,0.0,0.11111111111111116,0.7277990396183808,1,8,0,0,0,1,2,4,9,0,,93,150124,21,Female,1,2024/03/15_10:26:35,YZ,None,
,,,,,,Calibration,0,,2,788,,,,,,,,,,,,,,,,,,,,,,,,,3,93,150124,21,Female,1,2024/03/15_10:26:35,YZ,None,
,,,,,,calibration,0,13,2,917,1,X,0,left,0.9540992120164447,0,0,,,,,,,,,,,,,,,,,,,93,150124,21,Female,1,2024/03/15_10:26:35,YZ,None,
,,,,,,calibration,0,13,2,917,2,N,0,left,0.5413880700070877,0,0,,,,,,,,,,,,,,,,,,,93,150124,21,Female,1,2024/03/15_10:26:35,YZ,None,
,,,,,,calibration,0,13,2,917,3,X,1,right,0.6048105619847775,0,0,,,,,,,,,,,,,,,,,,,93,150124,21,Female,1,2024/03/15_10:26:35,YZ,None,
,,,,,,calibration,0,13,2,917,4,F,0,left,0.4321149260213133,0,0,,,,,,,,,,,,,,,,,,,93,150124,21,Female,1,2024/03/15_10:26:35,YZ,None,
,,,,,,calibration,0,13,2,917,5,X,1,left,0.7797779180109501,1,0,,,,,,,,,,,,,,,,,,,93,150124,21,Female,1,2024/03/15_10:26:35,YZ,None,
,,,,,,calibration,0,13,2,917,6,V,0,left,0.5434389190049842,0,0,,,,,,,,,,,,,,,,,,,93,150124,21,Female,1,2024/03/15_10:26:35,YZ,None,
,,,,,,calibration,0,13,2,917,7,F,0,right,0.5812028800137341,1,0,,,,,,,,,,,,,,,,,,,93,150124,21,Female,1,2024/03/15_10:26:35,YZ,None,
,,,,,,calibration,0,13,2,917,8,C,0,left,0.5315037200052757,0,0,,,,,,,,,,,,,,,,,,,93,150124,21,Female,1,2024/03/15_10:26:35,YZ,None,
,,,,,,calibration,0,13,2,917,9,S,0,left,0.580016987019917,0,0,,,,,,,,,,,,,,,,,,,93,150124,21,Female,1,2024/03/15_10:26:35,YZ,None,
,,,,,,calibration,0,13,2,917,10,N,0,left,0.6908874030050356,0,0,,,,,,,,,,,,,,,,,,,93,150124,21,Female,1,2024/03/15_10:26:35,YZ,None,
,,,,,,calibration,0,13,2,917,11,J,0,left,0.44233579200226814,0,0,,,,,,,,,,,,,,,,,,,93,150124,21,Female,1,2024/03/15_10:26:35,YZ,None,
,,,,,,calibration,0,13,2,917,12,N,1,left,0.52401220597676,1,0,,,,,,,,,,,,,,,,,,,93,150124,21,Female,1,2024/03/15_10:26:35,YZ,None,
,,,,,,calibration,0,13,2,917,,,,,,,,0.11111111111111113,0.6666666666666666,0.8888888888888888,0.1111111111111111,0.0,0.11111111111111116,0.6004657162557123,2,8,0,0,0,1,3,3,9,0,,93,150124,21,Female,1,2024/03/15_10:26:35,YZ,None,
,,,,,,Calibration,0,,2,917,,,,,,,,,,,,,,,,,,,,,,,,,4,93,150124,21,Female,1,2024/03/15_10:26:35,YZ,None,
,,,,,,calibration,0,23,2,1068,1,S,0,left,0.9317457930010278,0,0,,,,,,,,,,,,,,,,,,,93,150124,21,Female,1,2024/03/15_10:26:35,YZ,None,
,,,,,,calibration,0,23,2,1068,2,S,0,left,0.44515830199816264,0,0,,,,,,,,,,,,,,,,,,,93,150124,21,Female,1,2024/03/15_10:26:35,YZ,None,
,,,,,,calibration,0,23,2,1068,3,Q,0,left,0.6582744749903213,0,0,,,,,,,,,,,,,,,,,,,93,150124,21,Female,1,2024/03/15_10:26:35,YZ,None,
,,,,,,calibration,0,23,2,1068,4,J,0,left,0.4625905220163986,0,0,,,,,,,,,,,,,,,,,,,93,150124,21,Female,1,2024/03/15_10:26:35,YZ,None,
,,,,,,calibration,0,23,2,1068,5,X,0,left,0.5443637819844298,0,0,,,,,,,,,,,,,,,,,,,93,150124,21,Female,1,2024/03/15_10:26:35,YZ,None,
,,,,,,calibration,0,23,2,1068,6,J,1,left,0.3734314660250675,1,0,,,,,,,,,,,,,,,,,,,93,150124,21,Female,1,2024/03/15_10:26:35,YZ,None,
,,,,,,calibration,0,23,2,1068,7,V,0,left,0.6144874859892298,0,0,,,,,,,,,,,,,,,,,,,93,150124,21,Female,1,2024/03/15_10:26:35,YZ,None,
,,,,,,calibration,0,23,2,1068,8,J,1,right,0.6256540249742102,0,0,,,,,,,,,,,,,,,,,,,93,150124,21,Female,1,2024/03/15_10:26:35,YZ,None,
,,,,,,calibration,0,23,2,1068,9,F,0,left,0.5874301510048099,0,0,,,,,,,,,,,,,,,,,,,93,150124,21,Female,1,2024/03/15_10:26:35,YZ,None,
,,,,,,calibration,0,23,2,1068,10,J,1,right,0.6887949029915035,0,0,,,,,,,,,,,,,,,,,,,93,150124,21,Female,1,2024/03/15_10:26:35,YZ,None,
,,,,,,calibration,0,23,2,1068,11,N,0,left,0.5767152009939309,0,0,,,,,,,,,,,,,,,,,,,93,150124,21,Female,1,2024/03/15_10:26:35,YZ,None,
,,,,,,calibration,0,23,2,1068,,,,,,,,0.08333333333333331,0.3333333333333333,1.0,0.0,0.0,0.0,0.5916951005426447,1,8,0,0,0,0,1,3,8,0,,93,150124,21,Female,1,2024/03/15_10:26:35,YZ,None,
,,,,,,Calibration,0,,2,1068,,,,,,,,,,,,,,,,,,,,,,,,,5,93,150124,21,Female,1,2024/03/15_10:26:35,YZ,None,
,,,,,,calibration,0,20,2,1250,1,C,0,left,1.0034713780041784,0,0,,,,,,,,,,,,,,,,,,,93,150124,21,Female,1,2024/03/15_10:26:35,YZ,None,
,,,,,,calibration,0,20,2,1250,2,C,0,left,0.5808855789946392,0,0,,,,,,,,,,,,,,,,,,,93,150124,21,Female,1,2024/03/15_10:26:35,YZ,None,
,,,,,,calibration,0,20,2,1250,3,C,1,right,0.5758434379822575,0,0,,,,,,,,,,,,,,,,,,,93,150124,21,Female,1,2024/03/15_10:26:35,YZ,None,
,,,,,,calibration,0,20,2,1250,4,C,1,right,0.5340596299793106,0,0,,,,,,,,,,,,,,,,,,,93,150124,21,Female,1,2024/03/15_10:26:35,YZ,None,
,,,,,,calibration,0,20,2,1250,5,N,0,left,0.431831730005797,0,0,,,,,,,,,,,,,,,,,,,93,150124,21,Female,1,2024/03/15_10:26:35,YZ,None,
,,,,,,calibration,0,20,2,1250,6,C,1,right,0.608939181023743,0,0,,,,,,,,,,,,,,,,,,,93,150124,21,Female,1,2024/03/15_10:26:35,YZ,None,
,,,,,,calibration,0,20,2,1250,7,J,0,left,0.417191938002361,0,0,,,,,,,,,,,,,,,,,,,93,150124,21,Female,1,2024/03/15_10:26:35,YZ,None,
,,,,,,calibration,0,20,2,1250,8,Q,0,right,0.7145644999982323,1,0,,,,,,,,,,,,,,,,,,,93,150124,21,Female,1,2024/03/15_10:26:35,YZ,None,
,,,,,,calibration,0,20,2,1250,9,V,0,left,0.48864172300091013,0,0,,,,,,,,,,,,,,,,,,,93,150124,21,Female,1,2024/03/15_10:26:35,YZ,None,
,,,,,,calibration,0,20,2,1250,10,F,0,left,0.7893901109928265,0,0,,,,,,,,,,,,,,,,,,,93,150124,21,Female,1,2024/03/15_10:26:35,YZ,None,
,,,,,,calibration,0,20,2,1250,,,,,,,,0.035714285714285726,0.0,0.8571428571428571,0.14285714285714285,0.0,0.1428571428571429,0.6144819207984256,0,6,0,0,0,1,1,3,7,0,,93,150124,21,Female,1,2024/03/15_10:26:35,YZ,None,
,,,,,,Calibration,0,,2,1250,,,,,,,,,,,,,,,,,,,,,,,,,6,93,150124,21,Female,1,2024/03/15_10:26:35,YZ,None,
,,,,,,calibration,0,20,2,1472,1,F,0,left,1.0088543960009702,0,0,,,,,,,,,,,,,,,,,,,93,150124,21,Female,1,2024/03/15_10:26:35,YZ,None,
,,,,,,calibration,0,20,2,1472,2,V,0,left,0.5246199339744635,0,0,,,,,,,,,,,,,,,,,,,93,150124,21,Female,1,2024/03/15_10:26:35,YZ,None,
,,,,,,calibration,0,20,2,1472,3,Q,0,left,0.5980071569792926,0,0,,,,,,,,,,,,,,,,,,,93,150124,21,Female,1,2024/03/15_10:26:35,YZ,None,
,,,,,,calibration,0,20,2,1472,4,J,0,left,0.46590068002115004,0,0,,,,,,,,,,,,,,,,,,,93,150124,21,Female,1,2024/03/15_10:26:35,YZ,None,
,,,,,,calibration,0,20,2,1472,5,Q,1,right,0.7895271260058507,0,0,,,,,,,,,,,,,,,,,,,93,150124,21,Female,1,2024/03/15_10:26:35,YZ,None,
,,,,,,calibration,0,20,2,1472,6,N,0,left,0.32298456199350767,0,0,,,,,,,,,,,,,,,,,,,93,150124,21,Female,1,2024/03/15_10:26:35,YZ,None,
,,,,,,calibration,0,20,2,1472,7,C,0,left,0.5313059040054213,0,0,,,,,,,,,,,,,,,,,,,93,150124,21,Female,1,2024/03/15_10:26:35,YZ,None,
,,,,,,calibration,0,20,2,1472,8,N,1,right,0.6410455699951854,0,0,,,,,,,,,,,,,,,,,,,93,150124,21,Female,1,2024/03/15_10:26:35,YZ,None,
,,,,,,calibration,0,20,2,1472,9,C,1,left,0.5125467499892693,1,0,,,,,,,,,,,,,,,,,,,93,150124,21,Female,1,2024/03/15_10:26:35,YZ,None,
,,,,,,calibration,0,20,2,1472,,,,,,,,0.08333333333333331,0.3333333333333333,1.0,0.0,0.0,0.0,0.5994213421072345,1,6,0,0,0,0,1,3,6,0,,93,150124,21,Female,1,2024/03/15_10:26:35,YZ,None,
,,,,,,Calibration,0,,2,1472,,,,,,,,,,,,,,,,,,,,,,,,,7,93,150124,21,Female,1,2024/03/15_10:26:35,YZ,None,
,,,,,,calibration,0,10,2,1750,1,V,0,left,1.0918961899878923,0,0,,,,,,,,,,,,,,,,,,,93,150124,21,Female,1,2024/03/15_10:26:35,YZ,None,
,,,,,,calibration,0,10,2,1750,2,F,0,left,0.5922115120047238,0,0,,,,,,,,,,,,,,,,,,,93,150124,21,Female,1,2024/03/15_10:26:35,YZ,None,
,,,,,,calibration,0,10,2,1750,3,Q,0,left,0.5347757020208519,0,0,,,,,,,,,,,,,,,,,,,93,150124,21,Female,1,2024/03/15_10:26:35,YZ,None,
,,,,,,calibration,0,10,2,1750,4,F,1,left,0.4273943419975694,1,0,,,,,,,,,,,,,,,,,,,93,150124,21,Female,1,2024/03/15_10:26:35,YZ,None,
,,,,,,calibration,0,10,2,1750,5,V,0,left,0.5326545659918338,0,0,,,,,,,,,,,,,,,,,,,93,150124,21,Female,1,2024/03/15_10:26:35,YZ,None,
,,,,,,calibration,0,10,2,1750,6,N,0,right,0.6039233909978066,1,0,,,,,,,,,,,,,,,,,,,93,150124,21,Female,1,2024/03/15_10:26:35,YZ,None,
,,,,,,calibration,0,10,2,1750,7,V,1,right,0.6009803540073335,0,0,,,,,,,,,,,,,,,,,,,93,150124,21,Female,1,2024/03/15_10:26:35,YZ,None,
,,,,,,calibration,0,10,2,1750,8,S,0,left,0.52501770798699,0,0,,,,,,,,,,,,,,,,,,,93,150124,21,Female,1,2024/03/15_10:26:35,YZ,None,
,,,,,,calibration,0,10,2,1750,,,,,,,,0.08333333333333333,0.5,0.8333333333333334,0.16666666666666666,0.0,0.16666666666666663,0.6136067206243752,1,5,0,0,0,1,2,2,6,0,,93,150124,21,Female,1,2024/03/15_10:26:35,YZ,None,
,,,,,,Calibration,0,,2,1750,,,,,,,,,,,,,,,,,,,,,,,,,8,93,150124,21,Female,1,2024/03/15_10:26:35,YZ,None,
,,,,,,calibration,0,28,2,2107,1,N,0,left,0.6142862890264951,0,0,,,,,,,,,,,,,,,,,,,93,150124,21,Female,1,2024/03/15_10:26:35,YZ,None,
,,,,,,calibration,0,28,2,2107,2,N,0,left,0.45857086800970137,0,0,,,,,,,,,,,,,,,,,,,93,150124,21,Female,1,2024/03/15_10:26:35,YZ,None,
,,,,,,calibration,0,28,2,2107,3,C,0,left,1.0665538760076743,0,0,,,,,,,,,,,,,,,,,,,93,150124,21,Female,1,2024/03/15_10:26:35,YZ,None,
,,,,,,calibration,0,28,2,2107,4,F,0,left,0.7560977310058661,0,0,,,,,,,,,,,,,,,,,,,93,150124,21,Female,1,2024/03/15_10:26:35,YZ,None,
,,,,,,calibration,0,28,2,2107,5,C,1,right,0.7067182589962613,0,0,,,,,,,,,,,,,,,,,,,93,150124,21,Female,1,2024/03/15_10:26:35,YZ,None,
,,,,,,calibration,0,28,2,2107,6,F,1,right,0.6683026849932503,0,0,,,,,,,,,,,,,,,,,,,93,150124,21,Female,1,2024/03/15_10:26:35,YZ,None,
,,,,,,calibration,0,28,2,2107,7,X,0,left,0.49970252299681306,0,0,,,,,,,,,,,,,,,,,,,93,150124,21,Female,1,2024/03/15_10:26:35,YZ,None,
,,,,,,calibration,0,28,2,2107,,,,,,,,0.0,0.0,1.0,0.0,0.0,0.0,0.681461747290866,0,5,0,0,0,0,0,2,5,0,,93,150124,21,Female,1,2024/03/15_10:26:35,YZ,None,
,,,,,,Calibration,0,,2,2107,,,,,,,,,,,,,,,,,,,,,,,,,9,93,150124,21,Female,1,2024/03/15_10:26:35,YZ,None,
,,,,,,calibration,0,4,2,2583,1,V,0,left,0.5477916999952868,0,0,,,,,,,,,,,,,,,,,,,93,150124,21,Female,1,2024/03/15_10:26:35,YZ,None,
,,,,,,calibration,0,4,2,2583,2,S,0,left,0.4250853649864439,0,0,,,,,,,,,,,,,,,,,,,93,150124,21,Female,1,2024/03/15_10:26:35,YZ,None,
,,,,,,calibration,0,4,2,2583,3,F,0,left,0.6737381250131875,0,0,,,,,,,,,,,,,,,,,,,93,150124,21,Female,1,2024/03/15_10:26:35,YZ,None,
,,,,,,calibration,0,4,2,2583,4,J,0,left,0.5402787319908384,0,0,,,,,,,,,,,,,,,,,,,93,150124,21,Female,1,2024/03/15_10:26:35,YZ,None,
,,,,,,calibration,0,4,2,2583,5,F,1,right,0.6734339440008625,0,0,,,,,,,,,,,,,,,,,,,93,150124,21,Female,1,2024/03/15_10:26:35,YZ,None,
,,,,,,calibration,0,4,2,2583,6,J,1,left,0.3436112919880543,1,0,,,,,,,,,,,,,,,,,,,93,150124,21,Female,1,2024/03/15_10:26:35,YZ,None,
,,,,,,calibration,0,4,2,2583,,,,,,,,0.125,0.5,1.0,0.0,0.0,0.0,0.5339898596624456,1,4,0,0,0,0,1,2,4,0,,93,150124,21,Female,1,2024/03/15_10:26:35,YZ,None,
,,,,,,Calibration,0,,2,2583,,,,,,,,,,,,,,,,,,,,,,,,,10,93,150124,21,Female,1,2024/03/15_10:26:35,YZ,None,
,,,,,,calibration,0,3,2,2583,1,X,0,left,0.5674765539879445,0,0,,,,,,,,,,,,,,,,,,,93,150124,21,Female,1,2024/03/15_10:26:35,YZ,None,
,,,,,,calibration,0,3,2,2583,2,N,0,left,0.32020024000667036,0,0,,,,,,,,,,,,,,,,,,,93,150124,21,Female,1,2024/03/15_10:26:35,YZ,None,
,,,,,,calibration,0,3,2,2583,3,V,0,left,0.5434827450080775,0,0,,,,,,,,,,,,,,,,,,,93,150124,21,Female,1,2024/03/15_10:26:35,YZ,None,
,,,,,,calibration,0,3,2,2583,4,N,1,left,0.4047806719900109,1,0,,,,,,,,,,,,,,,,,,,93,150124,21,Female,1,2024/03/15_10:26:35,YZ,None,
,,,,,,calibration,0,3,2,2583,5,S,0,left,0.8260688669979572,0,0,,,,,,,,,,,,,,,,,,,93,150124,21,Female,1,2024/03/15_10:26:35,YZ,None,
,,,,,,calibration,0,3,2,2583,6,N,1,right,0.693686726008309,0,0,,,,,,,,,,,,,,,,,,,93,150124,21,Female,1,2024/03/15_10:26:35,YZ,None,
,,,,,,calibration,0,3,2,2583,,,,,,,,0.125,0.5,1.0,0.0,0.0,0.0,0.5592826339998282,1,4,0,0,0,0,1,2,4,0,,93,150124,21,Female,1,2024/03/15_10:26:35,YZ,None,
,,,,,,Calibration,0,,2,2583,,,,,,,,,,,,,,,,,,,,,,,,,11,93,150124,21,Female,1,2024/03/15_10:26:35,YZ,None,
,,,,,,calibration,0,1,2,2583,1,C,0,left,0.43281841100542806,0,0,,,,,,,,,,,,,,,,,,,93,150124,21,Female,1,2024/03/15_10:26:35,YZ,None,
,,,,,,calibration,0,1,2,2583,2,C,0,left,0.35641575799672864,0,0,,,,,,,,,,,,,,,,,,,93,150124,21,Female,1,2024/03/15_10:26:35,YZ,None,
,,,,,,calibration,0,1,2,2583,3,C,1,right,0.6583460730034858,0,0,,,,,,,,,,,,,,,,,,,93,150124,21,Female,1,2024/03/15_10:26:35,YZ,None,
,,,,,,calibration,0,1,2,2583,4,N,0,left,0.5922427019977476,0,0,,,,,,,,,,,,,,,,,,,93,150124,21,Female,1,2024/03/15_10:26:35,YZ,None,
,,,,,,calibration,0,1,2,2583,5,C,1,right,0.6411329779948574,0,0,,,,,,,,,,,,,,,,,,,93,150124,21,Female,1,2024/03/15_10:26:35,YZ,None,
,,,,,,calibration,0,1,2,2583,6,V,0,left,0.48149171701516025,0,0,,,,,,,,,,,,,,,,,,,93,150124,21,Female,1,2024/03/15_10:26:35,YZ,None,
,,,,,,calibration,0,1,2,2583,,,,,,,,0.0,0.0,1.0,0.0,0.0,0.0,0.5270746065022346,0,4,0,0,0,0,0,2,4,0,,93,150124,21,Female,1,2024/03/15_10:26:35,YZ,None,
,,,,,,Calibration,0,,2,2583,,,,,,,,,,,,,,,,,,,,,,,,,12,93,150124,21,Female,1,2024/03/15_10:26:35,YZ,None,
,,,,,,calibration,0,4,2,2583,1,V,0,left,0.6623537899868097,0,0,,,,,,,,,,,,,,,,,,,93,150124,21,Female,1,2024/03/15_10:26:35,YZ,None,
,,,,,,calibration,0,4,2,2583,2,S,0,left,0.5831976470071822,0,0,,,,,,,,,,,,,,,,,,,93,150124,21,Female,1,2024/03/15_10:26:35,YZ,None,
,,,,,,calibration,0,4,2,2583,3,F,0,left,0.7250520289817359,0,0,,,,,,,,,,,,,,,,,,,93,150124,21,Female,1,2024/03/15_10:26:35,YZ,None,
,,,,,,calibration,0,4,2,2583,4,J,0,left,0.45123115001479164,0,0,,,,,,,,,,,,,,,,,,,93,150124,21,Female,1,2024/03/15_10:26:35,YZ,None,
,,,,,,calibration,0,4,2,2583,5,F,1,right,0.5572738479822874,0,0,,,,,,,,,,,,,,,,,,,93,150124,21,Female,1,2024/03/15_10:26:35,YZ,None,
,,,,,,calibration,0,4,2,2583,6,J,1,right,0.7370178879937157,0,0,,,,,,,,,,,,,,,,,,,93,150124,21,Female,1,2024/03/15_10:26:35,YZ,None,
,,,,,,calibration,0,4,2,2583,,,,,,,,0.0,0.0,1.0,0.0,0.0,0.0,0.6193543919944204,0,4,0,0,0,0,0,2,4,0,,93,150124,21,Female,1,2024/03/15_10:26:35,YZ,None,
,,,,,,Calibration,0,,2,2583,,,,,,,,,,,,,,,,,,,,,,,,,13,93,150124,21,Female,1,2024/03/15_10:26:35,YZ,None,
,,,,,,calibration,0,22,2,2583,1,F,0,left,0.5437928670144174,0,0,,,,,,,,,,,,,,,,,,,93,150124,21,Female,1,2024/03/15_10:26:35,YZ,None,
,,,,,,calibration,0,22,2,2583,2,X,0,left,0.4814097009948455,0,0,,,,,,,,,,,,,,,,,,,93,150124,21,Female,1,2024/03/15_10:26:35,YZ,None,
,,,,,,calibration,0,22,2,2583,3,Q,0,left,0.5604071900015697,0,0,,,,,,,,,,,,,,,,,,,93,150124,21,Female,1,2024/03/15_10:26:35,YZ,None,
,,,,,,calibration,0,22,2,2583,4,V,0,left,0.5254962079925463,0,0,,,,,,,,,,,,,,,,,,,93,150124,21,Female,1,2024/03/15_10:26:35,YZ,None,
,,,,,,calibration,0,22,2,2583,5,Q,1,right,0.4466850059980061,0,0,,,,,,,,,,,,,,,,,,,93,150124,21,Female,1,2024/03/15_10:26:35,YZ,None,
,,,,,,calibration,0,22,2,2583,6,V,1,right,0.7778580779850017,0,0,,,,,,,,,,,,,,,,,,,93,150124,21,Female,1,2024/03/15_10:26:35,YZ,None,
,,,,,,calibration,0,22,2,2583,,,,,,,,0.0,0.0,1.0,0.0,0.0,0.0,0.5559415083310645,0,4,0,0,0,0,0,2,4,0,,93,150124,21,Female,1,2024/03/15_10:26:35,YZ,None,
,,,,,,Calibration,0,,2,2583,,,,,,,,,,,,,,,,,,,,,,,,,14,93,150124,21,Female,1,2024/03/15_10:26:35,YZ,None,
,,,,,,calibration,0,25,2,2583,1,V,0,left,0.4644343440013472,0,0,,,,,,,,,,,,,,,,,,,93,150124,21,Female,1,2024/03/15_10:26:35,YZ,None,
,,,,,,calibration,0,25,2,2583,2,C,0,left,0.3315605279931333,0,0,,,,,,,,,,,,,,,,,,,93,150124,21,Female,1,2024/03/15_10:26:35,YZ,None,
,,,,,,calibration,0,25,2,2583,3,V,1,left,0.3221921889926307,1,0,,,,,,,,,,,,,,,,,,,93,150124,21,Female,1,2024/03/15_10:26:35,YZ,None,
,,,,,,calibration,0,25,2,2583,4,C,1,right,0.6254370560054667,0,0,,,,,,,,,,,,,,,,,,,93,150124,21,Female,1,2024/03/15_10:26:35,YZ,None,
,,,,,,calibration,0,25,2,2583,5,N,0,left,0.5755228420021012,0,0,,,,,,,,,,,,,,,,,,,93,150124,21,Female,1,2024/03/15_10:26:35,YZ,None,
,,,,,,calibration,0,25,2,2583,6,J,0,left,0.6522529619978741,0,0,,,,,,,,,,,,,,,,,,,93,150124,21,Female,1,2024/03/15_10:26:35,YZ,None,
,,,,,,calibration,0,25,2,2583,,,,,,,,0.125,0.5,1.0,0.0,0.0,0.0,0.49523332016542554,1,4,0,0,0,0,1,2,4,0,,93,150124,21,Female,1,2024/03/15_10:26:35,YZ,None,
,,,,,,Calibration,0,,2,2583,,,,,,,,,,,,,,,,,,,,,,,,,15,93,150124,21,Female,1,2024/03/15_10:26:35,YZ,None,
,,,,,,calibration,0,35,2,2583,1,J,0,left,0.6164087379875127,0,0,,,,,,,,,,,,,,,,,,,93,150124,21,Female,1,2024/03/15_10:26:35,YZ,None,
,,,,,,calibration,0,35,2,2583,2,J,0,right,0.7247869860148057,1,0,,,,,,,,,,,,,,,,,,,93,150124,21,Female,1,2024/03/15_10:26:35,YZ,None,
,,,,,,calibration,0,35,2,2583,3,V,0,left,0.9086557789996732,0,0,,,,,,,,,,,,,,,,,,,93,150124,21,Female,1,2024/03/15_10:26:35,YZ,None,
,,,,,,calibration,0,35,2,2583,4,J,1,right,0.6405369279964361,0,0,,,,,,,,,,,,,,,,,,,93,150124,21,Female,1,2024/03/15_10:26:35,YZ,None,
,,,,,,calibration,0,35,2,2583,5,V,1,right,0.7567057670094073,0,0,,,,,,,,,,,,,,,,,,,93,150124,21,Female,1,2024/03/15_10:26:35,YZ,None,
,,,,,,calibration,0,35,2,2583,6,Q,0,left,0.4624851960106753,0,0,,,,,,,,,,,,,,,,,,,93,150124,21,Female,1,2024/03/15_10:26:35,YZ,None,
,,,,,,calibration,0,35,2,2583,,,,,,,,0.0625,0.0,0.75,0.25,0.0,0.25,0.6849298990030851,0,3,0,0,0,1,1,2,4,0,,93,150124,21,Female,1,2024/03/15_10:26:35,YZ,None,
,,,,,,Calibration,0,,2,2583,,,,,,,,,,,,,,,,,,,,,,,,,16,93,150124,21,Female,1,2024/03/15_10:26:35,YZ,None,
,,,,,,calibration,0,33,2,2583,1,F,0,left,0.5838872029853519,0,0,,,,,,,,,,,,,,,,,,,93,150124,21,Female,1,2024/03/15_10:26:35,YZ,None,
,,,,,,calibration,0,33,2,2583,2,Q,0,left,0.6154128900088836,0,0,,,,,,,,,,,,,,,,,,,93,150124,21,Female,1,2024/03/15_10:26:35,YZ,None,
,,,,,,calibration,0,33,2,2583,3,X,0,left,0.7148833179962821,0,0,,,,,,,,,,,,,,,,,,,93,150124,21,Female,1,2024/03/15_10:26:35,YZ,None,
,,,,,,calibration,0,33,2,2583,4,Q,1,right,0.43459989700932056,0,0,,,,,,,,,,,,,,,,,,,93,150124,21,Female,1,2024/03/15_10:26:35,YZ,None,
,,,,,,calibration,0,33,2,2583,5,X,1,right,0.6137370580108836,0,0,,,,,,,,,,,,,,,,,,,93,150124,21,Female,1,2024/03/15_10:26:35,YZ,None,
,,,,,,calibration,0,33,2,2583,6,J,0,left,0.5908360270259436,0,0,,,,,,,,,,,,,,,,,,,93,150124,21,Female,1,2024/03/15_10:26:35,YZ,None,
,,,,,,calibration,0,33,2,2583,,,,,,,,0.0,0.0,1.0,0.0,0.0,0.0,0.5922260655061109,0,4,0,0,0,0,0,2,4,0,,93,150124,21,Female,1,2024/03/15_10:26:35,YZ,None,
,,,,,,Calibration,0,,2,2583,,,,,,,,,,,,,,,,,,,,,,,,,17,93,150124,21,Female,1,2024/03/15_10:26:35,YZ,None,
,,,,,,calibration,0,26,2,2583,1,J,0,left,0.47818496101535857,0,0,,,,,,,,,,,,,,,,,,,93,150124,21,Female,1,2024/03/15_10:26:35,YZ,None,
,,,,,,calibration,0,26,2,2583,2,Q,0,left,0.4889703349908814,0,0,,,,,,,,,,,,,,,,,,,93,150124,21,Female,1,2024/03/15_10:26:35,YZ,None,
,,,,,,calibration,0,26,2,2583,3,F,0,left,0.4638080769800581,0,0,,,,,,,,,,,,,,,,,,,93,150124,21,Female,1,2024/03/15_10:26:35,YZ,None,
,,,,,,calibration,0,26,2,2583,4,Q,1,right,0.2923601160000544,0,0,,,,,,,,,,,,,,,,,,,93,150124,21,Female,1,2024/03/15_10:26:35,YZ,None,
,,,,,,calibration,0,26,2,2583,5,F,1,left,0.36434387700865045,1,0,,,,,,,,,,,,,,,,,,,93,150124,21,Female,1,2024/03/15_10:26:35,YZ,None,
,,,,,,calibration,0,26,2,2583,6,V,0,left,0.48285146499983966,0,0,,,,,,,,,,,,,,,,,,,93,150124,21,Female,1,2024/03/15_10:26:35,YZ,None,
,,,,,,calibration,0,26,2,2583,,,,,,,,0.125,0.5,1.0,0.0,0.0,0.0,0.4284198051658071,1,4,0,0,0,0,1,2,4,0,,93,150124,21,Female,1,2024/03/15_10:26:35,YZ,None,
,,,,,,Calibration,0,,2,2583,,,,,,,,,,,,,,,,,,,,,,,,,18,93,150124,21,Female,1,2024/03/15_10:26:35,YZ,None,
,,,,,,calibration,0,4,2,2583,1,V,0,left,0.0,0,0,,,,,,,,,,,,,,,,,,,93,150124,21,Female,1,2024/03/15_10:26:35,YZ,None,
,,,,,,calibration,0,4,2,2583,2,S,0,left,0.5828717619879171,0,0,,,,,,,,,,,,,,,,,,,93,150124,21,Female,1,2024/03/15_10:26:35,YZ,None,
,,,,,,calibration,0,4,2,2583,3,F,0,left,0.642501219001133,0,0,,,,,,,,,,,,,,,,,,,93,150124,21,Female,1,2024/03/15_10:26:35,YZ,None,
,,,,,,calibration,0,4,2,2583,4,J,0,left,0.6070746360055637,0,0,,,,,,,,,,,,,,,,,,,93,150124,21,Female,1,2024/03/15_10:26:35,YZ,None,
,,,,,,calibration,0,4,2,2583,5,F,1,right,0.5483954670198727,0,0,,,,,,,,,,,,,,,,,,,93,150124,21,Female,1,2024/03/15_10:26:35,YZ,None,
,,,,,,calibration,0,4,2,2583,6,J,1,right,0.6743526509962976,0,0,,,,,,,,,,,,,,,,,,,93,150124,21,Female,1,2024/03/15_10:26:35,YZ,None,
,,,,,,calibration,0,4,2,2583,,,,,,,,0.0,0.0,1.0,0.0,0.0,0.0,0.509199289168464,0,4,0,0,0,0,0,2,4,0,,93,150124,21,Female,1,2024/03/15_10:26:35,YZ,None,
,,,,,,Calibration,0,,2,2583,,,,,,,,,,,,,,,,,,,,,,,,,19,93,150124,21,Female,1,2024/03/15_10:26:35,YZ,None,
,,,,,,calibration,0,35,2,2583,1,J,0,left,0.0,0,0,,,,,,,,,,,,,,,,,,,93,150124,21,Female,1,2024/03/15_10:26:35,YZ,None,
,,,,,,calibration,0,35,2,2583,2,J,0,left,0.4630289839988109,0,0,,,,,,,,,,,,,,,,,,,93,150124,21,Female,1,2024/03/15_10:26:35,YZ,None,
,,,,,,calibration,0,35,2,2583,3,V,0,right,0.9467626700061373,1,0,,,,,,,,,,,,,,,,,,,93,150124,21,Female,1,2024/03/15_10:26:35,YZ,None,
,,,,,,calibration,0,35,2,2583,4,J,1,left,0.489389366004616,1,0,,,,,,,,,,,,,,,,,,,93,150124,21,Female,1,2024/03/15_10:26:35,YZ,None,
,,,,,,calibration,0,35,2,2583,5,V,1,right,0.8825170249911025,0,0,,,,,,,,,,,,,,,,,,,93,150124,21,Female,1,2024/03/15_10:26:35,YZ,None,
,,,,,,calibration,0,35,2,2583,6,Q,0,left,0.8083127250138205,0,0,,,,,,,,,,,,,,,,,,,93,150124,21,Female,1,2024/03/15_10:26:35,YZ,None,
,,,,,,calibration,0,35,2,2583,,,,,,,,0.0625,0.5,0.75,0.25,0.0,0.25,0.5983351283357479,1,3,0,0,0,1,2,2,4,0,,93,150124,21,Female,1,2024/03/15_10:26:35,YZ,None,
,,,,,,Calibration,0,,2,2583,,,,,,,,,,,,,,,,,,,,,,,,,20,93,150124,21,Female,1,2024/03/15_10:26:35,YZ,None,
,,,,,,calibration,0,33,2,2583,1,F,0,left,1.241888074990129,0,0,,,,,,,,,,,,,,,,,,,93,150124,21,Female,1,2024/03/15_10:26:35,YZ,None,
,,,,,,calibration,0,33,2,2583,2,Q,0,left,0.39486985601251945,0,0,,,,,,,,,,,,,,,,,,,93,150124,21,Female,1,2024/03/15_10:26:35,YZ,None,
,,,,,,calibration,0,33,2,2583,3,X,0,left,0.5626868910039775,0,0,,,,,,,,,,,,,,,,,,,93,150124,21,Female,1,2024/03/15_10:26:35,YZ,None,
,,,,,,calibration,0,33,2,2583,4,Q,1,right,0.996914729999844,0,0,,,,,,,,,,,,,,,,,,,93,150124,21,Female,1,2024/03/15_10:26:35,YZ,None,
,,,,,,calibration,0,33,2,2583,5,X,1,right,0.6922928140265867,0,0,,,,,,,,,,,,,,,,,,,93,150124,21,Female,1,2024/03/15_10:26:35,YZ,None,
,,,,,,calibration,0,33,2,2583,6,J,0,left,0.4728850290121045,0,0,,,,,,,,,,,,,,,,,,,93,150124,21,Female,1,2024/03/15_10:26:35,YZ,None,
,,,,,,calibration,0,33,2,2583,,,,,,,,0.0,0.0,1.0,0.0,0.0,0.0,0.7269228991741935,0,4,0,0,0,0,0,2,4,0,,93,150124,21,Female,1,2024/03/15_10:26:35,YZ,None,
,,,,,,Calibration,0,,2,2583,,,,,,,,,,,,,,,,,,,,,,,,,21,93,150124,21,Female,1,2024/03/15_10:26:35,YZ,None,
,,,,,,calibration,0,25,2,2583,1,V,0,left,0.36042635000194423,0,0,,,,,,,,,,,,,,,,,,,93,150124,21,Female,1,2024/03/15_10:26:35,YZ,None,
,,,,,,calibration,0,25,2,2583,2,C,0,left,0.3063514849927742,0,0,,,,,,,,,,,,,,,,,,,93,150124,21,Female,1,2024/03/15_10:26:35,YZ,None,
,,,,,,calibration,0,25,2,2583,3,V,1,left,0.5123894329881296,1,0,,,,,,,,,,,,,,,,,,,93,150124,21,Female,1,2024/03/15_10:26:35,YZ,None,
,,,,,,calibration,0,25,2,2583,4,C,1,right,0.8077404930081684,0,0,,,,,,,,,,,,,,,,,,,93,150124,21,Female,1,2024/03/15_10:26:35,YZ,None,
,,,,,,calibration,0,25,2,2583,5,N,0,left,0.697579241998028,0,0,,,,,,,,,,,,,,,,,,,93,150124,21,Female,1,2024/03/15_10:26:35,YZ,None,
,,,,,,calibration,0,25,2,2583,6,J,0,left,0.5916141569905449,0,0,,,,,,,,,,,,,,,,,,,93,150124,21,Female,1,2024/03/15_10:26:35,YZ,None,
,,,,,,calibration,0,25,2,2583,,,,,,,,0.125,0.5,1.0,0.0,0.0,0.0,0.5460168599965982,1,4,0,0,0,0,1,2,4,0,,93,150124,21,Female,1,2024/03/15_10:26:35,YZ,None,
,,,,,,Calibration,0,,2,2583,,,,,,,,,,,,,,,,,,,,,,,,,22,93,150124,21,Female,1,2024/03/15_10:26:35,YZ,None,
,,,,,,calibration,0,9,2,2583,1,S,0,left,0.48070297500817105,0,0,,,,,,,,,,,,,,,,,,,93,150124,21,Female,1,2024/03/15_10:26:35,YZ,None,
,,,,,,calibration,0,9,2,2583,2,V,0,left,0.388222374022007,0,0,,,,,,,,,,,,,,,,,,,93,150124,21,Female,1,2024/03/15_10:26:35,YZ,None,
,,,,,,calibration,0,9,2,2583,3,X,0,left,0.5252270149940159,0,0,,,,,,,,,,,,,,,,,,,93,150124,21,Female,1,2024/03/15_10:26:35,YZ,None,
,,,,,,calibration,0,9,2,2583,4,S,0,right,0.5401043120073155,1,0,,,,,,,,,,,,,,,,,,,93,150124,21,Female,1,2024/03/15_10:26:35,YZ,None,
,,,,,,calibration,0,9,2,2583,5,X,1,right,0.5756780189985875,0,0,,,,,,,,,,,,,,,,,,,93,150124,21,Female,1,2024/03/15_10:26:35,YZ,None,
,,,,,,calibration,0,9,2,2583,6,S,1,right,0.9420203829940874,0,0,,,,,,,,,,,,,,,,,,,93,150124,21,Female,1,2024/03/15_10:26:35,YZ,None,
,,,,,,calibration,0,9,2,2583,,,,,,,,0.0625,0.0,0.75,0.25,0.0,0.25,0.575325846337364,0,3,0,0,0,1,1,2,4,0,,93,150124,21,Female,1,2024/03/15_10:26:35,YZ,None,
,,,,,,Calibration,0,,2,2583,,,,,,,,,,,,,,,,,,,,,,,,,23,93,150124,21,Female,1,2024/03/15_10:26:35,YZ,None,
,,,,,,calibration,0,21,2,2583,1,S,0,left,0.3786563249886967,0,0,,,,,,,,,,,,,,,,,,,93,150124,21,Female,1,2024/03/15_10:26:35,YZ,None,
,,,,,,calibration,0,21,2,2583,2,F,0,left,0.49694638498476706,0,0,,,,,,,,,,,,,,,,,,,93,150124,21,Female,1,2024/03/15_10:26:35,YZ,None,
,,,,,,calibration,0,21,2,2583,3,V,0,left,0.6405381550139282,0,0,,,,,,,,,,,,,,,,,,,93,150124,21,Female,1,2024/03/15_10:26:35,YZ,None,
,,,,,,calibration,0,21,2,2583,4,J,0,left,0.7423833410139196,0,0,,,,,,,,,,,,,,,,,,,93,150124,21,Female,1,2024/03/15_10:26:35,YZ,None,
,,,,,,calibration,0,21,2,2583,5,V,1,right,0.9146117659984156,0,0,,,,,,,,,,,,,,,,,,,93,150124,21,Female,1,2024/03/15_10:26:35,YZ,None,
,,,,,,calibration,0,21,2,2583,6,J,1,right,0.6156595700012986,0,0,,,,,,,,,,,,,,,,,,,93,150124,21,Female,1,2024/03/15_10:26:35,YZ,None,
,,,,,,calibration,0,21,2,2583,,,,,,,,0.0,0.0,1.0,0.0,0.0,0.0,0.6314659236668376,0,4,0,0,0,0,0,2,4,0,,93,150124,21,Female,1,2024/03/15_10:26:35,YZ,None,
,,,,,,Calibration,0,,2,2583,,,,,,,,,,,,,,,,,,,,,,,,,24,93,150124,21,Female,1,2024/03/15_10:26:35,YZ,None,
,,,,,,calibration,0,14,2,2583,1,X,0,left,0.42305080700316466,0,0,,,,,,,,,,,,,,,,,,,93,150124,21,Female,1,2024/03/15_10:26:35,YZ,None,
,,,,,,calibration,0,14,2,2583,2,X,0,left,0.45588384199072607,0,0,,,,,,,,,,,,,,,,,,,93,150124,21,Female,1,2024/03/15_10:26:35,YZ,None,
,,,,,,calibration,0,14,2,2583,3,X,1,left,0.5807854199956637,1,0,,,,,,,,,,,,,,,,,,,93,150124,21,Female,1,2024/03/15_10:26:35,YZ,None,
,,,,,,calibration,0,14,2,2583,4,X,1,right,0.6183155100152362,0,0,,,,,,,,,,,,,,,,,,,93,150124,21,Female,1,2024/03/15_10:26:35,YZ,None,
,,,,,,calibration,0,14,2,2583,5,Q,0,left,0.9594875989714637,0,0,,,,,,,,,,,,,,,,,,,93,150124,21,Female,1,2024/03/15_10:26:35,YZ,None,
,,,,,,calibration,0,14,2,2583,6,J,0,left,0.7477136300003622,0,0,,,,,,,,,,,,,,,,,,,93,150124,21,Female,1,2024/03/15_10:26:35,YZ,None,
,,,,,,calibration,0,14,2,2583,,,,,,,,0.125,0.5,1.0,0.0,0.0,0.0,0.6308728013294361,1,4,0,0,0,0,1,2,4,0,,93,150124,21,Female,1,2024/03/15_10:26:35,YZ,None,
,,,,,,Calibration,0,,2,2583,,,,,,,,,,,,,,,,,,,,,,,,,25,93,150124,21,Female,1,2024/03/15_10:26:35,YZ,None,
,,,,,,calibration,0,18,2,2583,1,Q,0,left,0.5540066999965347,0,0,,,,,,,,,,,,,,,,,,,93,150124,21,Female,1,2024/03/15_10:26:35,YZ,None,
,,,,,,calibration,0,18,2,2583,2,X,0,left,0.4100280760030728,0,0,,,,,,,,,,,,,,,,,,,93,150124,21,Female,1,2024/03/15_10:26:35,YZ,None,
,,,,,,calibration,0,18,2,2583,3,N,0,left,0.6661131620057859,0,0,,,,,,,,,,,,,,,,,,,93,150124,21,Female,1,2024/03/15_10:26:35,YZ,None,
,,,,,,calibration,0,18,2,2583,4,X,1,right,0.7750425080012064,0,0,,,,,,,,,,,,,,,,,,,93,150124,21,Female,1,2024/03/15_10:26:35,YZ,None,
,,,,,,calibration,0,18,2,2583,5,N,1,right,0.708861741994042,0,0,,,,,,,,,,,,,,,,,,,93,150124,21,Female,1,2024/03/15_10:26:35,YZ,None,
,,,,,,calibration,0,18,2,2583,6,V,0,left,0.5123283730063122,0,0,,,,,,,,,,,,,,,,,,,93,150124,21,Female,1,2024/03/15_10:26:35,YZ,None,
,,,,,,calibration,0,18,2,2583,,,,,,,,0.0,0.0,1.0,0.0,0.0,0.0,0.6043967601678256,0,4,0,0,0,0,0,2,4,0,,93,150124,21,Female,1,2024/03/15_10:26:35,YZ,None,
,,,,,,Calibration,0,,2,2583,,,,,,,,,,,,,,,,,,,,,,,,,26,93,150124,21,Female,1,2024/03/15_10:26:35,YZ,None,
,,,,,,calibration,0,27,2,2583,1,C,0,left,0.438320442015538,0,0,,,,,,,,,,,,,,,,,,,93,150124,21,Female,1,2024/03/15_10:26:35,YZ,None,
,,,,,,calibration,0,27,2,2583,2,J,0,left,0.3842672409955412,0,0,,,,,,,,,,,,,,,,,,,93,150124,21,Female,1,2024/03/15_10:26:35,YZ,None,
,,,,,,calibration,0,27,2,2583,3,C,1,right,0.4603518969961442,0,0,,,,,,,,,,,,,,,,,,,93,150124,21,Female,1,2024/03/15_10:26:35,YZ,None,
,,,,,,calibration,0,27,2,2583,4,S,0,left,0.46117560399579816,0,0,,,,,,,,,,,,,,,,,,,93,150124,21,Female,1,2024/03/15_10:26:35,YZ,None,
,,,,,,calibration,0,27,2,2583,5,C,1,right,0.9242880750098266,0,0,,,,,,,,,,,,,,,,,,,93,150124,21,Female,1,2024/03/15_10:26:35,YZ,None,
,,,,,,calibration,0,27,2,2583,6,N,0,left,0.49230501501006074,0,0,,,,,,,,,,,,,,,,,,,93,150124,21,Female,1,2024/03/15_10:26:35,YZ,None,
,,,,,,calibration,0,27,2,2583,,,,,,,,0.0,0.0,1.0,0.0,0.0,0.0,0.5267847123371515,0,4,0,0,0,0,0,2,4,0,,93,150124,21,Female,1,2024/03/15_10:26:35,YZ,None,
,,,,,,Calibration,0,,2,2583,,,,,,,,,,,,,,,,,,,,,,,,,27,93,150124,21,Female,1,2024/03/15_10:26:35,YZ,None,
,,,,,,calibration,0,31,2,2583,1,X,0,left,0.4253963899973314,0,0,,,,,,,,,,,,,,,,,,,93,150124,21,Female,1,2024/03/15_10:26:35,YZ,None,
,,,,,,calibration,0,31,2,2583,2,F,0,left,0.31421188899548724,0,0,,,,,,,,,,,,,,,,,,,93,150124,21,Female,1,2024/03/15_10:26:35,YZ,None,
,,,,,,calibration,0,31,2,2583,3,X,1,right,0.4335821959830355,0,0,,,,,,,,,,,,,,,,,,,93,150124,21,Female,1,2024/03/15_10:26:35,YZ,None,
,,,,,,calibration,0,31,2,2583,4,N,0,left,0.40988507799920626,0,0,,,,,,,,,,,,,,,,,,,93,150124,21,Female,1,2024/03/15_10:26:35,YZ,None,
,,,,,,calibration,0,31,2,2583,5,X,1,right,0.5768570920045022,0,0,,,,,,,,,,,,,,,,,,,93,150124,21,Female,1,2024/03/15_10:26:35,YZ,None,
,,,,,,calibration,0,31,2,2583,6,S,0,left,0.4245284820208326,0,0,,,,,,,,,,,,,,,,,,,93,150124,21,Female,1,2024/03/15_10:26:35,YZ,None,
,,,,,,calibration,0,31,2,2583,,,,,,,,0.0,0.0,1.0,0.0,0.0,0.0,0.43074352116673253,0,4,0,0,0,0,0,2,4,0,,93,150124,21,Female,1,2024/03/15_10:26:35,YZ,None,
,,,,,,Calibration,0,,2,2583,,,,,,,,,,,,,,,,,,,,,,,,,28,93,150124,21,Female,1,2024/03/15_10:26:35,YZ,None,
,,,,,,calibration,0,16,2,2583,1,F,0,left,0.44882571799098514,0,0,,,,,,,,,,,,,,,,,,,93,150124,21,Female,1,2024/03/15_10:26:35,YZ,None,
,,,,,,calibration,0,16,2,2583,2,F,0,left,0.5239915729907807,0,0,,,,,,,,,,,,,,,,,,,93,150124,21,Female,1,2024/03/15_10:26:35,YZ,None,
,,,,,,calibration,0,16,2,2583,3,Q,0,left,0.4945219859946519,0,0,,,,,,,,,,,,,,,,,,,93,150124,21,Female,1,2024/03/15_10:26:35,YZ,None,
,,,,,,calibration,0,16,2,2583,4,F,1,right,0.7581174109946005,0,0,,,,,,,,,,,,,,,,,,,93,150124,21,Female,1,2024/03/15_10:26:35,YZ,None,
,,,,,,calibration,0,16,2,2583,5,S,0,left,0.5630829659930896,0,0,,,,,,,,,,,,,,,,,,,93,150124,21,Female,1,2024/03/15_10:26:35,YZ,None,
,,,,,,calibration,0,16,2,2583,6,F,1,right,0.5824496459972579,0,0,,,,,,,,,,,,,,,,,,,93,150124,21,Female,1,2024/03/15_10:26:35,YZ,None,
,,,,,,calibration,0,16,2,2583,,,,,,,,0.0,0.0,1.0,0.0,0.0,0.0,0.561831549993561,0,4,0,0,0,0,0,2,4,0,,93,150124,21,Female,1,2024/03/15_10:26:35,YZ,None,
,,,,,,Calibration,0,,2,2583,,,,,,,,,,,,,,,,,,,,,,,,,29,93,150124,21,Female,1,2024/03/15_10:26:35,YZ,None,
,,,,,,calibration,0,33,2,2583,1,F,0,left,0.3956607030122541,0,0,,,,,,,,,,,,,,,,,,,93,150124,21,Female,1,2024/03/15_10:26:35,YZ,None,
,,,,,,calibration,0,33,2,2583,2,Q,0,left,0.33760985601111315,0,0,,,,,,,,,,,,,,,,,,,93,150124,21,Female,1,2024/03/15_10:26:35,YZ,None,
,,,,,,calibration,0,33,2,2583,3,X,0,left,0.4562580850033555,0,0,,,,,,,,,,,,,,,,,,,93,150124,21,Female,1,2024/03/15_10:26:35,YZ,None,
,,,,,,calibration,0,33,2,2583,4,Q,1,right,0.6666145009803586,0,0,,,,,,,,,,,,,,,,,,,93,150124,21,Female,1,2024/03/15_10:26:35,YZ,None,
,,,,,,calibration,0,33,2,2583,5,X,1,right,0.5307333979872055,0,0,,,,,,,,,,,,,,,,,,,93,150124,21,Female,1,2024/03/15_10:26:35,YZ,None,
,,,,,,calibration,0,33,2,2583,6,J,0,left,0.5650800940056797,0,0,,,,,,,,,,,,,,,,,,,93,150124,21,Female,1,2024/03/15_10:26:35,YZ,None,
,,,,,,calibration,0,33,2,2583,,,,,,,,0.0,0.0,1.0,0.0,0.0,0.0,0.49199277283332776,0,4,0,0,0,0,0,2,4,0,,93,150124,21,Female,1,2024/03/15_10:26:35,YZ,None,
,,,,,,Calibration,0,,2,2583,,,,,,,,,,,,,,,,,,,,,,,,,30,93,150124,21,Female,1,2024/03/15_10:26:35,YZ,None,
,,,,,,calibration,0,35,2,2583,1,J,0,left,0.48509519698563963,0,0,,,,,,,,,,,,,,,,,,,93,150124,21,Female,1,2024/03/15_10:26:35,YZ,None,
,,,,,,calibration,0,35,2,2583,2,J,0,left,0.27626686001894996,0,0,,,,,,,,,,,,,,,,,,,93,150124,21,Female,1,2024/03/15_10:26:35,YZ,None,
,,,,,,calibration,0,35,2,2583,3,V,0,left,0.3890235489816405,0,0,,,,,,,,,,,,,,,,,,,93,150124,21,Female,1,2024/03/15_10:26:35,YZ,None,
,,,,,,calibration,0,35,2,2583,4,J,1,right,0.6094270129979122,0,0,,,,,,,,,,,,,,,,,,,93,150124,21,Female,1,2024/03/15_10:26:35,YZ,None,
,,,,,,calibration,0,35,2,2583,5,V,1,right,0.6764536970003974,0,0,,,,,,,,,,,,,,,,,,,93,150124,21,Female,1,2024/03/15_10:26:35,YZ,None,
,,,,,,calibration,0,35,2,2583,6,Q,0,left,0.5485128150030505,0,0,,,,,,,,,,,,,,,,,,,93,150124,21,Female,1,2024/03/15_10:26:35,YZ,None,
,,,,,,calibration,0,35,2,2583,,,,,,,,0.0,0.0,1.0,0.0,0.0,0.0,0.4974631884979317,0,4,0,0,0,0,0,2,4,0,,93,150124,21,Female,1,2024/03/15_10:26:35,YZ,None,
,,,,,,Calibration,0,,2,2583,,,,,,,,,,,,,,,,,,,,,,,,,31,93,150124,21,Female,1,2024/03/15_10:26:35,YZ,None,
,,,,,,calibration,0,20,2,2583,1,C,0,left,0.4106955759925768,0,0,,,,,,,,,,,,,,,,,,,93,150124,21,Female,1,2024/03/15_10:26:35,YZ,None,
,,,,,,calibration,0,20,2,2583,2,V,0,left,0.3118558620044496,0,0,,,,,,,,,,,,,,,,,,,93,150124,21,Female,1,2024/03/15_10:26:35,YZ,None,
,,,,,,calibration,0,20,2,2583,3,C,1,right,0.6746357729716692,0,0,,,,,,,,,,,,,,,,,,,93,150124,21,Female,1,2024/03/15_10:26:35,YZ,None,
,,,,,,calibration,0,20,2,2583,4,N,0,left,0.45040569102275185,0,0,,,,,,,,,,,,,,,,,,,93,150124,21,Female,1,2024/03/15_10:26:35,YZ,None,
,,,,,,calibration,0,20,2,2583,5,S,0,left,0.5798628589836881,0,0,,,,,,,,,,,,,,,,,,,93,150124,21,Female,1,2024/03/15_10:26:35,YZ,None,
,,,,,,calibration,0,20,2,2583,6,N,1,right,0.42549699399387464,0,0,,,,,,,,,,,,,,,,,,,93,150124,21,Female,1,2024/03/15_10:26:35,YZ,None,
,,,,,,calibration,0,20,2,2583,,,,,,,,0.0,0.0,1.0,0.0,0.0,0.0,0.47549212582816835,0,4,0,0,0,0,0,2,4,0,,93,150124,21,Female,1,2024/03/15_10:26:35,YZ,None,
,,,,,,Calibration,0,,2,2583,,,,,,,,,,,,,,,,,,,,,,,,,32,93,150124,21,Female,1,2024/03/15_10:26:35,YZ,None,
,,,,,,calibration,0,1,2,2583,1,C,0,left,0.8949664730171207,0,0,,,,,,,,,,,,,,,,,,,93,150124,21,Female,1,2024/03/15_10:26:35,YZ,None,
,,,,,,calibration,0,1,2,2583,2,C,0,left,0.6244674449844752,0,0,,,,,,,,,,,,,,,,,,,93,150124,21,Female,1,2024/03/15_10:26:35,YZ,None,
,,,,,,calibration,0,1,2,2583,3,C,1,right,0.43134151500998996,0,0,,,,,,,,,,,,,,,,,,,93,150124,21,Female,1,2024/03/15_10:26:35,YZ,None,
,,,,,,calibration,0,1,2,2583,4,N,0,left,0.5583574039919768,0,0,,,,,,,,,,,,,,,,,,,93,150124,21,Female,1,2024/03/15_10:26:35,YZ,None,
,,,,,,calibration,0,1,2,2583,5,C,1,right,0.5572250399854966,0,0,,,,,,,,,,,,,,,,,,,93,150124,21,Female,1,2024/03/15_10:26:35,YZ,None,
,,,,,,calibration,0,1,2,2583,6,V,0,left,0.4691743309958838,0,0,,,,,,,,,,,,,,,,,,,93,150124,21,Female,1,2024/03/15_10:26:35,YZ,None,
,,,,,,calibration,0,1,2,2583,,,,,,,,0.0,0.0,1.0,0.0,0.0,0.0,0.5892553679974905,0,4,0,0,0,0,0,2,4,0,,93,150124,21,Female,1,2024/03/15_10:26:35,YZ,None,
,,,,,,Calibration,0,,2,2583,,,,,,,,,,,,,,,,,,,,,,,,,33,93,150124,21,Female,1,2024/03/15_10:26:35,YZ,None,
,,,,,,calibration,0,22,2,2583,1,F,0,left,0.6978017830115277,0,0,,,,,,,,,,,,,,,,,,,93,150124,21,Female,1,2024/03/15_10:26:35,YZ,None,
,,,,,,calibration,0,22,2,2583,2,X,0,left,0.6798365779977757,0,0,,,,,,,,,,,,,,,,,,,93,150124,21,Female,1,2024/03/15_10:26:35,YZ,None,
,,,,,,calibration,0,22,2,2583,3,Q,0,left,0.6321744039887562,0,0,,,,,,,,,,,,,,,,,,,93,150124,21,Female,1,2024/03/15_10:26:35,YZ,None,
,,,,,,calibration,0,22,2,2583,4,V,0,left,0.5745776249968912,0,0,,,,,,,,,,,,,,,,,,,93,150124,21,Female,1,2024/03/15_10:26:35,YZ,None,
,,,,,,calibration,0,22,2,2583,5,Q,1,right,0.43071083500399254,0,0,,,,,,,,,,,,,,,,,,,93,150124,21,Female,1,2024/03/15_10:26:35,YZ,None,
,,,,,,calibration,0,22,2,2583,6,V,1,right,0.7004274610080756,0,0,,,,,,,,,,,,,,,,,,,93,150124,21,Female,1,2024/03/15_10:26:35,YZ,None,
,,,,,,calibration,0,22,2,2583,,,,,,,,0.0,0.0,1.0,0.0,0.0,0.0,0.6192547810011698,0,4,0,0,0,0,0,2,4,0,,93,150124,21,Female,1,2024/03/15_10:26:35,YZ,None,
,,,,,,Calibration,0,,2,2583,,,,,,,,,,,,,,,,,,,,,,,,,34,93,150124,21,Female,1,2024/03/15_10:26:35,YZ,None,
,,,,,,calibration,0,18,2,2583,1,Q,0,left,0.5243444610096049,0,0,,,,,,,,,,,,,,,,,,,93,150124,21,Female,1,2024/03/15_10:26:35,YZ,None,
,,,,,,calibration,0,18,2,2583,2,X,0,left,0.5411476260051131,0,0,,,,,,,,,,,,,,,,,,,93,150124,21,Female,1,2024/03/15_10:26:35,YZ,None,
,,,,,,calibration,0,18,2,2583,3,N,0,left,0.4976712779898662,0,0,,,,,,,,,,,,,,,,,,,93,150124,21,Female,1,2024/03/15_10:26:35,YZ,None,
,,,,,,calibration,0,18,2,2583,4,X,1,right,0.6026609830150846,0,0,,,,,,,,,,,,,,,,,,,93,150124,21,Female,1,2024/03/15_10:26:35,YZ,None,
,,,,,,calibration,0,18,2,2583,5,N,1,right,0.6288963069964666,0,0,,,,,,,,,,,,,,,,,,,93,150124,21,Female,1,2024/03/15_10:26:35,YZ,None,
,,,,,,calibration,0,18,2,2583,6,V,0,left,0.6075482260202989,0,0,,,,,,,,,,,,,,,,,,,93,150124,21,Female,1,2024/03/15_10:26:35,YZ,None,
,,,,,,calibration,0,18,2,2583,,,,,,,,0.0,0.0,1.0,0.0,0.0,0.0,0.5670448135060724,0,4,0,0,0,0,0,2,4,0,,93,150124,21,Female,1,2024/03/15_10:26:35,YZ,None,
,,,,,,Calibration,0,,2,2583,,,,,,,,,,,,,,,,,,,,,,,,,35,93,150124,21,Female,1,2024/03/15_10:26:35,YZ,None,
,,,,,,calibration,0,30,2,2583,1,X,0,left,0.4471054949972313,0,0,,,,,,,,,,,,,,,,,,,93,150124,21,Female,1,2024/03/15_10:26:35,YZ,None,
,,,,,,calibration,0,30,2,2583,2,S,0,left,0.40429131701239385,0,0,,,,,,,,,,,,,,,,,,,93,150124,21,Female,1,2024/03/15_10:26:35,YZ,None,
,,,,,,calibration,0,30,2,2583,3,X,1,right,0.6409615419979673,0,0,,,,,,,,,,,,,,,,,,,93,150124,21,Female,1,2024/03/15_10:26:35,YZ,None,
,,,,,,calibration,0,30,2,2583,4,N,0,left,0.5638429219834507,0,0,,,,,,,,,,,,,,,,,,,93,150124,21,Female,1,2024/03/15_10:26:35,YZ,None,
,,,,,,calibration,0,30,2,2583,5,C,0,left,0.6649146410054527,0,0,,,,,,,,,,,,,,,,,,,93,150124,21,Female,1,2024/03/15_10:26:35,YZ,None,
,,,,,,calibration,0,30,2,2583,6,N,1,right,0.557990494009573,0,0,,,,,,,,,,,,,,,,,,,93,150124,21,Female,1,2024/03/15_10:26:35,YZ,None,
,,,,,,calibration,0,30,2,2583,,,,,,,,0.0,0.0,1.0,0.0,0.0,0.0,0.5465177351676781,0,4,0,0,0,0,0,2,4,0,,93,150124,21,Female,1,2024/03/15_10:26:35,YZ,None,
,,,,,,Calibration,0,,2,2583,,,,,,,,,,,,,,,,,,,,,,,,,36,93,150124,21,Female,1,2024/03/15_10:26:35,YZ,None,
,,,,,,calibration,0,2,2,2583,1,C,0,left,0.3676619949983433,0,0,,,,,,,,,,,,,,,,,,,93,150124,21,Female,1,2024/03/15_10:26:35,YZ,None,
,,,,,,calibration,0,2,2,2583,2,Q,0,left,0.328491945983842,0,0,,,,,,,,,,,,,,,,,,,93,150124,21,Female,1,2024/03/15_10:26:35,YZ,None,
,,,,,,calibration,0,2,2,2583,3,C,1,left,0.4496270479867235,1,0,,,,,,,,,,,,,,,,,,,93,150124,21,Female,1,2024/03/15_10:26:35,YZ,None,
,,,,,,calibration,0,2,2,2583,4,Q,1,right,0.8078006260038819,0,0,,,,,,,,,,,,,,,,,,,93,150124,21,Female,1,2024/03/15_10:26:35,YZ,None,
,,,,,,calibration,0,2,2,2583,5,X,0,left,0.708998120011529,0,0,,,,,,,,,,,,,,,,,,,93,150124,21,Female,1,2024/03/15_10:26:35,YZ,None,
,,,,,,calibration,0,2,2,2583,6,N,0,left,0.6183423610054888,0,0,,,,,,,,,,,,,,,,,,,93,150124,21,Female,1,2024/03/15_10:26:35,YZ,None,
,,,,,,calibration,0,2,2,2583,,,,,,,,0.125,0.5,1.0,0.0,0.0,0.0,0.5468203493316347,1,4,0,0,0,0,1,2,4,0,,93,150124,21,Female,1,2024/03/15_10:26:35,YZ,None,
,,,,,,Calibration,0,,2,2583,,,,,,,,,,,,,,,,,,,,,,,,,37,93,150124,21,Female,1,2024/03/15_10:26:35,YZ,None,
,,,,,,calibration,0,25,2,2583,1,V,0,left,0.5918768639967311,0,0,,,,,,,,,,,,,,,,,,,93,150124,21,Female,1,2024/03/15_10:26:35,YZ,None,
,,,,,,calibration,0,25,2,2583,2,C,0,left,0.492256716999691,0,0,,,,,,,,,,,,,,,,,,,93,150124,21,Female,1,2024/03/15_10:26:35,YZ,None,
,,,,,,calibration,0,25,2,2583,3,V,1,left,0.5107364229916129,1,0,,,,,,,,,,,,,,,,,,,93,150124,21,Female,1,2024/03/15_10:26:35,YZ,None,
,,,,,,calibration,0,25,2,2583,4,C,1,right,0.5674925850180443,0,0,,,,,,,,,,,,,,,,,,,93,150124,21,Female,1,2024/03/15_10:26:35,YZ,None,
,,,,,,calibration,0,25,2,2583,5,N,0,left,0.6593724800040945,0,0,,,,,,,,,,,,,,,,,,,93,150124,21,Female,1,2024/03/15_10:26:35,YZ,None,
,,,,,,calibration,0,25,2,2583,6,J,0,left,0.5575927869940642,0,0,,,,,,,,,,,,,,,,,,,93,150124,21,Female,1,2024/03/15_10:26:35,YZ,None,
,,,,,,calibration,0,25,2,2583,,,,,,,,0.125,0.5,1.0,0.0,0.0,0.0,0.5632213093340397,1,4,0,0,0,0,1,2,4,0,,93,150124,21,Female,1,2024/03/15_10:26:35,YZ,None,
,,,,,,Calibration,0,,2,2583,,,,,,,,,,,,,,,,,,,,,,,,,38,93,150124,21,Female,1,2024/03/15_10:26:35,YZ,None,
,,,,,,calibration,0,14,2,2583,1,X,0,left,0.37252092600101605,0,0,,,,,,,,,,,,,,,,,,,93,150124,21,Female,1,2024/03/15_10:26:35,YZ,None,
,,,,,,calibration,0,14,2,2583,2,X,0,left,0.30357707300572656,0,0,,,,,,,,,,,,,,,,,,,93,150124,21,Female,1,2024/03/15_10:26:35,YZ,None,
,,,,,,calibration,0,14,2,2583,3,X,1,right,0.40206537599442527,0,0,,,,,,,,,,,,,,,,,,,93,150124,21,Female,1,2024/03/15_10:26:35,YZ,None,
,,,,,,calibration,0,14,2,2583,4,X,1,right,0.4981535839906428,0,0,,,,,,,,,,,,,,,,,,,93,150124,21,Female,1,2024/03/15_10:26:35,YZ,None,
,,,,,,calibration,0,14,2,2583,5,Q,0,left,0.4653681789932307,0,0,,,,,,,,,,,,,,,,,,,93,150124,21,Female,1,2024/03/15_10:26:35,YZ,None,
,,,,,,calibration,0,14,2,2583,6,J,0,left,0.6143211330054328,0,0,,,,,,,,,,,,,,,,,,,93,150124,21,Female,1,2024/03/15_10:26:35,YZ,None,
,,,,,,calibration,0,14,2,2583,,,,,,,,0.0,0.0,1.0,0.0,0.0,0.0,0.4426677118317457,0,4,0,0,0,0,0,2,4,0,,93,150124,21,Female,1,2024/03/15_10:26:35,YZ,None,
,,,,,,Calibration,0,,2,2583,,,,,,,,,,,,,,,,,,,,,,,,,39,93,150124,21,Female,1,2024/03/15_10:26:35,YZ,None,
,,,,,,calibration,0,33,2,2583,1,F,0,left,0.5307640919927508,0,0,,,,,,,,,,,,,,,,,,,93,150124,21,Female,1,2024/03/15_10:26:35,YZ,None,
,,,,,,calibration,0,33,2,2583,2,Q,0,left,0.3226177940086927,0,0,,,,,,,,,,,,,,,,,,,93,150124,21,Female,1,2024/03/15_10:26:35,YZ,None,
,,,,,,calibration,0,33,2,2583,3,X,0,left,0.43634732998907566,0,0,,,,,,,,,,,,,,,,,,,93,150124,21,Female,1,2024/03/15_10:26:35,YZ,None,
,,,,,,calibration,0,33,2,2583,4,Q,1,right,0.4954538789752405,0,0,,,,,,,,,,,,,,,,,,,93,150124,21,Female,1,2024/03/15_10:26:35,YZ,None,
,,,,,,calibration,0,33,2,2583,5,X,1,right,0.5316526359820273,0,0,,,,,,,,,,,,,,,,,,,93,150124,21,Female,1,2024/03/15_10:26:35,YZ,None,
,,,,,,calibration,0,33,2,2583,6,J,0,left,0.3774581030011177,0,0,,,,,,,,,,,,,,,,,,,93,150124,21,Female,1,2024/03/15_10:26:35,YZ,None,
,,,,,,calibration,0,33,2,2583,,,,,,,,0.0,0.0,1.0,0.0,0.0,0.0,0.44904897232481744,0,4,0,0,0,0,0,2,4,0,,93,150124,21,Female,1,2024/03/15_10:26:35,YZ,None,
,,,,,,Calibration,0,,2,2583,,,,,,,,,,,,,,,,,,,,,,,,,40,93,150124,21,Female,1,2024/03/15_10:26:35,YZ,None,
,,,,,,calibration,0,15,2,2583,1,J,0,left,0.4892935550014954,0,0,,,,,,,,,,,,,,,,,,,93,150124,21,Female,1,2024/03/15_10:26:35,YZ,None,
,,,,,,calibration,0,15,2,2583,2,C,0,left,0.35968869499629363,0,0,,,,,,,,,,,,,,,,,,,93,150124,21,Female,1,2024/03/15_10:26:35,YZ,None,
,,,,,,calibration,0,15,2,2583,3,J,1,right,0.6255848089931533,0,0,,,,,,,,,,,,,,,,,,,93,150124,21,Female,1,2024/03/15_10:26:35,YZ,None,
,,,,,,calibration,0,15,2,2583,4,F,0,left,0.5197864129731897,0,0,,,,,,,,,,,,,,,,,,,93,150124,21,Female,1,2024/03/15_10:26:35,YZ,None,
,,,,,,calibration,0,15,2,2583,5,X,0,left,0.5418815370067023,0,0,,,,,,,,,,,,,,,,,,,93,150124,21,Female,1,2024/03/15_10:26:35,YZ,None,
,,,,,,calibration,0,15,2,2583,6,F,1,right,0.6588612789928447,0,0,,,,,,,,,,,,,,,,,,,93,150124,21,Female,1,2024/03/15_10:26:35,YZ,None,
,,,,,,calibration,0,15,2,2583,,,,,,,,0.0,0.0,1.0,0.0,0.0,0.0,0.5325160479939465,0,4,0,0,0,0,0,2,4,0,,93,150124,21,Female,1,2024/03/15_10:26:35,YZ,None,
,,,,,,Calibration,0,,2,2583,,,,,,,,,,,,,,,,,,,,,,,,,41,93,150124,21,Female,1,2024/03/15_10:26:35,YZ,None,
,,,,,,calibration,0,5,2,2583,1,J,0,left,0.5545556449797004,0,0,,,,,,,,,,,,,,,,,,,93,150124,21,Female,1,2024/03/15_10:26:35,YZ,None,
,,,,,,calibration,0,5,2,2583,2,V,0,left,0.5649896980030462,0,0,,,,,,,,,,,,,,,,,,,93,150124,21,Female,1,2024/03/15_10:26:35,YZ,None,
,,,,,,calibration,0,5,2,2583,3,N,0,left,0.43427641698508523,0,0,,,,,,,,,,,,,,,,,,,93,150124,21,Female,1,2024/03/15_10:26:35,YZ,None,
,,,,,,calibration,0,5,2,2583,4,V,1,right,0.4963341240072623,0,0,,,,,,,,,,,,,,,,,,,93,150124,21,Female,1,2024/03/15_10:26:35,YZ,None,
,,,,,,calibration,0,5,2,2583,5,F,0,left,0.6305887580092531,0,0,,,,,,,,,,,,,,,,,,,93,150124,21,Female,1,2024/03/15_10:26:35,YZ,None,
,,,,,,calibration,0,5,2,2583,6,V,1,right,0.6254966489796061,0,0,,,,,,,,,,,,,,,,,,,93,150124,21,Female,1,2024/03/15_10:26:35,YZ,None,
,,,,,,calibration,0,5,2,2583,,,,,,,,0.0,0.0,1.0,0.0,0.0,0.0,0.5510402151606589,0,4,0,0,0,0,0,2,4,0,,93,150124,21,Female,1,2024/03/15_10:26:35,YZ,None,
,,,,,,Calibration,0,,2,2583,,,,,,,,,,,,,,,,,,,,,,,,,42,93,150124,21,Female,1,2024/03/15_10:26:35,YZ,None,
,,,,,,calibration,0,1,2,2583,1,C,0,left,0.4194474250252824,0,0,,,,,,,,,,,,,,,,,,,93,150124,21,Female,1,2024/03/15_10:26:35,YZ,None,
,,,,,,calibration,0,1,2,2583,2,C,0,left,0.32083540299208835,0,0,,,,,,,,,,,,,,,,,,,93,150124,21,Female,1,2024/03/15_10:26:35,YZ,None,
,,,,,,calibration,0,1,2,2583,3,C,1,right,0.3676567310176324,0,0,,,,,,,,,,,,,,,,,,,93,150124,21,Female,1,2024/03/15_10:26:35,YZ,None,
,,,,,,calibration,0,1,2,2583,4,N,0,left,0.4531389810144901,0,0,,,,,,,,,,,,,,,,,,,93,150124,21,Female,1,2024/03/15_10:26:35,YZ,None,
,,,,,,calibration,0,1,2,2583,5,C,1,right,0.5665750569896773,0,0,,,,,,,,,,,,,,,,,,,93,150124,21,Female,1,2024/03/15_10:26:35,YZ,None,
,,,,,,calibration,0,1,2,2583,6,V,0,left,0.5241398049984127,0,0,,,,,,,,,,,,,,,,,,,93,150124,21,Female,1,2024/03/15_10:26:35,YZ,None,
,,,,,,calibration,0,1,2,2583,,,,,,,,0.0,0.0,1.0,0.0,0.0,0.0,0.4419655670062639,0,4,0,0,0,0,0,2,4,0,,93,150124,21,Female,1,2024/03/15_10:26:35,YZ,None,
,,,,,,Calibration,0,,2,2583,,,,,,,,,,,,,,,,,,,,,,,,,43,93,150124,21,Female,1,2024/03/15_10:26:35,YZ,None,
,,,,,,calibration,0,2,2,2583,1,C,0,left,0.5001657380198594,0,0,,,,,,,,,,,,,,,,,,,93,150124,21,Female,1,2024/03/15_10:26:35,YZ,None,
,,,,,,calibration,0,2,2,2583,2,Q,0,left,0.3487808710196987,0,0,,,,,,,,,,,,,,,,,,,93,150124,21,Female,1,2024/03/15_10:26:35,YZ,None,
,,,,,,calibration,0,2,2,2583,3,C,1,right,0.41665301701868884,0,0,,,,,,,,,,,,,,,,,,,93,150124,21,Female,1,2024/03/15_10:26:35,YZ,None,
,,,,,,calibration,0,2,2,2583,4,Q,1,right,0.4367152030172292,0,0,,,,,,,,,,,,,,,,,,,93,150124,21,Female,1,2024/03/15_10:26:35,YZ,None,
,,,,,,calibration,0,2,2,2583,5,X,0,left,0.40845876300591044,0,0,,,,,,,,,,,,,,,,,,,93,150124,21,Female,1,2024/03/15_10:26:35,YZ,None,
,,,,,,calibration,0,2,2,2583,6,N,0,left,0.5121675900008995,0,0,,,,,,,,,,,,,,,,,,,93,150124,21,Female,1,2024/03/15_10:26:35,YZ,None,
,,,,,,calibration,0,2,2,2583,,,,,,,,0.0,0.0,1.0,0.0,0.0,0.0,0.43715686368038104,0,4,0,0,0,0,0,2,4,0,,93,150124,21,Female,1,2024/03/15_10:26:35,YZ,None,
,,,,,,Calibration,0,,2,2583,,,,,,,,,,,,,,,,,,,,,,,,,44,93,150124,21,Female,1,2024/03/15_10:26:35,YZ,None,
,,,,,,calibration,0,16,2,2583,1,F,0,left,0.6313134140218608,0,0,,,,,,,,,,,,,,,,,,,93,150124,21,Female,1,2024/03/15_10:26:35,YZ,None,
,,,,,,calibration,0,16,2,2583,2,F,0,left,0.4553987440012861,0,0,,,,,,,,,,,,,,,,,,,93,150124,21,Female,1,2024/03/15_10:26:35,YZ,None,
,,,,,,calibration,0,16,2,2583,3,Q,0,left,0.5234099630033597,0,0,,,,,,,,,,,,,,,,,,,93,150124,21,Female,1,2024/03/15_10:26:35,YZ,None,
,,,,,,calibration,0,16,2,2583,4,F,1,right,0.5120429939997848,0,0,,,,,,,,,,,,,,,,,,,93,150124,21,Female,1,2024/03/15_10:26:35,YZ,None,
,,,,,,calibration,0,16,2,2583,5,S,0,left,0.512505669001257,0,0,,,,,,,,,,,,,,,,,,,93,150124,21,Female,1,2024/03/15_10:26:35,YZ,None,
,,,,,,calibration,0,16,2,2583,6,F,1,left,0.6583414820197504,1,0,,,,,,,,,,,,,,,,,,,93,150124,21,Female,1,2024/03/15_10:26:35,YZ,None,
,,,,,,calibration,0,16,2,2583,,,,,,,,0.125,0.5,1.0,0.0,0.0,0.0,0.5488353776745498,1,4,0,0,0,0,1,2,4,0,,93,150124,21,Female,1,2024/03/15_10:26:35,YZ,None,
,,,,,,Calibration,0,,2,2583,,,,,,,,,,,,,,,,,,,,,,,,,45,93,150124,21,Female,1,2024/03/15_10:26:35,YZ,None,
,,,,,,calibration,0,33,2,2583,1,F,0,left,0.4345771920052357,0,0,,,,,,,,,,,,,,,,,,,93,150124,21,Female,1,2024/03/15_10:26:35,YZ,None,
,,,,,,calibration,0,33,2,2583,2,Q,0,left,0.339586555986898,0,0,,,,,,,,,,,,,,,,,,,93,150124,21,Female,1,2024/03/15_10:26:35,YZ,None,
,,,,,,calibration,0,33,2,2583,3,X,0,left,0.549518427986186,0,0,,,,,,,,,,,,,,,,,,,93,150124,21,Female,1,2024/03/15_10:26:35,YZ,None,
,,,,,,calibration,0,33,2,2583,4,Q,1,right,0.8492562979809009,0,0,,,,,,,,,,,,,,,,,,,93,150124,21,Female,1,2024/03/15_10:26:35,YZ,None,
,,,,,,calibration,0,33,2,2583,5,X,1,right,0.6576645259920042,0,0,,,,,,,,,,,,,,,,,,,93,150124,21,Female,1,2024/03/15_10:26:35,YZ,None,
,,,,,,calibration,0,33,2,2583,6,J,0,left,0.469265692983754,0,0,,,,,,,,,,,,,,,,,,,93,150124,21,Female,1,2024/03/15_10:26:35,YZ,None,
,,,,,,calibration,0,33,2,2583,,,,,,,,0.0,0.0,1.0,0.0,0.0,0.0,0.5499781154891631,0,4,0,0,0,0,0,2,4,0,,93,150124,21,Female,1,2024/03/15_10:26:35,YZ,None,
,,,,,,Calibration,0,,2,2583,,,,,,,,,,,,,,,,,,,,,,,,,46,93,150124,21,Female,1,2024/03/15_10:26:35,YZ,None,
,,,,,,calibration,0,30,2,2583,1,X,0,left,0.4795222830143757,0,0,,,,,,,,,,,,,,,,,,,93,150124,21,Female,1,2024/03/15_10:26:35,YZ,None,
,,,,,,calibration,0,30,2,2583,2,S,0,left,0.4007830040063709,0,0,,,,,,,,,,,,,,,,,,,93,150124,21,Female,1,2024/03/15_10:26:35,YZ,None,
,,,,,,calibration,0,30,2,2583,3,X,1,right,0.7414173290017061,0,0,,,,,,,,,,,,,,,,,,,93,150124,21,Female,1,2024/03/15_10:26:35,YZ,None,
,,,,,,calibration,0,30,2,2583,4,N,0,left,0.4375166950048879,0,0,,,,,,,,,,,,,,,,,,,93,150124,21,Female,1,2024/03/15_10:26:35,YZ,None,
,,,,,,calibration,0,30,2,2583,5,C,0,left,0.5429071109974757,0,0,,,,,,,,,,,,,,,,,,,93,150124,21,Female,1,2024/03/15_10:26:35,YZ,None,
,,,,,,calibration,0,30,2,2583,6,N,1,right,0.7105455690179951,0,0,,,,,,,,,,,,,,,,,,,93,150124,21,Female,1,2024/03/15_10:26:35,YZ,None,
,,,,,,calibration,0,30,2,2583,,,,,,,,0.0,0.0,1.0,0.0,0.0,0.0,0.5521153318404686,0,4,0,0,0,0,0,2,4,0,,93,150124,21,Female,1,2024/03/15_10:26:35,YZ,None,
,,,,,,Calibration,0,,2,2583,,,,,,,,,,,,,,,,,,,,,,,,,47,93,150124,21,Female,1,2024/03/15_10:26:35,YZ,None,
,,,,,,calibration,0,8,2,2583,1,S,0,left,0.46229848501388915,0,0,,,,,,,,,,,,,,,,,,,93,150124,21,Female,1,2024/03/15_10:26:35,YZ,None,
,,,,,,calibration,0,8,2,2583,2,X,0,left,0.5574215990200173,0,0,,,,,,,,,,,,,,,,,,,93,150124,21,Female,1,2024/03/15_10:26:35,YZ,None,
,,,,,,calibration,0,8,2,2583,3,S,1,left,0.5735715129994787,1,0,,,,,,,,,,,,,,,,,,,93,150124,21,Female,1,2024/03/15_10:26:35,YZ,None,
,,,,,,calibration,0,8,2,2583,4,J,0,left,0.9859209370042663,0,0,,,,,,,,,,,,,,,,,,,93,150124,21,Female,1,2024/03/15_10:26:35,YZ,None,
,,,,,,calibration,0,8,2,2583,5,V,0,left,0.8271345329994801,0,0,,,,,,,,,,,,,,,,,,,93,150124,21,Female,1,2024/03/15_10:26:35,YZ,None,
,,,,,,calibration,0,8,2,2583,6,J,1,right,0.7074944020132534,0,0,,,,,,,,,,,,,,,,,,,93,150124,21,Female,1,2024/03/15_10:26:35,YZ,None,
,,,,,,calibration,0,8,2,2583,,,,,,,,0.125,0.5,1.0,0.0,0.0,0.0,0.6856402448417308,1,4,0,0,0,0,1,2,4,0,,93,150124,21,Female,1,2024/03/15_10:26:35,YZ,None,
,,,,,,Calibration,0,,2,2583,,,,,,,,,,,,,,,,,,,,,,,,,48,93,150124,21,Female,1,2024/03/15_10:26:35,YZ,None,
,,,,,,calibration,0,27,2,2583,1,C,0,left,0.42682904400862753,0,0,,,,,,,,,,,,,,,,,,,93,150124,21,Female,1,2024/03/15_10:26:35,YZ,None,
,,,,,,calibration,0,27,2,2583,2,J,0,left,0.38591979298507795,0,0,,,,,,,,,,,,,,,,,,,93,150124,21,Female,1,2024/03/15_10:26:35,YZ,None,
,,,,,,calibration,0,27,2,2583,3,C,1,left,0.51270473698969,1,0,,,,,,,,,,,,,,,,,,,93,150124,21,Female,1,2024/03/15_10:26:35,YZ,None,
,,,,,,calibration,0,27,2,2583,4,S,0,left,0.7267962780024391,0,0,,,,,,,,,,,,,,,,,,,93,150124,21,Female,1,2024/03/15_10:26:35,YZ,None,
,,,,,,calibration,0,27,2,2583,5,C,1,right,0.7419348379771691,0,0,,,,,,,,,,,,,,,,,,,93,150124,21,Female,1,2024/03/15_10:26:35,YZ,None,
,,,,,,calibration,0,27,2,2583,6,N,0,left,0.45860506998724304,0,0,,,,,,,,,,,,,,,,,,,93,150124,21,Female,1,2024/03/15_10:26:35,YZ,None,
,,,,,,calibration,0,27,2,2583,,,,,,,,0.125,0.5,1.0,0.0,0.0,0.0,0.5421316266583744,1,4,0,0,0,0,1,2,4,0,,93,150124,21,Female,1,2024/03/15_10:26:35,YZ,None,
,,,,,,Calibration,0,,2,2583,,,,,,,,,,,,,,,,,,,,,,,,,49,93,150124,21,Female,1,2024/03/15_10:26:35,YZ,None,
,,,,,,calibration,0,28,2,2583,1,F,0,left,0.5878971290076151,0,0,,,,,,,,,,,,,,,,,,,93,150124,21,Female,1,2024/03/15_10:26:35,YZ,None,
,,,,,,calibration,0,28,2,2583,2,N,0,left,0.4379945530090481,0,0,,,,,,,,,,,,,,,,,,,93,150124,21,Female,1,2024/03/15_10:26:35,YZ,None,
,,,,,,calibration,0,28,2,2583,3,Q,0,left,0.5321322950185277,0,0,,,,,,,,,,,,,,,,,,,93,150124,21,Female,1,2024/03/15_10:26:35,YZ,None,
,,,,,,calibration,0,28,2,2583,4,N,1,right,0.4833002900122665,0,0,,,,,,,,,,,,,,,,,,,93,150124,21,Female,1,2024/03/15_10:26:35,YZ,None,
,,,,,,calibration,0,28,2,2583,5,Q,1,right,0.605858597002225,0,0,,,,,,,,,,,,,,,,,,,93,150124,21,Female,1,2024/03/15_10:26:35,YZ,None,
,,,,,,calibration,0,28,2,2583,6,V,0,left,0.7248441739939153,0,0,,,,,,,,,,,,,,,,,,,93,150124,21,Female,1,2024/03/15_10:26:35,YZ,None,
,,,,,,calibration,0,28,2,2583,,,,,,,,0.0,0.0,1.0,0.0,0.0,0.0,0.5620045063405996,0,4,0,0,0,0,0,2,4,0,,93,150124,21,Female,1,2024/03/15_10:26:35,YZ,None,
,,,,,,Calibration,0,,2,2583,,,,,,,,,,,,,,,,,,,,,,,,,50,93,150124,21,Female,1,2024/03/15_10:26:35,YZ,None,
,,,,,,calibration,0,2,2,2583,1,C,0,left,0.3778417499852367,0,0,,,,,,,,,,,,,,,,,,,93,150124,21,Female,1,2024/03/15_10:26:35,YZ,None,
,,,,,,calibration,0,2,2,2583,2,Q,0,left,0.3284656750038266,0,0,,,,,,,,,,,,,,,,,,,93,150124,21,Female,1,2024/03/15_10:26:35,YZ,None,
,,,,,,calibration,0,2,2,2583,3,C,1,right,0.7746853710268624,0,0,,,,,,,,,,,,,,,,,,,93,150124,21,Female,1,2024/03/15_10:26:35,YZ,None,
,,,,,,calibration,0,2,2,2583,4,Q,1,right,0.694583134027198,0,0,,,,,,,,,,,,,,,,,,,93,150124,21,Female,1,2024/03/15_10:26:35,YZ,None,
,,,,,,calibration,0,2,2,2583,5,X,0,left,0.5755768720118795,0,0,,,,,,,,,,,,,,,,,,,93,150124,21,Female,1,2024/03/15_10:26:35,YZ,None,
,,,,,,calibration,0,2,2,2583,6,N,0,left,0.5923185409919824,0,0,,,,,,,,,,,,,,,,,,,93,150124,21,Female,1,2024/03/15_10:26:35,YZ,None,
,,,,,,calibration,0,2,2,2583,,,,,,,,0.0,0.0,1.0,0.0,0.0,0.0,0.5572452238411643,0,4,0,0,0,0,0,2,4,0,,93,150124,21,Female,1,2024/03/15_10:26:35,YZ,None,
,,,,,,Calibration,0,,2,2583,,,,,,,,,,,,,,,,,,,,,,,,,51,93,150124,21,Female,1,2024/03/15_10:26:35,YZ,None,
,,,,,,calibration,0,27,2,2583,1,C,0,left,0.44658979098312557,0,0,,,,,,,,,,,,,,,,,,,93,150124,21,Female,1,2024/03/15_10:26:35,YZ,None,
,,,,,,calibration,0,27,2,2583,2,J,0,left,0.5654740509926341,0,0,,,,,,,,,,,,,,,,,,,93,150124,21,Female,1,2024/03/15_10:26:35,YZ,None,
,,,,,,calibration,0,27,2,2583,3,C,1,right,0.46874181099701673,0,0,,,,,,,,,,,,,,,,,,,93,150124,21,Female,1,2024/03/15_10:26:35,YZ,None,
,,,,,,calibration,0,27,2,2583,4,S,0,left,0.5454583420068957,0,0,,,,,,,,,,,,,,,,,,,93,150124,21,Female,1,2024/03/15_10:26:35,YZ,None,
,,,,,,calibration,0,27,2,2583,5,C,1,right,0.4746030789974611,0,0,,,,,,,,,,,,,,,,,,,93,150124,21,Female,1,2024/03/15_10:26:35,YZ,None,
,,,,,,calibration,0,27,2,2583,6,N,0,left,0.47549503701156937,0,0,,,,,,,,,,,,,,,,,,,93,150124,21,Female,1,2024/03/15_10:26:35,YZ,None,
,,,,,,calibration,0,27,2,2583,,,,,,,,0.0,0.0,1.0,0.0,0.0,0.0,0.4960603518314504,0,4,0,0,0,0,0,2,4,0,,93,150124,21,Female,1,2024/03/15_10:26:35,YZ,None,
,,,,,,Calibration,0,,2,2583,,,,,,,,,,,,,,,,,,,,,,,,,52,93,150124,21,Female,1,2024/03/15_10:26:35,YZ,None,
,,,,,,calibration,0,22,2,2583,1,F,0,left,0.38429685099981725,0,0,,,,,,,,,,,,,,,,,,,93,150124,21,Female,1,2024/03/15_10:26:35,YZ,None,
,,,,,,calibration,0,22,2,2583,2,X,0,left,0.37628267699619755,0,0,,,,,,,,,,,,,,,,,,,93,150124,21,Female,1,2024/03/15_10:26:35,YZ,None,
,,,,,,calibration,0,22,2,2583,3,Q,0,left,0.35948082999675535,0,0,,,,,,,,,,,,,,,,,,,93,150124,21,Female,1,2024/03/15_10:26:35,YZ,None,
,,,,,,calibration,0,22,2,2583,4,V,0,left,0.4657246569986455,0,0,,,,,,,,,,,,,,,,,,,93,150124,21,Female,1,2024/03/15_10:26:35,YZ,None,
,,,,,,calibration,0,22,2,2583,5,Q,1,right,0.5723369659972377,0,0,,,,,,,,,,,,,,,,,,,93,150124,21,Female,1,2024/03/15_10:26:35,YZ,None,
,,,,,,calibration,0,22,2,2583,6,V,1,left,0.3403072310029529,1,0,,,,,,,,,,,,,,,,,,,93,150124,21,Female,1,2024/03/15_10:26:35,YZ,None,
,,,,,,calibration,0,22,2,2583,,,,,,,,0.125,0.5,1.0,0.0,0.0,0.0,0.4164048686652677,1,4,0,0,0,0,1,2,4,0,,93,150124,21,Female,1,2024/03/15_10:26:35,YZ,None,
,,,,,,Calibration,0,,2,2583,,,,,,,,,,,,,,,,,,,,,,,,,53,93,150124,21,Female,1,2024/03/15_10:26:35,YZ,None,
,,,,,,calibration,0,32,2,2583,1,F,0,left,0.3593833979975898,0,0,,,,,,,,,,,,,,,,,,,93,150124,21,Female,1,2024/03/15_10:26:35,YZ,None,
,,,,,,calibration,0,32,2,2583,2,C,0,left,0.39185345999430865,0,0,,,,,,,,,,,,,,,,,,,93,150124,21,Female,1,2024/03/15_10:26:35,YZ,None,
,,,,,,calibration,0,32,2,2583,3,Q,0,left,0.5913714969938155,0,0,,,,,,,,,,,,,,,,,,,93,150124,21,Female,1,2024/03/15_10:26:35,YZ,None,
,,,,,,calibration,0,32,2,2583,4,C,1,right,0.6453190580068622,0,0,,,,,,,,,,,,,,,,,,,93,150124,21,Female,1,2024/03/15_10:26:35,YZ,None,
,,,,,,calibration,0,32,2,2583,5,S,0,left,0.5927209520014003,0,0,,,,,,,,,,,,,,,,,,,93,150124,21,Female,1,2024/03/15_10:26:35,YZ,None,
,,,,,,calibration,0,32,2,2583,6,C,1,right,0.6624919750029221,0,0,,,,,,,,,,,,,,,,,,,93,150124,21,Female,1,2024/03/15_10:26:35,YZ,None,
,,,,,,calibration,0,32,2,2583,,,,,,,,0.0,0.0,1.0,0.0,0.0,0.0,0.5405233899994831,0,4,0,0,0,0,0,2,4,0,,93,150124,21,Female,1,2024/03/15_10:26:35,YZ,None,
,,,,,,Calibration,0,,2,2583,,,,,,,,,,,,,,,,,,,,,,,,,54,93,150124,21,Female,1,2024/03/15_10:26:35,YZ,None,
,,,,,,calibration,0,8,2,2583,1,S,0,left,0.6869532779965084,0,0,,,,,,,,,,,,,,,,,,,93,150124,21,Female,1,2024/03/15_10:26:35,YZ,None,
,,,,,,calibration,0,8,2,2583,2,X,0,left,0.4998691890214104,0,0,,,,,,,,,,,,,,,,,,,93,150124,21,Female,1,2024/03/15_10:26:35,YZ,None,
,,,,,,calibration,0,8,2,2583,3,S,1,right,0.6646421939949505,0,0,,,,,,,,,,,,,,,,,,,93,150124,21,Female,1,2024/03/15_10:26:35,YZ,None,
,,,,,,calibration,0,8,2,2583,4,J,0,left,0.5784569940005895,0,0,,,,,,,,,,,,,,,,,,,93,150124,21,Female,1,2024/03/15_10:26:35,YZ,None,
,,,,,,calibration,0,8,2,2583,5,V,0,left,0.7090366259799339,0,0,,,,,,,,,,,,,,,,,,,93,150124,21,Female,1,2024/03/15_10:26:35,YZ,None,
,,,,,,calibration,0,8,2,2583,6,J,1,right,0.7585484360170085,0,0,,,,,,,,,,,,,,,,,,,93,150124,21,Female,1,2024/03/15_10:26:35,YZ,None,
,,,,,,calibration,0,8,2,2583,,,,,,,,0.0,0.0,1.0,0.0,0.0,0.0,0.6495844528350668,0,4,0,0,0,0,0,2,4,0,,93,150124,21,Female,1,2024/03/15_10:26:35,YZ,None,
,,,,,,Calibration,0,,2,2583,,,,,,,,,,,,,,,,,,,,,,,,,55,93,150124,21,Female,1,2024/03/15_10:26:35,YZ,None,
,,,,,,calibration,0,24,2,2583,1,V,0,left,0.6049967699800618,0,0,,,,,,,,,,,,,,,,,,,93,150124,21,Female,1,2024/03/15_10:26:35,YZ,None,
,,,,,,calibration,0,24,2,2583,2,X,0,left,0.415570169017883,0,0,,,,,,,,,,,,,,,,,,,93,150124,21,Female,1,2024/03/15_10:26:35,YZ,None,
,,,,,,calibration,0,24,2,2583,3,V,1,right,0.6252186239871662,0,0,,,,,,,,,,,,,,,,,,,93,150124,21,Female,1,2024/03/15_10:26:35,YZ,None,
,,,,,,calibration,0,24,2,2583,4,X,1,right,0.7576867480238434,0,0,,,,,,,,,,,,,,,,,,,93,150124,21,Female,1,2024/03/15_10:26:35,YZ,None,
,,,,,,calibration,0,24,2,2583,5,N,0,left,0.45152319900807925,0,0,,,,,,,,,,,,,,,,,,,93,150124,21,Female,1,2024/03/15_10:26:35,YZ,None,
,,,,,,calibration,0,24,2,2583,6,J,0,left,0.5678113230096642,0,0,,,,,,,,,,,,,,,,,,,93,150124,21,Female,1,2024/03/15_10:26:35,YZ,None,
,,,,,,calibration,0,24,2,2583,,,,,,,,0.0,0.0,1.0,0.0,0.0,0.0,0.5704678055044496,0,4,0,0,0,0,0,2,4,0,,93,150124,21,Female,1,2024/03/15_10:26:35,YZ,None,
,,,,,,Calibration,0,,2,2583,,,,,,,,,,,,,,,,,,,,,,,,,56,93,150124,21,Female,1,2024/03/15_10:26:35,YZ,None,
,,,,,,calibration,0,12,2,2583,1,F,0,left,0.3857019529968966,0,0,,,,,,,,,,,,,,,,,,,93,150124,21,Female,1,2024/03/15_10:26:35,YZ,None,
,,,,,,calibration,0,12,2,2583,2,F,0,left,0.512250989995664,0,0,,,,,,,,,,,,,,,,,,,93,150124,21,Female,1,2024/03/15_10:26:35,YZ,None,
,,,,,,calibration,0,12,2,2583,3,C,0,left,0.6005016790004447,0,0,,,,,,,,,,,,,,,,,,,93,150124,21,Female,1,2024/03/15_10:26:35,YZ,None,
,,,,,,calibration,0,12,2,2583,4,F,1,right,0.557997587020509,0,0,,,,,,,,,,,,,,,,,,,93,150124,21,Female,1,2024/03/15_10:26:35,YZ,None,
,,,,,,calibration,0,12,2,2583,5,C,1,right,0.585511413984932,0,0,,,,,,,,,,,,,,,,,,,93,150124,21,Female,1,2024/03/15_10:26:35,YZ,None,
,,,,,,calibration,0,12,2,2583,6,V,0,left,0.4864471459877677,0,0,,,,,,,,,,,,,,,,,,,93,150124,21,Female,1,2024/03/15_10:26:35,YZ,None,
,,,,,,calibration,0,12,2,2583,,,,,,,,0.0,0.0,1.0,0.0,0.0,0.0,0.5214017948310357,0,4,0,0,0,0,0,2,4,0,,93,150124,21,Female,1,2024/03/15_10:26:35,YZ,None,
,,,,,,Calibration,0,,2,2583,,,,,,,,,,,,,,,,,,,,,,,,,57,93,150124,21,Female,1,2024/03/15_10:26:35,YZ,None,
,,,,,,calibration,0,9,2,2583,1,S,0,left,0.5175879879971035,0,0,,,,,,,,,,,,,,,,,,,93,150124,21,Female,1,2024/03/15_10:26:35,YZ,None,
,,,,,,calibration,0,9,2,2583,2,V,0,left,0.34221972100203857,0,0,,,,,,,,,,,,,,,,,,,93,150124,21,Female,1,2024/03/15_10:26:35,YZ,None,
,,,,,,calibration,0,9,2,2583,3,X,0,left,0.5433410759724211,0,0,,,,,,,,,,,,,,,,,,,93,150124,21,Female,1,2024/03/15_10:26:35,YZ,None,
,,,,,,calibration,0,9,2,2583,4,S,0,right,0.46493793500121683,1,0,,,,,,,,,,,,,,,,,,,93,150124,21,Female,1,2024/03/15_10:26:35,YZ,None,
,,,,,,calibration,0,9,2,2583,5,X,1,right,0.5664494959928561,0,0,,,,,,,,,,,,,,,,,,,93,150124,21,Female,1,2024/03/15_10:26:35,YZ,None,
,,,,,,calibration,0,9,2,2583,6,S,1,right,0.4580526459903922,0,0,,,,,,,,,,,,,,,,,,,93,150124,21,Female,1,2024/03/15_10:26:35,YZ,None,
,,,,,,calibration,0,9,2,2583,,,,,,,,0.0625,0.0,0.75,0.25,0.0,0.25,0.48209814365933806,0,3,0,0,0,1,1,2,4,0,,93,150124,21,Female,1,2024/03/15_10:26:35,YZ,None,
,,,,,,Calibration,0,,2,2583,,,,,,,,,,,,,,,,,,,,,,,,,58,93,150124,21,Female,1,2024/03/15_10:26:35,YZ,None,
,,,,,,calibration,0,28,2,2583,1,F,0,left,0.3864190839813091,0,0,,,,,,,,,,,,,,,,,,,93,150124,21,Female,1,2024/03/15_10:26:35,YZ,None,
,,,,,,calibration,0,28,2,2583,2,N,0,left,0.3729684650024865,0,0,,,,,,,,,,,,,,,,,,,93,150124,21,Female,1,2024/03/15_10:26:35,YZ,None,
,,,,,,calibration,0,28,2,2583,3,Q,0,left,0.4258725149848033,0,0,,,,,,,,,,,,,,,,,,,93,150124,21,Female,1,2024/03/15_10:26:35,YZ,None,
,,,,,,calibration,0,28,2,2583,4,N,1,left,0.3888723480049521,1,0,,,,,,,,,,,,,,,,,,,93,150124,21,Female,1,2024/03/15_10:26:35,YZ,None,
,,,,,,calibration,0,28,2,2583,5,Q,1,right,0.8434066819900181,0,0,,,,,,,,,,,,,,,,,,,93,150124,21,Female,1,2024/03/15_10:26:35,YZ,None,
,,,,,,calibration,0,28,2,2583,6,V,0,left,0.5689162100024987,0,0,,,,,,,,,,,,,,,,,,,93,150124,21,Female,1,2024/03/15_10:26:35,YZ,None,
,,,,,,calibration,0,28,2,2583,,,,,,,,0.125,0.5,1.0,0.0,0.0,0.0,0.4977425506610113,1,4,0,0,0,0,1,2,4,0,,93,150124,21,Female,1,2024/03/15_10:26:35,YZ,None,
,,,,,,Calibration,0,,2,2583,,,,,,,,,,,,,,,,,,,,,,,,,59,93,150124,21,Female,1,2024/03/15_10:26:35,YZ,None,
,,,,,,calibration,0,24,2,2583,1,V,0,left,0.4257727680087555,0,0,,,,,,,,,,,,,,,,,,,93,150124,21,Female,1,2024/03/15_10:26:35,YZ,None,
,,,,,,calibration,0,24,2,2583,2,X,0,left,0.4687700039939955,0,0,,,,,,,,,,,,,,,,,,,93,150124,21,Female,1,2024/03/15_10:26:35,YZ,None,
,,,,,,calibration,0,24,2,2583,3,V,1,right,0.6304471170005854,0,0,,,,,,,,,,,,,,,,,,,93,150124,21,Female,1,2024/03/15_10:26:35,YZ,None,
,,,,,,calibration,0,24,2,2583,4,X,1,right,0.4879404180101119,0,0,,,,,,,,,,,,,,,,,,,93,150124,21,Female,1,2024/03/15_10:26:35,YZ,None,
,,,,,,calibration,0,24,2,2583,5,N,0,left,0.7087563939858228,0,0,,,,,,,,,,,,,,,,,,,93,150124,21,Female,1,2024/03/15_10:26:35,YZ,None,
,,,,,,calibration,0,24,2,2583,6,J,0,left,0.5684038299950771,0,0,,,,,,,,,,,,,,,,,,,93,150124,21,Female,1,2024/03/15_10:26:35,YZ,None,
,,,,,,calibration,0,24,2,2583,,,,,,,,0.0,0.0,1.0,0.0,0.0,0.0,0.5483484218323914,0,4,0,0,0,0,0,2,4,0,,93,150124,21,Female,1,2024/03/15_10:26:35,YZ,None,
,,,,,,Calibration,0,,2,2583,,,,,,,,,,,,,,,,,,,,,,,,,60,93,150124,21,Female,1,2024/03/15_10:26:35,YZ,None,
,,,,,,calibration,0,7,2,2583,1,Q,0,left,0.37349525798344985,0,0,,,,,,,,,,,,,,,,,,,93,150124,21,Female,1,2024/03/15_10:26:35,YZ,None,
,,,,,,calibration,0,7,2,2583,2,C,0,left,0.38501249501132406,0,0,,,,,,,,,,,,,,,,,,,93,150124,21,Female,1,2024/03/15_10:26:35,YZ,None,
,,,,,,calibration,0,7,2,2583,3,S,0,left,0.4321446909743827,0,0,,,,,,,,,,,,,,,,,,,93,150124,21,Female,1,2024/03/15_10:26:35,YZ,None,
,,,,,,calibration,0,7,2,2583,4,J,0,left,0.5427140909887385,0,0,,,,,,,,,,,,,,,,,,,93,150124,21,Female,1,2024/03/15_10:26:35,YZ,None,
,,,,,,calibration,0,7,2,2583,5,S,1,right,0.5350376020069234,0,0,,,,,,,,,,,,,,,,,,,93,150124,21,Female,1,2024/03/15_10:26:35,YZ,None,
,,,,,,calibration,0,7,2,2583,6,J,1,right,0.4101310480036773,0,0,,,,,,,,,,,,,,,,,,,93,150124,21,Female,1,2024/03/15_10:26:35,YZ,None,
,,,,,,calibration,0,7,2,2583,,,,,,,,0.0,0.0,1.0,0.0,0.0,0.0,0.44642253082808264,0,4,0,0,0,0,0,2,4,0,,93,150124,21,Female,1,2024/03/15_10:26:35,YZ,None,
,,,,,,Calibration,0,,2,2583,,,,,,,,,,,,,,,,,,,,,,,,,61,93,150124,21,Female,1,2024/03/15_10:26:35,YZ,None,
,,,,,,calibration,0,26,2,2583,1,J,0,left,0.5595961609797087,0,0,,,,,,,,,,,,,,,,,,,93,150124,21,Female,1,2024/03/15_10:26:35,YZ,None,
,,,,,,calibration,0,26,2,2583,2,Q,0,left,0.3990579800156411,0,0,,,,,,,,,,,,,,,,,,,93,150124,21,Female,1,2024/03/15_10:26:35,YZ,None,
,,,,,,calibration,0,26,2,2583,3,F,0,left,0.49700579498312436,0,0,,,,,,,,,,,,,,,,,,,93,150124,21,Female,1,2024/03/15_10:26:35,YZ,None,
,,,,,,calibration,0,26,2,2583,4,Q,1,right,0.8598742889880668,0,0,,,,,,,,,,,,,,,,,,,93,150124,21,Female,1,2024/03/15_10:26:35,YZ,None,
,,,,,,calibration,0,26,2,2583,5,F,1,left,0.5389365699957125,1,0,,,,,,,,,,,,,,,,,,,93,150124,21,Female,1,2024/03/15_10:26:35,YZ,None,
,,,,,,calibration,0,26,2,2583,6,V,0,left,0.7582633359997999,0,0,,,,,,,,,,,,,,,,,,,93,150124,21,Female,1,2024/03/15_10:26:35,YZ,None,
,,,,,,calibration,0,26,2,2583,,,,,,,,0.125,0.5,1.0,0.0,0.0,0.0,0.6021223551603422,1,4,0,0,0,0,1,2,4,0,,93,150124,21,Female,1,2024/03/15_10:26:35,YZ,None,
,,,,,,Calibration,0,,2,2583,,,,,,,,,,,,,,,,,,,,,,,,,62,93,150124,21,Female,1,2024/03/15_10:26:35,YZ,None,
,,,,,,calibration,0,30,2,2583,1,X,0,left,0.4645481840125285,0,0,,,,,,,,,,,,,,,,,,,93,150124,21,Female,1,2024/03/15_10:26:35,YZ,None,
,,,,,,calibration,0,30,2,2583,2,S,0,left,0.34867484401911497,0,0,,,,,,,,,,,,,,,,,,,93,150124,21,Female,1,2024/03/15_10:26:35,YZ,None,
,,,,,,calibration,0,30,2,2583,3,X,1,right,0.3940015030093491,0,0,,,,,,,,,,,,,,,,,,,93,150124,21,Female,1,2024/03/15_10:26:35,YZ,None,
,,,,,,calibration,0,30,2,2583,4,N,0,left,0.4481727120000869,0,0,,,,,,,,,,,,,,,,,,,93,150124,21,Female,1,2024/03/15_10:26:35,YZ,None,
,,,,,,calibration,0,30,2,2583,5,C,0,left,0.5435443129972555,0,0,,,,,,,,,,,,,,,,,,,93,150124,21,Female,1,2024/03/15_10:26:35,YZ,None,
,,,,,,calibration,0,30,2,2583,6,N,1,right,0.7017683470039628,0,0,,,,,,,,,,,,,,,,,,,93,150124,21,Female,1,2024/03/15_10:26:35,YZ,None,
,,,,,,calibration,0,30,2,2583,,,,,,,,0.0,0.0,1.0,0.0,0.0,0.0,0.48345165050704964,0,4,0,0,0,0,0,2,4,0,,93,150124,21,Female,1,2024/03/15_10:26:35,YZ,None,
,,,,,,Calibration,0,,2,2583,,,,,,,,,,,,,,,,,,,,,,,,,63,93,150124,21,Female,1,2024/03/15_10:26:35,YZ,None,
,,,,,,calibration,0,23,2,2583,1,X,0,left,0.4943599940161221,0,0,,,,,,,,,,,,,,,,,,,93,150124,21,Female,1,2024/03/15_10:26:35,YZ,None,
,,,,,,calibration,0,23,2,2583,2,C,0,left,0.31628173700300977,0,0,,,,,,,,,,,,,,,,,,,93,150124,21,Female,1,2024/03/15_10:26:35,YZ,None,
,,,,,,calibration,0,23,2,2583,3,X,1,right,0.48095890201511793,0,0,,,,,,,,,,,,,,,,,,,93,150124,21,Female,1,2024/03/15_10:26:35,YZ,None,
,,,,,,calibration,0,23,2,2583,4,C,1,right,0.7576697869808413,0,0,,,,,,,,,,,,,,,,,,,93,150124,21,Female,1,2024/03/15_10:26:35,YZ,None,
,,,,,,calibration,0,23,2,2583,5,S,0,left,0.6053024880238809,0,0,,,,,,,,,,,,,,,,,,,93,150124,21,Female,1,2024/03/15_10:26:35,YZ,None,
,,,,,,calibration,0,23,2,2583,6,J,0,left,0.601973529002862,0,0,,,,,,,,,,,,,,,,,,,93,150124,21,Female,1,2024/03/15_10:26:35,YZ,None,
,,,,,,calibration,0,23,2,2583,,,,,,,,0.0,0.0,1.0,0.0,0.0,0.0,0.5427577395069724,0,4,0,0,0,0,0,2,4,0,,93,150124,21,Female,1,2024/03/15_10:26:35,YZ,None,
,,,,,,Calibration,0,,2,2583,,,,,,,,,,,,,,,,,,,,,,,,,64,93,150124,21,Female,1,2024/03/15_10:26:35,YZ,None,
,,,,,,calibration,0,33,2,2583,1,F,0,left,0.1458917520067189,0,0,,,,,,,,,,,,,,,,,,,93,150124,21,Female,1,2024/03/15_10:26:35,YZ,None,
,,,,,,calibration,0,33,2,2583,2,Q,0,left,0.38084294702275656,0,0,,,,,,,,,,,,,,,,,,,93,150124,21,Female,1,2024/03/15_10:26:35,YZ,None,
,,,,,,calibration,0,33,2,2583,3,X,0,left,0.45595407698419876,0,0,,,,,,,,,,,,,,,,,,,93,150124,21,Female,1,2024/03/15_10:26:35,YZ,None,
,,,,,,calibration,0,33,2,2583,4,Q,1,right,0.5119174479914363,0,0,,,,,,,,,,,,,,,,,,,93,150124,21,Female,1,2024/03/15_10:26:35,YZ,None,
,,,,,,calibration,0,33,2,2583,5,X,1,right,0.7169920610031113,0,0,,,,,,,,,,,,,,,,,,,93,150124,21,Female,1,2024/03/15_10:26:35,YZ,None,
,,,,,,calibration,0,33,2,2583,6,J,0,left,0.5406563740107231,0,0,,,,,,,,,,,,,,,,,,,93,150124,21,Female,1,2024/03/15_10:26:35,YZ,None,
,,,,,,calibration,0,33,2,2583,,,,,,,,0.0,0.0,1.0,0.0,0.0,0.0,0.4587091098364908,0,4,0,0,0,0,0,2,4,0,,93,150124,21,Female,1,2024/03/15_10:26:35,YZ,None,
,,,,,,Calibration,0,,2,2583,,,,,,,,,,,,,,,,,,,,,,,,,65,93,150124,21,Female,1,2024/03/15_10:26:35,YZ,None,
,,,,,,calibration,0,6,2,2583,1,N,0,left,0.3233816899883095,0,0,,,,,,,,,,,,,,,,,,,93,150124,21,Female,1,2024/03/15_10:26:35,YZ,None,
,,,,,,calibration,0,6,2,2583,2,J,0,left,0.45625282800756395,0,0,,,,,,,,,,,,,,,,,,,93,150124,21,Female,1,2024/03/15_10:26:35,YZ,None,
,,,,,,calibration,0,6,2,2583,3,N,1,right,0.7606882019899786,0,0,,,,,,,,,,,,,,,,,,,93,150124,21,Female,1,2024/03/15_10:26:35,YZ,None,
,,,,,,calibration,0,6,2,2583,4,C,0,left,0.41983888499089517,0,0,,,,,,,,,,,,,,,,,,,93,150124,21,Female,1,2024/03/15_10:26:35,YZ,None,
,,,,,,calibration,0,6,2,2583,5,F,0,left,0.5417764089943375,0,0,,,,,,,,,,,,,,,,,,,93,150124,21,Female,1,2024/03/15_10:26:35,YZ,None,
,,,,,,calibration,0,6,2,2583,6,C,1,left,0.9532469840196427,1,0,,,,,,,,,,,,,,,,,,,93,150124,21,Female,1,2024/03/15_10:26:35,YZ,None,
,,,,,,calibration,0,6,2,2583,,,,,,,,0.125,0.5,1.0,0.0,0.0,0.0,0.5758641663317879,1,4,0,0,0,0,1,2,4,0,,93,150124,21,Female,1,2024/03/15_10:26:35,YZ,None,
,,,,,,Calibration,0,,2,2583,,,,,,,,,,,,,,,,,,,,,,,,,66,93,150124,21,Female,1,2024/03/15_10:26:35,YZ,None,
,,,,,,calibration,0,33,2,2583,1,F,0,left,0.4789363610034343,0,0,,,,,,,,,,,,,,,,,,,93,150124,21,Female,1,2024/03/15_10:26:35,YZ,None,
,,,,,,calibration,0,33,2,2583,2,Q,0,left,0.36480157502228394,0,0,,,,,,,,,,,,,,,,,,,93,150124,21,Female,1,2024/03/15_10:26:35,YZ,None,
,,,,,,calibration,0,33,2,2583,3,X,0,left,0.45947456400608644,0,0,,,,,,,,,,,,,,,,,,,93,150124,21,Female,1,2024/03/15_10:26:35,YZ,None,
,,,,,,calibration,0,33,2,2583,4,Q,1,right,0.5711238229996525,0,0,,,,,,,,,,,,,,,,,,,93,150124,21,Female,1,2024/03/15_10:26:35,YZ,None,
,,,,,,calibration,0,33,2,2583,5,X,1,left,0.3960669020016212,1,0,,,,,,,,,,,,,,,,,,,93,150124,21,Female,1,2024/03/15_10:26:35,YZ,None,
,,,,,,calibration,0,33,2,2583,6,J,0,left,0.5434341710060835,0,0,,,,,,,,,,,,,,,,,,,93,150124,21,Female,1,2024/03/15_10:26:35,YZ,None,
,,,,,,calibration,0,33,2,2583,,,,,,,,0.125,0.5,1.0,0.0,0.0,0.0,0.4689728993398603,1,4,0,0,0,0,1,2,4,0,,93,150124,21,Female,1,2024/03/15_10:26:35,YZ,None,
,,,,,,Calibration,0,,2,2583,,,,,,,,,,,,,,,,,,,,,,,,,67,93,150124,21,Female,1,2024/03/15_10:26:35,YZ,None,
,,,,,,calibration,0,12,2,2583,1,F,0,left,0.36183575200266205,0,0,,,,,,,,,,,,,,,,,,,93,150124,21,Female,1,2024/03/15_10:26:35,YZ,None,
,,,,,,calibration,0,12,2,2583,2,F,0,left,0.48468862802837975,0,0,,,,,,,,,,,,,,,,,,,93,150124,21,Female,1,2024/03/15_10:26:35,YZ,None,
,,,,,,calibration,0,12,2,2583,3,C,0,left,0.7171654610137921,0,0,,,,,,,,,,,,,,,,,,,93,150124,21,Female,1,2024/03/15_10:26:35,YZ,None,
,,,,,,calibration,0,12,2,2583,4,F,1,right,0.6744327750056982,0,0,,,,,,,,,,,,,,,,,,,93,150124,21,Female,1,2024/03/15_10:26:35,YZ,None,
,,,,,,calibration,0,12,2,2583,5,C,1,right,0.6925728130154312,0,0,,,,,,,,,,,,,,,,,,,93,150124,21,Female,1,2024/03/15_10:26:35,YZ,None,
,,,,,,calibration,0,12,2,2583,6,V,0,left,0.49713157399673946,0,0,,,,,,,,,,,,,,,,,,,93,150124,21,Female,1,2024/03/15_10:26:35,YZ,None,
,,,,,,calibration,0,12,2,2583,,,,,,,,0.0,0.0,1.0,0.0,0.0,0.0,0.5713045005104505,0,4,0,0,0,0,0,2,4,0,,93,150124,21,Female,1,2024/03/15_10:26:35,YZ,None,
,,,,,,Calibration,0,,2,2583,,,,,,,,,,,,,,,,,,,,,,,,,68,93,150124,21,Female,1,2024/03/15_10:26:35,YZ,None,
,,,,,,calibration,0,29,2,2583,1,J,0,left,0.4412389589997474,0,0,,,,,,,,,,,,,,,,,,,93,150124,21,Female,1,2024/03/15_10:26:35,YZ,None,
,,,,,,calibration,0,29,2,2583,2,Q,0,left,0.5462930639914703,0,0,,,,,,,,,,,,,,,,,,,93,150124,21,Female,1,2024/03/15_10:26:35,YZ,None,
,,,,,,calibration,0,29,2,2583,3,X,0,left,0.6751677400025073,0,0,,,,,,,,,,,,,,,,,,,93,150124,21,Female,1,2024/03/15_10:26:35,YZ,None,
,,,,,,calibration,0,29,2,2583,4,Q,1,right,0.37992861500242725,0,0,,,,,,,,,,,,,,,,,,,93,150124,21,Female,1,2024/03/15_10:26:35,YZ,None,
,,,,,,calibration,0,29,2,2583,5,N,0,left,0.4805926700064447,0,0,,,,,,,,,,,,,,,,,,,93,150124,21,Female,1,2024/03/15_10:26:35,YZ,None,
,,,,,,calibration,0,29,2,2583,6,Q,1,right,0.5440120359999128,0,0,,,,,,,,,,,,,,,,,,,93,150124,21,Female,1,2024/03/15_10:26:35,YZ,None,
,,,,,,calibration,0,29,2,2583,,,,,,,,0.0,0.0,1.0,0.0,0.0,0.0,0.5112055140004182,0,4,0,0,0,0,0,2,4,0,,93,150124,21,Female,1,2024/03/15_10:26:35,YZ,None,
,,,,,,Calibration,0,,2,2583,,,,,,,,,,,,,,,,,,,,,,,,,69,93,150124,21,Female,1,2024/03/15_10:26:35,YZ,None,
,,,,,,calibration,0,7,2,2583,1,Q,0,left,1.442428567999741,0,0,,,,,,,,,,,,,,,,,,,93,150124,21,Female,1,2024/03/15_10:26:35,YZ,None,
,,,,,,calibration,0,7,2,2583,2,C,0,left,0.4636183549882844,0,0,,,,,,,,,,,,,,,,,,,93,150124,21,Female,1,2024/03/15_10:26:35,YZ,None,
,,,,,,calibration,0,7,2,2583,3,S,0,left,0.6904320269823074,0,0,,,,,,,,,,,,,,,,,,,93,150124,21,Female,1,2024/03/15_10:26:35,YZ,None,
,,,,,,calibration,0,7,2,2583,4,J,0,left,0.5744177569868043,0,0,,,,,,,,,,,,,,,,,,,93,150124,21,Female,1,2024/03/15_10:26:35,YZ,None,
,,,,,,calibration,0,7,2,2583,5,S,1,right,0.44793096400098875,0,0,,,,,,,,,,,,,,,,,,,93,150124,21,Female,1,2024/03/15_10:26:35,YZ,None,
,,,,,,calibration,0,7,2,2583,6,J,1,right,0.54834545601625,0,0,,,,,,,,,,,,,,,,,,,93,150124,21,Female,1,2024/03/15_10:26:35,YZ,None,
,,,,,,calibration,0,7,2,2583,,,,,,,,0.0,0.0,1.0,0.0,0.0,0.0,0.6945288544957293,0,4,0,0,0,0,0,2,4,0,,93,150124,21,Female,1,2024/03/15_10:26:35,YZ,None,
,,,,,,Calibration,0,,2,2583,,,,,,,,,,,,,,,,,,,,,,,,,70,93,150124,21,Female,1,2024/03/15_10:26:35,YZ,None,
,,,,,,calibration,0,13,2,2583,1,F,0,left,0.35087715499685146,0,0,,,,,,,,,,,,,,,,,,,93,150124,21,Female,1,2024/03/15_10:26:35,YZ,None,
,,,,,,calibration,0,13,2,2583,2,J,0,left,0.37576872698264197,0,0,,,,,,,,,,,,,,,,,,,93,150124,21,Female,1,2024/03/15_10:26:35,YZ,None,
,,,,,,calibration,0,13,2,2583,3,F,1,right,0.5601653999765404,0,0,,,,,,,,,,,,,,,,,,,93,150124,21,Female,1,2024/03/15_10:26:35,YZ,None,
,,,,,,calibration,0,13,2,2583,4,N,0,left,0.7429932249942794,0,0,,,,,,,,,,,,,,,,,,,93,150124,21,Female,1,2024/03/15_10:26:35,YZ,None,
,,,,,,calibration,0,13,2,2583,5,F,1,right,0.6318508590047713,0,0,,,,,,,,,,,,,,,,,,,93,150124,21,Female,1,2024/03/15_10:26:35,YZ,None,
,,,,,,calibration,0,13,2,2583,6,V,0,left,0.5477202530018985,0,0,,,,,,,,,,,,,,,,,,,93,150124,21,Female,1,2024/03/15_10:26:35,YZ,None,
,,,,,,calibration,0,13,2,2583,,,,,,,,0.0,0.0,1.0,0.0,0.0,0.0,0.5348959364928305,0,4,0,0,0,0,0,2,4,0,,93,150124,21,Female,1,2024/03/15_10:26:35,YZ,None,
,,,,,,Calibration,0,,2,2583,,,,,,,,,,,,,,,,,,,,,,,,,71,93,150124,21,Female,1,2024/03/15_10:26:35,YZ,None,
,,,,,,calibration,0,9,2,2583,1,S,0,left,0.4094721300061792,0,0,,,,,,,,,,,,,,,,,,,93,150124,21,Female,1,2024/03/15_10:26:35,YZ,None,
,,,,,,calibration,0,9,2,2583,2,V,0,left,0.4157193980063312,0,0,,,,,,,,,,,,,,,,,,,93,150124,21,Female,1,2024/03/15_10:26:35,YZ,None,
,,,,,,calibration,0,9,2,2583,3,X,0,left,0.4841996330069378,0,0,,,,,,,,,,,,,,,,,,,93,150124,21,Female,1,2024/03/15_10:26:35,YZ,None,
,,,,,,calibration,0,9,2,2583,4,S,0,left,1.5011139080161229,0,0,,,,,,,,,,,,,,,,,,,93,150124,21,Female,1,2024/03/15_10:26:35,YZ,None,
,,,,,,calibration,0,9,2,2583,5,X,1,right,0.6425348799966741,0,0,,,,,,,,,,,,,,,,,,,93,150124,21,Female,1,2024/03/15_10:26:35,YZ,None,
,,,,,,calibration,0,9,2,2583,6,S,1,left,0.919274674000917,1,0,,,,,,,,,,,,,,,,,,,93,150124,21,Female,1,2024/03/15_10:26:35,YZ,None,
,,,,,,calibration,0,9,2,2583,,,,,,,,0.125,0.5,1.0,0.0,0.0,0.0,0.7287191038388604,1,4,0,0,0,0,1,2,4,0,,93,150124,21,Female,1,2024/03/15_10:26:35,YZ,None,
,,,,,,Calibration,0,,2,2583,,,,,,,,,,,,,,,,,,,,,,,,,72,93,150124,21,Female,1,2024/03/15_10:26:35,YZ,None,
,,,,,,calibration,0,4,2,2583,1,V,0,left,0.5934980310266837,0,0,,,,,,,,,,,,,,,,,,,93,150124,21,Female,1,2024/03/15_10:26:35,YZ,None,
,,,,,,calibration,0,4,2,2583,2,S,0,left,0.5943030250200536,0,0,,,,,,,,,,,,,,,,,,,93,150124,21,Female,1,2024/03/15_10:26:35,YZ,None,
,,,,,,calibration,0,4,2,2583,3,F,0,left,0.8093994320079219,0,0,,,,,,,,,,,,,,,,,,,93,150124,21,Female,1,2024/03/15_10:26:35,YZ,None,
,,,,,,calibration,0,4,2,2583,4,J,0,left,0.6584746139997151,0,0,,,,,,,,,,,,,,,,,,,93,150124,21,Female,1,2024/03/15_10:26:35,YZ,None,
,,,,,,calibration,0,4,2,2583,5,F,1,right,0.4872457740129903,0,0,,,,,,,,,,,,,,,,,,,93,150124,21,Female,1,2024/03/15_10:26:35,YZ,None,
,,,,,,calibration,0,4,2,2583,6,J,1,right,0.6667140380013734,0,0,,,,,,,,,,,,,,,,,,,93,150124,21,Female,1,2024/03/15_10:26:35,YZ,None,
,,,,,,calibration,0,4,2,2583,,,,,,,,0.0,0.0,1.0,0.0,0.0,0.0,0.6349391523447897,0,4,0,0,0,0,0,2,4,0,,93,150124,21,Female,1,2024/03/15_10:26:35,YZ,None,
,,,,,,Calibration,0,,2,2583,,,,,,,,,,,,,,,,,,,,,,,,,73,93,150124,21,Female,1,2024/03/15_10:26:35,YZ,None,
,,,,,,calibration,0,3,2,2583,1,X,0,left,0.5465832999907434,0,0,,,,,,,,,,,,,,,,,,,93,150124,21,Female,1,2024/03/15_10:26:35,YZ,None,
,,,,,,calibration,0,3,2,2583,2,N,0,left,0.345171091001248,0,0,,,,,,,,,,,,,,,,,,,93,150124,21,Female,1,2024/03/15_10:26:35,YZ,None,
,,,,,,calibration,0,3,2,2583,3,V,0,left,0.4843677610042505,0,0,,,,,,,,,,,,,,,,,,,93,150124,21,Female,1,2024/03/15_10:26:35,YZ,None,
,,,,,,calibration,0,3,2,2583,4,N,1,right,0.6692475140152965,0,0,,,,,,,,,,,,,,,,,,,93,150124,21,Female,1,2024/03/15_10:26:35,YZ,None,
,,,,,,calibration,0,3,2,2583,5,S,0,left,0.5578732480062172,0,0,,,,,,,,,,,,,,,,,,,93,150124,21,Female,1,2024/03/15_10:26:35,YZ,None,
,,,,,,calibration,0,3,2,2583,6,N,1,right,0.7020682040019892,0,0,,,,,,,,,,,,,,,,,,,93,150124,21,Female,1,2024/03/15_10:26:35,YZ,None,
,,,,,,calibration,0,3,2,2583,,,,,,,,0.0,0.0,1.0,0.0,0.0,0.0,0.5508851863366241,0,4,0,0,0,0,0,2,4,0,,93,150124,21,Female,1,2024/03/15_10:26:35,YZ,None,
,,,,,,Calibration,0,,2,2583,,,,,,,,,,,,,,,,,,,,,,,,,74,93,150124,21,Female,1,2024/03/15_10:26:35,YZ,None,
,,,,,,calibration,0,34,2,2583,1,F,0,left,0.6150551539903972,0,0,,,,,,,,,,,,,,,,,,,93,150124,21,Female,1,2024/03/15_10:26:35,YZ,None,
,,,,,,calibration,0,34,2,2583,2,J,0,left,0.38387876297929324,0,0,,,,,,,,,,,,,,,,,,,93,150124,21,Female,1,2024/03/15_10:26:35,YZ,None,
,,,,,,calibration,0,34,2,2583,3,C,0,left,0.5370577790017705,0,0,,,,,,,,,,,,,,,,,,,93,150124,21,Female,1,2024/03/15_10:26:35,YZ,None,
,,,,,,calibration,0,34,2,2583,4,N,0,left,0.8477400510164443,0,0,,,,,,,,,,,,,,,,,,,93,150124,21,Female,1,2024/03/15_10:26:35,YZ,None,
,,,,,,calibration,0,34,2,2583,5,C,1,right,0.7325920680013951,0,0,,,,,,,,,,,,,,,,,,,93,150124,21,Female,1,2024/03/15_10:26:35,YZ,None,
,,,,,,calibration,0,34,2,2583,6,N,1,right,0.49079213201184757,0,0,,,,,,,,,,,,,,,,,,,93,150124,21,Female,1,2024/03/15_10:26:35,YZ,None,
,,,,,,calibration,0,34,2,2583,,,,,,,,0.0,0.0,1.0,0.0,0.0,0.0,0.601185991166858,0,4,0,0,0,0,0,2,4,0,,93,150124,21,Female,1,2024/03/15_10:26:35,YZ,None,
,,,,,,Calibration,0,,2,2583,,,,,,,,,,,,,,,,,,,,,,,,,75,93,150124,21,Female,1,2024/03/15_10:26:35,YZ,None,
,,,,,,calibration,0,14,2,2583,1,X,0,left,0.2899802530009765,0,0,,,,,,,,,,,,,,,,,,,93,150124,21,Female,1,2024/03/15_10:26:35,YZ,None,
,,,,,,calibration,0,14,2,2583,2,X,0,left,0.42480219301069155,0,0,,,,,,,,,,,,,,,,,,,93,150124,21,Female,1,2024/03/15_10:26:35,YZ,None,
,,,,,,calibration,0,14,2,2583,3,X,1,right,0.40830698900390416,0,0,,,,,,,,,,,,,,,,,,,93,150124,21,Female,1,2024/03/15_10:26:35,YZ,None,
,,,,,,calibration,0,14,2,2583,4,X,1,right,0.49565059298765846,0,0,,,,,,,,,,,,,,,,,,,93,150124,21,Female,1,2024/03/15_10:26:35,YZ,None,
,,,,,,calibration,0,14,2,2583,5,Q,0,left,0.426865232991986,0,0,,,,,,,,,,,,,,,,,,,93,150124,21,Female,1,2024/03/15_10:26:35,YZ,None,
,,,,,,calibration,0,14,2,2583,6,J,0,left,0.4523606160073541,0,0,,,,,,,,,,,,,,,,,,,93,150124,21,Female,1,2024/03/15_10:26:35,YZ,None,
,,,,,,calibration,0,14,2,2583,,,,,,,,0.0,0.0,1.0,0.0,0.0,0.0,0.4163276461670951,0,4,0,0,0,0,0,2,4,0,,93,150124,21,Female,1,2024/03/15_10:26:35,YZ,None,
,,,,,,Calibration,0,,2,2583,,,,,,,,,,,,,,,,,,,,,,,,,76,93,150124,21,Female,1,2024/03/15_10:26:35,YZ,None,
,,,,,,calibration,0,25,2,2583,1,V,0,left,0.4921749920176808,0,0,,,,,,,,,,,,,,,,,,,93,150124,21,Female,1,2024/03/15_10:26:35,YZ,None,
,,,,,,calibration,0,25,2,2583,2,C,0,left,0.3409790950245224,0,0,,,,,,,,,,,,,,,,,,,93,150124,21,Female,1,2024/03/15_10:26:35,YZ,None,
,,,,,,calibration,0,25,2,2583,3,V,1,right,0.6419434789859224,0,0,,,,,,,,,,,,,,,,,,,93,150124,21,Female,1,2024/03/15_10:26:35,YZ,None,
,,,,,,calibration,0,25,2,2583,4,C,1,right,0.5187131899874657,0,0,,,,,,,,,,,,,,,,,,,93,150124,21,Female,1,2024/03/15_10:26:35,YZ,None,
,,,,,,calibration,0,25,2,2583,5,N,0,left,0.5630650540115312,0,0,,,,,,,,,,,,,,,,,,,93,150124,21,Female,1,2024/03/15_10:26:35,YZ,None,
,,,,,,calibration,0,25,2,2583,6,J,0,left,0.5477300859929528,0,0,,,,,,,,,,,,,,,,,,,93,150124,21,Female,1,2024/03/15_10:26:35,YZ,None,
,,,,,,calibration,0,25,2,2583,,,,,,,,0.0,0.0,1.0,0.0,0.0,0.0,0.5174343160033459,0,4,0,0,0,0,0,2,4,0,,93,150124,21,Female,1,2024/03/15_10:26:35,YZ,None,
,,,,,,Calibration,0,,2,2583,,,,,,,,,,,,,,,,,,,,,,,,,77,93,150124,21,Female,1,2024/03/15_10:26:35,YZ,None,
,,,,,,calibration,0,13,2,2583,1,F,0,left,0.40455935601494275,0,0,,,,,,,,,,,,,,,,,,,93,150124,21,Female,1,2024/03/15_10:26:35,YZ,None,
,,,,,,calibration,0,13,2,2583,2,J,0,left,0.32185043999925256,0,0,,,,,,,,,,,,,,,,,,,93,150124,21,Female,1,2024/03/15_10:26:35,YZ,None,
,,,,,,calibration,0,13,2,2583,3,F,1,right,0.5456468359916471,0,0,,,,,,,,,,,,,,,,,,,93,150124,21,Female,1,2024/03/15_10:26:35,YZ,None,
,,,,,,calibration,0,13,2,2583,4,N,0,left,0.43461380200460553,0,0,,,,,,,,,,,,,,,,,,,93,150124,21,Female,1,2024/03/15_10:26:35,YZ,None,
,,,,,,calibration,0,13,2,2583,5,F,1,right,0.4973816749989055,0,0,,,,,,,,,,,,,,,,,,,93,150124,21,Female,1,2024/03/15_10:26:35,YZ,None,
,,,,,,calibration,0,13,2,2583,6,V,0,left,0.36986191698815674,0,0,,,,,,,,,,,,,,,,,,,93,150124,21,Female,1,2024/03/15_10:26:35,YZ,None,
,,,,,,calibration,0,13,2,2583,,,,,,,,0.0,0.0,1.0,0.0,0.0,0.0,0.428985670999585,0,4,0,0,0,0,0,2,4,0,,93,150124,21,Female,1,2024/03/15_10:26:35,YZ,None,
,,,,,,Calibration,0,,2,2583,,,,,,,,,,,,,,,,,,,,,,,,,78,93,150124,21,Female,1,2024/03/15_10:26:35,YZ,None,
,,,,,,calibration,0,10,2,2583,1,N,0,left,0.3296419749967754,0,0,,,,,,,,,,,,,,,,,,,93,150124,21,Female,1,2024/03/15_10:26:35,YZ,None,
,,,,,,calibration,0,10,2,2583,2,N,0,left,0.31231834800564684,0,0,,,,,,,,,,,,,,,,,,,93,150124,21,Female,1,2024/03/15_10:26:35,YZ,None,
,,,,,,calibration,0,10,2,2583,3,N,1,right,0.3935361010080669,0,0,,,,,,,,,,,,,,,,,,,93,150124,21,Female,1,2024/03/15_10:26:35,YZ,None,
,,,,,,calibration,0,10,2,2583,4,V,0,left,0.46926489801262505,0,0,,,,,,,,,,,,,,,,,,,93,150124,21,Female,1,2024/03/15_10:26:35,YZ,None,
,,,,,,calibration,0,10,2,2583,5,J,0,left,0.662659824010916,0,0,,,,,,,,,,,,,,,,,,,93,150124,21,Female,1,2024/03/15_10:26:35,YZ,None,
,,,,,,calibration,0,10,2,2583,6,V,1,right,0.5900468500040006,0,0,,,,,,,,,,,,,,,,,,,93,150124,21,Female,1,2024/03/15_10:26:35,YZ,None,
,,,,,,calibration,0,10,2,2583,,,,,,,,0.0,0.0,1.0,0.0,0.0,0.0,0.4595779993396718,0,4,0,0,0,0,0,2,4,0,,93,150124,21,Female,1,2024/03/15_10:26:35,YZ,None,
,,,,,,Calibration,0,,2,2583,,,,,,,,,,,,,,,,,,,,,,,,,79,93,150124,21,Female,1,2024/03/15_10:26:35,YZ,None,
,,,,,,calibration,0,7,2,2583,1,Q,0,left,0.30248930101515725,0,0,,,,,,,,,,,,,,,,,,,93,150124,21,Female,1,2024/03/15_10:26:35,YZ,None,
,,,,,,calibration,0,7,2,2583,2,C,0,left,0.5120075790036935,0,0,,,,,,,,,,,,,,,,,,,93,150124,21,Female,1,2024/03/15_10:26:35,YZ,None,
,,,,,,calibration,0,7,2,2583,3,S,0,left,0.5310948620026466,0,0,,,,,,,,,,,,,,,,,,,93,150124,21,Female,1,2024/03/15_10:26:35,YZ,None,
,,,,,,calibration,0,7,2,2583,4,J,0,left,0.5485044800152536,0,0,,,,,,,,,,,,,,,,,,,93,150124,21,Female,1,2024/03/15_10:26:35,YZ,None,
,,,,,,calibration,0,7,2,2583,5,S,1,right,0.34591969798202626,0,0,,,,,,,,,,,,,,,,,,,93,150124,21,Female,1,2024/03/15_10:26:35,YZ,None,
,,,,,,calibration,0,7,2,2583,6,J,1,right,0.5201660369930323,0,0,,,,,,,,,,,,,,,,,,,93,150124,21,Female,1,2024/03/15_10:26:35,YZ,None,
,,,,,,calibration,0,7,2,2583,,,,,,,,0.0,0.0,1.0,0.0,0.0,0.0,0.46003032616863493,0,4,0,0,0,0,0,2,4,0,,93,150124,21,Female,1,2024/03/15_10:26:35,YZ,None,
,,,,,,Calibration,0,,2,2583,,,,,,,,,,,,,,,,,,,,,,,,,80,93,150124,21,Female,1,2024/03/15_10:26:35,YZ,None,
,,,,,,calibration,0,13,2,2583,1,F,0,left,0.33082142399507575,0,0,,,,,,,,,,,,,,,,,,,93,150124,21,Female,1,2024/03/15_10:26:35,YZ,None,
,,,,,,calibration,0,13,2,2583,2,J,0,left,0.37746184499701485,0,0,,,,,,,,,,,,,,,,,,,93,150124,21,Female,1,2024/03/15_10:26:35,YZ,None,
,,,,,,calibration,0,13,2,2583,3,F,1,left,0.412576971022645,1,0,,,,,,,,,,,,,,,,,,,93,150124,21,Female,1,2024/03/15_10:26:35,YZ,None,
,,,,,,calibration,0,13,2,2583,4,N,0,left,0.4756127849977929,0,0,,,,,,,,,,,,,,,,,,,93,150124,21,Female,1,2024/03/15_10:26:35,YZ,None,
,,,,,,calibration,0,13,2,2583,5,F,1,right,0.5463514139992185,0,0,,,,,,,,,,,,,,,,,,,93,150124,21,Female,1,2024/03/15_10:26:35,YZ,None,
,,,,,,calibration,0,13,2,2583,6,V,0,left,0.418724918999942,0,0,,,,,,,,,,,,,,,,,,,93,150124,21,Female,1,2024/03/15_10:26:35,YZ,None,
,,,,,,calibration,0,13,2,2583,,,,,,,,0.125,0.5,1.0,0.0,0.0,0.0,0.4269248930019482,1,4,0,0,0,0,1,2,4,0,,93,150124,21,Female,1,2024/03/15_10:26:35,YZ,None,
,,,,,,Calibration,0,,2,2583,,,,,,,,,,,,,,,,,,,,,,,,,81,93,150124,21,Female,1,2024/03/15_10:26:35,YZ,None,
,,,,,,calibration,0,34,2,2583,1,F,0,left,0.3471350090112537,0,0,,,,,,,,,,,,,,,,,,,93,150124,21,Female,1,2024/03/15_10:26:35,YZ,None,
,,,,,,calibration,0,34,2,2583,2,J,0,left,0.35275061600259505,0,0,,,,,,,,,,,,,,,,,,,93,150124,21,Female,1,2024/03/15_10:26:35,YZ,None,
,,,,,,calibration,0,34,2,2583,3,C,0,left,0.512713548989268,0,0,,,,,,,,,,,,,,,,,,,93,150124,21,Female,1,2024/03/15_10:26:35,YZ,None,
,,,,,,calibration,0,34,2,2583,4,N,0,left,0.5475754300132394,0,0,,,,,,,,,,,,,,,,,,,93,150124,21,Female,1,2024/03/15_10:26:35,YZ,None,
,,,,,,calibration,0,34,2,2583,5,C,1,right,0.599615647981409,0,0,,,,,,,,,,,,,,,,,,,93,150124,21,Female,1,2024/03/15_10:26:35,YZ,None,
,,,,,,calibration,0,34,2,2583,6,N,1,left,0.49853627002448775,1,0,,,,,,,,,,,,,,,,,,,93,150124,21,Female,1,2024/03/15_10:26:35,YZ,None,
,,,,,,calibration,0,34,2,2583,,,,,,,,0.125,0.5,1.0,0.0,0.0,0.0,0.4763877536703755,1,4,0,0,0,0,1,2,4,0,,93,150124,21,Female,1,2024/03/15_10:26:35,YZ,None,
,,,,,,Calibration,0,,2,2583,,,,,,,,,,,,,,,,,,,,,,,,,82,93,150124,21,Female,1,2024/03/15_10:26:35,YZ,None,
,,,,,,calibration,0,31,2,2583,1,X,0,left,0.0,0,0,,,,,,,,,,,,,,,,,,,93,150124,21,Female,1,2024/03/15_10:26:35,YZ,None,
,,,,,,calibration,0,31,2,2583,2,F,0,left,0.48266613399027847,0,0,,,,,,,,,,,,,,,,,,,93,150124,21,Female,1,2024/03/15_10:26:35,YZ,None,
,,,,,,calibration,0,31,2,2583,3,X,1,right,0.6011749700119253,0,0,,,,,,,,,,,,,,,,,,,93,150124,21,Female,1,2024/03/15_10:26:35,YZ,None,
,,,,,,calibration,0,31,2,2583,4,N,0,left,0.5980349009914789,0,0,,,,,,,,,,,,,,,,,,,93,150124,21,Female,1,2024/03/15_10:26:35,YZ,None,
,,,,,,calibration,0,31,2,2583,5,X,1,right,0.6314145120268222,0,0,,,,,,,,,,,,,,,,,,,93,150124,21,Female,1,2024/03/15_10:26:35,YZ,None,
,,,,,,calibration,0,31,2,2583,6,S,0,left,0.5244834749901202,0,0,,,,,,,,,,,,,,,,,,,93,150124,21,Female,1,2024/03/15_10:26:35,YZ,None,
,,,,,,calibration,0,31,2,2583,,,,,,,,0.0,0.0,1.0,0.0,0.0,0.0,0.47296233200177085,0,4,0,0,0,0,0,2,4,0,,93,150124,21,Female,1,2024/03/15_10:26:35,YZ,None,
,,,,,,Calibration,0,,2,2583,,,,,,,,,,,,,,,,,,,,,,,,,83,93,150124,21,Female,1,2024/03/15_10:26:35,YZ,None,
,,,,,,calibration,0,12,2,2583,1,F,0,left,0.7666803830070421,0,0,,,,,,,,,,,,,,,,,,,93,150124,21,Female,1,2024/03/15_10:26:35,YZ,None,
,,,,,,calibration,0,12,2,2583,2,F,0,left,0.46351480300654657,0,0,,,,,,,,,,,,,,,,,,,93,150124,21,Female,1,2024/03/15_10:26:35,YZ,None,
,,,,,,calibration,0,12,2,2583,3,C,0,left,0.5195831010059919,0,0,,,,,,,,,,,,,,,,,,,93,150124,21,Female,1,2024/03/15_10:26:35,YZ,None,
,,,,,,calibration,0,12,2,2583,4,F,1,right,0.4431019590119831,0,0,,,,,,,,,,,,,,,,,,,93,150124,21,Female,1,2024/03/15_10:26:35,YZ,None,
,,,,,,calibration,0,12,2,2583,5,C,1,right,0.5310525050153956,0,0,,,,,,,,,,,,,,,,,,,93,150124,21,Female,1,2024/03/15_10:26:35,YZ,None,
,,,,,,calibration,0,12,2,2583,6,V,0,left,0.4253831090172753,0,0,,,,,,,,,,,,,,,,,,,93,150124,21,Female,1,2024/03/15_10:26:35,YZ,None,
,,,,,,calibration,0,12,2,2583,,,,,,,,0.0,0.0,1.0,0.0,0.0,0.0,0.5248859766773725,0,4,0,0,0,0,0,2,4,0,,93,150124,21,Female,1,2024/03/15_10:26:35,YZ,None,
,,,,,,Calibration,0,,2,2583,,,,,,,,,,,,,,,,,,,,,,,,,84,93,150124,21,Female,1,2024/03/15_10:26:35,YZ,None,
,,,,,,calibration,0,23,2,2583,1,X,0,left,0.35091432300396264,0,0,,,,,,,,,,,,,,,,,,,93,150124,21,Female,1,2024/03/15_10:26:35,YZ,None,
,,,,,,calibration,0,23,2,2583,2,C,0,left,0.35302820801734924,0,0,,,,,,,,,,,,,,,,,,,93,150124,21,Female,1,2024/03/15_10:26:35,YZ,None,
,,,,,,calibration,0,23,2,2583,3,X,1,right,0.5686575919971801,0,0,,,,,,,,,,,,,,,,,,,93,150124,21,Female,1,2024/03/15_10:26:35,YZ,None,
