Instruction,Stimulus,Key,RT,START,END,Phase,Block,TrialN,NbackLevel,ISI,LetterN,Letter,Letter_isSame,Letter_Resp,Letter_RT,Letter_Accuracy,Letter_Timeout,Trial_A_measure,Trial_HR,Trial_FAR,Trial_CDR,Trial_MSR,Trial_ACC,Trial_RT,Trial_HitsCount,Trial_FAsCount,Trial_SameNoRespCount,Trial_DiffNoRespCount,Trial_NoRespCount,Trial_CDsCount,Trial_CorrectRespCount,Trial_SameLetterCount,Trial_DiffLetterCount,Trial_InvalidLetterCount,TrialCountCali,CaliEnd_A_measure,ISI_calibrated,Run,TrialIndex,TrialNumber_total,TrialNumber_valid,CueLearning,TrialDemandLearning,CueMapping,OnlineRating,OnlineRatingRT,OnlineRatingTimeOut,CueSTART,RatingSTART,OfflineRatingTimePoint,OfflineRatingQuesIndex,CueFigure,TrialDemand,OfflineRating,OfflineRatingRT,CueStart,OfflineRatingStart,PhaseType,CueLeft,CueDemandLeft,CueRight,CueDemandRight,Choice,ChoiceDemand,TaskDemand,ChoiceRT,ChoiceTimeOut,ChoiceSTART,CueCheck,CueDemandCheck,CorrectAnswer,Answer,AnswerDemand,AnswerRT,AnswerACC,AnswerTimeOut,CheckSTART,DemandRatingQuesIndex,QuesTLX,DemandLevel,DemandRating,DemandRatingRT,QuesStart,PID,SONA,Age,Gender,Run,TIME,EXPERIMENTER,frameRate,
1,./instructions/inst_begin/Slide2.png,right,19.404618236003444,0.12442821500007994,19.529046451003524,,,,,,,,,,,,,,,,,,,,,,,,,,,,,,,,,1,,,,,,,,,,,,,,,,,,,,,,,,,,,,,,,,,,,,,,,,,,,,,,92,158467,21,Female,1,2024/03/15_08:48:27,YZ,None,
0,./instructions/inst_begin/Slide3.png,left,3.288568015996134,19.560918450006284,22.849486466002418,,,,,,,,,,,,,,,,,,,,,,,,,,,,,,,,,1,,,,,,,,,,,,,,,,,,,,,,,,,,,,,,,,,,,,,,,,,,,,,,92,158467,21,Female,1,2024/03/15_08:48:27,YZ,None,
1,./instructions/inst_begin/Slide2.png,right,5.706238801998552,22.878955653024605,28.585194455023156,,,,,,,,,,,,,,,,,,,,,,,,,,,,,,,,,1,,,,,,,,,,,,,,,,,,,,,,,,,,,,,,,,,,,,,,,,,,,,,,92,158467,21,Female,1,2024/03/15_08:48:27,YZ,None,
2,./instructions/inst_begin/Slide3.png,right,15.721947410987923,28.615026047016727,44.33697345800465,,,,,,,,,,,,,,,,,,,,,,,,,,,,,,,,,1,,,,,,,,,,,,,,,,,,,,,,,,,,,,,,,,,,,,,,,,,,,,,,92,158467,21,Female,1,2024/03/15_08:48:27,YZ,None,
3,./instructions/inst_begin/Slide4.png,right,4.65970590498182,44.365456298022764,49.025162203004584,,,,,,,,,,,,,,,,,,,,,,,,,,,,,,,,,1,,,,,,,,,,,,,,,,,,,,,,,,,,,,,,,,,,,,,,,,,,,,,,92,158467,21,Female,1,2024/03/15_08:48:27,YZ,None,
-1,./instructions/inst_prac_2/Slide6.png,left,17.569897645007586,49.06338915601373,66.63328680102131,,,,,,,,,,,,,,,,,,,,,,,,,,,,,,,,,1,,,,,,,,,,,,,,,,,,,,,,,,,,,,,,,,,,,,,,,,,,,,,,92,158467,21,Female,1,2024/03/15_08:48:27,YZ,None,
0,./instructions/inst_prac_2/Slide15.png,right,9.554484624997713,66.66272682900308,76.21721145400079,,,,,,,,,,,,,,,,,,,,,,,,,,,,,,,,,1,,,,,,,,,,,,,,,,,,,,,,,,,,,,,,,,,,,,,,,,,,,,,,92,158467,21,Female,1,2024/03/15_08:48:27,YZ,None,
1,./instructions/inst_prac_2/Slide6.png,right,0.4107713660050649,76.24619858601363,76.6569699520187,,,,,,,,,,,,,,,,,,,,,,,,,,,,,,,,,1,,,,,,,,,,,,,,,,,,,,,,,,,,,,,,,,,,,,,,,,,,,,,,92,158467,21,Female,1,2024/03/15_08:48:27,YZ,None,
2,./instructions/inst_prac_2/Slide7.png,right,14.306815265008481,76.6863853020186,90.99320056702709,,,,,,,,,,,,,,,,,,,,,,,,,,,,,,,,,1,,,,,,,,,,,,,,,,,,,,,,,,,,,,,,,,,,,,,,,,,,,,,,92,158467,21,Female,1,2024/03/15_08:48:27,YZ,None,
3,./instructions/inst_prac_2/Slide8.png,right,14.178823620983167,91.02239171302062,105.20121533400379,,,,,,,,,,,,,,,,,,,,,,,,,,,,,,,,,1,,,,,,,,,,,,,,,,,,,,,,,,,,,,,,,,,,,,,,,,,,,,,,92,158467,21,Female,1,2024/03/15_08:48:27,YZ,None,
2,./instructions/inst_prac_2/Slide9.png,left,7.4213174330070615,105.2278024010011,112.64911983400816,,,,,,,,,,,,,,,,,,,,,,,,,,,,,,,,,1,,,,,,,,,,,,,,,,,,,,,,,,,,,,,,,,,,,,,,,,,,,,,,92,158467,21,Female,1,2024/03/15_08:48:27,YZ,None,
1,./instructions/inst_prac_2/Slide8.png,left,0.201175346999662,112.6717037250055,112.87287907200516,,,,,,,,,,,,,,,,,,,,,,,,,,,,,,,,,1,,,,,,,,,,,,,,,,,,,,,,,,,,,,,,,,,,,,,,,,,,,,,,92,158467,21,Female,1,2024/03/15_08:48:27,YZ,None,
2,./instructions/inst_prac_2/Slide7.png,right,0.8093482170079369,112.89560988600715,113.70495810301509,,,,,,,,,,,,,,,,,,,,,,,,,,,,,,,,,1,,,,,,,,,,,,,,,,,,,,,,,,,,,,,,,,,,,,,,,,,,,,,,92,158467,21,Female,1,2024/03/15_08:48:27,YZ,None,
3,./instructions/inst_prac_2/Slide8.png,right,0.39646595099475235,113.73248887201771,114.12895482301246,,,,,,,,,,,,,,,,,,,,,,,,,,,,,,,,,1,,,,,,,,,,,,,,,,,,,,,,,,,,,,,,,,,,,,,,,,,,,,,,92,158467,21,Female,1,2024/03/15_08:48:27,YZ,None,
2,./instructions/inst_prac_2/Slide9.png,left,1.7310633000161033,114.15805385800195,115.88911715801805,,,,,,,,,,,,,,,,,,,,,,,,,,,,,,,,,1,,,,,,,,,,,,,,,,,,,,,,,,,,,,,,,,,,,,,,,,,,,,,,92,158467,21,Female,1,2024/03/15_08:48:27,YZ,None,
3,./instructions/inst_prac_2/Slide8.png,right,0.8010880240180995,115.91190751901013,116.71299554302823,,,,,,,,,,,,,,,,,,,,,,,,,,,,,,,,,1,,,,,,,,,,,,,,,,,,,,,,,,,,,,,,,,,,,,,,,,,,,,,,92,158467,21,Female,1,2024/03/15_08:48:27,YZ,None,
2,./instructions/inst_prac_2/Slide9.png,left,11.930852107005194,116.7423096410057,128.6731617480109,,,,,,,,,,,,,,,,,,,,,,,,,,,,,,,,,1,,,,,,,,,,,,,,,,,,,,,,,,,,,,,,,,,,,,,,,,,,,,,,92,158467,21,Female,1,2024/03/15_08:48:27,YZ,None,
3,./instructions/inst_prac_2/Slide8.png,right,1.2567300309892744,128.69634969401523,129.9530797250045,,,,,,,,,,,,,,,,,,,,,,,,,,,,,,,,,1,,,,,,,,,,,,,,,,,,,,,,,,,,,,,,,,,,,,,,,,,,,,,,92,158467,21,Female,1,2024/03/15_08:48:27,YZ,None,
4,./instructions/inst_prac_2/Slide9.png,right,0.7821909470076207,129.97883419701247,130.7610251440201,,,,,,,,,,,,,,,,,,,,,,,,,,,,,,,,,1,,,,,,,,,,,,,,,,,,,,,,,,,,,,,,,,,,,,,,,,,,,,,,92,158467,21,Female,1,2024/03/15_08:48:27,YZ,None,
5,./instructions/inst_prac_2/Slide10.png,right,1.2347217469941825,130.7903500170214,132.0250717640156,,,,,,,,,,,,,,,,,,,,,,,,,,,,,,,,,1,,,,,,,,,,,,,,,,,,,,,,,,,,,,,,,,,,,,,,,,,,,,,,92,158467,21,Female,1,2024/03/15_08:48:27,YZ,None,
6,./instructions/inst_prac_2/Slide11.png,right,1.027106621011626,132.05389600701164,133.08100262802327,,,,,,,,,,,,,,,,,,,,,,,,,,,,,,,,,1,,,,,,,,,,,,,,,,,,,,,,,,,,,,,,,,,,,,,,,,,,,,,,92,158467,21,Female,1,2024/03/15_08:48:27,YZ,None,
7,./instructions/inst_prac_2/Slide12.png,right,1.0113943110045511,133.10968838300323,134.12108269400778,,,,,,,,,,,,,,,,,,,,,,,,,,,,,,,,,1,,,,,,,,,,,,,,,,,,,,,,,,,,,,,,,,,,,,,,,,,,,,,,92,158467,21,Female,1,2024/03/15_08:48:27,YZ,None,
6,./instructions/inst_prac_2/Slide13.png,left,2.31739069201285,134.1478049060097,136.46519559802255,,,,,,,,,,,,,,,,,,,,,,,,,,,,,,,,,1,,,,,,,,,,,,,,,,,,,,,,,,,,,,,,,,,,,,,,,,,,,,,,92,158467,21,Female,1,2024/03/15_08:48:27,YZ,None,
7,./instructions/inst_prac_2/Slide12.png,right,1.978951514000073,136.49401923301048,138.47297074701055,,,,,,,,,,,,,,,,,,,,,,,,,,,,,,,,,1,,,,,,,,,,,,,,,,,,,,,,,,,,,,,,,,,,,,,,,,,,,,,,92,158467,21,Female,1,2024/03/15_08:48:27,YZ,None,
8,./instructions/inst_prac_2/Slide13.png,right,2.2365300150122494,138.50042643700726,140.7369564520195,,,,,,,,,,,,,,,,,,,,,,,,,,,,,,,,,1,,,,,,,,,,,,,,,,,,,,,,,,,,,,,,,,,,,,,,,,,,,,,,92,158467,21,Female,1,2024/03/15_08:48:27,YZ,None,
7,./instructions/inst_prac_2/Slide14.png,left,2.210783012997126,140.76638689401443,142.97716990701156,,,,,,,,,,,,,,,,,,,,,,,,,,,,,,,,,1,,,,,,,,,,,,,,,,,,,,,,,,,,,,,,,,,,,,,,,,,,,,,,92,158467,21,Female,1,2024/03/15_08:48:27,YZ,None,
6,./instructions/inst_prac_2/Slide13.png,left,2.6571483809966594,143.00005850300658,145.65720688400324,,,,,,,,,,,,,,,,,,,,,,,,,,,,,,,,,1,,,,,,,,,,,,,,,,,,,,,,,,,,,,,,,,,,,,,,,,,,,,,,92,158467,21,Female,1,2024/03/15_08:48:27,YZ,None,
7,./instructions/inst_prac_2/Slide12.png,right,0.7531955390004441,145.67990260801162,146.43309814701206,,,,,,,,,,,,,,,,,,,,,,,,,,,,,,,,,1,,,,,,,,,,,,,,,,,,,,,,,,,,,,,,,,,,,,,,,,,,,,,,92,158467,21,Female,1,2024/03/15_08:48:27,YZ,None,
8,./instructions/inst_prac_2/Slide13.png,right,0.5710339380020741,146.46199759401497,147.03303153201705,,,,,,,,,,,,,,,,,,,,,,,,,,,,,,,,,1,,,,,,,,,,,,,,,,,,,,,,,,,,,,,,,,,,,,,,,,,,,,,,92,158467,21,Female,1,2024/03/15_08:48:27,YZ,None,
9,./instructions/inst_prac_2/Slide14.png,right,13.686694862990407,147.05860073302756,160.74529559601797,,,,,,,,,,,,,,,,,,,,,,,,,,,,,,,,,1,,,,,,,,,,,,,,,,,,,,,,,,,,,,,,,,,,,,,,,,,,,,,,92,158467,21,Female,1,2024/03/15_08:48:27,YZ,None,
10,./instructions/inst_prac_2/Slide15.png,right,12.202545307023684,160.77469401300186,172.97723932002555,,,,,,,,,,,,,,,,,,,,,,,,,,,,,,,,,1,,,,,,,,,,,,,,,,,,,,,,,,,,,,,,,,,,,,,,,,,,,,,,92,158467,21,Female,1,2024/03/15_08:48:27,YZ,None,
,,,,,,practice,0,31,2,2583,1,J,0,right,6.724490282998886,1,0,,,,,,,,,,,,,,,,,,,,,1,,,,,,,,,,,,,,,,,,,,,,,,,,,,,,,,,,,,,,,,,,,,,,92,158467,21,Female,1,2024/03/15_08:48:27,YZ,None,
,,,,,,practice,0,31,2,2583,2,S,0,right,2.379904216999421,1,0,,,,,,,,,,,,,,,,,,,,,1,,,,,,,,,,,,,,,,,,,,,,,,,,,,,,,,,,,,,,,,,,,,,,92,158467,21,Female,1,2024/03/15_08:48:27,YZ,None,
,,,,,,practice,0,31,2,2583,3,X,0,right,1.7808398059860338,1,0,,,,,,,,,,,,,,,,,,,,,1,,,,,,,,,,,,,,,,,,,,,,,,,,,,,,,,,,,,,,,,,,,,,,92,158467,21,Female,1,2024/03/15_08:48:27,YZ,None,
,,,,,,practice,0,31,2,2583,4,J,0,right,1.7159703039797023,1,0,,,,,,,,,,,,,,,,,,,,,1,,,,,,,,,,,,,,,,,,,,,,,,,,,,,,,,,,,,,,,,,,,,,,92,158467,21,Female,1,2024/03/15_08:48:27,YZ,None,
,,,,,,practice,0,31,2,2583,5,X,1,left,1.0756506389880087,1,0,,,,,,,,,,,,,,,,,,,,,1,,,,,,,,,,,,,,,,,,,,,,,,,,,,,,,,,,,,,,,,,,,,,,92,158467,21,Female,1,2024/03/15_08:48:27,YZ,None,
,,,,,,practice,0,31,2,2583,6,J,1,left,0.9704113389889244,1,0,,,,,,,,,,,,,,,,,,,,,1,,,,,,,,,,,,,,,,,,,,,,,,,,,,,,,,,,,,,,,,,,,,,,92,158467,21,Female,1,2024/03/15_08:48:27,YZ,None,
,,,,,,practice,0,31,2,2583,,,,,,,,1.0,1.0,0.0,1.0,0.0,1.0,2.4412110979901627,2,0,0,0,0,4,6,2,4,0,,,,1,,,,,,,,,,,,,,,,,,,,,,,,,,,,,,,,,,,,,,,,,,,,,,92,158467,21,Female,1,2024/03/15_08:48:27,YZ,None,
1,./instructions/inst_to_cali/Slide20.png,right,4.332125470013125,193.98090177201084,198.31302724202396,,,,,,,,,,,,,,,,,,,,,,,,,,,,,,,,,1,,,,,,,,,,,,,,,,,,,,,,,,,,,,,,,,,,,,,,,,,,,,,,92,158467,21,Female,1,2024/03/15_08:48:27,YZ,None,
1,./instructions/inst_cali/Slide22.png,right,2.154553175001638,198.35055567801464,200.50510885301628,,,,,,,,,,,,,,,,,,,,,,,,,,,,,,,,,1,,,,,,,,,,,,,,,,,,,,,,,,,,,,,,,,,,,,,,,,,,,,,,92,158467,21,Female,1,2024/03/15_08:48:27,YZ,None,
,,,,,,calibration,0,31,2,583,1,C,0,right,0.6975345529790502,1,0,,,,,,,,,,,,,,,,,,,,,1,,,,,,,,,,,,,,,,,,,,,,,,,,,,,,,,,,,,,,,,,,,,,,92,158467,21,Female,1,2024/03/15_08:48:27,YZ,None,
,,,,,,calibration,0,31,2,583,2,C,0,right,nan,0,1,,,,,,,,,,,,,,,,,,,,,1,,,,,,,,,,,,,,,,,,,,,,,,,,,,,,,,,,,,,,,,,,,,,,92,158467,21,Female,1,2024/03/15_08:48:27,YZ,None,
,,,,,,calibration,0,31,2,583,3,C,1,left,1.7267206980031915,1,0,,,,,,,,,,,,,,,,,,,,,1,,,,,,,,,,,,,,,,,,,,,,,,,,,,,,,,,,,,,,,,,,,,,,92,158467,21,Female,1,2024/03/15_08:48:27,YZ,None,
,,,,,,calibration,0,31,2,583,4,C,1,left,0.994405375997303,1,0,,,,,,,,,,,,,,,,,,,,,1,,,,,,,,,,,,,,,,,,,,,,,,,,,,,,,,,,,,,,,,,,,,,,92,158467,21,Female,1,2024/03/15_08:48:27,YZ,None,
,,,,,,calibration,0,31,2,583,5,N,0,right,0.9994890179950744,1,0,,,,,,,,,,,,,,,,,,,,,1,,,,,,,,,,,,,,,,,,,,,,,,,,,,,,,,,,,,,,,,,,,,,,92,158467,21,Female,1,2024/03/15_08:48:27,YZ,None,
,,,,,,calibration,0,31,2,583,6,Q,0,right,0.7500344990112353,1,0,,,,,,,,,,,,,,,,,,,,,1,,,,,,,,,,,,,,,,,,,,,,,,,,,,,,,,,,,,,,,,,,,,,,92,158467,21,Female,1,2024/03/15_08:48:27,YZ,None,
,,,,,,calibration,0,31,2,583,7,S,0,right,0.46345003799069673,1,0,,,,,,,,,,,,,,,,,,,,,1,,,,,,,,,,,,,,,,,,,,,,,,,,,,,,,,,,,,,,,,,,,,,,92,158467,21,Female,1,2024/03/15_08:48:27,YZ,None,
,,,,,,calibration,0,31,2,583,8,V,0,right,0.5347559129877482,1,0,,,,,,,,,,,,,,,,,,,,,1,,,,,,,,,,,,,,,,,,,,,,,,,,,,,,,,,,,,,,,,,,,,,,92,158467,21,Female,1,2024/03/15_08:48:27,YZ,None,
,,,,,,calibration,0,31,2,583,9,F,0,right,0.39047714602202177,1,0,,,,,,,,,,,,,,,,,,,,,1,,,,,,,,,,,,,,,,,,,,,,,,,,,,,,,,,,,,,,,,,,,,,,92,158467,21,Female,1,2024/03/15_08:48:27,YZ,None,
,,,,,,calibration,0,31,2,583,10,X,0,right,0.420314708026126,1,0,,,,,,,,,,,,,,,,,,,,,1,,,,,,,,,,,,,,,,,,,,,,,,,,,,,,,,,,,,,,,,,,,,,,92,158467,21,Female,1,2024/03/15_08:48:27,YZ,None,
,,,,,,calibration,0,31,2,583,11,F,1,left,0.9253458540188149,1,0,,,,,,,,,,,,,,,,,,,,,1,,,,,,,,,,,,,,,,,,,,,,,,,,,,,,,,,,,,,,,,,,,,,,92,158467,21,Female,1,2024/03/15_08:48:27,YZ,None,
,,,,,,calibration,0,31,2,583,12,X,1,right,0.5125164030177984,0,0,,,,,,,,,,,,,,,,,,,,,1,,,,,,,,,,,,,,,,,,,,,,,,,,,,,,,,,,,,,,,,,,,,,,92,158467,21,Female,1,2024/03/15_08:48:27,YZ,None,
,,,,,,calibration,0,31,2,583,13,Q,0,left,0.7473899890028406,0,0,,,,,,,,,,,,,,,,,,,,,1,,,,,,,,,,,,,,,,,,,,,,,,,,,,,,,,,,,,,,,,,,,,,,92,158467,21,Female,1,2024/03/15_08:48:27,YZ,None,
,,,,,,calibration,0,31,2,583,14,F,0,left,0.5422876450174954,0,0,,,,,,,,,,,,,,,,,,,,,1,,,,,,,,,,,,,,,,,,,,,,,,,,,,,,,,,,,,,,,,,,,,,,92,158467,21,Female,1,2024/03/15_08:48:27,YZ,None,
,,,,,,calibration,0,31,2,583,15,X,0,left,0.6511941780045163,0,0,,,,,,,,,,,,,,,,,,,,,1,,,,,,,,,,,,,,,,,,,,,,,,,,,,,,,,,,,,,,,,,,,,,,92,158467,21,Female,1,2024/03/15_08:48:27,YZ,None,
,,,,,,calibration,0,31,2,583,,,,,,,,0.8011363636363638,0.75,0.2727272727272727,0.7,0.06666666666666667,0.6606060606060606,0.7397082870052795,3,3,0,1,1,7,10,4,11,0,,,,1,,,,,,,,,,,,,,,,,,,,,,,,,,,,,,,,,,,,,,,,,,,,,,92,158467,21,Female,1,2024/03/15_08:48:27,YZ,None,
,,,,,,Calibration,0,,2,583,,,,,,,,,,,,,,,,,,,,,,,,,1,,,1,,,,,,,,,,,,,,,,,,,,,,,,,,,,,,,,,,,,,,,,,,,,,,92,158467,21,Female,1,2024/03/15_08:48:27,YZ,None,
,,,,,,calibration,0,31,2,583,1,C,0,None,nan,0,1,,,,,,,,,,,,,,,,,,,,,1,,,,,,,,,,,,,,,,,,,,,,,,,,,,,,,,,,,,,,,,,,,,,,92,158467,21,Female,1,2024/03/15_08:48:27,YZ,None,
,,,,,,calibration,0,31,2,583,2,C,0,left,0.9750770019891206,0,0,,,,,,,,,,,,,,,,,,,,,1,,,,,,,,,,,,,,,,,,,,,,,,,,,,,,,,,,,,,,,,,,,,,,92,158467,21,Female,1,2024/03/15_08:48:27,YZ,None,
,,,,,,calibration,0,31,2,583,3,C,1,left,0.5369159490219317,1,0,,,,,,,,,,,,,,,,,,,,,1,,,,,,,,,,,,,,,,,,,,,,,,,,,,,,,,,,,,,,,,,,,,,,92,158467,21,Female,1,2024/03/15_08:48:27,YZ,None,
,,,,,,calibration,0,31,2,583,4,C,1,left,0.5799164930067491,1,0,,,,,,,,,,,,,,,,,,,,,1,,,,,,,,,,,,,,,,,,,,,,,,,,,,,,,,,,,,,,,,,,,,,,92,158467,21,Female,1,2024/03/15_08:48:27,YZ,None,
,,,,,,calibration,0,31,2,583,5,N,0,right,0.6914007889863569,1,0,,,,,,,,,,,,,,,,,,,,,1,,,,,,,,,,,,,,,,,,,,,,,,,,,,,,,,,,,,,,,,,,,,,,92,158467,21,Female,1,2024/03/15_08:48:27,YZ,None,
,,,,,,calibration,0,31,2,583,6,Q,0,left,1.0254956480057444,0,0,,,,,,,,,,,,,,,,,,,,,1,,,,,,,,,,,,,,,,,,,,,,,,,,,,,,,,,,,,,,,,,,,,,,92,158467,21,Female,1,2024/03/15_08:48:27,YZ,None,
,,,,,,calibration,0,31,2,583,7,S,0,right,0.5970740729826503,1,0,,,,,,,,,,,,,,,,,,,,,1,,,,,,,,,,,,,,,,,,,,,,,,,,,,,,,,,,,,,,,,,,,,,,92,158467,21,Female,1,2024/03/15_08:48:27,YZ,None,
,,,,,,calibration,0,31,2,583,8,V,0,right,0.8751035449968185,1,0,,,,,,,,,,,,,,,,,,,,,1,,,,,,,,,,,,,,,,,,,,,,,,,,,,,,,,,,,,,,,,,,,,,,92,158467,21,Female,1,2024/03/15_08:48:27,YZ,None,
,,,,,,calibration,0,31,2,583,9,F,0,left,0.9524135499959812,0,0,,,,,,,,,,,,,,,,,,,,,1,,,,,,,,,,,,,,,,,,,,,,,,,,,,,,,,,,,,,,,,,,,,,,92,158467,21,Female,1,2024/03/15_08:48:27,YZ,None,
,,,,,,calibration,0,31,2,583,10,X,0,left,0.9520580580283422,0,0,,,,,,,,,,,,,,,,,,,,,1,,,,,,,,,,,,,,,,,,,,,,,,,,,,,,,,,,,,,,,,,,,,,,92,158467,21,Female,1,2024/03/15_08:48:27,YZ,None,
,,,,,,calibration,0,31,2,583,11,F,1,right,0.6721992990060244,0,0,,,,,,,,,,,,,,,,,,,,,1,,,,,,,,,,,,,,,,,,,,,,,,,,,,,,,,,,,,,,,,,,,,,,92,158467,21,Female,1,2024/03/15_08:48:27,YZ,None,
,,,,,,calibration,0,31,2,583,12,X,1,left,0.8139776839816477,1,0,,,,,,,,,,,,,,,,,,,,,1,,,,,,,,,,,,,,,,,,,,,,,,,,,,,,,,,,,,,,,,,,,,,,92,158467,21,Female,1,2024/03/15_08:48:27,YZ,None,
,,,,,,calibration,0,31,2,583,13,Q,0,right,0.8980506570078433,1,0,,,,,,,,,,,,,,,,,,,,,1,,,,,,,,,,,,,,,,,,,,,,,,,,,,,,,,,,,,,,,,,,,,,,92,158467,21,Female,1,2024/03/15_08:48:27,YZ,None,
,,,,,,calibration,0,31,2,583,14,F,0,left,0.6916533019975759,0,0,,,,,,,,,,,,,,,,,,,,,1,,,,,,,,,,,,,,,,,,,,,,,,,,,,,,,,,,,,,,,,,,,,,,92,158467,21,Female,1,2024/03/15_08:48:27,YZ,None,
,,,,,,calibration,0,31,2,583,15,X,0,left,0.763618252996821,0,0,,,,,,,,,,,,,,,,,,,,,1,,,,,,,,,,,,,,,,,,,,,,,,,,,,,,,,,,,,,,,,,,,,,,92,158467,21,Female,1,2024/03/15_08:48:27,YZ,None,
,,,,,,calibration,0,31,2,583,,,,,,,,0.6448863636363636,0.75,0.5454545454545454,0.4,0.06666666666666667,0.38787878787878793,0.7874967358574005,3,6,0,1,1,4,7,4,11,0,,,,1,,,,,,,,,,,,,,,,,,,,,,,,,,,,,,,,,,,,,,,,,,,,,,92,158467,21,Female,1,2024/03/15_08:48:27,YZ,None,
,,,,,,Calibration,0,,2,583,,,,,,,,,,,,,,,,,,,,,,,,,2,,,1,,,,,,,,,,,,,,,,,,,,,,,,,,,,,,,,,,,,,,,,,,,,,,92,158467,21,Female,1,2024/03/15_08:48:27,YZ,None,
,,,,,,calibration,0,4,2,679,1,F,0,None,nan,0,1,,,,,,,,,,,,,,,,,,,,,1,,,,,,,,,,,,,,,,,,,,,,,,,,,,,,,,,,,,,,,,,,,,,,92,158467,21,Female,1,2024/03/15_08:48:27,YZ,None,
,,,,,,calibration,0,4,2,679,2,N,0,right,0.741095609992044,1,0,,,,,,,,,,,,,,,,,,,,,1,,,,,,,,,,,,,,,,,,,,,,,,,,,,,,,,,,,,,,,,,,,,,,92,158467,21,Female,1,2024/03/15_08:48:27,YZ,None,
,,,,,,calibration,0,4,2,679,3,Q,0,right,0.73124398701475,1,0,,,,,,,,,,,,,,,,,,,,,1,,,,,,,,,,,,,,,,,,,,,,,,,,,,,,,,,,,,,,,,,,,,,,92,158467,21,Female,1,2024/03/15_08:48:27,YZ,None,
,,,,,,calibration,0,4,2,679,4,X,0,right,0.7408354899962433,1,0,,,,,,,,,,,,,,,,,,,,,1,,,,,,,,,,,,,,,,,,,,,,,,,,,,,,,,,,,,,,,,,,,,,,92,158467,21,Female,1,2024/03/15_08:48:27,YZ,None,
,,,,,,calibration,0,4,2,679,5,Q,1,left,0.7235954430070706,1,0,,,,,,,,,,,,,,,,,,,,,1,,,,,,,,,,,,,,,,,,,,,,,,,,,,,,,,,,,,,,,,,,,,,,92,158467,21,Female,1,2024/03/15_08:48:27,YZ,None,
,,,,,,calibration,0,4,2,679,6,J,0,right,0.6848641819960903,1,0,,,,,,,,,,,,,,,,,,,,,1,,,,,,,,,,,,,,,,,,,,,,,,,,,,,,,,,,,,,,,,,,,,,,92,158467,21,Female,1,2024/03/15_08:48:27,YZ,None,
,,,,,,calibration,0,4,2,679,7,C,0,left,0.652250567014562,0,0,,,,,,,,,,,,,,,,,,,,,1,,,,,,,,,,,,,,,,,,,,,,,,,,,,,,,,,,,,,,,,,,,,,,92,158467,21,Female,1,2024/03/15_08:48:27,YZ,None,
,,,,,,calibration,0,4,2,679,8,S,0,right,0.6752496350090951,1,0,,,,,,,,,,,,,,,,,,,,,1,,,,,,,,,,,,,,,,,,,,,,,,,,,,,,,,,,,,,,,,,,,,,,92,158467,21,Female,1,2024/03/15_08:48:27,YZ,None,
,,,,,,calibration,0,4,2,679,9,C,1,left,0.7257326490071137,1,0,,,,,,,,,,,,,,,,,,,,,1,,,,,,,,,,,,,,,,,,,,,,,,,,,,,,,,,,,,,,,,,,,,,,92,158467,21,Female,1,2024/03/15_08:48:27,YZ,None,
,,,,,,calibration,0,4,2,679,10,X,0,right,0.6846826999972109,1,0,,,,,,,,,,,,,,,,,,,,,1,,,,,,,,,,,,,,,,,,,,,,,,,,,,,,,,,,,,,,,,,,,,,,92,158467,21,Female,1,2024/03/15_08:48:27,YZ,None,
,,,,,,calibration,0,4,2,679,11,C,1,left,0.7922467149910517,1,0,,,,,,,,,,,,,,,,,,,,,1,,,,,,,,,,,,,,,,,,,,,,,,,,,,,,,,,,,,,,,,,,,,,,92,158467,21,Female,1,2024/03/15_08:48:27,YZ,None,
,,,,,,calibration,0,4,2,679,12,J,0,right,0.6141834519803524,1,0,,,,,,,,,,,,,,,,,,,,,1,,,,,,,,,,,,,,,,,,,,,,,,,,,,,,,,,,,,,,,,,,,,,,92,158467,21,Female,1,2024/03/15_08:48:27,YZ,None,
,,,,,,calibration,0,4,2,679,13,X,0,right,0.6138572019990534,1,0,,,,,,,,,,,,,,,,,,,,,1,,,,,,,,,,,,,,,,,,,,,,,,,,,,,,,,,,,,,,,,,,,,,,92,158467,21,Female,1,2024/03/15_08:48:27,YZ,None,
,,,,,,calibration,0,4,2,679,14,J,1,right,0.6919307759962976,0,0,,,,,,,,,,,,,,,,,,,,,1,,,,,,,,,,,,,,,,,,,,,,,,,,,,,,,,,,,,,,,,,,,,,,92,158467,21,Female,1,2024/03/15_08:48:27,YZ,None,
,,,,,,calibration,0,4,2,679,,,,,,,,0.8875,0.75,0.1,0.8888888888888888,0.07142857142857142,0.8285714285714286,0.697828339076995,3,1,0,1,1,8,11,4,10,0,,,,1,,,,,,,,,,,,,,,,,,,,,,,,,,,,,,,,,,,,,,,,,,,,,,92,158467,21,Female,1,2024/03/15_08:48:27,YZ,None,
,,,,,,Calibration,0,,2,679,,,,,,,,,,,,,,,,,,,,,,,,,3,,,1,,,,,,,,,,,,,,,,,,,,,,,,,,,,,,,,,,,,,,,,,,,,,,92,158467,21,Female,1,2024/03/15_08:48:27,YZ,None,
,,,,,,calibration,0,23,2,583,1,X,0,right,1.2088963850110304,1,0,,,,,,,,,,,,,,,,,,,,,1,,,,,,,,,,,,,,,,,,,,,,,,,,,,,,,,,,,,,,,,,,,,,,92,158467,21,Female,1,2024/03/15_08:48:27,YZ,None,
,,,,,,calibration,0,23,2,583,2,Q,0,right,0.5506640110106673,1,0,,,,,,,,,,,,,,,,,,,,,1,,,,,,,,,,,,,,,,,,,,,,,,,,,,,,,,,,,,,,,,,,,,,,92,158467,21,Female,1,2024/03/15_08:48:27,YZ,None,
,,,,,,calibration,0,23,2,583,3,S,0,right,0.542593496007612,1,0,,,,,,,,,,,,,,,,,,,,,1,,,,,,,,,,,,,,,,,,,,,,,,,,,,,,,,,,,,,,,,,,,,,,92,158467,21,Female,1,2024/03/15_08:48:27,YZ,None,
,,,,,,calibration,0,23,2,583,4,F,0,right,0.6312388490187004,1,0,,,,,,,,,,,,,,,,,,,,,1,,,,,,,,,,,,,,,,,,,,,,,,,,,,,,,,,,,,,,,,,,,,,,92,158467,21,Female,1,2024/03/15_08:48:27,YZ,None,
,,,,,,calibration,0,23,2,583,5,Q,0,left,0.6478291200182866,0,0,,,,,,,,,,,,,,,,,,,,,1,,,,,,,,,,,,,,,,,,,,,,,,,,,,,,,,,,,,,,,,,,,,,,92,158467,21,Female,1,2024/03/15_08:48:27,YZ,None,
,,,,,,calibration,0,23,2,583,6,S,0,left,0.8586736849974841,0,0,,,,,,,,,,,,,,,,,,,,,1,,,,,,,,,,,,,,,,,,,,,,,,,,,,,,,,,,,,,,,,,,,,,,92,158467,21,Female,1,2024/03/15_08:48:27,YZ,None,
,,,,,,calibration,0,23,2,583,7,Q,1,left,0.6589543510053772,1,0,,,,,,,,,,,,,,,,,,,,,1,,,,,,,,,,,,,,,,,,,,,,,,,,,,,,,,,,,,,,,,,,,,,,92,158467,21,Female,1,2024/03/15_08:48:27,YZ,None,
,,,,,,calibration,0,23,2,583,8,S,1,right,0.707527882012073,0,0,,,,,,,,,,,,,,,,,,,,,1,,,,,,,,,,,,,,,,,,,,,,,,,,,,,,,,,,,,,,,,,,,,,,92,158467,21,Female,1,2024/03/15_08:48:27,YZ,None,
,,,,,,calibration,0,23,2,583,9,C,0,right,0.9801001499872655,1,0,,,,,,,,,,,,,,,,,,,,,1,,,,,,,,,,,,,,,,,,,,,,,,,,,,,,,,,,,,,,,,,,,,,,92,158467,21,Female,1,2024/03/15_08:48:27,YZ,None,
,,,,,,calibration,0,23,2,583,10,N,0,right,0.4991242389951367,1,0,,,,,,,,,,,,,,,,,,,,,1,,,,,,,,,,,,,,,,,,,,,,,,,,,,,,,,,,,,,,,,,,,,,,92,158467,21,Female,1,2024/03/15_08:48:27,YZ,None,
,,,,,,calibration,0,23,2,583,11,J,0,right,0.6489994350122288,1,0,,,,,,,,,,,,,,,,,,,,,1,,,,,,,,,,,,,,,,,,,,,,,,,,,,,,,,,,,,,,,,,,,,,,92,158467,21,Female,1,2024/03/15_08:48:27,YZ,None,
,,,,,,calibration,0,23,2,583,12,C,0,left,0.592653853003867,0,0,,,,,,,,,,,,,,,,,,,,,1,,,,,,,,,,,,,,,,,,,,,,,,,,,,,,,,,,,,,,,,,,,,,,92,158467,21,Female,1,2024/03/15_08:48:27,YZ,None,
,,,,,,calibration,0,23,2,583,13,J,1,right,0.5971828699985053,0,0,,,,,,,,,,,,,,,,,,,,,1,,,,,,,,,,,,,,,,,,,,,,,,,,,,,,,,,,,,,,,,,,,,,,92,158467,21,Female,1,2024/03/15_08:48:27,YZ,None,
,,,,,,calibration,0,23,2,583,14,C,1,right,0.5239726779982448,0,0,,,,,,,,,,,,,,,,,,,,,1,,,,,,,,,,,,,,,,,,,,,,,,,,,,,,,,,,,,,,,,,,,,,,92,158467,21,Female,1,2024/03/15_08:48:27,YZ,None,
,,,,,,calibration,0,23,2,583,15,X,0,right,0.5797666939906776,1,0,,,,,,,,,,,,,,,,,,,,,1,,,,,,,,,,,,,,,,,,,,,,,,,,,,,,,,,,,,,,,,,,,,,,92,158467,21,Female,1,2024/03/15_08:48:27,YZ,None,
,,,,,,calibration,0,23,2,583,,,,,,,,0.015151515151515138,0.25,0.2727272727272727,0.7272727272727273,0.0,0.7272727272727273,0.6818785132044771,1,3,0,0,0,8,9,4,11,0,,,,1,,,,,,,,,,,,,,,,,,,,,,,,,,,,,,,,,,,,,,,,,,,,,,92,158467,21,Female,1,2024/03/15_08:48:27,YZ,None,
,,,,,,Calibration,0,,2,583,,,,,,,,,,,,,,,,,,,,,,,,,4,,,1,,,,,,,,,,,,,,,,,,,,,,,,,,,,,,,,,,,,,,,,,,,,,,92,158467,21,Female,1,2024/03/15_08:48:27,YZ,None,
,,,,,,calibration,0,25,2,679,1,F,0,right,0.9374733539880253,1,0,,,,,,,,,,,,,,,,,,,,,1,,,,,,,,,,,,,,,,,,,,,,,,,,,,,,,,,,,,,,,,,,,,,,92,158467,21,Female,1,2024/03/15_08:48:27,YZ,None,
,,,,,,calibration,0,25,2,679,2,V,0,right,0.44215101600275375,1,0,,,,,,,,,,,,,,,,,,,,,1,,,,,,,,,,,,,,,,,,,,,,,,,,,,,,,,,,,,,,,,,,,,,,92,158467,21,Female,1,2024/03/15_08:48:27,YZ,None,
,,,,,,calibration,0,25,2,679,3,F,1,left,0.6761625100043602,1,0,,,,,,,,,,,,,,,,,,,,,1,,,,,,,,,,,,,,,,,,,,,,,,,,,,,,,,,,,,,,,,,,,,,,92,158467,21,Female,1,2024/03/15_08:48:27,YZ,None,
,,,,,,calibration,0,25,2,679,4,C,0,right,0.6864007719850633,1,0,,,,,,,,,,,,,,,,,,,,,1,,,,,,,,,,,,,,,,,,,,,,,,,,,,,,,,,,,,,,,,,,,,,,92,158467,21,Female,1,2024/03/15_08:48:27,YZ,None,
,,,,,,calibration,0,25,2,679,5,V,0,left,0.6237874540092889,0,0,,,,,,,,,,,,,,,,,,,,,1,,,,,,,,,,,,,,,,,,,,,,,,,,,,,,,,,,,,,,,,,,,,,,92,158467,21,Female,1,2024/03/15_08:48:27,YZ,None,
,,,,,,calibration,0,25,2,679,6,J,0,right,0.5353494709997904,1,0,,,,,,,,,,,,,,,,,,,,,1,,,,,,,,,,,,,,,,,,,,,,,,,,,,,,,,,,,,,,,,,,,,,,92,158467,21,Female,1,2024/03/15_08:48:27,YZ,None,
,,,,,,calibration,0,25,2,679,7,S,0,right,0.6855414340097923,1,0,,,,,,,,,,,,,,,,,,,,,1,,,,,,,,,,,,,,,,,,,,,,,,,,,,,,,,,,,,,,,,,,,,,,92,158467,21,Female,1,2024/03/15_08:48:27,YZ,None,
,,,,,,calibration,0,25,2,679,8,J,1,left,0.7205157150165178,1,0,,,,,,,,,,,,,,,,,,,,,1,,,,,,,,,,,,,,,,,,,,,,,,,,,,,,,,,,,,,,,,,,,,,,92,158467,21,Female,1,2024/03/15_08:48:27,YZ,None,
,,,,,,calibration,0,25,2,679,9,S,1,left,0.8401929590036161,1,0,,,,,,,,,,,,,,,,,,,,,1,,,,,,,,,,,,,,,,,,,,,,,,,,,,,,,,,,,,,,,,,,,,,,92,158467,21,Female,1,2024/03/15_08:48:27,YZ,None,
,,,,,,calibration,0,25,2,679,10,N,0,right,0.42692215301212855,1,0,,,,,,,,,,,,,,,,,,,,,1,,,,,,,,,,,,,,,,,,,,,,,,,,,,,,,,,,,,,,,,,,,,,,92,158467,21,Female,1,2024/03/15_08:48:27,YZ,None,
,,,,,,calibration,0,25,2,679,11,V,0,left,0.5166618380171712,0,0,,,,,,,,,,,,,,,,,,,,,1,,,,,,,,,,,,,,,,,,,,,,,,,,,,,,,,,,,,,,,,,,,,,,92,158467,21,Female,1,2024/03/15_08:48:27,YZ,None,
,,,,,,calibration,0,25,2,679,12,C,0,right,0.3595190040068701,1,0,,,,,,,,,,,,,,,,,,,,,1,,,,,,,,,,,,,,,,,,,,,,,,,,,,,,,,,,,,,,,,,,,,,,92,158467,21,Female,1,2024/03/15_08:48:27,YZ,None,
,,,,,,calibration,0,25,2,679,13,V,1,right,0.5574611799966078,0,0,,,,,,,,,,,,,,,,,,,,,1,,,,,,,,,,,,,,,,,,,,,,,,,,,,,,,,,,,,,,,,,,,,,,92,158467,21,Female,1,2024/03/15_08:48:27,YZ,None,
,,,,,,calibration,0,25,2,679,14,N,0,right,0.8307143420097418,1,0,,,,,,,,,,,,,,,,,,,,,1,,,,,,,,,,,,,,,,,,,,,,,,,,,,,,,,,,,,,,,,,,,,,,92,158467,21,Female,1,2024/03/15_08:48:27,YZ,None,
,,,,,,calibration,0,25,2,679,,,,,,,,0.8374999999999999,0.75,0.2,0.8,0.0,0.8,0.6313466572901234,3,2,0,0,0,8,11,4,10,0,,,,1,,,,,,,,,,,,,,,,,,,,,,,,,,,,,,,,,,,,,,,,,,,,,,92,158467,21,Female,1,2024/03/15_08:48:27,YZ,None,
,,,,,,Calibration,0,,2,679,,,,,,,,,,,,,,,,,,,,,,,,,5,,,1,,,,,,,,,,,,,,,,,,,,,,,,,,,,,,,,,,,,,,,,,,,,,,92,158467,21,Female,1,2024/03/15_08:48:27,YZ,None,
,,,,,,calibration,0,20,2,679,1,F,0,right,0.8628075809974689,1,0,,,,,,,,,,,,,,,,,,,,,1,,,,,,,,,,,,,,,,,,,,,,,,,,,,,,,,,,,,,,,,,,,,,,92,158467,21,Female,1,2024/03/15_08:48:27,YZ,None,
,,,,,,calibration,0,20,2,679,2,C,0,right,0.6636805990128778,1,0,,,,,,,,,,,,,,,,,,,,,1,,,,,,,,,,,,,,,,,,,,,,,,,,,,,,,,,,,,,,,,,,,,,,92,158467,21,Female,1,2024/03/15_08:48:27,YZ,None,
,,,,,,calibration,0,20,2,679,3,N,0,right,0.4719221139966976,1,0,,,,,,,,,,,,,,,,,,,,,1,,,,,,,,,,,,,,,,,,,,,,,,,,,,,,,,,,,,,,,,,,,,,,92,158467,21,Female,1,2024/03/15_08:48:27,YZ,None,
,,,,,,calibration,0,20,2,679,4,C,1,right,0.7491944310022518,0,0,,,,,,,,,,,,,,,,,,,,,1,,,,,,,,,,,,,,,,,,,,,,,,,,,,,,,,,,,,,,,,,,,,,,92,158467,21,Female,1,2024/03/15_08:48:27,YZ,None,
,,,,,,calibration,0,20,2,679,5,S,0,left,0.5123654420021921,0,0,,,,,,,,,,,,,,,,,,,,,1,,,,,,,,,,,,,,,,,,,,,,,,,,,,,,,,,,,,,,,,,,,,,,92,158467,21,Female,1,2024/03/15_08:48:27,YZ,None,
,,,,,,calibration,0,20,2,679,6,C,1,left,0.7822415260015987,1,0,,,,,,,,,,,,,,,,,,,,,1,,,,,,,,,,,,,,,,,,,,,,,,,,,,,,,,,,,,,,,,,,,,,,92,158467,21,Female,1,2024/03/15_08:48:27,YZ,None,
,,,,,,calibration,0,20,2,679,7,N,0,right,0.31431093299761415,1,0,,,,,,,,,,,,,,,,,,,,,1,,,,,,,,,,,,,,,,,,,,,,,,,,,,,,,,,,,,,,,,,,,,,,92,158467,21,Female,1,2024/03/15_08:48:27,YZ,None,
,,,,,,calibration,0,20,2,679,8,C,1,left,0.568692631990416,1,0,,,,,,,,,,,,,,,,,,,,,1,,,,,,,,,,,,,,,,,,,,,,,,,,,,,,,,,,,,,,,,,,,,,,92,158467,21,Female,1,2024/03/15_08:48:27,YZ,None,
,,,,,,calibration,0,20,2,679,9,Q,0,right,0.5370731109869666,1,0,,,,,,,,,,,,,,,,,,,,,1,,,,,,,,,,,,,,,,,,,,,,,,,,,,,,,,,,,,,,,,,,,,,,92,158467,21,Female,1,2024/03/15_08:48:27,YZ,None,
,,,,,,calibration,0,20,2,679,10,F,0,right,0.5606036569806747,1,0,,,,,,,,,,,,,,,,,,,,,1,,,,,,,,,,,,,,,,,,,,,,,,,,,,,,,,,,,,,,,,,,,,,,92,158467,21,Female,1,2024/03/15_08:48:27,YZ,None,
,,,,,,calibration,0,20,2,679,11,Q,1,right,0.5587373260059394,0,0,,,,,,,,,,,,,,,,,,,,,1,,,,,,,,,,,,,,,,,,,,,,,,,,,,,,,,,,,,,,,,,,,,,,92,158467,21,Female,1,2024/03/15_08:48:27,YZ,None,
,,,,,,calibration,0,20,2,679,12,C,0,left,0.46537600297597237,0,0,,,,,,,,,,,,,,,,,,,,,1,,,,,,,,,,,,,,,,,,,,,,,,,,,,,,,,,,,,,,,,,,,,,,92,158467,21,Female,1,2024/03/15_08:48:27,YZ,None,
,,,,,,calibration,0,20,2,679,13,V,0,right,0.6426000570063479,1,0,,,,,,,,,,,,,,,,,,,,,1,,,,,,,,,,,,,,,,,,,,,,,,,,,,,,,,,,,,,,,,,,,,,,92,158467,21,Female,1,2024/03/15_08:48:27,YZ,None,
,,,,,,calibration,0,20,2,679,14,J,0,right,0.73590288698324,1,0,,,,,,,,,,,,,,,,,,,,,1,,,,,,,,,,,,,,,,,,,,,,,,,,,,,,,,,,,,,,,,,,,,,,92,158467,21,Female,1,2024/03/15_08:48:27,YZ,None,
,,,,,,calibration,0,20,2,679,,,,,,,,0.725,0.5,0.2,0.8,0.0,0.8,0.6018220213528755,2,2,0,0,0,8,10,4,10,0,,,,1,,,,,,,,,,,,,,,,,,,,,,,,,,,,,,,,,,,,,,,,,,,,,,92,158467,21,Female,1,2024/03/15_08:48:27,YZ,None,
,,,,,,Calibration,0,,2,679,,,,,,,,,,,,,,,,,,,,,,,,,6,,,1,,,,,,,,,,,,,,,,,,,,,,,,,,,,,,,,,,,,,,,,,,,,,,92,158467,21,Female,1,2024/03/15_08:48:27,YZ,None,
,,,,,,calibration,0,19,2,788,1,F,0,None,nan,0,1,,,,,,,,,,,,,,,,,,,,,1,,,,,,,,,,,,,,,,,,,,,,,,,,,,,,,,,,,,,,,,,,,,,,92,158467,21,Female,1,2024/03/15_08:48:27,YZ,None,
,,,,,,calibration,0,19,2,788,2,N,0,right,0.7088614990061615,1,0,,,,,,,,,,,,,,,,,,,,,1,,,,,,,,,,,,,,,,,,,,,,,,,,,,,,,,,,,,,,,,,,,,,,92,158467,21,Female,1,2024/03/15_08:48:27,YZ,None,
,,,,,,calibration,0,19,2,788,3,F,1,right,0.2766727819980588,0,0,,,,,,,,,,,,,,,,,,,,,1,,,,,,,,,,,,,,,,,,,,,,,,,,,,,,,,,,,,,,,,,,,,,,92,158467,21,Female,1,2024/03/15_08:48:27,YZ,None,
,,,,,,calibration,0,19,2,788,4,V,0,right,0.5648432369926013,1,0,,,,,,,,,,,,,,,,,,,,,1,,,,,,,,,,,,,,,,,,,,,,,,,,,,,,,,,,,,,,,,,,,,,,92,158467,21,Female,1,2024/03/15_08:48:27,YZ,None,
,,,,,,calibration,0,19,2,788,5,F,1,left,0.6095834899751935,1,0,,,,,,,,,,,,,,,,,,,,,1,,,,,,,,,,,,,,,,,,,,,,,,,,,,,,,,,,,,,,,,,,,,,,92,158467,21,Female,1,2024/03/15_08:48:27,YZ,None,
,,,,,,calibration,0,19,2,788,6,C,0,right,0.5740529390168376,1,0,,,,,,,,,,,,,,,,,,,,,1,,,,,,,,,,,,,,,,,,,,,,,,,,,,,,,,,,,,,,,,,,,,,,92,158467,21,Female,1,2024/03/15_08:48:27,YZ,None,
,,,,,,calibration,0,19,2,788,7,F,1,left,0.5396237740060315,1,0,,,,,,,,,,,,,,,,,,,,,1,,,,,,,,,,,,,,,,,,,,,,,,,,,,,,,,,,,,,,,,,,,,,,92,158467,21,Female,1,2024/03/15_08:48:27,YZ,None,
,,,,,,calibration,0,19,2,788,8,S,0,right,0.5843083790095989,1,0,,,,,,,,,,,,,,,,,,,,,1,,,,,,,,,,,,,,,,,,,,,,,,,,,,,,,,,,,,,,,,,,,,,,92,158467,21,Female,1,2024/03/15_08:48:27,YZ,None,
,,,,,,calibration,0,19,2,788,9,X,0,right,0.5257100189919583,1,0,,,,,,,,,,,,,,,,,,,,,1,,,,,,,,,,,,,,,,,,,,,,,,,,,,,,,,,,,,,,,,,,,,,,92,158467,21,Female,1,2024/03/15_08:48:27,YZ,None,
,,,,,,calibration,0,19,2,788,10,F,0,right,0.6075099649897311,1,0,,,,,,,,,,,,,,,,,,,,,1,,,,,,,,,,,,,,,,,,,,,,,,,,,,,,,,,,,,,,,,,,,,,,92,158467,21,Female,1,2024/03/15_08:48:27,YZ,None,
,,,,,,calibration,0,19,2,788,11,J,0,right,0.6731057070137467,1,0,,,,,,,,,,,,,,,,,,,,,1,,,,,,,,,,,,,,,,,,,,,,,,,,,,,,,,,,,,,,,,,,,,,,92,158467,21,Female,1,2024/03/15_08:48:27,YZ,None,
,,,,,,calibration,0,19,2,788,12,F,1,left,0.6424540209991392,1,0,,,,,,,,,,,,,,,,,,,,,1,,,,,,,,,,,,,,,,,,,,,,,,,,,,,,,,,,,,,,,,,,,,,,92,158467,21,Female,1,2024/03/15_08:48:27,YZ,None,
,,,,,,calibration,0,19,2,788,13,N,0,right,0.6313619949796703,1,0,,,,,,,,,,,,,,,,,,,,,1,,,,,,,,,,,,,,,,,,,,,,,,,,,,,,,,,,,,,,,,,,,,,,92,158467,21,Female,1,2024/03/15_08:48:27,YZ,None,
,,,,,,calibration,0,19,2,788,,,,,,,,0.9375,0.75,0.0,1.0,0.07692307692307693,0.9230769230769231,0.578173983914894,3,0,0,1,1,8,11,4,9,0,,,,1,,,,,,,,,,,,,,,,,,,,,,,,,,,,,,,,,,,,,,,,,,,,,,92,158467,21,Female,1,2024/03/15_08:48:27,YZ,None,
,,,,,,Calibration,0,,2,788,,,,,,,,,,,,,,,,,,,,,,,,,7,,,1,,,,,,,,,,,,,,,,,,,,,,,,,,,,,,,,,,,,,,,,,,,,,,92,158467,21,Female,1,2024/03/15_08:48:27,YZ,None,
,,,,,,calibration,0,12,2,679,1,V,0,right,0.8712415620102547,1,0,,,,,,,,,,,,,,,,,,,,,1,,,,,,,,,,,,,,,,,,,,,,,,,,,,,,,,,,,,,,,,,,,,,,92,158467,21,Female,1,2024/03/15_08:48:27,YZ,None,
,,,,,,calibration,0,12,2,679,2,N,0,right,0.2785516519797966,1,0,,,,,,,,,,,,,,,,,,,,,1,,,,,,,,,,,,,,,,,,,,,,,,,,,,,,,,,,,,,,,,,,,,,,92,158467,21,Female,1,2024/03/15_08:48:27,YZ,None,
,,,,,,calibration,0,12,2,679,3,V,1,left,0.6963971060176846,1,0,,,,,,,,,,,,,,,,,,,,,1,,,,,,,,,,,,,,,,,,,,,,,,,,,,,,,,,,,,,,,,,,,,,,92,158467,21,Female,1,2024/03/15_08:48:27,YZ,None,
,,,,,,calibration,0,12,2,679,4,Q,0,right,0.5239435880212113,1,0,,,,,,,,,,,,,,,,,,,,,1,,,,,,,,,,,,,,,,,,,,,,,,,,,,,,,,,,,,,,,,,,,,,,92,158467,21,Female,1,2024/03/15_08:48:27,YZ,None,
,,,,,,calibration,0,12,2,679,5,F,0,right,0.5126257779775187,1,0,,,,,,,,,,,,,,,,,,,,,1,,,,,,,,,,,,,,,,,,,,,,,,,,,,,,,,,,,,,,,,,,,,,,92,158467,21,Female,1,2024/03/15_08:48:27,YZ,None,
,,,,,,calibration,0,12,2,679,6,Q,1,left,0.7915242979943287,1,0,,,,,,,,,,,,,,,,,,,,,1,,,,,,,,,,,,,,,,,,,,,,,,,,,,,,,,,,,,,,,,,,,,,,92,158467,21,Female,1,2024/03/15_08:48:27,YZ,None,
,,,,,,calibration,0,12,2,679,7,N,0,right,0.25930658300057985,1,0,,,,,,,,,,,,,,,,,,,,,1,,,,,,,,,,,,,,,,,,,,,,,,,,,,,,,,,,,,,,,,,,,,,,92,158467,21,Female,1,2024/03/15_08:48:27,YZ,None,
,,,,,,calibration,0,12,2,679,8,S,0,right,0.557382453000173,1,0,,,,,,,,,,,,,,,,,,,,,1,,,,,,,,,,,,,,,,,,,,,,,,,,,,,,,,,,,,,,,,,,,,,,92,158467,21,Female,1,2024/03/15_08:48:27,YZ,None,
,,,,,,calibration,0,12,2,679,9,Q,0,left,0.5002279790060129,0,0,,,,,,,,,,,,,,,,,,,,,1,,,,,,,,,,,,,,,,,,,,,,,,,,,,,,,,,,,,,,,,,,,,,,92,158467,21,Female,1,2024/03/15_08:48:27,YZ,None,
,,,,,,calibration,0,12,2,679,10,X,0,right,0.4959048710006755,1,0,,,,,,,,,,,,,,,,,,,,,1,,,,,,,,,,,,,,,,,,,,,,,,,,,,,,,,,,,,,,,,,,,,,,92,158467,21,Female,1,2024/03/15_08:48:27,YZ,None,
,,,,,,calibration,0,12,2,679,11,J,0,right,0.7150553459941875,1,0,,,,,,,,,,,,,,,,,,,,,1,,,,,,,,,,,,,,,,,,,,,,,,,,,,,,,,,,,,,,,,,,,,,,92,158467,21,Female,1,2024/03/15_08:48:27,YZ,None,
,,,,,,calibration,0,12,2,679,12,X,1,right,0.8581421120034065,0,0,,,,,,,,,,,,,,,,,,,,,1,,,,,,,,,,,,,,,,,,,,,,,,,,,,,,,,,,,,,,,,,,,,,,92,158467,21,Female,1,2024/03/15_08:48:27,YZ,None,
,,,,,,calibration,0,12,2,679,13,C,0,left,0.6558914830093272,0,0,,,,,,,,,,,,,,,,,,,,,1,,,,,,,,,,,,,,,,,,,,,,,,,,,,,,,,,,,,,,,,,,,,,,92,158467,21,Female,1,2024/03/15_08:48:27,YZ,None,
,,,,,,calibration,0,12,2,679,14,X,1,left,0.8299562920001335,1,0,,,,,,,,,,,,,,,,,,,,,1,,,,,,,,,,,,,,,,,,,,,,,,,,,,,,,,,,,,,,,,,,,,,,92,158467,21,Female,1,2024/03/15_08:48:27,YZ,None,
,,,,,,calibration,0,12,2,679,,,,,,,,0.8374999999999999,0.75,0.2,0.8,0.0,0.8,0.6104393645010922,3,2,0,0,0,8,11,4,10,0,,,,1,,,,,,,,,,,,,,,,,,,,,,,,,,,,,,,,,,,,,,,,,,,,,,92,158467,21,Female,1,2024/03/15_08:48:27,YZ,None,
,,,,,,Calibration,0,,2,679,,,,,,,,,,,,,,,,,,,,,,,,,8,,,1,,,,,,,,,,,,,,,,,,,,,,,,,,,,,,,,,,,,,,,,,,,,,,92,158467,21,Female,1,2024/03/15_08:48:27,YZ,None,
,,,,,,calibration,0,25,2,679,1,F,0,right,1.56501335898065,1,0,,,,,,,,,,,,,,,,,,,,,1,,,,,,,,,,,,,,,,,,,,,,,,,,,,,,,,,,,,,,,,,,,,,,92,158467,21,Female,1,2024/03/15_08:48:27,YZ,None,
,,,,,,calibration,0,25,2,679,2,V,0,right,0.5344201730040368,1,0,,,,,,,,,,,,,,,,,,,,,1,,,,,,,,,,,,,,,,,,,,,,,,,,,,,,,,,,,,,,,,,,,,,,92,158467,21,Female,1,2024/03/15_08:48:27,YZ,None,
,,,,,,calibration,0,25,2,679,3,F,1,left,0.43951771600404754,1,0,,,,,,,,,,,,,,,,,,,,,1,,,,,,,,,,,,,,,,,,,,,,,,,,,,,,,,,,,,,,,,,,,,,,92,158467,21,Female,1,2024/03/15_08:48:27,YZ,None,
,,,,,,calibration,0,25,2,679,4,C,0,right,0.5721678860136308,1,0,,,,,,,,,,,,,,,,,,,,,1,,,,,,,,,,,,,,,,,,,,,,,,,,,,,,,,,,,,,,,,,,,,,,92,158467,21,Female,1,2024/03/15_08:48:27,YZ,None,
,,,,,,calibration,0,25,2,679,5,V,0,left,0.5783864590048324,0,0,,,,,,,,,,,,,,,,,,,,,1,,,,,,,,,,,,,,,,,,,,,,,,,,,,,,,,,,,,,,,,,,,,,,92,158467,21,Female,1,2024/03/15_08:48:27,YZ,None,
,,,,,,calibration,0,25,2,679,6,J,0,right,0.9659008879971225,1,0,,,,,,,,,,,,,,,,,,,,,1,,,,,,,,,,,,,,,,,,,,,,,,,,,,,,,,,,,,,,,,,,,,,,92,158467,21,Female,1,2024/03/15_08:48:27,YZ,None,
,,,,,,calibration,0,25,2,679,7,S,0,right,0.7247987489972729,1,0,,,,,,,,,,,,,,,,,,,,,1,,,,,,,,,,,,,,,,,,,,,,,,,,,,,,,,,,,,,,,,,,,,,,92,158467,21,Female,1,2024/03/15_08:48:27,YZ,None,
,,,,,,calibration,0,25,2,679,8,J,1,left,0.45697315598954447,1,0,,,,,,,,,,,,,,,,,,,,,1,,,,,,,,,,,,,,,,,,,,,,,,,,,,,,,,,,,,,,,,,,,,,,92,158467,21,Female,1,2024/03/15_08:48:27,YZ,None,
,,,,,,calibration,0,25,2,679,9,S,1,right,1.9773455609974917,0,0,,,,,,,,,,,,,,,,,,,,,1,,,,,,,,,,,,,,,,,,,,,,,,,,,,,,,,,,,,,,,,,,,,,,92,158467,21,Female,1,2024/03/15_08:48:27,YZ,None,
,,,,,,calibration,0,25,2,679,10,N,0,right,0.4398814550077077,1,0,,,,,,,,,,,,,,,,,,,,,1,,,,,,,,,,,,,,,,,,,,,,,,,,,,,,,,,,,,,,,,,,,,,,92,158467,21,Female,1,2024/03/15_08:48:27,YZ,None,
,,,,,,calibration,0,25,2,679,11,V,0,right,0.772467462986242,1,0,,,,,,,,,,,,,,,,,,,,,1,,,,,,,,,,,,,,,,,,,,,,,,,,,,,,,,,,,,,,,,,,,,,,92,158467,21,Female,1,2024/03/15_08:48:27,YZ,None,
,,,,,,calibration,0,25,2,679,12,C,0,right,0.7044043969945051,1,0,,,,,,,,,,,,,,,,,,,,,1,,,,,,,,,,,,,,,,,,,,,,,,,,,,,,,,,,,,,,,,,,,,,,92,158467,21,Female,1,2024/03/15_08:48:27,YZ,None,
,,,,,,calibration,0,25,2,679,13,V,1,left,0.3812277509714477,1,0,,,,,,,,,,,,,,,,,,,,,1,,,,,,,,,,,,,,,,,,,,,,,,,,,,,,,,,,,,,,,,,,,,,,92,158467,21,Female,1,2024/03/15_08:48:27,YZ,None,
,,,,,,calibration,0,25,2,679,14,N,0,right,0.36772574798669666,1,0,,,,,,,,,,,,,,,,,,,,,1,,,,,,,,,,,,,,,,,,,,,,,,,,,,,,,,,,,,,,,,,,,,,,92,158467,21,Female,1,2024/03/15_08:48:27,YZ,None,
,,,,,,calibration,0,25,2,679,,,,,,,,0.8875,0.75,0.1,0.9,0.0,0.9,0.7485879114953734,3,1,0,0,0,9,12,4,10,0,,,,1,,,,,,,,,,,,,,,,,,,,,,,,,,,,,,,,,,,,,,,,,,,,,,92,158467,21,Female,1,2024/03/15_08:48:27,YZ,None,
,,,,,,Calibration,0,,2,679,,,,,,,,,,,,,,,,,,,,,,,,,9,,,1,,,,,,,,,,,,,,,,,,,,,,,,,,,,,,,,,,,,,,,,,,,,,,92,158467,21,Female,1,2024/03/15_08:48:27,YZ,None,
,,,,,,calibration,0,19,2,583,1,C,0,right,1.0752439189818688,1,0,,,,,,,,,,,,,,,,,,,,,1,,,,,,,,,,,,,,,,,,,,,,,,,,,,,,,,,,,,,,,,,,,,,,92,158467,21,Female,1,2024/03/15_08:48:27,YZ,None,
,,,,,,calibration,0,19,2,583,2,F,0,right,0.4149496619938873,1,0,,,,,,,,,,,,,,,,,,,,,1,,,,,,,,,,,,,,,,,,,,,,,,,,,,,,,,,,,,,,,,,,,,,,92,158467,21,Female,1,2024/03/15_08:48:27,YZ,None,
,,,,,,calibration,0,19,2,583,3,V,0,right,0.6825574190006591,1,0,,,,,,,,,,,,,,,,,,,,,1,,,,,,,,,,,,,,,,,,,,,,,,,,,,,,,,,,,,,,,,,,,,,,92,158467,21,Female,1,2024/03/15_08:48:27,YZ,None,
,,,,,,calibration,0,19,2,583,4,N,0,left,0.46197133298846893,0,0,,,,,,,,,,,,,,,,,,,,,1,,,,,,,,,,,,,,,,,,,,,,,,,,,,,,,,,,,,,,,,,,,,,,92,158467,21,Female,1,2024/03/15_08:48:27,YZ,None,
,,,,,,calibration,0,19,2,583,5,Q,0,right,0.5123425450001378,1,0,,,,,,,,,,,,,,,,,,,,,1,,,,,,,,,,,,,,,,,,,,,,,,,,,,,,,,,,,,,,,,,,,,,,92,158467,21,Female,1,2024/03/15_08:48:27,YZ,None,
,,,,,,calibration,0,19,2,583,6,N,1,left,0.6601963859866373,1,0,,,,,,,,,,,,,,,,,,,,,1,,,,,,,,,,,,,,,,,,,,,,,,,,,,,,,,,,,,,,,,,,,,,,92,158467,21,Female,1,2024/03/15_08:48:27,YZ,None,
,,,,,,calibration,0,19,2,583,7,Q,1,left,0.808523237996269,1,0,,,,,,,,,,,,,,,,,,,,,1,,,,,,,,,,,,,,,,,,,,,,,,,,,,,,,,,,,,,,,,,,,,,,92,158467,21,Female,1,2024/03/15_08:48:27,YZ,None,
,,,,,,calibration,0,19,2,583,8,S,0,right,0.49161248200107366,1,0,,,,,,,,,,,,,,,,,,,,,1,,,,,,,,,,,,,,,,,,,,,,,,,,,,,,,,,,,,,,,,,,,,,,92,158467,21,Female,1,2024/03/15_08:48:27,YZ,None,
,,,,,,calibration,0,19,2,583,9,X,0,right,0.5737129450135399,1,0,,,,,,,,,,,,,,,,,,,,,1,,,,,,,,,,,,,,,,,,,,,,,,,,,,,,,,,,,,,,,,,,,,,,92,158467,21,Female,1,2024/03/15_08:48:27,YZ,None,
,,,,,,calibration,0,19,2,583,10,V,0,left,0.6107328090001829,0,0,,,,,,,,,,,,,,,,,,,,,1,,,,,,,,,,,,,,,,,,,,,,,,,,,,,,,,,,,,,,,,,,,,,,92,158467,21,Female,1,2024/03/15_08:48:27,YZ,None,
,,,,,,calibration,0,19,2,583,11,F,0,right,0.6646887350070756,1,0,,,,,,,,,,,,,,,,,,,,,1,,,,,,,,,,,,,,,,,,,,,,,,,,,,,,,,,,,,,,,,,,,,,,92,158467,21,Female,1,2024/03/15_08:48:27,YZ,None,
,,,,,,calibration,0,19,2,583,12,V,1,left,0.6081198870087974,1,0,,,,,,,,,,,,,,,,,,,,,1,,,,,,,,,,,,,,,,,,,,,,,,,,,,,,,,,,,,,,,,,,,,,,92,158467,21,Female,1,2024/03/15_08:48:27,YZ,None,
,,,,,,calibration,0,19,2,583,13,C,0,right,0.6357488200010266,1,0,,,,,,,,,,,,,,,,,,,,,1,,,,,,,,,,,,,,,,,,,,,,,,,,,,,,,,,,,,,,,,,,,,,,92,158467,21,Female,1,2024/03/15_08:48:27,YZ,None,
,,,,,,calibration,0,19,2,583,14,V,1,left,0.773576989013236,1,0,,,,,,,,,,,,,,,,,,,,,1,,,,,,,,,,,,,,,,,,,,,,,,,,,,,,,,,,,,,,,,,,,,,,92,158467,21,Female,1,2024/03/15_08:48:27,YZ,None,
,,,,,,calibration,0,19,2,583,15,N,0,left,0.3164328020066023,0,0,,,,,,,,,,,,,,,,,,,,,1,,,,,,,,,,,,,,,,,,,,,,,,,,,,,,,,,,,,,,,,,,,,,,92,158467,21,Female,1,2024/03/15_08:48:27,YZ,None,
,,,,,,calibration,0,19,2,583,,,,,,,,0.9318181818181819,1.0,0.2727272727272727,0.7272727272727273,0.0,0.7272727272727273,0.6193606647332975,4,3,0,0,0,8,12,4,11,0,,,,1,,,,,,,,,,,,,,,,,,,,,,,,,,,,,,,,,,,,,,,,,,,,,,92,158467,21,Female,1,2024/03/15_08:48:27,YZ,None,
,,,,,,Calibration,0,,2,583,,,,,,,,,,,,,,,,,,,,,,,,,10,,,1,,,,,,,,,,,,,,,,,,,,,,,,,,,,,,,,,,,,,,,,,,,,,,92,158467,21,Female,1,2024/03/15_08:48:27,YZ,None,
,,,,,,calibration,0,11,2,500,1,J,0,right,0.446777523990022,1,0,,,,,,,,,,,,,,,,,,,,,1,,,,,,,,,,,,,,,,,,,,,,,,,,,,,,,,,,,,,,,,,,,,,,92,158467,21,Female,1,2024/03/15_08:48:27,YZ,None,
,,,,,,calibration,0,11,2,500,2,S,0,left,0.42563014299958013,0,0,,,,,,,,,,,,,,,,,,,,,1,,,,,,,,,,,,,,,,,,,,,,,,,,,,,,,,,,,,,,,,,,,,,,92,158467,21,Female,1,2024/03/15_08:48:27,YZ,None,
,,,,,,calibration,0,11,2,500,3,J,1,right,0.48473922099219635,0,0,,,,,,,,,,,,,,,,,,,,,1,,,,,,,,,,,,,,,,,,,,,,,,,,,,,,,,,,,,,,,,,,,,,,92,158467,21,Female,1,2024/03/15_08:48:27,YZ,None,
,,,,,,calibration,0,11,2,500,4,C,0,left,0.40072557001258247,0,0,,,,,,,,,,,,,,,,,,,,,1,,,,,,,,,,,,,,,,,,,,,,,,,,,,,,,,,,,,,,,,,,,,,,92,158467,21,Female,1,2024/03/15_08:48:27,YZ,None,
,,,,,,calibration,0,11,2,500,5,S,0,right,0.43648890597978607,1,0,,,,,,,,,,,,,,,,,,,,,1,,,,,,,,,,,,,,,,,,,,,,,,,,,,,,,,,,,,,,,,,,,,,,92,158467,21,Female,1,2024/03/15_08:48:27,YZ,None,
,,,,,,calibration,0,11,2,500,6,C,1,left,0.5768847629951779,1,0,,,,,,,,,,,,,,,,,,,,,1,,,,,,,,,,,,,,,,,,,,,,,,,,,,,,,,,,,,,,,,,,,,,,92,158467,21,Female,1,2024/03/15_08:48:27,YZ,None,
,,,,,,calibration,0,11,2,500,7,J,0,left,0.5910280950192828,0,0,,,,,,,,,,,,,,,,,,,,,1,,,,,,,,,,,,,,,,,,,,,,,,,,,,,,,,,,,,,,,,,,,,,,92,158467,21,Female,1,2024/03/15_08:48:27,YZ,None,
,,,,,,calibration,0,11,2,500,8,N,0,right,0.9184090129856486,1,0,,,,,,,,,,,,,,,,,,,,,1,,,,,,,,,,,,,,,,,,,,,,,,,,,,,,,,,,,,,,,,,,,,,,92,158467,21,Female,1,2024/03/15_08:48:27,YZ,None,
,,,,,,calibration,0,11,2,500,9,V,0,left,0.9193307739915326,0,0,,,,,,,,,,,,,,,,,,,,,1,,,,,,,,,,,,,,,,,,,,,,,,,,,,,,,,,,,,,,,,,,,,,,92,158467,21,Female,1,2024/03/15_08:48:27,YZ,None,
,,,,,,calibration,0,11,2,500,10,N,1,left,0.8280713389976881,1,0,,,,,,,,,,,,,,,,,,,,,1,,,,,,,,,,,,,,,,,,,,,,,,,,,,,,,,,,,,,,,,,,,,,,92,158467,21,Female,1,2024/03/15_08:48:27,YZ,None,
,,,,,,calibration,0,11,2,500,11,C,0,right,0.37345722201280296,1,0,,,,,,,,,,,,,,,,,,,,,1,,,,,,,,,,,,,,,,,,,,,,,,,,,,,,,,,,,,,,,,,,,,,,92,158467,21,Female,1,2024/03/15_08:48:27,YZ,None,
,,,,,,calibration,0,11,2,500,12,S,0,left,0.7083055689872708,0,0,,,,,,,,,,,,,,,,,,,,,1,,,,,,,,,,,,,,,,,,,,,,,,,,,,,,,,,,,,,,,,,,,,,,92,158467,21,Female,1,2024/03/15_08:48:27,YZ,None,
,,,,,,calibration,0,11,2,500,13,C,1,left,0.6874529719934799,1,0,,,,,,,,,,,,,,,,,,,,,1,,,,,,,,,,,,,,,,,,,,,,,,,,,,,,,,,,,,,,,,,,,,,,92,158467,21,Female,1,2024/03/15_08:48:27,YZ,None,
,,,,,,calibration,0,11,2,500,14,J,0,right,0.5714035929995589,1,0,,,,,,,,,,,,,,,,,,,,,1,,,,,,,,,,,,,,,,,,,,,,,,,,,,,,,,,,,,,,,,,,,,,,92,158467,21,Female,1,2024/03/15_08:48:27,YZ,None,
,,,,,,calibration,0,11,2,500,15,X,0,left,0.45403257000725716,0,0,,,,,,,,,,,,,,,,,,,,,1,,,,,,,,,,,,,,,,,,,,,,,,,,,,,,,,,,,,,,,,,,,,,,92,158467,21,Female,1,2024/03/15_08:48:27,YZ,None,
,,,,,,calibration,0,11,2,500,16,Q,0,right,0.6320957010029815,1,0,,,,,,,,,,,,,,,,,,,,,1,,,,,,,,,,,,,,,,,,,,,,,,,,,,,,,,,,,,,,,,,,,,,,92,158467,21,Female,1,2024/03/15_08:48:27,YZ,None,
,,,,,,calibration,0,11,2,500,,,,,,,,0.6875,0.75,0.5,0.5,0.0,0.5,0.590927060935428,3,6,0,0,0,6,9,4,12,0,,,,1,,,,,,,,,,,,,,,,,,,,,,,,,,,,,,,,,,,,,,,,,,,,,,92,158467,21,Female,1,2024/03/15_08:48:27,YZ,None,
,,,,,,Calibration,0,,2,500,,,,,,,,,,,,,,,,,,,,,,,,,11,,,1,,,,,,,,,,,,,,,,,,,,,,,,,,,,,,,,,,,,,,,,,,,,,,92,158467,21,Female,1,2024/03/15_08:48:27,YZ,None,
,,,,,,calibration,0,29,2,583,1,X,0,right,0.44616906202281825,1,0,,,,,,,,,,,,,,,,,,,,,1,,,,,,,,,,,,,,,,,,,,,,,,,,,,,,,,,,,,,,,,,,,,,,92,158467,21,Female,1,2024/03/15_08:48:27,YZ,None,
,,,,,,calibration,0,29,2,583,2,Q,0,right,0.36163193901302293,1,0,,,,,,,,,,,,,,,,,,,,,1,,,,,,,,,,,,,,,,,,,,,,,,,,,,,,,,,,,,,,,,,,,,,,92,158467,21,Female,1,2024/03/15_08:48:27,YZ,None,
,,,,,,calibration,0,29,2,583,3,F,0,right,0.512494554015575,1,0,,,,,,,,,,,,,,,,,,,,,1,,,,,,,,,,,,,,,,,,,,,,,,,,,,,,,,,,,,,,,,,,,,,,92,158467,21,Female,1,2024/03/15_08:48:27,YZ,None,
,,,,,,calibration,0,29,2,583,4,Q,1,left,0.7079701810143888,1,0,,,,,,,,,,,,,,,,,,,,,1,,,,,,,,,,,,,,,,,,,,,,,,,,,,,,,,,,,,,,,,,,,,,,92,158467,21,Female,1,2024/03/15_08:48:27,YZ,None,
,,,,,,calibration,0,29,2,583,5,N,0,right,0.48543236299883574,1,0,,,,,,,,,,,,,,,,,,,,,1,,,,,,,,,,,,,,,,,,,,,,,,,,,,,,,,,,,,,,,,,,,,,,92,158467,21,Female,1,2024/03/15_08:48:27,YZ,None,
,,,,,,calibration,0,29,2,583,6,S,0,right,0.49681177601451054,1,0,,,,,,,,,,,,,,,,,,,,,1,,,,,,,,,,,,,,,,,,,,,,,,,,,,,,,,,,,,,,,,,,,,,,92,158467,21,Female,1,2024/03/15_08:48:27,YZ,None,
,,,,,,calibration,0,29,2,583,7,N,1,left,0.9739480309945066,1,0,,,,,,,,,,,,,,,,,,,,,1,,,,,,,,,,,,,,,,,,,,,,,,,,,,,,,,,,,,,,,,,,,,,,92,158467,21,Female,1,2024/03/15_08:48:27,YZ,None,
,,,,,,calibration,0,29,2,583,8,Q,0,left,0.9528148420213256,0,0,,,,,,,,,,,,,,,,,,,,,1,,,,,,,,,,,,,,,,,,,,,,,,,,,,,,,,,,,,,,,,,,,,,,92,158467,21,Female,1,2024/03/15_08:48:27,YZ,None,
,,,,,,calibration,0,29,2,583,9,V,0,right,0.4979032260016538,1,0,,,,,,,,,,,,,,,,,,,,,1,,,,,,,,,,,,,,,,,,,,,,,,,,,,,,,,,,,,,,,,,,,,,,92,158467,21,Female,1,2024/03/15_08:48:27,YZ,None,
,,,,,,calibration,0,29,2,583,10,N,0,right,0.39185527100926265,1,0,,,,,,,,,,,,,,,,,,,,,1,,,,,,,,,,,,,,,,,,,,,,,,,,,,,,,,,,,,,,,,,,,,,,92,158467,21,Female,1,2024/03/15_08:48:27,YZ,None,
,,,,,,calibration,0,29,2,583,11,V,1,right,0.5851445519947447,0,0,,,,,,,,,,,,,,,,,,,,,1,,,,,,,,,,,,,,,,,,,,,,,,,,,,,,,,,,,,,,,,,,,,,,92,158467,21,Female,1,2024/03/15_08:48:27,YZ,None,
,,,,,,calibration,0,29,2,583,12,X,0,left,0.5863228579983115,0,0,,,,,,,,,,,,,,,,,,,,,1,,,,,,,,,,,,,,,,,,,,,,,,,,,,,,,,,,,,,,,,,,,,,,92,158467,21,Female,1,2024/03/15_08:48:27,YZ,None,
,,,,,,calibration,0,29,2,583,13,C,0,right,0.29802153300261125,1,0,,,,,,,,,,,,,,,,,,,,,1,,,,,,,,,,,,,,,,,,,,,,,,,,,,,,,,,,,,,,,,,,,,,,92,158467,21,Female,1,2024/03/15_08:48:27,YZ,None,
,,,,,,calibration,0,29,2,583,14,X,1,left,0.5837946160172578,1,0,,,,,,,,,,,,,,,,,,,,,1,,,,,,,,,,,,,,,,,,,,,,,,,,,,,,,,,,,,,,,,,,,,,,92,158467,21,Female,1,2024/03/15_08:48:27,YZ,None,
,,,,,,calibration,0,29,2,583,15,V,0,left,0.773269317985978,0,0,,,,,,,,,,,,,,,,,,,,,1,,,,,,,,,,,,,,,,,,,,,,,,,,,,,,,,,,,,,,,,,,,,,,92,158467,21,Female,1,2024/03/15_08:48:27,YZ,None,
,,,,,,calibration,0,29,2,583,,,,,,,,0.8011363636363638,0.75,0.2727272727272727,0.7272727272727273,0.0,0.7272727272727273,0.5769056081403202,3,3,0,0,0,8,11,4,11,0,,,,1,,,,,,,,,,,,,,,,,,,,,,,,,,,,,,,,,,,,,,,,,,,,,,92,158467,21,Female,1,2024/03/15_08:48:27,YZ,None,
,,,,,,Calibration,0,,2,583,,,,,,,,,,,,,,,,,,,,,,,,,12,,,1,,,,,,,,,,,,,,,,,,,,,,,,,,,,,,,,,,,,,,,,,,,,,,92,158467,21,Female,1,2024/03/15_08:48:27,YZ,None,
,,,,,,calibration,0,28,2,583,1,V,0,right,0.4640884649998043,1,0,,,,,,,,,,,,,,,,,,,,,1,,,,,,,,,,,,,,,,,,,,,,,,,,,,,,,,,,,,,,,,,,,,,,92,158467,21,Female,1,2024/03/15_08:48:27,YZ,None,
,,,,,,calibration,0,28,2,583,2,Q,0,left,0.8785856719769072,0,0,,,,,,,,,,,,,,,,,,,,,1,,,,,,,,,,,,,,,,,,,,,,,,,,,,,,,,,,,,,,,,,,,,,,92,158467,21,Female,1,2024/03/15_08:48:27,YZ,None,
,,,,,,calibration,0,28,2,583,3,V,1,right,0.3013008549751248,0,0,,,,,,,,,,,,,,,,,,,,,1,,,,,,,,,,,,,,,,,,,,,,,,,,,,,,,,,,,,,,,,,,,,,,92,158467,21,Female,1,2024/03/15_08:48:27,YZ,None,
,,,,,,calibration,0,28,2,583,4,S,0,right,0.42337807299918495,1,0,,,,,,,,,,,,,,,,,,,,,1,,,,,,,,,,,,,,,,,,,,,,,,,,,,,,,,,,,,,,,,,,,,,,92,158467,21,Female,1,2024/03/15_08:48:27,YZ,None,
,,,,,,calibration,0,28,2,583,5,V,1,left,0.7947544459893834,1,0,,,,,,,,,,,,,,,,,,,,,1,,,,,,,,,,,,,,,,,,,,,,,,,,,,,,,,,,,,,,,,,,,,,,92,158467,21,Female,1,2024/03/15_08:48:27,YZ,None,
,,,,,,calibration,0,28,2,583,6,S,1,right,0.36515035599586554,0,0,,,,,,,,,,,,,,,,,,,,,1,,,,,,,,,,,,,,,,,,,,,,,,,,,,,,,,,,,,,,,,,,,,,,92,158467,21,Female,1,2024/03/15_08:48:27,YZ,None,
,,,,,,calibration,0,28,2,583,7,X,0,left,0.8477817779930774,0,0,,,,,,,,,,,,,,,,,,,,,1,,,,,,,,,,,,,,,,,,,,,,,,,,,,,,,,,,,,,,,,,,,,,,92,158467,21,Female,1,2024/03/15_08:48:27,YZ,None,
,,,,,,calibration,0,28,2,583,8,C,0,right,0.3725255409954116,1,0,,,,,,,,,,,,,,,,,,,,,1,,,,,,,,,,,,,,,,,,,,,,,,,,,,,,,,,,,,,,,,,,,,,,92,158467,21,Female,1,2024/03/15_08:48:27,YZ,None,
,,,,,,calibration,0,28,2,583,9,F,0,left,0.5005681549955625,0,0,,,,,,,,,,,,,,,,,,,,,1,,,,,,,,,,,,,,,,,,,,,,,,,,,,,,,,,,,,,,,,,,,,,,92,158467,21,Female,1,2024/03/15_08:48:27,YZ,None,
,,,,,,calibration,0,28,2,583,10,C,1,right,0.5382708559918683,0,0,,,,,,,,,,,,,,,,,,,,,1,,,,,,,,,,,,,,,,,,,,,,,,,,,,,,,,,,,,,,,,,,,,,,92,158467,21,Female,1,2024/03/15_08:48:27,YZ,None,
,,,,,,calibration,0,28,2,583,11,S,0,right,0.540096438024193,1,0,,,,,,,,,,,,,,,,,,,,,1,,,,,,,,,,,,,,,,,,,,,,,,,,,,,,,,,,,,,,,,,,,,,,92,158467,21,Female,1,2024/03/15_08:48:27,YZ,None,
,,,,,,calibration,0,28,2,583,12,C,1,left,0.9512212819827255,1,0,,,,,,,,,,,,,,,,,,,,,1,,,,,,,,,,,,,,,,,,,,,,,,,,,,,,,,,,,,,,,,,,,,,,92,158467,21,Female,1,2024/03/15_08:48:27,YZ,None,
,,,,,,calibration,0,28,2,583,13,Q,0,left,0.3160157639940735,0,0,,,,,,,,,,,,,,,,,,,,,1,,,,,,,,,,,,,,,,,,,,,,,,,,,,,,,,,,,,,,,,,,,,,,92,158467,21,Female,1,2024/03/15_08:48:27,YZ,None,
,,,,,,calibration,0,28,2,583,14,V,0,right,0.2955549939943012,1,0,,,,,,,,,,,,,,,,,,,,,1,,,,,,,,,,,,,,,,,,,,,,,,,,,,,,,,,,,,,,,,,,,,,,92,158467,21,Female,1,2024/03/15_08:48:27,YZ,None,
,,,,,,calibration,0,28,2,583,15,C,0,right,0.7904851339990273,1,0,,,,,,,,,,,,,,,,,,,,,1,,,,,,,,,,,,,,,,,,,,,,,,,,,,,,,,,,,,,,,,,,,,,,92,158467,21,Female,1,2024/03/15_08:48:27,YZ,None,
,,,,,,calibration,0,28,2,583,,,,,,,,0.5,0.4,0.4,0.6,0.0,0.6,0.5586518539271007,2,4,0,0,0,6,8,5,10,0,,,,1,,,,,,,,,,,,,,,,,,,,,,,,,,,,,,,,,,,,,,,,,,,,,,92,158467,21,Female,1,2024/03/15_08:48:27,YZ,None,
,,,,,,Calibration,0,,2,583,,,,,,,,,,,,,,,,,,,,,,,,,13,,,1,,,,,,,,,,,,,,,,,,,,,,,,,,,,,,,,,,,,,,,,,,,,,,92,158467,21,Female,1,2024/03/15_08:48:27,YZ,None,
,,,,,,calibration,0,15,2,679,1,C,0,right,0.4413493979955092,1,0,,,,,,,,,,,,,,,,,,,,,1,,,,,,,,,,,,,,,,,,,,,,,,,,,,,,,,,,,,,,,,,,,,,,92,158467,21,Female,1,2024/03/15_08:48:27,YZ,None,
,,,,,,calibration,0,15,2,679,2,S,0,left,0.49700541800120845,0,0,,,,,,,,,,,,,,,,,,,,,1,,,,,,,,,,,,,,,,,,,,,,,,,,,,,,,,,,,,,,,,,,,,,,92,158467,21,Female,1,2024/03/15_08:48:27,YZ,None,
,,,,,,calibration,0,15,2,679,3,X,0,right,0.31576332400436513,1,0,,,,,,,,,,,,,,,,,,,,,1,,,,,,,,,,,,,,,,,,,,,,,,,,,,,,,,,,,,,,,,,,,,,,92,158467,21,Female,1,2024/03/15_08:48:27,YZ,None,
,,,,,,calibration,0,15,2,679,4,S,1,right,0.42319588002283126,0,0,,,,,,,,,,,,,,,,,,,,,1,,,,,,,,,,,,,,,,,,,,,,,,,,,,,,,,,,,,,,,,,,,,,,92,158467,21,Female,1,2024/03/15_08:48:27,YZ,None,
,,,,,,calibration,0,15,2,679,5,V,0,right,0.5125996659917291,1,0,,,,,,,,,,,,,,,,,,,,,1,,,,,,,,,,,,,,,,,,,,,,,,,,,,,,,,,,,,,,,,,,,,,,92,158467,21,Female,1,2024/03/15_08:48:27,YZ,None,
,,,,,,calibration,0,15,2,679,6,F,0,left,0.2514055010105949,0,0,,,,,,,,,,,,,,,,,,,,,1,,,,,,,,,,,,,,,,,,,,,,,,,,,,,,,,,,,,,,,,,,,,,,92,158467,21,Female,1,2024/03/15_08:48:27,YZ,None,
,,,,,,calibration,0,15,2,679,7,C,0,right,0.4161309020128101,1,0,,,,,,,,,,,,,,,,,,,,,1,,,,,,,,,,,,,,,,,,,,,,,,,,,,,,,,,,,,,,,,,,,,,,92,158467,21,Female,1,2024/03/15_08:48:27,YZ,None,
,,,,,,calibration,0,15,2,679,8,Q,0,left,0.8733709230145905,0,0,,,,,,,,,,,,,,,,,,,,,1,,,,,,,,,,,,,,,,,,,,,,,,,,,,,,,,,,,,,,,,,,,,,,92,158467,21,Female,1,2024/03/15_08:48:27,YZ,None,
,,,,,,calibration,0,15,2,679,9,C,1,right,0.35488155198981985,0,0,,,,,,,,,,,,,,,,,,,,,1,,,,,,,,,,,,,,,,,,,,,,,,,,,,,,,,,,,,,,,,,,,,,,92,158467,21,Female,1,2024/03/15_08:48:27,YZ,None,
,,,,,,calibration,0,15,2,679,10,F,0,left,0.6985215480090119,0,0,,,,,,,,,,,,,,,,,,,,,1,,,,,,,,,,,,,,,,,,,,,,,,,,,,,,,,,,,,,,,,,,,,,,92,158467,21,Female,1,2024/03/15_08:48:27,YZ,None,
,,,,,,calibration,0,15,2,679,11,C,1,left,0.47028059599688277,1,0,,,,,,,,,,,,,,,,,,,,,1,,,,,,,,,,,,,,,,,,,,,,,,,,,,,,,,,,,,,,,,,,,,,,92,158467,21,Female,1,2024/03/15_08:48:27,YZ,None,
,,,,,,calibration,0,15,2,679,12,F,1,right,0.3592556350049563,0,0,,,,,,,,,,,,,,,,,,,,,1,,,,,,,,,,,,,,,,,,,,,,,,,,,,,,,,,,,,,,,,,,,,,,92,158467,21,Female,1,2024/03/15_08:48:27,YZ,None,
,,,,,,calibration,0,15,2,679,13,Q,0,left,0.45670529300696217,0,0,,,,,,,,,,,,,,,,,,,,,1,,,,,,,,,,,,,,,,,,,,,,,,,,,,,,,,,,,,,,,,,,,,,,92,158467,21,Female,1,2024/03/15_08:48:27,YZ,None,
,,,,,,calibration,0,15,2,679,14,V,0,right,0.6087051310169045,1,0,,,,,,,,,,,,,,,,,,,,,1,,,,,,,,,,,,,,,,,,,,,,,,,,,,,,,,,,,,,,,,,,,,,,92,158467,21,Female,1,2024/03/15_08:48:27,YZ,None,
,,,,,,calibration,0,15,2,679,,,,,,,,0.0625,0.25,0.5,0.5,0.0,0.5,0.4770836262198697,1,5,0,0,0,5,6,4,10,0,,,,1,,,,,,,,,,,,,,,,,,,,,,,,,,,,,,,,,,,,,,,,,,,,,,92,158467,21,Female,1,2024/03/15_08:48:27,YZ,None,
,,,,,,Calibration,0,,2,679,,,,,,,,,,,,,,,,,,,,,,,,,14,,,1,,,,,,,,,,,,,,,,,,,,,,,,,,,,,,,,,,,,,,,,,,,,,,92,158467,21,Female,1,2024/03/15_08:48:27,YZ,None,
,,,,,,calibration,0,25,2,788,1,X,0,right,0.57634814598714,1,0,,,,,,,,,,,,,,,,,,,,,1,,,,,,,,,,,,,,,,,,,,,,,,,,,,,,,,,,,,,,,,,,,,,,92,158467,21,Female,1,2024/03/15_08:48:27,YZ,None,
,,,,,,calibration,0,25,2,788,2,F,0,right,0.30936436299816705,1,0,,,,,,,,,,,,,,,,,,,,,1,,,,,,,,,,,,,,,,,,,,,,,,,,,,,,,,,,,,,,,,,,,,,,92,158467,21,Female,1,2024/03/15_08:48:27,YZ,None,
,,,,,,calibration,0,25,2,788,3,X,1,left,0.6415226870158222,1,0,,,,,,,,,,,,,,,,,,,,,1,,,,,,,,,,,,,,,,,,,,,,,,,,,,,,,,,,,,,,,,,,,,,,92,158467,21,Female,1,2024/03/15_08:48:27,YZ,None,
,,,,,,calibration,0,25,2,788,4,V,0,right,0.44731613801559433,1,0,,,,,,,,,,,,,,,,,,,,,1,,,,,,,,,,,,,,,,,,,,,,,,,,,,,,,,,,,,,,,,,,,,,,92,158467,21,Female,1,2024/03/15_08:48:27,YZ,None,
,,,,,,calibration,0,25,2,788,5,J,0,right,0.5593414779868908,1,0,,,,,,,,,,,,,,,,,,,,,1,,,,,,,,,,,,,,,,,,,,,,,,,,,,,,,,,,,,,,,,,,,,,,92,158467,21,Female,1,2024/03/15_08:48:27,YZ,None,
,,,,,,calibration,0,25,2,788,6,V,1,left,0.47955146699678153,1,0,,,,,,,,,,,,,,,,,,,,,1,,,,,,,,,,,,,,,,,,,,,,,,,,,,,,,,,,,,,,,,,,,,,,92,158467,21,Female,1,2024/03/15_08:48:27,YZ,None,
,,,,,,calibration,0,25,2,788,7,X,0,right,0.7410711659758817,1,0,,,,,,,,,,,,,,,,,,,,,1,,,,,,,,,,,,,,,,,,,,,,,,,,,,,,,,,,,,,,,,,,,,,,92,158467,21,Female,1,2024/03/15_08:48:27,YZ,None,
,,,,,,calibration,0,25,2,788,8,N,0,right,0.3723663109994959,1,0,,,,,,,,,,,,,,,,,,,,,1,,,,,,,,,,,,,,,,,,,,,,,,,,,,,,,,,,,,,,,,,,,,,,92,158467,21,Female,1,2024/03/15_08:48:27,YZ,None,
,,,,,,calibration,0,25,2,788,9,C,0,left,0.4414569649961777,0,0,,,,,,,,,,,,,,,,,,,,,1,,,,,,,,,,,,,,,,,,,,,,,,,,,,,,,,,,,,,,,,,,,,,,92,158467,21,Female,1,2024/03/15_08:48:27,YZ,None,
,,,,,,calibration,0,25,2,788,10,N,1,right,0.30462066098698415,0,0,,,,,,,,,,,,,,,,,,,,,1,,,,,,,,,,,,,,,,,,,,,,,,,,,,,,,,,,,,,,,,,,,,,,92,158467,21,Female,1,2024/03/15_08:48:27,YZ,None,
,,,,,,calibration,0,25,2,788,11,S,0,right,0.5250166700279806,1,0,,,,,,,,,,,,,,,,,,,,,1,,,,,,,,,,,,,,,,,,,,,,,,,,,,,,,,,,,,,,,,,,,,,,92,158467,21,Female,1,2024/03/15_08:48:27,YZ,None,
,,,,,,calibration,0,25,2,788,12,C,0,right,0.5411742980068084,1,0,,,,,,,,,,,,,,,,,,,,,1,,,,,,,,,,,,,,,,,,,,,,,,,,,,,,,,,,,,,,,,,,,,,,92,158467,21,Female,1,2024/03/15_08:48:27,YZ,None,
,,,,,,calibration,0,25,2,788,13,S,1,left,0.801609385991469,1,0,,,,,,,,,,,,,,,,,,,,,1,,,,,,,,,,,,,,,,,,,,,,,,,,,,,,,,,,,,,,,,,,,,,,92,158467,21,Female,1,2024/03/15_08:48:27,YZ,None,
,,,,,,calibration,0,25,2,788,,,,,,,,0.8819444444444444,0.75,0.1111111111111111,0.8888888888888888,0.0,0.8888888888888888,0.5185199796911687,3,1,0,0,0,8,11,4,9,0,,,,1,,,,,,,,,,,,,,,,,,,,,,,,,,,,,,,,,,,,,,,,,,,,,,92,158467,21,Female,1,2024/03/15_08:48:27,YZ,None,
,,,,,,Calibration,0,,2,788,,,,,,,,,,,,,,,,,,,,,,,,,15,,,1,,,,,,,,,,,,,,,,,,,,,,,,,,,,,,,,,,,,,,,,,,,,,,92,158467,21,Female,1,2024/03/15_08:48:27,YZ,None,
,,,,,,CALIBRATION,0,,,,,,,,,,,,,,,,,,,,,,,,,,,,15,0.8819444444444444,788,1,,,,,,,,,,,,,,,,,,,,,,,,,,,,,,,,,,,,,,,,,,,,,,92,158467,21,Female,1,2024/03/15_08:48:27,YZ,None,
1,./instructions/inst_prac_1/Slide24.png,right,50.160552207991714,496.29645755302045,546.4570097610122,,,,,,,,,,,,,,,,,,,,,,,,,,,,,,,,,1,,,,,,,,,,,,,,,,,,,,,,,,,,,,,,,,,,,,,,,,,,,,,,92,158467,21,Female,1,2024/03/15_08:48:27,YZ,None,
2,./instructions/inst_prac_1/Slide25.png,right,17.42993149999529,546.482950280013,563.9128817800083,,,,,,,,,,,,,,,,,,,,,,,,,,,,,,,,,1,,,,,,,,,,,,,,,,,,,,,,,,,,,,,,,,,,,,,,,,,,,,,,92,158467,21,Female,1,2024/03/15_08:48:27,YZ,None,
3,./instructions/inst_prac_1/Slide26.png,right,2.027333431004081,563.9417623030022,565.9690957340063,,,,,,,,,,,,,,,,,,,,,,,,,,,,,,,,,1,,,,,,,,,,,,,,,,,,,,,,,,,,,,,,,,,,,,,,,,,,,,,,92,158467,21,Female,1,2024/03/15_08:48:27,YZ,None,
4,./instructions/inst_prac_1/Slide27.png,right,1.0048185800260399,565.9960297590005,567.0008483390266,,,,,,,,,,,,,,,,,,,,,,,,,,,,,,,,,1,,,,,,,,,,,,,,,,,,,,,,,,,,,,,,,,,,,,,,,,,,,,,,92,158467,21,Female,1,2024/03/15_08:48:27,YZ,None,
3,./instructions/inst_prac_1/Slide28.png,left,1.2756842020025942,567.0295592350012,568.3052434370038,,,,,,,,,,,,,,,,,,,,,,,,,,,,,,,,,1,,,,,,,,,,,,,,,,,,,,,,,,,,,,,,,,,,,,,,,,,,,,,,92,158467,21,Female,1,2024/03/15_08:48:27,YZ,None,
4,./instructions/inst_prac_1/Slide27.png,right,0.6812609229818918,568.3279887960234,569.0092497190053,,,,,,,,,,,,,,,,,,,,,,,,,,,,,,,,,1,,,,,,,,,,,,,,,,,,,,,,,,,,,,,,,,,,,,,,,,,,,,,,92,158467,21,Female,1,2024/03/15_08:48:27,YZ,None,
5,./instructions/inst_prac_1/Slide28.png,right,0.4265880459861364,569.0384499560168,569.465038002003,,,,,,,,,,,,,,,,,,,,,,,,,,,,,,,,,1,,,,,,,,,,,,,,,,,,,,,,,,,,,,,,,,,,,,,,,,,,,,,,92,158467,21,Female,1,2024/03/15_08:48:27,YZ,None,
6,./instructions/inst_prac_1/Slide29.png,right,1.3873869459785055,569.4938149500231,570.8812018960016,,,,,,,,,,,,,,,,,,,,,,,,,,,,,,,,,1,,,,,,,,,,,,,,,,,,,,,,,,,,,,,,,,,,,,,,,,,,,,,,92,158467,21,Female,1,2024/03/15_08:48:27,YZ,None,
7,./instructions/inst_prac_1/Slide30.png,right,1.9469229289970826,570.9100410470273,572.8569639760244,,,,,,,,,,,,,,,,,,,,,,,,,,,,,,,,,1,,,,,,,,,,,,,,,,,,,,,,,,,,,,,,,,,,,,,,,,,,,,,,92,158467,21,Female,1,2024/03/15_08:48:27,YZ,None,
,,,,,,practice,0,30,1,1250,1,N,0,right,1.2885815119952895,1,0,,,,,,,,,,,,,,,,,,,,,1,,,,,,,,,,,,,,,,,,,,,,,,,,,,,,,,,,,,,,,,,,,,,,92,158467,21,Female,1,2024/03/15_08:48:27,YZ,None,
,,,,,,practice,0,30,1,1250,2,N,1,left,0.7424107719853055,1,0,,,,,,,,,,,,,,,,,,,,,1,,,,,,,,,,,,,,,,,,,,,,,,,,,,,,,,,,,,,,,,,,,,,,92,158467,21,Female,1,2024/03/15_08:48:27,YZ,None,
,,,,,,practice,0,30,1,1250,3,J,0,right,0.8598248409980442,1,0,,,,,,,,,,,,,,,,,,,,,1,,,,,,,,,,,,,,,,,,,,,,,,,,,,,,,,,,,,,,,,,,,,,,92,158467,21,Female,1,2024/03/15_08:48:27,YZ,None,
,,,,,,practice,0,30,1,1250,4,X,0,right,0.4791163770132698,1,0,,,,,,,,,,,,,,,,,,,,,1,,,,,,,,,,,,,,,,,,,,,,,,,,,,,,,,,,,,,,,,,,,,,,92,158467,21,Female,1,2024/03/15_08:48:27,YZ,None,
,,,,,,practice,0,30,1,1250,5,X,1,left,0.854544817993883,1,0,,,,,,,,,,,,,,,,,,,,,1,,,,,,,,,,,,,,,,,,,,,,,,,,,,,,,,,,,,,,,,,,,,,,92,158467,21,Female,1,2024/03/15_08:48:27,YZ,None,
,,,,,,practice,0,30,1,1250,6,J,0,right,1.168201930995565,1,0,,,,,,,,,,,,,,,,,,,,,1,,,,,,,,,,,,,,,,,,,,,,,,,,,,,,,,,,,,,,,,,,,,,,92,158467,21,Female,1,2024/03/15_08:48:27,YZ,None,
,,,,,,practice,0,30,1,1250,7,N,0,right,0.5899553000053857,1,0,,,,,,,,,,,,,,,,,,,,,1,,,,,,,,,,,,,,,,,,,,,,,,,,,,,,,,,,,,,,,,,,,,,,92,158467,21,Female,1,2024/03/15_08:48:27,YZ,None,
,,,,,,practice,0,30,1,1250,8,S,0,right,0.5027910979988519,1,0,,,,,,,,,,,,,,,,,,,,,1,,,,,,,,,,,,,,,,,,,,,,,,,,,,,,,,,,,,,,,,,,,,,,92,158467,21,Female,1,2024/03/15_08:48:27,YZ,None,
,,,,,,practice,0,30,1,1250,9,S,1,left,0.5732853150111623,1,0,,,,,,,,,,,,,,,,,,,,,1,,,,,,,,,,,,,,,,,,,,,,,,,,,,,,,,,,,,,,,,,,,,,,92,158467,21,Female,1,2024/03/15_08:48:27,YZ,None,
,,,,,,practice,0,30,1,1250,10,F,0,right,0.6036701140110381,1,0,,,,,,,,,,,,,,,,,,,,,1,,,,,,,,,,,,,,,,,,,,,,,,,,,,,,,,,,,,,,,,,,,,,,92,158467,21,Female,1,2024/03/15_08:48:27,YZ,None,
,,,,,,practice,0,30,1,1250,,,,,,,,1.0,1.0,0.0,1.0,0.0,1.0,0.7662382078007794,3,0,0,0,0,7,10,3,7,0,,,,1,,,,,,,,,,,,,,,,,,,,,,,,,,,,,,,,,,,,,,,,,,,,,,92,158467,21,Female,1,2024/03/15_08:48:27,YZ,None,
1,./instructions/inst_prac_1_next/Slide35.png,right,1.1148151340021286,591.0464667770138,592.161281911016,,,,,,,,,,,,,,,,,,,,,,,,,,,,,,,,,1,,,,,,,,,,,,,,,,,,,,,,,,,,,,,,,,,,,,,,,,,,,,,,92,158467,21,Female,1,2024/03/15_08:48:27,YZ,None,
,,,,,,practice,0,14,1,788,1,S,0,right,0.7161223570001312,1,0,,,,,,,,,,,,,,,,,,,,,1,,,,,,,,,,,,,,,,,,,,,,,,,,,,,,,,,,,,,,,,,,,,,,92,158467,21,Female,1,2024/03/15_08:48:27,YZ,None,
,,,,,,practice,0,14,1,788,2,V,0,right,0.4491414889926091,1,0,,,,,,,,,,,,,,,,,,,,,1,,,,,,,,,,,,,,,,,,,,,,,,,,,,,,,,,,,,,,,,,,,,,,92,158467,21,Female,1,2024/03/15_08:48:27,YZ,None,
,,,,,,practice,0,14,1,788,3,V,1,left,0.5383854240062647,1,0,,,,,,,,,,,,,,,,,,,,,1,,,,,,,,,,,,,,,,,,,,,,,,,,,,,,,,,,,,,,,,,,,,,,92,158467,21,Female,1,2024/03/15_08:48:27,YZ,None,
,,,,,,practice,0,14,1,788,4,Q,0,right,0.572429628984537,1,0,,,,,,,,,,,,,,,,,,,,,1,,,,,,,,,,,,,,,,,,,,,,,,,,,,,,,,,,,,,,,,,,,,,,92,158467,21,Female,1,2024/03/15_08:48:27,YZ,None,
,,,,,,practice,0,14,1,788,5,F,0,right,0.7845262209884822,1,0,,,,,,,,,,,,,,,,,,,,,1,,,,,,,,,,,,,,,,,,,,,,,,,,,,,,,,,,,,,,,,,,,,,,92,158467,21,Female,1,2024/03/15_08:48:27,YZ,None,
,,,,,,practice,0,14,1,788,6,F,1,left,0.4956942030112259,1,0,,,,,,,,,,,,,,,,,,,,,1,,,,,,,,,,,,,,,,,,,,,,,,,,,,,,,,,,,,,,,,,,,,,,92,158467,21,Female,1,2024/03/15_08:48:27,YZ,None,
,,,,,,practice,0,14,1,788,7,J,0,right,0.5325233059993479,1,0,,,,,,,,,,,,,,,,,,,,,1,,,,,,,,,,,,,,,,,,,,,,,,,,,,,,,,,,,,,,,,,,,,,,92,158467,21,Female,1,2024/03/15_08:48:27,YZ,None,
,,,,,,practice,0,14,1,788,8,S,0,right,0.436046863993397,1,0,,,,,,,,,,,,,,,,,,,,,1,,,,,,,,,,,,,,,,,,,,,,,,,,,,,,,,,,,,,,,,,,,,,,92,158467,21,Female,1,2024/03/15_08:48:27,YZ,None,
,,,,,,practice,0,14,1,788,9,S,1,right,0.4405649170221295,0,0,,,,,,,,,,,,,,,,,,,,,1,,,,,,,,,,,,,,,,,,,,,,,,,,,,,,,,,,,,,,,,,,,,,,92,158467,21,Female,1,2024/03/15_08:48:27,YZ,None,
,,,,,,practice,0,14,1,788,10,V,0,right,0.5681660219852347,1,0,,,,,,,,,,,,,,,,,,,,,1,,,,,,,,,,,,,,,,,,,,,,,,,,,,,,,,,,,,,,,,,,,,,,92,158467,21,Female,1,2024/03/15_08:48:27,YZ,None,
,,,,,,practice,0,14,1,788,11,F,0,right,0.6884423849987797,1,0,,,,,,,,,,,,,,,,,,,,,1,,,,,,,,,,,,,,,,,,,,,,,,,,,,,,,,,,,,,,,,,,,,,,92,158467,21,Female,1,2024/03/15_08:48:27,YZ,None,
,,,,,,practice,0,14,1,788,12,C,0,right,0.8572973569971509,1,0,,,,,,,,,,,,,,,,,,,,,1,,,,,,,,,,,,,,,,,,,,,,,,,,,,,,,,,,,,,,,,,,,,,,92,158467,21,Female,1,2024/03/15_08:48:27,YZ,None,
,,,,,,practice,0,14,1,788,13,C,1,left,0.6174677989911288,1,0,,,,,,,,,,,,,,,,,,,,,1,,,,,,,,,,,,,,,,,,,,,,,,,,,,,,,,,,,,,,,,,,,,,,92,158467,21,Female,1,2024/03/15_08:48:27,YZ,None,
,,,,,,practice,0,14,1,788,,,,,,,,0.9375,0.75,0.0,1.0,0.0,1.0,0.5920621517669553,3,0,0,0,0,9,12,4,9,0,,,,1,,,,,,,,,,,,,,,,,,,,,,,,,,,,,,,,,,,,,,,,,,,,,,92,158467,21,Female,1,2024/03/15_08:48:27,YZ,None,
,,,,,,practice,0,33,1,788,1,J,0,right,0.8445386009989306,1,0,,,,,,,,,,,,,,,,,,,,,1,,,,,,,,,,,,,,,,,,,,,,,,,,,,,,,,,,,,,,,,,,,,,,92,158467,21,Female,1,2024/03/15_08:48:27,YZ,None,
,,,,,,practice,0,33,1,788,2,V,0,right,0.3645558500138577,1,0,,,,,,,,,,,,,,,,,,,,,1,,,,,,,,,,,,,,,,,,,,,,,,,,,,,,,,,,,,,,,,,,,,,,92,158467,21,Female,1,2024/03/15_08:48:27,YZ,None,
,,,,,,practice,0,33,1,788,3,F,0,right,0.5291093889973126,1,0,,,,,,,,,,,,,,,,,,,,,1,,,,,,,,,,,,,,,,,,,,,,,,,,,,,,,,,,,,,,,,,,,,,,92,158467,21,Female,1,2024/03/15_08:48:27,YZ,None,
,,,,,,practice,0,33,1,788,4,F,1,left,0.4397022890043445,1,0,,,,,,,,,,,,,,,,,,,,,1,,,,,,,,,,,,,,,,,,,,,,,,,,,,,,,,,,,,,,,,,,,,,,92,158467,21,Female,1,2024/03/15_08:48:27,YZ,None,
,,,,,,practice,0,33,1,788,5,J,0,right,0.37577960098860785,1,0,,,,,,,,,,,,,,,,,,,,,1,,,,,,,,,,,,,,,,,,,,,,,,,,,,,,,,,,,,,,,,,,,,,,92,158467,21,Female,1,2024/03/15_08:48:27,YZ,None,
,,,,,,practice,0,33,1,788,6,F,0,left,0.665235552995,0,0,,,,,,,,,,,,,,,,,,,,,1,,,,,,,,,,,,,,,,,,,,,,,,,,,,,,,,,,,,,,,,,,,,,,92,158467,21,Female,1,2024/03/15_08:48:27,YZ,None,
,,,,,,practice,0,33,1,788,7,Q,0,right,1.2010155009920709,1,0,,,,,,,,,,,,,,,,,,,,,1,,,,,,,,,,,,,,,,,,,,,,,,,,,,,,,,,,,,,,,,,,,,,,92,158467,21,Female,1,2024/03/15_08:48:27,YZ,None,
,,,,,,practice,0,33,1,788,8,Q,1,left,0.6925590049941093,1,0,,,,,,,,,,,,,,,,,,,,,1,,,,,,,,,,,,,,,,,,,,,,,,,,,,,,,,,,,,,,,,,,,,,,92,158467,21,Female,1,2024/03/15_08:48:27,YZ,None,
,,,,,,practice,0,33,1,788,9,X,0,right,0.7078938710037619,1,0,,,,,,,,,,,,,,,,,,,,,1,,,,,,,,,,,,,,,,,,,,,,,,,,,,,,,,,,,,,,,,,,,,,,92,158467,21,Female,1,2024/03/15_08:48:27,YZ,None,
,,,,,,practice,0,33,1,788,10,X,1,right,0.6726300139853265,0,0,,,,,,,,,,,,,,,,,,,,,1,,,,,,,,,,,,,,,,,,,,,,,,,,,,,,,,,,,,,,,,,,,,,,92,158467,21,Female,1,2024/03/15_08:48:27,YZ,None,
,,,,,,practice,0,33,1,788,11,J,0,right,1.2962554469995666,1,0,,,,,,,,,,,,,,,,,,,,,1,,,,,,,,,,,,,,,,,,,,,,,,,,,,,,,,,,,,,,,,,,,,,,92,158467,21,Female,1,2024/03/15_08:48:27,YZ,None,
,,,,,,practice,0,33,1,788,12,C,0,left,0.549065442988649,0,0,,,,,,,,,,,,,,,,,,,,,1,,,,,,,,,,,,,,,,,,,,,,,,,,,,,,,,,,,,,,,,,,,,,,92,158467,21,Female,1,2024/03/15_08:48:27,YZ,None,
,,,,,,practice,0,33,1,788,13,C,1,left,0.7339423280209303,1,0,,,,,,,,,,,,,,,,,,,,,1,,,,,,,,,,,,,,,,,,,,,,,,,,,,,,,,,,,,,,,,,,,,,,92,158467,21,Female,1,2024/03/15_08:48:27,YZ,None,
,,,,,,practice,0,33,1,788,,,,,,,,0.8263888888888888,0.75,0.2222222222222222,0.7777777777777778,0.0,0.7777777777777778,0.6978679147678821,3,2,0,0,0,7,10,4,9,0,,,,1,,,,,,,,,,,,,,,,,,,,,,,,,,,,,,,,,,,,,,,,,,,,,,92,158467,21,Female,1,2024/03/15_08:48:27,YZ,None,
1,./instructions/inst_prac_3/Slide37.png,right,1.0785437659942545,626.6905486000178,627.769092366012,,,,,,,,,,,,,,,,,,,,,,,,,,,,,,,,,1,,,,,,,,,,,,,,,,,,,,,,,,,,,,,,,,,,,,,,,,,,,,,,92,158467,21,Female,1,2024/03/15_08:48:27,YZ,None,
2,./instructions/inst_prac_3/Slide38.png,right,2.0352148009988014,627.797951502027,629.8331663030258,,,,,,,,,,,,,,,,,,,,,,,,,,,,,,,,,1,,,,,,,,,,,,,,,,,,,,,,,,,,,,,,,,,,,,,,,,,,,,,,92,158467,21,Female,1,2024/03/15_08:48:27,YZ,None,
3,./instructions/inst_prac_3/Slide39.png,right,0.6933957459987141,629.8596658240131,630.5530615700118,,,,,,,,,,,,,,,,,,,,,,,,,,,,,,,,,1,,,,,,,,,,,,,,,,,,,,,,,,,,,,,,,,,,,,,,,,,,,,,,92,158467,21,Female,1,2024/03/15_08:48:27,YZ,None,
4,./instructions/inst_prac_3/Slide40.png,right,5.830709033005405,630.5784075400152,636.4091165730206,,,,,,,,,,,,,,,,,,,,,,,,,,,,,,,,,1,,,,,,,,,,,,,,,,,,,,,,,,,,,,,,,,,,,,,,,,,,,,,,92,158467,21,Female,1,2024/03/15_08:48:27,YZ,None,
5,./instructions/inst_prac_3/Slide41.png,right,3.706779655010905,636.4382587480068,640.1450384030177,,,,,,,,,,,,,,,,,,,,,,,,,,,,,,,,,1,,,,,,,,,,,,,,,,,,,,,,,,,,,,,,,,,,,,,,,,,,,,,,92,158467,21,Female,1,2024/03/15_08:48:27,YZ,None,
6,./instructions/inst_prac_3/Slide42.png,right,1.235204580007121,640.1737926170172,641.4089971970243,,,,,,,,,,,,,,,,,,,,,,,,,,,,,,,,,1,,,,,,,,,,,,,,,,,,,,,,,,,,,,,,,,,,,,,,,,,,,,,,92,158467,21,Female,1,2024/03/15_08:48:27,YZ,None,
7,./instructions/inst_prac_3/Slide43.png,right,0.8939920059929136,641.4350833590142,642.3290753650072,,,,,,,,,,,,,,,,,,,,,,,,,,,,,,,,,1,,,,,,,,,,,,,,,,,,,,,,,,,,,,,,,,,,,,,,,,,,,,,,92,158467,21,Female,1,2024/03/15_08:48:27,YZ,None,
8,./instructions/inst_prac_3/Slide44.png,right,0.8430022530083079,642.3578966210189,643.2008988740272,,,,,,,,,,,,,,,,,,,,,,,,,,,,,,,,,1,,,,,,,,,,,,,,,,,,,,,,,,,,,,,,,,,,,,,,,,,,,,,,92,158467,21,Female,1,2024/03/15_08:48:27,YZ,None,
,,,,,,practice,0,24,3,788,1,V,0,right,3.491184337006416,1,0,,,,,,,,,,,,,,,,,,,,,1,,,,,,,,,,,,,,,,,,,,,,,,,,,,,,,,,,,,,,,,,,,,,,92,158467,21,Female,1,2024/03/15_08:48:27,YZ,None,
,,,,,,practice,0,24,3,788,2,X,0,right,0.665915399993537,1,0,,,,,,,,,,,,,,,,,,,,,1,,,,,,,,,,,,,,,,,,,,,,,,,,,,,,,,,,,,,,,,,,,,,,92,158467,21,Female,1,2024/03/15_08:48:27,YZ,None,
,,,,,,practice,0,24,3,788,3,N,0,right,0.4608915740100201,1,0,,,,,,,,,,,,,,,,,,,,,1,,,,,,,,,,,,,,,,,,,,,,,,,,,,,,,,,,,,,,,,,,,,,,92,158467,21,Female,1,2024/03/15_08:48:27,YZ,None,
,,,,,,practice,0,24,3,788,4,S,0,right,0.6123444430122618,1,0,,,,,,,,,,,,,,,,,,,,,1,,,,,,,,,,,,,,,,,,,,,,,,,,,,,,,,,,,,,,,,,,,,,,92,158467,21,Female,1,2024/03/15_08:48:27,YZ,None,
,,,,,,practice,0,24,3,788,5,Q,0,right,0.9509860690159258,1,0,,,,,,,,,,,,,,,,,,,,,1,,,,,,,,,,,,,,,,,,,,,,,,,,,,,,,,,,,,,,,,,,,,,,92,158467,21,Female,1,2024/03/15_08:48:27,YZ,None,
,,,,,,practice,0,24,3,788,6,Q,0,right,0.6173098500003107,1,0,,,,,,,,,,,,,,,,,,,,,1,,,,,,,,,,,,,,,,,,,,,,,,,,,,,,,,,,,,,,,,,,,,,,92,158467,21,Female,1,2024/03/15_08:48:27,YZ,None,
,,,,,,practice,0,24,3,788,7,S,1,left,0.8221808040107135,1,0,,,,,,,,,,,,,,,,,,,,,1,,,,,,,,,,,,,,,,,,,,,,,,,,,,,,,,,,,,,,,,,,,,,,92,158467,21,Female,1,2024/03/15_08:48:27,YZ,None,
,,,,,,practice,0,24,3,788,8,N,0,right,0.5576601620123256,1,0,,,,,,,,,,,,,,,,,,,,,1,,,,,,,,,,,,,,,,,,,,,,,,,,,,,,,,,,,,,,,,,,,,,,92,158467,21,Female,1,2024/03/15_08:48:27,YZ,None,
,,,,,,practice,0,24,3,788,9,Q,1,left,1.4044946839858312,1,0,,,,,,,,,,,,,,,,,,,,,1,,,,,,,,,,,,,,,,,,,,,,,,,,,,,,,,,,,,,,,,,,,,,,92,158467,21,Female,1,2024/03/15_08:48:27,YZ,None,
,,,,,,practice,0,24,3,788,10,S,1,left,6.153541974024847,1,0,,,,,,,,,,,,,,,,,,,,,1,,,,,,,,,,,,,,,,,,,,,,,,,,,,,,,,,,,,,,,,,,,,,,92,158467,21,Female,1,2024/03/15_08:48:27,YZ,None,
,,,,,,practice,0,24,3,788,11,C,0,right,0.6673012870014645,1,0,,,,,,,,,,,,,,,,,,,,,1,,,,,,,,,,,,,,,,,,,,,,,,,,,,,,,,,,,,,,,,,,,,,,92,158467,21,Female,1,2024/03/15_08:48:27,YZ,None,
,,,,,,practice,0,24,3,788,12,X,0,right,0.521470422972925,1,0,,,,,,,,,,,,,,,,,,,,,1,,,,,,,,,,,,,,,,,,,,,,,,,,,,,,,,,,,,,,,,,,,,,,92,158467,21,Female,1,2024/03/15_08:48:27,YZ,None,
,,,,,,practice,0,24,3,788,13,S,1,left,0.5819235820090398,1,0,,,,,,,,,,,,,,,,,,,,,1,,,,,,,,,,,,,,,,,,,,,,,,,,,,,,,,,,,,,,,,,,,,,,92,158467,21,Female,1,2024/03/15_08:48:27,YZ,None,
,,,,,,practice,0,24,3,788,,,,,,,,1.0,1.0,0.0,1.0,0.0,1.0,1.3467080453119706,4,0,0,0,0,9,13,4,9,0,,,,1,,,,,,,,,,,,,,,,,,,,,,,,,,,,,,,,,,,,,,,,,,,,,,92,158467,21,Female,1,2024/03/15_08:48:27,YZ,None,
1,./instructions/inst_prac_3_next/Slide49.png,right,1.3550425090070348,674.3741281460098,675.7291706550168,,,,,,,,,,,,,,,,,,,,,,,,,,,,,,,,,1,,,,,,,,,,,,,,,,,,,,,,,,,,,,,,,,,,,,,,,,,,,,,,92,158467,21,Female,1,2024/03/15_08:48:27,YZ,None,
,,,,,,practice,0,18,3,788,1,S,0,right,1.6039151709992439,1,0,,,,,,,,,,,,,,,,,,,,,1,,,,,,,,,,,,,,,,,,,,,,,,,,,,,,,,,,,,,,,,,,,,,,92,158467,21,Female,1,2024/03/15_08:48:27,YZ,None,
,,,,,,practice,0,18,3,788,2,Q,0,right,0.41637284398893826,1,0,,,,,,,,,,,,,,,,,,,,,1,,,,,,,,,,,,,,,,,,,,,,,,,,,,,,,,,,,,,,,,,,,,,,92,158467,21,Female,1,2024/03/15_08:48:27,YZ,None,
,,,,,,practice,0,18,3,788,3,S,0,right,0.811702196020633,1,0,,,,,,,,,,,,,,,,,,,,,1,,,,,,,,,,,,,,,,,,,,,,,,,,,,,,,,,,,,,,,,,,,,,,92,158467,21,Female,1,2024/03/15_08:48:27,YZ,None,
,,,,,,practice,0,18,3,788,4,S,1,left,0.6365367789985612,1,0,,,,,,,,,,,,,,,,,,,,,1,,,,,,,,,,,,,,,,,,,,,,,,,,,,,,,,,,,,,,,,,,,,,,92,158467,21,Female,1,2024/03/15_08:48:27,YZ,None,
,,,,,,practice,0,18,3,788,5,Q,1,left,1.4214745319914073,1,0,,,,,,,,,,,,,,,,,,,,,1,,,,,,,,,,,,,,,,,,,,,,,,,,,,,,,,,,,,,,,,,,,,,,92,158467,21,Female,1,2024/03/15_08:48:27,YZ,None,
,,,,,,practice,0,18,3,788,6,J,0,right,0.596624661993701,1,0,,,,,,,,,,,,,,,,,,,,,1,,,,,,,,,,,,,,,,,,,,,,,,,,,,,,,,,,,,,,,,,,,,,,92,158467,21,Female,1,2024/03/15_08:48:27,YZ,None,
,,,,,,practice,0,18,3,788,7,S,1,right,1.7289491569972597,0,0,,,,,,,,,,,,,,,,,,,,,1,,,,,,,,,,,,,,,,,,,,,,,,,,,,,,,,,,,,,,,,,,,,,,92,158467,21,Female,1,2024/03/15_08:48:27,YZ,None,
,,,,,,practice,0,18,3,788,8,S,0,left,0.7603842660028022,0,0,,,,,,,,,,,,,,,,,,,,,1,,,,,,,,,,,,,,,,,,,,,,,,,,,,,,,,,,,,,,,,,,,,,,92,158467,21,Female,1,2024/03/15_08:48:27,YZ,None,
,,,,,,practice,0,18,3,788,9,J,1,left,1.5162383480055723,1,0,,,,,,,,,,,,,,,,,,,,,1,,,,,,,,,,,,,,,,,,,,,,,,,,,,,,,,,,,,,,,,,,,,,,92,158467,21,Female,1,2024/03/15_08:48:27,YZ,None,
,,,,,,practice,0,18,3,788,10,J,0,right,0.7650323069829028,1,0,,,,,,,,,,,,,,,,,,,,,1,,,,,,,,,,,,,,,,,,,,,,,,,,,,,,,,,,,,,,,,,,,,,,92,158467,21,Female,1,2024/03/15_08:48:27,YZ,None,
,,,,,,practice,0,18,3,788,11,F,0,right,1.5521991800051183,1,0,,,,,,,,,,,,,,,,,,,,,1,,,,,,,,,,,,,,,,,,,,,,,,,,,,,,,,,,,,,,,,,,,,,,92,158467,21,Female,1,2024/03/15_08:48:27,YZ,None,
,,,,,,practice,0,18,3,788,12,F,0,right,1.0127978280070238,1,0,,,,,,,,,,,,,,,,,,,,,1,,,,,,,,,,,,,,,,,,,,,,,,,,,,,,,,,,,,,,,,,,,,,,92,158467,21,Female,1,2024/03/15_08:48:27,YZ,None,
,,,,,,practice,0,18,3,788,13,S,0,left,0.9248384449747391,0,0,,,,,,,,,,,,,,,,,,,,,1,,,,,,,,,,,,,,,,,,,,,,,,,,,,,,,,,,,,,,,,,,,,,,92,158467,21,Female,1,2024/03/15_08:48:27,YZ,None,
,,,,,,practice,0,18,3,788,,,,,,,,0.8263888888888888,0.75,0.2222222222222222,0.7777777777777778,0.0,0.7777777777777778,1.0574665934590695,3,2,0,0,0,7,10,4,9,0,,,,1,,,,,,,,,,,,,,,,,,,,,,,,,,,,,,,,,,,,,,,,,,,,,,92,158467,21,Female,1,2024/03/15_08:48:27,YZ,None,
,,,,,,practice,0,8,3,788,1,N,0,right,0.5195041069819126,1,0,,,,,,,,,,,,,,,,,,,,,1,,,,,,,,,,,,,,,,,,,,,,,,,,,,,,,,,,,,,,,,,,,,,,92,158467,21,Female,1,2024/03/15_08:48:27,YZ,None,
,,,,,,practice,0,8,3,788,2,F,0,right,0.3679293719760608,1,0,,,,,,,,,,,,,,,,,,,,,1,,,,,,,,,,,,,,,,,,,,,,,,,,,,,,,,,,,,,,,,,,,,,,92,158467,21,Female,1,2024/03/15_08:48:27,YZ,None,
,,,,,,practice,0,8,3,788,3,C,0,right,0.41174521401990205,1,0,,,,,,,,,,,,,,,,,,,,,1,,,,,,,,,,,,,,,,,,,,,,,,,,,,,,,,,,,,,,,,,,,,,,92,158467,21,Female,1,2024/03/15_08:48:27,YZ,None,
,,,,,,practice,0,8,3,788,4,N,1,left,1.1055671260110103,1,0,,,,,,,,,,,,,,,,,,,,,1,,,,,,,,,,,,,,,,,,,,,,,,,,,,,,,,,,,,,,,,,,,,,,92,158467,21,Female,1,2024/03/15_08:48:27,YZ,None,
,,,,,,practice,0,8,3,788,5,N,0,right,1.140480371977901,1,0,,,,,,,,,,,,,,,,,,,,,1,,,,,,,,,,,,,,,,,,,,,,,,,,,,,,,,,,,,,,,,,,,,,,92,158467,21,Female,1,2024/03/15_08:48:27,YZ,None,
,,,,,,practice,0,8,3,788,6,Q,0,left,1.8366806890117005,0,0,,,,,,,,,,,,,,,,,,,,,1,,,,,,,,,,,,,,,,,,,,,,,,,,,,,,,,,,,,,,,,,,,,,,92,158467,21,Female,1,2024/03/15_08:48:27,YZ,None,
,,,,,,practice,0,8,3,788,7,J,0,left,1.0014192840026226,0,0,,,,,,,,,,,,,,,,,,,,,1,,,,,,,,,,,,,,,,,,,,,,,,,,,,,,,,,,,,,,,,,,,,,,92,158467,21,Female,1,2024/03/15_08:48:27,YZ,None,
,,,,,,practice,0,8,3,788,8,V,0,right,0.8470820369839203,1,0,,,,,,,,,,,,,,,,,,,,,1,,,,,,,,,,,,,,,,,,,,,,,,,,,,,,,,,,,,,,,,,,,,,,92,158467,21,Female,1,2024/03/15_08:48:27,YZ,None,
,,,,,,practice,0,8,3,788,9,Q,1,right,1.1597053350124042,0,0,,,,,,,,,,,,,,,,,,,,,1,,,,,,,,,,,,,,,,,,,,,,,,,,,,,,,,,,,,,,,,,,,,,,92,158467,21,Female,1,2024/03/15_08:48:27,YZ,None,
,,,,,,practice,0,8,3,788,10,J,1,left,0.5813523700053338,1,0,,,,,,,,,,,,,,,,,,,,,1,,,,,,,,,,,,,,,,,,,,,,,,,,,,,,,,,,,,,,,,,,,,,,92,158467,21,Female,1,2024/03/15_08:48:27,YZ,None,
,,,,,,practice,0,8,3,788,11,S,0,left,0.8684781129995827,0,0,,,,,,,,,,,,,,,,,,,,,1,,,,,,,,,,,,,,,,,,,,,,,,,,,,,,,,,,,,,,,,,,,,,,92,158467,21,Female,1,2024/03/15_08:48:27,YZ,None,
,,,,,,practice,0,8,3,788,12,S,0,right,0.607510473986622,1,0,,,,,,,,,,,,,,,,,,,,,1,,,,,,,,,,,,,,,,,,,,,,,,,,,,,,,,,,,,,,,,,,,,,,92,158467,21,Female,1,2024/03/15_08:48:27,YZ,None,
,,,,,,practice,0,8,3,788,13,J,1,right,0.8000161809904967,0,0,,,,,,,,,,,,,,,,,,,,,1,,,,,,,,,,,,,,,,,,,,,,,,,,,,,,,,,,,,,,,,,,,,,,92,158467,21,Female,1,2024/03/15_08:48:27,YZ,None,
,,,,,,practice,0,8,3,788,,,,,,,,0.625,0.5,0.3333333333333333,0.6666666666666666,0.0,0.6666666666666667,0.8651900518430361,2,3,0,0,0,6,8,4,9,0,,,,1,,,,,,,,,,,,,,,,,,,,,,,,,,,,,,,,,,,,,,,,,,,,,,92,158467,21,Female,1,2024/03/15_08:48:27,YZ,None,
1,./instructions/inst_redo_3/Slide47.png,right,1.6390895360091235,716.9538817690045,718.5929713050136,,,,,,,,,,,,,,,,,,,,,,,,,,,,,,,,,1,,,,,,,,,,,,,,,,,,,,,,,,,,,,,,,,,,,,,,,,,,,,,,92,158467,21,Female,1,2024/03/15_08:48:27,YZ,None,
,,,,,,practice,0,3,3,788,1,J,0,right,0.6826431889785454,1,0,,,,,,,,,,,,,,,,,,,,,1,,,,,,,,,,,,,,,,,,,,,,,,,,,,,,,,,,,,,,,,,,,,,,92,158467,21,Female,1,2024/03/15_08:48:27,YZ,None,
,,,,,,practice,0,3,3,788,2,C,0,right,0.19611280999379233,1,0,,,,,,,,,,,,,,,,,,,,,1,,,,,,,,,,,,,,,,,,,,,,,,,,,,,,,,,,,,,,,,,,,,,,92,158467,21,Female,1,2024/03/15_08:48:27,YZ,None,
,,,,,,practice,0,3,3,788,3,X,0,right,0.34491835700464435,1,0,,,,,,,,,,,,,,,,,,,,,1,,,,,,,,,,,,,,,,,,,,,,,,,,,,,,,,,,,,,,,,,,,,,,92,158467,21,Female,1,2024/03/15_08:48:27,YZ,None,
,,,,,,practice,0,3,3,788,4,Q,0,right,0.6085270859766752,1,0,,,,,,,,,,,,,,,,,,,,,1,,,,,,,,,,,,,,,,,,,,,,,,,,,,,,,,,,,,,,,,,,,,,,92,158467,21,Female,1,2024/03/15_08:48:27,YZ,None,
,,,,,,practice,0,3,3,788,5,N,0,left,0.45692353398771957,0,0,,,,,,,,,,,,,,,,,,,,,1,,,,,,,,,,,,,,,,,,,,,,,,,,,,,,,,,,,,,,,,,,,,,,92,158467,21,Female,1,2024/03/15_08:48:27,YZ,None,
,,,,,,practice,0,3,3,788,6,X,1,right,0.7606249119853601,0,0,,,,,,,,,,,,,,,,,,,,,1,,,,,,,,,,,,,,,,,,,,,,,,,,,,,,,,,,,,,,,,,,,,,,92,158467,21,Female,1,2024/03/15_08:48:27,YZ,None,
,,,,,,practice,0,3,3,788,7,Q,1,right,0.7565136160119437,0,0,,,,,,,,,,,,,,,,,,,,,1,,,,,,,,,,,,,,,,,,,,,,,,,,,,,,,,,,,,,,,,,,,,,,92,158467,21,Female,1,2024/03/15_08:48:27,YZ,None,
,,,,,,practice,0,3,3,788,8,V,0,left,1.024503579013981,0,0,,,,,,,,,,,,,,,,,,,,,1,,,,,,,,,,,,,,,,,,,,,,,,,,,,,,,,,,,,,,,,,,,,,,92,158467,21,Female,1,2024/03/15_08:48:27,YZ,None,
,,,,,,practice,0,3,3,788,9,Q,0,right,0.6279036070045549,1,0,,,,,,,,,,,,,,,,,,,,,1,,,,,,,,,,,,,,,,,,,,,,,,,,,,,,,,,,,,,,,,,,,,,,92,158467,21,Female,1,2024/03/15_08:48:27,YZ,None,
,,,,,,practice,0,3,3,788,10,F,0,right,0.994208529999014,1,0,,,,,,,,,,,,,,,,,,,,,1,,,,,,,,,,,,,,,,,,,,,,,,,,,,,,,,,,,,,,,,,,,,,,92,158467,21,Female,1,2024/03/15_08:48:27,YZ,None,
,,,,,,practice,0,3,3,788,11,X,0,left,0.9086921109992545,0,0,,,,,,,,,,,,,,,,,,,,,1,,,,,,,,,,,,,,,,,,,,,,,,,,,,,,,,,,,,,,,,,,,,,,92,158467,21,Female,1,2024/03/15_08:48:27,YZ,None,
,,,,,,practice,0,3,3,788,12,Q,1,right,0.5857639260066207,0,0,,,,,,,,,,,,,,,,,,,,,1,,,,,,,,,,,,,,,,,,,,,,,,,,,,,,,,,,,,,,,,,,,,,,92,158467,21,Female,1,2024/03/15_08:48:27,YZ,None,
,,,,,,practice,0,3,3,788,13,F,1,right,1.1047311929869466,0,0,,,,,,,,,,,,,,,,,,,,,1,,,,,,,,,,,,,,,,,,,,,,,,,,,,,,,,,,,,,,,,,,,,,,92,158467,21,Female,1,2024/03/15_08:48:27,YZ,None,
,,,,,,practice,0,3,3,788,,,,,,,,0.16666666666666669,0.0,0.3333333333333333,0.6666666666666666,0.0,0.6666666666666667,0.6963128038422348,0,3,0,0,0,6,6,4,9,0,,,,1,,,,,,,,,,,,,,,,,,,,,,,,,,,,,,,,,,,,,,,,,,,,,,92,158467,21,Female,1,2024/03/15_08:48:27,YZ,None,
1,./instructions/inst_redo_3/Slide47.png,right,1.0410618660098407,735.5358916940168,736.5769535600266,,,,,,,,,,,,,,,,,,,,,,,,,,,,,,,,,1,,,,,,,,,,,,,,,,,,,,,,,,,,,,,,,,,,,,,,,,,,,,,,92,158467,21,Female,1,2024/03/15_08:48:27,YZ,None,
,,,,,,practice,0,11,3,788,1,V,0,right,0.4601804380072281,1,0,,,,,,,,,,,,,,,,,,,,,1,,,,,,,,,,,,,,,,,,,,,,,,,,,,,,,,,,,,,,,,,,,,,,92,158467,21,Female,1,2024/03/15_08:48:27,YZ,None,
,,,,,,practice,0,11,3,788,2,N,0,right,0.3638898780045565,1,0,,,,,,,,,,,,,,,,,,,,,1,,,,,,,,,,,,,,,,,,,,,,,,,,,,,,,,,,,,,,,,,,,,,,92,158467,21,Female,1,2024/03/15_08:48:27,YZ,None,
,,,,,,practice,0,11,3,788,3,N,0,right,0.8585308769834228,1,0,,,,,,,,,,,,,,,,,,,,,1,,,,,,,,,,,,,,,,,,,,,,,,,,,,,,,,,,,,,,,,,,,,,,92,158467,21,Female,1,2024/03/15_08:48:27,YZ,None,
,,,,,,practice,0,11,3,788,4,Q,0,left,0.6826165499805938,0,0,,,,,,,,,,,,,,,,,,,,,1,,,,,,,,,,,,,,,,,,,,,,,,,,,,,,,,,,,,,,,,,,,,,,92,158467,21,Female,1,2024/03/15_08:48:27,YZ,None,
,,,,,,practice,0,11,3,788,5,N,1,left,1.581160986010218,1,0,,,,,,,,,,,,,,,,,,,,,1,,,,,,,,,,,,,,,,,,,,,,,,,,,,,,,,,,,,,,,,,,,,,,92,158467,21,Female,1,2024/03/15_08:48:27,YZ,None,
,,,,,,practice,0,11,3,788,6,Q,0,left,0.9000815470062662,0,0,,,,,,,,,,,,,,,,,,,,,1,,,,,,,,,,,,,,,,,,,,,,,,,,,,,,,,,,,,,,,,,,,,,,92,158467,21,Female,1,2024/03/15_08:48:27,YZ,None,
,,,,,,practice,0,11,3,788,7,J,0,right,0.4120686529786326,1,0,,,,,,,,,,,,,,,,,,,,,1,,,,,,,,,,,,,,,,,,,,,,,,,,,,,,,,,,,,,,,,,,,,,,92,158467,21,Female,1,2024/03/15_08:48:27,YZ,None,
,,,,,,practice,0,11,3,788,8,N,1,left,1.337511613004608,1,0,,,,,,,,,,,,,,,,,,,,,1,,,,,,,,,,,,,,,,,,,,,,,,,,,,,,,,,,,,,,,,,,,,,,92,158467,21,Female,1,2024/03/15_08:48:27,YZ,None,
,,,,,,practice,0,11,3,788,9,V,0,right,0.5730131620075554,1,0,,,,,,,,,,,,,,,,,,,,,1,,,,,,,,,,,,,,,,,,,,,,,,,,,,,,,,,,,,,,,,,,,,,,92,158467,21,Female,1,2024/03/15_08:48:27,YZ,None,
,,,,,,practice,0,11,3,788,10,J,1,right,2.0578756199975032,0,0,,,,,,,,,,,,,,,,,,,,,1,,,,,,,,,,,,,,,,,,,,,,,,,,,,,,,,,,,,,,,,,,,,,,92,158467,21,Female,1,2024/03/15_08:48:27,YZ,None,
,,,,,,practice,0,11,3,788,11,F,0,left,0.6330668430018704,0,0,,,,,,,,,,,,,,,,,,,,,1,,,,,,,,,,,,,,,,,,,,,,,,,,,,,,,,,,,,,,,,,,,,,,92,158467,21,Female,1,2024/03/15_08:48:27,YZ,None,
,,,,,,practice,0,11,3,788,12,X,0,right,0.7095026739989407,1,0,,,,,,,,,,,,,,,,,,,,,1,,,,,,,,,,,,,,,,,,,,,,,,,,,,,,,,,,,,,,,,,,,,,,92,158467,21,Female,1,2024/03/15_08:48:27,YZ,None,
,,,,,,practice,0,11,3,788,13,J,1,left,0.7882525879831519,1,0,,,,,,,,,,,,,,,,,,,,,1,,,,,,,,,,,,,,,,,,,,,,,,,,,,,,,,,,,,,,,,,,,,,,92,158467,21,Female,1,2024/03/15_08:48:27,YZ,None,
,,,,,,practice,0,11,3,788,,,,,,,,0.7708333333333333,0.75,0.3333333333333333,0.6666666666666666,0.0,0.6666666666666667,0.8736731868434268,3,3,0,0,0,6,9,4,9,0,,,,1,,,,,,,,,,,,,,,,,,,,,,,,,,,,,,,,,,,,,,,,,,,,,,92,158467,21,Female,1,2024/03/15_08:48:27,YZ,None,
1,./instructions/inst_prac_main/Slide51.png,right,2.487100244994508,757.3140351270267,759.8011353720212,,,,,,,,,,,,,,,,,,,,,,,,,,,,,,,,,1,,,,,,,,,,,,,,,,,,,,,,,,,,,,,,,,,,,,,,,,,,,,,,92,158467,21,Female,1,2024/03/15_08:48:27,YZ,None,
2,./instructions/inst_prac_main/Slide52.png,right,28.64263843500521,759.8304425480019,788.4730809830071,,,,,,,,,,,,,,,,,,,,,,,,,,,,,,,,,1,,,,,,,,,,,,,,,,,,,,,,,,,,,,,,,,,,,,,,,,,,,,,,92,158467,21,Female,1,2024/03/15_08:48:27,YZ,None,
1,./instructions/inst_prac_main/Slide53.png,left,3.7308992850012146,788.5021214070148,792.233020692016,,,,,,,,,,,,,,,,,,,,,,,,,,,,,,,,,1,,,,,,,,,,,,,,,,,,,,,,,,,,,,,,,,,,,,,,,,,,,,,,92,158467,21,Female,1,2024/03/15_08:48:27,YZ,None,
2,./instructions/inst_prac_main/Slide52.png,right,2.089842871995643,792.2551894950157,794.3450323670113,,,,,,,,,,,,,,,,,,,,,,,,,,,,,,,,,1,,,,,,,,,,,,,,,,,,,,,,,,,,,,,,,,,,,,,,,,,,,,,,92,158467,21,Female,1,2024/03/15_08:48:27,YZ,None,
1,./instructions/inst_prac_main/Slide53.png,left,3.811526359000709,794.3735420310113,798.185068390012,,,,,,,,,,,,,,,,,,,,,,,,,,,,,,,,,1,,,,,,,,,,,,,,,,,,,,,,,,,,,,,,,,,,,,,,,,,,,,,,92,158467,21,Female,1,2024/03/15_08:48:27,YZ,None,
0,./instructions/inst_prac_main/Slide52.png,left,0.20038393198046833,798.2141486870241,798.4145326190046,,,,,,,,,,,,,,,,,,,,,,,,,,,,,,,,,1,,,,,,,,,,,,,,,,,,,,,,,,,,,,,,,,,,,,,,,,,,,,,,92,158467,21,Female,1,2024/03/15_08:48:27,YZ,None,
1,./instructions/inst_prac_main/Slide51.png,right,2.5429339849797543,798.4340514160285,800.9769854010083,,,,,,,,,,,,,,,,,,,,,,,,,,,,,,,,,1,,,,,,,,,,,,,,,,,,,,,,,,,,,,,,,,,,,,,,,,,,,,,,92,158467,21,Female,1,2024/03/15_08:48:27,YZ,None,
2,./instructions/inst_prac_main/Slide52.png,right,1.6273627860064153,801.0055784870056,802.632941273012,,,,,,,,,,,,,,,,,,,,,,,,,,,,,,,,,1,,,,,,,,,,,,,,,,,,,,,,,,,,,,,,,,,,,,,,,,,,,,,,92,158467,21,Female,1,2024/03/15_08:48:27,YZ,None,
1,./instructions/inst_prac_main/Slide53.png,left,4.691465762007283,802.6617189290118,807.3531846910191,,,,,,,,,,,,,,,,,,,,,,,,,,,,,,,,,1,,,,,,,,,,,,,,,,,,,,,,,,,,,,,,,,,,,,,,,,,,,,,,92,158467,21,Female,1,2024/03/15_08:48:27,YZ,None,
0,./instructions/inst_prac_main/Slide52.png,left,0.20053554300102405,807.3766249660111,807.5771605090122,,,,,,,,,,,,,,,,,,,,,,,,,,,,,,,,,1,,,,,,,,,,,,,,,,,,,,,,,,,,,,,,,,,,,,,,,,,,,,,,92,158467,21,Female,1,2024/03/15_08:48:27,YZ,None,
-1,./instructions/inst_prac_main/Slide51.png,left,0.20041531801689416,807.5957409440016,807.7961562620185,,,,,,,,,,,,,,,,,,,,,,,,,,,,,,,,,1,,,,,,,,,,,,,,,,,,,,,,,,,,,,,,,,,,,,,,,,,,,,,,92,158467,21,Female,1,2024/03/15_08:48:27,YZ,None,
-2,./instructions/inst_prac_main/Slide54.png,left,0.20039097100379877,807.8190207250009,808.0194116960047,,,,,,,,,,,,,,,,,,,,,,,,,,,,,,,,,1,,,,,,,,,,,,,,,,,,,,,,,,,,,,,,,,,,,,,,,,,,,,,,92,158467,21,Female,1,2024/03/15_08:48:27,YZ,None,
-3,./instructions/inst_prac_main/Slide53.png,left,0.20030904398299754,808.0417740300181,808.2420830740011,,,,,,,,,,,,,,,,,,,,,,,,,,,,,,,,,1,,,,,,,,,,,,,,,,,,,,,,,,,,,,,,,,,,,,,,,,,,,,,,92,158467,21,Female,1,2024/03/15_08:48:27,YZ,None,
-2,./instructions/inst_prac_main/Slide52.png,right,0.7039700690074824,808.2649072520144,808.9688773210219,,,,,,,,,,,,,,,,,,,,,,,,,,,,,,,,,1,,,,,,,,,,,,,,,,,,,,,,,,,,,,,,,,,,,,,,,,,,,,,,92,158467,21,Female,1,2024/03/15_08:48:27,YZ,None,
-3,./instructions/inst_prac_main/Slide53.png,left,6.0355891450017225,808.9974843710079,815.0330735160096,,,,,,,,,,,,,,,,,,,,,,,,,,,,,,,,,1,,,,,,,,,,,,,,,,,,,,,,,,,,,,,,,,,,,,,,,,,,,,,,92,158467,21,Female,1,2024/03/15_08:48:27,YZ,None,
-4,./instructions/inst_prac_main/Slide52.png,left,0.20041346398647875,815.0558382530289,815.2562517170154,,,,,,,,,,,,,,,,,,,,,,,,,,,,,,,,,1,,,,,,,,,,,,,,,,,,,,,,,,,,,,,,,,,,,,,,,,,,,,,,92,158467,21,Female,1,2024/03/15_08:48:27,YZ,None,
,,,,,,practice_main,0,1,3,788,1,F,0,right,1.236267399013741,1,0,,,,,,,,,,,,,,,,,,,,,1,,,,,,,,,,,,,,,,,,,,,,,,,,,,,,,,,,,,,,,,,,,,,,92,158467,21,Female,1,2024/03/15_08:48:27,YZ,None,
,,,,,,practice_main,0,1,3,788,2,Q,0,right,0.7539481359999627,1,0,,,,,,,,,,,,,,,,,,,,,1,,,,,,,,,,,,,,,,,,,,,,,,,,,,,,,,,,,,,,,,,,,,,,92,158467,21,Female,1,2024/03/15_08:48:27,YZ,None,
,,,,,,practice_main,0,1,3,788,3,S,0,right,0.3680248640011996,1,0,,,,,,,,,,,,,,,,,,,,,1,,,,,,,,,,,,,,,,,,,,,,,,,,,,,,,,,,,,,,,,,,,,,,92,158467,21,Female,1,2024/03/15_08:48:27,YZ,None,
,,,,,,practice_main,0,1,3,788,4,J,0,right,0.5485580120002851,1,0,,,,,,,,,,,,,,,,,,,,,1,,,,,,,,,,,,,,,,,,,,,,,,,,,,,,,,,,,,,,,,,,,,,,92,158467,21,Female,1,2024/03/15_08:48:27,YZ,None,
,,,,,,practice_main,0,1,3,788,5,J,0,right,0.640827683993848,1,0,,,,,,,,,,,,,,,,,,,,,1,,,,,,,,,,,,,,,,,,,,,,,,,,,,,,,,,,,,,,,,,,,,,,92,158467,21,Female,1,2024/03/15_08:48:27,YZ,None,
,,,,,,practice_main,0,1,3,788,6,F,0,left,0.4048128849826753,0,0,,,,,,,,,,,,,,,,,,,,,1,,,,,,,,,,,,,,,,,,,,,,,,,,,,,,,,,,,,,,,,,,,,,,92,158467,21,Female,1,2024/03/15_08:48:27,YZ,None,
,,,,,,practice_main,0,1,3,788,7,J,1,left,0.8583805900125299,1,0,,,,,,,,,,,,,,,,,,,,,1,,,,,,,,,,,,,,,,,,,,,,,,,,,,,,,,,,,,,,,,,,,,,,92,158467,21,Female,1,2024/03/15_08:48:27,YZ,None,
,,,,,,practice_main,0,1,3,788,8,Q,0,right,0.608957629010547,1,0,,,,,,,,,,,,,,,,,,,,,1,,,,,,,,,,,,,,,,,,,,,,,,,,,,,,,,,,,,,,,,,,,,,,92,158467,21,Female,1,2024/03/15_08:48:27,YZ,None,
,,,,,,practice_main,0,1,3,788,9,F,1,left,0.8577529000176582,1,0,,,,,,,,,,,,,,,,,,,,,1,,,,,,,,,,,,,,,,,,,,,,,,,,,,,,,,,,,,,,,,,,,,,,92,158467,21,Female,1,2024/03/15_08:48:27,YZ,None,
,,,,,,practice_main,0,1,3,788,10,C,0,right,0.5124579689872917,1,0,,,,,,,,,,,,,,,,,,,,,1,,,,,,,,,,,,,,,,,,,,,,,,,,,,,,,,,,,,,,,,,,,,,,92,158467,21,Female,1,2024/03/15_08:48:27,YZ,None,
,,,,,,practice_main,0,1,3,788,11,Q,1,left,0.7096839800069574,1,0,,,,,,,,,,,,,,,,,,,,,1,,,,,,,,,,,,,,,,,,,,,,,,,,,,,,,,,,,,,,,,,,,,,,92,158467,21,Female,1,2024/03/15_08:48:27,YZ,None,
,,,,,,practice_main,0,1,3,788,12,F,1,right,0.49919353899895214,0,0,,,,,,,,,,,,,,,,,,,,,1,,,,,,,,,,,,,,,,,,,,,,,,,,,,,,,,,,,,,,,,,,,,,,92,158467,21,Female,1,2024/03/15_08:48:27,YZ,None,
,,,,,,practice_main,0,1,3,788,13,S,0,right,0.6195595799945295,1,0,,,,,,,,,,,,,,,,,,,,,1,,,,,,,,,,,,,,,,,,,,,,,,,,,,,,,,,,,,,,,,,,,,,,92,158467,21,Female,1,2024/03/15_08:48:27,YZ,None,
,,,,,,practice_main,0,1,3,788,,,,,,,,0.8819444444444444,0.75,0.1111111111111111,0.8888888888888888,0.0,0.8888888888888888,0.6629557820784752,3,1,0,0,0,8,11,4,9,0,,,,1,,,,,,,,,,,,,,,,,,,,,,,,,,,,,,,,,,,,,,,,,,,,,,92,158467,21,Female,1,2024/03/15_08:48:27,YZ,None,
,,,,,240315_091433,PRACTICE,0,1,3,788,,,,,,,,,,,,,,,,,,,,,,,,,,,,1,14,2,1,cue1.png,hard,B,0,1.3811823230062146,0,826.3795067450264,827.7793697840243,,,,,,,,,,,,,,,,,,,,,,,,,,,,,,,,,,,92,158467,21,Female,1,2024/03/15_08:48:27,YZ,None,
,,,,,,practice_main,0,2,1,788,1,J,0,right,0.5821311569889076,1,0,,,,,,,,,,,,,,,,,,,,,1,,,,,,,,,,,,,,,,,,,,,,,,,,,,,,,,,,,,,,,,,,,,,,92,158467,21,Female,1,2024/03/15_08:48:27,YZ,None,
,,,,,,practice_main,0,2,1,788,2,J,1,right,0.4782733379979618,0,0,,,,,,,,,,,,,,,,,,,,,1,,,,,,,,,,,,,,,,,,,,,,,,,,,,,,,,,,,,,,,,,,,,,,92,158467,21,Female,1,2024/03/15_08:48:27,YZ,None,
,,,,,,practice_main,0,2,1,788,3,S,0,right,0.7403529919974972,1,0,,,,,,,,,,,,,,,,,,,,,1,,,,,,,,,,,,,,,,,,,,,,,,,,,,,,,,,,,,,,,,,,,,,,92,158467,21,Female,1,2024/03/15_08:48:27,YZ,None,
,,,,,,practice_main,0,2,1,788,4,X,0,right,0.5586019879847299,1,0,,,,,,,,,,,,,,,,,,,,,1,,,,,,,,,,,,,,,,,,,,,,,,,,,,,,,,,,,,,,,,,,,,,,92,158467,21,Female,1,2024/03/15_08:48:27,YZ,None,
,,,,,,practice_main,0,2,1,788,5,N,0,right,0.5906193119881209,1,0,,,,,,,,,,,,,,,,,,,,,1,,,,,,,,,,,,,,,,,,,,,,,,,,,,,,,,,,,,,,,,,,,,,,92,158467,21,Female,1,2024/03/15_08:48:27,YZ,None,
,,,,,,practice_main,0,2,1,788,6,N,1,left,0.478738378995331,1,0,,,,,,,,,,,,,,,,,,,,,1,,,,,,,,,,,,,,,,,,,,,,,,,,,,,,,,,,,,,,,,,,,,,,92,158467,21,Female,1,2024/03/15_08:48:27,YZ,None,
,,,,,,practice_main,0,2,1,788,7,V,0,right,0.5184568830009084,1,0,,,,,,,,,,,,,,,,,,,,,1,,,,,,,,,,,,,,,,,,,,,,,,,,,,,,,,,,,,,,,,,,,,,,92,158467,21,Female,1,2024/03/15_08:48:27,YZ,None,
,,,,,,practice_main,0,2,1,788,8,V,1,left,0.44355180198908783,1,0,,,,,,,,,,,,,,,,,,,,,1,,,,,,,,,,,,,,,,,,,,,,,,,,,,,,,,,,,,,,,,,,,,,,92,158467,21,Female,1,2024/03/15_08:48:27,YZ,None,
,,,,,,practice_main,0,2,1,788,9,C,0,right,0.5737434869806748,1,0,,,,,,,,,,,,,,,,,,,,,1,,,,,,,,,,,,,,,,,,,,,,,,,,,,,,,,,,,,,,,,,,,,,,92,158467,21,Female,1,2024/03/15_08:48:27,YZ,None,
,,,,,,practice_main,0,2,1,788,10,J,0,right,0.5453999669989571,1,0,,,,,,,,,,,,,,,,,,,,,1,,,,,,,,,,,,,,,,,,,,,,,,,,,,,,,,,,,,,,,,,,,,,,92,158467,21,Female,1,2024/03/15_08:48:27,YZ,None,
,,,,,,practice_main,0,2,1,788,11,J,1,left,0.6432778090238571,1,0,,,,,,,,,,,,,,,,,,,,,1,,,,,,,,,,,,,,,,,,,,,,,,,,,,,,,,,,,,,,,,,,,,,,92,158467,21,Female,1,2024/03/15_08:48:27,YZ,None,
,,,,,,practice_main,0,2,1,788,12,N,0,right,0.4701540539972484,1,0,,,,,,,,,,,,,,,,,,,,,1,,,,,,,,,,,,,,,,,,,,,,,,,,,,,,,,,,,,,,,,,,,,,,92,158467,21,Female,1,2024/03/15_08:48:27,YZ,None,
,,,,,,practice_main,0,2,1,788,13,F,0,right,0.5126994020247366,1,0,,,,,,,,,,,,,,,,,,,,,1,,,,,,,,,,,,,,,,,,,,,,,,,,,,,,,,,,,,,,,,,,,,,,92,158467,21,Female,1,2024/03/15_08:48:27,YZ,None,
,,,,,,practice_main,0,2,1,788,,,,,,,,0.9375,0.75,0.0,1.0,0.0,1.0,0.5489231207667706,3,0,0,0,0,9,12,4,9,0,,,,1,,,,,,,,,,,,,,,,,,,,,,,,,,,,,,,,,,,,,,,,,,,,,,92,158467,21,Female,1,2024/03/15_08:48:27,YZ,None,
,,,,,240315_091458,PRACTICE,0,2,1,788,,,,,,,,,,,,,,,,,,,,,,,,,,,,1,1,3,2,cue2.png,easy,B,0,1.50614868698176,0,852.3926136130176,853.9245848020073,,,,,,,,,,,,,,,,,,,,,,,,,,,,,,,,,,,92,158467,21,Female,1,2024/03/15_08:48:27,YZ,None,
,,,,,,practice_main,0,3,3,788,1,J,0,right,1.2144221480120905,1,0,,,,,,,,,,,,,,,,,,,,,1,,,,,,,,,,,,,,,,,,,,,,,,,,,,,,,,,,,,,,,,,,,,,,92,158467,21,Female,1,2024/03/15_08:48:27,YZ,None,
,,,,,,practice_main,0,3,3,788,2,C,0,right,0.5909352370072156,1,0,,,,,,,,,,,,,,,,,,,,,1,,,,,,,,,,,,,,,,,,,,,,,,,,,,,,,,,,,,,,,,,,,,,,92,158467,21,Female,1,2024/03/15_08:48:27,YZ,None,
,,,,,,practice_main,0,3,3,788,3,X,0,right,0.40907246101414785,1,0,,,,,,,,,,,,,,,,,,,,,1,,,,,,,,,,,,,,,,,,,,,,,,,,,,,,,,,,,,,,,,,,,,,,92,158467,21,Female,1,2024/03/15_08:48:27,YZ,None,
,,,,,,practice_main,0,3,3,788,4,Q,0,right,0.7829772409750149,1,0,,,,,,,,,,,,,,,,,,,,,1,,,,,,,,,,,,,,,,,,,,,,,,,,,,,,,,,,,,,,,,,,,,,,92,158467,21,Female,1,2024/03/15_08:48:27,YZ,None,
,,,,,,practice_main,0,3,3,788,5,N,0,right,0.4371893499919679,1,0,,,,,,,,,,,,,,,,,,,,,1,,,,,,,,,,,,,,,,,,,,,,,,,,,,,,,,,,,,,,,,,,,,,,92,158467,21,Female,1,2024/03/15_08:48:27,YZ,None,
,,,,,,practice_main,0,3,3,788,6,X,1,left,0.6593028209754266,1,0,,,,,,,,,,,,,,,,,,,,,1,,,,,,,,,,,,,,,,,,,,,,,,,,,,,,,,,,,,,,,,,,,,,,92,158467,21,Female,1,2024/03/15_08:48:27,YZ,None,
,,,,,,practice_main,0,3,3,788,7,Q,1,right,0.2599718480196316,0,0,,,,,,,,,,,,,,,,,,,,,1,,,,,,,,,,,,,,,,,,,,,,,,,,,,,,,,,,,,,,,,,,,,,,92,158467,21,Female,1,2024/03/15_08:48:27,YZ,None,
,,,,,,practice_main,0,3,3,788,8,V,0,right,0.4352772330166772,1,0,,,,,,,,,,,,,,,,,,,,,1,,,,,,,,,,,,,,,,,,,,,,,,,,,,,,,,,,,,,,,,,,,,,,92,158467,21,Female,1,2024/03/15_08:48:27,YZ,None,
,,,,,,practice_main,0,3,3,788,9,Q,0,left,0.6834734299918637,0,0,,,,,,,,,,,,,,,,,,,,,1,,,,,,,,,,,,,,,,,,,,,,,,,,,,,,,,,,,,,,,,,,,,,,92,158467,21,Female,1,2024/03/15_08:48:27,YZ,None,
,,,,,,practice_main,0,3,3,788,10,F,0,right,0.2846664559911005,1,0,,,,,,,,,,,,,,,,,,,,,1,,,,,,,,,,,,,,,,,,,,,,,,,,,,,,,,,,,,,,,,,,,,,,92,158467,21,Female,1,2024/03/15_08:48:27,YZ,None,
,,,,,,practice_main,0,3,3,788,11,X,0,right,0.45516424102243036,1,0,,,,,,,,,,,,,,,,,,,,,1,,,,,,,,,,,,,,,,,,,,,,,,,,,,,,,,,,,,,,,,,,,,,,92,158467,21,Female,1,2024/03/15_08:48:27,YZ,None,
,,,,,,practice_main,0,3,3,788,12,Q,1,left,0.6782370340079069,1,0,,,,,,,,,,,,,,,,,,,,,1,,,,,,,,,,,,,,,,,,,,,,,,,,,,,,,,,,,,,,,,,,,,,,92,158467,21,Female,1,2024/03/15_08:48:27,YZ,None,
,,,,,,practice_main,0,3,3,788,13,F,1,left,0.5969495820172597,1,0,,,,,,,,,,,,,,,,,,,,,1,,,,,,,,,,,,,,,,,,,,,,,,,,,,,,,,,,,,,,,,,,,,,,92,158467,21,Female,1,2024/03/15_08:48:27,YZ,None,
,,,,,,practice_main,0,3,3,788,,,,,,,,0.8819444444444444,0.75,0.1111111111111111,0.8888888888888888,0.0,0.8888888888888888,0.5759722370802103,3,1,0,0,0,8,11,4,9,0,,,,1,,,,,,,,,,,,,,,,,,,,,,,,,,,,,,,,,,,,,,,,,,,,,,92,158467,21,Female,1,2024/03/15_08:48:27,YZ,None,
,,,,,240315_091530,PRACTICE,0,3,3,788,,,,,,,,,,,,,,,,,,,,,,,,,,,,1,40,5,3,cue1.png,hard,B,6,1.0116396619996522,0,885.0820374420146,886.106102855003,,,,,,,,,,,,,,,,,,,,,,,,,,,,,,,,,,,92,158467,21,Female,1,2024/03/15_08:48:27,YZ,None,
1,./instructions/inst_prac_end/Slide56.png,right,13.665417286974844,908.1036207960278,921.7690380830027,,,,,,,,,,,,,,,,,,,,,,,,,,,,,,,,,1,,,,,,,,,,,,,,,,,,,,,,,,,,,,,,,,,,,,,,,,,,,,,,92,158467,21,Female,1,2024/03/15_08:48:27,YZ,None,
1,./instructions/inst_test/Slide57.png,right,254.27064336498734,921.8024928580271,1176.0731362230144,,,,,,,,,,,,,,,,,,,,,,,,,,,,,,,,,1,,,,,,,,,,,,,,,,,,,,,,,,,,,,,,,,,,,,,,,,,,,,,,92,158467,21,Female,1,2024/03/15_08:48:27,YZ,None,
,,,,,,test,1,1,1,788,1,S,0,right,0.6069927960052155,1,0,,,,,,,,,,,,,,,,,,,,,1,,,,,,,,,,,,,,,,,,,,,,,,,,,,,,,,,,,,,,,,,,,,,,92,158467,21,Female,1,2024/03/15_08:48:27,YZ,None,
,,,,,,test,1,1,1,788,2,X,0,right,0.41428440500749275,1,0,,,,,,,,,,,,,,,,,,,,,1,,,,,,,,,,,,,,,,,,,,,,,,,,,,,,,,,,,,,,,,,,,,,,92,158467,21,Female,1,2024/03/15_08:48:27,YZ,None,
,,,,,,test,1,1,1,788,3,X,1,left,0.34613024498685263,1,0,,,,,,,,,,,,,,,,,,,,,1,,,,,,,,,,,,,,,,,,,,,,,,,,,,,,,,,,,,,,,,,,,,,,92,158467,21,Female,1,2024/03/15_08:48:27,YZ,None,
,,,,,,test,1,1,1,788,4,S,0,right,0.6576972430048045,1,0,,,,,,,,,,,,,,,,,,,,,1,,,,,,,,,,,,,,,,,,,,,,,,,,,,,,,,,,,,,,,,,,,,,,92,158467,21,Female,1,2024/03/15_08:48:27,YZ,None,
,,,,,,test,1,1,1,788,5,J,0,right,0.5338593539781868,1,0,,,,,,,,,,,,,,,,,,,,,1,,,,,,,,,,,,,,,,,,,,,,,,,,,,,,,,,,,,,,,,,,,,,,92,158467,21,Female,1,2024/03/15_08:48:27,YZ,None,
,,,,,,test,1,1,1,788,6,X,0,right,0.4435224000189919,1,0,,,,,,,,,,,,,,,,,,,,,1,,,,,,,,,,,,,,,,,,,,,,,,,,,,,,,,,,,,,,,,,,,,,,92,158467,21,Female,1,2024/03/15_08:48:27,YZ,None,
,,,,,,test,1,1,1,788,7,X,1,left,0.5887507399893366,1,0,,,,,,,,,,,,,,,,,,,,,1,,,,,,,,,,,,,,,,,,,,,,,,,,,,,,,,,,,,,,,,,,,,,,92,158467,21,Female,1,2024/03/15_08:48:27,YZ,None,
,,,,,,test,1,1,1,788,8,F,0,right,0.5124799539917149,1,0,,,,,,,,,,,,,,,,,,,,,1,,,,,,,,,,,,,,,,,,,,,,,,,,,,,,,,,,,,,,,,,,,,,,92,158467,21,Female,1,2024/03/15_08:48:27,YZ,None,
,,,,,,test,1,1,1,788,9,F,1,left,0.49483203401905484,1,0,,,,,,,,,,,,,,,,,,,,,1,,,,,,,,,,,,,,,,,,,,,,,,,,,,,,,,,,,,,,,,,,,,,,92,158467,21,Female,1,2024/03/15_08:48:27,YZ,None,
,,,,,,test,1,1,1,788,10,N,0,right,0.5235043719876558,1,0,,,,,,,,,,,,,,,,,,,,,1,,,,,,,,,,,,,,,,,,,,,,,,,,,,,,,,,,,,,,,,,,,,,,92,158467,21,Female,1,2024/03/15_08:48:27,YZ,None,
,,,,,,test,1,1,1,788,11,V,0,right,0.4293061399948783,1,0,,,,,,,,,,,,,,,,,,,,,1,,,,,,,,,,,,,,,,,,,,,,,,,,,,,,,,,,,,,,,,,,,,,,92,158467,21,Female,1,2024/03/15_08:48:27,YZ,None,
,,,,,,test,1,1,1,788,12,V,1,left,0.552371216006577,1,0,,,,,,,,,,,,,,,,,,,,,1,,,,,,,,,,,,,,,,,,,,,,,,,,,,,,,,,,,,,,,,,,,,,,92,158467,21,Female,1,2024/03/15_08:48:27,YZ,None,
,,,,,,test,1,1,1,788,13,X,0,right,0.4949427630053833,1,0,,,,,,,,,,,,,,,,,,,,,1,,,,,,,,,,,,,,,,,,,,,,,,,,,,,,,,,,,,,,,,,,,,,,92,158467,21,Female,1,2024/03/15_08:48:27,YZ,None,
,,,,,,Test,1,1,1,788,,,,,,,,1.0,1.0,0.0,1.0,0.0,1.0,0.5075902816920111,4,0,0,0,0,9,13,4,9,0,,,,1,,,,,,,,,,,,,,,,,,,,,,,,,,,,,,,,,,,,,,,,,,,,,,92,158467,21,Female,1,2024/03/15_08:48:27,YZ,None,
,,,,,240315_092026,TEST,1,1,1,788,,,,,,,,,,,,,,,,,,,,,,,,,,,,1,1,1,1,cue2.png,easy,B,2,1.2825059359893203,0,1181.1307237470173,1182.430500307004,,,,,,,,,,,,,,,,,,,,,,,,,,,,,,,,,,,92,158467,21,Female,1,2024/03/15_08:48:27,YZ,None,
,,,,,,test,1,2,3,788,1,F,0,right,0.4112783189921174,1,0,,,,,,,,,,,,,,,,,,,,,1,,,,,,,,,,,,,,,,,,,,,,,,,,,,,,,,,,,,,,,,,,,,,,92,158467,21,Female,1,2024/03/15_08:48:27,YZ,None,
,,,,,,test,1,2,3,788,2,S,0,right,0.30935151400626637,1,0,,,,,,,,,,,,,,,,,,,,,1,,,,,,,,,,,,,,,,,,,,,,,,,,,,,,,,,,,,,,,,,,,,,,92,158467,21,Female,1,2024/03/15_08:48:27,YZ,None,
,,,,,,test,1,2,3,788,3,J,0,right,0.5241516660025809,1,0,,,,,,,,,,,,,,,,,,,,,1,,,,,,,,,,,,,,,,,,,,,,,,,,,,,,,,,,,,,,,,,,,,,,92,158467,21,Female,1,2024/03/15_08:48:27,YZ,None,
,,,,,,test,1,2,3,788,4,C,0,right,0.7394670590001624,1,0,,,,,,,,,,,,,,,,,,,,,1,,,,,,,,,,,,,,,,,,,,,,,,,,,,,,,,,,,,,,,,,,,,,,92,158467,21,Female,1,2024/03/15_08:48:27,YZ,None,
,,,,,,test,1,2,3,788,5,S,1,left,0.6349037970067002,1,0,,,,,,,,,,,,,,,,,,,,,1,,,,,,,,,,,,,,,,,,,,,,,,,,,,,,,,,,,,,,,,,,,,,,92,158467,21,Female,1,2024/03/15_08:48:27,YZ,None,
,,,,,,test,1,2,3,788,6,N,0,right,0.29400696701486595,1,0,,,,,,,,,,,,,,,,,,,,,1,,,,,,,,,,,,,,,,,,,,,,,,,,,,,,,,,,,,,,,,,,,,,,92,158467,21,Female,1,2024/03/15_08:48:27,YZ,None,
,,,,,,test,1,2,3,788,7,C,1,left,0.35307201798423193,1,0,,,,,,,,,,,,,,,,,,,,,1,,,,,,,,,,,,,,,,,,,,,,,,,,,,,,,,,,,,,,,,,,,,,,92,158467,21,Female,1,2024/03/15_08:48:27,YZ,None,
,,,,,,test,1,2,3,788,8,S,1,right,0.5890649229986593,0,0,,,,,,,,,,,,,,,,,,,,,1,,,,,,,,,,,,,,,,,,,,,,,,,,,,,,,,,,,,,,,,,,,,,,92,158467,21,Female,1,2024/03/15_08:48:27,YZ,None,
,,,,,,test,1,2,3,788,9,V,0,right,0.6964534260041546,1,0,,,,,,,,,,,,,,,,,,,,,1,,,,,,,,,,,,,,,,,,,,,,,,,,,,,,,,,,,,,,,,,,,,,,92,158467,21,Female,1,2024/03/15_08:48:27,YZ,None,
,,,,,,test,1,2,3,788,10,C,1,left,0.4630058030015789,1,0,,,,,,,,,,,,,,,,,,,,,1,,,,,,,,,,,,,,,,,,,,,,,,,,,,,,,,,,,,,,,,,,,,,,92,158467,21,Female,1,2024/03/15_08:48:27,YZ,None,
,,,,,,test,1,2,3,788,11,J,0,right,0.3088158410100732,1,0,,,,,,,,,,,,,,,,,,,,,1,,,,,,,,,,,,,,,,,,,,,,,,,,,,,,,,,,,,,,,,,,,,,,92,158467,21,Female,1,2024/03/15_08:48:27,YZ,None,
,,,,,,test,1,2,3,788,12,Q,0,right,0.6899553679977544,1,0,,,,,,,,,,,,,,,,,,,,,1,,,,,,,,,,,,,,,,,,,,,,,,,,,,,,,,,,,,,,,,,,,,,,92,158467,21,Female,1,2024/03/15_08:48:27,YZ,None,
,,,,,,test,1,2,3,788,13,Q,0,right,0.27315452400944196,1,0,,,,,,,,,,,,,,,,,,,,,1,,,,,,,,,,,,,,,,,,,,,,,,,,,,,,,,,,,,,,,,,,,,,,92,158467,21,Female,1,2024/03/15_08:48:27,YZ,None,
,,,,,,Test,1,2,3,788,,,,,,,,0.9375,0.75,0.0,1.0,0.0,1.0,0.4835908634637375,3,0,0,0,0,9,12,4,9,0,,,,1,,,,,,,,,,,,,,,,,,,,,,,,,,,,,,,,,,,,,,,,,,,,,,92,158467,21,Female,1,2024/03/15_08:48:27,YZ,None,
,,,,,240315_092049,TEST,1,2,3,788,,,,,,,,,,,,,,,,,,,,,,,,,,,,1,2,2,2,cue1.png,hard,B,4,1.1868368390132673,0,1205.0052358580288,1206.2208643040212,,,,,,,,,,,,,,,,,,,,,,,,,,,,,,,,,,,92,158467,21,Female,1,2024/03/15_08:48:27,YZ,None,
,,,,,,test,1,3,3,788,1,V,0,right,0.7585339030192699,1,0,,,,,,,,,,,,,,,,,,,,,1,,,,,,,,,,,,,,,,,,,,,,,,,,,,,,,,,,,,,,,,,,,,,,92,158467,21,Female,1,2024/03/15_08:48:27,YZ,None,
,,,,,,test,1,3,3,788,2,X,0,right,0.40043890397646464,1,0,,,,,,,,,,,,,,,,,,,,,1,,,,,,,,,,,,,,,,,,,,,,,,,,,,,,,,,,,,,,,,,,,,,,92,158467,21,Female,1,2024/03/15_08:48:27,YZ,None,
,,,,,,test,1,3,3,788,3,S,0,right,0.3769723779987544,1,0,,,,,,,,,,,,,,,,,,,,,1,,,,,,,,,,,,,,,,,,,,,,,,,,,,,,,,,,,,,,,,,,,,,,92,158467,21,Female,1,2024/03/15_08:48:27,YZ,None,
,,,,,,test,1,3,3,788,4,V,1,left,0.30898139299824834,1,0,,,,,,,,,,,,,,,,,,,,,1,,,,,,,,,,,,,,,,,,,,,,,,,,,,,,,,,,,,,,,,,,,,,,92,158467,21,Female,1,2024/03/15_08:48:27,YZ,None,
,,,,,,test,1,3,3,788,5,X,1,left,0.6733834279875737,1,0,,,,,,,,,,,,,,,,,,,,,1,,,,,,,,,,,,,,,,,,,,,,,,,,,,,,,,,,,,,,,,,,,,,,92,158467,21,Female,1,2024/03/15_08:48:27,YZ,None,
,,,,,,test,1,3,3,788,6,J,0,right,0.31091457401635125,1,0,,,,,,,,,,,,,,,,,,,,,1,,,,,,,,,,,,,,,,,,,,,,,,,,,,,,,,,,,,,,,,,,,,,,92,158467,21,Female,1,2024/03/15_08:48:27,YZ,None,
,,,,,,test,1,3,3,788,7,S,0,left,0.3731533750251401,0,0,,,,,,,,,,,,,,,,,,,,,1,,,,,,,,,,,,,,,,,,,,,,,,,,,,,,,,,,,,,,,,,,,,,,92,158467,21,Female,1,2024/03/15_08:48:27,YZ,None,
,,,,,,test,1,3,3,788,8,N,0,right,0.39329849000205286,1,0,,,,,,,,,,,,,,,,,,,,,1,,,,,,,,,,,,,,,,,,,,,,,,,,,,,,,,,,,,,,,,,,,,,,92,158467,21,Female,1,2024/03/15_08:48:27,YZ,None,
,,,,,,test,1,3,3,788,9,J,1,right,0.4929365410062019,0,0,,,,,,,,,,,,,,,,,,,,,1,,,,,,,,,,,,,,,,,,,,,,,,,,,,,,,,,,,,,,,,,,,,,,92,158467,21,Female,1,2024/03/15_08:48:27,YZ,None,
,,,,,,test,1,3,3,788,10,J,0,right,0.3860852079815231,1,0,,,,,,,,,,,,,,,,,,,,,1,,,,,,,,,,,,,,,,,,,,,,,,,,,,,,,,,,,,,,,,,,,,,,92,158467,21,Female,1,2024/03/15_08:48:27,YZ,None,
