Instruction,Stimulus,Key,RT,START,END,Phase,Block,TrialN,NbackLevel,ISI,LetterN,Letter,Letter_isSame,Letter_Resp,Letter_RT,Letter_Accuracy,Letter_Timeout,Trial_A_measure,Trial_HR,Trial_FAR,Trial_CDR,Trial_MSR,Trial_ACC,Trial_RT,Trial_HitsCount,Trial_FAsCount,Trial_SameNoRespCount,Trial_DiffNoRespCount,Trial_NoRespCount,Trial_CDsCount,Trial_CorrectRespCount,Trial_SameLetterCount,Trial_DiffLetterCount,Trial_InvalidLetterCount,TrialCountCali,CaliEnd_A_measure,ISI_calibrated,Run,TrialIndex,TrialNumber_total,TrialNumber_valid,CueLearning,TrialDemandLearning,CueMapping,OnlineRating,OnlineRatingRT,OnlineRatingTimeOut,CueSTART,RatingSTART,OfflineRatingTimePoint,OfflineRatingQuesIndex,CueFigure,TrialDemand,OfflineRating,OfflineRatingRT,CueStart,OfflineRatingStart,PhaseType,CueLeft,CueDemandLeft,CueRight,CueDemandRight,Choice,ChoiceDemand,TaskDemand,ChoiceRT,ChoiceTimeOut,ChoiceSTART,CueCheck,CueDemandCheck,CorrectAnswer,Answer,AnswerDemand,AnswerRT,AnswerACC,AnswerTimeOut,CheckSTART,DemandRatingQuesIndex,QuesTLX,DemandLevel,DemandRating,DemandRatingRT,QuesStart,PID,SONA,Age,Gender,Run,TIME,EXPERIMENTER,frameRate,
1,./instructions/inst_begin/Slide2.png,right,20.346682629999123,0.22385191298963036,20.570534542988753,,,,,,,,,,,,,,,,,,,,,,,,,,,,,,,,,1,,,,,,,,,,,,,,,,,,,,,,,,,,,,,,,,,,,,,,,,,,,,,,113,154621,21,Female,1,2024/03/22_08:50:11,YZ,None,
2,./instructions/inst_begin/Slide3.png,right,8.048357099003624,20.642311061994405,28.69066816099803,,,,,,,,,,,,,,,,,,,,,,,,,,,,,,,,,1,,,,,,,,,,,,,,,,,,,,,,,,,,,,,,,,,,,,,,,,,,,,,,113,154621,21,Female,1,2024/03/22_08:50:11,YZ,None,
3,./instructions/inst_begin/Slide4.png,right,7.172119618000579,28.718541809997987,35.890661427998566,,,,,,,,,,,,,,,,,,,,,,,,,,,,,,,,,1,,,,,,,,,,,,,,,,,,,,,,,,,,,,,,,,,,,,,,,,,,,,,,113,154621,21,Female,1,2024/03/22_08:50:11,YZ,None,
1,./instructions/inst_prac_2/Slide6.png,right,29.108966578991385,35.941676425994956,65.05064300498634,,,,,,,,,,,,,,,,,,,,,,,,,,,,,,,,,1,,,,,,,,,,,,,,,,,,,,,,,,,,,,,,,,,,,,,,,,,,,,,,113,154621,21,Female,1,2024/03/22_08:50:11,YZ,None,
2,./instructions/inst_prac_2/Slide7.png,right,18.906419695995282,65.09637756399752,84.0027972599928,,,,,,,,,,,,,,,,,,,,,,,,,,,,,,,,,1,,,,,,,,,,,,,,,,,,,,,,,,,,,,,,,,,,,,,,,,,,,,,,113,154621,21,Female,1,2024/03/22_08:50:11,YZ,None,
3,./instructions/inst_prac_2/Slide8.png,right,24.921140972001012,84.03345700599311,108.95459797799413,,,,,,,,,,,,,,,,,,,,,,,,,,,,,,,,,1,,,,,,,,,,,,,,,,,,,,,,,,,,,,,,,,,,,,,,,,,,,,,,113,154621,21,Female,1,2024/03/22_08:50:11,YZ,None,
4,./instructions/inst_prac_2/Slide9.png,right,6.610484967008233,109.02418442699127,115.6346693939995,,,,,,,,,,,,,,,,,,,,,,,,,,,,,,,,,1,,,,,,,,,,,,,,,,,,,,,,,,,,,,,,,,,,,,,,,,,,,,,,113,154621,21,Female,1,2024/03/22_08:50:11,YZ,None,
5,./instructions/inst_prac_2/Slide10.png,right,3.5259669049992226,115.67651864798972,119.20248555298895,,,,,,,,,,,,,,,,,,,,,,,,,,,,,,,,,1,,,,,,,,,,,,,,,,,,,,,,,,,,,,,,,,,,,,,,,,,,,,,,113,154621,21,Female,1,2024/03/22_08:50:11,YZ,None,
6,./instructions/inst_prac_2/Slide11.png,right,4.986100990994601,119.23252542800037,124.21862641899497,,,,,,,,,,,,,,,,,,,,,,,,,,,,,,,,,1,,,,,,,,,,,,,,,,,,,,,,,,,,,,,,,,,,,,,,,,,,,,,,113,154621,21,Female,1,2024/03/22_08:50:11,YZ,None,
7,./instructions/inst_prac_2/Slide12.png,right,1.5063433610048378,124.24818801599031,125.75453137699515,,,,,,,,,,,,,,,,,,,,,,,,,,,,,,,,,1,,,,,,,,,,,,,,,,,,,,,,,,,,,,,,,,,,,,,,,,,,,,,,113,154621,21,Female,1,2024/03/22_08:50:11,YZ,None,
8,./instructions/inst_prac_2/Slide13.png,right,1.354043956991518,125.78458132800006,127.13862528499158,,,,,,,,,,,,,,,,,,,,,,,,,,,,,,,,,1,,,,,,,,,,,,,,,,,,,,,,,,,,,,,,,,,,,,,,,,,,,,,,113,154621,21,Female,1,2024/03/22_08:50:11,YZ,None,
9,./instructions/inst_prac_2/Slide14.png,right,14.401946917001624,127.16883595299441,141.57078286999604,,,,,,,,,,,,,,,,,,,,,,,,,,,,,,,,,1,,,,,,,,,,,,,,,,,,,,,,,,,,,,,,,,,,,,,,,,,,,,,,113,154621,21,Female,1,2024/03/22_08:50:11,YZ,None,
10,./instructions/inst_prac_2/Slide15.png,right,5.856359670011443,141.63420029998815,147.4905599699996,,,,,,,,,,,,,,,,,,,,,,,,,,,,,,,,,1,,,,,,,,,,,,,,,,,,,,,,,,,,,,,,,,,,,,,,,,,,,,,,113,154621,21,Female,1,2024/03/22_08:50:11,YZ,None,
,,,,,,practice,0,5,2,2583,1,J,0,right,3.7459897759981686,1,0,,,,,,,,,,,,,,,,,,,,,1,,,,,,,,,,,,,,,,,,,,,,,,,,,,,,,,,,,,,,,,,,,,,,113,154621,21,Female,1,2024/03/22_08:50:11,YZ,None,
,,,,,,practice,0,5,2,2583,2,J,0,right,0.6425590400031069,1,0,,,,,,,,,,,,,,,,,,,,,1,,,,,,,,,,,,,,,,,,,,,,,,,,,,,,,,,,,,,,,,,,,,,,113,154621,21,Female,1,2024/03/22_08:50:11,YZ,None,
,,,,,,practice,0,5,2,2583,3,C,0,right,0.9402316979976604,1,0,,,,,,,,,,,,,,,,,,,,,1,,,,,,,,,,,,,,,,,,,,,,,,,,,,,,,,,,,,,,,,,,,,,,113,154621,21,Female,1,2024/03/22_08:50:11,YZ,None,
,,,,,,practice,0,5,2,2583,4,J,1,left,0.6687710469996091,1,0,,,,,,,,,,,,,,,,,,,,,1,,,,,,,,,,,,,,,,,,,,,,,,,,,,,,,,,,,,,,,,,,,,,,113,154621,21,Female,1,2024/03/22_08:50:11,YZ,None,
,,,,,,practice,0,5,2,2583,5,C,1,left,0.8148166610044427,1,0,,,,,,,,,,,,,,,,,,,,,1,,,,,,,,,,,,,,,,,,,,,,,,,,,,,,,,,,,,,,,,,,,,,,113,154621,21,Female,1,2024/03/22_08:50:11,YZ,None,
,,,,,,practice,0,5,2,2583,6,V,0,right,0.9549941559962463,1,0,,,,,,,,,,,,,,,,,,,,,1,,,,,,,,,,,,,,,,,,,,,,,,,,,,,,,,,,,,,,,,,,,,,,113,154621,21,Female,1,2024/03/22_08:50:11,YZ,None,
,,,,,,practice,0,5,2,2583,,,,,,,,1.0,1.0,0.0,1.0,0.0,1.0,1.2945603963332057,2,0,0,0,0,4,6,2,4,0,,,,1,,,,,,,,,,,,,,,,,,,,,,,,,,,,,,,,,,,,,,,,,,,,,,113,154621,21,Female,1,2024/03/22_08:50:11,YZ,None,
1,./instructions/inst_to_cali/Slide20.png,right,4.687351774002309,161.62728703799075,166.31463881199306,,,,,,,,,,,,,,,,,,,,,,,,,,,,,,,,,1,,,,,,,,,,,,,,,,,,,,,,,,,,,,,,,,,,,,,,,,,,,,,,113,154621,21,Female,1,2024/03/22_08:50:11,YZ,None,
1,./instructions/inst_cali/Slide22.png,right,10.905769084987696,166.3690547820006,177.2748238669883,,,,,,,,,,,,,,,,,,,,,,,,,,,,,,,,,1,,,,,,,,,,,,,,,,,,,,,,,,,,,,,,,,,,,,,,,,,,,,,,113,154621,21,Female,1,2024/03/22_08:50:11,YZ,None,
,,,,,,calibration,0,9,2,583,1,S,0,right,1.618031988007715,1,0,,,,,,,,,,,,,,,,,,,,,1,,,,,,,,,,,,,,,,,,,,,,,,,,,,,,,,,,,,,,,,,,,,,,113,154621,21,Female,1,2024/03/22_08:50:11,YZ,None,
,,,,,,calibration,0,9,2,583,2,F,0,right,0.46707465799408965,1,0,,,,,,,,,,,,,,,,,,,,,1,,,,,,,,,,,,,,,,,,,,,,,,,,,,,,,,,,,,,,,,,,,,,,113,154621,21,Female,1,2024/03/22_08:50:11,YZ,None,
,,,,,,calibration,0,9,2,583,3,V,0,right,0.46572896899306215,1,0,,,,,,,,,,,,,,,,,,,,,1,,,,,,,,,,,,,,,,,,,,,,,,,,,,,,,,,,,,,,,,,,,,,,113,154621,21,Female,1,2024/03/22_08:50:11,YZ,None,
,,,,,,calibration,0,9,2,583,4,X,0,right,0.4668382880045101,1,0,,,,,,,,,,,,,,,,,,,,,1,,,,,,,,,,,,,,,,,,,,,,,,,,,,,,,,,,,,,,,,,,,,,,113,154621,21,Female,1,2024/03/22_08:50:11,YZ,None,
,,,,,,calibration,0,9,2,583,5,N,0,right,0.5169750040076906,1,0,,,,,,,,,,,,,,,,,,,,,1,,,,,,,,,,,,,,,,,,,,,,,,,,,,,,,,,,,,,,,,,,,,,,113,154621,21,Female,1,2024/03/22_08:50:11,YZ,None,
,,,,,,calibration,0,9,2,583,6,J,0,left,0.5125469480117317,0,0,,,,,,,,,,,,,,,,,,,,,1,,,,,,,,,,,,,,,,,,,,,,,,,,,,,,,,,,,,,,,,,,,,,,113,154621,21,Female,1,2024/03/22_08:50:11,YZ,None,
,,,,,,calibration,0,9,2,583,7,F,0,left,0.6427916079992428,0,0,,,,,,,,,,,,,,,,,,,,,1,,,,,,,,,,,,,,,,,,,,,,,,,,,,,,,,,,,,,,,,,,,,,,113,154621,21,Female,1,2024/03/22_08:50:11,YZ,None,
,,,,,,calibration,0,9,2,583,8,N,0,right,0.5352134429995203,1,0,,,,,,,,,,,,,,,,,,,,,1,,,,,,,,,,,,,,,,,,,,,,,,,,,,,,,,,,,,,,,,,,,,,,113,154621,21,Female,1,2024/03/22_08:50:11,YZ,None,
,,,,,,calibration,0,9,2,583,9,S,0,right,0.512202776997583,1,0,,,,,,,,,,,,,,,,,,,,,1,,,,,,,,,,,,,,,,,,,,,,,,,,,,,,,,,,,,,,,,,,,,,,113,154621,21,Female,1,2024/03/22_08:50:11,YZ,None,
,,,,,,calibration,0,9,2,583,10,J,0,right,0.7309859529923415,1,0,,,,,,,,,,,,,,,,,,,,,1,,,,,,,,,,,,,,,,,,,,,,,,,,,,,,,,,,,,,,,,,,,,,,113,154621,21,Female,1,2024/03/22_08:50:11,YZ,None,
,,,,,,calibration,0,9,2,583,11,S,1,left,0.490922513010446,1,0,,,,,,,,,,,,,,,,,,,,,1,,,,,,,,,,,,,,,,,,,,,,,,,,,,,,,,,,,,,,,,,,,,,,113,154621,21,Female,1,2024/03/22_08:50:11,YZ,None,
,,,,,,calibration,0,9,2,583,12,J,1,right,0.4653177829895867,0,0,,,,,,,,,,,,,,,,,,,,,1,,,,,,,,,,,,,,,,,,,,,,,,,,,,,,,,,,,,,,,,,,,,,,113,154621,21,Female,1,2024/03/22_08:50:11,YZ,None,
,,,,,,calibration,0,9,2,583,13,V,0,right,0.5844947159930598,1,0,,,,,,,,,,,,,,,,,,,,,1,,,,,,,,,,,,,,,,,,,,,,,,,,,,,,,,,,,,,,,,,,,,,,113,154621,21,Female,1,2024/03/22_08:50:11,YZ,None,
,,,,,,calibration,0,9,2,583,14,J,1,left,0.4298812409979291,1,0,,,,,,,,,,,,,,,,,,,,,1,,,,,,,,,,,,,,,,,,,,,,,,,,,,,,,,,,,,,,,,,,,,,,113,154621,21,Female,1,2024/03/22_08:50:11,YZ,None,
,,,,,,calibration,0,9,2,583,15,V,1,left,0.8684109669993632,1,0,,,,,,,,,,,,,,,,,,,,,1,,,,,,,,,,,,,,,,,,,,,,,,,,,,,,,,,,,,,,,,,,,,,,113,154621,21,Female,1,2024/03/22_08:50:11,YZ,None,
,,,,,,calibration,0,9,2,583,,,,,,,,0.8465909090909092,0.75,0.18181818181818182,0.8181818181818182,0.0,0.8181818181818181,0.6204944570665247,3,2,0,0,0,9,12,4,11,0,,,,1,,,,,,,,,,,,,,,,,,,,,,,,,,,,,,,,,,,,,,,,,,,,,,113,154621,21,Female,1,2024/03/22_08:50:11,YZ,None,
,,,,,,Calibration,0,,2,583,,,,,,,,,,,,,,,,,,,,,,,,,1,,,1,,,,,,,,,,,,,,,,,,,,,,,,,,,,,,,,,,,,,,,,,,,,,,113,154621,21,Female,1,2024/03/22_08:50:11,YZ,None,
,,,,,,calibration,0,14,2,583,1,X,0,right,0.8954983700095909,1,0,,,,,,,,,,,,,,,,,,,,,1,,,,,,,,,,,,,,,,,,,,,,,,,,,,,,,,,,,,,,,,,,,,,,113,154621,21,Female,1,2024/03/22_08:50:11,YZ,None,
,,,,,,calibration,0,14,2,583,2,Q,0,right,0.47667473199544474,1,0,,,,,,,,,,,,,,,,,,,,,1,,,,,,,,,,,,,,,,,,,,,,,,,,,,,,,,,,,,,,,,,,,,,,113,154621,21,Female,1,2024/03/22_08:50:11,YZ,None,
,,,,,,calibration,0,14,2,583,3,S,0,right,0.49766745998931583,1,0,,,,,,,,,,,,,,,,,,,,,1,,,,,,,,,,,,,,,,,,,,,,,,,,,,,,,,,,,,,,,,,,,,,,113,154621,21,Female,1,2024/03/22_08:50:11,YZ,None,
,,,,,,calibration,0,14,2,583,4,Q,1,left,0.3760039170010714,1,0,,,,,,,,,,,,,,,,,,,,,1,,,,,,,,,,,,,,,,,,,,,,,,,,,,,,,,,,,,,,,,,,,,,,113,154621,21,Female,1,2024/03/22_08:50:11,YZ,None,
,,,,,,calibration,0,14,2,583,5,V,0,right,0.48487655699136667,1,0,,,,,,,,,,,,,,,,,,,,,1,,,,,,,,,,,,,,,,,,,,,,,,,,,,,,,,,,,,,,,,,,,,,,113,154621,21,Female,1,2024/03/22_08:50:11,YZ,None,
,,,,,,calibration,0,14,2,583,6,Q,1,left,0.4586913219973212,1,0,,,,,,,,,,,,,,,,,,,,,1,,,,,,,,,,,,,,,,,,,,,,,,,,,,,,,,,,,,,,,,,,,,,,113,154621,21,Female,1,2024/03/22_08:50:11,YZ,None,
,,,,,,calibration,0,14,2,583,7,C,0,right,0.39260101500258315,1,0,,,,,,,,,,,,,,,,,,,,,1,,,,,,,,,,,,,,,,,,,,,,,,,,,,,,,,,,,,,,,,,,,,,,113,154621,21,Female,1,2024/03/22_08:50:11,YZ,None,
,,,,,,calibration,0,14,2,583,8,Q,1,left,0.6857273069908842,1,0,,,,,,,,,,,,,,,,,,,,,1,,,,,,,,,,,,,,,,,,,,,,,,,,,,,,,,,,,,,,,,,,,,,,113,154621,21,Female,1,2024/03/22_08:50:11,YZ,None,
,,,,,,calibration,0,14,2,583,9,V,0,left,0.5418419740017271,0,0,,,,,,,,,,,,,,,,,,,,,1,,,,,,,,,,,,,,,,,,,,,,,,,,,,,,,,,,,,,,,,,,,,,,113,154621,21,Female,1,2024/03/22_08:50:11,YZ,None,
,,,,,,calibration,0,14,2,583,10,Q,1,right,0.46511709700280335,0,0,,,,,,,,,,,,,,,,,,,,,1,,,,,,,,,,,,,,,,,,,,,,,,,,,,,,,,,,,,,,,,,,,,,,113,154621,21,Female,1,2024/03/22_08:50:11,YZ,None,
,,,,,,calibration,0,14,2,583,11,V,1,left,1.0995060380082577,1,0,,,,,,,,,,,,,,,,,,,,,1,,,,,,,,,,,,,,,,,,,,,,,,,,,,,,,,,,,,,,,,,,,,,,113,154621,21,Female,1,2024/03/22_08:50:11,YZ,None,
,,,,,,calibration,0,14,2,583,12,S,0,right,0.4851883219962474,1,0,,,,,,,,,,,,,,,,,,,,,1,,,,,,,,,,,,,,,,,,,,,,,,,,,,,,,,,,,,,,,,,,,,,,113,154621,21,Female,1,2024/03/22_08:50:11,YZ,None,
,,,,,,calibration,0,14,2,583,13,Q,0,right,0.9969888850027928,1,0,,,,,,,,,,,,,,,,,,,,,1,,,,,,,,,,,,,,,,,,,,,,,,,,,,,,,,,,,,,,,,,,,,,,113,154621,21,Female,1,2024/03/22_08:50:11,YZ,None,
,,,,,,calibration,0,14,2,583,14,J,0,left,0.5922566530061886,0,0,,,,,,,,,,,,,,,,,,,,,1,,,,,,,,,,,,,,,,,,,,,,,,,,,,,,,,,,,,,,,,,,,,,,113,154621,21,Female,1,2024/03/22_08:50:11,YZ,None,
,,,,,,calibration,0,14,2,583,15,V,0,left,0.9640862359956373,0,0,,,,,,,,,,,,,,,,,,,,,1,,,,,,,,,,,,,,,,,,,,,,,,,,,,,,,,,,,,,,,,,,,,,,113,154621,21,Female,1,2024/03/22_08:50:11,YZ,None,
,,,,,,calibration,0,14,2,583,,,,,,,,0.8150000000000001,0.8,0.3,0.7,0.0,0.7,0.6275150589994155,4,3,0,0,0,7,11,5,10,0,,,,1,,,,,,,,,,,,,,,,,,,,,,,,,,,,,,,,,,,,,,,,,,,,,,113,154621,21,Female,1,2024/03/22_08:50:11,YZ,None,
,,,,,,Calibration,0,,2,583,,,,,,,,,,,,,,,,,,,,,,,,,2,,,1,,,,,,,,,,,,,,,,,,,,,,,,,,,,,,,,,,,,,,,,,,,,,,113,154621,21,Female,1,2024/03/22_08:50:11,YZ,None,
,,,,,,calibration,0,15,2,583,1,N,0,right,0.7202492680080468,1,0,,,,,,,,,,,,,,,,,,,,,1,,,,,,,,,,,,,,,,,,,,,,,,,,,,,,,,,,,,,,,,,,,,,,113,154621,21,Female,1,2024/03/22_08:50:11,YZ,None,
,,,,,,calibration,0,15,2,583,2,S,0,right,0.6643820090102963,1,0,,,,,,,,,,,,,,,,,,,,,1,,,,,,,,,,,,,,,,,,,,,,,,,,,,,,,,,,,,,,,,,,,,,,113,154621,21,Female,1,2024/03/22_08:50:11,YZ,None,
,,,,,,calibration,0,15,2,583,3,C,0,left,0.6658174480107846,0,0,,,,,,,,,,,,,,,,,,,,,1,,,,,,,,,,,,,,,,,,,,,,,,,,,,,,,,,,,,,,,,,,,,,,113,154621,21,Female,1,2024/03/22_08:50:11,YZ,None,
,,,,,,calibration,0,15,2,583,4,X,0,right,0.6588025389937684,1,0,,,,,,,,,,,,,,,,,,,,,1,,,,,,,,,,,,,,,,,,,,,,,,,,,,,,,,,,,,,,,,,,,,,,113,154621,21,Female,1,2024/03/22_08:50:11,YZ,None,
,,,,,,calibration,0,15,2,583,5,F,0,right,0.3918326410057489,1,0,,,,,,,,,,,,,,,,,,,,,1,,,,,,,,,,,,,,,,,,,,,,,,,,,,,,,,,,,,,,,,,,,,,,113,154621,21,Female,1,2024/03/22_08:50:11,YZ,None,
,,,,,,calibration,0,15,2,583,6,S,0,left,0.6188093350065174,0,0,,,,,,,,,,,,,,,,,,,,,1,,,,,,,,,,,,,,,,,,,,,,,,,,,,,,,,,,,,,,,,,,,,,,113,154621,21,Female,1,2024/03/22_08:50:11,YZ,None,
,,,,,,calibration,0,15,2,583,7,F,1,left,0.6950839670025744,1,0,,,,,,,,,,,,,,,,,,,,,1,,,,,,,,,,,,,,,,,,,,,,,,,,,,,,,,,,,,,,,,,,,,,,113,154621,21,Female,1,2024/03/22_08:50:11,YZ,None,
,,,,,,calibration,0,15,2,583,8,Q,0,right,0.3596074259985471,1,0,,,,,,,,,,,,,,,,,,,,,1,,,,,,,,,,,,,,,,,,,,,,,,,,,,,,,,,,,,,,,,,,,,,,113,154621,21,Female,1,2024/03/22_08:50:11,YZ,None,
,,,,,,calibration,0,15,2,583,9,F,1,left,0.7160228949942393,1,0,,,,,,,,,,,,,,,,,,,,,1,,,,,,,,,,,,,,,,,,,,,,,,,,,,,,,,,,,,,,,,,,,,,,113,154621,21,Female,1,2024/03/22_08:50:11,YZ,None,
,,,,,,calibration,0,15,2,583,10,C,0,right,0.4243173759896308,1,0,,,,,,,,,,,,,,,,,,,,,1,,,,,,,,,,,,,,,,,,,,,,,,,,,,,,,,,,,,,,,,,,,,,,113,154621,21,Female,1,2024/03/22_08:50:11,YZ,None,
,,,,,,calibration,0,15,2,583,11,F,1,left,0.7473989080026513,1,0,,,,,,,,,,,,,,,,,,,,,1,,,,,,,,,,,,,,,,,,,,,,,,,,,,,,,,,,,,,,,,,,,,,,113,154621,21,Female,1,2024/03/22_08:50:11,YZ,None,
,,,,,,calibration,0,15,2,583,12,C,1,left,0.5123277429956943,1,0,,,,,,,,,,,,,,,,,,,,,1,,,,,,,,,,,,,,,,,,,,,,,,,,,,,,,,,,,,,,,,,,,,,,113,154621,21,Female,1,2024/03/22_08:50:11,YZ,None,
,,,,,,calibration,0,15,2,583,13,S,0,right,0.4913150699867401,1,0,,,,,,,,,,,,,,,,,,,,,1,,,,,,,,,,,,,,,,,,,,,,,,,,,,,,,,,,,,,,,,,,,,,,113,154621,21,Female,1,2024/03/22_08:50:11,YZ,None,
,,,,,,calibration,0,15,2,583,14,X,0,right,0.8317208140069852,1,0,,,,,,,,,,,,,,,,,,,,,1,,,,,,,,,,,,,,,,,,,,,,,,,,,,,,,,,,,,,,,,,,,,,,113,154621,21,Female,1,2024/03/22_08:50:11,YZ,None,
,,,,,,calibration,0,15,2,583,15,Q,0,left,0.5646962769969832,0,0,,,,,,,,,,,,,,,,,,,,,1,,,,,,,,,,,,,,,,,,,,,,,,,,,,,,,,,,,,,,,,,,,,,,113,154621,21,Female,1,2024/03/22_08:50:11,YZ,None,
,,,,,,calibration,0,15,2,583,,,,,,,,0.9318181818181819,1.0,0.2727272727272727,0.7272727272727273,0.0,0.7272727272727273,0.6041589144006139,4,3,0,0,0,8,12,4,11,0,,,,1,,,,,,,,,,,,,,,,,,,,,,,,,,,,,,,,,,,,,,,,,,,,,,113,154621,21,Female,1,2024/03/22_08:50:11,YZ,None,
,,,,,,Calibration,0,,2,583,,,,,,,,,,,,,,,,,,,,,,,,,3,,,1,,,,,,,,,,,,,,,,,,,,,,,,,,,,,,,,,,,,,,,,,,,,,,113,154621,21,Female,1,2024/03/22_08:50:11,YZ,None,
,,,,,,calibration,0,20,2,500,1,Q,0,None,nan,0,1,,,,,,,,,,,,,,,,,,,,,1,,,,,,,,,,,,,,,,,,,,,,,,,,,,,,,,,,,,,,,,,,,,,,113,154621,21,Female,1,2024/03/22_08:50:11,YZ,None,
,,,,,,calibration,0,20,2,500,2,V,0,right,0.7392935219977517,1,0,,,,,,,,,,,,,,,,,,,,,1,,,,,,,,,,,,,,,,,,,,,,,,,,,,,,,,,,,,,,,,,,,,,,113,154621,21,Female,1,2024/03/22_08:50:11,YZ,None,
,,,,,,calibration,0,20,2,500,3,S,0,right,0.8091170109983068,1,0,,,,,,,,,,,,,,,,,,,,,1,,,,,,,,,,,,,,,,,,,,,,,,,,,,,,,,,,,,,,,,,,,,,,113,154621,21,Female,1,2024/03/22_08:50:11,YZ,None,
,,,,,,calibration,0,20,2,500,4,F,0,right,0.7760450550122187,1,0,,,,,,,,,,,,,,,,,,,,,1,,,,,,,,,,,,,,,,,,,,,,,,,,,,,,,,,,,,,,,,,,,,,,113,154621,21,Female,1,2024/03/22_08:50:11,YZ,None,
,,,,,,calibration,0,20,2,500,5,X,0,right,0.5123095649905736,1,0,,,,,,,,,,,,,,,,,,,,,1,,,,,,,,,,,,,,,,,,,,,,,,,,,,,,,,,,,,,,,,,,,,,,113,154621,21,Female,1,2024/03/22_08:50:11,YZ,None,
,,,,,,calibration,0,20,2,500,6,F,1,left,0.5121254569967277,1,0,,,,,,,,,,,,,,,,,,,,,1,,,,,,,,,,,,,,,,,,,,,,,,,,,,,,,,,,,,,,,,,,,,,,113,154621,21,Female,1,2024/03/22_08:50:11,YZ,None,
,,,,,,calibration,0,20,2,500,7,C,0,right,0.7073559440032113,1,0,,,,,,,,,,,,,,,,,,,,,1,,,,,,,,,,,,,,,,,,,,,,,,,,,,,,,,,,,,,,,,,,,,,,113,154621,21,Female,1,2024/03/22_08:50:11,YZ,None,
,,,,,,calibration,0,20,2,500,8,V,0,right,0.964233630002127,1,0,,,,,,,,,,,,,,,,,,,,,1,,,,,,,,,,,,,,,,,,,,,,,,,,,,,,,,,,,,,,,,,,,,,,113,154621,21,Female,1,2024/03/22_08:50:11,YZ,None,
,,,,,,calibration,0,20,2,500,9,C,1,left,0.38743993200478144,1,0,,,,,,,,,,,,,,,,,,,,,1,,,,,,,,,,,,,,,,,,,,,,,,,,,,,,,,,,,,,,,,,,,,,,113,154621,21,Female,1,2024/03/22_08:50:11,YZ,None,
,,,,,,calibration,0,20,2,500,10,V,1,left,0.6095564919960452,1,0,,,,,,,,,,,,,,,,,,,,,1,,,,,,,,,,,,,,,,,,,,,,,,,,,,,,,,,,,,,,,,,,,,,,113,154621,21,Female,1,2024/03/22_08:50:11,YZ,None,
,,,,,,calibration,0,20,2,500,11,N,0,right,0.3588030810060445,1,0,,,,,,,,,,,,,,,,,,,,,1,,,,,,,,,,,,,,,,,,,,,,,,,,,,,,,,,,,,,,,,,,,,,,113,154621,21,Female,1,2024/03/22_08:50:11,YZ,None,
,,,,,,calibration,0,20,2,500,12,V,1,left,0.5592048520047683,1,0,,,,,,,,,,,,,,,,,,,,,1,,,,,,,,,,,,,,,,,,,,,,,,,,,,,,,,,,,,,,,,,,,,,,113,154621,21,Female,1,2024/03/22_08:50:11,YZ,None,
,,,,,,calibration,0,20,2,500,13,C,0,right,0.5755395540036261,1,0,,,,,,,,,,,,,,,,,,,,,1,,,,,,,,,,,,,,,,,,,,,,,,,,,,,,,,,,,,,,,,,,,,,,113,154621,21,Female,1,2024/03/22_08:50:11,YZ,None,
,,,,,,calibration,0,20,2,500,14,S,0,right,0.5817945040034829,1,0,,,,,,,,,,,,,,,,,,,,,1,,,,,,,,,,,,,,,,,,,,,,,,,,,,,,,,,,,,,,,,,,,,,,113,154621,21,Female,1,2024/03/22_08:50:11,YZ,None,
,,,,,,calibration,0,20,2,500,15,J,0,right,0.7741339389904169,1,0,,,,,,,,,,,,,,,,,,,,,1,,,,,,,,,,,,,,,,,,,,,,,,,,,,,,,,,,,,,,,,,,,,,,113,154621,21,Female,1,2024/03/22_08:50:11,YZ,None,
,,,,,,calibration,0,20,2,500,16,C,0,left,0.39842549299646635,0,0,,,,,,,,,,,,,,,,,,,,,1,,,,,,,,,,,,,,,,,,,,,,,,,,,,,,,,,,,,,,,,,,,,,,113,154621,21,Female,1,2024/03/22_08:50:11,YZ,None,
,,,,,,calibration,0,20,2,500,,,,,,,,0.9791666666666666,1.0,0.08333333333333333,0.9090909090909091,0.0625,0.8541666666666666,0.6176918687337699,4,1,0,1,1,10,14,4,12,0,,,,1,,,,,,,,,,,,,,,,,,,,,,,,,,,,,,,,,,,,,,,,,,,,,,113,154621,21,Female,1,2024/03/22_08:50:11,YZ,None,
,,,,,,Calibration,0,,2,500,,,,,,,,,,,,,,,,,,,,,,,,,4,,,1,,,,,,,,,,,,,,,,,,,,,,,,,,,,,,,,,,,,,,,,,,,,,,113,154621,21,Female,1,2024/03/22_08:50:11,YZ,None,
,,,,,,calibration,0,22,2,426,1,F,0,right,0.7073853300098563,1,0,,,,,,,,,,,,,,,,,,,,,1,,,,,,,,,,,,,,,,,,,,,,,,,,,,,,,,,,,,,,,,,,,,,,113,154621,21,Female,1,2024/03/22_08:50:11,YZ,None,
,,,,,,calibration,0,22,2,426,2,Q,0,right,0.5794466999941505,1,0,,,,,,,,,,,,,,,,,,,,,1,,,,,,,,,,,,,,,,,,,,,,,,,,,,,,,,,,,,,,,,,,,,,,113,154621,21,Female,1,2024/03/22_08:50:11,YZ,None,
,,,,,,calibration,0,22,2,426,3,N,0,right,0.6590132979908958,1,0,,,,,,,,,,,,,,,,,,,,,1,,,,,,,,,,,,,,,,,,,,,,,,,,,,,,,,,,,,,,,,,,,,,,113,154621,21,Female,1,2024/03/22_08:50:11,YZ,None,
,,,,,,calibration,0,22,2,426,4,Q,1,left,0.4781085590075236,1,0,,,,,,,,,,,,,,,,,,,,,1,,,,,,,,,,,,,,,,,,,,,,,,,,,,,,,,,,,,,,,,,,,,,,113,154621,21,Female,1,2024/03/22_08:50:11,YZ,None,
,,,,,,calibration,0,22,2,426,5,V,0,right,0.4730904040043242,1,0,,,,,,,,,,,,,,,,,,,,,1,,,,,,,,,,,,,,,,,,,,,,,,,,,,,,,,,,,,,,,,,,,,,,113,154621,21,Female,1,2024/03/22_08:50:11,YZ,None,
,,,,,,calibration,0,22,2,426,6,Q,1,left,0.4896283480047714,1,0,,,,,,,,,,,,,,,,,,,,,1,,,,,,,,,,,,,,,,,,,,,,,,,,,,,,,,,,,,,,,,,,,,,,113,154621,21,Female,1,2024/03/22_08:50:11,YZ,None,
,,,,,,calibration,0,22,2,426,7,C,0,right,0.4335126810037764,1,0,,,,,,,,,,,,,,,,,,,,,1,,,,,,,,,,,,,,,,,,,,,,,,,,,,,,,,,,,,,,,,,,,,,,113,154621,21,Female,1,2024/03/22_08:50:11,YZ,None,
,,,,,,calibration,0,22,2,426,8,N,0,left,0.5241616969869938,0,0,,,,,,,,,,,,,,,,,,,,,1,,,,,,,,,,,,,,,,,,,,,,,,,,,,,,,,,,,,,,,,,,,,,,113,154621,21,Female,1,2024/03/22_08:50:11,YZ,None,
,,,,,,calibration,0,22,2,426,9,V,0,left,0.6146300219988916,0,0,,,,,,,,,,,,,,,,,,,,,1,,,,,,,,,,,,,,,,,,,,,,,,,,,,,,,,,,,,,,,,,,,,,,113,154621,21,Female,1,2024/03/22_08:50:11,YZ,None,
,,,,,,calibration,0,22,2,426,10,X,0,right,0.3036507140059257,1,0,,,,,,,,,,,,,,,,,,,,,1,,,,,,,,,,,,,,,,,,,,,,,,,,,,,,,,,,,,,,,,,,,,,,113,154621,21,Female,1,2024/03/22_08:50:11,YZ,None,
,,,,,,calibration,0,22,2,426,11,S,0,right,0.549250256997766,1,0,,,,,,,,,,,,,,,,,,,,,1,,,,,,,,,,,,,,,,,,,,,,,,,,,,,,,,,,,,,,,,,,,,,,113,154621,21,Female,1,2024/03/22_08:50:11,YZ,None,
,,,,,,calibration,0,22,2,426,12,X,1,left,0.45783545401354786,1,0,,,,,,,,,,,,,,,,,,,,,1,,,,,,,,,,,,,,,,,,,,,,,,,,,,,,,,,,,,,,,,,,,,,,113,154621,21,Female,1,2024/03/22_08:50:11,YZ,None,
,,,,,,calibration,0,22,2,426,13,S,1,right,0.5419796869973652,0,0,,,,,,,,,,,,,,,,,,,,,1,,,,,,,,,,,,,,,,,,,,,,,,,,,,,,,,,,,,,,,,,,,,,,113,154621,21,Female,1,2024/03/22_08:50:11,YZ,None,
,,,,,,calibration,0,22,2,426,14,V,0,right,0.7081467009993503,1,0,,,,,,,,,,,,,,,,,,,,,1,,,,,,,,,,,,,,,,,,,,,,,,,,,,,,,,,,,,,,,,,,,,,,113,154621,21,Female,1,2024/03/22_08:50:11,YZ,None,
,,,,,,calibration,0,22,2,426,15,J,0,right,nan,0,1,,,,,,,,,,,,,,,,,,,,,1,,,,,,,,,,,,,,,,,,,,,,,,,,,,,,,,,,,,,,,,,,,,,,113,154621,21,Female,1,2024/03/22_08:50:11,YZ,None,
,,,,,,calibration,0,22,2,426,16,V,1,left,0.3647792510018917,1,0,,,,,,,,,,,,,,,,,,,,,1,,,,,,,,,,,,,,,,,,,,,,,,,,,,,,,,,,,,,,,,,,,,,,113,154621,21,Female,1,2024/03/22_08:50:11,YZ,None,
,,,,,,calibration,0,22,2,426,17,S,0,left,nan,0,1,,,,,,,,,,,,,,,,,,,,,1,,,,,,,,,,,,,,,,,,,,,,,,,,,,,,,,,,,,,,,,,,,,,,113,154621,21,Female,1,2024/03/22_08:50:11,YZ,None,
,,,,,,calibration,0,22,2,426,,,,,,,,0.875,0.8,0.16666666666666666,0.8,0.11764705882352941,0.7156862745098039,0.5256412735344687,4,2,0,2,2,8,12,5,12,0,,,,1,,,,,,,,,,,,,,,,,,,,,,,,,,,,,,,,,,,,,,,,,,,,,,113,154621,21,Female,1,2024/03/22_08:50:11,YZ,None,
,,,,,,Calibration,0,,2,426,,,,,,,,,,,,,,,,,,,,,,,,,5,,,1,,,,,,,,,,,,,,,,,,,,,,,,,,,,,,,,,,,,,,,,,,,,,,113,154621,21,Female,1,2024/03/22_08:50:11,YZ,None,
,,,,,,calibration,0,10,2,361,1,X,0,right,0.48796563100768253,1,0,,,,,,,,,,,,,,,,,,,,,1,,,,,,,,,,,,,,,,,,,,,,,,,,,,,,,,,,,,,,,,,,,,,,113,154621,21,Female,1,2024/03/22_08:50:11,YZ,None,
,,,,,,calibration,0,10,2,361,2,X,0,right,nan,0,1,,,,,,,,,,,,,,,,,,,,,1,,,,,,,,,,,,,,,,,,,,,,,,,,,,,,,,,,,,,,,,,,,,,,113,154621,21,Female,1,2024/03/22_08:50:11,YZ,None,
,,,,,,calibration,0,10,2,361,3,X,1,left,0.5241695599979721,1,0,,,,,,,,,,,,,,,,,,,,,1,,,,,,,,,,,,,,,,,,,,,,,,,,,,,,,,,,,,,,,,,,,,,,113,154621,21,Female,1,2024/03/22_08:50:11,YZ,None,
,,,,,,calibration,0,10,2,361,4,N,0,right,0.5199678530043457,1,0,,,,,,,,,,,,,,,,,,,,,1,,,,,,,,,,,,,,,,,,,,,,,,,,,,,,,,,,,,,,,,,,,,,,113,154621,21,Female,1,2024/03/22_08:50:11,YZ,None,
,,,,,,calibration,0,10,2,361,5,Q,0,right,0.680990604989347,1,0,,,,,,,,,,,,,,,,,,,,,1,,,,,,,,,,,,,,,,,,,,,,,,,,,,,,,,,,,,,,,,,,,,,,113,154621,21,Female,1,2024/03/22_08:50:11,YZ,None,
,,,,,,calibration,0,10,2,361,6,F,0,right,0.5309642869979143,1,0,,,,,,,,,,,,,,,,,,,,,1,,,,,,,,,,,,,,,,,,,,,,,,,,,,,,,,,,,,,,,,,,,,,,113,154621,21,Female,1,2024/03/22_08:50:11,YZ,None,
,,,,,,calibration,0,10,2,361,7,N,0,left,0.540944798005512,0,0,,,,,,,,,,,,,,,,,,,,,1,,,,,,,,,,,,,,,,,,,,,,,,,,,,,,,,,,,,,,,,,,,,,,113,154621,21,Female,1,2024/03/22_08:50:11,YZ,None,
,,,,,,calibration,0,10,2,361,8,F,1,left,0.6019401599915,1,0,,,,,,,,,,,,,,,,,,,,,1,,,,,,,,,,,,,,,,,,,,,,,,,,,,,,,,,,,,,,,,,,,,,,113,154621,21,Female,1,2024/03/22_08:50:11,YZ,None,
,,,,,,calibration,0,10,2,361,9,N,1,right,0.5416891200002283,0,0,,,,,,,,,,,,,,,,,,,,,1,,,,,,,,,,,,,,,,,,,,,,,,,,,,,,,,,,,,,,,,,,,,,,113,154621,21,Female,1,2024/03/22_08:50:11,YZ,None,
,,,,,,calibration,0,10,2,361,10,V,0,right,0.6926865349960281,1,0,,,,,,,,,,,,,,,,,,,,,1,,,,,,,,,,,,,,,,,,,,,,,,,,,,,,,,,,,,,,,,,,,,,,113,154621,21,Female,1,2024/03/22_08:50:11,YZ,None,
,,,,,,calibration,0,10,2,361,11,F,0,left,0.28324221199727617,0,0,,,,,,,,,,,,,,,,,,,,,1,,,,,,,,,,,,,,,,,,,,,,,,,,,,,,,,,,,,,,,,,,,,,,113,154621,21,Female,1,2024/03/22_08:50:11,YZ,None,
,,,,,,calibration,0,10,2,361,12,V,1,left,0.8751176200021291,1,0,,,,,,,,,,,,,,,,,,,,,1,,,,,,,,,,,,,,,,,,,,,,,,,,,,,,,,,,,,,,,,,,,,,,113,154621,21,Female,1,2024/03/22_08:50:11,YZ,None,
,,,,,,calibration,0,10,2,361,13,Q,0,right,0.4996135279943701,1,0,,,,,,,,,,,,,,,,,,,,,1,,,,,,,,,,,,,,,,,,,,,,,,,,,,,,,,,,,,,,,,,,,,,,113,154621,21,Female,1,2024/03/22_08:50:11,YZ,None,
,,,,,,calibration,0,10,2,361,14,N,0,left,0.7160638750065118,0,0,,,,,,,,,,,,,,,,,,,,,1,,,,,,,,,,,,,,,,,,,,,,,,,,,,,,,,,,,,,,,,,,,,,,113,154621,21,Female,1,2024/03/22_08:50:11,YZ,None,
,,,,,,calibration,0,10,2,361,15,X,0,right,0.6154740100027993,1,0,,,,,,,,,,,,,,,,,,,,,1,,,,,,,,,,,,,,,,,,,,,,,,,,,,,,,,,,,,,,,,,,,,,,113,154621,21,Female,1,2024/03/22_08:50:11,YZ,None,
,,,,,,calibration,0,10,2,361,16,S,0,right,0.4591980740078725,1,0,,,,,,,,,,,,,,,,,,,,,1,,,,,,,,,,,,,,,,,,,,,,,,,,,,,,,,,,,,,,,,,,,,,,113,154621,21,Female,1,2024/03/22_08:50:11,YZ,None,
,,,,,,calibration,0,10,2,361,17,X,1,left,0.42941708498983644,1,0,,,,,,,,,,,,,,,,,,,,,1,,,,,,,,,,,,,,,,,,,,,,,,,,,,,,,,,,,,,,,,,,,,,,113,154621,21,Female,1,2024/03/22_08:50:11,YZ,None,
,,,,,,calibration,0,10,2,361,18,S,1,right,0.5467214220116148,0,0,,,,,,,,,,,,,,,,,,,,,1,,,,,,,,,,,,,,,,,,,,,,,,,,,,,,,,,,,,,,,,,,,,,,113,154621,21,Female,1,2024/03/22_08:50:11,YZ,None,
,,,,,,calibration,0,10,2,361,,,,,,,,0.7708333333333333,0.6666666666666666,0.25,0.7272727272727273,0.05555555555555555,0.6944444444444444,0.5615391985295847,4,3,0,1,1,8,12,6,12,0,,,,1,,,,,,,,,,,,,,,,,,,,,,,,,,,,,,,,,,,,,,,,,,,,,,113,154621,21,Female,1,2024/03/22_08:50:11,YZ,None,
,,,,,,Calibration,0,,2,361,,,,,,,,,,,,,,,,,,,,,,,,,6,,,1,,,,,,,,,,,,,,,,,,,,,,,,,,,,,,,,,,,,,,,,,,,,,,113,154621,21,Female,1,2024/03/22_08:50:11,YZ,None,
,,,,,,calibration,0,29,2,361,1,J,0,right,0.6027073029981693,1,0,,,,,,,,,,,,,,,,,,,,,1,,,,,,,,,,,,,,,,,,,,,,,,,,,,,,,,,,,,,,,,,,,,,,113,154621,21,Female,1,2024/03/22_08:50:11,YZ,None,
,,,,,,calibration,0,29,2,361,2,V,0,right,0.3640096330054803,1,0,,,,,,,,,,,,,,,,,,,,,1,,,,,,,,,,,,,,,,,,,,,,,,,,,,,,,,,,,,,,,,,,,,,,113,154621,21,Female,1,2024/03/22_08:50:11,YZ,None,
,,,,,,calibration,0,29,2,361,3,J,1,left,0.3712135149980895,1,0,,,,,,,,,,,,,,,,,,,,,1,,,,,,,,,,,,,,,,,,,,,,,,,,,,,,,,,,,,,,,,,,,,,,113,154621,21,Female,1,2024/03/22_08:50:11,YZ,None,
,,,,,,calibration,0,29,2,361,4,S,0,right,0.4523168989981059,1,0,,,,,,,,,,,,,,,,,,,,,1,,,,,,,,,,,,,,,,,,,,,,,,,,,,,,,,,,,,,,,,,,,,,,113,154621,21,Female,1,2024/03/22_08:50:11,YZ,None,
,,,,,,calibration,0,29,2,361,5,Q,0,right,nan,0,1,,,,,,,,,,,,,,,,,,,,,1,,,,,,,,,,,,,,,,,,,,,,,,,,,,,,,,,,,,,,,,,,,,,,113,154621,21,Female,1,2024/03/22_08:50:11,YZ,None,
,,,,,,calibration,0,29,2,361,6,S,1,right,0.7259656289970735,0,0,,,,,,,,,,,,,,,,,,,,,1,,,,,,,,,,,,,,,,,,,,,,,,,,,,,,,,,,,,,,,,,,,,,,113,154621,21,Female,1,2024/03/22_08:50:11,YZ,None,
,,,,,,calibration,0,29,2,361,7,Q,1,left,0.6907334879942937,1,0,,,,,,,,,,,,,,,,,,,,,1,,,,,,,,,,,,,,,,,,,,,,,,,,,,,,,,,,,,,,,,,,,,,,113,154621,21,Female,1,2024/03/22_08:50:11,YZ,None,
,,,,,,calibration,0,29,2,361,8,J,0,right,0.8236259709956357,1,0,,,,,,,,,,,,,,,,,,,,,1,,,,,,,,,,,,,,,,,,,,,,,,,,,,,,,,,,,,,,,,,,,,,,113,154621,21,Female,1,2024/03/22_08:50:11,YZ,None,
,,,,,,calibration,0,29,2,361,9,Q,1,left,0.3542619500076398,1,0,,,,,,,,,,,,,,,,,,,,,1,,,,,,,,,,,,,,,,,,,,,,,,,,,,,,,,,,,,,,,,,,,,,,113,154621,21,Female,1,2024/03/22_08:50:11,YZ,None,
,,,,,,calibration,0,29,2,361,10,X,0,right,0.4606841749919113,1,0,,,,,,,,,,,,,,,,,,,,,1,,,,,,,,,,,,,,,,,,,,,,,,,,,,,,,,,,,,,,,,,,,,,,113,154621,21,Female,1,2024/03/22_08:50:11,YZ,None,
,,,,,,calibration,0,29,2,361,11,V,0,right,0.6072022139996989,1,0,,,,,,,,,,,,,,,,,,,,,1,,,,,,,,,,,,,,,,,,,,,,,,,,,,,,,,,,,,,,,,,,,,,,113,154621,21,Female,1,2024/03/22_08:50:11,YZ,None,
,,,,,,calibration,0,29,2,361,12,N,0,right,0.7771298760053469,1,0,,,,,,,,,,,,,,,,,,,,,1,,,,,,,,,,,,,,,,,,,,,,,,,,,,,,,,,,,,,,,,,,,,,,113,154621,21,Female,1,2024/03/22_08:50:11,YZ,None,
,,,,,,calibration,0,29,2,361,13,F,0,right,0.6824149720050627,1,0,,,,,,,,,,,,,,,,,,,,,1,,,,,,,,,,,,,,,,,,,,,,,,,,,,,,,,,,,,,,,,,,,,,,113,154621,21,Female,1,2024/03/22_08:50:11,YZ,None,
,,,,,,calibration,0,29,2,361,14,C,0,right,0.5482520509976894,1,0,,,,,,,,,,,,,,,,,,,,,1,,,,,,,,,,,,,,,,,,,,,,,,,,,,,,,,,,,,,,,,,,,,,,113,154621,21,Female,1,2024/03/22_08:50:11,YZ,None,
,,,,,,calibration,0,29,2,361,15,V,0,right,0.5978896099986741,1,0,,,,,,,,,,,,,,,,,,,,,1,,,,,,,,,,,,,,,,,,,,,,,,,,,,,,,,,,,,,,,,,,,,,,113,154621,21,Female,1,2024/03/22_08:50:11,YZ,None,
,,,,,,calibration,0,29,2,361,16,C,1,left,0.42174963899014983,1,0,,,,,,,,,,,,,,,,,,,,,1,,,,,,,,,,,,,,,,,,,,,,,,,,,,,,,,,,,,,,,,,,,,,,113,154621,21,Female,1,2024/03/22_08:50:11,YZ,None,
,,,,,,calibration,0,29,2,361,17,S,0,right,0.8668468299874803,1,0,,,,,,,,,,,,,,,,,,,,,1,,,,,,,,,,,,,,,,,,,,,,,,,,,,,,,,,,,,,,,,,,,,,,113,154621,21,Female,1,2024/03/22_08:50:11,YZ,None,
,,,,,,calibration,0,29,2,361,18,C,1,left,0.42970699901343323,1,0,,,,,,,,,,,,,,,,,,,,,1,,,,,,,,,,,,,,,,,,,,,,,,,,,,,,,,,,,,,,,,,,,,,,113,154621,21,Female,1,2024/03/22_08:50:11,YZ,None,
,,,,,,calibration,0,29,2,361,,,,,,,,0.9583333333333334,0.8333333333333334,0.0,1.0,0.05555555555555555,0.9444444444444444,0.5751006325872903,5,0,0,1,1,11,16,6,12,0,,,,1,,,,,,,,,,,,,,,,,,,,,,,,,,,,,,,,,,,,,,,,,,,,,,113,154621,21,Female,1,2024/03/22_08:50:11,YZ,None,
,,,,,,Calibration,0,,2,361,,,,,,,,,,,,,,,,,,,,,,,,,7,,,1,,,,,,,,,,,,,,,,,,,,,,,,,,,,,,,,,,,,,,,,,,,,,,113,154621,21,Female,1,2024/03/22_08:50:11,YZ,None,
,,,,,,calibration,0,28,2,303,1,S,0,right,0.35985887800052296,1,0,,,,,,,,,,,,,,,,,,,,,1,,,,,,,,,,,,,,,,,,,,,,,,,,,,,,,,,,,,,,,,,,,,,,113,154621,21,Female,1,2024/03/22_08:50:11,YZ,None,
,,,,,,calibration,0,28,2,303,2,F,0,right,0.5120953030127566,1,0,,,,,,,,,,,,,,,,,,,,,1,,,,,,,,,,,,,,,,,,,,,,,,,,,,,,,,,,,,,,,,,,,,,,113,154621,21,Female,1,2024/03/22_08:50:11,YZ,None,
,,,,,,calibration,0,28,2,303,3,C,0,right,0.4415405249892501,1,0,,,,,,,,,,,,,,,,,,,,,1,,,,,,,,,,,,,,,,,,,,,,,,,,,,,,,,,,,,,,,,,,,,,,113,154621,21,Female,1,2024/03/22_08:50:11,YZ,None,
,,,,,,calibration,0,28,2,303,4,F,1,left,0.4899394200037932,1,0,,,,,,,,,,,,,,,,,,,,,1,,,,,,,,,,,,,,,,,,,,,,,,,,,,,,,,,,,,,,,,,,,,,,113,154621,21,Female,1,2024/03/22_08:50:11,YZ,None,
,,,,,,calibration,0,28,2,303,5,X,0,right,0.31276494200574234,1,0,,,,,,,,,,,,,,,,,,,,,1,,,,,,,,,,,,,,,,,,,,,,,,,,,,,,,,,,,,,,,,,,,,,,113,154621,21,Female,1,2024/03/22_08:50:11,YZ,None,
,,,,,,calibration,0,28,2,303,6,Q,0,right,0.5743200389988488,1,0,,,,,,,,,,,,,,,,,,,,,1,,,,,,,,,,,,,,,,,,,,,,,,,,,,,,,,,,,,,,,,,,,,,,113,154621,21,Female,1,2024/03/22_08:50:11,YZ,None,
,,,,,,calibration,0,28,2,303,7,X,1,left,0.3222220690076938,1,0,,,,,,,,,,,,,,,,,,,,,1,,,,,,,,,,,,,,,,,,,,,,,,,,,,,,,,,,,,,,,,,,,,,,113,154621,21,Female,1,2024/03/22_08:50:11,YZ,None,
,,,,,,calibration,0,28,2,303,8,F,0,right,0.355023590993369,1,0,,,,,,,,,,,,,,,,,,,,,1,,,,,,,,,,,,,,,,,,,,,,,,,,,,,,,,,,,,,,,,,,,,,,113,154621,21,Female,1,2024/03/22_08:50:11,YZ,None,
,,,,,,calibration,0,28,2,303,9,X,1,right,0.6096859839890385,0,0,,,,,,,,,,,,,,,,,,,,,1,,,,,,,,,,,,,,,,,,,,,,,,,,,,,,,,,,,,,,,,,,,,,,113,154621,21,Female,1,2024/03/22_08:50:11,YZ,None,
,,,,,,calibration,0,28,2,303,10,S,0,right,0.5262384439993184,1,0,,,,,,,,,,,,,,,,,,,,,1,,,,,,,,,,,,,,,,,,,,,,,,,,,,,,,,,,,,,,,,,,,,,,113,154621,21,Female,1,2024/03/22_08:50:11,YZ,None,
,,,,,,calibration,0,28,2,303,11,C,0,left,0.675911358994199,0,0,,,,,,,,,,,,,,,,,,,,,1,,,,,,,,,,,,,,,,,,,,,,,,,,,,,,,,,,,,,,,,,,,,,,113,154621,21,Female,1,2024/03/22_08:50:11,YZ,None,
,,,,,,calibration,0,28,2,303,12,J,0,right,0.4494239369960269,1,0,,,,,,,,,,,,,,,,,,,,,1,,,,,,,,,,,,,,,,,,,,,,,,,,,,,,,,,,,,,,,,,,,,,,113,154621,21,Female,1,2024/03/22_08:50:11,YZ,None,
,,,,,,calibration,0,28,2,303,13,Q,0,right,0.7314774479891639,1,0,,,,,,,,,,,,,,,,,,,,,1,,,,,,,,,,,,,,,,,,,,,,,,,,,,,,,,,,,,,,,,,,,,,,113,154621,21,Female,1,2024/03/22_08:50:11,YZ,None,
,,,,,,calibration,0,28,2,303,14,J,1,left,0.3408712899981765,1,0,,,,,,,,,,,,,,,,,,,,,1,,,,,,,,,,,,,,,,,,,,,,,,,,,,,,,,,,,,,,,,,,,,,,113,154621,21,Female,1,2024/03/22_08:50:11,YZ,None,
,,,,,,calibration,0,28,2,303,15,V,0,right,0.3213448030001018,1,0,,,,,,,,,,,,,,,,,,,,,1,,,,,,,,,,,,,,,,,,,,,,,,,,,,,,,,,,,,,,,,,,,,,,113,154621,21,Female,1,2024/03/22_08:50:11,YZ,None,
,,,,,,calibration,0,28,2,303,16,S,0,left,0.4883970410010079,0,0,,,,,,,,,,,,,,,,,,,,,1,,,,,,,,,,,,,,,,,,,,,,,,,,,,,,,,,,,,,,,,,,,,,,113,154621,21,Female,1,2024/03/22_08:50:11,YZ,None,
,,,,,,calibration,0,28,2,303,17,V,1,right,0.3993463149963645,0,0,,,,,,,,,,,,,,,,,,,,,1,,,,,,,,,,,,,,,,,,,,,,,,,,,,,,,,,,,,,,,,,,,,,,113,154621,21,Female,1,2024/03/22_08:50:11,YZ,None,
,,,,,,calibration,0,28,2,303,18,C,0,right,0.7175091120006982,1,0,,,,,,,,,,,,,,,,,,,,,1,,,,,,,,,,,,,,,,,,,,,,,,,,,,,,,,,,,,,,,,,,,,,,113,154621,21,Female,1,2024/03/22_08:50:11,YZ,None,
,,,,,,calibration,0,28,2,303,19,V,1,left,0.39179955900181085,1,0,,,,,,,,,,,,,,,,,,,,,1,,,,,,,,,,,,,,,,,,,,,,,,,,,,,,,,,,,,,,,,,,,,,,113,154621,21,Female,1,2024/03/22_08:50:11,YZ,None,
,,,,,,calibration,0,28,2,303,,,,,,,,0.8269230769230769,0.6666666666666666,0.15384615384615385,0.8461538461538461,0.0,0.8461538461538461,0.4747247399462044,4,2,0,0,0,11,15,6,13,0,,,,1,,,,,,,,,,,,,,,,,,,,,,,,,,,,,,,,,,,,,,,,,,,,,,113,154621,21,Female,1,2024/03/22_08:50:11,YZ,None,
,,,,,,Calibration,0,,2,303,,,,,,,,,,,,,,,,,,,,,,,,,8,,,1,,,,,,,,,,,,,,,,,,,,,,,,,,,,,,,,,,,,,,,,,,,,,,113,154621,21,Female,1,2024/03/22_08:50:11,YZ,None,
,,,,,,calibration,0,34,2,303,1,Q,0,right,0.3541644139913842,1,0,,,,,,,,,,,,,,,,,,,,,1,,,,,,,,,,,,,,,,,,,,,,,,,,,,,,,,,,,,,,,,,,,,,,113,154621,21,Female,1,2024/03/22_08:50:11,YZ,None,
,,,,,,calibration,0,34,2,303,2,F,0,right,0.43232485400221776,1,0,,,,,,,,,,,,,,,,,,,,,1,,,,,,,,,,,,,,,,,,,,,,,,,,,,,,,,,,,,,,,,,,,,,,113,154621,21,Female,1,2024/03/22_08:50:11,YZ,None,
,,,,,,calibration,0,34,2,303,3,S,0,right,0.49208772100973874,1,0,,,,,,,,,,,,,,,,,,,,,1,,,,,,,,,,,,,,,,,,,,,,,,,,,,,,,,,,,,,,,,,,,,,,113,154621,21,Female,1,2024/03/22_08:50:11,YZ,None,
,,,,,,calibration,0,34,2,303,4,Q,0,left,0.4535591230087448,0,0,,,,,,,,,,,,,,,,,,,,,1,,,,,,,,,,,,,,,,,,,,,,,,,,,,,,,,,,,,,,,,,,,,,,113,154621,21,Female,1,2024/03/22_08:50:11,YZ,None,
,,,,,,calibration,0,34,2,303,5,J,0,right,0.6187850540009094,1,0,,,,,,,,,,,,,,,,,,,,,1,,,,,,,,,,,,,,,,,,,,,,,,,,,,,,,,,,,,,,,,,,,,,,113,154621,21,Female,1,2024/03/22_08:50:11,YZ,None,
,,,,,,calibration,0,34,2,303,6,Q,1,right,0.5314901149977231,0,0,,,,,,,,,,,,,,,,,,,,,1,,,,,,,,,,,,,,,,,,,,,,,,,,,,,,,,,,,,,,,,,,,,,,113,154621,21,Female,1,2024/03/22_08:50:11,YZ,None,
,,,,,,calibration,0,34,2,303,7,J,1,left,0.6645380030095112,1,0,,,,,,,,,,,,,,,,,,,,,1,,,,,,,,,,,,,,,,,,,,,,,,,,,,,,,,,,,,,,,,,,,,,,113,154621,21,Female,1,2024/03/22_08:50:11,YZ,None,
,,,,,,calibration,0,34,2,303,8,V,0,right,0.5120462420018157,1,0,,,,,,,,,,,,,,,,,,,,,1,,,,,,,,,,,,,,,,,,,,,,,,,,,,,,,,,,,,,,,,,,,,,,113,154621,21,Female,1,2024/03/22_08:50:11,YZ,None,
,,,,,,calibration,0,34,2,303,9,J,1,left,0.49509919800038915,1,0,,,,,,,,,,,,,,,,,,,,,1,,,,,,,,,,,,,,,,,,,,,,,,,,,,,,,,,,,,,,,,,,,,,,113,154621,21,Female,1,2024/03/22_08:50:11,YZ,None,
,,,,,,calibration,0,34,2,303,10,V,1,right,0.4208052319881972,0,0,,,,,,,,,,,,,,,,,,,,,1,,,,,,,,,,,,,,,,,,,,,,,,,,,,,,,,,,,,,,,,,,,,,,113,154621,21,Female,1,2024/03/22_08:50:11,YZ,None,
,,,,,,calibration,0,34,2,303,11,N,0,right,0.7322243009984959,1,0,,,,,,,,,,,,,,,,,,,,,1,,,,,,,,,,,,,,,,,,,,,,,,,,,,,,,,,,,,,,,,,,,,,,113,154621,21,Female,1,2024/03/22_08:50:11,YZ,None,
,,,,,,calibration,0,34,2,303,12,V,1,left,0.36323797100340016,1,0,,,,,,,,,,,,,,,,,,,,,1,,,,,,,,,,,,,,,,,,,,,,,,,,,,,,,,,,,,,,,,,,,,,,113,154621,21,Female,1,2024/03/22_08:50:11,YZ,None,
,,,,,,calibration,0,34,2,303,13,X,0,right,0.6052325129858218,1,0,,,,,,,,,,,,,,,,,,,,,1,,,,,,,,,,,,,,,,,,,,,,,,,,,,,,,,,,,,,,,,,,,,,,113,154621,21,Female,1,2024/03/22_08:50:11,YZ,None,
,,,,,,calibration,0,34,2,303,14,C,0,right,0.5385013390041422,1,0,,,,,,,,,,,,,,,,,,,,,1,,,,,,,,,,,,,,,,,,,,,,,,,,,,,,,,,,,,,,,,,,,,,,113,154621,21,Female,1,2024/03/22_08:50:11,YZ,None,
,,,,,,calibration,0,34,2,303,15,X,1,left,0.3839708330051508,1,0,,,,,,,,,,,,,,,,,,,,,1,,,,,,,,,,,,,,,,,,,,,,,,,,,,,,,,,,,,,,,,,,,,,,113,154621,21,Female,1,2024/03/22_08:50:11,YZ,None,
,,,,,,calibration,0,34,2,303,16,F,0,right,0.3926393309957348,1,0,,,,,,,,,,,,,,,,,,,,,1,,,,,,,,,,,,,,,,,,,,,,,,,,,,,,,,,,,,,,,,,,,,,,113,154621,21,Female,1,2024/03/22_08:50:11,YZ,None,
,,,,,,calibration,0,34,2,303,17,V,0,right,0.7240677009976935,1,0,,,,,,,,,,,,,,,,,,,,,1,,,,,,,,,,,,,,,,,,,,,,,,,,,,,,,,,,,,,,,,,,,,,,113,154621,21,Female,1,2024/03/22_08:50:11,YZ,None,
,,,,,,calibration,0,34,2,303,18,S,0,right,0.6879350450035417,1,0,,,,,,,,,,,,,,,,,,,,,1,,,,,,,,,,,,,,,,,,,,,,,,,,,,,,,,,,,,,,,,,,,,,,113,154621,21,Female,1,2024/03/22_08:50:11,YZ,None,
,,,,,,calibration,0,34,2,303,19,J,0,right,0.8477416380046634,1,0,,,,,,,,,,,,,,,,,,,,,1,,,,,,,,,,,,,,,,,,,,,,,,,,,,,,,,,,,,,,,,,,,,,,113,154621,21,Female,1,2024/03/22_08:50:11,YZ,None,
,,,,,,calibration,0,34,2,303,,,,,,,,0.8717948717948717,0.6666666666666666,0.07692307692307693,0.9230769230769231,0.0,0.9230769230769231,0.5394974014741724,4,1,0,0,0,12,16,6,13,0,,,,1,,,,,,,,,,,,,,,,,,,,,,,,,,,,,,,,,,,,,,,,,,,,,,113,154621,21,Female,1,2024/03/22_08:50:11,YZ,None,
,,,,,,Calibration,0,,2,303,,,,,,,,,,,,,,,,,,,,,,,,,9,,,1,,,,,,,,,,,,,,,,,,,,,,,,,,,,,,,,,,,,,,,,,,,,,,113,154621,21,Female,1,2024/03/22_08:50:11,YZ,None,
,,,,,,calibration,0,28,2,250,1,S,0,right,0.4843679850018816,1,0,,,,,,,,,,,,,,,,,,,,,1,,,,,,,,,,,,,,,,,,,,,,,,,,,,,,,,,,,,,,,,,,,,,,113,154621,21,Female,1,2024/03/22_08:50:11,YZ,None,
,,,,,,calibration,0,28,2,250,2,J,0,right,0.6640309779904783,1,0,,,,,,,,,,,,,,,,,,,,,1,,,,,,,,,,,,,,,,,,,,,,,,,,,,,,,,,,,,,,,,,,,,,,113,154621,21,Female,1,2024/03/22_08:50:11,YZ,None,
,,,,,,calibration,0,28,2,250,3,C,0,right,0.5240329899970675,1,0,,,,,,,,,,,,,,,,,,,,,1,,,,,,,,,,,,,,,,,,,,,,,,,,,,,,,,,,,,,,,,,,,,,,113,154621,21,Female,1,2024/03/22_08:50:11,YZ,None,
,,,,,,calibration,0,28,2,250,4,J,1,left,0.40827644598903134,1,0,,,,,,,,,,,,,,,,,,,,,1,,,,,,,,,,,,,,,,,,,,,,,,,,,,,,,,,,,,,,,,,,,,,,113,154621,21,Female,1,2024/03/22_08:50:11,YZ,None,
,,,,,,calibration,0,28,2,250,5,X,0,right,0.4369811250071507,1,0,,,,,,,,,,,,,,,,,,,,,1,,,,,,,,,,,,,,,,,,,,,,,,,,,,,,,,,,,,,,,,,,,,,,113,154621,21,Female,1,2024/03/22_08:50:11,YZ,None,
,,,,,,calibration,0,28,2,250,6,J,1,right,0.9630439089960419,0,0,,,,,,,,,,,,,,,,,,,,,1,,,,,,,,,,,,,,,,,,,,,,,,,,,,,,,,,,,,,,,,,,,,,,113,154621,21,Female,1,2024/03/22_08:50:11,YZ,None,
,,,,,,calibration,0,28,2,250,7,X,1,left,0.34564862700062804,1,0,,,,,,,,,,,,,,,,,,,,,1,,,,,,,,,,,,,,,,,,,,,,,,,,,,,,,,,,,,,,,,,,,,,,113,154621,21,Female,1,2024/03/22_08:50:11,YZ,None,
,,,,,,calibration,0,28,2,250,8,S,0,right,0.3441239840030903,1,0,,,,,,,,,,,,,,,,,,,,,1,,,,,,,,,,,,,,,,,,,,,,,,,,,,,,,,,,,,,,,,,,,,,,113,154621,21,Female,1,2024/03/22_08:50:11,YZ,None,
,,,,,,calibration,0,28,2,250,9,Q,0,right,nan,0,1,,,,,,,,,,,,,,,,,,,,,1,,,,,,,,,,,,,,,,,,,,,,,,,,,,,,,,,,,,,,,,,,,,,,113,154621,21,Female,1,2024/03/22_08:50:11,YZ,None,
,,,,,,calibration,0,28,2,250,10,S,1,left,0.36303890398994554,1,0,,,,,,,,,,,,,,,,,,,,,1,,,,,,,,,,,,,,,,,,,,,,,,,,,,,,,,,,,,,,,,,,,,,,113,154621,21,Female,1,2024/03/22_08:50:11,YZ,None,
,,,,,,calibration,0,28,2,250,11,J,0,right,0.6231241100031184,1,0,,,,,,,,,,,,,,,,,,,,,1,,,,,,,,,,,,,,,,,,,,,,,,,,,,,,,,,,,,,,,,,,,,,,113,154621,21,Female,1,2024/03/22_08:50:11,YZ,None,
,,,,,,calibration,0,28,2,250,12,C,0,left,0.6348166770039825,0,0,,,,,,,,,,,,,,,,,,,,,1,,,,,,,,,,,,,,,,,,,,,,,,,,,,,,,,,,,,,,,,,,,,,,113,154621,21,Female,1,2024/03/22_08:50:11,YZ,None,
,,,,,,calibration,0,28,2,250,13,S,0,right,0.45101555800647475,1,0,,,,,,,,,,,,,,,,,,,,,1,,,,,,,,,,,,,,,,,,,,,,,,,,,,,,,,,,,,,,,,,,,,,,113,154621,21,Female,1,2024/03/22_08:50:11,YZ,None,
,,,,,,calibration,0,28,2,250,14,F,0,right,0.5640529660013271,1,0,,,,,,,,,,,,,,,,,,,,,1,,,,,,,,,,,,,,,,,,,,,,,,,,,,,,,,,,,,,,,,,,,,,,113,154621,21,Female,1,2024/03/22_08:50:11,YZ,None,
,,,,,,calibration,0,28,2,250,15,C,0,right,0.7087316420074785,1,0,,,,,,,,,,,,,,,,,,,,,1,,,,,,,,,,,,,,,,,,,,,,,,,,,,,,,,,,,,,,,,,,,,,,113,154621,21,Female,1,2024/03/22_08:50:11,YZ,None,
,,,,,,calibration,0,28,2,250,16,S,0,left,0.371590587994433,0,0,,,,,,,,,,,,,,,,,,,,,1,,,,,,,,,,,,,,,,,,,,,,,,,,,,,,,,,,,,,,,,,,,,,,113,154621,21,Female,1,2024/03/22_08:50:11,YZ,None,
,,,,,,calibration,0,28,2,250,17,C,1,left,nan,0,1,,,,,,,,,,,,,,,,,,,,,1,,,,,,,,,,,,,,,,,,,,,,,,,,,,,,,,,,,,,,,,,,,,,,113,154621,21,Female,1,2024/03/22_08:50:11,YZ,None,
,,,,,,calibration,0,28,2,250,18,J,0,left,nan,0,1,,,,,,,,,,,,,,,,,,,,,1,,,,,,,,,,,,,,,,,,,,,,,,,,,,,,,,,,,,,,,,,,,,,,113,154621,21,Female,1,2024/03/22_08:50:11,YZ,None,
,,,,,,calibration,0,28,2,250,19,C,1,left,0.3924486030009575,1,0,,,,,,,,,,,,,,,,,,,,,1,,,,,,,,,,,,,,,,,,,,,,,,,,,,,,,,,,,,,,,,,,,,,,113,154621,21,Female,1,2024/03/22_08:50:11,YZ,None,
,,,,,,calibration,0,28,2,250,20,V,0,right,0.6914645109936828,1,0,,,,,,,,,,,,,,,,,,,,,1,,,,,,,,,,,,,,,,,,,,,,,,,,,,,,,,,,,,,,,,,,,,,,113,154621,21,Female,1,2024/03/22_08:50:11,YZ,None,
,,,,,,calibration,0,28,2,250,,,,,,,,0.8333333333333333,0.6666666666666666,0.14285714285714285,0.8333333333333334,0.15,0.7071428571428572,0.5276935060580453,4,2,1,2,3,10,14,6,14,0,,,,1,,,,,,,,,,,,,,,,,,,,,,,,,,,,,,,,,,,,,,,,,,,,,,113,154621,21,Female,1,2024/03/22_08:50:11,YZ,None,
,,,,,,Calibration,0,,2,250,,,,,,,,,,,,,,,,,,,,,,,,,10,,,1,,,,,,,,,,,,,,,,,,,,,,,,,,,,,,,,,,,,,,,,,,,,,,113,154621,21,Female,1,2024/03/22_08:50:11,YZ,None,
,,,,,,calibration,0,12,2,250,1,V,0,right,0.3986788189940853,1,0,,,,,,,,,,,,,,,,,,,,,1,,,,,,,,,,,,,,,,,,,,,,,,,,,,,,,,,,,,,,,,,,,,,,113,154621,21,Female,1,2024/03/22_08:50:11,YZ,None,
,,,,,,calibration,0,12,2,250,2,S,0,right,0.6157161040027859,1,0,,,,,,,,,,,,,,,,,,,,,1,,,,,,,,,,,,,,,,,,,,,,,,,,,,,,,,,,,,,,,,,,,,,,113,154621,21,Female,1,2024/03/22_08:50:11,YZ,None,
,,,,,,calibration,0,12,2,250,3,X,0,right,0.7582365389971528,1,0,,,,,,,,,,,,,,,,,,,,,1,,,,,,,,,,,,,,,,,,,,,,,,,,,,,,,,,,,,,,,,,,,,,,113,154621,21,Female,1,2024/03/22_08:50:11,YZ,None,
,,,,,,calibration,0,12,2,250,4,C,0,right,0.6051207480049925,1,0,,,,,,,,,,,,,,,,,,,,,1,,,,,,,,,,,,,,,,,,,,,,,,,,,,,,,,,,,,,,,,,,,,,,113,154621,21,Female,1,2024/03/22_08:50:11,YZ,None,
,,,,,,calibration,0,12,2,250,5,N,0,right,0.44125966999854427,1,0,,,,,,,,,,,,,,,,,,,,,1,,,,,,,,,,,,,,,,,,,,,,,,,,,,,,,,,,,,,,,,,,,,,,113,154621,21,Female,1,2024/03/22_08:50:11,YZ,None,
,,,,,,calibration,0,12,2,250,6,C,1,left,0.7662873020017287,1,0,,,,,,,,,,,,,,,,,,,,,1,,,,,,,,,,,,,,,,,,,,,,,,,,,,,,,,,,,,,,,,,,,,,,113,154621,21,Female,1,2024/03/22_08:50:11,YZ,None,
,,,,,,calibration,0,12,2,250,7,F,0,right,0.5124617510009557,1,0,,,,,,,,,,,,,,,,,,,,,1,,,,,,,,,,,,,,,,,,,,,,,,,,,,,,,,,,,,,,,,,,,,,,113,154621,21,Female,1,2024/03/22_08:50:11,YZ,None,
,,,,,,calibration,0,12,2,250,8,J,0,left,0.6249628740042681,0,0,,,,,,,,,,,,,,,,,,,,,1,,,,,,,,,,,,,,,,,,,,,,,,,,,,,,,,,,,,,,,,,,,,,,113,154621,21,Female,1,2024/03/22_08:50:11,YZ,None,
,,,,,,calibration,0,12,2,250,9,V,0,right,0.5694745569926454,1,0,,,,,,,,,,,,,,,,,,,,,1,,,,,,,,,,,,,,,,,,,,,,,,,,,,,,,,,,,,,,,,,,,,,,113,154621,21,Female,1,2024/03/22_08:50:11,YZ,None,
,,,,,,calibration,0,12,2,250,10,C,0,right,0.5235140069999034,1,0,,,,,,,,,,,,,,,,,,,,,1,,,,,,,,,,,,,,,,,,,,,,,,,,,,,,,,,,,,,,,,,,,,,,113,154621,21,Female,1,2024/03/22_08:50:11,YZ,None,
,,,,,,calibration,0,12,2,250,11,J,0,left,0.3859021319949534,0,0,,,,,,,,,,,,,,,,,,,,,1,,,,,,,,,,,,,,,,,,,,,,,,,,,,,,,,,,,,,,,,,,,,,,113,154621,21,Female,1,2024/03/22_08:50:11,YZ,None,
,,,,,,calibration,0,12,2,250,12,Q,0,right,0.24033976199280005,1,0,,,,,,,,,,,,,,,,,,,,,1,,,,,,,,,,,,,,,,,,,,,,,,,,,,,,,,,,,,,,,,,,,,,,113,154621,21,Female,1,2024/03/22_08:50:11,YZ,None,
,,,,,,calibration,0,12,2,250,13,J,1,right,0.5649123159964802,0,0,,,,,,,,,,,,,,,,,,,,,1,,,,,,,,,,,,,,,,,,,,,,,,,,,,,,,,,,,,,,,,,,,,,,113,154621,21,Female,1,2024/03/22_08:50:11,YZ,None,
,,,,,,calibration,0,12,2,250,14,S,0,right,0.5811814979970222,1,0,,,,,,,,,,,,,,,,,,,,,1,,,,,,,,,,,,,,,,,,,,,,,,,,,,,,,,,,,,,,,,,,,,,,113,154621,21,Female,1,2024/03/22_08:50:11,YZ,None,
,,,,,,calibration,0,12,2,250,15,J,1,left,0.335140021998086,1,0,,,,,,,,,,,,,,,,,,,,,1,,,,,,,,,,,,,,,,,,,,,,,,,,,,,,,,,,,,,,,,,,,,,,113,154621,21,Female,1,2024/03/22_08:50:11,YZ,None,
,,,,,,calibration,0,12,2,250,16,S,1,right,0.5862502829986624,0,0,,,,,,,,,,,,,,,,,,,,,1,,,,,,,,,,,,,,,,,,,,,,,,,,,,,,,,,,,,,,,,,,,,,,113,154621,21,Female,1,2024/03/22_08:50:11,YZ,None,
,,,,,,calibration,0,12,2,250,17,F,0,right,0.6084267620026367,1,0,,,,,,,,,,,,,,,,,,,,,1,,,,,,,,,,,,,,,,,,,,,,,,,,,,,,,,,,,,,,,,,,,,,,113,154621,21,Female,1,2024/03/22_08:50:11,YZ,None,
,,,,,,calibration,0,12,2,250,18,N,0,right,0.5183969950012397,1,0,,,,,,,,,,,,,,,,,,,,,1,,,,,,,,,,,,,,,,,,,,,,,,,,,,,,,,,,,,,,,,,,,,,,113,154621,21,Female,1,2024/03/22_08:50:11,YZ,None,
,,,,,,calibration,0,12,2,250,19,F,1,right,nan,0,1,,,,,,,,,,,,,,,,,,,,,1,,,,,,,,,,,,,,,,,,,,,,,,,,,,,,,,,,,,,,,,,,,,,,113,154621,21,Female,1,2024/03/22_08:50:11,YZ,None,
,,,,,,calibration,0,12,2,250,20,X,0,left,0.3672211400116794,0,0,,,,,,,,,,,,,,,,,,,,,1,,,,,,,,,,,,,,,,,,,,,,,,,,,,,,,,,,,,,,,,,,,,,,113,154621,21,Female,1,2024/03/22_08:50:11,YZ,None,
,,,,,,calibration,0,12,2,250,,,,,,,,0.675,0.4,0.2,0.8,0.05,0.75,0.526499120052138,2,3,1,0,1,12,14,5,15,0,,,,1,,,,,,,,,,,,,,,,,,,,,,,,,,,,,,,,,,,,,,,,,,,,,,113,154621,21,Female,1,2024/03/22_08:50:11,YZ,None,
,,,,,,Calibration,0,,2,250,,,,,,,,,,,,,,,,,,,,,,,,,11,,,1,,,,,,,,,,,,,,,,,,,,,,,,,,,,,,,,,,,,,,,,,,,,,,113,154621,21,Female,1,2024/03/22_08:50:11,YZ,None,
,,,,,,calibration,0,20,2,303,1,F,0,right,0.35466759400151204,1,0,,,,,,,,,,,,,,,,,,,,,1,,,,,,,,,,,,,,,,,,,,,,,,,,,,,,,,,,,,,,,,,,,,,,113,154621,21,Female,1,2024/03/22_08:50:11,YZ,None,
,,,,,,calibration,0,20,2,303,2,S,0,right,0.4960907700005919,1,0,,,,,,,,,,,,,,,,,,,,,1,,,,,,,,,,,,,,,,,,,,,,,,,,,,,,,,,,,,,,,,,,,,,,113,154621,21,Female,1,2024/03/22_08:50:11,YZ,None,
,,,,,,calibration,0,20,2,303,3,J,0,right,0.6400669869908597,1,0,,,,,,,,,,,,,,,,,,,,,1,,,,,,,,,,,,,,,,,,,,,,,,,,,,,,,,,,,,,,,,,,,,,,113,154621,21,Female,1,2024/03/22_08:50:11,YZ,None,
,,,,,,calibration,0,20,2,303,4,S,1,left,0.47315688800881617,1,0,,,,,,,,,,,,,,,,,,,,,1,,,,,,,,,,,,,,,,,,,,,,,,,,,,,,,,,,,,,,,,,,,,,,113,154621,21,Female,1,2024/03/22_08:50:11,YZ,None,
,,,,,,calibration,0,20,2,303,5,J,1,left,0.5559765810030513,1,0,,,,,,,,,,,,,,,,,,,,,1,,,,,,,,,,,,,,,,,,,,,,,,,,,,,,,,,,,,,,,,,,,,,,113,154621,21,Female,1,2024/03/22_08:50:11,YZ,None,
,,,,,,calibration,0,20,2,303,6,C,0,right,0.6207846220058855,1,0,,,,,,,,,,,,,,,,,,,,,1,,,,,,,,,,,,,,,,,,,,,,,,,,,,,,,,,,,,,,,,,,,,,,113,154621,21,Female,1,2024/03/22_08:50:11,YZ,None,
,,,,,,calibration,0,20,2,303,7,V,0,right,0.7640062940045027,1,0,,,,,,,,,,,,,,,,,,,,,1,,,,,,,,,,,,,,,,,,,,,,,,,,,,,,,,,,,,,,,,,,,,,,113,154621,21,Female,1,2024/03/22_08:50:11,YZ,None,
,,,,,,calibration,0,20,2,303,8,X,0,right,0.7416934649954783,1,0,,,,,,,,,,,,,,,,,,,,,1,,,,,,,,,,,,,,,,,,,,,,,,,,,,,,,,,,,,,,,,,,,,,,113,154621,21,Female,1,2024/03/22_08:50:11,YZ,None,
,,,,,,calibration,0,20,2,303,9,Q,0,right,0.5588887079939013,1,0,,,,,,,,,,,,,,,,,,,,,1,,,,,,,,,,,,,,,,,,,,,,,,,,,,,,,,,,,,,,,,,,,,,,113,154621,21,Female,1,2024/03/22_08:50:11,YZ,None,
,,,,,,calibration,0,20,2,303,10,C,0,right,0.6908582959877094,1,0,,,,,,,,,,,,,,,,,,,,,1,,,,,,,,,,,,,,,,,,,,,,,,,,,,,,,,,,,,,,,,,,,,,,113,154621,21,Female,1,2024/03/22_08:50:11,YZ,None,
,,,,,,calibration,0,20,2,303,11,X,0,left,0.4821688960073516,0,0,,,,,,,,,,,,,,,,,,,,,1,,,,,,,,,,,,,,,,,,,,,,,,,,,,,,,,,,,,,,,,,,,,,,113,154621,21,Female,1,2024/03/22_08:50:11,YZ,None,
,,,,,,calibration,0,20,2,303,12,C,1,left,nan,0,1,,,,,,,,,,,,,,,,,,,,,1,,,,,,,,,,,,,,,,,,,,,,,,,,,,,,,,,,,,,,,,,,,,,,113,154621,21,Female,1,2024/03/22_08:50:11,YZ,None,
,,,,,,calibration,0,20,2,303,13,V,0,right,0.9926374149945332,1,0,,,,,,,,,,,,,,,,,,,,,1,,,,,,,,,,,,,,,,,,,,,,,,,,,,,,,,,,,,,,,,,,,,,,113,154621,21,Female,1,2024/03/22_08:50:11,YZ,None,
,,,,,,calibration,0,20,2,303,14,J,0,left,0.5240834800060838,0,0,,,,,,,,,,,,,,,,,,,,,1,,,,,,,,,,,,,,,,,,,,,,,,,,,,,,,,,,,,,,,,,,,,,,113,154621,21,Female,1,2024/03/22_08:50:11,YZ,None,
,,,,,,calibration,0,20,2,303,15,V,1,right,0.706575227988651,0,0,,,,,,,,,,,,,,,,,,,,,1,,,,,,,,,,,,,,,,,,,,,,,,,,,,,,,,,,,,,,,,,,,,,,113,154621,21,Female,1,2024/03/22_08:50:11,YZ,None,
,,,,,,calibration,0,20,2,303,16,S,0,right,0.6683197310048854,1,0,,,,,,,,,,,,,,,,,,,,,1,,,,,,,,,,,,,,,,,,,,,,,,,,,,,,,,,,,,,,,,,,,,,,113,154621,21,Female,1,2024/03/22_08:50:11,YZ,None,
,,,,,,calibration,0,20,2,303,17,J,0,left,0.4913897039950825,0,0,,,,,,,,,,,,,,,,,,,,,1,,,,,,,,,,,,,,,,,,,,,,,,,,,,,,,,,,,,,,,,,,,,,,113,154621,21,Female,1,2024/03/22_08:50:11,YZ,None,
,,,,,,calibration,0,20,2,303,18,S,1,right,0.6706336060015019,0,0,,,,,,,,,,,,,,,,,,,,,1,,,,,,,,,,,,,,,,,,,,,,,,,,,,,,,,,,,,,,,,,,,,,,113,154621,21,Female,1,2024/03/22_08:50:11,YZ,None,
,,,,,,calibration,0,20,2,303,19,N,0,right,0.5705464750062674,1,0,,,,,,,,,,,,,,,,,,,,,1,,,,,,,,,,,,,,,,,,,,,,,,,,,,,,,,,,,,,,,,,,,,,,113,154621,21,Female,1,2024/03/22_08:50:11,YZ,None,
,,,,,,calibration,0,20,2,303,,,,,,,,0.6625000000000001,0.4,0.21428571428571427,0.7857142857142857,0.05263157894736842,0.7330827067669172,0.6112524855553703,2,3,1,0,1,11,13,5,14,0,,,,1,,,,,,,,,,,,,,,,,,,,,,,,,,,,,,,,,,,,,,,,,,,,,,113,154621,21,Female,1,2024/03/22_08:50:11,YZ,None,
,,,,,,Calibration,0,,2,303,,,,,,,,,,,,,,,,,,,,,,,,,12,,,1,,,,,,,,,,,,,,,,,,,,,,,,,,,,,,,,,,,,,,,,,,,,,,113,154621,21,Female,1,2024/03/22_08:50:11,YZ,None,
,,,,,,calibration,0,7,2,361,1,F,0,right,0.3805335159995593,1,0,,,,,,,,,,,,,,,,,,,,,1,,,,,,,,,,,,,,,,,,,,,,,,,,,,,,,,,,,,,,,,,,,,,,113,154621,21,Female,1,2024/03/22_08:50:11,YZ,None,
,,,,,,calibration,0,7,2,361,2,N,0,right,0.46816731699800584,1,0,,,,,,,,,,,,,,,,,,,,,1,,,,,,,,,,,,,,,,,,,,,,,,,,,,,,,,,,,,,,,,,,,,,,113,154621,21,Female,1,2024/03/22_08:50:11,YZ,None,
,,,,,,calibration,0,7,2,361,3,X,0,right,0.48052925200317986,1,0,,,,,,,,,,,,,,,,,,,,,1,,,,,,,,,,,,,,,,,,,,,,,,,,,,,,,,,,,,,,,,,,,,,,113,154621,21,Female,1,2024/03/22_08:50:11,YZ,None,
,,,,,,calibration,0,7,2,361,4,N,1,left,0.5434649259987054,1,0,,,,,,,,,,,,,,,,,,,,,1,,,,,,,,,,,,,,,,,,,,,,,,,,,,,,,,,,,,,,,,,,,,,,113,154621,21,Female,1,2024/03/22_08:50:11,YZ,None,
,,,,,,calibration,0,7,2,361,5,Q,0,right,0.4028146890050266,1,0,,,,,,,,,,,,,,,,,,,,,1,,,,,,,,,,,,,,,,,,,,,,,,,,,,,,,,,,,,,,,,,,,,,,113,154621,21,Female,1,2024/03/22_08:50:11,YZ,None,
,,,,,,calibration,0,7,2,361,6,S,0,right,0.48468534101266414,1,0,,,,,,,,,,,,,,,,,,,,,1,,,,,,,,,,,,,,,,,,,,,,,,,,,,,,,,,,,,,,,,,,,,,,113,154621,21,Female,1,2024/03/22_08:50:11,YZ,None,
,,,,,,calibration,0,7,2,361,7,Q,1,left,0.8548132279975107,1,0,,,,,,,,,,,,,,,,,,,,,1,,,,,,,,,,,,,,,,,,,,,,,,,,,,,,,,,,,,,,,,,,,,,,113,154621,21,Female,1,2024/03/22_08:50:11,YZ,None,
,,,,,,calibration,0,7,2,361,8,V,0,right,0.3692575629975181,1,0,,,,,,,,,,,,,,,,,,,,,1,,,,,,,,,,,,,,,,,,,,,,,,,,,,,,,,,,,,,,,,,,,,,,113,154621,21,Female,1,2024/03/22_08:50:11,YZ,None,
,,,,,,calibration,0,7,2,361,9,F,0,right,0.6854113669978688,1,0,,,,,,,,,,,,,,,,,,,,,1,,,,,,,,,,,,,,,,,,,,,,,,,,,,,,,,,,,,,,,,,,,,,,113,154621,21,Female,1,2024/03/22_08:50:11,YZ,None,
,,,,,,calibration,0,7,2,361,10,J,0,right,0.49112794900429435,1,0,,,,,,,,,,,,,,,,,,,,,1,,,,,,,,,,,,,,,,,,,,,,,,,,,,,,,,,,,,,,,,,,,,,,113,154621,21,Female,1,2024/03/22_08:50:11,YZ,None,
,,,,,,calibration,0,7,2,361,11,F,1,left,0.32952765200752765,1,0,,,,,,,,,,,,,,,,,,,,,1,,,,,,,,,,,,,,,,,,,,,,,,,,,,,,,,,,,,,,,,,,,,,,113,154621,21,Female,1,2024/03/22_08:50:11,YZ,None,
,,,,,,calibration,0,7,2,361,12,J,1,left,0.6047366760030854,1,0,,,,,,,,,,,,,,,,,,,,,1,,,,,,,,,,,,,,,,,,,,,,,,,,,,,,,,,,,,,,,,,,,,,,113,154621,21,Female,1,2024/03/22_08:50:11,YZ,None,
,,,,,,calibration,0,7,2,361,13,V,0,right,0.8733254580001812,1,0,,,,,,,,,,,,,,,,,,,,,1,,,,,,,,,,,,,,,,,,,,,,,,,,,,,,,,,,,,,,,,,,,,,,113,154621,21,Female,1,2024/03/22_08:50:11,YZ,None,
,,,,,,calibration,0,7,2,361,14,J,1,left,0.6368293059931602,1,0,,,,,,,,,,,,,,,,,,,,,1,,,,,,,,,,,,,,,,,,,,,,,,,,,,,,,,,,,,,,,,,,,,,,113,154621,21,Female,1,2024/03/22_08:50:11,YZ,None,
,,,,,,calibration,0,7,2,361,15,C,0,right,0.3735024970083032,1,0,,,,,,,,,,,,,,,,,,,,,1,,,,,,,,,,,,,,,,,,,,,,,,,,,,,,,,,,,,,,,,,,,,,,113,154621,21,Female,1,2024/03/22_08:50:11,YZ,None,
,,,,,,calibration,0,7,2,361,16,Q,0,right,0.5005217169964453,1,0,,,,,,,,,,,,,,,,,,,,,1,,,,,,,,,,,,,,,,,,,,,,,,,,,,,,,,,,,,,,,,,,,,,,113,154621,21,Female,1,2024/03/22_08:50:11,YZ,None,
,,,,,,calibration,0,7,2,361,17,J,0,right,0.5840619669907028,1,0,,,,,,,,,,,,,,,,,,,,,1,,,,,,,,,,,,,,,,,,,,,,,,,,,,,,,,,,,,,,,,,,,,,,113,154621,21,Female,1,2024/03/22_08:50:11,YZ,None,
,,,,,,calibration,0,7,2,361,18,V,0,right,0.48376299599476624,1,0,,,,,,,,,,,,,,,,,,,,,1,,,,,,,,,,,,,,,,,,,,,,,,,,,,,,,,,,,,,,,,,,,,,,113,154621,21,Female,1,2024/03/22_08:50:11,YZ,None,
,,,,,,calibration,0,7,2,361,,,,,,,,1.0,1.0,0.0,1.0,0.0,1.0,0.5303929676115836,5,0,0,0,0,13,18,5,13,0,,,,1,,,,,,,,,,,,,,,,,,,,,,,,,,,,,,,,,,,,,,,,,,,,,,113,154621,21,Female,1,2024/03/22_08:50:11,YZ,None,
,,,,,,Calibration,0,,2,361,,,,,,,,,,,,,,,,,,,,,,,,,13,,,1,,,,,,,,,,,,,,,,,,,,,,,,,,,,,,,,,,,,,,,,,,,,,,113,154621,21,Female,1,2024/03/22_08:50:11,YZ,None,
,,,,,,calibration,0,33,2,303,1,J,0,right,0.42701869099983014,1,0,,,,,,,,,,,,,,,,,,,,,1,,,,,,,,,,,,,,,,,,,,,,,,,,,,,,,,,,,,,,,,,,,,,,113,154621,21,Female,1,2024/03/22_08:50:11,YZ,None,
,,,,,,calibration,0,33,2,303,2,S,0,right,0.4843546129995957,1,0,,,,,,,,,,,,,,,,,,,,,1,,,,,,,,,,,,,,,,,,,,,,,,,,,,,,,,,,,,,,,,,,,,,,113,154621,21,Female,1,2024/03/22_08:50:11,YZ,None,
,,,,,,calibration,0,33,2,303,3,J,1,left,0.4315839320042869,1,0,,,,,,,,,,,,,,,,,,,,,1,,,,,,,,,,,,,,,,,,,,,,,,,,,,,,,,,,,,,,,,,,,,,,113,154621,21,Female,1,2024/03/22_08:50:11,YZ,None,
,,,,,,calibration,0,33,2,303,4,Q,0,right,0.5124139130057301,1,0,,,,,,,,,,,,,,,,,,,,,1,,,,,,,,,,,,,,,,,,,,,,,,,,,,,,,,,,,,,,,,,,,,,,113,154621,21,Female,1,2024/03/22_08:50:11,YZ,None,
,,,,,,calibration,0,33,2,303,5,F,0,right,0.45868799900927115,1,0,,,,,,,,,,,,,,,,,,,,,1,,,,,,,,,,,,,,,,,,,,,,,,,,,,,,,,,,,,,,,,,,,,,,113,154621,21,Female,1,2024/03/22_08:50:11,YZ,None,
,,,,,,calibration,0,33,2,303,6,X,0,right,0.4768912350118626,1,0,,,,,,,,,,,,,,,,,,,,,1,,,,,,,,,,,,,,,,,,,,,,,,,,,,,,,,,,,,,,,,,,,,,,113,154621,21,Female,1,2024/03/22_08:50:11,YZ,None,
,,,,,,calibration,0,33,2,303,7,F,1,right,nan,0,1,,,,,,,,,,,,,,,,,,,,,1,,,,,,,,,,,,,,,,,,,,,,,,,,,,,,,,,,,,,,,,,,,,,,113,154621,21,Female,1,2024/03/22_08:50:11,YZ,None,
,,,,,,calibration,0,33,2,303,8,X,1,left,0.6245220970013179,1,0,,,,,,,,,,,,,,,,,,,,,1,,,,,,,,,,,,,,,,,,,,,,,,,,,,,,,,,,,,,,,,,,,,,,113,154621,21,Female,1,2024/03/22_08:50:11,YZ,None,
,,,,,,calibration,0,33,2,303,9,N,0,right,0.5384528090071399,1,0,,,,,,,,,,,,,,,,,,,,,1,,,,,,,,,,,,,,,,,,,,,,,,,,,,,,,,,,,,,,,,,,,,,,113,154621,21,Female,1,2024/03/22_08:50:11,YZ,None,
,,,,,,calibration,0,33,2,303,10,X,1,right,0.4290392359980615,0,0,,,,,,,,,,,,,,,,,,,,,1,,,,,,,,,,,,,,,,,,,,,,,,,,,,,,,,,,,,,,,,,,,,,,113,154621,21,Female,1,2024/03/22_08:50:11,YZ,None,
,,,,,,calibration,0,33,2,303,11,C,0,right,0.4732896639907267,1,0,,,,,,,,,,,,,,,,,,,,,1,,,,,,,,,,,,,,,,,,,,,,,,,,,,,,,,,,,,,,,,,,,,,,113,154621,21,Female,1,2024/03/22_08:50:11,YZ,None,
,,,,,,calibration,0,33,2,303,12,N,0,right,0.8326834269973915,1,0,,,,,,,,,,,,,,,,,,,,,1,,,,,,,,,,,,,,,,,,,,,,,,,,,,,,,,,,,,,,,,,,,,,,113,154621,21,Female,1,2024/03/22_08:50:11,YZ,None,
,,,,,,calibration,0,33,2,303,13,C,1,left,0.6245491559966467,1,0,,,,,,,,,,,,,,,,,,,,,1,,,,,,,,,,,,,,,,,,,,,,,,,,,,,,,,,,,,,,,,,,,,,,113,154621,21,Female,1,2024/03/22_08:50:11,YZ,None,
,,,,,,calibration,0,33,2,303,14,X,0,right,0.2903935259964783,1,0,,,,,,,,,,,,,,,,,,,,,1,,,,,,,,,,,,,,,,,,,,,,,,,,,,,,,,,,,,,,,,,,,,,,113,154621,21,Female,1,2024/03/22_08:50:11,YZ,None,
,,,,,,calibration,0,33,2,303,15,F,0,right,0.40140806398994755,1,0,,,,,,,,,,,,,,,,,,,,,1,,,,,,,,,,,,,,,,,,,,,,,,,,,,,,,,,,,,,,,,,,,,,,113,154621,21,Female,1,2024/03/22_08:50:11,YZ,None,
,,,,,,calibration,0,33,2,303,16,C,0,right,0.45564863001345657,1,0,,,,,,,,,,,,,,,,,,,,,1,,,,,,,,,,,,,,,,,,,,,,,,,,,,,,,,,,,,,,,,,,,,,,113,154621,21,Female,1,2024/03/22_08:50:11,YZ,None,
,,,,,,calibration,0,33,2,303,17,J,0,right,0.636142736999318,1,0,,,,,,,,,,,,,,,,,,,,,1,,,,,,,,,,,,,,,,,,,,,,,,,,,,,,,,,,,,,,,,,,,,,,113,154621,21,Female,1,2024/03/22_08:50:11,YZ,None,
,,,,,,calibration,0,33,2,303,18,N,0,right,0.6410047840035986,1,0,,,,,,,,,,,,,,,,,,,,,1,,,,,,,,,,,,,,,,,,,,,,,,,,,,,,,,,,,,,,,,,,,,,,113,154621,21,Female,1,2024/03/22_08:50:11,YZ,None,
,,,,,,calibration,0,33,2,303,19,F,0,left,0.6187348289968213,0,0,,,,,,,,,,,,,,,,,,,,,1,,,,,,,,,,,,,,,,,,,,,,,,,,,,,,,,,,,,,,,,,,,,,,113,154621,21,Female,1,2024/03/22_08:50:11,YZ,None,
,,,,,,calibration,0,33,2,303,,,,,,,,0.8535714285714285,0.6,0.07142857142857142,0.9285714285714286,0.05263157894736842,0.8759398496240602,0.5198232967789712,3,1,1,0,1,13,16,5,14,0,,,,1,,,,,,,,,,,,,,,,,,,,,,,,,,,,,,,,,,,,,,,,,,,,,,113,154621,21,Female,1,2024/03/22_08:50:11,YZ,None,
,,,,,,Calibration,0,,2,303,,,,,,,,,,,,,,,,,,,,,,,,,14,,,1,,,,,,,,,,,,,,,,,,,,,,,,,,,,,,,,,,,,,,,,,,,,,,113,154621,21,Female,1,2024/03/22_08:50:11,YZ,None,
,,,,,,calibration,0,6,2,250,1,V,0,right,0.3448447739938274,1,0,,,,,,,,,,,,,,,,,,,,,1,,,,,,,,,,,,,,,,,,,,,,,,,,,,,,,,,,,,,,,,,,,,,,113,154621,21,Female,1,2024/03/22_08:50:11,YZ,None,
,,,,,,calibration,0,6,2,250,2,S,0,right,0.30921874300111085,1,0,,,,,,,,,,,,,,,,,,,,,1,,,,,,,,,,,,,,,,,,,,,,,,,,,,,,,,,,,,,,,,,,,,,,113,154621,21,Female,1,2024/03/22_08:50:11,YZ,None,
,,,,,,calibration,0,6,2,250,3,J,0,right,0.5474989890062716,1,0,,,,,,,,,,,,,,,,,,,,,1,,,,,,,,,,,,,,,,,,,,,,,,,,,,,,,,,,,,,,,,,,,,,,113,154621,21,Female,1,2024/03/22_08:50:11,YZ,None,
,,,,,,calibration,0,6,2,250,4,C,0,right,0.40510118901147507,1,0,,,,,,,,,,,,,,,,,,,,,1,,,,,,,,,,,,,,,,,,,,,,,,,,,,,,,,,,,,,,,,,,,,,,113,154621,21,Female,1,2024/03/22_08:50:11,YZ,None,
,,,,,,calibration,0,6,2,250,5,J,1,left,0.40071261100820266,1,0,,,,,,,,,,,,,,,,,,,,,1,,,,,,,,,,,,,,,,,,,,,,,,,,,,,,,,,,,,,,,,,,,,,,113,154621,21,Female,1,2024/03/22_08:50:11,YZ,None,
,,,,,,calibration,0,6,2,250,6,Q,0,right,0.43426774599356577,1,0,,,,,,,,,,,,,,,,,,,,,1,,,,,,,,,,,,,,,,,,,,,,,,,,,,,,,,,,,,,,,,,,,,,,113,154621,21,Female,1,2024/03/22_08:50:11,YZ,None,
,,,,,,calibration,0,6,2,250,7,V,0,right,0.9077681380003924,1,0,,,,,,,,,,,,,,,,,,,,,1,,,,,,,,,,,,,,,,,,,,,,,,,,,,,,,,,,,,,,,,,,,,,,113,154621,21,Female,1,2024/03/22_08:50:11,YZ,None,
,,,,,,calibration,0,6,2,250,8,Q,1,right,0.5734647149947705,0,0,,,,,,,,,,,,,,,,,,,,,1,,,,,,,,,,,,,,,,,,,,,,,,,,,,,,,,,,,,,,,,,,,,,,113,154621,21,Female,1,2024/03/22_08:50:11,YZ,None,
,,,,,,calibration,0,6,2,250,9,V,1,left,0.5123897029989166,1,0,,,,,,,,,,,,,,,,,,,,,1,,,,,,,,,,,,,,,,,,,,,,,,,,,,,,,,,,,,,,,,,,,,,,113,154621,21,Female,1,2024/03/22_08:50:11,YZ,None,
,,,,,,calibration,0,6,2,250,10,N,0,right,0.47177443199325353,1,0,,,,,,,,,,,,,,,,,,,,,1,,,,,,,,,,,,,,,,,,,,,,,,,,,,,,,,,,,,,,,,,,,,,,113,154621,21,Female,1,2024/03/22_08:50:11,YZ,None,
,,,,,,calibration,0,6,2,250,11,S,0,right,0.6591971430025296,1,0,,,,,,,,,,,,,,,,,,,,,1,,,,,,,,,,,,,,,,,,,,,,,,,,,,,,,,,,,,,,,,,,,,,,113,154621,21,Female,1,2024/03/22_08:50:11,YZ,None,
,,,,,,calibration,0,6,2,250,12,C,0,right,0.6715482559957309,1,0,,,,,,,,,,,,,,,,,,,,,1,,,,,,,,,,,,,,,,,,,,,,,,,,,,,,,,,,,,,,,,,,,,,,113,154621,21,Female,1,2024/03/22_08:50:11,YZ,None,
,,,,,,calibration,0,6,2,250,13,S,1,left,0.37976737499411684,1,0,,,,,,,,,,,,,,,,,,,,,1,,,,,,,,,,,,,,,,,,,,,,,,,,,,,,,,,,,,,,,,,,,,,,113,154621,21,Female,1,2024/03/22_08:50:11,YZ,None,
,,,,,,calibration,0,6,2,250,14,C,1,left,0.7738549210043857,1,0,,,,,,,,,,,,,,,,,,,,,1,,,,,,,,,,,,,,,,,,,,,,,,,,,,,,,,,,,,,,,,,,,,,,113,154621,21,Female,1,2024/03/22_08:50:11,YZ,None,
,,,,,,calibration,0,6,2,250,15,N,0,left,0.5978433200070867,0,0,,,,,,,,,,,,,,,,,,,,,1,,,,,,,,,,,,,,,,,,,,,,,,,,,,,,,,,,,,,,,,,,,,,,113,154621,21,Female,1,2024/03/22_08:50:11,YZ,None,
,,,,,,calibration,0,6,2,250,16,V,0,right,0.37379702299949713,1,0,,,,,,,,,,,,,,,,,,,,,1,,,,,,,,,,,,,,,,,,,,,,,,,,,,,,,,,,,,,,,,,,,,,,113,154621,21,Female,1,2024/03/22_08:50:11,YZ,None,
,,,,,,calibration,0,6,2,250,17,F,0,right,nan,0,1,,,,,,,,,,,,,,,,,,,,,1,,,,,,,,,,,,,,,,,,,,,,,,,,,,,,,,,,,,,,,,,,,,,,113,154621,21,Female,1,2024/03/22_08:50:11,YZ,None,
,,,,,,calibration,0,6,2,250,18,N,0,right,0.6984300809999695,1,0,,,,,,,,,,,,,,,,,,,,,1,,,,,,,,,,,,,,,,,,,,,,,,,,,,,,,,,,,,,,,,,,,,,,113,154621,21,Female,1,2024/03/22_08:50:11,YZ,None,
,,,,,,calibration,0,6,2,250,19,V,0,left,0.2982575700007146,0,0,,,,,,,,,,,,,,,,,,,,,1,,,,,,,,,,,,,,,,,,,,,,,,,,,,,,,,,,,,,,,,,,,,,,113,154621,21,Female,1,2024/03/22_08:50:11,YZ,None,
,,,,,,calibration,0,6,2,250,20,N,1,left,0.7495718909922289,1,0,,,,,,,,,,,,,,,,,,,,,1,,,,,,,,,,,,,,,,,,,,,,,,,,,,,,,,,,,,,,,,,,,,,,113,154621,21,Female,1,2024/03/22_08:50:11,YZ,None,
,,,,,,calibration,0,6,2,250,,,,,,,,0.8988095238095238,0.8333333333333334,0.14285714285714285,0.8461538461538461,0.05,0.8071428571428572,0.5320688747367393,5,2,0,1,1,11,16,6,14,0,,,,1,,,,,,,,,,,,,,,,,,,,,,,,,,,,,,,,,,,,,,,,,,,,,,113,154621,21,Female,1,2024/03/22_08:50:11,YZ,None,
,,,,,,Calibration,0,,2,250,,,,,,,,,,,,,,,,,,,,,,,,,15,,,1,,,,,,,,,,,,,,,,,,,,,,,,,,,,,,,,,,,,,,,,,,,,,,113,154621,21,Female,1,2024/03/22_08:50:11,YZ,None,
,,,,,,CALIBRATION,0,,,,,,,,,,,,,,,,,,,,,,,,,,,,15,0.8988095238095238,250,1,,,,,,,,,,,,,,,,,,,,,,,,,,,,,,,,,,,,,,,,,,,,,,113,154621,21,Female,1,2024/03/22_08:50:11,YZ,None,
1,./instructions/inst_prac_1/Slide24.png,right,10.48488865699619,513.9017298889958,524.386618545992,,,,,,,,,,,,,,,,,,,,,,,,,,,,,,,,,1,,,,,,,,,,,,,,,,,,,,,,,,,,,,,,,,,,,,,,,,,,,,,,113,154621,21,Female,1,2024/03/22_08:50:11,YZ,None,
2,./instructions/inst_prac_1/Slide25.png,right,2.771369023990701,524.4310851949995,527.2024542189902,,,,,,,,,,,,,,,,,,,,,,,,,,,,,,,,,1,,,,,,,,,,,,,,,,,,,,,,,,,,,,,,,,,,,,,,,,,,,,,,113,154621,21,Female,1,2024/03/22_08:50:11,YZ,None,
3,./instructions/inst_prac_1/Slide26.png,right,1.915199009992648,527.2313894889958,529.1465884989884,,,,,,,,,,,,,,,,,,,,,,,,,,,,,,,,,1,,,,,,,,,,,,,,,,,,,,,,,,,,,,,,,,,,,,,,,,,,,,,,113,154621,21,Female,1,2024/03/22_08:50:11,YZ,None,
2,./instructions/inst_prac_1/Slide27.png,left,1.4098822220112197,529.1768455939891,530.5867278160003,,,,,,,,,,,,,,,,,,,,,,,,,,,,,,,,,1,,,,,,,,,,,,,,,,,,,,,,,,,,,,,,,,,,,,,,,,,,,,,,113,154621,21,Female,1,2024/03/22_08:50:11,YZ,None,
3,./instructions/inst_prac_1/Slide26.png,right,0.7531336410029326,530.6097384689929,531.3628721099958,,,,,,,,,,,,,,,,,,,,,,,,,,,,,,,,,1,,,,,,,,,,,,,,,,,,,,,,,,,,,,,,,,,,,,,,,,,,,,,,113,154621,21,Female,1,2024/03/22_08:50:11,YZ,None,
4,./instructions/inst_prac_1/Slide27.png,right,0.21846630499931052,531.3920445289987,531.610510833998,,,,,,,,,,,,,,,,,,,,,,,,,,,,,,,,,1,,,,,,,,,,,,,,,,,,,,,,,,,,,,,,,,,,,,,,,,,,,,,,113,154621,21,Female,1,2024/03/22_08:50:11,YZ,None,
5,./instructions/inst_prac_1/Slide28.png,right,0.4567643119953573,531.6338271559944,532.0905914679897,,,,,,,,,,,,,,,,,,,,,,,,,,,,,,,,,1,,,,,,,,,,,,,,,,,,,,,,,,,,,,,,,,,,,,,,,,,,,,,,113,154621,21,Female,1,2024/03/22_08:50:11,YZ,None,
6,./instructions/inst_prac_1/Slide29.png,right,3.2280382239987375,532.1186105569941,535.3466487809928,,,,,,,,,,,,,,,,,,,,,,,,,,,,,,,,,1,,,,,,,,,,,,,,,,,,,,,,,,,,,,,,,,,,,,,,,,,,,,,,113,154621,21,Female,1,2024/03/22_08:50:11,YZ,None,
7,./instructions/inst_prac_1/Slide30.png,right,5.5887032600003295,535.3899944739969,540.9786977339973,,,,,,,,,,,,,,,,,,,,,,,,,,,,,,,,,1,,,,,,,,,,,,,,,,,,,,,,,,,,,,,,,,,,,,,,,,,,,,,,113,154621,21,Female,1,2024/03/22_08:50:11,YZ,None,
,,,,,,practice,0,15,1,1250,1,N,0,right,1.6198123130016029,1,0,,,,,,,,,,,,,,,,,,,,,1,,,,,,,,,,,,,,,,,,,,,,,,,,,,,,,,,,,,,,,,,,,,,,113,154621,21,Female,1,2024/03/22_08:50:11,YZ,None,
,,,,,,practice,0,15,1,1250,2,N,1,left,1.0789495130011346,1,0,,,,,,,,,,,,,,,,,,,,,1,,,,,,,,,,,,,,,,,,,,,,,,,,,,,,,,,,,,,,,,,,,,,,113,154621,21,Female,1,2024/03/22_08:50:11,YZ,None,
,,,,,,practice,0,15,1,1250,3,S,0,left,0.7464413559937384,0,0,,,,,,,,,,,,,,,,,,,,,1,,,,,,,,,,,,,,,,,,,,,,,,,,,,,,,,,,,,,,,,,,,,,,113,154621,21,Female,1,2024/03/22_08:50:11,YZ,None,
,,,,,,practice,0,15,1,1250,4,S,1,left,0.9265324049920309,1,0,,,,,,,,,,,,,,,,,,,,,1,,,,,,,,,,,,,,,,,,,,,,,,,,,,,,,,,,,,,,,,,,,,,,113,154621,21,Female,1,2024/03/22_08:50:11,YZ,None,
,,,,,,practice,0,15,1,1250,5,X,0,right,1.1807487010082696,1,0,,,,,,,,,,,,,,,,,,,,,1,,,,,,,,,,,,,,,,,,,,,,,,,,,,,,,,,,,,,,,,,,,,,,113,154621,21,Female,1,2024/03/22_08:50:11,YZ,None,
,,,,,,practice,0,15,1,1250,6,X,1,left,0.5577459019987145,1,0,,,,,,,,,,,,,,,,,,,,,1,,,,,,,,,,,,,,,,,,,,,,,,,,,,,,,,,,,,,,,,,,,,,,113,154621,21,Female,1,2024/03/22_08:50:11,YZ,None,
,,,,,,practice,0,15,1,1250,7,C,0,right,1.1241249599988805,1,0,,,,,,,,,,,,,,,,,,,,,1,,,,,,,,,,,,,,,,,,,,,,,,,,,,,,,,,,,,,,,,,,,,,,113,154621,21,Female,1,2024/03/22_08:50:11,YZ,None,
,,,,,,practice,0,15,1,1250,8,J,0,right,1.0810681990114972,1,0,,,,,,,,,,,,,,,,,,,,,1,,,,,,,,,,,,,,,,,,,,,,,,,,,,,,,,,,,,,,,,,,,,,,113,154621,21,Female,1,2024/03/22_08:50:11,YZ,None,
,,,,,,practice,0,15,1,1250,9,S,0,right,1.0123740139970323,1,0,,,,,,,,,,,,,,,,,,,,,1,,,,,,,,,,,,,,,,,,,,,,,,,,,,,,,,,,,,,,,,,,,,,,113,154621,21,Female,1,2024/03/22_08:50:11,YZ,None,
,,,,,,practice,0,15,1,1250,10,J,0,right,0.859967037991737,1,0,,,,,,,,,,,,,,,,,,,,,1,,,,,,,,,,,,,,,,,,,,,,,,,,,,,,,,,,,,,,,,,,,,,,113,154621,21,Female,1,2024/03/22_08:50:11,YZ,None,
,,,,,,practice,0,15,1,1250,,,,,,,,0.9642857142857143,1.0,0.14285714285714285,0.8571428571428571,0.0,0.8571428571428572,1.0187764400994639,3,1,0,0,0,6,9,3,7,0,,,,1,,,,,,,,,,,,,,,,,,,,,,,,,,,,,,,,,,,,,,,,,,,,,,113,154621,21,Female,1,2024/03/22_08:50:11,YZ,None,
1,./instructions/inst_prac_1_next/Slide35.png,right,3.5784976379945874,562.2401941739954,565.81869181199,,,,,,,,,,,,,,,,,,,,,,,,,,,,,,,,,1,,,,,,,,,,,,,,,,,,,,,,,,,,,,,,,,,,,,,,,,,,,,,,113,154621,21,Female,1,2024/03/22_08:50:11,YZ,None,
,,,,,,practice,0,25,1,250,1,C,0,right,0.9348646279977402,1,0,,,,,,,,,,,,,,,,,,,,,1,,,,,,,,,,,,,,,,,,,,,,,,,,,,,,,,,,,,,,,,,,,,,,113,154621,21,Female,1,2024/03/22_08:50:11,YZ,None,
,,,,,,practice,0,25,1,250,2,F,0,left,0.48801655699207913,0,0,,,,,,,,,,,,,,,,,,,,,1,,,,,,,,,,,,,,,,,,,,,,,,,,,,,,,,,,,,,,,,,,,,,,113,154621,21,Female,1,2024/03/22_08:50:11,YZ,None,
,,,,,,practice,0,25,1,250,3,Q,0,right,0.88155422800628,1,0,,,,,,,,,,,,,,,,,,,,,1,,,,,,,,,,,,,,,,,,,,,,,,,,,,,,,,,,,,,,,,,,,,,,113,154621,21,Female,1,2024/03/22_08:50:11,YZ,None,
,,,,,,practice,0,25,1,250,4,S,0,right,0.49762686699978076,1,0,,,,,,,,,,,,,,,,,,,,,1,,,,,,,,,,,,,,,,,,,,,,,,,,,,,,,,,,,,,,,,,,,,,,113,154621,21,Female,1,2024/03/22_08:50:11,YZ,None,
,,,,,,practice,0,25,1,250,5,X,0,right,0.528826712994487,1,0,,,,,,,,,,,,,,,,,,,,,1,,,,,,,,,,,,,,,,,,,,,,,,,,,,,,,,,,,,,,,,,,,,,,113,154621,21,Female,1,2024/03/22_08:50:11,YZ,None,
,,,,,,practice,0,25,1,250,6,S,0,right,0.5965616280009272,1,0,,,,,,,,,,,,,,,,,,,,,1,,,,,,,,,,,,,,,,,,,,,,,,,,,,,,,,,,,,,,,,,,,,,,113,154621,21,Female,1,2024/03/22_08:50:11,YZ,None,
,,,,,,practice,0,25,1,250,7,S,1,left,0.5163263170106802,1,0,,,,,,,,,,,,,,,,,,,,,1,,,,,,,,,,,,,,,,,,,,,,,,,,,,,,,,,,,,,,,,,,,,,,113,154621,21,Female,1,2024/03/22_08:50:11,YZ,None,
,,,,,,practice,0,25,1,250,8,C,0,right,0.479167444005725,1,0,,,,,,,,,,,,,,,,,,,,,1,,,,,,,,,,,,,,,,,,,,,,,,,,,,,,,,,,,,,,,,,,,,,,113,154621,21,Female,1,2024/03/22_08:50:11,YZ,None,
,,,,,,practice,0,25,1,250,9,C,1,left,0.5403323649952654,1,0,,,,,,,,,,,,,,,,,,,,,1,,,,,,,,,,,,,,,,,,,,,,,,,,,,,,,,,,,,,,,,,,,,,,113,154621,21,Female,1,2024/03/22_08:50:11,YZ,None,
,,,,,,practice,0,25,1,250,10,J,0,right,0.44865319500968326,1,0,,,,,,,,,,,,,,,,,,,,,1,,,,,,,,,,,,,,,,,,,,,,,,,,,,,,,,,,,,,,,,,,,,,,113,154621,21,Female,1,2024/03/22_08:50:11,YZ,None,
,,,,,,practice,0,25,1,250,11,F,0,right,0.5694041150127305,1,0,,,,,,,,,,,,,,,,,,,,,1,,,,,,,,,,,,,,,,,,,,,,,,,,,,,,,,,,,,,,,,,,,,,,113,154621,21,Female,1,2024/03/22_08:50:11,YZ,None,
,,,,,,practice,0,25,1,250,12,F,1,left,0.68448792900017,1,0,,,,,,,,,,,,,,,,,,,,,1,,,,,,,,,,,,,,,,,,,,,,,,,,,,,,,,,,,,,,,,,,,,,,113,154621,21,Female,1,2024/03/22_08:50:11,YZ,None,
,,,,,,practice,0,25,1,250,13,Q,0,right,0.6642314060009085,1,0,,,,,,,,,,,,,,,,,,,,,1,,,,,,,,,,,,,,,,,,,,,,,,,,,,,,,,,,,,,,,,,,,,,,113,154621,21,Female,1,2024/03/22_08:50:11,YZ,None,
,,,,,,practice,0,25,1,250,14,Q,1,left,0.5543378659931477,1,0,,,,,,,,,,,,,,,,,,,,,1,,,,,,,,,,,,,,,,,,,,,,,,,,,,,,,,,,,,,,,,,,,,,,113,154621,21,Female,1,2024/03/22_08:50:11,YZ,None,
,,,,,,practice,0,25,1,250,15,C,0,right,0.5921962769934908,1,0,,,,,,,,,,,,,,,,,,,,,1,,,,,,,,,,,,,,,,,,,,,,,,,,,,,,,,,,,,,,,,,,,,,,113,154621,21,Female,1,2024/03/22_08:50:11,YZ,None,
,,,,,,practice,0,25,1,250,16,F,0,right,1.105049670994049,1,0,,,,,,,,,,,,,,,,,,,,,1,,,,,,,,,,,,,,,,,,,,,,,,,,,,,,,,,,,,,,,,,,,,,,113,154621,21,Female,1,2024/03/22_08:50:11,YZ,None,
,,,,,,practice,0,25,1,250,17,V,0,right,0.41577211499679834,1,0,,,,,,,,,,,,,,,,,,,,,1,,,,,,,,,,,,,,,,,,,,,,,,,,,,,,,,,,,,,,,,,,,,,,113,154621,21,Female,1,2024/03/22_08:50:11,YZ,None,
,,,,,,practice,0,25,1,250,18,V,1,left,0.3940788430045359,1,0,,,,,,,,,,,,,,,,,,,,,1,,,,,,,,,,,,,,,,,,,,,,,,,,,,,,,,,,,,,,,,,,,,,,113,154621,21,Female,1,2024/03/22_08:50:11,YZ,None,
,,,,,,practice,0,25,1,250,19,F,0,right,0.6799199109955225,1,0,,,,,,,,,,,,,,,,,,,,,1,,,,,,,,,,,,,,,,,,,,,,,,,,,,,,,,,,,,,,,,,,,,,,113,154621,21,Female,1,2024/03/22_08:50:11,YZ,None,
,,,,,,practice,0,25,1,250,20,S,0,left,0.5057066080044024,0,0,,,,,,,,,,,,,,,,,,,,,1,,,,,,,,,,,,,,,,,,,,,,,,,,,,,,,,,,,,,,,,,,,,,,113,154621,21,Female,1,2024/03/22_08:50:11,YZ,None,
,,,,,,practice,0,25,1,250,,,,,,,,0.9666666666666667,1.0,0.13333333333333333,0.8666666666666667,0.0,0.8666666666666667,0.6038557341504202,5,2,0,0,0,13,18,5,15,0,,,,1,,,,,,,,,,,,,,,,,,,,,,,,,,,,,,,,,,,,,,,,,,,,,,113,154621,21,Female,1,2024/03/22_08:50:11,YZ,None,
,,,,,,practice,0,32,1,250,1,F,0,right,1.244899240002269,1,0,,,,,,,,,,,,,,,,,,,,,1,,,,,,,,,,,,,,,,,,,,,,,,,,,,,,,,,,,,,,,,,,,,,,113,154621,21,Female,1,2024/03/22_08:50:11,YZ,None,
,,,,,,practice,0,32,1,250,2,Q,0,right,0.44953369100403506,1,0,,,,,,,,,,,,,,,,,,,,,1,,,,,,,,,,,,,,,,,,,,,,,,,,,,,,,,,,,,,,,,,,,,,,113,154621,21,Female,1,2024/03/22_08:50:11,YZ,None,
,,,,,,practice,0,32,1,250,3,Q,1,left,0.7612690519890748,1,0,,,,,,,,,,,,,,,,,,,,,1,,,,,,,,,,,,,,,,,,,,,,,,,,,,,,,,,,,,,,,,,,,,,,113,154621,21,Female,1,2024/03/22_08:50:11,YZ,None,
,,,,,,practice,0,32,1,250,4,S,0,right,0.46346397101297043,1,0,,,,,,,,,,,,,,,,,,,,,1,,,,,,,,,,,,,,,,,,,,,,,,,,,,,,,,,,,,,,,,,,,,,,113,154621,21,Female,1,2024/03/22_08:50:11,YZ,None,
,,,,,,practice,0,32,1,250,5,V,0,right,0.3644217069959268,1,0,,,,,,,,,,,,,,,,,,,,,1,,,,,,,,,,,,,,,,,,,,,,,,,,,,,,,,,,,,,,,,,,,,,,113,154621,21,Female,1,2024/03/22_08:50:11,YZ,None,
,,,,,,practice,0,32,1,250,6,J,0,right,0.513422760006506,1,0,,,,,,,,,,,,,,,,,,,,,1,,,,,,,,,,,,,,,,,,,,,,,,,,,,,,,,,,,,,,,,,,,,,,113,154621,21,Female,1,2024/03/22_08:50:11,YZ,None,
,,,,,,practice,0,32,1,250,7,J,1,left,0.6243911929923343,1,0,,,,,,,,,,,,,,,,,,,,,1,,,,,,,,,,,,,,,,,,,,,,,,,,,,,,,,,,,,,,,,,,,,,,113,154621,21,Female,1,2024/03/22_08:50:11,YZ,None,
,,,,,,practice,0,32,1,250,8,F,0,right,0.391709631003323,1,0,,,,,,,,,,,,,,,,,,,,,1,,,,,,,,,,,,,,,,,,,,,,,,,,,,,,,,,,,,,,,,,,,,,,113,154621,21,Female,1,2024/03/22_08:50:11,YZ,None,
,,,,,,practice,0,32,1,250,9,S,0,right,0.4581703080039006,1,0,,,,,,,,,,,,,,,,,,,,,1,,,,,,,,,,,,,,,,,,,,,,,,,,,,,,,,,,,,,,,,,,,,,,113,154621,21,Female,1,2024/03/22_08:50:11,YZ,None,
,,,,,,practice,0,32,1,250,10,C,0,right,0.4181579259893624,1,0,,,,,,,,,,,,,,,,,,,,,1,,,,,,,,,,,,,,,,,,,,,,,,,,,,,,,,,,,,,,,,,,,,,,113,154621,21,Female,1,2024/03/22_08:50:11,YZ,None,
,,,,,,practice,0,32,1,250,11,J,0,right,0.6000946010026382,1,0,,,,,,,,,,,,,,,,,,,,,1,,,,,,,,,,,,,,,,,,,,,,,,,,,,,,,,,,,,,,,,,,,,,,113,154621,21,Female,1,2024/03/22_08:50:11,YZ,None,
,,,,,,practice,0,32,1,250,12,J,1,left,0.6453708960034419,1,0,,,,,,,,,,,,,,,,,,,,,1,,,,,,,,,,,,,,,,,,,,,,,,,,,,,,,,,,,,,,,,,,,,,,113,154621,21,Female,1,2024/03/22_08:50:11,YZ,None,
,,,,,,practice,0,32,1,250,13,X,0,right,0.3723601050005527,1,0,,,,,,,,,,,,,,,,,,,,,1,,,,,,,,,,,,,,,,,,,,,,,,,,,,,,,,,,,,,,,,,,,,,,113,154621,21,Female,1,2024/03/22_08:50:11,YZ,None,
,,,,,,practice,0,32,1,250,14,X,1,right,0.29803639100282453,0,0,,,,,,,,,,,,,,,,,,,,,1,,,,,,,,,,,,,,,,,,,,,,,,,,,,,,,,,,,,,,,,,,,,,,113,154621,21,Female,1,2024/03/22_08:50:11,YZ,None,
,,,,,,practice,0,32,1,250,15,V,0,right,0.7855765259882901,1,0,,,,,,,,,,,,,,,,,,,,,1,,,,,,,,,,,,,,,,,,,,,,,,,,,,,,,,,,,,,,,,,,,,,,113,154621,21,Female,1,2024/03/22_08:50:11,YZ,None,
,,,,,,practice,0,32,1,250,16,X,0,right,0.6343061680090614,1,0,,,,,,,,,,,,,,,,,,,,,1,,,,,,,,,,,,,,,,,,,,,,,,,,,,,,,,,,,,,,,,,,,,,,113,154621,21,Female,1,2024/03/22_08:50:11,YZ,None,
,,,,,,practice,0,32,1,250,17,F,0,right,0.4314619899960235,1,0,,,,,,,,,,,,,,,,,,,,,1,,,,,,,,,,,,,,,,,,,,,,,,,,,,,,,,,,,,,,,,,,,,,,113,154621,21,Female,1,2024/03/22_08:50:11,YZ,None,
,,,,,,practice,0,32,1,250,18,F,1,left,0.3648534249950899,1,0,,,,,,,,,,,,,,,,,,,,,1,,,,,,,,,,,,,,,,,,,,,,,,,,,,,,,,,,,,,,,,,,,,,,113,154621,21,Female,1,2024/03/22_08:50:11,YZ,None,
,,,,,,practice,0,32,1,250,19,S,0,right,0.4104513170022983,1,0,,,,,,,,,,,,,,,,,,,,,1,,,,,,,,,,,,,,,,,,,,,,,,,,,,,,,,,,,,,,,,,,,,,,113,154621,21,Female,1,2024/03/22_08:50:11,YZ,None,
,,,,,,practice,0,32,1,250,20,Q,0,right,0.6009677179972641,1,0,,,,,,,,,,,,,,,,,,,,,1,,,,,,,,,,,,,,,,,,,,,,,,,,,,,,,,,,,,,,,,,,,,,,113,154621,21,Female,1,2024/03/22_08:50:11,YZ,None,
,,,,,,practice,0,32,1,250,,,,,,,,0.95,0.8,0.0,1.0,0.0,1.0,0.5416459307998593,4,0,0,0,0,15,19,5,15,0,,,,1,,,,,,,,,,,,,,,,,,,,,,,,,,,,,,,,,,,,,,,,,,,,,,113,154621,21,Female,1,2024/03/22_08:50:11,YZ,None,
1,./instructions/inst_prac_3/Slide37.png,right,8.924806734998128,613.8697922499996,622.7945989849977,,,,,,,,,,,,,,,,,,,,,,,,,,,,,,,,,1,,,,,,,,,,,,,,,,,,,,,,,,,,,,,,,,,,,,,,,,,,,,,,113,154621,21,Female,1,2024/03/22_08:50:11,YZ,None,
2,./instructions/inst_prac_3/Slide38.png,right,4.6893856870010495,622.8251971289865,627.5145828159875,,,,,,,,,,,,,,,,,,,,,,,,,,,,,,,,,1,,,,,,,,,,,,,,,,,,,,,,,,,,,,,,,,,,,,,,,,,,,,,,113,154621,21,Female,1,2024/03/22_08:50:11,YZ,None,
3,./instructions/inst_prac_3/Slide39.png,right,1.0338836169976275,627.5447228150006,628.5786064319982,,,,,,,,,,,,,,,,,,,,,,,,,,,,,,,,,1,,,,,,,,,,,,,,,,,,,,,,,,,,,,,,,,,,,,,,,,,,,,,,113,154621,21,Female,1,2024/03/22_08:50:11,YZ,None,
4,./instructions/inst_prac_3/Slide40.png,right,2.2287432580051245,628.6059014989878,630.8346447569929,,,,,,,,,,,,,,,,,,,,,,,,,,,,,,,,,1,,,,,,,,,,,,,,,,,,,,,,,,,,,,,,,,,,,,,,,,,,,,,,113,154621,21,Female,1,2024/03/22_08:50:11,YZ,None,
5,./instructions/inst_prac_3/Slide41.png,right,1.2975424879987258,630.8649549969996,632.1624974849983,,,,,,,,,,,,,,,,,,,,,,,,,,,,,,,,,1,,,,,,,,,,,,,,,,,,,,,,,,,,,,,,,,,,,,,,,,,,,,,,113,154621,21,Female,1,2024/03/22_08:50:11,YZ,None,
6,./instructions/inst_prac_3/Slide42.png,right,2.3631494870060124,632.1914732749865,634.5546227619925,,,,,,,,,,,,,,,,,,,,,,,,,,,,,,,,,1,,,,,,,,,,,,,,,,,,,,,,,,,,,,,,,,,,,,,,,,,,,,,,113,154621,21,Female,1,2024/03/22_08:50:11,YZ,None,
7,./instructions/inst_prac_3/Slide43.png,right,1.825774109995109,634.5928559439926,636.4186300539877,,,,,,,,,,,,,,,,,,,,,,,,,,,,,,,,,1,,,,,,,,,,,,,,,,,,,,,,,,,,,,,,,,,,,,,,,,,,,,,,113,154621,21,Female,1,2024/03/22_08:50:11,YZ,None,
8,./instructions/inst_prac_3/Slide44.png,right,1.7889313030027552,636.4456530289899,638.2345843319927,,,,,,,,,,,,,,,,,,,,,,,,,,,,,,,,,1,,,,,,,,,,,,,,,,,,,,,,,,,,,,,,,,,,,,,,,,,,,,,,113,154621,21,Female,1,2024/03/22_08:50:11,YZ,None,
,,,,,,practice,0,5,3,788,1,C,0,right,1.0618250150000677,1,0,,,,,,,,,,,,,,,,,,,,,1,,,,,,,,,,,,,,,,,,,,,,,,,,,,,,,,,,,,,,,,,,,,,,113,154621,21,Female,1,2024/03/22_08:50:11,YZ,None,
,,,,,,practice,0,5,3,788,2,C,0,right,1.636303738996503,1,0,,,,,,,,,,,,,,,,,,,,,1,,,,,,,,,,,,,,,,,,,,,,,,,,,,,,,,,,,,,,,,,,,,,,113,154621,21,Female,1,2024/03/22_08:50:11,YZ,None,
,,,,,,practice,0,5,3,788,3,Q,0,right,0.4063361540029291,1,0,,,,,,,,,,,,,,,,,,,,,1,,,,,,,,,,,,,,,,,,,,,,,,,,,,,,,,,,,,,,,,,,,,,,113,154621,21,Female,1,2024/03/22_08:50:11,YZ,None,
,,,,,,practice,0,5,3,788,4,J,0,left,0.614750513996114,0,0,,,,,,,,,,,,,,,,,,,,,1,,,,,,,,,,,,,,,,,,,,,,,,,,,,,,,,,,,,,,,,,,,,,,113,154621,21,Female,1,2024/03/22_08:50:11,YZ,None,
,,,,,,practice,0,5,3,788,5,N,0,right,1.7011466010008007,1,0,,,,,,,,,,,,,,,,,,,,,1,,,,,,,,,,,,,,,,,,,,,,,,,,,,,,,,,,,,,,,,,,,,,,113,154621,21,Female,1,2024/03/22_08:50:11,YZ,None,
,,,,,,practice,0,5,3,788,6,N,0,right,1.2203717430093093,1,0,,,,,,,,,,,,,,,,,,,,,1,,,,,,,,,,,,,,,,,,,,,,,,,,,,,,,,,,,,,,,,,,,,,,113,154621,21,Female,1,2024/03/22_08:50:11,YZ,None,
,,,,,,practice,0,5,3,788,7,J,1,left,0.9901249310059939,1,0,,,,,,,,,,,,,,,,,,,,,1,,,,,,,,,,,,,,,,,,,,,,,,,,,,,,,,,,,,,,,,,,,,,,113,154621,21,Female,1,2024/03/22_08:50:11,YZ,None,
,,,,,,practice,0,5,3,788,8,Q,0,right,1.075192527991021,1,0,,,,,,,,,,,,,,,,,,,,,1,,,,,,,,,,,,,,,,,,,,,,,,,,,,,,,,,,,,,,,,,,,,,,113,154621,21,Female,1,2024/03/22_08:50:11,YZ,None,
,,,,,,practice,0,5,3,788,9,N,1,left,0.7096254920033971,1,0,,,,,,,,,,,,,,,,,,,,,1,,,,,,,,,,,,,,,,,,,,,,,,,,,,,,,,,,,,,,,,,,,,,,113,154621,21,Female,1,2024/03/22_08:50:11,YZ,None,
,,,,,,practice,0,5,3,788,10,S,0,right,0.8129632089985535,1,0,,,,,,,,,,,,,,,,,,,,,1,,,,,,,,,,,,,,,,,,,,,,,,,,,,,,,,,,,,,,,,,,,,,,113,154621,21,Female,1,2024/03/22_08:50:11,YZ,None,
,,,,,,practice,0,5,3,788,11,Q,1,left,0.6453200760006439,1,0,,,,,,,,,,,,,,,,,,,,,1,,,,,,,,,,,,,,,,,,,,,,,,,,,,,,,,,,,,,,,,,,,,,,113,154621,21,Female,1,2024/03/22_08:50:11,YZ,None,
,,,,,,practice,0,5,3,788,12,X,0,right,0.87968709001143,1,0,,,,,,,,,,,,,,,,,,,,,1,,,,,,,,,,,,,,,,,,,,,,,,,,,,,,,,,,,,,,,,,,,,,,113,154621,21,Female,1,2024/03/22_08:50:11,YZ,None,
,,,,,,practice,0,5,3,788,13,S,1,left,0.5818535889993655,1,0,,,,,,,,,,,,,,,,,,,,,1,,,,,,,,,,,,,,,,,,,,,,,,,,,,,,,,,,,,,,,,,,,,,,113,154621,21,Female,1,2024/03/22_08:50:11,YZ,None,
,,,,,,practice,0,5,3,788,,,,,,,,0.9722222222222222,1.0,0.1111111111111111,0.8888888888888888,0.0,0.8888888888888888,0.9488846677704714,4,1,0,0,0,8,12,4,9,0,,,,1,,,,,,,,,,,,,,,,,,,,,,,,,,,,,,,,,,,,,,,,,,,,,,113,154621,21,Female,1,2024/03/22_08:50:11,YZ,None,
1,./instructions/inst_prac_3_next/Slide49.png,right,5.670806723996066,664.7637683939975,670.4345751179935,,,,,,,,,,,,,,,,,,,,,,,,,,,,,,,,,1,,,,,,,,,,,,,,,,,,,,,,,,,,,,,,,,,,,,,,,,,,,,,,113,154621,21,Female,1,2024/03/22_08:50:11,YZ,None,
,,,,,,practice,0,29,3,250,1,N,0,right,0.9869453019928187,1,0,,,,,,,,,,,,,,,,,,,,,1,,,,,,,,,,,,,,,,,,,,,,,,,,,,,,,,,,,,,,,,,,,,,,113,154621,21,Female,1,2024/03/22_08:50:11,YZ,None,
,,,,,,practice,0,29,3,250,2,S,0,right,0.7972166490071686,1,0,,,,,,,,,,,,,,,,,,,,,1,,,,,,,,,,,,,,,,,,,,,,,,,,,,,,,,,,,,,,,,,,,,,,113,154621,21,Female,1,2024/03/22_08:50:11,YZ,None,
,,,,,,practice,0,29,3,250,3,V,0,right,0.7040251669968711,1,0,,,,,,,,,,,,,,,,,,,,,1,,,,,,,,,,,,,,,,,,,,,,,,,,,,,,,,,,,,,,,,,,,,,,113,154621,21,Female,1,2024/03/22_08:50:11,YZ,None,
,,,,,,practice,0,29,3,250,4,N,1,left,0.5404794339992804,1,0,,,,,,,,,,,,,,,,,,,,,1,,,,,,,,,,,,,,,,,,,,,,,,,,,,,,,,,,,,,,,,,,,,,,113,154621,21,Female,1,2024/03/22_08:50:11,YZ,None,
,,,,,,practice,0,29,3,250,5,X,0,right,1.2444793350005057,1,0,,,,,,,,,,,,,,,,,,,,,1,,,,,,,,,,,,,,,,,,,,,,,,,,,,,,,,,,,,,,,,,,,,,,113,154621,21,Female,1,2024/03/22_08:50:11,YZ,None,
,,,,,,practice,0,29,3,250,6,V,1,left,0.9650285170064308,1,0,,,,,,,,,,,,,,,,,,,,,1,,,,,,,,,,,,,,,,,,,,,,,,,,,,,,,,,,,,,,,,,,,,,,113,154621,21,Female,1,2024/03/22_08:50:11,YZ,None,
,,,,,,practice,0,29,3,250,7,C,0,right,1.445608544992865,1,0,,,,,,,,,,,,,,,,,,,,,1,,,,,,,,,,,,,,,,,,,,,,,,,,,,,,,,,,,,,,,,,,,,,,113,154621,21,Female,1,2024/03/22_08:50:11,YZ,None,
,,,,,,practice,0,29,3,250,8,F,0,right,1.2093998659984209,1,0,,,,,,,,,,,,,,,,,,,,,1,,,,,,,,,,,,,,,,,,,,,,,,,,,,,,,,,,,,,,,,,,,,,,113,154621,21,Female,1,2024/03/22_08:50:11,YZ,None,
,,,,,,practice,0,29,3,250,9,N,0,left,0.5376875930087408,0,0,,,,,,,,,,,,,,,,,,,,,1,,,,,,,,,,,,,,,,,,,,,,,,,,,,,,,,,,,,,,,,,,,,,,113,154621,21,Female,1,2024/03/22_08:50:11,YZ,None,
,,,,,,practice,0,29,3,250,10,C,1,right,2.02811266099161,0,0,,,,,,,,,,,,,,,,,,,,,1,,,,,,,,,,,,,,,,,,,,,,,,,,,,,,,,,,,,,,,,,,,,,,113,154621,21,Female,1,2024/03/22_08:50:11,YZ,None,
,,,,,,practice,0,29,3,250,11,C,0,left,0.7883593040023698,0,0,,,,,,,,,,,,,,,,,,,,,1,,,,,,,,,,,,,,,,,,,,,,,,,,,,,,,,,,,,,,,,,,,,,,113,154621,21,Female,1,2024/03/22_08:50:11,YZ,None,
,,,,,,practice,0,29,3,250,12,N,1,right,2.8046793450048426,0,0,,,,,,,,,,,,,,,,,,,,,1,,,,,,,,,,,,,,,,,,,,,,,,,,,,,,,,,,,,,,,,,,,,,,113,154621,21,Female,1,2024/03/22_08:50:11,YZ,None,
,,,,,,practice,0,29,3,250,13,C,1,right,0.9485391679918393,0,0,,,,,,,,,,,,,,,,,,,,,1,,,,,,,,,,,,,,,,,,,,,,,,,,,,,,,,,,,,,,,,,,,,,,113,154621,21,Female,1,2024/03/22_08:50:11,YZ,None,
,,,,,,practice,0,29,3,250,14,V,0,right,1.7530219519976526,1,0,,,,,,,,,,,,,,,,,,,,,1,,,,,,,,,,,,,,,,,,,,,,,,,,,,,,,,,,,,,,,,,,,,,,113,154621,21,Female,1,2024/03/22_08:50:11,YZ,None,
,,,,,,practice,0,29,3,250,15,X,0,right,0.7378780669969274,1,0,,,,,,,,,,,,,,,,,,,,,1,,,,,,,,,,,,,,,,,,,,,,,,,,,,,,,,,,,,,,,,,,,,,,113,154621,21,Female,1,2024/03/22_08:50:11,YZ,None,
,,,,,,practice,0,29,3,250,16,N,0,left,0.46834201901219785,0,0,,,,,,,,,,,,,,,,,,,,,1,,,,,,,,,,,,,,,,,,,,,,,,,,,,,,,,,,,,,,,,,,,,,,113,154621,21,Female,1,2024/03/22_08:50:11,YZ,None,
,,,,,,practice,0,29,3,250,17,N,0,right,0.7054355520085664,1,0,,,,,,,,,,,,,,,,,,,,,1,,,,,,,,,,,,,,,,,,,,,,,,,,,,,,,,,,,,,,,,,,,,,,113,154621,21,Female,1,2024/03/22_08:50:11,YZ,None,
,,,,,,practice,0,29,3,250,18,F,0,left,1.082491786000901,0,0,,,,,,,,,,,,,,,,,,,,,1,,,,,,,,,,,,,,,,,,,,,,,,,,,,,,,,,,,,,,,,,,,,,,113,154621,21,Female,1,2024/03/22_08:50:11,YZ,None,
,,,,,,practice,0,29,3,250,19,N,1,right,1.737205138997524,0,0,,,,,,,,,,,,,,,,,,,,,1,,,,,,,,,,,,,,,,,,,,,,,,,,,,,,,,,,,,,,,,,,,,,,113,154621,21,Female,1,2024/03/22_08:50:11,YZ,None,
,,,,,,practice,0,29,3,250,20,V,0,left,0.6715670399862574,0,0,,,,,,,,,,,,,,,,,,,,,1,,,,,,,,,,,,,,,,,,,,,,,,,,,,,,,,,,,,,,,,,,,,,,113,154621,21,Female,1,2024/03/22_08:50:11,YZ,None,
,,,,,,practice,0,29,3,250,,,,,,,,0.010714285714285732,0.3333333333333333,0.35714285714285715,0.6428571428571429,0.0,0.6428571428571428,1.1078251220496895,2,5,0,0,0,9,11,6,14,0,,,,1,,,,,,,,,,,,,,,,,,,,,,,,,,,,,,,,,,,,,,,,,,,,,,113,154621,21,Female,1,2024/03/22_08:50:11,YZ,None,
,,,,,,practice,0,6,3,250,1,Q,0,right,1.290597496990813,1,0,,,,,,,,,,,,,,,,,,,,,1,,,,,,,,,,,,,,,,,,,,,,,,,,,,,,,,,,,,,,,,,,,,,,113,154621,21,Female,1,2024/03/22_08:50:11,YZ,None,
,,,,,,practice,0,6,3,250,2,F,0,right,0.744633102993248,1,0,,,,,,,,,,,,,,,,,,,,,1,,,,,,,,,,,,,,,,,,,,,,,,,,,,,,,,,,,,,,,,,,,,,,113,154621,21,Female,1,2024/03/22_08:50:11,YZ,None,
,,,,,,practice,0,6,3,250,3,V,0,right,1.0973439709923696,1,0,,,,,,,,,,,,,,,,,,,,,1,,,,,,,,,,,,,,,,,,,,,,,,,,,,,,,,,,,,,,,,,,,,,,113,154621,21,Female,1,2024/03/22_08:50:11,YZ,None,
,,,,,,practice,0,6,3,250,4,Q,1,left,0.7806446400063578,1,0,,,,,,,,,,,,,,,,,,,,,1,,,,,,,,,,,,,,,,,,,,,,,,,,,,,,,,,,,,,,,,,,,,,,113,154621,21,Female,1,2024/03/22_08:50:11,YZ,None,
,,,,,,practice,0,6,3,250,5,S,0,right,2.369371647000662,1,0,,,,,,,,,,,,,,,,,,,,,1,,,,,,,,,,,,,,,,,,,,,,,,,,,,,,,,,,,,,,,,,,,,,,113,154621,21,Female,1,2024/03/22_08:50:11,YZ,None,
,,,,,,practice,0,6,3,250,6,Q,0,right,1.1528439480025554,1,0,,,,,,,,,,,,,,,,,,,,,1,,,,,,,,,,,,,,,,,,,,,,,,,,,,,,,,,,,,,,,,,,,,,,113,154621,21,Female,1,2024/03/22_08:50:11,YZ,None,
,,,,,,practice,0,6,3,250,7,N,0,left,1.968781563002267,0,0,,,,,,,,,,,,,,,,,,,,,1,,,,,,,,,,,,,,,,,,,,,,,,,,,,,,,,,,,,,,,,,,,,,,113,154621,21,Female,1,2024/03/22_08:50:11,YZ,None,
,,,,,,practice,0,6,3,250,8,X,0,right,2.17254860799585,1,0,,,,,,,,,,,,,,,,,,,,,1,,,,,,,,,,,,,,,,,,,,,,,,,,,,,,,,,,,,,,,,,,,,,,113,154621,21,Female,1,2024/03/22_08:50:11,YZ,None,
,,,,,,practice,0,6,3,250,9,Q,1,left,1.12058285799867,1,0,,,,,,,,,,,,,,,,,,,,,1,,,,,,,,,,,,,,,,,,,,,,,,,,,,,,,,,,,,,,,,,,,,,,113,154621,21,Female,1,2024/03/22_08:50:11,YZ,None,
,,,,,,practice,0,6,3,250,10,C,0,right,0.8013826609967509,1,0,,,,,,,,,,,,,,,,,,,,,1,,,,,,,,,,,,,,,,,,,,,,,,,,,,,,,,,,,,,,,,,,,,,,113,154621,21,Female,1,2024/03/22_08:50:11,YZ,None,
,,,,,,practice,0,6,3,250,11,X,1,left,0.9521582510060398,1,0,,,,,,,,,,,,,,,,,,,,,1,,,,,,,,,,,,,,,,,,,,,,,,,,,,,,,,,,,,,,,,,,,,,,113,154621,21,Female,1,2024/03/22_08:50:11,YZ,None,
,,,,,,practice,0,6,3,250,12,C,0,left,0.5889707619935507,0,0,,,,,,,,,,,,,,,,,,,,,1,,,,,,,,,,,,,,,,,,,,,,,,,,,,,,,,,,,,,,,,,,,,,,113,154621,21,Female,1,2024/03/22_08:50:11,YZ,None,
,,,,,,practice,0,6,3,250,13,X,0,right,0.6101055269973585,1,0,,,,,,,,,,,,,,,,,,,,,1,,,,,,,,,,,,,,,,,,,,,,,,,,,,,,,,,,,,,,,,,,,,,,113,154621,21,Female,1,2024/03/22_08:50:11,YZ,None,
,,,,,,practice,0,6,3,250,14,F,0,right,2.3736668060009833,1,0,,,,,,,,,,,,,,,,,,,,,1,,,,,,,,,,,,,,,,,,,,,,,,,,,,,,,,,,,,,,,,,,,,,,113,154621,21,Female,1,2024/03/22_08:50:11,YZ,None,
,,,,,,practice,0,6,3,250,15,C,1,left,0.5278693889995338,1,0,,,,,,,,,,,,,,,,,,,,,1,,,,,,,,,,,,,,,,,,,,,,,,,,,,,,,,,,,,,,,,,,,,,,113,154621,21,Female,1,2024/03/22_08:50:11,YZ,None,
,,,,,,practice,0,6,3,250,16,X,1,left,0.5250386269908631,1,0,,,,,,,,,,,,,,,,,,,,,1,,,,,,,,,,,,,,,,,,,,,,,,,,,,,,,,,,,,,,,,,,,,,,113,154621,21,Female,1,2024/03/22_08:50:11,YZ,None,
,,,,,,practice,0,6,3,250,17,X,0,left,0.48067732001072727,0,0,,,,,,,,,,,,,,,,,,,,,1,,,,,,,,,,,,,,,,,,,,,,,,,,,,,,,,,,,,,,,,,,,,,,113,154621,21,Female,1,2024/03/22_08:50:11,YZ,None,
,,,,,,practice,0,6,3,250,18,C,1,right,2.386597756994888,0,0,,,,,,,,,,,,,,,,,,,,,1,,,,,,,,,,,,,,,,,,,,,,,,,,,,,,,,,,,,,,,,,,,,,,113,154621,21,Female,1,2024/03/22_08:50:11,YZ,None,
,,,,,,practice,0,6,3,250,19,J,0,right,0.6651172349957051,1,0,,,,,,,,,,,,,,,,,,,,,1,,,,,,,,,,,,,,,,,,,,,,,,,,,,,,,,,,,,,,,,,,,,,,113,154621,21,Female,1,2024/03/22_08:50:11,YZ,None,
,,,,,,practice,0,6,3,250,20,C,0,left,2.610002994988463,0,0,,,,,,,,,,,,,,,,,,,,,1,,,,,,,,,,,,,,,,,,,,,,,,,,,,,,,,,,,,,,,,,,,,,,113,154621,21,Female,1,2024/03/22_08:50:11,YZ,None,
,,,,,,practice,0,6,3,250,,,,,,,,0.8392857142857143,0.8333333333333334,0.2857142857142857,0.7142857142857143,0.0,0.7142857142857143,1.2609467582478828,5,4,0,0,0,10,15,6,14,0,,,,1,,,,,,,,,,,,,,,,,,,,,,,,,,,,,,,,,,,,,,,,,,,,,,113,154621,21,Female,1,2024/03/22_08:50:11,YZ,None,
1,./instructions/inst_prac_main/Slide51.png,right,2.097513583008549,742.8970075879915,744.9945211710001,,,,,,,,,,,,,,,,,,,,,,,,,,,,,,,,,1,,,,,,,,,,,,,,,,,,,,,,,,,,,,,,,,,,,,,,,,,,,,,,113,154621,21,Female,1,2024/03/22_08:50:11,YZ,None,
2,./instructions/inst_prac_main/Slide52.png,right,11.5153027119959,745.023289675999,756.5385923879949,,,,,,,,,,,,,,,,,,,,,,,,,,,,,,,,,1,,,,,,,,,,,,,,,,,,,,,,,,,,,,,,,,,,,,,,,,,,,,,,113,154621,21,Female,1,2024/03/22_08:50:11,YZ,None,
3,./instructions/inst_prac_main/Slide53.png,right,6.291940074996091,756.5666439219931,762.8585839969892,,,,,,,,,,,,,,,,,,,,,,,,,,,,,,,,,1,,,,,,,,,,,,,,,,,,,,,,,,,,,,,,,,,,,,,,,,,,,,,,113,154621,21,Female,1,2024/03/22_08:50:11,YZ,None,
2,./instructions/inst_prac_main/Slide54.png,left,45.85193111600529,762.8867919649929,808.7387230809982,,,,,,,,,,,,,,,,,,,,,,,,,,,,,,,,,1,,,,,,,,,,,,,,,,,,,,,,,,,,,,,,,,,,,,,,,,,,,,,,113,154621,21,Female,1,2024/03/22_08:50:11,YZ,None,
3,./instructions/inst_prac_main/Slide53.png,right,2.2824855639919406,808.768138984,811.0506245479919,,,,,,,,,,,,,,,,,,,,,,,,,,,,,,,,,1,,,,,,,,,,,,,,,,,,,,,,,,,,,,,,,,,,,,,,,,,,,,,,113,154621,21,Female,1,2024/03/22_08:50:11,YZ,None,
4,./instructions/inst_prac_main/Slide54.png,right,0.6664730600023177,811.0800150849973,811.7464881449996,,,,,,,,,,,,,,,,,,,,,,,,,,,,,,,,,1,,,,,,,,,,,,,,,,,,,,,,,,,,,,,,,,,,,,,,,,,,,,,,113,154621,21,Female,1,2024/03/22_08:50:11,YZ,None,
,,,,,,practice_main,0,1,1,250,1,Q,0,right,0.8344268080109032,1,0,,,,,,,,,,,,,,,,,,,,,1,,,,,,,,,,,,,,,,,,,,,,,,,,,,,,,,,,,,,,,,,,,,,,113,154621,21,Female,1,2024/03/22_08:50:11,YZ,None,
,,,,,,practice_main,0,1,1,250,2,X,0,right,0.6074951540067559,1,0,,,,,,,,,,,,,,,,,,,,,1,,,,,,,,,,,,,,,,,,,,,,,,,,,,,,,,,,,,,,,,,,,,,,113,154621,21,Female,1,2024/03/22_08:50:11,YZ,None,
,,,,,,practice_main,0,1,1,250,3,Q,0,right,0.644974374998128,1,0,,,,,,,,,,,,,,,,,,,,,1,,,,,,,,,,,,,,,,,,,,,,,,,,,,,,,,,,,,,,,,,,,,,,113,154621,21,Female,1,2024/03/22_08:50:11,YZ,None,
,,,,,,practice_main,0,1,1,250,4,N,0,right,0.44073536500218324,1,0,,,,,,,,,,,,,,,,,,,,,1,,,,,,,,,,,,,,,,,,,,,,,,,,,,,,,,,,,,,,,,,,,,,,113,154621,21,Female,1,2024/03/22_08:50:11,YZ,None,
,,,,,,practice_main,0,1,1,250,5,S,0,right,0.40152376500191167,1,0,,,,,,,,,,,,,,,,,,,,,1,,,,,,,,,,,,,,,,,,,,,,,,,,,,,,,,,,,,,,,,,,,,,,113,154621,21,Female,1,2024/03/22_08:50:11,YZ,None,
,,,,,,practice_main,0,1,1,250,6,S,1,left,0.33589216899417806,1,0,,,,,,,,,,,,,,,,,,,,,1,,,,,,,,,,,,,,,,,,,,,,,,,,,,,,,,,,,,,,,,,,,,,,113,154621,21,Female,1,2024/03/22_08:50:11,YZ,None,
,,,,,,practice_main,0,1,1,250,7,X,0,right,0.3302627350058174,1,0,,,,,,,,,,,,,,,,,,,,,1,,,,,,,,,,,,,,,,,,,,,,,,,,,,,,,,,,,,,,,,,,,,,,113,154621,21,Female,1,2024/03/22_08:50:11,YZ,None,
,,,,,,practice_main,0,1,1,250,8,S,0,right,0.6827395569998771,1,0,,,,,,,,,,,,,,,,,,,,,1,,,,,,,,,,,,,,,,,,,,,,,,,,,,,,,,,,,,,,,,,,,,,,113,154621,21,Female,1,2024/03/22_08:50:11,YZ,None,
,,,,,,practice_main,0,1,1,250,9,F,0,right,0.40357066999422386,1,0,,,,,,,,,,,,,,,,,,,,,1,,,,,,,,,,,,,,,,,,,,,,,,,,,,,,,,,,,,,,,,,,,,,,113,154621,21,Female,1,2024/03/22_08:50:11,YZ,None,
,,,,,,practice_main,0,1,1,250,10,N,0,right,0.46334445200045593,1,0,,,,,,,,,,,,,,,,,,,,,1,,,,,,,,,,,,,,,,,,,,,,,,,,,,,,,,,,,,,,,,,,,,,,113,154621,21,Female,1,2024/03/22_08:50:11,YZ,None,
,,,,,,practice_main,0,1,1,250,11,N,1,left,0.7575343400094425,1,0,,,,,,,,,,,,,,,,,,,,,1,,,,,,,,,,,,,,,,,,,,,,,,,,,,,,,,,,,,,,,,,,,,,,113,154621,21,Female,1,2024/03/22_08:50:11,YZ,None,
,,,,,,practice_main,0,1,1,250,12,X,0,right,0.35821867499907967,1,0,,,,,,,,,,,,,,,,,,,,,1,,,,,,,,,,,,,,,,,,,,,,,,,,,,,,,,,,,,,,,,,,,,,,113,154621,21,Female,1,2024/03/22_08:50:11,YZ,None,
,,,,,,practice_main,0,1,1,250,13,V,0,right,0.4525914410041878,1,0,,,,,,,,,,,,,,,,,,,,,1,,,,,,,,,,,,,,,,,,,,,,,,,,,,,,,,,,,,,,,,,,,,,,113,154621,21,Female,1,2024/03/22_08:50:11,YZ,None,
,,,,,,practice_main,0,1,1,250,14,V,1,left,0.36740950800594874,1,0,,,,,,,,,,,,,,,,,,,,,1,,,,,,,,,,,,,,,,,,,,,,,,,,,,,,,,,,,,,,,,,,,,,,113,154621,21,Female,1,2024/03/22_08:50:11,YZ,None,
,,,,,,practice_main,0,1,1,250,15,Q,0,right,0.3292447449930478,1,0,,,,,,,,,,,,,,,,,,,,,1,,,,,,,,,,,,,,,,,,,,,,,,,,,,,,,,,,,,,,,,,,,,,,113,154621,21,Female,1,2024/03/22_08:50:11,YZ,None,
,,,,,,practice_main,0,1,1,250,16,C,0,right,0.4720472420012811,1,0,,,,,,,,,,,,,,,,,,,,,1,,,,,,,,,,,,,,,,,,,,,,,,,,,,,,,,,,,,,,,,,,,,,,113,154621,21,Female,1,2024/03/22_08:50:11,YZ,None,
,,,,,,practice_main,0,1,1,250,17,Q,0,right,0.41543061498668976,1,0,,,,,,,,,,,,,,,,,,,,,1,,,,,,,,,,,,,,,,,,,,,,,,,,,,,,,,,,,,,,,,,,,,,,113,154621,21,Female,1,2024/03/22_08:50:11,YZ,None,
,,,,,,practice_main,0,1,1,250,18,Q,1,left,0.4371685609949054,1,0,,,,,,,,,,,,,,,,,,,,,1,,,,,,,,,,,,,,,,,,,,,,,,,,,,,,,,,,,,,,,,,,,,,,113,154621,21,Female,1,2024/03/22_08:50:11,YZ,None,
,,,,,,practice_main,0,1,1,250,19,F,0,right,0.3121079819975421,1,0,,,,,,,,,,,,,,,,,,,,,1,,,,,,,,,,,,,,,,,,,,,,,,,,,,,,,,,,,,,,,,,,,,,,113,154621,21,Female,1,2024/03/22_08:50:11,YZ,None,
,,,,,,practice_main,0,1,1,250,20,F,1,left,0.4207875839929329,1,0,,,,,,,,,,,,,,,,,,,,,1,,,,,,,,,,,,,,,,,,,,,,,,,,,,,,,,,,,,,,,,,,,,,,113,154621,21,Female,1,2024/03/22_08:50:11,YZ,None,
,,,,,,practice_main,0,1,1,250,,,,,,,,1.0,1.0,0.0,1.0,0.0,1.0,0.4733752871499746,5,0,0,0,0,15,20,5,15,0,,,,1,,,,,,,,,,,,,,,,,,,,,,,,,,,,,,,,,,,,,,,,,,,,,,113,154621,21,Female,1,2024/03/22_08:50:11,YZ,None,
,,,,,240322_090732,PRACTICE,0,1,1,250,,,,,,,,,,,,,,,,,,,,,,,,,,,,1,42,1,1,cue1.png,easy,A,97,2.104847697002697,0,815.0690478889883,817.2035000019969,,,,,,,,,,,,,,,,,,,,,,,,,,,,,,,,,,,113,154621,21,Female,1,2024/03/22_08:50:11,YZ,None,
,,,,,,practice_main,0,2,3,250,1,Q,0,None,nan,0,1,,,,,,,,,,,,,,,,,,,,,1,,,,,,,,,,,,,,,,,,,,,,,,,,,,,,,,,,,,,,,,,,,,,,113,154621,21,Female,1,2024/03/22_08:50:11,YZ,None,
,,,,,,practice_main,0,2,3,250,2,N,0,right,0.6801887979963794,1,0,,,,,,,,,,,,,,,,,,,,,1,,,,,,,,,,,,,,,,,,,,,,,,,,,,,,,,,,,,,,,,,,,,,,113,154621,21,Female,1,2024/03/22_08:50:11,YZ,None,
,,,,,,practice_main,0,2,3,250,3,N,0,right,0.564625402999809,1,0,,,,,,,,,,,,,,,,,,,,,1,,,,,,,,,,,,,,,,,,,,,,,,,,,,,,,,,,,,,,,,,,,,,,113,154621,21,Female,1,2024/03/22_08:50:11,YZ,None,
,,,,,,practice_main,0,2,3,250,4,Q,1,left,0.5124337230081437,1,0,,,,,,,,,,,,,,,,,,,,,1,,,,,,,,,,,,,,,,,,,,,,,,,,,,,,,,,,,,,,,,,,,,,,113,154621,21,Female,1,2024/03/22_08:50:11,YZ,None,
,,,,,,practice_main,0,2,3,250,5,C,0,left,nan,0,1,,,,,,,,,,,,,,,,,,,,,1,,,,,,,,,,,,,,,,,,,,,,,,,,,,,,,,,,,,,,,,,,,,,,113,154621,21,Female,1,2024/03/22_08:50:11,YZ,None,
,,,,,,practice_main,0,2,3,250,6,C,0,right,0.7425753969873767,1,0,,,,,,,,,,,,,,,,,,,,,1,,,,,,,,,,,,,,,,,,,,,,,,,,,,,,,,,,,,,,,,,,,,,,113,154621,21,Female,1,2024/03/22_08:50:11,YZ,None,
,,,,,,practice_main,0,2,3,250,7,S,0,right,0.7691474400053266,1,0,,,,,,,,,,,,,,,,,,,,,1,,,,,,,,,,,,,,,,,,,,,,,,,,,,,,,,,,,,,,,,,,,,,,113,154621,21,Female,1,2024/03/22_08:50:11,YZ,None,
,,,,,,practice_main,0,2,3,250,8,S,0,right,0.7283084740047343,1,0,,,,,,,,,,,,,,,,,,,,,1,,,,,,,,,,,,,,,,,,,,,,,,,,,,,,,,,,,,,,,,,,,,,,113,154621,21,Female,1,2024/03/22_08:50:11,YZ,None,
,,,,,,practice_main,0,2,3,250,9,N,0,left,0.8407274909986882,0,0,,,,,,,,,,,,,,,,,,,,,1,,,,,,,,,,,,,,,,,,,,,,,,,,,,,,,,,,,,,,,,,,,,,,113,154621,21,Female,1,2024/03/22_08:50:11,YZ,None,
,,,,,,practice_main,0,2,3,250,10,S,1,right,0.6646086550026666,0,0,,,,,,,,,,,,,,,,,,,,,1,,,,,,,,,,,,,,,,,,,,,,,,,,,,,,,,,,,,,,,,,,,,,,113,154621,21,Female,1,2024/03/22_08:50:11,YZ,None,
,,,,,,practice_main,0,2,3,250,11,Q,0,right,nan,0,1,,,,,,,,,,,,,,,,,,,,,1,,,,,,,,,,,,,,,,,,,,,,,,,,,,,,,,,,,,,,,,,,,,,,113,154621,21,Female,1,2024/03/22_08:50:11,YZ,None,
,,,,,,practice_main,0,2,3,250,12,S,0,left,0.406712787997094,0,0,,,,,,,,,,,,,,,,,,,,,1,,,,,,,,,,,,,,,,,,,,,,,,,,,,,,,,,,,,,,,,,,,,,,113,154621,21,Female,1,2024/03/22_08:50:11,YZ,None,
,,,,,,practice_main,0,2,3,250,13,S,1,left,0.3689096369926119,1,0,,,,,,,,,,,,,,,,,,,,,1,,,,,,,,,,,,,,,,,,,,,,,,,,,,,,,,,,,,,,,,,,,,,,113,154621,21,Female,1,2024/03/22_08:50:11,YZ,None,
,,,,,,practice_main,0,2,3,250,14,V,0,right,0.5531096199993044,1,0,,,,,,,,,,,,,,,,,,,,,1,,,,,,,,,,,,,,,,,,,,,,,,,,,,,,,,,,,,,,,,,,,,,,113,154621,21,Female,1,2024/03/22_08:50:11,YZ,None,
,,,,,,practice_main,0,2,3,250,15,Q,0,left,0.4558832079928834,0,0,,,,,,,,,,,,,,,,,,,,,1,,,,,,,,,,,,,,,,,,,,,,,,,,,,,,,,,,,,,,,,,,,,,,113,154621,21,Female,1,2024/03/22_08:50:11,YZ,None,
,,,,,,practice_main,0,2,3,250,16,S,1,left,0.765138962000492,1,0,,,,,,,,,,,,,,,,,,,,,1,,,,,,,,,,,,,,,,,,,,,,,,,,,,,,,,,,,,,,,,,,,,,,113,154621,21,Female,1,2024/03/22_08:50:11,YZ,None,
,,,,,,practice_main,0,2,3,250,17,V,1,left,0.7310115759901237,1,0,,,,,,,,,,,,,,,,,,,,,1,,,,,,,,,,,,,,,,,,,,,,,,,,,,,,,,,,,,,,,,,,,,,,113,154621,21,Female,1,2024/03/22_08:50:11,YZ,None,
,,,,,,practice_main,0,2,3,250,18,N,0,left,0.6076158829964697,0,0,,,,,,,,,,,,,,,,,,,,,1,,,,,,,,,,,,,,,,,,,,,,,,,,,,,,,,,,,,,,,,,,,,,,113,154621,21,Female,1,2024/03/22_08:50:11,YZ,None,
,,,,,,practice_main,0,2,3,250,19,J,0,right,0.43727092100016307,1,0,,,,,,,,,,,,,,,,,,,,,1,,,,,,,,,,,,,,,,,,,,,,,,,,,,,,,,,,,,,,,,,,,,,,113,154621,21,Female,1,2024/03/22_08:50:11,YZ,None,
,,,,,,practice_main,0,2,3,250,20,S,0,right,nan,0,1,,,,,,,,,,,,,,,,,,,,,1,,,,,,,,,,,,,,,,,,,,,,,,,,,,,,,,,,,,,,,,,,,,,,113,154621,21,Female,1,2024/03/22_08:50:11,YZ,None,
,,,,,,practice_main,0,2,3,250,,,,,,,,0.83,0.8,0.26666666666666666,0.6363636363636364,0.2,0.5333333333333334,0.6142667484982667,4,4,0,4,4,7,11,5,15,0,,,,1,,,,,,,,,,,,,,,,,,,,,,,,,,,,,,,,,,,,,,,,,,,,,,113,154621,21,Female,1,2024/03/22_08:50:11,YZ,None,
,,,,,240322_090808,PRACTICE,0,2,3,250,,,,,,,,,,,,,,,,,,,,,,,,,,,,1,3,2,2,cue2.png,hard,A,62,2.48817540500022,0,846.3410806329921,848.8440577869915,,,,,,,,,,,,,,,,,,,,,,,,,,,,,,,,,,,113,154621,21,Female,1,2024/03/22_08:50:11,YZ,None,
,,,,,,practice_main,0,3,3,250,1,N,0,right,0.7655867449939251,1,0,,,,,,,,,,,,,,,,,,,,,1,,,,,,,,,,,,,,,,,,,,,,,,,,,,,,,,,,,,,,,,,,,,,,113,154621,21,Female,1,2024/03/22_08:50:11,YZ,None,
,,,,,,practice_main,0,3,3,250,2,S,0,right,0.3750669970031595,1,0,,,,,,,,,,,,,,,,,,,,,1,,,,,,,,,,,,,,,,,,,,,,,,,,,,,,,,,,,,,,,,,,,,,,113,154621,21,Female,1,2024/03/22_08:50:11,YZ,None,
,,,,,,practice_main,0,3,3,250,3,N,0,right,0.5243964409892214,1,0,,,,,,,,,,,,,,,,,,,,,1,,,,,,,,,,,,,,,,,,,,,,,,,,,,,,,,,,,,,,,,,,,,,,113,154621,21,Female,1,2024/03/22_08:50:11,YZ,None,
,,,,,,practice_main,0,3,3,250,4,Q,0,right,0.9067680320004001,1,0,,,,,,,,,,,,,,,,,,,,,1,,,,,,,,,,,,,,,,,,,,,,,,,,,,,,,,,,,,,,,,,,,,,,113,154621,21,Female,1,2024/03/22_08:50:11,YZ,None,
,,,,,,practice_main,0,3,3,250,5,F,0,right,0.5123598810023395,1,0,,,,,,,,,,,,,,,,,,,,,1,,,,,,,,,,,,,,,,,,,,,,,,,,,,,,,,,,,,,,,,,,,,,,113,154621,21,Female,1,2024/03/22_08:50:11,YZ,None,
,,,,,,practice_main,0,3,3,250,6,S,0,left,0.3403896740055643,0,0,,,,,,,,,,,,,,,,,,,,,1,,,,,,,,,,,,,,,,,,,,,,,,,,,,,,,,,,,,,,,,,,,,,,113,154621,21,Female,1,2024/03/22_08:50:11,YZ,None,
,,,,,,practice_main,0,3,3,250,7,N,0,left,nan,0,1,,,,,,,,,,,,,,,,,,,,,1,,,,,,,,,,,,,,,,,,,,,,,,,,,,,,,,,,,,,,,,,,,,,,113,154621,21,Female,1,2024/03/22_08:50:11,YZ,None,
,,,,,,practice_main,0,3,3,250,8,Q,0,left,nan,0,1,,,,,,,,,,,,,,,,,,,,,1,,,,,,,,,,,,,,,,,,,,,,,,,,,,,,,,,,,,,,,,,,,,,,113,154621,21,Female,1,2024/03/22_08:50:11,YZ,None,
,,,,,,practice_main,0,3,3,250,9,J,0,right,0.7909650419896934,1,0,,,,,,,,,,,,,,,,,,,,,1,,,,,,,,,,,,,,,,,,,,,,,,,,,,,,,,,,,,,,,,,,,,,,113,154621,21,Female,1,2024/03/22_08:50:11,YZ,None,
,,,,,,practice_main,0,3,3,250,10,N,1,left,0.9137725200125715,1,0,,,,,,,,,,,,,,,,,,,,,1,,,,,,,,,,,,,,,,,,,,,,,,,,,,,,,,,,,,,,,,,,,,,,113,154621,21,Female,1,2024/03/22_08:50:11,YZ,None,
,,,,,,practice_main,0,3,3,250,11,Q,1,right,0.4745878499961691,0,0,,,,,,,,,,,,,,,,,,,,,1,,,,,,,,,,,,,,,,,,,,,,,,,,,,,,,,,,,,,,,,,,,,,,113,154621,21,Female,1,2024/03/22_08:50:11,YZ,None,
,,,,,,practice_main,0,3,3,250,12,Q,0,left,0.9415738679963397,0,0,,,,,,,,,,,,,,,,,,,,,1,,,,,,,,,,,,,,,,,,,,,,,,,,,,,,,,,,,,,,,,,,,,,,113,154621,21,Female,1,2024/03/22_08:50:11,YZ,None,
,,,,,,practice_main,0,3,3,250,13,N,1,left,nan,0,1,,,,,,,,,,,,,,,,,,,,,1,,,,,,,,,,,,,,,,,,,,,,,,,,,,,,,,,,,,,,,,,,,,,,113,154621,21,Female,1,2024/03/22_08:50:11,YZ,None,
,,,,,,practice_main,0,3,3,250,14,Q,1,left,0.7589900899911299,1,0,,,,,,,,,,,,,,,,,,,,,1,,,,,,,,,,,,,,,,,,,,,,,,,,,,,,,,,,,,,,,,,,,,,,113,154621,21,Female,1,2024/03/22_08:50:11,YZ,None,
,,,,,,practice_main,0,3,3,250,15,J,0,right,0.4700988080003299,1,0,,,,,,,,,,,,,,,,,,,,,1,,,,,,,,,,,,,,,,,,,,,,,,,,,,,,,,,,,,,,,,,,,,,,113,154621,21,Female,1,2024/03/22_08:50:11,YZ,None,
,,,,,,practice_main,0,3,3,250,16,N,1,left,0.5828486110112863,1,0,,,,,,,,,,,,,,,,,,,,,1,,,,,,,,,,,,,,,,,,,,,,,,,,,,,,,,,,,,,,,,,,,,,,113,154621,21,Female,1,2024/03/22_08:50:11,YZ,None,
,,,,,,practice_main,0,3,3,250,17,C,0,right,0.4372832670051139,1,0,,,,,,,,,,,,,,,,,,,,,1,,,,,,,,,,,,,,,,,,,,,,,,,,,,,,,,,,,,,,,,,,,,,,113,154621,21,Female,1,2024/03/22_08:50:11,YZ,None,
,,,,,,practice_main,0,3,3,250,18,S,0,right,0.5754715189978015,1,0,,,,,,,,,,,,,,,,,,,,,1,,,,,,,,,,,,,,,,,,,,,,,,,,,,,,,,,,,,,,,,,,,,,,113,154621,21,Female,1,2024/03/22_08:50:11,YZ,None,
,,,,,,practice_main,0,3,3,250,19,J,0,right,0.34401759000320453,1,0,,,,,,,,,,,,,,,,,,,,,1,,,,,,,,,,,,,,,,,,,,,,,,,,,,,,,,,,,,,,,,,,,,,,113,154621,21,Female,1,2024/03/22_08:50:11,YZ,None,
,,,,,,practice_main,0,3,3,250,20,Q,0,left,0.7739031679957407,0,0,,,,,,,,,,,,,,,,,,,,,1,,,,,,,,,,,,,,,,,,,,,,,,,,,,,,,,,,,,,,,,,,,,,,113,154621,21,Female,1,2024/03/22_08:50:11,YZ,None,
,,,,,,practice_main,0,3,3,250,,,,,,,,0.77,0.6,0.2,0.7692307692307693,0.15,0.65,0.6169458884114112,3,3,1,2,3,10,13,5,15,0,,,,1,,,,,,,,,,,,,,,,,,,,,,,,,,,,,,,,,,,,,,,,,,,,,,113,154621,21,Female,1,2024/03/22_08:50:11,YZ,None,
,,,,,240322_090843,PRACTICE,0,3,3,250,,,,,,,,,,,,,,,,,,,,,,,,,,,,1,47,3,3,cue2.png,hard,A,56,1.6647123979928438,0,882.4101119999978,884.0860939389968,,,,,,,,,,,,,,,,,,,,,,,,,,,,,,,,,,,113,154621,21,Female,1,2024/03/22_08:50:11,YZ,None,
1,./instructions/inst_prac_end/Slide56.png,right,21.756687204993796,915.7977946199971,937.554481824991,,,,,,,,,,,,,,,,,,,,,,,,,,,,,,,,,1,,,,,,,,,,,,,,,,,,,,,,,,,,,,,,,,,,,,,,,,,,,,,,113,154621,21,Female,1,2024/03/22_08:50:11,YZ,None,
1,./instructions/inst_test/Slide57.png,right,28.694396990002133,937.6041126409982,966.2985096310003,,,,,,,,,,,,,,,,,,,,,,,,,,,,,,,,,1,,,,,,,,,,,,,,,,,,,,,,,,,,,,,,,,,,,,,,,,,,,,,,113,154621,21,Female,1,2024/03/22_08:50:11,YZ,None,
