Instruction,Stimulus,Key,RT,START,END,Phase,Block,TrialN,NbackLevel,ISI,LetterN,Letter,Letter_isSame,Letter_Resp,Letter_RT,Letter_Accuracy,Letter_Timeout,Trial_A_measure,Trial_HR,Trial_FAR,Trial_CDR,Trial_MSR,Trial_ACC,Trial_RT,Trial_HitsCount,Trial_FAsCount,Trial_SameNoRespCount,Trial_DiffNoRespCount,Trial_NoRespCount,Trial_CDsCount,Trial_CorrectRespCount,Trial_SameLetterCount,Trial_DiffLetterCount,Trial_InvalidLetterCount,TrialCountCali,CaliEnd_A_measure,ISI_calibrated,Run,TrialIndex,TrialNumber_total,TrialNumber_valid,CueLearning,TrialDemandLearning,CueMapping,OnlineRating,OnlineRatingRT,OnlineRatingTimeOut,CueSTART,RatingSTART,OfflineRatingTimePoint,OfflineRatingQuesIndex,CueFigure,TrialDemand,OfflineRating,OfflineRatingRT,CueStart,OfflineRatingStart,PhaseType,CueLeft,CueDemandLeft,CueRight,CueDemandRight,Choice,ChoiceDemand,TaskDemand,ChoiceRT,ChoiceTimeOut,ChoiceSTART,CueCheck,CueDemandCheck,CorrectAnswer,Answer,AnswerDemand,AnswerRT,AnswerACC,AnswerTimeOut,CheckSTART,DemandRatingQuesIndex,QuesTLX,DemandLevel,DemandRating,DemandRatingRT,QuesStart,PID,SONA,Age,Gender,Run,TIME,EXPERIMENTER,frameRate,
1,./instructions/inst_begin/Slide2.png,right,21.46261763299117,0.10989525099284947,21.572512883984018,,,,,,,,,,,,,,,,,,,,,,,,,,,,,,,,,1,,,,,,,,,,,,,,,,,,,,,,,,,,,,,,,,,,,,,,,,,,,,,,66,148651,20,Female,1,2024/02/19_14:13:30,YZ,None,
2,./instructions/inst_begin/Slide3.png,right,18.07373054200434,21.6025400889921,39.67627063099644,,,,,,,,,,,,,,,,,,,,,,,,,,,,,,,,,1,,,,,,,,,,,,,,,,,,,,,,,,,,,,,,,,,,,,,,,,,,,,,,66,148651,20,Female,1,2024/02/19_14:13:30,YZ,None,
3,./instructions/inst_begin/Slide4.png,right,10.650110371992923,39.70599238498835,50.35610275698127,,,,,,,,,,,,,,,,,,,,,,,,,,,,,,,,,1,,,,,,,,,,,,,,,,,,,,,,,,,,,,,,,,,,,,,,,,,,,,,,66,148651,20,Female,1,2024/02/19_14:13:30,YZ,None,
1,./instructions/inst_prac_2/Slide6.png,right,12.482183849991998,50.386223877983866,62.868407727975864,,,,,,,,,,,,,,,,,,,,,,,,,,,,,,,,,1,,,,,,,,,,,,,,,,,,,,,,,,,,,,,,,,,,,,,,,,,,,,,,66,148651,20,Female,1,2024/02/19_14:13:30,YZ,None,
2,./instructions/inst_prac_2/Slide7.png,right,21.221687333018053,62.89470821397845,84.1163955469965,,,,,,,,,,,,,,,,,,,,,,,,,,,,,,,,,1,,,,,,,,,,,,,,,,,,,,,,,,,,,,,,,,,,,,,,,,,,,,,,66,148651,20,Female,1,2024/02/19_14:13:30,YZ,None,
3,./instructions/inst_prac_2/Slide8.png,right,14.397689924982842,84.14291940399562,98.54060932897846,,,,,,,,,,,,,,,,,,,,,,,,,,,,,,,,,1,,,,,,,,,,,,,,,,,,,,,,,,,,,,,,,,,,,,,,,,,,,,,,66,148651,20,Female,1,2024/02/19_14:13:30,YZ,None,
2,./instructions/inst_prac_2/Slide9.png,left,1.6276977639936376,98.56894046199159,100.19663822598523,,,,,,,,,,,,,,,,,,,,,,,,,,,,,,,,,1,,,,,,,,,,,,,,,,,,,,,,,,,,,,,,,,,,,,,,,,,,,,,,66,148651,20,Female,1,2024/02/19_14:13:30,YZ,None,
3,./instructions/inst_prac_2/Slide8.png,right,0.5386416370165534,100.2257519599807,100.76439359699725,,,,,,,,,,,,,,,,,,,,,,,,,,,,,,,,,1,,,,,,,,,,,,,,,,,,,,,,,,,,,,,,,,,,,,,,,,,,,,,,66,148651,20,Female,1,2024/02/19_14:13:30,YZ,None,
4,./instructions/inst_prac_2/Slide9.png,right,6.370752228016499,100.79352389497217,107.16427612298867,,,,,,,,,,,,,,,,,,,,,,,,,,,,,,,,,1,,,,,,,,,,,,,,,,,,,,,,,,,,,,,,,,,,,,,,,,,,,,,,66,148651,20,Female,1,2024/02/19_14:13:30,YZ,None,
5,./instructions/inst_prac_2/Slide10.png,right,2.0206206339935306,107.19186368398368,109.21248431797721,,,,,,,,,,,,,,,,,,,,,,,,,,,,,,,,,1,,,,,,,,,,,,,,,,,,,,,,,,,,,,,,,,,,,,,,,,,,,,,,66,148651,20,Female,1,2024/02/19_14:13:30,YZ,None,
6,./instructions/inst_prac_2/Slide11.png,right,1.7380318799987435,109.2420788439922,110.98011072399095,,,,,,,,,,,,,,,,,,,,,,,,,,,,,,,,,1,,,,,,,,,,,,,,,,,,,,,,,,,,,,,,,,,,,,,,,,,,,,,,66,148651,20,Female,1,2024/02/19_14:13:30,YZ,None,
7,./instructions/inst_prac_2/Slide12.png,right,1.6986637669906486,111.00959833399975,112.7082621009904,,,,,,,,,,,,,,,,,,,,,,,,,,,,,,,,,1,,,,,,,,,,,,,,,,,,,,,,,,,,,,,,,,,,,,,,,,,,,,,,66,148651,20,Female,1,2024/02/19_14:13:30,YZ,None,
8,./instructions/inst_prac_2/Slide13.png,right,2.090534994000336,112.73773302498739,114.82826801898773,,,,,,,,,,,,,,,,,,,,,,,,,,,,,,,,,1,,,,,,,,,,,,,,,,,,,,,,,,,,,,,,,,,,,,,,,,,,,,,,66,148651,20,Female,1,2024/02/19_14:13:30,YZ,None,
9,./instructions/inst_prac_2/Slide14.png,right,11.026566684013233,114.85765587197966,125.88422255599289,,,,,,,,,,,,,,,,,,,,,,,,,,,,,,,,,1,,,,,,,,,,,,,,,,,,,,,,,,,,,,,,,,,,,,,,,,,,,,,,66,148651,20,Female,1,2024/02/19_14:13:30,YZ,None,
8,./instructions/inst_prac_2/Slide15.png,left,1.2023640959814657,125.9141141489963,127.11647824497777,,,,,,,,,,,,,,,,,,,,,,,,,,,,,,,,,1,,,,,,,,,,,,,,,,,,,,,,,,,,,,,,,,,,,,,,,,,,,,,,66,148651,20,Female,1,2024/02/19_14:13:30,YZ,None,
9,./instructions/inst_prac_2/Slide14.png,right,1.6667248170124367,127.14588060198002,128.81260541899246,,,,,,,,,,,,,,,,,,,,,,,,,,,,,,,,,1,,,,,,,,,,,,,,,,,,,,,,,,,,,,,,,,,,,,,,,,,,,,,,66,148651,20,Female,1,2024/02/19_14:13:30,YZ,None,
10,./instructions/inst_prac_2/Slide15.png,right,24.656084071990335,128.8363089649938,153.49239303698414,,,,,,,,,,,,,,,,,,,,,,,,,,,,,,,,,1,,,,,,,,,,,,,,,,,,,,,,,,,,,,,,,,,,,,,,,,,,,,,,66,148651,20,Female,1,2024/02/19_14:13:30,YZ,None,
,,,,,,practice,0,35,2,2583,1,F,0,right,1.340040086011868,1,0,,,,,,,,,,,,,,,,,,,,,1,,,,,,,,,,,,,,,,,,,,,,,,,,,,,,,,,,,,,,,,,,,,,,66,148651,20,Female,1,2024/02/19_14:13:30,YZ,None,
,,,,,,practice,0,35,2,2583,2,V,0,right,0.7620025829819497,1,0,,,,,,,,,,,,,,,,,,,,,1,,,,,,,,,,,,,,,,,,,,,,,,,,,,,,,,,,,,,,,,,,,,,,66,148651,20,Female,1,2024/02/19_14:13:30,YZ,None,
,,,,,,practice,0,35,2,2583,3,F,1,left,0.6882784299959894,1,0,,,,,,,,,,,,,,,,,,,,,1,,,,,,,,,,,,,,,,,,,,,,,,,,,,,,,,,,,,,,,,,,,,,,66,148651,20,Female,1,2024/02/19_14:13:30,YZ,None,
,,,,,,practice,0,35,2,2583,4,J,0,right,0.5655046099855099,1,0,,,,,,,,,,,,,,,,,,,,,1,,,,,,,,,,,,,,,,,,,,,,,,,,,,,,,,,,,,,,,,,,,,,,66,148651,20,Female,1,2024/02/19_14:13:30,YZ,None,
,,,,,,practice,0,35,2,2583,5,C,0,right,0.8324956790020224,1,0,,,,,,,,,,,,,,,,,,,,,1,,,,,,,,,,,,,,,,,,,,,,,,,,,,,,,,,,,,,,,,,,,,,,66,148651,20,Female,1,2024/02/19_14:13:30,YZ,None,
,,,,,,practice,0,35,2,2583,6,J,1,left,0.8358175699831918,1,0,,,,,,,,,,,,,,,,,,,,,1,,,,,,,,,,,,,,,,,,,,,,,,,,,,,,,,,,,,,,,,,,,,,,66,148651,20,Female,1,2024/02/19_14:13:30,YZ,None,
,,,,,,practice,0,35,2,2583,,,,,,,,1.0,1.0,0.0,1.0,0.0,1.0,0.8373564929934219,2,0,0,0,0,4,6,2,4,0,,,,1,,,,,,,,,,,,,,,,,,,,,,,,,,,,,,,,,,,,,,,,,,,,,,66,148651,20,Female,1,2024/02/19_14:13:30,YZ,None,
1,./instructions/inst_to_cali/Slide20.png,right,4.605065708979964,164.86333910099347,169.46840480997344,,,,,,,,,,,,,,,,,,,,,,,,,,,,,,,,,1,,,,,,,,,,,,,,,,,,,,,,,,,,,,,,,,,,,,,,,,,,,,,,66,148651,20,Female,1,2024/02/19_14:13:30,YZ,None,
1,./instructions/inst_cali/Slide22.png,right,27.27036242300528,169.50193016798585,196.77229259099113,,,,,,,,,,,,,,,,,,,,,,,,,,,,,,,,,1,,,,,,,,,,,,,,,,,,,,,,,,,,,,,,,,,,,,,,,,,,,,,,66,148651,20,Female,1,2024/02/19_14:13:30,YZ,None,
,,,,,,calibration,0,8,2,583,1,J,0,right,0.6020231470174622,1,0,,,,,,,,,,,,,,,,,,,,,1,,,,,,,,,,,,,,,,,,,,,,,,,,,,,,,,,,,,,,,,,,,,,,66,148651,20,Female,1,2024/02/19_14:13:30,YZ,None,
,,,,,,calibration,0,8,2,583,2,Q,0,right,0.3667568550154101,1,0,,,,,,,,,,,,,,,,,,,,,1,,,,,,,,,,,,,,,,,,,,,,,,,,,,,,,,,,,,,,,,,,,,,,66,148651,20,Female,1,2024/02/19_14:13:30,YZ,None,
,,,,,,calibration,0,8,2,583,3,J,1,left,0.4015616019896697,1,0,,,,,,,,,,,,,,,,,,,,,1,,,,,,,,,,,,,,,,,,,,,,,,,,,,,,,,,,,,,,,,,,,,,,66,148651,20,Female,1,2024/02/19_14:13:30,YZ,None,
,,,,,,calibration,0,8,2,583,4,N,0,right,0.31555859599029645,1,0,,,,,,,,,,,,,,,,,,,,,1,,,,,,,,,,,,,,,,,,,,,,,,,,,,,,,,,,,,,,,,,,,,,,66,148651,20,Female,1,2024/02/19_14:13:30,YZ,None,
,,,,,,calibration,0,8,2,583,5,J,1,left,0.3375912320043426,1,0,,,,,,,,,,,,,,,,,,,,,1,,,,,,,,,,,,,,,,,,,,,,,,,,,,,,,,,,,,,,,,,,,,,,66,148651,20,Female,1,2024/02/19_14:13:30,YZ,None,
,,,,,,calibration,0,8,2,583,6,C,0,right,0.35653392600943334,1,0,,,,,,,,,,,,,,,,,,,,,1,,,,,,,,,,,,,,,,,,,,,,,,,,,,,,,,,,,,,,,,,,,,,,66,148651,20,Female,1,2024/02/19_14:13:30,YZ,None,
,,,,,,calibration,0,8,2,583,7,X,0,right,0.3077129879966378,1,0,,,,,,,,,,,,,,,,,,,,,1,,,,,,,,,,,,,,,,,,,,,,,,,,,,,,,,,,,,,,,,,,,,,,66,148651,20,Female,1,2024/02/19_14:13:30,YZ,None,
,,,,,,calibration,0,8,2,583,8,V,0,right,0.3375912490009796,1,0,,,,,,,,,,,,,,,,,,,,,1,,,,,,,,,,,,,,,,,,,,,,,,,,,,,,,,,,,,,,,,,,,,,,66,148651,20,Female,1,2024/02/19_14:13:30,YZ,None,
,,,,,,calibration,0,8,2,583,9,N,0,right,0.3439405910030473,1,0,,,,,,,,,,,,,,,,,,,,,1,,,,,,,,,,,,,,,,,,,,,,,,,,,,,,,,,,,,,,,,,,,,,,66,148651,20,Female,1,2024/02/19_14:13:30,YZ,None,
,,,,,,calibration,0,8,2,583,10,J,0,right,0.5491365050256718,1,0,,,,,,,,,,,,,,,,,,,,,1,,,,,,,,,,,,,,,,,,,,,,,,,,,,,,,,,,,,,,,,,,,,,,66,148651,20,Female,1,2024/02/19_14:13:30,YZ,None,
,,,,,,calibration,0,8,2,583,11,N,1,right,0.2527275700122118,0,0,,,,,,,,,,,,,,,,,,,,,1,,,,,,,,,,,,,,,,,,,,,,,,,,,,,,,,,,,,,,,,,,,,,,66,148651,20,Female,1,2024/02/19_14:13:30,YZ,None,
,,,,,,calibration,0,8,2,583,12,J,1,left,0.512333832011791,1,0,,,,,,,,,,,,,,,,,,,,,1,,,,,,,,,,,,,,,,,,,,,,,,,,,,,,,,,,,,,,,,,,,,,,66,148651,20,Female,1,2024/02/19_14:13:30,YZ,None,
,,,,,,calibration,0,8,2,583,13,C,0,right,0.22013745200820267,1,0,,,,,,,,,,,,,,,,,,,,,1,,,,,,,,,,,,,,,,,,,,,,,,,,,,,,,,,,,,,,,,,,,,,,66,148651,20,Female,1,2024/02/19_14:13:30,YZ,None,
,,,,,,calibration,0,8,2,583,14,F,0,right,0.3516587110061664,1,0,,,,,,,,,,,,,,,,,,,,,1,,,,,,,,,,,,,,,,,,,,,,,,,,,,,,,,,,,,,,,,,,,,,,66,148651,20,Female,1,2024/02/19_14:13:30,YZ,None,
,,,,,,calibration,0,8,2,583,15,Q,0,right,0.601792244007811,1,0,,,,,,,,,,,,,,,,,,,,,1,,,,,,,,,,,,,,,,,,,,,,,,,,,,,,,,,,,,,,,,,,,,,,66,148651,20,Female,1,2024/02/19_14:13:30,YZ,None,
,,,,,,calibration,0,8,2,583,,,,,,,,0.9375,0.75,0.0,1.0,0.0,1.0,0.39047043333994225,3,0,0,0,0,11,14,4,11,0,,,,1,,,,,,,,,,,,,,,,,,,,,,,,,,,,,,,,,,,,,,,,,,,,,,66,148651,20,Female,1,2024/02/19_14:13:30,YZ,None,
,,,,,,Calibration,0,,2,583,,,,,,,,,,,,,,,,,,,,,,,,,1,,,1,,,,,,,,,,,,,,,,,,,,,,,,,,,,,,,,,,,,,,,,,,,,,,66,148651,20,Female,1,2024/02/19_14:13:30,YZ,None,
,,,,,,calibration,0,36,2,500,1,N,0,right,0.6337260650179815,1,0,,,,,,,,,,,,,,,,,,,,,1,,,,,,,,,,,,,,,,,,,,,,,,,,,,,,,,,,,,,,,,,,,,,,66,148651,20,Female,1,2024/02/19_14:13:30,YZ,None,
,,,,,,calibration,0,36,2,500,2,V,0,right,0.3878833139897324,1,0,,,,,,,,,,,,,,,,,,,,,1,,,,,,,,,,,,,,,,,,,,,,,,,,,,,,,,,,,,,,,,,,,,,,66,148651,20,Female,1,2024/02/19_14:13:30,YZ,None,
,,,,,,calibration,0,36,2,500,3,N,1,left,0.5426506999938283,1,0,,,,,,,,,,,,,,,,,,,,,1,,,,,,,,,,,,,,,,,,,,,,,,,,,,,,,,,,,,,,,,,,,,,,66,148651,20,Female,1,2024/02/19_14:13:30,YZ,None,
,,,,,,calibration,0,36,2,500,4,F,0,right,0.2522630489838775,1,0,,,,,,,,,,,,,,,,,,,,,1,,,,,,,,,,,,,,,,,,,,,,,,,,,,,,,,,,,,,,,,,,,,,,66,148651,20,Female,1,2024/02/19_14:13:30,YZ,None,
,,,,,,calibration,0,36,2,500,5,J,0,right,0.5588925239862874,1,0,,,,,,,,,,,,,,,,,,,,,1,,,,,,,,,,,,,,,,,,,,,,,,,,,,,,,,,,,,,,,,,,,,,,66,148651,20,Female,1,2024/02/19_14:13:30,YZ,None,
,,,,,,calibration,0,36,2,500,6,F,1,left,0.525805709999986,1,0,,,,,,,,,,,,,,,,,,,,,1,,,,,,,,,,,,,,,,,,,,,,,,,,,,,,,,,,,,,,,,,,,,,,66,148651,20,Female,1,2024/02/19_14:13:30,YZ,None,
,,,,,,calibration,0,36,2,500,7,J,1,right,0.22875601198757067,0,0,,,,,,,,,,,,,,,,,,,,,1,,,,,,,,,,,,,,,,,,,,,,,,,,,,,,,,,,,,,,,,,,,,,,66,148651,20,Female,1,2024/02/19_14:13:30,YZ,None,
,,,,,,calibration,0,36,2,500,8,N,0,left,0.5576351790223271,0,0,,,,,,,,,,,,,,,,,,,,,1,,,,,,,,,,,,,,,,,,,,,,,,,,,,,,,,,,,,,,,,,,,,,,66,148651,20,Female,1,2024/02/19_14:13:30,YZ,None,
,,,,,,calibration,0,36,2,500,9,J,1,right,0.4260184949962422,0,0,,,,,,,,,,,,,,,,,,,,,1,,,,,,,,,,,,,,,,,,,,,,,,,,,,,,,,,,,,,,,,,,,,,,66,148651,20,Female,1,2024/02/19_14:13:30,YZ,None,
,,,,,,calibration,0,36,2,500,10,F,0,right,0.3280657510040328,1,0,,,,,,,,,,,,,,,,,,,,,1,,,,,,,,,,,,,,,,,,,,,,,,,,,,,,,,,,,,,,,,,,,,,,66,148651,20,Female,1,2024/02/19_14:13:30,YZ,None,
,,,,,,calibration,0,36,2,500,11,Q,0,right,0.40041803402709775,1,0,,,,,,,,,,,,,,,,,,,,,1,,,,,,,,,,,,,,,,,,,,,,,,,,,,,,,,,,,,,,,,,,,,,,66,148651,20,Female,1,2024/02/19_14:13:30,YZ,None,
,,,,,,calibration,0,36,2,500,12,X,0,right,0.39318176300730556,1,0,,,,,,,,,,,,,,,,,,,,,1,,,,,,,,,,,,,,,,,,,,,,,,,,,,,,,,,,,,,,,,,,,,,,66,148651,20,Female,1,2024/02/19_14:13:30,YZ,None,
,,,,,,calibration,0,36,2,500,13,J,0,right,0.43941765298950486,1,0,,,,,,,,,,,,,,,,,,,,,1,,,,,,,,,,,,,,,,,,,,,,,,,,,,,,,,,,,,,,,,,,,,,,66,148651,20,Female,1,2024/02/19_14:13:30,YZ,None,
,,,,,,calibration,0,36,2,500,14,F,0,left,0.5460451870167162,0,0,,,,,,,,,,,,,,,,,,,,,1,,,,,,,,,,,,,,,,,,,,,,,,,,,,,,,,,,,,,,,,,,,,,,66,148651,20,Female,1,2024/02/19_14:13:30,YZ,None,
,,,,,,calibration,0,36,2,500,15,S,0,right,0.20840058199246414,1,0,,,,,,,,,,,,,,,,,,,,,1,,,,,,,,,,,,,,,,,,,,,,,,,,,,,,,,,,,,,,,,,,,,,,66,148651,20,Female,1,2024/02/19_14:13:30,YZ,None,
,,,,,,calibration,0,36,2,500,16,X,0,right,0.4335257909842767,1,0,,,,,,,,,,,,,,,,,,,,,1,,,,,,,,,,,,,,,,,,,,,,,,,,,,,,,,,,,,,,,,,,,,,,66,148651,20,Female,1,2024/02/19_14:13:30,YZ,None,
,,,,,,calibration,0,36,2,500,,,,,,,,0.75,0.5,0.16666666666666666,0.8333333333333334,0.0,0.8333333333333334,0.42891786306245194,2,2,0,0,0,10,12,4,12,0,,,,1,,,,,,,,,,,,,,,,,,,,,,,,,,,,,,,,,,,,,,,,,,,,,,66,148651,20,Female,1,2024/02/19_14:13:30,YZ,None,
,,,,,,Calibration,0,,2,500,,,,,,,,,,,,,,,,,,,,,,,,,2,,,1,,,,,,,,,,,,,,,,,,,,,,,,,,,,,,,,,,,,,,,,,,,,,,66,148651,20,Female,1,2024/02/19_14:13:30,YZ,None,
,,,,,,calibration,0,13,2,500,1,F,0,right,0.36888663499848917,1,0,,,,,,,,,,,,,,,,,,,,,1,,,,,,,,,,,,,,,,,,,,,,,,,,,,,,,,,,,,,,,,,,,,,,66,148651,20,Female,1,2024/02/19_14:13:30,YZ,None,
,,,,,,calibration,0,13,2,500,2,F,0,right,0.41644787197583355,1,0,,,,,,,,,,,,,,,,,,,,,1,,,,,,,,,,,,,,,,,,,,,,,,,,,,,,,,,,,,,,,,,,,,,,66,148651,20,Female,1,2024/02/19_14:13:30,YZ,None,
,,,,,,calibration,0,13,2,500,3,F,1,left,0.4419494780013338,1,0,,,,,,,,,,,,,,,,,,,,,1,,,,,,,,,,,,,,,,,,,,,,,,,,,,,,,,,,,,,,,,,,,,,,66,148651,20,Female,1,2024/02/19_14:13:30,YZ,None,
,,,,,,calibration,0,13,2,500,4,F,1,left,0.3781225199927576,1,0,,,,,,,,,,,,,,,,,,,,,1,,,,,,,,,,,,,,,,,,,,,,,,,,,,,,,,,,,,,,,,,,,,,,66,148651,20,Female,1,2024/02/19_14:13:30,YZ,None,
,,,,,,calibration,0,13,2,500,5,Q,0,right,0.4199718949967064,1,0,,,,,,,,,,,,,,,,,,,,,1,,,,,,,,,,,,,,,,,,,,,,,,,,,,,,,,,,,,,,,,,,,,,,66,148651,20,Female,1,2024/02/19_14:13:30,YZ,None,
,,,,,,calibration,0,13,2,500,6,F,1,left,0.3127120429999195,1,0,,,,,,,,,,,,,,,,,,,,,1,,,,,,,,,,,,,,,,,,,,,,,,,,,,,,,,,,,,,,,,,,,,,,66,148651,20,Female,1,2024/02/19_14:13:30,YZ,None,
,,,,,,calibration,0,13,2,500,7,Q,1,right,0.34023294897633605,0,0,,,,,,,,,,,,,,,,,,,,,1,,,,,,,,,,,,,,,,,,,,,,,,,,,,,,,,,,,,,,,,,,,,,,66,148651,20,Female,1,2024/02/19_14:13:30,YZ,None,
,,,,,,calibration,0,13,2,500,8,V,0,right,0.5240130940219387,1,0,,,,,,,,,,,,,,,,,,,,,1,,,,,,,,,,,,,,,,,,,,,,,,,,,,,,,,,,,,,,,,,,,,,,66,148651,20,Female,1,2024/02/19_14:13:30,YZ,None,
,,,,,,calibration,0,13,2,500,9,C,0,right,0.3402400100021623,1,0,,,,,,,,,,,,,,,,,,,,,1,,,,,,,,,,,,,,,,,,,,,,,,,,,,,,,,,,,,,,,,,,,,,,66,148651,20,Female,1,2024/02/19_14:13:30,YZ,None,
,,,,,,calibration,0,13,2,500,10,F,0,left,0.5122904859890696,0,0,,,,,,,,,,,,,,,,,,,,,1,,,,,,,,,,,,,,,,,,,,,,,,,,,,,,,,,,,,,,,,,,,,,,66,148651,20,Female,1,2024/02/19_14:13:30,YZ,None,
,,,,,,calibration,0,13,2,500,11,X,0,right,0.24124731801566668,1,0,,,,,,,,,,,,,,,,,,,,,1,,,,,,,,,,,,,,,,,,,,,,,,,,,,,,,,,,,,,,,,,,,,,,66,148651,20,Female,1,2024/02/19_14:13:30,YZ,None,
,,,,,,calibration,0,13,2,500,12,S,0,right,0.3537439059873577,1,0,,,,,,,,,,,,,,,,,,,,,1,,,,,,,,,,,,,,,,,,,,,,,,,,,,,,,,,,,,,,,,,,,,,,66,148651,20,Female,1,2024/02/19_14:13:30,YZ,None,
,,,,,,calibration,0,13,2,500,13,F,0,right,0.48752789400168695,1,0,,,,,,,,,,,,,,,,,,,,,1,,,,,,,,,,,,,,,,,,,,,,,,,,,,,,,,,,,,,,,,,,,,,,66,148651,20,Female,1,2024/02/19_14:13:30,YZ,None,
,,,,,,calibration,0,13,2,500,14,V,0,right,0.4639604229887482,1,0,,,,,,,,,,,,,,,,,,,,,1,,,,,,,,,,,,,,,,,,,,,,,,,,,,,,,,,,,,,,,,,,,,,,66,148651,20,Female,1,2024/02/19_14:13:30,YZ,None,
,,,,,,calibration,0,13,2,500,15,F,1,left,0.5979478560038842,1,0,,,,,,,,,,,,,,,,,,,,,1,,,,,,,,,,,,,,,,,,,,,,,,,,,,,,,,,,,,,,,,,,,,,,66,148651,20,Female,1,2024/02/19_14:13:30,YZ,None,
,,,,,,calibration,0,13,2,500,16,S,0,right,0.3184332519886084,1,0,,,,,,,,,,,,,,,,,,,,,1,,,,,,,,,,,,,,,,,,,,,,,,,,,,,,,,,,,,,,,,,,,,,,66,148651,20,Female,1,2024/02/19_14:13:30,YZ,None,
,,,,,,calibration,0,13,2,500,,,,,,,,0.9090909090909091,0.8,0.09090909090909091,0.9090909090909091,0.0,0.9090909090909091,0.4073579769337812,4,1,0,0,0,10,14,5,11,0,,,,1,,,,,,,,,,,,,,,,,,,,,,,,,,,,,,,,,,,,,,,,,,,,,,66,148651,20,Female,1,2024/02/19_14:13:30,YZ,None,
,,,,,,Calibration,0,,2,500,,,,,,,,,,,,,,,,,,,,,,,,,3,,,1,,,,,,,,,,,,,,,,,,,,,,,,,,,,,,,,,,,,,,,,,,,,,,66,148651,20,Female,1,2024/02/19_14:13:30,YZ,None,
,,,,,,calibration,0,15,2,426,1,N,0,right,0.43233282398432493,1,0,,,,,,,,,,,,,,,,,,,,,1,,,,,,,,,,,,,,,,,,,,,,,,,,,,,,,,,,,,,,,,,,,,,,66,148651,20,Female,1,2024/02/19_14:13:30,YZ,None,
,,,,,,calibration,0,15,2,426,2,S,0,right,0.37568115899921395,1,0,,,,,,,,,,,,,,,,,,,,,1,,,,,,,,,,,,,,,,,,,,,,,,,,,,,,,,,,,,,,,,,,,,,,66,148651,20,Female,1,2024/02/19_14:13:30,YZ,None,
,,,,,,calibration,0,15,2,426,3,X,0,right,0.5822290900105145,1,0,,,,,,,,,,,,,,,,,,,,,1,,,,,,,,,,,,,,,,,,,,,,,,,,,,,,,,,,,,,,,,,,,,,,66,148651,20,Female,1,2024/02/19_14:13:30,YZ,None,
,,,,,,calibration,0,15,2,426,4,V,0,right,0.40318587399087846,1,0,,,,,,,,,,,,,,,,,,,,,1,,,,,,,,,,,,,,,,,,,,,,,,,,,,,,,,,,,,,,,,,,,,,,66,148651,20,Female,1,2024/02/19_14:13:30,YZ,None,
,,,,,,calibration,0,15,2,426,5,X,1,left,0.4955248399928678,1,0,,,,,,,,,,,,,,,,,,,,,1,,,,,,,,,,,,,,,,,,,,,,,,,,,,,,,,,,,,,,,,,,,,,,66,148651,20,Female,1,2024/02/19_14:13:30,YZ,None,
,,,,,,calibration,0,15,2,426,6,V,1,right,0.3882391740044113,0,0,,,,,,,,,,,,,,,,,,,,,1,,,,,,,,,,,,,,,,,,,,,,,,,,,,,,,,,,,,,,,,,,,,,,66,148651,20,Female,1,2024/02/19_14:13:30,YZ,None,
,,,,,,calibration,0,15,2,426,7,S,0,right,0.38435104899690486,1,0,,,,,,,,,,,,,,,,,,,,,1,,,,,,,,,,,,,,,,,,,,,,,,,,,,,,,,,,,,,,,,,,,,,,66,148651,20,Female,1,2024/02/19_14:13:30,YZ,None,
,,,,,,calibration,0,15,2,426,8,N,0,right,0.5103804900136311,1,0,,,,,,,,,,,,,,,,,,,,,1,,,,,,,,,,,,,,,,,,,,,,,,,,,,,,,,,,,,,,,,,,,,,,66,148651,20,Female,1,2024/02/19_14:13:30,YZ,None,
,,,,,,calibration,0,15,2,426,9,V,0,right,0.45732374099316075,1,0,,,,,,,,,,,,,,,,,,,,,1,,,,,,,,,,,,,,,,,,,,,,,,,,,,,,,,,,,,,,,,,,,,,,66,148651,20,Female,1,2024/02/19_14:13:30,YZ,None,
,,,,,,calibration,0,15,2,426,10,C,0,right,0.5661176970170345,1,0,,,,,,,,,,,,,,,,,,,,,1,,,,,,,,,,,,,,,,,,,,,,,,,,,,,,,,,,,,,,,,,,,,,,66,148651,20,Female,1,2024/02/19_14:13:30,YZ,None,
,,,,,,calibration,0,15,2,426,11,V,1,left,0.44265215800260194,1,0,,,,,,,,,,,,,,,,,,,,,1,,,,,,,,,,,,,,,,,,,,,,,,,,,,,,,,,,,,,,,,,,,,,,66,148651,20,Female,1,2024/02/19_14:13:30,YZ,None,
,,,,,,calibration,0,15,2,426,12,N,0,right,0.47623777500120923,1,0,,,,,,,,,,,,,,,,,,,,,1,,,,,,,,,,,,,,,,,,,,,,,,,,,,,,,,,,,,,,,,,,,,,,66,148651,20,Female,1,2024/02/19_14:13:30,YZ,None,
,,,,,,calibration,0,15,2,426,13,V,1,right,0.4261736410262529,0,0,,,,,,,,,,,,,,,,,,,,,1,,,,,,,,,,,,,,,,,,,,,,,,,,,,,,,,,,,,,,,,,,,,,,66,148651,20,Female,1,2024/02/19_14:13:30,YZ,None,
,,,,,,calibration,0,15,2,426,14,F,0,right,0.35638307899353094,1,0,,,,,,,,,,,,,,,,,,,,,1,,,,,,,,,,,,,,,,,,,,,,,,,,,,,,,,,,,,,,,,,,,,,,66,148651,20,Female,1,2024/02/19_14:13:30,YZ,None,
,,,,,,calibration,0,15,2,426,15,V,1,left,0.36820396399707533,1,0,,,,,,,,,,,,,,,,,,,,,1,,,,,,,,,,,,,,,,,,,,,,,,,,,,,,,,,,,,,,,,,,,,,,66,148651,20,Female,1,2024/02/19_14:13:30,YZ,None,
,,,,,,calibration,0,15,2,426,16,C,0,right,0.47110825197887607,1,0,,,,,,,,,,,,,,,,,,,,,1,,,,,,,,,,,,,,,,,,,,,,,,,,,,,,,,,,,,,,,,,,,,,,66,148651,20,Female,1,2024/02/19_14:13:30,YZ,None,
,,,,,,calibration,0,15,2,426,17,Q,0,right,0.439997369016055,1,0,,,,,,,,,,,,,,,,,,,,,1,,,,,,,,,,,,,,,,,,,,,,,,,,,,,,,,,,,,,,,,,,,,,,66,148651,20,Female,1,2024/02/19_14:13:30,YZ,None,
,,,,,,calibration,0,15,2,426,,,,,,,,0.9,0.6,0.0,1.0,0.0,1.0,0.4456542456481496,3,0,0,0,0,12,15,5,12,0,,,,1,,,,,,,,,,,,,,,,,,,,,,,,,,,,,,,,,,,,,,,,,,,,,,66,148651,20,Female,1,2024/02/19_14:13:30,YZ,None,
,,,,,,Calibration,0,,2,426,,,,,,,,,,,,,,,,,,,,,,,,,4,,,1,,,,,,,,,,,,,,,,,,,,,,,,,,,,,,,,,,,,,,,,,,,,,,66,148651,20,Female,1,2024/02/19_14:13:30,YZ,None,
,,,,,,calibration,0,23,2,361,1,Q,0,right,0.3865785489906557,1,0,,,,,,,,,,,,,,,,,,,,,1,,,,,,,,,,,,,,,,,,,,,,,,,,,,,,,,,,,,,,,,,,,,,,66,148651,20,Female,1,2024/02/19_14:13:30,YZ,None,
,,,,,,calibration,0,23,2,361,2,V,0,right,0.28057801999966614,1,0,,,,,,,,,,,,,,,,,,,,,1,,,,,,,,,,,,,,,,,,,,,,,,,,,,,,,,,,,,,,,,,,,,,,66,148651,20,Female,1,2024/02/19_14:13:30,YZ,None,
,,,,,,calibration,0,23,2,361,3,F,0,right,0.4121842470194679,1,0,,,,,,,,,,,,,,,,,,,,,1,,,,,,,,,,,,,,,,,,,,,,,,,,,,,,,,,,,,,,,,,,,,,,66,148651,20,Female,1,2024/02/19_14:13:30,YZ,None,
,,,,,,calibration,0,23,2,361,4,N,0,right,0.36892249798984267,1,0,,,,,,,,,,,,,,,,,,,,,1,,,,,,,,,,,,,,,,,,,,,,,,,,,,,,,,,,,,,,,,,,,,,,66,148651,20,Female,1,2024/02/19_14:13:30,YZ,None,
,,,,,,calibration,0,23,2,361,5,X,0,right,0.3805910589871928,1,0,,,,,,,,,,,,,,,,,,,,,1,,,,,,,,,,,,,,,,,,,,,,,,,,,,,,,,,,,,,,,,,,,,,,66,148651,20,Female,1,2024/02/19_14:13:30,YZ,None,
,,,,,,calibration,0,23,2,361,6,N,1,left,0.5267316999961622,1,0,,,,,,,,,,,,,,,,,,,,,1,,,,,,,,,,,,,,,,,,,,,,,,,,,,,,,,,,,,,,,,,,,,,,66,148651,20,Female,1,2024/02/19_14:13:30,YZ,None,
,,,,,,calibration,0,23,2,361,7,S,0,right,0.2836727640242316,1,0,,,,,,,,,,,,,,,,,,,,,1,,,,,,,,,,,,,,,,,,,,,,,,,,,,,,,,,,,,,,,,,,,,,,66,148651,20,Female,1,2024/02/19_14:13:30,YZ,None,
,,,,,,calibration,0,23,2,361,8,X,0,right,0.4157474560197443,1,0,,,,,,,,,,,,,,,,,,,,,1,,,,,,,,,,,,,,,,,,,,,,,,,,,,,,,,,,,,,,,,,,,,,,66,148651,20,Female,1,2024/02/19_14:13:30,YZ,None,
,,,,,,calibration,0,23,2,361,9,S,1,right,0.38820843800203875,0,0,,,,,,,,,,,,,,,,,,,,,1,,,,,,,,,,,,,,,,,,,,,,,,,,,,,,,,,,,,,,,,,,,,,,66,148651,20,Female,1,2024/02/19_14:13:30,YZ,None,
,,,,,,calibration,0,23,2,361,10,X,1,right,0.5104709939914756,0,0,,,,,,,,,,,,,,,,,,,,,1,,,,,,,,,,,,,,,,,,,,,,,,,,,,,,,,,,,,,,,,,,,,,,66,148651,20,Female,1,2024/02/19_14:13:30,YZ,None,
,,,,,,calibration,0,23,2,361,11,N,0,right,0.4803112700174097,1,0,,,,,,,,,,,,,,,,,,,,,1,,,,,,,,,,,,,,,,,,,,,,,,,,,,,,,,,,,,,,,,,,,,,,66,148651,20,Female,1,2024/02/19_14:13:30,YZ,None,
,,,,,,calibration,0,23,2,361,12,X,1,right,0.38034299298305996,0,0,,,,,,,,,,,,,,,,,,,,,1,,,,,,,,,,,,,,,,,,,,,,,,,,,,,,,,,,,,,,,,,,,,,,66,148651,20,Female,1,2024/02/19_14:13:30,YZ,None,
,,,,,,calibration,0,23,2,361,13,J,0,right,0.39416783399065025,1,0,,,,,,,,,,,,,,,,,,,,,1,,,,,,,,,,,,,,,,,,,,,,,,,,,,,,,,,,,,,,,,,,,,,,66,148651,20,Female,1,2024/02/19_14:13:30,YZ,None,
,,,,,,calibration,0,23,2,361,14,N,0,right,0.7399986069940496,1,0,,,,,,,,,,,,,,,,,,,,,1,,,,,,,,,,,,,,,,,,,,,,,,,,,,,,,,,,,,,,,,,,,,,,66,148651,20,Female,1,2024/02/19_14:13:30,YZ,None,
,,,,,,calibration,0,23,2,361,15,J,1,right,0.40601315698586404,0,0,,,,,,,,,,,,,,,,,,,,,1,,,,,,,,,,,,,,,,,,,,,,,,,,,,,,,,,,,,,,,,,,,,,,66,148651,20,Female,1,2024/02/19_14:13:30,YZ,None,
,,,,,,calibration,0,23,2,361,16,X,0,right,0.4162853790039662,1,0,,,,,,,,,,,,,,,,,,,,,1,,,,,,,,,,,,,,,,,,,,,,,,,,,,,,,,,,,,,,,,,,,,,,66,148651,20,Female,1,2024/02/19_14:13:30,YZ,None,
,,,,,,calibration,0,23,2,361,17,S,0,right,0.4403487289964687,1,0,,,,,,,,,,,,,,,,,,,,,1,,,,,,,,,,,,,,,,,,,,,,,,,,,,,,,,,,,,,,,,,,,,,,66,148651,20,Female,1,2024/02/19_14:13:30,YZ,None,
,,,,,,calibration,0,23,2,361,18,X,1,right,0.4108908240159508,0,0,,,,,,,,,,,,,,,,,,,,,1,,,,,,,,,,,,,,,,,,,,,,,,,,,,,,,,,,,,,,,,,,,,,,66,148651,20,Female,1,2024/02/19_14:13:30,YZ,None,
,,,,,,calibration,0,23,2,361,,,,,,,,0.7916666666666666,0.16666666666666666,0.0,1.0,0.0,1.0,0.4234469176671054,1,0,0,0,0,12,13,6,12,0,,,,1,,,,,,,,,,,,,,,,,,,,,,,,,,,,,,,,,,,,,,,,,,,,,,66,148651,20,Female,1,2024/02/19_14:13:30,YZ,None,
,,,,,,Calibration,0,,2,361,,,,,,,,,,,,,,,,,,,,,,,,,5,,,1,,,,,,,,,,,,,,,,,,,,,,,,,,,,,,,,,,,,,,,,,,,,,,66,148651,20,Female,1,2024/02/19_14:13:30,YZ,None,
,,,,,,calibration,0,8,2,361,1,F,0,right,0.4342856789880898,1,0,,,,,,,,,,,,,,,,,,,,,1,,,,,,,,,,,,,,,,,,,,,,,,,,,,,,,,,,,,,,,,,,,,,,66,148651,20,Female,1,2024/02/19_14:13:30,YZ,None,
,,,,,,calibration,0,8,2,361,2,N,0,right,0.5260856820095796,1,0,,,,,,,,,,,,,,,,,,,,,1,,,,,,,,,,,,,,,,,,,,,,,,,,,,,,,,,,,,,,,,,,,,,,66,148651,20,Female,1,2024/02/19_14:13:30,YZ,None,
,,,,,,calibration,0,8,2,361,3,X,0,right,0.4297072800109163,1,0,,,,,,,,,,,,,,,,,,,,,1,,,,,,,,,,,,,,,,,,,,,,,,,,,,,,,,,,,,,,,,,,,,,,66,148651,20,Female,1,2024/02/19_14:13:30,YZ,None,
,,,,,,calibration,0,8,2,361,4,F,0,left,0.47158565899007954,0,0,,,,,,,,,,,,,,,,,,,,,1,,,,,,,,,,,,,,,,,,,,,,,,,,,,,,,,,,,,,,,,,,,,,,66,148651,20,Female,1,2024/02/19_14:13:30,YZ,None,
,,,,,,calibration,0,8,2,361,5,J,0,right,0.4230010870087426,1,0,,,,,,,,,,,,,,,,,,,,,1,,,,,,,,,,,,,,,,,,,,,,,,,,,,,,,,,,,,,,,,,,,,,,66,148651,20,Female,1,2024/02/19_14:13:30,YZ,None,
,,,,,,calibration,0,8,2,361,6,F,1,left,0.5125097529962659,1,0,,,,,,,,,,,,,,,,,,,,,1,,,,,,,,,,,,,,,,,,,,,,,,,,,,,,,,,,,,,,,,,,,,,,66,148651,20,Female,1,2024/02/19_14:13:30,YZ,None,
,,,,,,calibration,0,8,2,361,7,Q,0,right,0.33147811397793703,1,0,,,,,,,,,,,,,,,,,,,,,1,,,,,,,,,,,,,,,,,,,,,,,,,,,,,,,,,,,,,,,,,,,,,,66,148651,20,Female,1,2024/02/19_14:13:30,YZ,None,
,,,,,,calibration,0,8,2,361,8,V,0,right,0.44223039798089303,1,0,,,,,,,,,,,,,,,,,,,,,1,,,,,,,,,,,,,,,,,,,,,,,,,,,,,,,,,,,,,,,,,,,,,,66,148651,20,Female,1,2024/02/19_14:13:30,YZ,None,
,,,,,,calibration,0,8,2,361,9,Q,1,left,0.40275881401612423,1,0,,,,,,,,,,,,,,,,,,,,,1,,,,,,,,,,,,,,,,,,,,,,,,,,,,,,,,,,,,,,,,,,,,,,66,148651,20,Female,1,2024/02/19_14:13:30,YZ,None,
,,,,,,calibration,0,8,2,361,10,V,1,left,0.5240053660236299,1,0,,,,,,,,,,,,,,,,,,,,,1,,,,,,,,,,,,,,,,,,,,,,,,,,,,,,,,,,,,,,,,,,,,,,66,148651,20,Female,1,2024/02/19_14:13:30,YZ,None,
,,,,,,calibration,0,8,2,361,11,F,0,right,0.3539793429954443,1,0,,,,,,,,,,,,,,,,,,,,,1,,,,,,,,,,,,,,,,,,,,,,,,,,,,,,,,,,,,,,,,,,,,,,66,148651,20,Female,1,2024/02/19_14:13:30,YZ,None,
,,,,,,calibration,0,8,2,361,12,Q,0,right,0.47634721599752083,1,0,,,,,,,,,,,,,,,,,,,,,1,,,,,,,,,,,,,,,,,,,,,,,,,,,,,,,,,,,,,,,,,,,,,,66,148651,20,Female,1,2024/02/19_14:13:30,YZ,None,
,,,,,,calibration,0,8,2,361,13,S,0,right,0.4901473710197024,1,0,,,,,,,,,,,,,,,,,,,,,1,,,,,,,,,,,,,,,,,,,,,,,,,,,,,,,,,,,,,,,,,,,,,,66,148651,20,Female,1,2024/02/19_14:13:30,YZ,None,
,,,,,,calibration,0,8,2,361,14,Q,1,left,0.3371885360102169,1,0,,,,,,,,,,,,,,,,,,,,,1,,,,,,,,,,,,,,,,,,,,,,,,,,,,,,,,,,,,,,,,,,,,,,66,148651,20,Female,1,2024/02/19_14:13:30,YZ,None,
,,,,,,calibration,0,8,2,361,15,S,1,left,0.48749418699298985,1,0,,,,,,,,,,,,,,,,,,,,,1,,,,,,,,,,,,,,,,,,,,,,,,,,,,,,,,,,,,,,,,,,,,,,66,148651,20,Female,1,2024/02/19_14:13:30,YZ,None,
,,,,,,calibration,0,8,2,361,16,C,0,right,0.2960273060016334,1,0,,,,,,,,,,,,,,,,,,,,,1,,,,,,,,,,,,,,,,,,,,,,,,,,,,,,,,,,,,,,,,,,,,,,66,148651,20,Female,1,2024/02/19_14:13:30,YZ,None,
,,,,,,calibration,0,8,2,361,17,F,0,right,0.42850512999575585,1,0,,,,,,,,,,,,,,,,,,,,,1,,,,,,,,,,,,,,,,,,,,,,,,,,,,,,,,,,,,,,,,,,,,,,66,148651,20,Female,1,2024/02/19_14:13:30,YZ,None,
,,,,,,calibration,0,8,2,361,18,S,0,right,0.6741939400089905,1,0,,,,,,,,,,,,,,,,,,,,,1,,,,,,,,,,,,,,,,,,,,,,,,,,,,,,,,,,,,,,,,,,,,,,66,148651,20,Female,1,2024/02/19_14:13:30,YZ,None,
,,,,,,calibration,0,8,2,361,,,,,,,,0.9807692307692308,1.0,0.07692307692307693,0.9230769230769231,0.0,0.9230769230769231,0.44675171450136175,5,1,0,0,0,12,17,5,13,0,,,,1,,,,,,,,,,,,,,,,,,,,,,,,,,,,,,,,,,,,,,,,,,,,,,66,148651,20,Female,1,2024/02/19_14:13:30,YZ,None,
,,,,,,Calibration,0,,2,361,,,,,,,,,,,,,,,,,,,,,,,,,6,,,1,,,,,,,,,,,,,,,,,,,,,,,,,,,,,,,,,,,,,,,,,,,,,,66,148651,20,Female,1,2024/02/19_14:13:30,YZ,None,
,,,,,,calibration,0,28,2,303,1,S,0,right,0.5248471600061748,1,0,,,,,,,,,,,,,,,,,,,,,1,,,,,,,,,,,,,,,,,,,,,,,,,,,,,,,,,,,,,,,,,,,,,,66,148651,20,Female,1,2024/02/19_14:13:30,YZ,None,
,,,,,,calibration,0,28,2,303,2,F,0,right,0.21694873299566098,1,0,,,,,,,,,,,,,,,,,,,,,1,,,,,,,,,,,,,,,,,,,,,,,,,,,,,,,,,,,,,,,,,,,,,,66,148651,20,Female,1,2024/02/19_14:13:30,YZ,None,
,,,,,,calibration,0,28,2,303,3,C,0,right,0.399624612997286,1,0,,,,,,,,,,,,,,,,,,,,,1,,,,,,,,,,,,,,,,,,,,,,,,,,,,,,,,,,,,,,,,,,,,,,66,148651,20,Female,1,2024/02/19_14:13:30,YZ,None,
,,,,,,calibration,0,28,2,303,4,F,1,left,0.42011204300797544,1,0,,,,,,,,,,,,,,,,,,,,,1,,,,,,,,,,,,,,,,,,,,,,,,,,,,,,,,,,,,,,,,,,,,,,66,148651,20,Female,1,2024/02/19_14:13:30,YZ,None,
,,,,,,calibration,0,28,2,303,5,X,0,right,0.3288343629974406,1,0,,,,,,,,,,,,,,,,,,,,,1,,,,,,,,,,,,,,,,,,,,,,,,,,,,,,,,,,,,,,,,,,,,,,66,148651,20,Female,1,2024/02/19_14:13:30,YZ,None,
,,,,,,calibration,0,28,2,303,6,Q,0,right,0.4286050930095371,1,0,,,,,,,,,,,,,,,,,,,,,1,,,,,,,,,,,,,,,,,,,,,,,,,,,,,,,,,,,,,,,,,,,,,,66,148651,20,Female,1,2024/02/19_14:13:30,YZ,None,
,,,,,,calibration,0,28,2,303,7,X,1,left,0.492216799990274,1,0,,,,,,,,,,,,,,,,,,,,,1,,,,,,,,,,,,,,,,,,,,,,,,,,,,,,,,,,,,,,,,,,,,,,66,148651,20,Female,1,2024/02/19_14:13:30,YZ,None,
,,,,,,calibration,0,28,2,303,8,F,0,right,0.3080547989811748,1,0,,,,,,,,,,,,,,,,,,,,,1,,,,,,,,,,,,,,,,,,,,,,,,,,,,,,,,,,,,,,,,,,,,,,66,148651,20,Female,1,2024/02/19_14:13:30,YZ,None,
,,,,,,calibration,0,28,2,303,9,X,1,left,0.4986923490068875,1,0,,,,,,,,,,,,,,,,,,,,,1,,,,,,,,,,,,,,,,,,,,,,,,,,,,,,,,,,,,,,,,,,,,,,66,148651,20,Female,1,2024/02/19_14:13:30,YZ,None,
,,,,,,calibration,0,28,2,303,10,S,0,right,0.32070837897481397,1,0,,,,,,,,,,,,,,,,,,,,,1,,,,,,,,,,,,,,,,,,,,,,,,,,,,,,,,,,,,,,,,,,,,,,66,148651,20,Female,1,2024/02/19_14:13:30,YZ,None,
,,,,,,calibration,0,28,2,303,11,C,0,right,0.3484670370235108,1,0,,,,,,,,,,,,,,,,,,,,,1,,,,,,,,,,,,,,,,,,,,,,,,,,,,,,,,,,,,,,,,,,,,,,66,148651,20,Female,1,2024/02/19_14:13:30,YZ,None,
,,,,,,calibration,0,28,2,303,12,J,0,right,0.320581651001703,1,0,,,,,,,,,,,,,,,,,,,,,1,,,,,,,,,,,,,,,,,,,,,,,,,,,,,,,,,,,,,,,,,,,,,,66,148651,20,Female,1,2024/02/19_14:13:30,YZ,None,
,,,,,,calibration,0,28,2,303,13,Q,0,right,0.43438466198858805,1,0,,,,,,,,,,,,,,,,,,,,,1,,,,,,,,,,,,,,,,,,,,,,,,,,,,,,,,,,,,,,,,,,,,,,66,148651,20,Female,1,2024/02/19_14:13:30,YZ,None,
,,,,,,calibration,0,28,2,303,14,J,1,right,0.33698112799902447,0,0,,,,,,,,,,,,,,,,,,,,,1,,,,,,,,,,,,,,,,,,,,,,,,,,,,,,,,,,,,,,,,,,,,,,66,148651,20,Female,1,2024/02/19_14:13:30,YZ,None,
,,,,,,calibration,0,28,2,303,15,V,0,right,0.37548469100147486,1,0,,,,,,,,,,,,,,,,,,,,,1,,,,,,,,,,,,,,,,,,,,,,,,,,,,,,,,,,,,,,,,,,,,,,66,148651,20,Female,1,2024/02/19_14:13:30,YZ,None,
,,,,,,calibration,0,28,2,303,16,S,0,right,0.3773055889760144,1,0,,,,,,,,,,,,,,,,,,,,,1,,,,,,,,,,,,,,,,,,,,,,,,,,,,,,,,,,,,,,,,,,,,,,66,148651,20,Female,1,2024/02/19_14:13:30,YZ,None,
,,,,,,calibration,0,28,2,303,17,V,1,left,0.34035482598119415,1,0,,,,,,,,,,,,,,,,,,,,,1,,,,,,,,,,,,,,,,,,,,,,,,,,,,,,,,,,,,,,,,,,,,,,66,148651,20,Female,1,2024/02/19_14:13:30,YZ,None,
,,,,,,calibration,0,28,2,303,18,C,0,right,0.3372859989758581,1,0,,,,,,,,,,,,,,,,,,,,,1,,,,,,,,,,,,,,,,,,,,,,,,,,,,,,,,,,,,,,,,,,,,,,66,148651,20,Female,1,2024/02/19_14:13:30,YZ,None,
,,,,,,calibration,0,28,2,303,19,V,1,left,0.5250760650087614,1,0,,,,,,,,,,,,,,,,,,,,,1,,,,,,,,,,,,,,,,,,,,,,,,,,,,,,,,,,,,,,,,,,,,,,66,148651,20,Female,1,2024/02/19_14:13:30,YZ,None,
,,,,,,calibration,0,28,2,303,,,,,,,,0.9583333333333334,0.8333333333333334,0.0,1.0,0.0,1.0,0.3860297884170187,5,0,0,0,0,13,18,6,13,0,,,,1,,,,,,,,,,,,,,,,,,,,,,,,,,,,,,,,,,,,,,,,,,,,,,66,148651,20,Female,1,2024/02/19_14:13:30,YZ,None,
,,,,,,Calibration,0,,2,303,,,,,,,,,,,,,,,,,,,,,,,,,7,,,1,,,,,,,,,,,,,,,,,,,,,,,,,,,,,,,,,,,,,,,,,,,,,,66,148651,20,Female,1,2024/02/19_14:13:30,YZ,None,
,,,,,,calibration,0,23,2,250,1,X,0,right,0.27790589301730506,1,0,,,,,,,,,,,,,,,,,,,,,1,,,,,,,,,,,,,,,,,,,,,,,,,,,,,,,,,,,,,,,,,,,,,,66,148651,20,Female,1,2024/02/19_14:13:30,YZ,None,
,,,,,,calibration,0,23,2,250,2,N,0,right,0.3005552710092161,1,0,,,,,,,,,,,,,,,,,,,,,1,,,,,,,,,,,,,,,,,,,,,,,,,,,,,,,,,,,,,,,,,,,,,,66,148651,20,Female,1,2024/02/19_14:13:30,YZ,None,
,,,,,,calibration,0,23,2,250,3,X,1,left,0.3767298800230492,1,0,,,,,,,,,,,,,,,,,,,,,1,,,,,,,,,,,,,,,,,,,,,,,,,,,,,,,,,,,,,,,,,,,,,,66,148651,20,Female,1,2024/02/19_14:13:30,YZ,None,
,,,,,,calibration,0,23,2,250,4,F,0,right,0.5531163359992206,1,0,,,,,,,,,,,,,,,,,,,,,1,,,,,,,,,,,,,,,,,,,,,,,,,,,,,,,,,,,,,,,,,,,,,,66,148651,20,Female,1,2024/02/19_14:13:30,YZ,None,
,,,,,,calibration,0,23,2,250,5,V,0,right,0.49631307600066066,1,0,,,,,,,,,,,,,,,,,,,,,1,,,,,,,,,,,,,,,,,,,,,,,,,,,,,,,,,,,,,,,,,,,,,,66,148651,20,Female,1,2024/02/19_14:13:30,YZ,None,
,,,,,,calibration,0,23,2,250,6,N,0,right,0.34610385799896903,1,0,,,,,,,,,,,,,,,,,,,,,1,,,,,,,,,,,,,,,,,,,,,,,,,,,,,,,,,,,,,,,,,,,,,,66,148651,20,Female,1,2024/02/19_14:13:30,YZ,None,
,,,,,,calibration,0,23,2,250,7,S,0,right,0.3836644490074832,1,0,,,,,,,,,,,,,,,,,,,,,1,,,,,,,,,,,,,,,,,,,,,,,,,,,,,,,,,,,,,,,,,,,,,,66,148651,20,Female,1,2024/02/19_14:13:30,YZ,None,
,,,,,,calibration,0,23,2,250,8,J,0,right,0.30074283899739385,1,0,,,,,,,,,,,,,,,,,,,,,1,,,,,,,,,,,,,,,,,,,,,,,,,,,,,,,,,,,,,,,,,,,,,,66,148651,20,Female,1,2024/02/19_14:13:30,YZ,None,
,,,,,,calibration,0,23,2,250,9,X,0,right,0.3921358379884623,1,0,,,,,,,,,,,,,,,,,,,,,1,,,,,,,,,,,,,,,,,,,,,,,,,,,,,,,,,,,,,,,,,,,,,,66,148651,20,Female,1,2024/02/19_14:13:30,YZ,None,
,,,,,,calibration,0,23,2,250,10,S,0,right,0.3686431979876943,1,0,,,,,,,,,,,,,,,,,,,,,1,,,,,,,,,,,,,,,,,,,,,,,,,,,,,,,,,,,,,,,,,,,,,,66,148651,20,Female,1,2024/02/19_14:13:30,YZ,None,
,,,,,,calibration,0,23,2,250,11,X,1,right,nan,0,1,,,,,,,,,,,,,,,,,,,,,1,,,,,,,,,,,,,,,,,,,,,,,,,,,,,,,,,,,,,,,,,,,,,,66,148651,20,Female,1,2024/02/19_14:13:30,YZ,None,
,,,,,,calibration,0,23,2,250,12,C,0,right,0.29459301600581966,1,0,,,,,,,,,,,,,,,,,,,,,1,,,,,,,,,,,,,,,,,,,,,,,,,,,,,,,,,,,,,,,,,,,,,,66,148651,20,Female,1,2024/02/19_14:13:30,YZ,None,
,,,,,,calibration,0,23,2,250,13,X,1,right,0.35145013700821437,0,0,,,,,,,,,,,,,,,,,,,,,1,,,,,,,,,,,,,,,,,,,,,,,,,,,,,,,,,,,,,,,,,,,,,,66,148651,20,Female,1,2024/02/19_14:13:30,YZ,None,
,,,,,,calibration,0,23,2,250,14,C,1,left,0.33807772101135924,1,0,,,,,,,,,,,,,,,,,,,,,1,,,,,,,,,,,,,,,,,,,,,,,,,,,,,,,,,,,,,,,,,,,,,,66,148651,20,Female,1,2024/02/19_14:13:30,YZ,None,
,,,,,,calibration,0,23,2,250,15,N,0,right,0.3803235919913277,1,0,,,,,,,,,,,,,,,,,,,,,1,,,,,,,,,,,,,,,,,,,,,,,,,,,,,,,,,,,,,,,,,,,,,,66,148651,20,Female,1,2024/02/19_14:13:30,YZ,None,
,,,,,,calibration,0,23,2,250,16,C,1,left,0.33782731500105,1,0,,,,,,,,,,,,,,,,,,,,,1,,,,,,,,,,,,,,,,,,,,,,,,,,,,,,,,,,,,,,,,,,,,,,66,148651,20,Female,1,2024/02/19_14:13:30,YZ,None,
,,,,,,calibration,0,23,2,250,17,X,0,right,0.33994243398774415,1,0,,,,,,,,,,,,,,,,,,,,,1,,,,,,,,,,,,,,,,,,,,,,,,,,,,,,,,,,,,,,,,,,,,,,66,148651,20,Female,1,2024/02/19_14:13:30,YZ,None,
,,,,,,calibration,0,23,2,250,18,Q,0,right,0.4649787209928036,1,0,,,,,,,,,,,,,,,,,,,,,1,,,,,,,,,,,,,,,,,,,,,,,,,,,,,,,,,,,,,,,,,,,,,,66,148651,20,Female,1,2024/02/19_14:13:30,YZ,None,
,,,,,,calibration,0,23,2,250,19,N,0,right,0.649751107004704,1,0,,,,,,,,,,,,,,,,,,,,,1,,,,,,,,,,,,,,,,,,,,,,,,,,,,,,,,,,,,,,,,,,,,,,66,148651,20,Female,1,2024/02/19_14:13:30,YZ,None,
,,,,,,calibration,0,23,2,250,20,V,0,right,0.33268617899739183,1,0,,,,,,,,,,,,,,,,,,,,,1,,,,,,,,,,,,,,,,,,,,,,,,,,,,,,,,,,,,,,,,,,,,,,66,148651,20,Female,1,2024/02/19_14:13:30,YZ,None,
,,,,,,calibration,0,23,2,250,,,,,,,,0.9,0.6,0.0,1.0,0.05,0.95,0.38344951894894047,3,0,1,0,1,15,18,5,15,0,,,,1,,,,,,,,,,,,,,,,,,,,,,,,,,,,,,,,,,,,,,,,,,,,,,66,148651,20,Female,1,2024/02/19_14:13:30,YZ,None,
,,,,,,Calibration,0,,2,250,,,,,,,,,,,,,,,,,,,,,,,,,8,,,1,,,,,,,,,,,,,,,,,,,,,,,,,,,,,,,,,,,,,,,,,,,,,,66,148651,20,Female,1,2024/02/19_14:13:30,YZ,None,
,,,,,,calibration,0,17,2,202,1,Q,0,right,0.3737859819957521,1,0,,,,,,,,,,,,,,,,,,,,,1,,,,,,,,,,,,,,,,,,,,,,,,,,,,,,,,,,,,,,,,,,,,,,66,148651,20,Female,1,2024/02/19_14:13:30,YZ,None,
,,,,,,calibration,0,17,2,202,2,X,0,right,0.34444248501677066,1,0,,,,,,,,,,,,,,,,,,,,,1,,,,,,,,,,,,,,,,,,,,,,,,,,,,,,,,,,,,,,,,,,,,,,66,148651,20,Female,1,2024/02/19_14:13:30,YZ,None,
,,,,,,calibration,0,17,2,202,3,J,0,right,0.4079077380010858,1,0,,,,,,,,,,,,,,,,,,,,,1,,,,,,,,,,,,,,,,,,,,,,,,,,,,,,,,,,,,,,,,,,,,,,66,148651,20,Female,1,2024/02/19_14:13:30,YZ,None,
,,,,,,calibration,0,17,2,202,4,X,1,left,0.31269271799828857,1,0,,,,,,,,,,,,,,,,,,,,,1,,,,,,,,,,,,,,,,,,,,,,,,,,,,,,,,,,,,,,,,,,,,,,66,148651,20,Female,1,2024/02/19_14:13:30,YZ,None,
,,,,,,calibration,0,17,2,202,5,J,1,left,0.546184546983568,1,0,,,,,,,,,,,,,,,,,,,,,1,,,,,,,,,,,,,,,,,,,,,,,,,,,,,,,,,,,,,,,,,,,,,,66,148651,20,Female,1,2024/02/19_14:13:30,YZ,None,
,,,,,,calibration,0,17,2,202,6,S,0,right,0.3542578319902532,1,0,,,,,,,,,,,,,,,,,,,,,1,,,,,,,,,,,,,,,,,,,,,,,,,,,,,,,,,,,,,,,,,,,,,,66,148651,20,Female,1,2024/02/19_14:13:30,YZ,None,
,,,,,,calibration,0,17,2,202,7,J,1,left,0.29622604200267233,1,0,,,,,,,,,,,,,,,,,,,,,1,,,,,,,,,,,,,,,,,,,,,,,,,,,,,,,,,,,,,,,,,,,,,,66,148651,20,Female,1,2024/02/19_14:13:30,YZ,None,
,,,,,,calibration,0,17,2,202,8,N,0,right,0.35610151500441134,1,0,,,,,,,,,,,,,,,,,,,,,1,,,,,,,,,,,,,,,,,,,,,,,,,,,,,,,,,,,,,,,,,,,,,,66,148651,20,Female,1,2024/02/19_14:13:30,YZ,None,
,,,,,,calibration,0,17,2,202,9,F,0,right,0.39274626498809084,1,0,,,,,,,,,,,,,,,,,,,,,1,,,,,,,,,,,,,,,,,,,,,,,,,,,,,,,,,,,,,,,,,,,,,,66,148651,20,Female,1,2024/02/19_14:13:30,YZ,None,
,,,,,,calibration,0,17,2,202,10,V,0,right,0.4207431350077968,1,0,,,,,,,,,,,,,,,,,,,,,1,,,,,,,,,,,,,,,,,,,,,,,,,,,,,,,,,,,,,,,,,,,,,,66,148651,20,Female,1,2024/02/19_14:13:30,YZ,None,
,,,,,,calibration,0,17,2,202,11,J,0,right,0.4084142669744324,1,0,,,,,,,,,,,,,,,,,,,,,1,,,,,,,,,,,,,,,,,,,,,,,,,,,,,,,,,,,,,,,,,,,,,,66,148651,20,Female,1,2024/02/19_14:13:30,YZ,None,
,,,,,,calibration,0,17,2,202,12,V,1,right,0.39240174801670946,0,0,,,,,,,,,,,,,,,,,,,,,1,,,,,,,,,,,,,,,,,,,,,,,,,,,,,,,,,,,,,,,,,,,,,,66,148651,20,Female,1,2024/02/19_14:13:30,YZ,None,
,,,,,,calibration,0,17,2,202,13,J,1,right,0.3855450800037943,0,0,,,,,,,,,,,,,,,,,,,,,1,,,,,,,,,,,,,,,,,,,,,,,,,,,,,,,,,,,,,,,,,,,,,,66,148651,20,Female,1,2024/02/19_14:13:30,YZ,None,
,,,,,,calibration,0,17,2,202,14,F,0,right,0.5786082849954255,1,0,,,,,,,,,,,,,,,,,,,,,1,,,,,,,,,,,,,,,,,,,,,,,,,,,,,,,,,,,,,,,,,,,,,,66,148651,20,Female,1,2024/02/19_14:13:30,YZ,None,
,,,,,,calibration,0,17,2,202,15,V,0,left,0.5421606590098236,0,0,,,,,,,,,,,,,,,,,,,,,1,,,,,,,,,,,,,,,,,,,,,,,,,,,,,,,,,,,,,,,,,,,,,,66,148651,20,Female,1,2024/02/19_14:13:30,YZ,None,
,,,,,,calibration,0,17,2,202,16,N,0,right,0.5251622459909413,1,0,,,,,,,,,,,,,,,,,,,,,1,,,,,,,,,,,,,,,,,,,,,,,,,,,,,,,,,,,,,,,,,,,,,,66,148651,20,Female,1,2024/02/19_14:13:30,YZ,None,
,,,,,,calibration,0,17,2,202,17,C,0,right,0.2823115350038279,1,0,,,,,,,,,,,,,,,,,,,,,1,,,,,,,,,,,,,,,,,,,,,,,,,,,,,,,,,,,,,,,,,,,,,,66,148651,20,Female,1,2024/02/19_14:13:30,YZ,None,
,,,,,,calibration,0,17,2,202,18,Q,0,right,0.37680295199970715,1,0,,,,,,,,,,,,,,,,,,,,,1,,,,,,,,,,,,,,,,,,,,,,,,,,,,,,,,,,,,,,,,,,,,,,66,148651,20,Female,1,2024/02/19_14:13:30,YZ,None,
,,,,,,calibration,0,17,2,202,19,C,1,left,0.5411830429802649,1,0,,,,,,,,,,,,,,,,,,,,,1,,,,,,,,,,,,,,,,,,,,,,,,,,,,,,,,,,,,,,,,,,,,,,66,148651,20,Female,1,2024/02/19_14:13:30,YZ,None,
,,,,,,calibration,0,17,2,202,20,S,0,right,0.481579649989726,1,0,,,,,,,,,,,,,,,,,,,,,1,,,,,,,,,,,,,,,,,,,,,,,,,,,,,,,,,,,,,,,,,,,,,,66,148651,20,Female,1,2024/02/19_14:13:30,YZ,None,
,,,,,,calibration,0,17,2,202,21,X,0,right,0.4235541420057416,1,0,,,,,,,,,,,,,,,,,,,,,1,,,,,,,,,,,,,,,,,,,,,,,,,,,,,,,,,,,,,,,,,,,,,,66,148651,20,Female,1,2024/02/19_14:13:30,YZ,None,
,,,,,,calibration,0,17,2,202,,,,,,,,0.8777777777777778,0.6666666666666666,0.06666666666666667,0.9333333333333333,0.0,0.9333333333333333,0.4163243745694802,4,1,0,0,0,14,18,6,15,0,,,,1,,,,,,,,,,,,,,,,,,,,,,,,,,,,,,,,,,,,,,,,,,,,,,66,148651,20,Female,1,2024/02/19_14:13:30,YZ,None,
,,,,,,Calibration,0,,2,202,,,,,,,,,,,,,,,,,,,,,,,,,9,,,1,,,,,,,,,,,,,,,,,,,,,,,,,,,,,,,,,,,,,,,,,,,,,,66,148651,20,Female,1,2024/02/19_14:13:30,YZ,None,
,,,,,,calibration,0,6,2,159,1,X,0,right,0.41290541700436734,1,0,,,,,,,,,,,,,,,,,,,,,1,,,,,,,,,,,,,,,,,,,,,,,,,,,,,,,,,,,,,,,,,,,,,,66,148651,20,Female,1,2024/02/19_14:13:30,YZ,None,
,,,,,,calibration,0,6,2,159,2,X,0,right,0.4256617010105401,1,0,,,,,,,,,,,,,,,,,,,,,1,,,,,,,,,,,,,,,,,,,,,,,,,,,,,,,,,,,,,,,,,,,,,,66,148651,20,Female,1,2024/02/19_14:13:30,YZ,None,
,,,,,,calibration,0,6,2,159,3,S,0,right,0.468348424998112,1,0,,,,,,,,,,,,,,,,,,,,,1,,,,,,,,,,,,,,,,,,,,,,,,,,,,,,,,,,,,,,,,,,,,,,66,148651,20,Female,1,2024/02/19_14:13:30,YZ,None,
,,,,,,calibration,0,6,2,159,4,N,0,right,0.4237478270079009,1,0,,,,,,,,,,,,,,,,,,,,,1,,,,,,,,,,,,,,,,,,,,,,,,,,,,,,,,,,,,,,,,,,,,,,66,148651,20,Female,1,2024/02/19_14:13:30,YZ,None,
,,,,,,calibration,0,6,2,159,5,Q,0,right,0.4247165110136848,1,0,,,,,,,,,,,,,,,,,,,,,1,,,,,,,,,,,,,,,,,,,,,,,,,,,,,,,,,,,,,,,,,,,,,,66,148651,20,Female,1,2024/02/19_14:13:30,YZ,None,
,,,,,,calibration,0,6,2,159,6,V,0,right,0.3842288110172376,1,0,,,,,,,,,,,,,,,,,,,,,1,,,,,,,,,,,,,,,,,,,,,,,,,,,,,,,,,,,,,,,,,,,,,,66,148651,20,Female,1,2024/02/19_14:13:30,YZ,None,
,,,,,,calibration,0,6,2,159,7,F,0,right,0.4898894179787021,1,0,,,,,,,,,,,,,,,,,,,,,1,,,,,,,,,,,,,,,,,,,,,,,,,,,,,,,,,,,,,,,,,,,,,,66,148651,20,Female,1,2024/02/19_14:13:30,YZ,None,
,,,,,,calibration,0,6,2,159,8,C,0,right,0.5002222309994977,1,0,,,,,,,,,,,,,,,,,,,,,1,,,,,,,,,,,,,,,,,,,,,,,,,,,,,,,,,,,,,,,,,,,,,,66,148651,20,Female,1,2024/02/19_14:13:30,YZ,None,
,,,,,,calibration,0,6,2,159,9,F,1,left,0.5756112730014138,1,0,,,,,,,,,,,,,,,,,,,,,1,,,,,,,,,,,,,,,,,,,,,,,,,,,,,,,,,,,,,,,,,,,,,,66,148651,20,Female,1,2024/02/19_14:13:30,YZ,None,
,,,,,,calibration,0,6,2,159,10,Q,0,right,0.6233268140058499,1,0,,,,,,,,,,,,,,,,,,,,,1,,,,,,,,,,,,,,,,,,,,,,,,,,,,,,,,,,,,,,,,,,,,,,66,148651,20,Female,1,2024/02/19_14:13:30,YZ,None,
,,,,,,calibration,0,6,2,159,11,F,1,right,0.4982918709865771,0,0,,,,,,,,,,,,,,,,,,,,,1,,,,,,,,,,,,,,,,,,,,,,,,,,,,,,,,,,,,,,,,,,,,,,66,148651,20,Female,1,2024/02/19_14:13:30,YZ,None,
,,,,,,calibration,0,6,2,159,12,S,0,right,0.5248319479869679,1,0,,,,,,,,,,,,,,,,,,,,,1,,,,,,,,,,,,,,,,,,,,,,,,,,,,,,,,,,,,,,,,,,,,,,66,148651,20,Female,1,2024/02/19_14:13:30,YZ,None,
,,,,,,calibration,0,6,2,159,13,V,0,right,0.3862517479865346,1,0,,,,,,,,,,,,,,,,,,,,,1,,,,,,,,,,,,,,,,,,,,,,,,,,,,,,,,,,,,,,,,,,,,,,66,148651,20,Female,1,2024/02/19_14:13:30,YZ,None,
,,,,,,calibration,0,6,2,159,14,S,1,left,0.39168015198083594,1,0,,,,,,,,,,,,,,,,,,,,,1,,,,,,,,,,,,,,,,,,,,,,,,,,,,,,,,,,,,,,,,,,,,,,66,148651,20,Female,1,2024/02/19_14:13:30,YZ,None,
,,,,,,calibration,0,6,2,159,15,F,0,right,0.3937617070041597,1,0,,,,,,,,,,,,,,,,,,,,,1,,,,,,,,,,,,,,,,,,,,,,,,,,,,,,,,,,,,,,,,,,,,,,66,148651,20,Female,1,2024/02/19_14:13:30,YZ,None,
,,,,,,calibration,0,6,2,159,16,N,0,right,0.45254812701023184,1,0,,,,,,,,,,,,,,,,,,,,,1,,,,,,,,,,,,,,,,,,,,,,,,,,,,,,,,,,,,,,,,,,,,,,66,148651,20,Female,1,2024/02/19_14:13:30,YZ,None,
,,,,,,calibration,0,6,2,159,17,F,1,right,0.39302391902310774,0,0,,,,,,,,,,,,,,,,,,,,,1,,,,,,,,,,,,,,,,,,,,,,,,,,,,,,,,,,,,,,,,,,,,,,66,148651,20,Female,1,2024/02/19_14:13:30,YZ,None,
,,,,,,calibration,0,6,2,159,18,J,0,right,0.43276128999423236,1,0,,,,,,,,,,,,,,,,,,,,,1,,,,,,,,,,,,,,,,,,,,,,,,,,,,,,,,,,,,,,,,,,,,,,66,148651,20,Female,1,2024/02/19_14:13:30,YZ,None,
,,,,,,calibration,0,6,2,159,19,S,0,right,0.42683946402394213,1,0,,,,,,,,,,,,,,,,,,,,,1,,,,,,,,,,,,,,,,,,,,,,,,,,,,,,,,,,,,,,,,,,,,,,66,148651,20,Female,1,2024/02/19_14:13:30,YZ,None,
,,,,,,calibration,0,6,2,159,20,J,1,left,0.2721665970166214,1,0,,,,,,,,,,,,,,,,,,,,,1,,,,,,,,,,,,,,,,,,,,,,,,,,,,,,,,,,,,,,,,,,,,,,66,148651,20,Female,1,2024/02/19_14:13:30,YZ,None,
,,,,,,calibration,0,6,2,159,21,S,1,right,0.5514051080099307,0,0,,,,,,,,,,,,,,,,,,,,,1,,,,,,,,,,,,,,,,,,,,,,,,,,,,,,,,,,,,,,,,,,,,,,66,148651,20,Female,1,2024/02/19_14:13:30,YZ,None,
,,,,,,calibration,0,6,2,159,22,X,0,right,0.43047147200559266,1,0,,,,,,,,,,,,,,,,,,,,,1,,,,,,,,,,,,,,,,,,,,,,,,,,,,,,,,,,,,,,,,,,,,,,66,148651,20,Female,1,2024/02/19_14:13:30,YZ,None,
,,,,,,calibration,0,6,2,159,,,,,,,,0.875,0.5,0.0,1.0,0.0,1.0,0.4492132650484564,3,0,0,0,0,16,19,6,16,0,,,,1,,,,,,,,,,,,,,,,,,,,,,,,,,,,,,,,,,,,,,,,,,,,,,66,148651,20,Female,1,2024/02/19_14:13:30,YZ,None,
,,,,,,Calibration,0,,2,159,,,,,,,,,,,,,,,,,,,,,,,,,10,,,1,,,,,,,,,,,,,,,,,,,,,,,,,,,,,,,,,,,,,,,,,,,,,,66,148651,20,Female,1,2024/02/19_14:13:30,YZ,None,
,,,,,,calibration,0,31,2,120,1,C,0,right,0.3352391750086099,1,0,,,,,,,,,,,,,,,,,,,,,1,,,,,,,,,,,,,,,,,,,,,,,,,,,,,,,,,,,,,,,,,,,,,,66,148651,20,Female,1,2024/02/19_14:13:30,YZ,None,
,,,,,,calibration,0,31,2,120,2,X,0,right,0.2769284349924419,1,0,,,,,,,,,,,,,,,,,,,,,1,,,,,,,,,,,,,,,,,,,,,,,,,,,,,,,,,,,,,,,,,,,,,,66,148651,20,Female,1,2024/02/19_14:13:30,YZ,None,
,,,,,,calibration,0,31,2,120,3,C,1,left,0.3565250469837338,1,0,,,,,,,,,,,,,,,,,,,,,1,,,,,,,,,,,,,,,,,,,,,,,,,,,,,,,,,,,,,,,,,,,,,,66,148651,20,Female,1,2024/02/19_14:13:30,YZ,None,
,,,,,,calibration,0,31,2,120,4,Q,0,right,0.4161398709984496,1,0,,,,,,,,,,,,,,,,,,,,,1,,,,,,,,,,,,,,,,,,,,,,,,,,,,,,,,,,,,,,,,,,,,,,66,148651,20,Female,1,2024/02/19_14:13:30,YZ,None,
,,,,,,calibration,0,31,2,120,5,J,0,right,0.4171548580052331,1,0,,,,,,,,,,,,,,,,,,,,,1,,,,,,,,,,,,,,,,,,,,,,,,,,,,,,,,,,,,,,,,,,,,,,66,148651,20,Female,1,2024/02/19_14:13:30,YZ,None,
,,,,,,calibration,0,31,2,120,6,C,0,right,0.5418036579794716,1,0,,,,,,,,,,,,,,,,,,,,,1,,,,,,,,,,,,,,,,,,,,,,,,,,,,,,,,,,,,,,,,,,,,,,66,148651,20,Female,1,2024/02/19_14:13:30,YZ,None,
,,,,,,calibration,0,31,2,120,7,J,1,right,0.32522174998302944,0,0,,,,,,,,,,,,,,,,,,,,,1,,,,,,,,,,,,,,,,,,,,,,,,,,,,,,,,,,,,,,,,,,,,,,66,148651,20,Female,1,2024/02/19_14:13:30,YZ,None,
,,,,,,calibration,0,31,2,120,8,V,0,right,0.3324270969897043,1,0,,,,,,,,,,,,,,,,,,,,,1,,,,,,,,,,,,,,,,,,,,,,,,,,,,,,,,,,,,,,,,,,,,,,66,148651,20,Female,1,2024/02/19_14:13:30,YZ,None,
,,,,,,calibration,0,31,2,120,9,J,1,left,0.48862690100213513,1,0,,,,,,,,,,,,,,,,,,,,,1,,,,,,,,,,,,,,,,,,,,,,,,,,,,,,,,,,,,,,,,,,,,,,66,148651,20,Female,1,2024/02/19_14:13:30,YZ,None,
,,,,,,calibration,0,31,2,120,10,C,0,right,0.3692629750003107,1,0,,,,,,,,,,,,,,,,,,,,,1,,,,,,,,,,,,,,,,,,,,,,,,,,,,,,,,,,,,,,,,,,,,,,66,148651,20,Female,1,2024/02/19_14:13:30,YZ,None,
,,,,,,calibration,0,31,2,120,11,V,0,left,0.4995864439988509,0,0,,,,,,,,,,,,,,,,,,,,,1,,,,,,,,,,,,,,,,,,,,,,,,,,,,,,,,,,,,,,,,,,,,,,66,148651,20,Female,1,2024/02/19_14:13:30,YZ,None,
,,,,,,calibration,0,31,2,120,12,C,1,left,0.7730803839804139,1,0,,,,,,,,,,,,,,,,,,,,,1,,,,,,,,,,,,,,,,,,,,,,,,,,,,,,,,,,,,,,,,,,,,,,66,148651,20,Female,1,2024/02/19_14:13:30,YZ,None,
,,,,,,calibration,0,31,2,120,13,S,0,right,0.4771178269875236,1,0,,,,,,,,,,,,,,,,,,,,,1,,,,,,,,,,,,,,,,,,,,,,,,,,,,,,,,,,,,,,,,,,,,,,66,148651,20,Female,1,2024/02/19_14:13:30,YZ,None,
,,,,,,calibration,0,31,2,120,14,C,1,left,0.3961924689938314,1,0,,,,,,,,,,,,,,,,,,,,,1,,,,,,,,,,,,,,,,,,,,,,,,,,,,,,,,,,,,,,,,,,,,,,66,148651,20,Female,1,2024/02/19_14:13:30,YZ,None,
,,,,,,calibration,0,31,2,120,15,Q,0,right,0.43702613000641577,1,0,,,,,,,,,,,,,,,,,,,,,1,,,,,,,,,,,,,,,,,,,,,,,,,,,,,,,,,,,,,,,,,,,,,,66,148651,20,Female,1,2024/02/19_14:13:30,YZ,None,
,,,,,,calibration,0,31,2,120,16,N,0,right,0.5973899250093382,1,0,,,,,,,,,,,,,,,,,,,,,1,,,,,,,,,,,,,,,,,,,,,,,,,,,,,,,,,,,,,,,,,,,,,,66,148651,20,Female,1,2024/02/19_14:13:30,YZ,None,
,,,,,,calibration,0,31,2,120,17,S,0,right,0.41873908397974446,1,0,,,,,,,,,,,,,,,,,,,,,1,,,,,,,,,,,,,,,,,,,,,,,,,,,,,,,,,,,,,,,,,,,,,,66,148651,20,Female,1,2024/02/19_14:13:30,YZ,None,
,,,,,,calibration,0,31,2,120,18,N,1,left,0.5797331490030047,1,0,,,,,,,,,,,,,,,,,,,,,1,,,,,,,,,,,,,,,,,,,,,,,,,,,,,,,,,,,,,,,,,,,,,,66,148651,20,Female,1,2024/02/19_14:13:30,YZ,None,
,,,,,,calibration,0,31,2,120,19,S,1,left,0.4247510560089722,1,0,,,,,,,,,,,,,,,,,,,,,1,,,,,,,,,,,,,,,,,,,,,,,,,,,,,,,,,,,,,,,,,,,,,,66,148651,20,Female,1,2024/02/19_14:13:30,YZ,None,
,,,,,,calibration,0,31,2,120,20,J,0,right,0.42149222499574535,1,0,,,,,,,,,,,,,,,,,,,,,1,,,,,,,,,,,,,,,,,,,,,,,,,,,,,,,,,,,,,,,,,,,,,,66,148651,20,Female,1,2024/02/19_14:13:30,YZ,None,
,,,,,,calibration,0,31,2,120,21,Q,0,right,0.49656612100079656,1,0,,,,,,,,,,,,,,,,,,,,,1,,,,,,,,,,,,,,,,,,,,,,,,,,,,,,,,,,,,,,,,,,,,,,66,148651,20,Female,1,2024/02/19_14:13:30,YZ,None,
,,,,,,calibration,0,31,2,120,22,N,0,right,0.6392511930025648,1,0,,,,,,,,,,,,,,,,,,,,,1,,,,,,,,,,,,,,,,,,,,,,,,,,,,,,,,,,,,,,,,,,,,,,66,148651,20,Female,1,2024/02/19_14:13:30,YZ,None,
,,,,,,calibration,0,31,2,120,23,X,0,right,0.4329498579900246,1,0,,,,,,,,,,,,,,,,,,,,,1,,,,,,,,,,,,,,,,,,,,,,,,,,,,,,,,,,,,,,,,,,,,,,66,148651,20,Female,1,2024/02/19_14:13:30,YZ,None,
,,,,,,calibration,0,31,2,120,,,,,,,,0.9397321428571429,0.8571428571428571,0.0625,0.9375,0.0,0.9375,0.4544872013869716,6,1,0,0,0,15,21,7,16,0,,,,1,,,,,,,,,,,,,,,,,,,,,,,,,,,,,,,,,,,,,,,,,,,,,,66,148651,20,Female,1,2024/02/19_14:13:30,YZ,None,
,,,,,,Calibration,0,,2,120,,,,,,,,,,,,,,,,,,,,,,,,,11,,,1,,,,,,,,,,,,,,,,,,,,,,,,,,,,,,,,,,,,,,,,,,,,,,66,148651,20,Female,1,2024/02/19_14:13:30,YZ,None,
,,,,,,calibration,0,28,2,83,1,V,0,right,0.3037506619875785,1,0,,,,,,,,,,,,,,,,,,,,,1,,,,,,,,,,,,,,,,,,,,,,,,,,,,,,,,,,,,,,,,,,,,,,66,148651,20,Female,1,2024/02/19_14:13:30,YZ,None,
,,,,,,calibration,0,28,2,83,2,C,0,right,0.29817248199833557,1,0,,,,,,,,,,,,,,,,,,,,,1,,,,,,,,,,,,,,,,,,,,,,,,,,,,,,,,,,,,,,,,,,,,,,66,148651,20,Female,1,2024/02/19_14:13:30,YZ,None,
,,,,,,calibration,0,28,2,83,3,J,0,right,0.7098008449829649,1,0,,,,,,,,,,,,,,,,,,,,,1,,,,,,,,,,,,,,,,,,,,,,,,,,,,,,,,,,,,,,,,,,,,,,66,148651,20,Female,1,2024/02/19_14:13:30,YZ,None,
,,,,,,calibration,0,28,2,83,4,Q,0,right,0.4463656170119066,1,0,,,,,,,,,,,,,,,,,,,,,1,,,,,,,,,,,,,,,,,,,,,,,,,,,,,,,,,,,,,,,,,,,,,,66,148651,20,Female,1,2024/02/19_14:13:30,YZ,None,
,,,,,,calibration,0,28,2,83,5,C,0,right,0.43144512799335644,1,0,,,,,,,,,,,,,,,,,,,,,1,,,,,,,,,,,,,,,,,,,,,,,,,,,,,,,,,,,,,,,,,,,,,,66,148651,20,Female,1,2024/02/19_14:13:30,YZ,None,
,,,,,,calibration,0,28,2,83,6,Q,1,left,0.6149774029909167,1,0,,,,,,,,,,,,,,,,,,,,,1,,,,,,,,,,,,,,,,,,,,,,,,,,,,,,,,,,,,,,,,,,,,,,66,148651,20,Female,1,2024/02/19_14:13:30,YZ,None,
,,,,,,calibration,0,28,2,83,7,X,0,right,0.3653272619994823,1,0,,,,,,,,,,,,,,,,,,,,,1,,,,,,,,,,,,,,,,,,,,,,,,,,,,,,,,,,,,,,,,,,,,,,66,148651,20,Female,1,2024/02/19_14:13:30,YZ,None,
,,,,,,calibration,0,28,2,83,8,S,0,right,0.4005641590047162,1,0,,,,,,,,,,,,,,,,,,,,,1,,,,,,,,,,,,,,,,,,,,,,,,,,,,,,,,,,,,,,,,,,,,,,66,148651,20,Female,1,2024/02/19_14:13:30,YZ,None,
,,,,,,calibration,0,28,2,83,9,X,1,left,0.45286188600584865,1,0,,,,,,,,,,,,,,,,,,,,,1,,,,,,,,,,,,,,,,,,,,,,,,,,,,,,,,,,,,,,,,,,,,,,66,148651,20,Female,1,2024/02/19_14:13:30,YZ,None,
,,,,,,calibration,0,28,2,83,10,V,0,right,0.2952321630145889,1,0,,,,,,,,,,,,,,,,,,,,,1,,,,,,,,,,,,,,,,,,,,,,,,,,,,,,,,,,,,,,,,,,,,,,66,148651,20,Female,1,2024/02/19_14:13:30,YZ,None,
,,,,,,calibration,0,28,2,83,11,F,0,left,0.42638640201766975,0,0,,,,,,,,,,,,,,,,,,,,,1,,,,,,,,,,,,,,,,,,,,,,,,,,,,,,,,,,,,,,,,,,,,,,66,148651,20,Female,1,2024/02/19_14:13:30,YZ,None,
,,,,,,calibration,0,28,2,83,12,C,0,right,0.30916469800285995,1,0,,,,,,,,,,,,,,,,,,,,,1,,,,,,,,,,,,,,,,,,,,,,,,,,,,,,,,,,,,,,,,,,,,,,66,148651,20,Female,1,2024/02/19_14:13:30,YZ,None,
,,,,,,calibration,0,28,2,83,13,X,0,right,0.8079839469864964,1,0,,,,,,,,,,,,,,,,,,,,,1,,,,,,,,,,,,,,,,,,,,,,,,,,,,,,,,,,,,,,,,,,,,,,66,148651,20,Female,1,2024/02/19_14:13:30,YZ,None,
,,,,,,calibration,0,28,2,83,14,C,1,right,0.42967489498551004,0,0,,,,,,,,,,,,,,,,,,,,,1,,,,,,,,,,,,,,,,,,,,,,,,,,,,,,,,,,,,,,,,,,,,,,66,148651,20,Female,1,2024/02/19_14:13:30,YZ,None,
,,,,,,calibration,0,28,2,83,15,F,0,right,0.37620127497939393,1,0,,,,,,,,,,,,,,,,,,,,,1,,,,,,,,,,,,,,,,,,,,,,,,,,,,,,,,,,,,,,,,,,,,,,66,148651,20,Female,1,2024/02/19_14:13:30,YZ,None,
,,,,,,calibration,0,28,2,83,16,S,0,right,0.41611183001077734,1,0,,,,,,,,,,,,,,,,,,,,,1,,,,,,,,,,,,,,,,,,,,,,,,,,,,,,,,,,,,,,,,,,,,,,66,148651,20,Female,1,2024/02/19_14:13:30,YZ,None,
,,,,,,calibration,0,28,2,83,17,F,1,left,0.5730319469876122,1,0,,,,,,,,,,,,,,,,,,,,,1,,,,,,,,,,,,,,,,,,,,,,,,,,,,,,,,,,,,,,,,,,,,,,66,148651,20,Female,1,2024/02/19_14:13:30,YZ,None,
,,,,,,calibration,0,28,2,83,18,X,0,right,0.3803504820098169,1,0,,,,,,,,,,,,,,,,,,,,,1,,,,,,,,,,,,,,,,,,,,,,,,,,,,,,,,,,,,,,,,,,,,,,66,148651,20,Female,1,2024/02/19_14:13:30,YZ,None,
,,,,,,calibration,0,28,2,83,19,F,1,right,0.4836214149836451,0,0,,,,,,,,,,,,,,,,,,,,,1,,,,,,,,,,,,,,,,,,,,,,,,,,,,,,,,,,,,,,,,,,,,,,66,148651,20,Female,1,2024/02/19_14:13:30,YZ,None,
,,,,,,calibration,0,28,2,83,20,X,1,left,0.5764180090045556,1,0,,,,,,,,,,,,,,,,,,,,,1,,,,,,,,,,,,,,,,,,,,,,,,,,,,,,,,,,,,,,,,,,,,,,66,148651,20,Female,1,2024/02/19_14:13:30,YZ,None,
,,,,,,calibration,0,28,2,83,21,N,0,right,0.566092473018216,1,0,,,,,,,,,,,,,,,,,,,,,1,,,,,,,,,,,,,,,,,,,,,,,,,,,,,,,,,,,,,,,,,,,,,,66,148651,20,Female,1,2024/02/19_14:13:30,YZ,None,
,,,,,,calibration,0,28,2,83,22,C,0,right,0.5238512710202485,1,0,,,,,,,,,,,,,,,,,,,,,1,,,,,,,,,,,,,,,,,,,,,,,,,,,,,,,,,,,,,,,,,,,,,,66,148651,20,Female,1,2024/02/19_14:13:30,YZ,None,
,,,,,,calibration,0,28,2,83,23,V,0,right,0.35833097898284905,1,0,,,,,,,,,,,,,,,,,,,,,1,,,,,,,,,,,,,,,,,,,,,,,,,,,,,,,,,,,,,,,,,,,,,,66,148651,20,Female,1,2024/02/19_14:13:30,YZ,None,
,,,,,,calibration,0,28,2,83,24,S,0,right,0.4044309239834547,1,0,,,,,,,,,,,,,,,,,,,,,1,,,,,,,,,,,,,,,,,,,,,,,,,,,,,,,,,,,,,,,,,,,,,,66,148651,20,Female,1,2024/02/19_14:13:30,YZ,None,
,,,,,,calibration,0,28,2,83,,,,,,,,0.8842592592592593,0.6666666666666666,0.05555555555555555,0.9444444444444444,0.0,0.9444444444444444,0.45625617308178334,4,1,0,0,0,17,21,6,18,0,,,,1,,,,,,,,,,,,,,,,,,,,,,,,,,,,,,,,,,,,,,,,,,,,,,66,148651,20,Female,1,2024/02/19_14:13:30,YZ,None,
,,,,,,Calibration,0,,2,83,,,,,,,,,,,,,,,,,,,,,,,,,12,,,1,,,,,,,,,,,,,,,,,,,,,,,,,,,,,,,,,,,,,,,,,,,,,,66,148651,20,Female,1,2024/02/19_14:13:30,YZ,None,
,,,,,,calibration,0,28,2,50,1,S,0,right,0.2314569310110528,1,0,,,,,,,,,,,,,,,,,,,,,1,,,,,,,,,,,,,,,,,,,,,,,,,,,,,,,,,,,,,,,,,,,,,,66,148651,20,Female,1,2024/02/19_14:13:30,YZ,None,
,,,,,,calibration,0,28,2,50,2,Q,0,right,0.19343529199250042,1,0,,,,,,,,,,,,,,,,,,,,,1,,,,,,,,,,,,,,,,,,,,,,,,,,,,,,,,,,,,,,,,,,,,,,66,148651,20,Female,1,2024/02/19_14:13:30,YZ,None,
,,,,,,calibration,0,28,2,50,3,C,0,right,0.3242375709814951,1,0,,,,,,,,,,,,,,,,,,,,,1,,,,,,,,,,,,,,,,,,,,,,,,,,,,,,,,,,,,,,,,,,,,,,66,148651,20,Female,1,2024/02/19_14:13:30,YZ,None,
,,,,,,calibration,0,28,2,50,4,F,0,right,0.3934234039916191,1,0,,,,,,,,,,,,,,,,,,,,,1,,,,,,,,,,,,,,,,,,,,,,,,,,,,,,,,,,,,,,,,,,,,,,66,148651,20,Female,1,2024/02/19_14:13:30,YZ,None,
,,,,,,calibration,0,28,2,50,5,N,0,right,0.39637188901542686,1,0,,,,,,,,,,,,,,,,,,,,,1,,,,,,,,,,,,,,,,,,,,,,,,,,,,,,,,,,,,,,,,,,,,,,66,148651,20,Female,1,2024/02/19_14:13:30,YZ,None,
,,,,,,calibration,0,28,2,50,6,J,0,right,0.3648772710002959,1,0,,,,,,,,,,,,,,,,,,,,,1,,,,,,,,,,,,,,,,,,,,,,,,,,,,,,,,,,,,,,,,,,,,,,66,148651,20,Female,1,2024/02/19_14:13:30,YZ,None,
,,,,,,calibration,0,28,2,50,7,N,1,left,0.4801290770119522,1,0,,,,,,,,,,,,,,,,,,,,,1,,,,,,,,,,,,,,,,,,,,,,,,,,,,,,,,,,,,,,,,,,,,,,66,148651,20,Female,1,2024/02/19_14:13:30,YZ,None,
,,,,,,calibration,0,28,2,50,8,J,1,right,0.24984236399177462,0,0,,,,,,,,,,,,,,,,,,,,,1,,,,,,,,,,,,,,,,,,,,,,,,,,,,,,,,,,,,,,,,,,,,,,66,148651,20,Female,1,2024/02/19_14:13:30,YZ,None,
,,,,,,calibration,0,28,2,50,9,F,0,right,0.432199225993827,1,0,,,,,,,,,,,,,,,,,,,,,1,,,,,,,,,,,,,,,,,,,,,,,,,,,,,,,,,,,,,,,,,,,,,,66,148651,20,Female,1,2024/02/19_14:13:30,YZ,None,
,,,,,,calibration,0,28,2,50,10,V,0,right,0.38881077399128117,1,0,,,,,,,,,,,,,,,,,,,,,1,,,,,,,,,,,,,,,,,,,,,,,,,,,,,,,,,,,,,,,,,,,,,,66,148651,20,Female,1,2024/02/19_14:13:30,YZ,None,
,,,,,,calibration,0,28,2,50,11,N,0,right,0.5841001469816547,1,0,,,,,,,,,,,,,,,,,,,,,1,,,,,,,,,,,,,,,,,,,,,,,,,,,,,,,,,,,,,,,,,,,,,,66,148651,20,Female,1,2024/02/19_14:13:30,YZ,None,
,,,,,,calibration,0,28,2,50,12,S,0,right,0.29575733799720183,1,0,,,,,,,,,,,,,,,,,,,,,1,,,,,,,,,,,,,,,,,,,,,,,,,,,,,,,,,,,,,,,,,,,,,,66,148651,20,Female,1,2024/02/19_14:13:30,YZ,None,
,,,,,,calibration,0,28,2,50,13,F,0,left,0.5876452960073948,0,0,,,,,,,,,,,,,,,,,,,,,1,,,,,,,,,,,,,,,,,,,,,,,,,,,,,,,,,,,,,,,,,,,,,,66,148651,20,Female,1,2024/02/19_14:13:30,YZ,None,
,,,,,,calibration,0,28,2,50,14,S,1,right,0.29999165298067965,0,0,,,,,,,,,,,,,,,,,,,,,1,,,,,,,,,,,,,,,,,,,,,,,,,,,,,,,,,,,,,,,,,,,,,,66,148651,20,Female,1,2024/02/19_14:13:30,YZ,None,
,,,,,,calibration,0,28,2,50,15,F,1,left,0.36900554900057614,1,0,,,,,,,,,,,,,,,,,,,,,1,,,,,,,,,,,,,,,,,,,,,,,,,,,,,,,,,,,,,,,,,,,,,,66,148651,20,Female,1,2024/02/19_14:13:30,YZ,None,
,,,,,,calibration,0,28,2,50,16,N,0,right,0.35203040298074484,1,0,,,,,,,,,,,,,,,,,,,,,1,,,,,,,,,,,,,,,,,,,,,,,,,,,,,,,,,,,,,,,,,,,,,,66,148651,20,Female,1,2024/02/19_14:13:30,YZ,None,
,,,,,,calibration,0,28,2,50,17,X,0,right,0.5540558679786045,1,0,,,,,,,,,,,,,,,,,,,,,1,,,,,,,,,,,,,,,,,,,,,,,,,,,,,,,,,,,,,,,,,,,,,,66,148651,20,Female,1,2024/02/19_14:13:30,YZ,None,
,,,,,,calibration,0,28,2,50,18,F,0,left,0.5516426689864602,0,0,,,,,,,,,,,,,,,,,,,,,1,,,,,,,,,,,,,,,,,,,,,,,,,,,,,,,,,,,,,,,,,,,,,,66,148651,20,Female,1,2024/02/19_14:13:30,YZ,None,
,,,,,,calibration,0,28,2,50,19,S,0,right,0.33766175399068743,1,0,,,,,,,,,,,,,,,,,,,,,1,,,,,,,,,,,,,,,,,,,,,,,,,,,,,,,,,,,,,,,,,,,,,,66,148651,20,Female,1,2024/02/19_14:13:30,YZ,None,
,,,,,,calibration,0,28,2,50,20,F,1,left,0.3965932370047085,1,0,,,,,,,,,,,,,,,,,,,,,1,,,,,,,,,,,,,,,,,,,,,,,,,,,,,,,,,,,,,,,,,,,,,,66,148651,20,Female,1,2024/02/19_14:13:30,YZ,None,
,,,,,,calibration,0,28,2,50,21,S,1,left,0.3884877100063022,1,0,,,,,,,,,,,,,,,,,,,,,1,,,,,,,,,,,,,,,,,,,,,,,,,,,,,,,,,,,,,,,,,,,,,,66,148651,20,Female,1,2024/02/19_14:13:30,YZ,None,
,,,,,,calibration,0,28,2,50,22,C,0,right,0.37731440900824964,1,0,,,,,,,,,,,,,,,,,,,,,1,,,,,,,,,,,,,,,,,,,,,,,,,,,,,,,,,,,,,,,,,,,,,,66,148651,20,Female,1,2024/02/19_14:13:30,YZ,None,
,,,,,,calibration,0,28,2,50,23,F,0,left,0.3725119049777277,0,0,,,,,,,,,,,,,,,,,,,,,1,,,,,,,,,,,,,,,,,,,,,,,,,,,,,,,,,,,,,,,,,,,,,,66,148651,20,Female,1,2024/02/19_14:13:30,YZ,None,
,,,,,,calibration,0,28,2,50,24,N,0,right,0.47245704400120303,1,0,,,,,,,,,,,,,,,,,,,,,1,,,,,,,,,,,,,,,,,,,,,,,,,,,,,,,,,,,,,,,,,,,,,,66,148651,20,Female,1,2024/02/19_14:13:30,YZ,None,
,,,,,,calibration,0,28,2,50,25,F,1,left,0.48895909398561344,1,0,,,,,,,,,,,,,,,,,,,,,1,,,,,,,,,,,,,,,,,,,,,,,,,,,,,,,,,,,,,,,,,,,,,,66,148651,20,Female,1,2024/02/19_14:13:30,YZ,None,
,,,,,,calibration,0,28,2,50,,,,,,,,0.8392857142857142,0.7142857142857143,0.16666666666666666,0.8333333333333334,0.0,0.8333333333333334,0.3953199149947613,5,3,0,0,0,15,20,7,18,0,,,,1,,,,,,,,,,,,,,,,,,,,,,,,,,,,,,,,,,,,,,,,,,,,,,66,148651,20,Female,1,2024/02/19_14:13:30,YZ,None,
,,,,,,Calibration,0,,2,50,,,,,,,,,,,,,,,,,,,,,,,,,13,,,1,,,,,,,,,,,,,,,,,,,,,,,,,,,,,,,,,,,,,,,,,,,,,,66,148651,20,Female,1,2024/02/19_14:13:30,YZ,None,
,,,,,,calibration,0,23,2,50,1,Q,0,right,0.2705035230028443,1,0,,,,,,,,,,,,,,,,,,,,,1,,,,,,,,,,,,,,,,,,,,,,,,,,,,,,,,,,,,,,,,,,,,,,66,148651,20,Female,1,2024/02/19_14:13:30,YZ,None,
,,,,,,calibration,0,23,2,50,2,C,0,right,0.3403317090123892,1,0,,,,,,,,,,,,,,,,,,,,,1,,,,,,,,,,,,,,,,,,,,,,,,,,,,,,,,,,,,,,,,,,,,,,66,148651,20,Female,1,2024/02/19_14:13:30,YZ,None,
,,,,,,calibration,0,23,2,50,3,Q,1,left,0.5416861529811285,1,0,,,,,,,,,,,,,,,,,,,,,1,,,,,,,,,,,,,,,,,,,,,,,,,,,,,,,,,,,,,,,,,,,,,,66,148651,20,Female,1,2024/02/19_14:13:30,YZ,None,
,,,,,,calibration,0,23,2,50,4,J,0,right,0.38812701500137337,1,0,,,,,,,,,,,,,,,,,,,,,1,,,,,,,,,,,,,,,,,,,,,,,,,,,,,,,,,,,,,,,,,,,,,,66,148651,20,Female,1,2024/02/19_14:13:30,YZ,None,
,,,,,,calibration,0,23,2,50,5,Q,1,right,0.41211279801791534,0,0,,,,,,,,,,,,,,,,,,,,,1,,,,,,,,,,,,,,,,,,,,,,,,,,,,,,,,,,,,,,,,,,,,,,66,148651,20,Female,1,2024/02/19_14:13:30,YZ,None,
,,,,,,calibration,0,23,2,50,6,J,1,left,0.631199938012287,1,0,,,,,,,,,,,,,,,,,,,,,1,,,,,,,,,,,,,,,,,,,,,,,,,,,,,,,,,,,,,,,,,,,,,,66,148651,20,Female,1,2024/02/19_14:13:30,YZ,None,
,,,,,,calibration,0,23,2,50,7,X,0,right,0.4132656219881028,1,0,,,,,,,,,,,,,,,,,,,,,1,,,,,,,,,,,,,,,,,,,,,,,,,,,,,,,,,,,,,,,,,,,,,,66,148651,20,Female,1,2024/02/19_14:13:30,YZ,None,
,,,,,,calibration,0,23,2,50,8,Q,0,right,nan,0,1,,,,,,,,,,,,,,,,,,,,,1,,,,,,,,,,,,,,,,,,,,,,,,,,,,,,,,,,,,,,,,,,,,,,66,148651,20,Female,1,2024/02/19_14:13:30,YZ,None,
,,,,,,calibration,0,23,2,50,9,S,0,right,0.36885854697902687,1,0,,,,,,,,,,,,,,,,,,,,,1,,,,,,,,,,,,,,,,,,,,,,,,,,,,,,,,,,,,,,,,,,,,,,66,148651,20,Female,1,2024/02/19_14:13:30,YZ,None,
,,,,,,calibration,0,23,2,50,10,C,0,right,0.3837447869882453,1,0,,,,,,,,,,,,,,,,,,,,,1,,,,,,,,,,,,,,,,,,,,,,,,,,,,,,,,,,,,,,,,,,,,,,66,148651,20,Female,1,2024/02/19_14:13:30,YZ,None,
,,,,,,calibration,0,23,2,50,11,Q,0,right,0.42821857100352645,1,0,,,,,,,,,,,,,,,,,,,,,1,,,,,,,,,,,,,,,,,,,,,,,,,,,,,,,,,,,,,,,,,,,,,,66,148651,20,Female,1,2024/02/19_14:13:30,YZ,None,
,,,,,,calibration,0,23,2,50,12,N,0,right,0.3942936039820779,1,0,,,,,,,,,,,,,,,,,,,,,1,,,,,,,,,,,,,,,,,,,,,,,,,,,,,,,,,,,,,,,,,,,,,,66,148651,20,Female,1,2024/02/19_14:13:30,YZ,None,
,,,,,,calibration,0,23,2,50,13,J,0,right,0.7298191959853284,1,0,,,,,,,,,,,,,,,,,,,,,1,,,,,,,,,,,,,,,,,,,,,,,,,,,,,,,,,,,,,,,,,,,,,,66,148651,20,Female,1,2024/02/19_14:13:30,YZ,None,
,,,,,,calibration,0,23,2,50,14,X,0,right,0.20595398798468523,1,0,,,,,,,,,,,,,,,,,,,,,1,,,,,,,,,,,,,,,,,,,,,,,,,,,,,,,,,,,,,,,,,,,,,,66,148651,20,Female,1,2024/02/19_14:13:30,YZ,None,
,,,,,,calibration,0,23,2,50,15,F,0,right,0.3136615869880188,1,0,,,,,,,,,,,,,,,,,,,,,1,,,,,,,,,,,,,,,,,,,,,,,,,,,,,,,,,,,,,,,,,,,,,,66,148651,20,Female,1,2024/02/19_14:13:30,YZ,None,
,,,,,,calibration,0,23,2,50,16,S,0,right,0.23433197100530379,1,0,,,,,,,,,,,,,,,,,,,,,1,,,,,,,,,,,,,,,,,,,,,,,,,,,,,,,,,,,,,,,,,,,,,,66,148651,20,Female,1,2024/02/19_14:13:30,YZ,None,
,,,,,,calibration,0,23,2,50,17,N,0,right,0.361015183996642,1,0,,,,,,,,,,,,,,,,,,,,,1,,,,,,,,,,,,,,,,,,,,,,,,,,,,,,,,,,,,,,,,,,,,,,66,148651,20,Female,1,2024/02/19_14:13:30,YZ,None,
,,,,,,calibration,0,23,2,50,18,F,0,right,0.28451520000817254,1,0,,,,,,,,,,,,,,,,,,,,,1,,,,,,,,,,,,,,,,,,,,,,,,,,,,,,,,,,,,,,,,,,,,,,66,148651,20,Female,1,2024/02/19_14:13:30,YZ,None,
,,,,,,calibration,0,23,2,50,19,N,1,right,0.2235237740096636,0,0,,,,,,,,,,,,,,,,,,,,,1,,,,,,,,,,,,,,,,,,,,,,,,,,,,,,,,,,,,,,,,,,,,,,66,148651,20,Female,1,2024/02/19_14:13:30,YZ,None,
,,,,,,calibration,0,23,2,50,20,F,1,right,0.29637933301273733,0,0,,,,,,,,,,,,,,,,,,,,,1,,,,,,,,,,,,,,,,,,,,,,,,,,,,,,,,,,,,,,,,,,,,,,66,148651,20,Female,1,2024/02/19_14:13:30,YZ,None,
,,,,,,calibration,0,23,2,50,21,S,0,left,0.6089149829931557,0,0,,,,,,,,,,,,,,,,,,,,,1,,,,,,,,,,,,,,,,,,,,,,,,,,,,,,,,,,,,,,,,,,,,,,66,148651,20,Female,1,2024/02/19_14:13:30,YZ,None,
,,,,,,calibration,0,23,2,50,22,C,0,right,0.5538147689949255,1,0,,,,,,,,,,,,,,,,,,,,,1,,,,,,,,,,,,,,,,,,,,,,,,,,,,,,,,,,,,,,,,,,,,,,66,148651,20,Female,1,2024/02/19_14:13:30,YZ,None,
,,,,,,calibration,0,23,2,50,23,X,0,right,0.25521439098520204,1,0,,,,,,,,,,,,,,,,,,,,,1,,,,,,,,,,,,,,,,,,,,,,,,,,,,,,,,,,,,,,,,,,,,,,66,148651,20,Female,1,2024/02/19_14:13:30,YZ,None,
,,,,,,calibration,0,23,2,50,24,N,0,right,0.5238757370098028,1,0,,,,,,,,,,,,,,,,,,,,,1,,,,,,,,,,,,,,,,,,,,,,,,,,,,,,,,,,,,,,,,,,,,,,66,148651,20,Female,1,2024/02/19_14:13:30,YZ,None,
,,,,,,calibration,0,23,2,50,25,X,1,right,0.30048015801003203,0,0,,,,,,,,,,,,,,,,,,,,,1,,,,,,,,,,,,,,,,,,,,,,,,,,,,,,,,,,,,,,,,,,,,,,66,148651,20,Female,1,2024/02/19_14:13:30,YZ,None,
,,,,,,calibration,0,23,2,50,,,,,,,,0.7807017543859649,0.3333333333333333,0.05263157894736842,0.9444444444444444,0.04,0.9073684210526316,0.3943267724146911,2,1,0,1,1,17,19,6,19,0,,,,1,,,,,,,,,,,,,,,,,,,,,,,,,,,,,,,,,,,,,,,,,,,,,,66,148651,20,Female,1,2024/02/19_14:13:30,YZ,None,
,,,,,,Calibration,0,,2,50,,,,,,,,,,,,,,,,,,,,,,,,,14,,,1,,,,,,,,,,,,,,,,,,,,,,,,,,,,,,,,,,,,,,,,,,,,,,66,148651,20,Female,1,2024/02/19_14:13:30,YZ,None,
,,,,,,calibration,0,20,2,50,1,X,0,right,0.31585117598297074,1,0,,,,,,,,,,,,,,,,,,,,,1,,,,,,,,,,,,,,,,,,,,,,,,,,,,,,,,,,,,,,,,,,,,,,66,148651,20,Female,1,2024/02/19_14:13:30,YZ,None,
,,,,,,calibration,0,20,2,50,2,S,0,right,0.31133280601352453,1,0,,,,,,,,,,,,,,,,,,,,,1,,,,,,,,,,,,,,,,,,,,,,,,,,,,,,,,,,,,,,,,,,,,,,66,148651,20,Female,1,2024/02/19_14:13:30,YZ,None,
,,,,,,calibration,0,20,2,50,3,C,0,right,0.3532284209795762,1,0,,,,,,,,,,,,,,,,,,,,,1,,,,,,,,,,,,,,,,,,,,,,,,,,,,,,,,,,,,,,,,,,,,,,66,148651,20,Female,1,2024/02/19_14:13:30,YZ,None,
,,,,,,calibration,0,20,2,50,4,F,0,right,0.4075043899938464,1,0,,,,,,,,,,,,,,,,,,,,,1,,,,,,,,,,,,,,,,,,,,,,,,,,,,,,,,,,,,,,,,,,,,,,66,148651,20,Female,1,2024/02/19_14:13:30,YZ,None,
,,,,,,calibration,0,20,2,50,5,J,0,right,0.3041186330083292,1,0,,,,,,,,,,,,,,,,,,,,,1,,,,,,,,,,,,,,,,,,,,,,,,,,,,,,,,,,,,,,,,,,,,,,66,148651,20,Female,1,2024/02/19_14:13:30,YZ,None,
,,,,,,calibration,0,20,2,50,6,N,0,right,0.3516995199897792,1,0,,,,,,,,,,,,,,,,,,,,,1,,,,,,,,,,,,,,,,,,,,,,,,,,,,,,,,,,,,,,,,,,,,,,66,148651,20,Female,1,2024/02/19_14:13:30,YZ,None,
,,,,,,calibration,0,20,2,50,7,X,0,right,0.3691691739950329,1,0,,,,,,,,,,,,,,,,,,,,,1,,,,,,,,,,,,,,,,,,,,,,,,,,,,,,,,,,,,,,,,,,,,,,66,148651,20,Female,1,2024/02/19_14:13:30,YZ,None,
,,,,,,calibration,0,20,2,50,8,V,0,right,0.44416116501088254,1,0,,,,,,,,,,,,,,,,,,,,,1,,,,,,,,,,,,,,,,,,,,,,,,,,,,,,,,,,,,,,,,,,,,,,66,148651,20,Female,1,2024/02/19_14:13:30,YZ,None,
,,,,,,calibration,0,20,2,50,9,X,1,right,0.3643284630088601,0,0,,,,,,,,,,,,,,,,,,,,,1,,,,,,,,,,,,,,,,,,,,,,,,,,,,,,,,,,,,,,,,,,,,,,66,148651,20,Female,1,2024/02/19_14:13:30,YZ,None,
,,,,,,calibration,0,20,2,50,10,V,1,right,nan,0,1,,,,,,,,,,,,,,,,,,,,,1,,,,,,,,,,,,,,,,,,,,,,,,,,,,,,,,,,,,,,,,,,,,,,66,148651,20,Female,1,2024/02/19_14:13:30,YZ,None,
,,,,,,calibration,0,20,2,50,11,J,0,right,0.4693511759978719,1,0,,,,,,,,,,,,,,,,,,,,,1,,,,,,,,,,,,,,,,,,,,,,,,,,,,,,,,,,,,,,,,,,,,,,66,148651,20,Female,1,2024/02/19_14:13:30,YZ,None,
,,,,,,calibration,0,20,2,50,12,X,0,right,0.30859762799809687,1,0,,,,,,,,,,,,,,,,,,,,,1,,,,,,,,,,,,,,,,,,,,,,,,,,,,,,,,,,,,,,,,,,,,,,66,148651,20,Female,1,2024/02/19_14:13:30,YZ,None,
,,,,,,calibration,0,20,2,50,13,N,0,right,0.32960949098924175,1,0,,,,,,,,,,,,,,,,,,,,,1,,,,,,,,,,,,,,,,,,,,,,,,,,,,,,,,,,,,,,,,,,,,,,66,148651,20,Female,1,2024/02/19_14:13:30,YZ,None,
,,,,,,calibration,0,20,2,50,14,X,1,left,0.4289059689908754,1,0,,,,,,,,,,,,,,,,,,,,,1,,,,,,,,,,,,,,,,,,,,,,,,,,,,,,,,,,,,,,,,,,,,,,66,148651,20,Female,1,2024/02/19_14:13:30,YZ,None,
,,,,,,calibration,0,20,2,50,15,V,0,right,0.2661547899770085,1,0,,,,,,,,,,,,,,,,,,,,,1,,,,,,,,,,,,,,,,,,,,,,,,,,,,,,,,,,,,,,,,,,,,,,66,148651,20,Female,1,2024/02/19_14:13:30,YZ,None,
,,,,,,calibration,0,20,2,50,16,Q,0,right,0.42375186100252904,1,0,,,,,,,,,,,,,,,,,,,,,1,,,,,,,,,,,,,,,,,,,,,,,,,,,,,,,,,,,,,,,,,,,,,,66,148651,20,Female,1,2024/02/19_14:13:30,YZ,None,
,,,,,,calibration,0,20,2,50,17,V,1,left,0.45731307700043544,1,0,,,,,,,,,,,,,,,,,,,,,1,,,,,,,,,,,,,,,,,,,,,,,,,,,,,,,,,,,,,,,,,,,,,,66,148651,20,Female,1,2024/02/19_14:13:30,YZ,None,
,,,,,,calibration,0,20,2,50,18,F,0,right,0.28116518299793825,1,0,,,,,,,,,,,,,,,,,,,,,1,,,,,,,,,,,,,,,,,,,,,,,,,,,,,,,,,,,,,,,,,,,,,,66,148651,20,Female,1,2024/02/19_14:13:30,YZ,None,
,,,,,,calibration,0,20,2,50,19,V,1,right,0.2985631320043467,0,0,,,,,,,,,,,,,,,,,,,,,1,,,,,,,,,,,,,,,,,,,,,,,,,,,,,,,,,,,,,,,,,,,,,,66,148651,20,Female,1,2024/02/19_14:13:30,YZ,None,
,,,,,,calibration,0,20,2,50,20,X,0,right,0.448147135990439,1,0,,,,,,,,,,,,,,,,,,,,,1,,,,,,,,,,,,,,,,,,,,,,,,,,,,,,,,,,,,,,,,,,,,,,66,148651,20,Female,1,2024/02/19_14:13:30,YZ,None,
,,,,,,calibration,0,20,2,50,21,N,0,right,0.5197272189834621,1,0,,,,,,,,,,,,,,,,,,,,,1,,,,,,,,,,,,,,,,,,,,,,,,,,,,,,,,,,,,,,,,,,,,,,66,148651,20,Female,1,2024/02/19_14:13:30,YZ,None,
,,,,,,calibration,0,20,2,50,22,X,1,left,0.5569316860055551,1,0,,,,,,,,,,,,,,,,,,,,,1,,,,,,,,,,,,,,,,,,,,,,,,,,,,,,,,,,,,,,,,,,,,,,66,148651,20,Female,1,2024/02/19_14:13:30,YZ,None,
,,,,,,calibration,0,20,2,50,23,C,0,right,0.3109954980027396,1,0,,,,,,,,,,,,,,,,,,,,,1,,,,,,,,,,,,,,,,,,,,,,,,,,,,,,,,,,,,,,,,,,,,,,66,148651,20,Female,1,2024/02/19_14:13:30,YZ,None,
,,,,,,calibration,0,20,2,50,24,X,1,right,0.3487713970243931,0,0,,,,,,,,,,,,,,,,,,,,,1,,,,,,,,,,,,,,,,,,,,,,,,,,,,,,,,,,,,,,,,,,,,,,66,148651,20,Female,1,2024/02/19_14:13:30,YZ,None,
,,,,,,calibration,0,20,2,50,25,J,0,left,0.39187265699729323,0,0,,,,,,,,,,,,,,,,,,,,,1,,,,,,,,,,,,,,,,,,,,,,,,,,,,,,,,,,,,,,,,,,,,,,66,148651,20,Female,1,2024/02/19_14:13:30,YZ,None,
,,,,,,calibration,0,20,2,50,,,,,,,,0.8108465608465608,0.42857142857142855,0.05555555555555555,0.9444444444444444,0.04,0.9044444444444444,0.3775521519977095,3,1,1,0,1,17,20,7,18,0,,,,1,,,,,,,,,,,,,,,,,,,,,,,,,,,,,,,,,,,,,,,,,,,,,,66,148651,20,Female,1,2024/02/19_14:13:30,YZ,None,
,,,,,,Calibration,0,,2,50,,,,,,,,,,,,,,,,,,,,,,,,,15,,,1,,,,,,,,,,,,,,,,,,,,,,,,,,,,,,,,,,,,,,,,,,,,,,66,148651,20,Female,1,2024/02/19_14:13:30,YZ,None,
,,,,,,CALIBRATION,0,,,,,,,,,,,,,,,,,,,,,,,,,,,,15,0.8108465608465608,50,1,,,,,,,,,,,,,,,,,,,,,,,,,,,,,,,,,,,,,,,,,,,,,,66,148651,20,Female,1,2024/02/19_14:13:30,YZ,None,
1,./instructions/inst_prac_1/Slide24.png,right,10.161986997001804,525.6745392629819,535.8365262599837,,,,,,,,,,,,,,,,,,,,,,,,,,,,,,,,,1,,,,,,,,,,,,,,,,,,,,,,,,,,,,,,,,,,,,,,,,,,,,,,66,148651,20,Female,1,2024/02/19_14:13:30,YZ,None,
2,./instructions/inst_prac_1/Slide25.png,right,2.818107991013676,535.8662691729842,538.6843771639979,,,,,,,,,,,,,,,,,,,,,,,,,,,,,,,,,1,,,,,,,,,,,,,,,,,,,,,,,,,,,,,,,,,,,,,,,,,,,,,,66,148651,20,Female,1,2024/02/19_14:13:30,YZ,None,
3,./instructions/inst_prac_1/Slide26.png,right,0.9307450070045888,538.7135926989722,539.6443377059768,,,,,,,,,,,,,,,,,,,,,,,,,,,,,,,,,1,,,,,,,,,,,,,,,,,,,,,,,,,,,,,,,,,,,,,,,,,,,,,,66,148651,20,Female,1,2024/02/19_14:13:30,YZ,None,
4,./instructions/inst_prac_1/Slide27.png,right,0.8993420359911397,539.6727180499875,540.5720600859786,,,,,,,,,,,,,,,,,,,,,,,,,,,,,,,,,1,,,,,,,,,,,,,,,,,,,,,,,,,,,,,,,,,,,,,,,,,,,,,,66,148651,20,Female,1,2024/02/19_14:13:30,YZ,None,
5,./instructions/inst_prac_1/Slide28.png,right,0.7942154459888116,540.6021923699882,541.396407815977,,,,,,,,,,,,,,,,,,,,,,,,,,,,,,,,,1,,,,,,,,,,,,,,,,,,,,,,,,,,,,,,,,,,,,,,,,,,,,,,66,148651,20,Female,1,2024/02/19_14:13:30,YZ,None,
6,./instructions/inst_prac_1/Slide29.png,right,1.9882223879976664,541.4241411349794,543.4123635229771,,,,,,,,,,,,,,,,,,,,,,,,,,,,,,,,,1,,,,,,,,,,,,,,,,,,,,,,,,,,,,,,,,,,,,,,,,,,,,,,66,148651,20,Female,1,2024/02/19_14:13:30,YZ,None,
7,./instructions/inst_prac_1/Slide30.png,right,2.0826690099784173,543.4417403569969,545.5244093669753,,,,,,,,,,,,,,,,,,,,,,,,,,,,,,,,,1,,,,,,,,,,,,,,,,,,,,,,,,,,,,,,,,,,,,,,,,,,,,,,66,148651,20,Female,1,2024/02/19_14:13:30,YZ,None,
,,,,,,practice,0,23,1,1250,1,V,0,right,1.369397284986917,1,0,,,,,,,,,,,,,,,,,,,,,1,,,,,,,,,,,,,,,,,,,,,,,,,,,,,,,,,,,,,,,,,,,,,,66,148651,20,Female,1,2024/02/19_14:13:30,YZ,None,
,,,,,,practice,0,23,1,1250,2,V,1,left,0.8067917110165581,1,0,,,,,,,,,,,,,,,,,,,,,1,,,,,,,,,,,,,,,,,,,,,,,,,,,,,,,,,,,,,,,,,,,,,,66,148651,20,Female,1,2024/02/19_14:13:30,YZ,None,
,,,,,,practice,0,23,1,1250,3,F,0,right,0.5872305690136272,1,0,,,,,,,,,,,,,,,,,,,,,1,,,,,,,,,,,,,,,,,,,,,,,,,,,,,,,,,,,,,,,,,,,,,,66,148651,20,Female,1,2024/02/19_14:13:30,YZ,None,
,,,,,,practice,0,23,1,1250,4,N,0,right,0.7538456430193037,1,0,,,,,,,,,,,,,,,,,,,,,1,,,,,,,,,,,,,,,,,,,,,,,,,,,,,,,,,,,,,,,,,,,,,,66,148651,20,Female,1,2024/02/19_14:13:30,YZ,None,
,,,,,,practice,0,23,1,1250,5,V,0,right,0.6821502989914734,1,0,,,,,,,,,,,,,,,,,,,,,1,,,,,,,,,,,,,,,,,,,,,,,,,,,,,,,,,,,,,,,,,,,,,,66,148651,20,Female,1,2024/02/19_14:13:30,YZ,None,
,,,,,,practice,0,23,1,1250,6,V,1,left,0.37065355700906366,1,0,,,,,,,,,,,,,,,,,,,,,1,,,,,,,,,,,,,,,,,,,,,,,,,,,,,,,,,,,,,,,,,,,,,,66,148651,20,Female,1,2024/02/19_14:13:30,YZ,None,
,,,,,,practice,0,23,1,1250,7,Q,0,right,0.4328365180117544,1,0,,,,,,,,,,,,,,,,,,,,,1,,,,,,,,,,,,,,,,,,,,,,,,,,,,,,,,,,,,,,,,,,,,,,66,148651,20,Female,1,2024/02/19_14:13:30,YZ,None,
,,,,,,practice,0,23,1,1250,8,J,0,left,0.44323778100078925,0,0,,,,,,,,,,,,,,,,,,,,,1,,,,,,,,,,,,,,,,,,,,,,,,,,,,,,,,,,,,,,,,,,,,,,66,148651,20,Female,1,2024/02/19_14:13:30,YZ,None,
,,,,,,practice,0,23,1,1250,9,V,0,right,1.3780591470131185,1,0,,,,,,,,,,,,,,,,,,,,,1,,,,,,,,,,,,,,,,,,,,,,,,,,,,,,,,,,,,,,,,,,,,,,66,148651,20,Female,1,2024/02/19_14:13:30,YZ,None,
,,,,,,practice,0,23,1,1250,10,V,1,left,0.7162459550017957,1,0,,,,,,,,,,,,,,,,,,,,,1,,,,,,,,,,,,,,,,,,,,,,,,,,,,,,,,,,,,,,,,,,,,,,66,148651,20,Female,1,2024/02/19_14:13:30,YZ,None,
,,,,,,practice,0,23,1,1250,,,,,,,,0.9642857142857143,1.0,0.14285714285714285,0.8571428571428571,0.0,0.8571428571428572,0.7540448465064401,3,1,0,0,0,6,9,3,7,0,,,,1,,,,,,,,,,,,,,,,,,,,,,,,,,,,,,,,,,,,,,,,,,,,,,66,148651,20,Female,1,2024/02/19_14:13:30,YZ,None,
1,./instructions/inst_prac_1_next/Slide35.png,right,1.2809232439904008,564.0833970549866,565.364320298977,,,,,,,,,,,,,,,,,,,,,,,,,,,,,,,,,1,,,,,,,,,,,,,,,,,,,,,,,,,,,,,,,,,,,,,,,,,,,,,,66,148651,20,Female,1,2024/02/19_14:13:30,YZ,None,
,,,,,,practice,0,3,1,50,1,N,0,right,0.8440852620115038,1,0,,,,,,,,,,,,,,,,,,,,,1,,,,,,,,,,,,,,,,,,,,,,,,,,,,,,,,,,,,,,,,,,,,,,66,148651,20,Female,1,2024/02/19_14:13:30,YZ,None,
,,,,,,practice,0,3,1,50,2,C,0,right,0.3483678130141925,1,0,,,,,,,,,,,,,,,,,,,,,1,,,,,,,,,,,,,,,,,,,,,,,,,,,,,,,,,,,,,,,,,,,,,,66,148651,20,Female,1,2024/02/19_14:13:30,YZ,None,
,,,,,,practice,0,3,1,50,3,C,1,left,0.41746530699310824,1,0,,,,,,,,,,,,,,,,,,,,,1,,,,,,,,,,,,,,,,,,,,,,,,,,,,,,,,,,,,,,,,,,,,,,66,148651,20,Female,1,2024/02/19_14:13:30,YZ,None,
,,,,,,practice,0,3,1,50,4,Q,0,right,0.4180378660093993,1,0,,,,,,,,,,,,,,,,,,,,,1,,,,,,,,,,,,,,,,,,,,,,,,,,,,,,,,,,,,,,,,,,,,,,66,148651,20,Female,1,2024/02/19_14:13:30,YZ,None,
,,,,,,practice,0,3,1,50,5,X,0,right,0.3832889180048369,1,0,,,,,,,,,,,,,,,,,,,,,1,,,,,,,,,,,,,,,,,,,,,,,,,,,,,,,,,,,,,,,,,,,,,,66,148651,20,Female,1,2024/02/19_14:13:30,YZ,None,
,,,,,,practice,0,3,1,50,6,S,0,right,0.41908601101022214,1,0,,,,,,,,,,,,,,,,,,,,,1,,,,,,,,,,,,,,,,,,,,,,,,,,,,,,,,,,,,,,,,,,,,,,66,148651,20,Female,1,2024/02/19_14:13:30,YZ,None,
,,,,,,practice,0,3,1,50,7,S,1,left,0.5527721770049538,1,0,,,,,,,,,,,,,,,,,,,,,1,,,,,,,,,,,,,,,,,,,,,,,,,,,,,,,,,,,,,,,,,,,,,,66,148651,20,Female,1,2024/02/19_14:13:30,YZ,None,
,,,,,,practice,0,3,1,50,8,V,0,right,0.4123013629869092,1,0,,,,,,,,,,,,,,,,,,,,,1,,,,,,,,,,,,,,,,,,,,,,,,,,,,,,,,,,,,,,,,,,,,,,66,148651,20,Female,1,2024/02/19_14:13:30,YZ,None,
,,,,,,practice,0,3,1,50,9,N,0,right,0.5520022159907967,1,0,,,,,,,,,,,,,,,,,,,,,1,,,,,,,,,,,,,,,,,,,,,,,,,,,,,,,,,,,,,,,,,,,,,,66,148651,20,Female,1,2024/02/19_14:13:30,YZ,None,
,,,,,,practice,0,3,1,50,10,V,0,right,0.6333173119928688,1,0,,,,,,,,,,,,,,,,,,,,,1,,,,,,,,,,,,,,,,,,,,,,,,,,,,,,,,,,,,,,,,,,,,,,66,148651,20,Female,1,2024/02/19_14:13:30,YZ,None,
,,,,,,practice,0,3,1,50,11,J,0,right,0.42415442399214953,1,0,,,,,,,,,,,,,,,,,,,,,1,,,,,,,,,,,,,,,,,,,,,,,,,,,,,,,,,,,,,,,,,,,,,,66,148651,20,Female,1,2024/02/19_14:13:30,YZ,None,
,,,,,,practice,0,3,1,50,12,J,1,left,0.596844334009802,1,0,,,,,,,,,,,,,,,,,,,,,1,,,,,,,,,,,,,,,,,,,,,,,,,,,,,,,,,,,,,,,,,,,,,,66,148651,20,Female,1,2024/02/19_14:13:30,YZ,None,
,,,,,,practice,0,3,1,50,13,Q,0,right,0.36433369701262563,1,0,,,,,,,,,,,,,,,,,,,,,1,,,,,,,,,,,,,,,,,,,,,,,,,,,,,,,,,,,,,,,,,,,,,,66,148651,20,Female,1,2024/02/19_14:13:30,YZ,None,
,,,,,,practice,0,3,1,50,14,J,0,right,0.6070866100199055,1,0,,,,,,,,,,,,,,,,,,,,,1,,,,,,,,,,,,,,,,,,,,,,,,,,,,,,,,,,,,,,,,,,,,,,66,148651,20,Female,1,2024/02/19_14:13:30,YZ,None,
,,,,,,practice,0,3,1,50,15,J,1,left,0.49755508301313967,1,0,,,,,,,,,,,,,,,,,,,,,1,,,,,,,,,,,,,,,,,,,,,,,,,,,,,,,,,,,,,,,,,,,,,,66,148651,20,Female,1,2024/02/19_14:13:30,YZ,None,
,,,,,,practice,0,3,1,50,16,Q,0,right,0.4507764280133415,1,0,,,,,,,,,,,,,,,,,,,,,1,,,,,,,,,,,,,,,,,,,,,,,,,,,,,,,,,,,,,,,,,,,,,,66,148651,20,Female,1,2024/02/19_14:13:30,YZ,None,
,,,,,,practice,0,3,1,50,17,Q,1,right,0.3913145519909449,0,0,,,,,,,,,,,,,,,,,,,,,1,,,,,,,,,,,,,,,,,,,,,,,,,,,,,,,,,,,,,,,,,,,,,,66,148651,20,Female,1,2024/02/19_14:13:30,YZ,None,
,,,,,,practice,0,3,1,50,18,V,0,right,0.576000547996955,1,0,,,,,,,,,,,,,,,,,,,,,1,,,,,,,,,,,,,,,,,,,,,,,,,,,,,,,,,,,,,,,,,,,,,,66,148651,20,Female,1,2024/02/19_14:13:30,YZ,None,
,,,,,,practice,0,3,1,50,19,V,1,left,0.43647004099329934,1,0,,,,,,,,,,,,,,,,,,,,,1,,,,,,,,,,,,,,,,,,,,,,,,,,,,,,,,,,,,,,,,,,,,,,66,148651,20,Female,1,2024/02/19_14:13:30,YZ,None,
,,,,,,practice,0,3,1,50,20,F,0,right,0.5278459410183132,1,0,,,,,,,,,,,,,,,,,,,,,1,,,,,,,,,,,,,,,,,,,,,,,,,,,,,,,,,,,,,,,,,,,,,,66,148651,20,Female,1,2024/02/19_14:13:30,YZ,None,
,,,,,,practice,0,3,1,50,21,S,0,right,0.3898321310116444,1,0,,,,,,,,,,,,,,,,,,,,,1,,,,,,,,,,,,,,,,,,,,,,,,,,,,,,,,,,,,,,,,,,,,,,66,148651,20,Female,1,2024/02/19_14:13:30,YZ,None,
,,,,,,practice,0,3,1,50,22,N,0,right,0.42392497800756246,1,0,,,,,,,,,,,,,,,,,,,,,1,,,,,,,,,,,,,,,,,,,,,,,,,,,,,,,,,,,,,,,,,,,,,,66,148651,20,Female,1,2024/02/19_14:13:30,YZ,None,
,,,,,,practice,0,3,1,50,23,X,0,right,0.42321336900931783,1,0,,,,,,,,,,,,,,,,,,,,,1,,,,,,,,,,,,,,,,,,,,,,,,,,,,,,,,,,,,,,,,,,,,,,66,148651,20,Female,1,2024/02/19_14:13:30,YZ,None,
,,,,,,practice,0,3,1,50,24,J,0,right,0.3517326540022623,1,0,,,,,,,,,,,,,,,,,,,,,1,,,,,,,,,,,,,,,,,,,,,,,,,,,,,,,,,,,,,,,,,,,,,,66,148651,20,Female,1,2024/02/19_14:13:30,YZ,None,
,,,,,,practice,0,3,1,50,25,F,0,right,0.39298970499658026,1,0,,,,,,,,,,,,,,,,,,,,,1,,,,,,,,,,,,,,,,,,,,,,,,,,,,,,,,,,,,,,,,,,,,,,66,148651,20,Female,1,2024/02/19_14:13:30,YZ,None,
,,,,,,practice,0,3,1,50,,,,,,,,0.9583333333333334,0.8333333333333334,0.0,1.0,0.0,1.0,0.4733919496042654,5,0,0,0,0,19,24,6,19,0,,,,1,,,,,,,,,,,,,,,,,,,,,,,,,,,,,,,,,,,,,,,,,,,,,,66,148651,20,Female,1,2024/02/19_14:13:30,YZ,None,
,,,,,,practice,0,29,1,50,1,Q,0,right,0.44337204098701477,1,0,,,,,,,,,,,,,,,,,,,,,1,,,,,,,,,,,,,,,,,,,,,,,,,,,,,,,,,,,,,,,,,,,,,,66,148651,20,Female,1,2024/02/19_14:13:30,YZ,None,
,,,,,,practice,0,29,1,50,2,S,0,right,0.3755014890048187,1,0,,,,,,,,,,,,,,,,,,,,,1,,,,,,,,,,,,,,,,,,,,,,,,,,,,,,,,,,,,,,,,,,,,,,66,148651,20,Female,1,2024/02/19_14:13:30,YZ,None,
,,,,,,practice,0,29,1,50,3,V,0,right,0.3535125449998304,1,0,,,,,,,,,,,,,,,,,,,,,1,,,,,,,,,,,,,,,,,,,,,,,,,,,,,,,,,,,,,,,,,,,,,,66,148651,20,Female,1,2024/02/19_14:13:30,YZ,None,
,,,,,,practice,0,29,1,50,4,V,1,left,0.510843923984794,1,0,,,,,,,,,,,,,,,,,,,,,1,,,,,,,,,,,,,,,,,,,,,,,,,,,,,,,,,,,,,,,,,,,,,,66,148651,20,Female,1,2024/02/19_14:13:30,YZ,None,
,,,,,,practice,0,29,1,50,5,C,0,right,0.36623427900485694,1,0,,,,,,,,,,,,,,,,,,,,,1,,,,,,,,,,,,,,,,,,,,,,,,,,,,,,,,,,,,,,,,,,,,,,66,148651,20,Female,1,2024/02/19_14:13:30,YZ,None,
,,,,,,practice,0,29,1,50,6,F,0,right,0.3550151259987615,1,0,,,,,,,,,,,,,,,,,,,,,1,,,,,,,,,,,,,,,,,,,,,,,,,,,,,,,,,,,,,,,,,,,,,,66,148651,20,Female,1,2024/02/19_14:13:30,YZ,None,
,,,,,,practice,0,29,1,50,7,F,1,left,0.420346080994932,1,0,,,,,,,,,,,,,,,,,,,,,1,,,,,,,,,,,,,,,,,,,,,,,,,,,,,,,,,,,,,,,,,,,,,,66,148651,20,Female,1,2024/02/19_14:13:30,YZ,None,
,,,,,,practice,0,29,1,50,8,N,0,right,0.36812819199985825,1,0,,,,,,,,,,,,,,,,,,,,,1,,,,,,,,,,,,,,,,,,,,,,,,,,,,,,,,,,,,,,,,,,,,,,66,148651,20,Female,1,2024/02/19_14:13:30,YZ,None,
,,,,,,practice,0,29,1,50,9,N,1,left,0.37044838900328614,1,0,,,,,,,,,,,,,,,,,,,,,1,,,,,,,,,,,,,,,,,,,,,,,,,,,,,,,,,,,,,,,,,,,,,,66,148651,20,Female,1,2024/02/19_14:13:30,YZ,None,
,,,,,,practice,0,29,1,50,10,C,0,right,0.36409516699495725,1,0,,,,,,,,,,,,,,,,,,,,,1,,,,,,,,,,,,,,,,,,,,,,,,,,,,,,,,,,,,,,,,,,,,,,66,148651,20,Female,1,2024/02/19_14:13:30,YZ,None,
,,,,,,practice,0,29,1,50,11,J,0,right,0.37008210699423216,1,0,,,,,,,,,,,,,,,,,,,,,1,,,,,,,,,,,,,,,,,,,,,,,,,,,,,,,,,,,,,,,,,,,,,,66,148651,20,Female,1,2024/02/19_14:13:30,YZ,None,
,,,,,,practice,0,29,1,50,12,X,0,right,0.4521151520020794,1,0,,,,,,,,,,,,,,,,,,,,,1,,,,,,,,,,,,,,,,,,,,,,,,,,,,,,,,,,,,,,,,,,,,,,66,148651,20,Female,1,2024/02/19_14:13:30,YZ,None,
,,,,,,practice,0,29,1,50,13,C,0,right,0.38433217999408953,1,0,,,,,,,,,,,,,,,,,,,,,1,,,,,,,,,,,,,,,,,,,,,,,,,,,,,,,,,,,,,,,,,,,,,,66,148651,20,Female,1,2024/02/19_14:13:30,YZ,None,
,,,,,,practice,0,29,1,50,14,C,1,left,0.5006975190190133,1,0,,,,,,,,,,,,,,,,,,,,,1,,,,,,,,,,,,,,,,,,,,,,,,,,,,,,,,,,,,,,,,,,,,,,66,148651,20,Female,1,2024/02/19_14:13:30,YZ,None,
,,,,,,practice,0,29,1,50,15,N,0,right,0.3060934220266063,1,0,,,,,,,,,,,,,,,,,,,,,1,,,,,,,,,,,,,,,,,,,,,,,,,,,,,,,,,,,,,,,,,,,,,,66,148651,20,Female,1,2024/02/19_14:13:30,YZ,None,
,,,,,,practice,0,29,1,50,16,J,0,right,0.420733114995528,1,0,,,,,,,,,,,,,,,,,,,,,1,,,,,,,,,,,,,,,,,,,,,,,,,,,,,,,,,,,,,,,,,,,,,,66,148651,20,Female,1,2024/02/19_14:13:30,YZ,None,
,,,,,,practice,0,29,1,50,17,C,0,right,0.639517989999149,1,0,,,,,,,,,,,,,,,,,,,,,1,,,,,,,,,,,,,,,,,,,,,,,,,,,,,,,,,,,,,,,,,,,,,,66,148651,20,Female,1,2024/02/19_14:13:30,YZ,None,
,,,,,,practice,0,29,1,50,18,Q,0,right,0.3865363829827402,1,0,,,,,,,,,,,,,,,,,,,,,1,,,,,,,,,,,,,,,,,,,,,,,,,,,,,,,,,,,,,,,,,,,,,,66,148651,20,Female,1,2024/02/19_14:13:30,YZ,None,
,,,,,,practice,0,29,1,50,19,X,0,right,0.38458512199576944,1,0,,,,,,,,,,,,,,,,,,,,,1,,,,,,,,,,,,,,,,,,,,,,,,,,,,,,,,,,,,,,,,,,,,,,66,148651,20,Female,1,2024/02/19_14:13:30,YZ,None,
,,,,,,practice,0,29,1,50,20,S,0,right,0.3839353900111746,1,0,,,,,,,,,,,,,,,,,,,,,1,,,,,,,,,,,,,,,,,,,,,,,,,,,,,,,,,,,,,,,,,,,,,,66,148651,20,Female,1,2024/02/19_14:13:30,YZ,None,
,,,,,,practice,0,29,1,50,21,V,0,right,0.3564988219877705,1,0,,,,,,,,,,,,,,,,,,,,,1,,,,,,,,,,,,,,,,,,,,,,,,,,,,,,,,,,,,,,,,,,,,,,66,148651,20,Female,1,2024/02/19_14:13:30,YZ,None,
,,,,,,practice,0,29,1,50,22,V,1,left,0.4096138479944784,1,0,,,,,,,,,,,,,,,,,,,,,1,,,,,,,,,,,,,,,,,,,,,,,,,,,,,,,,,,,,,,,,,,,,,,66,148651,20,Female,1,2024/02/19_14:13:30,YZ,None,
,,,,,,practice,0,29,1,50,23,C,0,right,0.3004139250260778,1,0,,,,,,,,,,,,,,,,,,,,,1,,,,,,,,,,,,,,,,,,,,,,,,,,,,,,,,,,,,,,,,,,,,,,66,148651,20,Female,1,2024/02/19_14:13:30,YZ,None,
,,,,,,practice,0,29,1,50,24,Q,0,right,0.4479929590015672,1,0,,,,,,,,,,,,,,,,,,,,,1,,,,,,,,,,,,,,,,,,,,,,,,,,,,,,,,,,,,,,,,,,,,,,66,148651,20,Female,1,2024/02/19_14:13:30,YZ,None,
,,,,,,practice,0,29,1,50,25,Q,1,right,0.34039247801410966,0,0,,,,,,,,,,,,,,,,,,,,,1,,,,,,,,,,,,,,,,,,,,,,,,,,,,,,,,,,,,,,,,,,,,,,66,148651,20,Female,1,2024/02/19_14:13:30,YZ,None,
,,,,,,practice,0,29,1,50,,,,,,,,0.9583333333333334,0.8333333333333334,0.0,1.0,0.0,1.0,0.4004415058006998,5,0,0,0,0,19,24,6,19,0,,,,1,,,,,,,,,,,,,,,,,,,,,,,,,,,,,,,,,,,,,,,,,,,,,,66,148651,20,Female,1,2024/02/19_14:13:30,YZ,None,
1,./instructions/inst_prac_3/Slide37.png,right,6.793297832016833,617.5790041189757,624.3723019509926,,,,,,,,,,,,,,,,,,,,,,,,,,,,,,,,,1,,,,,,,,,,,,,,,,,,,,,,,,,,,,,,,,,,,,,,,,,,,,,,66,148651,20,Female,1,2024/02/19_14:13:30,YZ,None,
2,./instructions/inst_prac_3/Slide38.png,right,2.4514795639843214,624.4007779929962,626.8522575569805,,,,,,,,,,,,,,,,,,,,,,,,,,,,,,,,,1,,,,,,,,,,,,,,,,,,,,,,,,,,,,,,,,,,,,,,,,,,,,,,66,148651,20,Female,1,2024/02/19_14:13:30,YZ,None,
3,./instructions/inst_prac_3/Slide39.png,right,0.45860934897791594,626.8816633929964,627.3402727419743,,,,,,,,,,,,,,,,,,,,,,,,,,,,,,,,,1,,,,,,,,,,,,,,,,,,,,,,,,,,,,,,,,,,,,,,,,,,,,,,66,148651,20,Female,1,2024/02/19_14:13:30,YZ,None,
4,./instructions/inst_prac_3/Slide40.png,right,0.4668564849998802,627.3694650059915,627.8363214909914,,,,,,,,,,,,,,,,,,,,,,,,,,,,,,,,,1,,,,,,,,,,,,,,,,,,,,,,,,,,,,,,,,,,,,,,,,,,,,,,66,148651,20,Female,1,2024/02/19_14:13:30,YZ,None,
5,./instructions/inst_prac_3/Slide41.png,right,0.6990094450011384,627.8653207829921,628.5643302279932,,,,,,,,,,,,,,,,,,,,,,,,,,,,,,,,,1,,,,,,,,,,,,,,,,,,,,,,,,,,,,,,,,,,,,,,,,,,,,,,66,148651,20,Female,1,2024/02/19_14:13:30,YZ,None,
6,./instructions/inst_prac_3/Slide42.png,right,0.7050969300034922,628.5871386569925,629.292235586996,,,,,,,,,,,,,,,,,,,,,,,,,,,,,,,,,1,,,,,,,,,,,,,,,,,,,,,,,,,,,,,,,,,,,,,,,,,,,,,,66,148651,20,Female,1,2024/02/19_14:13:30,YZ,None,
7,./instructions/inst_prac_3/Slide43.png,right,2.1713278479874134,629.3210340449878,631.4923618929752,,,,,,,,,,,,,,,,,,,,,,,,,,,,,,,,,1,,,,,,,,,,,,,,,,,,,,,,,,,,,,,,,,,,,,,,,,,,,,,,66,148651,20,Female,1,2024/02/19_14:13:30,YZ,None,
8,./instructions/inst_prac_3/Slide44.png,right,1.394511150981998,631.5217461430002,632.9162572939822,,,,,,,,,,,,,,,,,,,,,,,,,,,,,,,,,1,,,,,,,,,,,,,,,,,,,,,,,,,,,,,,,,,,,,,,,,,,,,,,66,148651,20,Female,1,2024/02/19_14:13:30,YZ,None,
,,,,,,practice,0,19,3,788,1,C,0,right,0.8661608099937439,1,0,,,,,,,,,,,,,,,,,,,,,1,,,,,,,,,,,,,,,,,,,,,,,,,,,,,,,,,,,,,,,,,,,,,,66,148651,20,Female,1,2024/02/19_14:13:30,YZ,None,
,,,,,,practice,0,19,3,788,2,F,0,right,0.5093355670105666,1,0,,,,,,,,,,,,,,,,,,,,,1,,,,,,,,,,,,,,,,,,,,,,,,,,,,,,,,,,,,,,,,,,,,,,66,148651,20,Female,1,2024/02/19_14:13:30,YZ,None,
,,,,,,practice,0,19,3,788,3,Q,0,right,0.4734832819958683,1,0,,,,,,,,,,,,,,,,,,,,,1,,,,,,,,,,,,,,,,,,,,,,,,,,,,,,,,,,,,,,,,,,,,,,66,148651,20,Female,1,2024/02/19_14:13:30,YZ,None,
,,,,,,practice,0,19,3,788,4,C,1,left,2.1473358630028088,1,0,,,,,,,,,,,,,,,,,,,,,1,,,,,,,,,,,,,,,,,,,,,,,,,,,,,,,,,,,,,,,,,,,,,,66,148651,20,Female,1,2024/02/19_14:13:30,YZ,None,
,,,,,,practice,0,19,3,788,5,Q,0,right,0.6990980900009163,1,0,,,,,,,,,,,,,,,,,,,,,1,,,,,,,,,,,,,,,,,,,,,,,,,,,,,,,,,,,,,,,,,,,,,,66,148651,20,Female,1,2024/02/19_14:13:30,YZ,None,
,,,,,,practice,0,19,3,788,6,J,0,right,0.46008855500258505,1,0,,,,,,,,,,,,,,,,,,,,,1,,,,,,,,,,,,,,,,,,,,,,,,,,,,,,,,,,,,,,,,,,,,,,66,148651,20,Female,1,2024/02/19_14:13:30,YZ,None,
,,,,,,practice,0,19,3,788,7,X,0,right,1.0414602090022527,1,0,,,,,,,,,,,,,,,,,,,,,1,,,,,,,,,,,,,,,,,,,,,,,,,,,,,,,,,,,,,,,,,,,,,,66,148651,20,Female,1,2024/02/19_14:13:30,YZ,None,
,,,,,,practice,0,19,3,788,8,Q,1,left,1.1022672149993014,1,0,,,,,,,,,,,,,,,,,,,,,1,,,,,,,,,,,,,,,,,,,,,,,,,,,,,,,,,,,,,,,,,,,,,,66,148651,20,Female,1,2024/02/19_14:13:30,YZ,None,
,,,,,,practice,0,19,3,788,9,J,1,left,1.1024003479979,1,0,,,,,,,,,,,,,,,,,,,,,1,,,,,,,,,,,,,,,,,,,,,,,,,,,,,,,,,,,,,,,,,,,,,,66,148651,20,Female,1,2024/02/19_14:13:30,YZ,None,
,,,,,,practice,0,19,3,788,10,N,0,right,0.6069537520234007,1,0,,,,,,,,,,,,,,,,,,,,,1,,,,,,,,,,,,,,,,,,,,,,,,,,,,,,,,,,,,,,,,,,,,,,66,148651,20,Female,1,2024/02/19_14:13:30,YZ,None,
,,,,,,practice,0,19,3,788,11,S,0,right,0.5312404589785729,1,0,,,,,,,,,,,,,,,,,,,,,1,,,,,,,,,,,,,,,,,,,,,,,,,,,,,,,,,,,,,,,,,,,,,,66,148651,20,Female,1,2024/02/19_14:13:30,YZ,None,
,,,,,,practice,0,19,3,788,12,J,1,left,0.7295402029994875,1,0,,,,,,,,,,,,,,,,,,,,,1,,,,,,,,,,,,,,,,,,,,,,,,,,,,,,,,,,,,,,,,,,,,,,66,148651,20,Female,1,2024/02/19_14:13:30,YZ,None,
,,,,,,practice,0,19,3,788,13,S,0,right,0.7505243500054348,1,0,,,,,,,,,,,,,,,,,,,,,1,,,,,,,,,,,,,,,,,,,,,,,,,,,,,,,,,,,,,,,,,,,,,,66,148651,20,Female,1,2024/02/19_14:13:30,YZ,None,
,,,,,,practice,0,19,3,788,,,,,,,,1.0,1.0,0.0,1.0,0.0,1.0,0.847683746385603,4,0,0,0,0,9,13,4,9,0,,,,1,,,,,,,,,,,,,,,,,,,,,,,,,,,,,,,,,,,,,,,,,,,,,,66,148651,20,Female,1,2024/02/19_14:13:30,YZ,None,
1,./instructions/inst_prac_3_next/Slide49.png,right,4.397385524993297,657.5909229909885,661.9883085159818,,,,,,,,,,,,,,,,,,,,,,,,,,,,,,,,,1,,,,,,,,,,,,,,,,,,,,,,,,,,,,,,,,,,,,,,,,,,,,,,66,148651,20,Female,1,2024/02/19_14:13:30,YZ,None,
,,,,,,practice,0,21,3,50,1,C,0,right,0.61461928699282,1,0,,,,,,,,,,,,,,,,,,,,,1,,,,,,,,,,,,,,,,,,,,,,,,,,,,,,,,,,,,,,,,,,,,,,66,148651,20,Female,1,2024/02/19_14:13:30,YZ,None,
,,,,,,practice,0,21,3,50,2,F,0,right,0.7264511630055495,1,0,,,,,,,,,,,,,,,,,,,,,1,,,,,,,,,,,,,,,,,,,,,,,,,,,,,,,,,,,,,,,,,,,,,,66,148651,20,Female,1,2024/02/19_14:13:30,YZ,None,
,,,,,,practice,0,21,3,50,3,N,0,right,0.43641094100894406,1,0,,,,,,,,,,,,,,,,,,,,,1,,,,,,,,,,,,,,,,,,,,,,,,,,,,,,,,,,,,,,,,,,,,,,66,148651,20,Female,1,2024/02/19_14:13:30,YZ,None,
,,,,,,practice,0,21,3,50,4,C,1,left,0.6091700049873907,1,0,,,,,,,,,,,,,,,,,,,,,1,,,,,,,,,,,,,,,,,,,,,,,,,,,,,,,,,,,,,,,,,,,,,,66,148651,20,Female,1,2024/02/19_14:13:30,YZ,None,
,,,,,,practice,0,21,3,50,5,V,0,right,1.2953655179881025,1,0,,,,,,,,,,,,,,,,,,,,,1,,,,,,,,,,,,,,,,,,,,,,,,,,,,,,,,,,,,,,,,,,,,,,66,148651,20,Female,1,2024/02/19_14:13:30,YZ,None,
,,,,,,practice,0,21,3,50,6,N,1,left,0.6649138579959981,1,0,,,,,,,,,,,,,,,,,,,,,1,,,,,,,,,,,,,,,,,,,,,,,,,,,,,,,,,,,,,,,,,,,,,,66,148651,20,Female,1,2024/02/19_14:13:30,YZ,None,
,,,,,,practice,0,21,3,50,7,J,0,right,1.3883802159980405,1,0,,,,,,,,,,,,,,,,,,,,,1,,,,,,,,,,,,,,,,,,,,,,,,,,,,,,,,,,,,,,,,,,,,,,66,148651,20,Female,1,2024/02/19_14:13:30,YZ,None,
,,,,,,practice,0,21,3,50,8,S,0,right,0.8324155530135613,1,0,,,,,,,,,,,,,,,,,,,,,1,,,,,,,,,,,,,,,,,,,,,,,,,,,,,,,,,,,,,,,,,,,,,,66,148651,20,Female,1,2024/02/19_14:13:30,YZ,None,
,,,,,,practice,0,21,3,50,9,N,1,left,1.5613113410072401,1,0,,,,,,,,,,,,,,,,,,,,,1,,,,,,,,,,,,,,,,,,,,,,,,,,,,,,,,,,,,,,,,,,,,,,66,148651,20,Female,1,2024/02/19_14:13:30,YZ,None,
,,,,,,practice,0,21,3,50,10,N,0,right,0.8518795600102749,1,0,,,,,,,,,,,,,,,,,,,,,1,,,,,,,,,,,,,,,,,,,,,,,,,,,,,,,,,,,,,,,,,,,,,,66,148651,20,Female,1,2024/02/19_14:13:30,YZ,None,
,,,,,,practice,0,21,3,50,11,S,1,left,1.8893342270166613,1,0,,,,,,,,,,,,,,,,,,,,,1,,,,,,,,,,,,,,,,,,,,,,,,,,,,,,,,,,,,,,,,,,,,,,66,148651,20,Female,1,2024/02/19_14:13:30,YZ,None,
,,,,,,practice,0,21,3,50,12,J,0,left,1.3193890159891453,0,0,,,,,,,,,,,,,,,,,,,,,1,,,,,,,,,,,,,,,,,,,,,,,,,,,,,,,,,,,,,,,,,,,,,,66,148651,20,Female,1,2024/02/19_14:13:30,YZ,None,
,,,,,,practice,0,21,3,50,13,Q,0,right,1.0057367700210307,1,0,,,,,,,,,,,,,,,,,,,,,1,,,,,,,,,,,,,,,,,,,,,,,,,,,,,,,,,,,,,,,,,,,,,,66,148651,20,Female,1,2024/02/19_14:13:30,YZ,None,
,,,,,,practice,0,21,3,50,14,C,0,right,1.2018286639940925,1,0,,,,,,,,,,,,,,,,,,,,,1,,,,,,,,,,,,,,,,,,,,,,,,,,,,,,,,,,,,,,,,,,,,,,66,148651,20,Female,1,2024/02/19_14:13:30,YZ,None,
,,,,,,practice,0,21,3,50,15,F,0,right,0.6956282299943268,1,0,,,,,,,,,,,,,,,,,,,,,1,,,,,,,,,,,,,,,,,,,,,,,,,,,,,,,,,,,,,,,,,,,,,,66,148651,20,Female,1,2024/02/19_14:13:30,YZ,None,
,,,,,,practice,0,21,3,50,16,J,0,right,2.687076479982352,1,0,,,,,,,,,,,,,,,,,,,,,1,,,,,,,,,,,,,,,,,,,,,,,,,,,,,,,,,,,,,,,,,,,,,,66,148651,20,Female,1,2024/02/19_14:13:30,YZ,None,
,,,,,,practice,0,21,3,50,17,Q,0,left,0.836253254004987,0,0,,,,,,,,,,,,,,,,,,,,,1,,,,,,,,,,,,,,,,,,,,,,,,,,,,,,,,,,,,,,,,,,,,,,66,148651,20,Female,1,2024/02/19_14:13:30,YZ,None,
,,,,,,practice,0,21,3,50,18,N,0,right,1.4568595020100474,1,0,,,,,,,,,,,,,,,,,,,,,1,,,,,,,,,,,,,,,,,,,,,,,,,,,,,,,,,,,,,,,,,,,,,,66,148651,20,Female,1,2024/02/19_14:13:30,YZ,None,
,,,,,,practice,0,21,3,50,19,V,0,right,0.7760622059868183,1,0,,,,,,,,,,,,,,,,,,,,,1,,,,,,,,,,,,,,,,,,,,,,,,,,,,,,,,,,,,,,,,,,,,,,66,148651,20,Female,1,2024/02/19_14:13:30,YZ,None,
,,,,,,practice,0,21,3,50,20,Q,1,right,1.5054212749819271,0,0,,,,,,,,,,,,,,,,,,,,,1,,,,,,,,,,,,,,,,,,,,,,,,,,,,,,,,,,,,,,,,,,,,,,66,148651,20,Female,1,2024/02/19_14:13:30,YZ,None,
,,,,,,practice,0,21,3,50,21,F,0,left,0.9121838160208426,0,0,,,,,,,,,,,,,,,,,,,,,1,,,,,,,,,,,,,,,,,,,,,,,,,,,,,,,,,,,,,,,,,,,,,,66,148651,20,Female,1,2024/02/19_14:13:30,YZ,None,
,,,,,,practice,0,21,3,50,22,Q,0,right,1.9081719889945816,1,0,,,,,,,,,,,,,,,,,,,,,1,,,,,,,,,,,,,,,,,,,,,,,,,,,,,,,,,,,,,,,,,,,,,,66,148651,20,Female,1,2024/02/19_14:13:30,YZ,None,
,,,,,,practice,0,21,3,50,23,N,0,right,1.1694940919987857,1,0,,,,,,,,,,,,,,,,,,,,,1,,,,,,,,,,,,,,,,,,,,,,,,,,,,,,,,,,,,,,,,,,,,,,66,148651,20,Female,1,2024/02/19_14:13:30,YZ,None,
,,,,,,practice,0,21,3,50,24,F,1,right,1.7191069239925127,0,0,,,,,,,,,,,,,,,,,,,,,1,,,,,,,,,,,,,,,,,,,,,,,,,,,,,,,,,,,,,,,,,,,,,,66,148651,20,Female,1,2024/02/19_14:13:30,YZ,None,
,,,,,,practice,0,21,3,50,25,Q,1,left,0.9286669720022473,1,0,,,,,,,,,,,,,,,,,,,,,1,,,,,,,,,,,,,,,,,,,,,,,,,,,,,,,,,,,,,,,,,,,,,,66,148651,20,Female,1,2024/02/19_14:13:30,YZ,None,
,,,,,,practice,0,21,3,50,,,,,,,,0.8392857142857142,0.7142857142857143,0.16666666666666666,0.8333333333333334,0.0,0.8333333333333334,1.159685234359931,5,3,0,0,0,15,20,7,18,0,,,,1,,,,,,,,,,,,,,,,,,,,,,,,,,,,,,,,,,,,,,,,,,,,,,66,148651,20,Female,1,2024/02/19_14:13:30,YZ,None,
,,,,,,practice,0,33,3,50,1,Q,0,right,1.011356101022102,1,0,,,,,,,,,,,,,,,,,,,,,1,,,,,,,,,,,,,,,,,,,,,,,,,,,,,,,,,,,,,,,,,,,,,,66,148651,20,Female,1,2024/02/19_14:13:30,YZ,None,
,,,,,,practice,0,33,3,50,2,V,0,right,0.60930056401412,1,0,,,,,,,,,,,,,,,,,,,,,1,,,,,,,,,,,,,,,,,,,,,,,,,,,,,,,,,,,,,,,,,,,,,,66,148651,20,Female,1,2024/02/19_14:13:30,YZ,None,
,,,,,,practice,0,33,3,50,3,Q,0,right,0.8844739519990981,1,0,,,,,,,,,,,,,,,,,,,,,1,,,,,,,,,,,,,,,,,,,,,,,,,,,,,,,,,,,,,,,,,,,,,,66,148651,20,Female,1,2024/02/19_14:13:30,YZ,None,
,,,,,,practice,0,33,3,50,4,V,0,right,1.3367671970045194,1,0,,,,,,,,,,,,,,,,,,,,,1,,,,,,,,,,,,,,,,,,,,,,,,,,,,,,,,,,,,,,,,,,,,,,66,148651,20,Female,1,2024/02/19_14:13:30,YZ,None,
,,,,,,practice,0,33,3,50,5,V,1,left,3.316172720020404,1,0,,,,,,,,,,,,,,,,,,,,,1,,,,,,,,,,,,,,,,,,,,,,,,,,,,,,,,,,,,,,,,,,,,,,66,148651,20,Female,1,2024/02/19_14:13:30,YZ,None,
,,,,,,practice,0,33,3,50,6,Q,1,right,1.899311126995599,0,0,,,,,,,,,,,,,,,,,,,,,1,,,,,,,,,,,,,,,,,,,,,,,,,,,,,,,,,,,,,,,,,,,,,,66,148651,20,Female,1,2024/02/19_14:13:30,YZ,None,
,,,,,,practice,0,33,3,50,7,X,0,right,1.3329626799968537,1,0,,,,,,,,,,,,,,,,,,,,,1,,,,,,,,,,,,,,,,,,,,,,,,,,,,,,,,,,,,,,,,,,,,,,66,148651,20,Female,1,2024/02/19_14:13:30,YZ,None,
,,,,,,practice,0,33,3,50,8,Q,0,left,0.9757718099863268,0,0,,,,,,,,,,,,,,,,,,,,,1,,,,,,,,,,,,,,,,,,,,,,,,,,,,,,,,,,,,,,,,,,,,,,66,148651,20,Female,1,2024/02/19_14:13:30,YZ,None,
,,,,,,practice,0,33,3,50,9,Q,1,right,1.2161036799952853,0,0,,,,,,,,,,,,,,,,,,,,,1,,,,,,,,,,,,,,,,,,,,,,,,,,,,,,,,,,,,,,,,,,,,,,66,148651,20,Female,1,2024/02/19_14:13:30,YZ,None,
,,,,,,practice,0,33,3,50,10,V,0,left,1.7778308130218647,0,0,,,,,,,,,,,,,,,,,,,,,1,,,,,,,,,,,,,,,,,,,,,,,,,,,,,,,,,,,,,,,,,,,,,,66,148651,20,Female,1,2024/02/19_14:13:30,YZ,None,
,,,,,,practice,0,33,3,50,11,J,0,right,3.9770144070207607,1,0,,,,,,,,,,,,,,,,,,,,,1,,,,,,,,,,,,,,,,,,,,,,,,,,,,,,,,,,,,,,,,,,,,,,66,148651,20,Female,1,2024/02/19_14:13:30,YZ,None,
,,,,,,practice,0,33,3,50,12,X,0,right,1.9672957120055798,1,0,,,,,,,,,,,,,,,,,,,,,1,,,,,,,,,,,,,,,,,,,,,,,,,,,,,,,,,,,,,,,,,,,,,,66,148651,20,Female,1,2024/02/19_14:13:30,YZ,None,
,,,,,,practice,0,33,3,50,13,J,0,left,2.1405372440058272,0,0,,,,,,,,,,,,,,,,,,,,,1,,,,,,,,,,,,,,,,,,,,,,,,,,,,,,,,,,,,,,,,,,,,,,66,148651,20,Female,1,2024/02/19_14:13:30,YZ,None,
,,,,,,practice,0,33,3,50,14,J,1,right,2.7363729719945695,0,0,,,,,,,,,,,,,,,,,,,,,1,,,,,,,,,,,,,,,,,,,,,,,,,,,,,,,,,,,,,,,,,,,,,,66,148651,20,Female,1,2024/02/19_14:13:30,YZ,None,
,,,,,,practice,0,33,3,50,15,X,1,left,2.4647134900151286,1,0,,,,,,,,,,,,,,,,,,,,,1,,,,,,,,,,,,,,,,,,,,,,,,,,,,,,,,,,,,,,,,,,,,,,66,148651,20,Female,1,2024/02/19_14:13:30,YZ,None,
,,,,,,practice,0,33,3,50,16,V,0,right,3.8812772289966233,1,0,,,,,,,,,,,,,,,,,,,,,1,,,,,,,,,,,,,,,,,,,,,,,,,,,,,,,,,,,,,,,,,,,,,,66,148651,20,Female,1,2024/02/19_14:13:30,YZ,None,
,,,,,,practice,0,33,3,50,17,F,0,right,1.5720420079887845,1,0,,,,,,,,,,,,,,,,,,,,,1,,,,,,,,,,,,,,,,,,,,,,,,,,,,,,,,,,,,,,,,,,,,,,66,148651,20,Female,1,2024/02/19_14:13:30,YZ,None,
,,,,,,practice,0,33,3,50,18,N,0,right,2.913201028975891,1,0,,,,,,,,,,,,,,,,,,,,,1,,,,,,,,,,,,,,,,,,,,,,,,,,,,,,,,,,,,,,,,,,,,,,66,148651,20,Female,1,2024/02/19_14:13:30,YZ,None,
,,,,,,practice,0,33,3,50,19,J,0,right,3.0360038290091325,1,0,,,,,,,,,,,,,,,,,,,,,1,,,,,,,,,,,,,,,,,,,,,,,,,,,,,,,,,,,,,,,,,,,,,,66,148651,20,Female,1,2024/02/19_14:13:30,YZ,None,
,,,,,,practice,0,33,3,50,20,V,0,left,3.135604412993416,0,0,,,,,,,,,,,,,,,,,,,,,1,,,,,,,,,,,,,,,,,,,,,,,,,,,,,,,,,,,,,,,,,,,,,,66,148651,20,Female,1,2024/02/19_14:13:30,YZ,None,
,,,,,,practice,0,33,3,50,21,S,0,right,5.0015095269773155,1,0,,,,,,,,,,,,,,,,,,,,,1,,,,,,,,,,,,,,,,,,,,,,,,,,,,,,,,,,,,,,,,,,,,,,66,148651,20,Female,1,2024/02/19_14:13:30,YZ,None,
,,,,,,practice,0,33,3,50,22,Q,0,right,3.18393000998185,1,0,,,,,,,,,,,,,,,,,,,,,1,,,,,,,,,,,,,,,,,,,,,,,,,,,,,,,,,,,,,,,,,,,,,,66,148651,20,Female,1,2024/02/19_14:13:30,YZ,None,
,,,,,,practice,0,33,3,50,23,V,1,left,2.1937440439942293,1,0,,,,,,,,,,,,,,,,,,,,,1,,,,,,,,,,,,,,,,,,,,,,,,,,,,,,,,,,,,,,,,,,,,,,66,148651,20,Female,1,2024/02/19_14:13:30,YZ,None,
,,,,,,practice,0,33,3,50,24,Q,0,right,2.52138116399874,1,0,,,,,,,,,,,,,,,,,,,,,1,,,,,,,,,,,,,,,,,,,,,,,,,,,,,,,,,,,,,,,,,,,,,,66,148651,20,Female,1,2024/02/19_14:13:30,YZ,None,
,,,,,,practice,0,33,3,50,25,V,0,left,3.852542850014288,0,0,,,,,,,,,,,,,,,,,,,,,1,,,,,,,,,,,,,,,,,,,,,,,,,,,,,,,,,,,,,,,,,,,,,,66,148651,20,Female,1,2024/02/19_14:13:30,YZ,None,
,,,,,,practice,0,33,3,50,,,,,,,,0.6776315789473685,0.5,0.2631578947368421,0.7368421052631579,0.0,0.736842105263158,2.357488822881132,3,5,0,0,0,14,17,6,19,0,,,,1,,,,,,,,,,,,,,,,,,,,,,,,,,,,,,,,,,,,,,,,,,,,,,66,148651,20,Female,1,2024/02/19_14:13:30,YZ,None,
1,./instructions/inst_redo_3/Slide47.png,right,11.45122660198831,778.7610915529949,790.2123181549832,,,,,,,,,,,,,,,,,,,,,,,,,,,,,,,,,1,,,,,,,,,,,,,,,,,,,,,,,,,,,,,,,,,,,,,,,,,,,,,,66,148651,20,Female,1,2024/02/19_14:13:30,YZ,None,
,,,,,,practice,0,25,3,50,1,C,0,right,1.4527086570160463,1,0,,,,,,,,,,,,,,,,,,,,,1,,,,,,,,,,,,,,,,,,,,,,,,,,,,,,,,,,,,,,,,,,,,,,66,148651,20,Female,1,2024/02/19_14:13:30,YZ,None,
,,,,,,practice,0,25,3,50,2,S,0,right,1.6405156289984006,1,0,,,,,,,,,,,,,,,,,,,,,1,,,,,,,,,,,,,,,,,,,,,,,,,,,,,,,,,,,,,,,,,,,,,,66,148651,20,Female,1,2024/02/19_14:13:30,YZ,None,
,,,,,,practice,0,25,3,50,3,S,0,right,1.3282930950226728,1,0,,,,,,,,,,,,,,,,,,,,,1,,,,,,,,,,,,,,,,,,,,,,,,,,,,,,,,,,,,,,,,,,,,,,66,148651,20,Female,1,2024/02/19_14:13:30,YZ,None,
,,,,,,practice,0,25,3,50,4,C,1,left,0.48094008400221355,1,0,,,,,,,,,,,,,,,,,,,,,1,,,,,,,,,,,,,,,,,,,,,,,,,,,,,,,,,,,,,,,,,,,,,,66,148651,20,Female,1,2024/02/19_14:13:30,YZ,None,
,,,,,,practice,0,25,3,50,5,C,0,right,1.2511967339960393,1,0,,,,,,,,,,,,,,,,,,,,,1,,,,,,,,,,,,,,,,,,,,,,,,,,,,,,,,,,,,,,,,,,,,,,66,148651,20,Female,1,2024/02/19_14:13:30,YZ,None,
,,,,,,practice,0,25,3,50,6,N,0,right,0.9597205479803961,1,0,,,,,,,,,,,,,,,,,,,,,1,,,,,,,,,,,,,,,,,,,,,,,,,,,,,,,,,,,,,,,,,,,,,,66,148651,20,Female,1,2024/02/19_14:13:30,YZ,None,
,,,,,,practice,0,25,3,50,7,X,0,right,1.0836053119855933,1,0,,,,,,,,,,,,,,,,,,,,,1,,,,,,,,,,,,,,,,,,,,,,,,,,,,,,,,,,,,,,,,,,,,,,66,148651,20,Female,1,2024/02/19_14:13:30,YZ,None,
,,,,,,practice,0,25,3,50,8,Q,0,right,1.0331478200096171,1,0,,,,,,,,,,,,,,,,,,,,,1,,,,,,,,,,,,,,,,,,,,,,,,,,,,,,,,,,,,,,,,,,,,,,66,148651,20,Female,1,2024/02/19_14:13:30,YZ,None,
,,,,,,practice,0,25,3,50,9,J,0,right,0.9378238670178689,1,0,,,,,,,,,,,,,,,,,,,,,1,,,,,,,,,,,,,,,,,,,,,,,,,,,,,,,,,,,,,,,,,,,,,,66,148651,20,Female,1,2024/02/19_14:13:30,YZ,None,
,,,,,,practice,0,25,3,50,10,S,0,left,1.6724089219933376,0,0,,,,,,,,,,,,,,,,,,,,,1,,,,,,,,,,,,,,,,,,,,,,,,,,,,,,,,,,,,,,,,,,,,,,66,148651,20,Female,1,2024/02/19_14:13:30,YZ,None,
,,,,,,practice,0,25,3,50,11,S,0,right,1.0232327659905422,1,0,,,,,,,,,,,,,,,,,,,,,1,,,,,,,,,,,,,,,,,,,,,,,,,,,,,,,,,,,,,,,,,,,,,,66,148651,20,Female,1,2024/02/19_14:13:30,YZ,None,
,,,,,,practice,0,25,3,50,12,C,0,right,1.7435624259815086,1,0,,,,,,,,,,,,,,,,,,,,,1,,,,,,,,,,,,,,,,,,,,,,,,,,,,,,,,,,,,,,,,,,,,,,66,148651,20,Female,1,2024/02/19_14:13:30,YZ,None,
,,,,,,practice,0,25,3,50,13,S,1,left,1.1536863560031634,1,0,,,,,,,,,,,,,,,,,,,,,1,,,,,,,,,,,,,,,,,,,,,,,,,,,,,,,,,,,,,,,,,,,,,,66,148651,20,Female,1,2024/02/19_14:13:30,YZ,None,
,,,,,,practice,0,25,3,50,14,C,0,right,1.1108672199770808,1,0,,,,,,,,,,,,,,,,,,,,,1,,,,,,,,,,,,,,,,,,,,,,,,,,,,,,,,,,,,,,,,,,,,,,66,148651,20,Female,1,2024/02/19_14:13:30,YZ,None,
,,,,,,practice,0,25,3,50,15,J,0,right,2.4363845710176975,1,0,,,,,,,,,,,,,,,,,,,,,1,,,,,,,,,,,,,,,,,,,,,,,,,,,,,,,,,,,,,,,,,,,,,,66,148651,20,Female,1,2024/02/19_14:13:30,YZ,None,
,,,,,,practice,0,25,3,50,16,X,0,right,1.3363400830130558,1,0,,,,,,,,,,,,,,,,,,,,,1,,,,,,,,,,,,,,,,,,,,,,,,,,,,,,,,,,,,,,,,,,,,,,66,148651,20,Female,1,2024/02/19_14:13:30,YZ,None,
,,,,,,practice,0,25,3,50,17,Q,0,right,1.2199900980049279,1,0,,,,,,,,,,,,,,,,,,,,,1,,,,,,,,,,,,,,,,,,,,,,,,,,,,,,,,,,,,,,,,,,,,,,66,148651,20,Female,1,2024/02/19_14:13:30,YZ,None,
,,,,,,practice,0,25,3,50,18,N,0,right,1.232486948982114,1,0,,,,,,,,,,,,,,,,,,,,,1,,,,,,,,,,,,,,,,,,,,,,,,,,,,,,,,,,,,,,,,,,,,,,66,148651,20,Female,1,2024/02/19_14:13:30,YZ,None,
,,,,,,practice,0,25,3,50,19,X,1,left,2.833937766001327,1,0,,,,,,,,,,,,,,,,,,,,,1,,,,,,,,,,,,,,,,,,,,,,,,,,,,,,,,,,,,,,,,,,,,,,66,148651,20,Female,1,2024/02/19_14:13:30,YZ,None,
,,,,,,practice,0,25,3,50,20,C,0,left,1.8802426359907258,0,0,,,,,,,,,,,,,,,,,,,,,1,,,,,,,,,,,,,,,,,,,,,,,,,,,,,,,,,,,,,,,,,,,,,,66,148651,20,Female,1,2024/02/19_14:13:30,YZ,None,
,,,,,,practice,0,25,3,50,21,X,0,right,2.356085418985458,1,0,,,,,,,,,,,,,,,,,,,,,1,,,,,,,,,,,,,,,,,,,,,,,,,,,,,,,,,,,,,,,,,,,,,,66,148651,20,Female,1,2024/02/19_14:13:30,YZ,None,
,,,,,,practice,0,25,3,50,22,X,1,right,1.7849187259853352,0,0,,,,,,,,,,,,,,,,,,,,,1,,,,,,,,,,,,,,,,,,,,,,,,,,,,,,,,,,,,,,,,,,,,,,66,148651,20,Female,1,2024/02/19_14:13:30,YZ,None,
,,,,,,practice,0,25,3,50,23,C,1,left,0.9849587409989908,1,0,,,,,,,,,,,,,,,,,,,,,1,,,,,,,,,,,,,,,,,,,,,,,,,,,,,,,,,,,,,,,,,,,,,,66,148651,20,Female,1,2024/02/19_14:13:30,YZ,None,
