Instruction,Stimulus,Key,RT,START,END,Phase,Block,TrialN,NbackLevel,ISI,LetterN,Letter,Letter_isSame,Letter_Resp,Letter_RT,Letter_Accuracy,Letter_Timeout,Trial_A_measure,Trial_HR,Trial_FAR,Trial_CDR,Trial_MSR,Trial_ACC,Trial_RT,Trial_HitsCount,Trial_FAsCount,Trial_SameNoRespCount,Trial_DiffNoRespCount,Trial_NoRespCount,Trial_CDsCount,Trial_CorrectRespCount,Trial_SameLetterCount,Trial_DiffLetterCount,Trial_InvalidLetterCount,TrialCountCali,CaliEnd_A_measure,ISI_calibrated,Run,TrialIndex,TrialNumber_total,TrialNumber_valid,CueLearning,TrialDemandLearning,CueMapping,OnlineRating,OnlineRatingRT,OnlineRatingTimeOut,CueSTART,RatingSTART,OfflineRatingTimePoint,OfflineRatingQuesIndex,CueFigure,TrialDemand,OfflineRating,OfflineRatingRT,CueStart,OfflineRatingStart,PhaseType,CueLeft,CueDemandLeft,CueRight,CueDemandRight,Choice,ChoiceDemand,TaskDemand,ChoiceRT,ChoiceTimeOut,ChoiceSTART,CueCheck,CueDemandCheck,CorrectAnswer,Answer,AnswerDemand,AnswerRT,AnswerACC,AnswerTimeOut,CheckSTART,DemandRatingQuesIndex,QuesTLX,DemandLevel,DemandRating,DemandRatingRT,QuesStart,PID,SONA,Age,Gender,Run,TIME,EXPERIMENTER,frameRate,
1,./instructions/inst_begin/Slide2.png,right,19.943519435997587,0.112586889998056,20.056106325995643,,,,,,,,,,,,,,,,,,,,,,,,,,,,,,,,,1,,,,,,,,,,,,,,,,,,,,,,,,,,,,,,,,,,,,,,,,,,,,,,90,140914,21,Female,1,2024/03/14_12:04:15,YZ,None,
2,./instructions/inst_begin/Slide3.png,right,9.01200735598104,20.0841152590001,29.09612261498114,,,,,,,,,,,,,,,,,,,,,,,,,,,,,,,,,1,,,,,,,,,,,,,,,,,,,,,,,,,,,,,,,,,,,,,,,,,,,,,,90,140914,21,Female,1,2024/03/14_12:04:15,YZ,None,
3,./instructions/inst_begin/Slide4.png,right,6.020440658001462,29.12374282098608,35.14418347898754,,,,,,,,,,,,,,,,,,,,,,,,,,,,,,,,,1,,,,,,,,,,,,,,,,,,,,,,,,,,,,,,,,,,,,,,,,,,,,,,90,140914,21,Female,1,2024/03/14_12:04:15,YZ,None,
1,./instructions/inst_prac_2/Slide6.png,right,18.29420726498938,35.17800081599853,53.47220808098791,,,,,,,,,,,,,,,,,,,,,,,,,,,,,,,,,1,,,,,,,,,,,,,,,,,,,,,,,,,,,,,,,,,,,,,,,,,,,,,,90,140914,21,Female,1,2024/03/14_12:04:15,YZ,None,
2,./instructions/inst_prac_2/Slide7.png,right,21.62666277901735,53.501590957981534,75.12825373699889,,,,,,,,,,,,,,,,,,,,,,,,,,,,,,,,,1,,,,,,,,,,,,,,,,,,,,,,,,,,,,,,,,,,,,,,,,,,,,,,90,140914,21,Female,1,2024/03/14_12:04:15,YZ,None,
3,./instructions/inst_prac_2/Slide8.png,right,10.86710750599741,75.15720571798738,86.02431322398479,,,,,,,,,,,,,,,,,,,,,,,,,,,,,,,,,1,,,,,,,,,,,,,,,,,,,,,,,,,,,,,,,,,,,,,,,,,,,,,,90,140914,21,Female,1,2024/03/14_12:04:15,YZ,None,
4,./instructions/inst_prac_2/Slide9.png,right,0.20050862300558947,86.05046705299173,86.25097567599732,,,,,,,,,,,,,,,,,,,,,,,,,,,,,,,,,1,,,,,,,,,,,,,,,,,,,,,,,,,,,,,,,,,,,,,,,,,,,,,,90,140914,21,Female,1,2024/03/14_12:04:15,YZ,None,
5,./instructions/inst_prac_2/Slide10.png,right,9.398339515988482,86.27395729199634,95.67229680798482,,,,,,,,,,,,,,,,,,,,,,,,,,,,,,,,,1,,,,,,,,,,,,,,,,,,,,,,,,,,,,,,,,,,,,,,,,,,,,,,90,140914,21,Female,1,2024/03/14_12:04:15,YZ,None,
6,./instructions/inst_prac_2/Slide11.png,right,3.2027025199786294,95.70144755300134,98.90415007297997,,,,,,,,,,,,,,,,,,,,,,,,,,,,,,,,,1,,,,,,,,,,,,,,,,,,,,,,,,,,,,,,,,,,,,,,,,,,,,,,90,140914,21,Female,1,2024/03/14_12:04:15,YZ,None,
7,./instructions/inst_prac_2/Slide12.png,right,1.538582837994909,98.93362099598744,100.47220383398235,,,,,,,,,,,,,,,,,,,,,,,,,,,,,,,,,1,,,,,,,,,,,,,,,,,,,,,,,,,,,,,,,,,,,,,,,,,,,,,,90,140914,21,Female,1,2024/03/14_12:04:15,YZ,None,
8,./instructions/inst_prac_2/Slide13.png,right,1.7388805490045343,100.50121384300292,102.24009439200745,,,,,,,,,,,,,,,,,,,,,,,,,,,,,,,,,1,,,,,,,,,,,,,,,,,,,,,,,,,,,,,,,,,,,,,,,,,,,,,,90,140914,21,Female,1,2024/03/14_12:04:15,YZ,None,
9,./instructions/inst_prac_2/Slide14.png,right,9.673211966000963,102.27095570400706,111.94416767000803,,,,,,,,,,,,,,,,,,,,,,,,,,,,,,,,,1,,,,,,,,,,,,,,,,,,,,,,,,,,,,,,,,,,,,,,,,,,,,,,90,140914,21,Female,1,2024/03/14_12:04:15,YZ,None,
10,./instructions/inst_prac_2/Slide15.png,right,15.082236260990612,111.97397548198933,127.05621174297994,,,,,,,,,,,,,,,,,,,,,,,,,,,,,,,,,1,,,,,,,,,,,,,,,,,,,,,,,,,,,,,,,,,,,,,,,,,,,,,,90,140914,21,Female,1,2024/03/14_12:04:15,YZ,None,
,,,,,,practice,0,10,2,2583,1,Q,0,right,1.2494734579813667,1,0,,,,,,,,,,,,,,,,,,,,,1,,,,,,,,,,,,,,,,,,,,,,,,,,,,,,,,,,,,,,,,,,,,,,90,140914,21,Female,1,2024/03/14_12:04:15,YZ,None,
,,,,,,practice,0,10,2,2583,2,C,0,right,1.5213272130058613,1,0,,,,,,,,,,,,,,,,,,,,,1,,,,,,,,,,,,,,,,,,,,,,,,,,,,,,,,,,,,,,,,,,,,,,90,140914,21,Female,1,2024/03/14_12:04:15,YZ,None,
,,,,,,practice,0,10,2,2583,3,J,0,right,1.9594106239965186,1,0,,,,,,,,,,,,,,,,,,,,,1,,,,,,,,,,,,,,,,,,,,,,,,,,,,,,,,,,,,,,,,,,,,,,90,140914,21,Female,1,2024/03/14_12:04:15,YZ,None,
,,,,,,practice,0,10,2,2583,4,C,1,left,1.3725325039995369,1,0,,,,,,,,,,,,,,,,,,,,,1,,,,,,,,,,,,,,,,,,,,,,,,,,,,,,,,,,,,,,,,,,,,,,90,140914,21,Female,1,2024/03/14_12:04:15,YZ,None,
,,,,,,practice,0,10,2,2583,5,S,0,right,1.6958055160066579,1,0,,,,,,,,,,,,,,,,,,,,,1,,,,,,,,,,,,,,,,,,,,,,,,,,,,,,,,,,,,,,,,,,,,,,90,140914,21,Female,1,2024/03/14_12:04:15,YZ,None,
,,,,,,practice,0,10,2,2583,6,C,1,left,1.7340705700044055,1,0,,,,,,,,,,,,,,,,,,,,,1,,,,,,,,,,,,,,,,,,,,,,,,,,,,,,,,,,,,,,,,,,,,,,90,140914,21,Female,1,2024/03/14_12:04:15,YZ,None,
,,,,,,practice,0,10,2,2583,,,,,,,,1.0,1.0,0.0,1.0,0.0,1.0,1.5887699808323912,2,0,0,0,0,4,6,2,4,0,,,,1,,,,,,,,,,,,,,,,,,,,,,,,,,,,,,,,,,,,,,,,,,,,,,90,140914,21,Female,1,2024/03/14_12:04:15,YZ,None,
1,./instructions/inst_to_cali/Slide20.png,right,2.8127027800073847,142.9393863180012,145.75208909800858,,,,,,,,,,,,,,,,,,,,,,,,,,,,,,,,,1,,,,,,,,,,,,,,,,,,,,,,,,,,,,,,,,,,,,,,,,,,,,,,90,140914,21,Female,1,2024/03/14_12:04:15,YZ,None,
1,./instructions/inst_cali/Slide22.png,right,12.47012024500873,145.7861536339915,158.25627387900022,,,,,,,,,,,,,,,,,,,,,,,,,,,,,,,,,1,,,,,,,,,,,,,,,,,,,,,,,,,,,,,,,,,,,,,,,,,,,,,,90,140914,21,Female,1,2024/03/14_12:04:15,YZ,None,
,,,,,,calibration,0,25,2,583,1,N,0,right,0.8158232090063393,1,0,,,,,,,,,,,,,,,,,,,,,1,,,,,,,,,,,,,,,,,,,,,,,,,,,,,,,,,,,,,,,,,,,,,,90,140914,21,Female,1,2024/03/14_12:04:15,YZ,None,
,,,,,,calibration,0,25,2,583,2,X,0,right,0.5238319050113205,1,0,,,,,,,,,,,,,,,,,,,,,1,,,,,,,,,,,,,,,,,,,,,,,,,,,,,,,,,,,,,,,,,,,,,,90,140914,21,Female,1,2024/03/14_12:04:15,YZ,None,
,,,,,,calibration,0,25,2,583,3,S,0,right,0.5681196850200649,1,0,,,,,,,,,,,,,,,,,,,,,1,,,,,,,,,,,,,,,,,,,,,,,,,,,,,,,,,,,,,,,,,,,,,,90,140914,21,Female,1,2024/03/14_12:04:15,YZ,None,
,,,,,,calibration,0,25,2,583,4,V,0,left,0.7070605400076602,0,0,,,,,,,,,,,,,,,,,,,,,1,,,,,,,,,,,,,,,,,,,,,,,,,,,,,,,,,,,,,,,,,,,,,,90,140914,21,Female,1,2024/03/14_12:04:15,YZ,None,
,,,,,,calibration,0,25,2,583,5,C,0,right,1.181347995006945,1,0,,,,,,,,,,,,,,,,,,,,,1,,,,,,,,,,,,,,,,,,,,,,,,,,,,,,,,,,,,,,,,,,,,,,90,140914,21,Female,1,2024/03/14_12:04:15,YZ,None,
,,,,,,calibration,0,25,2,583,6,X,0,left,0.9258748180000111,0,0,,,,,,,,,,,,,,,,,,,,,1,,,,,,,,,,,,,,,,,,,,,,,,,,,,,,,,,,,,,,,,,,,,,,90,140914,21,Female,1,2024/03/14_12:04:15,YZ,None,
,,,,,,calibration,0,25,2,583,7,F,0,right,1.116289543977473,1,0,,,,,,,,,,,,,,,,,,,,,1,,,,,,,,,,,,,,,,,,,,,,,,,,,,,,,,,,,,,,,,,,,,,,90,140914,21,Female,1,2024/03/14_12:04:15,YZ,None,
,,,,,,calibration,0,25,2,583,8,V,0,left,1.6208087680279277,0,0,,,,,,,,,,,,,,,,,,,,,1,,,,,,,,,,,,,,,,,,,,,,,,,,,,,,,,,,,,,,,,,,,,,,90,140914,21,Female,1,2024/03/14_12:04:15,YZ,None,
,,,,,,calibration,0,25,2,583,9,J,0,right,0.8564986440178473,1,0,,,,,,,,,,,,,,,,,,,,,1,,,,,,,,,,,,,,,,,,,,,,,,,,,,,,,,,,,,,,,,,,,,,,90,140914,21,Female,1,2024/03/14_12:04:15,YZ,None,
,,,,,,calibration,0,25,2,583,10,Q,0,right,0.42906746501103044,1,0,,,,,,,,,,,,,,,,,,,,,1,,,,,,,,,,,,,,,,,,,,,,,,,,,,,,,,,,,,,,,,,,,,,,90,140914,21,Female,1,2024/03/14_12:04:15,YZ,None,
,,,,,,calibration,0,25,2,583,11,J,1,left,0.728732690011384,1,0,,,,,,,,,,,,,,,,,,,,,1,,,,,,,,,,,,,,,,,,,,,,,,,,,,,,,,,,,,,,,,,,,,,,90,140914,21,Female,1,2024/03/14_12:04:15,YZ,None,
,,,,,,calibration,0,25,2,583,12,Q,1,right,1.0373019319958985,0,0,,,,,,,,,,,,,,,,,,,,,1,,,,,,,,,,,,,,,,,,,,,,,,,,,,,,,,,,,,,,,,,,,,,,90,140914,21,Female,1,2024/03/14_12:04:15,YZ,None,
,,,,,,calibration,0,25,2,583,13,X,0,right,1.5304199869860895,1,0,,,,,,,,,,,,,,,,,,,,,1,,,,,,,,,,,,,,,,,,,,,,,,,,,,,,,,,,,,,,,,,,,,,,90,140914,21,Female,1,2024/03/14_12:04:15,YZ,None,
,,,,,,calibration,0,25,2,583,14,Q,1,left,0.9079245379834902,1,0,,,,,,,,,,,,,,,,,,,,,1,,,,,,,,,,,,,,,,,,,,,,,,,,,,,,,,,,,,,,,,,,,,,,90,140914,21,Female,1,2024/03/14_12:04:15,YZ,None,
,,,,,,calibration,0,25,2,583,15,X,1,left,1.0730108720017597,1,0,,,,,,,,,,,,,,,,,,,,,1,,,,,,,,,,,,,,,,,,,,,,,,,,,,,,,,,,,,,,,,,,,,,,90,140914,21,Female,1,2024/03/14_12:04:15,YZ,None,
,,,,,,calibration,0,25,2,583,,,,,,,,0.8011363636363638,0.75,0.2727272727272727,0.7272727272727273,0.0,0.7272727272727273,0.9348075061376827,3,3,0,0,0,8,11,4,11,0,,,,1,,,,,,,,,,,,,,,,,,,,,,,,,,,,,,,,,,,,,,,,,,,,,,90,140914,21,Female,1,2024/03/14_12:04:15,YZ,None,
,,,,,,Calibration,0,,2,583,,,,,,,,,,,,,,,,,,,,,,,,,1,,,1,,,,,,,,,,,,,,,,,,,,,,,,,,,,,,,,,,,,,,,,,,,,,,90,140914,21,Female,1,2024/03/14_12:04:15,YZ,None,
,,,,,,calibration,0,19,2,583,1,C,0,right,1.6769512350147124,1,0,,,,,,,,,,,,,,,,,,,,,1,,,,,,,,,,,,,,,,,,,,,,,,,,,,,,,,,,,,,,,,,,,,,,90,140914,21,Female,1,2024/03/14_12:04:15,YZ,None,
,,,,,,calibration,0,19,2,583,2,F,0,right,0.8968681459955405,1,0,,,,,,,,,,,,,,,,,,,,,1,,,,,,,,,,,,,,,,,,,,,,,,,,,,,,,,,,,,,,,,,,,,,,90,140914,21,Female,1,2024/03/14_12:04:15,YZ,None,
,,,,,,calibration,0,19,2,583,3,V,0,right,0.8750862879969645,1,0,,,,,,,,,,,,,,,,,,,,,1,,,,,,,,,,,,,,,,,,,,,,,,,,,,,,,,,,,,,,,,,,,,,,90,140914,21,Female,1,2024/03/14_12:04:15,YZ,None,
,,,,,,calibration,0,19,2,583,4,N,0,right,1.336888777994318,1,0,,,,,,,,,,,,,,,,,,,,,1,,,,,,,,,,,,,,,,,,,,,,,,,,,,,,,,,,,,,,,,,,,,,,90,140914,21,Female,1,2024/03/14_12:04:15,YZ,None,
,,,,,,calibration,0,19,2,583,5,Q,0,right,1.2561839660047553,1,0,,,,,,,,,,,,,,,,,,,,,1,,,,,,,,,,,,,,,,,,,,,,,,,,,,,,,,,,,,,,,,,,,,,,90,140914,21,Female,1,2024/03/14_12:04:15,YZ,None,
,,,,,,calibration,0,19,2,583,6,N,1,left,0.8847530870116316,1,0,,,,,,,,,,,,,,,,,,,,,1,,,,,,,,,,,,,,,,,,,,,,,,,,,,,,,,,,,,,,,,,,,,,,90,140914,21,Female,1,2024/03/14_12:04:15,YZ,None,
,,,,,,calibration,0,19,2,583,7,Q,1,left,1.301993675995618,1,0,,,,,,,,,,,,,,,,,,,,,1,,,,,,,,,,,,,,,,,,,,,,,,,,,,,,,,,,,,,,,,,,,,,,90,140914,21,Female,1,2024/03/14_12:04:15,YZ,None,
,,,,,,calibration,0,19,2,583,8,S,0,right,0.7409040459897369,1,0,,,,,,,,,,,,,,,,,,,,,1,,,,,,,,,,,,,,,,,,,,,,,,,,,,,,,,,,,,,,,,,,,,,,90,140914,21,Female,1,2024/03/14_12:04:15,YZ,None,
,,,,,,calibration,0,19,2,583,9,X,0,right,0.7910480959981214,1,0,,,,,,,,,,,,,,,,,,,,,1,,,,,,,,,,,,,,,,,,,,,,,,,,,,,,,,,,,,,,,,,,,,,,90,140914,21,Female,1,2024/03/14_12:04:15,YZ,None,
,,,,,,calibration,0,19,2,583,10,V,0,right,0.7910623220086563,1,0,,,,,,,,,,,,,,,,,,,,,1,,,,,,,,,,,,,,,,,,,,,,,,,,,,,,,,,,,,,,,,,,,,,,90,140914,21,Female,1,2024/03/14_12:04:15,YZ,None,
,,,,,,calibration,0,19,2,583,11,F,0,right,0.8275432219961658,1,0,,,,,,,,,,,,,,,,,,,,,1,,,,,,,,,,,,,,,,,,,,,,,,,,,,,,,,,,,,,,,,,,,,,,90,140914,21,Female,1,2024/03/14_12:04:15,YZ,None,
,,,,,,calibration,0,19,2,583,12,V,1,left,0.6496564899862278,1,0,,,,,,,,,,,,,,,,,,,,,1,,,,,,,,,,,,,,,,,,,,,,,,,,,,,,,,,,,,,,,,,,,,,,90,140914,21,Female,1,2024/03/14_12:04:15,YZ,None,
,,,,,,calibration,0,19,2,583,13,C,0,right,0.7245594600099139,1,0,,,,,,,,,,,,,,,,,,,,,1,,,,,,,,,,,,,,,,,,,,,,,,,,,,,,,,,,,,,,,,,,,,,,90,140914,21,Female,1,2024/03/14_12:04:15,YZ,None,
,,,,,,calibration,0,19,2,583,14,V,1,left,0.7025381370040122,1,0,,,,,,,,,,,,,,,,,,,,,1,,,,,,,,,,,,,,,,,,,,,,,,,,,,,,,,,,,,,,,,,,,,,,90,140914,21,Female,1,2024/03/14_12:04:15,YZ,None,
,,,,,,calibration,0,19,2,583,15,N,0,right,0.7027512780041434,1,0,,,,,,,,,,,,,,,,,,,,,1,,,,,,,,,,,,,,,,,,,,,,,,,,,,,,,,,,,,,,,,,,,,,,90,140914,21,Female,1,2024/03/14_12:04:15,YZ,None,
,,,,,,calibration,0,19,2,583,,,,,,,,1.0,1.0,0.0,1.0,0.0,1.0,0.9439192151340345,4,0,0,0,0,11,15,4,11,0,,,,1,,,,,,,,,,,,,,,,,,,,,,,,,,,,,,,,,,,,,,,,,,,,,,90,140914,21,Female,1,2024/03/14_12:04:15,YZ,None,
,,,,,,Calibration,0,,2,583,,,,,,,,,,,,,,,,,,,,,,,,,2,,,1,,,,,,,,,,,,,,,,,,,,,,,,,,,,,,,,,,,,,,,,,,,,,,90,140914,21,Female,1,2024/03/14_12:04:15,YZ,None,
,,,,,,calibration,0,31,2,500,1,V,0,right,0.8765743259864394,1,0,,,,,,,,,,,,,,,,,,,,,1,,,,,,,,,,,,,,,,,,,,,,,,,,,,,,,,,,,,,,,,,,,,,,90,140914,21,Female,1,2024/03/14_12:04:15,YZ,None,
,,,,,,calibration,0,31,2,500,2,N,0,right,0.5516176990058739,1,0,,,,,,,,,,,,,,,,,,,,,1,,,,,,,,,,,,,,,,,,,,,,,,,,,,,,,,,,,,,,,,,,,,,,90,140914,21,Female,1,2024/03/14_12:04:15,YZ,None,
,,,,,,calibration,0,31,2,500,3,F,0,right,0.6562761100067291,1,0,,,,,,,,,,,,,,,,,,,,,1,,,,,,,,,,,,,,,,,,,,,,,,,,,,,,,,,,,,,,,,,,,,,,90,140914,21,Female,1,2024/03/14_12:04:15,YZ,None,
,,,,,,calibration,0,31,2,500,4,N,1,left,0.7756037180079147,1,0,,,,,,,,,,,,,,,,,,,,,1,,,,,,,,,,,,,,,,,,,,,,,,,,,,,,,,,,,,,,,,,,,,,,90,140914,21,Female,1,2024/03/14_12:04:15,YZ,None,
,,,,,,calibration,0,31,2,500,5,S,0,right,0.6481622979918029,1,0,,,,,,,,,,,,,,,,,,,,,1,,,,,,,,,,,,,,,,,,,,,,,,,,,,,,,,,,,,,,,,,,,,,,90,140914,21,Female,1,2024/03/14_12:04:15,YZ,None,
,,,,,,calibration,0,31,2,500,6,Q,0,right,0.6405492490157485,1,0,,,,,,,,,,,,,,,,,,,,,1,,,,,,,,,,,,,,,,,,,,,,,,,,,,,,,,,,,,,,,,,,,,,,90,140914,21,Female,1,2024/03/14_12:04:15,YZ,None,
,,,,,,calibration,0,31,2,500,7,N,0,left,0.7753224470070563,0,0,,,,,,,,,,,,,,,,,,,,,1,,,,,,,,,,,,,,,,,,,,,,,,,,,,,,,,,,,,,,,,,,,,,,90,140914,21,Female,1,2024/03/14_12:04:15,YZ,None,
,,,,,,calibration,0,31,2,500,8,Q,1,left,0.7011401819763705,1,0,,,,,,,,,,,,,,,,,,,,,1,,,,,,,,,,,,,,,,,,,,,,,,,,,,,,,,,,,,,,,,,,,,,,90,140914,21,Female,1,2024/03/14_12:04:15,YZ,None,
,,,,,,calibration,0,31,2,500,9,J,0,right,0.47953455202514306,1,0,,,,,,,,,,,,,,,,,,,,,1,,,,,,,,,,,,,,,,,,,,,,,,,,,,,,,,,,,,,,,,,,,,,,90,140914,21,Female,1,2024/03/14_12:04:15,YZ,None,
,,,,,,calibration,0,31,2,500,10,Q,1,left,0.8526515799749177,1,0,,,,,,,,,,,,,,,,,,,,,1,,,,,,,,,,,,,,,,,,,,,,,,,,,,,,,,,,,,,,,,,,,,,,90,140914,21,Female,1,2024/03/14_12:04:15,YZ,None,
,,,,,,calibration,0,31,2,500,11,J,1,left,0.8591604719986208,1,0,,,,,,,,,,,,,,,,,,,,,1,,,,,,,,,,,,,,,,,,,,,,,,,,,,,,,,,,,,,,,,,,,,,,90,140914,21,Female,1,2024/03/14_12:04:15,YZ,None,
,,,,,,calibration,0,31,2,500,12,X,0,right,0.6412305810081307,1,0,,,,,,,,,,,,,,,,,,,,,1,,,,,,,,,,,,,,,,,,,,,,,,,,,,,,,,,,,,,,,,,,,,,,90,140914,21,Female,1,2024/03/14_12:04:15,YZ,None,
,,,,,,calibration,0,31,2,500,13,S,0,right,0.8320403689867817,1,0,,,,,,,,,,,,,,,,,,,,,1,,,,,,,,,,,,,,,,,,,,,,,,,,,,,,,,,,,,,,,,,,,,,,90,140914,21,Female,1,2024/03/14_12:04:15,YZ,None,
,,,,,,calibration,0,31,2,500,14,Q,0,right,0.8576610599993728,1,0,,,,,,,,,,,,,,,,,,,,,1,,,,,,,,,,,,,,,,,,,,,,,,,,,,,,,,,,,,,,,,,,,,,,90,140914,21,Female,1,2024/03/14_12:04:15,YZ,None,
,,,,,,calibration,0,31,2,500,15,S,1,left,0.763126748992363,1,0,,,,,,,,,,,,,,,,,,,,,1,,,,,,,,,,,,,,,,,,,,,,,,,,,,,,,,,,,,,,,,,,,,,,90,140914,21,Female,1,2024/03/14_12:04:15,YZ,None,
,,,,,,calibration,0,31,2,500,16,J,0,right,0.7244504390109796,1,0,,,,,,,,,,,,,,,,,,,,,1,,,,,,,,,,,,,,,,,,,,,,,,,,,,,,,,,,,,,,,,,,,,,,90,140914,21,Female,1,2024/03/14_12:04:15,YZ,None,
,,,,,,calibration,0,31,2,500,,,,,,,,0.9772727272727273,1.0,0.09090909090909091,0.9090909090909091,0.0,0.9090909090909091,0.7271938644371403,5,1,0,0,0,10,15,5,11,0,,,,1,,,,,,,,,,,,,,,,,,,,,,,,,,,,,,,,,,,,,,,,,,,,,,90,140914,21,Female,1,2024/03/14_12:04:15,YZ,None,
,,,,,,Calibration,0,,2,500,,,,,,,,,,,,,,,,,,,,,,,,,3,,,1,,,,,,,,,,,,,,,,,,,,,,,,,,,,,,,,,,,,,,,,,,,,,,90,140914,21,Female,1,2024/03/14_12:04:15,YZ,None,
,,,,,,calibration,0,6,2,426,1,J,0,right,0.8275457070267294,1,0,,,,,,,,,,,,,,,,,,,,,1,,,,,,,,,,,,,,,,,,,,,,,,,,,,,,,,,,,,,,,,,,,,,,90,140914,21,Female,1,2024/03/14_12:04:15,YZ,None,
,,,,,,calibration,0,6,2,426,2,C,0,right,0.9525867420015857,1,0,,,,,,,,,,,,,,,,,,,,,1,,,,,,,,,,,,,,,,,,,,,,,,,,,,,,,,,,,,,,,,,,,,,,90,140914,21,Female,1,2024/03/14_12:04:15,YZ,None,
,,,,,,calibration,0,6,2,426,3,J,1,left,0.6187113650084939,1,0,,,,,,,,,,,,,,,,,,,,,1,,,,,,,,,,,,,,,,,,,,,,,,,,,,,,,,,,,,,,,,,,,,,,90,140914,21,Female,1,2024/03/14_12:04:15,YZ,None,
,,,,,,calibration,0,6,2,426,4,Q,0,right,0.7586803699960001,1,0,,,,,,,,,,,,,,,,,,,,,1,,,,,,,,,,,,,,,,,,,,,,,,,,,,,,,,,,,,,,,,,,,,,,90,140914,21,Female,1,2024/03/14_12:04:15,YZ,None,
,,,,,,calibration,0,6,2,426,5,S,0,right,0.808796686003916,1,0,,,,,,,,,,,,,,,,,,,,,1,,,,,,,,,,,,,,,,,,,,,,,,,,,,,,,,,,,,,,,,,,,,,,90,140914,21,Female,1,2024/03/14_12:04:15,YZ,None,
,,,,,,calibration,0,6,2,426,6,Q,1,right,nan,0,1,,,,,,,,,,,,,,,,,,,,,1,,,,,,,,,,,,,,,,,,,,,,,,,,,,,,,,,,,,,,,,,,,,,,90,140914,21,Female,1,2024/03/14_12:04:15,YZ,None,
,,,,,,calibration,0,6,2,426,7,F,0,right,0.5241198940202594,1,0,,,,,,,,,,,,,,,,,,,,,1,,,,,,,,,,,,,,,,,,,,,,,,,,,,,,,,,,,,,,,,,,,,,,90,140914,21,Female,1,2024/03/14_12:04:15,YZ,None,
,,,,,,calibration,0,6,2,426,8,Q,1,left,0.6689829349925276,1,0,,,,,,,,,,,,,,,,,,,,,1,,,,,,,,,,,,,,,,,,,,,,,,,,,,,,,,,,,,,,,,,,,,,,90,140914,21,Female,1,2024/03/14_12:04:15,YZ,None,
,,,,,,calibration,0,6,2,426,9,X,0,right,0.5123303540167399,1,0,,,,,,,,,,,,,,,,,,,,,1,,,,,,,,,,,,,,,,,,,,,,,,,,,,,,,,,,,,,,,,,,,,,,90,140914,21,Female,1,2024/03/14_12:04:15,YZ,None,
,,,,,,calibration,0,6,2,426,10,Q,1,left,0.8596007259911858,1,0,,,,,,,,,,,,,,,,,,,,,1,,,,,,,,,,,,,,,,,,,,,,,,,,,,,,,,,,,,,,,,,,,,,,90,140914,21,Female,1,2024/03/14_12:04:15,YZ,None,
,,,,,,calibration,0,6,2,426,11,C,0,left,nan,0,1,,,,,,,,,,,,,,,,,,,,,1,,,,,,,,,,,,,,,,,,,,,,,,,,,,,,,,,,,,,,,,,,,,,,90,140914,21,Female,1,2024/03/14_12:04:15,YZ,None,
,,,,,,calibration,0,6,2,426,12,N,0,right,0.5737376890028827,1,0,,,,,,,,,,,,,,,,,,,,,1,,,,,,,,,,,,,,,,,,,,,,,,,,,,,,,,,,,,,,,,,,,,,,90,140914,21,Female,1,2024/03/14_12:04:15,YZ,None,
,,,,,,calibration,0,6,2,426,13,J,0,right,0.757473250007024,1,0,,,,,,,,,,,,,,,,,,,,,1,,,,,,,,,,,,,,,,,,,,,,,,,,,,,,,,,,,,,,,,,,,,,,90,140914,21,Female,1,2024/03/14_12:04:15,YZ,None,
,,,,,,calibration,0,6,2,426,14,N,1,left,0.6501184859953355,1,0,,,,,,,,,,,,,,,,,,,,,1,,,,,,,,,,,,,,,,,,,,,,,,,,,,,,,,,,,,,,,,,,,,,,90,140914,21,Female,1,2024/03/14_12:04:15,YZ,None,
,,,,,,calibration,0,6,2,426,15,X,0,right,0.9770750779716764,1,0,,,,,,,,,,,,,,,,,,,,,1,,,,,,,,,,,,,,,,,,,,,,,,,,,,,,,,,,,,,,,,,,,,,,90,140914,21,Female,1,2024/03/14_12:04:15,YZ,None,
,,,,,,calibration,0,6,2,426,16,C,0,left,0.9593184419791214,0,0,,,,,,,,,,,,,,,,,,,,,1,,,,,,,,,,,,,,,,,,,,,,,,,,,,,,,,,,,,,,,,,,,,,,90,140914,21,Female,1,2024/03/14_12:04:15,YZ,None,
,,,,,,calibration,0,6,2,426,17,Q,0,right,0.6673638370120898,1,0,,,,,,,,,,,,,,,,,,,,,1,,,,,,,,,,,,,,,,,,,,,,,,,,,,,,,,,,,,,,,,,,,,,,90,140914,21,Female,1,2024/03/14_12:04:15,YZ,None,
,,,,,,calibration,0,6,2,426,,,,,,,,0.9125000000000001,0.8,0.08333333333333333,0.9090909090909091,0.11764705882352941,0.7990196078431372,0.7410961040683711,4,1,1,1,2,10,14,5,12,0,,,,1,,,,,,,,,,,,,,,,,,,,,,,,,,,,,,,,,,,,,,,,,,,,,,90,140914,21,Female,1,2024/03/14_12:04:15,YZ,None,
,,,,,,Calibration,0,,2,426,,,,,,,,,,,,,,,,,,,,,,,,,4,,,1,,,,,,,,,,,,,,,,,,,,,,,,,,,,,,,,,,,,,,,,,,,,,,90,140914,21,Female,1,2024/03/14_12:04:15,YZ,None,
,,,,,,calibration,0,8,2,361,1,F,0,right,0.7422076890070457,1,0,,,,,,,,,,,,,,,,,,,,,1,,,,,,,,,,,,,,,,,,,,,,,,,,,,,,,,,,,,,,,,,,,,,,90,140914,21,Female,1,2024/03/14_12:04:15,YZ,None,
,,,,,,calibration,0,8,2,361,2,N,0,right,0.4599714310024865,1,0,,,,,,,,,,,,,,,,,,,,,1,,,,,,,,,,,,,,,,,,,,,,,,,,,,,,,,,,,,,,,,,,,,,,90,140914,21,Female,1,2024/03/14_12:04:15,YZ,None,
,,,,,,calibration,0,8,2,361,3,X,0,right,0.6028101200063247,1,0,,,,,,,,,,,,,,,,,,,,,1,,,,,,,,,,,,,,,,,,,,,,,,,,,,,,,,,,,,,,,,,,,,,,90,140914,21,Female,1,2024/03/14_12:04:15,YZ,None,
,,,,,,calibration,0,8,2,361,4,F,0,right,0.7815136160061229,1,0,,,,,,,,,,,,,,,,,,,,,1,,,,,,,,,,,,,,,,,,,,,,,,,,,,,,,,,,,,,,,,,,,,,,90,140914,21,Female,1,2024/03/14_12:04:15,YZ,None,
,,,,,,calibration,0,8,2,361,5,J,0,right,0.7804538500204217,1,0,,,,,,,,,,,,,,,,,,,,,1,,,,,,,,,,,,,,,,,,,,,,,,,,,,,,,,,,,,,,,,,,,,,,90,140914,21,Female,1,2024/03/14_12:04:15,YZ,None,
,,,,,,calibration,0,8,2,361,6,F,1,right,nan,0,1,,,,,,,,,,,,,,,,,,,,,1,,,,,,,,,,,,,,,,,,,,,,,,,,,,,,,,,,,,,,,,,,,,,,90,140914,21,Female,1,2024/03/14_12:04:15,YZ,None,
,,,,,,calibration,0,8,2,361,7,Q,0,right,0.7478808209998533,1,0,,,,,,,,,,,,,,,,,,,,,1,,,,,,,,,,,,,,,,,,,,,,,,,,,,,,,,,,,,,,,,,,,,,,90,140914,21,Female,1,2024/03/14_12:04:15,YZ,None,
,,,,,,calibration,0,8,2,361,8,V,0,right,0.8240032769972458,1,0,,,,,,,,,,,,,,,,,,,,,1,,,,,,,,,,,,,,,,,,,,,,,,,,,,,,,,,,,,,,,,,,,,,,90,140914,21,Female,1,2024/03/14_12:04:15,YZ,None,
,,,,,,calibration,0,8,2,361,9,Q,1,left,0.6403214489982929,1,0,,,,,,,,,,,,,,,,,,,,,1,,,,,,,,,,,,,,,,,,,,,,,,,,,,,,,,,,,,,,,,,,,,,,90,140914,21,Female,1,2024/03/14_12:04:15,YZ,None,
,,,,,,calibration,0,8,2,361,10,V,1,right,0.6848924399819225,0,0,,,,,,,,,,,,,,,,,,,,,1,,,,,,,,,,,,,,,,,,,,,,,,,,,,,,,,,,,,,,,,,,,,,,90,140914,21,Female,1,2024/03/14_12:04:15,YZ,None,
,,,,,,calibration,0,8,2,361,11,F,0,right,0.769428205996519,1,0,,,,,,,,,,,,,,,,,,,,,1,,,,,,,,,,,,,,,,,,,,,,,,,,,,,,,,,,,,,,,,,,,,,,90,140914,21,Female,1,2024/03/14_12:04:15,YZ,None,
,,,,,,calibration,0,8,2,361,12,Q,0,left,0.6933608310064301,0,0,,,,,,,,,,,,,,,,,,,,,1,,,,,,,,,,,,,,,,,,,,,,,,,,,,,,,,,,,,,,,,,,,,,,90,140914,21,Female,1,2024/03/14_12:04:15,YZ,None,
,,,,,,calibration,0,8,2,361,13,S,0,right,0.6233481960080098,1,0,,,,,,,,,,,,,,,,,,,,,1,,,,,,,,,,,,,,,,,,,,,,,,,,,,,,,,,,,,,,,,,,,,,,90,140914,21,Female,1,2024/03/14_12:04:15,YZ,None,
,,,,,,calibration,0,8,2,361,14,Q,1,left,0.557914172008168,1,0,,,,,,,,,,,,,,,,,,,,,1,,,,,,,,,,,,,,,,,,,,,,,,,,,,,,,,,,,,,,,,,,,,,,90,140914,21,Female,1,2024/03/14_12:04:15,YZ,None,
,,,,,,calibration,0,8,2,361,15,S,1,left,0.6982518959848676,1,0,,,,,,,,,,,,,,,,,,,,,1,,,,,,,,,,,,,,,,,,,,,,,,,,,,,,,,,,,,,,,,,,,,,,90,140914,21,Female,1,2024/03/14_12:04:15,YZ,None,
,,,,,,calibration,0,8,2,361,16,C,0,right,0.7906171329959761,1,0,,,,,,,,,,,,,,,,,,,,,1,,,,,,,,,,,,,,,,,,,,,,,,,,,,,,,,,,,,,,,,,,,,,,90,140914,21,Female,1,2024/03/14_12:04:15,YZ,None,
,,,,,,calibration,0,8,2,361,17,F,0,right,0.9480118550127372,1,0,,,,,,,,,,,,,,,,,,,,,1,,,,,,,,,,,,,,,,,,,,,,,,,,,,,,,,,,,,,,,,,,,,,,90,140914,21,Female,1,2024/03/14_12:04:15,YZ,None,
,,,,,,calibration,0,8,2,361,18,S,0,right,nan,0,1,,,,,,,,,,,,,,,,,,,,,1,,,,,,,,,,,,,,,,,,,,,,,,,,,,,,,,,,,,,,,,,,,,,,90,140914,21,Female,1,2024/03/14_12:04:15,YZ,None,
,,,,,,calibration,0,8,2,361,,,,,,,,0.85,0.6,0.07692307692307693,0.9166666666666666,0.1111111111111111,0.811965811965812,0.7090616863770265,3,1,1,1,2,11,14,5,13,0,,,,1,,,,,,,,,,,,,,,,,,,,,,,,,,,,,,,,,,,,,,,,,,,,,,90,140914,21,Female,1,2024/03/14_12:04:15,YZ,None,
,,,,,,Calibration,0,,2,361,,,,,,,,,,,,,,,,,,,,,,,,,5,,,1,,,,,,,,,,,,,,,,,,,,,,,,,,,,,,,,,,,,,,,,,,,,,,90,140914,21,Female,1,2024/03/14_12:04:15,YZ,None,
,,,,,,calibration,0,17,2,361,1,N,0,right,0.8809808979858644,1,0,,,,,,,,,,,,,,,,,,,,,1,,,,,,,,,,,,,,,,,,,,,,,,,,,,,,,,,,,,,,,,,,,,,,90,140914,21,Female,1,2024/03/14_12:04:15,YZ,None,
,,,,,,calibration,0,17,2,361,2,S,0,right,0.7020431970013306,1,0,,,,,,,,,,,,,,,,,,,,,1,,,,,,,,,,,,,,,,,,,,,,,,,,,,,,,,,,,,,,,,,,,,,,90,140914,21,Female,1,2024/03/14_12:04:15,YZ,None,
,,,,,,calibration,0,17,2,361,3,Q,0,right,0.9187456899962854,1,0,,,,,,,,,,,,,,,,,,,,,1,,,,,,,,,,,,,,,,,,,,,,,,,,,,,,,,,,,,,,,,,,,,,,90,140914,21,Female,1,2024/03/14_12:04:15,YZ,None,
,,,,,,calibration,0,17,2,361,4,S,1,left,0.9947119540011045,1,0,,,,,,,,,,,,,,,,,,,,,1,,,,,,,,,,,,,,,,,,,,,,,,,,,,,,,,,,,,,,,,,,,,,,90,140914,21,Female,1,2024/03/14_12:04:15,YZ,None,
,,,,,,calibration,0,17,2,361,5,J,0,right,0.5492260159808211,1,0,,,,,,,,,,,,,,,,,,,,,1,,,,,,,,,,,,,,,,,,,,,,,,,,,,,,,,,,,,,,,,,,,,,,90,140914,21,Female,1,2024/03/14_12:04:15,YZ,None,
,,,,,,calibration,0,17,2,361,6,F,0,right,0.9918906310049351,1,0,,,,,,,,,,,,,,,,,,,,,1,,,,,,,,,,,,,,,,,,,,,,,,,,,,,,,,,,,,,,,,,,,,,,90,140914,21,Female,1,2024/03/14_12:04:15,YZ,None,
,,,,,,calibration,0,17,2,361,7,C,0,right,0.8587023910076823,1,0,,,,,,,,,,,,,,,,,,,,,1,,,,,,,,,,,,,,,,,,,,,,,,,,,,,,,,,,,,,,,,,,,,,,90,140914,21,Female,1,2024/03/14_12:04:15,YZ,None,
,,,,,,calibration,0,17,2,361,8,J,0,left,0.6589450119936373,0,0,,,,,,,,,,,,,,,,,,,,,1,,,,,,,,,,,,,,,,,,,,,,,,,,,,,,,,,,,,,,,,,,,,,,90,140914,21,Female,1,2024/03/14_12:04:15,YZ,None,
,,,,,,calibration,0,17,2,361,9,C,1,left,nan,0,1,,,,,,,,,,,,,,,,,,,,,1,,,,,,,,,,,,,,,,,,,,,,,,,,,,,,,,,,,,,,,,,,,,,,90,140914,21,Female,1,2024/03/14_12:04:15,YZ,None,
,,,,,,calibration,0,17,2,361,10,X,0,left,0.6150821129849646,0,0,,,,,,,,,,,,,,,,,,,,,1,,,,,,,,,,,,,,,,,,,,,,,,,,,,,,,,,,,,,,,,,,,,,,90,140914,21,Female,1,2024/03/14_12:04:15,YZ,None,
,,,,,,calibration,0,17,2,361,11,C,1,left,0.9973149819998071,1,0,,,,,,,,,,,,,,,,,,,,,1,,,,,,,,,,,,,,,,,,,,,,,,,,,,,,,,,,,,,,,,,,,,,,90,140914,21,Female,1,2024/03/14_12:04:15,YZ,None,
,,,,,,calibration,0,17,2,361,12,X,1,left,nan,0,1,,,,,,,,,,,,,,,,,,,,,1,,,,,,,,,,,,,,,,,,,,,,,,,,,,,,,,,,,,,,,,,,,,,,90,140914,21,Female,1,2024/03/14_12:04:15,YZ,None,
,,,,,,calibration,0,17,2,361,13,V,0,left,nan,0,1,,,,,,,,,,,,,,,,,,,,,1,,,,,,,,,,,,,,,,,,,,,,,,,,,,,,,,,,,,,,,,,,,,,,90,140914,21,Female,1,2024/03/14_12:04:15,YZ,None,
,,,,,,calibration,0,17,2,361,14,S,0,left,nan,0,1,,,,,,,,,,,,,,,,,,,,,1,,,,,,,,,,,,,,,,,,,,,,,,,,,,,,,,,,,,,,,,,,,,,,90,140914,21,Female,1,2024/03/14_12:04:15,YZ,None,
,,,,,,calibration,0,17,2,361,15,C,0,left,nan,0,1,,,,,,,,,,,,,,,,,,,,,1,,,,,,,,,,,,,,,,,,,,,,,,,,,,,,,,,,,,,,,,,,,,,,90,140914,21,Female,1,2024/03/14_12:04:15,YZ,None,
,,,,,,calibration,0,17,2,361,16,X,0,right,0.0,1,0,,,,,,,,,,,,,,,,,,,,,1,,,,,,,,,,,,,,,,,,,,,,,,,,,,,,,,,,,,,,,,,,,,,,90,140914,21,Female,1,2024/03/14_12:04:15,YZ,None,
,,,,,,calibration,0,17,2,361,17,C,1,right,0.946589976985706,0,0,,,,,,,,,,,,,,,,,,,,,1,,,,,,,,,,,,,,,,,,,,,,,,,,,,,,,,,,,,,,,,,,,,,,90,140914,21,Female,1,2024/03/14_12:04:15,YZ,None,
,,,,,,calibration,0,17,2,361,18,X,1,right,nan,0,1,,,,,,,,,,,,,,,,,,,,,1,,,,,,,,,,,,,,,,,,,,,,,,,,,,,,,,,,,,,,,,,,,,,,90,140914,21,Female,1,2024/03/14_12:04:15,YZ,None,
,,,,,,calibration,0,17,2,361,,,,,,,,0.6666666666666666,0.3333333333333333,0.16666666666666666,0.7777777777777778,0.3333333333333333,0.5,0.7595194050785116,2,2,3,3,6,7,9,6,12,0,,,,1,,,,,,,,,,,,,,,,,,,,,,,,,,,,,,,,,,,,,,,,,,,,,,90,140914,21,Female,1,2024/03/14_12:04:15,YZ,None,
,,,,,,Calibration,0,,2,361,,,,,,,,,,,,,,,,,,,,,,,,,6,,,1,,,,,,,,,,,,,,,,,,,,,,,,,,,,,,,,,,,,,,,,,,,,,,90,140914,21,Female,1,2024/03/14_12:04:15,YZ,None,
,,,,,,calibration,0,33,2,426,1,S,0,right,0.7862024670175742,1,0,,,,,,,,,,,,,,,,,,,,,1,,,,,,,,,,,,,,,,,,,,,,,,,,,,,,,,,,,,,,,,,,,,,,90,140914,21,Female,1,2024/03/14_12:04:15,YZ,None,
,,,,,,calibration,0,33,2,426,2,Q,0,right,0.7242105040058959,1,0,,,,,,,,,,,,,,,,,,,,,1,,,,,,,,,,,,,,,,,,,,,,,,,,,,,,,,,,,,,,,,,,,,,,90,140914,21,Female,1,2024/03/14_12:04:15,YZ,None,
,,,,,,calibration,0,33,2,426,3,J,0,right,0.80479349399684,1,0,,,,,,,,,,,,,,,,,,,,,1,,,,,,,,,,,,,,,,,,,,,,,,,,,,,,,,,,,,,,,,,,,,,,90,140914,21,Female,1,2024/03/14_12:04:15,YZ,None,
,,,,,,calibration,0,33,2,426,4,S,0,right,nan,0,1,,,,,,,,,,,,,,,,,,,,,1,,,,,,,,,,,,,,,,,,,,,,,,,,,,,,,,,,,,,,,,,,,,,,90,140914,21,Female,1,2024/03/14_12:04:15,YZ,None,
,,,,,,calibration,0,33,2,426,5,V,0,right,0.0,1,0,,,,,,,,,,,,,,,,,,,,,1,,,,,,,,,,,,,,,,,,,,,,,,,,,,,,,,,,,,,,,,,,,,,,90,140914,21,Female,1,2024/03/14_12:04:15,YZ,None,
,,,,,,calibration,0,33,2,426,6,F,0,right,0.4641909250058234,1,0,,,,,,,,,,,,,,,,,,,,,1,,,,,,,,,,,,,,,,,,,,,,,,,,,,,,,,,,,,,,,,,,,,,,90,140914,21,Female,1,2024/03/14_12:04:15,YZ,None,
,,,,,,calibration,0,33,2,426,7,V,1,left,0.7301829209900461,1,0,,,,,,,,,,,,,,,,,,,,,1,,,,,,,,,,,,,,,,,,,,,,,,,,,,,,,,,,,,,,,,,,,,,,90,140914,21,Female,1,2024/03/14_12:04:15,YZ,None,
,,,,,,calibration,0,33,2,426,8,F,1,left,0.6420062450051773,1,0,,,,,,,,,,,,,,,,,,,,,1,,,,,,,,,,,,,,,,,,,,,,,,,,,,,,,,,,,,,,,,,,,,,,90,140914,21,Female,1,2024/03/14_12:04:15,YZ,None,
,,,,,,calibration,0,33,2,426,9,Q,0,right,0.6088644580158871,1,0,,,,,,,,,,,,,,,,,,,,,1,,,,,,,,,,,,,,,,,,,,,,,,,,,,,,,,,,,,,,,,,,,,,,90,140914,21,Female,1,2024/03/14_12:04:15,YZ,None,
,,,,,,calibration,0,33,2,426,10,N,0,right,0.5192874499771278,1,0,,,,,,,,,,,,,,,,,,,,,1,,,,,,,,,,,,,,,,,,,,,,,,,,,,,,,,,,,,,,,,,,,,,,90,140914,21,Female,1,2024/03/14_12:04:15,YZ,None,
,,,,,,calibration,0,33,2,426,11,X,0,right,0.5238781480002217,1,0,,,,,,,,,,,,,,,,,,,,,1,,,,,,,,,,,,,,,,,,,,,,,,,,,,,,,,,,,,,,,,,,,,,,90,140914,21,Female,1,2024/03/14_12:04:15,YZ,None,
,,,,,,calibration,0,33,2,426,12,J,0,right,0.5464189930062275,1,0,,,,,,,,,,,,,,,,,,,,,1,,,,,,,,,,,,,,,,,,,,,,,,,,,,,,,,,,,,,,,,,,,,,,90,140914,21,Female,1,2024/03/14_12:04:15,YZ,None,
,,,,,,calibration,0,33,2,426,13,X,1,left,0.5911730859952513,1,0,,,,,,,,,,,,,,,,,,,,,1,,,,,,,,,,,,,,,,,,,,,,,,,,,,,,,,,,,,,,,,,,,,,,90,140914,21,Female,1,2024/03/14_12:04:15,YZ,None,
,,,,,,calibration,0,33,2,426,14,C,0,right,0.7365593830181751,1,0,,,,,,,,,,,,,,,,,,,,,1,,,,,,,,,,,,,,,,,,,,,,,,,,,,,,,,,,,,,,,,,,,,,,90,140914,21,Female,1,2024/03/14_12:04:15,YZ,None,
,,,,,,calibration,0,33,2,426,15,Q,0,right,nan,0,1,,,,,,,,,,,,,,,,,,,,,1,,,,,,,,,,,,,,,,,,,,,,,,,,,,,,,,,,,,,,,,,,,,,,90,140914,21,Female,1,2024/03/14_12:04:15,YZ,None,
,,,,,,calibration,0,33,2,426,16,C,1,left,0.5310258029785473,1,0,,,,,,,,,,,,,,,,,,,,,1,,,,,,,,,,,,,,,,,,,,,,,,,,,,,,,,,,,,,,,,,,,,,,90,140914,21,Female,1,2024/03/14_12:04:15,YZ,None,
,,,,,,calibration,0,33,2,426,17,Q,1,left,0.5483679189928807,1,0,,,,,,,,,,,,,,,,,,,,,1,,,,,,,,,,,,,,,,,,,,,,,,,,,,,,,,,,,,,,,,,,,,,,90,140914,21,Female,1,2024/03/14_12:04:15,YZ,None,
,,,,,,calibration,0,33,2,426,,,,,,,,1.0,1.0,0.0,1.0,0.11764705882352941,0.8823529411764706,0.5838107864003784,5,0,0,2,2,10,15,5,12,0,,,,1,,,,,,,,,,,,,,,,,,,,,,,,,,,,,,,,,,,,,,,,,,,,,,90,140914,21,Female,1,2024/03/14_12:04:15,YZ,None,
,,,,,,Calibration,0,,2,426,,,,,,,,,,,,,,,,,,,,,,,,,7,,,1,,,,,,,,,,,,,,,,,,,,,,,,,,,,,,,,,,,,,,,,,,,,,,90,140914,21,Female,1,2024/03/14_12:04:15,YZ,None,
,,,,,,calibration,0,29,2,361,1,J,0,right,0.7873532089870423,1,0,,,,,,,,,,,,,,,,,,,,,1,,,,,,,,,,,,,,,,,,,,,,,,,,,,,,,,,,,,,,,,,,,,,,90,140914,21,Female,1,2024/03/14_12:04:15,YZ,None,
,,,,,,calibration,0,29,2,361,2,V,0,right,nan,0,1,,,,,,,,,,,,,,,,,,,,,1,,,,,,,,,,,,,,,,,,,,,,,,,,,,,,,,,,,,,,,,,,,,,,90,140914,21,Female,1,2024/03/14_12:04:15,YZ,None,
,,,,,,calibration,0,29,2,361,3,J,1,left,0.7149763060151599,1,0,,,,,,,,,,,,,,,,,,,,,1,,,,,,,,,,,,,,,,,,,,,,,,,,,,,,,,,,,,,,,,,,,,,,90,140914,21,Female,1,2024/03/14_12:04:15,YZ,None,
,,,,,,calibration,0,29,2,361,4,S,0,right,0.45711708700400777,1,0,,,,,,,,,,,,,,,,,,,,,1,,,,,,,,,,,,,,,,,,,,,,,,,,,,,,,,,,,,,,,,,,,,,,90,140914,21,Female,1,2024/03/14_12:04:15,YZ,None,
,,,,,,calibration,0,29,2,361,5,Q,0,right,0.748984614998335,1,0,,,,,,,,,,,,,,,,,,,,,1,,,,,,,,,,,,,,,,,,,,,,,,,,,,,,,,,,,,,,,,,,,,,,90,140914,21,Female,1,2024/03/14_12:04:15,YZ,None,
,,,,,,calibration,0,29,2,361,6,S,1,left,0.6083926509891171,1,0,,,,,,,,,,,,,,,,,,,,,1,,,,,,,,,,,,,,,,,,,,,,,,,,,,,,,,,,,,,,,,,,,,,,90,140914,21,Female,1,2024/03/14_12:04:15,YZ,None,
,,,,,,calibration,0,29,2,361,7,Q,1,left,0.5185820280166809,1,0,,,,,,,,,,,,,,,,,,,,,1,,,,,,,,,,,,,,,,,,,,,,,,,,,,,,,,,,,,,,,,,,,,,,90,140914,21,Female,1,2024/03/14_12:04:15,YZ,None,
,,,,,,calibration,0,29,2,361,8,J,0,right,0.6877663049963303,1,0,,,,,,,,,,,,,,,,,,,,,1,,,,,,,,,,,,,,,,,,,,,,,,,,,,,,,,,,,,,,,,,,,,,,90,140914,21,Female,1,2024/03/14_12:04:15,YZ,None,
,,,,,,calibration,0,29,2,361,9,Q,1,right,nan,0,1,,,,,,,,,,,,,,,,,,,,,1,,,,,,,,,,,,,,,,,,,,,,,,,,,,,,,,,,,,,,,,,,,,,,90,140914,21,Female,1,2024/03/14_12:04:15,YZ,None,
,,,,,,calibration,0,29,2,361,10,X,0,right,0.7749258609837852,1,0,,,,,,,,,,,,,,,,,,,,,1,,,,,,,,,,,,,,,,,,,,,,,,,,,,,,,,,,,,,,,,,,,,,,90,140914,21,Female,1,2024/03/14_12:04:15,YZ,None,
,,,,,,calibration,0,29,2,361,11,V,0,right,0.8768565780192148,1,0,,,,,,,,,,,,,,,,,,,,,1,,,,,,,,,,,,,,,,,,,,,,,,,,,,,,,,,,,,,,,,,,,,,,90,140914,21,Female,1,2024/03/14_12:04:15,YZ,None,
,,,,,,calibration,0,29,2,361,12,N,0,right,0.6475826889800373,1,0,,,,,,,,,,,,,,,,,,,,,1,,,,,,,,,,,,,,,,,,,,,,,,,,,,,,,,,,,,,,,,,,,,,,90,140914,21,Female,1,2024/03/14_12:04:15,YZ,None,
,,,,,,calibration,0,29,2,361,13,F,0,right,0.8322847239905968,1,0,,,,,,,,,,,,,,,,,,,,,1,,,,,,,,,,,,,,,,,,,,,,,,,,,,,,,,,,,,,,,,,,,,,,90,140914,21,Female,1,2024/03/14_12:04:15,YZ,None,
,,,,,,calibration,0,29,2,361,14,C,0,right,nan,0,1,,,,,,,,,,,,,,,,,,,,,1,,,,,,,,,,,,,,,,,,,,,,,,,,,,,,,,,,,,,,,,,,,,,,90,140914,21,Female,1,2024/03/14_12:04:15,YZ,None,
,,,,,,calibration,0,29,2,361,15,V,0,right,0.10305861302185804,1,0,,,,,,,,,,,,,,,,,,,,,1,,,,,,,,,,,,,,,,,,,,,,,,,,,,,,,,,,,,,,,,,,,,,,90,140914,21,Female,1,2024/03/14_12:04:15,YZ,None,
,,,,,,calibration,0,29,2,361,16,C,1,right,0.0,0,0,,,,,,,,,,,,,,,,,,,,,1,,,,,,,,,,,,,,,,,,,,,,,,,,,,,,,,,,,,,,,,,,,,,,90,140914,21,Female,1,2024/03/14_12:04:15,YZ,None,
,,,,,,calibration,0,29,2,361,17,S,0,left,0.4750929809815716,0,0,,,,,,,,,,,,,,,,,,,,,1,,,,,,,,,,,,,,,,,,,,,,,,,,,,,,,,,,,,,,,,,,,,,,90,140914,21,Female,1,2024/03/14_12:04:15,YZ,None,
,,,,,,calibration,0,29,2,361,18,C,1,left,0.7197646809800062,1,0,,,,,,,,,,,,,,,,,,,,,1,,,,,,,,,,,,,,,,,,,,,,,,,,,,,,,,,,,,,,,,,,,,,,90,140914,21,Female,1,2024/03/14_12:04:15,YZ,None,
,,,,,,calibration,0,29,2,361,,,,,,,,0.8680555555555555,0.6666666666666666,0.08333333333333333,0.9,0.16666666666666666,0.75,0.5968492218642496,4,1,1,2,3,9,13,6,12,0,,,,1,,,,,,,,,,,,,,,,,,,,,,,,,,,,,,,,,,,,,,,,,,,,,,90,140914,21,Female,1,2024/03/14_12:04:15,YZ,None,
,,,,,,Calibration,0,,2,361,,,,,,,,,,,,,,,,,,,,,,,,,8,,,1,,,,,,,,,,,,,,,,,,,,,,,,,,,,,,,,,,,,,,,,,,,,,,90,140914,21,Female,1,2024/03/14_12:04:15,YZ,None,
,,,,,,calibration,0,5,2,303,1,F,0,right,0.8069829280138947,1,0,,,,,,,,,,,,,,,,,,,,,1,,,,,,,,,,,,,,,,,,,,,,,,,,,,,,,,,,,,,,,,,,,,,,90,140914,21,Female,1,2024/03/14_12:04:15,YZ,None,
,,,,,,calibration,0,5,2,303,2,X,0,right,0.4767885949986521,1,0,,,,,,,,,,,,,,,,,,,,,1,,,,,,,,,,,,,,,,,,,,,,,,,,,,,,,,,,,,,,,,,,,,,,90,140914,21,Female,1,2024/03/14_12:04:15,YZ,None,
,,,,,,calibration,0,5,2,303,3,F,1,left,0.5895133529847953,1,0,,,,,,,,,,,,,,,,,,,,,1,,,,,,,,,,,,,,,,,,,,,,,,,,,,,,,,,,,,,,,,,,,,,,90,140914,21,Female,1,2024/03/14_12:04:15,YZ,None,
,,,,,,calibration,0,5,2,303,4,V,0,right,0.6758057430270128,1,0,,,,,,,,,,,,,,,,,,,,,1,,,,,,,,,,,,,,,,,,,,,,,,,,,,,,,,,,,,,,,,,,,,,,90,140914,21,Female,1,2024/03/14_12:04:15,YZ,None,
,,,,,,calibration,0,5,2,303,5,X,0,right,0.974046866002027,1,0,,,,,,,,,,,,,,,,,,,,,1,,,,,,,,,,,,,,,,,,,,,,,,,,,,,,,,,,,,,,,,,,,,,,90,140914,21,Female,1,2024/03/14_12:04:15,YZ,None,
,,,,,,calibration,0,5,2,303,6,J,0,right,0.9903391450061463,1,0,,,,,,,,,,,,,,,,,,,,,1,,,,,,,,,,,,,,,,,,,,,,,,,,,,,,,,,,,,,,,,,,,,,,90,140914,21,Female,1,2024/03/14_12:04:15,YZ,None,
,,,,,,calibration,0,5,2,303,7,F,0,right,0.9415649280126672,1,0,,,,,,,,,,,,,,,,,,,,,1,,,,,,,,,,,,,,,,,,,,,,,,,,,,,,,,,,,,,,,,,,,,,,90,140914,21,Female,1,2024/03/14_12:04:15,YZ,None,
,,,,,,calibration,0,5,2,303,8,V,0,right,0.9684611879929435,1,0,,,,,,,,,,,,,,,,,,,,,1,,,,,,,,,,,,,,,,,,,,,,,,,,,,,,,,,,,,,,,,,,,,,,90,140914,21,Female,1,2024/03/14_12:04:15,YZ,None,
,,,,,,calibration,0,5,2,303,9,X,0,right,0.6382630860025529,1,0,,,,,,,,,,,,,,,,,,,,,1,,,,,,,,,,,,,,,,,,,,,,,,,,,,,,,,,,,,,,,,,,,,,,90,140914,21,Female,1,2024/03/14_12:04:15,YZ,None,
,,,,,,calibration,0,5,2,303,10,V,1,left,0.5231614439981058,1,0,,,,,,,,,,,,,,,,,,,,,1,,,,,,,,,,,,,,,,,,,,,,,,,,,,,,,,,,,,,,,,,,,,,,90,140914,21,Female,1,2024/03/14_12:04:15,YZ,None,
,,,,,,calibration,0,5,2,303,11,Q,0,left,nan,0,1,,,,,,,,,,,,,,,,,,,,,1,,,,,,,,,,,,,,,,,,,,,,,,,,,,,,,,,,,,,,,,,,,,,,90,140914,21,Female,1,2024/03/14_12:04:15,YZ,None,
,,,,,,calibration,0,5,2,303,12,S,0,right,0.7571048139943741,1,0,,,,,,,,,,,,,,,,,,,,,1,,,,,,,,,,,,,,,,,,,,,,,,,,,,,,,,,,,,,,,,,,,,,,90,140914,21,Female,1,2024/03/14_12:04:15,YZ,None,
,,,,,,calibration,0,5,2,303,13,C,0,right,0.6037856339826249,1,0,,,,,,,,,,,,,,,,,,,,,1,,,,,,,,,,,,,,,,,,,,,,,,,,,,,,,,,,,,,,,,,,,,,,90,140914,21,Female,1,2024/03/14_12:04:15,YZ,None,
,,,,,,calibration,0,5,2,303,14,F,0,right,0.7054908920254093,1,0,,,,,,,,,,,,,,,,,,,,,1,,,,,,,,,,,,,,,,,,,,,,,,,,,,,,,,,,,,,,,,,,,,,,90,140914,21,Female,1,2024/03/14_12:04:15,YZ,None,
,,,,,,calibration,0,5,2,303,15,X,0,right,0.6852979489776772,1,0,,,,,,,,,,,,,,,,,,,,,1,,,,,,,,,,,,,,,,,,,,,,,,,,,,,,,,,,,,,,,,,,,,,,90,140914,21,Female,1,2024/03/14_12:04:15,YZ,None,
,,,,,,calibration,0,5,2,303,16,F,1,left,0.4547679719980806,1,0,,,,,,,,,,,,,,,,,,,,,1,,,,,,,,,,,,,,,,,,,,,,,,,,,,,,,,,,,,,,,,,,,,,,90,140914,21,Female,1,2024/03/14_12:04:15,YZ,None,
,,,,,,calibration,0,5,2,303,17,C,0,left,nan,0,1,,,,,,,,,,,,,,,,,,,,,1,,,,,,,,,,,,,,,,,,,,,,,,,,,,,,,,,,,,,,,,,,,,,,90,140914,21,Female,1,2024/03/14_12:04:15,YZ,None,
,,,,,,calibration,0,5,2,303,18,F,1,left,nan,0,1,,,,,,,,,,,,,,,,,,,,,1,,,,,,,,,,,,,,,,,,,,,,,,,,,,,,,,,,,,,,,,,,,,,,90,140914,21,Female,1,2024/03/14_12:04:15,YZ,None,
,,,,,,calibration,0,5,2,303,19,C,1,left,nan,0,1,,,,,,,,,,,,,,,,,,,,,1,,,,,,,,,,,,,,,,,,,,,,,,,,,,,,,,,,,,,,,,,,,,,,90,140914,21,Female,1,2024/03/14_12:04:15,YZ,None,
,,,,,,calibration,0,5,2,303,,,,,,,,0.9,0.6,0.0,1.0,0.21052631578947367,0.7894736842105263,0.7194249691344642,3,0,2,2,4,12,15,5,14,0,,,,1,,,,,,,,,,,,,,,,,,,,,,,,,,,,,,,,,,,,,,,,,,,,,,90,140914,21,Female,1,2024/03/14_12:04:15,YZ,None,
,,,,,,Calibration,0,,2,303,,,,,,,,,,,,,,,,,,,,,,,,,9,,,1,,,,,,,,,,,,,,,,,,,,,,,,,,,,,,,,,,,,,,,,,,,,,,90,140914,21,Female,1,2024/03/14_12:04:15,YZ,None,
,,,,,,calibration,0,13,2,250,1,V,0,right,0.7208527959883213,1,0,,,,,,,,,,,,,,,,,,,,,1,,,,,,,,,,,,,,,,,,,,,,,,,,,,,,,,,,,,,,,,,,,,,,90,140914,21,Female,1,2024/03/14_12:04:15,YZ,None,
,,,,,,calibration,0,13,2,250,2,Q,0,right,0.8079173220030498,1,0,,,,,,,,,,,,,,,,,,,,,1,,,,,,,,,,,,,,,,,,,,,,,,,,,,,,,,,,,,,,,,,,,,,,90,140914,21,Female,1,2024/03/14_12:04:15,YZ,None,
,,,,,,calibration,0,13,2,250,3,F,0,right,nan,0,1,,,,,,,,,,,,,,,,,,,,,1,,,,,,,,,,,,,,,,,,,,,,,,,,,,,,,,,,,,,,,,,,,,,,90,140914,21,Female,1,2024/03/14_12:04:15,YZ,None,
,,,,,,calibration,0,13,2,250,4,Q,1,right,0.7589975800074171,0,0,,,,,,,,,,,,,,,,,,,,,1,,,,,,,,,,,,,,,,,,,,,,,,,,,,,,,,,,,,,,,,,,,,,,90,140914,21,Female,1,2024/03/14_12:04:15,YZ,None,
,,,,,,calibration,0,13,2,250,5,S,0,right,0.5123676630028058,1,0,,,,,,,,,,,,,,,,,,,,,1,,,,,,,,,,,,,,,,,,,,,,,,,,,,,,,,,,,,,,,,,,,,,,90,140914,21,Female,1,2024/03/14_12:04:15,YZ,None,
,,,,,,calibration,0,13,2,250,6,Q,1,left,0.5414684939896688,1,0,,,,,,,,,,,,,,,,,,,,,1,,,,,,,,,,,,,,,,,,,,,,,,,,,,,,,,,,,,,,,,,,,,,,90,140914,21,Female,1,2024/03/14_12:04:15,YZ,None,
,,,,,,calibration,0,13,2,250,7,N,0,right,0.6193267090129666,1,0,,,,,,,,,,,,,,,,,,,,,1,,,,,,,,,,,,,,,,,,,,,,,,,,,,,,,,,,,,,,,,,,,,,,90,140914,21,Female,1,2024/03/14_12:04:15,YZ,None,
,,,,,,calibration,0,13,2,250,8,X,0,right,0.6061640339903533,1,0,,,,,,,,,,,,,,,,,,,,,1,,,,,,,,,,,,,,,,,,,,,,,,,,,,,,,,,,,,,,,,,,,,,,90,140914,21,Female,1,2024/03/14_12:04:15,YZ,None,
,,,,,,calibration,0,13,2,250,9,N,1,right,0.6086211469955742,0,0,,,,,,,,,,,,,,,,,,,,,1,,,,,,,,,,,,,,,,,,,,,,,,,,,,,,,,,,,,,,,,,,,,,,90,140914,21,Female,1,2024/03/14_12:04:15,YZ,None,
,,,,,,calibration,0,13,2,250,10,V,0,right,0.6749069300130941,1,0,,,,,,,,,,,,,,,,,,,,,1,,,,,,,,,,,,,,,,,,,,,,,,,,,,,,,,,,,,,,,,,,,,,,90,140914,21,Female,1,2024/03/14_12:04:15,YZ,None,
,,,,,,calibration,0,13,2,250,11,X,0,right,0.7850351599918213,1,0,,,,,,,,,,,,,,,,,,,,,1,,,,,,,,,,,,,,,,,,,,,,,,,,,,,,,,,,,,,,,,,,,,,,90,140914,21,Female,1,2024/03/14_12:04:15,YZ,None,
,,,,,,calibration,0,13,2,250,12,Q,0,right,0.8400675739976577,1,0,,,,,,,,,,,,,,,,,,,,,1,,,,,,,,,,,,,,,,,,,,,,,,,,,,,,,,,,,,,,,,,,,,,,90,140914,21,Female,1,2024/03/14_12:04:15,YZ,None,
,,,,,,calibration,0,13,2,250,13,F,0,right,nan,0,1,,,,,,,,,,,,,,,,,,,,,1,,,,,,,,,,,,,,,,,,,,,,,,,,,,,,,,,,,,,,,,,,,,,,90,140914,21,Female,1,2024/03/14_12:04:15,YZ,None,
,,,,,,calibration,0,13,2,250,14,J,0,right,nan,0,1,,,,,,,,,,,,,,,,,,,,,1,,,,,,,,,,,,,,,,,,,,,,,,,,,,,,,,,,,,,,,,,,,,,,90,140914,21,Female,1,2024/03/14_12:04:15,YZ,None,
,,,,,,calibration,0,13,2,250,15,S,0,right,0.296326901006978,1,0,,,,,,,,,,,,,,,,,,,,,1,,,,,,,,,,,,,,,,,,,,,,,,,,,,,,,,,,,,,,,,,,,,,,90,140914,21,Female,1,2024/03/14_12:04:15,YZ,None,
,,,,,,calibration,0,13,2,250,16,X,0,right,nan,0,1,,,,,,,,,,,,,,,,,,,,,1,,,,,,,,,,,,,,,,,,,,,,,,,,,,,,,,,,,,,,,,,,,,,,90,140914,21,Female,1,2024/03/14_12:04:15,YZ,None,
,,,,,,calibration,0,13,2,250,17,Q,0,right,0.6249031830229796,1,0,,,,,,,,,,,,,,,,,,,,,1,,,,,,,,,,,,,,,,,,,,,,,,,,,,,,,,,,,,,,,,,,,,,,90,140914,21,Female,1,2024/03/14_12:04:15,YZ,None,
,,,,,,calibration,0,13,2,250,18,X,1,right,nan,0,1,,,,,,,,,,,,,,,,,,,,,1,,,,,,,,,,,,,,,,,,,,,,,,,,,,,,,,,,,,,,,,,,,,,,90,140914,21,Female,1,2024/03/14_12:04:15,YZ,None,
,,,,,,calibration,0,13,2,250,19,Q,1,left,0.7241103349952027,1,0,,,,,,,,,,,,,,,,,,,,,1,,,,,,,,,,,,,,,,,,,,,,,,,,,,,,,,,,,,,,,,,,,,,,90,140914,21,Female,1,2024/03/14_12:04:15,YZ,None,
,,,,,,calibration,0,13,2,250,20,J,0,right,0.6633165219973307,1,0,,,,,,,,,,,,,,,,,,,,,1,,,,,,,,,,,,,,,,,,,,,,,,,,,,,,,,,,,,,,,,,,,,,,90,140914,21,Female,1,2024/03/14_12:04:15,YZ,None,
,,,,,,calibration,0,13,2,250,,,,,,,,0.85,0.4,0.0,1.0,0.25,0.75,0.6522921566676814,2,0,1,4,5,11,13,5,15,0,,,,1,,,,,,,,,,,,,,,,,,,,,,,,,,,,,,,,,,,,,,,,,,,,,,90,140914,21,Female,1,2024/03/14_12:04:15,YZ,None,
,,,,,,Calibration,0,,2,250,,,,,,,,,,,,,,,,,,,,,,,,,10,,,1,,,,,,,,,,,,,,,,,,,,,,,,,,,,,,,,,,,,,,,,,,,,,,90,140914,21,Female,1,2024/03/14_12:04:15,YZ,None,
,,,,,,calibration,0,9,2,250,1,V,0,right,0.662876268994296,1,0,,,,,,,,,,,,,,,,,,,,,1,,,,,,,,,,,,,,,,,,,,,,,,,,,,,,,,,,,,,,,,,,,,,,90,140914,21,Female,1,2024/03/14_12:04:15,YZ,None,
,,,,,,calibration,0,9,2,250,2,Q,0,right,0.4368933149962686,1,0,,,,,,,,,,,,,,,,,,,,,1,,,,,,,,,,,,,,,,,,,,,,,,,,,,,,,,,,,,,,,,,,,,,,90,140914,21,Female,1,2024/03/14_12:04:15,YZ,None,
,,,,,,calibration,0,9,2,250,3,V,1,left,0.45686023801681586,1,0,,,,,,,,,,,,,,,,,,,,,1,,,,,,,,,,,,,,,,,,,,,,,,,,,,,,,,,,,,,,,,,,,,,,90,140914,21,Female,1,2024/03/14_12:04:15,YZ,None,
,,,,,,calibration,0,9,2,250,4,C,0,right,0.6145902530115563,1,0,,,,,,,,,,,,,,,,,,,,,1,,,,,,,,,,,,,,,,,,,,,,,,,,,,,,,,,,,,,,,,,,,,,,90,140914,21,Female,1,2024/03/14_12:04:15,YZ,None,
,,,,,,calibration,0,9,2,250,5,V,1,left,0.7083102949836757,1,0,,,,,,,,,,,,,,,,,,,,,1,,,,,,,,,,,,,,,,,,,,,,,,,,,,,,,,,,,,,,,,,,,,,,90,140914,21,Female,1,2024/03/14_12:04:15,YZ,None,
,,,,,,calibration,0,9,2,250,6,X,0,right,0.5875641870079562,1,0,,,,,,,,,,,,,,,,,,,,,1,,,,,,,,,,,,,,,,,,,,,,,,,,,,,,,,,,,,,,,,,,,,,,90,140914,21,Female,1,2024/03/14_12:04:15,YZ,None,
,,,,,,calibration,0,9,2,250,7,N,0,right,0.5122786540014204,1,0,,,,,,,,,,,,,,,,,,,,,1,,,,,,,,,,,,,,,,,,,,,,,,,,,,,,,,,,,,,,,,,,,,,,90,140914,21,Female,1,2024/03/14_12:04:15,YZ,None,
,,,,,,calibration,0,9,2,250,8,X,1,left,0.8082528009836096,1,0,,,,,,,,,,,,,,,,,,,,,1,,,,,,,,,,,,,,,,,,,,,,,,,,,,,,,,,,,,,,,,,,,,,,90,140914,21,Female,1,2024/03/14_12:04:15,YZ,None,
,,,,,,calibration,0,9,2,250,9,J,0,right,0.5689709320140537,1,0,,,,,,,,,,,,,,,,,,,,,1,,,,,,,,,,,,,,,,,,,,,,,,,,,,,,,,,,,,,,,,,,,,,,90,140914,21,Female,1,2024/03/14_12:04:15,YZ,None,
,,,,,,calibration,0,9,2,250,10,Q,0,right,0.49782495200634,1,0,,,,,,,,,,,,,,,,,,,,,1,,,,,,,,,,,,,,,,,,,,,,,,,,,,,,,,,,,,,,,,,,,,,,90,140914,21,Female,1,2024/03/14_12:04:15,YZ,None,
,,,,,,calibration,0,9,2,250,11,N,0,left,0.6881700520170853,0,0,,,,,,,,,,,,,,,,,,,,,1,,,,,,,,,,,,,,,,,,,,,,,,,,,,,,,,,,,,,,,,,,,,,,90,140914,21,Female,1,2024/03/14_12:04:15,YZ,None,
,,,,,,calibration,0,9,2,250,12,Q,1,left,0.6847517009882722,1,0,,,,,,,,,,,,,,,,,,,,,1,,,,,,,,,,,,,,,,,,,,,,,,,,,,,,,,,,,,,,,,,,,,,,90,140914,21,Female,1,2024/03/14_12:04:15,YZ,None,
,,,,,,calibration,0,9,2,250,13,N,1,left,nan,0,1,,,,,,,,,,,,,,,,,,,,,1,,,,,,,,,,,,,,,,,,,,,,,,,,,,,,,,,,,,,,,,,,,,,,90,140914,21,Female,1,2024/03/14_12:04:15,YZ,None,
,,,,,,calibration,0,9,2,250,14,J,0,right,0.8806740280124359,1,0,,,,,,,,,,,,,,,,,,,,,1,,,,,,,,,,,,,,,,,,,,,,,,,,,,,,,,,,,,,,,,,,,,,,90,140914,21,Female,1,2024/03/14_12:04:15,YZ,None,
,,,,,,calibration,0,9,2,250,15,X,0,right,0.7420143309864216,1,0,,,,,,,,,,,,,,,,,,,,,1,,,,,,,,,,,,,,,,,,,,,,,,,,,,,,,,,,,,,,,,,,,,,,90,140914,21,Female,1,2024/03/14_12:04:15,YZ,None,
,,,,,,calibration,0,9,2,250,16,J,1,left,0.3911179319838993,1,0,,,,,,,,,,,,,,,,,,,,,1,,,,,,,,,,,,,,,,,,,,,,,,,,,,,,,,,,,,,,,,,,,,,,90,140914,21,Female,1,2024/03/14_12:04:15,YZ,None,
,,,,,,calibration,0,9,2,250,17,F,0,right,0.605871779989684,1,0,,,,,,,,,,,,,,,,,,,,,1,,,,,,,,,,,,,,,,,,,,,,,,,,,,,,,,,,,,,,,,,,,,,,90,140914,21,Female,1,2024/03/14_12:04:15,YZ,None,
,,,,,,calibration,0,9,2,250,18,Q,0,left,0.6709378579980694,0,0,,,,,,,,,,,,,,,,,,,,,1,,,,,,,,,,,,,,,,,,,,,,,,,,,,,,,,,,,,,,,,,,,,,,90,140914,21,Female,1,2024/03/14_12:04:15,YZ,None,
,,,,,,calibration,0,9,2,250,19,V,0,right,0.6141785159998108,1,0,,,,,,,,,,,,,,,,,,,,,1,,,,,,,,,,,,,,,,,,,,,,,,,,,,,,,,,,,,,,,,,,,,,,90,140914,21,Female,1,2024/03/14_12:04:15,YZ,None,
,,,,,,calibration,0,9,2,250,20,F,0,left,0.741676734003704,0,0,,,,,,,,,,,,,,,,,,,,,1,,,,,,,,,,,,,,,,,,,,,,,,,,,,,,,,,,,,,,,,,,,,,,90,140914,21,Female,1,2024/03/14_12:04:15,YZ,None,
,,,,,,calibration,0,9,2,250,,,,,,,,0.8690476190476191,0.8333333333333334,0.21428571428571427,0.7857142857142857,0.05,0.7357142857142857,0.6249376225260723,5,3,1,0,1,11,16,6,14,0,,,,1,,,,,,,,,,,,,,,,,,,,,,,,,,,,,,,,,,,,,,,,,,,,,,90,140914,21,Female,1,2024/03/14_12:04:15,YZ,None,
,,,,,,Calibration,0,,2,250,,,,,,,,,,,,,,,,,,,,,,,,,11,,,1,,,,,,,,,,,,,,,,,,,,,,,,,,,,,,,,,,,,,,,,,,,,,,90,140914,21,Female,1,2024/03/14_12:04:15,YZ,None,
,,,,,,calibration,0,4,2,202,1,N,0,right,0.45386107699596323,1,0,,,,,,,,,,,,,,,,,,,,,1,,,,,,,,,,,,,,,,,,,,,,,,,,,,,,,,,,,,,,,,,,,,,,90,140914,21,Female,1,2024/03/14_12:04:15,YZ,None,
,,,,,,calibration,0,4,2,202,2,S,0,right,0.7603647679788992,1,0,,,,,,,,,,,,,,,,,,,,,1,,,,,,,,,,,,,,,,,,,,,,,,,,,,,,,,,,,,,,,,,,,,,,90,140914,21,Female,1,2024/03/14_12:04:15,YZ,None,
,,,,,,calibration,0,4,2,202,3,N,1,left,0.4598137990105897,1,0,,,,,,,,,,,,,,,,,,,,,1,,,,,,,,,,,,,,,,,,,,,,,,,,,,,,,,,,,,,,,,,,,,,,90,140914,21,Female,1,2024/03/14_12:04:15,YZ,None,
,,,,,,calibration,0,4,2,202,4,V,0,right,0.4339876730227843,1,0,,,,,,,,,,,,,,,,,,,,,1,,,,,,,,,,,,,,,,,,,,,,,,,,,,,,,,,,,,,,,,,,,,,,90,140914,21,Female,1,2024/03/14_12:04:15,YZ,None,
,,,,,,calibration,0,4,2,202,5,C,0,right,0.5241389879956841,1,0,,,,,,,,,,,,,,,,,,,,,1,,,,,,,,,,,,,,,,,,,,,,,,,,,,,,,,,,,,,,,,,,,,,,90,140914,21,Female,1,2024/03/14_12:04:15,YZ,None,
,,,,,,calibration,0,4,2,202,6,V,1,left,0.5122556669812184,1,0,,,,,,,,,,,,,,,,,,,,,1,,,,,,,,,,,,,,,,,,,,,,,,,,,,,,,,,,,,,,,,,,,,,,90,140914,21,Female,1,2024/03/14_12:04:15,YZ,None,
,,,,,,calibration,0,4,2,202,7,F,0,right,0.38789506402099505,1,0,,,,,,,,,,,,,,,,,,,,,1,,,,,,,,,,,,,,,,,,,,,,,,,,,,,,,,,,,,,,,,,,,,,,90,140914,21,Female,1,2024/03/14_12:04:15,YZ,None,
,,,,,,calibration,0,4,2,202,8,V,1,left,0.549747290002415,1,0,,,,,,,,,,,,,,,,,,,,,1,,,,,,,,,,,,,,,,,,,,,,,,,,,,,,,,,,,,,,,,,,,,,,90,140914,21,Female,1,2024/03/14_12:04:15,YZ,None,
,,,,,,calibration,0,4,2,202,9,X,0,right,0.45880390802631155,1,0,,,,,,,,,,,,,,,,,,,,,1,,,,,,,,,,,,,,,,,,,,,,,,,,,,,,,,,,,,,,,,,,,,,,90,140914,21,Female,1,2024/03/14_12:04:15,YZ,None,
,,,,,,calibration,0,4,2,202,10,N,0,right,0.4578176350041758,1,0,,,,,,,,,,,,,,,,,,,,,1,,,,,,,,,,,,,,,,,,,,,,,,,,,,,,,,,,,,,,,,,,,,,,90,140914,21,Female,1,2024/03/14_12:04:15,YZ,None,
,,,,,,calibration,0,4,2,202,11,V,0,right,0.7914726919843815,1,0,,,,,,,,,,,,,,,,,,,,,1,,,,,,,,,,,,,,,,,,,,,,,,,,,,,,,,,,,,,,,,,,,,,,90,140914,21,Female,1,2024/03/14_12:04:15,YZ,None,
,,,,,,calibration,0,4,2,202,12,X,0,left,0.6583959279814735,0,0,,,,,,,,,,,,,,,,,,,,,1,,,,,,,,,,,,,,,,,,,,,,,,,,,,,,,,,,,,,,,,,,,,,,90,140914,21,Female,1,2024/03/14_12:04:15,YZ,None,
,,,,,,calibration,0,4,2,202,13,Q,0,right,0.4362705170060508,1,0,,,,,,,,,,,,,,,,,,,,,1,,,,,,,,,,,,,,,,,,,,,,,,,,,,,,,,,,,,,,,,,,,,,,90,140914,21,Female,1,2024/03/14_12:04:15,YZ,None,
,,,,,,calibration,0,4,2,202,14,C,0,right,0.3376180230116006,1,0,,,,,,,,,,,,,,,,,,,,,1,,,,,,,,,,,,,,,,,,,,,,,,,,,,,,,,,,,,,,,,,,,,,,90,140914,21,Female,1,2024/03/14_12:04:15,YZ,None,
,,,,,,calibration,0,4,2,202,15,Q,1,left,0.44049454599735327,1,0,,,,,,,,,,,,,,,,,,,,,1,,,,,,,,,,,,,,,,,,,,,,,,,,,,,,,,,,,,,,,,,,,,,,90,140914,21,Female,1,2024/03/14_12:04:15,YZ,None,
,,,,,,calibration,0,4,2,202,16,C,1,right,0.4638111569802277,0,0,,,,,,,,,,,,,,,,,,,,,1,,,,,,,,,,,,,,,,,,,,,,,,,,,,,,,,,,,,,,,,,,,,,,90,140914,21,Female,1,2024/03/14_12:04:15,YZ,None,
,,,,,,calibration,0,4,2,202,17,X,0,right,nan,0,1,,,,,,,,,,,,,,,,,,,,,1,,,,,,,,,,,,,,,,,,,,,,,,,,,,,,,,,,,,,,,,,,,,,,90,140914,21,Female,1,2024/03/14_12:04:15,YZ,None,
,,,,,,calibration,0,4,2,202,18,Q,0,left,0.8141747940098867,0,0,,,,,,,,,,,,,,,,,,,,,1,,,,,,,,,,,,,,,,,,,,,,,,,,,,,,,,,,,,,,,,,,,,,,90,140914,21,Female,1,2024/03/14_12:04:15,YZ,None,
,,,,,,calibration,0,4,2,202,19,X,1,right,0.31668106000870466,0,0,,,,,,,,,,,,,,,,,,,,,1,,,,,,,,,,,,,,,,,,,,,,,,,,,,,,,,,,,,,,,,,,,,,,90,140914,21,Female,1,2024/03/14_12:04:15,YZ,None,
,,,,,,calibration,0,4,2,202,20,Q,1,left,0.5326571430196054,1,0,,,,,,,,,,,,,,,,,,,,,1,,,,,,,,,,,,,,,,,,,,,,,,,,,,,,,,,,,,,,,,,,,,,,90,140914,21,Female,1,2024/03/14_12:04:15,YZ,None,
,,,,,,calibration,0,4,2,202,21,V,0,right,0.9177968049771152,1,0,,,,,,,,,,,,,,,,,,,,,1,,,,,,,,,,,,,,,,,,,,,,,,,,,,,,,,,,,,,,,,,,,,,,90,140914,21,Female,1,2024/03/14_12:04:15,YZ,None,
,,,,,,calibration,0,4,2,202,,,,,,,,0.8520408163265305,0.7142857142857143,0.14285714285714285,0.8461538461538461,0.047619047619047616,0.8095238095238095,0.5354029267007718,5,2,0,1,1,11,16,7,14,0,,,,1,,,,,,,,,,,,,,,,,,,,,,,,,,,,,,,,,,,,,,,,,,,,,,90,140914,21,Female,1,2024/03/14_12:04:15,YZ,None,
,,,,,,Calibration,0,,2,202,,,,,,,,,,,,,,,,,,,,,,,,,12,,,1,,,,,,,,,,,,,,,,,,,,,,,,,,,,,,,,,,,,,,,,,,,,,,90,140914,21,Female,1,2024/03/14_12:04:15,YZ,None,
,,,,,,calibration,0,17,2,159,1,F,0,right,0.5307172799948603,1,0,,,,,,,,,,,,,,,,,,,,,1,,,,,,,,,,,,,,,,,,,,,,,,,,,,,,,,,,,,,,,,,,,,,,90,140914,21,Female,1,2024/03/14_12:04:15,YZ,None,
,,,,,,calibration,0,17,2,159,2,Q,0,right,0.5483061959967017,1,0,,,,,,,,,,,,,,,,,,,,,1,,,,,,,,,,,,,,,,,,,,,,,,,,,,,,,,,,,,,,,,,,,,,,90,140914,21,Female,1,2024/03/14_12:04:15,YZ,None,
,,,,,,calibration,0,17,2,159,3,J,0,right,0.6811415720148943,1,0,,,,,,,,,,,,,,,,,,,,,1,,,,,,,,,,,,,,,,,,,,,,,,,,,,,,,,,,,,,,,,,,,,,,90,140914,21,Female,1,2024/03/14_12:04:15,YZ,None,
,,,,,,calibration,0,17,2,159,4,C,0,right,0.8571757509780582,1,0,,,,,,,,,,,,,,,,,,,,,1,,,,,,,,,,,,,,,,,,,,,,,,,,,,,,,,,,,,,,,,,,,,,,90,140914,21,Female,1,2024/03/14_12:04:15,YZ,None,
,,,,,,calibration,0,17,2,159,5,J,1,left,0.624249240005156,1,0,,,,,,,,,,,,,,,,,,,,,1,,,,,,,,,,,,,,,,,,,,,,,,,,,,,,,,,,,,,,,,,,,,,,90,140914,21,Female,1,2024/03/14_12:04:15,YZ,None,
,,,,,,calibration,0,17,2,159,6,F,0,right,0.09415206999983639,1,0,,,,,,,,,,,,,,,,,,,,,1,,,,,,,,,,,,,,,,,,,,,,,,,,,,,,,,,,,,,,,,,,,,,,90,140914,21,Female,1,2024/03/14_12:04:15,YZ,None,
,,,,,,calibration,0,17,2,159,7,X,0,right,0.8529557620058767,1,0,,,,,,,,,,,,,,,,,,,,,1,,,,,,,,,,,,,,,,,,,,,,,,,,,,,,,,,,,,,,,,,,,,,,90,140914,21,Female,1,2024/03/14_12:04:15,YZ,None,
,,,,,,calibration,0,17,2,159,8,N,0,right,0.08242479199543595,1,0,,,,,,,,,,,,,,,,,,,,,1,,,,,,,,,,,,,,,,,,,,,,,,,,,,,,,,,,,,,,,,,,,,,,90,140914,21,Female,1,2024/03/14_12:04:15,YZ,None,
,,,,,,calibration,0,17,2,159,9,Q,0,right,0.9877790000173263,1,0,,,,,,,,,,,,,,,,,,,,,1,,,,,,,,,,,,,,,,,,,,,,,,,,,,,,,,,,,,,,,,,,,,,,90,140914,21,Female,1,2024/03/14_12:04:15,YZ,None,
,,,,,,calibration,0,17,2,159,10,F,0,right,0.2996452499937732,1,0,,,,,,,,,,,,,,,,,,,,,1,,,,,,,,,,,,,,,,,,,,,,,,,,,,,,,,,,,,,,,,,,,,,,90,140914,21,Female,1,2024/03/14_12:04:15,YZ,None,
,,,,,,calibration,0,17,2,159,11,Q,1,right,nan,0,1,,,,,,,,,,,,,,,,,,,,,1,,,,,,,,,,,,,,,,,,,,,,,,,,,,,,,,,,,,,,,,,,,,,,90,140914,21,Female,1,2024/03/14_12:04:15,YZ,None,
,,,,,,calibration,0,17,2,159,12,F,1,right,0.0,0,0,,,,,,,,,,,,,,,,,,,,,1,,,,,,,,,,,,,,,,,,,,,,,,,,,,,,,,,,,,,,,,,,,,,,90,140914,21,Female,1,2024/03/14_12:04:15,YZ,None,
,,,,,,calibration,0,17,2,159,13,X,0,left,0.6742641350138001,0,0,,,,,,,,,,,,,,,,,,,,,1,,,,,,,,,,,,,,,,,,,,,,,,,,,,,,,,,,,,,,,,,,,,,,90,140914,21,Female,1,2024/03/14_12:04:15,YZ,None,
,,,,,,calibration,0,17,2,159,14,F,1,left,0.6809714869887102,1,0,,,,,,,,,,,,,,,,,,,,,1,,,,,,,,,,,,,,,,,,,,,,,,,,,,,,,,,,,,,,,,,,,,,,90,140914,21,Female,1,2024/03/14_12:04:15,YZ,None,
,,,,,,calibration,0,17,2,159,15,C,0,right,0.46814467301010154,1,0,,,,,,,,,,,,,,,,,,,,,1,,,,,,,,,,,,,,,,,,,,,,,,,,,,,,,,,,,,,,,,,,,,,,90,140914,21,Female,1,2024/03/14_12:04:15,YZ,None,
,,,,,,calibration,0,17,2,159,16,F,1,left,0.5261116959736682,1,0,,,,,,,,,,,,,,,,,,,,,1,,,,,,,,,,,,,,,,,,,,,,,,,,,,,,,,,,,,,,,,,,,,,,90,140914,21,Female,1,2024/03/14_12:04:15,YZ,None,
,,,,,,calibration,0,17,2,159,17,C,1,left,0.6585023129882757,1,0,,,,,,,,,,,,,,,,,,,,,1,,,,,,,,,,,,,,,,,,,,,,,,,,,,,,,,,,,,,,,,,,,,,,90,140914,21,Female,1,2024/03/14_12:04:15,YZ,None,
,,,,,,calibration,0,17,2,159,18,X,0,right,0.5766650089935865,1,0,,,,,,,,,,,,,,,,,,,,,1,,,,,,,,,,,,,,,,,,,,,,,,,,,,,,,,,,,,,,,,,,,,,,90,140914,21,Female,1,2024/03/14_12:04:15,YZ,None,
,,,,,,calibration,0,17,2,159,19,J,0,right,0.7155781879846472,1,0,,,,,,,,,,,,,,,,,,,,,1,,,,,,,,,,,,,,,,,,,,,,,,,,,,,,,,,,,,,,,,,,,,,,90,140914,21,Female,1,2024/03/14_12:04:15,YZ,None,
,,,,,,calibration,0,17,2,159,20,S,0,right,0.5307192709879018,1,0,,,,,,,,,,,,,,,,,,,,,1,,,,,,,,,,,,,,,,,,,,,,,,,,,,,,,,,,,,,,,,,,,,,,90,140914,21,Female,1,2024/03/14_12:04:15,YZ,None,
,,,,,,calibration,0,17,2,159,21,Q,0,right,0.7479917770251632,1,0,,,,,,,,,,,,,,,,,,,,,1,,,,,,,,,,,,,,,,,,,,,,,,,,,,,,,,,,,,,,,,,,,,,,90,140914,21,Female,1,2024/03/14_12:04:15,YZ,None,
,,,,,,calibration,0,17,2,159,22,X,0,right,0.543428502016468,1,0,,,,,,,,,,,,,,,,,,,,,1,,,,,,,,,,,,,,,,,,,,,,,,,,,,,,,,,,,,,,,,,,,,,,90,140914,21,Female,1,2024/03/14_12:04:15,YZ,None,
,,,,,,calibration,0,17,2,159,,,,,,,,0.8802083333333333,0.6666666666666666,0.0625,0.9375,0.045454545454545456,0.8920454545454546,0.55623447447544,4,1,1,0,1,15,19,6,16,0,,,,1,,,,,,,,,,,,,,,,,,,,,,,,,,,,,,,,,,,,,,,,,,,,,,90,140914,21,Female,1,2024/03/14_12:04:15,YZ,None,
,,,,,,Calibration,0,,2,159,,,,,,,,,,,,,,,,,,,,,,,,,13,,,1,,,,,,,,,,,,,,,,,,,,,,,,,,,,,,,,,,,,,,,,,,,,,,90,140914,21,Female,1,2024/03/14_12:04:15,YZ,None,
,,,,,,calibration,0,7,2,120,1,S,0,right,0.4966219179914333,1,0,,,,,,,,,,,,,,,,,,,,,1,,,,,,,,,,,,,,,,,,,,,,,,,,,,,,,,,,,,,,,,,,,,,,90,140914,21,Female,1,2024/03/14_12:04:15,YZ,None,
,,,,,,calibration,0,7,2,120,2,X,0,right,0.4604752069863025,1,0,,,,,,,,,,,,,,,,,,,,,1,,,,,,,,,,,,,,,,,,,,,,,,,,,,,,,,,,,,,,,,,,,,,,90,140914,21,Female,1,2024/03/14_12:04:15,YZ,None,
,,,,,,calibration,0,7,2,120,3,V,0,right,0.477634238981409,1,0,,,,,,,,,,,,,,,,,,,,,1,,,,,,,,,,,,,,,,,,,,,,,,,,,,,,,,,,,,,,,,,,,,,,90,140914,21,Female,1,2024/03/14_12:04:15,YZ,None,
,,,,,,calibration,0,7,2,120,4,F,0,right,0.4577511949755717,1,0,,,,,,,,,,,,,,,,,,,,,1,,,,,,,,,,,,,,,,,,,,,,,,,,,,,,,,,,,,,,,,,,,,,,90,140914,21,Female,1,2024/03/14_12:04:15,YZ,None,
,,,,,,calibration,0,7,2,120,5,N,0,right,0.29780954198213294,1,0,,,,,,,,,,,,,,,,,,,,,1,,,,,,,,,,,,,,,,,,,,,,,,,,,,,,,,,,,,,,,,,,,,,,90,140914,21,Female,1,2024/03/14_12:04:15,YZ,None,
,,,,,,calibration,0,7,2,120,6,F,1,right,0.30524599901400506,0,0,,,,,,,,,,,,,,,,,,,,,1,,,,,,,,,,,,,,,,,,,,,,,,,,,,,,,,,,,,,,,,,,,,,,90,140914,21,Female,1,2024/03/14_12:04:15,YZ,None,
,,,,,,calibration,0,7,2,120,7,N,1,left,0.0,1,0,,,,,,,,,,,,,,,,,,,,,1,,,,,,,,,,,,,,,,,,,,,,,,,,,,,,,,,,,,,,,,,,,,,,90,140914,21,Female,1,2024/03/14_12:04:15,YZ,None,
,,,,,,calibration,0,7,2,120,8,C,0,left,nan,0,1,,,,,,,,,,,,,,,,,,,,,1,,,,,,,,,,,,,,,,,,,,,,,,,,,,,,,,,,,,,,,,,,,,,,90,140914,21,Female,1,2024/03/14_12:04:15,YZ,None,
,,,,,,calibration,0,7,2,120,9,N,1,right,0.0,0,0,,,,,,,,,,,,,,,,,,,,,1,,,,,,,,,,,,,,,,,,,,,,,,,,,,,,,,,,,,,,,,,,,,,,90,140914,21,Female,1,2024/03/14_12:04:15,YZ,None,
,,,,,,calibration,0,7,2,120,10,S,0,right,nan,0,1,,,,,,,,,,,,,,,,,,,,,1,,,,,,,,,,,,,,,,,,,,,,,,,,,,,,,,,,,,,,,,,,,,,,90,140914,21,Female,1,2024/03/14_12:04:15,YZ,None,
,,,,,,calibration,0,7,2,120,11,V,0,right,0.6591235189989675,1,0,,,,,,,,,,,,,,,,,,,,,1,,,,,,,,,,,,,,,,,,,,,,,,,,,,,,,,,,,,,,,,,,,,,,90,140914,21,Female,1,2024/03/14_12:04:15,YZ,None,
,,,,,,calibration,0,7,2,120,12,F,0,right,0.32739540201146156,1,0,,,,,,,,,,,,,,,,,,,,,1,,,,,,,,,,,,,,,,,,,,,,,,,,,,,,,,,,,,,,,,,,,,,,90,140914,21,Female,1,2024/03/14_12:04:15,YZ,None,
,,,,,,calibration,0,7,2,120,13,N,0,right,0.4363862239988521,1,0,,,,,,,,,,,,,,,,,,,,,1,,,,,,,,,,,,,,,,,,,,,,,,,,,,,,,,,,,,,,,,,,,,,,90,140914,21,Female,1,2024/03/14_12:04:15,YZ,None,
,,,,,,calibration,0,7,2,120,14,C,0,right,0.5605712859833147,1,0,,,,,,,,,,,,,,,,,,,,,1,,,,,,,,,,,,,,,,,,,,,,,,,,,,,,,,,,,,,,,,,,,,,,90,140914,21,Female,1,2024/03/14_12:04:15,YZ,None,
,,,,,,calibration,0,7,2,120,15,N,1,left,0.6348708359873854,1,0,,,,,,,,,,,,,,,,,,,,,1,,,,,,,,,,,,,,,,,,,,,,,,,,,,,,,,,,,,,,,,,,,,,,90,140914,21,Female,1,2024/03/14_12:04:15,YZ,None,
,,,,,,calibration,0,7,2,120,16,F,0,left,0.7257994359824806,0,0,,,,,,,,,,,,,,,,,,,,,1,,,,,,,,,,,,,,,,,,,,,,,,,,,,,,,,,,,,,,,,,,,,,,90,140914,21,Female,1,2024/03/14_12:04:15,YZ,None,
,,,,,,calibration,0,7,2,120,17,N,1,left,0.9308227459841873,1,0,,,,,,,,,,,,,,,,,,,,,1,,,,,,,,,,,,,,,,,,,,,,,,,,,,,,,,,,,,,,,,,,,,,,90,140914,21,Female,1,2024/03/14_12:04:15,YZ,None,
,,,,,,calibration,0,7,2,120,18,V,0,right,0.5991293780098204,1,0,,,,,,,,,,,,,,,,,,,,,1,,,,,,,,,,,,,,,,,,,,,,,,,,,,,,,,,,,,,,,,,,,,,,90,140914,21,Female,1,2024/03/14_12:04:15,YZ,None,
,,,,,,calibration,0,7,2,120,19,Q,0,right,0.5414093529980164,1,0,,,,,,,,,,,,,,,,,,,,,1,,,,,,,,,,,,,,,,,,,,,,,,,,,,,,,,,,,,,,,,,,,,,,90,140914,21,Female,1,2024/03/14_12:04:15,YZ,None,
,,,,,,calibration,0,7,2,120,20,V,1,left,0.4663456210109871,1,0,,,,,,,,,,,,,,,,,,,,,1,,,,,,,,,,,,,,,,,,,,,,,,,,,,,,,,,,,,,,,,,,,,,,90,140914,21,Female,1,2024/03/14_12:04:15,YZ,None,
,,,,,,calibration,0,7,2,120,21,S,0,right,0.42445025299093686,1,0,,,,,,,,,,,,,,,,,,,,,1,,,,,,,,,,,,,,,,,,,,,,,,,,,,,,,,,,,,,,,,,,,,,,90,140914,21,Female,1,2024/03/14_12:04:15,YZ,None,
,,,,,,calibration,0,7,2,120,22,V,1,left,0.6237922500004061,1,0,,,,,,,,,,,,,,,,,,,,,1,,,,,,,,,,,,,,,,,,,,,,,,,,,,,,,,,,,,,,,,,,,,,,90,140914,21,Female,1,2024/03/14_12:04:15,YZ,None,
,,,,,,calibration,0,7,2,120,23,F,0,right,0.3446160439925734,1,0,,,,,,,,,,,,,,,,,,,,,1,,,,,,,,,,,,,,,,,,,,,,,,,,,,,,,,,,,,,,,,,,,,,,90,140914,21,Female,1,2024/03/14_12:04:15,YZ,None,
,,,,,,calibration,0,7,2,120,,,,,,,,0.8950892857142857,0.7142857142857143,0.0625,0.9285714285714286,0.08695652173913043,0.8505434782608696,0.46525002132763066,5,1,0,2,2,13,18,7,16,0,,,,1,,,,,,,,,,,,,,,,,,,,,,,,,,,,,,,,,,,,,,,,,,,,,,90,140914,21,Female,1,2024/03/14_12:04:15,YZ,None,
,,,,,,Calibration,0,,2,120,,,,,,,,,,,,,,,,,,,,,,,,,14,,,1,,,,,,,,,,,,,,,,,,,,,,,,,,,,,,,,,,,,,,,,,,,,,,90,140914,21,Female,1,2024/03/14_12:04:15,YZ,None,
,,,,,,calibration,0,9,2,83,1,N,0,right,0.31260130199370906,1,0,,,,,,,,,,,,,,,,,,,,,1,,,,,,,,,,,,,,,,,,,,,,,,,,,,,,,,,,,,,,,,,,,,,,90,140914,21,Female,1,2024/03/14_12:04:15,YZ,None,
,,,,,,calibration,0,9,2,83,2,J,0,right,0.2524173069978133,1,0,,,,,,,,,,,,,,,,,,,,,1,,,,,,,,,,,,,,,,,,,,,,,,,,,,,,,,,,,,,,,,,,,,,,90,140914,21,Female,1,2024/03/14_12:04:15,YZ,None,
,,,,,,calibration,0,9,2,83,3,X,0,right,0.3040742769953795,1,0,,,,,,,,,,,,,,,,,,,,,1,,,,,,,,,,,,,,,,,,,,,,,,,,,,,,,,,,,,,,,,,,,,,,90,140914,21,Female,1,2024/03/14_12:04:15,YZ,None,
,,,,,,calibration,0,9,2,83,4,N,0,left,0.4313300829962827,0,0,,,,,,,,,,,,,,,,,,,,,1,,,,,,,,,,,,,,,,,,,,,,,,,,,,,,,,,,,,,,,,,,,,,,90,140914,21,Female,1,2024/03/14_12:04:15,YZ,None,
,,,,,,calibration,0,9,2,83,5,X,1,right,0.3322501729999203,0,0,,,,,,,,,,,,,,,,,,,,,1,,,,,,,,,,,,,,,,,,,,,,,,,,,,,,,,,,,,,,,,,,,,,,90,140914,21,Female,1,2024/03/14_12:04:15,YZ,None,
,,,,,,calibration,0,9,2,83,6,Q,0,right,0.49644504199386574,1,0,,,,,,,,,,,,,,,,,,,,,1,,,,,,,,,,,,,,,,,,,,,,,,,,,,,,,,,,,,,,,,,,,,,,90,140914,21,Female,1,2024/03/14_12:04:15,YZ,None,
,,,,,,calibration,0,9,2,83,7,F,0,right,0.3291787009802647,1,0,,,,,,,,,,,,,,,,,,,,,1,,,,,,,,,,,,,,,,,,,,,,,,,,,,,,,,,,,,,,,,,,,,,,90,140914,21,Female,1,2024/03/14_12:04:15,YZ,None,
,,,,,,calibration,0,9,2,83,8,N,0,left,0.5122832990018651,0,0,,,,,,,,,,,,,,,,,,,,,1,,,,,,,,,,,,,,,,,,,,,,,,,,,,,,,,,,,,,,,,,,,,,,90,140914,21,Female,1,2024/03/14_12:04:15,YZ,None,
,,,,,,calibration,0,9,2,83,9,F,1,right,0.4357474340067711,0,0,,,,,,,,,,,,,,,,,,,,,1,,,,,,,,,,,,,,,,,,,,,,,,,,,,,,,,,,,,,,,,,,,,,,90,140914,21,Female,1,2024/03/14_12:04:15,YZ,None,
,,,,,,calibration,0,9,2,83,10,X,0,right,0.2000665859959554,1,0,,,,,,,,,,,,,,,,,,,,,1,,,,,,,,,,,,,,,,,,,,,,,,,,,,,,,,,,,,,,,,,,,,,,90,140914,21,Female,1,2024/03/14_12:04:15,YZ,None,
,,,,,,calibration,0,9,2,83,11,F,1,left,0.4284183209820185,1,0,,,,,,,,,,,,,,,,,,,,,1,,,,,,,,,,,,,,,,,,,,,,,,,,,,,,,,,,,,,,,,,,,,,,90,140914,21,Female,1,2024/03/14_12:04:15,YZ,None,
,,,,,,calibration,0,9,2,83,12,X,1,right,0.2752687900210731,0,0,,,,,,,,,,,,,,,,,,,,,1,,,,,,,,,,,,,,,,,,,,,,,,,,,,,,,,,,,,,,,,,,,,,,90,140914,21,Female,1,2024/03/14_12:04:15,YZ,None,
,,,,,,calibration,0,9,2,83,13,Q,0,right,0.5197012249846011,1,0,,,,,,,,,,,,,,,,,,,,,1,,,,,,,,,,,,,,,,,,,,,,,,,,,,,,,,,,,,,,,,,,,,,,90,140914,21,Female,1,2024/03/14_12:04:15,YZ,None,
,,,,,,calibration,0,9,2,83,14,N,0,right,0.5754958629840985,1,0,,,,,,,,,,,,,,,,,,,,,1,,,,,,,,,,,,,,,,,,,,,,,,,,,,,,,,,,,,,,,,,,,,,,90,140914,21,Female,1,2024/03/14_12:04:15,YZ,None,
,,,,,,calibration,0,9,2,83,15,V,0,right,0.8206864380044863,1,0,,,,,,,,,,,,,,,,,,,,,1,,,,,,,,,,,,,,,,,,,,,,,,,,,,,,,,,,,,,,,,,,,,,,90,140914,21,Female,1,2024/03/14_12:04:15,YZ,None,
,,,,,,calibration,0,9,2,83,16,J,0,right,0.6723591859918088,1,0,,,,,,,,,,,,,,,,,,,,,1,,,,,,,,,,,,,,,,,,,,,,,,,,,,,,,,,,,,,,,,,,,,,,90,140914,21,Female,1,2024/03/14_12:04:15,YZ,None,
,,,,,,calibration,0,9,2,83,17,N,0,left,0.40693257297971286,0,0,,,,,,,,,,,,,,,,,,,,,1,,,,,,,,,,,,,,,,,,,,,,,,,,,,,,,,,,,,,,,,,,,,,,90,140914,21,Female,1,2024/03/14_12:04:15,YZ,None,
,,,,,,calibration,0,9,2,83,18,Q,0,right,0.5946055359963793,1,0,,,,,,,,,,,,,,,,,,,,,1,,,,,,,,,,,,,,,,,,,,,,,,,,,,,,,,,,,,,,,,,,,,,,90,140914,21,Female,1,2024/03/14_12:04:15,YZ,None,
,,,,,,calibration,0,9,2,83,19,J,0,left,0.5918642619799357,0,0,,,,,,,,,,,,,,,,,,,,,1,,,,,,,,,,,,,,,,,,,,,,,,,,,,,,,,,,,,,,,,,,,,,,90,140914,21,Female,1,2024/03/14_12:04:15,YZ,None,
,,,,,,calibration,0,9,2,83,20,F,0,right,0.4389173350064084,1,0,,,,,,,,,,,,,,,,,,,,,1,,,,,,,,,,,,,,,,,,,,,,,,,,,,,,,,,,,,,,,,,,,,,,90,140914,21,Female,1,2024/03/14_12:04:15,YZ,None,
,,,,,,calibration,0,9,2,83,21,V,0,right,0.5414552290167194,1,0,,,,,,,,,,,,,,,,,,,,,1,,,,,,,,,,,,,,,,,,,,,,,,,,,,,,,,,,,,,,,,,,,,,,90,140914,21,Female,1,2024/03/14_12:04:15,YZ,None,
,,,,,,calibration,0,9,2,83,22,J,0,right,0.6269668280147016,1,0,,,,,,,,,,,,,,,,,,,,,1,,,,,,,,,,,,,,,,,,,,,,,,,,,,,,,,,,,,,,,,,,,,,,90,140914,21,Female,1,2024/03/14_12:04:15,YZ,None,
,,,,,,calibration,0,9,2,83,23,V,1,right,0.6815267500060145,0,0,,,,,,,,,,,,,,,,,,,,,1,,,,,,,,,,,,,,,,,,,,,,,,,,,,,,,,,,,,,,,,,,,,,,90,140914,21,Female,1,2024/03/14_12:04:15,YZ,None,
,,,,,,calibration,0,9,2,83,24,J,1,right,0.47456291297567077,0,0,,,,,,,,,,,,,,,,,,,,,1,,,,,,,,,,,,,,,,,,,,,,,,,,,,,,,,,,,,,,,,,,,,,,90,140914,21,Female,1,2024/03/14_12:04:15,YZ,None,
,,,,,,calibration,0,9,2,83,,,,,,,,0.048611111111111105,0.16666666666666666,0.2222222222222222,0.7777777777777778,0.0,0.7777777777777778,0.4689648105377273,1,4,0,0,0,14,15,6,18,0,,,,1,,,,,,,,,,,,,,,,,,,,,,,,,,,,,,,,,,,,,,,,,,,,,,90,140914,21,Female,1,2024/03/14_12:04:15,YZ,None,
,,,,,,Calibration,0,,2,83,,,,,,,,,,,,,,,,,,,,,,,,,15,,,1,,,,,,,,,,,,,,,,,,,,,,,,,,,,,,,,,,,,,,,,,,,,,,90,140914,21,Female,1,2024/03/14_12:04:15,YZ,None,
,,,,,,calibration,0,12,2,120,1,N,0,right,0.4324282080051489,1,0,,,,,,,,,,,,,,,,,,,,,1,,,,,,,,,,,,,,,,,,,,,,,,,,,,,,,,,,,,,,,,,,,,,,90,140914,21,Female,1,2024/03/14_12:04:15,YZ,None,
,,,,,,calibration,0,12,2,120,2,S,0,right,0.48440174700226635,1,0,,,,,,,,,,,,,,,,,,,,,1,,,,,,,,,,,,,,,,,,,,,,,,,,,,,,,,,,,,,,,,,,,,,,90,140914,21,Female,1,2024/03/14_12:04:15,YZ,None,
,,,,,,calibration,0,12,2,120,3,J,0,right,0.3453987470129505,1,0,,,,,,,,,,,,,,,,,,,,,1,,,,,,,,,,,,,,,,,,,,,,,,,,,,,,,,,,,,,,,,,,,,,,90,140914,21,Female,1,2024/03/14_12:04:15,YZ,None,
,,,,,,calibration,0,12,2,120,4,S,1,right,0.31992658899980597,0,0,,,,,,,,,,,,,,,,,,,,,1,,,,,,,,,,,,,,,,,,,,,,,,,,,,,,,,,,,,,,,,,,,,,,90,140914,21,Female,1,2024/03/14_12:04:15,YZ,None,
,,,,,,calibration,0,12,2,120,5,F,0,right,0.37605155099299736,1,0,,,,,,,,,,,,,,,,,,,,,1,,,,,,,,,,,,,,,,,,,,,,,,,,,,,,,,,,,,,,,,,,,,,,90,140914,21,Female,1,2024/03/14_12:04:15,YZ,None,
,,,,,,calibration,0,12,2,120,6,C,0,right,nan,0,1,,,,,,,,,,,,,,,,,,,,,1,,,,,,,,,,,,,,,,,,,,,,,,,,,,,,,,,,,,,,,,,,,,,,90,140914,21,Female,1,2024/03/14_12:04:15,YZ,None,
,,,,,,calibration,0,12,2,120,7,F,1,right,0.4172531859949231,0,0,,,,,,,,,,,,,,,,,,,,,1,,,,,,,,,,,,,,,,,,,,,,,,,,,,,,,,,,,,,,,,,,,,,,90,140914,21,Female,1,2024/03/14_12:04:15,YZ,None,
,,,,,,calibration,0,12,2,120,8,N,0,right,0.5795009499997832,1,0,,,,,,,,,,,,,,,,,,,,,1,,,,,,,,,,,,,,,,,,,,,,,,,,,,,,,,,,,,,,,,,,,,,,90,140914,21,Female,1,2024/03/14_12:04:15,YZ,None,
,,,,,,calibration,0,12,2,120,9,X,0,right,0.5719006269937381,1,0,,,,,,,,,,,,,,,,,,,,,1,,,,,,,,,,,,,,,,,,,,,,,,,,,,,,,,,,,,,,,,,,,,,,90,140914,21,Female,1,2024/03/14_12:04:15,YZ,None,
,,,,,,calibration,0,12,2,120,10,S,0,right,0.5383506460057106,1,0,,,,,,,,,,,,,,,,,,,,,1,,,,,,,,,,,,,,,,,,,,,,,,,,,,,,,,,,,,,,,,,,,,,,90,140914,21,Female,1,2024/03/14_12:04:15,YZ,None,
,,,,,,calibration,0,12,2,120,11,C,0,right,0.8731013880169485,1,0,,,,,,,,,,,,,,,,,,,,,1,,,,,,,,,,,,,,,,,,,,,,,,,,,,,,,,,,,,,,,,,,,,,,90,140914,21,Female,1,2024/03/14_12:04:15,YZ,None,
,,,,,,calibration,0,12,2,120,12,Q,0,right,0.4640489159792196,1,0,,,,,,,,,,,,,,,,,,,,,1,,,,,,,,,,,,,,,,,,,,,,,,,,,,,,,,,,,,,,,,,,,,,,90,140914,21,Female,1,2024/03/14_12:04:15,YZ,None,
,,,,,,calibration,0,12,2,120,13,F,0,right,0.8012691439944319,1,0,,,,,,,,,,,,,,,,,,,,,1,,,,,,,,,,,,,,,,,,,,,,,,,,,,,,,,,,,,,,,,,,,,,,90,140914,21,Female,1,2024/03/14_12:04:15,YZ,None,
,,,,,,calibration,0,12,2,120,14,Q,1,left,0.707502787001431,1,0,,,,,,,,,,,,,,,,,,,,,1,,,,,,,,,,,,,,,,,,,,,,,,,,,,,,,,,,,,,,,,,,,,,,90,140914,21,Female,1,2024/03/14_12:04:15,YZ,None,
,,,,,,calibration,0,12,2,120,15,F,1,right,0.6406348219898064,0,0,,,,,,,,,,,,,,,,,,,,,1,,,,,,,,,,,,,,,,,,,,,,,,,,,,,,,,,,,,,,,,,,,,,,90,140914,21,Female,1,2024/03/14_12:04:15,YZ,None,
,,,,,,calibration,0,12,2,120,16,C,0,right,0.5691332899732515,1,0,,,,,,,,,,,,,,,,,,,,,1,,,,,,,,,,,,,,,,,,,,,,,,,,,,,,,,,,,,,,,,,,,,,,90,140914,21,Female,1,2024/03/14_12:04:15,YZ,None,
,,,,,,calibration,0,12,2,120,17,J,0,right,0.7754539909947198,1,0,,,,,,,,,,,,,,,,,,,,,1,,,,,,,,,,,,,,,,,,,,,,,,,,,,,,,,,,,,,,,,,,,,,,90,140914,21,Female,1,2024/03/14_12:04:15,YZ,None,
,,,,,,calibration,0,12,2,120,18,C,1,right,0.8407666379935108,0,0,,,,,,,,,,,,,,,,,,,,,1,,,,,,,,,,,,,,,,,,,,,,,,,,,,,,,,,,,,,,,,,,,,,,90,140914,21,Female,1,2024/03/14_12:04:15,YZ,None,
,,,,,,calibration,0,12,2,120,19,N,0,right,nan,0,1,,,,,,,,,,,,,,,,,,,,,1,,,,,,,,,,,,,,,,,,,,,,,,,,,,,,,,,,,,,,,,,,,,,,90,140914,21,Female,1,2024/03/14_12:04:15,YZ,None,
,,,,,,calibration,0,12,2,120,20,C,1,left,0.5913070010137744,1,0,,,,,,,,,,,,,,,,,,,,,1,,,,,,,,,,,,,,,,,,,,,,,,,,,,,,,,,,,,,,,,,,,,,,90,140914,21,Female,1,2024/03/14_12:04:15,YZ,None,
,,,,,,calibration,0,12,2,120,21,X,0,right,0.4324227159959264,1,0,,,,,,,,,,,,,,,,,,,,,1,,,,,,,,,,,,,,,,,,,,,,,,,,,,,,,,,,,,,,,,,,,,,,90,140914,21,Female,1,2024/03/14_12:04:15,YZ,None,
,,,,,,calibration,0,12,2,120,22,J,0,right,0.8086419420142192,1,0,,,,,,,,,,,,,,,,,,,,,1,,,,,,,,,,,,,,,,,,,,,,,,,,,,,,,,,,,,,,,,,,,,,,90,140914,21,Female,1,2024/03/14_12:04:15,YZ,None,
,,,,,,calibration,0,12,2,120,23,Q,0,right,0.5232873360218946,1,0,,,,,,,,,,,,,,,,,,,,,1,,,,,,,,,,,,,,,,,,,,,,,,,,,,,,,,,,,,,,,,,,,,,,90,140914,21,Female,1,2024/03/14_12:04:15,YZ,None,
,,,,,,calibration,0,12,2,120,,,,,,,,0.8333333333333334,0.3333333333333333,0.0,1.0,0.08695652173913043,0.9130434782608696,0.5758467724760218,2,0,0,2,2,15,17,6,17,0,,,,1,,,,,,,,,,,,,,,,,,,,,,,,,,,,,,,,,,,,,,,,,,,,,,90,140914,21,Female,1,2024/03/14_12:04:15,YZ,None,
,,,,,,Calibration,0,,2,120,,,,,,,,,,,,,,,,,,,,,,,,,16,,,1,,,,,,,,,,,,,,,,,,,,,,,,,,,,,,,,,,,,,,,,,,,,,,90,140914,21,Female,1,2024/03/14_12:04:15,YZ,None,
,,,,,,CALIBRATION,0,,,,,,,,,,,,,,,,,,,,,,,,,,,,16,0.8333333333333334,120,1,,,,,,,,,,,,,,,,,,,,,,,,,,,,,,,,,,,,,,,,,,,,,,90,140914,21,Female,1,2024/03/14_12:04:15,YZ,None,
1,./instructions/inst_prac_1/Slide24.png,right,13.051883273001295,571.4043478509993,584.4562311240006,,,,,,,,,,,,,,,,,,,,,,,,,,,,,,,,,1,,,,,,,,,,,,,,,,,,,,,,,,,,,,,,,,,,,,,,,,,,,,,,90,140914,21,Female,1,2024/03/14_12:04:15,YZ,None,
2,./instructions/inst_prac_1/Slide25.png,right,4.714274898986332,584.4861913729983,589.2004662719846,,,,,,,,,,,,,,,,,,,,,,,,,,,,,,,,,1,,,,,,,,,,,,,,,,,,,,,,,,,,,,,,,,,,,,,,,,,,,,,,90,140914,21,Female,1,2024/03/14_12:04:15,YZ,None,
3,./instructions/inst_prac_1/Slide26.png,right,1.0186113789968658,589.2297030960035,590.2483144750004,,,,,,,,,,,,,,,,,,,,,,,,,,,,,,,,,1,,,,,,,,,,,,,,,,,,,,,,,,,,,,,,,,,,,,,,,,,,,,,,90,140914,21,Female,1,2024/03/14_12:04:15,YZ,None,
4,./instructions/inst_prac_1/Slide27.png,right,0.898492553998949,590.2774784849898,591.1759710389888,,,,,,,,,,,,,,,,,,,,,,,,,,,,,,,,,1,,,,,,,,,,,,,,,,,,,,,,,,,,,,,,,,,,,,,,,,,,,,,,90,140914,21,Female,1,2024/03/14_12:04:15,YZ,None,
5,./instructions/inst_prac_1/Slide28.png,right,0.9502180459967349,591.2019287479925,592.1521467939892,,,,,,,,,,,,,,,,,,,,,,,,,,,,,,,,,1,,,,,,,,,,,,,,,,,,,,,,,,,,,,,,,,,,,,,,,,,,,,,,90,140914,21,Female,1,2024/03/14_12:04:15,YZ,None,
6,./instructions/inst_prac_1/Slide29.png,right,4.026686716009863,592.1814369729836,596.2081236889935,,,,,,,,,,,,,,,,,,,,,,,,,,,,,,,,,1,,,,,,,,,,,,,,,,,,,,,,,,,,,,,,,,,,,,,,,,,,,,,,90,140914,21,Female,1,2024/03/14_12:04:15,YZ,None,
7,./instructions/inst_prac_1/Slide30.png,right,2.6986272810027003,596.2373880509986,598.9360153320013,,,,,,,,,,,,,,,,,,,,,,,,,,,,,,,,,1,,,,,,,,,,,,,,,,,,,,,,,,,,,,,,,,,,,,,,,,,,,,,,90,140914,21,Female,1,2024/03/14_12:04:15,YZ,None,
,,,,,,practice,0,15,1,1250,1,N,0,right,1.3137821829877794,1,0,,,,,,,,,,,,,,,,,,,,,1,,,,,,,,,,,,,,,,,,,,,,,,,,,,,,,,,,,,,,,,,,,,,,90,140914,21,Female,1,2024/03/14_12:04:15,YZ,None,
,,,,,,practice,0,15,1,1250,2,N,1,left,0.9404113059863448,1,0,,,,,,,,,,,,,,,,,,,,,1,,,,,,,,,,,,,,,,,,,,,,,,,,,,,,,,,,,,,,,,,,,,,,90,140914,21,Female,1,2024/03/14_12:04:15,YZ,None,
,,,,,,practice,0,15,1,1250,3,S,0,right,1.3276424670184497,1,0,,,,,,,,,,,,,,,,,,,,,1,,,,,,,,,,,,,,,,,,,,,,,,,,,,,,,,,,,,,,,,,,,,,,90,140914,21,Female,1,2024/03/14_12:04:15,YZ,None,
,,,,,,practice,0,15,1,1250,4,S,1,left,0.8043384269985836,1,0,,,,,,,,,,,,,,,,,,,,,1,,,,,,,,,,,,,,,,,,,,,,,,,,,,,,,,,,,,,,,,,,,,,,90,140914,21,Female,1,2024/03/14_12:04:15,YZ,None,
,,,,,,practice,0,15,1,1250,5,X,0,right,0.7957137140037958,1,0,,,,,,,,,,,,,,,,,,,,,1,,,,,,,,,,,,,,,,,,,,,,,,,,,,,,,,,,,,,,,,,,,,,,90,140914,21,Female,1,2024/03/14_12:04:15,YZ,None,
,,,,,,practice,0,15,1,1250,6,X,1,left,0.8885334040096495,1,0,,,,,,,,,,,,,,,,,,,,,1,,,,,,,,,,,,,,,,,,,,,,,,,,,,,,,,,,,,,,,,,,,,,,90,140914,21,Female,1,2024/03/14_12:04:15,YZ,None,
,,,,,,practice,0,15,1,1250,7,C,0,right,1.0761637270043138,1,0,,,,,,,,,,,,,,,,,,,,,1,,,,,,,,,,,,,,,,,,,,,,,,,,,,,,,,,,,,,,,,,,,,,,90,140914,21,Female,1,2024/03/14_12:04:15,YZ,None,
,,,,,,practice,0,15,1,1250,8,J,0,right,0.7584246289916337,1,0,,,,,,,,,,,,,,,,,,,,,1,,,,,,,,,,,,,,,,,,,,,,,,,,,,,,,,,,,,,,,,,,,,,,90,140914,21,Female,1,2024/03/14_12:04:15,YZ,None,
,,,,,,practice,0,15,1,1250,9,S,0,right,0.5722778839990497,1,0,,,,,,,,,,,,,,,,,,,,,1,,,,,,,,,,,,,,,,,,,,,,,,,,,,,,,,,,,,,,,,,,,,,,90,140914,21,Female,1,2024/03/14_12:04:15,YZ,None,
,,,,,,practice,0,15,1,1250,10,J,0,right,0.6150256909895688,1,0,,,,,,,,,,,,,,,,,,,,,1,,,,,,,,,,,,,,,,,,,,,,,,,,,,,,,,,,,,,,,,,,,,,,90,140914,21,Female,1,2024/03/14_12:04:15,YZ,None,
,,,,,,practice,0,15,1,1250,,,,,,,,1.0,1.0,0.0,1.0,0.0,1.0,0.9092313431989169,3,0,0,0,0,7,10,3,7,0,,,,1,,,,,,,,,,,,,,,,,,,,,,,,,,,,,,,,,,,,,,,,,,,,,,90,140914,21,Female,1,2024/03/14_12:04:15,YZ,None,
1,./instructions/inst_prac_1_next/Slide35.png,right,1.6483612660085782,618.5676131729851,620.2159744389937,,,,,,,,,,,,,,,,,,,,,,,,,,,,,,,,,1,,,,,,,,,,,,,,,,,,,,,,,,,,,,,,,,,,,,,,,,,,,,,,90,140914,21,Female,1,2024/03/14_12:04:15,YZ,None,
,,,,,,practice,0,36,1,120,1,V,0,right,0.7992058389936574,1,0,,,,,,,,,,,,,,,,,,,,,1,,,,,,,,,,,,,,,,,,,,,,,,,,,,,,,,,,,,,,,,,,,,,,90,140914,21,Female,1,2024/03/14_12:04:15,YZ,None,
,,,,,,practice,0,36,1,120,2,V,1,left,0.5755662209994625,1,0,,,,,,,,,,,,,,,,,,,,,1,,,,,,,,,,,,,,,,,,,,,,,,,,,,,,,,,,,,,,,,,,,,,,90,140914,21,Female,1,2024/03/14_12:04:15,YZ,None,
,,,,,,practice,0,36,1,120,3,X,0,right,0.6290856069826987,1,0,,,,,,,,,,,,,,,,,,,,,1,,,,,,,,,,,,,,,,,,,,,,,,,,,,,,,,,,,,,,,,,,,,,,90,140914,21,Female,1,2024/03/14_12:04:15,YZ,None,
,,,,,,practice,0,36,1,120,4,V,0,left,1.0409321399929468,0,0,,,,,,,,,,,,,,,,,,,,,1,,,,,,,,,,,,,,,,,,,,,,,,,,,,,,,,,,,,,,,,,,,,,,90,140914,21,Female,1,2024/03/14_12:04:15,YZ,None,
,,,,,,practice,0,36,1,120,5,V,1,left,0.6698047519894317,1,0,,,,,,,,,,,,,,,,,,,,,1,,,,,,,,,,,,,,,,,,,,,,,,,,,,,,,,,,,,,,,,,,,,,,90,140914,21,Female,1,2024/03/14_12:04:15,YZ,None,
,,,,,,practice,0,36,1,120,6,S,0,right,0.5416227819805499,1,0,,,,,,,,,,,,,,,,,,,,,1,,,,,,,,,,,,,,,,,,,,,,,,,,,,,,,,,,,,,,,,,,,,,,90,140914,21,Female,1,2024/03/14_12:04:15,YZ,None,
,,,,,,practice,0,36,1,120,7,S,1,left,0.5565512600005604,1,0,,,,,,,,,,,,,,,,,,,,,1,,,,,,,,,,,,,,,,,,,,,,,,,,,,,,,,,,,,,,,,,,,,,,90,140914,21,Female,1,2024/03/14_12:04:15,YZ,None,
,,,,,,practice,0,36,1,120,8,J,0,right,0.5122652860009111,1,0,,,,,,,,,,,,,,,,,,,,,1,,,,,,,,,,,,,,,,,,,,,,,,,,,,,,,,,,,,,,,,,,,,,,90,140914,21,Female,1,2024/03/14_12:04:15,YZ,None,
,,,,,,practice,0,36,1,120,9,J,1,left,1.1885695550008677,1,0,,,,,,,,,,,,,,,,,,,,,1,,,,,,,,,,,,,,,,,,,,,,,,,,,,,,,,,,,,,,,,,,,,,,90,140914,21,Female,1,2024/03/14_12:04:15,YZ,None,
,,,,,,practice,0,36,1,120,10,F,0,right,0.5485994299815502,1,0,,,,,,,,,,,,,,,,,,,,,1,,,,,,,,,,,,,,,,,,,,,,,,,,,,,,,,,,,,,,,,,,,,,,90,140914,21,Female,1,2024/03/14_12:04:15,YZ,None,
,,,,,,practice,0,36,1,120,11,S,0,right,0.6203332759905607,1,0,,,,,,,,,,,,,,,,,,,,,1,,,,,,,,,,,,,,,,,,,,,,,,,,,,,,,,,,,,,,,,,,,,,,90,140914,21,Female,1,2024/03/14_12:04:15,YZ,None,
,,,,,,practice,0,36,1,120,12,J,0,right,0.8722037650004495,1,0,,,,,,,,,,,,,,,,,,,,,1,,,,,,,,,,,,,,,,,,,,,,,,,,,,,,,,,,,,,,,,,,,,,,90,140914,21,Female,1,2024/03/14_12:04:15,YZ,None,
,,,,,,practice,0,36,1,120,13,J,1,left,0.5043461789900903,1,0,,,,,,,,,,,,,,,,,,,,,1,,,,,,,,,,,,,,,,,,,,,,,,,,,,,,,,,,,,,,,,,,,,,,90,140914,21,Female,1,2024/03/14_12:04:15,YZ,None,
,,,,,,practice,0,36,1,120,14,X,0,right,0.5292992810136639,1,0,,,,,,,,,,,,,,,,,,,,,1,,,,,,,,,,,,,,,,,,,,,,,,,,,,,,,,,,,,,,,,,,,,,,90,140914,21,Female,1,2024/03/14_12:04:15,YZ,None,
,,,,,,practice,0,36,1,120,15,N,0,right,0.529841720010154,1,0,,,,,,,,,,,,,,,,,,,,,1,,,,,,,,,,,,,,,,,,,,,,,,,,,,,,,,,,,,,,,,,,,,,,90,140914,21,Female,1,2024/03/14_12:04:15,YZ,None,
,,,,,,practice,0,36,1,120,16,N,1,left,0.5762603209877852,1,0,,,,,,,,,,,,,,,,,,,,,1,,,,,,,,,,,,,,,,,,,,,,,,,,,,,,,,,,,,,,,,,,,,,,90,140914,21,Female,1,2024/03/14_12:04:15,YZ,None,
,,,,,,practice,0,36,1,120,17,V,0,right,0.6018669850018341,1,0,,,,,,,,,,,,,,,,,,,,,1,,,,,,,,,,,,,,,,,,,,,,,,,,,,,,,,,,,,,,,,,,,,,,90,140914,21,Female,1,2024/03/14_12:04:15,YZ,None,
,,,,,,practice,0,36,1,120,18,N,0,right,0.5433500509825535,1,0,,,,,,,,,,,,,,,,,,,,,1,,,,,,,,,,,,,,,,,,,,,,,,,,,,,,,,,,,,,,,,,,,,,,90,140914,21,Female,1,2024/03/14_12:04:15,YZ,None,
,,,,,,practice,0,36,1,120,19,F,0,right,0.7042014159960672,1,0,,,,,,,,,,,,,,,,,,,,,1,,,,,,,,,,,,,,,,,,,,,,,,,,,,,,,,,,,,,,,,,,,,,,90,140914,21,Female,1,2024/03/14_12:04:15,YZ,None,
,,,,,,practice,0,36,1,120,20,Q,0,right,0.4317256349895615,1,0,,,,,,,,,,,,,,,,,,,,,1,,,,,,,,,,,,,,,,,,,,,,,,,,,,,,,,,,,,,,,,,,,,,,90,140914,21,Female,1,2024/03/14_12:04:15,YZ,None,
,,,,,,practice,0,36,1,120,21,J,0,right,0.5726823589939158,1,0,,,,,,,,,,,,,,,,,,,,,1,,,,,,,,,,,,,,,,,,,,,,,,,,,,,,,,,,,,,,,,,,,,,,90,140914,21,Female,1,2024/03/14_12:04:15,YZ,None,
,,,,,,practice,0,36,1,120,22,J,1,left,0.44902923301560804,1,0,,,,,,,,,,,,,,,,,,,,,1,,,,,,,,,,,,,,,,,,,,,,,,,,,,,,,,,,,,,,,,,,,,,,90,140914,21,Female,1,2024/03/14_12:04:15,YZ,None,
,,,,,,practice,0,36,1,120,23,X,0,right,0.4173814239911735,1,0,,,,,,,,,,,,,,,,,,,,,1,,,,,,,,,,,,,,,,,,,,,,,,,,,,,,,,,,,,,,,,,,,,,,90,140914,21,Female,1,2024/03/14_12:04:15,YZ,None,
,,,,,,practice,0,36,1,120,,,,,,,,0.984375,1.0,0.0625,0.9375,0.0,0.9375,0.6267271529080893,7,1,0,0,0,15,22,7,16,0,,,,1,,,,,,,,,,,,,,,,,,,,,,,,,,,,,,,,,,,,,,,,,,,,,,90,140914,21,Female,1,2024/03/14_12:04:15,YZ,None,
,,,,,,practice,0,18,1,120,1,V,0,right,0.3975363289937377,1,0,,,,,,,,,,,,,,,,,,,,,1,,,,,,,,,,,,,,,,,,,,,,,,,,,,,,,,,,,,,,,,,,,,,,90,140914,21,Female,1,2024/03/14_12:04:15,YZ,None,
,,,,,,practice,0,18,1,120,2,F,0,right,0.38747535698348656,1,0,,,,,,,,,,,,,,,,,,,,,1,,,,,,,,,,,,,,,,,,,,,,,,,,,,,,,,,,,,,,,,,,,,,,90,140914,21,Female,1,2024/03/14_12:04:15,YZ,None,
,,,,,,practice,0,18,1,120,3,F,1,left,0.36207503502373584,1,0,,,,,,,,,,,,,,,,,,,,,1,,,,,,,,,,,,,,,,,,,,,,,,,,,,,,,,,,,,,,,,,,,,,,90,140914,21,Female,1,2024/03/14_12:04:15,YZ,None,
,,,,,,practice,0,18,1,120,4,N,0,right,0.42828299797838554,1,0,,,,,,,,,,,,,,,,,,,,,1,,,,,,,,,,,,,,,,,,,,,,,,,,,,,,,,,,,,,,,,,,,,,,90,140914,21,Female,1,2024/03/14_12:04:15,YZ,None,
,,,,,,practice,0,18,1,120,5,N,1,right,0.33901270700152963,0,0,,,,,,,,,,,,,,,,,,,,,1,,,,,,,,,,,,,,,,,,,,,,,,,,,,,,,,,,,,,,,,,,,,,,90,140914,21,Female,1,2024/03/14_12:04:15,YZ,None,
,,,,,,practice,0,18,1,120,6,V,0,right,0.4044707010034472,1,0,,,,,,,,,,,,,,,,,,,,,1,,,,,,,,,,,,,,,,,,,,,,,,,,,,,,,,,,,,,,,,,,,,,,90,140914,21,Female,1,2024/03/14_12:04:15,YZ,None,
,,,,,,practice,0,18,1,120,7,F,0,right,0.6563368439965416,1,0,,,,,,,,,,,,,,,,,,,,,1,,,,,,,,,,,,,,,,,,,,,,,,,,,,,,,,,,,,,,,,,,,,,,90,140914,21,Female,1,2024/03/14_12:04:15,YZ,None,
,,,,,,practice,0,18,1,120,8,X,0,right,0.48009971698047593,1,0,,,,,,,,,,,,,,,,,,,,,1,,,,,,,,,,,,,,,,,,,,,,,,,,,,,,,,,,,,,,,,,,,,,,90,140914,21,Female,1,2024/03/14_12:04:15,YZ,None,
,,,,,,practice,0,18,1,120,9,Q,0,right,0.5245827740000095,1,0,,,,,,,,,,,,,,,,,,,,,1,,,,,,,,,,,,,,,,,,,,,,,,,,,,,,,,,,,,,,,,,,,,,,90,140914,21,Female,1,2024/03/14_12:04:15,YZ,None,
,,,,,,practice,0,18,1,120,10,J,0,right,0.58868792001158,1,0,,,,,,,,,,,,,,,,,,,,,1,,,,,,,,,,,,,,,,,,,,,,,,,,,,,,,,,,,,,,,,,,,,,,90,140914,21,Female,1,2024/03/14_12:04:15,YZ,None,
,,,,,,practice,0,18,1,120,11,Q,0,right,0.759358762006741,1,0,,,,,,,,,,,,,,,,,,,,,1,,,,,,,,,,,,,,,,,,,,,,,,,,,,,,,,,,,,,,,,,,,,,,90,140914,21,Female,1,2024/03/14_12:04:15,YZ,None,
,,,,,,practice,0,18,1,120,12,Q,1,left,0.5131239719921723,1,0,,,,,,,,,,,,,,,,,,,,,1,,,,,,,,,,,,,,,,,,,,,,,,,,,,,,,,,,,,,,,,,,,,,,90,140914,21,Female,1,2024/03/14_12:04:15,YZ,None,
,,,,,,practice,0,18,1,120,13,N,0,right,0.34941400901880115,1,0,,,,,,,,,,,,,,,,,,,,,1,,,,,,,,,,,,,,,,,,,,,,,,,,,,,,,,,,,,,,,,,,,,,,90,140914,21,Female,1,2024/03/14_12:04:15,YZ,None,
,,,,,,practice,0,18,1,120,14,N,1,left,0.3597300469991751,1,0,,,,,,,,,,,,,,,,,,,,,1,,,,,,,,,,,,,,,,,,,,,,,,,,,,,,,,,,,,,,,,,,,,,,90,140914,21,Female,1,2024/03/14_12:04:15,YZ,None,
,,,,,,practice,0,18,1,120,15,X,0,right,0.39212932498776354,1,0,,,,,,,,,,,,,,,,,,,,,1,,,,,,,,,,,,,,,,,,,,,,,,,,,,,,,,,,,,,,,,,,,,,,90,140914,21,Female,1,2024/03/14_12:04:15,YZ,None,
,,,,,,practice,0,18,1,120,16,X,1,right,0.3537689840013627,0,0,,,,,,,,,,,,,,,,,,,,,1,,,,,,,,,,,,,,,,,,,,,,,,,,,,,,,,,,,,,,,,,,,,,,90,140914,21,Female,1,2024/03/14_12:04:15,YZ,None,
,,,,,,practice,0,18,1,120,17,S,0,right,0.5677000730065629,1,0,,,,,,,,,,,,,,,,,,,,,1,,,,,,,,,,,,,,,,,,,,,,,,,,,,,,,,,,,,,,,,,,,,,,90,140914,21,Female,1,2024/03/14_12:04:15,YZ,None,
,,,,,,practice,0,18,1,120,18,V,0,right,0.47295432302053086,1,0,,,,,,,,,,,,,,,,,,,,,1,,,,,,,,,,,,,,,,,,,,,,,,,,,,,,,,,,,,,,,,,,,,,,90,140914,21,Female,1,2024/03/14_12:04:15,YZ,None,
,,,,,,practice,0,18,1,120,19,X,0,right,0.5303645759995561,1,0,,,,,,,,,,,,,,,,,,,,,1,,,,,,,,,,,,,,,,,,,,,,,,,,,,,,,,,,,,,,,,,,,,,,90,140914,21,Female,1,2024/03/14_12:04:15,YZ,None,
,,,,,,practice,0,18,1,120,20,F,0,right,0.5116519440198317,1,0,,,,,,,,,,,,,,,,,,,,,1,,,,,,,,,,,,,,,,,,,,,,,,,,,,,,,,,,,,,,,,,,,,,,90,140914,21,Female,1,2024/03/14_12:04:15,YZ,None,
,,,,,,practice,0,18,1,120,21,F,1,left,0.5006780849944334,1,0,,,,,,,,,,,,,,,,,,,,,1,,,,,,,,,,,,,,,,,,,,,,,,,,,,,,,,,,,,,,,,,,,,,,90,140914,21,Female,1,2024/03/14_12:04:15,YZ,None,
,,,,,,practice,0,18,1,120,22,Q,0,right,0.42536243799258955,1,0,,,,,,,,,,,,,,,,,,,,,1,,,,,,,,,,,,,,,,,,,,,,,,,,,,,,,,,,,,,,,,,,,,,,90,140914,21,Female,1,2024/03/14_12:04:15,YZ,None,
,,,,,,practice,0,18,1,120,23,S,0,right,0.48009558499325067,1,0,,,,,,,,,,,,,,,,,,,,,1,,,,,,,,,,,,,,,,,,,,,,,,,,,,,,,,,,,,,,,,,,,,,,90,140914,21,Female,1,2024/03/14_12:04:15,YZ,None,
,,,,,,practice,0,18,1,120,,,,,,,,0.9166666666666666,0.6666666666666666,0.0,1.0,0.0,1.0,0.46890836978285655,4,0,0,0,0,17,21,6,17,0,,,,1,,,,,,,,,,,,,,,,,,,,,,,,,,,,,,,,,,,,,,,,,,,,,,90,140914,21,Female,1,2024/03/14_12:04:15,YZ,None,
1,./instructions/inst_prac_3/Slide37.png,right,6.835373648995301,673.6767464570003,680.5121201059956,,,,,,,,,,,,,,,,,,,,,,,,,,,,,,,,,1,,,,,,,,,,,,,,,,,,,,,,,,,,,,,,,,,,,,,,,,,,,,,,90,140914,21,Female,1,2024/03/14_12:04:15,YZ,None,
2,./instructions/inst_prac_3/Slide38.png,right,1.0185489110008348,680.5416616519797,681.5602105629805,,,,,,,,,,,,,,,,,,,,,,,,,,,,,,,,,1,,,,,,,,,,,,,,,,,,,,,,,,,,,,,,,,,,,,,,,,,,,,,,90,140914,21,Female,1,2024/03/14_12:04:15,YZ,None,
3,./instructions/inst_prac_3/Slide39.png,right,1.4986624589946587,681.5894572979887,683.0881197569834,,,,,,,,,,,,,,,,,,,,,,,,,,,,,,,,,1,,,,,,,,,,,,,,,,,,,,,,,,,,,,,,,,,,,,,,,,,,,,,,90,140914,21,Female,1,2024/03/14_12:04:15,YZ,None,
4,./instructions/inst_prac_3/Slide40.png,right,2.739205695979763,683.1169537660026,685.8561594619823,,,,,,,,,,,,,,,,,,,,,,,,,,,,,,,,,1,,,,,,,,,,,,,,,,,,,,,,,,,,,,,,,,,,,,,,,,,,,,,,90,140914,21,Female,1,2024/03/14_12:04:15,YZ,None,
5,./instructions/inst_prac_3/Slide41.png,right,3.290527878998546,685.8854889069917,689.1760167859902,,,,,,,,,,,,,,,,,,,,,,,,,,,,,,,,,1,,,,,,,,,,,,,,,,,,,,,,,,,,,,,,,,,,,,,,,,,,,,,,90,140914,21,Female,1,2024/03/14_12:04:15,YZ,None,
6,./instructions/inst_prac_3/Slide42.png,right,9.70735349698225,689.2047235810023,698.9120770779846,,,,,,,,,,,,,,,,,,,,,,,,,,,,,,,,,1,,,,,,,,,,,,,,,,,,,,,,,,,,,,,,,,,,,,,,,,,,,,,,90,140914,21,Female,1,2024/03/14_12:04:15,YZ,None,
7,./instructions/inst_prac_3/Slide43.png,right,2.706427006982267,698.9417128589994,701.6481398659816,,,,,,,,,,,,,,,,,,,,,,,,,,,,,,,,,1,,,,,,,,,,,,,,,,,,,,,,,,,,,,,,,,,,,,,,,,,,,,,,90,140914,21,Female,1,2024/03/14_12:04:15,YZ,None,
8,./instructions/inst_prac_3/Slide44.png,right,3.410308929014718,701.6778237189865,705.0881326480012,,,,,,,,,,,,,,,,,,,,,,,,,,,,,,,,,1,,,,,,,,,,,,,,,,,,,,,,,,,,,,,,,,,,,,,,,,,,,,,,90,140914,21,Female,1,2024/03/14_12:04:15,YZ,None,
,,,,,,practice,0,13,3,788,1,N,0,right,0.0,1,0,,,,,,,,,,,,,,,,,,,,,1,,,,,,,,,,,,,,,,,,,,,,,,,,,,,,,,,,,,,,,,,,,,,,90,140914,21,Female,1,2024/03/14_12:04:15,YZ,None,
,,,,,,practice,0,13,3,788,2,J,0,right,1.0225512119941413,1,0,,,,,,,,,,,,,,,,,,,,,1,,,,,,,,,,,,,,,,,,,,,,,,,,,,,,,,,,,,,,,,,,,,,,90,140914,21,Female,1,2024/03/14_12:04:15,YZ,None,
,,,,,,practice,0,13,3,788,3,X,0,right,0.7661049079906661,1,0,,,,,,,,,,,,,,,,,,,,,1,,,,,,,,,,,,,,,,,,,,,,,,,,,,,,,,,,,,,,,,,,,,,,90,140914,21,Female,1,2024/03/14_12:04:15,YZ,None,
,,,,,,practice,0,13,3,788,4,N,1,left,0.7275464440172072,1,0,,,,,,,,,,,,,,,,,,,,,1,,,,,,,,,,,,,,,,,,,,,,,,,,,,,,,,,,,,,,,,,,,,,,90,140914,21,Female,1,2024/03/14_12:04:15,YZ,None,
,,,,,,practice,0,13,3,788,5,J,1,left,0.7171768069965765,1,0,,,,,,,,,,,,,,,,,,,,,1,,,,,,,,,,,,,,,,,,,,,,,,,,,,,,,,,,,,,,,,,,,,,,90,140914,21,Female,1,2024/03/14_12:04:15,YZ,None,
,,,,,,practice,0,13,3,788,6,C,0,right,0.8040300360007677,1,0,,,,,,,,,,,,,,,,,,,,,1,,,,,,,,,,,,,,,,,,,,,,,,,,,,,,,,,,,,,,,,,,,,,,90,140914,21,Female,1,2024/03/14_12:04:15,YZ,None,
,,,,,,practice,0,13,3,788,7,X,0,right,0.7643050540063996,1,0,,,,,,,,,,,,,,,,,,,,,1,,,,,,,,,,,,,,,,,,,,,,,,,,,,,,,,,,,,,,,,,,,,,,90,140914,21,Female,1,2024/03/14_12:04:15,YZ,None,
,,,,,,practice,0,13,3,788,8,J,1,left,0.6443169880076312,1,0,,,,,,,,,,,,,,,,,,,,,1,,,,,,,,,,,,,,,,,,,,,,,,,,,,,,,,,,,,,,,,,,,,,,90,140914,21,Female,1,2024/03/14_12:04:15,YZ,None,
,,,,,,practice,0,13,3,788,9,Q,0,right,0.5241392299940344,1,0,,,,,,,,,,,,,,,,,,,,,1,,,,,,,,,,,,,,,,,,,,,,,,,,,,,,,,,,,,,,,,,,,,,,90,140914,21,Female,1,2024/03/14_12:04:15,YZ,None,
,,,,,,practice,0,13,3,788,10,Q,0,right,0.5333994819957297,1,0,,,,,,,,,,,,,,,,,,,,,1,,,,,,,,,,,,,,,,,,,,,,,,,,,,,,,,,,,,,,,,,,,,,,90,140914,21,Female,1,2024/03/14_12:04:15,YZ,None,
,,,,,,practice,0,13,3,788,11,N,0,right,1.069331057020463,1,0,,,,,,,,,,,,,,,,,,,,,1,,,,,,,,,,,,,,,,,,,,,,,,,,,,,,,,,,,,,,,,,,,,,,90,140914,21,Female,1,2024/03/14_12:04:15,YZ,None,
,,,,,,practice,0,13,3,788,12,Q,1,left,1.0067186169908382,1,0,,,,,,,,,,,,,,,,,,,,,1,,,,,,,,,,,,,,,,,,,,,,,,,,,,,,,,,,,,,,,,,,,,,,90,140914,21,Female,1,2024/03/14_12:04:15,YZ,None,
,,,,,,practice,0,13,3,788,13,S,0,right,0.8190831280080602,1,0,,,,,,,,,,,,,,,,,,,,,1,,,,,,,,,,,,,,,,,,,,,,,,,,,,,,,,,,,,,,,,,,,,,,90,140914,21,Female,1,2024/03/14_12:04:15,YZ,None,
,,,,,,practice,0,13,3,788,,,,,,,,1.0,1.0,0.0,1.0,0.0,1.0,0.722977151001732,4,0,0,0,0,9,13,4,9,0,,,,1,,,,,,,,,,,,,,,,,,,,,,,,,,,,,,,,,,,,,,,,,,,,,,90,140914,21,Female,1,2024/03/14_12:04:15,YZ,None,
1,./instructions/inst_prac_3_next/Slide49.png,right,9.345914359000744,728.166179160995,737.5120935199957,,,,,,,,,,,,,,,,,,,,,,,,,,,,,,,,,1,,,,,,,,,,,,,,,,,,,,,,,,,,,,,,,,,,,,,,,,,,,,,,90,140914,21,Female,1,2024/03/14_12:04:15,YZ,None,
,,,,,,practice,0,9,3,120,1,N,0,right,0.7551742210052907,1,0,,,,,,,,,,,,,,,,,,,,,1,,,,,,,,,,,,,,,,,,,,,,,,,,,,,,,,,,,,,,,,,,,,,,90,140914,21,Female,1,2024/03/14_12:04:15,YZ,None,
,,,,,,practice,0,9,3,120,2,X,0,right,0.32850293401861563,1,0,,,,,,,,,,,,,,,,,,,,,1,,,,,,,,,,,,,,,,,,,,,,,,,,,,,,,,,,,,,,,,,,,,,,90,140914,21,Female,1,2024/03/14_12:04:15,YZ,None,
,,,,,,practice,0,9,3,120,3,S,0,right,0.36488728498807177,1,0,,,,,,,,,,,,,,,,,,,,,1,,,,,,,,,,,,,,,,,,,,,,,,,,,,,,,,,,,,,,,,,,,,,,90,140914,21,Female,1,2024/03/14_12:04:15,YZ,None,
,,,,,,practice,0,9,3,120,4,F,0,right,0.36229103701771237,1,0,,,,,,,,,,,,,,,,,,,,,1,,,,,,,,,,,,,,,,,,,,,,,,,,,,,,,,,,,,,,,,,,,,,,90,140914,21,Female,1,2024/03/14_12:04:15,YZ,None,
,,,,,,practice,0,9,3,120,5,N,0,right,0.8634684090211522,1,0,,,,,,,,,,,,,,,,,,,,,1,,,,,,,,,,,,,,,,,,,,,,,,,,,,,,,,,,,,,,,,,,,,,,90,140914,21,Female,1,2024/03/14_12:04:15,YZ,None,
,,,,,,practice,0,9,3,120,6,F,0,left,0.8275777729868423,0,0,,,,,,,,,,,,,,,,,,,,,1,,,,,,,,,,,,,,,,,,,,,,,,,,,,,,,,,,,,,,,,,,,,,,90,140914,21,Female,1,2024/03/14_12:04:15,YZ,None,
,,,,,,practice,0,9,3,120,7,Q,0,right,0.45236245400155894,1,0,,,,,,,,,,,,,,,,,,,,,1,,,,,,,,,,,,,,,,,,,,,,,,,,,,,,,,,,,,,,,,,,,,,,90,140914,21,Female,1,2024/03/14_12:04:15,YZ,None,
,,,,,,practice,0,9,3,120,8,N,1,right,1.3362571200123057,0,0,,,,,,,,,,,,,,,,,,,,,1,,,,,,,,,,,,,,,,,,,,,,,,,,,,,,,,,,,,,,,,,,,,,,90,140914,21,Female,1,2024/03/14_12:04:15,YZ,None,
,,,,,,practice,0,9,3,120,9,J,0,right,0.4013341150130145,1,0,,,,,,,,,,,,,,,,,,,,,1,,,,,,,,,,,,,,,,,,,,,,,,,,,,,,,,,,,,,,,,,,,,,,90,140914,21,Female,1,2024/03/14_12:04:15,YZ,None,
,,,,,,practice,0,9,3,120,10,X,0,right,0.5224130550050177,1,0,,,,,,,,,,,,,,,,,,,,,1,,,,,,,,,,,,,,,,,,,,,,,,,,,,,,,,,,,,,,,,,,,,,,90,140914,21,Female,1,2024/03/14_12:04:15,YZ,None,
,,,,,,practice,0,9,3,120,11,N,1,left,1.2495917909836862,1,0,,,,,,,,,,,,,,,,,,,,,1,,,,,,,,,,,,,,,,,,,,,,,,,,,,,,,,,,,,,,,,,,,,,,90,140914,21,Female,1,2024/03/14_12:04:15,YZ,None,
,,,,,,practice,0,9,3,120,12,N,0,right,0.6931839030003175,1,0,,,,,,,,,,,,,,,,,,,,,1,,,,,,,,,,,,,,,,,,,,,,,,,,,,,,,,,,,,,,,,,,,,,,90,140914,21,Female,1,2024/03/14_12:04:15,YZ,None,
,,,,,,practice,0,9,3,120,13,S,0,right,0.7250068539869972,1,0,,,,,,,,,,,,,,,,,,,,,1,,,,,,,,,,,,,,,,,,,,,,,,,,,,,,,,,,,,,,,,,,,,,,90,140914,21,Female,1,2024/03/14_12:04:15,YZ,None,
,,,,,,practice,0,9,3,120,14,N,1,left,1.2290081270039082,1,0,,,,,,,,,,,,,,,,,,,,,1,,,,,,,,,,,,,,,,,,,,,,,,,,,,,,,,,,,,,,,,,,,,,,90,140914,21,Female,1,2024/03/14_12:04:15,YZ,None,
,,,,,,practice,0,9,3,120,15,Q,0,right,0.7247360400215257,1,0,,,,,,,,,,,,,,,,,,,,,1,,,,,,,,,,,,,,,,,,,,,,,,,,,,,,,,,,,,,,,,,,,,,,90,140914,21,Female,1,2024/03/14_12:04:15,YZ,None,
,,,,,,practice,0,9,3,120,16,J,0,right,0.4337857110076584,1,0,,,,,,,,,,,,,,,,,,,,,1,,,,,,,,,,,,,,,,,,,,,,,,,,,,,,,,,,,,,,,,,,,,,,90,140914,21,Female,1,2024/03/14_12:04:15,YZ,None,
,,,,,,practice,0,9,3,120,17,N,1,right,0.8395546899992041,0,0,,,,,,,,,,,,,,,,,,,,,1,,,,,,,,,,,,,,,,,,,,,,,,,,,,,,,,,,,,,,,,,,,,,,90,140914,21,Female,1,2024/03/14_12:04:15,YZ,None,
,,,,,,practice,0,9,3,120,18,J,0,right,0.8411199800029863,1,0,,,,,,,,,,,,,,,,,,,,,1,,,,,,,,,,,,,,,,,,,,,,,,,,,,,,,,,,,,,,,,,,,,,,90,140914,21,Female,1,2024/03/14_12:04:15,YZ,None,
,,,,,,practice,0,9,3,120,19,F,0,right,0.46411878798971884,1,0,,,,,,,,,,,,,,,,,,,,,1,,,,,,,,,,,,,,,,,,,,,,,,,,,,,,,,,,,,,,,,,,,,,,90,140914,21,Female,1,2024/03/14_12:04:15,YZ,None,
,,,,,,practice,0,9,3,120,20,V,0,right,0.3861724390008021,1,0,,,,,,,,,,,,,,,,,,,,,1,,,,,,,,,,,,,,,,,,,,,,,,,,,,,,,,,,,,,,,,,,,,,,90,140914,21,Female,1,2024/03/14_12:04:15,YZ,None,
,,,,,,practice,0,9,3,120,21,J,1,right,0.5596401490038261,0,0,,,,,,,,,,,,,,,,,,,,,1,,,,,,,,,,,,,,,,,,,,,,,,,,,,,,,,,,,,,,,,,,,,,,90,140914,21,Female,1,2024/03/14_12:04:15,YZ,None,
,,,,,,practice,0,9,3,120,22,S,0,right,0.8415305280068424,1,0,,,,,,,,,,,,,,,,,,,,,1,,,,,,,,,,,,,,,,,,,,,,,,,,,,,,,,,,,,,,,,,,,,,,90,140914,21,Female,1,2024/03/14_12:04:15,YZ,None,
,,,,,,practice,0,9,3,120,23,V,1,left,1.0667045779991895,1,0,,,,,,,,,,,,,,,,,,,,,1,,,,,,,,,,,,,,,,,,,,,,,,,,,,,,,,,,,,,,,,,,,,,,90,140914,21,Female,1,2024/03/14_12:04:15,YZ,None,
,,,,,,practice,0,9,3,120,,,,,,,,0.8308823529411765,0.5,0.058823529411764705,0.9411764705882353,0.0,0.9411764705882353,0.7073226948294019,3,1,0,0,0,16,19,6,17,0,,,,1,,,,,,,,,,,,,,,,,,,,,,,,,,,,,,,,,,,,,,,,,,,,,,90,140914,21,Female,1,2024/03/14_12:04:15,YZ,None,
,,,,,,practice,0,15,3,120,1,V,0,right,0.5250418980140239,1,0,,,,,,,,,,,,,,,,,,,,,1,,,,,,,,,,,,,,,,,,,,,,,,,,,,,,,,,,,,,,,,,,,,,,90,140914,21,Female,1,2024/03/14_12:04:15,YZ,None,
,,,,,,practice,0,15,3,120,2,V,0,right,0.7770052059786394,1,0,,,,,,,,,,,,,,,,,,,,,1,,,,,,,,,,,,,,,,,,,,,,,,,,,,,,,,,,,,,,,,,,,,,,90,140914,21,Female,1,2024/03/14_12:04:15,YZ,None,
,,,,,,practice,0,15,3,120,3,C,0,right,0.5914872710127383,1,0,,,,,,,,,,,,,,,,,,,,,1,,,,,,,,,,,,,,,,,,,,,,,,,,,,,,,,,,,,,,,,,,,,,,90,140914,21,Female,1,2024/03/14_12:04:15,YZ,None,
,,,,,,practice,0,15,3,120,4,S,0,right,0.5761429730046075,1,0,,,,,,,,,,,,,,,,,,,,,1,,,,,,,,,,,,,,,,,,,,,,,,,,,,,,,,,,,,,,,,,,,,,,90,140914,21,Female,1,2024/03/14_12:04:15,YZ,None,
,,,,,,practice,0,15,3,120,5,J,0,right,0.6970803709991742,1,0,,,,,,,,,,,,,,,,,,,,,1,,,,,,,,,,,,,,,,,,,,,,,,,,,,,,,,,,,,,,,,,,,,,,90,140914,21,Female,1,2024/03/14_12:04:15,YZ,None,
,,,,,,practice,0,15,3,120,6,C,1,left,1.235583414993016,1,0,,,,,,,,,,,,,,,,,,,,,1,,,,,,,,,,,,,,,,,,,,,,,,,,,,,,,,,,,,,,,,,,,,,,90,140914,21,Female,1,2024/03/14_12:04:15,YZ,None,
,,,,,,practice,0,15,3,120,7,S,1,right,0.4525464570033364,0,0,,,,,,,,,,,,,,,,,,,,,1,,,,,,,,,,,,,,,,,,,,,,,,,,,,,,,,,,,,,,,,,,,,,,90,140914,21,Female,1,2024/03/14_12:04:15,YZ,None,
,,,,,,practice,0,15,3,120,8,S,0,left,0.8361580090131611,0,0,,,,,,,,,,,,,,,,,,,,,1,,,,,,,,,,,,,,,,,,,,,,,,,,,,,,,,,,,,,,,,,,,,,,90,140914,21,Female,1,2024/03/14_12:04:15,YZ,None,
,,,,,,practice,0,15,3,120,9,C,1,left,0.8413085259962827,1,0,,,,,,,,,,,,,,,,,,,,,1,,,,,,,,,,,,,,,,,,,,,,,,,,,,,,,,,,,,,,,,,,,,,,90,140914,21,Female,1,2024/03/14_12:04:15,YZ,None,
,,,,,,practice,0,15,3,120,10,F,0,right,1.4929807849985082,1,0,,,,,,,,,,,,,,,,,,,,,1,,,,,,,,,,,,,,,,,,,,,,,,,,,,,,,,,,,,,,,,,,,,,,90,140914,21,Female,1,2024/03/14_12:04:15,YZ,None,
,,,,,,practice,0,15,3,120,11,C,0,right,0.5364567149954382,1,0,,,,,,,,,,,,,,,,,,,,,1,,,,,,,,,,,,,,,,,,,,,,,,,,,,,,,,,,,,,,,,,,,,,,90,140914,21,Female,1,2024/03/14_12:04:15,YZ,None,
,,,,,,practice,0,15,3,120,12,J,0,right,0.39931777998572215,1,0,,,,,,,,,,,,,,,,,,,,,1,,,,,,,,,,,,,,,,,,,,,,,,,,,,,,,,,,,,,,,,,,,,,,90,140914,21,Female,1,2024/03/14_12:04:15,YZ,None,
,,,,,,practice,0,15,3,120,13,F,1,left,0.756993864022661,1,0,,,,,,,,,,,,,,,,,,,,,1,,,,,,,,,,,,,,,,,,,,,,,,,,,,,,,,,,,,,,,,,,,,,,90,140914,21,Female,1,2024/03/14_12:04:15,YZ,None,
,,,,,,practice,0,15,3,120,14,Q,0,right,0.4255005619779695,1,0,,,,,,,,,,,,,,,,,,,,,1,,,,,,,,,,,,,,,,,,,,,,,,,,,,,,,,,,,,,,,,,,,,,,90,140914,21,Female,1,2024/03/14_12:04:15,YZ,None,
,,,,,,practice,0,15,3,120,15,S,0,right,0.31425911499536596,1,0,,,,,,,,,,,,,,,,,,,,,1,,,,,,,,,,,,,,,,,,,,,,,,,,,,,,,,,,,,,,,,,,,,,,90,140914,21,Female,1,2024/03/14_12:04:15,YZ,None,
,,,,,,practice,0,15,3,120,16,C,0,right,0.40211092098616064,1,0,,,,,,,,,,,,,,,,,,,,,1,,,,,,,,,,,,,,,,,,,,,,,,,,,,,,,,,,,,,,,,,,,,,,90,140914,21,Female,1,2024/03/14_12:04:15,YZ,None,
,,,,,,practice,0,15,3,120,17,Q,1,left,0.48481081999489106,1,0,,,,,,,,,,,,,,,,,,,,,1,,,,,,,,,,,,,,,,,,,,,,,,,,,,,,,,,,,,,,,,,,,,,,90,140914,21,Female,1,2024/03/14_12:04:15,YZ,None,
,,,,,,practice,0,15,3,120,18,X,0,right,0.27199425498838536,1,0,,,,,,,,,,,,,,,,,,,,,1,,,,,,,,,,,,,,,,,,,,,,,,,,,,,,,,,,,,,,,,,,,,,,90,140914,21,Female,1,2024/03/14_12:04:15,YZ,None,
,,,,,,practice,0,15,3,120,19,C,1,right,0.19340050598839298,0,0,,,,,,,,,,,,,,,,,,,,,1,,,,,,,,,,,,,,,,,,,,,,,,,,,,,,,,,,,,,,,,,,,,,,90,140914,21,Female,1,2024/03/14_12:04:15,YZ,None,
,,,,,,practice,0,15,3,120,20,N,0,right,0.2714364809799008,1,0,,,,,,,,,,,,,,,,,,,,,1,,,,,,,,,,,,,,,,,,,,,,,,,,,,,,,,,,,,,,,,,,,,,,90,140914,21,Female,1,2024/03/14_12:04:15,YZ,None,
,,,,,,practice,0,15,3,120,21,Q,0,left,0.41548063899972476,0,0,,,,,,,,,,,,,,,,,,,,,1,,,,,,,,,,,,,,,,,,,,,,,,,,,,,,,,,,,,,,,,,,,,,,90,140914,21,Female,1,2024/03/14_12:04:15,YZ,None,
,,,,,,practice,0,15,3,120,22,F,0,right,0.30765020599938,1,0,,,,,,,,,,,,,,,,,,,,,1,,,,,,,,,,,,,,,,,,,,,,,,,,,,,,,,,,,,,,,,,,,,,,90,140914,21,Female,1,2024/03/14_12:04:15,YZ,None,
,,,,,,practice,0,15,3,120,23,V,0,right,0.42056872000102885,1,0,,,,,,,,,,,,,,,,,,,,,1,,,,,,,,,,,,,,,,,,,,,,,,,,,,,,,,,,,,,,,,,,,,,,90,140914,21,Female,1,2024/03/14_12:04:15,YZ,None,
,,,,,,practice,0,15,3,120,,,,,,,,0.8480392156862745,0.6666666666666666,0.11764705882352941,0.8823529411764706,0.0,0.8823529411764706,0.5750137171708047,4,2,0,0,0,15,19,6,17,0,,,,1,,,,,,,,,,,,,,,,,,,,,,,,,,,,,,,,,,,,,,,,,,,,,,90,140914,21,Female,1,2024/03/14_12:04:15,YZ,None,
1,./instructions/inst_prac_main/Slide51.png,right,1.708406013000058,795.2755948409904,796.9840008539904,,,,,,,,,,,,,,,,,,,,,,,,,,,,,,,,,1,,,,,,,,,,,,,,,,,,,,,,,,,,,,,,,,,,,,,,,,,,,,,,90,140914,21,Female,1,2024/03/14_12:04:15,YZ,None,
2,./instructions/inst_prac_main/Slide52.png,right,7.7150893439829815,797.0130679639988,804.7281573079817,,,,,,,,,,,,,,,,,,,,,,,,,,,,,,,,,1,,,,,,,,,,,,,,,,,,,,,,,,,,,,,,,,,,,,,,,,,,,,,,90,140914,21,Female,1,2024/03/14_12:04:15,YZ,None,
3,./instructions/inst_prac_main/Slide53.png,right,4.204195984988473,804.7558974139974,808.9600933989859,,,,,,,,,,,,,,,,,,,,,,,,,,,,,,,,,1,,,,,,,,,,,,,,,,,,,,,,,,,,,,,,,,,,,,,,,,,,,,,,90,140914,21,Female,1,2024/03/14_12:04:15,YZ,None,
4,./instructions/inst_prac_main/Slide54.png,right,8.562357621995034,808.9897902189987,817.5521478409937,,,,,,,,,,,,,,,,,,,,,,,,,,,,,,,,,1,,,,,,,,,,,,,,,,,,,,,,,,,,,,,,,,,,,,,,,,,,,,,,90,140914,21,Female,1,2024/03/14_12:04:15,YZ,None,
,,,,,,practice_main,0,1,1,120,1,S,0,None,nan,0,1,,,,,,,,,,,,,,,,,,,,,1,,,,,,,,,,,,,,,,,,,,,,,,,,,,,,,,,,,,,,,,,,,,,,90,140914,21,Female,1,2024/03/14_12:04:15,YZ,None,
,,,,,,practice_main,0,1,1,120,2,S,1,None,nan,0,1,,,,,,,,,,,,,,,,,,,,,1,,,,,,,,,,,,,,,,,,,,,,,,,,,,,,,,,,,,,,,,,,,,,,90,140914,21,Female,1,2024/03/14_12:04:15,YZ,None,
,,,,,,practice_main,0,1,1,120,3,J,0,right,0.6084779060038272,1,0,,,,,,,,,,,,,,,,,,,,,1,,,,,,,,,,,,,,,,,,,,,,,,,,,,,,,,,,,,,,,,,,,,,,90,140914,21,Female,1,2024/03/14_12:04:15,YZ,None,
,,,,,,practice_main,0,1,1,120,4,X,0,right,0.4701027520059142,1,0,,,,,,,,,,,,,,,,,,,,,1,,,,,,,,,,,,,,,,,,,,,,,,,,,,,,,,,,,,,,,,,,,,,,90,140914,21,Female,1,2024/03/14_12:04:15,YZ,None,
,,,,,,practice_main,0,1,1,120,5,S,0,right,0.7276517050049733,1,0,,,,,,,,,,,,,,,,,,,,,1,,,,,,,,,,,,,,,,,,,,,,,,,,,,,,,,,,,,,,,,,,,,,,90,140914,21,Female,1,2024/03/14_12:04:15,YZ,None,
,,,,,,practice_main,0,1,1,120,6,J,0,right,0.40229593799449503,1,0,,,,,,,,,,,,,,,,,,,,,1,,,,,,,,,,,,,,,,,,,,,,,,,,,,,,,,,,,,,,,,,,,,,,90,140914,21,Female,1,2024/03/14_12:04:15,YZ,None,
,,,,,,practice_main,0,1,1,120,7,X,0,right,0.6117248939990532,1,0,,,,,,,,,,,,,,,,,,,,,1,,,,,,,,,,,,,,,,,,,,,,,,,,,,,,,,,,,,,,,,,,,,,,90,140914,21,Female,1,2024/03/14_12:04:15,YZ,None,
,,,,,,practice_main,0,1,1,120,8,X,1,left,0.3684390200069174,1,0,,,,,,,,,,,,,,,,,,,,,1,,,,,,,,,,,,,,,,,,,,,,,,,,,,,,,,,,,,,,,,,,,,,,90,140914,21,Female,1,2024/03/14_12:04:15,YZ,None,
,,,,,,practice_main,0,1,1,120,9,Q,0,right,0.2811072900076397,1,0,,,,,,,,,,,,,,,,,,,,,1,,,,,,,,,,,,,,,,,,,,,,,,,,,,,,,,,,,,,,,,,,,,,,90,140914,21,Female,1,2024/03/14_12:04:15,YZ,None,
,,,,,,practice_main,0,1,1,120,10,V,0,right,0.2811850540165324,1,0,,,,,,,,,,,,,,,,,,,,,1,,,,,,,,,,,,,,,,,,,,,,,,,,,,,,,,,,,,,,,,,,,,,,90,140914,21,Female,1,2024/03/14_12:04:15,YZ,None,
,,,,,,practice_main,0,1,1,120,11,V,1,right,0.3373734519991558,0,0,,,,,,,,,,,,,,,,,,,,,1,,,,,,,,,,,,,,,,,,,,,,,,,,,,,,,,,,,,,,,,,,,,,,90,140914,21,Female,1,2024/03/14_12:04:15,YZ,None,
,,,,,,practice_main,0,1,1,120,12,N,0,right,nan,0,1,,,,,,,,,,,,,,,,,,,,,1,,,,,,,,,,,,,,,,,,,,,,,,,,,,,,,,,,,,,,,,,,,,,,90,140914,21,Female,1,2024/03/14_12:04:15,YZ,None,
,,,,,,practice_main,0,1,1,120,13,J,0,right,0.721684757998446,1,0,,,,,,,,,,,,,,,,,,,,,1,,,,,,,,,,,,,,,,,,,,,,,,,,,,,,,,,,,,,,,,,,,,,,90,140914,21,Female,1,2024/03/14_12:04:15,YZ,None,
,,,,,,practice_main,0,1,1,120,14,X,0,right,0.3295708619989455,1,0,,,,,,,,,,,,,,,,,,,,,1,,,,,,,,,,,,,,,,,,,,,,,,,,,,,,,,,,,,,,,,,,,,,,90,140914,21,Female,1,2024/03/14_12:04:15,YZ,None,
,,,,,,practice_main,0,1,1,120,15,X,1,left,0.41092927698628046,1,0,,,,,,,,,,,,,,,,,,,,,1,,,,,,,,,,,,,,,,,,,,,,,,,,,,,,,,,,,,,,,,,,,,,,90,140914,21,Female,1,2024/03/14_12:04:15,YZ,None,
,,,,,,practice_main,0,1,1,120,16,C,0,right,0.4552410499891266,1,0,,,,,,,,,,,,,,,,,,,,,1,,,,,,,,,,,,,,,,,,,,,,,,,,,,,,,,,,,,,,,,,,,,,,90,140914,21,Female,1,2024/03/14_12:04:15,YZ,None,
,,,,,,practice_main,0,1,1,120,17,C,1,left,0.40813699099817313,1,0,,,,,,,,,,,,,,,,,,,,,1,,,,,,,,,,,,,,,,,,,,,,,,,,,,,,,,,,,,,,,,,,,,,,90,140914,21,Female,1,2024/03/14_12:04:15,YZ,None,
,,,,,,practice_main,0,1,1,120,18,S,0,right,0.31933416199171916,1,0,,,,,,,,,,,,,,,,,,,,,1,,,,,,,,,,,,,,,,,,,,,,,,,,,,,,,,,,,,,,,,,,,,,,90,140914,21,Female,1,2024/03/14_12:04:15,YZ,None,
,,,,,,practice_main,0,1,1,120,19,S,1,left,0.34522986301453784,1,0,,,,,,,,,,,,,,,,,,,,,1,,,,,,,,,,,,,,,,,,,,,,,,,,,,,,,,,,,,,,,,,,,,,,90,140914,21,Female,1,2024/03/14_12:04:15,YZ,None,
,,,,,,practice_main,0,1,1,120,20,Q,0,right,0.3119817669794429,1,0,,,,,,,,,,,,,,,,,,,,,1,,,,,,,,,,,,,,,,,,,,,,,,,,,,,,,,,,,,,,,,,,,,,,90,140914,21,Female,1,2024/03/14_12:04:15,YZ,None,
,,,,,,practice_main,0,1,1,120,21,X,0,right,0.5007636329974048,1,0,,,,,,,,,,,,,,,,,,,,,1,,,,,,,,,,,,,,,,,,,,,,,,,,,,,,,,,,,,,,,,,,,,,,90,140914,21,Female,1,2024/03/14_12:04:15,YZ,None,
,,,,,,practice_main,0,1,1,120,22,N,0,right,0.4020647360011935,1,0,,,,,,,,,,,,,,,,,,,,,1,,,,,,,,,,,,,,,,,,,,,,,,,,,,,,,,,,,,,,,,,,,,,,90,140914,21,Female,1,2024/03/14_12:04:15,YZ,None,
,,,,,,practice_main,0,1,1,120,23,X,0,right,0.5331055279821157,1,0,,,,,,,,,,,,,,,,,,,,,1,,,,,,,,,,,,,,,,,,,,,,,,,,,,,,,,,,,,,,,,,,,,,,90,140914,21,Female,1,2024/03/14_12:04:15,YZ,None,
,,,,,,practice_main,0,1,1,120,,,,,,,,0.9166666666666666,0.6666666666666666,0.0,1.0,0.13043478260869565,0.8695652173913043,0.4413200318987947,4,0,1,2,3,15,19,6,17,0,,,,1,,,,,,,,,,,,,,,,,,,,,,,,,,,,,,,,,,,,,,,,,,,,,,90,140914,21,Female,1,2024/03/14_12:04:15,YZ,None,
,,,,,240314_143456,PRACTICE,0,1,1,120,,,,,,,,,,,,,,,,,,,,,,,,,,,,1,13,2,1,cue2.png,easy,B,49,1.8225751999998465,0,828.6682897149876,830.5092544909858,,,,,,,,,,,,,,,,,,,,,,,,,,,,,,,,,,,90,140914,21,Female,1,2024/03/14_12:04:15,YZ,None,
,,,,,,practice_main,0,2,3,120,1,Q,0,None,nan,0,1,,,,,,,,,,,,,,,,,,,,,1,,,,,,,,,,,,,,,,,,,,,,,,,,,,,,,,,,,,,,,,,,,,,,90,140914,21,Female,1,2024/03/14_12:04:15,YZ,None,
,,,,,,practice_main,0,2,3,120,2,C,0,right,0.2699944170017261,1,0,,,,,,,,,,,,,,,,,,,,,1,,,,,,,,,,,,,,,,,,,,,,,,,,,,,,,,,,,,,,,,,,,,,,90,140914,21,Female,1,2024/03/14_12:04:15,YZ,None,
,,,,,,practice_main,0,2,3,120,3,S,0,right,0.45020299797761254,1,0,,,,,,,,,,,,,,,,,,,,,1,,,,,,,,,,,,,,,,,,,,,,,,,,,,,,,,,,,,,,,,,,,,,,90,140914,21,Female,1,2024/03/14_12:04:15,YZ,None,
,,,,,,practice_main,0,2,3,120,4,V,0,right,0.41566068498650566,1,0,,,,,,,,,,,,,,,,,,,,,1,,,,,,,,,,,,,,,,,,,,,,,,,,,,,,,,,,,,,,,,,,,,,,90,140914,21,Female,1,2024/03/14_12:04:15,YZ,None,
