Instruction,Stimulus,Key,RT,START,END,Phase,Block,TrialN,NbackLevel,ISI,LetterN,Letter,Letter_isSame,Letter_Resp,Letter_RT,Letter_Accuracy,Letter_Timeout,Trial_A_measure,Trial_HR,Trial_FAR,Trial_CDR,Trial_MSR,Trial_ACC,Trial_RT,Trial_HitsCount,Trial_FAsCount,Trial_SameNoRespCount,Trial_DiffNoRespCount,Trial_NoRespCount,Trial_CDsCount,Trial_CorrectRespCount,Trial_SameLetterCount,Trial_DiffLetterCount,Trial_InvalidLetterCount,TrialCountCali,CaliEnd_A_measure,ISI_calibrated,Run,TrialIndex,TrialNumber_total,TrialNumber_valid,CueLearning,TrialDemandLearning,CueMapping,OnlineRating,OnlineRatingRT,OnlineRatingTimeOut,CueSTART,RatingSTART,OfflineRatingTimePoint,OfflineRatingQuesIndex,CueFigure,TrialDemand,OfflineRating,OfflineRatingRT,CueStart,OfflineRatingStart,PhaseType,CueLeft,CueDemandLeft,CueRight,CueDemandRight,Choice,ChoiceDemand,TaskDemand,ChoiceRT,ChoiceTimeOut,ChoiceSTART,CueCheck,CueDemandCheck,CorrectAnswer,Answer,AnswerDemand,AnswerRT,AnswerACC,AnswerTimeOut,CheckSTART,DemandRatingQuesIndex,QuesTLX,DemandLevel,DemandRating,DemandRatingRT,QuesStart,PID,SONA,Age,Gender,Run,TIME,EXPERIMENTER,frameRate,
1,./instructions/inst_begin/Slide2.png,right,54.94505396200111,0.22071257699280977,55.16576653899392,,,,,,,,,,,,,,,,,,,,,,,,,,,,,,,,,1,,,,,,,,,,,,,,,,,,,,,,,,,,,,,,,,,,,,,,,,,,,,,,65,151831,19,Female,1,2024/02/19_08:48:19,YZ,None,
2,./instructions/inst_begin/Slide3.png,right,10.149611619010102,55.25608664099127,65.40569826000137,,,,,,,,,,,,,,,,,,,,,,,,,,,,,,,,,1,,,,,,,,,,,,,,,,,,,,,,,,,,,,,,,,,,,,,,,,,,,,,,65,151831,19,Female,1,2024/02/19_08:48:19,YZ,None,
3,./instructions/inst_begin/Slide4.png,right,10.041143605980324,65.4526164100098,75.49376001599012,,,,,,,,,,,,,,,,,,,,,,,,,,,,,,,,,1,,,,,,,,,,,,,,,,,,,,,,,,,,,,,,,,,,,,,,,,,,,,,,65,151831,19,Female,1,2024/02/19_08:48:19,YZ,None,
1,./instructions/inst_prac_2/Slide6.png,right,13.769047243986279,75.54903548100265,89.31808272498893,,,,,,,,,,,,,,,,,,,,,,,,,,,,,,,,,1,,,,,,,,,,,,,,,,,,,,,,,,,,,,,,,,,,,,,,,,,,,,,,65,151831,19,Female,1,2024/02/19_08:48:19,YZ,None,
2,./instructions/inst_prac_2/Slide7.png,right,19.089053523988696,89.34877881599823,108.43783233998693,,,,,,,,,,,,,,,,,,,,,,,,,,,,,,,,,1,,,,,,,,,,,,,,,,,,,,,,,,,,,,,,,,,,,,,,,,,,,,,,65,151831,19,Female,1,2024/02/19_08:48:19,YZ,None,
3,./instructions/inst_prac_2/Slide8.png,right,17.00389904700569,108.46597211499466,125.46987116200035,,,,,,,,,,,,,,,,,,,,,,,,,,,,,,,,,1,,,,,,,,,,,,,,,,,,,,,,,,,,,,,,,,,,,,,,,,,,,,,,65,151831,19,Female,1,2024/02/19_08:48:19,YZ,None,
4,./instructions/inst_prac_2/Slide9.png,right,5.729352080001263,125.50048753598821,131.22983961598948,,,,,,,,,,,,,,,,,,,,,,,,,,,,,,,,,1,,,,,,,,,,,,,,,,,,,,,,,,,,,,,,,,,,,,,,,,,,,,,,65,151831,19,Female,1,2024/02/19_08:48:19,YZ,None,
5,./instructions/inst_prac_2/Slide10.png,right,2.1403446729818825,131.2655746290111,133.40591930199298,,,,,,,,,,,,,,,,,,,,,,,,,,,,,,,,,1,,,,,,,,,,,,,,,,,,,,,,,,,,,,,,,,,,,,,,,,,,,,,,65,151831,19,Female,1,2024/02/19_08:48:19,YZ,None,
6,./instructions/inst_prac_2/Slide11.png,right,2.2121697530092206,133.43354739100323,135.64571714401245,,,,,,,,,,,,,,,,,,,,,,,,,,,,,,,,,1,,,,,,,,,,,,,,,,,,,,,,,,,,,,,,,,,,,,,,,,,,,,,,65,151831,19,Female,1,2024/02/19_08:48:19,YZ,None,
7,./instructions/inst_prac_2/Slide12.png,right,1.2574370130023453,135.6763077969954,136.93374480999773,,,,,,,,,,,,,,,,,,,,,,,,,,,,,,,,,1,,,,,,,,,,,,,,,,,,,,,,,,,,,,,,,,,,,,,,,,,,,,,,65,151831,19,Female,1,2024/02/19_08:48:19,YZ,None,
8,./instructions/inst_prac_2/Slide13.png,right,1.529977857018821,136.96381134999683,138.49378920701565,,,,,,,,,,,,,,,,,,,,,,,,,,,,,,,,,1,,,,,,,,,,,,,,,,,,,,,,,,,,,,,,,,,,,,,,,,,,,,,,65,151831,19,Female,1,2024/02/19_08:48:19,YZ,None,
9,./instructions/inst_prac_2/Slide14.png,right,15.188395163975656,138.52129934201366,153.70969450598932,,,,,,,,,,,,,,,,,,,,,,,,,,,,,,,,,1,,,,,,,,,,,,,,,,,,,,,,,,,,,,,,,,,,,,,,,,,,,,,,65,151831,19,Female,1,2024/02/19_08:48:19,YZ,None,
10,./instructions/inst_prac_2/Slide15.png,right,15.870303366013104,153.75975240799016,169.63005577400327,,,,,,,,,,,,,,,,,,,,,,,,,,,,,,,,,1,,,,,,,,,,,,,,,,,,,,,,,,,,,,,,,,,,,,,,,,,,,,,,65,151831,19,Female,1,2024/02/19_08:48:19,YZ,None,
,,,,,,practice,0,24,2,2583,1,N,0,right,1.5274608779873233,1,0,,,,,,,,,,,,,,,,,,,,,1,,,,,,,,,,,,,,,,,,,,,,,,,,,,,,,,,,,,,,,,,,,,,,65,151831,19,Female,1,2024/02/19_08:48:19,YZ,None,
,,,,,,practice,0,24,2,2583,2,J,0,right,1.1091671519970987,1,0,,,,,,,,,,,,,,,,,,,,,1,,,,,,,,,,,,,,,,,,,,,,,,,,,,,,,,,,,,,,,,,,,,,,65,151831,19,Female,1,2024/02/19_08:48:19,YZ,None,
,,,,,,practice,0,24,2,2583,3,N,1,left,0.7072513719904236,1,0,,,,,,,,,,,,,,,,,,,,,1,,,,,,,,,,,,,,,,,,,,,,,,,,,,,,,,,,,,,,,,,,,,,,65,151831,19,Female,1,2024/02/19_08:48:19,YZ,None,
,,,,,,practice,0,24,2,2583,4,Q,0,right,0.7708829700131901,1,0,,,,,,,,,,,,,,,,,,,,,1,,,,,,,,,,,,,,,,,,,,,,,,,,,,,,,,,,,,,,,,,,,,,,65,151831,19,Female,1,2024/02/19_08:48:19,YZ,None,
,,,,,,practice,0,24,2,2583,5,V,0,right,0.8265403579862323,1,0,,,,,,,,,,,,,,,,,,,,,1,,,,,,,,,,,,,,,,,,,,,,,,,,,,,,,,,,,,,,,,,,,,,,65,151831,19,Female,1,2024/02/19_08:48:19,YZ,None,
,,,,,,practice,0,24,2,2583,6,Q,1,left,0.7989193059911486,1,0,,,,,,,,,,,,,,,,,,,,,1,,,,,,,,,,,,,,,,,,,,,,,,,,,,,,,,,,,,,,,,,,,,,,65,151831,19,Female,1,2024/02/19_08:48:19,YZ,None,
,,,,,,practice,0,24,2,2583,,,,,,,,1.0,1.0,0.0,1.0,0.0,1.0,0.9567036726609027,2,0,0,0,0,4,6,2,4,0,,,,1,,,,,,,,,,,,,,,,,,,,,,,,,,,,,,,,,,,,,,,,,,,,,,65,151831,19,Female,1,2024/02/19_08:48:19,YZ,None,
1,./instructions/inst_to_cali/Slide20.png,right,6.11979035299737,181.733973933995,187.85376428699237,,,,,,,,,,,,,,,,,,,,,,,,,,,,,,,,,1,,,,,,,,,,,,,,,,,,,,,,,,,,,,,,,,,,,,,,,,,,,,,,65,151831,19,Female,1,2024/02/19_08:48:19,YZ,None,
1,./instructions/inst_cali/Slide22.png,right,6.011676374007948,187.906296584988,193.91797295899596,,,,,,,,,,,,,,,,,,,,,,,,,,,,,,,,,1,,,,,,,,,,,,,,,,,,,,,,,,,,,,,,,,,,,,,,,,,,,,,,65,151831,19,Female,1,2024/02/19_08:48:19,YZ,None,
,,,,,,calibration,0,2,2,583,1,N,0,right,0.370769733999623,1,0,,,,,,,,,,,,,,,,,,,,,1,,,,,,,,,,,,,,,,,,,,,,,,,,,,,,,,,,,,,,,,,,,,,,65,151831,19,Female,1,2024/02/19_08:48:19,YZ,None,
,,,,,,calibration,0,2,2,583,2,Q,0,right,0.5124836720060557,1,0,,,,,,,,,,,,,,,,,,,,,1,,,,,,,,,,,,,,,,,,,,,,,,,,,,,,,,,,,,,,,,,,,,,,65,151831,19,Female,1,2024/02/19_08:48:19,YZ,None,
,,,,,,calibration,0,2,2,583,3,N,1,left,0.3316990729945246,1,0,,,,,,,,,,,,,,,,,,,,,1,,,,,,,,,,,,,,,,,,,,,,,,,,,,,,,,,,,,,,,,,,,,,,65,151831,19,Female,1,2024/02/19_08:48:19,YZ,None,
,,,,,,calibration,0,2,2,583,4,Q,1,right,0.8877645250177011,0,0,,,,,,,,,,,,,,,,,,,,,1,,,,,,,,,,,,,,,,,,,,,,,,,,,,,,,,,,,,,,,,,,,,,,65,151831,19,Female,1,2024/02/19_08:48:19,YZ,None,
,,,,,,calibration,0,2,2,583,5,C,0,right,0.8644314970006235,1,0,,,,,,,,,,,,,,,,,,,,,1,,,,,,,,,,,,,,,,,,,,,,,,,,,,,,,,,,,,,,,,,,,,,,65,151831,19,Female,1,2024/02/19_08:48:19,YZ,None,
,,,,,,calibration,0,2,2,583,6,S,0,left,0.6569366869807709,0,0,,,,,,,,,,,,,,,,,,,,,1,,,,,,,,,,,,,,,,,,,,,,,,,,,,,,,,,,,,,,,,,,,,,,65,151831,19,Female,1,2024/02/19_08:48:19,YZ,None,
,,,,,,calibration,0,2,2,583,7,J,0,right,0.6385347769828513,1,0,,,,,,,,,,,,,,,,,,,,,1,,,,,,,,,,,,,,,,,,,,,,,,,,,,,,,,,,,,,,,,,,,,,,65,151831,19,Female,1,2024/02/19_08:48:19,YZ,None,
,,,,,,calibration,0,2,2,583,8,X,0,left,0.565616637992207,0,0,,,,,,,,,,,,,,,,,,,,,1,,,,,,,,,,,,,,,,,,,,,,,,,,,,,,,,,,,,,,,,,,,,,,65,151831,19,Female,1,2024/02/19_08:48:19,YZ,None,
,,,,,,calibration,0,2,2,583,9,S,0,right,0.512601263995748,1,0,,,,,,,,,,,,,,,,,,,,,1,,,,,,,,,,,,,,,,,,,,,,,,,,,,,,,,,,,,,,,,,,,,,,65,151831,19,Female,1,2024/02/19_08:48:19,YZ,None,
,,,,,,calibration,0,2,2,583,10,Q,0,left,0.6236255819967482,0,0,,,,,,,,,,,,,,,,,,,,,1,,,,,,,,,,,,,,,,,,,,,,,,,,,,,,,,,,,,,,,,,,,,,,65,151831,19,Female,1,2024/02/19_08:48:19,YZ,None,
,,,,,,calibration,0,2,2,583,11,S,1,right,0.26239229599013925,0,0,,,,,,,,,,,,,,,,,,,,,1,,,,,,,,,,,,,,,,,,,,,,,,,,,,,,,,,,,,,,,,,,,,,,65,151831,19,Female,1,2024/02/19_08:48:19,YZ,None,
,,,,,,calibration,0,2,2,583,12,X,0,right,0.601249059982365,1,0,,,,,,,,,,,,,,,,,,,,,1,,,,,,,,,,,,,,,,,,,,,,,,,,,,,,,,,,,,,,,,,,,,,,65,151831,19,Female,1,2024/02/19_08:48:19,YZ,None,
,,,,,,calibration,0,2,2,583,13,S,1,left,0.5914705540053546,1,0,,,,,,,,,,,,,,,,,,,,,1,,,,,,,,,,,,,,,,,,,,,,,,,,,,,,,,,,,,,,,,,,,,,,65,151831,19,Female,1,2024/02/19_08:48:19,YZ,None,
,,,,,,calibration,0,2,2,583,14,N,0,right,0.4553261490073055,1,0,,,,,,,,,,,,,,,,,,,,,1,,,,,,,,,,,,,,,,,,,,,,,,,,,,,,,,,,,,,,,,,,,,,,65,151831,19,Female,1,2024/02/19_08:48:19,YZ,None,
,,,,,,calibration,0,2,2,583,15,S,1,left,0.5240427379903849,1,0,,,,,,,,,,,,,,,,,,,,,1,,,,,,,,,,,,,,,,,,,,,,,,,,,,,,,,,,,,,,,,,,,,,,65,151831,19,Female,1,2024/02/19_08:48:19,YZ,None,
,,,,,,calibration,0,2,2,583,,,,,,,,0.705,0.6,0.3,0.7,0.0,0.7,0.5599296163961601,3,3,0,0,0,7,10,5,10,0,,,,1,,,,,,,,,,,,,,,,,,,,,,,,,,,,,,,,,,,,,,,,,,,,,,65,151831,19,Female,1,2024/02/19_08:48:19,YZ,None,
,,,,,,Calibration,0,,2,583,,,,,,,,,,,,,,,,,,,,,,,,,1,,,1,,,,,,,,,,,,,,,,,,,,,,,,,,,,,,,,,,,,,,,,,,,,,,65,151831,19,Female,1,2024/02/19_08:48:19,YZ,None,
,,,,,,calibration,0,14,2,679,1,J,0,right,1.0606377999938559,1,0,,,,,,,,,,,,,,,,,,,,,1,,,,,,,,,,,,,,,,,,,,,,,,,,,,,,,,,,,,,,,,,,,,,,65,151831,19,Female,1,2024/02/19_08:48:19,YZ,None,
,,,,,,calibration,0,14,2,679,2,F,0,right,1.5592596140049864,1,0,,,,,,,,,,,,,,,,,,,,,1,,,,,,,,,,,,,,,,,,,,,,,,,,,,,,,,,,,,,,,,,,,,,,65,151831,19,Female,1,2024/02/19_08:48:19,YZ,None,
,,,,,,calibration,0,14,2,679,3,V,0,right,1.0649040800053626,1,0,,,,,,,,,,,,,,,,,,,,,1,,,,,,,,,,,,,,,,,,,,,,,,,,,,,,,,,,,,,,,,,,,,,,65,151831,19,Female,1,2024/02/19_08:48:19,YZ,None,
,,,,,,calibration,0,14,2,679,4,Q,0,right,0.8072916519886348,1,0,,,,,,,,,,,,,,,,,,,,,1,,,,,,,,,,,,,,,,,,,,,,,,,,,,,,,,,,,,,,,,,,,,,,65,151831,19,Female,1,2024/02/19_08:48:19,YZ,None,
,,,,,,calibration,0,14,2,679,5,N,0,right,0.9384826510213315,1,0,,,,,,,,,,,,,,,,,,,,,1,,,,,,,,,,,,,,,,,,,,,,,,,,,,,,,,,,,,,,,,,,,,,,65,151831,19,Female,1,2024/02/19_08:48:19,YZ,None,
,,,,,,calibration,0,14,2,679,6,Q,1,left,0.4255168100062292,1,0,,,,,,,,,,,,,,,,,,,,,1,,,,,,,,,,,,,,,,,,,,,,,,,,,,,,,,,,,,,,,,,,,,,,65,151831,19,Female,1,2024/02/19_08:48:19,YZ,None,
,,,,,,calibration,0,14,2,679,7,N,1,left,0.8298452309973072,1,0,,,,,,,,,,,,,,,,,,,,,1,,,,,,,,,,,,,,,,,,,,,,,,,,,,,,,,,,,,,,,,,,,,,,65,151831,19,Female,1,2024/02/19_08:48:19,YZ,None,
,,,,,,calibration,0,14,2,679,8,C,0,right,0.6841078020224813,1,0,,,,,,,,,,,,,,,,,,,,,1,,,,,,,,,,,,,,,,,,,,,,,,,,,,,,,,,,,,,,,,,,,,,,65,151831,19,Female,1,2024/02/19_08:48:19,YZ,None,
,,,,,,calibration,0,14,2,679,9,S,0,left,0.422347368003102,0,0,,,,,,,,,,,,,,,,,,,,,1,,,,,,,,,,,,,,,,,,,,,,,,,,,,,,,,,,,,,,,,,,,,,,65,151831,19,Female,1,2024/02/19_08:48:19,YZ,None,
,,,,,,calibration,0,14,2,679,10,C,1,right,0.5234954180195928,0,0,,,,,,,,,,,,,,,,,,,,,1,,,,,,,,,,,,,,,,,,,,,,,,,,,,,,,,,,,,,,,,,,,,,,65,151831,19,Female,1,2024/02/19_08:48:19,YZ,None,
,,,,,,calibration,0,14,2,679,11,X,0,right,0.7258035510021728,1,0,,,,,,,,,,,,,,,,,,,,,1,,,,,,,,,,,,,,,,,,,,,,,,,,,,,,,,,,,,,,,,,,,,,,65,151831,19,Female,1,2024/02/19_08:48:19,YZ,None,
,,,,,,calibration,0,14,2,679,12,Q,0,right,0.9408528860076331,1,0,,,,,,,,,,,,,,,,,,,,,1,,,,,,,,,,,,,,,,,,,,,,,,,,,,,,,,,,,,,,,,,,,,,,65,151831,19,Female,1,2024/02/19_08:48:19,YZ,None,
,,,,,,calibration,0,14,2,679,13,V,0,left,0.6386310670059174,0,0,,,,,,,,,,,,,,,,,,,,,1,,,,,,,,,,,,,,,,,,,,,,,,,,,,,,,,,,,,,,,,,,,,,,65,151831,19,Female,1,2024/02/19_08:48:19,YZ,None,
,,,,,,calibration,0,14,2,679,14,Q,1,right,0.5625802210124675,0,0,,,,,,,,,,,,,,,,,,,,,1,,,,,,,,,,,,,,,,,,,,,,,,,,,,,,,,,,,,,,,,,,,,,,65,151831,19,Female,1,2024/02/19_08:48:19,YZ,None,
,,,,,,calibration,0,14,2,679,,,,,,,,0.725,0.5,0.2,0.8,0.0,0.8,0.7988397250779339,2,2,0,0,0,8,10,4,10,0,,,,1,,,,,,,,,,,,,,,,,,,,,,,,,,,,,,,,,,,,,,,,,,,,,,65,151831,19,Female,1,2024/02/19_08:48:19,YZ,None,
,,,,,,Calibration,0,,2,679,,,,,,,,,,,,,,,,,,,,,,,,,2,,,1,,,,,,,,,,,,,,,,,,,,,,,,,,,,,,,,,,,,,,,,,,,,,,65,151831,19,Female,1,2024/02/19_08:48:19,YZ,None,
,,,,,,calibration,0,20,2,788,1,C,0,right,0.8162327300233301,1,0,,,,,,,,,,,,,,,,,,,,,1,,,,,,,,,,,,,,,,,,,,,,,,,,,,,,,,,,,,,,,,,,,,,,65,151831,19,Female,1,2024/02/19_08:48:19,YZ,None,
,,,,,,calibration,0,20,2,788,2,J,0,right,0.31774201200460084,1,0,,,,,,,,,,,,,,,,,,,,,1,,,,,,,,,,,,,,,,,,,,,,,,,,,,,,,,,,,,,,,,,,,,,,65,151831,19,Female,1,2024/02/19_08:48:19,YZ,None,
,,,,,,calibration,0,20,2,788,3,Q,0,right,0.5867362680146471,1,0,,,,,,,,,,,,,,,,,,,,,1,,,,,,,,,,,,,,,,,,,,,,,,,,,,,,,,,,,,,,,,,,,,,,65,151831,19,Female,1,2024/02/19_08:48:19,YZ,None,
,,,,,,calibration,0,20,2,788,4,J,1,left,0.6245242999866605,1,0,,,,,,,,,,,,,,,,,,,,,1,,,,,,,,,,,,,,,,,,,,,,,,,,,,,,,,,,,,,,,,,,,,,,65,151831,19,Female,1,2024/02/19_08:48:19,YZ,None,
,,,,,,calibration,0,20,2,788,5,Q,1,right,0.6035331159946509,0,0,,,,,,,,,,,,,,,,,,,,,1,,,,,,,,,,,,,,,,,,,,,,,,,,,,,,,,,,,,,,,,,,,,,,65,151831,19,Female,1,2024/02/19_08:48:19,YZ,None,
,,,,,,calibration,0,20,2,788,6,F,0,right,0.978760352008976,1,0,,,,,,,,,,,,,,,,,,,,,1,,,,,,,,,,,,,,,,,,,,,,,,,,,,,,,,,,,,,,,,,,,,,,65,151831,19,Female,1,2024/02/19_08:48:19,YZ,None,
,,,,,,calibration,0,20,2,788,7,V,0,right,0.9246380059921648,1,0,,,,,,,,,,,,,,,,,,,,,1,,,,,,,,,,,,,,,,,,,,,,,,,,,,,,,,,,,,,,,,,,,,,,65,151831,19,Female,1,2024/02/19_08:48:19,YZ,None,
,,,,,,calibration,0,20,2,788,8,N,0,right,0.6743367610033602,1,0,,,,,,,,,,,,,,,,,,,,,1,,,,,,,,,,,,,,,,,,,,,,,,,,,,,,,,,,,,,,,,,,,,,,65,151831,19,Female,1,2024/02/19_08:48:19,YZ,None,
,,,,,,calibration,0,20,2,788,9,X,0,right,0.7573961059970316,1,0,,,,,,,,,,,,,,,,,,,,,1,,,,,,,,,,,,,,,,,,,,,,,,,,,,,,,,,,,,,,,,,,,,,,65,151831,19,Female,1,2024/02/19_08:48:19,YZ,None,
,,,,,,calibration,0,20,2,788,10,S,0,right,0.7062329890031833,1,0,,,,,,,,,,,,,,,,,,,,,1,,,,,,,,,,,,,,,,,,,,,,,,,,,,,,,,,,,,,,,,,,,,,,65,151831,19,Female,1,2024/02/19_08:48:19,YZ,None,
,,,,,,calibration,0,20,2,788,11,X,1,left,0.5410707499831915,1,0,,,,,,,,,,,,,,,,,,,,,1,,,,,,,,,,,,,,,,,,,,,,,,,,,,,,,,,,,,,,,,,,,,,,65,151831,19,Female,1,2024/02/19_08:48:19,YZ,None,
,,,,,,calibration,0,20,2,788,12,J,0,right,0.6743426000175532,1,0,,,,,,,,,,,,,,,,,,,,,1,,,,,,,,,,,,,,,,,,,,,,,,,,,,,,,,,,,,,,,,,,,,,,65,151831,19,Female,1,2024/02/19_08:48:19,YZ,None,
,,,,,,calibration,0,20,2,788,13,X,1,left,0.4695464280084707,1,0,,,,,,,,,,,,,,,,,,,,,1,,,,,,,,,,,,,,,,,,,,,,,,,,,,,,,,,,,,,,,,,,,,,,65,151831,19,Female,1,2024/02/19_08:48:19,YZ,None,
,,,,,,calibration,0,20,2,788,,,,,,,,0.9375,0.75,0.0,1.0,0.0,1.0,0.6673148013875246,3,0,0,0,0,9,12,4,9,0,,,,1,,,,,,,,,,,,,,,,,,,,,,,,,,,,,,,,,,,,,,,,,,,,,,65,151831,19,Female,1,2024/02/19_08:48:19,YZ,None,
,,,,,,Calibration,0,,2,788,,,,,,,,,,,,,,,,,,,,,,,,,3,,,1,,,,,,,,,,,,,,,,,,,,,,,,,,,,,,,,,,,,,,,,,,,,,,65,151831,19,Female,1,2024/02/19_08:48:19,YZ,None,
,,,,,,calibration,0,22,2,679,1,V,0,right,0.41528099999413826,1,0,,,,,,,,,,,,,,,,,,,,,1,,,,,,,,,,,,,,,,,,,,,,,,,,,,,,,,,,,,,,,,,,,,,,65,151831,19,Female,1,2024/02/19_08:48:19,YZ,None,
,,,,,,calibration,0,22,2,679,2,Q,0,left,0.30744935799157247,0,0,,,,,,,,,,,,,,,,,,,,,1,,,,,,,,,,,,,,,,,,,,,,,,,,,,,,,,,,,,,,,,,,,,,,65,151831,19,Female,1,2024/02/19_08:48:19,YZ,None,
,,,,,,calibration,0,22,2,679,3,V,1,right,0.46034172299550846,0,0,,,,,,,,,,,,,,,,,,,,,1,,,,,,,,,,,,,,,,,,,,,,,,,,,,,,,,,,,,,,,,,,,,,,65,151831,19,Female,1,2024/02/19_08:48:19,YZ,None,
,,,,,,calibration,0,22,2,679,4,J,0,right,0.31610087800072506,1,0,,,,,,,,,,,,,,,,,,,,,1,,,,,,,,,,,,,,,,,,,,,,,,,,,,,,,,,,,,,,,,,,,,,,65,151831,19,Female,1,2024/02/19_08:48:19,YZ,None,
,,,,,,calibration,0,22,2,679,5,N,0,right,0.42510045299422927,1,0,,,,,,,,,,,,,,,,,,,,,1,,,,,,,,,,,,,,,,,,,,,,,,,,,,,,,,,,,,,,,,,,,,,,65,151831,19,Female,1,2024/02/19_08:48:19,YZ,None,
,,,,,,calibration,0,22,2,679,6,J,1,left,0.19938862201524898,1,0,,,,,,,,,,,,,,,,,,,,,1,,,,,,,,,,,,,,,,,,,,,,,,,,,,,,,,,,,,,,,,,,,,,,65,151831,19,Female,1,2024/02/19_08:48:19,YZ,None,
,,,,,,calibration,0,22,2,679,7,S,0,right,0.6640364280028734,1,0,,,,,,,,,,,,,,,,,,,,,1,,,,,,,,,,,,,,,,,,,,,,,,,,,,,,,,,,,,,,,,,,,,,,65,151831,19,Female,1,2024/02/19_08:48:19,YZ,None,
,,,,,,calibration,0,22,2,679,8,V,0,right,0.49913944100262597,1,0,,,,,,,,,,,,,,,,,,,,,1,,,,,,,,,,,,,,,,,,,,,,,,,,,,,,,,,,,,,,,,,,,,,,65,151831,19,Female,1,2024/02/19_08:48:19,YZ,None,
,,,,,,calibration,0,22,2,679,9,X,0,right,0.5247708209790289,1,0,,,,,,,,,,,,,,,,,,,,,1,,,,,,,,,,,,,,,,,,,,,,,,,,,,,,,,,,,,,,,,,,,,,,65,151831,19,Female,1,2024/02/19_08:48:19,YZ,None,
,,,,,,calibration,0,22,2,679,10,N,0,right,0.46896584998467006,1,0,,,,,,,,,,,,,,,,,,,,,1,,,,,,,,,,,,,,,,,,,,,,,,,,,,,,,,,,,,,,,,,,,,,,65,151831,19,Female,1,2024/02/19_08:48:19,YZ,None,
,,,,,,calibration,0,22,2,679,11,S,0,right,0.43171988398535177,1,0,,,,,,,,,,,,,,,,,,,,,1,,,,,,,,,,,,,,,,,,,,,,,,,,,,,,,,,,,,,,,,,,,,,,65,151831,19,Female,1,2024/02/19_08:48:19,YZ,None,
,,,,,,calibration,0,22,2,679,12,N,1,left,0.44204042697674595,1,0,,,,,,,,,,,,,,,,,,,,,1,,,,,,,,,,,,,,,,,,,,,,,,,,,,,,,,,,,,,,,,,,,,,,65,151831,19,Female,1,2024/02/19_08:48:19,YZ,None,
,,,,,,calibration,0,22,2,679,13,Q,0,left,0.7428947529988363,0,0,,,,,,,,,,,,,,,,,,,,,1,,,,,,,,,,,,,,,,,,,,,,,,,,,,,,,,,,,,,,,,,,,,,,65,151831,19,Female,1,2024/02/19_08:48:19,YZ,None,
,,,,,,calibration,0,22,2,679,14,N,1,left,0.8160214190138504,1,0,,,,,,,,,,,,,,,,,,,,,1,,,,,,,,,,,,,,,,,,,,,,,,,,,,,,,,,,,,,,,,,,,,,,65,151831,19,Female,1,2024/02/19_08:48:19,YZ,None,
,,,,,,calibration,0,22,2,679,,,,,,,,0.8374999999999999,0.75,0.2,0.8,0.0,0.8,0.4795179326382432,3,2,0,0,0,8,11,4,10,0,,,,1,,,,,,,,,,,,,,,,,,,,,,,,,,,,,,,,,,,,,,,,,,,,,,65,151831,19,Female,1,2024/02/19_08:48:19,YZ,None,
,,,,,,Calibration,0,,2,679,,,,,,,,,,,,,,,,,,,,,,,,,4,,,1,,,,,,,,,,,,,,,,,,,,,,,,,,,,,,,,,,,,,,,,,,,,,,65,151831,19,Female,1,2024/02/19_08:48:19,YZ,None,
,,,,,,calibration,0,36,2,679,1,F,0,left,0.4020800649886951,0,0,,,,,,,,,,,,,,,,,,,,,1,,,,,,,,,,,,,,,,,,,,,,,,,,,,,,,,,,,,,,,,,,,,,,65,151831,19,Female,1,2024/02/19_08:48:19,YZ,None,
,,,,,,calibration,0,36,2,679,2,V,0,left,0.4102596170268953,0,0,,,,,,,,,,,,,,,,,,,,,1,,,,,,,,,,,,,,,,,,,,,,,,,,,,,,,,,,,,,,,,,,,,,,65,151831,19,Female,1,2024/02/19_08:48:19,YZ,None,
,,,,,,calibration,0,36,2,679,3,S,0,right,1.081105219986057,1,0,,,,,,,,,,,,,,,,,,,,,1,,,,,,,,,,,,,,,,,,,,,,,,,,,,,,,,,,,,,,,,,,,,,,65,151831,19,Female,1,2024/02/19_08:48:19,YZ,None,
,,,,,,calibration,0,36,2,679,4,F,0,right,0.6018991720047779,1,0,,,,,,,,,,,,,,,,,,,,,1,,,,,,,,,,,,,,,,,,,,,,,,,,,,,,,,,,,,,,,,,,,,,,65,151831,19,Female,1,2024/02/19_08:48:19,YZ,None,
,,,,,,calibration,0,36,2,679,5,V,0,right,0.7223504729918204,1,0,,,,,,,,,,,,,,,,,,,,,1,,,,,,,,,,,,,,,,,,,,,,,,,,,,,,,,,,,,,,,,,,,,,,65,151831,19,Female,1,2024/02/19_08:48:19,YZ,None,
,,,,,,calibration,0,36,2,679,6,F,1,left,0.5601705579902045,1,0,,,,,,,,,,,,,,,,,,,,,1,,,,,,,,,,,,,,,,,,,,,,,,,,,,,,,,,,,,,,,,,,,,,,65,151831,19,Female,1,2024/02/19_08:48:19,YZ,None,
,,,,,,calibration,0,36,2,679,7,V,1,left,0.6985585250076838,1,0,,,,,,,,,,,,,,,,,,,,,1,,,,,,,,,,,,,,,,,,,,,,,,,,,,,,,,,,,,,,,,,,,,,,65,151831,19,Female,1,2024/02/19_08:48:19,YZ,None,
,,,,,,calibration,0,36,2,679,8,C,0,right,0.520003584009828,1,0,,,,,,,,,,,,,,,,,,,,,1,,,,,,,,,,,,,,,,,,,,,,,,,,,,,,,,,,,,,,,,,,,,,,65,151831,19,Female,1,2024/02/19_08:48:19,YZ,None,
,,,,,,calibration,0,36,2,679,9,N,0,left,0.6121511879900936,0,0,,,,,,,,,,,,,,,,,,,,,1,,,,,,,,,,,,,,,,,,,,,,,,,,,,,,,,,,,,,,,,,,,,,,65,151831,19,Female,1,2024/02/19_08:48:19,YZ,None,
,,,,,,calibration,0,36,2,679,10,V,0,right,0.45464222799637355,1,0,,,,,,,,,,,,,,,,,,,,,1,,,,,,,,,,,,,,,,,,,,,,,,,,,,,,,,,,,,,,,,,,,,,,65,151831,19,Female,1,2024/02/19_08:48:19,YZ,None,
,,,,,,calibration,0,36,2,679,11,X,0,left,0.54281929199351,0,0,,,,,,,,,,,,,,,,,,,,,1,,,,,,,,,,,,,,,,,,,,,,,,,,,,,,,,,,,,,,,,,,,,,,65,151831,19,Female,1,2024/02/19_08:48:19,YZ,None,
,,,,,,calibration,0,36,2,679,12,V,1,left,0.8669065370049793,1,0,,,,,,,,,,,,,,,,,,,,,1,,,,,,,,,,,,,,,,,,,,,,,,,,,,,,,,,,,,,,,,,,,,,,65,151831,19,Female,1,2024/02/19_08:48:19,YZ,None,
,,,,,,calibration,0,36,2,679,13,C,0,right,0.5847384099906776,1,0,,,,,,,,,,,,,,,,,,,,,1,,,,,,,,,,,,,,,,,,,,,,,,,,,,,,,,,,,,,,,,,,,,,,65,151831,19,Female,1,2024/02/19_08:48:19,YZ,None,
,,,,,,calibration,0,36,2,679,14,V,1,left,0.44141928301542066,1,0,,,,,,,,,,,,,,,,,,,,,1,,,,,,,,,,,,,,,,,,,,,,,,,,,,,,,,,,,,,,,,,,,,,,65,151831,19,Female,1,2024/02/19_08:48:19,YZ,None,
,,,,,,calibration,0,36,2,679,,,,,,,,0.9,1.0,0.4,0.6,0.0,0.6,0.6070788679997869,4,4,0,0,0,6,10,4,10,0,,,,1,,,,,,,,,,,,,,,,,,,,,,,,,,,,,,,,,,,,,,,,,,,,,,65,151831,19,Female,1,2024/02/19_08:48:19,YZ,None,
,,,,,,Calibration,0,,2,679,,,,,,,,,,,,,,,,,,,,,,,,,5,,,1,,,,,,,,,,,,,,,,,,,,,,,,,,,,,,,,,,,,,,,,,,,,,,65,151831,19,Female,1,2024/02/19_08:48:19,YZ,None,
,,,,,,calibration,0,22,2,583,1,F,0,right,0.5128063399752136,1,0,,,,,,,,,,,,,,,,,,,,,1,,,,,,,,,,,,,,,,,,,,,,,,,,,,,,,,,,,,,,,,,,,,,,65,151831,19,Female,1,2024/02/19_08:48:19,YZ,None,
,,,,,,calibration,0,22,2,583,2,F,0,right,0.3873365100007504,1,0,,,,,,,,,,,,,,,,,,,,,1,,,,,,,,,,,,,,,,,,,,,,,,,,,,,,,,,,,,,,,,,,,,,,65,151831,19,Female,1,2024/02/19_08:48:19,YZ,None,
,,,,,,calibration,0,22,2,583,3,F,1,left,0.48759257901110686,1,0,,,,,,,,,,,,,,,,,,,,,1,,,,,,,,,,,,,,,,,,,,,,,,,,,,,,,,,,,,,,,,,,,,,,65,151831,19,Female,1,2024/02/19_08:48:19,YZ,None,
,,,,,,calibration,0,22,2,583,4,F,1,right,0.5614479770010803,0,0,,,,,,,,,,,,,,,,,,,,,1,,,,,,,,,,,,,,,,,,,,,,,,,,,,,,,,,,,,,,,,,,,,,,65,151831,19,Female,1,2024/02/19_08:48:19,YZ,None,
,,,,,,calibration,0,22,2,583,5,X,0,right,0.8006435960123781,1,0,,,,,,,,,,,,,,,,,,,,,1,,,,,,,,,,,,,,,,,,,,,,,,,,,,,,,,,,,,,,,,,,,,,,65,151831,19,Female,1,2024/02/19_08:48:19,YZ,None,
,,,,,,calibration,0,22,2,583,6,F,1,left,0.39947224798379466,1,0,,,,,,,,,,,,,,,,,,,,,1,,,,,,,,,,,,,,,,,,,,,,,,,,,,,,,,,,,,,,,,,,,,,,65,151831,19,Female,1,2024/02/19_08:48:19,YZ,None,
,,,,,,calibration,0,22,2,583,7,N,0,right,0.6596976970031392,1,0,,,,,,,,,,,,,,,,,,,,,1,,,,,,,,,,,,,,,,,,,,,,,,,,,,,,,,,,,,,,,,,,,,,,65,151831,19,Female,1,2024/02/19_08:48:19,YZ,None,
,,,,,,calibration,0,22,2,583,8,S,0,right,0.6566231499891728,1,0,,,,,,,,,,,,,,,,,,,,,1,,,,,,,,,,,,,,,,,,,,,,,,,,,,,,,,,,,,,,,,,,,,,,65,151831,19,Female,1,2024/02/19_08:48:19,YZ,None,
,,,,,,calibration,0,22,2,583,9,X,0,left,0.3965791859955061,0,0,,,,,,,,,,,,,,,,,,,,,1,,,,,,,,,,,,,,,,,,,,,,,,,,,,,,,,,,,,,,,,,,,,,,65,151831,19,Female,1,2024/02/19_08:48:19,YZ,None,
,,,,,,calibration,0,22,2,583,10,S,1,left,1.0666602560086176,1,0,,,,,,,,,,,,,,,,,,,,,1,,,,,,,,,,,,,,,,,,,,,,,,,,,,,,,,,,,,,,,,,,,,,,65,151831,19,Female,1,2024/02/19_08:48:19,YZ,None,
,,,,,,calibration,0,22,2,583,11,X,1,right,0.5240175310173072,0,0,,,,,,,,,,,,,,,,,,,,,1,,,,,,,,,,,,,,,,,,,,,,,,,,,,,,,,,,,,,,,,,,,,,,65,151831,19,Female,1,2024/02/19_08:48:19,YZ,None,
,,,,,,calibration,0,22,2,583,12,J,0,left,0.6216209550038911,0,0,,,,,,,,,,,,,,,,,,,,,1,,,,,,,,,,,,,,,,,,,,,,,,,,,,,,,,,,,,,,,,,,,,,,65,151831,19,Female,1,2024/02/19_08:48:19,YZ,None,
,,,,,,calibration,0,22,2,583,13,N,0,left,0.8724259749869816,0,0,,,,,,,,,,,,,,,,,,,,,1,,,,,,,,,,,,,,,,,,,,,,,,,,,,,,,,,,,,,,,,,,,,,,65,151831,19,Female,1,2024/02/19_08:48:19,YZ,None,
,,,,,,calibration,0,22,2,583,14,X,0,right,0.5248446380137466,1,0,,,,,,,,,,,,,,,,,,,,,1,,,,,,,,,,,,,,,,,,,,,,,,,,,,,,,,,,,,,,,,,,,,,,65,151831,19,Female,1,2024/02/19_08:48:19,YZ,None,
,,,,,,calibration,0,22,2,583,15,J,0,left,0.5737441940000281,0,0,,,,,,,,,,,,,,,,,,,,,1,,,,,,,,,,,,,,,,,,,,,,,,,,,,,,,,,,,,,,,,,,,,,,65,151831,19,Female,1,2024/02/19_08:48:19,YZ,None,
,,,,,,calibration,0,22,2,583,,,,,,,,0.64,0.6,0.4,0.6,0.0,0.6,0.603034188800181,3,4,0,0,0,6,9,5,10,0,,,,1,,,,,,,,,,,,,,,,,,,,,,,,,,,,,,,,,,,,,,,,,,,,,,65,151831,19,Female,1,2024/02/19_08:48:19,YZ,None,
,,,,,,Calibration,0,,2,583,,,,,,,,,,,,,,,,,,,,,,,,,6,,,1,,,,,,,,,,,,,,,,,,,,,,,,,,,,,,,,,,,,,,,,,,,,,,65,151831,19,Female,1,2024/02/19_08:48:19,YZ,None,
,,,,,,calibration,0,20,2,679,1,F,0,left,0.4582594070234336,0,0,,,,,,,,,,,,,,,,,,,,,1,,,,,,,,,,,,,,,,,,,,,,,,,,,,,,,,,,,,,,,,,,,,,,65,151831,19,Female,1,2024/02/19_08:48:19,YZ,None,
,,,,,,calibration,0,20,2,679,2,C,0,right,0.5435509220114909,1,0,,,,,,,,,,,,,,,,,,,,,1,,,,,,,,,,,,,,,,,,,,,,,,,,,,,,,,,,,,,,,,,,,,,,65,151831,19,Female,1,2024/02/19_08:48:19,YZ,None,
,,,,,,calibration,0,20,2,679,3,N,0,right,0.459081820998108,1,0,,,,,,,,,,,,,,,,,,,,,1,,,,,,,,,,,,,,,,,,,,,,,,,,,,,,,,,,,,,,,,,,,,,,65,151831,19,Female,1,2024/02/19_08:48:19,YZ,None,
,,,,,,calibration,0,20,2,679,4,C,1,left,0.4580141219776124,1,0,,,,,,,,,,,,,,,,,,,,,1,,,,,,,,,,,,,,,,,,,,,,,,,,,,,,,,,,,,,,,,,,,,,,65,151831,19,Female,1,2024/02/19_08:48:19,YZ,None,
,,,,,,calibration,0,20,2,679,5,S,0,left,0.8065276079869363,0,0,,,,,,,,,,,,,,,,,,,,,1,,,,,,,,,,,,,,,,,,,,,,,,,,,,,,,,,,,,,,,,,,,,,,65,151831,19,Female,1,2024/02/19_08:48:19,YZ,None,
,,,,,,calibration,0,20,2,679,6,C,1,left,0.6514559930074029,1,0,,,,,,,,,,,,,,,,,,,,,1,,,,,,,,,,,,,,,,,,,,,,,,,,,,,,,,,,,,,,,,,,,,,,65,151831,19,Female,1,2024/02/19_08:48:19,YZ,None,
,,,,,,calibration,0,20,2,679,7,N,0,right,0.5128255250165239,1,0,,,,,,,,,,,,,,,,,,,,,1,,,,,,,,,,,,,,,,,,,,,,,,,,,,,,,,,,,,,,,,,,,,,,65,151831,19,Female,1,2024/02/19_08:48:19,YZ,None,
,,,,,,calibration,0,20,2,679,8,C,1,left,0.5243476050090976,1,0,,,,,,,,,,,,,,,,,,,,,1,,,,,,,,,,,,,,,,,,,,,,,,,,,,,,,,,,,,,,,,,,,,,,65,151831,19,Female,1,2024/02/19_08:48:19,YZ,None,
,,,,,,calibration,0,20,2,679,9,Q,0,right,0.5125591660034843,1,0,,,,,,,,,,,,,,,,,,,,,1,,,,,,,,,,,,,,,,,,,,,,,,,,,,,,,,,,,,,,,,,,,,,,65,151831,19,Female,1,2024/02/19_08:48:19,YZ,None,
,,,,,,calibration,0,20,2,679,10,F,0,right,0.5242665259866044,1,0,,,,,,,,,,,,,,,,,,,,,1,,,,,,,,,,,,,,,,,,,,,,,,,,,,,,,,,,,,,,,,,,,,,,65,151831,19,Female,1,2024/02/19_08:48:19,YZ,None,
,,,,,,calibration,0,20,2,679,11,Q,1,right,0.7371127269871067,0,0,,,,,,,,,,,,,,,,,,,,,1,,,,,,,,,,,,,,,,,,,,,,,,,,,,,,,,,,,,,,,,,,,,,,65,151831,19,Female,1,2024/02/19_08:48:19,YZ,None,
,,,,,,calibration,0,20,2,679,12,C,0,right,0.8250592790136579,1,0,,,,,,,,,,,,,,,,,,,,,1,,,,,,,,,,,,,,,,,,,,,,,,,,,,,,,,,,,,,,,,,,,,,,65,151831,19,Female,1,2024/02/19_08:48:19,YZ,None,
,,,,,,calibration,0,20,2,679,13,V,0,right,0.658782072016038,1,0,,,,,,,,,,,,,,,,,,,,,1,,,,,,,,,,,,,,,,,,,,,,,,,,,,,,,,,,,,,,,,,,,,,,65,151831,19,Female,1,2024/02/19_08:48:19,YZ,None,
,,,,,,calibration,0,20,2,679,14,J,0,right,0.557701042998815,1,0,,,,,,,,,,,,,,,,,,,,,1,,,,,,,,,,,,,,,,,,,,,,,,,,,,,,,,,,,,,,,,,,,,,,65,151831,19,Female,1,2024/02/19_08:48:19,YZ,None,
,,,,,,calibration,0,20,2,679,,,,,,,,0.8374999999999999,0.75,0.2,0.8,0.0,0.8,0.587824558288308,3,2,0,0,0,8,11,4,10,0,,,,1,,,,,,,,,,,,,,,,,,,,,,,,,,,,,,,,,,,,,,,,,,,,,,65,151831,19,Female,1,2024/02/19_08:48:19,YZ,None,
,,,,,,Calibration,0,,2,679,,,,,,,,,,,,,,,,,,,,,,,,,7,,,1,,,,,,,,,,,,,,,,,,,,,,,,,,,,,,,,,,,,,,,,,,,,,,65,151831,19,Female,1,2024/02/19_08:48:19,YZ,None,
,,,,,,calibration,0,17,2,679,1,N,0,right,0.8213960040011443,1,0,,,,,,,,,,,,,,,,,,,,,1,,,,,,,,,,,,,,,,,,,,,,,,,,,,,,,,,,,,,,,,,,,,,,65,151831,19,Female,1,2024/02/19_08:48:19,YZ,None,
,,,,,,calibration,0,17,2,679,2,Q,0,right,0.27823458798229694,1,0,,,,,,,,,,,,,,,,,,,,,1,,,,,,,,,,,,,,,,,,,,,,,,,,,,,,,,,,,,,,,,,,,,,,65,151831,19,Female,1,2024/02/19_08:48:19,YZ,None,
,,,,,,calibration,0,17,2,679,3,N,1,left,0.5126415370032191,1,0,,,,,,,,,,,,,,,,,,,,,1,,,,,,,,,,,,,,,,,,,,,,,,,,,,,,,,,,,,,,,,,,,,,,65,151831,19,Female,1,2024/02/19_08:48:19,YZ,None,
,,,,,,calibration,0,17,2,679,4,Q,1,left,0.4927963300142437,1,0,,,,,,,,,,,,,,,,,,,,,1,,,,,,,,,,,,,,,,,,,,,,,,,,,,,,,,,,,,,,,,,,,,,,65,151831,19,Female,1,2024/02/19_08:48:19,YZ,None,
,,,,,,calibration,0,17,2,679,5,X,0,right,0.5966642469866201,1,0,,,,,,,,,,,,,,,,,,,,,1,,,,,,,,,,,,,,,,,,,,,,,,,,,,,,,,,,,,,,,,,,,,,,65,151831,19,Female,1,2024/02/19_08:48:19,YZ,None,
,,,,,,calibration,0,17,2,679,6,F,0,left,0.5585001980070956,0,0,,,,,,,,,,,,,,,,,,,,,1,,,,,,,,,,,,,,,,,,,,,,,,,,,,,,,,,,,,,,,,,,,,,,65,151831,19,Female,1,2024/02/19_08:48:19,YZ,None,
,,,,,,calibration,0,17,2,679,7,V,0,right,0.5999148240080103,1,0,,,,,,,,,,,,,,,,,,,,,1,,,,,,,,,,,,,,,,,,,,,,,,,,,,,,,,,,,,,,,,,,,,,,65,151831,19,Female,1,2024/02/19_08:48:19,YZ,None,
,,,,,,calibration,0,17,2,679,8,Q,0,right,0.43808833000366576,1,0,,,,,,,,,,,,,,,,,,,,,1,,,,,,,,,,,,,,,,,,,,,,,,,,,,,,,,,,,,,,,,,,,,,,65,151831,19,Female,1,2024/02/19_08:48:19,YZ,None,
,,,,,,calibration,0,17,2,679,9,C,0,right,0.4600606659951154,1,0,,,,,,,,,,,,,,,,,,,,,1,,,,,,,,,,,,,,,,,,,,,,,,,,,,,,,,,,,,,,,,,,,,,,65,151831,19,Female,1,2024/02/19_08:48:19,YZ,None,
,,,,,,calibration,0,17,2,679,10,J,0,right,0.6919595309882425,1,0,,,,,,,,,,,,,,,,,,,,,1,,,,,,,,,,,,,,,,,,,,,,,,,,,,,,,,,,,,,,,,,,,,,,65,151831,19,Female,1,2024/02/19_08:48:19,YZ,None,
,,,,,,calibration,0,17,2,679,11,C,1,right,0.3987175170041155,0,0,,,,,,,,,,,,,,,,,,,,,1,,,,,,,,,,,,,,,,,,,,,,,,,,,,,,,,,,,,,,,,,,,,,,65,151831,19,Female,1,2024/02/19_08:48:19,YZ,None,
,,,,,,calibration,0,17,2,679,12,J,1,left,0.49507243902189657,1,0,,,,,,,,,,,,,,,,,,,,,1,,,,,,,,,,,,,,,,,,,,,,,,,,,,,,,,,,,,,,,,,,,,,,65,151831,19,Female,1,2024/02/19_08:48:19,YZ,None,
,,,,,,calibration,0,17,2,679,13,X,0,right,0.3026446730073076,1,0,,,,,,,,,,,,,,,,,,,,,1,,,,,,,,,,,,,,,,,,,,,,,,,,,,,,,,,,,,,,,,,,,,,,65,151831,19,Female,1,2024/02/19_08:48:19,YZ,None,
,,,,,,calibration,0,17,2,679,14,F,0,right,0.5487655140168499,1,0,,,,,,,,,,,,,,,,,,,,,1,,,,,,,,,,,,,,,,,,,,,,,,,,,,,,,,,,,,,,,,,,,,,,65,151831,19,Female,1,2024/02/19_08:48:19,YZ,None,
,,,,,,calibration,0,17,2,679,,,,,,,,0.8875,0.75,0.1,0.9,0.0,0.9,0.5139611712885588,3,1,0,0,0,9,12,4,10,0,,,,1,,,,,,,,,,,,,,,,,,,,,,,,,,,,,,,,,,,,,,,,,,,,,,65,151831,19,Female,1,2024/02/19_08:48:19,YZ,None,
,,,,,,Calibration,0,,2,679,,,,,,,,,,,,,,,,,,,,,,,,,8,,,1,,,,,,,,,,,,,,,,,,,,,,,,,,,,,,,,,,,,,,,,,,,,,,65,151831,19,Female,1,2024/02/19_08:48:19,YZ,None,
,,,,,,calibration,0,13,2,583,1,C,0,right,0.4475836560013704,1,0,,,,,,,,,,,,,,,,,,,,,1,,,,,,,,,,,,,,,,,,,,,,,,,,,,,,,,,,,,,,,,,,,,,,65,151831,19,Female,1,2024/02/19_08:48:19,YZ,None,
,,,,,,calibration,0,13,2,583,2,S,0,right,0.4035822890000418,1,0,,,,,,,,,,,,,,,,,,,,,1,,,,,,,,,,,,,,,,,,,,,,,,,,,,,,,,,,,,,,,,,,,,,,65,151831,19,Female,1,2024/02/19_08:48:19,YZ,None,
,,,,,,calibration,0,13,2,583,3,Q,0,right,0.4630855720024556,1,0,,,,,,,,,,,,,,,,,,,,,1,,,,,,,,,,,,,,,,,,,,,,,,,,,,,,,,,,,,,,,,,,,,,,65,151831,19,Female,1,2024/02/19_08:48:19,YZ,None,
,,,,,,calibration,0,13,2,583,4,F,0,left,0.47654277400579304,0,0,,,,,,,,,,,,,,,,,,,,,1,,,,,,,,,,,,,,,,,,,,,,,,,,,,,,,,,,,,,,,,,,,,,,65,151831,19,Female,1,2024/02/19_08:48:19,YZ,None,
,,,,,,calibration,0,13,2,583,5,Q,1,right,0.5957389769901056,0,0,,,,,,,,,,,,,,,,,,,,,1,,,,,,,,,,,,,,,,,,,,,,,,,,,,,,,,,,,,,,,,,,,,,,65,151831,19,Female,1,2024/02/19_08:48:19,YZ,None,
,,,,,,calibration,0,13,2,583,6,X,0,right,0.5243524549878202,1,0,,,,,,,,,,,,,,,,,,,,,1,,,,,,,,,,,,,,,,,,,,,,,,,,,,,,,,,,,,,,,,,,,,,,65,151831,19,Female,1,2024/02/19_08:48:19,YZ,None,
,,,,,,calibration,0,13,2,583,7,Q,1,left,0.4652551390172448,1,0,,,,,,,,,,,,,,,,,,,,,1,,,,,,,,,,,,,,,,,,,,,,,,,,,,,,,,,,,,,,,,,,,,,,65,151831,19,Female,1,2024/02/19_08:48:19,YZ,None,
,,,,,,calibration,0,13,2,583,8,C,0,right,0.44688659100211225,1,0,,,,,,,,,,,,,,,,,,,,,1,,,,,,,,,,,,,,,,,,,,,,,,,,,,,,,,,,,,,,,,,,,,,,65,151831,19,Female,1,2024/02/19_08:48:19,YZ,None,
,,,,,,calibration,0,13,2,583,9,Q,1,left,0.33212136299698614,1,0,,,,,,,,,,,,,,,,,,,,,1,,,,,,,,,,,,,,,,,,,,,,,,,,,,,,,,,,,,,,,,,,,,,,65,151831,19,Female,1,2024/02/19_08:48:19,YZ,None,
,,,,,,calibration,0,13,2,583,10,X,0,right,0.4064321240002755,1,0,,,,,,,,,,,,,,,,,,,,,1,,,,,,,,,,,,,,,,,,,,,,,,,,,,,,,,,,,,,,,,,,,,,,65,151831,19,Female,1,2024/02/19_08:48:19,YZ,None,
,,,,,,calibration,0,13,2,583,11,C,0,right,0.3586239559808746,1,0,,,,,,,,,,,,,,,,,,,,,1,,,,,,,,,,,,,,,,,,,,,,,,,,,,,,,,,,,,,,,,,,,,,,65,151831,19,Female,1,2024/02/19_08:48:19,YZ,None,
,,,,,,calibration,0,13,2,583,12,X,1,left,0.4250683639838826,1,0,,,,,,,,,,,,,,,,,,,,,1,,,,,,,,,,,,,,,,,,,,,,,,,,,,,,,,,,,,,,,,,,,,,,65,151831,19,Female,1,2024/02/19_08:48:19,YZ,None,
,,,,,,calibration,0,13,2,583,13,N,0,right,0.5127786719822325,1,0,,,,,,,,,,,,,,,,,,,,,1,,,,,,,,,,,,,,,,,,,,,,,,,,,,,,,,,,,,,,,,,,,,,,65,151831,19,Female,1,2024/02/19_08:48:19,YZ,None,
,,,,,,calibration,0,13,2,583,14,X,1,left,0.30169930300326087,1,0,,,,,,,,,,,,,,,,,,,,,1,,,,,,,,,,,,,,,,,,,,,,,,,,,,,,,,,,,,,,,,,,,,,,65,151831,19,Female,1,2024/02/19_08:48:19,YZ,None,
,,,,,,calibration,0,13,2,583,15,V,0,right,0.45666109799640253,1,0,,,,,,,,,,,,,,,,,,,,,1,,,,,,,,,,,,,,,,,,,,,,,,,,,,,,,,,,,,,,,,,,,,,,65,151831,19,Female,1,2024/02/19_08:48:19,YZ,None,
,,,,,,calibration,0,13,2,583,,,,,,,,0.905,0.8,0.1,0.9,0.0,0.9,0.4410941555300572,4,1,0,0,0,9,13,5,10,0,,,,1,,,,,,,,,,,,,,,,,,,,,,,,,,,,,,,,,,,,,,,,,,,,,,65,151831,19,Female,1,2024/02/19_08:48:19,YZ,None,
,,,,,,Calibration,0,,2,583,,,,,,,,,,,,,,,,,,,,,,,,,9,,,1,,,,,,,,,,,,,,,,,,,,,,,,,,,,,,,,,,,,,,,,,,,,,,65,151831,19,Female,1,2024/02/19_08:48:19,YZ,None,
,,,,,,calibration,0,34,2,500,1,Q,0,right,0.8437070219952147,1,0,,,,,,,,,,,,,,,,,,,,,1,,,,,,,,,,,,,,,,,,,,,,,,,,,,,,,,,,,,,,,,,,,,,,65,151831,19,Female,1,2024/02/19_08:48:19,YZ,None,
,,,,,,calibration,0,34,2,500,2,S,0,right,0.32535312601248734,1,0,,,,,,,,,,,,,,,,,,,,,1,,,,,,,,,,,,,,,,,,,,,,,,,,,,,,,,,,,,,,,,,,,,,,65,151831,19,Female,1,2024/02/19_08:48:19,YZ,None,
,,,,,,calibration,0,34,2,500,3,N,0,right,0.6071735299774446,1,0,,,,,,,,,,,,,,,,,,,,,1,,,,,,,,,,,,,,,,,,,,,,,,,,,,,,,,,,,,,,,,,,,,,,65,151831,19,Female,1,2024/02/19_08:48:19,YZ,None,
,,,,,,calibration,0,34,2,500,4,S,1,left,0.47812715999316424,1,0,,,,,,,,,,,,,,,,,,,,,1,,,,,,,,,,,,,,,,,,,,,,,,,,,,,,,,,,,,,,,,,,,,,,65,151831,19,Female,1,2024/02/19_08:48:19,YZ,None,
,,,,,,calibration,0,34,2,500,5,Q,0,left,0.8109618329908699,0,0,,,,,,,,,,,,,,,,,,,,,1,,,,,,,,,,,,,,,,,,,,,,,,,,,,,,,,,,,,,,,,,,,,,,65,151831,19,Female,1,2024/02/19_08:48:19,YZ,None,
,,,,,,calibration,0,34,2,500,6,F,0,right,0.49600598998949863,1,0,,,,,,,,,,,,,,,,,,,,,1,,,,,,,,,,,,,,,,,,,,,,,,,,,,,,,,,,,,,,,,,,,,,,65,151831,19,Female,1,2024/02/19_08:48:19,YZ,None,
,,,,,,calibration,0,34,2,500,7,V,0,right,0.8266968599928077,1,0,,,,,,,,,,,,,,,,,,,,,1,,,,,,,,,,,,,,,,,,,,,,,,,,,,,,,,,,,,,,,,,,,,,,65,151831,19,Female,1,2024/02/19_08:48:19,YZ,None,
,,,,,,calibration,0,34,2,500,8,X,0,right,0.5857268359977752,1,0,,,,,,,,,,,,,,,,,,,,,1,,,,,,,,,,,,,,,,,,,,,,,,,,,,,,,,,,,,,,,,,,,,,,65,151831,19,Female,1,2024/02/19_08:48:19,YZ,None,
,,,,,,calibration,0,34,2,500,9,Q,0,right,0.542506724013947,1,0,,,,,,,,,,,,,,,,,,,,,1,,,,,,,,,,,,,,,,,,,,,,,,,,,,,,,,,,,,,,,,,,,,,,65,151831,19,Female,1,2024/02/19_08:48:19,YZ,None,
,,,,,,calibration,0,34,2,500,10,N,0,right,0.6902433279901743,1,0,,,,,,,,,,,,,,,,,,,,,1,,,,,,,,,,,,,,,,,,,,,,,,,,,,,,,,,,,,,,,,,,,,,,65,151831,19,Female,1,2024/02/19_08:48:19,YZ,None,
,,,,,,calibration,0,34,2,500,11,Q,1,left,0.4545776750019286,1,0,,,,,,,,,,,,,,,,,,,,,1,,,,,,,,,,,,,,,,,,,,,,,,,,,,,,,,,,,,,,,,,,,,,,65,151831,19,Female,1,2024/02/19_08:48:19,YZ,None,
,,,,,,calibration,0,34,2,500,12,V,0,right,0.5311903600231744,1,0,,,,,,,,,,,,,,,,,,,,,1,,,,,,,,,,,,,,,,,,,,,,,,,,,,,,,,,,,,,,,,,,,,,,65,151831,19,Female,1,2024/02/19_08:48:19,YZ,None,
,,,,,,calibration,0,34,2,500,13,Q,1,left,0.27757254798780195,1,0,,,,,,,,,,,,,,,,,,,,,1,,,,,,,,,,,,,,,,,,,,,,,,,,,,,,,,,,,,,,,,,,,,,,65,151831,19,Female,1,2024/02/19_08:48:19,YZ,None,
,,,,,,calibration,0,34,2,500,14,C,0,right,0.35608146400772966,1,0,,,,,,,,,,,,,,,,,,,,,1,,,,,,,,,,,,,,,,,,,,,,,,,,,,,,,,,,,,,,,,,,,,,,65,151831,19,Female,1,2024/02/19_08:48:19,YZ,None,
,,,,,,calibration,0,34,2,500,15,Q,1,left,0.25643658798071556,1,0,,,,,,,,,,,,,,,,,,,,,1,,,,,,,,,,,,,,,,,,,,,,,,,,,,,,,,,,,,,,,,,,,,,,65,151831,19,Female,1,2024/02/19_08:48:19,YZ,None,
,,,,,,calibration,0,34,2,500,16,S,0,right,0.4162832250003703,1,0,,,,,,,,,,,,,,,,,,,,,1,,,,,,,,,,,,,,,,,,,,,,,,,,,,,,,,,,,,,,,,,,,,,,65,151831,19,Female,1,2024/02/19_08:48:19,YZ,None,
,,,,,,calibration,0,34,2,500,,,,,,,,0.9791666666666666,1.0,0.08333333333333333,0.9166666666666666,0.0,0.9166666666666666,0.531165266809694,4,1,0,0,0,11,15,4,12,0,,,,1,,,,,,,,,,,,,,,,,,,,,,,,,,,,,,,,,,,,,,,,,,,,,,65,151831,19,Female,1,2024/02/19_08:48:19,YZ,None,
,,,,,,Calibration,0,,2,500,,,,,,,,,,,,,,,,,,,,,,,,,10,,,1,,,,,,,,,,,,,,,,,,,,,,,,,,,,,,,,,,,,,,,,,,,,,,65,151831,19,Female,1,2024/02/19_08:48:19,YZ,None,
,,,,,,calibration,0,13,2,426,1,X,0,right,0.6119420960021671,1,0,,,,,,,,,,,,,,,,,,,,,1,,,,,,,,,,,,,,,,,,,,,,,,,,,,,,,,,,,,,,,,,,,,,,65,151831,19,Female,1,2024/02/19_08:48:19,YZ,None,
,,,,,,calibration,0,13,2,426,2,X,0,right,0.4125486019765958,1,0,,,,,,,,,,,,,,,,,,,,,1,,,,,,,,,,,,,,,,,,,,,,,,,,,,,,,,,,,,,,,,,,,,,,65,151831,19,Female,1,2024/02/19_08:48:19,YZ,None,
,,,,,,calibration,0,13,2,426,3,N,0,left,0.4355770070105791,0,0,,,,,,,,,,,,,,,,,,,,,1,,,,,,,,,,,,,,,,,,,,,,,,,,,,,,,,,,,,,,,,,,,,,,65,151831,19,Female,1,2024/02/19_08:48:19,YZ,None,
,,,,,,calibration,0,13,2,426,4,Q,0,right,0.48748353199334815,1,0,,,,,,,,,,,,,,,,,,,,,1,,,,,,,,,,,,,,,,,,,,,,,,,,,,,,,,,,,,,,,,,,,,,,65,151831,19,Female,1,2024/02/19_08:48:19,YZ,None,
,,,,,,calibration,0,13,2,426,5,N,1,left,0.6160093460057396,1,0,,,,,,,,,,,,,,,,,,,,,1,,,,,,,,,,,,,,,,,,,,,,,,,,,,,,,,,,,,,,,,,,,,,,65,151831,19,Female,1,2024/02/19_08:48:19,YZ,None,
,,,,,,calibration,0,13,2,426,6,F,0,right,0.49425818599411286,1,0,,,,,,,,,,,,,,,,,,,,,1,,,,,,,,,,,,,,,,,,,,,,,,,,,,,,,,,,,,,,,,,,,,,,65,151831,19,Female,1,2024/02/19_08:48:19,YZ,None,
,,,,,,calibration,0,13,2,426,7,N,1,left,0.6072249209973961,1,0,,,,,,,,,,,,,,,,,,,,,1,,,,,,,,,,,,,,,,,,,,,,,,,,,,,,,,,,,,,,,,,,,,,,65,151831,19,Female,1,2024/02/19_08:48:19,YZ,None,
,,,,,,calibration,0,13,2,426,8,J,0,right,0.47887239599367604,1,0,,,,,,,,,,,,,,,,,,,,,1,,,,,,,,,,,,,,,,,,,,,,,,,,,,,,,,,,,,,,,,,,,,,,65,151831,19,Female,1,2024/02/19_08:48:19,YZ,None,
,,,,,,calibration,0,13,2,426,9,S,0,left,0.3995041770103853,0,0,,,,,,,,,,,,,,,,,,,,,1,,,,,,,,,,,,,,,,,,,,,,,,,,,,,,,,,,,,,,,,,,,,,,65,151831,19,Female,1,2024/02/19_08:48:19,YZ,None,
,,,,,,calibration,0,13,2,426,10,V,0,right,0.7155508809955791,1,0,,,,,,,,,,,,,,,,,,,,,1,,,,,,,,,,,,,,,,,,,,,,,,,,,,,,,,,,,,,,,,,,,,,,65,151831,19,Female,1,2024/02/19_08:48:19,YZ,None,
,,,,,,calibration,0,13,2,426,11,J,0,right,0.5420670440071262,1,0,,,,,,,,,,,,,,,,,,,,,1,,,,,,,,,,,,,,,,,,,,,,,,,,,,,,,,,,,,,,,,,,,,,,65,151831,19,Female,1,2024/02/19_08:48:19,YZ,None,
,,,,,,calibration,0,13,2,426,12,V,1,right,0.6083154110237956,0,0,,,,,,,,,,,,,,,,,,,,,1,,,,,,,,,,,,,,,,,,,,,,,,,,,,,,,,,,,,,,,,,,,,,,65,151831,19,Female,1,2024/02/19_08:48:19,YZ,None,
,,,,,,calibration,0,13,2,426,13,J,1,left,0.6245714990072884,1,0,,,,,,,,,,,,,,,,,,,,,1,,,,,,,,,,,,,,,,,,,,,,,,,,,,,,,,,,,,,,,,,,,,,,65,151831,19,Female,1,2024/02/19_08:48:19,YZ,None,
,,,,,,calibration,0,13,2,426,14,Q,0,right,0.4841493569838349,1,0,,,,,,,,,,,,,,,,,,,,,1,,,,,,,,,,,,,,,,,,,,,,,,,,,,,,,,,,,,,,,,,,,,,,65,151831,19,Female,1,2024/02/19_08:48:19,YZ,None,
,,,,,,calibration,0,13,2,426,15,V,0,left,0.5448727349867113,0,0,,,,,,,,,,,,,,,,,,,,,1,,,,,,,,,,,,,,,,,,,,,,,,,,,,,,,,,,,,,,,,,,,,,,65,151831,19,Female,1,2024/02/19_08:48:19,YZ,None,
,,,,,,calibration,0,13,2,426,16,Q,1,right,0.5128242739883717,0,0,,,,,,,,,,,,,,,,,,,,,1,,,,,,,,,,,,,,,,,,,,,,,,,,,,,,,,,,,,,,,,,,,,,,65,151831,19,Female,1,2024/02/19_08:48:19,YZ,None,
,,,,,,calibration,0,13,2,426,17,S,0,right,0.6581172450096346,1,0,,,,,,,,,,,,,,,,,,,,,1,,,,,,,,,,,,,,,,,,,,,,,,,,,,,,,,,,,,,,,,,,,,,,65,151831,19,Female,1,2024/02/19_08:48:19,YZ,None,
,,,,,,calibration,0,13,2,426,,,,,,,,0.7375,0.6,0.25,0.75,0.0,0.75,0.5431699240580201,3,3,0,0,0,9,12,5,12,0,,,,1,,,,,,,,,,,,,,,,,,,,,,,,,,,,,,,,,,,,,,,,,,,,,,65,151831,19,Female,1,2024/02/19_08:48:19,YZ,None,
,,,,,,Calibration,0,,2,426,,,,,,,,,,,,,,,,,,,,,,,,,11,,,1,,,,,,,,,,,,,,,,,,,,,,,,,,,,,,,,,,,,,,,,,,,,,,65,151831,19,Female,1,2024/02/19_08:48:19,YZ,None,
,,,,,,calibration,0,21,2,500,1,Q,0,right,0.4551857569895219,1,0,,,,,,,,,,,,,,,,,,,,,1,,,,,,,,,,,,,,,,,,,,,,,,,,,,,,,,,,,,,,,,,,,,,,65,151831,19,Female,1,2024/02/19_08:48:19,YZ,None,
,,,,,,calibration,0,21,2,500,2,C,0,right,0.3506963209947571,1,0,,,,,,,,,,,,,,,,,,,,,1,,,,,,,,,,,,,,,,,,,,,,,,,,,,,,,,,,,,,,,,,,,,,,65,151831,19,Female,1,2024/02/19_08:48:19,YZ,None,
,,,,,,calibration,0,21,2,500,3,Q,1,left,0.35999058600282297,1,0,,,,,,,,,,,,,,,,,,,,,1,,,,,,,,,,,,,,,,,,,,,,,,,,,,,,,,,,,,,,,,,,,,,,65,151831,19,Female,1,2024/02/19_08:48:19,YZ,None,
,,,,,,calibration,0,21,2,500,4,S,0,right,0.7929202659870498,1,0,,,,,,,,,,,,,,,,,,,,,1,,,,,,,,,,,,,,,,,,,,,,,,,,,,,,,,,,,,,,,,,,,,,,65,151831,19,Female,1,2024/02/19_08:48:19,YZ,None,
,,,,,,calibration,0,21,2,500,5,Q,1,left,0.6782494600047357,1,0,,,,,,,,,,,,,,,,,,,,,1,,,,,,,,,,,,,,,,,,,,,,,,,,,,,,,,,,,,,,,,,,,,,,65,151831,19,Female,1,2024/02/19_08:48:19,YZ,None,
,,,,,,calibration,0,21,2,500,6,N,0,right,0.44601900700945407,1,0,,,,,,,,,,,,,,,,,,,,,1,,,,,,,,,,,,,,,,,,,,,,,,,,,,,,,,,,,,,,,,,,,,,,65,151831,19,Female,1,2024/02/19_08:48:19,YZ,None,
,,,,,,calibration,0,21,2,500,7,F,0,left,0.5623016690078657,0,0,,,,,,,,,,,,,,,,,,,,,1,,,,,,,,,,,,,,,,,,,,,,,,,,,,,,,,,,,,,,,,,,,,,,65,151831,19,Female,1,2024/02/19_08:48:19,YZ,None,
,,,,,,calibration,0,21,2,500,8,V,0,right,0.5409930209862068,1,0,,,,,,,,,,,,,,,,,,,,,1,,,,,,,,,,,,,,,,,,,,,,,,,,,,,,,,,,,,,,,,,,,,,,65,151831,19,Female,1,2024/02/19_08:48:19,YZ,None,
,,,,,,calibration,0,21,2,500,9,X,0,right,0.6047331989975646,1,0,,,,,,,,,,,,,,,,,,,,,1,,,,,,,,,,,,,,,,,,,,,,,,,,,,,,,,,,,,,,,,,,,,,,65,151831,19,Female,1,2024/02/19_08:48:19,YZ,None,
,,,,,,calibration,0,21,2,500,10,V,1,left,0.6546841920062434,1,0,,,,,,,,,,,,,,,,,,,,,1,,,,,,,,,,,,,,,,,,,,,,,,,,,,,,,,,,,,,,,,,,,,,,65,151831,19,Female,1,2024/02/19_08:48:19,YZ,None,
,,,,,,calibration,0,21,2,500,11,X,1,right,0.6299687360005919,0,0,,,,,,,,,,,,,,,,,,,,,1,,,,,,,,,,,,,,,,,,,,,,,,,,,,,,,,,,,,,,,,,,,,,,65,151831,19,Female,1,2024/02/19_08:48:19,YZ,None,
,,,,,,calibration,0,21,2,500,12,C,0,left,0.48023183399345726,0,0,,,,,,,,,,,,,,,,,,,,,1,,,,,,,,,,,,,,,,,,,,,,,,,,,,,,,,,,,,,,,,,,,,,,65,151831,19,Female,1,2024/02/19_08:48:19,YZ,None,
,,,,,,calibration,0,21,2,500,13,X,1,left,0.5514934299862944,1,0,,,,,,,,,,,,,,,,,,,,,1,,,,,,,,,,,,,,,,,,,,,,,,,,,,,,,,,,,,,,,,,,,,,,65,151831,19,Female,1,2024/02/19_08:48:19,YZ,None,
,,,,,,calibration,0,21,2,500,14,S,0,right,0.6361759089922998,1,0,,,,,,,,,,,,,,,,,,,,,1,,,,,,,,,,,,,,,,,,,,,,,,,,,,,,,,,,,,,,,,,,,,,,65,151831,19,Female,1,2024/02/19_08:48:19,YZ,None,
,,,,,,calibration,0,21,2,500,15,V,0,left,0.4181422599940561,0,0,,,,,,,,,,,,,,,,,,,,,1,,,,,,,,,,,,,,,,,,,,,,,,,,,,,,,,,,,,,,,,,,,,,,65,151831,19,Female,1,2024/02/19_08:48:19,YZ,None,
,,,,,,calibration,0,21,2,500,16,N,0,right,0.48645421597757377,1,0,,,,,,,,,,,,,,,,,,,,,1,,,,,,,,,,,,,,,,,,,,,,,,,,,,,,,,,,,,,,,,,,,,,,65,151831,19,Female,1,2024/02/19_08:48:19,YZ,None,
,,,,,,calibration,0,21,2,500,,,,,,,,0.8272727272727273,0.8,0.2727272727272727,0.7272727272727273,0.0,0.7272727272727273,0.540514991433156,4,3,0,0,0,8,12,5,11,0,,,,1,,,,,,,,,,,,,,,,,,,,,,,,,,,,,,,,,,,,,,,,,,,,,,65,151831,19,Female,1,2024/02/19_08:48:19,YZ,None,
,,,,,,Calibration,0,,2,500,,,,,,,,,,,,,,,,,,,,,,,,,12,,,1,,,,,,,,,,,,,,,,,,,,,,,,,,,,,,,,,,,,,,,,,,,,,,65,151831,19,Female,1,2024/02/19_08:48:19,YZ,None,
,,,,,,calibration,0,26,2,500,1,Q,0,right,0.43118302201037295,1,0,,,,,,,,,,,,,,,,,,,,,1,,,,,,,,,,,,,,,,,,,,,,,,,,,,,,,,,,,,,,,,,,,,,,65,151831,19,Female,1,2024/02/19_08:48:19,YZ,None,
,,,,,,calibration,0,26,2,500,2,S,0,right,0.3352985660021659,1,0,,,,,,,,,,,,,,,,,,,,,1,,,,,,,,,,,,,,,,,,,,,,,,,,,,,,,,,,,,,,,,,,,,,,65,151831,19,Female,1,2024/02/19_08:48:19,YZ,None,
,,,,,,calibration,0,26,2,500,3,N,0,right,0.45563929399941117,1,0,,,,,,,,,,,,,,,,,,,,,1,,,,,,,,,,,,,,,,,,,,,,,,,,,,,,,,,,,,,,,,,,,,,,65,151831,19,Female,1,2024/02/19_08:48:19,YZ,None,
,,,,,,calibration,0,26,2,500,4,S,1,right,0.407088060019305,0,0,,,,,,,,,,,,,,,,,,,,,1,,,,,,,,,,,,,,,,,,,,,,,,,,,,,,,,,,,,,,,,,,,,,,65,151831,19,Female,1,2024/02/19_08:48:19,YZ,None,
,,,,,,calibration,0,26,2,500,5,C,0,right,0.8170195859856904,1,0,,,,,,,,,,,,,,,,,,,,,1,,,,,,,,,,,,,,,,,,,,,,,,,,,,,,,,,,,,,,,,,,,,,,65,151831,19,Female,1,2024/02/19_08:48:19,YZ,None,
,,,,,,calibration,0,26,2,500,6,S,1,left,0.39787695900304243,1,0,,,,,,,,,,,,,,,,,,,,,1,,,,,,,,,,,,,,,,,,,,,,,,,,,,,,,,,,,,,,,,,,,,,,65,151831,19,Female,1,2024/02/19_08:48:19,YZ,None,
,,,,,,calibration,0,26,2,500,7,N,0,left,0.6847068890056107,0,0,,,,,,,,,,,,,,,,,,,,,1,,,,,,,,,,,,,,,,,,,,,,,,,,,,,,,,,,,,,,,,,,,,,,65,151831,19,Female,1,2024/02/19_08:48:19,YZ,None,
,,,,,,calibration,0,26,2,500,8,C,0,right,0.42464936900069006,1,0,,,,,,,,,,,,,,,,,,,,,1,,,,,,,,,,,,,,,,,,,,,,,,,,,,,,,,,,,,,,,,,,,,,,65,151831,19,Female,1,2024/02/19_08:48:19,YZ,None,
,,,,,,calibration,0,26,2,500,9,V,0,right,nan,0,1,,,,,,,,,,,,,,,,,,,,,1,,,,,,,,,,,,,,,,,,,,,,,,,,,,,,,,,,,,,,,,,,,,,,65,151831,19,Female,1,2024/02/19_08:48:19,YZ,None,
,,,,,,calibration,0,26,2,500,10,C,1,left,0.6305299070081674,1,0,,,,,,,,,,,,,,,,,,,,,1,,,,,,,,,,,,,,,,,,,,,,,,,,,,,,,,,,,,,,,,,,,,,,65,151831,19,Female,1,2024/02/19_08:48:19,YZ,None,
,,,,,,calibration,0,26,2,500,11,S,0,right,0.4344311029999517,1,0,,,,,,,,,,,,,,,,,,,,,1,,,,,,,,,,,,,,,,,,,,,,,,,,,,,,,,,,,,,,,,,,,,,,65,151831,19,Female,1,2024/02/19_08:48:19,YZ,None,
,,,,,,calibration,0,26,2,500,12,C,1,left,0.44746795599348843,1,0,,,,,,,,,,,,,,,,,,,,,1,,,,,,,,,,,,,,,,,,,,,,,,,,,,,,,,,,,,,,,,,,,,,,65,151831,19,Female,1,2024/02/19_08:48:19,YZ,None,
,,,,,,calibration,0,26,2,500,13,F,0,right,0.5431023449928034,1,0,,,,,,,,,,,,,,,,,,,,,1,,,,,,,,,,,,,,,,,,,,,,,,,,,,,,,,,,,,,,,,,,,,,,65,151831,19,Female,1,2024/02/19_08:48:19,YZ,None,
,,,,,,calibration,0,26,2,500,14,N,0,left,0.49894823000067845,0,0,,,,,,,,,,,,,,,,,,,,,1,,,,,,,,,,,,,,,,,,,,,,,,,,,,,,,,,,,,,,,,,,,,,,65,151831,19,Female,1,2024/02/19_08:48:19,YZ,None,
,,,,,,calibration,0,26,2,500,15,J,0,right,0.41122554402682,1,0,,,,,,,,,,,,,,,,,,,,,1,,,,,,,,,,,,,,,,,,,,,,,,,,,,,,,,,,,,,,,,,,,,,,65,151831,19,Female,1,2024/02/19_08:48:19,YZ,None,
,,,,,,calibration,0,26,2,500,16,Q,0,left,0.8849796289869118,0,0,,,,,,,,,,,,,,,,,,,,,1,,,,,,,,,,,,,,,,,,,,,,,,,,,,,,,,,,,,,,,,,,,,,,65,151831,19,Female,1,2024/02/19_08:48:19,YZ,None,
,,,,,,calibration,0,26,2,500,,,,,,,,0.8125,0.75,0.25,0.7272727272727273,0.0625,0.6875,0.5202764306023406,3,3,0,1,1,8,11,4,12,0,,,,1,,,,,,,,,,,,,,,,,,,,,,,,,,,,,,,,,,,,,,,,,,,,,,65,151831,19,Female,1,2024/02/19_08:48:19,YZ,None,
,,,,,,Calibration,0,,2,500,,,,,,,,,,,,,,,,,,,,,,,,,13,,,1,,,,,,,,,,,,,,,,,,,,,,,,,,,,,,,,,,,,,,,,,,,,,,65,151831,19,Female,1,2024/02/19_08:48:19,YZ,None,
,,,,,,calibration,0,10,2,500,1,N,0,None,nan,0,1,,,,,,,,,,,,,,,,,,,,,1,,,,,,,,,,,,,,,,,,,,,,,,,,,,,,,,,,,,,,,,,,,,,,65,151831,19,Female,1,2024/02/19_08:48:19,YZ,None,
,,,,,,calibration,0,10,2,500,2,C,0,right,0.07248056499520317,1,0,,,,,,,,,,,,,,,,,,,,,1,,,,,,,,,,,,,,,,,,,,,,,,,,,,,,,,,,,,,,,,,,,,,,65,151831,19,Female,1,2024/02/19_08:48:19,YZ,None,
,,,,,,calibration,0,10,2,500,3,S,0,right,0.06428138798219152,1,0,,,,,,,,,,,,,,,,,,,,,1,,,,,,,,,,,,,,,,,,,,,,,,,,,,,,,,,,,,,,,,,,,,,,65,151831,19,Female,1,2024/02/19_08:48:19,YZ,None,
,,,,,,calibration,0,10,2,500,4,C,1,right,0.1779955300153233,0,0,,,,,,,,,,,,,,,,,,,,,1,,,,,,,,,,,,,,,,,,,,,,,,,,,,,,,,,,,,,,,,,,,,,,65,151831,19,Female,1,2024/02/19_08:48:19,YZ,None,
,,,,,,calibration,0,10,2,500,5,N,0,left,0.0790051519870758,0,0,,,,,,,,,,,,,,,,,,,,,1,,,,,,,,,,,,,,,,,,,,,,,,,,,,,,,,,,,,,,,,,,,,,,65,151831,19,Female,1,2024/02/19_08:48:19,YZ,None,
,,,,,,calibration,0,10,2,500,6,V,0,right,0.21813432598719373,1,0,,,,,,,,,,,,,,,,,,,,,1,,,,,,,,,,,,,,,,,,,,,,,,,,,,,,,,,,,,,,,,,,,,,,65,151831,19,Female,1,2024/02/19_08:48:19,YZ,None,
,,,,,,calibration,0,10,2,500,7,Q,0,left,0.04691560298670083,0,0,,,,,,,,,,,,,,,,,,,,,1,,,,,,,,,,,,,,,,,,,,,,,,,,,,,,,,,,,,,,,,,,,,,,65,151831,19,Female,1,2024/02/19_08:48:19,YZ,None,
,,,,,,calibration,0,10,2,500,8,N,0,right,0.3721099460090045,1,0,,,,,,,,,,,,,,,,,,,,,1,,,,,,,,,,,,,,,,,,,,,,,,,,,,,,,,,,,,,,,,,,,,,,65,151831,19,Female,1,2024/02/19_08:48:19,YZ,None,
,,,,,,calibration,0,10,2,500,9,J,0,right,nan,0,1,,,,,,,,,,,,,,,,,,,,,1,,,,,,,,,,,,,,,,,,,,,,,,,,,,,,,,,,,,,,,,,,,,,,65,151831,19,Female,1,2024/02/19_08:48:19,YZ,None,
,,,,,,calibration,0,10,2,500,10,N,1,left,0.7077691399899777,1,0,,,,,,,,,,,,,,,,,,,,,1,,,,,,,,,,,,,,,,,,,,,,,,,,,,,,,,,,,,,,,,,,,,,,65,151831,19,Female,1,2024/02/19_08:48:19,YZ,None,
,,,,,,calibration,0,10,2,500,11,V,0,right,0.6881409189954866,1,0,,,,,,,,,,,,,,,,,,,,,1,,,,,,,,,,,,,,,,,,,,,,,,,,,,,,,,,,,,,,,,,,,,,,65,151831,19,Female,1,2024/02/19_08:48:19,YZ,None,
,,,,,,calibration,0,10,2,500,12,C,0,right,0.9886433930078056,1,0,,,,,,,,,,,,,,,,,,,,,1,,,,,,,,,,,,,,,,,,,,,,,,,,,,,,,,,,,,,,,,,,,,,,65,151831,19,Female,1,2024/02/19_08:48:19,YZ,None,
,,,,,,calibration,0,10,2,500,13,F,0,right,nan,0,1,,,,,,,,,,,,,,,,,,,,,1,,,,,,,,,,,,,,,,,,,,,,,,,,,,,,,,,,,,,,,,,,,,,,65,151831,19,Female,1,2024/02/19_08:48:19,YZ,None,
,,,,,,calibration,0,10,2,500,14,C,1,right,nan,0,1,,,,,,,,,,,,,,,,,,,,,1,,,,,,,,,,,,,,,,,,,,,,,,,,,,,,,,,,,,,,,,,,,,,,65,151831,19,Female,1,2024/02/19_08:48:19,YZ,None,
,,,,,,calibration,0,10,2,500,15,F,1,left,0.5240578500088304,1,0,,,,,,,,,,,,,,,,,,,,,1,,,,,,,,,,,,,,,,,,,,,,,,,,,,,,,,,,,,,,,,,,,,,,65,151831,19,Female,1,2024/02/19_08:48:19,YZ,None,
,,,,,,calibration,0,10,2,500,16,J,0,right,0.5191241370048374,1,0,,,,,,,,,,,,,,,,,,,,,1,,,,,,,,,,,,,,,,,,,,,,,,,,,,,,,,,,,,,,,,,,,,,,65,151831,19,Female,1,2024/02/19_08:48:19,YZ,None,
,,,,,,calibration,0,10,2,500,,,,,,,,0.75,0.5,0.16666666666666666,0.7777777777777778,0.25,0.5833333333333334,0.37155482908080256,2,2,1,3,4,7,9,4,12,0,,,,1,,,,,,,,,,,,,,,,,,,,,,,,,,,,,,,,,,,,,,,,,,,,,,65,151831,19,Female,1,2024/02/19_08:48:19,YZ,None,
,,,,,,Calibration,0,,2,500,,,,,,,,,,,,,,,,,,,,,,,,,14,,,1,,,,,,,,,,,,,,,,,,,,,,,,,,,,,,,,,,,,,,,,,,,,,,65,151831,19,Female,1,2024/02/19_08:48:19,YZ,None,
,,,,,,calibration,0,23,2,500,1,S,0,right,0.6257930019928608,1,0,,,,,,,,,,,,,,,,,,,,,1,,,,,,,,,,,,,,,,,,,,,,,,,,,,,,,,,,,,,,,,,,,,,,65,151831,19,Female,1,2024/02/19_08:48:19,YZ,None,
,,,,,,calibration,0,23,2,500,2,Q,0,right,0.28570038900943473,1,0,,,,,,,,,,,,,,,,,,,,,1,,,,,,,,,,,,,,,,,,,,,,,,,,,,,,,,,,,,,,,,,,,,,,65,151831,19,Female,1,2024/02/19_08:48:19,YZ,None,
,,,,,,calibration,0,23,2,500,3,F,0,left,0.693302630999824,0,0,,,,,,,,,,,,,,,,,,,,,1,,,,,,,,,,,,,,,,,,,,,,,,,,,,,,,,,,,,,,,,,,,,,,65,151831,19,Female,1,2024/02/19_08:48:19,YZ,None,
,,,,,,calibration,0,23,2,500,4,V,0,right,0.551697245973628,1,0,,,,,,,,,,,,,,,,,,,,,1,,,,,,,,,,,,,,,,,,,,,,,,,,,,,,,,,,,,,,,,,,,,,,65,151831,19,Female,1,2024/02/19_08:48:19,YZ,None,
,,,,,,calibration,0,23,2,500,5,F,1,left,0.5591232900042087,1,0,,,,,,,,,,,,,,,,,,,,,1,,,,,,,,,,,,,,,,,,,,,,,,,,,,,,,,,,,,,,,,,,,,,,65,151831,19,Female,1,2024/02/19_08:48:19,YZ,None,
,,,,,,calibration,0,23,2,500,6,V,1,right,0.3478780440054834,0,0,,,,,,,,,,,,,,,,,,,,,1,,,,,,,,,,,,,,,,,,,,,,,,,,,,,,,,,,,,,,,,,,,,,,65,151831,19,Female,1,2024/02/19_08:48:19,YZ,None,
,,,,,,calibration,0,23,2,500,7,X,0,left,0.4477378769952338,0,0,,,,,,,,,,,,,,,,,,,,,1,,,,,,,,,,,,,,,,,,,,,,,,,,,,,,,,,,,,,,,,,,,,,,65,151831,19,Female,1,2024/02/19_08:48:19,YZ,None,
,,,,,,calibration,0,23,2,500,8,C,0,right,0.7320283979934175,1,0,,,,,,,,,,,,,,,,,,,,,1,,,,,,,,,,,,,,,,,,,,,,,,,,,,,,,,,,,,,,,,,,,,,,65,151831,19,Female,1,2024/02/19_08:48:19,YZ,None,
,,,,,,calibration,0,23,2,500,9,X,1,left,0.3571166979963891,1,0,,,,,,,,,,,,,,,,,,,,,1,,,,,,,,,,,,,,,,,,,,,,,,,,,,,,,,,,,,,,,,,,,,,,65,151831,19,Female,1,2024/02/19_08:48:19,YZ,None,
,,,,,,calibration,0,23,2,500,10,Q,0,right,0.3528526709997095,1,0,,,,,,,,,,,,,,,,,,,,,1,,,,,,,,,,,,,,,,,,,,,,,,,,,,,,,,,,,,,,,,,,,,,,65,151831,19,Female,1,2024/02/19_08:48:19,YZ,None,
,,,,,,calibration,0,23,2,500,11,F,0,left,0.6323662690119818,0,0,,,,,,,,,,,,,,,,,,,,,1,,,,,,,,,,,,,,,,,,,,,,,,,,,,,,,,,,,,,,,,,,,,,,65,151831,19,Female,1,2024/02/19_08:48:19,YZ,None,
,,,,,,calibration,0,23,2,500,12,X,0,right,0.4056924209871795,1,0,,,,,,,,,,,,,,,,,,,,,1,,,,,,,,,,,,,,,,,,,,,,,,,,,,,,,,,,,,,,,,,,,,,,65,151831,19,Female,1,2024/02/19_08:48:19,YZ,None,
,,,,,,calibration,0,23,2,500,13,J,0,left,0.4640638710116036,0,0,,,,,,,,,,,,,,,,,,,,,1,,,,,,,,,,,,,,,,,,,,,,,,,,,,,,,,,,,,,,,,,,,,,,65,151831,19,Female,1,2024/02/19_08:48:19,YZ,None,
,,,,,,calibration,0,23,2,500,14,X,1,left,0.9919564689917024,1,0,,,,,,,,,,,,,,,,,,,,,1,,,,,,,,,,,,,,,,,,,,,,,,,,,,,,,,,,,,,,,,,,,,,,65,151831,19,Female,1,2024/02/19_08:48:19,YZ,None,
,,,,,,calibration,0,23,2,500,15,S,0,right,0.7973653490189463,1,0,,,,,,,,,,,,,,,,,,,,,1,,,,,,,,,,,,,,,,,,,,,,,,,,,,,,,,,,,,,,,,,,,,,,65,151831,19,Female,1,2024/02/19_08:48:19,YZ,None,
,,,,,,calibration,0,23,2,500,16,J,0,left,0.9153967309975997,0,0,,,,,,,,,,,,,,,,,,,,,1,,,,,,,,,,,,,,,,,,,,,,,,,,,,,,,,,,,,,,,,,,,,,,65,151831,19,Female,1,2024/02/19_08:48:19,YZ,None,
,,,,,,calibration,0,23,2,500,,,,,,,,0.7291666666666667,0.75,0.4166666666666667,0.5833333333333334,0.0,0.5833333333333333,0.5725044597493252,3,5,0,0,0,7,10,4,12,0,,,,1,,,,,,,,,,,,,,,,,,,,,,,,,,,,,,,,,,,,,,,,,,,,,,65,151831,19,Female,1,2024/02/19_08:48:19,YZ,None,
,,,,,,Calibration,0,,2,500,,,,,,,,,,,,,,,,,,,,,,,,,15,,,1,,,,,,,,,,,,,,,,,,,,,,,,,,,,,,,,,,,,,,,,,,,,,,65,151831,19,Female,1,2024/02/19_08:48:19,YZ,None,
,,,,,,calibration,0,1,2,583,1,Q,0,right,0.42116542800795287,1,0,,,,,,,,,,,,,,,,,,,,,1,,,,,,,,,,,,,,,,,,,,,,,,,,,,,,,,,,,,,,,,,,,,,,65,151831,19,Female,1,2024/02/19_08:48:19,YZ,None,
,,,,,,calibration,0,1,2,583,2,V,0,right,0.35141619699425064,1,0,,,,,,,,,,,,,,,,,,,,,1,,,,,,,,,,,,,,,,,,,,,,,,,,,,,,,,,,,,,,,,,,,,,,65,151831,19,Female,1,2024/02/19_08:48:19,YZ,None,
,,,,,,calibration,0,1,2,583,3,Q,1,left,0.3250516719999723,1,0,,,,,,,,,,,,,,,,,,,,,1,,,,,,,,,,,,,,,,,,,,,,,,,,,,,,,,,,,,,,,,,,,,,,65,151831,19,Female,1,2024/02/19_08:48:19,YZ,None,
,,,,,,calibration,0,1,2,583,4,N,0,right,0.4596477489976678,1,0,,,,,,,,,,,,,,,,,,,,,1,,,,,,,,,,,,,,,,,,,,,,,,,,,,,,,,,,,,,,,,,,,,,,65,151831,19,Female,1,2024/02/19_08:48:19,YZ,None,
,,,,,,calibration,0,1,2,583,5,J,0,left,0.6985107180080377,0,0,,,,,,,,,,,,,,,,,,,,,1,,,,,,,,,,,,,,,,,,,,,,,,,,,,,,,,,,,,,,,,,,,,,,65,151831,19,Female,1,2024/02/19_08:48:19,YZ,None,
,,,,,,calibration,0,1,2,583,6,S,0,right,0.5801434809982311,1,0,,,,,,,,,,,,,,,,,,,,,1,,,,,,,,,,,,,,,,,,,,,,,,,,,,,,,,,,,,,,,,,,,,,,65,151831,19,Female,1,2024/02/19_08:48:19,YZ,None,
,,,,,,calibration,0,1,2,583,7,N,0,left,0.8303191130107734,0,0,,,,,,,,,,,,,,,,,,,,,1,,,,,,,,,,,,,,,,,,,,,,,,,,,,,,,,,,,,,,,,,,,,,,65,151831,19,Female,1,2024/02/19_08:48:19,YZ,None,
,,,,,,calibration,0,1,2,583,8,F,0,right,0.631735431990819,1,0,,,,,,,,,,,,,,,,,,,,,1,,,,,,,,,,,,,,,,,,,,,,,,,,,,,,,,,,,,,,,,,,,,,,65,151831,19,Female,1,2024/02/19_08:48:19,YZ,None,
,,,,,,calibration,0,1,2,583,9,N,1,right,0.5742275770171545,0,0,,,,,,,,,,,,,,,,,,,,,1,,,,,,,,,,,,,,,,,,,,,,,,,,,,,,,,,,,,,,,,,,,,,,65,151831,19,Female,1,2024/02/19_08:48:19,YZ,None,
,,,,,,calibration,0,1,2,583,10,C,0,right,0.4512606129865162,1,0,,,,,,,,,,,,,,,,,,,,,1,,,,,,,,,,,,,,,,,,,,,,,,,,,,,,,,,,,,,,,,,,,,,,65,151831,19,Female,1,2024/02/19_08:48:19,YZ,None,
,,,,,,calibration,0,1,2,583,11,N,1,right,0.5568043839884922,0,0,,,,,,,,,,,,,,,,,,,,,1,,,,,,,,,,,,,,,,,,,,,,,,,,,,,,,,,,,,,,,,,,,,,,65,151831,19,Female,1,2024/02/19_08:48:19,YZ,None,
,,,,,,calibration,0,1,2,583,12,C,1,right,0.35259251401294023,0,0,,,,,,,,,,,,,,,,,,,,,1,,,,,,,,,,,,,,,,,,,,,,,,,,,,,,,,,,,,,,,,,,,,,,65,151831,19,Female,1,2024/02/19_08:48:19,YZ,None,
,,,,,,calibration,0,1,2,583,13,V,0,left,0.36043170001357794,0,0,,,,,,,,,,,,,,,,,,,,,1,,,,,,,,,,,,,,,,,,,,,,,,,,,,,,,,,,,,,,,,,,,,,,65,151831,19,Female,1,2024/02/19_08:48:19,YZ,None,
,,,,,,calibration,0,1,2,583,14,N,0,left,0.5403485629940405,0,0,,,,,,,,,,,,,,,,,,,,,1,,,,,,,,,,,,,,,,,,,,,,,,,,,,,,,,,,,,,,,,,,,,,,65,151831,19,Female,1,2024/02/19_08:48:19,YZ,None,
,,,,,,calibration,0,1,2,583,15,F,0,right,0.670644944999367,1,0,,,,,,,,,,,,,,,,,,,,,1,,,,,,,,,,,,,,,,,,,,,,,,,,,,,,,,,,,,,,,,,,,,,,65,151831,19,Female,1,2024/02/19_08:48:19,YZ,None,
,,,,,,calibration,0,1,2,583,,,,,,,,0.04971590909090909,0.25,0.36363636363636365,0.6363636363636364,0.0,0.6363636363636364,0.5202866724013195,1,4,0,0,0,7,8,4,11,0,,,,1,,,,,,,,,,,,,,,,,,,,,,,,,,,,,,,,,,,,,,,,,,,,,,65,151831,19,Female,1,2024/02/19_08:48:19,YZ,None,
,,,,,,Calibration,0,,2,583,,,,,,,,,,,,,,,,,,,,,,,,,16,,,1,,,,,,,,,,,,,,,,,,,,,,,,,,,,,,,,,,,,,,,,,,,,,,65,151831,19,Female,1,2024/02/19_08:48:19,YZ,None,
,,,,,,calibration,0,2,2,679,1,C,0,right,0.3617311120033264,1,0,,,,,,,,,,,,,,,,,,,,,1,,,,,,,,,,,,,,,,,,,,,,,,,,,,,,,,,,,,,,,,,,,,,,65,151831,19,Female,1,2024/02/19_08:48:19,YZ,None,
,,,,,,calibration,0,2,2,679,2,S,0,right,0.36406390101183206,1,0,,,,,,,,,,,,,,,,,,,,,1,,,,,,,,,,,,,,,,,,,,,,,,,,,,,,,,,,,,,,,,,,,,,,65,151831,19,Female,1,2024/02/19_08:48:19,YZ,None,
,,,,,,calibration,0,2,2,679,3,F,0,right,0.4483697800023947,1,0,,,,,,,,,,,,,,,,,,,,,1,,,,,,,,,,,,,,,,,,,,,,,,,,,,,,,,,,,,,,,,,,,,,,65,151831,19,Female,1,2024/02/19_08:48:19,YZ,None,
,,,,,,calibration,0,2,2,679,4,S,1,left,0.5635983270185534,1,0,,,,,,,,,,,,,,,,,,,,,1,,,,,,,,,,,,,,,,,,,,,,,,,,,,,,,,,,,,,,,,,,,,,,65,151831,19,Female,1,2024/02/19_08:48:19,YZ,None,
,,,,,,calibration,0,2,2,679,5,X,0,right,0.5481123299978208,1,0,,,,,,,,,,,,,,,,,,,,,1,,,,,,,,,,,,,,,,,,,,,,,,,,,,,,,,,,,,,,,,,,,,,,65,151831,19,Female,1,2024/02/19_08:48:19,YZ,None,
,,,,,,calibration,0,2,2,679,6,S,1,right,0.5810611449996941,0,0,,,,,,,,,,,,,,,,,,,,,1,,,,,,,,,,,,,,,,,,,,,,,,,,,,,,,,,,,,,,,,,,,,,,65,151831,19,Female,1,2024/02/19_08:48:19,YZ,None,
,,,,,,calibration,0,2,2,679,7,C,0,right,0.5573352100036573,1,0,,,,,,,,,,,,,,,,,,,,,1,,,,,,,,,,,,,,,,,,,,,,,,,,,,,,,,,,,,,,,,,,,,,,65,151831,19,Female,1,2024/02/19_08:48:19,YZ,None,
,,,,,,calibration,0,2,2,679,8,N,0,left,0.7768897319911048,0,0,,,,,,,,,,,,,,,,,,,,,1,,,,,,,,,,,,,,,,,,,,,,,,,,,,,,,,,,,,,,,,,,,,,,65,151831,19,Female,1,2024/02/19_08:48:19,YZ,None,
,,,,,,calibration,0,2,2,679,9,C,1,right,0.33657134798704647,0,0,,,,,,,,,,,,,,,,,,,,,1,,,,,,,,,,,,,,,,,,,,,,,,,,,,,,,,,,,,,,,,,,,,,,65,151831,19,Female,1,2024/02/19_08:48:19,YZ,None,
,,,,,,calibration,0,2,2,679,10,F,0,left,0.6332978280261159,0,0,,,,,,,,,,,,,,,,,,,,,1,,,,,,,,,,,,,,,,,,,,,,,,,,,,,,,,,,,,,,,,,,,,,,65,151831,19,Female,1,2024/02/19_08:48:19,YZ,None,
,,,,,,calibration,0,2,2,679,11,N,0,left,0.6073367520002648,0,0,,,,,,,,,,,,,,,,,,,,,1,,,,,,,,,,,,,,,,,,,,,,,,,,,,,,,,,,,,,,,,,,,,,,65,151831,19,Female,1,2024/02/19_08:48:19,YZ,None,
,,,,,,calibration,0,2,2,679,12,Q,0,right,0.5185585480066948,1,0,,,,,,,,,,,,,,,,,,,,,1,,,,,,,,,,,,,,,,,,,,,,,,,,,,,,,,,,,,,,,,,,,,,,65,151831,19,Female,1,2024/02/19_08:48:19,YZ,None,
,,,,,,calibration,0,2,2,679,13,F,0,left,0.4268275480135344,0,0,,,,,,,,,,,,,,,,,,,,,1,,,,,,,,,,,,,,,,,,,,,,,,,,,,,,,,,,,,,,,,,,,,,,65,151831,19,Female,1,2024/02/19_08:48:19,YZ,None,
,,,,,,calibration,0,2,2,679,14,Q,1,right,0.46716986200772226,0,0,,,,,,,,,,,,,,,,,,,,,1,,,,,,,,,,,,,,,,,,,,,,,,,,,,,,,,,,,,,,,,,,,,,,65,151831,19,Female,1,2024/02/19_08:48:19,YZ,None,
,,,,,,calibration,0,2,2,679,,,,,,,,0.056249999999999994,0.25,0.4,0.6,0.0,0.6,0.5136373873621258,1,4,0,0,0,6,7,4,10,0,,,,1,,,,,,,,,,,,,,,,,,,,,,,,,,,,,,,,,,,,,,,,,,,,,,65,151831,19,Female,1,2024/02/19_08:48:19,YZ,None,
,,,,,,Calibration,0,,2,679,,,,,,,,,,,,,,,,,,,,,,,,,17,,,1,,,,,,,,,,,,,,,,,,,,,,,,,,,,,,,,,,,,,,,,,,,,,,65,151831,19,Female,1,2024/02/19_08:48:19,YZ,None,
,,,,,,calibration,0,22,2,788,1,V,0,right,0.3568651080131531,1,0,,,,,,,,,,,,,,,,,,,,,1,,,,,,,,,,,,,,,,,,,,,,,,,,,,,,,,,,,,,,,,,,,,,,65,151831,19,Female,1,2024/02/19_08:48:19,YZ,None,
,,,,,,calibration,0,22,2,788,2,Q,0,left,0.24717716500163078,0,0,,,,,,,,,,,,,,,,,,,,,1,,,,,,,,,,,,,,,,,,,,,,,,,,,,,,,,,,,,,,,,,,,,,,65,151831,19,Female,1,2024/02/19_08:48:19,YZ,None,
,,,,,,calibration,0,22,2,788,3,F,0,right,0.2600371319858823,1,0,,,,,,,,,,,,,,,,,,,,,1,,,,,,,,,,,,,,,,,,,,,,,,,,,,,,,,,,,,,,,,,,,,,,65,151831,19,Female,1,2024/02/19_08:48:19,YZ,None,
,,,,,,calibration,0,22,2,788,4,N,0,left,1.0661184419877827,0,0,,,,,,,,,,,,,,,,,,,,,1,,,,,,,,,,,,,,,,,,,,,,,,,,,,,,,,,,,,,,,,,,,,,,65,151831,19,Female,1,2024/02/19_08:48:19,YZ,None,
,,,,,,calibration,0,22,2,788,5,C,0,right,0.8303746390156448,1,0,,,,,,,,,,,,,,,,,,,,,1,,,,,,,,,,,,,,,,,,,,,,,,,,,,,,,,,,,,,,,,,,,,,,65,151831,19,Female,1,2024/02/19_08:48:19,YZ,None,
,,,,,,calibration,0,22,2,788,6,V,0,right,0.9073058269859757,1,0,,,,,,,,,,,,,,,,,,,,,1,,,,,,,,,,,,,,,,,,,,,,,,,,,,,,,,,,,,,,,,,,,,,,65,151831,19,Female,1,2024/02/19_08:48:19,YZ,None,
,,,,,,calibration,0,22,2,788,7,C,1,left,0.6399242129991762,1,0,,,,,,,,,,,,,,,,,,,,,1,,,,,,,,,,,,,,,,,,,,,,,,,,,,,,,,,,,,,,,,,,,,,,65,151831,19,Female,1,2024/02/19_08:48:19,YZ,None,
,,,,,,calibration,0,22,2,788,8,X,0,right,0.48247616400476545,1,0,,,,,,,,,,,,,,,,,,,,,1,,,,,,,,,,,,,,,,,,,,,,,,,,,,,,,,,,,,,,,,,,,,,,65,151831,19,Female,1,2024/02/19_08:48:19,YZ,None,
,,,,,,calibration,0,22,2,788,9,C,1,left,0.5248118930030614,1,0,,,,,,,,,,,,,,,,,,,,,1,,,,,,,,,,,,,,,,,,,,,,,,,,,,,,,,,,,,,,,,,,,,,,65,151831,19,Female,1,2024/02/19_08:48:19,YZ,None,
,,,,,,calibration,0,22,2,788,10,S,0,right,0.588251292007044,1,0,,,,,,,,,,,,,,,,,,,,,1,,,,,,,,,,,,,,,,,,,,,,,,,,,,,,,,,,,,,,,,,,,,,,65,151831,19,Female,1,2024/02/19_08:48:19,YZ,None,
,,,,,,calibration,0,22,2,788,11,C,1,left,0.5733344379987102,1,0,,,,,,,,,,,,,,,,,,,,,1,,,,,,,,,,,,,,,,,,,,,,,,,,,,,,,,,,,,,,,,,,,,,,65,151831,19,Female,1,2024/02/19_08:48:19,YZ,None,
,,,,,,calibration,0,22,2,788,12,S,1,right,0.9747189150075428,0,0,,,,,,,,,,,,,,,,,,,,,1,,,,,,,,,,,,,,,,,,,,,,,,,,,,,,,,,,,,,,,,,,,,,,65,151831,19,Female,1,2024/02/19_08:48:19,YZ,None,
,,,,,,calibration,0,22,2,788,13,Q,0,left,0.5125737669877708,0,0,,,,,,,,,,,,,,,,,,,,,1,,,,,,,,,,,,,,,,,,,,,,,,,,,,,,,,,,,,,,,,,,,,,,65,151831,19,Female,1,2024/02/19_08:48:19,YZ,None,
,,,,,,calibration,0,22,2,788,,,,,,,,0.7708333333333333,0.75,0.3333333333333333,0.6666666666666666,0.0,0.6666666666666667,0.6126129996152415,3,3,0,0,0,6,9,4,9,0,,,,1,,,,,,,,,,,,,,,,,,,,,,,,,,,,,,,,,,,,,,,,,,,,,,65,151831,19,Female,1,2024/02/19_08:48:19,YZ,None,
,,,,,,Calibration,0,,2,788,,,,,,,,,,,,,,,,,,,,,,,,,18,,,1,,,,,,,,,,,,,,,,,,,,,,,,,,,,,,,,,,,,,,,,,,,,,,65,151831,19,Female,1,2024/02/19_08:48:19,YZ,None,
,,,,,,CALIBRATION,0,,,,,,,,,,,,,,,,,,,,,,,,,,,,18,0.7708333333333333,788,1,,,,,,,,,,,,,,,,,,,,,,,,,,,,,,,,,,,,,,,,,,,,,,65,151831,19,Female,1,2024/02/19_08:48:19,YZ,None,
1,./instructions/inst_prac_1/Slide24.png,right,10.267969813983655,533.5378018880147,543.8057717019983,,,,,,,,,,,,,,,,,,,,,,,,,,,,,,,,,1,,,,,,,,,,,,,,,,,,,,,,,,,,,,,,,,,,,,,,,,,,,,,,65,151831,19,Female,1,2024/02/19_08:48:19,YZ,None,
2,./instructions/inst_prac_1/Slide25.png,right,2.2846775029902346,543.8330786550068,546.1177561579971,,,,,,,,,,,,,,,,,,,,,,,,,,,,,,,,,1,,,,,,,,,,,,,,,,,,,,,,,,,,,,,,,,,,,,,,,,,,,,,,65,151831,19,Female,1,2024/02/19_08:48:19,YZ,None,
3,./instructions/inst_prac_1/Slide26.png,right,1.2258048279909417,546.1479854630015,547.3737902909925,,,,,,,,,,,,,,,,,,,,,,,,,,,,,,,,,1,,,,,,,,,,,,,,,,,,,,,,,,,,,,,,,,,,,,,,,,,,,,,,65,151831,19,Female,1,2024/02/19_08:48:19,YZ,None,
4,./instructions/inst_prac_1/Slide27.png,right,0.8680961499921978,547.4017679840035,548.2698641339957,,,,,,,,,,,,,,,,,,,,,,,,,,,,,,,,,1,,,,,,,,,,,,,,,,,,,,,,,,,,,,,,,,,,,,,,,,,,,,,,65,151831,19,Female,1,2024/02/19_08:48:19,YZ,None,
5,./instructions/inst_prac_1/Slide28.png,right,1.1202686720062047,548.2934793829918,549.413748054998,,,,,,,,,,,,,,,,,,,,,,,,,,,,,,,,,1,,,,,,,,,,,,,,,,,,,,,,,,,,,,,,,,,,,,,,,,,,,,,,65,151831,19,Female,1,2024/02/19_08:48:19,YZ,None,
6,./instructions/inst_prac_1/Slide29.png,right,4.2175681439985055,549.4442884350137,553.6618565790122,,,,,,,,,,,,,,,,,,,,,,,,,,,,,,,,,1,,,,,,,,,,,,,,,,,,,,,,,,,,,,,,,,,,,,,,,,,,,,,,65,151831,19,Female,1,2024/02/19_08:48:19,YZ,None,
7,./instructions/inst_prac_1/Slide30.png,right,2.0519322420004755,553.6897757129918,555.7417079549923,,,,,,,,,,,,,,,,,,,,,,,,,,,,,,,,,1,,,,,,,,,,,,,,,,,,,,,,,,,,,,,,,,,,,,,,,,,,,,,,65,151831,19,Female,1,2024/02/19_08:48:19,YZ,None,
,,,,,,practice,0,33,1,1250,1,V,0,right,1.6664028700033668,1,0,,,,,,,,,,,,,,,,,,,,,1,,,,,,,,,,,,,,,,,,,,,,,,,,,,,,,,,,,,,,,,,,,,,,65,151831,19,Female,1,2024/02/19_08:48:19,YZ,None,
,,,,,,practice,0,33,1,1250,2,F,0,right,0.8712587500049267,1,0,,,,,,,,,,,,,,,,,,,,,1,,,,,,,,,,,,,,,,,,,,,,,,,,,,,,,,,,,,,,,,,,,,,,65,151831,19,Female,1,2024/02/19_08:48:19,YZ,None,
,,,,,,practice,0,33,1,1250,3,C,0,right,0.8329033500049263,1,0,,,,,,,,,,,,,,,,,,,,,1,,,,,,,,,,,,,,,,,,,,,,,,,,,,,,,,,,,,,,,,,,,,,,65,151831,19,Female,1,2024/02/19_08:48:19,YZ,None,
,,,,,,practice,0,33,1,1250,4,C,1,left,0.6687359240022488,1,0,,,,,,,,,,,,,,,,,,,,,1,,,,,,,,,,,,,,,,,,,,,,,,,,,,,,,,,,,,,,,,,,,,,,65,151831,19,Female,1,2024/02/19_08:48:19,YZ,None,
,,,,,,practice,0,33,1,1250,5,N,0,right,0.9984358669898938,1,0,,,,,,,,,,,,,,,,,,,,,1,,,,,,,,,,,,,,,,,,,,,,,,,,,,,,,,,,,,,,,,,,,,,,65,151831,19,Female,1,2024/02/19_08:48:19,YZ,None,
,,,,,,practice,0,33,1,1250,6,N,1,left,0.9711542699951679,1,0,,,,,,,,,,,,,,,,,,,,,1,,,,,,,,,,,,,,,,,,,,,,,,,,,,,,,,,,,,,,,,,,,,,,65,151831,19,Female,1,2024/02/19_08:48:19,YZ,None,
,,,,,,practice,0,33,1,1250,7,C,0,right,0.920370734995231,1,0,,,,,,,,,,,,,,,,,,,,,1,,,,,,,,,,,,,,,,,,,,,,,,,,,,,,,,,,,,,,,,,,,,,,65,151831,19,Female,1,2024/02/19_08:48:19,YZ,None,
,,,,,,practice,0,33,1,1250,8,F,0,right,0.8563454860122874,1,0,,,,,,,,,,,,,,,,,,,,,1,,,,,,,,,,,,,,,,,,,,,,,,,,,,,,,,,,,,,,,,,,,,,,65,151831,19,Female,1,2024/02/19_08:48:19,YZ,None,
,,,,,,practice,0,33,1,1250,9,S,0,right,1.6219948119833134,1,0,,,,,,,,,,,,,,,,,,,,,1,,,,,,,,,,,,,,,,,,,,,,,,,,,,,,,,,,,,,,,,,,,,,,65,151831,19,Female,1,2024/02/19_08:48:19,YZ,None,
,,,,,,practice,0,33,1,1250,10,S,1,left,0.723303799983114,1,0,,,,,,,,,,,,,,,,,,,,,1,,,,,,,,,,,,,,,,,,,,,,,,,,,,,,,,,,,,,,,,,,,,,,65,151831,19,Female,1,2024/02/19_08:48:19,YZ,None,
,,,,,,practice,0,33,1,1250,,,,,,,,1.0,1.0,0.0,1.0,0.0,1.0,1.0130905863974475,3,0,0,0,0,7,10,3,7,0,,,,1,,,,,,,,,,,,,,,,,,,,,,,,,,,,,,,,,,,,,,,,,,,,,,65,151831,19,Female,1,2024/02/19_08:48:19,YZ,None,
1,./instructions/inst_prac_1_next/Slide35.png,right,2.2564044289756566,576.4214131490153,578.6778175779909,,,,,,,,,,,,,,,,,,,,,,,,,,,,,,,,,1,,,,,,,,,,,,,,,,,,,,,,,,,,,,,,,,,,,,,,,,,,,,,,65,151831,19,Female,1,2024/02/19_08:48:19,YZ,None,
,,,,,,practice,0,12,1,788,1,Q,0,right,1.4036525419796817,1,0,,,,,,,,,,,,,,,,,,,,,1,,,,,,,,,,,,,,,,,,,,,,,,,,,,,,,,,,,,,,,,,,,,,,65,151831,19,Female,1,2024/02/19_08:48:19,YZ,None,
,,,,,,practice,0,12,1,788,2,N,0,right,0.6545049650012515,1,0,,,,,,,,,,,,,,,,,,,,,1,,,,,,,,,,,,,,,,,,,,,,,,,,,,,,,,,,,,,,,,,,,,,,65,151831,19,Female,1,2024/02/19_08:48:19,YZ,None,
,,,,,,practice,0,12,1,788,3,N,1,left,0.48903297499055043,1,0,,,,,,,,,,,,,,,,,,,,,1,,,,,,,,,,,,,,,,,,,,,,,,,,,,,,,,,,,,,,,,,,,,,,65,151831,19,Female,1,2024/02/19_08:48:19,YZ,None,
,,,,,,practice,0,12,1,788,4,F,0,right,0.48923290098900907,1,0,,,,,,,,,,,,,,,,,,,,,1,,,,,,,,,,,,,,,,,,,,,,,,,,,,,,,,,,,,,,,,,,,,,,65,151831,19,Female,1,2024/02/19_08:48:19,YZ,None,
,,,,,,practice,0,12,1,788,5,F,1,left,0.4569902239891235,1,0,,,,,,,,,,,,,,,,,,,,,1,,,,,,,,,,,,,,,,,,,,,,,,,,,,,,,,,,,,,,,,,,,,,,65,151831,19,Female,1,2024/02/19_08:48:19,YZ,None,
,,,,,,practice,0,12,1,788,6,N,0,right,0.6567101730033755,1,0,,,,,,,,,,,,,,,,,,,,,1,,,,,,,,,,,,,,,,,,,,,,,,,,,,,,,,,,,,,,,,,,,,,,65,151831,19,Female,1,2024/02/19_08:48:19,YZ,None,
,,,,,,practice,0,12,1,788,7,F,0,right,0.9634719580062665,1,0,,,,,,,,,,,,,,,,,,,,,1,,,,,,,,,,,,,,,,,,,,,,,,,,,,,,,,,,,,,,,,,,,,,,65,151831,19,Female,1,2024/02/19_08:48:19,YZ,None,
,,,,,,practice,0,12,1,788,8,J,0,right,0.5403007440036163,1,0,,,,,,,,,,,,,,,,,,,,,1,,,,,,,,,,,,,,,,,,,,,,,,,,,,,,,,,,,,,,,,,,,,,,65,151831,19,Female,1,2024/02/19_08:48:19,YZ,None,
,,,,,,practice,0,12,1,788,9,X,0,right,0.6601716410077643,1,0,,,,,,,,,,,,,,,,,,,,,1,,,,,,,,,,,,,,,,,,,,,,,,,,,,,,,,,,,,,,,,,,,,,,65,151831,19,Female,1,2024/02/19_08:48:19,YZ,None,
,,,,,,practice,0,12,1,788,10,X,1,left,0.5717501899925992,1,0,,,,,,,,,,,,,,,,,,,,,1,,,,,,,,,,,,,,,,,,,,,,,,,,,,,,,,,,,,,,,,,,,,,,65,151831,19,Female,1,2024/02/19_08:48:19,YZ,None,
,,,,,,practice,0,12,1,788,11,V,0,right,0.5883942389918957,1,0,,,,,,,,,,,,,,,,,,,,,1,,,,,,,,,,,,,,,,,,,,,,,,,,,,,,,,,,,,,,,,,,,,,,65,151831,19,Female,1,2024/02/19_08:48:19,YZ,None,
,,,,,,practice,0,12,1,788,12,X,0,right,0.7492214380181395,1,0,,,,,,,,,,,,,,,,,,,,,1,,,,,,,,,,,,,,,,,,,,,,,,,,,,,,,,,,,,,,,,,,,,,,65,151831,19,Female,1,2024/02/19_08:48:19,YZ,None,
,,,,,,practice,0,12,1,788,13,X,1,left,0.35869781399378553,1,0,,,,,,,,,,,,,,,,,,,,,1,,,,,,,,,,,,,,,,,,,,,,,,,,,,,,,,,,,,,,,,,,,,,,65,151831,19,Female,1,2024/02/19_08:48:19,YZ,None,
,,,,,,practice,0,12,1,788,,,,,,,,1.0,1.0,0.0,1.0,0.0,1.0,0.660163984920543,4,0,0,0,0,9,13,4,9,0,,,,1,,,,,,,,,,,,,,,,,,,,,,,,,,,,,,,,,,,,,,,,,,,,,,65,151831,19,Female,1,2024/02/19_08:48:19,YZ,None,
,,,,,,practice,0,17,1,788,1,F,0,right,0.7374211690039374,1,0,,,,,,,,,,,,,,,,,,,,,1,,,,,,,,,,,,,,,,,,,,,,,,,,,,,,,,,,,,,,,,,,,,,,65,151831,19,Female,1,2024/02/19_08:48:19,YZ,None,
,,,,,,practice,0,17,1,788,2,F,1,left,0.41208154702326283,1,0,,,,,,,,,,,,,,,,,,,,,1,,,,,,,,,,,,,,,,,,,,,,,,,,,,,,,,,,,,,,,,,,,,,,65,151831,19,Female,1,2024/02/19_08:48:19,YZ,None,
,,,,,,practice,0,17,1,788,3,S,0,right,0.39731765500619076,1,0,,,,,,,,,,,,,,,,,,,,,1,,,,,,,,,,,,,,,,,,,,,,,,,,,,,,,,,,,,,,,,,,,,,,65,151831,19,Female,1,2024/02/19_08:48:19,YZ,None,
,,,,,,practice,0,17,1,788,4,C,0,right,0.415332339995075,1,0,,,,,,,,,,,,,,,,,,,,,1,,,,,,,,,,,,,,,,,,,,,,,,,,,,,,,,,,,,,,,,,,,,,,65,151831,19,Female,1,2024/02/19_08:48:19,YZ,None,
,,,,,,practice,0,17,1,788,5,S,0,left,0.5560641709889751,0,0,,,,,,,,,,,,,,,,,,,,,1,,,,,,,,,,,,,,,,,,,,,,,,,,,,,,,,,,,,,,,,,,,,,,65,151831,19,Female,1,2024/02/19_08:48:19,YZ,None,
,,,,,,practice,0,17,1,788,6,F,0,right,0.8456188389973249,1,0,,,,,,,,,,,,,,,,,,,,,1,,,,,,,,,,,,,,,,,,,,,,,,,,,,,,,,,,,,,,,,,,,,,,65,151831,19,Female,1,2024/02/19_08:48:19,YZ,None,
,,,,,,practice,0,17,1,788,7,X,0,right,0.6005507530062459,1,0,,,,,,,,,,,,,,,,,,,,,1,,,,,,,,,,,,,,,,,,,,,,,,,,,,,,,,,,,,,,,,,,,,,,65,151831,19,Female,1,2024/02/19_08:48:19,YZ,None,
,,,,,,practice,0,17,1,788,8,X,1,left,0.379863870999543,1,0,,,,,,,,,,,,,,,,,,,,,1,,,,,,,,,,,,,,,,,,,,,,,,,,,,,,,,,,,,,,,,,,,,,,65,151831,19,Female,1,2024/02/19_08:48:19,YZ,None,
,,,,,,practice,0,17,1,788,9,N,0,right,0.6061554810148664,1,0,,,,,,,,,,,,,,,,,,,,,1,,,,,,,,,,,,,,,,,,,,,,,,,,,,,,,,,,,,,,,,,,,,,,65,151831,19,Female,1,2024/02/19_08:48:19,YZ,None,
,,,,,,practice,0,17,1,788,10,N,1,left,0.4054085850075353,1,0,,,,,,,,,,,,,,,,,,,,,1,,,,,,,,,,,,,,,,,,,,,,,,,,,,,,,,,,,,,,,,,,,,,,65,151831,19,Female,1,2024/02/19_08:48:19,YZ,None,
,,,,,,practice,0,17,1,788,11,X,0,right,0.45980726499692537,1,0,,,,,,,,,,,,,,,,,,,,,1,,,,,,,,,,,,,,,,,,,,,,,,,,,,,,,,,,,,,,,,,,,,,,65,151831,19,Female,1,2024/02/19_08:48:19,YZ,None,
,,,,,,practice,0,17,1,788,12,X,1,left,0.6415674999880139,1,0,,,,,,,,,,,,,,,,,,,,,1,,,,,,,,,,,,,,,,,,,,,,,,,,,,,,,,,,,,,,,,,,,,,,65,151831,19,Female,1,2024/02/19_08:48:19,YZ,None,
,,,,,,practice,0,17,1,788,13,V,0,right,0.5804318209993653,1,0,,,,,,,,,,,,,,,,,,,,,1,,,,,,,,,,,,,,,,,,,,,,,,,,,,,,,,,,,,,,,,,,,,,,65,151831,19,Female,1,2024/02/19_08:48:19,YZ,None,
,,,,,,practice,0,17,1,788,,,,,,,,0.9722222222222222,1.0,0.1111111111111111,0.8888888888888888,0.0,0.8888888888888888,0.5413554613097893,4,1,0,0,0,8,12,4,9,0,,,,1,,,,,,,,,,,,,,,,,,,,,,,,,,,,,,,,,,,,,,,,,,,,,,65,151831,19,Female,1,2024/02/19_08:48:19,YZ,None,
1,./instructions/inst_prac_3/Slide37.png,right,4.770874517009361,612.0270497399906,616.797924257,,,,,,,,,,,,,,,,,,,,,,,,,,,,,,,,,1,,,,,,,,,,,,,,,,,,,,,,,,,,,,,,,,,,,,,,,,,,,,,,65,151831,19,Female,1,2024/02/19_08:48:19,YZ,None,
2,./instructions/inst_prac_3/Slide38.png,right,5.137265937984921,616.8282710300118,621.9655369679967,,,,,,,,,,,,,,,,,,,,,,,,,,,,,,,,,1,,,,,,,,,,,,,,,,,,,,,,,,,,,,,,,,,,,,,,,,,,,,,,65,151831,19,Female,1,2024/02/19_08:48:19,YZ,None,
3,./instructions/inst_prac_3/Slide39.png,right,1.3853192279930227,621.996668562002,623.381987789995,,,,,,,,,,,,,,,,,,,,,,,,,,,,,,,,,1,,,,,,,,,,,,,,,,,,,,,,,,,,,,,,,,,,,,,,,,,,,,,,65,151831,19,Female,1,2024/02/19_08:48:19,YZ,None,
4,./instructions/inst_prac_3/Slide40.png,right,1.6011341319826897,623.4126855340146,625.0138196659973,,,,,,,,,,,,,,,,,,,,,,,,,,,,,,,,,1,,,,,,,,,,,,,,,,,,,,,,,,,,,,,,,,,,,,,,,,,,,,,,65,151831,19,Female,1,2024/02/19_08:48:19,YZ,None,
5,./instructions/inst_prac_3/Slide41.png,right,1.9484390490106307,625.0413857279927,626.9898247770034,,,,,,,,,,,,,,,,,,,,,,,,,,,,,,,,,1,,,,,,,,,,,,,,,,,,,,,,,,,,,,,,,,,,,,,,,,,,,,,,65,151831,19,Female,1,2024/02/19_08:48:19,YZ,None,
6,./instructions/inst_prac_3/Slide42.png,right,0.20036895698285662,627.0201846350101,627.2205535919929,,,,,,,,,,,,,,,,,,,,,,,,,,,,,,,,,1,,,,,,,,,,,,,,,,,,,,,,,,,,,,,,,,,,,,,,,,,,,,,,65,151831,19,Female,1,2024/02/19_08:48:19,YZ,None,
7,./instructions/inst_prac_3/Slide43.png,right,1.3852253100194503,627.2445372359944,628.6297625460138,,,,,,,,,,,,,,,,,,,,,,,,,,,,,,,,,1,,,,,,,,,,,,,,,,,,,,,,,,,,,,,,,,,,,,,,,,,,,,,,65,151831,19,Female,1,2024/02/19_08:48:19,YZ,None,
8,./instructions/inst_prac_3/Slide44.png,right,1.2983190289814956,628.6594643180142,629.9577833469957,,,,,,,,,,,,,,,,,,,,,,,,,,,,,,,,,1,,,,,,,,,,,,,,,,,,,,,,,,,,,,,,,,,,,,,,,,,,,,,,65,151831,19,Female,1,2024/02/19_08:48:19,YZ,None,
,,,,,,practice,0,23,3,788,1,S,0,right,1.3537458989885636,1,0,,,,,,,,,,,,,,,,,,,,,1,,,,,,,,,,,,,,,,,,,,,,,,,,,,,,,,,,,,,,,,,,,,,,65,151831,19,Female,1,2024/02/19_08:48:19,YZ,None,
,,,,,,practice,0,23,3,788,2,F,0,right,0.79943865200039,1,0,,,,,,,,,,,,,,,,,,,,,1,,,,,,,,,,,,,,,,,,,,,,,,,,,,,,,,,,,,,,,,,,,,,,65,151831,19,Female,1,2024/02/19_08:48:19,YZ,None,
,,,,,,practice,0,23,3,788,3,V,0,right,2.7010886750067584,1,0,,,,,,,,,,,,,,,,,,,,,1,,,,,,,,,,,,,,,,,,,,,,,,,,,,,,,,,,,,,,,,,,,,,,65,151831,19,Female,1,2024/02/19_08:48:19,YZ,None,
,,,,,,practice,0,23,3,788,4,S,1,left,3.427781356993364,1,0,,,,,,,,,,,,,,,,,,,,,1,,,,,,,,,,,,,,,,,,,,,,,,,,,,,,,,,,,,,,,,,,,,,,65,151831,19,Female,1,2024/02/19_08:48:19,YZ,None,
,,,,,,practice,0,23,3,788,5,X,0,right,4.066907642001752,1,0,,,,,,,,,,,,,,,,,,,,,1,,,,,,,,,,,,,,,,,,,,,,,,,,,,,,,,,,,,,,,,,,,,,,65,151831,19,Female,1,2024/02/19_08:48:19,YZ,None,
,,,,,,practice,0,23,3,788,6,C,0,right,2.363547582004685,1,0,,,,,,,,,,,,,,,,,,,,,1,,,,,,,,,,,,,,,,,,,,,,,,,,,,,,,,,,,,,,,,,,,,,,65,151831,19,Female,1,2024/02/19_08:48:19,YZ,None,
,,,,,,practice,0,23,3,788,7,S,1,left,0.9453019569918979,1,0,,,,,,,,,,,,,,,,,,,,,1,,,,,,,,,,,,,,,,,,,,,,,,,,,,,,,,,,,,,,,,,,,,,,65,151831,19,Female,1,2024/02/19_08:48:19,YZ,None,
,,,,,,practice,0,23,3,788,8,X,1,left,0.9476665849797428,1,0,,,,,,,,,,,,,,,,,,,,,1,,,,,,,,,,,,,,,,,,,,,,,,,,,,,,,,,,,,,,,,,,,,,,65,151831,19,Female,1,2024/02/19_08:48:19,YZ,None,
,,,,,,practice,0,23,3,788,9,X,0,right,0.9952930700092111,1,0,,,,,,,,,,,,,,,,,,,,,1,,,,,,,,,,,,,,,,,,,,,,,,,,,,,,,,,,,,,,,,,,,,,,65,151831,19,Female,1,2024/02/19_08:48:19,YZ,None,
,,,,,,practice,0,23,3,788,10,N,0,right,1.1103400439897086,1,0,,,,,,,,,,,,,,,,,,,,,1,,,,,,,,,,,,,,,,,,,,,,,,,,,,,,,,,,,,,,,,,,,,,,65,151831,19,Female,1,2024/02/19_08:48:19,YZ,None,
,,,,,,practice,0,23,3,788,11,X,1,left,0.8283389559946954,1,0,,,,,,,,,,,,,,,,,,,,,1,,,,,,,,,,,,,,,,,,,,,,,,,,,,,,,,,,,,,,,,,,,,,,65,151831,19,Female,1,2024/02/19_08:48:19,YZ,None,
,,,,,,practice,0,23,3,788,12,N,0,right,1.075033422006527,1,0,,,,,,,,,,,,,,,,,,,,,1,,,,,,,,,,,,,,,,,,,,,,,,,,,,,,,,,,,,,,,,,,,,,,65,151831,19,Female,1,2024/02/19_08:48:19,YZ,None,
,,,,,,practice,0,23,3,788,13,C,0,right,1.462104463018477,1,0,,,,,,,,,,,,,,,,,,,,,1,,,,,,,,,,,,,,,,,,,,,,,,,,,,,,,,,,,,,,,,,,,,,,65,151831,19,Female,1,2024/02/19_08:48:19,YZ,None,
,,,,,,practice,0,23,3,788,,,,,,,,1.0,1.0,0.0,1.0,0.0,1.0,1.698199100306598,4,0,0,0,0,9,13,4,9,0,,,,1,,,,,,,,,,,,,,,,,,,,,,,,,,,,,,,,,,,,,,,,,,,,,,65,151831,19,Female,1,2024/02/19_08:48:19,YZ,None,
1,./instructions/inst_prac_3_next/Slide49.png,right,2.3247864580189344,665.7531045209907,668.0778909790097,,,,,,,,,,,,,,,,,,,,,,,,,,,,,,,,,1,,,,,,,,,,,,,,,,,,,,,,,,,,,,,,,,,,,,,,,,,,,,,,65,151831,19,Female,1,2024/02/19_08:48:19,YZ,None,
,,,,,,practice,0,17,3,788,1,Q,0,right,3.659142562013585,1,0,,,,,,,,,,,,,,,,,,,,,1,,,,,,,,,,,,,,,,,,,,,,,,,,,,,,,,,,,,,,,,,,,,,,65,151831,19,Female,1,2024/02/19_08:48:19,YZ,None,
,,,,,,practice,0,17,3,788,2,N,0,right,1.977269572991645,1,0,,,,,,,,,,,,,,,,,,,,,1,,,,,,,,,,,,,,,,,,,,,,,,,,,,,,,,,,,,,,,,,,,,,,65,151831,19,Female,1,2024/02/19_08:48:19,YZ,None,
,,,,,,practice,0,17,3,788,3,X,0,right,1.6278505509835668,1,0,,,,,,,,,,,,,,,,,,,,,1,,,,,,,,,,,,,,,,,,,,,,,,,,,,,,,,,,,,,,,,,,,,,,65,151831,19,Female,1,2024/02/19_08:48:19,YZ,None,
,,,,,,practice,0,17,3,788,4,Q,1,left,0.7717141180182807,1,0,,,,,,,,,,,,,,,,,,,,,1,,,,,,,,,,,,,,,,,,,,,,,,,,,,,,,,,,,,,,,,,,,,,,65,151831,19,Female,1,2024/02/19_08:48:19,YZ,None,
,,,,,,practice,0,17,3,788,5,S,0,right,3.679449683986604,1,0,,,,,,,,,,,,,,,,,,,,,1,,,,,,,,,,,,,,,,,,,,,,,,,,,,,,,,,,,,,,,,,,,,,,65,151831,19,Female,1,2024/02/19_08:48:19,YZ,None,
,,,,,,practice,0,17,3,788,6,V,0,right,1.5395915560075082,1,0,,,,,,,,,,,,,,,,,,,,,1,,,,,,,,,,,,,,,,,,,,,,,,,,,,,,,,,,,,,,,,,,,,,,65,151831,19,Female,1,2024/02/19_08:48:19,YZ,None,
,,,,,,practice,0,17,3,788,7,Q,1,right,1.823992519028252,0,0,,,,,,,,,,,,,,,,,,,,,1,,,,,,,,,,,,,,,,,,,,,,,,,,,,,,,,,,,,,,,,,,,,,,65,151831,19,Female,1,2024/02/19_08:48:19,YZ,None,
,,,,,,practice,0,17,3,788,8,C,0,right,1.6317716090125032,1,0,,,,,,,,,,,,,,,,,,,,,1,,,,,,,,,,,,,,,,,,,,,,,,,,,,,,,,,,,,,,,,,,,,,,65,151831,19,Female,1,2024/02/19_08:48:19,YZ,None,
,,,,,,practice,0,17,3,788,9,V,1,right,0.9606132449989673,0,0,,,,,,,,,,,,,,,,,,,,,1,,,,,,,,,,,,,,,,,,,,,,,,,,,,,,,,,,,,,,,,,,,,,,65,151831,19,Female,1,2024/02/19_08:48:19,YZ,None,
,,,,,,practice,0,17,3,788,10,X,0,left,0.5509414469997864,0,0,,,,,,,,,,,,,,,,,,,,,1,,,,,,,,,,,,,,,,,,,,,,,,,,,,,,,,,,,,,,,,,,,,,,65,151831,19,Female,1,2024/02/19_08:48:19,YZ,None,
,,,,,,practice,0,17,3,788,11,Q,0,right,0.9882032859895844,1,0,,,,,,,,,,,,,,,,,,,,,1,,,,,,,,,,,,,,,,,,,,,,,,,,,,,,,,,,,,,,,,,,,,,,65,151831,19,Female,1,2024/02/19_08:48:19,YZ,None,
,,,,,,practice,0,17,3,788,12,N,0,right,0.6762861759925727,1,0,,,,,,,,,,,,,,,,,,,,,1,,,,,,,,,,,,,,,,,,,,,,,,,,,,,,,,,,,,,,,,,,,,,,65,151831,19,Female,1,2024/02/19_08:48:19,YZ,None,
,,,,,,practice,0,17,3,788,13,X,1,left,0.7159124480094761,1,0,,,,,,,,,,,,,,,,,,,,,1,,,,,,,,,,,,,,,,,,,,,,,,,,,,,,,,,,,,,,,,,,,,,,65,151831,19,Female,1,2024/02/19_08:48:19,YZ,None,
,,,,,,practice,0,17,3,788,,,,,,,,0.7916666666666666,0.5,0.1111111111111111,0.8888888888888888,0.0,0.8888888888888888,1.5848260595409487,2,1,0,0,0,8,10,4,9,0,,,,1,,,,,,,,,,,,,,,,,,,,,,,,,,,,,,,,,,,,,,,,,,,,,,65,151831,19,Female,1,2024/02/19_08:48:19,YZ,None,
,,,,,,practice,0,7,3,788,1,X,0,right,0.8775523420190439,1,0,,,,,,,,,,,,,,,,,,,,,1,,,,,,,,,,,,,,,,,,,,,,,,,,,,,,,,,,,,,,,,,,,,,,65,151831,19,Female,1,2024/02/19_08:48:19,YZ,None,
,,,,,,practice,0,7,3,788,2,N,0,right,1.224498698982643,1,0,,,,,,,,,,,,,,,,,,,,,1,,,,,,,,,,,,,,,,,,,,,,,,,,,,,,,,,,,,,,,,,,,,,,65,151831,19,Female,1,2024/02/19_08:48:19,YZ,None,
,,,,,,practice,0,7,3,788,3,X,0,right,1.3195554770063609,1,0,,,,,,,,,,,,,,,,,,,,,1,,,,,,,,,,,,,,,,,,,,,,,,,,,,,,,,,,,,,,,,,,,,,,65,151831,19,Female,1,2024/02/19_08:48:19,YZ,None,
,,,,,,practice,0,7,3,788,4,C,0,right,0.940595216001384,1,0,,,,,,,,,,,,,,,,,,,,,1,,,,,,,,,,,,,,,,,,,,,,,,,,,,,,,,,,,,,,,,,,,,,,65,151831,19,Female,1,2024/02/19_08:48:19,YZ,None,
,,,,,,practice,0,7,3,788,5,S,0,left,1.3562716350133996,0,0,,,,,,,,,,,,,,,,,,,,,1,,,,,,,,,,,,,,,,,,,,,,,,,,,,,,,,,,,,,,,,,,,,,,65,151831,19,Female,1,2024/02/19_08:48:19,YZ,None,
,,,,,,practice,0,7,3,788,6,S,0,right,1.9910180270089768,1,0,,,,,,,,,,,,,,,,,,,,,1,,,,,,,,,,,,,,,,,,,,,,,,,,,,,,,,,,,,,,,,,,,,,,65,151831,19,Female,1,2024/02/19_08:48:19,YZ,None,
,,,,,,practice,0,7,3,788,7,C,1,left,0.9440461169870105,1,0,,,,,,,,,,,,,,,,,,,,,1,,,,,,,,,,,,,,,,,,,,,,,,,,,,,,,,,,,,,,,,,,,,,,65,151831,19,Female,1,2024/02/19_08:48:19,YZ,None,
,,,,,,practice,0,7,3,788,8,Q,0,left,1.6915254080086015,0,0,,,,,,,,,,,,,,,,,,,,,1,,,,,,,,,,,,,,,,,,,,,,,,,,,,,,,,,,,,,,,,,,,,,,65,151831,19,Female,1,2024/02/19_08:48:19,YZ,None,
,,,,,,practice,0,7,3,788,9,S,1,right,0.7532524530251976,0,0,,,,,,,,,,,,,,,,,,,,,1,,,,,,,,,,,,,,,,,,,,,,,,,,,,,,,,,,,,,,,,,,,,,,65,151831,19,Female,1,2024/02/19_08:48:19,YZ,None,
,,,,,,practice,0,7,3,788,10,Q,0,right,1.1622197320102714,1,0,,,,,,,,,,,,,,,,,,,,,1,,,,,,,,,,,,,,,,,,,,,,,,,,,,,,,,,,,,,,,,,,,,,,65,151831,19,Female,1,2024/02/19_08:48:19,YZ,None,
,,,,,,practice,0,7,3,788,11,Q,1,right,1.0247322670184076,0,0,,,,,,,,,,,,,,,,,,,,,1,,,,,,,,,,,,,,,,,,,,,,,,,,,,,,,,,,,,,,,,,,,,,,65,151831,19,Female,1,2024/02/19_08:48:19,YZ,None,
,,,,,,practice,0,7,3,788,12,V,0,left,0.8652975519944448,0,0,,,,,,,,,,,,,,,,,,,,,1,,,,,,,,,,,,,,,,,,,,,,,,,,,,,,,,,,,,,,,,,,,,,,65,151831,19,Female,1,2024/02/19_08:48:19,YZ,None,
,,,,,,practice,0,7,3,788,13,Q,1,right,0.5685357640031725,0,0,,,,,,,,,,,,,,,,,,,,,1,,,,,,,,,,,,,,,,,,,,,,,,,,,,,,,,,,,,,,,,,,,,,,65,151831,19,Female,1,2024/02/19_08:48:19,YZ,None,
,,,,,,practice,0,7,3,788,,,,,,,,0.041666666666666685,0.25,0.3333333333333333,0.6666666666666666,0.0,0.6666666666666667,1.132238514544532,1,3,0,0,0,6,7,4,9,0,,,,1,,,,,,,,,,,,,,,,,,,,,,,,,,,,,,,,,,,,,,,,,,,,,,65,151831,19,Female,1,2024/02/19_08:48:19,YZ,None,
1,./instructions/inst_redo_3/Slide47.png,right,16.40925552500994,719.6446316039946,736.0538871290046,,,,,,,,,,,,,,,,,,,,,,,,,,,,,,,,,1,,,,,,,,,,,,,,,,,,,,,,,,,,,,,,,,,,,,,,,,,,,,,,65,151831,19,Female,1,2024/02/19_08:48:19,YZ,None,
,,,,,,practice,0,25,3,788,1,C,0,right,4.520430534001207,1,0,,,,,,,,,,,,,,,,,,,,,1,,,,,,,,,,,,,,,,,,,,,,,,,,,,,,,,,,,,,,,,,,,,,,65,151831,19,Female,1,2024/02/19_08:48:19,YZ,None,
,,,,,,practice,0,25,3,788,2,Q,0,right,1.880911821994232,1,0,,,,,,,,,,,,,,,,,,,,,1,,,,,,,,,,,,,,,,,,,,,,,,,,,,,,,,,,,,,,,,,,,,,,65,151831,19,Female,1,2024/02/19_08:48:19,YZ,None,
,,,,,,practice,0,25,3,788,3,S,0,right,2.2155998229864053,1,0,,,,,,,,,,,,,,,,,,,,,1,,,,,,,,,,,,,,,,,,,,,,,,,,,,,,,,,,,,,,,,,,,,,,65,151831,19,Female,1,2024/02/19_08:48:19,YZ,None,
,,,,,,practice,0,25,3,788,4,F,0,right,1.8753314490022603,1,0,,,,,,,,,,,,,,,,,,,,,1,,,,,,,,,,,,,,,,,,,,,,,,,,,,,,,,,,,,,,,,,,,,,,65,151831,19,Female,1,2024/02/19_08:48:19,YZ,None,
,,,,,,practice,0,25,3,788,5,Q,1,left,2.0758133530034684,1,0,,,,,,,,,,,,,,,,,,,,,1,,,,,,,,,,,,,,,,,,,,,,,,,,,,,,,,,,,,,,,,,,,,,,65,151831,19,Female,1,2024/02/19_08:48:19,YZ,None,
,,,,,,practice,0,25,3,788,6,S,1,left,1.2598807009926531,1,0,,,,,,,,,,,,,,,,,,,,,1,,,,,,,,,,,,,,,,,,,,,,,,,,,,,,,,,,,,,,,,,,,,,,65,151831,19,Female,1,2024/02/19_08:48:19,YZ,None,
,,,,,,practice,0,25,3,788,7,J,0,right,2.0976588240009733,1,0,,,,,,,,,,,,,,,,,,,,,1,,,,,,,,,,,,,,,,,,,,,,,,,,,,,,,,,,,,,,,,,,,,,,65,151831,19,Female,1,2024/02/19_08:48:19,YZ,None,
,,,,,,practice,0,25,3,788,8,Q,1,left,6.209199086995795,1,0,,,,,,,,,,,,,,,,,,,,,1,,,,,,,,,,,,,,,,,,,,,,,,,,,,,,,,,,,,,,,,,,,,,,65,151831,19,Female,1,2024/02/19_08:48:19,YZ,None,
,,,,,,practice,0,25,3,788,9,X,0,right,1.7471722199989017,1,0,,,,,,,,,,,,,,,,,,,,,1,,,,,,,,,,,,,,,,,,,,,,,,,,,,,,,,,,,,,,,,,,,,,,65,151831,19,Female,1,2024/02/19_08:48:19,YZ,None,
,,,,,,practice,0,25,3,788,10,J,1,left,2.616135699005099,1,0,,,,,,,,,,,,,,,,,,,,,1,,,,,,,,,,,,,,,,,,,,,,,,,,,,,,,,,,,,,,,,,,,,,,65,151831,19,Female,1,2024/02/19_08:48:19,YZ,None,
,,,,,,practice,0,25,3,788,11,S,0,right,6.209015497006476,1,0,,,,,,,,,,,,,,,,,,,,,1,,,,,,,,,,,,,,,,,,,,,,,,,,,,,,,,,,,,,,,,,,,,,,65,151831,19,Female,1,2024/02/19_08:48:19,YZ,None,
,,,,,,practice,0,25,3,788,12,V,0,right,3.7520437340135686,1,0,,,,,,,,,,,,,,,,,,,,,1,,,,,,,,,,,,,,,,,,,,,,,,,,,,,,,,,,,,,,,,,,,,,,65,151831,19,Female,1,2024/02/19_08:48:19,YZ,None,
,,,,,,practice,0,25,3,788,13,V,0,right,1.687472429999616,1,0,,,,,,,,,,,,,,,,,,,,,1,,,,,,,,,,,,,,,,,,,,,,,,,,,,,,,,,,,,,,,,,,,,,,65,151831,19,Female,1,2024/02/19_08:48:19,YZ,None,
,,,,,,practice,0,25,3,788,,,,,,,,1.0,1.0,0.0,1.0,0.0,1.0,2.934358859461589,4,0,0,0,0,9,13,4,9,0,,,,1,,,,,,,,,,,,,,,,,,,,,,,,,,,,,,,,,,,,,,,,,,,,,,65,151831,19,Female,1,2024/02/19_08:48:19,YZ,None,
1,./instructions/inst_prac_main/Slide51.png,right,2.5831039110198617,783.6146137719916,786.1977176830114,,,,,,,,,,,,,,,,,,,,,,,,,,,,,,,,,1,,,,,,,,,,,,,,,,,,,,,,,,,,,,,,,,,,,,,,,,,,,,,,65,151831,19,Female,1,2024/02/19_08:48:19,YZ,None,
2,./instructions/inst_prac_main/Slide52.png,right,39.23402842300129,786.2358766210091,825.4699050440104,,,,,,,,,,,,,,,,,,,,,,,,,,,,,,,,,1,,,,,,,,,,,,,,,,,,,,,,,,,,,,,,,,,,,,,,,,,,,,,,65,151831,19,Female,1,2024/02/19_08:48:19,YZ,None,
3,./instructions/inst_prac_main/Slide53.png,right,6.058199651015457,825.5156301789975,831.573829830013,,,,,,,,,,,,,,,,,,,,,,,,,,,,,,,,,1,,,,,,,,,,,,,,,,,,,,,,,,,,,,,,,,,,,,,,,,,,,,,,65,151831,19,Female,1,2024/02/19_08:48:19,YZ,None,
4,./instructions/inst_prac_main/Slide54.png,right,10.877470014005667,831.6161994510039,842.4936694650096,,,,,,,,,,,,,,,,,,,,,,,,,,,,,,,,,1,,,,,,,,,,,,,,,,,,,,,,,,,,,,,,,,,,,,,,,,,,,,,,65,151831,19,Female,1,2024/02/19_08:48:19,YZ,None,
,,,,,,practice_main,0,1,1,788,1,N,0,right,1.0973860860103741,1,0,,,,,,,,,,,,,,,,,,,,,1,,,,,,,,,,,,,,,,,,,,,,,,,,,,,,,,,,,,,,,,,,,,,,65,151831,19,Female,1,2024/02/19_08:48:19,YZ,None,
,,,,,,practice_main,0,1,1,788,2,Q,0,right,0.5313779669813812,1,0,,,,,,,,,,,,,,,,,,,,,1,,,,,,,,,,,,,,,,,,,,,,,,,,,,,,,,,,,,,,,,,,,,,,65,151831,19,Female,1,2024/02/19_08:48:19,YZ,None,
,,,,,,practice_main,0,1,1,788,3,C,0,right,0.4681879789859522,1,0,,,,,,,,,,,,,,,,,,,,,1,,,,,,,,,,,,,,,,,,,,,,,,,,,,,,,,,,,,,,,,,,,,,,65,151831,19,Female,1,2024/02/19_08:48:19,YZ,None,
,,,,,,practice_main,0,1,1,788,4,Q,0,left,0.7303606589848641,0,0,,,,,,,,,,,,,,,,,,,,,1,,,,,,,,,,,,,,,,,,,,,,,,,,,,,,,,,,,,,,,,,,,,,,65,151831,19,Female,1,2024/02/19_08:48:19,YZ,None,
,,,,,,practice_main,0,1,1,788,5,Q,1,left,0.6376527709944639,1,0,,,,,,,,,,,,,,,,,,,,,1,,,,,,,,,,,,,,,,,,,,,,,,,,,,,,,,,,,,,,,,,,,,,,65,151831,19,Female,1,2024/02/19_08:48:19,YZ,None,
,,,,,,practice_main,0,1,1,788,6,C,0,right,0.28712511400226504,1,0,,,,,,,,,,,,,,,,,,,,,1,,,,,,,,,,,,,,,,,,,,,,,,,,,,,,,,,,,,,,,,,,,,,,65,151831,19,Female,1,2024/02/19_08:48:19,YZ,None,
,,,,,,practice_main,0,1,1,788,7,C,1,left,0.49566110799787566,1,0,,,,,,,,,,,,,,,,,,,,,1,,,,,,,,,,,,,,,,,,,,,,,,,,,,,,,,,,,,,,,,,,,,,,65,151831,19,Female,1,2024/02/19_08:48:19,YZ,None,
,,,,,,practice_main,0,1,1,788,8,J,0,right,0.4831715299806092,1,0,,,,,,,,,,,,,,,,,,,,,1,,,,,,,,,,,,,,,,,,,,,,,,,,,,,,,,,,,,,,,,,,,,,,65,151831,19,Female,1,2024/02/19_08:48:19,YZ,None,
,,,,,,practice_main,0,1,1,788,9,J,1,left,0.448522905993741,1,0,,,,,,,,,,,,,,,,,,,,,1,,,,,,,,,,,,,,,,,,,,,,,,,,,,,,,,,,,,,,,,,,,,,,65,151831,19,Female,1,2024/02/19_08:48:19,YZ,None,
,,,,,,practice_main,0,1,1,788,10,X,0,right,0.5403958810202312,1,0,,,,,,,,,,,,,,,,,,,,,1,,,,,,,,,,,,,,,,,,,,,,,,,,,,,,,,,,,,,,,,,,,,,,65,151831,19,Female,1,2024/02/19_08:48:19,YZ,None,
,,,,,,practice_main,0,1,1,788,11,V,0,right,0.49484317100723274,1,0,,,,,,,,,,,,,,,,,,,,,1,,,,,,,,,,,,,,,,,,,,,,,,,,,,,,,,,,,,,,,,,,,,,,65,151831,19,Female,1,2024/02/19_08:48:19,YZ,None,
,,,,,,practice_main,0,1,1,788,12,V,1,left,0.3622749010100961,1,0,,,,,,,,,,,,,,,,,,,,,1,,,,,,,,,,,,,,,,,,,,,,,,,,,,,,,,,,,,,,,,,,,,,,65,151831,19,Female,1,2024/02/19_08:48:19,YZ,None,
,,,,,,practice_main,0,1,1,788,13,C,0,right,0.46278121799696237,1,0,,,,,,,,,,,,,,,,,,,,,1,,,,,,,,,,,,,,,,,,,,,,,,,,,,,,,,,,,,,,,,,,,,,,65,151831,19,Female,1,2024/02/19_08:48:19,YZ,None,
,,,,,,practice_main,0,1,1,788,,,,,,,,0.9722222222222222,1.0,0.1111111111111111,0.8888888888888888,0.0,0.8888888888888888,0.5415185608435422,4,1,0,0,0,8,12,4,9,0,,,,1,,,,,,,,,,,,,,,,,,,,,,,,,,,,,,,,,,,,,,,,,,,,,,65,151831,19,Female,1,2024/02/19_08:48:19,YZ,None,
,,,,,240219_131100,PRACTICE,0,1,1,788,,,,,,,,,,,,,,,,,,,,,,,,,,,,1,28,2,1,cue1.png,easy,A,27,1.0117205450078472,0,853.6677976360079,854.6994584200147,,,,,,,,,,,,,,,,,,,,,,,,,,,,,,,,,,,65,151831,19,Female,1,2024/02/19_08:48:19,YZ,None,
,,,,,,practice_main,0,2,3,788,1,C,0,left,1.9301256269973237,0,0,,,,,,,,,,,,,,,,,,,,,1,,,,,,,,,,,,,,,,,,,,,,,,,,,,,,,,,,,,,,,,,,,,,,65,151831,19,Female,1,2024/02/19_08:48:19,YZ,None,
,,,,,,practice_main,0,2,3,788,2,J,0,right,0.9504302539862692,1,0,,,,,,,,,,,,,,,,,,,,,1,,,,,,,,,,,,,,,,,,,,,,,,,,,,,,,,,,,,,,,,,,,,,,65,151831,19,Female,1,2024/02/19_08:48:19,YZ,None,
,,,,,,practice_main,0,2,3,788,3,J,0,right,0.6503413260215893,1,0,,,,,,,,,,,,,,,,,,,,,1,,,,,,,,,,,,,,,,,,,,,,,,,,,,,,,,,,,,,,,,,,,,,,65,151831,19,Female,1,2024/02/19_08:48:19,YZ,None,
,,,,,,practice_main,0,2,3,788,4,S,0,right,0.5838316309964284,1,0,,,,,,,,,,,,,,,,,,,,,1,,,,,,,,,,,,,,,,,,,,,,,,,,,,,,,,,,,,,,,,,,,,,,65,151831,19,Female,1,2024/02/19_08:48:19,YZ,None,
,,,,,,practice_main,0,2,3,788,5,Q,0,right,0.8220465519989375,1,0,,,,,,,,,,,,,,,,,,,,,1,,,,,,,,,,,,,,,,,,,,,,,,,,,,,,,,,,,,,,,,,,,,,,65,151831,19,Female,1,2024/02/19_08:48:19,YZ,None,
,,,,,,practice_main,0,2,3,788,6,V,0,right,0.5563053350197151,1,0,,,,,,,,,,,,,,,,,,,,,1,,,,,,,,,,,,,,,,,,,,,,,,,,,,,,,,,,,,,,,,,,,,,,65,151831,19,Female,1,2024/02/19_08:48:19,YZ,None,
,,,,,,practice_main,0,2,3,788,7,S,1,left,0.6909150010033045,1,0,,,,,,,,,,,,,,,,,,,,,1,,,,,,,,,,,,,,,,,,,,,,,,,,,,,,,,,,,,,,,,,,,,,,65,151831,19,Female,1,2024/02/19_08:48:19,YZ,None,
,,,,,,practice_main,0,2,3,788,8,Q,1,right,0.687054445996182,0,0,,,,,,,,,,,,,,,,,,,,,1,,,,,,,,,,,,,,,,,,,,,,,,,,,,,,,,,,,,,,,,,,,,,,65,151831,19,Female,1,2024/02/19_08:48:19,YZ,None,
,,,,,,practice_main,0,2,3,788,9,N,0,right,0.6856781909882557,1,0,,,,,,,,,,,,,,,,,,,,,1,,,,,,,,,,,,,,,,,,,,,,,,,,,,,,,,,,,,,,,,,,,,,,65,151831,19,Female,1,2024/02/19_08:48:19,YZ,None,
,,,,,,practice_main,0,2,3,788,10,V,0,left,0.5965459689905401,0,0,,,,,,,,,,,,,,,,,,,,,1,,,,,,,,,,,,,,,,,,,,,,,,,,,,,,,,,,,,,,,,,,,,,,65,151831,19,Female,1,2024/02/19_08:48:19,YZ,None,
,,,,,,practice_main,0,2,3,788,11,N,0,right,0.4263678440183867,1,0,,,,,,,,,,,,,,,,,,,,,1,,,,,,,,,,,,,,,,,,,,,,,,,,,,,,,,,,,,,,,,,,,,,,65,151831,19,Female,1,2024/02/19_08:48:19,YZ,None,
,,,,,,practice_main,0,2,3,788,12,N,1,right,0.5643940959998872,0,0,,,,,,,,,,,,,,,,,,,,,1,,,,,,,,,,,,,,,,,,,,,,,,,,,,,,,,,,,,,,,,,,,,,,65,151831,19,Female,1,2024/02/19_08:48:19,YZ,None,
,,,,,,practice_main,0,2,3,788,13,V,1,left,0.524068172002444,1,0,,,,,,,,,,,,,,,,,,,,,1,,,,,,,,,,,,,,,,,,,,,,,,,,,,,,,,,,,,,,,,,,,,,,65,151831,19,Female,1,2024/02/19_08:48:19,YZ,None,
,,,,,,practice_main,0,2,3,788,,,,,,,,0.7083333333333333,0.5,0.2222222222222222,0.7777777777777778,0.0,0.7777777777777778,0.7437003418476357,2,2,0,0,0,7,9,4,9,0,,,,1,,,,,,,,,,,,,,,,,,,,,,,,,,,,,,,,,,,,,,,,,,,,,,65,151831,19,Female,1,2024/02/19_08:48:19,YZ,None,
,,,,,240219_131127,PRACTICE,0,2,3,788,,,,,,,,,,,,,,,,,,,,,,,,,,,,1,19,3,2,cue2.png,hard,A,39,1.1640674860100262,0,877.7272433929902,878.9038304520072,,,,,,,,,,,,,,,,,,,,,,,,,,,,,,,,,,,65,151831,19,Female,1,2024/02/19_08:48:19,YZ,None,
,,,,,,practice_main,0,3,3,788,1,J,0,right,1.0596082709962502,1,0,,,,,,,,,,,,,,,,,,,,,1,,,,,,,,,,,,,,,,,,,,,,,,,,,,,,,,,,,,,,,,,,,,,,65,151831,19,Female,1,2024/02/19_08:48:19,YZ,None,
,,,,,,practice_main,0,3,3,788,2,C,0,right,0.5344354730041232,1,0,,,,,,,,,,,,,,,,,,,,,1,,,,,,,,,,,,,,,,,,,,,,,,,,,,,,,,,,,,,,,,,,,,,,65,151831,19,Female,1,2024/02/19_08:48:19,YZ,None,
,,,,,,practice_main,0,3,3,788,3,X,0,right,0.4458085740043316,1,0,,,,,,,,,,,,,,,,,,,,,1,,,,,,,,,,,,,,,,,,,,,,,,,,,,,,,,,,,,,,,,,,,,,,65,151831,19,Female,1,2024/02/19_08:48:19,YZ,None,
,,,,,,practice_main,0,3,3,788,4,Q,0,right,0.5940169969981071,1,0,,,,,,,,,,,,,,,,,,,,,1,,,,,,,,,,,,,,,,,,,,,,,,,,,,,,,,,,,,,,,,,,,,,,65,151831,19,Female,1,2024/02/19_08:48:19,YZ,None,
,,,,,,practice_main,0,3,3,788,5,N,0,right,0.5273228879959788,1,0,,,,,,,,,,,,,,,,,,,,,1,,,,,,,,,,,,,,,,,,,,,,,,,,,,,,,,,,,,,,,,,,,,,,65,151831,19,Female,1,2024/02/19_08:48:19,YZ,None,
,,,,,,practice_main,0,3,3,788,6,X,1,left,0.5581955689995084,1,0,,,,,,,,,,,,,,,,,,,,,1,,,,,,,,,,,,,,,,,,,,,,,,,,,,,,,,,,,,,,,,,,,,,,65,151831,19,Female,1,2024/02/19_08:48:19,YZ,None,
,,,,,,practice_main,0,3,3,788,7,Q,1,right,0.46479066798929125,0,0,,,,,,,,,,,,,,,,,,,,,1,,,,,,,,,,,,,,,,,,,,,,,,,,,,,,,,,,,,,,,,,,,,,,65,151831,19,Female,1,2024/02/19_08:48:19,YZ,None,
,,,,,,practice_main,0,3,3,788,8,V,0,right,0.7427601589879487,1,0,,,,,,,,,,,,,,,,,,,,,1,,,,,,,,,,,,,,,,,,,,,,,,,,,,,,,,,,,,,,,,,,,,,,65,151831,19,Female,1,2024/02/19_08:48:19,YZ,None,
,,,,,,practice_main,0,3,3,788,9,Q,0,left,0.5553984399884939,0,0,,,,,,,,,,,,,,,,,,,,,1,,,,,,,,,,,,,,,,,,,,,,,,,,,,,,,,,,,,,,,,,,,,,,65,151831,19,Female,1,2024/02/19_08:48:19,YZ,None,
,,,,,,practice_main,0,3,3,788,10,F,0,right,0.41147704800823703,1,0,,,,,,,,,,,,,,,,,,,,,1,,,,,,,,,,,,,,,,,,,,,,,,,,,,,,,,,,,,,,,,,,,,,,65,151831,19,Female,1,2024/02/19_08:48:19,YZ,None,
,,,,,,practice_main,0,3,3,788,11,X,0,right,0.5358643179934006,1,0,,,,,,,,,,,,,,,,,,,,,1,,,,,,,,,,,,,,,,,,,,,,,,,,,,,,,,,,,,,,,,,,,,,,65,151831,19,Female,1,2024/02/19_08:48:19,YZ,None,
,,,,,,practice_main,0,3,3,788,12,Q,1,left,0.4568936630093958,1,0,,,,,,,,,,,,,,,,,,,,,1,,,,,,,,,,,,,,,,,,,,,,,,,,,,,,,,,,,,,,,,,,,,,,65,151831,19,Female,1,2024/02/19_08:48:19,YZ,None,
,,,,,,practice_main,0,3,3,788,13,F,1,left,0.8066822759865317,1,0,,,,,,,,,,,,,,,,,,,,,1,,,,,,,,,,,,,,,,,,,,,,,,,,,,,,,,,,,,,,,,,,,,,,65,151831,19,Female,1,2024/02/19_08:48:19,YZ,None,
,,,,,,practice_main,0,3,3,788,,,,,,,,0.8819444444444444,0.75,0.1111111111111111,0.8888888888888888,0.0,0.8888888888888888,0.5917887956893537,3,1,0,0,0,8,11,4,9,0,,,,1,,,,,,,,,,,,,,,,,,,,,,,,,,,,,,,,,,,,,,,,,,,,,,65,151831,19,Female,1,2024/02/19_08:48:19,YZ,None,
,,,,,240219_131152,PRACTICE,0,3,3,788,,,,,,,,,,,,,,,,,,,,,,,,,,,,1,30,4,3,cue2.png,hard,A,26,0.8392966869869269,0,904.5811573200044,905.4368229690008,,,,,,,,,,,,,,,,,,,,,,,,,,,,,,,,,,,65,151831,19,Female,1,2024/02/19_08:48:19,YZ,None,
1,./instructions/inst_prac_end/Slide56.png,right,8.394478311995044,927.635101605003,936.029579916998,,,,,,,,,,,,,,,,,,,,,,,,,,,,,,,,,1,,,,,,,,,,,,,,,,,,,,,,,,,,,,,,,,,,,,,,,,,,,,,,65,151831,19,Female,1,2024/02/19_08:48:19,YZ,None,
1,./instructions/inst_test/Slide57.png,right,22.829523494001478,936.0642450510059,958.8937685450073,,,,,,,,,,,,,,,,,,,,,,,,,,,,,,,,,1,,,,,,,,,,,,,,,,,,,,,,,,,,,,,,,,,,,,,,,,,,,,,,65,151831,19,Female,1,2024/02/19_08:48:19,YZ,None,
,,,,,,test,1,1,1,788,1,S,0,right,0.3898869550030213,1,0,,,,,,,,,,,,,,,,,,,,,1,,,,,,,,,,,,,,,,,,,,,,,,,,,,,,,,,,,,,,,,,,,,,,65,151831,19,Female,1,2024/02/19_08:48:19,YZ,None,
,,,,,,test,1,1,1,788,2,X,0,right,0.45174790697637945,1,0,,,,,,,,,,,,,,,,,,,,,1,,,,,,,,,,,,,,,,,,,,,,,,,,,,,,,,,,,,,,,,,,,,,,65,151831,19,Female,1,2024/02/19_08:48:19,YZ,None,
,,,,,,test,1,1,1,788,3,X,1,left,0.342897719994653,1,0,,,,,,,,,,,,,,,,,,,,,1,,,,,,,,,,,,,,,,,,,,,,,,,,,,,,,,,,,,,,,,,,,,,,65,151831,19,Female,1,2024/02/19_08:48:19,YZ,None,
,,,,,,test,1,1,1,788,4,S,0,right,0.6327335230016615,1,0,,,,,,,,,,,,,,,,,,,,,1,,,,,,,,,,,,,,,,,,,,,,,,,,,,,,,,,,,,,,,,,,,,,,65,151831,19,Female,1,2024/02/19_08:48:19,YZ,None,
,,,,,,test,1,1,1,788,5,J,0,right,0.6640866280067712,1,0,,,,,,,,,,,,,,,,,,,,,1,,,,,,,,,,,,,,,,,,,,,,,,,,,,,,,,,,,,,,,,,,,,,,65,151831,19,Female,1,2024/02/19_08:48:19,YZ,None,
,,,,,,test,1,1,1,788,6,X,0,right,0.5801127449958585,1,0,,,,,,,,,,,,,,,,,,,,,1,,,,,,,,,,,,,,,,,,,,,,,,,,,,,,,,,,,,,,,,,,,,,,65,151831,19,Female,1,2024/02/19_08:48:19,YZ,None,
,,,,,,test,1,1,1,788,7,X,1,left,0.4810514779819641,1,0,,,,,,,,,,,,,,,,,,,,,1,,,,,,,,,,,,,,,,,,,,,,,,,,,,,,,,,,,,,,,,,,,,,,65,151831,19,Female,1,2024/02/19_08:48:19,YZ,None,
,,,,,,test,1,1,1,788,8,F,0,right,0.42263208801159635,1,0,,,,,,,,,,,,,,,,,,,,,1,,,,,,,,,,,,,,,,,,,,,,,,,,,,,,,,,,,,,,,,,,,,,,65,151831,19,Female,1,2024/02/19_08:48:19,YZ,None,
,,,,,,test,1,1,1,788,9,F,1,left,0.3512846080120653,1,0,,,,,,,,,,,,,,,,,,,,,1,,,,,,,,,,,,,,,,,,,,,,,,,,,,,,,,,,,,,,,,,,,,,,65,151831,19,Female,1,2024/02/19_08:48:19,YZ,None,
,,,,,,test,1,1,1,788,10,N,0,right,0.39547477799351327,1,0,,,,,,,,,,,,,,,,,,,,,1,,,,,,,,,,,,,,,,,,,,,,,,,,,,,,,,,,,,,,,,,,,,,,65,151831,19,Female,1,2024/02/19_08:48:19,YZ,None,
,,,,,,test,1,1,1,788,11,V,0,right,0.407501804002095,1,0,,,,,,,,,,,,,,,,,,,,,1,,,,,,,,,,,,,,,,,,,,,,,,,,,,,,,,,,,,,,,,,,,,,,65,151831,19,Female,1,2024/02/19_08:48:19,YZ,None,
,,,,,,test,1,1,1,788,12,V,1,left,0.3597244109841995,1,0,,,,,,,,,,,,,,,,,,,,,1,,,,,,,,,,,,,,,,,,,,,,,,,,,,,,,,,,,,,,,,,,,,,,65,151831,19,Female,1,2024/02/19_08:48:19,YZ,None,
,,,,,,test,1,1,1,788,13,X,0,right,0.37486294299014844,1,0,,,,,,,,,,,,,,,,,,,,,1,,,,,,,,,,,,,,,,,,,,,,,,,,,,,,,,,,,,,,,,,,,,,,65,151831,19,Female,1,2024/02/19_08:48:19,YZ,None,
,,,,,,Test,1,1,1,788,,,,,,,,1.0,1.0,0.0,1.0,0.0,1.0,0.4503075067656867,4,0,0,0,0,9,13,4,9,0,,,,1,,,,,,,,,,,,,,,,,,,,,,,,,,,,,,,,,,,,,,,,,,,,,,65,151831,19,Female,1,2024/02/19_08:48:19,YZ,None,
,,,,,240219_131249,TEST,1,1,1,788,,,,,,,,,,,,,,,,,,,,,,,,,,,,1,1,1,1,cue1.png,easy,A,62,1.0201417470234446,0,963.9579108399921,964.9961430150142,,,,,,,,,,,,,,,,,,,,,,,,,,,,,,,,,,,65,151831,19,Female,1,2024/02/19_08:48:19,YZ,None,
,,,,,,test,1,2,3,788,1,F,0,right,0.2917639630031772,1,0,,,,,,,,,,,,,,,,,,,,,1,,,,,,,,,,,,,,,,,,,,,,,,,,,,,,,,,,,,,,,,,,,,,,65,151831,19,Female,1,2024/02/19_08:48:19,YZ,None,
,,,,,,test,1,2,3,788,2,S,0,right,0.255833203002112,1,0,,,,,,,,,,,,,,,,,,,,,1,,,,,,,,,,,,,,,,,,,,,,,,,,,,,,,,,,,,,,,,,,,,,,65,151831,19,Female,1,2024/02/19_08:48:19,YZ,None,
,,,,,,test,1,2,3,788,3,J,0,right,0.41621964500518516,1,0,,,,,,,,,,,,,,,,,,,,,1,,,,,,,,,,,,,,,,,,,,,,,,,,,,,,,,,,,,,,,,,,,,,,65,151831,19,Female,1,2024/02/19_08:48:19,YZ,None,
,,,,,,test,1,2,3,788,4,C,0,right,0.3674318929843139,1,0,,,,,,,,,,,,,,,,,,,,,1,,,,,,,,,,,,,,,,,,,,,,,,,,,,,,,,,,,,,,,,,,,,,,65,151831,19,Female,1,2024/02/19_08:48:19,YZ,None,
,,,,,,test,1,2,3,788,5,S,1,left,0.5655464120209217,1,0,,,,,,,,,,,,,,,,,,,,,1,,,,,,,,,,,,,,,,,,,,,,,,,,,,,,,,,,,,,,,,,,,,,,65,151831,19,Female,1,2024/02/19_08:48:19,YZ,None,
,,,,,,test,1,2,3,788,6,N,0,right,0.40649790500174277,1,0,,,,,,,,,,,,,,,,,,,,,1,,,,,,,,,,,,,,,,,,,,,,,,,,,,,,,,,,,,,,,,,,,,,,65,151831,19,Female,1,2024/02/19_08:48:19,YZ,None,
,,,,,,test,1,2,3,788,7,C,1,left,0.5808361450035591,1,0,,,,,,,,,,,,,,,,,,,,,1,,,,,,,,,,,,,,,,,,,,,,,,,,,,,,,,,,,,,,,,,,,,,,65,151831,19,Female,1,2024/02/19_08:48:19,YZ,None,
,,,,,,test,1,2,3,788,8,S,1,left,0.580142077000346,1,0,,,,,,,,,,,,,,,,,,,,,1,,,,,,,,,,,,,,,,,,,,,,,,,,,,,,,,,,,,,,,,,,,,,,65,151831,19,Female,1,2024/02/19_08:48:19,YZ,None,
,,,,,,test,1,2,3,788,9,V,0,right,0.2540621359949,1,0,,,,,,,,,,,,,,,,,,,,,1,,,,,,,,,,,,,,,,,,,,,,,,,,,,,,,,,,,,,,,,,,,,,,65,151831,19,Female,1,2024/02/19_08:48:19,YZ,None,
,,,,,,test,1,2,3,788,10,C,1,right,0.4320495580032002,0,0,,,,,,,,,,,,,,,,,,,,,1,,,,,,,,,,,,,,,,,,,,,,,,,,,,,,,,,,,,,,,,,,,,,,65,151831,19,Female,1,2024/02/19_08:48:19,YZ,None,
,,,,,,test,1,2,3,788,11,J,0,right,0.5847311500110663,1,0,,,,,,,,,,,,,,,,,,,,,1,,,,,,,,,,,,,,,,,,,,,,,,,,,,,,,,,,,,,,,,,,,,,,65,151831,19,Female,1,2024/02/19_08:48:19,YZ,None,
,,,,,,test,1,2,3,788,12,Q,0,left,0.3238133989798371,0,0,,,,,,,,,,,,,,,,,,,,,1,,,,,,,,,,,,,,,,,,,,,,,,,,,,,,,,,,,,,,,,,,,,,,65,151831,19,Female,1,2024/02/19_08:48:19,YZ,None,
,,,,,,test,1,2,3,788,13,Q,0,right,0.6850810449977871,1,0,,,,,,,,,,,,,,,,,,,,,1,,,,,,,,,,,,,,,,,,,,,,,,,,,,,,,,,,,,,,,,,,,,,,65,151831,19,Female,1,2024/02/19_08:48:19,YZ,None,
,,,,,,Test,1,2,3,788,,,,,,,,0.8819444444444444,0.75,0.1111111111111111,0.8888888888888888,0.0,0.8888888888888888,0.4418468100775499,3,1,0,0,0,8,11,4,9,0,,,,1,,,,,,,,,,,,,,,,,,,,,,,,,,,,,,,,,,,,,,,,,,,,,,65,151831,19,Female,1,2024/02/19_08:48:19,YZ,None,
,,,,,240219_131312,TEST,1,2,3,788,,,,,,,,,,,,,,,,,,,,,,,,,,,,1,2,2,2,cue2.png,hard,A,48,0.9170867149950936,0,986.8466361569881,987.7814254589903,,,,,,,,,,,,,,,,,,,,,,,,,,,,,,,,,,,65,151831,19,Female,1,2024/02/19_08:48:19,YZ,None,
,,,,,,test,1,3,1,788,1,X,0,right,0.36046445698593743,1,0,,,,,,,,,,,,,,,,,,,,,1,,,,,,,,,,,,,,,,,,,,,,,,,,,,,,,,,,,,,,,,,,,,,,65,151831,19,Female,1,2024/02/19_08:48:19,YZ,None,
,,,,,,test,1,3,1,788,2,X,1,left,0.31990266701905057,1,0,,,,,,,,,,,,,,,,,,,,,1,,,,,,,,,,,,,,,,,,,,,,,,,,,,,,,,,,,,,,,,,,,,,,65,151831,19,Female,1,2024/02/19_08:48:19,YZ,None,
,,,,,,test,1,3,1,788,3,V,0,right,0.3668252540228423,1,0,,,,,,,,,,,,,,,,,,,,,1,,,,,,,,,,,,,,,,,,,,,,,,,,,,,,,,,,,,,,,,,,,,,,65,151831,19,Female,1,2024/02/19_08:48:19,YZ,None,
,,,,,,test,1,3,1,788,4,J,0,right,0.44973377001588233,1,0,,,,,,,,,,,,,,,,,,,,,1,,,,,,,,,,,,,,,,,,,,,,,,,,,,,,,,,,,,,,,,,,,,,,65,151831,19,Female,1,2024/02/19_08:48:19,YZ,None,
,,,,,,test,1,3,1,788,5,C,0,right,0.44064160200650804,1,0,,,,,,,,,,,,,,,,,,,,,1,,,,,,,,,,,,,,,,,,,,,,,,,,,,,,,,,,,,,,,,,,,,,,65,151831,19,Female,1,2024/02/19_08:48:19,YZ,None,
,,,,,,test,1,3,1,788,6,J,0,right,0.47247978698578663,1,0,,,,,,,,,,,,,,,,,,,,,1,,,,,,,,,,,,,,,,,,,,,,,,,,,,,,,,,,,,,,,,,,,,,,65,151831,19,Female,1,2024/02/19_08:48:19,YZ,None,
,,,,,,test,1,3,1,788,7,J,1,left,0.4874909349891823,1,0,,,,,,,,,,,,,,,,,,,,,1,,,,,,,,,,,,,,,,,,,,,,,,,,,,,,,,,,,,,,,,,,,,,,65,151831,19,Female,1,2024/02/19_08:48:19,YZ,None,
,,,,,,test,1,3,1,788,8,F,0,right,0.43896215900895186,1,0,,,,,,,,,,,,,,,,,,,,,1,,,,,,,,,,,,,,,,,,,,,,,,,,,,,,,,,,,,,,,,,,,,,,65,151831,19,Female,1,2024/02/19_08:48:19,YZ,None,
,,,,,,test,1,3,1,788,9,F,1,left,0.4556571139837615,1,0,,,,,,,,,,,,,,,,,,,,,1,,,,,,,,,,,,,,,,,,,,,,,,,,,,,,,,,,,,,,,,,,,,,,65,151831,19,Female,1,2024/02/19_08:48:19,YZ,None,
