Instruction,Stimulus,Key,RT,START,END,Phase,Block,TrialN,NbackLevel,ISI,LetterN,Letter,Letter_isSame,Letter_Resp,Letter_RT,Letter_Accuracy,Letter_Timeout,Trial_A_measure,Trial_HR,Trial_FAR,Trial_CDR,Trial_MSR,Trial_ACC,Trial_RT,Trial_HitsCount,Trial_FAsCount,Trial_SameNoRespCount,Trial_DiffNoRespCount,Trial_NoRespCount,Trial_CDsCount,Trial_CorrectRespCount,Trial_SameLetterCount,Trial_DiffLetterCount,Trial_InvalidLetterCount,TrialCountCali,CaliEnd_A_measure,ISI_calibrated,Run,TrialIndex,TrialNumber_total,TrialNumber_valid,CueLearning,TrialDemandLearning,CueMapping,OnlineRating,OnlineRatingRT,OnlineRatingTimeOut,CueSTART,RatingSTART,OfflineRatingTimePoint,OfflineRatingQuesIndex,CueFigure,TrialDemand,OfflineRating,OfflineRatingRT,CueStart,OfflineRatingStart,PhaseType,CueLeft,CueDemandLeft,CueRight,CueDemandRight,Choice,ChoiceDemand,TaskDemand,ChoiceRT,ChoiceTimeOut,ChoiceSTART,CueCheck,CueDemandCheck,CorrectAnswer,Answer,AnswerDemand,AnswerRT,AnswerACC,AnswerTimeOut,CheckSTART,DemandRatingQuesIndex,QuesTLX,DemandLevel,DemandRating,DemandRatingRT,QuesStart,PID,SONA,Age,Gender,Run,TIME,EXPERIMENTER,frameRate
1,./instructions/inst_begin/Slide2.png,right,10.35536877,2.223682059,12.57905083,,,,,,,,,,,,,,,,,,,,,,,,,,,,,,,,,,,,,,,,,,,,,,,,,,,,,,,,,,,,,,,,,,,,,,,,,,,,,,,,,,,,,,
2,./instructions/inst_begin/Slide3.png,right,19.9409779,12.64623424,32.58721214,,,,,,,,,,,,,,,,,,,,,,,,,,,,,,,,,,,,,,,,,,,,,,,,,,,,,,,,,,,,,,,,,,,,,,,,,,,,,,,,,,,,,,
3,./instructions/inst_begin/Slide4.png,right,14.82127509,32.69405795,47.51533304,,,,,,,,,,,,,,,,,,,,,,,,,,,,,,,,,,,,,,,,,,,,,,,,,,,,,,,,,,,,,,,,,,,,,,,,,,,,,,,,,,,,,,
1,./instructions/inst_prac_2/Slide6.png,right,29.35771769,47.64561319,77.00333088,,,,,,,,,,,,,,,,,,,,,,,,,,,,,,,,,,,,,,,,,,,,,,,,,,,,,,,,,,,,,,,,,,,,,,,,,,,,,,,,,,,,,,
2,./instructions/inst_prac_2/Slide7.png,right,19.08577447,77.09351688,96.17929134,,,,,,,,,,,,,,,,,,,,,,,,,,,,,,,,,,,,,,,,,,,,,,,,,,,,,,,,,,,,,,,,,,,,,,,,,,,,,,,,,,,,,,
3,./instructions/inst_prac_2/Slide8.png,right,25.6377409,96.27745043,121.9151913,,,,,,,,,,,,,,,,,,,,,,,,,,,,,,,,,,,,,,,,,,,,,,,,,,,,,,,,,,,,,,,,,,,,,,,,,,,,,,,,,,,,,,
4,./instructions/inst_prac_2/Slide9.png,right,14.76114388,121.9783161,136.73946,,,,,,,,,,,,,,,,,,,,,,,,,,,,,,,,,,,,,,,,,,,,,,,,,,,,,,,,,,,,,,,,,,,,,,,,,,,,,,,,,,,,,,
5,./instructions/inst_prac_2/Slide10.png,right,3.727233811,136.8039125,140.5311463,,,,,,,,,,,,,,,,,,,,,,,,,,,,,,,,,,,,,,,,,,,,,,,,,,,,,,,,,,,,,,,,,,,,,,,,,,,,,,,,,,,,,,
6,./instructions/inst_prac_2/Slide11.png,right,2.184454142,140.5868911,142.7713452,,,,,,,,,,,,,,,,,,,,,,,,,,,,,,,,,,,,,,,,,,,,,,,,,,,,,,,,,,,,,,,,,,,,,,,,,,,,,,,,,,,,,,
7,./instructions/inst_prac_2/Slide12.png,right,1.438247444,142.8289433,144.2671907,,,,,,,,,,,,,,,,,,,,,,,,,,,,,,,,,,,,,,,,,,,,,,,,,,,,,,,,,,,,,,,,,,,,,,,,,,,,,,,,,,,,,,
8,./instructions/inst_prac_2/Slide13.png,right,1.108423837,144.6066926,145.7151165,,,,,,,,,,,,,,,,,,,,,,,,,,,,,,,,,,,,,,,,,,,,,,,,,,,,,,,,,,,,,,,,,,,,,,,,,,,,,,,,,,,,,,
9,./instructions/inst_prac_2/Slide14.png,right,13.73604253,145.7632569,159.4992994,,,,,,,,,,,,,,,,,,,,,,,,,,,,,,,,,,,,,,,,,,,,,,,,,,,,,,,,,,,,,,,,,,,,,,,,,,,,,,,,,,,,,,
10,./instructions/inst_prac_2/Slide15.png,right,20.61715906,159.5859593,180.2031184,,,,,,,,,,,,,,,,,,,,,,,,,,,,,,,,,,,,,,,,,,,,,,,,,,,,,,,,,,,,,,,,,,,,,,,,,,,,,,,,,,,,,,
,,,,,,practice,0,27,2,2583,1,C,0,right,2.43215326,1,0,,,,,,,,,,,,,,,,,,,,,,,,,,,,,,,,,,,,,,,,,,,,,,,,,,,,,,,,,,,,,,,,,,,,,,,,,,
,,,,,,practice,0,27,2,2583,2,X,0,right,1.22511159,1,0,,,,,,,,,,,,,,,,,,,,,,,,,,,,,,,,,,,,,,,,,,,,,,,,,,,,,,,,,,,,,,,,,,,,,,,,,,
,,,,,,practice,0,27,2,2583,3,C,1,left,0.780313712,1,0,,,,,,,,,,,,,,,,,,,,,,,,,,,,,,,,,,,,,,,,,,,,,,,,,,,,,,,,,,,,,,,,,,,,,,,,,,
,,,,,,practice,0,27,2,2583,4,F,0,right,0.812946746,1,0,,,,,,,,,,,,,,,,,,,,,,,,,,,,,,,,,,,,,,,,,,,,,,,,,,,,,,,,,,,,,,,,,,,,,,,,,,
,,,,,,practice,0,27,2,2583,5,Q,0,right,0.859261805,1,0,,,,,,,,,,,,,,,,,,,,,,,,,,,,,,,,,,,,,,,,,,,,,,,,,,,,,,,,,,,,,,,,,,,,,,,,,,
,,,,,,practice,0,27,2,2583,6,F,1,left,0.747845155,1,0,,,,,,,,,,,,,,,,,,,,,,,,,,,,,,,,,,,,,,,,,,,,,,,,,,,,,,,,,,,,,,,,,,,,,,,,,,
,,,,,,practice,0,27,2,2583,,,,,,,,1,1,0,1,0,1,1.142938711,2,0,0,0,0,4,6,2,4,0,,,,,,,,,,,,,,,,,,,,,,,,,,,,,,,,,,,,,,,,,,,,,,,,,,,,,,,,,
1,./instructions/inst_to_cali/Slide20.png,right,6.623405812,193.6601628,200.2835686,,,,,,,,,,,,,,,,,,,,,,,,,,,,,,,,,,,,,,,,,,,,,,,,,,,,,,,,,,,,,,,,,,,,,,,,,,,,,,,,,,,,,,
1,./instructions/inst_cali/Slide22.png,right,25.06402018,200.3871437,225.4511639,,,,,,,,,,,,,,,,,,,,,,,,,,,,,,,,,,,,,,,,,,,,,,,,,,,,,,,,,,,,,,,,,,,,,,,,,,,,,,,,,,,,,,
,,,,,,calibration,0,19,2,583,1,C,0,right,0.928310572,1,0,,,,,,,,,,,,,,,,,,,,,,,,,,,,,,,,,,,,,,,,,,,,,,,,,,,,,,,,,,,,,,,,,,,,,,,,,,
,,,,,,calibration,0,19,2,583,2,F,0,right,0.694822603,1,0,,,,,,,,,,,,,,,,,,,,,,,,,,,,,,,,,,,,,,,,,,,,,,,,,,,,,,,,,,,,,,,,,,,,,,,,,,
,,,,,,calibration,0,19,2,583,3,V,0,right,0.445801784,1,0,,,,,,,,,,,,,,,,,,,,,,,,,,,,,,,,,,,,,,,,,,,,,,,,,,,,,,,,,,,,,,,,,,,,,,,,,,
,,,,,,calibration,0,19,2,583,4,N,0,right,0.51745576,1,0,,,,,,,,,,,,,,,,,,,,,,,,,,,,,,,,,,,,,,,,,,,,,,,,,,,,,,,,,,,,,,,,,,,,,,,,,,
,,,,,,calibration,0,19,2,583,5,Q,0,right,0.473261948,1,0,,,,,,,,,,,,,,,,,,,,,,,,,,,,,,,,,,,,,,,,,,,,,,,,,,,,,,,,,,,,,,,,,,,,,,,,,,
,,,,,,calibration,0,19,2,583,6,N,1,left,0.728330135,1,0,,,,,,,,,,,,,,,,,,,,,,,,,,,,,,,,,,,,,,,,,,,,,,,,,,,,,,,,,,,,,,,,,,,,,,,,,,
,,,,,,calibration,0,19,2,583,7,Q,1,left,0.87858635,1,0,,,,,,,,,,,,,,,,,,,,,,,,,,,,,,,,,,,,,,,,,,,,,,,,,,,,,,,,,,,,,,,,,,,,,,,,,,
,,,,,,calibration,0,19,2,583,8,S,0,right,0.474880744,1,0,,,,,,,,,,,,,,,,,,,,,,,,,,,,,,,,,,,,,,,,,,,,,,,,,,,,,,,,,,,,,,,,,,,,,,,,,,
,,,,,,calibration,0,19,2,583,9,X,0,right,0.711906815,1,0,,,,,,,,,,,,,,,,,,,,,,,,,,,,,,,,,,,,,,,,,,,,,,,,,,,,,,,,,,,,,,,,,,,,,,,,,,
,,,,,,calibration,0,19,2,583,10,V,0,right,0.911887766,1,0,,,,,,,,,,,,,,,,,,,,,,,,,,,,,,,,,,,,,,,,,,,,,,,,,,,,,,,,,,,,,,,,,,,,,,,,,,
,,,,,,calibration,0,19,2,583,11,F,0,right,0.99600811,1,0,,,,,,,,,,,,,,,,,,,,,,,,,,,,,,,,,,,,,,,,,,,,,,,,,,,,,,,,,,,,,,,,,,,,,,,,,,
,,,,,,calibration,0,19,2,583,12,V,1,left,0.545627047,1,0,,,,,,,,,,,,,,,,,,,,,,,,,,,,,,,,,,,,,,,,,,,,,,,,,,,,,,,,,,,,,,,,,,,,,,,,,,
,,,,,,calibration,0,19,2,583,13,C,0,right,0.577986286,1,0,,,,,,,,,,,,,,,,,,,,,,,,,,,,,,,,,,,,,,,,,,,,,,,,,,,,,,,,,,,,,,,,,,,,,,,,,,
,,,,,,calibration,0,19,2,583,14,V,1,left,0.517340616,1,0,,,,,,,,,,,,,,,,,,,,,,,,,,,,,,,,,,,,,,,,,,,,,,,,,,,,,,,,,,,,,,,,,,,,,,,,,,
,,,,,,calibration,0,19,2,583,15,N,0,right,0.744649643,1,0,,,,,,,,,,,,,,,,,,,,,,,,,,,,,,,,,,,,,,,,,,,,,,,,,,,,,,,,,,,,,,,,,,,,,,,,,,
,,,,,,calibration,0,19,2,583,,,,,,,,1,1,0,1,0,1,0.676457079,4,0,0,0,0,11,15,4,11,0,,,,,,,,,,,,,,,,,,,,,,,,,,,,,,,,,,,,,,,,,,,,,,,,,,,,,,,,,
,,,,,,Calibration,0,,2,583,,,,,,,,,,,,,,,,,,,,,,,,,1,,,,,,,,,,,,,,,,,,,,,,,,,,,,,,,,,,,,,,,,,,,,,,,,,,,,,,,,
,,,,,,calibration,0,8,2,500,1,C,0,right,0.711753356,1,0,,,,,,,,,,,,,,,,,,,,,,,,,,,,,,,,,,,,,,,,,,,,,,,,,,,,,,,,,,,,,,,,,,,,,,,,,,
,,,,,,calibration,0,8,2,500,2,X,0,right,0.64522886,1,0,,,,,,,,,,,,,,,,,,,,,,,,,,,,,,,,,,,,,,,,,,,,,,,,,,,,,,,,,,,,,,,,,,,,,,,,,,
,,,,,,calibration,0,8,2,500,3,V,0,right,0.763022907,1,0,,,,,,,,,,,,,,,,,,,,,,,,,,,,,,,,,,,,,,,,,,,,,,,,,,,,,,,,,,,,,,,,,,,,,,,,,,
,,,,,,calibration,0,8,2,500,4,Q,0,right,0.611819517,1,0,,,,,,,,,,,,,,,,,,,,,,,,,,,,,,,,,,,,,,,,,,,,,,,,,,,,,,,,,,,,,,,,,,,,,,,,,,
,,,,,,calibration,0,8,2,500,5,V,1,left,0.695046978,1,0,,,,,,,,,,,,,,,,,,,,,,,,,,,,,,,,,,,,,,,,,,,,,,,,,,,,,,,,,,,,,,,,,,,,,,,,,,
,,,,,,calibration,0,8,2,500,6,X,0,right,0.9618421,1,0,,,,,,,,,,,,,,,,,,,,,,,,,,,,,,,,,,,,,,,,,,,,,,,,,,,,,,,,,,,,,,,,,,,,,,,,,,
,,,,,,calibration,0,8,2,500,7,V,1,left,0.630297154,1,0,,,,,,,,,,,,,,,,,,,,,,,,,,,,,,,,,,,,,,,,,,,,,,,,,,,,,,,,,,,,,,,,,,,,,,,,,,
,,,,,,calibration,0,8,2,500,8,Q,0,right,0.877942095,1,0,,,,,,,,,,,,,,,,,,,,,,,,,,,,,,,,,,,,,,,,,,,,,,,,,,,,,,,,,,,,,,,,,,,,,,,,,,
,,,,,,calibration,0,8,2,500,9,V,1,left,0.59523099,1,0,,,,,,,,,,,,,,,,,,,,,,,,,,,,,,,,,,,,,,,,,,,,,,,,,,,,,,,,,,,,,,,,,,,,,,,,,,
,,,,,,calibration,0,8,2,500,10,S,0,right,0.484466124,1,0,,,,,,,,,,,,,,,,,,,,,,,,,,,,,,,,,,,,,,,,,,,,,,,,,,,,,,,,,,,,,,,,,,,,,,,,,,
,,,,,,calibration,0,8,2,500,11,N,0,right,0.597542915,1,0,,,,,,,,,,,,,,,,,,,,,,,,,,,,,,,,,,,,,,,,,,,,,,,,,,,,,,,,,,,,,,,,,,,,,,,,,,
,,,,,,calibration,0,8,2,500,12,S,1,left,0.595363804,1,0,,,,,,,,,,,,,,,,,,,,,,,,,,,,,,,,,,,,,,,,,,,,,,,,,,,,,,,,,,,,,,,,,,,,,,,,,,
,,,,,,calibration,0,8,2,500,13,Q,0,right,0.452474983,1,0,,,,,,,,,,,,,,,,,,,,,,,,,,,,,,,,,,,,,,,,,,,,,,,,,,,,,,,,,,,,,,,,,,,,,,,,,,
,,,,,,calibration,0,8,2,500,14,J,0,right,0.594712396,1,0,,,,,,,,,,,,,,,,,,,,,,,,,,,,,,,,,,,,,,,,,,,,,,,,,,,,,,,,,,,,,,,,,,,,,,,,,,
,,,,,,calibration,0,8,2,500,15,Q,1,left,0.678071843,1,0,,,,,,,,,,,,,,,,,,,,,,,,,,,,,,,,,,,,,,,,,,,,,,,,,,,,,,,,,,,,,,,,,,,,,,,,,,
,,,,,,calibration,0,8,2,500,16,N,0,right,0.394009588,1,0,,,,,,,,,,,,,,,,,,,,,,,,,,,,,,,,,,,,,,,,,,,,,,,,,,,,,,,,,,,,,,,,,,,,,,,,,,
,,,,,,calibration,0,8,2,500,,,,,,,,1,1,0,1,0,1,0.643051601,5,0,0,0,0,11,16,5,11,0,,,,,,,,,,,,,,,,,,,,,,,,,,,,,,,,,,,,,,,,,,,,,,,,,,,,,,,,,
,,,,,,Calibration,0,,2,500,,,,,,,,,,,,,,,,,,,,,,,,,2,,,,,,,,,,,,,,,,,,,,,,,,,,,,,,,,,,,,,,,,,,,,,,,,,,,,,,,,
,,,,,,calibration,0,36,2,426,1,J,0,right,0.661112399,1,0,,,,,,,,,,,,,,,,,,,,,,,,,,,,,,,,,,,,,,,,,,,,,,,,,,,,,,,,,,,,,,,,,,,,,,,,,,
,,,,,,calibration,0,36,2,426,2,F,0,right,0.561063737,1,0,,,,,,,,,,,,,,,,,,,,,,,,,,,,,,,,,,,,,,,,,,,,,,,,,,,,,,,,,,,,,,,,,,,,,,,,,,
,,,,,,calibration,0,36,2,426,3,S,0,right,0.470112493,1,0,,,,,,,,,,,,,,,,,,,,,,,,,,,,,,,,,,,,,,,,,,,,,,,,,,,,,,,,,,,,,,,,,,,,,,,,,,
,,,,,,calibration,0,36,2,426,4,F,1,left,0.469224245,1,0,,,,,,,,,,,,,,,,,,,,,,,,,,,,,,,,,,,,,,,,,,,,,,,,,,,,,,,,,,,,,,,,,,,,,,,,,,
,,,,,,calibration,0,36,2,426,5,V,0,right,0.396215237,1,0,,,,,,,,,,,,,,,,,,,,,,,,,,,,,,,,,,,,,,,,,,,,,,,,,,,,,,,,,,,,,,,,,,,,,,,,,,
,,,,,,calibration,0,36,2,426,6,C,0,right,0.761701963,1,0,,,,,,,,,,,,,,,,,,,,,,,,,,,,,,,,,,,,,,,,,,,,,,,,,,,,,,,,,,,,,,,,,,,,,,,,,,
,,,,,,calibration,0,36,2,426,7,J,0,right,0.91170407,1,0,,,,,,,,,,,,,,,,,,,,,,,,,,,,,,,,,,,,,,,,,,,,,,,,,,,,,,,,,,,,,,,,,,,,,,,,,,
,,,,,,calibration,0,36,2,426,8,Q,0,right,0.795450647,1,0,,,,,,,,,,,,,,,,,,,,,,,,,,,,,,,,,,,,,,,,,,,,,,,,,,,,,,,,,,,,,,,,,,,,,,,,,,
,,,,,,calibration,0,36,2,426,9,V,0,left,0.405610364,0,0,,,,,,,,,,,,,,,,,,,,,,,,,,,,,,,,,,,,,,,,,,,,,,,,,,,,,,,,,,,,,,,,,,,,,,,,,,
,,,,,,calibration,0,36,2,426,10,X,0,right,0.83047395,1,0,,,,,,,,,,,,,,,,,,,,,,,,,,,,,,,,,,,,,,,,,,,,,,,,,,,,,,,,,,,,,,,,,,,,,,,,,,
,,,,,,calibration,0,36,2,426,11,V,1,left,0.628559789,1,0,,,,,,,,,,,,,,,,,,,,,,,,,,,,,,,,,,,,,,,,,,,,,,,,,,,,,,,,,,,,,,,,,,,,,,,,,,
,,,,,,calibration,0,36,2,426,12,S,0,right,0.527535869,1,0,,,,,,,,,,,,,,,,,,,,,,,,,,,,,,,,,,,,,,,,,,,,,,,,,,,,,,,,,,,,,,,,,,,,,,,,,,
,,,,,,calibration,0,36,2,426,13,V,1,left,0.527518112,1,0,,,,,,,,,,,,,,,,,,,,,,,,,,,,,,,,,,,,,,,,,,,,,,,,,,,,,,,,,,,,,,,,,,,,,,,,,,
,,,,,,calibration,0,36,2,426,14,N,0,right,0.366956339,1,0,,,,,,,,,,,,,,,,,,,,,,,,,,,,,,,,,,,,,,,,,,,,,,,,,,,,,,,,,,,,,,,,,,,,,,,,,,
,,,,,,calibration,0,36,2,426,15,V,1,left,0.394519395,1,0,,,,,,,,,,,,,,,,,,,,,,,,,,,,,,,,,,,,,,,,,,,,,,,,,,,,,,,,,,,,,,,,,,,,,,,,,,
,,,,,,calibration,0,36,2,426,16,N,1,right,0.644889964,0,0,,,,,,,,,,,,,,,,,,,,,,,,,,,,,,,,,,,,,,,,,,,,,,,,,,,,,,,,,,,,,,,,,,,,,,,,,,
,,,,,,calibration,0,36,2,426,17,C,0,right,0.694938016,1,0,,,,,,,,,,,,,,,,,,,,,,,,,,,,,,,,,,,,,,,,,,,,,,,,,,,,,,,,,,,,,,,,,,,,,,,,,,
,,,,,,calibration,0,36,2,426,,,,,,,,0.9125,0.8,0.083333333,0.916666667,0,0.916666667,0.591034505,4,1,0,0,0,11,15,5,12,0,,,,,,,,,,,,,,,,,,,,,,,,,,,,,,,,,,,,,,,,,,,,,,,,,,,,,,,,,
,,,,,,Calibration,0,,2,426,,,,,,,,,,,,,,,,,,,,,,,,,3,,,,,,,,,,,,,,,,,,,,,,,,,,,,,,,,,,,,,,,,,,,,,,,,,,,,,,,,
,,,,,,calibration,0,12,2,361,1,V,0,right,0.595388226,1,0,,,,,,,,,,,,,,,,,,,,,,,,,,,,,,,,,,,,,,,,,,,,,,,,,,,,,,,,,,,,,,,,,,,,,,,,,,
,,,,,,calibration,0,12,2,361,2,X,0,right,0.361442232,1,0,,,,,,,,,,,,,,,,,,,,,,,,,,,,,,,,,,,,,,,,,,,,,,,,,,,,,,,,,,,,,,,,,,,,,,,,,,
,,,,,,calibration,0,12,2,361,3,C,0,right,0.413031651,1,0,,,,,,,,,,,,,,,,,,,,,,,,,,,,,,,,,,,,,,,,,,,,,,,,,,,,,,,,,,,,,,,,,,,,,,,,,,
,,,,,,calibration,0,12,2,361,4,X,1,left,0.562037055,1,0,,,,,,,,,,,,,,,,,,,,,,,,,,,,,,,,,,,,,,,,,,,,,,,,,,,,,,,,,,,,,,,,,,,,,,,,,,
,,,,,,calibration,0,12,2,361,5,J,0,right,0.647224447,1,0,,,,,,,,,,,,,,,,,,,,,,,,,,,,,,,,,,,,,,,,,,,,,,,,,,,,,,,,,,,,,,,,,,,,,,,,,,
,,,,,,calibration,0,12,2,361,6,Q,0,right,0.447287367,1,0,,,,,,,,,,,,,,,,,,,,,,,,,,,,,,,,,,,,,,,,,,,,,,,,,,,,,,,,,,,,,,,,,,,,,,,,,,
,,,,,,calibration,0,12,2,361,7,J,1,left,0.594961808,1,0,,,,,,,,,,,,,,,,,,,,,,,,,,,,,,,,,,,,,,,,,,,,,,,,,,,,,,,,,,,,,,,,,,,,,,,,,,
,,,,,,calibration,0,12,2,361,8,S,0,right,0.353347967,1,0,,,,,,,,,,,,,,,,,,,,,,,,,,,,,,,,,,,,,,,,,,,,,,,,,,,,,,,,,,,,,,,,,,,,,,,,,,
,,,,,,calibration,0,12,2,361,9,C,0,right,0.745449397,1,0,,,,,,,,,,,,,,,,,,,,,,,,,,,,,,,,,,,,,,,,,,,,,,,,,,,,,,,,,,,,,,,,,,,,,,,,,,
,,,,,,calibration,0,12,2,361,10,N,0,right,0.795268457,1,0,,,,,,,,,,,,,,,,,,,,,,,,,,,,,,,,,,,,,,,,,,,,,,,,,,,,,,,,,,,,,,,,,,,,,,,,,,
,,,,,,calibration,0,12,2,361,11,J,0,right,0.728432363,1,0,,,,,,,,,,,,,,,,,,,,,,,,,,,,,,,,,,,,,,,,,,,,,,,,,,,,,,,,,,,,,,,,,,,,,,,,,,
,,,,,,calibration,0,12,2,361,12,Q,0,right,0.795352793,1,0,,,,,,,,,,,,,,,,,,,,,,,,,,,,,,,,,,,,,,,,,,,,,,,,,,,,,,,,,,,,,,,,,,,,,,,,,,
,,,,,,calibration,0,12,2,361,13,J,1,left,0.796666348,1,0,,,,,,,,,,,,,,,,,,,,,,,,,,,,,,,,,,,,,,,,,,,,,,,,,,,,,,,,,,,,,,,,,,,,,,,,,,
,,,,,,calibration,0,12,2,361,14,Q,1,left,0.878628532,1,0,,,,,,,,,,,,,,,,,,,,,,,,,,,,,,,,,,,,,,,,,,,,,,,,,,,,,,,,,,,,,,,,,,,,,,,,,,
,,,,,,calibration,0,12,2,361,15,F,0,right,0.611502588,1,0,,,,,,,,,,,,,,,,,,,,,,,,,,,,,,,,,,,,,,,,,,,,,,,,,,,,,,,,,,,,,,,,,,,,,,,,,,
,,,,,,calibration,0,12,2,361,16,Q,1,left,0.484683416,1,0,,,,,,,,,,,,,,,,,,,,,,,,,,,,,,,,,,,,,,,,,,,,,,,,,,,,,,,,,,,,,,,,,,,,,,,,,,
,,,,,,calibration,0,12,2,361,17,V,0,right,0.664334737,1,0,,,,,,,,,,,,,,,,,,,,,,,,,,,,,,,,,,,,,,,,,,,,,,,,,,,,,,,,,,,,,,,,,,,,,,,,,,
,,,,,,calibration,0,12,2,361,18,S,0,right,0.561787983,1,0,,,,,,,,,,,,,,,,,,,,,,,,,,,,,,,,,,,,,,,,,,,,,,,,,,,,,,,,,,,,,,,,,,,,,,,,,,
,,,,,,calibration,0,12,2,361,,,,,,,,1,1,0,1,0,1,0.613157076,5,0,0,0,0,13,18,5,13,0,,,,,,,,,,,,,,,,,,,,,,,,,,,,,,,,,,,,,,,,,,,,,,,,,,,,,,,,,
,,,,,,Calibration,0,,2,361,,,,,,,,,,,,,,,,,,,,,,,,,4,,,,,,,,,,,,,,,,,,,,,,,,,,,,,,,,,,,,,,,,,,,,,,,,,,,,,,,,
,,,,,,calibration,0,35,2,303,1,Q,0,right,0.4849267,1,0,,,,,,,,,,,,,,,,,,,,,,,,,,,,,,,,,,,,,,,,,,,,,,,,,,,,,,,,,,,,,,,,,,,,,,,,,,
,,,,,,calibration,0,35,2,303,2,J,0,right,0.33042391,1,0,,,,,,,,,,,,,,,,,,,,,,,,,,,,,,,,,,,,,,,,,,,,,,,,,,,,,,,,,,,,,,,,,,,,,,,,,,
,,,,,,calibration,0,35,2,303,3,Q,1,left,0.484781949,1,0,,,,,,,,,,,,,,,,,,,,,,,,,,,,,,,,,,,,,,,,,,,,,,,,,,,,,,,,,,,,,,,,,,,,,,,,,,
,,,,,,calibration,0,35,2,303,4,J,1,left,0.342228137,1,0,,,,,,,,,,,,,,,,,,,,,,,,,,,,,,,,,,,,,,,,,,,,,,,,,,,,,,,,,,,,,,,,,,,,,,,,,,
,,,,,,calibration,0,35,2,303,5,V,0,right,0.561507626,1,0,,,,,,,,,,,,,,,,,,,,,,,,,,,,,,,,,,,,,,,,,,,,,,,,,,,,,,,,,,,,,,,,,,,,,,,,,,
,,,,,,calibration,0,35,2,303,6,C,0,right,0.381896721,1,0,,,,,,,,,,,,,,,,,,,,,,,,,,,,,,,,,,,,,,,,,,,,,,,,,,,,,,,,,,,,,,,,,,,,,,,,,,
,,,,,,calibration,0,35,2,303,7,F,0,right,0.545645973,1,0,,,,,,,,,,,,,,,,,,,,,,,,,,,,,,,,,,,,,,,,,,,,,,,,,,,,,,,,,,,,,,,,,,,,,,,,,,
,,,,,,calibration,0,35,2,303,8,C,1,left,0.69514312,1,0,,,,,,,,,,,,,,,,,,,,,,,,,,,,,,,,,,,,,,,,,,,,,,,,,,,,,,,,,,,,,,,,,,,,,,,,,,
,,,,,,calibration,0,35,2,303,9,X,0,right,0.480114528,1,0,,,,,,,,,,,,,,,,,,,,,,,,,,,,,,,,,,,,,,,,,,,,,,,,,,,,,,,,,,,,,,,,,,,,,,,,,,
,,,,,,calibration,0,35,2,303,10,C,1,left,0.455258177,1,0,,,,,,,,,,,,,,,,,,,,,,,,,,,,,,,,,,,,,,,,,,,,,,,,,,,,,,,,,,,,,,,,,,,,,,,,,,
,,,,,,calibration,0,35,2,303,11,V,0,right,0.629961426,1,0,,,,,,,,,,,,,,,,,,,,,,,,,,,,,,,,,,,,,,,,,,,,,,,,,,,,,,,,,,,,,,,,,,,,,,,,,,
,,,,,,calibration,0,35,2,303,12,X,0,right,nan,0,1,,,,,,,,,,,,,,,,,,,,,,,,,,,,,,,,,,,,,,,,,,,,,,,,,,,,,,,,,,,,,,,,,,,,,,,,,,
,,,,,,calibration,0,35,2,303,13,Q,0,right,0.578329708,1,0,,,,,,,,,,,,,,,,,,,,,,,,,,,,,,,,,,,,,,,,,,,,,,,,,,,,,,,,,,,,,,,,,,,,,,,,,,
,,,,,,calibration,0,35,2,303,14,S,0,right,0.911757551,1,0,,,,,,,,,,,,,,,,,,,,,,,,,,,,,,,,,,,,,,,,,,,,,,,,,,,,,,,,,,,,,,,,,,,,,,,,,,
,,,,,,calibration,0,35,2,303,15,Q,1,left,0.45352965,1,0,,,,,,,,,,,,,,,,,,,,,,,,,,,,,,,,,,,,,,,,,,,,,,,,,,,,,,,,,,,,,,,,,,,,,,,,,,
,,,,,,calibration,0,35,2,303,16,J,0,right,0.811633971,1,0,,,,,,,,,,,,,,,,,,,,,,,,,,,,,,,,,,,,,,,,,,,,,,,,,,,,,,,,,,,,,,,,,,,,,,,,,,
,,,,,,calibration,0,35,2,303,17,Q,1,left,0.51753619,1,0,,,,,,,,,,,,,,,,,,,,,,,,,,,,,,,,,,,,,,,,,,,,,,,,,,,,,,,,,,,,,,,,,,,,,,,,,,
,,,,,,calibration,0,35,2,303,18,N,0,right,0.46587457,1,0,,,,,,,,,,,,,,,,,,,,,,,,,,,,,,,,,,,,,,,,,,,,,,,,,,,,,,,,,,,,,,,,,,,,,,,,,,
,,,,,,calibration,0,35,2,303,19,X,0,right,0.677469608,1,0,,,,,,,,,,,,,,,,,,,,,,,,,,,,,,,,,,,,,,,,,,,,,,,,,,,,,,,,,,,,,,,,,,,,,,,,,,
,,,,,,calibration,0,35,2,303,,,,,,,,1,1,0,1,0.052631579,0.947368421,0.544889973,6,0,0,1,1,12,18,6,13,0,,,,,,,,,,,,,,,,,,,,,,,,,,,,,,,,,,,,,,,,,,,,,,,,,,,,,,,,,
,,,,,,Calibration,0,,2,303,,,,,,,,,,,,,,,,,,,,,,,,,5,,,,,,,,,,,,,,,,,,,,,,,,,,,,,,,,,,,,,,,,,,,,,,,,,,,,,,,,
,,,,,,calibration,0,19,2,250,1,V,0,right,0.263552081,1,0,,,,,,,,,,,,,,,,,,,,,,,,,,,,,,,,,,,,,,,,,,,,,,,,,,,,,,,,,,,,,,,,,,,,,,,,,,
,,,,,,calibration,0,19,2,250,2,C,0,right,0.303457748,1,0,,,,,,,,,,,,,,,,,,,,,,,,,,,,,,,,,,,,,,,,,,,,,,,,,,,,,,,,,,,,,,,,,,,,,,,,,,
,,,,,,calibration,0,19,2,250,3,N,0,right,0.613714707,1,0,,,,,,,,,,,,,,,,,,,,,,,,,,,,,,,,,,,,,,,,,,,,,,,,,,,,,,,,,,,,,,,,,,,,,,,,,,
,,,,,,calibration,0,19,2,250,4,Q,0,right,0.46808114,1,0,,,,,,,,,,,,,,,,,,,,,,,,,,,,,,,,,,,,,,,,,,,,,,,,,,,,,,,,,,,,,,,,,,,,,,,,,,
,,,,,,calibration,0,19,2,250,5,X,0,right,0.828262336,1,0,,,,,,,,,,,,,,,,,,,,,,,,,,,,,,,,,,,,,,,,,,,,,,,,,,,,,,,,,,,,,,,,,,,,,,,,,,
,,,,,,calibration,0,19,2,250,6,Q,1,left,0.678068221,1,0,,,,,,,,,,,,,,,,,,,,,,,,,,,,,,,,,,,,,,,,,,,,,,,,,,,,,,,,,,,,,,,,,,,,,,,,,,
,,,,,,calibration,0,19,2,250,7,C,0,left,nan,0,1,,,,,,,,,,,,,,,,,,,,,,,,,,,,,,,,,,,,,,,,,,,,,,,,,,,,,,,,,,,,,,,,,,,,,,,,,,
,,,,,,calibration,0,19,2,250,8,Q,1,left,0.728357033,1,0,,,,,,,,,,,,,,,,,,,,,,,,,,,,,,,,,,,,,,,,,,,,,,,,,,,,,,,,,,,,,,,,,,,,,,,,,,
,,,,,,calibration,0,19,2,250,9,C,1,left,0.711596618,1,0,,,,,,,,,,,,,,,,,,,,,,,,,,,,,,,,,,,,,,,,,,,,,,,,,,,,,,,,,,,,,,,,,,,,,,,,,,
,,,,,,calibration,0,19,2,250,10,V,0,right,0.418430778,1,0,,,,,,,,,,,,,,,,,,,,,,,,,,,,,,,,,,,,,,,,,,,,,,,,,,,,,,,,,,,,,,,,,,,,,,,,,,
,,,,,,calibration,0,19,2,250,11,F,0,right,nan,0,1,,,,,,,,,,,,,,,,,,,,,,,,,,,,,,,,,,,,,,,,,,,,,,,,,,,,,,,,,,,,,,,,,,,,,,,,,,
,,,,,,calibration,0,19,2,250,12,S,0,right,0.845068478,1,0,,,,,,,,,,,,,,,,,,,,,,,,,,,,,,,,,,,,,,,,,,,,,,,,,,,,,,,,,,,,,,,,,,,,,,,,,,
,,,,,,calibration,0,19,2,250,13,F,1,left,0.545969232,1,0,,,,,,,,,,,,,,,,,,,,,,,,,,,,,,,,,,,,,,,,,,,,,,,,,,,,,,,,,,,,,,,,,,,,,,,,,,
,,,,,,calibration,0,19,2,250,14,C,0,right,0.961535257,1,0,,,,,,,,,,,,,,,,,,,,,,,,,,,,,,,,,,,,,,,,,,,,,,,,,,,,,,,,,,,,,,,,,,,,,,,,,,
,,,,,,calibration,0,19,2,250,15,N,0,right,0.56135237,1,0,,,,,,,,,,,,,,,,,,,,,,,,,,,,,,,,,,,,,,,,,,,,,,,,,,,,,,,,,,,,,,,,,,,,,,,,,,
,,,,,,calibration,0,19,2,250,16,C,1,right,0.644404025,0,0,,,,,,,,,,,,,,,,,,,,,,,,,,,,,,,,,,,,,,,,,,,,,,,,,,,,,,,,,,,,,,,,,,,,,,,,,,
,,,,,,calibration,0,19,2,250,17,V,0,right,0.578437842,1,0,,,,,,,,,,,,,,,,,,,,,,,,,,,,,,,,,,,,,,,,,,,,,,,,,,,,,,,,,,,,,,,,,,,,,,,,,,
,,,,,,calibration,0,19,2,250,18,J,0,right,0.661337951,1,0,,,,,,,,,,,,,,,,,,,,,,,,,,,,,,,,,,,,,,,,,,,,,,,,,,,,,,,,,,,,,,,,,,,,,,,,,,
,,,,,,calibration,0,19,2,250,19,X,0,right,0.830441706,1,0,,,,,,,,,,,,,,,,,,,,,,,,,,,,,,,,,,,,,,,,,,,,,,,,,,,,,,,,,,,,,,,,,,,,,,,,,,
,,,,,,calibration,0,19,2,250,20,C,0,right,0.71166881,1,0,,,,,,,,,,,,,,,,,,,,,,,,,,,,,,,,,,,,,,,,,,,,,,,,,,,,,,,,,,,,,,,,,,,,,,,,,,
,,,,,,calibration,0,19,2,250,,,,,,,,0.95,0.8,0,1,0.1,0.9,0.63076313,4,0,0,2,2,13,17,5,15,0,,,,,,,,,,,,,,,,,,,,,,,,,,,,,,,,,,,,,,,,,,,,,,,,,,,,,,,,,
,,,,,,Calibration,0,,2,250,,,,,,,,,,,,,,,,,,,,,,,,,6,,,,,,,,,,,,,,,,,,,,,,,,,,,,,,,,,,,,,,,,,,,,,,,,,,,,,,,,
,,,,,,calibration,0,5,2,202,1,F,0,right,0.399119236,1,0,,,,,,,,,,,,,,,,,,,,,,,,,,,,,,,,,,,,,,,,,,,,,,,,,,,,,,,,,,,,,,,,,,,,,,,,,,
,,,,,,calibration,0,5,2,202,2,S,0,right,0.751361629,1,0,,,,,,,,,,,,,,,,,,,,,,,,,,,,,,,,,,,,,,,,,,,,,,,,,,,,,,,,,,,,,,,,,,,,,,,,,,
,,,,,,calibration,0,5,2,202,3,V,0,right,0.894746239,1,0,,,,,,,,,,,,,,,,,,,,,,,,,,,,,,,,,,,,,,,,,,,,,,,,,,,,,,,,,,,,,,,,,,,,,,,,,,
,,,,,,calibration,0,5,2,202,4,S,1,left,0.527374072,1,0,,,,,,,,,,,,,,,,,,,,,,,,,,,,,,,,,,,,,,,,,,,,,,,,,,,,,,,,,,,,,,,,,,,,,,,,,,
,,,,,,calibration,0,5,2,202,5,V,1,left,0.630067716,1,0,,,,,,,,,,,,,,,,,,,,,,,,,,,,,,,,,,,,,,,,,,,,,,,,,,,,,,,,,,,,,,,,,,,,,,,,,,
,,,,,,calibration,0,5,2,202,6,N,0,right,0.499576272,1,0,,,,,,,,,,,,,,,,,,,,,,,,,,,,,,,,,,,,,,,,,,,,,,,,,,,,,,,,,,,,,,,,,,,,,,,,,,
,,,,,,calibration,0,5,2,202,7,V,1,left,0.611876787,1,0,,,,,,,,,,,,,,,,,,,,,,,,,,,,,,,,,,,,,,,,,,,,,,,,,,,,,,,,,,,,,,,,,,,,,,,,,,
,,,,,,calibration,0,5,2,202,8,N,1,left,0.595426349,1,0,,,,,,,,,,,,,,,,,,,,,,,,,,,,,,,,,,,,,,,,,,,,,,,,,,,,,,,,,,,,,,,,,,,,,,,,,,
,,,,,,calibration,0,5,2,202,9,C,0,right,0.420166578,1,0,,,,,,,,,,,,,,,,,,,,,,,,,,,,,,,,,,,,,,,,,,,,,,,,,,,,,,,,,,,,,,,,,,,,,,,,,,
,,,,,,calibration,0,5,2,202,10,N,1,left,0.517559303,1,0,,,,,,,,,,,,,,,,,,,,,,,,,,,,,,,,,,,,,,,,,,,,,,,,,,,,,,,,,,,,,,,,,,,,,,,,,,
,,,,,,calibration,0,5,2,202,11,F,0,right,0.845088213,1,0,,,,,,,,,,,,,,,,,,,,,,,,,,,,,,,,,,,,,,,,,,,,,,,,,,,,,,,,,,,,,,,,,,,,,,,,,,
,,,,,,calibration,0,5,2,202,12,J,0,right,0.415874762,1,0,,,,,,,,,,,,,,,,,,,,,,,,,,,,,,,,,,,,,,,,,,,,,,,,,,,,,,,,,,,,,,,,,,,,,,,,,,
,,,,,,calibration,0,5,2,202,13,X,0,right,0.594304241,1,0,,,,,,,,,,,,,,,,,,,,,,,,,,,,,,,,,,,,,,,,,,,,,,,,,,,,,,,,,,,,,,,,,,,,,,,,,,
,,,,,,calibration,0,5,2,202,14,J,1,left,0.483698751,1,0,,,,,,,,,,,,,,,,,,,,,,,,,,,,,,,,,,,,,,,,,,,,,,,,,,,,,,,,,,,,,,,,,,,,,,,,,,
,,,,,,calibration,0,5,2,202,15,N,0,right,0.48009995,1,0,,,,,,,,,,,,,,,,,,,,,,,,,,,,,,,,,,,,,,,,,,,,,,,,,,,,,,,,,,,,,,,,,,,,,,,,,,
,,,,,,calibration,0,5,2,202,16,C,0,right,0.761468758,1,0,,,,,,,,,,,,,,,,,,,,,,,,,,,,,,,,,,,,,,,,,,,,,,,,,,,,,,,,,,,,,,,,,,,,,,,,,,
,,,,,,calibration,0,5,2,202,17,V,0,right,0.961544144,1,0,,,,,,,,,,,,,,,,,,,,,,,,,,,,,,,,,,,,,,,,,,,,,,,,,,,,,,,,,,,,,,,,,,,,,,,,,,
,,,,,,calibration,0,5,2,202,18,X,0,right,0.797180749,1,0,,,,,,,,,,,,,,,,,,,,,,,,,,,,,,,,,,,,,,,,,,,,,,,,,,,,,,,,,,,,,,,,,,,,,,,,,,
,,,,,,calibration,0,5,2,202,19,F,0,right,nan,0,1,,,,,,,,,,,,,,,,,,,,,,,,,,,,,,,,,,,,,,,,,,,,,,,,,,,,,,,,,,,,,,,,,,,,,,,,,,
,,,,,,calibration,0,5,2,202,20,V,0,right,0.310080768,1,0,,,,,,,,,,,,,,,,,,,,,,,,,,,,,,,,,,,,,,,,,,,,,,,,,,,,,,,,,,,,,,,,,,,,,,,,,,
,,,,,,calibration,0,5,2,202,21,N,0,right,0.275966017,1,0,,,,,,,,,,,,,,,,,,,,,,,,,,,,,,,,,,,,,,,,,,,,,,,,,,,,,,,,,,,,,,,,,,,,,,,,,,
,,,,,,calibration,0,5,2,202,,,,,,,,1,1,0,1,0.047619048,0.952380952,0.588629027,6,0,0,1,1,14,20,6,15,0,,,,,,,,,,,,,,,,,,,,,,,,,,,,,,,,,,,,,,,,,,,,,,,,,,,,,,,,,
,,,,,,Calibration,0,,2,202,,,,,,,,,,,,,,,,,,,,,,,,,7,,,,,,,,,,,,,,,,,,,,,,,,,,,,,,,,,,,,,,,,,,,,,,,,,,,,,,,,
,,,,,,calibration,0,27,2,159,1,V,0,right,0.845190803,1,0,,,,,,,,,,,,,,,,,,,,,,,,,,,,,,,,,,,,,,,,,,,,,,,,,,,,,,,,,,,,,,,,,,,,,,,,,,
,,,,,,calibration,0,27,2,159,2,Q,0,right,0.105938816,1,0,,,,,,,,,,,,,,,,,,,,,,,,,,,,,,,,,,,,,,,,,,,,,,,,,,,,,,,,,,,,,,,,,,,,,,,,,,
,,,,,,calibration,0,27,2,159,3,V,1,left,0.545331255,1,0,,,,,,,,,,,,,,,,,,,,,,,,,,,,,,,,,,,,,,,,,,,,,,,,,,,,,,,,,,,,,,,,,,,,,,,,,,
,,,,,,calibration,0,27,2,159,4,J,0,right,0.427798719,1,0,,,,,,,,,,,,,,,,,,,,,,,,,,,,,,,,,,,,,,,,,,,,,,,,,,,,,,,,,,,,,,,,,,,,,,,,,,
,,,,,,calibration,0,27,2,159,5,F,0,right,0.728027677,1,0,,,,,,,,,,,,,,,,,,,,,,,,,,,,,,,,,,,,,,,,,,,,,,,,,,,,,,,,,,,,,,,,,,,,,,,,,,
,,,,,,calibration,0,27,2,159,6,X,0,right,0.645370408,1,0,,,,,,,,,,,,,,,,,,,,,,,,,,,,,,,,,,,,,,,,,,,,,,,,,,,,,,,,,,,,,,,,,,,,,,,,,,
,,,,,,calibration,0,27,2,159,7,Q,0,right,0.576709751,1,0,,,,,,,,,,,,,,,,,,,,,,,,,,,,,,,,,,,,,,,,,,,,,,,,,,,,,,,,,,,,,,,,,,,,,,,,,,
,,,,,,calibration,0,27,2,159,8,X,1,left,0.780162929,1,0,,,,,,,,,,,,,,,,,,,,,,,,,,,,,,,,,,,,,,,,,,,,,,,,,,,,,,,,,,,,,,,,,,,,,,,,,,
,,,,,,calibration,0,27,2,159,9,Q,1,right,0.628365655,0,0,,,,,,,,,,,,,,,,,,,,,,,,,,,,,,,,,,,,,,,,,,,,,,,,,,,,,,,,,,,,,,,,,,,,,,,,,,
,,,,,,calibration,0,27,2,159,10,F,0,right,nan,0,1,,,,,,,,,,,,,,,,,,,,,,,,,,,,,,,,,,,,,,,,,,,,,,,,,,,,,,,,,,,,,,,,,,,,,,,,,,
,,,,,,calibration,0,27,2,159,11,X,0,right,0.778333723,1,0,,,,,,,,,,,,,,,,,,,,,,,,,,,,,,,,,,,,,,,,,,,,,,,,,,,,,,,,,,,,,,,,,,,,,,,,,,
,,,,,,calibration,0,27,2,159,12,F,1,left,0.680645494,1,0,,,,,,,,,,,,,,,,,,,,,,,,,,,,,,,,,,,,,,,,,,,,,,,,,,,,,,,,,,,,,,,,,,,,,,,,,,
,,,,,,calibration,0,27,2,159,13,S,0,right,0.561200715,1,0,,,,,,,,,,,,,,,,,,,,,,,,,,,,,,,,,,,,,,,,,,,,,,,,,,,,,,,,,,,,,,,,,,,,,,,,,,
,,,,,,calibration,0,27,2,159,14,X,0,left,0.611494641,0,0,,,,,,,,,,,,,,,,,,,,,,,,,,,,,,,,,,,,,,,,,,,,,,,,,,,,,,,,,,,,,,,,,,,,,,,,,,
,,,,,,calibration,0,27,2,159,15,Q,0,right,0.694714118,1,0,,,,,,,,,,,,,,,,,,,,,,,,,,,,,,,,,,,,,,,,,,,,,,,,,,,,,,,,,,,,,,,,,,,,,,,,,,
,,,,,,calibration,0,27,2,159,16,J,0,right,0.597275934,1,0,,,,,,,,,,,,,,,,,,,,,,,,,,,,,,,,,,,,,,,,,,,,,,,,,,,,,,,,,,,,,,,,,,,,,,,,,,
,,,,,,calibration,0,27,2,159,17,C,0,right,0.473542129,1,0,,,,,,,,,,,,,,,,,,,,,,,,,,,,,,,,,,,,,,,,,,,,,,,,,,,,,,,,,,,,,,,,,,,,,,,,,,
,,,,,,calibration,0,27,2,159,18,Q,0,left,0.611946035,0,0,,,,,,,,,,,,,,,,,,,,,,,,,,,,,,,,,,,,,,,,,,,,,,,,,,,,,,,,,,,,,,,,,,,,,,,,,,
,,,,,,calibration,0,27,2,159,19,C,1,left,0.417822111,1,0,,,,,,,,,,,,,,,,,,,,,,,,,,,,,,,,,,,,,,,,,,,,,,,,,,,,,,,,,,,,,,,,,,,,,,,,,,
,,,,,,calibration,0,27,2,159,20,N,0,right,0.443614524,1,0,,,,,,,,,,,,,,,,,,,,,,,,,,,,,,,,,,,,,,,,,,,,,,,,,,,,,,,,,,,,,,,,,,,,,,,,,,
,,,,,,calibration,0,27,2,159,21,C,1,left,0.61403842,1,0,,,,,,,,,,,,,,,,,,,,,,,,,,,,,,,,,,,,,,,,,,,,,,,,,,,,,,,,,,,,,,,,,,,,,,,,,,
,,,,,,calibration,0,27,2,159,22,N,1,left,0.794963283,1,0,,,,,,,,,,,,,,,,,,,,,,,,,,,,,,,,,,,,,,,,,,,,,,,,,,,,,,,,,,,,,,,,,,,,,,,,,,
,,,,,,calibration,0,27,2,159,,,,,,,,0.911904762,0.857142857,0.133333333,0.857142857,0.045454545,0.821212121,0.598213673,6,2,0,1,1,12,18,7,15,0,,,,,,,,,,,,,,,,,,,,,,,,,,,,,,,,,,,,,,,,,,,,,,,,,,,,,,,,,
,,,,,,Calibration,0,,2,159,,,,,,,,,,,,,,,,,,,,,,,,,8,,,,,,,,,,,,,,,,,,,,,,,,,,,,,,,,,,,,,,,,,,,,,,,,,,,,,,,,
,,,,,,calibration,0,13,2,120,1,C,0,left,0.663948209,0,0,,,,,,,,,,,,,,,,,,,,,,,,,,,,,,,,,,,,,,,,,,,,,,,,,,,,,,,,,,,,,,,,,,,,,,,,,,
,,,,,,calibration,0,13,2,120,2,S,0,right,0.545456902,1,0,,,,,,,,,,,,,,,,,,,,,,,,,,,,,,,,,,,,,,,,,,,,,,,,,,,,,,,,,,,,,,,,,,,,,,,,,,
,,,,,,calibration,0,13,2,120,3,C,1,left,0.470908046,1,0,,,,,,,,,,,,,,,,,,,,,,,,,,,,,,,,,,,,,,,,,,,,,,,,,,,,,,,,,,,,,,,,,,,,,,,,,,
,,,,,,calibration,0,13,2,120,4,X,0,right,0.405698462,1,0,,,,,,,,,,,,,,,,,,,,,,,,,,,,,,,,,,,,,,,,,,,,,,,,,,,,,,,,,,,,,,,,,,,,,,,,,,
,,,,,,calibration,0,13,2,120,5,J,0,right,0.494840038,1,0,,,,,,,,,,,,,,,,,,,,,,,,,,,,,,,,,,,,,,,,,,,,,,,,,,,,,,,,,,,,,,,,,,,,,,,,,,
,,,,,,calibration,0,13,2,120,6,Q,0,right,0.645246583,1,0,,,,,,,,,,,,,,,,,,,,,,,,,,,,,,,,,,,,,,,,,,,,,,,,,,,,,,,,,,,,,,,,,,,,,,,,,,
,,,,,,calibration,0,13,2,120,7,F,0,right,0.517205035,1,0,,,,,,,,,,,,,,,,,,,,,,,,,,,,,,,,,,,,,,,,,,,,,,,,,,,,,,,,,,,,,,,,,,,,,,,,,,
,,,,,,calibration,0,13,2,120,8,S,0,left,0.545228633,0,0,,,,,,,,,,,,,,,,,,,,,,,,,,,,,,,,,,,,,,,,,,,,,,,,,,,,,,,,,,,,,,,,,,,,,,,,,,
,,,,,,calibration,0,13,2,120,9,F,1,left,0.711936584,1,0,,,,,,,,,,,,,,,,,,,,,,,,,,,,,,,,,,,,,,,,,,,,,,,,,,,,,,,,,,,,,,,,,,,,,,,,,,
,,,,,,calibration,0,13,2,120,10,V,0,left,0.680207427,0,0,,,,,,,,,,,,,,,,,,,,,,,,,,,,,,,,,,,,,,,,,,,,,,,,,,,,,,,,,,,,,,,,,,,,,,,,,,
,,,,,,calibration,0,13,2,120,11,J,0,right,0.436798454,1,0,,,,,,,,,,,,,,,,,,,,,,,,,,,,,,,,,,,,,,,,,,,,,,,,,,,,,,,,,,,,,,,,,,,,,,,,,,
,,,,,,calibration,0,13,2,120,12,F,0,right,0.628381568,1,0,,,,,,,,,,,,,,,,,,,,,,,,,,,,,,,,,,,,,,,,,,,,,,,,,,,,,,,,,,,,,,,,,,,,,,,,,,
,,,,,,calibration,0,13,2,120,13,N,0,right,0.628057685,1,0,,,,,,,,,,,,,,,,,,,,,,,,,,,,,,,,,,,,,,,,,,,,,,,,,,,,,,,,,,,,,,,,,,,,,,,,,,
,,,,,,calibration,0,13,2,120,14,C,0,right,0.046106864,1,0,,,,,,,,,,,,,,,,,,,,,,,,,,,,,,,,,,,,,,,,,,,,,,,,,,,,,,,,,,,,,,,,,,,,,,,,,,
,,,,,,calibration,0,13,2,120,15,V,0,right,0.08455957,1,0,,,,,,,,,,,,,,,,,,,,,,,,,,,,,,,,,,,,,,,,,,,,,,,,,,,,,,,,,,,,,,,,,,,,,,,,,,
,,,,,,calibration,0,13,2,120,16,X,0,right,nan,0,1,,,,,,,,,,,,,,,,,,,,,,,,,,,,,,,,,,,,,,,,,,,,,,,,,,,,,,,,,,,,,,,,,,,,,,,,,,
,,,,,,calibration,0,13,2,120,17,V,1,right,nan,0,1,,,,,,,,,,,,,,,,,,,,,,,,,,,,,,,,,,,,,,,,,,,,,,,,,,,,,,,,,,,,,,,,,,,,,,,,,,
,,,,,,calibration,0,13,2,120,18,X,1,right,0.246669546,0,0,,,,,,,,,,,,,,,,,,,,,,,,,,,,,,,,,,,,,,,,,,,,,,,,,,,,,,,,,,,,,,,,,,,,,,,,,,
,,,,,,calibration,0,13,2,120,19,J,0,right,nan,0,1,,,,,,,,,,,,,,,,,,,,,,,,,,,,,,,,,,,,,,,,,,,,,,,,,,,,,,,,,,,,,,,,,,,,,,,,,,
,,,,,,calibration,0,13,2,120,20,C,0,left,0.430508476,0,0,,,,,,,,,,,,,,,,,,,,,,,,,,,,,,,,,,,,,,,,,,,,,,,,,,,,,,,,,,,,,,,,,,,,,,,,,,
,,,,,,calibration,0,13,2,120,21,S,0,right,0.327658469,1,0,,,,,,,,,,,,,,,,,,,,,,,,,,,,,,,,,,,,,,,,,,,,,,,,,,,,,,,,,,,,,,,,,,,,,,,,,,
,,,,,,calibration,0,13,2,120,22,C,1,right,nan,0,1,,,,,,,,,,,,,,,,,,,,,,,,,,,,,,,,,,,,,,,,,,,,,,,,,,,,,,,,,,,,,,,,,,,,,,,,,,
,,,,,,calibration,0,13,2,120,23,S,1,left,0.246167257,1,0,,,,,,,,,,,,,,,,,,,,,,,,,,,,,,,,,,,,,,,,,,,,,,,,,,,,,,,,,,,,,,,,,,,,,,,,,,
,,,,,,calibration,0,13,2,120,,,,,,,,0.698529412,0.5,0.235294118,0.733333333,0.173913043,0.590792839,0.4608202,3,4,2,2,4,11,14,6,17,0,,,,,,,,,,,,,,,,,,,,,,,,,,,,,,,,,,,,,,,,,,,,,,,,,,,,,,,,,
,,,,,,Calibration,0,,2,120,,,,,,,,,,,,,,,,,,,,,,,,,9,,,,,,,,,,,,,,,,,,,,,,,,,,,,,,,,,,,,,,,,,,,,,,,,,,,,,,,,
,,,,,,calibration,0,5,2,159,1,S,0,None,nan,0,1,,,,,,,,,,,,,,,,,,,,,,,,,,,,,,,,,,,,,,,,,,,,,,,,,,,,,,,,,,,,,,,,,,,,,,,,,,
,,,,,,calibration,0,5,2,159,2,C,0,right,0.360020721,1,0,,,,,,,,,,,,,,,,,,,,,,,,,,,,,,,,,,,,,,,,,,,,,,,,,,,,,,,,,,,,,,,,,,,,,,,,,,
,,,,,,calibration,0,5,2,159,3,Q,0,right,0.61180562,1,0,,,,,,,,,,,,,,,,,,,,,,,,,,,,,,,,,,,,,,,,,,,,,,,,,,,,,,,,,,,,,,,,,,,,,,,,,,
,,,,,,calibration,0,5,2,159,4,F,0,right,0.527461024,1,0,,,,,,,,,,,,,,,,,,,,,,,,,,,,,,,,,,,,,,,,,,,,,,,,,,,,,,,,,,,,,,,,,,,,,,,,,,
,,,,,,calibration,0,5,2,159,5,C,0,right,0.561255683,1,0,,,,,,,,,,,,,,,,,,,,,,,,,,,,,,,,,,,,,,,,,,,,,,,,,,,,,,,,,,,,,,,,,,,,,,,,,,
,,,,,,calibration,0,5,2,159,6,F,1,left,0.377770911,1,0,,,,,,,,,,,,,,,,,,,,,,,,,,,,,,,,,,,,,,,,,,,,,,,,,,,,,,,,,,,,,,,,,,,,,,,,,,
,,,,,,calibration,0,5,2,159,7,C,1,left,0.563378551,1,0,,,,,,,,,,,,,,,,,,,,,,,,,,,,,,,,,,,,,,,,,,,,,,,,,,,,,,,,,,,,,,,,,,,,,,,,,,
,,,,,,calibration,0,5,2,159,8,J,0,right,0.30161296,1,0,,,,,,,,,,,,,,,,,,,,,,,,,,,,,,,,,,,,,,,,,,,,,,,,,,,,,,,,,,,,,,,,,,,,,,,,,,
,,,,,,calibration,0,5,2,159,9,C,1,left,0.395300036,1,0,,,,,,,,,,,,,,,,,,,,,,,,,,,,,,,,,,,,,,,,,,,,,,,,,,,,,,,,,,,,,,,,,,,,,,,,,,
,,,,,,calibration,0,5,2,159,10,S,0,right,0.421776283,1,0,,,,,,,,,,,,,,,,,,,,,,,,,,,,,,,,,,,,,,,,,,,,,,,,,,,,,,,,,,,,,,,,,,,,,,,,,,
,,,,,,calibration,0,5,2,159,11,F,0,left,0.642714414,0,0,,,,,,,,,,,,,,,,,,,,,,,,,,,,,,,,,,,,,,,,,,,,,,,,,,,,,,,,,,,,,,,,,,,,,,,,,,
,,,,,,calibration,0,5,2,159,12,J,0,left,0.664030158,0,0,,,,,,,,,,,,,,,,,,,,,,,,,,,,,,,,,,,,,,,,,,,,,,,,,,,,,,,,,,,,,,,,,,,,,,,,,,
,,,,,,calibration,0,5,2,159,13,F,1,left,0.628066493,1,0,,,,,,,,,,,,,,,,,,,,,,,,,,,,,,,,,,,,,,,,,,,,,,,,,,,,,,,,,,,,,,,,,,,,,,,,,,
,,,,,,calibration,0,5,2,159,14,Q,0,right,0.363753122,1,0,,,,,,,,,,,,,,,,,,,,,,,,,,,,,,,,,,,,,,,,,,,,,,,,,,,,,,,,,,,,,,,,,,,,,,,,,,
,,,,,,calibration,0,5,2,159,15,F,1,left,0.595317916,1,0,,,,,,,,,,,,,,,,,,,,,,,,,,,,,,,,,,,,,,,,,,,,,,,,,,,,,,,,,,,,,,,,,,,,,,,,,,
,,,,,,calibration,0,5,2,159,16,V,0,right,0.545946665,1,0,,,,,,,,,,,,,,,,,,,,,,,,,,,,,,,,,,,,,,,,,,,,,,,,,,,,,,,,,,,,,,,,,,,,,,,,,,
,,,,,,calibration,0,5,2,159,17,C,0,right,0.577852499,1,0,,,,,,,,,,,,,,,,,,,,,,,,,,,,,,,,,,,,,,,,,,,,,,,,,,,,,,,,,,,,,,,,,,,,,,,,,,
,,,,,,calibration,0,5,2,159,18,F,0,right,nan,0,1,,,,,,,,,,,,,,,,,,,,,,,,,,,,,,,,,,,,,,,,,,,,,,,,,,,,,,,,,,,,,,,,,,,,,,,,,,
,,,,,,calibration,0,5,2,159,19,V,0,left,0.342436391,0,0,,,,,,,,,,,,,,,,,,,,,,,,,,,,,,,,,,,,,,,,,,,,,,,,,,,,,,,,,,,,,,,,,,,,,,,,,,
,,,,,,calibration,0,5,2,159,20,J,0,left,nan,0,1,,,,,,,,,,,,,,,,,,,,,,,,,,,,,,,,,,,,,,,,,,,,,,,,,,,,,,,,,,,,,,,,,,,,,,,,,,
,,,,,,calibration,0,5,2,159,21,C,0,right,0.48227999,1,0,,,,,,,,,,,,,,,,,,,,,,,,,,,,,,,,,,,,,,,,,,,,,,,,,,,,,,,,,,,,,,,,,,,,,,,,,,
,,,,,,calibration,0,5,2,159,22,J,1,left,0.457531678,1,0,,,,,,,,,,,,,,,,,,,,,,,,,,,,,,,,,,,,,,,,,,,,,,,,,,,,,,,,,,,,,,,,,,,,,,,,,,
,,,,,,calibration,0,5,2,159,,,,,,,,0.953125,1,0.1875,0.769230769,0.136363636,0.676136364,0.495805848,6,3,0,3,3,10,16,6,16,0,,,,,,,,,,,,,,,,,,,,,,,,,,,,,,,,,,,,,,,,,,,,,,,,,,,,,,,,,
,,,,,,Calibration,0,,2,159,,,,,,,,,,,,,,,,,,,,,,,,,10,,,,,,,,,,,,,,,,,,,,,,,,,,,,,,,,,,,,,,,,,,,,,,,,,,,,,,,,
,,,,,,calibration,0,13,2,120,1,C,0,right,0.466246035,1,0,,,,,,,,,,,,,,,,,,,,,,,,,,,,,,,,,,,,,,,,,,,,,,,,,,,,,,,,,,,,,,,,,,,,,,,,,,
,,,,,,calibration,0,13,2,120,2,S,0,right,0.611836749,1,0,,,,,,,,,,,,,,,,,,,,,,,,,,,,,,,,,,,,,,,,,,,,,,,,,,,,,,,,,,,,,,,,,,,,,,,,,,
,,,,,,calibration,0,13,2,120,3,C,1,right,0.32891289,0,0,,,,,,,,,,,,,,,,,,,,,,,,,,,,,,,,,,,,,,,,,,,,,,,,,,,,,,,,,,,,,,,,,,,,,,,,,,
,,,,,,calibration,0,13,2,120,4,X,0,right,0.56151589,1,0,,,,,,,,,,,,,,,,,,,,,,,,,,,,,,,,,,,,,,,,,,,,,,,,,,,,,,,,,,,,,,,,,,,,,,,,,,
,,,,,,calibration,0,13,2,120,5,J,0,right,0.496558914,1,0,,,,,,,,,,,,,,,,,,,,,,,,,,,,,,,,,,,,,,,,,,,,,,,,,,,,,,,,,,,,,,,,,,,,,,,,,,
,,,,,,calibration,0,13,2,120,6,Q,0,right,0.711746879,1,0,,,,,,,,,,,,,,,,,,,,,,,,,,,,,,,,,,,,,,,,,,,,,,,,,,,,,,,,,,,,,,,,,,,,,,,,,,
,,,,,,calibration,0,13,2,120,7,F,0,right,0.473885161,1,0,,,,,,,,,,,,,,,,,,,,,,,,,,,,,,,,,,,,,,,,,,,,,,,,,,,,,,,,,,,,,,,,,,,,,,,,,,
,,,,,,calibration,0,13,2,120,8,S,0,right,0.728042971,1,0,,,,,,,,,,,,,,,,,,,,,,,,,,,,,,,,,,,,,,,,,,,,,,,,,,,,,,,,,,,,,,,,,,,,,,,,,,
,,,,,,calibration,0,13,2,120,9,F,1,left,0.421567498,1,0,,,,,,,,,,,,,,,,,,,,,,,,,,,,,,,,,,,,,,,,,,,,,,,,,,,,,,,,,,,,,,,,,,,,,,,,,,
,,,,,,calibration,0,13,2,120,10,V,0,right,0.519089308,1,0,,,,,,,,,,,,,,,,,,,,,,,,,,,,,,,,,,,,,,,,,,,,,,,,,,,,,,,,,,,,,,,,,,,,,,,,,,
,,,,,,calibration,0,13,2,120,11,J,0,right,0.678398278,1,0,,,,,,,,,,,,,,,,,,,,,,,,,,,,,,,,,,,,,,,,,,,,,,,,,,,,,,,,,,,,,,,,,,,,,,,,,,
,,,,,,calibration,0,13,2,120,12,F,0,right,0.26371531,1,0,,,,,,,,,,,,,,,,,,,,,,,,,,,,,,,,,,,,,,,,,,,,,,,,,,,,,,,,,,,,,,,,,,,,,,,,,,
,,,,,,calibration,0,13,2,120,13,N,0,right,0.677875881,1,0,,,,,,,,,,,,,,,,,,,,,,,,,,,,,,,,,,,,,,,,,,,,,,,,,,,,,,,,,,,,,,,,,,,,,,,,,,
,,,,,,calibration,0,13,2,120,14,C,0,right,0.477454886,1,0,,,,,,,,,,,,,,,,,,,,,,,,,,,,,,,,,,,,,,,,,,,,,,,,,,,,,,,,,,,,,,,,,,,,,,,,,,
,,,,,,calibration,0,13,2,120,15,V,0,right,0.50064914,1,0,,,,,,,,,,,,,,,,,,,,,,,,,,,,,,,,,,,,,,,,,,,,,,,,,,,,,,,,,,,,,,,,,,,,,,,,,,
,,,,,,calibration,0,13,2,120,16,X,0,right,0.400218625,1,0,,,,,,,,,,,,,,,,,,,,,,,,,,,,,,,,,,,,,,,,,,,,,,,,,,,,,,,,,,,,,,,,,,,,,,,,,,
,,,,,,calibration,0,13,2,120,17,V,1,left,0.314650705,1,0,,,,,,,,,,,,,,,,,,,,,,,,,,,,,,,,,,,,,,,,,,,,,,,,,,,,,,,,,,,,,,,,,,,,,,,,,,
,,,,,,calibration,0,13,2,120,18,X,1,right,0.57896338,0,0,,,,,,,,,,,,,,,,,,,,,,,,,,,,,,,,,,,,,,,,,,,,,,,,,,,,,,,,,,,,,,,,,,,,,,,,,,
,,,,,,calibration,0,13,2,120,19,J,0,right,0.578837762,1,0,,,,,,,,,,,,,,,,,,,,,,,,,,,,,,,,,,,,,,,,,,,,,,,,,,,,,,,,,,,,,,,,,,,,,,,,,,
,,,,,,calibration,0,13,2,120,20,C,0,right,0.45839258,1,0,,,,,,,,,,,,,,,,,,,,,,,,,,,,,,,,,,,,,,,,,,,,,,,,,,,,,,,,,,,,,,,,,,,,,,,,,,
,,,,,,calibration,0,13,2,120,21,S,0,right,0.369948413,1,0,,,,,,,,,,,,,,,,,,,,,,,,,,,,,,,,,,,,,,,,,,,,,,,,,,,,,,,,,,,,,,,,,,,,,,,,,,
,,,,,,calibration,0,13,2,120,22,C,1,right,0.54566268,0,0,,,,,,,,,,,,,,,,,,,,,,,,,,,,,,,,,,,,,,,,,,,,,,,,,,,,,,,,,,,,,,,,,,,,,,,,,,
,,,,,,calibration,0,13,2,120,23,S,1,right,0.304571328,0,0,,,,,,,,,,,,,,,,,,,,,,,,,,,,,,,,,,,,,,,,,,,,,,,,,,,,,,,,,,,,,,,,,,,,,,,,,,
,,,,,,calibration,0,13,2,120,,,,,,,,0.833333333,0.333333333,0,1,0,1,0.498640924,2,0,0,0,0,17,19,6,17,0,,,,,,,,,,,,,,,,,,,,,,,,,,,,,,,,,,,,,,,,,,,,,,,,,,,,,,,,,
,,,,,,Calibration,0,,2,120,,,,,,,,,,,,,,,,,,,,,,,,,11,,,,,,,,,,,,,,,,,,,,,,,,,,,,,,,,,,,,,,,,,,,,,,,,,,,,,,,,
,,,,,,calibration,0,10,2,120,1,S,0,right,0.47088739,1,0,,,,,,,,,,,,,,,,,,,,,,,,,,,,,,,,,,,,,,,,,,,,,,,,,,,,,,,,,,,,,,,,,,,,,,,,,,
,,,,,,calibration,0,10,2,120,2,Q,0,right,0.245776505,1,0,,,,,,,,,,,,,,,,,,,,,,,,,,,,,,,,,,,,,,,,,,,,,,,,,,,,,,,,,,,,,,,,,,,,,,,,,,
,,,,,,calibration,0,10,2,120,3,C,0,right,0.711500771,1,0,,,,,,,,,,,,,,,,,,,,,,,,,,,,,,,,,,,,,,,,,,,,,,,,,,,,,,,,,,,,,,,,,,,,,,,,,,
,,,,,,calibration,0,10,2,120,4,V,0,right,0.467049991,1,0,,,,,,,,,,,,,,,,,,,,,,,,,,,,,,,,,,,,,,,,,,,,,,,,,,,,,,,,,,,,,,,,,,,,,,,,,,
,,,,,,calibration,0,10,2,120,5,C,1,left,0.496896355,1,0,,,,,,,,,,,,,,,,,,,,,,,,,,,,,,,,,,,,,,,,,,,,,,,,,,,,,,,,,,,,,,,,,,,,,,,,,,
,,,,,,calibration,0,10,2,120,6,J,0,right,0.795229778,1,0,,,,,,,,,,,,,,,,,,,,,,,,,,,,,,,,,,,,,,,,,,,,,,,,,,,,,,,,,,,,,,,,,,,,,,,,,,
,,,,,,calibration,0,10,2,120,7,V,0,right,0.911930106,1,0,,,,,,,,,,,,,,,,,,,,,,,,,,,,,,,,,,,,,,,,,,,,,,,,,,,,,,,,,,,,,,,,,,,,,,,,,,
,,,,,,calibration,0,10,2,120,8,J,1,left,0.517717269,1,0,,,,,,,,,,,,,,,,,,,,,,,,,,,,,,,,,,,,,,,,,,,,,,,,,,,,,,,,,,,,,,,,,,,,,,,,,,
,,,,,,calibration,0,10,2,120,9,C,0,right,0.828725429,1,0,,,,,,,,,,,,,,,,,,,,,,,,,,,,,,,,,,,,,,,,,,,,,,,,,,,,,,,,,,,,,,,,,,,,,,,,,,
,,,,,,calibration,0,10,2,120,10,X,0,right,0.561816121,1,0,,,,,,,,,,,,,,,,,,,,,,,,,,,,,,,,,,,,,,,,,,,,,,,,,,,,,,,,,,,,,,,,,,,,,,,,,,
,,,,,,calibration,0,10,2,120,11,S,0,right,0.694407538,1,0,,,,,,,,,,,,,,,,,,,,,,,,,,,,,,,,,,,,,,,,,,,,,,,,,,,,,,,,,,,,,,,,,,,,,,,,,,
,,,,,,calibration,0,10,2,120,12,V,0,right,0.527366818,1,0,,,,,,,,,,,,,,,,,,,,,,,,,,,,,,,,,,,,,,,,,,,,,,,,,,,,,,,,,,,,,,,,,,,,,,,,,,
,,,,,,calibration,0,10,2,120,13,J,0,right,0.944936379,1,0,,,,,,,,,,,,,,,,,,,,,,,,,,,,,,,,,,,,,,,,,,,,,,,,,,,,,,,,,,,,,,,,,,,,,,,,,,
,,,,,,calibration,0,10,2,120,14,V,1,left,0.795314504,1,0,,,,,,,,,,,,,,,,,,,,,,,,,,,,,,,,,,,,,,,,,,,,,,,,,,,,,,,,,,,,,,,,,,,,,,,,,,
,,,,,,calibration,0,10,2,120,15,Q,0,right,0.611231982,1,0,,,,,,,,,,,,,,,,,,,,,,,,,,,,,,,,,,,,,,,,,,,,,,,,,,,,,,,,,,,,,,,,,,,,,,,,,,
,,,,,,calibration,0,10,2,120,16,V,1,left,0.457361158,1,0,,,,,,,,,,,,,,,,,,,,,,,,,,,,,,,,,,,,,,,,,,,,,,,,,,,,,,,,,,,,,,,,,,,,,,,,,,
,,,,,,calibration,0,10,2,120,17,F,0,right,0.694500524,1,0,,,,,,,,,,,,,,,,,,,,,,,,,,,,,,,,,,,,,,,,,,,,,,,,,,,,,,,,,,,,,,,,,,,,,,,,,,
,,,,,,calibration,0,10,2,120,18,X,0,right,nan,0,1,,,,,,,,,,,,,,,,,,,,,,,,,,,,,,,,,,,,,,,,,,,,,,,,,,,,,,,,,,,,,,,,,,,,,,,,,,
,,,,,,calibration,0,10,2,120,19,F,1,right,0.894839188,0,0,,,,,,,,,,,,,,,,,,,,,,,,,,,,,,,,,,,,,,,,,,,,,,,,,,,,,,,,,,,,,,,,,,,,,,,,,,
,,,,,,calibration,0,10,2,120,20,V,0,left,0.913936916,0,0,,,,,,,,,,,,,,,,,,,,,,,,,,,,,,,,,,,,,,,,,,,,,,,,,,,,,,,,,,,,,,,,,,,,,,,,,,
,,,,,,calibration,0,10,2,120,21,F,1,right,0.711608063,0,0,,,,,,,,,,,,,,,,,,,,,,,,,,,,,,,,,,,,,,,,,,,,,,,,,,,,,,,,,,,,,,,,,,,,,,,,,,
,,,,,,calibration,0,10,2,120,22,C,0,right,nan,0,1,,,,,,,,,,,,,,,,,,,,,,,,,,,,,,,,,,,,,,,,,,,,,,,,,,,,,,,,,,,,,,,,,,,,,,,,,,
,,,,,,calibration,0,10,2,120,23,F,1,left,0.221203984,1,0,,,,,,,,,,,,,,,,,,,,,,,,,,,,,,,,,,,,,,,,,,,,,,,,,,,,,,,,,,,,,,,,,,,,,,,,,,
,,,,,,calibration,0,10,2,120,,,,,,,,0.895089286,0.714285714,0.0625,0.928571429,0.086956522,0.850543478,0.641630322,5,1,0,2,2,13,18,7,16,0,,,,,,,,,,,,,,,,,,,,,,,,,,,,,,,,,,,,,,,,,,,,,,,,,,,,,,,,,
,,,,,,Calibration,0,,2,120,,,,,,,,,,,,,,,,,,,,,,,,,12,,,,,,,,,,,,,,,,,,,,,,,,,,,,,,,,,,,,,,,,,,,,,,,,,,,,,,,,
,,,,,,calibration,0,30,2,83,1,F,0,right,0.727902451,1,0,,,,,,,,,,,,,,,,,,,,,,,,,,,,,,,,,,,,,,,,,,,,,,,,,,,,,,,,,,,,,,,,,,,,,,,,,,
,,,,,,calibration,0,30,2,83,2,S,0,right,0.354987185,1,0,,,,,,,,,,,,,,,,,,,,,,,,,,,,,,,,,,,,,,,,,,,,,,,,,,,,,,,,,,,,,,,,,,,,,,,,,,
,,,,,,calibration,0,30,2,83,3,C,0,right,0.610675055,1,0,,,,,,,,,,,,,,,,,,,,,,,,,,,,,,,,,,,,,,,,,,,,,,,,,,,,,,,,,,,,,,,,,,,,,,,,,,
,,,,,,calibration,0,30,2,83,4,Q,0,right,0.562221809,1,0,,,,,,,,,,,,,,,,,,,,,,,,,,,,,,,,,,,,,,,,,,,,,,,,,,,,,,,,,,,,,,,,,,,,,,,,,,
,,,,,,calibration,0,30,2,83,5,X,0,right,0.661199927,1,0,,,,,,,,,,,,,,,,,,,,,,,,,,,,,,,,,,,,,,,,,,,,,,,,,,,,,,,,,,,,,,,,,,,,,,,,,,
,,,,,,calibration,0,30,2,83,6,J,0,right,0.561478515,1,0,,,,,,,,,,,,,,,,,,,,,,,,,,,,,,,,,,,,,,,,,,,,,,,,,,,,,,,,,,,,,,,,,,,,,,,,,,
,,,,,,calibration,0,30,2,83,7,X,1,right,0.458781895,0,0,,,,,,,,,,,,,,,,,,,,,,,,,,,,,,,,,,,,,,,,,,,,,,,,,,,,,,,,,,,,,,,,,,,,,,,,,,
,,,,,,calibration,0,30,2,83,8,J,1,left,0.434455227,1,0,,,,,,,,,,,,,,,,,,,,,,,,,,,,,,,,,,,,,,,,,,,,,,,,,,,,,,,,,,,,,,,,,,,,,,,,,,
,,,,,,calibration,0,30,2,83,9,F,0,left,0.711774806,0,0,,,,,,,,,,,,,,,,,,,,,,,,,,,,,,,,,,,,,,,,,,,,,,,,,,,,,,,,,,,,,,,,,,,,,,,,,,
,,,,,,calibration,0,30,2,83,10,J,1,left,nan,0,1,,,,,,,,,,,,,,,,,,,,,,,,,,,,,,,,,,,,,,,,,,,,,,,,,,,,,,,,,,,,,,,,,,,,,,,,,,
,,,,,,calibration,0,30,2,83,11,Q,0,left,nan,0,1,,,,,,,,,,,,,,,,,,,,,,,,,,,,,,,,,,,,,,,,,,,,,,,,,,,,,,,,,,,,,,,,,,,,,,,,,,
,,,,,,calibration,0,30,2,83,12,J,1,right,0.446902468,0,0,,,,,,,,,,,,,,,,,,,,,,,,,,,,,,,,,,,,,,,,,,,,,,,,,,,,,,,,,,,,,,,,,,,,,,,,,,
,,,,,,calibration,0,30,2,83,13,V,0,right,0.487526172,1,0,,,,,,,,,,,,,,,,,,,,,,,,,,,,,,,,,,,,,,,,,,,,,,,,,,,,,,,,,,,,,,,,,,,,,,,,,,
,,,,,,calibration,0,30,2,83,14,X,0,right,0.728431052,1,0,,,,,,,,,,,,,,,,,,,,,,,,,,,,,,,,,,,,,,,,,,,,,,,,,,,,,,,,,,,,,,,,,,,,,,,,,,
,,,,,,calibration,0,30,2,83,15,V,1,left,0.794841977,1,0,,,,,,,,,,,,,,,,,,,,,,,,,,,,,,,,,,,,,,,,,,,,,,,,,,,,,,,,,,,,,,,,,,,,,,,,,,
,,,,,,calibration,0,30,2,83,16,X,1,left,0.730726097,1,0,,,,,,,,,,,,,,,,,,,,,,,,,,,,,,,,,,,,,,,,,,,,,,,,,,,,,,,,,,,,,,,,,,,,,,,,,,
,,,,,,calibration,0,30,2,83,17,C,0,right,0.438103652,1,0,,,,,,,,,,,,,,,,,,,,,,,,,,,,,,,,,,,,,,,,,,,,,,,,,,,,,,,,,,,,,,,,,,,,,,,,,,
,,,,,,calibration,0,30,2,83,18,X,1,right,nan,0,1,,,,,,,,,,,,,,,,,,,,,,,,,,,,,,,,,,,,,,,,,,,,,,,,,,,,,,,,,,,,,,,,,,,,,,,,,,
,,,,,,calibration,0,30,2,83,19,F,0,left,0.431751644,0,0,,,,,,,,,,,,,,,,,,,,,,,,,,,,,,,,,,,,,,,,,,,,,,,,,,,,,,,,,,,,,,,,,,,,,,,,,,
,,,,,,calibration,0,30,2,83,20,N,0,right,0.629899642,1,0,,,,,,,,,,,,,,,,,,,,,,,,,,,,,,,,,,,,,,,,,,,,,,,,,,,,,,,,,,,,,,,,,,,,,,,,,,
,,,,,,calibration,0,30,2,83,21,V,0,right,0.174874514,1,0,,,,,,,,,,,,,,,,,,,,,,,,,,,,,,,,,,,,,,,,,,,,,,,,,,,,,,,,,,,,,,,,,,,,,,,,,,
,,,,,,calibration,0,30,2,83,22,J,0,right,0.466140143,1,0,,,,,,,,,,,,,,,,,,,,,,,,,,,,,,,,,,,,,,,,,,,,,,,,,,,,,,,,,,,,,,,,,,,,,,,,,,
,,,,,,calibration,0,30,2,83,23,X,0,left,0.497874329,0,0,,,,,,,,,,,,,,,,,,,,,,,,,,,,,,,,,,,,,,,,,,,,,,,,,,,,,,,,,,,,,,,,,,,,,,,,,,
,,,,,,calibration,0,30,2,83,24,V,0,left,0.561224555,0,0,,,,,,,,,,,,,,,,,,,,,,,,,,,,,,,,,,,,,,,,,,,,,,,,,,,,,,,,,,,,,,,,,,,,,,,,,,
,,,,,,calibration,0,30,2,83,,,,,,,,0.661064426,0.428571429,0.235294118,0.75,0.125,0.639705882,0.54627491,3,4,2,1,3,12,15,7,17,0,,,,,,,,,,,,,,,,,,,,,,,,,,,,,,,,,,,,,,,,,,,,,,,,,,,,,,,,,
,,,,,,Calibration,0,,2,83,,,,,,,,,,,,,,,,,,,,,,,,,13,,,,,,,,,,,,,,,,,,,,,,,,,,,,,,,,,,,,,,,,,,,,,,,,,,,,,,,,
,,,,,,calibration,0,18,2,120,1,F,0,right,0.661233527,1,0,,,,,,,,,,,,,,,,,,,,,,,,,,,,,,,,,,,,,,,,,,,,,,,,,,,,,,,,,,,,,,,,,,,,,,,,,,
,,,,,,calibration,0,18,2,120,2,V,0,right,0.250127617,1,0,,,,,,,,,,,,,,,,,,,,,,,,,,,,,,,,,,,,,,,,,,,,,,,,,,,,,,,,,,,,,,,,,,,,,,,,,,
,,,,,,calibration,0,18,2,120,3,Q,0,right,0.813500688,1,0,,,,,,,,,,,,,,,,,,,,,,,,,,,,,,,,,,,,,,,,,,,,,,,,,,,,,,,,,,,,,,,,,,,,,,,,,,
,,,,,,calibration,0,18,2,120,4,V,1,left,0.449150435,1,0,,,,,,,,,,,,,,,,,,,,,,,,,,,,,,,,,,,,,,,,,,,,,,,,,,,,,,,,,,,,,,,,,,,,,,,,,,
,,,,,,calibration,0,18,2,120,5,Q,1,left,0.5452529,1,0,,,,,,,,,,,,,,,,,,,,,,,,,,,,,,,,,,,,,,,,,,,,,,,,,,,,,,,,,,,,,,,,,,,,,,,,,,
,,,,,,calibration,0,18,2,120,6,F,0,left,nan,0,1,,,,,,,,,,,,,,,,,,,,,,,,,,,,,,,,,,,,,,,,,,,,,,,,,,,,,,,,,,,,,,,,,,,,,,,,,,
,,,,,,calibration,0,18,2,120,7,Q,1,left,0.612352676,1,0,,,,,,,,,,,,,,,,,,,,,,,,,,,,,,,,,,,,,,,,,,,,,,,,,,,,,,,,,,,,,,,,,,,,,,,,,,
,,,,,,calibration,0,18,2,120,8,C,0,right,0.269586828,1,0,,,,,,,,,,,,,,,,,,,,,,,,,,,,,,,,,,,,,,,,,,,,,,,,,,,,,,,,,,,,,,,,,,,,,,,,,,
,,,,,,calibration,0,18,2,120,9,X,0,right,0.794713322,1,0,,,,,,,,,,,,,,,,,,,,,,,,,,,,,,,,,,,,,,,,,,,,,,,,,,,,,,,,,,,,,,,,,,,,,,,,,,
,,,,,,calibration,0,18,2,120,10,J,0,right,0.527442721,1,0,,,,,,,,,,,,,,,,,,,,,,,,,,,,,,,,,,,,,,,,,,,,,,,,,,,,,,,,,,,,,,,,,,,,,,,,,,
,,,,,,calibration,0,18,2,120,11,X,1,left,0.578658995,1,0,,,,,,,,,,,,,,,,,,,,,,,,,,,,,,,,,,,,,,,,,,,,,,,,,,,,,,,,,,,,,,,,,,,,,,,,,,
,,,,,,calibration,0,18,2,120,12,Q,0,right,0.630707743,1,0,,,,,,,,,,,,,,,,,,,,,,,,,,,,,,,,,,,,,,,,,,,,,,,,,,,,,,,,,,,,,,,,,,,,,,,,,,
,,,,,,calibration,0,18,2,120,13,J,0,left,0.30718868,0,0,,,,,,,,,,,,,,,,,,,,,,,,,,,,,,,,,,,,,,,,,,,,,,,,,,,,,,,,,,,,,,,,,,,,,,,,,,
,,,,,,calibration,0,18,2,120,14,S,0,right,0.545605299,1,0,,,,,,,,,,,,,,,,,,,,,,,,,,,,,,,,,,,,,,,,,,,,,,,,,,,,,,,,,,,,,,,,,,,,,,,,,,
,,,,,,calibration,0,18,2,120,15,J,1,right,0.27644357,0,0,,,,,,,,,,,,,,,,,,,,,,,,,,,,,,,,,,,,,,,,,,,,,,,,,,,,,,,,,,,,,,,,,,,,,,,,,,
,,,,,,calibration,0,18,2,120,16,N,0,right,nan,0,1,,,,,,,,,,,,,,,,,,,,,,,,,,,,,,,,,,,,,,,,,,,,,,,,,,,,,,,,,,,,,,,,,,,,,,,,,,
,,,,,,calibration,0,18,2,120,17,V,0,right,nan,0,1,,,,,,,,,,,,,,,,,,,,,,,,,,,,,,,,,,,,,,,,,,,,,,,,,,,,,,,,,,,,,,,,,,,,,,,,,,
,,,,,,calibration,0,18,2,120,18,Q,0,right,0.308691842,1,0,,,,,,,,,,,,,,,,,,,,,,,,,,,,,,,,,,,,,,,,,,,,,,,,,,,,,,,,,,,,,,,,,,,,,,,,,,
,,,,,,calibration,0,18,2,120,19,V,1,right,0.474351585,0,0,,,,,,,,,,,,,,,,,,,,,,,,,,,,,,,,,,,,,,,,,,,,,,,,,,,,,,,,,,,,,,,,,,,,,,,,,,
,,,,,,calibration,0,18,2,120,20,F,0,right,0.578192642,1,0,,,,,,,,,,,,,,,,,,,,,,,,,,,,,,,,,,,,,,,,,,,,,,,,,,,,,,,,,,,,,,,,,,,,,,,,,,
,,,,,,calibration,0,18,2,120,21,N,0,right,0.435636157,1,0,,,,,,,,,,,,,,,,,,,,,,,,,,,,,,,,,,,,,,,,,,,,,,,,,,,,,,,,,,,,,,,,,,,,,,,,,,
,,,,,,calibration,0,18,2,120,22,J,0,left,0.761561731,0,0,,,,,,,,,,,,,,,,,,,,,,,,,,,,,,,,,,,,,,,,,,,,,,,,,,,,,,,,,,,,,,,,,,,,,,,,,,
,,,,,,calibration,0,18,2,120,23,C,0,right,0.485286508,1,0,,,,,,,,,,,,,,,,,,,,,,,,,,,,,,,,,,,,,,,,,,,,,,,,,,,,,,,,,,,,,,,,,,,,,,,,,,
,,,,,,calibration,0,18,2,120,,,,,,,,0.848039216,0.666666667,0.117647059,0.857142857,0.130434783,0.751918159,0.515284273,4,2,0,3,3,12,16,6,17,0,,,,,,,,,,,,,,,,,,,,,,,,,,,,,,,,,,,,,,,,,,,,,,,,,,,,,,,,,
,,,,,,Calibration,0,,2,120,,,,,,,,,,,,,,,,,,,,,,,,,14,,,,,,,,,,,,,,,,,,,,,,,,,,,,,,,,,,,,,,,,,,,,,,,,,,,,,,,,
,,,,,,calibration,0,34,2,120,1,V,0,right,0.42827358,1,0,,,,,,,,,,,,,,,,,,,,,,,,,,,,,,,,,,,,,,,,,,,,,,,,,,,,,,,,,,,,,,,,,,,,,,,,,,
,,,,,,calibration,0,34,2,120,2,F,0,right,0.261210125,1,0,,,,,,,,,,,,,,,,,,,,,,,,,,,,,,,,,,,,,,,,,,,,,,,,,,,,,,,,,,,,,,,,,,,,,,,,,,
,,,,,,calibration,0,34,2,120,3,N,0,right,0.517439876,1,0,,,,,,,,,,,,,,,,,,,,,,,,,,,,,,,,,,,,,,,,,,,,,,,,,,,,,,,,,,,,,,,,,,,,,,,,,,
,,,,,,calibration,0,34,2,120,4,F,1,left,0.4181928,1,0,,,,,,,,,,,,,,,,,,,,,,,,,,,,,,,,,,,,,,,,,,,,,,,,,,,,,,,,,,,,,,,,,,,,,,,,,,
,,,,,,calibration,0,34,2,120,5,Q,0,right,0.630036149,1,0,,,,,,,,,,,,,,,,,,,,,,,,,,,,,,,,,,,,,,,,,,,,,,,,,,,,,,,,,,,,,,,,,,,,,,,,,,
,,,,,,calibration,0,34,2,120,6,J,0,right,0.56194026,1,0,,,,,,,,,,,,,,,,,,,,,,,,,,,,,,,,,,,,,,,,,,,,,,,,,,,,,,,,,,,,,,,,,,,,,,,,,,
,,,,,,calibration,0,34,2,120,7,S,0,right,0.561601087,1,0,,,,,,,,,,,,,,,,,,,,,,,,,,,,,,,,,,,,,,,,,,,,,,,,,,,,,,,,,,,,,,,,,,,,,,,,,,
,,,,,,calibration,0,34,2,120,8,V,0,right,0.745324795,1,0,,,,,,,,,,,,,,,,,,,,,,,,,,,,,,,,,,,,,,,,,,,,,,,,,,,,,,,,,,,,,,,,,,,,,,,,,,
,,,,,,calibration,0,34,2,120,9,F,0,right,0.946935967,1,0,,,,,,,,,,,,,,,,,,,,,,,,,,,,,,,,,,,,,,,,,,,,,,,,,,,,,,,,,,,,,,,,,,,,,,,,,,
,,,,,,calibration,0,34,2,120,10,N,0,right,0.301102123,1,0,,,,,,,,,,,,,,,,,,,,,,,,,,,,,,,,,,,,,,,,,,,,,,,,,,,,,,,,,,,,,,,,,,,,,,,,,,
,,,,,,calibration,0,34,2,120,11,Q,0,right,0.744814727,1,0,,,,,,,,,,,,,,,,,,,,,,,,,,,,,,,,,,,,,,,,,,,,,,,,,,,,,,,,,,,,,,,,,,,,,,,,,,
,,,,,,calibration,0,34,2,120,12,V,0,right,0.612177414,1,0,,,,,,,,,,,,,,,,,,,,,,,,,,,,,,,,,,,,,,,,,,,,,,,,,,,,,,,,,,,,,,,,,,,,,,,,,,
,,,,,,calibration,0,34,2,120,13,Q,1,left,0.845613275,1,0,,,,,,,,,,,,,,,,,,,,,,,,,,,,,,,,,,,,,,,,,,,,,,,,,,,,,,,,,,,,,,,,,,,,,,,,,,
,,,,,,calibration,0,34,2,120,14,N,0,right,0.594925663,1,0,,,,,,,,,,,,,,,,,,,,,,,,,,,,,,,,,,,,,,,,,,,,,,,,,,,,,,,,,,,,,,,,,,,,,,,,,,
,,,,,,calibration,0,34,2,120,15,V,0,left,0.479033702,0,0,,,,,,,,,,,,,,,,,,,,,,,,,,,,,,,,,,,,,,,,,,,,,,,,,,,,,,,,,,,,,,,,,,,,,,,,,,
,,,,,,calibration,0,34,2,120,16,S,0,left,nan,0,1,,,,,,,,,,,,,,,,,,,,,,,,,,,,,,,,,,,,,,,,,,,,,,,,,,,,,,,,,,,,,,,,,,,,,,,,,,
,,,,,,calibration,0,34,2,120,17,C,0,right,0.015674839,1,0,,,,,,,,,,,,,,,,,,,,,,,,,,,,,,,,,,,,,,,,,,,,,,,,,,,,,,,,,,,,,,,,,,,,,,,,,,
,,,,,,calibration,0,34,2,120,18,S,1,right,0.680162921,0,0,,,,,,,,,,,,,,,,,,,,,,,,,,,,,,,,,,,,,,,,,,,,,,,,,,,,,,,,,,,,,,,,,,,,,,,,,,
,,,,,,calibration,0,34,2,120,19,C,1,left,0.389695922,1,0,,,,,,,,,,,,,,,,,,,,,,,,,,,,,,,,,,,,,,,,,,,,,,,,,,,,,,,,,,,,,,,,,,,,,,,,,,
,,,,,,calibration,0,34,2,120,20,J,0,right,0.440256946,1,0,,,,,,,,,,,,,,,,,,,,,,,,,,,,,,,,,,,,,,,,,,,,,,,,,,,,,,,,,,,,,,,,,,,,,,,,,,
,,,,,,calibration,0,34,2,120,21,C,1,right,0.040623496,0,0,,,,,,,,,,,,,,,,,,,,,,,,,,,,,,,,,,,,,,,,,,,,,,,,,,,,,,,,,,,,,,,,,,,,,,,,,,
,,,,,,calibration,0,34,2,120,22,J,1,right,nan,0,1,,,,,,,,,,,,,,,,,,,,,,,,,,,,,,,,,,,,,,,,,,,,,,,,,,,,,,,,,,,,,,,,,,,,,,,,,,
,,,,,,calibration,0,34,2,120,23,V,0,right,0.026543868,1,0,,,,,,,,,,,,,,,,,,,,,,,,,,,,,,,,,,,,,,,,,,,,,,,,,,,,,,,,,,,,,,,,,,,,,,,,,,
,,,,,,calibration,0,34,2,120,,,,,,,,0.830882353,0.5,0.058823529,0.9375,0.086956522,0.854219949,0.487694264,3,1,1,1,2,15,18,6,17,0,,,,,,,,,,,,,,,,,,,,,,,,,,,,,,,,,,,,,,,,,,,,,,,,,,,,,,,,,
,,,,,,Calibration,0,,2,120,,,,,,,,,,,,,,,,,,,,,,,,,15,,,,,,,,,,,,,,,,,,,,,,,,,,,,,,,,,,,,,,,,,,,,,,,,,,,,,,,,
,,,,,,CALIBRATION,0,,,,,,,,,,,,,,,,,,,,,,,,,,,,15,0.830882353,120,,,,,,,,,,,,,,,,,,,,,,,,,,,,,,,,,,,,,,,,,,,,,,,,,,,,,,
1,./instructions/inst_prac_1/Slide24.png,right,11.72455318,619.7186344,631.4431876,,,,,,,,,,,,,,,,,,,,,,,,,,,,,,,,,,,,,,,,,,,,,,,,,,,,,,,,,,,,,,,,,,,,,,,,,,,,,,,,,,,,,,
2,./instructions/inst_prac_1/Slide25.png,right,4.371515579,631.4957189,635.8672345,,,,,,,,,,,,,,,,,,,,,,,,,,,,,,,,,,,,,,,,,,,,,,,,,,,,,,,,,,,,,,,,,,,,,,,,,,,,,,,,,,,,,,
3,./instructions/inst_prac_1/Slide26.png,right,1.127392737,635.9639783,637.091371,,,,,,,,,,,,,,,,,,,,,,,,,,,,,,,,,,,,,,,,,,,,,,,,,,,,,,,,,,,,,,,,,,,,,,,,,,,,,,,,,,,,,,
4,./instructions/inst_prac_1/Slide27.png,right,0.887694832,637.1554542,638.0431491,,,,,,,,,,,,,,,,,,,,,,,,,,,,,,,,,,,,,,,,,,,,,,,,,,,,,,,,,,,,,,,,,,,,,,,,,,,,,,,,,,,,,,
3,./instructions/inst_prac_1/Slide28.png,left,0.655473358,638.1000439,638.7555173,,,,,,,,,,,,,,,,,,,,,,,,,,,,,,,,,,,,,,,,,,,,,,,,,,,,,,,,,,,,,,,,,,,,,,,,,,,,,,,,,,,,,,
4,./instructions/inst_prac_1/Slide27.png,right,1.147613339,638.7996263,639.9472397,,,,,,,,,,,,,,,,,,,,,,,,,,,,,,,,,,,,,,,,,,,,,,,,,,,,,,,,,,,,,,,,,,,,,,,,,,,,,,,,,,,,,,
5,./instructions/inst_prac_1/Slide28.png,right,0.52358886,639.9914717,640.5150606,,,,,,,,,,,,,,,,,,,,,,,,,,,,,,,,,,,,,,,,,,,,,,,,,,,,,,,,,,,,,,,,,,,,,,,,,,,,,,,,,,,,,,
6,./instructions/inst_prac_1/Slide29.png,right,2.309528667,640.5896525,642.8991812,,,,,,,,,,,,,,,,,,,,,,,,,,,,,,,,,,,,,,,,,,,,,,,,,,,,,,,,,,,,,,,,,,,,,,,,,,,,,,,,,,,,,,
7,./instructions/inst_prac_1/Slide30.png,right,2.201429905,642.9537743,645.1552042,,,,,,,,,,,,,,,,,,,,,,,,,,,,,,,,,,,,,,,,,,,,,,,,,,,,,,,,,,,,,,,,,,,,,,,,,,,,,,,,,,,,,,
,,,,,,practice,0,10,1,1250,1,C,0,right,1.910665716,1,0,,,,,,,,,,,,,,,,,,,,,,,,,,,,,,,,,,,,,,,,,,,,,,,,,,,,,,,,,,,,,,,,,,,,,,,,,,
,,,,,,practice,0,10,1,1250,2,N,0,right,1.780545797,1,0,,,,,,,,,,,,,,,,,,,,,,,,,,,,,,,,,,,,,,,,,,,,,,,,,,,,,,,,,,,,,,,,,,,,,,,,,,
,,,,,,practice,0,10,1,1250,3,N,1,left,0.617661866,1,0,,,,,,,,,,,,,,,,,,,,,,,,,,,,,,,,,,,,,,,,,,,,,,,,,,,,,,,,,,,,,,,,,,,,,,,,,,
,,,,,,practice,0,10,1,1250,4,S,0,right,0.555053976,1,0,,,,,,,,,,,,,,,,,,,,,,,,,,,,,,,,,,,,,,,,,,,,,,,,,,,,,,,,,,,,,,,,,,,,,,,,,,
,,,,,,practice,0,10,1,1250,5,F,0,right,1.066060321,1,0,,,,,,,,,,,,,,,,,,,,,,,,,,,,,,,,,,,,,,,,,,,,,,,,,,,,,,,,,,,,,,,,,,,,,,,,,,
,,,,,,practice,0,10,1,1250,6,F,1,left,0.539957156,1,0,,,,,,,,,,,,,,,,,,,,,,,,,,,,,,,,,,,,,,,,,,,,,,,,,,,,,,,,,,,,,,,,,,,,,,,,,,
,,,,,,practice,0,10,1,1250,7,J,0,right,0.576701223,1,0,,,,,,,,,,,,,,,,,,,,,,,,,,,,,,,,,,,,,,,,,,,,,,,,,,,,,,,,,,,,,,,,,,,,,,,,,,
,,,,,,practice,0,10,1,1250,8,J,1,left,0.334450006,1,0,,,,,,,,,,,,,,,,,,,,,,,,,,,,,,,,,,,,,,,,,,,,,,,,,,,,,,,,,,,,,,,,,,,,,,,,,,
,,,,,,practice,0,10,1,1250,9,V,0,right,0.349133528,1,0,,,,,,,,,,,,,,,,,,,,,,,,,,,,,,,,,,,,,,,,,,,,,,,,,,,,,,,,,,,,,,,,,,,,,,,,,,
,,,,,,practice,0,10,1,1250,10,N,0,right,0.449489522,1,0,,,,,,,,,,,,,,,,,,,,,,,,,,,,,,,,,,,,,,,,,,,,,,,,,,,,,,,,,,,,,,,,,,,,,,,,,,
,,,,,,practice,0,10,1,1250,,,,,,,,1,1,0,1,0,1,0.817971911,3,0,0,0,0,7,10,3,7,0,,,,,,,,,,,,,,,,,,,,,,,,,,,,,,,,,,,,,,,,,,,,,,,,,,,,,,,,,
1,./instructions/inst_prac_1_next/Slide35.png,right,18.24054501,664.2187053,682.4592504,,,,,,,,,,,,,,,,,,,,,,,,,,,,,,,,,,,,,,,,,,,,,,,,,,,,,,,,,,,,,,,,,,,,,,,,,,,,,,,,,,,,,,
,,,,,,practice,0,27,1,120,1,X,0,right,0.982861405,1,0,,,,,,,,,,,,,,,,,,,,,,,,,,,,,,,,,,,,,,,,,,,,,,,,,,,,,,,,,,,,,,,,,,,,,,,,,,
,,,,,,practice,0,27,1,120,2,N,0,right,0.377567029,1,0,,,,,,,,,,,,,,,,,,,,,,,,,,,,,,,,,,,,,,,,,,,,,,,,,,,,,,,,,,,,,,,,,,,,,,,,,,
,,,,,,practice,0,27,1,120,3,X,0,right,0.340826901,1,0,,,,,,,,,,,,,,,,,,,,,,,,,,,,,,,,,,,,,,,,,,,,,,,,,,,,,,,,,,,,,,,,,,,,,,,,,,
,,,,,,practice,0,27,1,120,4,C,0,right,0.311233342,1,0,,,,,,,,,,,,,,,,,,,,,,,,,,,,,,,,,,,,,,,,,,,,,,,,,,,,,,,,,,,,,,,,,,,,,,,,,,
,,,,,,practice,0,27,1,120,5,N,0,right,0.293073402,1,0,,,,,,,,,,,,,,,,,,,,,,,,,,,,,,,,,,,,,,,,,,,,,,,,,,,,,,,,,,,,,,,,,,,,,,,,,,
,,,,,,practice,0,27,1,120,6,X,0,right,0.331615321,1,0,,,,,,,,,,,,,,,,,,,,,,,,,,,,,,,,,,,,,,,,,,,,,,,,,,,,,,,,,,,,,,,,,,,,,,,,,,
,,,,,,practice,0,27,1,120,7,X,1,left,0.520489615,1,0,,,,,,,,,,,,,,,,,,,,,,,,,,,,,,,,,,,,,,,,,,,,,,,,,,,,,,,,,,,,,,,,,,,,,,,,,,
,,,,,,practice,0,27,1,120,8,N,0,right,0.357589806,1,0,,,,,,,,,,,,,,,,,,,,,,,,,,,,,,,,,,,,,,,,,,,,,,,,,,,,,,,,,,,,,,,,,,,,,,,,,,
,,,,,,practice,0,27,1,120,9,S,0,right,0.289374237,1,0,,,,,,,,,,,,,,,,,,,,,,,,,,,,,,,,,,,,,,,,,,,,,,,,,,,,,,,,,,,,,,,,,,,,,,,,,,
,,,,,,practice,0,27,1,120,10,Q,0,right,0.285793049,1,0,,,,,,,,,,,,,,,,,,,,,,,,,,,,,,,,,,,,,,,,,,,,,,,,,,,,,,,,,,,,,,,,,,,,,,,,,,
,,,,,,practice,0,27,1,120,11,X,0,right,0.267843575,1,0,,,,,,,,,,,,,,,,,,,,,,,,,,,,,,,,,,,,,,,,,,,,,,,,,,,,,,,,,,,,,,,,,,,,,,,,,,
,,,,,,practice,0,27,1,120,12,X,1,left,0.331885215,1,0,,,,,,,,,,,,,,,,,,,,,,,,,,,,,,,,,,,,,,,,,,,,,,,,,,,,,,,,,,,,,,,,,,,,,,,,,,
,,,,,,practice,0,27,1,120,13,S,0,right,0.328881454,1,0,,,,,,,,,,,,,,,,,,,,,,,,,,,,,,,,,,,,,,,,,,,,,,,,,,,,,,,,,,,,,,,,,,,,,,,,,,
,,,,,,practice,0,27,1,120,14,S,1,left,0.397813827,1,0,,,,,,,,,,,,,,,,,,,,,,,,,,,,,,,,,,,,,,,,,,,,,,,,,,,,,,,,,,,,,,,,,,,,,,,,,,
,,,,,,practice,0,27,1,120,15,C,0,right,0.408063101,1,0,,,,,,,,,,,,,,,,,,,,,,,,,,,,,,,,,,,,,,,,,,,,,,,,,,,,,,,,,,,,,,,,,,,,,,,,,,
,,,,,,practice,0,27,1,120,16,C,1,left,0.343879419,1,0,,,,,,,,,,,,,,,,,,,,,,,,,,,,,,,,,,,,,,,,,,,,,,,,,,,,,,,,,,,,,,,,,,,,,,,,,,
,,,,,,practice,0,27,1,120,17,V,0,right,0.36411545,1,0,,,,,,,,,,,,,,,,,,,,,,,,,,,,,,,,,,,,,,,,,,,,,,,,,,,,,,,,,,,,,,,,,,,,,,,,,,
,,,,,,practice,0,27,1,120,18,V,1,right,0.271972459,0,0,,,,,,,,,,,,,,,,,,,,,,,,,,,,,,,,,,,,,,,,,,,,,,,,,,,,,,,,,,,,,,,,,,,,,,,,,,
,,,,,,practice,0,27,1,120,19,F,0,right,0.430909251,1,0,,,,,,,,,,,,,,,,,,,,,,,,,,,,,,,,,,,,,,,,,,,,,,,,,,,,,,,,,,,,,,,,,,,,,,,,,,
,,,,,,practice,0,27,1,120,20,F,1,right,0.335890381,0,0,,,,,,,,,,,,,,,,,,,,,,,,,,,,,,,,,,,,,,,,,,,,,,,,,,,,,,,,,,,,,,,,,,,,,,,,,,
,,,,,,practice,0,27,1,120,21,S,0,right,0.459048095,1,0,,,,,,,,,,,,,,,,,,,,,,,,,,,,,,,,,,,,,,,,,,,,,,,,,,,,,,,,,,,,,,,,,,,,,,,,,,
,,,,,,practice,0,27,1,120,22,C,0,right,0.434905543,1,0,,,,,,,,,,,,,,,,,,,,,,,,,,,,,,,,,,,,,,,,,,,,,,,,,,,,,,,,,,,,,,,,,,,,,,,,,,
,,,,,,practice,0,27,1,120,23,S,0,right,0.603742511,1,0,,,,,,,,,,,,,,,,,,,,,,,,,,,,,,,,,,,,,,,,,,,,,,,,,,,,,,,,,,,,,,,,,,,,,,,,,,
,,,,,,practice,0,27,1,120,,,,,,,,0.916666667,0.666666667,0,1,0,1,0.394320626,4,0,0,0,0,17,21,6,17,0,,,,,,,,,,,,,,,,,,,,,,,,,,,,,,,,,,,,,,,,,,,,,,,,,,,,,,,,,
,,,,,,practice,0,7,1,120,1,S,0,right,0.488249916,1,0,,,,,,,,,,,,,,,,,,,,,,,,,,,,,,,,,,,,,,,,,,,,,,,,,,,,,,,,,,,,,,,,,,,,,,,,,,
,,,,,,practice,0,7,1,120,2,V,0,right,0.284655611,1,0,,,,,,,,,,,,,,,,,,,,,,,,,,,,,,,,,,,,,,,,,,,,,,,,,,,,,,,,,,,,,,,,,,,,,,,,,,
,,,,,,practice,0,7,1,120,3,S,0,left,0.418817451,0,0,,,,,,,,,,,,,,,,,,,,,,,,,,,,,,,,,,,,,,,,,,,,,,,,,,,,,,,,,,,,,,,,,,,,,,,,,,
,,,,,,practice,0,7,1,120,4,F,0,right,0.452035736,1,0,,,,,,,,,,,,,,,,,,,,,,,,,,,,,,,,,,,,,,,,,,,,,,,,,,,,,,,,,,,,,,,,,,,,,,,,,,
,,,,,,practice,0,7,1,120,5,V,0,right,0.548343544,1,0,,,,,,,,,,,,,,,,,,,,,,,,,,,,,,,,,,,,,,,,,,,,,,,,,,,,,,,,,,,,,,,,,,,,,,,,,,
,,,,,,practice,0,7,1,120,6,N,0,right,0.352567244,1,0,,,,,,,,,,,,,,,,,,,,,,,,,,,,,,,,,,,,,,,,,,,,,,,,,,,,,,,,,,,,,,,,,,,,,,,,,,
,,,,,,practice,0,7,1,120,7,N,1,left,0.459211892,1,0,,,,,,,,,,,,,,,,,,,,,,,,,,,,,,,,,,,,,,,,,,,,,,,,,,,,,,,,,,,,,,,,,,,,,,,,,,
,,,,,,practice,0,7,1,120,8,Q,0,right,0.458895806,1,0,,,,,,,,,,,,,,,,,,,,,,,,,,,,,,,,,,,,,,,,,,,,,,,,,,,,,,,,,,,,,,,,,,,,,,,,,,
,,,,,,practice,0,7,1,120,9,N,0,right,0.562448162,1,0,,,,,,,,,,,,,,,,,,,,,,,,,,,,,,,,,,,,,,,,,,,,,,,,,,,,,,,,,,,,,,,,,,,,,,,,,,
,,,,,,practice,0,7,1,120,10,N,1,left,0.502073302,1,0,,,,,,,,,,,,,,,,,,,,,,,,,,,,,,,,,,,,,,,,,,,,,,,,,,,,,,,,,,,,,,,,,,,,,,,,,,
,,,,,,practice,0,7,1,120,11,X,0,right,0.419498453,1,0,,,,,,,,,,,,,,,,,,,,,,,,,,,,,,,,,,,,,,,,,,,,,,,,,,,,,,,,,,,,,,,,,,,,,,,,,,
,,,,,,practice,0,7,1,120,12,X,1,left,0.405864281,1,0,,,,,,,,,,,,,,,,,,,,,,,,,,,,,,,,,,,,,,,,,,,,,,,,,,,,,,,,,,,,,,,,,,,,,,,,,,
,,,,,,practice,0,7,1,120,13,C,0,right,0.421244681,1,0,,,,,,,,,,,,,,,,,,,,,,,,,,,,,,,,,,,,,,,,,,,,,,,,,,,,,,,,,,,,,,,,,,,,,,,,,,
,,,,,,practice,0,7,1,120,14,V,0,right,0.45403399,1,0,,,,,,,,,,,,,,,,,,,,,,,,,,,,,,,,,,,,,,,,,,,,,,,,,,,,,,,,,,,,,,,,,,,,,,,,,,
,,,,,,practice,0,7,1,120,15,F,0,right,0.333845078,1,0,,,,,,,,,,,,,,,,,,,,,,,,,,,,,,,,,,,,,,,,,,,,,,,,,,,,,,,,,,,,,,,,,,,,,,,,,,
,,,,,,practice,0,7,1,120,16,F,1,left,0.434891254,1,0,,,,,,,,,,,,,,,,,,,,,,,,,,,,,,,,,,,,,,,,,,,,,,,,,,,,,,,,,,,,,,,,,,,,,,,,,,
,,,,,,practice,0,7,1,120,17,N,0,right,0.353684686,1,0,,,,,,,,,,,,,,,,,,,,,,,,,,,,,,,,,,,,,,,,,,,,,,,,,,,,,,,,,,,,,,,,,,,,,,,,,,
,,,,,,practice,0,7,1,120,18,N,1,left,0.437626484,1,0,,,,,,,,,,,,,,,,,,,,,,,,,,,,,,,,,,,,,,,,,,,,,,,,,,,,,,,,,,,,,,,,,,,,,,,,,,
,,,,,,practice,0,7,1,120,19,J,0,right,0.36591735,1,0,,,,,,,,,,,,,,,,,,,,,,,,,,,,,,,,,,,,,,,,,,,,,,,,,,,,,,,,,,,,,,,,,,,,,,,,,,
,,,,,,practice,0,7,1,120,20,F,0,right,0.553673207,1,0,,,,,,,,,,,,,,,,,,,,,,,,,,,,,,,,,,,,,,,,,,,,,,,,,,,,,,,,,,,,,,,,,,,,,,,,,,
,,,,,,practice,0,7,1,120,21,F,1,right,0.333390909,0,0,,,,,,,,,,,,,,,,,,,,,,,,,,,,,,,,,,,,,,,,,,,,,,,,,,,,,,,,,,,,,,,,,,,,,,,,,,
,,,,,,practice,0,7,1,120,22,N,0,right,0.367879486,1,0,,,,,,,,,,,,,,,,,,,,,,,,,,,,,,,,,,,,,,,,,,,,,,,,,,,,,,,,,,,,,,,,,,,,,,,,,,
,,,,,,practice,0,7,1,120,23,S,0,right,0.475983234,1,0,,,,,,,,,,,,,,,,,,,,,,,,,,,,,,,,,,,,,,,,,,,,,,,,,,,,,,,,,,,,,,,,,,,,,,,,,,
,,,,,,practice,0,7,1,120,,,,,,,,0.933823529,0.833333333,0.058823529,0.941176471,0,0.941176471,0.429775294,5,1,0,0,0,16,21,6,17,0,,,,,,,,,,,,,,,,,,,,,,,,,,,,,,,,,,,,,,,,,,,,,,,,,,,,,,,,,
1,./instructions/inst_prac_3/Slide37.png,right,8.272118111,1.462131125,9.734249236,,,,,,,,,,,,,,,,,,,,,,,,,,,,,,,,,1,,,,,,,,,,,,,,,,,,,,,,,,,,,,,,,,,,,,,,,,,,,,,,57,158257,21,Female,1,2024/02/14_15:11:50,YZ,60.14536026
2,./instructions/inst_prac_3/Slide38.png,right,1.738722373,9.803347195,11.54206957,,,,,,,,,,,,,,,,,,,,,,,,,,,,,,,,,1,,,,,,,,,,,,,,,,,,,,,,,,,,,,,,,,,,,,,,,,,,,,,,57,158257,21,Female,1,2024/02/14_15:11:50,YZ,60.14536026
3,./instructions/inst_prac_3/Slide39.png,right,0.818459624,11.60367562,12.42213524,,,,,,,,,,,,,,,,,,,,,,,,,,,,,,,,,1,,,,,,,,,,,,,,,,,,,,,,,,,,,,,,,,,,,,,,,,,,,,,,57,158257,21,Female,1,2024/02/14_15:11:50,YZ,60.14536026
4,./instructions/inst_prac_3/Slide40.png,right,0.498168699,12.47588025,12.97404895,,,,,,,,,,,,,,,,,,,,,,,,,,,,,,,,,1,,,,,,,,,,,,,,,,,,,,,,,,,,,,,,,,,,,,,,,,,,,,,,57,158257,21,Female,1,2024/02/14_15:11:50,YZ,60.14536026
5,./instructions/inst_prac_3/Slide41.png,right,0.872325481,13.02979871,13.9021242,,,,,,,,,,,,,,,,,,,,,,,,,,,,,,,,,1,,,,,,,,,,,,,,,,,,,,,,,,,,,,,,,,,,,,,,,,,,,,,,57,158257,21,Female,1,2024/02/14_15:11:50,YZ,60.14536026
6,./instructions/inst_prac_3/Slide42.png,right,1.265444759,13.99690909,15.26235385,,,,,,,,,,,,,,,,,,,,,,,,,,,,,,,,,1,,,,,,,,,,,,,,,,,,,,,,,,,,,,,,,,,,,,,,,,,,,,,,57,158257,21,Female,1,2024/02/14_15:11:50,YZ,60.14536026
7,./instructions/inst_prac_3/Slide43.png,right,0.745835059,15.35619404,16.1020291,,,,,,,,,,,,,,,,,,,,,,,,,,,,,,,,,1,,,,,,,,,,,,,,,,,,,,,,,,,,,,,,,,,,,,,,,,,,,,,,57,158257,21,Female,1,2024/02/14_15:11:50,YZ,60.14536026
8,./instructions/inst_prac_3/Slide44.png,right,2.72190584,16.15624696,18.8781528,,,,,,,,,,,,,,,,,,,,,,,,,,,,,,,,,1,,,,,,,,,,,,,,,,,,,,,,,,,,,,,,,,,,,,,,,,,,,,,,57,158257,21,Female,1,2024/02/14_15:11:50,YZ,60.14536026
,,,,,,practice,0,10,3,788,1,Q,0,right,1.39927288,1,0,,,,,,,,,,,,,,,,,,,,,1,,,,,,,,,,,,,,,,,,,,,,,,,,,,,,,,,,,,,,,,,,,,,,57,158257,21,Female,1,2024/02/14_15:11:50,YZ,60.14536026
,,,,,,practice,0,10,3,788,2,X,0,right,0.715517208,1,0,,,,,,,,,,,,,,,,,,,,,1,,,,,,,,,,,,,,,,,,,,,,,,,,,,,,,,,,,,,,,,,,,,,,57,158257,21,Female,1,2024/02/14_15:11:50,YZ,60.14536026
,,,,,,practice,0,10,3,788,3,Q,0,right,0.22580494,1,0,,,,,,,,,,,,,,,,,,,,,1,,,,,,,,,,,,,,,,,,,,,,,,,,,,,,,,,,,,,,,,,,,,,,57,158257,21,Female,1,2024/02/14_15:11:50,YZ,60.14536026
,,,,,,practice,0,10,3,788,4,Q,1,left,0.709318346,1,0,,,,,,,,,,,,,,,,,,,,,1,,,,,,,,,,,,,,,,,,,,,,,,,,,,,,,,,,,,,,,,,,,,,,57,158257,21,Female,1,2024/02/14_15:11:50,YZ,60.14536026
,,,,,,practice,0,10,3,788,5,V,0,right,0.685357925,1,0,,,,,,,,,,,,,,,,,,,,,1,,,,,,,,,,,,,,,,,,,,,,,,,,,,,,,,,,,,,,,,,,,,,,57,158257,21,Female,1,2024/02/14_15:11:50,YZ,60.14536026
,,,,,,practice,0,10,3,788,6,N,0,right,0.492806787,1,0,,,,,,,,,,,,,,,,,,,,,1,,,,,,,,,,,,,,,,,,,,,,,,,,,,,,,,,,,,,,,,,,,,,,57,158257,21,Female,1,2024/02/14_15:11:50,YZ,60.14536026
,,,,,,practice,0,10,3,788,7,N,0,right,0.661599988,1,0,,,,,,,,,,,,,,,,,,,,,1,,,,,,,,,,,,,,,,,,,,,,,,,,,,,,,,,,,,,,,,,,,,,,57,158257,21,Female,1,2024/02/14_15:11:50,YZ,60.14536026
,,,,,,practice,0,10,3,788,8,V,1,left,0.431775504,1,0,,,,,,,,,,,,,,,,,,,,,1,,,,,,,,,,,,,,,,,,,,,,,,,,,,,,,,,,,,,,,,,,,,,,57,158257,21,Female,1,2024/02/14_15:11:50,YZ,60.14536026
,,,,,,practice,0,10,3,788,9,S,0,right,0.393340477,1,0,,,,,,,,,,,,,,,,,,,,,1,,,,,,,,,,,,,,,,,,,,,,,,,,,,,,,,,,,,,,,,,,,,,,57,158257,21,Female,1,2024/02/14_15:11:50,YZ,60.14536026
,,,,,,practice,0,10,3,788,10,S,0,right,0.878188413,1,0,,,,,,,,,,,,,,,,,,,,,1,,,,,,,,,,,,,,,,,,,,,,,,,,,,,,,,,,,,,,,,,,,,,,57,158257,21,Female,1,2024/02/14_15:11:50,YZ,60.14536026
,,,,,,practice,0,10,3,788,11,Q,0,right,0.81537334,1,0,,,,,,,,,,,,,,,,,,,,,1,,,,,,,,,,,,,,,,,,,,,,,,,,,,,,,,,,,,,,,,,,,,,,57,158257,21,Female,1,2024/02/14_15:11:50,YZ,60.14536026
,,,,,,practice,0,10,3,788,12,S,1,left,0.48162399,1,0,,,,,,,,,,,,,,,,,,,,,1,,,,,,,,,,,,,,,,,,,,,,,,,,,,,,,,,,,,,,,,,,,,,,57,158257,21,Female,1,2024/02/14_15:11:50,YZ,60.14536026
,,,,,,practice,0,10,3,788,13,S,1,left,0.474957752,1,0,,,,,,,,,,,,,,,,,,,,,1,,,,,,,,,,,,,,,,,,,,,,,,,,,,,,,,,,,,,,,,,,,,,,57,158257,21,Female,1,2024/02/14_15:11:50,YZ,60.14536026
,,,,,,practice,0,10,3,788,,,,,,,,1,1,0,1,0,1,0.643456735,4,0,0,0,0,9,13,4,9,0,,,,1,,,,,,,,,,,,,,,,,,,,,,,,,,,,,,,,,,,,,,,,,,,,,,57,158257,21,Female,1,2024/02/14_15:11:50,YZ,60.14536026
1,./instructions/inst_prac_3_next/Slide49.png,right,6.60551746,41.28068137,47.88619883,,,,,,,,,,,,,,,,,,,,,,,,,,,,,,,,,1,,,,,,,,,,,,,,,,,,,,,,,,,,,,,,,,,,,,,,,,,,,,,,57,158257,21,Female,1,2024/02/14_15:11:50,YZ,60.14536026
,,,,,,practice,0,5,3,120,1,F,0,right,0.650543699,1,0,,,,,,,,,,,,,,,,,,,,,1,,,,,,,,,,,,,,,,,,,,,,,,,,,,,,,,,,,,,,,,,,,,,,57,158257,21,Female,1,2024/02/14_15:11:50,YZ,60.14536026
,,,,,,practice,0,5,3,120,2,N,0,right,0.298790733,1,0,,,,,,,,,,,,,,,,,,,,,1,,,,,,,,,,,,,,,,,,,,,,,,,,,,,,,,,,,,,,,,,,,,,,57,158257,21,Female,1,2024/02/14_15:11:50,YZ,60.14536026
,,,,,,practice,0,5,3,120,3,F,0,right,0.457344311,1,0,,,,,,,,,,,,,,,,,,,,,1,,,,,,,,,,,,,,,,,,,,,,,,,,,,,,,,,,,,,,,,,,,,,,57,158257,21,Female,1,2024/02/14_15:11:50,YZ,60.14536026
,,,,,,practice,0,5,3,120,4,F,1,left,0.624814195,1,0,,,,,,,,,,,,,,,,,,,,,1,,,,,,,,,,,,,,,,,,,,,,,,,,,,,,,,,,,,,,,,,,,,,,57,158257,21,Female,1,2024/02/14_15:11:50,YZ,60.14536026
,,,,,,practice,0,5,3,120,5,X,0,right,0.447872763,1,0,,,,,,,,,,,,,,,,,,,,,1,,,,,,,,,,,,,,,,,,,,,,,,,,,,,,,,,,,,,,,,,,,,,,57,158257,21,Female,1,2024/02/14_15:11:50,YZ,60.14536026
,,,,,,practice,0,5,3,120,6,F,1,left,0.568398943,1,0,,,,,,,,,,,,,,,,,,,,,1,,,,,,,,,,,,,,,,,,,,,,,,,,,,,,,,,,,,,,,,,,,,,,57,158257,21,Female,1,2024/02/14_15:11:50,YZ,60.14536026
,,,,,,practice,0,5,3,120,7,C,0,right,0.428028193,1,0,,,,,,,,,,,,,,,,,,,,,1,,,,,,,,,,,,,,,,,,,,,,,,,,,,,,,,,,,,,,,,,,,,,,57,158257,21,Female,1,2024/02/14_15:11:50,YZ,60.14536026
,,,,,,practice,0,5,3,120,8,X,1,right,1.476838712,0,0,,,,,,,,,,,,,,,,,,,,,1,,,,,,,,,,,,,,,,,,,,,,,,,,,,,,,,,,,,,,,,,,,,,,57,158257,21,Female,1,2024/02/14_15:11:50,YZ,60.14536026
,,,,,,practice,0,5,3,120,9,J,0,right,0.513622432,1,0,,,,,,,,,,,,,,,,,,,,,1,,,,,,,,,,,,,,,,,,,,,,,,,,,,,,,,,,,,,,,,,,,,,,57,158257,21,Female,1,2024/02/14_15:11:50,YZ,60.14536026
,,,,,,practice,0,5,3,120,10,C,1,left,1.199314694,1,0,,,,,,,,,,,,,,,,,,,,,1,,,,,,,,,,,,,,,,,,,,,,,,,,,,,,,,,,,,,,,,,,,,,,57,158257,21,Female,1,2024/02/14_15:11:50,YZ,60.14536026
,,,,,,practice,0,5,3,120,11,J,0,right,0.529365559,1,0,,,,,,,,,,,,,,,,,,,,,1,,,,,,,,,,,,,,,,,,,,,,,,,,,,,,,,,,,,,,,,,,,,,,57,158257,21,Female,1,2024/02/14_15:11:50,YZ,60.14536026
,,,,,,practice,0,5,3,120,12,X,0,left,0.950202492,0,0,,,,,,,,,,,,,,,,,,,,,1,,,,,,,,,,,,,,,,,,,,,,,,,,,,,,,,,,,,,,,,,,,,,,57,158257,21,Female,1,2024/02/14_15:11:50,YZ,60.14536026
,,,,,,practice,0,5,3,120,13,S,0,right,0.608649102,1,0,,,,,,,,,,,,,,,,,,,,,1,,,,,,,,,,,,,,,,,,,,,,,,,,,,,,,,,,,,,,,,,,,,,,57,158257,21,Female,1,2024/02/14_15:11:50,YZ,60.14536026
,,,,,,practice,0,5,3,120,14,J,1,left,1.138326884,1,0,,,,,,,,,,,,,,,,,,,,,1,,,,,,,,,,,,,,,,,,,,,,,,,,,,,,,,,,,,,,,,,,,,,,57,158257,21,Female,1,2024/02/14_15:11:50,YZ,60.14536026
,,,,,,practice,0,5,3,120,15,S,0,right,0.886185861,1,0,,,,,,,,,,,,,,,,,,,,,1,,,,,,,,,,,,,,,,,,,,,,,,,,,,,,,,,,,,,,,,,,,,,,57,158257,21,Female,1,2024/02/14_15:11:50,YZ,60.14536026
,,,,,,practice,0,5,3,120,16,N,0,right,0.714456914,1,0,,,,,,,,,,,,,,,,,,,,,1,,,,,,,,,,,,,,,,,,,,,,,,,,,,,,,,,,,,,,,,,,,,,,57,158257,21,Female,1,2024/02/14_15:11:50,YZ,60.14536026
,,,,,,practice,0,5,3,120,17,F,0,right,0.744149388,1,0,,,,,,,,,,,,,,,,,,,,,1,,,,,,,,,,,,,,,,,,,,,,,,,,,,,,,,,,,,,,,,,,,,,,57,158257,21,Female,1,2024/02/14_15:11:50,YZ,60.14536026
,,,,,,practice,0,5,3,120,18,J,0,left,1.26810263,0,0,,,,,,,,,,,,,,,,,,,,,1,,,,,,,,,,,,,,,,,,,,,,,,,,,,,,,,,,,,,,,,,,,,,,57,158257,21,Female,1,2024/02/14_15:11:50,YZ,60.14536026
,,,,,,practice,0,5,3,120,19,Q,0,right,0.443594735,1,0,,,,,,,,,,,,,,,,,,,,,1,,,,,,,,,,,,,,,,,,,,,,,,,,,,,,,,,,,,,,,,,,,,,,57,158257,21,Female,1,2024/02/14_15:11:50,YZ,60.14536026
,,,,,,practice,0,5,3,120,20,C,0,right,0.650004299,1,0,,,,,,,,,,,,,,,,,,,,,1,,,,,,,,,,,,,,,,,,,,,,,,,,,,,,,,,,,,,,,,,,,,,,57,158257,21,Female,1,2024/02/14_15:11:50,YZ,60.14536026
,,,,,,practice,0,5,3,120,21,J,1,left,0.402474132,1,0,,,,,,,,,,,,,,,,,,,,,1,,,,,,,,,,,,,,,,,,,,,,,,,,,,,,,,,,,,,,,,,,,,,,57,158257,21,Female,1,2024/02/14_15:11:50,YZ,60.14536026
,,,,,,practice,0,5,3,120,22,Q,1,left,1.060869578,1,0,,,,,,,,,,,,,,,,,,,,,1,,,,,,,,,,,,,,,,,,,,,,,,,,,,,,,,,,,,,,,,,,,,,,57,158257,21,Female,1,2024/02/14_15:11:50,YZ,60.14536026
,,,,,,practice,0,5,3,120,23,X,0,right,0.395994745,1,0,,,,,,,,,,,,,,,,,,,,,1,,,,,,,,,,,,,,,,,,,,,,,,,,,,,,,,,,,,,,,,,,,,,,57,158257,21,Female,1,2024/02/14_15:11:50,YZ,60.14536026
,,,,,,practice,0,5,3,120,,,,,,,,0.915178571,0.857142857,0.125,0.875,0,0.875,0.715562826,6,2,0,0,0,14,20,7,16,0,,,,1,,,,,,,,,,,,,,,,,,,,,,,,,,,,,,,,,,,,,,,,,,,,,,57,158257,21,Female,1,2024/02/14_15:11:50,YZ,60.14536026
,,,,,,practice,0,17,3,120,1,F,0,right,0.62337982,1,0,,,,,,,,,,,,,,,,,,,,,1,,,,,,,,,,,,,,,,,,,,,,,,,,,,,,,,,,,,,,,,,,,,,,57,158257,21,Female,1,2024/02/14_15:11:50,YZ,60.14536026
,,,,,,practice,0,17,3,120,2,J,0,right,0.256117669,1,0,,,,,,,,,,,,,,,,,,,,,1,,,,,,,,,,,,,,,,,,,,,,,,,,,,,,,,,,,,,,,,,,,,,,57,158257,21,Female,1,2024/02/14_15:11:50,YZ,60.14536026
,,,,,,practice,0,17,3,120,3,C,0,right,0.271956276,1,0,,,,,,,,,,,,,,,,,,,,,1,,,,,,,,,,,,,,,,,,,,,,,,,,,,,,,,,,,,,,,,,,,,,,57,158257,21,Female,1,2024/02/14_15:11:50,YZ,60.14536026
,,,,,,practice,0,17,3,120,4,F,1,left,0.327078071,1,0,,,,,,,,,,,,,,,,,,,,,1,,,,,,,,,,,,,,,,,,,,,,,,,,,,,,,,,,,,,,,,,,,,,,57,158257,21,Female,1,2024/02/14_15:11:50,YZ,60.14536026
,,,,,,practice,0,17,3,120,5,Q,0,right,0.418170158,1,0,,,,,,,,,,,,,,,,,,,,,1,,,,,,,,,,,,,,,,,,,,,,,,,,,,,,,,,,,,,,,,,,,,,,57,158257,21,Female,1,2024/02/14_15:11:50,YZ,60.14536026
,,,,,,practice,0,17,3,120,6,C,1,left,0.875895919,1,0,,,,,,,,,,,,,,,,,,,,,1,,,,,,,,,,,,,,,,,,,,,,,,,,,,,,,,,,,,,,,,,,,,,,57,158257,21,Female,1,2024/02/14_15:11:50,YZ,60.14536026
,,,,,,practice,0,17,3,120,7,X,0,right,0.450754722,1,0,,,,,,,,,,,,,,,,,,,,,1,,,,,,,,,,,,,,,,,,,,,,,,,,,,,,,,,,,,,,,,,,,,,,57,158257,21,Female,1,2024/02/14_15:11:50,YZ,60.14536026
,,,,,,practice,0,17,3,120,8,J,0,right,1.4108974,1,0,,,,,,,,,,,,,,,,,,,,,1,,,,,,,,,,,,,,,,,,,,,,,,,,,,,,,,,,,,,,,,,,,,,,57,158257,21,Female,1,2024/02/14_15:11:50,YZ,60.14536026
,,,,,,practice,0,17,3,120,9,X,0,left,0.730516966,0,0,,,,,,,,,,,,,,,,,,,,,1,,,,,,,,,,,,,,,,,,,,,,,,,,,,,,,,,,,,,,,,,,,,,,57,158257,21,Female,1,2024/02/14_15:11:50,YZ,60.14536026
,,,,,,practice,0,17,3,120,10,X,1,right,1.17544248,0,0,,,,,,,,,,,,,,,,,,,,,1,,,,,,,,,,,,,,,,,,,,,,,,,,,,,,,,,,,,,,,,,,,,,,57,158257,21,Female,1,2024/02/14_15:11:50,YZ,60.14536026
,,,,,,practice,0,17,3,120,11,V,0,right,1.522171836,1,0,,,,,,,,,,,,,,,,,,,,,1,,,,,,,,,,,,,,,,,,,,,,,,,,,,,,,,,,,,,,,,,,,,,,57,158257,21,Female,1,2024/02/14_15:11:50,YZ,60.14536026
,,,,,,practice,0,17,3,120,12,F,0,left,1.356821423,0,0,,,,,,,,,,,,,,,,,,,,,1,,,,,,,,,,,,,,,,,,,,,,,,,,,,,,,,,,,,,,,,,,,,,,57,158257,21,Female,1,2024/02/14_15:11:50,YZ,60.14536026
,,,,,,practice,0,17,3,120,13,Q,0,right,2.552180279,1,0,,,,,,,,,,,,,,,,,,,,,1,,,,,,,,,,,,,,,,,,,,,,,,,,,,,,,,,,,,,,,,,,,,,,57,158257,21,Female,1,2024/02/14_15:11:50,YZ,60.14536026
,,,,,,practice,0,17,3,120,14,V,1,left,0.849806424,1,0,,,,,,,,,,,,,,,,,,,,,1,,,,,,,,,,,,,,,,,,,,,,,,,,,,,,,,,,,,,,,,,,,,,,57,158257,21,Female,1,2024/02/14_15:11:50,YZ,60.14536026
,,,,,,practice,0,17,3,120,15,N,0,right,0.850072944,1,0,,,,,,,,,,,,,,,,,,,,,1,,,,,,,,,,,,,,,,,,,,,,,,,,,,,,,,,,,,,,,,,,,,,,57,158257,21,Female,1,2024/02/14_15:11:50,YZ,60.14536026
,,,,,,practice,0,17,3,120,16,V,0,left,1.56226024,0,0,,,,,,,,,,,,,,,,,,,,,1,,,,,,,,,,,,,,,,,,,,,,,,,,,,,,,,,,,,,,,,,,,,,,57,158257,21,Female,1,2024/02/14_15:11:50,YZ,60.14536026
,,,,,,practice,0,17,3,120,17,V,1,left,2.043699947,1,0,,,,,,,,,,,,,,,,,,,,,1,,,,,,,,,,,,,,,,,,,,,,,,,,,,,,,,,,,,,,,,,,,,,,57,158257,21,Female,1,2024/02/14_15:11:50,YZ,60.14536026
,,,,,,practice,0,17,3,120,18,C,0,right,1.451440559,1,0,,,,,,,,,,,,,,,,,,,,,1,,,,,,,,,,,,,,,,,,,,,,,,,,,,,,,,,,,,,,,,,,,,,,57,158257,21,Female,1,2024/02/14_15:11:50,YZ,60.14536026
,,,,,,practice,0,17,3,120,19,F,0,left,0.603656247,0,0,,,,,,,,,,,,,,,,,,,,,1,,,,,,,,,,,,,,,,,,,,,,,,,,,,,,,,,,,,,,,,,,,,,,57,158257,21,Female,1,2024/02/14_15:11:50,YZ,60.14536026
,,,,,,practice,0,17,3,120,20,V,1,left,1.843774994,1,0,,,,,,,,,,,,,,,,,,,,,1,,,,,,,,,,,,,,,,,,,,,,,,,,,,,,,,,,,,,,,,,,,,,,57,158257,21,Female,1,2024/02/14_15:11:50,YZ,60.14536026
,,,,,,practice,0,17,3,120,21,C,1,left,1.867505675,1,0,,,,,,,,,,,,,,,,,,,,,1,,,,,,,,,,,,,,,,,,,,,,,,,,,,,,,,,,,,,,,,,,,,,,57,158257,21,Female,1,2024/02/14_15:11:50,YZ,60.14536026
,,,,,,practice,0,17,3,120,22,S,0,right,0.600881949,1,0,,,,,,,,,,,,,,,,,,,,,1,,,,,,,,,,,,,,,,,,,,,,,,,,,,,,,,,,,,,,,,,,,,,,57,158257,21,Female,1,2024/02/14_15:11:50,YZ,60.14536026
,,,,,,practice,0,17,3,120,23,S,0,right,0.883216403,1,0,,,,,,,,,,,,,,,,,,,,,1,,,,,,,,,,,,,,,,,,,,,,,,,,,,,,,,,,,,,,,,,,,,,,57,158257,21,Female,1,2024/02/14_15:11:50,YZ,60.14536026
,,,,,,practice,0,17,3,120,,,,,,,,0.866071429,0.857142857,0.25,0.75,0,0.75,1.06642167,6,4,0,0,0,12,18,7,16,0,,,,1,,,,,,,,,,,,,,,,,,,,,,,,,,,,,,,,,,,,,,,,,,,,,,57,158257,21,Female,1,2024/02/14_15:11:50,YZ,60.14536026
1,./instructions/inst_prac_main/Slide51.png,right,1.555997462,117.7461657,119.3021632,,,,,,,,,,,,,,,,,,,,,,,,,,,,,,,,,1,,,,,,,,,,,,,,,,,,,,,,,,,,,,,,,,,,,,,,,,,,,,,,57,158257,21,Female,1,2024/02/14_15:11:50,YZ,60.14536026
2,./instructions/inst_prac_main/Slide52.png,right,20.25708047,119.3650674,139.6221479,,,,,,,,,,,,,,,,,,,,,,,,,,,,,,,,,1,,,,,,,,,,,,,,,,,,,,,,,,,,,,,,,,,,,,,,,,,,,,,,57,158257,21,Female,1,2024/02/14_15:11:50,YZ,60.14536026
1,./instructions/inst_prac_main/Slide53.png,left,10.26357201,139.6866134,149.9501854,,,,,,,,,,,,,,,,,,,,,,,,,,,,,,,,,1,,,,,,,,,,,,,,,,,,,,,,,,,,,,,,,,,,,,,,,,,,,,,,57,158257,21,Female,1,2024/02/14_15:11:50,YZ,60.14536026
0,./instructions/inst_prac_main/Slide52.png,left,0.200750116,149.993765,150.1945151,,,,,,,,,,,,,,,,,,,,,,,,,,,,,,,,,1,,,,,,,,,,,,,,,,,,,,,,,,,,,,,,,,,,,,,,,,,,,,,,57,158257,21,Female,1,2024/02/14_15:11:50,YZ,60.14536026
-1,./instructions/inst_prac_main/Slide51.png,left,0.200486521,150.2204795,150.420966,,,,,,,,,,,,,,,,,,,,,,,,,,,,,,,,,1,,,,,,,,,,,,,,,,,,,,,,,,,,,,,,,,,,,,,,,,,,,,,,57,158257,21,Female,1,2024/02/14_15:11:50,YZ,60.14536026
0,./instructions/inst_prac_main/Slide54.png,right,1.790218155,150.4878074,152.2780255,,,,,,,,,,,,,,,,,,,,,,,,,,,,,,,,,1,,,,,,,,,,,,,,,,,,,,,,,,,,,,,,,,,,,,,,,,,,,,,,57,158257,21,Female,1,2024/02/14_15:11:50,YZ,60.14536026
1,./instructions/inst_prac_main/Slide51.png,right,1.023259999,152.3109068,153.3341668,,,,,,,,,,,,,,,,,,,,,,,,,,,,,,,,,1,,,,,,,,,,,,,,,,,,,,,,,,,,,,,,,,,,,,,,,,,,,,,,57,158257,21,Female,1,2024/02/14_15:11:50,YZ,60.14536026
2,./instructions/inst_prac_main/Slide52.png,right,0.906322973,153.3798664,154.2861893,,,,,,,,,,,,,,,,,,,,,,,,,,,,,,,,,1,,,,,,,,,,,,,,,,,,,,,,,,,,,,,,,,,,,,,,,,,,,,,,57,158257,21,Female,1,2024/02/14_15:11:50,YZ,60.14536026
3,./instructions/inst_prac_main/Slide53.png,right,1.164003241,154.3301988,155.4942021,,,,,,,,,,,,,,,,,,,,,,,,,,,,,,,,,1,,,,,,,,,,,,,,,,,,,,,,,,,,,,,,,,,,,,,,,,,,,,,,57,158257,21,Female,1,2024/02/14_15:11:50,YZ,60.14536026
4,./instructions/inst_prac_main/Slide54.png,right,12.66440375,155.5416432,168.206047,,,,,,,,,,,,,,,,,,,,,,,,,,,,,,,,,1,,,,,,,,,,,,,,,,,,,,,,,,,,,,,,,,,,,,,,,,,,,,,,57,158257,21,Female,1,2024/02/14_15:11:50,YZ,60.14536026
,,,,,,practice_main,0,1,1,120,1,S,0,right,0.67855553,1,0,,,,,,,,,,,,,,,,,,,,,1,,,,,,,,,,,,,,,,,,,,,,,,,,,,,,,,,,,,,,,,,,,,,,57,158257,21,Female,1,2024/02/14_15:11:50,YZ,60.14536026
,,,,,,practice_main,0,1,1,120,2,S,1,left,0.519543495,1,0,,,,,,,,,,,,,,,,,,,,,1,,,,,,,,,,,,,,,,,,,,,,,,,,,,,,,,,,,,,,,,,,,,,,57,158257,21,Female,1,2024/02/14_15:11:50,YZ,60.14536026
,,,,,,practice_main,0,1,1,120,3,J,0,right,0.307222557,1,0,,,,,,,,,,,,,,,,,,,,,1,,,,,,,,,,,,,,,,,,,,,,,,,,,,,,,,,,,,,,,,,,,,,,57,158257,21,Female,1,2024/02/14_15:11:50,YZ,60.14536026
,,,,,,practice_main,0,1,1,120,4,X,0,right,0.312739592,1,0,,,,,,,,,,,,,,,,,,,,,1,,,,,,,,,,,,,,,,,,,,,,,,,,,,,,,,,,,,,,,,,,,,,,57,158257,21,Female,1,2024/02/14_15:11:50,YZ,60.14536026
,,,,,,practice_main,0,1,1,120,5,S,0,right,0.33441178,1,0,,,,,,,,,,,,,,,,,,,,,1,,,,,,,,,,,,,,,,,,,,,,,,,,,,,,,,,,,,,,,,,,,,,,57,158257,21,Female,1,2024/02/14_15:11:50,YZ,60.14536026
,,,,,,practice_main,0,1,1,120,6,J,0,right,0.644960615,1,0,,,,,,,,,,,,,,,,,,,,,1,,,,,,,,,,,,,,,,,,,,,,,,,,,,,,,,,,,,,,,,,,,,,,57,158257,21,Female,1,2024/02/14_15:11:50,YZ,60.14536026
,,,,,,practice_main,0,1,1,120,7,X,0,right,0.291043859,1,0,,,,,,,,,,,,,,,,,,,,,1,,,,,,,,,,,,,,,,,,,,,,,,,,,,,,,,,,,,,,,,,,,,,,57,158257,21,Female,1,2024/02/14_15:11:50,YZ,60.14536026
,,,,,,practice_main,0,1,1,120,8,X,1,left,0.287537736,1,0,,,,,,,,,,,,,,,,,,,,,1,,,,,,,,,,,,,,,,,,,,,,,,,,,,,,,,,,,,,,,,,,,,,,57,158257,21,Female,1,2024/02/14_15:11:50,YZ,60.14536026
,,,,,,practice_main,0,1,1,120,9,Q,0,right,0.34185328,1,0,,,,,,,,,,,,,,,,,,,,,1,,,,,,,,,,,,,,,,,,,,,,,,,,,,,,,,,,,,,,,,,,,,,,57,158257,21,Female,1,2024/02/14_15:11:50,YZ,60.14536026
,,,,,,practice_main,0,1,1,120,10,V,0,right,0.322148773,1,0,,,,,,,,,,,,,,,,,,,,,1,,,,,,,,,,,,,,,,,,,,,,,,,,,,,,,,,,,,,,,,,,,,,,57,158257,21,Female,1,2024/02/14_15:11:50,YZ,60.14536026
,,,,,,practice_main,0,1,1,120,11,V,1,left,0.295375405,1,0,,,,,,,,,,,,,,,,,,,,,1,,,,,,,,,,,,,,,,,,,,,,,,,,,,,,,,,,,,,,,,,,,,,,57,158257,21,Female,1,2024/02/14_15:11:50,YZ,60.14536026
,,,,,,practice_main,0,1,1,120,12,N,0,right,0.277426443,1,0,,,,,,,,,,,,,,,,,,,,,1,,,,,,,,,,,,,,,,,,,,,,,,,,,,,,,,,,,,,,,,,,,,,,57,158257,21,Female,1,2024/02/14_15:11:50,YZ,60.14536026
,,,,,,practice_main,0,1,1,120,13,J,0,right,0.420437634,1,0,,,,,,,,,,,,,,,,,,,,,1,,,,,,,,,,,,,,,,,,,,,,,,,,,,,,,,,,,,,,,,,,,,,,57,158257,21,Female,1,2024/02/14_15:11:50,YZ,60.14536026
,,,,,,practice_main,0,1,1,120,14,X,0,right,0.340525762,1,0,,,,,,,,,,,,,,,,,,,,,1,,,,,,,,,,,,,,,,,,,,,,,,,,,,,,,,,,,,,,,,,,,,,,57,158257,21,Female,1,2024/02/14_15:11:50,YZ,60.14536026
,,,,,,practice_main,0,1,1,120,15,X,1,right,0.304830862,0,0,,,,,,,,,,,,,,,,,,,,,1,,,,,,,,,,,,,,,,,,,,,,,,,,,,,,,,,,,,,,,,,,,,,,57,158257,21,Female,1,2024/02/14_15:11:50,YZ,60.14536026
,,,,,,practice_main,0,1,1,120,16,C,0,right,0.326493921,1,0,,,,,,,,,,,,,,,,,,,,,1,,,,,,,,,,,,,,,,,,,,,,,,,,,,,,,,,,,,,,,,,,,,,,57,158257,21,Female,1,2024/02/14_15:11:50,YZ,60.14536026
,,,,,,practice_main,0,1,1,120,17,C,1,left,0.459713639,1,0,,,,,,,,,,,,,,,,,,,,,1,,,,,,,,,,,,,,,,,,,,,,,,,,,,,,,,,,,,,,,,,,,,,,57,158257,21,Female,1,2024/02/14_15:11:50,YZ,60.14536026
,,,,,,practice_main,0,1,1,120,18,S,0,right,0.363045199,1,0,,,,,,,,,,,,,,,,,,,,,1,,,,,,,,,,,,,,,,,,,,,,,,,,,,,,,,,,,,,,,,,,,,,,57,158257,21,Female,1,2024/02/14_15:11:50,YZ,60.14536026
,,,,,,practice_main,0,1,1,120,19,S,1,left,0.429102973,1,0,,,,,,,,,,,,,,,,,,,,,1,,,,,,,,,,,,,,,,,,,,,,,,,,,,,,,,,,,,,,,,,,,,,,57,158257,21,Female,1,2024/02/14_15:11:50,YZ,60.14536026
,,,,,,practice_main,0,1,1,120,20,Q,0,right,0.350062182,1,0,,,,,,,,,,,,,,,,,,,,,1,,,,,,,,,,,,,,,,,,,,,,,,,,,,,,,,,,,,,,,,,,,,,,57,158257,21,Female,1,2024/02/14_15:11:50,YZ,60.14536026
,,,,,,practice_main,0,1,1,120,21,X,0,right,0.322461726,1,0,,,,,,,,,,,,,,,,,,,,,1,,,,,,,,,,,,,,,,,,,,,,,,,,,,,,,,,,,,,,,,,,,,,,57,158257,21,Female,1,2024/02/14_15:11:50,YZ,60.14536026
,,,,,,practice_main,0,1,1,120,22,N,0,right,0.383313895,1,0,,,,,,,,,,,,,,,,,,,,,1,,,,,,,,,,,,,,,,,,,,,,,,,,,,,,,,,,,,,,,,,,,,,,57,158257,21,Female,1,2024/02/14_15:11:50,YZ,60.14536026
,,,,,,practice_main,0,1,1,120,23,X,0,right,0.594525851,1,0,,,,,,,,,,,,,,,,,,,,,1,,,,,,,,,,,,,,,,,,,,,,,,,,,,,,,,,,,,,,,,,,,,,,57,158257,21,Female,1,2024/02/14_15:11:50,YZ,60.14536026
,,,,,,practice_main,0,1,1,120,,,,,,,,0.958333333,0.833333333,0,1,0,1,0.387275335,5,0,0,0,0,17,22,6,17,0,,,,1,,,,,,,,,,,,,,,,,,,,,,,,,,,,,,,,,,,,,,,,,,,,,,57,158257,21,Female,1,2024/02/14_15:11:50,YZ,60.14536026
,,,,,240214_151542,PRACTICE,0,1,1,120,,,,,,,,,,,,,,,,,,,,,,,,,,,,1,12,1,1,cue1.png,easy,A,70,2.83887738,0,171.4028484,174.2837382,,,,,,,,,,,,,,,,,,,,,,,,,,,,,,,,,,,57,158257,21,Female,1,2024/02/14_15:11:50,YZ,60.14536026
,,,,,,practice_main,0,2,3,120,1,Q,0,None,nan,0,1,,,,,,,,,,,,,,,,,,,,,1,,,,,,,,,,,,,,,,,,,,,,,,,,,,,,,,,,,,,,,,,,,,,,57,158257,21,Female,1,2024/02/14_15:11:50,YZ,60.14536026
,,,,,,practice_main,0,2,3,120,2,C,0,right,0.314974022,1,0,,,,,,,,,,,,,,,,,,,,,1,,,,,,,,,,,,,,,,,,,,,,,,,,,,,,,,,,,,,,,,,,,,,,57,158257,21,Female,1,2024/02/14_15:11:50,YZ,60.14536026
,,,,,,practice_main,0,2,3,120,3,S,0,right,0.545231177,1,0,,,,,,,,,,,,,,,,,,,,,1,,,,,,,,,,,,,,,,,,,,,,,,,,,,,,,,,,,,,,,,,,,,,,57,158257,21,Female,1,2024/02/14_15:11:50,YZ,60.14536026
,,,,,,practice_main,0,2,3,120,4,V,0,right,0.410151315,1,0,,,,,,,,,,,,,,,,,,,,,1,,,,,,,,,,,,,,,,,,,,,,,,,,,,,,,,,,,,,,,,,,,,,,57,158257,21,Female,1,2024/02/14_15:11:50,YZ,60.14536026
,,,,,,practice_main,0,2,3,120,5,Q,0,right,0.627901916,1,0,,,,,,,,,,,,,,,,,,,,,1,,,,,,,,,,,,,,,,,,,,,,,,,,,,,,,,,,,,,,,,,,,,,,57,158257,21,Female,1,2024/02/14_15:11:50,YZ,60.14536026
,,,,,,practice_main,0,2,3,120,6,S,1,left,0.48411493,1,0,,,,,,,,,,,,,,,,,,,,,1,,,,,,,,,,,,,,,,,,,,,,,,,,,,,,,,,,,,,,,,,,,,,,57,158257,21,Female,1,2024/02/14_15:11:50,YZ,60.14536026
,,,,,,practice_main,0,2,3,120,7,V,1,right,0.427351708,0,0,,,,,,,,,,,,,,,,,,,,,1,,,,,,,,,,,,,,,,,,,,,,,,,,,,,,,,,,,,,,,,,,,,,,57,158257,21,Female,1,2024/02/14_15:11:50,YZ,60.14536026
,,,,,,practice_main,0,2,3,120,8,N,0,right,0.878445428,1,0,,,,,,,,,,,,,,,,,,,,,1,,,,,,,,,,,,,,,,,,,,,,,,,,,,,,,,,,,,,,,,,,,,,,57,158257,21,Female,1,2024/02/14_15:11:50,YZ,60.14536026
,,,,,,practice_main,0,2,3,120,9,V,0,right,nan,0,1,,,,,,,,,,,,,,,,,,,,,1,,,,,,,,,,,,,,,,,,,,,,,,,,,,,,,,,,,,,,,,,,,,,,57,158257,21,Female,1,2024/02/14_15:11:50,YZ,60.14536026
,,,,,,practice_main,0,2,3,120,10,N,0,left,0.661384367,0,0,,,,,,,,,,,,,,,,,,,,,1,,,,,,,,,,,,,,,,,,,,,,,,,,,,,,,,,,,,,,,,,,,,,,57,158257,21,Female,1,2024/02/14_15:11:50,YZ,60.14536026
,,,,,,practice_main,0,2,3,120,11,F,0,right,0.462818201,1,0,,,,,,,,,,,,,,,,,,,,,1,,,,,,,,,,,,,,,,,,,,,,,,,,,,,,,,,,,,,,,,,,,,,,57,158257,21,Female,1,2024/02/14_15:11:50,YZ,60.14536026
,,,,,,practice_main,0,2,3,120,12,V,1,left,0.628191471,1,0,,,,,,,,,,,,,,,,,,,,,1,,,,,,,,,,,,,,,,,,,,,,,,,,,,,,,,,,,,,,,,,,,,,,57,158257,21,Female,1,2024/02/14_15:11:50,YZ,60.14536026
,,,,,,practice_main,0,2,3,120,13,S,0,left,nan,0,1,,,,,,,,,,,,,,,,,,,,,1,,,,,,,,,,,,,,,,,,,,,,,,,,,,,,,,,,,,,,,,,,,,,,57,158257,21,Female,1,2024/02/14_15:11:50,YZ,60.14536026
,,,,,,practice_main,0,2,3,120,14,F,1,left,0.978569034,1,0,,,,,,,,,,,,,,,,,,,,,1,,,,,,,,,,,,,,,,,,,,,,,,,,,,,,,,,,,,,,,,,,,,,,57,158257,21,Female,1,2024/02/14_15:11:50,YZ,60.14536026
,,,,,,practice_main,0,2,3,120,15,N,0,left,0.761478263,0,0,,,,,,,,,,,,,,,,,,,,,1,,,,,,,,,,,,,,,,,,,,,,,,,,,,,,,,,,,,,,,,,,,,,,57,158257,21,Female,1,2024/02/14_15:11:50,YZ,60.14536026
,,,,,,practice_main,0,2,3,120,16,X,0,right,0.59504134,1,0,,,,,,,,,,,,,,,,,,,,,1,,,,,,,,,,,,,,,,,,,,,,,,,,,,,,,,,,,,,,,,,,,,,,57,158257,21,Female,1,2024/02/14_15:11:50,YZ,60.14536026
,,,,,,practice_main,0,2,3,120,17,X,0,right,0.678279248,1,0,,,,,,,,,,,,,,,,,,,,,1,,,,,,,,,,,,,,,,,,,,,,,,,,,,,,,,,,,,,,,,,,,,,,57,158257,21,Female,1,2024/02/14_15:11:50,YZ,60.14536026
,,,,,,practice_main,0,2,3,120,18,C,0,right,0.474968286,1,0,,,,,,,,,,,,,,,,,,,,,1,,,,,,,,,,,,,,,,,,,,,,,,,,,,,,,,,,,,,,,,,,,,,,57,158257,21,Female,1,2024/02/14_15:11:50,YZ,60.14536026
,,,,,,practice_main,0,2,3,120,19,X,1,right,nan,0,1,,,,,,,,,,,,,,,,,,,,,1,,,,,,,,,,,,,,,,,,,,,,,,,,,,,,,,,,,,,,,,,,,,,,57,158257,21,Female,1,2024/02/14_15:11:50,YZ,60.14536026
,,,,,,practice_main,0,2,3,120,20,X,1,left,0.489890775,1,0,,,,,,,,,,,,,,,,,,,,,1,,,,,,,,,,,,,,,,,,,,,,,,,,,,,,,,,,,,,,,,,,,,,,57,158257,21,Female,1,2024/02/14_15:11:50,YZ,60.14536026
,,,,,,practice_main,0,2,3,120,21,Q,0,right,0.488039782,1,0,,,,,,,,,,,,,,,,,,,,,1,,,,,,,,,,,,,,,,,,,,,,,,,,,,,,,,,,,,,,,,,,,,,,57,158257,21,Female,1,2024/02/14_15:11:50,YZ,60.14536026
,,,,,,practice_main,0,2,3,120,22,Q,0,right,0.811244888,1,0,,,,,,,,,,,,,,,,,,,,,1,,,,,,,,,,,,,,,,,,,,,,,,,,,,,,,,,,,,,,,,,,,,,,57,158257,21,Female,1,2024/02/14_15:11:50,YZ,60.14536026
,,,,,,practice_main,0,2,3,120,23,F,0,right,0.794179877,1,0,,,,,,,,,,,,,,,,,,,,,1,,,,,,,,,,,,,,,,,,,,,,,,,,,,,,,,,,,,,,,,,,,,,,57,158257,21,Female,1,2024/02/14_15:11:50,YZ,60.14536026
,,,,,,practice_main,0,2,3,120,,,,,,,,0.848039216,0.666666667,0.117647059,0.857142857,0.173913043,0.708439898,0.605908212,4,2,1,3,4,12,16,6,17,0,,,,1,,,,,,,,,,,,,,,,,,,,,,,,,,,,,,,,,,,,,,,,,,,,,,57,158257,21,Female,1,2024/02/14_15:11:50,YZ,60.14536026
,,,,,240214_151628,PRACTICE,0,2,3,120,,,,,,,,,,,,,,,,,,,,,,,,,,,,1,22,3,2,cue2.png,hard,A,72,0.990638741,0,212.9822809,213.9800988,,,,,,,,,,,,,,,,,,,,,,,,,,,,,,,,,,,57,158257,21,Female,1,2024/02/14_15:11:50,YZ,60.14536026
,,,,,,practice_main,0,3,1,120,1,N,0,right,0.400698838,1,0,,,,,,,,,,,,,,,,,,,,,1,,,,,,,,,,,,,,,,,,,,,,,,,,,,,,,,,,,,,,,,,,,,,,57,158257,21,Female,1,2024/02/14_15:11:50,YZ,60.14536026
,,,,,,practice_main,0,3,1,120,2,X,0,right,0.347073094,1,0,,,,,,,,,,,,,,,,,,,,,1,,,,,,,,,,,,,,,,,,,,,,,,,,,,,,,,,,,,,,,,,,,,,,57,158257,21,Female,1,2024/02/14_15:11:50,YZ,60.14536026
,,,,,,practice_main,0,3,1,120,3,F,0,right,0.295269023,1,0,,,,,,,,,,,,,,,,,,,,,1,,,,,,,,,,,,,,,,,,,,,,,,,,,,,,,,,,,,,,,,,,,,,,57,158257,21,Female,1,2024/02/14_15:11:50,YZ,60.14536026
,,,,,,practice_main,0,3,1,120,4,J,0,right,0.325547069,1,0,,,,,,,,,,,,,,,,,,,,,1,,,,,,,,,,,,,,,,,,,,,,,,,,,,,,,,,,,,,,,,,,,,,,57,158257,21,Female,1,2024/02/14_15:11:50,YZ,60.14536026
,,,,,,practice_main,0,3,1,120,5,J,1,left,0.368800825,1,0,,,,,,,,,,,,,,,,,,,,,1,,,,,,,,,,,,,,,,,,,,,,,,,,,,,,,,,,,,,,,,,,,,,,57,158257,21,Female,1,2024/02/14_15:11:50,YZ,60.14536026
,,,,,,practice_main,0,3,1,120,6,S,0,right,0.292520067,1,0,,,,,,,,,,,,,,,,,,,,,1,,,,,,,,,,,,,,,,,,,,,,,,,,,,,,,,,,,,,,,,,,,,,,57,158257,21,Female,1,2024/02/14_15:11:50,YZ,60.14536026
,,,,,,practice_main,0,3,1,120,7,F,0,right,0.418839745,1,0,,,,,,,,,,,,,,,,,,,,,1,,,,,,,,,,,,,,,,,,,,,,,,,,,,,,,,,,,,,,,,,,,,,,57,158257,21,Female,1,2024/02/14_15:11:50,YZ,60.14536026
,,,,,,practice_main,0,3,1,120,8,F,1,left,0.396943554,1,0,,,,,,,,,,,,,,,,,,,,,1,,,,,,,,,,,,,,,,,,,,,,,,,,,,,,,,,,,,,,,,,,,,,,57,158257,21,Female,1,2024/02/14_15:11:50,YZ,60.14536026
,,,,,,practice_main,0,3,1,120,9,N,0,right,0.318760615,1,0,,,,,,,,,,,,,,,,,,,,,1,,,,,,,,,,,,,,,,,,,,,,,,,,,,,,,,,,,,,,,,,,,,,,57,158257,21,Female,1,2024/02/14_15:11:50,YZ,60.14536026
,,,,,,practice_main,0,3,1,120,10,F,0,right,0.316821384,1,0,,,,,,,,,,,,,,,,,,,,,1,,,,,,,,,,,,,,,,,,,,,,,,,,,,,,,,,,,,,,,,,,,,,,57,158257,21,Female,1,2024/02/14_15:11:50,YZ,60.14536026
,,,,,,practice_main,0,3,1,120,11,V,0,right,0.296358242,1,0,,,,,,,,,,,,,,,,,,,,,1,,,,,,,,,,,,,,,,,,,,,,,,,,,,,,,,,,,,,,,,,,,,,,57,158257,21,Female,1,2024/02/14_15:11:50,YZ,60.14536026
,,,,,,practice_main,0,3,1,120,12,V,1,right,0.35063566,0,0,,,,,,,,,,,,,,,,,,,,,1,,,,,,,,,,,,,,,,,,,,,,,,,,,,,,,,,,,,,,,,,,,,,,57,158257,21,Female,1,2024/02/14_15:11:50,YZ,60.14536026
,,,,,,practice_main,0,3,1,120,13,Q,0,right,0.299184348,1,0,,,,,,,,,,,,,,,,,,,,,1,,,,,,,,,,,,,,,,,,,,,,,,,,,,,,,,,,,,,,,,,,,,,,57,158257,21,Female,1,2024/02/14_15:11:50,YZ,60.14536026
,,,,,,practice_main,0,3,1,120,14,X,0,right,0.353596768,1,0,,,,,,,,,,,,,,,,,,,,,1,,,,,,,,,,,,,,,,,,,,,,,,,,,,,,,,,,,,,,,,,,,,,,57,158257,21,Female,1,2024/02/14_15:11:50,YZ,60.14536026
,,,,,,practice_main,0,3,1,120,15,X,1,left,0.317149585,1,0,,,,,,,,,,,,,,,,,,,,,1,,,,,,,,,,,,,,,,,,,,,,,,,,,,,,,,,,,,,,,,,,,,,,57,158257,21,Female,1,2024/02/14_15:11:50,YZ,60.14536026
,,,,,,practice_main,0,3,1,120,16,N,0,right,0.305001071,1,0,,,,,,,,,,,,,,,,,,,,,1,,,,,,,,,,,,,,,,,,,,,,,,,,,,,,,,,,,,,,,,,,,,,,57,158257,21,Female,1,2024/02/14_15:11:50,YZ,60.14536026
,,,,,,practice_main,0,3,1,120,17,N,1,left,0.334935432,1,0,,,,,,,,,,,,,,,,,,,,,1,,,,,,,,,,,,,,,,,,,,,,,,,,,,,,,,,,,,,,,,,,,,,,57,158257,21,Female,1,2024/02/14_15:11:50,YZ,60.14536026
,,,,,,practice_main,0,3,1,120,18,X,0,right,0.347974938,1,0,,,,,,,,,,,,,,,,,,,,,1,,,,,,,,,,,,,,,,,,,,,,,,,,,,,,,,,,,,,,,,,,,,,,57,158257,21,Female,1,2024/02/14_15:11:50,YZ,60.14536026
,,,,,,practice_main,0,3,1,120,19,X,1,left,0.30442086,1,0,,,,,,,,,,,,,,,,,,,,,1,,,,,,,,,,,,,,,,,,,,,,,,,,,,,,,,,,,,,,,,,,,,,,57,158257,21,Female,1,2024/02/14_15:11:50,YZ,60.14536026
,,,,,,practice_main,0,3,1,120,20,S,0,right,0.285605218,1,0,,,,,,,,,,,,,,,,,,,,,1,,,,,,,,,,,,,,,,,,,,,,,,,,,,,,,,,,,,,,,,,,,,,,57,158257,21,Female,1,2024/02/14_15:11:50,YZ,60.14536026
,,,,,,practice_main,0,3,1,120,21,J,0,right,0.43701375,1,0,,,,,,,,,,,,,,,,,,,,,1,,,,,,,,,,,,,,,,,,,,,,,,,,,,,,,,,,,,,,,,,,,,,,57,158257,21,Female,1,2024/02/14_15:11:50,YZ,60.14536026
,,,,,,practice_main,0,3,1,120,22,Q,0,right,0.420157364,1,0,,,,,,,,,,,,,,,,,,,,,1,,,,,,,,,,,,,,,,,,,,,,,,,,,,,,,,,,,,,,,,,,,,,,57,158257,21,Female,1,2024/02/14_15:11:50,YZ,60.14536026
,,,,,,practice_main,0,3,1,120,23,Q,1,left,0.412999494,1,0,,,,,,,,,,,,,,,,,,,,,1,,,,,,,,,,,,,,,,,,,,,,,,,,,,,,,,,,,,,,,,,,,,,,57,158257,21,Female,1,2024/02/14_15:11:50,YZ,60.14536026
,,,,,,practice_main,0,3,1,120,,,,,,,,0.964285714,0.857142857,0,1,0,1,0.345491606,6,0,0,0,0,16,22,7,16,0,,,,1,,,,,,,,,,,,,,,,,,,,,,,,,,,,,,,,,,,,,,,,,,,,,,57,158257,21,Female,1,2024/02/14_15:11:50,YZ,60.14536026
,,,,,240214_151659,PRACTICE,0,3,1,120,,,,,,,,,,,,,,,,,,,,,,,,,,,,1,46,4,3,cue1.png,easy,A,78,1.370709248,0,251.3277449,252.7236439,,,,,,,,,,,,,,,,,,,,,,,,,,,,,,,,,,,57,158257,21,Female,1,2024/02/14_15:11:50,YZ,60.14536026
1,./instructions/inst_prac_end/Slide56.png,right,19.66742729,280.7388266,300.4062539,,,,,,,,,,,,,,,,,,,,,,,,,,,,,,,,,1,,,,,,,,,,,,,,,,,,,,,,,,,,,,,,,,,,,,,,,,,,,,,,57,158257,21,Female,1,2024/02/14_15:11:50,YZ,60.14536026
1,./instructions/inst_test/Slide57.png,right,37.08827025,300.4697322,337.5580024,,,,,,,,,,,,,,,,,,,,,,,,,,,,,,,,,1,,,,,,,,,,,,,,,,,,,,,,,,,,,,,,,,,,,,,,,,,,,,,,57,158257,21,Female,1,2024/02/14_15:11:50,YZ,60.14536026
,,,,,,test,1,1,1,120,1,S,0,right,0.661800891,1,0,,,,,,,,,,,,,,,,,,,,,1,,,,,,,,,,,,,,,,,,,,,,,,,,,,,,,,,,,,,,,,,,,,,,57,158257,21,Female,1,2024/02/14_15:11:50,YZ,60.14536026
,,,,,,test,1,1,1,120,2,V,0,right,0.248618135,1,0,,,,,,,,,,,,,,,,,,,,,1,,,,,,,,,,,,,,,,,,,,,,,,,,,,,,,,,,,,,,,,,,,,,,57,158257,21,Female,1,2024/02/14_15:11:50,YZ,60.14536026
,,,,,,test,1,1,1,120,3,C,0,right,0.390879946,1,0,,,,,,,,,,,,,,,,,,,,,1,,,,,,,,,,,,,,,,,,,,,,,,,,,,,,,,,,,,,,,,,,,,,,57,158257,21,Female,1,2024/02/14_15:11:50,YZ,60.14536026
,,,,,,test,1,1,1,120,4,X,0,right,0.313346896,1,0,,,,,,,,,,,,,,,,,,,,,1,,,,,,,,,,,,,,,,,,,,,,,,,,,,,,,,,,,,,,,,,,,,,,57,158257,21,Female,1,2024/02/14_15:11:50,YZ,60.14536026
,,,,,,test,1,1,1,120,5,X,1,left,0.367249666,1,0,,,,,,,,,,,,,,,,,,,,,1,,,,,,,,,,,,,,,,,,,,,,,,,,,,,,,,,,,,,,,,,,,,,,57,158257,21,Female,1,2024/02/14_15:11:50,YZ,60.14536026
,,,,,,test,1,1,1,120,6,J,0,right,0.250746166,1,0,,,,,,,,,,,,,,,,,,,,,1,,,,,,,,,,,,,,,,,,,,,,,,,,,,,,,,,,,,,,,,,,,,,,57,158257,21,Female,1,2024/02/14_15:11:50,YZ,60.14536026
,,,,,,test,1,1,1,120,7,S,0,right,0.322986119,1,0,,,,,,,,,,,,,,,,,,,,,1,,,,,,,,,,,,,,,,,,,,,,,,,,,,,,,,,,,,,,,,,,,,,,57,158257,21,Female,1,2024/02/14_15:11:50,YZ,60.14536026
,,,,,,test,1,1,1,120,8,S,1,left,0.320170551,1,0,,,,,,,,,,,,,,,,,,,,,1,,,,,,,,,,,,,,,,,,,,,,,,,,,,,,,,,,,,,,,,,,,,,,57,158257,21,Female,1,2024/02/14_15:11:50,YZ,60.14536026
,,,,,,test,1,1,1,120,9,X,0,right,0.275252868,1,0,,,,,,,,,,,,,,,,,,,,,1,,,,,,,,,,,,,,,,,,,,,,,,,,,,,,,,,,,,,,,,,,,,,,57,158257,21,Female,1,2024/02/14_15:11:50,YZ,60.14536026
,,,,,,test,1,1,1,120,10,V,0,right,0.338439343,1,0,,,,,,,,,,,,,,,,,,,,,1,,,,,,,,,,,,,,,,,,,,,,,,,,,,,,,,,,,,,,,,,,,,,,57,158257,21,Female,1,2024/02/14_15:11:50,YZ,60.14536026
,,,,,,test,1,1,1,120,11,V,1,left,0.342788345,1,0,,,,,,,,,,,,,,,,,,,,,1,,,,,,,,,,,,,,,,,,,,,,,,,,,,,,,,,,,,,,,,,,,,,,57,158257,21,Female,1,2024/02/14_15:11:50,YZ,60.14536026
,,,,,,test,1,1,1,120,12,N,0,right,0.274993972,1,0,,,,,,,,,,,,,,,,,,,,,1,,,,,,,,,,,,,,,,,,,,,,,,,,,,,,,,,,,,,,,,,,,,,,57,158257,21,Female,1,2024/02/14_15:11:50,YZ,60.14536026
,,,,,,test,1,1,1,120,13,Q,0,right,0.265878542,1,0,,,,,,,,,,,,,,,,,,,,,1,,,,,,,,,,,,,,,,,,,,,,,,,,,,,,,,,,,,,,,,,,,,,,57,158257,21,Female,1,2024/02/14_15:11:50,YZ,60.14536026
,,,,,,test,1,1,1,120,14,S,0,right,0.329508269,1,0,,,,,,,,,,,,,,,,,,,,,1,,,,,,,,,,,,,,,,,,,,,,,,,,,,,,,,,,,,,,,,,,,,,,57,158257,21,Female,1,2024/02/14_15:11:50,YZ,60.14536026
,,,,,,test,1,1,1,120,15,J,0,right,0.348858888,1,0,,,,,,,,,,,,,,,,,,,,,1,,,,,,,,,,,,,,,,,,,,,,,,,,,,,,,,,,,,,,,,,,,,,,57,158257,21,Female,1,2024/02/14_15:11:50,YZ,60.14536026
,,,,,,test,1,1,1,120,16,C,0,right,0.289262353,1,0,,,,,,,,,,,,,,,,,,,,,1,,,,,,,,,,,,,,,,,,,,,,,,,,,,,,,,,,,,,,,,,,,,,,57,158257,21,Female,1,2024/02/14_15:11:50,YZ,60.14536026
,,,,,,test,1,1,1,120,17,N,0,right,0.527459209,1,0,,,,,,,,,,,,,,,,,,,,,1,,,,,,,,,,,,,,,,,,,,,,,,,,,,,,,,,,,,,,,,,,,,,,57,158257,21,Female,1,2024/02/14_15:11:50,YZ,60.14536026
,,,,,,test,1,1,1,120,18,N,1,left,0.545626628,1,0,,,,,,,,,,,,,,,,,,,,,1,,,,,,,,,,,,,,,,,,,,,,,,,,,,,,,,,,,,,,,,,,,,,,57,158257,21,Female,1,2024/02/14_15:11:50,YZ,60.14536026
,,,,,,test,1,1,1,120,19,F,0,right,0.319451064,1,0,,,,,,,,,,,,,,,,,,,,,1,,,,,,,,,,,,,,,,,,,,,,,,,,,,,,,,,,,,,,,,,,,,,,57,158257,21,Female,1,2024/02/14_15:11:50,YZ,60.14536026
,,,,,,test,1,1,1,120,20,F,1,left,0.490747507,1,0,,,,,,,,,,,,,,,,,,,,,1,,,,,,,,,,,,,,,,,,,,,,,,,,,,,,,,,,,,,,,,,,,,,,57,158257,21,Female,1,2024/02/14_15:11:50,YZ,60.14536026
,,,,,,test,1,1,1,120,21,V,0,right,0.312914252,1,0,,,,,,,,,,,,,,,,,,,,,1,,,,,,,,,,,,,,,,,,,,,,,,,,,,,,,,,,,,,,,,,,,,,,57,158257,21,Female,1,2024/02/14_15:11:50,YZ,60.14536026
,,,,,,test,1,1,1,120,22,C,0,right,0.37481842,1,0,,,,,,,,,,,,,,,,,,,,,1,,,,,,,,,,,,,,,,,,,,,,,,,,,,,,,,,,,,,,,,,,,,,,57,158257,21,Female,1,2024/02/14_15:11:50,YZ,60.14536026
,,,,,,test,1,1,1,120,23,C,1,left,0.329929126,1,0,,,,,,,,,,,,,,,,,,,,,1,,,,,,,,,,,,,,,,,,,,,,,,,,,,,,,,,,,,,,,,,,,,,,57,158257,21,Female,1,2024/02/14_15:11:50,YZ,60.14536026
,,,,,,Test,1,1,1,120,,,,,,,,1,1,0,1,0,1,0.358335963,6,0,0,0,0,17,23,6,17,0,,,,1,,,,,,,,,,,,,,,,,,,,,,,,,,,,,,,,,,,,,,,,,,,,,,57,158257,21,Female,1,2024/02/14_15:11:50,YZ,60.14536026
,,,,,240214_151831,TEST,1,1,1,120,,,,,,,,,,,,,,,,,,,,,,,,,,,,1,1,1,1,cue1.png,easy,A,64,1.189444972,0,342.6943181,343.9081955,,,,,,,,,,,,,,,,,,,,,,,,,,,,,,,,,,,57,158257,21,Female,1,2024/02/14_15:11:50,YZ,60.14536026
,,,,,,test,1,2,3,120,1,V,0,right,0.630293488,1,0,,,,,,,,,,,,,,,,,,,,,1,,,,,,,,,,,,,,,,,,,,,,,,,,,,,,,,,,,,,,,,,,,,,,57,158257,21,Female,1,2024/02/14_15:11:50,YZ,60.14536026
,,,,,,test,1,2,3,120,2,C,0,right,0.228823369,1,0,,,,,,,,,,,,,,,,,,,,,1,,,,,,,,,,,,,,,,,,,,,,,,,,,,,,,,,,,,,,,,,,,,,,57,158257,21,Female,1,2024/02/14_15:11:50,YZ,60.14536026
,,,,,,test,1,2,3,120,3,C,0,right,0.429864989,1,0,,,,,,,,,,,,,,,,,,,,,1,,,,,,,,,,,,,,,,,,,,,,,,,,,,,,,,,,,,,,,,,,,,,,57,158257,21,Female,1,2024/02/14_15:11:50,YZ,60.14536026
,,,,,,test,1,2,3,120,4,V,1,right,0.844549149,0,0,,,,,,,,,,,,,,,,,,,,,1,,,,,,,,,,,,,,,,,,,,,,,,,,,,,,,,,,,,,,,,,,,,,,57,158257,21,Female,1,2024/02/14_15:11:50,YZ,60.14536026
,,,,,,test,1,2,3,120,5,X,0,right,0.72750965,1,0,,,,,,,,,,,,,,,,,,,,,1,,,,,,,,,,,,,,,,,,,,,,,,,,,,,,,,,,,,,,,,,,,,,,57,158257,21,Female,1,2024/02/14_15:11:50,YZ,60.14536026
,,,,,,test,1,2,3,120,6,J,0,right,0.416666755,1,0,,,,,,,,,,,,,,,,,,,,,1,,,,,,,,,,,,,,,,,,,,,,,,,,,,,,,,,,,,,,,,,,,,,,57,158257,21,Female,1,2024/02/14_15:11:50,YZ,60.14536026
,,,,,,test,1,2,3,120,7,X,0,right,nan,0,1,,,,,,,,,,,,,,,,,,,,,1,,,,,,,,,,,,,,,,,,,,,,,,,,,,,,,,,,,,,,,,,,,,,,57,158257,21,Female,1,2024/02/14_15:11:50,YZ,60.14536026
,,,,,,test,1,2,3,120,8,V,0,right,0.828360901,1,0,,,,,,,,,,,,,,,,,,,,,1,,,,,,,,,,,,,,,,,,,,,,,,,,,,,,,,,,,,,,,,,,,,,,57,158257,21,Female,1,2024/02/14_15:11:50,YZ,60.14536026
,,,,,,test,1,2,3,120,9,N,0,right,0.744465112,1,0,,,,,,,,,,,,,,,,,,,,,1,,,,,,,,,,,,,,,,,,,,,,,,,,,,,,,,,,,,,,,,,,,,,,57,158257,21,Female,1,2024/02/14_15:11:50,YZ,60.14536026
,,,,,,test,1,2,3,120,10,X,1,left,0.744990378,1,0,,,,,,,,,,,,,,,,,,,,,1,,,,,,,,,,,,,,,,,,,,,,,,,,,,,,,,,,,,,,,,,,,,,,57,158257,21,Female,1,2024/02/14_15:11:50,YZ,60.14536026
,,,,,,test,1,2,3,120,11,Q,0,right,0.57847593,1,0,,,,,,,,,,,,,,,,,,,,,1,,,,,,,,,,,,,,,,,,,,,,,,,,,,,,,,,,,,,,,,,,,,,,57,158257,21,Female,1,2024/02/14_15:11:50,YZ,60.14536026
,,,,,,test,1,2,3,120,12,C,0,right,0.517407842,1,0,,,,,,,,,,,,,,,,,,,,,1,,,,,,,,,,,,,,,,,,,,,,,,,,,,,,,,,,,,,,,,,,,,,,57,158257,21,Female,1,2024/02/14_15:11:50,YZ,60.14536026
,,,,,,test,1,2,3,120,13,X,1,left,0.400459058,1,0,,,,,,,,,,,,,,,,,,,,,1,,,,,,,,,,,,,,,,,,,,,,,,,,,,,,,,,,,,,,,,,,,,,,57,158257,21,Female,1,2024/02/14_15:11:50,YZ,60.14536026
,,,,,,test,1,2,3,120,14,V,0,right,0.547413461,1,0,,,,,,,,,,,,,,,,,,,,,1,,,,,,,,,,,,,,,,,,,,,,,,,,,,,,,,,,,,,,,,,,,,,,57,158257,21,Female,1,2024/02/14_15:11:50,YZ,60.14536026
,,,,,,test,1,2,3,120,15,C,1,left,0.420555349,1,0,,,,,,,,,,,,,,,,,,,,,1,,,,,,,,,,,,,,,,,,,,,,,,,,,,,,,,,,,,,,,,,,,,,,57,158257,21,Female,1,2024/02/14_15:11:50,YZ,60.14536026
,,,,,,test,1,2,3,120,16,F,0,right,0.66144062,1,0,,,,,,,,,,,,,,,,,,,,,1,,,,,,,,,,,,,,,,,,,,,,,,,,,,,,,,,,,,,,,,,,,,,,57,158257,21,Female,1,2024/02/14_15:11:50,YZ,60.14536026
,,,,,,test,1,2,3,120,17,Q,0,right,nan,0,1,,,,,,,,,,,,,,,,,,,,,1,,,,,,,,,,,,,,,,,,,,,,,,,,,,,,,,,,,,,,,,,,,,,,57,158257,21,Female,1,2024/02/14_15:11:50,YZ,60.14536026
,,,,,,test,1,2,3,120,18,J,0,right,0.59694692,1,0,,,,,,,,,,,,,,,,,,,,,1,,,,,,,,,,,,,,,,,,,,,,,,,,,,,,,,,,,,,,,,,,,,,,57,158257,21,Female,1,2024/02/14_15:11:50,YZ,60.14536026
,,,,,,test,1,2,3,120,19,X,0,right,nan,0,1,,,,,,,,,,,,,,,,,,,,,1,,,,,,,,,,,,,,,,,,,,,,,,,,,,,,,,,,,,,,,,,,,,,,57,158257,21,Female,1,2024/02/14_15:11:50,YZ,60.14536026
,,,,,,test,1,2,3,120,20,Q,1,left,0.463193641,1,0,,,,,,,,,,,,,,,,,,,,,1,,,,,,,,,,,,,,,,,,,,,,,,,,,,,,,,,,,,,,,,,,,,,,57,158257,21,Female,1,2024/02/14_15:11:50,YZ,60.14536026
,,,,,,test,1,2,3,120,21,V,0,right,0.579001424,1,0,,,,,,,,,,,,,,,,,,,,,1,,,,,,,,,,,,,,,,,,,,,,,,,,,,,,,,,,,,,,,,,,,,,,57,158257,21,Female,1,2024/02/14_15:11:50,YZ,60.14536026
,,,,,,test,1,2,3,120,22,X,1,right,0.48904265,0,0,,,,,,,,,,,,,,,,,,,,,1,,,,,,,,,,,,,,,,,,,,,,,,,,,,,,,,,,,,,,,,,,,,,,57,158257,21,Female,1,2024/02/14_15:11:50,YZ,60.14536026
,,,,,,test,1,2,3,120,23,X,0,right,nan,0,1,,,,,,,,,,,,,,,,,,,,,1,,,,,,,,,,,,,,,,,,,,,,,,,,,,,,,,,,,,,,,,,,,,,,57,158257,21,Female,1,2024/02/14_15:11:50,YZ,60.14536026
,,,,,,Test,1,2,3,120,,,,,,,,0.916666667,0.666666667,0,1,0.173913043,0.826086957,0.571024247,4,0,0,4,4,13,17,6,17,0,,,,1,,,,,,,,,,,,,,,,,,,,,,,,,,,,,,,,,,,,,,,,,,,,,,57,158257,21,Female,1,2024/02/14_15:11:50,YZ,60.14536026
,,,,,240214_151909,TEST,1,2,3,120,,,,,,,,,,,,,,,,,,,,,,,,,,,,1,2,2,2,cue2.png,hard,A,32,1.605190764,0,373.8508977,375.4644311,,,,,,,,,,,,,,,,,,,,,,,,,,,,,,,,,,,57,158257,21,Female,1,2024/02/14_15:11:50,YZ,60.14536026
,,,,,,test,1,3,1,120,1,N,0,right,0.728478991,1,0,,,,,,,,,,,,,,,,,,,,,1,,,,,,,,,,,,,,,,,,,,,,,,,,,,,,,,,,,,,,,,,,,,,,57,158257,21,Female,1,2024/02/14_15:11:50,YZ,60.14536026
,,,,,,test,1,3,1,120,2,N,1,left,0.469635027,1,0,,,,,,,,,,,,,,,,,,,,,1,,,,,,,,,,,,,,,,,,,,,,,,,,,,,,,,,,,,,,,,,,,,,,57,158257,21,Female,1,2024/02/14_15:11:50,YZ,60.14536026
,,,,,,test,1,3,1,120,3,S,0,right,0.411254172,1,0,,,,,,,,,,,,,,,,,,,,,1,,,,,,,,,,,,,,,,,,,,,,,,,,,,,,,,,,,,,,,,,,,,,,57,158257,21,Female,1,2024/02/14_15:11:50,YZ,60.14536026
,,,,,,test,1,3,1,120,4,J,0,right,0.517851141,1,0,,,,,,,,,,,,,,,,,,,,,1,,,,,,,,,,,,,,,,,,,,,,,,,,,,,,,,,,,,,,,,,,,,,,57,158257,21,Female,1,2024/02/14_15:11:50,YZ,60.14536026
,,,,,,test,1,3,1,120,5,V,0,right,0.417864461,1,0,,,,,,,,,,,,,,,,,,,,,1,,,,,,,,,,,,,,,,,,,,,,,,,,,,,,,,,,,,,,,,,,,,,,57,158257,21,Female,1,2024/02/14_15:11:50,YZ,60.14536026
,,,,,,test,1,3,1,120,6,V,1,left,0.379770494,1,0,,,,,,,,,,,,,,,,,,,,,1,,,,,,,,,,,,,,,,,,,,,,,,,,,,,,,,,,,,,,,,,,,,,,57,158257,21,Female,1,2024/02/14_15:11:50,YZ,60.14536026
,,,,,,test,1,3,1,120,7,Q,0,right,0.270540707,1,0,,,,,,,,,,,,,,,,,,,,,1,,,,,,,,,,,,,,,,,,,,,,,,,,,,,,,,,,,,,,,,,,,,,,57,158257,21,Female,1,2024/02/14_15:11:50,YZ,60.14536026
,,,,,,test,1,3,1,120,8,X,0,right,0.238147605,1,0,,,,,,,,,,,,,,,,,,,,,1,,,,,,,,,,,,,,,,,,,,,,,,,,,,,,,,,,,,,,,,,,,,,,57,158257,21,Female,1,2024/02/14_15:11:50,YZ,60.14536026
,,,,,,test,1,3,1,120,9,X,1,left,0.420835993,1,0,,,,,,,,,,,,,,,,,,,,,1,,,,,,,,,,,,,,,,,,,,,,,,,,,,,,,,,,,,,,,,,,,,,,57,158257,21,Female,1,2024/02/14_15:11:50,YZ,60.14536026
,,,,,,test,1,3,1,120,10,Q,0,right,0.325922523,1,0,,,,,,,,,,,,,,,,,,,,,1,,,,,,,,,,,,,,,,,,,,,,,,,,,,,,,,,,,,,,,,,,,,,,57,158257,21,Female,1,2024/02/14_15:11:50,YZ,60.14536026
,,,,,,test,1,3,1,120,11,Q,1,left,0.386974432,1,0,,,,,,,,,,,,,,,,,,,,,1,,,,,,,,,,,,,,,,,,,,,,,,,,,,,,,,,,,,,,,,,,,,,,57,158257,21,Female,1,2024/02/14_15:11:50,YZ,60.14536026
,,,,,,test,1,3,1,120,12,V,0,right,0.293163595,1,0,,,,,,,,,,,,,,,,,,,,,1,,,,,,,,,,,,,,,,,,,,,,,,,,,,,,,,,,,,,,,,,,,,,,57,158257,21,Female,1,2024/02/14_15:11:50,YZ,60.14536026
,,,,,,test,1,3,1,120,13,Q,0,right,0.363441458,1,0,,,,,,,,,,,,,,,,,,,,,1,,,,,,,,,,,,,,,,,,,,,,,,,,,,,,,,,,,,,,,,,,,,,,57,158257,21,Female,1,2024/02/14_15:11:50,YZ,60.14536026
,,,,,,test,1,3,1,120,14,N,0,right,0.381343114,1,0,,,,,,,,,,,,,,,,,,,,,1,,,,,,,,,,,,,,,,,,,,,,,,,,,,,,,,,,,,,,,,,,,,,,57,158257,21,Female,1,2024/02/14_15:11:50,YZ,60.14536026
