Instruction,Stimulus,Key,RT,START,END,Phase,Block,TrialN,NbackLevel,ISI,LetterN,Letter,Letter_isSame,Letter_Resp,Letter_RT,Letter_Accuracy,Letter_Timeout,Trial_A_measure,Trial_HR,Trial_FAR,Trial_CDR,Trial_MSR,Trial_ACC,Trial_RT,Trial_HitsCount,Trial_FAsCount,Trial_SameNoRespCount,Trial_DiffNoRespCount,Trial_NoRespCount,Trial_CDsCount,Trial_CorrectRespCount,Trial_SameLetterCount,Trial_DiffLetterCount,Trial_InvalidLetterCount,TrialCountCali,CaliEnd_A_measure,ISI_calibrated,Run,TrialIndex,TrialNumber_total,TrialNumber_valid,CueLearning,TrialDemandLearning,CueMapping,OnlineRating,OnlineRatingRT,OnlineRatingTimeOut,CueSTART,RatingSTART,OfflineRatingTimePoint,OfflineRatingQuesIndex,CueFigure,TrialDemand,OfflineRating,OfflineRatingRT,CueStart,OfflineRatingStart,PhaseType,CueLeft,CueDemandLeft,CueRight,CueDemandRight,Choice,ChoiceDemand,TaskDemand,ChoiceRT,ChoiceTimeOut,ChoiceSTART,CueCheck,CueDemandCheck,CorrectAnswer,Answer,AnswerDemand,AnswerRT,AnswerACC,AnswerTimeOut,CheckSTART,DemandRatingQuesIndex,QuesTLX,DemandLevel,DemandRating,DemandRatingRT,QuesStart,PID,SONA,Age,Gender,Run,TIME,EXPERIMENTER,frameRate,
-1,./instructions/inst_begin/Slide2.png,left,17.140786354997545,0.11548841799958609,17.25627477299713,,,,,,,,,,,,,,,,,,,,,,,,,,,,,,,,,1,,,,,,,,,,,,,,,,,,,,,,,,,,,,,,,,,,,,,,,,,,,,,,116,148816,21,Male,1,2024/03/22_14:26:43,YZ,None,
0,./instructions/inst_begin/Slide4.png,right,9.463529893007944,17.280535726997186,26.74406562000513,,,,,,,,,,,,,,,,,,,,,,,,,,,,,,,,,1,,,,,,,,,,,,,,,,,,,,,,,,,,,,,,,,,,,,,,,,,,,,,,116,148816,21,Male,1,2024/03/22_14:26:43,YZ,None,
1,./instructions/inst_begin/Slide2.png,right,2.850711406994378,26.77324261200556,29.62395401899994,,,,,,,,,,,,,,,,,,,,,,,,,,,,,,,,,1,,,,,,,,,,,,,,,,,,,,,,,,,,,,,,,,,,,,,,,,,,,,,,116,148816,21,Male,1,2024/03/22_14:26:43,YZ,None,
2,./instructions/inst_begin/Slide3.png,right,7.579649801002233,29.652465431994642,37.232115232996875,,,,,,,,,,,,,,,,,,,,,,,,,,,,,,,,,1,,,,,,,,,,,,,,,,,,,,,,,,,,,,,,,,,,,,,,,,,,,,,,116,148816,21,Male,1,2024/03/22_14:26:43,YZ,None,
3,./instructions/inst_begin/Slide4.png,right,5.917332413999247,37.25866632400721,43.175998738006456,,,,,,,,,,,,,,,,,,,,,,,,,,,,,,,,,1,,,,,,,,,,,,,,,,,,,,,,,,,,,,,,,,,,,,,,,,,,,,,,116,148816,21,Male,1,2024/03/22_14:26:43,YZ,None,
1,./instructions/inst_prac_2/Slide6.png,right,10.933729860000312,43.21039833199757,54.14412819199788,,,,,,,,,,,,,,,,,,,,,,,,,,,,,,,,,1,,,,,,,,,,,,,,,,,,,,,,,,,,,,,,,,,,,,,,,,,,,,,,116,148816,21,Male,1,2024/03/22_14:26:43,YZ,None,
2,./instructions/inst_prac_2/Slide7.png,right,12.053004958012025,54.17107713299629,66.22408209100831,,,,,,,,,,,,,,,,,,,,,,,,,,,,,,,,,1,,,,,,,,,,,,,,,,,,,,,,,,,,,,,,,,,,,,,,,,,,,,,,116,148816,21,Male,1,2024/03/22_14:26:43,YZ,None,
3,./instructions/inst_prac_2/Slide8.png,right,14.410767128996667,66.2532620109996,80.66402913999627,,,,,,,,,,,,,,,,,,,,,,,,,,,,,,,,,1,,,,,,,,,,,,,,,,,,,,,,,,,,,,,,,,,,,,,,,,,,,,,,116,148816,21,Male,1,2024/03/22_14:26:43,YZ,None,
4,./instructions/inst_prac_2/Slide9.png,right,2.253157294995617,80.69072986500396,82.94388715999958,,,,,,,,,,,,,,,,,,,,,,,,,,,,,,,,,1,,,,,,,,,,,,,,,,,,,,,,,,,,,,,,,,,,,,,,,,,,,,,,116,148816,21,Male,1,2024/03/22_14:26:43,YZ,None,
5,./instructions/inst_prac_2/Slide10.png,right,1.3780612480040872,82.96589629699884,84.34395754500292,,,,,,,,,,,,,,,,,,,,,,,,,,,,,,,,,1,,,,,,,,,,,,,,,,,,,,,,,,,,,,,,,,,,,,,,,,,,,,,,116,148816,21,Male,1,2024/03/22_14:26:43,YZ,None,
6,./instructions/inst_prac_2/Slide11.png,right,1.2506874300015625,84.37347844800388,85.62416587800544,,,,,,,,,,,,,,,,,,,,,,,,,,,,,,,,,1,,,,,,,,,,,,,,,,,,,,,,,,,,,,,,,,,,,,,,,,,,,,,,116,148816,21,Male,1,2024/03/22_14:26:43,YZ,None,
7,./instructions/inst_prac_2/Slide12.png,right,1.050767057997291,85.6531004730059,86.7038675310032,,,,,,,,,,,,,,,,,,,,,,,,,,,,,,,,,1,,,,,,,,,,,,,,,,,,,,,,,,,,,,,,,,,,,,,,,,,,,,,,116,148816,21,Male,1,2024/03/22_14:26:43,YZ,None,
8,./instructions/inst_prac_2/Slide13.png,right,1.1506691399990814,86.72929148499679,87.87996062499587,,,,,,,,,,,,,,,,,,,,,,,,,,,,,,,,,1,,,,,,,,,,,,,,,,,,,,,,,,,,,,,,,,,,,,,,,,,,,,,,116,148816,21,Male,1,2024/03/22_14:26:43,YZ,None,
9,./instructions/inst_prac_2/Slide14.png,right,12.323099728004308,87.90895887700026,100.23205860500457,,,,,,,,,,,,,,,,,,,,,,,,,,,,,,,,,1,,,,,,,,,,,,,,,,,,,,,,,,,,,,,,,,,,,,,,,,,,,,,,116,148816,21,Male,1,2024/03/22_14:26:43,YZ,None,
10,./instructions/inst_prac_2/Slide15.png,right,15.594523574007326,100.26147036100156,115.85599393500888,,,,,,,,,,,,,,,,,,,,,,,,,,,,,,,,,1,,,,,,,,,,,,,,,,,,,,,,,,,,,,,,,,,,,,,,,,,,,,,,116,148816,21,Male,1,2024/03/22_14:26:43,YZ,None,
,,,,,,practice,0,4,2,2583,1,J,0,right,1.5375632799987216,1,0,,,,,,,,,,,,,,,,,,,,,1,,,,,,,,,,,,,,,,,,,,,,,,,,,,,,,,,,,,,,,,,,,,,,116,148816,21,Male,1,2024/03/22_14:26:43,YZ,None,
,,,,,,practice,0,4,2,2583,2,C,0,right,1.2109918850037502,1,0,,,,,,,,,,,,,,,,,,,,,1,,,,,,,,,,,,,,,,,,,,,,,,,,,,,,,,,,,,,,,,,,,,,,116,148816,21,Male,1,2024/03/22_14:26:43,YZ,None,
,,,,,,practice,0,4,2,2583,3,J,1,left,0.6935181479930179,1,0,,,,,,,,,,,,,,,,,,,,,1,,,,,,,,,,,,,,,,,,,,,,,,,,,,,,,,,,,,,,,,,,,,,,116,148816,21,Male,1,2024/03/22_14:26:43,YZ,None,
,,,,,,practice,0,4,2,2583,4,C,1,left,1.2062194589962019,1,0,,,,,,,,,,,,,,,,,,,,,1,,,,,,,,,,,,,,,,,,,,,,,,,,,,,,,,,,,,,,,,,,,,,,116,148816,21,Male,1,2024/03/22_14:26:43,YZ,None,
,,,,,,practice,0,4,2,2583,5,X,0,right,1.0020904749981128,1,0,,,,,,,,,,,,,,,,,,,,,1,,,,,,,,,,,,,,,,,,,,,,,,,,,,,,,,,,,,,,,,,,,,,,116,148816,21,Male,1,2024/03/22_14:26:43,YZ,None,
,,,,,,practice,0,4,2,2583,6,S,0,right,0.7188347749906825,1,0,,,,,,,,,,,,,,,,,,,,,1,,,,,,,,,,,,,,,,,,,,,,,,,,,,,,,,,,,,,,,,,,,,,,116,148816,21,Male,1,2024/03/22_14:26:43,YZ,None,
,,,,,,practice,0,4,2,2583,,,,,,,,1.0,1.0,0.0,1.0,0.0,1.0,1.0615363369967479,2,0,0,0,0,4,6,2,4,0,,,,1,,,,,,,,,,,,,,,,,,,,,,,,,,,,,,,,,,,,,,,,,,,,,,116,148816,21,Male,1,2024/03/22_14:26:43,YZ,None,
1,./instructions/inst_to_cali/Slide20.png,right,19.8263758749963,128.57369716600806,148.40007304100436,,,,,,,,,,,,,,,,,,,,,,,,,,,,,,,,,1,,,,,,,,,,,,,,,,,,,,,,,,,,,,,,,,,,,,,,,,,,,,,,116,148816,21,Male,1,2024/03/22_14:26:43,YZ,None,
1,./instructions/inst_cali/Slide22.png,right,32.26239344099304,148.4339021670021,180.69629560799513,,,,,,,,,,,,,,,,,,,,,,,,,,,,,,,,,1,,,,,,,,,,,,,,,,,,,,,,,,,,,,,,,,,,,,,,,,,,,,,,116,148816,21,Male,1,2024/03/22_14:26:43,YZ,None,
,,,,,,calibration,0,13,2,583,1,C,0,right,0.6684813799947733,1,0,,,,,,,,,,,,,,,,,,,,,1,,,,,,,,,,,,,,,,,,,,,,,,,,,,,,,,,,,,,,,,,,,,,,116,148816,21,Male,1,2024/03/22_14:26:43,YZ,None,
,,,,,,calibration,0,13,2,583,2,S,0,right,0.6741528980055591,1,0,,,,,,,,,,,,,,,,,,,,,1,,,,,,,,,,,,,,,,,,,,,,,,,,,,,,,,,,,,,,,,,,,,,,116,148816,21,Male,1,2024/03/22_14:26:43,YZ,None,
,,,,,,calibration,0,13,2,583,3,Q,0,right,0.47079884400591254,1,0,,,,,,,,,,,,,,,,,,,,,1,,,,,,,,,,,,,,,,,,,,,,,,,,,,,,,,,,,,,,,,,,,,,,116,148816,21,Male,1,2024/03/22_14:26:43,YZ,None,
,,,,,,calibration,0,13,2,583,4,F,0,right,0.5756552889943123,1,0,,,,,,,,,,,,,,,,,,,,,1,,,,,,,,,,,,,,,,,,,,,,,,,,,,,,,,,,,,,,,,,,,,,,116,148816,21,Male,1,2024/03/22_14:26:43,YZ,None,
,,,,,,calibration,0,13,2,583,5,Q,1,right,nan,0,1,,,,,,,,,,,,,,,,,,,,,1,,,,,,,,,,,,,,,,,,,,,,,,,,,,,,,,,,,,,,,,,,,,,,116,148816,21,Male,1,2024/03/22_14:26:43,YZ,None,
,,,,,,calibration,0,13,2,583,6,X,0,right,1.2426647749962285,1,0,,,,,,,,,,,,,,,,,,,,,1,,,,,,,,,,,,,,,,,,,,,,,,,,,,,,,,,,,,,,,,,,,,,,116,148816,21,Male,1,2024/03/22_14:26:43,YZ,None,
,,,,,,calibration,0,13,2,583,7,Q,1,left,0.7921875110041583,1,0,,,,,,,,,,,,,,,,,,,,,1,,,,,,,,,,,,,,,,,,,,,,,,,,,,,,,,,,,,,,,,,,,,,,116,148816,21,Male,1,2024/03/22_14:26:43,YZ,None,
,,,,,,calibration,0,13,2,583,8,C,0,left,0.9148103240004275,0,0,,,,,,,,,,,,,,,,,,,,,1,,,,,,,,,,,,,,,,,,,,,,,,,,,,,,,,,,,,,,,,,,,,,,116,148816,21,Male,1,2024/03/22_14:26:43,YZ,None,
,,,,,,calibration,0,13,2,583,9,Q,1,left,0.9093413340015104,1,0,,,,,,,,,,,,,,,,,,,,,1,,,,,,,,,,,,,,,,,,,,,,,,,,,,,,,,,,,,,,,,,,,,,,116,148816,21,Male,1,2024/03/22_14:26:43,YZ,None,
,,,,,,calibration,0,13,2,583,10,X,0,right,0.7850451099948259,1,0,,,,,,,,,,,,,,,,,,,,,1,,,,,,,,,,,,,,,,,,,,,,,,,,,,,,,,,,,,,,,,,,,,,,116,148816,21,Male,1,2024/03/22_14:26:43,YZ,None,
,,,,,,calibration,0,13,2,583,11,C,0,left,0.8354789379955037,0,0,,,,,,,,,,,,,,,,,,,,,1,,,,,,,,,,,,,,,,,,,,,,,,,,,,,,,,,,,,,,,,,,,,,,116,148816,21,Male,1,2024/03/22_14:26:43,YZ,None,
,,,,,,calibration,0,13,2,583,12,X,1,left,0.8455879200046184,1,0,,,,,,,,,,,,,,,,,,,,,1,,,,,,,,,,,,,,,,,,,,,,,,,,,,,,,,,,,,,,,,,,,,,,116,148816,21,Male,1,2024/03/22_14:26:43,YZ,None,
,,,,,,calibration,0,13,2,583,13,N,0,right,0.94276817899663,1,0,,,,,,,,,,,,,,,,,,,,,1,,,,,,,,,,,,,,,,,,,,,,,,,,,,,,,,,,,,,,,,,,,,,,116,148816,21,Male,1,2024/03/22_14:26:43,YZ,None,
,,,,,,calibration,0,13,2,583,14,X,1,left,0.808109849007451,1,0,,,,,,,,,,,,,,,,,,,,,1,,,,,,,,,,,,,,,,,,,,,,,,,,,,,,,,,,,,,,,,,,,,,,116,148816,21,Male,1,2024/03/22_14:26:43,YZ,None,
,,,,,,calibration,0,13,2,583,15,V,0,right,0.8240553219948197,1,0,,,,,,,,,,,,,,,,,,,,,1,,,,,,,,,,,,,,,,,,,,,,,,,,,,,,,,,,,,,,,,,,,,,,116,148816,21,Male,1,2024/03/22_14:26:43,YZ,None,
,,,,,,calibration,0,13,2,583,,,,,,,,0.86,0.8,0.2,0.8,0.06666666666666667,0.7333333333333334,0.8063669766426236,4,2,1,0,1,8,12,5,10,0,,,,1,,,,,,,,,,,,,,,,,,,,,,,,,,,,,,,,,,,,,,,,,,,,,,116,148816,21,Male,1,2024/03/22_14:26:43,YZ,None,
,,,,,,Calibration,0,,2,583,,,,,,,,,,,,,,,,,,,,,,,,,1,,,1,,,,,,,,,,,,,,,,,,,,,,,,,,,,,,,,,,,,,,,,,,,,,,116,148816,21,Male,1,2024/03/22_14:26:43,YZ,None,
,,,,,,calibration,0,18,2,500,1,F,0,None,nan,0,1,,,,,,,,,,,,,,,,,,,,,1,,,,,,,,,,,,,,,,,,,,,,,,,,,,,,,,,,,,,,,,,,,,,,116,148816,21,Male,1,2024/03/22_14:26:43,YZ,None,
,,,,,,calibration,0,18,2,500,2,J,0,right,0.5252255859959405,1,0,,,,,,,,,,,,,,,,,,,,,1,,,,,,,,,,,,,,,,,,,,,,,,,,,,,,,,,,,,,,,,,,,,,,116,148816,21,Male,1,2024/03/22_14:26:43,YZ,None,
,,,,,,calibration,0,18,2,500,3,Q,0,right,0.6928591180039803,1,0,,,,,,,,,,,,,,,,,,,,,1,,,,,,,,,,,,,,,,,,,,,,,,,,,,,,,,,,,,,,,,,,,,,,116,148816,21,Male,1,2024/03/22_14:26:43,YZ,None,
,,,,,,calibration,0,18,2,500,4,C,0,right,0.6427164909982821,1,0,,,,,,,,,,,,,,,,,,,,,1,,,,,,,,,,,,,,,,,,,,,,,,,,,,,,,,,,,,,,,,,,,,,,116,148816,21,Male,1,2024/03/22_14:26:43,YZ,None,
,,,,,,calibration,0,18,2,500,5,V,0,right,0.6579620359989349,1,0,,,,,,,,,,,,,,,,,,,,,1,,,,,,,,,,,,,,,,,,,,,,,,,,,,,,,,,,,,,,,,,,,,,,116,148816,21,Male,1,2024/03/22_14:26:43,YZ,None,
,,,,,,calibration,0,18,2,500,6,C,1,right,0.7017844169895397,0,0,,,,,,,,,,,,,,,,,,,,,1,,,,,,,,,,,,,,,,,,,,,,,,,,,,,,,,,,,,,,,,,,,,,,116,148816,21,Male,1,2024/03/22_14:26:43,YZ,None,
,,,,,,calibration,0,18,2,500,7,Q,0,right,0.6423398409970105,1,0,,,,,,,,,,,,,,,,,,,,,1,,,,,,,,,,,,,,,,,,,,,,,,,,,,,,,,,,,,,,,,,,,,,,116,148816,21,Male,1,2024/03/22_14:26:43,YZ,None,
,,,,,,calibration,0,18,2,500,8,J,0,right,0.6252108619955834,1,0,,,,,,,,,,,,,,,,,,,,,1,,,,,,,,,,,,,,,,,,,,,,,,,,,,,,,,,,,,,,,,,,,,,,116,148816,21,Male,1,2024/03/22_14:26:43,YZ,None,
,,,,,,calibration,0,18,2,500,9,N,0,right,0.7342389779951191,1,0,,,,,,,,,,,,,,,,,,,,,1,,,,,,,,,,,,,,,,,,,,,,,,,,,,,,,,,,,,,,,,,,,,,,116,148816,21,Male,1,2024/03/22_14:26:43,YZ,None,
,,,,,,calibration,0,18,2,500,10,J,1,right,0.35717013500106987,0,0,,,,,,,,,,,,,,,,,,,,,1,,,,,,,,,,,,,,,,,,,,,,,,,,,,,,,,,,,,,,,,,,,,,,116,148816,21,Male,1,2024/03/22_14:26:43,YZ,None,
,,,,,,calibration,0,18,2,500,11,X,0,right,0.4210832999960985,1,0,,,,,,,,,,,,,,,,,,,,,1,,,,,,,,,,,,,,,,,,,,,,,,,,,,,,,,,,,,,,,,,,,,,,116,148816,21,Male,1,2024/03/22_14:26:43,YZ,None,
,,,,,,calibration,0,18,2,500,12,V,0,right,0.3130471350013977,1,0,,,,,,,,,,,,,,,,,,,,,1,,,,,,,,,,,,,,,,,,,,,,,,,,,,,,,,,,,,,,,,,,,,,,116,148816,21,Male,1,2024/03/22_14:26:43,YZ,None,
,,,,,,calibration,0,18,2,500,13,S,0,left,0.2772543909959495,0,0,,,,,,,,,,,,,,,,,,,,,1,,,,,,,,,,,,,,,,,,,,,,,,,,,,,,,,,,,,,,,,,,,,,,116,148816,21,Male,1,2024/03/22_14:26:43,YZ,None,
,,,,,,calibration,0,18,2,500,14,V,1,right,0.1962090070010163,0,0,,,,,,,,,,,,,,,,,,,,,1,,,,,,,,,,,,,,,,,,,,,,,,,,,,,,,,,,,,,,,,,,,,,,116,148816,21,Male,1,2024/03/22_14:26:43,YZ,None,
,,,,,,calibration,0,18,2,500,15,J,0,right,0.22523344699584413,1,0,,,,,,,,,,,,,,,,,,,,,1,,,,,,,,,,,,,,,,,,,,,,,,,,,,,,,,,,,,,,,,,,,,,,116,148816,21,Male,1,2024/03/22_14:26:43,YZ,None,
,,,,,,calibration,0,18,2,500,16,V,1,right,0.18525675100681838,0,0,,,,,,,,,,,,,,,,,,,,,1,,,,,,,,,,,,,,,,,,,,,,,,,,,,,,,,,,,,,,,,,,,,,,116,148816,21,Male,1,2024/03/22_14:26:43,YZ,None,
,,,,,,calibration,0,18,2,500,,,,,,,,0.22916666666666666,0.0,0.08333333333333333,0.9090909090909091,0.0625,0.8541666666666666,0.47983943299817233,0,1,0,1,1,10,10,4,12,0,,,,1,,,,,,,,,,,,,,,,,,,,,,,,,,,,,,,,,,,,,,,,,,,,,,116,148816,21,Male,1,2024/03/22_14:26:43,YZ,None,
,,,,,,Calibration,0,,2,500,,,,,,,,,,,,,,,,,,,,,,,,,2,,,1,,,,,,,,,,,,,,,,,,,,,,,,,,,,,,,,,,,,,,,,,,,,,,116,148816,21,Male,1,2024/03/22_14:26:43,YZ,None,
,,,,,,calibration,0,4,2,583,1,F,0,right,0.3459584929951234,1,0,,,,,,,,,,,,,,,,,,,,,1,,,,,,,,,,,,,,,,,,,,,,,,,,,,,,,,,,,,,,,,,,,,,,116,148816,21,Male,1,2024/03/22_14:26:43,YZ,None,
,,,,,,calibration,0,4,2,583,2,N,0,right,0.22607893799431622,1,0,,,,,,,,,,,,,,,,,,,,,1,,,,,,,,,,,,,,,,,,,,,,,,,,,,,,,,,,,,,,,,,,,,,,116,148816,21,Male,1,2024/03/22_14:26:43,YZ,None,
,,,,,,calibration,0,4,2,583,3,S,0,right,0.26875593900331296,1,0,,,,,,,,,,,,,,,,,,,,,1,,,,,,,,,,,,,,,,,,,,,,,,,,,,,,,,,,,,,,,,,,,,,,116,148816,21,Male,1,2024/03/22_14:26:43,YZ,None,
,,,,,,calibration,0,4,2,583,4,N,1,right,0.21675976300321054,0,0,,,,,,,,,,,,,,,,,,,,,1,,,,,,,,,,,,,,,,,,,,,,,,,,,,,,,,,,,,,,,,,,,,,,116,148816,21,Male,1,2024/03/22_14:26:43,YZ,None,
,,,,,,calibration,0,4,2,583,5,C,0,right,0.364787204991444,1,0,,,,,,,,,,,,,,,,,,,,,1,,,,,,,,,,,,,,,,,,,,,,,,,,,,,,,,,,,,,,,,,,,,,,116,148816,21,Male,1,2024/03/22_14:26:43,YZ,None,
,,,,,,calibration,0,4,2,583,6,N,1,right,0.33727187699696515,0,0,,,,,,,,,,,,,,,,,,,,,1,,,,,,,,,,,,,,,,,,,,,,,,,,,,,,,,,,,,,,,,,,,,,,116,148816,21,Male,1,2024/03/22_14:26:43,YZ,None,
,,,,,,calibration,0,4,2,583,7,S,0,right,0.3325855619914364,1,0,,,,,,,,,,,,,,,,,,,,,1,,,,,,,,,,,,,,,,,,,,,,,,,,,,,,,,,,,,,,,,,,,,,,116,148816,21,Male,1,2024/03/22_14:26:43,YZ,None,
,,,,,,calibration,0,4,2,583,8,V,0,left,0.18523747799918056,0,0,,,,,,,,,,,,,,,,,,,,,1,,,,,,,,,,,,,,,,,,,,,,,,,,,,,,,,,,,,,,,,,,,,,,116,148816,21,Male,1,2024/03/22_14:26:43,YZ,None,
,,,,,,calibration,0,4,2,583,9,Q,0,right,0.18845963799685705,1,0,,,,,,,,,,,,,,,,,,,,,1,,,,,,,,,,,,,,,,,,,,,,,,,,,,,,,,,,,,,,,,,,,,,,116,148816,21,Male,1,2024/03/22_14:26:43,YZ,None,
,,,,,,calibration,0,4,2,583,10,V,1,right,0.3304254679969745,0,0,,,,,,,,,,,,,,,,,,,,,1,,,,,,,,,,,,,,,,,,,,,,,,,,,,,,,,,,,,,,,,,,,,,,116,148816,21,Male,1,2024/03/22_14:26:43,YZ,None,
,,,,,,calibration,0,4,2,583,11,S,0,right,0.2524296659976244,1,0,,,,,,,,,,,,,,,,,,,,,1,,,,,,,,,,,,,,,,,,,,,,,,,,,,,,,,,,,,,,,,,,,,,,116,148816,21,Male,1,2024/03/22_14:26:43,YZ,None,
,,,,,,calibration,0,4,2,583,12,Q,0,right,0.2163984420039924,1,0,,,,,,,,,,,,,,,,,,,,,1,,,,,,,,,,,,,,,,,,,,,,,,,,,,,,,,,,,,,,,,,,,,,,116,148816,21,Male,1,2024/03/22_14:26:43,YZ,None,
,,,,,,calibration,0,4,2,583,13,X,0,right,0.2752853030106053,1,0,,,,,,,,,,,,,,,,,,,,,1,,,,,,,,,,,,,,,,,,,,,,,,,,,,,,,,,,,,,,,,,,,,,,116,148816,21,Male,1,2024/03/22_14:26:43,YZ,None,
,,,,,,calibration,0,4,2,583,14,Q,1,right,0.25003237700730097,0,0,,,,,,,,,,,,,,,,,,,,,1,,,,,,,,,,,,,,,,,,,,,,,,,,,,,,,,,,,,,,,,,,,,,,116,148816,21,Male,1,2024/03/22_14:26:43,YZ,None,
,,,,,,calibration,0,4,2,583,15,S,0,right,0.45789813601004425,1,0,,,,,,,,,,,,,,,,,,,,,1,,,,,,,,,,,,,,,,,,,,,,,,,,,,,,,,,,,,,,,,,,,,,,116,148816,21,Male,1,2024/03/22_14:26:43,YZ,None,
,,,,,,calibration,0,4,2,583,,,,,,,,0.22727272727272727,0.0,0.09090909090909091,0.9090909090909091,0.0,0.9090909090909091,0.2832242856665592,0,1,0,0,0,10,10,4,11,0,,,,1,,,,,,,,,,,,,,,,,,,,,,,,,,,,,,,,,,,,,,,,,,,,,,116,148816,21,Male,1,2024/03/22_14:26:43,YZ,None,
,,,,,,Calibration,0,,2,583,,,,,,,,,,,,,,,,,,,,,,,,,3,,,1,,,,,,,,,,,,,,,,,,,,,,,,,,,,,,,,,,,,,,,,,,,,,,116,148816,21,Male,1,2024/03/22_14:26:43,YZ,None,
,,,,,,calibration,0,28,2,679,1,S,0,right,0.3120618950051721,1,0,,,,,,,,,,,,,,,,,,,,,1,,,,,,,,,,,,,,,,,,,,,,,,,,,,,,,,,,,,,,,,,,,,,,116,148816,21,Male,1,2024/03/22_14:26:43,YZ,None,
,,,,,,calibration,0,28,2,679,2,C,0,right,0.2074414969974896,1,0,,,,,,,,,,,,,,,,,,,,,1,,,,,,,,,,,,,,,,,,,,,,,,,,,,,,,,,,,,,,,,,,,,,,116,148816,21,Male,1,2024/03/22_14:26:43,YZ,None,
,,,,,,calibration,0,28,2,679,3,Q,0,right,0.3138240199914435,1,0,,,,,,,,,,,,,,,,,,,,,1,,,,,,,,,,,,,,,,,,,,,,,,,,,,,,,,,,,,,,,,,,,,,,116,148816,21,Male,1,2024/03/22_14:26:43,YZ,None,
,,,,,,calibration,0,28,2,679,4,C,1,left,0.37308486900292337,1,0,,,,,,,,,,,,,,,,,,,,,1,,,,,,,,,,,,,,,,,,,,,,,,,,,,,,,,,,,,,,,,,,,,,,116,148816,21,Male,1,2024/03/22_14:26:43,YZ,None,
,,,,,,calibration,0,28,2,679,5,F,0,right,0.24511987699952442,1,0,,,,,,,,,,,,,,,,,,,,,1,,,,,,,,,,,,,,,,,,,,,,,,,,,,,,,,,,,,,,,,,,,,,,116,148816,21,Male,1,2024/03/22_14:26:43,YZ,None,
,,,,,,calibration,0,28,2,679,6,S,0,right,0.2529517609946197,1,0,,,,,,,,,,,,,,,,,,,,,1,,,,,,,,,,,,,,,,,,,,,,,,,,,,,,,,,,,,,,,,,,,,,,116,148816,21,Male,1,2024/03/22_14:26:43,YZ,None,
,,,,,,calibration,0,28,2,679,7,N,0,right,0.22371003999433015,1,0,,,,,,,,,,,,,,,,,,,,,1,,,,,,,,,,,,,,,,,,,,,,,,,,,,,,,,,,,,,,,,,,,,,,116,148816,21,Male,1,2024/03/22_14:26:43,YZ,None,
,,,,,,calibration,0,28,2,679,8,C,0,right,0.2970629470073618,1,0,,,,,,,,,,,,,,,,,,,,,1,,,,,,,,,,,,,,,,,,,,,,,,,,,,,,,,,,,,,,,,,,,,,,116,148816,21,Male,1,2024/03/22_14:26:43,YZ,None,
,,,,,,calibration,0,28,2,679,9,J,0,right,0.3966522830014583,1,0,,,,,,,,,,,,,,,,,,,,,1,,,,,,,,,,,,,,,,,,,,,,,,,,,,,,,,,,,,,,,,,,,,,,116,148816,21,Male,1,2024/03/22_14:26:43,YZ,None,
,,,,,,calibration,0,28,2,679,10,C,1,left,0.38887453499773983,1,0,,,,,,,,,,,,,,,,,,,,,1,,,,,,,,,,,,,,,,,,,,,,,,,,,,,,,,,,,,,,,,,,,,,,116,148816,21,Male,1,2024/03/22_14:26:43,YZ,None,
,,,,,,calibration,0,28,2,679,11,S,0,right,0.2731796100124484,1,0,,,,,,,,,,,,,,,,,,,,,1,,,,,,,,,,,,,,,,,,,,,,,,,,,,,,,,,,,,,,,,,,,,,,116,148816,21,Male,1,2024/03/22_14:26:43,YZ,None,
,,,,,,calibration,0,28,2,679,12,C,1,right,0.29674272700503934,0,0,,,,,,,,,,,,,,,,,,,,,1,,,,,,,,,,,,,,,,,,,,,,,,,,,,,,,,,,,,,,,,,,,,,,116,148816,21,Male,1,2024/03/22_14:26:43,YZ,None,
,,,,,,calibration,0,28,2,679,13,Q,0,right,0.3485291459946893,1,0,,,,,,,,,,,,,,,,,,,,,1,,,,,,,,,,,,,,,,,,,,,,,,,,,,,,,,,,,,,,,,,,,,,,116,148816,21,Male,1,2024/03/22_14:26:43,YZ,None,
,,,,,,calibration,0,28,2,679,14,C,1,left,0.3032617089920677,1,0,,,,,,,,,,,,,,,,,,,,,1,,,,,,,,,,,,,,,,,,,,,,,,,,,,,,,,,,,,,,,,,,,,,,116,148816,21,Male,1,2024/03/22_14:26:43,YZ,None,
,,,,,,calibration,0,28,2,679,,,,,,,,0.9375,0.75,0.0,1.0,0.0,1.0,0.30232120828545056,3,0,0,0,0,10,13,4,10,0,,,,1,,,,,,,,,,,,,,,,,,,,,,,,,,,,,,,,,,,,,,,,,,,,,,116,148816,21,Male,1,2024/03/22_14:26:43,YZ,None,
,,,,,,Calibration,0,,2,679,,,,,,,,,,,,,,,,,,,,,,,,,4,,,1,,,,,,,,,,,,,,,,,,,,,,,,,,,,,,,,,,,,,,,,,,,,,,116,148816,21,Male,1,2024/03/22_14:26:43,YZ,None,
,,,,,,calibration,0,11,2,583,1,S,0,right,0.32239967500208877,1,0,,,,,,,,,,,,,,,,,,,,,1,,,,,,,,,,,,,,,,,,,,,,,,,,,,,,,,,,,,,,,,,,,,,,116,148816,21,Male,1,2024/03/22_14:26:43,YZ,None,
,,,,,,calibration,0,11,2,583,2,C,0,right,0.224802295997506,1,0,,,,,,,,,,,,,,,,,,,,,1,,,,,,,,,,,,,,,,,,,,,,,,,,,,,,,,,,,,,,,,,,,,,,116,148816,21,Male,1,2024/03/22_14:26:43,YZ,None,
,,,,,,calibration,0,11,2,583,3,N,0,right,0.20197384199127555,1,0,,,,,,,,,,,,,,,,,,,,,1,,,,,,,,,,,,,,,,,,,,,,,,,,,,,,,,,,,,,,,,,,,,,,116,148816,21,Male,1,2024/03/22_14:26:43,YZ,None,
,,,,,,calibration,0,11,2,583,4,S,0,right,0.18419697698845994,1,0,,,,,,,,,,,,,,,,,,,,,1,,,,,,,,,,,,,,,,,,,,,,,,,,,,,,,,,,,,,,,,,,,,,,116,148816,21,Male,1,2024/03/22_14:26:43,YZ,None,
,,,,,,calibration,0,11,2,583,5,N,1,right,0.1473111399973277,0,0,,,,,,,,,,,,,,,,,,,,,1,,,,,,,,,,,,,,,,,,,,,,,,,,,,,,,,,,,,,,,,,,,,,,116,148816,21,Male,1,2024/03/22_14:26:43,YZ,None,
,,,,,,calibration,0,11,2,583,6,C,0,left,0.16902239400951657,0,0,,,,,,,,,,,,,,,,,,,,,1,,,,,,,,,,,,,,,,,,,,,,,,,,,,,,,,,,,,,,,,,,,,,,116,148816,21,Male,1,2024/03/22_14:26:43,YZ,None,
,,,,,,calibration,0,11,2,583,7,S,0,right,0.37028532499971334,1,0,,,,,,,,,,,,,,,,,,,,,1,,,,,,,,,,,,,,,,,,,,,,,,,,,,,,,,,,,,,,,,,,,,,,116,148816,21,Male,1,2024/03/22_14:26:43,YZ,None,
,,,,,,calibration,0,11,2,583,8,Q,0,right,0.4050885470060166,1,0,,,,,,,,,,,,,,,,,,,,,1,,,,,,,,,,,,,,,,,,,,,,,,,,,,,,,,,,,,,,,,,,,,,,116,148816,21,Male,1,2024/03/22_14:26:43,YZ,None,
,,,,,,calibration,0,11,2,583,9,X,0,right,0.27927598399401177,1,0,,,,,,,,,,,,,,,,,,,,,1,,,,,,,,,,,,,,,,,,,,,,,,,,,,,,,,,,,,,,,,,,,,,,116,148816,21,Male,1,2024/03/22_14:26:43,YZ,None,
,,,,,,calibration,0,11,2,583,10,J,0,right,0.30846095000742935,1,0,,,,,,,,,,,,,,,,,,,,,1,,,,,,,,,,,,,,,,,,,,,,,,,,,,,,,,,,,,,,,,,,,,,,116,148816,21,Male,1,2024/03/22_14:26:43,YZ,None,
,,,,,,calibration,0,11,2,583,11,X,1,right,0.30102786399947945,0,0,,,,,,,,,,,,,,,,,,,,,1,,,,,,,,,,,,,,,,,,,,,,,,,,,,,,,,,,,,,,,,,,,,,,116,148816,21,Male,1,2024/03/22_14:26:43,YZ,None,
,,,,,,calibration,0,11,2,583,12,Q,0,right,0.25824363199353684,1,0,,,,,,,,,,,,,,,,,,,,,1,,,,,,,,,,,,,,,,,,,,,,,,,,,,,,,,,,,,,,,,,,,,,,116,148816,21,Male,1,2024/03/22_14:26:43,YZ,None,
,,,,,,calibration,0,11,2,583,13,X,1,right,0.17701307099196129,0,0,,,,,,,,,,,,,,,,,,,,,1,,,,,,,,,,,,,,,,,,,,,,,,,,,,,,,,,,,,,,,,,,,,,,116,148816,21,Male,1,2024/03/22_14:26:43,YZ,None,
,,,,,,calibration,0,11,2,583,14,Q,1,left,0.30455664100009017,1,0,,,,,,,,,,,,,,,,,,,,,1,,,,,,,,,,,,,,,,,,,,,,,,,,,,,,,,,,,,,,,,,,,,,,116,148816,21,Male,1,2024/03/22_14:26:43,YZ,None,
,,,,,,calibration,0,11,2,583,15,F,0,right,0.20019975099421572,1,0,,,,,,,,,,,,,,,,,,,,,1,,,,,,,,,,,,,,,,,,,,,,,,,,,,,,,,,,,,,,,,,,,,,,116,148816,21,Male,1,2024/03/22_14:26:43,YZ,None,
,,,,,,calibration,0,11,2,583,,,,,,,,0.6988636363636364,0.25,0.09090909090909091,0.9090909090909091,0.0,0.9090909090909091,0.2569238725981753,1,1,0,0,0,10,11,4,11,0,,,,1,,,,,,,,,,,,,,,,,,,,,,,,,,,,,,,,,,,,,,,,,,,,,,116,148816,21,Male,1,2024/03/22_14:26:43,YZ,None,
,,,,,,Calibration,0,,2,583,,,,,,,,,,,,,,,,,,,,,,,,,5,,,1,,,,,,,,,,,,,,,,,,,,,,,,,,,,,,,,,,,,,,,,,,,,,,116,148816,21,Male,1,2024/03/22_14:26:43,YZ,None,
,,,,,,calibration,0,25,2,679,1,F,0,right,0.32422546298766974,1,0,,,,,,,,,,,,,,,,,,,,,1,,,,,,,,,,,,,,,,,,,,,,,,,,,,,,,,,,,,,,,,,,,,,,116,148816,21,Male,1,2024/03/22_14:26:43,YZ,None,
,,,,,,calibration,0,25,2,679,2,V,0,right,0.19234268899890594,1,0,,,,,,,,,,,,,,,,,,,,,1,,,,,,,,,,,,,,,,,,,,,,,,,,,,,,,,,,,,,,,,,,,,,,116,148816,21,Male,1,2024/03/22_14:26:43,YZ,None,
,,,,,,calibration,0,25,2,679,3,F,1,left,0.3120891619910253,1,0,,,,,,,,,,,,,,,,,,,,,1,,,,,,,,,,,,,,,,,,,,,,,,,,,,,,,,,,,,,,,,,,,,,,116,148816,21,Male,1,2024/03/22_14:26:43,YZ,None,
,,,,,,calibration,0,25,2,679,4,C,0,right,0.3246818309999071,1,0,,,,,,,,,,,,,,,,,,,,,1,,,,,,,,,,,,,,,,,,,,,,,,,,,,,,,,,,,,,,,,,,,,,,116,148816,21,Male,1,2024/03/22_14:26:43,YZ,None,
,,,,,,calibration,0,25,2,679,5,V,0,left,0.40988680098962504,0,0,,,,,,,,,,,,,,,,,,,,,1,,,,,,,,,,,,,,,,,,,,,,,,,,,,,,,,,,,,,,,,,,,,,,116,148816,21,Male,1,2024/03/22_14:26:43,YZ,None,
,,,,,,calibration,0,25,2,679,6,J,0,right,0.3086281330033671,1,0,,,,,,,,,,,,,,,,,,,,,1,,,,,,,,,,,,,,,,,,,,,,,,,,,,,,,,,,,,,,,,,,,,,,116,148816,21,Male,1,2024/03/22_14:26:43,YZ,None,
,,,,,,calibration,0,25,2,679,7,S,0,left,0.3217398980050348,0,0,,,,,,,,,,,,,,,,,,,,,1,,,,,,,,,,,,,,,,,,,,,,,,,,,,,,,,,,,,,,,,,,,,,,116,148816,21,Male,1,2024/03/22_14:26:43,YZ,None,
,,,,,,calibration,0,25,2,679,8,J,1,right,0.26451232000545133,0,0,,,,,,,,,,,,,,,,,,,,,1,,,,,,,,,,,,,,,,,,,,,,,,,,,,,,,,,,,,,,,,,,,,,,116,148816,21,Male,1,2024/03/22_14:26:43,YZ,None,
,,,,,,calibration,0,25,2,679,9,S,1,right,0.268467738002073,0,0,,,,,,,,,,,,,,,,,,,,,1,,,,,,,,,,,,,,,,,,,,,,,,,,,,,,,,,,,,,,,,,,,,,,116,148816,21,Male,1,2024/03/22_14:26:43,YZ,None,
,,,,,,calibration,0,25,2,679,10,N,0,left,0.5768681879999349,0,0,,,,,,,,,,,,,,,,,,,,,1,,,,,,,,,,,,,,,,,,,,,,,,,,,,,,,,,,,,,,,,,,,,,,116,148816,21,Male,1,2024/03/22_14:26:43,YZ,None,
,,,,,,calibration,0,25,2,679,11,V,0,left,0.27555918699363247,0,0,,,,,,,,,,,,,,,,,,,,,1,,,,,,,,,,,,,,,,,,,,,,,,,,,,,,,,,,,,,,,,,,,,,,116,148816,21,Male,1,2024/03/22_14:26:43,YZ,None,
,,,,,,calibration,0,25,2,679,12,C,0,right,1.1655905459920177,1,0,,,,,,,,,,,,,,,,,,,,,1,,,,,,,,,,,,,,,,,,,,,,,,,,,,,,,,,,,,,,,,,,,,,,116,148816,21,Male,1,2024/03/22_14:26:43,YZ,None,
,,,,,,calibration,0,25,2,679,13,V,1,right,0.8397088539932156,0,0,,,,,,,,,,,,,,,,,,,,,1,,,,,,,,,,,,,,,,,,,,,,,,,,,,,,,,,,,,,,,,,,,,,,116,148816,21,Male,1,2024/03/22_14:26:43,YZ,None,
,,,,,,calibration,0,25,2,679,14,N,0,right,0.8354204659990501,1,0,,,,,,,,,,,,,,,,,,,,,1,,,,,,,,,,,,,,,,,,,,,,,,,,,,,,,,,,,,,,,,,,,,,,116,148816,21,Male,1,2024/03/22_14:26:43,YZ,None,
,,,,,,calibration,0,25,2,679,,,,,,,,0.056249999999999994,0.25,0.4,0.6,0.0,0.6,0.4585515197114936,1,4,0,0,0,6,7,4,10,0,,,,1,,,,,,,,,,,,,,,,,,,,,,,,,,,,,,,,,,,,,,,,,,,,,,116,148816,21,Male,1,2024/03/22_14:26:43,YZ,None,
,,,,,,Calibration,0,,2,679,,,,,,,,,,,,,,,,,,,,,,,,,6,,,1,,,,,,,,,,,,,,,,,,,,,,,,,,,,,,,,,,,,,,,,,,,,,,116,148816,21,Male,1,2024/03/22_14:26:43,YZ,None,
,,,,,,calibration,0,9,2,788,1,S,0,right,0.32520250100060366,1,0,,,,,,,,,,,,,,,,,,,,,1,,,,,,,,,,,,,,,,,,,,,,,,,,,,,,,,,,,,,,,,,,,,,,116,148816,21,Male,1,2024/03/22_14:26:43,YZ,None,
,,,,,,calibration,0,9,2,788,2,X,0,right,0.2609560069977306,1,0,,,,,,,,,,,,,,,,,,,,,1,,,,,,,,,,,,,,,,,,,,,,,,,,,,,,,,,,,,,,,,,,,,,,116,148816,21,Male,1,2024/03/22_14:26:43,YZ,None,
,,,,,,calibration,0,9,2,788,3,F,0,right,0.29306843200174626,1,0,,,,,,,,,,,,,,,,,,,,,1,,,,,,,,,,,,,,,,,,,,,,,,,,,,,,,,,,,,,,,,,,,,,,116,148816,21,Male,1,2024/03/22_14:26:43,YZ,None,
,,,,,,calibration,0,9,2,788,4,X,1,left,0.3615794189972803,1,0,,,,,,,,,,,,,,,,,,,,,1,,,,,,,,,,,,,,,,,,,,,,,,,,,,,,,,,,,,,,,,,,,,,,116,148816,21,Male,1,2024/03/22_14:26:43,YZ,None,
,,,,,,calibration,0,9,2,788,5,F,1,left,0.46822612099640537,1,0,,,,,,,,,,,,,,,,,,,,,1,,,,,,,,,,,,,,,,,,,,,,,,,,,,,,,,,,,,,,,,,,,,,,116,148816,21,Male,1,2024/03/22_14:26:43,YZ,None,
,,,,,,calibration,0,9,2,788,6,V,0,right,0.44119000500359107,1,0,,,,,,,,,,,,,,,,,,,,,1,,,,,,,,,,,,,,,,,,,,,,,,,,,,,,,,,,,,,,,,,,,,,,116,148816,21,Male,1,2024/03/22_14:26:43,YZ,None,
,,,,,,calibration,0,9,2,788,7,F,1,left,0.2717435579979792,1,0,,,,,,,,,,,,,,,,,,,,,1,,,,,,,,,,,,,,,,,,,,,,,,,,,,,,,,,,,,,,,,,,,,,,116,148816,21,Male,1,2024/03/22_14:26:43,YZ,None,
,,,,,,calibration,0,9,2,788,8,V,1,right,0.6024614239868242,0,0,,,,,,,,,,,,,,,,,,,,,1,,,,,,,,,,,,,,,,,,,,,,,,,,,,,,,,,,,,,,,,,,,,,,116,148816,21,Male,1,2024/03/22_14:26:43,YZ,None,
,,,,,,calibration,0,9,2,788,9,Q,0,left,1.915554298000643,0,0,,,,,,,,,,,,,,,,,,,,,1,,,,,,,,,,,,,,,,,,,,,,,,,,,,,,,,,,,,,,,,,,,,,,116,148816,21,Male,1,2024/03/22_14:26:43,YZ,None,
,,,,,,calibration,0,9,2,788,10,J,0,left,nan,0,1,,,,,,,,,,,,,,,,,,,,,1,,,,,,,,,,,,,,,,,,,,,,,,,,,,,,,,,,,,,,,,,,,,,,116,148816,21,Male,1,2024/03/22_14:26:43,YZ,None,
,,,,,,calibration,0,9,2,788,11,X,0,right,1.5914894770103274,1,0,,,,,,,,,,,,,,,,,,,,,1,,,,,,,,,,,,,,,,,,,,,,,,,,,,,,,,,,,,,,,,,,,,,,116,148816,21,Male,1,2024/03/22_14:26:43,YZ,None,
,,,,,,calibration,0,9,2,788,12,Q,0,right,1.4390301630046451,1,0,,,,,,,,,,,,,,,,,,,,,1,,,,,,,,,,,,,,,,,,,,,,,,,,,,,,,,,,,,,,,,,,,,,,116,148816,21,Male,1,2024/03/22_14:26:43,YZ,None,
,,,,,,calibration,0,9,2,788,13,V,0,right,1.152433180002845,1,0,,,,,,,,,,,,,,,,,,,,,1,,,,,,,,,,,,,,,,,,,,,,,,,,,,,,,,,,,,,,,,,,,,,,116,148816,21,Male,1,2024/03/22_14:26:43,YZ,None,
,,,,,,calibration,0,9,2,788,,,,,,,,0.8819444444444444,0.75,0.1111111111111111,0.875,0.07692307692307693,0.811965811965812,0.7602445487500518,3,1,0,1,1,7,10,4,9,0,,,,1,,,,,,,,,,,,,,,,,,,,,,,,,,,,,,,,,,,,,,,,,,,,,,116,148816,21,Male,1,2024/03/22_14:26:43,YZ,None,
,,,,,,Calibration,0,,2,788,,,,,,,,,,,,,,,,,,,,,,,,,7,,,1,,,,,,,,,,,,,,,,,,,,,,,,,,,,,,,,,,,,,,,,,,,,,,116,148816,21,Male,1,2024/03/22_14:26:43,YZ,None,
,,,,,,calibration,0,35,2,679,1,N,0,right,0.9990998059947742,1,0,,,,,,,,,,,,,,,,,,,,,1,,,,,,,,,,,,,,,,,,,,,,,,,,,,,,,,,,,,,,,,,,,,,,116,148816,21,Male,1,2024/03/22_14:26:43,YZ,None,
,,,,,,calibration,0,35,2,679,2,J,0,right,0.9258644399960758,1,0,,,,,,,,,,,,,,,,,,,,,1,,,,,,,,,,,,,,,,,,,,,,,,,,,,,,,,,,,,,,,,,,,,,,116,148816,21,Male,1,2024/03/22_14:26:43,YZ,None,
,,,,,,calibration,0,35,2,679,3,X,0,left,1.2624444179964485,0,0,,,,,,,,,,,,,,,,,,,,,1,,,,,,,,,,,,,,,,,,,,,,,,,,,,,,,,,,,,,,,,,,,,,,116,148816,21,Male,1,2024/03/22_14:26:43,YZ,None,
,,,,,,calibration,0,35,2,679,4,C,0,left,1.1321513720031362,0,0,,,,,,,,,,,,,,,,,,,,,1,,,,,,,,,,,,,,,,,,,,,,,,,,,,,,,,,,,,,,,,,,,,,,116,148816,21,Male,1,2024/03/22_14:26:43,YZ,None,
,,,,,,calibration,0,35,2,679,5,V,0,left,1.0416154309932608,0,0,,,,,,,,,,,,,,,,,,,,,1,,,,,,,,,,,,,,,,,,,,,,,,,,,,,,,,,,,,,,,,,,,,,,116,148816,21,Male,1,2024/03/22_14:26:43,YZ,None,
,,,,,,calibration,0,35,2,679,6,N,0,left,1.190618248001556,0,0,,,,,,,,,,,,,,,,,,,,,1,,,,,,,,,,,,,,,,,,,,,,,,,,,,,,,,,,,,,,,,,,,,,,116,148816,21,Male,1,2024/03/22_14:26:43,YZ,None,
,,,,,,calibration,0,35,2,679,7,V,1,left,0.956381362004322,1,0,,,,,,,,,,,,,,,,,,,,,1,,,,,,,,,,,,,,,,,,,,,,,,,,,,,,,,,,,,,,,,,,,,,,116,148816,21,Male,1,2024/03/22_14:26:43,YZ,None,
,,,,,,calibration,0,35,2,679,8,N,1,right,0.8485777330060955,0,0,,,,,,,,,,,,,,,,,,,,,1,,,,,,,,,,,,,,,,,,,,,,,,,,,,,,,,,,,,,,,,,,,,,,116,148816,21,Male,1,2024/03/22_14:26:43,YZ,None,
,,,,,,calibration,0,35,2,679,9,J,0,right,0.9744054000038886,1,0,,,,,,,,,,,,,,,,,,,,,1,,,,,,,,,,,,,,,,,,,,,,,,,,,,,,,,,,,,,,,,,,,,,,116,148816,21,Male,1,2024/03/22_14:26:43,YZ,None,
,,,,,,calibration,0,35,2,679,10,C,0,right,0.7552123549976386,1,0,,,,,,,,,,,,,,,,,,,,,1,,,,,,,,,,,,,,,,,,,,,,,,,,,,,,,,,,,,,,,,,,,,,,116,148816,21,Male,1,2024/03/22_14:26:43,YZ,None,
,,,,,,calibration,0,35,2,679,11,V,0,right,0.7748489160003373,1,0,,,,,,,,,,,,,,,,,,,,,1,,,,,,,,,,,,,,,,,,,,,,,,,,,,,,,,,,,,,,,,,,,,,,116,148816,21,Male,1,2024/03/22_14:26:43,YZ,None,
,,,,,,calibration,0,35,2,679,12,Q,0,right,0.7582990859955316,1,0,,,,,,,,,,,,,,,,,,,,,1,,,,,,,,,,,,,,,,,,,,,,,,,,,,,,,,,,,,,,,,,,,,,,116,148816,21,Male,1,2024/03/22_14:26:43,YZ,None,
,,,,,,calibration,0,35,2,679,13,V,1,left,0.7406513669993728,1,0,,,,,,,,,,,,,,,,,,,,,1,,,,,,,,,,,,,,,,,,,,,,,,,,,,,,,,,,,,,,,,,,,,,,116,148816,21,Male,1,2024/03/22_14:26:43,YZ,None,
,,,,,,calibration,0,35,2,679,14,Q,1,right,0.8226414029923035,0,0,,,,,,,,,,,,,,,,,,,,,1,,,,,,,,,,,,,,,,,,,,,,,,,,,,,,,,,,,,,,,,,,,,,,116,148816,21,Male,1,2024/03/22_14:26:43,YZ,None,
,,,,,,calibration,0,35,2,679,,,,,,,,0.575,0.5,0.4,0.6,0.0,0.6,0.9416293812131958,2,4,0,0,0,6,8,4,10,0,,,,1,,,,,,,,,,,,,,,,,,,,,,,,,,,,,,,,,,,,,,,,,,,,,,116,148816,21,Male,1,2024/03/22_14:26:43,YZ,None,
,,,,,,Calibration,0,,2,679,,,,,,,,,,,,,,,,,,,,,,,,,8,,,1,,,,,,,,,,,,,,,,,,,,,,,,,,,,,,,,,,,,,,,,,,,,,,116,148816,21,Male,1,2024/03/22_14:26:43,YZ,None,
,,,,,,calibration,0,28,2,788,1,V,0,right,0.5241272670100443,1,0,,,,,,,,,,,,,,,,,,,,,1,,,,,,,,,,,,,,,,,,,,,,,,,,,,,,,,,,,,,,,,,,,,,,116,148816,21,Male,1,2024/03/22_14:26:43,YZ,None,
,,,,,,calibration,0,28,2,788,2,V,0,right,0.2671253160078777,1,0,,,,,,,,,,,,,,,,,,,,,1,,,,,,,,,,,,,,,,,,,,,,,,,,,,,,,,,,,,,,,,,,,,,,116,148816,21,Male,1,2024/03/22_14:26:43,YZ,None,
,,,,,,calibration,0,28,2,788,3,F,0,left,1.0605228089989396,0,0,,,,,,,,,,,,,,,,,,,,,1,,,,,,,,,,,,,,,,,,,,,,,,,,,,,,,,,,,,,,,,,,,,,,116,148816,21,Male,1,2024/03/22_14:26:43,YZ,None,
,,,,,,calibration,0,28,2,788,4,X,0,right,0.8082250519946683,1,0,,,,,,,,,,,,,,,,,,,,,1,,,,,,,,,,,,,,,,,,,,,,,,,,,,,,,,,,,,,,,,,,,,,,116,148816,21,Male,1,2024/03/22_14:26:43,YZ,None,
,,,,,,calibration,0,28,2,788,5,F,1,left,0.7312120139977196,1,0,,,,,,,,,,,,,,,,,,,,,1,,,,,,,,,,,,,,,,,,,,,,,,,,,,,,,,,,,,,,,,,,,,,,116,148816,21,Male,1,2024/03/22_14:26:43,YZ,None,
,,,,,,calibration,0,28,2,788,6,V,0,left,0.7995516679948196,0,0,,,,,,,,,,,,,,,,,,,,,1,,,,,,,,,,,,,,,,,,,,,,,,,,,,,,,,,,,,,,,,,,,,,,116,148816,21,Male,1,2024/03/22_14:26:43,YZ,None,
,,,,,,calibration,0,28,2,788,7,F,1,left,0.7413648880028632,1,0,,,,,,,,,,,,,,,,,,,,,1,,,,,,,,,,,,,,,,,,,,,,,,,,,,,,,,,,,,,,,,,,,,,,116,148816,21,Male,1,2024/03/22_14:26:43,YZ,None,
,,,,,,calibration,0,28,2,788,8,Q,0,right,0.6684471589978784,1,0,,,,,,,,,,,,,,,,,,,,,1,,,,,,,,,,,,,,,,,,,,,,,,,,,,,,,,,,,,,,,,,,,,,,116,148816,21,Male,1,2024/03/22_14:26:43,YZ,None,
,,,,,,calibration,0,28,2,788,9,S,0,right,0.7541316499991808,1,0,,,,,,,,,,,,,,,,,,,,,1,,,,,,,,,,,,,,,,,,,,,,,,,,,,,,,,,,,,,,,,,,,,,,116,148816,21,Male,1,2024/03/22_14:26:43,YZ,None,
,,,,,,calibration,0,28,2,788,10,Q,1,right,0.8076811729988549,0,0,,,,,,,,,,,,,,,,,,,,,1,,,,,,,,,,,,,,,,,,,,,,,,,,,,,,,,,,,,,,,,,,,,,,116,148816,21,Male,1,2024/03/22_14:26:43,YZ,None,
,,,,,,calibration,0,28,2,788,11,F,0,left,0.7674991230014712,0,0,,,,,,,,,,,,,,,,,,,,,1,,,,,,,,,,,,,,,,,,,,,,,,,,,,,,,,,,,,,,,,,,,,,,116,148816,21,Male,1,2024/03/22_14:26:43,YZ,None,
,,,,,,calibration,0,28,2,788,12,Q,1,right,0.7088861469965195,0,0,,,,,,,,,,,,,,,,,,,,,1,,,,,,,,,,,,,,,,,,,,,,,,,,,,,,,,,,,,,,,,,,,,,,116,148816,21,Male,1,2024/03/22_14:26:43,YZ,None,
,,,,,,calibration,0,28,2,788,13,J,0,right,0.807546395008103,1,0,,,,,,,,,,,,,,,,,,,,,1,,,,,,,,,,,,,,,,,,,,,,,,,,,,,,,,,,,,,,,,,,,,,,116,148816,21,Male,1,2024/03/22_14:26:43,YZ,None,
,,,,,,calibration,0,28,2,788,,,,,,,,0.625,0.5,0.3333333333333333,0.6666666666666666,0.0,0.6666666666666667,0.7266400508468416,2,3,0,0,0,6,8,4,9,0,,,,1,,,,,,,,,,,,,,,,,,,,,,,,,,,,,,,,,,,,,,,,,,,,,,116,148816,21,Male,1,2024/03/22_14:26:43,YZ,None,
,,,,,,Calibration,0,,2,788,,,,,,,,,,,,,,,,,,,,,,,,,9,,,1,,,,,,,,,,,,,,,,,,,,,,,,,,,,,,,,,,,,,,,,,,,,,,116,148816,21,Male,1,2024/03/22_14:26:43,YZ,None,
,,,,,,calibration,0,8,2,917,1,Q,0,right,0.7335960420023184,1,0,,,,,,,,,,,,,,,,,,,,,1,,,,,,,,,,,,,,,,,,,,,,,,,,,,,,,,,,,,,,,,,,,,,,116,148816,21,Male,1,2024/03/22_14:26:43,YZ,None,
,,,,,,calibration,0,8,2,917,2,V,0,right,0.707410887000151,1,0,,,,,,,,,,,,,,,,,,,,,1,,,,,,,,,,,,,,,,,,,,,,,,,,,,,,,,,,,,,,,,,,,,,,116,148816,21,Male,1,2024/03/22_14:26:43,YZ,None,
,,,,,,calibration,0,8,2,917,3,Q,1,right,0.6971587070001988,0,0,,,,,,,,,,,,,,,,,,,,,1,,,,,,,,,,,,,,,,,,,,,,,,,,,,,,,,,,,,,,,,,,,,,,116,148816,21,Male,1,2024/03/22_14:26:43,YZ,None,
,,,,,,calibration,0,8,2,917,4,X,0,right,0.7189659719879273,1,0,,,,,,,,,,,,,,,,,,,,,1,,,,,,,,,,,,,,,,,,,,,,,,,,,,,,,,,,,,,,,,,,,,,,116,148816,21,Male,1,2024/03/22_14:26:43,YZ,None,
,,,,,,calibration,0,8,2,917,5,F,0,right,0.7680804940027883,1,0,,,,,,,,,,,,,,,,,,,,,1,,,,,,,,,,,,,,,,,,,,,,,,,,,,,,,,,,,,,,,,,,,,,,116,148816,21,Male,1,2024/03/22_14:26:43,YZ,None,
,,,,,,calibration,0,8,2,917,6,N,0,right,0.7552274989866419,1,0,,,,,,,,,,,,,,,,,,,,,1,,,,,,,,,,,,,,,,,,,,,,,,,,,,,,,,,,,,,,,,,,,,,,116,148816,21,Male,1,2024/03/22_14:26:43,YZ,None,
,,,,,,calibration,0,8,2,917,7,F,1,left,0.6900559409987181,1,0,,,,,,,,,,,,,,,,,,,,,1,,,,,,,,,,,,,,,,,,,,,,,,,,,,,,,,,,,,,,,,,,,,,,116,148816,21,Male,1,2024/03/22_14:26:43,YZ,None,
,,,,,,calibration,0,8,2,917,8,S,0,right,0.808531522998237,1,0,,,,,,,,,,,,,,,,,,,,,1,,,,,,,,,,,,,,,,,,,,,,,,,,,,,,,,,,,,,,,,,,,,,,116,148816,21,Male,1,2024/03/22_14:26:43,YZ,None,
,,,,,,calibration,0,8,2,917,9,F,1,left,0.8978992929914966,1,0,,,,,,,,,,,,,,,,,,,,,1,,,,,,,,,,,,,,,,,,,,,,,,,,,,,,,,,,,,,,,,,,,,,,116,148816,21,Male,1,2024/03/22_14:26:43,YZ,None,
,,,,,,calibration,0,8,2,917,10,S,1,left,0.7163810980127892,1,0,,,,,,,,,,,,,,,,,,,,,1,,,,,,,,,,,,,,,,,,,,,,,,,,,,,,,,,,,,,,,,,,,,,,116,148816,21,Male,1,2024/03/22_14:26:43,YZ,None,
,,,,,,calibration,0,8,2,917,11,Q,0,right,0.8083874069998274,1,0,,,,,,,,,,,,,,,,,,,,,1,,,,,,,,,,,,,,,,,,,,,,,,,,,,,,,,,,,,,,,,,,,,,,116,148816,21,Male,1,2024/03/22_14:26:43,YZ,None,
,,,,,,calibration,0,8,2,917,12,N,0,right,0.6879354619886726,1,0,,,,,,,,,,,,,,,,,,,,,1,,,,,,,,,,,,,,,,,,,,,,,,,,,,,,,,,,,,,,,,,,,,,,116,148816,21,Male,1,2024/03/22_14:26:43,YZ,None,
,,,,,,calibration,0,8,2,917,,,,,,,,0.9375,0.75,0.0,1.0,0.0,1.0,0.7491358604141473,3,0,0,0,0,8,11,4,8,0,,,,1,,,,,,,,,,,,,,,,,,,,,,,,,,,,,,,,,,,,,,,,,,,,,,116,148816,21,Male,1,2024/03/22_14:26:43,YZ,None,
,,,,,,Calibration,0,,2,917,,,,,,,,,,,,,,,,,,,,,,,,,10,,,1,,,,,,,,,,,,,,,,,,,,,,,,,,,,,,,,,,,,,,,,,,,,,,116,148816,21,Male,1,2024/03/22_14:26:43,YZ,None,
,,,,,,calibration,0,33,2,788,1,X,0,right,0.8340991009899881,1,0,,,,,,,,,,,,,,,,,,,,,1,,,,,,,,,,,,,,,,,,,,,,,,,,,,,,,,,,,,,,,,,,,,,,116,148816,21,Male,1,2024/03/22_14:26:43,YZ,None,
,,,,,,calibration,0,33,2,788,2,S,0,right,0.691452504004701,1,0,,,,,,,,,,,,,,,,,,,,,1,,,,,,,,,,,,,,,,,,,,,,,,,,,,,,,,,,,,,,,,,,,,,,116,148816,21,Male,1,2024/03/22_14:26:43,YZ,None,
,,,,,,calibration,0,33,2,788,3,X,1,left,0.5775983420026023,1,0,,,,,,,,,,,,,,,,,,,,,1,,,,,,,,,,,,,,,,,,,,,,,,,,,,,,,,,,,,,,,,,,,,,,116,148816,21,Male,1,2024/03/22_14:26:43,YZ,None,
,,,,,,calibration,0,33,2,788,4,N,0,right,1.059663667998393,1,0,,,,,,,,,,,,,,,,,,,,,1,,,,,,,,,,,,,,,,,,,,,,,,,,,,,,,,,,,,,,,,,,,,,,116,148816,21,Male,1,2024/03/22_14:26:43,YZ,None,
,,,,,,calibration,0,33,2,788,5,S,0,left,0.9010379870014731,0,0,,,,,,,,,,,,,,,,,,,,,1,,,,,,,,,,,,,,,,,,,,,,,,,,,,,,,,,,,,,,,,,,,,,,116,148816,21,Male,1,2024/03/22_14:26:43,YZ,None,
,,,,,,calibration,0,33,2,788,6,C,0,right,0.82889832300134,1,0,,,,,,,,,,,,,,,,,,,,,1,,,,,,,,,,,,,,,,,,,,,,,,,,,,,,,,,,,,,,,,,,,,,,116,148816,21,Male,1,2024/03/22_14:26:43,YZ,None,
,,,,,,calibration,0,33,2,788,7,S,1,left,0.7574476459994912,1,0,,,,,,,,,,,,,,,,,,,,,1,,,,,,,,,,,,,,,,,,,,,,,,,,,,,,,,,,,,,,,,,,,,,,116,148816,21,Male,1,2024/03/22_14:26:43,YZ,None,
,,,,,,calibration,0,33,2,788,8,C,1,left,0.7636442689981777,1,0,,,,,,,,,,,,,,,,,,,,,1,,,,,,,,,,,,,,,,,,,,,,,,,,,,,,,,,,,,,,,,,,,,,,116,148816,21,Male,1,2024/03/22_14:26:43,YZ,None,
,,,,,,calibration,0,33,2,788,9,J,0,right,0.7746636429947102,1,0,,,,,,,,,,,,,,,,,,,,,1,,,,,,,,,,,,,,,,,,,,,,,,,,,,,,,,,,,,,,,,,,,,,,116,148816,21,Male,1,2024/03/22_14:26:43,YZ,None,
,,,,,,calibration,0,33,2,788,10,S,0,left,0.7860816800093744,0,0,,,,,,,,,,,,,,,,,,,,,1,,,,,,,,,,,,,,,,,,,,,,,,,,,,,,,,,,,,,,,,,,,,,,116,148816,21,Male,1,2024/03/22_14:26:43,YZ,None,
,,,,,,calibration,0,33,2,788,11,J,1,left,0.871213031001389,1,0,,,,,,,,,,,,,,,,,,,,,1,,,,,,,,,,,,,,,,,,,,,,,,,,,,,,,,,,,,,,,,,,,,,,116,148816,21,Male,1,2024/03/22_14:26:43,YZ,None,
,,,,,,calibration,0,33,2,788,12,V,0,right,0.8404825960024027,1,0,,,,,,,,,,,,,,,,,,,,,1,,,,,,,,,,,,,,,,,,,,,,,,,,,,,,,,,,,,,,,,,,,,,,116,148816,21,Male,1,2024/03/22_14:26:43,YZ,None,
,,,,,,calibration,0,33,2,788,13,X,0,left,0.869506420000107,0,0,,,,,,,,,,,,,,,,,,,,,1,,,,,,,,,,,,,,,,,,,,,,,,,,,,,,,,,,,,,,,,,,,,,,116,148816,21,Male,1,2024/03/22_14:26:43,YZ,None,
,,,,,,calibration,0,33,2,788,,,,,,,,0.9166666666666667,1.0,0.3333333333333333,0.6666666666666666,0.0,0.6666666666666667,0.8119837853849347,4,3,0,0,0,6,10,4,9,0,,,,1,,,,,,,,,,,,,,,,,,,,,,,,,,,,,,,,,,,,,,,,,,,,,,116,148816,21,Male,1,2024/03/22_14:26:43,YZ,None,
,,,,,,Calibration,0,,2,788,,,,,,,,,,,,,,,,,,,,,,,,,11,,,1,,,,,,,,,,,,,,,,,,,,,,,,,,,,,,,,,,,,,,,,,,,,,,116,148816,21,Male,1,2024/03/22_14:26:43,YZ,None,
,,,,,,calibration,0,34,2,679,1,Q,0,right,0.8473262199986493,1,0,,,,,,,,,,,,,,,,,,,,,1,,,,,,,,,,,,,,,,,,,,,,,,,,,,,,,,,,,,,,,,,,,,,,116,148816,21,Male,1,2024/03/22_14:26:43,YZ,None,
,,,,,,calibration,0,34,2,679,2,Q,0,right,0.8386091530119302,1,0,,,,,,,,,,,,,,,,,,,,,1,,,,,,,,,,,,,,,,,,,,,,,,,,,,,,,,,,,,,,,,,,,,,,116,148816,21,Male,1,2024/03/22_14:26:43,YZ,None,
,,,,,,calibration,0,34,2,679,3,Q,1,left,0.7376151670032414,1,0,,,,,,,,,,,,,,,,,,,,,1,,,,,,,,,,,,,,,,,,,,,,,,,,,,,,,,,,,,,,,,,,,,,,116,148816,21,Male,1,2024/03/22_14:26:43,YZ,None,
,,,,,,calibration,0,34,2,679,4,Q,1,left,0.7733460229937918,1,0,,,,,,,,,,,,,,,,,,,,,1,,,,,,,,,,,,,,,,,,,,,,,,,,,,,,,,,,,,,,,,,,,,,,116,148816,21,Male,1,2024/03/22_14:26:43,YZ,None,
,,,,,,calibration,0,34,2,679,5,X,0,right,0.7244034229952376,1,0,,,,,,,,,,,,,,,,,,,,,1,,,,,,,,,,,,,,,,,,,,,,,,,,,,,,,,,,,,,,,,,,,,,,116,148816,21,Male,1,2024/03/22_14:26:43,YZ,None,
,,,,,,calibration,0,34,2,679,6,C,0,right,0.9313636629958637,1,0,,,,,,,,,,,,,,,,,,,,,1,,,,,,,,,,,,,,,,,,,,,,,,,,,,,,,,,,,,,,,,,,,,,,116,148816,21,Male,1,2024/03/22_14:26:43,YZ,None,
,,,,,,calibration,0,34,2,679,7,F,0,right,0.9076075009943452,1,0,,,,,,,,,,,,,,,,,,,,,1,,,,,,,,,,,,,,,,,,,,,,,,,,,,,,,,,,,,,,,,,,,,,,116,148816,21,Male,1,2024/03/22_14:26:43,YZ,None,
,,,,,,calibration,0,34,2,679,8,J,0,right,0.8304618319962174,1,0,,,,,,,,,,,,,,,,,,,,,1,,,,,,,,,,,,,,,,,,,,,,,,,,,,,,,,,,,,,,,,,,,,,,116,148816,21,Male,1,2024/03/22_14:26:43,YZ,None,
,,,,,,calibration,0,34,2,679,9,F,1,right,1.134395034998306,0,0,,,,,,,,,,,,,,,,,,,,,1,,,,,,,,,,,,,,,,,,,,,,,,,,,,,,,,,,,,,,,,,,,,,,116,148816,21,Male,1,2024/03/22_14:26:43,YZ,None,
,,,,,,calibration,0,34,2,679,10,Q,0,right,0.9551452320010867,1,0,,,,,,,,,,,,,,,,,,,,,1,,,,,,,,,,,,,,,,,,,,,,,,,,,,,,,,,,,,,,,,,,,,,,116,148816,21,Male,1,2024/03/22_14:26:43,YZ,None,
,,,,,,calibration,0,34,2,679,11,V,0,right,0.8633522080053808,1,0,,,,,,,,,,,,,,,,,,,,,1,,,,,,,,,,,,,,,,,,,,,,,,,,,,,,,,,,,,,,,,,,,,,,116,148816,21,Male,1,2024/03/22_14:26:43,YZ,None,
,,,,,,calibration,0,34,2,679,12,C,0,right,0.9247338700079126,1,0,,,,,,,,,,,,,,,,,,,,,1,,,,,,,,,,,,,,,,,,,,,,,,,,,,,,,,,,,,,,,,,,,,,,116,148816,21,Male,1,2024/03/22_14:26:43,YZ,None,
,,,,,,calibration,0,34,2,679,13,J,0,right,0.7522618790098932,1,0,,,,,,,,,,,,,,,,,,,,,1,,,,,,,,,,,,,,,,,,,,,,,,,,,,,,,,,,,,,,,,,,,,,,116,148816,21,Male,1,2024/03/22_14:26:43,YZ,None,
,,,,,,calibration,0,34,2,679,14,C,1,left,0.8033053100079997,1,0,,,,,,,,,,,,,,,,,,,,,1,,,,,,,,,,,,,,,,,,,,,,,,,,,,,,,,,,,,,,,,,,,,,,116,148816,21,Male,1,2024/03/22_14:26:43,YZ,None,
,,,,,,calibration,0,34,2,679,,,,,,,,0.9375,0.75,0.0,1.0,0.0,1.0,0.8588518940014183,3,0,0,0,0,10,13,4,10,0,,,,1,,,,,,,,,,,,,,,,,,,,,,,,,,,,,,,,,,,,,,,,,,,,,,116,148816,21,Male,1,2024/03/22_14:26:43,YZ,None,
,,,,,,Calibration,0,,2,679,,,,,,,,,,,,,,,,,,,,,,,,,12,,,1,,,,,,,,,,,,,,,,,,,,,,,,,,,,,,,,,,,,,,,,,,,,,,116,148816,21,Male,1,2024/03/22_14:26:43,YZ,None,
,,,,,,calibration,0,20,2,583,1,V,0,right,0.7668170050019398,1,0,,,,,,,,,,,,,,,,,,,,,1,,,,,,,,,,,,,,,,,,,,,,,,,,,,,,,,,,,,,,,,,,,,,,116,148816,21,Male,1,2024/03/22_14:26:43,YZ,None,
,,,,,,calibration,0,20,2,583,2,J,0,right,0.7407771069993032,1,0,,,,,,,,,,,,,,,,,,,,,1,,,,,,,,,,,,,,,,,,,,,,,,,,,,,,,,,,,,,,,,,,,,,,116,148816,21,Male,1,2024/03/22_14:26:43,YZ,None,
,,,,,,calibration,0,20,2,583,3,Q,0,right,0.7296416190074524,1,0,,,,,,,,,,,,,,,,,,,,,1,,,,,,,,,,,,,,,,,,,,,,,,,,,,,,,,,,,,,,,,,,,,,,116,148816,21,Male,1,2024/03/22_14:26:43,YZ,None,
,,,,,,calibration,0,20,2,583,4,N,0,right,0.7651456559979124,1,0,,,,,,,,,,,,,,,,,,,,,1,,,,,,,,,,,,,,,,,,,,,,,,,,,,,,,,,,,,,,,,,,,,,,116,148816,21,Male,1,2024/03/22_14:26:43,YZ,None,
,,,,,,calibration,0,20,2,583,5,Q,1,right,0.8410619829955976,0,0,,,,,,,,,,,,,,,,,,,,,1,,,,,,,,,,,,,,,,,,,,,,,,,,,,,,,,,,,,,,,,,,,,,,116,148816,21,Male,1,2024/03/22_14:26:43,YZ,None,
,,,,,,calibration,0,20,2,583,6,X,0,right,0.8540862950030714,1,0,,,,,,,,,,,,,,,,,,,,,1,,,,,,,,,,,,,,,,,,,,,,,,,,,,,,,,,,,,,,,,,,,,,,116,148816,21,Male,1,2024/03/22_14:26:43,YZ,None,
,,,,,,calibration,0,20,2,583,7,C,0,right,0.7520295519934734,1,0,,,,,,,,,,,,,,,,,,,,,1,,,,,,,,,,,,,,,,,,,,,,,,,,,,,,,,,,,,,,,,,,,,,,116,148816,21,Male,1,2024/03/22_14:26:43,YZ,None,
,,,,,,calibration,0,20,2,583,8,X,1,right,0.8089676240051631,0,0,,,,,,,,,,,,,,,,,,,,,1,,,,,,,,,,,,,,,,,,,,,,,,,,,,,,,,,,,,,,,,,,,,,,116,148816,21,Male,1,2024/03/22_14:26:43,YZ,None,
,,,,,,calibration,0,20,2,583,9,V,0,right,0.764796549003222,1,0,,,,,,,,,,,,,,,,,,,,,1,,,,,,,,,,,,,,,,,,,,,,,,,,,,,,,,,,,,,,,,,,,,,,116,148816,21,Male,1,2024/03/22_14:26:43,YZ,None,
,,,,,,calibration,0,20,2,583,10,X,1,left,0.8090275040012784,1,0,,,,,,,,,,,,,,,,,,,,,1,,,,,,,,,,,,,,,,,,,,,,,,,,,,,,,,,,,,,,,,,,,,,,116,148816,21,Male,1,2024/03/22_14:26:43,YZ,None,
,,,,,,calibration,0,20,2,583,11,S,0,right,0.8589844899979653,1,0,,,,,,,,,,,,,,,,,,,,,1,,,,,,,,,,,,,,,,,,,,,,,,,,,,,,,,,,,,,,,,,,,,,,116,148816,21,Male,1,2024/03/22_14:26:43,YZ,None,
,,,,,,calibration,0,20,2,583,12,X,1,left,0.8319597630033968,1,0,,,,,,,,,,,,,,,,,,,,,1,,,,,,,,,,,,,,,,,,,,,,,,,,,,,,,,,,,,,,,,,,,,,,116,148816,21,Male,1,2024/03/22_14:26:43,YZ,None,
,,,,,,calibration,0,20,2,583,13,S,1,right,0.7908768460038118,0,0,,,,,,,,,,,,,,,,,,,,,1,,,,,,,,,,,,,,,,,,,,,,,,,,,,,,,,,,,,,,,,,,,,,,116,148816,21,Male,1,2024/03/22_14:26:43,YZ,None,
,,,,,,calibration,0,20,2,583,14,J,0,right,0.7061730279965559,1,0,,,,,,,,,,,,,,,,,,,,,1,,,,,,,,,,,,,,,,,,,,,,,,,,,,,,,,,,,,,,,,,,,,,,116,148816,21,Male,1,2024/03/22_14:26:43,YZ,None,
,,,,,,calibration,0,20,2,583,15,V,0,left,1.0182000410131877,0,0,,,,,,,,,,,,,,,,,,,,,1,,,,,,,,,,,,,,,,,,,,,,,,,,,,,,,,,,,,,,,,,,,,,,116,148816,21,Male,1,2024/03/22_14:26:43,YZ,None,
,,,,,,calibration,0,20,2,583,,,,,,,,0.7625,0.4,0.1,0.9,0.0,0.9,0.8025696708015554,2,1,0,0,0,9,11,5,10,0,,,,1,,,,,,,,,,,,,,,,,,,,,,,,,,,,,,,,,,,,,,,,,,,,,,116,148816,21,Male,1,2024/03/22_14:26:43,YZ,None,
,,,,,,Calibration,0,,2,583,,,,,,,,,,,,,,,,,,,,,,,,,13,,,1,,,,,,,,,,,,,,,,,,,,,,,,,,,,,,,,,,,,,,,,,,,,,,116,148816,21,Male,1,2024/03/22_14:26:43,YZ,None,
,,,,,,calibration,0,6,2,583,1,J,0,right,0.6156242999859387,1,0,,,,,,,,,,,,,,,,,,,,,1,,,,,,,,,,,,,,,,,,,,,,,,,,,,,,,,,,,,,,,,,,,,,,116,148816,21,Male,1,2024/03/22_14:26:43,YZ,None,
,,,,,,calibration,0,6,2,583,2,S,0,right,0.7746826000075089,1,0,,,,,,,,,,,,,,,,,,,,,1,,,,,,,,,,,,,,,,,,,,,,,,,,,,,,,,,,,,,,,,,,,,,,116,148816,21,Male,1,2024/03/22_14:26:43,YZ,None,
,,,,,,calibration,0,6,2,583,3,C,0,right,0.6020438760024263,1,0,,,,,,,,,,,,,,,,,,,,,1,,,,,,,,,,,,,,,,,,,,,,,,,,,,,,,,,,,,,,,,,,,,,,116,148816,21,Male,1,2024/03/22_14:26:43,YZ,None,
,,,,,,calibration,0,6,2,583,4,J,0,right,0.8686926259979373,1,0,,,,,,,,,,,,,,,,,,,,,1,,,,,,,,,,,,,,,,,,,,,,,,,,,,,,,,,,,,,,,,,,,,,,116,148816,21,Male,1,2024/03/22_14:26:43,YZ,None,
,,,,,,calibration,0,6,2,583,5,N,0,right,0.7561502690077759,1,0,,,,,,,,,,,,,,,,,,,,,1,,,,,,,,,,,,,,,,,,,,,,,,,,,,,,,,,,,,,,,,,,,,,,116,148816,21,Male,1,2024/03/22_14:26:43,YZ,None,
,,,,,,calibration,0,6,2,583,6,J,1,left,0.7360071669972967,1,0,,,,,,,,,,,,,,,,,,,,,1,,,,,,,,,,,,,,,,,,,,,,,,,,,,,,,,,,,,,,,,,,,,,,116,148816,21,Male,1,2024/03/22_14:26:43,YZ,None,
,,,,,,calibration,0,6,2,583,7,N,1,left,0.7368846020108322,1,0,,,,,,,,,,,,,,,,,,,,,1,,,,,,,,,,,,,,,,,,,,,,,,,,,,,,,,,,,,,,,,,,,,,,116,148816,21,Male,1,2024/03/22_14:26:43,YZ,None,
,,,,,,calibration,0,6,2,583,8,V,0,right,0.7687825970060658,1,0,,,,,,,,,,,,,,,,,,,,,1,,,,,,,,,,,,,,,,,,,,,,,,,,,,,,,,,,,,,,,,,,,,,,116,148816,21,Male,1,2024/03/22_14:26:43,YZ,None,
,,,,,,calibration,0,6,2,583,9,N,1,right,0.7898546789947432,0,0,,,,,,,,,,,,,,,,,,,,,1,,,,,,,,,,,,,,,,,,,,,,,,,,,,,,,,,,,,,,,,,,,,,,116,148816,21,Male,1,2024/03/22_14:26:43,YZ,None,
,,,,,,calibration,0,6,2,583,10,F,0,right,0.8422129129903624,1,0,,,,,,,,,,,,,,,,,,,,,1,,,,,,,,,,,,,,,,,,,,,,,,,,,,,,,,,,,,,,,,,,,,,,116,148816,21,Male,1,2024/03/22_14:26:43,YZ,None,
,,,,,,calibration,0,6,2,583,11,X,0,right,0.7651629750034772,1,0,,,,,,,,,,,,,,,,,,,,,1,,,,,,,,,,,,,,,,,,,,,,,,,,,,,,,,,,,,,,,,,,,,,,116,148816,21,Male,1,2024/03/22_14:26:43,YZ,None,
,,,,,,calibration,0,6,2,583,12,J,0,right,0.7427446040092036,1,0,,,,,,,,,,,,,,,,,,,,,1,,,,,,,,,,,,,,,,,,,,,,,,,,,,,,,,,,,,,,,,,,,,,,116,148816,21,Male,1,2024/03/22_14:26:43,YZ,None,
,,,,,,calibration,0,6,2,583,13,X,1,right,0.734772976997192,0,0,,,,,,,,,,,,,,,,,,,,,1,,,,,,,,,,,,,,,,,,,,,,,,,,,,,,,,,,,,,,,,,,,,,,116,148816,21,Male,1,2024/03/22_14:26:43,YZ,None,
,,,,,,calibration,0,6,2,583,14,J,1,left,0.8692230549931992,1,0,,,,,,,,,,,,,,,,,,,,,1,,,,,,,,,,,,,,,,,,,,,,,,,,,,,,,,,,,,,,,,,,,,,,116,148816,21,Male,1,2024/03/22_14:26:43,YZ,None,
,,,,,,calibration,0,6,2,583,15,Q,0,right,0.7921783289930318,1,0,,,,,,,,,,,,,,,,,,,,,1,,,,,,,,,,,,,,,,,,,,,,,,,,,,,,,,,,,,,,,,,,,,,,116,148816,21,Male,1,2024/03/22_14:26:43,YZ,None,
,,,,,,calibration,0,6,2,583,,,,,,,,0.9,0.6,0.0,1.0,0.0,1.0,0.7596678379331328,3,0,0,0,0,10,13,5,10,0,,,,1,,,,,,,,,,,,,,,,,,,,,,,,,,,,,,,,,,,,,,,,,,,,,,116,148816,21,Male,1,2024/03/22_14:26:43,YZ,None,
,,,,,,Calibration,0,,2,583,,,,,,,,,,,,,,,,,,,,,,,,,14,,,1,,,,,,,,,,,,,,,,,,,,,,,,,,,,,,,,,,,,,,,,,,,,,,116,148816,21,Male,1,2024/03/22_14:26:43,YZ,None,
,,,,,,calibration,0,30,2,500,1,N,0,right,0.7208257589954883,1,0,,,,,,,,,,,,,,,,,,,,,1,,,,,,,,,,,,,,,,,,,,,,,,,,,,,,,,,,,,,,,,,,,,,,116,148816,21,Male,1,2024/03/22_14:26:43,YZ,None,
,,,,,,calibration,0,30,2,500,2,S,0,right,0.7149623449950013,1,0,,,,,,,,,,,,,,,,,,,,,1,,,,,,,,,,,,,,,,,,,,,,,,,,,,,,,,,,,,,,,,,,,,,,116,148816,21,Male,1,2024/03/22_14:26:43,YZ,None,
,,,,,,calibration,0,30,2,500,3,Q,0,right,0.7591863369889325,1,0,,,,,,,,,,,,,,,,,,,,,1,,,,,,,,,,,,,,,,,,,,,,,,,,,,,,,,,,,,,,,,,,,,,,116,148816,21,Male,1,2024/03/22_14:26:43,YZ,None,
,,,,,,calibration,0,30,2,500,4,S,1,right,0.8247097739949822,0,0,,,,,,,,,,,,,,,,,,,,,1,,,,,,,,,,,,,,,,,,,,,,,,,,,,,,,,,,,,,,,,,,,,,,116,148816,21,Male,1,2024/03/22_14:26:43,YZ,None,
,,,,,,calibration,0,30,2,500,5,X,0,right,0.6413579520012718,1,0,,,,,,,,,,,,,,,,,,,,,1,,,,,,,,,,,,,,,,,,,,,,,,,,,,,,,,,,,,,,,,,,,,,,116,148816,21,Male,1,2024/03/22_14:26:43,YZ,None,
,,,,,,calibration,0,30,2,500,6,N,0,right,0.7594434350030497,1,0,,,,,,,,,,,,,,,,,,,,,1,,,,,,,,,,,,,,,,,,,,,,,,,,,,,,,,,,,,,,,,,,,,,,116,148816,21,Male,1,2024/03/22_14:26:43,YZ,None,
,,,,,,calibration,0,30,2,500,7,V,0,right,0.8092729690106353,1,0,,,,,,,,,,,,,,,,,,,,,1,,,,,,,,,,,,,,,,,,,,,,,,,,,,,,,,,,,,,,,,,,,,,,116,148816,21,Male,1,2024/03/22_14:26:43,YZ,None,
,,,,,,calibration,0,30,2,500,8,N,1,left,0.8245792560046539,1,0,,,,,,,,,,,,,,,,,,,,,1,,,,,,,,,,,,,,,,,,,,,,,,,,,,,,,,,,,,,,,,,,,,,,116,148816,21,Male,1,2024/03/22_14:26:43,YZ,None,
,,,,,,calibration,0,30,2,500,9,C,0,right,0.7412181249965215,1,0,,,,,,,,,,,,,,,,,,,,,1,,,,,,,,,,,,,,,,,,,,,,,,,,,,,,,,,,,,,,,,,,,,,,116,148816,21,Male,1,2024/03/22_14:26:43,YZ,None,
,,,,,,calibration,0,30,2,500,10,S,0,right,0.8050121809937991,1,0,,,,,,,,,,,,,,,,,,,,,1,,,,,,,,,,,,,,,,,,,,,,,,,,,,,,,,,,,,,,,,,,,,,,116,148816,21,Male,1,2024/03/22_14:26:43,YZ,None,
,,,,,,calibration,0,30,2,500,11,F,0,right,0.9725658779934747,1,0,,,,,,,,,,,,,,,,,,,,,1,,,,,,,,,,,,,,,,,,,,,,,,,,,,,,,,,,,,,,,,,,,,,,116,148816,21,Male,1,2024/03/22_14:26:43,YZ,None,
,,,,,,calibration,0,30,2,500,12,Q,0,right,0.7687933739944128,1,0,,,,,,,,,,,,,,,,,,,,,1,,,,,,,,,,,,,,,,,,,,,,,,,,,,,,,,,,,,,,,,,,,,,,116,148816,21,Male,1,2024/03/22_14:26:43,YZ,None,
,,,,,,calibration,0,30,2,500,13,F,1,left,0.7517662940081209,1,0,,,,,,,,,,,,,,,,,,,,,1,,,,,,,,,,,,,,,,,,,,,,,,,,,,,,,,,,,,,,,,,,,,,,116,148816,21,Male,1,2024/03/22_14:26:43,YZ,None,
,,,,,,calibration,0,30,2,500,14,Q,1,left,0.8466211810009554,1,0,,,,,,,,,,,,,,,,,,,,,1,,,,,,,,,,,,,,,,,,,,,,,,,,,,,,,,,,,,,,,,,,,,,,116,148816,21,Male,1,2024/03/22_14:26:43,YZ,None,
,,,,,,calibration,0,30,2,500,15,V,0,right,0.9751740119972965,1,0,,,,,,,,,,,,,,,,,,,,,1,,,,,,,,,,,,,,,,,,,,,,,,,,,,,,,,,,,,,,,,,,,,,,116,148816,21,Male,1,2024/03/22_14:26:43,YZ,None,
,,,,,,calibration,0,30,2,500,16,F,0,left,0.8246822199871531,0,0,,,,,,,,,,,,,,,,,,,,,1,,,,,,,,,,,,,,,,,,,,,,,,,,,,,,,,,,,,,,,,,,,,,,116,148816,21,Male,1,2024/03/22_14:26:43,YZ,None,
,,,,,,calibration,0,30,2,500,,,,,,,,0.8958333333333333,0.75,0.08333333333333333,0.9166666666666666,0.0,0.9166666666666666,0.7962606932478593,3,1,0,0,0,11,14,4,12,0,,,,1,,,,,,,,,,,,,,,,,,,,,,,,,,,,,,,,,,,,,,,,,,,,,,116,148816,21,Male,1,2024/03/22_14:26:43,YZ,None,
,,,,,,Calibration,0,,2,500,,,,,,,,,,,,,,,,,,,,,,,,,15,,,1,,,,,,,,,,,,,,,,,,,,,,,,,,,,,,,,,,,,,,,,,,,,,,116,148816,21,Male,1,2024/03/22_14:26:43,YZ,None,
,,,,,,CALIBRATION,0,,,,,,,,,,,,,,,,,,,,,,,,,,,,15,0.8958333333333333,500,1,,,,,,,,,,,,,,,,,,,,,,,,,,,,,,,,,,,,,,,,,,,,,,116,148816,21,Male,1,2024/03/22_14:26:43,YZ,None,
1,./instructions/inst_prac_1/Slide24.png,right,16.784285806003027,475.95964048399765,492.7439262900007,,,,,,,,,,,,,,,,,,,,,,,,,,,,,,,,,1,,,,,,,,,,,,,,,,,,,,,,,,,,,,,,,,,,,,,,,,,,,,,,116,148816,21,Male,1,2024/03/22_14:26:43,YZ,None,
2,./instructions/inst_prac_1/Slide25.png,right,1.0668520089966478,492.77307215399924,493.8399241629959,,,,,,,,,,,,,,,,,,,,,,,,,,,,,,,,,1,,,,,,,,,,,,,,,,,,,,,,,,,,,,,,,,,,,,,,,,,,,,,,116,148816,21,Male,1,2024/03/22_14:26:43,YZ,None,
3,./instructions/inst_prac_1/Slide26.png,right,0.3392642450053245,493.86864457599586,494.2079088210012,,,,,,,,,,,,,,,,,,,,,,,,,,,,,,,,,1,,,,,,,,,,,,,,,,,,,,,,,,,,,,,,,,,,,,,,,,,,,,,,116,148816,21,Male,1,2024/03/22_14:26:43,YZ,None,
4,./instructions/inst_prac_1/Slide27.png,right,0.39504473700071685,494.23683676599467,494.6318815029954,,,,,,,,,,,,,,,,,,,,,,,,,,,,,,,,,1,,,,,,,,,,,,,,,,,,,,,,,,,,,,,,,,,,,,,,,,,,,,,,116,148816,21,Male,1,2024/03/22_14:26:43,YZ,None,
5,./instructions/inst_prac_1/Slide28.png,right,0.46123969499603845,494.65860335300385,495.1198430479999,,,,,,,,,,,,,,,,,,,,,,,,,,,,,,,,,1,,,,,,,,,,,,,,,,,,,,,,,,,,,,,,,,,,,,,,,,,,,,,,116,148816,21,Male,1,2024/03/22_14:26:43,YZ,None,
6,./instructions/inst_prac_1/Slide29.png,right,2.274990701000206,495.148932459997,497.4239231609972,,,,,,,,,,,,,,,,,,,,,,,,,,,,,,,,,1,,,,,,,,,,,,,,,,,,,,,,,,,,,,,,,,,,,,,,,,,,,,,,116,148816,21,Male,1,2024/03/22_14:26:43,YZ,None,
7,./instructions/inst_prac_1/Slide30.png,right,1.2587899259960977,497.45316578200436,498.71195570800046,,,,,,,,,,,,,,,,,,,,,,,,,,,,,,,,,1,,,,,,,,,,,,,,,,,,,,,,,,,,,,,,,,,,,,,,,,,,,,,,116,148816,21,Male,1,2024/03/22_14:26:43,YZ,None,
,,,,,,practice,0,23,1,1250,1,V,0,right,1.404388231007033,1,0,,,,,,,,,,,,,,,,,,,,,1,,,,,,,,,,,,,,,,,,,,,,,,,,,,,,,,,,,,,,,,,,,,,,116,148816,21,Male,1,2024/03/22_14:26:43,YZ,None,
,,,,,,practice,0,23,1,1250,2,V,1,left,0.7609397640044335,1,0,,,,,,,,,,,,,,,,,,,,,1,,,,,,,,,,,,,,,,,,,,,,,,,,,,,,,,,,,,,,,,,,,,,,116,148816,21,Male,1,2024/03/22_14:26:43,YZ,None,
,,,,,,practice,0,23,1,1250,3,F,0,right,0.6365312249981798,1,0,,,,,,,,,,,,,,,,,,,,,1,,,,,,,,,,,,,,,,,,,,,,,,,,,,,,,,,,,,,,,,,,,,,,116,148816,21,Male,1,2024/03/22_14:26:43,YZ,None,
,,,,,,practice,0,23,1,1250,4,N,0,right,0.7486370749975322,1,0,,,,,,,,,,,,,,,,,,,,,1,,,,,,,,,,,,,,,,,,,,,,,,,,,,,,,,,,,,,,,,,,,,,,116,148816,21,Male,1,2024/03/22_14:26:43,YZ,None,
,,,,,,practice,0,23,1,1250,5,V,0,right,1.100682542004506,1,0,,,,,,,,,,,,,,,,,,,,,1,,,,,,,,,,,,,,,,,,,,,,,,,,,,,,,,,,,,,,,,,,,,,,116,148816,21,Male,1,2024/03/22_14:26:43,YZ,None,
,,,,,,practice,0,23,1,1250,6,V,1,right,0.7735688590037171,0,0,,,,,,,,,,,,,,,,,,,,,1,,,,,,,,,,,,,,,,,,,,,,,,,,,,,,,,,,,,,,,,,,,,,,116,148816,21,Male,1,2024/03/22_14:26:43,YZ,None,
,,,,,,practice,0,23,1,1250,7,Q,0,right,0.7641922170005273,1,0,,,,,,,,,,,,,,,,,,,,,1,,,,,,,,,,,,,,,,,,,,,,,,,,,,,,,,,,,,,,,,,,,,,,116,148816,21,Male,1,2024/03/22_14:26:43,YZ,None,
,,,,,,practice,0,23,1,1250,8,J,0,right,1.1726664010056993,1,0,,,,,,,,,,,,,,,,,,,,,1,,,,,,,,,,,,,,,,,,,,,,,,,,,,,,,,,,,,,,,,,,,,,,116,148816,21,Male,1,2024/03/22_14:26:43,YZ,None,
,,,,,,practice,0,23,1,1250,9,V,0,right,0.7907307709974702,1,0,,,,,,,,,,,,,,,,,,,,,1,,,,,,,,,,,,,,,,,,,,,,,,,,,,,,,,,,,,,,,,,,,,,,116,148816,21,Male,1,2024/03/22_14:26:43,YZ,None,
,,,,,,practice,0,23,1,1250,10,V,1,left,0.5755958549998468,1,0,,,,,,,,,,,,,,,,,,,,,1,,,,,,,,,,,,,,,,,,,,,,,,,,,,,,,,,,,,,,,,,,,,,,116,148816,21,Male,1,2024/03/22_14:26:43,YZ,None,
,,,,,,practice,0,23,1,1250,,,,,,,,0.9166666666666666,0.6666666666666666,0.0,1.0,0.0,1.0,0.8727932940018945,2,0,0,0,0,7,9,3,7,0,,,,1,,,,,,,,,,,,,,,,,,,,,,,,,,,,,,,,,,,,,,,,,,,,,,116,148816,21,Male,1,2024/03/22_14:26:43,YZ,None,
1,./instructions/inst_prac_1_next/Slide35.png,right,1.424463719013147,518.4873733989953,519.9118371180084,,,,,,,,,,,,,,,,,,,,,,,,,,,,,,,,,1,,,,,,,,,,,,,,,,,,,,,,,,,,,,,,,,,,,,,,,,,,,,,,116,148816,21,Male,1,2024/03/22_14:26:43,YZ,None,
,,,,,,practice,0,29,1,500,1,F,0,right,0.47495059100037906,1,0,,,,,,,,,,,,,,,,,,,,,1,,,,,,,,,,,,,,,,,,,,,,,,,,,,,,,,,,,,,,,,,,,,,,116,148816,21,Male,1,2024/03/22_14:26:43,YZ,None,
,,,,,,practice,0,29,1,500,2,F,1,left,0.4478003760013962,1,0,,,,,,,,,,,,,,,,,,,,,1,,,,,,,,,,,,,,,,,,,,,,,,,,,,,,,,,,,,,,,,,,,,,,116,148816,21,Male,1,2024/03/22_14:26:43,YZ,None,
,,,,,,practice,0,29,1,500,3,Q,0,right,0.4985921600018628,1,0,,,,,,,,,,,,,,,,,,,,,1,,,,,,,,,,,,,,,,,,,,,,,,,,,,,,,,,,,,,,,,,,,,,,116,148816,21,Male,1,2024/03/22_14:26:43,YZ,None,
,,,,,,practice,0,29,1,500,4,S,0,right,0.8958816019876394,1,0,,,,,,,,,,,,,,,,,,,,,1,,,,,,,,,,,,,,,,,,,,,,,,,,,,,,,,,,,,,,,,,,,,,,116,148816,21,Male,1,2024/03/22_14:26:43,YZ,None,
,,,,,,practice,0,29,1,500,5,S,1,left,0.4686788789986167,1,0,,,,,,,,,,,,,,,,,,,,,1,,,,,,,,,,,,,,,,,,,,,,,,,,,,,,,,,,,,,,,,,,,,,,116,148816,21,Male,1,2024/03/22_14:26:43,YZ,None,
,,,,,,practice,0,29,1,500,6,F,0,right,0.4169834210042609,1,0,,,,,,,,,,,,,,,,,,,,,1,,,,,,,,,,,,,,,,,,,,,,,,,,,,,,,,,,,,,,,,,,,,,,116,148816,21,Male,1,2024/03/22_14:26:43,YZ,None,
,,,,,,practice,0,29,1,500,7,Q,0,left,0.5037338800029829,0,0,,,,,,,,,,,,,,,,,,,,,1,,,,,,,,,,,,,,,,,,,,,,,,,,,,,,,,,,,,,,,,,,,,,,116,148816,21,Male,1,2024/03/22_14:26:43,YZ,None,
,,,,,,practice,0,29,1,500,8,V,0,right,0.7210933089954779,1,0,,,,,,,,,,,,,,,,,,,,,1,,,,,,,,,,,,,,,,,,,,,,,,,,,,,,,,,,,,,,,,,,,,,,116,148816,21,Male,1,2024/03/22_14:26:43,YZ,None,
,,,,,,practice,0,29,1,500,9,N,0,right,0.4177597079979023,1,0,,,,,,,,,,,,,,,,,,,,,1,,,,,,,,,,,,,,,,,,,,,,,,,,,,,,,,,,,,,,,,,,,,,,116,148816,21,Male,1,2024/03/22_14:26:43,YZ,None,
,,,,,,practice,0,29,1,500,10,V,0,right,0.42631586399511434,1,0,,,,,,,,,,,,,,,,,,,,,1,,,,,,,,,,,,,,,,,,,,,,,,,,,,,,,,,,,,,,,,,,,,,,116,148816,21,Male,1,2024/03/22_14:26:43,YZ,None,
,,,,,,practice,0,29,1,500,11,V,1,left,0.5642658120050328,1,0,,,,,,,,,,,,,,,,,,,,,1,,,,,,,,,,,,,,,,,,,,,,,,,,,,,,,,,,,,,,,,,,,,,,116,148816,21,Male,1,2024/03/22_14:26:43,YZ,None,
,,,,,,practice,0,29,1,500,12,X,0,right,0.44243801600532606,1,0,,,,,,,,,,,,,,,,,,,,,1,,,,,,,,,,,,,,,,,,,,,,,,,,,,,,,,,,,,,,,,,,,,,,116,148816,21,Male,1,2024/03/22_14:26:43,YZ,None,
,,,,,,practice,0,29,1,500,13,X,1,left,0.5807914540055208,1,0,,,,,,,,,,,,,,,,,,,,,1,,,,,,,,,,,,,,,,,,,,,,,,,,,,,,,,,,,,,,,,,,,,,,116,148816,21,Male,1,2024/03/22_14:26:43,YZ,None,
,,,,,,practice,0,29,1,500,14,C,0,right,0.47978463298932184,1,0,,,,,,,,,,,,,,,,,,,,,1,,,,,,,,,,,,,,,,,,,,,,,,,,,,,,,,,,,,,,,,,,,,,,116,148816,21,Male,1,2024/03/22_14:26:43,YZ,None,
,,,,,,practice,0,29,1,500,15,Q,0,right,0.6102802090026671,1,0,,,,,,,,,,,,,,,,,,,,,1,,,,,,,,,,,,,,,,,,,,,,,,,,,,,,,,,,,,,,,,,,,,,,116,148816,21,Male,1,2024/03/22_14:26:43,YZ,None,
,,,,,,practice,0,29,1,500,16,S,0,right,0.7003230580012314,1,0,,,,,,,,,,,,,,,,,,,,,1,,,,,,,,,,,,,,,,,,,,,,,,,,,,,,,,,,,,,,,,,,,,,,116,148816,21,Male,1,2024/03/22_14:26:43,YZ,None,
,,,,,,practice,0,29,1,500,,,,,,,,0.9791666666666666,1.0,0.08333333333333333,0.9166666666666666,0.0,0.9166666666666666,0.5406045607496708,4,1,0,0,0,11,15,4,12,0,,,,1,,,,,,,,,,,,,,,,,,,,,,,,,,,,,,,,,,,,,,,,,,,,,,116,148816,21,Male,1,2024/03/22_14:26:43,YZ,None,
,,,,,,practice,0,9,1,500,1,X,0,right,0.9745079790009186,1,0,,,,,,,,,,,,,,,,,,,,,1,,,,,,,,,,,,,,,,,,,,,,,,,,,,,,,,,,,,,,,,,,,,,,116,148816,21,Male,1,2024/03/22_14:26:43,YZ,None,
,,,,,,practice,0,9,1,500,2,F,0,right,0.48470158100826666,1,0,,,,,,,,,,,,,,,,,,,,,1,,,,,,,,,,,,,,,,,,,,,,,,,,,,,,,,,,,,,,,,,,,,,,116,148816,21,Male,1,2024/03/22_14:26:43,YZ,None,
,,,,,,practice,0,9,1,500,3,N,0,right,0.3600197979976656,1,0,,,,,,,,,,,,,,,,,,,,,1,,,,,,,,,,,,,,,,,,,,,,,,,,,,,,,,,,,,,,,,,,,,,,116,148816,21,Male,1,2024/03/22_14:26:43,YZ,None,
,,,,,,practice,0,9,1,500,4,X,0,right,0.7540514400025131,1,0,,,,,,,,,,,,,,,,,,,,,1,,,,,,,,,,,,,,,,,,,,,,,,,,,,,,,,,,,,,,,,,,,,,,116,148816,21,Male,1,2024/03/22_14:26:43,YZ,None,
,,,,,,practice,0,9,1,500,5,N,0,right,0.4960116919974098,1,0,,,,,,,,,,,,,,,,,,,,,1,,,,,,,,,,,,,,,,,,,,,,,,,,,,,,,,,,,,,,,,,,,,,,116,148816,21,Male,1,2024/03/22_14:26:43,YZ,None,
,,,,,,practice,0,9,1,500,6,S,0,right,0.38073814900417347,1,0,,,,,,,,,,,,,,,,,,,,,1,,,,,,,,,,,,,,,,,,,,,,,,,,,,,,,,,,,,,,,,,,,,,,116,148816,21,Male,1,2024/03/22_14:26:43,YZ,None,
,,,,,,practice,0,9,1,500,7,Q,0,right,0.3314913279900793,1,0,,,,,,,,,,,,,,,,,,,,,1,,,,,,,,,,,,,,,,,,,,,,,,,,,,,,,,,,,,,,,,,,,,,,116,148816,21,Male,1,2024/03/22_14:26:43,YZ,None,
,,,,,,practice,0,9,1,500,8,N,0,right,0.311223822995089,1,0,,,,,,,,,,,,,,,,,,,,,1,,,,,,,,,,,,,,,,,,,,,,,,,,,,,,,,,,,,,,,,,,,,,,116,148816,21,Male,1,2024/03/22_14:26:43,YZ,None,
,,,,,,practice,0,9,1,500,9,N,1,left,0.33026219299063087,1,0,,,,,,,,,,,,,,,,,,,,,1,,,,,,,,,,,,,,,,,,,,,,,,,,,,,,,,,,,,,,,,,,,,,,116,148816,21,Male,1,2024/03/22_14:26:43,YZ,None,
,,,,,,practice,0,9,1,500,10,Q,0,right,0.32268077199114487,1,0,,,,,,,,,,,,,,,,,,,,,1,,,,,,,,,,,,,,,,,,,,,,,,,,,,,,,,,,,,,,,,,,,,,,116,148816,21,Male,1,2024/03/22_14:26:43,YZ,None,
,,,,,,practice,0,9,1,500,11,V,0,right,0.6125141880038427,1,0,,,,,,,,,,,,,,,,,,,,,1,,,,,,,,,,,,,,,,,,,,,,,,,,,,,,,,,,,,,,,,,,,,,,116,148816,21,Male,1,2024/03/22_14:26:43,YZ,None,
,,,,,,practice,0,9,1,500,12,V,1,left,0.5404691889998503,1,0,,,,,,,,,,,,,,,,,,,,,1,,,,,,,,,,,,,,,,,,,,,,,,,,,,,,,,,,,,,,,,,,,,,,116,148816,21,Male,1,2024/03/22_14:26:43,YZ,None,
,,,,,,practice,0,9,1,500,13,J,0,right,0.3723050609987695,1,0,,,,,,,,,,,,,,,,,,,,,1,,,,,,,,,,,,,,,,,,,,,,,,,,,,,,,,,,,,,,,,,,,,,,116,148816,21,Male,1,2024/03/22_14:26:43,YZ,None,
,,,,,,practice,0,9,1,500,14,J,1,left,0.3765454169915756,1,0,,,,,,,,,,,,,,,,,,,,,1,,,,,,,,,,,,,,,,,,,,,,,,,,,,,,,,,,,,,,,,,,,,,,116,148816,21,Male,1,2024/03/22_14:26:43,YZ,None,
,,,,,,practice,0,9,1,500,15,N,0,right,0.3229746279976098,1,0,,,,,,,,,,,,,,,,,,,,,1,,,,,,,,,,,,,,,,,,,,,,,,,,,,,,,,,,,,,,,,,,,,,,116,148816,21,Male,1,2024/03/22_14:26:43,YZ,None,
,,,,,,practice,0,9,1,500,16,N,1,left,0.4576247420045547,1,0,,,,,,,,,,,,,,,,,,,,,1,,,,,,,,,,,,,,,,,,,,,,,,,,,,,,,,,,,,,,,,,,,,,,116,148816,21,Male,1,2024/03/22_14:26:43,YZ,None,
,,,,,,practice,0,9,1,500,,,,,,,,1.0,1.0,0.0,1.0,0.0,1.0,0.46425762374838087,4,0,0,0,0,12,16,4,12,0,,,,1,,,,,,,,,,,,,,,,,,,,,,,,,,,,,,,,,,,,,,,,,,,,,,116,148816,21,Male,1,2024/03/22_14:26:43,YZ,None,
1,./instructions/inst_prac_3/Slide37.png,right,9.968602786000702,556.8872271620057,566.8558299480064,,,,,,,,,,,,,,,,,,,,,,,,,,,,,,,,,1,,,,,,,,,,,,,,,,,,,,,,,,,,,,,,,,,,,,,,,,,,,,,,116,148816,21,Male,1,2024/03/22_14:26:43,YZ,None,
2,./instructions/inst_prac_3/Slide38.png,right,1.4826448389940197,566.8853430140007,568.3679878529947,,,,,,,,,,,,,,,,,,,,,,,,,,,,,,,,,1,,,,,,,,,,,,,,,,,,,,,,,,,,,,,,,,,,,,,,,,,,,,,,116,148816,21,Male,1,2024/03/22_14:26:43,YZ,None,
3,./instructions/inst_prac_3/Slide39.png,right,0.5726161069906084,568.3952646130056,568.9678807199962,,,,,,,,,,,,,,,,,,,,,,,,,,,,,,,,,1,,,,,,,,,,,,,,,,,,,,,,,,,,,,,,,,,,,,,,,,,,,,,,116,148816,21,Male,1,2024/03/22_14:26:43,YZ,None,
4,./instructions/inst_prac_3/Slide40.png,right,0.7643297640024684,568.995543195997,569.7598729599995,,,,,,,,,,,,,,,,,,,,,,,,,,,,,,,,,1,,,,,,,,,,,,,,,,,,,,,,,,,,,,,,,,,,,,,,,,,,,,,,116,148816,21,Male,1,2024/03/22_14:26:43,YZ,None,
5,./instructions/inst_prac_3/Slide41.png,right,4.099324751994573,569.788630422001,573.8879551739956,,,,,,,,,,,,,,,,,,,,,,,,,,,,,,,,,1,,,,,,,,,,,,,,,,,,,,,,,,,,,,,,,,,,,,,,,,,,,,,,116,148816,21,Male,1,2024/03/22_14:26:43,YZ,None,
6,./instructions/inst_prac_3/Slide42.png,right,2.2363086890109116,573.9156717059959,576.1519803950068,,,,,,,,,,,,,,,,,,,,,,,,,,,,,,,,,1,,,,,,,,,,,,,,,,,,,,,,,,,,,,,,,,,,,,,,,,,,,,,,116,148816,21,Male,1,2024/03/22_14:26:43,YZ,None,
7,./instructions/inst_prac_3/Slide43.png,right,1.3463172490010038,576.1815975530044,577.5279148020054,,,,,,,,,,,,,,,,,,,,,,,,,,,,,,,,,1,,,,,,,,,,,,,,,,,,,,,,,,,,,,,,,,,,,,,,,,,,,,,,116,148816,21,Male,1,2024/03/22_14:26:43,YZ,None,
8,./instructions/inst_prac_3/Slide44.png,right,1.251059312999132,577.5569048010075,578.8079641140066,,,,,,,,,,,,,,,,,,,,,,,,,,,,,,,,,1,,,,,,,,,,,,,,,,,,,,,,,,,,,,,,,,,,,,,,,,,,,,,,116,148816,21,Male,1,2024/03/22_14:26:43,YZ,None,
,,,,,,practice,0,5,3,788,1,C,0,right,0.4443773719976889,1,0,,,,,,,,,,,,,,,,,,,,,1,,,,,,,,,,,,,,,,,,,,,,,,,,,,,,,,,,,,,,,,,,,,,,116,148816,21,Male,1,2024/03/22_14:26:43,YZ,None,
,,,,,,practice,0,5,3,788,2,C,0,right,0.7966004759946372,1,0,,,,,,,,,,,,,,,,,,,,,1,,,,,,,,,,,,,,,,,,,,,,,,,,,,,,,,,,,,,,,,,,,,,,116,148816,21,Male,1,2024/03/22_14:26:43,YZ,None,
,,,,,,practice,0,5,3,788,3,Q,0,right,0.7175326379947364,1,0,,,,,,,,,,,,,,,,,,,,,1,,,,,,,,,,,,,,,,,,,,,,,,,,,,,,,,,,,,,,,,,,,,,,116,148816,21,Male,1,2024/03/22_14:26:43,YZ,None,
,,,,,,practice,0,5,3,788,4,J,0,right,0.9564007840090198,1,0,,,,,,,,,,,,,,,,,,,,,1,,,,,,,,,,,,,,,,,,,,,,,,,,,,,,,,,,,,,,,,,,,,,,116,148816,21,Male,1,2024/03/22_14:26:43,YZ,None,
,,,,,,practice,0,5,3,788,5,N,0,right,0.6632683949865168,1,0,,,,,,,,,,,,,,,,,,,,,1,,,,,,,,,,,,,,,,,,,,,,,,,,,,,,,,,,,,,,,,,,,,,,116,148816,21,Male,1,2024/03/22_14:26:43,YZ,None,
,,,,,,practice,0,5,3,788,6,N,0,right,0.8931645470001968,1,0,,,,,,,,,,,,,,,,,,,,,1,,,,,,,,,,,,,,,,,,,,,,,,,,,,,,,,,,,,,,,,,,,,,,116,148816,21,Male,1,2024/03/22_14:26:43,YZ,None,
,,,,,,practice,0,5,3,788,7,J,1,left,0.6063704910047818,1,0,,,,,,,,,,,,,,,,,,,,,1,,,,,,,,,,,,,,,,,,,,,,,,,,,,,,,,,,,,,,,,,,,,,,116,148816,21,Male,1,2024/03/22_14:26:43,YZ,None,
,,,,,,practice,0,5,3,788,8,Q,0,right,0.708176389001892,1,0,,,,,,,,,,,,,,,,,,,,,1,,,,,,,,,,,,,,,,,,,,,,,,,,,,,,,,,,,,,,,,,,,,,,116,148816,21,Male,1,2024/03/22_14:26:43,YZ,None,
,,,,,,practice,0,5,3,788,9,N,1,left,0.4400233769993065,1,0,,,,,,,,,,,,,,,,,,,,,1,,,,,,,,,,,,,,,,,,,,,,,,,,,,,,,,,,,,,,,,,,,,,,116,148816,21,Male,1,2024/03/22_14:26:43,YZ,None,
,,,,,,practice,0,5,3,788,10,S,0,right,0.5427829279942671,1,0,,,,,,,,,,,,,,,,,,,,,1,,,,,,,,,,,,,,,,,,,,,,,,,,,,,,,,,,,,,,,,,,,,,,116,148816,21,Male,1,2024/03/22_14:26:43,YZ,None,
,,,,,,practice,0,5,3,788,11,Q,1,left,0.6608189459948335,1,0,,,,,,,,,,,,,,,,,,,,,1,,,,,,,,,,,,,,,,,,,,,,,,,,,,,,,,,,,,,,,,,,,,,,116,148816,21,Male,1,2024/03/22_14:26:43,YZ,None,
,,,,,,practice,0,5,3,788,12,X,0,right,1.1575548849941697,1,0,,,,,,,,,,,,,,,,,,,,,1,,,,,,,,,,,,,,,,,,,,,,,,,,,,,,,,,,,,,,,,,,,,,,116,148816,21,Male,1,2024/03/22_14:26:43,YZ,None,
,,,,,,practice,0,5,3,788,13,S,1,left,0.604936589996214,1,0,,,,,,,,,,,,,,,,,,,,,1,,,,,,,,,,,,,,,,,,,,,,,,,,,,,,,,,,,,,,,,,,,,,,116,148816,21,Male,1,2024/03/22_14:26:43,YZ,None,
,,,,,,practice,0,5,3,788,,,,,,,,1.0,1.0,0.0,1.0,0.0,1.0,0.707077524459097,4,0,0,0,0,9,13,4,9,0,,,,1,,,,,,,,,,,,,,,,,,,,,,,,,,,,,,,,,,,,,,,,,,,,,,116,148816,21,Male,1,2024/03/22_14:26:43,YZ,None,
1,./instructions/inst_prac_3_next/Slide49.png,right,5.690427631998318,601.6855945800053,607.3760222120036,,,,,,,,,,,,,,,,,,,,,,,,,,,,,,,,,1,,,,,,,,,,,,,,,,,,,,,,,,,,,,,,,,,,,,,,,,,,,,,,116,148816,21,Male,1,2024/03/22_14:26:43,YZ,None,
,,,,,,practice,0,12,3,500,1,Q,0,right,0.7003136619896395,1,0,,,,,,,,,,,,,,,,,,,,,1,,,,,,,,,,,,,,,,,,,,,,,,,,,,,,,,,,,,,,,,,,,,,,116,148816,21,Male,1,2024/03/22_14:26:43,YZ,None,
,,,,,,practice,0,12,3,500,2,X,0,right,0.8283206269989023,1,0,,,,,,,,,,,,,,,,,,,,,1,,,,,,,,,,,,,,,,,,,,,,,,,,,,,,,,,,,,,,,,,,,,,,116,148816,21,Male,1,2024/03/22_14:26:43,YZ,None,
,,,,,,practice,0,12,3,500,3,Q,0,right,1.3856269779935246,1,0,,,,,,,,,,,,,,,,,,,,,1,,,,,,,,,,,,,,,,,,,,,,,,,,,,,,,,,,,,,,,,,,,,,,116,148816,21,Male,1,2024/03/22_14:26:43,YZ,None,
,,,,,,practice,0,12,3,500,4,Q,1,left,0.8259899690019665,1,0,,,,,,,,,,,,,,,,,,,,,1,,,,,,,,,,,,,,,,,,,,,,,,,,,,,,,,,,,,,,,,,,,,,,116,148816,21,Male,1,2024/03/22_14:26:43,YZ,None,
,,,,,,practice,0,12,3,500,5,V,0,right,1.6210548640083289,1,0,,,,,,,,,,,,,,,,,,,,,1,,,,,,,,,,,,,,,,,,,,,,,,,,,,,,,,,,,,,,,,,,,,,,116,148816,21,Male,1,2024/03/22_14:26:43,YZ,None,
,,,,,,practice,0,12,3,500,6,X,0,left,1.20010617999651,0,0,,,,,,,,,,,,,,,,,,,,,1,,,,,,,,,,,,,,,,,,,,,,,,,,,,,,,,,,,,,,,,,,,,,,116,148816,21,Male,1,2024/03/22_14:26:43,YZ,None,
,,,,,,practice,0,12,3,500,7,F,0,right,1.1229032970004482,1,0,,,,,,,,,,,,,,,,,,,,,1,,,,,,,,,,,,,,,,,,,,,,,,,,,,,,,,,,,,,,,,,,,,,,116,148816,21,Male,1,2024/03/22_14:26:43,YZ,None,
,,,,,,practice,0,12,3,500,8,V,1,right,1.2660599859955255,0,0,,,,,,,,,,,,,,,,,,,,,1,,,,,,,,,,,,,,,,,,,,,,,,,,,,,,,,,,,,,,,,,,,,,,116,148816,21,Male,1,2024/03/22_14:26:43,YZ,None,
,,,,,,practice,0,12,3,500,9,V,0,right,1.0397879949887283,1,0,,,,,,,,,,,,,,,,,,,,,1,,,,,,,,,,,,,,,,,,,,,,,,,,,,,,,,,,,,,,,,,,,,,,116,148816,21,Male,1,2024/03/22_14:26:43,YZ,None,
,,,,,,practice,0,12,3,500,10,S,0,left,0.9054136400081916,0,0,,,,,,,,,,,,,,,,,,,,,1,,,,,,,,,,,,,,,,,,,,,,,,,,,,,,,,,,,,,,,,,,,,,,116,148816,21,Male,1,2024/03/22_14:26:43,YZ,None,
,,,,,,practice,0,12,3,500,11,F,0,right,1.1925704820023384,1,0,,,,,,,,,,,,,,,,,,,,,1,,,,,,,,,,,,,,,,,,,,,,,,,,,,,,,,,,,,,,,,,,,,,,116,148816,21,Male,1,2024/03/22_14:26:43,YZ,None,
,,,,,,practice,0,12,3,500,12,V,1,left,0.9774782239983324,1,0,,,,,,,,,,,,,,,,,,,,,1,,,,,,,,,,,,,,,,,,,,,,,,,,,,,,,,,,,,,,,,,,,,,,116,148816,21,Male,1,2024/03/22_14:26:43,YZ,None,
,,,,,,practice,0,12,3,500,13,Q,0,right,1.340306091005914,1,0,,,,,,,,,,,,,,,,,,,,,1,,,,,,,,,,,,,,,,,,,,,,,,,,,,,,,,,,,,,,,,,,,,,,116,148816,21,Male,1,2024/03/22_14:26:43,YZ,None,
,,,,,,practice,0,12,3,500,14,J,0,right,1.3846067630074685,1,0,,,,,,,,,,,,,,,,,,,,,1,,,,,,,,,,,,,,,,,,,,,,,,,,,,,,,,,,,,,,,,,,,,,,116,148816,21,Male,1,2024/03/22_14:26:43,YZ,None,
,,,,,,practice,0,12,3,500,15,V,1,left,1.7920427829958498,1,0,,,,,,,,,,,,,,,,,,,,,1,,,,,,,,,,,,,,,,,,,,,,,,,,,,,,,,,,,,,,,,,,,,,,116,148816,21,Male,1,2024/03/22_14:26:43,YZ,None,
,,,,,,practice,0,12,3,500,16,J,0,right,1.559222857002169,1,0,,,,,,,,,,,,,,,,,,,,,1,,,,,,,,,,,,,,,,,,,,,,,,,,,,,,,,,,,,,,,,,,,,,,116,148816,21,Male,1,2024/03/22_14:26:43,YZ,None,
,,,,,,practice,0,12,3,500,,,,,,,,0.8541666666666667,0.75,0.16666666666666666,0.8333333333333334,0.0,0.8333333333333334,1.1963627748746148,3,2,0,0,0,10,13,4,12,0,,,,1,,,,,,,,,,,,,,,,,,,,,,,,,,,,,,,,,,,,,,,,,,,,,,116,148816,21,Male,1,2024/03/22_14:26:43,YZ,None,
,,,,,,practice,0,14,3,500,1,V,0,right,0.719677834000322,1,0,,,,,,,,,,,,,,,,,,,,,1,,,,,,,,,,,,,,,,,,,,,,,,,,,,,,,,,,,,,,,,,,,,,,116,148816,21,Male,1,2024/03/22_14:26:43,YZ,None,
,,,,,,practice,0,14,3,500,2,J,0,right,0.5845823689887766,1,0,,,,,,,,,,,,,,,,,,,,,1,,,,,,,,,,,,,,,,,,,,,,,,,,,,,,,,,,,,,,,,,,,,,,116,148816,21,Male,1,2024/03/22_14:26:43,YZ,None,
,,,,,,practice,0,14,3,500,3,V,0,right,0.6486583539954154,1,0,,,,,,,,,,,,,,,,,,,,,1,,,,,,,,,,,,,,,,,,,,,,,,,,,,,,,,,,,,,,,,,,,,,,116,148816,21,Male,1,2024/03/22_14:26:43,YZ,None,
,,,,,,practice,0,14,3,500,4,J,0,right,1.6980868550017476,1,0,,,,,,,,,,,,,,,,,,,,,1,,,,,,,,,,,,,,,,,,,,,,,,,,,,,,,,,,,,,,,,,,,,,,116,148816,21,Male,1,2024/03/22_14:26:43,YZ,None,
,,,,,,practice,0,14,3,500,5,J,1,left,1.001587123988429,1,0,,,,,,,,,,,,,,,,,,,,,1,,,,,,,,,,,,,,,,,,,,,,,,,,,,,,,,,,,,,,,,,,,,,,116,148816,21,Male,1,2024/03/22_14:26:43,YZ,None,
,,,,,,practice,0,14,3,500,6,V,1,left,1.0843105670064688,1,0,,,,,,,,,,,,,,,,,,,,,1,,,,,,,,,,,,,,,,,,,,,,,,,,,,,,,,,,,,,,,,,,,,,,116,148816,21,Male,1,2024/03/22_14:26:43,YZ,None,
,,,,,,practice,0,14,3,500,7,F,0,right,0.8209304880001582,1,0,,,,,,,,,,,,,,,,,,,,,1,,,,,,,,,,,,,,,,,,,,,,,,,,,,,,,,,,,,,,,,,,,,,,116,148816,21,Male,1,2024/03/22_14:26:43,YZ,None,
,,,,,,practice,0,14,3,500,8,J,1,left,1.297466248011915,1,0,,,,,,,,,,,,,,,,,,,,,1,,,,,,,,,,,,,,,,,,,,,,,,,,,,,,,,,,,,,,,,,,,,,,116,148816,21,Male,1,2024/03/22_14:26:43,YZ,None,
,,,,,,practice,0,14,3,500,9,N,0,right,0.7802964309958043,1,0,,,,,,,,,,,,,,,,,,,,,1,,,,,,,,,,,,,,,,,,,,,,,,,,,,,,,,,,,,,,,,,,,,,,116,148816,21,Male,1,2024/03/22_14:26:43,YZ,None,
,,,,,,practice,0,14,3,500,10,J,0,left,0.8417636079975637,0,0,,,,,,,,,,,,,,,,,,,,,1,,,,,,,,,,,,,,,,,,,,,,,,,,,,,,,,,,,,,,,,,,,,,,116,148816,21,Male,1,2024/03/22_14:26:43,YZ,None,
,,,,,,practice,0,14,3,500,11,V,0,right,0.5049317140073981,1,0,,,,,,,,,,,,,,,,,,,,,1,,,,,,,,,,,,,,,,,,,,,,,,,,,,,,,,,,,,,,,,,,,,,,116,148816,21,Male,1,2024/03/22_14:26:43,YZ,None,
,,,,,,practice,0,14,3,500,12,N,1,right,0.4491492140077753,0,0,,,,,,,,,,,,,,,,,,,,,1,,,,,,,,,,,,,,,,,,,,,,,,,,,,,,,,,,,,,,,,,,,,,,116,148816,21,Male,1,2024/03/22_14:26:43,YZ,None,
,,,,,,practice,0,14,3,500,13,V,0,right,0.4743017479922855,1,0,,,,,,,,,,,,,,,,,,,,,1,,,,,,,,,,,,,,,,,,,,,,,,,,,,,,,,,,,,,,,,,,,,,,116,148816,21,Male,1,2024/03/22_14:26:43,YZ,None,
,,,,,,practice,0,14,3,500,14,Q,0,left,0.7228436659934232,0,0,,,,,,,,,,,,,,,,,,,,,1,,,,,,,,,,,,,,,,,,,,,,,,,,,,,,,,,,,,,,,,,,,,,,116,148816,21,Male,1,2024/03/22_14:26:43,YZ,None,
,,,,,,practice,0,14,3,500,15,C,0,right,0.5000793029903434,1,0,,,,,,,,,,,,,,,,,,,,,1,,,,,,,,,,,,,,,,,,,,,,,,,,,,,,,,,,,,,,,,,,,,,,116,148816,21,Male,1,2024/03/22_14:26:43,YZ,None,
,,,,,,practice,0,14,3,500,16,C,0,right,0.5363605369930156,1,0,,,,,,,,,,,,,,,,,,,,,1,,,,,,,,,,,,,,,,,,,,,,,,,,,,,,,,,,,,,,,,,,,,,,116,148816,21,Male,1,2024/03/22_14:26:43,YZ,None,
,,,,,,practice,0,14,3,500,,,,,,,,0.8541666666666667,0.75,0.16666666666666666,0.8333333333333334,0.0,0.8333333333333334,0.7915641287481776,3,2,0,0,0,10,13,4,12,0,,,,1,,,,,,,,,,,,,,,,,,,,,,,,,,,,,,,,,,,,,,,,,,,,,,116,148816,21,Male,1,2024/03/22_14:26:43,YZ,None,
1,./instructions/inst_prac_main/Slide51.png,right,1.324075244992855,660.067844810008,661.3919200550008,,,,,,,,,,,,,,,,,,,,,,,,,,,,,,,,,1,,,,,,,,,,,,,,,,,,,,,,,,,,,,,,,,,,,,,,,,,,,,,,116,148816,21,Male,1,2024/03/22_14:26:43,YZ,None,
2,./instructions/inst_prac_main/Slide52.png,right,8.39507413499814,661.4208332130074,669.8159073480056,,,,,,,,,,,,,,,,,,,,,,,,,,,,,,,,,1,,,,,,,,,,,,,,,,,,,,,,,,,,,,,,,,,,,,,,,,,,,,,,116,148816,21,Male,1,2024/03/22_14:26:43,YZ,None,
3,./instructions/inst_prac_main/Slide53.png,right,2.9865176769963,669.8454456080071,672.8319632850034,,,,,,,,,,,,,,,,,,,,,,,,,,,,,,,,,1,,,,,,,,,,,,,,,,,,,,,,,,,,,,,,,,,,,,,,,,,,,,,,116,148816,21,Male,1,2024/03/22_14:26:43,YZ,None,
4,./instructions/inst_prac_main/Slide54.png,right,3.6503434799960814,672.8614823850075,676.5118258650036,,,,,,,,,,,,,,,,,,,,,,,,,,,,,,,,,1,,,,,,,,,,,,,,,,,,,,,,,,,,,,,,,,,,,,,,,,,,,,,,116,148816,21,Male,1,2024/03/22_14:26:43,YZ,None,
,,,,,,practice_main,0,1,3,500,1,F,0,right,0.7518141229957109,1,0,,,,,,,,,,,,,,,,,,,,,1,,,,,,,,,,,,,,,,,,,,,,,,,,,,,,,,,,,,,,,,,,,,,,116,148816,21,Male,1,2024/03/22_14:26:43,YZ,None,
,,,,,,practice_main,0,1,3,500,2,S,0,right,0.6873476470063906,1,0,,,,,,,,,,,,,,,,,,,,,1,,,,,,,,,,,,,,,,,,,,,,,,,,,,,,,,,,,,,,,,,,,,,,116,148816,21,Male,1,2024/03/22_14:26:43,YZ,None,
,,,,,,practice_main,0,1,3,500,3,C,0,right,0.5499677550105844,1,0,,,,,,,,,,,,,,,,,,,,,1,,,,,,,,,,,,,,,,,,,,,,,,,,,,,,,,,,,,,,,,,,,,,,116,148816,21,Male,1,2024/03/22_14:26:43,YZ,None,
,,,,,,practice_main,0,1,3,500,4,J,0,right,0.733517259999644,1,0,,,,,,,,,,,,,,,,,,,,,1,,,,,,,,,,,,,,,,,,,,,,,,,,,,,,,,,,,,,,,,,,,,,,116,148816,21,Male,1,2024/03/22_14:26:43,YZ,None,
,,,,,,practice_main,0,1,3,500,5,S,1,left,0.5436491629952798,1,0,,,,,,,,,,,,,,,,,,,,,1,,,,,,,,,,,,,,,,,,,,,,,,,,,,,,,,,,,,,,,,,,,,,,116,148816,21,Male,1,2024/03/22_14:26:43,YZ,None,
,,,,,,practice_main,0,1,3,500,6,F,0,right,0.8491448560089339,1,0,,,,,,,,,,,,,,,,,,,,,1,,,,,,,,,,,,,,,,,,,,,,,,,,,,,,,,,,,,,,,,,,,,,,116,148816,21,Male,1,2024/03/22_14:26:43,YZ,None,
,,,,,,practice_main,0,1,3,500,7,N,0,right,0.7596676569955889,1,0,,,,,,,,,,,,,,,,,,,,,1,,,,,,,,,,,,,,,,,,,,,,,,,,,,,,,,,,,,,,,,,,,,,,116,148816,21,Male,1,2024/03/22_14:26:43,YZ,None,
,,,,,,practice_main,0,1,3,500,8,X,0,right,0.6173198920005234,1,0,,,,,,,,,,,,,,,,,,,,,1,,,,,,,,,,,,,,,,,,,,,,,,,,,,,,,,,,,,,,,,,,,,,,116,148816,21,Male,1,2024/03/22_14:26:43,YZ,None,
,,,,,,practice_main,0,1,3,500,9,C,0,right,0.6539042280055583,1,0,,,,,,,,,,,,,,,,,,,,,1,,,,,,,,,,,,,,,,,,,,,,,,,,,,,,,,,,,,,,,,,,,,,,116,148816,21,Male,1,2024/03/22_14:26:43,YZ,None,
,,,,,,practice_main,0,1,3,500,10,V,0,right,0.7106864100060193,1,0,,,,,,,,,,,,,,,,,,,,,1,,,,,,,,,,,,,,,,,,,,,,,,,,,,,,,,,,,,,,,,,,,,,,116,148816,21,Male,1,2024/03/22_14:26:43,YZ,None,
,,,,,,practice_main,0,1,3,500,11,X,1,left,0.6990017119969707,1,0,,,,,,,,,,,,,,,,,,,,,1,,,,,,,,,,,,,,,,,,,,,,,,,,,,,,,,,,,,,,,,,,,,,,116,148816,21,Male,1,2024/03/22_14:26:43,YZ,None,
,,,,,,practice_main,0,1,3,500,12,C,1,right,0.6750893909920705,0,0,,,,,,,,,,,,,,,,,,,,,1,,,,,,,,,,,,,,,,,,,,,,,,,,,,,,,,,,,,,,,,,,,,,,116,148816,21,Male,1,2024/03/22_14:26:43,YZ,None,
,,,,,,practice_main,0,1,3,500,13,N,0,right,0.28323097100656014,1,0,,,,,,,,,,,,,,,,,,,,,1,,,,,,,,,,,,,,,,,,,,,,,,,,,,,,,,,,,,,,,,,,,,,,116,148816,21,Male,1,2024/03/22_14:26:43,YZ,None,
,,,,,,practice_main,0,1,3,500,14,J,0,left,0.2963298229879001,0,0,,,,,,,,,,,,,,,,,,,,,1,,,,,,,,,,,,,,,,,,,,,,,,,,,,,,,,,,,,,,,,,,,,,,116,148816,21,Male,1,2024/03/22_14:26:43,YZ,None,
,,,,,,practice_main,0,1,3,500,15,C,1,right,0.24480215700168628,0,0,,,,,,,,,,,,,,,,,,,,,1,,,,,,,,,,,,,,,,,,,,,,,,,,,,,,,,,,,,,,,,,,,,,,116,148816,21,Male,1,2024/03/22_14:26:43,YZ,None,
,,,,,,practice_main,0,1,3,500,16,X,0,right,0.2908092249999754,1,0,,,,,,,,,,,,,,,,,,,,,1,,,,,,,,,,,,,,,,,,,,,,,,,,,,,,,,,,,,,,,,,,,,,,116,148816,21,Male,1,2024/03/22_14:26:43,YZ,None,
,,,,,,practice_main,0,1,3,500,,,,,,,,0.8125,0.5,0.08333333333333333,0.9166666666666666,0.0,0.9166666666666666,0.5841426418755873,2,1,0,0,0,11,13,4,12,0,,,,1,,,,,,,,,,,,,,,,,,,,,,,,,,,,,,,,,,,,,,,,,,,,,,116,148816,21,Male,1,2024/03/22_14:26:43,YZ,None,
,,,,,240322_145622,PRACTICE,0,1,3,500,,,,,,,,,,,,,,,,,,,,,,,,,,,,1,20,1,1,cue1.png,hard,B,85,1.9633915680024074,0,679.5792253550026,681.5701988500077,,,,,,,,,,,,,,,,,,,,,,,,,,,,,,,,,,,116,148816,21,Male,1,2024/03/22_14:26:43,YZ,None,
,,,,,,practice_main,0,2,3,500,1,F,0,right,0.5503422149922699,1,0,,,,,,,,,,,,,,,,,,,,,1,,,,,,,,,,,,,,,,,,,,,,,,,,,,,,,,,,,,,,,,,,,,,,116,148816,21,Male,1,2024/03/22_14:26:43,YZ,None,
,,,,,,practice_main,0,2,3,500,2,C,0,right,0.263892538001528,1,0,,,,,,,,,,,,,,,,,,,,,1,,,,,,,,,,,,,,,,,,,,,,,,,,,,,,,,,,,,,,,,,,,,,,116,148816,21,Male,1,2024/03/22_14:26:43,YZ,None,
,,,,,,practice_main,0,2,3,500,3,X,0,right,0.33929575700312853,1,0,,,,,,,,,,,,,,,,,,,,,1,,,,,,,,,,,,,,,,,,,,,,,,,,,,,,,,,,,,,,,,,,,,,,116,148816,21,Male,1,2024/03/22_14:26:43,YZ,None,
,,,,,,practice_main,0,2,3,500,4,S,0,left,0.5992021249985555,0,0,,,,,,,,,,,,,,,,,,,,,1,,,,,,,,,,,,,,,,,,,,,,,,,,,,,,,,,,,,,,,,,,,,,,116,148816,21,Male,1,2024/03/22_14:26:43,YZ,None,
,,,,,,practice_main,0,2,3,500,5,C,1,left,0.35837590899609495,1,0,,,,,,,,,,,,,,,,,,,,,1,,,,,,,,,,,,,,,,,,,,,,,,,,,,,,,,,,,,,,,,,,,,,,116,148816,21,Male,1,2024/03/22_14:26:43,YZ,None,
,,,,,,practice_main,0,2,3,500,6,F,0,left,0.39449724899895955,0,0,,,,,,,,,,,,,,,,,,,,,1,,,,,,,,,,,,,,,,,,,,,,,,,,,,,,,,,,,,,,,,,,,,,,116,148816,21,Male,1,2024/03/22_14:26:43,YZ,None,
,,,,,,practice_main,0,2,3,500,7,X,0,left,0.5310599190124776,0,0,,,,,,,,,,,,,,,,,,,,,1,,,,,,,,,,,,,,,,,,,,,,,,,,,,,,,,,,,,,,,,,,,,,,116,148816,21,Male,1,2024/03/22_14:26:43,YZ,None,
,,,,,,practice_main,0,2,3,500,8,N,0,right,0.2656330780009739,1,0,,,,,,,,,,,,,,,,,,,,,1,,,,,,,,,,,,,,,,,,,,,,,,,,,,,,,,,,,,,,,,,,,,,,116,148816,21,Male,1,2024/03/22_14:26:43,YZ,None,
,,,,,,practice_main,0,2,3,500,9,F,1,right,0.24119658100244123,0,0,,,,,,,,,,,,,,,,,,,,,1,,,,,,,,,,,,,,,,,,,,,,,,,,,,,,,,,,,,,,,,,,,,,,116,148816,21,Male,1,2024/03/22_14:26:43,YZ,None,
,,,,,,practice_main,0,2,3,500,10,S,0,right,0.18561164400307462,1,0,,,,,,,,,,,,,,,,,,,,,1,,,,,,,,,,,,,,,,,,,,,,,,,,,,,,,,,,,,,,,,,,,,,,116,148816,21,Male,1,2024/03/22_14:26:43,YZ,None,
,,,,,,practice_main,0,2,3,500,11,S,0,left,0.19720045498979744,0,0,,,,,,,,,,,,,,,,,,,,,1,,,,,,,,,,,,,,,,,,,,,,,,,,,,,,,,,,,,,,,,,,,,,,116,148816,21,Male,1,2024/03/22_14:26:43,YZ,None,
,,,,,,practice_main,0,2,3,500,12,F,1,right,0.2841377750009997,0,0,,,,,,,,,,,,,,,,,,,,,1,,,,,,,,,,,,,,,,,,,,,,,,,,,,,,,,,,,,,,,,,,,,,,116,148816,21,Male,1,2024/03/22_14:26:43,YZ,None,
,,,,,,practice_main,0,2,3,500,13,X,0,left,0.16090655699372292,0,0,,,,,,,,,,,,,,,,,,,,,1,,,,,,,,,,,,,,,,,,,,,,,,,,,,,,,,,,,,,,,,,,,,,,116,148816,21,Male,1,2024/03/22_14:26:43,YZ,None,
,,,,,,practice_main,0,2,3,500,14,J,0,right,0.19709074799902737,1,0,,,,,,,,,,,,,,,,,,,,,1,,,,,,,,,,,,,,,,,,,,,,,,,,,,,,,,,,,,,,,,,,,,,,116,148816,21,Male,1,2024/03/22_14:26:43,YZ,None,
,,,,,,practice_main,0,2,3,500,15,F,1,right,0.22903084999416023,0,0,,,,,,,,,,,,,,,,,,,,,1,,,,,,,,,,,,,,,,,,,,,,,,,,,,,,,,,,,,,,,,,,,,,,116,148816,21,Male,1,2024/03/22_14:26:43,YZ,None,
,,,,,,practice_main,0,2,3,500,16,Q,0,right,0.2745252629974857,1,0,,,,,,,,,,,,,,,,,,,,,1,,,,,,,,,,,,,,,,,,,,,,,,,,,,,,,,,,,,,,,,,,,,,,116,148816,21,Male,1,2024/03/22_14:26:43,YZ,None,
,,,,,,practice_main,0,2,3,500,,,,,,,,0.05833333333333332,0.25,0.4166666666666667,0.5833333333333334,0.0,0.5833333333333333,0.31699991643654357,1,5,0,0,0,7,8,4,12,0,,,,1,,,,,,,,,,,,,,,,,,,,,,,,,,,,,,,,,,,,,,,,,,,,,,116,148816,21,Male,1,2024/03/22_14:26:43,YZ,None,
,,,,,240322_145646,PRACTICE,0,2,3,500,,,,,,,,,,,,,,,,,,,,,,,,,,,,1,49,2,2,cue1.png,hard,B,62,1.3653482520021498,0,708.5009378270042,709.8828174350056,,,,,,,,,,,,,,,,,,,,,,,,,,,,,,,,,,,116,148816,21,Male,1,2024/03/22_14:26:43,YZ,None,
,,,,,,practice_main,0,3,3,500,1,S,0,right,0.42033921398979146,1,0,,,,,,,,,,,,,,,,,,,,,1,,,,,,,,,,,,,,,,,,,,,,,,,,,,,,,,,,,,,,,,,,,,,,116,148816,21,Male,1,2024/03/22_14:26:43,YZ,None,
,,,,,,practice_main,0,3,3,500,2,J,0,right,0.2563642410095781,1,0,,,,,,,,,,,,,,,,,,,,,1,,,,,,,,,,,,,,,,,,,,,,,,,,,,,,,,,,,,,,,,,,,,,,116,148816,21,Male,1,2024/03/22_14:26:43,YZ,None,
,,,,,,practice_main,0,3,3,500,3,J,0,right,0.24850548499671277,1,0,,,,,,,,,,,,,,,,,,,,,1,,,,,,,,,,,,,,,,,,,,,,,,,,,,,,,,,,,,,,,,,,,,,,116,148816,21,Male,1,2024/03/22_14:26:43,YZ,None,
,,,,,,practice_main,0,3,3,500,4,X,0,right,0.38051317000645213,1,0,,,,,,,,,,,,,,,,,,,,,1,,,,,,,,,,,,,,,,,,,,,,,,,,,,,,,,,,,,,,,,,,,,,,116,148816,21,Male,1,2024/03/22_14:26:43,YZ,None,
,,,,,,practice_main,0,3,3,500,5,N,0,right,0.55973047799489,1,0,,,,,,,,,,,,,,,,,,,,,1,,,,,,,,,,,,,,,,,,,,,,,,,,,,,,,,,,,,,,,,,,,,,,116,148816,21,Male,1,2024/03/22_14:26:43,YZ,None,
,,,,,,practice_main,0,3,3,500,6,J,1,left,0.3403369760053465,1,0,,,,,,,,,,,,,,,,,,,,,1,,,,,,,,,,,,,,,,,,,,,,,,,,,,,,,,,,,,,,,,,,,,,,116,148816,21,Male,1,2024/03/22_14:26:43,YZ,None,
,,,,,,practice_main,0,3,3,500,7,Q,0,right,0.28999231300258543,1,0,,,,,,,,,,,,,,,,,,,,,1,,,,,,,,,,,,,,,,,,,,,,,,,,,,,,,,,,,,,,,,,,,,,,116,148816,21,Male,1,2024/03/22_14:26:43,YZ,None,
,,,,,,practice_main,0,3,3,500,8,N,1,right,0.4565334189974237,0,0,,,,,,,,,,,,,,,,,,,,,1,,,,,,,,,,,,,,,,,,,,,,,,,,,,,,,,,,,,,,,,,,,,,,116,148816,21,Male,1,2024/03/22_14:26:43,YZ,None,
,,,,,,practice_main,0,3,3,500,9,V,0,right,0.3607402970083058,1,0,,,,,,,,,,,,,,,,,,,,,1,,,,,,,,,,,,,,,,,,,,,,,,,,,,,,,,,,,,,,,,,,,,,,116,148816,21,Male,1,2024/03/22_14:26:43,YZ,None,
,,,,,,practice_main,0,3,3,500,10,V,0,left,0.4346596910036169,0,0,,,,,,,,,,,,,,,,,,,,,1,,,,,,,,,,,,,,,,,,,,,,,,,,,,,,,,,,,,,,,,,,,,,,116,148816,21,Male,1,2024/03/22_14:26:43,YZ,None,
,,,,,,practice_main,0,3,3,500,11,N,1,right,0.2875569199968595,0,0,,,,,,,,,,,,,,,,,,,,,1,,,,,,,,,,,,,,,,,,,,,,,,,,,,,,,,,,,,,,,,,,,,,,116,148816,21,Male,1,2024/03/22_14:26:43,YZ,None,
,,,,,,practice_main,0,3,3,500,12,C,0,right,0.6138066730054561,1,0,,,,,,,,,,,,,,,,,,,,,1,,,,,,,,,,,,,,,,,,,,,,,,,,,,,,,,,,,,,,,,,,,,,,116,148816,21,Male,1,2024/03/22_14:26:43,YZ,None,
,,,,,,practice_main,0,3,3,500,13,V,1,right,0.3657819619984366,0,0,,,,,,,,,,,,,,,,,,,,,1,,,,,,,,,,,,,,,,,,,,,,,,,,,,,,,,,,,,,,,,,,,,,,116,148816,21,Male,1,2024/03/22_14:26:43,YZ,None,
,,,,,,practice_main,0,3,3,500,14,N,1,right,0.2011051740119001,0,0,,,,,,,,,,,,,,,,,,,,,1,,,,,,,,,,,,,,,,,,,,,,,,,,,,,,,,,,,,,,,,,,,,,,116,148816,21,Male,1,2024/03/22_14:26:43,YZ,None,
,,,,,,practice_main,0,3,3,500,15,Q,0,left,0.2085142339929007,0,0,,,,,,,,,,,,,,,,,,,,,1,,,,,,,,,,,,,,,,,,,,,,,,,,,,,,,,,,,,,,,,,,,,,,116,148816,21,Male,1,2024/03/22_14:26:43,YZ,None,
,,,,,,practice_main,0,3,3,500,16,Q,0,left,0.3754524929972831,0,0,,,,,,,,,,,,,,,,,,,,,1,,,,,,,,,,,,,,,,,,,,,,,,,,,,,,,,,,,,,,,,,,,,,,116,148816,21,Male,1,2024/03/22_14:26:43,YZ,None,
,,,,,,practice_main,0,3,3,500,,,,,,,,0.048484848484848464,0.2,0.2727272727272727,0.7272727272727273,0.0,0.7272727272727273,0.3624957962510962,1,3,0,0,0,8,9,5,11,0,,,,1,,,,,,,,,,,,,,,,,,,,,,,,,,,,,,,,,,,,,,,,,,,,,,116,148816,21,Male,1,2024/03/22_14:26:43,YZ,None,
,,,,,240322_145711,PRACTICE,0,3,3,500,,,,,,,,,,,,,,,,,,,,,,,,,,,,1,41,3,3,cue1.png,hard,B,73,1.3979367280117003,0,732.4690405940055,733.8836380860012,,,,,,,,,,,,,,,,,,,,,,,,,,,,,,,,,,,116,148816,21,Male,1,2024/03/22_14:26:43,YZ,None,
1,./instructions/inst_prac_end/Slide56.png,right,22.925574291002704,755.7306197059952,778.6561939969979,,,,,,,,,,,,,,,,,,,,,,,,,,,,,,,,,1,,,,,,,,,,,,,,,,,,,,,,,,,,,,,,,,,,,,,,,,,,,,,,116,148816,21,Male,1,2024/03/22_14:26:43,YZ,None,
1,./instructions/inst_test/Slide57.png,right,55.150380804989254,778.689752204009,833.8401330089982,,,,,,,,,,,,,,,,,,,,,,,,,,,,,,,,,1,,,,,,,,,,,,,,,,,,,,,,,,,,,,,,,,,,,,,,,,,,,,,,116,148816,21,Male,1,2024/03/22_14:26:43,YZ,None,
,,,,,,test,1,1,1,500,1,J,0,right,0.3464175209956011,1,0,,,,,,,,,,,,,,,,,,,,,1,,,,,,,,,,,,,,,,,,,,,,,,,,,,,,,,,,,,,,,,,,,,,,116,148816,21,Male,1,2024/03/22_14:26:43,YZ,None,
,,,,,,test,1,1,1,500,2,C,0,right,0.3159589720016811,1,0,,,,,,,,,,,,,,,,,,,,,1,,,,,,,,,,,,,,,,,,,,,,,,,,,,,,,,,,,,,,,,,,,,,,116,148816,21,Male,1,2024/03/22_14:26:43,YZ,None,
,,,,,,test,1,1,1,500,3,V,0,right,0.3436633750097826,1,0,,,,,,,,,,,,,,,,,,,,,1,,,,,,,,,,,,,,,,,,,,,,,,,,,,,,,,,,,,,,,,,,,,,,116,148816,21,Male,1,2024/03/22_14:26:43,YZ,None,
,,,,,,test,1,1,1,500,4,Q,0,right,0.4069057430024259,1,0,,,,,,,,,,,,,,,,,,,,,1,,,,,,,,,,,,,,,,,,,,,,,,,,,,,,,,,,,,,,,,,,,,,,116,148816,21,Male,1,2024/03/22_14:26:43,YZ,None,
,,,,,,test,1,1,1,500,5,Q,1,left,0.305110273999162,1,0,,,,,,,,,,,,,,,,,,,,,1,,,,,,,,,,,,,,,,,,,,,,,,,,,,,,,,,,,,,,,,,,,,,,116,148816,21,Male,1,2024/03/22_14:26:43,YZ,None,
,,,,,,test,1,1,1,500,6,F,0,right,0.42404867500590626,1,0,,,,,,,,,,,,,,,,,,,,,1,,,,,,,,,,,,,,,,,,,,,,,,,,,,,,,,,,,,,,,,,,,,,,116,148816,21,Male,1,2024/03/22_14:26:43,YZ,None,
,,,,,,test,1,1,1,500,7,F,1,left,0.33731795100902673,1,0,,,,,,,,,,,,,,,,,,,,,1,,,,,,,,,,,,,,,,,,,,,,,,,,,,,,,,,,,,,,,,,,,,,,116,148816,21,Male,1,2024/03/22_14:26:43,YZ,None,
,,,,,,test,1,1,1,500,8,Q,0,right,0.38510516000678763,1,0,,,,,,,,,,,,,,,,,,,,,1,,,,,,,,,,,,,,,,,,,,,,,,,,,,,,,,,,,,,,,,,,,,,,116,148816,21,Male,1,2024/03/22_14:26:43,YZ,None,
,,,,,,test,1,1,1,500,9,Q,1,left,0.38692506100051105,1,0,,,,,,,,,,,,,,,,,,,,,1,,,,,,,,,,,,,,,,,,,,,,,,,,,,,,,,,,,,,,,,,,,,,,116,148816,21,Male,1,2024/03/22_14:26:43,YZ,None,
,,,,,,test,1,1,1,500,10,X,0,right,0.3396636240067892,1,0,,,,,,,,,,,,,,,,,,,,,1,,,,,,,,,,,,,,,,,,,,,,,,,,,,,,,,,,,,,,,,,,,,,,116,148816,21,Male,1,2024/03/22_14:26:43,YZ,None,
,,,,,,test,1,1,1,500,11,F,0,right,0.5502837499952875,1,0,,,,,,,,,,,,,,,,,,,,,1,,,,,,,,,,,,,,,,,,,,,,,,,,,,,,,,,,,,,,,,,,,,,,116,148816,21,Male,1,2024/03/22_14:26:43,YZ,None,
,,,,,,test,1,1,1,500,12,Q,0,right,0.6655022870108951,1,0,,,,,,,,,,,,,,,,,,,,,1,,,,,,,,,,,,,,,,,,,,,,,,,,,,,,,,,,,,,,,,,,,,,,116,148816,21,Male,1,2024/03/22_14:26:43,YZ,None,
,,,,,,test,1,1,1,500,13,Q,1,right,0.6315827499929583,0,0,,,,,,,,,,,,,,,,,,,,,1,,,,,,,,,,,,,,,,,,,,,,,,,,,,,,,,,,,,,,,,,,,,,,116,148816,21,Male,1,2024/03/22_14:26:43,YZ,None,
,,,,,,test,1,1,1,500,14,J,0,right,0.5744545509951422,1,0,,,,,,,,,,,,,,,,,,,,,1,,,,,,,,,,,,,,,,,,,,,,,,,,,,,,,,,,,,,,,,,,,,,,116,148816,21,Male,1,2024/03/22_14:26:43,YZ,None,
,,,,,,test,1,1,1,500,15,X,0,right,0.6961782580037834,1,0,,,,,,,,,,,,,,,,,,,,,1,,,,,,,,,,,,,,,,,,,,,,,,,,,,,,,,,,,,,,,,,,,,,,116,148816,21,Male,1,2024/03/22_14:26:43,YZ,None,
,,,,,,test,1,1,1,500,16,F,0,right,0.7081739919958636,1,0,,,,,,,,,,,,,,,,,,,,,1,,,,,,,,,,,,,,,,,,,,,,,,,,,,,,,,,,,,,,,,,,,,,,116,148816,21,Male,1,2024/03/22_14:26:43,YZ,None,
,,,,,,Test,1,1,1,500,,,,,,,,0.9375,0.75,0.0,1.0,0.0,1.0,0.4635807465019752,3,0,0,0,0,12,15,4,12,0,,,,1,,,,,,,,,,,,,,,,,,,,,,,,,,,,,,,,,,,,,,,,,,,,,,116,148816,21,Male,1,2024/03/22_14:26:43,YZ,None,
,,,,,240322_145858,TEST,1,1,1,500,,,,,,,,,,,,,,,,,,,,,,,,,,,,1,1,1,1,cue2.png,easy,B,100,0.9932755999907386,0,838.8961291660089,839.9036583940033,,,,,,,,,,,,,,,,,,,,,,,,,,,,,,,,,,,116,148816,21,Male,1,2024/03/22_14:26:43,YZ,None,
,,,,,,test,1,2,3,500,1,Q,0,right,0.7249894889973802,1,0,,,,,,,,,,,,,,,,,,,,,1,,,,,,,,,,,,,,,,,,,,,,,,,,,,,,,,,,,,,,,,,,,,,,116,148816,21,Male,1,2024/03/22_14:26:43,YZ,None,
,,,,,,test,1,2,3,500,2,Q,0,right,0.6875095010036603,1,0,,,,,,,,,,,,,,,,,,,,,1,,,,,,,,,,,,,,,,,,,,,,,,,,,,,,,,,,,,,,,,,,,,,,116,148816,21,Male,1,2024/03/22_14:26:43,YZ,None,
,,,,,,test,1,2,3,500,3,J,0,right,0.7131027809955413,1,0,,,,,,,,,,,,,,,,,,,,,1,,,,,,,,,,,,,,,,,,,,,,,,,,,,,,,,,,,,,,,,,,,,,,116,148816,21,Male,1,2024/03/22_14:26:43,YZ,None,
,,,,,,test,1,2,3,500,4,Q,1,left,0.7152423149964307,1,0,,,,,,,,,,,,,,,,,,,,,1,,,,,,,,,,,,,,,,,,,,,,,,,,,,,,,,,,,,,,,,,,,,,,116,148816,21,Male,1,2024/03/22_14:26:43,YZ,None,
,,,,,,test,1,2,3,500,5,S,0,right,0.6911056800017832,1,0,,,,,,,,,,,,,,,,,,,,,1,,,,,,,,,,,,,,,,,,,,,,,,,,,,,,,,,,,,,,,,,,,,,,116,148816,21,Male,1,2024/03/22_14:26:43,YZ,None,
,,,,,,test,1,2,3,500,6,V,0,right,0.6933784409920918,1,0,,,,,,,,,,,,,,,,,,,,,1,,,,,,,,,,,,,,,,,,,,,,,,,,,,,,,,,,,,,,,,,,,,,,116,148816,21,Male,1,2024/03/22_14:26:43,YZ,None,
,,,,,,test,1,2,3,500,7,Q,1,left,0.725380160001805,1,0,,,,,,,,,,,,,,,,,,,,,1,,,,,,,,,,,,,,,,,,,,,,,,,,,,,,,,,,,,,,,,,,,,,,116,148816,21,Male,1,2024/03/22_14:26:43,YZ,None,
,,,,,,test,1,2,3,500,8,C,0,right,0.7187844900035998,1,0,,,,,,,,,,,,,,,,,,,,,1,,,,,,,,,,,,,,,,,,,,,,,,,,,,,,,,,,,,,,,,,,,,,,116,148816,21,Male,1,2024/03/22_14:26:43,YZ,None,
,,,,,,test,1,2,3,500,9,J,0,left,0.8018222289974801,0,0,,,,,,,,,,,,,,,,,,,,,1,,,,,,,,,,,,,,,,,,,,,,,,,,,,,,,,,,,,,,,,,,,,,,116,148816,21,Male,1,2024/03/22_14:26:43,YZ,None,
,,,,,,test,1,2,3,500,10,S,0,right,0.7113248899986502,1,0,,,,,,,,,,,,,,,,,,,,,1,,,,,,,,,,,,,,,,,,,,,,,,,,,,,,,,,,,,,,,,,,,,,,116,148816,21,Male,1,2024/03/22_14:26:43,YZ,None,
,,,,,,test,1,2,3,500,11,C,1,left,0.7398294459999306,1,0,,,,,,,,,,,,,,,,,,,,,1,,,,,,,,,,,,,,,,,,,,,,,,,,,,,,,,,,,,,,,,,,,,,,116,148816,21,Male,1,2024/03/22_14:26:43,YZ,None,
,,,,,,test,1,2,3,500,12,J,1,right,0.7523350910050794,0,0,,,,,,,,,,,,,,,,,,,,,1,,,,,,,,,,,,,,,,,,,,,,,,,,,,,,,,,,,,,,,,,,,,,,116,148816,21,Male,1,2024/03/22_14:26:43,YZ,None,
,,,,,,test,1,2,3,500,13,V,0,right,0.7675886740034912,1,0,,,,,,,,,,,,,,,,,,,,,1,,,,,,,,,,,,,,,,,,,,,,,,,,,,,,,,,,,,,,,,,,,,,,116,148816,21,Male,1,2024/03/22_14:26:43,YZ,None,
,,,,,,test,1,2,3,500,14,Q,0,left,0.7036873979959637,0,0,,,,,,,,,,,,,,,,,,,,,1,,,,,,,,,,,,,,,,,,,,,,,,,,,,,,,,,,,,,,,,,,,,,,116,148816,21,Male,1,2024/03/22_14:26:43,YZ,None,
,,,,,,test,1,2,3,500,15,S,0,left,0.7251056519889971,0,0,,,,,,,,,,,,,,,,,,,,,1,,,,,,,,,,,,,,,,,,,,,,,,,,,,,,,,,,,,,,,,,,,,,,116,148816,21,Male,1,2024/03/22_14:26:43,YZ,None,
,,,,,,test,1,2,3,500,16,V,1,left,0.7251291739958106,1,0,,,,,,,,,,,,,,,,,,,,,1,,,,,,,,,,,,,,,,,,,,,,,,,,,,,,,,,,,,,,,,,,,,,,116,148816,21,Male,1,2024/03/22_14:26:43,YZ,None,
,,,,,,Test,1,2,3,500,,,,,,,,0.8272727272727273,0.8,0.2727272727272727,0.7272727272727273,0.0,0.7272727272727273,0.724769713186106,4,3,0,0,0,8,12,5,11,0,,,,1,,,,,,,,,,,,,,,,,,,,,,,,,,,,,,,,,,,,,,,,,,,,,,116,148816,21,Male,1,2024/03/22_14:26:43,YZ,None,
,,,,,240322_145929,TEST,1,2,3,500,,,,,,,,,,,,,,,,,,,,,,,,,,,,1,2,2,2,cue1.png,hard,B,97,1.2320140350057045,0,864.881105966997,866.1312129489961,,,,,,,,,,,,,,,,,,,,,,,,,,,,,,,,,,,116,148816,21,Male,1,2024/03/22_14:26:43,YZ,None,
,,,,,,test,1,3,3,500,1,F,0,right,0.7488761780114146,1,0,,,,,,,,,,,,,,,,,,,,,1,,,,,,,,,,,,,,,,,,,,,,,,,,,,,,,,,,,,,,,,,,,,,,116,148816,21,Male,1,2024/03/22_14:26:43,YZ,None,
,,,,,,test,1,3,3,500,2,F,0,right,0.7279882959992392,1,0,,,,,,,,,,,,,,,,,,,,,1,,,,,,,,,,,,,,,,,,,,,,,,,,,,,,,,,,,,,,,,,,,,,,116,148816,21,Male,1,2024/03/22_14:26:43,YZ,None,
,,,,,,test,1,3,3,500,3,Q,0,right,0.6753871010005241,1,0,,,,,,,,,,,,,,,,,,,,,1,,,,,,,,,,,,,,,,,,,,,,,,,,,,,,,,,,,,,,,,,,,,,,116,148816,21,Male,1,2024/03/22_14:26:43,YZ,None,
,,,,,,test,1,3,3,500,4,S,0,right,0.6310826809931314,1,0,,,,,,,,,,,,,,,,,,,,,1,,,,,,,,,,,,,,,,,,,,,,,,,,,,,,,,,,,,,,,,,,,,,,116,148816,21,Male,1,2024/03/22_14:26:43,YZ,None,
,,,,,,test,1,3,3,500,5,F,1,left,0.674567358000786,1,0,,,,,,,,,,,,,,,,,,,,,1,,,,,,,,,,,,,,,,,,,,,,,,,,,,,,,,,,,,,,,,,,,,,,116,148816,21,Male,1,2024/03/22_14:26:43,YZ,None,
,,,,,,test,1,3,3,500,6,X,0,right,0.6633584049995989,1,0,,,,,,,,,,,,,,,,,,,,,1,,,,,,,,,,,,,,,,,,,,,,,,,,,,,,,,,,,,,,,,,,,,,,116,148816,21,Male,1,2024/03/22_14:26:43,YZ,None,
,,,,,,test,1,3,3,500,7,C,0,right,0.6750888169917744,1,0,,,,,,,,,,,,,,,,,,,,,1,,,,,,,,,,,,,,,,,,,,,,,,,,,,,,,,,,,,,,,,,,,,,,116,148816,21,Male,1,2024/03/22_14:26:43,YZ,None,
,,,,,,test,1,3,3,500,8,F,1,right,0.8006617030041525,0,0,,,,,,,,,,,,,,,,,,,,,1,,,,,,,,,,,,,,,,,,,,,,,,,,,,,,,,,,,,,,,,,,,,,,116,148816,21,Male,1,2024/03/22_14:26:43,YZ,None,
,,,,,,test,1,3,3,500,9,F,0,left,0.7196787120046793,0,0,,,,,,,,,,,,,,,,,,,,,1,,,,,,,,,,,,,,,,,,,,,,,,,,,,,,,,,,,,,,,,,,,,,,116,148816,21,Male,1,2024/03/22_14:26:43,YZ,None,
,,,,,,test,1,3,3,500,10,Q,0,right,0.7117805999878328,1,0,,,,,,,,,,,,,,,,,,,,,1,,,,,,,,,,,,,,,,,,,,,,,,,,,,,,,,,,,,,,,,,,,,,,116,148816,21,Male,1,2024/03/22_14:26:43,YZ,None,
,,,,,,test,1,3,3,500,11,F,1,right,0.67483079599333,0,0,,,,,,,,,,,,,,,,,,,,,1,,,,,,,,,,,,,,,,,,,,,,,,,,,,,,,,,,,,,,,,,,,,,,116,148816,21,Male,1,2024/03/22_14:26:43,YZ,None,
,,,,,,test,1,3,3,500,12,F,1,right,0.718185005011037,0,0,,,,,,,,,,,,,,,,,,,,,1,,,,,,,,,,,,,,,,,,,,,,,,,,,,,,,,,,,,,,,,,,,,,,116,148816,21,Male,1,2024/03/22_14:26:43,YZ,None,
,,,,,,test,1,3,3,500,13,X,0,left,0.7685926780104637,0,0,,,,,,,,,,,,,,,,,,,,,1,,,,,,,,,,,,,,,,,,,,,,,,,,,,,,,,,,,,,,,,,,,,,,116,148816,21,Male,1,2024/03/22_14:26:43,YZ,None,
,,,,,,test,1,3,3,500,14,S,0,left,0.7731663349986775,0,0,,,,,,,,,,,,,,,,,,,,,1,,,,,,,,,,,,,,,,,,,,,,,,,,,,,,,,,,,,,,,,,,,,,,116,148816,21,Male,1,2024/03/22_14:26:43,YZ,None,
,,,,,,test,1,3,3,500,15,N,0,right,0.690231885004323,1,0,,,,,,,,,,,,,,,,,,,,,1,,,,,,,,,,,,,,,,,,,,,,,,,,,,,,,,,,,,,,,,,,,,,,116,148816,21,Male,1,2024/03/22_14:26:43,YZ,None,
,,,,,,test,1,3,3,500,16,X,1,left,0.6319619360001525,1,0,,,,,,,,,,,,,,,,,,,,,1,,,,,,,,,,,,,,,,,,,,,,,,,,,,,,,,,,,,,,,,,,,,,,116,148816,21,Male,1,2024/03/22_14:26:43,YZ,None,
,,,,,,Test,1,3,3,500,,,,,,,,0.6113636363636364,0.4,0.2727272727272727,0.7272727272727273,0.0,0.7272727272727273,0.7053399053756948,2,3,0,0,0,8,10,5,11,0,,,,1,,,,,,,,,,,,,,,,,,,,,,,,,,,,,,,,,,,,,,,,,,,,,,116,148816,21,Male,1,2024/03/22_14:26:43,YZ,None,
,,,,,240322_145959,TEST,1,3,3,500,,,,,,,,,,,,,,,,,,,,,,,,,,,,1,3,3,3,cue1.png,hard,B,100,1.2961773389979498,0,895.3364853219973,896.6458929570072,,,,,,,,,,,,,,,,,,,,,,,,,,,,,,,,,,,116,148816,21,Male,1,2024/03/22_14:26:43,YZ,None,
,,,,,,test,1,4,3,500,1,S,0,right,0.6754116329975659,1,0,,,,,,,,,,,,,,,,,,,,,1,,,,,,,,,,,,,,,,,,,,,,,,,,,,,,,,,,,,,,,,,,,,,,116,148816,21,Male,1,2024/03/22_14:26:43,YZ,None,
,,,,,,test,1,4,3,500,2,V,0,right,0.6961763839935884,1,0,,,,,,,,,,,,,,,,,,,,,1,,,,,,,,,,,,,,,,,,,,,,,,,,,,,,,,,,,,,,,,,,,,,,116,148816,21,Male,1,2024/03/22_14:26:43,YZ,None,
,,,,,,test,1,4,3,500,3,S,0,right,0.6494562919979217,1,0,,,,,,,,,,,,,,,,,,,,,1,,,,,,,,,,,,,,,,,,,,,,,,,,,,,,,,,,,,,,,,,,,,,,116,148816,21,Male,1,2024/03/22_14:26:43,YZ,None,
,,,,,,test,1,4,3,500,4,J,0,right,0.698759159000474,1,0,,,,,,,,,,,,,,,,,,,,,1,,,,,,,,,,,,,,,,,,,,,,,,,,,,,,,,,,,,,,,,,,,,,,116,148816,21,Male,1,2024/03/22_14:26:43,YZ,None,
,,,,,,test,1,4,3,500,5,V,1,left,0.6910060480004176,1,0,,,,,,,,,,,,,,,,,,,,,1,,,,,,,,,,,,,,,,,,,,,,,,,,,,,,,,,,,,,,,,,,,,,,116,148816,21,Male,1,2024/03/22_14:26:43,YZ,None,
,,,,,,test,1,4,3,500,6,N,0,right,0.7560634249966824,1,0,,,,,,,,,,,,,,,,,,,,,1,,,,,,,,,,,,,,,,,,,,,,,,,,,,,,,,,,,,,,,,,,,,,,116,148816,21,Male,1,2024/03/22_14:26:43,YZ,None,
,,,,,,test,1,4,3,500,7,F,0,right,0.7584504719998222,1,0,,,,,,,,,,,,,,,,,,,,,1,,,,,,,,,,,,,,,,,,,,,,,,,,,,,,,,,,,,,,,,,,,,,,116,148816,21,Male,1,2024/03/22_14:26:43,YZ,None,
,,,,,,test,1,4,3,500,8,C,0,right,0.691655062008067,1,0,,,,,,,,,,,,,,,,,,,,,1,,,,,,,,,,,,,,,,,,,,,,,,,,,,,,,,,,,,,,,,,,,,,,116,148816,21,Male,1,2024/03/22_14:26:43,YZ,None,
,,,,,,test,1,4,3,500,9,Q,0,left,0.7691090930020437,0,0,,,,,,,,,,,,,,,,,,,,,1,,,,,,,,,,,,,,,,,,,,,,,,,,,,,,,,,,,,,,,,,,,,,,116,148816,21,Male,1,2024/03/22_14:26:43,YZ,None,
,,,,,,test,1,4,3,500,10,F,1,left,0.7634986379998736,1,0,,,,,,,,,,,,,,,,,,,,,1,,,,,,,,,,,,,,,,,,,,,,,,,,,,,,,,,,,,,,,,,,,,,,116,148816,21,Male,1,2024/03/22_14:26:43,YZ,None,
,,,,,,test,1,4,3,500,11,F,0,left,0.7611943270021584,0,0,,,,,,,,,,,,,,,,,,,,,1,,,,,,,,,,,,,,,,,,,,,,,,,,,,,,,,,,,,,,,,,,,,,,116,148816,21,Male,1,2024/03/22_14:26:43,YZ,None,
,,,,,,test,1,4,3,500,12,X,0,left,0.7411903939937474,0,0,,,,,,,,,,,,,,,,,,,,,1,,,,,,,,,,,,,,,,,,,,,,,,,,,,,,,,,,,,,,,,,,,,,,116,148816,21,Male,1,2024/03/22_14:26:43,YZ,None,
,,,,,,test,1,4,3,500,13,F,1,right,0.6979107310035033,0,0,,,,,,,,,,,,,,,,,,,,,1,,,,,,,,,,,,,,,,,,,,,,,,,,,,,,,,,,,,,,,,,,,,,,116,148816,21,Male,1,2024/03/22_14:26:43,YZ,None,
,,,,,,test,1,4,3,500,14,F,1,left,0.6426001630024984,1,0,,,,,,,,,,,,,,,,,,,,,1,,,,,,,,,,,,,,,,,,,,,,,,,,,,,,,,,,,,,,,,,,,,,,116,148816,21,Male,1,2024/03/22_14:26:43,YZ,None,
,,,,,,test,1,4,3,500,15,Q,0,left,0.7418617250077659,0,0,,,,,,,,,,,,,,,,,,,,,1,,,,,,,,,,,,,,,,,,,,,,,,,,,,,,,,,,,,,,,,,,,,,,116,148816,21,Male,1,2024/03/22_14:26:43,YZ,None,
,,,,,,test,1,4,3,500,16,F,1,left,0.6913694079994457,1,0,,,,,,,,,,,,,,,,,,,,,1,,,,,,,,,,,,,,,,,,,,,,,,,,,,,,,,,,,,,,,,,,,,,,116,148816,21,Male,1,2024/03/22_14:26:43,YZ,None,
,,,,,,Test,1,4,3,500,,,,,,,,0.7863636363636364,0.8,0.36363636363636365,0.6363636363636364,0.0,0.6363636363636364,0.7141070596253485,4,4,0,0,0,7,11,5,11,0,,,,1,,,,,,,,,,,,,,,,,,,,,,,,,,,,,,,,,,,,,,,,,,,,,,116,148816,21,Male,1,2024/03/22_14:26:43,YZ,None,
,,,,,240322_150029,TEST,1,4,3,500,,,,,,,,,,,,,,,,,,,,,,,,,,,,1,4,4,4,cue1.png,hard,B,100,1.0383658210048452,0,925.543453612001,926.5989105629997,,,,,,,,,,,,,,,,,,,,,,,,,,,,,,,,,,,116,148816,21,Male,1,2024/03/22_14:26:43,YZ,None,
,,,,,,test,1,5,1,500,1,S,0,right,0.3436178920092061,1,0,,,,,,,,,,,,,,,,,,,,,1,,,,,,,,,,,,,,,,,,,,,,,,,,,,,,,,,,,,,,,,,,,,,,116,148816,21,Male,1,2024/03/22_14:26:43,YZ,None,
,,,,,,test,1,5,1,500,2,S,1,right,0.33016014100576285,0,0,,,,,,,,,,,,,,,,,,,,,1,,,,,,,,,,,,,,,,,,,,,,,,,,,,,,,,,,,,,,,,,,,,,,116,148816,21,Male,1,2024/03/22_14:26:43,YZ,None,
,,,,,,test,1,5,1,500,3,V,0,right,0.4894119410018902,1,0,,,,,,,,,,,,,,,,,,,,,1,,,,,,,,,,,,,,,,,,,,,,,,,,,,,,,,,,,,,,,,,,,,,,116,148816,21,Male,1,2024/03/22_14:26:43,YZ,None,
,,,,,,test,1,5,1,500,4,X,0,right,0.4599080759944627,1,0,,,,,,,,,,,,,,,,,,,,,1,,,,,,,,,,,,,,,,,,,,,,,,,,,,,,,,,,,,,,,,,,,,,,116,148816,21,Male,1,2024/03/22_14:26:43,YZ,None,
,,,,,,test,1,5,1,500,5,V,0,right,0.5006340019899653,1,0,,,,,,,,,,,,,,,,,,,,,1,,,,,,,,,,,,,,,,,,,,,,,,,,,,,,,,,,,,,,,,,,,,,,116,148816,21,Male,1,2024/03/22_14:26:43,YZ,None,
,,,,,,test,1,5,1,500,6,V,1,right,0.29331934299261775,0,0,,,,,,,,,,,,,,,,,,,,,1,,,,,,,,,,,,,,,,,,,,,,,,,,,,,,,,,,,,,,,,,,,,,,116,148816,21,Male,1,2024/03/22_14:26:43,YZ,None,
,,,,,,test,1,5,1,500,7,C,0,right,0.33773503299744334,1,0,,,,,,,,,,,,,,,,,,,,,1,,,,,,,,,,,,,,,,,,,,,,,,,,,,,,,,,,,,,,,,,,,,,,116,148816,21,Male,1,2024/03/22_14:26:43,YZ,None,
,,,,,,test,1,5,1,500,8,J,0,right,0.3684724909981014,1,0,,,,,,,,,,,,,,,,,,,,,1,,,,,,,,,,,,,,,,,,,,,,,,,,,,,,,,,,,,,,,,,,,,,,116,148816,21,Male,1,2024/03/22_14:26:43,YZ,None,
,,,,,,test,1,5,1,500,9,J,1,right,0.3440935850085225,0,0,,,,,,,,,,,,,,,,,,,,,1,,,,,,,,,,,,,,,,,,,,,,,,,,,,,,,,,,,,,,,,,,,,,,116,148816,21,Male,1,2024/03/22_14:26:43,YZ,None,
,,,,,,test,1,5,1,500,10,C,0,right,0.45658848799939733,1,0,,,,,,,,,,,,,,,,,,,,,1,,,,,,,,,,,,,,,,,,,,,,,,,,,,,,,,,,,,,,,,,,,,,,116,148816,21,Male,1,2024/03/22_14:26:43,YZ,None,
,,,,,,test,1,5,1,500,11,C,1,left,0.3363762809894979,1,0,,,,,,,,,,,,,,,,,,,,,1,,,,,,,,,,,,,,,,,,,,,,,,,,,,,,,,,,,,,,,,,,,,,,116,148816,21,Male,1,2024/03/22_14:26:43,YZ,None,
,,,,,,test,1,5,1,500,12,N,0,right,0.3353295020060614,1,0,,,,,,,,,,,,,,,,,,,,,1,,,,,,,,,,,,,,,,,,,,,,,,,,,,,,,,,,,,,,,,,,,,,,116,148816,21,Male,1,2024/03/22_14:26:43,YZ,None,
,,,,,,test,1,5,1,500,13,J,0,right,0.5583036120078759,1,0,,,,,,,,,,,,,,,,,,,,,1,,,,,,,,,,,,,,,,,,,,,,,,,,,,,,,,,,,,,,,,,,,,,,116,148816,21,Male,1,2024/03/22_14:26:43,YZ,None,
,,,,,,test,1,5,1,500,14,Q,0,right,0.8313965909910621,1,0,,,,,,,,,,,,,,,,,,,,,1,,,,,,,,,,,,,,,,,,,,,,,,,,,,,,,,,,,,,,,,,,,,,,116,148816,21,Male,1,2024/03/22_14:26:43,YZ,None,
,,,,,,test,1,5,1,500,15,S,0,right,0.7428140549891395,1,0,,,,,,,,,,,,,,,,,,,,,1,,,,,,,,,,,,,,,,,,,,,,,,,,,,,,,,,,,,,,,,,,,,,,116,148816,21,Male,1,2024/03/22_14:26:43,YZ,None,
,,,,,,test,1,5,1,500,16,N,0,right,0.7345861999929184,1,0,,,,,,,,,,,,,,,,,,,,,1,,,,,,,,,,,,,,,,,,,,,,,,,,,,,,,,,,,,,,,,,,,,,,116,148816,21,Male,1,2024/03/22_14:26:43,YZ,None,
,,,,,,Test,1,5,1,500,,,,,,,,0.8125,0.25,0.0,1.0,0.0,1.0,0.4664217020608703,1,0,0,0,0,12,13,4,12,0,,,,1,,,,,,,,,,,,,,,,,,,,,,,,,,,,,,,,,,,,,,,,,,,,,,116,148816,21,Male,1,2024/03/22_14:26:43,YZ,None,
,,,,,240322_150103,TEST,1,5,1,500,,,,,,,,,,,,,,,,,,,,,,,,,,,,1,5,6,5,cue2.png,easy,B,91,0.6783157210011268,0,963.6867526099959,964.3786614669953,,,,,,,,,,,,,,,,,,,,,,,,,,,,,,,,,,,116,148816,21,Male,1,2024/03/22_14:26:43,YZ,None,
,,,,,,test,1,6,3,500,1,C,0,right,0.7816107980033848,1,0,,,,,,,,,,,,,,,,,,,,,1,,,,,,,,,,,,,,,,,,,,,,,,,,,,,,,,,,,,,,,,,,,,,,116,148816,21,Male,1,2024/03/22_14:26:43,YZ,None,
,,,,,,test,1,6,3,500,2,J,0,right,0.7580612379970262,1,0,,,,,,,,,,,,,,,,,,,,,1,,,,,,,,,,,,,,,,,,,,,,,,,,,,,,,,,,,,,,,,,,,,,,116,148816,21,Male,1,2024/03/22_14:26:43,YZ,None,
