Instruction,Stimulus,Key,RT,START,END,Phase,Block,TrialN,NbackLevel,ISI,LetterN,Letter,Letter_isSame,Letter_Resp,Letter_RT,Letter_Accuracy,Letter_Timeout,Trial_A_measure,Trial_HR,Trial_FAR,Trial_CDR,Trial_MSR,Trial_ACC,Trial_RT,Trial_HitsCount,Trial_FAsCount,Trial_SameNoRespCount,Trial_DiffNoRespCount,Trial_NoRespCount,Trial_CDsCount,Trial_CorrectRespCount,Trial_SameLetterCount,Trial_DiffLetterCount,Trial_InvalidLetterCount,TrialCountCali,CaliEnd_A_measure,ISI_calibrated,Run,TrialIndex,TrialNumber_total,TrialNumber_valid,CueLearning,TrialDemandLearning,CueMapping,OnlineRating,OnlineRatingRT,OnlineRatingTimeOut,CueSTART,RatingSTART,OfflineRatingTimePoint,OfflineRatingQuesIndex,CueFigure,TrialDemand,OfflineRating,OfflineRatingRT,CueStart,OfflineRatingStart,PhaseType,CueLeft,CueDemandLeft,CueRight,CueDemandRight,Choice,ChoiceDemand,TaskDemand,ChoiceRT,ChoiceTimeOut,ChoiceSTART,CueCheck,CueDemandCheck,CorrectAnswer,Answer,AnswerDemand,AnswerRT,AnswerACC,AnswerTimeOut,CheckSTART,DemandRatingQuesIndex,QuesTLX,DemandLevel,DemandRating,DemandRatingRT,QuesStart,PID,SONA,Age,Gender,Run,TIME,EXPERIMENTER,frameRate,
1,./instructions/inst_begin/Slide2.png,right,26.27677382499678,0.11219760202220641,26.388971427018987,,,,,,,,,,,,,,,,,,,,,,,,,,,,,,,,,1,,,,,,,,,,,,,,,,,,,,,,,,,,,,,,,,,,,,,,,,,,,,,,77,153187,23,Female,1,2024/02/22_15:33:46,YZ,None,
2,./instructions/inst_begin/Slide3.png,right,13.85116077301791,26.417711715999758,40.26887248901767,,,,,,,,,,,,,,,,,,,,,,,,,,,,,,,,,1,,,,,,,,,,,,,,,,,,,,,,,,,,,,,,,,,,,,,,,,,,,,,,77,153187,23,Female,1,2024/02/22_15:33:46,YZ,None,
3,./instructions/inst_begin/Slide4.png,right,14.517130260006525,40.29582213901449,54.812952399021015,,,,,,,,,,,,,,,,,,,,,,,,,,,,,,,,,1,,,,,,,,,,,,,,,,,,,,,,,,,,,,,,,,,,,,,,,,,,,,,,77,153187,23,Female,1,2024/02/22_15:33:46,YZ,None,
1,./instructions/inst_prac_2/Slide6.png,right,21.377756207017228,54.85127709500375,76.22903330202098,,,,,,,,,,,,,,,,,,,,,,,,,,,,,,,,,1,,,,,,,,,,,,,,,,,,,,,,,,,,,,,,,,,,,,,,,,,,,,,,77,153187,23,Female,1,2024/02/22_15:33:46,YZ,None,
2,./instructions/inst_prac_2/Slide7.png,right,28.73302767801215,76.2557762080105,104.98880388602265,,,,,,,,,,,,,,,,,,,,,,,,,,,,,,,,,1,,,,,,,,,,,,,,,,,,,,,,,,,,,,,,,,,,,,,,,,,,,,,,77,153187,23,Female,1,2024/02/22_15:33:46,YZ,None,
3,./instructions/inst_prac_2/Slide8.png,right,21.43440978799481,105.0184203350218,126.45283012301661,,,,,,,,,,,,,,,,,,,,,,,,,,,,,,,,,1,,,,,,,,,,,,,,,,,,,,,,,,,,,,,,,,,,,,,,,,,,,,,,77,153187,23,Female,1,2024/02/22_15:33:46,YZ,None,
4,./instructions/inst_prac_2/Slide9.png,right,17.50680562100024,126.4821421430097,143.98894776400994,,,,,,,,,,,,,,,,,,,,,,,,,,,,,,,,,1,,,,,,,,,,,,,,,,,,,,,,,,,,,,,,,,,,,,,,,,,,,,,,77,153187,23,Female,1,2024/02/22_15:33:46,YZ,None,
5,./instructions/inst_prac_2/Slide10.png,right,7.018681568995817,144.01844443401205,151.03712600300787,,,,,,,,,,,,,,,,,,,,,,,,,,,,,,,,,1,,,,,,,,,,,,,,,,,,,,,,,,,,,,,,,,,,,,,,,,,,,,,,77,153187,23,Female,1,2024/02/22_15:33:46,YZ,None,
6,./instructions/inst_prac_2/Slide11.png,right,6.736677637993125,151.06826430701767,157.8049419450108,,,,,,,,,,,,,,,,,,,,,,,,,,,,,,,,,1,,,,,,,,,,,,,,,,,,,,,,,,,,,,,,,,,,,,,,,,,,,,,,77,153187,23,Female,1,2024/02/22_15:33:46,YZ,None,
7,./instructions/inst_prac_2/Slide12.png,right,3.4694029910024256,157.83140799801913,161.30081098902156,,,,,,,,,,,,,,,,,,,,,,,,,,,,,,,,,1,,,,,,,,,,,,,,,,,,,,,,,,,,,,,,,,,,,,,,,,,,,,,,77,153187,23,Female,1,2024/02/22_15:33:46,YZ,None,
8,./instructions/inst_prac_2/Slide13.png,right,4.5616973339929245,161.32315477501834,165.88485210901126,,,,,,,,,,,,,,,,,,,,,,,,,,,,,,,,,1,,,,,,,,,,,,,,,,,,,,,,,,,,,,,,,,,,,,,,,,,,,,,,77,153187,23,Female,1,2024/02/22_15:33:46,YZ,None,
9,./instructions/inst_prac_2/Slide14.png,right,16.49101080998662,165.91399956602254,182.40501037600916,,,,,,,,,,,,,,,,,,,,,,,,,,,,,,,,,1,,,,,,,,,,,,,,,,,,,,,,,,,,,,,,,,,,,,,,,,,,,,,,77,153187,23,Female,1,2024/02/22_15:33:46,YZ,None,
10,./instructions/inst_prac_2/Slide15.png,right,25.643970835983055,182.43294386501657,208.07691470099962,,,,,,,,,,,,,,,,,,,,,,,,,,,,,,,,,1,,,,,,,,,,,,,,,,,,,,,,,,,,,,,,,,,,,,,,,,,,,,,,77,153187,23,Female,1,2024/02/22_15:33:46,YZ,None,
,,,,,,practice,0,29,2,2583,1,F,0,right,4.729170852981042,1,0,,,,,,,,,,,,,,,,,,,,,1,,,,,,,,,,,,,,,,,,,,,,,,,,,,,,,,,,,,,,,,,,,,,,77,153187,23,Female,1,2024/02/22_15:33:46,YZ,None,
,,,,,,practice,0,29,2,2583,2,J,0,right,3.338107321993448,1,0,,,,,,,,,,,,,,,,,,,,,1,,,,,,,,,,,,,,,,,,,,,,,,,,,,,,,,,,,,,,,,,,,,,,77,153187,23,Female,1,2024/02/22_15:33:46,YZ,None,
,,,,,,practice,0,29,2,2583,3,N,0,right,2.475913642992964,1,0,,,,,,,,,,,,,,,,,,,,,1,,,,,,,,,,,,,,,,,,,,,,,,,,,,,,,,,,,,,,,,,,,,,,77,153187,23,Female,1,2024/02/22_15:33:46,YZ,None,
,,,,,,practice,0,29,2,2583,4,J,1,left,1.1143195980112068,1,0,,,,,,,,,,,,,,,,,,,,,1,,,,,,,,,,,,,,,,,,,,,,,,,,,,,,,,,,,,,,,,,,,,,,77,153187,23,Female,1,2024/02/22_15:33:46,YZ,None,
,,,,,,practice,0,29,2,2583,5,F,0,right,1.0026235200057272,1,0,,,,,,,,,,,,,,,,,,,,,1,,,,,,,,,,,,,,,,,,,,,,,,,,,,,,,,,,,,,,,,,,,,,,77,153187,23,Female,1,2024/02/22_15:33:46,YZ,None,
,,,,,,practice,0,29,2,2583,6,J,1,left,1.2066833009885158,1,0,,,,,,,,,,,,,,,,,,,,,1,,,,,,,,,,,,,,,,,,,,,,,,,,,,,,,,,,,,,,,,,,,,,,77,153187,23,Female,1,2024/02/22_15:33:46,YZ,None,
,,,,,,practice,0,29,2,2583,,,,,,,,1.0,1.0,0.0,1.0,0.0,1.0,2.3111363728288175,2,0,0,0,0,4,6,2,4,0,,,,1,,,,,,,,,,,,,,,,,,,,,,,,,,,,,,,,,,,,,,,,,,,,,,77,153187,23,Female,1,2024/02/22_15:33:46,YZ,None,
1,./instructions/inst_to_cali/Slide20.png,right,14.0205103730259,228.2802863830002,242.3007967560261,,,,,,,,,,,,,,,,,,,,,,,,,,,,,,,,,1,,,,,,,,,,,,,,,,,,,,,,,,,,,,,,,,,,,,,,,,,,,,,,77,153187,23,Female,1,2024/02/22_15:33:46,YZ,None,
1,./instructions/inst_cali/Slide22.png,right,24.08647693399689,242.33447036100551,266.4209472950024,,,,,,,,,,,,,,,,,,,,,,,,,,,,,,,,,1,,,,,,,,,,,,,,,,,,,,,,,,,,,,,,,,,,,,,,,,,,,,,,77,153187,23,Female,1,2024/02/22_15:33:46,YZ,None,
,,,,,,calibration,0,6,2,583,1,J,0,right,1.5255626040161587,1,0,,,,,,,,,,,,,,,,,,,,,1,,,,,,,,,,,,,,,,,,,,,,,,,,,,,,,,,,,,,,,,,,,,,,77,153187,23,Female,1,2024/02/22_15:33:46,YZ,None,
,,,,,,calibration,0,6,2,583,2,S,0,right,1.3246090530010406,1,0,,,,,,,,,,,,,,,,,,,,,1,,,,,,,,,,,,,,,,,,,,,,,,,,,,,,,,,,,,,,,,,,,,,,77,153187,23,Female,1,2024/02/22_15:33:46,YZ,None,
,,,,,,calibration,0,6,2,583,3,C,0,right,0.9413618300168309,1,0,,,,,,,,,,,,,,,,,,,,,1,,,,,,,,,,,,,,,,,,,,,,,,,,,,,,,,,,,,,,,,,,,,,,77,153187,23,Female,1,2024/02/22_15:33:46,YZ,None,
,,,,,,calibration,0,6,2,583,4,J,0,right,nan,0,1,,,,,,,,,,,,,,,,,,,,,1,,,,,,,,,,,,,,,,,,,,,,,,,,,,,,,,,,,,,,,,,,,,,,77,153187,23,Female,1,2024/02/22_15:33:46,YZ,None,
,,,,,,calibration,0,6,2,583,5,N,0,right,0.0,1,0,,,,,,,,,,,,,,,,,,,,,1,,,,,,,,,,,,,,,,,,,,,,,,,,,,,,,,,,,,,,,,,,,,,,77,153187,23,Female,1,2024/02/22_15:33:46,YZ,None,
,,,,,,calibration,0,6,2,583,6,J,1,right,nan,0,1,,,,,,,,,,,,,,,,,,,,,1,,,,,,,,,,,,,,,,,,,,,,,,,,,,,,,,,,,,,,,,,,,,,,77,153187,23,Female,1,2024/02/22_15:33:46,YZ,None,
,,,,,,calibration,0,6,2,583,7,N,1,left,0.8117197569808923,1,0,,,,,,,,,,,,,,,,,,,,,1,,,,,,,,,,,,,,,,,,,,,,,,,,,,,,,,,,,,,,,,,,,,,,77,153187,23,Female,1,2024/02/22_15:33:46,YZ,None,
,,,,,,calibration,0,6,2,583,8,V,0,right,0.5963196869997773,1,0,,,,,,,,,,,,,,,,,,,,,1,,,,,,,,,,,,,,,,,,,,,,,,,,,,,,,,,,,,,,,,,,,,,,77,153187,23,Female,1,2024/02/22_15:33:46,YZ,None,
,,,,,,calibration,0,6,2,583,9,N,1,left,0.9578075349854771,1,0,,,,,,,,,,,,,,,,,,,,,1,,,,,,,,,,,,,,,,,,,,,,,,,,,,,,,,,,,,,,,,,,,,,,77,153187,23,Female,1,2024/02/22_15:33:46,YZ,None,
,,,,,,calibration,0,6,2,583,10,F,0,right,0.5123527679825202,1,0,,,,,,,,,,,,,,,,,,,,,1,,,,,,,,,,,,,,,,,,,,,,,,,,,,,,,,,,,,,,,,,,,,,,77,153187,23,Female,1,2024/02/22_15:33:46,YZ,None,
,,,,,,calibration,0,6,2,583,11,X,0,right,1.0095183350204024,1,0,,,,,,,,,,,,,,,,,,,,,1,,,,,,,,,,,,,,,,,,,,,,,,,,,,,,,,,,,,,,,,,,,,,,77,153187,23,Female,1,2024/02/22_15:33:46,YZ,None,
,,,,,,calibration,0,6,2,583,12,J,0,left,0.6040919180086348,0,0,,,,,,,,,,,,,,,,,,,,,1,,,,,,,,,,,,,,,,,,,,,,,,,,,,,,,,,,,,,,,,,,,,,,77,153187,23,Female,1,2024/02/22_15:33:46,YZ,None,
,,,,,,calibration,0,6,2,583,13,X,1,right,0.49586300301598385,0,0,,,,,,,,,,,,,,,,,,,,,1,,,,,,,,,,,,,,,,,,,,,,,,,,,,,,,,,,,,,,,,,,,,,,77,153187,23,Female,1,2024/02/22_15:33:46,YZ,None,
,,,,,,calibration,0,6,2,583,14,J,1,right,0.6629302259825636,0,0,,,,,,,,,,,,,,,,,,,,,1,,,,,,,,,,,,,,,,,,,,,,,,,,,,,,,,,,,,,,,,,,,,,,77,153187,23,Female,1,2024/02/22_15:33:46,YZ,None,
,,,,,,calibration,0,6,2,583,15,Q,0,right,0.5773756350099575,1,0,,,,,,,,,,,,,,,,,,,,,1,,,,,,,,,,,,,,,,,,,,,,,,,,,,,,,,,,,,,,,,,,,,,,77,153187,23,Female,1,2024/02/22_15:33:46,YZ,None,
,,,,,,calibration,0,6,2,583,,,,,,,,0.7625,0.4,0.1,0.8888888888888888,0.13333333333333333,0.7666666666666667,0.7707317193092492,2,1,1,1,2,8,10,5,10,0,,,,1,,,,,,,,,,,,,,,,,,,,,,,,,,,,,,,,,,,,,,,,,,,,,,77,153187,23,Female,1,2024/02/22_15:33:46,YZ,None,
,,,,,,Calibration,0,,2,583,,,,,,,,,,,,,,,,,,,,,,,,,1,,,1,,,,,,,,,,,,,,,,,,,,,,,,,,,,,,,,,,,,,,,,,,,,,,77,153187,23,Female,1,2024/02/22_15:33:46,YZ,None,
,,,,,,calibration,0,21,2,583,1,X,0,None,nan,0,1,,,,,,,,,,,,,,,,,,,,,1,,,,,,,,,,,,,,,,,,,,,,,,,,,,,,,,,,,,,,,,,,,,,,77,153187,23,Female,1,2024/02/22_15:33:46,YZ,None,
,,,,,,calibration,0,21,2,583,2,J,0,right,0.8232115750142839,1,0,,,,,,,,,,,,,,,,,,,,,1,,,,,,,,,,,,,,,,,,,,,,,,,,,,,,,,,,,,,,,,,,,,,,77,153187,23,Female,1,2024/02/22_15:33:46,YZ,None,
,,,,,,calibration,0,21,2,583,3,X,1,left,0.7228678870014846,1,0,,,,,,,,,,,,,,,,,,,,,1,,,,,,,,,,,,,,,,,,,,,,,,,,,,,,,,,,,,,,,,,,,,,,77,153187,23,Female,1,2024/02/22_15:33:46,YZ,None,
,,,,,,calibration,0,21,2,583,4,C,0,right,0.4090820830024313,1,0,,,,,,,,,,,,,,,,,,,,,1,,,,,,,,,,,,,,,,,,,,,,,,,,,,,,,,,,,,,,,,,,,,,,77,153187,23,Female,1,2024/02/22_15:33:46,YZ,None,
,,,,,,calibration,0,21,2,583,5,F,0,left,0.6432321020110976,0,0,,,,,,,,,,,,,,,,,,,,,1,,,,,,,,,,,,,,,,,,,,,,,,,,,,,,,,,,,,,,,,,,,,,,77,153187,23,Female,1,2024/02/22_15:33:46,YZ,None,
,,,,,,calibration,0,21,2,583,6,N,0,right,0.3284242310037371,1,0,,,,,,,,,,,,,,,,,,,,,1,,,,,,,,,,,,,,,,,,,,,,,,,,,,,,,,,,,,,,,,,,,,,,77,153187,23,Female,1,2024/02/22_15:33:46,YZ,None,
,,,,,,calibration,0,21,2,583,7,F,1,left,0.6152255710039753,1,0,,,,,,,,,,,,,,,,,,,,,1,,,,,,,,,,,,,,,,,,,,,,,,,,,,,,,,,,,,,,,,,,,,,,77,153187,23,Female,1,2024/02/22_15:33:46,YZ,None,
,,,,,,calibration,0,21,2,583,8,N,1,right,0.38614764699013904,0,0,,,,,,,,,,,,,,,,,,,,,1,,,,,,,,,,,,,,,,,,,,,,,,,,,,,,,,,,,,,,,,,,,,,,77,153187,23,Female,1,2024/02/22_15:33:46,YZ,None,
,,,,,,calibration,0,21,2,583,9,C,0,right,0.43974683998385444,1,0,,,,,,,,,,,,,,,,,,,,,1,,,,,,,,,,,,,,,,,,,,,,,,,,,,,,,,,,,,,,,,,,,,,,77,153187,23,Female,1,2024/02/22_15:33:46,YZ,None,
,,,,,,calibration,0,21,2,583,10,J,0,left,0.6771333490032703,0,0,,,,,,,,,,,,,,,,,,,,,1,,,,,,,,,,,,,,,,,,,,,,,,,,,,,,,,,,,,,,,,,,,,,,77,153187,23,Female,1,2024/02/22_15:33:46,YZ,None,
,,,,,,calibration,0,21,2,583,11,Q,0,right,0.4974353459838312,1,0,,,,,,,,,,,,,,,,,,,,,1,,,,,,,,,,,,,,,,,,,,,,,,,,,,,,,,,,,,,,,,,,,,,,77,153187,23,Female,1,2024/02/22_15:33:46,YZ,None,
,,,,,,calibration,0,21,2,583,12,J,1,right,0.6120053170016035,0,0,,,,,,,,,,,,,,,,,,,,,1,,,,,,,,,,,,,,,,,,,,,,,,,,,,,,,,,,,,,,,,,,,,,,77,153187,23,Female,1,2024/02/22_15:33:46,YZ,None,
,,,,,,calibration,0,21,2,583,13,V,0,right,0.5575231760158204,1,0,,,,,,,,,,,,,,,,,,,,,1,,,,,,,,,,,,,,,,,,,,,,,,,,,,,,,,,,,,,,,,,,,,,,77,153187,23,Female,1,2024/02/22_15:33:46,YZ,None,
,,,,,,calibration,0,21,2,583,14,N,0,left,0.7555412960064132,0,0,,,,,,,,,,,,,,,,,,,,,1,,,,,,,,,,,,,,,,,,,,,,,,,,,,,,,,,,,,,,,,,,,,,,77,153187,23,Female,1,2024/02/22_15:33:46,YZ,None,
,,,,,,calibration,0,21,2,583,15,S,0,right,0.3228358209889848,1,0,,,,,,,,,,,,,,,,,,,,,1,,,,,,,,,,,,,,,,,,,,,,,,,,,,,,,,,,,,,,,,,,,,,,77,153187,23,Female,1,2024/02/22_15:33:46,YZ,None,
,,,,,,calibration,0,21,2,583,,,,,,,,0.6704545454545455,0.5,0.2727272727272727,0.7,0.06666666666666667,0.6606060606060606,0.5564580172150662,2,3,0,1,1,7,9,4,11,0,,,,1,,,,,,,,,,,,,,,,,,,,,,,,,,,,,,,,,,,,,,,,,,,,,,77,153187,23,Female,1,2024/02/22_15:33:46,YZ,None,
,,,,,,Calibration,0,,2,583,,,,,,,,,,,,,,,,,,,,,,,,,2,,,1,,,,,,,,,,,,,,,,,,,,,,,,,,,,,,,,,,,,,,,,,,,,,,77,153187,23,Female,1,2024/02/22_15:33:46,YZ,None,
,,,,,,calibration,0,24,2,679,1,X,0,right,1.4813807579921558,1,0,,,,,,,,,,,,,,,,,,,,,1,,,,,,,,,,,,,,,,,,,,,,,,,,,,,,,,,,,,,,,,,,,,,,77,153187,23,Female,1,2024/02/22_15:33:46,YZ,None,
,,,,,,calibration,0,24,2,679,2,S,0,right,0.761798693012679,1,0,,,,,,,,,,,,,,,,,,,,,1,,,,,,,,,,,,,,,,,,,,,,,,,,,,,,,,,,,,,,,,,,,,,,77,153187,23,Female,1,2024/02/22_15:33:46,YZ,None,
,,,,,,calibration,0,24,2,679,3,X,1,left,0.42993858401314355,1,0,,,,,,,,,,,,,,,,,,,,,1,,,,,,,,,,,,,,,,,,,,,,,,,,,,,,,,,,,,,,,,,,,,,,77,153187,23,Female,1,2024/02/22_15:33:46,YZ,None,
,,,,,,calibration,0,24,2,679,4,F,0,right,0.680570391996298,1,0,,,,,,,,,,,,,,,,,,,,,1,,,,,,,,,,,,,,,,,,,,,,,,,,,,,,,,,,,,,,,,,,,,,,77,153187,23,Female,1,2024/02/22_15:33:46,YZ,None,
,,,,,,calibration,0,24,2,679,5,J,0,left,0.5484048240177799,0,0,,,,,,,,,,,,,,,,,,,,,1,,,,,,,,,,,,,,,,,,,,,,,,,,,,,,,,,,,,,,,,,,,,,,77,153187,23,Female,1,2024/02/22_15:33:46,YZ,None,
,,,,,,calibration,0,24,2,679,6,C,0,left,1.1913762080075685,0,0,,,,,,,,,,,,,,,,,,,,,1,,,,,,,,,,,,,,,,,,,,,,,,,,,,,,,,,,,,,,,,,,,,,,77,153187,23,Female,1,2024/02/22_15:33:46,YZ,None,
,,,,,,calibration,0,24,2,679,7,X,0,right,1.9333171549951658,1,0,,,,,,,,,,,,,,,,,,,,,1,,,,,,,,,,,,,,,,,,,,,,,,,,,,,,,,,,,,,,,,,,,,,,77,153187,23,Female,1,2024/02/22_15:33:46,YZ,None,
,,,,,,calibration,0,24,2,679,8,C,1,right,0.6577550359943416,0,0,,,,,,,,,,,,,,,,,,,,,1,,,,,,,,,,,,,,,,,,,,,,,,,,,,,,,,,,,,,,,,,,,,,,77,153187,23,Female,1,2024/02/22_15:33:46,YZ,None,
,,,,,,calibration,0,24,2,679,9,Q,0,right,0.6733943009749055,1,0,,,,,,,,,,,,,,,,,,,,,1,,,,,,,,,,,,,,,,,,,,,,,,,,,,,,,,,,,,,,,,,,,,,,77,153187,23,Female,1,2024/02/22_15:33:46,YZ,None,
,,,,,,calibration,0,24,2,679,10,C,1,left,0.45937292999587953,1,0,,,,,,,,,,,,,,,,,,,,,1,,,,,,,,,,,,,,,,,,,,,,,,,,,,,,,,,,,,,,,,,,,,,,77,153187,23,Female,1,2024/02/22_15:33:46,YZ,None,
,,,,,,calibration,0,24,2,679,11,V,0,right,0.51209172399831,1,0,,,,,,,,,,,,,,,,,,,,,1,,,,,,,,,,,,,,,,,,,,,,,,,,,,,,,,,,,,,,,,,,,,,,77,153187,23,Female,1,2024/02/22_15:33:46,YZ,None,
,,,,,,calibration,0,24,2,679,12,X,0,right,0.5240009409899358,1,0,,,,,,,,,,,,,,,,,,,,,1,,,,,,,,,,,,,,,,,,,,,,,,,,,,,,,,,,,,,,,,,,,,,,77,153187,23,Female,1,2024/02/22_15:33:46,YZ,None,
,,,,,,calibration,0,24,2,679,13,S,0,left,0.6438130100141279,0,0,,,,,,,,,,,,,,,,,,,,,1,,,,,,,,,,,,,,,,,,,,,,,,,,,,,,,,,,,,,,,,,,,,,,77,153187,23,Female,1,2024/02/22_15:33:46,YZ,None,
,,,,,,calibration,0,24,2,679,14,X,1,right,0.21277216100133955,0,0,,,,,,,,,,,,,,,,,,,,,1,,,,,,,,,,,,,,,,,,,,,,,,,,,,,,,,,,,,,,,,,,,,,,77,153187,23,Female,1,2024/02/22_15:33:46,YZ,None,
,,,,,,calibration,0,24,2,679,,,,,,,,0.65,0.5,0.3,0.7,0.0,0.7,0.764999051214545,2,3,0,0,0,7,9,4,10,0,,,,1,,,,,,,,,,,,,,,,,,,,,,,,,,,,,,,,,,,,,,,,,,,,,,77,153187,23,Female,1,2024/02/22_15:33:46,YZ,None,
,,,,,,Calibration,0,,2,679,,,,,,,,,,,,,,,,,,,,,,,,,3,,,1,,,,,,,,,,,,,,,,,,,,,,,,,,,,,,,,,,,,,,,,,,,,,,77,153187,23,Female,1,2024/02/22_15:33:46,YZ,None,
,,,,,,calibration,0,23,2,788,1,J,0,left,0.843152582005132,0,0,,,,,,,,,,,,,,,,,,,,,1,,,,,,,,,,,,,,,,,,,,,,,,,,,,,,,,,,,,,,,,,,,,,,77,153187,23,Female,1,2024/02/22_15:33:46,YZ,None,
,,,,,,calibration,0,23,2,788,2,S,0,right,0.4567163430037908,1,0,,,,,,,,,,,,,,,,,,,,,1,,,,,,,,,,,,,,,,,,,,,,,,,,,,,,,,,,,,,,,,,,,,,,77,153187,23,Female,1,2024/02/22_15:33:46,YZ,None,
,,,,,,calibration,0,23,2,788,3,J,1,left,0.451818301982712,1,0,,,,,,,,,,,,,,,,,,,,,1,,,,,,,,,,,,,,,,,,,,,,,,,,,,,,,,,,,,,,,,,,,,,,77,153187,23,Female,1,2024/02/22_15:33:46,YZ,None,
,,,,,,calibration,0,23,2,788,4,N,0,right,0.3839505240030121,1,0,,,,,,,,,,,,,,,,,,,,,1,,,,,,,,,,,,,,,,,,,,,,,,,,,,,,,,,,,,,,,,,,,,,,77,153187,23,Female,1,2024/02/22_15:33:46,YZ,None,
,,,,,,calibration,0,23,2,788,5,V,0,right,0.8306279130047187,1,0,,,,,,,,,,,,,,,,,,,,,1,,,,,,,,,,,,,,,,,,,,,,,,,,,,,,,,,,,,,,,,,,,,,,77,153187,23,Female,1,2024/02/22_15:33:46,YZ,None,
,,,,,,calibration,0,23,2,788,6,C,0,right,0.5748252780176699,1,0,,,,,,,,,,,,,,,,,,,,,1,,,,,,,,,,,,,,,,,,,,,,,,,,,,,,,,,,,,,,,,,,,,,,77,153187,23,Female,1,2024/02/22_15:33:46,YZ,None,
,,,,,,calibration,0,23,2,788,7,V,1,right,nan,0,1,,,,,,,,,,,,,,,,,,,,,1,,,,,,,,,,,,,,,,,,,,,,,,,,,,,,,,,,,,,,,,,,,,,,77,153187,23,Female,1,2024/02/22_15:33:46,YZ,None,
,,,,,,calibration,0,23,2,788,8,N,0,right,0.44282364600803703,1,0,,,,,,,,,,,,,,,,,,,,,1,,,,,,,,,,,,,,,,,,,,,,,,,,,,,,,,,,,,,,,,,,,,,,77,153187,23,Female,1,2024/02/22_15:33:46,YZ,None,
,,,,,,calibration,0,23,2,788,9,V,1,left,0.5749630490026902,1,0,,,,,,,,,,,,,,,,,,,,,1,,,,,,,,,,,,,,,,,,,,,,,,,,,,,,,,,,,,,,,,,,,,,,77,153187,23,Female,1,2024/02/22_15:33:46,YZ,None,
,,,,,,calibration,0,23,2,788,10,S,0,left,nan,0,1,,,,,,,,,,,,,,,,,,,,,1,,,,,,,,,,,,,,,,,,,,,,,,,,,,,,,,,,,,,,,,,,,,,,77,153187,23,Female,1,2024/02/22_15:33:46,YZ,None,
,,,,,,calibration,0,23,2,788,11,V,1,right,0.4792455570132006,0,0,,,,,,,,,,,,,,,,,,,,,1,,,,,,,,,,,,,,,,,,,,,,,,,,,,,,,,,,,,,,,,,,,,,,77,153187,23,Female,1,2024/02/22_15:33:46,YZ,None,
,,,,,,calibration,0,23,2,788,12,X,0,right,0.9134314449911471,1,0,,,,,,,,,,,,,,,,,,,,,1,,,,,,,,,,,,,,,,,,,,,,,,,,,,,,,,,,,,,,,,,,,,,,77,153187,23,Female,1,2024/02/22_15:33:46,YZ,None,
,,,,,,calibration,0,23,2,788,13,C,0,right,0.5119006099994294,1,0,,,,,,,,,,,,,,,,,,,,,1,,,,,,,,,,,,,,,,,,,,,,,,,,,,,,,,,,,,,,,,,,,,,,77,153187,23,Female,1,2024/02/22_15:33:46,YZ,None,
,,,,,,calibration,0,23,2,788,,,,,,,,0.7916666666666666,0.5,0.1111111111111111,0.875,0.15384615384615385,0.735042735042735,0.5875868408210491,2,1,1,1,2,7,9,4,9,0,,,,1,,,,,,,,,,,,,,,,,,,,,,,,,,,,,,,,,,,,,,,,,,,,,,77,153187,23,Female,1,2024/02/22_15:33:46,YZ,None,
,,,,,,Calibration,0,,2,788,,,,,,,,,,,,,,,,,,,,,,,,,4,,,1,,,,,,,,,,,,,,,,,,,,,,,,,,,,,,,,,,,,,,,,,,,,,,77,153187,23,Female,1,2024/02/22_15:33:46,YZ,None,
,,,,,,calibration,0,29,2,788,1,C,0,right,0.8407517730083782,1,0,,,,,,,,,,,,,,,,,,,,,1,,,,,,,,,,,,,,,,,,,,,,,,,,,,,,,,,,,,,,,,,,,,,,77,153187,23,Female,1,2024/02/22_15:33:46,YZ,None,
,,,,,,calibration,0,29,2,788,2,F,0,right,0.7353458049765322,1,0,,,,,,,,,,,,,,,,,,,,,1,,,,,,,,,,,,,,,,,,,,,,,,,,,,,,,,,,,,,,,,,,,,,,77,153187,23,Female,1,2024/02/22_15:33:46,YZ,None,
,,,,,,calibration,0,29,2,788,3,X,0,right,0.7623560609936249,1,0,,,,,,,,,,,,,,,,,,,,,1,,,,,,,,,,,,,,,,,,,,,,,,,,,,,,,,,,,,,,,,,,,,,,77,153187,23,Female,1,2024/02/22_15:33:46,YZ,None,
,,,,,,calibration,0,29,2,788,4,F,1,right,0.5934748820145614,0,0,,,,,,,,,,,,,,,,,,,,,1,,,,,,,,,,,,,,,,,,,,,,,,,,,,,,,,,,,,,,,,,,,,,,77,153187,23,Female,1,2024/02/22_15:33:46,YZ,None,
,,,,,,calibration,0,29,2,788,5,S,0,right,0.7782747950113844,1,0,,,,,,,,,,,,,,,,,,,,,1,,,,,,,,,,,,,,,,,,,,,,,,,,,,,,,,,,,,,,,,,,,,,,77,153187,23,Female,1,2024/02/22_15:33:46,YZ,None,
,,,,,,calibration,0,29,2,788,6,F,1,left,0.4151781169930473,1,0,,,,,,,,,,,,,,,,,,,,,1,,,,,,,,,,,,,,,,,,,,,,,,,,,,,,,,,,,,,,,,,,,,,,77,153187,23,Female,1,2024/02/22_15:33:46,YZ,None,
,,,,,,calibration,0,29,2,788,7,X,0,right,0.535585739009548,1,0,,,,,,,,,,,,,,,,,,,,,1,,,,,,,,,,,,,,,,,,,,,,,,,,,,,,,,,,,,,,,,,,,,,,77,153187,23,Female,1,2024/02/22_15:33:46,YZ,None,
,,,,,,calibration,0,29,2,788,8,F,1,right,0.6284666410065256,0,0,,,,,,,,,,,,,,,,,,,,,1,,,,,,,,,,,,,,,,,,,,,,,,,,,,,,,,,,,,,,,,,,,,,,77,153187,23,Female,1,2024/02/22_15:33:46,YZ,None,
,,,,,,calibration,0,29,2,788,9,Q,0,right,0.5759469199983869,1,0,,,,,,,,,,,,,,,,,,,,,1,,,,,,,,,,,,,,,,,,,,,,,,,,,,,,,,,,,,,,,,,,,,,,77,153187,23,Female,1,2024/02/22_15:33:46,YZ,None,
,,,,,,calibration,0,29,2,788,10,N,0,left,0.3152875659870915,0,0,,,,,,,,,,,,,,,,,,,,,1,,,,,,,,,,,,,,,,,,,,,,,,,,,,,,,,,,,,,,,,,,,,,,77,153187,23,Female,1,2024/02/22_15:33:46,YZ,None,
,,,,,,calibration,0,29,2,788,11,Q,1,right,0.3841819429944735,0,0,,,,,,,,,,,,,,,,,,,,,1,,,,,,,,,,,,,,,,,,,,,,,,,,,,,,,,,,,,,,,,,,,,,,77,153187,23,Female,1,2024/02/22_15:33:46,YZ,None,
,,,,,,calibration,0,29,2,788,12,C,0,right,1.0849386229820084,1,0,,,,,,,,,,,,,,,,,,,,,1,,,,,,,,,,,,,,,,,,,,,,,,,,,,,,,,,,,,,,,,,,,,,,77,153187,23,Female,1,2024/02/22_15:33:46,YZ,None,
,,,,,,calibration,0,29,2,788,13,V,0,right,0.2942833669949323,1,0,,,,,,,,,,,,,,,,,,,,,1,,,,,,,,,,,,,,,,,,,,,,,,,,,,,,,,,,,,,,,,,,,,,,77,153187,23,Female,1,2024/02/22_15:33:46,YZ,None,
,,,,,,calibration,0,29,2,788,,,,,,,,0.6736111111111112,0.25,0.1111111111111111,0.8888888888888888,0.0,0.8888888888888888,0.6110824793823457,1,1,0,0,0,8,9,4,9,0,,,,1,,,,,,,,,,,,,,,,,,,,,,,,,,,,,,,,,,,,,,,,,,,,,,77,153187,23,Female,1,2024/02/22_15:33:46,YZ,None,
,,,,,,Calibration,0,,2,788,,,,,,,,,,,,,,,,,,,,,,,,,5,,,1,,,,,,,,,,,,,,,,,,,,,,,,,,,,,,,,,,,,,,,,,,,,,,77,153187,23,Female,1,2024/02/22_15:33:46,YZ,None,
,,,,,,calibration,0,23,2,917,1,N,0,right,0.7427905810181983,1,0,,,,,,,,,,,,,,,,,,,,,1,,,,,,,,,,,,,,,,,,,,,,,,,,,,,,,,,,,,,,,,,,,,,,77,153187,23,Female,1,2024/02/22_15:33:46,YZ,None,
,,,,,,calibration,0,23,2,917,2,J,0,right,0.3712195719999727,1,0,,,,,,,,,,,,,,,,,,,,,1,,,,,,,,,,,,,,,,,,,,,,,,,,,,,,,,,,,,,,,,,,,,,,77,153187,23,Female,1,2024/02/22_15:33:46,YZ,None,
,,,,,,calibration,0,23,2,917,3,F,0,right,0.48079068900551647,1,0,,,,,,,,,,,,,,,,,,,,,1,,,,,,,,,,,,,,,,,,,,,,,,,,,,,,,,,,,,,,,,,,,,,,77,153187,23,Female,1,2024/02/22_15:33:46,YZ,None,
,,,,,,calibration,0,23,2,917,4,J,1,left,0.6567523709964007,1,0,,,,,,,,,,,,,,,,,,,,,1,,,,,,,,,,,,,,,,,,,,,,,,,,,,,,,,,,,,,,,,,,,,,,77,153187,23,Female,1,2024/02/22_15:33:46,YZ,None,
,,,,,,calibration,0,23,2,917,5,C,0,right,0.3176947339961771,1,0,,,,,,,,,,,,,,,,,,,,,1,,,,,,,,,,,,,,,,,,,,,,,,,,,,,,,,,,,,,,,,,,,,,,77,153187,23,Female,1,2024/02/22_15:33:46,YZ,None,
,,,,,,calibration,0,23,2,917,6,J,1,right,0.3121742799994536,0,0,,,,,,,,,,,,,,,,,,,,,1,,,,,,,,,,,,,,,,,,,,,,,,,,,,,,,,,,,,,,,,,,,,,,77,153187,23,Female,1,2024/02/22_15:33:46,YZ,None,
,,,,,,calibration,0,23,2,917,7,C,1,right,0.607602236996172,0,0,,,,,,,,,,,,,,,,,,,,,1,,,,,,,,,,,,,,,,,,,,,,,,,,,,,,,,,,,,,,,,,,,,,,77,153187,23,Female,1,2024/02/22_15:33:46,YZ,None,
,,,,,,calibration,0,23,2,917,8,N,0,left,0.3391000840056222,0,0,,,,,,,,,,,,,,,,,,,,,1,,,,,,,,,,,,,,,,,,,,,,,,,,,,,,,,,,,,,,,,,,,,,,77,153187,23,Female,1,2024/02/22_15:33:46,YZ,None,
,,,,,,calibration,0,23,2,917,9,Q,0,right,0.3046168779837899,1,0,,,,,,,,,,,,,,,,,,,,,1,,,,,,,,,,,,,,,,,,,,,,,,,,,,,,,,,,,,,,,,,,,,,,77,153187,23,Female,1,2024/02/22_15:33:46,YZ,None,
,,,,,,calibration,0,23,2,917,10,J,0,right,0.8934466729988344,1,0,,,,,,,,,,,,,,,,,,,,,1,,,,,,,,,,,,,,,,,,,,,,,,,,,,,,,,,,,,,,,,,,,,,,77,153187,23,Female,1,2024/02/22_15:33:46,YZ,None,
,,,,,,calibration,0,23,2,917,11,C,0,right,0.47655811699223705,1,0,,,,,,,,,,,,,,,,,,,,,1,,,,,,,,,,,,,,,,,,,,,,,,,,,,,,,,,,,,,,,,,,,,,,77,153187,23,Female,1,2024/02/22_15:33:46,YZ,None,
,,,,,,calibration,0,23,2,917,12,V,0,left,0.6939552590192761,0,0,,,,,,,,,,,,,,,,,,,,,1,,,,,,,,,,,,,,,,,,,,,,,,,,,,,,,,,,,,,,,,,,,,,,77,153187,23,Female,1,2024/02/22_15:33:46,YZ,None,
,,,,,,calibration,0,23,2,917,,,,,,,,0.6111111111111112,0.3333333333333333,0.2222222222222222,0.7777777777777778,0.0,0.7777777777777778,0.5163917895843042,1,2,0,0,0,7,8,3,9,0,,,,1,,,,,,,,,,,,,,,,,,,,,,,,,,,,,,,,,,,,,,,,,,,,,,77,153187,23,Female,1,2024/02/22_15:33:46,YZ,None,
,,,,,,Calibration,0,,2,917,,,,,,,,,,,,,,,,,,,,,,,,,6,,,1,,,,,,,,,,,,,,,,,,,,,,,,,,,,,,,,,,,,,,,,,,,,,,77,153187,23,Female,1,2024/02/22_15:33:46,YZ,None,
,,,,,,calibration,0,4,2,1068,1,S,0,right,0.5587874810153153,1,0,,,,,,,,,,,,,,,,,,,,,1,,,,,,,,,,,,,,,,,,,,,,,,,,,,,,,,,,,,,,,,,,,,,,77,153187,23,Female,1,2024/02/22_15:33:46,YZ,None,
,,,,,,calibration,0,4,2,1068,2,V,0,right,0.7288897519756574,1,0,,,,,,,,,,,,,,,,,,,,,1,,,,,,,,,,,,,,,,,,,,,,,,,,,,,,,,,,,,,,,,,,,,,,77,153187,23,Female,1,2024/02/22_15:33:46,YZ,None,
,,,,,,calibration,0,4,2,1068,3,S,1,right,0.3001771070121322,0,0,,,,,,,,,,,,,,,,,,,,,1,,,,,,,,,,,,,,,,,,,,,,,,,,,,,,,,,,,,,,,,,,,,,,77,153187,23,Female,1,2024/02/22_15:33:46,YZ,None,
,,,,,,calibration,0,4,2,1068,4,F,0,right,0.34532783401664346,1,0,,,,,,,,,,,,,,,,,,,,,1,,,,,,,,,,,,,,,,,,,,,,,,,,,,,,,,,,,,,,,,,,,,,,77,153187,23,Female,1,2024/02/22_15:33:46,YZ,None,
,,,,,,calibration,0,4,2,1068,5,J,0,left,0.6158492129761726,0,0,,,,,,,,,,,,,,,,,,,,,1,,,,,,,,,,,,,,,,,,,,,,,,,,,,,,,,,,,,,,,,,,,,,,77,153187,23,Female,1,2024/02/22_15:33:46,YZ,None,
,,,,,,calibration,0,4,2,1068,6,C,0,right,0.30329879201599397,1,0,,,,,,,,,,,,,,,,,,,,,1,,,,,,,,,,,,,,,,,,,,,,,,,,,,,,,,,,,,,,,,,,,,,,77,153187,23,Female,1,2024/02/22_15:33:46,YZ,None,
,,,,,,calibration,0,4,2,1068,7,S,0,right,0.36788993602385744,1,0,,,,,,,,,,,,,,,,,,,,,1,,,,,,,,,,,,,,,,,,,,,,,,,,,,,,,,,,,,,,,,,,,,,,77,153187,23,Female,1,2024/02/22_15:33:46,YZ,None,
,,,,,,calibration,0,4,2,1068,8,C,1,left,0.3465655200125184,1,0,,,,,,,,,,,,,,,,,,,,,1,,,,,,,,,,,,,,,,,,,,,,,,,,,,,,,,,,,,,,,,,,,,,,77,153187,23,Female,1,2024/02/22_15:33:46,YZ,None,
,,,,,,calibration,0,4,2,1068,9,S,1,right,0.2789504870015662,0,0,,,,,,,,,,,,,,,,,,,,,1,,,,,,,,,,,,,,,,,,,,,,,,,,,,,,,,,,,,,,,,,,,,,,77,153187,23,Female,1,2024/02/22_15:33:46,YZ,None,
,,,,,,calibration,0,4,2,1068,10,F,0,right,0.2938921070017386,1,0,,,,,,,,,,,,,,,,,,,,,1,,,,,,,,,,,,,,,,,,,,,,,,,,,,,,,,,,,,,,,,,,,,,,77,153187,23,Female,1,2024/02/22_15:33:46,YZ,None,
,,,,,,calibration,0,4,2,1068,11,V,0,left,0.32510053098667413,0,0,,,,,,,,,,,,,,,,,,,,,1,,,,,,,,,,,,,,,,,,,,,,,,,,,,,,,,,,,,,,,,,,,,,,77,153187,23,Female,1,2024/02/22_15:33:46,YZ,None,
,,,,,,calibration,0,4,2,1068,,,,,,,,0.5833333333333334,0.3333333333333333,0.25,0.75,0.0,0.75,0.4058844327307518,1,2,0,0,0,6,7,3,8,0,,,,1,,,,,,,,,,,,,,,,,,,,,,,,,,,,,,,,,,,,,,,,,,,,,,77,153187,23,Female,1,2024/02/22_15:33:46,YZ,None,
,,,,,,Calibration,0,,2,1068,,,,,,,,,,,,,,,,,,,,,,,,,7,,,1,,,,,,,,,,,,,,,,,,,,,,,,,,,,,,,,,,,,,,,,,,,,,,77,153187,23,Female,1,2024/02/22_15:33:46,YZ,None,
,,,,,,calibration,0,18,2,1250,1,C,0,right,0.5640497489948757,1,0,,,,,,,,,,,,,,,,,,,,,1,,,,,,,,,,,,,,,,,,,,,,,,,,,,,,,,,,,,,,,,,,,,,,77,153187,23,Female,1,2024/02/22_15:33:46,YZ,None,
,,,,,,calibration,0,18,2,1250,2,S,0,right,0.4835266029986087,1,0,,,,,,,,,,,,,,,,,,,,,1,,,,,,,,,,,,,,,,,,,,,,,,,,,,,,,,,,,,,,,,,,,,,,77,153187,23,Female,1,2024/02/22_15:33:46,YZ,None,
,,,,,,calibration,0,18,2,1250,3,C,1,right,1.11182329498115,0,0,,,,,,,,,,,,,,,,,,,,,1,,,,,,,,,,,,,,,,,,,,,,,,,,,,,,,,,,,,,,,,,,,,,,77,153187,23,Female,1,2024/02/22_15:33:46,YZ,None,
,,,,,,calibration,0,18,2,1250,4,N,0,left,0.40094868899905123,0,0,,,,,,,,,,,,,,,,,,,,,1,,,,,,,,,,,,,,,,,,,,,,,,,,,,,,,,,,,,,,,,,,,,,,77,153187,23,Female,1,2024/02/22_15:33:46,YZ,None,
,,,,,,calibration,0,18,2,1250,5,X,0,right,0.5617686300247442,1,0,,,,,,,,,,,,,,,,,,,,,1,,,,,,,,,,,,,,,,,,,,,,,,,,,,,,,,,,,,,,,,,,,,,,77,153187,23,Female,1,2024/02/22_15:33:46,YZ,None,
,,,,,,calibration,0,18,2,1250,6,N,1,right,0.6059382430103142,0,0,,,,,,,,,,,,,,,,,,,,,1,,,,,,,,,,,,,,,,,,,,,,,,,,,,,,,,,,,,,,,,,,,,,,77,153187,23,Female,1,2024/02/22_15:33:46,YZ,None,
,,,,,,calibration,0,18,2,1250,7,X,1,right,0.9116556239896454,0,0,,,,,,,,,,,,,,,,,,,,,1,,,,,,,,,,,,,,,,,,,,,,,,,,,,,,,,,,,,,,,,,,,,,,77,153187,23,Female,1,2024/02/22_15:33:46,YZ,None,
,,,,,,calibration,0,18,2,1250,8,Q,0,right,1.3591211379971355,1,0,,,,,,,,,,,,,,,,,,,,,1,,,,,,,,,,,,,,,,,,,,,,,,,,,,,,,,,,,,,,,,,,,,,,77,153187,23,Female,1,2024/02/22_15:33:46,YZ,None,
,,,,,,calibration,0,18,2,1250,9,S,0,right,0.35154205601429567,1,0,,,,,,,,,,,,,,,,,,,,,1,,,,,,,,,,,,,,,,,,,,,,,,,,,,,,,,,,,,,,,,,,,,,,77,153187,23,Female,1,2024/02/22_15:33:46,YZ,None,
,,,,,,calibration,0,18,2,1250,10,V,0,left,0.4240245539986063,0,0,,,,,,,,,,,,,,,,,,,,,1,,,,,,,,,,,,,,,,,,,,,,,,,,,,,,,,,,,,,,,,,,,,,,77,153187,23,Female,1,2024/02/22_15:33:46,YZ,None,
,,,,,,calibration,0,18,2,1250,,,,,,,,0.17857142857142858,0.0,0.2857142857142857,0.7142857142857143,0.0,0.7142857142857143,0.6774398581008427,0,2,0,0,0,5,5,3,7,0,,,,1,,,,,,,,,,,,,,,,,,,,,,,,,,,,,,,,,,,,,,,,,,,,,,77,153187,23,Female,1,2024/02/22_15:33:46,YZ,None,
,,,,,,Calibration,0,,2,1250,,,,,,,,,,,,,,,,,,,,,,,,,8,,,1,,,,,,,,,,,,,,,,,,,,,,,,,,,,,,,,,,,,,,,,,,,,,,77,153187,23,Female,1,2024/02/22_15:33:46,YZ,None,
,,,,,,calibration,0,15,2,1472,1,Q,0,right,0.6207343120186124,1,0,,,,,,,,,,,,,,,,,,,,,1,,,,,,,,,,,,,,,,,,,,,,,,,,,,,,,,,,,,,,,,,,,,,,77,153187,23,Female,1,2024/02/22_15:33:46,YZ,None,
,,,,,,calibration,0,15,2,1472,2,Q,0,right,0.31106707197614014,1,0,,,,,,,,,,,,,,,,,,,,,1,,,,,,,,,,,,,,,,,,,,,,,,,,,,,,,,,,,,,,,,,,,,,,77,153187,23,Female,1,2024/02/22_15:33:46,YZ,None,
,,,,,,calibration,0,15,2,1472,3,Q,1,left,0.5591510859958362,1,0,,,,,,,,,,,,,,,,,,,,,1,,,,,,,,,,,,,,,,,,,,,,,,,,,,,,,,,,,,,,,,,,,,,,77,153187,23,Female,1,2024/02/22_15:33:46,YZ,None,
,,,,,,calibration,0,15,2,1472,4,Q,1,right,0.2908694389916491,0,0,,,,,,,,,,,,,,,,,,,,,1,,,,,,,,,,,,,,,,,,,,,,,,,,,,,,,,,,,,,,,,,,,,,,77,153187,23,Female,1,2024/02/22_15:33:46,YZ,None,
,,,,,,calibration,0,15,2,1472,5,X,0,right,0.3298978189995978,1,0,,,,,,,,,,,,,,,,,,,,,1,,,,,,,,,,,,,,,,,,,,,,,,,,,,,,,,,,,,,,,,,,,,,,77,153187,23,Female,1,2024/02/22_15:33:46,YZ,None,
,,,,,,calibration,0,15,2,1472,6,J,0,right,0.6627010689990129,1,0,,,,,,,,,,,,,,,,,,,,,1,,,,,,,,,,,,,,,,,,,,,,,,,,,,,,,,,,,,,,,,,,,,,,77,153187,23,Female,1,2024/02/22_15:33:46,YZ,None,
,,,,,,calibration,0,15,2,1472,7,S,0,left,0.19868110099923797,0,0,,,,,,,,,,,,,,,,,,,,,1,,,,,,,,,,,,,,,,,,,,,,,,,,,,,,,,,,,,,,,,,,,,,,77,153187,23,Female,1,2024/02/22_15:33:46,YZ,None,
,,,,,,calibration,0,15,2,1472,8,N,0,right,0.31433022100827657,1,0,,,,,,,,,,,,,,,,,,,,,1,,,,,,,,,,,,,,,,,,,,,,,,,,,,,,,,,,,,,,,,,,,,,,77,153187,23,Female,1,2024/02/22_15:33:46,YZ,None,
,,,,,,calibration,0,15,2,1472,9,S,1,right,0.29665245200158097,0,0,,,,,,,,,,,,,,,,,,,,,1,,,,,,,,,,,,,,,,,,,,,,,,,,,,,,,,,,,,,,,,,,,,,,77,153187,23,Female,1,2024/02/22_15:33:46,YZ,None,
,,,,,,calibration,0,15,2,1472,,,,,,,,0.6666666666666666,0.3333333333333333,0.16666666666666666,0.8333333333333334,0.0,0.8333333333333334,0.39823161899888265,1,1,0,0,0,5,6,3,6,0,,,,1,,,,,,,,,,,,,,,,,,,,,,,,,,,,,,,,,,,,,,,,,,,,,,77,153187,23,Female,1,2024/02/22_15:33:46,YZ,None,
,,,,,,Calibration,0,,2,1472,,,,,,,,,,,,,,,,,,,,,,,,,9,,,1,,,,,,,,,,,,,,,,,,,,,,,,,,,,,,,,,,,,,,,,,,,,,,77,153187,23,Female,1,2024/02/22_15:33:46,YZ,None,
,,,,,,calibration,0,31,2,1750,1,C,0,right,0.40805836801882833,1,0,,,,,,,,,,,,,,,,,,,,,1,,,,,,,,,,,,,,,,,,,,,,,,,,,,,,,,,,,,,,,,,,,,,,77,153187,23,Female,1,2024/02/22_15:33:46,YZ,None,
,,,,,,calibration,0,31,2,1750,2,F,0,right,0.37724756498937495,1,0,,,,,,,,,,,,,,,,,,,,,1,,,,,,,,,,,,,,,,,,,,,,,,,,,,,,,,,,,,,,,,,,,,,,77,153187,23,Female,1,2024/02/22_15:33:46,YZ,None,
,,,,,,calibration,0,31,2,1750,3,V,0,right,0.3654444199928548,1,0,,,,,,,,,,,,,,,,,,,,,1,,,,,,,,,,,,,,,,,,,,,,,,,,,,,,,,,,,,,,,,,,,,,,77,153187,23,Female,1,2024/02/22_15:33:46,YZ,None,
,,,,,,calibration,0,31,2,1750,4,C,0,left,0.2688190070039127,0,0,,,,,,,,,,,,,,,,,,,,,1,,,,,,,,,,,,,,,,,,,,,,,,,,,,,,,,,,,,,,,,,,,,,,77,153187,23,Female,1,2024/02/22_15:33:46,YZ,None,
,,,,,,calibration,0,31,2,1750,5,V,1,right,0.37614376400597394,0,0,,,,,,,,,,,,,,,,,,,,,1,,,,,,,,,,,,,,,,,,,,,,,,,,,,,,,,,,,,,,,,,,,,,,77,153187,23,Female,1,2024/02/22_15:33:46,YZ,None,
,,,,,,calibration,0,31,2,1750,6,S,0,right,0.5425801299861632,1,0,,,,,,,,,,,,,,,,,,,,,1,,,,,,,,,,,,,,,,,,,,,,,,,,,,,,,,,,,,,,,,,,,,,,77,153187,23,Female,1,2024/02/22_15:33:46,YZ,None,
,,,,,,calibration,0,31,2,1750,7,C,0,left,0.46679653198225424,0,0,,,,,,,,,,,,,,,,,,,,,1,,,,,,,,,,,,,,,,,,,,,,,,,,,,,,,,,,,,,,,,,,,,,,77,153187,23,Female,1,2024/02/22_15:33:46,YZ,None,
,,,,,,calibration,0,31,2,1750,8,S,1,right,0.3275858029955998,0,0,,,,,,,,,,,,,,,,,,,,,1,,,,,,,,,,,,,,,,,,,,,,,,,,,,,,,,,,,,,,,,,,,,,,77,153187,23,Female,1,2024/02/22_15:33:46,YZ,None,
,,,,,,calibration,0,31,2,1750,,,,,,,,0.16666666666666669,0.0,0.3333333333333333,0.6666666666666666,0.0,0.6666666666666667,0.39158444862187025,0,2,0,0,0,4,4,2,6,0,,,,1,,,,,,,,,,,,,,,,,,,,,,,,,,,,,,,,,,,,,,,,,,,,,,77,153187,23,Female,1,2024/02/22_15:33:46,YZ,None,
,,,,,,Calibration,0,,2,1750,,,,,,,,,,,,,,,,,,,,,,,,,10,,,1,,,,,,,,,,,,,,,,,,,,,,,,,,,,,,,,,,,,,,,,,,,,,,77,153187,23,Female,1,2024/02/22_15:33:46,YZ,None,
,,,,,,calibration,0,18,2,2107,1,V,0,right,0.15530698900693096,1,0,,,,,,,,,,,,,,,,,,,,,1,,,,,,,,,,,,,,,,,,,,,,,,,,,,,,,,,,,,,,,,,,,,,,77,153187,23,Female,1,2024/02/22_15:33:46,YZ,None,
,,,,,,calibration,0,18,2,2107,2,J,0,right,0.22602004499640316,1,0,,,,,,,,,,,,,,,,,,,,,1,,,,,,,,,,,,,,,,,,,,,,,,,,,,,,,,,,,,,,,,,,,,,,77,153187,23,Female,1,2024/02/22_15:33:46,YZ,None,
,,,,,,calibration,0,18,2,2107,3,N,0,right,0.39257740799803287,1,0,,,,,,,,,,,,,,,,,,,,,1,,,,,,,,,,,,,,,,,,,,,,,,,,,,,,,,,,,,,,,,,,,,,,77,153187,23,Female,1,2024/02/22_15:33:46,YZ,None,
,,,,,,calibration,0,18,2,2107,4,X,0,left,0.2878295640111901,0,0,,,,,,,,,,,,,,,,,,,,,1,,,,,,,,,,,,,,,,,,,,,,,,,,,,,,,,,,,,,,,,,,,,,,77,153187,23,Female,1,2024/02/22_15:33:46,YZ,None,
,,,,,,calibration,0,18,2,2107,5,V,0,right,0.3045798249950167,1,0,,,,,,,,,,,,,,,,,,,,,1,,,,,,,,,,,,,,,,,,,,,,,,,,,,,,,,,,,,,,,,,,,,,,77,153187,23,Female,1,2024/02/22_15:33:46,YZ,None,
,,,,,,calibration,0,18,2,2107,6,X,1,right,0.3144880030013155,0,0,,,,,,,,,,,,,,,,,,,,,1,,,,,,,,,,,,,,,,,,,,,,,,,,,,,,,,,,,,,,,,,,,,,,77,153187,23,Female,1,2024/02/22_15:33:46,YZ,None,
,,,,,,calibration,0,18,2,2107,7,V,1,right,0.30451954700401984,0,0,,,,,,,,,,,,,,,,,,,,,1,,,,,,,,,,,,,,,,,,,,,,,,,,,,,,,,,,,,,,,,,,,,,,77,153187,23,Female,1,2024/02/22_15:33:46,YZ,None,
,,,,,,calibration,0,18,2,2107,,,,,,,,0.2,0.0,0.2,0.8,0.0,0.8,0.2836173401447013,0,1,0,0,0,4,4,2,5,0,,,,1,,,,,,,,,,,,,,,,,,,,,,,,,,,,,,,,,,,,,,,,,,,,,,77,153187,23,Female,1,2024/02/22_15:33:46,YZ,None,
,,,,,,Calibration,0,,2,2107,,,,,,,,,,,,,,,,,,,,,,,,,11,,,1,,,,,,,,,,,,,,,,,,,,,,,,,,,,,,,,,,,,,,,,,,,,,,77,153187,23,Female,1,2024/02/22_15:33:46,YZ,None,
,,,,,,calibration,0,36,2,2583,1,S,0,right,0.34099480698932894,1,0,,,,,,,,,,,,,,,,,,,,,1,,,,,,,,,,,,,,,,,,,,,,,,,,,,,,,,,,,,,,,,,,,,,,77,153187,23,Female,1,2024/02/22_15:33:46,YZ,None,
,,,,,,calibration,0,36,2,2583,2,N,0,right,0.3337546249968,1,0,,,,,,,,,,,,,,,,,,,,,1,,,,,,,,,,,,,,,,,,,,,,,,,,,,,,,,,,,,,,,,,,,,,,77,153187,23,Female,1,2024/02/22_15:33:46,YZ,None,
,,,,,,calibration,0,36,2,2583,3,S,1,left,0.41027226598816924,1,0,,,,,,,,,,,,,,,,,,,,,1,,,,,,,,,,,,,,,,,,,,,,,,,,,,,,,,,,,,,,,,,,,,,,77,153187,23,Female,1,2024/02/22_15:33:46,YZ,None,
,,,,,,calibration,0,36,2,2583,4,V,0,right,0.3524286420142744,1,0,,,,,,,,,,,,,,,,,,,,,1,,,,,,,,,,,,,,,,,,,,,,,,,,,,,,,,,,,,,,,,,,,,,,77,153187,23,Female,1,2024/02/22_15:33:46,YZ,None,
,,,,,,calibration,0,36,2,2583,5,S,1,right,0.31552017500507645,0,0,,,,,,,,,,,,,,,,,,,,,1,,,,,,,,,,,,,,,,,,,,,,,,,,,,,,,,,,,,,,,,,,,,,,77,153187,23,Female,1,2024/02/22_15:33:46,YZ,None,
,,,,,,calibration,0,36,2,2583,6,N,0,left,0.6459923090005759,0,0,,,,,,,,,,,,,,,,,,,,,1,,,,,,,,,,,,,,,,,,,,,,,,,,,,,,,,,,,,,,,,,,,,,,77,153187,23,Female,1,2024/02/22_15:33:46,YZ,None,
,,,,,,calibration,0,36,2,2583,,,,,,,,0.6875,0.5,0.25,0.75,0.0,0.75,0.3998271373323708,1,1,0,0,0,3,4,2,4,0,,,,1,,,,,,,,,,,,,,,,,,,,,,,,,,,,,,,,,,,,,,,,,,,,,,77,153187,23,Female,1,2024/02/22_15:33:46,YZ,None,
,,,,,,Calibration,0,,2,2583,,,,,,,,,,,,,,,,,,,,,,,,,12,,,1,,,,,,,,,,,,,,,,,,,,,,,,,,,,,,,,,,,,,,,,,,,,,,77,153187,23,Female,1,2024/02/22_15:33:46,YZ,None,
,,,,,,calibration,0,11,2,2583,1,N,0,right,0.4250103320227936,1,0,,,,,,,,,,,,,,,,,,,,,1,,,,,,,,,,,,,,,,,,,,,,,,,,,,,,,,,,,,,,,,,,,,,,77,153187,23,Female,1,2024/02/22_15:33:46,YZ,None,
,,,,,,calibration,0,11,2,2583,2,J,0,right,0.5426200450165197,1,0,,,,,,,,,,,,,,,,,,,,,1,,,,,,,,,,,,,,,,,,,,,,,,,,,,,,,,,,,,,,,,,,,,,,77,153187,23,Female,1,2024/02/22_15:33:46,YZ,None,
,,,,,,calibration,0,11,2,2583,3,X,0,left,0.47563138700206764,0,0,,,,,,,,,,,,,,,,,,,,,1,,,,,,,,,,,,,,,,,,,,,,,,,,,,,,,,,,,,,,,,,,,,,,77,153187,23,Female,1,2024/02/22_15:33:46,YZ,None,
,,,,,,calibration,0,11,2,2583,4,J,1,right,0.4843126720224973,0,0,,,,,,,,,,,,,,,,,,,,,1,,,,,,,,,,,,,,,,,,,,,,,,,,,,,,,,,,,,,,,,,,,,,,77,153187,23,Female,1,2024/02/22_15:33:46,YZ,None,
,,,,,,calibration,0,11,2,2583,5,C,0,right,0.42673586899763905,1,0,,,,,,,,,,,,,,,,,,,,,1,,,,,,,,,,,,,,,,,,,,,,,,,,,,,,,,,,,,,,,,,,,,,,77,153187,23,Female,1,2024/02/22_15:33:46,YZ,None,
,,,,,,calibration,0,11,2,2583,6,J,1,right,nan,0,1,,,,,,,,,,,,,,,,,,,,,1,,,,,,,,,,,,,,,,,,,,,,,,,,,,,,,,,,,,,,,,,,,,,,77,153187,23,Female,1,2024/02/22_15:33:46,YZ,None,
,,,,,,calibration,0,11,2,2583,,,,,,,,0.1875,0.0,0.25,0.75,0.16666666666666666,0.5833333333333334,0.47086206101230343,0,1,1,0,1,3,3,2,4,0,,,,1,,,,,,,,,,,,,,,,,,,,,,,,,,,,,,,,,,,,,,,,,,,,,,77,153187,23,Female,1,2024/02/22_15:33:46,YZ,None,
,,,,,,Calibration,0,,2,2583,,,,,,,,,,,,,,,,,,,,,,,,,13,,,1,,,,,,,,,,,,,,,,,,,,,,,,,,,,,,,,,,,,,,,,,,,,,,77,153187,23,Female,1,2024/02/22_15:33:46,YZ,None,
,,,,,,calibration,0,18,2,2583,1,Q,0,right,0.8650562079856172,1,0,,,,,,,,,,,,,,,,,,,,,1,,,,,,,,,,,,,,,,,,,,,,,,,,,,,,,,,,,,,,,,,,,,,,77,153187,23,Female,1,2024/02/22_15:33:46,YZ,None,
,,,,,,calibration,0,18,2,2583,2,X,0,right,0.3702386929944623,1,0,,,,,,,,,,,,,,,,,,,,,1,,,,,,,,,,,,,,,,,,,,,,,,,,,,,,,,,,,,,,,,,,,,,,77,153187,23,Female,1,2024/02/22_15:33:46,YZ,None,
,,,,,,calibration,0,18,2,2583,3,N,0,right,0.4001308419974521,1,0,,,,,,,,,,,,,,,,,,,,,1,,,,,,,,,,,,,,,,,,,,,,,,,,,,,,,,,,,,,,,,,,,,,,77,153187,23,Female,1,2024/02/22_15:33:46,YZ,None,
,,,,,,calibration,0,18,2,2583,4,X,1,right,0.4983956799842417,0,0,,,,,,,,,,,,,,,,,,,,,1,,,,,,,,,,,,,,,,,,,,,,,,,,,,,,,,,,,,,,,,,,,,,,77,153187,23,Female,1,2024/02/22_15:33:46,YZ,None,
,,,,,,calibration,0,18,2,2583,5,N,1,right,0.7824475719826296,0,0,,,,,,,,,,,,,,,,,,,,,1,,,,,,,,,,,,,,,,,,,,,,,,,,,,,,,,,,,,,,,,,,,,,,77,153187,23,Female,1,2024/02/22_15:33:46,YZ,None,
,,,,,,calibration,0,18,2,2583,6,V,0,right,0.909538642008556,1,0,,,,,,,,,,,,,,,,,,,,,1,,,,,,,,,,,,,,,,,,,,,,,,,,,,,,,,,,,,,,,,,,,,,,77,153187,23,Female,1,2024/02/22_15:33:46,YZ,None,
,,,,,,calibration,0,18,2,2583,,,,,,,,0.5,0.0,0.0,1.0,0.0,1.0,0.6376346061588265,0,0,0,0,0,4,4,2,4,0,,,,1,,,,,,,,,,,,,,,,,,,,,,,,,,,,,,,,,,,,,,,,,,,,,,77,153187,23,Female,1,2024/02/22_15:33:46,YZ,None,
,,,,,,Calibration,0,,2,2583,,,,,,,,,,,,,,,,,,,,,,,,,14,,,1,,,,,,,,,,,,,,,,,,,,,,,,,,,,,,,,,,,,,,,,,,,,,,77,153187,23,Female,1,2024/02/22_15:33:46,YZ,None,
,,,,,,calibration,0,33,2,2583,1,F,0,right,0.7756703929917421,1,0,,,,,,,,,,,,,,,,,,,,,1,,,,,,,,,,,,,,,,,,,,,,,,,,,,,,,,,,,,,,,,,,,,,,77,153187,23,Female,1,2024/02/22_15:33:46,YZ,None,
,,,,,,calibration,0,33,2,2583,2,Q,0,right,0.4516334719955921,1,0,,,,,,,,,,,,,,,,,,,,,1,,,,,,,,,,,,,,,,,,,,,,,,,,,,,,,,,,,,,,,,,,,,,,77,153187,23,Female,1,2024/02/22_15:33:46,YZ,None,
,,,,,,calibration,0,33,2,2583,3,X,0,right,0.5323705500049982,1,0,,,,,,,,,,,,,,,,,,,,,1,,,,,,,,,,,,,,,,,,,,,,,,,,,,,,,,,,,,,,,,,,,,,,77,153187,23,Female,1,2024/02/22_15:33:46,YZ,None,
,,,,,,calibration,0,33,2,2583,4,Q,1,left,0.7527709160058293,1,0,,,,,,,,,,,,,,,,,,,,,1,,,,,,,,,,,,,,,,,,,,,,,,,,,,,,,,,,,,,,,,,,,,,,77,153187,23,Female,1,2024/02/22_15:33:46,YZ,None,
,,,,,,calibration,0,33,2,2583,5,X,1,right,0.419371288997354,0,0,,,,,,,,,,,,,,,,,,,,,1,,,,,,,,,,,,,,,,,,,,,,,,,,,,,,,,,,,,,,,,,,,,,,77,153187,23,Female,1,2024/02/22_15:33:46,YZ,None,
,,,,,,calibration,0,33,2,2583,6,J,0,right,0.7470672419876792,1,0,,,,,,,,,,,,,,,,,,,,,1,,,,,,,,,,,,,,,,,,,,,,,,,,,,,,,,,,,,,,,,,,,,,,77,153187,23,Female,1,2024/02/22_15:33:46,YZ,None,
,,,,,,calibration,0,33,2,2583,,,,,,,,0.875,0.5,0.0,1.0,0.0,1.0,0.6131473103305325,1,0,0,0,0,4,5,2,4,0,,,,1,,,,,,,,,,,,,,,,,,,,,,,,,,,,,,,,,,,,,,,,,,,,,,77,153187,23,Female,1,2024/02/22_15:33:46,YZ,None,
,,,,,,Calibration,0,,2,2583,,,,,,,,,,,,,,,,,,,,,,,,,15,,,1,,,,,,,,,,,,,,,,,,,,,,,,,,,,,,,,,,,,,,,,,,,,,,77,153187,23,Female,1,2024/02/22_15:33:46,YZ,None,
,,,,,,CALIBRATION,0,,,,,,,,,,,,,,,,,,,,,,,,,,,,15,0.875,2583,1,,,,,,,,,,,,,,,,,,,,,,,,,,,,,,,,,,,,,,,,,,,,,,77,153187,23,Female,1,2024/02/22_15:33:46,YZ,None,
-1,./instructions/inst_prac_1/Slide24.png,left,14.088158158003353,481.5009284240077,495.5890865820111,,,,,,,,,,,,,,,,,,,,,,,,,,,,,,,,,1,,,,,,,,,,,,,,,,,,,,,,,,,,,,,,,,,,,,,,,,,,,,,,77,153187,23,Female,1,2024/02/22_15:33:46,YZ,None,
0,./instructions/inst_prac_1/Slide30.png,right,12.95179821900092,495.6131102890067,508.56490850800765,,,,,,,,,,,,,,,,,,,,,,,,,,,,,,,,,1,,,,,,,,,,,,,,,,,,,,,,,,,,,,,,,,,,,,,,,,,,,,,,77,153187,23,Female,1,2024/02/22_15:33:46,YZ,None,
1,./instructions/inst_prac_1/Slide24.png,right,7.881753254972864,508.5952403640258,516.4769936189987,,,,,,,,,,,,,,,,,,,,,,,,,,,,,,,,,1,,,,,,,,,,,,,,,,,,,,,,,,,,,,,,,,,,,,,,,,,,,,,,77,153187,23,Female,1,2024/02/22_15:33:46,YZ,None,
2,./instructions/inst_prac_1/Slide25.png,right,3.9710708479979075,516.505807471025,520.476878319023,,,,,,,,,,,,,,,,,,,,,,,,,,,,,,,,,1,,,,,,,,,,,,,,,,,,,,,,,,,,,,,,,,,,,,,,,,,,,,,,77,153187,23,Female,1,2024/02/22_15:33:46,YZ,None,
3,./instructions/inst_prac_1/Slide26.png,right,0.7632375340035651,520.505704367999,521.2689419020026,,,,,,,,,,,,,,,,,,,,,,,,,,,,,,,,,1,,,,,,,,,,,,,,,,,,,,,,,,,,,,,,,,,,,,,,,,,,,,,,77,153187,23,Female,1,2024/02/22_15:33:46,YZ,None,
4,./instructions/inst_prac_1/Slide27.png,right,1.040964954008814,521.2918181440036,522.3327830980124,,,,,,,,,,,,,,,,,,,,,,,,,,,,,,,,,1,,,,,,,,,,,,,,,,,,,,,,,,,,,,,,,,,,,,,,,,,,,,,,77,153187,23,Female,1,2024/02/22_15:33:46,YZ,None,
3,./instructions/inst_prac_1/Slide28.png,left,0.8752454500063322,522.3616371290118,523.2368825790181,,,,,,,,,,,,,,,,,,,,,,,,,,,,,,,,,1,,,,,,,,,,,,,,,,,,,,,,,,,,,,,,,,,,,,,,,,,,,,,,77,153187,23,Female,1,2024/02/22_15:33:46,YZ,None,
4,./instructions/inst_prac_1/Slide27.png,right,2.1812357580056414,523.263556106016,525.4447918640217,,,,,,,,,,,,,,,,,,,,,,,,,,,,,,,,,1,,,,,,,,,,,,,,,,,,,,,,,,,,,,,,,,,,,,,,,,,,,,,,77,153187,23,Female,1,2024/02/22_15:33:46,YZ,None,
3,./instructions/inst_prac_1/Slide28.png,left,0.8902597309788689,525.4747703840258,526.3650301150046,,,,,,,,,,,,,,,,,,,,,,,,,,,,,,,,,1,,,,,,,,,,,,,,,,,,,,,,,,,,,,,,,,,,,,,,,,,,,,,,77,153187,23,Female,1,2024/02/22_15:33:46,YZ,None,
4,./instructions/inst_prac_1/Slide27.png,right,1.0269656190066598,526.3938504320104,527.420816051017,,,,,,,,,,,,,,,,,,,,,,,,,,,,,,,,,1,,,,,,,,,,,,,,,,,,,,,,,,,,,,,,,,,,,,,,,,,,,,,,77,153187,23,Female,1,2024/02/22_15:33:46,YZ,None,
3,./instructions/inst_prac_1/Slide28.png,left,0.8435889729880728,527.449368149013,528.2929571220011,,,,,,,,,,,,,,,,,,,,,,,,,,,,,,,,,1,,,,,,,,,,,,,,,,,,,,,,,,,,,,,,,,,,,,,,,,,,,,,,77,153187,23,Female,1,2024/02/22_15:33:46,YZ,None,
4,./instructions/inst_prac_1/Slide27.png,right,1.1025595759856515,528.3183586840169,529.4209182600025,,,,,,,,,,,,,,,,,,,,,,,,,,,,,,,,,1,,,,,,,,,,,,,,,,,,,,,,,,,,,,,,,,,,,,,,,,,,,,,,77,153187,23,Female,1,2024/02/22_15:33:46,YZ,None,
3,./instructions/inst_prac_1/Slide28.png,left,0.8025925679830834,529.4505302760226,530.2531228440057,,,,,,,,,,,,,,,,,,,,,,,,,,,,,,,,,1,,,,,,,,,,,,,,,,,,,,,,,,,,,,,,,,,,,,,,,,,,,,,,77,153187,23,Female,1,2024/02/22_15:33:46,YZ,None,
4,./instructions/inst_prac_1/Slide27.png,right,1.0667630359821487,530.2819983310183,531.3487613670004,,,,,,,,,,,,,,,,,,,,,,,,,,,,,,,,,1,,,,,,,,,,,,,,,,,,,,,,,,,,,,,,,,,,,,,,,,,,,,,,77,153187,23,Female,1,2024/02/22_15:33:46,YZ,None,
3,./instructions/inst_prac_1/Slide28.png,left,0.995213171991054,531.3777299680223,532.3729431400134,,,,,,,,,,,,,,,,,,,,,,,,,,,,,,,,,1,,,,,,,,,,,,,,,,,,,,,,,,,,,,,,,,,,,,,,,,,,,,,,77,153187,23,Female,1,2024/02/22_15:33:46,YZ,None,
4,./instructions/inst_prac_1/Slide27.png,right,1.0429817010008264,532.4018310160027,533.4448127170035,,,,,,,,,,,,,,,,,,,,,,,,,,,,,,,,,1,,,,,,,,,,,,,,,,,,,,,,,,,,,,,,,,,,,,,,,,,,,,,,77,153187,23,Female,1,2024/02/22_15:33:46,YZ,None,
3,./instructions/inst_prac_1/Slide28.png,left,0.6541306380240712,533.4710395139991,534.1251701520232,,,,,,,,,,,,,,,,,,,,,,,,,,,,,,,,,1,,,,,,,,,,,,,,,,,,,,,,,,,,,,,,,,,,,,,,,,,,,,,,77,153187,23,Female,1,2024/02/22_15:33:46,YZ,None,
4,./instructions/inst_prac_1/Slide27.png,right,1.0425154829863459,534.1543292140123,535.1968446969986,,,,,,,,,,,,,,,,,,,,,,,,,,,,,,,,,1,,,,,,,,,,,,,,,,,,,,,,,,,,,,,,,,,,,,,,,,,,,,,,77,153187,23,Female,1,2024/02/22_15:33:46,YZ,None,
3,./instructions/inst_prac_1/Slide28.png,left,0.6701719860138837,535.2227786860021,535.892950672016,,,,,,,,,,,,,,,,,,,,,,,,,,,,,,,,,1,,,,,,,,,,,,,,,,,,,,,,,,,,,,,,,,,,,,,,,,,,,,,,77,153187,23,Female,1,2024/02/22_15:33:46,YZ,None,
4,./instructions/inst_prac_1/Slide27.png,right,2.194981167005608,535.9218484070152,538.1168295740208,,,,,,,,,,,,,,,,,,,,,,,,,,,,,,,,,1,,,,,,,,,,,,,,,,,,,,,,,,,,,,,,,,,,,,,,,,,,,,,,77,153187,23,Female,1,2024/02/22_15:33:46,YZ,None,
3,./instructions/inst_prac_1/Slide28.png,left,2.289960105001228,538.1470877579995,540.4370478630008,,,,,,,,,,,,,,,,,,,,,,,,,,,,,,,,,1,,,,,,,,,,,,,,,,,,,,,,,,,,,,,,,,,,,,,,,,,,,,,,77,153187,23,Female,1,2024/02/22_15:33:46,YZ,None,
4,./instructions/inst_prac_1/Slide27.png,right,1.9466715789749287,540.4661376880249,542.4128092669998,,,,,,,,,,,,,,,,,,,,,,,,,,,,,,,,,1,,,,,,,,,,,,,,,,,,,,,,,,,,,,,,,,,,,,,,,,,,,,,,77,153187,23,Female,1,2024/02/22_15:33:46,YZ,None,
5,./instructions/inst_prac_1/Slide28.png,right,0.20044260899885558,542.4420994850225,542.6425420940213,,,,,,,,,,,,,,,,,,,,,,,,,,,,,,,,,1,,,,,,,,,,,,,,,,,,,,,,,,,,,,,,,,,,,,,,,,,,,,,,77,153187,23,Female,1,2024/02/22_15:33:46,YZ,None,
6,./instructions/inst_prac_1/Slide29.png,right,7.235745331010548,542.6649820640159,549.9007273950265,,,,,,,,,,,,,,,,,,,,,,,,,,,,,,,,,1,,,,,,,,,,,,,,,,,,,,,,,,,,,,,,,,,,,,,,,,,,,,,,77,153187,23,Female,1,2024/02/22_15:33:46,YZ,None,
7,./instructions/inst_prac_1/Slide30.png,right,4.6191099260177,549.9298126770009,554.5489226030186,,,,,,,,,,,,,,,,,,,,,,,,,,,,,,,,,1,,,,,,,,,,,,,,,,,,,,,,,,,,,,,,,,,,,,,,,,,,,,,,77,153187,23,Female,1,2024/02/22_15:33:46,YZ,None,
,,,,,,practice,0,27,1,1250,1,S,0,right,1.5775606709939893,1,0,,,,,,,,,,,,,,,,,,,,,1,,,,,,,,,,,,,,,,,,,,,,,,,,,,,,,,,,,,,,,,,,,,,,77,153187,23,Female,1,2024/02/22_15:33:46,YZ,None,
,,,,,,practice,0,27,1,1250,2,S,1,left,0.8784316940000281,1,0,,,,,,,,,,,,,,,,,,,,,1,,,,,,,,,,,,,,,,,,,,,,,,,,,,,,,,,,,,,,,,,,,,,,77,153187,23,Female,1,2024/02/22_15:33:46,YZ,None,
,,,,,,practice,0,27,1,1250,3,Q,0,right,0.9990141069865786,1,0,,,,,,,,,,,,,,,,,,,,,1,,,,,,,,,,,,,,,,,,,,,,,,,,,,,,,,,,,,,,,,,,,,,,77,153187,23,Female,1,2024/02/22_15:33:46,YZ,None,
,,,,,,practice,0,27,1,1250,4,X,0,right,1.3800270850188099,1,0,,,,,,,,,,,,,,,,,,,,,1,,,,,,,,,,,,,,,,,,,,,,,,,,,,,,,,,,,,,,,,,,,,,,77,153187,23,Female,1,2024/02/22_15:33:46,YZ,None,
,,,,,,practice,0,27,1,1250,5,N,0,right,0.9811408069799654,1,0,,,,,,,,,,,,,,,,,,,,,1,,,,,,,,,,,,,,,,,,,,,,,,,,,,,,,,,,,,,,,,,,,,,,77,153187,23,Female,1,2024/02/22_15:33:46,YZ,None,
,,,,,,practice,0,27,1,1250,6,N,1,right,0.7236041610012762,0,0,,,,,,,,,,,,,,,,,,,,,1,,,,,,,,,,,,,,,,,,,,,,,,,,,,,,,,,,,,,,,,,,,,,,77,153187,23,Female,1,2024/02/22_15:33:46,YZ,None,
,,,,,,practice,0,27,1,1250,7,X,0,right,1.8609607440012041,1,0,,,,,,,,,,,,,,,,,,,,,1,,,,,,,,,,,,,,,,,,,,,,,,,,,,,,,,,,,,,,,,,,,,,,77,153187,23,Female,1,2024/02/22_15:33:46,YZ,None,
,,,,,,practice,0,27,1,1250,8,X,1,left,0.5824048170179594,1,0,,,,,,,,,,,,,,,,,,,,,1,,,,,,,,,,,,,,,,,,,,,,,,,,,,,,,,,,,,,,,,,,,,,,77,153187,23,Female,1,2024/02/22_15:33:46,YZ,None,
,,,,,,practice,0,27,1,1250,9,C,0,right,1.1199200849805493,1,0,,,,,,,,,,,,,,,,,,,,,1,,,,,,,,,,,,,,,,,,,,,,,,,,,,,,,,,,,,,,,,,,,,,,77,153187,23,Female,1,2024/02/22_15:33:46,YZ,None,
,,,,,,practice,0,27,1,1250,10,V,0,right,0.7278119459806476,1,0,,,,,,,,,,,,,,,,,,,,,1,,,,,,,,,,,,,,,,,,,,,,,,,,,,,,,,,,,,,,,,,,,,,,77,153187,23,Female,1,2024/02/22_15:33:46,YZ,None,
,,,,,,practice,0,27,1,1250,,,,,,,,0.9166666666666666,0.6666666666666666,0.0,1.0,0.0,1.0,1.0830876116961008,2,0,0,0,0,7,9,3,7,0,,,,1,,,,,,,,,,,,,,,,,,,,,,,,,,,,,,,,,,,,,,,,,,,,,,77,153187,23,Female,1,2024/02/22_15:33:46,YZ,None,
1,./instructions/inst_prac_1_next/Slide35.png,right,3.2404599520086776,576.4284089450084,579.6688688970171,,,,,,,,,,,,,,,,,,,,,,,,,,,,,,,,,1,,,,,,,,,,,,,,,,,,,,,,,,,,,,,,,,,,,,,,,,,,,,,,77,153187,23,Female,1,2024/02/22_15:33:46,YZ,None,
,,,,,,practice,0,25,1,2583,1,V,0,right,0.9011761670117266,1,0,,,,,,,,,,,,,,,,,,,,,1,,,,,,,,,,,,,,,,,,,,,,,,,,,,,,,,,,,,,,,,,,,,,,77,153187,23,Female,1,2024/02/22_15:33:46,YZ,None,
,,,,,,practice,0,25,1,2583,2,V,1,left,0.6662141410051845,1,0,,,,,,,,,,,,,,,,,,,,,1,,,,,,,,,,,,,,,,,,,,,,,,,,,,,,,,,,,,,,,,,,,,,,77,153187,23,Female,1,2024/02/22_15:33:46,YZ,None,
,,,,,,practice,0,25,1,2583,3,Q,0,right,1.4349090910109226,1,0,,,,,,,,,,,,,,,,,,,,,1,,,,,,,,,,,,,,,,,,,,,,,,,,,,,,,,,,,,,,,,,,,,,,77,153187,23,Female,1,2024/02/22_15:33:46,YZ,None,
,,,,,,practice,0,25,1,2583,4,V,0,right,1.1291672840015963,1,0,,,,,,,,,,,,,,,,,,,,,1,,,,,,,,,,,,,,,,,,,,,,,,,,,,,,,,,,,,,,,,,,,,,,77,153187,23,Female,1,2024/02/22_15:33:46,YZ,None,
,,,,,,practice,0,25,1,2583,5,V,1,left,0.48864823998883367,1,0,,,,,,,,,,,,,,,,,,,,,1,,,,,,,,,,,,,,,,,,,,,,,,,,,,,,,,,,,,,,,,,,,,,,77,153187,23,Female,1,2024/02/22_15:33:46,YZ,None,
,,,,,,practice,0,25,1,2583,6,S,0,right,0.6550724800035823,1,0,,,,,,,,,,,,,,,,,,,,,1,,,,,,,,,,,,,,,,,,,,,,,,,,,,,,,,,,,,,,,,,,,,,,77,153187,23,Female,1,2024/02/22_15:33:46,YZ,None,
,,,,,,practice,0,25,1,2583,,,,,,,,1.0,1.0,0.0,1.0,0.0,1.0,0.879197900503641,2,0,0,0,0,4,6,2,4,0,,,,1,,,,,,,,,,,,,,,,,,,,,,,,,,,,,,,,,,,,,,,,,,,,,,77,153187,23,Female,1,2024/02/22_15:33:46,YZ,None,
,,,,,,practice,0,34,1,2583,1,C,0,right,0.8958828920149244,1,0,,,,,,,,,,,,,,,,,,,,,1,,,,,,,,,,,,,,,,,,,,,,,,,,,,,,,,,,,,,,,,,,,,,,77,153187,23,Female,1,2024/02/22_15:33:46,YZ,None,
,,,,,,practice,0,34,1,2583,2,C,1,left,0.5807039510109462,1,0,,,,,,,,,,,,,,,,,,,,,1,,,,,,,,,,,,,,,,,,,,,,,,,,,,,,,,,,,,,,,,,,,,,,77,153187,23,Female,1,2024/02/22_15:33:46,YZ,None,
,,,,,,practice,0,34,1,2583,3,X,0,right,0.7545428430021275,1,0,,,,,,,,,,,,,,,,,,,,,1,,,,,,,,,,,,,,,,,,,,,,,,,,,,,,,,,,,,,,,,,,,,,,77,153187,23,Female,1,2024/02/22_15:33:46,YZ,None,
,,,,,,practice,0,34,1,2583,4,S,0,right,0.6000564389978535,1,0,,,,,,,,,,,,,,,,,,,,,1,,,,,,,,,,,,,,,,,,,,,,,,,,,,,,,,,,,,,,,,,,,,,,77,153187,23,Female,1,2024/02/22_15:33:46,YZ,None,
,,,,,,practice,0,34,1,2583,5,J,0,left,0.7087227449810598,0,0,,,,,,,,,,,,,,,,,,,,,1,,,,,,,,,,,,,,,,,,,,,,,,,,,,,,,,,,,,,,,,,,,,,,77,153187,23,Female,1,2024/02/22_15:33:46,YZ,None,
,,,,,,practice,0,34,1,2583,6,J,1,left,0.7252302760025486,1,0,,,,,,,,,,,,,,,,,,,,,1,,,,,,,,,,,,,,,,,,,,,,,,,,,,,,,,,,,,,,,,,,,,,,77,153187,23,Female,1,2024/02/22_15:33:46,YZ,None,
,,,,,,practice,0,34,1,2583,,,,,,,,0.9375,1.0,0.25,0.75,0.0,0.75,0.71085652433491,2,1,0,0,0,3,5,2,4,0,,,,1,,,,,,,,,,,,,,,,,,,,,,,,,,,,,,,,,,,,,,,,,,,,,,77,153187,23,Female,1,2024/02/22_15:33:46,YZ,None,
1,./instructions/inst_prac_3/Slide37.png,right,9.324535291001666,599.568279773026,608.8928150640277,,,,,,,,,,,,,,,,,,,,,,,,,,,,,,,,,1,,,,,,,,,,,,,,,,,,,,,,,,,,,,,,,,,,,,,,,,,,,,,,77,153187,23,Female,1,2024/02/22_15:33:46,YZ,None,
2,./instructions/inst_prac_3/Slide38.png,right,1.51420788600808,608.9226037730114,610.4368116590194,,,,,,,,,,,,,,,,,,,,,,,,,,,,,,,,,1,,,,,,,,,,,,,,,,,,,,,,,,,,,,,,,,,,,,,,,,,,,,,,77,153187,23,Female,1,2024/02/22_15:33:46,YZ,None,
3,./instructions/inst_prac_3/Slide39.png,right,2.2746762369934004,610.4661283260211,612.7408045630145,,,,,,,,,,,,,,,,,,,,,,,,,,,,,,,,,1,,,,,,,,,,,,,,,,,,,,,,,,,,,,,,,,,,,,,,,,,,,,,,77,153187,23,Female,1,2024/02/22_15:33:46,YZ,None,
4,./instructions/inst_prac_3/Slide40.png,right,2.8031779209850356,612.7698552280199,615.5730331490049,,,,,,,,,,,,,,,,,,,,,,,,,,,,,,,,,1,,,,,,,,,,,,,,,,,,,,,,,,,,,,,,,,,,,,,,,,,,,,,,77,153187,23,Female,1,2024/02/22_15:33:46,YZ,None,
5,./instructions/inst_prac_3/Slide41.png,right,13.905911598005332,615.602964448015,629.5088760460203,,,,,,,,,,,,,,,,,,,,,,,,,,,,,,,,,1,,,,,,,,,,,,,,,,,,,,,,,,,,,,,,,,,,,,,,,,,,,,,,77,153187,23,Female,1,2024/02/22_15:33:46,YZ,None,
4,./instructions/inst_prac_3/Slide42.png,left,4.62708749299054,629.537813048024,634.1649005410145,,,,,,,,,,,,,,,,,,,,,,,,,,,,,,,,,1,,,,,,,,,,,,,,,,,,,,,,,,,,,,,,,,,,,,,,,,,,,,,,77,153187,23,Female,1,2024/02/22_15:33:46,YZ,None,
5,./instructions/inst_prac_3/Slide41.png,right,2.7930910929862875,634.1877960210259,636.9808871140121,,,,,,,,,,,,,,,,,,,,,,,,,,,,,,,,,1,,,,,,,,,,,,,,,,,,,,,,,,,,,,,,,,,,,,,,,,,,,,,,77,153187,23,Female,1,2024/02/22_15:33:46,YZ,None,
4,./instructions/inst_prac_3/Slide42.png,left,0.8676260869833641,637.009438669018,637.8770647560013,,,,,,,,,,,,,,,,,,,,,,,,,,,,,,,,,1,,,,,,,,,,,,,,,,,,,,,,,,,,,,,,,,,,,,,,,,,,,,,,77,153187,23,Female,1,2024/02/22_15:33:46,YZ,None,
5,./instructions/inst_prac_3/Slide41.png,right,0.8576146310078911,637.9072071539995,638.7648217850074,,,,,,,,,,,,,,,,,,,,,,,,,,,,,,,,,1,,,,,,,,,,,,,,,,,,,,,,,,,,,,,,,,,,,,,,,,,,,,,,77,153187,23,Female,1,2024/02/22_15:33:46,YZ,None,
4,./instructions/inst_prac_3/Slide42.png,left,1.5630472539924085,638.7939271050273,640.3569743590197,,,,,,,,,,,,,,,,,,,,,,,,,,,,,,,,,1,,,,,,,,,,,,,,,,,,,,,,,,,,,,,,,,,,,,,,,,,,,,,,77,153187,23,Female,1,2024/02/22_15:33:46,YZ,None,
5,./instructions/inst_prac_3/Slide41.png,right,1.679568866995396,640.3812746410258,642.0608435080212,,,,,,,,,,,,,,,,,,,,,,,,,,,,,,,,,1,,,,,,,,,,,,,,,,,,,,,,,,,,,,,,,,,,,,,,,,,,,,,,77,153187,23,Female,1,2024/02/22_15:33:46,YZ,None,
4,./instructions/inst_prac_3/Slide42.png,left,0.9067212209920399,642.0902909230208,642.9970121440128,,,,,,,,,,,,,,,,,,,,,,,,,,,,,,,,,1,,,,,,,,,,,,,,,,,,,,,,,,,,,,,,,,,,,,,,,,,,,,,,77,153187,23,Female,1,2024/02/22_15:33:46,YZ,None,
5,./instructions/inst_prac_3/Slide41.png,right,0.8908769160043448,643.0259282220213,643.9168051380257,,,,,,,,,,,,,,,,,,,,,,,,,,,,,,,,,1,,,,,,,,,,,,,,,,,,,,,,,,,,,,,,,,,,,,,,,,,,,,,,77,153187,23,Female,1,2024/02/22_15:33:46,YZ,None,
4,./instructions/inst_prac_3/Slide42.png,left,0.738221737992717,643.9468982890248,644.6851200270175,,,,,,,,,,,,,,,,,,,,,,,,,,,,,,,,,1,,,,,,,,,,,,,,,,,,,,,,,,,,,,,,,,,,,,,,,,,,,,,,77,153187,23,Female,1,2024/02/22_15:33:46,YZ,None,
5,./instructions/inst_prac_3/Slide41.png,right,0.7710369279957376,644.7138834600046,645.4849203880003,,,,,,,,,,,,,,,,,,,,,,,,,,,,,,,,,1,,,,,,,,,,,,,,,,,,,,,,,,,,,,,,,,,,,,,,,,,,,,,,77,153187,23,Female,1,2024/02/22_15:33:46,YZ,None,
4,./instructions/inst_prac_3/Slide42.png,left,0.7796435299969744,645.5135247050202,646.2931682350172,,,,,,,,,,,,,,,,,,,,,,,,,,,,,,,,,1,,,,,,,,,,,,,,,,,,,,,,,,,,,,,,,,,,,,,,,,,,,,,,77,153187,23,Female,1,2024/02/22_15:33:46,YZ,None,
5,./instructions/inst_prac_3/Slide41.png,right,0.8690821079944726,646.3198572370165,647.188939345011,,,,,,,,,,,,,,,,,,,,,,,,,,,,,,,,,1,,,,,,,,,,,,,,,,,,,,,,,,,,,,,,,,,,,,,,,,,,,,,,77,153187,23,Female,1,2024/02/22_15:33:46,YZ,None,
4,./instructions/inst_prac_3/Slide42.png,left,0.6916195029916707,647.2175737570215,647.9091932600131,,,,,,,,,,,,,,,,,,,,,,,,,,,,,,,,,1,,,,,,,,,,,,,,,,,,,,,,,,,,,,,,,,,,,,,,,,,,,,,,77,153187,23,Female,1,2024/02/22_15:33:46,YZ,None,
5,./instructions/inst_prac_3/Slide41.png,right,0.6756111650029197,647.9371486130112,648.6127597780142,,,,,,,,,,,,,,,,,,,,,,,,,,,,,,,,,1,,,,,,,,,,,,,,,,,,,,,,,,,,,,,,,,,,,,,,,,,,,,,,77,153187,23,Female,1,2024/02/22_15:33:46,YZ,None,
4,./instructions/inst_prac_3/Slide42.png,left,0.7021930989867542,648.6387200660247,649.3409131650114,,,,,,,,,,,,,,,,,,,,,,,,,,,,,,,,,1,,,,,,,,,,,,,,,,,,,,,,,,,,,,,,,,,,,,,,,,,,,,,,77,153187,23,Female,1,2024/02/22_15:33:46,YZ,None,
5,./instructions/inst_prac_3/Slide41.png,right,0.6989181909884792,649.3698755830119,650.0687937740004,,,,,,,,,,,,,,,,,,,,,,,,,,,,,,,,,1,,,,,,,,,,,,,,,,,,,,,,,,,,,,,,,,,,,,,,,,,,,,,,77,153187,23,Female,1,2024/02/22_15:33:46,YZ,None,
4,./instructions/inst_prac_3/Slide42.png,left,0.6267360910132993,650.0982526770094,650.7249887680227,,,,,,,,,,,,,,,,,,,,,,,,,,,,,,,,,1,,,,,,,,,,,,,,,,,,,,,,,,,,,,,,,,,,,,,,,,,,,,,,77,153187,23,Female,1,2024/02/22_15:33:46,YZ,None,
5,./instructions/inst_prac_3/Slide41.png,right,0.6747742019942962,650.7541821590276,651.4289563610218,,,,,,,,,,,,,,,,,,,,,,,,,,,,,,,,,1,,,,,,,,,,,,,,,,,,,,,,,,,,,,,,,,,,,,,,,,,,,,,,77,153187,23,Female,1,2024/02/22_15:33:46,YZ,None,
4,./instructions/inst_prac_3/Slide42.png,left,0.5646467609913088,651.4564058850228,652.0210526460141,,,,,,,,,,,,,,,,,,,,,,,,,,,,,,,,,1,,,,,,,,,,,,,,,,,,,,,,,,,,,,,,,,,,,,,,,,,,,,,,77,153187,23,Female,1,2024/02/22_15:33:46,YZ,None,
5,./instructions/inst_prac_3/Slide41.png,right,0.6110091610171366,652.0498757280002,652.6608848890173,,,,,,,,,,,,,,,,,,,,,,,,,,,,,,,,,1,,,,,,,,,,,,,,,,,,,,,,,,,,,,,,,,,,,,,,,,,,,,,,77,153187,23,Female,1,2024/02/22_15:33:46,YZ,None,
4,./instructions/inst_prac_3/Slide42.png,left,0.5714354639931116,652.6896851760102,653.2611206400034,,,,,,,,,,,,,,,,,,,,,,,,,,,,,,,,,1,,,,,,,,,,,,,,,,,,,,,,,,,,,,,,,,,,,,,,,,,,,,,,77,153187,23,Female,1,2024/02/22_15:33:46,YZ,None,
5,./instructions/inst_prac_3/Slide41.png,right,0.7468188919883687,653.2900864560215,654.0369053480099,,,,,,,,,,,,,,,,,,,,,,,,,,,,,,,,,1,,,,,,,,,,,,,,,,,,,,,,,,,,,,,,,,,,,,,,,,,,,,,,77,153187,23,Female,1,2024/02/22_15:33:46,YZ,None,
4,./instructions/inst_prac_3/Slide42.png,left,0.6433023979770951,654.065737965022,654.7090403629991,,,,,,,,,,,,,,,,,,,,,,,,,,,,,,,,,1,,,,,,,,,,,,,,,,,,,,,,,,,,,,,,,,,,,,,,,,,,,,,,77,153187,23,Female,1,2024/02/22_15:33:46,YZ,None,
5,./instructions/inst_prac_3/Slide41.png,right,0.6269002939807251,654.7380402870185,655.3649405809992,,,,,,,,,,,,,,,,,,,,,,,,,,,,,,,,,1,,,,,,,,,,,,,,,,,,,,,,,,,,,,,,,,,,,,,,,,,,,,,,77,153187,23,Female,1,2024/02/22_15:33:46,YZ,None,
4,./instructions/inst_prac_3/Slide42.png,left,0.7564042159938253,655.3925221190148,656.1489263350086,,,,,,,,,,,,,,,,,,,,,,,,,,,,,,,,,1,,,,,,,,,,,,,,,,,,,,,,,,,,,,,,,,,,,,,,,,,,,,,,77,153187,23,Female,1,2024/02/22_15:33:46,YZ,None,
5,./instructions/inst_prac_3/Slide41.png,right,0.6043654249806423,656.1765034640266,656.7808688890073,,,,,,,,,,,,,,,,,,,,,,,,,,,,,,,,,1,,,,,,,,,,,,,,,,,,,,,,,,,,,,,,,,,,,,,,,,,,,,,,77,153187,23,Female,1,2024/02/22_15:33:46,YZ,None,
4,./instructions/inst_prac_3/Slide42.png,left,0.6510039959975984,656.8100783350237,657.4610823310213,,,,,,,,,,,,,,,,,,,,,,,,,,,,,,,,,1,,,,,,,,,,,,,,,,,,,,,,,,,,,,,,,,,,,,,,,,,,,,,,77,153187,23,Female,1,2024/02/22_15:33:46,YZ,None,
5,./instructions/inst_prac_3/Slide41.png,right,0.6415874490048736,657.4913242890034,658.1329117380083,,,,,,,,,,,,,,,,,,,,,,,,,,,,,,,,,1,,,,,,,,,,,,,,,,,,,,,,,,,,,,,,,,,,,,,,,,,,,,,,77,153187,23,Female,1,2024/02/22_15:33:46,YZ,None,
4,./instructions/inst_prac_3/Slide42.png,left,0.5880682069982868,658.1611303100071,658.7491985170054,,,,,,,,,,,,,,,,,,,,,,,,,,,,,,,,,1,,,,,,,,,,,,,,,,,,,,,,,,,,,,,,,,,,,,,,,,,,,,,,77,153187,23,Female,1,2024/02/22_15:33:46,YZ,None,
5,./instructions/inst_prac_3/Slide41.png,right,0.5708070559776388,658.7781310450227,659.3489381010004,,,,,,,,,,,,,,,,,,,,,,,,,,,,,,,,,1,,,,,,,,,,,,,,,,,,,,,,,,,,,,,,,,,,,,,,,,,,,,,,77,153187,23,Female,1,2024/02/22_15:33:46,YZ,None,
4,./instructions/inst_prac_3/Slide42.png,left,0.5785972840094473,659.3784529780096,659.957050262019,,,,,,,,,,,,,,,,,,,,,,,,,,,,,,,,,1,,,,,,,,,,,,,,,,,,,,,,,,,,,,,,,,,,,,,,,,,,,,,,77,153187,23,Female,1,2024/02/22_15:33:46,YZ,None,
5,./instructions/inst_prac_3/Slide41.png,right,0.5546975639881566,659.9861591010122,660.5408566650003,,,,,,,,,,,,,,,,,,,,,,,,,,,,,,,,,1,,,,,,,,,,,,,,,,,,,,,,,,,,,,,,,,,,,,,,,,,,,,,,77,153187,23,Female,1,2024/02/22_15:33:46,YZ,None,
4,./instructions/inst_prac_3/Slide42.png,left,0.7704392330197152,660.5705713040079,661.3410105370276,,,,,,,,,,,,,,,,,,,,,,,,,,,,,,,,,1,,,,,,,,,,,,,,,,,,,,,,,,,,,,,,,,,,,,,,,,,,,,,,77,153187,23,Female,1,2024/02/22_15:33:46,YZ,None,
5,./instructions/inst_prac_3/Slide41.png,right,0.6029443840088788,661.369895101001,661.9728394850099,,,,,,,,,,,,,,,,,,,,,,,,,,,,,,,,,1,,,,,,,,,,,,,,,,,,,,,,,,,,,,,,,,,,,,,,,,,,,,,,77,153187,23,Female,1,2024/02/22_15:33:46,YZ,None,
4,./instructions/inst_prac_3/Slide42.png,left,0.6862705750099849,661.9986372429994,662.6849078180094,,,,,,,,,,,,,,,,,,,,,,,,,,,,,,,,,1,,,,,,,,,,,,,,,,,,,,,,,,,,,,,,,,,,,,,,,,,,,,,,77,153187,23,Female,1,2024/02/22_15:33:46,YZ,None,
5,./instructions/inst_prac_3/Slide41.png,right,0.5545955249981489,662.7142926090164,663.2688881340146,,,,,,,,,,,,,,,,,,,,,,,,,,,,,,,,,1,,,,,,,,,,,,,,,,,,,,,,,,,,,,,,,,,,,,,,,,,,,,,,77,153187,23,Female,1,2024/02/22_15:33:46,YZ,None,
4,./instructions/inst_prac_3/Slide42.png,left,0.5546336280240212,663.2984069189988,663.8530405470228,,,,,,,,,,,,,,,,,,,,,,,,,,,,,,,,,1,,,,,,,,,,,,,,,,,,,,,,,,,,,,,,,,,,,,,,,,,,,,,,77,153187,23,Female,1,2024/02/22_15:33:46,YZ,None,
5,./instructions/inst_prac_3/Slide41.png,right,0.5469389259815216,663.8819056640205,664.428844590002,,,,,,,,,,,,,,,,,,,,,,,,,,,,,,,,,1,,,,,,,,,,,,,,,,,,,,,,,,,,,,,,,,,,,,,,,,,,,,,,77,153187,23,Female,1,2024/02/22_15:33:46,YZ,None,
4,./instructions/inst_prac_3/Slide42.png,left,0.7551792050071526,664.4577629010018,665.212942106009,,,,,,,,,,,,,,,,,,,,,,,,,,,,,,,,,1,,,,,,,,,,,,,,,,,,,,,,,,,,,,,,,,,,,,,,,,,,,,,,77,153187,23,Female,1,2024/02/22_15:33:46,YZ,None,
5,./instructions/inst_prac_3/Slide41.png,right,0.9388750150101259,665.2420099610172,666.1808849760273,,,,,,,,,,,,,,,,,,,,,,,,,,,,,,,,,1,,,,,,,,,,,,,,,,,,,,,,,,,,,,,,,,,,,,,,,,,,,,,,77,153187,23,Female,1,2024/02/22_15:33:46,YZ,None,
4,./instructions/inst_prac_3/Slide42.png,left,2.3465430439973716,666.2104100160068,668.5569530600042,,,,,,,,,,,,,,,,,,,,,,,,,,,,,,,,,1,,,,,,,,,,,,,,,,,,,,,,,,,,,,,,,,,,,,,,,,,,,,,,77,153187,23,Female,1,2024/02/22_15:33:46,YZ,None,
5,./instructions/inst_prac_3/Slide41.png,right,0.8095190540188923,668.5792856400076,669.3888046940265,,,,,,,,,,,,,,,,,,,,,,,,,,,,,,,,,1,,,,,,,,,,,,,,,,,,,,,,,,,,,,,,,,,,,,,,,,,,,,,,77,153187,23,Female,1,2024/02/22_15:33:46,YZ,None,
4,./instructions/inst_prac_3/Slide42.png,left,1.2194626840064302,669.4174614980002,670.6369241820066,,,,,,,,,,,,,,,,,,,,,,,,,,,,,,,,,1,,,,,,,,,,,,,,,,,,,,,,,,,,,,,,,,,,,,,,,,,,,,,,77,153187,23,Female,1,2024/02/22_15:33:46,YZ,None,
5,./instructions/inst_prac_3/Slide41.png,right,0.8573236349911895,670.6595661330211,671.5168897680123,,,,,,,,,,,,,,,,,,,,,,,,,,,,,,,,,1,,,,,,,,,,,,,,,,,,,,,,,,,,,,,,,,,,,,,,,,,,,,,,77,153187,23,Female,1,2024/02/22_15:33:46,YZ,None,
4,./instructions/inst_prac_3/Slide42.png,left,0.7875065480184276,671.5455555820081,672.3330621300265,,,,,,,,,,,,,,,,,,,,,,,,,,,,,,,,,1,,,,,,,,,,,,,,,,,,,,,,,,,,,,,,,,,,,,,,,,,,,,,,77,153187,23,Female,1,2024/02/22_15:33:46,YZ,None,
5,./instructions/inst_prac_3/Slide41.png,right,1.1787137080100365,672.3622056200111,673.5409193280211,,,,,,,,,,,,,,,,,,,,,,,,,,,,,,,,,1,,,,,,,,,,,,,,,,,,,,,,,,,,,,,,,,,,,,,,,,,,,,,,77,153187,23,Female,1,2024/02/22_15:33:46,YZ,None,
4,./instructions/inst_prac_3/Slide42.png,left,0.7956050469947513,673.569398422027,674.3650034690218,,,,,,,,,,,,,,,,,,,,,,,,,,,,,,,,,1,,,,,,,,,,,,,,,,,,,,,,,,,,,,,,,,,,,,,,,,,,,,,,77,153187,23,Female,1,2024/02/22_15:33:46,YZ,None,
5,./instructions/inst_prac_3/Slide41.png,right,0.8061942770145833,674.3907489340054,675.19694321102,,,,,,,,,,,,,,,,,,,,,,,,,,,,,,,,,1,,,,,,,,,,,,,,,,,,,,,,,,,,,,,,,,,,,,,,,,,,,,,,77,153187,23,Female,1,2024/02/22_15:33:46,YZ,None,
4,./instructions/inst_prac_3/Slide42.png,left,0.6371320410107728,675.2238905600097,675.8610226010205,,,,,,,,,,,,,,,,,,,,,,,,,,,,,,,,,1,,,,,,,,,,,,,,,,,,,,,,,,,,,,,,,,,,,,,,,,,,,,,,77,153187,23,Female,1,2024/02/22_15:33:46,YZ,None,
3,./instructions/inst_prac_3/Slide41.png,left,1.7147703419905156,675.8901664100122,677.6049367520027,,,,,,,,,,,,,,,,,,,,,,,,,,,,,,,,,1,,,,,,,,,,,,,,,,,,,,,,,,,,,,,,,,,,,,,,,,,,,,,,77,153187,23,Female,1,2024/02/22_15:33:46,YZ,None,
2,./instructions/inst_prac_3/Slide40.png,left,0.20053422800265253,677.6275246920122,677.8280589200149,,,,,,,,,,,,,,,,,,,,,,,,,,,,,,,,,1,,,,,,,,,,,,,,,,,,,,,,,,,,,,,,,,,,,,,,,,,,,,,,77,153187,23,Female,1,2024/02/22_15:33:46,YZ,None,
3,./instructions/inst_prac_3/Slide39.png,right,8.114294550003251,677.8505543790234,685.9648489290266,,,,,,,,,,,,,,,,,,,,,,,,,,,,,,,,,1,,,,,,,,,,,,,,,,,,,,,,,,,,,,,,,,,,,,,,,,,,,,,,77,153187,23,Female,1,2024/02/22_15:33:46,YZ,None,
4,./instructions/inst_prac_3/Slide40.png,right,0.7547050620196387,685.9941404830024,686.748845545022,,,,,,,,,,,,,,,,,,,,,,,,,,,,,,,,,1,,,,,,,,,,,,,,,,,,,,,,,,,,,,,,,,,,,,,,,,,,,,,,77,153187,23,Female,1,2024/02/22_15:33:46,YZ,None,
5,./instructions/inst_prac_3/Slide41.png,right,1.083425136981532,686.7775577730208,687.8609829100023,,,,,,,,,,,,,,,,,,,,,,,,,,,,,,,,,1,,,,,,,,,,,,,,,,,,,,,,,,,,,,,,,,,,,,,,,,,,,,,,77,153187,23,Female,1,2024/02/22_15:33:46,YZ,None,
4,./instructions/inst_prac_3/Slide42.png,left,1.0193152840074617,687.8897508869995,688.909066171007,,,,,,,,,,,,,,,,,,,,,,,,,,,,,,,,,1,,,,,,,,,,,,,,,,,,,,,,,,,,,,,,,,,,,,,,,,,,,,,,77,153187,23,Female,1,2024/02/22_15:33:46,YZ,None,
5,./instructions/inst_prac_3/Slide41.png,right,0.5661415529903024,688.9348344190221,689.5009759720124,,,,,,,,,,,,,,,,,,,,,,,,,,,,,,,,,1,,,,,,,,,,,,,,,,,,,,,,,,,,,,,,,,,,,,,,,,,,,,,,77,153187,23,Female,1,2024/02/22_15:33:46,YZ,None,
4,./instructions/inst_prac_3/Slide42.png,left,0.7147734930040315,689.5302556760143,690.2450291690184,,,,,,,,,,,,,,,,,,,,,,,,,,,,,,,,,1,,,,,,,,,,,,,,,,,,,,,,,,,,,,,,,,,,,,,,,,,,,,,,77,153187,23,Female,1,2024/02/22_15:33:46,YZ,None,
5,./instructions/inst_prac_3/Slide41.png,right,0.5270959780027624,690.2697635920194,690.7968595700222,,,,,,,,,,,,,,,,,,,,,,,,,,,,,,,,,1,,,,,,,,,,,,,,,,,,,,,,,,,,,,,,,,,,,,,,,,,,,,,,77,153187,23,Female,1,2024/02/22_15:33:46,YZ,None,
4,./instructions/inst_prac_3/Slide42.png,left,0.5555997710034717,690.8256237980095,691.381223569013,,,,,,,,,,,,,,,,,,,,,,,,,,,,,,,,,1,,,,,,,,,,,,,,,,,,,,,,,,,,,,,,,,,,,,,,,,,,,,,,77,153187,23,Female,1,2024/02/22_15:33:46,YZ,None,
5,./instructions/inst_prac_3/Slide41.png,right,0.5230217610078398,691.4098503610003,691.9328721220081,,,,,,,,,,,,,,,,,,,,,,,,,,,,,,,,,1,,,,,,,,,,,,,,,,,,,,,,,,,,,,,,,,,,,,,,,,,,,,,,77,153187,23,Female,1,2024/02/22_15:33:46,YZ,None,
4,./instructions/inst_prac_3/Slide42.png,left,0.6354315049829893,691.9615663720178,692.5969978770008,,,,,,,,,,,,,,,,,,,,,,,,,,,,,,,,,1,,,,,,,,,,,,,,,,,,,,,,,,,,,,,,,,,,,,,,,,,,,,,,77,153187,23,Female,1,2024/02/22_15:33:46,YZ,None,
5,./instructions/inst_prac_3/Slide41.png,right,0.6665838769986294,692.6262742580147,693.2928581350134,,,,,,,,,,,,,,,,,,,,,,,,,,,,,,,,,1,,,,,,,,,,,,,,,,,,,,,,,,,,,,,,,,,,,,,,,,,,,,,,77,153187,23,Female,1,2024/02/22_15:33:46,YZ,None,
4,./instructions/inst_prac_3/Slide42.png,left,0.6926808989956044,693.3202585280233,694.0129394270189,,,,,,,,,,,,,,,,,,,,,,,,,,,,,,,,,1,,,,,,,,,,,,,,,,,,,,,,,,,,,,,,,,,,,,,,,,,,,,,,77,153187,23,Female,1,2024/02/22_15:33:46,YZ,None,
5,./instructions/inst_prac_3/Slide41.png,right,0.5742221789842006,694.038608087023,694.6128302660072,,,,,,,,,,,,,,,,,,,,,,,,,,,,,,,,,1,,,,,,,,,,,,,,,,,,,,,,,,,,,,,,,,,,,,,,,,,,,,,,77,153187,23,Female,1,2024/02/22_15:33:46,YZ,None,
4,./instructions/inst_prac_3/Slide42.png,left,0.534306073008338,694.6388852290111,695.1731913020194,,,,,,,,,,,,,,,,,,,,,,,,,,,,,,,,,1,,,,,,,,,,,,,,,,,,,,,,,,,,,,,,,,,,,,,,,,,,,,,,77,153187,23,Female,1,2024/02/22_15:33:46,YZ,None,
5,./instructions/inst_prac_3/Slide41.png,right,0.4266650849895086,695.2021928100148,695.6288578950043,,,,,,,,,,,,,,,,,,,,,,,,,,,,,,,,,1,,,,,,,,,,,,,,,,,,,,,,,,,,,,,,,,,,,,,,,,,,,,,,77,153187,23,Female,1,2024/02/22_15:33:46,YZ,None,
4,./instructions/inst_prac_3/Slide42.png,left,0.4612814080028329,695.655616545002,696.1168979530048,,,,,,,,,,,,,,,,,,,,,,,,,,,,,,,,,1,,,,,,,,,,,,,,,,,,,,,,,,,,,,,,,,,,,,,,,,,,,,,,77,153187,23,Female,1,2024/02/22_15:33:46,YZ,None,
5,./instructions/inst_prac_3/Slide41.png,right,0.35473141400143504,696.1461528010259,696.5008842150273,,,,,,,,,,,,,,,,,,,,,,,,,,,,,,,,,1,,,,,,,,,,,,,,,,,,,,,,,,,,,,,,,,,,,,,,,,,,,,,,77,153187,23,Female,1,2024/02/22_15:33:46,YZ,None,
4,./instructions/inst_prac_3/Slide42.png,left,0.4665451979963109,696.5302841110097,696.996829309006,,,,,,,,,,,,,,,,,,,,,,,,,,,,,,,,,1,,,,,,,,,,,,,,,,,,,,,,,,,,,,,,,,,,,,,,,,,,,,,,77,153187,23,Female,1,2024/02/22_15:33:46,YZ,None,
5,./instructions/inst_prac_3/Slide41.png,right,0.37348677299451083,697.0234027090191,697.3968894820136,,,,,,,,,,,,,,,,,,,,,,,,,,,,,,,,,1,,,,,,,,,,,,,,,,,,,,,,,,,,,,,,,,,,,,,,,,,,,,,,77,153187,23,Female,1,2024/02/22_15:33:46,YZ,None,
4,./instructions/inst_prac_3/Slide42.png,left,0.469322282995563,697.4235526510165,697.8928749340121,,,,,,,,,,,,,,,,,,,,,,,,,,,,,,,,,1,,,,,,,,,,,,,,,,,,,,,,,,,,,,,,,,,,,,,,,,,,,,,,77,153187,23,Female,1,2024/02/22_15:33:46,YZ,None,
5,./instructions/inst_prac_3/Slide41.png,right,0.38702581499819644,697.921780197008,698.3088060120062,,,,,,,,,,,,,,,,,,,,,,,,,,,,,,,,,1,,,,,,,,,,,,,,,,,,,,,,,,,,,,,,,,,,,,,,,,,,,,,,77,153187,23,Female,1,2024/02/22_15:33:46,YZ,None,
4,./instructions/inst_prac_3/Slide42.png,left,0.4996961760043632,698.3373249590222,698.8370211350266,,,,,,,,,,,,,,,,,,,,,,,,,,,,,,,,,1,,,,,,,,,,,,,,,,,,,,,,,,,,,,,,,,,,,,,,,,,,,,,,77,153187,23,Female,1,2024/02/22_15:33:46,YZ,None,
5,./instructions/inst_prac_3/Slide41.png,right,0.3069617259898223,698.8658927460201,699.1728544720099,,,,,,,,,,,,,,,,,,,,,,,,,,,,,,,,,1,,,,,,,,,,,,,,,,,,,,,,,,,,,,,,,,,,,,,,,,,,,,,,77,153187,23,Female,1,2024/02/22_15:33:46,YZ,None,
4,./instructions/inst_prac_3/Slide42.png,left,0.4112725250015501,699.2016193500021,699.6128918750037,,,,,,,,,,,,,,,,,,,,,,,,,,,,,,,,,1,,,,,,,,,,,,,,,,,,,,,,,,,,,,,,,,,,,,,,,,,,,,,,77,153187,23,Female,1,2024/02/22_15:33:46,YZ,None,
5,./instructions/inst_prac_3/Slide41.png,right,0.36357617599423975,699.6413707310276,700.0049469070218,,,,,,,,,,,,,,,,,,,,,,,,,,,,,,,,,1,,,,,,,,,,,,,,,,,,,,,,,,,,,,,,,,,,,,,,,,,,,,,,77,153187,23,Female,1,2024/02/22_15:33:46,YZ,None,
4,./instructions/inst_prac_3/Slide42.png,left,0.46724582099705003,700.0336294160224,700.5008752370195,,,,,,,,,,,,,,,,,,,,,,,,,,,,,,,,,1,,,,,,,,,,,,,,,,,,,,,,,,,,,,,,,,,,,,,,,,,,,,,,77,153187,23,Female,1,2024/02/22_15:33:46,YZ,None,
5,./instructions/inst_prac_3/Slide41.png,right,0.34218553599203005,700.5266217510216,700.8688072870136,,,,,,,,,,,,,,,,,,,,,,,,,,,,,,,,,1,,,,,,,,,,,,,,,,,,,,,,,,,,,,,,,,,,,,,,,,,,,,,,77,153187,23,Female,1,2024/02/22_15:33:46,YZ,None,
4,./instructions/inst_prac_3/Slide42.png,left,0.3748743539908901,700.8940962820197,701.2689706360106,,,,,,,,,,,,,,,,,,,,,,,,,,,,,,,,,1,,,,,,,,,,,,,,,,,,,,,,,,,,,,,,,,,,,,,,,,,,,,,,77,153187,23,Female,1,2024/02/22_15:33:46,YZ,None,
5,./instructions/inst_prac_3/Slide41.png,right,0.3665719629789237,701.2942505850224,701.6608225480013,,,,,,,,,,,,,,,,,,,,,,,,,,,,,,,,,1,,,,,,,,,,,,,,,,,,,,,,,,,,,,,,,,,,,,,,,,,,,,,,77,153187,23,Female,1,2024/02/22_15:33:46,YZ,None,
4,./instructions/inst_prac_3/Slide42.png,left,0.4349508369923569,701.6898972080089,702.1248480450013,,,,,,,,,,,,,,,,,,,,,,,,,,,,,,,,,1,,,,,,,,,,,,,,,,,,,,,,,,,,,,,,,,,,,,,,,,,,,,,,77,153187,23,Female,1,2024/02/22_15:33:46,YZ,None,
5,./instructions/inst_prac_3/Slide41.png,right,0.30706620099954307,702.1537908610189,702.4608570620185,,,,,,,,,,,,,,,,,,,,,,,,,,,,,,,,,1,,,,,,,,,,,,,,,,,,,,,,,,,,,,,,,,,,,,,,,,,,,,,,77,153187,23,Female,1,2024/02/22_15:33:46,YZ,None,
4,./instructions/inst_prac_3/Slide42.png,left,0.38736645100289024,702.4895255910233,702.8768920420262,,,,,,,,,,,,,,,,,,,,,,,,,,,,,,,,,1,,,,,,,,,,,,,,,,,,,,,,,,,,,,,,,,,,,,,,,,,,,,,,77,153187,23,Female,1,2024/02/22_15:33:46,YZ,None,
5,./instructions/inst_prac_3/Slide41.png,right,0.33911628401256166,702.9057107210101,703.2448270050227,,,,,,,,,,,,,,,,,,,,,,,,,,,,,,,,,1,,,,,,,,,,,,,,,,,,,,,,,,,,,,,,,,,,,,,,,,,,,,,,77,153187,23,Female,1,2024/02/22_15:33:46,YZ,None,
4,./instructions/inst_prac_3/Slide42.png,left,0.4672856219985988,703.2735476150119,703.7408332370105,,,,,,,,,,,,,,,,,,,,,,,,,,,,,,,,,1,,,,,,,,,,,,,,,,,,,,,,,,,,,,,,,,,,,,,,,,,,,,,,77,153187,23,Female,1,2024/02/22_15:33:46,YZ,None,
5,./instructions/inst_prac_3/Slide41.png,right,0.4349734539864585,703.7698566230247,704.2048300770111,,,,,,,,,,,,,,,,,,,,,,,,,,,,,,,,,1,,,,,,,,,,,,,,,,,,,,,,,,,,,,,,,,,,,,,,,,,,,,,,77,153187,23,Female,1,2024/02/22_15:33:46,YZ,None,
4,./instructions/inst_prac_3/Slide42.png,left,0.5430444460071158,704.2300764700049,704.773120916012,,,,,,,,,,,,,,,,,,,,,,,,,,,,,,,,,1,,,,,,,,,,,,,,,,,,,,,,,,,,,,,,,,,,,,,,,,,,,,,,77,153187,23,Female,1,2024/02/22_15:33:46,YZ,None,
5,./instructions/inst_prac_3/Slide41.png,right,0.5066916120122187,704.8020632890111,705.3087549010233,,,,,,,,,,,,,,,,,,,,,,,,,,,,,,,,,1,,,,,,,,,,,,,,,,,,,,,,,,,,,,,,,,,,,,,,,,,,,,,,77,153187,23,Female,1,2024/02/22_15:33:46,YZ,None,
4,./instructions/inst_prac_3/Slide42.png,left,0.48323342300136574,705.3378033040208,705.8210367270221,,,,,,,,,,,,,,,,,,,,,,,,,,,,,,,,,1,,,,,,,,,,,,,,,,,,,,,,,,,,,,,,,,,,,,,,,,,,,,,,77,153187,23,Female,1,2024/02/22_15:33:46,YZ,None,
5,./instructions/inst_prac_3/Slide41.png,right,0.4618869700061623,705.8470430140151,706.3089299840212,,,,,,,,,,,,,,,,,,,,,,,,,,,,,,,,,1,,,,,,,,,,,,,,,,,,,,,,,,,,,,,,,,,,,,,,,,,,,,,,77,153187,23,Female,1,2024/02/22_15:33:46,YZ,None,
4,./instructions/inst_prac_3/Slide42.png,left,0.4666116019943729,706.338249805005,706.8048614069994,,,,,,,,,,,,,,,,,,,,,,,,,,,,,,,,,1,,,,,,,,,,,,,,,,,,,,,,,,,,,,,,,,,,,,,,,,,,,,,,77,153187,23,Female,1,2024/02/22_15:33:46,YZ,None,
5,./instructions/inst_prac_3/Slide41.png,right,0.40598331700311974,706.830810821004,707.2367941380071,,,,,,,,,,,,,,,,,,,,,,,,,,,,,,,,,1,,,,,,,,,,,,,,,,,,,,,,,,,,,,,,,,,,,,,,,,,,,,,,77,153187,23,Female,1,2024/02/22_15:33:46,YZ,None,
4,./instructions/inst_prac_3/Slide42.png,left,0.47722526200232096,707.2640721470234,707.7412974090257,,,,,,,,,,,,,,,,,,,,,,,,,,,,,,,,,1,,,,,,,,,,,,,,,,,,,,,,,,,,,,,,,,,,,,,,,,,,,,,,77,153187,23,Female,1,2024/02/22_15:33:46,YZ,None,
5,./instructions/inst_prac_3/Slide41.png,right,0.434892282995861,707.7699354350043,708.2048277180002,,,,,,,,,,,,,,,,,,,,,,,,,,,,,,,,,1,,,,,,,,,,,,,,,,,,,,,,,,,,,,,,,,,,,,,,,,,,,,,,77,153187,23,Female,1,2024/02/22_15:33:46,YZ,None,
4,./instructions/inst_prac_3/Slide42.png,left,0.5097076210076921,708.2314414860157,708.7411491070234,,,,,,,,,,,,,,,,,,,,,,,,,,,,,,,,,1,,,,,,,,,,,,,,,,,,,,,,,,,,,,,,,,,,,,,,,,,,,,,,77,153187,23,Female,1,2024/02/22_15:33:46,YZ,None,
5,./instructions/inst_prac_3/Slide41.png,right,0.47842389199649915,708.7664372790023,709.2448611709988,,,,,,,,,,,,,,,,,,,,,,,,,,,,,,,,,1,,,,,,,,,,,,,,,,,,,,,,,,,,,,,,,,,,,,,,,,,,,,,,77,153187,23,Female,1,2024/02/22_15:33:46,YZ,None,
4,./instructions/inst_prac_3/Slide42.png,left,0.5155115239904262,709.2735158190189,709.7890273430094,,,,,,,,,,,,,,,,,,,,,,,,,,,,,,,,,1,,,,,,,,,,,,,,,,,,,,,,,,,,,,,,,,,,,,,,,,,,,,,,77,153187,23,Female,1,2024/02/22_15:33:46,YZ,None,
5,./instructions/inst_prac_3/Slide41.png,right,0.47706735000247136,709.8158197250159,710.2928870750184,,,,,,,,,,,,,,,,,,,,,,,,,,,,,,,,,1,,,,,,,,,,,,,,,,,,,,,,,,,,,,,,,,,,,,,,,,,,,,,,77,153187,23,Female,1,2024/02/22_15:33:46,YZ,None,
4,./instructions/inst_prac_3/Slide42.png,left,0.5191031099820975,710.3178617530211,710.8369648630032,,,,,,,,,,,,,,,,,,,,,,,,,,,,,,,,,1,,,,,,,,,,,,,,,,,,,,,,,,,,,,,,,,,,,,,,,,,,,,,,77,153187,23,Female,1,2024/02/22_15:33:46,YZ,None,
5,./instructions/inst_prac_3/Slide41.png,right,0.5148591279867105,710.8659146070131,711.3807737349998,,,,,,,,,,,,,,,,,,,,,,,,,,,,,,,,,1,,,,,,,,,,,,,,,,,,,,,,,,,,,,,,,,,,,,,,,,,,,,,,77,153187,23,Female,1,2024/02/22_15:33:46,YZ,None,
4,./instructions/inst_prac_3/Slide42.png,left,0.4755074459826574,711.409387681022,711.8848951270047,,,,,,,,,,,,,,,,,,,,,,,,,,,,,,,,,1,,,,,,,,,,,,,,,,,,,,,,,,,,,,,,,,,,,,,,,,,,,,,,77,153187,23,Female,1,2024/02/22_15:33:46,YZ,None,
5,./instructions/inst_prac_3/Slide41.png,right,0.5153254629985895,711.9134537450154,712.428779208014,,,,,,,,,,,,,,,,,,,,,,,,,,,,,,,,,1,,,,,,,,,,,,,,,,,,,,,,,,,,,,,,,,,,,,,,,,,,,,,,77,153187,23,Female,1,2024/02/22_15:33:46,YZ,None,
4,./instructions/inst_prac_3/Slide42.png,left,0.514909325982444,712.4580489490181,712.9729582750006,,,,,,,,,,,,,,,,,,,,,,,,,,,,,,,,,1,,,,,,,,,,,,,,,,,,,,,,,,,,,,,,,,,,,,,,,,,,,,,,77,153187,23,Female,1,2024/02/22_15:33:46,YZ,None,
5,./instructions/inst_prac_3/Slide41.png,right,0.5236512829724234,713.0011865070264,713.5248377899989,,,,,,,,,,,,,,,,,,,,,,,,,,,,,,,,,1,,,,,,,,,,,,,,,,,,,,,,,,,,,,,,,,,,,,,,,,,,,,,,77,153187,23,Female,1,2024/02/22_15:33:46,YZ,None,
4,./instructions/inst_prac_3/Slide42.png,left,1.8290419019758701,713.5519063180254,715.3809482200013,,,,,,,,,,,,,,,,,,,,,,,,,,,,,,,,,1,,,,,,,,,,,,,,,,,,,,,,,,,,,,,,,,,,,,,,,,,,,,,,77,153187,23,Female,1,2024/02/22_15:33:46,YZ,None,
5,./instructions/inst_prac_3/Slide41.png,right,0.6812364670040552,715.4036199540133,716.0848564210173,,,,,,,,,,,,,,,,,,,,,,,,,,,,,,,,,1,,,,,,,,,,,,,,,,,,,,,,,,,,,,,,,,,,,,,,,,,,,,,,77,153187,23,Female,1,2024/02/22_15:33:46,YZ,None,
4,./instructions/inst_prac_3/Slide42.png,left,0.7556024470250122,716.1133925030008,716.8689949500258,,,,,,,,,,,,,,,,,,,,,,,,,,,,,,,,,1,,,,,,,,,,,,,,,,,,,,,,,,,,,,,,,,,,,,,,,,,,,,,,77,153187,23,Female,1,2024/02/22_15:33:46,YZ,None,
5,./instructions/inst_prac_3/Slide41.png,right,0.48276474699378014,716.8980670010205,717.3808317480143,,,,,,,,,,,,,,,,,,,,,,,,,,,,,,,,,1,,,,,,,,,,,,,,,,,,,,,,,,,,,,,,,,,,,,,,,,,,,,,,77,153187,23,Female,1,2024/02/22_15:33:46,YZ,None,
4,./instructions/inst_prac_3/Slide42.png,left,0.5267264910216909,717.406195966003,717.9329224570247,,,,,,,,,,,,,,,,,,,,,,,,,,,,,,,,,1,,,,,,,,,,,,,,,,,,,,,,,,,,,,,,,,,,,,,,,,,,,,,,77,153187,23,Female,1,2024/02/22_15:33:46,YZ,None,
5,./instructions/inst_prac_3/Slide41.png,right,0.5148440970224328,717.9621452110005,718.4769893080229,,,,,,,,,,,,,,,,,,,,,,,,,,,,,,,,,1,,,,,,,,,,,,,,,,,,,,,,,,,,,,,,,,,,,,,,,,,,,,,,77,153187,23,Female,1,2024/02/22_15:33:46,YZ,None,
4,./instructions/inst_prac_3/Slide42.png,left,0.5639425679983106,718.5050317250134,719.0689742930117,,,,,,,,,,,,,,,,,,,,,,,,,,,,,,,,,1,,,,,,,,,,,,,,,,,,,,,,,,,,,,,,,,,,,,,,,,,,,,,,77,153187,23,Female,1,2024/02/22_15:33:46,YZ,None,
5,./instructions/inst_prac_3/Slide41.png,right,0.54709913500119,719.0978716190148,719.644970754016,,,,,,,,,,,,,,,,,,,,,,,,,,,,,,,,,1,,,,,,,,,,,,,,,,,,,,,,,,,,,,,,,,,,,,,,,,,,,,,,77,153187,23,Female,1,2024/02/22_15:33:46,YZ,None,
4,./instructions/inst_prac_3/Slide42.png,left,0.5404082690074574,719.6727511250065,720.2131593940139,,,,,,,,,,,,,,,,,,,,,,,,,,,,,,,,,1,,,,,,,,,,,,,,,,,,,,,,,,,,,,,,,,,,,,,,,,,,,,,,77,153187,23,Female,1,2024/02/22_15:33:46,YZ,None,
5,./instructions/inst_prac_3/Slide41.png,right,0.5327576469862834,720.2400822240161,720.7728398710024,,,,,,,,,,,,,,,,,,,,,,,,,,,,,,,,,1,,,,,,,,,,,,,,,,,,,,,,,,,,,,,,,,,,,,,,,,,,,,,,77,153187,23,Female,1,2024/02/22_15:33:46,YZ,None,
4,./instructions/inst_prac_3/Slide42.png,left,2.307404899998801,720.8015550940181,723.1089599940169,,,,,,,,,,,,,,,,,,,,,,,,,,,,,,,,,1,,,,,,,,,,,,,,,,,,,,,,,,,,,,,,,,,,,,,,,,,,,,,,77,153187,23,Female,1,2024/02/22_15:33:46,YZ,None,
5,./instructions/inst_prac_3/Slide41.png,right,0.6093668609973975,723.1317486700136,723.741115531011,,,,,,,,,,,,,,,,,,,,,,,,,,,,,,,,,1,,,,,,,,,,,,,,,,,,,,,,,,,,,,,,,,,,,,,,,,,,,,,,77,153187,23,Female,1,2024/02/22_15:33:46,YZ,None,
4,./instructions/inst_prac_3/Slide42.png,left,0.5551117610011715,723.7697833210113,724.3248950820125,,,,,,,,,,,,,,,,,,,,,,,,,,,,,,,,,1,,,,,,,,,,,,,,,,,,,,,,,,,,,,,,,,,,,,,,,,,,,,,,77,153187,23,Female,1,2024/02/22_15:33:46,YZ,None,
5,./instructions/inst_prac_3/Slide41.png,right,0.6111564469756559,724.3536566030234,724.9648130499991,,,,,,,,,,,,,,,,,,,,,,,,,,,,,,,,,1,,,,,,,,,,,,,,,,,,,,,,,,,,,,,,,,,,,,,,,,,,,,,,77,153187,23,Female,1,2024/02/22_15:33:46,YZ,None,
4,./instructions/inst_prac_3/Slide42.png,left,0.5078713120019529,724.9931801780185,725.5010514900205,,,,,,,,,,,,,,,,,,,,,,,,,,,,,,,,,1,,,,,,,,,,,,,,,,,,,,,,,,,,,,,,,,,,,,,,,,,,,,,,77,153187,23,Female,1,2024/02/22_15:33:46,YZ,None,
5,./instructions/inst_prac_3/Slide41.png,right,0.6050833039917052,725.5278502530127,726.1329335570044,,,,,,,,,,,,,,,,,,,,,,,,,,,,,,,,,1,,,,,,,,,,,,,,,,,,,,,,,,,,,,,,,,,,,,,,,,,,,,,,77,153187,23,Female,1,2024/02/22_15:33:46,YZ,None,
4,./instructions/inst_prac_3/Slide42.png,left,0.7243890709942207,726.1606214330241,726.8850105040183,,,,,,,,,,,,,,,,,,,,,,,,,,,,,,,,,1,,,,,,,,,,,,,,,,,,,,,,,,,,,,,,,,,,,,,,,,,,,,,,77,153187,23,Female,1,2024/02/22_15:33:46,YZ,None,
5,./instructions/inst_prac_3/Slide41.png,right,0.5650930679985322,726.9117896040261,727.4768826720247,,,,,,,,,,,,,,,,,,,,,,,,,,,,,,,,,1,,,,,,,,,,,,,,,,,,,,,,,,,,,,,,,,,,,,,,,,,,,,,,77,153187,23,Female,1,2024/02/22_15:33:46,YZ,None,
4,./instructions/inst_prac_3/Slide42.png,left,0.5873005419853143,727.5057039660169,728.0930045080022,,,,,,,,,,,,,,,,,,,,,,,,,,,,,,,,,1,,,,,,,,,,,,,,,,,,,,,,,,,,,,,,,,,,,,,,,,,,,,,,77,153187,23,Female,1,2024/02/22_15:33:46,YZ,None,
5,./instructions/inst_prac_3/Slide41.png,right,0.6828422510006931,728.1221339130134,728.8049761640141,,,,,,,,,,,,,,,,,,,,,,,,,,,,,,,,,1,,,,,,,,,,,,,,,,,,,,,,,,,,,,,,,,,,,,,,,,,,,,,,77,153187,23,Female,1,2024/02/22_15:33:46,YZ,None,
4,./instructions/inst_prac_3/Slide42.png,left,0.5983666680112947,728.8306278630043,729.4289945310156,,,,,,,,,,,,,,,,,,,,,,,,,,,,,,,,,1,,,,,,,,,,,,,,,,,,,,,,,,,,,,,,,,,,,,,,,,,,,,,,77,153187,23,Female,1,2024/02/22_15:33:46,YZ,None,
5,./instructions/inst_prac_3/Slide41.png,right,2.042930232011713,729.4579810030118,731.5009112350235,,,,,,,,,,,,,,,,,,,,,,,,,,,,,,,,,1,,,,,,,,,,,,,,,,,,,,,,,,,,,,,,,,,,,,,,,,,,,,,,77,153187,23,Female,1,2024/02/22_15:33:46,YZ,None,
4,./instructions/inst_prac_3/Slide42.png,left,0.6997987820068374,731.5297410460189,732.2295398280257,,,,,,,,,,,,,,,,,,,,,,,,,,,,,,,,,1,,,,,,,,,,,,,,,,,,,,,,,,,,,,,,,,,,,,,,,,,,,,,,77,153187,23,Female,1,2024/02/22_15:33:46,YZ,None,
5,./instructions/inst_prac_3/Slide41.png,right,0.6587207620032132,732.2582510530192,732.9169718150224,,,,,,,,,,,,,,,,,,,,,,,,,,,,,,,,,1,,,,,,,,,,,,,,,,,,,,,,,,,,,,,,,,,,,,,,,,,,,,,,77,153187,23,Female,1,2024/02/22_15:33:46,YZ,None,
4,./instructions/inst_prac_3/Slide42.png,left,0.5865965989942197,732.9463974640239,733.5329940630181,,,,,,,,,,,,,,,,,,,,,,,,,,,,,,,,,1,,,,,,,,,,,,,,,,,,,,,,,,,,,,,,,,,,,,,,,,,,,,,,77,153187,23,Female,1,2024/02/22_15:33:46,YZ,None,
3,./instructions/inst_prac_3/Slide41.png,left,0.6508422309998423,733.562030044006,734.2128722750058,,,,,,,,,,,,,,,,,,,,,,,,,,,,,,,,,1,,,,,,,,,,,,,,,,,,,,,,,,,,,,,,,,,,,,,,,,,,,,,,77,153187,23,Female,1,2024/02/22_15:33:46,YZ,None,
2,./instructions/inst_prac_3/Slide40.png,left,2.1794723689963575,734.2415646120207,736.4210369810171,,,,,,,,,,,,,,,,,,,,,,,,,,,,,,,,,1,,,,,,,,,,,,,,,,,,,,,,,,,,,,,,,,,,,,,,,,,,,,,,77,153187,23,Female,1,2024/02/22_15:33:46,YZ,None,
3,./instructions/inst_prac_3/Slide39.png,right,1.1765633909963071,736.4443537750049,737.6209171660012,,,,,,,,,,,,,,,,,,,,,,,,,,,,,,,,,1,,,,,,,,,,,,,,,,,,,,,,,,,,,,,,,,,,,,,,,,,,,,,,77,153187,23,Female,1,2024/02/22_15:33:46,YZ,None,
4,./instructions/inst_prac_3/Slide40.png,right,0.3311353320023045,737.6496761430171,737.9808114750194,,,,,,,,,,,,,,,,,,,,,,,,,,,,,,,,,1,,,,,,,,,,,,,,,,,,,,,,,,,,,,,,,,,,,,,,,,,,,,,,77,153187,23,Female,1,2024/02/22_15:33:46,YZ,None,
5,./instructions/inst_prac_3/Slide41.png,right,0.2431429999996908,738.009768620017,738.2529116200167,,,,,,,,,,,,,,,,,,,,,,,,,,,,,,,,,1,,,,,,,,,,,,,,,,,,,,,,,,,,,,,,,,,,,,,,,,,,,,,,77,153187,23,Female,1,2024/02/22_15:33:46,YZ,None,
6,./instructions/inst_prac_3/Slide42.png,right,0.21916872798465192,738.2816302130232,738.5007989410078,,,,,,,,,,,,,,,,,,,,,,,,,,,,,,,,,1,,,,,,,,,,,,,,,,,,,,,,,,,,,,,,,,,,,,,,,,,,,,,,77,153187,23,Female,1,2024/02/22_15:33:46,YZ,None,
7,./instructions/inst_prac_3/Slide43.png,right,0.21733806500560604,738.5234424920054,738.740780557011,,,,,,,,,,,,,,,,,,,,,,,,,,,,,,,,,1,,,,,,,,,,,,,,,,,,,,,,,,,,,,,,,,,,,,,,,,,,,,,,77,153187,23,Female,1,2024/02/22_15:33:46,YZ,None,
8,./instructions/inst_prac_3/Slide44.png,right,6.737421936006285,738.7632906140061,745.5007125500124,,,,,,,,,,,,,,,,,,,,,,,,,,,,,,,,,1,,,,,,,,,,,,,,,,,,,,,,,,,,,,,,,,,,,,,,,,,,,,,,77,153187,23,Female,1,2024/02/22_15:33:46,YZ,None,
,,,,,,practice,0,1,3,788,1,F,0,right,1.7056726570008323,1,0,,,,,,,,,,,,,,,,,,,,,1,,,,,,,,,,,,,,,,,,,,,,,,,,,,,,,,,,,,,,,,,,,,,,77,153187,23,Female,1,2024/02/22_15:33:46,YZ,None,
,,,,,,practice,0,1,3,788,2,Q,0,right,1.2451327790040523,1,0,,,,,,,,,,,,,,,,,,,,,1,,,,,,,,,,,,,,,,,,,,,,,,,,,,,,,,,,,,,,,,,,,,,,77,153187,23,Female,1,2024/02/22_15:33:46,YZ,None,
,,,,,,practice,0,1,3,788,3,S,0,right,0.37231081098434515,1,0,,,,,,,,,,,,,,,,,,,,,1,,,,,,,,,,,,,,,,,,,,,,,,,,,,,,,,,,,,,,,,,,,,,,77,153187,23,Female,1,2024/02/22_15:33:46,YZ,None,
,,,,,,practice,0,1,3,788,4,J,0,right,0.7736170010175556,1,0,,,,,,,,,,,,,,,,,,,,,1,,,,,,,,,,,,,,,,,,,,,,,,,,,,,,,,,,,,,,,,,,,,,,77,153187,23,Female,1,2024/02/22_15:33:46,YZ,None,
,,,,,,practice,0,1,3,788,5,J,0,right,1.263328917993931,1,0,,,,,,,,,,,,,,,,,,,,,1,,,,,,,,,,,,,,,,,,,,,,,,,,,,,,,,,,,,,,,,,,,,,,77,153187,23,Female,1,2024/02/22_15:33:46,YZ,None,
,,,,,,practice,0,1,3,788,6,F,0,right,0.9212463439907879,1,0,,,,,,,,,,,,,,,,,,,,,1,,,,,,,,,,,,,,,,,,,,,,,,,,,,,,,,,,,,,,,,,,,,,,77,153187,23,Female,1,2024/02/22_15:33:46,YZ,None,
,,,,,,practice,0,1,3,788,7,J,1,left,0.5489762460056227,1,0,,,,,,,,,,,,,,,,,,,,,1,,,,,,,,,,,,,,,,,,,,,,,,,,,,,,,,,,,,,,,,,,,,,,77,153187,23,Female,1,2024/02/22_15:33:46,YZ,None,
,,,,,,practice,0,1,3,788,8,Q,0,right,0.9240591889829375,1,0,,,,,,,,,,,,,,,,,,,,,1,,,,,,,,,,,,,,,,,,,,,,,,,,,,,,,,,,,,,,,,,,,,,,77,153187,23,Female,1,2024/02/22_15:33:46,YZ,None,
,,,,,,practice,0,1,3,788,9,F,1,left,0.8356012740114238,1,0,,,,,,,,,,,,,,,,,,,,,1,,,,,,,,,,,,,,,,,,,,,,,,,,,,,,,,,,,,,,,,,,,,,,77,153187,23,Female,1,2024/02/22_15:33:46,YZ,None,
,,,,,,practice,0,1,3,788,10,C,0,right,1.1267966899904422,1,0,,,,,,,,,,,,,,,,,,,,,1,,,,,,,,,,,,,,,,,,,,,,,,,,,,,,,,,,,,,,,,,,,,,,77,153187,23,Female,1,2024/02/22_15:33:46,YZ,None,
,,,,,,practice,0,1,3,788,11,Q,1,left,0.8691569009970408,1,0,,,,,,,,,,,,,,,,,,,,,1,,,,,,,,,,,,,,,,,,,,,,,,,,,,,,,,,,,,,,,,,,,,,,77,153187,23,Female,1,2024/02/22_15:33:46,YZ,None,
,,,,,,practice,0,1,3,788,12,F,1,left,1.1564567570167128,1,0,,,,,,,,,,,,,,,,,,,,,1,,,,,,,,,,,,,,,,,,,,,,,,,,,,,,,,,,,,,,,,,,,,,,77,153187,23,Female,1,2024/02/22_15:33:46,YZ,None,
,,,,,,practice,0,1,3,788,13,S,0,right,0.8738790200150106,1,0,,,,,,,,,,,,,,,,,,,,,1,,,,,,,,,,,,,,,,,,,,,,,,,,,,,,,,,,,,,,,,,,,,,,77,153187,23,Female,1,2024/02/22_15:33:46,YZ,None,
,,,,,,practice,0,1,3,788,,,,,,,,1.0,1.0,0.0,1.0,0.0,1.0,0.9704795836162072,4,0,0,0,0,9,13,4,9,0,,,,1,,,,,,,,,,,,,,,,,,,,,,,,,,,,,,,,,,,,,,,,,,,,,,77,153187,23,Female,1,2024/02/22_15:33:46,YZ,None,
1,./instructions/inst_prac_3_next/Slide49.png,right,1.8273441389901564,771.7937512510107,773.6210953900008,,,,,,,,,,,,,,,,,,,,,,,,,,,,,,,,,1,,,,,,,,,,,,,,,,,,,,,,,,,,,,,,,,,,,,,,,,,,,,,,77,153187,23,Female,1,2024/02/22_15:33:46,YZ,None,
,,,,,,practice,0,7,3,2583,1,N,0,right,0.8315642109955661,1,0,,,,,,,,,,,,,,,,,,,,,1,,,,,,,,,,,,,,,,,,,,,,,,,,,,,,,,,,,,,,,,,,,,,,77,153187,23,Female,1,2024/02/22_15:33:46,YZ,None,
,,,,,,practice,0,7,3,2583,2,C,0,right,0.6215062050032429,1,0,,,,,,,,,,,,,,,,,,,,,1,,,,,,,,,,,,,,,,,,,,,,,,,,,,,,,,,,,,,,,,,,,,,,77,153187,23,Female,1,2024/02/22_15:33:46,YZ,None,
,,,,,,practice,0,7,3,2583,3,C,0,right,0.8330813749926165,1,0,,,,,,,,,,,,,,,,,,,,,1,,,,,,,,,,,,,,,,,,,,,,,,,,,,,,,,,,,,,,,,,,,,,,77,153187,23,Female,1,2024/02/22_15:33:46,YZ,None,
,,,,,,practice,0,7,3,2583,4,N,1,left,0.33656691599753685,1,0,,,,,,,,,,,,,,,,,,,,,1,,,,,,,,,,,,,,,,,,,,,,,,,,,,,,,,,,,,,,,,,,,,,,77,153187,23,Female,1,2024/02/22_15:33:46,YZ,None,
,,,,,,practice,0,7,3,2583,5,C,1,right,0.5082616159925237,0,0,,,,,,,,,,,,,,,,,,,,,1,,,,,,,,,,,,,,,,,,,,,,,,,,,,,,,,,,,,,,,,,,,,,,77,153187,23,Female,1,2024/02/22_15:33:46,YZ,None,
,,,,,,practice,0,7,3,2583,6,J,0,right,0.452323178993538,1,0,,,,,,,,,,,,,,,,,,,,,1,,,,,,,,,,,,,,,,,,,,,,,,,,,,,,,,,,,,,,,,,,,,,,77,153187,23,Female,1,2024/02/22_15:33:46,YZ,None,
,,,,,,practice,0,7,3,2583,,,,,,,,0.875,0.5,0.0,1.0,0.0,1.0,0.5972172503291707,1,0,0,0,0,4,5,2,4,0,,,,1,,,,,,,,,,,,,,,,,,,,,,,,,,,,,,,,,,,,,,,,,,,,,,77,153187,23,Female,1,2024/02/22_15:33:46,YZ,None,
,,,,,,practice,0,36,3,2583,1,X,0,right,1.206199182983255,1,0,,,,,,,,,,,,,,,,,,,,,1,,,,,,,,,,,,,,,,,,,,,,,,,,,,,,,,,,,,,,,,,,,,,,77,153187,23,Female,1,2024/02/22_15:33:46,YZ,None,
,,,,,,practice,0,36,3,2583,2,N,0,right,0.48297878698213026,1,0,,,,,,,,,,,,,,,,,,,,,1,,,,,,,,,,,,,,,,,,,,,,,,,,,,,,,,,,,,,,,,,,,,,,77,153187,23,Female,1,2024/02/22_15:33:46,YZ,None,
,,,,,,practice,0,36,3,2583,3,V,0,right,0.46419517500908114,1,0,,,,,,,,,,,,,,,,,,,,,1,,,,,,,,,,,,,,,,,,,,,,,,,,,,,,,,,,,,,,,,,,,,,,77,153187,23,Female,1,2024/02/22_15:33:46,YZ,None,
,,,,,,practice,0,36,3,2583,4,X,1,left,0.44530238400329836,1,0,,,,,,,,,,,,,,,,,,,,,1,,,,,,,,,,,,,,,,,,,,,,,,,,,,,,,,,,,,,,,,,,,,,,77,153187,23,Female,1,2024/02/22_15:33:46,YZ,None,
,,,,,,practice,0,36,3,2583,5,N,1,right,0.46555633400566876,0,0,,,,,,,,,,,,,,,,,,,,,1,,,,,,,,,,,,,,,,,,,,,,,,,,,,,,,,,,,,,,,,,,,,,,77,153187,23,Female,1,2024/02/22_15:33:46,YZ,None,
,,,,,,practice,0,36,3,2583,6,F,0,right,0.4962394800095353,1,0,,,,,,,,,,,,,,,,,,,,,1,,,,,,,,,,,,,,,,,,,,,,,,,,,,,,,,,,,,,,,,,,,,,,77,153187,23,Female,1,2024/02/22_15:33:46,YZ,None,
,,,,,,practice,0,36,3,2583,,,,,,,,0.875,0.5,0.0,1.0,0.0,1.0,0.5934118904988281,1,0,0,0,0,4,5,2,4,0,,,,1,,,,,,,,,,,,,,,,,,,,,,,,,,,,,,,,,,,,,,,,,,,,,,77,153187,23,Female,1,2024/02/22_15:33:46,YZ,None,
1,./instructions/inst_prac_main/Slide51.png,right,3.8708447869867086,791.1421026560129,795.0129474429996,,,,,,,,,,,,,,,,,,,,,,,,,,,,,,,,,1,,,,,,,,,,,,,,,,,,,,,,,,,,,,,,,,,,,,,,,,,,,,,,77,153187,23,Female,1,2024/02/22_15:33:46,YZ,None,
2,./instructions/inst_prac_main/Slide52.png,right,11.65014677401632,795.0427027400001,806.6928495140164,,,,,,,,,,,,,,,,,,,,,,,,,,,,,,,,,1,,,,,,,,,,,,,,,,,,,,,,,,,,,,,,,,,,,,,,,,,,,,,,77,153187,23,Female,1,2024/02/22_15:33:46,YZ,None,
3,./instructions/inst_prac_main/Slide53.png,right,4.492944102996262,806.7200261010148,811.2129702040111,,,,,,,,,,,,,,,,,,,,,,,,,,,,,,,,,1,,,,,,,,,,,,,,,,,,,,,,,,,,,,,,,,,,,,,,,,,,,,,,77,153187,23,Female,1,2024/02/22_15:33:46,YZ,None,
4,./instructions/inst_prac_main/Slide54.png,right,14.861128577002091,811.2397659580165,826.1008945350186,,,,,,,,,,,,,,,,,,,,,,,,,,,,,,,,,1,,,,,,,,,,,,,,,,,,,,,,,,,,,,,,,,,,,,,,,,,,,,,,77,153187,23,Female,1,2024/02/22_15:33:46,YZ,None,
,,,,,,practice_main,0,1,1,2583,1,C,0,right,0.8281289380101953,1,0,,,,,,,,,,,,,,,,,,,,,1,,,,,,,,,,,,,,,,,,,,,,,,,,,,,,,,,,,,,,,,,,,,,,77,153187,23,Female,1,2024/02/22_15:33:46,YZ,None,
,,,,,,practice_main,0,1,1,2583,2,C,1,left,0.5262818640039768,1,0,,,,,,,,,,,,,,,,,,,,,1,,,,,,,,,,,,,,,,,,,,,,,,,,,,,,,,,,,,,,,,,,,,,,77,153187,23,Female,1,2024/02/22_15:33:46,YZ,None,
,,,,,,practice_main,0,1,1,2583,3,F,0,right,0.8082569359976333,1,0,,,,,,,,,,,,,,,,,,,,,1,,,,,,,,,,,,,,,,,,,,,,,,,,,,,,,,,,,,,,,,,,,,,,77,153187,23,Female,1,2024/02/22_15:33:46,YZ,None,
,,,,,,practice_main,0,1,1,2583,4,C,0,right,0.9621825370122679,1,0,,,,,,,,,,,,,,,,,,,,,1,,,,,,,,,,,,,,,,,,,,,,,,,,,,,,,,,,,,,,,,,,,,,,77,153187,23,Female,1,2024/02/22_15:33:46,YZ,None,
,,,,,,practice_main,0,1,1,2583,5,S,0,right,0.7642554880003445,1,0,,,,,,,,,,,,,,,,,,,,,1,,,,,,,,,,,,,,,,,,,,,,,,,,,,,,,,,,,,,,,,,,,,,,77,153187,23,Female,1,2024/02/22_15:33:46,YZ,None,
,,,,,,practice_main,0,1,1,2583,6,S,1,left,0.575040978990728,1,0,,,,,,,,,,,,,,,,,,,,,1,,,,,,,,,,,,,,,,,,,,,,,,,,,,,,,,,,,,,,,,,,,,,,77,153187,23,Female,1,2024/02/22_15:33:46,YZ,None,
,,,,,,practice_main,0,1,1,2583,,,,,,,,1.0,1.0,0.0,1.0,0.0,1.0,0.7440244570025243,2,0,0,0,0,4,6,2,4,0,,,,1,,,,,,,,,,,,,,,,,,,,,,,,,,,,,,,,,,,,,,,,,,,,,,77,153187,23,Female,1,2024/02/22_15:33:46,YZ,None,
,,,,,240222_161223,PRACTICE,0,1,1,2583,,,,,,,,,,,,,,,,,,,,,,,,,,,,1,50,1,1,cue1.png,easy,A,80,2.1762365929898806,0,829.1631509210274,831.3646770150226,,,,,,,,,,,,,,,,,,,,,,,,,,,,,,,,,,,77,153187,23,Female,1,2024/02/22_15:33:46,YZ,None,
,,,,,,practice_main,0,2,3,2583,1,S,0,right,0.6924553560093045,1,0,,,,,,,,,,,,,,,,,,,,,1,,,,,,,,,,,,,,,,,,,,,,,,,,,,,,,,,,,,,,,,,,,,,,77,153187,23,Female,1,2024/02/22_15:33:46,YZ,None,
,,,,,,practice_main,0,2,3,2583,2,Q,0,right,0.46426525100832805,1,0,,,,,,,,,,,,,,,,,,,,,1,,,,,,,,,,,,,,,,,,,,,,,,,,,,,,,,,,,,,,,,,,,,,,77,153187,23,Female,1,2024/02/22_15:33:46,YZ,None,
,,,,,,practice_main,0,2,3,2583,3,C,0,right,0.32184667501132935,1,0,,,,,,,,,,,,,,,,,,,,,1,,,,,,,,,,,,,,,,,,,,,,,,,,,,,,,,,,,,,,,,,,,,,,77,153187,23,Female,1,2024/02/22_15:33:46,YZ,None,
,,,,,,practice_main,0,2,3,2583,4,S,1,left,0.6623508690099698,1,0,,,,,,,,,,,,,,,,,,,,,1,,,,,,,,,,,,,,,,,,,,,,,,,,,,,,,,,,,,,,,,,,,,,,77,153187,23,Female,1,2024/02/22_15:33:46,YZ,None,
,,,,,,practice_main,0,2,3,2583,5,Q,1,right,0.34129896500962786,0,0,,,,,,,,,,,,,,,,,,,,,1,,,,,,,,,,,,,,,,,,,,,,,,,,,,,,,,,,,,,,,,,,,,,,77,153187,23,Female,1,2024/02/22_15:33:46,YZ,None,
,,,,,,practice_main,0,2,3,2583,6,X,0,right,0.5119912849913817,1,0,,,,,,,,,,,,,,,,,,,,,1,,,,,,,,,,,,,,,,,,,,,,,,,,,,,,,,,,,,,,,,,,,,,,77,153187,23,Female,1,2024/02/22_15:33:46,YZ,None,
,,,,,,practice_main,0,2,3,2583,,,,,,,,0.875,0.5,0.0,1.0,0.0,1.0,0.4990347335066569,1,0,0,0,0,4,5,2,4,0,,,,1,,,,,,,,,,,,,,,,,,,,,,,,,,,,,,,,,,,,,,,,,,,,,,77,153187,23,Female,1,2024/02/22_15:33:46,YZ,None,
,,,,,240222_161241,PRACTICE,0,2,3,2583,,,,,,,,,,,,,,,,,,,,,,,,,,,,1,6,2,2,cue2.png,hard,A,58,1.8420656959933694,0,848.1194766460103,849.976724690001,,,,,,,,,,,,,,,,,,,,,,,,,,,,,,,,,,,77,153187,23,Female,1,2024/02/22_15:33:46,YZ,None,
,,,,,,practice_main,0,3,3,2583,1,X,0,right,0.9494787250005174,1,0,,,,,,,,,,,,,,,,,,,,,1,,,,,,,,,,,,,,,,,,,,,,,,,,,,,,,,,,,,,,,,,,,,,,77,153187,23,Female,1,2024/02/22_15:33:46,YZ,None,
,,,,,,practice_main,0,3,3,2583,2,N,0,right,0.3315303630079143,1,0,,,,,,,,,,,,,,,,,,,,,1,,,,,,,,,,,,,,,,,,,,,,,,,,,,,,,,,,,,,,,,,,,,,,77,153187,23,Female,1,2024/02/22_15:33:46,YZ,None,
,,,,,,practice_main,0,3,3,2583,3,N,0,right,0.3717190600000322,1,0,,,,,,,,,,,,,,,,,,,,,1,,,,,,,,,,,,,,,,,,,,,,,,,,,,,,,,,,,,,,,,,,,,,,77,153187,23,Female,1,2024/02/22_15:33:46,YZ,None,
,,,,,,practice_main,0,3,3,2583,4,X,1,right,0.5122369499877095,0,0,,,,,,,,,,,,,,,,,,,,,1,,,,,,,,,,,,,,,,,,,,,,,,,,,,,,,,,,,,,,,,,,,,,,77,153187,23,Female,1,2024/02/22_15:33:46,YZ,None,
,,,,,,practice_main,0,3,3,2583,5,N,1,left,0.30715858898474835,1,0,,,,,,,,,,,,,,,,,,,,,1,,,,,,,,,,,,,,,,,,,,,,,,,,,,,,,,,,,,,,,,,,,,,,77,153187,23,Female,1,2024/02/22_15:33:46,YZ,None,
,,,,,,practice_main,0,3,3,2583,6,J,0,right,0.3041850260051433,1,0,,,,,,,,,,,,,,,,,,,,,1,,,,,,,,,,,,,,,,,,,,,,,,,,,,,,,,,,,,,,,,,,,,,,77,153187,23,Female,1,2024/02/22_15:33:46,YZ,None,
,,,,,,practice_main,0,3,3,2583,,,,,,,,0.875,0.5,0.0,1.0,0.0,1.0,0.4627181188310108,1,0,0,0,0,4,5,2,4,0,,,,1,,,,,,,,,,,,,,,,,,,,,,,,,,,,,,,,,,,,,,,,,,,,,,77,153187,23,Female,1,2024/02/22_15:33:46,YZ,None,
,,,,,240222_161257,PRACTICE,0,3,3,2583,,,,,,,,,,,,,,,,,,,,,,,,,,,,1,43,3,3,cue2.png,hard,A,60,1.6989134489849675,0,865.2169275940105,866.9321228070185,,,,,,,,,,,,,,,,,,,,,,,,,,,,,,,,,,,77,153187,23,Female,1,2024/02/22_15:33:46,YZ,None,
1,./instructions/inst_prac_end/Slide56.png,right,327.2194435360143,880.489427271008,1207.7088708070223,,,,,,,,,,,,,,,,,,,,,,,,,,,,,,,,,1,,,,,,,,,,,,,,,,,,,,,,,,,,,,,,,,,,,,,,,,,,,,,,77,153187,23,Female,1,2024/02/22_15:33:46,YZ,None,
-1,./instructions/inst_test/Slide57.png,left,2.9427129440009594,1207.7421540150244,1210.6848669590254,,,,,,,,,,,,,,,,,,,,,,,,,,,,,,,,,1,,,,,,,,,,,,,,,,,,,,,,,,,,,,,,,,,,,,,,,,,,,,,,77,153187,23,Female,1,2024/02/22_15:33:46,YZ,None,
2,./instructions/inst_prac_main/Slide52.png,right,1.8653499690117314,1211.7393827910128,1213.6047327600245,,,,,,,,,,,,,,,,,,,,,,,,,,,,,,,,,1,,,,,,,,,,,,,,,,,,,,,,,,,,,,,,,,,,,,,,,,,,,,,,77,153187,23,Female,1,2024/02/22_15:33:46,YZ,None,
1,./instructions/inst_prac_main/Slide53.png,left,2.956890895991819,1213.6322558660177,1216.5891467620095,,,,,,,,,,,,,,,,,,,,,,,,,,,,,,,,,1,,,,,,,,,,,,,,,,,,,,,,,,,,,,,,,,,,,,,,,,,,,,,,77,153187,23,Female,1,2024/02/22_15:33:46,YZ,None,
2,./instructions/inst_prac_main/Slide52.png,right,0.9309511739993468,1216.6176352630137,1217.548586437013,,,,,,,,,,,,,,,,,,,,,,,,,,,,,,,,,1,,,,,,,,,,,,,,,,,,,,,,,,,,,,,,,,,,,,,,,,,,,,,,77,153187,23,Female,1,2024/02/22_15:33:46,YZ,None,
3,./instructions/inst_prac_main/Slide53.png,right,0.6272103130177129,1217.5776875480078,1218.2048978610255,,,,,,,,,,,,,,,,,,,,,,,,,,,,,,,,,1,,,,,,,,,,,,,,,,,,,,,,,,,,,,,,,,,,,,,,,,,,,,,,77,153187,23,Female,1,2024/02/22_15:33:46,YZ,None,
4,./instructions/inst_prac_main/Slide54.png,right,2.034712133987341,1218.2342141870176,1220.268926321005,,,,,,,,,,,,,,,,,,,,,,,,,,,,,,,,,1,,,,,,,,,,,,,,,,,,,,,,,,,,,,,,,,,,,,,,,,,,,,,,77,153187,23,Female,1,2024/02/22_15:33:46,YZ,None,
,,,,,,practice_main,0,1,1,2583,1,C,0,right,1.8425639609922655,1,0,,,,,,,,,,,,,,,,,,,,,1,,,,,,,,,,,,,,,,,,,,,,,,,,,,,,,,,,,,,,,,,,,,,,77,153187,23,Female,1,2024/02/22_15:33:46,YZ,None,
,,,,,,practice_main,0,1,1,2583,2,C,1,left,0.6090263850055635,1,0,,,,,,,,,,,,,,,,,,,,,1,,,,,,,,,,,,,,,,,,,,,,,,,,,,,,,,,,,,,,,,,,,,,,77,153187,23,Female,1,2024/02/22_15:33:46,YZ,None,
,,,,,,practice_main,0,1,1,2583,3,F,0,right,0.3063586659845896,1,0,,,,,,,,,,,,,,,,,,,,,1,,,,,,,,,,,,,,,,,,,,,,,,,,,,,,,,,,,,,,,,,,,,,,77,153187,23,Female,1,2024/02/22_15:33:46,YZ,None,
,,,,,,practice_main,0,1,1,2583,4,C,0,left,0.7232222910097335,0,0,,,,,,,,,,,,,,,,,,,,,1,,,,,,,,,,,,,,,,,,,,,,,,,,,,,,,,,,,,,,,,,,,,,,77,153187,23,Female,1,2024/02/22_15:33:46,YZ,None,
,,,,,,practice_main,0,1,1,2583,5,S,0,right,0.167874656006461,1,0,,,,,,,,,,,,,,,,,,,,,1,,,,,,,,,,,,,,,,,,,,,,,,,,,,,,,,,,,,,,,,,,,,,,77,153187,23,Female,1,2024/02/22_15:33:46,YZ,None,
,,,,,,practice_main,0,1,1,2583,6,S,1,left,0.5872560130083002,1,0,,,,,,,,,,,,,,,,,,,,,1,,,,,,,,,,,,,,,,,,,,,,,,,,,,,,,,,,,,,,,,,,,,,,77,153187,23,Female,1,2024/02/22_15:33:46,YZ,None,
,,,,,,practice_main,0,1,1,2583,,,,,,,,0.9375,1.0,0.25,0.75,0.0,0.75,0.7060503286678189,2,1,0,0,0,3,5,2,4,0,,,,1,,,,,,,,,,,,,,,,,,,,,,,,,,,,,,,,,,,,,,,,,,,,,,77,153187,23,Female,1,2024/02/22_15:33:46,YZ,None,
,,,,,240222_161858,PRACTICE,0,1,1,2583,,,,,,,,,,,,,,,,,,,,,,,,,,,,1,1,1,1,cue1.png,easy,A,61,2.0220329189905897,0,1224.3283978960244,1226.3675854750036,,,,,,,,,,,,,,,,,,,,,,,,,,,,,,,,,,,77,153187,23,Female,1,2024/02/22_15:33:46,YZ,None,
,,,,,,practice_main,0,2,1,2583,1,X,0,right,0.3621130290266592,1,0,,,,,,,,,,,,,,,,,,,,,1,,,,,,,,,,,,,,,,,,,,,,,,,,,,,,,,,,,,,,,,,,,,,,77,153187,23,Female,1,2024/02/22_15:33:46,YZ,None,
,,,,,,practice_main,0,2,1,2583,2,X,1,left,0.3532819130050484,1,0,,,,,,,,,,,,,,,,,,,,,1,,,,,,,,,,,,,,,,,,,,,,,,,,,,,,,,,,,,,,,,,,,,,,77,153187,23,Female,1,2024/02/22_15:33:46,YZ,None,
,,,,,,practice_main,0,2,1,2583,3,S,0,right,0.3046174109913409,1,0,,,,,,,,,,,,,,,,,,,,,1,,,,,,,,,,,,,,,,,,,,,,,,,,,,,,,,,,,,,,,,,,,,,,77,153187,23,Female,1,2024/02/22_15:33:46,YZ,None,
,,,,,,practice_main,0,2,1,2583,4,F,0,right,0.32867740900837816,1,0,,,,,,,,,,,,,,,,,,,,,1,,,,,,,,,,,,,,,,,,,,,,,,,,,,,,,,,,,,,,,,,,,,,,77,153187,23,Female,1,2024/02/22_15:33:46,YZ,None,
,,,,,,practice_main,0,2,1,2583,5,X,0,right,0.47228805100894533,1,0,,,,,,,,,,,,,,,,,,,,,1,,,,,,,,,,,,,,,,,,,,,,,,,,,,,,,,,,,,,,,,,,,,,,77,153187,23,Female,1,2024/02/22_15:33:46,YZ,None,
,,,,,,practice_main,0,2,1,2583,6,X,1,left,0.4012985790031962,1,0,,,,,,,,,,,,,,,,,,,,,1,,,,,,,,,,,,,,,,,,,,,,,,,,,,,,,,,,,,,,,,,,,,,,77,153187,23,Female,1,2024/02/22_15:33:46,YZ,None,
,,,,,,practice_main,0,2,1,2583,,,,,,,,1.0,1.0,0.0,1.0,0.0,1.0,0.37037939867392805,2,0,0,0,0,4,6,2,4,0,,,,1,,,,,,,,,,,,,,,,,,,,,,,,,,,,,,,,,,,,,,,,,,,,,,77,153187,23,Female,1,2024/02/22_15:33:46,YZ,None,
,,,,,240222_161915,PRACTICE,0,2,1,2583,,,,,,,,,,,,,,,,,,,,,,,,,,,,1,13,2,2,cue1.png,easy,A,61,1.924625160987489,0,1242.8630197780149,1244.816611318005,,,,,,,,,,,,,,,,,,,,,,,,,,,,,,,,,,,77,153187,23,Female,1,2024/02/22_15:33:46,YZ,None,
,,,,,,practice_main,0,3,3,2583,1,X,0,right,0.6485533539962489,1,0,,,,,,,,,,,,,,,,,,,,,1,,,,,,,,,,,,,,,,,,,,,,,,,,,,,,,,,,,,,,,,,,,,,,77,153187,23,Female,1,2024/02/22_15:33:46,YZ,None,
,,,,,,practice_main,0,3,3,2583,2,N,0,right,0.30737742700148374,1,0,,,,,,,,,,,,,,,,,,,,,1,,,,,,,,,,,,,,,,,,,,,,,,,,,,,,,,,,,,,,,,,,,,,,77,153187,23,Female,1,2024/02/22_15:33:46,YZ,None,
,,,,,,practice_main,0,3,3,2583,3,N,0,right,0.29790402299840935,1,0,,,,,,,,,,,,,,,,,,,,,1,,,,,,,,,,,,,,,,,,,,,,,,,,,,,,,,,,,,,,,,,,,,,,77,153187,23,Female,1,2024/02/22_15:33:46,YZ,None,
,,,,,,practice_main,0,3,3,2583,4,X,1,left,0.234733112010872,1,0,,,,,,,,,,,,,,,,,,,,,1,,,,,,,,,,,,,,,,,,,,,,,,,,,,,,,,,,,,,,,,,,,,,,77,153187,23,Female,1,2024/02/22_15:33:46,YZ,None,
,,,,,,practice_main,0,3,3,2583,5,N,1,right,0.2893487509863917,0,0,,,,,,,,,,,,,,,,,,,,,1,,,,,,,,,,,,,,,,,,,,,,,,,,,,,,,,,,,,,,,,,,,,,,77,153187,23,Female,1,2024/02/22_15:33:46,YZ,None,
,,,,,,practice_main,0,3,3,2583,6,J,0,right,0.3041479180101305,1,0,,,,,,,,,,,,,,,,,,,,,1,,,,,,,,,,,,,,,,,,,,,,,,,,,,,,,,,,,,,,,,,,,,,,77,153187,23,Female,1,2024/02/22_15:33:46,YZ,None,
,,,,,,practice_main,0,3,3,2583,,,,,,,,0.875,0.5,0.0,1.0,0.0,1.0,0.347010764167256,1,0,0,0,0,4,5,2,4,0,,,,1,,,,,,,,,,,,,,,,,,,,,,,,,,,,,,,,,,,,,,,,,,,,,,77,153187,23,Female,1,2024/02/22_15:33:46,YZ,None,
,,,,,240222_161932,PRACTICE,0,3,3,2583,,,,,,,,,,,,,,,,,,,,,,,,,,,,1,23,3,3,cue2.png,hard,A,61,2.831804371002363,0,1259.2869860790088,1262.1357101330068,,,,,,,,,,,,,,,,,,,,,,,,,,,,,,,,,,,77,153187,23,Female,1,2024/02/22_15:33:46,YZ,None,
