Instruction,Stimulus,Key,RT,START,END,Phase,Block,TrialN,NbackLevel,ISI,LetterN,Letter,Letter_isSame,Letter_Resp,Letter_RT,Letter_Accuracy,Letter_Timeout,Trial_A_measure,Trial_HR,Trial_FAR,Trial_CDR,Trial_MSR,Trial_ACC,Trial_RT,Trial_HitsCount,Trial_FAsCount,Trial_SameNoRespCount,Trial_DiffNoRespCount,Trial_NoRespCount,Trial_CDsCount,Trial_CorrectRespCount,Trial_SameLetterCount,Trial_DiffLetterCount,Trial_InvalidLetterCount,TrialCountCali,CaliEnd_A_measure,ISI_calibrated,Run,TrialIndex,TrialNumber_total,TrialNumber_valid,CueLearning,TrialDemandLearning,CueMapping,OnlineRating,OnlineRatingRT,OnlineRatingTimeOut,CueSTART,RatingSTART,OfflineRatingTimePoint,OfflineRatingQuesIndex,CueFigure,TrialDemand,OfflineRating,OfflineRatingRT,CueStart,OfflineRatingStart,PhaseType,CueLeft,CueDemandLeft,CueRight,CueDemandRight,Choice,ChoiceDemand,TaskDemand,ChoiceRT,ChoiceTimeOut,ChoiceSTART,CueCheck,CueDemandCheck,CorrectAnswer,Answer,AnswerDemand,AnswerRT,AnswerACC,AnswerTimeOut,CheckSTART,DemandRatingQuesIndex,QuesTLX,DemandLevel,DemandRating,DemandRatingRT,QuesStart,PID,SONA,Age,Gender,Run,TIME,EXPERIMENTER,frameRate,
1,./instructions/inst_begin/Slide2.png,right,16.199895135010593,0.11034967898740433,16.310244813997997,,,,,,,,,,,,,,,,,,,,,,,,,,,,,,,,,1,,,,,,,,,,,,,,,,,,,,,,,,,,,,,,,,,,,,,,,,,,,,,,71,146191,21,Female,1,2024/02/20_14:39:49,YZ,None,
2,./instructions/inst_begin/Slide3.png,right,6.018719707004493,16.33932913398894,22.358048840993433,,,,,,,,,,,,,,,,,,,,,,,,,,,,,,,,,1,,,,,,,,,,,,,,,,,,,,,,,,,,,,,,,,,,,,,,,,,,,,,,71,146191,21,Female,1,2024/02/20_14:39:49,YZ,None,
3,./instructions/inst_begin/Slide4.png,right,4.466477810012293,22.38751999598753,26.853997805999825,,,,,,,,,,,,,,,,,,,,,,,,,,,,,,,,,1,,,,,,,,,,,,,,,,,,,,,,,,,,,,,,,,,,,,,,,,,,,,,,71,146191,21,Female,1,2024/02/20_14:39:49,YZ,None,
1,./instructions/inst_prac_2/Slide6.png,right,23.1063521449978,26.883602809990407,49.98995495498821,,,,,,,,,,,,,,,,,,,,,,,,,,,,,,,,,1,,,,,,,,,,,,,,,,,,,,,,,,,,,,,,,,,,,,,,,,,,,,,,71,146191,21,Female,1,2024/02/20_14:39:49,YZ,None,
2,./instructions/inst_prac_2/Slide7.png,right,24.117649762003566,50.01661731398781,74.13426707599137,,,,,,,,,,,,,,,,,,,,,,,,,,,,,,,,,1,,,,,,,,,,,,,,,,,,,,,,,,,,,,,,,,,,,,,,,,,,,,,,71,146191,21,Female,1,2024/02/20_14:39:49,YZ,None,
3,./instructions/inst_prac_2/Slide8.png,right,7.859389842997189,74.16275095299352,82.02214079599071,,,,,,,,,,,,,,,,,,,,,,,,,,,,,,,,,1,,,,,,,,,,,,,,,,,,,,,,,,,,,,,,,,,,,,,,,,,,,,,,71,146191,21,Female,1,2024/02/20_14:39:49,YZ,None,
4,./instructions/inst_prac_2/Slide9.png,right,4.307004176007467,82.05115705699427,86.35816123300174,,,,,,,,,,,,,,,,,,,,,,,,,,,,,,,,,1,,,,,,,,,,,,,,,,,,,,,,,,,,,,,,,,,,,,,,,,,,,,,,71,146191,21,Female,1,2024/02/20_14:39:49,YZ,None,
5,./instructions/inst_prac_2/Slide10.png,right,1.011158430002979,86.38674824799818,87.39790667800116,,,,,,,,,,,,,,,,,,,,,,,,,,,,,,,,,1,,,,,,,,,,,,,,,,,,,,,,,,,,,,,,,,,,,,,,,,,,,,,,71,146191,21,Female,1,2024/02/20_14:39:49,YZ,None,
6,./instructions/inst_prac_2/Slide11.png,right,0.7483886809932301,87.42562219400133,88.17401087499456,,,,,,,,,,,,,,,,,,,,,,,,,,,,,,,,,1,,,,,,,,,,,,,,,,,,,,,,,,,,,,,,,,,,,,,,,,,,,,,,71,146191,21,Female,1,2024/02/20_14:39:49,YZ,None,
7,./instructions/inst_prac_2/Slide12.png,right,0.9872549049905501,88.20262018199719,89.18987508698774,,,,,,,,,,,,,,,,,,,,,,,,,,,,,,,,,1,,,,,,,,,,,,,,,,,,,,,,,,,,,,,,,,,,,,,,,,,,,,,,71,146191,21,Female,1,2024/02/20_14:39:49,YZ,None,
8,./instructions/inst_prac_2/Slide13.png,right,2.106898212005035,89.2191903579951,91.32608857000014,,,,,,,,,,,,,,,,,,,,,,,,,,,,,,,,,1,,,,,,,,,,,,,,,,,,,,,,,,,,,,,,,,,,,,,,,,,,,,,,71,146191,21,Female,1,2024/02/20_14:39:49,YZ,None,
9,./instructions/inst_prac_2/Slide14.png,right,9.875474725995446,91.3546296400018,101.23010436599725,,,,,,,,,,,,,,,,,,,,,,,,,,,,,,,,,1,,,,,,,,,,,,,,,,,,,,,,,,,,,,,,,,,,,,,,,,,,,,,,71,146191,21,Female,1,2024/02/20_14:39:49,YZ,None,
10,./instructions/inst_prac_2/Slide15.png,right,6.082511671003886,101.25960366199433,107.34211533299822,,,,,,,,,,,,,,,,,,,,,,,,,,,,,,,,,1,,,,,,,,,,,,,,,,,,,,,,,,,,,,,,,,,,,,,,,,,,,,,,71,146191,21,Female,1,2024/02/20_14:39:49,YZ,None,
,,,,,,practice,0,25,2,2583,1,F,0,right,4.617893146001734,1,0,,,,,,,,,,,,,,,,,,,,,1,,,,,,,,,,,,,,,,,,,,,,,,,,,,,,,,,,,,,,,,,,,,,,71,146191,21,Female,1,2024/02/20_14:39:49,YZ,None,
,,,,,,practice,0,25,2,2583,2,C,0,right,0.7401732440048363,1,0,,,,,,,,,,,,,,,,,,,,,1,,,,,,,,,,,,,,,,,,,,,,,,,,,,,,,,,,,,,,,,,,,,,,71,146191,21,Female,1,2024/02/20_14:39:49,YZ,None,
,,,,,,practice,0,25,2,2583,3,N,1,right,0.4652211049979087,0,0,,,,,,,,,,,,,,,,,,,,,1,,,,,,,,,,,,,,,,,,,,,,,,,,,,,,,,,,,,,,,,,,,,,,71,146191,21,Female,1,2024/02/20_14:39:49,YZ,None,
,,,,,,practice,0,25,2,2583,4,S,0,right,0.9930065009975806,1,0,,,,,,,,,,,,,,,,,,,,,1,,,,,,,,,,,,,,,,,,,,,,,,,,,,,,,,,,,,,,,,,,,,,,71,146191,21,Female,1,2024/02/20_14:39:49,YZ,None,
,,,,,,practice,0,25,2,2583,5,N,1,left,0.7611884660000214,1,0,,,,,,,,,,,,,,,,,,,,,1,,,,,,,,,,,,,,,,,,,,,,,,,,,,,,,,,,,,,,,,,,,,,,71,146191,21,Female,1,2024/02/20_14:39:49,YZ,None,
,,,,,,practice,0,25,2,2583,6,S,0,left,0.8439128350000829,0,0,,,,,,,,,,,,,,,,,,,,,1,,,,,,,,,,,,,,,,,,,,,,,,,,,,,,,,,,,,,,,,,,,,,,71,146191,21,Female,1,2024/02/20_14:39:49,YZ,None,
,,,,,,practice,0,25,2,2583,,,,,,,,0.6875,0.5,0.25,0.75,0.0,0.75,1.4035658828336939,1,1,0,0,0,3,4,2,4,0,,,,1,,,,,,,,,,,,,,,,,,,,,,,,,,,,,,,,,,,,,,,,,,,,,,71,146191,21,Female,1,2024/02/20_14:39:49,YZ,None,
1,./instructions/inst_redo_2/Slide18.png,right,11.96944194000389,123.12462742198841,135.0940693619923,,,,,,,,,,,,,,,,,,,,,,,,,,,,,,,,,1,,,,,,,,,,,,,,,,,,,,,,,,,,,,,,,,,,,,,,,,,,,,,,71,146191,21,Female,1,2024/02/20_14:39:49,YZ,None,
,,,,,,practice,0,29,2,2583,1,F,0,right,1.762670711003011,1,0,,,,,,,,,,,,,,,,,,,,,1,,,,,,,,,,,,,,,,,,,,,,,,,,,,,,,,,,,,,,,,,,,,,,71,146191,21,Female,1,2024/02/20_14:39:49,YZ,None,
,,,,,,practice,0,29,2,2583,2,J,0,right,1.2277081170032034,1,0,,,,,,,,,,,,,,,,,,,,,1,,,,,,,,,,,,,,,,,,,,,,,,,,,,,,,,,,,,,,,,,,,,,,71,146191,21,Female,1,2024/02/20_14:39:49,YZ,None,
,,,,,,practice,0,29,2,2583,3,N,0,right,0.7751517889992101,1,0,,,,,,,,,,,,,,,,,,,,,1,,,,,,,,,,,,,,,,,,,,,,,,,,,,,,,,,,,,,,,,,,,,,,71,146191,21,Female,1,2024/02/20_14:39:49,YZ,None,
,,,,,,practice,0,29,2,2583,4,J,1,left,1.0121652289963095,1,0,,,,,,,,,,,,,,,,,,,,,1,,,,,,,,,,,,,,,,,,,,,,,,,,,,,,,,,,,,,,,,,,,,,,71,146191,21,Female,1,2024/02/20_14:39:49,YZ,None,
,,,,,,practice,0,29,2,2583,5,F,0,right,0.8034808649972547,1,0,,,,,,,,,,,,,,,,,,,,,1,,,,,,,,,,,,,,,,,,,,,,,,,,,,,,,,,,,,,,,,,,,,,,71,146191,21,Female,1,2024/02/20_14:39:49,YZ,None,
,,,,,,practice,0,29,2,2583,6,J,1,left,0.9242574439995224,1,0,,,,,,,,,,,,,,,,,,,,,1,,,,,,,,,,,,,,,,,,,,,,,,,,,,,,,,,,,,,,,,,,,,,,71,146191,21,Female,1,2024/02/20_14:39:49,YZ,None,
,,,,,,practice,0,29,2,2583,,,,,,,,1.0,1.0,0.0,1.0,0.0,1.0,1.0842390258330852,2,0,0,0,0,4,6,2,4,0,,,,1,,,,,,,,,,,,,,,,,,,,,,,,,,,,,,,,,,,,,,,,,,,,,,71,146191,21,Female,1,2024/02/20_14:39:49,YZ,None,
1,./instructions/inst_to_cali/Slide20.png,right,4.532447871999466,148.95363045799604,153.4860783299955,,,,,,,,,,,,,,,,,,,,,,,,,,,,,,,,,1,,,,,,,,,,,,,,,,,,,,,,,,,,,,,,,,,,,,,,,,,,,,,,71,146191,21,Female,1,2024/02/20_14:39:49,YZ,None,
1,./instructions/inst_cali/Slide22.png,right,5.287035629997263,153.51906826499908,158.80610389499634,,,,,,,,,,,,,,,,,,,,,,,,,,,,,,,,,1,,,,,,,,,,,,,,,,,,,,,,,,,,,,,,,,,,,,,,,,,,,,,,71,146191,21,Female,1,2024/02/20_14:39:49,YZ,None,
,,,,,,calibration,0,36,2,583,1,S,0,right,1.192286631994648,1,0,,,,,,,,,,,,,,,,,,,,,1,,,,,,,,,,,,,,,,,,,,,,,,,,,,,,,,,,,,,,,,,,,,,,71,146191,21,Female,1,2024/02/20_14:39:49,YZ,None,
,,,,,,calibration,0,36,2,583,2,Q,0,right,1.1916952379979193,1,0,,,,,,,,,,,,,,,,,,,,,1,,,,,,,,,,,,,,,,,,,,,,,,,,,,,,,,,,,,,,,,,,,,,,71,146191,21,Female,1,2024/02/20_14:39:49,YZ,None,
,,,,,,calibration,0,36,2,583,3,C,0,right,0.8575862489960855,1,0,,,,,,,,,,,,,,,,,,,,,1,,,,,,,,,,,,,,,,,,,,,,,,,,,,,,,,,,,,,,,,,,,,,,71,146191,21,Female,1,2024/02/20_14:39:49,YZ,None,
,,,,,,calibration,0,36,2,583,4,Q,1,left,0.7350596339965705,1,0,,,,,,,,,,,,,,,,,,,,,1,,,,,,,,,,,,,,,,,,,,,,,,,,,,,,,,,,,,,,,,,,,,,,71,146191,21,Female,1,2024/02/20_14:39:49,YZ,None,
,,,,,,calibration,0,36,2,583,5,N,0,right,0.805030509000062,1,0,,,,,,,,,,,,,,,,,,,,,1,,,,,,,,,,,,,,,,,,,,,,,,,,,,,,,,,,,,,,,,,,,,,,71,146191,21,Female,1,2024/02/20_14:39:49,YZ,None,
,,,,,,calibration,0,36,2,583,6,X,0,right,0.5529734970041318,1,0,,,,,,,,,,,,,,,,,,,,,1,,,,,,,,,,,,,,,,,,,,,,,,,,,,,,,,,,,,,,,,,,,,,,71,146191,21,Female,1,2024/02/20_14:39:49,YZ,None,
,,,,,,calibration,0,36,2,583,7,F,0,right,0.5390085280087078,1,0,,,,,,,,,,,,,,,,,,,,,1,,,,,,,,,,,,,,,,,,,,,,,,,,,,,,,,,,,,,,,,,,,,,,71,146191,21,Female,1,2024/02/20_14:39:49,YZ,None,
,,,,,,calibration,0,36,2,583,8,S,0,right,0.9079207429895177,1,0,,,,,,,,,,,,,,,,,,,,,1,,,,,,,,,,,,,,,,,,,,,,,,,,,,,,,,,,,,,,,,,,,,,,71,146191,21,Female,1,2024/02/20_14:39:49,YZ,None,
,,,,,,calibration,0,36,2,583,9,F,1,left,0.7024183409957914,1,0,,,,,,,,,,,,,,,,,,,,,1,,,,,,,,,,,,,,,,,,,,,,,,,,,,,,,,,,,,,,,,,,,,,,71,146191,21,Female,1,2024/02/20_14:39:49,YZ,None,
,,,,,,calibration,0,36,2,583,10,V,0,right,0.49605360699933954,1,0,,,,,,,,,,,,,,,,,,,,,1,,,,,,,,,,,,,,,,,,,,,,,,,,,,,,,,,,,,,,,,,,,,,,71,146191,21,Female,1,2024/02/20_14:39:49,YZ,None,
,,,,,,calibration,0,36,2,583,11,C,0,right,0.5121074540074915,1,0,,,,,,,,,,,,,,,,,,,,,1,,,,,,,,,,,,,,,,,,,,,,,,,,,,,,,,,,,,,,,,,,,,,,71,146191,21,Female,1,2024/02/20_14:39:49,YZ,None,
,,,,,,calibration,0,36,2,583,12,V,1,left,0.6088454160053516,1,0,,,,,,,,,,,,,,,,,,,,,1,,,,,,,,,,,,,,,,,,,,,,,,,,,,,,,,,,,,,,,,,,,,,,71,146191,21,Female,1,2024/02/20_14:39:49,YZ,None,
,,,,,,calibration,0,36,2,583,13,C,1,right,0.7356818679982098,0,0,,,,,,,,,,,,,,,,,,,,,1,,,,,,,,,,,,,,,,,,,,,,,,,,,,,,,,,,,,,,,,,,,,,,71,146191,21,Female,1,2024/02/20_14:39:49,YZ,None,
,,,,,,calibration,0,36,2,583,14,F,0,right,0.787934876003419,1,0,,,,,,,,,,,,,,,,,,,,,1,,,,,,,,,,,,,,,,,,,,,,,,,,,,,,,,,,,,,,,,,,,,,,71,146191,21,Female,1,2024/02/20_14:39:49,YZ,None,
,,,,,,calibration,0,36,2,583,15,C,1,left,0.4637859259964898,1,0,,,,,,,,,,,,,,,,,,,,,1,,,,,,,,,,,,,,,,,,,,,,,,,,,,,,,,,,,,,,,,,,,,,,71,146191,21,Female,1,2024/02/20_14:39:49,YZ,None,
,,,,,,calibration,0,36,2,583,,,,,,,,0.95,0.8,0.0,1.0,0.0,1.0,0.7392259011995823,4,0,0,0,0,10,14,5,10,0,,,,1,,,,,,,,,,,,,,,,,,,,,,,,,,,,,,,,,,,,,,,,,,,,,,71,146191,21,Female,1,2024/02/20_14:39:49,YZ,None,
,,,,,,Calibration,0,,2,583,,,,,,,,,,,,,,,,,,,,,,,,,1,,,1,,,,,,,,,,,,,,,,,,,,,,,,,,,,,,,,,,,,,,,,,,,,,,71,146191,21,Female,1,2024/02/20_14:39:49,YZ,None,
,,,,,,calibration,0,26,2,500,1,Q,0,None,nan,0,1,,,,,,,,,,,,,,,,,,,,,1,,,,,,,,,,,,,,,,,,,,,,,,,,,,,,,,,,,,,,,,,,,,,,71,146191,21,Female,1,2024/02/20_14:39:49,YZ,None,
,,,,,,calibration,0,26,2,500,2,S,0,None,nan,0,1,,,,,,,,,,,,,,,,,,,,,1,,,,,,,,,,,,,,,,,,,,,,,,,,,,,,,,,,,,,,,,,,,,,,71,146191,21,Female,1,2024/02/20_14:39:49,YZ,None,
,,,,,,calibration,0,26,2,500,3,N,0,left,0.0,0,0,,,,,,,,,,,,,,,,,,,,,1,,,,,,,,,,,,,,,,,,,,,,,,,,,,,,,,,,,,,,,,,,,,,,71,146191,21,Female,1,2024/02/20_14:39:49,YZ,None,
,,,,,,calibration,0,26,2,500,4,S,1,left,nan,0,1,,,,,,,,,,,,,,,,,,,,,1,,,,,,,,,,,,,,,,,,,,,,,,,,,,,,,,,,,,,,,,,,,,,,71,146191,21,Female,1,2024/02/20_14:39:49,YZ,None,
,,,,,,calibration,0,26,2,500,5,C,0,left,nan,0,1,,,,,,,,,,,,,,,,,,,,,1,,,,,,,,,,,,,,,,,,,,,,,,,,,,,,,,,,,,,,,,,,,,,,71,146191,21,Female,1,2024/02/20_14:39:49,YZ,None,
,,,,,,calibration,0,26,2,500,6,S,1,right,0.6408042179973563,0,0,,,,,,,,,,,,,,,,,,,,,1,,,,,,,,,,,,,,,,,,,,,,,,,,,,,,,,,,,,,,,,,,,,,,71,146191,21,Female,1,2024/02/20_14:39:49,YZ,None,
,,,,,,calibration,0,26,2,500,7,N,0,right,0.9571083689952502,1,0,,,,,,,,,,,,,,,,,,,,,1,,,,,,,,,,,,,,,,,,,,,,,,,,,,,,,,,,,,,,,,,,,,,,71,146191,21,Female,1,2024/02/20_14:39:49,YZ,None,
,,,,,,calibration,0,26,2,500,8,C,0,right,0.8185734110011254,1,0,,,,,,,,,,,,,,,,,,,,,1,,,,,,,,,,,,,,,,,,,,,,,,,,,,,,,,,,,,,,,,,,,,,,71,146191,21,Female,1,2024/02/20_14:39:49,YZ,None,
,,,,,,calibration,0,26,2,500,9,V,0,right,0.5883808770013275,1,0,,,,,,,,,,,,,,,,,,,,,1,,,,,,,,,,,,,,,,,,,,,,,,,,,,,,,,,,,,,,,,,,,,,,71,146191,21,Female,1,2024/02/20_14:39:49,YZ,None,
,,,,,,calibration,0,26,2,500,10,C,1,left,0.4330017270112876,1,0,,,,,,,,,,,,,,,,,,,,,1,,,,,,,,,,,,,,,,,,,,,,,,,,,,,,,,,,,,,,,,,,,,,,71,146191,21,Female,1,2024/02/20_14:39:49,YZ,None,
,,,,,,calibration,0,26,2,500,11,S,0,right,0.5960805270005949,1,0,,,,,,,,,,,,,,,,,,,,,1,,,,,,,,,,,,,,,,,,,,,,,,,,,,,,,,,,,,,,,,,,,,,,71,146191,21,Female,1,2024/02/20_14:39:49,YZ,None,
,,,,,,calibration,0,26,2,500,12,C,1,right,0.5715421470085857,0,0,,,,,,,,,,,,,,,,,,,,,1,,,,,,,,,,,,,,,,,,,,,,,,,,,,,,,,,,,,,,,,,,,,,,71,146191,21,Female,1,2024/02/20_14:39:49,YZ,None,
,,,,,,calibration,0,26,2,500,13,F,0,right,0.7291241900093155,1,0,,,,,,,,,,,,,,,,,,,,,1,,,,,,,,,,,,,,,,,,,,,,,,,,,,,,,,,,,,,,,,,,,,,,71,146191,21,Female,1,2024/02/20_14:39:49,YZ,None,
,,,,,,calibration,0,26,2,500,14,N,0,right,0.6074776019959245,1,0,,,,,,,,,,,,,,,,,,,,,1,,,,,,,,,,,,,,,,,,,,,,,,,,,,,,,,,,,,,,,,,,,,,,71,146191,21,Female,1,2024/02/20_14:39:49,YZ,None,
,,,,,,calibration,0,26,2,500,15,J,0,right,0.5290986340114614,1,0,,,,,,,,,,,,,,,,,,,,,1,,,,,,,,,,,,,,,,,,,,,,,,,,,,,,,,,,,,,,,,,,,,,,71,146191,21,Female,1,2024/02/20_14:39:49,YZ,None,
,,,,,,calibration,0,26,2,500,16,Q,0,right,0.5000007519993233,1,0,,,,,,,,,,,,,,,,,,,,,1,,,,,,,,,,,,,,,,,,,,,,,,,,,,,,,,,,,,,,,,,,,,,,71,146191,21,Female,1,2024/02/20_14:39:49,YZ,None,
,,,,,,calibration,0,26,2,500,,,,,,,,0.7083333333333333,0.25,0.08333333333333333,0.8888888888888888,0.25,0.6666666666666666,0.5809327045026293,1,1,1,3,4,8,9,4,12,0,,,,1,,,,,,,,,,,,,,,,,,,,,,,,,,,,,,,,,,,,,,,,,,,,,,71,146191,21,Female,1,2024/02/20_14:39:49,YZ,None,
,,,,,,Calibration,0,,2,500,,,,,,,,,,,,,,,,,,,,,,,,,2,,,1,,,,,,,,,,,,,,,,,,,,,,,,,,,,,,,,,,,,,,,,,,,,,,71,146191,21,Female,1,2024/02/20_14:39:49,YZ,None,
,,,,,,calibration,0,15,2,583,1,N,0,right,0.7409205739968456,1,0,,,,,,,,,,,,,,,,,,,,,1,,,,,,,,,,,,,,,,,,,,,,,,,,,,,,,,,,,,,,,,,,,,,,71,146191,21,Female,1,2024/02/20_14:39:49,YZ,None,
,,,,,,calibration,0,15,2,583,2,S,0,right,0.5418744490016252,1,0,,,,,,,,,,,,,,,,,,,,,1,,,,,,,,,,,,,,,,,,,,,,,,,,,,,,,,,,,,,,,,,,,,,,71,146191,21,Female,1,2024/02/20_14:39:49,YZ,None,
,,,,,,calibration,0,15,2,583,3,C,0,right,0.5414171750016976,1,0,,,,,,,,,,,,,,,,,,,,,1,,,,,,,,,,,,,,,,,,,,,,,,,,,,,,,,,,,,,,,,,,,,,,71,146191,21,Female,1,2024/02/20_14:39:49,YZ,None,
,,,,,,calibration,0,15,2,583,4,X,0,right,0.5445306010078639,1,0,,,,,,,,,,,,,,,,,,,,,1,,,,,,,,,,,,,,,,,,,,,,,,,,,,,,,,,,,,,,,,,,,,,,71,146191,21,Female,1,2024/02/20_14:39:49,YZ,None,
,,,,,,calibration,0,15,2,583,5,F,0,right,0.5000833410013001,1,0,,,,,,,,,,,,,,,,,,,,,1,,,,,,,,,,,,,,,,,,,,,,,,,,,,,,,,,,,,,,,,,,,,,,71,146191,21,Female,1,2024/02/20_14:39:49,YZ,None,
,,,,,,calibration,0,15,2,583,6,S,0,right,0.5245619830093347,1,0,,,,,,,,,,,,,,,,,,,,,1,,,,,,,,,,,,,,,,,,,,,,,,,,,,,,,,,,,,,,,,,,,,,,71,146191,21,Female,1,2024/02/20_14:39:49,YZ,None,
,,,,,,calibration,0,15,2,583,7,F,1,left,0.5903467450116295,1,0,,,,,,,,,,,,,,,,,,,,,1,,,,,,,,,,,,,,,,,,,,,,,,,,,,,,,,,,,,,,,,,,,,,,71,146191,21,Female,1,2024/02/20_14:39:49,YZ,None,
,,,,,,calibration,0,15,2,583,8,Q,0,right,0.487063651002245,1,0,,,,,,,,,,,,,,,,,,,,,1,,,,,,,,,,,,,,,,,,,,,,,,,,,,,,,,,,,,,,,,,,,,,,71,146191,21,Female,1,2024/02/20_14:39:49,YZ,None,
,,,,,,calibration,0,15,2,583,9,F,1,right,0.7239954579999903,0,0,,,,,,,,,,,,,,,,,,,,,1,,,,,,,,,,,,,,,,,,,,,,,,,,,,,,,,,,,,,,,,,,,,,,71,146191,21,Female,1,2024/02/20_14:39:49,YZ,None,
,,,,,,calibration,0,15,2,583,10,C,0,right,0.4762933119927766,1,0,,,,,,,,,,,,,,,,,,,,,1,,,,,,,,,,,,,,,,,,,,,,,,,,,,,,,,,,,,,,,,,,,,,,71,146191,21,Female,1,2024/02/20_14:39:49,YZ,None,
,,,,,,calibration,0,15,2,583,11,F,1,right,0.558450543001527,0,0,,,,,,,,,,,,,,,,,,,,,1,,,,,,,,,,,,,,,,,,,,,,,,,,,,,,,,,,,,,,,,,,,,,,71,146191,21,Female,1,2024/02/20_14:39:49,YZ,None,
,,,,,,calibration,0,15,2,583,12,C,1,left,0.48462962100165896,1,0,,,,,,,,,,,,,,,,,,,,,1,,,,,,,,,,,,,,,,,,,,,,,,,,,,,,,,,,,,,,,,,,,,,,71,146191,21,Female,1,2024/02/20_14:39:49,YZ,None,
,,,,,,calibration,0,15,2,583,13,S,0,right,0.5584095230005914,1,0,,,,,,,,,,,,,,,,,,,,,1,,,,,,,,,,,,,,,,,,,,,,,,,,,,,,,,,,,,,,,,,,,,,,71,146191,21,Female,1,2024/02/20_14:39:49,YZ,None,
,,,,,,calibration,0,15,2,583,14,X,0,right,0.49663172800501343,1,0,,,,,,,,,,,,,,,,,,,,,1,,,,,,,,,,,,,,,,,,,,,,,,,,,,,,,,,,,,,,,,,,,,,,71,146191,21,Female,1,2024/02/20_14:39:49,YZ,None,
,,,,,,calibration,0,15,2,583,15,Q,0,right,0.4659079660050338,1,0,,,,,,,,,,,,,,,,,,,,,1,,,,,,,,,,,,,,,,,,,,,,,,,,,,,,,,,,,,,,,,,,,,,,71,146191,21,Female,1,2024/02/20_14:39:49,YZ,None,
,,,,,,calibration,0,15,2,583,,,,,,,,0.875,0.5,0.0,1.0,0.0,1.0,0.5490077780026089,2,0,0,0,0,11,13,4,11,0,,,,1,,,,,,,,,,,,,,,,,,,,,,,,,,,,,,,,,,,,,,,,,,,,,,71,146191,21,Female,1,2024/02/20_14:39:49,YZ,None,
,,,,,,Calibration,0,,2,583,,,,,,,,,,,,,,,,,,,,,,,,,3,,,1,,,,,,,,,,,,,,,,,,,,,,,,,,,,,,,,,,,,,,,,,,,,,,71,146191,21,Female,1,2024/02/20_14:39:49,YZ,None,
,,,,,,calibration,0,26,2,500,1,Q,0,right,0.5646620829938911,1,0,,,,,,,,,,,,,,,,,,,,,1,,,,,,,,,,,,,,,,,,,,,,,,,,,,,,,,,,,,,,,,,,,,,,71,146191,21,Female,1,2024/02/20_14:39:49,YZ,None,
,,,,,,calibration,0,26,2,500,2,S,0,right,0.4450020840013167,1,0,,,,,,,,,,,,,,,,,,,,,1,,,,,,,,,,,,,,,,,,,,,,,,,,,,,,,,,,,,,,,,,,,,,,71,146191,21,Female,1,2024/02/20_14:39:49,YZ,None,
,,,,,,calibration,0,26,2,500,3,N,0,right,0.4441246409987798,1,0,,,,,,,,,,,,,,,,,,,,,1,,,,,,,,,,,,,,,,,,,,,,,,,,,,,,,,,,,,,,,,,,,,,,71,146191,21,Female,1,2024/02/20_14:39:49,YZ,None,
,,,,,,calibration,0,26,2,500,4,S,1,left,0.6639000440045493,1,0,,,,,,,,,,,,,,,,,,,,,1,,,,,,,,,,,,,,,,,,,,,,,,,,,,,,,,,,,,,,,,,,,,,,71,146191,21,Female,1,2024/02/20_14:39:49,YZ,None,
,,,,,,calibration,0,26,2,500,5,C,0,right,0.41359800699865445,1,0,,,,,,,,,,,,,,,,,,,,,1,,,,,,,,,,,,,,,,,,,,,,,,,,,,,,,,,,,,,,,,,,,,,,71,146191,21,Female,1,2024/02/20_14:39:49,YZ,None,
,,,,,,calibration,0,26,2,500,6,S,1,right,0.5431198209989816,0,0,,,,,,,,,,,,,,,,,,,,,1,,,,,,,,,,,,,,,,,,,,,,,,,,,,,,,,,,,,,,,,,,,,,,71,146191,21,Female,1,2024/02/20_14:39:49,YZ,None,
,,,,,,calibration,0,26,2,500,7,N,0,right,0.46834084700094536,1,0,,,,,,,,,,,,,,,,,,,,,1,,,,,,,,,,,,,,,,,,,,,,,,,,,,,,,,,,,,,,,,,,,,,,71,146191,21,Female,1,2024/02/20_14:39:49,YZ,None,
,,,,,,calibration,0,26,2,500,8,C,0,left,0.6205184040009044,0,0,,,,,,,,,,,,,,,,,,,,,1,,,,,,,,,,,,,,,,,,,,,,,,,,,,,,,,,,,,,,,,,,,,,,71,146191,21,Female,1,2024/02/20_14:39:49,YZ,None,
,,,,,,calibration,0,26,2,500,9,V,0,right,0.40354516300430987,1,0,,,,,,,,,,,,,,,,,,,,,1,,,,,,,,,,,,,,,,,,,,,,,,,,,,,,,,,,,,,,,,,,,,,,71,146191,21,Female,1,2024/02/20_14:39:49,YZ,None,
,,,,,,calibration,0,26,2,500,10,C,1,right,0.44755686601274647,0,0,,,,,,,,,,,,,,,,,,,,,1,,,,,,,,,,,,,,,,,,,,,,,,,,,,,,,,,,,,,,,,,,,,,,71,146191,21,Female,1,2024/02/20_14:39:49,YZ,None,
,,,,,,calibration,0,26,2,500,11,S,0,right,0.4525598400068702,1,0,,,,,,,,,,,,,,,,,,,,,1,,,,,,,,,,,,,,,,,,,,,,,,,,,,,,,,,,,,,,,,,,,,,,71,146191,21,Female,1,2024/02/20_14:39:49,YZ,None,
,,,,,,calibration,0,26,2,500,12,C,1,right,nan,0,1,,,,,,,,,,,,,,,,,,,,,1,,,,,,,,,,,,,,,,,,,,,,,,,,,,,,,,,,,,,,,,,,,,,,71,146191,21,Female,1,2024/02/20_14:39:49,YZ,None,
,,,,,,calibration,0,26,2,500,13,F,0,right,0.5353136679914314,1,0,,,,,,,,,,,,,,,,,,,,,1,,,,,,,,,,,,,,,,,,,,,,,,,,,,,,,,,,,,,,,,,,,,,,71,146191,21,Female,1,2024/02/20_14:39:49,YZ,None,
,,,,,,calibration,0,26,2,500,14,N,0,right,0.4020754419907462,1,0,,,,,,,,,,,,,,,,,,,,,1,,,,,,,,,,,,,,,,,,,,,,,,,,,,,,,,,,,,,,,,,,,,,,71,146191,21,Female,1,2024/02/20_14:39:49,YZ,None,
,,,,,,calibration,0,26,2,500,15,J,0,right,0.4164792220108211,1,0,,,,,,,,,,,,,,,,,,,,,1,,,,,,,,,,,,,,,,,,,,,,,,,,,,,,,,,,,,,,,,,,,,,,71,146191,21,Female,1,2024/02/20_14:39:49,YZ,None,
,,,,,,calibration,0,26,2,500,16,Q,0,right,0.4033061529917177,1,0,,,,,,,,,,,,,,,,,,,,,1,,,,,,,,,,,,,,,,,,,,,,,,,,,,,,,,,,,,,,,,,,,,,,71,146191,21,Female,1,2024/02/20_14:39:49,YZ,None,
,,,,,,calibration,0,26,2,500,,,,,,,,0.7083333333333333,0.25,0.08333333333333333,0.9166666666666666,0.0625,0.8541666666666666,0.4816068190004444,1,1,1,0,1,11,12,4,12,0,,,,1,,,,,,,,,,,,,,,,,,,,,,,,,,,,,,,,,,,,,,,,,,,,,,71,146191,21,Female,1,2024/02/20_14:39:49,YZ,None,
,,,,,,Calibration,0,,2,500,,,,,,,,,,,,,,,,,,,,,,,,,4,,,1,,,,,,,,,,,,,,,,,,,,,,,,,,,,,,,,,,,,,,,,,,,,,,71,146191,21,Female,1,2024/02/20_14:39:49,YZ,None,
,,,,,,calibration,0,30,2,583,1,C,0,right,1.7295773079968058,1,0,,,,,,,,,,,,,,,,,,,,,1,,,,,,,,,,,,,,,,,,,,,,,,,,,,,,,,,,,,,,,,,,,,,,71,146191,21,Female,1,2024/02/20_14:39:49,YZ,None,
,,,,,,calibration,0,30,2,583,2,X,0,right,0.5491724170133239,1,0,,,,,,,,,,,,,,,,,,,,,1,,,,,,,,,,,,,,,,,,,,,,,,,,,,,,,,,,,,,,,,,,,,,,71,146191,21,Female,1,2024/02/20_14:39:49,YZ,None,
,,,,,,calibration,0,30,2,583,3,F,0,right,0.5129725750011858,1,0,,,,,,,,,,,,,,,,,,,,,1,,,,,,,,,,,,,,,,,,,,,,,,,,,,,,,,,,,,,,,,,,,,,,71,146191,21,Female,1,2024/02/20_14:39:49,YZ,None,
,,,,,,calibration,0,30,2,583,4,Q,0,right,0.5648096429940779,1,0,,,,,,,,,,,,,,,,,,,,,1,,,,,,,,,,,,,,,,,,,,,,,,,,,,,,,,,,,,,,,,,,,,,,71,146191,21,Female,1,2024/02/20_14:39:49,YZ,None,
,,,,,,calibration,0,30,2,583,5,F,1,left,0.5415412099973764,1,0,,,,,,,,,,,,,,,,,,,,,1,,,,,,,,,,,,,,,,,,,,,,,,,,,,,,,,,,,,,,,,,,,,,,71,146191,21,Female,1,2024/02/20_14:39:49,YZ,None,
,,,,,,calibration,0,30,2,583,6,N,0,right,0.4387056000123266,1,0,,,,,,,,,,,,,,,,,,,,,1,,,,,,,,,,,,,,,,,,,,,,,,,,,,,,,,,,,,,,,,,,,,,,71,146191,21,Female,1,2024/02/20_14:39:49,YZ,None,
,,,,,,calibration,0,30,2,583,7,Q,0,right,0.5237943870015442,1,0,,,,,,,,,,,,,,,,,,,,,1,,,,,,,,,,,,,,,,,,,,,,,,,,,,,,,,,,,,,,,,,,,,,,71,146191,21,Female,1,2024/02/20_14:39:49,YZ,None,
,,,,,,calibration,0,30,2,583,8,N,1,left,0.8093916329962667,1,0,,,,,,,,,,,,,,,,,,,,,1,,,,,,,,,,,,,,,,,,,,,,,,,,,,,,,,,,,,,,,,,,,,,,71,146191,21,Female,1,2024/02/20_14:39:49,YZ,None,
,,,,,,calibration,0,30,2,583,9,S,0,right,0.3743530500069028,1,0,,,,,,,,,,,,,,,,,,,,,1,,,,,,,,,,,,,,,,,,,,,,,,,,,,,,,,,,,,,,,,,,,,,,71,146191,21,Female,1,2024/02/20_14:39:49,YZ,None,
,,,,,,calibration,0,30,2,583,10,J,0,right,0.42852893700182904,1,0,,,,,,,,,,,,,,,,,,,,,1,,,,,,,,,,,,,,,,,,,,,,,,,,,,,,,,,,,,,,,,,,,,,,71,146191,21,Female,1,2024/02/20_14:39:49,YZ,None,
,,,,,,calibration,0,30,2,583,11,N,0,right,0.7065056149876909,1,0,,,,,,,,,,,,,,,,,,,,,1,,,,,,,,,,,,,,,,,,,,,,,,,,,,,,,,,,,,,,,,,,,,,,71,146191,21,Female,1,2024/02/20_14:39:49,YZ,None,
,,,,,,calibration,0,30,2,583,12,J,1,right,0.5568608330067946,0,0,,,,,,,,,,,,,,,,,,,,,1,,,,,,,,,,,,,,,,,,,,,,,,,,,,,,,,,,,,,,,,,,,,,,71,146191,21,Female,1,2024/02/20_14:39:49,YZ,None,
,,,,,,calibration,0,30,2,583,13,F,0,right,0.537310587009415,1,0,,,,,,,,,,,,,,,,,,,,,1,,,,,,,,,,,,,,,,,,,,,,,,,,,,,,,,,,,,,,,,,,,,,,71,146191,21,Female,1,2024/02/20_14:39:49,YZ,None,
,,,,,,calibration,0,30,2,583,14,J,1,left,0.6041945570032112,1,0,,,,,,,,,,,,,,,,,,,,,1,,,,,,,,,,,,,,,,,,,,,,,,,,,,,,,,,,,,,,,,,,,,,,71,146191,21,Female,1,2024/02/20_14:39:49,YZ,None,
,,,,,,calibration,0,30,2,583,15,N,0,right,0.5543597649957519,1,0,,,,,,,,,,,,,,,,,,,,,1,,,,,,,,,,,,,,,,,,,,,,,,,,,,,,,,,,,,,,,,,,,,,,71,146191,21,Female,1,2024/02/20_14:39:49,YZ,None,
,,,,,,calibration,0,30,2,583,,,,,,,,0.9375,0.75,0.0,1.0,0.0,1.0,0.6288052078016335,3,0,0,0,0,11,14,4,11,0,,,,1,,,,,,,,,,,,,,,,,,,,,,,,,,,,,,,,,,,,,,,,,,,,,,71,146191,21,Female,1,2024/02/20_14:39:49,YZ,None,
,,,,,,Calibration,0,,2,583,,,,,,,,,,,,,,,,,,,,,,,,,5,,,1,,,,,,,,,,,,,,,,,,,,,,,,,,,,,,,,,,,,,,,,,,,,,,71,146191,21,Female,1,2024/02/20_14:39:49,YZ,None,
,,,,,,calibration,0,3,2,500,1,F,0,right,0.4310099970025476,1,0,,,,,,,,,,,,,,,,,,,,,1,,,,,,,,,,,,,,,,,,,,,,,,,,,,,,,,,,,,,,,,,,,,,,71,146191,21,Female,1,2024/02/20_14:39:49,YZ,None,
,,,,,,calibration,0,3,2,500,2,V,0,right,0.4341537709988188,1,0,,,,,,,,,,,,,,,,,,,,,1,,,,,,,,,,,,,,,,,,,,,,,,,,,,,,,,,,,,,,,,,,,,,,71,146191,21,Female,1,2024/02/20_14:39:49,YZ,None,
,,,,,,calibration,0,3,2,500,3,F,1,left,0.6117439119989285,1,0,,,,,,,,,,,,,,,,,,,,,1,,,,,,,,,,,,,,,,,,,,,,,,,,,,,,,,,,,,,,,,,,,,,,71,146191,21,Female,1,2024/02/20_14:39:49,YZ,None,
,,,,,,calibration,0,3,2,500,4,J,0,right,0.47603670600801706,1,0,,,,,,,,,,,,,,,,,,,,,1,,,,,,,,,,,,,,,,,,,,,,,,,,,,,,,,,,,,,,,,,,,,,,71,146191,21,Female,1,2024/02/20_14:39:49,YZ,None,
,,,,,,calibration,0,3,2,500,5,Q,0,right,0.549072845999035,1,0,,,,,,,,,,,,,,,,,,,,,1,,,,,,,,,,,,,,,,,,,,,,,,,,,,,,,,,,,,,,,,,,,,,,71,146191,21,Female,1,2024/02/20_14:39:49,YZ,None,
,,,,,,calibration,0,3,2,500,6,C,0,right,0.4171163550054189,1,0,,,,,,,,,,,,,,,,,,,,,1,,,,,,,,,,,,,,,,,,,,,,,,,,,,,,,,,,,,,,,,,,,,,,71,146191,21,Female,1,2024/02/20_14:39:49,YZ,None,
,,,,,,calibration,0,3,2,500,7,Q,1,right,nan,0,1,,,,,,,,,,,,,,,,,,,,,1,,,,,,,,,,,,,,,,,,,,,,,,,,,,,,,,,,,,,,,,,,,,,,71,146191,21,Female,1,2024/02/20_14:39:49,YZ,None,
,,,,,,calibration,0,3,2,500,8,N,0,right,0.42575409400160424,1,0,,,,,,,,,,,,,,,,,,,,,1,,,,,,,,,,,,,,,,,,,,,,,,,,,,,,,,,,,,,,,,,,,,,,71,146191,21,Female,1,2024/02/20_14:39:49,YZ,None,
,,,,,,calibration,0,3,2,500,9,V,0,right,0.5120144539978355,1,0,,,,,,,,,,,,,,,,,,,,,1,,,,,,,,,,,,,,,,,,,,,,,,,,,,,,,,,,,,,,,,,,,,,,71,146191,21,Female,1,2024/02/20_14:39:49,YZ,None,
,,,,,,calibration,0,3,2,500,10,N,1,left,0.597470043998328,1,0,,,,,,,,,,,,,,,,,,,,,1,,,,,,,,,,,,,,,,,,,,,,,,,,,,,,,,,,,,,,,,,,,,,,71,146191,21,Female,1,2024/02/20_14:39:49,YZ,None,
,,,,,,calibration,0,3,2,500,11,F,0,right,0.5806666270073038,1,0,,,,,,,,,,,,,,,,,,,,,1,,,,,,,,,,,,,,,,,,,,,,,,,,,,,,,,,,,,,,,,,,,,,,71,146191,21,Female,1,2024/02/20_14:39:49,YZ,None,
,,,,,,calibration,0,3,2,500,12,N,1,right,0.6406717560021207,0,0,,,,,,,,,,,,,,,,,,,,,1,,,,,,,,,,,,,,,,,,,,,,,,,,,,,,,,,,,,,,,,,,,,,,71,146191,21,Female,1,2024/02/20_14:39:49,YZ,None,
,,,,,,calibration,0,3,2,500,13,X,0,right,0.5736793850082904,1,0,,,,,,,,,,,,,,,,,,,,,1,,,,,,,,,,,,,,,,,,,,,,,,,,,,,,,,,,,,,,,,,,,,,,71,146191,21,Female,1,2024/02/20_14:39:49,YZ,None,
,,,,,,calibration,0,3,2,500,14,N,1,right,0.6356367970001884,0,0,,,,,,,,,,,,,,,,,,,,,1,,,,,,,,,,,,,,,,,,,,,,,,,,,,,,,,,,,,,,,,,,,,,,71,146191,21,Female,1,2024/02/20_14:39:49,YZ,None,
,,,,,,calibration,0,3,2,500,15,S,0,right,0.49623239900392946,1,0,,,,,,,,,,,,,,,,,,,,,1,,,,,,,,,,,,,,,,,,,,,,,,,,,,,,,,,,,,,,,,,,,,,,71,146191,21,Female,1,2024/02/20_14:39:49,YZ,None,
,,,,,,calibration,0,3,2,500,16,Q,0,right,0.4893323110009078,1,0,,,,,,,,,,,,,,,,,,,,,1,,,,,,,,,,,,,,,,,,,,,,,,,,,,,,,,,,,,,,,,,,,,,,71,146191,21,Female,1,2024/02/20_14:39:49,YZ,None,
,,,,,,calibration,0,3,2,500,,,,,,,,0.85,0.4,0.0,1.0,0.0625,0.9375,0.5247060969355516,2,0,1,0,1,11,13,5,11,0,,,,1,,,,,,,,,,,,,,,,,,,,,,,,,,,,,,,,,,,,,,,,,,,,,,71,146191,21,Female,1,2024/02/20_14:39:49,YZ,None,
,,,,,,Calibration,0,,2,500,,,,,,,,,,,,,,,,,,,,,,,,,6,,,1,,,,,,,,,,,,,,,,,,,,,,,,,,,,,,,,,,,,,,,,,,,,,,71,146191,21,Female,1,2024/02/20_14:39:49,YZ,None,
,,,,,,calibration,0,18,2,500,1,F,0,None,nan,0,1,,,,,,,,,,,,,,,,,,,,,1,,,,,,,,,,,,,,,,,,,,,,,,,,,,,,,,,,,,,,,,,,,,,,71,146191,21,Female,1,2024/02/20_14:39:49,YZ,None,
,,,,,,calibration,0,18,2,500,2,J,0,None,nan,0,1,,,,,,,,,,,,,,,,,,,,,1,,,,,,,,,,,,,,,,,,,,,,,,,,,,,,,,,,,,,,,,,,,,,,71,146191,21,Female,1,2024/02/20_14:39:49,YZ,None,
,,,,,,calibration,0,18,2,500,3,Q,0,None,nan,0,1,,,,,,,,,,,,,,,,,,,,,1,,,,,,,,,,,,,,,,,,,,,,,,,,,,,,,,,,,,,,,,,,,,,,71,146191,21,Female,1,2024/02/20_14:39:49,YZ,None,
,,,,,,calibration,0,18,2,500,4,C,0,right,0.5240243439911865,1,0,,,,,,,,,,,,,,,,,,,,,1,,,,,,,,,,,,,,,,,,,,,,,,,,,,,,,,,,,,,,,,,,,,,,71,146191,21,Female,1,2024/02/20_14:39:49,YZ,None,
,,,,,,calibration,0,18,2,500,5,V,0,right,nan,0,1,,,,,,,,,,,,,,,,,,,,,1,,,,,,,,,,,,,,,,,,,,,,,,,,,,,,,,,,,,,,,,,,,,,,71,146191,21,Female,1,2024/02/20_14:39:49,YZ,None,
,,,,,,calibration,0,18,2,500,6,C,1,right,nan,0,1,,,,,,,,,,,,,,,,,,,,,1,,,,,,,,,,,,,,,,,,,,,,,,,,,,,,,,,,,,,,,,,,,,,,71,146191,21,Female,1,2024/02/20_14:39:49,YZ,None,
,,,,,,calibration,0,18,2,500,7,Q,0,right,nan,0,1,,,,,,,,,,,,,,,,,,,,,1,,,,,,,,,,,,,,,,,,,,,,,,,,,,,,,,,,,,,,,,,,,,,,71,146191,21,Female,1,2024/02/20_14:39:49,YZ,None,
,,,,,,calibration,0,18,2,500,8,J,0,right,nan,0,1,,,,,,,,,,,,,,,,,,,,,1,,,,,,,,,,,,,,,,,,,,,,,,,,,,,,,,,,,,,,,,,,,,,,71,146191,21,Female,1,2024/02/20_14:39:49,YZ,None,
,,,,,,calibration,0,18,2,500,9,N,0,right,nan,0,1,,,,,,,,,,,,,,,,,,,,,1,,,,,,,,,,,,,,,,,,,,,,,,,,,,,,,,,,,,,,,,,,,,,,71,146191,21,Female,1,2024/02/20_14:39:49,YZ,None,
,,,,,,calibration,0,18,2,500,10,J,1,right,nan,0,1,,,,,,,,,,,,,,,,,,,,,1,,,,,,,,,,,,,,,,,,,,,,,,,,,,,,,,,,,,,,,,,,,,,,71,146191,21,Female,1,2024/02/20_14:39:49,YZ,None,
,,,,,,calibration,0,18,2,500,11,X,0,right,nan,0,1,,,,,,,,,,,,,,,,,,,,,1,,,,,,,,,,,,,,,,,,,,,,,,,,,,,,,,,,,,,,,,,,,,,,71,146191,21,Female,1,2024/02/20_14:39:49,YZ,None,
,,,,,,calibration,0,18,2,500,12,V,0,right,nan,0,1,,,,,,,,,,,,,,,,,,,,,1,,,,,,,,,,,,,,,,,,,,,,,,,,,,,,,,,,,,,,,,,,,,,,71,146191,21,Female,1,2024/02/20_14:39:49,YZ,None,
,,,,,,calibration,0,18,2,500,13,S,0,right,nan,0,1,,,,,,,,,,,,,,,,,,,,,1,,,,,,,,,,,,,,,,,,,,,,,,,,,,,,,,,,,,,,,,,,,,,,71,146191,21,Female,1,2024/02/20_14:39:49,YZ,None,
,,,,,,calibration,0,18,2,500,14,V,1,right,nan,0,1,,,,,,,,,,,,,,,,,,,,,1,,,,,,,,,,,,,,,,,,,,,,,,,,,,,,,,,,,,,,,,,,,,,,71,146191,21,Female,1,2024/02/20_14:39:49,YZ,None,
,,,,,,calibration,0,18,2,500,15,J,0,right,nan,0,1,,,,,,,,,,,,,,,,,,,,,1,,,,,,,,,,,,,,,,,,,,,,,,,,,,,,,,,,,,,,,,,,,,,,71,146191,21,Female,1,2024/02/20_14:39:49,YZ,None,
,,,,,,calibration,0,18,2,500,16,V,1,right,nan,0,1,,,,,,,,,,,,,,,,,,,,,1,,,,,,,,,,,,,,,,,,,,,,,,,,,,,,,,,,,,,,,,,,,,,,71,146191,21,Female,1,2024/02/20_14:39:49,YZ,None,
,,,,,,calibration,0,18,2,500,,,,,,,,0.5,0.0,0.0,1.0,0.9375,0.0625,0.5240243439911865,0,0,4,11,15,1,1,4,12,0,,,,1,,,,,,,,,,,,,,,,,,,,,,,,,,,,,,,,,,,,,,,,,,,,,,71,146191,21,Female,1,2024/02/20_14:39:49,YZ,None,
,,,,,,Calibration,0,,2,500,,,,,,,,,,,,,,,,,,,,,,,,,7,,,1,,,,,,,,,,,,,,,,,,,,,,,,,,,,,,,,,,,,,,,,,,,,,,71,146191,21,Female,1,2024/02/20_14:39:49,YZ,None,
,,,,,,calibration,0,7,2,583,1,S,0,right,1.011832135001896,1,0,,,,,,,,,,,,,,,,,,,,,1,,,,,,,,,,,,,,,,,,,,,,,,,,,,,,,,,,,,,,,,,,,,,,71,146191,21,Female,1,2024/02/20_14:39:49,YZ,None,
,,,,,,calibration,0,7,2,583,2,N,0,right,0.5121700419986155,1,0,,,,,,,,,,,,,,,,,,,,,1,,,,,,,,,,,,,,,,,,,,,,,,,,,,,,,,,,,,,,,,,,,,,,71,146191,21,Female,1,2024/02/20_14:39:49,YZ,None,
,,,,,,calibration,0,7,2,583,3,J,0,right,0.4124772340001073,1,0,,,,,,,,,,,,,,,,,,,,,1,,,,,,,,,,,,,,,,,,,,,,,,,,,,,,,,,,,,,,,,,,,,,,71,146191,21,Female,1,2024/02/20_14:39:49,YZ,None,
,,,,,,calibration,0,7,2,583,4,N,1,left,0.6957777709903894,1,0,,,,,,,,,,,,,,,,,,,,,1,,,,,,,,,,,,,,,,,,,,,,,,,,,,,,,,,,,,,,,,,,,,,,71,146191,21,Female,1,2024/02/20_14:39:49,YZ,None,
,,,,,,calibration,0,7,2,583,5,V,0,right,0.38052365800831467,1,0,,,,,,,,,,,,,,,,,,,,,1,,,,,,,,,,,,,,,,,,,,,,,,,,,,,,,,,,,,,,,,,,,,,,71,146191,21,Female,1,2024/02/20_14:39:49,YZ,None,
,,,,,,calibration,0,7,2,583,6,N,1,right,0.48242344899335876,0,0,,,,,,,,,,,,,,,,,,,,,1,,,,,,,,,,,,,,,,,,,,,,,,,,,,,,,,,,,,,,,,,,,,,,71,146191,21,Female,1,2024/02/20_14:39:49,YZ,None,
,,,,,,calibration,0,7,2,583,7,V,1,left,0.6832575220032595,1,0,,,,,,,,,,,,,,,,,,,,,1,,,,,,,,,,,,,,,,,,,,,,,,,,,,,,,,,,,,,,,,,,,,,,71,146191,21,Female,1,2024/02/20_14:39:49,YZ,None,
,,,,,,calibration,0,7,2,583,8,Q,0,right,0.46073954900202807,1,0,,,,,,,,,,,,,,,,,,,,,1,,,,,,,,,,,,,,,,,,,,,,,,,,,,,,,,,,,,,,,,,,,,,,71,146191,21,Female,1,2024/02/20_14:39:49,YZ,None,
,,,,,,calibration,0,7,2,583,9,N,0,right,0.460222331006662,1,0,,,,,,,,,,,,,,,,,,,,,1,,,,,,,,,,,,,,,,,,,,,,,,,,,,,,,,,,,,,,,,,,,,,,71,146191,21,Female,1,2024/02/20_14:39:49,YZ,None,
,,,,,,calibration,0,7,2,583,10,Q,1,right,0.4677766940003494,0,0,,,,,,,,,,,,,,,,,,,,,1,,,,,,,,,,,,,,,,,,,,,,,,,,,,,,,,,,,,,,,,,,,,,,71,146191,21,Female,1,2024/02/20_14:39:49,YZ,None,
,,,,,,calibration,0,7,2,583,11,X,0,right,0.4152500530035468,1,0,,,,,,,,,,,,,,,,,,,,,1,,,,,,,,,,,,,,,,,,,,,,,,,,,,,,,,,,,,,,,,,,,,,,71,146191,21,Female,1,2024/02/20_14:39:49,YZ,None,
,,,,,,calibration,0,7,2,583,12,J,0,right,0.44377417699433863,1,0,,,,,,,,,,,,,,,,,,,,,1,,,,,,,,,,,,,,,,,,,,,,,,,,,,,,,,,,,,,,,,,,,,,,71,146191,21,Female,1,2024/02/20_14:39:49,YZ,None,
,,,,,,calibration,0,7,2,583,13,S,0,right,0.3886194699880434,1,0,,,,,,,,,,,,,,,,,,,,,1,,,,,,,,,,,,,,,,,,,,,,,,,,,,,,,,,,,,,,,,,,,,,,71,146191,21,Female,1,2024/02/20_14:39:49,YZ,None,
,,,,,,calibration,0,7,2,583,14,J,1,left,0.5909869200113462,1,0,,,,,,,,,,,,,,,,,,,,,1,,,,,,,,,,,,,,,,,,,,,,,,,,,,,,,,,,,,,,,,,,,,,,71,146191,21,Female,1,2024/02/20_14:39:49,YZ,None,
,,,,,,calibration,0,7,2,583,15,Q,0,right,0.38625730099738576,1,0,,,,,,,,,,,,,,,,,,,,,1,,,,,,,,,,,,,,,,,,,,,,,,,,,,,,,,,,,,,,,,,,,,,,71,146191,21,Female,1,2024/02/20_14:39:49,YZ,None,
,,,,,,calibration,0,7,2,583,,,,,,,,0.9,0.6,0.0,1.0,0.0,1.0,0.5194725537333095,3,0,0,0,0,10,13,5,10,0,,,,1,,,,,,,,,,,,,,,,,,,,,,,,,,,,,,,,,,,,,,,,,,,,,,71,146191,21,Female,1,2024/02/20_14:39:49,YZ,None,
,,,,,,Calibration,0,,2,583,,,,,,,,,,,,,,,,,,,,,,,,,8,,,1,,,,,,,,,,,,,,,,,,,,,,,,,,,,,,,,,,,,,,,,,,,,,,71,146191,21,Female,1,2024/02/20_14:39:49,YZ,None,
,,,,,,calibration,0,36,2,500,1,N,0,None,nan,0,1,,,,,,,,,,,,,,,,,,,,,1,,,,,,,,,,,,,,,,,,,,,,,,,,,,,,,,,,,,,,,,,,,,,,71,146191,21,Female,1,2024/02/20_14:39:49,YZ,None,
,,,,,,calibration,0,36,2,500,2,V,0,None,nan,0,1,,,,,,,,,,,,,,,,,,,,,1,,,,,,,,,,,,,,,,,,,,,,,,,,,,,,,,,,,,,,,,,,,,,,71,146191,21,Female,1,2024/02/20_14:39:49,YZ,None,
,,,,,,calibration,0,36,2,500,3,N,1,None,nan,0,1,,,,,,,,,,,,,,,,,,,,,1,,,,,,,,,,,,,,,,,,,,,,,,,,,,,,,,,,,,,,,,,,,,,,71,146191,21,Female,1,2024/02/20_14:39:49,YZ,None,
,,,,,,calibration,0,36,2,500,4,F,0,None,nan,0,1,,,,,,,,,,,,,,,,,,,,,1,,,,,,,,,,,,,,,,,,,,,,,,,,,,,,,,,,,,,,,,,,,,,,71,146191,21,Female,1,2024/02/20_14:39:49,YZ,None,
,,,,,,calibration,0,36,2,500,5,J,0,None,nan,0,1,,,,,,,,,,,,,,,,,,,,,1,,,,,,,,,,,,,,,,,,,,,,,,,,,,,,,,,,,,,,,,,,,,,,71,146191,21,Female,1,2024/02/20_14:39:49,YZ,None,
,,,,,,calibration,0,36,2,500,6,F,1,None,nan,0,1,,,,,,,,,,,,,,,,,,,,,1,,,,,,,,,,,,,,,,,,,,,,,,,,,,,,,,,,,,,,,,,,,,,,71,146191,21,Female,1,2024/02/20_14:39:49,YZ,None,
,,,,,,calibration,0,36,2,500,7,J,1,None,nan,0,1,,,,,,,,,,,,,,,,,,,,,1,,,,,,,,,,,,,,,,,,,,,,,,,,,,,,,,,,,,,,,,,,,,,,71,146191,21,Female,1,2024/02/20_14:39:49,YZ,None,
,,,,,,calibration,0,36,2,500,8,N,0,None,nan,0,1,,,,,,,,,,,,,,,,,,,,,1,,,,,,,,,,,,,,,,,,,,,,,,,,,,,,,,,,,,,,,,,,,,,,71,146191,21,Female,1,2024/02/20_14:39:49,YZ,None,
,,,,,,calibration,0,36,2,500,9,J,1,None,nan,0,1,,,,,,,,,,,,,,,,,,,,,1,,,,,,,,,,,,,,,,,,,,,,,,,,,,,,,,,,,,,,,,,,,,,,71,146191,21,Female,1,2024/02/20_14:39:49,YZ,None,
,,,,,,calibration,0,36,2,500,10,F,0,None,nan,0,1,,,,,,,,,,,,,,,,,,,,,1,,,,,,,,,,,,,,,,,,,,,,,,,,,,,,,,,,,,,,,,,,,,,,71,146191,21,Female,1,2024/02/20_14:39:49,YZ,None,
,,,,,,calibration,0,36,2,500,11,Q,0,None,nan,0,1,,,,,,,,,,,,,,,,,,,,,1,,,,,,,,,,,,,,,,,,,,,,,,,,,,,,,,,,,,,,,,,,,,,,71,146191,21,Female,1,2024/02/20_14:39:49,YZ,None,
,,,,,,calibration,0,36,2,500,12,X,0,None,nan,0,1,,,,,,,,,,,,,,,,,,,,,1,,,,,,,,,,,,,,,,,,,,,,,,,,,,,,,,,,,,,,,,,,,,,,71,146191,21,Female,1,2024/02/20_14:39:49,YZ,None,
,,,,,,calibration,0,36,2,500,13,J,0,None,nan,0,1,,,,,,,,,,,,,,,,,,,,,1,,,,,,,,,,,,,,,,,,,,,,,,,,,,,,,,,,,,,,,,,,,,,,71,146191,21,Female,1,2024/02/20_14:39:49,YZ,None,
,,,,,,calibration,0,36,2,500,14,F,0,None,nan,0,1,,,,,,,,,,,,,,,,,,,,,1,,,,,,,,,,,,,,,,,,,,,,,,,,,,,,,,,,,,,,,,,,,,,,71,146191,21,Female,1,2024/02/20_14:39:49,YZ,None,
,,,,,,calibration,0,36,2,500,15,S,0,None,nan,0,1,,,,,,,,,,,,,,,,,,,,,1,,,,,,,,,,,,,,,,,,,,,,,,,,,,,,,,,,,,,,,,,,,,,,71,146191,21,Female,1,2024/02/20_14:39:49,YZ,None,
,,,,,,calibration,0,36,2,500,16,X,0,None,nan,0,1,,,,,,,,,,,,,,,,,,,,,1,,,,,,,,,,,,,,,,,,,,,,,,,,,,,,,,,,,,,,,,,,,,,,71,146191,21,Female,1,2024/02/20_14:39:49,YZ,None,
,,,,,,calibration,0,36,2,500,,,,,,,,nan,0.0,nan,nan,1.0,nan,nan,0,0,4,12,16,0,0,4,12,0,,,,1,,,,,,,,,,,,,,,,,,,,,,,,,,,,,,,,,,,,,,,,,,,,,,71,146191,21,Female,1,2024/02/20_14:39:49,YZ,None,
,,,,,,Calibration,0,,2,500,,,,,,,,,,,,,,,,,,,,,,,,,9,,,1,,,,,,,,,,,,,,,,,,,,,,,,,,,,,,,,,,,,,,,,,,,,,,71,146191,21,Female,1,2024/02/20_14:39:49,YZ,None,
,,,,,,calibration,0,32,2,500,1,V,0,right,0.7126933099934831,1,0,,,,,,,,,,,,,,,,,,,,,1,,,,,,,,,,,,,,,,,,,,,,,,,,,,,,,,,,,,,,,,,,,,,,71,146191,21,Female,1,2024/02/20_14:39:49,YZ,None,
,,,,,,calibration,0,32,2,500,2,S,0,right,0.35102337499847636,1,0,,,,,,,,,,,,,,,,,,,,,1,,,,,,,,,,,,,,,,,,,,,,,,,,,,,,,,,,,,,,,,,,,,,,71,146191,21,Female,1,2024/02/20_14:39:49,YZ,None,
,,,,,,calibration,0,32,2,500,3,J,0,right,0.3600503019988537,1,0,,,,,,,,,,,,,,,,,,,,,1,,,,,,,,,,,,,,,,,,,,,,,,,,,,,,,,,,,,,,,,,,,,,,71,146191,21,Female,1,2024/02/20_14:39:49,YZ,None,
,,,,,,calibration,0,32,2,500,4,Q,0,right,0.43339578199083917,1,0,,,,,,,,,,,,,,,,,,,,,1,,,,,,,,,,,,,,,,,,,,,,,,,,,,,,,,,,,,,,,,,,,,,,71,146191,21,Female,1,2024/02/20_14:39:49,YZ,None,
,,,,,,calibration,0,32,2,500,5,J,1,left,0.49979604699183255,1,0,,,,,,,,,,,,,,,,,,,,,1,,,,,,,,,,,,,,,,,,,,,,,,,,,,,,,,,,,,,,,,,,,,,,71,146191,21,Female,1,2024/02/20_14:39:49,YZ,None,
,,,,,,calibration,0,32,2,500,6,Q,1,right,0.3329370850115083,0,0,,,,,,,,,,,,,,,,,,,,,1,,,,,,,,,,,,,,,,,,,,,,,,,,,,,,,,,,,,,,,,,,,,,,71,146191,21,Female,1,2024/02/20_14:39:49,YZ,None,
,,,,,,calibration,0,32,2,500,7,V,0,right,0.3834427280089585,1,0,,,,,,,,,,,,,,,,,,,,,1,,,,,,,,,,,,,,,,,,,,,,,,,,,,,,,,,,,,,,,,,,,,,,71,146191,21,Female,1,2024/02/20_14:39:49,YZ,None,
,,,,,,calibration,0,32,2,500,8,N,0,right,0.3726293509971583,1,0,,,,,,,,,,,,,,,,,,,,,1,,,,,,,,,,,,,,,,,,,,,,,,,,,,,,,,,,,,,,,,,,,,,,71,146191,21,Female,1,2024/02/20_14:39:49,YZ,None,
,,,,,,calibration,0,32,2,500,9,V,1,left,0.49374896800145507,1,0,,,,,,,,,,,,,,,,,,,,,1,,,,,,,,,,,,,,,,,,,,,,,,,,,,,,,,,,,,,,,,,,,,,,71,146191,21,Female,1,2024/02/20_14:39:49,YZ,None,
,,,,,,calibration,0,32,2,500,10,X,0,right,0.4648650379967876,1,0,,,,,,,,,,,,,,,,,,,,,1,,,,,,,,,,,,,,,,,,,,,,,,,,,,,,,,,,,,,,,,,,,,,,71,146191,21,Female,1,2024/02/20_14:39:49,YZ,None,
,,,,,,calibration,0,32,2,500,11,V,1,right,0.5557060910068685,0,0,,,,,,,,,,,,,,,,,,,,,1,,,,,,,,,,,,,,,,,,,,,,,,,,,,,,,,,,,,,,,,,,,,,,71,146191,21,Female,1,2024/02/20_14:39:49,YZ,None,
,,,,,,calibration,0,32,2,500,12,F,0,right,0.42889736099459697,1,0,,,,,,,,,,,,,,,,,,,,,1,,,,,,,,,,,,,,,,,,,,,,,,,,,,,,,,,,,,,,,,,,,,,,71,146191,21,Female,1,2024/02/20_14:39:49,YZ,None,
,,,,,,calibration,0,32,2,500,13,C,0,right,0.4839713609981118,1,0,,,,,,,,,,,,,,,,,,,,,1,,,,,,,,,,,,,,,,,,,,,,,,,,,,,,,,,,,,,,,,,,,,,,71,146191,21,Female,1,2024/02/20_14:39:49,YZ,None,
,,,,,,calibration,0,32,2,500,14,N,0,right,0.49596887901134323,1,0,,,,,,,,,,,,,,,,,,,,,1,,,,,,,,,,,,,,,,,,,,,,,,,,,,,,,,,,,,,,,,,,,,,,71,146191,21,Female,1,2024/02/20_14:39:49,YZ,None,
,,,,,,calibration,0,32,2,500,15,C,1,right,0.39027033500315156,0,0,,,,,,,,,,,,,,,,,,,,,1,,,,,,,,,,,,,,,,,,,,,,,,,,,,,,,,,,,,,,,,,,,,,,71,146191,21,Female,1,2024/02/20_14:39:49,YZ,None,
,,,,,,calibration,0,32,2,500,16,J,0,right,0.4154283829993801,1,0,,,,,,,,,,,,,,,,,,,,,1,,,,,,,,,,,,,,,,,,,,,,,,,,,,,,,,,,,,,,,,,,,,,,71,146191,21,Female,1,2024/02/20_14:39:49,YZ,None,
,,,,,,calibration,0,32,2,500,,,,,,,,0.85,0.4,0.0,1.0,0.0,1.0,0.4484265247501753,2,0,0,0,0,11,13,5,11,0,,,,1,,,,,,,,,,,,,,,,,,,,,,,,,,,,,,,,,,,,,,,,,,,,,,71,146191,21,Female,1,2024/02/20_14:39:49,YZ,None,
,,,,,,Calibration,0,,2,500,,,,,,,,,,,,,,,,,,,,,,,,,10,,,1,,,,,,,,,,,,,,,,,,,,,,,,,,,,,,,,,,,,,,,,,,,,,,71,146191,21,Female,1,2024/02/20_14:39:49,YZ,None,
,,,,,,calibration,0,8,2,500,1,C,0,right,0.4404034530016361,1,0,,,,,,,,,,,,,,,,,,,,,1,,,,,,,,,,,,,,,,,,,,,,,,,,,,,,,,,,,,,,,,,,,,,,71,146191,21,Female,1,2024/02/20_14:39:49,YZ,None,
,,,,,,calibration,0,8,2,500,2,X,0,right,0.4335018690035213,1,0,,,,,,,,,,,,,,,,,,,,,1,,,,,,,,,,,,,,,,,,,,,,,,,,,,,,,,,,,,,,,,,,,,,,71,146191,21,Female,1,2024/02/20_14:39:49,YZ,None,
,,,,,,calibration,0,8,2,500,3,V,0,right,0.4481756509921979,1,0,,,,,,,,,,,,,,,,,,,,,1,,,,,,,,,,,,,,,,,,,,,,,,,,,,,,,,,,,,,,,,,,,,,,71,146191,21,Female,1,2024/02/20_14:39:49,YZ,None,
,,,,,,calibration,0,8,2,500,4,Q,0,right,0.4180265549948672,1,0,,,,,,,,,,,,,,,,,,,,,1,,,,,,,,,,,,,,,,,,,,,,,,,,,,,,,,,,,,,,,,,,,,,,71,146191,21,Female,1,2024/02/20_14:39:49,YZ,None,
,,,,,,calibration,0,8,2,500,5,V,1,left,0.6019504480063915,1,0,,,,,,,,,,,,,,,,,,,,,1,,,,,,,,,,,,,,,,,,,,,,,,,,,,,,,,,,,,,,,,,,,,,,71,146191,21,Female,1,2024/02/20_14:39:49,YZ,None,
,,,,,,calibration,0,8,2,500,6,X,0,right,0.429717184000765,1,0,,,,,,,,,,,,,,,,,,,,,1,,,,,,,,,,,,,,,,,,,,,,,,,,,,,,,,,,,,,,,,,,,,,,71,146191,21,Female,1,2024/02/20_14:39:49,YZ,None,
,,,,,,calibration,0,8,2,500,7,V,1,right,0.6048425140033942,0,0,,,,,,,,,,,,,,,,,,,,,1,,,,,,,,,,,,,,,,,,,,,,,,,,,,,,,,,,,,,,,,,,,,,,71,146191,21,Female,1,2024/02/20_14:39:49,YZ,None,
,,,,,,calibration,0,8,2,500,8,Q,0,right,0.3664121339970734,1,0,,,,,,,,,,,,,,,,,,,,,1,,,,,,,,,,,,,,,,,,,,,,,,,,,,,,,,,,,,,,,,,,,,,,71,146191,21,Female,1,2024/02/20_14:39:49,YZ,None,
,,,,,,calibration,0,8,2,500,9,V,1,left,0.6121641560021089,1,0,,,,,,,,,,,,,,,,,,,,,1,,,,,,,,,,,,,,,,,,,,,,,,,,,,,,,,,,,,,,,,,,,,,,71,146191,21,Female,1,2024/02/20_14:39:49,YZ,None,
,,,,,,calibration,0,8,2,500,10,S,0,right,0.32198727200739086,1,0,,,,,,,,,,,,,,,,,,,,,1,,,,,,,,,,,,,,,,,,,,,,,,,,,,,,,,,,,,,,,,,,,,,,71,146191,21,Female,1,2024/02/20_14:39:49,YZ,None,
,,,,,,calibration,0,8,2,500,11,N,0,right,0.2988067179976497,1,0,,,,,,,,,,,,,,,,,,,,,1,,,,,,,,,,,,,,,,,,,,,,,,,,,,,,,,,,,,,,,,,,,,,,71,146191,21,Female,1,2024/02/20_14:39:49,YZ,None,
,,,,,,calibration,0,8,2,500,12,S,1,left,0.5328267809964018,1,0,,,,,,,,,,,,,,,,,,,,,1,,,,,,,,,,,,,,,,,,,,,,,,,,,,,,,,,,,,,,,,,,,,,,71,146191,21,Female,1,2024/02/20_14:39:49,YZ,None,
,,,,,,calibration,0,8,2,500,13,Q,0,right,0.3719005449966062,1,0,,,,,,,,,,,,,,,,,,,,,1,,,,,,,,,,,,,,,,,,,,,,,,,,,,,,,,,,,,,,,,,,,,,,71,146191,21,Female,1,2024/02/20_14:39:49,YZ,None,
,,,,,,calibration,0,8,2,500,14,J,0,right,0.39350317101343535,1,0,,,,,,,,,,,,,,,,,,,,,1,,,,,,,,,,,,,,,,,,,,,,,,,,,,,,,,,,,,,,,,,,,,,,71,146191,21,Female,1,2024/02/20_14:39:49,YZ,None,
,,,,,,calibration,0,8,2,500,15,Q,1,left,0.6419138740020571,1,0,,,,,,,,,,,,,,,,,,,,,1,,,,,,,,,,,,,,,,,,,,,,,,,,,,,,,,,,,,,,,,,,,,,,71,146191,21,Female,1,2024/02/20_14:39:49,YZ,None,
,,,,,,calibration,0,8,2,500,16,N,0,right,0.407903041006648,1,0,,,,,,,,,,,,,,,,,,,,,1,,,,,,,,,,,,,,,,,,,,,,,,,,,,,,,,,,,,,,,,,,,,,,71,146191,21,Female,1,2024/02/20_14:39:49,YZ,None,
,,,,,,calibration,0,8,2,500,,,,,,,,0.95,0.8,0.0,1.0,0.0,1.0,0.45775221037638403,4,0,0,0,0,11,15,5,11,0,,,,1,,,,,,,,,,,,,,,,,,,,,,,,,,,,,,,,,,,,,,,,,,,,,,71,146191,21,Female,1,2024/02/20_14:39:49,YZ,None,
,,,,,,Calibration,0,,2,500,,,,,,,,,,,,,,,,,,,,,,,,,11,,,1,,,,,,,,,,,,,,,,,,,,,,,,,,,,,,,,,,,,,,,,,,,,,,71,146191,21,Female,1,2024/02/20_14:39:49,YZ,None,
,,,,,,calibration,0,17,2,426,1,Q,0,right,0.4793105370044941,1,0,,,,,,,,,,,,,,,,,,,,,1,,,,,,,,,,,,,,,,,,,,,,,,,,,,,,,,,,,,,,,,,,,,,,71,146191,21,Female,1,2024/02/20_14:39:49,YZ,None,
,,,,,,calibration,0,17,2,426,2,Q,0,right,0.4283725429995684,1,0,,,,,,,,,,,,,,,,,,,,,1,,,,,,,,,,,,,,,,,,,,,,,,,,,,,,,,,,,,,,,,,,,,,,71,146191,21,Female,1,2024/02/20_14:39:49,YZ,None,
,,,,,,calibration,0,17,2,426,3,V,0,right,0.46643394099373836,1,0,,,,,,,,,,,,,,,,,,,,,1,,,,,,,,,,,,,,,,,,,,,,,,,,,,,,,,,,,,,,,,,,,,,,71,146191,21,Female,1,2024/02/20_14:39:49,YZ,None,
,,,,,,calibration,0,17,2,426,4,C,0,right,0.46397284499835223,1,0,,,,,,,,,,,,,,,,,,,,,1,,,,,,,,,,,,,,,,,,,,,,,,,,,,,,,,,,,,,,,,,,,,,,71,146191,21,Female,1,2024/02/20_14:39:49,YZ,None,
,,,,,,calibration,0,17,2,426,5,J,0,right,0.4439974769920809,1,0,,,,,,,,,,,,,,,,,,,,,1,,,,,,,,,,,,,,,,,,,,,,,,,,,,,,,,,,,,,,,,,,,,,,71,146191,21,Female,1,2024/02/20_14:39:49,YZ,None,
,,,,,,calibration,0,17,2,426,6,Q,0,right,0.402106442998047,1,0,,,,,,,,,,,,,,,,,,,,,1,,,,,,,,,,,,,,,,,,,,,,,,,,,,,,,,,,,,,,,,,,,,,,71,146191,21,Female,1,2024/02/20_14:39:49,YZ,None,
,,,,,,calibration,0,17,2,426,7,J,1,right,0.3858762510062661,0,0,,,,,,,,,,,,,,,,,,,,,1,,,,,,,,,,,,,,,,,,,,,,,,,,,,,,,,,,,,,,,,,,,,,,71,146191,21,Female,1,2024/02/20_14:39:49,YZ,None,
,,,,,,calibration,0,17,2,426,8,Q,1,right,0.43222844900446944,0,0,,,,,,,,,,,,,,,,,,,,,1,,,,,,,,,,,,,,,,,,,,,,,,,,,,,,,,,,,,,,,,,,,,,,71,146191,21,Female,1,2024/02/20_14:39:49,YZ,None,
,,,,,,calibration,0,17,2,426,9,F,0,right,0.42040756599453744,1,0,,,,,,,,,,,,,,,,,,,,,1,,,,,,,,,,,,,,,,,,,,,,,,,,,,,,,,,,,,,,,,,,,,,,71,146191,21,Female,1,2024/02/20_14:39:49,YZ,None,
,,,,,,calibration,0,17,2,426,10,X,0,right,0.48844375999760814,1,0,,,,,,,,,,,,,,,,,,,,,1,,,,,,,,,,,,,,,,,,,,,,,,,,,,,,,,,,,,,,,,,,,,,,71,146191,21,Female,1,2024/02/20_14:39:49,YZ,None,
,,,,,,calibration,0,17,2,426,11,F,1,right,0.41546740000194404,0,0,,,,,,,,,,,,,,,,,,,,,1,,,,,,,,,,,,,,,,,,,,,,,,,,,,,,,,,,,,,,,,,,,,,,71,146191,21,Female,1,2024/02/20_14:39:49,YZ,None,
,,,,,,calibration,0,17,2,426,12,X,1,left,0.572433381996234,1,0,,,,,,,,,,,,,,,,,,,,,1,,,,,,,,,,,,,,,,,,,,,,,,,,,,,,,,,,,,,,,,,,,,,,71,146191,21,Female,1,2024/02/20_14:39:49,YZ,None,
,,,,,,calibration,0,17,2,426,13,C,0,right,0.4632200019987067,1,0,,,,,,,,,,,,,,,,,,,,,1,,,,,,,,,,,,,,,,,,,,,,,,,,,,,,,,,,,,,,,,,,,,,,71,146191,21,Female,1,2024/02/20_14:39:49,YZ,None,
,,,,,,calibration,0,17,2,426,14,N,0,right,0.4805297559942119,1,0,,,,,,,,,,,,,,,,,,,,,1,,,,,,,,,,,,,,,,,,,,,,,,,,,,,,,,,,,,,,,,,,,,,,71,146191,21,Female,1,2024/02/20_14:39:49,YZ,None,
,,,,,,calibration,0,17,2,426,15,Q,0,right,0.39347652399737854,1,0,,,,,,,,,,,,,,,,,,,,,1,,,,,,,,,,,,,,,,,,,,,,,,,,,,,,,,,,,,,,,,,,,,,,71,146191,21,Female,1,2024/02/20_14:39:49,YZ,None,
,,,,,,calibration,0,17,2,426,16,F,0,right,0.4608206720004091,1,0,,,,,,,,,,,,,,,,,,,,,1,,,,,,,,,,,,,,,,,,,,,,,,,,,,,,,,,,,,,,,,,,,,,,71,146191,21,Female,1,2024/02/20_14:39:49,YZ,None,
,,,,,,calibration,0,17,2,426,17,Q,1,right,0.5240555740019772,0,0,,,,,,,,,,,,,,,,,,,,,1,,,,,,,,,,,,,,,,,,,,,,,,,,,,,,,,,,,,,,,,,,,,,,71,146191,21,Female,1,2024/02/20_14:39:49,YZ,None,
,,,,,,calibration,0,17,2,426,,,,,,,,0.8,0.2,0.0,1.0,0.0,1.0,0.4541854777635308,1,0,0,0,0,12,13,5,12,0,,,,1,,,,,,,,,,,,,,,,,,,,,,,,,,,,,,,,,,,,,,,,,,,,,,71,146191,21,Female,1,2024/02/20_14:39:49,YZ,None,
,,,,,,Calibration,0,,2,426,,,,,,,,,,,,,,,,,,,,,,,,,12,,,1,,,,,,,,,,,,,,,,,,,,,,,,,,,,,,,,,,,,,,,,,,,,,,71,146191,21,Female,1,2024/02/20_14:39:49,YZ,None,
,,,,,,calibration,0,26,2,426,1,N,0,right,0.446383094007615,1,0,,,,,,,,,,,,,,,,,,,,,1,,,,,,,,,,,,,,,,,,,,,,,,,,,,,,,,,,,,,,,,,,,,,,71,146191,21,Female,1,2024/02/20_14:39:49,YZ,None,
,,,,,,calibration,0,26,2,426,2,F,0,right,0.3888292109913891,1,0,,,,,,,,,,,,,,,,,,,,,1,,,,,,,,,,,,,,,,,,,,,,,,,,,,,,,,,,,,,,,,,,,,,,71,146191,21,Female,1,2024/02/20_14:39:49,YZ,None,
,,,,,,calibration,0,26,2,426,3,N,1,left,0.5122814709902741,1,0,,,,,,,,,,,,,,,,,,,,,1,,,,,,,,,,,,,,,,,,,,,,,,,,,,,,,,,,,,,,,,,,,,,,71,146191,21,Female,1,2024/02/20_14:39:49,YZ,None,
,,,,,,calibration,0,26,2,426,4,S,0,right,0.4518592439999338,1,0,,,,,,,,,,,,,,,,,,,,,1,,,,,,,,,,,,,,,,,,,,,,,,,,,,,,,,,,,,,,,,,,,,,,71,146191,21,Female,1,2024/02/20_14:39:49,YZ,None,
,,,,,,calibration,0,26,2,426,5,V,0,right,0.34354743399308063,1,0,,,,,,,,,,,,,,,,,,,,,1,,,,,,,,,,,,,,,,,,,,,,,,,,,,,,,,,,,,,,,,,,,,,,71,146191,21,Female,1,2024/02/20_14:39:49,YZ,None,
,,,,,,calibration,0,26,2,426,6,Q,0,right,0.36060955800348893,1,0,,,,,,,,,,,,,,,,,,,,,1,,,,,,,,,,,,,,,,,,,,,,,,,,,,,,,,,,,,,,,,,,,,,,71,146191,21,Female,1,2024/02/20_14:39:49,YZ,None,
,,,,,,calibration,0,26,2,426,7,V,1,right,0.34870684500492644,0,0,,,,,,,,,,,,,,,,,,,,,1,,,,,,,,,,,,,,,,,,,,,,,,,,,,,,,,,,,,,,,,,,,,,,71,146191,21,Female,1,2024/02/20_14:39:49,YZ,None,
,,,,,,calibration,0,26,2,426,8,Q,1,right,0.5352622539940057,0,0,,,,,,,,,,,,,,,,,,,,,1,,,,,,,,,,,,,,,,,,,,,,,,,,,,,,,,,,,,,,,,,,,,,,71,146191,21,Female,1,2024/02/20_14:39:49,YZ,None,
,,,,,,calibration,0,26,2,426,9,J,0,right,0.5628019880095962,1,0,,,,,,,,,,,,,,,,,,,,,1,,,,,,,,,,,,,,,,,,,,,,,,,,,,,,,,,,,,,,,,,,,,,,71,146191,21,Female,1,2024/02/20_14:39:49,YZ,None,
,,,,,,calibration,0,26,2,426,10,S,0,right,0.39160097599960864,1,0,,,,,,,,,,,,,,,,,,,,,1,,,,,,,,,,,,,,,,,,,,,,,,,,,,,,,,,,,,,,,,,,,,,,71,146191,21,Female,1,2024/02/20_14:39:49,YZ,None,
,,,,,,calibration,0,26,2,426,11,J,1,right,0.40996768399782013,0,0,,,,,,,,,,,,,,,,,,,,,1,,,,,,,,,,,,,,,,,,,,,,,,,,,,,,,,,,,,,,,,,,,,,,71,146191,21,Female,1,2024/02/20_14:39:49,YZ,None,
,,,,,,calibration,0,26,2,426,12,V,0,right,0.47630905799451284,1,0,,,,,,,,,,,,,,,,,,,,,1,,,,,,,,,,,,,,,,,,,,,,,,,,,,,,,,,,,,,,,,,,,,,,71,146191,21,Female,1,2024/02/20_14:39:49,YZ,None,
,,,,,,calibration,0,26,2,426,13,X,0,right,0.41044687999237794,1,0,,,,,,,,,,,,,,,,,,,,,1,,,,,,,,,,,,,,,,,,,,,,,,,,,,,,,,,,,,,,,,,,,,,,71,146191,21,Female,1,2024/02/20_14:39:49,YZ,None,
,,,,,,calibration,0,26,2,426,14,V,1,right,0.6900962110084947,0,0,,,,,,,,,,,,,,,,,,,,,1,,,,,,,,,,,,,,,,,,,,,,,,,,,,,,,,,,,,,,,,,,,,,,71,146191,21,Female,1,2024/02/20_14:39:49,YZ,None,
,,,,,,calibration,0,26,2,426,15,F,0,right,0.6055984199920204,1,0,,,,,,,,,,,,,,,,,,,,,1,,,,,,,,,,,,,,,,,,,,,,,,,,,,,,,,,,,,,,,,,,,,,,71,146191,21,Female,1,2024/02/20_14:39:49,YZ,None,
,,,,,,calibration,0,26,2,426,16,S,0,right,0.43617683100455906,1,0,,,,,,,,,,,,,,,,,,,,,1,,,,,,,,,,,,,,,,,,,,,,,,,,,,,,,,,,,,,,,,,,,,,,71,146191,21,Female,1,2024/02/20_14:39:49,YZ,None,
,,,,,,calibration,0,26,2,426,17,J,0,right,0.4955456299940124,1,0,,,,,,,,,,,,,,,,,,,,,1,,,,,,,,,,,,,,,,,,,,,,,,,,,,,,,,,,,,,,,,,,,,,,71,146191,21,Female,1,2024/02/20_14:39:49,YZ,None,
,,,,,,calibration,0,26,2,426,,,,,,,,0.8,0.2,0.0,1.0,0.0,1.0,0.4627072228810421,1,0,0,0,0,12,13,5,12,0,,,,1,,,,,,,,,,,,,,,,,,,,,,,,,,,,,,,,,,,,,,,,,,,,,,71,146191,21,Female,1,2024/02/20_14:39:49,YZ,None,
,,,,,,Calibration,0,,2,426,,,,,,,,,,,,,,,,,,,,,,,,,13,,,1,,,,,,,,,,,,,,,,,,,,,,,,,,,,,,,,,,,,,,,,,,,,,,71,146191,21,Female,1,2024/02/20_14:39:49,YZ,None,
,,,,,,calibration,0,12,2,426,1,C,0,right,0.3912934609979857,1,0,,,,,,,,,,,,,,,,,,,,,1,,,,,,,,,,,,,,,,,,,,,,,,,,,,,,,,,,,,,,,,,,,,,,71,146191,21,Female,1,2024/02/20_14:39:49,YZ,None,
,,,,,,calibration,0,12,2,426,2,V,0,right,0.3681007109989878,1,0,,,,,,,,,,,,,,,,,,,,,1,,,,,,,,,,,,,,,,,,,,,,,,,,,,,,,,,,,,,,,,,,,,,,71,146191,21,Female,1,2024/02/20_14:39:49,YZ,None,
,,,,,,calibration,0,12,2,426,3,F,0,right,0.35192151099909097,1,0,,,,,,,,,,,,,,,,,,,,,1,,,,,,,,,,,,,,,,,,,,,,,,,,,,,,,,,,,,,,,,,,,,,,71,146191,21,Female,1,2024/02/20_14:39:49,YZ,None,
,,,,,,calibration,0,12,2,426,4,S,0,right,0.3256434340000851,1,0,,,,,,,,,,,,,,,,,,,,,1,,,,,,,,,,,,,,,,,,,,,,,,,,,,,,,,,,,,,,,,,,,,,,71,146191,21,Female,1,2024/02/20_14:39:49,YZ,None,
,,,,,,calibration,0,12,2,426,5,Q,0,right,0.3329533099895343,1,0,,,,,,,,,,,,,,,,,,,,,1,,,,,,,,,,,,,,,,,,,,,,,,,,,,,,,,,,,,,,,,,,,,,,71,146191,21,Female,1,2024/02/20_14:39:49,YZ,None,
,,,,,,calibration,0,12,2,426,6,N,0,right,0.3442743039922789,1,0,,,,,,,,,,,,,,,,,,,,,1,,,,,,,,,,,,,,,,,,,,,,,,,,,,,,,,,,,,,,,,,,,,,,71,146191,21,Female,1,2024/02/20_14:39:49,YZ,None,
,,,,,,calibration,0,12,2,426,7,Q,1,right,0.3675805719976779,0,0,,,,,,,,,,,,,,,,,,,,,1,,,,,,,,,,,,,,,,,,,,,,,,,,,,,,,,,,,,,,,,,,,,,,71,146191,21,Female,1,2024/02/20_14:39:49,YZ,None,
,,,,,,calibration,0,12,2,426,8,N,1,right,0.4160471549985232,0,0,,,,,,,,,,,,,,,,,,,,,1,,,,,,,,,,,,,,,,,,,,,,,,,,,,,,,,,,,,,,,,,,,,,,71,146191,21,Female,1,2024/02/20_14:39:49,YZ,None,
,,,,,,calibration,0,12,2,426,9,V,0,right,0.3894453459943179,1,0,,,,,,,,,,,,,,,,,,,,,1,,,,,,,,,,,,,,,,,,,,,,,,,,,,,,,,,,,,,,,,,,,,,,71,146191,21,Female,1,2024/02/20_14:39:49,YZ,None,
,,,,,,calibration,0,12,2,426,10,F,0,right,0.3194009540020488,1,0,,,,,,,,,,,,,,,,,,,,,1,,,,,,,,,,,,,,,,,,,,,,,,,,,,,,,,,,,,,,,,,,,,,,71,146191,21,Female,1,2024/02/20_14:39:49,YZ,None,
,,,,,,calibration,0,12,2,426,11,S,0,right,0.4398193930101115,1,0,,,,,,,,,,,,,,,,,,,,,1,,,,,,,,,,,,,,,,,,,,,,,,,,,,,,,,,,,,,,,,,,,,,,71,146191,21,Female,1,2024/02/20_14:39:49,YZ,None,
,,,,,,calibration,0,12,2,426,12,F,1,right,0.34461969399126247,0,0,,,,,,,,,,,,,,,,,,,,,1,,,,,,,,,,,,,,,,,,,,,,,,,,,,,,,,,,,,,,,,,,,,,,71,146191,21,Female,1,2024/02/20_14:39:49,YZ,None,
,,,,,,calibration,0,12,2,426,13,X,0,right,0.353035070002079,1,0,,,,,,,,,,,,,,,,,,,,,1,,,,,,,,,,,,,,,,,,,,,,,,,,,,,,,,,,,,,,,,,,,,,,71,146191,21,Female,1,2024/02/20_14:39:49,YZ,None,
,,,,,,calibration,0,12,2,426,14,F,1,right,0.36007007300213445,0,0,,,,,,,,,,,,,,,,,,,,,1,,,,,,,,,,,,,,,,,,,,,,,,,,,,,,,,,,,,,,,,,,,,,,71,146191,21,Female,1,2024/02/20_14:39:49,YZ,None,
,,,,,,calibration,0,12,2,426,15,C,0,right,0.33743814899935387,1,0,,,,,,,,,,,,,,,,,,,,,1,,,,,,,,,,,,,,,,,,,,,,,,,,,,,,,,,,,,,,,,,,,,,,71,146191,21,Female,1,2024/02/20_14:39:49,YZ,None,
,,,,,,calibration,0,12,2,426,16,F,1,right,0.3921456219977699,0,0,,,,,,,,,,,,,,,,,,,,,1,,,,,,,,,,,,,,,,,,,,,,,,,,,,,,,,,,,,,,,,,,,,,,71,146191,21,Female,1,2024/02/20_14:39:49,YZ,None,
,,,,,,calibration,0,12,2,426,17,X,0,right,0.4171332080004504,1,0,,,,,,,,,,,,,,,,,,,,,1,,,,,,,,,,,,,,,,,,,,,,,,,,,,,,,,,,,,,,,,,,,,,,71,146191,21,Female,1,2024/02/20_14:39:49,YZ,None,
,,,,,,calibration,0,12,2,426,,,,,,,,0.5,0.0,0.0,1.0,0.0,1.0,0.3677012921749231,0,0,0,0,0,12,12,5,12,0,,,,1,,,,,,,,,,,,,,,,,,,,,,,,,,,,,,,,,,,,,,,,,,,,,,71,146191,21,Female,1,2024/02/20_14:39:49,YZ,None,
,,,,,,Calibration,0,,2,426,,,,,,,,,,,,,,,,,,,,,,,,,14,,,1,,,,,,,,,,,,,,,,,,,,,,,,,,,,,,,,,,,,,,,,,,,,,,71,146191,21,Female,1,2024/02/20_14:39:49,YZ,None,
,,,,,,calibration,0,12,2,500,1,V,0,right,0.42694815499999095,1,0,,,,,,,,,,,,,,,,,,,,,1,,,,,,,,,,,,,,,,,,,,,,,,,,,,,,,,,,,,,,,,,,,,,,71,146191,21,Female,1,2024/02/20_14:39:49,YZ,None,
,,,,,,calibration,0,12,2,500,2,V,0,right,0.3807585040049162,1,0,,,,,,,,,,,,,,,,,,,,,1,,,,,,,,,,,,,,,,,,,,,,,,,,,,,,,,,,,,,,,,,,,,,,71,146191,21,Female,1,2024/02/20_14:39:49,YZ,None,
,,,,,,calibration,0,12,2,500,3,Q,0,right,0.5737083229905693,1,0,,,,,,,,,,,,,,,,,,,,,1,,,,,,,,,,,,,,,,,,,,,,,,,,,,,,,,,,,,,,,,,,,,,,71,146191,21,Female,1,2024/02/20_14:39:49,YZ,None,
,,,,,,calibration,0,12,2,500,4,S,0,right,0.40327029798936564,1,0,,,,,,,,,,,,,,,,,,,,,1,,,,,,,,,,,,,,,,,,,,,,,,,,,,,,,,,,,,,,,,,,,,,,71,146191,21,Female,1,2024/02/20_14:39:49,YZ,None,
,,,,,,calibration,0,12,2,500,5,C,0,right,0.4165833970037056,1,0,,,,,,,,,,,,,,,,,,,,,1,,,,,,,,,,,,,,,,,,,,,,,,,,,,,,,,,,,,,,,,,,,,,,71,146191,21,Female,1,2024/02/20_14:39:49,YZ,None,
,,,,,,calibration,0,12,2,500,6,S,1,left,0.6444235339877196,1,0,,,,,,,,,,,,,,,,,,,,,1,,,,,,,,,,,,,,,,,,,,,,,,,,,,,,,,,,,,,,,,,,,,,,71,146191,21,Female,1,2024/02/20_14:39:49,YZ,None,
,,,,,,calibration,0,12,2,500,7,V,0,right,0.5575793110037921,1,0,,,,,,,,,,,,,,,,,,,,,1,,,,,,,,,,,,,,,,,,,,,,,,,,,,,,,,,,,,,,,,,,,,,,71,146191,21,Female,1,2024/02/20_14:39:49,YZ,None,
,,,,,,calibration,0,12,2,500,8,J,0,right,0.42562566201377194,1,0,,,,,,,,,,,,,,,,,,,,,1,,,,,,,,,,,,,,,,,,,,,,,,,,,,,,,,,,,,,,,,,,,,,,71,146191,21,Female,1,2024/02/20_14:39:49,YZ,None,
,,,,,,calibration,0,12,2,500,9,V,1,left,0.5241181159944972,1,0,,,,,,,,,,,,,,,,,,,,,1,,,,,,,,,,,,,,,,,,,,,,,,,,,,,,,,,,,,,,,,,,,,,,71,146191,21,Female,1,2024/02/20_14:39:49,YZ,None,
,,,,,,calibration,0,12,2,500,10,S,0,right,0.4169862410053611,1,0,,,,,,,,,,,,,,,,,,,,,1,,,,,,,,,,,,,,,,,,,,,,,,,,,,,,,,,,,,,,,,,,,,,,71,146191,21,Female,1,2024/02/20_14:39:49,YZ,None,
,,,,,,calibration,0,12,2,500,11,V,1,left,0.5628533669951139,1,0,,,,,,,,,,,,,,,,,,,,,1,,,,,,,,,,,,,,,,,,,,,,,,,,,,,,,,,,,,,,,,,,,,,,71,146191,21,Female,1,2024/02/20_14:39:49,YZ,None,
,,,,,,calibration,0,12,2,500,12,S,1,right,0.371571783995023,0,0,,,,,,,,,,,,,,,,,,,,,1,,,,,,,,,,,,,,,,,,,,,,,,,,,,,,,,,,,,,,,,,,,,,,71,146191,21,Female,1,2024/02/20_14:39:49,YZ,None,
,,,,,,calibration,0,12,2,500,13,Q,0,left,0.0,0,0,,,,,,,,,,,,,,,,,,,,,1,,,,,,,,,,,,,,,,,,,,,,,,,,,,,,,,,,,,,,,,,,,,,,71,146191,21,Female,1,2024/02/20_14:39:49,YZ,None,
,,,,,,calibration,0,12,2,500,14,S,1,left,0.16951213800348341,1,0,,,,,,,,,,,,,,,,,,,,,1,,,,,,,,,,,,,,,,,,,,,,,,,,,,,,,,,,,,,,,,,,,,,,71,146191,21,Female,1,2024/02/20_14:39:49,YZ,None,
,,,,,,calibration,0,12,2,500,15,F,0,right,0.5851980059960624,1,0,,,,,,,,,,,,,,,,,,,,,1,,,,,,,,,,,,,,,,,,,,,,,,,,,,,,,,,,,,,,,,,,,,,,71,146191,21,Female,1,2024/02/20_14:39:49,YZ,None,
,,,,,,calibration,0,12,2,500,16,J,0,right,0.6077032400062308,1,0,,,,,,,,,,,,,,,,,,,,,1,,,,,,,,,,,,,,,,,,,,,,,,,,,,,,,,,,,,,,,,,,,,,,71,146191,21,Female,1,2024/02/20_14:39:49,YZ,None,
,,,,,,calibration,0,12,2,500,,,,,,,,0.9090909090909091,0.8,0.09090909090909091,0.9090909090909091,0.0,0.9090909090909091,0.4416775047493502,4,1,0,0,0,10,14,5,11,0,,,,1,,,,,,,,,,,,,,,,,,,,,,,,,,,,,,,,,,,,,,,,,,,,,,71,146191,21,Female,1,2024/02/20_14:39:49,YZ,None,
,,,,,,Calibration,0,,2,500,,,,,,,,,,,,,,,,,,,,,,,,,15,,,1,,,,,,,,,,,,,,,,,,,,,,,,,,,,,,,,,,,,,,,,,,,,,,71,146191,21,Female,1,2024/02/20_14:39:49,YZ,None,
,,,,,,CALIBRATION,0,,,,,,,,,,,,,,,,,,,,,,,,,,,,15,0.9090909090909091,500,1,,,,,,,,,,,,,,,,,,,,,,,,,,,,,,,,,,,,,,,,,,,,,,71,146191,21,Female,1,2024/02/20_14:39:49,YZ,None,
1,./instructions/inst_prac_1/Slide24.png,right,8.325916779009276,464.8321112799895,473.15802805899875,,,,,,,,,,,,,,,,,,,,,,,,,,,,,,,,,1,,,,,,,,,,,,,,,,,,,,,,,,,,,,,,,,,,,,,,,,,,,,,,71,146191,21,Female,1,2024/02/20_14:39:49,YZ,None,
2,./instructions/inst_prac_1/Slide25.png,right,1.763352321999264,473.1867675169924,474.95011983899167,,,,,,,,,,,,,,,,,,,,,,,,,,,,,,,,,1,,,,,,,,,,,,,,,,,,,,,,,,,,,,,,,,,,,,,,,,,,,,,,71,146191,21,Female,1,2024/02/20_14:39:49,YZ,None,
3,./instructions/inst_prac_1/Slide26.png,right,0.6059374210017268,474.97598173499864,475.58191915600037,,,,,,,,,,,,,,,,,,,,,,,,,,,,,,,,,1,,,,,,,,,,,,,,,,,,,,,,,,,,,,,,,,,,,,,,,,,,,,,,71,146191,21,Female,1,2024/02/20_14:39:49,YZ,None,
4,./instructions/inst_prac_1/Slide27.png,right,0.6614100000006147,475.60866835499473,476.27007835499535,,,,,,,,,,,,,,,,,,,,,,,,,,,,,,,,,1,,,,,,,,,,,,,,,,,,,,,,,,,,,,,,,,,,,,,,,,,,,,,,71,146191,21,Female,1,2024/02/20_14:39:49,YZ,None,
5,./instructions/inst_prac_1/Slide28.png,right,0.5709882730006939,476.2990240629879,476.8700123359886,,,,,,,,,,,,,,,,,,,,,,,,,,,,,,,,,1,,,,,,,,,,,,,,,,,,,,,,,,,,,,,,,,,,,,,,,,,,,,,,71,146191,21,Female,1,2024/02/20_14:39:49,YZ,None,
6,./instructions/inst_prac_1/Slide29.png,right,1.2079736849991605,476.89413978299126,478.1021134679904,,,,,,,,,,,,,,,,,,,,,,,,,,,,,,,,,1,,,,,,,,,,,,,,,,,,,,,,,,,,,,,,,,,,,,,,,,,,,,,,71,146191,21,Female,1,2024/02/20_14:39:49,YZ,None,
7,./instructions/inst_prac_1/Slide30.png,right,0.7817260240117321,478.1284778229892,478.91020384700096,,,,,,,,,,,,,,,,,,,,,,,,,,,,,,,,,1,,,,,,,,,,,,,,,,,,,,,,,,,,,,,,,,,,,,,,,,,,,,,,71,146191,21,Female,1,2024/02/20_14:39:49,YZ,None,
,,,,,,practice,0,14,1,1250,1,N,0,right,0.4911326639994513,1,0,,,,,,,,,,,,,,,,,,,,,1,,,,,,,,,,,,,,,,,,,,,,,,,,,,,,,,,,,,,,,,,,,,,,71,146191,21,Female,1,2024/02/20_14:39:49,YZ,None,
,,,,,,practice,0,14,1,1250,2,F,0,right,0.25818446499761194,1,0,,,,,,,,,,,,,,,,,,,,,1,,,,,,,,,,,,,,,,,,,,,,,,,,,,,,,,,,,,,,,,,,,,,,71,146191,21,Female,1,2024/02/20_14:39:49,YZ,None,
,,,,,,practice,0,14,1,1250,3,Q,0,right,0.3293120089947479,1,0,,,,,,,,,,,,,,,,,,,,,1,,,,,,,,,,,,,,,,,,,,,,,,,,,,,,,,,,,,,,,,,,,,,,71,146191,21,Female,1,2024/02/20_14:39:49,YZ,None,
,,,,,,practice,0,14,1,1250,4,Q,1,left,0.4927946759999031,1,0,,,,,,,,,,,,,,,,,,,,,1,,,,,,,,,,,,,,,,,,,,,,,,,,,,,,,,,,,,,,,,,,,,,,71,146191,21,Female,1,2024/02/20_14:39:49,YZ,None,
,,,,,,practice,0,14,1,1250,5,C,0,right,0.6688924939953722,1,0,,,,,,,,,,,,,,,,,,,,,1,,,,,,,,,,,,,,,,,,,,,,,,,,,,,,,,,,,,,,,,,,,,,,71,146191,21,Female,1,2024/02/20_14:39:49,YZ,None,
,,,,,,practice,0,14,1,1250,6,N,0,right,0.40408562299853656,1,0,,,,,,,,,,,,,,,,,,,,,1,,,,,,,,,,,,,,,,,,,,,,,,,,,,,,,,,,,,,,,,,,,,,,71,146191,21,Female,1,2024/02/20_14:39:49,YZ,None,
,,,,,,practice,0,14,1,1250,7,J,0,right,0.4190787240077043,1,0,,,,,,,,,,,,,,,,,,,,,1,,,,,,,,,,,,,,,,,,,,,,,,,,,,,,,,,,,,,,,,,,,,,,71,146191,21,Female,1,2024/02/20_14:39:49,YZ,None,
,,,,,,practice,0,14,1,1250,8,J,1,left,0.5773015400045551,1,0,,,,,,,,,,,,,,,,,,,,,1,,,,,,,,,,,,,,,,,,,,,,,,,,,,,,,,,,,,,,,,,,,,,,71,146191,21,Female,1,2024/02/20_14:39:49,YZ,None,
,,,,,,practice,0,14,1,1250,9,C,0,right,0.5372839089977788,1,0,,,,,,,,,,,,,,,,,,,,,1,,,,,,,,,,,,,,,,,,,,,,,,,,,,,,,,,,,,,,,,,,,,,,71,146191,21,Female,1,2024/02/20_14:39:49,YZ,None,
,,,,,,practice,0,14,1,1250,10,C,1,right,0.3933520220016362,0,0,,,,,,,,,,,,,,,,,,,,,1,,,,,,,,,,,,,,,,,,,,,,,,,,,,,,,,,,,,,,,,,,,,,,71,146191,21,Female,1,2024/02/20_14:39:49,YZ,None,
,,,,,,practice,0,14,1,1250,,,,,,,,0.9166666666666666,0.6666666666666666,0.0,1.0,0.0,1.0,0.45714181259972975,2,0,0,0,0,7,9,3,7,0,,,,1,,,,,,,,,,,,,,,,,,,,,,,,,,,,,,,,,,,,,,,,,,,,,,71,146191,21,Female,1,2024/02/20_14:39:49,YZ,None,
-1,./instructions/inst_prac_1_next/Slide35.png,left,1.9177896490000421,494.5044340399909,496.4222236889909,,,,,,,,,,,,,,,,,,,,,,,,,,,,,,,,,1,,,,,,,,,,,,,,,,,,,,,,,,,,,,,,,,,,,,,,,,,,,,,,71,146191,21,Female,1,2024/02/20_14:39:49,YZ,None,
,,,,,,practice,0,8,1,500,1,S,0,right,1.0415568940079538,1,0,,,,,,,,,,,,,,,,,,,,,1,,,,,,,,,,,,,,,,,,,,,,,,,,,,,,,,,,,,,,,,,,,,,,71,146191,21,Female,1,2024/02/20_14:39:49,YZ,None,
,,,,,,practice,0,8,1,500,2,Q,0,right,0.4057926999957999,1,0,,,,,,,,,,,,,,,,,,,,,1,,,,,,,,,,,,,,,,,,,,,,,,,,,,,,,,,,,,,,,,,,,,,,71,146191,21,Female,1,2024/02/20_14:39:49,YZ,None,
,,,,,,practice,0,8,1,500,3,X,0,right,0.36156100800144486,1,0,,,,,,,,,,,,,,,,,,,,,1,,,,,,,,,,,,,,,,,,,,,,,,,,,,,,,,,,,,,,,,,,,,,,71,146191,21,Female,1,2024/02/20_14:39:49,YZ,None,
,,,,,,practice,0,8,1,500,4,X,1,left,0.5951141630066559,1,0,,,,,,,,,,,,,,,,,,,,,1,,,,,,,,,,,,,,,,,,,,,,,,,,,,,,,,,,,,,,,,,,,,,,71,146191,21,Female,1,2024/02/20_14:39:49,YZ,None,
,,,,,,practice,0,8,1,500,5,F,0,right,0.365603728001588,1,0,,,,,,,,,,,,,,,,,,,,,1,,,,,,,,,,,,,,,,,,,,,,,,,,,,,,,,,,,,,,,,,,,,,,71,146191,21,Female,1,2024/02/20_14:39:49,YZ,None,
,,,,,,practice,0,8,1,500,6,V,0,right,0.40304822400503326,1,0,,,,,,,,,,,,,,,,,,,,,1,,,,,,,,,,,,,,,,,,,,,,,,,,,,,,,,,,,,,,,,,,,,,,71,146191,21,Female,1,2024/02/20_14:39:49,YZ,None,
,,,,,,practice,0,8,1,500,7,V,1,left,0.6277224349905737,1,0,,,,,,,,,,,,,,,,,,,,,1,,,,,,,,,,,,,,,,,,,,,,,,,,,,,,,,,,,,,,,,,,,,,,71,146191,21,Female,1,2024/02/20_14:39:49,YZ,None,
,,,,,,practice,0,8,1,500,8,Q,0,right,0.5091963329905411,1,0,,,,,,,,,,,,,,,,,,,,,1,,,,,,,,,,,,,,,,,,,,,,,,,,,,,,,,,,,,,,,,,,,,,,71,146191,21,Female,1,2024/02/20_14:39:49,YZ,None,
,,,,,,practice,0,8,1,500,9,X,0,right,0.45110482699237764,1,0,,,,,,,,,,,,,,,,,,,,,1,,,,,,,,,,,,,,,,,,,,,,,,,,,,,,,,,,,,,,,,,,,,,,71,146191,21,Female,1,2024/02/20_14:39:49,YZ,None,
,,,,,,practice,0,8,1,500,10,Q,0,right,0.6651998019951861,1,0,,,,,,,,,,,,,,,,,,,,,1,,,,,,,,,,,,,,,,,,,,,,,,,,,,,,,,,,,,,,,,,,,,,,71,146191,21,Female,1,2024/02/20_14:39:49,YZ,None,
,,,,,,practice,0,8,1,500,11,S,0,right,0.6263416659930954,1,0,,,,,,,,,,,,,,,,,,,,,1,,,,,,,,,,,,,,,,,,,,,,,,,,,,,,,,,,,,,,,,,,,,,,71,146191,21,Female,1,2024/02/20_14:39:49,YZ,None,
,,,,,,practice,0,8,1,500,12,J,0,right,0.4658964550035307,1,0,,,,,,,,,,,,,,,,,,,,,1,,,,,,,,,,,,,,,,,,,,,,,,,,,,,,,,,,,,,,,,,,,,,,71,146191,21,Female,1,2024/02/20_14:39:49,YZ,None,
,,,,,,practice,0,8,1,500,13,F,0,right,0.46706209098920226,1,0,,,,,,,,,,,,,,,,,,,,,1,,,,,,,,,,,,,,,,,,,,,,,,,,,,,,,,,,,,,,,,,,,,,,71,146191,21,Female,1,2024/02/20_14:39:49,YZ,None,
,,,,,,practice,0,8,1,500,14,F,1,left,0.5769837770058075,1,0,,,,,,,,,,,,,,,,,,,,,1,,,,,,,,,,,,,,,,,,,,,,,,,,,,,,,,,,,,,,,,,,,,,,71,146191,21,Female,1,2024/02/20_14:39:49,YZ,None,
,,,,,,practice,0,8,1,500,15,C,0,right,0.46447869201074354,1,0,,,,,,,,,,,,,,,,,,,,,1,,,,,,,,,,,,,,,,,,,,,,,,,,,,,,,,,,,,,,,,,,,,,,71,146191,21,Female,1,2024/02/20_14:39:49,YZ,None,
,,,,,,practice,0,8,1,500,16,C,1,right,0.41663828799210023,0,0,,,,,,,,,,,,,,,,,,,,,1,,,,,,,,,,,,,,,,,,,,,,,,,,,,,,,,,,,,,,,,,,,,,,71,146191,21,Female,1,2024/02/20_14:39:49,YZ,None,
,,,,,,practice,0,8,1,500,,,,,,,,0.9375,0.75,0.0,1.0,0.0,1.0,0.5277063176863521,3,0,0,0,0,12,15,4,12,0,,,,1,,,,,,,,,,,,,,,,,,,,,,,,,,,,,,,,,,,,,,,,,,,,,,71,146191,21,Female,1,2024/02/20_14:39:49,YZ,None,
1,./instructions/inst_prac_1_next/Slide35.png,right,1.5099529949948192,523.1760903709946,524.6860433659895,,,,,,,,,,,,,,,,,,,,,,,,,,,,,,,,,1,,,,,,,,,,,,,,,,,,,,,,,,,,,,,,,,,,,,,,,,,,,,,,71,146191,21,Female,1,2024/02/20_14:39:49,YZ,None,
,,,,,,practice,0,31,1,500,1,F,0,right,1.439733746010461,1,0,,,,,,,,,,,,,,,,,,,,,1,,,,,,,,,,,,,,,,,,,,,,,,,,,,,,,,,,,,,,,,,,,,,,71,146191,21,Female,1,2024/02/20_14:39:49,YZ,None,
,,,,,,practice,0,31,1,500,2,F,1,right,0.3601186939922627,0,0,,,,,,,,,,,,,,,,,,,,,1,,,,,,,,,,,,,,,,,,,,,,,,,,,,,,,,,,,,,,,,,,,,,,71,146191,21,Female,1,2024/02/20_14:39:49,YZ,None,
,,,,,,practice,0,31,1,500,3,J,0,right,0.46593248000135645,1,0,,,,,,,,,,,,,,,,,,,,,1,,,,,,,,,,,,,,,,,,,,,,,,,,,,,,,,,,,,,,,,,,,,,,71,146191,21,Female,1,2024/02/20_14:39:49,YZ,None,
,,,,,,practice,0,31,1,500,4,S,0,right,0.359968607997871,1,0,,,,,,,,,,,,,,,,,,,,,1,,,,,,,,,,,,,,,,,,,,,,,,,,,,,,,,,,,,,,,,,,,,,,71,146191,21,Female,1,2024/02/20_14:39:49,YZ,None,
,,,,,,practice,0,31,1,500,5,C,0,right,0.4395688450022135,1,0,,,,,,,,,,,,,,,,,,,,,1,,,,,,,,,,,,,,,,,,,,,,,,,,,,,,,,,,,,,,,,,,,,,,71,146191,21,Female,1,2024/02/20_14:39:49,YZ,None,
,,,,,,practice,0,31,1,500,6,F,0,right,0.3677442939952016,1,0,,,,,,,,,,,,,,,,,,,,,1,,,,,,,,,,,,,,,,,,,,,,,,,,,,,,,,,,,,,,,,,,,,,,71,146191,21,Female,1,2024/02/20_14:39:49,YZ,None,
,,,,,,practice,0,31,1,500,7,F,1,left,0.6968031699943822,1,0,,,,,,,,,,,,,,,,,,,,,1,,,,,,,,,,,,,,,,,,,,,,,,,,,,,,,,,,,,,,,,,,,,,,71,146191,21,Female,1,2024/02/20_14:39:49,YZ,None,
,,,,,,practice,0,31,1,500,8,X,0,right,0.4533513479982503,1,0,,,,,,,,,,,,,,,,,,,,,1,,,,,,,,,,,,,,,,,,,,,,,,,,,,,,,,,,,,,,,,,,,,,,71,146191,21,Female,1,2024/02/20_14:39:49,YZ,None,
,,,,,,practice,0,31,1,500,9,X,1,left,0.7621430069993949,1,0,,,,,,,,,,,,,,,,,,,,,1,,,,,,,,,,,,,,,,,,,,,,,,,,,,,,,,,,,,,,,,,,,,,,71,146191,21,Female,1,2024/02/20_14:39:49,YZ,None,
,,,,,,practice,0,31,1,500,10,Q,0,right,0.44727769699238706,1,0,,,,,,,,,,,,,,,,,,,,,1,,,,,,,,,,,,,,,,,,,,,,,,,,,,,,,,,,,,,,,,,,,,,,71,146191,21,Female,1,2024/02/20_14:39:49,YZ,None,
,,,,,,practice,0,31,1,500,11,Q,1,left,0.5724436650052667,1,0,,,,,,,,,,,,,,,,,,,,,1,,,,,,,,,,,,,,,,,,,,,,,,,,,,,,,,,,,,,,,,,,,,,,71,146191,21,Female,1,2024/02/20_14:39:49,YZ,None,
,,,,,,practice,0,31,1,500,12,C,0,right,0.6540034070058027,1,0,,,,,,,,,,,,,,,,,,,,,1,,,,,,,,,,,,,,,,,,,,,,,,,,,,,,,,,,,,,,,,,,,,,,71,146191,21,Female,1,2024/02/20_14:39:49,YZ,None,
,,,,,,practice,0,31,1,500,13,J,0,right,0.43652637700142805,1,0,,,,,,,,,,,,,,,,,,,,,1,,,,,,,,,,,,,,,,,,,,,,,,,,,,,,,,,,,,,,,,,,,,,,71,146191,21,Female,1,2024/02/20_14:39:49,YZ,None,
,,,,,,practice,0,31,1,500,14,V,0,right,0.4646961319958791,1,0,,,,,,,,,,,,,,,,,,,,,1,,,,,,,,,,,,,,,,,,,,,,,,,,,,,,,,,,,,,,,,,,,,,,71,146191,21,Female,1,2024/02/20_14:39:49,YZ,None,
,,,,,,practice,0,31,1,500,15,V,1,left,0.5692199079931015,1,0,,,,,,,,,,,,,,,,,,,,,1,,,,,,,,,,,,,,,,,,,,,,,,,,,,,,,,,,,,,,,,,,,,,,71,146191,21,Female,1,2024/02/20_14:39:49,YZ,None,
,,,,,,practice,0,31,1,500,16,Q,0,right,0.4602784090093337,1,0,,,,,,,,,,,,,,,,,,,,,1,,,,,,,,,,,,,,,,,,,,,,,,,,,,,,,,,,,,,,,,,,,,,,71,146191,21,Female,1,2024/02/20_14:39:49,YZ,None,
,,,,,,practice,0,31,1,500,,,,,,,,0.95,0.8,0.0,1.0,0.0,1.0,0.559363111687162,4,0,0,0,0,11,15,5,11,0,,,,1,,,,,,,,,,,,,,,,,,,,,,,,,,,,,,,,,,,,,,,,,,,,,,71,146191,21,Female,1,2024/02/20_14:39:49,YZ,None,
,,,,,,practice,0,3,1,500,1,Q,0,right,0.6160825490078423,1,0,,,,,,,,,,,,,,,,,,,,,1,,,,,,,,,,,,,,,,,,,,,,,,,,,,,,,,,,,,,,,,,,,,,,71,146191,21,Female,1,2024/02/20_14:39:49,YZ,None,
,,,,,,practice,0,3,1,500,2,V,0,right,0.41307787100959104,1,0,,,,,,,,,,,,,,,,,,,,,1,,,,,,,,,,,,,,,,,,,,,,,,,,,,,,,,,,,,,,,,,,,,,,71,146191,21,Female,1,2024/02/20_14:39:49,YZ,None,
,,,,,,practice,0,3,1,500,3,Q,0,right,0.6644881640095264,1,0,,,,,,,,,,,,,,,,,,,,,1,,,,,,,,,,,,,,,,,,,,,,,,,,,,,,,,,,,,,,,,,,,,,,71,146191,21,Female,1,2024/02/20_14:39:49,YZ,None,
,,,,,,practice,0,3,1,500,4,Q,1,left,0.6288012430013623,1,0,,,,,,,,,,,,,,,,,,,,,1,,,,,,,,,,,,,,,,,,,,,,,,,,,,,,,,,,,,,,,,,,,,,,71,146191,21,Female,1,2024/02/20_14:39:49,YZ,None,
,,,,,,practice,0,3,1,500,5,J,0,right,0.4147101230046246,1,0,,,,,,,,,,,,,,,,,,,,,1,,,,,,,,,,,,,,,,,,,,,,,,,,,,,,,,,,,,,,,,,,,,,,71,146191,21,Female,1,2024/02/20_14:39:49,YZ,None,
,,,,,,practice,0,3,1,500,6,F,0,right,0.4528305269923294,1,0,,,,,,,,,,,,,,,,,,,,,1,,,,,,,,,,,,,,,,,,,,,,,,,,,,,,,,,,,,,,,,,,,,,,71,146191,21,Female,1,2024/02/20_14:39:49,YZ,None,
,,,,,,practice,0,3,1,500,7,F,1,left,0.49557167300372384,1,0,,,,,,,,,,,,,,,,,,,,,1,,,,,,,,,,,,,,,,,,,,,,,,,,,,,,,,,,,,,,,,,,,,,,71,146191,21,Female,1,2024/02/20_14:39:49,YZ,None,
,,,,,,practice,0,3,1,500,8,Q,0,right,0.3196344189927913,1,0,,,,,,,,,,,,,,,,,,,,,1,,,,,,,,,,,,,,,,,,,,,,,,,,,,,,,,,,,,,,,,,,,,,,71,146191,21,Female,1,2024/02/20_14:39:49,YZ,None,
,,,,,,practice,0,3,1,500,9,S,0,right,0.36028959800023586,1,0,,,,,,,,,,,,,,,,,,,,,1,,,,,,,,,,,,,,,,,,,,,,,,,,,,,,,,,,,,,,,,,,,,,,71,146191,21,Female,1,2024/02/20_14:39:49,YZ,None,
,,,,,,practice,0,3,1,500,10,S,1,left,0.6286746569967363,1,0,,,,,,,,,,,,,,,,,,,,,1,,,,,,,,,,,,,,,,,,,,,,,,,,,,,,,,,,,,,,,,,,,,,,71,146191,21,Female,1,2024/02/20_14:39:49,YZ,None,
,,,,,,practice,0,3,1,500,11,C,0,right,0.3245040269976016,1,0,,,,,,,,,,,,,,,,,,,,,1,,,,,,,,,,,,,,,,,,,,,,,,,,,,,,,,,,,,,,,,,,,,,,71,146191,21,Female,1,2024/02/20_14:39:49,YZ,None,
,,,,,,practice,0,3,1,500,12,Q,0,right,0.4525177600007737,1,0,,,,,,,,,,,,,,,,,,,,,1,,,,,,,,,,,,,,,,,,,,,,,,,,,,,,,,,,,,,,,,,,,,,,71,146191,21,Female,1,2024/02/20_14:39:49,YZ,None,
,,,,,,practice,0,3,1,500,13,Q,1,left,0.5600198959873524,1,0,,,,,,,,,,,,,,,,,,,,,1,,,,,,,,,,,,,,,,,,,,,,,,,,,,,,,,,,,,,,,,,,,,,,71,146191,21,Female,1,2024/02/20_14:39:49,YZ,None,
,,,,,,practice,0,3,1,500,14,X,0,right,0.31669303998933174,1,0,,,,,,,,,,,,,,,,,,,,,1,,,,,,,,,,,,,,,,,,,,,,,,,,,,,,,,,,,,,,,,,,,,,,71,146191,21,Female,1,2024/02/20_14:39:49,YZ,None,
,,,,,,practice,0,3,1,500,15,Q,0,right,0.3246413499873597,1,0,,,,,,,,,,,,,,,,,,,,,1,,,,,,,,,,,,,,,,,,,,,,,,,,,,,,,,,,,,,,,,,,,,,,71,146191,21,Female,1,2024/02/20_14:39:49,YZ,None,
,,,,,,practice,0,3,1,500,16,J,0,right,0.3297982479998609,1,0,,,,,,,,,,,,,,,,,,,,,1,,,,,,,,,,,,,,,,,,,,,,,,,,,,,,,,,,,,,,,,,,,,,,71,146191,21,Female,1,2024/02/20_14:39:49,YZ,None,
,,,,,,practice,0,3,1,500,,,,,,,,1.0,1.0,0.0,1.0,0.0,1.0,0.4563959465613152,4,0,0,0,0,12,16,4,12,0,,,,1,,,,,,,,,,,,,,,,,,,,,,,,,,,,,,,,,,,,,,,,,,,,,,71,146191,21,Female,1,2024/02/20_14:39:49,YZ,None,
1,./instructions/inst_prac_3/Slide37.png,right,0.9852340849902248,561.8288635950012,562.8140976799914,,,,,,,,,,,,,,,,,,,,,,,,,,,,,,,,,1,,,,,,,,,,,,,,,,,,,,,,,,,,,,,,,,,,,,,,,,,,,,,,71,146191,21,Female,1,2024/02/20_14:39:49,YZ,None,
2,./instructions/inst_prac_3/Slide38.png,right,1.037267036997946,562.84066114499,563.877928181988,,,,,,,,,,,,,,,,,,,,,,,,,,,,,,,,,1,,,,,,,,,,,,,,,,,,,,,,,,,,,,,,,,,,,,,,,,,,,,,,71,146191,21,Female,1,2024/02/20_14:39:49,YZ,None,
3,./instructions/inst_prac_3/Slide39.png,right,0.6440177539916476,563.9058813599986,564.5498991139903,,,,,,,,,,,,,,,,,,,,,,,,,,,,,,,,,1,,,,,,,,,,,,,,,,,,,,,,,,,,,,,,,,,,,,,,,,,,,,,,71,146191,21,Female,1,2024/02/20_14:39:49,YZ,None,
4,./instructions/inst_prac_3/Slide40.png,right,0.6830758879950736,564.5790352619952,565.2621111499902,,,,,,,,,,,,,,,,,,,,,,,,,,,,,,,,,1,,,,,,,,,,,,,,,,,,,,,,,,,,,,,,,,,,,,,,,,,,,,,,71,146191,21,Female,1,2024/02/20_14:39:49,YZ,None,
5,./instructions/inst_prac_3/Slide41.png,right,1.5078212439984782,565.2901217350009,566.7979429789993,,,,,,,,,,,,,,,,,,,,,,,,,,,,,,,,,1,,,,,,,,,,,,,,,,,,,,,,,,,,,,,,,,,,,,,,,,,,,,,,71,146191,21,Female,1,2024/02/20_14:39:49,YZ,None,
6,./instructions/inst_prac_3/Slide42.png,right,1.9968872650060803,566.8251819979923,568.8220692629984,,,,,,,,,,,,,,,,,,,,,,,,,,,,,,,,,1,,,,,,,,,,,,,,,,,,,,,,,,,,,,,,,,,,,,,,,,,,,,,,71,146191,21,Female,1,2024/02/20_14:39:49,YZ,None,
7,./instructions/inst_prac_3/Slide43.png,right,0.20040378099656664,568.8509501279914,569.051353908988,,,,,,,,,,,,,,,,,,,,,,,,,,,,,,,,,1,,,,,,,,,,,,,,,,,,,,,,,,,,,,,,,,,,,,,,,,,,,,,,71,146191,21,Female,1,2024/02/20_14:39:49,YZ,None,
8,./instructions/inst_prac_3/Slide44.png,right,1.0280405750090722,569.073985718991,570.1020262940001,,,,,,,,,,,,,,,,,,,,,,,,,,,,,,,,,1,,,,,,,,,,,,,,,,,,,,,,,,,,,,,,,,,,,,,,,,,,,,,,71,146191,21,Female,1,2024/02/20_14:39:49,YZ,None,
,,,,,,practice,0,12,3,788,1,S,0,right,0.8824443810008233,1,0,,,,,,,,,,,,,,,,,,,,,1,,,,,,,,,,,,,,,,,,,,,,,,,,,,,,,,,,,,,,,,,,,,,,71,146191,21,Female,1,2024/02/20_14:39:49,YZ,None,
,,,,,,practice,0,12,3,788,2,N,0,right,0.3725877849938115,1,0,,,,,,,,,,,,,,,,,,,,,1,,,,,,,,,,,,,,,,,,,,,,,,,,,,,,,,,,,,,,,,,,,,,,71,146191,21,Female,1,2024/02/20_14:39:49,YZ,None,
,,,,,,practice,0,12,3,788,3,J,0,right,0.44065045000752434,1,0,,,,,,,,,,,,,,,,,,,,,1,,,,,,,,,,,,,,,,,,,,,,,,,,,,,,,,,,,,,,,,,,,,,,71,146191,21,Female,1,2024/02/20_14:39:49,YZ,None,
,,,,,,practice,0,12,3,788,4,N,0,right,1.273819863999961,1,0,,,,,,,,,,,,,,,,,,,,,1,,,,,,,,,,,,,,,,,,,,,,,,,,,,,,,,,,,,,,,,,,,,,,71,146191,21,Female,1,2024/02/20_14:39:49,YZ,None,
,,,,,,practice,0,12,3,788,5,N,1,left,1.0000173729931703,1,0,,,,,,,,,,,,,,,,,,,,,1,,,,,,,,,,,,,,,,,,,,,,,,,,,,,,,,,,,,,,,,,,,,,,71,146191,21,Female,1,2024/02/20_14:39:49,YZ,None,
,,,,,,practice,0,12,3,788,6,V,0,right,2.1568794149934547,1,0,,,,,,,,,,,,,,,,,,,,,1,,,,,,,,,,,,,,,,,,,,,,,,,,,,,,,,,,,,,,,,,,,,,,71,146191,21,Female,1,2024/02/20_14:39:49,YZ,None,
,,,,,,practice,0,12,3,788,7,N,1,left,0.7733221610105829,1,0,,,,,,,,,,,,,,,,,,,,,1,,,,,,,,,,,,,,,,,,,,,,,,,,,,,,,,,,,,,,,,,,,,,,71,146191,21,Female,1,2024/02/20_14:39:49,YZ,None,
,,,,,,practice,0,12,3,788,8,Q,0,right,1.5004907900001854,1,0,,,,,,,,,,,,,,,,,,,,,1,,,,,,,,,,,,,,,,,,,,,,,,,,,,,,,,,,,,,,,,,,,,,,71,146191,21,Female,1,2024/02/20_14:39:49,YZ,None,
,,,,,,practice,0,12,3,788,9,S,0,right,0.757688447003602,1,0,,,,,,,,,,,,,,,,,,,,,1,,,,,,,,,,,,,,,,,,,,,,,,,,,,,,,,,,,,,,,,,,,,,,71,146191,21,Female,1,2024/02/20_14:39:49,YZ,None,
,,,,,,practice,0,12,3,788,10,N,1,left,0.7105929590034066,1,0,,,,,,,,,,,,,,,,,,,,,1,,,,,,,,,,,,,,,,,,,,,,,,,,,,,,,,,,,,,,,,,,,,,,71,146191,21,Female,1,2024/02/20_14:39:49,YZ,None,
,,,,,,practice,0,12,3,788,11,Q,1,left,0.8125519250024809,1,0,,,,,,,,,,,,,,,,,,,,,1,,,,,,,,,,,,,,,,,,,,,,,,,,,,,,,,,,,,,,,,,,,,,,71,146191,21,Female,1,2024/02/20_14:39:49,YZ,None,
,,,,,,practice,0,12,3,788,12,C,0,right,0.7584698959981324,1,0,,,,,,,,,,,,,,,,,,,,,1,,,,,,,,,,,,,,,,,,,,,,,,,,,,,,,,,,,,,,,,,,,,,,71,146191,21,Female,1,2024/02/20_14:39:49,YZ,None,
,,,,,,practice,0,12,3,788,13,S,0,right,1.09136527699593,1,0,,,,,,,,,,,,,,,,,,,,,1,,,,,,,,,,,,,,,,,,,,,,,,,,,,,,,,,,,,,,,,,,,,,,71,146191,21,Female,1,2024/02/20_14:39:49,YZ,None,
,,,,,,practice,0,12,3,788,,,,,,,,1.0,1.0,0.0,1.0,0.0,1.0,0.9639139017694666,4,0,0,0,0,9,13,4,9,0,,,,1,,,,,,,,,,,,,,,,,,,,,,,,,,,,,,,,,,,,,,,,,,,,,,71,146191,21,Female,1,2024/02/20_14:39:49,YZ,None,
1,./instructions/inst_prac_3_next/Slide49.png,right,0.900940167994122,596.3130515719968,597.2139917399909,,,,,,,,,,,,,,,,,,,,,,,,,,,,,,,,,1,,,,,,,,,,,,,,,,,,,,,,,,,,,,,,,,,,,,,,,,,,,,,,71,146191,21,Female,1,2024/02/20_14:39:49,YZ,None,
,,,,,,practice,0,22,3,500,1,N,0,right,0.5072904069966171,1,0,,,,,,,,,,,,,,,,,,,,,1,,,,,,,,,,,,,,,,,,,,,,,,,,,,,,,,,,,,,,,,,,,,,,71,146191,21,Female,1,2024/02/20_14:39:49,YZ,None,
,,,,,,practice,0,22,3,500,2,N,0,right,0.41381476500828285,1,0,,,,,,,,,,,,,,,,,,,,,1,,,,,,,,,,,,,,,,,,,,,,,,,,,,,,,,,,,,,,,,,,,,,,71,146191,21,Female,1,2024/02/20_14:39:49,YZ,None,
,,,,,,practice,0,22,3,500,3,S,0,right,0.4846409669989953,1,0,,,,,,,,,,,,,,,,,,,,,1,,,,,,,,,,,,,,,,,,,,,,,,,,,,,,,,,,,,,,,,,,,,,,71,146191,21,Female,1,2024/02/20_14:39:49,YZ,None,
,,,,,,practice,0,22,3,500,4,N,1,left,0.4646232180093648,1,0,,,,,,,,,,,,,,,,,,,,,1,,,,,,,,,,,,,,,,,,,,,,,,,,,,,,,,,,,,,,,,,,,,,,71,146191,21,Female,1,2024/02/20_14:39:49,YZ,None,
,,,,,,practice,0,22,3,500,5,N,1,right,0.452354164008284,0,0,,,,,,,,,,,,,,,,,,,,,1,,,,,,,,,,,,,,,,,,,,,,,,,,,,,,,,,,,,,,,,,,,,,,71,146191,21,Female,1,2024/02/20_14:39:49,YZ,None,
,,,,,,practice,0,22,3,500,6,C,0,right,0.7441710989951389,1,0,,,,,,,,,,,,,,,,,,,,,1,,,,,,,,,,,,,,,,,,,,,,,,,,,,,,,,,,,,,,,,,,,,,,71,146191,21,Female,1,2024/02/20_14:39:49,YZ,None,
,,,,,,practice,0,22,3,500,7,N,1,left,0.38476810899737757,1,0,,,,,,,,,,,,,,,,,,,,,1,,,,,,,,,,,,,,,,,,,,,,,,,,,,,,,,,,,,,,,,,,,,,,71,146191,21,Female,1,2024/02/20_14:39:49,YZ,None,
,,,,,,practice,0,22,3,500,8,Q,0,right,0.8411203090072377,1,0,,,,,,,,,,,,,,,,,,,,,1,,,,,,,,,,,,,,,,,,,,,,,,,,,,,,,,,,,,,,,,,,,,,,71,146191,21,Female,1,2024/02/20_14:39:49,YZ,None,
,,,,,,practice,0,22,3,500,9,F,0,right,0.37233272100274917,1,0,,,,,,,,,,,,,,,,,,,,,1,,,,,,,,,,,,,,,,,,,,,,,,,,,,,,,,,,,,,,,,,,,,,,71,146191,21,Female,1,2024/02/20_14:39:49,YZ,None,
,,,,,,practice,0,22,3,500,10,V,0,right,0.4021330429968657,1,0,,,,,,,,,,,,,,,,,,,,,1,,,,,,,,,,,,,,,,,,,,,,,,,,,,,,,,,,,,,,,,,,,,,,71,146191,21,Female,1,2024/02/20_14:39:49,YZ,None,
,,,,,,practice,0,22,3,500,11,Q,1,left,0.6554825929924846,1,0,,,,,,,,,,,,,,,,,,,,,1,,,,,,,,,,,,,,,,,,,,,,,,,,,,,,,,,,,,,,,,,,,,,,71,146191,21,Female,1,2024/02/20_14:39:49,YZ,None,
,,,,,,practice,0,22,3,500,12,C,0,right,0.45237807600642554,1,0,,,,,,,,,,,,,,,,,,,,,1,,,,,,,,,,,,,,,,,,,,,,,,,,,,,,,,,,,,,,,,,,,,,,71,146191,21,Female,1,2024/02/20_14:39:49,YZ,None,
,,,,,,practice,0,22,3,500,13,C,0,right,0.644360829013749,1,0,,,,,,,,,,,,,,,,,,,,,1,,,,,,,,,,,,,,,,,,,,,,,,,,,,,,,,,,,,,,,,,,,,,,71,146191,21,Female,1,2024/02/20_14:39:49,YZ,None,
,,,,,,practice,0,22,3,500,14,Q,1,right,0.4610009610041743,0,0,,,,,,,,,,,,,,,,,,,,,1,,,,,,,,,,,,,,,,,,,,,,,,,,,,,,,,,,,,,,,,,,,,,,71,146191,21,Female,1,2024/02/20_14:39:49,YZ,None,
,,,,,,practice,0,22,3,500,15,F,0,left,0.9882721790054347,0,0,,,,,,,,,,,,,,,,,,,,,1,,,,,,,,,,,,,,,,,,,,,,,,,,,,,,,,,,,,,,,,,,,,,,71,146191,21,Female,1,2024/02/20_14:39:49,YZ,None,
,,,,,,practice,0,22,3,500,16,N,0,right,0.24705875299696345,1,0,,,,,,,,,,,,,,,,,,,,,1,,,,,,,,,,,,,,,,,,,,,,,,,,,,,,,,,,,,,,,,,,,,,,71,146191,21,Female,1,2024/02/20_14:39:49,YZ,None,
,,,,,,practice,0,22,3,500,,,,,,,,0.8409090909090908,0.6,0.09090909090909091,0.9090909090909091,0.0,0.9090909090909091,0.532237637065009,3,1,0,0,0,10,13,5,11,0,,,,1,,,,,,,,,,,,,,,,,,,,,,,,,,,,,,,,,,,,,,,,,,,,,,71,146191,21,Female,1,2024/02/20_14:39:49,YZ,None,
,,,,,,practice,0,2,3,500,1,F,0,right,0.8716498289868468,1,0,,,,,,,,,,,,,,,,,,,,,1,,,,,,,,,,,,,,,,,,,,,,,,,,,,,,,,,,,,,,,,,,,,,,71,146191,21,Female,1,2024/02/20_14:39:49,YZ,None,
,,,,,,practice,0,2,3,500,2,C,0,right,0.4002431789995171,1,0,,,,,,,,,,,,,,,,,,,,,1,,,,,,,,,,,,,,,,,,,,,,,,,,,,,,,,,,,,,,,,,,,,,,71,146191,21,Female,1,2024/02/20_14:39:49,YZ,None,
,,,,,,practice,0,2,3,500,3,X,0,right,0.1932252640108345,1,0,,,,,,,,,,,,,,,,,,,,,1,,,,,,,,,,,,,,,,,,,,,,,,,,,,,,,,,,,,,,,,,,,,,,71,146191,21,Female,1,2024/02/20_14:39:49,YZ,None,
,,,,,,practice,0,2,3,500,4,S,0,right,0.4396444390004035,1,0,,,,,,,,,,,,,,,,,,,,,1,,,,,,,,,,,,,,,,,,,,,,,,,,,,,,,,,,,,,,,,,,,,,,71,146191,21,Female,1,2024/02/20_14:39:49,YZ,None,
,,,,,,practice,0,2,3,500,5,C,1,right,0.5204249999951571,0,0,,,,,,,,,,,,,,,,,,,,,1,,,,,,,,,,,,,,,,,,,,,,,,,,,,,,,,,,,,,,,,,,,,,,71,146191,21,Female,1,2024/02/20_14:39:49,YZ,None,
,,,,,,practice,0,2,3,500,6,F,0,left,0.46767633499985095,0,0,,,,,,,,,,,,,,,,,,,,,1,,,,,,,,,,,,,,,,,,,,,,,,,,,,,,,,,,,,,,,,,,,,,,71,146191,21,Female,1,2024/02/20_14:39:49,YZ,None,
,,,,,,practice,0,2,3,500,7,X,0,right,0.4242820850049611,1,0,,,,,,,,,,,,,,,,,,,,,1,,,,,,,,,,,,,,,,,,,,,,,,,,,,,,,,,,,,,,,,,,,,,,71,146191,21,Female,1,2024/02/20_14:39:49,YZ,None,
,,,,,,practice,0,2,3,500,8,N,0,right,0.32775131199741736,1,0,,,,,,,,,,,,,,,,,,,,,1,,,,,,,,,,,,,,,,,,,,,,,,,,,,,,,,,,,,,,,,,,,,,,71,146191,21,Female,1,2024/02/20_14:39:49,YZ,None,
,,,,,,practice,0,2,3,500,9,F,1,left,0.6645048810023582,1,0,,,,,,,,,,,,,,,,,,,,,1,,,,,,,,,,,,,,,,,,,,,,,,,,,,,,,,,,,,,,,,,,,,,,71,146191,21,Female,1,2024/02/20_14:39:49,YZ,None,
,,,,,,practice,0,2,3,500,10,S,0,right,0.30856669299828354,1,0,,,,,,,,,,,,,,,,,,,,,1,,,,,,,,,,,,,,,,,,,,,,,,,,,,,,,,,,,,,,,,,,,,,,71,146191,21,Female,1,2024/02/20_14:39:49,YZ,None,
,,,,,,practice,0,2,3,500,11,S,0,right,0.35623164600110613,1,0,,,,,,,,,,,,,,,,,,,,,1,,,,,,,,,,,,,,,,,,,,,,,,,,,,,,,,,,,,,,,,,,,,,,71,146191,21,Female,1,2024/02/20_14:39:49,YZ,None,
,,,,,,practice,0,2,3,500,12,F,1,right,0.4420513060031226,0,0,,,,,,,,,,,,,,,,,,,,,1,,,,,,,,,,,,,,,,,,,,,,,,,,,,,,,,,,,,,,,,,,,,,,71,146191,21,Female,1,2024/02/20_14:39:49,YZ,None,
,,,,,,practice,0,2,3,500,13,X,0,right,0.6610360620106803,1,0,,,,,,,,,,,,,,,,,,,,,1,,,,,,,,,,,,,,,,,,,,,,,,,,,,,,,,,,,,,,,,,,,,,,71,146191,21,Female,1,2024/02/20_14:39:49,YZ,None,
,,,,,,practice,0,2,3,500,14,J,0,right,0.5164059659873601,1,0,,,,,,,,,,,,,,,,,,,,,1,,,,,,,,,,,,,,,,,,,,,,,,,,,,,,,,,,,,,,,,,,,,,,71,146191,21,Female,1,2024/02/20_14:39:49,YZ,None,
,,,,,,practice,0,2,3,500,15,F,1,left,0.6377123559941538,1,0,,,,,,,,,,,,,,,,,,,,,1,,,,,,,,,,,,,,,,,,,,,,,,,,,,,,,,,,,,,,,,,,,,,,71,146191,21,Female,1,2024/02/20_14:39:49,YZ,None,
,,,,,,practice,0,2,3,500,16,Q,0,right,0.33416387099714484,1,0,,,,,,,,,,,,,,,,,,,,,1,,,,,,,,,,,,,,,,,,,,,,,,,,,,,,,,,,,,,,,,,,,,,,71,146191,21,Female,1,2024/02/20_14:39:49,YZ,None,
,,,,,,practice,0,2,3,500,,,,,,,,0.8125,0.5,0.08333333333333333,0.9166666666666666,0.0,0.9166666666666666,0.4728481389993249,2,1,0,0,0,11,13,4,12,0,,,,1,,,,,,,,,,,,,,,,,,,,,,,,,,,,,,,,,,,,,,,,,,,,,,71,146191,21,Female,1,2024/02/20_14:39:49,YZ,None,
1,./instructions/inst_prac_main/Slide51.png,right,1.607579474002705,634.1744598809892,635.7820393549919,,,,,,,,,,,,,,,,,,,,,,,,,,,,,,,,,1,,,,,,,,,,,,,,,,,,,,,,,,,,,,,,,,,,,,,,,,,,,,,,71,146191,21,Female,1,2024/02/20_14:39:49,YZ,None,
2,./instructions/inst_prac_main/Slide52.png,right,9.909548156996607,635.8087420609954,645.718290217992,,,,,,,,,,,,,,,,,,,,,,,,,,,,,,,,,1,,,,,,,,,,,,,,,,,,,,,,,,,,,,,,,,,,,,,,,,,,,,,,71,146191,21,Female,1,2024/02/20_14:39:49,YZ,None,
3,./instructions/inst_prac_main/Slide53.png,right,3.210436265988392,645.7476160229999,648.9580522889883,,,,,,,,,,,,,,,,,,,,,,,,,,,,,,,,,1,,,,,,,,,,,,,,,,,,,,,,,,,,,,,,,,,,,,,,,,,,,,,,71,146191,21,Female,1,2024/02/20_14:39:49,YZ,None,
4,./instructions/inst_prac_main/Slide54.png,right,2.1970499600138282,648.9849482399877,651.1819982000015,,,,,,,,,,,,,,,,,,,,,,,,,,,,,,,,,1,,,,,,,,,,,,,,,,,,,,,,,,,,,,,,,,,,,,,,,,,,,,,,71,146191,21,Female,1,2024/02/20_14:39:49,YZ,None,
,,,,,,practice_main,0,1,3,500,1,F,0,right,0.5809988510009134,1,0,,,,,,,,,,,,,,,,,,,,,1,,,,,,,,,,,,,,,,,,,,,,,,,,,,,,,,,,,,,,,,,,,,,,71,146191,21,Female,1,2024/02/20_14:39:49,YZ,None,
,,,,,,practice_main,0,1,3,500,2,S,0,right,0.2960176490014419,1,0,,,,,,,,,,,,,,,,,,,,,1,,,,,,,,,,,,,,,,,,,,,,,,,,,,,,,,,,,,,,,,,,,,,,71,146191,21,Female,1,2024/02/20_14:39:49,YZ,None,
,,,,,,practice_main,0,1,3,500,3,C,0,right,0.35626858299656305,1,0,,,,,,,,,,,,,,,,,,,,,1,,,,,,,,,,,,,,,,,,,,,,,,,,,,,,,,,,,,,,,,,,,,,,71,146191,21,Female,1,2024/02/20_14:39:49,YZ,None,
,,,,,,practice_main,0,1,3,500,4,J,0,right,0.3800873110012617,1,0,,,,,,,,,,,,,,,,,,,,,1,,,,,,,,,,,,,,,,,,,,,,,,,,,,,,,,,,,,,,,,,,,,,,71,146191,21,Female,1,2024/02/20_14:39:49,YZ,None,
,,,,,,practice_main,0,1,3,500,5,S,1,left,0.696642946000793,1,0,,,,,,,,,,,,,,,,,,,,,1,,,,,,,,,,,,,,,,,,,,,,,,,,,,,,,,,,,,,,,,,,,,,,71,146191,21,Female,1,2024/02/20_14:39:49,YZ,None,
,,,,,,practice_main,0,1,3,500,6,F,0,right,0.8978367109957617,1,0,,,,,,,,,,,,,,,,,,,,,1,,,,,,,,,,,,,,,,,,,,,,,,,,,,,,,,,,,,,,,,,,,,,,71,146191,21,Female,1,2024/02/20_14:39:49,YZ,None,
,,,,,,practice_main,0,1,3,500,7,N,0,right,0.3612910009978805,1,0,,,,,,,,,,,,,,,,,,,,,1,,,,,,,,,,,,,,,,,,,,,,,,,,,,,,,,,,,,,,,,,,,,,,71,146191,21,Female,1,2024/02/20_14:39:49,YZ,None,
,,,,,,practice_main,0,1,3,500,8,X,0,right,0.42790551100915764,1,0,,,,,,,,,,,,,,,,,,,,,1,,,,,,,,,,,,,,,,,,,,,,,,,,,,,,,,,,,,,,,,,,,,,,71,146191,21,Female,1,2024/02/20_14:39:49,YZ,None,
,,,,,,practice_main,0,1,3,500,9,C,0,right,0.4674209889926715,1,0,,,,,,,,,,,,,,,,,,,,,1,,,,,,,,,,,,,,,,,,,,,,,,,,,,,,,,,,,,,,,,,,,,,,71,146191,21,Female,1,2024/02/20_14:39:49,YZ,None,
,,,,,,practice_main,0,1,3,500,10,V,0,right,0.4558130369987339,1,0,,,,,,,,,,,,,,,,,,,,,1,,,,,,,,,,,,,,,,,,,,,,,,,,,,,,,,,,,,,,,,,,,,,,71,146191,21,Female,1,2024/02/20_14:39:49,YZ,None,
,,,,,,practice_main,0,1,3,500,11,X,1,left,0.5926275700039696,1,0,,,,,,,,,,,,,,,,,,,,,1,,,,,,,,,,,,,,,,,,,,,,,,,,,,,,,,,,,,,,,,,,,,,,71,146191,21,Female,1,2024/02/20_14:39:49,YZ,None,
,,,,,,practice_main,0,1,3,500,12,C,1,right,0.39056353000341915,0,0,,,,,,,,,,,,,,,,,,,,,1,,,,,,,,,,,,,,,,,,,,,,,,,,,,,,,,,,,,,,,,,,,,,,71,146191,21,Female,1,2024/02/20_14:39:49,YZ,None,
,,,,,,practice_main,0,1,3,500,13,N,0,right,0.6334946209972259,1,0,,,,,,,,,,,,,,,,,,,,,1,,,,,,,,,,,,,,,,,,,,,,,,,,,,,,,,,,,,,,,,,,,,,,71,146191,21,Female,1,2024/02/20_14:39:49,YZ,None,
,,,,,,practice_main,0,1,3,500,14,J,0,right,0.5126684230053797,1,0,,,,,,,,,,,,,,,,,,,,,1,,,,,,,,,,,,,,,,,,,,,,,,,,,,,,,,,,,,,,,,,,,,,,71,146191,21,Female,1,2024/02/20_14:39:49,YZ,None,
,,,,,,practice_main,0,1,3,500,15,C,1,right,0.7415835139981937,0,0,,,,,,,,,,,,,,,,,,,,,1,,,,,,,,,,,,,,,,,,,,,,,,,,,,,,,,,,,,,,,,,,,,,,71,146191,21,Female,1,2024/02/20_14:39:49,YZ,None,
,,,,,,practice_main,0,1,3,500,16,X,0,left,0.5882092529936926,0,0,,,,,,,,,,,,,,,,,,,,,1,,,,,,,,,,,,,,,,,,,,,,,,,,,,,,,,,,,,,,,,,,,,,,71,146191,21,Female,1,2024/02/20_14:39:49,YZ,None,
,,,,,,practice_main,0,1,3,500,,,,,,,,0.8125,0.5,0.08333333333333333,0.9166666666666666,0.0,0.9166666666666666,0.5237143437498162,2,1,0,0,0,11,13,4,12,0,,,,1,,,,,,,,,,,,,,,,,,,,,,,,,,,,,,,,,,,,,,,,,,,,,,71,146191,21,Female,1,2024/02/20_14:39:49,YZ,None,
,,,,,240220_145312,PRACTICE,0,1,3,500,,,,,,,,,,,,,,,,,,,,,,,,,,,,1,40,1,1,cue2.png,hard,A,72,1.3388738810026553,0,654.2419500749966,655.608595963,,,,,,,,,,,,,,,,,,,,,,,,,,,,,,,,,,,71,146191,21,Female,1,2024/02/20_14:39:49,YZ,None,
,,,,,,practice_main,0,2,3,500,1,F,0,right,0.9425596359942574,1,0,,,,,,,,,,,,,,,,,,,,,1,,,,,,,,,,,,,,,,,,,,,,,,,,,,,,,,,,,,,,,,,,,,,,71,146191,21,Female,1,2024/02/20_14:39:49,YZ,None,
,,,,,,practice_main,0,2,3,500,2,C,0,right,0.4153964389988687,1,0,,,,,,,,,,,,,,,,,,,,,1,,,,,,,,,,,,,,,,,,,,,,,,,,,,,,,,,,,,,,,,,,,,,,71,146191,21,Female,1,2024/02/20_14:39:49,YZ,None,
,,,,,,practice_main,0,2,3,500,3,X,0,right,0.43157101499673445,1,0,,,,,,,,,,,,,,,,,,,,,1,,,,,,,,,,,,,,,,,,,,,,,,,,,,,,,,,,,,,,,,,,,,,,71,146191,21,Female,1,2024/02/20_14:39:49,YZ,None,
,,,,,,practice_main,0,2,3,500,4,S,0,right,0.36411485901044216,1,0,,,,,,,,,,,,,,,,,,,,,1,,,,,,,,,,,,,,,,,,,,,,,,,,,,,,,,,,,,,,,,,,,,,,71,146191,21,Female,1,2024/02/20_14:39:49,YZ,None,
,,,,,,practice_main,0,2,3,500,5,C,1,right,0.3364755380025599,0,0,,,,,,,,,,,,,,,,,,,,,1,,,,,,,,,,,,,,,,,,,,,,,,,,,,,,,,,,,,,,,,,,,,,,71,146191,21,Female,1,2024/02/20_14:39:49,YZ,None,
,,,,,,practice_main,0,2,3,500,6,F,0,left,0.6504222820076393,0,0,,,,,,,,,,,,,,,,,,,,,1,,,,,,,,,,,,,,,,,,,,,,,,,,,,,,,,,,,,,,,,,,,,,,71,146191,21,Female,1,2024/02/20_14:39:49,YZ,None,
,,,,,,practice_main,0,2,3,500,7,X,0,right,0.3073550209956011,1,0,,,,,,,,,,,,,,,,,,,,,1,,,,,,,,,,,,,,,,,,,,,,,,,,,,,,,,,,,,,,,,,,,,,,71,146191,21,Female,1,2024/02/20_14:39:49,YZ,None,
,,,,,,practice_main,0,2,3,500,8,N,0,right,0.3482118289975915,1,0,,,,,,,,,,,,,,,,,,,,,1,,,,,,,,,,,,,,,,,,,,,,,,,,,,,,,,,,,,,,,,,,,,,,71,146191,21,Female,1,2024/02/20_14:39:49,YZ,None,
,,,,,,practice_main,0,2,3,500,9,F,1,left,0.4567809970030794,1,0,,,,,,,,,,,,,,,,,,,,,1,,,,,,,,,,,,,,,,,,,,,,,,,,,,,,,,,,,,,,,,,,,,,,71,146191,21,Female,1,2024/02/20_14:39:49,YZ,None,
,,,,,,practice_main,0,2,3,500,10,S,0,right,0.37526572099886835,1,0,,,,,,,,,,,,,,,,,,,,,1,,,,,,,,,,,,,,,,,,,,,,,,,,,,,,,,,,,,,,,,,,,,,,71,146191,21,Female,1,2024/02/20_14:39:49,YZ,None,
,,,,,,practice_main,0,2,3,500,11,S,0,left,0.37625718300114386,0,0,,,,,,,,,,,,,,,,,,,,,1,,,,,,,,,,,,,,,,,,,,,,,,,,,,,,,,,,,,,,,,,,,,,,71,146191,21,Female,1,2024/02/20_14:39:49,YZ,None,
,,,,,,practice_main,0,2,3,500,12,F,1,right,0.9581775459955679,0,0,,,,,,,,,,,,,,,,,,,,,1,,,,,,,,,,,,,,,,,,,,,,,,,,,,,,,,,,,,,,,,,,,,,,71,146191,21,Female,1,2024/02/20_14:39:49,YZ,None,
,,,,,,practice_main,0,2,3,500,13,X,0,left,0.5887823770026444,0,0,,,,,,,,,,,,,,,,,,,,,1,,,,,,,,,,,,,,,,,,,,,,,,,,,,,,,,,,,,,,,,,,,,,,71,146191,21,Female,1,2024/02/20_14:39:49,YZ,None,
,,,,,,practice_main,0,2,3,500,14,J,0,right,0.35690047599200625,1,0,,,,,,,,,,,,,,,,,,,,,1,,,,,,,,,,,,,,,,,,,,,,,,,,,,,,,,,,,,,,,,,,,,,,71,146191,21,Female,1,2024/02/20_14:39:49,YZ,None,
,,,,,,practice_main,0,2,3,500,15,F,1,right,0.5245353719947161,0,0,,,,,,,,,,,,,,,,,,,,,1,,,,,,,,,,,,,,,,,,,,,,,,,,,,,,,,,,,,,,,,,,,,,,71,146191,21,Female,1,2024/02/20_14:39:49,YZ,None,
,,,,,,practice_main,0,2,3,500,16,Q,0,right,0.440264577002381,1,0,,,,,,,,,,,,,,,,,,,,,1,,,,,,,,,,,,,,,,,,,,,,,,,,,,,,,,,,,,,,,,,,,,,,71,146191,21,Female,1,2024/02/20_14:39:49,YZ,None,
,,,,,,practice_main,0,2,3,500,,,,,,,,0.5,0.25,0.25,0.75,0.0,0.75,0.49206692924963136,1,3,0,0,0,9,10,4,12,0,,,,1,,,,,,,,,,,,,,,,,,,,,,,,,,,,,,,,,,,,,,,,,,,,,,71,146191,21,Female,1,2024/02/20_14:39:49,YZ,None,
,,,,,240220_145339,PRACTICE,0,2,3,500,,,,,,,,,,,,,,,,,,,,,,,,,,,,1,49,2,2,cue2.png,hard,A,69,1.247930219004047,0,681.5462692389992,682.8108043659886,,,,,,,,,,,,,,,,,,,,,,,,,,,,,,,,,,,71,146191,21,Female,1,2024/02/20_14:39:49,YZ,None,
,,,,,,practice_main,0,3,3,500,1,S,0,right,0.5530183669907274,1,0,,,,,,,,,,,,,,,,,,,,,1,,,,,,,,,,,,,,,,,,,,,,,,,,,,,,,,,,,,,,,,,,,,,,71,146191,21,Female,1,2024/02/20_14:39:49,YZ,None,
,,,,,,practice_main,0,3,3,500,2,J,0,right,0.36507907600025646,1,0,,,,,,,,,,,,,,,,,,,,,1,,,,,,,,,,,,,,,,,,,,,,,,,,,,,,,,,,,,,,,,,,,,,,71,146191,21,Female,1,2024/02/20_14:39:49,YZ,None,
,,,,,,practice_main,0,3,3,500,3,J,0,right,0.594571025998448,1,0,,,,,,,,,,,,,,,,,,,,,1,,,,,,,,,,,,,,,,,,,,,,,,,,,,,,,,,,,,,,,,,,,,,,71,146191,21,Female,1,2024/02/20_14:39:49,YZ,None,
,,,,,,practice_main,0,3,3,500,4,X,0,right,0.49459109600866213,1,0,,,,,,,,,,,,,,,,,,,,,1,,,,,,,,,,,,,,,,,,,,,,,,,,,,,,,,,,,,,,,,,,,,,,71,146191,21,Female,1,2024/02/20_14:39:49,YZ,None,
,,,,,,practice_main,0,3,3,500,5,N,0,right,0.4685418549925089,1,0,,,,,,,,,,,,,,,,,,,,,1,,,,,,,,,,,,,,,,,,,,,,,,,,,,,,,,,,,,,,,,,,,,,,71,146191,21,Female,1,2024/02/20_14:39:49,YZ,None,
,,,,,,practice_main,0,3,3,500,6,J,1,left,0.6932198830036214,1,0,,,,,,,,,,,,,,,,,,,,,1,,,,,,,,,,,,,,,,,,,,,,,,,,,,,,,,,,,,,,,,,,,,,,71,146191,21,Female,1,2024/02/20_14:39:49,YZ,None,
,,,,,,practice_main,0,3,3,500,7,Q,0,right,0.369408583996119,1,0,,,,,,,,,,,,,,,,,,,,,1,,,,,,,,,,,,,,,,,,,,,,,,,,,,,,,,,,,,,,,,,,,,,,71,146191,21,Female,1,2024/02/20_14:39:49,YZ,None,
,,,,,,practice_main,0,3,3,500,8,N,1,left,0.6489711030008039,1,0,,,,,,,,,,,,,,,,,,,,,1,,,,,,,,,,,,,,,,,,,,,,,,,,,,,,,,,,,,,,,,,,,,,,71,146191,21,Female,1,2024/02/20_14:39:49,YZ,None,
,,,,,,practice_main,0,3,3,500,9,V,0,right,0.35935913400317077,1,0,,,,,,,,,,,,,,,,,,,,,1,,,,,,,,,,,,,,,,,,,,,,,,,,,,,,,,,,,,,,,,,,,,,,71,146191,21,Female,1,2024/02/20_14:39:49,YZ,None,
,,,,,,practice_main,0,3,3,500,10,V,0,right,0.5927664690098027,1,0,,,,,,,,,,,,,,,,,,,,,1,,,,,,,,,,,,,,,,,,,,,,,,,,,,,,,,,,,,,,,,,,,,,,71,146191,21,Female,1,2024/02/20_14:39:49,YZ,None,
,,,,,,practice_main,0,3,3,500,11,N,1,left,0.5729713649925543,1,0,,,,,,,,,,,,,,,,,,,,,1,,,,,,,,,,,,,,,,,,,,,,,,,,,,,,,,,,,,,,,,,,,,,,71,146191,21,Female,1,2024/02/20_14:39:49,YZ,None,
,,,,,,practice_main,0,3,3,500,12,C,0,right,0.4302880390023347,1,0,,,,,,,,,,,,,,,,,,,,,1,,,,,,,,,,,,,,,,,,,,,,,,,,,,,,,,,,,,,,,,,,,,,,71,146191,21,Female,1,2024/02/20_14:39:49,YZ,None,
,,,,,,practice_main,0,3,3,500,13,V,1,right,0.5549664599966491,0,0,,,,,,,,,,,,,,,,,,,,,1,,,,,,,,,,,,,,,,,,,,,,,,,,,,,,,,,,,,,,,,,,,,,,71,146191,21,Female,1,2024/02/20_14:39:49,YZ,None,
,,,,,,practice_main,0,3,3,500,14,N,1,left,0.6423625699972035,1,0,,,,,,,,,,,,,,,,,,,,,1,,,,,,,,,,,,,,,,,,,,,,,,,,,,,,,,,,,,,,,,,,,,,,71,146191,21,Female,1,2024/02/20_14:39:49,YZ,None,
,,,,,,practice_main,0,3,3,500,15,Q,0,right,0.39182458400318865,1,0,,,,,,,,,,,,,,,,,,,,,1,,,,,,,,,,,,,,,,,,,,,,,,,,,,,,,,,,,,,,,,,,,,,,71,146191,21,Female,1,2024/02/20_14:39:49,YZ,None,
,,,,,,practice_main,0,3,3,500,16,Q,0,right,0.5756320910004433,1,0,,,,,,,,,,,,,,,,,,,,,1,,,,,,,,,,,,,,,,,,,,,,,,,,,,,,,,,,,,,,,,,,,,,,71,146191,21,Female,1,2024/02/20_14:39:49,YZ,None,
,,,,,,practice_main,0,3,3,500,,,,,,,,0.95,0.8,0.0,1.0,0.0,1.0,0.5192232313747809,4,0,0,0,0,11,15,5,11,0,,,,1,,,,,,,,,,,,,,,,,,,,,,,,,,,,,,,,,,,,,,,,,,,,,,71,146191,21,Female,1,2024/02/20_14:39:49,YZ,None,
,,,,,240220_145406,PRACTICE,0,3,3,500,,,,,,,,,,,,,,,,,,,,,,,,,,,,1,33,3,3,cue2.png,hard,A,72,1.4452840209996793,0,708.1984931949992,709.6556036809925,,,,,,,,,,,,,,,,,,,,,,,,,,,,,,,,,,,71,146191,21,Female,1,2024/02/20_14:39:49,YZ,None,
1,./instructions/inst_prac_end/Slide56.png,right,15.280525374997524,734.0296884709969,749.3102138459944,,,,,,,,,,,,,,,,,,,,,,,,,,,,,,,,,1,,,,,,,,,,,,,,,,,,,,,,,,,,,,,,,,,,,,,,,,,,,,,,71,146191,21,Female,1,2024/02/20_14:39:49,YZ,None,
1,./instructions/inst_test/Slide57.png,right,23.840323632000946,749.3415911579941,773.1819147899951,,,,,,,,,,,,,,,,,,,,,,,,,,,,,,,,,1,,,,,,,,,,,,,,,,,,,,,,,,,,,,,,,,,,,,,,,,,,,,,,71,146191,21,Female,1,2024/02/20_14:39:49,YZ,None,
,,,,,,test,1,1,1,500,1,J,0,right,0.6581171790021472,1,0,,,,,,,,,,,,,,,,,,,,,1,,,,,,,,,,,,,,,,,,,,,,,,,,,,,,,,,,,,,,,,,,,,,,71,146191,21,Female,1,2024/02/20_14:39:49,YZ,None,
,,,,,,test,1,1,1,500,2,C,0,right,0.3345057789993007,1,0,,,,,,,,,,,,,,,,,,,,,1,,,,,,,,,,,,,,,,,,,,,,,,,,,,,,,,,,,,,,,,,,,,,,71,146191,21,Female,1,2024/02/20_14:39:49,YZ,None,
,,,,,,test,1,1,1,500,3,V,0,right,0.45690828500664793,1,0,,,,,,,,,,,,,,,,,,,,,1,,,,,,,,,,,,,,,,,,,,,,,,,,,,,,,,,,,,,,,,,,,,,,71,146191,21,Female,1,2024/02/20_14:39:49,YZ,None,
,,,,,,test,1,1,1,500,4,Q,0,right,0.344282474994543,1,0,,,,,,,,,,,,,,,,,,,,,1,,,,,,,,,,,,,,,,,,,,,,,,,,,,,,,,,,,,,,,,,,,,,,71,146191,21,Female,1,2024/02/20_14:39:49,YZ,None,
,,,,,,test,1,1,1,500,5,Q,1,left,0.4125551230099518,1,0,,,,,,,,,,,,,,,,,,,,,1,,,,,,,,,,,,,,,,,,,,,,,,,,,,,,,,,,,,,,,,,,,,,,71,146191,21,Female,1,2024/02/20_14:39:49,YZ,None,
,,,,,,test,1,1,1,500,6,F,0,right,0.2983953809889499,1,0,,,,,,,,,,,,,,,,,,,,,1,,,,,,,,,,,,,,,,,,,,,,,,,,,,,,,,,,,,,,,,,,,,,,71,146191,21,Female,1,2024/02/20_14:39:49,YZ,None,
,,,,,,test,1,1,1,500,7,F,1,right,0.32731818899628706,0,0,,,,,,,,,,,,,,,,,,,,,1,,,,,,,,,,,,,,,,,,,,,,,,,,,,,,,,,,,,,,,,,,,,,,71,146191,21,Female,1,2024/02/20_14:39:49,YZ,None,
,,,,,,test,1,1,1,500,8,Q,0,right,0.5566081970027881,1,0,,,,,,,,,,,,,,,,,,,,,1,,,,,,,,,,,,,,,,,,,,,,,,,,,,,,,,,,,,,,,,,,,,,,71,146191,21,Female,1,2024/02/20_14:39:49,YZ,None,
,,,,,,test,1,1,1,500,9,Q,1,left,0.4773942750034621,1,0,,,,,,,,,,,,,,,,,,,,,1,,,,,,,,,,,,,,,,,,,,,,,,,,,,,,,,,,,,,,,,,,,,,,71,146191,21,Female,1,2024/02/20_14:39:49,YZ,None,
,,,,,,test,1,1,1,500,10,X,0,right,0.3472743559977971,1,0,,,,,,,,,,,,,,,,,,,,,1,,,,,,,,,,,,,,,,,,,,,,,,,,,,,,,,,,,,,,,,,,,,,,71,146191,21,Female,1,2024/02/20_14:39:49,YZ,None,
,,,,,,test,1,1,1,500,11,F,0,right,0.35187633699388243,1,0,,,,,,,,,,,,,,,,,,,,,1,,,,,,,,,,,,,,,,,,,,,,,,,,,,,,,,,,,,,,,,,,,,,,71,146191,21,Female,1,2024/02/20_14:39:49,YZ,None,
,,,,,,test,1,1,1,500,12,Q,0,right,0.397050585001125,1,0,,,,,,,,,,,,,,,,,,,,,1,,,,,,,,,,,,,,,,,,,,,,,,,,,,,,,,,,,,,,,,,,,,,,71,146191,21,Female,1,2024/02/20_14:39:49,YZ,None,
,,,,,,test,1,1,1,500,13,Q,1,left,0.5840904650103766,1,0,,,,,,,,,,,,,,,,,,,,,1,,,,,,,,,,,,,,,,,,,,,,,,,,,,,,,,,,,,,,,,,,,,,,71,146191,21,Female,1,2024/02/20_14:39:49,YZ,None,
,,,,,,test,1,1,1,500,14,J,0,right,0.32071083498885855,1,0,,,,,,,,,,,,,,,,,,,,,1,,,,,,,,,,,,,,,,,,,,,,,,,,,,,,,,,,,,,,,,,,,,,,71,146191,21,Female,1,2024/02/20_14:39:49,YZ,None,
,,,,,,test,1,1,1,500,15,X,0,right,0.31334982499538455,1,0,,,,,,,,,,,,,,,,,,,,,1,,,,,,,,,,,,,,,,,,,,,,,,,,,,,,,,,,,,,,,,,,,,,,71,146191,21,Female,1,2024/02/20_14:39:49,YZ,None,
,,,,,,test,1,1,1,500,16,F,0,right,0.4669863199960673,1,0,,,,,,,,,,,,,,,,,,,,,1,,,,,,,,,,,,,,,,,,,,,,,,,,,,,,,,,,,,,,,,,,,,,,71,146191,21,Female,1,2024/02/20_14:39:49,YZ,None,
,,,,,,Test,1,1,1,500,,,,,,,,0.9375,0.75,0.0,1.0,0.0,1.0,0.4154639753742231,3,0,0,0,0,12,15,4,12,0,,,,1,,,,,,,,,,,,,,,,,,,,,,,,,,,,,,,,,,,,,,,,,,,,,,71,146191,21,Female,1,2024/02/20_14:39:49,YZ,None,
,,,,,240220_145514,TEST,1,1,1,500,,,,,,,,,,,,,,,,,,,,,,,,,,,,1,1,1,1,cue1.png,easy,A,71,1.003608909988543,0,778.2392078709963,779.2640631760005,,,,,,,,,,,,,,,,,,,,,,,,,,,,,,,,,,,71,146191,21,Female,1,2024/02/20_14:39:49,YZ,None,
,,,,,,test,1,2,3,500,1,Q,0,right,0.7673514699999942,1,0,,,,,,,,,,,,,,,,,,,,,1,,,,,,,,,,,,,,,,,,,,,,,,,,,,,,,,,,,,,,,,,,,,,,71,146191,21,Female,1,2024/02/20_14:39:49,YZ,None,
,,,,,,test,1,2,3,500,2,Q,0,right,0.42419751499255653,1,0,,,,,,,,,,,,,,,,,,,,,1,,,,,,,,,,,,,,,,,,,,,,,,,,,,,,,,,,,,,,,,,,,,,,71,146191,21,Female,1,2024/02/20_14:39:49,YZ,None,
,,,,,,test,1,2,3,500,3,J,0,right,0.42115860400372185,1,0,,,,,,,,,,,,,,,,,,,,,1,,,,,,,,,,,,,,,,,,,,,,,,,,,,,,,,,,,,,,,,,,,,,,71,146191,21,Female,1,2024/02/20_14:39:49,YZ,None,
,,,,,,test,1,2,3,500,4,Q,1,left,0.39178118300333153,1,0,,,,,,,,,,,,,,,,,,,,,1,,,,,,,,,,,,,,,,,,,,,,,,,,,,,,,,,,,,,,,,,,,,,,71,146191,21,Female,1,2024/02/20_14:39:49,YZ,None,
,,,,,,test,1,2,3,500,5,S,0,right,0.3281521699973382,1,0,,,,,,,,,,,,,,,,,,,,,1,,,,,,,,,,,,,,,,,,,,,,,,,,,,,,,,,,,,,,,,,,,,,,71,146191,21,Female,1,2024/02/20_14:39:49,YZ,None,
,,,,,,test,1,2,3,500,6,V,0,right,0.29315601898997556,1,0,,,,,,,,,,,,,,,,,,,,,1,,,,,,,,,,,,,,,,,,,,,,,,,,,,,,,,,,,,,,,,,,,,,,71,146191,21,Female,1,2024/02/20_14:39:49,YZ,None,
,,,,,,test,1,2,3,500,7,Q,1,left,0.5303234029997839,1,0,,,,,,,,,,,,,,,,,,,,,1,,,,,,,,,,,,,,,,,,,,,,,,,,,,,,,,,,,,,,,,,,,,,,71,146191,21,Female,1,2024/02/20_14:39:49,YZ,None,
,,,,,,test,1,2,3,500,8,C,0,right,0.2644597719918238,1,0,,,,,,,,,,,,,,,,,,,,,1,,,,,,,,,,,,,,,,,,,,,,,,,,,,,,,,,,,,,,,,,,,,,,71,146191,21,Female,1,2024/02/20_14:39:49,YZ,None,
,,,,,,test,1,2,3,500,9,J,0,right,0.3054908579943003,1,0,,,,,,,,,,,,,,,,,,,,,1,,,,,,,,,,,,,,,,,,,,,,,,,,,,,,,,,,,,,,,,,,,,,,71,146191,21,Female,1,2024/02/20_14:39:49,YZ,None,
,,,,,,test,1,2,3,500,10,S,0,left,0.5732461760053411,0,0,,,,,,,,,,,,,,,,,,,,,1,,,,,,,,,,,,,,,,,,,,,,,,,,,,,,,,,,,,,,,,,,,,,,71,146191,21,Female,1,2024/02/20_14:39:49,YZ,None,
,,,,,,test,1,2,3,500,11,C,1,right,0.34930894200806506,0,0,,,,,,,,,,,,,,,,,,,,,1,,,,,,,,,,,,,,,,,,,,,,,,,,,,,,,,,,,,,,,,,,,,,,71,146191,21,Female,1,2024/02/20_14:39:49,YZ,None,
,,,,,,test,1,2,3,500,12,J,1,right,0.5117784819885856,0,0,,,,,,,,,,,,,,,,,,,,,1,,,,,,,,,,,,,,,,,,,,,,,,,,,,,,,,,,,,,,,,,,,,,,71,146191,21,Female,1,2024/02/20_14:39:49,YZ,None,
,,,,,,test,1,2,3,500,13,V,0,left,0.6089215410029283,0,0,,,,,,,,,,,,,,,,,,,,,1,,,,,,,,,,,,,,,,,,,,,,,,,,,,,,,,,,,,,,,,,,,,,,71,146191,21,Female,1,2024/02/20_14:39:49,YZ,None,
,,,,,,test,1,2,3,500,14,Q,0,right,0.6289525759930257,1,0,,,,,,,,,,,,,,,,,,,,,1,,,,,,,,,,,,,,,,,,,,,,,,,,,,,,,,,,,,,,,,,,,,,,71,146191,21,Female,1,2024/02/20_14:39:49,YZ,None,
,,,,,,test,1,2,3,500,15,S,0,right,0.3261815790028777,1,0,,,,,,,,,,,,,,,,,,,,,1,,,,,,,,,,,,,,,,,,,,,,,,,,,,,,,,,,,,,,,,,,,,,,71,146191,21,Female,1,2024/02/20_14:39:49,YZ,None,
,,,,,,test,1,2,3,500,16,V,1,left,0.4202601420111023,1,0,,,,,,,,,,,,,,,,,,,,,1,,,,,,,,,,,,,,,,,,,,,,,,,,,,,,,,,,,,,,,,,,,,,,71,146191,21,Female,1,2024/02/20_14:39:49,YZ,None,
,,,,,,Test,1,2,3,500,,,,,,,,0.7818181818181817,0.6,0.18181818181818182,0.8181818181818182,0.0,0.8181818181818181,0.44654502699904697,3,2,0,0,0,9,12,5,11,0,,,,1,,,,,,,,,,,,,,,,,,,,,,,,,,,,,,,,,,,,,,,,,,,,,,71,146191,21,Female,1,2024/02/20_14:39:49,YZ,None,
,,,,,240220_145540,TEST,1,2,3,500,,,,,,,,,,,,,,,,,,,,,,,,,,,,1,2,2,2,cue2.png,hard,A,58,1.3125801440037321,0,803.4176474689884,804.7412634899956,,,,,,,,,,,,,,,,,,,,,,,,,,,,,,,,,,,71,146191,21,Female,1,2024/02/20_14:39:49,YZ,None,
,,,,,,test,1,3,1,500,1,C,0,right,0.6749552039982518,1,0,,,,,,,,,,,,,,,,,,,,,1,,,,,,,,,,,,,,,,,,,,,,,,,,,,,,,,,,,,,,,,,,,,,,71,146191,21,Female,1,2024/02/20_14:39:49,YZ,None,
,,,,,,test,1,3,1,500,2,C,1,right,0.3959103050001431,0,0,,,,,,,,,,,,,,,,,,,,,1,,,,,,,,,,,,,,,,,,,,,,,,,,,,,,,,,,,,,,,,,,,,,,71,146191,21,Female,1,2024/02/20_14:39:49,YZ,None,
,,,,,,test,1,3,1,500,3,J,0,left,0.6651691409933846,0,0,,,,,,,,,,,,,,,,,,,,,1,,,,,,,,,,,,,,,,,,,,,,,,,,,,,,,,,,,,,,,,,,,,,,71,146191,21,Female,1,2024/02/20_14:39:49,YZ,None,
,,,,,,test,1,3,1,500,4,J,1,right,0.7070933490031166,0,0,,,,,,,,,,,,,,,,,,,,,1,,,,,,,,,,,,,,,,,,,,,,,,,,,,,,,,,,,,,,,,,,,,,,71,146191,21,Female,1,2024/02/20_14:39:49,YZ,None,
,,,,,,test,1,3,1,500,5,F,0,right,0.5512351150100585,1,0,,,,,,,,,,,,,,,,,,,,,1,,,,,,,,,,,,,,,,,,,,,,,,,,,,,,,,,,,,,,,,,,,,,,71,146191,21,Female,1,2024/02/20_14:39:49,YZ,None,
,,,,,,test,1,3,1,500,6,F,1,left,0.5551153319975128,1,0,,,,,,,,,,,,,,,,,,,,,1,,,,,,,,,,,,,,,,,,,,,,,,,,,,,,,,,,,,,,,,,,,,,,71,146191,21,Female,1,2024/02/20_14:39:49,YZ,None,
,,,,,,test,1,3,1,500,7,N,0,right,0.4580522460018983,1,0,,,,,,,,,,,,,,,,,,,,,1,,,,,,,,,,,,,,,,,,,,,,,,,,,,,,,,,,,,,,,,,,,,,,71,146191,21,Female,1,2024/02/20_14:39:49,YZ,None,
,,,,,,test,1,3,1,500,8,Q,0,right,0.44494642899371684,1,0,,,,,,,,,,,,,,,,,,,,,1,,,,,,,,,,,,,,,,,,,,,,,,,,,,,,,,,,,,,,,,,,,,,,71,146191,21,Female,1,2024/02/20_14:39:49,YZ,None,
,,,,,,test,1,3,1,500,9,J,0,right,0.562482599998475,1,0,,,,,,,,,,,,,,,,,,,,,1,,,,,,,,,,,,,,,,,,,,,,,,,,,,,,,,,,,,,,,,,,,,,,71,146191,21,Female,1,2024/02/20_14:39:49,YZ,None,
,,,,,,test,1,3,1,500,10,C,0,right,0.3621563400083687,1,0,,,,,,,,,,,,,,,,,,,,,1,,,,,,,,,,,,,,,,,,,,,,,,,,,,,,,,,,,,,,,,,,,,,,71,146191,21,Female,1,2024/02/20_14:39:49,YZ,None,
