Instruction,Stimulus,Key,RT,START,END,Phase,Block,TrialN,NbackLevel,ISI,LetterN,Letter,Letter_isSame,Letter_Resp,Letter_RT,Letter_Accuracy,Letter_Timeout,Trial_A_measure,Trial_HR,Trial_FAR,Trial_CDR,Trial_MSR,Trial_ACC,Trial_RT,Trial_HitsCount,Trial_FAsCount,Trial_SameNoRespCount,Trial_DiffNoRespCount,Trial_NoRespCount,Trial_CDsCount,Trial_CorrectRespCount,Trial_SameLetterCount,Trial_DiffLetterCount,Trial_InvalidLetterCount,TrialCountCali,CaliEnd_A_measure,ISI_calibrated,Run,TrialIndex,TrialNumber_total,TrialNumber_valid,CueLearning,TrialDemandLearning,CueMapping,OnlineRating,OnlineRatingRT,OnlineRatingTimeOut,CueSTART,RatingSTART,OfflineRatingTimePoint,OfflineRatingQuesIndex,CueFigure,TrialDemand,OfflineRating,OfflineRatingRT,CueStart,OfflineRatingStart,PhaseType,CueLeft,CueDemandLeft,CueRight,CueDemandRight,Choice,ChoiceDemand,TaskDemand,ChoiceRT,ChoiceTimeOut,ChoiceSTART,CueCheck,CueDemandCheck,CorrectAnswer,Answer,AnswerDemand,AnswerRT,AnswerACC,AnswerTimeOut,CheckSTART,DemandRatingQuesIndex,QuesTLX,DemandLevel,DemandRating,DemandRatingRT,QuesStart,PID,SONA,Age,Gender,Run,TIME,EXPERIMENTER,frameRate,
1,./instructions/inst_begin/Slide2.png,right,38.390333085997554,0.2496067590036546,38.63993984500121,,,,,,,,,,,,,,,,,,,,,,,,,,,,,,,,,1,,,,,,,,,,,,,,,,,,,,,,,,,,,,,,,,,,,,,,,,,,,,,,101,159088,18,Female,1,2024/03/19_08:51:30,YZ,None,
2,./instructions/inst_begin/Slide3.png,right,12.923267204001604,38.70070651500282,51.623973719004425,,,,,,,,,,,,,,,,,,,,,,,,,,,,,,,,,1,,,,,,,,,,,,,,,,,,,,,,,,,,,,,,,,,,,,,,,,,,,,,,101,159088,18,Female,1,2024/03/19_08:51:30,YZ,None,
3,./instructions/inst_begin/Slide4.png,right,10.265812876998098,51.662228214001516,61.92804109099961,,,,,,,,,,,,,,,,,,,,,,,,,,,,,,,,,1,,,,,,,,,,,,,,,,,,,,,,,,,,,,,,,,,,,,,,,,,,,,,,101,159088,18,Female,1,2024/03/19_08:51:30,YZ,None,
1,./instructions/inst_prac_2/Slide6.png,right,14.70380799099803,61.960303746003774,76.6641117370018,,,,,,,,,,,,,,,,,,,,,,,,,,,,,,,,,1,,,,,,,,,,,,,,,,,,,,,,,,,,,,,,,,,,,,,,,,,,,,,,101,159088,18,Female,1,2024/03/19_08:51:30,YZ,None,
2,./instructions/inst_prac_2/Slide7.png,right,16.06570675500552,76.69422998899972,92.75993674400524,,,,,,,,,,,,,,,,,,,,,,,,,,,,,,,,,1,,,,,,,,,,,,,,,,,,,,,,,,,,,,,,,,,,,,,,,,,,,,,,101,159088,18,Female,1,2024/03/19_08:51:30,YZ,None,
3,./instructions/inst_prac_2/Slide8.png,right,13.738428085001942,92.78969085599965,106.5281189410016,,,,,,,,,,,,,,,,,,,,,,,,,,,,,,,,,1,,,,,,,,,,,,,,,,,,,,,,,,,,,,,,,,,,,,,,,,,,,,,,101,159088,18,Female,1,2024/03/19_08:51:30,YZ,None,
4,./instructions/inst_prac_2/Slide9.png,right,3.809875457001908,106.55819783500192,110.36807329200383,,,,,,,,,,,,,,,,,,,,,,,,,,,,,,,,,1,,,,,,,,,,,,,,,,,,,,,,,,,,,,,,,,,,,,,,,,,,,,,,101,159088,18,Female,1,2024/03/19_08:51:30,YZ,None,
5,./instructions/inst_prac_2/Slide10.png,right,3.3807609590003267,110.39528859200072,113.77604955100105,,,,,,,,,,,,,,,,,,,,,,,,,,,,,,,,,1,,,,,,,,,,,,,,,,,,,,,,,,,,,,,,,,,,,,,,,,,,,,,,101,159088,18,Female,1,2024/03/19_08:51:30,YZ,None,
6,./instructions/inst_prac_2/Slide11.png,right,3.6904047220014036,113.80538121599966,117.49578593800106,,,,,,,,,,,,,,,,,,,,,,,,,,,,,,,,,1,,,,,,,,,,,,,,,,,,,,,,,,,,,,,,,,,,,,,,,,,,,,,,101,159088,18,Female,1,2024/03/19_08:51:30,YZ,None,
7,./instructions/inst_prac_2/Slide12.png,right,2.242448840996076,117.52530078300333,119.7677496239994,,,,,,,,,,,,,,,,,,,,,,,,,,,,,,,,,1,,,,,,,,,,,,,,,,,,,,,,,,,,,,,,,,,,,,,,,,,,,,,,101,159088,18,Female,1,2024/03/19_08:51:30,YZ,None,
8,./instructions/inst_prac_2/Slide13.png,right,2.5713902770003187,119.79661384499923,122.36800412199955,,,,,,,,,,,,,,,,,,,,,,,,,,,,,,,,,1,,,,,,,,,,,,,,,,,,,,,,,,,,,,,,,,,,,,,,,,,,,,,,101,159088,18,Female,1,2024/03/19_08:51:30,YZ,None,
9,./instructions/inst_prac_2/Slide14.png,right,11.762613628001418,122.39750274800463,134.16011637600604,,,,,,,,,,,,,,,,,,,,,,,,,,,,,,,,,1,,,,,,,,,,,,,,,,,,,,,,,,,,,,,,,,,,,,,,,,,,,,,,101,159088,18,Female,1,2024/03/19_08:51:30,YZ,None,
10,./instructions/inst_prac_2/Slide15.png,right,18.233953874994768,134.18983550300618,152.42378937800095,,,,,,,,,,,,,,,,,,,,,,,,,,,,,,,,,1,,,,,,,,,,,,,,,,,,,,,,,,,,,,,,,,,,,,,,,,,,,,,,101,159088,18,Female,1,2024/03/19_08:51:30,YZ,None,
,,,,,,practice,0,32,2,2583,1,X,0,right,3.504896677004581,1,0,,,,,,,,,,,,,,,,,,,,,1,,,,,,,,,,,,,,,,,,,,,,,,,,,,,,,,,,,,,,,,,,,,,,101,159088,18,Female,1,2024/03/19_08:51:30,YZ,None,
,,,,,,practice,0,32,2,2583,2,J,0,right,1.471752846002346,1,0,,,,,,,,,,,,,,,,,,,,,1,,,,,,,,,,,,,,,,,,,,,,,,,,,,,,,,,,,,,,,,,,,,,,101,159088,18,Female,1,2024/03/19_08:51:30,YZ,None,
,,,,,,practice,0,32,2,2583,3,V,0,right,0.9693126220008708,1,0,,,,,,,,,,,,,,,,,,,,,1,,,,,,,,,,,,,,,,,,,,,,,,,,,,,,,,,,,,,,,,,,,,,,101,159088,18,Female,1,2024/03/19_08:51:30,YZ,None,
,,,,,,practice,0,32,2,2583,4,J,1,left,0.8953083340020385,1,0,,,,,,,,,,,,,,,,,,,,,1,,,,,,,,,,,,,,,,,,,,,,,,,,,,,,,,,,,,,,,,,,,,,,101,159088,18,Female,1,2024/03/19_08:51:30,YZ,None,
,,,,,,practice,0,32,2,2583,5,Q,0,right,1.2838795240022591,1,0,,,,,,,,,,,,,,,,,,,,,1,,,,,,,,,,,,,,,,,,,,,,,,,,,,,,,,,,,,,,,,,,,,,,101,159088,18,Female,1,2024/03/19_08:51:30,YZ,None,
,,,,,,practice,0,32,2,2583,6,J,1,left,0.7214768679987174,1,0,,,,,,,,,,,,,,,,,,,,,1,,,,,,,,,,,,,,,,,,,,,,,,,,,,,,,,,,,,,,,,,,,,,,101,159088,18,Female,1,2024/03/19_08:51:30,YZ,None,
,,,,,,practice,0,32,2,2583,,,,,,,,1.0,1.0,0.0,1.0,0.0,1.0,1.4744378118351353,2,0,0,0,0,4,6,2,4,0,,,,1,,,,,,,,,,,,,,,,,,,,,,,,,,,,,,,,,,,,,,,,,,,,,,101,159088,18,Female,1,2024/03/19_08:51:30,YZ,None,
1,./instructions/inst_to_cali/Slide20.png,right,6.460359712000354,167.61972767400584,174.0800873860062,,,,,,,,,,,,,,,,,,,,,,,,,,,,,,,,,1,,,,,,,,,,,,,,,,,,,,,,,,,,,,,,,,,,,,,,,,,,,,,,101,159088,18,Female,1,2024/03/19_08:51:30,YZ,None,
1,./instructions/inst_cali/Slide22.png,right,8.679125903996464,174.1209400190055,182.80006592300197,,,,,,,,,,,,,,,,,,,,,,,,,,,,,,,,,1,,,,,,,,,,,,,,,,,,,,,,,,,,,,,,,,,,,,,,,,,,,,,,101,159088,18,Female,1,2024/03/19_08:51:30,YZ,None,
,,,,,,calibration,0,24,2,583,1,C,0,right,0.5599126480010455,1,0,,,,,,,,,,,,,,,,,,,,,1,,,,,,,,,,,,,,,,,,,,,,,,,,,,,,,,,,,,,,,,,,,,,,101,159088,18,Female,1,2024/03/19_08:51:30,YZ,None,
,,,,,,calibration,0,24,2,583,2,S,0,right,0.40461982400302077,1,0,,,,,,,,,,,,,,,,,,,,,1,,,,,,,,,,,,,,,,,,,,,,,,,,,,,,,,,,,,,,,,,,,,,,101,159088,18,Female,1,2024/03/19_08:51:30,YZ,None,
,,,,,,calibration,0,24,2,583,3,V,0,right,0.4368161109960056,1,0,,,,,,,,,,,,,,,,,,,,,1,,,,,,,,,,,,,,,,,,,,,,,,,,,,,,,,,,,,,,,,,,,,,,101,159088,18,Female,1,2024/03/19_08:51:30,YZ,None,
,,,,,,calibration,0,24,2,583,4,C,0,left,0.5603511509980308,0,0,,,,,,,,,,,,,,,,,,,,,1,,,,,,,,,,,,,,,,,,,,,,,,,,,,,,,,,,,,,,,,,,,,,,101,159088,18,Female,1,2024/03/19_08:51:30,YZ,None,
,,,,,,calibration,0,24,2,583,5,V,1,left,0.7025565139992977,1,0,,,,,,,,,,,,,,,,,,,,,1,,,,,,,,,,,,,,,,,,,,,,,,,,,,,,,,,,,,,,,,,,,,,,101,159088,18,Female,1,2024/03/19_08:51:30,YZ,None,
,,,,,,calibration,0,24,2,583,6,N,0,right,0.3691123449971201,1,0,,,,,,,,,,,,,,,,,,,,,1,,,,,,,,,,,,,,,,,,,,,,,,,,,,,,,,,,,,,,,,,,,,,,101,159088,18,Female,1,2024/03/19_08:51:30,YZ,None,
,,,,,,calibration,0,24,2,583,7,V,1,left,0.7241064709960483,1,0,,,,,,,,,,,,,,,,,,,,,1,,,,,,,,,,,,,,,,,,,,,,,,,,,,,,,,,,,,,,,,,,,,,,101,159088,18,Female,1,2024/03/19_08:51:30,YZ,None,
,,,,,,calibration,0,24,2,583,8,J,0,right,0.46225691200379515,1,0,,,,,,,,,,,,,,,,,,,,,1,,,,,,,,,,,,,,,,,,,,,,,,,,,,,,,,,,,,,,,,,,,,,,101,159088,18,Female,1,2024/03/19_08:51:30,YZ,None,
,,,,,,calibration,0,24,2,583,9,F,0,right,0.5688720970065333,1,0,,,,,,,,,,,,,,,,,,,,,1,,,,,,,,,,,,,,,,,,,,,,,,,,,,,,,,,,,,,,,,,,,,,,101,159088,18,Female,1,2024/03/19_08:51:30,YZ,None,
,,,,,,calibration,0,24,2,583,10,J,1,left,0.6848281259954092,1,0,,,,,,,,,,,,,,,,,,,,,1,,,,,,,,,,,,,,,,,,,,,,,,,,,,,,,,,,,,,,,,,,,,,,101,159088,18,Female,1,2024/03/19_08:51:30,YZ,None,
,,,,,,calibration,0,24,2,583,11,F,1,right,0.6272855809947941,0,0,,,,,,,,,,,,,,,,,,,,,1,,,,,,,,,,,,,,,,,,,,,,,,,,,,,,,,,,,,,,,,,,,,,,101,159088,18,Female,1,2024/03/19_08:51:30,YZ,None,
,,,,,,calibration,0,24,2,583,12,S,0,right,0.9073166829984984,1,0,,,,,,,,,,,,,,,,,,,,,1,,,,,,,,,,,,,,,,,,,,,,,,,,,,,,,,,,,,,,,,,,,,,,101,159088,18,Female,1,2024/03/19_08:51:30,YZ,None,
,,,,,,calibration,0,24,2,583,13,F,1,left,0.5397758280014386,1,0,,,,,,,,,,,,,,,,,,,,,1,,,,,,,,,,,,,,,,,,,,,,,,,,,,,,,,,,,,,,,,,,,,,,101,159088,18,Female,1,2024/03/19_08:51:30,YZ,None,
,,,,,,calibration,0,24,2,583,14,Q,0,right,0.4201746370017645,1,0,,,,,,,,,,,,,,,,,,,,,1,,,,,,,,,,,,,,,,,,,,,,,,,,,,,,,,,,,,,,,,,,,,,,101,159088,18,Female,1,2024/03/19_08:51:30,YZ,None,
,,,,,,calibration,0,24,2,583,15,S,0,left,0.5981380929952138,0,0,,,,,,,,,,,,,,,,,,,,,1,,,,,,,,,,,,,,,,,,,,,,,,,,,,,,,,,,,,,,,,,,,,,,101,159088,18,Female,1,2024/03/19_08:51:30,YZ,None,
,,,,,,calibration,0,24,2,583,,,,,,,,0.86,0.8,0.2,0.8,0.0,0.8,0.5710748680658677,4,2,0,0,0,8,12,5,10,0,,,,1,,,,,,,,,,,,,,,,,,,,,,,,,,,,,,,,,,,,,,,,,,,,,,101,159088,18,Female,1,2024/03/19_08:51:30,YZ,None,
,,,,,,Calibration,0,,2,583,,,,,,,,,,,,,,,,,,,,,,,,,1,,,1,,,,,,,,,,,,,,,,,,,,,,,,,,,,,,,,,,,,,,,,,,,,,,101,159088,18,Female,1,2024/03/19_08:51:30,YZ,None,
,,,,,,calibration,0,16,2,500,1,F,0,right,0.48443901100108633,1,0,,,,,,,,,,,,,,,,,,,,,1,,,,,,,,,,,,,,,,,,,,,,,,,,,,,,,,,,,,,,,,,,,,,,101,159088,18,Female,1,2024/03/19_08:51:30,YZ,None,
,,,,,,calibration,0,16,2,500,2,S,0,right,0.5725532219948946,1,0,,,,,,,,,,,,,,,,,,,,,1,,,,,,,,,,,,,,,,,,,,,,,,,,,,,,,,,,,,,,,,,,,,,,101,159088,18,Female,1,2024/03/19_08:51:30,YZ,None,
,,,,,,calibration,0,16,2,500,3,J,0,right,0.5856288920040242,1,0,,,,,,,,,,,,,,,,,,,,,1,,,,,,,,,,,,,,,,,,,,,,,,,,,,,,,,,,,,,,,,,,,,,,101,159088,18,Female,1,2024/03/19_08:51:30,YZ,None,
,,,,,,calibration,0,16,2,500,4,N,0,right,0.66095440400386,1,0,,,,,,,,,,,,,,,,,,,,,1,,,,,,,,,,,,,,,,,,,,,,,,,,,,,,,,,,,,,,,,,,,,,,101,159088,18,Female,1,2024/03/19_08:51:30,YZ,None,
,,,,,,calibration,0,16,2,500,5,J,1,right,0.7086399949985207,0,0,,,,,,,,,,,,,,,,,,,,,1,,,,,,,,,,,,,,,,,,,,,,,,,,,,,,,,,,,,,,,,,,,,,,101,159088,18,Female,1,2024/03/19_08:51:30,YZ,None,
,,,,,,calibration,0,16,2,500,6,X,0,right,0.5519332800031407,1,0,,,,,,,,,,,,,,,,,,,,,1,,,,,,,,,,,,,,,,,,,,,,,,,,,,,,,,,,,,,,,,,,,,,,101,159088,18,Female,1,2024/03/19_08:51:30,YZ,None,
,,,,,,calibration,0,16,2,500,7,J,1,left,0.5714073429990094,1,0,,,,,,,,,,,,,,,,,,,,,1,,,,,,,,,,,,,,,,,,,,,,,,,,,,,,,,,,,,,,,,,,,,,,101,159088,18,Female,1,2024/03/19_08:51:30,YZ,None,
,,,,,,calibration,0,16,2,500,8,S,0,right,0.6270711319957627,1,0,,,,,,,,,,,,,,,,,,,,,1,,,,,,,,,,,,,,,,,,,,,,,,,,,,,,,,,,,,,,,,,,,,,,101,159088,18,Female,1,2024/03/19_08:51:30,YZ,None,
,,,,,,calibration,0,16,2,500,9,Q,0,right,0.5125340439990396,1,0,,,,,,,,,,,,,,,,,,,,,1,,,,,,,,,,,,,,,,,,,,,,,,,,,,,,,,,,,,,,,,,,,,,,101,159088,18,Female,1,2024/03/19_08:51:30,YZ,None,
,,,,,,calibration,0,16,2,500,10,S,1,left,0.37419750400295015,1,0,,,,,,,,,,,,,,,,,,,,,1,,,,,,,,,,,,,,,,,,,,,,,,,,,,,,,,,,,,,,,,,,,,,,101,159088,18,Female,1,2024/03/19_08:51:30,YZ,None,
,,,,,,calibration,0,16,2,500,11,J,0,right,0.6153374499990605,1,0,,,,,,,,,,,,,,,,,,,,,1,,,,,,,,,,,,,,,,,,,,,,,,,,,,,,,,,,,,,,,,,,,,,,101,159088,18,Female,1,2024/03/19_08:51:30,YZ,None,
,,,,,,calibration,0,16,2,500,12,S,1,left,0.40285490899987053,1,0,,,,,,,,,,,,,,,,,,,,,1,,,,,,,,,,,,,,,,,,,,,,,,,,,,,,,,,,,,,,,,,,,,,,101,159088,18,Female,1,2024/03/19_08:51:30,YZ,None,
,,,,,,calibration,0,16,2,500,13,Q,0,right,0.4085548189977999,1,0,,,,,,,,,,,,,,,,,,,,,1,,,,,,,,,,,,,,,,,,,,,,,,,,,,,,,,,,,,,,,,,,,,,,101,159088,18,Female,1,2024/03/19_08:51:30,YZ,None,
,,,,,,calibration,0,16,2,500,14,J,0,left,0.439961428004608,0,0,,,,,,,,,,,,,,,,,,,,,1,,,,,,,,,,,,,,,,,,,,,,,,,,,,,,,,,,,,,,,,,,,,,,101,159088,18,Female,1,2024/03/19_08:51:30,YZ,None,
,,,,,,calibration,0,16,2,500,15,V,0,right,0.6265696620030212,1,0,,,,,,,,,,,,,,,,,,,,,1,,,,,,,,,,,,,,,,,,,,,,,,,,,,,,,,,,,,,,,,,,,,,,101,159088,18,Female,1,2024/03/19_08:51:30,YZ,None,
,,,,,,calibration,0,16,2,500,16,J,1,left,0.3867379899966181,1,0,,,,,,,,,,,,,,,,,,,,,1,,,,,,,,,,,,,,,,,,,,,,,,,,,,,,,,,,,,,,,,,,,,,,101,159088,18,Female,1,2024/03/19_08:51:30,YZ,None,
,,,,,,calibration,0,16,2,500,,,,,,,,0.9090909090909091,0.8,0.09090909090909091,0.9090909090909091,0.0,0.9090909090909091,0.5330859428127042,4,1,0,0,0,10,14,5,11,0,,,,1,,,,,,,,,,,,,,,,,,,,,,,,,,,,,,,,,,,,,,,,,,,,,,101,159088,18,Female,1,2024/03/19_08:51:30,YZ,None,
,,,,,,Calibration,0,,2,500,,,,,,,,,,,,,,,,,,,,,,,,,2,,,1,,,,,,,,,,,,,,,,,,,,,,,,,,,,,,,,,,,,,,,,,,,,,,101,159088,18,Female,1,2024/03/19_08:51:30,YZ,None,
,,,,,,calibration,0,32,2,426,1,N,0,right,0.8969231369992485,1,0,,,,,,,,,,,,,,,,,,,,,1,,,,,,,,,,,,,,,,,,,,,,,,,,,,,,,,,,,,,,,,,,,,,,101,159088,18,Female,1,2024/03/19_08:51:30,YZ,None,
,,,,,,calibration,0,32,2,426,2,X,0,right,0.35669961100211367,1,0,,,,,,,,,,,,,,,,,,,,,1,,,,,,,,,,,,,,,,,,,,,,,,,,,,,,,,,,,,,,,,,,,,,,101,159088,18,Female,1,2024/03/19_08:51:30,YZ,None,
,,,,,,calibration,0,32,2,426,3,N,1,left,0.5569455799995922,1,0,,,,,,,,,,,,,,,,,,,,,1,,,,,,,,,,,,,,,,,,,,,,,,,,,,,,,,,,,,,,,,,,,,,,101,159088,18,Female,1,2024/03/19_08:51:30,YZ,None,
,,,,,,calibration,0,32,2,426,4,C,0,right,0.3285493090006639,1,0,,,,,,,,,,,,,,,,,,,,,1,,,,,,,,,,,,,,,,,,,,,,,,,,,,,,,,,,,,,,,,,,,,,,101,159088,18,Female,1,2024/03/19_08:51:30,YZ,None,
,,,,,,calibration,0,32,2,426,5,J,0,right,0.5726676310005132,1,0,,,,,,,,,,,,,,,,,,,,,1,,,,,,,,,,,,,,,,,,,,,,,,,,,,,,,,,,,,,,,,,,,,,,101,159088,18,Female,1,2024/03/19_08:51:30,YZ,None,
,,,,,,calibration,0,32,2,426,6,X,0,left,0.601655454003776,0,0,,,,,,,,,,,,,,,,,,,,,1,,,,,,,,,,,,,,,,,,,,,,,,,,,,,,,,,,,,,,,,,,,,,,101,159088,18,Female,1,2024/03/19_08:51:30,YZ,None,
,,,,,,calibration,0,32,2,426,7,V,0,right,0.3820872549986234,1,0,,,,,,,,,,,,,,,,,,,,,1,,,,,,,,,,,,,,,,,,,,,,,,,,,,,,,,,,,,,,,,,,,,,,101,159088,18,Female,1,2024/03/19_08:51:30,YZ,None,
,,,,,,calibration,0,32,2,426,8,C,0,left,0.8756702739992761,0,0,,,,,,,,,,,,,,,,,,,,,1,,,,,,,,,,,,,,,,,,,,,,,,,,,,,,,,,,,,,,,,,,,,,,101,159088,18,Female,1,2024/03/19_08:51:30,YZ,None,
,,,,,,calibration,0,32,2,426,9,Q,0,right,0.31654577900189906,1,0,,,,,,,,,,,,,,,,,,,,,1,,,,,,,,,,,,,,,,,,,,,,,,,,,,,,,,,,,,,,,,,,,,,,101,159088,18,Female,1,2024/03/19_08:51:30,YZ,None,
,,,,,,calibration,0,32,2,426,10,C,1,right,0.39973048899992136,0,0,,,,,,,,,,,,,,,,,,,,,1,,,,,,,,,,,,,,,,,,,,,,,,,,,,,,,,,,,,,,,,,,,,,,101,159088,18,Female,1,2024/03/19_08:51:30,YZ,None,
,,,,,,calibration,0,32,2,426,11,Q,1,right,0.4995468790002633,0,0,,,,,,,,,,,,,,,,,,,,,1,,,,,,,,,,,,,,,,,,,,,,,,,,,,,,,,,,,,,,,,,,,,,,101,159088,18,Female,1,2024/03/19_08:51:30,YZ,None,
,,,,,,calibration,0,32,2,426,12,J,0,right,0.5125130829983391,1,0,,,,,,,,,,,,,,,,,,,,,1,,,,,,,,,,,,,,,,,,,,,,,,,,,,,,,,,,,,,,,,,,,,,,101,159088,18,Female,1,2024/03/19_08:51:30,YZ,None,
,,,,,,calibration,0,32,2,426,13,X,0,right,0.6919971669994993,1,0,,,,,,,,,,,,,,,,,,,,,1,,,,,,,,,,,,,,,,,,,,,,,,,,,,,,,,,,,,,,,,,,,,,,101,159088,18,Female,1,2024/03/19_08:51:30,YZ,None,
,,,,,,calibration,0,32,2,426,14,F,0,left,0.4374508550026803,0,0,,,,,,,,,,,,,,,,,,,,,1,,,,,,,,,,,,,,,,,,,,,,,,,,,,,,,,,,,,,,,,,,,,,,101,159088,18,Female,1,2024/03/19_08:51:30,YZ,None,
,,,,,,calibration,0,32,2,426,15,X,1,right,0.4643510499954573,0,0,,,,,,,,,,,,,,,,,,,,,1,,,,,,,,,,,,,,,,,,,,,,,,,,,,,,,,,,,,,,,,,,,,,,101,159088,18,Female,1,2024/03/19_08:51:30,YZ,None,
,,,,,,calibration,0,32,2,426,16,V,0,right,0.6022625100013101,1,0,,,,,,,,,,,,,,,,,,,,,1,,,,,,,,,,,,,,,,,,,,,,,,,,,,,,,,,,,,,,,,,,,,,,101,159088,18,Female,1,2024/03/19_08:51:30,YZ,None,
,,,,,,calibration,0,32,2,426,17,X,1,left,0.6198209950016462,1,0,,,,,,,,,,,,,,,,,,,,,1,,,,,,,,,,,,,,,,,,,,,,,,,,,,,,,,,,,,,,,,,,,,,,101,159088,18,Female,1,2024/03/19_08:51:30,YZ,None,
,,,,,,calibration,0,32,2,426,,,,,,,,0.63125,0.4,0.25,0.75,0.0,0.75,0.5362010034120485,2,3,0,0,0,9,11,5,12,0,,,,1,,,,,,,,,,,,,,,,,,,,,,,,,,,,,,,,,,,,,,,,,,,,,,101,159088,18,Female,1,2024/03/19_08:51:30,YZ,None,
,,,,,,Calibration,0,,2,426,,,,,,,,,,,,,,,,,,,,,,,,,3,,,1,,,,,,,,,,,,,,,,,,,,,,,,,,,,,,,,,,,,,,,,,,,,,,101,159088,18,Female,1,2024/03/19_08:51:30,YZ,None,
,,,,,,calibration,0,27,2,500,1,C,0,right,0.355984295005328,1,0,,,,,,,,,,,,,,,,,,,,,1,,,,,,,,,,,,,,,,,,,,,,,,,,,,,,,,,,,,,,,,,,,,,,101,159088,18,Female,1,2024/03/19_08:51:30,YZ,None,
,,,,,,calibration,0,27,2,500,2,X,0,right,0.4327376900037052,1,0,,,,,,,,,,,,,,,,,,,,,1,,,,,,,,,,,,,,,,,,,,,,,,,,,,,,,,,,,,,,,,,,,,,,101,159088,18,Female,1,2024/03/19_08:51:30,YZ,None,
,,,,,,calibration,0,27,2,500,3,F,0,right,0.7663311020005494,1,0,,,,,,,,,,,,,,,,,,,,,1,,,,,,,,,,,,,,,,,,,,,,,,,,,,,,,,,,,,,,,,,,,,,,101,159088,18,Female,1,2024/03/19_08:51:30,YZ,None,
,,,,,,calibration,0,27,2,500,4,X,1,left,0.711233876994811,1,0,,,,,,,,,,,,,,,,,,,,,1,,,,,,,,,,,,,,,,,,,,,,,,,,,,,,,,,,,,,,,,,,,,,,101,159088,18,Female,1,2024/03/19_08:51:30,YZ,None,
,,,,,,calibration,0,27,2,500,5,N,0,right,0.24979407000500942,1,0,,,,,,,,,,,,,,,,,,,,,1,,,,,,,,,,,,,,,,,,,,,,,,,,,,,,,,,,,,,,,,,,,,,,101,159088,18,Female,1,2024/03/19_08:51:30,YZ,None,
,,,,,,calibration,0,27,2,500,6,V,0,right,0.368584178002493,1,0,,,,,,,,,,,,,,,,,,,,,1,,,,,,,,,,,,,,,,,,,,,,,,,,,,,,,,,,,,,,,,,,,,,,101,159088,18,Female,1,2024/03/19_08:51:30,YZ,None,
,,,,,,calibration,0,27,2,500,7,X,0,left,0.47681313900102396,0,0,,,,,,,,,,,,,,,,,,,,,1,,,,,,,,,,,,,,,,,,,,,,,,,,,,,,,,,,,,,,,,,,,,,,101,159088,18,Female,1,2024/03/19_08:51:30,YZ,None,
,,,,,,calibration,0,27,2,500,8,V,1,right,0.2525454139977228,0,0,,,,,,,,,,,,,,,,,,,,,1,,,,,,,,,,,,,,,,,,,,,,,,,,,,,,,,,,,,,,,,,,,,,,101,159088,18,Female,1,2024/03/19_08:51:30,YZ,None,
,,,,,,calibration,0,27,2,500,9,X,1,right,0.7273915260011563,0,0,,,,,,,,,,,,,,,,,,,,,1,,,,,,,,,,,,,,,,,,,,,,,,,,,,,,,,,,,,,,,,,,,,,,101,159088,18,Female,1,2024/03/19_08:51:30,YZ,None,
,,,,,,calibration,0,27,2,500,10,S,0,right,0.41565911100042285,1,0,,,,,,,,,,,,,,,,,,,,,1,,,,,,,,,,,,,,,,,,,,,,,,,,,,,,,,,,,,,,,,,,,,,,101,159088,18,Female,1,2024/03/19_08:51:30,YZ,None,
,,,,,,calibration,0,27,2,500,11,C,0,right,0.5124388870026451,1,0,,,,,,,,,,,,,,,,,,,,,1,,,,,,,,,,,,,,,,,,,,,,,,,,,,,,,,,,,,,,,,,,,,,,101,159088,18,Female,1,2024/03/19_08:51:30,YZ,None,
,,,,,,calibration,0,27,2,500,12,V,0,right,0.4501732479984639,1,0,,,,,,,,,,,,,,,,,,,,,1,,,,,,,,,,,,,,,,,,,,,,,,,,,,,,,,,,,,,,,,,,,,,,101,159088,18,Female,1,2024/03/19_08:51:30,YZ,None,
,,,,,,calibration,0,27,2,500,13,C,1,left,0.8897435800026869,1,0,,,,,,,,,,,,,,,,,,,,,1,,,,,,,,,,,,,,,,,,,,,,,,,,,,,,,,,,,,,,,,,,,,,,101,159088,18,Female,1,2024/03/19_08:51:30,YZ,None,
,,,,,,calibration,0,27,2,500,14,Q,0,right,0.3112030219999724,1,0,,,,,,,,,,,,,,,,,,,,,1,,,,,,,,,,,,,,,,,,,,,,,,,,,,,,,,,,,,,,,,,,,,,,101,159088,18,Female,1,2024/03/19_08:51:30,YZ,None,
,,,,,,calibration,0,27,2,500,15,N,0,right,0.3973264240048593,1,0,,,,,,,,,,,,,,,,,,,,,1,,,,,,,,,,,,,,,,,,,,,,,,,,,,,,,,,,,,,,,,,,,,,,101,159088,18,Female,1,2024/03/19_08:51:30,YZ,None,
,,,,,,calibration,0,27,2,500,16,F,0,right,0.5629075859978911,1,0,,,,,,,,,,,,,,,,,,,,,1,,,,,,,,,,,,,,,,,,,,,,,,,,,,,,,,,,,,,,,,,,,,,,101,159088,18,Female,1,2024/03/19_08:51:30,YZ,None,
,,,,,,calibration,0,27,2,500,,,,,,,,0.8125,0.5,0.08333333333333333,0.9166666666666666,0.0,0.9166666666666666,0.4925541968136713,2,1,0,0,0,11,13,4,12,0,,,,1,,,,,,,,,,,,,,,,,,,,,,,,,,,,,,,,,,,,,,,,,,,,,,101,159088,18,Female,1,2024/03/19_08:51:30,YZ,None,
,,,,,,Calibration,0,,2,500,,,,,,,,,,,,,,,,,,,,,,,,,4,,,1,,,,,,,,,,,,,,,,,,,,,,,,,,,,,,,,,,,,,,,,,,,,,,101,159088,18,Female,1,2024/03/19_08:51:30,YZ,None,
,,,,,,calibration,0,7,2,500,1,N,0,right,0.3055756309986464,1,0,,,,,,,,,,,,,,,,,,,,,1,,,,,,,,,,,,,,,,,,,,,,,,,,,,,,,,,,,,,,,,,,,,,,101,159088,18,Female,1,2024/03/19_08:51:30,YZ,None,
,,,,,,calibration,0,7,2,500,2,C,0,right,0.24814581299870042,1,0,,,,,,,,,,,,,,,,,,,,,1,,,,,,,,,,,,,,,,,,,,,,,,,,,,,,,,,,,,,,,,,,,,,,101,159088,18,Female,1,2024/03/19_08:51:30,YZ,None,
,,,,,,calibration,0,7,2,500,3,V,0,right,0.5252009849937167,1,0,,,,,,,,,,,,,,,,,,,,,1,,,,,,,,,,,,,,,,,,,,,,,,,,,,,,,,,,,,,,,,,,,,,,101,159088,18,Female,1,2024/03/19_08:51:30,YZ,None,
,,,,,,calibration,0,7,2,500,4,F,0,right,0.5122955150000053,1,0,,,,,,,,,,,,,,,,,,,,,1,,,,,,,,,,,,,,,,,,,,,,,,,,,,,,,,,,,,,,,,,,,,,,101,159088,18,Female,1,2024/03/19_08:51:30,YZ,None,
,,,,,,calibration,0,7,2,500,5,V,1,left,0.4614514610002516,1,0,,,,,,,,,,,,,,,,,,,,,1,,,,,,,,,,,,,,,,,,,,,,,,,,,,,,,,,,,,,,,,,,,,,,101,159088,18,Female,1,2024/03/19_08:51:30,YZ,None,
,,,,,,calibration,0,7,2,500,6,J,0,right,0.26811043000634527,1,0,,,,,,,,,,,,,,,,,,,,,1,,,,,,,,,,,,,,,,,,,,,,,,,,,,,,,,,,,,,,,,,,,,,,101,159088,18,Female,1,2024/03/19_08:51:30,YZ,None,
,,,,,,calibration,0,7,2,500,7,N,0,right,0.4167583669986925,1,0,,,,,,,,,,,,,,,,,,,,,1,,,,,,,,,,,,,,,,,,,,,,,,,,,,,,,,,,,,,,,,,,,,,,101,159088,18,Female,1,2024/03/19_08:51:30,YZ,None,
,,,,,,calibration,0,7,2,500,8,J,1,right,0.8401609729990014,0,0,,,,,,,,,,,,,,,,,,,,,1,,,,,,,,,,,,,,,,,,,,,,,,,,,,,,,,,,,,,,,,,,,,,,101,159088,18,Female,1,2024/03/19_08:51:30,YZ,None,
,,,,,,calibration,0,7,2,500,9,N,1,left,0.6013394179972238,1,0,,,,,,,,,,,,,,,,,,,,,1,,,,,,,,,,,,,,,,,,,,,,,,,,,,,,,,,,,,,,,,,,,,,,101,159088,18,Female,1,2024/03/19_08:51:30,YZ,None,
,,,,,,calibration,0,7,2,500,10,Q,0,right,0.4619399630028056,1,0,,,,,,,,,,,,,,,,,,,,,1,,,,,,,,,,,,,,,,,,,,,,,,,,,,,,,,,,,,,,,,,,,,,,101,159088,18,Female,1,2024/03/19_08:51:30,YZ,None,
,,,,,,calibration,0,7,2,500,11,V,0,right,0.37826275000406895,1,0,,,,,,,,,,,,,,,,,,,,,1,,,,,,,,,,,,,,,,,,,,,,,,,,,,,,,,,,,,,,,,,,,,,,101,159088,18,Female,1,2024/03/19_08:51:30,YZ,None,
,,,,,,calibration,0,7,2,500,12,Q,1,left,0.5261338920026901,1,0,,,,,,,,,,,,,,,,,,,,,1,,,,,,,,,,,,,,,,,,,,,,,,,,,,,,,,,,,,,,,,,,,,,,101,159088,18,Female,1,2024/03/19_08:51:30,YZ,None,
,,,,,,calibration,0,7,2,500,13,N,0,right,0.25041115500062006,1,0,,,,,,,,,,,,,,,,,,,,,1,,,,,,,,,,,,,,,,,,,,,,,,,,,,,,,,,,,,,,,,,,,,,,101,159088,18,Female,1,2024/03/19_08:51:30,YZ,None,
,,,,,,calibration,0,7,2,500,14,Q,1,right,0.41734279000229435,0,0,,,,,,,,,,,,,,,,,,,,,1,,,,,,,,,,,,,,,,,,,,,,,,,,,,,,,,,,,,,,,,,,,,,,101,159088,18,Female,1,2024/03/19_08:51:30,YZ,None,
,,,,,,calibration,0,7,2,500,15,J,0,right,0.6906110550044104,1,0,,,,,,,,,,,,,,,,,,,,,1,,,,,,,,,,,,,,,,,,,,,,,,,,,,,,,,,,,,,,,,,,,,,,101,159088,18,Female,1,2024/03/19_08:51:30,YZ,None,
,,,,,,calibration,0,7,2,500,16,S,0,right,0.5125845579968882,1,0,,,,,,,,,,,,,,,,,,,,,1,,,,,,,,,,,,,,,,,,,,,,,,,,,,,,,,,,,,,,,,,,,,,,101,159088,18,Female,1,2024/03/19_08:51:30,YZ,None,
,,,,,,calibration,0,7,2,500,,,,,,,,0.9,0.6,0.0,1.0,0.0,1.0,0.46352029725039756,3,0,0,0,0,11,14,5,11,0,,,,1,,,,,,,,,,,,,,,,,,,,,,,,,,,,,,,,,,,,,,,,,,,,,,101,159088,18,Female,1,2024/03/19_08:51:30,YZ,None,
,,,,,,Calibration,0,,2,500,,,,,,,,,,,,,,,,,,,,,,,,,5,,,1,,,,,,,,,,,,,,,,,,,,,,,,,,,,,,,,,,,,,,,,,,,,,,101,159088,18,Female,1,2024/03/19_08:51:30,YZ,None,
,,,,,,calibration,0,9,2,426,1,Q,0,right,0.4206167429947527,1,0,,,,,,,,,,,,,,,,,,,,,1,,,,,,,,,,,,,,,,,,,,,,,,,,,,,,,,,,,,,,,,,,,,,,101,159088,18,Female,1,2024/03/19_08:51:30,YZ,None,
,,,,,,calibration,0,9,2,426,2,Q,0,right,0.5495770829948015,1,0,,,,,,,,,,,,,,,,,,,,,1,,,,,,,,,,,,,,,,,,,,,,,,,,,,,,,,,,,,,,,,,,,,,,101,159088,18,Female,1,2024/03/19_08:51:30,YZ,None,
,,,,,,calibration,0,9,2,426,3,S,0,right,0.4427428500057431,1,0,,,,,,,,,,,,,,,,,,,,,1,,,,,,,,,,,,,,,,,,,,,,,,,,,,,,,,,,,,,,,,,,,,,,101,159088,18,Female,1,2024/03/19_08:51:30,YZ,None,
,,,,,,calibration,0,9,2,426,4,X,0,right,0.5745399509978597,1,0,,,,,,,,,,,,,,,,,,,,,1,,,,,,,,,,,,,,,,,,,,,,,,,,,,,,,,,,,,,,,,,,,,,,101,159088,18,Female,1,2024/03/19_08:51:30,YZ,None,
,,,,,,calibration,0,9,2,426,5,S,1,right,0.47515054699761095,0,0,,,,,,,,,,,,,,,,,,,,,1,,,,,,,,,,,,,,,,,,,,,,,,,,,,,,,,,,,,,,,,,,,,,,101,159088,18,Female,1,2024/03/19_08:51:30,YZ,None,
,,,,,,calibration,0,9,2,426,6,N,0,right,0.4421915380007704,1,0,,,,,,,,,,,,,,,,,,,,,1,,,,,,,,,,,,,,,,,,,,,,,,,,,,,,,,,,,,,,,,,,,,,,101,159088,18,Female,1,2024/03/19_08:51:30,YZ,None,
,,,,,,calibration,0,9,2,426,7,X,0,left,0.49387101300089853,0,0,,,,,,,,,,,,,,,,,,,,,1,,,,,,,,,,,,,,,,,,,,,,,,,,,,,,,,,,,,,,,,,,,,,,101,159088,18,Female,1,2024/03/19_08:51:30,YZ,None,
,,,,,,calibration,0,9,2,426,8,N,1,right,0.3315414500029874,0,0,,,,,,,,,,,,,,,,,,,,,1,,,,,,,,,,,,,,,,,,,,,,,,,,,,,,,,,,,,,,,,,,,,,,101,159088,18,Female,1,2024/03/19_08:51:30,YZ,None,
,,,,,,calibration,0,9,2,426,9,S,0,right,0.3595846829994116,1,0,,,,,,,,,,,,,,,,,,,,,1,,,,,,,,,,,,,,,,,,,,,,,,,,,,,,,,,,,,,,,,,,,,,,101,159088,18,Female,1,2024/03/19_08:51:30,YZ,None,
,,,,,,calibration,0,9,2,426,10,V,0,right,0.5247982299988507,1,0,,,,,,,,,,,,,,,,,,,,,1,,,,,,,,,,,,,,,,,,,,,,,,,,,,,,,,,,,,,,,,,,,,,,101,159088,18,Female,1,2024/03/19_08:51:30,YZ,None,
,,,,,,calibration,0,9,2,426,11,J,0,right,0.45176368999818806,1,0,,,,,,,,,,,,,,,,,,,,,1,,,,,,,,,,,,,,,,,,,,,,,,,,,,,,,,,,,,,,,,,,,,,,101,159088,18,Female,1,2024/03/19_08:51:30,YZ,None,
,,,,,,calibration,0,9,2,426,12,V,1,left,0.7011109550003312,1,0,,,,,,,,,,,,,,,,,,,,,1,,,,,,,,,,,,,,,,,,,,,,,,,,,,,,,,,,,,,,,,,,,,,,101,159088,18,Female,1,2024/03/19_08:51:30,YZ,None,
,,,,,,calibration,0,9,2,426,13,J,1,right,0.29086335100146243,0,0,,,,,,,,,,,,,,,,,,,,,1,,,,,,,,,,,,,,,,,,,,,,,,,,,,,,,,,,,,,,,,,,,,,,101,159088,18,Female,1,2024/03/19_08:51:30,YZ,None,
,,,,,,calibration,0,9,2,426,14,N,0,right,0.6088656100037042,1,0,,,,,,,,,,,,,,,,,,,,,1,,,,,,,,,,,,,,,,,,,,,,,,,,,,,,,,,,,,,,,,,,,,,,101,159088,18,Female,1,2024/03/19_08:51:30,YZ,None,
,,,,,,calibration,0,9,2,426,15,F,0,right,0.5584951479977462,1,0,,,,,,,,,,,,,,,,,,,,,1,,,,,,,,,,,,,,,,,,,,,,,,,,,,,,,,,,,,,,,,,,,,,,101,159088,18,Female,1,2024/03/19_08:51:30,YZ,None,
,,,,,,calibration,0,9,2,426,16,N,1,right,0.6908004399956553,0,0,,,,,,,,,,,,,,,,,,,,,1,,,,,,,,,,,,,,,,,,,,,,,,,,,,,,,,,,,,,,,,,,,,,,101,159088,18,Female,1,2024/03/19_08:51:30,YZ,None,
,,,,,,calibration,0,9,2,426,17,C,0,right,0.40269496599648846,1,0,,,,,,,,,,,,,,,,,,,,,1,,,,,,,,,,,,,,,,,,,,,,,,,,,,,,,,,,,,,,,,,,,,,,101,159088,18,Female,1,2024/03/19_08:51:30,YZ,None,
,,,,,,calibration,0,9,2,426,,,,,,,,0.675,0.2,0.08333333333333333,0.9166666666666666,0.0,0.9166666666666666,0.48936519105807424,1,1,0,0,0,11,12,5,12,0,,,,1,,,,,,,,,,,,,,,,,,,,,,,,,,,,,,,,,,,,,,,,,,,,,,101,159088,18,Female,1,2024/03/19_08:51:30,YZ,None,
,,,,,,Calibration,0,,2,426,,,,,,,,,,,,,,,,,,,,,,,,,6,,,1,,,,,,,,,,,,,,,,,,,,,,,,,,,,,,,,,,,,,,,,,,,,,,101,159088,18,Female,1,2024/03/19_08:51:30,YZ,None,
,,,,,,calibration,0,30,2,500,1,N,0,right,0.3193756049950025,1,0,,,,,,,,,,,,,,,,,,,,,1,,,,,,,,,,,,,,,,,,,,,,,,,,,,,,,,,,,,,,,,,,,,,,101,159088,18,Female,1,2024/03/19_08:51:30,YZ,None,
,,,,,,calibration,0,30,2,500,2,S,0,right,0.3893435599966324,1,0,,,,,,,,,,,,,,,,,,,,,1,,,,,,,,,,,,,,,,,,,,,,,,,,,,,,,,,,,,,,,,,,,,,,101,159088,18,Female,1,2024/03/19_08:51:30,YZ,None,
,,,,,,calibration,0,30,2,500,3,Q,0,right,0.408653641003184,1,0,,,,,,,,,,,,,,,,,,,,,1,,,,,,,,,,,,,,,,,,,,,,,,,,,,,,,,,,,,,,,,,,,,,,101,159088,18,Female,1,2024/03/19_08:51:30,YZ,None,
,,,,,,calibration,0,30,2,500,4,S,1,left,0.47647060199960833,1,0,,,,,,,,,,,,,,,,,,,,,1,,,,,,,,,,,,,,,,,,,,,,,,,,,,,,,,,,,,,,,,,,,,,,101,159088,18,Female,1,2024/03/19_08:51:30,YZ,None,
,,,,,,calibration,0,30,2,500,5,X,0,right,0.4739721050063963,1,0,,,,,,,,,,,,,,,,,,,,,1,,,,,,,,,,,,,,,,,,,,,,,,,,,,,,,,,,,,,,,,,,,,,,101,159088,18,Female,1,2024/03/19_08:51:30,YZ,None,
,,,,,,calibration,0,30,2,500,6,N,0,left,0.5480836530041415,0,0,,,,,,,,,,,,,,,,,,,,,1,,,,,,,,,,,,,,,,,,,,,,,,,,,,,,,,,,,,,,,,,,,,,,101,159088,18,Female,1,2024/03/19_08:51:30,YZ,None,
,,,,,,calibration,0,30,2,500,7,V,0,right,0.2931337049958529,1,0,,,,,,,,,,,,,,,,,,,,,1,,,,,,,,,,,,,,,,,,,,,,,,,,,,,,,,,,,,,,,,,,,,,,101,159088,18,Female,1,2024/03/19_08:51:30,YZ,None,
,,,,,,calibration,0,30,2,500,8,N,1,right,0.3967880830023205,0,0,,,,,,,,,,,,,,,,,,,,,1,,,,,,,,,,,,,,,,,,,,,,,,,,,,,,,,,,,,,,,,,,,,,,101,159088,18,Female,1,2024/03/19_08:51:30,YZ,None,
,,,,,,calibration,0,30,2,500,9,C,0,right,0.6302630840000347,1,0,,,,,,,,,,,,,,,,,,,,,1,,,,,,,,,,,,,,,,,,,,,,,,,,,,,,,,,,,,,,,,,,,,,,101,159088,18,Female,1,2024/03/19_08:51:30,YZ,None,
,,,,,,calibration,0,30,2,500,10,S,0,right,0.3987919939972926,1,0,,,,,,,,,,,,,,,,,,,,,1,,,,,,,,,,,,,,,,,,,,,,,,,,,,,,,,,,,,,,,,,,,,,,101,159088,18,Female,1,2024/03/19_08:51:30,YZ,None,
,,,,,,calibration,0,30,2,500,11,F,0,right,0.4406813739988138,1,0,,,,,,,,,,,,,,,,,,,,,1,,,,,,,,,,,,,,,,,,,,,,,,,,,,,,,,,,,,,,,,,,,,,,101,159088,18,Female,1,2024/03/19_08:51:30,YZ,None,
,,,,,,calibration,0,30,2,500,12,Q,0,right,0.59049999799754,1,0,,,,,,,,,,,,,,,,,,,,,1,,,,,,,,,,,,,,,,,,,,,,,,,,,,,,,,,,,,,,,,,,,,,,101,159088,18,Female,1,2024/03/19_08:51:30,YZ,None,
,,,,,,calibration,0,30,2,500,13,F,1,right,0.6923845359997358,0,0,,,,,,,,,,,,,,,,,,,,,1,,,,,,,,,,,,,,,,,,,,,,,,,,,,,,,,,,,,,,,,,,,,,,101,159088,18,Female,1,2024/03/19_08:51:30,YZ,None,
,,,,,,calibration,0,30,2,500,14,Q,1,left,0.5122548170038499,1,0,,,,,,,,,,,,,,,,,,,,,1,,,,,,,,,,,,,,,,,,,,,,,,,,,,,,,,,,,,,,,,,,,,,,101,159088,18,Female,1,2024/03/19_08:51:30,YZ,None,
,,,,,,calibration,0,30,2,500,15,V,0,right,0.2957113640004536,1,0,,,,,,,,,,,,,,,,,,,,,1,,,,,,,,,,,,,,,,,,,,,,,,,,,,,,,,,,,,,,,,,,,,,,101,159088,18,Female,1,2024/03/19_08:51:30,YZ,None,
,,,,,,calibration,0,30,2,500,16,F,0,right,0.621942976002174,1,0,,,,,,,,,,,,,,,,,,,,,1,,,,,,,,,,,,,,,,,,,,,,,,,,,,,,,,,,,,,,,,,,,,,,101,159088,18,Female,1,2024/03/19_08:51:30,YZ,None,
,,,,,,calibration,0,30,2,500,,,,,,,,0.8125,0.5,0.08333333333333333,0.9166666666666666,0.0,0.9166666666666666,0.46802194356268956,2,1,0,0,0,11,13,4,12,0,,,,1,,,,,,,,,,,,,,,,,,,,,,,,,,,,,,,,,,,,,,,,,,,,,,101,159088,18,Female,1,2024/03/19_08:51:30,YZ,None,
,,,,,,Calibration,0,,2,500,,,,,,,,,,,,,,,,,,,,,,,,,7,,,1,,,,,,,,,,,,,,,,,,,,,,,,,,,,,,,,,,,,,,,,,,,,,,101,159088,18,Female,1,2024/03/19_08:51:30,YZ,None,
,,,,,,calibration,0,2,2,500,1,N,0,right,0.3381723280035658,1,0,,,,,,,,,,,,,,,,,,,,,1,,,,,,,,,,,,,,,,,,,,,,,,,,,,,,,,,,,,,,,,,,,,,,101,159088,18,Female,1,2024/03/19_08:51:30,YZ,None,
,,,,,,calibration,0,2,2,500,2,V,0,right,0.4563783989942749,1,0,,,,,,,,,,,,,,,,,,,,,1,,,,,,,,,,,,,,,,,,,,,,,,,,,,,,,,,,,,,,,,,,,,,,101,159088,18,Female,1,2024/03/19_08:51:30,YZ,None,
,,,,,,calibration,0,2,2,500,3,S,0,right,0.44034959399868967,1,0,,,,,,,,,,,,,,,,,,,,,1,,,,,,,,,,,,,,,,,,,,,,,,,,,,,,,,,,,,,,,,,,,,,,101,159088,18,Female,1,2024/03/19_08:51:30,YZ,None,
,,,,,,calibration,0,2,2,500,4,F,0,right,0.8179187050045584,1,0,,,,,,,,,,,,,,,,,,,,,1,,,,,,,,,,,,,,,,,,,,,,,,,,,,,,,,,,,,,,,,,,,,,,101,159088,18,Female,1,2024/03/19_08:51:30,YZ,None,
,,,,,,calibration,0,2,2,500,5,X,0,right,0.591091101996426,1,0,,,,,,,,,,,,,,,,,,,,,1,,,,,,,,,,,,,,,,,,,,,,,,,,,,,,,,,,,,,,,,,,,,,,101,159088,18,Female,1,2024/03/19_08:51:30,YZ,None,
,,,,,,calibration,0,2,2,500,6,F,1,left,0.4752482609983417,1,0,,,,,,,,,,,,,,,,,,,,,1,,,,,,,,,,,,,,,,,,,,,,,,,,,,,,,,,,,,,,,,,,,,,,101,159088,18,Female,1,2024/03/19_08:51:30,YZ,None,
,,,,,,calibration,0,2,2,500,7,X,1,right,0.3311311299985391,0,0,,,,,,,,,,,,,,,,,,,,,1,,,,,,,,,,,,,,,,,,,,,,,,,,,,,,,,,,,,,,,,,,,,,,101,159088,18,Female,1,2024/03/19_08:51:30,YZ,None,
,,,,,,calibration,0,2,2,500,8,N,0,right,0.4324437789982767,1,0,,,,,,,,,,,,,,,,,,,,,1,,,,,,,,,,,,,,,,,,,,,,,,,,,,,,,,,,,,,,,,,,,,,,101,159088,18,Female,1,2024/03/19_08:51:30,YZ,None,
,,,,,,calibration,0,2,2,500,9,X,1,right,0.6967402929949458,0,0,,,,,,,,,,,,,,,,,,,,,1,,,,,,,,,,,,,,,,,,,,,,,,,,,,,,,,,,,,,,,,,,,,,,101,159088,18,Female,1,2024/03/19_08:51:30,YZ,None,
,,,,,,calibration,0,2,2,500,10,V,0,right,0.44433261200174456,1,0,,,,,,,,,,,,,,,,,,,,,1,,,,,,,,,,,,,,,,,,,,,,,,,,,,,,,,,,,,,,,,,,,,,,101,159088,18,Female,1,2024/03/19_08:51:30,YZ,None,
,,,,,,calibration,0,2,2,500,11,J,0,right,0.42889668099815026,1,0,,,,,,,,,,,,,,,,,,,,,1,,,,,,,,,,,,,,,,,,,,,,,,,,,,,,,,,,,,,,,,,,,,,,101,159088,18,Female,1,2024/03/19_08:51:30,YZ,None,
,,,,,,calibration,0,2,2,500,12,F,0,right,0.388939273005235,1,0,,,,,,,,,,,,,,,,,,,,,1,,,,,,,,,,,,,,,,,,,,,,,,,,,,,,,,,,,,,,,,,,,,,,101,159088,18,Female,1,2024/03/19_08:51:30,YZ,None,
,,,,,,calibration,0,2,2,500,13,S,0,right,0.5477831390016945,1,0,,,,,,,,,,,,,,,,,,,,,1,,,,,,,,,,,,,,,,,,,,,,,,,,,,,,,,,,,,,,,,,,,,,,101,159088,18,Female,1,2024/03/19_08:51:30,YZ,None,
,,,,,,calibration,0,2,2,500,14,F,1,right,0.7422051260000444,0,0,,,,,,,,,,,,,,,,,,,,,1,,,,,,,,,,,,,,,,,,,,,,,,,,,,,,,,,,,,,,,,,,,,,,101,159088,18,Female,1,2024/03/19_08:51:30,YZ,None,
,,,,,,calibration,0,2,2,500,15,V,0,right,0.7686200960015412,1,0,,,,,,,,,,,,,,,,,,,,,1,,,,,,,,,,,,,,,,,,,,,,,,,,,,,,,,,,,,,,,,,,,,,,101,159088,18,Female,1,2024/03/19_08:51:30,YZ,None,
,,,,,,calibration,0,2,2,500,16,N,0,right,0.47732597700087354,1,0,,,,,,,,,,,,,,,,,,,,,1,,,,,,,,,,,,,,,,,,,,,,,,,,,,,,,,,,,,,,,,,,,,,,101,159088,18,Female,1,2024/03/19_08:51:30,YZ,None,
,,,,,,calibration,0,2,2,500,,,,,,,,0.8125,0.25,0.0,1.0,0.0,1.0,0.5235985309373064,1,0,0,0,0,12,13,4,12,0,,,,1,,,,,,,,,,,,,,,,,,,,,,,,,,,,,,,,,,,,,,,,,,,,,,101,159088,18,Female,1,2024/03/19_08:51:30,YZ,None,
,,,,,,Calibration,0,,2,500,,,,,,,,,,,,,,,,,,,,,,,,,8,,,1,,,,,,,,,,,,,,,,,,,,,,,,,,,,,,,,,,,,,,,,,,,,,,101,159088,18,Female,1,2024/03/19_08:51:30,YZ,None,
,,,,,,calibration,0,6,2,500,1,N,0,right,0.3946792839997215,1,0,,,,,,,,,,,,,,,,,,,,,1,,,,,,,,,,,,,,,,,,,,,,,,,,,,,,,,,,,,,,,,,,,,,,101,159088,18,Female,1,2024/03/19_08:51:30,YZ,None,
,,,,,,calibration,0,6,2,500,2,F,0,right,0.4525421020007343,1,0,,,,,,,,,,,,,,,,,,,,,1,,,,,,,,,,,,,,,,,,,,,,,,,,,,,,,,,,,,,,,,,,,,,,101,159088,18,Female,1,2024/03/19_08:51:30,YZ,None,
,,,,,,calibration,0,6,2,500,3,N,1,right,0.3523518400033936,0,0,,,,,,,,,,,,,,,,,,,,,1,,,,,,,,,,,,,,,,,,,,,,,,,,,,,,,,,,,,,,,,,,,,,,101,159088,18,Female,1,2024/03/19_08:51:30,YZ,None,
,,,,,,calibration,0,6,2,500,4,S,0,right,0.49599604200193426,1,0,,,,,,,,,,,,,,,,,,,,,1,,,,,,,,,,,,,,,,,,,,,,,,,,,,,,,,,,,,,,,,,,,,,,101,159088,18,Female,1,2024/03/19_08:51:30,YZ,None,
,,,,,,calibration,0,6,2,500,5,N,1,left,0.5470742129982682,1,0,,,,,,,,,,,,,,,,,,,,,1,,,,,,,,,,,,,,,,,,,,,,,,,,,,,,,,,,,,,,,,,,,,,,101,159088,18,Female,1,2024/03/19_08:51:30,YZ,None,
,,,,,,calibration,0,6,2,500,6,S,1,right,0.5815843739983393,0,0,,,,,,,,,,,,,,,,,,,,,1,,,,,,,,,,,,,,,,,,,,,,,,,,,,,,,,,,,,,,,,,,,,,,101,159088,18,Female,1,2024/03/19_08:51:30,YZ,None,
,,,,,,calibration,0,6,2,500,7,X,0,right,0.5409478240035241,1,0,,,,,,,,,,,,,,,,,,,,,1,,,,,,,,,,,,,,,,,,,,,,,,,,,,,,,,,,,,,,,,,,,,,,101,159088,18,Female,1,2024/03/19_08:51:30,YZ,None,
,,,,,,calibration,0,6,2,500,8,J,0,right,0.48792596999555826,1,0,,,,,,,,,,,,,,,,,,,,,1,,,,,,,,,,,,,,,,,,,,,,,,,,,,,,,,,,,,,,,,,,,,,,101,159088,18,Female,1,2024/03/19_08:51:30,YZ,None,
,,,,,,calibration,0,6,2,500,9,Q,0,right,0.6801599110040115,1,0,,,,,,,,,,,,,,,,,,,,,1,,,,,,,,,,,,,,,,,,,,,,,,,,,,,,,,,,,,,,,,,,,,,,101,159088,18,Female,1,2024/03/19_08:51:30,YZ,None,
,,,,,,calibration,0,6,2,500,10,C,0,right,0.5584709059985471,1,0,,,,,,,,,,,,,,,,,,,,,1,,,,,,,,,,,,,,,,,,,,,,,,,,,,,,,,,,,,,,,,,,,,,,101,159088,18,Female,1,2024/03/19_08:51:30,YZ,None,
,,,,,,calibration,0,6,2,500,11,X,0,right,0.4867518340033712,1,0,,,,,,,,,,,,,,,,,,,,,1,,,,,,,,,,,,,,,,,,,,,,,,,,,,,,,,,,,,,,,,,,,,,,101,159088,18,Female,1,2024/03/19_08:51:30,YZ,None,
,,,,,,calibration,0,6,2,500,12,S,0,right,0.5913112569978694,1,0,,,,,,,,,,,,,,,,,,,,,1,,,,,,,,,,,,,,,,,,,,,,,,,,,,,,,,,,,,,,,,,,,,,,101,159088,18,Female,1,2024/03/19_08:51:30,YZ,None,
,,,,,,calibration,0,6,2,500,13,J,0,right,0.5266982479952276,1,0,,,,,,,,,,,,,,,,,,,,,1,,,,,,,,,,,,,,,,,,,,,,,,,,,,,,,,,,,,,,,,,,,,,,101,159088,18,Female,1,2024/03/19_08:51:30,YZ,None,
,,,,,,calibration,0,6,2,500,14,F,0,right,0.7326756499969633,1,0,,,,,,,,,,,,,,,,,,,,,1,,,,,,,,,,,,,,,,,,,,,,,,,,,,,,,,,,,,,,,,,,,,,,101,159088,18,Female,1,2024/03/19_08:51:30,YZ,None,
,,,,,,calibration,0,6,2,500,15,V,0,right,0.7580161700025201,1,0,,,,,,,,,,,,,,,,,,,,,1,,,,,,,,,,,,,,,,,,,,,,,,,,,,,,,,,,,,,,,,,,,,,,101,159088,18,Female,1,2024/03/19_08:51:30,YZ,None,
,,,,,,calibration,0,6,2,500,16,F,1,left,0.7586992830038071,1,0,,,,,,,,,,,,,,,,,,,,,1,,,,,,,,,,,,,,,,,,,,,,,,,,,,,,,,,,,,,,,,,,,,,,101,159088,18,Female,1,2024/03/19_08:51:30,YZ,None,
,,,,,,calibration,0,6,2,500,,,,,,,,0.875,0.5,0.0,1.0,0.0,1.0,0.5591178067502369,2,0,0,0,0,12,14,4,12,0,,,,1,,,,,,,,,,,,,,,,,,,,,,,,,,,,,,,,,,,,,,,,,,,,,,101,159088,18,Female,1,2024/03/19_08:51:30,YZ,None,
,,,,,,Calibration,0,,2,500,,,,,,,,,,,,,,,,,,,,,,,,,9,,,1,,,,,,,,,,,,,,,,,,,,,,,,,,,,,,,,,,,,,,,,,,,,,,101,159088,18,Female,1,2024/03/19_08:51:30,YZ,None,
,,,,,,calibration,0,26,2,426,1,N,0,right,0.2943695560024935,1,0,,,,,,,,,,,,,,,,,,,,,1,,,,,,,,,,,,,,,,,,,,,,,,,,,,,,,,,,,,,,,,,,,,,,101,159088,18,Female,1,2024/03/19_08:51:30,YZ,None,
,,,,,,calibration,0,26,2,426,2,F,0,right,0.32761953600129345,1,0,,,,,,,,,,,,,,,,,,,,,1,,,,,,,,,,,,,,,,,,,,,,,,,,,,,,,,,,,,,,,,,,,,,,101,159088,18,Female,1,2024/03/19_08:51:30,YZ,None,
,,,,,,calibration,0,26,2,426,3,N,1,left,0.44484121399727883,1,0,,,,,,,,,,,,,,,,,,,,,1,,,,,,,,,,,,,,,,,,,,,,,,,,,,,,,,,,,,,,,,,,,,,,101,159088,18,Female,1,2024/03/19_08:51:30,YZ,None,
,,,,,,calibration,0,26,2,426,4,S,0,right,0.3886769029995776,1,0,,,,,,,,,,,,,,,,,,,,,1,,,,,,,,,,,,,,,,,,,,,,,,,,,,,,,,,,,,,,,,,,,,,,101,159088,18,Female,1,2024/03/19_08:51:30,YZ,None,
,,,,,,calibration,0,26,2,426,5,V,0,right,0.5121019319994957,1,0,,,,,,,,,,,,,,,,,,,,,1,,,,,,,,,,,,,,,,,,,,,,,,,,,,,,,,,,,,,,,,,,,,,,101,159088,18,Female,1,2024/03/19_08:51:30,YZ,None,
,,,,,,calibration,0,26,2,426,6,Q,0,right,0.4088388589952956,1,0,,,,,,,,,,,,,,,,,,,,,1,,,,,,,,,,,,,,,,,,,,,,,,,,,,,,,,,,,,,,,,,,,,,,101,159088,18,Female,1,2024/03/19_08:51:30,YZ,None,
,,,,,,calibration,0,26,2,426,7,V,1,left,0.783722692001902,1,0,,,,,,,,,,,,,,,,,,,,,1,,,,,,,,,,,,,,,,,,,,,,,,,,,,,,,,,,,,,,,,,,,,,,101,159088,18,Female,1,2024/03/19_08:51:30,YZ,None,
,,,,,,calibration,0,26,2,426,8,Q,1,right,0.18373714799963636,0,0,,,,,,,,,,,,,,,,,,,,,1,,,,,,,,,,,,,,,,,,,,,,,,,,,,,,,,,,,,,,,,,,,,,,101,159088,18,Female,1,2024/03/19_08:51:30,YZ,None,
,,,,,,calibration,0,26,2,426,9,J,0,right,0.5297577020028257,1,0,,,,,,,,,,,,,,,,,,,,,1,,,,,,,,,,,,,,,,,,,,,,,,,,,,,,,,,,,,,,,,,,,,,,101,159088,18,Female,1,2024/03/19_08:51:30,YZ,None,
,,,,,,calibration,0,26,2,426,10,S,0,right,0.6705430319998413,1,0,,,,,,,,,,,,,,,,,,,,,1,,,,,,,,,,,,,,,,,,,,,,,,,,,,,,,,,,,,,,,,,,,,,,101,159088,18,Female,1,2024/03/19_08:51:30,YZ,None,
,,,,,,calibration,0,26,2,426,11,J,1,left,0.5505541849997826,1,0,,,,,,,,,,,,,,,,,,,,,1,,,,,,,,,,,,,,,,,,,,,,,,,,,,,,,,,,,,,,,,,,,,,,101,159088,18,Female,1,2024/03/19_08:51:30,YZ,None,
,,,,,,calibration,0,26,2,426,12,V,0,right,0.33351723599480465,1,0,,,,,,,,,,,,,,,,,,,,,1,,,,,,,,,,,,,,,,,,,,,,,,,,,,,,,,,,,,,,,,,,,,,,101,159088,18,Female,1,2024/03/19_08:51:30,YZ,None,
,,,,,,calibration,0,26,2,426,13,X,0,right,0.4172431850020075,1,0,,,,,,,,,,,,,,,,,,,,,1,,,,,,,,,,,,,,,,,,,,,,,,,,,,,,,,,,,,,,,,,,,,,,101,159088,18,Female,1,2024/03/19_08:51:30,YZ,None,
,,,,,,calibration,0,26,2,426,14,V,1,left,0.441212348996487,1,0,,,,,,,,,,,,,,,,,,,,,1,,,,,,,,,,,,,,,,,,,,,,,,,,,,,,,,,,,,,,,,,,,,,,101,159088,18,Female,1,2024/03/19_08:51:30,YZ,None,
,,,,,,calibration,0,26,2,426,15,F,0,right,0.566130973995314,1,0,,,,,,,,,,,,,,,,,,,,,1,,,,,,,,,,,,,,,,,,,,,,,,,,,,,,,,,,,,,,,,,,,,,,101,159088,18,Female,1,2024/03/19_08:51:30,YZ,None,
,,,,,,calibration,0,26,2,426,16,S,0,right,0.6179189079994103,1,0,,,,,,,,,,,,,,,,,,,,,1,,,,,,,,,,,,,,,,,,,,,,,,,,,,,,,,,,,,,,,,,,,,,,101,159088,18,Female,1,2024/03/19_08:51:30,YZ,None,
,,,,,,calibration,0,26,2,426,17,J,0,left,0.6425113079967559,0,0,,,,,,,,,,,,,,,,,,,,,1,,,,,,,,,,,,,,,,,,,,,,,,,,,,,,,,,,,,,,,,,,,,,,101,159088,18,Female,1,2024/03/19_08:51:30,YZ,None,
,,,,,,calibration,0,26,2,426,,,,,,,,0.9125000000000001,0.8,0.08333333333333333,0.9166666666666666,0.0,0.9166666666666666,0.4772527481755413,4,1,0,0,0,11,15,5,12,0,,,,1,,,,,,,,,,,,,,,,,,,,,,,,,,,,,,,,,,,,,,,,,,,,,,101,159088,18,Female,1,2024/03/19_08:51:30,YZ,None,
,,,,,,Calibration,0,,2,426,,,,,,,,,,,,,,,,,,,,,,,,,10,,,1,,,,,,,,,,,,,,,,,,,,,,,,,,,,,,,,,,,,,,,,,,,,,,101,159088,18,Female,1,2024/03/19_08:51:30,YZ,None,
,,,,,,calibration,0,24,2,361,1,J,0,right,0.3246586860041134,1,0,,,,,,,,,,,,,,,,,,,,,1,,,,,,,,,,,,,,,,,,,,,,,,,,,,,,,,,,,,,,,,,,,,,,101,159088,18,Female,1,2024/03/19_08:51:30,YZ,None,
,,,,,,calibration,0,24,2,361,2,S,0,right,0.3053205940013868,1,0,,,,,,,,,,,,,,,,,,,,,1,,,,,,,,,,,,,,,,,,,,,,,,,,,,,,,,,,,,,,,,,,,,,,101,159088,18,Female,1,2024/03/19_08:51:30,YZ,None,
,,,,,,calibration,0,24,2,361,3,N,0,right,0.3762992639967706,1,0,,,,,,,,,,,,,,,,,,,,,1,,,,,,,,,,,,,,,,,,,,,,,,,,,,,,,,,,,,,,,,,,,,,,101,159088,18,Female,1,2024/03/19_08:51:30,YZ,None,
,,,,,,calibration,0,24,2,361,4,V,0,right,0.42384278199460823,1,0,,,,,,,,,,,,,,,,,,,,,1,,,,,,,,,,,,,,,,,,,,,,,,,,,,,,,,,,,,,,,,,,,,,,101,159088,18,Female,1,2024/03/19_08:51:30,YZ,None,
,,,,,,calibration,0,24,2,361,5,Q,0,right,0.8155695440000272,1,0,,,,,,,,,,,,,,,,,,,,,1,,,,,,,,,,,,,,,,,,,,,,,,,,,,,,,,,,,,,,,,,,,,,,101,159088,18,Female,1,2024/03/19_08:51:30,YZ,None,
,,,,,,calibration,0,24,2,361,6,X,0,right,0.42461172599723795,1,0,,,,,,,,,,,,,,,,,,,,,1,,,,,,,,,,,,,,,,,,,,,,,,,,,,,,,,,,,,,,,,,,,,,,101,159088,18,Female,1,2024/03/19_08:51:30,YZ,None,
,,,,,,calibration,0,24,2,361,7,Q,1,right,0.8151664639954106,0,0,,,,,,,,,,,,,,,,,,,,,1,,,,,,,,,,,,,,,,,,,,,,,,,,,,,,,,,,,,,,,,,,,,,,101,159088,18,Female,1,2024/03/19_08:51:30,YZ,None,
,,,,,,calibration,0,24,2,361,8,X,1,right,0.6144143510027789,0,0,,,,,,,,,,,,,,,,,,,,,1,,,,,,,,,,,,,,,,,,,,,,,,,,,,,,,,,,,,,,,,,,,,,,101,159088,18,Female,1,2024/03/19_08:51:30,YZ,None,
,,,,,,calibration,0,24,2,361,9,J,0,left,0.6480079270040733,0,0,,,,,,,,,,,,,,,,,,,,,1,,,,,,,,,,,,,,,,,,,,,,,,,,,,,,,,,,,,,,,,,,,,,,101,159088,18,Female,1,2024/03/19_08:51:30,YZ,None,
,,,,,,calibration,0,24,2,361,10,X,1,right,0.17954180300148437,0,0,,,,,,,,,,,,,,,,,,,,,1,,,,,,,,,,,,,,,,,,,,,,,,,,,,,,,,,,,,,,,,,,,,,,101,159088,18,Female,1,2024/03/19_08:51:30,YZ,None,
,,,,,,calibration,0,24,2,361,11,J,1,left,0.7628058469999814,1,0,,,,,,,,,,,,,,,,,,,,,1,,,,,,,,,,,,,,,,,,,,,,,,,,,,,,,,,,,,,,,,,,,,,,101,159088,18,Female,1,2024/03/19_08:51:30,YZ,None,
,,,,,,calibration,0,24,2,361,12,N,0,right,0.434315571001207,1,0,,,,,,,,,,,,,,,,,,,,,1,,,,,,,,,,,,,,,,,,,,,,,,,,,,,,,,,,,,,,,,,,,,,,101,159088,18,Female,1,2024/03/19_08:51:30,YZ,None,
,,,,,,calibration,0,24,2,361,13,J,1,right,0.6797340249977424,0,0,,,,,,,,,,,,,,,,,,,,,1,,,,,,,,,,,,,,,,,,,,,,,,,,,,,,,,,,,,,,,,,,,,,,101,159088,18,Female,1,2024/03/19_08:51:30,YZ,None,
,,,,,,calibration,0,24,2,361,14,S,0,right,0.7305525920019136,1,0,,,,,,,,,,,,,,,,,,,,,1,,,,,,,,,,,,,,,,,,,,,,,,,,,,,,,,,,,,,,,,,,,,,,101,159088,18,Female,1,2024/03/19_08:51:30,YZ,None,
,,,,,,calibration,0,24,2,361,15,Q,0,right,0.5245247069979087,1,0,,,,,,,,,,,,,,,,,,,,,1,,,,,,,,,,,,,,,,,,,,,,,,,,,,,,,,,,,,,,,,,,,,,,101,159088,18,Female,1,2024/03/19_08:51:30,YZ,None,
,,,,,,calibration,0,24,2,361,16,V,0,right,0.5400872750033159,1,0,,,,,,,,,,,,,,,,,,,,,1,,,,,,,,,,,,,,,,,,,,,,,,,,,,,,,,,,,,,,,,,,,,,,101,159088,18,Female,1,2024/03/19_08:51:30,YZ,None,
,,,,,,calibration,0,24,2,361,17,Q,1,right,0.49255974600237096,0,0,,,,,,,,,,,,,,,,,,,,,1,,,,,,,,,,,,,,,,,,,,,,,,,,,,,,,,,,,,,,,,,,,,,,101,159088,18,Female,1,2024/03/19_08:51:30,YZ,None,
,,,,,,calibration,0,24,2,361,18,C,0,right,0.8724737459997414,1,0,,,,,,,,,,,,,,,,,,,,,1,,,,,,,,,,,,,,,,,,,,,,,,,,,,,,,,,,,,,,,,,,,,,,101,159088,18,Female,1,2024/03/19_08:51:30,YZ,None,
,,,,,,calibration,0,24,2,361,,,,,,,,0.6458333333333334,0.16666666666666666,0.08333333333333333,0.9166666666666666,0.0,0.9166666666666666,0.5535825916667818,1,1,0,0,0,11,12,6,12,0,,,,1,,,,,,,,,,,,,,,,,,,,,,,,,,,,,,,,,,,,,,,,,,,,,,101,159088,18,Female,1,2024/03/19_08:51:30,YZ,None,
,,,,,,Calibration,0,,2,361,,,,,,,,,,,,,,,,,,,,,,,,,11,,,1,,,,,,,,,,,,,,,,,,,,,,,,,,,,,,,,,,,,,,,,,,,,,,101,159088,18,Female,1,2024/03/19_08:51:30,YZ,None,
,,,,,,calibration,0,20,2,426,1,C,0,right,0.30458066199935274,1,0,,,,,,,,,,,,,,,,,,,,,1,,,,,,,,,,,,,,,,,,,,,,,,,,,,,,,,,,,,,,,,,,,,,,101,159088,18,Female,1,2024/03/19_08:51:30,YZ,None,
,,,,,,calibration,0,20,2,426,2,X,0,right,0.5610303720022785,1,0,,,,,,,,,,,,,,,,,,,,,1,,,,,,,,,,,,,,,,,,,,,,,,,,,,,,,,,,,,,,,,,,,,,,101,159088,18,Female,1,2024/03/19_08:51:30,YZ,None,
,,,,,,calibration,0,20,2,426,3,V,0,right,0.41414727599476464,1,0,,,,,,,,,,,,,,,,,,,,,1,,,,,,,,,,,,,,,,,,,,,,,,,,,,,,,,,,,,,,,,,,,,,,101,159088,18,Female,1,2024/03/19_08:51:30,YZ,None,
,,,,,,calibration,0,20,2,426,4,X,1,left,0.5172710760016344,1,0,,,,,,,,,,,,,,,,,,,,,1,,,,,,,,,,,,,,,,,,,,,,,,,,,,,,,,,,,,,,,,,,,,,,101,159088,18,Female,1,2024/03/19_08:51:30,YZ,None,
,,,,,,calibration,0,20,2,426,5,F,0,right,0.5123440179959289,1,0,,,,,,,,,,,,,,,,,,,,,1,,,,,,,,,,,,,,,,,,,,,,,,,,,,,,,,,,,,,,,,,,,,,,101,159088,18,Female,1,2024/03/19_08:51:30,YZ,None,
,,,,,,calibration,0,20,2,426,6,X,1,left,0.5578400399972452,1,0,,,,,,,,,,,,,,,,,,,,,1,,,,,,,,,,,,,,,,,,,,,,,,,,,,,,,,,,,,,,,,,,,,,,101,159088,18,Female,1,2024/03/19_08:51:30,YZ,None,
,,,,,,calibration,0,20,2,426,7,J,0,right,0.33922821700252825,1,0,,,,,,,,,,,,,,,,,,,,,1,,,,,,,,,,,,,,,,,,,,,,,,,,,,,,,,,,,,,,,,,,,,,,101,159088,18,Female,1,2024/03/19_08:51:30,YZ,None,
,,,,,,calibration,0,20,2,426,8,X,1,right,0.5752393049988314,0,0,,,,,,,,,,,,,,,,,,,,,1,,,,,,,,,,,,,,,,,,,,,,,,,,,,,,,,,,,,,,,,,,,,,,101,159088,18,Female,1,2024/03/19_08:51:30,YZ,None,
,,,,,,calibration,0,20,2,426,9,F,0,right,nan,0,1,,,,,,,,,,,,,,,,,,,,,1,,,,,,,,,,,,,,,,,,,,,,,,,,,,,,,,,,,,,,,,,,,,,,101,159088,18,Female,1,2024/03/19_08:51:30,YZ,None,
,,,,,,calibration,0,20,2,426,10,J,0,right,0.0,1,0,,,,,,,,,,,,,,,,,,,,,1,,,,,,,,,,,,,,,,,,,,,,,,,,,,,,,,,,,,,,,,,,,,,,101,159088,18,Female,1,2024/03/19_08:51:30,YZ,None,
,,,,,,calibration,0,20,2,426,11,Q,0,right,nan,0,1,,,,,,,,,,,,,,,,,,,,,1,,,,,,,,,,,,,,,,,,,,,,,,,,,,,,,,,,,,,,,,,,,,,,101,159088,18,Female,1,2024/03/19_08:51:30,YZ,None,
,,,,,,calibration,0,20,2,426,12,X,0,right,0.12368742000398925,1,0,,,,,,,,,,,,,,,,,,,,,1,,,,,,,,,,,,,,,,,,,,,,,,,,,,,,,,,,,,,,,,,,,,,,101,159088,18,Female,1,2024/03/19_08:51:30,YZ,None,
,,,,,,calibration,0,20,2,426,13,Q,1,right,nan,0,1,,,,,,,,,,,,,,,,,,,,,1,,,,,,,,,,,,,,,,,,,,,,,,,,,,,,,,,,,,,,,,,,,,,,101,159088,18,Female,1,2024/03/19_08:51:30,YZ,None,
,,,,,,calibration,0,20,2,426,14,X,1,right,0.2614398209989304,0,0,,,,,,,,,,,,,,,,,,,,,1,,,,,,,,,,,,,,,,,,,,,,,,,,,,,,,,,,,,,,,,,,,,,,101,159088,18,Female,1,2024/03/19_08:51:30,YZ,None,
,,,,,,calibration,0,20,2,426,15,F,0,right,0.5908637320026173,1,0,,,,,,,,,,,,,,,,,,,,,1,,,,,,,,,,,,,,,,,,,,,,,,,,,,,,,,,,,,,,,,,,,,,,101,159088,18,Female,1,2024/03/19_08:51:30,YZ,None,
,,,,,,calibration,0,20,2,426,16,Q,0,right,0.5451622379987384,1,0,,,,,,,,,,,,,,,,,,,,,1,,,,,,,,,,,,,,,,,,,,,,,,,,,,,,,,,,,,,,,,,,,,,,101,159088,18,Female,1,2024/03/19_08:51:30,YZ,None,
,,,,,,calibration,0,20,2,426,17,N,0,right,0.692844466000679,1,0,,,,,,,,,,,,,,,,,,,,,1,,,,,,,,,,,,,,,,,,,,,,,,,,,,,,,,,,,,,,,,,,,,,,101,159088,18,Female,1,2024/03/19_08:51:30,YZ,None,
,,,,,,calibration,0,20,2,426,,,,,,,,0.85,0.4,0.0,1.0,0.17647058823529413,0.8235294117647058,0.4282627602141084,2,0,1,2,3,10,12,5,12,0,,,,1,,,,,,,,,,,,,,,,,,,,,,,,,,,,,,,,,,,,,,,,,,,,,,101,159088,18,Female,1,2024/03/19_08:51:30,YZ,None,
,,,,,,Calibration,0,,2,426,,,,,,,,,,,,,,,,,,,,,,,,,12,,,1,,,,,,,,,,,,,,,,,,,,,,,,,,,,,,,,,,,,,,,,,,,,,,101,159088,18,Female,1,2024/03/19_08:51:30,YZ,None,
,,,,,,calibration,0,4,2,426,1,N,0,right,0.48420907499530585,1,0,,,,,,,,,,,,,,,,,,,,,1,,,,,,,,,,,,,,,,,,,,,,,,,,,,,,,,,,,,,,,,,,,,,,101,159088,18,Female,1,2024/03/19_08:51:30,YZ,None,
,,,,,,calibration,0,4,2,426,2,C,0,right,0.5304098109991173,1,0,,,,,,,,,,,,,,,,,,,,,1,,,,,,,,,,,,,,,,,,,,,,,,,,,,,,,,,,,,,,,,,,,,,,101,159088,18,Female,1,2024/03/19_08:51:30,YZ,None,
,,,,,,calibration,0,4,2,426,3,X,0,right,0.5197361850005109,1,0,,,,,,,,,,,,,,,,,,,,,1,,,,,,,,,,,,,,,,,,,,,,,,,,,,,,,,,,,,,,,,,,,,,,101,159088,18,Female,1,2024/03/19_08:51:30,YZ,None,
,,,,,,calibration,0,4,2,426,4,Q,0,right,0.48401666700374335,1,0,,,,,,,,,,,,,,,,,,,,,1,,,,,,,,,,,,,,,,,,,,,,,,,,,,,,,,,,,,,,,,,,,,,,101,159088,18,Female,1,2024/03/19_08:51:30,YZ,None,
,,,,,,calibration,0,4,2,426,5,F,0,right,0.48847009200108005,1,0,,,,,,,,,,,,,,,,,,,,,1,,,,,,,,,,,,,,,,,,,,,,,,,,,,,,,,,,,,,,,,,,,,,,101,159088,18,Female,1,2024/03/19_08:51:30,YZ,None,
,,,,,,calibration,0,4,2,426,6,S,0,right,0.6329489839990856,1,0,,,,,,,,,,,,,,,,,,,,,1,,,,,,,,,,,,,,,,,,,,,,,,,,,,,,,,,,,,,,,,,,,,,,101,159088,18,Female,1,2024/03/19_08:51:30,YZ,None,
,,,,,,calibration,0,4,2,426,7,F,1,left,0.5706410349957878,1,0,,,,,,,,,,,,,,,,,,,,,1,,,,,,,,,,,,,,,,,,,,,,,,,,,,,,,,,,,,,,,,,,,,,,101,159088,18,Female,1,2024/03/19_08:51:30,YZ,None,
,,,,,,calibration,0,4,2,426,8,S,1,right,0.47774520399980247,0,0,,,,,,,,,,,,,,,,,,,,,1,,,,,,,,,,,,,,,,,,,,,,,,,,,,,,,,,,,,,,,,,,,,,,101,159088,18,Female,1,2024/03/19_08:51:30,YZ,None,
,,,,,,calibration,0,4,2,426,9,Q,0,right,0.5516383130016038,1,0,,,,,,,,,,,,,,,,,,,,,1,,,,,,,,,,,,,,,,,,,,,,,,,,,,,,,,,,,,,,,,,,,,,,101,159088,18,Female,1,2024/03/19_08:51:30,YZ,None,
,,,,,,calibration,0,4,2,426,10,S,1,left,0.7145434400008526,1,0,,,,,,,,,,,,,,,,,,,,,1,,,,,,,,,,,,,,,,,,,,,,,,,,,,,,,,,,,,,,,,,,,,,,101,159088,18,Female,1,2024/03/19_08:51:30,YZ,None,
,,,,,,calibration,0,4,2,426,11,F,0,right,0.4213601640003617,1,0,,,,,,,,,,,,,,,,,,,,,1,,,,,,,,,,,,,,,,,,,,,,,,,,,,,,,,,,,,,,,,,,,,,,101,159088,18,Female,1,2024/03/19_08:51:30,YZ,None,
,,,,,,calibration,0,4,2,426,12,Q,0,right,0.5261182140020537,1,0,,,,,,,,,,,,,,,,,,,,,1,,,,,,,,,,,,,,,,,,,,,,,,,,,,,,,,,,,,,,,,,,,,,,101,159088,18,Female,1,2024/03/19_08:51:30,YZ,None,
,,,,,,calibration,0,4,2,426,13,F,1,left,0.5378995200007921,1,0,,,,,,,,,,,,,,,,,,,,,1,,,,,,,,,,,,,,,,,,,,,,,,,,,,,,,,,,,,,,,,,,,,,,101,159088,18,Female,1,2024/03/19_08:51:30,YZ,None,
,,,,,,calibration,0,4,2,426,14,C,0,right,0.5251326310026343,1,0,,,,,,,,,,,,,,,,,,,,,1,,,,,,,,,,,,,,,,,,,,,,,,,,,,,,,,,,,,,,,,,,,,,,101,159088,18,Female,1,2024/03/19_08:51:30,YZ,None,
,,,,,,calibration,0,4,2,426,15,Q,0,left,0.8247632069978863,0,0,,,,,,,,,,,,,,,,,,,,,1,,,,,,,,,,,,,,,,,,,,,,,,,,,,,,,,,,,,,,,,,,,,,,101,159088,18,Female,1,2024/03/19_08:51:30,YZ,None,
,,,,,,calibration,0,4,2,426,16,C,1,right,0.34449736199894687,0,0,,,,,,,,,,,,,,,,,,,,,1,,,,,,,,,,,,,,,,,,,,,,,,,,,,,,,,,,,,,,,,,,,,,,101,159088,18,Female,1,2024/03/19_08:51:30,YZ,None,
,,,,,,calibration,0,4,2,426,17,V,0,right,0.5651310550019844,1,0,,,,,,,,,,,,,,,,,,,,,1,,,,,,,,,,,,,,,,,,,,,,,,,,,,,,,,,,,,,,,,,,,,,,101,159088,18,Female,1,2024/03/19_08:51:30,YZ,None,
,,,,,,calibration,0,4,2,426,,,,,,,,0.8458333333333333,0.6,0.08333333333333333,0.9166666666666666,0.0,0.9166666666666666,0.5411329975883264,3,1,0,0,0,11,14,5,12,0,,,,1,,,,,,,,,,,,,,,,,,,,,,,,,,,,,,,,,,,,,,,,,,,,,,101,159088,18,Female,1,2024/03/19_08:51:30,YZ,None,
,,,,,,Calibration,0,,2,426,,,,,,,,,,,,,,,,,,,,,,,,,13,,,1,,,,,,,,,,,,,,,,,,,,,,,,,,,,,,,,,,,,,,,,,,,,,,101,159088,18,Female,1,2024/03/19_08:51:30,YZ,None,
,,,,,,calibration,0,4,2,426,1,N,0,right,0.44103578299836954,1,0,,,,,,,,,,,,,,,,,,,,,1,,,,,,,,,,,,,,,,,,,,,,,,,,,,,,,,,,,,,,,,,,,,,,101,159088,18,Female,1,2024/03/19_08:51:30,YZ,None,
,,,,,,calibration,0,4,2,426,2,C,0,right,0.5129324080044171,1,0,,,,,,,,,,,,,,,,,,,,,1,,,,,,,,,,,,,,,,,,,,,,,,,,,,,,,,,,,,,,,,,,,,,,101,159088,18,Female,1,2024/03/19_08:51:30,YZ,None,
,,,,,,calibration,0,4,2,426,3,X,0,right,0.5807615570010967,1,0,,,,,,,,,,,,,,,,,,,,,1,,,,,,,,,,,,,,,,,,,,,,,,,,,,,,,,,,,,,,,,,,,,,,101,159088,18,Female,1,2024/03/19_08:51:30,YZ,None,
,,,,,,calibration,0,4,2,426,4,Q,0,right,0.5914108819997637,1,0,,,,,,,,,,,,,,,,,,,,,1,,,,,,,,,,,,,,,,,,,,,,,,,,,,,,,,,,,,,,,,,,,,,,101,159088,18,Female,1,2024/03/19_08:51:30,YZ,None,
,,,,,,calibration,0,4,2,426,5,F,0,right,0.669579445006093,1,0,,,,,,,,,,,,,,,,,,,,,1,,,,,,,,,,,,,,,,,,,,,,,,,,,,,,,,,,,,,,,,,,,,,,101,159088,18,Female,1,2024/03/19_08:51:30,YZ,None,
,,,,,,calibration,0,4,2,426,6,S,0,right,0.5881336349993944,1,0,,,,,,,,,,,,,,,,,,,,,1,,,,,,,,,,,,,,,,,,,,,,,,,,,,,,,,,,,,,,,,,,,,,,101,159088,18,Female,1,2024/03/19_08:51:30,YZ,None,
,,,,,,calibration,0,4,2,426,7,F,1,left,0.48123642000427935,1,0,,,,,,,,,,,,,,,,,,,,,1,,,,,,,,,,,,,,,,,,,,,,,,,,,,,,,,,,,,,,,,,,,,,,101,159088,18,Female,1,2024/03/19_08:51:30,YZ,None,
,,,,,,calibration,0,4,2,426,8,S,1,right,0.6213374579965603,0,0,,,,,,,,,,,,,,,,,,,,,1,,,,,,,,,,,,,,,,,,,,,,,,,,,,,,,,,,,,,,,,,,,,,,101,159088,18,Female,1,2024/03/19_08:51:30,YZ,None,
,,,,,,calibration,0,4,2,426,9,Q,0,right,0.865106351004215,1,0,,,,,,,,,,,,,,,,,,,,,1,,,,,,,,,,,,,,,,,,,,,,,,,,,,,,,,,,,,,,,,,,,,,,101,159088,18,Female,1,2024/03/19_08:51:30,YZ,None,
,,,,,,calibration,0,4,2,426,10,S,1,right,0.8642842519984697,0,0,,,,,,,,,,,,,,,,,,,,,1,,,,,,,,,,,,,,,,,,,,,,,,,,,,,,,,,,,,,,,,,,,,,,101,159088,18,Female,1,2024/03/19_08:51:30,YZ,None,
,,,,,,calibration,0,4,2,426,11,F,0,right,0.5989437099997303,1,0,,,,,,,,,,,,,,,,,,,,,1,,,,,,,,,,,,,,,,,,,,,,,,,,,,,,,,,,,,,,,,,,,,,,101,159088,18,Female,1,2024/03/19_08:51:30,YZ,None,
,,,,,,calibration,0,4,2,426,12,Q,0,right,0.7149294129994814,1,0,,,,,,,,,,,,,,,,,,,,,1,,,,,,,,,,,,,,,,,,,,,,,,,,,,,,,,,,,,,,,,,,,,,,101,159088,18,Female,1,2024/03/19_08:51:30,YZ,None,
,,,,,,calibration,0,4,2,426,13,F,1,right,0.5240971250022994,0,0,,,,,,,,,,,,,,,,,,,,,1,,,,,,,,,,,,,,,,,,,,,,,,,,,,,,,,,,,,,,,,,,,,,,101,159088,18,Female,1,2024/03/19_08:51:30,YZ,None,
,,,,,,calibration,0,4,2,426,14,C,0,right,0.8127365030013607,1,0,,,,,,,,,,,,,,,,,,,,,1,,,,,,,,,,,,,,,,,,,,,,,,,,,,,,,,,,,,,,,,,,,,,,101,159088,18,Female,1,2024/03/19_08:51:30,YZ,None,
,,,,,,calibration,0,4,2,426,15,Q,0,right,0.7259125399941695,1,0,,,,,,,,,,,,,,,,,,,,,1,,,,,,,,,,,,,,,,,,,,,,,,,,,,,,,,,,,,,,,,,,,,,,101,159088,18,Female,1,2024/03/19_08:51:30,YZ,None,
,,,,,,calibration,0,4,2,426,16,C,1,left,0.46911652499693446,1,0,,,,,,,,,,,,,,,,,,,,,1,,,,,,,,,,,,,,,,,,,,,,,,,,,,,,,,,,,,,,,,,,,,,,101,159088,18,Female,1,2024/03/19_08:51:30,YZ,None,
,,,,,,calibration,0,4,2,426,17,V,0,right,0.41815535200294107,1,0,,,,,,,,,,,,,,,,,,,,,1,,,,,,,,,,,,,,,,,,,,,,,,,,,,,,,,,,,,,,,,,,,,,,101,159088,18,Female,1,2024/03/19_08:51:30,YZ,None,
,,,,,,calibration,0,4,2,426,,,,,,,,0.85,0.4,0.0,1.0,0.0,1.0,0.6164534917064456,2,0,0,0,0,12,14,5,12,0,,,,1,,,,,,,,,,,,,,,,,,,,,,,,,,,,,,,,,,,,,,,,,,,,,,101,159088,18,Female,1,2024/03/19_08:51:30,YZ,None,
,,,,,,Calibration,0,,2,426,,,,,,,,,,,,,,,,,,,,,,,,,14,,,1,,,,,,,,,,,,,,,,,,,,,,,,,,,,,,,,,,,,,,,,,,,,,,101,159088,18,Female,1,2024/03/19_08:51:30,YZ,None,
,,,,,,calibration,0,31,2,426,1,V,0,right,0.5551283130043885,1,0,,,,,,,,,,,,,,,,,,,,,1,,,,,,,,,,,,,,,,,,,,,,,,,,,,,,,,,,,,,,,,,,,,,,101,159088,18,Female,1,2024/03/19_08:51:30,YZ,None,
,,,,,,calibration,0,31,2,426,2,J,0,right,0.3477172450002399,1,0,,,,,,,,,,,,,,,,,,,,,1,,,,,,,,,,,,,,,,,,,,,,,,,,,,,,,,,,,,,,,,,,,,,,101,159088,18,Female,1,2024/03/19_08:51:30,YZ,None,
,,,,,,calibration,0,31,2,426,3,V,1,left,0.7428689770022174,1,0,,,,,,,,,,,,,,,,,,,,,1,,,,,,,,,,,,,,,,,,,,,,,,,,,,,,,,,,,,,,,,,,,,,,101,159088,18,Female,1,2024/03/19_08:51:30,YZ,None,
,,,,,,calibration,0,31,2,426,4,J,1,right,0.5694868909995421,0,0,,,,,,,,,,,,,,,,,,,,,1,,,,,,,,,,,,,,,,,,,,,,,,,,,,,,,,,,,,,,,,,,,,,,101,159088,18,Female,1,2024/03/19_08:51:30,YZ,None,
,,,,,,calibration,0,31,2,426,5,C,0,right,0.6226315710009658,1,0,,,,,,,,,,,,,,,,,,,,,1,,,,,,,,,,,,,,,,,,,,,,,,,,,,,,,,,,,,,,,,,,,,,,101,159088,18,Female,1,2024/03/19_08:51:30,YZ,None,
,,,,,,calibration,0,31,2,426,6,S,0,right,0.7507417460001307,1,0,,,,,,,,,,,,,,,,,,,,,1,,,,,,,,,,,,,,,,,,,,,,,,,,,,,,,,,,,,,,,,,,,,,,101,159088,18,Female,1,2024/03/19_08:51:30,YZ,None,
,,,,,,calibration,0,31,2,426,7,Q,0,right,0.678852012999414,1,0,,,,,,,,,,,,,,,,,,,,,1,,,,,,,,,,,,,,,,,,,,,,,,,,,,,,,,,,,,,,,,,,,,,,101,159088,18,Female,1,2024/03/19_08:51:30,YZ,None,
,,,,,,calibration,0,31,2,426,8,F,0,right,0.8241074530014885,1,0,,,,,,,,,,,,,,,,,,,,,1,,,,,,,,,,,,,,,,,,,,,,,,,,,,,,,,,,,,,,,,,,,,,,101,159088,18,Female,1,2024/03/19_08:51:30,YZ,None,
,,,,,,calibration,0,31,2,426,9,Q,1,left,0.5125796209977125,1,0,,,,,,,,,,,,,,,,,,,,,1,,,,,,,,,,,,,,,,,,,,,,,,,,,,,,,,,,,,,,,,,,,,,,101,159088,18,Female,1,2024/03/19_08:51:30,YZ,None,
,,,,,,calibration,0,31,2,426,10,V,0,right,0.4861071549967164,1,0,,,,,,,,,,,,,,,,,,,,,1,,,,,,,,,,,,,,,,,,,,,,,,,,,,,,,,,,,,,,,,,,,,,,101,159088,18,Female,1,2024/03/19_08:51:30,YZ,None,
,,,,,,calibration,0,31,2,426,11,C,0,right,0.7945960990036838,1,0,,,,,,,,,,,,,,,,,,,,,1,,,,,,,,,,,,,,,,,,,,,,,,,,,,,,,,,,,,,,,,,,,,,,101,159088,18,Female,1,2024/03/19_08:51:30,YZ,None,
,,,,,,calibration,0,31,2,426,12,S,0,right,0.6048941600020044,1,0,,,,,,,,,,,,,,,,,,,,,1,,,,,,,,,,,,,,,,,,,,,,,,,,,,,,,,,,,,,,,,,,,,,,101,159088,18,Female,1,2024/03/19_08:51:30,YZ,None,
,,,,,,calibration,0,31,2,426,13,J,0,right,0.7633181450000848,1,0,,,,,,,,,,,,,,,,,,,,,1,,,,,,,,,,,,,,,,,,,,,,,,,,,,,,,,,,,,,,,,,,,,,,101,159088,18,Female,1,2024/03/19_08:51:30,YZ,None,
,,,,,,calibration,0,31,2,426,14,S,1,right,0.5241893290003645,0,0,,,,,,,,,,,,,,,,,,,,,1,,,,,,,,,,,,,,,,,,,,,,,,,,,,,,,,,,,,,,,,,,,,,,101,159088,18,Female,1,2024/03/19_08:51:30,YZ,None,
,,,,,,calibration,0,31,2,426,15,X,0,right,0.4947746739999275,1,0,,,,,,,,,,,,,,,,,,,,,1,,,,,,,,,,,,,,,,,,,,,,,,,,,,,,,,,,,,,,,,,,,,,,101,159088,18,Female,1,2024/03/19_08:51:30,YZ,None,
,,,,,,calibration,0,31,2,426,16,V,0,right,0.7188278379981057,1,0,,,,,,,,,,,,,,,,,,,,,1,,,,,,,,,,,,,,,,,,,,,,,,,,,,,,,,,,,,,,,,,,,,,,101,159088,18,Female,1,2024/03/19_08:51:30,YZ,None,
,,,,,,calibration,0,31,2,426,17,X,1,right,0.5245616570027778,0,0,,,,,,,,,,,,,,,,,,,,,1,,,,,,,,,,,,,,,,,,,,,,,,,,,,,,,,,,,,,,,,,,,,,,101,159088,18,Female,1,2024/03/19_08:51:30,YZ,None,
,,,,,,calibration,0,31,2,426,,,,,,,,0.85,0.4,0.0,1.0,0.0,1.0,0.6185519345299861,2,0,0,0,0,12,14,5,12,0,,,,1,,,,,,,,,,,,,,,,,,,,,,,,,,,,,,,,,,,,,,,,,,,,,,101,159088,18,Female,1,2024/03/19_08:51:30,YZ,None,
,,,,,,Calibration,0,,2,426,,,,,,,,,,,,,,,,,,,,,,,,,15,,,1,,,,,,,,,,,,,,,,,,,,,,,,,,,,,,,,,,,,,,,,,,,,,,101,159088,18,Female,1,2024/03/19_08:51:30,YZ,None,
,,,,,,CALIBRATION,0,,,,,,,,,,,,,,,,,,,,,,,,,,,,15,0.85,426,1,,,,,,,,,,,,,,,,,,,,,,,,,,,,,,,,,,,,,,,,,,,,,,101,159088,18,Female,1,2024/03/19_08:51:30,YZ,None,
1,./instructions/inst_prac_1/Slide24.png,right,11.616236290996312,486.1359261470061,497.7521624380024,,,,,,,,,,,,,,,,,,,,,,,,,,,,,,,,,1,,,,,,,,,,,,,,,,,,,,,,,,,,,,,,,,,,,,,,,,,,,,,,101,159088,18,Female,1,2024/03/19_08:51:30,YZ,None,
2,./instructions/inst_prac_1/Slide25.png,right,2.9489759460047935,497.7790725779996,500.7280485240044,,,,,,,,,,,,,,,,,,,,,,,,,,,,,,,,,1,,,,,,,,,,,,,,,,,,,,,,,,,,,,,,,,,,,,,,,,,,,,,,101,159088,18,Female,1,2024/03/19_08:51:30,YZ,None,
3,./instructions/inst_prac_1/Slide26.png,right,1.8185283950006124,500.75729037500423,502.57581877000484,,,,,,,,,,,,,,,,,,,,,,,,,,,,,,,,,1,,,,,,,,,,,,,,,,,,,,,,,,,,,,,,,,,,,,,,,,,,,,,,101,159088,18,Female,1,2024/03/19_08:51:30,YZ,None,
4,./instructions/inst_prac_1/Slide27.png,right,1.2987094620038988,502.6051170409992,503.9038265030031,,,,,,,,,,,,,,,,,,,,,,,,,,,,,,,,,1,,,,,,,,,,,,,,,,,,,,,,,,,,,,,,,,,,,,,,,,,,,,,,101,159088,18,Female,1,2024/03/19_08:51:30,YZ,None,
5,./instructions/inst_prac_1/Slide28.png,right,1.4039612119959202,503.93202507900423,505.33598629100015,,,,,,,,,,,,,,,,,,,,,,,,,,,,,,,,,1,,,,,,,,,,,,,,,,,,,,,,,,,,,,,,,,,,,,,,,,,,,,,,101,159088,18,Female,1,2024/03/19_08:51:30,YZ,None,
6,./instructions/inst_prac_1/Slide29.png,right,5.458464577997802,505.3656818760064,510.8241464540042,,,,,,,,,,,,,,,,,,,,,,,,,,,,,,,,,1,,,,,,,,,,,,,,,,,,,,,,,,,,,,,,,,,,,,,,,,,,,,,,101,159088,18,Female,1,2024/03/19_08:51:30,YZ,None,
7,./instructions/inst_prac_1/Slide30.png,right,2.2023839300018153,510.85351891800383,513.0559028480056,,,,,,,,,,,,,,,,,,,,,,,,,,,,,,,,,1,,,,,,,,,,,,,,,,,,,,,,,,,,,,,,,,,,,,,,,,,,,,,,101,159088,18,Female,1,2024/03/19_08:51:30,YZ,None,
,,,,,,practice,0,27,1,1250,1,S,0,right,1.3724102699998184,1,0,,,,,,,,,,,,,,,,,,,,,1,,,,,,,,,,,,,,,,,,,,,,,,,,,,,,,,,,,,,,,,,,,,,,101,159088,18,Female,1,2024/03/19_08:51:30,YZ,None,
,,,,,,practice,0,27,1,1250,2,S,1,left,0.7512878579946118,1,0,,,,,,,,,,,,,,,,,,,,,1,,,,,,,,,,,,,,,,,,,,,,,,,,,,,,,,,,,,,,,,,,,,,,101,159088,18,Female,1,2024/03/19_08:51:30,YZ,None,
,,,,,,practice,0,27,1,1250,3,Q,0,right,0.5371942269994179,1,0,,,,,,,,,,,,,,,,,,,,,1,,,,,,,,,,,,,,,,,,,,,,,,,,,,,,,,,,,,,,,,,,,,,,101,159088,18,Female,1,2024/03/19_08:51:30,YZ,None,
,,,,,,practice,0,27,1,1250,4,X,0,right,1.0254210529965349,1,0,,,,,,,,,,,,,,,,,,,,,1,,,,,,,,,,,,,,,,,,,,,,,,,,,,,,,,,,,,,,,,,,,,,,101,159088,18,Female,1,2024/03/19_08:51:30,YZ,None,
,,,,,,practice,0,27,1,1250,5,N,0,right,0.5830223180018947,1,0,,,,,,,,,,,,,,,,,,,,,1,,,,,,,,,,,,,,,,,,,,,,,,,,,,,,,,,,,,,,,,,,,,,,101,159088,18,Female,1,2024/03/19_08:51:30,YZ,None,
,,,,,,practice,0,27,1,1250,6,N,1,left,0.6582423410000047,1,0,,,,,,,,,,,,,,,,,,,,,1,,,,,,,,,,,,,,,,,,,,,,,,,,,,,,,,,,,,,,,,,,,,,,101,159088,18,Female,1,2024/03/19_08:51:30,YZ,None,
,,,,,,practice,0,27,1,1250,7,X,0,right,0.7490973580061109,1,0,,,,,,,,,,,,,,,,,,,,,1,,,,,,,,,,,,,,,,,,,,,,,,,,,,,,,,,,,,,,,,,,,,,,101,159088,18,Female,1,2024/03/19_08:51:30,YZ,None,
,,,,,,practice,0,27,1,1250,8,X,1,left,0.7149508859947673,1,0,,,,,,,,,,,,,,,,,,,,,1,,,,,,,,,,,,,,,,,,,,,,,,,,,,,,,,,,,,,,,,,,,,,,101,159088,18,Female,1,2024/03/19_08:51:30,YZ,None,
,,,,,,practice,0,27,1,1250,9,C,0,right,0.8766168970032595,1,0,,,,,,,,,,,,,,,,,,,,,1,,,,,,,,,,,,,,,,,,,,,,,,,,,,,,,,,,,,,,,,,,,,,,101,159088,18,Female,1,2024/03/19_08:51:30,YZ,None,
,,,,,,practice,0,27,1,1250,10,V,0,right,0.5086403430032078,1,0,,,,,,,,,,,,,,,,,,,,,1,,,,,,,,,,,,,,,,,,,,,,,,,,,,,,,,,,,,,,,,,,,,,,101,159088,18,Female,1,2024/03/19_08:51:30,YZ,None,
,,,,,,practice,0,27,1,1250,,,,,,,,1.0,1.0,0.0,1.0,0.0,1.0,0.7776883550999628,3,0,0,0,0,7,10,3,7,0,,,,1,,,,,,,,,,,,,,,,,,,,,,,,,,,,,,,,,,,,,,,,,,,,,,101,159088,18,Female,1,2024/03/19_08:51:30,YZ,None,
1,./instructions/inst_prac_1_next/Slide35.png,right,2.4302736120007467,531.3456310710026,533.7759046830033,,,,,,,,,,,,,,,,,,,,,,,,,,,,,,,,,1,,,,,,,,,,,,,,,,,,,,,,,,,,,,,,,,,,,,,,,,,,,,,,101,159088,18,Female,1,2024/03/19_08:51:30,YZ,None,
,,,,,,practice,0,9,1,426,1,N,0,right,0.7238442750021932,1,0,,,,,,,,,,,,,,,,,,,,,1,,,,,,,,,,,,,,,,,,,,,,,,,,,,,,,,,,,,,,,,,,,,,,101,159088,18,Female,1,2024/03/19_08:51:30,YZ,None,
,,,,,,practice,0,9,1,426,2,N,1,left,0.4771264279988827,1,0,,,,,,,,,,,,,,,,,,,,,1,,,,,,,,,,,,,,,,,,,,,,,,,,,,,,,,,,,,,,,,,,,,,,101,159088,18,Female,1,2024/03/19_08:51:30,YZ,None,
,,,,,,practice,0,9,1,426,3,X,0,right,0.5041794040007517,1,0,,,,,,,,,,,,,,,,,,,,,1,,,,,,,,,,,,,,,,,,,,,,,,,,,,,,,,,,,,,,,,,,,,,,101,159088,18,Female,1,2024/03/19_08:51:30,YZ,None,
,,,,,,practice,0,9,1,426,4,Q,0,right,0.5676867600050173,1,0,,,,,,,,,,,,,,,,,,,,,1,,,,,,,,,,,,,,,,,,,,,,,,,,,,,,,,,,,,,,,,,,,,,,101,159088,18,Female,1,2024/03/19_08:51:30,YZ,None,
,,,,,,practice,0,9,1,426,5,N,0,right,0.6305194500018843,1,0,,,,,,,,,,,,,,,,,,,,,1,,,,,,,,,,,,,,,,,,,,,,,,,,,,,,,,,,,,,,,,,,,,,,101,159088,18,Female,1,2024/03/19_08:51:30,YZ,None,
,,,,,,practice,0,9,1,426,6,Q,0,right,0.825753381002869,1,0,,,,,,,,,,,,,,,,,,,,,1,,,,,,,,,,,,,,,,,,,,,,,,,,,,,,,,,,,,,,,,,,,,,,101,159088,18,Female,1,2024/03/19_08:51:30,YZ,None,
,,,,,,practice,0,9,1,426,7,Q,1,left,0.7647094320054748,1,0,,,,,,,,,,,,,,,,,,,,,1,,,,,,,,,,,,,,,,,,,,,,,,,,,,,,,,,,,,,,,,,,,,,,101,159088,18,Female,1,2024/03/19_08:51:30,YZ,None,
,,,,,,practice,0,9,1,426,8,J,0,right,0.5777466630024719,1,0,,,,,,,,,,,,,,,,,,,,,1,,,,,,,,,,,,,,,,,,,,,,,,,,,,,,,,,,,,,,,,,,,,,,101,159088,18,Female,1,2024/03/19_08:51:30,YZ,None,
,,,,,,practice,0,9,1,426,9,J,1,left,0.5937503289969754,1,0,,,,,,,,,,,,,,,,,,,,,1,,,,,,,,,,,,,,,,,,,,,,,,,,,,,,,,,,,,,,,,,,,,,,101,159088,18,Female,1,2024/03/19_08:51:30,YZ,None,
,,,,,,practice,0,9,1,426,10,F,0,right,0.5166666689983686,1,0,,,,,,,,,,,,,,,,,,,,,1,,,,,,,,,,,,,,,,,,,,,,,,,,,,,,,,,,,,,,,,,,,,,,101,159088,18,Female,1,2024/03/19_08:51:30,YZ,None,
,,,,,,practice,0,9,1,426,11,S,0,right,0.49335155700100586,1,0,,,,,,,,,,,,,,,,,,,,,1,,,,,,,,,,,,,,,,,,,,,,,,,,,,,,,,,,,,,,,,,,,,,,101,159088,18,Female,1,2024/03/19_08:51:30,YZ,None,
,,,,,,practice,0,9,1,426,12,S,1,left,0.6170032579975668,1,0,,,,,,,,,,,,,,,,,,,,,1,,,,,,,,,,,,,,,,,,,,,,,,,,,,,,,,,,,,,,,,,,,,,,101,159088,18,Female,1,2024/03/19_08:51:30,YZ,None,
,,,,,,practice,0,9,1,426,13,Q,0,right,0.4685517309990246,1,0,,,,,,,,,,,,,,,,,,,,,1,,,,,,,,,,,,,,,,,,,,,,,,,,,,,,,,,,,,,,,,,,,,,,101,159088,18,Female,1,2024/03/19_08:51:30,YZ,None,
,,,,,,practice,0,9,1,426,14,Q,1,left,0.5616705420034123,1,0,,,,,,,,,,,,,,,,,,,,,1,,,,,,,,,,,,,,,,,,,,,,,,,,,,,,,,,,,,,,,,,,,,,,101,159088,18,Female,1,2024/03/19_08:51:30,YZ,None,
,,,,,,practice,0,9,1,426,15,J,0,right,0.5813074389952817,1,0,,,,,,,,,,,,,,,,,,,,,1,,,,,,,,,,,,,,,,,,,,,,,,,,,,,,,,,,,,,,,,,,,,,,101,159088,18,Female,1,2024/03/19_08:51:30,YZ,None,
,,,,,,practice,0,9,1,426,16,N,0,right,1.053985743004887,1,0,,,,,,,,,,,,,,,,,,,,,1,,,,,,,,,,,,,,,,,,,,,,,,,,,,,,,,,,,,,,,,,,,,,,101,159088,18,Female,1,2024/03/19_08:51:30,YZ,None,
,,,,,,practice,0,9,1,426,17,C,0,right,0.6092268689972116,1,0,,,,,,,,,,,,,,,,,,,,,1,,,,,,,,,,,,,,,,,,,,,,,,,,,,,,,,,,,,,,,,,,,,,,101,159088,18,Female,1,2024/03/19_08:51:30,YZ,None,
,,,,,,practice,0,9,1,426,,,,,,,,1.0,1.0,0.0,1.0,0.0,1.0,0.6215929370596046,5,0,0,0,0,12,17,5,12,0,,,,1,,,,,,,,,,,,,,,,,,,,,,,,,,,,,,,,,,,,,,,,,,,,,,101,159088,18,Female,1,2024/03/19_08:51:30,YZ,None,
,,,,,,practice,0,31,1,426,1,X,0,right,0.9631769909974537,1,0,,,,,,,,,,,,,,,,,,,,,1,,,,,,,,,,,,,,,,,,,,,,,,,,,,,,,,,,,,,,,,,,,,,,101,159088,18,Female,1,2024/03/19_08:51:30,YZ,None,
,,,,,,practice,0,31,1,426,2,X,1,left,0.5850101550022373,1,0,,,,,,,,,,,,,,,,,,,,,1,,,,,,,,,,,,,,,,,,,,,,,,,,,,,,,,,,,,,,,,,,,,,,101,159088,18,Female,1,2024/03/19_08:51:30,YZ,None,
,,,,,,practice,0,31,1,426,3,Q,0,right,0.4290816580032697,1,0,,,,,,,,,,,,,,,,,,,,,1,,,,,,,,,,,,,,,,,,,,,,,,,,,,,,,,,,,,,,,,,,,,,,101,159088,18,Female,1,2024/03/19_08:51:30,YZ,None,
,,,,,,practice,0,31,1,426,4,Q,1,right,0.48049905999505427,0,0,,,,,,,,,,,,,,,,,,,,,1,,,,,,,,,,,,,,,,,,,,,,,,,,,,,,,,,,,,,,,,,,,,,,101,159088,18,Female,1,2024/03/19_08:51:30,YZ,None,
,,,,,,practice,0,31,1,426,5,X,0,right,0.6770483090003836,1,0,,,,,,,,,,,,,,,,,,,,,1,,,,,,,,,,,,,,,,,,,,,,,,,,,,,,,,,,,,,,,,,,,,,,101,159088,18,Female,1,2024/03/19_08:51:30,YZ,None,
,,,,,,practice,0,31,1,426,6,V,0,right,0.5650076800011448,1,0,,,,,,,,,,,,,,,,,,,,,1,,,,,,,,,,,,,,,,,,,,,,,,,,,,,,,,,,,,,,,,,,,,,,101,159088,18,Female,1,2024/03/19_08:51:30,YZ,None,
,,,,,,practice,0,31,1,426,7,C,0,right,1.0446133959994768,1,0,,,,,,,,,,,,,,,,,,,,,1,,,,,,,,,,,,,,,,,,,,,,,,,,,,,,,,,,,,,,,,,,,,,,101,159088,18,Female,1,2024/03/19_08:51:30,YZ,None,
,,,,,,practice,0,31,1,426,8,C,1,left,0.6047291249997215,1,0,,,,,,,,,,,,,,,,,,,,,1,,,,,,,,,,,,,,,,,,,,,,,,,,,,,,,,,,,,,,,,,,,,,,101,159088,18,Female,1,2024/03/19_08:51:30,YZ,None,
,,,,,,practice,0,31,1,426,9,V,0,right,0.6138867319968995,1,0,,,,,,,,,,,,,,,,,,,,,1,,,,,,,,,,,,,,,,,,,,,,,,,,,,,,,,,,,,,,,,,,,,,,101,159088,18,Female,1,2024/03/19_08:51:30,YZ,None,
,,,,,,practice,0,31,1,426,10,V,1,left,0.7270682239977759,1,0,,,,,,,,,,,,,,,,,,,,,1,,,,,,,,,,,,,,,,,,,,,,,,,,,,,,,,,,,,,,,,,,,,,,101,159088,18,Female,1,2024/03/19_08:51:30,YZ,None,
,,,,,,practice,0,31,1,426,11,C,0,right,0.8449008310053614,1,0,,,,,,,,,,,,,,,,,,,,,1,,,,,,,,,,,,,,,,,,,,,,,,,,,,,,,,,,,,,,,,,,,,,,101,159088,18,Female,1,2024/03/19_08:51:30,YZ,None,
,,,,,,practice,0,31,1,426,12,X,0,right,0.7839808959979564,1,0,,,,,,,,,,,,,,,,,,,,,1,,,,,,,,,,,,,,,,,,,,,,,,,,,,,,,,,,,,,,,,,,,,,,101,159088,18,Female,1,2024/03/19_08:51:30,YZ,None,
,,,,,,practice,0,31,1,426,13,S,0,right,0.47203725000144914,1,0,,,,,,,,,,,,,,,,,,,,,1,,,,,,,,,,,,,,,,,,,,,,,,,,,,,,,,,,,,,,,,,,,,,,101,159088,18,Female,1,2024/03/19_08:51:30,YZ,None,
,,,,,,practice,0,31,1,426,14,C,0,right,0.6323551930036047,1,0,,,,,,,,,,,,,,,,,,,,,1,,,,,,,,,,,,,,,,,,,,,,,,,,,,,,,,,,,,,,,,,,,,,,101,159088,18,Female,1,2024/03/19_08:51:30,YZ,None,
,,,,,,practice,0,31,1,426,15,S,0,left,0.5487075450000702,0,0,,,,,,,,,,,,,,,,,,,,,1,,,,,,,,,,,,,,,,,,,,,,,,,,,,,,,,,,,,,,,,,,,,,,101,159088,18,Female,1,2024/03/19_08:51:30,YZ,None,
,,,,,,practice,0,31,1,426,16,Q,0,right,0.5643493050010875,1,0,,,,,,,,,,,,,,,,,,,,,1,,,,,,,,,,,,,,,,,,,,,,,,,,,,,,,,,,,,,,,,,,,,,,101,159088,18,Female,1,2024/03/19_08:51:30,YZ,None,
,,,,,,practice,0,31,1,426,17,Q,1,left,0.756544458999997,1,0,,,,,,,,,,,,,,,,,,,,,1,,,,,,,,,,,,,,,,,,,,,,,,,,,,,,,,,,,,,,,,,,,,,,101,159088,18,Female,1,2024/03/19_08:51:30,YZ,None,
,,,,,,practice,0,31,1,426,,,,,,,,0.9125000000000001,0.8,0.08333333333333333,0.9166666666666666,0.0,0.9166666666666666,0.6642939299413496,4,1,0,0,0,11,15,5,12,0,,,,1,,,,,,,,,,,,,,,,,,,,,,,,,,,,,,,,,,,,,,,,,,,,,,101,159088,18,Female,1,2024/03/19_08:51:30,YZ,None,
1,./instructions/inst_prac_3/Slide37.png,right,5.420209720999992,577.539599280004,582.959809001004,,,,,,,,,,,,,,,,,,,,,,,,,,,,,,,,,1,,,,,,,,,,,,,,,,,,,,,,,,,,,,,,,,,,,,,,,,,,,,,,101,159088,18,Female,1,2024/03/19_08:51:30,YZ,None,
2,./instructions/inst_prac_3/Slide38.png,right,1.9384916580020217,582.9895371770035,584.9280288350055,,,,,,,,,,,,,,,,,,,,,,,,,,,,,,,,,1,,,,,,,,,,,,,,,,,,,,,,,,,,,,,,,,,,,,,,,,,,,,,,101,159088,18,Female,1,2024/03/19_08:51:30,YZ,None,
3,./instructions/inst_prac_3/Slide39.png,right,0.978697997998097,584.9572951350056,585.9359931330036,,,,,,,,,,,,,,,,,,,,,,,,,,,,,,,,,1,,,,,,,,,,,,,,,,,,,,,,,,,,,,,,,,,,,,,,,,,,,,,,101,159088,18,Female,1,2024/03/19_08:51:30,YZ,None,
4,./instructions/inst_prac_3/Slide40.png,right,1.5288619040002231,585.9830940590036,587.5119559630039,,,,,,,,,,,,,,,,,,,,,,,,,,,,,,,,,1,,,,,,,,,,,,,,,,,,,,,,,,,,,,,,,,,,,,,,,,,,,,,,101,159088,18,Female,1,2024/03/19_08:51:30,YZ,None,
5,./instructions/inst_prac_3/Slide41.png,right,2.978378674000851,587.5415286200005,590.5199072940013,,,,,,,,,,,,,,,,,,,,,,,,,,,,,,,,,1,,,,,,,,,,,,,,,,,,,,,,,,,,,,,,,,,,,,,,,,,,,,,,101,159088,18,Female,1,2024/03/19_08:51:30,YZ,None,
4,./instructions/inst_prac_3/Slide42.png,left,1.1016780730060418,590.5463100519992,591.6479881250052,,,,,,,,,,,,,,,,,,,,,,,,,,,,,,,,,1,,,,,,,,,,,,,,,,,,,,,,,,,,,,,,,,,,,,,,,,,,,,,,101,159088,18,Female,1,2024/03/19_08:51:30,YZ,None,
5,./instructions/inst_prac_3/Slide41.png,right,0.921750430999964,591.6700934200053,592.5918438510053,,,,,,,,,,,,,,,,,,,,,,,,,,,,,,,,,1,,,,,,,,,,,,,,,,,,,,,,,,,,,,,,,,,,,,,,,,,,,,,,101,159088,18,Female,1,2024/03/19_08:51:30,YZ,None,
6,./instructions/inst_prac_3/Slide42.png,right,0.6436942110012751,592.6203473900023,593.2640416010036,,,,,,,,,,,,,,,,,,,,,,,,,,,,,,,,,1,,,,,,,,,,,,,,,,,,,,,,,,,,,,,,,,,,,,,,,,,,,,,,101,159088,18,Female,1,2024/03/19_08:51:30,YZ,None,
7,./instructions/inst_prac_3/Slide43.png,right,2.497855438006809,593.2940978059996,595.7919532440064,,,,,,,,,,,,,,,,,,,,,,,,,,,,,,,,,1,,,,,,,,,,,,,,,,,,,,,,,,,,,,,,,,,,,,,,,,,,,,,,101,159088,18,Female,1,2024/03/19_08:51:30,YZ,None,
8,./instructions/inst_prac_3/Slide44.png,right,0.9625181190058356,595.8215049999999,596.7840231190057,,,,,,,,,,,,,,,,,,,,,,,,,,,,,,,,,1,,,,,,,,,,,,,,,,,,,,,,,,,,,,,,,,,,,,,,,,,,,,,,101,159088,18,Female,1,2024/03/19_08:51:30,YZ,None,
,,,,,,practice,0,3,3,788,1,J,0,right,1.0924829049981781,1,0,,,,,,,,,,,,,,,,,,,,,1,,,,,,,,,,,,,,,,,,,,,,,,,,,,,,,,,,,,,,,,,,,,,,101,159088,18,Female,1,2024/03/19_08:51:30,YZ,None,
,,,,,,practice,0,3,3,788,2,C,0,right,0.42048939099913696,1,0,,,,,,,,,,,,,,,,,,,,,1,,,,,,,,,,,,,,,,,,,,,,,,,,,,,,,,,,,,,,,,,,,,,,101,159088,18,Female,1,2024/03/19_08:51:30,YZ,None,
,,,,,,practice,0,3,3,788,3,X,0,right,0.34543865700106835,1,0,,,,,,,,,,,,,,,,,,,,,1,,,,,,,,,,,,,,,,,,,,,,,,,,,,,,,,,,,,,,,,,,,,,,101,159088,18,Female,1,2024/03/19_08:51:30,YZ,None,
,,,,,,practice,0,3,3,788,4,Q,0,right,0.8278038709977409,1,0,,,,,,,,,,,,,,,,,,,,,1,,,,,,,,,,,,,,,,,,,,,,,,,,,,,,,,,,,,,,,,,,,,,,101,159088,18,Female,1,2024/03/19_08:51:30,YZ,None,
,,,,,,practice,0,3,3,788,5,N,0,right,1.2139611970051192,1,0,,,,,,,,,,,,,,,,,,,,,1,,,,,,,,,,,,,,,,,,,,,,,,,,,,,,,,,,,,,,,,,,,,,,101,159088,18,Female,1,2024/03/19_08:51:30,YZ,None,
,,,,,,practice,0,3,3,788,6,X,1,left,0.8889856989990221,1,0,,,,,,,,,,,,,,,,,,,,,1,,,,,,,,,,,,,,,,,,,,,,,,,,,,,,,,,,,,,,,,,,,,,,101,159088,18,Female,1,2024/03/19_08:51:30,YZ,None,
,,,,,,practice,0,3,3,788,7,Q,1,left,0.610586107999552,1,0,,,,,,,,,,,,,,,,,,,,,1,,,,,,,,,,,,,,,,,,,,,,,,,,,,,,,,,,,,,,,,,,,,,,101,159088,18,Female,1,2024/03/19_08:51:30,YZ,None,
,,,,,,practice,0,3,3,788,8,V,0,left,0.5081348009989597,0,0,,,,,,,,,,,,,,,,,,,,,1,,,,,,,,,,,,,,,,,,,,,,,,,,,,,,,,,,,,,,,,,,,,,,101,159088,18,Female,1,2024/03/19_08:51:30,YZ,None,
,,,,,,practice,0,3,3,788,9,Q,0,right,1.1542406560038216,1,0,,,,,,,,,,,,,,,,,,,,,1,,,,,,,,,,,,,,,,,,,,,,,,,,,,,,,,,,,,,,,,,,,,,,101,159088,18,Female,1,2024/03/19_08:51:30,YZ,None,
,,,,,,practice,0,3,3,788,10,F,0,right,0.8601611720005167,1,0,,,,,,,,,,,,,,,,,,,,,1,,,,,,,,,,,,,,,,,,,,,,,,,,,,,,,,,,,,,,,,,,,,,,101,159088,18,Female,1,2024/03/19_08:51:30,YZ,None,
,,,,,,practice,0,3,3,788,11,X,0,right,0.5824819699992076,1,0,,,,,,,,,,,,,,,,,,,,,1,,,,,,,,,,,,,,,,,,,,,,,,,,,,,,,,,,,,,,,,,,,,,,101,159088,18,Female,1,2024/03/19_08:51:30,YZ,None,
,,,,,,practice,0,3,3,788,12,Q,1,left,0.6733253869970213,1,0,,,,,,,,,,,,,,,,,,,,,1,,,,,,,,,,,,,,,,,,,,,,,,,,,,,,,,,,,,,,,,,,,,,,101,159088,18,Female,1,2024/03/19_08:51:30,YZ,None,
,,,,,,practice,0,3,3,788,13,F,1,left,0.6027391190000344,1,0,,,,,,,,,,,,,,,,,,,,,1,,,,,,,,,,,,,,,,,,,,,,,,,,,,,,,,,,,,,,,,,,,,,,101,159088,18,Female,1,2024/03/19_08:51:30,YZ,None,
,,,,,,practice,0,3,3,788,,,,,,,,0.9722222222222222,1.0,0.1111111111111111,0.8888888888888888,0.0,0.8888888888888888,0.7523716102307214,4,1,0,0,0,8,12,4,9,0,,,,1,,,,,,,,,,,,,,,,,,,,,,,,,,,,,,,,,,,,,,,,,,,,,,101,159088,18,Female,1,2024/03/19_08:51:30,YZ,None,
1,./instructions/inst_prac_3_next/Slide49.png,right,4.880482692002261,620.7434586070012,625.6239412990035,,,,,,,,,,,,,,,,,,,,,,,,,,,,,,,,,1,,,,,,,,,,,,,,,,,,,,,,,,,,,,,,,,,,,,,,,,,,,,,,101,159088,18,Female,1,2024/03/19_08:51:30,YZ,None,
,,,,,,practice,0,6,3,426,1,F,0,right,0.6676121959972079,1,0,,,,,,,,,,,,,,,,,,,,,1,,,,,,,,,,,,,,,,,,,,,,,,,,,,,,,,,,,,,,,,,,,,,,101,159088,18,Female,1,2024/03/19_08:51:30,YZ,None,
,,,,,,practice,0,6,3,426,2,C,0,right,0.38033640799403656,1,0,,,,,,,,,,,,,,,,,,,,,1,,,,,,,,,,,,,,,,,,,,,,,,,,,,,,,,,,,,,,,,,,,,,,101,159088,18,Female,1,2024/03/19_08:51:30,YZ,None,
,,,,,,practice,0,6,3,426,3,S,0,right,0.41654356499930145,1,0,,,,,,,,,,,,,,,,,,,,,1,,,,,,,,,,,,,,,,,,,,,,,,,,,,,,,,,,,,,,,,,,,,,,101,159088,18,Female,1,2024/03/19_08:51:30,YZ,None,
,,,,,,practice,0,6,3,426,4,N,0,right,0.7169578920002095,1,0,,,,,,,,,,,,,,,,,,,,,1,,,,,,,,,,,,,,,,,,,,,,,,,,,,,,,,,,,,,,,,,,,,,,101,159088,18,Female,1,2024/03/19_08:51:30,YZ,None,
,,,,,,practice,0,6,3,426,5,S,0,right,0.8092042979988037,1,0,,,,,,,,,,,,,,,,,,,,,1,,,,,,,,,,,,,,,,,,,,,,,,,,,,,,,,,,,,,,,,,,,,,,101,159088,18,Female,1,2024/03/19_08:51:30,YZ,None,
,,,,,,practice,0,6,3,426,6,S,1,left,0.6280533649987774,1,0,,,,,,,,,,,,,,,,,,,,,1,,,,,,,,,,,,,,,,,,,,,,,,,,,,,,,,,,,,,,,,,,,,,,101,159088,18,Female,1,2024/03/19_08:51:30,YZ,None,
,,,,,,practice,0,6,3,426,7,N,1,right,2.2607872579974355,0,0,,,,,,,,,,,,,,,,,,,,,1,,,,,,,,,,,,,,,,,,,,,,,,,,,,,,,,,,,,,,,,,,,,,,101,159088,18,Female,1,2024/03/19_08:51:30,YZ,None,
,,,,,,practice,0,6,3,426,8,X,0,right,1.459897666994948,1,0,,,,,,,,,,,,,,,,,,,,,1,,,,,,,,,,,,,,,,,,,,,,,,,,,,,,,,,,,,,,,,,,,,,,101,159088,18,Female,1,2024/03/19_08:51:30,YZ,None,
,,,,,,practice,0,6,3,426,9,F,0,left,1.132529284004704,0,0,,,,,,,,,,,,,,,,,,,,,1,,,,,,,,,,,,,,,,,,,,,,,,,,,,,,,,,,,,,,,,,,,,,,101,159088,18,Female,1,2024/03/19_08:51:30,YZ,None,
,,,,,,practice,0,6,3,426,10,Q,0,right,0.3696425820016884,1,0,,,,,,,,,,,,,,,,,,,,,1,,,,,,,,,,,,,,,,,,,,,,,,,,,,,,,,,,,,,,,,,,,,,,101,159088,18,Female,1,2024/03/19_08:51:30,YZ,None,
,,,,,,practice,0,6,3,426,11,S,0,left,0.6606334090029122,0,0,,,,,,,,,,,,,,,,,,,,,1,,,,,,,,,,,,,,,,,,,,,,,,,,,,,,,,,,,,,,,,,,,,,,101,159088,18,Female,1,2024/03/19_08:51:30,YZ,None,
,,,,,,practice,0,6,3,426,12,F,1,left,1.140431225001521,1,0,,,,,,,,,,,,,,,,,,,,,1,,,,,,,,,,,,,,,,,,,,,,,,,,,,,,,,,,,,,,,,,,,,,,101,159088,18,Female,1,2024/03/19_08:51:30,YZ,None,
,,,,,,practice,0,6,3,426,13,V,0,right,0.49257809599657776,1,0,,,,,,,,,,,,,,,,,,,,,1,,,,,,,,,,,,,,,,,,,,,,,,,,,,,,,,,,,,,,,,,,,,,,101,159088,18,Female,1,2024/03/19_08:51:30,YZ,None,
,,,,,,practice,0,6,3,426,14,J,0,right,0.4440567870042287,1,0,,,,,,,,,,,,,,,,,,,,,1,,,,,,,,,,,,,,,,,,,,,,,,,,,,,,,,,,,,,,,,,,,,,,101,159088,18,Female,1,2024/03/19_08:51:30,YZ,None,
,,,,,,practice,0,6,3,426,15,S,0,right,0.621041508995404,1,0,,,,,,,,,,,,,,,,,,,,,1,,,,,,,,,,,,,,,,,,,,,,,,,,,,,,,,,,,,,,,,,,,,,,101,159088,18,Female,1,2024/03/19_08:51:30,YZ,None,
,,,,,,practice,0,6,3,426,16,V,1,left,0.5561472010012949,1,0,,,,,,,,,,,,,,,,,,,,,1,,,,,,,,,,,,,,,,,,,,,,,,,,,,,,,,,,,,,,,,,,,,,,101,159088,18,Female,1,2024/03/19_08:51:30,YZ,None,
,,,,,,practice,0,6,3,426,17,J,1,left,1.0772837559998152,1,0,,,,,,,,,,,,,,,,,,,,,1,,,,,,,,,,,,,,,,,,,,,,,,,,,,,,,,,,,,,,,,,,,,,,101,159088,18,Female,1,2024/03/19_08:51:30,YZ,None,
,,,,,,practice,0,6,3,426,,,,,,,,0.875,0.8,0.16666666666666666,0.8333333333333334,0.0,0.8333333333333334,0.813749205764051,4,2,0,0,0,10,14,5,12,0,,,,1,,,,,,,,,,,,,,,,,,,,,,,,,,,,,,,,,,,,,,,,,,,,,,101,159088,18,Female,1,2024/03/19_08:51:30,YZ,None,
,,,,,,practice,0,27,3,426,1,J,0,right,1.8935641720017884,1,0,,,,,,,,,,,,,,,,,,,,,1,,,,,,,,,,,,,,,,,,,,,,,,,,,,,,,,,,,,,,,,,,,,,,101,159088,18,Female,1,2024/03/19_08:51:30,YZ,None,
,,,,,,practice,0,27,3,426,2,X,0,right,0.5994154310028534,1,0,,,,,,,,,,,,,,,,,,,,,1,,,,,,,,,,,,,,,,,,,,,,,,,,,,,,,,,,,,,,,,,,,,,,101,159088,18,Female,1,2024/03/19_08:51:30,YZ,None,
,,,,,,practice,0,27,3,426,3,C,0,right,0.364942484004132,1,0,,,,,,,,,,,,,,,,,,,,,1,,,,,,,,,,,,,,,,,,,,,,,,,,,,,,,,,,,,,,,,,,,,,,101,159088,18,Female,1,2024/03/19_08:51:30,YZ,None,
,,,,,,practice,0,27,3,426,4,V,0,right,0.4912184860004345,1,0,,,,,,,,,,,,,,,,,,,,,1,,,,,,,,,,,,,,,,,,,,,,,,,,,,,,,,,,,,,,,,,,,,,,101,159088,18,Female,1,2024/03/19_08:51:30,YZ,None,
,,,,,,practice,0,27,3,426,5,J,0,right,1.1292043190042023,1,0,,,,,,,,,,,,,,,,,,,,,1,,,,,,,,,,,,,,,,,,,,,,,,,,,,,,,,,,,,,,,,,,,,,,101,159088,18,Female,1,2024/03/19_08:51:30,YZ,None,
,,,,,,practice,0,27,3,426,6,J,0,right,1.8881607010043808,1,0,,,,,,,,,,,,,,,,,,,,,1,,,,,,,,,,,,,,,,,,,,,,,,,,,,,,,,,,,,,,,,,,,,,,101,159088,18,Female,1,2024/03/19_08:51:30,YZ,None,
,,,,,,practice,0,27,3,426,7,V,1,left,1.0004650200062315,1,0,,,,,,,,,,,,,,,,,,,,,1,,,,,,,,,,,,,,,,,,,,,,,,,,,,,,,,,,,,,,,,,,,,,,101,159088,18,Female,1,2024/03/19_08:51:30,YZ,None,
,,,,,,practice,0,27,3,426,8,S,0,right,0.5885443659935845,1,0,,,,,,,,,,,,,,,,,,,,,1,,,,,,,,,,,,,,,,,,,,,,,,,,,,,,,,,,,,,,,,,,,,,,101,159088,18,Female,1,2024/03/19_08:51:30,YZ,None,
,,,,,,practice,0,27,3,426,9,J,1,left,1.3011268229965935,1,0,,,,,,,,,,,,,,,,,,,,,1,,,,,,,,,,,,,,,,,,,,,,,,,,,,,,,,,,,,,,,,,,,,,,101,159088,18,Female,1,2024/03/19_08:51:30,YZ,None,
,,,,,,practice,0,27,3,426,10,V,1,left,1.5006621160064242,1,0,,,,,,,,,,,,,,,,,,,,,1,,,,,,,,,,,,,,,,,,,,,,,,,,,,,,,,,,,,,,,,,,,,,,101,159088,18,Female,1,2024/03/19_08:51:30,YZ,None,
,,,,,,practice,0,27,3,426,11,J,0,left,1.1437998569963383,0,0,,,,,,,,,,,,,,,,,,,,,1,,,,,,,,,,,,,,,,,,,,,,,,,,,,,,,,,,,,,,,,,,,,,,101,159088,18,Female,1,2024/03/19_08:51:30,YZ,None,
,,,,,,practice,0,27,3,426,12,Q,0,right,0.45593011299934005,1,0,,,,,,,,,,,,,,,,,,,,,1,,,,,,,,,,,,,,,,,,,,,,,,,,,,,,,,,,,,,,,,,,,,,,101,159088,18,Female,1,2024/03/19_08:51:30,YZ,None,
,,,,,,practice,0,27,3,426,13,F,0,right,0.5435028389983927,1,0,,,,,,,,,,,,,,,,,,,,,1,,,,,,,,,,,,,,,,,,,,,,,,,,,,,,,,,,,,,,,,,,,,,,101,159088,18,Female,1,2024/03/19_08:51:30,YZ,None,
,,,,,,practice,0,27,3,426,14,J,1,right,0.7326487610043841,0,0,,,,,,,,,,,,,,,,,,,,,1,,,,,,,,,,,,,,,,,,,,,,,,,,,,,,,,,,,,,,,,,,,,,,101,159088,18,Female,1,2024/03/19_08:51:30,YZ,None,
,,,,,,practice,0,27,3,426,15,N,0,right,0.829066854006669,1,0,,,,,,,,,,,,,,,,,,,,,1,,,,,,,,,,,,,,,,,,,,,,,,,,,,,,,,,,,,,,,,,,,,,,101,159088,18,Female,1,2024/03/19_08:51:30,YZ,None,
,,,,,,practice,0,27,3,426,16,F,1,right,1.6115037240015226,0,0,,,,,,,,,,,,,,,,,,,,,1,,,,,,,,,,,,,,,,,,,,,,,,,,,,,,,,,,,,,,,,,,,,,,101,159088,18,Female,1,2024/03/19_08:51:30,YZ,None,
,,,,,,practice,0,27,3,426,17,X,0,right,0.5366487619976397,1,0,,,,,,,,,,,,,,,,,,,,,1,,,,,,,,,,,,,,,,,,,,,,,,,,,,,,,,,,,,,,,,,,,,,,101,159088,18,Female,1,2024/03/19_08:51:30,YZ,None,
,,,,,,practice,0,27,3,426,,,,,,,,0.8458333333333333,0.6,0.08333333333333333,0.9166666666666666,0.0,0.9166666666666666,0.9770826369426419,3,1,0,0,0,11,14,5,12,0,,,,1,,,,,,,,,,,,,,,,,,,,,,,,,,,,,,,,,,,,,,,,,,,,,,101,159088,18,Female,1,2024/03/19_08:51:30,YZ,None,
1,./instructions/inst_prac_main/Slide51.png,right,1.8698081009933958,678.026097329006,679.8959054299994,,,,,,,,,,,,,,,,,,,,,,,,,,,,,,,,,1,,,,,,,,,,,,,,,,,,,,,,,,,,,,,,,,,,,,,,,,,,,,,,101,159088,18,Female,1,2024/03/19_08:51:30,YZ,None,
2,./instructions/inst_prac_main/Slide52.png,right,9.418612092995318,679.9252874310041,689.3438995239994,,,,,,,,,,,,,,,,,,,,,,,,,,,,,,,,,1,,,,,,,,,,,,,,,,,,,,,,,,,,,,,,,,,,,,,,,,,,,,,,101,159088,18,Female,1,2024/03/19_08:51:30,YZ,None,
1,./instructions/inst_prac_main/Slide53.png,left,5.86570994900103,689.3742076460039,695.239917595005,,,,,,,,,,,,,,,,,,,,,,,,,,,,,,,,,1,,,,,,,,,,,,,,,,,,,,,,,,,,,,,,,,,,,,,,,,,,,,,,101,159088,18,Female,1,2024/03/19_08:51:30,YZ,None,
0,./instructions/inst_prac_main/Slide52.png,left,0.20060275500145508,695.2632365360041,695.4638392910056,,,,,,,,,,,,,,,,,,,,,,,,,,,,,,,,,1,,,,,,,,,,,,,,,,,,,,,,,,,,,,,,,,,,,,,,,,,,,,,,101,159088,18,Female,1,2024/03/19_08:51:30,YZ,None,
-1,./instructions/inst_prac_main/Slide51.png,left,0.20040264599811053,695.4824063920023,695.6828090380004,,,,,,,,,,,,,,,,,,,,,,,,,,,,,,,,,1,,,,,,,,,,,,,,,,,,,,,,,,,,,,,,,,,,,,,,,,,,,,,,101,159088,18,Female,1,2024/03/19_08:51:30,YZ,None,
-2,./instructions/inst_prac_main/Slide54.png,left,0.20055585299996892,695.7182538609995,695.9188097139995,,,,,,,,,,,,,,,,,,,,,,,,,,,,,,,,,1,,,,,,,,,,,,,,,,,,,,,,,,,,,,,,,,,,,,,,,,,,,,,,101,159088,18,Female,1,2024/03/19_08:51:30,YZ,None,
-1,./instructions/inst_prac_main/Slide53.png,right,1.2263288459944306,695.9415901130051,697.1679189589995,,,,,,,,,,,,,,,,,,,,,,,,,,,,,,,,,1,,,,,,,,,,,,,,,,,,,,,,,,,,,,,,,,,,,,,,,,,,,,,,101,159088,18,Female,1,2024/03/19_08:51:30,YZ,None,
0,./instructions/inst_prac_main/Slide54.png,right,11.667603173998941,697.1964742250057,708.8640773990046,,,,,,,,,,,,,,,,,,,,,,,,,,,,,,,,,1,,,,,,,,,,,,,,,,,,,,,,,,,,,,,,,,,,,,,,,,,,,,,,101,159088,18,Female,1,2024/03/19_08:51:30,YZ,None,
1,./instructions/inst_prac_main/Slide51.png,right,4.61492711599567,708.8890796870037,713.5040068029994,,,,,,,,,,,,,,,,,,,,,,,,,,,,,,,,,1,,,,,,,,,,,,,,,,,,,,,,,,,,,,,,,,,,,,,,,,,,,,,,101,159088,18,Female,1,2024/03/19_08:51:30,YZ,None,
2,./instructions/inst_prac_main/Slide52.png,right,2.8833432470055413,713.532487769,716.4158310160055,,,,,,,,,,,,,,,,,,,,,,,,,,,,,,,,,1,,,,,,,,,,,,,,,,,,,,,,,,,,,,,,,,,,,,,,,,,,,,,,101,159088,18,Female,1,2024/03/19_08:51:30,YZ,None,
3,./instructions/inst_prac_main/Slide53.png,right,1.1796631530014565,716.4443337060002,717.6239968590016,,,,,,,,,,,,,,,,,,,,,,,,,,,,,,,,,1,,,,,,,,,,,,,,,,,,,,,,,,,,,,,,,,,,,,,,,,,,,,,,101,159088,18,Female,1,2024/03/19_08:51:30,YZ,None,
4,./instructions/inst_prac_main/Slide54.png,right,1.1712213899954804,717.6526141640061,718.8238355540016,,,,,,,,,,,,,,,,,,,,,,,,,,,,,,,,,1,,,,,,,,,,,,,,,,,,,,,,,,,,,,,,,,,,,,,,,,,,,,,,101,159088,18,Female,1,2024/03/19_08:51:30,YZ,None,
,,,,,,practice_main,0,1,1,426,1,S,0,None,nan,0,1,,,,,,,,,,,,,,,,,,,,,1,,,,,,,,,,,,,,,,,,,,,,,,,,,,,,,,,,,,,,,,,,,,,,101,159088,18,Female,1,2024/03/19_08:51:30,YZ,None,
,,,,,,practice_main,0,1,1,426,2,S,1,None,nan,0,1,,,,,,,,,,,,,,,,,,,,,1,,,,,,,,,,,,,,,,,,,,,,,,,,,,,,,,,,,,,,,,,,,,,,101,159088,18,Female,1,2024/03/19_08:51:30,YZ,None,
,,,,,,practice_main,0,1,1,426,3,J,0,None,nan,0,1,,,,,,,,,,,,,,,,,,,,,1,,,,,,,,,,,,,,,,,,,,,,,,,,,,,,,,,,,,,,,,,,,,,,101,159088,18,Female,1,2024/03/19_08:51:30,YZ,None,
,,,,,,practice_main,0,1,1,426,4,N,0,None,nan,0,1,,,,,,,,,,,,,,,,,,,,,1,,,,,,,,,,,,,,,,,,,,,,,,,,,,,,,,,,,,,,,,,,,,,,101,159088,18,Female,1,2024/03/19_08:51:30,YZ,None,
,,,,,,practice_main,0,1,1,426,5,S,0,right,0.3633173559937859,1,0,,,,,,,,,,,,,,,,,,,,,1,,,,,,,,,,,,,,,,,,,,,,,,,,,,,,,,,,,,,,,,,,,,,,101,159088,18,Female,1,2024/03/19_08:51:30,YZ,None,
,,,,,,practice_main,0,1,1,426,6,S,1,right,0.32517935700161615,0,0,,,,,,,,,,,,,,,,,,,,,1,,,,,,,,,,,,,,,,,,,,,,,,,,,,,,,,,,,,,,,,,,,,,,101,159088,18,Female,1,2024/03/19_08:51:30,YZ,None,
,,,,,,practice_main,0,1,1,426,7,F,0,right,0.8401516669982811,1,0,,,,,,,,,,,,,,,,,,,,,1,,,,,,,,,,,,,,,,,,,,,,,,,,,,,,,,,,,,,,,,,,,,,,101,159088,18,Female,1,2024/03/19_08:51:30,YZ,None,
,,,,,,practice_main,0,1,1,426,8,J,0,right,0.4269526380012394,1,0,,,,,,,,,,,,,,,,,,,,,1,,,,,,,,,,,,,,,,,,,,,,,,,,,,,,,,,,,,,,,,,,,,,,101,159088,18,Female,1,2024/03/19_08:51:30,YZ,None,
,,,,,,practice_main,0,1,1,426,9,J,1,left,0.5571586209989619,1,0,,,,,,,,,,,,,,,,,,,,,1,,,,,,,,,,,,,,,,,,,,,,,,,,,,,,,,,,,,,,,,,,,,,,101,159088,18,Female,1,2024/03/19_08:51:30,YZ,None,
,,,,,,practice_main,0,1,1,426,10,S,0,right,0.36412205200031167,1,0,,,,,,,,,,,,,,,,,,,,,1,,,,,,,,,,,,,,,,,,,,,,,,,,,,,,,,,,,,,,,,,,,,,,101,159088,18,Female,1,2024/03/19_08:51:30,YZ,None,
,,,,,,practice_main,0,1,1,426,11,Q,0,right,0.382942999000079,1,0,,,,,,,,,,,,,,,,,,,,,1,,,,,,,,,,,,,,,,,,,,,,,,,,,,,,,,,,,,,,,,,,,,,,101,159088,18,Female,1,2024/03/19_08:51:30,YZ,None,
,,,,,,practice_main,0,1,1,426,12,N,0,right,0.4106385089980904,1,0,,,,,,,,,,,,,,,,,,,,,1,,,,,,,,,,,,,,,,,,,,,,,,,,,,,,,,,,,,,,,,,,,,,,101,159088,18,Female,1,2024/03/19_08:51:30,YZ,None,
,,,,,,practice_main,0,1,1,426,13,Q,0,right,0.5887387059992761,1,0,,,,,,,,,,,,,,,,,,,,,1,,,,,,,,,,,,,,,,,,,,,,,,,,,,,,,,,,,,,,,,,,,,,,101,159088,18,Female,1,2024/03/19_08:51:30,YZ,None,
,,,,,,practice_main,0,1,1,426,14,Q,1,left,0.6654913000020315,1,0,,,,,,,,,,,,,,,,,,,,,1,,,,,,,,,,,,,,,,,,,,,,,,,,,,,,,,,,,,,,,,,,,,,,101,159088,18,Female,1,2024/03/19_08:51:30,YZ,None,
,,,,,,practice_main,0,1,1,426,15,V,0,right,0.36365483199915616,1,0,,,,,,,,,,,,,,,,,,,,,1,,,,,,,,,,,,,,,,,,,,,,,,,,,,,,,,,,,,,,,,,,,,,,101,159088,18,Female,1,2024/03/19_08:51:30,YZ,None,
,,,,,,practice_main,0,1,1,426,16,C,0,right,0.39563993200135883,1,0,,,,,,,,,,,,,,,,,,,,,1,,,,,,,,,,,,,,,,,,,,,,,,,,,,,,,,,,,,,,,,,,,,,,101,159088,18,Female,1,2024/03/19_08:51:30,YZ,None,
,,,,,,practice_main,0,1,1,426,17,C,1,left,0.6831111309948028,1,0,,,,,,,,,,,,,,,,,,,,,1,,,,,,,,,,,,,,,,,,,,,,,,,,,,,,,,,,,,,,,,,,,,,,101,159088,18,Female,1,2024/03/19_08:51:30,YZ,None,
,,,,,,practice_main,0,1,1,426,,,,,,,,0.9,0.6,0.0,1.0,0.23529411764705882,0.7647058823529411,0.489776853845307,3,0,1,3,4,9,12,5,12,0,,,,1,,,,,,,,,,,,,,,,,,,,,,,,,,,,,,,,,,,,,,,,,,,,,,101,159088,18,Female,1,2024/03/19_08:51:30,YZ,None,
,,,,,240319_091846,PRACTICE,0,1,1,426,,,,,,,,,,,,,,,,,,,,,,,,,,,,1,34,2,1,cue1.png,easy,A,37,2.3489632639975753,0,730.0843542830044,732.4504124300001,,,,,,,,,,,,,,,,,,,,,,,,,,,,,,,,,,,101,159088,18,Female,1,2024/03/19_08:51:30,YZ,None,
,,,,,,practice_main,0,2,1,426,1,N,0,right,0.7320144459954463,1,0,,,,,,,,,,,,,,,,,,,,,1,,,,,,,,,,,,,,,,,,,,,,,,,,,,,,,,,,,,,,,,,,,,,,101,159088,18,Female,1,2024/03/19_08:51:30,YZ,None,
,,,,,,practice_main,0,2,1,426,2,X,0,right,0.36456094199820654,1,0,,,,,,,,,,,,,,,,,,,,,1,,,,,,,,,,,,,,,,,,,,,,,,,,,,,,,,,,,,,,,,,,,,,,101,159088,18,Female,1,2024/03/19_08:51:30,YZ,None,
,,,,,,practice_main,0,2,1,426,3,X,1,left,0.6252684300052351,1,0,,,,,,,,,,,,,,,,,,,,,1,,,,,,,,,,,,,,,,,,,,,,,,,,,,,,,,,,,,,,,,,,,,,,101,159088,18,Female,1,2024/03/19_08:51:30,YZ,None,
,,,,,,practice_main,0,2,1,426,4,C,0,right,0.41739123799925437,1,0,,,,,,,,,,,,,,,,,,,,,1,,,,,,,,,,,,,,,,,,,,,,,,,,,,,,,,,,,,,,,,,,,,,,101,159088,18,Female,1,2024/03/19_08:51:30,YZ,None,
,,,,,,practice_main,0,2,1,426,5,J,0,right,0.5311228800055687,1,0,,,,,,,,,,,,,,,,,,,,,1,,,,,,,,,,,,,,,,,,,,,,,,,,,,,,,,,,,,,,,,,,,,,,101,159088,18,Female,1,2024/03/19_08:51:30,YZ,None,
,,,,,,practice_main,0,2,1,426,6,S,0,right,0.4481150449937559,1,0,,,,,,,,,,,,,,,,,,,,,1,,,,,,,,,,,,,,,,,,,,,,,,,,,,,,,,,,,,,,,,,,,,,,101,159088,18,Female,1,2024/03/19_08:51:30,YZ,None,
,,,,,,practice_main,0,2,1,426,7,S,1,left,0.4651893230038695,1,0,,,,,,,,,,,,,,,,,,,,,1,,,,,,,,,,,,,,,,,,,,,,,,,,,,,,,,,,,,,,,,,,,,,,101,159088,18,Female,1,2024/03/19_08:51:30,YZ,None,
,,,,,,practice_main,0,2,1,426,8,X,0,right,0.3804072700004326,1,0,,,,,,,,,,,,,,,,,,,,,1,,,,,,,,,,,,,,,,,,,,,,,,,,,,,,,,,,,,,,,,,,,,,,101,159088,18,Female,1,2024/03/19_08:51:30,YZ,None,
,,,,,,practice_main,0,2,1,426,9,J,0,right,0.40866661299514817,1,0,,,,,,,,,,,,,,,,,,,,,1,,,,,,,,,,,,,,,,,,,,,,,,,,,,,,,,,,,,,,,,,,,,,,101,159088,18,Female,1,2024/03/19_08:51:30,YZ,None,
,,,,,,practice_main,0,2,1,426,10,J,1,right,0.4080092560034245,0,0,,,,,,,,,,,,,,,,,,,,,1,,,,,,,,,,,,,,,,,,,,,,,,,,,,,,,,,,,,,,,,,,,,,,101,159088,18,Female,1,2024/03/19_08:51:30,YZ,None,
,,,,,,practice_main,0,2,1,426,11,F,0,right,0.4562039530064794,1,0,,,,,,,,,,,,,,,,,,,,,1,,,,,,,,,,,,,,,,,,,,,,,,,,,,,,,,,,,,,,,,,,,,,,101,159088,18,Female,1,2024/03/19_08:51:30,YZ,None,
,,,,,,practice_main,0,2,1,426,12,F,1,left,0.5999528239990468,1,0,,,,,,,,,,,,,,,,,,,,,1,,,,,,,,,,,,,,,,,,,,,,,,,,,,,,,,,,,,,,,,,,,,,,101,159088,18,Female,1,2024/03/19_08:51:30,YZ,None,
,,,,,,practice_main,0,2,1,426,13,S,0,right,0.6364334910031175,1,0,,,,,,,,,,,,,,,,,,,,,1,,,,,,,,,,,,,,,,,,,,,,,,,,,,,,,,,,,,,,,,,,,,,,101,159088,18,Female,1,2024/03/19_08:51:30,YZ,None,
,,,,,,practice_main,0,2,1,426,14,N,0,right,0.4855504280058085,1,0,,,,,,,,,,,,,,,,,,,,,1,,,,,,,,,,,,,,,,,,,,,,,,,,,,,,,,,,,,,,,,,,,,,,101,159088,18,Female,1,2024/03/19_08:51:30,YZ,None,
,,,,,,practice_main,0,2,1,426,15,N,1,left,0.6920973710002727,1,0,,,,,,,,,,,,,,,,,,,,,1,,,,,,,,,,,,,,,,,,,,,,,,,,,,,,,,,,,,,,,,,,,,,,101,159088,18,Female,1,2024/03/19_08:51:30,YZ,None,
,,,,,,practice_main,0,2,1,426,16,V,0,right,0.401353947003372,1,0,,,,,,,,,,,,,,,,,,,,,1,,,,,,,,,,,,,,,,,,,,,,,,,,,,,,,,,,,,,,,,,,,,,,101,159088,18,Female,1,2024/03/19_08:51:30,YZ,None,
,,,,,,practice_main,0,2,1,426,17,S,0,right,0.5251058180001564,1,0,,,,,,,,,,,,,,,,,,,,,1,,,,,,,,,,,,,,,,,,,,,,,,,,,,,,,,,,,,,,,,,,,,,,101,159088,18,Female,1,2024/03/19_08:51:30,YZ,None,
,,,,,,practice_main,0,2,1,426,,,,,,,,0.95,0.8,0.0,1.0,0.0,1.0,0.5045554867657998,4,0,0,0,0,12,16,5,12,0,,,,1,,,,,,,,,,,,,,,,,,,,,,,,,,,,,,,,,,,,,,,,,,,,,,101,159088,18,Female,1,2024/03/19_08:51:30,YZ,None,
,,,,,240319_091914,PRACTICE,0,2,1,426,,,,,,,,,,,,,,,,,,,,,,,,,,,,1,26,3,2,cue1.png,easy,A,31,1.7123954670023522,0,760.9134007690009,762.6453415370052,,,,,,,,,,,,,,,,,,,,,,,,,,,,,,,,,,,101,159088,18,Female,1,2024/03/19_08:51:30,YZ,None,
,,,,,,practice_main,0,3,3,426,1,V,0,right,0.5941132039952208,1,0,,,,,,,,,,,,,,,,,,,,,1,,,,,,,,,,,,,,,,,,,,,,,,,,,,,,,,,,,,,,,,,,,,,,101,159088,18,Female,1,2024/03/19_08:51:30,YZ,None,
,,,,,,practice_main,0,3,3,426,2,Q,0,right,0.27824782999960007,1,0,,,,,,,,,,,,,,,,,,,,,1,,,,,,,,,,,,,,,,,,,,,,,,,,,,,,,,,,,,,,,,,,,,,,101,159088,18,Female,1,2024/03/19_08:51:30,YZ,None,
,,,,,,practice_main,0,3,3,426,3,F,0,right,0.4162903410033323,1,0,,,,,,,,,,,,,,,,,,,,,1,,,,,,,,,,,,,,,,,,,,,,,,,,,,,,,,,,,,,,,,,,,,,,101,159088,18,Female,1,2024/03/19_08:51:30,YZ,None,
,,,,,,practice_main,0,3,3,426,4,F,0,right,0.3806995589984581,1,0,,,,,,,,,,,,,,,,,,,,,1,,,,,,,,,,,,,,,,,,,,,,,,,,,,,,,,,,,,,,,,,,,,,,101,159088,18,Female,1,2024/03/19_08:51:30,YZ,None,
,,,,,,practice_main,0,3,3,426,5,Q,1,left,0.8328321149965632,1,0,,,,,,,,,,,,,,,,,,,,,1,,,,,,,,,,,,,,,,,,,,,,,,,,,,,,,,,,,,,,,,,,,,,,101,159088,18,Female,1,2024/03/19_08:51:30,YZ,None,
,,,,,,practice_main,0,3,3,426,6,V,0,right,0.5125788000004832,1,0,,,,,,,,,,,,,,,,,,,,,1,,,,,,,,,,,,,,,,,,,,,,,,,,,,,,,,,,,,,,,,,,,,,,101,159088,18,Female,1,2024/03/19_08:51:30,YZ,None,
,,,,,,practice_main,0,3,3,426,7,N,0,right,0.5416804019987467,1,0,,,,,,,,,,,,,,,,,,,,,1,,,,,,,,,,,,,,,,,,,,,,,,,,,,,,,,,,,,,,,,,,,,,,101,159088,18,Female,1,2024/03/19_08:51:30,YZ,None,
,,,,,,practice_main,0,3,3,426,8,Q,1,right,0.4133049049996771,0,0,,,,,,,,,,,,,,,,,,,,,1,,,,,,,,,,,,,,,,,,,,,,,,,,,,,,,,,,,,,,,,,,,,,,101,159088,18,Female,1,2024/03/19_08:51:30,YZ,None,
,,,,,,practice_main,0,3,3,426,9,V,1,right,0.431718160994933,0,0,,,,,,,,,,,,,,,,,,,,,1,,,,,,,,,,,,,,,,,,,,,,,,,,,,,,,,,,,,,,,,,,,,,,101,159088,18,Female,1,2024/03/19_08:51:30,YZ,None,
,,,,,,practice_main,0,3,3,426,10,F,0,right,0.645924707998347,1,0,,,,,,,,,,,,,,,,,,,,,1,,,,,,,,,,,,,,,,,,,,,,,,,,,,,,,,,,,,,,,,,,,,,,101,159088,18,Female,1,2024/03/19_08:51:30,YZ,None,
,,,,,,practice_main,0,3,3,426,11,N,0,right,nan,0,1,,,,,,,,,,,,,,,,,,,,,1,,,,,,,,,,,,,,,,,,,,,,,,,,,,,,,,,,,,,,,,,,,,,,101,159088,18,Female,1,2024/03/19_08:51:30,YZ,None,
,,,,,,practice_main,0,3,3,426,12,V,1,left,0.8750853100063978,1,0,,,,,,,,,,,,,,,,,,,,,1,,,,,,,,,,,,,,,,,,,,,,,,,,,,,,,,,,,,,,,,,,,,,,101,159088,18,Female,1,2024/03/19_08:51:30,YZ,None,
,,,,,,practice_main,0,3,3,426,13,Q,0,right,0.736370437000005,1,0,,,,,,,,,,,,,,,,,,,,,1,,,,,,,,,,,,,,,,,,,,,,,,,,,,,,,,,,,,,,,,,,,,,,101,159088,18,Female,1,2024/03/19_08:51:30,YZ,None,
,,,,,,practice_main,0,3,3,426,14,S,0,right,0.4319953490048647,1,0,,,,,,,,,,,,,,,,,,,,,1,,,,,,,,,,,,,,,,,,,,,,,,,,,,,,,,,,,,,,,,,,,,,,101,159088,18,Female,1,2024/03/19_08:51:30,YZ,None,
,,,,,,practice_main,0,3,3,426,15,V,1,right,0.5631192949949764,0,0,,,,,,,,,,,,,,,,,,,,,1,,,,,,,,,,,,,,,,,,,,,,,,,,,,,,,,,,,,,,,,,,,,,,101,159088,18,Female,1,2024/03/19_08:51:30,YZ,None,
,,,,,,practice_main,0,3,3,426,16,V,0,right,0.9082479809949291,1,0,,,,,,,,,,,,,,,,,,,,,1,,,,,,,,,,,,,,,,,,,,,,,,,,,,,,,,,,,,,,,,,,,,,,101,159088,18,Female,1,2024/03/19_08:51:30,YZ,None,
,,,,,,practice_main,0,3,3,426,17,C,0,right,0.5243494840033236,1,0,,,,,,,,,,,,,,,,,,,,,1,,,,,,,,,,,,,,,,,,,,,,,,,,,,,,,,,,,,,,,,,,,,,,101,159088,18,Female,1,2024/03/19_08:51:30,YZ,None,
,,,,,,practice_main,0,3,3,426,,,,,,,,0.85,0.4,0.0,1.0,0.058823529411764705,0.9411764705882353,0.5679098675618661,2,0,0,1,1,11,13,5,12,0,,,,1,,,,,,,,,,,,,,,,,,,,,,,,,,,,,,,,,,,,,,,,,,,,,,101,159088,18,Female,1,2024/03/19_08:51:30,YZ,None,
,,,,,240319_091944,PRACTICE,0,3,3,426,,,,,,,,,,,,,,,,,,,,,,,,,,,,1,20,4,3,cue2.png,hard,A,27,1.7300358169959509,0,789.3277280110051,791.0839464660021,,,,,,,,,,,,,,,,,,,,,,,,,,,,,,,,,,,101,159088,18,Female,1,2024/03/19_08:51:30,YZ,None,
1,./instructions/inst_prac_end/Slide56.png,right,23.426526880000893,817.829287903005,841.2558147830059,,,,,,,,,,,,,,,,,,,,,,,,,,,,,,,,,1,,,,,,,,,,,,,,,,,,,,,,,,,,,,,,,,,,,,,,,,,,,,,,101,159088,18,Female,1,2024/03/19_08:51:30,YZ,None,
1,./instructions/inst_test/Slide57.png,right,40.46194052100327,841.2898949570008,881.7518354780041,,,,,,,,,,,,,,,,,,,,,,,,,,,,,,,,,1,,,,,,,,,,,,,,,,,,,,,,,,,,,,,,,,,,,,,,,,,,,,,,101,159088,18,Female,1,2024/03/19_08:51:30,YZ,None,
,,,,,,test,1,1,1,426,1,F,0,right,0.4186761950040818,1,0,,,,,,,,,,,,,,,,,,,,,1,,,,,,,,,,,,,,,,,,,,,,,,,,,,,,,,,,,,,,,,,,,,,,101,159088,18,Female,1,2024/03/19_08:51:30,YZ,None,
,,,,,,test,1,1,1,426,2,F,1,left,0.7798796110000694,1,0,,,,,,,,,,,,,,,,,,,,,1,,,,,,,,,,,,,,,,,,,,,,,,,,,,,,,,,,,,,,,,,,,,,,101,159088,18,Female,1,2024/03/19_08:51:30,YZ,None,
,,,,,,test,1,1,1,426,3,N,0,right,0.40275532899977406,1,0,,,,,,,,,,,,,,,,,,,,,1,,,,,,,,,,,,,,,,,,,,,,,,,,,,,,,,,,,,,,,,,,,,,,101,159088,18,Female,1,2024/03/19_08:51:30,YZ,None,
,,,,,,test,1,1,1,426,4,C,0,right,0.642262381996261,1,0,,,,,,,,,,,,,,,,,,,,,1,,,,,,,,,,,,,,,,,,,,,,,,,,,,,,,,,,,,,,,,,,,,,,101,159088,18,Female,1,2024/03/19_08:51:30,YZ,None,
,,,,,,test,1,1,1,426,5,F,0,right,0.6367900769982953,1,0,,,,,,,,,,,,,,,,,,,,,1,,,,,,,,,,,,,,,,,,,,,,,,,,,,,,,,,,,,,,,,,,,,,,101,159088,18,Female,1,2024/03/19_08:51:30,YZ,None,
,,,,,,test,1,1,1,426,6,X,0,right,0.5119912250011112,1,0,,,,,,,,,,,,,,,,,,,,,1,,,,,,,,,,,,,,,,,,,,,,,,,,,,,,,,,,,,,,,,,,,,,,101,159088,18,Female,1,2024/03/19_08:51:30,YZ,None,
,,,,,,test,1,1,1,426,7,X,1,left,0.42992907999723684,1,0,,,,,,,,,,,,,,,,,,,,,1,,,,,,,,,,,,,,,,,,,,,,,,,,,,,,,,,,,,,,,,,,,,,,101,159088,18,Female,1,2024/03/19_08:51:30,YZ,None,
,,,,,,test,1,1,1,426,8,V,0,right,0.5560131339952932,1,0,,,,,,,,,,,,,,,,,,,,,1,,,,,,,,,,,,,,,,,,,,,,,,,,,,,,,,,,,,,,,,,,,,,,101,159088,18,Female,1,2024/03/19_08:51:30,YZ,None,
,,,,,,test,1,1,1,426,9,V,1,left,0.6427375950006535,1,0,,,,,,,,,,,,,,,,,,,,,1,,,,,,,,,,,,,,,,,,,,,,,,,,,,,,,,,,,,,,,,,,,,,,101,159088,18,Female,1,2024/03/19_08:51:30,YZ,None,
,,,,,,test,1,1,1,426,10,C,0,right,0.6581418280038633,1,0,,,,,,,,,,,,,,,,,,,,,1,,,,,,,,,,,,,,,,,,,,,,,,,,,,,,,,,,,,,,,,,,,,,,101,159088,18,Female,1,2024/03/19_08:51:30,YZ,None,
,,,,,,test,1,1,1,426,11,J,0,right,0.4937787050002953,1,0,,,,,,,,,,,,,,,,,,,,,1,,,,,,,,,,,,,,,,,,,,,,,,,,,,,,,,,,,,,,,,,,,,,,101,159088,18,Female,1,2024/03/19_08:51:30,YZ,None,
,,,,,,test,1,1,1,426,12,J,1,left,0.5252178679947974,1,0,,,,,,,,,,,,,,,,,,,,,1,,,,,,,,,,,,,,,,,,,,,,,,,,,,,,,,,,,,,,,,,,,,,,101,159088,18,Female,1,2024/03/19_08:51:30,YZ,None,
,,,,,,test,1,1,1,426,13,Q,0,right,0.3800638090033317,1,0,,,,,,,,,,,,,,,,,,,,,1,,,,,,,,,,,,,,,,,,,,,,,,,,,,,,,,,,,,,,,,,,,,,,101,159088,18,Female,1,2024/03/19_08:51:30,YZ,None,
,,,,,,test,1,1,1,426,14,F,0,right,0.418661569005053,1,0,,,,,,,,,,,,,,,,,,,,,1,,,,,,,,,,,,,,,,,,,,,,,,,,,,,,,,,,,,,,,,,,,,,,101,159088,18,Female,1,2024/03/19_08:51:30,YZ,None,
,,,,,,test,1,1,1,426,15,F,1,left,0.5122849109975505,1,0,,,,,,,,,,,,,,,,,,,,,1,,,,,,,,,,,,,,,,,,,,,,,,,,,,,,,,,,,,,,,,,,,,,,101,159088,18,Female,1,2024/03/19_08:51:30,YZ,None,
,,,,,,test,1,1,1,426,16,S,0,right,0.32783659199776594,1,0,,,,,,,,,,,,,,,,,,,,,1,,,,,,,,,,,,,,,,,,,,,,,,,,,,,,,,,,,,,,,,,,,,,,101,159088,18,Female,1,2024/03/19_08:51:30,YZ,None,
,,,,,,test,1,1,1,426,17,J,0,right,0.5471371880048537,1,0,,,,,,,,,,,,,,,,,,,,,1,,,,,,,,,,,,,,,,,,,,,,,,,,,,,,,,,,,,,,,,,,,,,,101,159088,18,Female,1,2024/03/19_08:51:30,YZ,None,
,,,,,,Test,1,1,1,426,,,,,,,,1.0,1.0,0.0,1.0,0.0,1.0,0.5225974763529581,5,0,0,0,0,12,17,5,12,0,,,,1,,,,,,,,,,,,,,,,,,,,,,,,,,,,,,,,,,,,,,,,,,,,,,101,159088,18,Female,1,2024/03/19_08:51:30,YZ,None,
,,,,,240319_092120,TEST,1,1,1,426,,,,,,,,,,,,,,,,,,,,,,,,,,,,1,1,1,1,cue1.png,easy,A,55,1.771738647003076,0,886.8313165979998,888.6200169020012,,,,,,,,,,,,,,,,,,,,,,,,,,,,,,,,,,,101,159088,18,Female,1,2024/03/19_08:51:30,YZ,None,
,,,,,,test,1,2,3,426,1,N,0,right,0.432467243001156,1,0,,,,,,,,,,,,,,,,,,,,,1,,,,,,,,,,,,,,,,,,,,,,,,,,,,,,,,,,,,,,,,,,,,,,101,159088,18,Female,1,2024/03/19_08:51:30,YZ,None,
,,,,,,test,1,2,3,426,2,N,0,left,0.6078696409967961,0,0,,,,,,,,,,,,,,,,,,,,,1,,,,,,,,,,,,,,,,,,,,,,,,,,,,,,,,,,,,,,,,,,,,,,101,159088,18,Female,1,2024/03/19_08:51:30,YZ,None,
,,,,,,test,1,2,3,426,3,V,0,right,0.4087431970037869,1,0,,,,,,,,,,,,,,,,,,,,,1,,,,,,,,,,,,,,,,,,,,,,,,,,,,,,,,,,,,,,,,,,,,,,101,159088,18,Female,1,2024/03/19_08:51:30,YZ,None,
,,,,,,test,1,2,3,426,4,J,0,right,0.5717320890034898,1,0,,,,,,,,,,,,,,,,,,,,,1,,,,,,,,,,,,,,,,,,,,,,,,,,,,,,,,,,,,,,,,,,,,,,101,159088,18,Female,1,2024/03/19_08:51:30,YZ,None,
,,,,,,test,1,2,3,426,5,N,1,right,0.8308709769989946,0,0,,,,,,,,,,,,,,,,,,,,,1,,,,,,,,,,,,,,,,,,,,,,,,,,,,,,,,,,,,,,,,,,,,,,101,159088,18,Female,1,2024/03/19_08:51:30,YZ,None,
,,,,,,test,1,2,3,426,6,C,0,right,0.5747574650013121,1,0,,,,,,,,,,,,,,,,,,,,,1,,,,,,,,,,,,,,,,,,,,,,,,,,,,,,,,,,,,,,,,,,,,,,101,159088,18,Female,1,2024/03/19_08:51:30,YZ,None,
,,,,,,test,1,2,3,426,7,C,0,left,0.5706527619986446,0,0,,,,,,,,,,,,,,,,,,,,,1,,,,,,,,,,,,,,,,,,,,,,,,,,,,,,,,,,,,,,,,,,,,,,101,159088,18,Female,1,2024/03/19_08:51:30,YZ,None,
,,,,,,test,1,2,3,426,8,Q,0,right,0.3561754809998092,1,0,,,,,,,,,,,,,,,,,,,,,1,,,,,,,,,,,,,,,,,,,,,,,,,,,,,,,,,,,,,,,,,,,,,,101,159088,18,Female,1,2024/03/19_08:51:30,YZ,None,
,,,,,,test,1,2,3,426,9,J,0,right,0.48489644799701637,1,0,,,,,,,,,,,,,,,,,,,,,1,,,,,,,,,,,,,,,,,,,,,,,,,,,,,,,,,,,,,,,,,,,,,,101,159088,18,Female,1,2024/03/19_08:51:30,YZ,None,
,,,,,,test,1,2,3,426,10,C,1,right,0.7641270739986794,0,0,,,,,,,,,,,,,,,,,,,,,1,,,,,,,,,,,,,,,,,,,,,,,,,,,,,,,,,,,,,,,,,,,,,,101,159088,18,Female,1,2024/03/19_08:51:30,YZ,None,
,,,,,,test,1,2,3,426,11,Q,1,right,0.6588374269995256,0,0,,,,,,,,,,,,,,,,,,,,,1,,,,,,,,,,,,,,,,,,,,,,,,,,,,,,,,,,,,,,,,,,,,,,101,159088,18,Female,1,2024/03/19_08:51:30,YZ,None,
,,,,,,test,1,2,3,426,12,S,0,right,0.5644044720029342,1,0,,,,,,,,,,,,,,,,,,,,,1,,,,,,,,,,,,,,,,,,,,,,,,,,,,,,,,,,,,,,,,,,,,,,101,159088,18,Female,1,2024/03/19_08:51:30,YZ,None,
,,,,,,test,1,2,3,426,13,C,1,right,0.6258876890060492,0,0,,,,,,,,,,,,,,,,,,,,,1,,,,,,,,,,,,,,,,,,,,,,,,,,,,,,,,,,,,,,,,,,,,,,101,159088,18,Female,1,2024/03/19_08:51:30,YZ,None,
,,,,,,test,1,2,3,426,14,X,0,right,0.483272356002999,1,0,,,,,,,,,,,,,,,,,,,,,1,,,,,,,,,,,,,,,,,,,,,,,,,,,,,,,,,,,,,,,,,,,,,,101,159088,18,Female,1,2024/03/19_08:51:30,YZ,None,
,,,,,,test,1,2,3,426,15,S,1,right,0.641733368000132,0,0,,,,,,,,,,,,,,,,,,,,,1,,,,,,,,,,,,,,,,,,,,,,,,,,,,,,,,,,,,,,,,,,,,,,101,159088,18,Female,1,2024/03/19_08:51:30,YZ,None,
,,,,,,test,1,2,3,426,16,J,0,right,0.5597115010023117,1,0,,,,,,,,,,,,,,,,,,,,,1,,,,,,,,,,,,,,,,,,,,,,,,,,,,,,,,,,,,,,,,,,,,,,101,159088,18,Female,1,2024/03/19_08:51:30,YZ,None,
,,,,,,test,1,2,3,426,17,S,0,right,0.5006235300024855,1,0,,,,,,,,,,,,,,,,,,,,,1,,,,,,,,,,,,,,,,,,,,,,,,,,,,,,,,,,,,,,,,,,,,,,101,159088,18,Female,1,2024/03/19_08:51:30,YZ,None,
