Instruction,Stimulus,Key,RT,START,END,Phase,Block,TrialN,NbackLevel,ISI,LetterN,Letter,Letter_isSame,Letter_Resp,Letter_RT,Letter_Accuracy,Letter_Timeout,Trial_A_measure,Trial_HR,Trial_FAR,Trial_CDR,Trial_MSR,Trial_ACC,Trial_RT,Trial_HitsCount,Trial_FAsCount,Trial_SameNoRespCount,Trial_DiffNoRespCount,Trial_NoRespCount,Trial_CDsCount,Trial_CorrectRespCount,Trial_SameLetterCount,Trial_DiffLetterCount,Trial_InvalidLetterCount,TrialCountCali,CaliEnd_A_measure,ISI_calibrated,Run,TrialIndex,TrialNumber_total,TrialNumber_valid,CueLearning,TrialDemandLearning,CueMapping,OnlineRating,OnlineRatingRT,OnlineRatingTimeOut,CueSTART,RatingSTART,OfflineRatingTimePoint,OfflineRatingQuesIndex,CueFigure,TrialDemand,OfflineRating,OfflineRatingRT,CueStart,OfflineRatingStart,PhaseType,CueLeft,CueDemandLeft,CueRight,CueDemandRight,Choice,ChoiceDemand,TaskDemand,ChoiceRT,ChoiceTimeOut,ChoiceSTART,CueCheck,CueDemandCheck,CorrectAnswer,Answer,AnswerDemand,AnswerRT,AnswerACC,AnswerTimeOut,CheckSTART,DemandRatingQuesIndex,QuesTLX,DemandLevel,DemandRating,DemandRatingRT,QuesStart,PID,SONA,Age,Gender,Run,TIME,EXPERIMENTER,frameRate,
1,./instructions/inst_begin/Slide2.png,right,13.193932497999867,0.4278447410001718,13.62177723900004,,,,,,,,,,,,,,,,,,,,,,,,,,,,,,,,,1,,,,,,,,,,,,,,,,,,,,,,,,,,,,,,,,,,,,,,,,,,,,,,48,158362,18,Female,1,2024/02/12_12:36:52,SD,59.96955573539517,
2,./instructions/inst_begin/Slide3.png,right,8.342753027000072,13.687298770000098,22.03005179700017,,,,,,,,,,,,,,,,,,,,,,,,,,,,,,,,,1,,,,,,,,,,,,,,,,,,,,,,,,,,,,,,,,,,,,,,,,,,,,,,48,158362,18,Female,1,2024/02/12_12:36:52,SD,59.96955573539517,
3,./instructions/inst_begin/Slide4.png,right,7.229899122999996,22.096024915000044,29.32592403800004,,,,,,,,,,,,,,,,,,,,,,,,,,,,,,,,,1,,,,,,,,,,,,,,,,,,,,,,,,,,,,,,,,,,,,,,,,,,,,,,48,158362,18,Female,1,2024/02/12_12:36:52,SD,59.96955573539517,
1,./instructions/inst_prac_2/Slide6.png,right,12.3641250579999,29.42575889700015,41.78988395500005,,,,,,,,,,,,,,,,,,,,,,,,,,,,,,,,,1,,,,,,,,,,,,,,,,,,,,,,,,,,,,,,,,,,,,,,,,,,,,,,48,158362,18,Female,1,2024/02/12_12:36:52,SD,59.96955573539517,
2,./instructions/inst_prac_2/Slide7.png,right,14.012122984999905,41.881874413000105,55.89399739800001,,,,,,,,,,,,,,,,,,,,,,,,,,,,,,,,,1,,,,,,,,,,,,,,,,,,,,,,,,,,,,,,,,,,,,,,,,,,,,,,48,158362,18,Female,1,2024/02/12_12:36:52,SD,59.96955573539517,
3,./instructions/inst_prac_2/Slide8.png,right,16.260367107000093,55.96952138300003,72.22988849000012,,,,,,,,,,,,,,,,,,,,,,,,,,,,,,,,,1,,,,,,,,,,,,,,,,,,,,,,,,,,,,,,,,,,,,,,,,,,,,,,48,158362,18,Female,1,2024/02/12_12:36:52,SD,59.96955573539517,
4,./instructions/inst_prac_2/Slide9.png,right,3.097103726000114,72.37239440899998,75.4694981350001,,,,,,,,,,,,,,,,,,,,,,,,,,,,,,,,,1,,,,,,,,,,,,,,,,,,,,,,,,,,,,,,,,,,,,,,,,,,,,,,48,158362,18,Female,1,2024/02/12_12:36:52,SD,59.96955573539517,
5,./instructions/inst_prac_2/Slide10.png,right,1.0339743260001342,75.53216326400002,76.56613759000015,,,,,,,,,,,,,,,,,,,,,,,,,,,,,,,,,1,,,,,,,,,,,,,,,,,,,,,,,,,,,,,,,,,,,,,,,,,,,,,,48,158362,18,Female,1,2024/02/12_12:36:52,SD,59.96955573539517,
6,./instructions/inst_prac_2/Slide11.png,right,0.9801998650000314,76.72178789999998,77.70198776500001,,,,,,,,,,,,,,,,,,,,,,,,,,,,,,,,,1,,,,,,,,,,,,,,,,,,,,,,,,,,,,,,,,,,,,,,,,,,,,,,48,158362,18,Female,1,2024/02/12_12:36:52,SD,59.96955573539517,
7,./instructions/inst_prac_2/Slide12.png,right,0.6340810619999502,77.81952965200003,78.45361071399998,,,,,,,,,,,,,,,,,,,,,,,,,,,,,,,,,1,,,,,,,,,,,,,,,,,,,,,,,,,,,,,,,,,,,,,,,,,,,,,,48,158362,18,Female,1,2024/02/12_12:36:52,SD,59.96955573539517,
6,./instructions/inst_prac_2/Slide13.png,left,1.1444426979999207,78.50165563400014,79.64609833200007,,,,,,,,,,,,,,,,,,,,,,,,,,,,,,,,,1,,,,,,,,,,,,,,,,,,,,,,,,,,,,,,,,,,,,,,,,,,,,,,48,158362,18,Female,1,2024/02/12_12:36:52,SD,59.96955573539517,
5,./instructions/inst_prac_2/Slide12.png,left,0.2004199550001431,79.67789554299998,79.87831549800012,,,,,,,,,,,,,,,,,,,,,,,,,,,,,,,,,1,,,,,,,,,,,,,,,,,,,,,,,,,,,,,,,,,,,,,,,,,,,,,,48,158362,18,Female,1,2024/02/12_12:36:52,SD,59.96955573539517,
6,./instructions/inst_prac_2/Slide11.png,right,2.24773111699983,79.91037463300017,82.15810575,,,,,,,,,,,,,,,,,,,,,,,,,,,,,,,,,1,,,,,,,,,,,,,,,,,,,,,,,,,,,,,,,,,,,,,,,,,,,,,,48,158362,18,Female,1,2024/02/12_12:36:52,SD,59.96955573539517,
7,./instructions/inst_prac_2/Slide12.png,right,0.6314640919999874,82.19848960800005,82.82995370000003,,,,,,,,,,,,,,,,,,,,,,,,,,,,,,,,,1,,,,,,,,,,,,,,,,,,,,,,,,,,,,,,,,,,,,,,,,,,,,,,48,158362,18,Female,1,2024/02/12_12:36:52,SD,59.96955573539517,
8,./instructions/inst_prac_2/Slide13.png,right,0.7512642179999602,82.87070198700007,83.62196620500004,,,,,,,,,,,,,,,,,,,,,,,,,,,,,,,,,1,,,,,,,,,,,,,,,,,,,,,,,,,,,,,,,,,,,,,,,,,,,,,,48,158362,18,Female,1,2024/02/12_12:36:52,SD,59.96955573539517,
9,./instructions/inst_prac_2/Slide14.png,right,11.262480951000043,83.6794513110001,94.94193226200014,,,,,,,,,,,,,,,,,,,,,,,,,,,,,,,,,1,,,,,,,,,,,,,,,,,,,,,,,,,,,,,,,,,,,,,,,,,,,,,,48,158362,18,Female,1,2024/02/12_12:36:52,SD,59.96955573539517,
10,./instructions/inst_prac_2/Slide15.png,right,8.497446902999855,95.00452864400017,103.50197554700003,,,,,,,,,,,,,,,,,,,,,,,,,,,,,,,,,1,,,,,,,,,,,,,,,,,,,,,,,,,,,,,,,,,,,,,,,,,,,,,,48,158362,18,Female,1,2024/02/12_12:36:52,SD,59.96955573539517,
,,,,,,practice,0,18,2,2583,1,V,0,right,1.7380031500001678,1,0,,,,,,,,,,,,,,,,,,,,,1,,,,,,,,,,,,,,,,,,,,,,,,,,,,,,,,,,,,,,,,,,,,,,48,158362,18,Female,1,2024/02/12_12:36:52,SD,59.96955573539517,
,,,,,,practice,0,18,2,2583,2,J,0,right,0.9121954819997882,1,0,,,,,,,,,,,,,,,,,,,,,1,,,,,,,,,,,,,,,,,,,,,,,,,,,,,,,,,,,,,,,,,,,,,,48,158362,18,Female,1,2024/02/12_12:36:52,SD,59.96955573539517,
,,,,,,practice,0,18,2,2583,3,V,1,left,1.0943651390000468,1,0,,,,,,,,,,,,,,,,,,,,,1,,,,,,,,,,,,,,,,,,,,,,,,,,,,,,,,,,,,,,,,,,,,,,48,158362,18,Female,1,2024/02/12_12:36:52,SD,59.96955573539517,
,,,,,,practice,0,18,2,2583,4,F,0,right,0.814062401000001,1,0,,,,,,,,,,,,,,,,,,,,,1,,,,,,,,,,,,,,,,,,,,,,,,,,,,,,,,,,,,,,,,,,,,,,48,158362,18,Female,1,2024/02/12_12:36:52,SD,59.96955573539517,
,,,,,,practice,0,18,2,2583,5,V,1,left,1.2514600780000364,1,0,,,,,,,,,,,,,,,,,,,,,1,,,,,,,,,,,,,,,,,,,,,,,,,,,,,,,,,,,,,,,,,,,,,,48,158362,18,Female,1,2024/02/12_12:36:52,SD,59.96955573539517,
,,,,,,practice,0,18,2,2583,6,X,0,right,0.8596449650001432,1,0,,,,,,,,,,,,,,,,,,,,,1,,,,,,,,,,,,,,,,,,,,,,,,,,,,,,,,,,,,,,,,,,,,,,48,158362,18,Female,1,2024/02/12_12:36:52,SD,59.96955573539517,
,,,,,,practice,0,18,2,2583,,,,,,,,1.0,1.0,0.0,1.0,0.0,1.0,1.1116218691666973,2,0,0,0,0,4,6,2,4,0,,,,1,,,,,,,,,,,,,,,,,,,,,,,,,,,,,,,,,,,,,,,,,,,,,,48,158362,18,Female,1,2024/02/12_12:36:52,SD,59.96955573539517,
1,./instructions/inst_to_cali/Slide20.png,right,7.2798839460001545,116.64601994700001,123.92590389300017,,,,,,,,,,,,,,,,,,,,,,,,,,,,,,,,,1,,,,,,,,,,,,,,,,,,,,,,,,,,,,,,,,,,,,,,,,,,,,,,48,158362,18,Female,1,2024/02/12_12:36:52,SD,59.96955573539517,
1,./instructions/inst_cali/Slide22.png,right,12.23086767399991,123.99922185600008,136.23008953,,,,,,,,,,,,,,,,,,,,,,,,,,,,,,,,,1,,,,,,,,,,,,,,,,,,,,,,,,,,,,,,,,,,,,,,,,,,,,,,48,158362,18,Female,1,2024/02/12_12:36:52,SD,59.96955573539517,
,,,,,,calibration,0,12,2,583,1,F,0,right,0.5777881310000339,1,0,,,,,,,,,,,,,,,,,,,,,1,,,,,,,,,,,,,,,,,,,,,,,,,,,,,,,,,,,,,,,,,,,,,,48,158362,18,Female,1,2024/02/12_12:36:52,SD,59.96955573539517,
,,,,,,calibration,0,12,2,583,2,X,0,right,0.6425768270000844,1,0,,,,,,,,,,,,,,,,,,,,,1,,,,,,,,,,,,,,,,,,,,,,,,,,,,,,,,,,,,,,,,,,,,,,48,158362,18,Female,1,2024/02/12_12:36:52,SD,59.96955573539517,
,,,,,,calibration,0,12,2,583,3,F,1,left,0.8756298119999428,1,0,,,,,,,,,,,,,,,,,,,,,1,,,,,,,,,,,,,,,,,,,,,,,,,,,,,,,,,,,,,,,,,,,,,,48,158362,18,Female,1,2024/02/12_12:36:52,SD,59.96955573539517,
,,,,,,calibration,0,12,2,583,4,X,1,right,0.6264967649999562,0,0,,,,,,,,,,,,,,,,,,,,,1,,,,,,,,,,,,,,,,,,,,,,,,,,,,,,,,,,,,,,,,,,,,,,48,158362,18,Female,1,2024/02/12_12:36:52,SD,59.96955573539517,
,,,,,,calibration,0,12,2,583,5,S,0,right,0.46395464099987294,1,0,,,,,,,,,,,,,,,,,,,,,1,,,,,,,,,,,,,,,,,,,,,,,,,,,,,,,,,,,,,,,,,,,,,,48,158362,18,Female,1,2024/02/12_12:36:52,SD,59.96955573539517,
,,,,,,calibration,0,12,2,583,6,X,1,left,0.4851783199999318,1,0,,,,,,,,,,,,,,,,,,,,,1,,,,,,,,,,,,,,,,,,,,,,,,,,,,,,,,,,,,,,,,,,,,,,48,158362,18,Female,1,2024/02/12_12:36:52,SD,59.96955573539517,
,,,,,,calibration,0,12,2,583,7,V,0,right,0.9012070500000391,1,0,,,,,,,,,,,,,,,,,,,,,1,,,,,,,,,,,,,,,,,,,,,,,,,,,,,,,,,,,,,,,,,,,,,,48,158362,18,Female,1,2024/02/12_12:36:52,SD,59.96955573539517,
,,,,,,calibration,0,12,2,583,8,X,1,left,0.7242709370000284,1,0,,,,,,,,,,,,,,,,,,,,,1,,,,,,,,,,,,,,,,,,,,,,,,,,,,,,,,,,,,,,,,,,,,,,48,158362,18,Female,1,2024/02/12_12:36:52,SD,59.96955573539517,
,,,,,,calibration,0,12,2,583,9,S,0,right,0.4236669509998592,1,0,,,,,,,,,,,,,,,,,,,,,1,,,,,,,,,,,,,,,,,,,,,,,,,,,,,,,,,,,,,,,,,,,,,,48,158362,18,Female,1,2024/02/12_12:36:52,SD,59.96955573539517,
,,,,,,calibration,0,12,2,583,10,C,0,right,0.48163219499997467,1,0,,,,,,,,,,,,,,,,,,,,,1,,,,,,,,,,,,,,,,,,,,,,,,,,,,,,,,,,,,,,,,,,,,,,48,158362,18,Female,1,2024/02/12_12:36:52,SD,59.96955573539517,
,,,,,,calibration,0,12,2,583,11,S,1,left,0.5831370840001,1,0,,,,,,,,,,,,,,,,,,,,,1,,,,,,,,,,,,,,,,,,,,,,,,,,,,,,,,,,,,,,,,,,,,,,48,158362,18,Female,1,2024/02/12_12:36:52,SD,59.96955573539517,
,,,,,,calibration,0,12,2,583,12,N,0,right,0.44121051599995553,1,0,,,,,,,,,,,,,,,,,,,,,1,,,,,,,,,,,,,,,,,,,,,,,,,,,,,,,,,,,,,,,,,,,,,,48,158362,18,Female,1,2024/02/12_12:36:52,SD,59.96955573539517,
,,,,,,calibration,0,12,2,583,13,X,0,right,0.659927135000089,1,0,,,,,,,,,,,,,,,,,,,,,1,,,,,,,,,,,,,,,,,,,,,,,,,,,,,,,,,,,,,,,,,,,,,,48,158362,18,Female,1,2024/02/12_12:36:52,SD,59.96955573539517,
,,,,,,calibration,0,12,2,583,14,Q,0,right,0.641090560000066,1,0,,,,,,,,,,,,,,,,,,,,,1,,,,,,,,,,,,,,,,,,,,,,,,,,,,,,,,,,,,,,,,,,,,,,48,158362,18,Female,1,2024/02/12_12:36:52,SD,59.96955573539517,
,,,,,,calibration,0,12,2,583,15,V,0,right,0.492350093000141,1,0,,,,,,,,,,,,,,,,,,,,,1,,,,,,,,,,,,,,,,,,,,,,,,,,,,,,,,,,,,,,,,,,,,,,48,158362,18,Female,1,2024/02/12_12:36:52,SD,59.96955573539517,
,,,,,,calibration,0,12,2,583,,,,,,,,0.95,0.8,0.0,1.0,0.0,1.0,0.6013411344666717,4,0,0,0,0,10,14,5,10,0,,,,1,,,,,,,,,,,,,,,,,,,,,,,,,,,,,,,,,,,,,,,,,,,,,,48,158362,18,Female,1,2024/02/12_12:36:52,SD,59.96955573539517,
,,,,,,Calibration,0,,2,583,,,,,,,,,,,,,,,,,,,,,,,,,1,,,1,,,,,,,,,,,,,,,,,,,,,,,,,,,,,,,,,,,,,,,,,,,,,,48,158362,18,Female,1,2024/02/12_12:36:52,SD,59.96955573539517,
,,,,,,calibration,0,36,2,500,1,N,0,right,0.40278319200001533,1,0,,,,,,,,,,,,,,,,,,,,,1,,,,,,,,,,,,,,,,,,,,,,,,,,,,,,,,,,,,,,,,,,,,,,48,158362,18,Female,1,2024/02/12_12:36:52,SD,59.96955573539517,
,,,,,,calibration,0,36,2,500,2,V,0,right,0.4683291410001402,1,0,,,,,,,,,,,,,,,,,,,,,1,,,,,,,,,,,,,,,,,,,,,,,,,,,,,,,,,,,,,,,,,,,,,,48,158362,18,Female,1,2024/02/12_12:36:52,SD,59.96955573539517,
,,,,,,calibration,0,36,2,500,3,N,1,left,0.3558448490000501,1,0,,,,,,,,,,,,,,,,,,,,,1,,,,,,,,,,,,,,,,,,,,,,,,,,,,,,,,,,,,,,,,,,,,,,48,158362,18,Female,1,2024/02/12_12:36:52,SD,59.96955573539517,
,,,,,,calibration,0,36,2,500,4,F,0,right,0.7241756690000329,1,0,,,,,,,,,,,,,,,,,,,,,1,,,,,,,,,,,,,,,,,,,,,,,,,,,,,,,,,,,,,,,,,,,,,,48,158362,18,Female,1,2024/02/12_12:36:52,SD,59.96955573539517,
,,,,,,calibration,0,36,2,500,5,J,0,right,0.43966924799997287,1,0,,,,,,,,,,,,,,,,,,,,,1,,,,,,,,,,,,,,,,,,,,,,,,,,,,,,,,,,,,,,,,,,,,,,48,158362,18,Female,1,2024/02/12_12:36:52,SD,59.96955573539517,
,,,,,,calibration,0,36,2,500,6,F,1,left,0.4298607460000312,1,0,,,,,,,,,,,,,,,,,,,,,1,,,,,,,,,,,,,,,,,,,,,,,,,,,,,,,,,,,,,,,,,,,,,,48,158362,18,Female,1,2024/02/12_12:36:52,SD,59.96955573539517,
,,,,,,calibration,0,36,2,500,7,J,1,right,0.7376522990000467,0,0,,,,,,,,,,,,,,,,,,,,,1,,,,,,,,,,,,,,,,,,,,,,,,,,,,,,,,,,,,,,,,,,,,,,48,158362,18,Female,1,2024/02/12_12:36:52,SD,59.96955573539517,
,,,,,,calibration,0,36,2,500,8,N,0,right,0.6476956659998905,1,0,,,,,,,,,,,,,,,,,,,,,1,,,,,,,,,,,,,,,,,,,,,,,,,,,,,,,,,,,,,,,,,,,,,,48,158362,18,Female,1,2024/02/12_12:36:52,SD,59.96955573539517,
,,,,,,calibration,0,36,2,500,9,J,1,left,0.5783427000001211,1,0,,,,,,,,,,,,,,,,,,,,,1,,,,,,,,,,,,,,,,,,,,,,,,,,,,,,,,,,,,,,,,,,,,,,48,158362,18,Female,1,2024/02/12_12:36:52,SD,59.96955573539517,
,,,,,,calibration,0,36,2,500,10,F,0,right,0.4995278609999332,1,0,,,,,,,,,,,,,,,,,,,,,1,,,,,,,,,,,,,,,,,,,,,,,,,,,,,,,,,,,,,,,,,,,,,,48,158362,18,Female,1,2024/02/12_12:36:52,SD,59.96955573539517,
,,,,,,calibration,0,36,2,500,11,Q,0,right,0.5276273889999175,1,0,,,,,,,,,,,,,,,,,,,,,1,,,,,,,,,,,,,,,,,,,,,,,,,,,,,,,,,,,,,,,,,,,,,,48,158362,18,Female,1,2024/02/12_12:36:52,SD,59.96955573539517,
,,,,,,calibration,0,36,2,500,12,X,0,right,0.4442545130000326,1,0,,,,,,,,,,,,,,,,,,,,,1,,,,,,,,,,,,,,,,,,,,,,,,,,,,,,,,,,,,,,,,,,,,,,48,158362,18,Female,1,2024/02/12_12:36:52,SD,59.96955573539517,
,,,,,,calibration,0,36,2,500,13,J,0,right,0.6379049130000567,1,0,,,,,,,,,,,,,,,,,,,,,1,,,,,,,,,,,,,,,,,,,,,,,,,,,,,,,,,,,,,,,,,,,,,,48,158362,18,Female,1,2024/02/12_12:36:52,SD,59.96955573539517,
,,,,,,calibration,0,36,2,500,14,F,0,right,0.7647431220000271,1,0,,,,,,,,,,,,,,,,,,,,,1,,,,,,,,,,,,,,,,,,,,,,,,,,,,,,,,,,,,,,,,,,,,,,48,158362,18,Female,1,2024/02/12_12:36:52,SD,59.96955573539517,
,,,,,,calibration,0,36,2,500,15,S,0,right,0.4647135039999739,1,0,,,,,,,,,,,,,,,,,,,,,1,,,,,,,,,,,,,,,,,,,,,,,,,,,,,,,,,,,,,,,,,,,,,,48,158362,18,Female,1,2024/02/12_12:36:52,SD,59.96955573539517,
,,,,,,calibration,0,36,2,500,16,X,0,right,0.4512891189999664,1,0,,,,,,,,,,,,,,,,,,,,,1,,,,,,,,,,,,,,,,,,,,,,,,,,,,,,,,,,,,,,,,,,,,,,48,158362,18,Female,1,2024/02/12_12:36:52,SD,59.96955573539517,
,,,,,,calibration,0,36,2,500,,,,,,,,0.9375,0.75,0.0,1.0,0.0,1.0,0.535900870687513,3,0,0,0,0,12,15,4,12,0,,,,1,,,,,,,,,,,,,,,,,,,,,,,,,,,,,,,,,,,,,,,,,,,,,,48,158362,18,Female,1,2024/02/12_12:36:52,SD,59.96955573539517,
,,,,,,Calibration,0,,2,500,,,,,,,,,,,,,,,,,,,,,,,,,2,,,1,,,,,,,,,,,,,,,,,,,,,,,,,,,,,,,,,,,,,,,,,,,,,,48,158362,18,Female,1,2024/02/12_12:36:52,SD,59.96955573539517,
,,,,,,calibration,0,30,2,426,1,Q,0,right,0.3320837019998635,1,0,,,,,,,,,,,,,,,,,,,,,1,,,,,,,,,,,,,,,,,,,,,,,,,,,,,,,,,,,,,,,,,,,,,,48,158362,18,Female,1,2024/02/12_12:36:52,SD,59.96955573539517,
,,,,,,calibration,0,30,2,426,2,Q,0,right,0.8267780000001039,1,0,,,,,,,,,,,,,,,,,,,,,1,,,,,,,,,,,,,,,,,,,,,,,,,,,,,,,,,,,,,,,,,,,,,,48,158362,18,Female,1,2024/02/12_12:36:52,SD,59.96955573539517,
,,,,,,calibration,0,30,2,426,3,Q,1,right,0.5265926029999264,0,0,,,,,,,,,,,,,,,,,,,,,1,,,,,,,,,,,,,,,,,,,,,,,,,,,,,,,,,,,,,,,,,,,,,,48,158362,18,Female,1,2024/02/12_12:36:52,SD,59.96955573539517,
,,,,,,calibration,0,30,2,426,4,N,0,right,0.5378041100000246,1,0,,,,,,,,,,,,,,,,,,,,,1,,,,,,,,,,,,,,,,,,,,,,,,,,,,,,,,,,,,,,,,,,,,,,48,158362,18,Female,1,2024/02/12_12:36:52,SD,59.96955573539517,
,,,,,,calibration,0,30,2,426,5,J,0,right,0.4109663570000066,1,0,,,,,,,,,,,,,,,,,,,,,1,,,,,,,,,,,,,,,,,,,,,,,,,,,,,,,,,,,,,,,,,,,,,,48,158362,18,Female,1,2024/02/12_12:36:52,SD,59.96955573539517,
,,,,,,calibration,0,30,2,426,6,X,0,right,0.45998288700002377,1,0,,,,,,,,,,,,,,,,,,,,,1,,,,,,,,,,,,,,,,,,,,,,,,,,,,,,,,,,,,,,,,,,,,,,48,158362,18,Female,1,2024/02/12_12:36:52,SD,59.96955573539517,
,,,,,,calibration,0,30,2,426,7,N,0,right,0.48323302300013893,1,0,,,,,,,,,,,,,,,,,,,,,1,,,,,,,,,,,,,,,,,,,,,,,,,,,,,,,,,,,,,,,,,,,,,,48,158362,18,Female,1,2024/02/12_12:36:52,SD,59.96955573539517,
,,,,,,calibration,0,30,2,426,8,Q,0,right,0.6975821009998526,1,0,,,,,,,,,,,,,,,,,,,,,1,,,,,,,,,,,,,,,,,,,,,,,,,,,,,,,,,,,,,,,,,,,,,,48,158362,18,Female,1,2024/02/12_12:36:52,SD,59.96955573539517,
,,,,,,calibration,0,30,2,426,9,F,0,right,0.3679491349998898,1,0,,,,,,,,,,,,,,,,,,,,,1,,,,,,,,,,,,,,,,,,,,,,,,,,,,,,,,,,,,,,,,,,,,,,48,158362,18,Female,1,2024/02/12_12:36:52,SD,59.96955573539517,
,,,,,,calibration,0,30,2,426,10,X,0,right,0.4375727569999981,1,0,,,,,,,,,,,,,,,,,,,,,1,,,,,,,,,,,,,,,,,,,,,,,,,,,,,,,,,,,,,,,,,,,,,,48,158362,18,Female,1,2024/02/12_12:36:52,SD,59.96955573539517,
,,,,,,calibration,0,30,2,426,11,S,0,right,0.5335137439999471,1,0,,,,,,,,,,,,,,,,,,,,,1,,,,,,,,,,,,,,,,,,,,,,,,,,,,,,,,,,,,,,,,,,,,,,48,158362,18,Female,1,2024/02/12_12:36:52,SD,59.96955573539517,
,,,,,,calibration,0,30,2,426,12,X,1,right,0.6309693450000395,0,0,,,,,,,,,,,,,,,,,,,,,1,,,,,,,,,,,,,,,,,,,,,,,,,,,,,,,,,,,,,,,,,,,,,,48,158362,18,Female,1,2024/02/12_12:36:52,SD,59.96955573539517,
,,,,,,calibration,0,30,2,426,13,S,1,left,0.5285310819999722,1,0,,,,,,,,,,,,,,,,,,,,,1,,,,,,,,,,,,,,,,,,,,,,,,,,,,,,,,,,,,,,,,,,,,,,48,158362,18,Female,1,2024/02/12_12:36:52,SD,59.96955573539517,
,,,,,,calibration,0,30,2,426,14,V,0,right,0.4194402900000114,1,0,,,,,,,,,,,,,,,,,,,,,1,,,,,,,,,,,,,,,,,,,,,,,,,,,,,,,,,,,,,,,,,,,,,,48,158362,18,Female,1,2024/02/12_12:36:52,SD,59.96955573539517,
,,,,,,calibration,0,30,2,426,15,J,0,right,0.44080310300000747,1,0,,,,,,,,,,,,,,,,,,,,,1,,,,,,,,,,,,,,,,,,,,,,,,,,,,,,,,,,,,,,,,,,,,,,48,158362,18,Female,1,2024/02/12_12:36:52,SD,59.96955573539517,
,,,,,,calibration,0,30,2,426,16,V,1,left,0.3908422189999783,1,0,,,,,,,,,,,,,,,,,,,,,1,,,,,,,,,,,,,,,,,,,,,,,,,,,,,,,,,,,,,,,,,,,,,,48,158362,18,Female,1,2024/02/12_12:36:52,SD,59.96955573539517,
,,,,,,calibration,0,30,2,426,17,J,1,right,0.5268774779999603,0,0,,,,,,,,,,,,,,,,,,,,,1,,,,,,,,,,,,,,,,,,,,,,,,,,,,,,,,,,,,,,,,,,,,,,48,158362,18,Female,1,2024/02/12_12:36:52,SD,59.96955573539517,
,,,,,,calibration,0,30,2,426,,,,,,,,0.85,0.4,0.0,1.0,0.0,1.0,0.503030702117632,2,0,0,0,0,12,14,5,12,0,,,,1,,,,,,,,,,,,,,,,,,,,,,,,,,,,,,,,,,,,,,,,,,,,,,48,158362,18,Female,1,2024/02/12_12:36:52,SD,59.96955573539517,
,,,,,,Calibration,0,,2,426,,,,,,,,,,,,,,,,,,,,,,,,,3,,,1,,,,,,,,,,,,,,,,,,,,,,,,,,,,,,,,,,,,,,,,,,,,,,48,158362,18,Female,1,2024/02/12_12:36:52,SD,59.96955573539517,
,,,,,,calibration,0,29,2,426,1,N,0,right,0.36786964299994906,1,0,,,,,,,,,,,,,,,,,,,,,1,,,,,,,,,,,,,,,,,,,,,,,,,,,,,,,,,,,,,,,,,,,,,,48,158362,18,Female,1,2024/02/12_12:36:52,SD,59.96955573539517,
,,,,,,calibration,0,29,2,426,2,V,0,right,0.3977655200001209,1,0,,,,,,,,,,,,,,,,,,,,,1,,,,,,,,,,,,,,,,,,,,,,,,,,,,,,,,,,,,,,,,,,,,,,48,158362,18,Female,1,2024/02/12_12:36:52,SD,59.96955573539517,
,,,,,,calibration,0,29,2,426,3,F,0,right,0.3917273029999251,1,0,,,,,,,,,,,,,,,,,,,,,1,,,,,,,,,,,,,,,,,,,,,,,,,,,,,,,,,,,,,,,,,,,,,,48,158362,18,Female,1,2024/02/12_12:36:52,SD,59.96955573539517,
,,,,,,calibration,0,29,2,426,4,J,0,right,0.4190007610000066,1,0,,,,,,,,,,,,,,,,,,,,,1,,,,,,,,,,,,,,,,,,,,,,,,,,,,,,,,,,,,,,,,,,,,,,48,158362,18,Female,1,2024/02/12_12:36:52,SD,59.96955573539517,
,,,,,,calibration,0,29,2,426,5,V,0,right,0.3995597129999169,1,0,,,,,,,,,,,,,,,,,,,,,1,,,,,,,,,,,,,,,,,,,,,,,,,,,,,,,,,,,,,,,,,,,,,,48,158362,18,Female,1,2024/02/12_12:36:52,SD,59.96955573539517,
,,,,,,calibration,0,29,2,426,6,F,0,left,0.4835842979998688,0,0,,,,,,,,,,,,,,,,,,,,,1,,,,,,,,,,,,,,,,,,,,,,,,,,,,,,,,,,,,,,,,,,,,,,48,158362,18,Female,1,2024/02/12_12:36:52,SD,59.96955573539517,
,,,,,,calibration,0,29,2,426,7,V,1,right,0.7454272649999893,0,0,,,,,,,,,,,,,,,,,,,,,1,,,,,,,,,,,,,,,,,,,,,,,,,,,,,,,,,,,,,,,,,,,,,,48,158362,18,Female,1,2024/02/12_12:36:52,SD,59.96955573539517,
,,,,,,calibration,0,29,2,426,8,C,0,right,0.7621856920000027,1,0,,,,,,,,,,,,,,,,,,,,,1,,,,,,,,,,,,,,,,,,,,,,,,,,,,,,,,,,,,,,,,,,,,,,48,158362,18,Female,1,2024/02/12_12:36:52,SD,59.96955573539517,
,,,,,,calibration,0,29,2,426,9,S,0,right,0.48133609499996055,1,0,,,,,,,,,,,,,,,,,,,,,1,,,,,,,,,,,,,,,,,,,,,,,,,,,,,,,,,,,,,,,,,,,,,,48,158362,18,Female,1,2024/02/12_12:36:52,SD,59.96955573539517,
,,,,,,calibration,0,29,2,426,10,V,0,right,0.4710731800000758,1,0,,,,,,,,,,,,,,,,,,,,,1,,,,,,,,,,,,,,,,,,,,,,,,,,,,,,,,,,,,,,,,,,,,,,48,158362,18,Female,1,2024/02/12_12:36:52,SD,59.96955573539517,
,,,,,,calibration,0,29,2,426,11,S,1,left,0.3979884929999571,1,0,,,,,,,,,,,,,,,,,,,,,1,,,,,,,,,,,,,,,,,,,,,,,,,,,,,,,,,,,,,,,,,,,,,,48,158362,18,Female,1,2024/02/12_12:36:52,SD,59.96955573539517,
,,,,,,calibration,0,29,2,426,12,V,1,left,0.5948496250000517,1,0,,,,,,,,,,,,,,,,,,,,,1,,,,,,,,,,,,,,,,,,,,,,,,,,,,,,,,,,,,,,,,,,,,,,48,158362,18,Female,1,2024/02/12_12:36:52,SD,59.96955573539517,
,,,,,,calibration,0,29,2,426,13,C,0,right,0.5260576059999948,1,0,,,,,,,,,,,,,,,,,,,,,1,,,,,,,,,,,,,,,,,,,,,,,,,,,,,,,,,,,,,,,,,,,,,,48,158362,18,Female,1,2024/02/12_12:36:52,SD,59.96955573539517,
,,,,,,calibration,0,29,2,426,14,X,0,right,0.511860181999964,1,0,,,,,,,,,,,,,,,,,,,,,1,,,,,,,,,,,,,,,,,,,,,,,,,,,,,,,,,,,,,,,,,,,,,,48,158362,18,Female,1,2024/02/12_12:36:52,SD,59.96955573539517,
,,,,,,calibration,0,29,2,426,15,C,1,left,0.4370481490000202,1,0,,,,,,,,,,,,,,,,,,,,,1,,,,,,,,,,,,,,,,,,,,,,,,,,,,,,,,,,,,,,,,,,,,,,48,158362,18,Female,1,2024/02/12_12:36:52,SD,59.96955573539517,
,,,,,,calibration,0,29,2,426,16,V,0,right,0.5582577059999494,1,0,,,,,,,,,,,,,,,,,,,,,1,,,,,,,,,,,,,,,,,,,,,,,,,,,,,,,,,,,,,,,,,,,,,,48,158362,18,Female,1,2024/02/12_12:36:52,SD,59.96955573539517,
,,,,,,calibration,0,29,2,426,17,C,1,right,0.5276871949999986,0,0,,,,,,,,,,,,,,,,,,,,,1,,,,,,,,,,,,,,,,,,,,,,,,,,,,,,,,,,,,,,,,,,,,,,48,158362,18,Female,1,2024/02/12_12:36:52,SD,59.96955573539517,
,,,,,,calibration,0,29,2,426,,,,,,,,0.8458333333333333,0.6,0.08333333333333333,0.9166666666666666,0.0,0.9166666666666666,0.4984281427058677,3,1,0,0,0,11,14,5,12,0,,,,1,,,,,,,,,,,,,,,,,,,,,,,,,,,,,,,,,,,,,,,,,,,,,,48,158362,18,Female,1,2024/02/12_12:36:52,SD,59.96955573539517,
,,,,,,Calibration,0,,2,426,,,,,,,,,,,,,,,,,,,,,,,,,4,,,1,,,,,,,,,,,,,,,,,,,,,,,,,,,,,,,,,,,,,,,,,,,,,,48,158362,18,Female,1,2024/02/12_12:36:52,SD,59.96955573539517,
,,,,,,calibration,0,12,2,426,1,C,0,right,0.22329465100006018,1,0,,,,,,,,,,,,,,,,,,,,,1,,,,,,,,,,,,,,,,,,,,,,,,,,,,,,,,,,,,,,,,,,,,,,48,158362,18,Female,1,2024/02/12_12:36:52,SD,59.96955573539517,
,,,,,,calibration,0,12,2,426,2,V,0,right,0.3745631089998369,1,0,,,,,,,,,,,,,,,,,,,,,1,,,,,,,,,,,,,,,,,,,,,,,,,,,,,,,,,,,,,,,,,,,,,,48,158362,18,Female,1,2024/02/12_12:36:52,SD,59.96955573539517,
,,,,,,calibration,0,12,2,426,3,F,0,right,0.38747156999988874,1,0,,,,,,,,,,,,,,,,,,,,,1,,,,,,,,,,,,,,,,,,,,,,,,,,,,,,,,,,,,,,,,,,,,,,48,158362,18,Female,1,2024/02/12_12:36:52,SD,59.96955573539517,
,,,,,,calibration,0,12,2,426,4,S,0,right,0.3576950849999321,1,0,,,,,,,,,,,,,,,,,,,,,1,,,,,,,,,,,,,,,,,,,,,,,,,,,,,,,,,,,,,,,,,,,,,,48,158362,18,Female,1,2024/02/12_12:36:52,SD,59.96955573539517,
,,,,,,calibration,0,12,2,426,5,Q,0,right,0.3547715629999857,1,0,,,,,,,,,,,,,,,,,,,,,1,,,,,,,,,,,,,,,,,,,,,,,,,,,,,,,,,,,,,,,,,,,,,,48,158362,18,Female,1,2024/02/12_12:36:52,SD,59.96955573539517,
,,,,,,calibration,0,12,2,426,6,N,0,right,0.38981072799992944,1,0,,,,,,,,,,,,,,,,,,,,,1,,,,,,,,,,,,,,,,,,,,,,,,,,,,,,,,,,,,,,,,,,,,,,48,158362,18,Female,1,2024/02/12_12:36:52,SD,59.96955573539517,
,,,,,,calibration,0,12,2,426,7,Q,1,right,0.6931328089999624,0,0,,,,,,,,,,,,,,,,,,,,,1,,,,,,,,,,,,,,,,,,,,,,,,,,,,,,,,,,,,,,,,,,,,,,48,158362,18,Female,1,2024/02/12_12:36:52,SD,59.96955573539517,
,,,,,,calibration,0,12,2,426,8,N,1,left,0.5820112789999712,1,0,,,,,,,,,,,,,,,,,,,,,1,,,,,,,,,,,,,,,,,,,,,,,,,,,,,,,,,,,,,,,,,,,,,,48,158362,18,Female,1,2024/02/12_12:36:52,SD,59.96955573539517,
,,,,,,calibration,0,12,2,426,9,V,0,right,0.2334074640000381,1,0,,,,,,,,,,,,,,,,,,,,,1,,,,,,,,,,,,,,,,,,,,,,,,,,,,,,,,,,,,,,,,,,,,,,48,158362,18,Female,1,2024/02/12_12:36:52,SD,59.96955573539517,
,,,,,,calibration,0,12,2,426,10,F,0,right,0.23628967200011175,1,0,,,,,,,,,,,,,,,,,,,,,1,,,,,,,,,,,,,,,,,,,,,,,,,,,,,,,,,,,,,,,,,,,,,,48,158362,18,Female,1,2024/02/12_12:36:52,SD,59.96955573539517,
,,,,,,calibration,0,12,2,426,11,S,0,right,0.44424569800003155,1,0,,,,,,,,,,,,,,,,,,,,,1,,,,,,,,,,,,,,,,,,,,,,,,,,,,,,,,,,,,,,,,,,,,,,48,158362,18,Female,1,2024/02/12_12:36:52,SD,59.96955573539517,
,,,,,,calibration,0,12,2,426,12,F,1,left,0.4394121790001009,1,0,,,,,,,,,,,,,,,,,,,,,1,,,,,,,,,,,,,,,,,,,,,,,,,,,,,,,,,,,,,,,,,,,,,,48,158362,18,Female,1,2024/02/12_12:36:52,SD,59.96955573539517,
,,,,,,calibration,0,12,2,426,13,X,0,right,0.21963656599996284,1,0,,,,,,,,,,,,,,,,,,,,,1,,,,,,,,,,,,,,,,,,,,,,,,,,,,,,,,,,,,,,,,,,,,,,48,158362,18,Female,1,2024/02/12_12:36:52,SD,59.96955573539517,
,,,,,,calibration,0,12,2,426,14,F,1,right,0.5951964649998445,0,0,,,,,,,,,,,,,,,,,,,,,1,,,,,,,,,,,,,,,,,,,,,,,,,,,,,,,,,,,,,,,,,,,,,,48,158362,18,Female,1,2024/02/12_12:36:52,SD,59.96955573539517,
,,,,,,calibration,0,12,2,426,15,C,0,right,0.5828168969999297,1,0,,,,,,,,,,,,,,,,,,,,,1,,,,,,,,,,,,,,,,,,,,,,,,,,,,,,,,,,,,,,,,,,,,,,48,158362,18,Female,1,2024/02/12_12:36:52,SD,59.96955573539517,
,,,,,,calibration,0,12,2,426,16,F,1,left,0.5932131140000365,1,0,,,,,,,,,,,,,,,,,,,,,1,,,,,,,,,,,,,,,,,,,,,,,,,,,,,,,,,,,,,,,,,,,,,,48,158362,18,Female,1,2024/02/12_12:36:52,SD,59.96955573539517,
,,,,,,calibration,0,12,2,426,17,X,0,right,0.1951325980001002,1,0,,,,,,,,,,,,,,,,,,,,,1,,,,,,,,,,,,,,,,,,,,,,,,,,,,,,,,,,,,,,,,,,,,,,48,158362,18,Female,1,2024/02/12_12:36:52,SD,59.96955573539517,
,,,,,,calibration,0,12,2,426,,,,,,,,0.9,0.6,0.0,1.0,0.0,1.0,0.40600596747057194,3,0,0,0,0,12,15,5,12,0,,,,1,,,,,,,,,,,,,,,,,,,,,,,,,,,,,,,,,,,,,,,,,,,,,,48,158362,18,Female,1,2024/02/12_12:36:52,SD,59.96955573539517,
,,,,,,Calibration,0,,2,426,,,,,,,,,,,,,,,,,,,,,,,,,5,,,1,,,,,,,,,,,,,,,,,,,,,,,,,,,,,,,,,,,,,,,,,,,,,,48,158362,18,Female,1,2024/02/12_12:36:52,SD,59.96955573539517,
,,,,,,calibration,0,12,2,361,1,V,0,right,0.2949142429999938,1,0,,,,,,,,,,,,,,,,,,,,,1,,,,,,,,,,,,,,,,,,,,,,,,,,,,,,,,,,,,,,,,,,,,,,48,158362,18,Female,1,2024/02/12_12:36:52,SD,59.96955573539517,
,,,,,,calibration,0,12,2,361,2,X,0,right,0.3778331830001207,1,0,,,,,,,,,,,,,,,,,,,,,1,,,,,,,,,,,,,,,,,,,,,,,,,,,,,,,,,,,,,,,,,,,,,,48,158362,18,Female,1,2024/02/12_12:36:52,SD,59.96955573539517,
,,,,,,calibration,0,12,2,361,3,C,0,right,0.3578204689999893,1,0,,,,,,,,,,,,,,,,,,,,,1,,,,,,,,,,,,,,,,,,,,,,,,,,,,,,,,,,,,,,,,,,,,,,48,158362,18,Female,1,2024/02/12_12:36:52,SD,59.96955573539517,
,,,,,,calibration,0,12,2,361,4,X,1,left,0.6581403659999978,1,0,,,,,,,,,,,,,,,,,,,,,1,,,,,,,,,,,,,,,,,,,,,,,,,,,,,,,,,,,,,,,,,,,,,,48,158362,18,Female,1,2024/02/12_12:36:52,SD,59.96955573539517,
,,,,,,calibration,0,12,2,361,5,J,0,right,0.29204626000000644,1,0,,,,,,,,,,,,,,,,,,,,,1,,,,,,,,,,,,,,,,,,,,,,,,,,,,,,,,,,,,,,,,,,,,,,48,158362,18,Female,1,2024/02/12_12:36:52,SD,59.96955573539517,
,,,,,,calibration,0,12,2,361,6,Q,0,right,0.32481118600003356,1,0,,,,,,,,,,,,,,,,,,,,,1,,,,,,,,,,,,,,,,,,,,,,,,,,,,,,,,,,,,,,,,,,,,,,48,158362,18,Female,1,2024/02/12_12:36:52,SD,59.96955573539517,
,,,,,,calibration,0,12,2,361,7,J,1,left,0.5597406959998352,1,0,,,,,,,,,,,,,,,,,,,,,1,,,,,,,,,,,,,,,,,,,,,,,,,,,,,,,,,,,,,,,,,,,,,,48,158362,18,Female,1,2024/02/12_12:36:52,SD,59.96955573539517,
,,,,,,calibration,0,12,2,361,8,S,0,right,0.2697448129999884,1,0,,,,,,,,,,,,,,,,,,,,,1,,,,,,,,,,,,,,,,,,,,,,,,,,,,,,,,,,,,,,,,,,,,,,48,158362,18,Female,1,2024/02/12_12:36:52,SD,59.96955573539517,
,,,,,,calibration,0,12,2,361,9,C,0,right,0.26971088400000554,1,0,,,,,,,,,,,,,,,,,,,,,1,,,,,,,,,,,,,,,,,,,,,,,,,,,,,,,,,,,,,,,,,,,,,,48,158362,18,Female,1,2024/02/12_12:36:52,SD,59.96955573539517,
,,,,,,calibration,0,12,2,361,10,N,0,right,0.5142956079998839,1,0,,,,,,,,,,,,,,,,,,,,,1,,,,,,,,,,,,,,,,,,,,,,,,,,,,,,,,,,,,,,,,,,,,,,48,158362,18,Female,1,2024/02/12_12:36:52,SD,59.96955573539517,
,,,,,,calibration,0,12,2,361,11,J,0,right,0.5968033890001152,1,0,,,,,,,,,,,,,,,,,,,,,1,,,,,,,,,,,,,,,,,,,,,,,,,,,,,,,,,,,,,,,,,,,,,,48,158362,18,Female,1,2024/02/12_12:36:52,SD,59.96955573539517,
,,,,,,calibration,0,12,2,361,12,Q,0,right,0.4580845779998981,1,0,,,,,,,,,,,,,,,,,,,,,1,,,,,,,,,,,,,,,,,,,,,,,,,,,,,,,,,,,,,,,,,,,,,,48,158362,18,Female,1,2024/02/12_12:36:52,SD,59.96955573539517,
,,,,,,calibration,0,12,2,361,13,J,1,left,0.593188876999875,1,0,,,,,,,,,,,,,,,,,,,,,1,,,,,,,,,,,,,,,,,,,,,,,,,,,,,,,,,,,,,,,,,,,,,,48,158362,18,Female,1,2024/02/12_12:36:52,SD,59.96955573539517,
,,,,,,calibration,0,12,2,361,14,Q,1,right,0.2505604000000403,0,0,,,,,,,,,,,,,,,,,,,,,1,,,,,,,,,,,,,,,,,,,,,,,,,,,,,,,,,,,,,,,,,,,,,,48,158362,18,Female,1,2024/02/12_12:36:52,SD,59.96955573539517,
,,,,,,calibration,0,12,2,361,15,F,0,left,0.0,0,0,,,,,,,,,,,,,,,,,,,,,1,,,,,,,,,,,,,,,,,,,,,,,,,,,,,,,,,,,,,,,,,,,,,,48,158362,18,Female,1,2024/02/12_12:36:52,SD,59.96955573539517,
,,,,,,calibration,0,12,2,361,16,Q,1,right,0.0,0,0,,,,,,,,,,,,,,,,,,,,,1,,,,,,,,,,,,,,,,,,,,,,,,,,,,,,,,,,,,,,,,,,,,,,48,158362,18,Female,1,2024/02/12_12:36:52,SD,59.96955573539517,
,,,,,,calibration,0,12,2,361,17,V,0,right,nan,0,1,,,,,,,,,,,,,,,,,,,,,1,,,,,,,,,,,,,,,,,,,,,,,,,,,,,,,,,,,,,,,,,,,,,,48,158362,18,Female,1,2024/02/12_12:36:52,SD,59.96955573539517,
,,,,,,calibration,0,12,2,361,18,S,0,right,0.29846614899997803,1,0,,,,,,,,,,,,,,,,,,,,,1,,,,,,,,,,,,,,,,,,,,,,,,,,,,,,,,,,,,,,,,,,,,,,48,158362,18,Female,1,2024/02/12_12:36:52,SD,59.96955573539517,
,,,,,,calibration,0,12,2,361,,,,,,,,0.85,0.6,0.07692307692307693,0.9166666666666666,0.05555555555555555,0.8675213675213675,0.3597741824117507,3,1,0,1,1,11,14,5,13,0,,,,1,,,,,,,,,,,,,,,,,,,,,,,,,,,,,,,,,,,,,,,,,,,,,,48,158362,18,Female,1,2024/02/12_12:36:52,SD,59.96955573539517,
,,,,,,Calibration,0,,2,361,,,,,,,,,,,,,,,,,,,,,,,,,6,,,1,,,,,,,,,,,,,,,,,,,,,,,,,,,,,,,,,,,,,,,,,,,,,,48,158362,18,Female,1,2024/02/12_12:36:52,SD,59.96955573539517,
,,,,,,calibration,0,1,2,361,1,V,0,right,0.6566364380000778,1,0,,,,,,,,,,,,,,,,,,,,,1,,,,,,,,,,,,,,,,,,,,,,,,,,,,,,,,,,,,,,,,,,,,,,48,158362,18,Female,1,2024/02/12_12:36:52,SD,59.96955573539517,
,,,,,,calibration,0,1,2,361,2,J,0,right,0.3458362289998149,1,0,,,,,,,,,,,,,,,,,,,,,1,,,,,,,,,,,,,,,,,,,,,,,,,,,,,,,,,,,,,,,,,,,,,,48,158362,18,Female,1,2024/02/12_12:36:52,SD,59.96955573539517,
,,,,,,calibration,0,1,2,361,3,N,0,right,0.38174823500003185,1,0,,,,,,,,,,,,,,,,,,,,,1,,,,,,,,,,,,,,,,,,,,,,,,,,,,,,,,,,,,,,,,,,,,,,48,158362,18,Female,1,2024/02/12_12:36:52,SD,59.96955573539517,
,,,,,,calibration,0,1,2,361,4,J,1,left,0.4230658599999515,1,0,,,,,,,,,,,,,,,,,,,,,1,,,,,,,,,,,,,,,,,,,,,,,,,,,,,,,,,,,,,,,,,,,,,,48,158362,18,Female,1,2024/02/12_12:36:52,SD,59.96955573539517,
,,,,,,calibration,0,1,2,361,5,N,1,right,0.21707807300003878,0,0,,,,,,,,,,,,,,,,,,,,,1,,,,,,,,,,,,,,,,,,,,,,,,,,,,,,,,,,,,,,,,,,,,,,48,158362,18,Female,1,2024/02/12_12:36:52,SD,59.96955573539517,
,,,,,,calibration,0,1,2,361,6,X,0,right,0.5003790149999077,1,0,,,,,,,,,,,,,,,,,,,,,1,,,,,,,,,,,,,,,,,,,,,,,,,,,,,,,,,,,,,,,,,,,,,,48,158362,18,Female,1,2024/02/12_12:36:52,SD,59.96955573539517,
,,,,,,calibration,0,1,2,361,7,S,0,right,0.5805753580000328,1,0,,,,,,,,,,,,,,,,,,,,,1,,,,,,,,,,,,,,,,,,,,,,,,,,,,,,,,,,,,,,,,,,,,,,48,158362,18,Female,1,2024/02/12_12:36:52,SD,59.96955573539517,
,,,,,,calibration,0,1,2,361,8,N,0,right,0.7790913950000231,1,0,,,,,,,,,,,,,,,,,,,,,1,,,,,,,,,,,,,,,,,,,,,,,,,,,,,,,,,,,,,,,,,,,,,,48,158362,18,Female,1,2024/02/12_12:36:52,SD,59.96955573539517,
,,,,,,calibration,0,1,2,361,9,V,0,right,0.610524094000084,1,0,,,,,,,,,,,,,,,,,,,,,1,,,,,,,,,,,,,,,,,,,,,,,,,,,,,,,,,,,,,,,,,,,,,,48,158362,18,Female,1,2024/02/12_12:36:52,SD,59.96955573539517,
,,,,,,calibration,0,1,2,361,10,N,1,right,0.9301908340000864,0,0,,,,,,,,,,,,,,,,,,,,,1,,,,,,,,,,,,,,,,,,,,,,,,,,,,,,,,,,,,,,,,,,,,,,48,158362,18,Female,1,2024/02/12_12:36:52,SD,59.96955573539517,
,,,,,,calibration,0,1,2,361,11,V,1,left,0.3539271590000226,1,0,,,,,,,,,,,,,,,,,,,,,1,,,,,,,,,,,,,,,,,,,,,,,,,,,,,,,,,,,,,,,,,,,,,,48,158362,18,Female,1,2024/02/12_12:36:52,SD,59.96955573539517,
,,,,,,calibration,0,1,2,361,12,F,0,right,0.46152436200009106,1,0,,,,,,,,,,,,,,,,,,,,,1,,,,,,,,,,,,,,,,,,,,,,,,,,,,,,,,,,,,,,,,,,,,,,48,158362,18,Female,1,2024/02/12_12:36:52,SD,59.96955573539517,
,,,,,,calibration,0,1,2,361,13,V,1,right,nan,0,1,,,,,,,,,,,,,,,,,,,,,1,,,,,,,,,,,,,,,,,,,,,,,,,,,,,,,,,,,,,,,,,,,,,,48,158362,18,Female,1,2024/02/12_12:36:52,SD,59.96955573539517,
,,,,,,calibration,0,1,2,361,14,C,0,right,0.5623007639999287,1,0,,,,,,,,,,,,,,,,,,,,,1,,,,,,,,,,,,,,,,,,,,,,,,,,,,,,,,,,,,,,,,,,,,,,48,158362,18,Female,1,2024/02/12_12:36:52,SD,59.96955573539517,
,,,,,,calibration,0,1,2,361,15,V,1,right,nan,0,1,,,,,,,,,,,,,,,,,,,,,1,,,,,,,,,,,,,,,,,,,,,,,,,,,,,,,,,,,,,,,,,,,,,,48,158362,18,Female,1,2024/02/12_12:36:52,SD,59.96955573539517,
,,,,,,calibration,0,1,2,361,16,S,0,right,0.9762601910001649,1,0,,,,,,,,,,,,,,,,,,,,,1,,,,,,,,,,,,,,,,,,,,,,,,,,,,,,,,,,,,,,,,,,,,,,48,158362,18,Female,1,2024/02/12_12:36:52,SD,59.96955573539517,
,,,,,,calibration,0,1,2,361,17,N,0,right,0.9434225649999917,1,0,,,,,,,,,,,,,,,,,,,,,1,,,,,,,,,,,,,,,,,,,,,,,,,,,,,,,,,,,,,,,,,,,,,,48,158362,18,Female,1,2024/02/12_12:36:52,SD,59.96955573539517,
,,,,,,calibration,0,1,2,361,18,J,0,right,0.6802061749999666,1,0,,,,,,,,,,,,,,,,,,,,,1,,,,,,,,,,,,,,,,,,,,,,,,,,,,,,,,,,,,,,,,,,,,,,48,158362,18,Female,1,2024/02/12_12:36:52,SD,59.96955573539517,
,,,,,,calibration,0,1,2,361,,,,,,,,0.8333333333333334,0.3333333333333333,0.0,1.0,0.1111111111111111,0.8888888888888888,0.5876729216875134,2,0,2,0,2,12,14,6,12,0,,,,1,,,,,,,,,,,,,,,,,,,,,,,,,,,,,,,,,,,,,,,,,,,,,,48,158362,18,Female,1,2024/02/12_12:36:52,SD,59.96955573539517,
,,,,,,Calibration,0,,2,361,,,,,,,,,,,,,,,,,,,,,,,,,7,,,1,,,,,,,,,,,,,,,,,,,,,,,,,,,,,,,,,,,,,,,,,,,,,,48,158362,18,Female,1,2024/02/12_12:36:52,SD,59.96955573539517,
,,,,,,calibration,0,10,2,361,1,X,0,right,0.49806995699987056,1,0,,,,,,,,,,,,,,,,,,,,,1,,,,,,,,,,,,,,,,,,,,,,,,,,,,,,,,,,,,,,,,,,,,,,48,158362,18,Female,1,2024/02/12_12:36:52,SD,59.96955573539517,
,,,,,,calibration,0,10,2,361,2,X,0,right,0.8324253759999465,1,0,,,,,,,,,,,,,,,,,,,,,1,,,,,,,,,,,,,,,,,,,,,,,,,,,,,,,,,,,,,,,,,,,,,,48,158362,18,Female,1,2024/02/12_12:36:52,SD,59.96955573539517,
,,,,,,calibration,0,10,2,361,3,X,1,left,0.514053874999945,1,0,,,,,,,,,,,,,,,,,,,,,1,,,,,,,,,,,,,,,,,,,,,,,,,,,,,,,,,,,,,,,,,,,,,,48,158362,18,Female,1,2024/02/12_12:36:52,SD,59.96955573539517,
,,,,,,calibration,0,10,2,361,4,N,0,right,0.5142174929999328,1,0,,,,,,,,,,,,,,,,,,,,,1,,,,,,,,,,,,,,,,,,,,,,,,,,,,,,,,,,,,,,,,,,,,,,48,158362,18,Female,1,2024/02/12_12:36:52,SD,59.96955573539517,
,,,,,,calibration,0,10,2,361,5,Q,0,right,0.4577826150000419,1,0,,,,,,,,,,,,,,,,,,,,,1,,,,,,,,,,,,,,,,,,,,,,,,,,,,,,,,,,,,,,,,,,,,,,48,158362,18,Female,1,2024/02/12_12:36:52,SD,59.96955573539517,
,,,,,,calibration,0,10,2,361,6,F,0,right,0.48200576899989755,1,0,,,,,,,,,,,,,,,,,,,,,1,,,,,,,,,,,,,,,,,,,,,,,,,,,,,,,,,,,,,,,,,,,,,,48,158362,18,Female,1,2024/02/12_12:36:52,SD,59.96955573539517,
,,,,,,calibration,0,10,2,361,7,N,0,right,0.6628937920002045,1,0,,,,,,,,,,,,,,,,,,,,,1,,,,,,,,,,,,,,,,,,,,,,,,,,,,,,,,,,,,,,,,,,,,,,48,158362,18,Female,1,2024/02/12_12:36:52,SD,59.96955573539517,
,,,,,,calibration,0,10,2,361,8,F,1,left,0.6433499999998276,1,0,,,,,,,,,,,,,,,,,,,,,1,,,,,,,,,,,,,,,,,,,,,,,,,,,,,,,,,,,,,,,,,,,,,,48,158362,18,Female,1,2024/02/12_12:36:52,SD,59.96955573539517,
,,,,,,calibration,0,10,2,361,9,N,1,left,0.9923100819999036,1,0,,,,,,,,,,,,,,,,,,,,,1,,,,,,,,,,,,,,,,,,,,,,,,,,,,,,,,,,,,,,,,,,,,,,48,158362,18,Female,1,2024/02/12_12:36:52,SD,59.96955573539517,
,,,,,,calibration,0,10,2,361,10,V,0,right,0.7464141410000593,1,0,,,,,,,,,,,,,,,,,,,,,1,,,,,,,,,,,,,,,,,,,,,,,,,,,,,,,,,,,,,,,,,,,,,,48,158362,18,Female,1,2024/02/12_12:36:52,SD,59.96955573539517,
,,,,,,calibration,0,10,2,361,11,F,0,right,0.4587072120000357,1,0,,,,,,,,,,,,,,,,,,,,,1,,,,,,,,,,,,,,,,,,,,,,,,,,,,,,,,,,,,,,,,,,,,,,48,158362,18,Female,1,2024/02/12_12:36:52,SD,59.96955573539517,
,,,,,,calibration,0,10,2,361,12,V,1,left,0.5550151019999703,1,0,,,,,,,,,,,,,,,,,,,,,1,,,,,,,,,,,,,,,,,,,,,,,,,,,,,,,,,,,,,,,,,,,,,,48,158362,18,Female,1,2024/02/12_12:36:52,SD,59.96955573539517,
,,,,,,calibration,0,10,2,361,13,Q,0,right,0.5141766700000971,1,0,,,,,,,,,,,,,,,,,,,,,1,,,,,,,,,,,,,,,,,,,,,,,,,,,,,,,,,,,,,,,,,,,,,,48,158362,18,Female,1,2024/02/12_12:36:52,SD,59.96955573539517,
,,,,,,calibration,0,10,2,361,14,N,0,right,0.4367619670001659,1,0,,,,,,,,,,,,,,,,,,,,,1,,,,,,,,,,,,,,,,,,,,,,,,,,,,,,,,,,,,,,,,,,,,,,48,158362,18,Female,1,2024/02/12_12:36:52,SD,59.96955573539517,
,,,,,,calibration,0,10,2,361,15,X,0,right,0.43065951400012636,1,0,,,,,,,,,,,,,,,,,,,,,1,,,,,,,,,,,,,,,,,,,,,,,,,,,,,,,,,,,,,,,,,,,,,,48,158362,18,Female,1,2024/02/12_12:36:52,SD,59.96955573539517,
,,,,,,calibration,0,10,2,361,16,S,0,right,0.4442065129999264,1,0,,,,,,,,,,,,,,,,,,,,,1,,,,,,,,,,,,,,,,,,,,,,,,,,,,,,,,,,,,,,,,,,,,,,48,158362,18,Female,1,2024/02/12_12:36:52,SD,59.96955573539517,
,,,,,,calibration,0,10,2,361,17,X,1,left,0.47052859000018543,1,0,,,,,,,,,,,,,,,,,,,,,1,,,,,,,,,,,,,,,,,,,,,,,,,,,,,,,,,,,,,,,,,,,,,,48,158362,18,Female,1,2024/02/12_12:36:52,SD,59.96955573539517,
,,,,,,calibration,0,10,2,361,18,S,1,left,0.8262845689998812,1,0,,,,,,,,,,,,,,,,,,,,,1,,,,,,,,,,,,,,,,,,,,,,,,,,,,,,,,,,,,,,,,,,,,,,48,158362,18,Female,1,2024/02/12_12:36:52,SD,59.96955573539517,
,,,,,,calibration,0,10,2,361,,,,,,,,1.0,1.0,0.0,1.0,0.0,1.0,0.5822146242777788,6,0,0,0,0,12,18,6,12,0,,,,1,,,,,,,,,,,,,,,,,,,,,,,,,,,,,,,,,,,,,,,,,,,,,,48,158362,18,Female,1,2024/02/12_12:36:52,SD,59.96955573539517,
,,,,,,Calibration,0,,2,361,,,,,,,,,,,,,,,,,,,,,,,,,8,,,1,,,,,,,,,,,,,,,,,,,,,,,,,,,,,,,,,,,,,,,,,,,,,,48,158362,18,Female,1,2024/02/12_12:36:52,SD,59.96955573539517,
,,,,,,calibration,0,30,2,303,1,C,0,right,0.7118098649998501,1,0,,,,,,,,,,,,,,,,,,,,,1,,,,,,,,,,,,,,,,,,,,,,,,,,,,,,,,,,,,,,,,,,,,,,48,158362,18,Female,1,2024/02/12_12:36:52,SD,59.96955573539517,
,,,,,,calibration,0,30,2,303,2,V,0,right,0.46252060099982373,1,0,,,,,,,,,,,,,,,,,,,,,1,,,,,,,,,,,,,,,,,,,,,,,,,,,,,,,,,,,,,,,,,,,,,,48,158362,18,Female,1,2024/02/12_12:36:52,SD,59.96955573539517,
,,,,,,calibration,0,30,2,303,3,X,0,right,0.4212146920001487,1,0,,,,,,,,,,,,,,,,,,,,,1,,,,,,,,,,,,,,,,,,,,,,,,,,,,,,,,,,,,,,,,,,,,,,48,158362,18,Female,1,2024/02/12_12:36:52,SD,59.96955573539517,
,,,,,,calibration,0,30,2,303,4,V,1,left,0.3493068709999534,1,0,,,,,,,,,,,,,,,,,,,,,1,,,,,,,,,,,,,,,,,,,,,,,,,,,,,,,,,,,,,,,,,,,,,,48,158362,18,Female,1,2024/02/12_12:36:52,SD,59.96955573539517,
,,,,,,calibration,0,30,2,303,5,J,0,right,0.5138442360000681,1,0,,,,,,,,,,,,,,,,,,,,,1,,,,,,,,,,,,,,,,,,,,,,,,,,,,,,,,,,,,,,,,,,,,,,48,158362,18,Female,1,2024/02/12_12:36:52,SD,59.96955573539517,
,,,,,,calibration,0,30,2,303,6,S,0,right,0.472254527999894,1,0,,,,,,,,,,,,,,,,,,,,,1,,,,,,,,,,,,,,,,,,,,,,,,,,,,,,,,,,,,,,,,,,,,,,48,158362,18,Female,1,2024/02/12_12:36:52,SD,59.96955573539517,
,,,,,,calibration,0,30,2,303,7,X,0,right,0.5430608890001167,1,0,,,,,,,,,,,,,,,,,,,,,1,,,,,,,,,,,,,,,,,,,,,,,,,,,,,,,,,,,,,,,,,,,,,,48,158362,18,Female,1,2024/02/12_12:36:52,SD,59.96955573539517,
,,,,,,calibration,0,30,2,303,8,Q,0,right,0.7913932859999022,1,0,,,,,,,,,,,,,,,,,,,,,1,,,,,,,,,,,,,,,,,,,,,,,,,,,,,,,,,,,,,,,,,,,,,,48,158362,18,Female,1,2024/02/12_12:36:52,SD,59.96955573539517,
,,,,,,calibration,0,30,2,303,9,C,0,right,0.6524797530000797,1,0,,,,,,,,,,,,,,,,,,,,,1,,,,,,,,,,,,,,,,,,,,,,,,,,,,,,,,,,,,,,,,,,,,,,48,158362,18,Female,1,2024/02/12_12:36:52,SD,59.96955573539517,
,,,,,,calibration,0,30,2,303,10,Q,1,left,0.6598788969999987,1,0,,,,,,,,,,,,,,,,,,,,,1,,,,,,,,,,,,,,,,,,,,,,,,,,,,,,,,,,,,,,,,,,,,,,48,158362,18,Female,1,2024/02/12_12:36:52,SD,59.96955573539517,
,,,,,,calibration,0,30,2,303,11,X,0,right,0.3569744910000736,1,0,,,,,,,,,,,,,,,,,,,,,1,,,,,,,,,,,,,,,,,,,,,,,,,,,,,,,,,,,,,,,,,,,,,,48,158362,18,Female,1,2024/02/12_12:36:52,SD,59.96955573539517,
,,,,,,calibration,0,30,2,303,12,V,0,right,0.49546568200003094,1,0,,,,,,,,,,,,,,,,,,,,,1,,,,,,,,,,,,,,,,,,,,,,,,,,,,,,,,,,,,,,,,,,,,,,48,158362,18,Female,1,2024/02/12_12:36:52,SD,59.96955573539517,
,,,,,,calibration,0,30,2,303,13,X,1,left,0.4472062540000934,1,0,,,,,,,,,,,,,,,,,,,,,1,,,,,,,,,,,,,,,,,,,,,,,,,,,,,,,,,,,,,,,,,,,,,,48,158362,18,Female,1,2024/02/12_12:36:52,SD,59.96955573539517,
,,,,,,calibration,0,30,2,303,14,V,1,left,0.5943187010000202,1,0,,,,,,,,,,,,,,,,,,,,,1,,,,,,,,,,,,,,,,,,,,,,,,,,,,,,,,,,,,,,,,,,,,,,48,158362,18,Female,1,2024/02/12_12:36:52,SD,59.96955573539517,
,,,,,,calibration,0,30,2,303,15,C,0,right,0.6273022200000469,1,0,,,,,,,,,,,,,,,,,,,,,1,,,,,,,,,,,,,,,,,,,,,,,,,,,,,,,,,,,,,,,,,,,,,,48,158362,18,Female,1,2024/02/12_12:36:52,SD,59.96955573539517,
,,,,,,calibration,0,30,2,303,16,S,0,right,0.6253971810001531,1,0,,,,,,,,,,,,,,,,,,,,,1,,,,,,,,,,,,,,,,,,,,,,,,,,,,,,,,,,,,,,,,,,,,,,48,158362,18,Female,1,2024/02/12_12:36:52,SD,59.96955573539517,
,,,,,,calibration,0,30,2,303,17,C,1,left,0.5255154189999303,1,0,,,,,,,,,,,,,,,,,,,,,1,,,,,,,,,,,,,,,,,,,,,,,,,,,,,,,,,,,,,,,,,,,,,,48,158362,18,Female,1,2024/02/12_12:36:52,SD,59.96955573539517,
,,,,,,calibration,0,30,2,303,18,S,1,left,0.4267984079999678,1,0,,,,,,,,,,,,,,,,,,,,,1,,,,,,,,,,,,,,,,,,,,,,,,,,,,,,,,,,,,,,,,,,,,,,48,158362,18,Female,1,2024/02/12_12:36:52,SD,59.96955573539517,
,,,,,,calibration,0,30,2,303,19,V,0,right,0.6265613380001014,1,0,,,,,,,,,,,,,,,,,,,,,1,,,,,,,,,,,,,,,,,,,,,,,,,,,,,,,,,,,,,,,,,,,,,,48,158362,18,Female,1,2024/02/12_12:36:52,SD,59.96955573539517,
,,,,,,calibration,0,30,2,303,,,,,,,,1.0,1.0,0.0,1.0,0.0,1.0,0.5422791216842239,6,0,0,0,0,13,19,6,13,0,,,,1,,,,,,,,,,,,,,,,,,,,,,,,,,,,,,,,,,,,,,,,,,,,,,48,158362,18,Female,1,2024/02/12_12:36:52,SD,59.96955573539517,
,,,,,,Calibration,0,,2,303,,,,,,,,,,,,,,,,,,,,,,,,,9,,,1,,,,,,,,,,,,,,,,,,,,,,,,,,,,,,,,,,,,,,,,,,,,,,48,158362,18,Female,1,2024/02/12_12:36:52,SD,59.96955573539517,
,,,,,,calibration,0,15,2,250,1,C,0,right,0.40135762399995656,1,0,,,,,,,,,,,,,,,,,,,,,1,,,,,,,,,,,,,,,,,,,,,,,,,,,,,,,,,,,,,,,,,,,,,,48,158362,18,Female,1,2024/02/12_12:36:52,SD,59.96955573539517,
,,,,,,calibration,0,15,2,250,2,J,0,right,0.3964145039999494,1,0,,,,,,,,,,,,,,,,,,,,,1,,,,,,,,,,,,,,,,,,,,,,,,,,,,,,,,,,,,,,,,,,,,,,48,158362,18,Female,1,2024/02/12_12:36:52,SD,59.96955573539517,
,,,,,,calibration,0,15,2,250,3,C,1,left,0.4716068449999966,1,0,,,,,,,,,,,,,,,,,,,,,1,,,,,,,,,,,,,,,,,,,,,,,,,,,,,,,,,,,,,,,,,,,,,,48,158362,18,Female,1,2024/02/12_12:36:52,SD,59.96955573539517,
,,,,,,calibration,0,15,2,250,4,S,0,right,0.44058114300014495,1,0,,,,,,,,,,,,,,,,,,,,,1,,,,,,,,,,,,,,,,,,,,,,,,,,,,,,,,,,,,,,,,,,,,,,48,158362,18,Female,1,2024/02/12_12:36:52,SD,59.96955573539517,
,,,,,,calibration,0,15,2,250,5,N,0,right,0.537396021999939,1,0,,,,,,,,,,,,,,,,,,,,,1,,,,,,,,,,,,,,,,,,,,,,,,,,,,,,,,,,,,,,,,,,,,,,48,158362,18,Female,1,2024/02/12_12:36:52,SD,59.96955573539517,
,,,,,,calibration,0,15,2,250,6,V,0,right,0.466091821999953,1,0,,,,,,,,,,,,,,,,,,,,,1,,,,,,,,,,,,,,,,,,,,,,,,,,,,,,,,,,,,,,,,,,,,,,48,158362,18,Female,1,2024/02/12_12:36:52,SD,59.96955573539517,
,,,,,,calibration,0,15,2,250,7,C,0,right,0.4213024759999371,1,0,,,,,,,,,,,,,,,,,,,,,1,,,,,,,,,,,,,,,,,,,,,,,,,,,,,,,,,,,,,,,,,,,,,,48,158362,18,Female,1,2024/02/12_12:36:52,SD,59.96955573539517,
,,,,,,calibration,0,15,2,250,8,F,0,right,0.379319914000007,1,0,,,,,,,,,,,,,,,,,,,,,1,,,,,,,,,,,,,,,,,,,,,,,,,,,,,,,,,,,,,,,,,,,,,,48,158362,18,Female,1,2024/02/12_12:36:52,SD,59.96955573539517,
,,,,,,calibration,0,15,2,250,9,J,0,right,0.6888354509999317,1,0,,,,,,,,,,,,,,,,,,,,,1,,,,,,,,,,,,,,,,,,,,,,,,,,,,,,,,,,,,,,,,,,,,,,48,158362,18,Female,1,2024/02/12_12:36:52,SD,59.96955573539517,
,,,,,,calibration,0,15,2,250,10,F,1,left,0.6239949040000283,1,0,,,,,,,,,,,,,,,,,,,,,1,,,,,,,,,,,,,,,,,,,,,,,,,,,,,,,,,,,,,,,,,,,,,,48,158362,18,Female,1,2024/02/12_12:36:52,SD,59.96955573539517,
,,,,,,calibration,0,15,2,250,11,S,0,right,0.3165357599998515,1,0,,,,,,,,,,,,,,,,,,,,,1,,,,,,,,,,,,,,,,,,,,,,,,,,,,,,,,,,,,,,,,,,,,,,48,158362,18,Female,1,2024/02/12_12:36:52,SD,59.96955573539517,
,,,,,,calibration,0,15,2,250,12,Q,0,right,0.542138944999806,1,0,,,,,,,,,,,,,,,,,,,,,1,,,,,,,,,,,,,,,,,,,,,,,,,,,,,,,,,,,,,,,,,,,,,,48,158362,18,Female,1,2024/02/12_12:36:52,SD,59.96955573539517,
,,,,,,calibration,0,15,2,250,13,C,0,right,0.8263234900000498,1,0,,,,,,,,,,,,,,,,,,,,,1,,,,,,,,,,,,,,,,,,,,,,,,,,,,,,,,,,,,,,,,,,,,,,48,158362,18,Female,1,2024/02/12_12:36:52,SD,59.96955573539517,
,,,,,,calibration,0,15,2,250,14,Q,1,left,0.4929926540000906,1,0,,,,,,,,,,,,,,,,,,,,,1,,,,,,,,,,,,,,,,,,,,,,,,,,,,,,,,,,,,,,,,,,,,,,48,158362,18,Female,1,2024/02/12_12:36:52,SD,59.96955573539517,
,,,,,,calibration,0,15,2,250,15,N,0,right,0.45551100499983477,1,0,,,,,,,,,,,,,,,,,,,,,1,,,,,,,,,,,,,,,,,,,,,,,,,,,,,,,,,,,,,,,,,,,,,,48,158362,18,Female,1,2024/02/12_12:36:52,SD,59.96955573539517,
,,,,,,calibration,0,15,2,250,16,Q,1,left,0.6933584179998888,1,0,,,,,,,,,,,,,,,,,,,,,1,,,,,,,,,,,,,,,,,,,,,,,,,,,,,,,,,,,,,,,,,,,,,,48,158362,18,Female,1,2024/02/12_12:36:52,SD,59.96955573539517,
,,,,,,calibration,0,15,2,250,17,F,0,right,0.2577407950000179,1,0,,,,,,,,,,,,,,,,,,,,,1,,,,,,,,,,,,,,,,,,,,,,,,,,,,,,,,,,,,,,,,,,,,,,48,158362,18,Female,1,2024/02/12_12:36:52,SD,59.96955573539517,
,,,,,,calibration,0,15,2,250,18,S,0,right,0.4497290819999762,1,0,,,,,,,,,,,,,,,,,,,,,1,,,,,,,,,,,,,,,,,,,,,,,,,,,,,,,,,,,,,,,,,,,,,,48,158362,18,Female,1,2024/02/12_12:36:52,SD,59.96955573539517,
,,,,,,calibration,0,15,2,250,19,F,1,left,0.48358068099992124,1,0,,,,,,,,,,,,,,,,,,,,,1,,,,,,,,,,,,,,,,,,,,,,,,,,,,,,,,,,,,,,,,,,,,,,48,158362,18,Female,1,2024/02/12_12:36:52,SD,59.96955573539517,
,,,,,,calibration,0,15,2,250,20,S,1,left,0.5800916450000386,1,0,,,,,,,,,,,,,,,,,,,,,1,,,,,,,,,,,,,,,,,,,,,,,,,,,,,,,,,,,,,,,,,,,,,,48,158362,18,Female,1,2024/02/12_12:36:52,SD,59.96955573539517,
,,,,,,calibration,0,15,2,250,,,,,,,,1.0,1.0,0.0,1.0,0.0,1.0,0.49624515899996596,6,0,0,0,0,14,20,6,14,0,,,,1,,,,,,,,,,,,,,,,,,,,,,,,,,,,,,,,,,,,,,,,,,,,,,48,158362,18,Female,1,2024/02/12_12:36:52,SD,59.96955573539517,
,,,,,,Calibration,0,,2,250,,,,,,,,,,,,,,,,,,,,,,,,,10,,,1,,,,,,,,,,,,,,,,,,,,,,,,,,,,,,,,,,,,,,,,,,,,,,48,158362,18,Female,1,2024/02/12_12:36:52,SD,59.96955573539517,
,,,,,,calibration,0,35,2,202,1,F,0,right,0.4846949290001703,1,0,,,,,,,,,,,,,,,,,,,,,1,,,,,,,,,,,,,,,,,,,,,,,,,,,,,,,,,,,,,,,,,,,,,,48,158362,18,Female,1,2024/02/12_12:36:52,SD,59.96955573539517,
,,,,,,calibration,0,35,2,202,2,J,0,right,0.4113219000000754,1,0,,,,,,,,,,,,,,,,,,,,,1,,,,,,,,,,,,,,,,,,,,,,,,,,,,,,,,,,,,,,,,,,,,,,48,158362,18,Female,1,2024/02/12_12:36:52,SD,59.96955573539517,
,,,,,,calibration,0,35,2,202,3,V,0,right,0.47069217200009916,1,0,,,,,,,,,,,,,,,,,,,,,1,,,,,,,,,,,,,,,,,,,,,,,,,,,,,,,,,,,,,,,,,,,,,,48,158362,18,Female,1,2024/02/12_12:36:52,SD,59.96955573539517,
,,,,,,calibration,0,35,2,202,4,J,1,right,0.41034956499993314,0,0,,,,,,,,,,,,,,,,,,,,,1,,,,,,,,,,,,,,,,,,,,,,,,,,,,,,,,,,,,,,,,,,,,,,48,158362,18,Female,1,2024/02/12_12:36:52,SD,59.96955573539517,
,,,,,,calibration,0,35,2,202,5,Q,0,right,0.4632674599999973,1,0,,,,,,,,,,,,,,,,,,,,,1,,,,,,,,,,,,,,,,,,,,,,,,,,,,,,,,,,,,,,,,,,,,,,48,158362,18,Female,1,2024/02/12_12:36:52,SD,59.96955573539517,
,,,,,,calibration,0,35,2,202,6,C,0,right,0.4285975770001187,1,0,,,,,,,,,,,,,,,,,,,,,1,,,,,,,,,,,,,,,,,,,,,,,,,,,,,,,,,,,,,,,,,,,,,,48,158362,18,Female,1,2024/02/12_12:36:52,SD,59.96955573539517,
,,,,,,calibration,0,35,2,202,7,Q,1,left,0.5123392389998571,1,0,,,,,,,,,,,,,,,,,,,,,1,,,,,,,,,,,,,,,,,,,,,,,,,,,,,,,,,,,,,,,,,,,,,,48,158362,18,Female,1,2024/02/12_12:36:52,SD,59.96955573539517,
,,,,,,calibration,0,35,2,202,8,C,1,left,0.712005205999958,1,0,,,,,,,,,,,,,,,,,,,,,1,,,,,,,,,,,,,,,,,,,,,,,,,,,,,,,,,,,,,,,,,,,,,,48,158362,18,Female,1,2024/02/12_12:36:52,SD,59.96955573539517,
,,,,,,calibration,0,35,2,202,9,X,0,right,0.4450130039999749,1,0,,,,,,,,,,,,,,,,,,,,,1,,,,,,,,,,,,,,,,,,,,,,,,,,,,,,,,,,,,,,,,,,,,,,48,158362,18,Female,1,2024/02/12_12:36:52,SD,59.96955573539517,
,,,,,,calibration,0,35,2,202,10,N,0,right,0.32344856899999286,1,0,,,,,,,,,,,,,,,,,,,,,1,,,,,,,,,,,,,,,,,,,,,,,,,,,,,,,,,,,,,,,,,,,,,,48,158362,18,Female,1,2024/02/12_12:36:52,SD,59.96955573539517,
,,,,,,calibration,0,35,2,202,11,X,1,left,0.46928372299998955,1,0,,,,,,,,,,,,,,,,,,,,,1,,,,,,,,,,,,,,,,,,,,,,,,,,,,,,,,,,,,,,,,,,,,,,48,158362,18,Female,1,2024/02/12_12:36:52,SD,59.96955573539517,
,,,,,,calibration,0,35,2,202,12,Q,0,right,0.46023521699999037,1,0,,,,,,,,,,,,,,,,,,,,,1,,,,,,,,,,,,,,,,,,,,,,,,,,,,,,,,,,,,,,,,,,,,,,48,158362,18,Female,1,2024/02/12_12:36:52,SD,59.96955573539517,
,,,,,,calibration,0,35,2,202,13,X,1,right,0.462048305000053,0,0,,,,,,,,,,,,,,,,,,,,,1,,,,,,,,,,,,,,,,,,,,,,,,,,,,,,,,,,,,,,,,,,,,,,48,158362,18,Female,1,2024/02/12_12:36:52,SD,59.96955573539517,
,,,,,,calibration,0,35,2,202,14,S,0,right,0.6756359569999404,1,0,,,,,,,,,,,,,,,,,,,,,1,,,,,,,,,,,,,,,,,,,,,,,,,,,,,,,,,,,,,,,,,,,,,,48,158362,18,Female,1,2024/02/12_12:36:52,SD,59.96955573539517,
,,,,,,calibration,0,35,2,202,15,X,1,left,0.5979914329998337,1,0,,,,,,,,,,,,,,,,,,,,,1,,,,,,,,,,,,,,,,,,,,,,,,,,,,,,,,,,,,,,,,,,,,,,48,158362,18,Female,1,2024/02/12_12:36:52,SD,59.96955573539517,
,,,,,,calibration,0,35,2,202,16,V,0,right,0.6482882919999611,1,0,,,,,,,,,,,,,,,,,,,,,1,,,,,,,,,,,,,,,,,,,,,,,,,,,,,,,,,,,,,,,,,,,,,,48,158362,18,Female,1,2024/02/12_12:36:52,SD,59.96955573539517,
,,,,,,calibration,0,35,2,202,17,Q,0,right,0.5289352229999622,1,0,,,,,,,,,,,,,,,,,,,,,1,,,,,,,,,,,,,,,,,,,,,,,,,,,,,,,,,,,,,,,,,,,,,,48,158362,18,Female,1,2024/02/12_12:36:52,SD,59.96955573539517,
,,,,,,calibration,0,35,2,202,18,N,0,right,0.42364742099994146,1,0,,,,,,,,,,,,,,,,,,,,,1,,,,,,,,,,,,,,,,,,,,,,,,,,,,,,,,,,,,,,,,,,,,,,48,158362,18,Female,1,2024/02/12_12:36:52,SD,59.96955573539517,
,,,,,,calibration,0,35,2,202,19,F,0,right,0.4283965229999467,1,0,,,,,,,,,,,,,,,,,,,,,1,,,,,,,,,,,,,,,,,,,,,,,,,,,,,,,,,,,,,,,,,,,,,,48,158362,18,Female,1,2024/02/12_12:36:52,SD,59.96955573539517,
,,,,,,calibration,0,35,2,202,20,Q,0,right,0.40884826700016674,1,0,,,,,,,,,,,,,,,,,,,,,1,,,,,,,,,,,,,,,,,,,,,,,,,,,,,,,,,,,,,,,,,,,,,,48,158362,18,Female,1,2024/02/12_12:36:52,SD,59.96955573539517,
,,,,,,calibration,0,35,2,202,21,C,0,right,0.6207405540001218,1,0,,,,,,,,,,,,,,,,,,,,,1,,,,,,,,,,,,,,,,,,,,,,,,,,,,,,,,,,,,,,,,,,,,,,48,158362,18,Female,1,2024/02/12_12:36:52,SD,59.96955573539517,
,,,,,,calibration,0,35,2,202,,,,,,,,0.9166666666666666,0.6666666666666666,0.0,1.0,0.0,1.0,0.4945609779047659,4,0,0,0,0,15,19,6,15,0,,,,1,,,,,,,,,,,,,,,,,,,,,,,,,,,,,,,,,,,,,,,,,,,,,,48,158362,18,Female,1,2024/02/12_12:36:52,SD,59.96955573539517,
,,,,,,Calibration,0,,2,202,,,,,,,,,,,,,,,,,,,,,,,,,11,,,1,,,,,,,,,,,,,,,,,,,,,,,,,,,,,,,,,,,,,,,,,,,,,,48,158362,18,Female,1,2024/02/12_12:36:52,SD,59.96955573539517,
,,,,,,calibration,0,7,2,159,1,X,0,right,0.23950229400020362,1,0,,,,,,,,,,,,,,,,,,,,,1,,,,,,,,,,,,,,,,,,,,,,,,,,,,,,,,,,,,,,,,,,,,,,48,158362,18,Female,1,2024/02/12_12:36:52,SD,59.96955573539517,
,,,,,,calibration,0,7,2,159,2,Q,0,right,0.19932531499989636,1,0,,,,,,,,,,,,,,,,,,,,,1,,,,,,,,,,,,,,,,,,,,,,,,,,,,,,,,,,,,,,,,,,,,,,48,158362,18,Female,1,2024/02/12_12:36:52,SD,59.96955573539517,
,,,,,,calibration,0,7,2,159,3,C,0,right,0.4602786319999268,1,0,,,,,,,,,,,,,,,,,,,,,1,,,,,,,,,,,,,,,,,,,,,,,,,,,,,,,,,,,,,,,,,,,,,,48,158362,18,Female,1,2024/02/12_12:36:52,SD,59.96955573539517,
,,,,,,calibration,0,7,2,159,4,F,0,right,0.3647180709999702,1,0,,,,,,,,,,,,,,,,,,,,,1,,,,,,,,,,,,,,,,,,,,,,,,,,,,,,,,,,,,,,,,,,,,,,48,158362,18,Female,1,2024/02/12_12:36:52,SD,59.96955573539517,
,,,,,,calibration,0,7,2,159,5,Q,0,right,0.7688299220001227,1,0,,,,,,,,,,,,,,,,,,,,,1,,,,,,,,,,,,,,,,,,,,,,,,,,,,,,,,,,,,,,,,,,,,,,48,158362,18,Female,1,2024/02/12_12:36:52,SD,59.96955573539517,
,,,,,,calibration,0,7,2,159,6,V,0,right,0.4617520609999701,1,0,,,,,,,,,,,,,,,,,,,,,1,,,,,,,,,,,,,,,,,,,,,,,,,,,,,,,,,,,,,,,,,,,,,,48,158362,18,Female,1,2024/02/12_12:36:52,SD,59.96955573539517,
,,,,,,calibration,0,7,2,159,7,S,0,right,0.6320765899999969,1,0,,,,,,,,,,,,,,,,,,,,,1,,,,,,,,,,,,,,,,,,,,,,,,,,,,,,,,,,,,,,,,,,,,,,48,158362,18,Female,1,2024/02/12_12:36:52,SD,59.96955573539517,
,,,,,,calibration,0,7,2,159,8,V,1,left,0.41651516599995375,1,0,,,,,,,,,,,,,,,,,,,,,1,,,,,,,,,,,,,,,,,,,,,,,,,,,,,,,,,,,,,,,,,,,,,,48,158362,18,Female,1,2024/02/12_12:36:52,SD,59.96955573539517,
,,,,,,calibration,0,7,2,159,9,S,1,left,0.5641929630000959,1,0,,,,,,,,,,,,,,,,,,,,,1,,,,,,,,,,,,,,,,,,,,,,,,,,,,,,,,,,,,,,,,,,,,,,48,158362,18,Female,1,2024/02/12_12:36:52,SD,59.96955573539517,
,,,,,,calibration,0,7,2,159,10,Q,0,right,0.5001890370001547,1,0,,,,,,,,,,,,,,,,,,,,,1,,,,,,,,,,,,,,,,,,,,,,,,,,,,,,,,,,,,,,,,,,,,,,48,158362,18,Female,1,2024/02/12_12:36:52,SD,59.96955573539517,
,,,,,,calibration,0,7,2,159,11,S,1,right,0.4355645949999598,0,0,,,,,,,,,,,,,,,,,,,,,1,,,,,,,,,,,,,,,,,,,,,,,,,,,,,,,,,,,,,,,,,,,,,,48,158362,18,Female,1,2024/02/12_12:36:52,SD,59.96955573539517,
,,,,,,calibration,0,7,2,159,12,V,0,right,0.42011146100003316,1,0,,,,,,,,,,,,,,,,,,,,,1,,,,,,,,,,,,,,,,,,,,,,,,,,,,,,,,,,,,,,,,,,,,,,48,158362,18,Female,1,2024/02/12_12:36:52,SD,59.96955573539517,
,,,,,,calibration,0,7,2,159,13,F,0,right,0.461058340000136,1,0,,,,,,,,,,,,,,,,,,,,,1,,,,,,,,,,,,,,,,,,,,,,,,,,,,,,,,,,,,,,,,,,,,,,48,158362,18,Female,1,2024/02/12_12:36:52,SD,59.96955573539517,
,,,,,,calibration,0,7,2,159,14,S,0,right,0.4417562360001739,1,0,,,,,,,,,,,,,,,,,,,,,1,,,,,,,,,,,,,,,,,,,,,,,,,,,,,,,,,,,,,,,,,,,,,,48,158362,18,Female,1,2024/02/12_12:36:52,SD,59.96955573539517,
,,,,,,calibration,0,7,2,159,15,J,0,right,0.4590375320001385,1,0,,,,,,,,,,,,,,,,,,,,,1,,,,,,,,,,,,,,,,,,,,,,,,,,,,,,,,,,,,,,,,,,,,,,48,158362,18,Female,1,2024/02/12_12:36:52,SD,59.96955573539517,
,,,,,,calibration,0,7,2,159,16,S,1,right,0.4589552709999225,0,0,,,,,,,,,,,,,,,,,,,,,1,,,,,,,,,,,,,,,,,,,,,,,,,,,,,,,,,,,,,,,,,,,,,,48,158362,18,Female,1,2024/02/12_12:36:52,SD,59.96955573539517,
,,,,,,calibration,0,7,2,159,17,N,0,right,0.5393565680001302,1,0,,,,,,,,,,,,,,,,,,,,,1,,,,,,,,,,,,,,,,,,,,,,,,,,,,,,,,,,,,,,,,,,,,,,48,158362,18,Female,1,2024/02/12_12:36:52,SD,59.96955573539517,
,,,,,,calibration,0,7,2,159,18,S,1,left,0.693268653000132,1,0,,,,,,,,,,,,,,,,,,,,,1,,,,,,,,,,,,,,,,,,,,,,,,,,,,,,,,,,,,,,,,,,,,,,48,158362,18,Female,1,2024/02/12_12:36:52,SD,59.96955573539517,
,,,,,,calibration,0,7,2,159,19,F,0,right,0.56303746399999,1,0,,,,,,,,,,,,,,,,,,,,,1,,,,,,,,,,,,,,,,,,,,,,,,,,,,,,,,,,,,,,,,,,,,,,48,158362,18,Female,1,2024/02/12_12:36:52,SD,59.96955573539517,
,,,,,,calibration,0,7,2,159,20,N,0,right,0.49672991600004934,1,0,,,,,,,,,,,,,,,,,,,,,1,,,,,,,,,,,,,,,,,,,,,,,,,,,,,,,,,,,,,,,,,,,,,,48,158362,18,Female,1,2024/02/12_12:36:52,SD,59.96955573539517,
,,,,,,calibration,0,7,2,159,21,F,1,left,0.6174258179999015,1,0,,,,,,,,,,,,,,,,,,,,,1,,,,,,,,,,,,,,,,,,,,,,,,,,,,,,,,,,,,,,,,,,,,,,48,158362,18,Female,1,2024/02/12_12:36:52,SD,59.96955573539517,
,,,,,,calibration,0,7,2,159,22,Q,0,right,0.4506727759999194,1,0,,,,,,,,,,,,,,,,,,,,,1,,,,,,,,,,,,,,,,,,,,,,,,,,,,,,,,,,,,,,,,,,,,,,48,158362,18,Female,1,2024/02/12_12:36:52,SD,59.96955573539517,
,,,,,,calibration,0,7,2,159,,,,,,,,0.9166666666666666,0.6666666666666666,0.0,1.0,0.0,1.0,0.48383430368185354,4,0,0,0,0,16,20,6,16,0,,,,1,,,,,,,,,,,,,,,,,,,,,,,,,,,,,,,,,,,,,,,,,,,,,,48,158362,18,Female,1,2024/02/12_12:36:52,SD,59.96955573539517,
,,,,,,Calibration,0,,2,159,,,,,,,,,,,,,,,,,,,,,,,,,12,,,1,,,,,,,,,,,,,,,,,,,,,,,,,,,,,,,,,,,,,,,,,,,,,,48,158362,18,Female,1,2024/02/12_12:36:52,SD,59.96955573539517,
,,,,,,calibration,0,16,2,120,1,S,0,right,0.2304903460001242,1,0,,,,,,,,,,,,,,,,,,,,,1,,,,,,,,,,,,,,,,,,,,,,,,,,,,,,,,,,,,,,,,,,,,,,48,158362,18,Female,1,2024/02/12_12:36:52,SD,59.96955573539517,
,,,,,,calibration,0,16,2,120,2,J,0,right,0.38526506699986385,1,0,,,,,,,,,,,,,,,,,,,,,1,,,,,,,,,,,,,,,,,,,,,,,,,,,,,,,,,,,,,,,,,,,,,,48,158362,18,Female,1,2024/02/12_12:36:52,SD,59.96955573539517,
,,,,,,calibration,0,16,2,120,3,V,0,right,0.2846329030001016,1,0,,,,,,,,,,,,,,,,,,,,,1,,,,,,,,,,,,,,,,,,,,,,,,,,,,,,,,,,,,,,,,,,,,,,48,158362,18,Female,1,2024/02/12_12:36:52,SD,59.96955573539517,
,,,,,,calibration,0,16,2,120,4,F,0,left,0.8623364190000302,0,0,,,,,,,,,,,,,,,,,,,,,1,,,,,,,,,,,,,,,,,,,,,,,,,,,,,,,,,,,,,,,,,,,,,,48,158362,18,Female,1,2024/02/12_12:36:52,SD,59.96955573539517,
,,,,,,calibration,0,16,2,120,5,N,0,right,0.12924759300017286,1,0,,,,,,,,,,,,,,,,,,,,,1,,,,,,,,,,,,,,,,,,,,,,,,,,,,,,,,,,,,,,,,,,,,,,48,158362,18,Female,1,2024/02/12_12:36:52,SD,59.96955573539517,
,,,,,,calibration,0,16,2,120,6,C,0,right,0.6002187999999933,1,0,,,,,,,,,,,,,,,,,,,,,1,,,,,,,,,,,,,,,,,,,,,,,,,,,,,,,,,,,,,,,,,,,,,,48,158362,18,Female,1,2024/02/12_12:36:52,SD,59.96955573539517,
,,,,,,calibration,0,16,2,120,7,X,0,right,0.5139605550000397,1,0,,,,,,,,,,,,,,,,,,,,,1,,,,,,,,,,,,,,,,,,,,,,,,,,,,,,,,,,,,,,,,,,,,,,48,158362,18,Female,1,2024/02/12_12:36:52,SD,59.96955573539517,
,,,,,,calibration,0,16,2,120,8,C,1,right,0.5749872100000175,0,0,,,,,,,,,,,,,,,,,,,,,1,,,,,,,,,,,,,,,,,,,,,,,,,,,,,,,,,,,,,,,,,,,,,,48,158362,18,Female,1,2024/02/12_12:36:52,SD,59.96955573539517,
,,,,,,calibration,0,16,2,120,9,Q,0,right,0.8624975350001023,1,0,,,,,,,,,,,,,,,,,,,,,1,,,,,,,,,,,,,,,,,,,,,,,,,,,,,,,,,,,,,,,,,,,,,,48,158362,18,Female,1,2024/02/12_12:36:52,SD,59.96955573539517,
,,,,,,calibration,0,16,2,120,10,C,1,left,0.9409586379999837,1,0,,,,,,,,,,,,,,,,,,,,,1,,,,,,,,,,,,,,,,,,,,,,,,,,,,,,,,,,,,,,,,,,,,,,48,158362,18,Female,1,2024/02/12_12:36:52,SD,59.96955573539517,
,,,,,,calibration,0,16,2,120,11,N,0,right,0.5254801609999049,1,0,,,,,,,,,,,,,,,,,,,,,1,,,,,,,,,,,,,,,,,,,,,,,,,,,,,,,,,,,,,,,,,,,,,,48,158362,18,Female,1,2024/02/12_12:36:52,SD,59.96955573539517,
,,,,,,calibration,0,16,2,120,12,X,0,right,0.580964195000206,1,0,,,,,,,,,,,,,,,,,,,,,1,,,,,,,,,,,,,,,,,,,,,,,,,,,,,,,,,,,,,,,,,,,,,,48,158362,18,Female,1,2024/02/12_12:36:52,SD,59.96955573539517,
,,,,,,calibration,0,16,2,120,13,J,0,right,0.9452566319998823,1,0,,,,,,,,,,,,,,,,,,,,,1,,,,,,,,,,,,,,,,,,,,,,,,,,,,,,,,,,,,,,,,,,,,,,48,158362,18,Female,1,2024/02/12_12:36:52,SD,59.96955573539517,
,,,,,,calibration,0,16,2,120,14,Q,0,right,0.494049448999931,1,0,,,,,,,,,,,,,,,,,,,,,1,,,,,,,,,,,,,,,,,,,,,,,,,,,,,,,,,,,,,,,,,,,,,,48,158362,18,Female,1,2024/02/12_12:36:52,SD,59.96955573539517,
,,,,,,calibration,0,16,2,120,15,X,0,right,0.5134335299999293,1,0,,,,,,,,,,,,,,,,,,,,,1,,,,,,,,,,,,,,,,,,,,,,,,,,,,,,,,,,,,,,,,,,,,,,48,158362,18,Female,1,2024/02/12_12:36:52,SD,59.96955573539517,
,,,,,,calibration,0,16,2,120,16,S,0,right,0.4418748720001986,1,0,,,,,,,,,,,,,,,,,,,,,1,,,,,,,,,,,,,,,,,,,,,,,,,,,,,,,,,,,,,,,,,,,,,,48,158362,18,Female,1,2024/02/12_12:36:52,SD,59.96955573539517,
,,,,,,calibration,0,16,2,120,17,X,1,left,0.45805451000001085,1,0,,,,,,,,,,,,,,,,,,,,,1,,,,,,,,,,,,,,,,,,,,,,,,,,,,,,,,,,,,,,,,,,,,,,48,158362,18,Female,1,2024/02/12_12:36:52,SD,59.96955573539517,
,,,,,,calibration,0,16,2,120,18,C,0,right,0.48980987700019796,1,0,,,,,,,,,,,,,,,,,,,,,1,,,,,,,,,,,,,,,,,,,,,,,,,,,,,,,,,,,,,,,,,,,,,,48,158362,18,Female,1,2024/02/12_12:36:52,SD,59.96955573539517,
,,,,,,calibration,0,16,2,120,19,X,1,right,0.5141719180001019,0,0,,,,,,,,,,,,,,,,,,,,,1,,,,,,,,,,,,,,,,,,,,,,,,,,,,,,,,,,,,,,,,,,,,,,48,158362,18,Female,1,2024/02/12_12:36:52,SD,59.96955573539517,
,,,,,,calibration,0,16,2,120,20,C,1,left,0.0,1,0,,,,,,,,,,,,,,,,,,,,,1,,,,,,,,,,,,,,,,,,,,,,,,,,,,,,,,,,,,,,,,,,,,,,48,158362,18,Female,1,2024/02/12_12:36:52,SD,59.96955573539517,
,,,,,,calibration,0,16,2,120,21,F,0,left,nan,0,1,,,,,,,,,,,,,,,,,,,,,1,,,,,,,,,,,,,,,,,,,,,,,,,,,,,,,,,,,,,,,,,,,,,,48,158362,18,Female,1,2024/02/12_12:36:52,SD,59.96955573539517,
,,,,,,calibration,0,16,2,120,22,J,0,right,0.49161371299987877,1,0,,,,,,,,,,,,,,,,,,,,,1,,,,,,,,,,,,,,,,,,,,,,,,,,,,,,,,,,,,,,,,,,,,,,48,158362,18,Female,1,2024/02/12_12:36:52,SD,59.96955573539517,
,,,,,,calibration,0,16,2,120,23,F,1,left,0.5598786410000685,1,0,,,,,,,,,,,,,,,,,,,,,1,,,,,,,,,,,,,,,,,,,,,,,,,,,,,,,,,,,,,,,,,,,,,,48,158362,18,Female,1,2024/02/12_12:36:52,SD,59.96955573539517,
,,,,,,calibration,0,16,2,120,,,,,,,,0.8823529411764706,0.6666666666666666,0.058823529411764705,0.9375,0.043478260869565216,0.8976982097186701,0.5181446620000336,4,1,0,1,1,15,19,6,17,0,,,,1,,,,,,,,,,,,,,,,,,,,,,,,,,,,,,,,,,,,,,,,,,,,,,48,158362,18,Female,1,2024/02/12_12:36:52,SD,59.96955573539517,
,,,,,,Calibration,0,,2,120,,,,,,,,,,,,,,,,,,,,,,,,,13,,,1,,,,,,,,,,,,,,,,,,,,,,,,,,,,,,,,,,,,,,,,,,,,,,48,158362,18,Female,1,2024/02/12_12:36:52,SD,59.96955573539517,
,,,,,,calibration,0,34,2,83,1,F,0,right,0.40494761700006165,1,0,,,,,,,,,,,,,,,,,,,,,1,,,,,,,,,,,,,,,,,,,,,,,,,,,,,,,,,,,,,,,,,,,,,,48,158362,18,Female,1,2024/02/12_12:36:52,SD,59.96955573539517,
,,,,,,calibration,0,34,2,83,2,V,0,right,0.2465358350000315,1,0,,,,,,,,,,,,,,,,,,,,,1,,,,,,,,,,,,,,,,,,,,,,,,,,,,,,,,,,,,,,,,,,,,,,48,158362,18,Female,1,2024/02/12_12:36:52,SD,59.96955573539517,
,,,,,,calibration,0,34,2,83,3,F,1,left,0.4041198519998943,1,0,,,,,,,,,,,,,,,,,,,,,1,,,,,,,,,,,,,,,,,,,,,,,,,,,,,,,,,,,,,,,,,,,,,,48,158362,18,Female,1,2024/02/12_12:36:52,SD,59.96955573539517,
,,,,,,calibration,0,34,2,83,4,J,0,right,0.49986039999998866,1,0,,,,,,,,,,,,,,,,,,,,,1,,,,,,,,,,,,,,,,,,,,,,,,,,,,,,,,,,,,,,,,,,,,,,48,158362,18,Female,1,2024/02/12_12:36:52,SD,59.96955573539517,
,,,,,,calibration,0,34,2,83,5,V,0,right,0.6657631109999329,1,0,,,,,,,,,,,,,,,,,,,,,1,,,,,,,,,,,,,,,,,,,,,,,,,,,,,,,,,,,,,,,,,,,,,,48,158362,18,Female,1,2024/02/12_12:36:52,SD,59.96955573539517,
,,,,,,calibration,0,34,2,83,6,C,0,right,0.6446733630000381,1,0,,,,,,,,,,,,,,,,,,,,,1,,,,,,,,,,,,,,,,,,,,,,,,,,,,,,,,,,,,,,,,,,,,,,48,158362,18,Female,1,2024/02/12_12:36:52,SD,59.96955573539517,
,,,,,,calibration,0,34,2,83,7,S,0,right,0.4709486280000874,1,0,,,,,,,,,,,,,,,,,,,,,1,,,,,,,,,,,,,,,,,,,,,,,,,,,,,,,,,,,,,,,,,,,,,,48,158362,18,Female,1,2024/02/12_12:36:52,SD,59.96955573539517,
,,,,,,calibration,0,34,2,83,8,C,1,left,0.38108615900000586,1,0,,,,,,,,,,,,,,,,,,,,,1,,,,,,,,,,,,,,,,,,,,,,,,,,,,,,,,,,,,,,,,,,,,,,48,158362,18,Female,1,2024/02/12_12:36:52,SD,59.96955573539517,
,,,,,,calibration,0,34,2,83,9,V,0,right,0.5141382229999181,1,0,,,,,,,,,,,,,,,,,,,,,1,,,,,,,,,,,,,,,,,,,,,,,,,,,,,,,,,,,,,,,,,,,,,,48,158362,18,Female,1,2024/02/12_12:36:52,SD,59.96955573539517,
,,,,,,calibration,0,34,2,83,10,N,0,right,0.444288164999989,1,0,,,,,,,,,,,,,,,,,,,,,1,,,,,,,,,,,,,,,,,,,,,,,,,,,,,,,,,,,,,,,,,,,,,,48,158362,18,Female,1,2024/02/12_12:36:52,SD,59.96955573539517,
,,,,,,calibration,0,34,2,83,11,S,0,right,0.652935621999859,1,0,,,,,,,,,,,,,,,,,,,,,1,,,,,,,,,,,,,,,,,,,,,,,,,,,,,,,,,,,,,,,,,,,,,,48,158362,18,Female,1,2024/02/12_12:36:52,SD,59.96955573539517,
,,,,,,calibration,0,34,2,83,12,J,0,right,0.4550791849999314,1,0,,,,,,,,,,,,,,,,,,,,,1,,,,,,,,,,,,,,,,,,,,,,,,,,,,,,,,,,,,,,,,,,,,,,48,158362,18,Female,1,2024/02/12_12:36:52,SD,59.96955573539517,
,,,,,,calibration,0,34,2,83,13,S,1,left,0.38864534399999684,1,0,,,,,,,,,,,,,,,,,,,,,1,,,,,,,,,,,,,,,,,,,,,,,,,,,,,,,,,,,,,,,,,,,,,,48,158362,18,Female,1,2024/02/12_12:36:52,SD,59.96955573539517,
,,,,,,calibration,0,34,2,83,14,F,0,right,0.48626567899987094,1,0,,,,,,,,,,,,,,,,,,,,,1,,,,,,,,,,,,,,,,,,,,,,,,,,,,,,,,,,,,,,,,,,,,,,48,158362,18,Female,1,2024/02/12_12:36:52,SD,59.96955573539517,
,,,,,,calibration,0,34,2,83,15,X,0,right,0.8766129609998643,1,0,,,,,,,,,,,,,,,,,,,,,1,,,,,,,,,,,,,,,,,,,,,,,,,,,,,,,,,,,,,,,,,,,,,,48,158362,18,Female,1,2024/02/12_12:36:52,SD,59.96955573539517,
,,,,,,calibration,0,34,2,83,16,F,1,left,0.4949913610000749,1,0,,,,,,,,,,,,,,,,,,,,,1,,,,,,,,,,,,,,,,,,,,,,,,,,,,,,,,,,,,,,,,,,,,,,48,158362,18,Female,1,2024/02/12_12:36:52,SD,59.96955573539517,
,,,,,,calibration,0,34,2,83,17,X,1,right,0.7586889149999934,0,0,,,,,,,,,,,,,,,,,,,,,1,,,,,,,,,,,,,,,,,,,,,,,,,,,,,,,,,,,,,,,,,,,,,,48,158362,18,Female,1,2024/02/12_12:36:52,SD,59.96955573539517,
,,,,,,calibration,0,34,2,83,18,C,0,right,0.4928745419999814,1,0,,,,,,,,,,,,,,,,,,,,,1,,,,,,,,,,,,,,,,,,,,,,,,,,,,,,,,,,,,,,,,,,,,,,48,158362,18,Female,1,2024/02/12_12:36:52,SD,59.96955573539517,
,,,,,,calibration,0,34,2,83,19,S,0,right,0.3907348879999972,1,0,,,,,,,,,,,,,,,,,,,,,1,,,,,,,,,,,,,,,,,,,,,,,,,,,,,,,,,,,,,,,,,,,,,,48,158362,18,Female,1,2024/02/12_12:36:52,SD,59.96955573539517,
,,,,,,calibration,0,34,2,83,20,J,0,right,0.49230471400005626,1,0,,,,,,,,,,,,,,,,,,,,,1,,,,,,,,,,,,,,,,,,,,,,,,,,,,,,,,,,,,,,,,,,,,,,48,158362,18,Female,1,2024/02/12_12:36:52,SD,59.96955573539517,
,,,,,,calibration,0,34,2,83,21,N,0,right,0.43716908400006105,1,0,,,,,,,,,,,,,,,,,,,,,1,,,,,,,,,,,,,,,,,,,,,,,,,,,,,,,,,,,,,,,,,,,,,,48,158362,18,Female,1,2024/02/12_12:36:52,SD,59.96955573539517,
,,,,,,calibration,0,34,2,83,22,J,1,left,0.5315967340000043,1,0,,,,,,,,,,,,,,,,,,,,,1,,,,,,,,,,,,,,,,,,,,,,,,,,,,,,,,,,,,,,,,,,,,,,48,158362,18,Female,1,2024/02/12_12:36:52,SD,59.96955573539517,
,,,,,,calibration,0,34,2,83,23,S,0,right,0.32740056399984496,1,0,,,,,,,,,,,,,,,,,,,,,1,,,,,,,,,,,,,,,,,,,,,,,,,,,,,,,,,,,,,,,,,,,,,,48,158362,18,Female,1,2024/02/12_12:36:52,SD,59.96955573539517,
,,,,,,calibration,0,34,2,83,24,J,1,left,0.6762380850000227,1,0,,,,,,,,,,,,,,,,,,,,,1,,,,,,,,,,,,,,,,,,,,,,,,,,,,,,,,,,,,,,,,,,,,,,48,158362,18,Female,1,2024/02/12_12:36:52,SD,59.96955573539517,
,,,,,,calibration,0,34,2,83,,,,,,,,0.9642857142857143,0.8571428571428571,0.0,1.0,0.0,1.0,0.5057457929583128,6,0,0,0,0,17,23,7,17,0,,,,1,,,,,,,,,,,,,,,,,,,,,,,,,,,,,,,,,,,,,,,,,,,,,,48,158362,18,Female,1,2024/02/12_12:36:52,SD,59.96955573539517,
,,,,,,Calibration,0,,2,83,,,,,,,,,,,,,,,,,,,,,,,,,14,,,1,,,,,,,,,,,,,,,,,,,,,,,,,,,,,,,,,,,,,,,,,,,,,,48,158362,18,Female,1,2024/02/12_12:36:52,SD,59.96955573539517,
,,,,,,calibration,0,10,2,50,1,Q,0,right,0.36836231399979624,1,0,,,,,,,,,,,,,,,,,,,,,1,,,,,,,,,,,,,,,,,,,,,,,,,,,,,,,,,,,,,,,,,,,,,,48,158362,18,Female,1,2024/02/12_12:36:52,SD,59.96955573539517,
,,,,,,calibration,0,10,2,50,2,F,0,right,0.28378585799987377,1,0,,,,,,,,,,,,,,,,,,,,,1,,,,,,,,,,,,,,,,,,,,,,,,,,,,,,,,,,,,,,,,,,,,,,48,158362,18,Female,1,2024/02/12_12:36:52,SD,59.96955573539517,
,,,,,,calibration,0,10,2,50,3,Q,1,left,0.3716625160000149,1,0,,,,,,,,,,,,,,,,,,,,,1,,,,,,,,,,,,,,,,,,,,,,,,,,,,,,,,,,,,,,,,,,,,,,48,158362,18,Female,1,2024/02/12_12:36:52,SD,59.96955573539517,
,,,,,,calibration,0,10,2,50,4,V,0,right,0.4522687789999509,1,0,,,,,,,,,,,,,,,,,,,,,1,,,,,,,,,,,,,,,,,,,,,,,,,,,,,,,,,,,,,,,,,,,,,,48,158362,18,Female,1,2024/02/12_12:36:52,SD,59.96955573539517,
,,,,,,calibration,0,10,2,50,5,F,0,right,0.694673406999982,1,0,,,,,,,,,,,,,,,,,,,,,1,,,,,,,,,,,,,,,,,,,,,,,,,,,,,,,,,,,,,,,,,,,,,,48,158362,18,Female,1,2024/02/12_12:36:52,SD,59.96955573539517,
,,,,,,calibration,0,10,2,50,6,V,1,left,0.4196472190001259,1,0,,,,,,,,,,,,,,,,,,,,,1,,,,,,,,,,,,,,,,,,,,,,,,,,,,,,,,,,,,,,,,,,,,,,48,158362,18,Female,1,2024/02/12_12:36:52,SD,59.96955573539517,
,,,,,,calibration,0,10,2,50,7,X,0,right,0.34107663499980845,1,0,,,,,,,,,,,,,,,,,,,,,1,,,,,,,,,,,,,,,,,,,,,,,,,,,,,,,,,,,,,,,,,,,,,,48,158362,18,Female,1,2024/02/12_12:36:52,SD,59.96955573539517,
,,,,,,calibration,0,10,2,50,8,F,0,right,nan,0,1,,,,,,,,,,,,,,,,,,,,,1,,,,,,,,,,,,,,,,,,,,,,,,,,,,,,,,,,,,,,,,,,,,,,48,158362,18,Female,1,2024/02/12_12:36:52,SD,59.96955573539517,
,,,,,,calibration,0,10,2,50,9,J,0,right,0.5823450890000004,1,0,,,,,,,,,,,,,,,,,,,,,1,,,,,,,,,,,,,,,,,,,,,,,,,,,,,,,,,,,,,,,,,,,,,,48,158362,18,Female,1,2024/02/12_12:36:52,SD,59.96955573539517,
,,,,,,calibration,0,10,2,50,10,V,0,right,0.6450031460001355,1,0,,,,,,,,,,,,,,,,,,,,,1,,,,,,,,,,,,,,,,,,,,,,,,,,,,,,,,,,,,,,,,,,,,,,48,158362,18,Female,1,2024/02/12_12:36:52,SD,59.96955573539517,
,,,,,,calibration,0,10,2,50,11,X,0,right,0.46792677100006586,1,0,,,,,,,,,,,,,,,,,,,,,1,,,,,,,,,,,,,,,,,,,,,,,,,,,,,,,,,,,,,,,,,,,,,,48,158362,18,Female,1,2024/02/12_12:36:52,SD,59.96955573539517,
,,,,,,calibration,0,10,2,50,12,V,1,right,0.6586993260000327,0,0,,,,,,,,,,,,,,,,,,,,,1,,,,,,,,,,,,,,,,,,,,,,,,,,,,,,,,,,,,,,,,,,,,,,48,158362,18,Female,1,2024/02/12_12:36:52,SD,59.96955573539517,
,,,,,,calibration,0,10,2,50,13,N,0,right,0.48755633799987663,1,0,,,,,,,,,,,,,,,,,,,,,1,,,,,,,,,,,,,,,,,,,,,,,,,,,,,,,,,,,,,,,,,,,,,,48,158362,18,Female,1,2024/02/12_12:36:52,SD,59.96955573539517,
,,,,,,calibration,0,10,2,50,14,J,0,right,0.4355516349999107,1,0,,,,,,,,,,,,,,,,,,,,,1,,,,,,,,,,,,,,,,,,,,,,,,,,,,,,,,,,,,,,,,,,,,,,48,158362,18,Female,1,2024/02/12_12:36:52,SD,59.96955573539517,
,,,,,,calibration,0,10,2,50,15,X,0,right,0.5632429859999775,1,0,,,,,,,,,,,,,,,,,,,,,1,,,,,,,,,,,,,,,,,,,,,,,,,,,,,,,,,,,,,,,,,,,,,,48,158362,18,Female,1,2024/02/12_12:36:52,SD,59.96955573539517,
,,,,,,calibration,0,10,2,50,16,J,1,right,0.7933723060000375,0,0,,,,,,,,,,,,,,,,,,,,,1,,,,,,,,,,,,,,,,,,,,,,,,,,,,,,,,,,,,,,,,,,,,,,48,158362,18,Female,1,2024/02/12_12:36:52,SD,59.96955573539517,
,,,,,,calibration,0,10,2,50,17,X,1,left,0.6078499190000457,1,0,,,,,,,,,,,,,,,,,,,,,1,,,,,,,,,,,,,,,,,,,,,,,,,,,,,,,,,,,,,,,,,,,,,,48,158362,18,Female,1,2024/02/12_12:36:52,SD,59.96955573539517,
,,,,,,calibration,0,10,2,50,18,S,0,right,0.5502628829999594,1,0,,,,,,,,,,,,,,,,,,,,,1,,,,,,,,,,,,,,,,,,,,,,,,,,,,,,,,,,,,,,,,,,,,,,48,158362,18,Female,1,2024/02/12_12:36:52,SD,59.96955573539517,
,,,,,,calibration,0,10,2,50,19,X,1,right,0.6100647079999817,0,0,,,,,,,,,,,,,,,,,,,,,1,,,,,,,,,,,,,,,,,,,,,,,,,,,,,,,,,,,,,,,,,,,,,,48,158362,18,Female,1,2024/02/12_12:36:52,SD,59.96955573539517,
,,,,,,calibration,0,10,2,50,20,C,0,right,0.43647291199999927,1,0,,,,,,,,,,,,,,,,,,,,,1,,,,,,,,,,,,,,,,,,,,,,,,,,,,,,,,,,,,,,,,,,,,,,48,158362,18,Female,1,2024/02/12_12:36:52,SD,59.96955573539517,
,,,,,,calibration,0,10,2,50,21,X,1,left,0.3734377670000413,1,0,,,,,,,,,,,,,,,,,,,,,1,,,,,,,,,,,,,,,,,,,,,,,,,,,,,,,,,,,,,,,,,,,,,,48,158362,18,Female,1,2024/02/12_12:36:52,SD,59.96955573539517,
,,,,,,calibration,0,10,2,50,22,N,0,right,0.49585544499996104,1,0,,,,,,,,,,,,,,,,,,,,,1,,,,,,,,,,,,,,,,,,,,,,,,,,,,,,,,,,,,,,,,,,,,,,48,158362,18,Female,1,2024/02/12_12:36:52,SD,59.96955573539517,
,,,,,,calibration,0,10,2,50,23,V,0,right,0.5493285659999856,1,0,,,,,,,,,,,,,,,,,,,,,1,,,,,,,,,,,,,,,,,,,,,,,,,,,,,,,,,,,,,,,,,,,,,,48,158362,18,Female,1,2024/02/12_12:36:52,SD,59.96955573539517,
,,,,,,calibration,0,10,2,50,24,J,0,right,0.44657182500009185,1,0,,,,,,,,,,,,,,,,,,,,,1,,,,,,,,,,,,,,,,,,,,,,,,,,,,,,,,,,,,,,,,,,,,,,48,158362,18,Female,1,2024/02/12_12:36:52,SD,59.96955573539517,
,,,,,,calibration,0,10,2,50,25,X,0,right,0.6952458800001295,1,0,,,,,,,,,,,,,,,,,,,,,1,,,,,,,,,,,,,,,,,,,,,,,,,,,,,,,,,,,,,,,,,,,,,,48,158362,18,Female,1,2024/02/12_12:36:52,SD,59.96955573539517,
,,,,,,calibration,0,10,2,50,,,,,,,,0.8928571428571428,0.5714285714285714,0.0,1.0,0.04,0.96,0.5137610095833244,4,0,0,1,1,17,21,7,18,0,,,,1,,,,,,,,,,,,,,,,,,,,,,,,,,,,,,,,,,,,,,,,,,,,,,48,158362,18,Female,1,2024/02/12_12:36:52,SD,59.96955573539517,
,,,,,,Calibration,0,,2,50,,,,,,,,,,,,,,,,,,,,,,,,,15,,,1,,,,,,,,,,,,,,,,,,,,,,,,,,,,,,,,,,,,,,,,,,,,,,48,158362,18,Female,1,2024/02/12_12:36:52,SD,59.96955573539517,
,,,,,,CALIBRATION,0,,,,,,,,,,,,,,,,,,,,,,,,,,,,15,0.8928571428571428,50,1,,,,,,,,,,,,,,,,,,,,,,,,,,,,,,,,,,,,,,,,,,,,,,48,158362,18,Female,1,2024/02/12_12:36:52,SD,59.96955573539517,
1,./instructions/inst_prac_1/Slide24.png,right,9.92337317900001,480.77853788000016,490.70191105900017,,,,,,,,,,,,,,,,,,,,,,,,,,,,,,,,,1,,,,,,,,,,,,,,,,,,,,,,,,,,,,,,,,,,,,,,,,,,,,,,48,158362,18,Female,1,2024/02/12_12:36:52,SD,59.96955573539517,
2,./instructions/inst_prac_1/Slide25.png,right,2.4705934019998494,490.7593070140001,493.22990041599996,,,,,,,,,,,,,,,,,,,,,,,,,,,,,,,,,1,,,,,,,,,,,,,,,,,,,,,,,,,,,,,,,,,,,,,,,,,,,,,,48,158362,18,Female,1,2024/02/12_12:36:52,SD,59.96955573539517,
3,./instructions/inst_prac_1/Slide26.png,right,0.7535302600001614,493.292559986,494.0460902460002,,,,,,,,,,,,,,,,,,,,,,,,,,,,,,,,,1,,,,,,,,,,,,,,,,,,,,,,,,,,,,,,,,,,,,,,,,,,,,,,48,158362,18,Female,1,2024/02/12_12:36:52,SD,59.96955573539517,
4,./instructions/inst_prac_1/Slide27.png,right,0.9777544810001473,494.148205296,495.12595977700016,,,,,,,,,,,,,,,,,,,,,,,,,,,,,,,,,1,,,,,,,,,,,,,,,,,,,,,,,,,,,,,,,,,,,,,,,,,,,,,,48,158362,18,Female,1,2024/02/12_12:36:52,SD,59.96955573539517,
5,./instructions/inst_prac_1/Slide28.png,right,0.6320985749998727,495.18172276500013,495.81382134,,,,,,,,,,,,,,,,,,,,,,,,,,,,,,,,,1,,,,,,,,,,,,,,,,,,,,,,,,,,,,,,,,,,,,,,,,,,,,,,48,158362,18,Female,1,2024/02/12_12:36:52,SD,59.96955573539517,
6,./instructions/inst_prac_1/Slide29.png,right,4.7917477529999815,495.87024431500004,500.661992068,,,,,,,,,,,,,,,,,,,,,,,,,,,,,,,,,1,,,,,,,,,,,,,,,,,,,,,,,,,,,,,,,,,,,,,,,,,,,,,,48,158362,18,Female,1,2024/02/12_12:36:52,SD,59.96955573539517,
7,./instructions/inst_prac_1/Slide30.png,right,18.720048815000155,500.717951481,519.4380002960002,,,,,,,,,,,,,,,,,,,,,,,,,,,,,,,,,1,,,,,,,,,,,,,,,,,,,,,,,,,,,,,,,,,,,,,,,,,,,,,,48,158362,18,Female,1,2024/02/12_12:36:52,SD,59.96955573539517,
,,,,,,practice,0,24,1,1250,1,J,0,right,1.0908448150000822,1,0,,,,,,,,,,,,,,,,,,,,,1,,,,,,,,,,,,,,,,,,,,,,,,,,,,,,,,,,,,,,,,,,,,,,48,158362,18,Female,1,2024/02/12_12:36:52,SD,59.96955573539517,
,,,,,,practice,0,24,1,1250,2,J,1,left,0.8224141139999119,1,0,,,,,,,,,,,,,,,,,,,,,1,,,,,,,,,,,,,,,,,,,,,,,,,,,,,,,,,,,,,,,,,,,,,,48,158362,18,Female,1,2024/02/12_12:36:52,SD,59.96955573539517,
,,,,,,practice,0,24,1,1250,3,F,0,right,0.6823550540000269,1,0,,,,,,,,,,,,,,,,,,,,,1,,,,,,,,,,,,,,,,,,,,,,,,,,,,,,,,,,,,,,,,,,,,,,48,158362,18,Female,1,2024/02/12_12:36:52,SD,59.96955573539517,
,,,,,,practice,0,24,1,1250,4,J,0,right,0.45155381199992917,1,0,,,,,,,,,,,,,,,,,,,,,1,,,,,,,,,,,,,,,,,,,,,,,,,,,,,,,,,,,,,,,,,,,,,,48,158362,18,Female,1,2024/02/12_12:36:52,SD,59.96955573539517,
,,,,,,practice,0,24,1,1250,5,N,0,right,0.44557613500001025,1,0,,,,,,,,,,,,,,,,,,,,,1,,,,,,,,,,,,,,,,,,,,,,,,,,,,,,,,,,,,,,,,,,,,,,48,158362,18,Female,1,2024/02/12_12:36:52,SD,59.96955573539517,
,,,,,,practice,0,24,1,1250,6,N,1,left,0.4672312850000253,1,0,,,,,,,,,,,,,,,,,,,,,1,,,,,,,,,,,,,,,,,,,,,,,,,,,,,,,,,,,,,,,,,,,,,,48,158362,18,Female,1,2024/02/12_12:36:52,SD,59.96955573539517,
,,,,,,practice,0,24,1,1250,7,J,0,right,0.6759292430001551,1,0,,,,,,,,,,,,,,,,,,,,,1,,,,,,,,,,,,,,,,,,,,,,,,,,,,,,,,,,,,,,,,,,,,,,48,158362,18,Female,1,2024/02/12_12:36:52,SD,59.96955573539517,
,,,,,,practice,0,24,1,1250,8,X,0,right,0.45971012399991196,1,0,,,,,,,,,,,,,,,,,,,,,1,,,,,,,,,,,,,,,,,,,,,,,,,,,,,,,,,,,,,,,,,,,,,,48,158362,18,Female,1,2024/02/12_12:36:52,SD,59.96955573539517,
,,,,,,practice,0,24,1,1250,9,Q,0,right,0.4769724949999272,1,0,,,,,,,,,,,,,,,,,,,,,1,,,,,,,,,,,,,,,,,,,,,,,,,,,,,,,,,,,,,,,,,,,,,,48,158362,18,Female,1,2024/02/12_12:36:52,SD,59.96955573539517,
,,,,,,practice,0,24,1,1250,10,Q,1,left,0.5100893149999592,1,0,,,,,,,,,,,,,,,,,,,,,1,,,,,,,,,,,,,,,,,,,,,,,,,,,,,,,,,,,,,,,,,,,,,,48,158362,18,Female,1,2024/02/12_12:36:52,SD,59.96955573539517,
,,,,,,practice,0,24,1,1250,,,,,,,,1.0,1.0,0.0,1.0,0.0,1.0,0.6082676391999939,3,0,0,0,0,7,10,3,7,0,,,,1,,,,,,,,,,,,,,,,,,,,,,,,,,,,,,,,,,,,,,,,,,,,,,48,158362,18,Female,1,2024/02/12_12:36:52,SD,59.96955573539517,
1,./instructions/inst_prac_1_next/Slide35.png,right,5.816908041000033,536.1651889730001,541.9820970140001,,,,,,,,,,,,,,,,,,,,,,,,,,,,,,,,,1,,,,,,,,,,,,,,,,,,,,,,,,,,,,,,,,,,,,,,,,,,,,,,48,158362,18,Female,1,2024/02/12_12:36:52,SD,59.96955573539517,
,,,,,,practice,0,34,1,50,1,X,0,right,0.2684833719999915,1,0,,,,,,,,,,,,,,,,,,,,,1,,,,,,,,,,,,,,,,,,,,,,,,,,,,,,,,,,,,,,,,,,,,,,48,158362,18,Female,1,2024/02/12_12:36:52,SD,59.96955573539517,
,,,,,,practice,0,34,1,50,2,J,0,right,0.30053424399989126,1,0,,,,,,,,,,,,,,,,,,,,,1,,,,,,,,,,,,,,,,,,,,,,,,,,,,,,,,,,,,,,,,,,,,,,48,158362,18,Female,1,2024/02/12_12:36:52,SD,59.96955573539517,
,,,,,,practice,0,34,1,50,3,F,0,right,0.34234358300000167,1,0,,,,,,,,,,,,,,,,,,,,,1,,,,,,,,,,,,,,,,,,,,,,,,,,,,,,,,,,,,,,,,,,,,,,48,158362,18,Female,1,2024/02/12_12:36:52,SD,59.96955573539517,
,,,,,,practice,0,34,1,50,4,F,1,left,0.34742265499994573,1,0,,,,,,,,,,,,,,,,,,,,,1,,,,,,,,,,,,,,,,,,,,,,,,,,,,,,,,,,,,,,,,,,,,,,48,158362,18,Female,1,2024/02/12_12:36:52,SD,59.96955573539517,
,,,,,,practice,0,34,1,50,5,C,0,right,0.33222767600000225,1,0,,,,,,,,,,,,,,,,,,,,,1,,,,,,,,,,,,,,,,,,,,,,,,,,,,,,,,,,,,,,,,,,,,,,48,158362,18,Female,1,2024/02/12_12:36:52,SD,59.96955573539517,
,,,,,,practice,0,34,1,50,6,Q,0,right,0.36244653799985826,1,0,,,,,,,,,,,,,,,,,,,,,1,,,,,,,,,,,,,,,,,,,,,,,,,,,,,,,,,,,,,,,,,,,,,,48,158362,18,Female,1,2024/02/12_12:36:52,SD,59.96955573539517,
,,,,,,practice,0,34,1,50,7,S,0,right,0.3243060219999734,1,0,,,,,,,,,,,,,,,,,,,,,1,,,,,,,,,,,,,,,,,,,,,,,,,,,,,,,,,,,,,,,,,,,,,,48,158362,18,Female,1,2024/02/12_12:36:52,SD,59.96955573539517,
,,,,,,practice,0,34,1,50,8,Q,0,right,0.40346502100010184,1,0,,,,,,,,,,,,,,,,,,,,,1,,,,,,,,,,,,,,,,,,,,,,,,,,,,,,,,,,,,,,,,,,,,,,48,158362,18,Female,1,2024/02/12_12:36:52,SD,59.96955573539517,
,,,,,,practice,0,34,1,50,9,X,0,right,0.38166824800009636,1,0,,,,,,,,,,,,,,,,,,,,,1,,,,,,,,,,,,,,,,,,,,,,,,,,,,,,,,,,,,,,,,,,,,,,48,158362,18,Female,1,2024/02/12_12:36:52,SD,59.96955573539517,
,,,,,,practice,0,34,1,50,10,X,1,left,0.5229608810000173,1,0,,,,,,,,,,,,,,,,,,,,,1,,,,,,,,,,,,,,,,,,,,,,,,,,,,,,,,,,,,,,,,,,,,,,48,158362,18,Female,1,2024/02/12_12:36:52,SD,59.96955573539517,
,,,,,,practice,0,34,1,50,11,N,0,right,0.33299649699984,1,0,,,,,,,,,,,,,,,,,,,,,1,,,,,,,,,,,,,,,,,,,,,,,,,,,,,,,,,,,,,,,,,,,,,,48,158362,18,Female,1,2024/02/12_12:36:52,SD,59.96955573539517,
,,,,,,practice,0,34,1,50,12,C,0,right,0.34753096800000094,1,0,,,,,,,,,,,,,,,,,,,,,1,,,,,,,,,,,,,,,,,,,,,,,,,,,,,,,,,,,,,,,,,,,,,,48,158362,18,Female,1,2024/02/12_12:36:52,SD,59.96955573539517,
,,,,,,practice,0,34,1,50,13,C,1,left,0.34784043199988446,1,0,,,,,,,,,,,,,,,,,,,,,1,,,,,,,,,,,,,,,,,,,,,,,,,,,,,,,,,,,,,,,,,,,,,,48,158362,18,Female,1,2024/02/12_12:36:52,SD,59.96955573539517,
,,,,,,practice,0,34,1,50,14,F,0,right,0.26615744900004756,1,0,,,,,,,,,,,,,,,,,,,,,1,,,,,,,,,,,,,,,,,,,,,,,,,,,,,,,,,,,,,,,,,,,,,,48,158362,18,Female,1,2024/02/12_12:36:52,SD,59.96955573539517,
,,,,,,practice,0,34,1,50,15,F,1,left,0.37217076399997495,1,0,,,,,,,,,,,,,,,,,,,,,1,,,,,,,,,,,,,,,,,,,,,,,,,,,,,,,,,,,,,,,,,,,,,,48,158362,18,Female,1,2024/02/12_12:36:52,SD,59.96955573539517,
,,,,,,practice,0,34,1,50,16,S,0,right,0.3254137509998145,1,0,,,,,,,,,,,,,,,,,,,,,1,,,,,,,,,,,,,,,,,,,,,,,,,,,,,,,,,,,,,,,,,,,,,,48,158362,18,Female,1,2024/02/12_12:36:52,SD,59.96955573539517,
,,,,,,practice,0,34,1,50,17,S,1,left,0.45801153700017494,1,0,,,,,,,,,,,,,,,,,,,,,1,,,,,,,,,,,,,,,,,,,,,,,,,,,,,,,,,,,,,,,,,,,,,,48,158362,18,Female,1,2024/02/12_12:36:52,SD,59.96955573539517,
,,,,,,practice,0,34,1,50,18,Q,0,right,0.42299505899995893,1,0,,,,,,,,,,,,,,,,,,,,,1,,,,,,,,,,,,,,,,,,,,,,,,,,,,,,,,,,,,,,,,,,,,,,48,158362,18,Female,1,2024/02/12_12:36:52,SD,59.96955573539517,
,,,,,,practice,0,34,1,50,19,Q,1,left,0.5359567959999367,1,0,,,,,,,,,,,,,,,,,,,,,1,,,,,,,,,,,,,,,,,,,,,,,,,,,,,,,,,,,,,,,,,,,,,,48,158362,18,Female,1,2024/02/12_12:36:52,SD,59.96955573539517,
,,,,,,practice,0,34,1,50,20,C,0,right,0.43401157099992815,1,0,,,,,,,,,,,,,,,,,,,,,1,,,,,,,,,,,,,,,,,,,,,,,,,,,,,,,,,,,,,,,,,,,,,,48,158362,18,Female,1,2024/02/12_12:36:52,SD,59.96955573539517,
,,,,,,practice,0,34,1,50,21,Q,0,right,0.46867248400008066,1,0,,,,,,,,,,,,,,,,,,,,,1,,,,,,,,,,,,,,,,,,,,,,,,,,,,,,,,,,,,,,,,,,,,,,48,158362,18,Female,1,2024/02/12_12:36:52,SD,59.96955573539517,
,,,,,,practice,0,34,1,50,22,N,0,right,0.3710392780001257,1,0,,,,,,,,,,,,,,,,,,,,,1,,,,,,,,,,,,,,,,,,,,,,,,,,,,,,,,,,,,,,,,,,,,,,48,158362,18,Female,1,2024/02/12_12:36:52,SD,59.96955573539517,
,,,,,,practice,0,34,1,50,23,J,0,right,0.39718029699997714,1,0,,,,,,,,,,,,,,,,,,,,,1,,,,,,,,,,,,,,,,,,,,,,,,,,,,,,,,,,,,,,,,,,,,,,48,158362,18,Female,1,2024/02/12_12:36:52,SD,59.96955573539517,
,,,,,,practice,0,34,1,50,24,X,0,right,0.38836812799991094,1,0,,,,,,,,,,,,,,,,,,,,,1,,,,,,,,,,,,,,,,,,,,,,,,,,,,,,,,,,,,,,,,,,,,,,48,158362,18,Female,1,2024/02/12_12:36:52,SD,59.96955573539517,
,,,,,,practice,0,34,1,50,25,S,0,right,0.44983533999993597,1,0,,,,,,,,,,,,,,,,,,,,,1,,,,,,,,,,,,,,,,,,,,,,,,,,,,,,,,,,,,,,,,,,,,,,48,158362,18,Female,1,2024/02/12_12:36:52,SD,59.96955573539517,
,,,,,,practice,0,34,1,50,,,,,,,,1.0,1.0,0.0,1.0,0.0,1.0,0.38016154363997884,6,0,0,0,0,19,25,6,19,0,,,,1,,,,,,,,,,,,,,,,,,,,,,,,,,,,,,,,,,,,,,,,,,,,,,48,158362,18,Female,1,2024/02/12_12:36:52,SD,59.96955573539517,
,,,,,,practice,0,24,1,50,1,X,0,right,0.609865783000032,1,0,,,,,,,,,,,,,,,,,,,,,1,,,,,,,,,,,,,,,,,,,,,,,,,,,,,,,,,,,,,,,,,,,,,,48,158362,18,Female,1,2024/02/12_12:36:52,SD,59.96955573539517,
,,,,,,practice,0,24,1,50,2,C,0,right,0.3097047209998891,1,0,,,,,,,,,,,,,,,,,,,,,1,,,,,,,,,,,,,,,,,,,,,,,,,,,,,,,,,,,,,,,,,,,,,,48,158362,18,Female,1,2024/02/12_12:36:52,SD,59.96955573539517,
,,,,,,practice,0,24,1,50,3,S,0,right,0.3246318619999329,1,0,,,,,,,,,,,,,,,,,,,,,1,,,,,,,,,,,,,,,,,,,,,,,,,,,,,,,,,,,,,,,,,,,,,,48,158362,18,Female,1,2024/02/12_12:36:52,SD,59.96955573539517,
,,,,,,practice,0,24,1,50,4,X,0,right,0.48931930699995974,1,0,,,,,,,,,,,,,,,,,,,,,1,,,,,,,,,,,,,,,,,,,,,,,,,,,,,,,,,,,,,,,,,,,,,,48,158362,18,Female,1,2024/02/12_12:36:52,SD,59.96955573539517,
,,,,,,practice,0,24,1,50,5,Q,0,right,0.3423749679998309,1,0,,,,,,,,,,,,,,,,,,,,,1,,,,,,,,,,,,,,,,,,,,,,,,,,,,,,,,,,,,,,,,,,,,,,48,158362,18,Female,1,2024/02/12_12:36:52,SD,59.96955573539517,
,,,,,,practice,0,24,1,50,6,N,0,right,0.34280129400008263,1,0,,,,,,,,,,,,,,,,,,,,,1,,,,,,,,,,,,,,,,,,,,,,,,,,,,,,,,,,,,,,,,,,,,,,48,158362,18,Female,1,2024/02/12_12:36:52,SD,59.96955573539517,
,,,,,,practice,0,24,1,50,7,N,1,left,0.4597069439998904,1,0,,,,,,,,,,,,,,,,,,,,,1,,,,,,,,,,,,,,,,,,,,,,,,,,,,,,,,,,,,,,,,,,,,,,48,158362,18,Female,1,2024/02/12_12:36:52,SD,59.96955573539517,
,,,,,,practice,0,24,1,50,8,Q,0,right,0.3135229879999315,1,0,,,,,,,,,,,,,,,,,,,,,1,,,,,,,,,,,,,,,,,,,,,,,,,,,,,,,,,,,,,,,,,,,,,,48,158362,18,Female,1,2024/02/12_12:36:52,SD,59.96955573539517,
,,,,,,practice,0,24,1,50,9,N,0,right,0.37258092899992334,1,0,,,,,,,,,,,,,,,,,,,,,1,,,,,,,,,,,,,,,,,,,,,,,,,,,,,,,,,,,,,,,,,,,,,,48,158362,18,Female,1,2024/02/12_12:36:52,SD,59.96955573539517,
,,,,,,practice,0,24,1,50,10,J,0,right,0.4435033720001229,1,0,,,,,,,,,,,,,,,,,,,,,1,,,,,,,,,,,,,,,,,,,,,,,,,,,,,,,,,,,,,,,,,,,,,,48,158362,18,Female,1,2024/02/12_12:36:52,SD,59.96955573539517,
,,,,,,practice,0,24,1,50,11,C,0,right,0.3384712050001326,1,0,,,,,,,,,,,,,,,,,,,,,1,,,,,,,,,,,,,,,,,,,,,,,,,,,,,,,,,,,,,,,,,,,,,,48,158362,18,Female,1,2024/02/12_12:36:52,SD,59.96955573539517,
,,,,,,practice,0,24,1,50,12,C,1,left,0.3334143249999215,1,0,,,,,,,,,,,,,,,,,,,,,1,,,,,,,,,,,,,,,,,,,,,,,,,,,,,,,,,,,,,,,,,,,,,,48,158362,18,Female,1,2024/02/12_12:36:52,SD,59.96955573539517,
,,,,,,practice,0,24,1,50,13,Q,0,right,0.22843989099987994,1,0,,,,,,,,,,,,,,,,,,,,,1,,,,,,,,,,,,,,,,,,,,,,,,,,,,,,,,,,,,,,,,,,,,,,48,158362,18,Female,1,2024/02/12_12:36:52,SD,59.96955573539517,
,,,,,,practice,0,24,1,50,14,V,0,right,0.3438144149999971,1,0,,,,,,,,,,,,,,,,,,,,,1,,,,,,,,,,,,,,,,,,,,,,,,,,,,,,,,,,,,,,,,,,,,,,48,158362,18,Female,1,2024/02/12_12:36:52,SD,59.96955573539517,
,,,,,,practice,0,24,1,50,15,C,0,right,0.31528688299999885,1,0,,,,,,,,,,,,,,,,,,,,,1,,,,,,,,,,,,,,,,,,,,,,,,,,,,,,,,,,,,,,,,,,,,,,48,158362,18,Female,1,2024/02/12_12:36:52,SD,59.96955573539517,
,,,,,,practice,0,24,1,50,16,J,0,right,0.5414553410000735,1,0,,,,,,,,,,,,,,,,,,,,,1,,,,,,,,,,,,,,,,,,,,,,,,,,,,,,,,,,,,,,,,,,,,,,48,158362,18,Female,1,2024/02/12_12:36:52,SD,59.96955573539517,
,,,,,,practice,0,24,1,50,17,J,1,left,0.47607760300002155,1,0,,,,,,,,,,,,,,,,,,,,,1,,,,,,,,,,,,,,,,,,,,,,,,,,,,,,,,,,,,,,,,,,,,,,48,158362,18,Female,1,2024/02/12_12:36:52,SD,59.96955573539517,
,,,,,,practice,0,24,1,50,18,C,0,right,0.2738638710000032,1,0,,,,,,,,,,,,,,,,,,,,,1,,,,,,,,,,,,,,,,,,,,,,,,,,,,,,,,,,,,,,,,,,,,,,48,158362,18,Female,1,2024/02/12_12:36:52,SD,59.96955573539517,
,,,,,,practice,0,24,1,50,19,C,1,left,0.5518940049998946,1,0,,,,,,,,,,,,,,,,,,,,,1,,,,,,,,,,,,,,,,,,,,,,,,,,,,,,,,,,,,,,,,,,,,,,48,158362,18,Female,1,2024/02/12_12:36:52,SD,59.96955573539517,
,,,,,,practice,0,24,1,50,20,J,0,right,0.38868714700015516,1,0,,,,,,,,,,,,,,,,,,,,,1,,,,,,,,,,,,,,,,,,,,,,,,,,,,,,,,,,,,,,,,,,,,,,48,158362,18,Female,1,2024/02/12_12:36:52,SD,59.96955573539517,
,,,,,,practice,0,24,1,50,21,V,0,right,0.35085731200001646,1,0,,,,,,,,,,,,,,,,,,,,,1,,,,,,,,,,,,,,,,,,,,,,,,,,,,,,,,,,,,,,,,,,,,,,48,158362,18,Female,1,2024/02/12_12:36:52,SD,59.96955573539517,
,,,,,,practice,0,24,1,50,22,V,1,left,0.5248068179998882,1,0,,,,,,,,,,,,,,,,,,,,,1,,,,,,,,,,,,,,,,,,,,,,,,,,,,,,,,,,,,,,,,,,,,,,48,158362,18,Female,1,2024/02/12_12:36:52,SD,59.96955573539517,
,,,,,,practice,0,24,1,50,23,X,0,right,0.2736966959998881,1,0,,,,,,,,,,,,,,,,,,,,,1,,,,,,,,,,,,,,,,,,,,,,,,,,,,,,,,,,,,,,,,,,,,,,48,158362,18,Female,1,2024/02/12_12:36:52,SD,59.96955573539517,
,,,,,,practice,0,24,1,50,24,X,1,left,0.5269526039999164,1,0,,,,,,,,,,,,,,,,,,,,,1,,,,,,,,,,,,,,,,,,,,,,,,,,,,,,,,,,,,,,,,,,,,,,48,158362,18,Female,1,2024/02/12_12:36:52,SD,59.96955573539517,
,,,,,,practice,0,24,1,50,25,V,0,right,0.22997620699993604,1,0,,,,,,,,,,,,,,,,,,,,,1,,,,,,,,,,,,,,,,,,,,,,,,,,,,,,,,,,,,,,,,,,,,,,48,158362,18,Female,1,2024/02/12_12:36:52,SD,59.96955573539517,
,,,,,,practice,0,24,1,50,,,,,,,,1.0,1.0,0.0,1.0,0.0,1.0,0.38822825963997276,6,0,0,0,0,19,25,6,19,0,,,,1,,,,,,,,,,,,,,,,,,,,,,,,,,,,,,,,,,,,,,,,,,,,,,48,158362,18,Female,1,2024/02/12_12:36:52,SD,59.96955573539517,
1,./instructions/inst_prac_3/Slide37.png,right,8.301062472000012,591.808782024,600.109844496,,,,,,,,,,,,,,,,,,,,,,,,,,,,,,,,,1,,,,,,,,,,,,,,,,,,,,,,,,,,,,,,,,,,,,,,,,,,,,,,48,158362,18,Female,1,2024/02/12_12:36:52,SD,59.96955573539517,
2,./instructions/inst_prac_3/Slide38.png,right,1.531200101000195,600.170694102,601.7018942030002,,,,,,,,,,,,,,,,,,,,,,,,,,,,,,,,,1,,,,,,,,,,,,,,,,,,,,,,,,,,,,,,,,,,,,,,,,,,,,,,48,158362,18,Female,1,2024/02/12_12:36:52,SD,59.96955573539517,
3,./instructions/inst_prac_3/Slide39.png,right,1.0619987789998504,601.7600836680001,602.822082447,,,,,,,,,,,,,,,,,,,,,,,,,,,,,,,,,1,,,,,,,,,,,,,,,,,,,,,,,,,,,,,,,,,,,,,,,,,,,,,,48,158362,18,Female,1,2024/02/12_12:36:52,SD,59.96955573539517,
4,./instructions/inst_prac_3/Slide40.png,right,0.5465809970000919,602.907418542,603.453999539,,,,,,,,,,,,,,,,,,,,,,,,,,,,,,,,,1,,,,,,,,,,,,,,,,,,,,,,,,,,,,,,,,,,,,,,,,,,,,,,48,158362,18,Female,1,2024/02/12_12:36:52,SD,59.96955573539517,
5,./instructions/inst_prac_3/Slide41.png,right,0.40191335899999103,603.5720333740001,603.973946733,,,,,,,,,,,,,,,,,,,,,,,,,,,,,,,,,1,,,,,,,,,,,,,,,,,,,,,,,,,,,,,,,,,,,,,,,,,,,,,,48,158362,18,Female,1,2024/02/12_12:36:52,SD,59.96955573539517,
6,./instructions/inst_prac_3/Slide42.png,right,0.7230932639999992,604.0346603580001,604.7577536220001,,,,,,,,,,,,,,,,,,,,,,,,,,,,,,,,,1,,,,,,,,,,,,,,,,,,,,,,,,,,,,,,,,,,,,,,,,,,,,,,48,158362,18,Female,1,2024/02/12_12:36:52,SD,59.96955573539517,
7,./instructions/inst_prac_3/Slide43.png,right,3.369592614000112,604.828309597,608.1979022110002,,,,,,,,,,,,,,,,,,,,,,,,,,,,,,,,,1,,,,,,,,,,,,,,,,,,,,,,,,,,,,,,,,,,,,,,,,,,,,,,48,158362,18,Female,1,2024/02/12_12:36:52,SD,59.96955573539517,
8,./instructions/inst_prac_3/Slide44.png,right,1.634763760999931,608.2432109020001,609.877974663,,,,,,,,,,,,,,,,,,,,,,,,,,,,,,,,,1,,,,,,,,,,,,,,,,,,,,,,,,,,,,,,,,,,,,,,,,,,,,,,48,158362,18,Female,1,2024/02/12_12:36:52,SD,59.96955573539517,
,,,,,,practice,0,10,3,788,1,Q,0,right,0.8921907149999697,1,0,,,,,,,,,,,,,,,,,,,,,1,,,,,,,,,,,,,,,,,,,,,,,,,,,,,,,,,,,,,,,,,,,,,,48,158362,18,Female,1,2024/02/12_12:36:52,SD,59.96955573539517,
,,,,,,practice,0,10,3,788,2,X,0,right,0.38886048200015466,1,0,,,,,,,,,,,,,,,,,,,,,1,,,,,,,,,,,,,,,,,,,,,,,,,,,,,,,,,,,,,,,,,,,,,,48,158362,18,Female,1,2024/02/12_12:36:52,SD,59.96955573539517,
,,,,,,practice,0,10,3,788,3,Q,0,right,0.6765912599998956,1,0,,,,,,,,,,,,,,,,,,,,,1,,,,,,,,,,,,,,,,,,,,,,,,,,,,,,,,,,,,,,,,,,,,,,48,158362,18,Female,1,2024/02/12_12:36:52,SD,59.96955573539517,
,,,,,,practice,0,10,3,788,4,Q,1,left,0.5896130430000994,1,0,,,,,,,,,,,,,,,,,,,,,1,,,,,,,,,,,,,,,,,,,,,,,,,,,,,,,,,,,,,,,,,,,,,,48,158362,18,Female,1,2024/02/12_12:36:52,SD,59.96955573539517,
,,,,,,practice,0,10,3,788,5,V,0,right,1.7428262990001713,1,0,,,,,,,,,,,,,,,,,,,,,1,,,,,,,,,,,,,,,,,,,,,,,,,,,,,,,,,,,,,,,,,,,,,,48,158362,18,Female,1,2024/02/12_12:36:52,SD,59.96955573539517,
,,,,,,practice,0,10,3,788,6,N,0,right,0.6860159580000982,1,0,,,,,,,,,,,,,,,,,,,,,1,,,,,,,,,,,,,,,,,,,,,,,,,,,,,,,,,,,,,,,,,,,,,,48,158362,18,Female,1,2024/02/12_12:36:52,SD,59.96955573539517,
,,,,,,practice,0,10,3,788,7,N,0,right,1.2694222140003149,1,0,,,,,,,,,,,,,,,,,,,,,1,,,,,,,,,,,,,,,,,,,,,,,,,,,,,,,,,,,,,,,,,,,,,,48,158362,18,Female,1,2024/02/12_12:36:52,SD,59.96955573539517,
,,,,,,practice,0,10,3,788,8,V,1,left,0.6812504119998266,1,0,,,,,,,,,,,,,,,,,,,,,1,,,,,,,,,,,,,,,,,,,,,,,,,,,,,,,,,,,,,,,,,,,,,,48,158362,18,Female,1,2024/02/12_12:36:52,SD,59.96955573539517,
,,,,,,practice,0,10,3,788,9,S,0,right,0.8281680270001743,1,0,,,,,,,,,,,,,,,,,,,,,1,,,,,,,,,,,,,,,,,,,,,,,,,,,,,,,,,,,,,,,,,,,,,,48,158362,18,Female,1,2024/02/12_12:36:52,SD,59.96955573539517,
,,,,,,practice,0,10,3,788,10,S,0,right,0.8062468459997945,1,0,,,,,,,,,,,,,,,,,,,,,1,,,,,,,,,,,,,,,,,,,,,,,,,,,,,,,,,,,,,,,,,,,,,,48,158362,18,Female,1,2024/02/12_12:36:52,SD,59.96955573539517,
,,,,,,practice,0,10,3,788,11,Q,0,right,0.5951950009998654,1,0,,,,,,,,,,,,,,,,,,,,,1,,,,,,,,,,,,,,,,,,,,,,,,,,,,,,,,,,,,,,,,,,,,,,48,158362,18,Female,1,2024/02/12_12:36:52,SD,59.96955573539517,
,,,,,,practice,0,10,3,788,12,S,1,left,0.40635669600033,1,0,,,,,,,,,,,,,,,,,,,,,1,,,,,,,,,,,,,,,,,,,,,,,,,,,,,,,,,,,,,,,,,,,,,,48,158362,18,Female,1,2024/02/12_12:36:52,SD,59.96955573539517,
,,,,,,practice,0,10,3,788,13,S,1,left,1.2125372760001483,1,0,,,,,,,,,,,,,,,,,,,,,1,,,,,,,,,,,,,,,,,,,,,,,,,,,,,,,,,,,,,,,,,,,,,,48,158362,18,Female,1,2024/02/12_12:36:52,SD,59.96955573539517,
,,,,,,practice,0,10,3,788,,,,,,,,1.0,1.0,0.0,1.0,0.0,1.0,0.8288672483846802,4,0,0,0,0,9,13,4,9,0,,,,1,,,,,,,,,,,,,,,,,,,,,,,,,,,,,,,,,,,,,,,,,,,,,,48,158362,18,Female,1,2024/02/12_12:36:52,SD,59.96955573539517,
1,./instructions/inst_prac_3_next/Slide49.png,right,3.5664194699998006,634.4395649270002,638.005984397,,,,,,,,,,,,,,,,,,,,,,,,,,,,,,,,,1,,,,,,,,,,,,,,,,,,,,,,,,,,,,,,,,,,,,,,,,,,,,,,48,158362,18,Female,1,2024/02/12_12:36:52,SD,59.96955573539517,
,,,,,,practice,0,27,3,50,1,J,0,right,0.7651318490002268,1,0,,,,,,,,,,,,,,,,,,,,,1,,,,,,,,,,,,,,,,,,,,,,,,,,,,,,,,,,,,,,,,,,,,,,48,158362,18,Female,1,2024/02/12_12:36:52,SD,59.96955573539517,
,,,,,,practice,0,27,3,50,2,C,0,right,0.3427563579998605,1,0,,,,,,,,,,,,,,,,,,,,,1,,,,,,,,,,,,,,,,,,,,,,,,,,,,,,,,,,,,,,,,,,,,,,48,158362,18,Female,1,2024/02/12_12:36:52,SD,59.96955573539517,
,,,,,,practice,0,27,3,50,3,N,0,right,0.42331485600016094,1,0,,,,,,,,,,,,,,,,,,,,,1,,,,,,,,,,,,,,,,,,,,,,,,,,,,,,,,,,,,,,,,,,,,,,48,158362,18,Female,1,2024/02/12_12:36:52,SD,59.96955573539517,
,,,,,,practice,0,27,3,50,4,J,1,left,0.3183130560000791,1,0,,,,,,,,,,,,,,,,,,,,,1,,,,,,,,,,,,,,,,,,,,,,,,,,,,,,,,,,,,,,,,,,,,,,48,158362,18,Female,1,2024/02/12_12:36:52,SD,59.96955573539517,
,,,,,,practice,0,27,3,50,5,Q,0,right,0.4906287630001316,1,0,,,,,,,,,,,,,,,,,,,,,1,,,,,,,,,,,,,,,,,,,,,,,,,,,,,,,,,,,,,,,,,,,,,,48,158362,18,Female,1,2024/02/12_12:36:52,SD,59.96955573539517,
,,,,,,practice,0,27,3,50,6,F,0,right,0.3992655219999506,1,0,,,,,,,,,,,,,,,,,,,,,1,,,,,,,,,,,,,,,,,,,,,,,,,,,,,,,,,,,,,,,,,,,,,,48,158362,18,Female,1,2024/02/12_12:36:52,SD,59.96955573539517,
,,,,,,practice,0,27,3,50,7,J,1,left,0.5483271930002047,1,0,,,,,,,,,,,,,,,,,,,,,1,,,,,,,,,,,,,,,,,,,,,,,,,,,,,,,,,,,,,,,,,,,,,,48,158362,18,Female,1,2024/02/12_12:36:52,SD,59.96955573539517,
,,,,,,practice,0,27,3,50,8,X,0,right,0.2985717689998637,1,0,,,,,,,,,,,,,,,,,,,,,1,,,,,,,,,,,,,,,,,,,,,,,,,,,,,,,,,,,,,,,,,,,,,,48,158362,18,Female,1,2024/02/12_12:36:52,SD,59.96955573539517,
,,,,,,practice,0,27,3,50,9,X,0,right,0.5254195120000986,1,0,,,,,,,,,,,,,,,,,,,,,1,,,,,,,,,,,,,,,,,,,,,,,,,,,,,,,,,,,,,,,,,,,,,,48,158362,18,Female,1,2024/02/12_12:36:52,SD,59.96955573539517,
,,,,,,practice,0,27,3,50,10,V,0,right,0.507847460999983,1,0,,,,,,,,,,,,,,,,,,,,,1,,,,,,,,,,,,,,,,,,,,,,,,,,,,,,,,,,,,,,,,,,,,,,48,158362,18,Female,1,2024/02/12_12:36:52,SD,59.96955573539517,
,,,,,,practice,0,27,3,50,11,S,0,right,0.46189758700029415,1,0,,,,,,,,,,,,,,,,,,,,,1,,,,,,,,,,,,,,,,,,,,,,,,,,,,,,,,,,,,,,,,,,,,,,48,158362,18,Female,1,2024/02/12_12:36:52,SD,59.96955573539517,
,,,,,,practice,0,27,3,50,12,S,0,right,0.6519350469998244,1,0,,,,,,,,,,,,,,,,,,,,,1,,,,,,,,,,,,,,,,,,,,,,,,,,,,,,,,,,,,,,,,,,,,,,48,158362,18,Female,1,2024/02/12_12:36:52,SD,59.96955573539517,
,,,,,,practice,0,27,3,50,13,X,0,right,0.9531606589998773,1,0,,,,,,,,,,,,,,,,,,,,,1,,,,,,,,,,,,,,,,,,,,,,,,,,,,,,,,,,,,,,,,,,,,,,48,158362,18,Female,1,2024/02/12_12:36:52,SD,59.96955573539517,
,,,,,,practice,0,27,3,50,14,F,0,right,0.40171061999990343,1,0,,,,,,,,,,,,,,,,,,,,,1,,,,,,,,,,,,,,,,,,,,,,,,,,,,,,,,,,,,,,,,,,,,,,48,158362,18,Female,1,2024/02/12_12:36:52,SD,59.96955573539517,
,,,,,,practice,0,27,3,50,15,Q,0,right,0.5817053610003313,1,0,,,,,,,,,,,,,,,,,,,,,1,,,,,,,,,,,,,,,,,,,,,,,,,,,,,,,,,,,,,,,,,,,,,,48,158362,18,Female,1,2024/02/12_12:36:52,SD,59.96955573539517,
,,,,,,practice,0,27,3,50,16,F,0,left,1.4034176459999799,0,0,,,,,,,,,,,,,,,,,,,,,1,,,,,,,,,,,,,,,,,,,,,,,,,,,,,,,,,,,,,,,,,,,,,,48,158362,18,Female,1,2024/02/12_12:36:52,SD,59.96955573539517,
,,,,,,practice,0,27,3,50,17,J,0,right,0.3312454639999487,1,0,,,,,,,,,,,,,,,,,,,,,1,,,,,,,,,,,,,,,,,,,,,,,,,,,,,,,,,,,,,,,,,,,,,,48,158362,18,Female,1,2024/02/12_12:36:52,SD,59.96955573539517,
,,,,,,practice,0,27,3,50,18,Q,1,right,0.5265647229998649,0,0,,,,,,,,,,,,,,,,,,,,,1,,,,,,,,,,,,,,,,,,,,,,,,,,,,,,,,,,,,,,,,,,,,,,48,158362,18,Female,1,2024/02/12_12:36:52,SD,59.96955573539517,
,,,,,,practice,0,27,3,50,19,V,0,right,0.6010198650001257,1,0,,,,,,,,,,,,,,,,,,,,,1,,,,,,,,,,,,,,,,,,,,,,,,,,,,,,,,,,,,,,,,,,,,,,48,158362,18,Female,1,2024/02/12_12:36:52,SD,59.96955573539517,
,,,,,,practice,0,27,3,50,20,J,1,left,0.529850271000214,1,0,,,,,,,,,,,,,,,,,,,,,1,,,,,,,,,,,,,,,,,,,,,,,,,,,,,,,,,,,,,,,,,,,,,,48,158362,18,Female,1,2024/02/12_12:36:52,SD,59.96955573539517,
,,,,,,practice,0,27,3,50,21,S,0,right,0.3317662219997146,1,0,,,,,,,,,,,,,,,,,,,,,1,,,,,,,,,,,,,,,,,,,,,,,,,,,,,,,,,,,,,,,,,,,,,,48,158362,18,Female,1,2024/02/12_12:36:52,SD,59.96955573539517,
,,,,,,practice,0,27,3,50,22,F,0,right,0.4211037100003523,1,0,,,,,,,,,,,,,,,,,,,,,1,,,,,,,,,,,,,,,,,,,,,,,,,,,,,,,,,,,,,,,,,,,,,,48,158362,18,Female,1,2024/02/12_12:36:52,SD,59.96955573539517,
,,,,,,practice,0,27,3,50,23,J,1,left,0.5239564339999561,1,0,,,,,,,,,,,,,,,,,,,,,1,,,,,,,,,,,,,,,,,,,,,,,,,,,,,,,,,,,,,,,,,,,,,,48,158362,18,Female,1,2024/02/12_12:36:52,SD,59.96955573539517,
,,,,,,practice,0,27,3,50,24,S,1,right,0.36468003499976476,0,0,,,,,,,,,,,,,,,,,,,,,1,,,,,,,,,,,,,,,,,,,,,,,,,,,,,,,,,,,,,,,,,,,,,,48,158362,18,Female,1,2024/02/12_12:36:52,SD,59.96955573539517,
,,,,,,practice,0,27,3,50,25,N,0,right,0.5316981239998313,1,0,,,,,,,,,,,,,,,,,,,,,1,,,,,,,,,,,,,,,,,,,,,,,,,,,,,,,,,,,,,,,,,,,,,,48,158362,18,Female,1,2024/02/12_12:36:52,SD,59.96955573539517,
,,,,,,practice,0,27,3,50,,,,,,,,0.8859649122807016,0.6666666666666666,0.05263157894736842,0.9473684210526315,0.0,0.9473684210526316,0.5294115242800217,4,1,0,0,0,18,22,6,19,0,,,,1,,,,,,,,,,,,,,,,,,,,,,,,,,,,,,,,,,,,,,,,,,,,,,48,158362,18,Female,1,2024/02/12_12:36:52,SD,59.96955573539517,
,,,,,,practice,0,29,3,50,1,Q,0,right,0.5634979150004256,1,0,,,,,,,,,,,,,,,,,,,,,1,,,,,,,,,,,,,,,,,,,,,,,,,,,,,,,,,,,,,,,,,,,,,,48,158362,18,Female,1,2024/02/12_12:36:52,SD,59.96955573539517,
,,,,,,practice,0,29,3,50,2,C,0,right,0.3864934349999203,1,0,,,,,,,,,,,,,,,,,,,,,1,,,,,,,,,,,,,,,,,,,,,,,,,,,,,,,,,,,,,,,,,,,,,,48,158362,18,Female,1,2024/02/12_12:36:52,SD,59.96955573539517,
,,,,,,practice,0,29,3,50,3,Q,0,right,0.34890095099990504,1,0,,,,,,,,,,,,,,,,,,,,,1,,,,,,,,,,,,,,,,,,,,,,,,,,,,,,,,,,,,,,,,,,,,,,48,158362,18,Female,1,2024/02/12_12:36:52,SD,59.96955573539517,
,,,,,,practice,0,29,3,50,4,N,0,right,1.3935972969998147,1,0,,,,,,,,,,,,,,,,,,,,,1,,,,,,,,,,,,,,,,,,,,,,,,,,,,,,,,,,,,,,,,,,,,,,48,158362,18,Female,1,2024/02/12_12:36:52,SD,59.96955573539517,
,,,,,,practice,0,29,3,50,5,X,0,right,0.5027028280001105,1,0,,,,,,,,,,,,,,,,,,,,,1,,,,,,,,,,,,,,,,,,,,,,,,,,,,,,,,,,,,,,,,,,,,,,48,158362,18,Female,1,2024/02/12_12:36:52,SD,59.96955573539517,
,,,,,,practice,0,29,3,50,6,V,0,right,0.6504103039997062,1,0,,,,,,,,,,,,,,,,,,,,,1,,,,,,,,,,,,,,,,,,,,,,,,,,,,,,,,,,,,,,,,,,,,,,48,158362,18,Female,1,2024/02/12_12:36:52,SD,59.96955573539517,
,,,,,,practice,0,29,3,50,7,Q,0,right,0.873024099000304,1,0,,,,,,,,,,,,,,,,,,,,,1,,,,,,,,,,,,,,,,,,,,,,,,,,,,,,,,,,,,,,,,,,,,,,48,158362,18,Female,1,2024/02/12_12:36:52,SD,59.96955573539517,
,,,,,,practice,0,29,3,50,8,N,0,left,0.7290887859999202,0,0,,,,,,,,,,,,,,,,,,,,,1,,,,,,,,,,,,,,,,,,,,,,,,,,,,,,,,,,,,,,,,,,,,,,48,158362,18,Female,1,2024/02/12_12:36:52,SD,59.96955573539517,
,,,,,,practice,0,29,3,50,9,Q,0,right,0.7934281029997692,1,0,,,,,,,,,,,,,,,,,,,,,1,,,,,,,,,,,,,,,,,,,,,,,,,,,,,,,,,,,,,,,,,,,,,,48,158362,18,Female,1,2024/02/12_12:36:52,SD,59.96955573539517,
,,,,,,practice,0,29,3,50,10,C,0,right,0.0,1,0,,,,,,,,,,,,,,,,,,,,,1,,,,,,,,,,,,,,,,,,,,,,,,,,,,,,,,,,,,,,,,,,,,,,48,158362,18,Female,1,2024/02/12_12:36:52,SD,59.96955573539517,
,,,,,,practice,0,29,3,50,11,N,1,left,1.0220705649999218,1,0,,,,,,,,,,,,,,,,,,,,,1,,,,,,,,,,,,,,,,,,,,,,,,,,,,,,,,,,,,,,,,,,,,,,48,158362,18,Female,1,2024/02/12_12:36:52,SD,59.96955573539517,
,,,,,,practice,0,29,3,50,12,Q,1,right,0.8949755139997251,0,0,,,,,,,,,,,,,,,,,,,,,1,,,,,,,,,,,,,,,,,,,,,,,,,,,,,,,,,,,,,,,,,,,,,,48,158362,18,Female,1,2024/02/12_12:36:52,SD,59.96955573539517,
,,,,,,practice,0,29,3,50,13,F,0,right,0.5824881339999592,1,0,,,,,,,,,,,,,,,,,,,,,1,,,,,,,,,,,,,,,,,,,,,,,,,,,,,,,,,,,,,,,,,,,,,,48,158362,18,Female,1,2024/02/12_12:36:52,SD,59.96955573539517,
,,,,,,practice,0,29,3,50,14,V,0,right,0.899742330999743,1,0,,,,,,,,,,,,,,,,,,,,,1,,,,,,,,,,,,,,,,,,,,,,,,,,,,,,,,,,,,,,,,,,,,,,48,158362,18,Female,1,2024/02/12_12:36:52,SD,59.96955573539517,
,,,,,,practice,0,29,3,50,15,Q,1,right,0.674411450000207,0,0,,,,,,,,,,,,,,,,,,,,,1,,,,,,,,,,,,,,,,,,,,,,,,,,,,,,,,,,,,,,,,,,,,,,48,158362,18,Female,1,2024/02/12_12:36:52,SD,59.96955573539517,
,,,,,,practice,0,29,3,50,16,J,0,right,0.5616987550001795,1,0,,,,,,,,,,,,,,,,,,,,,1,,,,,,,,,,,,,,,,,,,,,,,,,,,,,,,,,,,,,,,,,,,,,,48,158362,18,Female,1,2024/02/12_12:36:52,SD,59.96955573539517,
,,,,,,practice,0,29,3,50,17,V,1,right,0.5727983019996827,0,0,,,,,,,,,,,,,,,,,,,,,1,,,,,,,,,,,,,,,,,,,,,,,,,,,,,,,,,,,,,,,,,,,,,,48,158362,18,Female,1,2024/02/12_12:36:52,SD,59.96955573539517,
,,,,,,practice,0,29,3,50,18,F,0,right,0.46807222999996156,1,0,,,,,,,,,,,,,,,,,,,,,1,,,,,,,,,,,,,,,,,,,,,,,,,,,,,,,,,,,,,,,,,,,,,,48,158362,18,Female,1,2024/02/12_12:36:52,SD,59.96955573539517,
,,,,,,practice,0,29,3,50,19,J,1,left,0.3242604410002059,1,0,,,,,,,,,,,,,,,,,,,,,1,,,,,,,,,,,,,,,,,,,,,,,,,,,,,,,,,,,,,,,,,,,,,,48,158362,18,Female,1,2024/02/12_12:36:52,SD,59.96955573539517,
,,,,,,practice,0,29,3,50,20,F,0,right,0.28684873100019104,1,0,,,,,,,,,,,,,,,,,,,,,1,,,,,,,,,,,,,,,,,,,,,,,,,,,,,,,,,,,,,,,,,,,,,,48,158362,18,Female,1,2024/02/12_12:36:52,SD,59.96955573539517,
,,,,,,practice,0,29,3,50,21,F,1,right,0.4529302649998499,0,0,,,,,,,,,,,,,,,,,,,,,1,,,,,,,,,,,,,,,,,,,,,,,,,,,,,,,,,,,,,,,,,,,,,,48,158362,18,Female,1,2024/02/12_12:36:52,SD,59.96955573539517,
,,,,,,practice,0,29,3,50,22,X,0,right,0.8127136449998034,1,0,,,,,,,,,,,,,,,,,,,,,1,,,,,,,,,,,,,,,,,,,,,,,,,,,,,,,,,,,,,,,,,,,,,,48,158362,18,Female,1,2024/02/12_12:36:52,SD,59.96955573539517,
,,,,,,practice,0,29,3,50,23,Q,0,right,0.6202247480000551,1,0,,,,,,,,,,,,,,,,,,,,,1,,,,,,,,,,,,,,,,,,,,,,,,,,,,,,,,,,,,,,,,,,,,,,48,158362,18,Female,1,2024/02/12_12:36:52,SD,59.96955573539517,
,,,,,,practice,0,29,3,50,24,F,1,right,0.41434060599976874,0,0,,,,,,,,,,,,,,,,,,,,,1,,,,,,,,,,,,,,,,,,,,,,,,,,,,,,,,,,,,,,,,,,,,,,48,158362,18,Female,1,2024/02/12_12:36:52,SD,59.96955573539517,
,,,,,,practice,0,29,3,50,25,S,0,right,0.6435314930004097,1,0,,,,,,,,,,,,,,,,,,,,,1,,,,,,,,,,,,,,,,,,,,,,,,,,,,,,,,,,,,,,,,,,,,,,48,158362,18,Female,1,2024/02/12_12:36:52,SD,59.96955573539517,
,,,,,,practice,0,29,3,50,,,,,,,,0.7589285714285714,0.2857142857142857,0.05555555555555555,0.9444444444444444,0.0,0.9444444444444444,0.6188900371199816,2,1,0,0,0,17,19,7,18,0,,,,1,,,,,,,,,,,,,,,,,,,,,,,,,,,,,,,,,,,,,,,,,,,,,,48,158362,18,Female,1,2024/02/12_12:36:52,SD,59.96955573539517,
1,./instructions/inst_prac_main/Slide51.png,right,2.16202913799998,697.2836722260001,699.4457013640001,,,,,,,,,,,,,,,,,,,,,,,,,,,,,,,,,1,,,,,,,,,,,,,,,,,,,,,,,,,,,,,,,,,,,,,,,,,,,,,,48,158362,18,Female,1,2024/02/12_12:36:52,SD,59.96955573539517,
2,./instructions/inst_prac_main/Slide52.png,right,8.982847722000315,699.4868746969998,708.4697224190002,,,,,,,,,,,,,,,,,,,,,,,,,,,,,,,,,1,,,,,,,,,,,,,,,,,,,,,,,,,,,,,,,,,,,,,,,,,,,,,,48,158362,18,Female,1,2024/02/12_12:36:52,SD,59.96955573539517,
1,./instructions/inst_prac_main/Slide53.png,left,7.466425070999776,708.5235529960003,715.989978067,,,,,,,,,,,,,,,,,,,,,,,,,,,,,,,,,1,,,,,,,,,,,,,,,,,,,,,,,,,,,,,,,,,,,,,,,,,,,,,,48,158362,18,Female,1,2024/02/12_12:36:52,SD,59.96955573539517,
2,./instructions/inst_prac_main/Slide52.png,right,1.7200811939997038,716.0298406990003,717.749921893,,,,,,,,,,,,,,,,,,,,,,,,,,,,,,,,,1,,,,,,,,,,,,,,,,,,,,,,,,,,,,,,,,,,,,,,,,,,,,,,48,158362,18,Female,1,2024/02/12_12:36:52,SD,59.96955573539517,
