Instruction,Stimulus,Key,RT,START,END,Phase,Block,TrialN,NbackLevel,ISI,LetterN,Letter,Letter_isSame,Letter_Resp,Letter_RT,Letter_Accuracy,Letter_Timeout,Trial_A_measure,Trial_HR,Trial_FAR,Trial_CDR,Trial_MSR,Trial_ACC,Trial_RT,Trial_HitsCount,Trial_FAsCount,Trial_SameNoRespCount,Trial_DiffNoRespCount,Trial_NoRespCount,Trial_CDsCount,Trial_CorrectRespCount,Trial_SameLetterCount,Trial_DiffLetterCount,Trial_InvalidLetterCount,TrialCountCali,CaliEnd_A_measure,ISI_calibrated,Run,TrialIndex,TrialNumber_total,TrialNumber_valid,CueLearning,TrialDemandLearning,CueMapping,OnlineRating,OnlineRatingRT,OnlineRatingTimeOut,CueSTART,RatingSTART,OfflineRatingTimePoint,OfflineRatingQuesIndex,CueFigure,TrialDemand,OfflineRating,OfflineRatingRT,CueStart,OfflineRatingStart,PhaseType,CueLeft,CueDemandLeft,CueRight,CueDemandRight,Choice,ChoiceDemand,TaskDemand,ChoiceRT,ChoiceTimeOut,ChoiceSTART,CueCheck,CueDemandCheck,CorrectAnswer,Answer,AnswerDemand,AnswerRT,AnswerACC,AnswerTimeOut,CheckSTART,DemandRatingQuesIndex,QuesTLX,DemandLevel,DemandRating,DemandRatingRT,QuesStart,PID,SONA,Age,Gender,Run,TIME,EXPERIMENTER,frameRate
-1,./instructions/inst_begin/Slide2.png,left,30.77714184,0.22579597,31.00293781,,,,,,,,,,,,,,,,,,,,,,,,,,,,,,,,,1,,,,,,,,,,,,,,,,,,,,,,,,,,,,,,,,,,,,,,,,,,,,,,44,155620,18,Female,1,2024/02/09_14:16:03,JV,59.86590755
0,./instructions/inst_begin/Slide4.png,right,10.45571749,31.03510488,41.49082237,,,,,,,,,,,,,,,,,,,,,,,,,,,,,,,,,1,,,,,,,,,,,,,,,,,,,,,,,,,,,,,,,,,,,,,,,,,,,,,,44,155620,18,Female,1,2024/02/09_14:16:03,JV,59.86590755
1,./instructions/inst_begin/Slide2.png,right,3.980840919,41.52579502,45.50663593,,,,,,,,,,,,,,,,,,,,,,,,,,,,,,,,,1,,,,,,,,,,,,,,,,,,,,,,,,,,,,,,,,,,,,,,,,,,,,,,44,155620,18,Female,1,2024/02/09_14:16:03,JV,59.86590755
2,./instructions/inst_begin/Slide3.png,right,10.04530352,45.54124783,55.58655135,,,,,,,,,,,,,,,,,,,,,,,,,,,,,,,,,1,,,,,,,,,,,,,,,,,,,,,,,,,,,,,,,,,,,,,,,,,,,,,,44,155620,18,Female,1,2024/02/09_14:16:03,JV,59.86590755
3,./instructions/inst_begin/Slide4.png,right,3.238280427,55.62016929,58.85844972,,,,,,,,,,,,,,,,,,,,,,,,,,,,,,,,,1,,,,,,,,,,,,,,,,,,,,,,,,,,,,,,,,,,,,,,,,,,,,,,44,155620,18,Female,1,2024/02/09_14:16:03,JV,59.86590755
1,./instructions/inst_prac_2/Slide6.png,right,11.87414471,58.92849332,70.80263803,,,,,,,,,,,,,,,,,,,,,,,,,,,,,,,,,1,,,,,,,,,,,,,,,,,,,,,,,,,,,,,,,,,,,,,,,,,,,,,,44,155620,18,Female,1,2024/02/09_14:16:03,JV,59.86590755
2,./instructions/inst_prac_2/Slide7.png,right,26.49225811,70.83823019,97.3304883,,,,,,,,,,,,,,,,,,,,,,,,,,,,,,,,,1,,,,,,,,,,,,,,,,,,,,,,,,,,,,,,,,,,,,,,,,,,,,,,44,155620,18,Female,1,2024/02/09_14:16:03,JV,59.86590755
3,./instructions/inst_prac_2/Slide8.png,right,10.64571114,97.36488388,108.010595,,,,,,,,,,,,,,,,,,,,,,,,,,,,,,,,,1,,,,,,,,,,,,,,,,,,,,,,,,,,,,,,,,,,,,,,,,,,,,,,44,155620,18,Female,1,2024/02/09_14:16:03,JV,59.86590755
4,./instructions/inst_prac_2/Slide9.png,right,0.200515076,108.0424308,108.2429458,,,,,,,,,,,,,,,,,,,,,,,,,,,,,,,,,1,,,,,,,,,,,,,,,,,,,,,,,,,,,,,,,,,,,,,,,,,,,,,,44,155620,18,Female,1,2024/02/09_14:16:03,JV,59.86590755
5,./instructions/inst_prac_2/Slide10.png,right,4.731175562,108.2710246,113.0022002,,,,,,,,,,,,,,,,,,,,,,,,,,,,,,,,,1,,,,,,,,,,,,,,,,,,,,,,,,,,,,,,,,,,,,,,,,,,,,,,44,155620,18,Female,1,2024/02/09_14:16:03,JV,59.86590755
6,./instructions/inst_prac_2/Slide11.png,right,1.413592143,113.0370782,114.4506703,,,,,,,,,,,,,,,,,,,,,,,,,,,,,,,,,1,,,,,,,,,,,,,,,,,,,,,,,,,,,,,,,,,,,,,,,,,,,,,,44,155620,18,Female,1,2024/02/09_14:16:03,JV,59.86590755
7,./instructions/inst_prac_2/Slide12.png,right,1.589596199,114.4850658,116.074662,,,,,,,,,,,,,,,,,,,,,,,,,,,,,,,,,1,,,,,,,,,,,,,,,,,,,,,,,,,,,,,,,,,,,,,,,,,,,,,,44,155620,18,Female,1,2024/02/09_14:16:03,JV,59.86590755
8,./instructions/inst_prac_2/Slide13.png,right,0.956907141,116.109708,117.0666152,,,,,,,,,,,,,,,,,,,,,,,,,,,,,,,,,1,,,,,,,,,,,,,,,,,,,,,,,,,,,,,,,,,,,,,,,,,,,,,,44,155620,18,Female,1,2024/02/09_14:16:03,JV,59.86590755
9,./instructions/inst_prac_2/Slide14.png,right,9.175845176,117.0986181,126.2744633,,,,,,,,,,,,,,,,,,,,,,,,,,,,,,,,,1,,,,,,,,,,,,,,,,,,,,,,,,,,,,,,,,,,,,,,,,,,,,,,44,155620,18,Female,1,2024/02/09_14:16:03,JV,59.86590755
10,./instructions/inst_prac_2/Slide15.png,right,14.03964428,126.3068568,140.3465011,,,,,,,,,,,,,,,,,,,,,,,,,,,,,,,,,1,,,,,,,,,,,,,,,,,,,,,,,,,,,,,,,,,,,,,,,,,,,,,,44,155620,18,Female,1,2024/02/09_14:16:03,JV,59.86590755
,,,,,,practice,0,27,2,2583,1,C,0,right,6.514530948,1,0,,,,,,,,,,,,,,,,,,,,,1,,,,,,,,,,,,,,,,,,,,,,,,,,,,,,,,,,,,,,,,,,,,,,44,155620,18,Female,1,2024/02/09_14:16:03,JV,59.86590755
,,,,,,practice,0,27,2,2583,2,X,0,right,4.750390419,1,0,,,,,,,,,,,,,,,,,,,,,1,,,,,,,,,,,,,,,,,,,,,,,,,,,,,,,,,,,,,,,,,,,,,,44,155620,18,Female,1,2024/02/09_14:16:03,JV,59.86590755
,,,,,,practice,0,27,2,2583,3,C,1,left,1.009025854,1,0,,,,,,,,,,,,,,,,,,,,,1,,,,,,,,,,,,,,,,,,,,,,,,,,,,,,,,,,,,,,,,,,,,,,44,155620,18,Female,1,2024/02/09_14:16:03,JV,59.86590755
,,,,,,practice,0,27,2,2583,4,F,0,right,0.923893037,1,0,,,,,,,,,,,,,,,,,,,,,1,,,,,,,,,,,,,,,,,,,,,,,,,,,,,,,,,,,,,,,,,,,,,,44,155620,18,Female,1,2024/02/09_14:16:03,JV,59.86590755
,,,,,,practice,0,27,2,2583,5,Q,0,right,1.149695431,1,0,,,,,,,,,,,,,,,,,,,,,1,,,,,,,,,,,,,,,,,,,,,,,,,,,,,,,,,,,,,,,,,,,,,,44,155620,18,Female,1,2024/02/09_14:16:03,JV,59.86590755
,,,,,,practice,0,27,2,2583,6,F,1,left,0.680947222,1,0,,,,,,,,,,,,,,,,,,,,,1,,,,,,,,,,,,,,,,,,,,,,,,,,,,,,,,,,,,,,,,,,,,,,44,155620,18,Female,1,2024/02/09_14:16:03,JV,59.86590755
,,,,,,practice,0,27,2,2583,,,,,,,,1,1,0,1,0,1,2.504747152,2,0,0,0,0,4,6,2,4,0,,,,1,,,,,,,,,,,,,,,,,,,,,,,,,,,,,,,,,,,,,,,,,,,,,,44,155620,18,Female,1,2024/02/09_14:16:03,JV,59.86590755
1,./instructions/inst_to_cali/Slide20.png,right,6.440052484,161.7865453,168.2265977,,,,,,,,,,,,,,,,,,,,,,,,,,,,,,,,,1,,,,,,,,,,,,,,,,,,,,,,,,,,,,,,,,,,,,,,,,,,,,,,44,155620,18,Female,1,2024/02/09_14:16:03,JV,59.86590755
1,./instructions/inst_cali/Slide22.png,right,2.007143893,168.2674279,170.2745718,,,,,,,,,,,,,,,,,,,,,,,,,,,,,,,,,1,,,,,,,,,,,,,,,,,,,,,,,,,,,,,,,,,,,,,,,,,,,,,,44,155620,18,Female,1,2024/02/09_14:16:03,JV,59.86590755
,,,,,,calibration,0,26,2,583,1,C,0,left,0.792960337,0,0,,,,,,,,,,,,,,,,,,,,,1,,,,,,,,,,,,,,,,,,,,,,,,,,,,,,,,,,,,,,,,,,,,,,44,155620,18,Female,1,2024/02/09_14:16:03,JV,59.86590755
,,,,,,calibration,0,26,2,583,2,J,0,right,0.780124356,1,0,,,,,,,,,,,,,,,,,,,,,1,,,,,,,,,,,,,,,,,,,,,,,,,,,,,,,,,,,,,,,,,,,,,,44,155620,18,Female,1,2024/02/09_14:16:03,JV,59.86590755
,,,,,,calibration,0,26,2,583,3,Q,0,left,0.405697951,0,0,,,,,,,,,,,,,,,,,,,,,1,,,,,,,,,,,,,,,,,,,,,,,,,,,,,,,,,,,,,,,,,,,,,,44,155620,18,Female,1,2024/02/09_14:16:03,JV,59.86590755
,,,,,,calibration,0,26,2,583,4,V,0,left,0.454825011,0,0,,,,,,,,,,,,,,,,,,,,,1,,,,,,,,,,,,,,,,,,,,,,,,,,,,,,,,,,,,,,,,,,,,,,44,155620,18,Female,1,2024/02/09_14:16:03,JV,59.86590755
,,,,,,calibration,0,26,2,583,5,N,0,left,0.742265916,0,0,,,,,,,,,,,,,,,,,,,,,1,,,,,,,,,,,,,,,,,,,,,,,,,,,,,,,,,,,,,,,,,,,,,,44,155620,18,Female,1,2024/02/09_14:16:03,JV,59.86590755
,,,,,,calibration,0,26,2,583,6,V,1,left,0.457573301,1,0,,,,,,,,,,,,,,,,,,,,,1,,,,,,,,,,,,,,,,,,,,,,,,,,,,,,,,,,,,,,,,,,,,,,44,155620,18,Female,1,2024/02/09_14:16:03,JV,59.86590755
,,,,,,calibration,0,26,2,583,7,N,1,left,0.781971891,1,0,,,,,,,,,,,,,,,,,,,,,1,,,,,,,,,,,,,,,,,,,,,,,,,,,,,,,,,,,,,,,,,,,,,,44,155620,18,Female,1,2024/02/09_14:16:03,JV,59.86590755
,,,,,,calibration,0,26,2,583,8,J,0,left,0.595120705,0,0,,,,,,,,,,,,,,,,,,,,,1,,,,,,,,,,,,,,,,,,,,,,,,,,,,,,,,,,,,,,,,,,,,,,44,155620,18,Female,1,2024/02/09_14:16:03,JV,59.86590755
,,,,,,calibration,0,26,2,583,9,N,1,right,0.844645788,0,0,,,,,,,,,,,,,,,,,,,,,1,,,,,,,,,,,,,,,,,,,,,,,,,,,,,,,,,,,,,,,,,,,,,,44,155620,18,Female,1,2024/02/09_14:16:03,JV,59.86590755
,,,,,,calibration,0,26,2,583,10,C,0,left,0.305172213,0,0,,,,,,,,,,,,,,,,,,,,,1,,,,,,,,,,,,,,,,,,,,,,,,,,,,,,,,,,,,,,,,,,,,,,44,155620,18,Female,1,2024/02/09_14:16:03,JV,59.86590755
,,,,,,calibration,0,26,2,583,11,J,0,right,0.66884345,1,0,,,,,,,,,,,,,,,,,,,,,1,,,,,,,,,,,,,,,,,,,,,,,,,,,,,,,,,,,,,,,,,,,,,,44,155620,18,Female,1,2024/02/09_14:16:03,JV,59.86590755
,,,,,,calibration,0,26,2,583,12,X,0,left,0.356354375,0,0,,,,,,,,,,,,,,,,,,,,,1,,,,,,,,,,,,,,,,,,,,,,,,,,,,,,,,,,,,,,,,,,,,,,44,155620,18,Female,1,2024/02/09_14:16:03,JV,59.86590755
,,,,,,calibration,0,26,2,583,13,Q,0,left,0.342949575,0,0,,,,,,,,,,,,,,,,,,,,,1,,,,,,,,,,,,,,,,,,,,,,,,,,,,,,,,,,,,,,,,,,,,,,44,155620,18,Female,1,2024/02/09_14:16:03,JV,59.86590755
,,,,,,calibration,0,26,2,583,14,X,1,left,0.260233621,1,0,,,,,,,,,,,,,,,,,,,,,1,,,,,,,,,,,,,,,,,,,,,,,,,,,,,,,,,,,,,,,,,,,,,,44,155620,18,Female,1,2024/02/09_14:16:03,JV,59.86590755
,,,,,,calibration,0,26,2,583,15,J,0,left,0.610099669,0,0,,,,,,,,,,,,,,,,,,,,,1,,,,,,,,,,,,,,,,,,,,,,,,,,,,,,,,,,,,,,,,,,,,,,44,155620,18,Female,1,2024/02/09_14:16:03,JV,59.86590755
,,,,,,calibration,0,26,2,583,,,,,,,,0.051136364,0.75,0.818181818,0.181818182,0,0.181818182,0.559922544,3,9,0,0,0,2,5,4,11,0,,,,1,,,,,,,,,,,,,,,,,,,,,,,,,,,,,,,,,,,,,,,,,,,,,,44,155620,18,Female,1,2024/02/09_14:16:03,JV,59.86590755
,,,,,,Calibration,0,,2,583,,,,,,,,,,,,,,,,,,,,,,,,,1,,,1,,,,,,,,,,,,,,,,,,,,,,,,,,,,,,,,,,,,,,,,,,,,,,44,155620,18,Female,1,2024/02/09_14:16:03,JV,59.86590755
,,,,,,calibration,0,29,2,679,1,N,0,left,1.214078502,0,0,,,,,,,,,,,,,,,,,,,,,1,,,,,,,,,,,,,,,,,,,,,,,,,,,,,,,,,,,,,,,,,,,,,,44,155620,18,Female,1,2024/02/09_14:16:03,JV,59.86590755
,,,,,,calibration,0,29,2,679,2,S,0,right,0.947338439,1,0,,,,,,,,,,,,,,,,,,,,,1,,,,,,,,,,,,,,,,,,,,,,,,,,,,,,,,,,,,,,,,,,,,,,44,155620,18,Female,1,2024/02/09_14:16:03,JV,59.86590755
,,,,,,calibration,0,29,2,679,3,J,0,right,0.808014559,1,0,,,,,,,,,,,,,,,,,,,,,1,,,,,,,,,,,,,,,,,,,,,,,,,,,,,,,,,,,,,,,,,,,,,,44,155620,18,Female,1,2024/02/09_14:16:03,JV,59.86590755
,,,,,,calibration,0,29,2,679,4,S,1,left,1.002469123,1,0,,,,,,,,,,,,,,,,,,,,,1,,,,,,,,,,,,,,,,,,,,,,,,,,,,,,,,,,,,,,,,,,,,,,44,155620,18,Female,1,2024/02/09_14:16:03,JV,59.86590755
,,,,,,calibration,0,29,2,679,5,J,1,right,0.946532128,0,0,,,,,,,,,,,,,,,,,,,,,1,,,,,,,,,,,,,,,,,,,,,,,,,,,,,,,,,,,,,,,,,,,,,,44,155620,18,Female,1,2024/02/09_14:16:03,JV,59.86590755
,,,,,,calibration,0,29,2,679,6,N,0,right,0.712500938,1,0,,,,,,,,,,,,,,,,,,,,,1,,,,,,,,,,,,,,,,,,,,,,,,,,,,,,,,,,,,,,,,,,,,,,44,155620,18,Female,1,2024/02/09_14:16:03,JV,59.86590755
,,,,,,calibration,0,29,2,679,7,X,0,right,1.378075861,1,0,,,,,,,,,,,,,,,,,,,,,1,,,,,,,,,,,,,,,,,,,,,,,,,,,,,,,,,,,,,,,,,,,,,,44,155620,18,Female,1,2024/02/09_14:16:03,JV,59.86590755
,,,,,,calibration,0,29,2,679,8,S,0,left,0.30555211,0,0,,,,,,,,,,,,,,,,,,,,,1,,,,,,,,,,,,,,,,,,,,,,,,,,,,,,,,,,,,,,,,,,,,,,44,155620,18,Female,1,2024/02/09_14:16:03,JV,59.86590755
,,,,,,calibration,0,29,2,679,9,Q,0,right,0.829940665,1,0,,,,,,,,,,,,,,,,,,,,,1,,,,,,,,,,,,,,,,,,,,,,,,,,,,,,,,,,,,,,,,,,,,,,44,155620,18,Female,1,2024/02/09_14:16:03,JV,59.86590755
,,,,,,calibration,0,29,2,679,10,N,0,right,0.779343406,1,0,,,,,,,,,,,,,,,,,,,,,1,,,,,,,,,,,,,,,,,,,,,,,,,,,,,,,,,,,,,,,,,,,,,,44,155620,18,Female,1,2024/02/09_14:16:03,JV,59.86590755
,,,,,,calibration,0,29,2,679,11,C,0,right,1.013470609,1,0,,,,,,,,,,,,,,,,,,,,,1,,,,,,,,,,,,,,,,,,,,,,,,,,,,,,,,,,,,,,,,,,,,,,44,155620,18,Female,1,2024/02/09_14:16:03,JV,59.86590755
,,,,,,calibration,0,29,2,679,12,Q,0,left,0.879651935,0,0,,,,,,,,,,,,,,,,,,,,,1,,,,,,,,,,,,,,,,,,,,,,,,,,,,,,,,,,,,,,,,,,,,,,44,155620,18,Female,1,2024/02/09_14:16:03,JV,59.86590755
,,,,,,calibration,0,29,2,679,13,C,1,right,0.321925426,0,0,,,,,,,,,,,,,,,,,,,,,1,,,,,,,,,,,,,,,,,,,,,,,,,,,,,,,,,,,,,,,,,,,,,,44,155620,18,Female,1,2024/02/09_14:16:03,JV,59.86590755
,,,,,,calibration,0,29,2,679,14,Q,1,right,0.36637701,0,0,,,,,,,,,,,,,,,,,,,,,1,,,,,,,,,,,,,,,,,,,,,,,,,,,,,,,,,,,,,,,,,,,,,,44,155620,18,Female,1,2024/02/09_14:16:03,JV,59.86590755
,,,,,,calibration,0,29,2,679,,,,,,,,0.029166667,0.25,0.3,0.7,0,0.7,0.821805051,1,3,0,0,0,7,8,4,10,0,,,,1,,,,,,,,,,,,,,,,,,,,,,,,,,,,,,,,,,,,,,,,,,,,,,44,155620,18,Female,1,2024/02/09_14:16:03,JV,59.86590755
,,,,,,Calibration,0,,2,679,,,,,,,,,,,,,,,,,,,,,,,,,2,,,1,,,,,,,,,,,,,,,,,,,,,,,,,,,,,,,,,,,,,,,,,,,,,,44,155620,18,Female,1,2024/02/09_14:16:03,JV,59.86590755
,,,,,,calibration,0,20,2,788,1,C,0,left,1.009746299,0,0,,,,,,,,,,,,,,,,,,,,,1,,,,,,,,,,,,,,,,,,,,,,,,,,,,,,,,,,,,,,,,,,,,,,44,155620,18,Female,1,2024/02/09_14:16:03,JV,59.86590755
,,,,,,calibration,0,20,2,788,2,J,0,right,0.544055591,1,0,,,,,,,,,,,,,,,,,,,,,1,,,,,,,,,,,,,,,,,,,,,,,,,,,,,,,,,,,,,,,,,,,,,,44,155620,18,Female,1,2024/02/09_14:16:03,JV,59.86590755
,,,,,,calibration,0,20,2,788,3,Q,0,right,0.486896054,1,0,,,,,,,,,,,,,,,,,,,,,1,,,,,,,,,,,,,,,,,,,,,,,,,,,,,,,,,,,,,,,,,,,,,,44,155620,18,Female,1,2024/02/09_14:16:03,JV,59.86590755
,,,,,,calibration,0,20,2,788,4,J,1,left,0.422754813,1,0,,,,,,,,,,,,,,,,,,,,,1,,,,,,,,,,,,,,,,,,,,,,,,,,,,,,,,,,,,,,,,,,,,,,44,155620,18,Female,1,2024/02/09_14:16:03,JV,59.86590755
,,,,,,calibration,0,20,2,788,5,Q,1,right,0.567483883,0,0,,,,,,,,,,,,,,,,,,,,,1,,,,,,,,,,,,,,,,,,,,,,,,,,,,,,,,,,,,,,,,,,,,,,44,155620,18,Female,1,2024/02/09_14:16:03,JV,59.86590755
,,,,,,calibration,0,20,2,788,6,F,0,right,0.534840617,1,0,,,,,,,,,,,,,,,,,,,,,1,,,,,,,,,,,,,,,,,,,,,,,,,,,,,,,,,,,,,,,,,,,,,,44,155620,18,Female,1,2024/02/09_14:16:03,JV,59.86590755
,,,,,,calibration,0,20,2,788,7,V,0,right,0.644296672,1,0,,,,,,,,,,,,,,,,,,,,,1,,,,,,,,,,,,,,,,,,,,,,,,,,,,,,,,,,,,,,,,,,,,,,44,155620,18,Female,1,2024/02/09_14:16:03,JV,59.86590755
,,,,,,calibration,0,20,2,788,8,N,0,right,0.679581329,1,0,,,,,,,,,,,,,,,,,,,,,1,,,,,,,,,,,,,,,,,,,,,,,,,,,,,,,,,,,,,,,,,,,,,,44,155620,18,Female,1,2024/02/09_14:16:03,JV,59.86590755
,,,,,,calibration,0,20,2,788,9,X,0,right,0.611514086,1,0,,,,,,,,,,,,,,,,,,,,,1,,,,,,,,,,,,,,,,,,,,,,,,,,,,,,,,,,,,,,,,,,,,,,44,155620,18,Female,1,2024/02/09_14:16:03,JV,59.86590755
,,,,,,calibration,0,20,2,788,10,S,0,left,0.829559385,0,0,,,,,,,,,,,,,,,,,,,,,1,,,,,,,,,,,,,,,,,,,,,,,,,,,,,,,,,,,,,,,,,,,,,,44,155620,18,Female,1,2024/02/09_14:16:03,JV,59.86590755
,,,,,,calibration,0,20,2,788,11,X,1,right,0.302379129,0,0,,,,,,,,,,,,,,,,,,,,,1,,,,,,,,,,,,,,,,,,,,,,,,,,,,,,,,,,,,,,,,,,,,,,44,155620,18,Female,1,2024/02/09_14:16:03,JV,59.86590755
,,,,,,calibration,0,20,2,788,12,J,0,right,0.471671764,1,0,,,,,,,,,,,,,,,,,,,,,1,,,,,,,,,,,,,,,,,,,,,,,,,,,,,,,,,,,,,,,,,,,,,,44,155620,18,Female,1,2024/02/09_14:16:03,JV,59.86590755
,,,,,,calibration,0,20,2,788,13,X,1,left,0.96326261,1,0,,,,,,,,,,,,,,,,,,,,,1,,,,,,,,,,,,,,,,,,,,,,,,,,,,,,,,,,,,,,,,,,,,,,44,155620,18,Female,1,2024/02/09_14:16:03,JV,59.86590755
,,,,,,calibration,0,20,2,788,,,,,,,,0.708333333,0.5,0.222222222,0.777777778,0,0.777777778,0.620618633,2,2,0,0,0,7,9,4,9,0,,,,1,,,,,,,,,,,,,,,,,,,,,,,,,,,,,,,,,,,,,,,,,,,,,,44,155620,18,Female,1,2024/02/09_14:16:03,JV,59.86590755
,,,,,,Calibration,0,,2,788,,,,,,,,,,,,,,,,,,,,,,,,,3,,,1,,,,,,,,,,,,,,,,,,,,,,,,,,,,,,,,,,,,,,,,,,,,,,44,155620,18,Female,1,2024/02/09_14:16:03,JV,59.86590755
,,,,,,calibration,0,27,2,917,1,V,0,right,0.797081264,1,0,,,,,,,,,,,,,,,,,,,,,1,,,,,,,,,,,,,,,,,,,,,,,,,,,,,,,,,,,,,,,,,,,,,,44,155620,18,Female,1,2024/02/09_14:16:03,JV,59.86590755
,,,,,,calibration,0,27,2,917,2,V,0,right,0.761840557,1,0,,,,,,,,,,,,,,,,,,,,,1,,,,,,,,,,,,,,,,,,,,,,,,,,,,,,,,,,,,,,,,,,,,,,44,155620,18,Female,1,2024/02/09_14:16:03,JV,59.86590755
,,,,,,calibration,0,27,2,917,3,V,1,left,0.512680139,1,0,,,,,,,,,,,,,,,,,,,,,1,,,,,,,,,,,,,,,,,,,,,,,,,,,,,,,,,,,,,,,,,,,,,,44,155620,18,Female,1,2024/02/09_14:16:03,JV,59.86590755
,,,,,,calibration,0,27,2,917,4,Q,0,right,0.432818704,1,0,,,,,,,,,,,,,,,,,,,,,1,,,,,,,,,,,,,,,,,,,,,,,,,,,,,,,,,,,,,,,,,,,,,,44,155620,18,Female,1,2024/02/09_14:16:03,JV,59.86590755
,,,,,,calibration,0,27,2,917,5,C,0,right,0.4695207,1,0,,,,,,,,,,,,,,,,,,,,,1,,,,,,,,,,,,,,,,,,,,,,,,,,,,,,,,,,,,,,,,,,,,,,44,155620,18,Female,1,2024/02/09_14:16:03,JV,59.86590755
,,,,,,calibration,0,27,2,917,6,Q,1,left,0.4939157,1,0,,,,,,,,,,,,,,,,,,,,,1,,,,,,,,,,,,,,,,,,,,,,,,,,,,,,,,,,,,,,,,,,,,,,44,155620,18,Female,1,2024/02/09_14:16:03,JV,59.86590755
,,,,,,calibration,0,27,2,917,7,X,0,right,0.35891351,1,0,,,,,,,,,,,,,,,,,,,,,1,,,,,,,,,,,,,,,,,,,,,,,,,,,,,,,,,,,,,,,,,,,,,,44,155620,18,Female,1,2024/02/09_14:16:03,JV,59.86590755
,,,,,,calibration,0,27,2,917,8,Q,1,right,0.512680079,0,0,,,,,,,,,,,,,,,,,,,,,1,,,,,,,,,,,,,,,,,,,,,,,,,,,,,,,,,,,,,,,,,,,,,,44,155620,18,Female,1,2024/02/09_14:16:03,JV,59.86590755
,,,,,,calibration,0,27,2,917,9,F,0,right,0.710220892,1,0,,,,,,,,,,,,,,,,,,,,,1,,,,,,,,,,,,,,,,,,,,,,,,,,,,,,,,,,,,,,,,,,,,,,44,155620,18,Female,1,2024/02/09_14:16:03,JV,59.86590755
,,,,,,calibration,0,27,2,917,10,N,0,right,0.861643261,1,0,,,,,,,,,,,,,,,,,,,,,1,,,,,,,,,,,,,,,,,,,,,,,,,,,,,,,,,,,,,,,,,,,,,,44,155620,18,Female,1,2024/02/09_14:16:03,JV,59.86590755
,,,,,,calibration,0,27,2,917,11,Q,0,right,0.829316282,1,0,,,,,,,,,,,,,,,,,,,,,1,,,,,,,,,,,,,,,,,,,,,,,,,,,,,,,,,,,,,,,,,,,,,,44,155620,18,Female,1,2024/02/09_14:16:03,JV,59.86590755
,,,,,,calibration,0,27,2,917,12,N,1,right,0.629791082,0,0,,,,,,,,,,,,,,,,,,,,,1,,,,,,,,,,,,,,,,,,,,,,,,,,,,,,,,,,,,,,,,,,,,,,44,155620,18,Female,1,2024/02/09_14:16:03,JV,59.86590755
,,,,,,calibration,0,27,2,917,,,,,,,,0.875,0.5,0,1,0,1,0.614201847,2,0,0,0,0,8,10,4,8,0,,,,1,,,,,,,,,,,,,,,,,,,,,,,,,,,,,,,,,,,,,,,,,,,,,,44,155620,18,Female,1,2024/02/09_14:16:03,JV,59.86590755
,,,,,,Calibration,0,,2,917,,,,,,,,,,,,,,,,,,,,,,,,,4,,,1,,,,,,,,,,,,,,,,,,,,,,,,,,,,,,,,,,,,,,,,,,,,,,44,155620,18,Female,1,2024/02/09_14:16:03,JV,59.86590755
,,,,,,calibration,0,14,2,788,1,V,0,right,0.745339809,1,0,,,,,,,,,,,,,,,,,,,,,1,,,,,,,,,,,,,,,,,,,,,,,,,,,,,,,,,,,,,,,,,,,,,,44,155620,18,Female,1,2024/02/09_14:16:03,JV,59.86590755
,,,,,,calibration,0,14,2,788,2,V,0,right,0.847816614,1,0,,,,,,,,,,,,,,,,,,,,,1,,,,,,,,,,,,,,,,,,,,,,,,,,,,,,,,,,,,,,,,,,,,,,44,155620,18,Female,1,2024/02/09_14:16:03,JV,59.86590755
,,,,,,calibration,0,14,2,788,3,J,0,right,0.756802718,1,0,,,,,,,,,,,,,,,,,,,,,1,,,,,,,,,,,,,,,,,,,,,,,,,,,,,,,,,,,,,,,,,,,,,,44,155620,18,Female,1,2024/02/09_14:16:03,JV,59.86590755
,,,,,,calibration,0,14,2,788,4,V,1,left,0.619556754,1,0,,,,,,,,,,,,,,,,,,,,,1,,,,,,,,,,,,,,,,,,,,,,,,,,,,,,,,,,,,,,,,,,,,,,44,155620,18,Female,1,2024/02/09_14:16:03,JV,59.86590755
,,,,,,calibration,0,14,2,788,5,N,0,right,0.40150004,1,0,,,,,,,,,,,,,,,,,,,,,1,,,,,,,,,,,,,,,,,,,,,,,,,,,,,,,,,,,,,,,,,,,,,,44,155620,18,Female,1,2024/02/09_14:16:03,JV,59.86590755
,,,,,,calibration,0,14,2,788,6,F,0,right,0.446989872,1,0,,,,,,,,,,,,,,,,,,,,,1,,,,,,,,,,,,,,,,,,,,,,,,,,,,,,,,,,,,,,,,,,,,,,44,155620,18,Female,1,2024/02/09_14:16:03,JV,59.86590755
,,,,,,calibration,0,14,2,788,7,C,0,right,0.627528248,1,0,,,,,,,,,,,,,,,,,,,,,1,,,,,,,,,,,,,,,,,,,,,,,,,,,,,,,,,,,,,,,,,,,,,,44,155620,18,Female,1,2024/02/09_14:16:03,JV,59.86590755
,,,,,,calibration,0,14,2,788,8,S,0,right,0.79489317,1,0,,,,,,,,,,,,,,,,,,,,,1,,,,,,,,,,,,,,,,,,,,,,,,,,,,,,,,,,,,,,,,,,,,,,44,155620,18,Female,1,2024/02/09_14:16:03,JV,59.86590755
,,,,,,calibration,0,14,2,788,9,C,1,right,0.52487996,0,0,,,,,,,,,,,,,,,,,,,,,1,,,,,,,,,,,,,,,,,,,,,,,,,,,,,,,,,,,,,,,,,,,,,,44,155620,18,Female,1,2024/02/09_14:16:03,JV,59.86590755
,,,,,,calibration,0,14,2,788,10,V,0,right,0.771817789,1,0,,,,,,,,,,,,,,,,,,,,,1,,,,,,,,,,,,,,,,,,,,,,,,,,,,,,,,,,,,,,,,,,,,,,44,155620,18,Female,1,2024/02/09_14:16:03,JV,59.86590755
,,,,,,calibration,0,14,2,788,11,X,0,right,0.615128837,1,0,,,,,,,,,,,,,,,,,,,,,1,,,,,,,,,,,,,,,,,,,,,,,,,,,,,,,,,,,,,,,,,,,,,,44,155620,18,Female,1,2024/02/09_14:16:03,JV,59.86590755
,,,,,,calibration,0,14,2,788,12,V,1,left,0.645321404,1,0,,,,,,,,,,,,,,,,,,,,,1,,,,,,,,,,,,,,,,,,,,,,,,,,,,,,,,,,,,,,,,,,,,,,44,155620,18,Female,1,2024/02/09_14:16:03,JV,59.86590755
,,,,,,calibration,0,14,2,788,13,X,1,right,0.330598112,0,0,,,,,,,,,,,,,,,,,,,,,1,,,,,,,,,,,,,,,,,,,,,,,,,,,,,,,,,,,,,,,,,,,,,,44,155620,18,Female,1,2024/02/09_14:16:03,JV,59.86590755
,,,,,,calibration,0,14,2,788,,,,,,,,0.875,0.5,0,1,0,1,0.625244102,2,0,0,0,0,9,11,4,9,0,,,,1,,,,,,,,,,,,,,,,,,,,,,,,,,,,,,,,,,,,,,,,,,,,,,44,155620,18,Female,1,2024/02/09_14:16:03,JV,59.86590755
,,,,,,Calibration,0,,2,788,,,,,,,,,,,,,,,,,,,,,,,,,5,,,1,,,,,,,,,,,,,,,,,,,,,,,,,,,,,,,,,,,,,,,,,,,,,,44,155620,18,Female,1,2024/02/09_14:16:03,JV,59.86590755
,,,,,,calibration,0,12,2,679,1,V,0,right,0.487497896,1,0,,,,,,,,,,,,,,,,,,,,,1,,,,,,,,,,,,,,,,,,,,,,,,,,,,,,,,,,,,,,,,,,,,,,44,155620,18,Female,1,2024/02/09_14:16:03,JV,59.86590755
,,,,,,calibration,0,12,2,679,2,N,0,right,0.543154874,1,0,,,,,,,,,,,,,,,,,,,,,1,,,,,,,,,,,,,,,,,,,,,,,,,,,,,,,,,,,,,,,,,,,,,,44,155620,18,Female,1,2024/02/09_14:16:03,JV,59.86590755
,,,,,,calibration,0,12,2,679,3,V,1,left,0.381910449,1,0,,,,,,,,,,,,,,,,,,,,,1,,,,,,,,,,,,,,,,,,,,,,,,,,,,,,,,,,,,,,,,,,,,,,44,155620,18,Female,1,2024/02/09_14:16:03,JV,59.86590755
,,,,,,calibration,0,12,2,679,4,Q,0,right,0.414848917,1,0,,,,,,,,,,,,,,,,,,,,,1,,,,,,,,,,,,,,,,,,,,,,,,,,,,,,,,,,,,,,,,,,,,,,44,155620,18,Female,1,2024/02/09_14:16:03,JV,59.86590755
,,,,,,calibration,0,12,2,679,5,F,0,right,0.524171478,1,0,,,,,,,,,,,,,,,,,,,,,1,,,,,,,,,,,,,,,,,,,,,,,,,,,,,,,,,,,,,,,,,,,,,,44,155620,18,Female,1,2024/02/09_14:16:03,JV,59.86590755
,,,,,,calibration,0,12,2,679,6,Q,1,left,0.479957137,1,0,,,,,,,,,,,,,,,,,,,,,1,,,,,,,,,,,,,,,,,,,,,,,,,,,,,,,,,,,,,,,,,,,,,,44,155620,18,Female,1,2024/02/09_14:16:03,JV,59.86590755
,,,,,,calibration,0,12,2,679,7,N,0,right,0.301544509,1,0,,,,,,,,,,,,,,,,,,,,,1,,,,,,,,,,,,,,,,,,,,,,,,,,,,,,,,,,,,,,,,,,,,,,44,155620,18,Female,1,2024/02/09_14:16:03,JV,59.86590755
,,,,,,calibration,0,12,2,679,8,S,0,right,0.287136054,1,0,,,,,,,,,,,,,,,,,,,,,1,,,,,,,,,,,,,,,,,,,,,,,,,,,,,,,,,,,,,,,,,,,,,,44,155620,18,Female,1,2024/02/09_14:16:03,JV,59.86590755
,,,,,,calibration,0,12,2,679,9,Q,0,right,0.388729197,1,0,,,,,,,,,,,,,,,,,,,,,1,,,,,,,,,,,,,,,,,,,,,,,,,,,,,,,,,,,,,,,,,,,,,,44,155620,18,Female,1,2024/02/09_14:16:03,JV,59.86590755
,,,,,,calibration,0,12,2,679,10,X,0,right,0.629645062,1,0,,,,,,,,,,,,,,,,,,,,,1,,,,,,,,,,,,,,,,,,,,,,,,,,,,,,,,,,,,,,,,,,,,,,44,155620,18,Female,1,2024/02/09_14:16:03,JV,59.86590755
,,,,,,calibration,0,12,2,679,11,J,0,left,0.273411804,0,0,,,,,,,,,,,,,,,,,,,,,1,,,,,,,,,,,,,,,,,,,,,,,,,,,,,,,,,,,,,,,,,,,,,,44,155620,18,Female,1,2024/02/09_14:16:03,JV,59.86590755
,,,,,,calibration,0,12,2,679,12,X,1,right,0.270244682,0,0,,,,,,,,,,,,,,,,,,,,,1,,,,,,,,,,,,,,,,,,,,,,,,,,,,,,,,,,,,,,,,,,,,,,44,155620,18,Female,1,2024/02/09_14:16:03,JV,59.86590755
,,,,,,calibration,0,12,2,679,13,C,0,right,0.286479153,1,0,,,,,,,,,,,,,,,,,,,,,1,,,,,,,,,,,,,,,,,,,,,,,,,,,,,,,,,,,,,,,,,,,,,,44,155620,18,Female,1,2024/02/09_14:16:03,JV,59.86590755
,,,,,,calibration,0,12,2,679,14,X,1,right,0.405577697,0,0,,,,,,,,,,,,,,,,,,,,,1,,,,,,,,,,,,,,,,,,,,,,,,,,,,,,,,,,,,,,,,,,,,,,44,155620,18,Female,1,2024/02/09_14:16:03,JV,59.86590755
,,,,,,calibration,0,12,2,679,,,,,,,,0.8,0.5,0.1,0.9,0,0.9,0.405307779,2,1,0,0,0,9,11,4,10,0,,,,1,,,,,,,,,,,,,,,,,,,,,,,,,,,,,,,,,,,,,,,,,,,,,,44,155620,18,Female,1,2024/02/09_14:16:03,JV,59.86590755
,,,,,,Calibration,0,,2,679,,,,,,,,,,,,,,,,,,,,,,,,,6,,,1,,,,,,,,,,,,,,,,,,,,,,,,,,,,,,,,,,,,,,,,,,,,,,44,155620,18,Female,1,2024/02/09_14:16:03,JV,59.86590755
,,,,,,calibration,0,6,2,679,1,V,0,right,0.800129772,1,0,,,,,,,,,,,,,,,,,,,,,1,,,,,,,,,,,,,,,,,,,,,,,,,,,,,,,,,,,,,,,,,,,,,,44,155620,18,Female,1,2024/02/09_14:16:03,JV,59.86590755
,,,,,,calibration,0,6,2,679,2,F,0,right,0.544977318,1,0,,,,,,,,,,,,,,,,,,,,,1,,,,,,,,,,,,,,,,,,,,,,,,,,,,,,,,,,,,,,,,,,,,,,44,155620,18,Female,1,2024/02/09_14:16:03,JV,59.86590755
,,,,,,calibration,0,6,2,679,3,N,0,left,0.64531622,0,0,,,,,,,,,,,,,,,,,,,,,1,,,,,,,,,,,,,,,,,,,,,,,,,,,,,,,,,,,,,,,,,,,,,,44,155620,18,Female,1,2024/02/09_14:16:03,JV,59.86590755
,,,,,,calibration,0,6,2,679,4,J,0,right,0.358949207,1,0,,,,,,,,,,,,,,,,,,,,,1,,,,,,,,,,,,,,,,,,,,,,,,,,,,,,,,,,,,,,,,,,,,,,44,155620,18,Female,1,2024/02/09_14:16:03,JV,59.86590755
,,,,,,calibration,0,6,2,679,5,N,1,right,0.359872187,0,0,,,,,,,,,,,,,,,,,,,,,1,,,,,,,,,,,,,,,,,,,,,,,,,,,,,,,,,,,,,,,,,,,,,,44,155620,18,Female,1,2024/02/09_14:16:03,JV,59.86590755
,,,,,,calibration,0,6,2,679,6,X,0,right,0.627374655,1,0,,,,,,,,,,,,,,,,,,,,,1,,,,,,,,,,,,,,,,,,,,,,,,,,,,,,,,,,,,,,,,,,,,,,44,155620,18,Female,1,2024/02/09_14:16:03,JV,59.86590755
,,,,,,calibration,0,6,2,679,7,C,0,right,0.579342854,1,0,,,,,,,,,,,,,,,,,,,,,1,,,,,,,,,,,,,,,,,,,,,,,,,,,,,,,,,,,,,,,,,,,,,,44,155620,18,Female,1,2024/02/09_14:16:03,JV,59.86590755
,,,,,,calibration,0,6,2,679,8,S,0,right,0.595692964,1,0,,,,,,,,,,,,,,,,,,,,,1,,,,,,,,,,,,,,,,,,,,,,,,,,,,,,,,,,,,,,,,,,,,,,44,155620,18,Female,1,2024/02/09_14:16:03,JV,59.86590755
,,,,,,calibration,0,6,2,679,9,C,1,left,0.482563078,1,0,,,,,,,,,,,,,,,,,,,,,1,,,,,,,,,,,,,,,,,,,,,,,,,,,,,,,,,,,,,,,,,,,,,,44,155620,18,Female,1,2024/02/09_14:16:03,JV,59.86590755
,,,,,,calibration,0,6,2,679,10,V,0,right,0.375485203,1,0,,,,,,,,,,,,,,,,,,,,,1,,,,,,,,,,,,,,,,,,,,,,,,,,,,,,,,,,,,,,,,,,,,,,44,155620,18,Female,1,2024/02/09_14:16:03,JV,59.86590755
,,,,,,calibration,0,6,2,679,11,C,1,right,0.461608627,0,0,,,,,,,,,,,,,,,,,,,,,1,,,,,,,,,,,,,,,,,,,,,,,,,,,,,,,,,,,,,,,,,,,,,,44,155620,18,Female,1,2024/02/09_14:16:03,JV,59.86590755
,,,,,,calibration,0,6,2,679,12,X,0,right,0.562014961,1,0,,,,,,,,,,,,,,,,,,,,,1,,,,,,,,,,,,,,,,,,,,,,,,,,,,,,,,,,,,,,,,,,,,,,44,155620,18,Female,1,2024/02/09_14:16:03,JV,59.86590755
,,,,,,calibration,0,6,2,679,13,C,1,left,0.699243436,1,0,,,,,,,,,,,,,,,,,,,,,1,,,,,,,,,,,,,,,,,,,,,,,,,,,,,,,,,,,,,,,,,,,,,,44,155620,18,Female,1,2024/02/09_14:16:03,JV,59.86590755
,,,,,,calibration,0,6,2,679,14,Q,0,right,0.300388124,1,0,,,,,,,,,,,,,,,,,,,,,1,,,,,,,,,,,,,,,,,,,,,,,,,,,,,,,,,,,,,,,,,,,,,,44,155620,18,Female,1,2024/02/09_14:16:03,JV,59.86590755
,,,,,,calibration,0,6,2,679,,,,,,,,0.8,0.5,0.1,0.9,0,0.9,0.528068472,2,1,0,0,0,9,11,4,10,0,,,,1,,,,,,,,,,,,,,,,,,,,,,,,,,,,,,,,,,,,,,,,,,,,,,44,155620,18,Female,1,2024/02/09_14:16:03,JV,59.86590755
,,,,,,Calibration,0,,2,679,,,,,,,,,,,,,,,,,,,,,,,,,7,,,1,,,,,,,,,,,,,,,,,,,,,,,,,,,,,,,,,,,,,,,,,,,,,,44,155620,18,Female,1,2024/02/09_14:16:03,JV,59.86590755
,,,,,,calibration,0,34,2,679,1,Q,0,right,0.591275734,1,0,,,,,,,,,,,,,,,,,,,,,1,,,,,,,,,,,,,,,,,,,,,,,,,,,,,,,,,,,,,,,,,,,,,,44,155620,18,Female,1,2024/02/09_14:16:03,JV,59.86590755
,,,,,,calibration,0,34,2,679,2,Q,0,right,0.532180851,1,0,,,,,,,,,,,,,,,,,,,,,1,,,,,,,,,,,,,,,,,,,,,,,,,,,,,,,,,,,,,,,,,,,,,,44,155620,18,Female,1,2024/02/09_14:16:03,JV,59.86590755
,,,,,,calibration,0,34,2,679,3,Q,1,left,0.458664384,1,0,,,,,,,,,,,,,,,,,,,,,1,,,,,,,,,,,,,,,,,,,,,,,,,,,,,,,,,,,,,,,,,,,,,,44,155620,18,Female,1,2024/02/09_14:16:03,JV,59.86590755
,,,,,,calibration,0,34,2,679,4,Q,1,right,1.042718992,0,0,,,,,,,,,,,,,,,,,,,,,1,,,,,,,,,,,,,,,,,,,,,,,,,,,,,,,,,,,,,,,,,,,,,,44,155620,18,Female,1,2024/02/09_14:16:03,JV,59.86590755
,,,,,,calibration,0,34,2,679,5,X,0,right,0.613062204,1,0,,,,,,,,,,,,,,,,,,,,,1,,,,,,,,,,,,,,,,,,,,,,,,,,,,,,,,,,,,,,,,,,,,,,44,155620,18,Female,1,2024/02/09_14:16:03,JV,59.86590755
,,,,,,calibration,0,34,2,679,6,C,0,right,0.395900924,1,0,,,,,,,,,,,,,,,,,,,,,1,,,,,,,,,,,,,,,,,,,,,,,,,,,,,,,,,,,,,,,,,,,,,,44,155620,18,Female,1,2024/02/09_14:16:03,JV,59.86590755
,,,,,,calibration,0,34,2,679,7,F,0,right,0.558227682,1,0,,,,,,,,,,,,,,,,,,,,,1,,,,,,,,,,,,,,,,,,,,,,,,,,,,,,,,,,,,,,,,,,,,,,44,155620,18,Female,1,2024/02/09_14:16:03,JV,59.86590755
,,,,,,calibration,0,34,2,679,8,J,0,right,0.662426446,1,0,,,,,,,,,,,,,,,,,,,,,1,,,,,,,,,,,,,,,,,,,,,,,,,,,,,,,,,,,,,,,,,,,,,,44,155620,18,Female,1,2024/02/09_14:16:03,JV,59.86590755
,,,,,,calibration,0,34,2,679,9,F,1,left,0.343138616,1,0,,,,,,,,,,,,,,,,,,,,,1,,,,,,,,,,,,,,,,,,,,,,,,,,,,,,,,,,,,,,,,,,,,,,44,155620,18,Female,1,2024/02/09_14:16:03,JV,59.86590755
,,,,,,calibration,0,34,2,679,10,Q,0,right,0.52418626,1,0,,,,,,,,,,,,,,,,,,,,,1,,,,,,,,,,,,,,,,,,,,,,,,,,,,,,,,,,,,,,,,,,,,,,44,155620,18,Female,1,2024/02/09_14:16:03,JV,59.86590755
,,,,,,calibration,0,34,2,679,11,V,0,right,0.350025613,1,0,,,,,,,,,,,,,,,,,,,,,1,,,,,,,,,,,,,,,,,,,,,,,,,,,,,,,,,,,,,,,,,,,,,,44,155620,18,Female,1,2024/02/09_14:16:03,JV,59.86590755
,,,,,,calibration,0,34,2,679,12,C,0,right,0.645930164,1,0,,,,,,,,,,,,,,,,,,,,,1,,,,,,,,,,,,,,,,,,,,,,,,,,,,,,,,,,,,,,,,,,,,,,44,155620,18,Female,1,2024/02/09_14:16:03,JV,59.86590755
,,,,,,calibration,0,34,2,679,13,J,0,right,0.627539268,1,0,,,,,,,,,,,,,,,,,,,,,1,,,,,,,,,,,,,,,,,,,,,,,,,,,,,,,,,,,,,,,,,,,,,,44,155620,18,Female,1,2024/02/09_14:16:03,JV,59.86590755
,,,,,,calibration,0,34,2,679,14,C,1,left,0.514152545,1,0,,,,,,,,,,,,,,,,,,,,,1,,,,,,,,,,,,,,,,,,,,,,,,,,,,,,,,,,,,,,,,,,,,,,44,155620,18,Female,1,2024/02/09_14:16:03,JV,59.86590755
,,,,,,calibration,0,34,2,679,,,,,,,,0.9375,0.75,0,1,0,1,0.561387835,3,0,0,0,0,10,13,4,10,0,,,,1,,,,,,,,,,,,,,,,,,,,,,,,,,,,,,,,,,,,,,,,,,,,,,44,155620,18,Female,1,2024/02/09_14:16:03,JV,59.86590755
,,,,,,Calibration,0,,2,679,,,,,,,,,,,,,,,,,,,,,,,,,8,,,1,,,,,,,,,,,,,,,,,,,,,,,,,,,,,,,,,,,,,,,,,,,,,,44,155620,18,Female,1,2024/02/09_14:16:03,JV,59.86590755
,,,,,,calibration,0,5,2,583,1,V,0,right,0.525107129,1,0,,,,,,,,,,,,,,,,,,,,,1,,,,,,,,,,,,,,,,,,,,,,,,,,,,,,,,,,,,,,,,,,,,,,44,155620,18,Female,1,2024/02/09_14:16:03,JV,59.86590755
,,,,,,calibration,0,5,2,583,2,S,0,right,0.498439458,1,0,,,,,,,,,,,,,,,,,,,,,1,,,,,,,,,,,,,,,,,,,,,,,,,,,,,,,,,,,,,,,,,,,,,,44,155620,18,Female,1,2024/02/09_14:16:03,JV,59.86590755
,,,,,,calibration,0,5,2,583,3,V,1,right,0.513163508,0,0,,,,,,,,,,,,,,,,,,,,,1,,,,,,,,,,,,,,,,,,,,,,,,,,,,,,,,,,,,,,,,,,,,,,44,155620,18,Female,1,2024/02/09_14:16:03,JV,59.86590755
,,,,,,calibration,0,5,2,583,4,X,0,right,0.513617045,1,0,,,,,,,,,,,,,,,,,,,,,1,,,,,,,,,,,,,,,,,,,,,,,,,,,,,,,,,,,,,,,,,,,,,,44,155620,18,Female,1,2024/02/09_14:16:03,JV,59.86590755
,,,,,,calibration,0,5,2,583,5,J,0,right,0.399509257,1,0,,,,,,,,,,,,,,,,,,,,,1,,,,,,,,,,,,,,,,,,,,,,,,,,,,,,,,,,,,,,,,,,,,,,44,155620,18,Female,1,2024/02/09_14:16:03,JV,59.86590755
,,,,,,calibration,0,5,2,583,6,X,1,left,0.382825353,1,0,,,,,,,,,,,,,,,,,,,,,1,,,,,,,,,,,,,,,,,,,,,,,,,,,,,,,,,,,,,,,,,,,,,,44,155620,18,Female,1,2024/02/09_14:16:03,JV,59.86590755
,,,,,,calibration,0,5,2,583,7,Q,0,right,0.312438365,1,0,,,,,,,,,,,,,,,,,,,,,1,,,,,,,,,,,,,,,,,,,,,,,,,,,,,,,,,,,,,,,,,,,,,,44,155620,18,Female,1,2024/02/09_14:16:03,JV,59.86590755
,,,,,,calibration,0,5,2,583,8,X,1,right,0.493322318,0,0,,,,,,,,,,,,,,,,,,,,,1,,,,,,,,,,,,,,,,,,,,,,,,,,,,,,,,,,,,,,,,,,,,,,44,155620,18,Female,1,2024/02/09_14:16:03,JV,59.86590755
,,,,,,calibration,0,5,2,583,9,C,0,left,0.594061083,0,0,,,,,,,,,,,,,,,,,,,,,1,,,,,,,,,,,,,,,,,,,,,,,,,,,,,,,,,,,,,,,,,,,,,,44,155620,18,Female,1,2024/02/09_14:16:03,JV,59.86590755
,,,,,,calibration,0,5,2,583,10,X,1,right,0.323331313,0,0,,,,,,,,,,,,,,,,,,,,,1,,,,,,,,,,,,,,,,,,,,,,,,,,,,,,,,,,,,,,,,,,,,,,44,155620,18,Female,1,2024/02/09_14:16:03,JV,59.86590755
,,,,,,calibration,0,5,2,583,11,C,1,right,0.561001589,0,0,,,,,,,,,,,,,,,,,,,,,1,,,,,,,,,,,,,,,,,,,,,,,,,,,,,,,,,,,,,,,,,,,,,,44,155620,18,Female,1,2024/02/09_14:16:03,JV,59.86590755
,,,,,,calibration,0,5,2,583,12,Q,0,right,0.579924341,1,0,,,,,,,,,,,,,,,,,,,,,1,,,,,,,,,,,,,,,,,,,,,,,,,,,,,,,,,,,,,,,,,,,,,,44,155620,18,Female,1,2024/02/09_14:16:03,JV,59.86590755
,,,,,,calibration,0,5,2,583,13,J,0,right,0.532655047,1,0,,,,,,,,,,,,,,,,,,,,,1,,,,,,,,,,,,,,,,,,,,,,,,,,,,,,,,,,,,,,,,,,,,,,44,155620,18,Female,1,2024/02/09_14:16:03,JV,59.86590755
,,,,,,calibration,0,5,2,583,14,S,0,right,0.699118644,1,0,,,,,,,,,,,,,,,,,,,,,1,,,,,,,,,,,,,,,,,,,,,,,,,,,,,,,,,,,,,,,,,,,,,,44,155620,18,Female,1,2024/02/09_14:16:03,JV,59.86590755
,,,,,,calibration,0,5,2,583,15,Q,0,left,0.761987169,0,0,,,,,,,,,,,,,,,,,,,,,1,,,,,,,,,,,,,,,,,,,,,,,,,,,,,,,,,,,,,,,,,,,,,,44,155620,18,Female,1,2024/02/09_14:16:03,JV,59.86590755
,,,,,,calibration,0,5,2,583,,,,,,,,0.5,0.2,0.2,0.8,0,0.8,0.512700108,1,2,0,0,0,8,9,5,10,0,,,,1,,,,,,,,,,,,,,,,,,,,,,,,,,,,,,,,,,,,,,,,,,,,,,44,155620,18,Female,1,2024/02/09_14:16:03,JV,59.86590755
,,,,,,Calibration,0,,2,583,,,,,,,,,,,,,,,,,,,,,,,,,9,,,1,,,,,,,,,,,,,,,,,,,,,,,,,,,,,,,,,,,,,,,,,,,,,,44,155620,18,Female,1,2024/02/09_14:16:03,JV,59.86590755
,,,,,,calibration,0,34,2,679,1,Q,0,right,1.031635049,1,0,,,,,,,,,,,,,,,,,,,,,1,,,,,,,,,,,,,,,,,,,,,,,,,,,,,,,,,,,,,,,,,,,,,,44,155620,18,Female,1,2024/02/09_14:16:03,JV,59.86590755
,,,,,,calibration,0,34,2,679,2,Q,0,right,0.663956778,1,0,,,,,,,,,,,,,,,,,,,,,1,,,,,,,,,,,,,,,,,,,,,,,,,,,,,,,,,,,,,,,,,,,,,,44,155620,18,Female,1,2024/02/09_14:16:03,JV,59.86590755
,,,,,,calibration,0,34,2,679,3,Q,1,left,0.426359434,1,0,,,,,,,,,,,,,,,,,,,,,1,,,,,,,,,,,,,,,,,,,,,,,,,,,,,,,,,,,,,,,,,,,,,,44,155620,18,Female,1,2024/02/09_14:16:03,JV,59.86590755
,,,,,,calibration,0,34,2,679,4,Q,1,right,0.387757913,0,0,,,,,,,,,,,,,,,,,,,,,1,,,,,,,,,,,,,,,,,,,,,,,,,,,,,,,,,,,,,,,,,,,,,,44,155620,18,Female,1,2024/02/09_14:16:03,JV,59.86590755
,,,,,,calibration,0,34,2,679,5,X,0,right,0.530963911,1,0,,,,,,,,,,,,,,,,,,,,,1,,,,,,,,,,,,,,,,,,,,,,,,,,,,,,,,,,,,,,,,,,,,,,44,155620,18,Female,1,2024/02/09_14:16:03,JV,59.86590755
,,,,,,calibration,0,34,2,679,6,C,0,right,0.388660161,1,0,,,,,,,,,,,,,,,,,,,,,1,,,,,,,,,,,,,,,,,,,,,,,,,,,,,,,,,,,,,,,,,,,,,,44,155620,18,Female,1,2024/02/09_14:16:03,JV,59.86590755
,,,,,,calibration,0,34,2,679,7,F,0,right,0.513080787,1,0,,,,,,,,,,,,,,,,,,,,,1,,,,,,,,,,,,,,,,,,,,,,,,,,,,,,,,,,,,,,,,,,,,,,44,155620,18,Female,1,2024/02/09_14:16:03,JV,59.86590755
,,,,,,calibration,0,34,2,679,8,J,0,right,0.443957307,1,0,,,,,,,,,,,,,,,,,,,,,1,,,,,,,,,,,,,,,,,,,,,,,,,,,,,,,,,,,,,,,,,,,,,,44,155620,18,Female,1,2024/02/09_14:16:03,JV,59.86590755
,,,,,,calibration,0,34,2,679,9,F,1,right,0.642028554,0,0,,,,,,,,,,,,,,,,,,,,,1,,,,,,,,,,,,,,,,,,,,,,,,,,,,,,,,,,,,,,,,,,,,,,44,155620,18,Female,1,2024/02/09_14:16:03,JV,59.86590755
,,,,,,calibration,0,34,2,679,10,Q,0,right,0.398721096,1,0,,,,,,,,,,,,,,,,,,,,,1,,,,,,,,,,,,,,,,,,,,,,,,,,,,,,,,,,,,,,,,,,,,,,44,155620,18,Female,1,2024/02/09_14:16:03,JV,59.86590755
,,,,,,calibration,0,34,2,679,11,V,0,right,0.377156825,1,0,,,,,,,,,,,,,,,,,,,,,1,,,,,,,,,,,,,,,,,,,,,,,,,,,,,,,,,,,,,,,,,,,,,,44,155620,18,Female,1,2024/02/09_14:16:03,JV,59.86590755
,,,,,,calibration,0,34,2,679,12,C,0,left,0.665720951,0,0,,,,,,,,,,,,,,,,,,,,,1,,,,,,,,,,,,,,,,,,,,,,,,,,,,,,,,,,,,,,,,,,,,,,44,155620,18,Female,1,2024/02/09_14:16:03,JV,59.86590755
,,,,,,calibration,0,34,2,679,13,J,0,right,0.289372086,1,0,,,,,,,,,,,,,,,,,,,,,1,,,,,,,,,,,,,,,,,,,,,,,,,,,,,,,,,,,,,,,,,,,,,,44,155620,18,Female,1,2024/02/09_14:16:03,JV,59.86590755
,,,,,,calibration,0,34,2,679,14,C,1,right,0.288136141,0,0,,,,,,,,,,,,,,,,,,,,,1,,,,,,,,,,,,,,,,,,,,,,,,,,,,,,,,,,,,,,,,,,,,,,44,155620,18,Female,1,2024/02/09_14:16:03,JV,59.86590755
,,,,,,calibration,0,34,2,679,,,,,,,,0.6875,0.25,0.1,0.9,0,0.9,0.503393357,1,1,0,0,0,9,10,4,10,0,,,,1,,,,,,,,,,,,,,,,,,,,,,,,,,,,,,,,,,,,,,,,,,,,,,44,155620,18,Female,1,2024/02/09_14:16:03,JV,59.86590755
,,,,,,Calibration,0,,2,679,,,,,,,,,,,,,,,,,,,,,,,,,10,,,1,,,,,,,,,,,,,,,,,,,,,,,,,,,,,,,,,,,,,,,,,,,,,,44,155620,18,Female,1,2024/02/09_14:16:03,JV,59.86590755
,,,,,,calibration,0,13,2,788,1,S,0,right,0.458251501,1,0,,,,,,,,,,,,,,,,,,,,,1,,,,,,,,,,,,,,,,,,,,,,,,,,,,,,,,,,,,,,,,,,,,,,44,155620,18,Female,1,2024/02/09_14:16:03,JV,59.86590755
,,,,,,calibration,0,13,2,788,2,S,0,right,0.56063471,1,0,,,,,,,,,,,,,,,,,,,,,1,,,,,,,,,,,,,,,,,,,,,,,,,,,,,,,,,,,,,,,,,,,,,,44,155620,18,Female,1,2024/02/09_14:16:03,JV,59.86590755
,,,,,,calibration,0,13,2,788,3,C,0,left,0.578731314,0,0,,,,,,,,,,,,,,,,,,,,,1,,,,,,,,,,,,,,,,,,,,,,,,,,,,,,,,,,,,,,,,,,,,,,44,155620,18,Female,1,2024/02/09_14:16:03,JV,59.86590755
,,,,,,calibration,0,13,2,788,4,Q,0,right,0.25524127,1,0,,,,,,,,,,,,,,,,,,,,,1,,,,,,,,,,,,,,,,,,,,,,,,,,,,,,,,,,,,,,,,,,,,,,44,155620,18,Female,1,2024/02/09_14:16:03,JV,59.86590755
,,,,,,calibration,0,13,2,788,5,C,1,left,0.487679263,1,0,,,,,,,,,,,,,,,,,,,,,1,,,,,,,,,,,,,,,,,,,,,,,,,,,,,,,,,,,,,,,,,,,,,,44,155620,18,Female,1,2024/02/09_14:16:03,JV,59.86590755
,,,,,,calibration,0,13,2,788,6,Q,1,right,0.382612767,0,0,,,,,,,,,,,,,,,,,,,,,1,,,,,,,,,,,,,,,,,,,,,,,,,,,,,,,,,,,,,,,,,,,,,,44,155620,18,Female,1,2024/02/09_14:16:03,JV,59.86590755
,,,,,,calibration,0,13,2,788,7,J,0,right,0.379997909,1,0,,,,,,,,,,,,,,,,,,,,,1,,,,,,,,,,,,,,,,,,,,,,,,,,,,,,,,,,,,,,,,,,,,,,44,155620,18,Female,1,2024/02/09_14:16:03,JV,59.86590755
,,,,,,calibration,0,13,2,788,8,S,0,right,0.614941645,1,0,,,,,,,,,,,,,,,,,,,,,1,,,,,,,,,,,,,,,,,,,,,,,,,,,,,,,,,,,,,,,,,,,,,,44,155620,18,Female,1,2024/02/09_14:16:03,JV,59.86590755
,,,,,,calibration,0,13,2,788,9,X,0,right,0.492809183,1,0,,,,,,,,,,,,,,,,,,,,,1,,,,,,,,,,,,,,,,,,,,,,,,,,,,,,,,,,,,,,,,,,,,,,44,155620,18,Female,1,2024/02/09_14:16:03,JV,59.86590755
,,,,,,calibration,0,13,2,788,10,F,0,left,0.360005964,0,0,,,,,,,,,,,,,,,,,,,,,1,,,,,,,,,,,,,,,,,,,,,,,,,,,,,,,,,,,,,,,,,,,,,,44,155620,18,Female,1,2024/02/09_14:16:03,JV,59.86590755
,,,,,,calibration,0,13,2,788,11,N,0,right,0.29075832,1,0,,,,,,,,,,,,,,,,,,,,,1,,,,,,,,,,,,,,,,,,,,,,,,,,,,,,,,,,,,,,,,,,,,,,44,155620,18,Female,1,2024/02/09_14:16:03,JV,59.86590755
,,,,,,calibration,0,13,2,788,12,F,1,right,0.243986273,0,0,,,,,,,,,,,,,,,,,,,,,1,,,,,,,,,,,,,,,,,,,,,,,,,,,,,,,,,,,,,,,,,,,,,,44,155620,18,Female,1,2024/02/09_14:16:03,JV,59.86590755
,,,,,,calibration,0,13,2,788,13,N,1,right,0.363107169,0,0,,,,,,,,,,,,,,,,,,,,,1,,,,,,,,,,,,,,,,,,,,,,,,,,,,,,,,,,,,,,,,,,,,,,44,155620,18,Female,1,2024/02/09_14:16:03,JV,59.86590755
,,,,,,calibration,0,13,2,788,,,,,,,,0.534722222,0.25,0.222222222,0.777777778,0,0.777777778,0.420673638,1,2,0,0,0,7,8,4,9,0,,,,1,,,,,,,,,,,,,,,,,,,,,,,,,,,,,,,,,,,,,,,,,,,,,,44,155620,18,Female,1,2024/02/09_14:16:03,JV,59.86590755
,,,,,,Calibration,0,,2,788,,,,,,,,,,,,,,,,,,,,,,,,,11,,,1,,,,,,,,,,,,,,,,,,,,,,,,,,,,,,,,,,,,,,,,,,,,,,44,155620,18,Female,1,2024/02/09_14:16:03,JV,59.86590755
,,,,,,calibration,0,36,2,917,1,C,0,right,0.38387575,1,0,,,,,,,,,,,,,,,,,,,,,1,,,,,,,,,,,,,,,,,,,,,,,,,,,,,,,,,,,,,,,,,,,,,,44,155620,18,Female,1,2024/02/09_14:16:03,JV,59.86590755
,,,,,,calibration,0,36,2,917,2,S,0,right,0.366174998,1,0,,,,,,,,,,,,,,,,,,,,,1,,,,,,,,,,,,,,,,,,,,,,,,,,,,,,,,,,,,,,,,,,,,,,44,155620,18,Female,1,2024/02/09_14:16:03,JV,59.86590755
,,,,,,calibration,0,36,2,917,3,X,0,right,0.552644674,1,0,,,,,,,,,,,,,,,,,,,,,1,,,,,,,,,,,,,,,,,,,,,,,,,,,,,,,,,,,,,,,,,,,,,,44,155620,18,Female,1,2024/02/09_14:16:03,JV,59.86590755
,,,,,,calibration,0,36,2,917,4,V,0,right,0.445754238,1,0,,,,,,,,,,,,,,,,,,,,,1,,,,,,,,,,,,,,,,,,,,,,,,,,,,,,,,,,,,,,,,,,,,,,44,155620,18,Female,1,2024/02/09_14:16:03,JV,59.86590755
,,,,,,calibration,0,36,2,917,5,X,1,left,0.459627479,1,0,,,,,,,,,,,,,,,,,,,,,1,,,,,,,,,,,,,,,,,,,,,,,,,,,,,,,,,,,,,,,,,,,,,,44,155620,18,Female,1,2024/02/09_14:16:03,JV,59.86590755
,,,,,,calibration,0,36,2,917,6,V,1,right,0.242738231,0,0,,,,,,,,,,,,,,,,,,,,,1,,,,,,,,,,,,,,,,,,,,,,,,,,,,,,,,,,,,,,,,,,,,,,44,155620,18,Female,1,2024/02/09_14:16:03,JV,59.86590755
,,,,,,calibration,0,36,2,917,7,J,0,right,0.32443617,1,0,,,,,,,,,,,,,,,,,,,,,1,,,,,,,,,,,,,,,,,,,,,,,,,,,,,,,,,,,,,,,,,,,,,,44,155620,18,Female,1,2024/02/09_14:16:03,JV,59.86590755
,,,,,,calibration,0,36,2,917,8,X,0,right,0.488671293,1,0,,,,,,,,,,,,,,,,,,,,,1,,,,,,,,,,,,,,,,,,,,,,,,,,,,,,,,,,,,,,,,,,,,,,44,155620,18,Female,1,2024/02/09_14:16:03,JV,59.86590755
,,,,,,calibration,0,36,2,917,9,N,0,right,0.711705951,1,0,,,,,,,,,,,,,,,,,,,,,1,,,,,,,,,,,,,,,,,,,,,,,,,,,,,,,,,,,,,,,,,,,,,,44,155620,18,Female,1,2024/02/09_14:16:03,JV,59.86590755
,,,,,,calibration,0,36,2,917,10,J,0,left,0.493082122,0,0,,,,,,,,,,,,,,,,,,,,,1,,,,,,,,,,,,,,,,,,,,,,,,,,,,,,,,,,,,,,,,,,,,,,44,155620,18,Female,1,2024/02/09_14:16:03,JV,59.86590755
,,,,,,calibration,0,36,2,917,11,N,1,right,0.244347724,0,0,,,,,,,,,,,,,,,,,,,,,1,,,,,,,,,,,,,,,,,,,,,,,,,,,,,,,,,,,,,,,,,,,,,,44,155620,18,Female,1,2024/02/09_14:16:03,JV,59.86590755
,,,,,,calibration,0,36,2,917,12,J,1,right,0.291303369,0,0,,,,,,,,,,,,,,,,,,,,,1,,,,,,,,,,,,,,,,,,,,,,,,,,,,,,,,,,,,,,,,,,,,,,44,155620,18,Female,1,2024/02/09_14:16:03,JV,59.86590755
,,,,,,calibration,0,36,2,917,,,,,,,,0.65625,0.25,0.125,0.875,0,0.875,0.417030167,1,1,0,0,0,7,8,4,8,0,,,,1,,,,,,,,,,,,,,,,,,,,,,,,,,,,,,,,,,,,,,,,,,,,,,44,155620,18,Female,1,2024/02/09_14:16:03,JV,59.86590755
,,,,,,Calibration,0,,2,917,,,,,,,,,,,,,,,,,,,,,,,,,12,,,1,,,,,,,,,,,,,,,,,,,,,,,,,,,,,,,,,,,,,,,,,,,,,,44,155620,18,Female,1,2024/02/09_14:16:03,JV,59.86590755
,,,,,,calibration,0,27,2,1068,1,Q,0,right,0.39834595,1,0,,,,,,,,,,,,,,,,,,,,,1,,,,,,,,,,,,,,,,,,,,,,,,,,,,,,,,,,,,,,,,,,,,,,44,155620,18,Female,1,2024/02/09_14:16:03,JV,59.86590755
,,,,,,calibration,0,27,2,1068,2,J,0,right,0.512783709,1,0,,,,,,,,,,,,,,,,,,,,,1,,,,,,,,,,,,,,,,,,,,,,,,,,,,,,,,,,,,,,,,,,,,,,44,155620,18,Female,1,2024/02/09_14:16:03,JV,59.86590755
,,,,,,calibration,0,27,2,1068,3,X,0,right,0.520076751,1,0,,,,,,,,,,,,,,,,,,,,,1,,,,,,,,,,,,,,,,,,,,,,,,,,,,,,,,,,,,,,,,,,,,,,44,155620,18,Female,1,2024/02/09_14:16:03,JV,59.86590755
,,,,,,calibration,0,27,2,1068,4,J,1,left,0.451061068,1,0,,,,,,,,,,,,,,,,,,,,,1,,,,,,,,,,,,,,,,,,,,,,,,,,,,,,,,,,,,,,,,,,,,,,44,155620,18,Female,1,2024/02/09_14:16:03,JV,59.86590755
,,,,,,calibration,0,27,2,1068,5,X,1,right,0.255577441,0,0,,,,,,,,,,,,,,,,,,,,,1,,,,,,,,,,,,,,,,,,,,,,,,,,,,,,,,,,,,,,,,,,,,,,44,155620,18,Female,1,2024/02/09_14:16:03,JV,59.86590755
,,,,,,calibration,0,27,2,1068,6,C,0,right,0.478648238,1,0,,,,,,,,,,,,,,,,,,,,,1,,,,,,,,,,,,,,,,,,,,,,,,,,,,,,,,,,,,,,,,,,,,,,44,155620,18,Female,1,2024/02/09_14:16:03,JV,59.86590755
,,,,,,calibration,0,27,2,1068,7,S,0,right,0.335266099,1,0,,,,,,,,,,,,,,,,,,,,,1,,,,,,,,,,,,,,,,,,,,,,,,,,,,,,,,,,,,,,,,,,,,,,44,155620,18,Female,1,2024/02/09_14:16:03,JV,59.86590755
,,,,,,calibration,0,27,2,1068,8,N,0,right,0.545204755,1,0,,,,,,,,,,,,,,,,,,,,,1,,,,,,,,,,,,,,,,,,,,,,,,,,,,,,,,,,,,,,,,,,,,,,44,155620,18,Female,1,2024/02/09_14:16:03,JV,59.86590755
,,,,,,calibration,0,27,2,1068,9,J,0,right,0.42717199,1,0,,,,,,,,,,,,,,,,,,,,,1,,,,,,,,,,,,,,,,,,,,,,,,,,,,,,,,,,,,,,,,,,,,,,44,155620,18,Female,1,2024/02/09_14:16:03,JV,59.86590755
,,,,,,calibration,0,27,2,1068,10,F,0,right,0.576755292,1,0,,,,,,,,,,,,,,,,,,,,,1,,,,,,,,,,,,,,,,,,,,,,,,,,,,,,,,,,,,,,,,,,,,,,44,155620,18,Female,1,2024/02/09_14:16:03,JV,59.86590755
,,,,,,calibration,0,27,2,1068,11,J,1,left,0.643147883,1,0,,,,,,,,,,,,,,,,,,,,,1,,,,,,,,,,,,,,,,,,,,,,,,,,,,,,,,,,,,,,,,,,,,,,44,155620,18,Female,1,2024/02/09_14:16:03,JV,59.86590755
,,,,,,calibration,0,27,2,1068,,,,,,,,0.916666667,0.666666667,0,1,0,1,0.467639925,2,0,0,0,0,8,10,3,8,0,,,,1,,,,,,,,,,,,,,,,,,,,,,,,,,,,,,,,,,,,,,,,,,,,,,44,155620,18,Female,1,2024/02/09_14:16:03,JV,59.86590755
,,,,,,Calibration,0,,2,1068,,,,,,,,,,,,,,,,,,,,,,,,,13,,,1,,,,,,,,,,,,,,,,,,,,,,,,,,,,,,,,,,,,,,,,,,,,,,44,155620,18,Female,1,2024/02/09_14:16:03,JV,59.86590755
,,,,,,calibration,0,14,2,917,1,Q,0,right,0.431055913,1,0,,,,,,,,,,,,,,,,,,,,,1,,,,,,,,,,,,,,,,,,,,,,,,,,,,,,,,,,,,,,,,,,,,,,44,155620,18,Female,1,2024/02/09_14:16:03,JV,59.86590755
,,,,,,calibration,0,14,2,917,2,V,0,right,0.40039812,1,0,,,,,,,,,,,,,,,,,,,,,1,,,,,,,,,,,,,,,,,,,,,,,,,,,,,,,,,,,,,,,,,,,,,,44,155620,18,Female,1,2024/02/09_14:16:03,JV,59.86590755
,,,,,,calibration,0,14,2,917,3,S,0,right,0.513414763,1,0,,,,,,,,,,,,,,,,,,,,,1,,,,,,,,,,,,,,,,,,,,,,,,,,,,,,,,,,,,,,,,,,,,,,44,155620,18,Female,1,2024/02/09_14:16:03,JV,59.86590755
,,,,,,calibration,0,14,2,917,4,N,0,right,0.61371577,1,0,,,,,,,,,,,,,,,,,,,,,1,,,,,,,,,,,,,,,,,,,,,,,,,,,,,,,,,,,,,,,,,,,,,,44,155620,18,Female,1,2024/02/09_14:16:03,JV,59.86590755
,,,,,,calibration,0,14,2,917,5,F,0,right,0.357073406,1,0,,,,,,,,,,,,,,,,,,,,,1,,,,,,,,,,,,,,,,,,,,,,,,,,,,,,,,,,,,,,,,,,,,,,44,155620,18,Female,1,2024/02/09_14:16:03,JV,59.86590755
,,,,,,calibration,0,14,2,917,6,S,0,right,0.524481756,1,0,,,,,,,,,,,,,,,,,,,,,1,,,,,,,,,,,,,,,,,,,,,,,,,,,,,,,,,,,,,,,,,,,,,,44,155620,18,Female,1,2024/02/09_14:16:03,JV,59.86590755
,,,,,,calibration,0,14,2,917,7,F,1,left,0.362283718,1,0,,,,,,,,,,,,,,,,,,,,,1,,,,,,,,,,,,,,,,,,,,,,,,,,,,,,,,,,,,,,,,,,,,,,44,155620,18,Female,1,2024/02/09_14:16:03,JV,59.86590755
,,,,,,calibration,0,14,2,917,8,J,0,right,0.29311692,1,0,,,,,,,,,,,,,,,,,,,,,1,,,,,,,,,,,,,,,,,,,,,,,,,,,,,,,,,,,,,,,,,,,,,,44,155620,18,Female,1,2024/02/09_14:16:03,JV,59.86590755
,,,,,,calibration,0,14,2,917,9,F,1,right,0.624064492,0,0,,,,,,,,,,,,,,,,,,,,,1,,,,,,,,,,,,,,,,,,,,,,,,,,,,,,,,,,,,,,,,,,,,,,44,155620,18,Female,1,2024/02/09_14:16:03,JV,59.86590755
,,,,,,calibration,0,14,2,917,10,X,0,left,0.585152153,0,0,,,,,,,,,,,,,,,,,,,,,1,,,,,,,,,,,,,,,,,,,,,,,,,,,,,,,,,,,,,,,,,,,,,,44,155620,18,Female,1,2024/02/09_14:16:03,JV,59.86590755
,,,,,,calibration,0,14,2,917,11,F,1,right,0.247042356,0,0,,,,,,,,,,,,,,,,,,,,,1,,,,,,,,,,,,,,,,,,,,,,,,,,,,,,,,,,,,,,,,,,,,,,44,155620,18,Female,1,2024/02/09_14:16:03,JV,59.86590755
,,,,,,calibration,0,14,2,917,12,Q,0,right,0.259269002,1,0,,,,,,,,,,,,,,,,,,,,,1,,,,,,,,,,,,,,,,,,,,,,,,,,,,,,,,,,,,,,,,,,,,,,44,155620,18,Female,1,2024/02/09_14:16:03,JV,59.86590755
,,,,,,calibration,0,14,2,917,,,,,,,,0.722222222,0.333333333,0.111111111,0.888888889,0,0.888888889,0.434255697,1,1,0,0,0,8,9,3,9,0,,,,1,,,,,,,,,,,,,,,,,,,,,,,,,,,,,,,,,,,,,,,,,,,,,,44,155620,18,Female,1,2024/02/09_14:16:03,JV,59.86590755
,,,,,,Calibration,0,,2,917,,,,,,,,,,,,,,,,,,,,,,,,,14,,,1,,,,,,,,,,,,,,,,,,,,,,,,,,,,,,,,,,,,,,,,,,,,,,44,155620,18,Female,1,2024/02/09_14:16:03,JV,59.86590755
,,,,,,calibration,0,33,2,1068,1,N,0,right,0.399847004,1,0,,,,,,,,,,,,,,,,,,,,,1,,,,,,,,,,,,,,,,,,,,,,,,,,,,,,,,,,,,,,,,,,,,,,44,155620,18,Female,1,2024/02/09_14:16:03,JV,59.86590755
,,,,,,calibration,0,33,2,1068,2,Q,0,right,0.494757976,1,0,,,,,,,,,,,,,,,,,,,,,1,,,,,,,,,,,,,,,,,,,,,,,,,,,,,,,,,,,,,,,,,,,,,,44,155620,18,Female,1,2024/02/09_14:16:03,JV,59.86590755
,,,,,,calibration,0,33,2,1068,3,N,1,left,0.367685342,1,0,,,,,,,,,,,,,,,,,,,,,1,,,,,,,,,,,,,,,,,,,,,,,,,,,,,,,,,,,,,,,,,,,,,,44,155620,18,Female,1,2024/02/09_14:16:03,JV,59.86590755
,,,,,,calibration,0,33,2,1068,4,F,0,right,0.2930663,1,0,,,,,,,,,,,,,,,,,,,,,1,,,,,,,,,,,,,,,,,,,,,,,,,,,,,,,,,,,,,,,,,,,,,,44,155620,18,Female,1,2024/02/09_14:16:03,JV,59.86590755
,,,,,,calibration,0,33,2,1068,5,N,1,right,0.344149377,0,0,,,,,,,,,,,,,,,,,,,,,1,,,,,,,,,,,,,,,,,,,,,,,,,,,,,,,,,,,,,,,,,,,,,,44,155620,18,Female,1,2024/02/09_14:16:03,JV,59.86590755
,,,,,,calibration,0,33,2,1068,6,F,1,right,0.492777058,0,0,,,,,,,,,,,,,,,,,,,,,1,,,,,,,,,,,,,,,,,,,,,,,,,,,,,,,,,,,,,,,,,,,,,,44,155620,18,Female,1,2024/02/09_14:16:03,JV,59.86590755
,,,,,,calibration,0,33,2,1068,7,V,0,right,0.48289515,1,0,,,,,,,,,,,,,,,,,,,,,1,,,,,,,,,,,,,,,,,,,,,,,,,,,,,,,,,,,,,,,,,,,,,,44,155620,18,Female,1,2024/02/09_14:16:03,JV,59.86590755
,,,,,,calibration,0,33,2,1068,8,S,0,right,0.43804109,1,0,,,,,,,,,,,,,,,,,,,,,1,,,,,,,,,,,,,,,,,,,,,,,,,,,,,,,,,,,,,,,,,,,,,,44,155620,18,Female,1,2024/02/09_14:16:03,JV,59.86590755
,,,,,,calibration,0,33,2,1068,9,C,0,right,0.447166647,1,0,,,,,,,,,,,,,,,,,,,,,1,,,,,,,,,,,,,,,,,,,,,,,,,,,,,,,,,,,,,,,,,,,,,,44,155620,18,Female,1,2024/02/09_14:16:03,JV,59.86590755
,,,,,,calibration,0,33,2,1068,10,N,0,right,0.542751082,1,0,,,,,,,,,,,,,,,,,,,,,1,,,,,,,,,,,,,,,,,,,,,,,,,,,,,,,,,,,,,,,,,,,,,,44,155620,18,Female,1,2024/02/09_14:16:03,JV,59.86590755
,,,,,,calibration,0,33,2,1068,11,V,0,right,0.38477325,1,0,,,,,,,,,,,,,,,,,,,,,1,,,,,,,,,,,,,,,,,,,,,,,,,,,,,,,,,,,,,,,,,,,,,,44,155620,18,Female,1,2024/02/09_14:16:03,JV,59.86590755
,,,,,,calibration,0,33,2,1068,,,,,,,,0.833333333,0.333333333,0,1,0,1,0.426173661,1,0,0,0,0,8,9,3,8,0,,,,1,,,,,,,,,,,,,,,,,,,,,,,,,,,,,,,,,,,,,,,,,,,,,,44,155620,18,Female,1,2024/02/09_14:16:03,JV,59.86590755
,,,,,,Calibration,0,,2,1068,,,,,,,,,,,,,,,,,,,,,,,,,15,,,1,,,,,,,,,,,,,,,,,,,,,,,,,,,,,,,,,,,,,,,,,,,,,,44,155620,18,Female,1,2024/02/09_14:16:03,JV,59.86590755
,,,,,,CALIBRATION,0,,,,,,,,,,,,,,,,,,,,,,,,,,,,15,0.833333333,1068,1,,,,,,,,,,,,,,,,,,,,,,,,,,,,,,,,,,,,,,,,,,,,,,44,155620,18,Female,1,2024/02/09_14:16:03,JV,59.86590755
1,./instructions/inst_prac_1/Slide24.png,right,30.33663385,419.9618655,450.2984993,,,,,,,,,,,,,,,,,,,,,,,,,,,,,,,,,1,,,,,,,,,,,,,,,,,,,,,,,,,,,,,,,,,,,,,,,,,,,,,,44,155620,18,Female,1,2024/02/09_14:16:03,JV,59.86590755
2,./instructions/inst_prac_1/Slide25.png,right,1.564017304,450.3347338,451.8987511,,,,,,,,,,,,,,,,,,,,,,,,,,,,,,,,,1,,,,,,,,,,,,,,,,,,,,,,,,,,,,,,,,,,,,,,,,,,,,,,44,155620,18,Female,1,2024/02/09_14:16:03,JV,59.86590755
3,./instructions/inst_prac_1/Slide26.png,right,4.229862928,451.9326004,456.1624634,,,,,,,,,,,,,,,,,,,,,,,,,,,,,,,,,1,,,,,,,,,,,,,,,,,,,,,,,,,,,,,,,,,,,,,,,,,,,,,,44,155620,18,Female,1,2024/02/09_14:16:03,JV,59.86590755
4,./instructions/inst_prac_1/Slide27.png,right,0.648219454,456.1942995,456.842519,,,,,,,,,,,,,,,,,,,,,,,,,,,,,,,,,1,,,,,,,,,,,,,,,,,,,,,,,,,,,,,,,,,,,,,,,,,,,,,,44,155620,18,Female,1,2024/02/09_14:16:03,JV,59.86590755
5,./instructions/inst_prac_1/Slide28.png,right,0.470209621,456.8764586,457.3466682,,,,,,,,,,,,,,,,,,,,,,,,,,,,,,,,,1,,,,,,,,,,,,,,,,,,,,,,,,,,,,,,,,,,,,,,,,,,,,,,44,155620,18,Female,1,2024/02/09_14:16:03,JV,59.86590755
6,./instructions/inst_prac_1/Slide29.png,right,15.76873288,457.3778572,473.1465901,,,,,,,,,,,,,,,,,,,,,,,,,,,,,,,,,1,,,,,,,,,,,,,,,,,,,,,,,,,,,,,,,,,,,,,,,,,,,,,,44,155620,18,Female,1,2024/02/09_14:16:03,JV,59.86590755
7,./instructions/inst_prac_1/Slide30.png,right,6.733418162,473.1809912,479.9144094,,,,,,,,,,,,,,,,,,,,,,,,,,,,,,,,,1,,,,,,,,,,,,,,,,,,,,,,,,,,,,,,,,,,,,,,,,,,,,,,44,155620,18,Female,1,2024/02/09_14:16:03,JV,59.86590755
,,,,,,practice,0,33,1,1250,1,V,0,right,4.224157265,1,0,,,,,,,,,,,,,,,,,,,,,1,,,,,,,,,,,,,,,,,,,,,,,,,,,,,,,,,,,,,,,,,,,,,,44,155620,18,Female,1,2024/02/09_14:16:03,JV,59.86590755
,,,,,,practice,0,33,1,1250,2,F,0,left,2.416801457,0,0,,,,,,,,,,,,,,,,,,,,,1,,,,,,,,,,,,,,,,,,,,,,,,,,,,,,,,,,,,,,,,,,,,,,44,155620,18,Female,1,2024/02/09_14:16:03,JV,59.86590755
,,,,,,practice,0,33,1,1250,3,C,0,right,1.054816306,1,0,,,,,,,,,,,,,,,,,,,,,1,,,,,,,,,,,,,,,,,,,,,,,,,,,,,,,,,,,,,,,,,,,,,,44,155620,18,Female,1,2024/02/09_14:16:03,JV,59.86590755
,,,,,,practice,0,33,1,1250,4,C,1,left,1.096801822,1,0,,,,,,,,,,,,,,,,,,,,,1,,,,,,,,,,,,,,,,,,,,,,,,,,,,,,,,,,,,,,,,,,,,,,44,155620,18,Female,1,2024/02/09_14:16:03,JV,59.86590755
,,,,,,practice,0,33,1,1250,5,N,0,right,1.152759624,1,0,,,,,,,,,,,,,,,,,,,,,1,,,,,,,,,,,,,,,,,,,,,,,,,,,,,,,,,,,,,,,,,,,,,,44,155620,18,Female,1,2024/02/09_14:16:03,JV,59.86590755
,,,,,,practice,0,33,1,1250,6,N,1,left,0.962174243,1,0,,,,,,,,,,,,,,,,,,,,,1,,,,,,,,,,,,,,,,,,,,,,,,,,,,,,,,,,,,,,,,,,,,,,44,155620,18,Female,1,2024/02/09_14:16:03,JV,59.86590755
,,,,,,practice,0,33,1,1250,7,C,0,left,1.421652221,0,0,,,,,,,,,,,,,,,,,,,,,1,,,,,,,,,,,,,,,,,,,,,,,,,,,,,,,,,,,,,,,,,,,,,,44,155620,18,Female,1,2024/02/09_14:16:03,JV,59.86590755
,,,,,,practice,0,33,1,1250,8,F,0,right,0.688401084,1,0,,,,,,,,,,,,,,,,,,,,,1,,,,,,,,,,,,,,,,,,,,,,,,,,,,,,,,,,,,,,,,,,,,,,44,155620,18,Female,1,2024/02/09_14:16:03,JV,59.86590755
,,,,,,practice,0,33,1,1250,9,S,0,right,1.055140106,1,0,,,,,,,,,,,,,,,,,,,,,1,,,,,,,,,,,,,,,,,,,,,,,,,,,,,,,,,,,,,,,,,,,,,,44,155620,18,Female,1,2024/02/09_14:16:03,JV,59.86590755
,,,,,,practice,0,33,1,1250,10,S,1,left,0.840081863,1,0,,,,,,,,,,,,,,,,,,,,,1,,,,,,,,,,,,,,,,,,,,,,,,,,,,,,,,,,,,,,,,,,,,,,44,155620,18,Female,1,2024/02/09_14:16:03,JV,59.86590755
,,,,,,practice,0,33,1,1250,,,,,,,,0.928571429,1,0.285714286,0.714285714,0,0.714285714,1.491278599,3,2,0,0,0,5,8,3,7,0,,,,1,,,,,,,,,,,,,,,,,,,,,,,,,,,,,,,,,,,,,,,,,,,,,,44,155620,18,Female,1,2024/02/09_14:16:03,JV,59.86590755
1,./instructions/inst_prac_1_next/Slide35.png,right,4.887266818,506.4273182,511.314585,,,,,,,,,,,,,,,,,,,,,,,,,,,,,,,,,1,,,,,,,,,,,,,,,,,,,,,,,,,,,,,,,,,,,,,,,,,,,,,,44,155620,18,Female,1,2024/02/09_14:16:03,JV,59.86590755
,,,,,,practice,0,1,1,1068,1,S,0,right,1.311173777,1,0,,,,,,,,,,,,,,,,,,,,,1,,,,,,,,,,,,,,,,,,,,,,,,,,,,,,,,,,,,,,,,,,,,,,44,155620,18,Female,1,2024/02/09_14:16:03,JV,59.86590755
,,,,,,practice,0,1,1,1068,2,V,0,right,0.744452911,1,0,,,,,,,,,,,,,,,,,,,,,1,,,,,,,,,,,,,,,,,,,,,,,,,,,,,,,,,,,,,,,,,,,,,,44,155620,18,Female,1,2024/02/09_14:16:03,JV,59.86590755
,,,,,,practice,0,1,1,1068,3,F,0,right,0.482396269,1,0,,,,,,,,,,,,,,,,,,,,,1,,,,,,,,,,,,,,,,,,,,,,,,,,,,,,,,,,,,,,,,,,,,,,44,155620,18,Female,1,2024/02/09_14:16:03,JV,59.86590755
,,,,,,practice,0,1,1,1068,4,F,1,left,0.573462402,1,0,,,,,,,,,,,,,,,,,,,,,1,,,,,,,,,,,,,,,,,,,,,,,,,,,,,,,,,,,,,,,,,,,,,,44,155620,18,Female,1,2024/02/09_14:16:03,JV,59.86590755
,,,,,,practice,0,1,1,1068,5,S,0,right,0.591216879,1,0,,,,,,,,,,,,,,,,,,,,,1,,,,,,,,,,,,,,,,,,,,,,,,,,,,,,,,,,,,,,,,,,,,,,44,155620,18,Female,1,2024/02/09_14:16:03,JV,59.86590755
,,,,,,practice,0,1,1,1068,6,C,0,right,0.60024164,1,0,,,,,,,,,,,,,,,,,,,,,1,,,,,,,,,,,,,,,,,,,,,,,,,,,,,,,,,,,,,,,,,,,,,,44,155620,18,Female,1,2024/02/09_14:16:03,JV,59.86590755
,,,,,,practice,0,1,1,1068,7,Q,0,right,0.458440255,1,0,,,,,,,,,,,,,,,,,,,,,1,,,,,,,,,,,,,,,,,,,,,,,,,,,,,,,,,,,,,,,,,,,,,,44,155620,18,Female,1,2024/02/09_14:16:03,JV,59.86590755
,,,,,,practice,0,1,1,1068,8,F,0,right,0.612967989,1,0,,,,,,,,,,,,,,,,,,,,,1,,,,,,,,,,,,,,,,,,,,,,,,,,,,,,,,,,,,,,,,,,,,,,44,155620,18,Female,1,2024/02/09_14:16:03,JV,59.86590755
,,,,,,practice,0,1,1,1068,9,F,1,left,0.499098747,1,0,,,,,,,,,,,,,,,,,,,,,1,,,,,,,,,,,,,,,,,,,,,,,,,,,,,,,,,,,,,,,,,,,,,,44,155620,18,Female,1,2024/02/09_14:16:03,JV,59.86590755
,,,,,,practice,0,1,1,1068,10,N,0,right,0.344327622,1,0,,,,,,,,,,,,,,,,,,,,,1,,,,,,,,,,,,,,,,,,,,,,,,,,,,,,,,,,,,,,,,,,,,,,44,155620,18,Female,1,2024/02/09_14:16:03,JV,59.86590755
,,,,,,practice,0,1,1,1068,11,N,1,left,0.558670907,1,0,,,,,,,,,,,,,,,,,,,,,1,,,,,,,,,,,,,,,,,,,,,,,,,,,,,,,,,,,,,,,,,,,,,,44,155620,18,Female,1,2024/02/09_14:16:03,JV,59.86590755
,,,,,,practice,0,1,1,1068,,,,,,,,1,1,0,1,0,1,0.616040854,3,0,0,0,0,8,11,3,8,0,,,,1,,,,,,,,,,,,,,,,,,,,,,,,,,,,,,,,,,,,,,,,,,,,,,44,155620,18,Female,1,2024/02/09_14:16:03,JV,59.86590755
,,,,,,practice,0,16,1,1068,1,V,0,right,0.543496711,1,0,,,,,,,,,,,,,,,,,,,,,1,,,,,,,,,,,,,,,,,,,,,,,,,,,,,,,,,,,,,,,,,,,,,,44,155620,18,Female,1,2024/02/09_14:16:03,JV,59.86590755
,,,,,,practice,0,16,1,1068,2,V,1,left,0.376372563,1,0,,,,,,,,,,,,,,,,,,,,,1,,,,,,,,,,,,,,,,,,,,,,,,,,,,,,,,,,,,,,,,,,,,,,44,155620,18,Female,1,2024/02/09_14:16:03,JV,59.86590755
,,,,,,practice,0,16,1,1068,3,J,0,right,0.379343759,1,0,,,,,,,,,,,,,,,,,,,,,1,,,,,,,,,,,,,,,,,,,,,,,,,,,,,,,,,,,,,,,,,,,,,,44,155620,18,Female,1,2024/02/09_14:16:03,JV,59.86590755
,,,,,,practice,0,16,1,1068,4,C,0,left,0.375605713,0,0,,,,,,,,,,,,,,,,,,,,,1,,,,,,,,,,,,,,,,,,,,,,,,,,,,,,,,,,,,,,,,,,,,,,44,155620,18,Female,1,2024/02/09_14:16:03,JV,59.86590755
,,,,,,practice,0,16,1,1068,5,N,0,right,0.333699461,1,0,,,,,,,,,,,,,,,,,,,,,1,,,,,,,,,,,,,,,,,,,,,,,,,,,,,,,,,,,,,,,,,,,,,,44,155620,18,Female,1,2024/02/09_14:16:03,JV,59.86590755
,,,,,,practice,0,16,1,1068,6,X,0,right,0.359146006,1,0,,,,,,,,,,,,,,,,,,,,,1,,,,,,,,,,,,,,,,,,,,,,,,,,,,,,,,,,,,,,,,,,,,,,44,155620,18,Female,1,2024/02/09_14:16:03,JV,59.86590755
,,,,,,practice,0,16,1,1068,7,X,1,left,0.805965734,1,0,,,,,,,,,,,,,,,,,,,,,1,,,,,,,,,,,,,,,,,,,,,,,,,,,,,,,,,,,,,,,,,,,,,,44,155620,18,Female,1,2024/02/09_14:16:03,JV,59.86590755
,,,,,,practice,0,16,1,1068,8,C,0,right,0.357678559,1,0,,,,,,,,,,,,,,,,,,,,,1,,,,,,,,,,,,,,,,,,,,,,,,,,,,,,,,,,,,,,,,,,,,,,44,155620,18,Female,1,2024/02/09_14:16:03,JV,59.86590755
,,,,,,practice,0,16,1,1068,9,C,1,right,0.360097041,0,0,,,,,,,,,,,,,,,,,,,,,1,,,,,,,,,,,,,,,,,,,,,,,,,,,,,,,,,,,,,,,,,,,,,,44,155620,18,Female,1,2024/02/09_14:16:03,JV,59.86590755
,,,,,,practice,0,16,1,1068,10,X,0,left,0.619844401,0,0,,,,,,,,,,,,,,,,,,,,,1,,,,,,,,,,,,,,,,,,,,,,,,,,,,,,,,,,,,,,,,,,,,,,44,155620,18,Female,1,2024/02/09_14:16:03,JV,59.86590755
,,,,,,practice,0,16,1,1068,11,C,0,right,0.436726483,1,0,,,,,,,,,,,,,,,,,,,,,1,,,,,,,,,,,,,,,,,,,,,,,,,,,,,,,,,,,,,,,,,,,,,,44,155620,18,Female,1,2024/02/09_14:16:03,JV,59.86590755
,,,,,,practice,0,16,1,1068,,,,,,,,0.770833333,0.666666667,0.25,0.75,0,0.75,0.449816039,2,2,0,0,0,6,8,3,8,0,,,,1,,,,,,,,,,,,,,,,,,,,,,,,,,,,,,,,,,,,,,,,,,,,,,44,155620,18,Female,1,2024/02/09_14:16:03,JV,59.86590755
1,./instructions/inst_prac_3/Slide37.png,right,17.28820505,538.7701464,556.0583515,,,,,,,,,,,,,,,,,,,,,,,,,,,,,,,,,1,,,,,,,,,,,,,,,,,,,,,,,,,,,,,,,,,,,,,,,,,,,,,,44,155620,18,Female,1,2024/02/09_14:16:03,JV,59.86590755
2,./instructions/inst_prac_3/Slide38.png,right,1.981607757,556.0929464,558.0745542,,,,,,,,,,,,,,,,,,,,,,,,,,,,,,,,,1,,,,,,,,,,,,,,,,,,,,,,,,,,,,,,,,,,,,,,,,,,,,,,44,155620,18,Female,1,2024/02/09_14:16:03,JV,59.86590755
3,./instructions/inst_prac_3/Slide39.png,right,0.724192108,558.1104605,558.8346526,,,,,,,,,,,,,,,,,,,,,,,,,,,,,,,,,1,,,,,,,,,,,,,,,,,,,,,,,,,,,,,,,,,,,,,,,,,,,,,,44,155620,18,Female,1,2024/02/09_14:16:03,JV,59.86590755
4,./instructions/inst_prac_3/Slide40.png,right,0.462438501,558.8679428,559.3303813,,,,,,,,,,,,,,,,,,,,,,,,,,,,,,,,,1,,,,,,,,,,,,,,,,,,,,,,,,,,,,,,,,,,,,,,,,,,,,,,44,155620,18,Female,1,2024/02/09_14:16:03,JV,59.86590755
5,./instructions/inst_prac_3/Slide41.png,right,1.549222563,559.3652479,560.9144705,,,,,,,,,,,,,,,,,,,,,,,,,,,,,,,,,1,,,,,,,,,,,,,,,,,,,,,,,,,,,,,,,,,,,,,,,,,,,,,,44,155620,18,Female,1,2024/02/09_14:16:03,JV,59.86590755
6,./instructions/inst_prac_3/Slide42.png,right,1.005846236,560.9486272,561.9544734,,,,,,,,,,,,,,,,,,,,,,,,,,,,,,,,,1,,,,,,,,,,,,,,,,,,,,,,,,,,,,,,,,,,,,,,,,,,,,,,44,155620,18,Female,1,2024/02/09_14:16:03,JV,59.86590755
7,./instructions/inst_prac_3/Slide43.png,right,10.83708704,561.9814386,572.8185257,,,,,,,,,,,,,,,,,,,,,,,,,,,,,,,,,1,,,,,,,,,,,,,,,,,,,,,,,,,,,,,,,,,,,,,,,,,,,,,,44,155620,18,Female,1,2024/02/09_14:16:03,JV,59.86590755
8,./instructions/inst_prac_3/Slide44.png,right,2.084729776,572.8538608,574.9385906,,,,,,,,,,,,,,,,,,,,,,,,,,,,,,,,,1,,,,,,,,,,,,,,,,,,,,,,,,,,,,,,,,,,,,,,,,,,,,,,44,155620,18,Female,1,2024/02/09_14:16:03,JV,59.86590755
,,,,,,practice,0,7,3,788,1,X,0,right,4.774322268,1,0,,,,,,,,,,,,,,,,,,,,,1,,,,,,,,,,,,,,,,,,,,,,,,,,,,,,,,,,,,,,,,,,,,,,44,155620,18,Female,1,2024/02/09_14:16:03,JV,59.86590755
,,,,,,practice,0,7,3,788,2,N,0,right,0.994356288,1,0,,,,,,,,,,,,,,,,,,,,,1,,,,,,,,,,,,,,,,,,,,,,,,,,,,,,,,,,,,,,,,,,,,,,44,155620,18,Female,1,2024/02/09_14:16:03,JV,59.86590755
,,,,,,practice,0,7,3,788,3,X,0,right,0.37391084,1,0,,,,,,,,,,,,,,,,,,,,,1,,,,,,,,,,,,,,,,,,,,,,,,,,,,,,,,,,,,,,,,,,,,,,44,155620,18,Female,1,2024/02/09_14:16:03,JV,59.86590755
,,,,,,practice,0,7,3,788,4,C,0,right,1.329412048,1,0,,,,,,,,,,,,,,,,,,,,,1,,,,,,,,,,,,,,,,,,,,,,,,,,,,,,,,,,,,,,,,,,,,,,44,155620,18,Female,1,2024/02/09_14:16:03,JV,59.86590755
,,,,,,practice,0,7,3,788,5,S,0,right,3.148164451,1,0,,,,,,,,,,,,,,,,,,,,,1,,,,,,,,,,,,,,,,,,,,,,,,,,,,,,,,,,,,,,,,,,,,,,44,155620,18,Female,1,2024/02/09_14:16:03,JV,59.86590755
,,,,,,practice,0,7,3,788,6,S,0,right,0.825337426,1,0,,,,,,,,,,,,,,,,,,,,,1,,,,,,,,,,,,,,,,,,,,,,,,,,,,,,,,,,,,,,,,,,,,,,44,155620,18,Female,1,2024/02/09_14:16:03,JV,59.86590755
,,,,,,practice,0,7,3,788,7,C,1,left,0.822106468,1,0,,,,,,,,,,,,,,,,,,,,,1,,,,,,,,,,,,,,,,,,,,,,,,,,,,,,,,,,,,,,,,,,,,,,44,155620,18,Female,1,2024/02/09_14:16:03,JV,59.86590755
,,,,,,practice,0,7,3,788,8,Q,0,right,0.853540407,1,0,,,,,,,,,,,,,,,,,,,,,1,,,,,,,,,,,,,,,,,,,,,,,,,,,,,,,,,,,,,,,,,,,,,,44,155620,18,Female,1,2024/02/09_14:16:03,JV,59.86590755
,,,,,,practice,0,7,3,788,9,S,1,left,1.983650163,1,0,,,,,,,,,,,,,,,,,,,,,1,,,,,,,,,,,,,,,,,,,,,,,,,,,,,,,,,,,,,,,,,,,,,,44,155620,18,Female,1,2024/02/09_14:16:03,JV,59.86590755
,,,,,,practice,0,7,3,788,10,Q,0,right,1.120544643,1,0,,,,,,,,,,,,,,,,,,,,,1,,,,,,,,,,,,,,,,,,,,,,,,,,,,,,,,,,,,,,,,,,,,,,44,155620,18,Female,1,2024/02/09_14:16:03,JV,59.86590755
,,,,,,practice,0,7,3,788,11,Q,1,left,0.825626297,1,0,,,,,,,,,,,,,,,,,,,,,1,,,,,,,,,,,,,,,,,,,,,,,,,,,,,,,,,,,,,,,,,,,,,,44,155620,18,Female,1,2024/02/09_14:16:03,JV,59.86590755
,,,,,,practice,0,7,3,788,12,V,0,right,0.671253131,1,0,,,,,,,,,,,,,,,,,,,,,1,,,,,,,,,,,,,,,,,,,,,,,,,,,,,,,,,,,,,,,,,,,,,,44,155620,18,Female,1,2024/02/09_14:16:03,JV,59.86590755
,,,,,,practice,0,7,3,788,13,Q,1,left,0.660498244,1,0,,,,,,,,,,,,,,,,,,,,,1,,,,,,,,,,,,,,,,,,,,,,,,,,,,,,,,,,,,,,,,,,,,,,44,155620,18,Female,1,2024/02/09_14:16:03,JV,59.86590755
,,,,,,practice,0,7,3,788,,,,,,,,1,1,0,1,0,1,1.41405559,4,0,0,0,0,9,13,4,9,0,,,,1,,,,,,,,,,,,,,,,,,,,,,,,,,,,,,,,,,,,,,,,,,,,,,44,155620,18,Female,1,2024/02/09_14:16:03,JV,59.86590755
1,./instructions/inst_prac_3_next/Slide49.png,right,3.176078848,607.0344859,610.2105647,,,,,,,,,,,,,,,,,,,,,,,,,,,,,,,,,1,,,,,,,,,,,,,,,,,,,,,,,,,,,,,,,,,,,,,,,,,,,,,,44,155620,18,Female,1,2024/02/09_14:16:03,JV,59.86590755
,,,,,,practice,0,23,3,1068,1,F,0,right,0.507743144,1,0,,,,,,,,,,,,,,,,,,,,,1,,,,,,,,,,,,,,,,,,,,,,,,,,,,,,,,,,,,,,,,,,,,,,44,155620,18,Female,1,2024/02/09_14:16:03,JV,59.86590755
,,,,,,practice,0,23,3,1068,2,X,0,right,0.367331113,1,0,,,,,,,,,,,,,,,,,,,,,1,,,,,,,,,,,,,,,,,,,,,,,,,,,,,,,,,,,,,,,,,,,,,,44,155620,18,Female,1,2024/02/09_14:16:03,JV,59.86590755
,,,,,,practice,0,23,3,1068,3,C,0,right,0.558149644,1,0,,,,,,,,,,,,,,,,,,,,,1,,,,,,,,,,,,,,,,,,,,,,,,,,,,,,,,,,,,,,,,,,,,,,44,155620,18,Female,1,2024/02/09_14:16:03,JV,59.86590755
,,,,,,practice,0,23,3,1068,4,C,0,right,1.452761477,1,0,,,,,,,,,,,,,,,,,,,,,1,,,,,,,,,,,,,,,,,,,,,,,,,,,,,,,,,,,,,,,,,,,,,,44,155620,18,Female,1,2024/02/09_14:16:03,JV,59.86590755
,,,,,,practice,0,23,3,1068,5,Q,0,right,1.351705167,1,0,,,,,,,,,,,,,,,,,,,,,1,,,,,,,,,,,,,,,,,,,,,,,,,,,,,,,,,,,,,,,,,,,,,,44,155620,18,Female,1,2024/02/09_14:16:03,JV,59.86590755
,,,,,,practice,0,23,3,1068,6,V,0,right,1.22634754,1,0,,,,,,,,,,,,,,,,,,,,,1,,,,,,,,,,,,,,,,,,,,,,,,,,,,,,,,,,,,,,,,,,,,,,44,155620,18,Female,1,2024/02/09_14:16:03,JV,59.86590755
,,,,,,practice,0,23,3,1068,7,J,0,right,1.115663814,1,0,,,,,,,,,,,,,,,,,,,,,1,,,,,,,,,,,,,,,,,,,,,,,,,,,,,,,,,,,,,,,,,,,,,,44,155620,18,Female,1,2024/02/09_14:16:03,JV,59.86590755
,,,,,,practice,0,23,3,1068,8,Q,1,left,2.318625737,1,0,,,,,,,,,,,,,,,,,,,,,1,,,,,,,,,,,,,,,,,,,,,,,,,,,,,,,,,,,,,,,,,,,,,,44,155620,18,Female,1,2024/02/09_14:16:03,JV,59.86590755
,,,,,,practice,0,23,3,1068,9,V,1,left,1.763073816,1,0,,,,,,,,,,,,,,,,,,,,,1,,,,,,,,,,,,,,,,,,,,,,,,,,,,,,,,,,,,,,,,,,,,,,44,155620,18,Female,1,2024/02/09_14:16:03,JV,59.86590755
,,,,,,practice,0,23,3,1068,10,S,0,right,1.510806593,1,0,,,,,,,,,,,,,,,,,,,,,1,,,,,,,,,,,,,,,,,,,,,,,,,,,,,,,,,,,,,,,,,,,,,,44,155620,18,Female,1,2024/02/09_14:16:03,JV,59.86590755
,,,,,,practice,0,23,3,1068,11,Q,1,right,0.766262106,0,0,,,,,,,,,,,,,,,,,,,,,1,,,,,,,,,,,,,,,,,,,,,,,,,,,,,,,,,,,,,,,,,,,,,,44,155620,18,Female,1,2024/02/09_14:16:03,JV,59.86590755
,,,,,,practice,0,23,3,1068,,,,,,,,0.916666667,0.666666667,0,1,0,1,1.176224559,2,0,0,0,0,8,10,3,8,0,,,,1,,,,,,,,,,,,,,,,,,,,,,,,,,,,,,,,,,,,,,,,,,,,,,44,155620,18,Female,1,2024/02/09_14:16:03,JV,59.86590755
,,,,,,practice,0,1,3,1068,1,X,0,right,1.682700499,1,0,,,,,,,,,,,,,,,,,,,,,1,,,,,,,,,,,,,,,,,,,,,,,,,,,,,,,,,,,,,,,,,,,,,,44,155620,18,Female,1,2024/02/09_14:16:03,JV,59.86590755
,,,,,,practice,0,1,3,1068,2,F,0,right,0.55901784,1,0,,,,,,,,,,,,,,,,,,,,,1,,,,,,,,,,,,,,,,,,,,,,,,,,,,,,,,,,,,,,,,,,,,,,44,155620,18,Female,1,2024/02/09_14:16:03,JV,59.86590755
,,,,,,practice,0,1,3,1068,3,C,0,right,0.939445455,1,0,,,,,,,,,,,,,,,,,,,,,1,,,,,,,,,,,,,,,,,,,,,,,,,,,,,,,,,,,,,,,,,,,,,,44,155620,18,Female,1,2024/02/09_14:16:03,JV,59.86590755
,,,,,,practice,0,1,3,1068,4,C,0,right,1.631734223,1,0,,,,,,,,,,,,,,,,,,,,,1,,,,,,,,,,,,,,,,,,,,,,,,,,,,,,,,,,,,,,,,,,,,,,44,155620,18,Female,1,2024/02/09_14:16:03,JV,59.86590755
,,,,,,practice,0,1,3,1068,5,X,0,right,2.661681064,1,0,,,,,,,,,,,,,,,,,,,,,1,,,,,,,,,,,,,,,,,,,,,,,,,,,,,,,,,,,,,,,,,,,,,,44,155620,18,Female,1,2024/02/09_14:16:03,JV,59.86590755
,,,,,,practice,0,1,3,1068,6,X,0,right,1.719388059,1,0,,,,,,,,,,,,,,,,,,,,,1,,,,,,,,,,,,,,,,,,,,,,,,,,,,,,,,,,,,,,,,,,,,,,44,155620,18,Female,1,2024/02/09_14:16:03,JV,59.86590755
,,,,,,practice,0,1,3,1068,7,C,1,left,1.646785434,1,0,,,,,,,,,,,,,,,,,,,,,1,,,,,,,,,,,,,,,,,,,,,,,,,,,,,,,,,,,,,,,,,,,,,,44,155620,18,Female,1,2024/02/09_14:16:03,JV,59.86590755
,,,,,,practice,0,1,3,1068,8,X,1,right,0.995993297,0,0,,,,,,,,,,,,,,,,,,,,,1,,,,,,,,,,,,,,,,,,,,,,,,,,,,,,,,,,,,,,,,,,,,,,44,155620,18,Female,1,2024/02/09_14:16:03,JV,59.86590755
,,,,,,practice,0,1,3,1068,9,N,0,right,2.843384681,1,0,,,,,,,,,,,,,,,,,,,,,1,,,,,,,,,,,,,,,,,,,,,,,,,,,,,,,,,,,,,,,,,,,,,,44,155620,18,Female,1,2024/02/09_14:16:03,JV,59.86590755
,,,,,,practice,0,1,3,1068,10,C,1,left,1.651064784,1,0,,,,,,,,,,,,,,,,,,,,,1,,,,,,,,,,,,,,,,,,,,,,,,,,,,,,,,,,,,,,,,,,,,,,44,155620,18,Female,1,2024/02/09_14:16:03,JV,59.86590755
,,,,,,practice,0,1,3,1068,11,Q,0,right,0.949938326,1,0,,,,,,,,,,,,,,,,,,,,,1,,,,,,,,,,,,,,,,,,,,,,,,,,,,,,,,,,,,,,,,,,,,,,44,155620,18,Female,1,2024/02/09_14:16:03,JV,59.86590755
,,,,,,practice,0,1,3,1068,,,,,,,,0.916666667,0.666666667,0,1,0,1,1.571012151,2,0,0,0,0,8,10,3,8,0,,,,1,,,,,,,,,,,,,,,,,,,,,,,,,,,,,,,,,,,,,,,,,,,,,,44,155620,18,Female,1,2024/02/09_14:16:03,JV,59.86590755
1,./instructions/inst_prac_main/Slide51.png,right,1.86305949,656.0993733,657.9624328,,,,,,,,,,,,,,,,,,,,,,,,,,,,,,,,,1,,,,,,,,,,,,,,,,,,,,,,,,,,,,,,,,,,,,,,,,,,,,,,44,155620,18,Female,1,2024/02/09_14:16:03,JV,59.86590755
2,./instructions/inst_prac_main/Slide52.png,right,8.389378899,657.9972251,666.386604,,,,,,,,,,,,,,,,,,,,,,,,,,,,,,,,,1,,,,,,,,,,,,,,,,,,,,,,,,,,,,,,,,,,,,,,,,,,,,,,44,155620,18,Female,1,2024/02/09_14:16:03,JV,59.86590755
3,./instructions/inst_prac_main/Slide53.png,right,3.485539393,666.4209945,669.9065339,,,,,,,,,,,,,,,,,,,,,,,,,,,,,,,,,1,,,,,,,,,,,,,,,,,,,,,,,,,,,,,,,,,,,,,,,,,,,,,,44,155620,18,Female,1,2024/02/09_14:16:03,JV,59.86590755
4,./instructions/inst_prac_main/Slide54.png,right,10.49294463,669.9416766,680.4346212,,,,,,,,,,,,,,,,,,,,,,,,,,,,,,,,,1,,,,,,,,,,,,,,,,,,,,,,,,,,,,,,,,,,,,,,,,,,,,,,44,155620,18,Female,1,2024/02/09_14:16:03,JV,59.86590755
,,,,,,practice_main,0,1,1,1068,1,S,0,right,1.006900131,1,0,,,,,,,,,,,,,,,,,,,,,1,,,,,,,,,,,,,,,,,,,,,,,,,,,,,,,,,,,,,,,,,,,,,,44,155620,18,Female,1,2024/02/09_14:16:03,JV,59.86590755
,,,,,,practice_main,0,1,1,1068,2,V,0,right,0.733159735,1,0,,,,,,,,,,,,,,,,,,,,,1,,,,,,,,,,,,,,,,,,,,,,,,,,,,,,,,,,,,,,,,,,,,,,44,155620,18,Female,1,2024/02/09_14:16:03,JV,59.86590755
,,,,,,practice_main,0,1,1,1068,3,F,0,right,0.580325117,1,0,,,,,,,,,,,,,,,,,,,,,1,,,,,,,,,,,,,,,,,,,,,,,,,,,,,,,,,,,,,,,,,,,,,,44,155620,18,Female,1,2024/02/09_14:16:03,JV,59.86590755
,,,,,,practice_main,0,1,1,1068,4,F,1,left,0.630416239,1,0,,,,,,,,,,,,,,,,,,,,,1,,,,,,,,,,,,,,,,,,,,,,,,,,,,,,,,,,,,,,,,,,,,,,44,155620,18,Female,1,2024/02/09_14:16:03,JV,59.86590755
,,,,,,practice_main,0,1,1,1068,5,S,0,right,0.485216658,1,0,,,,,,,,,,,,,,,,,,,,,1,,,,,,,,,,,,,,,,,,,,,,,,,,,,,,,,,,,,,,,,,,,,,,44,155620,18,Female,1,2024/02/09_14:16:03,JV,59.86590755
,,,,,,practice_main,0,1,1,1068,6,C,0,right,0.512719778,1,0,,,,,,,,,,,,,,,,,,,,,1,,,,,,,,,,,,,,,,,,,,,,,,,,,,,,,,,,,,,,,,,,,,,,44,155620,18,Female,1,2024/02/09_14:16:03,JV,59.86590755
,,,,,,practice_main,0,1,1,1068,7,Q,0,right,0.42551513,1,0,,,,,,,,,,,,,,,,,,,,,1,,,,,,,,,,,,,,,,,,,,,,,,,,,,,,,,,,,,,,,,,,,,,,44,155620,18,Female,1,2024/02/09_14:16:03,JV,59.86590755
,,,,,,practice_main,0,1,1,1068,8,F,0,right,0.744940704,1,0,,,,,,,,,,,,,,,,,,,,,1,,,,,,,,,,,,,,,,,,,,,,,,,,,,,,,,,,,,,,,,,,,,,,44,155620,18,Female,1,2024/02/09_14:16:03,JV,59.86590755
,,,,,,practice_main,0,1,1,1068,9,F,1,left,0.409070264,1,0,,,,,,,,,,,,,,,,,,,,,1,,,,,,,,,,,,,,,,,,,,,,,,,,,,,,,,,,,,,,,,,,,,,,44,155620,18,Female,1,2024/02/09_14:16:03,JV,59.86590755
,,,,,,practice_main,0,1,1,1068,10,N,0,right,0.392729315,1,0,,,,,,,,,,,,,,,,,,,,,1,,,,,,,,,,,,,,,,,,,,,,,,,,,,,,,,,,,,,,,,,,,,,,44,155620,18,Female,1,2024/02/09_14:16:03,JV,59.86590755
,,,,,,practice_main,0,1,1,1068,11,N,1,right,0.977009158,0,0,,,,,,,,,,,,,,,,,,,,,1,,,,,,,,,,,,,,,,,,,,,,,,,,,,,,,,,,,,,,,,,,,,,,44,155620,18,Female,1,2024/02/09_14:16:03,JV,59.86590755
,,,,,,practice_main,0,1,1,1068,,,,,,,,0.916666667,0.666666667,0,1,0,1,0.627091112,2,0,0,0,0,8,10,3,8,0,,,,1,,,,,,,,,,,,,,,,,,,,,,,,,,,,,,,,,,,,,,,,,,,,,,44,155620,18,Female,1,2024/02/09_14:16:03,JV,59.86590755
,,,,,240209_150157,PRACTICE,0,1,1,1068,,,,,,,,,,,,,,,,,,,,,,,,,,,,1,15,2,1,cue2.png,easy,B,27,1.968376806,0,691.6552461,693.6445039,,,,,,,,,,,,,,,,,,,,,,,,,,,,,,,,,,,44,155620,18,Female,1,2024/02/09_14:16:03,JV,59.86590755
,,,,,,practice_main,0,2,1,1068,1,N,0,right,0.976865101,1,0,,,,,,,,,,,,,,,,,,,,,1,,,,,,,,,,,,,,,,,,,,,,,,,,,,,,,,,,,,,,,,,,,,,,44,155620,18,Female,1,2024/02/09_14:16:03,JV,59.86590755
,,,,,,practice_main,0,2,1,1068,2,Q,0,right,0.600944323,1,0,,,,,,,,,,,,,,,,,,,,,1,,,,,,,,,,,,,,,,,,,,,,,,,,,,,,,,,,,,,,,,,,,,,,44,155620,18,Female,1,2024/02/09_14:16:03,JV,59.86590755
,,,,,,practice_main,0,2,1,1068,3,Q,1,left,0.562198771,1,0,,,,,,,,,,,,,,,,,,,,,1,,,,,,,,,,,,,,,,,,,,,,,,,,,,,,,,,,,,,,,,,,,,,,44,155620,18,Female,1,2024/02/09_14:16:03,JV,59.86590755
,,,,,,practice_main,0,2,1,1068,4,X,0,right,0.897823952,1,0,,,,,,,,,,,,,,,,,,,,,1,,,,,,,,,,,,,,,,,,,,,,,,,,,,,,,,,,,,,,,,,,,,,,44,155620,18,Female,1,2024/02/09_14:16:03,JV,59.86590755
,,,,,,practice_main,0,2,1,1068,5,X,1,left,0.513393592,1,0,,,,,,,,,,,,,,,,,,,,,1,,,,,,,,,,,,,,,,,,,,,,,,,,,,,,,,,,,,,,,,,,,,,,44,155620,18,Female,1,2024/02/09_14:16:03,JV,59.86590755
,,,,,,practice_main,0,2,1,1068,6,S,0,right,0.513287503,1,0,,,,,,,,,,,,,,,,,,,,,1,,,,,,,,,,,,,,,,,,,,,,,,,,,,,,,,,,,,,,,,,,,,,,44,155620,18,Female,1,2024/02/09_14:16:03,JV,59.86590755
,,,,,,practice_main,0,2,1,1068,7,J,0,right,0.544171807,1,0,,,,,,,,,,,,,,,,,,,,,1,,,,,,,,,,,,,,,,,,,,,,,,,,,,,,,,,,,,,,,,,,,,,,44,155620,18,Female,1,2024/02/09_14:16:03,JV,59.86590755
,,,,,,practice_main,0,2,1,1068,8,J,1,right,0.417758418,0,0,,,,,,,,,,,,,,,,,,,,,1,,,,,,,,,,,,,,,,,,,,,,,,,,,,,,,,,,,,,,,,,,,,,,44,155620,18,Female,1,2024/02/09_14:16:03,JV,59.86590755
,,,,,,practice_main,0,2,1,1068,9,Q,0,right,0.571577258,1,0,,,,,,,,,,,,,,,,,,,,,1,,,,,,,,,,,,,,,,,,,,,,,,,,,,,,,,,,,,,,,,,,,,,,44,155620,18,Female,1,2024/02/09_14:16:03,JV,59.86590755
,,,,,,practice_main,0,2,1,1068,10,S,0,right,0.84480752,1,0,,,,,,,,,,,,,,,,,,,,,1,,,,,,,,,,,,,,,,,,,,,,,,,,,,,,,,,,,,,,,,,,,,,,44,155620,18,Female,1,2024/02/09_14:16:03,JV,59.86590755
,,,,,,practice_main,0,2,1,1068,11,F,0,right,0.513256274,1,0,,,,,,,,,,,,,,,,,,,,,1,,,,,,,,,,,,,,,,,,,,,,,,,,,,,,,,,,,,,,,,,,,,,,44,155620,18,Female,1,2024/02/09_14:16:03,JV,59.86590755
,,,,,,practice_main,0,2,1,1068,,,,,,,,0.916666667,0.666666667,0,1,0,1,0.63237132,2,0,0,0,0,8,10,3,8,0,,,,1,,,,,,,,,,,,,,,,,,,,,,,,,,,,,,,,,,,,,,,,,,,,,,44,155620,18,Female,1,2024/02/09_14:16:03,JV,59.86590755
,,,,,240209_150222,PRACTICE,0,2,1,1068,,,,,,,,,,,,,,,,,,,,,,,,,,,,1,10,3,2,cue2.png,easy,B,14,2.601537245,0,715.5229131,718.1460187,,,,,,,,,,,,,,,,,,,,,,,,,,,,,,,,,,,44,155620,18,Female,1,2024/02/09_14:16:03,JV,59.86590755
,,,,,,practice_main,0,3,1,1068,1,J,0,right,0.859903218,1,0,,,,,,,,,,,,,,,,,,,,,1,,,,,,,,,,,,,,,,,,,,,,,,,,,,,,,,,,,,,,,,,,,,,,44,155620,18,Female,1,2024/02/09_14:16:03,JV,59.86590755
,,,,,,practice_main,0,3,1,1068,2,J,1,left,0.544176643,1,0,,,,,,,,,,,,,,,,,,,,,1,,,,,,,,,,,,,,,,,,,,,,,,,,,,,,,,,,,,,,,,,,,,,,44,155620,18,Female,1,2024/02/09_14:16:03,JV,59.86590755
,,,,,,practice_main,0,3,1,1068,3,C,0,right,0.411955621,1,0,,,,,,,,,,,,,,,,,,,,,1,,,,,,,,,,,,,,,,,,,,,,,,,,,,,,,,,,,,,,,,,,,,,,44,155620,18,Female,1,2024/02/09_14:16:03,JV,59.86590755
,,,,,,practice_main,0,3,1,1068,4,V,0,right,0.498912143,1,0,,,,,,,,,,,,,,,,,,,,,1,,,,,,,,,,,,,,,,,,,,,,,,,,,,,,,,,,,,,,,,,,,,,,44,155620,18,Female,1,2024/02/09_14:16:03,JV,59.86590755
,,,,,,practice_main,0,3,1,1068,5,C,0,right,0.69923045,1,0,,,,,,,,,,,,,,,,,,,,,1,,,,,,,,,,,,,,,,,,,,,,,,,,,,,,,,,,,,,,,,,,,,,,44,155620,18,Female,1,2024/02/09_14:16:03,JV,59.86590755
,,,,,,practice_main,0,3,1,1068,6,C,1,right,0.677753113,0,0,,,,,,,,,,,,,,,,,,,,,1,,,,,,,,,,,,,,,,,,,,,,,,,,,,,,,,,,,,,,,,,,,,,,44,155620,18,Female,1,2024/02/09_14:16:03,JV,59.86590755
,,,,,,practice_main,0,3,1,1068,7,F,0,left,0.611667396,0,0,,,,,,,,,,,,,,,,,,,,,1,,,,,,,,,,,,,,,,,,,,,,,,,,,,,,,,,,,,,,,,,,,,,,44,155620,18,Female,1,2024/02/09_14:16:03,JV,59.86590755
,,,,,,practice_main,0,3,1,1068,8,V,0,right,0.311909147,1,0,,,,,,,,,,,,,,,,,,,,,1,,,,,,,,,,,,,,,,,,,,,,,,,,,,,,,,,,,,,,,,,,,,,,44,155620,18,Female,1,2024/02/09_14:16:03,JV,59.86590755
,,,,,,practice_main,0,3,1,1068,9,V,1,left,0.57272453,1,0,,,,,,,,,,,,,,,,,,,,,1,,,,,,,,,,,,,,,,,,,,,,,,,,,,,,,,,,,,,,,,,,,,,,44,155620,18,Female,1,2024/02/09_14:16:03,JV,59.86590755
,,,,,,practice_main,0,3,1,1068,10,Q,0,right,0.394985799,1,0,,,,,,,,,,,,,,,,,,,,,1,,,,,,,,,,,,,,,,,,,,,,,,,,,,,,,,,,,,,,,,,,,,,,44,155620,18,Female,1,2024/02/09_14:16:03,JV,59.86590755
,,,,,,practice_main,0,3,1,1068,11,X,0,right,0.485641733,1,0,,,,,,,,,,,,,,,,,,,,,1,,,,,,,,,,,,,,,,,,,,,,,,,,,,,,,,,,,,,,,,,,,,,,44,155620,18,Female,1,2024/02/09_14:16:03,JV,59.86590755
,,,,,,practice_main,0,3,1,1068,,,,,,,,0.84375,0.666666667,0.125,0.875,0,0.875,0.551714527,2,1,0,0,0,7,9,3,8,0,,,,1,,,,,,,,,,,,,,,,,,,,,,,,,,,,,,,,,,,,,,,,,,,,,,44,155620,18,Female,1,2024/02/09_14:16:03,JV,59.86590755
,,,,,240209_150245,PRACTICE,0,3,1,1068,,,,,,,,,,,,,,,,,,,,,,,,,,,,1,9,4,3,cue2.png,easy,B,3,2.068133226,0,740.0907719,742.1807504,,,,,,,,,,,,,,,,,,,,,,,,,,,,,,,,,,,44,155620,18,Female,1,2024/02/09_14:16:03,JV,59.86590755
-1,./instructions/inst_prac_end/Slide56.png,left,104.8536128,761.7330235,866.5866363,,,,,,,,,,,,,,,,,,,,,,,,,,,,,,,,,1,,,,,,,,,,,,,,,,,,,,,,,,,,,,,,,,,,,,,,,,,,,,,,44,155620,18,Female,1,2024/02/09_14:16:03,JV,59.86590755
1,./instructions/inst_test/Slide57.png,right,20.64151624,866.6250523,887.2665686,,,,,,,,,,,,,,,,,,,,,,,,,,,,,,,,,1,,,,,,,,,,,,,,,,,,,,,,,,,,,,,,,,,,,,,,,,,,,,,,44,155620,18,Female,1,2024/02/09_14:16:03,JV,59.86590755
,,,,,,test,1,1,1,1068,1,N,0,right,0.61415891,1,0,,,,,,,,,,,,,,,,,,,,,1,,,,,,,,,,,,,,,,,,,,,,,,,,,,,,,,,,,,,,,,,,,,,,44,155620,18,Female,1,2024/02/09_14:16:03,JV,59.86590755
,,,,,,test,1,1,1,1068,2,F,0,right,0.467163379,1,0,,,,,,,,,,,,,,,,,,,,,1,,,,,,,,,,,,,,,,,,,,,,,,,,,,,,,,,,,,,,,,,,,,,,44,155620,18,Female,1,2024/02/09_14:16:03,JV,59.86590755
,,,,,,test,1,1,1,1068,3,Q,0,right,0.46958943,1,0,,,,,,,,,,,,,,,,,,,,,1,,,,,,,,,,,,,,,,,,,,,,,,,,,,,,,,,,,,,,,,,,,,,,44,155620,18,Female,1,2024/02/09_14:16:03,JV,59.86590755
,,,,,,test,1,1,1,1068,4,N,0,right,0.613724967,1,0,,,,,,,,,,,,,,,,,,,,,1,,,,,,,,,,,,,,,,,,,,,,,,,,,,,,,,,,,,,,,,,,,,,,44,155620,18,Female,1,2024/02/09_14:16:03,JV,59.86590755
,,,,,,test,1,1,1,1068,5,N,1,left,0.379732641,1,0,,,,,,,,,,,,,,,,,,,,,1,,,,,,,,,,,,,,,,,,,,,,,,,,,,,,,,,,,,,,,,,,,,,,44,155620,18,Female,1,2024/02/09_14:16:03,JV,59.86590755
,,,,,,test,1,1,1,1068,6,S,0,right,0.382048059,1,0,,,,,,,,,,,,,,,,,,,,,1,,,,,,,,,,,,,,,,,,,,,,,,,,,,,,,,,,,,,,,,,,,,,,44,155620,18,Female,1,2024/02/09_14:16:03,JV,59.86590755
,,,,,,test,1,1,1,1068,7,Q,0,right,0.418702911,1,0,,,,,,,,,,,,,,,,,,,,,1,,,,,,,,,,,,,,,,,,,,,,,,,,,,,,,,,,,,,,,,,,,,,,44,155620,18,Female,1,2024/02/09_14:16:03,JV,59.86590755
,,,,,,test,1,1,1,1068,8,Q,1,left,0.413809724,1,0,,,,,,,,,,,,,,,,,,,,,1,,,,,,,,,,,,,,,,,,,,,,,,,,,,,,,,,,,,,,,,,,,,,,44,155620,18,Female,1,2024/02/09_14:16:03,JV,59.86590755
,,,,,,test,1,1,1,1068,9,F,0,right,0.377794461,1,0,,,,,,,,,,,,,,,,,,,,,1,,,,,,,,,,,,,,,,,,,,,,,,,,,,,,,,,,,,,,,,,,,,,,44,155620,18,Female,1,2024/02/09_14:16:03,JV,59.86590755
,,,,,,test,1,1,1,1068,10,S,0,right,0.374331179,1,0,,,,,,,,,,,,,,,,,,,,,1,,,,,,,,,,,,,,,,,,,,,,,,,,,,,,,,,,,,,,,,,,,,,,44,155620,18,Female,1,2024/02/09_14:16:03,JV,59.86590755
,,,,,,test,1,1,1,1068,11,S,1,left,0.453957176,1,0,,,,,,,,,,,,,,,,,,,,,1,,,,,,,,,,,,,,,,,,,,,,,,,,,,,,,,,,,,,,,,,,,,,,44,155620,18,Female,1,2024/02/09_14:16:03,JV,59.86590755
,,,,,,Test,1,1,1,1068,,,,,,,,1,1,0,1,0,1,0.451364803,3,0,0,0,0,8,11,3,8,0,,,,1,,,,,,,,,,,,,,,,,,,,,,,,,,,,,,,,,,,,,,,,,,,,,,44,155620,18,Female,1,2024/02/09_14:16:03,JV,59.86590755
,,,,,240209_150515,TEST,1,1,1,1068,,,,,,,,,,,,,,,,,,,,,,,,,,,,1,1,1,1,cue2.png,easy,B,32,1.484804362,0,892.3171862,893.8221494,,,,,,,,,,,,,,,,,,,,,,,,,,,,,,,,,,,44,155620,18,Female,1,2024/02/09_14:16:03,JV,59.86590755
,,,,,,test,1,2,3,1068,1,J,0,right,1.142897655,1,0,,,,,,,,,,,,,,,,,,,,,1,,,,,,,,,,,,,,,,,,,,,,,,,,,,,,,,,,,,,,,,,,,,,,44,155620,18,Female,1,2024/02/09_14:16:03,JV,59.86590755
,,,,,,test,1,2,3,1068,2,V,0,right,0.452074927,1,0,,,,,,,,,,,,,,,,,,,,,1,,,,,,,,,,,,,,,,,,,,,,,,,,,,,,,,,,,,,,,,,,,,,,44,155620,18,Female,1,2024/02/09_14:16:03,JV,59.86590755
,,,,,,test,1,2,3,1068,3,N,0,right,0.485855259,1,0,,,,,,,,,,,,,,,,,,,,,1,,,,,,,,,,,,,,,,,,,,,,,,,,,,,,,,,,,,,,,,,,,,,,44,155620,18,Female,1,2024/02/09_14:16:03,JV,59.86590755
,,,,,,test,1,2,3,1068,4,Q,0,right,1.017445387,1,0,,,,,,,,,,,,,,,,,,,,,1,,,,,,,,,,,,,,,,,,,,,,,,,,,,,,,,,,,,,,,,,,,,,,44,155620,18,Female,1,2024/02/09_14:16:03,JV,59.86590755
,,,,,,test,1,2,3,1068,5,Q,0,right,1.212538677,1,0,,,,,,,,,,,,,,,,,,,,,1,,,,,,,,,,,,,,,,,,,,,,,,,,,,,,,,,,,,,,,,,,,,,,44,155620,18,Female,1,2024/02/09_14:16:03,JV,59.86590755
,,,,,,test,1,2,3,1068,6,N,1,left,0.97874167,1,0,,,,,,,,,,,,,,,,,,,,,1,,,,,,,,,,,,,,,,,,,,,,,,,,,,,,,,,,,,,,,,,,,,,,44,155620,18,Female,1,2024/02/09_14:16:03,JV,59.86590755
,,,,,,test,1,2,3,1068,7,F,0,right,0.373872101,1,0,,,,,,,,,,,,,,,,,,,,,1,,,,,,,,,,,,,,,,,,,,,,,,,,,,,,,,,,,,,,,,,,,,,,44,155620,18,Female,1,2024/02/09_14:16:03,JV,59.86590755
,,,,,,test,1,2,3,1068,8,Q,1,right,0.494369674,0,0,,,,,,,,,,,,,,,,,,,,,1,,,,,,,,,,,,,,,,,,,,,,,,,,,,,,,,,,,,,,,,,,,,,,44,155620,18,Female,1,2024/02/09_14:16:03,JV,59.86590755
,,,,,,test,1,2,3,1068,9,N,1,left,1.043408496,1,0,,,,,,,,,,,,,,,,,,,,,1,,,,,,,,,,,,,,,,,,,,,,,,,,,,,,,,,,,,,,,,,,,,,,44,155620,18,Female,1,2024/02/09_14:16:03,JV,59.86590755
,,,,,,test,1,2,3,1068,10,C,0,right,0.387232086,1,0,,,,,,,,,,,,,,,,,,,,,1,,,,,,,,,,,,,,,,,,,,,,,,,,,,,,,,,,,,,,,,,,,,,,44,155620,18,Female,1,2024/02/09_14:16:03,JV,59.86590755
,,,,,,test,1,2,3,1068,11,C,0,right,0.399664736,1,0,,,,,,,,,,,,,,,,,,,,,1,,,,,,,,,,,,,,,,,,,,,,,,,,,,,,,,,,,,,,,,,,,,,,44,155620,18,Female,1,2024/02/09_14:16:03,JV,59.86590755
,,,,,,Test,1,2,3,1068,,,,,,,,0.916666667,0.666666667,0,1,0,1,0.72619097,2,0,0,0,0,8,10,3,8,0,,,,1,,,,,,,,,,,,,,,,,,,,,,,,,,,,,,,,,,,,,,,,,,,,,,44,155620,18,Female,1,2024/02/09_14:16:03,JV,59.86590755
,,,,,240209_150540,TEST,1,2,3,1068,,,,,,,,,,,,,,,,,,,,,,,,,,,,1,2,2,2,cue1.png,hard,B,24,1.819691023,0,913.7486474,915.5897003,,,,,,,,,,,,,,,,,,,,,,,,,,,,,,,,,,,44,155620,18,Female,1,2024/02/09_14:16:03,JV,59.86590755
,,,,,,test,1,3,3,1068,1,X,0,right,0.578048943,1,0,,,,,,,,,,,,,,,,,,,,,1,,,,,,,,,,,,,,,,,,,,,,,,,,,,,,,,,,,,,,,,,,,,,,44,155620,18,Female,1,2024/02/09_14:16:03,JV,59.86590755
,,,,,,test,1,3,3,1068,2,F,0,right,0.376191124,1,0,,,,,,,,,,,,,,,,,,,,,1,,,,,,,,,,,,,,,,,,,,,,,,,,,,,,,,,,,,,,,,,,,,,,44,155620,18,Female,1,2024/02/09_14:16:03,JV,59.86590755
,,,,,,test,1,3,3,1068,3,F,0,right,0.448473968,1,0,,,,,,,,,,,,,,,,,,,,,1,,,,,,,,,,,,,,,,,,,,,,,,,,,,,,,,,,,,,,,,,,,,,,44,155620,18,Female,1,2024/02/09_14:16:03,JV,59.86590755
,,,,,,test,1,3,3,1068,4,Q,0,right,0.534563226,1,0,,,,,,,,,,,,,,,,,,,,,1,,,,,,,,,,,,,,,,,,,,,,,,,,,,,,,,,,,,,,,,,,,,,,44,155620,18,Female,1,2024/02/09_14:16:03,JV,59.86590755
,,,,,,test,1,3,3,1068,5,N,0,right,0.446749447,1,0,,,,,,,,,,,,,,,,,,,,,1,,,,,,,,,,,,,,,,,,,,,,,,,,,,,,,,,,,,,,,,,,,,,,44,155620,18,Female,1,2024/02/09_14:16:03,JV,59.86590755
,,,,,,test,1,3,3,1068,6,F,1,left,0.444077315,1,0,,,,,,,,,,,,,,,,,,,,,1,,,,,,,,,,,,,,,,,,,,,,,,,,,,,,,,,,,,,,,,,,,,,,44,155620,18,Female,1,2024/02/09_14:16:03,JV,59.86590755
,,,,,,test,1,3,3,1068,7,Q,1,right,0.383956867,0,0,,,,,,,,,,,,,,,,,,,,,1,,,,,,,,,,,,,,,,,,,,,,,,,,,,,,,,,,,,,,,,,,,,,,44,155620,18,Female,1,2024/02/09_14:16:03,JV,59.86590755
,,,,,,test,1,3,3,1068,8,C,0,right,0.513004694,1,0,,,,,,,,,,,,,,,,,,,,,1,,,,,,,,,,,,,,,,,,,,,,,,,,,,,,,,,,,,,,,,,,,,,,44,155620,18,Female,1,2024/02/09_14:16:03,JV,59.86590755
,,,,,,test,1,3,3,1068,9,J,0,right,0.477334371,1,0,,,,,,,,,,,,,,,,,,,,,1,,,,,,,,,,,,,,,,,,,,,,,,,,,,,,,,,,,,,,,,,,,,,,44,155620,18,Female,1,2024/02/09_14:16:03,JV,59.86590755
,,,,,,test,1,3,3,1068,10,J,0,right,0.573900085,1,0,,,,,,,,,,,,,,,,,,,,,1,,,,,,,,,,,,,,,,,,,,,,,,,,,,,,,,,,,,,,,,,,,,,,44,155620,18,Female,1,2024/02/09_14:16:03,JV,59.86590755
,,,,,,test,1,3,3,1068,11,C,1,left,0.612254775,1,0,,,,,,,,,,,,,,,,,,,,,1,,,,,,,,,,,,,,,,,,,,,,,,,,,,,,,,,,,,,,,,,,,,,,44,155620,18,Female,1,2024/02/09_14:16:03,JV,59.86590755
,,,,,,Test,1,3,3,1068,,,,,,,,0.916666667,0.666666667,0,1,0,1,0.48986862,2,0,0,0,0,8,10,3,8,0,,,,1,,,,,,,,,,,,,,,,,,,,,,,,,,,,,,,,,,,,,,,,,,,,,,44,155620,18,Female,1,2024/02/09_14:16:03,JV,59.86590755
,,,,,240209_150602,TEST,1,3,3,1068,,,,,,,,,,,,,,,,,,,,,,,,,,,,1,3,3,3,cue1.png,hard,B,19,1.87009853,0,938.532777,940.424441,,,,,,,,,,,,,,,,,,,,,,,,,,,,,,,,,,,44,155620,18,Female,1,2024/02/09_14:16:03,JV,59.86590755
,,,,,,test,1,4,3,1068,1,C,0,right,0.481164791,1,0,,,,,,,,,,,,,,,,,,,,,1,,,,,,,,,,,,,,,,,,,,,,,,,,,,,,,,,,,,,,,,,,,,,,44,155620,18,Female,1,2024/02/09_14:16:03,JV,59.86590755
,,,,,,test,1,4,3,1068,2,X,0,right,0.409145216,1,0,,,,,,,,,,,,,,,,,,,,,1,,,,,,,,,,,,,,,,,,,,,,,,,,,,,,,,,,,,,,,,,,,,,,44,155620,18,Female,1,2024/02/09_14:16:03,JV,59.86590755
,,,,,,test,1,4,3,1068,3,Q,0,right,0.447048845,1,0,,,,,,,,,,,,,,,,,,,,,1,,,,,,,,,,,,,,,,,,,,,,,,,,,,,,,,,,,,,,,,,,,,,,44,155620,18,Female,1,2024/02/09_14:16:03,JV,59.86590755
,,,,,,test,1,4,3,1068,4,Q,0,right,0.678867064,1,0,,,,,,,,,,,,,,,,,,,,,1,,,,,,,,,,,,,,,,,,,,,,,,,,,,,,,,,,,,,,,,,,,,,,44,155620,18,Female,1,2024/02/09_14:16:03,JV,59.86590755
,,,,,,test,1,4,3,1068,5,X,1,left,0.749514084,1,0,,,,,,,,,,,,,,,,,,,,,1,,,,,,,,,,,,,,,,,,,,,,,,,,,,,,,,,,,,,,,,,,,,,,44,155620,18,Female,1,2024/02/09_14:16:03,JV,59.86590755
,,,,,,test,1,4,3,1068,6,J,0,right,0.300229367,1,0,,,,,,,,,,,,,,,,,,,,,1,,,,,,,,,,,,,,,,,,,,,,,,,,,,,,,,,,,,,,,,,,,,,,44,155620,18,Female,1,2024/02/09_14:16:03,JV,59.86590755
,,,,,,test,1,4,3,1068,7,S,0,right,0.350629315,1,0,,,,,,,,,,,,,,,,,,,,,1,,,,,,,,,,,,,,,,,,,,,,,,,,,,,,,,,,,,,,,,,,,,,,44,155620,18,Female,1,2024/02/09_14:16:03,JV,59.86590755
,,,,,,test,1,4,3,1068,8,X,1,right,0.314372903,0,0,,,,,,,,,,,,,,,,,,,,,1,,,,,,,,,,,,,,,,,,,,,,,,,,,,,,,,,,,,,,,,,,,,,,44,155620,18,Female,1,2024/02/09_14:16:03,JV,59.86590755
,,,,,,test,1,4,3,1068,9,J,1,right,0.696887539,0,0,,,,,,,,,,,,,,,,,,,,,1,,,,,,,,,,,,,,,,,,,,,,,,,,,,,,,,,,,,,,,,,,,,,,44,155620,18,Female,1,2024/02/09_14:16:03,JV,59.86590755
,,,,,,test,1,4,3,1068,10,Q,0,right,0.432046084,1,0,,,,,,,,,,,,,,,,,,,,,1,,,,,,,,,,,,,,,,,,,,,,,,,,,,,,,,,,,,,,,,,,,,,,44,155620,18,Female,1,2024/02/09_14:16:03,JV,59.86590755
,,,,,,test,1,4,3,1068,11,F,0,right,0.350468251,1,0,,,,,,,,,,,,,,,,,,,,,1,,,,,,,,,,,,,,,,,,,,,,,,,,,,,,,,,,,,,,,,,,,,,,44,155620,18,Female,1,2024/02/09_14:16:03,JV,59.86590755
,,,,,,Test,1,4,3,1068,,,,,,,,0.833333333,0.333333333,0,1,0,1,0.473670314,1,0,0,0,0,8,9,3,8,0,,,,1,,,,,,,,,,,,,,,,,,,,,,,,,,,,,,,,,,,,,,,,,,,,,,44,155620,18,Female,1,2024/02/09_14:16:03,JV,59.86590755
,,,,,240209_150625,TEST,1,4,3,1068,,,,,,,,,,,,,,,,,,,,,,,,,,,,1,4,4,4,cue1.png,hard,B,18,2.334515806,0,960.7677,963.1234622,,,,,,,,,,,,,,,,,,,,,,,,,,,,,,,,,,,44,155620,18,Female,1,2024/02/09_14:16:03,JV,59.86590755
,,,,,,test,1,5,1,1068,1,V,0,right,0.493750548,1,0,,,,,,,,,,,,,,,,,,,,,1,,,,,,,,,,,,,,,,,,,,,,,,,,,,,,,,,,,,,,,,,,,,,,44,155620,18,Female,1,2024/02/09_14:16:03,JV,59.86590755
,,,,,,test,1,5,1,1068,2,V,1,right,0.576484399,0,0,,,,,,,,,,,,,,,,,,,,,1,,,,,,,,,,,,,,,,,,,,,,,,,,,,,,,,,,,,,,,,,,,,,,44,155620,18,Female,1,2024/02/09_14:16:03,JV,59.86590755
,,,,,,test,1,5,1,1068,3,Q,0,right,0.385712675,1,0,,,,,,,,,,,,,,,,,,,,,1,,,,,,,,,,,,,,,,,,,,,,,,,,,,,,,,,,,,,,,,,,,,,,44,155620,18,Female,1,2024/02/09_14:16:03,JV,59.86590755
,,,,,,test,1,5,1,1068,4,C,0,right,0.496357134,1,0,,,,,,,,,,,,,,,,,,,,,1,,,,,,,,,,,,,,,,,,,,,,,,,,,,,,,,,,,,,,,,,,,,,,44,155620,18,Female,1,2024/02/09_14:16:03,JV,59.86590755
,,,,,,test,1,5,1,1068,5,S,0,right,0.447151798,1,0,,,,,,,,,,,,,,,,,,,,,1,,,,,,,,,,,,,,,,,,,,,,,,,,,,,,,,,,,,,,,,,,,,,,44,155620,18,Female,1,2024/02/09_14:16:03,JV,59.86590755
,,,,,,test,1,5,1,1068,6,S,1,left,0.407570033,1,0,,,,,,,,,,,,,,,,,,,,,1,,,,,,,,,,,,,,,,,,,,,,,,,,,,,,,,,,,,,,,,,,,,,,44,155620,18,Female,1,2024/02/09_14:16:03,JV,59.86590755
,,,,,,test,1,5,1,1068,7,J,0,right,0.317896443,1,0,,,,,,,,,,,,,,,,,,,,,1,,,,,,,,,,,,,,,,,,,,,,,,,,,,,,,,,,,,,,,,,,,,,,44,155620,18,Female,1,2024/02/09_14:16:03,JV,59.86590755
,,,,,,test,1,5,1,1068,8,V,0,right,0.429424824,1,0,,,,,,,,,,,,,,,,,,,,,1,,,,,,,,,,,,,,,,,,,,,,,,,,,,,,,,,,,,,,,,,,,,,,44,155620,18,Female,1,2024/02/09_14:16:03,JV,59.86590755
,,,,,,test,1,5,1,1068,9,N,0,right,0.334639447,1,0,,,,,,,,,,,,,,,,,,,,,1,,,,,,,,,,,,,,,,,,,,,,,,,,,,,,,,,,,,,,,,,,,,,,44,155620,18,Female,1,2024/02/09_14:16:03,JV,59.86590755
,,,,,,test,1,5,1,1068,10,N,1,left,0.775757792,1,0,,,,,,,,,,,,,,,,,,,,,1,,,,,,,,,,,,,,,,,,,,,,,,,,,,,,,,,,,,,,,,,,,,,,44,155620,18,Female,1,2024/02/09_14:16:03,JV,59.86590755
,,,,,,test,1,5,1,1068,11,V,0,right,0.412000022,1,0,,,,,,,,,,,,,,,,,,,,,1,,,,,,,,,,,,,,,,,,,,,,,,,,,,,,,,,,,,,,,,,,,,,,44,155620,18,Female,1,2024/02/09_14:16:03,JV,59.86590755
,,,,,,Test,1,5,1,1068,,,,,,,,0.916666667,0.666666667,0,1,0,1,0.461522283,2,0,0,0,0,8,10,3,8,0,,,,1,,,,,,,,,,,,,,,,,,,,,,,,,,,,,,,,,,,,,,,,,,,,,,44,155620,18,Female,1,2024/02/09_14:16:03,JV,59.86590755
,,,,,240209_150646,TEST,1,5,1,1068,,,,,,,,,,,,,,,,,,,,,,,,,,,,1,5,5,5,cue2.png,easy,B,16,1.320480675,0,983.2661448,984.6067576,,,,,,,,,,,,,,,,,,,,,,,,,,,,,,,,,,,44,155620,18,Female,1,2024/02/09_14:16:03,JV,59.86590755
,,,,,,test,1,6,3,1068,1,J,0,right,0.845026576,1,0,,,,,,,,,,,,,,,,,,,,,1,,,,,,,,,,,,,,,,,,,,,,,,,,,,,,,,,,,,,,,,,,,,,,44,155620,18,Female,1,2024/02/09_14:16:03,JV,59.86590755
,,,,,,test,1,6,3,1068,2,N,0,right,0.377390115,1,0,,,,,,,,,,,,,,,,,,,,,1,,,,,,,,,,,,,,,,,,,,,,,,,,,,,,,,,,,,,,,,,,,,,,44,155620,18,Female,1,2024/02/09_14:16:03,JV,59.86590755
,,,,,,test,1,6,3,1068,3,S,0,right,0.387077361,1,0,,,,,,,,,,,,,,,,,,,,,1,,,,,,,,,,,,,,,,,,,,,,,,,,,,,,,,,,,,,,,,,,,,,,44,155620,18,Female,1,2024/02/09_14:16:03,JV,59.86590755
,,,,,,test,1,6,3,1068,4,X,0,right,0.513309212,1,0,,,,,,,,,,,,,,,,,,,,,1,,,,,,,,,,,,,,,,,,,,,,,,,,,,,,,,,,,,,,,,,,,,,,44,155620,18,Female,1,2024/02/09_14:16:03,JV,59.86590755
,,,,,,test,1,6,3,1068,5,N,1,left,0.484306494,1,0,,,,,,,,,,,,,,,,,,,,,1,,,,,,,,,,,,,,,,,,,,,,,,,,,,,,,,,,,,,,,,,,,,,,44,155620,18,Female,1,2024/02/09_14:16:03,JV,59.86590755
,,,,,,test,1,6,3,1068,6,S,1,right,0.714654273,0,0,,,,,,,,,,,,,,,,,,,,,1,,,,,,,,,,,,,,,,,,,,,,,,,,,,,,,,,,,,,,,,,,,,,,44,155620,18,Female,1,2024/02/09_14:16:03,JV,59.86590755
,,,,,,test,1,6,3,1068,7,N,0,left,0.646733739,0,0,,,,,,,,,,,,,,,,,,,,,1,,,,,,,,,,,,,,,,,,,,,,,,,,,,,,,,,,,,,,,,,,,,,,44,155620,18,Female,1,2024/02/09_14:16:03,JV,59.86590755
,,,,,,test,1,6,3,1068,8,Q,0,right,0.288978251,1,0,,,,,,,,,,,,,,,,,,,,,1,,,,,,,,,,,,,,,,,,,,,,,,,,,,,,,,,,,,,,,,,,,,,,44,155620,18,Female,1,2024/02/09_14:16:03,JV,59.86590755
,,,,,,test,1,6,3,1068,9,S,1,right,0.382730207,0,0,,,,,,,,,,,,,,,,,,,,,1,,,,,,,,,,,,,,,,,,,,,,,,,,,,,,,,,,,,,,,,,,,,,,44,155620,18,Female,1,2024/02/09_14:16:03,JV,59.86590755
,,,,,,test,1,6,3,1068,10,J,0,right,0.550898327,1,0,,,,,,,,,,,,,,,,,,,,,1,,,,,,,,,,,,,,,,,,,,,,,,,,,,,,,,,,,,,,,,,,,,,,44,155620,18,Female,1,2024/02/09_14:16:03,JV,59.86590755
,,,,,,test,1,6,3,1068,11,S,0,right,0.812534331,1,0,,,,,,,,,,,,,,,,,,,,,1,,,,,,,,,,,,,,,,,,,,,,,,,,,,,,,,,,,,,,,,,,,,,,44,155620,18,Female,1,2024/02/09_14:16:03,JV,59.86590755
,,,,,,Test,1,6,3,1068,,,,,,,,0.708333333,0.333333333,0.125,0.875,0,0.875,0.545785353,1,1,0,0,0,7,8,3,8,0,,,,1,,,,,,,,,,,,,,,,,,,,,,,,,,,,,,,,,,,,,,,,,,,,,,44,155620,18,Female,1,2024/02/09_14:16:03,JV,59.86590755
,,,,,240209_150710,TEST,1,6,3,1068,,,,,,,,,,,,,,,,,,,,,,,,,,,,1,6,6,6,cue1.png,hard,B,28,2.486025861,0,1004.582153,1007.088962,,,,,,,,,,,,,,,,,,,,,,,,,,,,,,,,,,,44,155620,18,Female,1,2024/02/09_14:16:03,JV,59.86590755
,,,,,,test,1,7,3,1068,1,C,0,right,0.493345114,1,0,,,,,,,,,,,,,,,,,,,,,1,,,,,,,,,,,,,,,,,,,,,,,,,,,,,,,,,,,,,,,,,,,,,,44,155620,18,Female,1,2024/02/09_14:16:03,JV,59.86590755
,,,,,,test,1,7,3,1068,2,X,0,right,0.419542217,1,0,,,,,,,,,,,,,,,,,,,,,1,,,,,,,,,,,,,,,,,,,,,,,,,,,,,,,,,,,,,,,,,,,,,,44,155620,18,Female,1,2024/02/09_14:16:03,JV,59.86590755
,,,,,,test,1,7,3,1068,3,F,0,right,0.358104631,1,0,,,,,,,,,,,,,,,,,,,,,1,,,,,,,,,,,,,,,,,,,,,,,,,,,,,,,,,,,,,,,,,,,,,,44,155620,18,Female,1,2024/02/09_14:16:03,JV,59.86590755
,,,,,,test,1,7,3,1068,4,F,0,right,0.448571666,1,0,,,,,,,,,,,,,,,,,,,,,1,,,,,,,,,,,,,,,,,,,,,,,,,,,,,,,,,,,,,,,,,,,,,,44,155620,18,Female,1,2024/02/09_14:16:03,JV,59.86590755
,,,,,,test,1,7,3,1068,5,V,0,right,0.500539776,1,0,,,,,,,,,,,,,,,,,,,,,1,,,,,,,,,,,,,,,,,,,,,,,,,,,,,,,,,,,,,,,,,,,,,,44,155620,18,Female,1,2024/02/09_14:16:03,JV,59.86590755
,,,,,,test,1,7,3,1068,6,F,1,left,0.628904166,1,0,,,,,,,,,,,,,,,,,,,,,1,,,,,,,,,,,,,,,,,,,,,,,,,,,,,,,,,,,,,,,,,,,,,,44,155620,18,Female,1,2024/02/09_14:16:03,JV,59.86590755
,,,,,,test,1,7,3,1068,7,Q,0,right,0.298584381,1,0,,,,,,,,,,,,,,,,,,,,,1,,,,,,,,,,,,,,,,,,,,,,,,,,,,,,,,,,,,,,,,,,,,,,44,155620,18,Female,1,2024/02/09_14:16:03,JV,59.86590755
,,,,,,test,1,7,3,1068,8,X,0,right,0.353997752,1,0,,,,,,,,,,,,,,,,,,,,,1,,,,,,,,,,,,,,,,,,,,,,,,,,,,,,,,,,,,,,,,,,,,,,44,155620,18,Female,1,2024/02/09_14:16:03,JV,59.86590755
,,,,,,test,1,7,3,1068,9,F,1,right,0.411453313,0,0,,,,,,,,,,,,,,,,,,,,,1,,,,,,,,,,,,,,,,,,,,,,,,,,,,,,,,,,,,,,,,,,,,,,44,155620,18,Female,1,2024/02/09_14:16:03,JV,59.86590755
,,,,,,test,1,7,3,1068,10,C,0,right,0.468161368,1,0,,,,,,,,,,,,,,,,,,,,,1,,,,,,,,,,,,,,,,,,,,,,,,,,,,,,,,,,,,,,,,,,,,,,44,155620,18,Female,1,2024/02/09_14:16:03,JV,59.86590755
,,,,,,test,1,7,3,1068,11,X,1,right,0.422362583,0,0,,,,,,,,,,,,,,,,,,,,,1,,,,,,,,,,,,,,,,,,,,,,,,,,,,,,,,,,,,,,,,,,,,,,44,155620,18,Female,1,2024/02/09_14:16:03,JV,59.86590755
,,,,,,Test,1,7,3,1068,,,,,,,,0.833333333,0.333333333,0,1,0,1,0.436687906,1,0,0,0,0,8,9,3,8,0,,,,1,,,,,,,,,,,,,,,,,,,,,,,,,,,,,,,,,,,,,,,,,,,,,,44,155620,18,Female,1,2024/02/09_14:16:03,JV,59.86590755
,,,,,240209_150730,TEST,1,7,3,1068,,,,,,,,,,,,,,,,,,,,,,,,,,,,1,7,7,7,cue1.png,hard,B,27,1.136426291,0,1028.064831,1029.223209,,,,,,,,,,,,,,,,,,,,,,,,,,,,,,,,,,,44,155620,18,Female,1,2024/02/09_14:16:03,JV,59.86590755
,,,,,,test,1,8,1,1068,1,V,0,right,0.371862772,1,0,,,,,,,,,,,,,,,,,,,,,1,,,,,,,,,,,,,,,,,,,,,,,,,,,,,,,,,,,,,,,,,,,,,,44,155620,18,Female,1,2024/02/09_14:16:03,JV,59.86590755
,,,,,,test,1,8,1,1068,2,X,0,right,0.423010341,1,0,,,,,,,,,,,,,,,,,,,,,1,,,,,,,,,,,,,,,,,,,,,,,,,,,,,,,,,,,,,,,,,,,,,,44,155620,18,Female,1,2024/02/09_14:16:03,JV,59.86590755
,,,,,,test,1,8,1,1068,3,X,1,left,0.472664401,1,0,,,,,,,,,,,,,,,,,,,,,1,,,,,,,,,,,,,,,,,,,,,,,,,,,,,,,,,,,,,,,,,,,,,,44,155620,18,Female,1,2024/02/09_14:16:03,JV,59.86590755
,,,,,,test,1,8,1,1068,4,F,0,right,0.383871544,1,0,,,,,,,,,,,,,,,,,,,,,1,,,,,,,,,,,,,,,,,,,,,,,,,,,,,,,,,,,,,,,,,,,,,,44,155620,18,Female,1,2024/02/09_14:16:03,JV,59.86590755
,,,,,,test,1,8,1,1068,5,X,0,right,0.430226654,1,0,,,,,,,,,,,,,,,,,,,,,1,,,,,,,,,,,,,,,,,,,,,,,,,,,,,,,,,,,,,,,,,,,,,,44,155620,18,Female,1,2024/02/09_14:16:03,JV,59.86590755
,,,,,,test,1,8,1,1068,6,F,0,right,0.709369857,1,0,,,,,,,,,,,,,,,,,,,,,1,,,,,,,,,,,,,,,,,,,,,,,,,,,,,,,,,,,,,,,,,,,,,,44,155620,18,Female,1,2024/02/09_14:16:03,JV,59.86590755
,,,,,,test,1,8,1,1068,7,F,1,left,0.580170289,1,0,,,,,,,,,,,,,,,,,,,,,1,,,,,,,,,,,,,,,,,,,,,,,,,,,,,,,,,,,,,,,,,,,,,,44,155620,18,Female,1,2024/02/09_14:16:03,JV,59.86590755
,,,,,,test,1,8,1,1068,8,N,0,right,0.316259964,1,0,,,,,,,,,,,,,,,,,,,,,1,,,,,,,,,,,,,,,,,,,,,,,,,,,,,,,,,,,,,,,,,,,,,,44,155620,18,Female,1,2024/02/09_14:16:03,JV,59.86590755
,,,,,,test,1,8,1,1068,9,C,0,right,0.395474945,1,0,,,,,,,,,,,,,,,,,,,,,1,,,,,,,,,,,,,,,,,,,,,,,,,,,,,,,,,,,,,,,,,,,,,,44,155620,18,Female,1,2024/02/09_14:16:03,JV,59.86590755
,,,,,,test,1,8,1,1068,10,X,0,right,0.333372511,1,0,,,,,,,,,,,,,,,,,,,,,1,,,,,,,,,,,,,,,,,,,,,,,,,,,,,,,,,,,,,,,,,,,,,,44,155620,18,Female,1,2024/02/09_14:16:03,JV,59.86590755
,,,,,,test,1,8,1,1068,11,X,1,left,0.398368727,1,0,,,,,,,,,,,,,,,,,,,,,1,,,,,,,,,,,,,,,,,,,,,,,,,,,,,,,,,,,,,,,,,,,,,,44,155620,18,Female,1,2024/02/09_14:16:03,JV,59.86590755
,,,,,,Test,1,8,1,1068,,,,,,,,1,1,0,1,0,1,0.437695637,3,0,0,0,0,8,11,3,8,0,,,,1,,,,,,,,,,,,,,,,,,,,,,,,,,,,,,,,,,,,,,,,,,,,,,44,155620,18,Female,1,2024/02/09_14:16:03,JV,59.86590755
,,,,,240209_150752,TEST,1,8,1,1068,,,,,,,,,,,,,,,,,,,,,,,,,,,,1,8,8,8,cue2.png,easy,B,20,1.92021614,0,1048.930236,1050.871339,,,,,,,,,,,,,,,,,,,,,,,,,,,,,,,,,,,44,155620,18,Female,1,2024/02/09_14:16:03,JV,59.86590755
,,,,,,test,1,9,1,1068,1,C,0,right,0.460185808,1,0,,,,,,,,,,,,,,,,,,,,,1,,,,,,,,,,,,,,,,,,,,,,,,,,,,,,,,,,,,,,,,,,,,,,44,155620,18,Female,1,2024/02/09_14:16:03,JV,59.86590755
,,,,,,test,1,9,1,1068,2,C,1,right,0.558036025,0,0,,,,,,,,,,,,,,,,,,,,,1,,,,,,,,,,,,,,,,,,,,,,,,,,,,,,,,,,,,,,,,,,,,,,44,155620,18,Female,1,2024/02/09_14:16:03,JV,59.86590755
,,,,,,test,1,9,1,1068,3,V,0,right,0.579737787,1,0,,,,,,,,,,,,,,,,,,,,,1,,,,,,,,,,,,,,,,,,,,,,,,,,,,,,,,,,,,,,,,,,,,,,44,155620,18,Female,1,2024/02/09_14:16:03,JV,59.86590755
,,,,,,test,1,9,1,1068,4,Q,0,right,0.447571861,1,0,,,,,,,,,,,,,,,,,,,,,1,,,,,,,,,,,,,,,,,,,,,,,,,,,,,,,,,,,,,,,,,,,,,,44,155620,18,Female,1,2024/02/09_14:16:03,JV,59.86590755
,,,,,,test,1,9,1,1068,5,N,0,right,0.459640848,1,0,,,,,,,,,,,,,,,,,,,,,1,,,,,,,,,,,,,,,,,,,,,,,,,,,,,,,,,,,,,,,,,,,,,,44,155620,18,Female,1,2024/02/09_14:16:03,JV,59.86590755
,,,,,,test,1,9,1,1068,6,F,0,right,0.459546782,1,0,,,,,,,,,,,,,,,,,,,,,1,,,,,,,,,,,,,,,,,,,,,,,,,,,,,,,,,,,,,,,,,,,,,,44,155620,18,Female,1,2024/02/09_14:16:03,JV,59.86590755
,,,,,,test,1,9,1,1068,7,J,0,right,0.491574003,1,0,,,,,,,,,,,,,,,,,,,,,1,,,,,,,,,,,,,,,,,,,,,,,,,,,,,,,,,,,,,,,,,,,,,,44,155620,18,Female,1,2024/02/09_14:16:03,JV,59.86590755
,,,,,,test,1,9,1,1068,8,C,0,right,0.464854493,1,0,,,,,,,,,,,,,,,,,,,,,1,,,,,,,,,,,,,,,,,,,,,,,,,,,,,,,,,,,,,,,,,,,,,,44,155620,18,Female,1,2024/02/09_14:16:03,JV,59.86590755
,,,,,,test,1,9,1,1068,9,C,1,left,0.591629439,1,0,,,,,,,,,,,,,,,,,,,,,1,,,,,,,,,,,,,,,,,,,,,,,,,,,,,,,,,,,,,,,,,,,,,,44,155620,18,Female,1,2024/02/09_14:16:03,JV,59.86590755
,,,,,,test,1,9,1,1068,10,Q,0,right,0.382086261,1,0,,,,,,,,,,,,,,,,,,,,,1,,,,,,,,,,,,,,,,,,,,,,,,,,,,,,,,,,,,,,,,,,,,,,44,155620,18,Female,1,2024/02/09_14:16:03,JV,59.86590755
,,,,,,test,1,9,1,1068,11,Q,1,left,0.416041238,1,0,,,,,,,,,,,,,,,,,,,,,1,,,,,,,,,,,,,,,,,,,,,,,,,,,,,,,,,,,,,,,,,,,,,,44,155620,18,Female,1,2024/02/09_14:16:03,JV,59.86590755
,,,,,,Test,1,9,1,1068,,,,,,,,0.916666667,0.666666667,0,1,0,1,0.482809504,2,0,0,0,0,8,10,3,8,0,,,,1,,,,,,,,,,,,,,,,,,,,,,,,,,,,,,,,,,,,,,,,,,,,,,44,155620,18,Female,1,2024/02/09_14:16:03,JV,59.86590755
,,,,,240209_150814,TEST,1,9,1,1068,,,,,,,,,,,,,,,,,,,,,,,,,,,,1,9,9,9,cue2.png,easy,B,47,1.43627541,0,1070.597204,1072.070196,,,,,,,,,,,,,,,,,,,,,,,,,,,,,,,,,,,44,155620,18,Female,1,2024/02/09_14:16:03,JV,59.86590755
,,,,,,test,1,10,3,1068,1,V,0,right,0.763653271,1,0,,,,,,,,,,,,,,,,,,,,,1,,,,,,,,,,,,,,,,,,,,,,,,,,,,,,,,,,,,,,,,,,,,,,44,155620,18,Female,1,2024/02/09_14:16:03,JV,59.86590755
,,,,,,test,1,10,3,1068,2,C,0,right,0.367793834,1,0,,,,,,,,,,,,,,,,,,,,,1,,,,,,,,,,,,,,,,,,,,,,,,,,,,,,,,,,,,,,,,,,,,,,44,155620,18,Female,1,2024/02/09_14:16:03,JV,59.86590755
,,,,,,test,1,10,3,1068,3,C,0,right,0.406449973,1,0,,,,,,,,,,,,,,,,,,,,,1,,,,,,,,,,,,,,,,,,,,,,,,,,,,,,,,,,,,,,,,,,,,,,44,155620,18,Female,1,2024/02/09_14:16:03,JV,59.86590755
,,,,,,test,1,10,3,1068,4,V,1,left,0.446384073,1,0,,,,,,,,,,,,,,,,,,,,,1,,,,,,,,,,,,,,,,,,,,,,,,,,,,,,,,,,,,,,,,,,,,,,44,155620,18,Female,1,2024/02/09_14:16:03,JV,59.86590755
,,,,,,test,1,10,3,1068,5,Q,0,right,0.354949555,1,0,,,,,,,,,,,,,,,,,,,,,1,,,,,,,,,,,,,,,,,,,,,,,,,,,,,,,,,,,,,,,,,,,,,,44,155620,18,Female,1,2024/02/09_14:16:03,JV,59.86590755
,,,,,,test,1,10,3,1068,6,X,0,right,0.377122954,1,0,,,,,,,,,,,,,,,,,,,,,1,,,,,,,,,,,,,,,,,,,,,,,,,,,,,,,,,,,,,,,,,,,,,,44,155620,18,Female,1,2024/02/09_14:16:03,JV,59.86590755
,,,,,,test,1,10,3,1068,7,V,1,right,0.491641329,0,0,,,,,,,,,,,,,,,,,,,,,1,,,,,,,,,,,,,,,,,,,,,,,,,,,,,,,,,,,,,,,,,,,,,,44,155620,18,Female,1,2024/02/09_14:16:03,JV,59.86590755
,,,,,,test,1,10,3,1068,8,V,0,right,0.611960489,1,0,,,,,,,,,,,,,,,,,,,,,1,,,,,,,,,,,,,,,,,,,,,,,,,,,,,,,,,,,,,,,,,,,,,,44,155620,18,Female,1,2024/02/09_14:16:03,JV,59.86590755
,,,,,,test,1,10,3,1068,9,X,1,right,0.614394467,0,0,,,,,,,,,,,,,,,,,,,,,1,,,,,,,,,,,,,,,,,,,,,,,,,,,,,,,,,,,,,,,,,,,,,,44,155620,18,Female,1,2024/02/09_14:16:03,JV,59.86590755
,,,,,,test,1,10,3,1068,10,J,0,right,0.462566655,1,0,,,,,,,,,,,,,,,,,,,,,1,,,,,,,,,,,,,,,,,,,,,,,,,,,,,,,,,,,,,,,,,,,,,,44,155620,18,Female,1,2024/02/09_14:16:03,JV,59.86590755
,,,,,,test,1,10,3,1068,11,F,0,right,0.435443009,1,0,,,,,,,,,,,,,,,,,,,,,1,,,,,,,,,,,,,,,,,,,,,,,,,,,,,,,,,,,,,,,,,,,,,,44,155620,18,Female,1,2024/02/09_14:16:03,JV,59.86590755
,,,,,,Test,1,10,3,1068,,,,,,,,0.833333333,0.333333333,0,1,0,1,0.484759964,1,0,0,0,0,8,9,3,8,0,,,,1,,,,,,,,,,,,,,,,,,,,,,,,,,,,,,,,,,,,,,,,,,,,,,44,155620,18,Female,1,2024/02/09_14:16:03,JV,59.86590755
,,,,,240209_150835,TEST,1,10,3,1068,,,,,,,,,,,,,,,,,,,,,,,,,,,,1,10,10,10,cue1.png,hard,B,43,1.053160182,0,1092.283364,1093.351223,,,,,,,,,,,,,,,,,,,,,,,,,,,,,,,,,,,44,155620,18,Female,1,2024/02/09_14:16:03,JV,59.86590755
,,,,,,test,1,11,1,1068,1,V,0,right,0.676471894,1,0,,,,,,,,,,,,,,,,,,,,,1,,,,,,,,,,,,,,,,,,,,,,,,,,,,,,,,,,,,,,,,,,,,,,44,155620,18,Female,1,2024/02/09_14:16:03,JV,59.86590755
,,,,,,test,1,11,1,1068,2,C,0,right,0.419989353,1,0,,,,,,,,,,,,,,,,,,,,,1,,,,,,,,,,,,,,,,,,,,,,,,,,,,,,,,,,,,,,,,,,,,,,44,155620,18,Female,1,2024/02/09_14:16:03,JV,59.86590755
,,,,,,test,1,11,1,1068,3,N,0,right,0.405854649,1,0,,,,,,,,,,,,,,,,,,,,,1,,,,,,,,,,,,,,,,,,,,,,,,,,,,,,,,,,,,,,,,,,,,,,44,155620,18,Female,1,2024/02/09_14:16:03,JV,59.86590755
,,,,,,test,1,11,1,1068,4,Q,0,right,0.366699755,1,0,,,,,,,,,,,,,,,,,,,,,1,,,,,,,,,,,,,,,,,,,,,,,,,,,,,,,,,,,,,,,,,,,,,,44,155620,18,Female,1,2024/02/09_14:16:03,JV,59.86590755
,,,,,,test,1,11,1,1068,5,Q,1,left,0.541749577,1,0,,,,,,,,,,,,,,,,,,,,,1,,,,,,,,,,,,,,,,,,,,,,,,,,,,,,,,,,,,,,,,,,,,,,44,155620,18,Female,1,2024/02/09_14:16:03,JV,59.86590755
,,,,,,test,1,11,1,1068,6,V,0,right,0.356620097,1,0,,,,,,,,,,,,,,,,,,,,,1,,,,,,,,,,,,,,,,,,,,,,,,,,,,,,,,,,,,,,,,,,,,,,44,155620,18,Female,1,2024/02/09_14:16:03,JV,59.86590755
,,,,,,test,1,11,1,1068,7,V,1,right,0.310348835,0,0,,,,,,,,,,,,,,,,,,,,,1,,,,,,,,,,,,,,,,,,,,,,,,,,,,,,,,,,,,,,,,,,,,,,44,155620,18,Female,1,2024/02/09_14:16:03,JV,59.86590755
,,,,,,test,1,11,1,1068,8,J,0,right,0.451687158,1,0,,,,,,,,,,,,,,,,,,,,,1,,,,,,,,,,,,,,,,,,,,,,,,,,,,,,,,,,,,,,,,,,,,,,44,155620,18,Female,1,2024/02/09_14:16:03,JV,59.86590755
,,,,,,test,1,11,1,1068,9,X,0,right,0.421796961,1,0,,,,,,,,,,,,,,,,,,,,,1,,,,,,,,,,,,,,,,,,,,,,,,,,,,,,,,,,,,,,,,,,,,,,44,155620,18,Female,1,2024/02/09_14:16:03,JV,59.86590755
,,,,,,test,1,11,1,1068,10,C,0,right,0.463403842,1,0,,,,,,,,,,,,,,,,,,,,,1,,,,,,,,,,,,,,,,,,,,,,,,,,,,,,,,,,,,,,,,,,,,,,44,155620,18,Female,1,2024/02/09_14:16:03,JV,59.86590755
,,,,,,test,1,11,1,1068,11,C,1,left,0.37127248,1,0,,,,,,,,,,,,,,,,,,,,,1,,,,,,,,,,,,,,,,,,,,,,,,,,,,,,,,,,,,,,,,,,,,,,44,155620,18,Female,1,2024/02/09_14:16:03,JV,59.86590755
,,,,,,Test,1,11,1,1068,,,,,,,,0.916666667,0.666666667,0,1,0,1,0.435081327,2,0,0,0,0,8,10,3,8,0,,,,1,,,,,,,,,,,,,,,,,,,,,,,,,,,,,,,,,,,,,,,,,,,,,,44,155620,18,Female,1,2024/02/09_14:16:03,JV,59.86590755
,,,,,240209_150856,TEST,1,11,1,1068,,,,,,,,,,,,,,,,,,,,,,,,,,,,1,11,11,11,cue2.png,easy,B,38,1.419099418,0,1113.594051,1115.034397,,,,,,,,,,,,,,,,,,,,,,,,,,,,,,,,,,,44,155620,18,Female,1,2024/02/09_14:16:03,JV,59.86590755
,,,,,,test,1,12,3,1068,1,C,0,right,0.777722659,1,0,,,,,,,,,,,,,,,,,,,,,1,,,,,,,,,,,,,,,,,,,,,,,,,,,,,,,,,,,,,,,,,,,,,,44,155620,18,Female,1,2024/02/09_14:16:03,JV,59.86590755
,,,,,,test,1,12,3,1068,2,F,0,right,0.350340065,1,0,,,,,,,,,,,,,,,,,,,,,1,,,,,,,,,,,,,,,,,,,,,,,,,,,,,,,,,,,,,,,,,,,,,,44,155620,18,Female,1,2024/02/09_14:16:03,JV,59.86590755
,,,,,,test,1,12,3,1068,3,N,0,right,0.357957714,1,0,,,,,,,,,,,,,,,,,,,,,1,,,,,,,,,,,,,,,,,,,,,,,,,,,,,,,,,,,,,,,,,,,,,,44,155620,18,Female,1,2024/02/09_14:16:03,JV,59.86590755
,,,,,,test,1,12,3,1068,4,V,0,right,0.531715932,1,0,,,,,,,,,,,,,,,,,,,,,1,,,,,,,,,,,,,,,,,,,,,,,,,,,,,,,,,,,,,,,,,,,,,,44,155620,18,Female,1,2024/02/09_14:16:03,JV,59.86590755
,,,,,,test,1,12,3,1068,5,F,1,left,0.546951708,1,0,,,,,,,,,,,,,,,,,,,,,1,,,,,,,,,,,,,,,,,,,,,,,,,,,,,,,,,,,,,,,,,,,,,,44,155620,18,Female,1,2024/02/09_14:16:03,JV,59.86590755
,,,,,,test,1,12,3,1068,6,Q,0,right,0.484730359,1,0,,,,,,,,,,,,,,,,,,,,,1,,,,,,,,,,,,,,,,,,,,,,,,,,,,,,,,,,,,,,,,,,,,,,44,155620,18,Female,1,2024/02/09_14:16:03,JV,59.86590755
,,,,,,test,1,12,3,1068,7,V,1,left,0.9609498,1,0,,,,,,,,,,,,,,,,,,,,,1,,,,,,,,,,,,,,,,,,,,,,,,,,,,,,,,,,,,,,,,,,,,,,44,155620,18,Female,1,2024/02/09_14:16:03,JV,59.86590755
