,END,Phase,Block,TrialN,NbackLevel,ISI,Letter_Resp,Letter_RT,Letter_Accuracy,Trial_A_measure,Trial_ACC,Trial_RT,TrialCountCali,CaliEnd_A_measure,ISI_calibrated,TrialIndex,TrialNumber_total,TrialNumber_valid,CueLearning,TrialDemandLearning,CueMapping,OfflineRatingTimePoint,CueFigure,TrialDemand,OfflineRating,OfflineRatingRT,PhaseType,CueLeft,CueDemandLeft,CueRight,CueDemandRight,Choice,ChoiceDemand,TaskDemand,ChoiceRT,CueCheck,CueDemandCheck,CorrectAnswer,Answer,AnswerDemand,AnswerRT,AnswerACC,DemandRatingQuesIndex,QuesTLX,DemandLevel,DemandRating,DemandRatingRT,PID,Age,Gender,Task_A_measure,Task_ACC,Task_RT,cue_i_on_zyg_values,cue_i_on_zyg_zvalues,cue_e_on_zyg_values,cue_e_on_zyg_zvalues,cue_i_on_cor_values,cue_i_on_cor_zvalues,cue_e_on_cor_values,cue_e_on_cor_zvalues,cue_i_on_scr_values,cue_i_on_scr_zvalues,cue_e_on_scr_values,cue_e_on_scr_zvalues,BAI_bis,BAI_bas_d,BAI_bas_rr,BAI_bas_fs,NFC,BFI_ext,BFI_agr,BFI_con,BFI_neu,BFI_open,UPPS_lps,UPPS_lpm,UPPS_pu,UPPS_ss,cue_e_true_zyg_values,cue_e_true_zyg_zvalues,cue_e_true_cor_values,cue_e_true_cor_zvalues,cue_e_true_scr_values,cue_e_true_scr_zvalues,cue_i_off_zyg_values,cue_i_off_zyg_zvalues,cue_i_off_cor_values,cue_i_off_cor_zvalues,cue_i_off_scr_values,cue_i_off_scr_zvalues
0,240613_093045,LEARNING,1.0,1,1.0,583.0,,,,,,,,,,1.0,1.0,1.0,cue2.png,Easy,B,,,,,,,,,,,,,,,,,,,,,,,,,,,10,26,Female,0.8920454545454546,0.9090909090909092,0.4215531533331765,0.00012039919450755523,0.05211005095912699,0.0001289559066242965,0.753714399367017,-0.00016827266045975255,-2.564995186811545,0.00011149747326128683,1.5132502539276684,,,1.591,0.34468432134828586,0.14285714285714285,1.75,1.0,1.5,2.2777777777777777,2.0,2.111111111111111,2.7777777777777777,2.5,2.4444444444444446,2.25,1.75,2.0,2.25,,,,,,,,,,,,
1,240613_093109,LEARNING,1.0,2,3.0,583.0,,,,,,,,,,2.0,2.0,2.0,cue1.png,Hard,B,,,,,,,,,,,,,,,,,,,,,,,,,,,10,26,Female,0.7386363636363636,0.8181818181818181,0.3771720199981549,-0.0004039223527021502,-1.988239694537551,-0.00011413120186195636,-0.5439173276332503,4.772442721658835e-05,-0.1523513980391861,-1.9684414382492577e-05,0.17561520432620795,1.094,-0.7060765740870072,1.5300000000000002,0.24824977995917147,0.14285714285714285,1.75,1.0,1.5,2.2777777777777777,2.0,2.111111111111111,2.7777777777777777,2.5,2.4444444444444446,2.25,1.75,2.0,2.25,,,,,,,,,,,,
2,240613_093133,LEARNING,1.0,3,1.0,583.0,,,,,,,,,,3.0,3.0,3.0,cue2.png,Easy,B,,,,,,,,,,,,,,,,,,,,,,,,,,,10,26,Female,0.905,0.9,0.3579626399984894,,,4.704571192941766e-05,0.3164667474338226,-3.94267252375141e-05,-1.125812146583225,-6.269849438972222e-05,-0.2629906282127493,1.5799999999999998,0.37587518193362235,1.449,0.12019735614739571,0.14285714285714285,1.75,1.0,1.5,2.2777777777777777,2.0,2.111111111111111,2.7777777777777777,2.5,2.4444444444444446,2.25,1.75,2.0,2.25,,,,,,,,,,,,
3,240613_093157,LEARNING,1.0,4,3.0,583.0,,,,,,,,,,4.0,4.0,4.0,cue1.png,Hard,B,,,,,,,,,,,,,,,,,,,,,,,,,,,10,26,Female,0.0151515151515151,0.7272727272727273,0.3886045533348806,-0.00034154205700549865,-1.7454924316680258,-8.498760363166756e-05,-0.38834487486901714,1.894115689969828e-05,-0.47385470670720903,-4.454789019231768e-05,-0.07791260576638608,1.5819999999999999,0.3803276582958472,1.017,-0.5627489041820737,0.14285714285714285,1.75,1.0,1.5,2.2777777777777777,2.0,2.111111111111111,2.7777777777777777,2.5,2.4444444444444446,2.25,1.75,2.0,2.25,,,,,,,,,,,,
4,240613_093222,LEARNING,1.0,5,3.0,583.0,,,,,,,,,,5.0,5.0,5.0,cue1.png,Hard,B,,,,,,,,,,,,,,,,,,,,,,,,,,,10,26,Female,0.5875,0.7,0.4002639800038499,,,-0.00047181848563402577,-2.4533002260415944,0.00010819081848444058,0.5230459644496145,-7.311633570726518e-05,-0.3692192390204588,1.545,0.29795684559468827,,,0.14285714285714285,1.75,1.0,1.5,2.2777777777777777,2.0,2.111111111111111,2.7777777777777777,2.5,2.4444444444444446,2.25,1.75,2.0,2.25,,,,,,,,,,,,
5,240613_093246,LEARNING,1.0,6,1.0,583.0,,,,,,,,,,6.0,6.0,6.0,cue2.png,Easy,B,,,,,,,,,,,,,,,,,,,,,,,,,,,10,26,Female,1.0,1.0,0.3553537333287143,-7.457375196345166e-05,-0.7066094863704131,,,,,4.442785457827673e-05,0.8293549820634851,0.04999999999999982,-3.0302692351683613,2.035,1.0466013111313517,0.14285714285714285,1.75,1.0,1.5,2.2777777777777777,2.0,2.111111111111111,2.7777777777777777,2.5,2.4444444444444446,2.25,1.75,2.0,2.25,,,,,,,,,,,,
6,240613_093309,LEARNING,1.0,7,3.0,583.0,,,,,,,,,,7.0,7.0,7.0,cue1.png,Hard,B,,,,,,,,,,,,,,,,,,,,,,,,,,,10,26,Female,0.77,0.8,0.3624244999955408,7.735446071604948e-05,-0.11539462647375442,0.0001239147212244592,0.7268038726950962,0.0001168266373354947,0.6195063146149801,5.252769904657943e-05,0.9119474500613793,1.285,-0.28086508149453776,,,0.14285714285714285,1.75,1.0,1.5,2.2777777777777777,2.0,2.111111111111111,2.7777777777777777,2.5,2.4444444444444446,2.25,1.75,2.0,2.25,,,,,,,,,,,,
7,240613_093333,LEARNING,1.0,8,3.0,583.0,,,,,,,,,,8.0,8.0,8.0,cue1.png,Hard,B,,,,,,,,,,,,,,,,,,,,,,,,,,,10,26,Female,0.5875,0.7,0.3430283866648096,0.0002301499648489089,0.4791952194511311,7.615396007786771e-06,0.10598241009412537,6.314494400640105e-05,0.019892656048940464,-2.291251936002974e-05,0.1426988738837606,,,,,0.14285714285714285,1.75,1.0,1.5,2.2777777777777777,2.0,2.111111111111111,2.7777777777777777,2.5,2.4444444444444446,2.25,1.75,2.0,2.25,,,,,,,,,,,,
8,240613_093357,LEARNING,1.0,9,1.0,583.0,,,,,,,,,,9.0,9.0,9.0,cue2.png,Easy,B,,,,,,,,,,,,,,,,,,,,,,,,,,,10,26,Female,0.8920454545454546,0.9090909090909092,0.3573089599997426,,,8.237500126340126e-05,0.5050592524729858,,,2.6854748151177495e-05,0.6501655870221851,,,,,0.14285714285714285,1.75,1.0,1.5,2.2777777777777777,2.0,2.111111111111111,2.7777777777777777,2.5,2.4444444444444446,2.25,1.75,2.0,2.25,,,,,,,,,,,,
9,240613_093420,LEARNING,1.0,10,1.0,583.0,,,,,,,,,,10.0,10.0,10.0,cue2.png,Easy,B,,,,,,,,,,,,,,,,,,,,,,,,,,,10,26,Female,0.8920454545454546,0.9090909090909092,0.3330222266648585,,,,,-7.110837609057476e-06,-0.7648502169377197,,,,,,,0.14285714285714285,1.75,1.0,1.5,2.2777777777777777,2.0,2.111111111111111,2.7777777777777777,2.5,2.4444444444444446,2.25,1.75,2.0,2.25,,,,,,,,,,,,
10,240613_093445,LEARNING,1.0,11,3.0,583.0,,,,,,,,,,11.0,11.0,11.0,cue1.png,Hard,B,,,,,,,,,,,,,,,,,,,,,,,,,,,10,26,Female,0.5875,0.7,0.4100268399963776,0.00044836342672514374,1.3283531145872844,0.00011456418794226738,0.6768894665922722,,,-5.576014857586577e-05,-0.19224172595520458,,,1.4660000000000002,0.14707255620665743,0.14285714285714285,1.75,1.0,1.5,2.2777777777777777,2.0,2.111111111111111,2.7777777777777777,2.5,2.4444444444444446,2.25,1.75,2.0,2.25,,,,,,,,,,,,
11,240613_093509,LEARNING,1.0,12,1.0,583.0,,,,,,,,,,12.0,12.0,12.0,cue2.png,Easy,B,,,,,,,,,,,,,,,,,,,,,,,,,,,10,26,Female,0.905,0.9,0.3464998066638751,0.0005281508187115029,1.6388385138609884,0.00028231338473657394,1.5723572735632612,0.0001529744386548214,1.0232699452687997,,,1.5390000000000001,0.2845994165080143,,,0.14285714285714285,1.75,1.0,1.5,2.2777777777777777,2.0,2.111111111111111,2.7777777777777777,2.5,2.4444444444444446,2.25,1.75,2.0,2.25,,,,,,,,,,,,
12,240613_093533,LEARNING,1.0,13,1.0,583.0,,,,,,,,,,13.0,13.0,13.0,cue2.png,Easy,B,,,,,,,,,,,,,,,,,,,,,,,,,,,10,26,Female,0.8920454545454546,0.9090909090909092,0.3762696066696662,,,,,4.413606359970814e-05,-0.1924326939735805,-1.8998757206975178e-05,0.18260671120613128,,,,,0.14285714285714285,1.75,1.0,1.5,2.2777777777777777,2.0,2.111111111111111,2.7777777777777777,2.5,2.4444444444444446,2.25,1.75,2.0,2.25,,,,,,,,,,,,
13,240613_093557,LEARNING,1.0,14,1.0,583.0,,,,,,,,,,14.0,14.0,14.0,cue2.png,Easy,B,,,,,,,,,,,,,,,,,,,,,,,,,,,10,26,Female,0.7386363636363636,0.8181818181818181,0.3570621066707342,0.0001785113421858631,0.27824820293226804,-2.7689755874881362e-05,-0.08248124597879312,0.00012486951956812344,0.7093436826606824,9.903217866026777e-06,0.47731427758401457,,,-0.33899999999999997,-2.706441332438463,0.14285714285714285,1.75,1.0,1.5,2.2777777777777777,2.0,2.111111111111111,2.7777777777777777,2.5,2.4444444444444446,2.25,1.75,2.0,2.25,,,,,,,,,,,,
14,240613_093621,LEARNING,1.0,15,3.0,583.0,,,,,,,,,,15.0,15.0,15.0,cue1.png,Hard,B,,,,,,,,,,,,,,,,,,,,,,,,,,,10,26,Female,0.7386363636363636,0.8181818181818181,0.4000923133319399,0.00018969313730636582,0.3217611444654315,9.520424096411215e-05,0.5735434619919588,5.6405777281956504e-05,-0.0553824734176011,2.7208756397440262e-05,0.6537753371679895,,,,,0.14285714285714285,1.75,1.0,1.5,2.2777777777777777,2.0,2.111111111111111,2.7777777777777777,2.5,2.4444444444444446,2.25,1.75,2.0,2.25,,,,,,,,,,,,
15,240613_093645,LEARNING,1.0,16,1.0,583.0,,,,,,,,,,16.0,16.0,16.0,cue2.png,Easy,B,,,,,,,,,,,,,,,,,,,,,,,,,,,10,26,Female,0.8920454545454546,0.9090909090909092,0.379594453338844,,,0.00033281223350215125,1.841926930067309,9.38739412190354e-05,0.3631293406627491,,,,,,,0.14285714285714285,1.75,1.0,1.5,2.2777777777777777,2.0,2.111111111111111,2.7777777777777777,2.5,2.4444444444444446,2.25,1.75,2.0,2.25,,,,,,,,,,,,
16,240613_093709,LEARNING,1.0,17,1.0,583.0,,,,,,,,,,17.0,17.0,17.0,cue2.png,Easy,B,,,,,,,,,,,,,,,,,,,,,,,,,,,10,26,Female,1.0,1.0,0.3905759533323968,,,,,,,,,,,,,0.14285714285714285,1.75,1.0,1.5,2.2777777777777777,2.0,2.111111111111111,2.7777777777777777,2.5,2.4444444444444446,2.25,1.75,2.0,2.25,,,,,,,,,,,,
17,240613_093734,LEARNING,1.0,18,3.0,583.0,,,,,,,,,,18.0,18.0,18.0,cue1.png,Hard,B,,,,,,,,,,,,,,,,,,,,,,,,,,,10,26,Female,0.8920454545454546,0.9090909090909092,0.3745763533341232,-0.0008777597200330281,-3.832134832903279,-2.7802276942687915e-05,-0.08308189859443764,,,-3.467586337285505e-05,0.02275044552448339,,,,,0.14285714285714285,1.75,1.0,1.5,2.2777777777777777,2.0,2.111111111111111,2.7777777777777777,2.5,2.4444444444444446,2.25,1.75,2.0,2.25,,,,,,,,,,,,
18,240613_093758,LEARNING,1.0,19,3.0,583.0,,,,,,,,,,19.0,19.0,19.0,cue1.png,Hard,B,,,,,,,,,,,,,,,,,,,,,,,,,,,10,26,Female,0.0151515151515151,0.7272727272727273,0.4051092866672358,,,9.528501289228627e-05,0.5739746334238888,,,,,,,,,0.14285714285714285,1.75,1.0,1.5,2.2777777777777777,2.0,2.111111111111111,2.7777777777777777,2.5,2.4444444444444446,2.25,1.75,2.0,2.25,,,,,,,,,,,,
19,240613_093822,LEARNING,1.0,20,3.0,583.0,,,,,,,,,,20.0,20.0,20.0,cue1.png,Hard,B,,,,,,,,,,,,,,,,,,,,,,,,,,,10,26,Female,0.905,0.9,0.3772007533349096,0.0002879566341983742,0.7041446302141775,8.418401056090952e-05,0.5147159877622532,3.8663251931907606e-05,-0.2535628935493507,,,,,1.72,0.5486196629744469,0.14285714285714285,1.75,1.0,1.5,2.2777777777777777,2.0,2.111111111111111,2.7777777777777777,2.5,2.4444444444444446,2.25,1.75,2.0,2.25,,,,,,,,,,,,
20,240613_093846,LEARNING,1.0,21,1.0,583.0,,,,,,,,,,21.0,21.0,21.0,cue2.png,Easy,B,,,,,,,,,,,,,,,,,,,,,,,,,,,10,26,Female,1.0,1.0,0.3679662866634317,0.0003998234407221984,1.1394641615877796,9.771790174607385e-05,0.5869617218161908,0.00013987732893096846,0.8769778782504118,-0.00036832518786831516,-3.3794039123461395,1.4690000000000003,0.12876274383014613,1.4020000000000001,0.045895332454143394,0.14285714285714285,1.75,1.0,1.5,2.2777777777777777,2.0,2.111111111111111,2.7777777777777777,2.5,2.4444444444444446,2.25,1.75,2.0,2.25,,,,,,,,,,,,
21,240613_093912,LEARNING,1.0,22,3.0,583.0,,,,,,,,,,22.0,22.0,22.0,cue1.png,Hard,B,,,,,,,,,,,,,,,,,,,,,,,,,,,10,26,Female,0.675,0.7333333333333334,0.4163153928571513,0.00013183806417304926,0.09662337476770534,-0.000482263826075041,-2.5090588602200365,,,,,1.296,-0.256376461502301,1.581,0.32887538013695555,0.14285714285714285,1.75,1.0,1.5,2.2777777777777777,2.0,2.111111111111111,2.7777777777777777,2.5,2.4444444444444446,2.25,1.75,2.0,2.25,,,,,,,,,,,,
22,240613_093936,LEARNING,1.0,23,3.0,583.0,,,,,,,,,,23.0,23.0,23.0,cue1.png,Hard,B,,,,,,,,,,,,,,,,,,,,,,,,,,,10,26,Female,0.0151515151515151,0.7272727272727273,0.3732949333362436,0.0002903531347473614,0.7134703947402214,,,7.459181948707037e-05,0.14775194029387562,-6.720701350077397e-06,0.3078035516399925,1.514,0.22894346198020382,1.953,0.916967993198443,0.14285714285714285,1.75,1.0,1.5,2.2777777777777777,2.0,2.111111111111111,2.7777777777777777,2.5,2.4444444444444446,2.25,1.75,2.0,2.25,,,,,,,,,,,,
23,240613_093959,LEARNING,1.0,24,3.0,583.0,,,,,,,,,,24.0,24.0,24.0,cue1.png,Hard,B,,,,,,,,,,,,,,,,,,,,,,,,,,,10,26,Female,0.7386363636363636,0.8181818181818181,0.3110677466708391,0.00028869572406799333,0.7070207314070462,,,0.0001133807624854417,0.5810165893908844,-4.960996073524477e-06,0.3257469087387836,,,,,0.14285714285714285,1.75,1.0,1.5,2.2777777777777777,2.0,2.111111111111111,2.7777777777777777,2.5,2.4444444444444446,2.25,1.75,2.0,2.25,,,,,,,,,,,,
24,240613_094022,LEARNING,1.0,25,1.0,583.0,,,,,,,,,,25.0,25.0,25.0,cue2.png,Easy,B,,,,,,,,,,,,,,,,,,,,,,,,,,,10,26,Female,0.8920454545454546,0.9090909090909092,0.3488764066656585,,,,,2.6627394743346938e-05,-0.38800098436307573,-4.2107671527662465e-05,-0.05303019194262623,,,1.99,0.9754610756803651,0.14285714285714285,1.75,1.0,1.5,2.2777777777777777,2.0,2.111111111111111,2.7777777777777777,2.5,2.4444444444444446,2.25,1.75,2.0,2.25,,,,,,,,,,,,
25,240613_094047,LEARNING,1.0,26,1.0,583.0,,,,,,,,,,26.0,26.0,26.0,cue2.png,Easy,B,,,,,,,,,,,,,,,,,,,,,,,,,,,10,26,Female,0.8920454545454546,0.9090909090909092,0.3804137466688795,8.739130264955302e-05,-0.0763371664216239,,,0.00010062841527258299,0.4385754498998073,,,,,1.973,0.9485858756211037,0.14285714285714285,1.75,1.0,1.5,2.2777777777777777,2.0,2.111111111111111,2.7777777777777777,2.5,2.4444444444444446,2.25,1.75,2.0,2.25,,,,,,,,,,,,
26,240613_094111,LEARNING,1.0,27,3.0,583.0,,,,,,,,,,27.0,27.0,27.0,cue1.png,Hard,B,,,,,,,,,,,,,,,,,,,,,,,,,,,10,26,Female,0.7386363636363636,0.8181818181818181,0.3777733199996874,6.438301562947417e-05,-0.16587182853032512,0.00010636899459657255,0.6331424206855721,7.29825805321025e-05,0.12977706659941418,-0.00015721424119308387,-1.2267484909349577,0.8260000000000001,-1.3027084066251324,,,0.14285714285714285,1.75,1.0,1.5,2.2777777777777777,2.0,2.111111111111111,2.7777777777777777,2.5,2.4444444444444446,2.25,1.75,2.0,2.25,,,,,,,,,,,,
27,240613_094135,LEARNING,1.0,28,1.0,583.0,,,,,,,,,,28.0,28.0,28.0,cue2.png,Easy,B,,,,,,,,,,,,,,,,,,,,,,,,,,,10,26,Female,0.7386363636363636,0.8181818181818181,0.3810435466604152,,,-0.00046008103578683247,-2.3906441378161105,-8.263194740643813e-05,-1.6084057409217754,,,1.3490000000000002,-0.13838583790334302,0.9880000000000002,-0.6085948336949311,0.14285714285714285,1.75,1.0,1.5,2.2777777777777777,2.0,2.111111111111111,2.7777777777777777,2.5,2.4444444444444446,2.25,1.75,2.0,2.25,,,,,,,,,,,,
28,240613_094159,LEARNING,1.0,29,1.0,583.0,,,,,,,,,,29.0,29.0,29.0,cue2.png,Easy,B,,,,,,,,,,,,,,,,,,,,,,,,,,,10,26,Female,1.0,1.0,0.3744801466683081,0.00021880798307423975,0.43505892608205743,5.737741260431568e-05,0.37161875723435844,9.145079265501918e-05,0.3360632612302033,-8.726022390031498e-05,-0.5134415926127677,2.1340000000000003,1.6092111342698974,1.272,-0.15962090329315076,0.14285714285714285,1.75,1.0,1.5,2.2777777777777777,2.0,2.111111111111111,2.7777777777777777,2.5,2.4444444444444446,2.25,1.75,2.0,2.25,,,,,,,,,,,,
29,240613_094223,LEARNING,1.0,30,3.0,583.0,,,,,,,,,,30.0,30.0,30.0,cue1.png,Hard,B,,,,,,,,,,,,,,,,,,,,,,,,,,,10,26,Female,0.905,0.9,0.3513045333325862,0.00010278891380149794,-0.016418759172641614,,,-7.455776065939772e-07,-0.6937515499414478,,,2.213,1.785083950577777,,,0.14285714285714285,1.75,1.0,1.5,2.2777777777777777,2.0,2.111111111111111,2.7777777777777777,2.5,2.4444444444444446,2.25,1.75,2.0,2.25,,,,,,,,,,,,
30,240613_094246,LEARNING,1.0,31,3.0,583.0,,,,,,,,,,31.0,31.0,31.0,cue1.png,Hard,B,,,,,,,,,,,,,,,,,,,,,,,,,,,10,26,Female,0.075,0.6,0.3394614866682483,-3.623240543502732e-05,-0.5574076138790236,,,0.00020933273587719426,1.6527807280395899,0.00022644850055838096,2.6853825189993907,,,,,0.14285714285714285,1.75,1.0,1.5,2.2777777777777777,2.0,2.111111111111111,2.7777777777777777,2.5,2.4444444444444446,2.25,1.75,2.0,2.25,,,,,,,,,,,,
31,240613_094310,LEARNING,1.0,32,1.0,583.0,,,,,,,,,,32.0,32.0,32.0,cue2.png,Easy,B,,,,,,,,,,,,,,,,,,,,,,,,,,,10,26,Female,0.8920454545454546,0.9090909090909092,0.3358563466676666,,,-1.474195275904134e-05,-0.013364128980311517,,,2.711603442945732e-05,0.6528298701033685,1.231,-0.40108194327460733,0.40000000000000013,-1.538160576921153,0.14285714285714285,1.75,1.0,1.5,2.2777777777777777,2.0,2.111111111111111,2.7777777777777777,2.5,2.4444444444444446,2.25,1.75,2.0,2.25,,,,,,,,,,,,
32,240613_094333,LEARNING,1.0,33,1.0,583.0,,,,,,,,,,33.0,33.0,33.0,cue2.png,Easy,B,,,,,,,,,,,,,,,,,,,,,,,,,,,10,26,Female,0.905,0.9,0.3509266600051584,-7.742922820643417e-05,-0.7177213131809771,0.0001442956804861284,0.8356001783870434,-1.6964179492495474e-05,-0.8749100531580538,-0.00014196139812343474,-1.0712183498270904,0.7129999999999999,-1.554273321090835,1.3610000000000002,-0.018921326512310738,0.14285714285714285,1.75,1.0,1.5,2.2777777777777777,2.0,2.111111111111111,2.7777777777777777,2.5,2.4444444444444446,2.25,1.75,2.0,2.25,,,,,,,,,,,,
33,240613_094358,LEARNING,1.0,34,1.0,583.0,,,,,,,,,,34.0,34.0,34.0,cue2.png,Easy,B,,,,,,,,,,,,,,,,,,,,,,,,,,,10,26,Female,1.0,1.0,0.380957599998995,-2.8270108850486295e-05,-0.5264230588930738,,,5.990356927765544e-05,-0.016312844175720098,-2.3364990254117098e-05,0.13808512012760735,,,0.8460000000000001,-0.8330817988958216,0.14285714285714285,1.75,1.0,1.5,2.2777777777777777,2.0,2.111111111111111,2.7777777777777777,2.5,2.4444444444444446,2.25,1.75,2.0,2.25,,,,,,,,,,,,
34,240613_094422,LEARNING,1.0,35,3.0,583.0,,,,,,,,,,35.0,35.0,35.0,cue1.png,Hard,B,,,,,,,,,,,,,,,,,,,,,,,,,,,10,26,Female,0.0151515151515151,0.7272727272727273,0.3698580466695906,0.00010636007180077995,-0.002521921719098538,,,0.00015416687737604797,1.0365892446408813,1.4109940827472783e-05,0.5202093767342383,1.6190000000000002,0.46269847099700706,1.019,-0.5595871159398076,0.14285714285714285,1.75,1.0,1.5,2.2777777777777777,2.0,2.111111111111111,2.7777777777777777,2.5,2.4444444444444446,2.25,1.75,2.0,2.25,,,,,,,,,,,,
35,240613_094446,LEARNING,1.0,36,3.0,583.0,,,,,,,,,,36.0,36.0,36.0,cue1.png,Hard,B,,,,,,,,,,,,,,,,,,,,,,,,,,,10,26,Female,0.0151515151515151,0.7272727272727273,0.378710813333358,,,-0.0001696620177013752,-0.8403483021434183,,,-5.1477621569994986e-05,-0.14857366836883243,1.3050000000000002,-0.23634031787228904,1.7699999999999998,0.627664369031098,0.14285714285714285,1.75,1.0,1.5,2.2777777777777777,2.0,2.111111111111111,2.7777777777777777,2.5,2.4444444444444446,2.25,1.75,2.0,2.25,,,,,,,,,,,,
36,240613_094509,LEARNING,1.0,37,1.0,583.0,,,,,,,,,,37.0,37.0,37.0,cue2.png,Easy,B,,,,,,,,,,,,,,,,,,,,,,,,,,,10,26,Female,0.905,0.9,0.3470020399991578,0.0005211037618888035,1.6114155313968623,-0.00021555412279661507,-1.0853265404434622,,,-0.00011942160777386225,-0.8413846881547687,0.9299999999999999,-1.0711796357894423,0.0,-2.1705182253743653,0.14285714285714285,1.75,1.0,1.5,2.2777777777777777,2.0,2.111111111111111,2.7777777777777777,2.5,2.4444444444444446,2.25,1.75,2.0,2.25,,,,,,,,,,,,
37,240613_094533,LEARNING,1.0,38,3.0,583.0,,,,,,,,,,38.0,38.0,38.0,cue1.png,Hard,B,,,,,,,,,,,,,,,,,,,,,,,,,,,10,26,Female,0.5875,0.7,0.3452276466685968,-4.5035337689325414e-05,-0.5916634263289704,,,9.488780988605588e-05,0.374454048641142,-6.013352385450879e-05,-0.23683614491690536,1.7469999999999999,0.7476569581793945,,,0.14285714285714285,1.75,1.0,1.5,2.2777777777777777,2.0,2.111111111111111,2.7777777777777777,2.5,2.4444444444444446,2.25,1.75,2.0,2.25,,,,,,,,,,,,
38,240613_094557,LEARNING,1.0,39,3.0,583.0,,,,,,,,,,39.0,39.0,39.0,cue1.png,Hard,B,,,,,,,,,,,,,,,,,,,,,,,,,,,10,26,Female,0.5875,0.7,0.3692332333341862,0.00011551218493515434,0.03309269645528863,0.0001655267508831942,0.9489344918229481,0.00023312734818580491,1.9185617355994615,,,1.329,-0.18291060152559172,0.944,-0.6781541750247848,0.14285714285714285,1.75,1.0,1.5,2.2777777777777777,2.0,2.111111111111111,2.7777777777777777,2.5,2.4444444444444446,2.25,1.75,2.0,2.25,,,,,,,,,,,,
39,240613_094621,LEARNING,1.0,40,3.0,583.0,,,,,,,,,,40.0,40.0,40.0,cue1.png,Hard,B,,,,,,,,,,,,,,,,,,,,,,,,,,,10,26,Female,0.0151515151515151,0.7272727272727273,0.369957053331503,,,7.071105666299222e-05,0.4427955451554084,-0.00016675881686300902,-2.548085859976875,-3.0445390756567766e-05,0.06588771507873348,1.5910000000000002,0.4003638019258596,1.92,0.8647984872010528,0.14285714285714285,1.75,1.0,1.5,2.2777777777777777,2.0,2.111111111111111,2.7777777777777777,2.5,2.4444444444444446,2.25,1.75,2.0,2.25,,,,,,,,,,,,
40,240613_094645,LEARNING,1.0,41,1.0,583.0,,,,,,,,,,41.0,41.0,41.0,cue2.png,Easy,B,,,,,,,,,,,,,,,,,,,,,,,,,,,10,26,Female,0.8920454545454546,0.9090909090909092,0.3396712066722102,0.00013362369146327968,0.10357198141292566,3.616597172349974e-05,0.25838922880013526,-9.117922467301656e-06,-0.7872689489163559,-6.826218569278009e-05,-0.31972245778012115,0.7169999999999999,-1.5453683683663855,1.476,0.1628814974179874,0.14285714285714285,1.75,1.0,1.5,2.2777777777777777,2.0,2.111111111111111,2.7777777777777777,2.5,2.4444444444444446,2.25,1.75,2.0,2.25,,,,,,,,,,,,
41,240613_094707,LEARNING,1.0,42,3.0,583.0,,,,,,,,,,42.0,42.0,42.0,cue1.png,Hard,B,,,,,,,,,,,,,,,,,,,,,,,,,,,10,26,Female,0.5875,0.7,0.2948836133291479,-7.45117612959618e-05,-0.7063682553103714,-0.00027496837542889067,-1.4024878236219571,,,-8.854892737718799e-06,0.2860416357692684,2.1100000000000003,1.5557814179231995,2.2680000000000002,1.414949641355348,0.14285714285714285,1.75,1.0,1.5,2.2777777777777777,2.0,2.111111111111111,2.7777777777777777,2.5,2.4444444444444446,2.25,1.75,2.0,2.25,,,,,,,,,,,,
42,240613_094731,LEARNING,1.0,43,3.0,583.0,,,,,,,,,,43.0,43.0,43.0,cue1.png,Hard,B,,,,,,,,,,,,,,,,,,,,,,,,,,,10,26,Female,0.7386363636363636,0.8181818181818181,0.3541533266621021,0.00014207174443100871,0.13644681330640565,-0.00021618493025441594,-1.088693875617952,5.8694692466082065e-05,-0.02981575369273992,,,1.7040000000000002,0.6519287163915617,1.5590000000000002,0.29409570947202923,0.14285714285714285,1.75,1.0,1.5,2.2777777777777777,2.0,2.111111111111111,2.7777777777777777,2.5,2.4444444444444446,2.25,1.75,2.0,2.25,,,,,,,,,,,,
43,240613_094755,LEARNING,1.0,44,1.0,583.0,,,,,,,,,,44.0,44.0,44.0,cue2.png,Easy,B,,,,,,,,,,,,,,,,,,,,,,,,,,,10,26,Female,0.7386363636363636,0.8181818181818181,0.3548574200035849,0.00019513030299675958,0.34291938160379803,-0.00018185443033568675,-0.9054330430064094,-1.1754577296435153e-05,-0.8167198501534023,-0.0002783474871197551,-2.461919583025827,1.9409999999999998,1.1795471653152014,0.20599999999999996,-1.8448540364209614,0.14285714285714285,1.75,1.0,1.5,2.2777777777777777,2.0,2.111111111111111,2.7777777777777777,2.5,2.4444444444444446,2.25,1.75,2.0,2.25,,,,,,,,,,,,
44,240613_094818,LEARNING,1.0,45,1.0,583.0,,,,,,,,,,45.0,45.0,45.0,cue2.png,Easy,B,,,,,,,,,,,,,,,,,,,,,,,,,,,10,26,Female,0.77,0.8,0.3319269133363074,0.0002475711298701214,0.5469881030479405,-0.00010730796688707741,-0.507493980301849,,,-6.025661743873888e-05,-0.23809130518029742,1.4269999999999998,0.03526074022342393,1.733,0.5691712865491764,0.14285714285714285,1.75,1.0,1.5,2.2777777777777777,2.0,2.111111111111111,2.7777777777777777,2.5,2.4444444444444446,2.25,1.75,2.0,2.25,,,,,,,,,,,,
45,240613_094842,LEARNING,1.0,46,1.0,583.0,,,,,,,,,,46.0,46.0,46.0,cue2.png,Easy,B,,,,,,,,,,,,,,,,,,,,,,,,,,,10,26,Female,1.0,1.0,0.3252514333308985,0.00017620188469547743,0.26926115857404875,7.66537136319633e-05,0.4745182484844178,0.00017775844941136498,1.3001023334084099,-0.00013144991580449523,-0.9640349007578068,1.1540000000000001,-0.5725022832202626,0.824,-0.8678614695607485,0.14285714285714285,1.75,1.0,1.5,2.2777777777777777,2.0,2.111111111111111,2.7777777777777777,2.5,2.4444444444444446,2.25,1.75,2.0,2.25,,,,,,,,,,,,
46,240613_094905,LEARNING,1.0,47,3.0,583.0,,,,,,,,,,47.0,47.0,47.0,cue1.png,Hard,B,,,,,,,,,,,,,,,,,,,,,,,,,,,10,26,Female,0.7386363636363636,0.8181818181818181,0.3344716066688609,0.0002773365907485681,0.6628176943571833,7.621798307671547e-05,0.47219226009106374,0.00019699303646181394,1.5149487809975735,,,1.404,-0.01594273794216124,1.72,0.5486196629744469,0.14285714285714285,1.75,1.0,1.5,2.2777777777777777,2.0,2.111111111111111,2.7777777777777777,2.5,2.4444444444444446,2.25,1.75,2.0,2.25,,,,,,,,,,,,
47,240613_094929,LEARNING,1.0,48,3.0,583.0,,,,,,,,,,48.0,48.0,48.0,cue1.png,Hard,B,,,,,,,,,,,,,,,,,,,,,,,,,,,10,26,Female,0.8920454545454546,0.9090909090909092,0.3385700266653051,1.3291814247866091e-05,-0.3646886047830672,1.4033713128869859e-05,0.140244251382749,,,5.3597033871351316e-05,0.9228512399600158,1.3950000000000002,-0.03597888157217218,,,0.14285714285714285,1.75,1.0,1.5,2.2777777777777777,2.0,2.111111111111111,2.7777777777777777,2.5,2.4444444444444446,2.25,1.75,2.0,2.25,,,,,,,,,,,,
48,240613_094953,LEARNING,1.0,49,1.0,583.0,,,,,,,,,,49.0,49.0,49.0,cue2.png,Easy,B,,,,,,,,,,,,,,,,,,,,,,,,,,,10,26,Female,0.8920454545454546,0.9090909090909092,0.3780941666608365,0.0002387062417492404,0.5124911949625249,6.842513037591882e-05,0.4305929627389159,,,2.078439409646405e-05,0.5882674203398727,,,1.9920000000000002,0.9786228639226314,0.14285714285714285,1.75,1.0,1.5,2.2777777777777777,2.0,2.111111111111111,2.7777777777777777,2.5,2.4444444444444446,2.25,1.75,2.0,2.25,,,,,,,,,,,,
49,240613_095016,LEARNING,1.0,50,1.0,583.0,,,,,,,,,,50.0,50.0,50.0,cue2.png,Easy,B,,,,,,,,,,,,,,,,,,,,,,,,,,,10,26,Female,0.905,0.9,0.321751486667199,,,8.846186729569118e-05,0.5375517632058053,4.173306884976743e-05,-0.21927365937856028,-7.075572313330024e-06,0.3041850045443634,1.9529999999999998,1.2062620234885504,2.269,1.4165305354764808,0.14285714285714285,1.75,1.0,1.5,2.2777777777777777,2.0,2.111111111111111,2.7777777777777777,2.5,2.4444444444444446,2.25,1.75,2.0,2.25,,,,,,,,,,,,
0,240613_095135,TrueCHOICE,9.0,1,3.0,583.0,,,,,,,,,,,1.0,1.0,,,B,,,,,,True,cue2.png,Easy,cue1.png,Hard,Right,Hard,Hard,0.0164147999894339,,,,,,,,,,,,,10,26,Female,0.8920454545454546,0.9090909090909092,0.3568455333336411,,,,,,,,,,,,,0.14285714285714285,1.75,1.0,1.5,2.2777777777777777,2.0,2.111111111111111,2.7777777777777777,2.5,2.4444444444444446,2.25,1.75,2.0,2.25,-4.255009411084122e-05,0.6282797538877728,,,1.4679999999999997,0.1004344355132468,,,,,,
1,240613_095157,TrueCHOICE,9.0,2,3.0,583.0,,,,,,,,,,,2.0,2.0,,,B,,,,,,True,cue2.png,Easy,cue1.png,Hard,Right,Hard,Hard,0.0162202999927103,,,,,,,,,,,,,10,26,Female,,,,,,,,,,,,,,,,0.14285714285714285,1.75,1.0,1.5,2.2777777777777777,2.0,2.111111111111111,2.7777777777777777,2.5,2.4444444444444446,2.25,1.75,2.0,2.25,-0.0003093836356450421,-0.09599978506854179,5.341831463701128e-06,0.20735166845316594,1.091,-2.2873716484458453,,,,,,
2,240613_095219,TrueCHOICE,9.0,3,3.0,583.0,,,,,,,,,,,3.0,3.0,,,B,,,,,,True,cue1.png,Hard,cue2.png,Easy,Left,Hard,Hard,0.0159833000216167,,,,,,,,,,,,,10,26,Female,0.8920454545454546,0.9090909090909092,0.3668229800008703,,,,,,,,,,,,,0.14285714285714285,1.75,1.0,1.5,2.2777777777777777,2.0,2.111111111111111,2.7777777777777777,2.5,2.4444444444444446,2.25,1.75,2.0,2.25,,,-5.1127544934484025e-05,-0.8552281960271891,1.602,0.9491506563369055,,,,,,
3,240613_095241,TrueCHOICE,9.0,4,3.0,583.0,,,,,,,,,,,4.0,4.0,,,B,,,,,,True,cue2.png,Easy,cue1.png,Hard,Right,Hard,Hard,0.0164409000135492,,,,,,,,,,,,,10,26,Female,0.1590909090909091,0.6363636363636364,0.3484876133346309,,,,,,,,,,,,,0.14285714285714285,1.75,1.0,1.5,2.2777777777777777,2.0,2.111111111111111,2.7777777777777777,2.5,2.4444444444444446,2.25,1.75,2.0,2.25,-0.00036236683128887783,-0.2398147053844382,,,1.488,0.2271084983227493,,,,,,
4,240613_095304,TrueCHOICE,9.0,5,3.0,583.0,,,,,,,,,,,5.0,5.0,,,B,,,,,,True,cue1.png,Hard,cue2.png,Easy,Left,Hard,Hard,0.0160125000111293,,,,,,,,,,,,,10,26,Female,0.5875,0.7,0.3887848533321327,,,,,,,,,,,,,0.14285714285714285,1.75,1.0,1.5,2.2777777777777777,2.0,2.111111111111111,2.7777777777777777,2.5,2.4444444444444446,2.25,1.75,2.0,2.25,-0.0011135246264325424,-2.2787196287385467,-6.417229317851828e-05,-1.100690209341927,,,,,,,,
5,240613_095326,TrueCHOICE,9.0,6,3.0,583.0,,,,,,,,,,,6.0,6.0,,,B,,,,,,True,cue1.png,Hard,cue2.png,Easy,Left,Hard,Hard,0.0165313000034075,,,,,,,,,,,,,10,26,Female,0.5875,0.7,0.3922645266691688,,,,,,,,,,,,,0.14285714285714285,1.75,1.0,1.5,2.2777777777777777,2.0,2.111111111111111,2.7777777777777777,2.5,2.4444444444444446,2.25,1.75,2.0,2.25,1.9231615842950182e-06,0.7489957213990422,8.821738620335079e-05,1.766814537372352,1.456,0.024429997827547543,,,,,,
6,240613_095349,TrueCHOICE,9.0,7,3.0,583.0,,,,,,,,,,,7.0,7.0,,,B,,,,,,True,cue2.png,Easy,cue1.png,Hard,Right,Hard,Hard,0.0163858000014442,,,,,,,,,,,,,10,26,Female,,,,,,,,,,,,,,,,0.14285714285714285,1.75,1.0,1.5,2.2777777777777777,2.0,2.111111111111111,2.7777777777777777,2.5,2.4444444444444446,2.25,1.75,2.0,2.25,,,-4.017278898894123e-05,-0.6490934052699756,1.4669999999999999,0.09410073237277244,,,,,,
7,240613_095411,TrueCHOICE,9.0,8,3.0,583.0,,,,,,,,,,,8.0,8.0,,,B,,,,,,True,cue1.png,Hard,cue2.png,Easy,Left,Hard,Hard,0.0161229000077582,,,,,,,,,,,,,10,26,Female,0.905,0.9,0.3539164666668511,,,,,,,,,,,,,0.14285714285714285,1.75,1.0,1.5,2.2777777777777777,2.0,2.111111111111111,2.7777777777777777,2.5,2.4444444444444446,2.25,1.75,2.0,2.25,-9.65746923895644e-06,0.7175618397915728,,,,,,,,,,
8,240613_095434,TrueCHOICE,9.0,9,3.0,583.0,,,,,,,,,,,9.0,9.0,,,B,,,,,,True,cue2.png,Easy,cue1.png,Hard,Right,Hard,Hard,0.0166809999791439,,,,,,,,,,,,,10,26,Female,0.8920454545454546,0.9090909090909092,0.3371560133333939,,,,,,,,,,,,,0.14285714285714285,1.75,1.0,1.5,2.2777777777777777,2.0,2.111111111111111,2.7777777777777777,2.5,2.4444444444444446,2.25,1.75,2.0,2.25,,,-3.1298930477465826e-05,-0.4821146997136589,,,,,,,,
9,240613_095457,TrueCHOICE,9.0,10,1.0,583.0,,,,,,,,,,,10.0,10.0,,,B,,,,,,True,cue1.png,Hard,cue2.png,Easy,Right,Easy,Easy,0.0165231999999377,,,,,,,,,,,,,10,26,Female,1.0,1.0,0.3259809866683402,,,,,,,,,,,,,0.14285714285714285,1.75,1.0,1.5,2.2777777777777777,2.0,2.111111111111111,2.7777777777777777,2.5,2.4444444444444446,2.25,1.75,2.0,2.25,-8.2553395985621e-05,0.5196968041131391,5.3469183250969086e-05,1.112960304527233,1.593,0.8921473280726293,,,,,,
0,240613_095640,FalseCHOICE,9.0,1,2.0,583.0,,,,,,,,,,,2.0,1.0,,,B,,,,,,False,cue2.png,Easy,cue1.png,Hard,Left,Easy,Mid,0.0161808999837376,,,,,,,,,,,,,10,26,Female,0.5875,0.7,0.3610883533372543,,,,,,,,,,,,,0.14285714285714285,1.75,1.0,1.5,2.2777777777777777,2.0,2.111111111111111,2.7777777777777777,2.5,2.4444444444444446,2.25,1.75,2.0,2.25,-4.255009411084122e-05,0.6282797538877728,,,1.4679999999999997,0.1004344355132468,,,,,,
1,240613_095703,FalseCHOICE,9.0,2,2.0,583.0,,,,,,,,,,,3.0,2.0,,,B,,,,,,False,cue1.png,Hard,cue2.png,Easy,Right,Easy,Mid,0.0164555000083055,,,,,,,,,,,,,10,26,Female,,,,,,,,,,,,,,,,0.14285714285714285,1.75,1.0,1.5,2.2777777777777777,2.0,2.111111111111111,2.7777777777777777,2.5,2.4444444444444446,2.25,1.75,2.0,2.25,-0.0003093836356450421,-0.09599978506854179,5.341831463701128e-06,0.20735166845316594,1.091,-2.2873716484458453,,,,,,
2,240613_095725,FalseCHOICE,9.0,3,2.0,583.0,,,,,,,,,,,4.0,3.0,,,B,,,,,,False,cue1.png,Hard,cue2.png,Easy,Right,Easy,Mid,0.0165060000144876,,,,,,,,,,,,,10,26,Female,,,,,,,,,,,,,,,,0.14285714285714285,1.75,1.0,1.5,2.2777777777777777,2.0,2.111111111111111,2.7777777777777777,2.5,2.4444444444444446,2.25,1.75,2.0,2.25,,,-5.1127544934484025e-05,-0.8552281960271891,1.602,0.9491506563369055,,,,,,
3,240613_095747,FalseCHOICE,9.0,4,2.0,583.0,,,,,,,,,,,5.0,4.0,,,B,,,,,,False,cue1.png,Hard,cue2.png,Easy,Right,Easy,Mid,0.0160610000020824,,,,,,,,,,,,,10,26,Female,0.905,0.9,0.357636433331451,,,,,,,,,,,,,0.14285714285714285,1.75,1.0,1.5,2.2777777777777777,2.0,2.111111111111111,2.7777777777777777,2.5,2.4444444444444446,2.25,1.75,2.0,2.25,-0.00036236683128887783,-0.2398147053844382,,,1.488,0.2271084983227493,,,,,,
4,240613_095809,FalseCHOICE,9.0,5,2.0,583.0,,,,,,,,,,,6.0,5.0,,,B,,,,,,False,cue2.png,Easy,cue1.png,Hard,Right,Hard,Mid,0.015484200004721,,,,,,,,,,,,,10,26,Female,,,,,,,,,,,,,,,,0.14285714285714285,1.75,1.0,1.5,2.2777777777777777,2.0,2.111111111111111,2.7777777777777777,2.5,2.4444444444444446,2.25,1.75,2.0,2.25,-0.0011135246264325424,-2.2787196287385467,-6.417229317851828e-05,-1.100690209341927,,,,,,,,
5,240613_095831,FalseCHOICE,9.0,6,2.0,583.0,,,,,,,,,,,7.0,6.0,,,B,,,,,,False,cue1.png,Hard,cue2.png,Easy,Left,Hard,Mid,0.0158868000144138,,,,,,,,,,,,,10,26,Female,0.7386363636363636,0.8181818181818181,0.3941534133259362,,,,,,,,,,,,,0.14285714285714285,1.75,1.0,1.5,2.2777777777777777,2.0,2.111111111111111,2.7777777777777777,2.5,2.4444444444444446,2.25,1.75,2.0,2.25,1.9231615842950182e-06,0.7489957213990422,8.821738620335079e-05,1.766814537372352,1.456,0.024429997827547543,,,,,,
6,240613_095853,FalseCHOICE,9.0,7,2.0,583.0,,,,,,,,,,,8.0,7.0,,,B,,,,,,False,cue1.png,Hard,cue2.png,Easy,Left,Hard,Mid,0.0160865999932866,,,,,,,,,,,,,10,26,Female,0.905,0.9,0.3711846066677632,,,,,,,,,,,,,0.14285714285714285,1.75,1.0,1.5,2.2777777777777777,2.0,2.111111111111111,2.7777777777777777,2.5,2.4444444444444446,2.25,1.75,2.0,2.25,,,-4.017278898894123e-05,-0.6490934052699756,1.4669999999999999,0.09410073237277244,,,,,,
7,240613_095915,FalseCHOICE,9.0,8,2.0,583.0,,,,,,,,,,,9.0,8.0,,,B,,,,,,False,cue2.png,Easy,cue1.png,Hard,Right,Hard,Mid,0.014173200004734,,,,,,,,,,,,,10,26,Female,,,,,,,,,,,,,,,,0.14285714285714285,1.75,1.0,1.5,2.2777777777777777,2.0,2.111111111111111,2.7777777777777777,2.5,2.4444444444444446,2.25,1.75,2.0,2.25,-9.65746923895644e-06,0.7175618397915728,,,,,,,,,,
8,240613_095937,FalseCHOICE,9.0,9,2.0,583.0,,,,,,,,,,,10.0,9.0,,,B,,,,,,False,cue2.png,Easy,cue1.png,Hard,Right,Hard,Mid,0.0166761000000406,,,,,,,,,,,,,10,26,Female,1.0,1.0,0.3680605266650673,,,,,,,,,,,,,0.14285714285714285,1.75,1.0,1.5,2.2777777777777777,2.0,2.111111111111111,2.7777777777777777,2.5,2.4444444444444446,2.25,1.75,2.0,2.25,,,-3.1298930477465826e-05,-0.4821146997136589,,,,,,,,
9,240613_095958,FalseCHOICE,9.0,10,2.0,583.0,,,,,,,,,,,11.0,10.0,,,B,,,,,,False,cue1.png,Hard,cue2.png,Easy,Left,Hard,Mid,0.0160335999971721,,,,,,,,,,,,,10,26,Female,,,,,,,,,,,,,,,,0.14285714285714285,1.75,1.0,1.5,2.2777777777777777,2.0,2.111111111111111,2.7777777777777777,2.5,2.4444444444444446,2.25,1.75,2.0,2.25,-8.2553395985621e-05,0.5196968041131391,5.3469183250969086e-05,1.112960304527233,1.593,0.8921473280726293,,,,,,
0,240613_093003,OFFLINERATING,9.0,1,1.0,,,,,,,,,,,,,,,,,T0,cue2.png,Easy,76.0,1.2562535000033677,,,,,,,,,,,,,,,,,,,,,,10,26,Female,,,,,,,,,,,,,,,,0.14285714285714285,1.75,1.0,1.5,2.2777777777777777,2.0,2.111111111111111,2.7777777777777777,2.5,2.4444444444444446,2.25,1.75,2.0,2.25,,,,,,,6.585211626857585e-05,0.17540627312487722,,,,
1,240613_093009,OFFLINERATING,9.0,2,3.0,,,,,,,,,,,,,,,,,T0,cue1.png,Hard,78.0,0.568041299993638,,,,,,,,,,,,,,,,,,,,,,10,26,Female,,,,,,,,,,,,,,,,0.14285714285714285,1.75,1.0,1.5,2.2777777777777777,2.0,2.111111111111111,2.7777777777777777,2.5,2.4444444444444446,2.25,1.75,2.0,2.25,,,,,,,,,,,1.5819999999999999,1.0
2,240613_095036,OFFLINERATING,9.0,3,1.0,,,,,,,,,,,,,,,,,T1,cue2.png,Easy,72.0,0.8733221000002231,,,,,,,,,,,,,,,,,,,,,,10,26,Female,,,,,,,,,,,,,,,,0.14285714285714285,1.75,1.0,1.5,2.2777777777777777,2.0,2.111111111111111,2.7777777777777777,2.5,2.4444444444444446,2.25,1.75,2.0,2.25,,,,,,,0.00019447182739475329,1.1275846809982126,0.00012453916126916502,0.37933156131596135,,
3,240613_095043,OFFLINERATING,9.0,4,3.0,,,,,,,,,,,,,,,,,T1,cue1.png,Hard,80.0,0.6015030999842566,,,,,,,,,,,,,,,,,,,,,,10,26,Female,,,,,,,,,,,,,,,,0.14285714285714285,1.75,1.0,1.5,2.2777777777777777,2.0,2.111111111111111,2.7777777777777777,2.5,2.4444444444444446,2.25,1.75,2.0,2.25,,,,,,,-0.00013384893001231217,-1.30299095412309,-4.517185578195885e-05,-1.2360869750529273,,
4,240613_095515,OFFLINERATING,9.0,5,1.0,,,,,,,,,,,,,,,,,T2,cue2.png,Easy,80.0,0.985219700000016,,,,,,,,,,,,,,,,,,,,,,10,26,Female,,,,,,,,,,,,,,,,0.14285714285714285,1.75,1.0,1.5,2.2777777777777777,2.0,2.111111111111111,2.7777777777777777,2.5,2.4444444444444446,2.25,1.75,2.0,2.25,,,,,,,,,,,1.4540000000000002,-1.0
5,240613_095522,OFFLINERATING,9.0,6,3.0,,,,,,,,,,,,,,,,,T2,cue1.png,Hard,87.0,0.7183407999982592,,,,,,,,,,,,,,,,,,,,,,10,26,Female,,,,,,,,,,,,,,,,0.14285714285714285,1.75,1.0,1.5,2.2777777777777777,2.0,2.111111111111111,2.7777777777777777,2.5,2.4444444444444446,2.25,1.75,2.0,2.25,,,,,,,,,2.5659337786518733e-05,-0.5618701502890823,,
6,240613_101440,OFFLINERATING,9.0,7,1.0,,,,,,,,,,,,,,,,,T3,cue2.png,Easy,91.0,1.473153099999763,,,,,,,,,,,,,,,,,,,,,,10,26,Female,,,,,,,,,,,,,,,,0.14285714285714285,1.75,1.0,1.5,2.2777777777777777,2.0,2.111111111111111,2.7777777777777777,2.5,2.4444444444444446,2.25,1.75,2.0,2.25,,,,,,,,,0.00023372426608511297,1.4186255640260481,,
7,240613_101448,OFFLINERATING,9.0,8,3.0,,,,,,,,,,,,,,,,,T3,cue1.png,Hard,67.0,1.2519727000035346,,,,,,,,,,,,,,,,,,,,,,10,26,Female,,,,,,,,,,,,,,,,0.14285714285714285,1.75,1.0,1.5,2.2777777777777777,2.0,2.111111111111111,2.7777777777777777,2.5,2.4444444444444446,2.25,1.75,2.0,2.25,,,,,,,,,,,,
