,END,Phase,Block,TrialN,NbackLevel,ISI,Letter_Resp,Letter_RT,Letter_Accuracy,Trial_A_measure,Trial_ACC,Trial_RT,TrialCountCali,CaliEnd_A_measure,ISI_calibrated,TrialIndex,TrialNumber_total,TrialNumber_valid,CueLearning,TrialDemandLearning,CueMapping,OfflineRatingTimePoint,CueFigure,TrialDemand,OfflineRating,OfflineRatingRT,PhaseType,CueLeft,CueDemandLeft,CueRight,CueDemandRight,Choice,ChoiceDemand,TaskDemand,ChoiceRT,CueCheck,CueDemandCheck,CorrectAnswer,Answer,AnswerDemand,AnswerRT,AnswerACC,DemandRatingQuesIndex,QuesTLX,DemandLevel,DemandRating,DemandRatingRT,PID,Age,Gender,Task_A_measure,Task_ACC,Task_RT,cue_i_on_zyg_values,cue_i_on_zyg_zvalues,cue_e_on_zyg_values,cue_e_on_zyg_zvalues,cue_i_on_cor_values,cue_i_on_cor_zvalues,cue_e_on_cor_values,cue_e_on_cor_zvalues,cue_i_on_scr_values,cue_i_on_scr_zvalues,cue_e_on_scr_values,cue_e_on_scr_zvalues,BAI_bis,BAI_bas_d,BAI_bas_rr,BAI_bas_fs,NFC,BFI_ext,BFI_agr,BFI_con,BFI_neu,BFI_open,UPPS_lps,UPPS_lpm,UPPS_pu,UPPS_ss,cue_e_true_zyg_values,cue_e_true_zyg_zvalues,cue_e_true_cor_values,cue_e_true_cor_zvalues,cue_e_true_scr_values,cue_e_true_scr_zvalues,cue_i_off_zyg_values,cue_i_off_zyg_zvalues,cue_i_off_cor_values,cue_i_off_cor_zvalues,cue_i_off_scr_values,cue_i_off_scr_zvalues
0,240615_093800,LEARNING,1.0,1,1.0,202.0,,,,,,,,,,1.0,1.0,1.0,cue2.png,Easy,B,,,,,,,,,,,,,,,,,,,,,,,,,,,14,34,Female,1.0,1.0,0.4086369904717208,0.00013524207994013463,-0.12425508924761978,4.6656049236989006e-05,0.10973198384195466,-2.9586979231791422e-05,-0.6159612473649578,0.0002427098323147898,0.5528378311503962,,,1.4100000000000001,0.11277405100539939,0.7142857142857143,1.75,0.2,1.75,1.1111111111111112,2.5,2.2222222222222223,2.6666666666666665,3.0,1.5555555555555556,2.0,1.75,2.0,2.75,,,,,,,,,,,,
1,240615_093832,LEARNING,1.0,2,3.0,202.0,,,,,,,,,,2.0,2.0,2.0,cue1.png,Hard,B,,,,,,,,,,,,,,,,,,,,,,,,,,,14,34,Female,0.6428571428571429,0.4047619047619047,0.3966158000053837,-0.0001351668676921611,-0.39676836933417725,-5.8441023197890445e-05,-0.029037770796967823,-0.00010206445694768435,-0.8077595625598927,-0.0002742468125754853,-0.6570639981518571,1.462,0.041985022213139996,1.449,0.190954132073134,0.7142857142857143,1.75,0.2,1.75,1.1111111111111112,2.5,2.2222222222222223,2.6666666666666665,3.0,1.5555555555555556,2.0,1.75,2.0,2.75,,,,,,,,,,,,
2,240615_093902,LEARNING,1.0,3,1.0,202.0,,,,,,,,,,3.0,3.0,3.0,cue2.png,Easy,B,,,,,,,,,,,,,,,,,,,,,,,,,,,14,34,Female,1.0,1.0,0.4090708666675103,-3.2144954542870537e-06,-0.2637891388442066,-0.0004951145392815739,-0.6056197371671125,-0.00024034463472299853,-1.173692621463039,0.00024778532932400853,0.5647166863247508,1.139,-0.5036295493899369,1.1390000000000002,-0.4304772815421933,0.7142857142857143,1.75,0.2,1.75,1.1111111111111112,2.5,2.2222222222222223,2.6666666666666665,3.0,1.5555555555555556,2.0,1.75,2.0,2.75,,,,,,,,,,,,
3,240615_093933,LEARNING,1.0,4,3.0,202.0,,,,,,,,,,4.0,4.0,4.0,cue1.png,Hard,B,,,,,,,,,,,,,,,,,,,,,,,,,,,14,34,Female,0.6607142857142857,0.5714285714285715,0.357322973315604,-9.345609898172777e-06,-0.2699679658479689,-2.532753455549222e-06,0.044783285248514826,0.00048009393153031297,0.7328155458119312,5.8659585300796947e-05,0.12208075945625764,1.593,0.2632714274143879,1.5859999999999999,0.46558672454184286,0.7142857142857143,1.75,0.2,1.75,1.1111111111111112,2.5,2.2222222222222223,2.6666666666666665,3.0,1.5555555555555556,2.0,1.75,2.0,2.75,,,,,,,,,,,,
4,240615_094004,LEARNING,1.0,5,3.0,202.0,,,,,,,,,,5.0,5.0,5.0,cue1.png,Hard,B,,,,,,,,,,,,,,,,,,,,,,,,,,,14,34,Female,0.1666666666666666,0.4285714285714286,0.4068360749988642,-4.475632302286493e-05,-0.30565424645483685,0.00016351569409860664,0.2640329921282365,-0.00011846890312646775,-0.8511709123743841,6.23306242670818e-05,0.1306725762065591,1.5719999999999998,0.22779803421418765,1.568,0.4295036102028888,0.7142857142857143,1.75,0.2,1.75,1.1111111111111112,2.5,2.2222222222222223,2.6666666666666665,3.0,1.5555555555555556,2.0,1.75,2.0,2.75,,,,,,,,,,,,
5,240615_094035,LEARNING,1.0,6,1.0,202.0,,,,,,,,,,6.0,6.0,6.0,cue2.png,Easy,B,,,,,,,,,,,,,,,,,,,,,,,,,,,14,34,Female,1.0,1.0,0.4825622809529748,-0.00012575810394369839,-0.38728638623745065,-0.0001140206734837842,-0.10242491902480838,0.000160890433374734,-0.11189780625253408,-0.00023276172901712548,-0.5599709846813177,-0.00550000000000006,-2.4369294788008395,,,0.7142857142857143,1.75,0.2,1.75,1.1111111111111112,2.5,2.2222222222222223,2.6666666666666665,3.0,1.5555555555555556,2.0,1.75,2.0,2.75,,,,,,,,,,,,
6,240615_094106,LEARNING,1.0,7,3.0,202.0,,,,,,,,,,7.0,7.0,7.0,cue1.png,Hard,B,,,,,,,,,,,,,,,,,,,,,,,,,,,14,34,Female,0.5583333333333333,0.3904761904761905,0.2583538090958344,-0.00017206859733726217,-0.4339572696072864,-0.0001556320744521473,-0.15736844664913419,6.33737156468259e-05,-0.3699578650872177,-0.0006665852658205868,-1.5753054347961597,1.449,0.020025302613016323,2.2190000000000003,1.7345095787950773,0.7142857142857143,1.75,0.2,1.75,1.1111111111111112,2.5,2.2222222222222223,2.6666666666666665,3.0,1.5555555555555556,2.0,1.75,2.0,2.75,,,,,,,,,,,,
7,240615_094137,LEARNING,1.0,8,3.0,202.0,,,,,,,,,,8.0,8.0,8.0,cue1.png,Hard,B,,,,,,,,,,,,,,,,,,,,,,,,,,,14,34,Female,0.6333333333333333,0.6571428571428573,0.4266513722314913,-2.1215046762592706e-05,-0.2819297711100558,3.583755062880247e-05,0.0954472814935634,,,8.197988025393857e-05,0.17666032198352313,,,,,0.7142857142857143,1.75,0.2,1.75,1.1111111111111112,2.5,2.2222222222222223,2.6666666666666665,3.0,1.5555555555555556,2.0,1.75,2.0,2.75,,,,,,,,,,,,
8,240615_094207,LEARNING,1.0,9,1.0,202.0,,,,,,,,,,9.0,9.0,9.0,cue2.png,Easy,B,,,,,,,,,,,,,,,,,,,,,,,,,,,14,34,Female,0.9305555555555556,0.8857142857142857,0.4081883200036827,6.5357558325725325e-06,-0.2539630107404007,-1.763105272141333e-05,0.024847551207138822,-0.00021620219547712274,-1.1098040961171898,0.00013321454832720915,0.29657157419056474,,,,,0.7142857142857143,1.75,0.2,1.75,1.1111111111111112,2.5,2.2222222222222223,2.6666666666666665,3.0,1.5555555555555556,2.0,1.75,2.0,2.75,,,,,,,,,,,,
9,240615_094235,LEARNING,1.0,10,1.0,202.0,,,,,,,,,,10.0,10.0,10.0,cue2.png,Easy,B,,,,,,,,,,,,,,,,,,,,,,,,,,,14,34,Female,0.8903061224489796,0.8809523809523809,0.3448010600084671,-0.00018325114266392684,-0.44522683791620893,-0.00011215165852334653,-0.09995707913671714,0.0003145023571501835,0.29460789872626075,-7.802433519383872e-05,-0.19781865005373012,1.44,0.004822419812930386,1.4300000000000002,0.15286640027090442,0.7142857142857143,1.75,0.2,1.75,1.1111111111111112,2.5,2.2222222222222223,2.6666666666666665,3.0,1.5555555555555556,2.0,1.75,2.0,2.75,,,,,,,,,,,,
10,240615_094309,LEARNING,1.0,11,3.0,202.0,,,,,,,,,,11.0,11.0,11.0,cue1.png,Hard,B,,,,,,,,,,,,,,,,,,,,,,,,,,,14,34,Female,0.8443877551020408,0.6428571428571429,0.5227611133401903,-6.388446450162483e-05,-0.3249312438396454,-6.208356868733821e-05,-0.03384737331130031,0.0004971805450684971,0.7780321260833506,2.5583658607551338e-05,0.044668805073663116,,,,,0.7142857142857143,1.75,0.2,1.75,1.1111111111111112,2.5,2.2222222222222223,2.6666666666666665,3.0,1.5555555555555556,2.0,1.75,2.0,2.75,,,,,,,,,,,,
11,240615_094338,LEARNING,1.0,12,1.0,202.0,,,,,,,,,,12.0,12.0,12.0,cue2.png,Easy,B,,,,,,,,,,,,,,,,,,,,,,,,,,,14,34,Female,1.0,1.0,0.4000982761942959,,,,,0.0013059245584526005,2.9182244186339354,,,,,1.089,-0.5307081547059563,0.7142857142857143,1.75,0.2,1.75,1.1111111111111112,2.5,2.2222222222222223,2.6666666666666665,3.0,1.5555555555555556,2.0,1.75,2.0,2.75,,,,,,,,,,,,
12,240615_094408,LEARNING,1.0,13,1.0,202.0,,,,,,,,,,13.0,13.0,13.0,cue2.png,Easy,B,,,,,,,,,,,,,,,,,,,,,,,,,,,14,34,Female,1.0,0.9523809523809524,0.4050632150028832,-0.00011222918504385539,-0.3736521847892257,0.0027979467739470726,3.7425252668797007,-0.0004987185231670674,-1.8574315988070285,0.0011820228817669034,2.751236068319413,,,,,0.7142857142857143,1.75,0.2,1.75,1.1111111111111112,2.5,2.2222222222222223,2.6666666666666665,3.0,1.5555555555555556,2.0,1.75,2.0,2.75,,,,,,,,,,,,
13,240615_094438,LEARNING,1.0,14,1.0,202.0,,,,,,,,,,14.0,14.0,14.0,cue2.png,Easy,B,,,,,,,,,,,,,,,,,,,,,,,,,,,14,34,Female,1.0,1.0,0.4168279333361646,5.2320336506902435e-05,-0.20782213276207487,2.49575253343042e-05,0.08108133955433085,5.5171840828000234e-05,-0.39166261836046207,0.00030031075420726243,0.6876488669617087,1.514,0.12982390061363544,,,0.7142857142857143,1.75,0.2,1.75,1.1111111111111112,2.5,2.2222222222222223,2.6666666666666665,3.0,1.5555555555555556,2.0,1.75,2.0,2.75,,,,,,,,,,,,
14,240615_094508,LEARNING,1.0,15,3.0,202.0,,,,,,,,,,15.0,15.0,15.0,cue1.png,Hard,B,,,,,,,,,,,,,,,,,,,,,,,,,,,14,34,Female,0.5,0.523809523809524,0.3232694071318422,0.0005928984292379738,0.33696275872531495,-0.0026649469842158447,-3.470657830189874,0.00020145557878167072,-0.004549609407351525,-0.000603867571932773,-1.4285189425157658,,,,,0.7142857142857143,1.75,0.2,1.75,1.1111111111111112,2.5,2.2222222222222223,2.6666666666666665,3.0,1.5555555555555556,2.0,1.75,2.0,2.75,,,,,,,,,,,,
15,240615_094538,LEARNING,1.0,16,1.0,202.0,,,,,,,,,,16.0,16.0,16.0,cue2.png,Easy,B,,,,,,,,,,,,,,,,,,,,,,,,,,,14,34,Female,1.0,1.0,0.4328682809497141,-0.00016183109693420662,-0.4236401005966005,-2.1094382514705388e-05,0.02027458438214374,-0.0002767303283693892,-1.2699806678811674,5.3695344219278386e-05,0.11046229120559507,,,,,0.7142857142857143,1.75,0.2,1.75,1.1111111111111112,2.5,2.2222222222222223,2.6666666666666665,3.0,1.5555555555555556,2.0,1.75,2.0,2.75,,,,,,,,,,,,
16,240615_094607,LEARNING,1.0,17,1.0,202.0,,,,,,,,,,17.0,17.0,17.0,cue2.png,Easy,B,,,,,,,,,,,,,,,,,,,,,,,,,,,14,34,Female,1.0,1.0,0.3912939809490039,,,,,-0.00012579030441714533,-0.8705456543862748,0.00017631659719315618,0.3974489848690815,,,,,0.7142857142857143,1.75,0.2,1.75,1.1111111111111112,2.5,2.2222222222222223,2.6666666666666665,3.0,1.5555555555555556,2.0,1.75,2.0,2.75,,,,,,,,,,,,
17,240615_094639,LEARNING,1.0,18,3.0,202.0,,,,,,,,,,18.0,18.0,18.0,cue1.png,Hard,B,,,,,,,,,,,,,,,,,,,,,,,,,,,14,34,Female,0.2166666666666666,0.5333333333333334,0.3964018499952674,,,5.742041273223237e-05,0.1239452064034553,0.0006836146406564254,1.2713956723262831,0.00022541777260738638,0.5123669427709038,,,,,0.7142857142857143,1.75,0.2,1.75,1.1111111111111112,2.5,2.2222222222222223,2.6666666666666665,3.0,1.5555555555555556,2.0,1.75,2.0,2.75,,,,,,,,,,,,
18,240615_094709,LEARNING,1.0,19,3.0,202.0,,,,,,,,,,19.0,19.0,19.0,cue1.png,Hard,B,,,,,,,,,,,,,,,,,,,,,,,,,,,14,34,Female,0.6333333333333333,0.7047619047619048,0.4053734052668963,,,-8.64708455614472e-06,0.03670994688662553,,,-0.0006906763841434639,-1.631689056937186,,,,,0.7142857142857143,1.75,0.2,1.75,1.1111111111111112,2.5,2.2222222222222223,2.6666666666666665,3.0,1.5555555555555556,2.0,1.75,2.0,2.75,,,,,,,,,,,,
19,240615_094741,LEARNING,1.0,20,3.0,202.0,,,,,,,,,,20.0,20.0,20.0,cue1.png,Hard,B,,,,,,,,,,,,,,,,,,,,,,,,,,,14,34,Female,0.0833333333333333,0.4285714285714286,0.4498561187538143,,,8.17266770605134e-06,0.0589186805881152,-0.000149565018133064,-0.9334610617467491,0.0006947977615671371,1.610918848222883,1.8250000000000002,0.6551679618165983,0.915,-0.8795115933158498,0.7142857142857143,1.75,0.2,1.75,1.1111111111111112,2.5,2.2222222222222223,2.6666666666666665,3.0,1.5555555555555556,2.0,1.75,2.0,2.75,,,,,,,,,,,,
20,240615_094811,LEARNING,1.0,21,1.0,202.0,,,,,,,,,,21.0,21.0,21.0,cue2.png,Easy,B,,,,,,,,,,,,,,,,,,,,,,,,,,,14,34,Female,1.0,1.0,0.4077398000018937,6.638447177680735e-05,-0.19364854987015623,,,2.2730896058114312e-05,-0.4775116123691437,0.00042704912050332226,0.9842713840335778,0.732,-1.191137693793814,1.6749999999999998,0.6439976787733401,0.7142857142857143,1.75,0.2,1.75,1.1111111111111112,2.5,2.2222222222222223,2.6666666666666665,3.0,1.5555555555555556,2.0,1.75,2.0,2.75,,,,,,,,,,,,
21,240615_094841,LEARNING,1.0,22,3.0,202.0,,,,,,,,,,22.0,22.0,22.0,cue1.png,Hard,B,,,,,,,,,,,,,,,,,,,,,,,,,,,14,34,Female,0.6785714285714286,0.5,0.3492464933272761,0.0002852979896440836,0.026968561108066672,-0.0003868877267438741,-0.4627174861979893,0.0006927053496481451,1.2954525617695667,-0.00023379249966631486,-0.5623834332035917,2.691,2.1180231290248472,0.8729999999999998,-0.9637055267734108,0.7142857142857143,1.75,0.2,1.75,1.1111111111111112,2.5,2.2222222222222223,2.6666666666666665,3.0,1.5555555555555556,2.0,1.75,2.0,2.75,,,,,,,,,,,,
22,240615_094910,LEARNING,1.0,23,3.0,202.0,,,,,,,,,,23.0,23.0,23.0,cue1.png,Hard,B,,,,,,,,,,,,,,,,,,,,,,,,,,,14,34,Female,0.0833333333333333,0.6190476190476191,0.3711305350007023,,,,,0.00028594585953875757,0.2190383797205152,-0.00017297647637315667,-0.4200476714708098,2.006,0.9609148270183219,2.2359999999999998,1.7685880756707555,0.7142857142857143,1.75,0.2,1.75,1.1111111111111112,2.5,2.2222222222222223,2.6666666666666665,3.0,1.5555555555555556,2.0,1.75,2.0,2.75,,,,,,,,,,,,
23,240615_094939,LEARNING,1.0,24,3.0,202.0,,,,,,,,,,24.0,24.0,24.0,cue1.png,Hard,B,,,,,,,,,,,,,,,,,,,,,,,,,,,14,34,Female,0.1666666666666666,0.523809523809524,0.2912349166743095,-2.1169315546285417e-05,-0.281883684011728,,,0.0002761209551927447,0.19303857730046706,-0.00018857626747962025,-0.4565579204114137,,,1.208,-0.29215867657620154,0.7142857142857143,1.75,0.2,1.75,1.1111111111111112,2.5,2.2222222222222223,2.6666666666666665,3.0,1.5555555555555556,2.0,1.75,2.0,2.75,,,,,,,,,,,,
24,240615_095008,LEARNING,1.0,25,1.0,202.0,,,,,,,,,,25.0,25.0,25.0,cue2.png,Easy,B,,,,,,,,,,,,,,,,,,,,,,,,,,,14,34,Female,0.9305555555555556,0.9333333333333332,0.3950612047642824,,,,,0.0005031550457325314,0.7938425432999188,-0.0002646409934556051,-0.6345822325338595,1.3570000000000002,-0.13538194378785984,0.8840000000000001,-0.9416547346773824,0.7142857142857143,1.75,0.2,1.75,1.1111111111111112,2.5,2.2222222222222223,2.6666666666666665,3.0,1.5555555555555556,2.0,1.75,2.0,2.75,,,,,,,,,,,,
25,240615_095037,LEARNING,1.0,26,1.0,202.0,,,,,,,,,,26.0,26.0,26.0,cue2.png,Easy,B,,,,,,,,,,,,,,,,,,,,,,,,,,,14,34,Female,1.0,1.0,0.3670518238186127,0.005903869889338502,5.689264395600706,0.0009082130208733813,1.2473283677518505,0.0008610137655184489,1.7408498301953967,0.0003836020562925785,0.8825864884316483,1.1830000000000003,-0.4293043445895173,0.7850000000000001,-1.140111863541632,0.7142857142857143,1.75,0.2,1.75,1.1111111111111112,2.5,2.2222222222222223,2.6666666666666665,3.0,1.5555555555555556,2.0,1.75,2.0,2.75,,,,,,,,,,,,
26,240615_095106,LEARNING,1.0,27,3.0,202.0,,,,,,,,,,27.0,27.0,27.0,cue1.png,Hard,B,,,,,,,,,,,,,,,,,,,,,,,,,,,14,34,Female,0.6607142857142857,0.4761904761904763,0.2002949846075633,-1.2900624774486204e-05,-0.2735506459818306,,,0.0003785370525520135,0.464063943267925,,,1.432,-0.008691253787145834,,,0.7142857142857143,1.75,0.2,1.75,1.1111111111111112,2.5,2.2222222222222223,2.6666666666666665,3.0,1.5555555555555556,2.0,1.75,2.0,2.75,,,,,,,,,,,,
27,240615_095135,LEARNING,1.0,28,1.0,202.0,,,,,,,,,,28.0,28.0,28.0,cue2.png,Easy,B,,,,,,,,,,,,,,,,,,,,,,,,,,,14,34,Female,1.0,1.0,0.3831741761865227,,,0.0005172675634055623,0.7311255473200448,-0.00023670242561903186,-1.1640541849204924,0.0006313157957081364,1.4623436294309657,1.054,-0.6472123313907465,1.742,0.7783070488127822,0.7142857142857143,1.75,0.2,1.75,1.1111111111111112,2.5,2.2222222222222223,2.6666666666666665,3.0,1.5555555555555556,2.0,1.75,2.0,2.75,,,,,,,,,,,,
28,240615_095205,LEARNING,1.0,29,1.0,202.0,,,,,,,,,,29.0,29.0,29.0,cue2.png,Easy,B,,,,,,,,,,,,,,,,,,,,,,,,,,,14,34,Female,1.0,1.0,0.4078115571478736,,,4.216474204896299e-07,0.048684264364055485,,,0.0005772460747771506,1.335797129040885,0.919,-0.8752555733920325,1.374,0.04060782232749031,0.7142857142857143,1.75,0.2,1.75,1.1111111111111112,2.5,2.2222222222222223,2.6666666666666665,3.0,1.5555555555555556,2.0,1.75,2.0,2.75,,,,,,,,,,,,
29,240615_095234,LEARNING,1.0,30,3.0,202.0,,,,,,,,,,30.0,30.0,30.0,cue1.png,Hard,B,,,,,,,,,,,,,,,,,,,,,,,,,,,14,34,Female,0.775,0.7238095238095239,0.3629745333261477,-3.812624575350986e-05,-0.29897257367840135,-0.0017543403414213006,-2.2682964564087893,0.00012897342365284555,-0.19636030251537245,-0.00027381519498732897,-0.6560538265743543,,,2.049,1.393724610038284,0.7142857142857143,1.75,0.2,1.75,1.1111111111111112,2.5,2.2222222222222223,2.6666666666666665,3.0,1.5555555555555556,2.0,1.75,2.0,2.75,,,,,,,,,,,,
30,240615_095259,LEARNING,1.0,31,3.0,202.0,,,,,,,,,,31.0,31.0,31.0,cue1.png,Hard,B,,,,,,,,,,,,,,,,,,,,,,,,,,,14,34,Female,0.6190476190476191,0.7142857142857143,0.1865128904741834,0.00013168222720765302,-0.12784264488602573,,,,,3.743758039623495e-05,0.07241210192127066,2.019,0.9828745466184463,,,0.7142857142857143,1.75,0.2,1.75,1.1111111111111112,2.5,2.2222222222222223,2.6666666666666665,3.0,1.5555555555555556,2.0,1.75,2.0,2.75,,,,,,,,,,,,
31,240615_095326,LEARNING,1.0,32,1.0,202.0,,,,,,,,,,32.0,32.0,32.0,cue2.png,Easy,B,,,,,,,,,,,,,,,,,,,,,,,,,,,14,34,Female,0.9305555555555556,0.9333333333333332,0.2641430857114583,,,,,,,,,1.752,0.5318556902159026,1.399,0.09072325890937138,0.7142857142857143,1.75,0.2,1.75,1.1111111111111112,2.5,2.2222222222222223,2.6666666666666665,3.0,1.5555555555555556,2.0,1.75,2.0,2.75,,,,,,,,,,,,
32,240615_095356,LEARNING,1.0,33,1.0,202.0,,,,,,,,,,33.0,33.0,33.0,cue2.png,Easy,B,,,,,,,,,,,,,,,,,,,,,,,,,,,14,34,Female,1.0,1.0,0.4216730904798688,0.001310008450199374,1.0596533564523825,,,0.0008992014014449043,1.8419063854563649,-0.001168854986830157,-2.750833518745243,1.04,-0.6708612601908799,1.961,1.2173182732700623,0.7142857142857143,1.75,0.2,1.75,1.1111111111111112,2.5,2.2222222222222223,2.6666666666666665,3.0,1.5555555555555556,2.0,1.75,2.0,2.75,,,,,,,,,,,,
33,240615_095425,LEARNING,1.0,34,1.0,202.0,,,,,,,,,,34.0,34.0,34.0,cue2.png,Easy,B,,,,,,,,,,,,,,,,,,,,,,,,,,,14,34,Female,0.9305555555555556,0.8857142857142857,0.3944157999998424,-0.0001286451441619386,-0.39019589350968886,0.0009691385130356374,1.327774144239588,0.00010371924001598143,-0.26319085492726874,0.00011630723754629032,0.2570011644770824,-0.010000000000000009,-2.4445309202008825,0.8919999999999999,-0.9256177949711808,0.7142857142857143,1.75,0.2,1.75,1.1111111111111112,2.5,2.2222222222222223,2.6666666666666665,3.0,1.5555555555555556,2.0,1.75,2.0,2.75,,,,,,,,,,,,
34,240615_095454,LEARNING,1.0,35,3.0,202.0,,,,,,,,,,35.0,35.0,35.0,cue1.png,Hard,B,,,,,,,,,,,,,,,,,,,,,,,,,,,14,34,Female,0.7474489795918368,0.6904761904761905,0.3254376368315302,7.688414317923078e-05,-0.1830671696356669,-4.5173111757581836e-05,-0.011518873529078478,0.00023627998271764017,0.08760677093426403,-0.0001559405210125801,-0.38017617787767105,,,0.45300000000000007,-1.8056448613490155,0.7142857142857143,1.75,0.2,1.75,1.1111111111111112,2.5,2.2222222222222223,2.6666666666666665,3.0,1.5555555555555556,2.0,1.75,2.0,2.75,,,,,,,,,,,,
35,240615_095521,LEARNING,1.0,36,3.0,202.0,,,,,,,,,,36.0,36.0,36.0,cue1.png,Hard,B,,,,,,,,,,,,,,,,,,,,,,,,,,,14,34,Female,0.725,0.8,0.2761150619092707,-0.00014324605572358208,-0.4049104299063461,-1.138345564269394e-05,0.03309685343421977,0.0001980088330575361,-0.013670788063509461,0.00047859253854530505,1.1049052445205094,1.9609999999999999,0.8849004130178934,0.909,-0.8915392980955013,0.7142857142857143,1.75,0.2,1.75,1.1111111111111112,2.5,2.2222222222222223,2.6666666666666665,3.0,1.5555555555555556,2.0,1.75,2.0,2.75,,,,,,,,,,,,
36,240615_095550,LEARNING,1.0,37,1.0,202.0,,,,,,,,,,37.0,37.0,37.0,cue2.png,Easy,B,,,,,,,,,,,,,,,,,,,,,,,,,,,14,34,Female,1.0,0.9047619047619048,0.3511353105300498,0.00019228703887357902,-0.06676620432915618,,,0.00021617022786703894,0.03439000317576474,,,,,1.2870000000000001,-0.13379389697745642,0.7142857142857143,1.75,0.2,1.75,1.1111111111111112,2.5,2.2222222222222223,2.6666666666666665,3.0,1.5555555555555556,2.0,1.75,2.0,2.75,,,,,,,,,,,,
37,240615_095618,LEARNING,1.0,38,3.0,202.0,,,,,,,,,,38.0,38.0,38.0,cue1.png,Hard,B,,,,,,,,,,,,,,,,,,,,,,,,,,,14,34,Female,0.5666666666666667,0.7333333333333334,0.3637795666609669,-0.0001030984564865038,-0.36445040056377387,0.0003037072764018292,0.44914139741435777,0.0003558814416959248,0.404110035807966,,,1.788,0.5926672214162456,0.5860000000000001,-1.539030738733407,0.7142857142857143,1.75,0.2,1.75,1.1111111111111112,2.5,2.2222222222222223,2.6666666666666665,3.0,1.5555555555555556,2.0,1.75,2.0,2.75,,,,,,,,,,,,
38,240615_095645,LEARNING,1.0,39,3.0,202.0,,,,,,,,,,39.0,39.0,39.0,cue1.png,Hard,B,,,,,,,,,,,,,,,,,,,,,,,,,,,14,34,Female,0.7474489795918368,0.6904761904761905,0.2442052999977022,0.0009917499167900628,0.738918123338557,-0.0009642763838253118,-1.2250991626631904,0.0002708393942616894,0.17906189764631755,,,,,0.5430000000000001,-1.6252292896542426,0.7142857142857143,1.75,0.2,1.75,1.1111111111111112,2.5,2.2222222222222223,2.6666666666666665,3.0,1.5555555555555556,2.0,1.75,2.0,2.75,,,,,,,,,,,,
39,240615_095715,LEARNING,1.0,40,3.0,202.0,,,,,,,,,,40.0,40.0,40.0,cue1.png,Hard,B,,,,,,,,,,,,,,,,,,,,,,,,,,,14,34,Female,0.775,0.7714285714285715,0.3711832210599248,0.0015936051444535842,1.3454570106939228,,,,,,,2.407,1.6382877162221423,1.427,0.14685254788107846,0.7142857142857143,1.75,0.2,1.75,1.1111111111111112,2.5,2.2222222222222223,2.6666666666666665,3.0,1.5555555555555556,2.0,1.75,2.0,2.75,,,,,,,,,,,,
40,240615_095743,LEARNING,1.0,41,1.0,202.0,,,,,,,,,,41.0,41.0,41.0,cue2.png,Easy,B,,,,,,,,,,,,,,,,,,,,,,,,,,,14,34,Female,1.0,1.0,0.3321426523838281,-2.789319071596144e-05,-0.2886598846272217,-5.7617473297675616e-05,-0.027950358798345943,,,,,0.7690000000000001,-1.1286369533934613,1.919,1.1331243398125017,0.7142857142857143,1.75,0.2,1.75,1.1111111111111112,2.5,2.2222222222222223,2.6666666666666665,3.0,1.5555555555555556,2.0,1.75,2.0,2.75,,,,,,,,,,,,
41,240615_095811,LEARNING,1.0,42,3.0,202.0,,,,,,,,,,42.0,42.0,42.0,cue1.png,Hard,B,,,,,,,,,,,,,,,,,,,,,,,,,,,14,34,Female,0.6190476190476191,0.6190476190476191,0.3106968631618656,-3.931047892263015e-05,-0.3001660225939421,-5.194909352788414e-05,-0.02046585279232384,,,-7.761346611468226e-05,-0.1968570389488363,,,,,0.7142857142857143,1.75,0.2,1.75,1.1111111111111112,2.5,2.2222222222222223,2.6666666666666665,3.0,1.5555555555555556,2.0,1.75,2.0,2.75,,,,,,,,,,,,
42,240615_095839,LEARNING,1.0,43,3.0,202.0,,,,,,,,,,43.0,43.0,43.0,cue1.png,Hard,B,,,,,,,,,,,,,,,,,,,,,,,,,,,14,34,Female,0.0321428571428571,0.6428571428571428,0.3122598380986823,0.0003782749957525551,0.12066911772463826,-0.0003495319318047845,-0.41339304377594754,0.0006468907112167927,1.1742125470874383,-1.6603324231919542e-06,-0.01909390097025831,2.052,1.0386184502187605,0.5249999999999999,-1.6613124039931977,0.7142857142857143,1.75,0.2,1.75,1.1111111111111112,2.5,2.2222222222222223,2.6666666666666665,3.0,1.5555555555555556,2.0,1.75,2.0,2.75,,,,,,,,,,,,
43,240615_095908,LEARNING,1.0,44,1.0,202.0,,,,,,,,,,44.0,44.0,44.0,cue2.png,Easy,B,,,,,,,,,,,,,,,,,,,,,,,,,,,14,34,Female,1.0,1.0,0.3834696142917632,9.028686213538454e-05,-0.16956015022377108,1.8793567919477526e-05,0.0729424748053601,,,,,1.2590000000000001,-0.30092444538879354,2.376,2.049234520529291,0.7142857142857143,1.75,0.2,1.75,1.1111111111111112,2.5,2.2222222222222223,2.6666666666666665,3.0,1.5555555555555556,2.0,1.75,2.0,2.75,,,,,,,,,,,,
44,240615_095938,LEARNING,1.0,45,1.0,202.0,,,,,,,,,,45.0,45.0,45.0,cue2.png,Easy,B,,,,,,,,,,,,,,,,,,,,,,,,,,,14,34,Female,1.0,0.9523809523809524,0.4190681050007697,-1.9445504243674472e-05,-0.2801464579456602,0.0001325688988447352,0.2231709672901834,,,-0.0002683870022924329,-0.6433495111616877,1.9609999999999999,0.8849004130178934,1.4919999999999998,0.27715268299396917,0.7142857142857143,1.75,0.2,1.75,1.1111111111111112,2.5,2.2222222222222223,2.6666666666666665,3.0,1.5555555555555556,2.0,1.75,2.0,2.75,,,,,,,,,,,,
45,240615_100008,LEARNING,1.0,46,1.0,202.0,,,,,,,,,,46.0,46.0,46.0,cue2.png,Easy,B,,,,,,,,,,,,,,,,,,,,,,,,,,,14,34,Female,0.9305555555555556,0.8857142857142857,0.4032626800035359,-0.00010584670756378983,-0.3672200386328182,-3.940910402285003e-05,-0.00390810074012946,-9.503407000001655e-05,-0.7891549364853367,,,0.8889999999999998,-0.9259318493923188,1.169,-0.3703387576439362,0.7142857142857143,1.75,0.2,1.75,1.1111111111111112,2.5,2.2222222222222223,2.6666666666666665,3.0,1.5555555555555556,2.0,1.75,2.0,2.75,,,,,,,,,,,,
46,240615_100040,LEARNING,1.0,47,3.0,202.0,,,,,,,,,,47.0,47.0,47.0,cue1.png,Hard,B,,,,,,,,,,,,,,,,,,,,,,,,,,,14,34,Female,0.5583333333333333,0.580952380952381,0.4609887866691375,0.00010528336524000433,-0.15444694377608587,-0.00024572850645235983,-0.27633141557730095,0.00033275885972942724,0.34292037518655993,0.000123356422736112,0.2734993024554922,1.8310000000000002,0.6653032170166555,1.8119999999999998,0.9186302712420494,0.7142857142857143,1.75,0.2,1.75,1.1111111111111112,2.5,2.2222222222222223,2.6666666666666665,3.0,1.5555555555555556,2.0,1.75,2.0,2.75,,,,,,,,,,,,
47,240615_100111,LEARNING,1.0,48,3.0,202.0,,,,,,,,,,48.0,48.0,48.0,cue1.png,Hard,B,,,,,,,,,,,,,,,,,,,,,,,,,,,14,34,Female,0.1428571428571428,0.4285714285714285,0.3994528000023112,-4.680779954828983e-07,-0.2610213486629311,-9.37786669650254e-05,-0.07569745447294719,,,7.98027314152924e-06,0.0034692799533825817,1.4709999999999999,0.05718790501322556,1.4140000000000001,0.1207925208585004,0.7142857142857143,1.75,0.2,1.75,1.1111111111111112,2.5,2.2222222222222223,2.6666666666666665,3.0,1.5555555555555556,2.0,1.75,2.0,2.75,,,,,,,,,,,,
48,240615_100140,LEARNING,1.0,49,1.0,202.0,,,,,,,,,,49.0,49.0,49.0,cue2.png,Easy,B,,,,,,,,,,,,,,,,,,,,,,,,,,,14,34,Female,1.0,1.0,0.3802896190456868,,,0.0002710545998264079,0.40602693369337306,,,-0.0006618718397350658,-1.5642739819663714,,,1.5859999999999999,0.46558672454184286,0.7142857142857143,1.75,0.2,1.75,1.1111111111111112,2.5,2.2222222222222223,2.6666666666666665,3.0,1.5555555555555556,2.0,1.75,2.0,2.75,,,,,,,,,,,,
49,240615_100210,LEARNING,1.0,50,1.0,202.0,,,,,,,,,,50.0,50.0,50.0,cue2.png,Easy,B,,,,,,,,,,,,,,,,,,,,,,,,,,,14,34,Female,0.8388888888888889,0.7238095238095239,0.3796310333289309,-0.00015677090839303492,-0.4185405334806253,7.162606453875453e-05,0.1427022923051441,-0.00036128970681769497,-1.4937515113408528,,,,,,,0.7142857142857143,1.75,0.2,1.75,1.1111111111111112,2.5,2.2222222222222223,2.6666666666666665,3.0,1.5555555555555556,2.0,1.75,2.0,2.75,,,,,,,,,,,,
0,240615_100336,TrueCHOICE,9.0,1,1.0,202.0,,,,,,,,,,,2.0,1.0,,,B,,,,,,True,cue2.png,Easy,cue1.png,Hard,Left,Easy,Easy,0.016406700015068,,,,,,,,,,,,,14,34,Female,0.725,0.7523809523809524,0.3537450549949426,,,,,,,,,,,,,0.7142857142857143,1.75,0.2,1.75,1.1111111111111112,2.5,2.2222222222222223,2.6666666666666665,3.0,1.5555555555555556,2.0,1.75,2.0,2.75,8.798471526157061e-06,-0.34901814760244415,,,1.4569999999999999,-0.3586060381896432,,,,,,
1,240615_100403,TrueCHOICE,9.0,2,1.0,202.0,,,,,,,,,,,3.0,2.0,,,B,,,,,,True,cue2.png,Easy,cue1.png,Hard,Left,Easy,Easy,0.0154407999943941,,,,,,,,,,,,,14,34,Female,,,,,,,,,,,,,,,,0.7142857142857143,1.75,0.2,1.75,1.1111111111111112,2.5,2.2222222222222223,2.6666666666666665,3.0,1.5555555555555556,2.0,1.75,2.0,2.75,,,1.270436684791109e-05,-0.41152152634251027,1.1039999999999999,-0.9623640579715697,,,,,,
2,240615_100430,TrueCHOICE,9.0,3,1.0,202.0,,,,,,,,,,,4.0,3.0,,,B,,,,,,True,cue1.png,Hard,cue2.png,Easy,Right,Easy,Easy,0.0170115000219084,,,,,,,,,,,,,14,34,Female,1.0,1.0,0.3916639047647117,,,,,,,,,,,,,0.7142857142857143,1.75,0.2,1.75,1.1111111111111112,2.5,2.2222222222222223,2.6666666666666665,3.0,1.5555555555555556,2.0,1.75,2.0,2.75,0.00017602709965607206,0.7737526770685885,-2.4638626880104254e-05,-0.6235206179964675,1.5999999999999999,-0.11402417748478344,,,,,,
3,240615_100500,TrueCHOICE,9.0,4,3.0,202.0,,,,,,,,,,,5.0,4.0,,,B,,,,,,True,cue2.png,Easy,cue1.png,Hard,Right,Hard,Hard,0.0166093000443652,,,,,,,,,,,,,14,34,Female,0.0892857142857143,0.4285714285714286,0.41816581999495,,,,,,,,,,,,,0.7142857142857143,1.75,0.2,1.75,1.1111111111111112,2.5,2.2222222222222223,2.6666666666666665,3.0,1.5555555555555556,2.0,1.75,2.0,2.75,,,,,,,,,,,,
4,240615_100526,TrueCHOICE,9.0,5,1.0,202.0,,,,,,,,,,,6.0,5.0,,,B,,,,,,True,cue1.png,Hard,cue2.png,Easy,Right,Easy,Easy,0.0167908999719657,,,,,,,,,,,,,14,34,Female,0.7000000000000001,0.6285714285714286,0.2138466437427268,,,,,,,,,,,,,0.7142857142857143,1.75,0.2,1.75,1.1111111111111112,2.5,2.2222222222222223,2.6666666666666665,3.0,1.5555555555555556,2.0,1.75,2.0,2.75,,,,,,,,,,,,
5,240615_100559,TrueCHOICE,9.0,6,1.0,202.0,,,,,,,,,,,8.0,6.0,,,B,,,,,,True,cue1.png,Hard,cue2.png,Easy,Right,Easy,Easy,0.0169787000049836,,,,,,,,,,,,,14,34,Female,0.9305555555555556,0.9333333333333332,0.3815851047651709,,,,,,,,,,,,,0.7142857142857143,1.75,0.2,1.75,1.1111111111111112,2.5,2.2222222222222223,2.6666666666666665,3.0,1.5555555555555556,2.0,1.75,2.0,2.75,-0.00011720833386910396,-1.1950261929347923,0.0001559420140641492,0.40164978289055703,1.4560000000000002,-0.36031640085191435,,,,,,
6,240615_100628,TrueCHOICE,9.0,7,3.0,202.0,,,,,,,,,,,9.0,7.0,,,B,,,,,,True,cue2.png,Easy,cue1.png,Hard,Right,Hard,Hard,0.0165045000030659,,,,,,,,,,,,,14,34,Female,,,,,,,,,,,,,,,,0.7142857142857143,1.75,0.2,1.75,1.1111111111111112,2.5,2.2222222222222223,2.6666666666666665,3.0,1.5555555555555556,2.0,1.75,2.0,2.75,0.0003013051026345354,1.6148675524952762,,,1.453,-0.3654474888387298,,,,,,
7,240615_100654,TrueCHOICE,9.0,8,1.0,202.0,,,,,,,,,,,10.0,8.0,,,B,,,,,,True,cue1.png,Hard,cue2.png,Easy,Right,Easy,Easy,0.0167554999934509,,,,,,,,,,,,,14,34,Female,1.0,1.0,0.3753127761939097,,,,,,,,,,,,,0.7142857142857143,1.75,0.2,1.75,1.1111111111111112,2.5,2.2222222222222223,2.6666666666666665,3.0,1.5555555555555556,2.0,1.75,2.0,2.75,-0.00010130161184958427,-1.0882286690933938,-0.00019314779971247144,-1.5801603517042913,,,,,,,,
8,240615_100722,TrueCHOICE,9.0,9,3.0,202.0,,,,,,,,,,,11.0,9.0,,,B,,,,,,True,cue2.png,Easy,cue1.png,Hard,Right,Hard,Hard,0.0164642999880015,,,,,,,,,,,,,14,34,Female,0.8443877551020408,0.6904761904761905,0.3611512312454579,,,,,,,,,,,,,0.7142857142857143,1.75,0.2,1.75,1.1111111111111112,2.5,2.2222222222222223,2.6666666666666665,3.0,1.5555555555555556,2.0,1.75,2.0,2.75,,,0.0003521029139353206,1.5152705304288758,,,,,,,,
9,240615_100749,TrueCHOICE,9.0,10,1.0,202.0,,,,,,,,,,,12.0,10.0,,,B,,,,,,True,cue1.png,Hard,cue2.png,Easy,Right,Easy,Easy,0.0166119000059552,,,,,,,,,,,,,14,34,Female,0.9362244897959184,0.9285714285714286,0.3154393999942667,,,,,,,,,,,,,0.7142857142857143,1.75,0.2,1.75,1.1111111111111112,2.5,2.2222222222222223,2.6666666666666665,3.0,1.5555555555555556,2.0,1.75,2.0,2.75,9.707253778152604e-05,0.24365278006676544,0.0002081929070282631,0.6982821827238365,2.93,2.1607581633366397,,,,,,
0,240615_100940,FalseCHOICE,9.0,1,2.0,202.0,,,,,,,,,,,1.0,1.0,,,B,,,,,,False,cue2.png,Easy,cue1.png,Hard,Left,Easy,Mid,0.0174196999869309,,,,,,,,,,,,,14,34,Female,0.9362244897959184,0.9285714285714286,0.3185292428520153,,,,,,,,,,,,,0.7142857142857143,1.75,0.2,1.75,1.1111111111111112,2.5,2.2222222222222223,2.6666666666666665,3.0,1.5555555555555556,2.0,1.75,2.0,2.75,8.798471526157061e-06,-0.34901814760244415,,,1.4569999999999999,-0.3586060381896432,,,,,,
1,240615_101010,FalseCHOICE,9.0,2,2.0,202.0,,,,,,,,,,,3.0,2.0,,,B,,,,,,False,cue1.png,Hard,cue2.png,Easy,Right,Easy,Mid,0.0166570000001229,,,,,,,,,,,,,14,34,Female,,,,,,,,,,,,,,,,0.7142857142857143,1.75,0.2,1.75,1.1111111111111112,2.5,2.2222222222222223,2.6666666666666665,3.0,1.5555555555555556,2.0,1.75,2.0,2.75,,,1.270436684791109e-05,-0.41152152634251027,1.1039999999999999,-0.9623640579715697,,,,,,
2,240615_101047,FalseCHOICE,9.0,3,2.0,202.0,,,,,,,,,,,6.0,3.0,,,B,,,,,,False,cue1.png,Hard,cue2.png,Easy,Left,Hard,Mid,0.0166508000111207,,,,,,,,,,,,,14,34,Female,,,,,,,,,,,,,,,,0.7142857142857143,1.75,0.2,1.75,1.1111111111111112,2.5,2.2222222222222223,2.6666666666666665,3.0,1.5555555555555556,2.0,1.75,2.0,2.75,0.00017602709965607206,0.7737526770685885,-2.4638626880104254e-05,-0.6235206179964675,1.5999999999999999,-0.11402417748478344,,,,,,
3,240615_101112,FalseCHOICE,9.0,4,2.0,202.0,,,,,,,,,,,7.0,4.0,,,B,,,,,,False,cue1.png,Hard,cue2.png,Easy,Left,Hard,Mid,0.0143241999903693,,,,,,,,,,,,,14,34,Female,0.5,0.6666666666666667,0.2776265900029102,,,,,,,,,,,,,0.7142857142857143,1.75,0.2,1.75,1.1111111111111112,2.5,2.2222222222222223,2.6666666666666665,3.0,1.5555555555555556,2.0,1.75,2.0,2.75,,,,,,,,,,,,
4,240615_101138,FalseCHOICE,9.0,5,2.0,202.0,,,,,,,,,,,8.0,5.0,,,B,,,,,,False,cue2.png,Easy,cue1.png,Hard,Left,Easy,Mid,0.0134720000205561,,,,,,,,,,,,,14,34,Female,,,,,,,,,,,,,,,,0.7142857142857143,1.75,0.2,1.75,1.1111111111111112,2.5,2.2222222222222223,2.6666666666666665,3.0,1.5555555555555556,2.0,1.75,2.0,2.75,,,,,,,,,,,,
5,240615_101205,FalseCHOICE,9.0,6,2.0,202.0,,,,,,,,,,,9.0,6.0,,,B,,,,,,False,cue1.png,Hard,cue2.png,Easy,Right,Easy,Mid,0.0166928000398911,,,,,,,,,,,,,14,34,Female,0.1833333333333333,0.5428571428571429,0.2965250823455041,,,,,,,,,,,,,0.7142857142857143,1.75,0.2,1.75,1.1111111111111112,2.5,2.2222222222222223,2.6666666666666665,3.0,1.5555555555555556,2.0,1.75,2.0,2.75,-0.00011720833386910396,-1.1950261929347923,0.0001559420140641492,0.40164978289055703,1.4560000000000002,-0.36031640085191435,,,,,,
6,240615_101233,FalseCHOICE,9.0,7,2.0,202.0,,,,,,,,,,,10.0,7.0,,,B,,,,,,False,cue1.png,Hard,cue2.png,Easy,Right,Easy,Mid,0.0164962999988347,,,,,,,,,,,,,14,34,Female,0.15,0.5523809523809524,0.4755192550044739,,,,,,,,,,,,,0.7142857142857143,1.75,0.2,1.75,1.1111111111111112,2.5,2.2222222222222223,2.6666666666666665,3.0,1.5555555555555556,2.0,1.75,2.0,2.75,0.0003013051026345354,1.6148675524952762,,,1.453,-0.3654474888387298,,,,,,
7,240615_101257,FalseCHOICE,9.0,8,2.0,202.0,,,,,,,,,,,11.0,8.0,,,B,,,,,,False,cue2.png,Easy,cue1.png,Hard,Left,Easy,Mid,0.0165077000274322,,,,,,,,,,,,,14,34,Female,,,,,,,,,,,,,,,,0.7142857142857143,1.75,0.2,1.75,1.1111111111111112,2.5,2.2222222222222223,2.6666666666666665,3.0,1.5555555555555556,2.0,1.75,2.0,2.75,-0.00010130161184958427,-1.0882286690933938,-0.00019314779971247144,-1.5801603517042913,,,,,,,,
8,240615_101323,FalseCHOICE,9.0,9,2.0,202.0,,,,,,,,,,,12.0,9.0,,,B,,,,,,False,cue2.png,Easy,cue1.png,Hard,Right,Hard,Mid,0.016820800025016,,,,,,,,,,,,,14,34,Female,0.7474489795918368,0.7857142857142857,0.311086799996528,,,,,,,,,,,,,0.7142857142857143,1.75,0.2,1.75,1.1111111111111112,2.5,2.2222222222222223,2.6666666666666665,3.0,1.5555555555555556,2.0,1.75,2.0,2.75,,,0.0003521029139353206,1.5152705304288758,,,,,,,,
9,240615_101349,FalseCHOICE,9.0,10,2.0,202.0,,,,,,,,,,,13.0,10.0,,,B,,,,,,False,cue1.png,Hard,cue2.png,Easy,Right,Easy,Mid,0.0164545999723486,,,,,,,,,,,,,14,34,Female,,,,,,,,,,,,,,,,0.7142857142857143,1.75,0.2,1.75,1.1111111111111112,2.5,2.2222222222222223,2.6666666666666665,3.0,1.5555555555555556,2.0,1.75,2.0,2.75,9.707253778152604e-05,0.24365278006676544,0.0002081929070282631,0.6982821827238365,2.93,2.1607581633366397,,,,,,
0,240615_093714,OFFLINERATING,9.0,1,1.0,,,,,,,,,,,,,,,,,T0,cue2.png,Easy,22.0,0.9818556000245736,,,,,,,,,,,,,,,,,,,,,,14,34,Female,,,,,,,,,,,,,,,,0.7142857142857143,1.75,0.2,1.75,1.1111111111111112,2.5,2.2222222222222223,2.6666666666666665,3.0,1.5555555555555556,2.0,1.75,2.0,2.75,,,,,,,,,0.00012847396622125713,1.3573477217687098,1.5230000000000001,0.5448199789470126
1,240615_093721,OFFLINERATING,9.0,2,3.0,,,,,,,,,,,,,,,,,T0,cue1.png,Hard,42.0,1.0850965999998152,,,,,,,,,,,,,,,,,,,,,,14,34,Female,,,,,,,,,,,,,,,,0.7142857142857143,1.75,0.2,1.75,1.1111111111111112,2.5,2.2222222222222223,2.6666666666666665,3.0,1.5555555555555556,2.0,1.75,2.0,2.75,,,,,,,,,-6.657428110951524e-05,-1.0224839416803804,,
2,240615_100227,OFFLINERATING,9.0,3,1.0,,,,,,,,,,,,,,,,,T1,cue2.png,Easy,78.0,1.7849591000122018,,,,,,,,,,,,,,,,,,,,,,14,34,Female,,,,,,,,,,,,,,,,0.7142857142857143,1.75,0.2,1.75,1.1111111111111112,2.5,2.2222222222222223,2.6666666666666665,3.0,1.5555555555555556,2.0,1.75,2.0,2.75,,,,,,,-6.50917315010496e-05,-0.9048398965121501,,,,
3,240615_100235,OFFLINERATING,9.0,4,3.0,,,,,,,,,,,,,,,,,T1,cue1.png,Hard,1.0,1.4632821999839507,,,,,,,,,,,,,,,,,,,,,,14,34,Female,,,,,,,,,,,,,,,,0.7142857142857143,1.75,0.2,1.75,1.1111111111111112,2.5,2.2222222222222223,2.6666666666666665,3.0,1.5555555555555556,2.0,1.75,2.0,2.75,,,,,,,-2.66822167404499e-05,-0.488828462770425,,,1.131,-1.4026216479274136
4,240615_100805,OFFLINERATING,9.0,5,1.0,,,,,,,,,,,,,,,,,T2,cue2.png,Easy,94.0,2.335859800048638,,,,,,,,,,,,,,,,,,,,,,14,34,Female,,,,,,,,,,,,,,,,0.7142857142857143,1.75,0.2,1.75,1.1111111111111112,2.5,2.2222222222222223,2.6666666666666665,3.0,1.5555555555555556,2.0,1.75,2.0,2.75,,,,,,,,,,,1.586,0.8578016689804021
5,240615_100812,OFFLINERATING,9.0,6,3.0,,,,,,,,,,,,,,,,,T2,cue1.png,Hard,4.0,0.8182147000334226,,,,,,,,,,,,,,,,,,,,,,14,34,Female,,,,,,,,,,,,,,,,0.7142857142857143,1.75,0.2,1.75,1.1111111111111112,2.5,2.2222222222222223,2.6666666666666665,3.0,1.5555555555555556,2.0,1.75,2.0,2.75,,,,,,,,,-1.0217728918150096e-05,-0.33486378008832957,,
6,240615_103131,OFFLINERATING,9.0,7,1.0,,,,,,,,,,,,,,,,,T3,cue2.png,Easy,1.0,1.2492138000088744,,,,,,,,,,,,,,,,,,,,,,14,34,Female,,,,,,,,,,,,,,,,0.7142857142857143,1.75,0.2,1.75,1.1111111111111112,2.5,2.2222222222222223,2.6666666666666665,3.0,1.5555555555555556,2.0,1.75,2.0,2.75,,,,,,,0.0001471250001023371,1.3936683592825752,,,,
7,240615_103138,OFFLINERATING,9.0,8,3.0,,,,,,,,,,,,,,,,,T3,cue1.png,Hard,1.0,1.068356000003405,,,,,,,,,,,,,,,,,,,,,,14,34,Female,,,,,,,,,,,,,,,,0.7142857142857143,1.75,0.2,1.75,1.1111111111111112,2.5,2.2222222222222223,2.6666666666666665,3.0,1.5555555555555556,2.0,1.75,2.0,2.75,,,,,,,,,,,,
