,END,Phase,Block,TrialN,NbackLevel,ISI,Letter_Resp,Letter_RT,Letter_Accuracy,Trial_A_measure,Trial_ACC,Trial_RT,TrialCountCali,CaliEnd_A_measure,ISI_calibrated,TrialIndex,TrialNumber_total,TrialNumber_valid,CueLearning,TrialDemandLearning,CueMapping,OfflineRatingTimePoint,CueFigure,TrialDemand,OfflineRating,OfflineRatingRT,PhaseType,CueLeft,CueDemandLeft,CueRight,CueDemandRight,Choice,ChoiceDemand,TaskDemand,ChoiceRT,CueCheck,CueDemandCheck,CorrectAnswer,Answer,AnswerDemand,AnswerRT,AnswerACC,DemandRatingQuesIndex,QuesTLX,DemandLevel,DemandRating,DemandRatingRT,PID,Age,Gender,Task_A_measure,Task_ACC,Task_RT,cue_i_on_zyg_values,cue_i_on_zyg_zvalues,cue_e_on_zyg_values,cue_e_on_zyg_zvalues,cue_i_on_cor_values,cue_i_on_cor_zvalues,cue_e_on_cor_values,cue_e_on_cor_zvalues,cue_i_on_scr_values,cue_i_on_scr_zvalues,cue_e_on_scr_values,cue_e_on_scr_zvalues,BAI_bis,BAI_bas_d,BAI_bas_rr,BAI_bas_fs,NFC,BFI_ext,BFI_agr,BFI_con,BFI_neu,BFI_open,UPPS_lps,UPPS_lpm,UPPS_pu,UPPS_ss,cue_e_true_zyg_values,cue_e_true_zyg_zvalues,cue_e_true_cor_values,cue_e_true_cor_zvalues,cue_e_true_scr_values,cue_e_true_scr_zvalues,cue_i_off_zyg_values,cue_i_off_zyg_zvalues,cue_i_off_cor_values,cue_i_off_cor_zvalues,cue_i_off_scr_values,cue_i_off_scr_zvalues
0,240618_145055,LEARNING,1.0,1,1.0,1750.0,,,,,,,,,,1.0,1.0,1.0,cue2.png,Easy,B,,,,,,,,,,,,,,,,,,,,,,,,,,,18,22,Female,0.75,0.8333333333333334,0.7756274249841226,-0.004605650852954185,-2.592664067143339,-0.0002157413713838206,-0.10719392765845825,,,,,1.6,0.07396229980235426,,,0.2857142857142857,1.0,0.0,1.0,1.7222222222222223,2.625,2.111111111111111,2.2222222222222223,1.625,2.5555555555555554,1.0,1.5,1.0,1.5,,,,,,,,,,,,
1,240618_145119,LEARNING,1.0,2,3.0,1750.0,,,,,,,,,,2.0,2.0,2.0,cue1.png,Hard,B,,,,,,,,,,,,,,,,,,,,,,,,,,,18,22,Female,0.1666666666666666,0.6666666666666667,0.9747842499637044,-0.0039098396250525635,-2.183524438901703,-0.0008537531215203004,-0.4031209570692725,,,,,,,1.9979999999999998,0.5550398474879598,0.2857142857142857,1.0,0.0,1.0,1.7222222222222223,2.625,2.111111111111111,2.2222222222222223,1.625,2.5555555555555554,1.0,1.5,1.0,1.5,,,,,,,,,,,,
2,240618_145145,LEARNING,1.0,3,1.0,1750.0,,,,,,,,,,3.0,3.0,3.0,cue2.png,Easy,B,,,,,,,,,,,,,,,,,,,,,,,,,,,18,22,Female,0.875,0.625,0.7789152799872682,-0.0002578385602312423,-0.036134028854578476,,,0.0004462885249658993,0.28375126874764794,-0.000513475194270507,-0.12391762642091375,,,1.5909999999999997,-0.22096470764352213,0.2857142857142857,1.0,0.0,1.0,1.7222222222222223,2.625,2.111111111111111,2.2222222222222223,1.625,2.5555555555555554,1.0,1.5,1.0,1.5,,,,,,,,,,,,
3,240618_145204,LEARNING,1.0,4,3.0,1750.0,,,,,,,,,,4.0,4.0,4.0,cue1.png,Hard,B,,,,,,,,,,,,,,,,,,,,,,,,,,,18,22,Female,1.0,1.0,0.4025496625399682,-0.00016237128472549722,0.02000108946976238,,,,,,,1.475,-0.11910754604209577,1.5569999999999997,-0.2857906409960293,0.2857142857142857,1.0,0.0,1.0,1.7222222222222223,2.625,2.111111111111111,2.2222222222222223,1.625,2.5555555555555554,1.0,1.5,1.0,1.5,,,,,,,,,,,,
4,240618_145223,LEARNING,1.0,5,3.0,1750.0,,,,,,,,,,5.0,5.0,5.0,cue1.png,Hard,B,,,,,,,,,,,,,,,,,,,,,,,,,,,18,22,Female,0.75,0.8333333333333334,0.5014854875043966,0.0032530723058617084,2.028294811816396,,,0.0051451963592846345,2.3050730043795404,,,1.4520000000000002,-0.15463239767747444,1.463,-0.46501528026472466,0.2857142857142857,1.0,0.0,1.0,1.7222222222222223,2.625,2.111111111111111,2.2222222222222223,1.625,2.5555555555555554,1.0,1.5,1.0,1.5,,,,,,,,,,,,
5,240618_145245,LEARNING,1.0,6,1.0,1750.0,,,,,,,,,,6.0,6.0,6.0,cue2.png,Easy,B,,,,,,,,,,,,,,,,,,,,,,,,,,,18,22,Female,0.1666666666666666,0.5416666666666667,0.55458681431732,-0.0014853573278862144,-0.7579196973218243,-0.000965934106194256,-0.4551535184505361,,,-0.0010329929330810343,-0.3969728568553172,1.9480000000000002,0.6114687506333033,1.748,0.07837857283717282,0.2857142857142857,1.0,0.0,1.0,1.7222222222222223,2.625,2.111111111111111,2.2222222222222223,1.625,2.5555555555555554,1.0,1.5,1.0,1.5,,,,,,,,,,,,
6,240618_145303,LEARNING,1.0,7,3.0,1750.0,,,,,,,,,,7.0,7.0,7.0,cue1.png,Hard,B,,,,,,,,,,,,,,,,,,,,,,,,,,,18,22,Female,0.75,0.8333333333333334,0.338887625010102,0.0024560413780831767,1.5596376180085076,-0.00036474977279985204,-0.17630803657395652,0.0016597697841884544,0.8057525787401711,-5.996302211375929e-05,0.11444549657194888,,,1.0679999999999998,-1.2181400942129692,0.2857142857142857,1.0,0.0,1.0,1.7222222222222223,2.625,2.111111111111111,2.2222222222222223,1.625,2.5555555555555554,1.0,1.5,1.0,1.5,,,,,,,,,,,,
7,240618_145324,LEARNING,1.0,8,3.0,1750.0,,,,,,,,,,8.0,8.0,8.0,cue1.png,Hard,B,,,,,,,,,,,,,,,,,,,,,,,,,,,18,22,Female,1.0,1.0,0.7191611500020372,-0.000808496310343204,-0.35992286429578785,-0.0007813561098976357,-0.3695412736494414,4.182858560450222e-05,0.10976537767471109,-0.0002459693274608774,0.016681761525872037,,,3.002,2.469311526485522,0.2857142857142857,1.0,0.0,1.0,1.7222222222222223,2.625,2.111111111111111,2.2222222222222223,1.625,2.5555555555555554,1.0,1.5,1.0,1.5,,,,,,,,,,,,
8,240618_145346,LEARNING,1.0,9,1.0,1750.0,,,,,,,,,,9.0,9.0,9.0,cue2.png,Easy,B,,,,,,,,,,,,,,,,,,,,,,,,,,,18,22,Female,1.0,1.0,0.7262601999827893,0.0031571873723198413,1.9719141089904275,-0.0026670091397837255,-1.244157923757099,0.0049424731729365515,2.217867892610979,-0.003969534129954397,-1.9404002959803794,,,2.771,2.0288765087081946,0.2857142857142857,1.0,0.0,1.0,1.7222222222222223,2.625,2.111111111111111,2.2222222222222223,1.625,2.5555555555555554,1.0,1.5,1.0,1.5,,,,,,,,,,,,
9,240618_145407,LEARNING,1.0,10,1.0,1750.0,,,,,,,,,,10.0,10.0,10.0,cue2.png,Easy,B,,,,,,,,,,,,,,,,,,,,,,,,,,,18,22,Female,0.75,0.8333333333333334,0.6561193874949822,,,0.0008111244783176805,0.3690941037775979,-0.0020141555842071853,-0.7746540740547524,0.0029319255814136266,1.686963181801914,,,,,0.2857142857142857,1.0,0.0,1.0,1.7222222222222223,2.625,2.111111111111111,2.2222222222222223,1.625,2.5555555555555554,1.0,1.5,1.0,1.5,,,,,,,,,,,,
10,240618_145427,LEARNING,1.0,11,3.0,1750.0,,,,,,,,,,11.0,11.0,11.0,cue1.png,Hard,B,,,,,,,,,,,,,,,,,,,,,,,,,,,18,22,Female,1.0,1.0,0.6115336125221802,,,-0.0018002761961749443,-0.8421438460543443,-0.0037883406071287395,-1.5378524333994288,,,1.072,-0.7415647290446027,1.5470000000000002,-0.30485709198205996,0.2857142857142857,1.0,0.0,1.0,1.7222222222222223,2.625,2.111111111111111,2.2222222222222223,1.625,2.5555555555555554,1.0,1.5,1.0,1.5,,,,,,,,,,,,
11,240618_145449,LEARNING,1.0,12,1.0,1750.0,,,,,,,,,,12.0,12.0,12.0,cue2.png,Easy,B,,,,,,,,,,,,,,,,,,,,,,,,,,,18,22,Female,0.75,0.8333333333333334,0.8304604375152849,9.551339977211838e-05,0.17163825730155824,,,-0.006751494714816916,-2.812507739501089,0.0012341484021679075,0.7946222581471672,,,,,0.2857142857142857,1.0,0.0,1.0,1.7222222222222223,2.625,2.111111111111111,2.2222222222222223,1.625,2.5555555555555554,1.0,1.5,1.0,1.5,,,,,,,,,,,,
12,240618_145509,LEARNING,1.0,13,1.0,1750.0,,,,,,,,,,13.0,13.0,13.0,cue2.png,Easy,B,,,,,,,,,,,,,,,,,,,,,,,,,,,18,22,Female,0.1666666666666666,0.6666666666666667,0.5382329625135753,,,0.0009718980603259627,0.44366522025197225,-0.0006102912349586721,-0.17075597197032258,0.00038221481615849633,0.3468513655204425,0.07099999999999995,-2.287668054566959,1.9809999999999999,0.5226268808117065,0.2857142857142857,1.0,0.0,1.0,1.7222222222222223,2.625,2.111111111111111,2.2222222222222223,1.625,2.5555555555555554,1.0,1.5,1.0,1.5,,,,,,,,,,,,
13,240618_145530,LEARNING,1.0,14,1.0,1750.0,,,,,,,,,,14.0,14.0,14.0,cue2.png,Easy,B,,,,,,,,,,,,,,,,,,,,,,,,,,,18,22,Female,0.75,0.8333333333333334,0.7033146124886116,-0.0017680377874537082,-0.9241368744826556,0.0006898235652696792,0.3128314740447822,,,,,,,1.5879999999999999,-0.22668464293933138,0.2857142857142857,1.0,0.0,1.0,1.7222222222222223,2.625,2.111111111111111,2.2222222222222223,1.625,2.5555555555555554,1.0,1.5,1.0,1.5,,,,,,,,,,,,
14,240618_145550,LEARNING,1.0,15,3.0,1750.0,,,,,,,,,,15.0,15.0,15.0,cue1.png,Hard,B,,,,,,,,,,,,,,,,,,,,,,,,,,,18,22,Female,0.1666666666666666,0.6666666666666667,0.5619254375051241,-0.0019618103545900193,-1.0380758753243997,-0.0017307733424503464,-0.8099065509984228,-0.0011079944296760276,-0.38485216641536196,-0.00013744566752721355,0.07372110928446476,,,1.0389999999999997,-1.2734328020724608,0.2857142857142857,1.0,0.0,1.0,1.7222222222222223,2.625,2.111111111111111,2.2222222222222223,1.625,2.5555555555555554,1.0,1.5,1.0,1.5,,,,,,,,,,,,
15,240618_145610,LEARNING,1.0,16,1.0,1750.0,,,,,,,,,,16.0,16.0,16.0,cue2.png,Easy,B,,,,,,,,,,,,,,,,,,,,,,,,,,,18,22,Female,1.0,1.0,0.5493675250036176,,,,,1.5677201606665355e-05,0.09851587826856927,,,,,,,0.2857142857142857,1.0,0.0,1.0,1.7222222222222223,2.625,2.111111111111111,2.2222222222222223,1.625,2.5555555555555554,1.0,1.5,1.0,1.5,,,,,,,,,,,,
16,240618_145630,LEARNING,1.0,17,1.0,1750.0,,,,,,,,,,17.0,17.0,17.0,cue2.png,Easy,B,,,,,,,,,,,,,,,,,,,,,,,,,,,18,22,Female,0.75,0.8333333333333334,0.53365333750844,-0.004049516749781495,-2.2656551154327453,,,-0.006970869697533718,-2.9068759281215906,0.0006509232211454373,0.4880827999106543,,,,,0.2857142857142857,1.0,0.0,1.0,1.7222222222222223,2.625,2.111111111111111,2.2222222222222223,1.625,2.5555555555555554,1.0,1.5,1.0,1.5,,,,,,,,,,,,
17,240618_145651,LEARNING,1.0,18,3.0,1750.0,,,,,,,,,,18.0,18.0,18.0,cue1.png,Hard,B,,,,,,,,,,,,,,,,,,,,,,,,,,,18,22,Female,0.75,0.8333333333333334,0.694320737500675,,,-0.003245130592206512,-1.5123062204264688,,,-9.537218991670544e-05,0.09583466242399274,,,,,0.2857142857142857,1.0,0.0,1.0,1.7222222222222223,2.625,2.111111111111111,2.2222222222222223,1.625,2.5555555555555554,1.0,1.5,1.0,1.5,,,,,,,,,,,,
18,240618_145714,LEARNING,1.0,19,3.0,1750.0,,,,,,,,,,19.0,19.0,19.0,cue1.png,Hard,B,,,,,,,,,,,,,,,,,,,,,,,,,,,18,22,Female,0.1666666666666666,0.6666666666666667,0.8617018000222743,,,-0.004366737953910262,-2.0325379162271973,0.0027085369547462396,1.2568990902726667,-0.005747568039487422,-2.874923648348122,0.6779999999999999,-1.3501208831463094,,,0.2857142857142857,1.0,0.0,1.0,1.7222222222222223,2.625,2.111111111111111,2.2222222222222223,1.625,2.5555555555555554,1.0,1.5,1.0,1.5,,,,,,,,,,,,
19,240618_145734,LEARNING,1.0,20,3.0,1750.0,,,,,,,,,,20.0,20.0,20.0,cue1.png,Hard,B,,,,,,,,,,,,,,,,,,,,,,,,,,,18,22,Female,0.75,0.8333333333333334,0.6014923625043593,,,0.0012021096224066109,0.5504435416355148,-0.00012295565874917858,0.03888040045317691,0.003034648442769322,1.7409536665976417,,,1.222,-0.9245167490280839,0.2857142857142857,1.0,0.0,1.0,1.7222222222222223,2.625,2.111111111111111,2.2222222222222223,1.625,2.5555555555555554,1.0,1.5,1.0,1.5,,,,,,,,,,,,
20,240618_145755,LEARNING,1.0,21,1.0,1750.0,,,,,,,,,,21.0,21.0,21.0,cue2.png,Easy,B,,,,,,,,,,,,,,,,,,,,,,,,,,,18,22,Female,0.75,0.8333333333333334,0.6509556750097545,,,,,-0.00014183895533900846,0.030757402687901392,1.506809955692653e-05,0.15388137851978917,0.83,-1.1153479505994581,0.7510000000000001,-1.8225465904701672,0.2857142857142857,1.0,0.0,1.0,1.7222222222222223,2.625,2.111111111111111,2.2222222222222223,1.625,2.5555555555555554,1.0,1.5,1.0,1.5,,,,,,,,,,,,
21,240618_145816,LEARNING,1.0,22,3.0,1750.0,,,,,,,,,,22.0,22.0,22.0,cue1.png,Hard,B,,,,,,,,,,,,,,,,,,,,,,,,,,,18,22,Female,0.75,0.8333333333333334,0.6760100999817951,-0.001645360877875159,-0.8520023886248089,0.0019635823794149467,0.903635110459343,0.0012794692753375792,0.6421593115988519,,,2.389,1.2926191667725224,1.795,0.16799089247152071,0.2857142857142857,1.0,0.0,1.0,1.7222222222222223,2.625,2.111111111111111,2.2222222222222223,1.625,2.5555555555555554,1.0,1.5,1.0,1.5,,,,,,,,,,,,
22,240618_145836,LEARNING,1.0,23,3.0,1750.0,,,,,,,,,,23.0,23.0,23.0,cue1.png,Hard,B,,,,,,,,,,,,,,,,,,,,,,,,,,,18,22,Female,1.0,1.0,0.5816162499977509,-0.0010609728368567066,-0.5083800148206413,-0.0039026319932594596,-1.8172730747288002,,,-0.002630301980623833,-1.2365083673277044,1.601,0.0755068585691097,2.1710000000000003,0.8848894495463057,0.2857142857142857,1.0,0.0,1.0,1.7222222222222223,2.625,2.111111111111111,2.2222222222222223,1.625,2.5555555555555554,1.0,1.5,1.0,1.5,,,,,,,,,,,,
23,240618_145856,LEARNING,1.0,24,3.0,1750.0,,,,,,,,,,24.0,24.0,24.0,cue1.png,Hard,B,,,,,,,,,,,,,,,,,,,,,,,,,,,18,22,Female,0.1666666666666666,0.6666666666666667,0.4538124874961795,0.0011856224184466444,0.8126264747357418,-0.0018712141740019005,-0.8750467903124254,,,-0.004358850910364255,-2.1450227279885468,1.432,-0.18552357301258682,,,0.2857142857142857,1.0,0.0,1.0,1.7222222222222223,2.625,2.111111111111111,2.2222222222222223,1.625,2.5555555555555554,1.0,1.5,1.0,1.5,,,,,,,,,,,,
24,240618_145916,LEARNING,1.0,25,1.0,1750.0,,,,,,,,,,25.0,25.0,25.0,cue2.png,Easy,B,,,,,,,,,,,,,,,,,,,,,,,,,,,18,22,Female,1.0,1.0,0.6102323124796385,0.0010953920936031384,0.759570703166885,-9.45009721835025e-05,-0.05095936587765012,0.0003340633327138733,0.235475535666074,-0.0003349023173630384,-0.030060854244196022,2.854,2.010838993313877,0.522,-2.2591683180502886,0.2857142857142857,1.0,0.0,1.0,1.7222222222222223,2.625,2.111111111111111,2.2222222222222223,1.625,2.5555555555555554,1.0,1.5,1.0,1.5,,,,,,,,,,,,
25,240618_145937,LEARNING,1.0,26,1.0,1750.0,,,,,,,,,,26.0,26.0,26.0,cue2.png,Easy,B,,,,,,,,,,,,,,,,,,,,,,,,,,,18,22,Female,0.75,0.8333333333333334,0.6866448125365423,4.358880830157086e-05,0.14110640153526652,-0.00023697196619432105,-0.11704124920630134,,,-0.00011311303148245312,0.0865101885514996,1.662,0.16972494334120122,2.135,0.8162502259965914,0.2857142857142857,1.0,0.0,1.0,1.7222222222222223,2.625,2.111111111111111,2.2222222222222223,1.625,2.5555555555555554,1.0,1.5,1.0,1.5,,,,,,,,,,,,
26,240618_145958,LEARNING,1.0,27,3.0,1750.0,,,,,,,,,,27.0,27.0,27.0,cue1.png,Hard,B,,,,,,,,,,,,,,,,,,,,,,,,,,,18,22,Female,0.75,0.8333333333333334,0.6379108749970328,-5.725968098434795e-05,0.08180710919759637,0.004122680769993534,1.905083081900173,-0.0002413307174419059,-0.012040810928063465,0.001742228660847737,1.0616660215240126,1.8169999999999997,0.409131552188319,,,0.2857142857142857,1.0,0.0,1.0,1.7222222222222223,2.625,2.111111111111111,2.2222222222222223,1.625,2.5555555555555554,1.0,1.5,1.0,1.5,,,,,,,,,,,,
27,240618_150020,LEARNING,1.0,28,1.0,1750.0,,,,,,,,,,28.0,28.0,28.0,cue2.png,Easy,B,,,,,,,,,,,,,,,,,,,,,,,,,,,18,22,Female,0.1666666666666666,0.4166666666666667,0.4081233000033535,-1.8635995522653815e-05,0.10451798202840057,5.928427108004876e-05,0.020370370912412273,0.0002443039639757694,0.19686389027864495,0.00016296866464257653,0.23161697802656447,1.599,0.07241774103559849,1.587,-0.22859128803793433,0.2857142857142857,1.0,0.0,1.0,1.7222222222222223,2.625,2.111111111111111,2.2222222222222223,1.625,2.5555555555555554,1.0,1.5,1.0,1.5,,,,,,,,,,,,
28,240618_150043,LEARNING,1.0,29,1.0,1750.0,,,,,,,,,,29.0,29.0,29.0,cue2.png,Easy,B,,,,,,,,,,,,,,,,,,,,,,,,,,,18,22,Female,0.75,0.7083333333333334,0.6971153285786775,4.66716007103728e-05,0.14291909510718126,0.00786377227073445,3.6403020560514827,-0.0002048838072417976,0.0036374986667838493,0.001151532839313344,0.751200041988831,2.504,1.4702434249494167,2.114,0.7762106789259253,0.2857142857142857,1.0,0.0,1.0,1.7222222222222223,2.625,2.111111111111111,2.2222222222222223,1.625,2.5555555555555554,1.0,1.5,1.0,1.5,,,,,,,,,,,,
29,240618_150105,LEARNING,1.0,30,3.0,1750.0,,,,,,,,,,30.0,30.0,30.0,cue1.png,Hard,B,,,,,,,,,,,,,,,,,,,,,,,,,,,18,22,Female,0.75,0.8333333333333334,0.7531605250114808,0.00106493965919046,0.7416645567940678,-0.0015717855755670407,-0.7361637436655307,0.00023461495298652624,0.19269598377784147,2.7517831468417894e-05,0.16042487869693833,1.563,0.016813625432396836,2.371,1.266218469266935,0.2857142857142857,1.0,0.0,1.0,1.7222222222222223,2.625,2.111111111111111,2.2222222222222223,1.625,2.5555555555555554,1.0,1.5,1.0,1.5,,,,,,,,,,,,
30,240618_150126,LEARNING,1.0,31,3.0,1750.0,,,,,,,,,,31.0,31.0,31.0,cue1.png,Hard,B,,,,,,,,,,,,,,,,,,,,,,,,,,,18,22,Female,0.75,0.8333333333333334,0.7070021999970777,-0.00250312332546158,-1.3563699453017808,0.0019426987733482531,0.893948731634219,-0.004664549179046323,-1.9147696860487933,,,,,,,0.2857142857142857,1.0,0.0,1.0,1.7222222222222223,2.625,2.111111111111111,2.2222222222222223,1.625,2.5555555555555554,1.0,1.5,1.0,1.5,,,,,,,,,,,,
31,240618_150146,LEARNING,1.0,32,1.0,1750.0,,,,,,,,,,32.0,32.0,32.0,cue2.png,Easy,B,,,,,,,,,,,,,,,,,,,,,,,,,,,18,22,Female,0.75,0.8333333333333334,0.5496022000006633,0.0011795179475840552,0.8090370228281264,,,-3.7790645951539005e-05,0.0755156990274456,-0.00323898014657611,-1.5564257531036398,1.672,0.18517053100875724,1.7719999999999998,0.12413805520364804,0.2857142857142857,1.0,0.0,1.0,1.7222222222222223,2.625,2.111111111111111,2.2222222222222223,1.625,2.5555555555555554,1.0,1.5,1.0,1.5,,,,,,,,,,,,
32,240618_150207,LEARNING,1.0,33,1.0,1750.0,,,,,,,,,,33.0,33.0,33.0,cue2.png,Easy,B,,,,,,,,,,,,,,,,,,,,,,,,,,,18,22,Female,0.75,0.8333333333333334,0.689517987484578,,,0.004315261804540945,1.9944073513392322,-0.0001190883278345497,0.04054400406326003,0.003851132302980806,2.170092408051335,1.649,0.14964567937337858,2.26,1.054580863321985,0.2857142857142857,1.0,0.0,1.0,1.7222222222222223,2.625,2.111111111111111,2.2222222222222223,1.625,2.5555555555555554,1.0,1.5,1.0,1.5,,,,,,,,,,,,
33,240618_150227,LEARNING,1.0,34,1.0,1750.0,,,,,,,,,,34.0,34.0,34.0,cue2.png,Easy,B,,,,,,,,,,,,,,,,,,,,,,,,,,,18,22,Female,1.0,1.0,0.5335943874670193,6.552605300778024e-05,0.154005584221369,-4.28357644932497e-05,-0.02699565136549779,-0.0002686814737725548,-0.023806242429685508,4.150913936871005e-05,0.1677786214421621,1.681,0.19907155990955783,1.2720000000000002,-0.8291844940979259,0.2857142857142857,1.0,0.0,1.0,1.7222222222222223,2.625,2.111111111111111,2.2222222222222223,1.625,2.5555555555555554,1.0,1.5,1.0,1.5,,,,,,,,,,,,
34,240618_150250,LEARNING,1.0,35,3.0,1750.0,,,,,,,,,,35.0,35.0,35.0,cue1.png,Hard,B,,,,,,,,,,,,,,,,,,,,,,,,,,,18,22,Female,0.75,0.8333333333333334,0.9540367374866036,-0.001125263149308468,-0.5461829611964525,,,-4.3875973076008736e-05,0.072897983503152,1.8901563550815376e-05,0.15589622289567115,1.3130000000000002,-0.3693260662565029,1.4680000000000002,-0.45548205477170867,0.2857142857142857,1.0,0.0,1.0,1.7222222222222223,2.625,2.111111111111111,2.2222222222222223,1.625,2.5555555555555554,1.0,1.5,1.0,1.5,,,,,,,,,,,,
35,240618_150311,LEARNING,1.0,36,3.0,1750.0,,,,,,,,,,36.0,36.0,36.0,cue1.png,Hard,B,,,,,,,,,,,,,,,,,,,,,,,,,,,18,22,Female,0.75,0.8333333333333334,0.6428375499963295,0.00022763136332629684,0.24932411853092212,,,0.0002875638385756831,0.21547292197126022,-0.0037401323761570423,-1.8198281883010339,0.6640000000000001,-1.3717447058808876,1.6309999999999998,-0.1446989036993961,0.2857142857142857,1.0,0.0,1.0,1.7222222222222223,2.625,2.111111111111111,2.2222222222222223,1.625,2.5555555555555554,1.0,1.5,1.0,1.5,,,,,,,,,,,,
36,240618_150333,LEARNING,1.0,37,1.0,1750.0,,,,,,,,,,37.0,37.0,37.0,cue2.png,Easy,B,,,,,,,,,,,,,,,,,,,,,,,,,,,18,22,Female,1.0,1.0,0.8005851624766365,5.1320544878676565e-05,0.14565269182488877,0.0008948261000445391,0.40791716976219516,2.3471784862343255e-05,0.10186886179376718,0.000538982402789337,0.4292474153456849,2.593,1.6077091551906653,1.5579999999999998,-0.2838839958974259,0.2857142857142857,1.0,0.0,1.0,1.7222222222222223,2.625,2.111111111111111,2.2222222222222223,1.625,2.5555555555555554,1.0,1.5,1.0,1.5,,,,,,,,,,,,
37,240618_150355,LEARNING,1.0,38,3.0,1750.0,,,,,,,,,,38.0,38.0,38.0,cue1.png,Hard,B,,,,,,,,,,,,,,,,,,,,,,,,,,,18,22,Female,0.75,0.7083333333333334,0.6560265143135828,0.00014271264620438484,0.19939159235023213,-4.399970852792673e-05,-0.027535519950220137,0.00030861400042375264,0.2245280367303351,-1.1050659783474678e-05,0.1401535241703248,1.3260000000000003,-0.3492468022886799,1.7440000000000002,0.07075199244276065,0.2857142857142857,1.0,0.0,1.0,1.7222222222222223,2.625,2.111111111111111,2.2222222222222223,1.625,2.5555555555555554,1.0,1.5,1.0,1.5,,,,,,,,,,,,
38,240618_150415,LEARNING,1.0,39,3.0,1750.0,,,,,,,,,,39.0,39.0,39.0,cue1.png,Hard,B,,,,,,,,,,,,,,,,,,,,,,,,,,,18,22,Female,1.0,1.0,0.5178059624886373,1.898447047663475e-05,0.12663895802880837,-0.00010796374088798549,-0.0572037605138152,-0.00019168472965287297,0.009315324953549751,6.393152052615227e-05,0.1795636828490188,1.53,-0.03415681387053785,1.778,0.13557792579526737,0.2857142857142857,1.0,0.0,1.0,1.7222222222222223,2.625,2.111111111111111,2.2222222222222223,1.625,2.5555555555555554,1.0,1.5,1.0,1.5,,,,,,,,,,,,
39,240618_150435,LEARNING,1.0,40,3.0,1750.0,,,,,,,,,,40.0,40.0,40.0,cue1.png,Hard,B,,,,,,,,,,,,,,,,,,,,,,,,,,,18,22,Female,0.75,0.8333333333333334,0.6050404874840751,-5.2507857162541714e-05,0.08460119953986725,3.5685996467509345e-05,0.009424855718036026,,,,,2.1109999999999998,0.8632318296144655,2.143,0.8315033867854166,0.2857142857142857,1.0,0.0,1.0,1.7222222222222223,2.625,2.111111111111111,2.2222222222222223,1.625,2.5555555555555554,1.0,1.5,1.0,1.5,,,,,,,,,,,,
40,240618_150456,LEARNING,1.0,41,1.0,1750.0,,,,,,,,,,41.0,41.0,41.0,cue2.png,Easy,B,,,,,,,,,,,,,,,,,,,,,,,,,,,18,22,Female,0.75,0.8333333333333334,0.6006282750167884,-5.1444159303291794e-05,0.08522665789587479,-0.00014709682353212248,-0.07535473797792946,,,-0.0005112752069500186,-0.12276132703039801,2.158,0.9358260916519789,1.94,0.4444544317689775,0.2857142857142857,1.0,0.0,1.0,1.7222222222222223,2.625,2.111111111111111,2.2222222222222223,1.625,2.5555555555555554,1.0,1.5,1.0,1.5,,,,,,,,,,,,
41,240618_150516,LEARNING,1.0,42,3.0,1750.0,,,,,,,,,,42.0,42.0,42.0,cue1.png,Hard,B,,,,,,,,,,,,,,,,,,,,,,,,,,,18,22,Female,1.0,1.0,0.6255235624994384,-1.536243141749905e-05,0.10644285007781001,-3.756598639811058e-06,-0.008869681960723038,7.836581037943668e-06,0.09514309094538538,8.655428426135358e-05,0.19145406406857396,,,,,0.2857142857142857,1.0,0.0,1.0,1.7222222222222223,2.625,2.111111111111111,2.2222222222222223,1.625,2.5555555555555554,1.0,1.5,1.0,1.5,,,,,,,,,,,,
42,240618_150536,LEARNING,1.0,43,3.0,1750.0,,,,,,,,,,43.0,43.0,43.0,cue1.png,Hard,B,,,,,,,,,,,,,,,,,,,,,,,,,,,18,22,Female,0.75,0.8333333333333334,0.5183263624930987,-7.103627457880329e-05,0.07370642016636318,,,-6.553806184648537e-05,0.06357963710972882,,,0.8109999999999999,-1.1446945671678146,1.128,-1.1037413882967801,0.2857142857142857,1.0,0.0,1.0,1.7222222222222223,2.625,2.111111111111111,2.2222222222222223,1.625,2.5555555555555554,1.0,1.5,1.0,1.5,,,,,,,,,,,,
43,240618_150557,LEARNING,1.0,44,1.0,1750.0,,,,,,,,,,44.0,44.0,44.0,cue2.png,Easy,B,,,,,,,,,,,,,,,,,,,,,,,,,,,18,22,Female,1.0,1.0,0.6716486125078518,6.863767601221005e-05,0.15583523029232968,0.00010308045627898874,0.04068422090447864,,,7.085826207103851e-05,0.18320433429824348,0.8739999999999999,-1.0473873648622118,1.027,-1.2963125432556981,0.2857142857142857,1.0,0.0,1.0,1.7222222222222223,2.625,2.111111111111111,2.2222222222222223,1.625,2.5555555555555554,1.0,1.5,1.0,1.5,,,,,,,,,,,,
44,240618_150617,LEARNING,1.0,45,1.0,1750.0,,,,,,,,,,45.0,45.0,45.0,cue2.png,Easy,B,,,,,,,,,,,,,,,,,,,,,,,,,,,18,22,Female,1.0,1.0,0.5937569874949986,-6.19859649873605e-05,0.07902803636517243,-1.953020397439057e-05,-0.016185904849662265,-0.00010560835459890849,0.04634266278517306,3.2309699179759125e-05,0.1629434539916477,1.5480000000000003,-0.006354756068936676,1.8299999999999996,0.23472347092263038,0.2857142857142857,1.0,0.0,1.0,1.7222222222222223,2.625,2.111111111111111,2.2222222222222223,1.625,2.5555555555555554,1.0,1.5,1.0,1.5,,,,,,,,,,,,
45,240618_150638,LEARNING,1.0,46,1.0,1750.0,,,,,,,,,,46.0,46.0,46.0,cue2.png,Easy,B,,,,,,,,,,,,,,,,,,,,,,,,,,,18,22,Female,1.0,1.0,0.5850140875263605,0.00018730446002076032,0.22561174717939741,-0.000146719224907472,-0.07517959756824497,0.00025826588634191103,0.20286986829416795,-0.00014694425662154387,0.0687287110655081,0.3839999999999999,-1.804221160572456,,,0.2857142857142857,1.0,0.0,1.0,1.7222222222222223,2.625,2.111111111111111,2.2222222222222223,1.625,2.5555555555555554,1.0,1.5,1.0,1.5,,,,,,,,,,,,
46,240618_150658,LEARNING,1.0,47,3.0,1750.0,,,,,,,,,,47.0,47.0,47.0,cue1.png,Hard,B,,,,,,,,,,,,,,,,,,,,,,,,,,,18,22,Female,0.1666666666666666,0.6666666666666667,0.6782112374930875,0.00334223152531017,2.0807207693702394,3.096773474396339e-05,0.007236398882353888,0.0013964242253914727,0.6924696370977029,3.302104182989658e-05,0.16331733117954855,2.318,1.1829554943328753,2.321,1.170886214336778,0.2857142857142857,1.0,0.0,1.0,1.7222222222222223,2.625,2.111111111111111,2.2222222222222223,1.625,2.5555555555555554,1.0,1.5,1.0,1.5,,,,,,,,,,,,
47,240618_150718,LEARNING,1.0,48,3.0,1750.0,,,,,,,,,,48.0,48.0,48.0,cue1.png,Hard,B,,,,,,,,,,,,,,,,,,,,,,,,,,,18,22,Female,1.0,1.0,0.5158732375130057,5.055443624227794e-05,0.14520221705512384,6.223766962078214e-05,0.021740236681559166,-0.0001523418845584823,0.02623937427200594,9.419623348538159e-05,0.1954706241404448,1.143,-0.6319010566049552,2.179,0.90014261033513,0.2857142857142857,1.0,0.0,1.0,1.7222222222222223,2.625,2.111111111111111,2.2222222222222223,1.625,2.5555555555555554,1.0,1.5,1.0,1.5,,,,,,,,,,,,
48,240618_150739,LEARNING,1.0,49,1.0,1750.0,,,,,,,,,,49.0,49.0,49.0,cue2.png,Easy,B,,,,,,,,,,,,,,,,,,,,,,,,,,,18,22,Female,1.0,1.0,0.6058193000062602,,,,,,,,,2.7600000000000002,1.865650469238851,,,0.2857142857142857,1.0,0.0,1.0,1.7222222222222223,2.625,2.111111111111111,2.2222222222222223,1.625,2.5555555555555554,1.0,1.5,1.0,1.5,,,,,,,,,,,,
49,240618_150801,LEARNING,1.0,50,1.0,1750.0,,,,,,,,,,50.0,50.0,50.0,cue2.png,Easy,B,,,,,,,,,,,,,,,,,,,,,,,,,,,18,22,Female,1.0,1.0,0.8356626250169938,8.396026053136829e-05,0.16484496782239988,0.0006953511676855949,0.3153953248866453,0.0003753432133619676,0.2532328364985941,0.00017038596296842755,0.2355154630103556,1.2420000000000002,-0.47898973869615047,1.083,-1.1895404177339217,0.2857142857142857,1.0,0.0,1.0,1.7222222222222223,2.625,2.111111111111111,2.2222222222222223,1.625,2.5555555555555554,1.0,1.5,1.0,1.5,,,,,,,,,,,,
0,240618_150919,TrueCHOICE,9.0,1,1.0,1750.0,,,,,,,,,,,1.0,1.0,,,B,,,,,,True,cue2.png,Easy,cue1.png,Hard,Left,Easy,Easy,0.0159804000286385,,,,,,,,,,,,,18,22,Female,0.1666666666666666,0.6666666666666667,0.6700489999930141,,,,,,,,,,,,,0.2857142857142857,1.0,0.0,1.0,1.7222222222222223,2.625,2.111111111111111,2.2222222222222223,1.625,2.5555555555555554,1.0,1.5,1.0,1.5,8.94014747693378e-05,-0.47378844344281773,-7.333096190699148e-05,-0.6369952518107818,1.255,-1.7386938444591358,,,,,,
1,240618_150937,TrueCHOICE,9.0,2,1.0,1750.0,,,,,,,,,,,2.0,2.0,,,B,,,,,,True,cue2.png,Easy,cue1.png,Hard,Left,Easy,Easy,0.0163099999772384,,,,,,,,,,,,,18,22,Female,,,,,,,,,,,,,,,,0.2857142857142857,1.0,0.0,1.0,1.7222222222222223,2.625,2.111111111111111,2.2222222222222223,1.625,2.5555555555555554,1.0,1.5,1.0,1.5,-1.0668589199794992e-06,-0.6856918824085821,-1.3813836732120763e-05,-0.4687728804826846,1.9009999999999998,1.6317374339222637,,,,,,
2,240618_150956,TrueCHOICE,9.0,3,1.0,1750.0,,,,,,,,,,,3.0,3.0,,,B,,,,,,True,cue1.png,Hard,cue2.png,Easy,Right,Easy,Easy,0.0164970000041648,,,,,,,,,,,,,18,22,Female,1.0,1.0,0.629096937525901,,,,,,,,,,,,,0.2857142857142857,1.0,0.0,1.0,1.7222222222222223,2.625,2.111111111111111,2.2222222222222223,1.625,2.5555555555555554,1.0,1.5,1.0,1.5,-6.730819585765505e-05,-0.8408485712339546,-0.00011190175736972875,-0.7460138016430949,1.588,-0.0013043464699611191,,,,,,
3,240618_151015,TrueCHOICE,9.0,4,1.0,1750.0,,,,,,,,,,,4.0,4.0,,,B,,,,,,True,cue2.png,Easy,cue1.png,Hard,Left,Easy,Easy,0.0161110999761149,,,,,,,,,,,,,18,22,Female,1.0,1.0,0.6309800999588333,,,,,,,,,,,,,0.2857142857142857,1.0,0.0,1.0,1.7222222222222223,2.625,2.111111111111111,2.2222222222222223,1.625,2.5555555555555554,1.0,1.5,1.0,1.5,,,,,1.547,-0.21521716754370399,,,,,,
4,240618_151036,TrueCHOICE,9.0,5,1.0,1750.0,,,,,,,,,,,5.0,5.0,,,B,,,,,,True,cue1.png,Hard,cue2.png,Easy,Right,Easy,Easy,0.0167340999469161,,,,,,,,,,,,,18,22,Female,0.75,0.8333333333333334,0.6809551375044975,,,,,,,,,,,,,0.2857142857142857,1.0,0.0,1.0,1.7222222222222223,2.625,2.111111111111111,2.2222222222222223,1.625,2.5555555555555554,1.0,1.5,1.0,1.5,0.0009794918986960454,1.6110650531219848,,,,,,,,,,
5,240618_151054,TrueCHOICE,9.0,6,1.0,1750.0,,,,,,,,,,,6.0,6.0,,,B,,,,,,True,cue1.png,Hard,cue2.png,Easy,Right,Easy,Easy,0.0175261000404134,,,,,,,,,,,,,18,22,Female,1.0,0.875,0.6251719856934089,,,,,,,,,,,,,0.2857142857142857,1.0,0.0,1.0,1.7222222222222223,2.625,2.111111111111111,2.2222222222222223,1.625,2.5555555555555554,1.0,1.5,1.0,1.5,,,0.0009802172348848748,2.340809463252951,1.4589999999999999,-0.6743471249702728,,,,,,
6,240618_151114,TrueCHOICE,9.0,7,1.0,1750.0,,,,,,,,,,,7.0,7.0,,,B,,,,,,True,cue2.png,Easy,cue1.png,Hard,Left,Easy,Easy,0.0146754999877884,,,,,,,,,,,,,18,22,Female,,,,,,,,,,,,,,,,0.2857142857142857,1.0,0.0,1.0,1.7222222222222223,2.625,2.111111111111111,2.2222222222222223,1.625,2.5555555555555554,1.0,1.5,1.0,1.5,0.000915663505653275,1.4615601884046783,0.00020626250779317342,0.1532626167038556,1.4629999999999999,-0.6534775814508833,,,,,,
7,240618_151133,TrueCHOICE,9.0,8,1.0,1750.0,,,,,,,,,,,8.0,8.0,,,B,,,,,,True,cue1.png,Hard,cue2.png,Easy,Right,Easy,Easy,0.0163191000465303,,,,,,,,,,,,,18,22,Female,0.75,0.8333333333333334,0.6541435125109274,,,,,,,,,,,,,0.2857142857142857,1.0,0.0,1.0,1.7222222222222223,2.625,2.111111111111111,2.2222222222222223,1.625,2.5555555555555554,1.0,1.5,1.0,1.5,0.00022583209484925912,-0.1542278149200358,,,,,,,,,,
8,240618_151153,TrueCHOICE,9.0,9,1.0,1750.0,,,,,,,,,,,9.0,9.0,,,B,,,,,,True,cue2.png,Easy,cue1.png,Hard,Left,Easy,Easy,0.0160708000184968,,,,,,,,,,,,,18,22,Female,1.0,1.0,0.7611421750043519,,,,,,,,,,,,,0.2857142857142857,1.0,0.0,1.0,1.7222222222222223,2.625,2.111111111111111,2.2222222222222223,1.625,2.5555555555555554,1.0,1.5,1.0,1.5,,,-4.410495751032504e-05,-0.5543893169708972,1.7670000000000001,0.932607726022718,,,,,,
9,240618_151212,TrueCHOICE,9.0,10,3.0,1750.0,,,,,,,,,,,10.0,10.0,,,B,,,,,,True,cue1.png,Hard,cue2.png,Easy,Left,Hard,Hard,0.0160860000178217,,,,,,,,,,,,,18,22,Female,0.75,0.8333333333333334,0.6374209750356385,,,,,,,,,,,,,0.2857142857142857,1.0,0.0,1.0,1.7222222222222223,2.625,2.111111111111111,2.2222222222222223,1.625,2.5555555555555554,1.0,1.5,1.0,1.5,-0.00010027585786403191,-0.9180685295212725,0.00012093880872046138,-0.0879008290493482,1.726,0.7186949049489751,,,,,,
0,240618_151409,FalseCHOICE,9.0,1,2.0,1750.0,,,,,,,,,,,1.0,1.0,,,B,,,,,,False,cue2.png,Easy,cue1.png,Hard,Left,Easy,Mid,0.0157529999269172,,,,,,,,,,,,,18,22,Female,0.75,0.8333333333333334,0.6131637749786023,,,,,,,,,,,,,0.2857142857142857,1.0,0.0,1.0,1.7222222222222223,2.625,2.111111111111111,2.2222222222222223,1.625,2.5555555555555554,1.0,1.5,1.0,1.5,8.94014747693378e-05,-0.47378844344281773,-7.333096190699148e-05,-0.6369952518107818,1.255,-1.7386938444591358,,,,,,
1,240618_151427,FalseCHOICE,9.0,2,2.0,1750.0,,,,,,,,,,,2.0,2.0,,,B,,,,,,False,cue1.png,Hard,cue2.png,Easy,Right,Easy,Mid,0.0171675999881699,,,,,,,,,,,,,18,22,Female,,,,,,,,,,,,,,,,0.2857142857142857,1.0,0.0,1.0,1.7222222222222223,2.625,2.111111111111111,2.2222222222222223,1.625,2.5555555555555554,1.0,1.5,1.0,1.5,-1.0668589199794992e-06,-0.6856918824085821,-1.3813836732120763e-05,-0.4687728804826846,1.9009999999999998,1.6317374339222637,,,,,,
2,240618_151445,FalseCHOICE,9.0,3,2.0,1750.0,,,,,,,,,,,3.0,3.0,,,B,,,,,,False,cue1.png,Hard,cue2.png,Easy,Right,Easy,Mid,0.0167568000033497,,,,,,,,,,,,,18,22,Female,,,,,,,,,,,,,,,,0.2857142857142857,1.0,0.0,1.0,1.7222222222222223,2.625,2.111111111111111,2.2222222222222223,1.625,2.5555555555555554,1.0,1.5,1.0,1.5,-6.730819585765505e-05,-0.8408485712339546,-0.00011190175736972875,-0.7460138016430949,1.588,-0.0013043464699611191,,,,,,
3,240618_151504,FalseCHOICE,9.0,4,2.0,1750.0,,,,,,,,,,,4.0,4.0,,,B,,,,,,False,cue1.png,Hard,cue2.png,Easy,Right,Easy,Mid,0.0167389000998809,,,,,,,,,,,,,18,22,Female,0.75,0.8333333333333334,0.5294831375067588,,,,,,,,,,,,,0.2857142857142857,1.0,0.0,1.0,1.7222222222222223,2.625,2.111111111111111,2.2222222222222223,1.625,2.5555555555555554,1.0,1.5,1.0,1.5,,,,,1.547,-0.21521716754370399,,,,,,
4,240618_151523,FalseCHOICE,9.0,5,2.0,1750.0,,,,,,,,,,,5.0,5.0,,,B,,,,,,False,cue2.png,Easy,cue1.png,Hard,Right,Hard,Mid,0.0166371000232175,,,,,,,,,,,,,18,22,Female,,,,,,,,,,,,,,,,0.2857142857142857,1.0,0.0,1.0,1.7222222222222223,2.625,2.111111111111111,2.2222222222222223,1.625,2.5555555555555554,1.0,1.5,1.0,1.5,0.0009794918986960454,1.6110650531219848,,,,,,,,,,
5,240618_151540,FalseCHOICE,9.0,6,2.0,1750.0,,,,,,,,,,,6.0,6.0,,,B,,,,,,False,cue1.png,Hard,cue2.png,Easy,Right,Easy,Mid,0.0140033999923616,,,,,,,,,,,,,18,22,Female,0.1666666666666666,0.6666666666666667,0.3444410750089446,,,,,,,,,,,,,0.2857142857142857,1.0,0.0,1.0,1.7222222222222223,2.625,2.111111111111111,2.2222222222222223,1.625,2.5555555555555554,1.0,1.5,1.0,1.5,,,0.0009802172348848748,2.340809463252951,1.4589999999999999,-0.6743471249702728,,,,,,
6,240618_151557,FalseCHOICE,9.0,7,2.0,1750.0,,,,,,,,,,,7.0,7.0,,,B,,,,,,False,cue1.png,Hard,cue2.png,Easy,Right,Easy,Mid,0.0166571999434381,,,,,,,,,,,,,18,22,Female,1.0,1.0,0.6729882500076201,,,,,,,,,,,,,0.2857142857142857,1.0,0.0,1.0,1.7222222222222223,2.625,2.111111111111111,2.2222222222222223,1.625,2.5555555555555554,1.0,1.5,1.0,1.5,0.000915663505653275,1.4615601884046783,0.00020626250779317342,0.1532626167038556,1.4629999999999999,-0.6534775814508833,,,,,,
7,240618_151616,FalseCHOICE,9.0,8,2.0,1750.0,,,,,,,,,,,8.0,8.0,,,B,,,,,,False,cue2.png,Easy,cue1.png,Hard,Left,Easy,Mid,0.0167221999727189,,,,,,,,,,,,,18,22,Female,,,,,,,,,,,,,,,,0.2857142857142857,1.0,0.0,1.0,1.7222222222222223,2.625,2.111111111111111,2.2222222222222223,1.625,2.5555555555555554,1.0,1.5,1.0,1.5,0.00022583209484925912,-0.1542278149200358,,,,,,,,,,
8,240618_151634,FalseCHOICE,9.0,9,2.0,1750.0,,,,,,,,,,,9.0,9.0,,,B,,,,,,False,cue2.png,Easy,cue1.png,Hard,Left,Easy,Mid,0.0015538000734522,,,,,,,,,,,,,18,22,Female,0.1666666666666666,0.6666666666666667,0.5921675250428962,,,,,,,,,,,,,0.2857142857142857,1.0,0.0,1.0,1.7222222222222223,2.625,2.111111111111111,2.2222222222222223,1.625,2.5555555555555554,1.0,1.5,1.0,1.5,,,-4.410495751032504e-05,-0.5543893169708972,1.7670000000000001,0.932607726022718,,,,,,
9,240618_151652,FalseCHOICE,9.0,10,2.0,1750.0,,,,,,,,,,,10.0,10.0,,,B,,,,,,False,cue1.png,Hard,cue2.png,Easy,Right,Easy,Mid,0.0151300000725314,,,,,,,,,,,,,18,22,Female,,,,,,,,,,,,,,,,0.2857142857142857,1.0,0.0,1.0,1.7222222222222223,2.625,2.111111111111111,2.2222222222222223,1.625,2.5555555555555554,1.0,1.5,1.0,1.5,-0.00010027585786403191,-0.9180685295212725,0.00012093880872046138,-0.0879008290493482,1.726,0.7186949049489751,,,,,,
0,240618_145009,OFFLINERATING,9.0,1,1.0,,,,,,,,,,,,,,,,,T0,cue2.png,Easy,31.0,0.9850523000350222,,,,,,,,,,,,,,,,,,,,,,18,22,Female,,,,,,,,,,,,,,,,0.2857142857142857,1.0,0.0,1.0,1.7222222222222223,2.625,2.111111111111111,2.2222222222222223,1.625,2.5555555555555554,1.0,1.5,1.0,1.5,,,,,,,0.0010540330252582029,-0.017950508420370853,-0.0009653034775587012,-0.6647400829425488,1.412,-1.142305269444538
1,240618_145016,OFFLINERATING,9.0,2,3.0,,,,,,,,,,,,,,,,,T0,cue1.png,Hard,37.0,1.4367227000184355,,,,,,,,,,,,,,,,,,,,,,18,22,Female,,,,,,,,,,,,,,,,0.2857142857142857,1.0,0.0,1.0,1.7222222222222223,2.625,2.111111111111111,2.2222222222222223,1.625,2.5555555555555554,1.0,1.5,1.0,1.5,,,,,,,,,0.001567006085591419,1.4133836707087368,1.9330000000000003,1.6066141087568675
2,240618_150829,OFFLINERATING,9.0,3,1.0,,,,,,,,,,,,,,,,,T1,cue2.png,Easy,1.0,1.5137198000447825,,,,,,,,,,,,,,,,,,,,,,18,22,Female,,,,,,,,,,,,,,,,0.2857142857142857,1.0,0.0,1.0,1.7222222222222223,2.625,2.111111111111111,2.2222222222222223,1.625,2.5555555555555554,1.0,1.5,1.0,1.5,,,,,,,-0.003268439689954418,-1.2156709536537786,-0.001067544572331523,-0.7486435877661879,1.595,-0.17675393314730758
3,240618_150836,OFFLINERATING,9.0,4,3.0,,,,,,,,,,,,,,,,,T1,cue1.png,Hard,0.0,1.602247099974193,,,,,,,,,,,,,,,,,,,,,,18,22,Female,,,,,,,,,,,,,,,,0.2857142857142857,1.0,0.0,1.0,1.7222222222222223,2.625,2.111111111111111,2.2222222222222223,1.625,2.5555555555555554,1.0,1.5,1.0,1.5,,,,,,,0.0055708513822607,1.2336214620741497,,,1.574,-0.28755490616502205
4,240618_151240,OFFLINERATING,9.0,5,1.0,,,,,,,,,,,,,,,,,T2,cue2.png,Easy,32.0,2.420667099999264,,,,,,,,,,,,,,,,,,,,,,18,22,Female,,,,,,,,,,,,,,,,0.2857142857142857,1.0,0.0,1.0,1.7222222222222223,2.625,2.111111111111111,2.2222222222222223,1.625,2.5555555555555554,1.0,1.5,1.0,1.5,,,,,,,,,,,,
5,240618_151248,OFFLINERATING,9.0,6,3.0,,,,,,,,,,,,,,,,,T2,cue1.png,Hard,0.0,1.402003200026229,,,,,,,,,,,,,,,,,,,,,,18,22,Female,,,,,,,,,,,,,,,,0.2857142857142857,1.0,0.0,1.0,1.7222222222222223,2.625,2.111111111111111,2.2222222222222223,1.625,2.5555555555555554,1.0,1.5,1.0,1.5,,,,,,,,,,,,
6,240618_152902,OFFLINERATING,9.0,7,1.0,,,,,,,,,,,,,,,,,T3,cue2.png,Easy,23.0,1.0445250999182465,,,,,,,,,,,,,,,,,,,,,,18,22,Female,,,,,,,,,,,,,,,,0.2857142857142857,1.0,0.0,1.0,1.7222222222222223,2.625,2.111111111111111,2.2222222222222223,1.625,2.5555555555555554,1.0,1.5,1.0,1.5,,,,,,,,,,,,
7,240618_152909,OFFLINERATING,9.0,8,3.0,,,,,,,,,,,,,,,,,T3,cue1.png,Hard,0.0,1.1022066000150517,,,,,,,,,,,,,,,,,,,,,,18,22,Female,,,,,,,,,,,,,,,,0.2857142857142857,1.0,0.0,1.0,1.7222222222222223,2.625,2.111111111111111,2.2222222222222223,1.625,2.5555555555555554,1.0,1.5,1.0,1.5,,,,,,,,,,,,
