,END,Phase,Block,TrialN,NbackLevel,ISI,Letter_Resp,Letter_RT,Letter_Accuracy,Trial_A_measure,Trial_ACC,Trial_RT,TrialCountCali,CaliEnd_A_measure,ISI_calibrated,TrialIndex,TrialNumber_total,TrialNumber_valid,CueLearning,TrialDemandLearning,CueMapping,OfflineRatingTimePoint,CueFigure,TrialDemand,OfflineRating,OfflineRatingRT,PhaseType,CueLeft,CueDemandLeft,CueRight,CueDemandRight,Choice,ChoiceDemand,TaskDemand,ChoiceRT,CueCheck,CueDemandCheck,CorrectAnswer,Answer,AnswerDemand,AnswerRT,AnswerACC,DemandRatingQuesIndex,QuesTLX,DemandLevel,DemandRating,DemandRatingRT,PID,Age,Gender,Task_A_measure,Task_ACC,Task_RT,cue_i_on_zyg_values,cue_i_on_zyg_zvalues,cue_e_on_zyg_values,cue_e_on_zyg_zvalues,cue_i_on_cor_values,cue_i_on_cor_zvalues,cue_e_on_cor_values,cue_e_on_cor_zvalues,cue_i_on_scr_values,cue_i_on_scr_zvalues,cue_e_on_scr_values,cue_e_on_scr_zvalues,BAI_bis,BAI_bas_d,BAI_bas_rr,BAI_bas_fs,NFC,BFI_ext,BFI_agr,BFI_con,BFI_neu,BFI_open,UPPS_lps,UPPS_lpm,UPPS_pu,UPPS_ss,cue_e_true_zyg_values,cue_e_true_zyg_zvalues,cue_e_true_cor_values,cue_e_true_cor_zvalues,cue_e_true_scr_values,cue_e_true_scr_zvalues,cue_i_off_zyg_values,cue_i_off_zyg_zvalues,cue_i_off_cor_values,cue_i_off_cor_zvalues,cue_i_off_scr_values,cue_i_off_scr_zvalues
0,240623_093644,LEARNING,1.0,1,1.0,500.0,,,,,,,,,,1.0,1.0,1.0,cue1.png,Easy,A,,,,,,,,,,,,,,,,,,,,,,,,,,,23,21,Female,1.0,1.0,0.4024259812722448,1.913921925516789e-05,-0.868824650707195,-2.778768094729425e-05,0.20362730637605694,-5.938016108929852e-05,-0.5221434721900814,0.0002634418473194582,0.19782495708945352,,,,,0.2857142857142857,1.25,0.6,1.0,2.7777777777777777,1.375,3.0,2.7777777777777777,2.25,3.0,1.25,1.5,2.0,0.25,,,,,,,,,,,,
1,240623_093709,LEARNING,1.0,2,3.0,500.0,,,,,,,,,,2.0,2.0,2.0,cue2.png,Hard,A,,,,,,,,,,,,,,,,,,,,,,,,,,,23,21,Female,0.6113636363636364,0.6647727272727273,0.3346813400043175,0.000888311831794534,0.19718761559950604,,,0.001059046503191107,0.16631971078101374,0.006554345790450532,2.897325138102205,1.4450000000000003,0.017360700251905423,1.9509999999999998,0.790478068949688,0.2857142857142857,1.25,0.6,1.0,2.7777777777777777,1.375,3.0,2.7777777777777777,2.25,3.0,1.25,1.5,2.0,0.25,,,,,,,,,,,,
2,240623_093735,LEARNING,1.0,3,1.0,500.0,,,,,,,,,,3.0,3.0,3.0,cue1.png,Easy,A,,,,,,,,,,,,,,,,,,,,,,,,,,,23,21,Female,0.8958333333333333,0.9166666666666666,0.4273981062506209,0.0021085155752523614,1.6937282787010899,,,0.000990377800349853,0.12404972988870085,0.002226090167176927,1.0400202191081314,1.1740000000000002,-0.44304294679555084,1.6060000000000003,0.20961559016876793,0.2857142857142857,1.25,0.6,1.0,2.7777777777777777,1.375,3.0,2.7777777777777777,2.25,3.0,1.25,1.5,2.0,0.25,,,,,,,,,,,,
3,240623_093759,LEARNING,1.0,4,3.0,500.0,,,,,,,,,,4.0,4.0,4.0,cue2.png,Hard,A,,,,,,,,,,,,,,,,,,,,,,,,,,,23,21,Female,0.0715909090909091,0.6363636363636364,0.3214503062263247,0.0011992537312456746,0.578547858825771,-0.0012253488849318628,-0.5001045737578725,0.002009388632927216,0.7513161065622348,0.003789231477662863,1.7107823685147696,1.594,0.27049776080567245,1.5840000000000003,0.17257508427549179,0.2857142857142857,1.25,0.6,1.0,2.7777777777777777,1.375,3.0,2.7777777777777777,2.25,3.0,1.25,1.5,2.0,0.25,,,,,,,,,,,,
4,240623_093823,LEARNING,1.0,5,3.0,500.0,,,,,,,,,,5.0,5.0,5.0,cue2.png,Hard,A,,,,,,,,,,,,,,,,,,,,,,,,,,,23,21,Female,0.75,0.8333333333333334,0.3471757500010426,0.0022619104028189546,1.881862103231351,0.0031490663591747835,2.0704658939385405,0.0023368557055093364,0.9528930452282733,0.0014202930385291248,0.6942432823899332,1.5799999999999998,0.2467130705522979,,,0.2857142857142857,1.25,0.6,1.0,2.7777777777777777,1.375,3.0,2.7777777777777777,2.25,3.0,1.25,1.5,2.0,0.25,,,,,,,,,,,,
5,240623_093849,LEARNING,1.0,6,1.0,500.0,,,,,,,,,,6.0,6.0,6.0,cue1.png,Easy,A,,,,,,,,,,,,,,,,,,,,,,,,,,,23,21,Female,1.0,1.0,0.4010996687429724,0.0005405406452091998,-0.22934256427453112,-0.0018248808522071478,-0.8524120442464259,-0.00037990275951543025,-0.719445642617678,-0.0020456362232539873,-0.7930273474178633,,,,,0.2857142857142857,1.25,0.6,1.0,2.7777777777777777,1.375,3.0,2.7777777777777777,2.25,3.0,1.25,1.5,2.0,0.25,,,,,,,,,,,,
6,240623_093916,LEARNING,1.0,7,3.0,500.0,,,,,,,,,,7.0,7.0,7.0,cue2.png,Hard,A,,,,,,,,,,,,,,,,,,,,,,,,,,,23,21,Female,0.0484848484848484,0.6022727272727273,0.4192571714354147,2.901531013889966e-05,-0.8567119427440905,-0.0014814912884154258,-0.6506234571232977,-0.0008403112036627592,-1.0028565027551914,-0.0007906914882028476,-0.25451593950953777,1.4660000000000002,0.05303773563196643,1.141,-0.5732860116663868,0.2857142857142857,1.25,0.6,1.0,2.7777777777777777,1.375,3.0,2.7777777777777777,2.25,3.0,1.25,1.5,2.0,0.25,,,,,,,,,,,,
7,240623_093942,LEARNING,1.0,8,3.0,500.0,,,,,,,,,,8.0,8.0,8.0,cue2.png,Hard,A,,,,,,,,,,,,,,,,,,,,,,,,,,,23,21,Female,0.5,0.6875,0.4404049666598439,,,0.00012653334947425234,0.29431213193772376,0.0018937035579859986,0.6801045399392918,,,,,,,0.2857142857142857,1.25,0.6,1.0,2.7777777777777777,1.375,3.0,2.7777777777777777,2.25,3.0,1.25,1.5,2.0,0.25,,,,,,,,,,,,
8,240623_094008,LEARNING,1.0,9,1.0,500.0,,,,,,,,,,9.0,9.0,9.0,cue1.png,Easy,A,,,,,,,,,,,,,,,,,,,,,,,,,,,23,21,Female,1.0,1.0,0.4084505437567713,0.0018874103873274001,1.4225498740071871,0.00033422571680506545,0.4163599568546231,0.004248687341119154,2.1297477601537516,7.507031576235029e-05,0.11699253807099214,,,,,0.2857142857142857,1.25,0.6,1.0,2.7777777777777777,1.375,3.0,2.7777777777777777,2.25,3.0,1.25,1.5,2.0,0.25,,,,,,,,,,,,
9,240623_094033,LEARNING,1.0,10,1.0,500.0,,,,,,,,,,10.0,10.0,10.0,cue1.png,Easy,A,,,,,,,,,,,,,,,,,,,,,,,,,,,23,21,Female,0.7818181818181817,0.8181818181818181,0.422583100022166,,,-0.00023765706029610237,0.08030018754465838,0.003806548899610826,1.857583255786761,-0.00014519092144150633,0.022475874793828034,1.48,0.07682242588534019,0.2669999999999999,-2.04480429124472,0.2857142857142857,1.25,0.6,1.0,2.7777777777777777,1.375,3.0,2.7777777777777777,2.25,3.0,1.25,1.5,2.0,0.25,,,,,,,,,,,,
10,240623_094058,LEARNING,1.0,11,3.0,500.0,,,,,,,,,,11.0,11.0,11.0,cue2.png,Hard,A,,,,,,,,,,,,,,,,,,,,,,,,,,,23,21,Female,0.6113636363636364,0.6647727272727273,0.357522159977816,0.0013317494863046234,0.7410496428083059,0.0008533159528486571,0.7213968489605811,0.0005887607052173635,-0.12317129271488467,-0.000710496370388578,-0.2201032800550348,,,0.7180000000000002,-1.285473920432559,0.2857142857142857,1.25,0.6,1.0,2.7777777777777777,1.375,3.0,2.7777777777777777,2.25,3.0,1.25,1.5,2.0,0.25,,,,,,,,,,,,
11,240623_094124,LEARNING,1.0,12,1.0,500.0,,,,,,,,,,12.0,12.0,12.0,cue1.png,Easy,A,,,,,,,,,,,,,,,,,,,,,,,,,,,23,21,Female,0.8958333333333333,0.8541666666666666,0.3770138666654626,0.0008178329888296741,0.1107475805227662,0.0005128934439432471,0.5213518145733446,0.00027087670018566875,-0.31884924005757337,-0.0030238930977843654,-1.2128087705240247,,,1.468,-0.02272940134360099,0.2857142857142857,1.25,0.6,1.0,2.7777777777777777,1.375,3.0,2.7777777777777777,2.25,3.0,1.25,1.5,2.0,0.25,,,,,,,,,,,,
12,240623_094150,LEARNING,1.0,13,1.0,500.0,,,,,,,,,,13.0,13.0,13.0,cue1.png,Easy,A,,,,,,,,,,,,,,,,,,,,,,,,,,,23,21,Female,1.0,1.0,0.4297941312470357,,,0.0023470231407281437,1.5991552167154042,-0.0004752333547990758,-0.7781277244739212,,,1.9260000000000002,0.834534701099973,,,0.2857142857142857,1.25,0.6,1.0,2.7777777777777777,1.375,3.0,2.7777777777777777,2.25,3.0,1.25,1.5,2.0,0.25,,,,,,,,,,,,
13,240623_094218,LEARNING,1.0,14,1.0,500.0,,,,,,,,,,14.0,14.0,14.0,cue1.png,Easy,A,,,,,,,,,,,,,,,,,,,,,,,,,,,23,21,Female,0.9090909090909092,0.8465909090909091,0.5343825733289123,-0.0011999631967714126,-2.364014571120857,0.0011399351309769128,0.8898250281931126,-0.0012675320625961193,-1.265838280431376,0.0004167832194323451,0.26362552653344595,1.459,0.04114539050527918,,,0.2857142857142857,1.25,0.6,1.0,2.7777777777777777,1.375,3.0,2.7777777777777777,2.25,3.0,1.25,1.5,2.0,0.25,,,,,,,,,,,,
14,240623_094242,LEARNING,1.0,15,3.0,500.0,,,,,,,,,,15.0,15.0,15.0,cue2.png,Hard,A,,,,,,,,,,,,,,,,,,,,,,,,,,,23,21,Female,0.5,0.75,0.3469625624857144,0.002107825944668844,1.6928824689612936,,,-0.0020759958439236044,-1.7634994735930056,,,,,,,0.2857142857142857,1.25,0.6,1.0,2.7777777777777777,1.375,3.0,2.7777777777777777,2.25,3.0,1.25,1.5,2.0,0.25,,,,,,,,,,,,
15,240623_094309,LEARNING,1.0,16,1.0,500.0,,,,,,,,,,16.0,16.0,16.0,cue1.png,Easy,A,,,,,,,,,,,,,,,,,,,,,,,,,,,23,21,Female,1.0,1.0,0.4597105687498697,-5.3690305845571426e-05,-0.9581477218516663,,,-0.0009730932528869609,-1.084592351130315,0.0008606113986622558,0.45407736954368666,,,,,0.2857142857142857,1.25,0.6,1.0,2.7777777777777777,1.375,3.0,2.7777777777777777,2.25,3.0,1.25,1.5,2.0,0.25,,,,,,,,,,,,
16,240623_094334,LEARNING,1.0,17,1.0,500.0,,,,,,,,,,17.0,17.0,17.0,cue1.png,Easy,A,,,,,,,,,,,,,,,,,,,,,,,,,,,23,21,Female,0.75,0.8333333333333334,0.4203466687249602,0.0017219838307356156,1.2196595206347896,-0.0003494910059080544,0.01458236657113533,0.002767449387661317,1.2179510114314762,0.0009253563139960622,0.481860167094443,,,,,0.2857142857142857,1.25,0.6,1.0,2.7777777777777777,1.375,3.0,2.7777777777777777,2.25,3.0,1.25,1.5,2.0,0.25,,,,,,,,,,,,
17,240623_094359,LEARNING,1.0,18,3.0,500.0,,,,,,,,,,18.0,18.0,18.0,cue2.png,Hard,A,,,,,,,,,,,,,,,,,,,,,,,,,,,23,21,Female,0.5,0.75,0.3919137187476735,,,0.0004629713642745276,0.49201572814321287,0.0005389126643010863,-0.1538559518079993,-0.0009151799463807788,-0.307935387401801,,,,,0.2857142857142857,1.25,0.6,1.0,2.7777777777777777,1.375,3.0,2.7777777777777777,2.25,3.0,1.25,1.5,2.0,0.25,,,,,,,,,,,,
18,240623_094424,LEARNING,1.0,19,3.0,500.0,,,,,,,,,,19.0,19.0,19.0,cue2.png,Hard,A,,,,,,,,,,,,,,,,,,,,,,,,,,,23,21,Female,0.8958333333333333,0.9166666666666666,0.3320150874860701,,,8.230602029159206e-05,0.2683224944849921,-0.0011252525522685288,-1.1782561369792388,0.0017214130109105283,0.8234573710643781,,,,,0.2857142857142857,1.25,0.6,1.0,2.7777777777777777,1.375,3.0,2.7777777777777777,2.25,3.0,1.25,1.5,2.0,0.25,,,,,,,,,,,,
19,240623_094450,LEARNING,1.0,20,3.0,500.0,,,,,,,,,,20.0,20.0,20.0,cue2.png,Hard,A,,,,,,,,,,,,,,,,,,,,,,,,,,,23,21,Female,0.2083333333333333,0.7083333333333334,0.3875481142895296,0.0014967251514277219,0.9433869922900399,-0.006338038185828786,-3.5045125675118016,,,-0.004706692554801659,-1.934917624814584,,,,,0.2857142857142857,1.25,0.6,1.0,2.7777777777777777,1.375,3.0,2.7777777777777777,2.25,3.0,1.25,1.5,2.0,0.25,,,,,,,,,,,,
20,240623_094516,LEARNING,1.0,21,1.0,500.0,,,,,,,,,,21.0,21.0,21.0,cue1.png,Easy,A,,,,,,,,,,,,,,,,,,,,,,,,,,,23,21,Female,0.75,0.8333333333333334,0.4418408562414697,-0.00011440421294893737,-1.0326113770265608,-7.509187074639448e-05,0.17582959022195047,0.0005001262732919716,-0.1777314575187624,-0.0002041334342940699,-0.0028170442450291652,0.5749999999999997,-1.4606879083506297,1.9540000000000002,0.7955290470260444,0.2857142857142857,1.25,0.6,1.0,2.7777777777777777,1.375,3.0,2.7777777777777777,2.25,3.0,1.25,1.5,2.0,0.25,,,,,,,,,,,,
21,240623_094542,LEARNING,1.0,22,3.0,500.0,,,,,,,,,,22.0,22.0,22.0,cue2.png,Hard,A,,,,,,,,,,,,,,,,,,,,,,,,,,,23,21,Female,0.5,0.625,0.3689363571299639,0.000608833186478093,-0.1455839579406259,-0.0029284776656749497,-1.5009269242103542,,,-0.004870346372932502,-2.0051433850012446,1.026,-0.6944811009026488,1.609,0.2146665682451232,0.2857142857142857,1.25,0.6,1.0,2.7777777777777777,1.375,3.0,2.7777777777777777,2.25,3.0,1.25,1.5,2.0,0.25,,,,,,,,,,,,
22,240623_094609,LEARNING,1.0,23,3.0,500.0,,,,,,,,,,23.0,23.0,23.0,cue2.png,Hard,A,,,,,,,,,,,,,,,,,,,,,,,,,,,23,21,Female,0.1666666666666666,0.6041666666666667,0.4443005600012839,0.0007862278181161777,0.07198485471520573,-0.0007172068038474675,-0.20150122813605076,0.002574449052809847,1.0991469547239934,-0.0011896173051960408,-0.42569965570021867,1.455,0.03434976471860086,,,0.2857142857142857,1.25,0.6,1.0,2.7777777777777777,1.375,3.0,2.7777777777777777,2.25,3.0,1.25,1.5,2.0,0.25,,,,,,,,,,,,
23,240623_094636,LEARNING,1.0,24,3.0,500.0,,,,,,,,,,24.0,24.0,24.0,cue2.png,Hard,A,,,,,,,,,,,,,,,,,,,,,,,,,,,23,21,Female,0.7818181818181817,0.8181818181818181,0.4967686625022907,,,-0.0033950922051330466,-1.7751271288079185,-0.0015030752395904113,-1.4108301789077502,-0.0004259550424220229,-0.09800328086652074,,,2.308,1.3915444600360323,0.2857142857142857,1.25,0.6,1.0,2.7777777777777777,1.375,3.0,2.7777777777777777,2.25,3.0,1.25,1.5,2.0,0.25,,,,,,,,,,,,
24,240623_094702,LEARNING,1.0,25,1.0,500.0,,,,,,,,,,25.0,25.0,25.0,cue1.png,Easy,A,,,,,,,,,,,,,,,,,,,,,,,,,,,23,21,Female,1.0,1.0,0.4329612500005169,,,,,,,,,0.6279999999999999,-1.3706458666771417,0.42599999999999993,-1.7771024531978605,0.2857142857142857,1.25,0.6,1.0,2.7777777777777777,1.375,3.0,2.7777777777777777,2.25,3.0,1.25,1.5,2.0,0.25,,,,,,,,,,,,
25,240623_094727,LEARNING,1.0,26,1.0,500.0,,,,,,,,,,26.0,26.0,26.0,cue1.png,Easy,A,,,,,,,,,,,,,,,,,,,,,,,,,,,23,21,Female,0.8958333333333333,0.9166666666666666,0.4156374125013826,0.0003578034843293369,-0.4534638172887845,2.8880102321226803e-05,0.23692742125109778,,,-0.0005952610649565607,-0.17065446781995836,1.441,0.010565074465226722,1.6800000000000002,0.33420638271887826,0.2857142857142857,1.25,0.6,1.0,2.7777777777777777,1.375,3.0,2.7777777777777777,2.25,3.0,1.25,1.5,2.0,0.25,,,,,,,,,,,,
26,240623_094756,LEARNING,1.0,27,3.0,500.0,,,,,,,,,,27.0,27.0,27.0,cue2.png,Hard,A,,,,,,,,,,,,,,,,,,,,,,,,,,,23,21,Female,0.6041666666666667,0.6458333333333334,0.4929977307866255,8.146059143766685e-05,-0.7923894912910321,,,,,-0.0007572424002342329,-0.24016254612724347,0.32699999999999996,-1.882016707124685,,,0.2857142857142857,1.25,0.6,1.0,2.7777777777777777,1.375,3.0,2.7777777777777777,2.25,3.0,1.25,1.5,2.0,0.25,,,,,,,,,,,,
27,240623_094822,LEARNING,1.0,28,1.0,500.0,,,,,,,,,,28.0,28.0,28.0,cue1.png,Easy,A,,,,,,,,,,,,,,,,,,,,,,,,,,,23,21,Female,1.0,0.9375,0.4543804666570698,0.0017217666464872205,1.2193931511363751,-0.0001481761672882556,0.13288251641683385,0.0025796890897272955,1.102372532770627,0.00023722349347396563,0.1865743559689193,0.512,-1.5677190144908126,,,0.2857142857142857,1.25,0.6,1.0,2.7777777777777777,1.375,3.0,2.7777777777777777,2.25,3.0,1.25,1.5,2.0,0.25,,,,,,,,,,,,
28,240623_094849,LEARNING,1.0,29,1.0,500.0,,,,,,,,,,29.0,29.0,29.0,cue1.png,Easy,A,,,,,,,,,,,,,,,,,,,,,,,,,,,23,21,Female,0.8958333333333333,0.9166666666666666,0.4748989875224652,-6.353267241685553e-06,-0.9000903658393233,-8.989392077213753e-05,0.16713135044949132,,,,,1.292,-0.24257198608854066,,,0.2857142857142857,1.25,0.6,1.0,2.7777777777777777,1.375,3.0,2.7777777777777777,2.25,3.0,1.25,1.5,2.0,0.25,,,,,,,,,,,,
29,240623_094917,LEARNING,1.0,30,3.0,500.0,,,,,,,,,,30.0,30.0,30.0,cue2.png,Hard,A,,,,,,,,,,,,,,,,,,,,,,,,,,,23,21,Female,0.0715909090909091,0.5738636363636364,0.5365796333178878,0.0003007804705614462,-0.5234007104460044,0.0017310896578484995,1.2372096004895827,,,0.004456251071758898,1.9970082481782738,1.9220000000000002,0.8277390753132946,0.5189999999999999,-1.62052213283083,0.2857142857142857,1.25,0.6,1.0,2.7777777777777777,1.375,3.0,2.7777777777777777,2.25,3.0,1.25,1.5,2.0,0.25,,,,,,,,,,,,
30,240623_094945,LEARNING,1.0,31,3.0,500.0,,,,,,,,,,31.0,31.0,31.0,cue2.png,Hard,A,,,,,,,,,,,,,,,,,,,,,,,,,,,23,21,Female,0.6041666666666667,0.5208333333333334,0.4070207909151742,9.494631757461878e-05,-0.7758496817357782,0.0002747472051539946,0.38140815256060623,,,,,,,0.8619999999999999,-1.0430269727674795,0.2857142857142857,1.25,0.6,1.0,2.7777777777777777,1.375,3.0,2.7777777777777777,2.25,3.0,1.25,1.5,2.0,0.25,,,,,,,,,,,,
31,240623_095013,LEARNING,1.0,32,1.0,500.0,,,,,,,,,,32.0,32.0,32.0,cue1.png,Easy,A,,,,,,,,,,,,,,,,,,,,,,,,,,,23,21,Female,1.0,1.0,0.5173355437509599,0.0021243143596270885,1.7131049798226188,-0.0005755864210907269,-0.11827977950270638,0.004582554555432841,2.335264395617716,0.0005652946392788773,0.327353507183336,1.0990000000000002,-0.5704609302957693,1.371,-0.18604435914577291,0.2857142857142857,1.25,0.6,1.0,2.7777777777777777,1.375,3.0,2.7777777777777777,2.25,3.0,1.25,1.5,2.0,0.25,,,,,,,,,,,,
32,240623_095039,LEARNING,1.0,33,1.0,500.0,,,,,,,,,,33.0,33.0,33.0,cue1.png,Easy,A,,,,,,,,,,,,,,,,,,,,,,,,,,,23,21,Female,1.0,1.0,0.4716139687443501,0.0008909754052318394,0.2004544027893149,-0.0021276306310556384,-1.0303191694691674,,,,,1.4629999999999999,0.04794101629195713,2.073,0.9958845107214921,0.2857142857142857,1.25,0.6,1.0,2.7777777777777777,1.375,3.0,2.7777777777777777,2.25,3.0,1.25,1.5,2.0,0.25,,,,,,,,,,,,
33,240623_095104,LEARNING,1.0,34,1.0,500.0,,,,,,,,,,34.0,34.0,34.0,cue1.png,Easy,A,,,,,,,,,,,,,,,,,,,,,,,,,,,23,21,Female,1.0,1.0,0.3816285750071984,-4.4094182150147126e-05,-0.9463783846443744,-0.0014024202299343274,-0.6041583374584824,,,-0.0006473084029488029,-0.19298858698652124,1.2890000000000001,-0.2476687054285492,1.224,-0.4335422848872088,0.2857142857142857,1.25,0.6,1.0,2.7777777777777777,1.375,3.0,2.7777777777777777,2.25,3.0,1.25,1.5,2.0,0.25,,,,,,,,,,,,
34,240623_095131,LEARNING,1.0,35,3.0,500.0,,,,,,,,,,35.0,35.0,35.0,cue2.png,Hard,A,,,,,,,,,,,,,,,,,,,,,,,,,,,23,21,Female,0.75,0.8333333333333334,0.4814588500157697,,,-6.197991925920108e-05,0.1835346647029925,0.0009027461175254549,0.07010682132507538,,,0.7080000000000001,-1.234733350943575,2.6149999999999998,1.9084278831831123,0.2857142857142857,1.25,0.6,1.0,2.7777777777777777,1.375,3.0,2.7777777777777777,2.25,3.0,1.25,1.5,2.0,0.25,,,,,,,,,,,,
35,240623_095159,LEARNING,1.0,36,3.0,500.0,,,,,,,,,,36.0,36.0,36.0,cue2.png,Hard,A,,,,,,,,,,,,,,,,,,,,,,,,,,,23,21,Female,0.6041666666666667,0.6458333333333334,0.457320861509428,,,,,0.0005655251437391385,-0.13747426771030974,-0.000727300439600384,-0.22731410194789678,1.431,-0.006423990001469088,1.0010000000000001,-0.8089983218963255,0.2857142857142857,1.25,0.6,1.0,2.7777777777777777,1.375,3.0,2.7777777777777777,2.25,3.0,1.25,1.5,2.0,0.25,,,,,,,,,,,,
36,240623_095224,LEARNING,1.0,37,1.0,500.0,,,,,,,,,,37.0,37.0,37.0,cue1.png,Easy,A,,,,,,,,,,,,,,,,,,,,,,,,,,,23,21,Female,1.0,1.0,0.4050624374940526,0.0005072786745356859,-0.2701373019687008,-0.0006028596305986274,-0.13430654033999945,0.0007621249538503506,-0.016454503640429385,,,,,1.8679999999999999,0.65073434217051,0.2857142857142857,1.25,0.6,1.0,2.7777777777777777,1.375,3.0,2.7777777777777777,2.25,3.0,1.25,1.5,2.0,0.25,,,,,,,,,,,,
37,240623_095250,LEARNING,1.0,38,3.0,500.0,,,,,,,,,,38.0,38.0,38.0,cue2.png,Hard,A,,,,,,,,,,,,,,,,,,,,,,,,,,,23,21,Female,0.5,0.625,0.3489413214431676,7.587142624592216e-05,-0.7992444227130049,0.00030890380465866665,0.40147985153384236,0.00014852755774617202,-0.3941629666771682,,,1.2750000000000001,-0.27145339568192334,1.7180000000000002,0.39818543835271886,0.2857142857142857,1.25,0.6,1.0,2.7777777777777777,1.375,3.0,2.7777777777777777,2.25,3.0,1.25,1.5,2.0,0.25,,,,,,,,,,,,
38,240623_095316,LEARNING,1.0,39,3.0,500.0,,,,,,,,,,39.0,39.0,39.0,cue2.png,Hard,A,,,,,,,,,,,,,,,,,,,,,,,,,,,23,21,Female,0.6041666666666667,0.7708333333333334,0.4392331999959424,,,,,,,-0.00018933109857974164,0.003534810480692893,2.774,2.275207367875776,1.428,-0.09007577569501217,0.2857142857142857,1.25,0.6,1.0,2.7777777777777777,1.375,3.0,2.7777777777777777,2.25,3.0,1.25,1.5,2.0,0.25,,,,,,,,,,,,
39,240623_095344,LEARNING,1.0,40,3.0,500.0,,,,,,,,,,40.0,40.0,40.0,cue2.png,Hard,A,,,,,,,,,,,,,,,,,,,,,,,,,,,23,21,Female,0.2083333333333333,0.7083333333333334,0.5022146428652506,0.0013483508480013123,0.7614106792132156,,,0.002273193450842946,0.9137048535635663,8.558314070946857e-05,0.12150371374689609,1.924,0.8311368882066335,2.453,1.6356750670598976,0.2857142857142857,1.25,0.6,1.0,2.7777777777777777,1.375,3.0,2.7777777777777777,2.25,3.0,1.25,1.5,2.0,0.25,,,,,,,,,,,,
40,240623_095412,LEARNING,1.0,41,1.0,500.0,,,,,,,,,,41.0,41.0,41.0,cue1.png,Easy,A,,,,,,,,,,,,,,,,,,,,,,,,,,,23,21,Female,0.8958333333333333,0.8541666666666666,0.5170239866788809,,,,,-0.001286573374202047,-1.2775594262291614,-0.000670227064991309,-0.20282325190774753,1.521,0.14647759019879283,2.02,0.9066505647058725,0.2857142857142857,1.25,0.6,1.0,2.7777777777777777,1.375,3.0,2.7777777777777777,2.25,3.0,1.25,1.5,2.0,0.25,,,,,,,,,,,,
41,240623_095441,LEARNING,1.0,42,3.0,500.0,,,,,,,,,,42.0,42.0,42.0,cue2.png,Hard,A,,,,,,,,,,,,,,,,,,,,,,,,,,,23,21,Female,0.75,0.8333333333333334,0.6258790687497822,1.043134398866696e-05,-0.8795045797726523,-0.00013068147017587144,0.14316305660994316,,,-0.0009099952540616782,-0.3057105755177808,,,,,0.2857142857142857,1.25,0.6,1.0,2.7777777777777777,1.375,3.0,2.7777777777777777,2.25,3.0,1.25,1.5,2.0,0.25,,,,,,,,,,,,
42,240623_095509,LEARNING,1.0,43,3.0,500.0,,,,,,,,,,43.0,43.0,43.0,cue2.png,Hard,A,,,,,,,,,,,,,,,,,,,,,,,,,,,23,21,Female,0.5272727272727272,0.6931818181818181,0.458948721419022,6.17729808149183e-05,-0.8165357127841415,0.002537153375173976,1.7108828736499175,-0.0006509863976175813,-0.886314969234877,0.002979527301096729,1.363328872011506,1.2980000000000003,-0.2323785474085228,1.964,0.8123656406138968,0.2857142857142857,1.25,0.6,1.0,2.7777777777777777,1.375,3.0,2.7777777777777777,2.25,3.0,1.25,1.5,2.0,0.25,,,,,,,,,,,,
43,240623_095536,LEARNING,1.0,44,1.0,500.0,,,,,,,,,,44.0,44.0,44.0,cue1.png,Easy,A,,,,,,,,,,,,,,,,,,,,,,,,,,,23,21,Female,1.0,1.0,0.5199406062311027,0.00015740061097071524,-0.6992514987244134,-0.0014257156072420654,-0.6178475748992561,8.025084727125622e-05,-0.4361916511833625,-0.005831409970702486,-2.4175469727205594,,,1.8259999999999998,0.5800206491015283,0.2857142857142857,1.25,0.6,1.0,2.7777777777777777,1.375,3.0,2.7777777777777777,2.25,3.0,1.25,1.5,2.0,0.25,,,,,,,,,,,,
44,240623_095602,LEARNING,1.0,45,1.0,500.0,,,,,,,,,,45.0,45.0,45.0,cue1.png,Easy,A,,,,,,,,,,,,,,,,,,,,,,,,,,,23,21,Female,1.0,1.0,0.4191585937296622,0.0001560706815980249,-0.7008826143442067,-0.00011507690856779173,0.15233288228781405,-0.0002590733893967339,-0.6450674331158217,0.00010469747302226974,0.1297058964546268,1.925,0.8328357946533032,1.3270000000000002,-0.26012537093232485,0.2857142857142857,1.25,0.6,1.0,2.7777777777777777,1.375,3.0,2.7777777777777777,2.25,3.0,1.25,1.5,2.0,0.25,,,,,,,,,,,,
45,240623_095628,LEARNING,1.0,46,1.0,500.0,,,,,,,,,,46.0,46.0,46.0,cue1.png,Easy,A,,,,,,,,,,,,,,,,,,,,,,,,,,,23,21,Female,0.8958333333333333,0.9166666666666666,0.462900343714864,,,,,0.0033934188949639064,1.6032753006352447,-0.0042318448103306205,-1.7311549249322093,1.8749999999999998,0.7478904723198238,1.602,0.20288095273362644,0.2857142857142857,1.25,0.6,1.0,2.7777777777777777,1.375,3.0,2.7777777777777777,2.25,3.0,1.25,1.5,2.0,0.25,,,,,,,,,,,,
46,240623_095655,LEARNING,1.0,47,3.0,500.0,,,,,,,,,,47.0,47.0,47.0,cue2.png,Hard,A,,,,,,,,,,,,,,,,,,,,,,,,,,,23,21,Female,0.6041666666666667,0.6458333333333334,0.4138954230584204,0.0017048799664864576,1.1986821810041977,,,0.0005299237251014353,-0.15938921911158868,0.0006144092382131903,0.3484291538490769,,,,,0.2857142857142857,1.25,0.6,1.0,2.7777777777777777,1.375,3.0,2.7777777777777777,2.25,3.0,1.25,1.5,2.0,0.25,,,,,,,,,,,,
47,240623_095722,LEARNING,1.0,48,3.0,500.0,,,,,,,,,,48.0,48.0,48.0,cue2.png,Hard,A,,,,,,,,,,,,,,,,,,,,,,,,,,,23,21,Female,0.8958333333333333,0.7916666666666666,0.3883359357382038,0.00038711075147004285,-0.4175193963381015,,,0.0006805921159644601,-0.0666431828630425,-7.804380307349992e-05,0.05128948565603751,0.7100000000000002,-1.2313355380502358,1.375,-0.17930972171063178,0.2857142857142857,1.25,0.6,1.0,2.7777777777777777,1.375,3.0,2.7777777777777777,2.25,3.0,1.25,1.5,2.0,0.25,,,,,,,,,,,,
48,240623_095748,LEARNING,1.0,49,1.0,500.0,,,,,,,,,,49.0,49.0,49.0,cue1.png,Easy,A,,,,,,,,,,,,,,,,,,,,,,,,,,,23,21,Female,1.0,1.0,0.4577900937583763,0.000550810089741807,-0.21674742070698147,-0.0020834851158946077,-1.0043776090041263,7.40681867866513e-05,-0.4399974743565782,-3.400907684121546e-05,0.07018529975675873,2.911,2.5079575510695085,,,0.2857142857142857,1.25,0.6,1.0,2.7777777777777777,1.375,3.0,2.7777777777777777,2.25,3.0,1.25,1.5,2.0,0.25,,,,,,,,,,,,
49,240623_095814,LEARNING,1.0,50,1.0,500.0,,,,,,,,,,50.0,50.0,50.0,cue1.png,Easy,A,,,,,,,,,,,,,,,,,,,,,,,,,,,23,21,Female,0.8958333333333333,0.9166666666666666,0.4230188624787843,,,,,0.000715129489834038,-0.0453832191076085,-0.0014985610402474493,-0.5582710120956149,2.408,1.6534076083947098,0.4870000000000001,-1.6743992323119583,0.2857142857142857,1.25,0.6,1.0,2.7777777777777777,1.375,3.0,2.7777777777777777,2.25,3.0,1.25,1.5,2.0,0.25,,,,,,,,,,,,
0,240623_095918,TrueCHOICE,9.0,1,1.0,500.0,,,,,,,,,,,1.0,1.0,,,A,,,,,,True,cue1.png,Easy,cue2.png,Hard,Left,Easy,Easy,0.0151667000027373,,,,,,,,,,,,,23,21,Female,0.6909090909090909,0.7556818181818181,0.4708712800095478,,,,,,,,,,,,,0.2857142857142857,1.25,0.6,1.0,2.7777777777777777,1.375,3.0,2.7777777777777777,2.25,3.0,1.25,1.5,2.0,0.25,,,0.0003404082371421041,-0.4870392312746652,,,,,,,,
1,240623_095944,TrueCHOICE,9.0,2,1.0,500.0,,,,,,,,,,,2.0,2.0,,,A,,,,,,True,cue1.png,Easy,cue2.png,Hard,Left,Easy,Easy,0.0159017000114545,,,,,,,,,,,,,23,21,Female,,,,,,,,,,,,,,,,0.2857142857142857,1.25,0.6,1.0,2.7777777777777777,1.375,3.0,2.7777777777777777,2.25,3.0,1.25,1.5,2.0,0.25,0.0024378660190342793,2.0855617789002046,0.002986558787251197,1.2797649819441053,1.458,-0.04092610960365534,,,,,,
2,240623_100008,TrueCHOICE,9.0,3,1.0,500.0,,,,,,,,,,,3.0,3.0,,,A,,,,,,True,cue2.png,Hard,cue1.png,Easy,Right,Easy,Easy,0.0166365000186488,,,,,,,,,,,,,23,21,Female,1.0,1.0,0.4158835937341791,,,,,,,,,,,,,0.2857142857142857,1.25,0.6,1.0,2.7777777777777777,1.375,3.0,2.7777777777777777,2.25,3.0,1.25,1.5,2.0,0.25,-4.4861169599860404e-05,-0.4952179920109145,0.0003738293928632853,-0.4647243109325897,1.47,0.0292329354311835,,,,,,
3,240623_100032,TrueCHOICE,9.0,4,1.0,500.0,,,,,,,,,,,4.0,4.0,,,A,,,,,,True,cue1.png,Easy,cue2.png,Hard,Left,Easy,Easy,0.0164392999140545,,,,,,,,,,,,,23,21,Female,1.0,1.0,0.4880232124996837,,,,,,,,,,,,,0.2857142857142857,1.25,0.6,1.0,2.7777777777777777,1.375,3.0,2.7777777777777777,2.25,3.0,1.25,1.5,2.0,0.25,4.4248534352812636e-05,-0.4025889982150011,0.0003295416488217056,-0.4942947270086484,1.103,-2.1164645252176357,,,,,,
4,240623_100058,TrueCHOICE,9.0,5,1.0,500.0,,,,,,,,,,,5.0,5.0,,,A,,,,,,True,cue2.png,Hard,cue1.png,Easy,Right,Easy,Easy,0.0166564000537619,,,,,,,,,,,,,23,21,Female,0.7818181818181817,0.8181818181818181,0.4526922687364276,,,,,,,,,,,,,0.2857142857142857,1.25,0.6,1.0,2.7777777777777777,1.375,3.0,2.7777777777777777,2.25,3.0,1.25,1.5,2.0,0.25,-0.0001438285425391303,-0.5980939725983742,-0.00019818496361575025,-0.8466517016500673,1.5850000000000002,0.7015904503483897,,,,,,
5,240623_100121,TrueCHOICE,9.0,6,1.0,500.0,,,,,,,,,,,6.0,6.0,,,A,,,,,,True,cue2.png,Hard,cue1.png,Easy,Right,Easy,Easy,0.0147204999811947,,,,,,,,,,,,,23,21,Female,0.8958333333333333,0.9166666666666666,0.5138499562526704,,,,,,,,,,,,,0.2857142857142857,1.25,0.6,1.0,2.7777777777777777,1.375,3.0,2.7777777777777777,2.25,3.0,1.25,1.5,2.0,0.25,0.0011340103930576714,0.7302118076613983,0.0037911454565314846,1.8169782244504562,1.5979999999999999,0.7775960824694632,,,,,,
6,240623_100143,TrueCHOICE,9.0,7,3.0,500.0,,,,,,,,,,,7.0,7.0,,,A,,,,,,True,cue1.png,Easy,cue2.png,Hard,Right,Hard,Hard,0.0169675999786704,,,,,,,,,,,,,23,21,Female,,,,,,,,,,,,,,,,0.2857142857142857,1.25,0.6,1.0,2.7777777777777777,1.375,3.0,2.7777777777777777,2.25,3.0,1.25,1.5,2.0,0.25,0.00026853082317319704,-0.1694489268406147,-0.00013435509682666394,-0.8040332355285909,1.576,0.64897116657226,,,,,,
7,240623_100207,TrueCHOICE,9.0,8,1.0,500.0,,,,,,,,,,,8.0,8.0,,,A,,,,,,True,cue2.png,Hard,cue1.png,Easy,Right,Easy,Easy,0.015736199915409,,,,,,,,,,,,,23,21,Female,1.0,1.0,0.5024554125047871,,,,,,,,,,,,,0.2857142857142857,1.25,0.6,1.0,2.7777777777777777,1.375,3.0,2.7777777777777777,2.25,3.0,1.25,1.5,2.0,0.25,,,,,,,,,,,,
8,240623_100232,TrueCHOICE,9.0,9,1.0,500.0,,,,,,,,,,,9.0,9.0,,,A,,,,,,True,cue1.png,Easy,cue2.png,Hard,Left,Easy,Easy,0.0146396999480202,,,,,,,,,,,,,23,21,Female,1.0,1.0,0.4501618187423446,,,,,,,,,,,,,0.2857142857142857,1.25,0.6,1.0,2.7777777777777777,1.375,3.0,2.7777777777777777,2.25,3.0,1.25,1.5,2.0,0.25,,,,,,,,,,,,
9,240623_100254,TrueCHOICE,9.0,10,1.0,500.0,,,,,,,,,,,10.0,10.0,,,A,,,,,,True,cue2.png,Hard,cue1.png,Easy,Right,Easy,Easy,0.0163938000332564,,,,,,,,,,,,,23,21,Female,0.9090909090909092,0.9090909090909092,0.3505668687575962,,,,,,,,,,,,,0.2857142857142857,1.25,0.6,1.0,2.7777777777777777,1.375,3.0,2.7777777777777777,2.25,3.0,1.25,1.5,2.0,0.25,-0.000675173386086989,-1.150423696896698,,,,,,,,,,
0,240623_100411,FalseCHOICE,9.0,1,2.0,500.0,,,,,,,,,,,1.0,1.0,,,A,,,,,,False,cue1.png,Easy,cue2.png,Hard,Left,Easy,Mid,0.0160664001014083,,,,,,,,,,,,,23,21,Female,1.0,1.0,0.4526652187487343,,,,,,,,,,,,,0.2857142857142857,1.25,0.6,1.0,2.7777777777777777,1.375,3.0,2.7777777777777777,2.25,3.0,1.25,1.5,2.0,0.25,,,0.0003404082371421041,-0.4870392312746652,,,,,,,,
1,240623_100434,FalseCHOICE,9.0,2,2.0,500.0,,,,,,,,,,,2.0,2.0,,,A,,,,,,False,cue2.png,Hard,cue1.png,Easy,Left,Hard,Mid,0.0160633000778034,,,,,,,,,,,,,23,21,Female,,,,,,,,,,,,,,,,0.2857142857142857,1.25,0.6,1.0,2.7777777777777777,1.375,3.0,2.7777777777777777,2.25,3.0,1.25,1.5,2.0,0.25,0.0024378660190342793,2.0855617789002046,0.002986558787251197,1.2797649819441053,1.458,-0.04092610960365534,,,,,,
2,240623_100458,FalseCHOICE,9.0,3,2.0,500.0,,,,,,,,,,,3.0,3.0,,,A,,,,,,False,cue2.png,Hard,cue1.png,Easy,Right,Easy,Mid,0.0167927999282255,,,,,,,,,,,,,23,21,Female,,,,,,,,,,,,,,,,0.2857142857142857,1.25,0.6,1.0,2.7777777777777777,1.375,3.0,2.7777777777777777,2.25,3.0,1.25,1.5,2.0,0.25,-4.4861169599860404e-05,-0.4952179920109145,0.0003738293928632853,-0.4647243109325897,1.47,0.0292329354311835,,,,,,
3,240623_100525,FalseCHOICE,9.0,4,2.0,500.0,,,,,,,,,,,4.0,4.0,,,A,,,,,,False,cue2.png,Hard,cue1.png,Easy,Right,Easy,Mid,0.0164114000508561,,,,,,,,,,,,,23,21,Female,0.8409090909090908,0.8465909090909091,0.5260206066615258,,,,,,,,,,,,,0.2857142857142857,1.25,0.6,1.0,2.7777777777777777,1.375,3.0,2.7777777777777777,2.25,3.0,1.25,1.5,2.0,0.25,4.4248534352812636e-05,-0.4025889982150011,0.0003295416488217056,-0.4942947270086484,1.103,-2.1164645252176357,,,,,,
4,240623_100549,FalseCHOICE,9.0,5,2.0,500.0,,,,,,,,,,,5.0,5.0,,,A,,,,,,False,cue1.png,Easy,cue2.png,Hard,Right,Hard,Mid,0.0167381999781355,,,,,,,,,,,,,23,21,Female,,,,,,,,,,,,,,,,0.2857142857142857,1.25,0.6,1.0,2.7777777777777777,1.375,3.0,2.7777777777777777,2.25,3.0,1.25,1.5,2.0,0.25,-0.0001438285425391303,-0.5980939725983742,-0.00019818496361575025,-0.8466517016500673,1.5850000000000002,0.7015904503483897,,,,,,
5,240623_100617,FalseCHOICE,9.0,6,2.0,500.0,,,,,,,,,,,6.0,6.0,,,A,,,,,,False,cue2.png,Hard,cue1.png,Easy,Left,Hard,Mid,0.015958399977535,,,,,,,,,,,,,23,21,Female,0.8958333333333333,0.9166666666666666,0.5437919500036514,,,,,,,,,,,,,0.2857142857142857,1.25,0.6,1.0,2.7777777777777777,1.375,3.0,2.7777777777777777,2.25,3.0,1.25,1.5,2.0,0.25,0.0011340103930576714,0.7302118076613983,0.0037911454565314846,1.8169782244504562,1.5979999999999999,0.7775960824694632,,,,,,
6,240623_100641,FalseCHOICE,9.0,7,2.0,500.0,,,,,,,,,,,7.0,7.0,,,A,,,,,,False,cue2.png,Hard,cue1.png,Easy,Left,Hard,Mid,0.0169942999491468,,,,,,,,,,,,,23,21,Female,0.0715909090909091,0.6363636363636364,0.3159385812396067,,,,,,,,,,,,,0.2857142857142857,1.25,0.6,1.0,2.7777777777777777,1.375,3.0,2.7777777777777777,2.25,3.0,1.25,1.5,2.0,0.25,0.00026853082317319704,-0.1694489268406147,-0.00013435509682666394,-0.8040332355285909,1.576,0.64897116657226,,,,,,
7,240623_100704,FalseCHOICE,9.0,8,2.0,500.0,,,,,,,,,,,8.0,8.0,,,A,,,,,,False,cue1.png,Easy,cue2.png,Hard,Left,Easy,Mid,0.016160300001502,,,,,,,,,,,,,23,21,Female,,,,,,,,,,,,,,,,0.2857142857142857,1.25,0.6,1.0,2.7777777777777777,1.375,3.0,2.7777777777777777,2.25,3.0,1.25,1.5,2.0,0.25,,,,,,,,,,,,
8,240623_100727,FalseCHOICE,9.0,9,2.0,500.0,,,,,,,,,,,9.0,9.0,,,A,,,,,,False,cue1.png,Easy,cue2.png,Hard,Left,Easy,Mid,0.0158170000649988,,,,,,,,,,,,,23,21,Female,0.6113636363636364,0.7272727272727273,0.3924459937625215,,,,,,,,,,,,,0.2857142857142857,1.25,0.6,1.0,2.7777777777777777,1.375,3.0,2.7777777777777777,2.25,3.0,1.25,1.5,2.0,0.25,,,,,,,,,,,,
9,240623_100754,FalseCHOICE,9.0,10,2.0,500.0,,,,,,,,,,,10.0,10.0,,,A,,,,,,False,cue2.png,Hard,cue1.png,Easy,Left,Hard,Mid,0.0169503999641165,,,,,,,,,,,,,23,21,Female,,,,,,,,,,,,,,,,0.2857142857142857,1.25,0.6,1.0,2.7777777777777777,1.375,3.0,2.7777777777777777,2.25,3.0,1.25,1.5,2.0,0.25,-0.000675173386086989,-1.150423696896698,,,,,,,,,,
0,240623_093559,OFFLINERATING,9.0,1,1.0,,,,,,,,,,,,,,,,,T0,cue1.png,Easy,36.0,1.5186681000050155,,,,,,,,,,,,,,,,,,,,,,23,21,Female,,,,,,,,,,,,,,,,0.2857142857142857,1.25,0.6,1.0,2.7777777777777777,1.375,3.0,2.7777777777777777,2.25,3.0,1.25,1.5,2.0,0.25,,,,,,,-0.00013063294393620686,-1.13195303038481,0.0009380199690218324,1.222116302711727,,
1,240623_093607,OFFLINERATING,9.0,2,3.0,,,,,,,,,,,,,,,,,T0,cue2.png,Hard,53.0,1.1516886999597773,,,,,,,,,,,,,,,,,,,,,,23,21,Female,,,,,,,,,,,,,,,,0.2857142857142857,1.25,0.6,1.0,2.7777777777777777,1.375,3.0,2.7777777777777777,2.25,3.0,1.25,1.5,2.0,0.25,,,,,,,,,,,1.4629999999999999,0.9834047061690545
2,240623_095830,OFFLINERATING,9.0,3,1.0,,,,,,,,,,,,,,,,,T1,cue1.png,Easy,81.0,1.2895832000067458,,,,,,,,,,,,,,,,,,,,,,23,21,Female,,,,,,,,,,,,,,,,0.2857142857142857,1.25,0.6,1.0,2.7777777777777777,1.375,3.0,2.7777777777777777,2.25,3.0,1.25,1.5,2.0,0.25,,,,,,,,,,,1.1109999999999998,0.38846035227932546
3,240623_095838,OFFLINERATING,9.0,4,3.0,,,,,,,,,,,,,,,,,T1,cue2.png,Hard,29.0,1.4354253000346944,,,,,,,,,,,,,,,,,,,,,,23,21,Female,,,,,,,,,,,,,,,,0.2857142857142857,1.25,0.6,1.0,2.7777777777777777,1.375,3.0,2.7777777777777777,2.25,3.0,1.25,1.5,2.0,0.25,,,,,,,9.461903270599351e-05,1.3001507130174061,-0.00024046844952117785,-1.22735662367643,,
4,240623_100307,OFFLINERATING,9.0,5,1.0,,,,,,,,,,,,,,,,,T2,cue1.png,Easy,53.0,1.0851483999285847,,,,,,,,,,,,,,,,,,,,,,23,21,Female,,,,,,,,,,,,,,,,0.2857142857142857,1.25,0.6,1.0,2.7777777777777777,1.375,3.0,2.7777777777777777,2.25,3.0,1.25,1.5,2.0,0.25,,,,,,,,,,,,
5,240623_100314,OFFLINERATING,9.0,6,3.0,,,,,,,,,,,,,,,,,T2,cue2.png,Hard,38.0,0.6346771999960765,,,,,,,,,,,,,,,,,,,,,,23,21,Female,,,,,,,,,,,,,,,,0.2857142857142857,1.25,0.6,1.0,2.7777777777777777,1.375,3.0,2.7777777777777777,2.25,3.0,1.25,1.5,2.0,0.25,,,,,,,-4.137367706916195e-05,-0.1681976826325963,,,0.06950000000000012,-1.3718650584483805
6,240623_102457,OFFLINERATING,9.0,7,1.0,,,,,,,,,,,,,,,,,T3,cue1.png,Easy,19.0,1.0346239000791684,,,,,,,,,,,,,,,,,,,,,,23,21,Female,,,,,,,,,,,,,,,,0.2857142857142857,1.25,0.6,1.0,2.7777777777777777,1.375,3.0,2.7777777777777777,2.25,3.0,1.25,1.5,2.0,0.25,,,,,,,,,0.0003525575881795093,0.005240320964703329,,
7,240623_102504,OFFLINERATING,9.0,8,3.0,,,,,,,,,,,,,,,,,T3,cue2.png,Hard,19.0,0.9014798999996856,,,,,,,,,,,,,,,,,,,,,,23,21,Female,,,,,,,,,,,,,,,,0.2857142857142857,1.25,0.6,1.0,2.7777777777777777,1.375,3.0,2.7777777777777777,2.25,3.0,1.25,1.5,2.0,0.25,,,,,,,,,,,,
