,END,Phase,Block,TrialN,NbackLevel,ISI,Letter_Resp,Letter_RT,Letter_Accuracy,Trial_A_measure,Trial_ACC,Trial_RT,TrialCountCali,CaliEnd_A_measure,ISI_calibrated,TrialIndex,TrialNumber_total,TrialNumber_valid,CueLearning,TrialDemandLearning,CueMapping,OfflineRatingTimePoint,CueFigure,TrialDemand,OfflineRating,OfflineRatingRT,PhaseType,CueLeft,CueDemandLeft,CueRight,CueDemandRight,Choice,ChoiceDemand,TaskDemand,ChoiceRT,CueCheck,CueDemandCheck,CorrectAnswer,Answer,AnswerDemand,AnswerRT,AnswerACC,DemandRatingQuesIndex,QuesTLX,DemandLevel,DemandRating,DemandRatingRT,PID,Age,Gender,Task_A_measure,Task_ACC,Task_RT,cue_i_on_zyg_values,cue_i_on_zyg_zvalues,cue_e_on_zyg_values,cue_e_on_zyg_zvalues,cue_i_on_cor_values,cue_i_on_cor_zvalues,cue_e_on_cor_values,cue_e_on_cor_zvalues,cue_i_on_scr_values,cue_i_on_scr_zvalues,cue_e_on_scr_values,cue_e_on_scr_zvalues,BAI_bis,BAI_bas_d,BAI_bas_rr,BAI_bas_fs,NFC,BFI_ext,BFI_agr,BFI_con,BFI_neu,BFI_open,UPPS_lps,UPPS_lpm,UPPS_pu,UPPS_ss,cue_e_true_zyg_values,cue_e_true_zyg_zvalues,cue_e_true_cor_values,cue_e_true_cor_zvalues,cue_e_true_scr_values,cue_e_true_scr_zvalues,cue_i_off_zyg_values,cue_i_off_zyg_zvalues,cue_i_off_cor_values,cue_i_off_cor_zvalues,cue_i_off_scr_values,cue_i_off_scr_zvalues
0,240624_144433,LEARNING,1.0,1,1.0,583.0,,,,,,,,,,1.0,1.0,1.0,cue1.png,Easy,A,,,,,,,,,,,,,,,,,,,,,,,,,,,25,29,Male,1.0,1.0,0.5206228666162739,,,,,-0.0006464278625925241,-0.7834651469195749,-6.446443578785738e-05,-0.025372667677934148,1.521,0.10575099639316006,,,0.7142857142857143,0.25,0.0,1.0,2.5555555555555554,1.125,2.4444444444444446,2.7777777777777777,2.375,3.4444444444444446,2.0,2.0,2.5,1.0,,,,,,,,,,,,
1,240624_144502,LEARNING,1.0,2,3.0,583.0,,,,,,,,,,2.0,2.0,2.0,cue2.png,Hard,A,,,,,,,,,,,,,,,,,,,,,,,,,,,25,29,Male,0.9375,0.9333333333333332,0.6284287643253005,3.8957539702337996e-05,-0.12342225813517473,-4.025776024692675e-05,-0.041748556834386594,0.0025792494037145883,2.2351047653682787,-0.0008296454064299951,-1.3138147003047993,1.449,-0.0346201585957494,1.4659999999999997,0.1839178504674343,0.7142857142857143,0.25,0.0,1.0,2.5555555555555554,1.125,2.4444444444444446,2.7777777777777777,2.375,3.4444444444444446,2.0,2.0,2.5,1.0,,,,,,,,,,,,
2,240624_144528,LEARNING,1.0,3,1.0,583.0,,,,,,,,,,3.0,3.0,3.0,cue1.png,Easy,A,,,,,,,,,,,,,,,,,,,,,,,,,,,25,29,Male,1.0,1.0,0.4881024200158814,,,,,0.0009251685276331937,0.6872255596019266,0.0008824822698164196,1.569133710511523,1.4429999999999998,-0.046317754844825657,1.464,0.18098187565951662,0.7142857142857143,0.25,0.0,1.0,2.5555555555555554,1.125,2.4444444444444446,2.7777777777777777,2.375,3.4444444444444446,2.0,2.0,2.5,1.0,,,,,,,,,,,,
3,240624_144557,LEARNING,1.0,4,3.0,583.0,,,,,,,,,,4.0,4.0,4.0,cue2.png,Hard,A,,,,,,,,,,,,,,,,,,,,,,,,,,,25,29,Male,0.7386363636363636,0.8181818181818181,0.6997694400139153,0.0007521411813474002,1.1930754211792913,-0.0005257617225516461,-0.8682196842693606,,,,,1.1300000000000001,-0.6565423591716134,1.1309999999999998,-0.30785792985883065,0.7142857142857143,0.25,0.0,1.0,2.5555555555555554,1.125,2.4444444444444446,2.7777777777777777,2.375,3.4444444444444446,2.0,2.0,2.5,1.0,,,,,,,,,,,,
4,240624_144625,LEARNING,1.0,5,3.0,583.0,,,,,,,,,,5.0,5.0,5.0,cue2.png,Hard,A,,,,,,,,,,,,,,,,,,,,,,,,,,,25,29,Male,0.675,0.5333333333333334,0.5202443090648475,0.0002640273914895075,0.2920442784752152,-0.0006910402184196513,-1.1495724958351976,-0.0005326452762678081,-0.6769880683818045,-0.0002752702808222155,-0.38033590106539944,1.584,0.22857575700845645,1.577,0.3468644523068836,0.7142857142857143,0.25,0.0,1.0,2.5555555555555554,1.125,2.4444444444444446,2.7777777777777777,2.375,3.4444444444444446,2.0,2.0,2.5,1.0,,,,,,,,,,,,
5,240624_144651,LEARNING,1.0,6,1.0,583.0,,,,,,,,,,6.0,6.0,6.0,cue1.png,Easy,A,,,,,,,,,,,,,,,,,,,,,,,,,,,25,29,Male,1.0,1.0,0.4855549733154475,0.00011820646597420978,0.022866890175108526,0.0003401459951453416,0.6058109792548826,0.0007460252197760914,0.5195843002814461,-1.6128003737948121e-06,0.0804594060324963,1.584,0.22857575700845645,1.588,0.3630123137504328,0.7142857142857143,0.25,0.0,1.0,2.5555555555555554,1.125,2.4444444444444446,2.7777777777777777,2.375,3.4444444444444446,2.0,2.0,2.5,1.0,,,,,,,,,,,,
6,240624_144722,LEARNING,1.0,7,3.0,583.0,,,,,,,,,,7.0,7.0,7.0,cue2.png,Hard,A,,,,,,,,,,,,,,,,,,,,,,,,,,,25,29,Male,0.9,0.7333333333333334,0.6705009363464672,0.0007400899803169225,1.170829568550114,,,,,,,,,,,0.7142857142857143,0.25,0.0,1.0,2.5555555555555554,1.125,2.4444444444444446,2.7777777777777777,2.375,3.4444444444444446,2.0,2.0,2.5,1.0,,,,,,,,,,,,
7,240624_144752,LEARNING,1.0,8,3.0,583.0,,,,,,,,,,8.0,8.0,8.0,cue2.png,Hard,A,,,,,,,,,,,,,,,,,,,,,,,,,,,25,29,Male,0.675,0.6000000000000001,0.6937070666851165,0.0001234228908400573,0.0324961228568423,-0.0003642033188828741,-0.5931995682792038,0.00047599722547523975,0.2668936831555905,-0.00020140148983985133,-0.255952704341185,,,,,0.7142857142857143,0.25,0.0,1.0,2.5555555555555554,1.125,2.4444444444444446,2.7777777777777777,2.375,3.4444444444444446,2.0,2.0,2.5,1.0,,,,,,,,,,,,
8,240624_144817,LEARNING,1.0,9,1.0,583.0,,,,,,,,,,9.0,9.0,9.0,cue1.png,Easy,A,,,,,,,,,,,,,,,,,,,,,,,,,,,25,29,Male,1.0,1.0,0.467647979936252,-0.0008666171798990762,-1.7950632593942004,-9.96732332787533e-05,-0.14289123907036771,0.00034681459346848874,0.1460053319746431,-0.0001702193815689909,-0.20344703508965814,,,3.007,2.446086439968254,0.7142857142857143,0.25,0.0,1.0,2.5555555555555554,1.125,2.4444444444444446,2.7777777777777777,2.375,3.4444444444444446,2.0,2.0,2.5,1.0,,,,,,,,,,,,
9,240624_144843,LEARNING,1.0,10,1.0,583.0,,,,,,,,,,10.0,10.0,10.0,cue1.png,Easy,A,,,,,,,,,,,,,,,,,,,,,,,,,,,25,29,Male,0.8920454545454546,0.9090909090909092,0.4692402400076389,3.3133637746991795e-05,-0.13417286002935566,0.0009642675984721351,1.6682502695737387,,,1.9348385952612512e-06,0.08643306107580058,,,,,0.7142857142857143,0.25,0.0,1.0,2.5555555555555554,1.125,2.4444444444444446,2.7777777777777777,2.375,3.4444444444444446,2.0,2.0,2.5,1.0,,,,,,,,,,,,
10,240624_144912,LEARNING,1.0,11,3.0,583.0,,,,,,,,,,11.0,11.0,11.0,cue2.png,Hard,A,,,,,,,,,,,,,,,,,,,,,,,,,,,25,29,Male,0.5,0.6000000000000001,0.621491716708988,-8.480290928622848e-05,-0.35187722312643765,0.0007697499814941309,1.3371238387066824,0.00023725907643058937,0.043483920142782316,,,1.033,-0.8456534985316728,3.007,2.446086439968254,0.7142857142857143,0.25,0.0,1.0,2.5555555555555554,1.125,2.4444444444444446,2.7777777777777777,2.375,3.4444444444444446,2.0,2.0,2.5,1.0,,,,,,,,,,,,
11,240624_144940,LEARNING,1.0,12,1.0,583.0,,,,,,,,,,12.0,12.0,12.0,cue1.png,Easy,A,,,,,,,,,,,,,,,,,,,,,,,,,,,25,29,Male,0.905,0.9,0.6137303599777321,0.00040526293194808076,0.5527572987872724,0.0008084484715366017,1.4030000975606898,,,,,0.9189999999999998,-1.0679078272641136,,,0.7142857142857143,0.25,0.0,1.0,2.5555555555555554,1.125,2.4444444444444446,2.7777777777777777,2.375,3.4444444444444446,2.0,2.0,2.5,1.0,,,,,,,,,,,,
12,240624_145006,LEARNING,1.0,13,1.0,583.0,,,,,,,,,,13.0,13.0,13.0,cue1.png,Easy,A,,,,,,,,,,,,,,,,,,,,,,,,,,,25,29,Male,1.0,1.0,0.4883639733151843,-0.00016235045310196775,-0.49502571323267375,-2.5156754069295423e-05,-0.016042184549012246,-1.032037804252206e-05,-0.1881994847592696,-0.0001532872871817855,-0.1749361037598148,,,0.305,-1.5204155255289644,0.7142857142857143,0.25,0.0,1.0,2.5555555555555554,1.125,2.4444444444444446,2.7777777777777777,2.375,3.4444444444444446,2.0,2.0,2.5,1.0,,,,,,,,,,,,
13,240624_145032,LEARNING,1.0,14,1.0,583.0,,,,,,,,,,14.0,14.0,14.0,cue1.png,Easy,A,,,,,,,,,,,,,,,,,,,,,,,,,,,25,29,Male,0.8920454545454546,0.9090909090909092,0.4924361466585348,4.162458492277827e-05,-0.11849903971244513,3.708621597071568e-05,0.08991373263788492,-0.0002562170483405863,-0.4183081500763267,,,,,,,0.7142857142857143,0.25,0.0,1.0,2.5555555555555554,1.125,2.4444444444444446,2.7777777777777777,2.375,3.4444444444444446,2.0,2.0,2.5,1.0,,,,,,,,,,,,
14,240624_145101,LEARNING,1.0,15,3.0,583.0,,,,,,,,,,15.0,15.0,15.0,cue2.png,Hard,A,,,,,,,,,,,,,,,,,,,,,,,,,,,25,29,Male,0.8068181818181819,0.709090909090909,0.6256148666337443,-7.977368654792788e-05,-0.3425935552502984,-3.522422394423592e-05,-0.03317999149596665,0.0011405102001470178,0.8887410367705857,,,,,,,0.7142857142857143,0.25,0.0,1.0,2.5555555555555554,1.125,2.4444444444444446,2.7777777777777777,2.375,3.4444444444444446,2.0,2.0,2.5,1.0,,,,,,,,,,,,
15,240624_145128,LEARNING,1.0,16,1.0,583.0,,,,,,,,,,16.0,16.0,16.0,cue1.png,Easy,A,,,,,,,,,,,,,,,,,,,,,,,,,,,25,29,Male,0.7386363636363636,0.8181818181818181,0.5452481066652884,6.176435814558455e-05,-0.08132212879987041,-0.00018759765688553713,-0.2925645747161034,-0.0003767508066868097,-0.5311029358905391,0.0012380244316606056,2.16780968817814,,,,,0.7142857142857143,0.25,0.0,1.0,2.5555555555555554,1.125,2.4444444444444446,2.7777777777777777,2.375,3.4444444444444446,2.0,2.0,2.5,1.0,,,,,,,,,,,,
16,240624_145155,LEARNING,1.0,17,1.0,583.0,,,,,,,,,,17.0,17.0,17.0,cue1.png,Easy,A,,,,,,,,,,,,,,,,,,,,,,,,,,,25,29,Male,0.7386363636363636,0.8181818181818181,0.5682140600246688,0.0006236125075726653,0.9558185761407506,-0.0010074377488647796,-1.688174534144628,0.00013083905016712544,-0.0561033177682006,-0.0013822422303880963,-2.2442991247752966,,,,,0.7142857142857143,0.25,0.0,1.0,2.5555555555555554,1.125,2.4444444444444446,2.7777777777777777,2.375,3.4444444444444446,2.0,2.0,2.5,1.0,,,,,,,,,,,,
17,240624_145225,LEARNING,1.0,18,3.0,583.0,,,,,,,,,,18.0,18.0,18.0,cue2.png,Hard,A,,,,,,,,,,,,,,,,,,,,,,,,,,,25,29,Male,0.8920454545454546,0.709090909090909,0.6871255084018534,,,-5.424758188301909e-05,-0.06556336486460118,0.000506432370557067,0.29537471384633185,-0.00017483513161859702,-0.21121921788586806,,,,,0.7142857142857143,0.25,0.0,1.0,2.5555555555555554,1.125,2.4444444444444446,2.7777777777777777,2.375,3.4444444444444446,2.0,2.0,2.5,1.0,,,,,,,,,,,,
18,240624_145255,LEARNING,1.0,19,3.0,583.0,,,,,,,,,,19.0,19.0,19.0,cue2.png,Hard,A,,,,,,,,,,,,,,,,,,,,,,,,,,,25,29,Male,0.7386363636363636,0.7515151515151515,0.713067335708599,,,,,,,-0.0009688450459975741,-1.5482045680962944,,,,,0.7142857142857143,0.25,0.0,1.0,2.5555555555555554,1.125,2.4444444444444446,2.7777777777777777,2.375,3.4444444444444446,2.0,2.0,2.5,1.0,,,,,,,,,,,,
19,240624_145325,LEARNING,1.0,20,3.0,583.0,,,,,,,,,,20.0,20.0,20.0,cue2.png,Hard,A,,,,,,,,,,,,,,,,,,,,,,,,,,,25,29,Male,0.075,0.6,0.7456045600119978,,,,,0.0007599779681626432,0.5326412005836841,0.0005617258517397888,1.0290313463113958,1.218,-0.48497761418516844,1.501,0.2352974096059995,0.7142857142857143,0.25,0.0,1.0,2.5555555555555554,1.125,2.4444444444444446,2.7777777777777777,2.375,3.4444444444444446,2.0,2.0,2.5,1.0,,,,,,,,,,,,
20,240624_145351,LEARNING,1.0,21,1.0,583.0,,,,,,,,,,21.0,21.0,21.0,cue1.png,Easy,A,,,,,,,,,,,,,,,,,,,,,,,,,,,25,29,Male,0.7386363636363636,0.8181818181818181,0.5262443199753761,-0.00019407076965857273,-0.5535796686172445,0.00010454775399297523,0.2047531937271034,-0.0003340754293996136,-0.4911675675199335,-0.0004563052023015893,-0.6851696739329918,2.1710000000000003,1.3729905900430406,,,0.7142857142857143,0.25,0.0,1.0,2.5555555555555554,1.125,2.4444444444444446,2.7777777777777777,2.375,3.4444444444444446,2.0,2.0,2.5,1.0,,,,,,,,,,,,
21,240624_145421,LEARNING,1.0,22,3.0,583.0,,,,,,,,,,22.0,22.0,22.0,cue2.png,Hard,A,,,,,,,,,,,,,,,,,,,,,,,,,,,25,29,Male,0.835,0.8333333333333334,0.6893802928804819,0.00291821153069736,5.191521854377624,-0.002216419535845914,-3.7462185834484356,-0.0028781430190011207,-2.871891132462789,0.0008132023176812006,1.4524773824346708,1.108,-0.6994335454182248,1.059,-0.4135530229438784,0.7142857142857143,0.25,0.0,1.0,2.5555555555555554,1.125,2.4444444444444446,2.7777777777777777,2.375,3.4444444444444446,2.0,2.0,2.5,1.0,,,,,,,,,,,,
22,240624_145449,LEARNING,1.0,23,3.0,583.0,,,,,,,,,,23.0,23.0,23.0,cue2.png,Hard,A,,,,,,,,,,,,,,,,,,,,,,,,,,,25,29,Male,0.8920454545454546,0.9090909090909092,0.6721744533162564,6.422578411424901e-05,-0.07677847217858767,6.721861944165679e-06,0.0382246345983373,0.0003750511759602849,0.17242896065748076,-0.0010921498524173422,-1.7558300861261327,2.0660000000000003,1.1682826556842139,1.814,0.6947774670451667,0.7142857142857143,0.25,0.0,1.0,2.5555555555555554,1.125,2.4444444444444446,2.7777777777777777,2.375,3.4444444444444446,2.0,2.0,2.5,1.0,,,,,,,,,,,,
23,240624_145519,LEARNING,1.0,24,3.0,583.0,,,,,,,,,,24.0,24.0,24.0,cue2.png,Hard,A,,,,,,,,,,,,,,,,,,,,,,,,,,,25,29,Male,0.5852272727272727,0.6848484848484848,0.6905168076583112,7.350258311307608e-05,-0.0596540127262483,0.0008866209720138022,1.5360727800102991,0.0002473129991549111,0.052892322202436885,3.82607545016591e-05,0.1476000774068447,0.748,-1.4012893203627739,1.9900000000000002,0.953143250141951,0.7142857142857143,0.25,0.0,1.0,2.5555555555555554,1.125,2.4444444444444446,2.7777777777777777,2.375,3.4444444444444446,2.0,2.0,2.5,1.0,,,,,,,,,,,,
24,240624_145546,LEARNING,1.0,25,1.0,583.0,,,,,,,,,,25.0,25.0,25.0,cue1.png,Easy,A,,,,,,,,,,,,,,,,,,,,,,,,,,,25,29,Male,0.7386363636363636,0.8181818181818181,0.520971340034157,,,4.663951401229129e-05,0.10617626727439487,-0.00014523080390821484,-0.31444787191994245,-0.00034579262496567485,-0.4990842180257092,2.706,2.4160262555856336,0.9119999999999999,-0.6293471713258515,0.7142857142857143,0.25,0.0,1.0,2.5555555555555554,1.125,2.4444444444444446,2.7777777777777777,2.375,3.4444444444444446,2.0,2.0,2.5,1.0,,,,,,,,,,,,
25,240624_145612,LEARNING,1.0,26,1.0,583.0,,,,,,,,,,26.0,26.0,26.0,cue1.png,Easy,A,,,,,,,,,,,,,,,,,,,,,,,,,,,25,29,Male,1.0,1.0,0.5312890266844382,9.032505203454512e-05,-0.02860066264607958,-5.435825558177711e-05,-0.06575176418508402,0.00037727677739663595,0.17451166545956565,0.0004773108626393314,0.886890043386032,,,0.42999999999999994,-1.3369171000340896,0.7142857142857143,0.25,0.0,1.0,2.5555555555555554,1.125,2.4444444444444446,2.7777777777777777,2.375,3.4444444444444446,2.0,2.0,2.5,1.0,,,,,,,,,,,,
26,240624_145642,LEARNING,1.0,27,3.0,583.0,,,,,,,,,,27.0,27.0,27.0,cue2.png,Hard,A,,,,,,,,,,,,,,,,,,,,,,,,,,,25,29,Male,0.5852272727272727,0.6848484848484848,0.7177230846315908,9.175806085830185e-05,-0.02595540736994722,-1.3861049762878708e-05,0.0031864401340484846,-0.0008517754849411566,-0.9756282504190976,,,1.625,0.30850933137714104,0.764,-0.8466093071117834,0.7142857142857143,0.25,0.0,1.0,2.5555555555555554,1.125,2.4444444444444446,2.7777777777777777,2.375,3.4444444444444446,2.0,2.0,2.5,1.0,,,,,,,,,,,,
27,240624_145709,LEARNING,1.0,28,1.0,583.0,,,,,,,,,,28.0,28.0,28.0,cue1.png,Easy,A,,,,,,,,,,,,,,,,,,,,,,,,,,,25,29,Male,0.9375,0.9333333333333332,0.4933584857665534,3.794487292818095e-05,-0.1252915851643554,-3.3838626637250346e-05,-0.0308212956718603,0.0016252740896588978,1.342380248209563,0.0004529690031216879,0.8459022559760675,0.923,-1.060109429764729,1.8259999999999998,0.7123933158926745,0.7142857142857143,0.25,0.0,1.0,2.5555555555555554,1.125,2.4444444444444446,2.7777777777777777,2.375,3.4444444444444446,2.0,2.0,2.5,1.0,,,,,,,,,,,,
28,240624_145736,LEARNING,1.0,29,1.0,583.0,,,,,,,,,,29.0,29.0,29.0,cue1.png,Easy,A,,,,,,,,,,,,,,,,,,,,,,,,,,,25,29,Male,0.905,0.9,0.5935876599978656,2.9590091413473057e-05,-0.14071405117874886,,,0.0004161285956683384,0.21086896967521646,-0.0004964377528127537,-0.7527464524194085,0.9449999999999998,-1.0172182435181183,1.307,-0.04949214676204643,0.7142857142857143,0.25,0.0,1.0,2.5555555555555554,1.125,2.4444444444444446,2.7777777777777777,2.375,3.4444444444444446,2.0,2.0,2.5,1.0,,,,,,,,,,,,
29,240624_145807,LEARNING,1.0,30,3.0,583.0,,,,,,,,,,30.0,30.0,30.0,cue2.png,Hard,A,,,,,,,,,,,,,,,,,,,,,,,,,,,25,29,Male,0.835,0.7,0.696857683302369,3.688670435614662e-05,-0.1272449060035622,,,-0.00021004969885746096,-0.3751050145563915,0.0004225992500596857,0.7947644626083827,1.286,-0.3524048566956424,0.41999999999999993,-1.3515969740736795,0.7142857142857143,0.25,0.0,1.0,2.5555555555555554,1.125,2.4444444444444446,2.7777777777777777,2.375,3.4444444444444446,2.0,2.0,2.5,1.0,,,,,,,,,,,,
30,240624_145835,LEARNING,1.0,31,3.0,583.0,,,,,,,,,,31.0,31.0,31.0,cue2.png,Hard,A,,,,,,,,,,,,,,,,,,,,,,,,,,,25,29,Male,0.675,0.6000000000000001,0.563294674968347,-0.000127829300959963,-0.43130156978852424,-0.00011507556584010141,-0.1691105578513672,0.0007305139519900028,0.5050689466440592,-0.00022675081789890958,-0.2986369071941769,,,1.976,0.9325914264865247,0.7142857142857143,0.25,0.0,1.0,2.5555555555555554,1.125,2.4444444444444446,2.7777777777777777,2.375,3.4444444444444446,2.0,2.0,2.5,1.0,,,,,,,,,,,,
31,240624_145901,LEARNING,1.0,32,1.0,583.0,,,,,,,,,,32.0,32.0,32.0,cue1.png,Easy,A,,,,,,,,,,,,,,,,,,,,,,,,,,,25,29,Male,1.0,1.0,0.4660576399726172,-2.444589351033701e-05,-0.2404614999390382,-4.462459176949891e-05,-0.04918219373952399,0.00029779795563179053,0.10013584908469533,8.758297367242145e-05,0.2306507840504179,1.4809999999999999,0.02776702139932123,0.6839999999999999,-0.9640482994285035,0.7142857142857143,0.25,0.0,1.0,2.5555555555555554,1.125,2.4444444444444446,2.7777777777777777,2.375,3.4444444444444446,2.0,2.0,2.5,1.0,,,,,,,,,,,,
32,240624_145927,LEARNING,1.0,33,1.0,583.0,,,,,,,,,,33.0,33.0,33.0,cue1.png,Easy,A,,,,,,,,,,,,,,,,,,,,,,,,,,,25,29,Male,1.0,1.0,0.5184302599945416,,,,,-0.0003732575556242134,-0.5278339719852652,-0.0002313680376494886,-0.3064115647311103,1.128,-0.6604415579213058,1.443,0.15015414017637777,0.7142857142857143,0.25,0.0,1.0,2.5555555555555554,1.125,2.4444444444444446,2.7777777777777777,2.375,3.4444444444444446,2.0,2.0,2.5,1.0,,,,,,,,,,,,
33,240624_145954,LEARNING,1.0,34,1.0,583.0,,,,,,,,,,34.0,34.0,34.0,cue1.png,Easy,A,,,,,,,,,,,,,,,,,,,,,,,,,,,25,29,Male,1.0,0.9333333333333332,0.4747742714493402,-0.00041738700172959213,-0.9658091199218267,-0.0004517422908136945,-0.7422167513372389,0.00010046166218041601,-0.08453029970726894,,,1.379,-0.17109211483496736,1.364,0.03418313526361682,0.7142857142857143,0.25,0.0,1.0,2.5555555555555554,1.125,2.4444444444444446,2.7777777777777777,2.375,3.4444444444444446,2.0,2.0,2.5,1.0,,,,,,,,,,,,
34,240624_150023,LEARNING,1.0,35,3.0,583.0,,,,,,,,,,35.0,35.0,35.0,cue2.png,Hard,A,,,,,,,,,,,,,,,,,,,,,,,,,,,25,29,Male,0.6988636363636364,0.6424242424242423,0.6287193091332235,0.0002443887859330334,0.255792495441558,,,-0.000840686281236523,-0.9652510384755234,,,,,1.2320000000000002,-0.15959120205897104,0.7142857142857143,0.25,0.0,1.0,2.5555555555555554,1.125,2.4444444444444446,2.7777777777777777,2.375,3.4444444444444446,2.0,2.0,2.5,1.0,,,,,,,,,,,,
35,240624_150054,LEARNING,1.0,36,3.0,583.0,,,,,,,,,,36.0,36.0,36.0,cue2.png,Hard,A,,,,,,,,,,,,,,,,,,,,,,,,,,,25,29,Male,0.9375,0.8666666666666667,0.7163051230868754,-2.9375775691822294e-05,-0.24956179062468625,-0.00015977886916472344,-0.24520878230948065,-0.00023730896714547773,-0.4006140783256234,,,1.909,0.8621955538333963,1.494,0.22502149777828667,0.7142857142857143,0.25,0.0,1.0,2.5555555555555554,1.125,2.4444444444444446,2.7777777777777777,2.375,3.4444444444444446,2.0,2.0,2.5,1.0,,,,,,,,,,,,
36,240624_150118,LEARNING,1.0,37,1.0,583.0,,,,,,,,,,37.0,37.0,37.0,cue1.png,Easy,A,,,,,,,,,,,,,,,,,,,,,,,,,,,25,29,Male,1.0,1.0,0.4103008400338391,-0.0005182784079139921,-1.1520490928384228,-0.0003820533153604112,-0.6235855339126649,,,-0.00019508760997682863,-0.2453211432901465,0.861,-1.1809845910051793,1.7249999999999999,0.5641265880928155,0.7142857142857143,0.25,0.0,1.0,2.5555555555555554,1.125,2.4444444444444446,2.7777777777777777,2.375,3.4444444444444446,2.0,2.0,2.5,1.0,,,,,,,,,,,,
37,240624_150148,LEARNING,1.0,38,3.0,583.0,,,,,,,,,,38.0,38.0,38.0,cue2.png,Hard,A,,,,,,,,,,,,,,,,,,,,,,,,,,,25,29,Male,0.77,0.6666666666666667,0.7005798307677301,1.4453148343278842e-05,-0.16865601347314418,,,,,-4.766440427372669e-05,0.0029158909542764603,1.695,0.44498128761635897,,,0.7142857142857143,0.25,0.0,1.0,2.5555555555555554,1.125,2.4444444444444446,2.7777777777777777,2.375,3.4444444444444446,2.0,2.0,2.5,1.0,,,,,,,,,,,,
38,240624_150219,LEARNING,1.0,39,3.0,583.0,,,,,,,,,,39.0,39.0,39.0,cue2.png,Hard,A,,,,,,,,,,,,,,,,,,,,,,,,,,,25,29,Male,0.835,0.8333333333333334,0.7637104785701793,,,-2.639257620555037e-05,-0.018145918799524242,0.00010292203189204204,-0.08222790012681705,-0.0008742962590226975,-1.3889995748381858,0.603,-1.6839812297154395,2.2150000000000003,1.2834404160327262,0.7142857142857143,0.25,0.0,1.0,2.5555555555555554,1.125,2.4444444444444446,2.7777777777777777,2.375,3.4444444444444446,2.0,2.0,2.5,1.0,,,,,,,,,,,,
39,240624_150248,LEARNING,1.0,40,3.0,583.0,,,,,,,,,,40.0,40.0,40.0,cue2.png,Hard,A,,,,,,,,,,,,,,,,,,,,,,,,,,,25,29,Male,0.875,0.7333333333333334,0.6092411818152125,2.6794911224702154e-05,-0.14587379968797512,,,0.0016259907201475214,1.3430508668277932,-0.0009618430224515133,-1.5364142834494914,2.01,1.0591050906928388,0.9709999999999999,-0.5427359144922705,0.7142857142857143,0.25,0.0,1.0,2.5555555555555554,1.125,2.4444444444444446,2.7777777777777777,2.375,3.4444444444444446,2.0,2.0,2.5,1.0,,,,,,,,,,,,
40,240624_150314,LEARNING,1.0,41,1.0,583.0,,,,,,,,,,41.0,41.0,41.0,cue1.png,Easy,A,,,,,,,,,,,,,,,,,,,,,,,,,,,25,29,Male,1.0,1.0,0.5050721000259121,,,5.8879599322300084e-05,0.12701250732904149,4.3823144256114124e-05,-0.1375322933873758,0.00012731101760410195,0.2975464383329174,1.4600000000000002,-0.013174565472443505,1.8900000000000001,0.8063445097460509,0.7142857142857143,0.25,0.0,1.0,2.5555555555555554,1.125,2.4444444444444446,2.7777777777777777,2.375,3.4444444444444446,2.0,2.0,2.5,1.0,,,,,,,,,,,,
41,240624_150345,LEARNING,1.0,42,3.0,583.0,,,,,,,,,,42.0,42.0,42.0,cue2.png,Hard,A,,,,,,,,,,,,,,,,,,,,,,,,,,,25,29,Male,0.77,0.6666666666666667,0.7574049461489687,-0.0003789054140257535,-0.8947742307990436,0.0013855992536457693,2.385481178302848,,,0.00012611900659983358,0.29553928297989773,,,,,0.7142857142857143,0.25,0.0,1.0,2.5555555555555554,1.125,2.4444444444444446,2.7777777777777777,2.375,3.4444444444444446,2.0,2.0,2.5,1.0,,,,,,,,,,,,
42,240624_150415,LEARNING,1.0,43,3.0,583.0,,,,,,,,,,43.0,43.0,43.0,cue2.png,Hard,A,,,,,,,,,,,,,,,,,,,,,,,,,,,25,29,Male,0.875,0.8,0.6909698999758499,,,,,0.0037533382649165004,3.3338102520562876,,,2.1470000000000002,1.3262002050467374,1.271,-0.10233969330457048,0.7142857142857143,0.25,0.0,1.0,2.5555555555555554,1.125,2.4444444444444446,2.7777777777777777,2.375,3.4444444444444446,2.0,2.0,2.5,1.0,,,,,,,,,,,,
43,240624_150441,LEARNING,1.0,44,1.0,583.0,,,,,,,,,,44.0,44.0,44.0,cue1.png,Easy,A,,,,,,,,,,,,,,,,,,,,,,,,,,,25,29,Male,1.0,1.0,0.4733296999863038,,,,,-0.0008752618078791859,-0.9976066140054135,0.0008545047801738247,1.5220241050640022,,,0.5940000000000001,-1.0961671657848133,0.7142857142857143,0.25,0.0,1.0,2.5555555555555554,1.125,2.4444444444444446,2.7777777777777777,2.375,3.4444444444444446,2.0,2.0,2.5,1.0,,,,,,,,,,,,
44,240624_150507,LEARNING,1.0,45,1.0,583.0,,,,,,,,,,45.0,45.0,45.0,cue1.png,Easy,A,,,,,,,,,,,,,,,,,,,,,,,,,,,25,29,Male,1.0,1.0,0.5092314600013197,0.0001953060768057663,0.16518852069044773,0.00012222114147507823,0.23483851869250758,0.00035157226295948196,0.1504575312470655,,,1.505,0.07455740639562453,0.6689999999999998,-0.9860681104878887,0.7142857142857143,0.25,0.0,1.0,2.5555555555555554,1.125,2.4444444444444446,2.7777777777777777,2.375,3.4444444444444446,2.0,2.0,2.5,1.0,,,,,,,,,,,,
45,240624_150533,LEARNING,1.0,46,1.0,583.0,,,,,,,,,,46.0,46.0,46.0,cue1.png,Easy,A,,,,,,,,,,,,,,,,,,,,,,,,,,,25,29,Male,1.0,1.0,0.5043159066699445,7.178426257946043e-05,-0.06282593768740612,-2.2129559232421728e-06,0.023014935873637645,,,,,,,-0.364,-2.5024990987775353,0.7142857142857143,0.25,0.0,1.0,2.5555555555555554,1.125,2.4444444444444446,2.7777777777777777,2.375,3.4444444444444446,2.0,2.0,2.5,1.0,,,,,,,,,,,,
46,240624_150604,LEARNING,1.0,47,3.0,583.0,,,,,,,,,,47.0,47.0,47.0,cue2.png,Hard,A,,,,,,,,,,,,,,,,,,,,,,,,,,,25,29,Male,0.8068181818181819,0.7757575757575758,0.7675454230943265,-0.0001466183211784669,-0.4659850651322992,0.00037179445300966315,0.6596860012599293,-0.001695821691048793,-1.76548175155812,-0.00022035341905724416,-0.2878647135781191,2.845,2.6870205686892237,1.173,-0.2462024588925523,0.7142857142857143,0.25,0.0,1.0,2.5555555555555554,1.125,2.4444444444444446,2.7777777777777777,2.375,3.4444444444444446,2.0,2.0,2.5,1.0,,,,,,,,,,,,
47,240624_150634,LEARNING,1.0,48,3.0,583.0,,,,,,,,,,48.0,48.0,48.0,cue2.png,Hard,A,,,,,,,,,,,,,,,,,,,,,,,,,,,25,29,Male,1.0,0.9333333333333332,0.7288175642856264,2.9556767296535797e-05,-0.14077556566120658,3.27601739224183e-05,0.08254953146429403,,,0.00011922125377780961,0.2839245735091329,1.051,-0.8105607097844454,1.566,0.33071659086333477,0.7142857142857143,0.25,0.0,1.0,2.5555555555555554,1.125,2.4444444444444446,2.7777777777777777,2.375,3.4444444444444446,2.0,2.0,2.5,1.0,,,,,,,,,,,,
48,240624_150659,LEARNING,1.0,49,1.0,583.0,,,,,,,,,,49.0,49.0,49.0,cue1.png,Easy,A,,,,,,,,,,,,,,,,,,,,,,,,,,,25,29,Male,1.0,1.0,0.4671261666653057,-2.3696009450538142e-05,-0.2390772553113811,,,,,0.0003809526110181141,0.7246382018706528,1.5,0.0648094095213949,,,0.7142857142857143,0.25,0.0,1.0,2.5555555555555554,1.125,2.4444444444444446,2.7777777777777777,2.375,3.4444444444444446,2.0,2.0,2.5,1.0,,,,,,,,,,,,
49,240624_150726,LEARNING,1.0,50,1.0,583.0,,,,,,,,,,50.0,50.0,50.0,cue1.png,Easy,A,,,,,,,,,,,,,,,,,,,,,,,,,,,25,29,Male,1.0,1.0,0.5194306933321059,5.411345061791728e-05,-0.09544528224403813,2.909050365855221e-05,0.07630266891368839,-0.00019088973827008273,-0.3571752355441552,0.0009580157221090709,1.696319929899071,1.37,-0.18863850920858088,1.454,0.16630200161992661,0.7142857142857143,0.25,0.0,1.0,2.5555555555555554,1.125,2.4444444444444446,2.7777777777777777,2.375,3.4444444444444446,2.0,2.0,2.5,1.0,,,,,,,,,,,,
0,240624_151155,TrueCHOICE,9.0,1,1.0,583.0,,,,,,,,,,,2.0,1.0,,,A,,,,,,True,cue1.png,Easy,cue2.png,Hard,Left,Easy,Easy,0.0151696999091655,,,,,,,,,,,,,25,29,Male,0.7386363636363636,0.8181818181818181,0.6820241067092866,,,,,,,,,,,,,0.7142857142857143,0.25,0.0,1.0,2.5555555555555554,1.125,2.4444444444444446,2.7777777777777777,2.375,3.4444444444444446,2.0,2.0,2.5,1.0,-0.0001909306144731479,-0.8494189179147744,,,0.8170000000000002,-1.6615415462587504,,,,,,
1,240624_151219,TrueCHOICE,9.0,2,1.0,583.0,,,,,,,,,,,3.0,2.0,,,A,,,,,,True,cue1.png,Easy,cue2.png,Hard,Left,Easy,Easy,0.0170672999229282,,,,,,,,,,,,,25,29,Male,,,,,,,,,,,,,,,,0.7142857142857143,0.25,0.0,1.0,2.5555555555555554,1.125,2.4444444444444446,2.7777777777777777,2.375,3.4444444444444446,2.0,2.0,2.5,1.0,0.00041141451760313714,1.180050290361832,0.0011804125740263235,2.102623695601768,1.5930000000000002,0.8609552897606829,,,,,,
2,240624_151244,TrueCHOICE,9.0,3,1.0,583.0,,,,,,,,,,,4.0,3.0,,,A,,,,,,True,cue2.png,Hard,cue1.png,Easy,Right,Easy,Easy,0.0144770999904721,,,,,,,,,,,,,25,29,Male,1.0,1.0,0.5241679333305608,,,,,,,,,,,,,0.7142857142857143,0.25,0.0,1.0,2.5555555555555554,1.125,2.4444444444444446,2.7777777777777777,2.375,3.4444444444444446,2.0,2.0,2.5,1.0,,,8.985930256378508e-05,0.47239768146982974,1.587,0.841451448245068,,,,,,
3,240624_151309,TrueCHOICE,9.0,4,1.0,583.0,,,,,,,,,,,5.0,4.0,,,A,,,,,,True,cue1.png,Easy,cue2.png,Hard,Left,Easy,Easy,0.0165597999002784,,,,,,,,,,,,,25,29,Male,0.905,0.9,0.5163768800441175,,,,,,,,,,,,,0.7142857142857143,0.25,0.0,1.0,2.5555555555555554,1.125,2.4444444444444446,2.7777777777777777,2.375,3.4444444444444446,2.0,2.0,2.5,1.0,,,-0.00046440886644260725,-0.3561564218136407,,,,,,,,
4,240624_151333,TrueCHOICE,9.0,5,1.0,583.0,,,,,,,,,,,6.0,5.0,,,A,,,,,,True,cue2.png,Hard,cue1.png,Easy,Right,Easy,Easy,0.0158774999435991,,,,,,,,,,,,,25,29,Male,1.0,1.0,0.6095180666695038,,,,,,,,,,,,,0.7142857142857143,0.25,0.0,1.0,2.5555555555555554,1.125,2.4444444444444446,2.7777777777777777,2.375,3.4444444444444446,2.0,2.0,2.5,1.0,0.0001683495765527638,0.3610965258100712,,,1.4680000000000002,0.4546252581853877,,,,,,
5,240624_151357,TrueCHOICE,9.0,6,1.0,583.0,,,,,,,,,,,7.0,6.0,,,A,,,,,,True,cue2.png,Hard,cue1.png,Easy,Right,Easy,Easy,0.0157103000674396,,,,,,,,,,,,,25,29,Male,1.0,1.0,0.4499433332898964,,,,,,,,,,,,,0.7142857142857143,0.25,0.0,1.0,2.5555555555555554,1.125,2.4444444444444446,2.7777777777777777,2.375,3.4444444444444446,2.0,2.0,2.5,1.0,,,-0.0001766761644504014,0.07396409423882032,0.9450000000000003,-1.2454595939256474,,,,,,
6,240624_151422,TrueCHOICE,9.0,7,1.0,583.0,,,,,,,,,,,8.0,7.0,,,A,,,,,,True,cue1.png,Easy,cue2.png,Hard,Left,Easy,Easy,0.0163362000603228,,,,,,,,,,,,,25,29,Male,,,,,,,,,,,,,,,,0.7142857142857143,0.25,0.0,1.0,2.5555555555555554,1.125,2.4444444444444446,2.7777777777777777,2.375,3.4444444444444446,2.0,2.0,2.5,1.0,0.0004265522711556016,1.2310536156668925,-0.00044766879857470335,-0.33113234015645354,,,,,,,,
7,240624_151446,TrueCHOICE,9.0,8,1.0,583.0,,,,,,,,,,,9.0,8.0,,,A,,,,,,True,cue2.png,Hard,cue1.png,Easy,Right,Easy,Easy,0.0168546000495553,,,,,,,,,,,,,25,29,Male,0.905,0.9,0.4599696400264899,,,,,,,,,,,,,0.7142857142857143,0.25,0.0,1.0,2.5555555555555554,1.125,2.4444444444444446,2.7777777777777777,2.375,3.4444444444444446,2.0,2.0,2.5,1.0,-0.0003554854586081957,-1.4038502089815394,-0.001088336736405621,-1.288842124724371,1.6320000000000001,0.9877302596121749,,,,,,
8,240624_151510,TrueCHOICE,9.0,9,1.0,583.0,,,,,,,,,,,10.0,9.0,,,A,,,,,,True,cue1.png,Easy,cue2.png,Hard,Left,Easy,Easy,0.0160905998200178,,,,,,,,,,,,,25,29,Male,1.0,1.0,0.5213496000195543,,,,,,,,,,,,,0.7142857142857143,0.25,0.0,1.0,2.5555555555555554,1.125,2.4444444444444446,2.7777777777777777,2.375,3.4444444444444446,2.0,2.0,2.5,1.0,,,,,,,,,,,,
9,240624_151535,TrueCHOICE,9.0,10,1.0,583.0,,,,,,,,,,,11.0,10.0,,,A,,,,,,True,cue2.png,Hard,cue1.png,Easy,Right,Easy,Easy,0.0154993999749422,,,,,,,,,,,,,25,29,Male,1.0,1.0,0.5087080066557974,,,,,,,,,,,,,0.7142857142857143,0.25,0.0,1.0,2.5555555555555554,1.125,2.4444444444444446,2.7777777777777777,2.375,3.4444444444444446,2.0,2.0,2.5,1.0,-9.284210735338886e-05,-0.5189313049424821,-0.0006762667404528822,-0.6728545846159526,1.255,-0.23776111561891647,,,,,,
0,240624_152008,FalseCHOICE,9.0,1,2.0,583.0,,,,,,,,,,,1.0,1.0,,,A,,,,,,False,cue1.png,Easy,cue2.png,Hard,Left,Easy,Mid,0.0128317999187856,,,,,,,,,,,,,25,29,Male,1.0,1.0,0.4570995599962771,,,,,,,,,,,,,0.7142857142857143,0.25,0.0,1.0,2.5555555555555554,1.125,2.4444444444444446,2.7777777777777777,2.375,3.4444444444444446,2.0,2.0,2.5,1.0,-0.0001909306144731479,-0.8494189179147744,,,0.8170000000000002,-1.6615415462587504,,,,,,
1,240624_152035,FalseCHOICE,9.0,2,2.0,583.0,,,,,,,,,,,2.0,2.0,,,A,,,,,,False,cue2.png,Hard,cue1.png,Easy,Right,Easy,Mid,0.0164363000076264,,,,,,,,,,,,,25,29,Male,,,,,,,,,,,,,,,,0.7142857142857143,0.25,0.0,1.0,2.5555555555555554,1.125,2.4444444444444446,2.7777777777777777,2.375,3.4444444444444446,2.0,2.0,2.5,1.0,0.00041141451760313714,1.180050290361832,0.0011804125740263235,2.102623695601768,1.5930000000000002,0.8609552897606829,,,,,,
2,240624_152102,FalseCHOICE,9.0,3,2.0,583.0,,,,,,,,,,,3.0,3.0,,,A,,,,,,False,cue2.png,Hard,cue1.png,Easy,Right,Easy,Mid,0.0166355001274496,,,,,,,,,,,,,25,29,Male,,,,,,,,,,,,,,,,0.7142857142857143,0.25,0.0,1.0,2.5555555555555554,1.125,2.4444444444444446,2.7777777777777777,2.375,3.4444444444444446,2.0,2.0,2.5,1.0,,,8.985930256378508e-05,0.47239768146982974,1.587,0.841451448245068,,,,,,
3,240624_152129,FalseCHOICE,9.0,4,2.0,583.0,,,,,,,,,,,4.0,4.0,,,A,,,,,,False,cue2.png,Hard,cue1.png,Easy,Right,Easy,Mid,0.0143977000843733,,,,,,,,,,,,,25,29,Male,0.905,0.9,0.6967509867002567,,,,,,,,,,,,,0.7142857142857143,0.25,0.0,1.0,2.5555555555555554,1.125,2.4444444444444446,2.7777777777777777,2.375,3.4444444444444446,2.0,2.0,2.5,1.0,,,-0.00046440886644260725,-0.3561564218136407,,,,,,,,
4,240624_152155,FalseCHOICE,9.0,5,2.0,583.0,,,,,,,,,,,5.0,5.0,,,A,,,,,,False,cue1.png,Easy,cue2.png,Hard,Left,Easy,Mid,0.0161385000683367,,,,,,,,,,,,,25,29,Male,,,,,,,,,,,,,,,,0.7142857142857143,0.25,0.0,1.0,2.5555555555555554,1.125,2.4444444444444446,2.7777777777777777,2.375,3.4444444444444446,2.0,2.0,2.5,1.0,0.0001683495765527638,0.3610965258100712,,,1.4680000000000002,0.4546252581853877,,,,,,
5,240624_152221,FalseCHOICE,9.0,6,2.0,583.0,,,,,,,,,,,6.0,6.0,,,A,,,,,,False,cue2.png,Hard,cue1.png,Easy,Right,Easy,Mid,0.0164900999516248,,,,,,,,,,,,,25,29,Male,0.8920454545454546,0.8424242424242424,0.5895279142839301,,,,,,,,,,,,,0.7142857142857143,0.25,0.0,1.0,2.5555555555555554,1.125,2.4444444444444446,2.7777777777777777,2.375,3.4444444444444446,2.0,2.0,2.5,1.0,,,-0.0001766761644504014,0.07396409423882032,0.9450000000000003,-1.2454595939256474,,,,,,
6,240624_152247,FalseCHOICE,9.0,7,2.0,583.0,,,,,,,,,,,7.0,7.0,,,A,,,,,,False,cue2.png,Hard,cue1.png,Easy,Right,Easy,Mid,0.0165756000205874,,,,,,,,,,,,,25,29,Male,1.0,1.0,0.463491526649644,,,,,,,,,,,,,0.7142857142857143,0.25,0.0,1.0,2.5555555555555554,1.125,2.4444444444444446,2.7777777777777777,2.375,3.4444444444444446,2.0,2.0,2.5,1.0,0.0004265522711556016,1.2310536156668925,-0.00044766879857470335,-0.33113234015645354,,,,,,,,
7,240624_152312,FalseCHOICE,9.0,8,2.0,583.0,,,,,,,,,,,8.0,8.0,,,A,,,,,,False,cue1.png,Easy,cue2.png,Hard,Left,Easy,Mid,0.014911700040102,,,,,,,,,,,,,25,29,Male,,,,,,,,,,,,,,,,0.7142857142857143,0.25,0.0,1.0,2.5555555555555554,1.125,2.4444444444444446,2.7777777777777777,2.375,3.4444444444444446,2.0,2.0,2.5,1.0,-0.0003554854586081957,-1.4038502089815394,-0.001088336736405621,-1.288842124724371,1.6320000000000001,0.9877302596121749,,,,,,
8,240624_152338,FalseCHOICE,9.0,9,2.0,583.0,,,,,,,,,,,9.0,9.0,,,A,,,,,,False,cue1.png,Easy,cue2.png,Hard,Left,Easy,Mid,0.0159436999820172,,,,,,,,,,,,,25,29,Male,0.8920454545454546,0.9090909090909092,0.613811073328058,,,,,,,,,,,,,0.7142857142857143,0.25,0.0,1.0,2.5555555555555554,1.125,2.4444444444444446,2.7777777777777777,2.375,3.4444444444444446,2.0,2.0,2.5,1.0,,,,,,,,,,,,
9,240624_152403,FalseCHOICE,9.0,10,2.0,583.0,,,,,,,,,,,10.0,10.0,,,A,,,,,,False,cue2.png,Hard,cue1.png,Easy,Right,Easy,Mid,0.0172190000303089,,,,,,,,,,,,,25,29,Male,,,,,,,,,,,,,,,,0.7142857142857143,0.25,0.0,1.0,2.5555555555555554,1.125,2.4444444444444446,2.7777777777777777,2.375,3.4444444444444446,2.0,2.0,2.5,1.0,-9.284210735338886e-05,-0.5189313049424821,-0.0006762667404528822,-0.6728545846159526,1.255,-0.23776111561891647,,,,,,
0,240624_144344,OFFLINERATING,9.0,1,1.0,,,,,,,,,,,,,,,,,T0,cue1.png,Easy,63.0,2.864817299880088,,,,,,,,,,,,,,,,,,,,,,25,29,Male,,,,,,,,,,,,,,,,0.7142857142857143,0.25,0.0,1.0,2.5555555555555554,1.125,2.4444444444444446,2.7777777777777777,2.375,3.4444444444444446,2.0,2.0,2.5,1.0,,,,,,,9.123915737330136e-05,1.3106414239232056,,,,
1,240624_144352,OFFLINERATING,9.0,2,3.0,,,,,,,,,,,,,,,,,T0,cue2.png,Hard,44.0,1.3626178000122309,,,,,,,,,,,,,,,,,,,,,,25,29,Male,,,,,,,,,,,,,,,,0.7142857142857143,0.25,0.0,1.0,2.5555555555555554,1.125,2.4444444444444446,2.7777777777777777,2.375,3.4444444444444446,2.0,2.0,2.5,1.0,,,,,,,-3.970680747443934e-05,-1.1153905908087334,,,1.409,0.03179930792245941
2,240624_150833,OFFLINERATING,9.0,3,1.0,,,,,,,,,,,,,,,,,T1,cue1.png,Easy,52.0,1.6232204001862556,,,,,,,,,,,,,,,,,,,,,,25,29,Male,,,,,,,,,,,,,,,,0.7142857142857143,0.25,0.0,1.0,2.5555555555555554,1.125,2.4444444444444446,2.7777777777777777,2.375,3.4444444444444446,2.0,2.0,2.5,1.0,,,,,,,,,0.0007187012862224272,0.9292484099419279,1.459,0.3665288650009933
3,240624_150840,OFFLINERATING,9.0,4,3.0,,,,,,,,,,,,,,,,,T1,cue2.png,Hard,52.0,0.784775999840349,,,,,,,,,,,,,,,,,,,,,,25,29,Male,,,,,,,,,,,,,,,,0.7142857142857143,0.25,0.0,1.0,2.5555555555555554,1.125,2.4444444444444446,2.7777777777777777,2.375,3.4444444444444446,2.0,2.0,2.5,1.0,,,,,,,9.95807231048574e-06,-0.19525083311447242,-7.594372695794238e-05,-1.2482948544387276,1.169,-1.5749025660545015
4,240624_151725,OFFLINERATING,9.0,5,1.0,,,,,,,,,,,,,,,,,T2,cue1.png,Easy,65.0,1.0854225000366569,,,,,,,,,,,,,,,,,,,,,,25,29,Male,,,,,,,,,,,,,,,,0.7142857142857143,0.25,0.0,1.0,2.5555555555555554,1.125,2.4444444444444446,2.7777777777777777,2.375,3.4444444444444446,2.0,2.0,2.5,1.0,,,,,,,,,,,1.5799999999999998,1.176574393131043
5,240624_151731,OFFLINERATING,9.0,6,3.0,,,,,,,,,,,,,,,,,T2,cue2.png,Hard,47.0,0.7679295998532325,,,,,,,,,,,,,,,,,,,,,,25,29,Male,,,,,,,,,,,,,,,,0.7142857142857143,0.25,0.0,1.0,2.5555555555555554,1.125,2.4444444444444446,2.7777777777777777,2.375,3.4444444444444446,2.0,2.0,2.5,1.0,,,,,,,,,,,,
6,240624_154129,OFFLINERATING,9.0,7,1.0,,,,,,,,,,,,,,,,,T3,cue1.png,Easy,60.0,1.021435300121084,,,,,,,,,,,,,,,,,,,,,,25,29,Male,,,,,,,,,,,,,,,,0.7142857142857143,0.25,0.0,1.0,2.5555555555555554,1.125,2.4444444444444446,2.7777777777777777,2.375,3.4444444444444446,2.0,2.0,2.5,1.0,,,,,,,,,0.00011890177868570818,-0.7143652237586322,,
7,240624_154136,OFFLINERATING,9.0,8,3.0,,,,,,,,,,,,,,,,,T3,cue2.png,Hard,43.0,0.784963299985975,,,,,,,,,,,,,,,,,,,,,,25,29,Male,,,,,,,,,,,,,,,,0.7142857142857143,0.25,0.0,1.0,2.5555555555555554,1.125,2.4444444444444446,2.7777777777777777,2.375,3.4444444444444446,2.0,2.0,2.5,1.0,,,,,,,,,0.0007567133042288695,1.0334116682554317,,
