,END,Phase,Block,TrialN,NbackLevel,ISI,Letter_Resp,Letter_RT,Letter_Accuracy,Trial_A_measure,Trial_ACC,Trial_RT,TrialCountCali,CaliEnd_A_measure,ISI_calibrated,TrialIndex,TrialNumber_total,TrialNumber_valid,CueLearning,TrialDemandLearning,CueMapping,OfflineRatingTimePoint,CueFigure,TrialDemand,OfflineRating,OfflineRatingRT,PhaseType,CueLeft,CueDemandLeft,CueRight,CueDemandRight,Choice,ChoiceDemand,TaskDemand,ChoiceRT,CueCheck,CueDemandCheck,CorrectAnswer,Answer,AnswerDemand,AnswerRT,AnswerACC,DemandRatingQuesIndex,QuesTLX,DemandLevel,DemandRating,DemandRatingRT,PID,Age,Gender,Task_A_measure,Task_ACC,Task_RT,cue_i_on_zyg_values,cue_i_on_zyg_zvalues,cue_e_on_zyg_values,cue_e_on_zyg_zvalues,cue_i_on_cor_values,cue_i_on_cor_zvalues,cue_e_on_cor_values,cue_e_on_cor_zvalues,cue_i_on_scr_values,cue_i_on_scr_zvalues,cue_e_on_scr_values,cue_e_on_scr_zvalues,BAI_bis,BAI_bas_d,BAI_bas_rr,BAI_bas_fs,NFC,BFI_ext,BFI_agr,BFI_con,BFI_neu,BFI_open,UPPS_lps,UPPS_lpm,UPPS_pu,UPPS_ss,cue_e_true_zyg_values,cue_e_true_zyg_zvalues,cue_e_true_cor_values,cue_e_true_cor_zvalues,cue_e_true_scr_values,cue_e_true_scr_zvalues,cue_i_off_zyg_values,cue_i_off_zyg_zvalues,cue_i_off_cor_values,cue_i_off_cor_zvalues,cue_i_off_scr_values,cue_i_off_scr_zvalues
0,240625_092434,LEARNING,1.0,1,1.0,1472.0,,,,,,,,,,1.0,1.0,1.0,cue2.png,Easy,B,,,,,,,,,,,,,,,,,,,,,,,,,,,26,22,Female,0.8194444444444444,0.8333333333333334,0.4051590444675336,-0.00017527565732670253,-0.3332064225607819,,,,,-1.938613350085808e-05,-0.15964642031403212,,,,,0.42857142857142855,1.5,0.6,2.25,2.5,1.375,2.6666666666666665,2.6666666666666665,2.5,1.5555555555555556,1.5,2.25,2.75,2.75,,,,,,,,,,,,
1,240625_092453,LEARNING,1.0,2,3.0,1472.0,,,,,,,,,,2.0,2.0,2.0,cue1.png,Hard,B,,,,,,,,,,,,,,,,,,,,,,,,,,,26,22,Female,0.8194444444444444,0.8333333333333334,0.3725718999436746,-0.0004753725919429217,-0.8242235265999662,-0.00038798109052124146,-0.5564504880082481,0.00023579652398033257,0.2716470836045225,0.0002762823735580379,0.3016690812424561,1.435,-0.30735104113410117,1.4529999999999998,0.00011900729478594952,0.42857142857142855,1.5,0.6,2.25,2.5,1.375,2.6666666666666665,2.6666666666666665,2.5,1.5555555555555556,1.5,2.25,2.75,2.75,,,,,,,,,,,,
2,240625_092513,LEARNING,1.0,3,1.0,1472.0,,,,,,,,,,3.0,3.0,3.0,cue2.png,Easy,B,,,,,,,,,,,,,,,,,,,,,,,,,,,26,22,Female,0.8194444444444444,0.8333333333333334,0.3942605555057525,,,,,,,,,1.5460000000000003,-0.12368500847792199,1.4629999999999999,0.02154032035628778,0.42857142857142855,1.5,0.6,2.25,2.5,1.375,2.6666666666666665,2.6666666666666665,2.5,1.5555555555555556,1.5,2.25,2.75,2.75,,,,,,,,,,,,
3,240625_092533,LEARNING,1.0,4,3.0,1472.0,,,,,,,,,,4.0,4.0,4.0,cue1.png,Hard,B,,,,,,,,,,,,,,,,,,,,,,,,,,,26,22,Female,0.5,0.6666666666666667,0.4894851444340828,,,,,0.002427591102098857,2.6858908443588203,,,1.578,-0.07073624230677167,1.932,1.026199902940723,0.42857142857142855,1.5,0.6,2.25,2.5,1.375,2.6666666666666665,2.6666666666666665,2.5,1.5555555555555556,1.5,2.25,2.75,2.75,,,,,,,,,,,,
4,240625_092553,LEARNING,1.0,5,3.0,1472.0,,,,,,,,,,5.0,5.0,5.0,cue1.png,Hard,B,,,,,,,,,,,,,,,,,,,,,,,,,,,26,22,Female,0.8194444444444444,0.8333333333333334,0.4263196999931501,-0.0004454114001840566,-0.7752011744396069,,,-0.0009939562056857456,-1.0829154673328343,,,1.5560000000000003,-0.1071385190494374,1.586,0.2850224710127605,0.42857142857142855,1.5,0.6,2.25,2.5,1.375,2.6666666666666665,2.6666666666666665,2.5,1.5555555555555556,1.5,2.25,2.75,2.75,,,,,,,,,,,,
5,240625_092612,LEARNING,1.0,6,1.0,1472.0,,,,,,,,,,6.0,6.0,6.0,cue2.png,Easy,B,,,,,,,,,,,,,,,,,,,,,,,,,,,26,22,Female,1.0,1.0,0.3540581888519227,-0.001417871574537384,-2.366335649755251,-0.0004780932146038223,-0.7037588326499776,-0.0001246152910576834,-0.1253435762157013,-0.0003776841097668615,-0.7186792786728741,,,1.58,0.27216968317585943,0.42857142857142855,1.5,0.6,2.25,2.5,1.375,2.6666666666666665,2.6666666666666665,2.5,1.5555555555555556,1.5,2.25,2.75,2.75,,,,,,,,,,,,
6,240625_092631,LEARNING,1.0,7,3.0,1472.0,,,,,,,,,,7.0,7.0,7.0,cue1.png,Hard,B,,,,,,,,,,,,,,,,,,,,,,,,,,,26,22,Female,0.5,0.6666666666666667,0.3667579889038784,0.00016745015175655912,0.2275598327518917,-0.0004414817296423028,-0.6439092030971932,,,0.0014549972923436063,2.1407539041768278,1.449,-0.2841859559342227,,,0.42857142857142855,1.5,0.6,2.25,2.5,1.375,2.6666666666666665,2.6666666666666665,2.5,1.5555555555555556,1.5,2.25,2.75,2.75,,,,,,,,,,,,
7,240625_092650,LEARNING,1.0,8,3.0,1472.0,,,,,,,,,,8.0,8.0,8.0,cue1.png,Hard,B,,,,,,,,,,,,,,,,,,,,,,,,,,,26,22,Female,0.5,0.6666666666666667,0.3717866778218497,0.0008565796662943787,1.3551100990317564,-0.0001795545651300844,-0.21573089286629096,-0.0006432423683025387,-0.6966070504010639,0.00012168931002916718,0.060465926573131976,2.629,1.6682997966269573,,,0.42857142857142855,1.5,0.6,2.25,2.5,1.375,2.6666666666666665,2.6666666666666665,2.5,1.5555555555555556,1.5,2.25,2.75,2.75,,,,,,,,,,,,
8,240625_092709,LEARNING,1.0,9,1.0,1472.0,,,,,,,,,,9.0,9.0,9.0,cue2.png,Easy,B,,,,,,,,,,,,,,,,,,,,,,,,,,,26,22,Female,1.0,1.0,0.3515489110464437,-0.0009873932586570546,-1.661989181553104,0.00011395105291361809,0.2640694356382645,-0.0010164051497466276,-1.1076427951926515,0.00019664373167394694,0.17741323678514026,,,,,0.42857142857142855,1.5,0.6,2.25,2.5,1.375,2.6666666666666665,2.6666666666666665,2.5,1.5555555555555556,1.5,2.25,2.75,2.75,,,,,,,,,,,,
9,240625_092729,LEARNING,1.0,10,1.0,1472.0,,,,,,,,,,10.0,10.0,10.0,cue2.png,Easy,B,,,,,,,,,,,,,,,,,,,,,,,,,,,26,22,Female,1.0,1.0,0.3666709888881693,-0.0007298124496534601,-1.2405367496755157,0.0003211665661133258,0.6028093615283919,0.00018364760165044073,0.21420547314435023,0.00016183364130973894,0.1231009447682143,1.4499999999999997,-0.2825313069913748,1.2389999999999999,-0.45829709222135273,0.42857142857142855,1.5,0.6,2.25,2.5,1.375,2.6666666666666665,2.6666666666666665,2.5,1.5555555555555556,1.5,2.25,2.75,2.75,,,,,,,,,,,,
10,240625_092748,LEARNING,1.0,11,3.0,1472.0,,,,,,,,,,11.0,11.0,11.0,cue1.png,Hard,B,,,,,,,,,,,,,,,,,,,,,,,,,,,26,22,Female,0.8194444444444444,0.8333333333333334,0.3965191222830779,0.00015160237639192872,0.20162978193362593,-0.0008745569911244094,-1.3518672112310324,-0.00022159728985099566,-0.2321684528851305,0.00012156496548785959,0.06027191854363393,2.315,1.1487400285725413,1.6269999999999998,0.3728498545649173,0.42857142857142855,1.5,0.6,2.25,2.5,1.375,2.6666666666666665,2.6666666666666665,2.5,1.5555555555555556,1.5,2.25,2.75,2.75,,,,,,,,,,,,
11,240625_092807,LEARNING,1.0,12,1.0,1472.0,,,,,,,,,,12.0,12.0,12.0,cue2.png,Easy,B,,,,,,,,,,,,,,,,,,,,,,,,,,,26,22,Female,0.8194444444444444,0.8333333333333334,0.3497989443906893,0.0009979138982983147,1.586360462814793,-0.000925838980911883,-1.4356990496482902,6.143433798426511e-05,0.07958856504853641,-1.855956009653428e-05,-0.15835676275671595,2.984,2.2557001713381597,,,0.42857142857142855,1.5,0.6,2.25,2.5,1.375,2.6666666666666665,2.6666666666666665,2.5,1.5555555555555556,1.5,2.25,2.75,2.75,,,,,,,,,,,,
12,240625_092826,LEARNING,1.0,13,1.0,1472.0,,,,,,,,,,13.0,13.0,13.0,cue2.png,Easy,B,,,,,,,,,,,,,,,,,,,,,,,,,,,26,22,Female,1.0,1.0,0.3467584778037336,-0.0006876464056350846,-1.1715448792681449,2.2634376791503055e-05,0.1147919823023931,-4.906721252576204e-05,-0.04212798701151825,0.00013018532710307043,0.07372180024282737,1.8250000000000002,0.33796204657679757,1.659,0.4413980563617237,0.42857142857142855,1.5,0.6,2.25,2.5,1.375,2.6666666666666665,2.6666666666666665,2.5,1.5555555555555556,1.5,2.25,2.75,2.75,,,,,,,,,,,,
13,240625_092846,LEARNING,1.0,14,1.0,1472.0,,,,,,,,,,14.0,14.0,14.0,cue2.png,Easy,B,,,,,,,,,,,,,,,,,,,,,,,,,,,26,22,Female,0.5,0.6666666666666667,0.3993107222227586,6.740331826713287e-05,0.06386370399572168,1.0937362640686503e-05,0.09567060646812009,0.002630457623275666,2.909346654454613,-0.0015922686370108746,-2.613729502120281,,,1.4220000000000002,-0.06628706319586901,0.42857142857142855,1.5,0.6,2.25,2.5,1.375,2.6666666666666665,2.6666666666666665,2.5,1.5555555555555556,1.5,2.25,2.75,2.75,,,,,,,,,,,,
14,240625_092905,LEARNING,1.0,15,3.0,1472.0,,,,,,,,,,15.0,15.0,15.0,cue1.png,Hard,B,,,,,,,,,,,,,,,,,,,,,,,,,,,26,22,Female,0.125,0.5,0.4004604666649053,0.0006878245358884752,1.0789937983783366,-0.0010103512447671072,-1.57385317504688,-0.00028478057813365,-0.30176432698902633,-0.00025552738184472096,-0.5280847754893596,,,,,0.42857142857142855,1.5,0.6,2.25,2.5,1.375,2.6666666666666665,2.6666666666666665,2.5,1.5555555555555556,1.5,2.25,2.75,2.75,,,,,,,,,,,,
15,240625_092924,LEARNING,1.0,16,1.0,1472.0,,,,,,,,,,16.0,16.0,16.0,cue2.png,Easy,B,,,,,,,,,,,,,,,,,,,,,,,,,,,26,22,Female,0.8194444444444444,0.8333333333333334,0.3665004333015531,2.3942634209609195e-05,-0.007246449970955562,-0.0007295535328980737,-1.1148267506258347,-0.00023551241908949944,-0.2474958536732945,7.682508726506582e-05,-0.009533281770828596,,,,,0.42857142857142855,1.5,0.6,2.25,2.5,1.375,2.6666666666666665,2.6666666666666665,2.5,1.5555555555555556,1.5,2.25,2.75,2.75,,,,,,,,,,,,
16,240625_092944,LEARNING,1.0,17,1.0,1472.0,,,,,,,,,,17.0,17.0,17.0,cue2.png,Easy,B,,,,,,,,,,,,,,,,,,,,,,,,,,,26,22,Female,1.0,1.0,0.4212689111267941,,,0.0004872714545199955,0.8743448113604487,0.0001422479702724122,0.16860411855128837,0.0011591135889986543,1.6791026435514333,,,,,0.42857142857142855,1.5,0.6,2.25,2.5,1.375,2.6666666666666665,2.6666666666666665,2.5,1.5555555555555556,1.5,2.25,2.75,2.75,,,,,,,,,,,,
17,240625_093003,LEARNING,1.0,18,3.0,1472.0,,,,,,,,,,18.0,18.0,18.0,cue1.png,Hard,B,,,,,,,,,,,,,,,,,,,,,,,,,,,26,22,Female,0.5,0.6666666666666667,0.3883153000432584,0.0008457418619449032,1.3373773377403815,-0.0012181207878450822,-1.9134987862161028,-0.0005398524222062209,-0.5827238723059583,0.0011855299121102596,1.7203185967374146,,,1.7209999999999999,0.5742101973430346,0.42857142857142855,1.5,0.6,2.25,2.5,1.375,2.6666666666666665,2.6666666666666665,2.5,1.5555555555555556,1.5,2.25,2.75,2.75,,,,,,,,,,,,
18,240625_093023,LEARNING,1.0,19,3.0,1472.0,,,,,,,,,,19.0,19.0,19.0,cue1.png,Hard,B,,,,,,,,,,,,,,,,,,,,,,,,,,,26,22,Female,0.8194444444444444,0.8333333333333334,0.4231775333432274,-0.00038403270676692046,-0.6747736631425212,0.0009494944109734848,1.629951221305587,0.0014179931611846821,1.5738269885321698,,,,,,,0.42857142857142855,1.5,0.6,2.25,2.5,1.375,2.6666666666666665,2.6666666666666665,2.5,1.5555555555555556,1.5,2.25,2.75,2.75,,,,,,,,,,,,
19,240625_093043,LEARNING,1.0,20,3.0,1472.0,,,,,,,,,,20.0,20.0,20.0,cue1.png,Hard,B,,,,,,,,,,,,,,,,,,,,,,,,,,,26,22,Female,0.8194444444444444,0.8333333333333334,0.4038074999375062,0.0005715509629918864,0.8887475597321977,0.0003266143506988929,0.6117149792511435,-6.003287401289397e-05,-0.054206573249548605,5.283764227008913e-05,-0.04695958844444427,,,,,0.42857142857142855,1.5,0.6,2.25,2.5,1.375,2.6666666666666665,2.6666666666666665,2.5,1.5555555555555556,1.5,2.25,2.75,2.75,,,,,,,,,,,,
20,240625_093102,LEARNING,1.0,21,1.0,1472.0,,,,,,,,,,21.0,21.0,21.0,cue2.png,Easy,B,,,,,,,,,,,,,,,,,,,,,,,,,,,26,22,Female,0.8194444444444444,0.8333333333333334,0.3877014555554423,0.00042166277862069543,0.643501261852633,-0.00031718388470509777,-0.44071668081845694,0.00040526158828181353,0.45831146275764584,1.7280373812143725e-05,-0.10243766183082745,2.854,2.0405958087678604,0.8129999999999997,-1.3708450286413303,0.42857142857142855,1.5,0.6,2.25,2.5,1.375,2.6666666666666665,2.6666666666666665,2.5,1.5555555555555556,1.5,2.25,2.75,2.75,,,,,,,,,,,,
21,240625_093122,LEARNING,1.0,22,3.0,1472.0,,,,,,,,,,22.0,22.0,22.0,cue1.png,Hard,B,,,,,,,,,,,,,,,,,,,,,,,,,,,26,22,Female,0.8194444444444444,0.8333333333333334,0.4050151333471553,-0.0005248321972788385,-0.9051490855698388,0.001311276026165438,2.2213638796832593,,,7.021816172534789e-06,-0.11844353174858524,1.551,-0.11541176376368026,1.779,0.6984538130997452,0.42857142857142855,1.5,0.6,2.25,2.5,1.375,2.6666666666666665,2.6666666666666665,2.5,1.5555555555555556,1.5,2.25,2.75,2.75,,,,,,,,,,,,
22,240625_093142,LEARNING,1.0,23,3.0,1472.0,,,,,,,,,,23.0,23.0,23.0,cue1.png,Hard,B,,,,,,,,,,,,,,,,,,,,,,,,,,,26,22,Female,0.8194444444444444,0.8333333333333334,0.426381833333936,0.00034244639879628565,0.513887817238169,-7.43068828814638e-05,-0.04368010605745999,0.0008310555604481469,0.9273200326902293,-0.0008160919276651128,-1.402703168845699,2.048,0.7069487608320034,1.9809999999999999,1.1311643369420816,0.42857142857142855,1.5,0.6,2.25,2.5,1.375,2.6666666666666665,2.6666666666666665,2.5,1.5555555555555556,1.5,2.25,2.75,2.75,,,,,,,,,,,,
23,240625_093201,LEARNING,1.0,24,3.0,1472.0,,,,,,,,,,24.0,24.0,24.0,cue1.png,Hard,B,,,,,,,,,,,,,,,,,,,,,,,,,,,26,22,Female,0.125,0.5,0.3938385778261969,0.00020720471267702927,0.2926060465710434,0.000764336789511033,1.327269834165738,-0.0021881364716658277,-2.398295241122208,-0.00028636811948330775,-0.5762039021885136,1.219,-0.6647552127893679,1.1870000000000003,-0.5696879201411613,0.42857142857142855,1.5,0.6,2.25,2.5,1.375,2.6666666666666665,2.6666666666666665,2.5,1.5555555555555556,1.5,2.25,2.75,2.75,,,,,,,,,,,,
24,240625_093221,LEARNING,1.0,25,1.0,1472.0,,,,,,,,,,25.0,25.0,25.0,cue2.png,Easy,B,,,,,,,,,,,,,,,,,,,,,,,,,,,26,22,Female,0.125,0.5,0.4383017222086589,0.000935726070065028,1.4846090491769133,-0.0007512588974784859,-1.1503090051918863,3.0060802016315495e-05,0.0450308723616413,-0.0005641876020256596,-1.0096705409119258,0.8400000000000001,-1.2918671621289335,1.75,0.6363320052213901,0.42857142857142855,1.5,0.6,2.25,2.5,1.375,2.6666666666666665,2.6666666666666665,2.5,1.5555555555555556,1.5,2.25,2.75,2.75,,,,,,,,,,,,
25,240625_093240,LEARNING,1.0,26,1.0,1472.0,,,,,,,,,,26.0,26.0,26.0,cue2.png,Easy,B,,,,,,,,,,,,,,,,,,,,,,,,,,,26,22,Female,1.0,1.0,0.3464734000153839,,,,,,,,,2.3360000000000003,1.1834876563723595,1.5310000000000001,0.1672052491745007,0.42857142857142855,1.5,0.6,2.25,2.5,1.375,2.6666666666666665,2.6666666666666665,2.5,1.5555555555555556,1.5,2.25,2.75,2.75,,,,,,,,,,,,
26,240625_093259,LEARNING,1.0,27,3.0,1472.0,,,,,,,,,,27.0,27.0,27.0,cue1.png,Hard,B,,,,,,,,,,,,,,,,,,,,,,,,,,,26,22,Female,0.8194444444444444,0.8333333333333334,0.3686823333717055,-0.0013850165550636385,-2.312578431155932,-6.020537643618672e-05,-0.020628051824393773,0.0002361698551178004,0.27205830479209414,0.0006137703173159925,0.8282331769341091,1.6360000000000001,0.025233396378438955,0.31400000000000006,-2.4397685504102697,0.42857142857142855,1.5,0.6,2.25,2.5,1.375,2.6666666666666665,2.6666666666666665,2.5,1.5555555555555556,1.5,2.25,2.75,2.75,,,,,,,,,,,,
27,240625_093319,LEARNING,1.0,28,1.0,1472.0,,,,,,,,,,28.0,28.0,28.0,cue2.png,Easy,B,,,,,,,,,,,,,,,,,,,,,,,,,,,26,22,Female,0.8194444444444444,0.8333333333333334,0.3906153332855966,0.0004748933810928297,0.7305969074831159,0.0007256648385221172,1.2640519137999648,3.678094941004769e-05,0.052433059628020175,,,1.7009999999999996,0.13278557766358787,1.101,-0.7539112124700775,0.42857142857142855,1.5,0.6,2.25,2.5,1.375,2.6666666666666665,2.6666666666666665,2.5,1.5555555555555556,1.5,2.25,2.75,2.75,,,,,,,,,,,,
28,240625_093338,LEARNING,1.0,29,1.0,1472.0,,,,,,,,,,29.0,29.0,29.0,cue2.png,Easy,B,,,,,,,,,,,,,,,,,,,,,,,,,,,26,22,Female,1.0,1.0,0.3538672444410622,-6.19549043903607e-05,-0.14779157317053032,-7.325283474057115e-05,-0.041957029519331834,-0.00028887585350052163,-0.30627523923497585,,,1.9579999999999997,0.5580303559756417,0.953,-1.0709466457803043,0.42857142857142855,1.5,0.6,2.25,2.5,1.375,2.6666666666666665,2.6666666666666665,2.5,1.5555555555555556,1.5,2.25,2.75,2.75,,,,,,,,,,,,
29,240625_093357,LEARNING,1.0,30,3.0,1472.0,,,,,,,,,,30.0,30.0,30.0,cue1.png,Hard,B,,,,,,,,,,,,,,,,,,,,,,,,,,,26,22,Female,1.0,1.0,0.3577282889487428,1.8139045679092802e-05,-0.016742252508670556,-0.0007133746419616324,-1.0883787485811582,-0.0001803829041228419,-0.18677114485687077,-0.00029768350352727714,-0.5938586809049639,1.126,-0.8186375644742748,2.082,1.34751959886325,0.42857142857142855,1.5,0.6,2.25,2.5,1.375,2.6666666666666665,2.6666666666666665,2.5,1.5555555555555556,1.5,2.25,2.75,2.75,,,,,,,,,,,,
30,240625_093416,LEARNING,1.0,31,3.0,1472.0,,,,,,,,,,31.0,31.0,31.0,cue1.png,Hard,B,,,,,,,,,,,,,,,,,,,,,,,,,,,26,22,Female,0.5,0.6666666666666667,0.3641027444456186,,,0.0007835620367148133,1.3586977842862076,-6.617024875444667e-05,-0.060966841216779324,0.0012715583108274383,1.854544031488947,,,,,0.42857142857142855,1.5,0.6,2.25,2.5,1.375,2.6666666666666665,2.6666666666666665,2.5,1.5555555555555556,1.5,2.25,2.75,2.75,,,,,,,,,,,,
31,240625_093435,LEARNING,1.0,32,1.0,1472.0,,,,,,,,,,32.0,32.0,32.0,cue2.png,Easy,B,,,,,,,,,,,,,,,,,,,,,,,,,,,26,22,Female,1.0,1.0,0.3646492888219654,,,,,-0.0006181349371632791,-0.6689514208171276,,,1.269,-0.5820227656469453,1.2730000000000001,-0.38546462781224605,0.42857142857142855,1.5,0.6,2.25,2.5,1.375,2.6666666666666665,2.6666666666666665,2.5,1.5555555555555556,1.5,2.25,2.75,2.75,,,,,,,,,,,,
32,240625_093454,LEARNING,1.0,33,1.0,1472.0,,,,,,,,,,33.0,33.0,33.0,cue2.png,Easy,B,,,,,,,,,,,,,,,,,,,,,,,,,,,26,22,Female,1.0,1.0,0.3720862221800619,-5.8438248038513406e-05,-0.1420376376296915,0.0006121767259458042,1.0785303075751422,0.0004939051961498722,0.5559516701761342,,,0.9040000000000001,-1.185969629786632,0.3779999999999999,-2.3026721468166587,0.42857142857142855,1.5,0.6,2.25,2.5,1.375,2.6666666666666665,2.6666666666666665,2.5,1.5555555555555556,1.5,2.25,2.75,2.75,,,,,,,,,,,,
33,240625_093513,LEARNING,1.0,34,1.0,1472.0,,,,,,,,,,34.0,34.0,34.0,cue2.png,Easy,B,,,,,,,,,,,,,,,,,,,,,,,,,,,26,22,Female,1.0,1.0,0.3354505111152927,0.0007011357641633995,1.1007735635302751,-0.0004429762378173538,-0.6463523096997913,-6.817987158459337e-05,-0.06318042429047954,0.000376213267520666,0.45758582370490297,1.838,0.3594724828338273,2.044,1.2661186092295433,0.42857142857142855,1.5,0.6,2.25,2.5,1.375,2.6666666666666665,2.6666666666666665,2.5,1.5555555555555556,1.5,2.25,2.75,2.75,,,,,,,,,,,,
34,240625_093533,LEARNING,1.0,35,3.0,1472.0,,,,,,,,,,35.0,35.0,35.0,cue1.png,Hard,B,,,,,,,,,,,,,,,,,,,,,,,,,,,26,22,Female,0.8194444444444444,0.8333333333333334,0.3719214444669584,-0.00011096854745998135,-0.2279874509099448,-0.00021920438317090535,-0.2805473548063793,0.000472125330719731,0.5319613269433648,0.0010791577923766052,1.5543519597942963,1.258,-0.6002239040182782,0.6620000000000001,-1.6943068558700067,0.42857142857142855,1.5,0.6,2.25,2.5,1.375,2.6666666666666665,2.6666666666666665,2.5,1.5555555555555556,1.5,2.25,2.75,2.75,,,,,,,,,,,,
35,240625_093552,LEARNING,1.0,36,3.0,1472.0,,,,,,,,,,36.0,36.0,36.0,cue1.png,Hard,B,,,,,,,,,,,,,,,,,,,,,,,,,,,26,22,Female,0.5,0.6666666666666667,0.3986408111846281,,,-0.000119465840829747,-0.11750248466448025,,,,,0.843,-1.286903215300388,2.069,1.3196718918832977,0.42857142857142855,1.5,0.6,2.25,2.5,1.375,2.6666666666666665,2.6666666666666665,2.5,1.5555555555555556,1.5,2.25,2.75,2.75,,,,,,,,,,,,
36,240625_093611,LEARNING,1.0,37,1.0,1472.0,,,,,,,,,,37.0,37.0,37.0,cue2.png,Easy,B,,,,,,,,,,,,,,,,,,,,,,,,,,,26,22,Female,0.8194444444444444,0.8333333333333334,0.3233413444831967,,,-0.0005556090607310819,-0.8304757544045381,,,0.0006566972872272996,0.8952097949443264,1.926,0.5050815898044914,1.2759999999999998,-0.3790382338937962,0.42857142857142855,1.5,0.6,2.25,2.5,1.375,2.6666666666666665,2.6666666666666665,2.5,1.5555555555555556,1.5,2.25,2.75,2.75,,,,,,,,,,,,
37,240625_093630,LEARNING,1.0,38,3.0,1472.0,,,,,,,,,,38.0,38.0,38.0,cue1.png,Hard,B,,,,,,,,,,,,,,,,,,,,,,,,,,,26,22,Female,0.5,0.6666666666666667,0.3119929888699617,0.0008816464714516328,1.3961242803047835,-0.0009525605069680455,-1.4793813377944096,-0.0018832485422643971,-2.0624636861785146,-0.00011753980609403728,-0.3127902608682587,1.3870000000000002,-0.38677419039082683,1.67,0.4649615007293754,0.42857142857142855,1.5,0.6,2.25,2.5,1.375,2.6666666666666665,2.6666666666666665,2.5,1.5555555555555556,1.5,2.25,2.75,2.75,,,,,,,,,,,,
38,240625_093648,LEARNING,1.0,39,3.0,1472.0,,,,,,,,,,39.0,39.0,39.0,cue1.png,Hard,B,,,,,,,,,,,,,,,,,,,,,,,,,,,26,22,Female,0.5,0.6666666666666667,0.31871258889118,0.00026649593322540695,0.38961804519690185,0.0004206890430293927,0.7655010245915701,0.0002488886226767609,0.2860679229973109,-3.8203191378787926e-05,-0.18900565298687655,0.9100000000000001,-1.1760417361295412,1.141,-0.6682259602240702,0.42857142857142855,1.5,0.6,2.25,2.5,1.375,2.6666666666666665,2.6666666666666665,2.5,1.5555555555555556,1.5,2.25,2.75,2.75,,,,,,,,,,,,
39,240625_093708,LEARNING,1.0,40,3.0,1472.0,,,,,,,,,,40.0,40.0,40.0,cue1.png,Hard,B,,,,,,,,,,,,,,,,,,,,,,,,,,,26,22,Female,1.0,1.0,0.3494080889245702,,,,,0.0001909571906319801,0.22225692548780315,,,2.462,1.391973423171265,1.2690000000000001,-0.3940331530368468,0.42857142857142855,1.5,0.6,2.25,2.5,1.375,2.6666666666666665,2.6666666666666665,2.5,1.5555555555555556,1.5,2.25,2.75,2.75,,,,,,,,,,,,
40,240625_093727,LEARNING,1.0,41,1.0,1472.0,,,,,,,,,,41.0,41.0,41.0,cue2.png,Easy,B,,,,,,,,,,,,,,,,,,,,,,,,,,,26,22,Female,0.8194444444444444,0.8333333333333334,0.3670980222781913,-0.00035774368894019026,-0.6317597036103338,0.0007451916042381327,1.295972763109843,0.00021038308922839482,0.24365439354965898,-0.0007588489455652896,-1.3133900551135393,,,2.0540000000000003,1.2875399222910457,0.42857142857142855,1.5,0.6,2.25,2.5,1.375,2.6666666666666665,2.6666666666666665,2.5,1.5555555555555556,1.5,2.25,2.75,2.75,,,,,,,,,,,,
41,240625_093746,LEARNING,1.0,42,3.0,1472.0,,,,,,,,,,42.0,42.0,42.0,cue1.png,Hard,B,,,,,,,,,,,,,,,,,,,,,,,,,,,26,22,Female,0.8194444444444444,0.8333333333333334,0.3345614111102704,0.000918158763993487,1.4558655108130536,0.00032897504983509657,0.6155740679752383,0.00032619243636393836,0.371217440082524,2.5333182438163314e-05,-0.08987330221334999,,,,,0.42857142857142855,1.5,0.6,2.25,2.5,1.375,2.6666666666666665,2.6666666666666665,2.5,1.5555555555555556,1.5,2.25,2.75,2.75,,,,,,,,,,,,
42,240625_093804,LEARNING,1.0,43,3.0,1472.0,,,,,,,,,,43.0,43.0,43.0,cue1.png,Hard,B,,,,,,,,,,,,,,,,,,,,,,,,,,,26,22,Female,0.5,0.6666666666666667,0.2242458111658278,,,,,-0.0001432319598055039,-0.1458496842329211,,,1.569,-0.085628082792408,1.6810000000000003,0.48852494509702815,0.42857142857142855,1.5,0.6,2.25,2.5,1.375,2.6666666666666665,2.6666666666666665,2.5,1.5555555555555556,1.5,2.25,2.75,2.75,,,,,,,,,,,,
43,240625_093823,LEARNING,1.0,44,1.0,1472.0,,,,,,,,,,44.0,44.0,44.0,cue2.png,Easy,B,,,,,,,,,,,,,,,,,,,,,,,,,,,26,22,Female,0.8194444444444444,0.8333333333333334,0.3681621555652883,,,,,-0.0018947557379937544,-2.075138767945177,0.0006959462554477947,0.9564478268210379,0.9510000000000001,-1.1082011294727545,2.116,1.4203520632723565,0.42857142857142855,1.5,0.6,2.25,2.5,1.375,2.6666666666666665,2.6666666666666665,2.5,1.5555555555555556,1.5,2.25,2.75,2.75,,,,,,,,,,,,
44,240625_093842,LEARNING,1.0,45,1.0,1472.0,,,,,,,,,,45.0,45.0,45.0,cue2.png,Easy,B,,,,,,,,,,,,,,,,,,,,,,,,,,,26,22,Female,0.8194444444444444,0.8333333333333334,0.339985655568954,0.000166311241664701,0.22569635375374617,0.00027221068283702146,0.5227800624820478,5.6251637946944186e-05,0.0738798634421551,-0.0012591304646937798,-2.0939521183914835,2.693,1.7741973289692585,1.9989999999999999,1.169722700452785,0.42857142857142855,1.5,0.6,2.25,2.5,1.375,2.6666666666666665,2.6666666666666665,2.5,1.5555555555555556,1.5,2.25,2.75,2.75,,,,,,,,,,,,
45,240625_093901,LEARNING,1.0,46,1.0,1472.0,,,,,,,,,,46.0,46.0,46.0,cue2.png,Easy,B,,,,,,,,,,,,,,,,,,,,,,,,,,,26,22,Female,1.0,1.0,0.3194756888939689,0.000120078401440845,0.15005041172752873,0.000646564048623741,1.1347440483111357,,,-0.00012675254670132348,-0.3271643993121393,0.43300000000000005,-1.9653092818682556,,,0.42857142857142855,1.5,0.6,2.25,2.5,1.375,2.6666666666666665,2.6666666666666665,2.5,1.5555555555555556,1.5,2.25,2.75,2.75,,,,,,,,,,,,
46,240625_093921,LEARNING,1.0,47,3.0,1472.0,,,,,,,,,,47.0,47.0,47.0,cue1.png,Hard,B,,,,,,,,,,,,,,,,,,,,,,,,,,,26,22,Female,1.0,0.8888888888888888,0.3641936625353992,2.2871262033211798e-05,-0.008999423769490245,,,0.00044096220784054386,0.4976354025488988,-0.00025312022126883866,-0.5243290136754409,1.0150000000000001,-1.0023035971304532,1.485,0.06866720909159228,0.42857142857142855,1.5,0.6,2.25,2.5,1.375,2.6666666666666665,2.6666666666666665,2.5,1.5555555555555556,1.5,2.25,2.75,2.75,,,,,,,,,,,,
47,240625_093940,LEARNING,1.0,48,3.0,1472.0,,,,,,,,,,48.0,48.0,48.0,cue1.png,Hard,B,,,,,,,,,,,,,,,,,,,,,,,,,,,26,22,Female,0.5,0.6666666666666667,0.2851766222156584,6.978530294097889e-05,0.067761095409977,0.00024862774703647735,0.4842284994161643,,,3.555972673718573e-05,-0.07391738097093836,1.263,-0.5919506593040361,0.8289999999999997,-1.3365709277429274,0.42857142857142855,1.5,0.6,2.25,2.5,1.375,2.6666666666666665,2.6666666666666665,2.5,1.5555555555555556,1.5,2.25,2.75,2.75,,,,,,,,,,,,
48,240625_093959,LEARNING,1.0,49,1.0,1472.0,,,,,,,,,,49.0,49.0,49.0,cue2.png,Easy,B,,,,,,,,,,,,,,,,,,,,,,,,,,,26,22,Female,1.0,1.0,0.3769317444465641,-0.00019948307163557537,-0.3728144728243418,-0.0004222944567797652,-0.6125433304985252,,,0.0001339134663130067,0.0795386132223767,,,,,0.42857142857142855,1.5,0.6,2.25,2.5,1.375,2.6666666666666665,2.6666666666666665,2.5,1.5555555555555556,1.5,2.25,2.75,2.75,,,,,,,,,,,,
49,240625_094019,LEARNING,1.0,50,1.0,1472.0,,,,,,,,,,50.0,50.0,50.0,cue2.png,Easy,B,,,,,,,,,,,,,,,,,,,,,,,,,,,26,22,Female,0.8194444444444444,0.8333333333333334,0.4030685443431139,-0.0008088240843419393,-1.3698151913222245,,,,,,,1.5899999999999999,-0.05088045499259053,1.1869999999999998,-0.5696879201411623,0.42857142857142855,1.5,0.6,2.25,2.5,1.375,2.6666666666666665,2.6666666666666665,2.5,1.5555555555555556,1.5,2.25,2.75,2.75,,,,,,,,,,,,
0,240625_094143,TrueCHOICE,9.0,1,1.0,1472.0,,,,,,,,,,,1.0,1.0,,,B,,,,,,True,cue2.png,Easy,cue1.png,Hard,Left,Easy,Easy,0.0162823998834937,,,,,,,,,,,,,26,22,Female,0.8194444444444444,0.8333333333333334,0.33405436665958,,,,,,,,,,,,,0.42857142857142855,1.5,0.6,2.25,2.5,1.375,2.6666666666666665,2.6666666666666665,2.5,1.5555555555555556,1.5,2.25,2.75,2.75,,,,,1.466,-0.02939036850061269,,,,,,
1,240625_094200,TrueCHOICE,9.0,2,1.0,1472.0,,,,,,,,,,,2.0,2.0,,,B,,,,,,True,cue2.png,Easy,cue1.png,Hard,Left,Easy,Easy,0.0154567998833954,,,,,,,,,,,,,26,22,Female,,,,,,,,,,,,,,,,0.42857142857142855,1.5,0.6,2.25,2.5,1.375,2.6666666666666665,2.6666666666666665,2.5,1.5555555555555556,1.5,2.25,2.75,2.75,-0.0009615449531571538,-1.3096785013580412,-0.0005899369147086865,-1.187044672098229,1.0510000000000002,-2.1638658808574998,,,,,,
2,240625_094218,TrueCHOICE,9.0,3,1.0,1472.0,,,,,,,,,,,3.0,3.0,,,B,,,,,,True,cue1.png,Hard,cue2.png,Easy,Right,Easy,Easy,0.0174777000211179,,,,,,,,,,,,,26,22,Female,0.8194444444444444,0.8333333333333334,0.3652632222510874,,,,,,,,,,,,,0.42857142857142855,1.5,0.6,2.25,2.5,1.375,2.6666666666666665,2.6666666666666665,2.5,1.5555555555555556,1.5,2.25,2.75,2.75,0.0004704175835965,0.08264825253819198,0.0005768726815850674,0.40492222113984144,1.5890000000000002,0.6032373134750444,,,,,,
3,240625_094235,TrueCHOICE,9.0,4,1.0,1472.0,,,,,,,,,,,4.0,4.0,,,B,,,,,,True,cue2.png,Easy,cue1.png,Hard,Left,Easy,Easy,0.0138648001011461,,,,,,,,,,,,,26,22,Female,0.8194444444444444,0.8333333333333334,0.3694138999821411,,,,,,,,,,,,,0.42857142857142855,1.5,0.6,2.25,2.5,1.375,2.6666666666666665,2.6666666666666665,2.5,1.5555555555555556,1.5,2.25,2.75,2.75,,,-0.0005936429658742158,-1.1921011189931718,1.4919999999999998,0.10433580817716723,,,,,,
4,240625_094252,TrueCHOICE,9.0,5,1.0,1472.0,,,,,,,,,,,5.0,5.0,,,B,,,,,,True,cue1.png,Hard,cue2.png,Easy,Right,Easy,Easy,0.0170128000900149,,,,,,,,,,,,,26,22,Female,0.5,0.6666666666666667,0.1657341999622682,,,,,,,,,,,,,0.42857142857142855,1.5,0.6,2.25,2.5,1.375,2.6666666666666665,2.6666666666666665,2.5,1.5555555555555556,1.5,2.25,2.75,2.75,-0.00011384159147103702,-0.4854390121608431,,,1.5879999999999999,0.5980939989874358,,,,,,
5,240625_094308,TrueCHOICE,9.0,6,1.0,1472.0,,,,,,,,,,,6.0,6.0,,,B,,,,,,True,cue1.png,Hard,cue2.png,Easy,Right,Easy,Easy,0.0157097000628709,,,,,,,,,,,,,26,22,Female,1.0,1.0,0.370366244447521,,,,,,,,,,,,,0.42857142857142855,1.5,0.6,2.25,2.5,1.375,2.6666666666666665,2.6666666666666665,2.5,1.5555555555555556,1.5,2.25,2.75,2.75,0.0016566690266740219,1.2360650345087862,0.00047368946525255936,0.2641415274765887,,,,,,,,
6,240625_094326,TrueCHOICE,9.0,7,1.0,1472.0,,,,,,,,,,,7.0,7.0,,,B,,,,,,True,cue2.png,Easy,cue1.png,Hard,Left,Easy,Easy,0.0161373999435454,,,,,,,,,,,,,26,22,Female,,,,,,,,,,,,,,,,0.42857142857142855,1.5,0.6,2.25,2.5,1.375,2.6666666666666665,2.6666666666666665,2.5,1.5555555555555556,1.5,2.25,2.75,2.75,0.001757245787618298,1.3338578967441426,-0.0003254357789699803,-0.826165696936047,,,,,,,,
7,240625_094344,TrueCHOICE,9.0,8,1.0,1472.0,,,,,,,,,,,8.0,8.0,,,B,,,,,,True,cue1.png,Hard,cue2.png,Easy,Right,Easy,Easy,0.0164987000171095,,,,,,,,,,,,,26,22,Female,0.8194444444444444,0.8333333333333334,0.3879875777703192,,,,,,,,,,,,,0.42857142857142855,1.5,0.6,2.25,2.5,1.375,2.6666666666666665,2.6666666666666665,2.5,1.5555555555555556,1.5,2.25,2.75,2.75,-0.0004964465023139953,-0.8574536702722363,0.0011095029843004186,1.1316301698502127,,,,,,,,
8,240625_094400,TrueCHOICE,9.0,9,1.0,1472.0,,,,,,,,,,,9.0,9.0,,,B,,,,,,True,cue2.png,Easy,cue1.png,Hard,Left,Easy,Easy,0.0166798999998718,,,,,,,,,,,,,26,22,Female,1.0,1.0,0.3522993555654668,,,,,,,,,,,,,0.42857142857142855,1.5,0.6,2.25,2.5,1.375,2.6666666666666665,2.6666666666666665,2.5,1.5555555555555556,1.5,2.25,2.75,2.75,,,0.0013095852341276854,1.4046175695608047,1.7080000000000002,1.2152917375002725,,,,,,
9,240625_094417,TrueCHOICE,9.0,10,1.0,1472.0,,,,,,,,,,,10.0,10.0,,,B,,,,,,True,cue1.png,Hard,cue2.png,Easy,Right,Easy,Easy,0.0157456998713314,,,,,,,,,,,,,26,22,Female,0.8194444444444444,0.8333333333333334,0.3099668555272122,,,,,,,,,,,,,0.42857142857142855,1.5,0.6,2.25,2.5,1.375,2.6666666666666665,2.6666666666666665,2.5,1.5555555555555556,1.5,2.25,2.75,2.75,,,,,1.408,-0.32770260878181656,,,,,,
0,240625_094526,FalseCHOICE,9.0,1,2.0,1472.0,,,,,,,,,,,1.0,1.0,,,B,,,,,,False,cue2.png,Easy,cue1.png,Hard,Right,Hard,Mid,0.0166694000363349,,,,,,,,,,,,,26,22,Female,1.0,1.0,0.3622684555593878,,,,,,,,,,,,,0.42857142857142855,1.5,0.6,2.25,2.5,1.375,2.6666666666666665,2.6666666666666665,2.5,1.5555555555555556,1.5,2.25,2.75,2.75,,,,,1.466,-0.02939036850061269,,,,,,
1,240625_094543,FalseCHOICE,9.0,2,2.0,1472.0,,,,,,,,,,,2.0,2.0,,,B,,,,,,False,cue1.png,Hard,cue2.png,Easy,Right,Easy,Mid,0.0172824999317526,,,,,,,,,,,,,26,22,Female,,,,,,,,,,,,,,,,0.42857142857142855,1.5,0.6,2.25,2.5,1.375,2.6666666666666665,2.6666666666666665,2.5,1.5555555555555556,1.5,2.25,2.75,2.75,-0.0009615449531571538,-1.3096785013580412,-0.0005899369147086865,-1.187044672098229,1.0510000000000002,-2.1638658808574998,,,,,,
2,240625_094559,FalseCHOICE,9.0,3,2.0,1472.0,,,,,,,,,,,3.0,3.0,,,B,,,,,,False,cue1.png,Hard,cue2.png,Easy,Right,Easy,Mid,0.0166190001182258,,,,,,,,,,,,,26,22,Female,,,,,,,,,,,,,,,,0.42857142857142855,1.5,0.6,2.25,2.5,1.375,2.6666666666666665,2.6666666666666665,2.5,1.5555555555555556,1.5,2.25,2.75,2.75,0.0004704175835965,0.08264825253819198,0.0005768726815850674,0.40492222113984144,1.5890000000000002,0.6032373134750444,,,,,,
3,240625_094621,FalseCHOICE,9.0,4,2.0,1472.0,,,,,,,,,,,5.0,4.0,,,B,,,,,,False,cue1.png,Hard,cue2.png,Easy,Right,Easy,Mid,0.0165529001969844,,,,,,,,,,,,,26,22,Female,0.5,0.6666666666666667,0.2760492111297531,,,,,,,,,,,,,0.42857142857142855,1.5,0.6,2.25,2.5,1.375,2.6666666666666665,2.6666666666666665,2.5,1.5555555555555556,1.5,2.25,2.75,2.75,,,-0.0005936429658742158,-1.1921011189931718,1.4919999999999998,0.10433580817716723,,,,,,
4,240625_094636,FalseCHOICE,9.0,5,2.0,1472.0,,,,,,,,,,,6.0,5.0,,,B,,,,,,False,cue2.png,Easy,cue1.png,Hard,Left,Easy,Mid,0.0134825999848544,,,,,,,,,,,,,26,22,Female,,,,,,,,,,,,,,,,0.42857142857142855,1.5,0.6,2.25,2.5,1.375,2.6666666666666665,2.6666666666666665,2.5,1.5555555555555556,1.5,2.25,2.75,2.75,-0.00011384159147103702,-0.4854390121608431,,,1.5879999999999999,0.5980939989874358,,,,,,
5,240625_094653,FalseCHOICE,9.0,6,2.0,1472.0,,,,,,,,,,,7.0,6.0,,,B,,,,,,False,cue1.png,Hard,cue2.png,Easy,Right,Easy,Mid,0.0171155999414622,,,,,,,,,,,,,26,22,Female,0.5,0.6666666666666667,0.2885732444054965,,,,,,,,,,,,,0.42857142857142855,1.5,0.6,2.25,2.5,1.375,2.6666666666666665,2.6666666666666665,2.5,1.5555555555555556,1.5,2.25,2.75,2.75,0.0016566690266740219,1.2360650345087862,0.00047368946525255936,0.2641415274765887,,,,,,,,
6,240625_094709,FalseCHOICE,9.0,7,2.0,1472.0,,,,,,,,,,,8.0,7.0,,,B,,,,,,False,cue1.png,Hard,cue2.png,Easy,Right,Easy,Mid,0.017054800176993,,,,,,,,,,,,,26,22,Female,1.0,1.0,0.5149175444514387,,,,,,,,,,,,,0.42857142857142855,1.5,0.6,2.25,2.5,1.375,2.6666666666666665,2.6666666666666665,2.5,1.5555555555555556,1.5,2.25,2.75,2.75,0.001757245787618298,1.3338578967441426,-0.0003254357789699803,-0.826165696936047,,,,,,,,
7,240625_094725,FalseCHOICE,9.0,8,2.0,1472.0,,,,,,,,,,,9.0,8.0,,,B,,,,,,False,cue2.png,Easy,cue1.png,Hard,Left,Easy,Mid,0.0162609999533742,,,,,,,,,,,,,26,22,Female,,,,,,,,,,,,,,,,0.42857142857142855,1.5,0.6,2.25,2.5,1.375,2.6666666666666665,2.6666666666666665,2.5,1.5555555555555556,1.5,2.25,2.75,2.75,-0.0004964465023139953,-0.8574536702722363,0.0011095029843004186,1.1316301698502127,,,,,,,,
8,240625_094741,FalseCHOICE,9.0,9,2.0,1472.0,,,,,,,,,,,10.0,9.0,,,B,,,,,,False,cue2.png,Easy,cue1.png,Hard,Left,Easy,Mid,0.0134584000334143,,,,,,,,,,,,,26,22,Female,0.8194444444444444,0.8333333333333334,0.3134000555405186,,,,,,,,,,,,,0.42857142857142855,1.5,0.6,2.25,2.5,1.375,2.6666666666666665,2.6666666666666665,2.5,1.5555555555555556,1.5,2.25,2.75,2.75,,,0.0013095852341276854,1.4046175695608047,1.7080000000000002,1.2152917375002725,,,,,,
9,240625_094758,FalseCHOICE,9.0,10,2.0,1472.0,,,,,,,,,,,11.0,10.0,,,B,,,,,,False,cue1.png,Hard,cue2.png,Easy,Right,Easy,Mid,0.015665499959141,,,,,,,,,,,,,26,22,Female,,,,,,,,,,,,,,,,0.42857142857142855,1.5,0.6,2.25,2.5,1.375,2.6666666666666665,2.6666666666666665,2.5,1.5555555555555556,1.5,2.25,2.75,2.75,,,,,1.408,-0.32770260878181656,,,,,,
0,240625_092356,OFFLINERATING,9.0,1,1.0,,,,,,,,,,,,,,,,,T0,cue2.png,Easy,25.0,1.1517763999290764,,,,,,,,,,,,,,,,,,,,,,26,22,Female,,,,,,,,,,,,,,,,0.42857142857142855,1.5,0.6,2.25,2.5,1.375,2.6666666666666665,2.6666666666666665,2.5,1.5555555555555556,1.5,2.25,2.75,2.75,,,,,,,,,,,1.4680000000000002,0.17333631036198532
1,240625_092404,OFFLINERATING,9.0,2,3.0,,,,,,,,,,,,,,,,,T0,cue1.png,Hard,53.0,1.3862091000191867,,,,,,,,,,,,,,,,,,,,,,26,22,Female,,,,,,,,,,,,,,,,0.42857142857142855,1.5,0.6,2.25,2.5,1.375,2.6666666666666665,2.6666666666666665,2.5,1.5555555555555556,1.5,2.25,2.75,2.75,,,,,,,,,,,1.0879999999999999,-1.6820946174564462
2,240625_094044,OFFLINERATING,9.0,3,1.0,,,,,,,,,,,,,,,,,T1,cue2.png,Easy,49.0,1.695853499928489,,,,,,,,,,,,,,,,,,,,,,26,22,Female,,,,,,,,,,,,,,,,0.42857142857142855,1.5,0.6,2.25,2.5,1.375,2.6666666666666665,2.6666666666666665,2.5,1.5555555555555556,1.5,2.25,2.75,2.75,,,,,,,-0.0003794244498173012,-0.949156349590043,7.701079067501523e-05,0.23523431604078854,1.594,0.7885581443228326
3,240625_094052,OFFLINERATING,9.0,4,3.0,,,,,,,,,,,,,,,,,T1,cue1.png,Hard,44.0,1.1849086000584066,,,,,,,,,,,,,,,,,,,,,,26,22,Female,,,,,,,,,,,,,,,,0.42857142857142855,1.5,0.6,2.25,2.5,1.375,2.6666666666666665,2.6666666666666665,2.5,1.5555555555555556,1.5,2.25,2.75,2.75,,,,,,,0.0010315547010219684,1.3825025483111633,4.611129554369948e-05,-0.10381266172413023,1.5799999999999998,0.7202001627716261
4,240625_094431,OFFLINERATING,9.0,5,1.0,,,,,,,,,,,,,,,,,T2,cue2.png,Easy,61.0,0.7194280000403523,,,,,,,,,,,,,,,,,,,,,,26,22,Female,,,,,,,,,,,,,,,,0.42857142857142855,1.5,0.6,2.25,2.5,1.375,2.6666666666666665,2.6666666666666665,2.5,1.5555555555555556,1.5,2.25,2.75,2.75,,,,,,,,,0.00017726005289827327,1.335226702178884,,
5,240625_094438,OFFLINERATING,9.0,6,3.0,,,,,,,,,,,,,,,,,T2,cue1.png,Hard,42.0,0.8181229999754578,,,,,,,,,,,,,,,,,,,,,,26,22,Female,,,,,,,,,,,,,,,,0.42857142857142855,1.5,0.6,2.25,2.5,1.375,2.6666666666666665,2.6666666666666665,2.5,1.5555555555555556,1.5,2.25,2.75,2.75,,,,,,,,,-7.809253955012212e-05,-1.4666483564955424,,
6,240625_095911,OFFLINERATING,9.0,7,1.0,,,,,,,,,,,,,,,,,T3,cue2.png,Easy,0.0,1.1950344000943005,,,,,,,,,,,,,,,,,,,,,,26,22,Female,,,,,,,,,,,,,,,,0.42857142857142855,1.5,0.6,2.25,2.5,1.375,2.6666666666666665,2.6666666666666665,2.5,1.5555555555555556,1.5,2.25,2.75,2.75,,,,,,,-6.728729745662798e-05,-0.4333461987211203,,,,
7,240625_095918,OFFLINERATING,9.0,8,3.0,,,,,,,,,,,,,,,,,T3,cue1.png,Hard,0.0,0.7349044000729918,,,,,,,,,,,,,,,,,,,,,,26,22,Female,,,,,,,,,,,,,,,,0.42857142857142855,1.5,0.6,2.25,2.5,1.375,2.6666666666666665,2.6666666666666665,2.5,1.5555555555555556,1.5,2.25,2.75,2.75,,,,,,,,,,,,
