,END,Phase,Block,TrialN,NbackLevel,ISI,Letter_Resp,Letter_RT,Letter_Accuracy,Trial_A_measure,Trial_ACC,Trial_RT,TrialCountCali,CaliEnd_A_measure,ISI_calibrated,TrialIndex,TrialNumber_total,TrialNumber_valid,CueLearning,TrialDemandLearning,CueMapping,OfflineRatingTimePoint,CueFigure,TrialDemand,OfflineRating,OfflineRatingRT,PhaseType,CueLeft,CueDemandLeft,CueRight,CueDemandRight,Choice,ChoiceDemand,TaskDemand,ChoiceRT,CueCheck,CueDemandCheck,CorrectAnswer,Answer,AnswerDemand,AnswerRT,AnswerACC,DemandRatingQuesIndex,QuesTLX,DemandLevel,DemandRating,DemandRatingRT,PID,Age,Gender,Task_A_measure,Task_ACC,Task_RT,cue_i_on_zyg_values,cue_i_on_zyg_zvalues,cue_e_on_zyg_values,cue_e_on_zyg_zvalues,cue_i_on_cor_values,cue_i_on_cor_zvalues,cue_e_on_cor_values,cue_e_on_cor_zvalues,cue_i_on_scr_values,cue_i_on_scr_zvalues,cue_e_on_scr_values,cue_e_on_scr_zvalues,BAI_bis,BAI_bas_d,BAI_bas_rr,BAI_bas_fs,NFC,BFI_ext,BFI_agr,BFI_con,BFI_neu,BFI_open,UPPS_lps,UPPS_lpm,UPPS_pu,UPPS_ss,cue_e_true_zyg_values,cue_e_true_zyg_zvalues,cue_e_true_cor_values,cue_e_true_cor_zvalues,cue_e_true_scr_values,cue_e_true_scr_zvalues,cue_i_off_zyg_values,cue_i_off_zyg_zvalues,cue_i_off_cor_values,cue_i_off_cor_zvalues,cue_i_off_scr_values,cue_i_off_scr_zvalues
0,240626_093112,LEARNING,1.0,1,1.0,426.0,,,,,,,,,,1.0,1.0,1.0,cue2.png,Easy,B,,,,,,,,,,,,,,,,,,,,,,,,,,,28,21,Male,0.8458333333333333,0.7990196078431372,0.4339681400296589,-9.974536110325151e-05,-0.16562118793625039,0.0001391048713001576,0.9658133620628114,,,,,1.597,0.38067333765996053,,,2.0,1.0,1.0,0.0,2.1666666666666665,1.0,2.2222222222222223,1.5555555555555556,1.375,3.0,1.5,2.0,0.75,0.5,,,,,,,,,,,,
1,240626_093145,LEARNING,1.0,2,3.0,426.0,,,,,,,,,,2.0,2.0,2.0,cue1.png,Hard,B,,,,,,,,,,,,,,,,,,,,,,,,,,,28,21,Male,0.9,0.5294117647058824,0.6918550111456878,-0.00031404406185305466,-0.7729013766132262,0.00014377110580945148,0.9924608802678154,,,,,1.579,0.3392897427532957,1.094,-0.8419899986935987,2.0,1.0,1.0,0.0,2.1666666666666665,1.0,2.2222222222222223,1.5555555555555556,1.375,3.0,1.5,2.0,0.75,0.5,,,,,,,,,,,,
2,240626_093213,LEARNING,1.0,3,1.0,426.0,,,,,,,,,,3.0,3.0,3.0,cue2.png,Easy,B,,,,,,,,,,,,,,,,,,,,,,,,,,,28,21,Male,1.0,0.9411764705882352,0.4433228999987477,2.6649634048740278e-05,0.1925572622137677,3.966168166250148e-05,0.39792201392006743,,,,,1.4769999999999999,0.10478270494886173,1.588,0.09918669896843103,2.0,1.0,1.0,0.0,2.1666666666666665,1.0,2.2222222222222223,1.5555555555555556,1.375,3.0,1.5,2.0,0.75,0.5,,,,,,,,,,,,
3,240626_093245,LEARNING,1.0,4,3.0,426.0,,,,,,,,,,4.0,4.0,4.0,cue1.png,Hard,B,,,,,,,,,,,,,,,,,,,,,,,,,,,28,21,Male,0.85,0.5882352941176471,0.6284587900387123,7.925620777552529e-05,0.341633901067261,-0.00014620014211428993,-0.6634812059229822,,,,,1.453,0.04960457840664249,1.592,0.10680756291711145,2.0,1.0,1.0,0.0,2.1666666666666665,1.0,2.2222222222222223,1.5555555555555556,1.375,3.0,1.5,2.0,0.75,0.5,,,,,,,,,,,,
4,240626_093318,LEARNING,1.0,5,3.0,426.0,,,,,,,,,,5.0,5.0,5.0,cue1.png,Hard,B,,,,,,,,,,,,,,,,,,,,,,,,,,,28,21,Male,0.9,0.6470588235294117,0.7484237454746935,-0.0002843518536311375,-0.6887595234514848,-0.00017773523742657367,-0.8435690315041654,-0.0002553973343709971,-0.21604878766125543,8.425508066287665e-05,0.29541782949874235,1.4580000000000002,0.061100021436271856,1.5310000000000001,-0.009410612300264593,2.0,1.0,1.0,0.0,2.1666666666666665,1.0,2.2222222222222223,1.5555555555555556,1.375,3.0,1.5,2.0,0.75,0.5,,,,,,,,,,,,
5,240626_093344,LEARNING,1.0,6,1.0,426.0,,,,,,,,,,6.0,6.0,6.0,cue2.png,Easy,B,,,,,,,,,,,,,,,,,,,,,,,,,,,28,21,Male,1.0,1.0,0.3954585117753595,-0.00014261211929092292,-0.28709711340428334,0.00019123405968157845,1.2635081079310808,-0.00021289523772663292,-0.08120608079152475,-1.3660031005040957e-05,0.030607833221806567,1.9460000000000002,1.1830552611280727,0.052999999999999936,-2.825319841337674,2.0,1.0,1.0,0.0,2.1666666666666665,1.0,2.2222222222222223,1.5555555555555556,1.375,3.0,1.5,2.0,0.75,0.5,,,,,,,,,,,,
6,240626_093414,LEARNING,1.0,7,3.0,426.0,,,,,,,,,,7.0,7.0,7.0,cue1.png,Hard,B,,,,,,,,,,,,,,,,,,,,,,,,,,,28,21,Male,0.8458333333333333,0.7990196078431372,0.5710041666403413,3.921780261436324e-05,0.22817296940728207,8.645570802495728e-05,0.665149189685751,0.00021330843283251608,1.2709732504281552,0.0003154892936365599,0.9207873974193252,,,,,2.0,1.0,1.0,0.0,2.1666666666666665,1.0,2.2222222222222223,1.5555555555555556,1.375,3.0,1.5,2.0,0.75,0.5,,,,,,,,,,,,
7,240626_093443,LEARNING,1.0,8,3.0,426.0,,,,,,,,,,8.0,8.0,8.0,cue1.png,Hard,B,,,,,,,,,,,,,,,,,,,,,,,,,,,28,21,Male,0.9125,0.9166666666666666,0.5625040352700607,0.00021240467683689016,0.7189503622997513,1.857728059087918e-06,0.18203454837120706,-0.00018105545322943516,0.01980923531571803,-0.00022662051608231433,-0.5453407032176919,,,,,2.0,1.0,1.0,0.0,2.1666666666666665,1.0,2.2222222222222223,1.5555555555555556,1.375,3.0,1.5,2.0,0.75,0.5,,,,,,,,,,,,
8,240626_093510,LEARNING,1.0,9,1.0,426.0,,,,,,,,,,9.0,9.0,9.0,cue2.png,Easy,B,,,,,,,,,,,,,,,,,,,,,,,,,,,28,21,Male,1.0,1.0,0.4248448353096404,-7.705861436732835e-05,-0.10133142887539974,5.982649412894633e-05,0.51307743661257,0.00015904916913021035,1.098829601807762,-0.0008178547740638276,-2.144325160140705,,,,,2.0,1.0,1.0,0.0,2.1666666666666665,1.0,2.2222222222222223,1.5555555555555556,1.375,3.0,1.5,2.0,0.75,0.5,,,,,,,,,,,,
9,240626_093536,LEARNING,1.0,10,1.0,426.0,,,,,,,,,,10.0,10.0,10.0,cue2.png,Easy,B,,,,,,,,,,,,,,,,,,,,,,,,,,,28,21,Male,1.0,1.0,0.4055089117712615,-7.488082218081761e-05,-0.09515999598618423,0.00014489892594663194,0.9989015354851277,-0.0003748952834945326,-0.5951695416331783,-0.00022050132642798329,-0.528791443742025,,,,,2.0,1.0,1.0,0.0,2.1666666666666665,1.0,2.2222222222222223,1.5555555555555556,1.375,3.0,1.5,2.0,0.75,0.5,,,,,,,,,,,,
10,240626_093605,LEARNING,1.0,11,3.0,426.0,,,,,,,,,,11.0,11.0,11.0,cue1.png,Hard,B,,,,,,,,,,,,,,,,,,,,,,,,,,,28,21,Male,0.9125,0.9166666666666666,0.5604242764632491,-0.00027382961535713565,-0.6589415785830262,-0.00013311122770856988,-0.5887341943410582,-2.130001322299402e-05,0.5266514306051555,0.000489605211448035,1.3916813663072696,1.3330000000000002,-0.2262860543044558,,,2.0,1.0,1.0,0.0,2.1666666666666665,1.0,2.2222222222222223,1.5555555555555556,1.375,3.0,1.5,2.0,0.75,0.5,,,,,,,,,,,,
11,240626_093632,LEARNING,1.0,12,1.0,426.0,,,,,,,,,,12.0,12.0,12.0,cue2.png,Easy,B,,,,,,,,,,,,,,,,,,,,,,,,,,,28,21,Male,0.95,0.9411764705882352,0.4298922562011285,4.88299399874193e-05,0.2554118680897038,0.0001962509344164646,1.292158031239443,-0.00013637029498438265,0.1615779519294695,0.0002669683359721011,0.7895631726841693,2.2039999999999997,1.7762201214569335,2.227,1.316619714770125,2.0,1.0,1.0,0.0,2.1666666666666665,1.0,2.2222222222222223,1.5555555555555556,1.375,3.0,1.5,2.0,0.75,0.5,,,,,,,,,,,,
12,240626_093658,LEARNING,1.0,13,1.0,426.0,,,,,,,,,,13.0,13.0,13.0,cue2.png,Easy,B,,,,,,,,,,,,,,,,,,,,,,,,,,,28,21,Male,1.0,1.0,0.4032451529466711,,,-0.00013329251190150526,-0.5897694560326648,-0.00042311092878053857,-0.7481391275394282,0.0003623523460339574,1.047527841457922,,,0.5319999999999999,-1.912721383483196,2.0,1.0,1.0,0.0,2.1666666666666665,1.0,2.2222222222222223,1.5555555555555556,1.375,3.0,1.5,2.0,0.75,0.5,,,,,,,,,,,,
13,240626_093724,LEARNING,1.0,14,1.0,426.0,,,,,,,,,,14.0,14.0,14.0,cue2.png,Easy,B,,,,,,,,,,,,,,,,,,,,,,,,,,,28,21,Male,1.0,1.0,0.4051425705718643,,,8.50516589456043e-05,0.6571310707231789,-5.562987272377147e-05,0.4177360700224395,0.00030764605076695657,0.8995754610826454,,,,,2.0,1.0,1.0,0.0,2.1666666666666665,1.0,2.2222222222222223,1.5555555555555556,1.375,3.0,1.5,2.0,0.75,0.5,,,,,,,,,,,,
14,240626_093755,LEARNING,1.0,15,3.0,426.0,,,,,,,,,,15.0,15.0,15.0,cue1.png,Hard,B,,,,,,,,,,,,,,,,,,,,,,,,,,,28,21,Male,0.95,0.8235294117647058,0.5945127428276464,9.883758118836225e-05,0.3971236455178599,6.994655325016225e-06,0.2113700570268404,-0.00036573661445239193,-0.5661126286225112,0.0003683264825333236,1.0636848067843827,,,,,2.0,1.0,1.0,0.0,2.1666666666666665,1.0,2.2222222222222223,1.5555555555555556,1.375,3.0,1.5,2.0,0.75,0.5,,,,,,,,,,,,
15,240626_093821,LEARNING,1.0,16,1.0,426.0,,,,,,,,,,16.0,16.0,16.0,cue2.png,Easy,B,,,,,,,,,,,,,,,,,,,,,,,,,,,28,21,Male,1.0,1.0,0.3912239882355446,1.75714535855377e-05,0.16683149194428853,,,-0.000419664857785787,-0.7372060776975404,-0.0005613048067375391,-1.450489502546471,,,,,2.0,1.0,1.0,0.0,2.1666666666666665,1.0,2.2222222222222223,1.5555555555555556,1.375,3.0,1.5,2.0,0.75,0.5,,,,,,,,,,,,
16,240626_093847,LEARNING,1.0,17,1.0,426.0,,,,,,,,,,17.0,17.0,17.0,cue2.png,Easy,B,,,,,,,,,,,,,,,,,,,,,,,,,,,28,21,Male,0.9125,0.9166666666666666,0.4298835294321179,6.660236845089287e-05,0.30577541986478934,-6.916119814770558e-06,0.13192963605252495,-0.0004842784390399974,-0.942199969405241,0.0002754602927021975,0.8125295462272794,,,,,2.0,1.0,1.0,0.0,2.1666666666666665,1.0,2.2222222222222223,1.5555555555555556,1.375,3.0,1.5,2.0,0.75,0.5,,,,,,,,,,,,
17,240626_093916,LEARNING,1.0,18,3.0,426.0,,,,,,,,,,18.0,18.0,18.0,cue1.png,Hard,B,,,,,,,,,,,,,,,,,,,,,,,,,,,28,21,Male,0.63125,0.75,0.5622628117664991,0.0005186045943028051,1.586660446406484,-0.0004266417924045983,-2.2650025110927037,-0.0001652430656771493,0.06997582256585996,0.00026833594587977357,0.7932618538008015,,,,,2.0,1.0,1.0,0.0,2.1666666666666665,1.0,2.2222222222222223,1.5555555555555556,1.375,3.0,1.5,2.0,0.75,0.5,,,,,,,,,,,,
18,240626_093945,LEARNING,1.0,19,3.0,426.0,,,,,,,,,,19.0,19.0,19.0,cue1.png,Hard,B,,,,,,,,,,,,,,,,,,,,,,,,,,,28,21,Male,0.0666666666666666,0.5490196078431373,0.4572554799883316,,,,,-0.00047259574736922307,-0.9051353092405158,-0.00042848006410516493,-1.0912669167493425,,,,,2.0,1.0,1.0,0.0,2.1666666666666665,1.0,2.2222222222222223,1.5555555555555556,1.375,3.0,1.5,2.0,0.75,0.5,,,,,,,,,,,,
19,240626_094014,LEARNING,1.0,20,3.0,426.0,,,,,,,,,,20.0,20.0,20.0,cue1.png,Hard,B,,,,,,,,,,,,,,,,,,,,,,,,,,,28,21,Male,0.0374999999999999,0.4558823529411764,0.4715360666741617,-0.0001508668405186815,-0.3104893628539043,-8.998930200783883e-05,-0.3424773253696478,-0.0007356026437156903,-1.7395544233259603,-0.00013184018485764854,-0.28900867508444683,2.024,1.3623841723902863,1.5819999999999999,0.08775540304541,2.0,1.0,1.0,0.0,2.1666666666666665,1.0,2.2222222222222223,1.5555555555555556,1.375,3.0,1.5,2.0,0.75,0.5,,,,,,,,,,,,
20,240626_094041,LEARNING,1.0,21,1.0,426.0,,,,,,,,,,21.0,21.0,21.0,cue2.png,Easy,B,,,,,,,,,,,,,,,,,,,,,,,,,,,28,21,Male,1.0,1.0,0.435005270602072,-5.044015880590431e-05,-0.025899983611977456,-8.610338427390623e-05,-0.3202859710020367,0.00012340153456928075,0.9857334508597334,0.00014956697372986005,0.4720528949681553,0.7130000000000001,-1.6517209899784653,2.037,0.954628677207806,2.0,1.0,1.0,0.0,2.1666666666666665,1.0,2.2222222222222223,1.5555555555555556,1.375,3.0,1.5,2.0,0.75,0.5,,,,,,,,,,,,
21,240626_094108,LEARNING,1.0,22,3.0,426.0,,,,,,,,,,22.0,22.0,22.0,cue1.png,Hard,B,,,,,,,,,,,,,,,,,,,,,,,,,,,28,21,Male,0.7916666666666667,0.8333333333333334,0.4690595764858538,,,-6.670960285382315e-06,0.13332967135068488,-0.0004255880370952012,-0.755998033728305,6.114115939580365e-05,0.23290656540053167,0.8960000000000001,-1.23098777509404,1.5780000000000003,0.08013453909673043,2.0,1.0,1.0,0.0,2.1666666666666665,1.0,2.2222222222222223,1.5555555555555556,1.375,3.0,1.5,2.0,0.75,0.5,,,,,,,,,,,,
22,240626_094136,LEARNING,1.0,23,3.0,426.0,,,,,,,,,,23.0,23.0,23.0,cue1.png,Hard,B,,,,,,,,,,,,,,,,,,,,,,,,,,,28,21,Male,0.7916666666666667,0.8333333333333334,0.4721705941072501,0.00046351954190070824,1.430560288547467,-0.0007310712475749191,-4.003511244983607,-0.0005442743713540213,-1.1325438477811531,-4.929590252657386e-06,0.05421918333674711,2.042,1.4037677672969506,1.3479999999999999,-0.35806513795239353,2.0,1.0,1.0,0.0,2.1666666666666665,1.0,2.2222222222222223,1.5555555555555556,1.375,3.0,1.5,2.0,0.75,0.5,,,,,,,,,,,,
23,240626_094203,LEARNING,1.0,24,3.0,426.0,,,,,,,,,,24.0,24.0,24.0,cue1.png,Hard,B,,,,,,,,,,,,,,,,,,,,,,,,,,,28,21,Male,0.9125,0.9166666666666666,0.468531294095823,-5.7348070158445494e-05,-0.04547563990320621,2.15474100811611e-05,0.2944766382595121,-4.035403187345812e-06,0.5814253578713018,-0.0002730602320188801,-0.6709362399513067,,,1.1669999999999998,-0.7029092316301819,2.0,1.0,1.0,0.0,2.1666666666666665,1.0,2.2222222222222223,1.5555555555555556,1.375,3.0,1.5,2.0,0.75,0.5,,,,,,,,,,,,
24,240626_094229,LEARNING,1.0,25,1.0,426.0,,,,,,,,,,25.0,25.0,25.0,cue2.png,Easy,B,,,,,,,,,,,,,,,,,,,,,,,,,,,28,21,Male,1.0,1.0,0.4031845235457534,,,,,0.00019044267365564502,1.1984290442483991,0.0001565396767086169,0.4909104688236297,,,1.7860000000000003,0.47641946442811134,2.0,1.0,1.0,0.0,2.1666666666666665,1.0,2.2222222222222223,1.5555555555555556,1.375,3.0,1.5,2.0,0.75,0.5,,,,,,,,,,,,
25,240626_094255,LEARNING,1.0,26,1.0,426.0,,,,,,,,,,26.0,26.0,26.0,cue2.png,Easy,B,,,,,,,,,,,,,,,,,,,,,,,,,,,28,21,Male,1.0,1.0,0.367211564690532,-4.125815134318773e-06,0.10534571813480087,6.086093294486398e-05,0.5189848180620504,-1.6921518019735217e-05,0.5405427016679406,0.000478053750000945,1.3604406067279762,0.8460000000000001,-1.345942205390331,0.3880000000000001,-2.18707248563569,2.0,1.0,1.0,0.0,2.1666666666666665,1.0,2.2222222222222223,1.5555555555555556,1.375,3.0,1.5,2.0,0.75,0.5,,,,,,,,,,,,
26,240626_094322,LEARNING,1.0,27,3.0,426.0,,,,,,,,,,27.0,27.0,27.0,cue1.png,Hard,B,,,,,,,,,,,,,,,,,,,,,,,,,,,28,21,Male,0.63125,0.75,0.4575211000217892,,,,,-0.0005220647527227739,-1.0620813216653053,-0.00011134887926657518,-0.2335902369613798,1.9329999999999998,1.153167109251036,,,2.0,1.0,1.0,0.0,2.1666666666666665,1.0,2.2222222222222223,1.5555555555555556,1.375,3.0,1.5,2.0,0.75,0.5,,,,,,,,,,,,
27,240626_094347,LEARNING,1.0,28,1.0,426.0,,,,,,,,,,28.0,28.0,28.0,cue2.png,Easy,B,,,,,,,,,,,,,,,,,,,,,,,,,,,28,21,Male,1.0,1.0,0.3500388764694114,-0.001336653730009497,-3.6707751856849047,4.522270715740483e-06,0.19725098226661866,,,-0.00039307051773628063,-0.9955023132843128,0.8620000000000001,-1.309156787695518,2.198,1.2613684511421923,2.0,1.0,1.0,0.0,2.1666666666666665,1.0,2.2222222222222223,1.5555555555555556,1.375,3.0,1.5,2.0,0.75,0.5,,,,,,,,,,,,
28,240626_094412,LEARNING,1.0,29,1.0,426.0,,,,,,,,,,29.0,29.0,29.0,cue2.png,Easy,B,,,,,,,,,,,,,,,,,,,,,,,,,,,28,21,Male,1.0,1.0,0.3518109882442171,3.7291061524230215e-05,0.22271296573645374,-0.00018337354443900356,-0.8757677751506485,-8.240360668263988e-05,0.33279337201315046,4.549234156289456e-05,0.19058456503223825,1.1809999999999998,-0.5757475224051815,1.9380000000000002,0.7660122944779665,2.0,1.0,1.0,0.0,2.1666666666666665,1.0,2.2222222222222223,1.5555555555555556,1.375,3.0,1.5,2.0,0.75,0.5,,,,,,,,,,,,
29,240626_094440,LEARNING,1.0,30,3.0,426.0,,,,,,,,,,30.0,30.0,30.0,cue1.png,Hard,B,,,,,,,,,,,,,,,,,,,,,,,,,,,28,21,Male,0.63125,0.75,0.4661807117791956,,,-4.446071026650107e-05,-0.08247668141163979,,,-0.00012839043930879413,-0.2796788883907772,1.663,0.5324131856510649,1.589,0.10109191495560092,2.0,1.0,1.0,0.0,2.1666666666666665,1.0,2.2222222222222223,1.5555555555555556,1.375,3.0,1.5,2.0,0.75,0.5,,,,,,,,,,,,
30,240626_094507,LEARNING,1.0,31,3.0,426.0,,,,,,,,,,31.0,31.0,31.0,cue1.png,Hard,B,,,,,,,,,,,,,,,,,,,,,,,,,,,28,21,Male,0.7041666666666667,0.7745098039215687,0.4487521187402308,7.86204437886683e-05,0.3398322715074845,,,3.929553744592366e-05,0.7188976660045153,-0.00041095338055916787,-1.04386625585541,,,2.0940000000000003,1.0632259884765025,2.0,1.0,1.0,0.0,2.1666666666666665,1.0,2.2222222222222223,1.5555555555555556,1.375,3.0,1.5,2.0,0.75,0.5,,,,,,,,,,,,
31,240626_094533,LEARNING,1.0,32,1.0,426.0,,,,,,,,,,32.0,32.0,32.0,cue2.png,Easy,B,,,,,,,,,,,,,,,,,,,,,,,,,,,28,21,Male,1.0,1.0,0.3664334529243848,3.222301896764566e-05,0.2083511341937656,,,,,,,1.1860000000000002,-0.5642520793755516,,,2.0,1.0,1.0,0.0,2.1666666666666665,1.0,2.2222222222222223,1.5555555555555556,1.375,3.0,1.5,2.0,0.75,0.5,,,,,,,,,,,,
32,240626_094558,LEARNING,1.0,33,1.0,426.0,,,,,,,,,,33.0,33.0,33.0,cue2.png,Easy,B,,,,,,,,,,,,,,,,,,,,,,,,,,,28,21,Male,1.0,1.0,0.3372786764247233,-0.0001134802313734651,-0.2045430973083806,,,,,,,1.6349999999999998,0.4680387046851413,1.5190000000000001,-0.03227320414630582,2.0,1.0,1.0,0.0,2.1666666666666665,1.0,2.2222222222222223,1.5555555555555556,1.375,3.0,1.5,2.0,0.75,0.5,,,,,,,,,,,,
33,240626_094623,LEARNING,1.0,34,1.0,426.0,,,,,,,,,,34.0,34.0,34.0,cue2.png,Easy,B,,,,,,,,,,,,,,,,,,,,,,,,,,,28,21,Male,1.0,1.0,0.3746336823301938,,,,,-0.0005816397998972093,-1.2510898943508129,0.0002008085003666867,0.6106348589446986,0.9189999999999998,-1.1781087371577468,1.5770000000000002,0.07822932310956011,2.0,1.0,1.0,0.0,2.1666666666666665,1.0,2.2222222222222223,1.5555555555555556,1.375,3.0,1.5,2.0,0.75,0.5,,,,,,,,,,,,
34,240626_094651,LEARNING,1.0,35,3.0,426.0,,,,,,,,,,35.0,35.0,35.0,cue1.png,Hard,B,,,,,,,,,,,,,,,,,,,,,,,,,,,28,21,Male,0.7916666666666667,0.8333333333333334,0.4797086117460447,-0.0001297092542487813,-0.2505329425070759,,,-9.670100319285682e-06,0.5635486441642232,0.00036099169015467013,1.0438479674099788,,,0.403,-2.1584942458281384,2.0,1.0,1.0,0.0,2.1666666666666665,1.0,2.2222222222222223,1.5555555555555556,1.375,3.0,1.5,2.0,0.75,0.5,,,,,,,,,,,,
35,240626_094718,LEARNING,1.0,36,3.0,426.0,,,,,,,,,,36.0,36.0,36.0,cue1.png,Hard,B,,,,,,,,,,,,,,,,,,,,,,,,,,,28,21,Male,0.9125,0.9166666666666666,0.459466917645734,0.0003038182337806528,0.9779983262594331,,,-0.0002581321242474564,-0.22472521773827855,0.0010460403497435447,2.8965521098563474,1.056,-0.8631335981459086,1.826,0.552628103914915,2.0,1.0,1.0,0.0,2.1666666666666665,1.0,2.2222222222222223,1.5555555555555556,1.375,3.0,1.5,2.0,0.75,0.5,,,,,,,,,,,,
36,240626_094744,LEARNING,1.0,37,1.0,426.0,,,,,,,,,,37.0,37.0,37.0,cue2.png,Easy,B,,,,,,,,,,,,,,,,,,,,,,,,,,,28,21,Male,1.0,1.0,0.3972402235410888,4.4159974274400084e-05,0.24217810769174242,,,1.2563500304644225e-05,0.6340872558632483,0.0002403225613411249,0.7175000624999542,1.649,0.5002259451681034,1.896,0.6859932230168218,2.0,1.0,1.0,0.0,2.1666666666666665,1.0,2.2222222222222223,1.5555555555555556,1.375,3.0,1.5,2.0,0.75,0.5,,,,,,,,,,,,
37,240626_094811,LEARNING,1.0,38,3.0,426.0,,,,,,,,,,38.0,38.0,38.0,cue1.png,Hard,B,,,,,,,,,,,,,,,,,,,,,,,,,,,28,21,Male,0.0666666666666666,0.6666666666666667,0.4367804882417926,0.0004806653540086292,1.4791481333430114,-2.456234433054205e-06,0.15739875396008196,-0.0004708587340812977,-0.8996244381987314,-0.000250873116782715,-0.6109315092922503,1.017,-0.952798053777016,1.583,0.08966061903258031,2.0,1.0,1.0,0.0,2.1666666666666665,1.0,2.2222222222222223,1.5555555555555556,1.375,3.0,1.5,2.0,0.75,0.5,,,,,,,,,,,,
38,240626_094838,LEARNING,1.0,39,3.0,426.0,,,,,,,,,,39.0,39.0,39.0,cue1.png,Hard,B,,,,,,,,,,,,,,,,,,,,,,,,,,,28,21,Male,0.7916666666666667,0.8333333333333334,0.4357690881828175,,,,,-0.000503738339893367,-1.0039387049890747,-0.00031406745782241487,-0.7818396860832029,1.372,-0.13662159867334894,1.8970000000000002,0.6878984390039925,2.0,1.0,1.0,0.0,2.1666666666666665,1.0,2.2222222222222223,1.5555555555555556,1.375,3.0,1.5,2.0,0.75,0.5,,,,,,,,,,,,
39,240626_094904,LEARNING,1.0,40,3.0,426.0,,,,,,,,,,40.0,40.0,40.0,cue1.png,Hard,B,,,,,,,,,,,,,,,,,,,,,,,,,,,28,21,Male,0.95,0.9411764705882352,0.4088286687328946,,,-0.0001196189230571118,-0.5116835375189271,-0.00030468945256224237,-0.3724336055648577,,,2.021,1.3554869065725086,2.221,1.3051884188471048,2.0,1.0,1.0,0.0,2.1666666666666665,1.0,2.2222222222222223,1.5555555555555556,1.375,3.0,1.5,2.0,0.75,0.5,,,,,,,,,,,,
40,240626_094931,LEARNING,1.0,41,1.0,426.0,,,,,,,,,,41.0,41.0,41.0,cue2.png,Easy,B,,,,,,,,,,,,,,,,,,,,,,,,,,,28,21,Male,1.0,1.0,0.4355530999874806,-0.0010102576971107368,-2.745833299669492,-2.3662409378869594e-05,0.03629641077488571,6.8235231224195e-05,0.8107121164231785,,,1.871,1.0106236156836357,1.341,-0.37140164986258406,2.0,1.0,1.0,0.0,2.1666666666666665,1.0,2.2222222222222223,1.5555555555555556,1.375,3.0,1.5,2.0,0.75,0.5,,,,,,,,,,,,
41,240626_094957,LEARNING,1.0,42,3.0,426.0,,,,,,,,,,42.0,42.0,42.0,cue1.png,Hard,B,,,,,,,,,,,,,,,,,,,,,,,,,,,28,21,Male,0.7916666666666667,0.7745098039215687,0.3536071687412914,,,-0.00021839808031420133,-1.0757827884332491,0.00019545235810054361,1.214322834542222,-0.0005450675197499312,-1.4065759959028912,,,,,2.0,1.0,1.0,0.0,2.1666666666666665,1.0,2.2222222222222223,1.5555555555555556,1.375,3.0,1.5,2.0,0.75,0.5,,,,,,,,,,,,
42,240626_095024,LEARNING,1.0,43,3.0,426.0,,,,,,,,,,43.0,43.0,43.0,cue1.png,Hard,B,,,,,,,,,,,,,,,,,,,,,,,,,,,28,21,Male,0.7916666666666667,0.7745098039215687,0.4248614437528886,5.40005996792171e-06,0.13234016658064485,9.574349948760072e-05,0.7181890854715552,,,,,0.967,-1.0677524840733068,1.98,0.8460313659391103,2.0,1.0,1.0,0.0,2.1666666666666665,1.0,2.2222222222222223,1.5555555555555556,1.375,3.0,1.5,2.0,0.75,0.5,,,,,,,,,,,,
43,240626_095050,LEARNING,1.0,44,1.0,426.0,,,,,,,,,,44.0,44.0,44.0,cue2.png,Easy,B,,,,,,,,,,,,,,,,,,,,,,,,,,,28,21,Male,1.0,1.0,0.3668252941330566,-0.0005511697135856331,-1.444868635492855,-4.635909728612593e-05,-0.09331782164255623,0.0003654654425702215,1.7537085666153571,-0.0008107110632103792,-2.125005097973784,1.7109999999999999,0.6427694387355039,1.4399999999999997,-0.18278526713274454,2.0,1.0,1.0,0.0,2.1666666666666665,1.0,2.2222222222222223,1.5555555555555556,1.375,3.0,1.5,2.0,0.75,0.5,,,,,,,,,,,,
44,240626_095115,LEARNING,1.0,45,1.0,426.0,,,,,,,,,,45.0,45.0,45.0,cue2.png,Easy,B,,,,,,,,,,,,,,,,,,,,,,,,,,,28,21,Male,1.0,0.9411764705882352,0.3479969437466934,0.00011621429928521023,0.44636583227642873,-8.172249914396206e-05,-0.295268000726067,-0.0009483242705946348,-2.414437834798633,-0.00016457827026943733,-0.37754835122159164,1.8039999999999998,0.8565846790866052,1.63,0.17920577042957492,2.0,1.0,1.0,0.0,2.1666666666666665,1.0,2.2222222222222223,1.5555555555555556,1.375,3.0,1.5,2.0,0.75,0.5,,,,,,,,,,,,
45,240626_095141,LEARNING,1.0,46,1.0,426.0,,,,,,,,,,46.0,46.0,46.0,cue2.png,Easy,B,,,,,,,,,,,,,,,,,,,,,,,,,,,28,21,Male,1.0,1.0,0.3891296941266559,-3.7820453836056016e-05,0.009861767571408012,-1.9974822158999594e-05,0.057355156831970525,-1.866418056927638e-05,0.5350139077049775,0.00010063557671475317,0.3397186429750452,0.9510000000000001,-1.1045379017681198,1.87,0.6364576073503995,2.0,1.0,1.0,0.0,2.1666666666666665,1.0,2.2222222222222223,1.5555555555555556,1.375,3.0,1.5,2.0,0.75,0.5,,,,,,,,,,,,
46,240626_095207,LEARNING,1.0,47,3.0,426.0,,,,,,,,,,47.0,47.0,47.0,cue1.png,Hard,B,,,,,,,,,,,,,,,,,,,,,,,,,,,28,21,Male,0.7916666666666667,0.8333333333333334,0.3595927823608851,-3.7601530592502614e-05,0.010482152800929791,0.0002644861931631942,1.6818298953635167,0.00041567718094762986,1.9130109835313536,-0.0003293038874766039,-0.8230463886163483,1.504,0.16685809730885923,,,2.0,1.0,1.0,0.0,2.1666666666666665,1.0,2.2222222222222223,1.5555555555555556,1.375,3.0,1.5,2.0,0.75,0.5,,,,,,,,,,,,
47,240626_095234,LEARNING,1.0,48,3.0,426.0,,,,,,,,,,48.0,48.0,48.0,cue1.png,Hard,B,,,,,,,,,,,,,,,,,,,,,,,,,,,28,21,Male,0.7916666666666667,0.7745098039215687,0.4585835500183748,0.0005479911428505472,1.6699361204268937,2.4858238861881227e-05,0.3133838256355793,0.00031469894033170093,1.5926460986286612,-0.00011188365188558643,-0.23503652173639658,0.593,-1.927611622689564,1.511,-0.047514932043667066,2.0,1.0,1.0,0.0,2.1666666666666665,1.0,2.2222222222222223,1.5555555555555556,1.375,3.0,1.5,2.0,0.75,0.5,,,,,,,,,,,,
48,240626_095259,LEARNING,1.0,49,1.0,426.0,,,,,,,,,,49.0,49.0,49.0,cue2.png,Easy,B,,,,,,,,,,,,,,,,,,,,,,,,,,,28,21,Male,0.9125,0.9166666666666666,0.3411614882403656,,,,,,,-1.6190348766123748e-05,0.02376462561597441,,,,,2.0,1.0,1.0,0.0,2.1666666666666665,1.0,2.2222222222222223,1.5555555555555556,1.375,3.0,1.5,2.0,0.75,0.5,,,,,,,,,,,,
49,240626_095325,LEARNING,1.0,50,1.0,426.0,,,,,,,,,,50.0,50.0,50.0,cue2.png,Easy,B,,,,,,,,,,,,,,,,,,,,,,,,,,,28,21,Male,1.0,1.0,0.344110564684824,,,-4.3630632939450215e-08,0.17117643777708075,-0.0005947805841491566,-1.2927805180805167,-0.0003374175878442468,-0.8449897733252858,1.774,0.787612020908831,1.67,0.25541440991637904,2.0,1.0,1.0,0.0,2.1666666666666665,1.0,2.2222222222222223,1.5555555555555556,1.375,3.0,1.5,2.0,0.75,0.5,,,,,,,,,,,,
0,240626_095455,TrueCHOICE,9.0,1,1.0,426.0,,,,,,,,,,,1.0,1.0,,,B,,,,,,True,cue2.png,Easy,cue1.png,Hard,Left,Easy,Easy,0.0153129000682383,,,,,,,,,,,,,28,21,Male,0.7916666666666667,0.8333333333333334,0.4463497000362943,,,,,,,,,,,,,2.0,1.0,1.0,0.0,2.1666666666666665,1.0,2.2222222222222223,1.5555555555555556,1.375,3.0,1.5,2.0,0.75,0.5,,,0.0011092566260759193,2.3936949721880807,,,,,,,,
1,240626_095519,TrueCHOICE,9.0,2,1.0,426.0,,,,,,,,,,,2.0,2.0,,,B,,,,,,True,cue2.png,Easy,cue1.png,Hard,Left,Easy,Easy,0.0163317001424729,,,,,,,,,,,,,28,21,Male,,,,,,,,,,,,,,,,2.0,1.0,1.0,0.0,2.1666666666666665,1.0,2.2222222222222223,1.5555555555555556,1.375,3.0,1.5,2.0,0.75,0.5,-7.220359739649237e-05,-1.0800630641882165,-6.18993075332747e-05,-0.7788787444896852,1.4489999999999998,-0.856983740715525,,,,,,
2,240626_095546,TrueCHOICE,9.0,3,3.0,426.0,,,,,,,,,,,3.0,3.0,,,B,,,,,,True,cue1.png,Hard,cue2.png,Easy,Left,Hard,Hard,0.016512099886313,,,,,,,,,,,,,28,21,Male,1.0,1.0,0.5162761941250852,,,,,,,,,,,,,2.0,1.0,1.0,0.0,2.1666666666666665,1.0,2.2222222222222223,1.5555555555555556,1.375,3.0,1.5,2.0,0.75,0.5,0.0001945630456506968,0.5163710596339051,0.0001507144549245821,-0.20292398456370855,1.464,-0.7922785925071375,,,,,,
3,240626_095610,TrueCHOICE,9.0,4,1.0,426.0,,,,,,,,,,,4.0,4.0,,,B,,,,,,True,cue2.png,Easy,cue1.png,Hard,Left,Easy,Easy,0.0161065000575035,,,,,,,,,,,,,28,21,Male,1.0,1.0,0.3755620470517041,,,,,,,,,,,,,2.0,1.0,1.0,0.0,2.1666666666666665,1.0,2.2222222222222223,1.5555555555555556,1.375,3.0,1.5,2.0,0.75,0.5,0.00023736620420286136,0.7725216118150363,0.0001511195290002888,-0.20182666922847886,1.454,-0.8354153579793955,,,,,,
4,240626_095634,TrueCHOICE,9.0,5,1.0,426.0,,,,,,,,,,,5.0,5.0,,,B,,,,,,True,cue1.png,Hard,cue2.png,Easy,Right,Easy,Easy,0.0166608998551964,,,,,,,,,,,,,28,21,Male,0.9125,0.9166666666666666,0.4258775058996809,,,,,,,,,,,,,2.0,1.0,1.0,0.0,2.1666666666666665,1.0,2.2222222222222223,1.5555555555555556,1.375,3.0,1.5,2.0,0.75,0.5,-2.0012224424895576e-05,-0.7677298285585807,0.00015532365806802994,-0.1904379984297641,1.971,1.3947554169363408,,,,,,
5,240626_095657,TrueCHOICE,9.0,6,1.0,426.0,,,,,,,,,,,6.0,6.0,,,B,,,,,,True,cue1.png,Hard,cue2.png,Easy,Right,Easy,Easy,0.0171777999494224,,,,,,,,,,,,,28,21,Male,1.0,1.0,0.369574658873984,,,,,,,,,,,,,2.0,1.0,1.0,0.0,2.1666666666666665,1.0,2.2222222222222223,1.5555555555555556,1.375,3.0,1.5,2.0,0.75,0.5,-0.00013428423302720748,-1.4515774485106583,-4.316736306916348e-06,-0.6228918713766549,1.5799999999999998,-0.29189211302894585,,,,,,
6,240626_095721,TrueCHOICE,9.0,7,1.0,426.0,,,,,,,,,,,7.0,7.0,,,B,,,,,,True,cue2.png,Easy,cue1.png,Hard,Left,Easy,Easy,0.0152529999613761,,,,,,,,,,,,,28,21,Male,,,,,,,,,,,,,,,,2.0,1.0,1.0,0.0,2.1666666666666665,1.0,2.2222222222222223,1.5555555555555556,1.375,3.0,1.5,2.0,0.75,0.5,0.00021687508476752205,0.6498948773469502,,,,,,,,,,
7,240626_095744,TrueCHOICE,9.0,8,1.0,426.0,,,,,,,,,,,8.0,8.0,,,B,,,,,,True,cue1.png,Hard,cue2.png,Easy,Right,Easy,Easy,0.0168546000495553,,,,,,,,,,,,,28,21,Male,0.9125,0.9166666666666666,0.3759593999780276,,,,,,,,,,,,,2.0,1.0,1.0,0.0,2.1666666666666665,1.0,2.2222222222222223,1.5555555555555556,1.375,3.0,1.5,2.0,0.75,0.5,,,,,,,,,,,,
8,240626_095806,TrueCHOICE,9.0,9,1.0,426.0,,,,,,,,,,,9.0,9.0,,,B,,,,,,True,cue2.png,Easy,cue1.png,Hard,Left,Easy,Easy,0.0164683000184595,,,,,,,,,,,,,28,21,Male,1.0,1.0,0.2893248117830166,,,,,,,,,,,,,2.0,1.0,1.0,0.0,2.1666666666666665,1.0,2.2222222222222223,1.5555555555555556,1.375,3.0,1.5,2.0,0.75,0.5,,,7.91688375148241e-05,-0.3967357040997888,,,,,,,,
9,240626_095829,TrueCHOICE,9.0,10,1.0,426.0,,,,,,,,,,,10.0,10.0,,,B,,,,,,True,cue1.png,Hard,cue2.png,Easy,Right,Easy,Easy,0.0165298001375049,,,,,,,,,,,,,28,21,Male,0.9125,0.9166666666666666,0.3393534235382343,,,,,,,,,,,,,2.0,1.0,1.0,0.0,2.1666666666666665,1.0,2.2222222222222223,1.5555555555555556,1.375,3.0,1.5,2.0,0.75,0.5,0.00033563214873921126,1.3605827924615643,,,1.968,1.3818143872946629,,,,,,
0,240626_100022,FalseCHOICE,9.0,1,2.0,426.0,,,,,,,,,,,1.0,1.0,,,B,,,,,,False,cue2.png,Easy,cue1.png,Hard,Left,Easy,Mid,0.0161543001886457,,,,,,,,,,,,,28,21,Male,1.0,1.0,0.3584919294397182,,,,,,,,,,,,,2.0,1.0,1.0,0.0,2.1666666666666665,1.0,2.2222222222222223,1.5555555555555556,1.375,3.0,1.5,2.0,0.75,0.5,,,0.0011092566260759193,2.3936949721880807,,,,,,,,
1,240626_100046,FalseCHOICE,9.0,2,2.0,426.0,,,,,,,,,,,2.0,2.0,,,B,,,,,,False,cue1.png,Hard,cue2.png,Easy,Left,Hard,Mid,0.0169643999543041,,,,,,,,,,,,,28,21,Male,,,,,,,,,,,,,,,,2.0,1.0,1.0,0.0,2.1666666666666665,1.0,2.2222222222222223,1.5555555555555556,1.375,3.0,1.5,2.0,0.75,0.5,-7.220359739649237e-05,-1.0800630641882165,-6.18993075332747e-05,-0.7788787444896852,1.4489999999999998,-0.856983740715525,,,,,,
2,240626_100110,FalseCHOICE,9.0,3,2.0,426.0,,,,,,,,,,,3.0,3.0,,,B,,,,,,False,cue1.png,Hard,cue2.png,Easy,Left,Hard,Mid,0.0163761000148952,,,,,,,,,,,,,28,21,Male,,,,,,,,,,,,,,,,2.0,1.0,1.0,0.0,2.1666666666666665,1.0,2.2222222222222223,1.5555555555555556,1.375,3.0,1.5,2.0,0.75,0.5,0.0001945630456506968,0.5163710596339051,0.0001507144549245821,-0.20292398456370855,1.464,-0.7922785925071375,,,,,,
3,240626_100134,FalseCHOICE,9.0,4,2.0,426.0,,,,,,,,,,,4.0,4.0,,,B,,,,,,False,cue1.png,Hard,cue2.png,Easy,Left,Hard,Mid,0.0164240999147295,,,,,,,,,,,,,28,21,Male,0.9125,0.9166666666666666,0.3949387235676541,,,,,,,,,,,,,2.0,1.0,1.0,0.0,2.1666666666666665,1.0,2.2222222222222223,1.5555555555555556,1.375,3.0,1.5,2.0,0.75,0.5,0.00023736620420286136,0.7725216118150363,0.0001511195290002888,-0.20182666922847886,1.454,-0.8354153579793955,,,,,,
4,240626_100158,FalseCHOICE,9.0,5,2.0,426.0,,,,,,,,,,,5.0,5.0,,,B,,,,,,False,cue2.png,Easy,cue1.png,Hard,Left,Easy,Mid,0.016200799960643,,,,,,,,,,,,,28,21,Male,,,,,,,,,,,,,,,,2.0,1.0,1.0,0.0,2.1666666666666665,1.0,2.2222222222222223,1.5555555555555556,1.375,3.0,1.5,2.0,0.75,0.5,-2.0012224424895576e-05,-0.7677298285585807,0.00015532365806802994,-0.1904379984297641,1.971,1.3947554169363408,,,,,,
5,240626_100222,FalseCHOICE,9.0,6,2.0,426.0,,,,,,,,,,,6.0,6.0,,,B,,,,,,False,cue1.png,Hard,cue2.png,Easy,Right,Easy,Mid,0.0170648000203073,,,,,,,,,,,,,28,21,Male,0.9125,0.9166666666666666,0.4102113940890002,,,,,,,,,,,,,2.0,1.0,1.0,0.0,2.1666666666666665,1.0,2.2222222222222223,1.5555555555555556,1.375,3.0,1.5,2.0,0.75,0.5,-0.00013428423302720748,-1.4515774485106583,-4.316736306916348e-06,-0.6228918713766549,1.5799999999999998,-0.29189211302894585,,,,,,
6,240626_100247,FalseCHOICE,9.0,7,2.0,426.0,,,,,,,,,,,7.0,7.0,,,B,,,,,,False,cue1.png,Hard,cue2.png,Easy,Right,Easy,Mid,0.0166054000146687,,,,,,,,,,,,,28,21,Male,1.0,1.0,0.3476655353271566,,,,,,,,,,,,,2.0,1.0,1.0,0.0,2.1666666666666665,1.0,2.2222222222222223,1.5555555555555556,1.375,3.0,1.5,2.0,0.75,0.5,0.00021687508476752205,0.6498948773469502,,,,,,,,,,
7,240626_100311,FalseCHOICE,9.0,8,2.0,426.0,,,,,,,,,,,8.0,8.0,,,B,,,,,,False,cue2.png,Easy,cue1.png,Hard,Right,Hard,Mid,0.0167326000519096,,,,,,,,,,,,,28,21,Male,,,,,,,,,,,,,,,,2.0,1.0,1.0,0.0,2.1666666666666665,1.0,2.2222222222222223,1.5555555555555556,1.375,3.0,1.5,2.0,0.75,0.5,,,,,,,,,,,,
8,240626_100336,FalseCHOICE,9.0,9,2.0,426.0,,,,,,,,,,,9.0,9.0,,,B,,,,,,False,cue2.png,Easy,cue1.png,Hard,Left,Easy,Mid,0.016366200055927,,,,,,,,,,,,,28,21,Male,0.9125,0.9166666666666666,0.4117642000235398,,,,,,,,,,,,,2.0,1.0,1.0,0.0,2.1666666666666665,1.0,2.2222222222222223,1.5555555555555556,1.375,3.0,1.5,2.0,0.75,0.5,,,7.91688375148241e-05,-0.3967357040997888,,,,,,,,
9,240626_100400,FalseCHOICE,9.0,10,2.0,426.0,,,,,,,,,,,10.0,10.0,,,B,,,,,,False,cue1.png,Hard,cue2.png,Easy,Right,Easy,Mid,0.016867000143975,,,,,,,,,,,,,28,21,Male,,,,,,,,,,,,,,,,2.0,1.0,1.0,0.0,2.1666666666666665,1.0,2.2222222222222223,1.5555555555555556,1.375,3.0,1.5,2.0,0.75,0.5,0.00033563214873921126,1.3605827924615643,,,1.968,1.3818143872946629,,,,,,
0,240626_093025,OFFLINERATING,9.0,1,1.0,,,,,,,,,,,,,,,,,T0,cue2.png,Easy,50.0,1.780562800122425,,,,,,,,,,,,,,,,,,,,,,28,21,Male,,,,,,,,,,,,,,,,2.0,1.0,1.0,0.0,2.1666666666666665,1.0,2.2222222222222223,1.5555555555555556,1.375,3.0,1.5,2.0,0.75,0.5,,,,,,,,,,,1.4480000000000002,0.27471657338769984
1,240626_093034,OFFLINERATING,9.0,2,3.0,,,,,,,,,,,,,,,,,T0,cue1.png,Hard,42.0,2.252420899923891,,,,,,,,,,,,,,,,,,,,,,28,21,Male,,,,,,,,,,,,,,,,2.0,1.0,1.0,0.0,2.1666666666666665,1.0,2.2222222222222223,1.5555555555555556,1.375,3.0,1.5,2.0,0.75,0.5,,,,,,,0.0001208983122340363,1.2480544987356983,,,1.093,-1.666067178903509
2,240626_095354,OFFLINERATING,9.0,3,1.0,,,,,,,,,,,,,,,,,T1,cue2.png,Easy,55.0,2.3226288000587374,,,,,,,,,,,,,,,,,,,,,,28,21,Male,,,,,,,,,,,,,,,,2.0,1.0,1.0,0.0,2.1666666666666665,1.0,2.2222222222222223,1.5555555555555556,1.375,3.0,1.5,2.0,0.75,0.5,,,,,,,,,4.3896279407141386e-05,1.326002506041159,,
3,240626_095401,OFFLINERATING,9.0,4,3.0,,,,,,,,,,,,,,,,,T1,cue1.png,Hard,20.0,1.4021534000057727,,,,,,,,,,,,,,,,,,,,,,28,21,Male,,,,,,,,,,,,,,,,2.0,1.0,1.0,0.0,2.1666666666666665,1.0,2.2222222222222223,1.5555555555555556,1.375,3.0,1.5,2.0,0.75,0.5,,,,,,,,,-0.00015658949574086497,-0.23722194929689694,1.58,0.9963601094509089
4,240626_095854,OFFLINERATING,9.0,5,1.0,,,,,,,,,,,,,,,,,T2,cue2.png,Easy,81.0,1.6356440000236034,,,,,,,,,,,,,,,,,,,,,,28,21,Male,,,,,,,,,,,,,,,,2.0,1.0,1.0,0.0,2.1666666666666665,1.0,2.2222222222222223,1.5555555555555556,1.375,3.0,1.5,2.0,0.75,0.5,,,,,,,-7.71831895255825e-06,-1.2000220202982703,-0.00026580310669420794,-1.0887805567442623,,
5,240626_095901,OFFLINERATING,9.0,6,3.0,,,,,,,,,,,,,,,,,T2,cue1.png,Hard,6.0,1.186043200083077,,,,,,,,,,,,,,,,,,,,,,28,21,Male,,,,,,,,,,,,,,,,2.0,1.0,1.0,0.0,2.1666666666666665,1.0,2.2222222222222223,1.5555555555555556,1.375,3.0,1.5,2.0,0.75,0.5,,,,,,,,,,,,
6,240626_102026,OFFLINERATING,9.0,7,1.0,,,,,,,,,,,,,,,,,T3,cue2.png,Easy,50.0,1.070703599834815,,,,,,,,,,,,,,,,,,,,,,28,21,Male,,,,,,,,,,,,,,,,2.0,1.0,1.0,0.0,2.1666666666666665,1.0,2.2222222222222223,1.5555555555555556,1.375,3.0,1.5,2.0,0.75,0.5,,,,,,,5.280471326654787e-05,-0.04803247843742766,,,1.47,0.39499049606490033
7,240626_102033,OFFLINERATING,9.0,8,3.0,,,,,,,,,,,,,,,,,T3,cue1.png,Hard,50.0,0.6848712000064552,,,,,,,,,,,,,,,,,,,,,,28,21,Male,,,,,,,,,,,,,,,,2.0,1.0,1.0,0.0,2.1666666666666665,1.0,2.2222222222222223,1.5555555555555556,1.375,3.0,1.5,2.0,0.75,0.5,,,,,,,,,,,,
