,END,Phase,Block,TrialN,NbackLevel,ISI,Letter_Resp,Letter_RT,Letter_Accuracy,Trial_A_measure,Trial_ACC,Trial_RT,TrialCountCali,CaliEnd_A_measure,ISI_calibrated,TrialIndex,TrialNumber_total,TrialNumber_valid,CueLearning,TrialDemandLearning,CueMapping,OfflineRatingTimePoint,CueFigure,TrialDemand,OfflineRating,OfflineRatingRT,PhaseType,CueLeft,CueDemandLeft,CueRight,CueDemandRight,Choice,ChoiceDemand,TaskDemand,ChoiceRT,CueCheck,CueDemandCheck,CorrectAnswer,Answer,AnswerDemand,AnswerRT,AnswerACC,DemandRatingQuesIndex,QuesTLX,DemandLevel,DemandRating,DemandRatingRT,PID,Age,Gender,Task_A_measure,Task_ACC,Task_RT,cue_i_on_zyg_values,cue_i_on_zyg_zvalues,cue_e_on_zyg_values,cue_e_on_zyg_zvalues,cue_i_on_cor_values,cue_i_on_cor_zvalues,cue_e_on_cor_values,cue_e_on_cor_zvalues,cue_i_on_scr_values,cue_i_on_scr_zvalues,cue_e_on_scr_values,cue_e_on_scr_zvalues,BAI_bis,BAI_bas_d,BAI_bas_rr,BAI_bas_fs,NFC,BFI_ext,BFI_agr,BFI_con,BFI_neu,BFI_open,UPPS_lps,UPPS_lpm,UPPS_pu,UPPS_ss,cue_e_true_zyg_values,cue_e_true_zyg_zvalues,cue_e_true_cor_values,cue_e_true_cor_zvalues,cue_e_true_scr_values,cue_e_true_scr_zvalues,cue_i_off_zyg_values,cue_i_off_zyg_zvalues,cue_i_off_cor_values,cue_i_off_cor_zvalues,cue_i_off_scr_values,cue_i_off_scr_zvalues
0,240627_091931,LEARNING,1.0,1,1.0,1068.0,,,,,,,,,,1.0,1.0,1.0,cue2.png,Easy,B,,,,,,,,,,,,,,,,,,,,,,,,,,,30,28,Female,0.1875,0.6590909090909091,0.4629948699846863,4.608846855058734e-05,0.5907981804164169,,,,,,,,,,,1.1428571428571428,0.5,0.4,0.5,3.2777777777777777,3.25,2.2222222222222223,2.6666666666666665,1.5,3.4444444444444446,2.0,1.75,2.0,0.75,,,,,,,,,,,,
1,240627_091955,LEARNING,1.0,2,3.0,1068.0,,,,,,,,,,2.0,2.0,2.0,cue1.png,Hard,B,,,,,,,,,,,,,,,,,,,,,,,,,,,30,28,Female,0.7083333333333334,0.7840909090909091,0.5113670500228181,7.155530780861546e-06,0.41525154876338755,,,,,,,1.594,-0.025009773315891413,1.4520000000000002,-0.042080942690522996,1.1428571428571428,0.5,0.4,0.5,3.2777777777777777,3.25,2.2222222222222223,2.6666666666666665,1.5,3.4444444444444446,2.0,1.75,2.0,0.75,,,,,,,,,,,,
2,240627_092017,LEARNING,1.0,3,1.0,1068.0,,,,,,,,,,3.0,3.0,3.0,cue2.png,Easy,B,,,,,,,,,,,,,,,,,,,,,,,,,,,30,28,Female,1.0,1.0,0.5097405182155357,-0.00026881607737574975,-0.8290903637401749,7.103839443126916e-05,0.7015368721378616,,,,,1.5859999999999999,-0.038175436636719864,1.465,-0.015376309999624097,1.1428571428571428,0.5,0.4,0.5,3.2777777777777777,3.25,2.2222222222222223,2.6666666666666665,1.5,3.4444444444444446,2.0,1.75,2.0,0.75,,,,,,,,,,,,
3,240627_092040,LEARNING,1.0,4,3.0,1068.0,,,,,,,,,,4.0,4.0,4.0,cue1.png,Hard,B,,,,,,,,,,,,,,,,,,,,,,,,,,,30,28,Female,0.84375,0.875,0.5443991453767839,-6.0448685964927494e-05,0.11042758183189935,2.7906595149681992e-05,0.23878025354951307,7.961816941379641e-05,-0.18838657937277284,,,1.5290000000000001,-0.13198078779761943,1.128,-0.7076425574483167,1.1428571428571428,0.5,0.4,0.5,3.2777777777777777,3.25,2.2222222222222223,2.6666666666666665,1.5,3.4444444444444446,2.0,1.75,2.0,0.75,,,,,,,,,,,,
4,240627_092103,LEARNING,1.0,5,3.0,1068.0,,,,,,,,,,5.0,5.0,5.0,cue1.png,Hard,B,,,,,,,,,,,,,,,,,,,,,,,,,,,30,28,Female,0.5833333333333334,0.75,0.5695154818240553,-0.00011372805499284579,-0.12980637700186434,8.675998467313172e-05,0.870212189660766,,,-6.173315983462602e-05,-0.09024881813756602,1.464,-0.2389518022793478,1.5830000000000002,0.22701958673315262,1.1428571428571428,0.5,0.4,0.5,3.2777777777777777,3.25,2.2222222222222223,2.6666666666666665,1.5,3.4444444444444446,2.0,1.75,2.0,0.75,,,,,,,,,,,,
5,240627_092124,LEARNING,1.0,6,1.0,1068.0,,,,,,,,,,6.0,6.0,6.0,cue2.png,Easy,B,,,,,,,,,,,,,,,,,,,,,,,,,,,30,28,Female,1.0,1.0,0.4263722454197705,2.808754420575944e-05,0.5096329302093604,2.1155830951996146e-05,0.16635200188735724,,,0.0005031629953327526,0.6562597286443949,,,1.596,0.25372421942405154,1.1428571428571428,0.5,0.4,0.5,3.2777777777777777,3.25,2.2222222222222223,2.6666666666666665,1.5,3.4444444444444446,2.0,1.75,2.0,0.75,,,,,,,,,,,,
6,240627_092146,LEARNING,1.0,7,3.0,1068.0,,,,,,,,,,7.0,7.0,7.0,cue1.png,Hard,B,,,,,,,,,,,,,,,,,,,,,,,,,,,30,28,Female,0.5833333333333334,0.75,0.468424281803891,6.465879062166318e-05,0.6745308159439678,-5.0531711518747927e-05,-0.6027762353116872,0.00031578192104482483,0.13577505971149387,-4.8510388912336236e-05,-0.07277496667772634,,,,,1.1428571428571428,0.5,0.4,0.5,3.2777777777777777,3.25,2.2222222222222223,2.6666666666666665,1.5,3.4444444444444446,2.0,1.75,2.0,0.75,,,,,,,,,,,,
7,240627_092209,LEARNING,1.0,8,3.0,1068.0,,,,,,,,,,8.0,8.0,8.0,cue1.png,Hard,B,,,,,,,,,,,,,,,,,,,,,,,,,,,30,28,Female,0.84375,0.875,0.5583014272534373,0.0001744098077531048,1.169392557225152,0.00015616282675303328,1.6148281123966135,0.0006167612154113003,0.5489034111982847,8.236243531597846e-05,0.10017307153114129,,,,,1.1428571428571428,0.5,0.4,0.5,3.2777777777777777,3.25,2.2222222222222223,2.6666666666666665,1.5,3.4444444444444446,2.0,1.75,2.0,0.75,,,,,,,,,,,,
8,240627_092230,LEARNING,1.0,9,1.0,1068.0,,,,,,,,,,9.0,9.0,9.0,cue2.png,Easy,B,,,,,,,,,,,,,,,,,,,,,,,,,,,30,28,Female,1.0,1.0,0.4033851909493519,8.918149723212247e-07,0.387008773498786,,,0.00014318319336795258,-0.10113634638357644,,,,,,,1.1428571428571428,0.5,0.4,0.5,3.2777777777777777,3.25,2.2222222222222223,2.6666666666666665,1.5,3.4444444444444446,2.0,1.75,2.0,0.75,,,,,,,,,,,,
9,240627_092252,LEARNING,1.0,10,1.0,1068.0,,,,,,,,,,10.0,10.0,10.0,cue2.png,Easy,B,,,,,,,,,,,,,,,,,,,,,,,,,,,30,28,Female,1.0,1.0,0.4141546636819839,0.00020291541708497953,1.2979228965235885,,,-0.00013905456647898655,-0.48853980780214457,-7.890086425290429e-05,-0.11293588718492718,1.419,-0.3130086584590056,,,1.1428571428571428,0.5,0.4,0.5,3.2777777777777777,3.25,2.2222222222222223,2.6666666666666665,1.5,3.4444444444444446,2.0,1.75,2.0,0.75,,,,,,,,,,,,
10,240627_092314,LEARNING,1.0,11,3.0,1068.0,,,,,,,,,,11.0,11.0,11.0,cue1.png,Hard,B,,,,,,,,,,,,,,,,,,,,,,,,,,,30,28,Female,0.84375,0.875,0.4615099818488075,-0.0001055209360187534,-0.0928008959359609,,,-1.934884593739715e-05,-0.32423007647999647,0.00018598849039066882,0.23711458737423188,0.9539999999999997,-1.078262838982138,1.2160000000000002,-0.526872736156076,1.1428571428571428,0.5,0.4,0.5,3.2777777777777777,3.25,2.2222222222222223,2.6666666666666665,1.5,3.4444444444444446,2.0,1.75,2.0,0.75,,,,,,,,,,,,
11,240627_092336,LEARNING,1.0,12,1.0,1068.0,,,,,,,,,,12.0,12.0,12.0,cue2.png,Easy,B,,,,,,,,,,,,,,,,,,,,,,,,,,,30,28,Female,1.0,1.0,0.4626008545641195,,,-4.097193826353273e-05,-0.5002104156672644,0.0023283945840213488,2.898315098842984,0.00018498263074624797,0.2357853469208237,0.1825,-2.3479264954844954,0.6634999999999999,-1.6618196255192887,1.1428571428571428,0.5,0.4,0.5,3.2777777777777777,3.25,2.2222222222222223,2.6666666666666665,1.5,3.4444444444444446,2.0,1.75,2.0,0.75,,,,,,,,,,,,
12,240627_092358,LEARNING,1.0,13,1.0,1068.0,,,,,,,,,,13.0,13.0,13.0,cue2.png,Easy,B,,,,,,,,,,,,,,,,,,,,,,,,,,,30,28,Female,0.84375,0.875,0.4736499727534299,-0.0004539503210718981,-1.6638512306625173,-0.00017354691316872348,-1.9225936252346736,2.7062440371408182e-05,-0.26052530156019094,-0.00039101677676632064,-0.525396113983389,,,,,1.1428571428571428,0.5,0.4,0.5,3.2777777777777777,3.25,2.2222222222222223,2.6666666666666665,1.5,3.4444444444444446,2.0,1.75,2.0,0.75,,,,,,,,,,,,
13,240627_092419,LEARNING,1.0,14,1.0,1068.0,,,,,,,,,,14.0,14.0,14.0,cue2.png,Easy,B,,,,,,,,,,,,,,,,,,,,,,,,,,,30,28,Female,1.0,1.0,0.3946288999974389,0.0001201174156323097,0.9245909289082099,0.00010676279629111968,1.0848202890393464,-2.230945858222068e-05,-0.3282938544349598,0.00013209910690338555,0.16589993139529743,,,,,1.1428571428571428,0.5,0.4,0.5,3.2777777777777777,3.25,2.2222222222222223,2.6666666666666665,1.5,3.4444444444444446,2.0,1.75,2.0,0.75,,,,,,,,,,,,
14,240627_092441,LEARNING,1.0,15,3.0,1068.0,,,,,,,,,,15.0,15.0,15.0,cue1.png,Hard,B,,,,,,,,,,,,,,,,,,,,,,,,,,,30,28,Female,0.84375,0.875,0.4844070909206163,,,-0.0001026504201128548,-1.1619524754852895,0.00011070581459110291,-0.1457152466794716,0.0012224235549346454,1.6067603652559073,,,,,1.1428571428571428,0.5,0.4,0.5,3.2777777777777777,3.25,2.2222222222222223,2.6666666666666665,1.5,3.4444444444444446,2.0,1.75,2.0,0.75,,,,,,,,,,,,
15,240627_092503,LEARNING,1.0,16,1.0,1068.0,,,,,,,,,,16.0,16.0,16.0,cue2.png,Easy,B,,,,,,,,,,,,,,,,,,,,,,,,,,,30,28,Female,1.0,1.0,0.5017429454336789,-9.326558511225675e-05,-0.03754214346045929,-9.049544385011975e-05,-1.0315429908810587,-0.0001796124230617549,-0.5442100839423862,-0.00032973448411329105,-0.44441175108163605,,,,,1.1428571428571428,0.5,0.4,0.5,3.2777777777777777,3.25,2.2222222222222223,2.6666666666666665,1.5,3.4444444444444446,2.0,1.75,2.0,0.75,,,,,,,,,,,,
16,240627_092524,LEARNING,1.0,17,1.0,1068.0,,,,,,,,,,17.0,17.0,17.0,cue2.png,Easy,B,,,,,,,,,,,,,,,,,,,,,,,,,,,30,28,Female,1.0,1.0,0.3924482545646077,9.408142062522365e-05,0.8071959547025109,-3.366105704873416e-05,-0.4217727263936448,-0.00033552401183649556,-0.75821649187079,-0.0006403535930657161,-0.854893956537746,,,,,1.1428571428571428,0.5,0.4,0.5,3.2777777777777777,3.25,2.2222222222222223,2.6666666666666665,1.5,3.4444444444444446,2.0,1.75,2.0,0.75,,,,,,,,,,,,
17,240627_092546,LEARNING,1.0,18,3.0,1068.0,,,,,,,,,,18.0,18.0,18.0,cue1.png,Hard,B,,,,,,,,,,,,,,,,,,,,,,,,,,,30,28,Female,0.84375,0.875,0.4435404636262154,0.00016783306658204157,1.1397383665585616,8.880272429466832e-05,0.8921285320268092,-0.00042296095917790724,-0.8782336578031794,-0.0007069718411895163,-0.9429297683257071,,,,,1.1428571428571428,0.5,0.4,0.5,3.2777777777777777,3.25,2.2222222222222223,2.6666666666666665,1.5,3.4444444444444446,2.0,1.75,2.0,0.75,,,,,,,,,,,,
18,240627_092610,LEARNING,1.0,19,3.0,1068.0,,,,,,,,,,19.0,19.0,19.0,cue1.png,Hard,B,,,,,,,,,,,,,,,,,,,,,,,,,,,30,28,Female,1.0,1.0,0.614849854557013,4.447898551643249e-05,0.58354110346477,-1.584554945459381e-05,-0.23063198591869608,-0.0005383091753870285,-1.03656221827682,0.0005085365065333781,0.6633608073131052,2.932,2.1769474170926038,,,1.1428571428571428,0.5,0.4,0.5,3.2777777777777777,3.25,2.2222222222222223,2.6666666666666665,1.5,3.4444444444444446,2.0,1.75,2.0,0.75,,,,,,,,,,,,
19,240627_092633,LEARNING,1.0,20,3.0,1068.0,,,,,,,,,,20.0,20.0,20.0,cue1.png,Hard,B,,,,,,,,,,,,,,,,,,,,,,,,,,,30,28,Female,0.84375,0.875,0.6156071091113104,-0.00011190656834695993,-0.12159338657259142,0.0001182599240229878,1.2081717847175912,0.00021884354760007968,0.0027161046051813937,0.001800186582629433,2.3702724448539465,1.9589999999999999,0.5756736156968891,2.046,1.178115351032097,1.1428571428571428,0.5,0.4,0.5,3.2777777777777777,3.25,2.2222222222222223,2.6666666666666665,1.5,3.4444444444444446,2.0,1.75,2.0,0.75,,,,,,,,,,,,
20,240627_092655,LEARNING,1.0,21,1.0,1068.0,,,,,,,,,,21.0,21.0,21.0,cue2.png,Easy,B,,,,,,,,,,,,,,,,,,,,,,,,,,,30,28,Female,1.0,1.0,0.4858831090810285,,,-1.6409455563569722e-06,-0.07823225815818359,0.0013031929541623046,1.4911091308153912,-0.0004762672969537314,-0.6380544164968017,2.1229999999999998,0.8455697137738646,1.625,0.3132960923499032,1.1428571428571428,0.5,0.4,0.5,3.2777777777777777,3.25,2.2222222222222223,2.6666666666666665,1.5,3.4444444444444446,2.0,1.75,2.0,0.75,,,,,,,,,,,,
21,240627_092718,LEARNING,1.0,22,3.0,1068.0,,,,,,,,,,22.0,22.0,22.0,cue1.png,Hard,B,,,,,,,,,,,,,,,,,,,,,,,,,,,30,28,Female,0.84375,0.875,0.5685917090370574,5.658502362838923e-05,0.6381266121614637,-4.629941311527644e-05,-0.5573683429754308,-0.0005077987166002568,-0.9946831396238646,-0.0005234100558926622,-0.7003534287043924,2.815,1.9843995910254932,1.244,-0.4693550657449091,1.1428571428571428,0.5,0.4,0.5,3.2777777777777777,3.25,2.2222222222222223,2.6666666666666665,1.5,3.4444444444444446,2.0,1.75,2.0,0.75,,,,,,,,,,,,
22,240627_092742,LEARNING,1.0,23,3.0,1068.0,,,,,,,,,,23.0,23.0,23.0,cue1.png,Hard,B,,,,,,,,,,,,,,,,,,,,,,,,,,,30,28,Female,0.84375,0.875,0.5898159090852872,-3.135308707554298e-05,0.2416181539682451,-1.3401837761053362e-05,-0.20441365561615435,-0.0015371191261755613,-2.4075426017826653,0.00026239428884031364,0.33808461707723025,2.261,1.0726774060581494,,,1.1428571428571428,0.5,0.4,0.5,3.2777777777777777,3.25,2.2222222222222223,2.6666666666666665,1.5,3.4444444444444446,2.0,1.75,2.0,0.75,,,,,,,,,,,,
23,240627_092805,LEARNING,1.0,24,3.0,1068.0,,,,,,,,,,24.0,24.0,24.0,cue1.png,Hard,B,,,,,,,,,,,,,,,,,,,,,,,,,,,30,28,Female,0.84375,0.875,0.5570561545901,-8.393582872569423e-06,0.3451413879737113,,,-0.000254414328414854,-0.6468842161003587,-0.0009995459151917949,-1.3295655151114225,2.069,0.7567014863582753,1.2590000000000001,-0.43854202802464065,1.1428571428571428,0.5,0.4,0.5,3.2777777777777777,3.25,2.2222222222222223,2.6666666666666665,1.5,3.4444444444444446,2.0,1.75,2.0,0.75,,,,,,,,,,,,
24,240627_092826,LEARNING,1.0,25,1.0,1068.0,,,,,,,,,,25.0,25.0,25.0,cue2.png,Easy,B,,,,,,,,,,,,,,,,,,,,,,,,,,,30,28,Female,1.0,1.0,0.4194042181850157,7.157240112798694e-05,0.7057039332700863,5.348113306608221e-05,0.5131668287741897,0.00011622984187663506,-0.1381328902557729,0.0005757574513201875,0.7521930809037138,1.178,-0.7096242659989516,1.9420000000000002,0.9644782895049049,1.1428571428571428,0.5,0.4,0.5,3.2777777777777777,3.25,2.2222222222222223,2.6666666666666665,1.5,3.4444444444444446,2.0,1.75,2.0,0.75,,,,,,,,,,,,
25,240627_092848,LEARNING,1.0,26,1.0,1068.0,,,,,,,,,,26.0,26.0,26.0,cue2.png,Easy,B,,,,,,,,,,,,,,,,,,,,,,,,,,,30,28,Female,1.0,1.0,0.4496339817997068,-0.00020019991665464094,-0.5197035930115611,-8.827205956434166e-05,-1.0076885305745913,,,-0.0016232050132068358,-2.15372911170841,1.2790000000000001,-0.5434077665734968,1.282,-0.39129537018689625,1.1428571428571428,0.5,0.4,0.5,3.2777777777777777,3.25,2.2222222222222223,2.6666666666666665,1.5,3.4444444444444446,2.0,1.75,2.0,0.75,,,,,,,,,,,,
26,240627_092910,LEARNING,1.0,27,3.0,1068.0,,,,,,,,,,27.0,27.0,27.0,cue1.png,Hard,B,,,,,,,,,,,,,,,,,,,,,,,,,,,30,28,Female,0.84375,0.875,0.5042705090970478,,,,,0.0011863071290360017,1.3306700270283849,-0.0003254827076534846,-0.43879304145294085,1.3850000000000002,-0.36896272757252463,1.033,-0.9027917963433486,1.1428571428571428,0.5,0.4,0.5,3.2777777777777777,3.25,2.2222222222222223,2.6666666666666665,1.5,3.4444444444444446,2.0,1.75,2.0,0.75,,,,,,,,,,,,
27,240627_092932,LEARNING,1.0,28,1.0,1068.0,,,,,,,,,,28.0,28.0,28.0,cue2.png,Easy,B,,,,,,,,,,,,,,,,,,,,,,,,,,,30,28,Female,1.0,1.0,0.4696310636460442,-0.0001165675749919535,-0.14260962792279486,0.00017503720183252797,1.8173293327313695,-0.0005003899952624041,-0.9845138260191709,,,2.491,1.4511902265319565,2.042,1.1698985409733589,1.1428571428571428,0.5,0.4,0.5,3.2777777777777777,3.25,2.2222222222222223,2.6666666666666665,1.5,3.4444444444444446,2.0,1.75,2.0,0.75,,,,,,,,,,,,
28,240627_092954,LEARNING,1.0,29,1.0,1068.0,,,,,,,,,,29.0,29.0,29.0,cue2.png,Easy,B,,,,,,,,,,,,,,,,,,,,,,,,,,,30,28,Female,1.0,1.0,0.4679833363360641,5.9243748991866414e-05,0.6501146692870122,-8.240586876304568e-06,-0.14903912807744174,-0.0001241892470269599,-0.4681354642659324,,,0.6920000000000002,-1.5094383127392568,2.403,1.9114656487744806,1.1428571428571428,0.5,0.4,0.5,3.2777777777777777,3.25,2.2222222222222223,2.6666666666666665,1.5,3.4444444444444446,2.0,1.75,2.0,0.75,,,,,,,,,,,,
29,240627_093017,LEARNING,1.0,30,3.0,1068.0,,,,,,,,,,30.0,30.0,30.0,cue1.png,Hard,B,,,,,,,,,,,,,,,,,,,,,,,,,,,30,28,Female,1.0,1.0,0.5644240363458679,-0.0005034495965516692,-1.8870409403919508,-0.0002190923468729333,-2.41124587819314,0.0002748694605553964,0.079618049333611,-1.40464454390591e-05,-0.02723097045245788,,,1.292,-0.37075334504005075,1.1428571428571428,0.5,0.4,0.5,3.2777777777777777,3.25,2.2222222222222223,2.6666666666666665,1.5,3.4444444444444446,2.0,1.75,2.0,0.75,,,,,,,,,,,,
30,240627_093041,LEARNING,1.0,31,3.0,1068.0,,,,,,,,,,31.0,31.0,31.0,cue1.png,Hard,B,,,,,,,,,,,,,,,,,,,,,,,,,,,30,28,Female,0.84375,0.875,0.666340618182651,-0.00010805891403964721,-0.10424450944934381,-4.976616497836357e-05,-0.5945627655677642,,,,,,,1.385,-0.17971251117438797,1.1428571428571428,0.5,0.4,0.5,3.2777777777777777,3.25,2.2222222222222223,2.6666666666666665,1.5,3.4444444444444446,2.0,1.75,2.0,0.75,,,,,,,,,,,,
31,240627_093103,LEARNING,1.0,32,1.0,1068.0,,,,,,,,,,32.0,32.0,32.0,cue2.png,Easy,B,,,,,,,,,,,,,,,,,,,,,,,,,,,30,28,Female,1.0,1.0,0.4573374272916805,-0.00010331517187334941,-0.08285521785132918,0.00023726162520187324,2.4849287427170417,,,,,0.859,-1.234605090916971,1.71,0.4879033060980896,1.1428571428571428,0.5,0.4,0.5,3.2777777777777777,3.25,2.2222222222222223,2.6666666666666665,1.5,3.4444444444444446,2.0,1.75,2.0,0.75,,,,,,,,,,,,
32,240627_093125,LEARNING,1.0,33,1.0,1068.0,,,,,,,,,,33.0,33.0,33.0,cue2.png,Easy,B,,,,,,,,,,,,,,,,,,,,,,,,,,,30,28,Female,1.0,1.0,0.4376943091311576,-0.00020075779455275972,-0.5222190360142871,-0.00012167954694254505,-1.3661140113606425,-0.0008513377264195501,-1.4662295464847925,0.0005246209479846838,0.6846163476522955,1.2719999999999998,-0.5549277219792219,1.8909999999999998,0.8597139612559922,1.1428571428571428,0.5,0.4,0.5,3.2777777777777777,3.25,2.2222222222222223,2.6666666666666665,1.5,3.4444444444444446,2.0,1.75,2.0,0.75,,,,,,,,,,,,
33,240627_093146,LEARNING,1.0,34,1.0,1068.0,,,,,,,,,,34.0,34.0,34.0,cue2.png,Easy,B,,,,,,,,,,,,,,,,,,,,,,,,,,,30,28,Female,1.0,1.0,0.4341328727843409,-0.00079264520988491,-3.191009218094306,2.443337158714639e-05,0.20151639676238187,0.0011644910133626358,1.300724924249957,-0.000787692228915492,-1.049601514602932,2.504,1.472584429428302,1.524,0.10582163836676403,1.1428571428571428,0.5,0.4,0.5,3.2777777777777777,3.25,2.2222222222222223,2.6666666666666665,1.5,3.4444444444444446,2.0,1.75,2.0,0.75,,,,,,,,,,,,
34,240627_093209,LEARNING,1.0,35,3.0,1068.0,,,,,,,,,,35.0,35.0,35.0,cue1.png,Hard,B,,,,,,,,,,,,,,,,,,,,,,,,,,,30,28,Female,1.0,1.0,0.5651815908918665,,,4.276269655303878e-05,0.39816983073689044,-4.801843561468358e-05,-0.36358235267597433,0.00010133403239179911,0.12524397922568462,1.2590000000000001,-0.576321924875567,0.7979999999999999,-1.385529387294217,1.1428571428571428,0.5,0.4,0.5,3.2777777777777777,3.25,2.2222222222222223,2.6666666666666665,1.5,3.4444444444444446,2.0,1.75,2.0,0.75,,,,,,,,,,,,
35,240627_093231,LEARNING,1.0,36,3.0,1068.0,,,,,,,,,,36.0,36.0,36.0,cue1.png,Hard,B,,,,,,,,,,,,,,,,,,,,,,,,,,,30,28,Female,0.84375,0.875,0.475518127289516,,,,,0.0007821556898496979,0.7759261594361122,,,1.5050000000000001,-0.1714777777601037,0.7429999999999999,-1.4985105256018671,1.1428571428571428,0.5,0.4,0.5,3.2777777777777777,3.25,2.2222222222222223,2.6666666666666665,1.5,3.4444444444444446,2.0,1.75,2.0,0.75,,,,,,,,,,,,
36,240627_093253,LEARNING,1.0,37,1.0,1068.0,,,,,,,,,,37.0,37.0,37.0,cue2.png,Easy,B,,,,,,,,,,,,,,,,,,,,,,,,,,,30,28,Female,1.0,1.0,0.4714473908640105,,,2.876439450920018e-05,0.24798349425937483,4.5295621030510755e-05,-0.23549818504737174,-0.000973520096895459,-1.2951724755810818,2.1430000000000002,0.8784838720759355,0.77,-1.4430470577053842,1.1428571428571428,0.5,0.4,0.5,3.2777777777777777,3.25,2.2222222222222223,2.6666666666666665,1.5,3.4444444444444446,2.0,1.75,2.0,0.75,,,,,,,,,,,,
37,240627_093316,LEARNING,1.0,38,3.0,1068.0,,,,,,,,,,38.0,38.0,38.0,cue1.png,Hard,B,,,,,,,,,,,,,,,,,,,,,,,,,,,30,28,Female,1.0,1.0,0.5112870636353777,1.8412812929097938e-06,0.39128986873575844,1.5036279352462125e-05,0.10069596498081909,0.0016306109427479988,1.9405276004687486,0.00017287832323955622,0.21978954145469323,1.1099999999999999,-0.8215324042259903,1.767,0.6049928494351087,1.1428571428571428,0.5,0.4,0.5,3.2777777777777777,3.25,2.2222222222222223,2.6666666666666665,1.5,3.4444444444444446,2.0,1.75,2.0,0.75,,,,,,,,,,,,
38,240627_093339,LEARNING,1.0,39,3.0,1068.0,,,,,,,,,,39.0,39.0,39.0,cue1.png,Hard,B,,,,,,,,,,,,,,,,,,,,,,,,,,,30,28,Female,0.5833333333333334,0.75,0.6207130727231164,-1.0284499577674962e-05,0.3366153409468712,,,0.0008046985563809599,0.8068688105159814,0.0007231465684149618,0.9469673497802568,1.6460000000000001,0.06056703826949115,2.003,1.0897846429006621,1.1428571428571428,0.5,0.4,0.5,3.2777777777777777,3.25,2.2222222222222223,2.6666666666666665,1.5,3.4444444444444446,2.0,1.75,2.0,0.75,,,,,,,,,,,,
39,240627_093402,LEARNING,1.0,40,3.0,1068.0,,,,,,,,,,40.0,40.0,40.0,cue1.png,Hard,B,,,,,,,,,,,,,,,,,,,,,,,,,,,30,28,Female,1.0,1.0,0.5410338818222623,8.350052157954672e-05,0.7594872203060616,6.537796499848664e-05,0.6408067095269404,0.0009274992564784063,0.9754267536777107,-0.0007941139134385149,-1.0580877511214895,1.9609999999999999,0.5789650315270961,1.7140000000000002,0.4961201161568283,1.1428571428571428,0.5,0.4,0.5,3.2777777777777777,3.25,2.2222222222222223,2.6666666666666665,1.5,3.4444444444444446,2.0,1.75,2.0,0.75,,,,,,,,,,,,
40,240627_093424,LEARNING,1.0,41,1.0,1068.0,,,,,,,,,,41.0,41.0,41.0,cue2.png,Easy,B,,,,,,,,,,,,,,,,,,,,,,,,,,,30,28,Female,1.0,1.0,0.4521035545251586,-3.0787066985509155e-05,0.24417030969923764,9.301912131133355e-05,0.9373658200267779,,,,,1.079,-0.8725493495941989,0.6419999999999999,-1.7059849795850064,1.1428571428571428,0.5,0.4,0.5,3.2777777777777777,3.25,2.2222222222222223,2.6666666666666665,1.5,3.4444444444444446,2.0,1.75,2.0,0.75,,,,,,,,,,,,
41,240627_093447,LEARNING,1.0,42,3.0,1068.0,,,,,,,,,,42.0,42.0,42.0,cue1.png,Hard,B,,,,,,,,,,,,,,,,,,,,,,,,,,,30,28,Female,0.5833333333333334,0.75,0.5489258272573352,-4.911676667849552e-05,0.1615226282078755,-2.5935170166844525e-05,-0.33888248419163286,0.0006178635357068467,0.550416471315819,0.0010848015283673879,1.42489327673329,,,,,1.1428571428571428,0.5,0.4,0.5,3.2777777777777777,3.25,2.2222222222222223,2.6666666666666665,1.5,3.4444444444444446,2.0,1.75,2.0,0.75,,,,,,,,,,,,
42,240627_093511,LEARNING,1.0,43,3.0,1068.0,,,,,,,,,,43.0,43.0,43.0,cue1.png,Hard,B,,,,,,,,,,,,,,,,,,,,,,,,,,,30,28,Female,0.84375,0.7840909090909091,0.5504756599199027,-9.424428993782619e-05,-0.041955073625849444,-6.171211903506849e-05,-0.7227296725173764,-0.0005521214778949225,-1.0555211761590693,-6.767159260474657e-05,-0.09809643893801481,1.626,0.02765287996742057,1.241,-0.4755176732889625,1.1428571428571428,0.5,0.4,0.5,3.2777777777777777,3.25,2.2222222222222223,2.6666666666666665,1.5,3.4444444444444446,2.0,1.75,2.0,0.75,,,,,,,,,,,,
43,240627_093532,LEARNING,1.0,44,1.0,1068.0,,,,,,,,,,44.0,44.0,44.0,cue2.png,Easy,B,,,,,,,,,,,,,,,,,,,,,,,,,,,30,28,Female,1.0,1.0,0.4282644181935625,-0.0008023700279250383,-3.234857926878636,-1.7415771445920825e-06,-0.07931192407220759,-0.00031605179673706643,-0.7314886595102414,-0.0015816815448767719,-2.098855974908181,,,1.1529999999999998,-0.6562874945812033,1.1428571428571428,0.5,0.4,0.5,3.2777777777777777,3.25,2.2222222222222223,2.6666666666666665,1.5,3.4444444444444446,2.0,1.75,2.0,0.75,,,,,,,,,,,,
44,240627_093554,LEARNING,1.0,45,1.0,1068.0,,,,,,,,,,45.0,45.0,45.0,cue2.png,Easy,B,,,,,,,,,,,,,,,,,,,,,,,,,,,30,28,Female,1.0,1.0,0.4890747181859545,-2.056585027278464e-05,0.2902572547925433,-9.542068666078696e-05,-1.0843854121747123,,,-0.0003354603466914057,-0.45197846102143924,1.964,0.5839021552724069,,,1.1428571428571428,0.5,0.4,0.5,3.2777777777777777,3.25,2.2222222222222223,2.6666666666666665,1.5,3.4444444444444446,2.0,1.75,2.0,0.75,,,,,,,,,,,,
45,240627_093616,LEARNING,1.0,46,1.0,1068.0,,,,,,,,,,46.0,46.0,46.0,cue2.png,Easy,B,,,,,,,,,,,,,,,,,,,,,,,,,,,30,28,Female,1.0,1.0,0.4573228545486927,,,,,,,0.0006356631196178103,0.831358238916889,,,0.9999999999999998,-0.9705804793279389,1.1428571428571428,0.5,0.4,0.5,3.2777777777777777,3.25,2.2222222222222223,2.6666666666666665,1.5,3.4444444444444446,2.0,1.75,2.0,0.75,,,,,,,,,,,,
46,240627_093639,LEARNING,1.0,47,3.0,1068.0,,,,,,,,,,47.0,47.0,47.0,cue1.png,Hard,B,,,,,,,,,,,,,,,,,,,,,,,,,,,30,28,Female,0.5833333333333334,0.75,0.5223925818519836,,,,,,,,,0.9389999999999998,-1.1029484577086905,1.662,0.3893015853932313,1.1428571428571428,0.5,0.4,0.5,3.2777777777777777,3.25,2.2222222222222223,2.6666666666666665,1.5,3.4444444444444446,2.0,1.75,2.0,0.75,,,,,,,,,,,,
47,240627_093701,LEARNING,1.0,48,3.0,1068.0,,,,,,,,,,48.0,48.0,48.0,cue1.png,Hard,B,,,,,,,,,,,,,,,,,,,,,,,,,,,30,28,Female,0.5833333333333334,0.75,0.5001860455059531,-0.00025635399659086665,-0.7728994767818498,3.796178647062255e-05,0.3466613624399497,0.0010385908916504573,1.1279126720170602,-8.606508091887205e-05,-0.12240337766653267,1.2539999999999998,-0.584550464451085,2.158,1.4081860326767663,1.1428571428571428,0.5,0.4,0.5,3.2777777777777777,3.25,2.2222222222222223,2.6666666666666665,1.5,3.4444444444444446,2.0,1.75,2.0,0.75,,,,,,,,,,,,
48,240627_093723,LEARNING,1.0,49,1.0,1068.0,,,,,,,,,,49.0,49.0,49.0,cue2.png,Easy,B,,,,,,,,,,,,,,,,,,,,,,,,,,,30,28,Female,1.0,1.0,0.4626468363726003,,,,,0.0006422072876298979,0.5838310426475196,0.0007043093018746921,0.9220739594788931,,,,,1.1428571428571428,0.5,0.4,0.5,3.2777777777777777,3.25,2.2222222222222223,2.6666666666666665,1.5,3.4444444444444446,2.0,1.75,2.0,0.75,,,,,,,,,,,,
49,240627_093745,LEARNING,1.0,50,1.0,1068.0,,,,,,,,,,50.0,50.0,50.0,cue2.png,Easy,B,,,,,,,,,,,,,,,,,,,,,,,,,,,30,28,Female,1.0,1.0,0.4841012090910226,,,,,0.00021505828935414022,-0.002479593332739399,0.0016900044293207076,2.2246670651830005,2.07,0.7583471942733786,2.6319999999999997,2.381878024637241,1.1428571428571428,0.5,0.4,0.5,3.2777777777777777,3.25,2.2222222222222223,2.6666666666666665,1.5,3.4444444444444446,2.0,1.75,2.0,0.75,,,,,,,,,,,,
0,240627_093907,TrueCHOICE,9.0,1,1.0,1068.0,,,,,,,,,,,1.0,1.0,,,B,,,,,,True,cue2.png,Easy,cue1.png,Hard,Left,Easy,Easy,0.0145320000592619,,,,,,,,,,,,,30,28,Female,0.84375,0.875,0.5144950273150409,,,,,,,,,,,,,1.1428571428571428,0.5,0.4,0.5,3.2777777777777777,3.25,2.2222222222222223,2.6666666666666665,1.5,3.4444444444444446,2.0,1.75,2.0,0.75,,,1.8901314972069247e-05,-0.42483799232163716,1.455,-0.7627085852453634,,,,,,
1,240627_093927,TrueCHOICE,9.0,2,1.0,1068.0,,,,,,,,,,,2.0,2.0,,,B,,,,,,True,cue2.png,Easy,cue1.png,Hard,Left,Easy,Easy,0.0160675998777151,,,,,,,,,,,,,30,28,Female,,,,,,,,,,,,,,,,1.1428571428571428,0.5,0.4,0.5,3.2777777777777777,3.25,2.2222222222222223,2.6666666666666665,1.5,3.4444444444444446,2.0,1.75,2.0,0.75,-6.408193752791046e-05,0.0752840208467183,0.0007305073060762182,1.5242635876213904,1.467,-0.7421872780190308,,,,,,
2,240627_093949,TrueCHOICE,9.0,3,3.0,1068.0,,,,,,,,,,,3.0,3.0,,,B,,,,,,True,cue1.png,Hard,cue2.png,Easy,Left,Hard,Hard,0.0163671001791954,,,,,,,,,,,,,30,28,Female,0.84375,0.7840909090909091,0.5377928199712187,,,,,,,,,,,,,1.1428571428571428,0.5,0.4,0.5,3.2777777777777777,3.25,2.2222222222222223,2.6666666666666665,1.5,3.4444444444444446,2.0,1.75,2.0,0.75,,,0.00046554558427851916,0.7985286766786078,,,,,,,,
3,240627_094009,TrueCHOICE,9.0,4,1.0,1068.0,,,,,,,,,,,4.0,4.0,,,B,,,,,,True,cue2.png,Easy,cue1.png,Hard,Left,Easy,Easy,0.016039100009948,,,,,,,,,,,,,30,28,Female,1.0,1.0,0.4574784454677931,,,,,,,,,,,,,1.1428571428571428,0.5,0.4,0.5,3.2777777777777777,3.25,2.2222222222222223,2.6666666666666665,1.5,3.4444444444444446,2.0,1.75,2.0,0.75,-0.0001839635812351456,-1.6713459027564672,-0.00023429363808209758,-1.1183435125123031,,,,,,,,
4,240627_094030,TrueCHOICE,9.0,5,3.0,1068.0,,,,,,,,,,,5.0,5.0,,,B,,,,,,True,cue1.png,Hard,cue2.png,Easy,Left,Hard,Hard,0.0161323000211268,,,,,,,,,,,,,30,28,Female,1.0,1.0,0.5603936090430414,,,,,,,,,,,,,1.1428571428571428,0.5,0.4,0.5,3.2777777777777777,3.25,2.2222222222222223,2.6666666666666665,1.5,3.4444444444444446,2.0,1.75,2.0,0.75,,,,,1.5739999999999998,-0.5592056219175652,,,,,,
5,240627_094049,TrueCHOICE,9.0,6,1.0,1068.0,,,,,,,,,,,6.0,6.0,,,B,,,,,,True,cue1.png,Hard,cue2.png,Easy,Right,Easy,Easy,0.0162115001585334,,,,,,,,,,,,,30,28,Female,0.84375,0.875,0.6331169727385383,,,,,,,,,,,,,1.1428571428571428,0.5,0.4,0.5,3.2777777777777777,3.25,2.2222222222222223,2.6666666666666665,1.5,3.4444444444444446,2.0,1.75,2.0,0.75,-6.074443406913627e-06,0.9204311333804629,,,,,,,,,,
6,240627_094110,TrueCHOICE,9.0,7,1.0,1068.0,,,,,,,,,,,7.0,7.0,,,B,,,,,,True,cue2.png,Easy,cue1.png,Hard,Left,Easy,Easy,0.0160698001272976,,,,,,,,,,,,,30,28,Female,,,,,,,,,,,,,,,,1.1428571428571428,0.5,0.4,0.5,3.2777777777777777,3.25,2.2222222222222223,2.6666666666666665,1.5,3.4444444444444446,2.0,1.75,2.0,0.75,,,,,,,,,,,,
7,240627_094130,TrueCHOICE,9.0,8,3.0,1068.0,,,,,,,,,,,8.0,8.0,,,B,,,,,,True,cue1.png,Hard,cue2.png,Easy,Left,Hard,Hard,0.0160984001122415,,,,,,,,,,,,,30,28,Female,0.5833333333333334,0.75,0.4705748272509398,,,,,,,,,,,,,1.1428571428571428,0.5,0.4,0.5,3.2777777777777777,3.25,2.2222222222222223,2.6666666666666665,1.5,3.4444444444444446,2.0,1.75,2.0,0.75,5.425649495297696e-06,1.087983110197466,,,2.998,1.875989502273909,,,,,,
8,240627_094151,TrueCHOICE,9.0,9,3.0,1068.0,,,,,,,,,,,9.0,9.0,,,B,,,,,,True,cue2.png,Easy,cue1.png,Hard,Right,Hard,Hard,0.0163606000132858,,,,,,,,,,,,,30,28,Female,0.84375,0.875,0.5393637545533817,,,,,,,,,,,,,1.1428571428571428,0.5,0.4,0.5,3.2777777777777777,3.25,2.2222222222222223,2.6666666666666665,1.5,3.4444444444444446,2.0,1.75,2.0,0.75,-9.755133495283237e-05,-0.4123523616681795,,,,,,,,,,
9,240627_094210,TrueCHOICE,9.0,10,3.0,1068.0,,,,,,,,,,,10.0,10.0,,,B,,,,,,True,cue1.png,Hard,cue2.png,Easy,Left,Hard,Hard,0.0160836998838931,,,,,,,,,,,,,30,28,Female,1.0,1.0,0.4975253545721484,,,,,,,,,,,,,1.1428571428571428,0.5,0.4,0.5,3.2777777777777777,3.25,2.2222222222222223,2.6666666666666665,1.5,3.4444444444444446,2.0,1.75,2.0,0.75,,,-0.00011062422088427455,-0.7796107594660578,2.011,0.188111982908049,,,,,,
0,240627_094358,FalseCHOICE,9.0,1,2.0,1068.0,,,,,,,,,,,1.0,1.0,,,B,,,,,,False,cue2.png,Easy,cue1.png,Hard,Left,Easy,Mid,0.016071000136435,,,,,,,,,,,,,30,28,Female,1.0,1.0,0.5669403091200035,,,,,,,,,,,,,1.1428571428571428,0.5,0.4,0.5,3.2777777777777777,3.25,2.2222222222222223,2.6666666666666665,1.5,3.4444444444444446,2.0,1.75,2.0,0.75,,,1.8901314972069247e-05,-0.42483799232163716,1.455,-0.7627085852453634,,,,,,
1,240627_094418,FalseCHOICE,9.0,2,2.0,1068.0,,,,,,,,,,,2.0,2.0,,,B,,,,,,False,cue1.png,Hard,cue2.png,Easy,Left,Hard,Mid,0.0166275999508798,,,,,,,,,,,,,30,28,Female,,,,,,,,,,,,,,,,1.1428571428571428,0.5,0.4,0.5,3.2777777777777777,3.25,2.2222222222222223,2.6666666666666665,1.5,3.4444444444444446,2.0,1.75,2.0,0.75,-6.408193752791046e-05,0.0752840208467183,0.0007305073060762182,1.5242635876213904,1.467,-0.7421872780190308,,,,,,
2,240627_094439,FalseCHOICE,9.0,3,2.0,1068.0,,,,,,,,,,,3.0,3.0,,,B,,,,,,False,cue1.png,Hard,cue2.png,Easy,Right,Easy,Mid,0.0167093002237379,,,,,,,,,,,,,30,28,Female,,,,,,,,,,,,,,,,1.1428571428571428,0.5,0.4,0.5,3.2777777777777777,3.25,2.2222222222222223,2.6666666666666665,1.5,3.4444444444444446,2.0,1.75,2.0,0.75,,,0.00046554558427851916,0.7985286766786078,,,,,,,,
3,240627_094459,FalseCHOICE,9.0,4,2.0,1068.0,,,,,,,,,,,4.0,4.0,,,B,,,,,,False,cue1.png,Hard,cue2.png,Easy,Right,Easy,Mid,0.0164415999315679,,,,,,,,,,,,,30,28,Female,0.84375,0.875,0.5031552545683966,,,,,,,,,,,,,1.1428571428571428,0.5,0.4,0.5,3.2777777777777777,3.25,2.2222222222222223,2.6666666666666665,1.5,3.4444444444444446,2.0,1.75,2.0,0.75,-0.0001839635812351456,-1.6713459027564672,-0.00023429363808209758,-1.1183435125123031,,,,,,,,
4,240627_094520,FalseCHOICE,9.0,5,2.0,1068.0,,,,,,,,,,,5.0,5.0,,,B,,,,,,False,cue2.png,Easy,cue1.png,Hard,Left,Easy,Mid,0.0160288999322801,,,,,,,,,,,,,30,28,Female,,,,,,,,,,,,,,,,1.1428571428571428,0.5,0.4,0.5,3.2777777777777777,3.25,2.2222222222222223,2.6666666666666665,1.5,3.4444444444444446,2.0,1.75,2.0,0.75,,,,,1.5739999999999998,-0.5592056219175652,,,,,,
5,240627_094541,FalseCHOICE,9.0,6,2.0,1068.0,,,,,,,,,,,6.0,6.0,,,B,,,,,,False,cue1.png,Hard,cue2.png,Easy,Left,Hard,Mid,0.0161931999027729,,,,,,,,,,,,,30,28,Female,1.0,1.0,0.4934002454604276,,,,,,,,,,,,,1.1428571428571428,0.5,0.4,0.5,3.2777777777777777,3.25,2.2222222222222223,2.6666666666666665,1.5,3.4444444444444446,2.0,1.75,2.0,0.75,-6.074443406913627e-06,0.9204311333804629,,,,,,,,,,
6,240627_094601,FalseCHOICE,9.0,7,2.0,1068.0,,,,,,,,,,,7.0,7.0,,,B,,,,,,False,cue1.png,Hard,cue2.png,Easy,Right,Easy,Mid,0.0158323999494314,,,,,,,,,,,,,30,28,Female,1.0,1.0,0.4791645454454489,,,,,,,,,,,,,1.1428571428571428,0.5,0.4,0.5,3.2777777777777777,3.25,2.2222222222222223,2.6666666666666665,1.5,3.4444444444444446,2.0,1.75,2.0,0.75,,,,,,,,,,,,
7,240627_094622,FalseCHOICE,9.0,8,2.0,1068.0,,,,,,,,,,,8.0,8.0,,,B,,,,,,False,cue2.png,Easy,cue1.png,Hard,Left,Easy,Mid,0.0173063001129776,,,,,,,,,,,,,30,28,Female,,,,,,,,,,,,,,,,1.1428571428571428,0.5,0.4,0.5,3.2777777777777777,3.25,2.2222222222222223,2.6666666666666665,1.5,3.4444444444444446,2.0,1.75,2.0,0.75,5.425649495297696e-06,1.087983110197466,,,2.998,1.875989502273909,,,,,,
8,240627_094642,FalseCHOICE,9.0,9,2.0,1068.0,,,,,,,,,,,9.0,9.0,,,B,,,,,,False,cue2.png,Easy,cue1.png,Hard,Left,Easy,Mid,0.0158069999888539,,,,,,,,,,,,,30,28,Female,0.84375,0.875,0.6110201818148859,,,,,,,,,,,,,1.1428571428571428,0.5,0.4,0.5,3.2777777777777777,3.25,2.2222222222222223,2.6666666666666665,1.5,3.4444444444444446,2.0,1.75,2.0,0.75,-9.755133495283237e-05,-0.4123523616681795,,,,,,,,,,
9,240627_094703,FalseCHOICE,9.0,10,2.0,1068.0,,,,,,,,,,,10.0,10.0,,,B,,,,,,False,cue1.png,Hard,cue2.png,Easy,Right,Easy,Mid,0.0155001000966876,,,,,,,,,,,,,30,28,Female,,,,,,,,,,,,,,,,1.1428571428571428,0.5,0.4,0.5,3.2777777777777777,3.25,2.2222222222222223,2.6666666666666665,1.5,3.4444444444444446,2.0,1.75,2.0,0.75,,,-0.00011062422088427455,-0.7796107594660578,2.011,0.188111982908049,,,,,,
0,240627_091846,OFFLINERATING,9.0,1,1.0,,,,,,,,,,,,,,,,,T0,cue2.png,Easy,70.0,2.55874040001072,,,,,,,,,,,,,,,,,,,,,,30,28,Female,,,,,,,,,,,,,,,,1.1428571428571428,0.5,0.4,0.5,3.2777777777777777,3.25,2.2222222222222223,2.6666666666666665,1.5,3.4444444444444446,2.0,1.75,2.0,0.75,,,,,,,,,,,,
1,240627_091855,OFFLINERATING,9.0,2,3.0,,,,,,,,,,,,,,,,,T0,cue1.png,Hard,70.0,2.1857289001345634,,,,,,,,,,,,,,,,,,,,,,30,28,Female,,,,,,,,,,,,,,,,1.1428571428571428,0.5,0.4,0.5,3.2777777777777777,3.25,2.2222222222222223,2.6666666666666665,1.5,3.4444444444444446,2.0,1.75,2.0,0.75,,,,,,,,,,,1.5779999999999998,0.8027006342826858
2,240627_093808,OFFLINERATING,9.0,3,1.0,,,,,,,,,,,,,,,,,T1,cue2.png,Easy,96.0,1.9133084998466077,,,,,,,,,,,,,,,,,,,,,,30,28,Female,,,,,,,,,,,,,,,,1.1428571428571428,0.5,0.4,0.5,3.2777777777777777,3.25,2.2222222222222223,2.6666666666666665,1.5,3.4444444444444446,2.0,1.75,2.0,0.75,,,,,,,,,,,,
3,240627_093816,OFFLINERATING,9.0,4,3.0,,,,,,,,,,,,,,,,,T1,cue1.png,Hard,47.0,1.9520653998479247,,,,,,,,,,,,,,,,,,,,,,30,28,Female,,,,,,,,,,,,,,,,1.1428571428571428,0.5,0.4,0.5,3.2777777777777777,3.25,2.2222222222222223,2.6666666666666665,1.5,3.4444444444444446,2.0,1.75,2.0,0.75,,,,,,,,,-0.00016394391185659343,-0.460528587706808,,
4,240627_094234,OFFLINERATING,9.0,5,1.0,,,,,,,,,,,,,,,,,T2,cue2.png,Easy,80.0,2.1703665000386536,,,,,,,,,,,,,,,,,,,,,,30,28,Female,,,,,,,,,,,,,,,,1.1428571428571428,0.5,0.4,0.5,3.2777777777777777,3.25,2.2222222222222223,2.6666666666666665,1.5,3.4444444444444446,2.0,1.75,2.0,0.75,,,,,,,7.819199498481071e-05,1.5286109181548748,0.000210043826729343,1.3435013171014552,1.445,0.6069917720286124
5,240627_094242,OFFLINERATING,9.0,6,3.0,,,,,,,,,,,,,,,,,T2,cue1.png,Hard,59.0,1.5188420999329535,,,,,,,,,,,,,,,,,,,,,,30,28,Female,,,,,,,,,,,,,,,,1.1428571428571428,0.5,0.4,0.5,3.2777777777777777,3.25,2.2222222222222223,2.6666666666666665,1.5,3.4444444444444446,2.0,1.75,2.0,0.75,,,,,,,-6.353804464868723e-05,-1.083644261987863,,,,
6,240627_100133,OFFLINERATING,9.0,7,1.0,,,,,,,,,,,,,,,,,T3,cue2.png,Easy,69.0,1.8933610999956727,,,,,,,,,,,,,,,,,,,,,,30,28,Female,,,,,,,,,,,,,,,,1.1428571428571428,0.5,0.4,0.5,3.2777777777777777,3.25,2.2222222222222223,2.6666666666666665,1.5,3.4444444444444446,2.0,1.75,2.0,0.75,,,,,,,-4.077580520342851e-05,-0.6641087982549307,2.5024137943403454e-05,0.45100935249803425,,
7,240627_100142,OFFLINERATING,9.0,8,3.0,,,,,,,,,,,,,,,,,T3,cue1.png,Hard,67.0,2.470541999908164,,,,,,,,,,,,,,,,,,,,,,30,28,Female,,,,,,,,,,,,,,,,1.1428571428571428,0.5,0.4,0.5,3.2777777777777777,3.25,2.2222222222222223,2.6666666666666665,1.5,3.4444444444444446,2.0,1.75,2.0,0.75,,,,,,,7.145696391326183e-06,0.21914214208791905,-0.00034501679550442716,-1.3339820818926813,0.07450000000000001,-1.4096924063112983
