,END,Phase,Block,TrialN,NbackLevel,ISI,Letter_Resp,Letter_RT,Letter_Accuracy,Trial_A_measure,Trial_ACC,Trial_RT,TrialCountCali,CaliEnd_A_measure,ISI_calibrated,TrialIndex,TrialNumber_total,TrialNumber_valid,CueLearning,TrialDemandLearning,CueMapping,OfflineRatingTimePoint,CueFigure,TrialDemand,OfflineRating,OfflineRatingRT,PhaseType,CueLeft,CueDemandLeft,CueRight,CueDemandRight,Choice,ChoiceDemand,TaskDemand,ChoiceRT,CueCheck,CueDemandCheck,CorrectAnswer,Answer,AnswerDemand,AnswerRT,AnswerACC,DemandRatingQuesIndex,QuesTLX,DemandLevel,DemandRating,DemandRatingRT,PID,Age,Gender,Task_A_measure,Task_ACC,Task_RT,cue_i_on_zyg_values,cue_i_on_zyg_zvalues,cue_e_on_zyg_values,cue_e_on_zyg_zvalues,cue_i_on_cor_values,cue_i_on_cor_zvalues,cue_e_on_cor_values,cue_e_on_cor_zvalues,cue_i_on_scr_values,cue_i_on_scr_zvalues,cue_e_on_scr_values,cue_e_on_scr_zvalues,BAI_bis,BAI_bas_d,BAI_bas_rr,BAI_bas_fs,NFC,BFI_ext,BFI_agr,BFI_con,BFI_neu,BFI_open,UPPS_lps,UPPS_lpm,UPPS_pu,UPPS_ss,cue_e_true_zyg_values,cue_e_true_zyg_zvalues,cue_e_true_cor_values,cue_e_true_cor_zvalues,cue_e_true_scr_values,cue_e_true_scr_zvalues,cue_i_off_zyg_values,cue_i_off_zyg_zvalues,cue_i_off_cor_values,cue_i_off_cor_zvalues,cue_i_off_scr_values,cue_i_off_scr_zvalues
0,240628_092754,LEARNING,1.0,1,1.0,1068.0,,,,,,,,,,1.0,1.0,1.0,cue2.png,Easy,B,,,,,,,,,,,,,,,,,,,,,,,,,,,32,22,Female,0.5833333333333334,0.75,0.5219969817818227,-0.00010851362469841081,-0.6493203108028431,0.00034768913895754207,0.16477299882133234,,,,,1.225,-0.3839121917912334,,,0.2857142857142857,0.5,0.2,1.25,1.5,2.0,2.888888888888889,3.0,2.625,1.6666666666666667,2.25,2.25,2.75,1.25,,,,,,,,,,,,
1,240628_092817,LEARNING,1.0,2,3.0,1068.0,,,,,,,,,,2.0,2.0,2.0,cue1.png,Hard,B,,,,,,,,,,,,,,,,,,,,,,,,,,,32,22,Female,0.84375,0.875,0.560424890877171,-9.006504429325771e-05,-0.5497993039925704,0.00031457499952892466,0.09535696509688003,-0.00030516112625742983,-0.08291165031457189,-0.0004773958770466855,-0.45513970288187133,1.95,1.0677576237715676,1.5910000000000002,0.20648169471236824,0.2857142857142857,0.5,0.2,1.25,1.5,2.0,2.888888888888889,3.0,2.625,1.6666666666666667,2.25,2.25,2.75,1.25,,,,,,,,,,,,
2,240628_092839,LEARNING,1.0,3,1.0,1068.0,,,,,,,,,,3.0,3.0,3.0,cue2.png,Easy,B,,,,,,,,,,,,,,,,,,,,,,,,,,,32,22,Female,0.84375,0.875,0.4880185091698711,,,0.0006814958709627488,0.8645205920291352,-0.0012973023165827845,-1.5126752592638002,-0.0002560832227268238,-0.13360321063709393,,,1.579,0.1867039519412156,0.2857142857142857,0.5,0.2,1.25,1.5,2.0,2.888888888888889,3.0,2.625,1.6666666666666667,2.25,2.25,2.75,1.25,,,,,,,,,,,,
3,240628_092904,LEARNING,1.0,4,3.0,1068.0,,,,,,,,,,4.0,4.0,4.0,cue1.png,Hard,B,,,,,,,,,,,,,,,,,,,,,,,,,,,32,22,Female,0.84375,0.875,0.7389859454494647,,,0.0001946454095389039,-0.15604731739256553,0.001259579317084706,2.1720183587983604,-0.00012795487496673145,0.052549450278336456,1.57,0.30688241009727196,1.4969999999999999,0.05155604300500839,0.2857142857142857,0.5,0.2,1.25,1.5,2.0,2.888888888888889,3.0,2.625,1.6666666666666667,2.25,2.25,2.75,1.25,,,,,,,,,,,,
4,240628_092929,LEARNING,1.0,5,3.0,1068.0,,,,,,,,,,5.0,5.0,5.0,cue1.png,Hard,B,,,,,,,,,,,,,,,,,,,,,,,,,,,32,22,Female,0.5833333333333334,0.75,0.7687487727327441,,,-0.0002108479872537654,-1.0060692050964395,-0.0009668486186990323,-1.0364621191542223,0.00016745187321220902,0.48173435110019813,1.4369999999999998,0.04057608531126794,1.459,-0.011073475770306778,0.2857142857142857,0.5,0.2,1.25,1.5,2.0,2.888888888888889,3.0,2.625,1.6666666666666667,2.25,2.25,2.75,1.25,,,,,,,,,,,,
5,240628_092951,LEARNING,1.0,6,1.0,1068.0,,,,,,,,,,6.0,6.0,6.0,cue2.png,Easy,B,,,,,,,,,,,,,,,,,,,,,,,,,,,32,22,Female,1.0,1.0,0.4728032636710189,0.00010865095837981655,0.5221756784192593,0.0009218558471022777,1.3683789588055633,-0.0005664347862618683,-0.4594302090580281,0.00023608246025861365,0.5814450444964608,,,1.182,-0.4676097047377383,0.2857142857142857,0.5,0.2,1.25,1.5,2.0,2.888888888888889,3.0,2.625,1.6666666666666667,2.25,2.25,2.75,1.25,,,,,,,,,,,,
6,240628_093016,LEARNING,1.0,7,3.0,1068.0,,,,,,,,,,7.0,7.0,7.0,cue1.png,Hard,B,,,,,,,,,,,,,,,,,,,,,,,,,,,32,22,Female,0.84375,0.875,0.6564771272877062,0.00014118859467194102,0.6977002039873191,-5.580543370161794e-05,-0.6810588224681621,3.78707265084122e-05,0.41142772857382504,-0.00026175842440454185,-0.1418484890006067,,,,,0.2857142857142857,0.5,0.2,1.25,1.5,2.0,2.888888888888889,3.0,2.625,1.6666666666666667,2.25,2.25,2.75,1.25,,,,,,,,,,,,
7,240628_093040,LEARNING,1.0,8,3.0,1068.0,,,,,,,,,,8.0,8.0,8.0,cue1.png,Hard,B,,,,,,,,,,,,,,,,,,,,,,,,,,,32,22,Female,0.84375,0.875,0.6532984999304806,0.00010030484717665766,0.4771525182818614,0.0004016251310136258,0.2778371674251311,-0.0022062746986342098,-2.8225852257785835,,,,,,,0.2857142857142857,0.5,0.2,1.25,1.5,2.0,2.888888888888889,3.0,2.625,1.6666666666666667,2.25,2.25,2.75,1.25,,,,,,,,,,,,
8,240628_093103,LEARNING,1.0,9,1.0,1068.0,,,,,,,,,,9.0,9.0,9.0,cue2.png,Easy,B,,,,,,,,,,,,,,,,,,,,,,,,,,,32,22,Female,0.84375,0.875,0.5562668090728535,5.3764500889073256e-05,0.22609026752215547,0.00016381914269689374,-0.22066736235301782,-0.0005844971610721181,-0.48545969603702105,-0.001401621567805494,-1.797911030451747,1.159,-0.5160642025872955,,,0.2857142857142857,0.5,0.2,1.25,1.5,2.0,2.888888888888889,3.0,2.625,1.6666666666666667,2.25,2.25,2.75,1.25,,,,,,,,,,,,
9,240628_093126,LEARNING,1.0,10,1.0,1068.0,,,,,,,,,,10.0,10.0,10.0,cue2.png,Easy,B,,,,,,,,,,,,,,,,,,,,,,,,,,,32,22,Female,1.0,1.0,0.5712039272554896,,,6.271922516776305e-05,-0.4325996488576923,-0.00031834461548229786,-0.10191022966647773,-0.0005261866846332985,-0.5260259573231362,-0.17400000000000015,-3.1851343600289703,0.274,-1.9641255744215924,0.2857142857142857,0.5,0.2,1.25,1.5,2.0,2.888888888888889,3.0,2.625,1.6666666666666667,2.25,2.25,2.75,1.25,,,,,,,,,,,,
10,240628_093150,LEARNING,1.0,11,3.0,1068.0,,,,,,,,,,11.0,11.0,11.0,cue1.png,Hard,B,,,,,,,,,,,,,,,,,,,,,,,,,,,32,22,Female,0.84375,0.875,0.6995972818271681,0.00027307812250613756,1.4091792614287482,,,0.0005036317597814054,1.0826307613013921,0.00038266561588567224,0.7944099733539647,,,1.161,-0.5022207545872546,0.2857142857142857,0.5,0.2,1.25,1.5,2.0,2.888888888888889,3.0,2.625,1.6666666666666667,2.25,2.25,2.75,1.25,,,,,,,,,,,,
11,240628_093214,LEARNING,1.0,12,1.0,1068.0,,,,,,,,,,12.0,12.0,12.0,cue2.png,Easy,B,,,,,,,,,,,,,,,,,,,,,,,,,,,32,22,Female,1.0,1.0,0.6090620181692595,-7.243614772160919e-05,-0.45470008783420557,0.00010475863933344723,-0.34447386809349645,-0.0006437824408095883,-0.5708950517520813,-0.0013706897101220857,-1.7529713452416853,1.028,-0.7783659209855396,,,0.2857142857142857,0.5,0.2,1.25,1.5,2.0,2.888888888888889,3.0,2.625,1.6666666666666667,2.25,2.25,2.75,1.25,,,,,,,,,,,,
12,240628_093236,LEARNING,1.0,13,1.0,1068.0,,,,,,,,,,13.0,13.0,13.0,cue2.png,Easy,B,,,,,,,,,,,,,,,,,,,,,,,,,,,32,22,Female,1.0,1.0,0.4608623272400688,1.0923395517272935e-05,-0.005016400082233229,5.607128763916551e-06,-0.5523217759747099,0.0007551789197629017,1.4451325692931876,0.00019110944781895126,0.5161055151777705,,,,,0.2857142857142857,0.5,0.2,1.25,1.5,2.0,2.888888888888889,3.0,2.625,1.6666666666666667,2.25,2.25,2.75,1.25,,,,,,,,,,,,
13,240628_093300,LEARNING,1.0,14,1.0,1068.0,,,,,,,,,,14.0,14.0,14.0,cue2.png,Easy,B,,,,,,,,,,,,,,,,,,,,,,,,,,,32,22,Female,0.5833333333333334,0.75,0.6602707000195303,-9.715666169057531e-05,-0.5880550877870329,-6.756542696945795e-05,-0.7057108926522428,-0.00010183500317951979,0.21009935896546328,0.000527156876780786,1.0043356702420092,,,,,0.2857142857142857,0.5,0.2,1.25,1.5,2.0,2.888888888888889,3.0,2.625,1.6666666666666667,2.25,2.25,2.75,1.25,,,,,,,,,,,,
14,240628_093324,LEARNING,1.0,15,3.0,1068.0,,,,,,,,,,15.0,15.0,15.0,cue1.png,Hard,B,,,,,,,,,,,,,,,,,,,,,,,,,,,32,22,Female,0.84375,0.875,0.6935281636913053,,,0.0012222756115011155,1.9981385979456838,,,-0.0007911688138456975,-0.9110081202109668,,,,,0.2857142857142857,0.5,0.2,1.25,1.5,2.0,2.888888888888889,3.0,2.625,1.6666666666666667,2.25,2.25,2.75,1.25,,,,,,,,,,,,
15,240628_093348,LEARNING,1.0,16,1.0,1068.0,,,,,,,,,,16.0,16.0,16.0,cue2.png,Easy,B,,,,,,,,,,,,,,,,,,,,,,,,,,,32,22,Female,1.0,1.0,0.593424827220257,1.4298956065667001e-05,0.013193086878149851,6.434749061789719e-05,-0.4291863718905369,,,,,,,,,0.2857142857142857,0.5,0.2,1.25,1.5,2.0,2.888888888888889,3.0,2.625,1.6666666666666667,2.25,2.25,2.75,1.25,,,,,,,,,,,,
16,240628_093409,LEARNING,1.0,17,1.0,1068.0,,,,,,,,,,17.0,17.0,17.0,cue2.png,Easy,B,,,,,,,,,,,,,,,,,,,,,,,,,,,32,22,Female,1.0,1.0,0.438263309082355,-1.9057299773814554e-05,-0.1667474880421294,-0.00015268580389481796,-0.8841458167433861,,,-0.0005522530557583371,-0.5638967675705342,,,,,0.2857142857142857,0.5,0.2,1.25,1.5,2.0,2.888888888888889,3.0,2.625,1.6666666666666667,2.25,2.25,2.75,1.25,,,,,,,,,,,,
17,240628_093434,LEARNING,1.0,18,3.0,1068.0,,,,,,,,,,18.0,18.0,18.0,cue1.png,Hard,B,,,,,,,,,,,,,,,,,,,,,,,,,,,32,22,Female,1.0,1.0,0.6709286454768683,0.00019817699982335388,1.0051245874697554,3.482733294556551e-06,-0.5567750732697538,,,0.000317681226112752,0.6999966972470641,,,,,0.2857142857142857,0.5,0.2,1.25,1.5,2.0,2.888888888888889,3.0,2.625,1.6666666666666667,2.25,2.25,2.75,1.25,,,,,,,,,,,,
18,240628_093458,LEARNING,1.0,19,3.0,1068.0,,,,,,,,,,19.0,19.0,19.0,cue1.png,Hard,B,,,,,,,,,,,,,,,,,,,,,,,,,,,32,22,Female,0.84375,0.875,0.6893710636703129,-3.9530920723398425e-05,-0.2771925914163352,0.00018776426072566934,-0.17047203343001952,0.0016446348848922366,2.7269176449513224,-0.0003147324805783695,-0.21881242156224195,,,,,0.2857142857142857,0.5,0.2,1.25,1.5,2.0,2.888888888888889,3.0,2.625,1.6666666666666667,2.25,2.25,2.75,1.25,,,,,,,,,,,,
19,240628_093523,LEARNING,1.0,20,3.0,1068.0,,,,,,,,,,20.0,20.0,20.0,cue1.png,Hard,B,,,,,,,,,,,,,,,,,,,,,,,,,,,32,22,Female,0.84375,0.7840909090909091,0.6395071699749678,-0.00010233368000539143,-0.6159825523209332,,,-0.00045017568543473125,-0.29189051491702594,-0.0018118013349087388,-2.3938451577138085,2.474,2.1169644973645445,1.3649999999999998,-0.16599912747766662,0.2857142857142857,0.5,0.2,1.25,1.5,2.0,2.888888888888889,3.0,2.625,1.6666666666666667,2.25,2.25,2.75,1.25,,,,,,,,,,,,
20,240628_093546,LEARNING,1.0,21,1.0,1068.0,,,,,,,,,,21.0,21.0,21.0,cue2.png,Easy,B,,,,,,,,,,,,,,,,,,,,,,,,,,,32,22,Female,1.0,1.0,0.5550022182181816,,,-0.00013394066524044252,-0.8448510260752903,-0.0001361132835718216,0.1607013112277223,0.0006457648599227589,1.1766565660755515,1.2720000000000002,-0.289803941678886,0.679,-1.2966267558952036,0.2857142857142857,0.5,0.2,1.25,1.5,2.0,2.888888888888889,3.0,2.625,1.6666666666666667,2.25,2.25,2.75,1.25,,,,,,,,,,,,
21,240628_093612,LEARNING,1.0,22,3.0,1068.0,,,,,,,,,,22.0,22.0,22.0,cue1.png,Hard,B,,,,,,,,,,,,,,,,,,,,,,,,,,,32,22,Female,1.0,1.0,0.7799890727566724,,,,,-8.443332356726681e-05,0.23517672546007884,0.00045588370216161165,0.9007856648045562,1.5150000000000001,0.19675573443388714,2.593,1.8579232161035815,0.2857142857142857,0.5,0.2,1.25,1.5,2.0,2.888888888888889,3.0,2.625,1.6666666666666667,2.25,2.25,2.75,1.25,,,,,,,,,,,,
22,240628_093637,LEARNING,1.0,23,3.0,1068.0,,,,,,,,,,23.0,23.0,23.0,cue1.png,Hard,B,,,,,,,,,,,,,,,,,,,,,,,,,,,32,22,Female,0.84375,0.875,0.8181651091330092,0.00014332137146569335,0.7092054845647087,2.7655166531316208e-05,-0.5061032312796556,0.0005882497444575476,1.204572795693591,,,1.6829999999999998,0.5331426710056805,2.183,1.1821836714225458,0.2857142857142857,0.5,0.2,1.25,1.5,2.0,2.888888888888889,3.0,2.625,1.6666666666666667,2.25,2.25,2.75,1.25,,,,,,,,,,,,
23,240628_093703,LEARNING,1.0,24,3.0,1068.0,,,,,,,,,,24.0,24.0,24.0,cue1.png,Hard,B,,,,,,,,,,,,,,,,,,,,,,,,,,,32,22,Female,1.0,1.0,0.7743874000258405,-1.8876164562374714e-05,-0.16577035277126329,0.00021531646057221243,-0.11271530271825483,,,,,1.8509999999999998,0.8695296075774743,,,0.2857142857142857,0.5,0.2,1.25,1.5,2.0,2.888888888888889,3.0,2.625,1.6666666666666667,2.25,2.25,2.75,1.25,,,,,,,,,,,,
24,240628_093725,LEARNING,1.0,25,1.0,1068.0,,,,,,,,,,25.0,25.0,25.0,cue2.png,Easy,B,,,,,,,,,,,,,,,,,,,,,,,,,,,32,22,Female,1.0,1.0,0.5091741363602605,2.9976212614403648e-05,0.09776416614218965,,,-0.0005243461294515712,-0.39877671493469463,-0.0017290760999293612,-2.273656902066436,1.4389999999999998,0.0445806916990274,0.5710000000000002,-1.4746264408355736,0.2857142857142857,0.5,0.2,1.25,1.5,2.0,2.888888888888889,3.0,2.625,1.6666666666666667,2.25,2.25,2.75,1.25,,,,,,,,,,,,
25,240628_093747,LEARNING,1.0,26,1.0,1068.0,,,,,,,,,,26.0,26.0,26.0,cue2.png,Easy,B,,,,,,,,,,,,,,,,,,,,,,,,,,,32,22,Female,0.84375,0.875,0.4900455000302331,2.7160509480987378e-05,0.08257483424984768,-9.207865938355535e-06,-0.5833779407920796,-0.0003811373681370453,-0.19240016550118147,-0.0007303612844722085,-0.8226632410764697,1.684,0.5351449741995604,1.229,-0.39014687888405836,0.2857142857142857,0.5,0.2,1.25,1.5,2.0,2.888888888888889,3.0,2.625,1.6666666666666667,2.25,2.25,2.75,1.25,,,,,,,,,,,,
26,240628_093813,LEARNING,1.0,27,3.0,1068.0,,,,,,,,,,27.0,27.0,27.0,cue1.png,Hard,B,,,,,,,,,,,,,,,,,,,,,,,,,,,32,22,Female,0.84375,0.875,0.762127181832594,-7.335649740923674e-05,-0.45966492119908764,-1.4620378355449746e-05,-0.5947240047684345,-0.0006005289440389411,-0.5085629197475686,,,1.4499999999999997,0.06660602683170418,2.176,1.1706466548060408,0.2857142857142857,0.5,0.2,1.25,1.5,2.0,2.888888888888889,3.0,2.625,1.6666666666666667,2.25,2.25,2.75,1.25,,,,,,,,,,,,
27,240628_093835,LEARNING,1.0,28,1.0,1068.0,,,,,,,,,,28.0,28.0,28.0,cue2.png,Easy,B,,,,,,,,,,,,,,,,,,,,,,,,,,,32,22,Female,1.0,1.0,0.4711163363800468,3.7568268881363765e-05,0.13871957121157186,0.00011129391389537186,-0.33077419637570854,-0.00030931057715315527,-0.08889137774216158,,,0.954,-0.9265363573326394,,,0.2857142857142857,0.5,0.2,1.25,1.5,2.0,2.888888888888889,3.0,2.625,1.6666666666666667,2.25,2.25,2.75,1.25,,,,,,,,,,,,
28,240628_093857,LEARNING,1.0,29,1.0,1068.0,,,,,,,,,,29.0,29.0,29.0,cue2.png,Easy,B,,,,,,,,,,,,,,,,,,,,,,,,,,,32,22,Female,1.0,1.0,0.4839222908909009,-2.6949755415022272e-05,-0.20932339981250125,0.00014742319264883638,-0.2550376295898827,-0.0006362269903218091,-0.560006976282599,0.0004412680531529689,0.8795511604850348,1.532,0.2307948887298423,,,0.2857142857142857,0.5,0.2,1.25,1.5,2.0,2.888888888888889,3.0,2.625,1.6666666666666667,2.25,2.25,2.75,1.25,,,,,,,,,,,,
29,240628_093922,LEARNING,1.0,30,3.0,1068.0,,,,,,,,,,30.0,30.0,30.0,cue1.png,Hard,B,,,,,,,,,,,,,,,,,,,,,,,,,,,32,22,Female,1.0,0.9090909090909092,0.6279739500256255,-8.784281836933527e-05,-0.5378114894045777,0.00015761405090254296,-0.23367488326983,-0.0008404265413725007,-0.8542766728772005,-0.0006836809009638772,-0.7548431391666315,2.131,1.4301745018637977,1.345,-0.1989620320962534,0.2857142857142857,0.5,0.2,1.25,1.5,2.0,2.888888888888889,3.0,2.625,1.6666666666666667,2.25,2.25,2.75,1.25,,,,,,,,,,,,
30,240628_093945,LEARNING,1.0,31,3.0,1068.0,,,,,,,,,,31.0,31.0,31.0,cue1.png,Hard,B,,,,,,,,,,,,,,,,,,,,,,,,,,,32,22,Female,0.84375,0.875,0.6171974090816961,3.1684491168609396e-05,0.10697948774923677,9.435514149629728e-05,-0.366282363472717,,,,,,,1.448,-0.02920307331052988,0.2857142857142857,0.5,0.2,1.25,1.5,2.0,2.888888888888889,3.0,2.625,1.6666666666666667,2.25,2.25,2.75,1.25,,,,,,,,,,,,
31,240628_094008,LEARNING,1.0,32,1.0,1068.0,,,,,,,,,,32.0,32.0,32.0,cue2.png,Easy,B,,,,,,,,,,,,,,,,,,,,,,,,,,,32,22,Female,1.0,1.0,0.509647527243942,,,0.0007914166833997965,1.0949438177209128,,,,,1.212,-0.4099421333116701,1.2380000000000002,-0.37531357180569397,0.2857142857142857,0.5,0.2,1.25,1.5,2.0,2.888888888888889,3.0,2.625,1.6666666666666667,2.25,2.25,2.75,1.25,,,,,,,,,,,,
32,240628_094030,LEARNING,1.0,33,1.0,1068.0,,,,,,,,,,33.0,33.0,33.0,cue2.png,Easy,B,,,,,,,,,,,,,,,,,,,,,,,,,,,32,22,Female,1.0,1.0,0.4635948272718286,-5.918317168047667e-05,-0.383206808141123,0.00016801134544393434,-0.2118793916465581,,,0.0005231720882922491,0.9985463270303474,0.8009999999999999,-1.2328887459962377,,,0.2857142857142857,0.5,0.2,1.25,1.5,2.0,2.888888888888889,3.0,2.625,1.6666666666666667,2.25,2.25,2.75,1.25,,,,,,,,,,,,
33,240628_094053,LEARNING,1.0,34,1.0,1068.0,,,,,,,,,,34.0,34.0,34.0,cue2.png,Easy,B,,,,,,,,,,,,,,,,,,,,,,,,,,,32,22,Female,0.84375,0.7840909090909091,0.4534620600286871,-0.00025459956105428625,-1.437382001603573,0.0007729816937224318,1.0562991817063658,-0.0008659499920524484,-0.8910582331156508,-0.0002527870443786214,-0.1288143221428897,0.733,-1.3690453631800588,2.193,1.1986651237318395,0.2857142857142857,0.5,0.2,1.25,1.5,2.0,2.888888888888889,3.0,2.625,1.6666666666666667,2.25,2.25,2.75,1.25,,,,,,,,,,,,
34,240628_094117,LEARNING,1.0,35,3.0,1068.0,,,,,,,,,,35.0,35.0,35.0,cue1.png,Hard,B,,,,,,,,,,,,,,,,,,,,,,,,,,,32,22,Female,1.0,1.0,0.6723326817789878,2.0161735442316732e-05,0.04481989465723018,8.870710615540385e-05,-0.37812214606907624,-0.0006438419450125821,-0.5709808025956604,-0.0001683417694209096,-0.0061270877414376845,1.6849999999999998,0.5371472773934399,1.353,-0.18577687024881853,0.2857142857142857,0.5,0.2,1.25,1.5,2.0,2.888888888888889,3.0,2.625,1.6666666666666667,2.25,2.25,2.75,1.25,,,,,,,,,,,,
35,240628_094142,LEARNING,1.0,36,3.0,1068.0,,,,,,,,,,36.0,36.0,36.0,cue1.png,Hard,B,,,,,,,,,,,,,,,,,,,,,,,,,,,32,22,Female,0.84375,0.875,0.7843122636391358,-0.0007821465554051798,-4.28323826070464,,,-0.0003381550536750502,-0.13045883129851643,0.00012663224079428534,0.4224291050322941,1.6019999999999999,0.3709561123014228,1.721,0.4207405747331842,0.2857142857142857,0.5,0.2,1.25,1.5,2.0,2.888888888888889,3.0,2.625,1.6666666666666667,2.25,2.25,2.75,1.25,,,,,,,,,,,,
36,240628_094205,LEARNING,1.0,37,1.0,1068.0,,,,,,,,,,37.0,37.0,37.0,cue2.png,Easy,B,,,,,,,,,,,,,,,,,,,,,,,,,,,32,22,Female,1.0,1.0,0.5352933182042431,0.00015848480772288377,0.7910047563719566,,,,,0.0008191784874698113,1.4286024373149506,1.442,0.0505876012806668,0.583,-1.4548486980644217,0.2857142857142857,0.5,0.2,1.25,1.5,2.0,2.888888888888889,3.0,2.625,1.6666666666666667,2.25,2.25,2.75,1.25,,,,,,,,,,,,
37,240628_094229,LEARNING,1.0,38,3.0,1068.0,,,,,,,,,,38.0,38.0,38.0,cue1.png,Hard,B,,,,,,,,,,,,,,,,,,,,,,,,,,,32,22,Female,0.84375,0.875,0.6555367818483236,,,,,-0.00010472045587033192,0.20594116525987294,-0.00032253944771154335,-0.230154858508676,1.3900000000000001,-0.0535321648010786,2.113,1.0668135052574912,0.2857142857142857,0.5,0.2,1.25,1.5,2.0,2.888888888888889,3.0,2.625,1.6666666666666667,2.25,2.25,2.75,1.25,,,,,,,,,,,,
38,240628_094253,LEARNING,1.0,39,3.0,1068.0,,,,,,,,,,39.0,39.0,39.0,cue1.png,Hard,B,,,,,,,,,,,,,,,,,,,,,,,,,,,32,22,Female,0.84375,0.875,0.6400819999927824,,,,,-0.00039736471668671853,-0.21578521659300176,-0.0007040633982470321,-0.7844560716026697,1.377,-0.07956210632151528,1.625,0.262518632563966,0.2857142857142857,0.5,0.2,1.25,1.5,2.0,2.888888888888889,3.0,2.625,1.6666666666666667,2.25,2.25,2.75,1.25,,,,,,,,,,,,
39,240628_094316,LEARNING,1.0,40,3.0,1068.0,,,,,,,,,,40.0,40.0,40.0,cue1.png,Hard,B,,,,,,,,,,,,,,,,,,,,,,,,,,,32,22,Female,1.0,1.0,0.5794200272595679,-4.576885648917978e-05,-0.31084318317975157,-3.498001760160593e-05,-0.6374032176036468,-0.0007547677430232505,-0.7308347335037172,,,1.5729999999999997,0.3128893196789105,1.343,-0.2022583225581121,0.2857142857142857,0.5,0.2,1.25,1.5,2.0,2.888888888888889,3.0,2.625,1.6666666666666667,2.25,2.25,2.75,1.25,,,,,,,,,,,,
40,240628_094338,LEARNING,1.0,41,1.0,1068.0,,,,,,,,,,41.0,41.0,41.0,cue2.png,Easy,B,,,,,,,,,,,,,,,,,,,,,,,,,,,32,22,Female,0.84375,0.875,0.4439931545745242,,,,,0.00028976198344146404,0.7744254108465009,-4.091794888558958e-06,0.23250527074131175,1.3370000000000002,-0.15965423407670395,2.016,0.9069434178573438,0.2857142857142857,0.5,0.2,1.25,1.5,2.0,2.888888888888889,3.0,2.625,1.6666666666666667,2.25,2.25,2.75,1.25,,,,,,,,,,,,
41,240628_094402,LEARNING,1.0,42,3.0,1068.0,,,,,,,,,,42.0,42.0,42.0,cue1.png,Hard,B,,,,,,,,,,,,,,,,,,,,,,,,,,,32,22,Female,0.84375,0.875,0.6705325909001245,0.0005183063957725554,2.7320650400549265,,,-0.0010227600391617738,-1.1170354438803856,-0.0008760200505240146,-1.034285160505038,,,,,0.2857142857142857,0.5,0.2,1.25,1.5,2.0,2.888888888888889,3.0,2.625,1.6666666666666667,2.25,2.25,2.75,1.25,,,,,,,,,,,,
42,240628_094426,LEARNING,1.0,43,3.0,1068.0,,,,,,,,,,43.0,43.0,43.0,cue1.png,Hard,B,,,,,,,,,,,,,,,,,,,,,,,,,,,32,22,Female,0.84375,0.875,0.6635746182027188,-2.961685229651385e-05,-0.22371107415260602,-6.185617202266293e-05,-0.6937427774976113,,,0.00014008145360354472,0.44196893985752167,0.9220000000000002,-0.9906100595367903,2.276,1.3354611778989756,0.2857142857142857,0.5,0.2,1.25,1.5,2.0,2.888888888888889,3.0,2.625,1.6666666666666667,2.25,2.25,2.75,1.25,,,,,,,,,,,,
43,240628_094448,LEARNING,1.0,44,1.0,1068.0,,,,,,,,,,44.0,44.0,44.0,cue2.png,Easy,B,,,,,,,,,,,,,,,,,,,,,,,,,,,32,22,Female,0.84375,0.875,0.4532824726986952,,,,,0.0002747494987455773,0.7527910865110228,-0.00019138607719602126,-0.0396072604454776,2.229,1.6264002148640113,2.044,0.9530914843233658,0.2857142857142857,0.5,0.2,1.25,1.5,2.0,2.888888888888889,3.0,2.625,1.6666666666666667,2.25,2.25,2.75,1.25,,,,,,,,,,,,
44,240628_094511,LEARNING,1.0,45,1.0,1068.0,,,,,,,,,,45.0,45.0,45.0,cue2.png,Easy,B,,,,,,,,,,,,,,,,,,,,,,,,,,,32,22,Female,1.0,1.0,0.5103044454431669,1.5113618044086154e-05,0.01758778709474085,,,,,0.0013603823334727991,2.214896319912726,,,1.695,0.3778887987290209,0.2857142857142857,0.5,0.2,1.25,1.5,2.0,2.888888888888889,3.0,2.625,1.6666666666666667,2.25,2.25,2.75,1.25,,,,,,,,,,,,
45,240628_094532,LEARNING,1.0,46,1.0,1068.0,,,,,,,,,,46.0,46.0,46.0,cue2.png,Easy,B,,,,,,,,,,,,,,,,,,,,,,,,,,,32,22,Female,1.0,1.0,0.4436632182279771,0.0001306096663772978,0.6406320951282494,,,0.0005360420896323662,1.129336926337992,0.0005989435521539122,1.108631720824048,0.538,-1.7594944859866053,-0.07899999999999996,-2.5459208409396545,0.2857142857142857,0.5,0.2,1.25,1.5,2.0,2.888888888888889,3.0,2.625,1.6666666666666667,2.25,2.25,2.75,1.25,,,,,,,,,,,,
46,240628_094556,LEARNING,1.0,47,3.0,1068.0,,,,,,,,,,47.0,47.0,47.0,cue1.png,Hard,B,,,,,,,,,,,,,,,,,,,,,,,,,,,32,22,Female,0.84375,0.875,0.6465949272652242,-5.8095465639904434e-05,-0.3773391696619516,0.0023974496840667068,4.461615664265477,-0.00026836995464519023,-0.029892303053587786,0.0006040616797607489,1.1160676480764722,1.8159999999999998,0.799448995791684,1.6290000000000002,0.2691112134876838,0.2857142857142857,0.5,0.2,1.25,1.5,2.0,2.888888888888889,3.0,2.625,1.6666666666666667,2.25,2.25,2.75,1.25,,,,,,,,,,,,
47,240628_094623,LEARNING,1.0,48,3.0,1068.0,,,,,,,,,,48.0,48.0,48.0,cue1.png,Hard,B,,,,,,,,,,,,,,,,,,,,,,,,,,,32,22,Female,0.84375,0.7840909090909091,0.8274937500245869,9.9242529478542e-05,0.4714218374084803,0.0005858050551300477,0.6639272197241713,0.0002292039475173648,0.687155900379625,-0.0004922012261608152,-0.4766498150589017,1.9660000000000002,1.0997944748736437,2.0039999999999996,0.8871656750861907,0.2857142857142857,0.5,0.2,1.25,1.5,2.0,2.888888888888889,3.0,2.625,1.6666666666666667,2.25,2.25,2.75,1.25,,,,,,,,,,,,
48,240628_094645,LEARNING,1.0,49,1.0,1068.0,,,,,,,,,,49.0,49.0,49.0,cue2.png,Easy,B,,,,,,,,,,,,,,,,,,,,,,,,,,,32,22,Female,1.0,1.0,0.4964935363016345,7.25043022386713e-05,0.3271822679242878,-1.2214686870814541e-05,-0.5896810362930481,6.800410436007178e-05,0.45485260346778145,-0.0005109430175983835,-0.5038790301968185,,,,,0.2857142857142857,0.5,0.2,1.25,1.5,2.0,2.888888888888889,3.0,2.625,1.6666666666666667,2.25,2.25,2.75,1.25,,,,,,,,,,,,
49,240628_094707,LEARNING,1.0,50,1.0,1068.0,,,,,,,,,,50.0,50.0,50.0,cue2.png,Easy,B,,,,,,,,,,,,,,,,,,,,,,,,,,,32,22,Female,1.0,1.0,0.4500598999967968,0.00023143435766008425,1.1845316563646835,0.0004752174274518521,0.43210617213316316,,,0.0004546417141601802,0.8989812290545192,1.366,-0.10158744145419206,0.817,-1.0691827140269528,0.2857142857142857,0.5,0.2,1.25,1.5,2.0,2.888888888888889,3.0,2.625,1.6666666666666667,2.25,2.25,2.75,1.25,,,,,,,,,,,,
0,240628_094828,TrueCHOICE,9.0,1,1.0,1068.0,,,,,,,,,,,1.0,1.0,,,B,,,,,,True,cue2.png,Easy,cue1.png,Hard,Left,Easy,Easy,0.0157991999294608,,,,,,,,,,,,,32,22,Female,0.5833333333333334,0.75,0.6197611636651511,,,,,,,,,,,,,0.2857142857142857,0.5,0.2,1.25,1.5,2.0,2.888888888888889,3.0,2.625,1.6666666666666667,2.25,2.25,2.75,1.25,0.00036203123433332235,1.2643969190766944,-0.00024066861885396664,-0.015683269135177546,1.457,-0.019142481328850616,,,,,,
1,240628_094847,TrueCHOICE,9.0,2,1.0,1068.0,,,,,,,,,,,2.0,2.0,,,B,,,,,,True,cue2.png,Easy,cue1.png,Hard,Left,Easy,Easy,0.0161524000577628,,,,,,,,,,,,,32,22,Female,,,,,,,,,,,,,,,,0.2857142857142857,0.5,0.2,1.25,1.5,2.0,2.888888888888889,3.0,2.625,1.6666666666666667,2.25,2.25,2.75,1.25,0.00033330493175315595,1.0880095806939638,-0.0008163391746033623,-0.8106155214314844,1.0570000000000002,-2.107413171749021,,,,,,
2,240628_094913,TrueCHOICE,9.0,3,1.0,1068.0,,,,,,,,,,,4.0,3.0,,,B,,,,,,True,cue1.png,Hard,cue2.png,Easy,Right,Easy,Easy,0.0160988999996334,,,,,,,,,,,,,32,22,Female,1.0,1.0,0.5191276182039556,,,,,,,,,,,,,0.2857142857142857,0.5,0.2,1.25,1.5,2.0,2.888888888888889,3.0,2.625,1.6666666666666667,2.25,2.25,2.75,1.25,,,,,1.598,0.7169729370442597,,,,,,
3,240628_094934,TrueCHOICE,9.0,4,3.0,1068.0,,,,,,,,,,,5.0,4.0,,,B,,,,,,True,cue2.png,Easy,cue1.png,Hard,Right,Hard,Hard,0.0165974998380988,,,,,,,,,,,,,32,22,Female,0.84375,0.875,0.5487494363280182,,,,,,,,,,,,,0.2857142857142857,0.5,0.2,1.25,1.5,2.0,2.888888888888889,3.0,2.625,1.6666666666666667,2.25,2.25,2.75,1.25,,,-0.0016495668501133945,-1.9612033813691194,1.5999999999999999,0.7274142904963594,,,,,,
4,240628_094954,TrueCHOICE,9.0,5,1.0,1068.0,,,,,,,,,,,6.0,5.0,,,B,,,,,,True,cue1.png,Hard,cue2.png,Easy,Right,Easy,Easy,0.0164397999178618,,,,,,,,,,,,,32,22,Female,0.84375,0.875,0.5055411545432765,,,,,,,,,,,,,0.2857142857142857,0.5,0.2,1.25,1.5,2.0,2.888888888888889,3.0,2.625,1.6666666666666667,2.25,2.25,2.75,1.25,0.00020032800519823556,0.2714949570008788,0.0003288815961452812,0.7707975238868184,,,,,,,,
5,240628_095013,TrueCHOICE,9.0,6,1.0,1068.0,,,,,,,,,,,7.0,6.0,,,B,,,,,,True,cue1.png,Hard,cue2.png,Easy,Right,Easy,Easy,0.0167051998432725,,,,,,,,,,,,,32,22,Female,1.0,1.0,0.5013936272695322,,,,,,,,,,,,,0.2857142857142857,0.5,0.2,1.25,1.5,2.0,2.888888888888889,3.0,2.625,1.6666666666666667,2.25,2.25,2.75,1.25,0.00012697530993840533,-0.1789106127369461,,,,,,,,,,
6,240628_095033,TrueCHOICE,9.0,7,1.0,1068.0,,,,,,,,,,,8.0,7.0,,,B,,,,,,True,cue2.png,Easy,cue1.png,Hard,Left,Easy,Easy,0.0162776000797748,,,,,,,,,,,,,32,22,Female,,,,,,,,,,,,,,,,0.2857142857142857,0.5,0.2,1.25,1.5,2.0,2.888888888888889,3.0,2.625,1.6666666666666667,2.25,2.25,2.75,1.25,,,2.2540971268865395e-07,0.3169626005913691,1.4539999999999997,-0.03480451150700365,,,,,,
7,240628_095053,TrueCHOICE,9.0,8,1.0,1068.0,,,,,,,,,,,9.0,8.0,,,B,,,,,,True,cue1.png,Hard,cue2.png,Easy,Right,Easy,Easy,0.0164965998847037,,,,,,,,,,,,,32,22,Female,1.0,1.0,0.4628314000173387,,,,,,,,,,,,,0.2857142857142857,0.5,0.2,1.25,1.5,2.0,2.888888888888889,3.0,2.625,1.6666666666666667,2.25,2.25,2.75,1.25,,,8.010779693906622e-05,0.42727063243782276,,,,,,,,
8,240628_095113,TrueCHOICE,9.0,9,1.0,1068.0,,,,,,,,,,,10.0,9.0,,,B,,,,,,True,cue2.png,Easy,cue1.png,Hard,Left,Easy,Easy,0.0160999000072479,,,,,,,,,,,,,32,22,Female,0.84375,0.875,0.4760287454859777,,,,,,,,,,,,,0.2857142857142857,0.5,0.2,1.25,1.5,2.0,2.888888888888889,3.0,2.625,1.6666666666666667,2.25,2.25,2.75,1.25,-8.334143743629055e-05,-1.4703128453496774,,,,,,,,,,
9,240628_095133,TrueCHOICE,9.0,10,1.0,1068.0,,,,,,,,,,,11.0,10.0,,,B,,,,,,True,cue1.png,Hard,cue2.png,Easy,Right,Easy,Easy,0.0163714999798685,,,,,,,,,,,,,32,22,Female,1.0,1.0,0.456917000003159,,,,,,,,,,,,,0.2857142857142857,0.5,0.2,1.25,1.5,2.0,2.888888888888889,3.0,2.625,1.6666666666666667,2.25,2.25,2.75,1.25,-2.622737867997906e-06,-0.9746779986849129,0.0006921815967166761,1.272471415019771,1.5979999999999999,0.7169729370442585,,,,,,
0,240628_095254,FalseCHOICE,9.0,1,2.0,1068.0,,,,,,,,,,,1.0,1.0,,,B,,,,,,False,cue2.png,Easy,cue1.png,Hard,Right,Hard,Mid,0.016542499884963,,,,,,,,,,,,,32,22,Female,0.84375,0.875,0.5341712636238133,,,,,,,,,,,,,0.2857142857142857,0.5,0.2,1.25,1.5,2.0,2.888888888888889,3.0,2.625,1.6666666666666667,2.25,2.25,2.75,1.25,0.00036203123433332235,1.2643969190766944,-0.00024066861885396664,-0.015683269135177546,1.457,-0.019142481328850616,,,,,,
1,240628_095316,FalseCHOICE,9.0,2,2.0,1068.0,,,,,,,,,,,2.0,2.0,,,B,,,,,,False,cue1.png,Hard,cue2.png,Easy,Left,Hard,Mid,0.0162496999837458,,,,,,,,,,,,,32,22,Female,,,,,,,,,,,,,,,,0.2857142857142857,0.5,0.2,1.25,1.5,2.0,2.888888888888889,3.0,2.625,1.6666666666666667,2.25,2.25,2.75,1.25,0.00033330493175315595,1.0880095806939638,-0.0008163391746033623,-0.8106155214314844,1.0570000000000002,-2.107413171749021,,,,,,
2,240628_095338,FalseCHOICE,9.0,3,2.0,1068.0,,,,,,,,,,,3.0,3.0,,,B,,,,,,False,cue1.png,Hard,cue2.png,Easy,Right,Easy,Mid,0.0165853998623788,,,,,,,,,,,,,32,22,Female,,,,,,,,,,,,,,,,0.2857142857142857,0.5,0.2,1.25,1.5,2.0,2.888888888888889,3.0,2.625,1.6666666666666667,2.25,2.25,2.75,1.25,,,,,1.598,0.7169729370442597,,,,,,
3,240628_095358,FalseCHOICE,9.0,4,2.0,1068.0,,,,,,,,,,,4.0,4.0,,,B,,,,,,False,cue1.png,Hard,cue2.png,Easy,Right,Easy,Mid,0.0164902000688016,,,,,,,,,,,,,32,22,Female,0.84375,0.875,0.5198696090585806,,,,,,,,,,,,,0.2857142857142857,0.5,0.2,1.25,1.5,2.0,2.888888888888889,3.0,2.625,1.6666666666666667,2.25,2.25,2.75,1.25,,,-0.0016495668501133945,-1.9612033813691194,1.5999999999999999,0.7274142904963594,,,,,,
4,240628_095419,FalseCHOICE,9.0,5,2.0,1068.0,,,,,,,,,,,5.0,5.0,,,B,,,,,,False,cue2.png,Easy,cue1.png,Hard,Left,Easy,Mid,0.0177462000865489,,,,,,,,,,,,,32,22,Female,,,,,,,,,,,,,,,,0.2857142857142857,0.5,0.2,1.25,1.5,2.0,2.888888888888889,3.0,2.625,1.6666666666666667,2.25,2.25,2.75,1.25,0.00020032800519823556,0.2714949570008788,0.0003288815961452812,0.7707975238868184,,,,,,,,
5,240628_095441,FalseCHOICE,9.0,6,2.0,1068.0,,,,,,,,,,,6.0,6.0,,,B,,,,,,False,cue1.png,Hard,cue2.png,Easy,Right,Easy,Mid,0.0168704001698642,,,,,,,,,,,,,32,22,Female,0.5833333333333334,0.75,0.6060305545741523,,,,,,,,,,,,,0.2857142857142857,0.5,0.2,1.25,1.5,2.0,2.888888888888889,3.0,2.625,1.6666666666666667,2.25,2.25,2.75,1.25,0.00012697530993840533,-0.1789106127369461,,,,,,,,,,
6,240628_095502,FalseCHOICE,9.0,7,2.0,1068.0,,,,,,,,,,,7.0,7.0,,,B,,,,,,False,cue1.png,Hard,cue2.png,Easy,Right,Easy,Mid,0.0170470001175999,,,,,,,,,,,,,32,22,Female,0.84375,0.875,0.4181211726867001,,,,,,,,,,,,,0.2857142857142857,0.5,0.2,1.25,1.5,2.0,2.888888888888889,3.0,2.625,1.6666666666666667,2.25,2.25,2.75,1.25,,,2.2540971268865395e-07,0.3169626005913691,1.4539999999999997,-0.03480451150700365,,,,,,
7,240628_095526,FalseCHOICE,9.0,8,2.0,1068.0,,,,,,,,,,,8.0,8.0,,,B,,,,,,False,cue2.png,Easy,cue1.png,Hard,Left,Easy,Mid,0.0161035000346601,,,,,,,,,,,,,32,22,Female,,,,,,,,,,,,,,,,0.2857142857142857,0.5,0.2,1.25,1.5,2.0,2.888888888888889,3.0,2.625,1.6666666666666667,2.25,2.25,2.75,1.25,,,8.010779693906622e-05,0.42727063243782276,,,,,,,,
8,240628_095551,FalseCHOICE,9.0,9,2.0,1068.0,,,,,,,,,,,9.0,9.0,,,B,,,,,,False,cue2.png,Easy,cue1.png,Hard,Left,Easy,Mid,0.0159650000277906,,,,,,,,,,,,,32,22,Female,1.0,1.0,0.7966754545499994,,,,,,,,,,,,,0.2857142857142857,0.5,0.2,1.25,1.5,2.0,2.888888888888889,3.0,2.625,1.6666666666666667,2.25,2.25,2.75,1.25,-8.334143743629055e-05,-1.4703128453496774,,,,,,,,,,
9,240628_095613,FalseCHOICE,9.0,10,2.0,1068.0,,,,,,,,,,,10.0,10.0,,,B,,,,,,False,cue1.png,Hard,cue2.png,Easy,Right,Easy,Mid,0.0145896999165415,,,,,,,,,,,,,32,22,Female,,,,,,,,,,,,,,,,0.2857142857142857,0.5,0.2,1.25,1.5,2.0,2.888888888888889,3.0,2.625,1.6666666666666667,2.25,2.25,2.75,1.25,-2.622737867997906e-06,-0.9746779986849129,0.0006921815967166761,1.272471415019771,1.5979999999999999,0.7169729370442585,,,,,,
0,240628_092707,OFFLINERATING,9.0,1,1.0,,,,,,,,,,,,,,,,,T0,cue2.png,Easy,53.0,1.240315099945292,,,,,,,,,,,,,,,,,,,,,,32,22,Female,,,,,,,,,,,,,,,,0.2857142857142857,0.5,0.2,1.25,1.5,2.0,2.888888888888889,3.0,2.625,1.6666666666666667,2.25,2.25,2.75,1.25,,,,,,,-5.342972384116433e-05,-0.11780294842573051,,,1.407,-0.07405070625768621
1,240628_092715,OFFLINERATING,9.0,2,3.0,,,,,,,,,,,,,,,,,T0,cue1.png,Hard,47.0,1.9520807000808416,,,,,,,,,,,,,,,,,,,,,,32,22,Female,,,,,,,,,,,,,,,,0.2857142857142857,0.5,0.2,1.25,1.5,2.0,2.888888888888889,3.0,2.625,1.6666666666666667,2.25,2.25,2.75,1.25,,,,,,,6.661047150133574e-05,1.667062526055912,,,1.107,-1.6061342840029231
2,240628_094734,OFFLINERATING,9.0,3,1.0,,,,,,,,,,,,,,,,,T1,cue2.png,Easy,59.0,1.22802529996261,,,,,,,,,,,,,,,,,,,,,,32,22,Female,,,,,,,,,,,,,,,,0.2857142857142857,0.5,0.2,1.25,1.5,2.0,2.888888888888889,3.0,2.625,1.6666666666666667,2.25,2.25,2.75,1.25,,,,,,,,,-0.0001816456862946663,-0.8090990391738854,1.5779999999999998,0.7992369330570978
3,240628_094742,OFFLINERATING,9.0,4,3.0,,,,,,,,,,,,,,,,,T1,cue1.png,Hard,30.0,1.8355348000768568,,,,,,,,,,,,,,,,,,,,,,32,22,Female,,,,,,,,,,,,,,,,0.2857142857142857,0.5,0.2,1.25,1.5,2.0,2.888888888888889,3.0,2.625,1.6666666666666667,2.25,2.25,2.75,1.25,,,,,,,,,-0.00025786702181250683,-1.0103227234554606,1.5939999999999999,0.8809480572035104
4,240628_095147,OFFLINERATING,9.0,5,1.0,,,,,,,,,,,,,,,,,T2,cue2.png,Easy,77.0,1.3186069000512362,,,,,,,,,,,,,,,,,,,,,,32,22,Female,,,,,,,,,,,,,,,,0.2857142857142857,0.5,0.2,1.25,1.5,2.0,2.888888888888889,3.0,2.625,1.6666666666666667,2.25,2.25,2.75,1.25,,,,,,,-9.364756262455294e-05,-0.7157979091797163,0.0002502692566940185,0.33115277528175313,,
5,240628_095154,OFFLINERATING,9.0,6,3.0,,,,,,,,,,,,,,,,,T2,cue1.png,Hard,43.0,0.9849153000395744,,,,,,,,,,,,,,,,,,,,,,32,22,Female,,,,,,,,,,,,,,,,0.2857142857142857,0.5,0.2,1.25,1.5,2.0,2.888888888888889,3.0,2.625,1.6666666666666667,2.25,2.25,2.75,1.25,,,,,,,-0.00010156097730455596,-0.8334616684504652,0.0006885722494450498,1.4882689873475927,,
6,240628_101106,OFFLINERATING,9.0,7,1.0,,,,,,,,,,,,,,,,,T3,cue2.png,Easy,49.0,1.3417992999311537,,,,,,,,,,,,,,,,,,,,,,32,22,Female,,,,,,,,,,,,,,,,0.2857142857142857,0.5,0.2,1.25,1.5,2.0,2.888888888888889,3.0,2.625,1.6666666666666667,2.25,2.25,2.75,1.25,,,,,,,,,,,,
7,240628_101115,OFFLINERATING,9.0,8,3.0,,,,,,,,,,,,,,,,,T3,cue1.png,Hard,48.0,2.252409800188616,,,,,,,,,,,,,,,,,,,,,,32,22,Female,,,,,,,,,,,,,,,,0.2857142857142857,0.5,0.2,1.25,1.5,2.0,2.888888888888889,3.0,2.625,1.6666666666666667,2.25,2.25,2.75,1.25,,,,,,,,,,,,
