,END,Phase,Block,TrialN,NbackLevel,ISI,Letter_Resp,Letter_RT,Letter_Accuracy,Trial_A_measure,Trial_ACC,Trial_RT,TrialCountCali,CaliEnd_A_measure,ISI_calibrated,TrialIndex,TrialNumber_total,TrialNumber_valid,CueLearning,TrialDemandLearning,CueMapping,OfflineRatingTimePoint,CueFigure,TrialDemand,OfflineRating,OfflineRatingRT,PhaseType,CueLeft,CueDemandLeft,CueRight,CueDemandRight,Choice,ChoiceDemand,TaskDemand,ChoiceRT,CueCheck,CueDemandCheck,CorrectAnswer,Answer,AnswerDemand,AnswerRT,AnswerACC,DemandRatingQuesIndex,QuesTLX,DemandLevel,DemandRating,DemandRatingRT,PID,Age,Gender,Task_A_measure,Task_ACC,Task_RT,cue_i_on_zyg_values,cue_i_on_zyg_zvalues,cue_e_on_zyg_values,cue_e_on_zyg_zvalues,cue_i_on_cor_values,cue_i_on_cor_zvalues,cue_e_on_cor_values,cue_e_on_cor_zvalues,cue_i_on_scr_values,cue_i_on_scr_zvalues,cue_e_on_scr_values,cue_e_on_scr_zvalues,BAI_bis,BAI_bas_d,BAI_bas_rr,BAI_bas_fs,NFC,BFI_ext,BFI_agr,BFI_con,BFI_neu,BFI_open,UPPS_lps,UPPS_lpm,UPPS_pu,UPPS_ss,cue_e_true_zyg_values,cue_e_true_zyg_zvalues,cue_e_true_cor_values,cue_e_true_cor_zvalues,cue_e_true_scr_values,cue_e_true_scr_zvalues,cue_i_off_zyg_values,cue_i_off_zyg_zvalues,cue_i_off_cor_values,cue_i_off_cor_zvalues,cue_i_off_scr_values,cue_i_off_scr_zvalues
0,240702_145011,LEARNING,1.0,1,1.0,159.0,,,,,,,,,,1.0,1.0,1.0,cue1.png,Easy,A,,,,,,,,,,,,,,,,,,,,,,,,,,,33,20,Male,1.0,0.9090909090909092,0.4554150999640114,,,-5.807933502002729e-06,-0.5923659789813132,-9.79414129227904e-05,-0.3626396038392909,0.00021755341554570646,1.1036858351649048,,,,,0.0,1.75,0.6,0.5,2.4444444444444446,3.0,2.7777777777777777,1.5555555555555556,2.0,2.4444444444444446,1.5,2.0,1.0,1.5,,,,,,,,,,,,
1,240702_145044,LEARNING,1.0,2,3.0,159.0,,,,,,,,,,2.0,2.0,2.0,cue2.png,Hard,A,,,,,,,,,,,,,,,,,,,,,,,,,,,33,20,Male,0.84375,0.6022727272727273,0.4928919937519822,-1.9498323467165117e-05,-0.5930099735805343,9.55951579064496e-05,1.23097119135939,0.00018945963895151442,0.5787363507270263,-0.00035858868817941966,-0.5385004851629293,1.0879999999999999,-0.5569129192228774,1.4569999999999999,0.18486366863042628,0.0,1.75,0.6,0.5,2.4444444444444446,3.0,2.7777777777777777,1.5555555555555556,2.0,2.4444444444444446,1.5,2.0,1.0,1.5,,,,,,,,,,,,
2,240702_145116,LEARNING,1.0,3,1.0,159.0,,,,,,,,,,3.0,3.0,3.0,cue1.png,Easy,A,,,,,,,,,,,,,,,,,,,,,,,,,,,33,20,Male,1.0,0.9545454545454546,0.462972533323669,1.7497484238617085e-05,0.017713223595608254,-4.4063480383448733e-07,-0.4958561479222999,7.230217896689664e-05,0.19498961421257618,8.514260645943114e-05,0.7262733566476905,1.588,0.2958175183641876,1.1529999999999998,-0.3796880280820364,0.0,1.75,0.6,0.5,2.4444444444444446,3.0,2.7777777777777777,1.5555555555555556,2.0,2.4444444444444446,1.5,2.0,1.0,1.5,,,,,,,,,,,,
3,240702_145150,LEARNING,1.0,4,3.0,159.0,,,,,,,,,,4.0,4.0,4.0,cue2.png,Hard,A,,,,,,,,,,,,,,,,,,,,,,,,,,,33,20,Male,0.828125,0.5738636363636364,0.494431621428313,-4.137433751174148e-05,-0.9541370868206047,0.000133178513494783,1.9067605413537856,0.00014376010578665346,0.4290485142499313,-0.00024808431155368214,-0.2235282335988973,1.5939999999999999,0.306050283615232,1.6019999999999999,0.4541399713386733,0.0,1.75,0.6,0.5,2.4444444444444446,3.0,2.7777777777777777,1.5555555555555556,2.0,2.4444444444444446,1.5,2.0,1.0,1.5,,,,,,,,,,,,
4,240702_145223,LEARNING,1.0,5,3.0,159.0,,,,,,,,,,5.0,5.0,5.0,cue2.png,Hard,A,,,,,,,,,,,,,,,,,,,,,,,,,,,33,20,Male,0.7708333333333334,0.4829545454545454,0.4372925416682847,-4.706871155572964e-05,-1.0481392599781256,6.121140364300729e-05,0.6127141310113335,,,-0.0005486898304665482,-1.0803485697312416,1.5370000000000001,0.20883901373030714,1.544,0.3464294502553748,0.0,1.75,0.6,0.5,2.4444444444444446,3.0,2.7777777777777777,1.5555555555555556,2.0,2.4444444444444446,1.5,2.0,1.0,1.5,,,,,,,,,,,,
5,240702_145256,LEARNING,1.0,6,1.0,159.0,,,,,,,,,,6.0,6.0,6.0,cue1.png,Easy,A,,,,,,,,,,,,,,,,,,,,,,,,,,,33,20,Male,0.9583333333333334,0.9545454545454546,0.476251042880384,1.5170058582027364e-06,-0.2460909600164043,-0.0001039757366068754,-2.3575291692317646,4.008436864871888e-05,0.08946087051272505,-4.287308493762087e-05,0.36138834678587733,-0.0405000000000002,-2.4815255168568826,0.0039999999999997815,-2.5134705923011795,0.0,1.75,0.6,0.5,2.4444444444444446,3.0,2.7777777777777777,1.5555555555555556,2.0,2.4444444444444446,1.5,2.0,1.0,1.5,,,,,,,,,,,,
6,240702_145328,LEARNING,1.0,7,3.0,159.0,,,,,,,,,,7.0,7.0,7.0,cue2.png,Hard,A,,,,,,,,,,,,,,,,,,,,,,,,,,,33,20,Male,0.6458333333333334,0.6761363636363636,0.495498168441516,5.110385050284766e-05,0.5724838509484897,1.4102057222188137e-05,-0.2343628289360291,0.00019529290554014473,0.5978430897848683,5.8749852686825095e-06,0.5003356889738131,1.437,0.03829292621289406,1.4569999999999999,0.18486366863042628,0.0,1.75,0.6,0.5,2.4444444444444446,3.0,2.7777777777777777,1.5555555555555556,2.0,2.4444444444444446,1.5,2.0,1.0,1.5,,,,,,,,,,,,
7,240702_145402,LEARNING,1.0,8,3.0,159.0,,,,,,,,,,8.0,8.0,8.0,cue2.png,Hard,A,,,,,,,,,,,,,,,,,,,,,,,,,,,33,20,Male,0.7083333333333334,0.5113636363636364,0.4610554785800299,2.5388061909697307e-06,-0.22922317945418744,7.079242214154359e-05,0.7849911978685572,0.00023925992823633016,0.7418561255414746,-0.0005647922609401364,-1.1262455643733351,,,,,0.0,1.75,0.6,0.5,2.4444444444444446,3.0,2.7777777777777777,1.5555555555555556,2.0,2.4444444444444446,1.5,2.0,1.0,1.5,,,,,,,,,,,,
8,240702_145434,LEARNING,1.0,9,1.0,159.0,,,,,,,,,,9.0,9.0,9.0,cue1.png,Easy,A,,,,,,,,,,,,,,,,,,,,,,,,,,,33,20,Male,0.9642857142857144,0.9545454545454546,0.4843213095085784,-3.4404052150363486e-05,-0.8390722936693118,-9.768767079779486e-05,-2.244462950441029,0.00010163199666895963,0.2910588003080086,-0.0002994765578875217,-0.37001230993124296,,,0.3540000000000001,-1.8634933099019622,0.0,1.75,0.6,0.5,2.4444444444444446,3.0,2.7777777777777777,1.5555555555555556,2.0,2.4444444444444446,1.5,2.0,1.0,1.5,,,,,,,,,,,,
9,240702_145505,LEARNING,1.0,10,1.0,159.0,,,,,,,,,,10.0,10.0,10.0,cue1.png,Easy,A,,,,,,,,,,,,,,,,,,,,,,,,,,,33,20,Male,0.9322916666666669,0.9375,0.4460456591120667,9.192646947971724e-05,1.2463796765763395,7.468439726781347e-05,0.8549731167154399,-0.00019283187594341597,-0.6734512714470655,-0.0002377213032317381,-0.1939903984125642,,,1.448,0.16814996708301805,0.0,1.75,0.6,0.5,2.4444444444444446,3.0,2.7777777777777777,1.5555555555555556,2.0,2.4444444444444446,1.5,2.0,1.0,1.5,,,,,,,,,,,,
10,240702_145538,LEARNING,1.0,11,3.0,159.0,,,,,,,,,,11.0,11.0,11.0,cue2.png,Hard,A,,,,,,,,,,,,,,,,,,,,,,,,,,,33,20,Male,0.734375,0.6761363636363636,0.5016435105231052,,,-4.939918728175639e-05,-1.3761838312223982,0.00014632980579933237,0.4374655112880725,0.00012608251021237454,0.842964967040215,1.543,0.21907177898135155,,,0.0,1.75,0.6,0.5,2.4444444444444446,3.0,2.7777777777777777,1.5555555555555556,2.0,2.4444444444444446,1.5,2.0,1.0,1.5,,,,,,,,,,,,
11,240702_145610,LEARNING,1.0,12,1.0,159.0,,,,,,,,,,12.0,12.0,12.0,cue1.png,Easy,A,,,,,,,,,,,,,,,,,,,,,,,,,,,33,20,Male,1.0,0.9545454545454546,0.4640126238089232,,,7.170291115819825e-05,0.8013627743579405,0.0004935944263278662,1.5749232954722843,-0.0004144065673066617,-0.6975990078013674,,,,,0.0,1.75,0.6,0.5,2.4444444444444446,3.0,2.7777777777777777,1.5555555555555556,2.0,2.4444444444444446,1.5,2.0,1.0,1.5,,,,,,,,,,,,
12,240702_145642,LEARNING,1.0,13,1.0,159.0,,,,,,,,,,13.0,13.0,13.0,cue1.png,Easy,A,,,,,,,,,,,,,,,,,,,,,,,,,,,33,20,Male,1.0,1.0,0.4469733499943025,,,8.676394157027326e-05,1.0721763776962614,7.42523068231445e-05,0.20137721599840605,9.008797338882785e-05,0.7403692088132381,1.9190000000000003,0.8603250680468247,1.471,0.2108627599263954,0.0,1.75,0.6,0.5,2.4444444444444446,3.0,2.7777777777777777,1.5555555555555556,2.0,2.4444444444444446,1.5,2.0,1.0,1.5,,,,,,,,,,,,
13,240702_145713,LEARNING,1.0,14,1.0,159.0,,,,,,,,,,14.0,14.0,14.0,cue1.png,Easy,A,,,,,,,,,,,,,,,,,,,,,,,,,,,33,20,Male,1.0,1.0,0.4481917408675971,6.675213516406245e-05,0.830804212937122,7.124780826908272e-05,0.7931795325797255,0.0001018186698811905,0.29167024439358086,1.995933864545234e-05,0.5404805287563076,,,2.19,1.5461018057693576,0.0,1.75,0.6,0.5,2.4444444444444446,3.0,2.7777777777777777,1.5555555555555556,2.0,2.4444444444444446,1.5,2.0,1.0,1.5,,,,,,,,,,,,
14,240702_145745,LEARNING,1.0,15,3.0,159.0,,,,,,,,,,15.0,15.0,15.0,cue2.png,Hard,A,,,,,,,,,,,,,,,,,,,,,,,,,,,33,20,Male,0.6904761904761905,0.7090909090909091,0.4825900199939497,4.9591336453052356e-05,0.5475154160487578,-4.547938195486939e-05,-1.3057014952921857,-0.00022080081345816427,-0.7650629238033937,0.00032235149435563305,1.4023933420552648,,,,,0.0,1.75,0.6,0.5,2.4444444444444446,3.0,2.7777777777777777,1.5555555555555556,2.0,2.4444444444444446,1.5,2.0,1.0,1.5,,,,,,,,,,,,
15,240702_145817,LEARNING,1.0,16,1.0,159.0,,,,,,,,,,16.0,16.0,16.0,cue1.png,Easy,A,,,,,,,,,,,,,,,,,,,,,,,,,,,33,20,Male,1.0,0.9545454545454546,0.4539821999746242,0.00013795293195404063,2.006180044784903,,,-0.0002060276055597136,-0.7166735995587039,0.00038298568440408264,1.5752198666191206,,,,,0.0,1.75,0.6,0.5,2.4444444444444446,3.0,2.7777777777777777,1.5555555555555556,2.0,2.4444444444444446,1.5,2.0,1.0,1.5,,,,,,,,,,,,
16,240702_145849,LEARNING,1.0,17,1.0,159.0,,,,,,,,,,17.0,17.0,17.0,cue1.png,Easy,A,,,,,,,,,,,,,,,,,,,,,,,,,,,33,20,Male,1.0,1.0,0.455659163639542,3.856700601620987e-05,0.3655268408929189,2.397965950951507e-06,-0.4448150386615317,0.0003803492855638125,1.2039912762903142,0.00043775402059091466,1.7313268615629256,,,1.5879999999999999,0.42814088004270456,0.0,1.75,0.6,0.5,2.4444444444444446,3.0,2.7777777777777777,1.5555555555555556,2.0,2.4444444444444446,1.5,2.0,1.0,1.5,,,,,,,,,,,,
17,240702_145920,LEARNING,1.0,18,3.0,159.0,,,,,,,,,,18.0,18.0,18.0,cue2.png,Hard,A,,,,,,,,,,,,,,,,,,,,,,,,,,,33,20,Male,0.6458333333333334,0.7670454545454546,0.444804457127161,1.2029684783789775e-05,-0.07254867826978045,2.7435021610907207e-05,0.005378279772950743,-0.0003417918105404075,-1.1613663285036684,-0.0006238344125871309,-1.2945342784432132,,,,,0.0,1.75,0.6,0.5,2.4444444444444446,3.0,2.7777777777777777,1.5555555555555556,2.0,2.4444444444444446,1.5,2.0,1.0,1.5,,,,,,,,,,,,
18,240702_145952,LEARNING,1.0,19,3.0,159.0,,,,,,,,,,19.0,19.0,19.0,cue2.png,Hard,A,,,,,,,,,,,,,,,,,,,,,,,,,,,33,20,Male,0.734375,0.7215909090909091,0.4712830599979497,7.182730918182988e-05,0.9145846922553713,6.85460050369336e-05,0.7445981906137201,0.0001707374079606529,0.5174120864082531,0.00023561053750031187,1.1551543157127033,,,,,0.0,1.75,0.6,0.5,2.4444444444444446,3.0,2.7777777777777777,1.5555555555555556,2.0,2.4444444444444446,1.5,2.0,1.0,1.5,,,,,,,,,,,,
19,240702_150023,LEARNING,1.0,20,3.0,159.0,,,,,,,,,,20.0,20.0,20.0,cue2.png,Hard,A,,,,,,,,,,,,,,,,,,,,,,,,,,,33,20,Male,0.7571428571428571,0.8,0.4340294454648921,-4.1157932744505764e-05,-0.9505646979601852,,,0.0003300345392228442,1.0391864084702538,0.00016802113295544176,0.9625032408736314,,,,,0.0,1.75,0.6,0.5,2.4444444444444446,3.0,2.7777777777777777,1.5555555555555556,2.0,2.4444444444444446,1.5,2.0,1.0,1.5,,,,,,,,,,,,
20,240702_150054,LEARNING,1.0,21,1.0,159.0,,,,,,,,,,21.0,21.0,21.0,cue1.png,Easy,A,,,,,,,,,,,,,,,,,,,,,,,,,,,33,20,Male,1.0,1.0,0.4376568818274377,-2.4850118710814922e-05,-0.6813568892047888,4.790784162020693e-05,0.37350170861685267,-0.00011328334041494411,-0.4128917568624812,-0.00035909514102016454,-0.5399440351510051,1.9980000000000002,0.9950564771855809,0.8080000000000003,-1.020379920732692,0.0,1.75,0.6,0.5,2.4444444444444446,3.0,2.7777777777777777,1.5555555555555556,2.0,2.4444444444444446,1.5,2.0,1.0,1.5,,,,,,,,,,,,
21,240702_150127,LEARNING,1.0,22,3.0,159.0,,,,,,,,,,22.0,22.0,22.0,cue2.png,Hard,A,,,,,,,,,,,,,,,,,,,,,,,,,,,33,20,Male,0.0952380952380952,0.5757575757575758,0.4951337699661963,0.00010644416094521486,1.4860363159971288,6.1102093627807275e-09,-0.4878231897854927,-0.00019046512836190434,-0.6656990407254555,-0.0003095112614575771,-0.39861437324989923,1.8399999999999999,0.7255936589080678,0.7230000000000001,-1.1782315464582165,0.0,1.75,0.6,0.5,2.4444444444444446,3.0,2.7777777777777777,1.5555555555555556,2.0,2.4444444444444446,1.5,2.0,1.0,1.5,,,,,,,,,,,,
22,240702_150200,LEARNING,1.0,23,3.0,159.0,,,,,,,,,,23.0,23.0,23.0,cue2.png,Hard,A,,,,,,,,,,,,,,,,,,,,,,,,,,,33,20,Male,0.5964285714285714,0.5727272727272728,0.4711921588408158,,,2.201322417345582e-05,-0.09211149751542758,,,,,2.148,1.2508756084617,1.097,-0.48368439326591073,0.0,1.75,0.6,0.5,2.4444444444444446,3.0,2.7777777777777777,1.5555555555555556,2.0,2.4444444444444446,1.5,2.0,1.0,1.5,,,,,,,,,,,,
23,240702_150233,LEARNING,1.0,24,3.0,159.0,,,,,,,,,,24.0,24.0,24.0,cue2.png,Hard,A,,,,,,,,,,,,,,,,,,,,,,,,,,,33,20,Male,0.84375,0.7386363636363636,0.4714153526522415,-6.7485638711793465e-06,-0.38253818159771885,,,-1.710461672304979e-05,-0.09786041917612852,-0.0008620625255303799,-1.9735593760076224,1.629,0.3657414142463268,1.0430000000000001,-0.583966602550361,0.0,1.75,0.6,0.5,2.4444444444444446,3.0,2.7777777777777777,1.5555555555555556,2.0,2.4444444444444446,1.5,2.0,1.0,1.5,,,,,,,,,,,,
24,240702_150303,LEARNING,1.0,25,1.0,159.0,,,,,,,,,,25.0,25.0,25.0,cue1.png,Easy,A,,,,,,,,,,,,,,,,,,,,,,,,,,,33,20,Male,1.0,1.0,0.4236599727512591,-0.00015456412702721583,-2.8226631287532133,-7.232020150685185e-06,-0.6179725959420285,0.00016726214085161124,0.5060289238526134,1.4434876781221212e-05,0.5247340737724493,,,,,0.0,1.75,0.6,0.5,2.4444444444444446,3.0,2.7777777777777777,1.5555555555555556,2.0,2.4444444444444446,1.5,2.0,1.0,1.5,,,,,,,,,,,,
25,240702_150335,LEARNING,1.0,26,1.0,159.0,,,,,,,,,,26.0,26.0,26.0,cue1.png,Easy,A,,,,,,,,,,,,,,,,,,,,,,,,,,,33,20,Male,1.0,1.0,0.4567137454340065,-2.9475960399297577e-05,-0.757719834111632,6.071103056242734e-05,0.6037168822668711,0.0001812558528612616,0.5518650261045013,-9.180085196585763e-05,0.2219288121008521,1.903,0.8330376940440383,,,0.0,1.75,0.6,0.5,2.4444444444444446,3.0,2.7777777777777777,1.5555555555555556,2.0,2.4444444444444446,1.5,2.0,1.0,1.5,,,,,,,,,,,,
26,240702_150407,LEARNING,1.0,27,3.0,159.0,,,,,,,,,,27.0,27.0,27.0,cue2.png,Hard,A,,,,,,,,,,,,,,,,,,,,,,,,,,,33,20,Male,0.6458333333333334,0.6761363636363636,0.4442134579324996,-3.47894995500757e-05,-0.8454352218737062,0.00010288100735926162,1.3619786383740802,-0.0004850654427186211,-1.6306560244750548,,,1.553,0.23612638773309286,,,0.0,1.75,0.6,0.5,2.4444444444444446,3.0,2.7777777777777777,1.5555555555555556,2.0,2.4444444444444446,1.5,2.0,1.0,1.5,,,,,,,,,,,,
27,240702_150437,LEARNING,1.0,28,1.0,159.0,,,,,,,,,,28.0,28.0,28.0,cue1.png,Easy,A,,,,,,,,,,,,,,,,,,,,,,,,,,,33,20,Male,1.0,1.0,0.4227803545390171,,,1.9895995699500523e-05,-0.13018155357630853,-0.0007754737463396199,-2.5818821673590664,,,2.136,1.2304100779596105,2.1060000000000003,1.3901072579935463,0.0,1.75,0.6,0.5,2.4444444444444446,3.0,2.7777777777777777,1.5555555555555556,2.0,2.4444444444444446,1.5,2.0,1.0,1.5,,,,,,,,,,,,
28,240702_150508,LEARNING,1.0,29,1.0,159.0,,,,,,,,,,29.0,29.0,29.0,cue1.png,Easy,A,,,,,,,,,,,,,,,,,,,,,,,,,,,33,20,Male,1.0,1.0,0.4207467636389827,5.523951601923158e-05,0.6407550152572595,-3.5048521038353285e-05,-1.1181433433308285,-0.00039850917564430034,-1.3471428361641713,,,1.2230000000000003,-0.32667570107436916,1.045,-0.5802524466509373,0.0,1.75,0.6,0.5,2.4444444444444446,3.0,2.7777777777777777,1.5555555555555556,2.0,2.4444444444444446,1.5,2.0,1.0,1.5,,,,,,,,,,,,
29,240702_150539,LEARNING,1.0,30,3.0,159.0,,,,,,,,,,30.0,30.0,30.0,cue2.png,Hard,A,,,,,,,,,,,,,,,,,,,,,,,,,,,33,20,Male,0.8802083333333333,0.8920454545454546,0.4358858571698268,-2.020004101561338e-05,-0.6045938586550572,0.00010202246212897333,1.3465410672994684,0.00042846206194561325,1.3615836389413112,-0.0004498535144634875,-0.7986339631395643,0.931,-0.8246702766252154,1.2990000000000002,-0.10855464742407672,0.0,1.75,0.6,0.5,2.4444444444444446,3.0,2.7777777777777777,1.5555555555555556,2.0,2.4444444444444446,1.5,2.0,1.0,1.5,,,,,,,,,,,,
30,240702_150611,LEARNING,1.0,31,3.0,159.0,,,,,,,,,,31.0,31.0,31.0,cue2.png,Hard,A,,,,,,,,,,,,,,,,,,,,,,,,,,,33,20,Male,0.5214285714285714,0.6424242424242425,0.4384982600109651,1.7930697359930855e-05,0.02486466368880699,0.00010825500374176235,1.458608901035612,-0.0005330596286077594,-1.7878599465218696,,,,,,,0.0,1.75,0.6,0.5,2.4444444444444446,3.0,2.7777777777777777,1.5555555555555556,2.0,2.4444444444444446,1.5,2.0,1.0,1.5,,,,,,,,,,,,
31,240702_150642,LEARNING,1.0,32,1.0,159.0,,,,,,,,,,32.0,32.0,32.0,cue1.png,Easy,A,,,,,,,,,,,,,,,,,,,,,,,,,,,33,20,Male,0.8802083333333333,0.8465909090909091,0.4442258299794048,,,-4.296596547955899e-05,-1.2605075508046297,-8.701784406831004e-06,-0.0703371229280664,0.0004297582589512937,1.7085364244463004,1.076,-0.5773784497249667,1.3539999999999999,-0.0064153601899146154,0.0,1.75,0.6,0.5,2.4444444444444446,3.0,2.7777777777777777,1.5555555555555556,2.0,2.4444444444444446,1.5,2.0,1.0,1.5,,,,,,,,,,,,
32,240702_150713,LEARNING,1.0,33,1.0,159.0,,,,,,,,,,33.0,33.0,33.0,cue1.png,Easy,A,,,,,,,,,,,,,,,,,,,,,,,,,,,33,20,Male,1.0,1.0,0.4340840045637874,-3.338457323736645e-05,-0.8222428348789879,,,,,,,2.08,1.1349042689498592,1.308,-0.09184094587666848,0.0,1.75,0.6,0.5,2.4444444444444446,3.0,2.7777777777777777,1.5555555555555556,2.0,2.4444444444444446,1.5,2.0,1.0,1.5,,,,,,,,,,,,
33,240702_150744,LEARNING,1.0,34,1.0,159.0,,,,,,,,,,34.0,34.0,34.0,cue1.png,Easy,A,,,,,,,,,,,,,,,,,,,,,,,,,,,33,20,Male,1.0,1.0,0.4130524863510139,-3.632069129674625e-05,-0.8707119863777613,,,,,0.00020999698274253627,1.0821476234987029,1.2239999999999998,-0.324970240199196,0.9619999999999997,-0.7343899164770377,0.0,1.75,0.6,0.5,2.4444444444444446,3.0,2.7777777777777777,1.5555555555555556,2.0,2.4444444444444446,1.5,2.0,1.0,1.5,,,,,,,,,,,,
34,240702_150816,LEARNING,1.0,35,3.0,159.0,,,,,,,,,,35.0,35.0,35.0,cue2.png,Hard,A,,,,,,,,,,,,,,,,,,,,,,,,,,,33,20,Male,0.8571428571428572,0.8666666666666667,0.4744343226987191,,,,,0.00018061735407637856,0.5497736370883901,-0.00021552576724849504,-0.1307261354323748,0.8739999999999999,-0.9218815465101411,1.8899999999999997,0.9889784208557427,0.0,1.75,0.6,0.5,2.4444444444444446,3.0,2.7777777777777777,1.5555555555555556,2.0,2.4444444444444446,1.5,2.0,1.0,1.5,,,,,,,,,,,,
35,240702_150848,LEARNING,1.0,36,3.0,159.0,,,,,,,,,,36.0,36.0,36.0,cue2.png,Hard,A,,,,,,,,,,,,,,,,,,,,,,,,,,,33,20,Male,0.6349206349206349,0.7333333333333334,0.4647155318578536,,,,,-4.332592355740968e-06,-0.05602592848060385,-0.000447403011526795,-0.7916492585423118,0.7839999999999998,-1.075373025275813,1.1010000000000002,-0.47625608146706216,0.0,1.75,0.6,0.5,2.4444444444444446,3.0,2.7777777777777777,1.5555555555555556,2.0,2.4444444444444446,1.5,2.0,1.0,1.5,,,,,,,,,,,,
36,240702_150919,LEARNING,1.0,37,1.0,159.0,,,,,,,,,,37.0,37.0,37.0,cue1.png,Easy,A,,,,,,,,,,,,,,,,,,,,,,,,,,,33,20,Male,1.0,0.9545454545454546,0.4333471952316661,0.00015370637909722495,2.2662364188028485,8.513584659058373e-05,1.0429014704712383,0.0003254057003014557,1.0240247462921293,-0.0002017014227584926,-0.09132240280773649,1.135,-0.4767562580896931,1.318,-0.07327016637954799,0.0,1.75,0.6,0.5,2.4444444444444446,3.0,2.7777777777777777,1.5555555555555556,2.0,2.4444444444444446,1.5,2.0,1.0,1.5,,,,,,,,,,,,
37,240702_150952,LEARNING,1.0,38,3.0,159.0,,,,,,,,,,38.0,38.0,38.0,cue2.png,Hard,A,,,,,,,,,,,,,,,,,,,,,,,,,,,33,20,Male,0.84375,0.7386363636363636,0.4931786473546373,3.4775232925359466e-05,0.3029326193144375,-1.2058954867310342e-05,-0.7047660986389,-0.0003422124340770579,-1.1627440718374,-0.0009288346712621634,-2.1638810060199045,1.1210000000000002,-0.5006327103421305,1.004,-0.6563926425891311,0.0,1.75,0.6,0.5,2.4444444444444446,3.0,2.7777777777777777,1.5555555555555556,2.0,2.4444444444444446,1.5,2.0,1.0,1.5,,,,,,,,,,,,
38,240702_151023,LEARNING,1.0,39,3.0,159.0,,,,,,,,,,39.0,39.0,39.0,cue2.png,Hard,A,,,,,,,,,,,,,,,,,,,,,,,,,,,33,20,Male,0.5833333333333334,0.7045454545454546,0.4555940476379224,-6.114100405800677e-05,-1.2804432966121284,2.385902135264165e-05,-0.05892206947162917,-0.0003500567397895357,-1.1884379262260172,-0.0005132010917748642,-0.979194495365975,,,,,0.0,1.75,0.6,0.5,2.4444444444444446,3.0,2.7777777777777777,1.5555555555555556,2.0,2.4444444444444446,1.5,2.0,1.0,1.5,,,,,,,,,,,,
39,240702_151056,LEARNING,1.0,40,3.0,159.0,,,,,,,,,,40.0,40.0,40.0,cue2.png,Hard,A,,,,,,,,,,,,,,,,,,,,,,,,,,,33,20,Male,0.6904761904761905,0.7090909090909091,0.4720196049893275,,,-3.2963028922601296e-05,-1.0806439412880806,-0.0003266169503523108,-1.1116614008361536,,,1.38,-0.05891834367203159,2.34,1.8246634982261647,0.0,1.75,0.6,0.5,2.4444444444444446,3.0,2.7777777777777777,1.5555555555555556,2.0,2.4444444444444446,1.5,2.0,1.0,1.5,,,,,,,,,,,,
40,240702_151127,LEARNING,1.0,41,1.0,159.0,,,,,,,,,,41.0,41.0,41.0,cue1.png,Easy,A,,,,,,,,,,,,,,,,,,,,,,,,,,,33,20,Male,0.9642857142857144,0.9545454545454546,0.4318388809693888,6.0075183960677566e-05,0.7205817515504233,,,0.00026975677557863637,0.8417478920847741,-0.00036484977103783643,-0.5563465418111976,1.545,0.22248270073169982,1.743,0.7159879622480725,0.0,1.75,0.6,0.5,2.4444444444444446,3.0,2.7777777777777777,1.5555555555555556,2.0,2.4444444444444446,1.5,2.0,1.0,1.5,,,,,,,,,,,,
41,240702_151159,LEARNING,1.0,42,3.0,159.0,,,,,,,,,,42.0,42.0,42.0,cue2.png,Hard,A,,,,,,,,,,,,,,,,,,,,,,,,,,,33,20,Male,0.8802083333333333,0.7556818181818181,0.4627360055326587,-1.826399044350382e-05,-0.5726337240177304,,,-0.0001247318544121464,-0.45039111785019126,-0.00025757613375430085,-0.25058291415783923,,,,,0.0,1.75,0.6,0.5,2.4444444444444446,3.0,2.7777777777777777,1.5555555555555556,2.0,2.4444444444444446,1.5,2.0,1.0,1.5,,,,,,,,,,,,
42,240702_151231,LEARNING,1.0,43,3.0,159.0,,,,,,,,,,43.0,43.0,43.0,cue2.png,Hard,A,,,,,,,,,,,,,,,,,,,,,,,,,,,33,20,Male,0.8571428571428572,0.8666666666666667,0.4450267318064685,-1.1479173070551817e-05,-0.4606306183896876,,,,,-0.0007649972505263869,-1.69689279364921,2.296,1.5032838179874708,1.621,0.4894244523832024,0.0,1.75,0.6,0.5,2.4444444444444446,3.0,2.7777777777777777,1.5555555555555556,2.0,2.4444444444444446,1.5,2.0,1.0,1.5,,,,,,,,,,,,
43,240702_151301,LEARNING,1.0,44,1.0,159.0,,,,,,,,,,44.0,44.0,44.0,cue1.png,Easy,A,,,,,,,,,,,,,,,,,,,,,,,,,,,33,20,Male,1.0,0.9545454545454546,0.4032624142820991,4.964145793811192e-05,0.5483428166517188,3.1106188176368513e-05,0.07138982206760375,,,,,2.11,1.1860680952050828,2.235,1.6296703135063997,0.0,1.75,0.6,0.5,2.4444444444444446,3.0,2.7777777777777777,1.5555555555555556,2.0,2.4444444444444446,1.5,2.0,1.0,1.5,,,,,,,,,,,,
44,240702_151332,LEARNING,1.0,45,1.0,159.0,,,,,,,,,,45.0,45.0,45.0,cue1.png,Easy,A,,,,,,,,,,,,,,,,,,,,,,,,,,,33,20,Male,1.0,1.0,0.4049512772630392,8.87503098935035e-05,1.1939479428874724,4.988326027273362e-05,0.4090218708338798,0.00016146246376041225,0.4870322064700631,,,,,,,0.0,1.75,0.6,0.5,2.4444444444444446,3.0,2.7777777777777777,1.5555555555555556,2.0,2.4444444444444446,1.5,2.0,1.0,1.5,,,,,,,,,,,,
45,240702_151402,LEARNING,1.0,46,1.0,159.0,,,,,,,,,,46.0,46.0,46.0,cue1.png,Easy,A,,,,,,,,,,,,,,,,,,,,,,,,,,,33,20,Male,1.0,1.0,0.4324079636505551,,,1.1068421232052206e-05,-0.2889108825039217,,,,,0.40400000000000014,-1.7234481578419814,0.813,-1.0110945309841324,0.0,1.75,0.6,0.5,2.4444444444444446,3.0,2.7777777777777777,1.5555555555555556,2.0,2.4444444444444446,1.5,2.0,1.0,1.5,,,,,,,,,,,,
46,240702_151433,LEARNING,1.0,47,3.0,159.0,,,,,,,,,,47.0,47.0,47.0,cue2.png,Hard,A,,,,,,,,,,,,,,,,,,,,,,,,,,,33,20,Male,0.78125,0.8295454545454546,0.4252774714314866,-7.259306342060571e-06,-0.39096946865680565,-1.405560276400604e-05,-0.7406679856086339,0.0008160721695351595,2.631192196919887,-0.0001807137311223327,-0.031500876352166,1.198,-0.369312222953723,1.66,0.5618504924219722,0.0,1.75,0.6,0.5,2.4444444444444446,3.0,2.7777777777777777,1.5555555555555556,2.0,2.4444444444444446,1.5,2.0,1.0,1.5,,,,,,,,,,,,
47,240702_151505,LEARNING,1.0,48,3.0,159.0,,,,,,,,,,48.0,48.0,48.0,cue2.png,Hard,A,,,,,,,,,,,,,,,,,,,,,,,,,,,33,20,Male,0.84375,0.8295454545454546,0.4475980000016057,9.759424002953997e-05,1.3399426818383524,-2.5657754633575357e-06,-0.5340684736304266,,,,,2.0420000000000003,1.0700967556932426,0.742,-1.1429470654136877,0.0,1.75,0.6,0.5,2.4444444444444446,3.0,2.7777777777777777,1.5555555555555556,2.0,2.4444444444444446,1.5,2.0,1.0,1.5,,,,,,,,,,,,
48,240702_151535,LEARNING,1.0,49,1.0,159.0,,,,,,,,,,49.0,49.0,49.0,cue1.png,Easy,A,,,,,,,,,,,,,,,,,,,,,,,,,,,33,20,Male,1.0,1.0,0.4077200045470487,4.0649048078036584e-05,0.3998969888503937,6.557803759385007e-05,0.6912309284901496,,,9.282287050164321e-05,0.7481645263176019,,,,,0.0,1.75,0.6,0.5,2.4444444444444446,3.0,2.7777777777777777,1.5555555555555556,2.0,2.4444444444444446,1.5,2.0,1.0,1.5,,,,,,,,,,,,
49,240702_151607,LEARNING,1.0,50,1.0,159.0,,,,,,,,,,50.0,50.0,50.0,cue1.png,Easy,A,,,,,,,,,,,,,,,,,,,,,,,,,,,33,20,Male,0.9583333333333334,0.9545454545454546,0.4539269952192193,,,,,4.3459431195552387e-05,0.10051581518333806,,,-0.030000000000000027,-2.463618177667554,2.316,1.7800936274330754,0.0,1.75,0.6,0.5,2.4444444444444446,3.0,2.7777777777777777,1.5555555555555556,2.0,2.4444444444444446,1.5,2.0,1.0,1.5,,,,,,,,,,,,
0,240702_151733,TrueCHOICE,9.0,1,3.0,159.0,,,,,,,,,,,1.0,1.0,,,A,,,,,,True,cue1.png,Easy,cue2.png,Hard,Right,Hard,Hard,0.0164588000625371,,,,,,,,,,,,,33,20,Male,0.84375,0.875,0.4779327954377301,,,,,,,,,,,,,0.0,1.75,0.6,0.5,2.4444444444444446,3.0,2.7777777777777777,1.5555555555555556,2.0,2.4444444444444446,1.5,2.0,1.0,1.5,,,-0.0011754829882054487,-1.6223342788463944,1.5429999999999997,0.539921406048632,,,,,,
1,240702_151802,TrueCHOICE,9.0,2,1.0,159.0,,,,,,,,,,,2.0,2.0,,,A,,,,,,True,cue1.png,Easy,cue2.png,Hard,Left,Easy,Easy,0.0145736001431941,,,,,,,,,,,,,33,20,Male,,,,,,,,,,,,,,,,0.0,1.75,0.6,0.5,2.4444444444444446,3.0,2.7777777777777777,1.5555555555555556,2.0,2.4444444444444446,1.5,2.0,1.0,1.5,-4.663814151998442e-05,-1.1149101195321744,,,1.4519999999999997,-0.04153241584989597,,,,,,
2,240702_151831,TrueCHOICE,9.0,3,1.0,159.0,,,,,,,,,,,3.0,3.0,,,A,,,,,,True,cue2.png,Hard,cue1.png,Easy,Right,Easy,Easy,0.0165109999943524,,,,,,,,,,,,,33,20,Male,1.0,0.9545454545454546,0.4009444333635093,,,,,,,,,,,,,0.0,1.75,0.6,0.5,2.4444444444444446,3.0,2.7777777777777777,1.5555555555555556,2.0,2.4444444444444446,1.5,2.0,1.0,1.5,-1.4590596005359738e-06,-0.5131986851451822,,,1.457,-0.00958440365766699,,,,,,
3,240702_151859,TrueCHOICE,9.0,4,1.0,159.0,,,,,,,,,,,4.0,4.0,,,A,,,,,,True,cue1.png,Easy,cue2.png,Hard,Left,Easy,Easy,0.0173466000705957,,,,,,,,,,,,,33,20,Male,1.0,1.0,0.421421400017359,,,,,,,,,,,,,0.0,1.75,0.6,0.5,2.4444444444444446,3.0,2.7777777777777777,1.5555555555555556,2.0,2.4444444444444446,1.5,2.0,1.0,1.5,,,-0.001105694869558764,-1.491031115169929,1.1300000000000001,-2.098984401029301,,,,,,
4,240702_151929,TrueCHOICE,9.0,5,1.0,159.0,,,,,,,,,,,5.0,5.0,,,A,,,,,,True,cue2.png,Hard,cue1.png,Easy,Right,Easy,Easy,0.0192470999900251,,,,,,,,,,,,,33,20,Male,0.938095238095238,0.9333333333333332,0.4847651908957315,,,,,,,,,,,,,0.0,1.75,0.6,0.5,2.4444444444444446,3.0,2.7777777777777777,1.5555555555555556,2.0,2.4444444444444446,1.5,2.0,1.0,1.5,5.266464178578425e-05,0.20764044243073215,-6.429586475491592e-05,0.46831363622728545,1.577,0.757167888955776,,,,,,
5,240702_151958,TrueCHOICE,9.0,6,1.0,159.0,,,,,,,,,,,6.0,6.0,,,A,,,,,,True,cue2.png,Hard,cue1.png,Easy,Right,Easy,Easy,0.0173762999475002,,,,,,,,,,,,,33,20,Male,1.0,1.0,0.4653654318112372,,,,,,,,,,,,,0.0,1.75,0.6,0.5,2.4444444444444446,3.0,2.7777777777777777,1.5555555555555556,2.0,2.4444444444444446,1.5,2.0,1.0,1.5,8.869157623252319e-05,0.687460250216195,0.0004843772269391604,1.5006170448964338,1.5919999999999999,0.8530119255324559,,,,,,
6,240702_152027,TrueCHOICE,9.0,7,1.0,159.0,,,,,,,,,,,7.0,7.0,,,A,,,,,,True,cue1.png,Easy,cue2.png,Hard,Left,Easy,Easy,0.0159836001694202,,,,,,,,,,,,,33,20,Male,,,,,,,,,,,,,,,,0.0,1.75,0.6,0.5,2.4444444444444446,3.0,2.7777777777777777,1.5555555555555556,2.0,2.4444444444444446,1.5,2.0,1.0,1.5,0.00012301241599959462,1.1445576689382173,-0.00042285870201178716,-0.2063059956185047,,,,,,,,
7,240702_152055,TrueCHOICE,9.0,8,1.0,159.0,,,,,,,,,,,8.0,8.0,,,A,,,,,,True,cue2.png,Hard,cue1.png,Easy,Right,Easy,Easy,0.0167492998298257,,,,,,,,,,,,,33,20,Male,1.0,1.0,0.4193417273080823,,,,,,,,,,,,,0.0,1.75,0.6,0.5,2.4444444444444446,3.0,2.7777777777777777,1.5555555555555556,2.0,2.4444444444444446,1.5,2.0,1.0,1.5,0.00012212430905551158,1.13272953785388,-8.233216224899642e-05,0.43437916474551014,,,,,,,,
8,240702_152124,TrueCHOICE,9.0,9,1.0,159.0,,,,,,,,,,,9.0,9.0,,,A,,,,,,True,cue1.png,Easy,cue2.png,Hard,Left,Easy,Easy,0.014384799869731,,,,,,,,,,,,,33,20,Male,1.0,1.0,0.426089431847107,,,,,,,,,,,,,0.0,1.75,0.6,0.5,2.4444444444444446,3.0,2.7777777777777777,1.5555555555555556,2.0,2.4444444444444446,1.5,2.0,1.0,1.5,-7.8877010514265e-05,-1.5442790947616676,-1.3204577351932055e-05,0.5644395642850123,,,,,,,,
9,240702_152152,TrueCHOICE,9.0,10,1.0,159.0,,,,,,,,,,,10.0,10.0,,,A,,,,,,True,cue2.png,Hard,cue1.png,Easy,Right,Easy,Easy,0.0163908000104129,,,,,,,,,,,,,33,20,Male,1.0,1.0,0.3904165863588621,,,,,,,,,,,,,0.0,1.75,0.6,0.5,2.4444444444444446,3.0,2.7777777777777777,1.5555555555555556,2.0,2.4444444444444446,1.5,2.0,1.0,1.5,,,-0.00012615846214470566,0.35192197948058634,,,,,,,,
0,240702_152329,FalseCHOICE,9.0,1,2.0,159.0,,,,,,,,,,,1.0,1.0,,,A,,,,,,False,cue1.png,Easy,cue2.png,Hard,Left,Easy,Mid,0.0163646999280899,,,,,,,,,,,,,33,20,Male,0.0802083333333333,0.6420454545454546,0.2629076380814825,,,,,,,,,,,,,0.0,1.75,0.6,0.5,2.4444444444444446,3.0,2.7777777777777777,1.5555555555555556,2.0,2.4444444444444446,1.5,2.0,1.0,1.5,,,-0.0011754829882054487,-1.6223342788463944,1.5429999999999997,0.539921406048632,,,,,,
1,240702_152359,FalseCHOICE,9.0,2,2.0,159.0,,,,,,,,,,,2.0,2.0,,,A,,,,,,False,cue2.png,Hard,cue1.png,Easy,Right,Easy,Mid,0.0165919000282883,,,,,,,,,,,,,33,20,Male,,,,,,,,,,,,,,,,0.0,1.75,0.6,0.5,2.4444444444444446,3.0,2.7777777777777777,1.5555555555555556,2.0,2.4444444444444446,1.5,2.0,1.0,1.5,-4.663814151998442e-05,-1.1149101195321744,,,1.4519999999999997,-0.04153241584989597,,,,,,
2,240702_152429,FalseCHOICE,9.0,3,2.0,159.0,,,,,,,,,,,3.0,3.0,,,A,,,,,,False,cue2.png,Hard,cue1.png,Easy,Left,Hard,Mid,0.0159054000396281,,,,,,,,,,,,,33,20,Male,,,,,,,,,,,,,,,,0.0,1.75,0.6,0.5,2.4444444444444446,3.0,2.7777777777777777,1.5555555555555556,2.0,2.4444444444444446,1.5,2.0,1.0,1.5,-1.4590596005359738e-06,-0.5131986851451822,,,1.457,-0.00958440365766699,,,,,,
3,240702_152501,FalseCHOICE,9.0,4,2.0,159.0,,,,,,,,,,,4.0,4.0,,,A,,,,,,False,cue2.png,Hard,cue1.png,Easy,Right,Easy,Mid,0.0177223999053239,,,,,,,,,,,,,33,20,Male,0.8571428571428572,0.7303030303030303,0.5224682263000623,,,,,,,,,,,,,0.0,1.75,0.6,0.5,2.4444444444444446,3.0,2.7777777777777777,1.5555555555555556,2.0,2.4444444444444446,1.5,2.0,1.0,1.5,,,-0.001105694869558764,-1.491031115169929,1.1300000000000001,-2.098984401029301,,,,,,
4,240702_152531,FalseCHOICE,9.0,5,2.0,159.0,,,,,,,,,,,5.0,5.0,,,A,,,,,,False,cue1.png,Easy,cue2.png,Hard,Right,Hard,Mid,0.0165579000022262,,,,,,,,,,,,,33,20,Male,,,,,,,,,,,,,,,,0.0,1.75,0.6,0.5,2.4444444444444446,3.0,2.7777777777777777,1.5555555555555556,2.0,2.4444444444444446,1.5,2.0,1.0,1.5,5.266464178578425e-05,0.20764044243073215,-6.429586475491592e-05,0.46831363622728545,1.577,0.757167888955776,,,,,,
5,240702_152600,FalseCHOICE,9.0,6,2.0,159.0,,,,,,,,,,,6.0,6.0,,,A,,,,,,False,cue2.png,Hard,cue1.png,Easy,Right,Easy,Mid,0.0155959001276642,,,,,,,,,,,,,33,20,Male,0.8571428571428572,0.8212121212121213,0.4667758285844077,,,,,,,,,,,,,0.0,1.75,0.6,0.5,2.4444444444444446,3.0,2.7777777777777777,1.5555555555555556,2.0,2.4444444444444446,1.5,2.0,1.0,1.5,8.869157623252319e-05,0.687460250216195,0.0004843772269391604,1.5006170448964338,1.5919999999999999,0.8530119255324559,,,,,,
6,240702_152630,FalseCHOICE,9.0,7,2.0,159.0,,,,,,,,,,,7.0,7.0,,,A,,,,,,False,cue2.png,Hard,cue1.png,Easy,Right,Easy,Mid,0.016565800178796,,,,,,,,,,,,,33,20,Male,1.0,0.9545454545454546,0.4154170904796393,,,,,,,,,,,,,0.0,1.75,0.6,0.5,2.4444444444444446,3.0,2.7777777777777777,1.5555555555555556,2.0,2.4444444444444446,1.5,2.0,1.0,1.5,0.00012301241599959462,1.1445576689382173,-0.00042285870201178716,-0.2063059956185047,,,,,,,,
7,240702_152700,FalseCHOICE,9.0,8,2.0,159.0,,,,,,,,,,,8.0,8.0,,,A,,,,,,False,cue1.png,Easy,cue2.png,Hard,Right,Hard,Mid,0.0166554998140782,,,,,,,,,,,,,33,20,Male,,,,,,,,,,,,,,,,0.0,1.75,0.6,0.5,2.4444444444444446,3.0,2.7777777777777777,1.5555555555555556,2.0,2.4444444444444446,1.5,2.0,1.0,1.5,0.00012212430905551158,1.13272953785388,-8.233216224899642e-05,0.43437916474551014,,,,,,,,
8,240702_152730,FalseCHOICE,9.0,9,2.0,159.0,,,,,,,,,,,9.0,9.0,,,A,,,,,,False,cue1.png,Easy,cue2.png,Hard,Right,Hard,Mid,0.0153820000123232,,,,,,,,,,,,,33,20,Male,0.7571428571428571,0.7545454545454546,0.4507639047889305,,,,,,,,,,,,,0.0,1.75,0.6,0.5,2.4444444444444446,3.0,2.7777777777777777,1.5555555555555556,2.0,2.4444444444444446,1.5,2.0,1.0,1.5,-7.8877010514265e-05,-1.5442790947616676,-1.3204577351932055e-05,0.5644395642850123,,,,,,,,
9,240702_152800,FalseCHOICE,9.0,10,2.0,159.0,,,,,,,,,,,10.0,10.0,,,A,,,,,,False,cue2.png,Hard,cue1.png,Easy,Right,Easy,Mid,0.0169957000762224,,,,,,,,,,,,,33,20,Male,,,,,,,,,,,,,,,,0.0,1.75,0.6,0.5,2.4444444444444446,3.0,2.7777777777777777,1.5555555555555556,2.0,2.4444444444444446,1.5,2.0,1.0,1.5,,,-0.00012615846214470566,0.35192197948058634,,,,,,,,
0,240702_144917,OFFLINERATING,9.0,1,1.0,,,,,,,,,,,,,,,,,T0,cue1.png,Easy,41.0,1.807457699906081,,,,,,,,,,,,,,,,,,,,,,33,20,Male,,,,,,,,,,,,,,,,0.0,1.75,0.6,0.5,2.4444444444444446,3.0,2.7777777777777777,1.5555555555555556,2.0,2.4444444444444446,1.5,2.0,1.0,1.5,,,,,,,-2.1039062865572163e-05,-0.7205733047142523,,,,
1,240702_144925,OFFLINERATING,9.0,2,3.0,,,,,,,,,,,,,,,,,T0,cue2.png,Hard,55.0,1.7689536001998931,,,,,,,,,,,,,,,,,,,,,,33,20,Male,,,,,,,,,,,,,,,,0.0,1.75,0.6,0.5,2.4444444444444446,3.0,2.7777777777777777,1.5555555555555556,2.0,2.4444444444444446,1.5,2.0,1.0,1.5,,,,,,,3.077534557049998e-05,1.4141275247851632,,,,
2,240702_151627,OFFLINERATING,9.0,3,1.0,,,,,,,,,,,,,,,,,T1,cue1.png,Easy,84.0,1.3666078001260755,,,,,,,,,,,,,,,,,,,,,,33,20,Male,,,,,,,,,,,,,,,,0.0,1.75,0.6,0.5,2.4444444444444446,3.0,2.7777777777777777,1.5555555555555556,2.0,2.4444444444444446,1.5,2.0,1.0,1.5,,,,,,,,,4.123919848604118e-05,-1.0738643037715812,1.4699999999999998,0.2639874743832334
3,240702_151635,OFFLINERATING,9.0,4,3.0,,,,,,,,,,,,,,,,,T1,cue2.png,Hard,35.0,1.0851157000288367,,,,,,,,,,,,,,,,,,,,,,33,20,Male,,,,,,,,,,,,,,,,0.0,1.75,0.6,0.5,2.4444444444444446,3.0,2.7777777777777777,1.5555555555555556,2.0,2.4444444444444446,1.5,2.0,1.0,1.5,,,,,,,,,0.00026360158426441595,-0.2600067371225717,2.005,0.9781887325123358
4,240702_152208,OFFLINERATING,9.0,5,1.0,,,,,,,,,,,,,,,,,T2,cue1.png,Easy,86.0,2.1528407000005245,,,,,,,,,,,,,,,,,,,,,,33,20,Male,,,,,,,,,,,,,,,,0.0,1.75,0.6,0.5,2.4444444444444446,3.0,2.7777777777777777,1.5555555555555556,2.0,2.4444444444444446,1.5,2.0,1.0,1.5,,,,,,,,,,,1.593,0.42818701597179365
5,240702_152216,OFFLINERATING,9.0,6,3.0,,,,,,,,,,,,,,,,,T2,cue2.png,Hard,32.0,2.6529191001318395,,,,,,,,,,,,,,,,,,,,,,33,20,Male,,,,,,,,,,,,,,,,0.0,1.75,0.6,0.5,2.4444444444444446,3.0,2.7777777777777777,1.5555555555555556,2.0,2.4444444444444446,1.5,2.0,1.0,1.5,,,,,,,,,,,0.020999999999999908,-1.6703632228673628
6,240702_154744,OFFLINERATING,9.0,7,1.0,,,,,,,,,,,,,,,,,T3,cue1.png,Easy,53.0,1.2820270999800414,,,,,,,,,,,,,,,,,,,,,,33,20,Male,,,,,,,,,,,,,,,,0.0,1.75,0.6,0.5,2.4444444444444446,3.0,2.7777777777777777,1.5555555555555556,2.0,2.4444444444444446,1.5,2.0,1.0,1.5,,,,,,,,,0.0006990813044054009,1.3338710408941528,,
7,240702_154751,OFFLINERATING,9.0,8,3.0,,,,,,,,,,,,,,,,,T3,cue2.png,Hard,47.0,1.1851208000443876,,,,,,,,,,,,,,,,,,,,,,33,20,Male,,,,,,,,,,,,,,,,0.0,1.75,0.6,0.5,2.4444444444444446,3.0,2.7777777777777777,1.5555555555555556,2.0,2.4444444444444446,1.5,2.0,1.0,1.5,,,,,,,-2.0383243620115087e-05,-0.6935542200709108,,,,
