,END,Phase,Block,TrialN,NbackLevel,ISI,Letter_Resp,Letter_RT,Letter_Accuracy,Trial_A_measure,Trial_ACC,Trial_RT,TrialCountCali,CaliEnd_A_measure,ISI_calibrated,TrialIndex,TrialNumber_total,TrialNumber_valid,CueLearning,TrialDemandLearning,CueMapping,OfflineRatingTimePoint,CueFigure,TrialDemand,OfflineRating,OfflineRatingRT,PhaseType,CueLeft,CueDemandLeft,CueRight,CueDemandRight,Choice,ChoiceDemand,TaskDemand,ChoiceRT,CueCheck,CueDemandCheck,CorrectAnswer,Answer,AnswerDemand,AnswerRT,AnswerACC,DemandRatingQuesIndex,QuesTLX,DemandLevel,DemandRating,DemandRatingRT,PID,Age,Gender,Task_A_measure,Task_ACC,Task_RT,cue_i_on_zyg_values,cue_i_on_zyg_zvalues,cue_e_on_zyg_values,cue_e_on_zyg_zvalues,cue_i_on_cor_values,cue_i_on_cor_zvalues,cue_e_on_cor_values,cue_e_on_cor_zvalues,cue_i_on_scr_values,cue_i_on_scr_zvalues,cue_e_on_scr_values,cue_e_on_scr_zvalues,BAI_bis,BAI_bas_d,BAI_bas_rr,BAI_bas_fs,NFC,BFI_ext,BFI_agr,BFI_con,BFI_neu,BFI_open,UPPS_lps,UPPS_lpm,UPPS_pu,UPPS_ss,cue_e_true_zyg_values,cue_e_true_zyg_zvalues,cue_e_true_cor_values,cue_e_true_cor_zvalues,cue_e_true_scr_values,cue_e_true_scr_zvalues,cue_i_off_zyg_values,cue_i_off_zyg_zvalues,cue_i_off_cor_values,cue_i_off_cor_zvalues,cue_i_off_scr_values,cue_i_off_scr_zvalues
0,240703_144647,LEARNING,1.0,1,1.0,2583.0,,,,,,,,,,1.0,1.0,1.0,cue2.png,Easy,B,,,,,,,,,,,,,,,,,,,,,,,,,,,34,29,Female,1.0,1.0,0.6537799999738733,0.00013809634538608853,0.7133318230699143,0.0001709451579000468,2.6533797220537743,,,0.0002275011241052458,1.4199522055996183,1.386,-0.20235442753812438,1.5579999999999998,0.15985078576398717,0.42857142857142855,1.0,0.0,0.5,2.4444444444444446,2.625,2.5555555555555554,2.7777777777777777,2.5,3.111111111111111,2.25,1.75,1.0,0.25,,,,,,,,,,,,
1,240703_144705,LEARNING,1.0,2,3.0,2583.0,,,,,,,,,,2.0,2.0,2.0,cue1.png,Hard,B,,,,,,,,,,,,,,,,,,,,,,,,,,,34,29,Female,1.0,1.0,0.4939458333343888,1.7953170511079454e-05,-0.03853617461209367,3.966549619097105e-05,0.45134926310535783,,,4.220927468396012e-06,-0.2334993080744341,1.4489999999999998,-0.10829974126771436,1.4580000000000002,-0.021222901258353136,0.42857142857142855,1.0,0.0,0.5,2.4444444444444446,2.625,2.5555555555555554,2.7777777777777777,2.5,3.111111111111111,2.25,1.75,1.0,0.25,,,,,,,,,,,,
2,240703_144723,LEARNING,1.0,3,1.0,2583.0,,,,,,,,,,3.0,3.0,3.0,cue2.png,Easy,B,,,,,,,,,,,,,,,,,,,,,,,,,,,34,29,Female,1.0,1.0,0.5559258998837322,5.561535158223529e-05,0.19715751918088903,1.6467051346894662e-06,-0.18636212972145638,-2.002337588979681e-05,-0.31509344426860175,1.7100773252454182e-05,-0.13812049334606757,1.1580000000000001,-0.5427428159453225,1.4489999999999998,-0.03751953309036444,0.42857142857142855,1.0,0.0,0.5,2.4444444444444446,2.625,2.5555555555555554,2.7777777777777777,2.5,3.111111111111111,2.25,1.75,1.0,0.25,,,,,,,,,,,,
3,240703_144741,LEARNING,1.0,4,3.0,2583.0,,,,,,,,,,4.0,4.0,4.0,cue1.png,Hard,B,,,,,,,,,,,,,,,,,,,,,,,,,,,34,29,Female,1.0,1.0,0.4800183332990855,-4.8804864542598483e-05,-0.4563146310014196,4.4521575734375596e-05,0.5328031221909337,6.957708737176599e-05,0.20627854082138602,,,1.5879999999999999,0.09921774113842857,1.1320000000000001,-0.6115231209511848,0.42857142857142855,1.0,0.0,0.5,2.4444444444444446,2.625,2.5555555555555554,2.7777777777777777,2.5,3.111111111111111,2.25,1.75,1.0,0.25,,,,,,,,,,,,
4,240703_144758,LEARNING,1.0,5,3.0,2583.0,,,,,,,,,,5.0,5.0,5.0,cue1.png,Hard,B,,,,,,,,,,,,,,,,,,,,,,,,,,,34,29,Female,1.0,1.0,0.4361441833898425,0.00010124115433286524,0.4826883534745487,7.398358839718743e-05,1.0269866721851864,0.00016330108862047405,0.7516447900891816,0.00010654180838650523,0.5242150704634633,,,1.588,0.21417289187068989,0.42857142857142855,1.0,0.0,0.5,2.4444444444444446,2.625,2.5555555555555554,2.7777777777777777,2.5,3.111111111111111,2.25,1.75,1.0,0.25,,,,,,,,,,,,
5,240703_144816,LEARNING,1.0,6,1.0,2583.0,,,,,,,,,,6.0,6.0,6.0,cue2.png,Easy,B,,,,,,,,,,,,,,,,,,,,,,,,,,,34,29,Female,1.0,1.0,0.5775042000071456,3.3096970553705366e-05,0.05623523980400961,3.937864175644276e-05,0.4465376860956949,7.481304843077628e-05,0.2367458320810412,0.00010972415541626304,0.547781229006163,-0.008499999999999952,-2.284247443476011,1.586,0.21055141813024308,0.42857142857142855,1.0,0.0,0.5,2.4444444444444446,2.625,2.5555555555555554,2.7777777777777777,2.5,3.111111111111111,2.25,1.75,1.0,0.25,,,,,,,,,,,,
6,240703_144834,LEARNING,1.0,7,3.0,2583.0,,,,,,,,,,7.0,7.0,7.0,cue1.png,Hard,B,,,,,,,,,,,,,,,,,,,,,,,,,,,34,29,Female,0.6875,0.75,0.5348295166622847,-1.6592022996937423e-05,-0.25472344866600144,-6.613632155176401e-05,-1.3233264349316143,7.134359415194571e-05,0.21655758529427682,2.994203625927448e-05,-0.04302739473756574,1.448,-0.10979267279581595,,,0.42857142857142855,1.0,0.0,0.5,2.4444444444444446,2.625,2.5555555555555554,2.7777777777777777,2.5,3.111111111111111,2.25,1.75,1.0,0.25,,,,,,,,,,,,
7,240703_144852,LEARNING,1.0,8,3.0,2583.0,,,,,,,,,,8.0,8.0,8.0,cue1.png,Hard,B,,,,,,,,,,,,,,,,,,,,,,,,,,,34,29,Female,0.6875,0.75,0.6520962666642541,-6.474397557843002e-05,-0.5560631811109829,-1.8644832180585245e-05,-0.5267239393530411,,,2.559311534940144e-05,-0.07523235500537466,2.048,0.7859662440652327,,,0.42857142857142855,1.0,0.0,0.5,2.4444444444444446,2.625,2.5555555555555554,2.7777777777777777,2.5,3.111111111111111,2.25,1.75,1.0,0.25,,,,,,,,,,,,
8,240703_144910,LEARNING,1.0,9,1.0,2583.0,,,,,,,,,,9.0,9.0,9.0,cue2.png,Easy,B,,,,,,,,,,,,,,,,,,,,,,,,,,,34,29,Female,0.6875,0.75,0.476896583296669,-2.73292637346244e-05,-0.3219181744793747,8.623151284787439e-05,1.2324282641895874,0.0005572871562675216,3.0441920684140076,7.089946049815667e-05,0.26027364191511115,,,,,0.42857142857142855,1.0,0.0,0.5,2.4444444444444446,2.625,2.5555555555555554,2.7777777777777777,2.5,3.111111111111111,2.25,1.75,1.0,0.25,,,,,,,,,,,,
9,240703_144929,LEARNING,1.0,10,1.0,2583.0,,,,,,,,,,10.0,10.0,10.0,cue2.png,Easy,B,,,,,,,,,,,,,,,,,,,,,,,,,,,34,29,Female,1.0,1.0,0.7452493500119696,-6.28360471397419e-05,-0.5441231742282832,3.834775288721545e-05,0.4292459848506079,-9.795801087522215e-05,-0.7685836816014003,4.7455143162194405e-05,0.08666199802513046,0.7529999999999999,-1.1473800848265305,1.898,0.7755013216399466,0.42857142857142855,1.0,0.0,0.5,2.4444444444444446,2.625,2.5555555555555554,2.7777777777777777,2.5,3.111111111111111,2.25,1.75,1.0,0.25,,,,,,,,,,,,
10,240703_144948,LEARNING,1.0,11,3.0,2583.0,,,,,,,,,,11.0,11.0,11.0,cue1.png,Hard,B,,,,,,,,,,,,,,,,,,,,,,,,,,,34,29,Female,1.0,1.0,0.6188470666529611,5.3321895399011283e-05,0.1828048411361644,,,0.00016723643685545835,0.7745440056356968,,,,,,,0.42857142857142855,1.0,0.0,0.5,2.4444444444444446,2.625,2.5555555555555554,2.7777777777777777,2.5,3.111111111111111,2.25,1.75,1.0,0.25,,,,,,,,,,,,
11,240703_145006,LEARNING,1.0,12,1.0,2583.0,,,,,,,,,,12.0,12.0,12.0,cue2.png,Easy,B,,,,,,,,,,,,,,,,,,,,,,,,,,,34,29,Female,1.0,1.0,0.5702416499843821,2.941779107624087e-05,0.03321056686930614,,,0.00017481139990921206,0.8186216072524409,-5.3508532170247394e-05,-0.6610018983661639,,,-0.09050000000000002,-2.8251489447993032,0.42857142857142855,1.0,0.0,0.5,2.4444444444444446,2.625,2.5555555555555554,2.7777777777777777,2.5,3.111111111111111,2.25,1.75,1.0,0.25,,,,,,,,,,,,
12,240703_145024,LEARNING,1.0,13,1.0,2583.0,,,,,,,,,,13.0,13.0,13.0,cue2.png,Easy,B,,,,,,,,,,,,,,,,,,,,,,,,,,,34,29,Female,1.0,1.0,0.6222516833416497,7.876800758187122e-05,0.342049154728033,-5.603322050537658e-05,-1.1538612188855808,-0.00014203159809304117,-1.0250414366323226,-3.5633239613127275e-05,-0.5286304208185715,2.986,2.186336017424672,,,0.42857142857142855,1.0,0.0,0.5,2.4444444444444446,2.625,2.5555555555555554,2.7777777777777777,2.5,3.111111111111111,2.25,1.75,1.0,0.25,,,,,,,,,,,,
13,240703_145042,LEARNING,1.0,14,1.0,2583.0,,,,,,,,,,14.0,14.0,14.0,cue2.png,Easy,B,,,,,,,,,,,,,,,,,,,,,,,,,,,34,29,Female,1.0,1.0,0.592311649932526,-1.8919064274421343e-05,-0.2692863055877154,,,,,,,2.923,2.0922813311542616,,,0.42857142857142855,1.0,0.0,0.5,2.4444444444444446,2.625,2.5555555555555554,2.7777777777777777,2.5,3.111111111111111,2.25,1.75,1.0,0.25,,,,,,,,,,,,
14,240703_145101,LEARNING,1.0,15,3.0,2583.0,,,,,,,,,,15.0,15.0,15.0,cue1.png,Hard,B,,,,,,,,,,,,,,,,,,,,,,,,,,,34,29,Female,1.0,1.0,0.6536212999684116,3.2035520767974886e-05,0.049592580944133095,-3.763645928801492e-05,-0.8452815956656137,-1.2877903439326502e-06,-0.20607381342858033,0.0002759180830203931,1.7784931564388409,,,,,0.42857142857142855,1.0,0.0,0.5,2.4444444444444446,2.625,2.5555555555555554,2.7777777777777777,2.5,3.111111111111111,2.25,1.75,1.0,0.25,,,,,,,,,,,,
15,240703_145120,LEARNING,1.0,16,1.0,2583.0,,,,,,,,,,16.0,16.0,16.0,cue2.png,Easy,B,,,,,,,,,,,,,,,,,,,,,,,,,,,34,29,Female,0.6875,0.75,0.6368552499528354,-7.305707885500766e-05,-0.6080874123799394,-5.680556533952698e-06,-0.309266570249275,-7.732353925500243e-05,-0.6485147105458446,4.067080655259731e-05,0.0364221119744332,,,,,0.42857142857142855,1.0,0.0,0.5,2.4444444444444446,2.625,2.5555555555555554,2.7777777777777777,2.5,3.111111111111111,2.25,1.75,1.0,0.25,,,,,,,,,,,,
16,240703_145137,LEARNING,1.0,17,1.0,2583.0,,,,,,,,,,17.0,17.0,17.0,cue2.png,Easy,B,,,,,,,,,,,,,,,,,,,,,,,,,,,34,29,Female,1.0,1.0,0.5245961166607837,-4.376210988509986e-05,-0.4247565682893298,,,,,-7.001701971077329e-05,-0.7832518073303111,,,,,0.42857142857142855,1.0,0.0,0.5,2.4444444444444446,2.625,2.5555555555555554,2.7777777777777777,2.5,3.111111111111111,2.25,1.75,1.0,0.25,,,,,,,,,,,,
17,240703_145155,LEARNING,1.0,18,3.0,2583.0,,,,,,,,,,18.0,18.0,18.0,cue1.png,Hard,B,,,,,,,,,,,,,,,,,,,,,,,,,,,34,29,Female,1.0,1.0,0.4468124000510822,-4.1039487151556166e-05,-0.4077181230739219,-2.819302306525384e-05,-0.6868813230800616,0.00028827308446009855,1.4788385475740717,0.00027528852809518244,1.7738311283695827,1.483,-0.05754006931225457,1.632,0.29384531416051957,0.42857142857142855,1.0,0.0,0.5,2.4444444444444446,2.625,2.5555555555555554,2.7777777777777777,2.5,3.111111111111111,2.25,1.75,1.0,0.25,,,,,,,,,,,,
18,240703_145212,LEARNING,1.0,19,3.0,2583.0,,,,,,,,,,19.0,19.0,19.0,cue1.png,Hard,B,,,,,,,,,,,,,,,,,,,,,,,,,,,34,29,Female,1.0,1.0,0.4382143666734919,0.0009562893208529297,5.833665248765826,2.2701422205605084e-05,0.16680093979833774,-2.7013880687423372e-05,-0.3557701688127609,5.686560337439268e-05,0.1563490545424424,,,,,0.42857142857142855,1.0,0.0,0.5,2.4444444444444446,2.625,2.5555555555555554,2.7777777777777777,2.5,3.111111111111111,2.25,1.75,1.0,0.25,,,,,,,,,,,,
19,240703_145230,LEARNING,1.0,20,3.0,2583.0,,,,,,,,,,20.0,20.0,20.0,cue1.png,Hard,B,,,,,,,,,,,,,,,,,,,,,,,,,,,34,29,Female,1.0,1.0,0.5700739165768027,-4.886995647723465e-05,-0.4567219828348555,2.2142425361904722e-05,0.15742455917502352,,,-0.00012005056913748239,-1.153764057320082,,,1.068,-0.7274102806454831,0.42857142857142855,1.0,0.0,0.5,2.4444444444444446,2.625,2.5555555555555554,2.7777777777777777,2.5,3.111111111111111,2.25,1.75,1.0,0.25,,,,,,,,,,,,
20,240703_145248,LEARNING,1.0,21,1.0,2583.0,,,,,,,,,,21.0,21.0,21.0,cue2.png,Easy,B,,,,,,,,,,,,,,,,,,,,,,,,,,,34,29,Female,1.0,1.0,0.5157071499852464,,,-2.4083157919981175e-05,-0.6179441540300958,-0.00015498875575471575,-1.1004372411324677,3.359942198979558e-05,-0.01594344343643205,,,2.128,1.191970801791331,0.42857142857142855,1.0,0.0,0.5,2.4444444444444446,2.625,2.5555555555555554,2.7777777777777777,2.5,3.111111111111111,2.25,1.75,1.0,0.25,,,,,,,,,,,,
21,240703_145305,LEARNING,1.0,22,3.0,2583.0,,,,,,,,,,22.0,22.0,22.0,cue1.png,Hard,B,,,,,,,,,,,,,,,,,,,,,,,,,,,34,29,Female,1.0,1.0,0.4808918166672811,,,,,-0.00017858845500768727,-1.237760437901326,,,,,0.871,-1.0841254440794947,0.42857142857142855,1.0,0.0,0.5,2.4444444444444446,2.625,2.5555555555555554,2.7777777777777777,2.5,3.111111111111111,2.25,1.75,1.0,0.25,,,,,,,,,,,,
22,240703_145323,LEARNING,1.0,23,3.0,2583.0,,,,,,,,,,23.0,23.0,23.0,cue1.png,Hard,B,,,,,,,,,,,,,,,,,,,,,,,,,,,34,29,Female,1.0,1.0,0.4451764166976015,-8.738217381721366e-05,-0.6977352885663612,4.197522627752805e-05,0.4900917151831153,-0.00020358248092246668,-1.383197017492866,-0.00014678530368485284,-1.3517421492908601,1.2650000000000001,-0.38299914243843547,1.5739999999999998,0.18882257568756175,0.42857142857142855,1.0,0.0,0.5,2.4444444444444446,2.625,2.5555555555555554,2.7777777777777777,2.5,3.111111111111111,2.25,1.75,1.0,0.25,,,,,,,,,,,,
23,240703_145340,LEARNING,1.0,24,3.0,2583.0,,,,,,,,,,24.0,24.0,24.0,cue1.png,Hard,B,,,,,,,,,,,,,,,,,,,,,,,,,,,34,29,Female,1.0,1.0,0.4457188166367511,-3.391329933099098e-05,-0.36312172737080844,1.8496004188607584e-05,0.09626100660929038,-0.00025937498684487073,-1.707845445715751,-8.909704601392423e-05,-0.9245446709477514,2.453,1.3906035129464402,1.19,-0.5065003824782273,0.42857142857142855,1.0,0.0,0.5,2.4444444444444446,2.625,2.5555555555555554,2.7777777777777777,2.5,3.111111111111111,2.25,1.75,1.0,0.25,,,,,,,,,,,,
24,240703_145359,LEARNING,1.0,25,1.0,2583.0,,,,,,,,,,25.0,25.0,25.0,cue2.png,Easy,B,,,,,,,,,,,,,,,,,,,,,,,,,,,34,29,Female,0.6875,0.75,0.6895492165737475,,,3.486166244858141e-05,0.3707717533620124,-0.00011796886745381666,-0.8850239279791051,0.000172183456670247,1.010309602578812,,,1.8119999999999998,0.6197779508007332,0.42857142857142855,1.0,0.0,0.5,2.4444444444444446,2.625,2.5555555555555554,2.7777777777777777,2.5,3.111111111111111,2.25,1.75,1.0,0.25,,,,,,,,,,,,
25,240703_145417,LEARNING,1.0,26,1.0,2583.0,,,,,,,,,,26.0,26.0,26.0,cue2.png,Easy,B,,,,,,,,,,,,,,,,,,,,,,,,,,,34,29,Female,1.0,1.0,0.5383696833547825,-6.978378085020559e-05,-0.5876027862724019,,,,,,,0.825,-1.0398890148032047,1.8400000000000003,0.6704785831669895,0.42857142857142855,1.0,0.0,0.5,2.4444444444444446,2.625,2.5555555555555554,2.7777777777777777,2.5,3.111111111111111,2.25,1.75,1.0,0.25,,,,,,,,,,,,
26,240703_145436,LEARNING,1.0,27,3.0,2583.0,,,,,,,,,,27.0,27.0,27.0,cue1.png,Hard,B,,,,,,,,,,,,,,,,,,,,,,,,,,,34,29,Female,1.0,1.0,0.6831939333351329,8.172528030134804e-05,0.36055606301063714,9.085164512507692e-05,1.30992444193962,3.573924291993104e-05,0.009381075218799061,,,1.976,0.6784751740419068,,,0.42857142857142855,1.0,0.0,0.5,2.4444444444444446,2.625,2.5555555555555554,2.7777777777777777,2.5,3.111111111111111,2.25,1.75,1.0,0.25,,,,,,,,,,,,
27,240703_145454,LEARNING,1.0,28,1.0,2583.0,,,,,,,,,,28.0,28.0,28.0,cue2.png,Easy,B,,,,,,,,,,,,,,,,,,,,,,,,,,,34,29,Female,1.0,1.0,0.5436510832902665,-3.6883041486801115e-05,-0.3817066706324108,-6.144628821413978e-05,-1.2446577658591826,0.0001248368155496245,0.5278268133065199,2.1480401701926867e-06,-0.2488496109338698,1.1949999999999998,-0.48750434940555826,1.7020000000000002,0.42059689507615877,0.42857142857142855,1.0,0.0,0.5,2.4444444444444446,2.625,2.5555555555555554,2.7777777777777777,2.5,3.111111111111111,2.25,1.75,1.0,0.25,,,,,,,,,,,,
28,240703_145511,LEARNING,1.0,29,1.0,2583.0,,,,,,,,,,29.0,29.0,29.0,cue2.png,Easy,B,,,,,,,,,,,,,,,,,,,,,,,,,,,34,29,Female,1.0,1.0,0.5075850833284979,8.433066701611213e-06,-0.09811393586566819,1.4707977797820664e-05,0.0327222270053468,-7.476357361806173e-05,-0.6336186450869231,-6.78611508989021e-05,-0.7672870034472837,2.786,1.8877497118043225,1.794,0.5871846871367121,0.42857142857142855,1.0,0.0,0.5,2.4444444444444446,2.625,2.5555555555555554,2.7777777777777777,2.5,3.111111111111111,2.25,1.75,1.0,0.25,,,,,,,,,,,,
29,240703_145529,LEARNING,1.0,30,3.0,2583.0,,,,,,,,,,30.0,30.0,30.0,cue1.png,Hard,B,,,,,,,,,,,,,,,,,,,,,,,,,,,34,29,Female,1.0,1.0,0.4592191333261629,3.612396848484776e-05,0.07517849543083441,-5.796181201925526e-05,-1.1862106110240334,3.282143568492102e-05,-0.007597218138749931,,,2.1,0.8635986835265237,,,0.42857142857142855,1.0,0.0,0.5,2.4444444444444446,2.625,2.5555555555555554,2.7777777777777777,2.5,3.111111111111111,2.25,1.75,1.0,0.25,,,,,,,,,,,,
30,240703_145546,LEARNING,1.0,31,3.0,2583.0,,,,,,,,,,31.0,31.0,31.0,cue1.png,Hard,B,,,,,,,,,,,,,,,,,,,,,,,,,,,34,29,Female,1.0,1.0,0.4708218499630068,,,-3.848991540917647e-05,-0.859597113771826,0.00018044925718145588,0.8514274737701507,-0.0003292437347668458,-2.702897216328831,0.562,-1.4325300066939641,,,0.42857142857142855,1.0,0.0,0.5,2.4444444444444446,2.625,2.5555555555555554,2.7777777777777777,2.5,3.111111111111111,2.25,1.75,1.0,0.25,,,,,,,,,,,,
31,240703_145604,LEARNING,1.0,32,1.0,2583.0,,,,,,,,,,32.0,32.0,32.0,cue2.png,Easy,B,,,,,,,,,,,,,,,,,,,,,,,,,,,34,29,Female,1.0,1.0,0.5318752166349441,,,0.0001013426189510505,1.4858956747115226,-1.5350209213743464e-05,-0.287900971173482,,,,,0.7989999999999999,-1.2144984987355805,0.42857142857142855,1.0,0.0,0.5,2.4444444444444446,2.625,2.5555555555555554,2.7777777777777777,2.5,3.111111111111111,2.25,1.75,1.0,0.25,,,,,,,,,,,,
32,240703_145621,LEARNING,1.0,33,1.0,2583.0,,,,,,,,,,33.0,33.0,33.0,cue2.png,Easy,B,,,,,,,,,,,,,,,,,,,,,,,,,,,34,29,Female,1.0,1.0,0.429121350015824,-4.483706408341115e-07,-0.15369485852856346,2.9659557040152742e-05,0.2835138002953319,,,,,0.9570000000000001,-0.8428220530937738,1.788,0.5763202659153717,0.42857142857142855,1.0,0.0,0.5,2.4444444444444446,2.625,2.5555555555555554,2.7777777777777777,2.5,3.111111111111111,2.25,1.75,1.0,0.25,,,,,,,,,,,,
33,240703_145639,LEARNING,1.0,34,1.0,2583.0,,,,,,,,,,34.0,34.0,34.0,cue2.png,Easy,B,,,,,,,,,,,,,,,,,,,,,,,,,,,34,29,Female,1.0,1.0,0.4567160833394155,-6.14670056724013e-05,-0.5355555758785318,,,0.00012416589204583507,0.5239228076096623,-8.440015766748334e-07,-0.2710065063050269,1.0639999999999998,-0.6830783795868872,,,0.42857142857142855,1.0,0.0,0.5,2.4444444444444446,2.625,2.5555555555555554,2.7777777777777777,2.5,3.111111111111111,2.25,1.75,1.0,0.25,,,,,,,,,,,,
34,240703_145656,LEARNING,1.0,35,3.0,2583.0,,,,,,,,,,35.0,35.0,35.0,cue1.png,Hard,B,,,,,,,,,,,,,,,,,,,,,,,,,,,34,29,Female,0.6875,0.75,0.5121284500152493,,,,,,,8.531492981395626e-05,0.36702417294987716,1.4740000000000002,-0.07097645306517014,1.3820000000000001,-0.15883890339533238,0.42857142857142855,1.0,0.0,0.5,2.4444444444444446,2.625,2.5555555555555554,2.7777777777777777,2.5,3.111111111111111,2.25,1.75,1.0,0.25,,,,,,,,,,,,
35,240703_145714,LEARNING,1.0,36,3.0,2583.0,,,,,,,,,,36.0,36.0,36.0,cue1.png,Hard,B,,,,,,,,,,,,,,,,,,,,,,,,,,,34,29,Female,1.0,1.0,0.46189969991489,5.426707760996033e-05,0.1887198858911431,-0.00010719511910776145,-2.0120296327389307,0.00012911849362181628,0.5527412714996456,,,1.987,0.6948974208510262,0.6989999999999998,-1.3955721857579215,0.42857142857142855,1.0,0.0,0.5,2.4444444444444446,2.625,2.5555555555555554,2.7777777777777777,2.5,3.111111111111111,2.25,1.75,1.0,0.25,,,,,,,,,,,,
36,240703_145732,LEARNING,1.0,37,1.0,2583.0,,,,,,,,,,37.0,37.0,37.0,cue2.png,Easy,B,,,,,,,,,,,,,,,,,,,,,,,,,,,34,29,Female,1.0,1.0,0.48294376663398,,,,,-9.181847492756214e-05,-0.7328586202786872,0.00011496078641443867,0.5865599276140312,1.6190000000000002,0.1454986185095833,2.5109999999999997,1.8854830230868962,0.42857142857142855,1.0,0.0,0.5,2.4444444444444446,2.625,2.5555555555555554,2.7777777777777777,2.5,3.111111111111111,2.25,1.75,1.0,0.25,,,,,,,,,,,,
37,240703_145749,LEARNING,1.0,38,3.0,2583.0,,,,,,,,,,38.0,38.0,38.0,cue1.png,Hard,B,,,,,,,,,,,,,,,,,,,,,,,,,,,34,29,Female,1.0,1.0,0.4105892332348351,-1.2569856482208975e-05,-0.2295523285676799,,,0.00010170987733830331,0.3932545438631029,-0.00026494385584134887,-2.226738856833393,1.018,-0.7517532298795673,1.0299999999999998,-0.796218281713973,0.42857142857142855,1.0,0.0,0.5,2.4444444444444446,2.625,2.5555555555555554,2.7777777777777777,2.5,3.111111111111111,2.25,1.75,1.0,0.25,,,,,,,,,,,,
38,240703_145805,LEARNING,1.0,39,3.0,2583.0,,,,,,,,,,39.0,39.0,39.0,cue1.png,Hard,B,,,,,,,,,,,,,,,,,,,,,,,,,,,34,29,Female,1.0,1.0,0.3665785166667774,,,-6.250945060906881e-05,-1.2624908098049414,,,0.00016768892105019188,0.9770263251714167,1.0090000000000001,-0.7651896136324828,2.376,1.6410335456067362,0.42857142857142855,1.0,0.0,0.5,2.4444444444444446,2.625,2.5555555555555554,2.7777777777777777,2.5,3.111111111111111,2.25,1.75,1.0,0.25,,,,,,,,,,,,
39,240703_145823,LEARNING,1.0,40,3.0,2583.0,,,,,,,,,,40.0,40.0,40.0,cue1.png,Hard,B,,,,,,,,,,,,,,,,,,,,,,,,,,,34,29,Female,1.0,1.0,0.4566016666746388,,,,,-3.8002131467736525e-07,-0.2007916382750388,6.05863876668891e-05,0.18390248970216186,1.7120000000000002,0.28434125062304577,2.146,1.224564065455352,0.42857142857142855,1.0,0.0,0.5,2.4444444444444446,2.625,2.5555555555555554,2.7777777777777777,2.5,3.111111111111111,2.25,1.75,1.0,0.25,,,,,,,,,,,,
40,240703_145841,LEARNING,1.0,41,1.0,2583.0,,,,,,,,,,41.0,41.0,41.0,cue2.png,Easy,B,,,,,,,,,,,,,,,,,,,,,,,,,,,34,29,Female,1.0,1.0,0.5169459666746358,1.1102467403713203e-05,-0.08140855944300922,4.4116361738845335e-05,0.5260062311193586,0.000294521615004097,1.5151978325044368,4.7989796374569606e-05,0.09062125270426473,0.7949999999999999,-1.0846769606462572,1.761,0.5274303704193394,0.42857142857142855,1.0,0.0,0.5,2.4444444444444446,2.625,2.5555555555555554,2.7777777777777777,2.5,3.111111111111111,2.25,1.75,1.0,0.25,,,,,,,,,,,,
41,240703_145903,LEARNING,1.0,42,3.0,2583.0,,,,,,,,,,42.0,42.0,42.0,cue1.png,Hard,B,,,,,,,,,,,,,,,,,,,,,,,,,,,34,29,Female,0.6875,0.5833333333333334,0.8284437600523233,2.90889816754159e-05,0.031152844771696456,3.018220836255043e-05,0.2922805362569147,-0.00011241109378400636,-0.8526840562258649,-0.000137296131358267,-1.2814722078305978,,,,,0.42857142857142855,1.0,0.0,0.5,2.4444444444444446,2.625,2.5555555555555554,2.7777777777777777,2.5,3.111111111111111,2.25,1.75,1.0,0.25,,,,,,,,,,,,
42,240703_145919,LEARNING,1.0,43,3.0,2583.0,,,,,,,,,,43.0,43.0,43.0,cue1.png,Hard,B,,,,,,,,,,,,,,,,,,,,,,,,,,,34,29,Female,1.0,1.0,0.3522194999968633,-4.90890923188071e-05,-0.45809335683587427,6.071822920916464e-05,0.8044790529497691,-0.00011718687462238453,-0.8804736261167172,0.000296713366094476,1.9324879701036013,1.435,-0.12920078266113852,0.29900000000000015,-2.119866933847285,0.42857142857142855,1.0,0.0,0.5,2.4444444444444446,2.625,2.5555555555555554,2.7777777777777777,2.5,3.111111111111111,2.25,1.75,1.0,0.25,,,,,,,,,,,,
43,240703_145937,LEARNING,1.0,44,1.0,2583.0,,,,,,,,,,44.0,44.0,44.0,cue2.png,Easy,B,,,,,,,,,,,,,,,,,,,,,,,,,,,34,29,Female,1.0,1.0,0.4653594000265002,,,,,0.0004233885279839697,2.2650555429115817,0.00011698595986250155,0.601556896237264,0.671,-1.2698004701308736,1.8670000000000002,0.7193684786630213,0.42857142857142855,1.0,0.0,0.5,2.4444444444444446,2.625,2.5555555555555554,2.7777777777777777,2.5,3.111111111111111,2.25,1.75,1.0,0.25,,,,,,,,,,,,
44,240703_145955,LEARNING,1.0,45,1.0,2583.0,,,,,,,,,,45.0,45.0,45.0,cue2.png,Easy,B,,,,,,,,,,,,,,,,,,,,,,,,,,,34,29,Female,1.0,1.0,0.5614293499772126,-3.2242773524948556e-05,-0.3526674098935823,-1.6215956807630934e-05,-0.4859829937822976,-7.432161128850595e-05,-0.6310469309605929,,,1.4559999999999997,-0.09784922057100229,1.537,0.12182531148929573,0.42857142857142855,1.0,0.0,0.5,2.4444444444444446,2.625,2.5555555555555554,2.7777777777777777,2.5,3.111111111111111,2.25,1.75,1.0,0.25,,,,,,,,,,,,
45,240703_150013,LEARNING,1.0,46,1.0,2583.0,,,,,,,,,,46.0,46.0,46.0,cue2.png,Easy,B,,,,,,,,,,,,,,,,,,,,,,,,,,,34,29,Female,0.6875,0.75,0.5904012833877156,3.118153845488823e-05,0.04424827426616906,0.00012163229347406622,1.826226238640311,0.000200167934122301,0.9661675695884597,0.00015855426242958586,0.9093816556009132,2.512,1.4786864731044436,0.6600000000000001,-1.466190923696634,0.42857142857142855,1.0,0.0,0.5,2.4444444444444446,2.625,2.5555555555555554,2.7777777777777777,2.5,3.111111111111111,2.25,1.75,1.0,0.25,,,,,,,,,,,,
46,240703_150030,LEARNING,1.0,47,3.0,2583.0,,,,,,,,,,47.0,47.0,47.0,cue1.png,Hard,B,,,,,,,,,,,,,,,,,,,,,,,,,,,34,29,Female,1.0,1.0,0.3378665499233951,2.2408607567480938e-05,-0.010653604154971392,4.093713009761021e-05,0.4726791215053312,-6.344646522980649e-05,-0.5677660473315008,-1.930997896014289e-05,-0.4077521681060387,1.897,0.5605335833218688,1.501,0.05663878416125293,0.42857142857142855,1.0,0.0,0.5,2.4444444444444446,2.625,2.5555555555555554,2.7777777777777777,2.5,3.111111111111111,2.25,1.75,1.0,0.25,,,,,,,,,,,,
47,240703_150047,LEARNING,1.0,48,3.0,2583.0,,,,,,,,,,48.0,48.0,48.0,cue1.png,Hard,B,,,,,,,,,,,,,,,,,,,,,,,,,,,34,29,Female,0.6875,0.75,0.5064739666801567,-8.91362711430031e-06,-0.20667127971263202,-5.233013868240774e-05,-1.091747264141958,,,-2.9988801193836425e-05,-0.48683179564360524,1.4220000000000002,-0.1486088925264611,1.616,0.26487352423694543,0.42857142857142855,1.0,0.0,0.5,2.4444444444444446,2.625,2.5555555555555554,2.7777777777777777,2.5,3.111111111111111,2.25,1.75,1.0,0.25,,,,,,,,,,,,
48,240703_150105,LEARNING,1.0,49,1.0,2583.0,,,,,,,,,,49.0,49.0,49.0,cue2.png,Easy,B,,,,,,,,,,,,,,,,,,,,,,,,,,,34,29,Female,1.0,1.0,0.4499854333310698,,,,,,,,,2.088,0.8456835051893027,,,0.42857142857142855,1.0,0.0,0.5,2.4444444444444446,2.625,2.5555555555555554,2.7777777777777777,2.5,3.111111111111111,2.25,1.75,1.0,0.25,,,,,,,,,,,,
49,240703_150122,LEARNING,1.0,50,1.0,2583.0,,,,,,,,,,50.0,50.0,50.0,cue2.png,Easy,B,,,,,,,,,,,,,,,,,,,,,,,,,,,34,29,Female,1.0,1.0,0.4151145500751833,8.80851652254903e-06,-0.09576433335689259,-6.447406628045911e-05,-1.2954444561825185,-8.691376456223046e-05,-0.704318828335877,0.00017872391128420217,1.0587434751051312,1.284,-0.3546334434045024,1.8090000000000002,0.6143457401900635,0.42857142857142855,1.0,0.0,0.5,2.4444444444444446,2.625,2.5555555555555554,2.7777777777777777,2.5,3.111111111111111,2.25,1.75,1.0,0.25,,,,,,,,,,,,
0,240703_150307,TrueCHOICE,9.0,1,1.0,2583.0,,,,,,,,,,,1.0,1.0,,,B,,,,,,True,cue2.png,Easy,cue1.png,Hard,Left,Easy,Easy,0.0165717999916523,,,,,,,,,,,,,34,29,Female,1.0,1.0,0.5671221166461086,,,,,,,,,,,,,0.42857142857142855,1.0,0.0,0.5,2.4444444444444446,2.625,2.5555555555555554,2.7777777777777777,2.5,3.111111111111111,2.25,1.75,1.0,0.25,-3.235183307136961e-05,-1.2864877238373271,,,,,,,,,,
1,240703_150322,TrueCHOICE,9.0,2,1.0,2583.0,,,,,,,,,,,2.0,2.0,,,B,,,,,,True,cue2.png,Easy,cue1.png,Hard,Left,Easy,Easy,0.0158007000572979,,,,,,,,,,,,,34,29,Female,,,,,,,,,,,,,,,,0.42857142857142855,1.0,0.0,0.5,2.4444444444444446,2.625,2.5555555555555554,2.7777777777777777,2.5,3.111111111111111,2.25,1.75,1.0,0.25,,,6.389159477268288e-05,-0.6491923455358016,1.9979999999999998,1.114510494276267,,,,,,
2,240703_150338,TrueCHOICE,9.0,3,1.0,2583.0,,,,,,,,,,,3.0,3.0,,,B,,,,,,True,cue1.png,Hard,cue2.png,Easy,Right,Easy,Easy,0.0149708001408725,,,,,,,,,,,,,34,29,Female,1.0,1.0,0.4659143999451771,,,,,,,,,,,,,0.42857142857142855,1.0,0.0,0.5,2.4444444444444446,2.625,2.5555555555555554,2.7777777777777777,2.5,3.111111111111111,2.25,1.75,1.0,0.25,2.4417152486471035e-05,0.06700518642239756,0.00023048071025659,1.0293575532542536,1.602,0.7118223959793678,,,,,,
3,240703_150353,TrueCHOICE,9.0,4,1.0,2583.0,,,,,,,,,,,4.0,4.0,,,B,,,,,,True,cue2.png,Easy,cue1.png,Hard,Left,Easy,Easy,0.0160861001349985,,,,,,,,,,,,,34,29,Female,1.0,1.0,0.4891275165913005,,,,,,,,,,,,,0.42857142857142855,1.0,0.0,0.5,2.4444444444444446,2.625,2.5555555555555554,2.7777777777777777,2.5,3.111111111111111,2.25,1.75,1.0,0.25,5.929990183260042e-06,-0.37376793753491394,,,,,,,,,,
4,240703_150409,TrueCHOICE,9.0,5,1.0,2583.0,,,,,,,,,,,5.0,5.0,,,B,,,,,,True,cue1.png,Hard,cue2.png,Easy,Right,Easy,Easy,0.0165542000904679,,,,,,,,,,,,,34,29,Female,0.6875,0.75,0.4814218999041865,,,,,,,,,,,,,0.42857142857142855,1.0,0.0,0.5,2.4444444444444446,2.625,2.5555555555555554,2.7777777777777777,2.5,3.111111111111111,2.25,1.75,1.0,0.25,6.569844273851761e-05,1.0512386218708825,3.8105816866286935e-05,-0.9090095296854165,1.454,0.561322803686587,,,,,,
5,240703_150425,TrueCHOICE,9.0,6,1.0,2583.0,,,,,,,,,,,6.0,6.0,,,B,,,,,,True,cue1.png,Hard,cue2.png,Easy,Right,Easy,Easy,0.0167555999942123,,,,,,,,,,,,,34,29,Female,1.0,1.0,0.5792345333611593,,,,,,,,,,,,,0.42857142857142855,1.0,0.0,0.5,2.4444444444444446,2.625,2.5555555555555554,2.7777777777777777,2.5,3.111111111111111,2.25,1.75,1.0,0.25,-3.859879446449889e-05,-1.4354285208796111,0.0003028583931059263,1.7586342041837577,0.07050000000000001,-0.845543317509777,,,,,,
6,240703_150441,TrueCHOICE,9.0,7,1.0,2583.0,,,,,,,,,,,7.0,7.0,,,B,,,,,,True,cue2.png,Easy,cue1.png,Hard,Left,Easy,Easy,0.0160903998184949,,,,,,,,,,,,,34,29,Female,,,,,,,,,,,,,,,,0.42857142857142855,1.0,0.0,0.5,2.4444444444444446,2.625,2.5555555555555554,2.7777777777777777,2.5,3.111111111111111,2.25,1.75,1.0,0.25,5.468437294404386e-05,0.788639858947118,9.098979275884607e-05,-0.3761512326459195,1.1350000000000002,0.23693516894741848,,,,,,
7,240703_150457,TrueCHOICE,9.0,8,3.0,2583.0,,,,,,,,,,,8.0,8.0,,,B,,,,,,True,cue1.png,Hard,cue2.png,Easy,Left,Hard,Hard,0.016051199985668,,,,,,,,,,,,,34,29,Female,1.0,1.0,0.628823283322466,,,,,,,,,,,,,0.42857142857142855,1.0,0.0,0.5,2.4444444444444446,2.625,2.5555555555555554,2.7777777777777777,2.5,3.111111111111111,2.25,1.75,1.0,0.25,7.146814353695607e-05,1.1888005150114542,0.0001593642388623938,0.3127888535869241,-0.8475000000000001,-1.7790475453798618,,,,,,
8,240703_150513,TrueCHOICE,9.0,9,1.0,2583.0,,,,,,,,,,,9.0,9.0,,,B,,,,,,True,cue2.png,Easy,cue1.png,Hard,Left,Easy,Easy,0.0165673000738024,,,,,,,,,,,,,34,29,Female,1.0,1.0,0.5009016833112886,,,,,,,,,,,,,0.42857142857142855,1.0,0.0,0.5,2.4444444444444446,2.625,2.5555555555555554,2.7777777777777777,2.5,3.111111111111111,2.25,1.75,1.0,0.25,,,1.2558150668615358e-05,-1.166427503157797,,,,,,,,
9,240703_150529,TrueCHOICE,9.0,10,1.0,2583.0,,,,,,,,,,,10.0,10.0,,,B,,,,,,True,cue1.png,Hard,cue2.png,Easy,Right,Easy,Easy,0.0188670998904854,,,,,,,,,,,,,34,29,Female,1.0,1.0,0.5028138832810024,,,,,,,,,,,,,0.42857142857142855,1.0,0.0,0.5,2.4444444444444446,2.625,2.5555555555555554,2.7777777777777777,2.5,3.111111111111111,2.25,1.75,1.0,0.25,,,,,,,,,,,,
0,240703_150711,FalseCHOICE,9.0,1,2.0,2583.0,,,,,,,,,,,1.0,1.0,,,B,,,,,,False,cue2.png,Easy,cue1.png,Hard,Left,Easy,Mid,0.0173515998758375,,,,,,,,,,,,,34,29,Female,1.0,1.0,0.54368293331936,,,,,,,,,,,,,0.42857142857142855,1.0,0.0,0.5,2.4444444444444446,2.625,2.5555555555555554,2.7777777777777777,2.5,3.111111111111111,2.25,1.75,1.0,0.25,-3.235183307136961e-05,-1.2864877238373271,,,,,,,,,,
1,240703_150727,FalseCHOICE,9.0,2,2.0,2583.0,,,,,,,,,,,2.0,2.0,,,B,,,,,,False,cue1.png,Hard,cue2.png,Easy,Left,Hard,Mid,0.0172242999542504,,,,,,,,,,,,,34,29,Female,,,,,,,,,,,,,,,,0.42857142857142855,1.0,0.0,0.5,2.4444444444444446,2.625,2.5555555555555554,2.7777777777777777,2.5,3.111111111111111,2.25,1.75,1.0,0.25,,,6.389159477268288e-05,-0.6491923455358016,1.9979999999999998,1.114510494276267,,,,,,
2,240703_150742,FalseCHOICE,9.0,3,2.0,2583.0,,,,,,,,,,,3.0,3.0,,,B,,,,,,False,cue1.png,Hard,cue2.png,Easy,Right,Easy,Mid,0.0164900999516248,,,,,,,,,,,,,34,29,Female,,,,,,,,,,,,,,,,0.42857142857142855,1.0,0.0,0.5,2.4444444444444446,2.625,2.5555555555555554,2.7777777777777777,2.5,3.111111111111111,2.25,1.75,1.0,0.25,2.4417152486471035e-05,0.06700518642239756,0.00023048071025659,1.0293575532542536,1.602,0.7118223959793678,,,,,,
3,240703_150758,FalseCHOICE,9.0,4,2.0,2583.0,,,,,,,,,,,4.0,4.0,,,B,,,,,,False,cue1.png,Hard,cue2.png,Easy,Right,Easy,Mid,0.0169074998702853,,,,,,,,,,,,,34,29,Female,0.6875,0.75,0.50317709997762,,,,,,,,,,,,,0.42857142857142855,1.0,0.0,0.5,2.4444444444444446,2.625,2.5555555555555554,2.7777777777777777,2.5,3.111111111111111,2.25,1.75,1.0,0.25,5.929990183260042e-06,-0.37376793753491394,,,,,,,,,,
4,240703_150813,FalseCHOICE,9.0,5,2.0,2583.0,,,,,,,,,,,5.0,5.0,,,B,,,,,,False,cue2.png,Easy,cue1.png,Hard,Right,Hard,Mid,0.0170203000307083,,,,,,,,,,,,,34,29,Female,,,,,,,,,,,,,,,,0.42857142857142855,1.0,0.0,0.5,2.4444444444444446,2.625,2.5555555555555554,2.7777777777777777,2.5,3.111111111111111,2.25,1.75,1.0,0.25,6.569844273851761e-05,1.0512386218708825,3.8105816866286935e-05,-0.9090095296854165,1.454,0.561322803686587,,,,,,
5,240703_150829,FalseCHOICE,9.0,6,2.0,2583.0,,,,,,,,,,,6.0,6.0,,,B,,,,,,False,cue1.png,Hard,cue2.png,Easy,Right,Easy,Mid,0.0168967000208795,,,,,,,,,,,,,34,29,Female,0.6875,0.75,0.5773217666816587,,,,,,,,,,,,,0.42857142857142855,1.0,0.0,0.5,2.4444444444444446,2.625,2.5555555555555554,2.7777777777777777,2.5,3.111111111111111,2.25,1.75,1.0,0.25,-3.859879446449889e-05,-1.4354285208796111,0.0003028583931059263,1.7586342041837577,0.07050000000000001,-0.845543317509777,,,,,,
6,240703_150845,FalseCHOICE,9.0,7,2.0,2583.0,,,,,,,,,,,7.0,7.0,,,B,,,,,,False,cue1.png,Hard,cue2.png,Easy,Left,Hard,Mid,0.0161566000897437,,,,,,,,,,,,,34,29,Female,0.6875,0.75,0.5317195666721091,,,,,,,,,,,,,0.42857142857142855,1.0,0.0,0.5,2.4444444444444446,2.625,2.5555555555555554,2.7777777777777777,2.5,3.111111111111111,2.25,1.75,1.0,0.25,5.468437294404386e-05,0.788639858947118,9.098979275884607e-05,-0.3761512326459195,1.1350000000000002,0.23693516894741848,,,,,,
7,240703_150901,FalseCHOICE,9.0,8,2.0,2583.0,,,,,,,,,,,8.0,8.0,,,B,,,,,,False,cue2.png,Easy,cue1.png,Hard,Right,Hard,Mid,0.0165820000693202,,,,,,,,,,,,,34,29,Female,,,,,,,,,,,,,,,,0.42857142857142855,1.0,0.0,0.5,2.4444444444444446,2.625,2.5555555555555554,2.7777777777777777,2.5,3.111111111111111,2.25,1.75,1.0,0.25,7.146814353695607e-05,1.1888005150114542,0.0001593642388623938,0.3127888535869241,-0.8475000000000001,-1.7790475453798618,,,,,,
8,240703_150917,FalseCHOICE,9.0,9,2.0,2583.0,,,,,,,,,,,9.0,9.0,,,B,,,,,,False,cue2.png,Easy,cue1.png,Hard,Right,Hard,Mid,0.0165633000433444,,,,,,,,,,,,,34,29,Female,1.0,1.0,0.5202172166900709,,,,,,,,,,,,,0.42857142857142855,1.0,0.0,0.5,2.4444444444444446,2.625,2.5555555555555554,2.7777777777777777,2.5,3.111111111111111,2.25,1.75,1.0,0.25,,,1.2558150668615358e-05,-1.166427503157797,,,,,,,,
9,240703_150932,FalseCHOICE,9.0,10,2.0,2583.0,,,,,,,,,,,10.0,10.0,,,B,,,,,,False,cue1.png,Hard,cue2.png,Easy,Left,Hard,Mid,0.0159697001799941,,,,,,,,,,,,,34,29,Female,,,,,,,,,,,,,,,,0.42857142857142855,1.0,0.0,0.5,2.4444444444444446,2.625,2.5555555555555554,2.7777777777777777,2.5,3.111111111111111,2.25,1.75,1.0,0.25,,,,,,,,,,,,
0,240703_144608,OFFLINERATING,9.0,1,1.0,,,,,,,,,,,,,,,,,T0,cue2.png,Easy,17.0,1.555418600095436,,,,,,,,,,,,,,,,,,,,,,34,29,Female,,,,,,,,,,,,,,,,0.42857142857142855,1.0,0.0,0.5,2.4444444444444446,2.625,2.5555555555555554,2.7777777777777777,2.5,3.111111111111111,2.25,1.75,1.0,0.25,,,,,,,-0.00016367084562182417,0.13997153336352156,,,,
1,240703_144615,OFFLINERATING,9.0,2,3.0,,,,,,,,,,,,,,,,,T0,cue1.png,Hard,34.0,1.068193200044334,,,,,,,,,,,,,,,,,,,,,,34,29,Female,,,,,,,,,,,,,,,,0.42857142857142855,1.0,0.0,0.5,2.4444444444444446,2.625,2.5555555555555554,2.7777777777777777,2.5,3.111111111111111,2.25,1.75,1.0,0.25,,,,,,,,,4.40852545619836e-05,0.7579323552252103,,
2,240703_150151,OFFLINERATING,9.0,3,1.0,,,,,,,,,,,,,,,,,T1,cue2.png,Easy,72.0,1.048446800094098,,,,,,,,,,,,,,,,,,,,,,34,29,Female,,,,,,,,,,,,,,,,0.42857142857142855,1.0,0.0,0.5,2.4444444444444446,2.625,2.5555555555555554,2.7777777777777777,2.5,3.111111111111111,2.25,1.75,1.0,0.25,,,,,,,-0.00037919549331292624,-1.2887170649529993,,,,
3,240703_150158,OFFLINERATING,9.0,4,3.0,,,,,,,,,,,,,,,,,T1,cue1.png,Hard,24.0,1.1348965999204663,,,,,,,,,,,,,,,,,,,,,,34,29,Female,,,,,,,,,,,,,,,,0.42857142857142855,1.0,0.0,0.5,2.4444444444444446,2.625,2.5555555555555554,2.7777777777777777,2.5,3.111111111111111,2.25,1.75,1.0,0.25,,,,,,,,,-0.000292027523275863,-1.4129651663341003,1.1709999999999998,-1.0
4,240703_150549,OFFLINERATING,9.0,5,1.0,,,,,,,,,,,,,,,,,T2,cue2.png,Easy,57.0,1.4018751999828964,,,,,,,,,,,,,,,,,,,,,,34,29,Female,,,,,,,,,,,,,,,,0.42857142857142855,1.0,0.0,0.5,2.4444444444444446,2.625,2.5555555555555554,2.7777777777777777,2.5,3.111111111111111,2.25,1.75,1.0,0.25,,,,,,,,,2.815366347225668e-05,0.6550328111088897,1.5870000000000002,1.0
5,240703_150557,OFFLINERATING,9.0,6,3.0,,,,,,,,,,,,,,,,,T2,cue1.png,Hard,33.0,1.118454199982807,,,,,,,,,,,,,,,,,,,,,,34,29,Female,,,,,,,,,,,,,,,,0.42857142857142855,1.0,0.0,0.5,2.4444444444444446,2.625,2.5555555555555554,2.7777777777777777,2.5,3.111111111111111,2.25,1.75,1.0,0.25,,,,,,,,,,,,
6,240703_152012,OFFLINERATING,9.0,7,1.0,,,,,,,,,,,,,,,,,T3,cue2.png,Easy,33.0,1.184512399835512,,,,,,,,,,,,,,,,,,,,,,34,29,Female,,,,,,,,,,,,,,,,0.42857142857142855,1.0,0.0,0.5,2.4444444444444446,2.625,2.5555555555555554,2.7777777777777777,2.5,3.111111111111111,2.25,1.75,1.0,0.25,,,,,,,,,,,,
7,240703_152019,OFFLINERATING,9.0,8,3.0,,,,,,,,,,,,,,,,,T3,cue1.png,Hard,26.0,1.08642049995251,,,,,,,,,,,,,,,,,,,,,,34,29,Female,,,,,,,,,,,,,,,,0.42857142857142855,1.0,0.0,0.5,2.4444444444444446,2.625,2.5555555555555554,2.7777777777777777,2.5,3.111111111111111,2.25,1.75,1.0,0.25,,,,,,,-1.1492364724179343e-05,1.148745531589478,,,,
