,END,Phase,Block,TrialN,NbackLevel,ISI,Letter_Resp,Letter_RT,Letter_Accuracy,Trial_A_measure,Trial_ACC,Trial_RT,TrialCountCali,CaliEnd_A_measure,ISI_calibrated,TrialIndex,TrialNumber_total,TrialNumber_valid,CueLearning,TrialDemandLearning,CueMapping,OfflineRatingTimePoint,CueFigure,TrialDemand,OfflineRating,OfflineRatingRT,PhaseType,CueLeft,CueDemandLeft,CueRight,CueDemandRight,Choice,ChoiceDemand,TaskDemand,ChoiceRT,CueCheck,CueDemandCheck,CorrectAnswer,Answer,AnswerDemand,AnswerRT,AnswerACC,DemandRatingQuesIndex,QuesTLX,DemandLevel,DemandRating,DemandRatingRT,PID,Age,Gender,Task_A_measure,Task_ACC,Task_RT,cue_i_on_zyg_values,cue_i_on_zyg_zvalues,cue_e_on_zyg_values,cue_e_on_zyg_zvalues,cue_i_on_cor_values,cue_i_on_cor_zvalues,cue_e_on_cor_values,cue_e_on_cor_zvalues,cue_i_on_scr_values,cue_i_on_scr_zvalues,cue_e_on_scr_values,cue_e_on_scr_zvalues,BAI_bis,BAI_bas_d,BAI_bas_rr,BAI_bas_fs,NFC,BFI_ext,BFI_agr,BFI_con,BFI_neu,BFI_open,UPPS_lps,UPPS_lpm,UPPS_pu,UPPS_ss,cue_e_true_zyg_values,cue_e_true_zyg_zvalues,cue_e_true_cor_values,cue_e_true_cor_zvalues,cue_e_true_scr_values,cue_e_true_scr_zvalues,cue_i_off_zyg_values,cue_i_off_zyg_zvalues,cue_i_off_cor_values,cue_i_off_cor_zvalues,cue_i_off_scr_values,cue_i_off_scr_zvalues
0,240704_143544,LEARNING,1.0,1,1.0,2583.0,,,,,,,,,,1.0,1.0,1.0,cue1.png,Easy,A,,,,,,,,,,,,,,,,,,,,,,,,,,,35,31,Female,1.0,1.0,0.4268713333488752,0.0026693487098718347,1.7653081566136746,0.006780989897465891,2.2568823491279812,,,,,,,1.37,-0.09389389195527408,0.5714285714285714,1.5,0.8,1.0,3.2777777777777777,1.0,2.6666666666666665,3.3333333333333335,1.5,3.0,2.5,2.25,1.75,1.0,,,,,,,,,,,,
1,240704_143604,LEARNING,1.0,2,3.0,2583.0,,,,,,,,,,2.0,2.0,2.0,cue2.png,Hard,A,,,,,,,,,,,,,,,,,,,,,,,,,,,35,31,Female,1.0,1.0,0.8257035500137135,1.8799731925101155e-05,0.13865966418106587,,,,,,,1.9869999999999999,0.6399737081956393,1.46,0.06710965921439414,0.5714285714285714,1.5,0.8,1.0,3.2777777777777777,1.0,2.6666666666666665,3.3333333333333335,1.5,3.0,2.5,2.25,1.75,1.0,,,,,,,,,,,,
2,240704_143622,LEARNING,1.0,3,1.0,2583.0,,,,,,,,,,3.0,3.0,3.0,cue1.png,Easy,A,,,,,,,,,,,,,,,,,,,,,,,,,,,35,31,Female,1.0,1.0,0.5396655667573214,-6.803365812626866e-05,0.08536979698936746,0.0074561263935824145,2.505215768017001,,,,,1.5859999999999999,-0.040891532537816175,1.1620000000000001,-0.4659909879918412,0.5714285714285714,1.5,0.8,1.0,3.2777777777777777,1.0,2.6666666666666665,3.3333333333333335,1.5,3.0,2.5,2.25,1.75,1.0,,,,,,,,,,,,
3,240704_143642,LEARNING,1.0,4,3.0,2583.0,,,,,,,,,,4.0,4.0,4.0,cue2.png,Hard,A,,,,,,,,,,,,,,,,,,,,,,,,,,,35,31,Female,1.0,1.0,0.8734757999967163,0.0014966541990130292,1.0456226220154126,0.00010717023546759309,-0.19792858650651848,,,,,,,1.6029999999999998,0.3229264127395337,0.5714285714285714,1.5,0.8,1.0,3.2777777777777777,1.0,2.6666666666666665,3.3333333333333335,1.5,3.0,2.5,2.25,1.75,1.0,,,,,,,,,,,,
4,240704_143700,LEARNING,1.0,5,3.0,2583.0,,,,,,,,,,5.0,5.0,5.0,cue2.png,Hard,A,,,,,,,,,,,,,,,,,,,,,,,,,,,35,31,Female,1.0,1.0,0.5227585166382293,0.000756913525013721,0.5916419326699928,0.0004675825619074375,-0.06535920868531916,,,0.0008232311463554944,1.1985626471956103,1.4659999999999997,-0.24464172926603242,,,0.5714285714285714,1.5,0.8,1.0,3.2777777777777777,1.0,2.6666666666666665,3.3333333333333335,1.5,3.0,2.5,2.25,1.75,1.0,,,,,,,,,,,,
5,240704_143717,LEARNING,1.0,6,1.0,2583.0,,,,,,,,,,6.0,6.0,6.0,cue1.png,Easy,A,,,,,,,,,,,,,,,,,,,,,,,,,,,35,31,Female,1.0,1.0,0.4913905499658237,,,,,0.00047705005807965536,0.3097647866507093,,,1.757,0.2494524977998918,0.0014999999999998348,-2.5420423339074003,0.5714285714285714,1.5,0.8,1.0,3.2777777777777777,1.0,2.6666666666666665,3.3333333333333335,1.5,3.0,2.5,2.25,1.75,1.0,,,,,,,,,,,,
6,240704_143735,LEARNING,1.0,7,3.0,2583.0,,,,,,,,,,7.0,7.0,7.0,cue2.png,Hard,A,,,,,,,,,,,,,,,,,,,,,,,,,,,35,31,Female,1.0,1.0,0.4546763666439801,,,-0.0022061845063432554,-1.0488428763449729,0.0013061441158381494,0.8407782414276789,-0.0014101939720536846,-3.0810965656563916,,,1.468,0.08142108598503135,0.5714285714285714,1.5,0.8,1.0,3.2777777777777777,1.0,2.6666666666666665,3.3333333333333335,1.5,3.0,2.5,2.25,1.75,1.0,,,,,,,,,,,,
7,240704_143753,LEARNING,1.0,8,3.0,2583.0,,,,,,,,,,8.0,8.0,8.0,cue2.png,Hard,A,,,,,,,,,,,,,,,,,,,,,,,,,,,35,31,Female,1.0,1.0,0.6713361166184768,,,,,-0.00014604756016001023,-0.08931323812645758,0.0005715634808839748,0.7163204469828245,,,2.039,1.1028991717392618,0.5714285714285714,1.5,0.8,1.0,3.2777777777777777,1.0,2.6666666666666665,3.3333333333333335,1.5,3.0,2.5,2.25,1.75,1.0,,,,,,,,,,,,
8,240704_143811,LEARNING,1.0,9,1.0,2583.0,,,,,,,,,,9.0,9.0,9.0,cue1.png,Easy,A,,,,,,,,,,,,,,,,,,,,,,,,,,,35,31,Female,1.0,1.0,0.4759633666447674,0.005393589874963226,3.437181727367899,,,0.0006987370128687092,0.45174958878495824,0.001686470013809574,2.8526893701113085,2.875,2.1477251639844384,,,0.5714285714285714,1.5,0.8,1.0,3.2777777777777777,1.0,2.6666666666666665,3.3333333333333335,1.5,3.0,2.5,2.25,1.75,1.0,,,,,,,,,,,,
9,240704_143829,LEARNING,1.0,10,1.0,2583.0,,,,,,,,,,10.0,10.0,10.0,cue1.png,Easy,A,,,,,,,,,,,,,,,,,,,,,,,,,,,35,31,Female,1.0,1.0,0.5311052166701605,-0.0010560706853101555,-0.5209909811394284,,,0.00011179282287356734,0.0758269064620102,-0.00017965682470278029,-0.7231578122998529,,,0.7439999999999998,-1.2137630367576355,0.5714285714285714,1.5,0.8,1.0,3.2777777777777777,1.0,2.6666666666666665,3.3333333333333335,1.5,3.0,2.5,2.25,1.75,1.0,,,,,,,,,,,,
10,240704_143847,LEARNING,1.0,11,3.0,2583.0,,,,,,,,,,11.0,11.0,11.0,cue2.png,Hard,A,,,,,,,,,,,,,,,,,,,,,,,,,,,35,31,Female,1.0,1.0,0.5067607832994933,-8.939636433498346e-05,0.07225945111845067,,,-0.0007943485517680864,-0.5045333763817698,,,1.5510000000000002,-0.10031867325021201,,,0.5714285714285714,1.5,0.8,1.0,3.2777777777777777,1.0,2.6666666666666665,3.3333333333333335,1.5,3.0,2.5,2.25,1.75,1.0,,,,,,,,,,,,
11,240704_143905,LEARNING,1.0,12,1.0,2583.0,,,,,,,,,,12.0,12.0,12.0,cue1.png,Easy,A,,,,,,,,,,,,,,,,,,,,,,,,,,,35,31,Female,1.0,1.0,0.559543333404387,0.0005534055641237949,0.4667485915040913,-0.0002216410547677041,-0.3188742505953817,,,4.891302020552414e-05,-0.2851753456037095,1.4369999999999998,-0.2938813601420178,,,0.5714285714285714,1.5,0.8,1.0,3.2777777777777777,1.0,2.6666666666666665,3.3333333333333335,1.5,3.0,2.5,2.25,1.75,1.0,,,,,,,,,,,,
12,240704_143922,LEARNING,1.0,13,1.0,2583.0,,,,,,,,,,13.0,13.0,13.0,cue1.png,Easy,A,,,,,,,,,,,,,,,,,,,,,,,,,,,35,31,Female,1.0,1.0,0.5388967166654766,,,-0.00037979084182436333,-0.37704600925790305,0.0004065858158381983,0.2646342488537822,-5.4714370865332346e-05,-0.48374476046553244,,,1.347,-0.13503924392085626,0.5714285714285714,1.5,0.8,1.0,3.2777777777777777,1.0,2.6666666666666665,3.3333333333333335,1.5,3.0,2.5,2.25,1.75,1.0,,,,,,,,,,,,
13,240704_143940,LEARNING,1.0,14,1.0,2583.0,,,,,,,,,,14.0,14.0,14.0,cue1.png,Easy,A,,,,,,,,,,,,,,,,,,,,,,,,,,,35,31,Female,1.0,1.0,0.4098496999746809,-0.0003937996403725885,-0.1145535956043058,0.00026859374768860994,-0.13855266340133368,,,0.00030538729363046874,0.2062772122077656,,,1.4989999999999999,0.13687786472125035,0.5714285714285714,1.5,0.8,1.0,3.2777777777777777,1.0,2.6666666666666665,3.3333333333333335,1.5,3.0,2.5,2.25,1.75,1.0,,,,,,,,,,,,
14,240704_143958,LEARNING,1.0,15,3.0,2583.0,,,,,,,,,,15.0,15.0,15.0,cue2.png,Hard,A,,,,,,,,,,,,,,,,,,,,,,,,,,,35,31,Female,1.0,1.0,0.5450572666789716,-6.163632109755426e-05,0.08929585861657151,-0.00016253921645648182,-0.2971349998588629,-0.00024886565945687455,-0.1551655905951725,-0.00012354470107539626,-0.6156365146950011,,,,,0.5714285714285714,1.5,0.8,1.0,3.2777777777777777,1.0,2.6666666666666665,3.3333333333333335,1.5,3.0,2.5,2.25,1.75,1.0,,,,,,,,,,,,
15,240704_144015,LEARNING,1.0,16,1.0,2583.0,,,,,,,,,,16.0,16.0,16.0,cue1.png,Easy,A,,,,,,,,,,,,,,,,,,,,,,,,,,,35,31,Female,1.0,1.0,0.4395442999278505,0.00015633129948447585,0.2230631288571471,4.573676415481126e-05,-0.2205254747699706,0.0001940489326073061,0.12850983259986629,9.943705446439476e-05,-0.1883618697883937,,,,,0.5714285714285714,1.5,0.8,1.0,3.2777777777777777,1.0,2.6666666666666665,3.3333333333333335,1.5,3.0,2.5,2.25,1.75,1.0,,,,,,,,,,,,
16,240704_144032,LEARNING,1.0,17,1.0,2583.0,,,,,,,,,,17.0,17.0,17.0,cue1.png,Easy,A,,,,,,,,,,,,,,,,,,,,,,,,,,,35,31,Female,1.0,1.0,0.4065678333475565,0.0001410432700159666,0.21368082719280274,0.0006668151721917312,0.007923920801348615,0.0007915471374771834,0.5111920904473964,8.027344448230389e-05,-0.22508292183323433,,,,,0.5714285714285714,1.5,0.8,1.0,3.2777777777777777,1.0,2.6666666666666665,3.3333333333333335,1.5,3.0,2.5,2.25,1.75,1.0,,,,,,,,,,,,
17,240704_144050,LEARNING,1.0,18,3.0,2583.0,,,,,,,,,,18.0,18.0,18.0,cue2.png,Hard,A,,,,,,,,,,,,,,,,,,,,,,,,,,,35,31,Female,1.0,1.0,0.6129367666241402,-0.0009184774558942724,-0.4365496744288236,-3.995357906995574e-05,-0.25204469498867316,-0.0005729129867610575,-0.36270958294779976,0.00029728435194785376,0.1907504641930813,,,,,0.5714285714285714,1.5,0.8,1.0,3.2777777777777777,1.0,2.6666666666666665,3.3333333333333335,1.5,3.0,2.5,2.25,1.75,1.0,,,,,,,,,,,,
18,240704_144108,LEARNING,1.0,19,3.0,2583.0,,,,,,,,,,19.0,19.0,19.0,cue2.png,Hard,A,,,,,,,,,,,,,,,,,,,,,,,,,,,35,31,Female,1.0,1.0,0.566736966643172,-0.0015772158732339486,-0.8408190776311367,-0.00010593868291113766,-0.2763157965020471,0.00022795033699268743,0.1502228115990672,0.0005668053106604376,0.7072029051115379,1.3039999999999998,-0.519704494849124,,,0.5714285714285714,1.5,0.8,1.0,3.2777777777777777,1.0,2.6666666666666665,3.3333333333333335,1.5,3.0,2.5,2.25,1.75,1.0,,,,,,,,,,,,
19,240704_144127,LEARNING,1.0,20,3.0,2583.0,,,,,,,,,,20.0,20.0,20.0,cue2.png,Hard,A,,,,,,,,,,,,,,,,,,,,,,,,,,,35,31,Female,1.0,1.0,0.6313085500150919,2.6596103781028734e-05,0.14344431695730422,6.068699435624091e-05,-0.21502637673504799,0.0003065293131046783,0.20055062807247834,0.0005831698539054608,0.7385604230714697,0.7839999999999998,-1.402622014004727,,,0.5714285714285714,1.5,0.8,1.0,3.2777777777777777,1.0,2.6666666666666665,3.3333333333333335,1.5,3.0,2.5,2.25,1.75,1.0,,,,,,,,,,,,
20,240704_144144,LEARNING,1.0,21,1.0,2583.0,,,,,,,,,,21.0,21.0,21.0,cue1.png,Easy,A,,,,,,,,,,,,,,,,,,,,,,,,,,,35,31,Female,1.0,1.0,0.4830410999323551,3.468083297168169e-06,0.1292505933302216,1.7038908811579413e-05,-0.23108132025182598,-2.9585046649199635e-05,-0.014721988710701588,0.0006180933546203722,0.8054803660539647,2.159,0.9320156568394155,0.5070000000000001,-1.6377390548377617,0.5714285714285714,1.5,0.8,1.0,3.2777777777777777,1.0,2.6666666666666665,3.3333333333333335,1.5,3.0,2.5,2.25,1.75,1.0,,,,,,,,,,,,
21,240704_144202,LEARNING,1.0,22,3.0,2583.0,,,,,,,,,,22.0,22.0,22.0,cue2.png,Hard,A,,,,,,,,,,,,,,,,,,,,,,,,,,,35,31,Female,1.0,1.0,0.504035516603229,-0.0020256835303997106,-1.1160447929463777,-0.0035477325464523934,-1.5423004413270127,-0.0012599331269499674,-0.8027283416509747,,,1.6350000000000002,0.04230646445953936,1.6230000000000002,0.3587049796661275,0.5714285714285714,1.5,0.8,1.0,3.2777777777777777,1.0,2.6666666666666665,3.3333333333333335,1.5,3.0,2.5,2.25,1.75,1.0,,,,,,,,,,,,
22,240704_144220,LEARNING,1.0,23,3.0,2583.0,,,,,,,,,,23.0,23.0,23.0,cue2.png,Hard,A,,,,,,,,,,,,,,,,,,,,,,,,,,,35,31,Female,1.0,1.0,0.5851618166392049,-3.5999944431266365e-05,0.10502896666423187,5.2389518564939595e-05,-0.2180784122023279,-8.995765898153589e-05,-0.05338909668054654,0.0007608662688096046,1.0790599065182056,1.896,0.48546314234340876,,,0.5714285714285714,1.5,0.8,1.0,3.2777777777777777,1.0,2.6666666666666665,3.3333333333333335,1.5,3.0,2.5,2.25,1.75,1.0,,,,,,,,,,,,
23,240704_144238,LEARNING,1.0,24,3.0,2583.0,,,,,,,,,,24.0,24.0,24.0,cue2.png,Hard,A,,,,,,,,,,,,,,,,,,,,,,,,,,,35,31,Female,1.0,1.0,0.5581762000607947,-7.697896602238677e-05,0.07988003931100228,5.7919746224010995e-05,-0.21604424526021848,0.0012042795616258265,0.775536610100781,-8.768485892034043e-05,-0.5469223668217046,1.2140000000000002,-0.6725171423952854,1.344,-0.14040602895984503,0.5714285714285714,1.5,0.8,1.0,3.2777777777777777,1.0,2.6666666666666665,3.3333333333333335,1.5,3.0,2.5,2.25,1.75,1.0,,,,,,,,,,,,
24,240704_144256,LEARNING,1.0,25,1.0,2583.0,,,,,,,,,,25.0,25.0,25.0,cue1.png,Easy,A,,,,,,,,,,,,,,,,,,,,,,,,,,,35,31,Female,0.6875,0.75,0.4427619499231999,-0.0003052096152796409,-0.0601856771236437,0.00018912695015959116,-0.16778269559787007,0.0005924228394212456,0.38365809059388073,-0.00010612093464012606,-0.582249327485251,1.3869999999999998,-0.37877727544544126,1.339,-0.14935067069149346,0.5714285714285714,1.5,0.8,1.0,3.2777777777777777,1.0,2.6666666666666665,3.3333333333333335,1.5,3.0,2.5,2.25,1.75,1.0,,,,,,,,,,,,
25,240704_144313,LEARNING,1.0,26,1.0,2583.0,,,,,,,,,,26.0,26.0,26.0,cue1.png,Easy,A,,,,,,,,,,,,,,,,,,,,,,,,,,,35,31,Female,1.0,1.0,0.4386881999671459,,,-0.002470040941345526,-1.1458963921553125,0.00020595923501226954,0.13613807546123335,0.00032919539674499104,0.2518979796088102,1.242,-0.6249754298253687,0.96,-0.8273545139504308,0.5714285714285714,1.5,0.8,1.0,3.2777777777777777,1.0,2.6666666666666665,3.3333333333333335,1.5,3.0,2.5,2.25,1.75,1.0,,,,,,,,,,,,
26,240704_144331,LEARNING,1.0,27,3.0,2583.0,,,,,,,,,,27.0,27.0,27.0,cue2.png,Hard,A,,,,,,,,,,,,,,,,,,,,,,,,,,,35,31,Female,1.0,1.0,0.5702259000002717,,,-0.00366276038558764,-1.5846107840861192,0.0011976780558157953,0.7713085151408531,9.681474045800283e-05,-0.19338671266489887,0.236,-2.3330812457302468,2.091,1.1959234457484036,0.5714285714285714,1.5,0.8,1.0,3.2777777777777777,1.0,2.6666666666666665,3.3333333333333335,1.5,3.0,2.5,2.25,1.75,1.0,,,,,,,,,,,,
27,240704_144350,LEARNING,1.0,28,1.0,2583.0,,,,,,,,,,28.0,28.0,28.0,cue1.png,Easy,A,,,,,,,,,,,,,,,,,,,,,,,,,,,35,31,Female,1.0,1.0,0.661679433270668,2.0698060849855954e-05,0.13982467335814044,0.005095115170710169,1.6367721386416216,0.0007161048399584686,0.4628732360703289,-0.0002814735778352267,-0.9182577070643217,1.9989999999999999,0.6603487278684609,1.375,-0.08494925022362602,0.5714285714285714,1.5,0.8,1.0,3.2777777777777777,1.0,2.6666666666666665,3.3333333333333335,1.5,3.0,2.5,2.25,1.75,1.0,,,,,,,,,,,,
28,240704_144407,LEARNING,1.0,29,1.0,2583.0,,,,,,,,,,29.0,29.0,29.0,cue1.png,Easy,A,,,,,,,,,,,,,,,,,,,,,,,,,,,35,31,Female,0.6875,0.75,0.4396558666679387,-0.0014323143894098998,-0.7518926770345982,0.0001476654905548892,-0.18303333909735522,-0.0005684182275411797,-0.35983080508248644,0.00036197333450696447,0.3147066236797771,1.332,-0.4721627822792065,0.619,-1.4373790800488413,0.5714285714285714,1.5,0.8,1.0,3.2777777777777777,1.0,2.6666666666666665,3.3333333333333335,1.5,3.0,2.5,2.25,1.75,1.0,,,,,,,,,,,,
29,240704_144425,LEARNING,1.0,30,3.0,2583.0,,,,,,,,,,30.0,30.0,30.0,cue2.png,Hard,A,,,,,,,,,,,,,,,,,,,,,,,,,,,35,31,Female,1.0,1.0,0.4834456167106206,-0.004347405154712294,-2.540891121559343,9.533625361649598e-05,-0.20228144431980186,,,-0.000487780900824057,-1.3135810282853484,1.924,0.5330048549133259,2.422,1.7880587283835176,0.5714285714285714,1.5,0.8,1.0,3.2777777777777777,1.0,2.6666666666666665,3.3333333333333335,1.5,3.0,2.5,2.25,1.75,1.0,,,,,,,,,,,,
30,240704_144442,LEARNING,1.0,31,3.0,2583.0,,,,,,,,,,31.0,31.0,31.0,cue2.png,Hard,A,,,,,,,,,,,,,,,,,,,,,,,,,,,35,31,Female,1.0,1.0,0.4924660999871169,-0.00010555961432178775,0.06234002444774874,0.00012654342591617452,-0.1908026043583782,0.00022925462099191492,0.15105817200957666,0.00014455997795784215,-0.1018979298748421,,,1.1520000000000001,-0.4838802714551377,0.5714285714285714,1.5,0.8,1.0,3.2777777777777777,1.0,2.6666666666666665,3.3333333333333335,1.5,3.0,2.5,2.25,1.75,1.0,,,,,,,,,,,,
31,240704_144500,LEARNING,1.0,32,1.0,2583.0,,,,,,,,,,32.0,32.0,32.0,cue1.png,Easy,A,,,,,,,,,,,,,,,,,,,,,,,,,,,35,31,Female,1.0,1.0,0.4807696667655061,-0.0007875088588589906,-0.3561739210675377,0.005964375157267419,1.956509414891502,0.00021869999867630066,0.14429820743470934,-5.930487361877762e-06,-0.3902657381542912,1.41,-0.3397251544058663,,,0.5714285714285714,1.5,0.8,1.0,3.2777777777777777,1.0,2.6666666666666665,3.3333333333333335,1.5,3.0,2.5,2.25,1.75,1.0,,,,,,,,,,,,
32,240704_144517,LEARNING,1.0,33,1.0,2583.0,,,,,,,,,,33.0,33.0,33.0,cue1.png,Easy,A,,,,,,,,,,,,,,,,,,,,,,,,,,,35,31,Female,1.0,1.0,0.489283166709356,0.0008568038887666858,0.6529448970593459,0.0009232357764535574,0.10224233744185174,0.0011032751995756485,0.7108459097659922,-0.00046045030072464424,-1.2612104994755275,1.0099999999999998,-1.0188924768332535,1.337,-0.15292852738415277,0.5714285714285714,1.5,0.8,1.0,3.2777777777777777,1.0,2.6666666666666665,3.3333333333333335,1.5,3.0,2.5,2.25,1.75,1.0,,,,,,,,,,,,
33,240704_144534,LEARNING,1.0,34,1.0,2583.0,,,,,,,,,,34.0,34.0,34.0,cue1.png,Easy,A,,,,,,,,,,,,,,,,,,,,,,,,,,,35,31,Female,1.0,1.0,0.4162101833305011,7.620556775983413e-05,0.17388976824416416,-0.0001222887031435034,-0.2823297750775843,8.692421303878317e-05,0.05989920043119951,-0.000486339289239952,-1.310818631531405,0.7570000000000001,-1.448465808268575,2.3470000000000004,1.6538891024087943,0.5714285714285714,1.5,0.8,1.0,3.2777777777777777,1.0,2.6666666666666665,3.3333333333333335,1.5,3.0,2.5,2.25,1.75,1.0,,,,,,,,,,,,
34,240704_144552,LEARNING,1.0,35,3.0,2583.0,,,,,,,,,,35.0,35.0,35.0,cue2.png,Hard,A,,,,,,,,,,,,,,,,,,,,,,,,,,,35,31,Female,1.0,1.0,0.5147646833599234,0.00018313507831214893,0.23951267451138616,,,0.0005161381693089126,0.3347997182007801,0.00019976794569966875,0.003890836366595792,2.764,1.9592562320108382,2.2270000000000003,1.4392177008492362,0.5714285714285714,1.5,0.8,1.0,3.2777777777777777,1.0,2.6666666666666665,3.3333333333333335,1.5,3.0,2.5,2.25,1.75,1.0,,,,,,,,,,,,
35,240704_144609,LEARNING,1.0,36,3.0,2583.0,,,,,,,,,,36.0,36.0,36.0,cue2.png,Hard,A,,,,,,,,,,,,,,,,,,,,,,,,,,,35,31,Female,1.0,1.0,0.4111326666704069,-0.0031049575537555308,-1.7783979422827876,1.4648207678358803e-05,-0.2319606846312804,-0.007160573159558691,-4.581936767751587,0.0003737830143408314,0.3373361735515188,1.952,0.580546567483243,0.976,-0.7987316604091563,0.5714285714285714,1.5,0.8,1.0,3.2777777777777777,1.0,2.6666666666666665,3.3333333333333335,1.5,3.0,2.5,2.25,1.75,1.0,,,,,,,,,,,,
36,240704_144627,LEARNING,1.0,37,1.0,2583.0,,,,,,,,,,37.0,37.0,37.0,cue1.png,Easy,A,,,,,,,,,,,,,,,,,,,,,,,,,,,35,31,Female,1.0,1.0,0.4807750666514039,,,0.00014083042780259087,-0.18554745959204447,0.0001418214643450072,0.09505948025842381,0.00016772178973488514,-0.057515577253783354,1.6139999999999999,0.006650180032100952,0.8939999999999999,-0.9454237848081878,0.5714285714285714,1.5,0.8,1.0,3.2777777777777777,1.0,2.6666666666666665,3.3333333333333335,1.5,3.0,2.5,2.25,1.75,1.0,,,,,,,,,,,,
37,240704_144644,LEARNING,1.0,38,3.0,2583.0,,,,,,,,,,38.0,38.0,38.0,cue2.png,Hard,A,,,,,,,,,,,,,,,,,,,,,,,,,,,35,31,Female,1.0,1.0,0.488850549988759,0.002427958802910526,1.6171665710349636,-4.381993360189204e-05,-0.25346684450225404,0.0017113250899485968,1.1002862512353662,-0.0001297906265400545,-0.6276048731760104,1.1910000000000003,-0.71156926343486,0.5549999999999999,-1.551870494213939,0.5714285714285714,1.5,0.8,1.0,3.2777777777777777,1.0,2.6666666666666665,3.3333333333333335,1.5,3.0,2.5,2.25,1.75,1.0,,,,,,,,,,,,
38,240704_144702,LEARNING,1.0,39,3.0,2583.0,,,,,,,,,,39.0,39.0,39.0,cue2.png,Hard,A,,,,,,,,,,,,,,,,,,,,,,,,,,,35,31,Female,1.0,1.0,0.4041870666745429,,,,,,,0.0014477639338150335,2.3952839858913655,,,1.617,0.3479714095881492,0.5714285714285714,1.5,0.8,1.0,3.2777777777777777,1.0,2.6666666666666665,3.3333333333333335,1.5,3.0,2.5,2.25,1.75,1.0,,,,,,,,,,,,
39,240704_144719,LEARNING,1.0,40,3.0,2583.0,,,,,,,,,,40.0,40.0,40.0,cue2.png,Hard,A,,,,,,,,,,,,,,,,,,,,,,,,,,,35,31,Female,1.0,1.0,0.4284077500148366,2.74590979208629e-05,0.14397393860482682,-0.0005204495573394767,-0.4287840798870717,0.00031998868017454017,0.2091710070753159,0.00047614984279905487,0.5334901152667093,2.253,1.0916199776098519,1.4070000000000003,-0.02770354314107678,0.5714285714285714,1.5,0.8,1.0,3.2777777777777777,1.0,2.6666666666666665,3.3333333333333335,1.5,3.0,2.5,2.25,1.75,1.0,,,,,,,,,,,,
40,240704_144736,LEARNING,1.0,41,1.0,2583.0,,,,,,,,,,41.0,41.0,41.0,cue1.png,Easy,A,,,,,,,,,,,,,,,,,,,,,,,,,,,35,31,Female,1.0,1.0,0.497350350022316,-0.003981316589944585,-2.3162216599003034,-0.0001245884615044021,-0.28317568825168415,,,,,1.1050000000000002,-0.8575902377567484,1.412,-0.018758901409429117,0.5714285714285714,1.5,0.8,1.0,3.2777777777777777,1.0,2.6666666666666665,3.3333333333333335,1.5,3.0,2.5,2.25,1.75,1.0,,,,,,,,,,,,
41,240704_144754,LEARNING,1.0,42,3.0,2583.0,,,,,,,,,,42.0,42.0,42.0,cue2.png,Hard,A,,,,,,,,,,,,,,,,,,,,,,,,,,,35,31,Female,1.0,1.0,0.467881283412377,0.0002609140404371724,0.28724581679108524,-0.0006152868881256039,-0.4636678089224564,0.0008333653970177893,0.5379756118869934,0.000572930183066026,0.7189393033467248,2.4270000000000005,1.3870577628657659,,,0.5714285714285714,1.5,0.8,1.0,3.2777777777777777,1.0,2.6666666666666665,3.3333333333333335,1.5,3.0,2.5,2.25,1.75,1.0,,,,,,,,,,,,
42,240704_144811,LEARNING,1.0,43,3.0,2583.0,,,,,,,,,,43.0,43.0,43.0,cue2.png,Hard,A,,,,,,,,,,,,,,,,,,,,,,,,,,,35,31,Female,0.6875,0.75,0.477971133387958,,,0.0005548652286924815,-0.03325428889923179,0.0005091901919077072,0.330349717083294,0.000670375361441742,0.9056624452807076,1.9890000000000003,0.643369544807777,2.729,2.33725973070672,0.5714285714285714,1.5,0.8,1.0,3.2777777777777777,1.0,2.6666666666666665,3.3333333333333335,1.5,3.0,2.5,2.25,1.75,1.0,,,,,,,,,,,,
43,240704_144829,LEARNING,1.0,44,1.0,2583.0,,,,,,,,,,44.0,44.0,44.0,cue1.png,Easy,A,,,,,,,,,,,,,,,,,,,,,,,,,,,35,31,Female,1.0,1.0,0.4375012999710937,-0.0016105845663170288,-0.8612975274729074,0.009677428117360913,3.3222704741734606,0.0008929003166359495,0.5761061991834197,-6.804699766121795e-06,-0.39194089222100886,2.5210000000000004,1.5466620836362015,1.5560000000000003,0.23884678046204108,0.5714285714285714,1.5,0.8,1.0,3.2777777777777777,1.0,2.6666666666666665,3.3333333333333335,1.5,3.0,2.5,2.25,1.75,1.0,,,,,,,,,,,,
44,240704_144846,LEARNING,1.0,45,1.0,2583.0,,,,,,,,,,45.0,45.0,45.0,cue1.png,Easy,A,,,,,,,,,,,,,,,,,,,,,,,,,,,35,31,Female,1.0,1.0,0.4645052500224362,-0.0005912069593032804,-0.23570295764421234,,,-0.0008448705214490282,-0.536891400675111,0.0005236896407570359,0.6245852375660915,1.3929999999999998,-0.36858976560903045,1.8359999999999999,0.7397467174343423,0.5714285714285714,1.5,0.8,1.0,3.2777777777777777,1.0,2.6666666666666665,3.3333333333333335,1.5,3.0,2.5,2.25,1.75,1.0,,,,,,,,,,,,
45,240704_144903,LEARNING,1.0,46,1.0,2583.0,,,,,,,,,,46.0,46.0,46.0,cue1.png,Easy,A,,,,,,,,,,,,,,,,,,,,,,,,,,,35,31,Female,1.0,1.0,0.430205100060751,-0.00013597438055523887,0.04367440685193318,-0.0001243422604046895,-0.2830851288445457,-0.005021647666989145,-3.2120099124191714,0.00018710517202326533,-0.020373400467581012,1.6560000000000001,0.07796274888697702,1.232,-0.340766003748766,0.5714285714285714,1.5,0.8,1.0,3.2777777777777777,1.0,2.6666666666666665,3.3333333333333335,1.5,3.0,2.5,2.25,1.75,1.0,,,,,,,,,,,,
46,240704_144920,LEARNING,1.0,47,3.0,2583.0,,,,,,,,,,47.0,47.0,47.0,cue2.png,Hard,A,,,,,,,,,,,,,,,,,,,,,,,,,,,35,31,Female,1.0,1.0,0.4057837999813879,,,-4.250187825683392e-05,-0.2529820281843598,,,,,0.4900000000000002,-1.9018099959888557,1.7970000000000002,0.6699785119274865,0.5714285714285714,1.5,0.8,1.0,3.2777777777777777,1.0,2.6666666666666665,3.3333333333333335,1.5,3.0,2.5,2.25,1.75,1.0,,,,,,,,,,,,
47,240704_144938,LEARNING,1.0,48,3.0,2583.0,,,,,,,,,,48.0,48.0,48.0,cue2.png,Hard,A,,,,,,,,,,,,,,,,,,,,,,,,,,,35,31,Female,0.6875,0.75,0.4165548166492954,-0.0004937371911891437,-0.17588551881180955,,,0.0008999502107639055,0.5806214753474037,,,1.335,-0.46706902736100125,1.802,0.6789231536591345,0.5714285714285714,1.5,0.8,1.0,3.2777777777777777,1.0,2.6666666666666665,3.3333333333333335,1.5,3.0,2.5,2.25,1.75,1.0,,,,,,,,,,,,
48,240704_144955,LEARNING,1.0,49,1.0,2583.0,,,,,,,,,,49.0,49.0,49.0,cue1.png,Easy,A,,,,,,,,,,,,,,,,,,,,,,,,,,,35,31,Female,1.0,1.0,0.4520546500183021,,,,,-0.00012006985520336341,-0.07267518514909077,-0.00024162779014600799,-0.841905743897107,,,,,0.5714285714285714,1.5,0.8,1.0,3.2777777777777777,1.0,2.6666666666666665,3.3333333333333335,1.5,3.0,2.5,2.25,1.75,1.0,,,,,,,,,,,,
49,240704_145013,LEARNING,1.0,50,1.0,2583.0,,,,,,,,,,50.0,50.0,50.0,cue1.png,Easy,A,,,,,,,,,,,,,,,,,,,,,,,,,,,35,31,Female,1.0,1.0,0.4772907499379168,5.1289442631084065e-05,0.1585986803543866,,,0.0007002063695245916,0.45269067399337126,-2.171417233148322e-05,-0.42051022328887194,2.325,1.2138700956467816,1.36,-0.1117831754185706,0.5714285714285714,1.5,0.8,1.0,3.2777777777777777,1.0,2.6666666666666665,3.3333333333333335,1.5,3.0,2.5,2.25,1.75,1.0,,,,,,,,,,,,
0,240704_145144,TrueCHOICE,9.0,1,1.0,2583.0,,,,,,,,,,,1.0,1.0,,,A,,,,,,True,cue1.png,Easy,cue2.png,Hard,Left,Easy,Easy,0.0161284999921917,,,,,,,,,,,,,35,31,Female,1.0,1.0,0.6268048333004117,,,,,,,,,,,,,0.5714285714285714,1.5,0.8,1.0,3.2777777777777777,1.0,2.6666666666666665,3.3333333333333335,1.5,3.0,2.5,2.25,1.75,1.0,-0.00020073875637265396,-0.18092071776505528,,,,,,,,,,
1,240704_145159,TrueCHOICE,9.0,2,1.0,2583.0,,,,,,,,,,,2.0,2.0,,,A,,,,,,True,cue1.png,Easy,cue2.png,Hard,Left,Easy,Easy,0.0174220998305827,,,,,,,,,,,,,35,31,Female,,,,,,,,,,,,,,,,0.5714285714285714,1.5,0.8,1.0,3.2777777777777777,1.0,2.6666666666666665,3.3333333333333335,1.5,3.0,2.5,2.25,1.75,1.0,0.00019007067350378798,0.273012957827678,,,1.9770000000000003,1.7032890420449194,,,,,,
2,240704_145214,TrueCHOICE,9.0,3,1.0,2583.0,,,,,,,,,,,3.0,3.0,,,A,,,,,,True,cue2.png,Hard,cue1.png,Easy,Right,Easy,Easy,0.0181052000261843,,,,,,,,,,,,,35,31,Female,1.0,1.0,0.4043195999693125,,,,,,,,,,,,,0.5714285714285714,1.5,0.8,1.0,3.2777777777777777,1.0,2.6666666666666665,3.3333333333333335,1.5,3.0,2.5,2.25,1.75,1.0,,,4.574995021036556e-05,-0.6399750256301374,1.5979999999999999,0.24112245782062822,,,,,,
3,240704_145229,TrueCHOICE,9.0,4,1.0,2583.0,,,,,,,,,,,4.0,4.0,,,A,,,,,,True,cue1.png,Easy,cue2.png,Hard,Left,Easy,Easy,0.0151239000260829,,,,,,,,,,,,,35,31,Female,1.0,1.0,0.415484166626508,,,,,,,,,,,,,0.5714285714285714,1.5,0.8,1.0,3.2777777777777777,1.0,2.6666666666666665,3.3333333333333335,1.5,3.0,2.5,2.25,1.75,1.0,-0.0016220888767358096,-1.8318498794401117,0.0007135355834187,1.0063936903329798,,,,,,,,
4,240704_145243,TrueCHOICE,9.0,5,1.0,2583.0,,,,,,,,,,,5.0,5.0,,,A,,,,,,True,cue2.png,Hard,cue1.png,Easy,Right,Easy,Easy,0.0156000000424683,,,,,,,,,,,,,35,31,Female,1.0,1.0,0.5683754666630799,,,,,,,,,,,,,0.5714285714285714,1.5,0.8,1.0,3.2777777777777777,1.0,2.6666666666666665,3.3333333333333335,1.5,3.0,2.5,2.25,1.75,1.0,-1.0285920421994332e-05,0.04029440459643862,0.0004474555602159867,0.3503960103005005,1.467,-0.2642702137714077,,,,,,
5,240704_145258,TrueCHOICE,9.0,6,1.0,2583.0,,,,,,,,,,,6.0,6.0,,,A,,,,,,True,cue2.png,Hard,cue1.png,Easy,Right,Easy,Easy,0.0165812000632286,,,,,,,,,,,,,35,31,Female,1.0,1.0,0.3661350833329682,,,,,,,,,,,,,0.5714285714285714,1.5,0.8,1.0,3.2777777777777777,1.0,2.6666666666666665,3.3333333333333335,1.5,3.0,2.5,2.25,1.75,1.0,,,0.0007576164033022675,1.1150712048246236,1.4649999999999999,-0.27198613242166864,,,,,,
6,240704_145313,TrueCHOICE,9.0,7,1.0,2583.0,,,,,,,,,,,7.0,7.0,,,A,,,,,,True,cue1.png,Easy,cue2.png,Hard,Left,Easy,Easy,0.0161780000198632,,,,,,,,,,,,,35,31,Female,,,,,,,,,,,,,,,,0.5714285714285714,1.5,0.8,1.0,3.2777777777777777,1.0,2.6666666666666665,3.3333333333333335,1.5,3.0,2.5,2.25,1.75,1.0,0.0003686837264377414,0.48047591401269796,0.0006399838006924813,0.8250580220258055,1.1,-1.6801412860941365,,,,,,
7,240704_145328,TrueCHOICE,9.0,8,1.0,2583.0,,,,,,,,,,,8.0,8.0,,,A,,,,,,True,cue2.png,Hard,cue1.png,Easy,Right,Easy,Easy,0.0166668999008834,,,,,,,,,,,,,35,31,Female,1.0,1.0,0.4199716500006616,,,,,,,,,,,,,0.5714285714285714,1.5,0.8,1.0,3.2777777777777777,1.0,2.6666666666666665,3.3333333333333335,1.5,3.0,2.5,2.25,1.75,1.0,,,-0.00024278973933342975,-1.351345103923529,1.606,0.2719861324216695,,,,,,
8,240704_145343,TrueCHOICE,9.0,9,1.0,2583.0,,,,,,,,,,,9.0,9.0,,,A,,,,,,True,cue1.png,Easy,cue2.png,Hard,Left,Easy,Easy,0.015867100097239,,,,,,,,,,,,,35,31,Female,1.0,1.0,0.4538335166483496,,,,,,,,,,,,,0.5714285714285714,1.5,0.8,1.0,3.2777777777777777,1.0,2.6666666666666665,3.3333333333333335,1.5,3.0,2.5,2.25,1.75,1.0,-0.0004945882436755665,-0.5222333055514432,-0.0002242345240778985,-1.3055987979302437,,,,,,,,
9,240704_145359,TrueCHOICE,9.0,10,1.0,2583.0,,,,,,,,,,,10.0,10.0,,,A,,,,,,True,cue2.png,Hard,cue1.png,Easy,Right,Easy,Easy,0.0165735001210123,,,,,,,,,,,,,35,31,Female,1.0,1.0,0.4630560333607718,,,,,,,,,,,,,0.5714285714285714,1.5,0.8,1.0,3.2777777777777777,1.0,2.6666666666666665,3.3333333333333335,1.5,3.0,2.5,2.25,1.75,1.0,0.0014541086436199889,1.7412206263197956,,,,,,,,,,
0,240704_145536,FalseCHOICE,9.0,1,2.0,2583.0,,,,,,,,,,,1.0,1.0,,,A,,,,,,False,cue1.png,Easy,cue2.png,Hard,Left,Easy,Mid,0.0165144999045878,,,,,,,,,,,,,35,31,Female,1.0,1.0,0.4706807334441691,,,,,,,,,,,,,0.5714285714285714,1.5,0.8,1.0,3.2777777777777777,1.0,2.6666666666666665,3.3333333333333335,1.5,3.0,2.5,2.25,1.75,1.0,-0.00020073875637265396,-0.18092071776505528,,,,,,,,,,
1,240704_145553,FalseCHOICE,9.0,2,2.0,2583.0,,,,,,,,,,,2.0,2.0,,,A,,,,,,False,cue2.png,Hard,cue1.png,Easy,Left,Hard,Mid,0.0151189998723566,,,,,,,,,,,,,35,31,Female,,,,,,,,,,,,,,,,0.5714285714285714,1.5,0.8,1.0,3.2777777777777777,1.0,2.6666666666666665,3.3333333333333335,1.5,3.0,2.5,2.25,1.75,1.0,0.00019007067350378798,0.273012957827678,,,1.9770000000000003,1.7032890420449194,,,,,,
2,240704_145610,FalseCHOICE,9.0,3,2.0,2583.0,,,,,,,,,,,3.0,3.0,,,A,,,,,,False,cue2.png,Hard,cue1.png,Easy,Right,Easy,Mid,0.0167481999378651,,,,,,,,,,,,,35,31,Female,,,,,,,,,,,,,,,,0.5714285714285714,1.5,0.8,1.0,3.2777777777777777,1.0,2.6666666666666665,3.3333333333333335,1.5,3.0,2.5,2.25,1.75,1.0,,,4.574995021036556e-05,-0.6399750256301374,1.5979999999999999,0.24112245782062822,,,,,,
3,240704_145627,FalseCHOICE,9.0,4,2.0,2583.0,,,,,,,,,,,4.0,4.0,,,A,,,,,,False,cue2.png,Hard,cue1.png,Easy,Left,Hard,Mid,0.0161936001386493,,,,,,,,,,,,,35,31,Female,1.0,1.0,0.5937079500484591,,,,,,,,,,,,,0.5714285714285714,1.5,0.8,1.0,3.2777777777777777,1.0,2.6666666666666665,3.3333333333333335,1.5,3.0,2.5,2.25,1.75,1.0,-0.0016220888767358096,-1.8318498794401117,0.0007135355834187,1.0063936903329798,,,,,,,,
4,240704_145643,FalseCHOICE,9.0,5,2.0,2583.0,,,,,,,,,,,5.0,5.0,,,A,,,,,,False,cue1.png,Easy,cue2.png,Hard,Left,Easy,Mid,0.0163970000576227,,,,,,,,,,,,,35,31,Female,,,,,,,,,,,,,,,,0.5714285714285714,1.5,0.8,1.0,3.2777777777777777,1.0,2.6666666666666665,3.3333333333333335,1.5,3.0,2.5,2.25,1.75,1.0,-1.0285920421994332e-05,0.04029440459643862,0.0004474555602159867,0.3503960103005005,1.467,-0.2642702137714077,,,,,,
5,240704_145659,FalseCHOICE,9.0,6,2.0,2583.0,,,,,,,,,,,6.0,6.0,,,A,,,,,,False,cue2.png,Hard,cue1.png,Easy,Right,Easy,Mid,0.0166038000024855,,,,,,,,,,,,,35,31,Female,0.6875,0.75,0.5077216166925306,,,,,,,,,,,,,0.5714285714285714,1.5,0.8,1.0,3.2777777777777777,1.0,2.6666666666666665,3.3333333333333335,1.5,3.0,2.5,2.25,1.75,1.0,,,0.0007576164033022675,1.1150712048246236,1.4649999999999999,-0.27198613242166864,,,,,,
6,240704_145716,FalseCHOICE,9.0,7,2.0,2583.0,,,,,,,,,,,7.0,7.0,,,A,,,,,,False,cue2.png,Hard,cue1.png,Easy,Left,Hard,Mid,0.0160880999173969,,,,,,,,,,,,,35,31,Female,1.0,1.0,0.3616732833130906,,,,,,,,,,,,,0.5714285714285714,1.5,0.8,1.0,3.2777777777777777,1.0,2.6666666666666665,3.3333333333333335,1.5,3.0,2.5,2.25,1.75,1.0,0.0003686837264377414,0.48047591401269796,0.0006399838006924813,0.8250580220258055,1.1,-1.6801412860941365,,,,,,
7,240704_145732,FalseCHOICE,9.0,8,2.0,2583.0,,,,,,,,,,,8.0,8.0,,,A,,,,,,False,cue1.png,Easy,cue2.png,Hard,Left,Easy,Mid,0.016687799943611,,,,,,,,,,,,,35,31,Female,,,,,,,,,,,,,,,,0.5714285714285714,1.5,0.8,1.0,3.2777777777777777,1.0,2.6666666666666665,3.3333333333333335,1.5,3.0,2.5,2.25,1.75,1.0,,,-0.00024278973933342975,-1.351345103923529,1.606,0.2719861324216695,,,,,,
8,240704_145748,FalseCHOICE,9.0,9,2.0,2583.0,,,,,,,,,,,9.0,9.0,,,A,,,,,,False,cue1.png,Easy,cue2.png,Hard,Left,Easy,Mid,0.0162158999592065,,,,,,,,,,,,,35,31,Female,0.6875,0.75,0.6001404833514243,,,,,,,,,,,,,0.5714285714285714,1.5,0.8,1.0,3.2777777777777777,1.0,2.6666666666666665,3.3333333333333335,1.5,3.0,2.5,2.25,1.75,1.0,-0.0004945882436755665,-0.5222333055514432,-0.0002242345240778985,-1.3055987979302437,,,,,,,,
9,240704_145803,FalseCHOICE,9.0,10,2.0,2583.0,,,,,,,,,,,10.0,10.0,,,A,,,,,,False,cue2.png,Hard,cue1.png,Easy,Right,Easy,Mid,0.0167955998331308,,,,,,,,,,,,,35,31,Female,,,,,,,,,,,,,,,,0.5714285714285714,1.5,0.8,1.0,3.2777777777777777,1.0,2.6666666666666665,3.3333333333333335,1.5,3.0,2.5,2.25,1.75,1.0,0.0014541086436199889,1.7412206263197956,,,,,,,,,,
0,240704_143511,OFFLINERATING,9.0,1,1.0,,,,,,,,,,,,,,,,,T0,cue1.png,Easy,49.0,2.4928579998668283,,,,,,,,,,,,,,,,,,,,,,35,31,Female,,,,,,,,,,,,,,,,0.5714285714285714,1.5,0.8,1.0,3.2777777777777777,1.0,2.6666666666666665,3.3333333333333335,1.5,3.0,2.5,2.25,1.75,1.0,,,,,,,,,,,0.8219999999999998,-0.3127661229064651
1,240704_143519,OFFLINERATING,9.0,2,3.0,,,,,,,,,,,,,,,,,T0,cue2.png,Hard,27.0,1.885586500167847,,,,,,,,,,,,,,,,,,,,,,35,31,Female,,,,,,,,,,,,,,,,0.5714285714285714,1.5,0.8,1.0,3.2777777777777777,1.0,2.6666666666666665,3.3333333333333335,1.5,3.0,2.5,2.25,1.75,1.0,,,,,,,,,,,1.6050000000000002,1.0309698125435336
2,240704_145038,OFFLINERATING,9.0,3,1.0,,,,,,,,,,,,,,,,,T1,cue1.png,Easy,73.0,1.3653851000126451,,,,,,,,,,,,,,,,,,,,,,35,31,Female,,,,,,,,,,,,,,,,0.5714285714285714,1.5,0.8,1.0,3.2777777777777777,1.0,2.6666666666666665,3.3333333333333335,1.5,3.0,2.5,2.25,1.75,1.0,,,,,,,-5.785414972564549e-05,-1.160977358329902,-0.00038783990216030573,-1.0745651609536304,,
3,240704_145045,OFFLINERATING,9.0,4,3.0,,,,,,,,,,,,,,,,,T1,cue2.png,Hard,21.0,0.8851083999034017,,,,,,,,,,,,,,,,,,,,,,35,31,Female,,,,,,,,,,,,,,,,0.5714285714285714,1.5,0.8,1.0,3.2777777777777777,1.0,2.6666666666666665,3.3333333333333335,1.5,3.0,2.5,2.25,1.75,1.0,,,,,,,0.0002132190171592989,1.163572114953732,-0.00012086747925057519,-0.487209512139639,,
4,240704_145420,OFFLINERATING,9.0,5,1.0,,,,,,,,,,,,,,,,,T2,cue1.png,Easy,100.0,1.4353914000093937,,,,,,,,,,,,,,,,,,,,,,35,31,Female,,,,,,,,,,,,,,,,0.5714285714285714,1.5,0.8,1.0,3.2777777777777777,1.0,2.6666666666666665,3.3333333333333335,1.5,3.0,2.5,2.25,1.75,1.0,,,,,,,0.00017133233061348988,0.8043787788276806,,,1.4569999999999999,0.7769814109514516
5,240704_145427,OFFLINERATING,9.0,6,3.0,,,,,,,,,,,,,,,,,T2,cue2.png,Hard,0.0,0.5846829002257437,,,,,,,,,,,,,,,,,,,,,,35,31,Female,,,,,,,,,,,,,,,,0.5714285714285714,1.5,0.8,1.0,3.2777777777777777,1.0,2.6666666666666665,3.3333333333333335,1.5,3.0,2.5,2.25,1.75,1.0,,,,,,,-1.6572628957894735e-05,-0.8069735354515107,,,,
6,240704_150821,OFFLINERATING,9.0,7,1.0,,,,,,,,,,,,,,,,,T3,cue1.png,Easy,0.0,1.4484757999889553,,,,,,,,,,,,,,,,,,,,,,35,31,Female,,,,,,,,,,,,,,,,0.5714285714285714,1.5,0.8,1.0,3.2777777777777777,1.0,2.6666666666666665,3.3333333333333335,1.5,3.0,2.5,2.25,1.75,1.0,,,,,,,,,7.681804393905051e-05,-0.052289277799794864,,
7,240704_150828,OFFLINERATING,9.0,8,3.0,,,,,,,,,,,,,,,,,T3,cue2.png,Hard,0.0,0.6682372998911887,,,,,,,,,,,,,,,,,,,,,,35,31,Female,,,,,,,,,,,,,,,,0.5714285714285714,1.5,0.8,1.0,3.2777777777777777,1.0,2.6666666666666665,3.3333333333333335,1.5,3.0,2.5,2.25,1.75,1.0,,,,,,,,,0.0008342302860548491,1.6140639508930643,0.133,-1.4951851005885193
