,END,Phase,Block,TrialN,NbackLevel,ISI,Letter_Resp,Letter_RT,Letter_Accuracy,Trial_A_measure,Trial_ACC,Trial_RT,TrialCountCali,CaliEnd_A_measure,ISI_calibrated,TrialIndex,TrialNumber_total,TrialNumber_valid,CueLearning,TrialDemandLearning,CueMapping,OfflineRatingTimePoint,CueFigure,TrialDemand,OfflineRating,OfflineRatingRT,PhaseType,CueLeft,CueDemandLeft,CueRight,CueDemandRight,Choice,ChoiceDemand,TaskDemand,ChoiceRT,CueCheck,CueDemandCheck,CorrectAnswer,Answer,AnswerDemand,AnswerRT,AnswerACC,DemandRatingQuesIndex,QuesTLX,DemandLevel,DemandRating,DemandRatingRT,PID,Age,Gender,Task_A_measure,Task_ACC,Task_RT,cue_i_on_zyg_values,cue_i_on_zyg_zvalues,cue_e_on_zyg_values,cue_e_on_zyg_zvalues,cue_i_on_cor_values,cue_i_on_cor_zvalues,cue_e_on_cor_values,cue_e_on_cor_zvalues,cue_i_on_scr_values,cue_i_on_scr_zvalues,cue_e_on_scr_values,cue_e_on_scr_zvalues,BAI_bis,BAI_bas_d,BAI_bas_rr,BAI_bas_fs,NFC,BFI_ext,BFI_agr,BFI_con,BFI_neu,BFI_open,UPPS_lps,UPPS_lpm,UPPS_pu,UPPS_ss,cue_e_true_zyg_values,cue_e_true_zyg_zvalues,cue_e_true_cor_values,cue_e_true_cor_zvalues,cue_e_true_scr_values,cue_e_true_scr_zvalues,cue_i_off_zyg_values,cue_i_off_zyg_zvalues,cue_i_off_cor_values,cue_i_off_cor_zvalues,cue_i_off_scr_values,cue_i_off_scr_zvalues
0,240708_092607,LEARNING,1.0,1,1.0,1068.0,,,,,,,,,,1.0,1.0,1.0,cue2.png,Easy,B,,,,,,,,,,,,,,,,,,,,,,,,,,,36,28,Female,0.84375,0.875,0.4920307000336999,,,-2.0261780116268176e-05,-0.40088280930612874,,,,,,,,,1.4285714285714286,0.75,0.6,0.25,2.7777777777777777,3.375,2.4444444444444446,3.0,2.75,3.6666666666666665,2.0,2.0,2.0,1.0,,,,,,,,,,,,
1,240708_092628,LEARNING,1.0,2,3.0,1068.0,,,,,,,,,,2.0,2.0,2.0,cue1.png,Hard,B,,,,,,,,,,,,,,,,,,,,,,,,,,,36,28,Female,0.5833333333333334,0.75,0.413329290988093,2.977679301450738e-05,0.2777709723621315,3.570676638785502e-05,0.20261487186369084,,,,,1.4400000000000002,-0.19226548036514035,1.4600000000000002,0.16943100137067782,1.4285714285714286,0.75,0.6,0.25,2.7777777777777777,3.375,2.4444444444444446,3.0,2.75,3.6666666666666665,2.0,2.0,2.0,1.0,,,,,,,,,,,,
2,240708_092651,LEARNING,1.0,3,1.0,1068.0,,,,,,,,,,3.0,3.0,3.0,cue2.png,Easy,B,,,,,,,,,,,,,,,,,,,,,,,,,,,36,28,Female,0.84375,0.875,0.5553690454583954,-0.00010671955846203434,-0.6627158112052062,-7.330553616232338e-05,-0.9728430579428091,,,,,1.4430000000000003,-0.18604918952381128,1.9680000000000002,1.2316496059711637,1.4285714285714286,0.75,0.6,0.25,2.7777777777777777,3.375,2.4444444444444446,3.0,2.75,3.6666666666666665,2.0,2.0,2.0,1.0,,,,,,,,,,,,
3,240708_092713,LEARNING,1.0,4,3.0,1068.0,,,,,,,,,,4.0,4.0,4.0,cue1.png,Hard,B,,,,,,,,,,,,,,,,,,,,,,,,,,,36,28,Female,0.15625,0.625,0.4303837546401403,0.00025137845956511515,1.8046501625590998,-3.4432943586484594e-05,-0.5536876403753798,,,,,1.934,0.8313504115070091,1.59,0.4412585970361563,1.4285714285714286,0.75,0.6,0.25,2.7777777777777777,3.375,2.4444444444444446,3.0,2.75,3.6666666666666665,2.0,2.0,2.0,1.0,,,,,,,,,,,,
4,240708_092735,LEARNING,1.0,5,3.0,1068.0,,,,,,,,,,5.0,5.0,5.0,cue1.png,Hard,B,,,,,,,,,,,,,,,,,,,,,,,,,,,36,28,Female,0.84375,0.875,0.4753043636764315,3.4654866069221395e-05,0.3113818578371395,-5.300623802497557e-05,-0.7539597722322942,,,,,1.5730000000000002,0.08332341360043848,1.542,0.34089148479044096,1.4285714285714286,0.75,0.6,0.25,2.7777777777777777,3.375,2.4444444444444446,3.0,2.75,3.6666666666666665,2.0,2.0,2.0,1.0,,,,,,,,,,,,
5,240708_092756,LEARNING,1.0,6,1.0,1068.0,,,,,,,,,,6.0,6.0,6.0,cue2.png,Easy,B,,,,,,,,,,,,,,,,,,,,,,,,,,,36,28,Female,1.0,1.0,0.4332245272076265,2.028949810354598e-05,0.2124016391964878,,,0.0003027777516014887,0.9854029010344433,0.00033721356208955833,0.8648957222784232,1.578,0.09368389833598634,,,1.4285714285714286,0.75,0.6,0.25,2.7777777777777777,3.375,2.4444444444444446,3.0,2.75,3.6666666666666665,2.0,2.0,2.0,1.0,,,,,,,,,,,,
6,240708_092818,LEARNING,1.0,7,3.0,1068.0,,,,,,,,,,7.0,7.0,7.0,cue1.png,Hard,B,,,,,,,,,,,,,,,,,,,,,,,,,,,36,28,Female,0.84375,0.875,0.447835754476149,-0.0001762230547026132,-1.141608608843248,-8.3198958128884e-06,-0.2721158511476382,3.027964005741096e-05,0.17313914922374837,0.0001996421442523209,0.47854781965609977,,,,,1.4285714285714286,0.75,0.6,0.25,2.7777777777777777,3.375,2.4444444444444446,3.0,2.75,3.6666666666666665,2.0,2.0,2.0,1.0,,,,,,,,,,,,
7,240708_092840,LEARNING,1.0,8,3.0,1068.0,,,,,,,,,,8.0,8.0,8.0,cue1.png,Hard,B,,,,,,,,,,,,,,,,,,,,,,,,,,,36,28,Female,1.0,1.0,0.4908801364627751,-0.00010802950890014418,-0.671741628092204,6.851760809046484e-05,0.5564076380077301,0.0002528106519001719,0.8364607170298924,-0.00018525629386520383,-0.6023795025093833,,,,,1.4285714285714286,0.75,0.6,0.25,2.7777777777777777,3.375,2.4444444444444446,3.0,2.75,3.6666666666666665,2.0,2.0,2.0,1.0,,,,,,,,,,,,
8,240708_092903,LEARNING,1.0,9,1.0,1068.0,,,,,,,,,,9.0,9.0,9.0,cue2.png,Easy,B,,,,,,,,,,,,,,,,,,,,,,,,,,,36,28,Female,1.0,1.0,0.491175272798335,-0.0003317046436812662,-2.21290742335847,6.021767723817873e-05,0.4669111379895367,-0.0006550316294762007,-1.8696401559072553,-0.0001458787466750138,-0.4917937935989707,,,,,1.4285714285714286,0.75,0.6,0.25,2.7777777777777777,3.375,2.4444444444444446,3.0,2.75,3.6666666666666665,2.0,2.0,2.0,1.0,,,,,,,,,,,,
9,240708_092924,LEARNING,1.0,10,1.0,1068.0,,,,,,,,,,10.0,10.0,10.0,cue2.png,Easy,B,,,,,,,,,,,,,,,,,,,,,,,,,,,36,28,Female,0.5833333333333334,0.75,0.4592240272005173,-3.4323733575012966e-05,-0.16389429872397002,-1.7774642410102025e-05,-0.3740644991627571,0.00011640301851534047,0.42985615217272005,0.00032439403488030566,0.8288940765313081,,,0.8180000000000001,-1.1729791249157633,1.4285714285714286,0.75,0.6,0.25,2.7777777777777777,3.375,2.4444444444444446,3.0,2.75,3.6666666666666665,2.0,2.0,2.0,1.0,,,,,,,,,,,,
10,240708_092946,LEARNING,1.0,11,3.0,1068.0,,,,,,,,,,11.0,11.0,11.0,cue1.png,Hard,B,,,,,,,,,,,,,,,,,,,,,,,,,,,36,28,Female,0.84375,0.875,0.4656675091351975,-4.407118962993645e-06,0.042237076564234304,7.750026373948109e-07,-0.17404737397507938,0.0001910170337157133,0.652265986798351,-0.00027805307133362683,-0.8629848005332249,,,0.3999999999999999,-2.047009394055533,1.4285714285714286,0.75,0.6,0.25,2.7777777777777777,3.375,2.4444444444444446,3.0,2.75,3.6666666666666665,2.0,2.0,2.0,1.0,,,,,,,,,,,,
11,240708_093008,LEARNING,1.0,12,1.0,1068.0,,,,,,,,,,12.0,12.0,12.0,cue2.png,Easy,B,,,,,,,,,,,,,,,,,,,,,,,,,,,36,28,Female,1.0,1.0,0.4388062545437027,,,-2.1977898192345434e-06,-0.20610240249083292,8.367415814556928e-05,0.332297799324691,0.000163707366743566,0.3776305932440492,1.3550000000000002,-0.36839372086945754,1.5759999999999998,0.41198485596448886,1.4285714285714286,0.75,0.6,0.25,2.7777777777777777,3.375,2.4444444444444446,3.0,2.75,3.6666666666666665,2.0,2.0,2.0,1.0,,,,,,,,,,,,
12,240708_093030,LEARNING,1.0,13,1.0,1068.0,,,,,,,,,,13.0,13.0,13.0,cue2.png,Easy,B,,,,,,,,,,,,,,,,,,,,,,,,,,,36,28,Female,0.84375,0.875,0.5058372000401671,0.00013881551146335738,1.0290692487551647,-9.820412313908764e-05,-1.2413195584675336,-0.0003313063493792833,-0.9046782004738251,-0.00019759030574907892,-0.6370176540758063,0.6620000000000001,-1.804356905216421,0.54,-1.7542719833388638,1.4285714285714286,0.75,0.6,0.25,2.7777777777777777,3.375,2.4444444444444446,3.0,2.75,3.6666666666666665,2.0,2.0,2.0,1.0,,,,,,,,,,,,
13,240708_093053,LEARNING,1.0,14,1.0,1068.0,,,,,,,,,,14.0,14.0,14.0,cue2.png,Easy,B,,,,,,,,,,,,,,,,,,,,,,,,,,,36,28,Female,0.15625,0.625,0.4960760998708958,6.553623463404021e-05,0.5241605781436333,-2.4658173939292108e-05,-0.4482882476000962,0.00025752058403169954,0.8505001065957521,-6.655528308311537e-06,-0.10080706642906423,,,,,1.4285714285714286,0.75,0.6,0.25,2.7777777777777777,3.375,2.4444444444444446,3.0,2.75,3.6666666666666665,2.0,2.0,2.0,1.0,,,,,,,,,,,,
14,240708_093114,LEARNING,1.0,15,3.0,1068.0,,,,,,,,,,15.0,15.0,15.0,cue1.png,Hard,B,,,,,,,,,,,,,,,,,,,,,,,,,,,36,28,Female,0.5833333333333334,0.75,0.4253370000303469,,,,,,,,,,,,,1.4285714285714286,0.75,0.6,0.25,2.7777777777777777,3.375,2.4444444444444446,3.0,2.75,3.6666666666666665,2.0,2.0,2.0,1.0,,,,,,,,,,,,
15,240708_093137,LEARNING,1.0,16,1.0,1068.0,,,,,,,,,,16.0,16.0,16.0,cue2.png,Easy,B,,,,,,,,,,,,,,,,,,,,,,,,,,,36,28,Female,0.5833333333333334,0.5681818181818181,0.3593608666625287,-2.988594600785441e-05,-0.13331706709804367,0.0001334888754165207,1.2569798633566691,-0.00048427342769343396,-1.360643242693483,-0.00036373682844705827,-1.1036142886202074,,,,,1.4285714285714286,0.75,0.6,0.25,2.7777777777777777,3.375,2.4444444444444446,3.0,2.75,3.6666666666666665,2.0,2.0,2.0,1.0,,,,,,,,,,,,
16,240708_093200,LEARNING,1.0,17,1.0,1068.0,,,,,,,,,,17.0,17.0,17.0,cue2.png,Easy,B,,,,,,,,,,,,,,,,,,,,,,,,,,,36,28,Female,1.0,1.0,0.501704363618046,-2.5669414613260257e-05,-0.10426433414060575,-1.2717735198288296e-05,-0.3195368766525728,6.60113636876021e-06,0.10255814543467887,0.0002363404288938803,0.5816092369475755,,,,,1.4285714285714286,0.75,0.6,0.25,2.7777777777777777,3.375,2.4444444444444446,3.0,2.75,3.6666666666666665,2.0,2.0,2.0,1.0,,,,,,,,,,,,
17,240708_093222,LEARNING,1.0,18,3.0,1068.0,,,,,,,,,,18.0,18.0,18.0,cue1.png,Hard,B,,,,,,,,,,,,,,,,,,,,,,,,,,,36,28,Female,0.84375,0.875,0.506525554524904,7.28008697394567e-05,0.5742153468621782,,,0.00026065771696747765,0.8598512883485543,,,,,,,1.4285714285714286,0.75,0.6,0.25,2.7777777777777777,3.375,2.4444444444444446,3.0,2.75,3.6666666666666665,2.0,2.0,2.0,1.0,,,,,,,,,,,,
18,240708_093245,LEARNING,1.0,19,3.0,1068.0,,,,,,,,,,19.0,19.0,19.0,cue1.png,Hard,B,,,,,,,,,,,,,,,,,,,,,,,,,,,36,28,Female,0.5833333333333334,0.75,0.5263176726346667,-6.459487677745257e-05,-0.3724684459257104,3.8972505471475405e-05,0.23782868546746846,0.0006651130796112665,2.0654538829480362,0.00046745828457283624,1.2306677420054786,,,,,1.4285714285714286,0.75,0.6,0.25,2.7777777777777777,3.375,2.4444444444444446,3.0,2.75,3.6666666666666665,2.0,2.0,2.0,1.0,,,,,,,,,,,,
19,240708_093307,LEARNING,1.0,20,3.0,1068.0,,,,,,,,,,20.0,20.0,20.0,cue1.png,Hard,B,,,,,,,,,,,,,,,,,,,,,,,,,,,36,28,Female,0.5833333333333334,0.75,0.4972985727204518,,,4.484954675257379e-05,0.3011996501756709,0.0002476789075097187,0.8211639873450384,2.9167111452494017e-05,-0.00020476141861092018,1.097,-0.9029947332237388,1.577,0.41407583746960813,1.4285714285714286,0.75,0.6,0.25,2.7777777777777777,3.375,2.4444444444444446,3.0,2.75,3.6666666666666665,2.0,2.0,2.0,1.0,,,,,,,,,,,,
20,240708_093329,LEARNING,1.0,21,1.0,1068.0,,,,,,,,,,21.0,21.0,21.0,cue2.png,Easy,B,,,,,,,,,,,,,,,,,,,,,,,,,,,36,28,Female,1.0,1.0,0.4700217818502675,0.0003654395906271912,2.59055385245414,1.5376721341409886e-05,-0.01659995163907333,,,,,0.8659999999999999,-1.38164912800606,2.002,1.302742977145211,1.4285714285714286,0.75,0.6,0.25,2.7777777777777777,3.375,2.4444444444444446,3.0,2.75,3.6666666666666665,2.0,2.0,2.0,1.0,,,,,,,,,,,,
21,240708_093351,LEARNING,1.0,22,3.0,1068.0,,,,,,,,,,22.0,22.0,22.0,cue1.png,Hard,B,,,,,,,,,,,,,,,,,,,,,,,,,,,36,28,Female,0.84375,0.875,0.4449889272112738,,,0.00010965235350136751,0.9999553986979564,-0.0003394840182606596,-0.9290542373168469,0.00012396939170454275,0.2660326788506042,,,0.994,-0.8049663800148076,1.4285714285714286,0.75,0.6,0.25,2.7777777777777777,3.375,2.4444444444444446,3.0,2.75,3.6666666666666665,2.0,2.0,2.0,1.0,,,,,,,,,,,,
22,240708_093412,LEARNING,1.0,23,3.0,1068.0,,,,,,,,,,23.0,23.0,23.0,cue1.png,Hard,B,,,,,,,,,,,,,,,,,,,,,,,,,,,36,28,Female,1.0,1.0,0.4168760181743313,-3.185376095032151e-05,-0.1468757001741423,6.715459719604244e-05,0.5417105632117547,6.81029918589756e-05,0.2858831879486744,-0.0002239699661711744,-0.7111008221945189,1.754,0.4583729610272785,1.5829999999999997,0.4266217265003221,1.4285714285714286,0.75,0.6,0.25,2.7777777777777777,3.375,2.4444444444444446,3.0,2.75,3.6666666666666665,2.0,2.0,2.0,1.0,,,,,,,,,,,,
23,240708_093435,LEARNING,1.0,24,3.0,1068.0,,,,,,,,,,24.0,24.0,24.0,cue1.png,Hard,B,,,,,,,,,,,,,,,,,,,,,,,,,,,36,28,Female,0.84375,0.875,0.510533354583789,2.0172791038103235e-05,0.21159750449683837,0.00032690208841291285,3.342515987513976,-0.00020927920238413,-0.5409390623220158,0.0007094953371176759,1.9103911109847924,1.7400000000000002,0.4293636037677443,0.75,-1.3151658672638598,1.4285714285714286,0.75,0.6,0.25,2.7777777777777777,3.375,2.4444444444444446,3.0,2.75,3.6666666666666665,2.0,2.0,2.0,1.0,,,,,,,,,,,,
24,240708_093456,LEARNING,1.0,25,1.0,1068.0,,,,,,,,,,25.0,25.0,25.0,cue2.png,Easy,B,,,,,,,,,,,,,,,,,,,,,,,,,,,36,28,Female,1.0,1.0,0.4575745363465764,-6.734911945420778e-05,-0.39144572120233617,2.4571997144942712e-05,0.08255087452612271,0.00018814157294092838,0.6436947987490955,-0.0005651525190834812,-1.6692588887556405,1.4169999999999998,-0.23992371014866223,1.117,-0.5477756548851624,1.4285714285714286,0.75,0.6,0.25,2.7777777777777777,3.375,2.4444444444444446,3.0,2.75,3.6666666666666665,2.0,2.0,2.0,1.0,,,,,,,,,,,,
25,240708_093519,LEARNING,1.0,26,1.0,1068.0,,,,,,,,,,26.0,26.0,26.0,cue2.png,Easy,B,,,,,,,,,,,,,,,,,,,,,,,,,,,36,28,Female,0.84375,0.875,0.4910414635457776,4.4093363578152217e-07,0.07564111517673107,-8.823670879416377e-05,-1.1338429163150132,-0.00018685177673175794,-0.47408727828348873,,,0.9849999999999999,-1.135069591300016,1.2079999999999997,-0.3574963379193279,1.4285714285714286,0.75,0.6,0.25,2.7777777777777777,3.375,2.4444444444444446,3.0,2.75,3.6666666666666665,2.0,2.0,2.0,1.0,,,,,,,,,,,,
26,240708_093542,LEARNING,1.0,27,3.0,1068.0,,,,,,,,,,27.0,27.0,27.0,cue1.png,Hard,B,,,,,,,,,,,,,,,,,,,,,,,,,,,36,28,Female,0.84375,0.875,0.5565210727297447,,,5.9857110288837057e-05,0.4630232164438496,,,-0.000306754224968871,-0.9435875208085714,1.4020000000000001,-0.2710051643553058,2.294,1.913309576639979,1.4285714285714286,0.75,0.6,0.25,2.7777777777777777,3.375,2.4444444444444446,3.0,2.75,3.6666666666666665,2.0,2.0,2.0,1.0,,,,,,,,,,,,
27,240708_093604,LEARNING,1.0,28,1.0,1068.0,,,,,,,,,,28.0,28.0,28.0,cue2.png,Easy,B,,,,,,,,,,,,,,,,,,,,,,,,,,,36,28,Female,0.84375,0.875,0.4931040090424093,-9.342059808110622e-05,-0.5710833511566452,2.0535453888865206e-05,0.039025633169265515,6.978044754605423e-05,0.29088335636144624,0.00031666970925562504,0.8072015109447706,1.1119999999999999,-0.8719132790170947,0.937,-0.9241523258065943,1.4285714285714286,0.75,0.6,0.25,2.7777777777777777,3.375,2.4444444444444446,3.0,2.75,3.6666666666666665,2.0,2.0,2.0,1.0,,,,,,,,,,,,
28,240708_093626,LEARNING,1.0,29,1.0,1068.0,,,,,,,,,,29.0,29.0,29.0,cue2.png,Easy,B,,,,,,,,,,,,,,,,,,,,,,,,,,,36,28,Female,1.0,1.0,0.4603456454774873,6.11363822375895e-05,0.4938447273260373,-0.00010490965778259991,-1.3136240019653727,-6.674215323827087e-05,-0.1160639039027495,-0.0007981003846285334,-2.323456691530028,1.6469999999999998,0.2366585876865492,1.175,-0.42649872758825647,1.4285714285714286,0.75,0.6,0.25,2.7777777777777777,3.375,2.4444444444444446,3.0,2.75,3.6666666666666665,2.0,2.0,2.0,1.0,,,,,,,,,,,,
29,240708_093648,LEARNING,1.0,30,3.0,1068.0,,,,,,,,,,30.0,30.0,30.0,cue1.png,Hard,B,,,,,,,,,,,,,,,,,,,,,,,,,,,36,28,Female,0.84375,0.875,0.4891690727407959,6.159448697256372e-05,0.4970011593044182,-0.00013938916847271816,-1.6854096931986338,-2.5347175477444424e-05,0.0073264555812295505,1.0983601657024548e-05,-0.05127031691142167,2.485,1.9730758293644068,1.098,-0.5875043034824246,1.4285714285714286,0.75,0.6,0.25,2.7777777777777777,3.375,2.4444444444444446,3.0,2.75,3.6666666666666665,2.0,2.0,2.0,1.0,,,,,,,,,,,,
30,240708_093710,LEARNING,1.0,31,3.0,1068.0,,,,,,,,,,31.0,31.0,31.0,cue1.png,Hard,B,,,,,,,,,,,,,,,,,,,,,,,,,,,36,28,Female,0.84375,0.875,0.4845106362534517,-3.420555089209869e-05,-0.16307999672889797,-5.5357462808259834e-05,-0.7793125604187183,0.0002776828147543469,0.9105997861085819,0.00020535593592043225,0.49459411373157014,,,,,1.4285714285714286,0.75,0.6,0.25,2.7777777777777777,3.375,2.4444444444444446,3.0,2.75,3.6666666666666665,2.0,2.0,2.0,1.0,,,,,,,,,,,,
31,240708_093732,LEARNING,1.0,32,1.0,1068.0,,,,,,,,,,32.0,32.0,32.0,cue2.png,Easy,B,,,,,,,,,,,,,,,,,,,,,,,,,,,36,28,Female,0.15625,0.625,0.5030274000018835,3.5932330171060435e-05,0.3201838374597803,,,-0.00018516028608853933,-0.4690452744023309,2.0805776367821202e-05,-0.023686268870309207,1.21,-0.6688477782003522,0.7229999999999999,-1.371622367902075,1.4285714285714286,0.75,0.6,0.25,2.7777777777777777,3.375,2.4444444444444446,3.0,2.75,3.6666666666666665,2.0,2.0,2.0,1.0,,,,,,,,,,,,
32,240708_093754,LEARNING,1.0,33,1.0,1068.0,,,,,,,,,,33.0,33.0,33.0,cue2.png,Easy,B,,,,,,,,,,,,,,,,,,,,,,,,,,,36,28,Female,1.0,1.0,0.4729059908793054,-8.200267598897429e-05,-0.4924116159249741,-5.5590383888971286e-06,-0.24234607584542509,0.00022529036575781678,0.7544281086340818,-0.00039200462084942704,-1.1829999813615546,,,1.2489999999999999,-0.27176609620944586,1.4285714285714286,0.75,0.6,0.25,2.7777777777777777,3.375,2.4444444444444446,3.0,2.75,3.6666666666666665,2.0,2.0,2.0,1.0,,,,,,,,,,,,
33,240708_093818,LEARNING,1.0,34,1.0,1068.0,,,,,,,,,,34.0,34.0,34.0,cue2.png,Easy,B,,,,,,,,,,,,,,,,,,,,,,,,,,,36,28,Female,0.9166666666666666,0.9090909090909092,0.5118146700318903,-4.1522711605526674e-05,-0.2134966772465443,0.0002050382925568705,2.0284829669806337,0.00022074610396181134,0.7408825500439031,0.0004491099838191785,1.1791393967699433,1.713,0.3734169861957844,2.107,1.522296035182714,1.4285714285714286,0.75,0.6,0.25,2.7777777777777777,3.375,2.4444444444444446,3.0,2.75,3.6666666666666665,2.0,2.0,2.0,1.0,,,,,,,,,,,,
34,240708_093840,LEARNING,1.0,35,3.0,1068.0,,,,,,,,,,35.0,35.0,35.0,cue1.png,Hard,B,,,,,,,,,,,,,,,,,,,,,,,,,,,36,28,Female,0.84375,0.875,0.5037865818647499,6.45140024910255e-05,0.5171171970580349,0.00012160813698776146,1.1288722289764703,0.0001295740485675618,0.4691164252983127,5.3511073708810766e-05,0.06816146542636092,1.355,-0.36839372086945804,1.6249999999999998,0.514442949715323,1.4285714285714286,0.75,0.6,0.25,2.7777777777777777,3.375,2.4444444444444446,3.0,2.75,3.6666666666666665,2.0,2.0,2.0,1.0,,,,,,,,,,,,
35,240708_093903,LEARNING,1.0,36,3.0,1068.0,,,,,,,,,,36.0,36.0,36.0,cue1.png,Hard,B,,,,,,,,,,,,,,,,,,,,,,,,,,,36,28,Female,0.84375,0.875,0.4868852272629738,0.00016800054812341836,1.2301599076614054,-0.00012071461239559827,-1.484045677276095,,,0.00016983859604411278,0.39484919590150913,0.7369999999999999,-1.6489496341832004,1.483,0.21752357598841615,1.4285714285714286,0.75,0.6,0.25,2.7777777777777777,3.375,2.4444444444444446,3.0,2.75,3.6666666666666665,2.0,2.0,2.0,1.0,,,,,,,,,,,,
36,240708_093924,LEARNING,1.0,37,1.0,1068.0,,,,,,,,,,37.0,37.0,37.0,cue2.png,Easy,B,,,,,,,,,,,,,,,,,,,,,,,,,,,36,28,Female,1.0,1.0,0.4306292908943512,,,2.8306575523495692e-05,0.12282008879699233,,,0.0006132528318234165,1.6401090229747175,1.525,-0.016137239860823598,1.731,0.7360869892579447,1.4285714285714286,0.75,0.6,0.25,2.7777777777777777,3.375,2.4444444444444446,3.0,2.75,3.6666666666666665,2.0,2.0,2.0,1.0,,,,,,,,,,,,
37,240708_093946,LEARNING,1.0,38,3.0,1068.0,,,,,,,,,,38.0,38.0,38.0,cue1.png,Hard,B,,,,,,,,,,,,,,,,,,,,,,,,,,,36,28,Female,0.84375,0.875,0.4833098544569855,1.058879001998754e-05,0.145561847179047,,,-0.0006701630644103031,-1.9147440138393694,,,2.2560000000000002,1.4985656284763058,1.8920000000000001,1.0727350115821144,1.4285714285714286,0.75,0.6,0.25,2.7777777777777777,3.375,2.4444444444444446,3.0,2.75,3.6666666666666665,2.0,2.0,2.0,1.0,,,,,,,,,,,,
38,240708_094008,LEARNING,1.0,39,3.0,1068.0,,,,,,,,,,39.0,39.0,39.0,cue1.png,Hard,B,,,,,,,,,,,,,,,,,,,,,,,,,,,36,28,Female,0.5833333333333334,0.75,0.4912798545238646,-7.827369261759632e-05,-0.46671818500915896,,,-0.00013161837901972794,-0.30944728648094455,2.578224141530118e-05,-0.009710641782988643,0.8350000000000002,-1.4458841333664574,1.9019999999999997,1.0936448266333043,1.4285714285714286,0.75,0.6,0.25,2.7777777777777777,3.375,2.4444444444444446,3.0,2.75,3.6666666666666665,2.0,2.0,2.0,1.0,,,,,,,,,,,,
39,240708_094030,LEARNING,1.0,40,3.0,1068.0,,,,,,,,,,40.0,40.0,40.0,cue1.png,Hard,B,,,,,,,,,,,,,,,,,,,,,,,,,,,36,28,Female,0.84375,0.875,0.424070127223703,-0.0005370896055957317,-3.628050320106392,6.881815274712919e-05,0.559648351135264,0.00018244656933743327,0.6267191031476157,0.00047354323645979867,1.247756381753795,1.7329999999999999,0.4148589251379763,1.7360000000000002,0.7465418967835402,1.4285714285714286,0.75,0.6,0.25,2.7777777777777777,3.375,2.4444444444444446,3.0,2.75,3.6666666666666665,2.0,2.0,2.0,1.0,,,,,,,,,,,,
40,240708_094052,LEARNING,1.0,41,1.0,1068.0,,,,,,,,,,41.0,41.0,41.0,cue2.png,Easy,B,,,,,,,,,,,,,,,,,,,,,,,,,,,36,28,Female,1.0,1.0,0.4751647181216288,0.00012719939370102072,0.9490319062646078,,,-0.00018624175122884494,-0.47226891117302106,,,2.4530000000000003,1.9067687270569,1.132,-0.5164109323083766,1.4285714285714286,0.75,0.6,0.25,2.7777777777777777,3.375,2.4444444444444446,3.0,2.75,3.6666666666666665,2.0,2.0,2.0,1.0,,,,,,,,,,,,
41,240708_094114,LEARNING,1.0,42,3.0,1068.0,,,,,,,,,,42.0,42.0,42.0,cue1.png,Hard,B,,,,,,,,,,,,,,,,,,,,,,,,,,,36,28,Female,0.84375,0.875,0.4840796364217319,1.246403557812921e-06,0.08119096180660039,,,-0.00014337955058799697,-0.34450504629292844,,,,,,,1.4285714285714286,0.75,0.6,0.25,2.7777777777777777,3.375,2.4444444444444446,3.0,2.75,3.6666666666666665,2.0,2.0,2.0,1.0,,,,,,,,,,,,
42,240708_094137,LEARNING,1.0,43,3.0,1068.0,,,,,,,,,,43.0,43.0,43.0,cue1.png,Hard,B,,,,,,,,,,,,,,,,,,,,,,,,,,,36,28,Female,0.84375,0.875,0.5486761817962609,-0.00020369976631894916,-1.3309285712562817,,,-0.00028424119692812373,-0.7643861555385433,0.0008054992147610053,2.180003050399368,2.276,1.5400075674184972,,,1.4285714285714286,0.75,0.6,0.25,2.7777777777777777,3.375,2.4444444444444446,3.0,2.75,3.6666666666666665,2.0,2.0,2.0,1.0,,,,,,,,,,,,
43,240708_094159,LEARNING,1.0,44,1.0,1068.0,,,,,,,,,,44.0,44.0,44.0,cue2.png,Easy,B,,,,,,,,,,,,,,,,,,,,,,,,,,,36,28,Female,0.84375,0.875,0.489363454493948,8.941171980374977e-05,0.6886673800505608,-5.465622073461346e-05,-0.7717512069118316,-0.0002162583841933347,-0.5617426428268172,0.00027110760619985987,0.679247440023708,1.66,0.26359584799897445,1.8210000000000002,0.9242753247186608,1.4285714285714286,0.75,0.6,0.25,2.7777777777777777,3.375,2.4444444444444446,3.0,2.75,3.6666666666666665,2.0,2.0,2.0,1.0,,,,,,,,,,,,
44,240708_094221,LEARNING,1.0,45,1.0,1068.0,,,,,,,,,,45.0,45.0,45.0,cue2.png,Easy,B,,,,,,,,,,,,,,,,,,,,,,,,,,,36,28,Female,0.84375,0.875,0.4843659182502465,,,,,-0.0012303422841906412,-3.5845290709426547,-0.0004889913079207178,-1.4553719879989564,1.651,0.24494697547498814,1.547,0.3513463923160361,1.4285714285714286,0.75,0.6,0.25,2.7777777777777777,3.375,2.4444444444444446,3.0,2.75,3.6666666666666665,2.0,2.0,2.0,1.0,,,,,,,,,,,,
45,240708_094243,LEARNING,1.0,46,1.0,1068.0,,,,,,,,,,46.0,46.0,46.0,cue2.png,Easy,B,,,,,,,,,,,,,,,,,,,,,,,,,,,36,28,Female,1.0,1.0,0.4433545273813334,-5.950822638218188e-06,0.03160065376913475,8.849401083083422e-06,-0.08698274494356993,-4.5878872246550226e-05,-0.05387453019520143,-0.0002461549201811016,-0.7734038106077711,0.8389999999999999,-1.4375957455780197,0.7370000000000001,-1.3423486268304075,1.4285714285714286,0.75,0.6,0.25,2.7777777777777777,3.375,2.4444444444444446,3.0,2.75,3.6666666666666665,2.0,2.0,2.0,1.0,,,,,,,,,,,,
46,240708_094304,LEARNING,1.0,47,3.0,1068.0,,,,,,,,,,47.0,47.0,47.0,cue1.png,Hard,B,,,,,,,,,,,,,,,,,,,,,,,,,,,36,28,Female,0.84375,0.875,0.4358511273325844,,,2.2702373742171638e-05,0.0623910980318368,0.0001260863483858385,0.45872027092225137,-0.00017164133564143494,-0.564144012632649,2.0149999999999997,0.9991902642228874,0.7750000000000001,-1.262891329635883,1.4285714285714286,0.75,0.6,0.25,2.7777777777777777,3.375,2.4444444444444446,3.0,2.75,3.6666666666666665,2.0,2.0,2.0,1.0,,,,,,,,,,,,
47,240708_094326,LEARNING,1.0,48,3.0,1068.0,,,,,,,,,,48.0,48.0,48.0,cue1.png,Hard,B,,,,,,,,,,,,,,,,,,,,,,,,,,,36,28,Female,0.84375,0.875,0.4483657182109626,,,0.00019498125369340038,1.9200399215088018,0.00043037008623366714,1.3657307786970192,-0.0004114950263753433,-1.237735749986875,2.285,1.5586564399424845,1.7960000000000003,0.8720007870906844,1.4285714285714286,0.75,0.6,0.25,2.7777777777777777,3.375,2.4444444444444446,3.0,2.75,3.6666666666666665,2.0,2.0,2.0,1.0,,,,,,,,,,,,
48,240708_094348,LEARNING,1.0,49,1.0,1068.0,,,,,,,,,,49.0,49.0,49.0,cue2.png,Easy,B,,,,,,,,,,,,,,,,,,,,,,,,,,,36,28,Female,1.0,1.0,0.424774309112267,,,,,-0.00015958527020763086,-0.392811137459754,5.071874355414181e-06,-0.06787248238851593,,,,,1.4285714285714286,0.75,0.6,0.25,2.7777777777777777,3.375,2.4444444444444446,3.0,2.75,3.6666666666666665,2.0,2.0,2.0,1.0,,,,,,,,,,,,
49,240708_094410,LEARNING,1.0,50,1.0,1068.0,,,,,,,,,,50.0,50.0,50.0,cue2.png,Easy,B,,,,,,,,,,,,,,,,,,,,,,,,,,,36,28,Female,1.0,1.0,0.4729541635394774,2.7047967145709968e-05,0.25896882390542575,-8.344874508494369e-05,-1.0822152579868358,0.00010622759973369367,0.399525212303111,-0.00011936337993097724,-0.4173295154090037,1.549,0.033593086869807214,,,1.4285714285714286,0.75,0.6,0.25,2.7777777777777777,3.375,2.4444444444444446,3.0,2.75,3.6666666666666665,2.0,2.0,2.0,1.0,,,,,,,,,,,,
0,240708_094535,TrueCHOICE,9.0,1,1.0,1068.0,,,,,,,,,,,1.0,1.0,,,B,,,,,,True,cue2.png,Easy,cue1.png,Hard,Left,Easy,Easy,0.0161332003772258,,,,,,,,,,,,,36,28,Female,0.84375,0.875,0.4298995454287664,,,,,,,,,,,,,1.4285714285714286,0.75,0.6,0.25,2.7777777777777777,3.375,2.4444444444444446,3.0,2.75,3.6666666666666665,2.0,2.0,2.0,1.0,-1.311738856687051e-05,-0.5461082527079284,-0.0001234164412679548,0.5728152543114801,1.4559999999999997,0.6435911736286932,,,,,,
1,240708_094555,TrueCHOICE,9.0,2,1.0,1068.0,,,,,,,,,,,2.0,2.0,,,B,,,,,,True,cue2.png,Easy,cue1.png,Hard,Left,Easy,Easy,0.0162354996427893,,,,,,,,,,,,,36,28,Female,,,,,,,,,,,,,,,,1.4285714285714286,0.75,0.6,0.25,2.7777777777777777,3.375,2.4444444444444446,3.0,2.75,3.6666666666666665,2.0,2.0,2.0,1.0,-2.303031365658882e-05,-0.6968291265648987,-0.0001303287997028472,0.5499028318644349,1.465,0.6795683199806092,,,,,,
2,240708_094615,TrueCHOICE,9.0,3,1.0,1068.0,,,,,,,,,,,3.0,3.0,,,B,,,,,,True,cue1.png,Hard,cue2.png,Easy,Right,Easy,Easy,0.0164008000865578,,,,,,,,,,,,,36,28,Female,0.84375,0.875,0.4444097636944868,,,,,,,,,,,,,1.4285714285714286,0.75,0.6,0.25,2.7777777777777777,3.375,2.4444444444444446,3.0,2.75,3.6666666666666665,2.0,2.0,2.0,1.0,,,-1.810933654024672e-05,0.921877140051787,1.1019999999999999,-0.7715099162132794,,,,,,
3,240708_094636,TrueCHOICE,9.0,4,1.0,1068.0,,,,,,,,,,,4.0,4.0,,,B,,,,,,True,cue2.png,Easy,cue1.png,Hard,Left,Easy,Easy,0.016115800011903,,,,,,,,,,,,,36,28,Female,1.0,1.0,0.4805979272350669,,,,,,,,,,,,,1.4285714285714286,0.75,0.6,0.25,2.7777777777777777,3.375,2.4444444444444446,3.0,2.75,3.6666666666666665,2.0,2.0,2.0,1.0,5.276966212043339e-05,0.45567010893316917,,,1.3960000000000001,0.40374353128259766,,,,,,
4,240708_094656,TrueCHOICE,9.0,5,1.0,1068.0,,,,,,,,,,,5.0,5.0,,,B,,,,,,True,cue1.png,Hard,cue2.png,Easy,Right,Easy,Easy,0.0168277998454868,,,,,,,,,,,,,36,28,Female,0.84375,0.875,0.4077320544641803,,,,,,,,,,,,,1.4285714285714286,0.75,0.6,0.25,2.7777777777777777,3.375,2.4444444444444446,3.0,2.75,3.6666666666666665,2.0,2.0,2.0,1.0,9.507303763357745e-05,1.098870946903167,-0.0003875359029452338,-0.30266259300158893,1.5770000000000002,1.1272839190266577,,,,,,
5,240708_094716,TrueCHOICE,9.0,6,1.0,1068.0,,,,,,,,,,,6.0,6.0,,,B,,,,,,True,cue1.png,Hard,cue2.png,Easy,Right,Easy,Easy,0.0160823999904096,,,,,,,,,,,,,36,28,Female,1.0,1.0,0.468556936322288,,,,,,,,,,,,,1.4285714285714286,0.75,0.6,0.25,2.7777777777777777,3.375,2.4444444444444446,3.0,2.75,3.6666666666666665,2.0,2.0,2.0,1.0,6.847869752177197e-05,0.6945178276146703,,,,,,,,,,
6,240708_094735,TrueCHOICE,9.0,7,1.0,1068.0,,,,,,,,,,,7.0,7.0,,,B,,,,,,True,cue2.png,Easy,cue1.png,Hard,Left,Easy,Easy,0.015591699630022,,,,,,,,,,,,,36,28,Female,,,,,,,,,,,,,,,,1.4285714285714286,0.75,0.6,0.25,2.7777777777777777,3.375,2.4444444444444446,3.0,2.75,3.6666666666666665,2.0,2.0,2.0,1.0,0.00011295745605920332,1.3707942338379047,-0.00019502734561008261,0.3354463002046747,,,,,,,,
7,240708_094755,TrueCHOICE,9.0,8,3.0,1068.0,,,,,,,,,,,8.0,8.0,,,B,,,,,,True,cue1.png,Hard,cue2.png,Easy,Left,Hard,Hard,0.0164369996637105,,,,,,,,,,,,,36,28,Female,0.5833333333333334,0.75,0.4314636090685698,,,,,,,,,,,,,1.4285714285714286,0.75,0.6,0.25,2.7777777777777777,3.375,2.4444444444444446,3.0,2.75,3.6666666666666665,2.0,2.0,2.0,1.0,-1.8901025130948525e-05,-0.6340454406841702,-0.0009229430818962865,-2.0773789334307877,0.7890000000000001,-2.022715117118752,,,,,,
8,240708_094815,TrueCHOICE,9.0,9,1.0,1068.0,,,,,,,,,,,9.0,9.0,,,B,,,,,,True,cue2.png,Easy,cue1.png,Hard,Left,Easy,Easy,0.016151400282979,,,,,,,,,,,,,36,28,Female,0.84375,0.875,0.4710489182563668,,,,,,,,,,,,,1.4285714285714286,0.75,0.6,0.25,2.7777777777777777,3.375,2.4444444444444446,3.0,2.75,3.6666666666666665,2.0,2.0,2.0,1.0,-9.182853318134322e-05,-1.7428702973319137,,,1.28,-0.0599619105865239,,,,,,
9,240708_094836,TrueCHOICE,9.0,10,1.0,1068.0,,,,,,,,,,,10.0,10.0,,,B,,,,,,True,cue1.png,Hard,cue2.png,Easy,Right,Easy,Easy,0.0165290003642439,,,,,,,,,,,,,36,28,Female,1.0,1.0,0.4449257634749466,,,,,,,,,,,,,1.4285714285714286,0.75,0.6,0.25,2.7777777777777777,3.375,2.4444444444444446,3.0,2.75,3.6666666666666665,2.0,2.0,2.0,1.0,,,,,,,,,,,,
0,240708_094958,FalseCHOICE,9.0,1,2.0,1068.0,,,,,,,,,,,1.0,1.0,,,B,,,,,,False,cue2.png,Easy,cue1.png,Hard,Left,Easy,Mid,0.0161370001733303,,,,,,,,,,,,,36,28,Female,1.0,1.0,0.4279221999882297,,,,,,,,,,,,,1.4285714285714286,0.75,0.6,0.25,2.7777777777777777,3.375,2.4444444444444446,3.0,2.75,3.6666666666666665,2.0,2.0,2.0,1.0,-1.311738856687051e-05,-0.5461082527079284,-0.0001234164412679548,0.5728152543114801,1.4559999999999997,0.6435911736286932,,,,,,
1,240708_095018,FalseCHOICE,9.0,2,2.0,1068.0,,,,,,,,,,,2.0,2.0,,,B,,,,,,False,cue1.png,Hard,cue2.png,Easy,Left,Hard,Mid,0.0165405999869108,,,,,,,,,,,,,36,28,Female,,,,,,,,,,,,,,,,1.4285714285714286,0.75,0.6,0.25,2.7777777777777777,3.375,2.4444444444444446,3.0,2.75,3.6666666666666665,2.0,2.0,2.0,1.0,-2.303031365658882e-05,-0.6968291265648987,-0.0001303287997028472,0.5499028318644349,1.465,0.6795683199806092,,,,,,
2,240708_095039,FalseCHOICE,9.0,3,2.0,1068.0,,,,,,,,,,,3.0,3.0,,,B,,,,,,False,cue1.png,Hard,cue2.png,Easy,Right,Easy,Mid,0.0165123003534972,,,,,,,,,,,,,36,28,Female,,,,,,,,,,,,,,,,1.4285714285714286,0.75,0.6,0.25,2.7777777777777777,3.375,2.4444444444444446,3.0,2.75,3.6666666666666665,2.0,2.0,2.0,1.0,,,-1.810933654024672e-05,0.921877140051787,1.1019999999999999,-0.7715099162132794,,,,,,
3,240708_095101,FalseCHOICE,9.0,4,2.0,1068.0,,,,,,,,,,,4.0,4.0,,,B,,,,,,False,cue1.png,Hard,cue2.png,Easy,Left,Hard,Mid,0.0160499000921845,,,,,,,,,,,,,36,28,Female,0.84375,0.875,0.5515466182154011,,,,,,,,,,,,,1.4285714285714286,0.75,0.6,0.25,2.7777777777777777,3.375,2.4444444444444446,3.0,2.75,3.6666666666666665,2.0,2.0,2.0,1.0,5.276966212043339e-05,0.45567010893316917,,,1.3960000000000001,0.40374353128259766,,,,,,
4,240708_095120,FalseCHOICE,9.0,5,2.0,1068.0,,,,,,,,,,,5.0,5.0,,,B,,,,,,False,cue2.png,Easy,cue1.png,Hard,Left,Easy,Mid,0.0163600002415478,,,,,,,,,,,,,36,28,Female,,,,,,,,,,,,,,,,1.4285714285714286,0.75,0.6,0.25,2.7777777777777777,3.375,2.4444444444444446,3.0,2.75,3.6666666666666665,2.0,2.0,2.0,1.0,9.507303763357745e-05,1.098870946903167,-0.0003875359029452338,-0.30266259300158893,1.5770000000000002,1.1272839190266577,,,,,,
5,240708_095142,FalseCHOICE,9.0,6,2.0,1068.0,,,,,,,,,,,6.0,6.0,,,B,,,,,,False,cue1.png,Hard,cue2.png,Easy,Right,Easy,Mid,0.0165291000157594,,,,,,,,,,,,,36,28,Female,0.84375,0.875,0.5679234818301417,,,,,,,,,,,,,1.4285714285714286,0.75,0.6,0.25,2.7777777777777777,3.375,2.4444444444444446,3.0,2.75,3.6666666666666665,2.0,2.0,2.0,1.0,6.847869752177197e-05,0.6945178276146703,,,,,,,,,,
6,240708_095202,FalseCHOICE,9.0,7,2.0,1068.0,,,,,,,,,,,7.0,7.0,,,B,,,,,,False,cue1.png,Hard,cue2.png,Easy,Right,Easy,Mid,0.0169509002007544,,,,,,,,,,,,,36,28,Female,1.0,1.0,0.4781791635958308,,,,,,,,,,,,,1.4285714285714286,0.75,0.6,0.25,2.7777777777777777,3.375,2.4444444444444446,3.0,2.75,3.6666666666666665,2.0,2.0,2.0,1.0,0.00011295745605920332,1.3707942338379047,-0.00019502734561008261,0.3354463002046747,,,,,,,,
7,240708_095225,FalseCHOICE,9.0,8,2.0,1068.0,,,,,,,,,,,8.0,8.0,,,B,,,,,,False,cue2.png,Easy,cue1.png,Hard,Right,Hard,Mid,0.0164679996669292,,,,,,,,,,,,,36,28,Female,,,,,,,,,,,,,,,,1.4285714285714286,0.75,0.6,0.25,2.7777777777777777,3.375,2.4444444444444446,3.0,2.75,3.6666666666666665,2.0,2.0,2.0,1.0,-1.8901025130948525e-05,-0.6340454406841702,-0.0009229430818962865,-2.0773789334307877,0.7890000000000001,-2.022715117118752,,,,,,
8,240708_095244,FalseCHOICE,9.0,9,2.0,1068.0,,,,,,,,,,,9.0,9.0,,,B,,,,,,False,cue2.png,Easy,cue1.png,Hard,Left,Easy,Mid,0.0158787001855671,,,,,,,,,,,,,36,28,Female,0.5833333333333334,0.6590909090909091,0.521057440014556,,,,,,,,,,,,,1.4285714285714286,0.75,0.6,0.25,2.7777777777777777,3.375,2.4444444444444446,3.0,2.75,3.6666666666666665,2.0,2.0,2.0,1.0,-9.182853318134322e-05,-1.7428702973319137,,,1.28,-0.0599619105865239,,,,,,
9,240708_095304,FalseCHOICE,9.0,10,2.0,1068.0,,,,,,,,,,,10.0,10.0,,,B,,,,,,False,cue1.png,Hard,cue2.png,Easy,Left,Hard,Mid,0.0160258999094367,,,,,,,,,,,,,36,28,Female,,,,,,,,,,,,,,,,1.4285714285714286,0.75,0.6,0.25,2.7777777777777777,3.375,2.4444444444444446,3.0,2.75,3.6666666666666665,2.0,2.0,2.0,1.0,,,,,,,,,,,,
0,240708_092523,OFFLINERATING,9.0,1,1.0,,,,,,,,,,,,,,,,,T0,cue2.png,Easy,33.0,2.4308817996643484,,,,,,,,,,,,,,,,,,,,,,36,28,Female,,,,,,,,,,,,,,,,1.4285714285714286,0.75,0.6,0.25,2.7777777777777777,3.375,2.4444444444444446,3.0,2.75,3.6666666666666665,2.0,2.0,2.0,1.0,,,,,,,-3.778927299947837e-05,-1.0020923453175279,,,,
1,240708_092531,OFFLINERATING,9.0,2,3.0,,,,,,,,,,,,,,,,,T0,cue1.png,Hard,34.0,2.269092000089586,,,,,,,,,,,,,,,,,,,,,,36,28,Female,,,,,,,,,,,,,,,,1.4285714285714286,0.75,0.6,0.25,2.7777777777777777,3.375,2.4444444444444446,3.0,2.75,3.6666666666666665,2.0,2.0,2.0,1.0,,,,,,,0.0001037449064811625,1.4392205907565176,,,,
2,240708_094439,OFFLINERATING,9.0,3,1.0,,,,,,,,,,,,,,,,,T1,cue2.png,Easy,36.0,1.101746799889952,,,,,,,,,,,,,,,,,,,,,,36,28,Female,,,,,,,,,,,,,,,,1.4285714285714286,0.75,0.6,0.25,2.7777777777777777,3.375,2.4444444444444446,3.0,2.75,3.6666666666666665,2.0,2.0,2.0,1.0,,,,,,,-2.9687628230815923e-05,-0.8623476543192833,0.000146153135280859,1.1563768541256998,1.0399999999999998,0.26946159083881177
3,240708_094447,OFFLINERATING,9.0,4,3.0,,,,,,,,,,,,,,,,,T1,cue1.png,Hard,36.0,1.768854399677366,,,,,,,,,,,,,,,,,,,,,,36,28,Female,,,,,,,,,,,,,,,,1.4285714285714286,0.75,0.6,0.25,2.7777777777777777,3.375,2.4444444444444446,3.0,2.75,3.6666666666666665,2.0,2.0,2.0,1.0,,,,,,,4.495857755602113e-05,0.4252194088802935,-4.119794003638096e-05,-0.8844895670751156,1.584,1.0675765023613915
4,240708_094854,OFFLINERATING,9.0,5,1.0,,,,,,,,,,,,,,,,,T2,cue2.png,Easy,44.0,1.00165869994089,,,,,,,,,,,,,,,,,,,,,,36,28,Female,,,,,,,,,,,,,,,,1.4285714285714286,0.75,0.6,0.25,2.7777777777777777,3.375,2.4444444444444446,3.0,2.75,3.6666666666666665,2.0,2.0,2.0,1.0,,,,,,,,,,,-0.05499999999999994,-1.337038093200203
5,240708_094900,OFFLINERATING,9.0,6,3.0,,,,,,,,,,,,,,,,,T2,cue1.png,Hard,37.0,0.526496300008148,,,,,,,,,,,,,,,,,,,,,,36,28,Female,,,,,,,,,,,,,,,,1.4285714285714286,0.75,0.6,0.25,2.7777777777777777,3.375,2.4444444444444446,3.0,2.75,3.6666666666666665,2.0,2.0,2.0,1.0,,,,,,,,,,,,
6,240708_100649,OFFLINERATING,9.0,7,1.0,,,,,,,,,,,,,,,,,T3,cue2.png,Easy,38.0,0.6967155002057552,,,,,,,,,,,,,,,,,,,,,,36,28,Female,,,,,,,,,,,,,,,,1.4285714285714286,0.75,0.6,0.25,2.7777777777777777,3.375,2.4444444444444446,3.0,2.75,3.6666666666666665,2.0,2.0,2.0,1.0,,,,,,,,,-6.061677331881468e-05,-1.096024220494684,,
7,240708_100656,OFFLINERATING,9.0,8,3.0,,,,,,,,,,,,,,,,,T3,cue1.png,Hard,37.0,0.8348757000640035,,,,,,,,,,,,,,,,,,,,,,36,28,Female,,,,,,,,,,,,,,,,1.4285714285714286,0.75,0.6,0.25,2.7777777777777777,3.375,2.4444444444444446,3.0,2.75,3.6666666666666665,2.0,2.0,2.0,1.0,,,,,,,,,0.0001156535857971706,0.8241369334440997,,
