,END,Phase,Block,TrialN,NbackLevel,ISI,Letter_Resp,Letter_RT,Letter_Accuracy,Trial_A_measure,Trial_ACC,Trial_RT,TrialCountCali,CaliEnd_A_measure,ISI_calibrated,TrialIndex,TrialNumber_total,TrialNumber_valid,CueLearning,TrialDemandLearning,CueMapping,OfflineRatingTimePoint,CueFigure,TrialDemand,OfflineRating,OfflineRatingRT,PhaseType,CueLeft,CueDemandLeft,CueRight,CueDemandRight,Choice,ChoiceDemand,TaskDemand,ChoiceRT,CueCheck,CueDemandCheck,CorrectAnswer,Answer,AnswerDemand,AnswerRT,AnswerACC,DemandRatingQuesIndex,QuesTLX,DemandLevel,DemandRating,DemandRatingRT,PID,Age,Gender,Task_A_measure,Task_ACC,Task_RT,cue_i_on_zyg_values,cue_i_on_zyg_zvalues,cue_e_on_zyg_values,cue_e_on_zyg_zvalues,cue_i_on_cor_values,cue_i_on_cor_zvalues,cue_e_on_cor_values,cue_e_on_cor_zvalues,cue_i_on_scr_values,cue_i_on_scr_zvalues,cue_e_on_scr_values,cue_e_on_scr_zvalues,BAI_bis,BAI_bas_d,BAI_bas_rr,BAI_bas_fs,NFC,BFI_ext,BFI_agr,BFI_con,BFI_neu,BFI_open,UPPS_lps,UPPS_lpm,UPPS_pu,UPPS_ss,cue_e_true_zyg_values,cue_e_true_zyg_zvalues,cue_e_true_cor_values,cue_e_true_cor_zvalues,cue_e_true_scr_values,cue_e_true_scr_zvalues,cue_i_off_zyg_values,cue_i_off_zyg_zvalues,cue_i_off_cor_values,cue_i_off_cor_zvalues,cue_i_off_scr_values,cue_i_off_scr_zvalues
0,240708_172027,LEARNING,1.0,1,1.0,1750.0,,,,,,,,,,1.0,1.0,1.0,cue1.png,Easy,A,,,,,,,,,,,,,,,,,,,,,,,,,,,37,22,Male,1.0,1.0,0.4008723375736736,-5.206626316338857e-06,0.07761462109584387,1.3583814903747951e-06,-0.02762283381128093,,,0.0003406312344737721,0.8134452265769261,,,0.8240000000000001,-1.3885091509919267,2.2857142857142856,1.25,1.2,1.25,1.0555555555555556,2.0,2.2222222222222223,1.6666666666666667,1.75,2.3333333333333335,1.75,2.0,2.0,1.0,,,,,,,,,,,,
1,240708_172047,LEARNING,1.0,2,3.0,1750.0,,,,,,,,,,2.0,2.0,2.0,cue2.png,Hard,A,,,,,,,,,,,,,,,,,,,,,,,,,,,37,22,Male,0.75,0.8333333333333334,0.4845355626312084,,,-1.461408196920446e-05,-0.17459014389586416,,,0.00028528673734345934,0.6220792097706924,1.4469999999999998,0.12971444747090224,1.5910000000000002,0.3746251048028198,2.2857142857142856,1.25,1.2,1.25,1.0555555555555556,2.0,2.2222222222222223,1.6666666666666667,1.75,2.3333333333333335,1.75,2.0,2.0,1.0,,,,,,,,,,,,
2,240708_172106,LEARNING,1.0,3,1.0,1750.0,,,,,,,,,,3.0,3.0,3.0,cue1.png,Easy,A,,,,,,,,,,,,,,,,,,,,,,,,,,,37,22,Male,1.0,1.0,0.4072956499876454,,,,,5.817702174174249e-05,-0.1137512158471279,0.0003179880781522017,0.7351514330137261,1.1760000000000002,-0.4526330945633754,1.5829999999999997,0.3562351777541122,2.2857142857142856,1.25,1.2,1.25,1.0555555555555556,2.0,2.2222222222222223,1.6666666666666667,1.75,2.3333333333333335,1.75,2.0,2.0,1.0,,,,,,,,,,,,
3,240708_172125,LEARNING,1.0,4,3.0,1750.0,,,,,,,,,,4.0,4.0,4.0,cue2.png,Hard,A,,,,,,,,,,,,,,,,,,,,,,,,,,,37,22,Male,0.75,0.8333333333333334,0.4729411749867722,4.672107467341242e-05,0.2937256726208899,,,0.0002130456055472107,0.38639900082327905,-0.00042692973748804106,-1.840569056259568,1.5810000000000002,0.41766489260962364,1.5270000000000001,0.2275056884131668,2.2857142857142856,1.25,1.2,1.25,1.0555555555555556,2.0,2.2222222222222223,1.6666666666666667,1.75,2.3333333333333335,1.75,2.0,2.0,1.0,,,,,,,,,,,,
4,240708_172144,LEARNING,1.0,5,3.0,1750.0,,,,,,,,,,5.0,5.0,5.0,cue2.png,Hard,A,,,,,,,,,,,,,,,,,,,,,,,,,,,37,22,Male,0.75,0.8333333333333334,0.4547336375690065,,,6.154895858981844e-05,0.5262082787863603,-0.00011184541485797584,-0.6628410080737751,0.0003533549552558338,0.8574403460787751,1.562,0.3768360981496555,1.4649999999999999,0.08498375378568992,2.2857142857142856,1.25,1.2,1.25,1.0555555555555556,2.0,2.2222222222222223,1.6666666666666667,1.75,2.3333333333333335,1.75,2.0,2.0,1.0,,,,,,,,,,,,
5,240708_172203,LEARNING,1.0,6,1.0,1750.0,,,,,,,,,,6.0,6.0,6.0,cue1.png,Easy,A,,,,,,,,,,,,,,,,,,,,,,,,,,,37,22,Male,0.75,0.8333333333333334,0.3671383250621147,4.4419475357136435e-05,0.28414694991703093,,,6.529736367585567e-05,-0.09075597385803992,0.0006097346556122956,1.7439306855188612,,,,,2.2857142857142856,1.25,1.2,1.25,1.0555555555555556,2.0,2.2222222222222223,1.6666666666666667,1.75,2.3333333333333335,1.75,2.0,2.0,1.0,,,,,,,,,,,,
6,240708_172222,LEARNING,1.0,7,3.0,1750.0,,,,,,,,,,7.0,7.0,7.0,cue2.png,Hard,A,,,,,,,,,,,,,,,,,,,,,,,,,,,37,22,Male,0.75,0.8333333333333334,0.4451513749663718,,,4.876973331397914e-05,0.4086228876218786,-0.00040134651857541255,-1.5977887953698415,-0.00018532427209317888,-1.0051639491833004,1.451,0.13830998314668544,,,2.2857142857142856,1.25,1.2,1.25,1.0555555555555556,2.0,2.2222222222222223,1.6666666666666667,1.75,2.3333333333333335,1.75,2.0,2.0,1.0,,,,,,,,,,,,
7,240708_172241,LEARNING,1.0,8,3.0,1750.0,,,,,,,,,,8.0,8.0,8.0,cue2.png,Hard,A,,,,,,,,,,,,,,,,,,,,,,,,,,,37,22,Male,0.75,0.8333333333333334,0.4528672624728642,5.933953923274119e-05,0.3462407963904995,-6.513611304060328e-05,-0.639458135321453,0.00018330425585157606,0.29034890383894285,-0.00018493045881027084,-1.0038022513953875,,,,,2.2857142857142856,1.25,1.2,1.25,1.0555555555555556,2.0,2.2222222222222223,1.6666666666666667,1.75,2.3333333333333335,1.75,2.0,2.0,1.0,,,,,,,,,,,,
8,240708_172300,LEARNING,1.0,9,1.0,1750.0,,,,,,,,,,9.0,9.0,9.0,cue1.png,Easy,A,,,,,,,,,,,,,,,,,,,,,,,,,,,37,22,Male,1.0,1.0,0.4401885000406764,,,-0.00046063200540689834,-4.278531569276728,-0.0003825180212470381,-1.5369819048632842,0.00021693700434431001,0.38574467188484995,,,,,2.2857142857142856,1.25,1.2,1.25,1.0555555555555556,2.0,2.2222222222222223,1.6666666666666667,1.75,2.3333333333333335,1.75,2.0,2.0,1.0,,,,,,,,,,,,
9,240708_172319,LEARNING,1.0,10,1.0,1750.0,,,,,,,,,,10.0,10.0,10.0,cue1.png,Easy,A,,,,,,,,,,,,,,,,,,,,,,,,,,,37,22,Male,1.0,1.0,0.4144330124836415,-9.331939096625516e-05,-0.2890902754877844,0.00012863431818877034,1.1434803026833333,0.00047359325569960777,1.2278412125011104,0.00035854587356891343,0.8753891108638562,,,1.48,0.11946486700201511,2.2857142857142856,1.25,1.2,1.25,1.0555555555555556,2.0,2.2222222222222223,1.6666666666666667,1.75,2.3333333333333335,1.75,2.0,2.0,1.0,,,,,,,,,,,,
10,240708_172337,LEARNING,1.0,11,3.0,1750.0,,,,,,,,,,11.0,11.0,11.0,cue2.png,Hard,A,,,,,,,,,,,,,,,,,,,,,,,,,,,37,22,Male,1.0,1.0,0.4205300250323489,-6.670909180159787e-05,-0.17834438024768617,4.533210142466503e-05,0.37699223070336296,0.00034913275978683527,0.8258943329721357,0.0004433262904453791,1.1685364249070282,,,,,2.2857142857142856,1.25,1.2,1.25,1.0555555555555556,2.0,2.2222222222222223,1.6666666666666667,1.75,2.3333333333333335,1.75,2.0,2.0,1.0,,,,,,,,,,,,
11,240708_172356,LEARNING,1.0,12,1.0,1750.0,,,,,,,,,,12.0,12.0,12.0,cue1.png,Easy,A,,,,,,,,,,,,,,,,,,,,,,,,,,,37,22,Male,1.0,1.0,0.4141097625833936,2.6565399793554694e-05,0.20984242708027362,7.190288574532994e-06,0.026038249777420124,-9.267180488625997e-05,-0.6009195715495459,0.00030603514447292805,0.6938214828659118,1.436,0.10607672436250003,,,2.2857142857142856,1.25,1.2,1.25,1.0555555555555556,2.0,2.2222222222222223,1.6666666666666667,1.75,2.3333333333333335,1.75,2.0,2.0,1.0,,,,,,,,,,,,
12,240708_172416,LEARNING,1.0,13,1.0,1750.0,,,,,,,,,,13.0,13.0,13.0,cue1.png,Easy,A,,,,,,,,,,,,,,,,,,,,,,,,,,,37,22,Male,1.0,1.0,0.4805042873485945,4.9914754735127555e-05,0.3070170285487799,5.0656588416800145e-05,0.4259843935462927,-0.0003984266883090065,-1.5883591634554812,,,1.4529999999999998,0.14260775098457631,,,2.2857142857142856,1.25,1.2,1.25,1.0555555555555556,2.0,2.2222222222222223,1.6666666666666667,1.75,2.3333333333333335,1.75,2.0,2.0,1.0,,,,,,,,,,,,
13,240708_172434,LEARNING,1.0,14,1.0,1750.0,,,,,,,,,,14.0,14.0,14.0,cue1.png,Easy,A,,,,,,,,,,,,,,,,,,,,,,,,,,,37,22,Male,1.0,1.0,0.4030266124173067,-2.7465367358063628e-05,-0.015021098192022075,1.8241239955601833e-05,0.12772128711610628,-5.902441887412416e-05,-0.4922548766783041,4.446396757054518e-05,-0.2106195515745588,1.4629999999999999,0.1640965901740331,,,2.2857142857142856,1.25,1.2,1.25,1.0555555555555556,2.0,2.2222222222222223,1.6666666666666667,1.75,2.3333333333333335,1.75,2.0,2.0,1.0,,,,,,,,,,,,
14,240708_172454,LEARNING,1.0,15,3.0,1750.0,,,,,,,,,,15.0,15.0,15.0,cue2.png,Hard,A,,,,,,,,,,,,,,,,,,,,,,,,,,,37,22,Male,0.1666666666666666,0.6666666666666667,0.4724062876193784,0.00013500322044856725,0.6611354941749307,3.999238975903275e-05,0.3278599811846079,-0.0004062029640841034,-1.6134727527854447,-7.04347442517959e-05,-0.6079076282163435,,,,,2.2857142857142856,1.25,1.2,1.25,1.0555555555555556,2.0,2.2222222222222223,1.6666666666666667,1.75,2.3333333333333335,1.75,2.0,2.0,1.0,,,,,,,,,,,,
15,240708_172513,LEARNING,1.0,16,1.0,1750.0,,,,,,,,,,16.0,16.0,16.0,cue1.png,Easy,A,,,,,,,,,,,,,,,,,,,,,,,,,,,37,22,Male,1.0,1.0,0.4322073999210261,-8.112682649719441e-05,-0.2383476491443674,1.3322505589730312e-06,-0.02786327215742839,0.0008215667094749689,2.3516262567287285,-0.0002817874078503476,-1.3387068850785069,,,,,2.2857142857142856,1.25,1.2,1.25,1.0555555555555556,2.0,2.2222222222222223,1.6666666666666667,1.75,2.3333333333333335,1.75,2.0,2.0,1.0,,,,,,,,,,,,
16,240708_172532,LEARNING,1.0,17,1.0,1750.0,,,,,,,,,,17.0,17.0,17.0,cue1.png,Easy,A,,,,,,,,,,,,,,,,,,,,,,,,,,,37,22,Male,1.0,1.0,0.4313814000342972,-6.8285345518636666e-06,0.07086461507640586,2.7205863090441328e-05,0.21020740776891197,,,0.00017280074790446652,0.233133662126388,,,,,2.2857142857142856,1.25,1.2,1.25,1.0555555555555556,2.0,2.2222222222222223,1.6666666666666667,1.75,2.3333333333333335,1.75,2.0,2.0,1.0,,,,,,,,,,,,
17,240708_172551,LEARNING,1.0,18,3.0,1750.0,,,,,,,,,,18.0,18.0,18.0,cue2.png,Hard,A,,,,,,,,,,,,,,,,,,,,,,,,,,,37,22,Male,1.0,1.0,0.4748172874678857,2.5063986194949137e-05,0.20359389180171988,,,0.0001252379168737417,0.10282286526225565,-0.0004284106437675611,-1.8456896220008705,,,,,2.2857142857142856,1.25,1.2,1.25,1.0555555555555556,2.0,2.2222222222222223,1.6666666666666667,1.75,2.3333333333333335,1.75,2.0,2.0,1.0,,,,,,,,,,,,
18,240708_172610,LEARNING,1.0,19,3.0,1750.0,,,,,,,,,,19.0,19.0,19.0,cue2.png,Hard,A,,,,,,,,,,,,,,,,,,,,,,,,,,,37,22,Male,0.75,0.8333333333333334,0.462182774906978,1.198517514564533e-05,0.14916291267710421,1.8741593332575416e-05,0.13232518494887563,0.00039529670492148214,0.9749814272950009,-0.0004017461051076974,-1.7534909967012442,,,,,2.2857142857142856,1.25,1.2,1.25,1.0555555555555556,2.0,2.2222222222222223,1.6666666666666667,1.75,2.3333333333333335,1.75,2.0,2.0,1.0,,,,,,,,,,,,
19,240708_172629,LEARNING,1.0,20,3.0,1750.0,,,,,,,,,,20.0,20.0,20.0,cue2.png,Hard,A,,,,,,,,,,,,,,,,,,,,,,,,,,,37,22,Male,1.0,1.0,0.4464718250674195,-5.1882287653379905e-06,0.07769118743744,-4.09414594922039e-05,-0.4168360482880267,,,,,,,0.5330000000000001,-2.0574427473886296,2.2857142857142856,1.25,1.2,1.25,1.0555555555555556,2.0,2.2222222222222223,1.6666666666666667,1.75,2.3333333333333335,1.75,2.0,2.0,1.0,,,,,,,,,,,,
20,240708_172648,LEARNING,1.0,21,1.0,1750.0,,,,,,,,,,21.0,21.0,21.0,cue1.png,Easy,A,,,,,,,,,,,,,,,,,,,,,,,,,,,37,22,Male,1.0,1.0,0.4215720499050803,-7.077241812609861e-05,-0.19525500228447856,-4.323159429903134e-05,-0.43790824877496215,0.000331526598244509,0.7690349926608069,-5.991758214163312e-05,-0.571542180421445,1.3649999999999998,-0.046494033882643386,1.737,0.7102412734417153,2.2857142857142856,1.25,1.2,1.25,1.0555555555555556,2.0,2.2222222222222223,1.6666666666666667,1.75,2.3333333333333335,1.75,2.0,2.0,1.0,,,,,,,,,,,,
21,240708_172708,LEARNING,1.0,22,3.0,1750.0,,,,,,,,,,22.0,22.0,22.0,cue2.png,Hard,A,,,,,,,,,,,,,,,,,,,,,,,,,,,37,22,Male,1.0,1.0,0.5041373750427738,-0.00141142682612808,-5.774747803288299,-2.045562290934168e-05,-0.22833987141244536,,,-2.80854745529132e-05,-0.4614755260717321,2.163,1.6683153334360066,1.629,0.4619772582841758,2.2857142857142856,1.25,1.2,1.25,1.0555555555555556,2.0,2.2222222222222223,1.6666666666666667,1.75,2.3333333333333335,1.75,2.0,2.0,1.0,,,,,,,,,,,,
22,240708_172727,LEARNING,1.0,23,3.0,1750.0,,,,,,,,,,23.0,23.0,23.0,cue2.png,Hard,A,,,,,,,,,,,,,,,,,,,,,,,,,,,37,22,Male,0.75,0.8333333333333334,0.4942852251697331,2.134466204780543e-05,0.18811492706649388,3.0966372289816056e-05,0.24480895329625368,-0.00013361400759040118,-0.7331429770348159,0.00010125420820365771,-0.014254552217217017,1.991,1.298707299377351,1.3289999999999997,-0.2276450060423227,2.2857142857142856,1.25,1.2,1.25,1.0555555555555556,2.0,2.2222222222222223,1.6666666666666667,1.75,2.3333333333333335,1.75,2.0,2.0,1.0,,,,,,,,,,,,
23,240708_172747,LEARNING,1.0,24,3.0,1750.0,,,,,,,,,,24.0,24.0,24.0,cue2.png,Hard,A,,,,,,,,,,,,,,,,,,,,,,,,,,,37,22,Male,0.75,0.8333333333333334,0.5131651250412688,8.678180252174846e-05,0.46044913341633886,7.624826291770248e-05,0.6614608791539116,0.00016471303017841742,0.2303082853989981,-1.4469702641975446e-06,-0.3693669204518389,0.7730000000000001,-1.3186333138984832,1.6520000000000001,0.5148482985492076,2.2857142857142856,1.25,1.2,1.25,1.0555555555555556,2.0,2.2222222222222223,1.6666666666666667,1.75,2.3333333333333335,1.75,2.0,2.0,1.0,,,,,,,,,,,,
24,240708_172806,LEARNING,1.0,25,1.0,1750.0,,,,,,,,,,25.0,25.0,25.0,cue1.png,Easy,A,,,,,,,,,,,,,,,,,,,,,,,,,,,37,22,Male,1.0,1.0,0.4815318873734213,-7.557731735211319e-05,-0.21525187879574242,-0.00011508464903671467,-1.09904923074568,-0.0002839035580126138,-1.2185051425556557,0.00015168302136270816,0.16011438429675598,,,1.344,-0.19316389282599702,2.2857142857142856,1.25,1.2,1.25,1.0555555555555556,2.0,2.2222222222222223,1.6666666666666667,1.75,2.3333333333333335,1.75,2.0,2.0,1.0,,,,,,,,,,,,
25,240708_172825,LEARNING,1.0,26,1.0,1750.0,,,,,,,,,,26.0,26.0,26.0,cue1.png,Easy,A,,,,,,,,,,,,,,,,,,,,,,,,,,,37,22,Male,1.0,1.0,0.442527737468481,,,5.089896284449181e-05,0.42821455157803767,-0.00026713032521313764,-1.164335757049691,0.0003722753638722852,0.9228619041562002,0.8680000000000001,-1.1144893415986439,0.504,-2.1241062329401914,2.2857142857142856,1.25,1.2,1.25,1.0555555555555556,2.0,2.2222222222222223,1.6666666666666667,1.75,2.3333333333333335,1.75,2.0,2.0,1.0,,,,,,,,,,,,
26,240708_172844,LEARNING,1.0,27,3.0,1750.0,,,,,,,,,,27.0,27.0,27.0,cue2.png,Hard,A,,,,,,,,,,,,,,,,,,,,,,,,,,,37,22,Male,1.0,1.0,0.4540422374848276,-1.2827416265352894e-05,0.04589866028991539,-9.773030542497164e-06,-0.13004621315125459,-0.0003074979003149358,-1.294703394807546,0.0003604374985507336,0.8819298286737903,0.599,-1.6925391157950311,1.5199999999999998,0.21141450224554773,2.2857142857142856,1.25,1.2,1.25,1.0555555555555556,2.0,2.2222222222222223,1.6666666666666667,1.75,2.3333333333333335,1.75,2.0,2.0,1.0,,,,,,,,,,,,
27,240708_172903,LEARNING,1.0,28,1.0,1750.0,,,,,,,,,,28.0,28.0,28.0,cue1.png,Easy,A,,,,,,,,,,,,,,,,,,,,,,,,,,,37,22,Male,1.0,1.0,0.4169413750059902,2.9362762780748078e-05,0.22148440323436758,8.246451031922262e-06,0.03575630959753712,0.0001212598788089725,0.08997573674123417,-0.00016142416462829393,-0.9225239650123914,1.5779999999999998,0.4112182408527859,0.891,-1.234493511959009,2.2857142857142856,1.25,1.2,1.25,1.0555555555555556,2.0,2.2222222222222223,1.6666666666666667,1.75,2.3333333333333335,1.75,2.0,2.0,1.0,,,,,,,,,,,,
28,240708_172922,LEARNING,1.0,29,1.0,1750.0,,,,,,,,,,29.0,29.0,29.0,cue1.png,Easy,A,,,,,,,,,,,,,,,,,,,,,,,,,,,37,22,Male,1.0,1.0,0.4183461499051191,-1.3064870010373337e-05,0.044910432859337324,-6.231926054890355e-05,-0.6135394512901626,7.126082445913298e-05,-0.0714968954215242,0.00017022066040111097,0.22421243067376245,1.51,0.26509413436448026,1.4089999999999998,-0.04374573555525645,2.2857142857142856,1.25,1.2,1.25,1.0555555555555556,2.0,2.2222222222222223,1.6666666666666667,1.75,2.3333333333333335,1.75,2.0,2.0,1.0,,,,,,,,,,,,
29,240708_172941,LEARNING,1.0,30,3.0,1750.0,,,,,,,,,,30.0,30.0,30.0,cue2.png,Hard,A,,,,,,,,,,,,,,,,,,,,,,,,,,,37,22,Male,0.75,0.8333333333333334,0.4496819375781342,-1.9576495630892546e-05,0.017810556816961105,6.156456421880889e-05,0.5263518707451529,-1.5496155502342165e-05,-0.35167975277822616,-5.329770448140453e-05,-0.5486524680693806,1.4360000000000002,0.10607672436250051,1.703,0.632084083484712,2.2857142857142856,1.25,1.2,1.25,1.0555555555555556,2.0,2.2222222222222223,1.6666666666666667,1.75,2.3333333333333335,1.75,2.0,2.0,1.0,,,,,,,,,,,,
30,240708_173001,LEARNING,1.0,31,3.0,1750.0,,,,,,,,,,31.0,31.0,31.0,cue2.png,Hard,A,,,,,,,,,,,,,,,,,,,,,,,,,,,37,22,Male,0.75,0.8333333333333334,0.5031869501108304,0.00010224226355733243,0.5247919875727646,2.1234724699032738e-05,0.15526521618093872,-1.1809768395668486e-05,-0.3397745150287173,0.00022720789855631323,0.42125859316525005,1.908,1.1203499341048593,,,2.2857142857142856,1.25,1.2,1.25,1.0555555555555556,2.0,2.2222222222222223,1.6666666666666667,1.75,2.3333333333333335,1.75,2.0,2.0,1.0,,,,,,,,,,,,
31,240708_173020,LEARNING,1.0,32,1.0,1750.0,,,,,,,,,,32.0,32.0,32.0,cue1.png,Easy,A,,,,,,,,,,,,,,,,,,,,,,,,,,,37,22,Male,1.0,1.0,0.4585795249440707,3.964996023346013e-05,0.2642973338355154,1.7691688198692712e-05,0.12266470059333341,-1.08712558456593e-05,-0.33674357586919995,0.0001630384335130396,0.1993782696887481,1.7580000000000002,0.7980173462630085,,,2.2857142857142856,1.25,1.2,1.25,1.0555555555555556,2.0,2.2222222222222223,1.6666666666666667,1.75,2.3333333333333335,1.75,2.0,2.0,1.0,,,,,,,,,,,,
32,240708_173038,LEARNING,1.0,33,1.0,1750.0,,,,,,,,,,33.0,33.0,33.0,cue1.png,Easy,A,,,,,,,,,,,,,,,,,,,,,,,,,,,37,22,Male,1.0,1.0,0.3778301249840297,3.2558181879034642e-06,0.11283335301399872,,,0.00028772079087303675,0.6275635366049767,0.00010608325798210517,0.002442970914750637,1.2349999999999999,-0.3258489433455811,1.482,0.12406234876419177,2.2857142857142856,1.25,1.2,1.25,1.0555555555555556,2.0,2.2222222222222223,1.6666666666666667,1.75,2.3333333333333335,1.75,2.0,2.0,1.0,,,,,,,,,,,,
33,240708_173057,LEARNING,1.0,34,1.0,1750.0,,,,,,,,,,34.0,34.0,34.0,cue1.png,Easy,A,,,,,,,,,,,,,,,,,,,,,,,,,,,37,22,Male,1.0,1.0,0.3515093749738298,9.831414731941834e-05,0.5084440785664374,-1.6248410633831582e-05,-0.18962808016926505,,,,,1.8920000000000001,1.085967791401729,1.3679999999999999,-0.13799411167987766,2.2857142857142856,1.25,1.2,1.25,1.0555555555555556,2.0,2.2222222222222223,1.6666666666666667,1.75,2.3333333333333335,1.75,2.0,2.0,1.0,,,,,,,,,,,,
34,240708_173116,LEARNING,1.0,35,3.0,1750.0,,,,,,,,,,35.0,35.0,35.0,cue2.png,Hard,A,,,,,,,,,,,,,,,,,,,,,,,,,,,37,22,Male,1.0,1.0,0.4850910124368965,3.5351375630587704e-05,0.24640762139129457,,,0.00013746133907883464,0.14229857501634224,0.00020966379220171624,0.3605959089674149,1.454,0.14475663490352225,2.085,1.5102031000604526,2.2857142857142856,1.25,1.2,1.25,1.0555555555555556,2.0,2.2222222222222223,1.6666666666666667,1.75,2.3333333333333335,1.75,2.0,2.0,1.0,,,,,,,,,,,,
35,240708_173135,LEARNING,1.0,36,3.0,1750.0,,,,,,,,,,36.0,36.0,36.0,cue2.png,Hard,A,,,,,,,,,,,,,,,,,,,,,,,,,,,37,22,Male,1.0,1.0,0.4355112375924364,4.107861870349724e-05,0.270243079138024,-7.0157690266014865e-06,-0.10467584312559029,-0.000212004584258952,-0.9863064201443764,0.0007286704887897789,2.155178015079285,1.345,-0.08947171226155648,1.452,0.05510012233154192,2.2857142857142856,1.25,1.2,1.25,1.0555555555555556,2.0,2.2222222222222223,1.6666666666666667,1.75,2.3333333333333335,1.75,2.0,2.0,1.0,,,,,,,,,,,,
36,240708_173154,LEARNING,1.0,37,1.0,1750.0,,,,,,,,,,37.0,37.0,37.0,cue1.png,Easy,A,,,,,,,,,,,,,,,,,,,,,,,,,,,37,22,Male,1.0,1.0,0.4146961375372484,,,-2.1098833775714046e-05,-0.23425824280751198,4.911626602613914e-05,-0.14301305077195034,,,1.331,-0.11955608712679598,2.043,1.4136559830547433,2.2857142857142856,1.25,1.2,1.25,1.0555555555555556,2.0,2.2222222222222223,1.6666666666666667,1.75,2.3333333333333335,1.75,2.0,2.0,1.0,,,,,,,,,,,,
37,240708_173213,LEARNING,1.0,38,3.0,1750.0,,,,,,,,,,38.0,38.0,38.0,cue2.png,Hard,A,,,,,,,,,,,,,,,,,,,,,,,,,,,37,22,Male,1.0,1.0,0.4594894874608144,4.3941542590325566e-05,0.28215790455540096,,,0.00019336353477602446,0.32283548316952293,0.00033405575462702427,0.7907090296267761,0.982,-0.869516574838837,0.29000000000000004,-2.616036781493093,2.2857142857142856,1.25,1.2,1.25,1.0555555555555556,2.0,2.2222222222222223,1.6666666666666667,1.75,2.3333333333333335,1.75,2.0,2.0,1.0,,,,,,,,,,,,
38,240708_173233,LEARNING,1.0,39,3.0,1750.0,,,,,,,,,,39.0,39.0,39.0,cue2.png,Hard,A,,,,,,,,,,,,,,,,,,,,,,,,,,,37,22,Male,1.0,1.0,0.5057644749758765,6.331132807478514e-05,0.3627704606492536,-1.0115500318969625e-05,-0.13319737777659862,,,,,1.3790000000000002,-0.01640965901740293,1.512,0.1930245751968416,2.2857142857142856,1.25,1.2,1.25,1.0555555555555556,2.0,2.2222222222222223,1.6666666666666667,1.75,2.3333333333333335,1.75,2.0,2.0,1.0,,,,,,,,,,,,
39,240708_173252,LEARNING,1.0,40,3.0,1750.0,,,,,,,,,,40.0,40.0,40.0,cue2.png,Hard,A,,,,,,,,,,,,,,,,,,,,,,,,,,,37,22,Male,1.0,1.0,0.511543637374416,0.00011714275653166347,0.5868043844928552,1.6968270963050192e-05,0.11600832692497212,-4.971566399423338e-06,-0.31769044784079703,,,,,2.2479999999999998,1.8848978636778493,2.2857142857142856,1.25,1.2,1.25,1.0555555555555556,2.0,2.2222222222222223,1.6666666666666667,1.75,2.3333333333333335,1.75,2.0,2.0,1.0,,,,,,,,,,,,
40,240708_173312,LEARNING,1.0,41,1.0,1750.0,,,,,,,,,,41.0,41.0,41.0,cue1.png,Easy,A,,,,,,,,,,,,,,,,,,,,,,,,,,,37,22,Male,1.0,1.0,0.4618206125451252,,,,,,,,,2.736,2.89962581899188,1.09,-0.7770440766224319,2.2857142857142856,1.25,1.2,1.25,1.0555555555555556,2.0,2.2222222222222223,1.6666666666666667,1.75,2.3333333333333335,1.75,2.0,2.0,1.0,,,,,,,,,,,,
41,240708_173331,LEARNING,1.0,42,3.0,1750.0,,,,,,,,,,42.0,42.0,42.0,cue2.png,Hard,A,,,,,,,,,,,,,,,,,,,,,,,,,,,37,22,Male,1.0,1.0,0.4554407125106081,,,-2.6137872433183718e-05,-0.2806239119965311,0.0002286068761579215,0.43665433780879764,,,,,,,2.2857142857142856,1.25,1.2,1.25,1.0555555555555556,2.0,2.2222222222222223,1.6666666666666667,1.75,2.3333333333333335,1.75,2.0,2.0,1.0,,,,,,,,,,,,
42,240708_173350,LEARNING,1.0,43,3.0,1750.0,,,,,,,,,,43.0,43.0,43.0,cue2.png,Hard,A,,,,,,,,,,,,,,,,,,,,,,,,,,,37,22,Male,1.0,1.0,0.4736456873943098,-0.0002987645422266967,-1.1441053603724196,0.00012339168850331863,1.095241332871928,0.0005255541239871939,1.3956495496979089,0.0005524276994862574,1.5457790264061615,1.0430000000000001,-0.7384346557831505,1.7929999999999997,0.8389707627826606,2.2857142857142856,1.25,1.2,1.25,1.0555555555555556,2.0,2.2222222222222223,1.6666666666666667,1.75,2.3333333333333335,1.75,2.0,2.0,1.0,,,,,,,,,,,,
43,240708_173408,LEARNING,1.0,44,1.0,1750.0,,,,,,,,,,44.0,44.0,44.0,cue1.png,Easy,A,,,,,,,,,,,,,,,,,,,,,,,,,,,37,22,Male,1.0,1.0,0.3548052250407636,2.4697001586232187e-05,0.20206658694955668,0.0003307622445837292,3.0033184992406636,0.00019530670375640224,0.3291109740578747,-0.00034017714559532756,-1.5406025045889316,0.3699999999999999,-2.1846335332335913,1.162,-0.6115347331840728,2.2857142857142856,1.25,1.2,1.25,1.0555555555555556,2.0,2.2222222222222223,1.6666666666666667,1.75,2.3333333333333335,1.75,2.0,2.0,1.0,,,,,,,,,,,,
44,240708_173427,LEARNING,1.0,45,1.0,1750.0,,,,,,,,,,45.0,45.0,45.0,cue1.png,Easy,A,,,,,,,,,,,,,,,,,,,,,,,,,,,37,22,Male,1.0,1.0,0.4131624999572523,0.00024085193191763707,1.1016532891504223,-0.0002022544423041818,-1.9011240058465477,0.0006855665226528679,1.9124117870482231,0.00016552731750190623,0.20798414452614633,1.754,0.7894218105872253,1.641,0.4895621488572357,2.2857142857142856,1.25,1.2,1.25,1.0555555555555556,2.0,2.2222222222222223,1.6666666666666667,1.75,2.3333333333333335,1.75,2.0,2.0,1.0,,,,,,,,,,,,
45,240708_173446,LEARNING,1.0,46,1.0,1750.0,,,,,,,,,,46.0,46.0,46.0,cue1.png,Easy,A,,,,,,,,,,,,,,,,,,,,,,,,,,,37,22,Male,1.0,1.0,0.4010795250651426,1.261109213040101e-05,0.1517678340420927,,,0.00027665056090689713,0.5918120770119145,7.72094361005133e-06,-0.3376668011715664,0.704,-1.4669063043057353,1.3490000000000002,-0.18167018842055513,2.2857142857142856,1.25,1.2,1.25,1.0555555555555556,2.0,2.2222222222222223,1.6666666666666667,1.75,2.3333333333333335,1.75,2.0,2.0,1.0,,,,,,,,,,,,
46,240708_173505,LEARNING,1.0,47,3.0,1750.0,,,,,,,,,,47.0,47.0,47.0,cue2.png,Hard,A,,,,,,,,,,,,,,,,,,,,,,,,,,,37,22,Male,1.0,1.0,0.4387689374270849,,,0.00012857296971137194,1.1429158173912652,0.0007891536564397584,2.2469478571452908,-0.00036576605528181906,-1.629081901367772,,,2.016,1.351589979265358,2.2857142857142856,1.25,1.2,1.25,1.0555555555555556,2.0,2.2222222222222223,1.6666666666666667,1.75,2.3333333333333335,1.75,2.0,2.0,1.0,,,,,,,,,,,,
47,240708_173524,LEARNING,1.0,48,3.0,1750.0,,,,,,,,,,48.0,48.0,48.0,cue2.png,Hard,A,,,,,,,,,,,,,,,,,,,,,,,,,,,37,22,Male,0.75,0.8333333333333334,0.446073199971579,3.146868958587429e-05,0.2302487823155911,-7.11502057436841e-05,-0.6947955621002269,,,,,0.9690000000000001,-0.8974520657851306,1.634,0.47347096268961714,2.2857142857142856,1.25,1.2,1.25,1.0555555555555556,2.0,2.2222222222222223,1.6666666666666667,1.75,2.3333333333333335,1.75,2.0,2.0,1.0,,,,,,,,,,,,
48,240708_173542,LEARNING,1.0,49,1.0,1750.0,,,,,,,,,,49.0,49.0,49.0,cue1.png,Easy,A,,,,,,,,,,,,,,,,,,,,,,,,,,,37,22,Male,1.0,1.0,0.354375037481077,-0.00013295078737211342,-0.45402695836473955,4.50766100969632e-05,0.37464138023641397,,,,,,,,,2.2857142857142856,1.25,1.2,1.25,1.0555555555555556,2.0,2.2222222222222223,1.6666666666666667,1.75,2.3333333333333335,1.75,2.0,2.0,1.0,,,,,,,,,,,,
49,240708_173601,LEARNING,1.0,50,1.0,1750.0,,,,,,,,,,50.0,50.0,50.0,cue1.png,Easy,A,,,,,,,,,,,,,,,,,,,,,,,,,,,37,22,Male,1.0,1.0,0.4496039249352179,,,,,,,,,1.047,-0.7298391201073682,1.2389999999999999,-0.43453168534027176,2.2857142857142856,1.25,1.2,1.25,1.0555555555555556,2.0,2.2222222222222223,1.6666666666666667,1.75,2.3333333333333335,1.75,2.0,2.0,1.0,,,,,,,,,,,,
0,240708_173736,TrueCHOICE,9.0,1,1.0,1750.0,,,,,,,,,,,1.0,1.0,,,A,,,,,,True,cue1.png,Easy,cue2.png,Hard,Left,Easy,Easy,0.0163092999719083,,,,,,,,,,,,,37,22,Male,1.0,1.0,0.4316966000478714,,,,,,,,,,,,,2.2857142857142856,1.25,1.2,1.25,1.0555555555555556,2.0,2.2222222222222223,1.6666666666666667,1.75,2.3333333333333335,1.75,2.0,2.0,1.0,6.75990238778023e-06,-0.3802061122357719,,,,,,,,,,
1,240708_173753,TrueCHOICE,9.0,2,1.0,1750.0,,,,,,,,,,,2.0,2.0,,,A,,,,,,True,cue1.png,Easy,cue2.png,Hard,Left,Easy,Easy,0.0141620999202132,,,,,,,,,,,,,37,22,Male,,,,,,,,,,,,,,,,2.2857142857142856,1.25,1.2,1.25,1.0555555555555556,2.0,2.2222222222222223,1.6666666666666667,1.75,2.3333333333333335,1.75,2.0,2.0,1.0,,,0.0002858372300319923,0.2779607866668642,1.6079999999999999,0.40218646263959795,,,,,,
2,240708_173810,TrueCHOICE,9.0,3,1.0,1750.0,,,,,,,,,,,3.0,3.0,,,A,,,,,,True,cue2.png,Hard,cue1.png,Easy,Right,Easy,Easy,0.0169732999056577,,,,,,,,,,,,,37,22,Male,1.0,1.0,0.4000005749403499,,,,,,,,,,,,,2.2857142857142856,1.25,1.2,1.25,1.0555555555555556,2.0,2.2222222222222223,1.6666666666666667,1.75,2.3333333333333335,1.75,2.0,2.0,1.0,0.00023973513949646346,1.5909890162031934,0.0006264658082737076,1.3262431378736799,1.589,0.3742927726355655,,,,,,
3,240708_173828,TrueCHOICE,9.0,4,1.0,1750.0,,,,,,,,,,,4.0,4.0,,,A,,,,,,True,cue1.png,Easy,cue2.png,Hard,Left,Easy,Easy,0.0160662000998854,,,,,,,,,,,,,37,22,Male,1.0,1.0,0.3940337001113221,,,,,,,,,,,,,2.2857142857142856,1.25,1.2,1.25,1.0555555555555556,2.0,2.2222222222222223,1.6666666666666667,1.75,2.3333333333333335,1.75,2.0,2.0,1.0,,,-0.00017425332515900224,-1.1379650626945301,1.592,0.3786970394783077,,,,,,
4,240708_173845,TrueCHOICE,9.0,5,1.0,1750.0,,,,,,,,,,,5.0,5.0,,,A,,,,,,True,cue2.png,Hard,cue1.png,Easy,Right,Easy,Easy,0.0136395003646612,,,,,,,,,,,,,37,22,Male,1.0,1.0,0.5171881500864401,,,,,,,,,,,,,2.2857142857142856,1.25,1.2,1.25,1.0555555555555556,2.0,2.2222222222222223,1.6666666666666667,1.75,2.3333333333333335,1.75,2.0,2.0,1.0,4.73111616000714e-05,-0.03710336190336402,0.0003508546616850846,0.4780515320604202,,,,,,,,
5,240708_173902,TrueCHOICE,9.0,6,1.0,1750.0,,,,,,,,,,,6.0,6.0,,,A,,,,,,True,cue2.png,Hard,cue1.png,Easy,Right,Easy,Easy,0.0166243999265134,,,,,,,,,,,,,37,22,Male,1.0,1.0,0.4116126249427907,,,,,,,,,,,,,2.2857142857142856,1.25,1.2,1.25,1.0555555555555556,2.0,2.2222222222222223,1.6666666666666667,1.75,2.3333333333333335,1.75,2.0,2.0,1.0,-0.00010527353184277676,-1.328116982585221,0.000548902462370428,1.0875424186602147,1.457,0.18050503155491807,,,,,,
6,240708_173918,TrueCHOICE,9.0,7,1.0,1750.0,,,,,,,,,,,7.0,7.0,,,A,,,,,,True,cue1.png,Easy,cue2.png,Hard,Left,Easy,Easy,0.017387599684298,,,,,,,,,,,,,37,22,Male,,,,,,,,,,,,,,,,2.2857142857142856,1.25,1.2,1.25,1.0555555555555556,2.0,2.2222222222222223,1.6666666666666667,1.75,2.3333333333333335,1.75,2.0,2.0,1.0,-5.06679509507911e-05,-0.8661011204030585,,,1.468,0.1966540099783052,,,,,,
7,240708_173934,TrueCHOICE,9.0,8,1.0,1750.0,,,,,,,,,,,8.0,8.0,,,A,,,,,,True,cue2.png,Hard,cue1.png,Easy,Right,Easy,Easy,0.0166297000832855,,,,,,,,,,,,,37,22,Male,1.0,1.0,0.3774445000453852,,,,,,,,,,,,,2.2857142857142856,1.25,1.2,1.25,1.0555555555555556,2.0,2.2222222222222223,1.6666666666666667,1.75,2.3333333333333335,1.75,2.0,2.0,1.0,1.9817035424851085e-05,-0.2697301777395805,-0.000278708179876218,-1.459424234626451,1.9219999999999997,0.8631663921799261,,,,,,
8,240708_173952,TrueCHOICE,9.0,9,1.0,1750.0,,,,,,,,,,,9.0,9.0,,,A,,,,,,True,cue1.png,Easy,cue2.png,Hard,Left,Easy,Easy,0.0152834998443722,,,,,,,,,,,,,37,22,Male,1.0,1.0,0.467383949959185,,,,,,,,,,,,,2.2857142857142856,1.25,1.2,1.25,1.0555555555555556,2.0,2.2222222222222223,1.6666666666666667,1.75,2.3333333333333335,1.75,2.0,2.0,1.0,1.2637118747202414e-05,-0.3304791953314216,9.518443101211131e-06,-0.5724085779401981,-0.29766666666666663,-2.39550170846662,,,,,,
9,240708_174008,TrueCHOICE,9.0,10,1.0,1750.0,,,,,,,,,,,10.0,10.0,,,A,,,,,,True,cue2.png,Hard,cue1.png,Easy,Right,Easy,Easy,0.0158814997412264,,,,,,,,,,,,,37,22,Male,1.0,1.0,0.3845949125243351,,,,,,,,,,,,,2.2857142857142856,1.25,1.2,1.25,1.0555555555555556,2.0,2.2222222222222223,1.6666666666666667,1.75,2.3333333333333335,1.75,2.0,2.0,1.0,0.00024325234123294837,1.620747933995224,,,,,,,,,,
0,240708_174151,FalseCHOICE,9.0,1,2.0,1750.0,,,,,,,,,,,1.0,1.0,,,A,,,,,,False,cue1.png,Easy,cue2.png,Hard,Left,Easy,Mid,0.0163412997499108,,,,,,,,,,,,,37,22,Male,1.0,1.0,0.4539733874844387,,,,,,,,,,,,,2.2857142857142856,1.25,1.2,1.25,1.0555555555555556,2.0,2.2222222222222223,1.6666666666666667,1.75,2.3333333333333335,1.75,2.0,2.0,1.0,6.75990238778023e-06,-0.3802061122357719,,,,,,,,,,
1,240708_174208,FalseCHOICE,9.0,2,2.0,1750.0,,,,,,,,,,,2.0,2.0,,,A,,,,,,False,cue2.png,Hard,cue1.png,Easy,Left,Hard,Mid,0.0134319001808762,,,,,,,,,,,,,37,22,Male,,,,,,,,,,,,,,,,2.2857142857142856,1.25,1.2,1.25,1.0555555555555556,2.0,2.2222222222222223,1.6666666666666667,1.75,2.3333333333333335,1.75,2.0,2.0,1.0,,,0.0002858372300319923,0.2779607866668642,1.6079999999999999,0.40218646263959795,,,,,,
2,240708_174226,FalseCHOICE,9.0,3,2.0,1750.0,,,,,,,,,,,3.0,3.0,,,A,,,,,,False,cue2.png,Hard,cue1.png,Easy,Right,Easy,Mid,0.0165629000402987,,,,,,,,,,,,,37,22,Male,,,,,,,,,,,,,,,,2.2857142857142856,1.25,1.2,1.25,1.0555555555555556,2.0,2.2222222222222223,1.6666666666666667,1.75,2.3333333333333335,1.75,2.0,2.0,1.0,0.00023973513949646346,1.5909890162031934,0.0006264658082737076,1.3262431378736799,1.589,0.3742927726355655,,,,,,
3,240708_174248,FalseCHOICE,9.0,4,2.0,1750.0,,,,,,,,,,,5.0,4.0,,,A,,,,,,False,cue2.png,Hard,cue1.png,Easy,Right,Easy,Mid,0.0175334997475147,,,,,,,,,,,,,37,22,Male,0.75,0.8333333333333334,0.4607495500822551,,,,,,,,,,,,,2.2857142857142856,1.25,1.2,1.25,1.0555555555555556,2.0,2.2222222222222223,1.6666666666666667,1.75,2.3333333333333335,1.75,2.0,2.0,1.0,,,-0.00017425332515900224,-1.1379650626945301,1.592,0.3786970394783077,,,,,,
4,240708_174306,FalseCHOICE,9.0,5,2.0,1750.0,,,,,,,,,,,6.0,5.0,,,A,,,,,,False,cue1.png,Easy,cue2.png,Hard,Right,Hard,Mid,0.0164228999055922,,,,,,,,,,,,,37,22,Male,,,,,,,,,,,,,,,,2.2857142857142856,1.25,1.2,1.25,1.0555555555555556,2.0,2.2222222222222223,1.6666666666666667,1.75,2.3333333333333335,1.75,2.0,2.0,1.0,4.73111616000714e-05,-0.03710336190336402,0.0003508546616850846,0.4780515320604202,,,,,,,,
5,240708_174323,FalseCHOICE,9.0,6,2.0,1750.0,,,,,,,,,,,7.0,6.0,,,A,,,,,,False,cue2.png,Hard,cue1.png,Easy,Right,Easy,Mid,0.0165760996751487,,,,,,,,,,,,,37,22,Male,1.0,1.0,0.4180850749835372,,,,,,,,,,,,,2.2857142857142856,1.25,1.2,1.25,1.0555555555555556,2.0,2.2222222222222223,1.6666666666666667,1.75,2.3333333333333335,1.75,2.0,2.0,1.0,-0.00010527353184277676,-1.328116982585221,0.000548902462370428,1.0875424186602147,1.457,0.18050503155491807,,,,,,
6,240708_174341,FalseCHOICE,9.0,7,2.0,1750.0,,,,,,,,,,,8.0,7.0,,,A,,,,,,False,cue2.png,Hard,cue1.png,Easy,Right,Easy,Mid,0.0171822998672723,,,,,,,,,,,,,37,22,Male,1.0,1.0,0.4394259124528616,,,,,,,,,,,,,2.2857142857142856,1.25,1.2,1.25,1.0555555555555556,2.0,2.2222222222222223,1.6666666666666667,1.75,2.3333333333333335,1.75,2.0,2.0,1.0,-5.06679509507911e-05,-0.8661011204030585,,,1.468,0.1966540099783052,,,,,,
7,240708_174358,FalseCHOICE,9.0,8,2.0,1750.0,,,,,,,,,,,9.0,8.0,,,A,,,,,,False,cue1.png,Easy,cue2.png,Hard,Right,Hard,Mid,0.0157325002364814,,,,,,,,,,,,,37,22,Male,,,,,,,,,,,,,,,,2.2857142857142856,1.25,1.2,1.25,1.0555555555555556,2.0,2.2222222222222223,1.6666666666666667,1.75,2.3333333333333335,1.75,2.0,2.0,1.0,1.9817035424851085e-05,-0.2697301777395805,-0.000278708179876218,-1.459424234626451,1.9219999999999997,0.8631663921799261,,,,,,
8,240708_174415,FalseCHOICE,9.0,9,2.0,1750.0,,,,,,,,,,,10.0,9.0,,,A,,,,,,False,cue1.png,Easy,cue2.png,Hard,Left,Easy,Mid,0.0171618000604212,,,,,,,,,,,,,37,22,Male,1.0,1.0,0.489347037510015,,,,,,,,,,,,,2.2857142857142856,1.25,1.2,1.25,1.0555555555555556,2.0,2.2222222222222223,1.6666666666666667,1.75,2.3333333333333335,1.75,2.0,2.0,1.0,1.2637118747202414e-05,-0.3304791953314216,9.518443101211131e-06,-0.5724085779401981,-0.29766666666666663,-2.39550170846662,,,,,,
9,240708_174432,FalseCHOICE,9.0,10,2.0,1750.0,,,,,,,,,,,11.0,10.0,,,A,,,,,,False,cue2.png,Hard,cue1.png,Easy,Right,Easy,Mid,0.0170208998024463,,,,,,,,,,,,,37,22,Male,,,,,,,,,,,,,,,,2.2857142857142856,1.25,1.2,1.25,1.0555555555555556,2.0,2.2222222222222223,1.6666666666666667,1.75,2.3333333333333335,1.75,2.0,2.0,1.0,0.00024325234123294837,1.620747933995224,,,,,,,,,,
0,240708_171950,OFFLINERATING,9.0,1,1.0,,,,,,,,,,,,,,,,,T0,cue1.png,Easy,12.0,1.296283499803394,,,,,,,,,,,,,,,,,,,,,,37,22,Male,,,,,,,,,,,,,,,,2.2857142857142856,1.25,1.2,1.25,1.0555555555555556,2.0,2.2222222222222223,1.6666666666666667,1.75,2.3333333333333335,1.75,2.0,2.0,1.0,,,,,,,,,-0.0008868656405855752,-1.2455480086387434,1.58,1.0030070974720473
1,240708_171958,OFFLINERATING,9.0,2,3.0,,,,,,,,,,,,,,,,,T0,cue2.png,Hard,9.0,0.952861700206995,,,,,,,,,,,,,,,,,,,,,,37,22,Male,,,,,,,,,,,,,,,,2.2857142857142856,1.25,1.2,1.25,1.0555555555555556,2.0,2.2222222222222223,1.6666666666666667,1.75,2.3333333333333335,1.75,2.0,2.0,1.0,,,,,,,,,5.130626419270817e-05,0.6700200428265362,,
2,240708_173635,OFFLINERATING,9.0,3,1.0,,,,,,,,,,,,,,,,,T1,cue1.png,Easy,8.0,0.4680750998668372,,,,,,,,,,,,,,,,,,,,,,37,22,Male,,,,,,,,,,,,,,,,2.2857142857142856,1.25,1.2,1.25,1.0555555555555556,2.0,2.2222222222222223,1.6666666666666667,1.75,2.3333333333333335,1.75,2.0,2.0,1.0,,,,,,,,,-0.0006049130948313792,-0.6698546992087608,,
3,240708_173641,OFFLINERATING,9.0,4,3.0,,,,,,,,,,,,,,,,,T1,cue2.png,Hard,13.0,0.3846930996514857,,,,,,,,,,,,,,,,,,,,,,37,22,Male,,,,,,,,,,,,,,,,2.2857142857142856,1.25,1.2,1.25,1.0555555555555556,2.0,2.2222222222222223,1.6666666666666667,1.75,2.3333333333333335,1.75,2.0,2.0,1.0,,,,,,,,,,,1.456,0.36190977743836755
4,240708_174025,OFFLINERATING,9.0,5,1.0,,,,,,,,,,,,,,,,,T2,cue1.png,Easy,77.0,0.6514193001203239,,,,,,,,,,,,,,,,,,,,,,37,22,Male,,,,,,,,,,,,,,,,2.2857142857142856,1.25,1.2,1.25,1.0555555555555556,2.0,2.2222222222222223,1.6666666666666667,1.75,2.3333333333333335,1.75,2.0,2.0,1.0,,,,,,,-9.283015990763088e-07,1.395199980275128,,,1.1219999999999999,-1.3649168749104137
5,240708_174032,OFFLINERATING,9.0,6,3.0,,,,,,,,,,,,,,,,,T2,cue2.png,Hard,19.0,0.4848267002962529,,,,,,,,,,,,,,,,,,,,,,37,22,Male,,,,,,,,,,,,,,,,2.2857142857142856,1.25,1.2,1.25,1.0555555555555556,2.0,2.2222222222222223,1.6666666666666667,1.75,2.3333333333333335,1.75,2.0,2.0,1.0,,,,,,,-6.0050438955444336e-05,-0.49744314843533427,0.0003330968519974463,1.245382665020968,,
6,240708_175555,OFFLINERATING,9.0,7,1.0,,,,,,,,,,,,,,,,,T3,cue1.png,Easy,7.0,0.7451836001127958,,,,,,,,,,,,,,,,,,,,,,37,22,Male,,,,,,,,,,,,,,,,2.2857142857142856,1.25,1.2,1.25,1.0555555555555556,2.0,2.2222222222222223,1.6666666666666667,1.75,2.3333333333333335,1.75,2.0,2.0,1.0,,,,,,,-7.255538519536104e-05,-0.8977568318397938,,,,
7,240708_175602,OFFLINERATING,9.0,8,3.0,,,,,,,,,,,,,,,,,T3,cue2.png,Hard,10.0,0.6347362999804318,,,,,,,,,,,,,,,,,,,,,,37,22,Male,,,,,,,,,,,,,,,,2.2857142857142856,1.25,1.2,1.25,1.0555555555555556,2.0,2.2222222222222223,1.6666666666666667,1.75,2.3333333333333335,1.75,2.0,2.0,1.0,,,,,,,,,,,,
