,END,Phase,Block,TrialN,NbackLevel,ISI,Letter_Resp,Letter_RT,Letter_Accuracy,Trial_A_measure,Trial_ACC,Trial_RT,TrialCountCali,CaliEnd_A_measure,ISI_calibrated,TrialIndex,TrialNumber_total,TrialNumber_valid,CueLearning,TrialDemandLearning,CueMapping,OfflineRatingTimePoint,CueFigure,TrialDemand,OfflineRating,OfflineRatingRT,PhaseType,CueLeft,CueDemandLeft,CueRight,CueDemandRight,Choice,ChoiceDemand,TaskDemand,ChoiceRT,CueCheck,CueDemandCheck,CorrectAnswer,Answer,AnswerDemand,AnswerRT,AnswerACC,DemandRatingQuesIndex,QuesTLX,DemandLevel,DemandRating,DemandRatingRT,PID,Age,Gender,Task_A_measure,Task_ACC,Task_RT,cue_i_on_zyg_values,cue_i_on_zyg_zvalues,cue_e_on_zyg_values,cue_e_on_zyg_zvalues,cue_i_on_cor_values,cue_i_on_cor_zvalues,cue_e_on_cor_values,cue_e_on_cor_zvalues,cue_i_on_scr_values,cue_i_on_scr_zvalues,cue_e_on_scr_values,cue_e_on_scr_zvalues,BAI_bis,BAI_bas_d,BAI_bas_rr,BAI_bas_fs,NFC,BFI_ext,BFI_agr,BFI_con,BFI_neu,BFI_open,UPPS_lps,UPPS_lpm,UPPS_pu,UPPS_ss,cue_e_true_zyg_values,cue_e_true_zyg_zvalues,cue_e_true_cor_values,cue_e_true_cor_zvalues,cue_e_true_scr_values,cue_e_true_scr_zvalues,cue_i_off_zyg_values,cue_i_off_zyg_zvalues,cue_i_off_cor_values,cue_i_off_cor_zvalues,cue_i_off_scr_values,cue_i_off_scr_zvalues
0,240709_141145,LEARNING,1.0,1,1.0,1750.0,,,,,,,,,,1.0,1.0,1.0,cue1.png,Easy,A,,,,,,,,,,,,,,,,,,,,,,,,,,,39,28,Female,1.0,1.0,0.6557352499803528,-0.0013382431992785436,-1.7588887065327903,0.00013701632287619128,-0.19438681745530895,-0.00012013223863999297,-0.5171101454068218,0.00011208831799624803,-0.20829719459523569,,,,,1.0,0.5,1.2,1.25,3.2222222222222223,3.25,2.888888888888889,2.4444444444444446,2.125,3.7777777777777777,1.5,2.25,2.5,1.0,,,,,,,,,,,,
1,240709_141203,LEARNING,1.0,2,3.0,1750.0,,,,,,,,,,2.0,2.0,2.0,cue2.png,Hard,A,,,,,,,,,,,,,,,,,,,,,,,,,,,39,28,Female,0.1666666666666666,0.6666666666666667,0.3932854374288581,0.0007633183598235935,0.8104669092700879,0.00037747763907092224,0.03476735024372185,0.00015267994713371105,-0.0012580905784443065,1.6643065053269408e-06,-0.3500003954758291,1.456,-0.14319662078103473,1.463,-0.28024596336768487,1.0,0.5,1.2,1.25,3.2222222222222223,3.25,2.888888888888889,2.4444444444444446,2.125,3.7777777777777777,1.5,2.25,2.5,1.0,,,,,,,,,,,,
2,240709_141223,LEARNING,1.0,3,1.0,1750.0,,,,,,,,,,3.0,3.0,3.0,cue1.png,Easy,A,,,,,,,,,,,,,,,,,,,,,,,,,,,39,28,Female,0.75,0.8333333333333334,0.4750920250662602,0.00025581668293874187,0.18999863039151593,-0.00037225626238180515,-0.6797120134307899,4.3631666384930014e-05,-0.20745408413432534,0.00018681854021703305,-0.11239856214903135,1.452,-0.15351163160000755,1.466,-0.27333263215623926,1.0,0.5,1.2,1.25,3.2222222222222223,3.25,2.888888888888889,2.4444444444444446,2.125,3.7777777777777777,1.5,2.25,2.5,1.0,,,,,,,,,,,,
3,240709_141242,LEARNING,1.0,4,3.0,1750.0,,,,,,,,,,4.0,4.0,4.0,cue2.png,Hard,A,,,,,,,,,,,,,,,,,,,,,,,,,,,39,28,Female,1.0,1.0,0.4738482750835828,,,-0.0010581165484283873,-1.3333212737225608,,,9.94053994257311e-05,-0.22457273225850863,1.1460000000000001,-0.942609959251427,1.9459999999999997,0.8328003616750974,1.0,0.5,1.2,1.25,3.2222222222222223,3.25,2.888888888888889,2.4444444444444446,2.125,3.7777777777777777,1.5,2.25,2.5,1.0,,,,,,,,,,,,
4,240709_141300,LEARNING,1.0,5,3.0,1750.0,,,,,,,,,,5.0,5.0,5.0,cue2.png,Hard,A,,,,,,,,,,,,,,,,,,,,,,,,,,,39,28,Female,0.1666666666666666,0.6666666666666667,0.3587429499602876,-0.0013976286420327201,-1.831492966054254,-0.0001685536648185805,-0.48558806891686473,-3.309062288942271e-05,-0.3525258684502254,-0.00028667091141702924,-0.7200107107554964,1.585,0.18946247813083839,1.579,-0.012930489858445313,1.0,0.5,1.2,1.25,3.2222222222222223,3.25,2.888888888888889,2.4444444444444446,2.125,3.7777777777777777,1.5,2.25,2.5,1.0,,,,,,,,,,,,
5,240709_141318,LEARNING,1.0,6,1.0,1750.0,,,,,,,,,,6.0,6.0,6.0,cue1.png,Easy,A,,,,,,,,,,,,,,,,,,,,,,,,,,,39,28,Female,0.1666666666666666,0.6666666666666667,0.2952114749932661,0.0002630612509263138,0.19885579251570618,0.00042625171857400574,0.08124793918287682,6.84373944143551e-05,-0.1605497065340261,-0.0003050054280732909,-0.7435387429444414,1.574,0.16109619837866343,1.594,0.021636166198784265,1.0,0.5,1.2,1.25,3.2222222222222223,3.25,2.888888888888889,2.4444444444444446,2.125,3.7777777777777777,1.5,2.25,2.5,1.0,,,,,,,,,,,,
6,240709_141339,LEARNING,1.0,7,3.0,1750.0,,,,,,,,,,7.0,7.0,7.0,cue2.png,Hard,A,,,,,,,,,,,,,,,,,,,,,,,,,,,39,28,Female,0.1666666666666666,0.5416666666666667,0.371776885685644,3.598955366891383e-05,-0.07876060088057057,0.0003820542745379754,0.03912877979884052,-0.00010891081265959959,-0.49589190094433994,0.00016424879254827406,-0.14136151544649794,,,,,1.0,0.5,1.2,1.25,3.2222222222222223,3.25,2.888888888888889,2.4444444444444446,2.125,3.7777777777777777,1.5,2.25,2.5,1.0,,,,,,,,,,,,
7,240709_141357,LEARNING,1.0,8,3.0,1750.0,,,,,,,,,,8.0,8.0,8.0,cue2.png,Hard,A,,,,,,,,,,,,,,,,,,,,,,,,,,,39,28,Female,0.1666666666666666,0.6666666666666667,0.3003471749834716,-9.295754171394048e-05,-0.2364104885217178,0.0009106540906725184,0.5428723874154495,0.0001973296113306107,0.08316856711665267,0.00033622234880952007,0.07932602397549617,,,1.2009999999999998,-0.8840102225006237,1.0,0.5,1.2,1.25,3.2222222222222223,3.25,2.888888888888889,2.4444444444444446,2.125,3.7777777777777777,1.5,2.25,2.5,1.0,,,,,,,,,,,,
8,240709_141416,LEARNING,1.0,9,1.0,1750.0,,,,,,,,,,9.0,9.0,9.0,cue1.png,Easy,A,,,,,,,,,,,,,,,,,,,,,,,,,,,39,28,Female,0.1666666666666666,0.6666666666666667,0.4726914125494659,0.0001766913731729939,0.09326053670197183,0.0004980654718192718,0.14968481341563591,0.00019038351488977635,0.07003440996059117,0.000189106694895135,-0.10946225474976964,,,,,1.0,0.5,1.2,1.25,3.2222222222222223,3.25,2.888888888888889,2.4444444444444446,2.125,3.7777777777777777,1.5,2.25,2.5,1.0,,,,,,,,,,,,
9,240709_141436,LEARNING,1.0,10,1.0,1750.0,,,,,,,,,,10.0,10.0,10.0,cue1.png,Easy,A,,,,,,,,,,,,,,,,,,,,,,,,,,,39,28,Female,0.1666666666666666,0.5416666666666667,0.3226707285669233,0.0001661692906730428,0.08039630646132123,0.0003571806185081938,0.01542475107880857,-4.4830423362369944e-05,-0.3747242910759229,9.962680754305002e-06,-0.3393513873723519,1.577,0.16883245649289275,1.4270000000000003,-0.36320593790503475,1.0,0.5,1.2,1.25,3.2222222222222223,3.25,2.888888888888889,2.4444444444444446,2.125,3.7777777777777777,1.5,2.25,2.5,1.0,,,,,,,,,,,,
10,240709_141453,LEARNING,1.0,11,3.0,1750.0,,,,,,,,,,11.0,11.0,11.0,cue2.png,Hard,A,,,,,,,,,,,,,,,,,,,,,,,,,,,39,28,Female,0.1666666666666666,0.6666666666666667,0.2387803249293938,-0.0006898341066612444,-0.9661479294481167,,,-0.0002722305901663646,-0.8047081753422219,0.0010901484300607548,1.0468125108203075,1.926,1.0688171504482704,1.9249999999999998,0.7844070431949767,1.0,0.5,1.2,1.25,3.2222222222222223,3.25,2.888888888888889,2.4444444444444446,2.125,3.7777777777777777,1.5,2.25,2.5,1.0,,,,,,,,,,,,
11,240709_141512,LEARNING,1.0,12,1.0,1750.0,,,,,,,,,,12.0,12.0,12.0,cue1.png,Easy,A,,,,,,,,,,,,,,,,,,,,,,,,,,,39,28,Female,0.75,0.8333333333333334,0.3802331749466248,0.00015434791292733441,0.06594356622827302,-0.0009174960638856896,-1.1993131488118545,8.353868073177322e-05,-0.13199515514806423,-6.862007241669821e-05,-0.4401938355681077,,,1.461,-0.28485485084198214,1.0,0.5,1.2,1.25,3.2222222222222223,3.25,2.888888888888889,2.4444444444444446,2.125,3.7777777777777777,1.5,2.25,2.5,1.0,,,,,,,,,,,,
12,240709_141533,LEARNING,1.0,13,1.0,1750.0,,,,,,,,,,13.0,13.0,13.0,cue1.png,Easy,A,,,,,,,,,,,,,,,,,,,,,,,,,,,39,28,Female,0.75,0.8333333333333334,0.6661540625500493,0.0005390077590602211,0.5362262146497891,0.0011802341858846727,0.7997760895333386,-6.283233535576624e-05,-0.4087635451008001,,,,,,,1.0,0.5,1.2,1.25,3.2222222222222223,3.25,2.888888888888889,2.4444444444444446,2.125,3.7777777777777777,1.5,2.25,2.5,1.0,,,,,,,,,,,,
13,240709_141552,LEARNING,1.0,14,1.0,1750.0,,,,,,,,,,14.0,14.0,14.0,cue1.png,Easy,A,,,,,,,,,,,,,,,,,,,,,,,,,,,39,28,Female,1.0,1.0,0.485435287526343,0.001509072175821977,1.7222207176907667,0.003657173386629245,3.1602428372411864,0.002891081501015825,5.176700014588681,0.003282416554210996,3.8600721106685216,,,,,1.0,0.5,1.2,1.25,3.2222222222222223,3.25,2.888888888888889,2.4444444444444446,2.125,3.7777777777777777,1.5,2.25,2.5,1.0,,,,,,,,,,,,
14,240709_141610,LEARNING,1.0,15,3.0,1750.0,,,,,,,,,,15.0,15.0,15.0,cue2.png,Hard,A,,,,,,,,,,,,,,,,,,,,,,,,,,,39,28,Female,0.1666666666666666,0.6666666666666667,0.3247659250628203,-9.285360210994822e-05,-0.2362834126318562,,,0.0005532938344790404,0.7562502164415851,0.00022324594240527096,-0.0656525743865559,,,,,1.0,0.5,1.2,1.25,3.2222222222222223,3.25,2.888888888888889,2.4444444444444446,2.125,3.7777777777777777,1.5,2.25,2.5,1.0,,,,,,,,,,,,
15,240709_141630,LEARNING,1.0,16,1.0,1750.0,,,,,,,,,,16.0,16.0,16.0,cue1.png,Easy,A,,,,,,,,,,,,,,,,,,,,,,,,,,,39,28,Female,0.75,0.8333333333333334,0.5265729749808088,,,,,,,0.0001599657067358315,-0.14685784691530412,,,,,1.0,0.5,1.2,1.25,3.2222222222222223,3.25,2.888888888888889,2.4444444444444446,2.125,3.7777777777777777,1.5,2.25,2.5,1.0,,,,,,,,,,,,
16,240709_141650,LEARNING,1.0,17,1.0,1750.0,,,,,,,,,,17.0,17.0,17.0,cue1.png,Easy,A,,,,,,,,,,,,,,,,,,,,,,,,,,,39,28,Female,1.0,1.0,0.4987621124018915,,,,,-0.00012087471562699991,-0.5185140719884885,-0.001553583988862579,-2.345795138323389,,,,,1.0,0.5,1.2,1.25,3.2222222222222223,3.25,2.888888888888889,2.4444444444444446,2.125,3.7777777777777777,1.5,2.25,2.5,1.0,,,,,,,,,,,,
17,240709_141710,LEARNING,1.0,18,3.0,1750.0,,,,,,,,,,18.0,18.0,18.0,cue2.png,Hard,A,,,,,,,,,,,,,,,,,,,,,,,,,,,39,28,Female,0.75,0.8333333333333334,0.5723415250540711,,,,,0.0006603451239865191,0.958670161532554,-0.0002724083411196933,-0.7017080622949924,,,,,1.0,0.5,1.2,1.25,3.2222222222222223,3.25,2.888888888888889,2.4444444444444446,2.125,3.7777777777777777,1.5,2.25,2.5,1.0,,,,,,,,,,,,
18,240709_141732,LEARNING,1.0,19,3.0,1750.0,,,,,,,,,,19.0,19.0,19.0,cue2.png,Hard,A,,,,,,,,,,,,,,,,,,,,,,,,,,,39,28,Female,0.75,0.7083333333333334,0.5691310999515865,,,,,-7.211758151225676e-05,-0.426320727511215,3.789134596975932e-05,-0.30351152606032417,,,,,1.0,0.5,1.2,1.25,3.2222222222222223,3.25,2.888888888888889,2.4444444444444446,2.125,3.7777777777777777,1.5,2.25,2.5,1.0,,,,,,,,,,,,
19,240709_141750,LEARNING,1.0,20,3.0,1750.0,,,,,,,,,,20.0,20.0,20.0,cue2.png,Hard,A,,,,,,,,,,,,,,,,,,,,,,,,,,,39,28,Female,0.75,0.8333333333333334,0.4141585624893196,-0.00048778330868967223,-0.719121926237672,0.000940088680611296,0.57092288246273,-5.894522426569621e-05,-0.4014135279544909,3.9250921854881715e-05,-0.3017668307521144,1.3900000000000001,-0.31339429929408563,1.442,-0.32863928184780616,1.0,0.5,1.2,1.25,3.2222222222222223,3.25,2.888888888888889,2.4444444444444446,2.125,3.7777777777777777,1.5,2.25,2.5,1.0,,,,,,,,,,,,
20,240709_141808,LEARNING,1.0,21,1.0,1750.0,,,,,,,,,,21.0,21.0,21.0,cue1.png,Easy,A,,,,,,,,,,,,,,,,,,,,,,,,,,,39,28,Female,0.1666666666666666,0.6666666666666667,0.2431811499991454,,,,,,,-3.1997645447968265e-05,-0.39319757945118994,1.923,1.061080892334041,2.027,1.0194603043841366,1.0,0.5,1.2,1.25,3.2222222222222223,3.25,2.888888888888889,2.4444444444444446,2.125,3.7777777777777777,1.5,2.25,2.5,1.0,,,,,,,,,,,,
21,240709_141827,LEARNING,1.0,22,3.0,1750.0,,,,,,,,,,22.0,22.0,22.0,cue2.png,Hard,A,,,,,,,,,,,,,,,,,,,,,,,,,,,39,28,Female,1.0,1.0,0.50656995002646,-0.0016465877719114997,-2.135868793490272,0.00024871666870801817,-0.08793892726719447,0.00032990643109951246,0.3338539414024206,0.0003283684362764207,0.06924737776123602,1.3499999999999999,-0.41654440748381444,1.2680000000000002,-0.7296124921116652,1.0,0.5,1.2,1.25,3.2222222222222223,3.25,2.888888888888889,2.4444444444444446,2.125,3.7777777777777777,1.5,2.25,2.5,1.0,,,,,,,,,,,,
22,240709_141847,LEARNING,1.0,23,3.0,1750.0,,,,,,,,,,23.0,23.0,23.0,cue2.png,Hard,A,,,,,,,,,,,,,,,,,,,,,,,,,,,39,28,Female,0.75,0.8333333333333334,0.5116011249483563,0.0010011263860707584,1.1012094692844605,0.0009417364227880774,0.5724931432975212,,,6.916713131562176e-05,-0.26337642470216127,1.819,0.7928906110407477,1.4429999999999998,-0.32633483811065783,1.0,0.5,1.2,1.25,3.2222222222222223,3.25,2.888888888888889,2.4444444444444446,2.125,3.7777777777777777,1.5,2.25,2.5,1.0,,,,,,,,,,,,
23,240709_141908,LEARNING,1.0,24,3.0,1750.0,,,,,,,,,,24.0,24.0,24.0,cue2.png,Hard,A,,,,,,,,,,,,,,,,,,,,,,,,,,,39,28,Female,0.75,0.8333333333333334,0.6259753999765962,-6.037446862770281e-05,-0.19657463339216,-0.0009631225550442817,-1.2427941576158121,0.00019210151193890844,0.07328291700755646,2.4423236550467128e-05,-0.32079467117302174,1.717,0.5298578351569414,1.699,0.26360275859938925,1.0,0.5,1.2,1.25,3.2222222222222223,3.25,2.888888888888889,2.4444444444444446,2.125,3.7777777777777777,1.5,2.25,2.5,1.0,,,,,,,,,,,,
24,240709_141927,LEARNING,1.0,25,1.0,1750.0,,,,,,,,,,25.0,25.0,25.0,cue1.png,Easy,A,,,,,,,,,,,,,,,,,,,,,,,,,,,39,28,Female,0.75,0.8333333333333334,0.4793179623666219,,,0.00033260672561222834,-0.007993610189495433,4.919061076236967e-05,-0.19694284955861782,0.00023140287367993256,-0.05518507501412456,2.1759999999999997,1.7135053266340703,2.036,1.040200298018474,1.0,0.5,1.2,1.25,3.2222222222222223,3.25,2.888888888888889,2.4444444444444446,2.125,3.7777777777777777,1.5,2.25,2.5,1.0,,,,,,,,,,,,
25,240709_141947,LEARNING,1.0,26,1.0,1750.0,,,,,,,,,,26.0,26.0,26.0,cue1.png,Easy,A,,,,,,,,,,,,,,,,,,,,,,,,,,,39,28,Female,1.0,1.0,0.5724534374894574,-3.3632417156508575e-05,-0.16387997363879173,0.001056417675119787,0.6817817696122568,0.0003487605359965571,0.3695045804144104,0.0006258903474382523,0.4510466492648746,0.3719999999999999,-2.9385645527226663,1.002,-1.3425945261931986,1.0,0.5,1.2,1.25,3.2222222222222223,3.25,2.888888888888889,2.4444444444444446,2.125,3.7777777777777777,1.5,2.25,2.5,1.0,,,,,,,,,,,,
26,240709_142007,LEARNING,1.0,27,3.0,1750.0,,,,,,,,,,27.0,27.0,27.0,cue2.png,Hard,A,,,,,,,,,,,,,,,,,,,,,,,,,,,39,28,Female,0.75,0.8333333333333334,0.5153098001028411,-0.00027325216079426666,-0.45683752765684077,0.0014166936076522672,1.0251165428221596,0.0001115667385197046,-0.07899777469107098,,,1.5710000000000002,0.15335994026443409,1.9110000000000003,0.752144830874897,1.0,0.5,1.2,1.25,3.2222222222222223,3.25,2.888888888888889,2.4444444444444446,2.125,3.7777777777777777,1.5,2.25,2.5,1.0,,,,,,,,,,,,
27,240709_142026,LEARNING,1.0,28,1.0,1750.0,,,,,,,,,,28.0,28.0,28.0,cue1.png,Easy,A,,,,,,,,,,,,,,,,,,,,,,,,,,,39,28,Female,1.0,1.0,0.4918754624668509,,,-0.00020490791439995836,-0.5202328422923754,0.0011511716363933233,1.8867587081318573,-0.0001521112872998752,-0.5473351378502508,1.4260000000000002,-0.22055920192333028,2.176,1.3628224212192808,1.0,0.5,1.2,1.25,3.2222222222222223,3.25,2.888888888888889,2.4444444444444446,2.125,3.7777777777777777,1.5,2.25,2.5,1.0,,,,,,,,,,,,
28,240709_142047,LEARNING,1.0,29,1.0,1750.0,,,,,,,,,,29.0,29.0,29.0,cue1.png,Easy,A,,,,,,,,,,,,,,,,,,,,,,,,,,,39,28,Female,1.0,1.0,0.5893150749616325,2.082418352908691e-05,-0.09730168465978707,0.0009634933440457981,0.5932269946354587,-0.0001400909348573667,-0.5548494217013487,,,0.9870000000000001,-1.3526316393055962,2.496,2.100244417106839,1.0,0.5,1.2,1.25,3.2222222222222223,3.25,2.888888888888889,2.4444444444444446,2.125,3.7777777777777777,1.5,2.25,2.5,1.0,,,,,,,,,,,,
29,240709_142106,LEARNING,1.0,30,3.0,1750.0,,,,,,,,,,30.0,30.0,30.0,cue2.png,Hard,A,,,,,,,,,,,,,,,,,,,,,,,,,,,39,28,Female,1.0,1.0,0.5003255499759689,,,,,,,,,1.478,-0.08646406127668423,1.1729999999999998,-0.9485346471407851,1.0,0.5,1.2,1.25,3.2222222222222223,3.25,2.888888888888889,2.4444444444444446,2.125,3.7777777777777777,1.5,2.25,2.5,1.0,,,,,,,,,,,,
30,240709_142124,LEARNING,1.0,31,3.0,1750.0,,,,,,,,,,31.0,31.0,31.0,cue2.png,Hard,A,,,,,,,,,,,,,,,,,,,,,,,,,,,39,28,Female,0.1666666666666666,0.6666666666666667,0.3308544000610709,0.00225369384930781,2.6325903759732245,,,,,,,,,,,1.0,0.5,1.2,1.25,3.2222222222222223,3.25,2.888888888888889,2.4444444444444446,2.125,3.7777777777777777,1.5,2.25,2.5,1.0,,,,,,,,,,,,
31,240709_142147,LEARNING,1.0,32,1.0,1750.0,,,,,,,,,,32.0,32.0,32.0,cue1.png,Easy,A,,,,,,,,,,,,,,,,,,,,,,,,,,,39,28,Female,0.875,0.75,0.4504338334469746,-0.0003072039855839684,-0.4983468097962825,-6.8139283556957475e-06,-0.33145377705015033,-0.00014049152733728752,-0.5556068895297372,,,1.336,-0.4526469453502187,0.7090000000000001,-2.0177965411777437,1.0,0.5,1.2,1.25,3.2222222222222223,3.25,2.888888888888889,2.4444444444444446,2.125,3.7777777777777777,1.5,2.25,2.5,1.0,,,,,,,,,,,,
32,240709_142210,LEARNING,1.0,33,1.0,1750.0,,,,,,,,,,33.0,33.0,33.0,cue1.png,Easy,A,,,,,,,,,,,,,,,,,,,,,,,,,,,39,28,Female,0.875,0.75,0.4119628500193357,0.0015720698128580063,1.7992412226575532,-0.0007900105145643918,-1.077822318558236,-4.860854349655495e-05,-0.38186822062247344,-0.00020081183267983997,-0.6098308131277153,1.678,0.42928647967195616,1.7800000000000002,0.4502627013084278,1.0,0.5,1.2,1.25,3.2222222222222223,3.25,2.888888888888889,2.4444444444444446,2.125,3.7777777777777777,1.5,2.25,2.5,1.0,,,,,,,,,,,,
33,240709_142229,LEARNING,1.0,34,1.0,1750.0,,,,,,,,,,34.0,34.0,34.0,cue1.png,Easy,A,,,,,,,,,,,,,,,,,,,,,,,,,,,39,28,Female,1.0,1.0,0.5335754374973476,0.0007191680944171712,0.7564890793702855,-0.00033680539022167,-0.6459281382003901,3.3593506733459177e-06,-0.2836037500797834,-6.993404478815085e-05,-0.4418800095115241,0.9940000000000002,-1.3345803703723935,1.3230000000000002,-0.6028680865684913,1.0,0.5,1.2,1.25,3.2222222222222223,3.25,2.888888888888889,2.4444444444444446,2.125,3.7777777777777777,1.5,2.25,2.5,1.0,,,,,,,,,,,,
34,240709_142248,LEARNING,1.0,35,3.0,1750.0,,,,,,,,,,35.0,35.0,35.0,cue2.png,Hard,A,,,,,,,,,,,,,,,,,,,,,,,,,,,39,28,Female,1.0,1.0,0.3597440374433063,-4.5073909050835116e-05,-0.17786826787862858,0.00013902841240424728,-0.192469341877806,,,0.0004639955622588042,0.24329283778801095,1.5560000000000003,0.11467864969328631,0.845,-1.704392192925532,1.0,0.5,1.2,1.25,3.2222222222222223,3.25,2.888888888888889,2.4444444444444446,2.125,3.7777777777777777,1.5,2.25,2.5,1.0,,,,,,,,,,,,
35,240709_142307,LEARNING,1.0,36,3.0,1750.0,,,,,,,,,,36.0,36.0,36.0,cue2.png,Hard,A,,,,,,,,,,,,,,,,,,,,,,,,,,,39,28,Female,1.0,1.0,0.4653317126212641,0.0005465832361186583,0.5454879440710282,-0.000642716206008075,-0.9374541910849048,-0.00021744289953361078,-0.7011118395991737,0.0005453320792579161,0.34766909302123605,0.952,-1.4428879839716087,1.6360000000000001,0.11842280315902637,1.0,0.5,1.2,1.25,3.2222222222222223,3.25,2.888888888888889,2.4444444444444446,2.125,3.7777777777777777,1.5,2.25,2.5,1.0,,,,,,,,,,,,
36,240709_142331,LEARNING,1.0,37,1.0,1750.0,,,,,,,,,,37.0,37.0,37.0,cue1.png,Easy,A,,,,,,,,,,,,,,,,,,,,,,,,,,,39,28,Female,0.2083333333333333,0.5833333333333334,0.639373033385103,,,8.785717995944686e-05,-0.24123436307367196,-0.00017660915427322775,-0.6239005840272555,0.0002720474774650103,-0.0030273026500718687,1.321,-0.49132823592136704,2.3779999999999997,1.8283200561233008,1.0,0.5,1.2,1.25,3.2222222222222223,3.25,2.888888888888889,2.4444444444444446,2.125,3.7777777777777777,1.5,2.25,2.5,1.0,,,,,,,,,,,,
37,240709_142351,LEARNING,1.0,38,3.0,1750.0,,,,,,,,,,38.0,38.0,38.0,cue2.png,Hard,A,,,,,,,,,,,,,,,,,,,,,,,,,,,39,28,Female,1.0,1.0,0.5496493998798542,-0.000681247099046843,-0.9556495092893323,0.000537817284726537,0.18756738740069645,-0.00028696359878236863,-0.8325663619067842,0.0003081874502917012,0.04334983725034569,1.103,-1.053496325555385,1.826,0.556267113217264,1.0,0.5,1.2,1.25,3.2222222222222223,3.25,2.888888888888889,2.4444444444444446,2.125,3.7777777777777777,1.5,2.25,2.5,1.0,,,,,,,,,,,,
38,240709_142409,LEARNING,1.0,39,3.0,1750.0,,,,,,,,,,39.0,39.0,39.0,cue2.png,Hard,A,,,,,,,,,,,,,,,,,,,,,,,,,,,39,28,Female,0.1666666666666666,0.6666666666666667,0.2901783000561408,0.0007691163968895432,0.8175555520136275,,,0.00018341770540857656,0.05686297803122513,,,2.2720000000000002,1.961065586289419,1.305,-0.6443480738371671,1.0,0.5,1.2,1.25,3.2222222222222223,3.25,2.888888888888889,2.4444444444444446,2.125,3.7777777777777777,1.5,2.25,2.5,1.0,,,,,,,,,,,,
39,240709_142428,LEARNING,1.0,40,3.0,1750.0,,,,,,,,,,40.0,40.0,40.0,cue2.png,Hard,A,,,,,,,,,,,,,,,,,,,,,,,,,,,39,28,Female,0.75,0.8333333333333334,0.5475213750614785,,,-0.0019177821672619983,-2.1525630648793412,0.0001095662655128146,-0.0827804067179589,0.003037832223705344,3.546205750898234,1.928,1.0739746558577568,1.4879999999999998,-0.2226348699389701,1.0,0.5,1.2,1.25,3.2222222222222223,3.25,2.888888888888889,2.4444444444444446,2.125,3.7777777777777777,1.5,2.25,2.5,1.0,,,,,,,,,,,,
40,240709_142448,LEARNING,1.0,41,1.0,1750.0,,,,,,,,,,41.0,41.0,41.0,cue1.png,Easy,A,,,,,,,,,,,,,,,,,,,,,,,,,,,39,28,Female,0.75,0.8333333333333334,0.4889026500168256,0.0017963464536703624,2.07344039806064,0.0021395702119903024,1.7140015129187087,,,,,1.724,0.5479091040901436,,,1.0,0.5,1.2,1.25,3.2222222222222223,3.25,2.888888888888889,2.4444444444444446,2.125,3.7777777777777777,1.5,2.25,2.5,1.0,,,,,,,,,,,,
41,240709_142508,LEARNING,1.0,42,3.0,1750.0,,,,,,,,,,42.0,42.0,42.0,cue2.png,Hard,A,,,,,,,,,,,,,,,,,,,,,,,,,,,39,28,Female,1.0,1.0,0.569905474956613,-0.0006597300169329983,-0.9293428633928787,0.0010528687894151628,0.6783997622159256,9.589437802126231e-05,-0.1086321524378139,,,,,,,1.0,0.5,1.2,1.25,3.2222222222222223,3.25,2.888888888888889,2.4444444444444446,2.125,3.7777777777777777,1.5,2.25,2.5,1.0,,,,,,,,,,,,
42,240709_142529,LEARNING,1.0,43,3.0,1750.0,,,,,,,,,,43.0,43.0,43.0,cue2.png,Hard,A,,,,,,,,,,,,,,,,,,,,,,,,,,,39,28,Female,0.1666666666666666,0.6666666666666667,0.6812013624585234,-0.00045239677259224266,-0.6758585753013394,-0.0014482415195602111,-1.70510150213121,,,0.00034250931674951286,0.08739386600461767,1.151,-0.9297161957277112,1.3139999999999998,-0.6236080802028298,1.0,0.5,1.2,1.25,3.2222222222222223,3.25,2.888888888888889,2.4444444444444446,2.125,3.7777777777777777,1.5,2.25,2.5,1.0,,,,,,,,,,,,
43,240709_142549,LEARNING,1.0,44,1.0,1750.0,,,,,,,,,,44.0,44.0,44.0,cue1.png,Easy,A,,,,,,,,,,,,,,,,,,,,,,,,,,,39,28,Female,1.0,1.0,0.4983241750160232,0.00013188313634388514,0.03847827518197958,0.0015217046272697002,1.125189657202737,,,-0.00019225015529856625,-0.598843917492854,1.1839999999999997,-0.8446173564711864,1.934,0.8051470368293145,1.0,0.5,1.2,1.25,3.2222222222222223,3.25,2.888888888888889,2.4444444444444446,2.125,3.7777777777777777,1.5,2.25,2.5,1.0,,,,,,,,,,,,
44,240709_142608,LEARNING,1.0,45,1.0,1750.0,,,,,,,,,,45.0,45.0,45.0,cue1.png,Easy,A,,,,,,,,,,,,,,,,,,,,,,,,,,,39,28,Female,1.0,1.0,0.5066934124333784,-0.00020678475786956117,-0.3755749092801574,0.0012492691285340652,0.8655648204415599,,,0.00022946797933386196,-0.0576680560116634,2.077,1.458208808864494,2.012,0.984893648326907,1.0,0.5,1.2,1.25,3.2222222222222223,3.25,2.888888888888889,2.4444444444444446,2.125,3.7777777777777777,1.5,2.25,2.5,1.0,,,,,,,,,,,,
45,240709_142628,LEARNING,1.0,46,1.0,1750.0,,,,,,,,,,46.0,46.0,46.0,cue1.png,Easy,A,,,,,,,,,,,,,,,,,,,,,,,,,,,39,28,Female,1.0,1.0,0.502927124965936,0.00020829706588662133,0.13190145288802588,0.00017955386837713132,-0.15384950363917024,,,0.0002505472773707187,-0.030617743640207914,1.858,0.893461966525733,1.7919999999999998,0.47791602615421025,1.0,0.5,1.2,1.25,3.2222222222222223,3.25,2.888888888888889,2.4444444444444446,2.125,3.7777777777777777,1.5,2.25,2.5,1.0,,,,,,,,,,,,
46,240709_142647,LEARNING,1.0,47,3.0,1750.0,,,,,,,,,,47.0,47.0,47.0,cue2.png,Hard,A,,,,,,,,,,,,,,,,,,,,,,,,,,,39,28,Female,0.1666666666666666,0.6666666666666667,0.4950133124948479,0.00040381472218785873,0.37094007920398553,0.0012412007282911986,0.8578758184366825,3.3937600503520116e-05,-0.225784291014142,0.00010551393571544155,-0.21673386521084298,,,2.181,1.3743446399050236,1.0,0.5,1.2,1.25,3.2222222222222223,3.25,2.888888888888889,2.4444444444444446,2.125,3.7777777777777777,1.5,2.25,2.5,1.0,,,,,,,,,,,,
47,240709_142705,LEARNING,1.0,48,3.0,1750.0,,,,,,,,,,48.0,48.0,48.0,cue2.png,Hard,A,,,,,,,,,,,,,,,,,,,,,,,,,,,39,28,Female,0.1666666666666666,0.6666666666666667,0.2454587875399738,-0.0005759683212234953,-0.8269363541339588,0.0014049749017010114,1.0139488824630396,4.170588755177942e-05,-0.21109547927731856,0.00010562330777254486,-0.21659351194555965,1.514,0.006371036094071143,1.0330000000000001,-1.2711567703415911,1.0,0.5,1.2,1.25,3.2222222222222223,3.25,2.888888888888889,2.4444444444444446,2.125,3.7777777777777777,1.5,2.25,2.5,1.0,,,,,,,,,,,,
48,240709_142725,LEARNING,1.0,49,1.0,1750.0,,,,,,,,,,49.0,49.0,49.0,cue1.png,Easy,A,,,,,,,,,,,,,,,,,,,,,,,,,,,39,28,Female,0.75,0.8333333333333334,0.5371303625870496,,,,,,,0.0012369107435601613,1.2351473603762566,,,,,1.0,0.5,1.2,1.25,3.2222222222222223,3.25,2.888888888888889,2.4444444444444446,2.125,3.7777777777777777,1.5,2.25,2.5,1.0,,,,,,,,,,,,
49,240709_142744,LEARNING,1.0,50,1.0,1750.0,,,,,,,,,,50.0,50.0,50.0,cue1.png,Easy,A,,,,,,,,,,,,,,,,,,,,,,,,,,,39,28,Female,1.0,1.0,0.5401962875039317,-0.0004292476362267768,-0.6475565903968346,-0.0012540874226056034,-1.5200770616222006,8.66472897490902e-05,-0.12611718329466928,,,1.819,0.7928906110407477,0.7550000000000001,-1.9117921292689073,1.0,0.5,1.2,1.25,3.2222222222222223,3.25,2.888888888888889,2.4444444444444446,2.125,3.7777777777777777,1.5,2.25,2.5,1.0,,,,,,,,,,,,
0,240709_142851,TrueCHOICE,9.0,1,1.0,1750.0,,,,,,,,,,,1.0,1.0,,,A,,,,,,True,cue1.png,Easy,cue2.png,Hard,Left,Easy,Easy,0.0168240000493824,,,,,,,,,,,,,39,28,Female,0.75,0.7083333333333334,0.365495042808886,,,,,,,,,,,,,1.0,0.5,1.2,1.25,3.2222222222222223,3.25,2.888888888888889,2.4444444444444446,2.125,3.7777777777777777,1.5,2.25,2.5,1.0,,,,,1.466,0.4541420938363434,,,,,,
1,240709_142910,TrueCHOICE,9.0,2,1.0,1750.0,,,,,,,,,,,2.0,2.0,,,A,,,,,,True,cue1.png,Easy,cue2.png,Hard,Left,Easy,Easy,0.0172530999407172,,,,,,,,,,,,,39,28,Female,,,,,,,,,,,,,,,,1.0,0.5,1.2,1.25,3.2222222222222223,3.25,2.888888888888889,2.4444444444444446,2.125,3.7777777777777777,1.5,2.25,2.5,1.0,,,-5.8244441159460356e-05,-0.6118316063194794,0.9519999999999997,-1.590491800165529,,,,,,
2,240709_142930,TrueCHOICE,9.0,3,3.0,1750.0,,,,,,,,,,,3.0,3.0,,,A,,,,,,True,cue2.png,Hard,cue1.png,Easy,Left,Hard,Hard,0.0172317000105977,,,,,,,,,,,,,39,28,Female,0.75,0.7083333333333334,0.3921807713673583,,,,,,,,,,,,,1.0,0.5,1.2,1.25,3.2222222222222223,3.25,2.888888888888889,2.4444444444444446,2.125,3.7777777777777777,1.5,2.25,2.5,1.0,0.000661176415228064,-0.22776688170703774,,,1.5959999999999999,0.9712673977667774,,,,,,
3,240709_142947,TrueCHOICE,9.0,4,1.0,1750.0,,,,,,,,,,,4.0,4.0,,,A,,,,,,True,cue1.png,Easy,cue2.png,Hard,Left,Easy,Easy,0.016786599997431,,,,,,,,,,,,,39,28,Female,1.0,1.0,0.4414356250199489,,,,,,,,,,,,,1.0,0.5,1.2,1.25,3.2222222222222223,3.25,2.888888888888889,2.4444444444444446,2.125,3.7777777777777777,1.5,2.25,2.5,1.0,0.0012683374117554193,0.9723252497344386,,,1.573,0.879775997840624,,,,,,
4,240709_143005,TrueCHOICE,9.0,5,1.0,1750.0,,,,,,,,,,,5.0,5.0,,,A,,,,,,True,cue2.png,Hard,cue1.png,Easy,Right,Easy,Easy,0.015529700089246,,,,,,,,,,,,,39,28,Female,0.1666666666666666,0.6666666666666667,0.0815512875560671,,,,,,,,,,,,,1.0,0.5,1.2,1.25,3.2222222222222223,3.25,2.888888888888889,2.4444444444444446,2.125,3.7777777777777777,1.5,2.25,2.5,1.0,0.0005508148203773365,-0.4459035577306977,-8.761251938554102e-05,-0.651893941163267,,,,,,,,
5,240709_143022,TrueCHOICE,9.0,6,1.0,1750.0,,,,,,,,,,,6.0,6.0,,,A,,,,,,True,cue2.png,Hard,cue1.png,Easy,Right,Easy,Easy,0.0160168996080756,,,,,,,,,,,,,39,28,Female,1.0,1.0,0.5231534623890184,,,,,,,,,,,,,1.0,0.5,1.2,1.25,3.2222222222222223,3.25,2.888888888888889,2.4444444444444446,2.125,3.7777777777777777,1.5,2.25,2.5,1.0,-3.6013490266455575e-05,-1.605806848848937,5.905444544953295e-05,-0.45181884566291947,1.4639999999999997,0.44618631992972047,,,,,,
6,240709_143039,TrueCHOICE,9.0,7,1.0,1750.0,,,,,,,,,,,7.0,7.0,,,A,,,,,,True,cue1.png,Easy,cue2.png,Hard,Left,Easy,Easy,0.0167702999897301,,,,,,,,,,,,,39,28,Female,,,,,,,,,,,,,,,,1.0,0.5,1.2,1.25,3.2222222222222223,3.25,2.888888888888889,2.4444444444444446,2.125,3.7777777777777777,1.5,2.25,2.5,1.0,,,1.4985138245465334e-05,-0.5119357974073211,,,,,,,,
7,240709_143058,TrueCHOICE,9.0,8,1.0,1750.0,,,,,,,,,,,8.0,8.0,,,A,,,,,,True,cue2.png,Hard,cue1.png,Easy,Right,Easy,Easy,0.01708609983325,,,,,,,,,,,,,39,28,Female,1.0,1.0,0.6018131374148652,,,,,,,,,,,,,1.0,0.5,1.2,1.25,3.2222222222222223,3.25,2.888888888888889,2.4444444444444446,2.125,3.7777777777777777,1.5,2.25,2.5,1.0,,,0.0008499505889797859,0.6270786526633753,1.06,-1.160880009207936,,,,,,
8,240709_143116,TrueCHOICE,9.0,9,1.0,1750.0,,,,,,,,,,,9.0,9.0,,,A,,,,,,True,cue1.png,Easy,cue2.png,Hard,Left,Easy,Easy,0.0169215998612344,,,,,,,,,,,,,39,28,Female,1.0,1.0,0.5917725623585284,,,,,,,,,,,,,1.0,0.5,1.2,1.25,3.2222222222222223,3.25,2.888888888888889,2.4444444444444446,2.125,3.7777777777777777,1.5,2.25,2.5,1.0,0.0006881994036918348,-0.17435423496443048,-6.766787092976406e-05,-0.6246865366260719,,,,,,,,
9,240709_143133,TrueCHOICE,9.0,10,1.0,1750.0,,,,,,,,,,,10.0,10.0,,,A,,,,,,True,cue2.png,Hard,cue1.png,Easy,Right,Easy,Easy,0.0172617998905479,,,,,,,,,,,,,39,28,Female,1.0,1.0,0.3957246750360355,,,,,,,,,,,,,1.0,0.5,1.2,1.25,3.2222222222222223,3.25,2.888888888888889,2.4444444444444446,2.125,3.7777777777777777,1.5,2.25,2.5,1.0,0.001525946681671303,1.4815062735166649,0.002021386699480217,2.225088074515684,,,,,,,,
0,240709_143253,FalseCHOICE,9.0,1,2.0,1750.0,,,,,,,,,,,1.0,1.0,,,A,,,,,,False,cue1.png,Easy,cue2.png,Hard,Left,Easy,Mid,0.0162717001512646,,,,,,,,,,,,,39,28,Female,1.0,1.0,0.5557303625391796,,,,,,,,,,,,,1.0,0.5,1.2,1.25,3.2222222222222223,3.25,2.888888888888889,2.4444444444444446,2.125,3.7777777777777777,1.5,2.25,2.5,1.0,,,,,1.466,0.4541420938363434,,,,,,
1,240709_143310,FalseCHOICE,9.0,2,2.0,1750.0,,,,,,,,,,,2.0,2.0,,,A,,,,,,False,cue2.png,Hard,cue1.png,Easy,Left,Hard,Mid,0.0158224999904632,,,,,,,,,,,,,39,28,Female,,,,,,,,,,,,,,,,1.0,0.5,1.2,1.25,3.2222222222222223,3.25,2.888888888888889,2.4444444444444446,2.125,3.7777777777777777,1.5,2.25,2.5,1.0,,,-5.8244441159460356e-05,-0.6118316063194794,0.9519999999999997,-1.590491800165529,,,,,,
2,240709_143325,FalseCHOICE,9.0,3,2.0,1750.0,,,,,,,,,,,3.0,3.0,,,A,,,,,,False,cue2.png,Hard,cue1.png,Easy,Right,Easy,Mid,0.0153431999497115,,,,,,,,,,,,,39,28,Female,,,,,,,,,,,,,,,,1.0,0.5,1.2,1.25,3.2222222222222223,3.25,2.888888888888889,2.4444444444444446,2.125,3.7777777777777777,1.5,2.25,2.5,1.0,0.000661176415228064,-0.22776688170703774,,,1.5959999999999999,0.9712673977667774,,,,,,
3,240709_143341,FalseCHOICE,9.0,4,2.0,1750.0,,,,,,,,,,,4.0,4.0,,,A,,,,,,False,cue2.png,Hard,cue1.png,Easy,Left,Hard,Mid,0.0157305002212524,,,,,,,,,,,,,39,28,Female,0.1666666666666666,0.6666666666666667,0.2464640373364091,,,,,,,,,,,,,1.0,0.5,1.2,1.25,3.2222222222222223,3.25,2.888888888888889,2.4444444444444446,2.125,3.7777777777777777,1.5,2.25,2.5,1.0,0.0012683374117554193,0.9723252497344386,,,1.573,0.879775997840624,,,,,,
4,240709_143354,FalseCHOICE,9.0,5,2.0,1750.0,,,,,,,,,,,5.0,5.0,,,A,,,,,,False,cue1.png,Easy,cue2.png,Hard,Right,Hard,Mid,0.016568100079894,,,,,,,,,,,,,39,28,Female,,,,,,,,,,,,,,,,1.0,0.5,1.2,1.25,3.2222222222222223,3.25,2.888888888888889,2.4444444444444446,2.125,3.7777777777777777,1.5,2.25,2.5,1.0,0.0005508148203773365,-0.4459035577306977,-8.761251938554102e-05,-0.651893941163267,,,,,,,,
5,240709_143411,FalseCHOICE,9.0,6,2.0,1750.0,,,,,,,,,,,6.0,6.0,,,A,,,,,,False,cue2.png,Hard,cue1.png,Easy,Left,Hard,Mid,0.0161536000669002,,,,,,,,,,,,,39,28,Female,0.75,0.8333333333333334,0.3807247499353252,,,,,,,,,,,,,1.0,0.5,1.2,1.25,3.2222222222222223,3.25,2.888888888888889,2.4444444444444446,2.125,3.7777777777777777,1.5,2.25,2.5,1.0,-3.6013490266455575e-05,-1.605806848848937,5.905444544953295e-05,-0.45181884566291947,1.4639999999999997,0.44618631992972047,,,,,,
6,240709_143428,FalseCHOICE,9.0,7,2.0,1750.0,,,,,,,,,,,7.0,7.0,,,A,,,,,,False,cue2.png,Hard,cue1.png,Easy,Right,Easy,Mid,0.0170614002272486,,,,,,,,,,,,,39,28,Female,0.75,0.8333333333333334,0.4696075874380767,,,,,,,,,,,,,1.0,0.5,1.2,1.25,3.2222222222222223,3.25,2.888888888888889,2.4444444444444446,2.125,3.7777777777777777,1.5,2.25,2.5,1.0,,,1.4985138245465334e-05,-0.5119357974073211,,,,,,,,
7,240709_143445,FalseCHOICE,9.0,8,2.0,1750.0,,,,,,,,,,,8.0,8.0,,,A,,,,,,False,cue1.png,Easy,cue2.png,Hard,Right,Hard,Mid,0.0165468999184668,,,,,,,,,,,,,39,28,Female,,,,,,,,,,,,,,,,1.0,0.5,1.2,1.25,3.2222222222222223,3.25,2.888888888888889,2.4444444444444446,2.125,3.7777777777777777,1.5,2.25,2.5,1.0,,,0.0008499505889797859,0.6270786526633753,1.06,-1.160880009207936,,,,,,
8,240709_143500,FalseCHOICE,9.0,9,2.0,1750.0,,,,,,,,,,,9.0,9.0,,,A,,,,,,False,cue1.png,Easy,cue2.png,Hard,Left,Easy,Mid,0.0162422000430524,,,,,,,,,,,,,39,28,Female,1.0,1.0,0.4260439500212669,,,,,,,,,,,,,1.0,0.5,1.2,1.25,3.2222222222222223,3.25,2.888888888888889,2.4444444444444446,2.125,3.7777777777777777,1.5,2.25,2.5,1.0,0.0006881994036918348,-0.17435423496443048,-6.766787092976406e-05,-0.6246865366260719,,,,,,,,
9,240709_143516,FalseCHOICE,9.0,10,2.0,1750.0,,,,,,,,,,,10.0,10.0,,,A,,,,,,False,cue2.png,Hard,cue1.png,Easy,Right,Easy,Mid,0.0170524003915488,,,,,,,,,,,,,39,28,Female,,,,,,,,,,,,,,,,1.0,0.5,1.2,1.25,3.2222222222222223,3.25,2.888888888888889,2.4444444444444446,2.125,3.7777777777777777,1.5,2.25,2.5,1.0,0.001525946681671303,1.4815062735166649,0.002021386699480217,2.225088074515684,,,,,,,,
0,240709_141109,OFFLINERATING,9.0,1,1.0,,,,,,,,,,,,,,,,,T0,cue1.png,Easy,8.0,0.7848474001511931,,,,,,,,,,,,,,,,,,,,,,39,28,Female,,,,,,,,,,,,,,,,1.0,0.5,1.2,1.25,3.2222222222222223,3.25,2.888888888888889,2.4444444444444446,2.125,3.7777777777777777,1.5,2.25,2.5,1.0,,,,,,,,,-0.00022945073029728572,-1.0,1.406,1.3770496042511884
1,240709_141116,OFFLINERATING,9.0,2,3.0,,,,,,,,,,,,,,,,,T0,cue2.png,Hard,9.0,0.7513000001199543,,,,,,,,,,,,,,,,,,,,,,39,28,Female,,,,,,,,,,,,,,,,1.0,0.5,1.2,1.25,3.2222222222222223,3.25,2.888888888888889,2.4444444444444446,2.125,3.7777777777777777,1.5,2.25,2.5,1.0,,,,,,,,,0.00011086375176583198,1.0,1.0949999999999998,-0.9674527329137
2,240709_142802,OFFLINERATING,9.0,3,1.0,,,,,,,,,,,,,,,,,T1,cue1.png,Easy,54.0,0.94899920001626,,,,,,,,,,,,,,,,,,,,,,39,28,Female,,,,,,,,,,,,,,,,1.0,0.5,1.2,1.25,3.2222222222222223,3.25,2.888888888888889,2.4444444444444446,2.125,3.7777777777777777,1.5,2.25,2.5,1.0,,,,,,,0.00015111522753496944,-0.0819840964663072,,,,
3,240709_142808,OFFLINERATING,9.0,4,3.0,,,,,,,,,,,,,,,,,T1,cue2.png,Hard,44.0,0.6514698001556098,,,,,,,,,,,,,,,,,,,,,,39,28,Female,,,,,,,,,,,,,,,,1.0,0.5,1.2,1.25,3.2222222222222223,3.25,2.888888888888889,2.4444444444444446,2.125,3.7777777777777777,1.5,2.25,2.5,1.0,,,,,,,0.0005795126508932984,1.6291289764425638,,,,
4,240709_143147,OFFLINERATING,9.0,5,1.0,,,,,,,,,,,,,,,,,T2,cue1.png,Easy,57.0,2.0523737999610603,,,,,,,,,,,,,,,,,,,,,,39,28,Female,,,,,,,,,,,,,,,,1.0,0.5,1.2,1.25,3.2222222222222223,3.25,2.888888888888889,2.4444444444444446,2.125,3.7777777777777777,1.5,2.25,2.5,1.0,,,,,,,,,,,,
5,240709_143154,OFFLINERATING,9.0,6,3.0,,,,,,,,,,,,,,,,,T2,cue2.png,Hard,33.0,1.101710899733007,,,,,,,,,,,,,,,,,,,,,,39,28,Female,,,,,,,,,,,,,,,,1.0,0.5,1.2,1.25,3.2222222222222223,3.25,2.888888888888889,2.4444444444444446,2.125,3.7777777777777777,1.5,2.25,2.5,1.0,,,,,,,,,,,1.169,-0.40959687133748673
6,240709_144630,OFFLINERATING,9.0,7,1.0,,,,,,,,,,,,,,,,,T3,cue1.png,Easy,52.0,1.7128093000501394,,,,,,,,,,,,,,,,,,,,,,39,28,Female,,,,,,,,,,,,,,,,1.0,0.5,1.2,1.25,3.2222222222222223,3.25,2.888888888888889,2.4444444444444446,2.125,3.7777777777777777,1.5,2.25,2.5,1.0,,,,,,,4.4770127295486184e-05,-0.5067497027416239,,,,
7,240709_144637,OFFLINERATING,9.0,8,3.0,,,,,,,,,,,,,,,,,T3,cue2.png,Hard,42.0,0.9516199002973736,,,,,,,,,,,,,,,,,,,,,,39,28,Female,,,,,,,,,,,,,,,,1.0,0.5,1.2,1.25,3.2222222222222223,3.25,2.888888888888889,2.4444444444444446,2.125,3.7777777777777777,1.5,2.25,2.5,1.0,,,,,,,-8.88343374702465e-05,-1.0403951772346327,,,,
