,END,Phase,Block,TrialN,NbackLevel,ISI,Letter_Resp,Letter_RT,Letter_Accuracy,Trial_A_measure,Trial_ACC,Trial_RT,TrialCountCali,CaliEnd_A_measure,ISI_calibrated,TrialIndex,TrialNumber_total,TrialNumber_valid,CueLearning,TrialDemandLearning,CueMapping,OfflineRatingTimePoint,CueFigure,TrialDemand,OfflineRating,OfflineRatingRT,PhaseType,CueLeft,CueDemandLeft,CueRight,CueDemandRight,Choice,ChoiceDemand,TaskDemand,ChoiceRT,CueCheck,CueDemandCheck,CorrectAnswer,Answer,AnswerDemand,AnswerRT,AnswerACC,DemandRatingQuesIndex,QuesTLX,DemandLevel,DemandRating,DemandRatingRT,PID,Age,Gender,Task_A_measure,Task_ACC,Task_RT,cue_i_on_zyg_values,cue_i_on_zyg_zvalues,cue_e_on_zyg_values,cue_e_on_zyg_zvalues,cue_i_on_cor_values,cue_i_on_cor_zvalues,cue_e_on_cor_values,cue_e_on_cor_zvalues,cue_i_on_scr_values,cue_i_on_scr_zvalues,cue_e_on_scr_values,cue_e_on_scr_zvalues,BAI_bis,BAI_bas_d,BAI_bas_rr,BAI_bas_fs,NFC,BFI_ext,BFI_agr,BFI_con,BFI_neu,BFI_open,UPPS_lps,UPPS_lpm,UPPS_pu,UPPS_ss,cue_e_true_zyg_values,cue_e_true_zyg_zvalues,cue_e_true_cor_values,cue_e_true_cor_zvalues,cue_e_true_scr_values,cue_e_true_scr_zvalues,cue_i_off_zyg_values,cue_i_off_zyg_zvalues,cue_i_off_cor_values,cue_i_off_cor_zvalues,cue_i_off_scr_values,cue_i_off_scr_zvalues
0,240710_092838,LEARNING,1.0,1,1.0,361.0,,,,,,,,,,1.0,1.0,1.0,cue2.png,Easy,B,,,,,,,,,,,,,,,,,,,,,,,,,,,40,29,Female,1.0,0.9444444444444444,0.5980022470586632,-0.00014364749730294167,-0.4993162959518509,-0.00011454621579370374,-0.7309098689734289,1.326861657336472e-05,-0.01676961161509766,-3.975328751606609e-05,-0.14490037454517576,1.408,-0.18167325752230223,1.3829999999999998,-0.029197461359519134,0.2857142857142857,0.5,0.2,1.0,1.6666666666666667,2.25,3.0,2.5555555555555554,3.0,1.7777777777777777,2.0,2.25,1.25,1.0,,,,,,,,,,,,
1,240710_092909,LEARNING,1.0,2,3.0,361.0,,,,,,,,,,2.0,2.0,2.0,cue1.png,Hard,B,,,,,,,,,,,,,,,,,,,,,,,,,,,40,29,Female,0.8680555555555555,0.75,0.5686316599986942,-0.00030368684510265285,-0.9148849293627963,0.0001818013725021399,0.6064792372622999,0.0003792472588759455,2.3084188039362217,2.9144693971302777e-05,0.20315706392645455,1.453,-0.10117802957395883,1.449,0.10569481012145822,0.2857142857142857,0.5,0.2,1.0,1.6666666666666667,2.25,3.0,2.5555555555555554,3.0,1.7777777777777777,2.0,2.25,1.25,1.0,,,,,,,,,,,,
2,240710_092939,LEARNING,1.0,3,1.0,361.0,,,,,,,,,,3.0,3.0,3.0,cue2.png,Easy,B,,,,,,,,,,,,,,,,,,,,,,,,,,,40,29,Female,0.8,0.8461538461538461,0.5607029000008575,0.0003350491381804814,0.7436986835594726,0.00031299403255566523,1.1985395114242574,-0.00026572863608137877,-1.7893352885682074,-3.4934382187741444e-05,-0.12055632543654608,1.1150000000000002,-0.7057866306081804,1.1620000000000001,-0.480882188591274,0.2857142857142857,0.5,0.2,1.0,1.6666666666666667,2.25,3.0,2.5555555555555554,3.0,1.7777777777777777,2.0,2.25,1.25,1.0,,,,,,,,,,,,
3,240710_093008,LEARNING,1.0,4,3.0,361.0,,,,,,,,,,4.0,4.0,4.0,cue1.png,Hard,B,,,,,,,,,,,,,,,,,,,,,,,,,,,40,29,Female,0.6666666666666666,0.5555555555555556,0.396601707692473,-0.0001281333756021309,-0.45903131327468044,0.00016438092054361008,0.5278623576412572,8.231841518998749e-05,0.4219275506820985,8.849274281956705e-05,0.5029703445840749,1.578,0.12241982583810547,1.595,0.40409286521574,0.2857142857142857,0.5,0.2,1.0,1.6666666666666667,2.25,3.0,2.5555555555555554,3.0,1.7777777777777777,2.0,2.25,1.25,1.0,,,,,,,,,,,,
4,240710_093038,LEARNING,1.0,5,3.0,361.0,,,,,,,,,,5.0,5.0,5.0,cue1.png,Hard,B,,,,,,,,,,,,,,,,,,,,,,,,,,,40,29,Female,0.5692307692307692,0.6239316239316239,0.4403322357143874,-0.00016444457222083942,-0.5533193403368607,0.00018881894811907099,0.6381489034007665,0.00024183817348163864,1.4354115389762376,-0.0001170371402834402,-0.5353213890470638,1.551,0.07412268906909934,1.545,0.3019017504574242,0.2857142857142857,0.5,0.2,1.0,1.6666666666666667,2.25,3.0,2.5555555555555554,3.0,1.7777777777777777,2.0,2.25,1.25,1.0,,,,,,,,,,,,
5,240710_093108,LEARNING,1.0,6,1.0,361.0,,,,,,,,,,6.0,6.0,6.0,cue2.png,Easy,B,,,,,,,,,,,,,,,,,,,,,,,,,,,40,29,Female,0.95,0.8333333333333334,0.4944006200016398,0.00018913996766869133,0.3648213922848663,1.599085854598649e-05,-0.14180819216982615,1.3889752274376908e-05,-0.012823322489064957,4.3137684900741106e-05,0.2738465743346797,,,,,0.2857142857142857,0.5,0.2,1.0,1.6666666666666667,2.25,3.0,2.5555555555555554,3.0,1.7777777777777777,2.0,2.25,1.25,1.0,,,,,,,,,,,,
6,240710_093138,LEARNING,1.0,7,3.0,361.0,,,,,,,,,,7.0,7.0,7.0,cue1.png,Hard,B,,,,,,,,,,,,,,,,,,,,,,,,,,,40,29,Female,0.6666666666666666,0.7222222222222223,0.5029275562501425,7.258373080077122e-05,0.06216384752066911,6.659622890937402e-05,0.08656913808013328,0.00033495856222332107,2.027037454061143,2.9551139679779518e-05,0.20521033818959297,,,1.449,0.10569481012145822,0.2857142857142857,0.5,0.2,1.0,1.6666666666666667,2.25,3.0,2.5555555555555554,3.0,1.7777777777777777,2.0,2.25,1.25,1.0,,,,,,,,,,,,
7,240710_093207,LEARNING,1.0,8,3.0,361.0,,,,,,,,,,8.0,8.0,8.0,cue1.png,Hard,B,,,,,,,,,,,,,,,,,,,,,,,,,,,40,29,Female,0.7153846153846154,0.6794871794871795,0.4590690266665964,,,,,-0.00037297293060079657,-2.470695243568963,,,,,2.015,1.2624982291855926,0.2857142857142857,0.5,0.2,1.0,1.6666666666666667,2.25,3.0,2.5555555555555554,3.0,1.7777777777777777,2.0,2.25,1.25,1.0,,,,,,,,,,,,
8,240710_093238,LEARNING,1.0,9,1.0,361.0,,,,,,,,,,9.0,9.0,9.0,cue2.png,Easy,B,,,,,,,,,,,,,,,,,,,,,,,,,,,40,29,Female,1.0,0.8888888888888888,0.5796387062491704,3.928875212447355e-05,-0.024292070840556308,,,,,-1.3437993859844507e-05,-0.011961302820811854,,,0.32899999999999996,-2.183386160464815,0.2857142857142857,0.5,0.2,1.0,1.6666666666666667,2.25,3.0,2.5555555555555554,3.0,1.7777777777777777,2.0,2.25,1.25,1.0,,,,,,,,,,,,
9,240710_093308,LEARNING,1.0,10,1.0,361.0,,,,,,,,,,10.0,10.0,10.0,cue2.png,Easy,B,,,,,,,,,,,,,,,,,,,,,,,,,,,40,29,Female,0.9153846153846156,0.8675213675213675,0.5464992294124814,,,,,0.00010440193815363773,0.5622317811327588,-0.00010616719301832344,-0.4804088078691689,,,0.7050000000000001,-1.41490897748228,0.2857142857142857,0.5,0.2,1.0,1.6666666666666667,2.25,3.0,2.5555555555555554,3.0,1.7777777777777777,2.0,2.25,1.25,1.0,,,,,,,,,,,,
10,240710_093338,LEARNING,1.0,11,3.0,361.0,,,,,,,,,,11.0,11.0,11.0,cue1.png,Hard,B,,,,,,,,,,,,,,,,,,,,,,,,,,,40,29,Female,0.5833333333333334,0.6388888888888888,0.5342279749997942,,,,,-9.209580941270737e-05,-0.6861861140990777,1.3684458423941087e-06,0.06283757175275771,,,,,0.2857142857142857,0.5,0.2,1.0,1.6666666666666667,2.25,3.0,2.5555555555555554,3.0,1.7777777777777777,2.0,2.25,1.25,1.0,,,,,,,,,,,,
11,240710_093407,LEARNING,1.0,12,1.0,361.0,,,,,,,,,,12.0,12.0,12.0,cue2.png,Easy,B,,,,,,,,,,,,,,,,,,,,,,,,,,,40,29,Female,0.9153846153846156,0.9230769230769232,0.5249127833319815,,,-0.00065879653413303,-3.1870609414286086,-8.175463153220703e-05,-0.6204850478849049,,,1.6649999999999998,0.2780439332049018,2.542,2.33959257873824,0.2857142857142857,0.5,0.2,1.0,1.6666666666666667,2.25,3.0,2.5555555555555554,3.0,1.7777777777777777,2.0,2.25,1.25,1.0,,,,,,,,,,,,
12,240710_093438,LEARNING,1.0,13,1.0,361.0,,,,,,,,,,13.0,13.0,13.0,cue2.png,Easy,B,,,,,,,,,,,,,,,,,,,,,,,,,,,40,29,Female,0.9153846153846156,0.811965811965812,0.5448047312511335,0.0001036498091776224,0.14283205764523363,,,0.0002860877166740404,1.7165441334278697,-0.0006986676940866866,-3.4735909337173587,,,0.9250000000000003,-0.9652680725456904,0.2857142857142857,0.5,0.2,1.0,1.6666666666666667,2.25,3.0,2.5555555555555554,3.0,1.7777777777777777,2.0,2.25,1.25,1.0,,,,,,,,,,,,
13,240710_093508,LEARNING,1.0,14,1.0,361.0,,,,,,,,,,14.0,14.0,14.0,cue2.png,Easy,B,,,,,,,,,,,,,,,,,,,,,,,,,,,40,29,Female,0.648076923076923,0.547008547008547,0.5146930857154075,1.851725068001582e-05,-0.07822870947251126,,,,,-2.9709860364296025e-05,-0.0941631910681478,,,,,0.2857142857142857,0.5,0.2,1.0,1.6666666666666667,2.25,3.0,2.5555555555555554,3.0,1.7777777777777777,2.0,2.25,1.25,1.0,,,,,,,,,,,,
14,240710_093540,LEARNING,1.0,15,3.0,361.0,,,,,,,,,,15.0,15.0,15.0,cue1.png,Hard,B,,,,,,,,,,,,,,,,,,,,,,,,,,,40,29,Female,0.85,0.6452991452991453,0.5817785692303844,,,-0.0001807313753085498,-1.0295973387741426,0.00013422034975342674,0.7516784242093992,3.644645970591817e-05,0.24004397734606003,,,,,0.2857142857142857,0.5,0.2,1.0,1.6666666666666667,2.25,3.0,2.5555555555555554,3.0,1.7777777777777777,2.0,2.25,1.25,1.0,,,,,,,,,,,,
15,240710_093610,LEARNING,1.0,16,1.0,361.0,,,,,,,,,,16.0,16.0,16.0,cue2.png,Easy,B,,,,,,,,,,,,,,,,,,,,,,,,,,,40,29,Female,0.8680555555555555,0.861111111111111,0.5714422999996768,,,,,,,,,,,,,0.2857142857142857,0.5,0.2,1.0,1.6666666666666667,2.25,3.0,2.5555555555555554,3.0,1.7777777777777777,2.0,2.25,1.25,1.0,,,,,,,,,,,,
16,240710_093642,LEARNING,1.0,17,1.0,361.0,,,,,,,,,,17.0,17.0,17.0,cue2.png,Easy,B,,,,,,,,,,,,,,,,,,,,,,,,,,,40,29,Female,1.0,0.9444444444444444,0.6344046235295965,0.0002162103662965019,0.43511415914697343,0.00020865200129743756,0.7276536279597595,3.952268987262924e-05,0.15003156211572963,-6.857425289388992e-05,-0.2904975483248454,,,,,0.2857142857142857,0.5,0.2,1.0,1.6666666666666667,2.25,3.0,2.5555555555555554,3.0,1.7777777777777777,2.0,2.25,1.25,1.0,,,,,,,,,,,,
17,240710_093712,LEARNING,1.0,18,3.0,361.0,,,,,,,,,,18.0,18.0,18.0,cue1.png,Hard,B,,,,,,,,,,,,,,,,,,,,,,,,,,,40,29,Female,0.5692307692307692,0.5683760683760684,0.4375389923085234,-0.0003727535154606802,-1.094227960995555,4.0985763415358166e-05,-0.029008510971391746,-5.384913753699733e-05,-0.4431918294619211,-1.5531907406458618e-05,-0.02253929320140328,,,,,0.2857142857142857,0.5,0.2,1.0,1.6666666666666667,2.25,3.0,2.5555555555555554,3.0,1.7777777777777777,2.0,2.25,1.25,1.0,,,,,,,,,,,,
18,240710_093741,LEARNING,1.0,19,3.0,361.0,,,,,,,,,,19.0,19.0,19.0,cue1.png,Hard,B,,,,,,,,,,,,,,,,,,,,,,,,,,,40,29,Female,0.0833333333333333,0.4444444444444445,0.4401372857152767,-7.276497440391596e-05,-0.31525810289589723,,,5.082270360481445e-05,0.22182444287057085,,,,,,,0.2857142857142857,0.5,0.2,1.0,1.6666666666666667,2.25,3.0,2.5555555555555554,3.0,1.7777777777777777,2.0,2.25,1.25,1.0,,,,,,,,,,,,
19,240710_093810,LEARNING,1.0,20,3.0,361.0,,,,,,,,,,20.0,20.0,20.0,cue1.png,Hard,B,,,,,,,,,,,,,,,,,,,,,,,,,,,40,29,Female,0.85,0.7564102564102565,0.432222859999941,-0.0003017152087070006,-0.9097652493979048,0.00010182440177706076,0.24555060608114723,6.312436859997944e-05,0.29998115922644525,0.00016022627079922535,0.8653523398492073,,,,,0.2857142857142857,0.5,0.2,1.0,1.6666666666666667,2.25,3.0,2.5555555555555554,3.0,1.7777777777777777,2.0,2.25,1.25,1.0,,,,,,,,,,,,
20,240710_093841,LEARNING,1.0,21,1.0,361.0,,,,,,,,,,21.0,21.0,21.0,cue2.png,Easy,B,,,,,,,,,,,,,,,,,,,,,,,,,,,40,29,Female,0.9236111111111112,0.861111111111111,0.593967652940003,-6.351810817433867e-05,-0.2912470855105453,-0.00020279524458049905,-1.1291695289019608,0.0001067570297752147,0.5771944896711585,-0.0001492571894658166,-0.6980899860908514,1.806,0.5302623141097107,1.664,0.5451166035822157,0.2857142857142857,0.5,0.2,1.0,1.6666666666666667,2.25,3.0,2.5555555555555554,3.0,1.7777777777777777,2.0,2.25,1.25,1.0,,,,,,,,,,,,
21,240710_093913,LEARNING,1.0,22,3.0,361.0,,,,,,,,,,22.0,22.0,22.0,cue1.png,Hard,B,,,,,,,,,,,,,,,,,,,,,,,,,,,40,29,Female,0.85,0.8333333333333334,0.6065878133338022,-0.00027072104591735176,-0.8292837799887051,0.00010694304690965495,0.2686505755406052,5.783208640108405e-05,0.2663574669167554,7.82341507193354e-06,0.09544665560318338,0.714,-1.423088550770083,0.8890000000000002,-1.0388456751716777,0.2857142857142857,0.5,0.2,1.0,1.6666666666666667,2.25,3.0,2.5555555555555554,3.0,1.7777777777777777,2.0,2.25,1.25,1.0,,,,,,,,,,,,
22,240710_093943,LEARNING,1.0,23,3.0,361.0,,,,,,,,,,23.0,23.0,23.0,cue1.png,Hard,B,,,,,,,,,,,,,,,,,,,,,,,,,,,40,29,Female,1.0,0.8333333333333334,0.4817126666661352,,,-0.0003538200012521129,-1.8107302107553345,-8.040591684397398e-05,-0.611916198759631,,,1.5630000000000002,0.09558808318865793,1.5959999999999999,0.4061366875109061,0.2857142857142857,0.5,0.2,1.0,1.6666666666666667,2.25,3.0,2.5555555555555554,3.0,1.7777777777777777,2.0,2.25,1.25,1.0,,,,,,,,,,,,
23,240710_094013,LEARNING,1.0,24,3.0,361.0,,,,,,,,,,24.0,24.0,24.0,cue1.png,Hard,B,,,,,,,,,,,,,,,,,,,,,,,,,,,40,29,Female,0.75,0.6666666666666667,0.5478689533343034,-0.00018545123160277613,-0.607866605443226,7.504328349604685e-05,0.12468990987030892,,,6.944727199962664e-05,0.4067568177873584,2.382,1.560601231848503,0.758,-1.3065863958384656,0.2857142857142857,0.5,0.2,1.0,1.6666666666666667,2.25,3.0,2.5555555555555554,3.0,1.7777777777777777,2.0,2.25,1.25,1.0,,,,,,,,,,,,
24,240710_094044,LEARNING,1.0,25,1.0,361.0,,,,,,,,,,25.0,25.0,25.0,cue2.png,Easy,B,,,,,,,,,,,,,,,,,,,,,,,,,,,40,29,Female,0.9,0.8333333333333334,0.5280305333333672,-4.0177138582992485e-05,-0.23063839790391114,0.0001486681297344322,0.45695199397810843,6.321234149148092e-06,-0.060908725934882745,-4.309306392688041e-05,-0.16177218990930392,0.6279999999999999,-1.5769238752935835,1.508,0.2262803255362707,0.2857142857142857,0.5,0.2,1.0,1.6666666666666667,2.25,3.0,2.5555555555555554,3.0,1.7777777777777777,2.0,2.25,1.25,1.0,,,,,,,,,,,,
25,240710_094116,LEARNING,1.0,26,1.0,361.0,,,,,,,,,,26.0,26.0,26.0,cue2.png,Easy,B,,,,,,,,,,,,,,,,,,,,,,,,,,,40,29,Female,0.9583333333333334,0.8888888888888888,0.6681107124991286,-1.1299842190166769e-05,-0.15565372217536472,0.0002673123030220077,0.9923821143499466,-0.00010358391163593859,-0.7591739858449974,1.3494511429913356e-05,0.12409578623186687,0.5249999999999999,-1.7611685081531243,2.1350000000000002,1.5077569046055506,0.2857142857142857,0.5,0.2,1.0,1.6666666666666667,2.25,3.0,2.5555555555555554,3.0,1.7777777777777777,2.0,2.25,1.25,1.0,,,,,,,,,,,,
26,240710_094148,LEARNING,1.0,27,3.0,361.0,,,,,,,,,,27.0,27.0,27.0,cue1.png,Hard,B,,,,,,,,,,,,,,,,,,,,,,,,,,,40,29,Female,0.8125,0.5277777777777777,0.522476245454031,-3.508176944321201e-05,-0.21740742927491566,2.458546217448676e-05,-0.1030215452756542,9.278105699688953e-05,0.48840031907211334,1.6571398490053402e-05,0.1396395424566437,0.9590000000000001,-0.9848367541624369,1.433,0.07299365339879715,0.2857142857142857,0.5,0.2,1.0,1.6666666666666667,2.25,3.0,2.5555555555555554,3.0,1.7777777777777777,2.0,2.25,1.25,1.0,,,,,,,,,,,,
27,240710_094221,LEARNING,1.0,28,1.0,361.0,,,,,,,,,,28.0,28.0,28.0,cue2.png,Easy,B,,,,,,,,,,,,,,,,,,,,,,,,,,,40,29,Female,0.85,0.6666666666666667,0.6511318166667479,0.0019688762644298513,4.98620101451691,0.00015117018785890677,0.4682435496073729,0.0001240391766668559,0.6869939235820509,,,2.2119999999999997,1.256508148488095,1.1289999999999998,-0.5483283243317632,0.2857142857142857,0.5,0.2,1.0,1.6666666666666667,2.25,3.0,2.5555555555555554,3.0,1.7777777777777777,2.0,2.25,1.25,1.0,,,,,,,,,,,,
28,240710_094252,LEARNING,1.0,29,1.0,361.0,,,,,,,,,,29.0,29.0,29.0,cue2.png,Easy,B,,,,,,,,,,,,,,,,,,,,,,,,,,,40,29,Female,0.9153846153846156,0.7008547008547009,0.5540087142851137,-0.00028426402393213687,-0.8644503621030123,-0.0002338125642293988,-1.2691478079276644,-7.129386950032466e-05,-0.5540242223532822,0.00019958151344150014,1.0641663638422163,1.809,0.5356286626396001,1.1780000000000002,-0.4481810318686129,0.2857142857142857,0.5,0.2,1.0,1.6666666666666667,2.25,3.0,2.5555555555555554,3.0,1.7777777777777777,2.0,2.25,1.25,1.0,,,,,,,,,,,,
29,240710_094323,LEARNING,1.0,30,3.0,361.0,,,,,,,,,,30.0,30.0,30.0,cue1.png,Hard,B,,,,,,,,,,,,,,,,,,,,,,,,,,,40,29,Female,0.6875,0.6944444444444444,0.6007925823518342,-7.090187057457766e-05,-0.3104202456882449,0.00011760246146085961,0.31675552210558333,7.373615320816016e-05,0.3674014832213835,,,0.355,-2.0652615915135315,0.869,-1.0797221210750045,0.2857142857142857,0.5,0.2,1.0,1.6666666666666667,2.25,3.0,2.5555555555555554,3.0,1.7777777777777777,2.0,2.25,1.25,1.0,,,,,,,,,,,,
30,240710_094353,LEARNING,1.0,31,3.0,361.0,,,,,,,,,,31.0,31.0,31.0,cue1.png,Hard,B,,,,,,,,,,,,,,,,,,,,,,,,,,,40,29,Female,0.9583333333333334,0.7777777777777778,0.5254377142851548,-0.000164372555411965,-0.5531323367826846,0.00010511866334900677,0.26041730219548626,,,,,,,,,0.2857142857142857,0.5,0.2,1.0,1.6666666666666667,2.25,3.0,2.5555555555555554,3.0,1.7777777777777777,2.0,2.25,1.25,1.0,,,,,,,,,,,,
31,240710_094425,LEARNING,1.0,32,1.0,361.0,,,,,,,,,,32.0,32.0,32.0,cue2.png,Easy,B,,,,,,,,,,,,,,,,,,,,,,,,,,,40,29,Female,1.0,0.8888888888888888,0.6147545499993612,8.026659060898084e-05,0.08211366358203717,-0.0002459625172510178,-1.3239794159924736,-0.00023165592193848464,-1.572859595579687,,,1.3430000000000002,-0.2979441423365752,,,0.2857142857142857,0.5,0.2,1.0,1.6666666666666667,2.25,3.0,2.5555555555555554,3.0,1.7777777777777777,2.0,2.25,1.25,1.0,,,,,,,,,,,,
32,240710_094456,LEARNING,1.0,33,1.0,361.0,,,,,,,,,,33.0,33.0,33.0,cue2.png,Easy,B,,,,,,,,,,,,,,,,,,,,,,,,,,,40,29,Female,0.95,0.9444444444444444,0.6343354882371974,-0.00022611686530600843,-0.7134616485197065,0.0003828242589974211,1.513676829282053,-0.0003168324859460503,-2.114015655017477,8.692140992059985e-05,0.49503231661875646,1.795,0.5105857028334488,1.2510000000000001,-0.29898200432147204,0.2857142857142857,0.5,0.2,1.0,1.6666666666666667,2.25,3.0,2.5555555555555554,3.0,1.7777777777777777,2.0,2.25,1.25,1.0,,,,,,,,,,,,
33,240710_094527,LEARNING,1.0,34,1.0,361.0,,,,,,,,,,34.0,34.0,34.0,cue2.png,Easy,B,,,,,,,,,,,,,,,,,,,,,,,,,,,40,29,Female,0.9236111111111112,0.8055555555555556,0.5275868374997117,-5.813664170124799e-05,-0.2772732178416522,0.0002794322211940002,1.0470781779315734,,,2.68780630886924e-05,0.19170654357838468,1.484,-0.04572576143176703,2.108,1.45257370263606,0.2857142857142857,0.5,0.2,1.0,1.6666666666666667,2.25,3.0,2.5555555555555554,3.0,1.7777777777777777,2.0,2.25,1.25,1.0,,,,,,,,,,,,
34,240710_094558,LEARNING,1.0,35,3.0,361.0,,,,,,,,,,35.0,35.0,35.0,cue1.png,Hard,B,,,,,,,,,,,,,,,,,,,,,,,,,,,40,29,Female,0.9583333333333334,0.8888888888888888,0.583917000000838,3.758197987324078e-05,-0.028723987251989002,2.279919914029106e-05,-0.11108278423002708,,,8.991812149148877e-05,0.5101710439179461,1.145,-0.6521231453092853,1.623,0.46131988948039687,0.2857142857142857,0.5,0.2,1.0,1.6666666666666667,2.25,3.0,2.5555555555555554,3.0,1.7777777777777777,2.0,2.25,1.25,1.0,,,,,,,,,,,,
35,240710_094627,LEARNING,1.0,36,3.0,361.0,,,,,,,,,,36.0,36.0,36.0,cue1.png,Hard,B,,,,,,,,,,,,,,,,,,,,,,,,,,,40,29,Female,0.85,0.811965811965812,0.5018501250006011,-9.251760493660978e-05,-0.3665490747075038,4.254260774640443e-05,-0.021982617288843674,,,2.429075045287969e-05,0.1786360095931278,0.8469999999999998,-1.185180432611647,0.9349999999999998,-0.9448298495940282,0.2857142857142857,0.5,0.2,1.0,1.6666666666666667,2.25,3.0,2.5555555555555554,3.0,1.7777777777777777,2.0,2.25,1.25,1.0,,,,,,,,,,,,
36,240710_094657,LEARNING,1.0,37,1.0,361.0,,,,,,,,,,37.0,37.0,37.0,cue2.png,Easy,B,,,,,,,,,,,,,,,,,,,,,,,,,,,40,29,Female,0.9236111111111112,0.9166666666666666,0.5682394333335752,0.00016353586840503215,0.2983361142141677,9.469160850760546e-05,0.21336097339185417,0.00010719615396696195,0.5799843969652428,0.00013350116428992266,0.7303429837882507,1.338,-0.30688805655305795,,,0.2857142857142857,0.5,0.2,1.0,1.6666666666666667,2.25,3.0,2.5555555555555554,3.0,1.7777777777777777,2.0,2.25,1.25,1.0,,,,,,,,,,,,
37,240710_094727,LEARNING,1.0,38,3.0,361.0,,,,,,,,,,38.0,38.0,38.0,cue1.png,Hard,B,,,,,,,,,,,,,,,,,,,,,,,,,,,40,29,Female,0.7153846153846154,0.6239316239316239,0.4661270071446779,0.00015385194864967443,0.2731902150704665,0.0001413366499110934,0.4238657073485983,-3.7148371089739535e-05,-0.3370861058336925,0.0004000811683908907,2.0770464919621445,2.05,0.9667253278740597,0.9680000000000002,-0.877383713853539,0.2857142857142857,0.5,0.2,1.0,1.6666666666666667,2.25,3.0,2.5555555555555554,3.0,1.7777777777777777,2.0,2.25,1.25,1.0,,,,,,,,,,,,
38,240710_094759,LEARNING,1.0,39,3.0,361.0,,,,,,,,,,39.0,39.0,39.0,cue1.png,Hard,B,,,,,,,,,,,,,,,,,,,,,,,,,,,40,29,Female,0.7153846153846154,0.7350427350427351,0.6118911062503685,0.0008571088657529672,2.099313102944028,-0.0004202558079216649,-2.1105488278555433,-4.593885960194749e-06,-0.1302562448854886,2.328439673947866e-05,0.17355213212500503,1.8079999999999998,0.5338398797963033,1.907,1.0417654213076304,0.2857142857142857,0.5,0.2,1.0,1.6666666666666667,2.25,3.0,2.5555555555555554,3.0,1.7777777777777777,2.0,2.25,1.25,1.0,,,,,,,,,,,,
39,240710_094829,LEARNING,1.0,40,3.0,361.0,,,,,,,,,,40.0,40.0,40.0,cue1.png,Hard,B,,,,,,,,,,,,,,,,,,,,,,,,,,,40,29,Female,0.95,0.7777777777777778,0.5089121928576787,0.00017460795767909425,0.3270866250846843,4.551877866623352e-06,-0.19343124817306542,5.246150297518728e-05,0.2322362999325829,7.803288291447765e-05,0.45012943449144804,1.484,-0.04572576143176703,1.733,0.6861403419486918,0.2857142857142857,0.5,0.2,1.0,1.6666666666666667,2.25,3.0,2.5555555555555554,3.0,1.7777777777777777,2.0,2.25,1.25,1.0,,,,,,,,,,,,
40,240710_094900,LEARNING,1.0,41,1.0,361.0,,,,,,,,,,41.0,41.0,41.0,cue2.png,Easy,B,,,,,,,,,,,,,,,,,,,,,,,,,,,40,29,Female,0.85,0.7564102564102565,0.5430729333335572,,,,,,,,,2.439,1.6625618539164042,1.1130000000000002,-0.5810294810544233,0.2857142857142857,0.5,0.2,1.0,1.6666666666666667,2.25,3.0,2.5555555555555554,3.0,1.7777777777777777,2.0,2.25,1.25,1.0,,,,,,,,,,,,
41,240710_094929,LEARNING,1.0,42,3.0,361.0,,,,,,,,,,42.0,42.0,42.0,cue1.png,Hard,B,,,,,,,,,,,,,,,,,,,,,,,,,,,40,29,Female,0.8680555555555555,0.6944444444444444,0.3960934500012497,-6.335246056247273e-05,-0.29081695409200775,0.00015481460739590058,0.48469047605397003,-0.00012385298056231432,-0.8879503646115344,4.1799936411201534e-05,0.2670885633953636,,,,,0.2857142857142857,0.5,0.2,1.0,1.6666666666666667,2.25,3.0,2.5555555555555554,3.0,1.7777777777777777,2.0,2.25,1.25,1.0,,,,,,,,,,,,
42,240710_095000,LEARNING,1.0,43,3.0,361.0,,,,,,,,,,43.0,43.0,43.0,cue1.png,Hard,B,,,,,,,,,,,,,,,,,,,,,,,,,,,40,29,Female,0.9,0.6666666666666667,0.5035835666664449,0.0005098087882958856,1.1974910163345538,0.0004449348101484554,1.7939759704674556,-3.9563947241892834e-05,-0.35243309343529455,-0.00016256276925100382,-0.7653068466930911,1.423,-0.1548415148728543,2.331,1.9083460744581477,0.2857142857142857,0.5,0.2,1.0,1.6666666666666667,2.25,3.0,2.5555555555555554,3.0,1.7777777777777777,2.0,2.25,1.25,1.0,,,,,,,,,,,,
43,240710_095030,LEARNING,1.0,44,1.0,361.0,,,,,,,,,,44.0,44.0,44.0,cue2.png,Easy,B,,,,,,,,,,,,,,,,,,,,,,,,,,,40,29,Female,0.5692307692307692,0.6794871794871795,0.5113899200009958,0.00018733803489492506,0.3601423758393007,,,,,0.00027099872056860017,1.4249503757804096,2.5530000000000004,1.8664830980522076,1.867,0.9600125295009777,0.2857142857142857,0.5,0.2,1.0,1.6666666666666667,2.25,3.0,2.5555555555555554,3.0,1.7777777777777777,2.0,2.25,1.25,1.0,,,,,,,,,,,,
44,240710_095101,LEARNING,1.0,45,1.0,361.0,,,,,,,,,,45.0,45.0,45.0,cue2.png,Easy,B,,,,,,,,,,,,,,,,,,,,,,,,,,,40,29,Female,0.9236111111111112,0.8055555555555556,0.5718919124992681,-2.7687769720259083e-05,-0.1982076861957702,3.393034254598609e-05,-0.06084896921459037,4.690557443393214e-05,0.1969375715683286,2.6502840182145073e-05,0.1898110000386558,1.3359999999999999,-0.3104656222396514,1.5439999999999998,0.29985792816225765,0.2857142857142857,0.5,0.2,1.0,1.6666666666666667,2.25,3.0,2.5555555555555554,3.0,1.7777777777777777,2.0,2.25,1.25,1.0,,,,,,,,,,,,
45,240710_095131,LEARNING,1.0,46,1.0,361.0,,,,,,,,,,46.0,46.0,46.0,cue2.png,Easy,B,,,,,,,,,,,,,,,,,,,,,,,,,,,40,29,Female,1.0,1.0,0.5872662166677602,0.0001614534942906221,0.2929288854490348,,,4.8651180267398914e-05,0.20802800689143686,,,1.737,0.4068362979222513,1.2229999999999999,-0.35620902858612935,0.2857142857142857,0.5,0.2,1.0,1.6666666666666667,2.25,3.0,2.5555555555555554,3.0,1.7777777777777777,2.0,2.25,1.25,1.0,,,,,,,,,,,,
46,240710_095201,LEARNING,1.0,47,3.0,361.0,,,,,,,,,,47.0,47.0,47.0,cue1.png,Hard,B,,,,,,,,,,,,,,,,,,,,,,,,,,,40,29,Female,0.875,0.7222222222222222,0.4411086769211509,,,-2.8832191409533525e-05,-0.34409044816351564,,,-0.00015896394004897728,-0.7471263536436119,,,0.7649999999999999,-1.2922796397723015,0.2857142857142857,0.5,0.2,1.0,1.6666666666666667,2.25,3.0,2.5555555555555554,3.0,1.7777777777777777,2.0,2.25,1.25,1.0,,,,,,,,,,,,
47,240710_095233,LEARNING,1.0,48,3.0,361.0,,,,,,,,,,48.0,48.0,48.0,cue1.png,Hard,B,,,,,,,,,,,,,,,,,,,,,,,,,,,40,29,Female,0.9153846153846156,0.8675213675213675,0.6328879411765442,,,,,,,,,2.575,1.9058363206047304,1.279,-0.24175498005681562,0.2857142857142857,0.5,0.2,1.0,1.6666666666666667,2.25,3.0,2.5555555555555554,3.0,1.7777777777777777,2.0,2.25,1.25,1.0,,,,,,,,,,,,
48,240710_095303,LEARNING,1.0,49,1.0,361.0,,,,,,,,,,49.0,49.0,49.0,cue2.png,Easy,B,,,,,,,,,,,,,,,,,,,,,,,,,,,40,29,Female,0.0256410256410256,0.4358974358974358,0.4231284083337717,-0.0003174646182994116,-0.950661195996853,0.00034696917168158814,1.351866154678367,,,-0.0007297480928218866,-3.630602267531744,,,,,0.2857142857142857,0.5,0.2,1.0,1.6666666666666667,2.25,3.0,2.5555555555555554,3.0,1.7777777777777777,2.0,2.25,1.25,1.0,,,,,,,,,,,,
49,240710_095336,LEARNING,1.0,50,1.0,361.0,,,,,,,,,,50.0,50.0,50.0,cue2.png,Easy,B,,,,,,,,,,,,,,,,,,,,,,,,,,,40,29,Female,0.8680555555555555,0.4722222222222222,0.6411132400004135,7.509491354655475e-05,0.06868454881230665,1.3956207625635299e-05,-0.1509903825548334,3.550814188489366e-06,-0.07851015851632272,4.927412887593963e-05,0.30484653870553474,1.226,-0.5072317350022677,,,0.2857142857142857,0.5,0.2,1.0,1.6666666666666667,2.25,3.0,2.5555555555555554,3.0,1.7777777777777777,2.0,2.25,1.25,1.0,,,,,,,,,,,,
0,240710_095551,TrueCHOICE,9.0,1,3.0,361.0,,,,,,,,,,,2.0,1.0,,,B,,,,,,True,cue2.png,Easy,cue1.png,Hard,Right,Hard,Hard,0.0165013000005274,,,,,,,,,,,,,40,29,Female,0.75,0.5,0.37435874999998,,,,,,,,,,,,,0.2857142857142857,0.5,0.2,1.0,1.6666666666666667,2.25,3.0,2.5555555555555554,3.0,1.7777777777777777,2.0,2.25,1.25,1.0,-0.0003046221141028149,-1.5291265660528168,-9.143549575633177e-05,0.08524132257626607,1.579,0.34998803128884215,,,,,,
1,240710_095621,TrueCHOICE,9.0,2,1.0,361.0,,,,,,,,,,,3.0,2.0,,,B,,,,,,True,cue2.png,Easy,cue1.png,Hard,Left,Easy,Easy,0.0165924000029917,,,,,,,,,,,,,40,29,Female,,,,,,,,,,,,,,,,0.2857142857142857,0.5,0.2,1.0,1.6666666666666667,2.25,3.0,2.5555555555555554,3.0,1.7777777777777777,2.0,2.25,1.25,1.0,-8.253840998232679e-05,-0.48187063543063374,-0.0001434081708789718,-0.18896214053604188,,,,,,,,
2,240710_095649,TrueCHOICE,9.0,3,1.0,361.0,,,,,,,,,,,4.0,3.0,,,B,,,,,,True,cue1.png,Hard,cue2.png,Easy,Right,Easy,Easy,0.016875199995411,,,,,,,,,,,,,40,29,Female,0.9153846153846156,0.9230769230769232,0.5549513722220986,,,,,,,,,,,,,0.2857142857142857,0.5,0.2,1.0,1.6666666666666667,2.25,3.0,2.5555555555555554,3.0,1.7777777777777777,2.0,2.25,1.25,1.0,-6.634028019241248e-05,-0.4054868793389563,,,1.4689999999999999,0.15026660039031786,,,,,,
3,240710_095717,TrueCHOICE,9.0,4,1.0,361.0,,,,,,,,,,,5.0,4.0,,,B,,,,,,True,cue2.png,Easy,cue1.png,Hard,Left,Easy,Easy,0.0160780000005615,,,,,,,,,,,,,40,29,Female,1.0,0.8888888888888888,0.5700111125001968,,,,,,,,,,,,,0.2857142857142857,0.5,0.2,1.0,1.6666666666666667,2.25,3.0,2.5555555555555554,3.0,1.7777777777777777,2.0,2.25,1.25,1.0,,,-3.2510710345927396e-05,0.39612353490333735,1.467,0.1466353016467087,,,,,,
4,240710_095745,TrueCHOICE,9.0,5,1.0,361.0,,,,,,,,,,,6.0,5.0,,,B,,,,,,True,cue1.png,Hard,cue2.png,Easy,Right,Easy,Easy,0.0165330999952857,,,,,,,,,,,,,40,29,Female,0.0256410256410256,0.6025641025641025,0.4645974199990936,,,,,,,,,,,,,0.2857142857142857,0.5,0.2,1.0,1.6666666666666667,2.25,3.0,2.5555555555555554,3.0,1.7777777777777777,2.0,2.25,1.25,1.0,,,-2.4118943745456405e-05,0.4403977897507076,1.468,0.1484509510185133,,,,,,
5,240710_095813,TrueCHOICE,9.0,6,1.0,361.0,,,,,,,,,,,7.0,6.0,,,B,,,,,,True,cue1.png,Hard,cue2.png,Easy,Right,Easy,Easy,0.0164182000007713,,,,,,,,,,,,,40,29,Female,0.95,0.8888888888888888,0.5170812312503585,,,,,,,,,,,,,0.2857142857142857,0.5,0.2,1.0,1.6666666666666667,2.25,3.0,2.5555555555555554,3.0,1.7777777777777777,2.0,2.25,1.25,1.0,-3.7335995741021206e-05,-0.2687145347607479,,,2.008,1.1289016117930863,,,,,,
6,240710_095842,TrueCHOICE,9.0,7,1.0,361.0,,,,,,,,,,,8.0,7.0,,,B,,,,,,True,cue2.png,Easy,cue1.png,Hard,Left,Easy,Easy,0.0159037000048556,,,,,,,,,,,,,40,29,Female,,,,,,,,,,,,,,,,0.2857142857142857,0.5,0.2,1.0,1.6666666666666667,2.25,3.0,2.5555555555555554,3.0,1.7777777777777777,2.0,2.25,1.25,1.0,0.00033248607734219244,1.4752151283597084,9.60481688090536e-05,1.0743893696895963,1.604,0.3953792655839615,,,,,,
7,240710_095910,TrueCHOICE,9.0,8,1.0,361.0,,,,,,,,,,,9.0,8.0,,,B,,,,,,True,cue1.png,Hard,cue2.png,Easy,Right,Easy,Easy,0.0165934999968158,,,,,,,,,,,,,40,29,Female,0.9153846153846156,0.7564102564102565,0.513480513333343,,,,,,,,,,,,,0.2857142857142857,0.5,0.2,1.0,1.6666666666666667,2.25,3.0,2.5555555555555554,3.0,1.7777777777777777,2.0,2.25,1.25,1.0,0.00031790259090270796,1.4064453700229491,-5.4650785411588035e-05,0.2793143608085823,,,,,,,,
8,240710_095939,TrueCHOICE,9.0,9,1.0,361.0,,,,,,,,,,,10.0,9.0,,,B,,,,,,True,cue2.png,Easy,cue1.png,Hard,Left,Easy,Easy,0.0158021000024746,,,,,,,,,,,,,40,29,Female,0.9166666666666666,0.8333333333333334,0.5663987266666178,,,,,,,,,,,,,0.2857142857142857,0.5,0.2,1.0,1.6666666666666667,2.25,3.0,2.5555555555555554,3.0,1.7777777777777777,2.0,2.25,1.25,1.0,,,-0.0005799057532258102,-2.4918866761159815,0.10866666666666658,-2.3196217617214305,,,,,,
9,240710_100007,TrueCHOICE,9.0,10,1.0,361.0,,,,,,,,,,,11.0,10.0,,,B,,,,,,True,cue1.png,Hard,cue2.png,Easy,Right,Easy,Easy,0.0169800000003306,,,,,,,,,,,,,40,29,Female,0.8,0.7350427350427351,0.5648888125010672,,,,,,,,,,,,,0.2857142857142857,0.5,0.2,1.0,1.6666666666666667,2.25,3.0,2.5555555555555554,3.0,1.7777777777777777,2.0,2.25,1.25,1.0,-2.2013918194467054e-05,-0.19646188279950252,-3.0755772588499184e-05,0.4053824389235336,,,,,,,,
0,240710_100228,FalseCHOICE,9.0,1,2.0,361.0,,,,,,,,,,,1.0,1.0,,,B,,,,,,False,cue2.png,Easy,cue1.png,Hard,Left,Easy,Mid,0.0161988000036217,,,,,,,,,,,,,40,29,Female,0.5833333333333334,0.4166666666666667,0.4708726083329869,,,,,,,,,,,,,0.2857142857142857,0.5,0.2,1.0,1.6666666666666667,2.25,3.0,2.5555555555555554,3.0,1.7777777777777777,2.0,2.25,1.25,1.0,-0.0003046221141028149,-1.5291265660528168,-9.143549575633177e-05,0.08524132257626607,1.579,0.34998803128884215,,,,,,
1,240710_100254,FalseCHOICE,9.0,2,2.0,361.0,,,,,,,,,,,2.0,2.0,,,B,,,,,,False,cue1.png,Hard,cue2.png,Easy,Left,Hard,Mid,0.0167370999988634,,,,,,,,,,,,,40,29,Female,,,,,,,,,,,,,,,,0.2857142857142857,0.5,0.2,1.0,1.6666666666666667,2.25,3.0,2.5555555555555554,3.0,1.7777777777777777,2.0,2.25,1.25,1.0,-8.253840998232679e-05,-0.48187063543063374,-0.0001434081708789718,-0.18896214053604188,,,,,,,,
2,240710_100321,FalseCHOICE,9.0,3,2.0,361.0,,,,,,,,,,,3.0,3.0,,,B,,,,,,False,cue1.png,Hard,cue2.png,Easy,Left,Hard,Mid,0.0151211999982479,,,,,,,,,,,,,40,29,Female,,,,,,,,,,,,,,,,0.2857142857142857,0.5,0.2,1.0,1.6666666666666667,2.25,3.0,2.5555555555555554,3.0,1.7777777777777777,2.0,2.25,1.25,1.0,-6.634028019241248e-05,-0.4054868793389563,,,1.4689999999999999,0.15026660039031786,,,,,,
3,240710_100348,FalseCHOICE,9.0,4,2.0,361.0,,,,,,,,,,,4.0,4.0,,,B,,,,,,False,cue1.png,Hard,cue2.png,Easy,Right,Easy,Mid,0.0170034999973722,,,,,,,,,,,,,40,29,Female,0.9583333333333334,0.8333333333333334,0.5140629000001354,,,,,,,,,,,,,0.2857142857142857,0.5,0.2,1.0,1.6666666666666667,2.25,3.0,2.5555555555555554,3.0,1.7777777777777777,2.0,2.25,1.25,1.0,,,-3.2510710345927396e-05,0.39612353490333735,1.467,0.1466353016467087,,,,,,
4,240710_100416,FalseCHOICE,9.0,5,2.0,361.0,,,,,,,,,,,5.0,5.0,,,B,,,,,,False,cue2.png,Easy,cue1.png,Hard,Right,Hard,Mid,0.016546400001971,,,,,,,,,,,,,40,29,Female,,,,,,,,,,,,,,,,0.2857142857142857,0.5,0.2,1.0,1.6666666666666667,2.25,3.0,2.5555555555555554,3.0,1.7777777777777777,2.0,2.25,1.25,1.0,,,-2.4118943745456405e-05,0.4403977897507076,1.468,0.1484509510185133,,,,,,
5,240710_100443,FalseCHOICE,9.0,6,2.0,361.0,,,,,,,,,,,6.0,6.0,,,B,,,,,,False,cue1.png,Hard,cue2.png,Easy,Right,Easy,Mid,0.0165621000051032,,,,,,,,,,,,,40,29,Female,0.8194444444444444,0.6666666666666667,0.3911177066659244,,,,,,,,,,,,,0.2857142857142857,0.5,0.2,1.0,1.6666666666666667,2.25,3.0,2.5555555555555554,3.0,1.7777777777777777,2.0,2.25,1.25,1.0,-3.7335995741021206e-05,-0.2687145347607479,,,2.008,1.1289016117930863,,,,,,
6,240710_100510,FalseCHOICE,9.0,7,2.0,361.0,,,,,,,,,,,7.0,7.0,,,B,,,,,,False,cue1.png,Hard,cue2.png,Easy,Left,Hard,Mid,0.0163533999948413,,,,,,,,,,,,,40,29,Female,0.9153846153846156,0.8675213675213675,0.5750051764724262,,,,,,,,,,,,,0.2857142857142857,0.5,0.2,1.0,1.6666666666666667,2.25,3.0,2.5555555555555554,3.0,1.7777777777777777,2.0,2.25,1.25,1.0,0.00033248607734219244,1.4752151283597084,9.60481688090536e-05,1.0743893696895963,1.604,0.3953792655839615,,,,,,
7,240710_100537,FalseCHOICE,9.0,8,2.0,361.0,,,,,,,,,,,8.0,8.0,,,B,,,,,,False,cue2.png,Easy,cue1.png,Hard,Left,Easy,Mid,0.015363200000138,,,,,,,,,,,,,40,29,Female,,,,,,,,,,,,,,,,0.2857142857142857,0.5,0.2,1.0,1.6666666666666667,2.25,3.0,2.5555555555555554,3.0,1.7777777777777777,2.0,2.25,1.25,1.0,0.00031790259090270796,1.4064453700229491,-5.4650785411588035e-05,0.2793143608085823,,,,,,,,
8,240710_100606,FalseCHOICE,9.0,9,2.0,361.0,,,,,,,,,,,9.0,9.0,,,B,,,,,,False,cue2.png,Easy,cue1.png,Hard,Right,Hard,Mid,0.0169286000018473,,,,,,,,,,,,,40,29,Female,0.8,0.6239316239316239,0.4367888285726491,,,,,,,,,,,,,0.2857142857142857,0.5,0.2,1.0,1.6666666666666667,2.25,3.0,2.5555555555555554,3.0,1.7777777777777777,2.0,2.25,1.25,1.0,,,-0.0005799057532258102,-2.4918866761159815,0.10866666666666658,-2.3196217617214305,,,,,,
9,240710_100634,FalseCHOICE,9.0,10,2.0,361.0,,,,,,,,,,,10.0,10.0,,,B,,,,,,False,cue1.png,Hard,cue2.png,Easy,Right,Easy,Mid,0.0164359000045806,,,,,,,,,,,,,40,29,Female,,,,,,,,,,,,,,,,0.2857142857142857,0.5,0.2,1.0,1.6666666666666667,2.25,3.0,2.5555555555555554,3.0,1.7777777777777777,2.0,2.25,1.25,1.0,-2.2013918194467054e-05,-0.19646188279950252,-3.0755772588499184e-05,0.4053824389235336,,,,,,,,
0,240710_092751,OFFLINERATING,9.0,1,1.0,,,,,,,,,,,,,,,,,T0,cue2.png,Easy,32.0,1.4699748000057298,,,,,,,,,,,,,,,,,,,,,,40,29,Female,,,,,,,,,,,,,,,,0.2857142857142857,0.5,0.2,1.0,1.6666666666666667,2.25,3.0,2.5555555555555554,3.0,1.7777777777777777,2.0,2.25,1.25,1.0,,,,,,,,,-0.00018836614505764095,-1.0382233756680705,1.2260000000000002,-1.2281327260619033
1,240710_092759,OFFLINERATING,9.0,2,3.0,,,,,,,,,,,,,,,,,T0,cue1.png,Hard,60.0,1.4853750999973272,,,,,,,,,,,,,,,,,,,,,,40,29,Female,,,,,,,,,,,,,,,,0.2857142857142857,0.5,0.2,1.0,1.6666666666666667,2.25,3.0,2.5555555555555554,3.0,1.7777777777777777,2.0,2.25,1.25,1.0,,,,,,,,,,,1.9460000000000002,1.221328666637736
2,240710_095406,OFFLINERATING,9.0,3,1.0,,,,,,,,,,,,,,,,,T1,cue2.png,Easy,22.0,1.9037959999986924,,,,,,,,,,,,,,,,,,,,,,40,29,Female,,,,,,,,,,,,,,,,0.2857142857142857,0.5,0.2,1.0,1.6666666666666667,2.25,3.0,2.5555555555555554,3.0,1.7777777777777777,2.0,2.25,1.25,1.0,,,,,,,-0.00029929013264352704,-1.252366447424593,,,1.5890000000000002,0.006804059424164916
3,240710_095414,OFFLINERATING,9.0,4,3.0,,,,,,,,,,,,,,,,,T1,cue1.png,Hard,34.0,2.0367305999970995,,,,,,,,,,,,,,,,,,,,,,40,29,Female,,,,,,,,,,,,,,,,0.2857142857142857,0.5,0.2,1.0,1.6666666666666667,2.25,3.0,2.5555555555555554,3.0,1.7777777777777777,2.0,2.25,1.25,1.0,,,,,,,0.00024439401282262685,1.1951153031592443,,,,
4,240710_100027,OFFLINERATING,9.0,5,1.0,,,,,,,,,,,,,,,,,T2,cue2.png,Easy,91.0,2.2354219000044395,,,,,,,,,,,,,,,,,,,,,,40,29,Female,,,,,,,,,,,,,,,,0.2857142857142857,0.5,0.2,1.0,1.6666666666666667,2.25,3.0,2.5555555555555554,3.0,1.7777777777777777,2.0,2.25,1.25,1.0,,,,,,,,,-0.00011296537153388268,-0.31249468940359604,,
5,240710_100036,OFFLINERATING,9.0,6,3.0,,,,,,,,,,,,,,,,,T2,cue1.png,Hard,9.0,2.235968499997398,,,,,,,,,,,,,,,,,,,,,,40,29,Female,,,,,,,,,,,,,,,,0.2857142857142857,0.5,0.2,1.0,1.6666666666666667,2.25,3.0,2.5555555555555554,3.0,1.7777777777777777,2.0,2.25,1.25,1.0,,,,,,,,,5.98368486284793e-05,1.3507180650716666,,
6,240710_102622,OFFLINERATING,9.0,7,1.0,,,,,,,,,,,,,,,,,T3,cue2.png,Easy,11.0,2.2203785000019707,,,,,,,,,,,,,,,,,,,,,,40,29,Female,,,,,,,,,,,,,,,,0.2857142857142857,0.5,0.2,1.0,1.6666666666666667,2.25,3.0,2.5555555555555554,3.0,1.7777777777777777,2.0,2.25,1.25,1.0,,,,,,,-8.371386852863184e-06,0.057251144265348615,,,,
7,240710_102630,OFFLINERATING,9.0,8,3.0,,,,,,,,,,,,,,,,,T3,cue1.png,Hard,7.0,2.202550599999085,,,,,,,,,,,,,,,,,,,,,,40,29,Female,,,,,,,,,,,,,,,,0.2857142857142857,0.5,0.2,1.0,1.6666666666666667,2.25,3.0,2.5555555555555554,3.0,1.7777777777777777,2.0,2.25,1.25,1.0,,,,,,,,,,,,
