,END,Phase,Block,TrialN,NbackLevel,ISI,Letter_Resp,Letter_RT,Letter_Accuracy,Trial_A_measure,Trial_ACC,Trial_RT,TrialCountCali,CaliEnd_A_measure,ISI_calibrated,TrialIndex,TrialNumber_total,TrialNumber_valid,CueLearning,TrialDemandLearning,CueMapping,OfflineRatingTimePoint,CueFigure,TrialDemand,OfflineRating,OfflineRatingRT,PhaseType,CueLeft,CueDemandLeft,CueRight,CueDemandRight,Choice,ChoiceDemand,TaskDemand,ChoiceRT,CueCheck,CueDemandCheck,CorrectAnswer,Answer,AnswerDemand,AnswerRT,AnswerACC,DemandRatingQuesIndex,QuesTLX,DemandLevel,DemandRating,DemandRatingRT,PID,Age,Gender,Task_A_measure,Task_ACC,Task_RT,cue_i_on_zyg_values,cue_i_on_zyg_zvalues,cue_e_on_zyg_values,cue_e_on_zyg_zvalues,cue_i_on_cor_values,cue_i_on_cor_zvalues,cue_e_on_cor_values,cue_e_on_cor_zvalues,cue_i_on_scr_values,cue_i_on_scr_zvalues,cue_e_on_scr_values,cue_e_on_scr_zvalues,BAI_bis,BAI_bas_d,BAI_bas_rr,BAI_bas_fs,NFC,BFI_ext,BFI_agr,BFI_con,BFI_neu,BFI_open,UPPS_lps,UPPS_lpm,UPPS_pu,UPPS_ss,cue_e_true_zyg_values,cue_e_true_zyg_zvalues,cue_e_true_cor_values,cue_e_true_cor_zvalues,cue_e_true_scr_values,cue_e_true_scr_zvalues,cue_i_off_zyg_values,cue_i_off_zyg_zvalues,cue_i_off_cor_values,cue_i_off_cor_zvalues,cue_i_off_scr_values,cue_i_off_scr_zvalues
0,240719_144528,LEARNING,1.0,1,1.0,1472.0,,,,,,,,,,1.0,1.0,1.0,cue2.png,Easy,B,,,,,,,,,,,,,,,,,,,,,,,,,,,48,29,Female,1.0,1.0,0.5453128222401978,-1.6219155667674106e-05,0.12206557333734654,-0.00013536053932661045,-1.0732282278618046,-0.00018967235460987542,0.20702378530637056,-0.0009473086754376208,-1.6535235217497226,1.5940000000000003,-0.08447200407010033,,,1.0,1.0,0.2,1.5,3.0,2.5,2.5555555555555554,3.111111111111111,2.125,2.111111111111111,0.75,2.0,2.5,1.75,,,,,,,,,,,,
1,240719_144549,LEARNING,1.0,2,3.0,1472.0,,,,,,,,,,2.0,2.0,2.0,cue1.png,Hard,B,,,,,,,,,,,,,,,,,,,,,,,,,,,48,29,Female,0.8194444444444444,0.8333333333333334,0.5409289111202169,-2.6802662862858602e-05,-0.000579884948373224,4.279885285678924e-05,0.5919005388050625,0.000670888528585406,1.747262442222416,0.00011793978129254635,0.06873932020904813,,,1.977,0.6892841925712724,1.0,1.0,0.2,1.5,3.0,2.5,2.5555555555555554,3.111111111111111,2.125,2.111111111111111,0.75,2.0,2.5,1.75,,,,,,,,,,,,
2,240719_144609,LEARNING,1.0,3,1.0,1472.0,,,,,,,,,,3.0,3.0,3.0,cue2.png,Easy,B,,,,,,,,,,,,,,,,,,,,,,,,,,,48,29,Female,0.8194444444444444,0.8333333333333334,0.4531892000231892,-0.0002045569224262923,-2.060459679456896,,,-0.00025828562116037793,0.08421921960734244,0.0009793325760157493,1.4614142340377014,,,1.5950000000000002,0.07694335172888661,1.0,1.0,0.2,1.5,3.0,2.5,2.5555555555555554,3.111111111111111,2.125,2.111111111111111,0.75,2.0,2.5,1.75,,,,,,,,,,,,
3,240719_144628,LEARNING,1.0,4,3.0,1472.0,,,,,,,,,,4.0,4.0,4.0,cue1.png,Hard,B,,,,,,,,,,,,,,,,,,,,,,,,,,,48,29,Female,1.0,1.0,0.3402771333284262,,,,,-0.0004113529073110113,-0.18974181655206662,,,1.4609999999999999,-0.365122159669125,,,1.0,1.0,0.2,1.5,3.0,2.5,2.5555555555555554,3.111111111111111,2.125,2.111111111111111,0.75,2.0,2.5,1.75,,,,,,,,,,,,
4,240719_144648,LEARNING,1.0,5,3.0,1472.0,,,,,,,,,,5.0,5.0,5.0,cue1.png,Hard,B,,,,,,,,,,,,,,,,,,,,,,,,,,,48,29,Female,1.0,1.0,0.457678955539854,,,8.314358517922229e-05,0.9689739759685811,-0.0003158035251086362,-0.018726778585080546,0.00023253337697834442,0.2540109256539451,1.461,-0.3651221596691245,1.464,-0.133047879031199,1.0,1.0,0.2,1.5,3.0,2.5,2.5555555555555554,3.111111111111111,2.125,2.111111111111111,0.75,2.0,2.5,1.75,,,,,,,,,,,,
5,240719_144709,LEARNING,1.0,6,1.0,1472.0,,,,,,,,,,6.0,6.0,6.0,cue2.png,Easy,B,,,,,,,,,,,,,,,,,,,,,,,,,,,48,29,Female,1.0,1.0,0.5405483333031751,,,,,-0.0005196001408541793,-0.3834835690104716,6.886819377373808e-05,-0.010598200766097604,1.957,0.6815130070761067,1.733,0.29815548794943425,1.0,1.0,0.2,1.5,3.0,2.5,2.5555555555555554,3.111111111111111,2.125,2.111111111111111,0.75,2.0,2.5,1.75,,,,,,,,,,,,
6,240719_144729,LEARNING,1.0,7,3.0,1472.0,,,,,,,,,,7.0,7.0,7.0,cue1.png,Hard,B,,,,,,,,,,,,,,,,,,,,,,,,,,,48,29,Female,0.8194444444444444,0.8333333333333334,0.4349804888738112,,,-0.00017499990569165265,-1.4437091125234043,-2.500728516828185e-05,0.5017426254841831,-0.00019926160064188177,-0.44410268399393865,,,1.1260000000000001,-0.6748573141221057,1.0,1.0,0.2,1.5,3.0,2.5,2.5555555555555554,3.111111111111111,2.125,2.111111111111111,0.75,2.0,2.5,1.75,,,,,,,,,,,,
7,240719_144748,LEARNING,1.0,8,3.0,1472.0,,,,,,,,,,8.0,8.0,8.0,cue1.png,Hard,B,,,,,,,,,,,,,,,,,,,,,,,,,,,48,29,Female,1.0,1.0,0.3829061000012896,-8.793210481609654e-05,-0.7089696734030384,-2.058848030147501e-05,-0.000535653250811535,-0.00039772931329184417,-0.16535820051256117,0.0003124005230659716,0.3831378134996562,1.4729999999999999,-0.3398003411188371,,,1.0,1.0,0.2,1.5,3.0,2.5,2.5555555555555554,3.111111111111111,2.125,2.111111111111111,0.75,2.0,2.5,1.75,,,,,,,,,,,,
8,240719_144809,LEARNING,1.0,9,1.0,1472.0,,,,,,,,,,9.0,9.0,9.0,cue2.png,Easy,B,,,,,,,,,,,,,,,,,,,,,,,,,,,48,29,Female,1.0,1.0,0.4995344777513916,6.904970491449685e-05,1.110191559433886,3.299931886828955e-05,0.5003112841258419,,,,,,,2.822,2.0438077802985397,1.0,1.0,0.2,1.5,3.0,2.5,2.5555555555555554,3.111111111111111,2.125,2.111111111111111,0.75,2.0,2.5,1.75,,,,,,,,,,,,
9,240719_144829,LEARNING,1.0,10,1.0,1472.0,,,,,,,,,,10.0,10.0,10.0,cue2.png,Easy,B,,,,,,,,,,,,,,,,,,,,,,,,,,,48,29,Female,1.0,1.0,0.4276343444362283,,,-1.3772092015532783e-05,0.06317226627334944,,,-0.00031132315206903755,-0.6252805536410476,,,,,1.0,1.0,0.2,1.5,3.0,2.5,2.5555555555555554,3.111111111111111,2.125,2.111111111111111,0.75,2.0,2.5,1.75,,,,,,,,,,,,
10,240719_144849,LEARNING,1.0,11,3.0,1472.0,,,,,,,,,,11.0,11.0,11.0,cue1.png,Hard,B,,,,,,,,,,,,,,,,,,,,,,,,,,,48,29,Female,0.8194444444444444,0.8333333333333334,0.4959538666557314,-2.352295417935987e-05,0.03742654969688093,,,3.592847426842245e-05,0.6108059283901446,-0.0004566789362734818,-0.8602875742262035,,,,,1.0,1.0,0.2,1.5,3.0,2.5,2.5555555555555554,3.111111111111111,2.125,2.111111111111111,0.75,2.0,2.5,1.75,,,,,,,,,,,,
11,240719_144909,LEARNING,1.0,12,1.0,1472.0,,,,,,,,,,12.0,12.0,12.0,cue2.png,Easy,B,,,,,,,,,,,,,,,,,,,,,,,,,,,48,29,Female,1.0,1.0,0.4704979999999826,-3.772481009664888e-05,-0.12714962485102216,-2.064717101339219e-06,0.17259274931872304,-3.545564396598231e-05,0.48304207049056835,0.0005027080394834141,0.6908214923639223,1.2790000000000001,-0.7491697410151568,2.426,1.4090251285352289,1.0,1.0,0.2,1.5,3.0,2.5,2.5555555555555554,3.111111111111111,2.125,2.111111111111111,0.75,2.0,2.5,1.75,,,,,,,,,,,,
12,240719_144929,LEARNING,1.0,13,1.0,1472.0,,,,,,,,,,13.0,13.0,13.0,cue2.png,Easy,B,,,,,,,,,,,,,,,,,,,,,,,,,,,48,29,Female,1.0,1.0,0.4468749222190429,,,6.679704865275582e-05,0.8161945582123155,-0.0008300409591476734,-0.9391129943741914,0.0003460135077222948,0.4374823132406961,1.6440000000000001,0.02103557322276534,1.465,-0.13144489253684702,1.0,1.0,0.2,1.5,3.0,2.5,2.5555555555555554,3.111111111111111,2.125,2.111111111111111,0.75,2.0,2.5,1.75,,,,,,,,,,,,
13,240719_144949,LEARNING,1.0,14,1.0,1472.0,,,,,,,,,,14.0,14.0,14.0,cue2.png,Easy,B,,,,,,,,,,,,,,,,,,,,,,,,,,,48,29,Female,1.0,1.0,0.4448378555502535,0.00014470380665928444,1.9868982889295423,0.00014273183178996817,1.5259028157608268,0.0003349816747940564,1.1460537056465077,0.00024130424057955922,0.26819140381077694,,,,,1.0,1.0,0.2,1.5,3.0,2.5,2.5555555555555554,3.111111111111111,2.125,2.111111111111111,0.75,2.0,2.5,1.75,,,,,,,,,,,,
14,240719_145009,LEARNING,1.0,15,3.0,1472.0,,,,,,,,,,15.0,15.0,15.0,cue1.png,Hard,B,,,,,,,,,,,,,,,,,,,,,,,,,,,48,29,Female,1.0,1.0,0.4554558666811014,6.990108354994846e-05,1.120057638890717,,,-0.0008433875914717771,-0.9630009021871763,-0.0004445137227791999,-0.8406192095049727,,,,,1.0,1.0,0.2,1.5,3.0,2.5,2.5555555555555554,3.111111111111111,2.125,2.111111111111111,0.75,2.0,2.5,1.75,,,,,,,,,,,,
15,240719_145029,LEARNING,1.0,16,1.0,1472.0,,,,,,,,,,16.0,16.0,16.0,cue2.png,Easy,B,,,,,,,,,,,,,,,,,,,,,,,,,,,48,29,Female,1.0,1.0,0.4842550333253004,-0.0001341628687589057,-1.244708264221459,-1.9085136791584852e-05,0.013515026277344628,,,0.00021152508518415547,0.22004532814327532,,,,,1.0,1.0,0.2,1.5,3.0,2.5,2.5555555555555554,3.111111111111111,2.125,2.111111111111111,0.75,2.0,2.5,1.75,,,,,,,,,,,,
16,240719_145050,LEARNING,1.0,17,1.0,1472.0,,,,,,,,,,17.0,17.0,17.0,cue2.png,Easy,B,,,,,,,,,,,,,,,,,,,,,,,,,,,48,29,Female,1.0,1.0,0.5130488888696871,-4.1081243866195136e-05,-0.16604517717407136,3.014509746374029e-05,0.4736349124290928,0.0006276334111162216,1.6698440917762407,-0.0004690163823730456,-0.8802343996336495,,,,,1.0,1.0,0.2,1.5,3.0,2.5,2.5555555555555554,3.111111111111111,2.125,2.111111111111111,0.75,2.0,2.5,1.75,,,,,,,,,,,,
17,240719_145110,LEARNING,1.0,18,3.0,1472.0,,,,,,,,,,18.0,18.0,18.0,cue1.png,Hard,B,,,,,,,,,,,,,,,,,,,,,,,,,,,48,29,Female,0.5,0.6666666666666667,0.4782354667161901,-8.681641431198227e-05,-0.6960406536878744,7.130421985274138e-05,0.8583198726816341,-0.0008411730663132723,-0.9590373275901327,-0.0004514468481840797,-0.8518284857897912,,,,,1.0,1.0,0.2,1.5,3.0,2.5,2.5555555555555554,3.111111111111111,2.125,2.111111111111111,0.75,2.0,2.5,1.75,,,,,,,,,,,,
18,240719_145132,LEARNING,1.0,19,3.0,1472.0,,,,,,,,,,19.0,19.0,19.0,cue1.png,Hard,B,,,,,,,,,,,,,,,,,,,,,,,,,,,48,29,Female,1.0,1.0,0.5860680999984551,-3.173445148540576e-05,-0.057731211500672196,-8.156892359824537e-07,0.18426652190789472,-0.00022720530005206942,0.13984702349105377,-0.00018025684946405655,-0.4133763529042786,1.01,-1.3168005068507764,0.5049999999999997,-1.6703119271145714,1.0,1.0,0.2,1.5,3.0,2.5,2.5555555555555554,3.111111111111111,2.125,2.111111111111111,0.75,2.0,2.5,1.75,,,,,,,,,,,,
19,240719_145152,LEARNING,1.0,20,3.0,1472.0,,,,,,,,,,20.0,20.0,20.0,cue1.png,Hard,B,,,,,,,,,,,,,,,,,,,,,,,,,,,48,29,Female,0.8194444444444444,0.8333333333333334,0.5268230666535803,,,-4.9360055506525186e-05,-0.26944304538498925,-7.060483980047584e-05,0.42013176252632156,0.0004787852687224807,0.6521438496994845,1.994,0.7595886142728274,1.424,-0.19716733880527088,1.0,1.0,0.2,1.5,3.0,2.5,2.5555555555555554,3.111111111111111,2.125,2.111111111111111,0.75,2.0,2.5,1.75,,,,,,,,,,,,
20,240719_145213,LEARNING,1.0,21,1.0,1472.0,,,,,,,,,,21.0,21.0,21.0,cue2.png,Easy,B,,,,,,,,,,,,,,,,,,,,,,,,,,,48,29,Female,1.0,1.0,0.5117945999890152,-4.405198901515691e-05,-0.20047123212212056,-0.00025140636339177893,-2.157825775789895,-0.00011795855457969254,0.3353777102845869,-0.00034233050797918656,-0.6754123483167827,1.2679999999999998,-0.772381408019588,1.1059999999999999,-0.706917044009142,1.0,1.0,0.2,1.5,3.0,2.5,2.5555555555555554,3.111111111111111,2.125,2.111111111111111,0.75,2.0,2.5,1.75,,,,,,,,,,,,
21,240719_145233,LEARNING,1.0,22,3.0,1472.0,,,,,,,,,,22.0,22.0,22.0,cue1.png,Hard,B,,,,,,,,,,,,,,,,,,,,,,,,,,,48,29,Female,0.8194444444444444,0.8333333333333334,0.495816188903215,-4.5697805653521686e-05,-0.21954354266567586,-6.832343969789909e-05,-0.4466802718002385,0.00011031502861462601,0.7439435701260747,-0.0009687517270523631,-1.6881920263421957,1.624,-0.021167457694381116,1.5270000000000001,-0.032059729887035586,1.0,1.0,0.2,1.5,3.0,2.5,2.5555555555555554,3.111111111111111,2.125,2.111111111111111,0.75,2.0,2.5,1.75,,,,,,,,,,,,
22,240719_145254,LEARNING,1.0,23,3.0,1472.0,,,,,,,,,,23.0,23.0,23.0,cue1.png,Hard,B,,,,,,,,,,,,,,,,,,,,,,,,,,,48,29,Female,0.8194444444444444,0.8333333333333334,0.5258293555428585,-3.6086113834871494e-05,-0.10815982777239128,6.111761735963029e-05,0.7631129647661715,-0.0006781843033247872,-0.6673187539249332,-0.0001877114115198886,-0.42542867285904706,2.34,1.4897010491394602,2.102,0.8896575043652465,1.0,1.0,0.2,1.5,3.0,2.5,2.5555555555555554,3.111111111111111,2.125,2.111111111111111,0.75,2.0,2.5,1.75,,,,,,,,,,,,
23,240719_145315,LEARNING,1.0,24,3.0,1472.0,,,,,,,,,,24.0,24.0,24.0,cue1.png,Hard,B,,,,,,,,,,,,,,,,,,,,,,,,,,,48,29,Female,0.8194444444444444,0.8333333333333334,0.5442070666467771,3.4233436793045576e-05,0.706728219653972,8.758616780323242e-05,1.0104956270860175,-0.0009452286696908533,-1.145276867314256,-0.0002018220186902524,-0.44824229371290053,,,,,1.0,1.0,0.2,1.5,3.0,2.5,2.5555555555555554,3.111111111111111,2.125,2.111111111111111,0.75,2.0,2.5,1.75,,,,,,,,,,,,
24,240719_145335,LEARNING,1.0,25,1.0,1472.0,,,,,,,,,,25.0,25.0,25.0,cue2.png,Easy,B,,,,,,,,,,,,,,,,,,,,,,,,,,,48,29,Female,1.0,1.0,0.4813762333295825,-6.427189582592979e-05,-0.4347867280694502,,,-0.000644929767199375,-0.6077995228532276,0.001370502812982794,2.0938469399967383,1.126,-1.0720229275313273,0.8779999999999999,-1.0723979647213513,1.0,1.0,0.2,1.5,3.0,2.5,2.5555555555555554,3.111111111111111,2.125,2.111111111111111,0.75,2.0,2.5,1.75,,,,,,,,,,,,
25,240719_145355,LEARNING,1.0,26,1.0,1472.0,,,,,,,,,,26.0,26.0,26.0,cue2.png,Easy,B,,,,,,,,,,,,,,,,,,,,,,,,,,,48,29,Female,1.0,1.0,0.4639438222317646,-4.06908246091491e-05,-0.16152085949554532,,,-0.00021363587283988392,0.1641336913521514,-3.49654692043443e-05,-0.17847345875102383,0.9949999999999999,-1.3484527800386366,2.364,1.309639965885417,1.0,1.0,0.2,1.5,3.0,2.5,2.5555555555555554,3.111111111111111,2.125,2.111111111111111,0.75,2.0,2.5,1.75,,,,,,,,,,,,
26,240719_145416,LEARNING,1.0,27,3.0,1472.0,,,,,,,,,,27.0,27.0,27.0,cue1.png,Hard,B,,,,,,,,,,,,,,,,,,,,,,,,,,,48,29,Female,0.5,0.6666666666666667,0.5705429777735844,,,,,,,0.0007500941739402404,1.0907882271655223,1.9029999999999998,0.5675648235998108,0.7160000000000002,-1.3320817768063418,1.0,1.0,0.2,1.5,3.0,2.5,2.5555555555555554,3.111111111111111,2.125,2.111111111111111,0.75,2.0,2.5,1.75,,,,,,,,,,,,
27,240719_145436,LEARNING,1.0,28,1.0,1472.0,,,,,,,,,,28.0,28.0,28.0,cue2.png,Easy,B,,,,,,,,,,,,,,,,,,,,,,,,,,,48,29,Female,1.0,1.0,0.4152342666639015,-3.7581326814596725e-05,-0.12548688937410646,6.896947390442774e-05,0.8364986675587857,0.0009665770884202084,2.276488159029774,0.0010328317188684688,1.5479100981994858,1.6329999999999998,-0.0021760937816659135,2.4,1.3673474796820817,1.0,1.0,0.2,1.5,3.0,2.5,2.5555555555555554,3.111111111111111,2.125,2.111111111111111,0.75,2.0,2.5,1.75,,,,,,,,,,,,
28,240719_145456,LEARNING,1.0,29,1.0,1472.0,,,,,,,,,,29.0,29.0,29.0,cue2.png,Easy,B,,,,,,,,,,,,,,,,,,,,,,,,,,,48,29,Female,1.0,1.0,0.4748963111002619,-9.003748127060351e-05,-0.7333675270979325,-0.0001284756454206235,-1.0088800351686749,,,0.00038949652441358854,0.507784394816636,,,,,1.0,1.0,0.2,1.5,3.0,2.5,2.5555555555555554,3.111111111111111,2.125,2.111111111111111,0.75,2.0,2.5,1.75,,,,,,,,,,,,
29,240719_145517,LEARNING,1.0,30,3.0,1472.0,,,,,,,,,,30.0,30.0,30.0,cue1.png,Hard,B,,,,,,,,,,,,,,,,,,,,,,,,,,,48,29,Female,0.8194444444444444,0.8333333333333334,0.4809838999968229,-0.00011788521316047004,-1.0560769821833453,0.00020202221727235858,2.080047760035591,0.0004121535069375286,1.2841764595544836,0.0006456338039544521,0.9218997274477891,,,1.9399999999999997,0.6299736922802553,1.0,1.0,0.2,1.5,3.0,2.5,2.5555555555555554,3.111111111111111,2.125,2.111111111111111,0.75,2.0,2.5,1.75,,,,,,,,,,,,
30,240719_145537,LEARNING,1.0,31,3.0,1472.0,,,,,,,,,,31.0,31.0,31.0,cue1.png,Hard,B,,,,,,,,,,,,,,,,,,,,,,,,,,,48,29,Female,0.8194444444444444,0.8333333333333334,0.5144432333763689,5.20113828244872e-05,0.9127454026343954,-9.036004877834318e-05,-0.6526407392779602,-0.0009823208773864864,-1.2116647932342033,-0.0014911869816667828,-2.5328502097612784,,,,,1.0,1.0,0.2,1.5,3.0,2.5,2.5555555555555554,3.111111111111111,2.125,2.111111111111111,0.75,2.0,2.5,1.75,,,,,,,,,,,,
31,240719_145557,LEARNING,1.0,32,1.0,1472.0,,,,,,,,,,32.0,32.0,32.0,cue2.png,Easy,B,,,,,,,,,,,,,,,,,,,,,,,,,,,48,29,Female,1.0,1.0,0.4475217777459572,-1.4930576839934564e-05,0.1369980846448741,-0.0002537941675196517,-2.18014287787337,,,0.0003252915673956497,0.4039796804864409,0.9969999999999999,-1.3442324769469218,1.011,-0.8592007609725625,1.0,1.0,0.2,1.5,3.0,2.5,2.5555555555555554,3.111111111111111,2.125,2.111111111111111,0.75,2.0,2.5,1.75,,,,,,,,,,,,
32,240719_145618,LEARNING,1.0,33,1.0,1472.0,,,,,,,,,,33.0,33.0,33.0,cue2.png,Easy,B,,,,,,,,,,,,,,,,,,,,,,,,,,,48,29,Female,1.0,1.0,0.4802891000096376,-0.00010832700000050531,-0.9453129970716938,-1.1202477313341716e-05,0.0871886221187032,-0.0011939203824695632,-1.5903872565457278,0.000698856770473425,1.0079490777146833,2.1519999999999997,1.0929925585182834,0.5719999999999998,-1.5629118319930009,1.0,1.0,0.2,1.5,3.0,2.5,2.5555555555555554,3.111111111111111,2.125,2.111111111111111,0.75,2.0,2.5,1.75,,,,,,,,,,,,
33,240719_145638,LEARNING,1.0,34,1.0,1472.0,,,,,,,,,,34.0,34.0,34.0,cue2.png,Easy,B,,,,,,,,,,,,,,,,,,,,,,,,,,,48,29,Female,1.0,1.0,0.4640614333071021,0.00014835838410711929,2.0292488365943373,,,-0.0001747382182877748,0.23375302029732895,,,2.555,1.943383631498785,1.1719999999999997,-0.6011199353819238,1.0,1.0,0.2,1.5,3.0,2.5,2.5555555555555554,3.111111111111111,2.125,2.111111111111111,0.75,2.0,2.5,1.75,,,,,,,,,,,,
34,240719_145658,LEARNING,1.0,35,3.0,1472.0,,,,,,,,,,35.0,35.0,35.0,cue1.png,Hard,B,,,,,,,,,,,,,,,,,,,,,,,,,,,48,29,Female,0.5,0.6666666666666667,0.5201784888437638,-0.00010675773916680271,-0.9271278425128291,7.941532513811023e-05,0.9341285885433723,1.1517274888962238e-05,0.567114571183292,0.00041601908915733614,0.5506653090700259,2.229,1.255474227549298,1.416,-0.20999123076008525,1.0,1.0,0.2,1.5,3.0,2.5,2.5555555555555554,3.111111111111111,2.125,2.111111111111111,0.75,2.0,2.5,1.75,,,,,,,,,,,,
35,240719_145718,LEARNING,1.0,36,3.0,1472.0,,,,,,,,,,36.0,36.0,36.0,cue1.png,Hard,B,,,,,,,,,,,,,,,,,,,,,,,,,,,48,29,Female,0.8194444444444444,0.8333333333333334,0.4072855333409582,6.262473278391021e-05,1.0357366895220186,1.5693175260362863e-05,0.33856310341829843,,,9.913358216995238e-05,0.03833400232974181,1.6839999999999997,0.10544163505705732,1.0999999999999999,-0.7165349629752528,1.0,1.0,0.2,1.5,3.0,2.5,2.5555555555555554,3.111111111111111,2.125,2.111111111111111,0.75,2.0,2.5,1.75,,,,,,,,,,,,
36,240719_145737,LEARNING,1.0,37,1.0,1472.0,,,,,,,,,,37.0,37.0,37.0,cue2.png,Easy,B,,,,,,,,,,,,,,,,,,,,,,,,,,,48,29,Female,1.0,1.0,0.3990413444634113,6.525191402773252e-06,0.3856351839040313,-5.8308785337116056e-05,-0.35308044043575204,,,,,,,1.664,0.18754941983916007,1.0,1.0,0.2,1.5,3.0,2.5,2.5555555555555554,3.111111111111111,2.125,2.111111111111111,0.75,2.0,2.5,1.75,,,,,,,,,,,,
37,240719_145758,LEARNING,1.0,38,3.0,1472.0,,,,,,,,,,38.0,38.0,38.0,cue1.png,Hard,B,,,,,,,,,,,,,,,,,,,,,,,,,,,48,29,Female,1.0,1.0,0.5352367111223025,0.00019169081771645792,2.531400541189103,-5.155544036715984e-05,-0.28996174182050793,,,,,2.0860000000000003,0.9537225564917016,,,1.0,1.0,0.2,1.5,3.0,2.5,2.5555555555555554,3.111111111111111,2.125,2.111111111111111,0.75,2.0,2.5,1.75,,,,,,,,,,,,
38,240719_145819,LEARNING,1.0,39,3.0,1472.0,,,,,,,,,,39.0,39.0,39.0,cue1.png,Hard,B,,,,,,,,,,,,,,,,,,,,,,,,,,,48,29,Female,0.8194444444444444,0.8333333333333334,0.538409600008486,-0.00012146028117294896,-1.097506146136916,-2.030264819459374e-05,0.0021358155826421417,,,,,1.506,-0.2701653401055452,2.07,0.838361936545989,1.0,1.0,0.2,1.5,3.0,2.5,2.5555555555555554,3.111111111111111,2.125,2.111111111111111,0.75,2.0,2.5,1.75,,,,,,,,,,,,
39,240719_145841,LEARNING,1.0,40,3.0,1472.0,,,,,,,,,,40.0,40.0,40.0,cue1.png,Hard,B,,,,,,,,,,,,,,,,,,,,,,,,,,,48,29,Female,1.0,1.0,0.6165317555811877,-1.1679357976329685e-05,0.17467436909011239,,,-0.00038604259908855444,-0.14444122724577613,-0.001077581679958378,-1.8641451411277263,1.927,0.618208460700387,1.4339999999999997,-0.18113747386175325,1.0,1.0,0.2,1.5,3.0,2.5,2.5555555555555554,3.111111111111111,2.125,2.111111111111111,0.75,2.0,2.5,1.75,,,,,,,,,,,,
40,240719_145900,LEARNING,1.0,41,1.0,1472.0,,,,,,,,,,41.0,41.0,41.0,cue2.png,Easy,B,,,,,,,,,,,,,,,,,,,,,,,,,,,48,29,Female,1.0,1.0,0.4066316000082426,-0.00017534450963341795,-1.7219358150574027,2.3715678407694712e-05,0.41354371829122255,-0.0016667164893530342,-2.4366014580993003,0.00043130561770079925,0.5753801255305556,0.8419999999999999,-1.6713059665548067,,,1.0,1.0,0.2,1.5,3.0,2.5,2.5555555555555554,3.111111111111111,2.125,2.111111111111111,0.75,2.0,2.5,1.75,,,,,,,,,,,,
41,240719_145920,LEARNING,1.0,42,3.0,1472.0,,,,,,,,,,42.0,42.0,42.0,cue1.png,Hard,B,,,,,,,,,,,,,,,,,,,,,,,,,,,48,29,Female,0.8194444444444444,0.8333333333333334,0.4921489888802171,,,-3.0913542275316265e-06,0.16299750434846957,,,,,2.532,1.894850145944066,2.532,1.5789416969365189,1.0,1.0,0.2,1.5,3.0,2.5,2.5555555555555554,3.111111111111111,2.125,2.111111111111111,0.75,2.0,2.5,1.75,,,,,,,,,,,,
42,240719_145940,LEARNING,1.0,43,3.0,1472.0,,,,,,,,,,43.0,43.0,43.0,cue1.png,Hard,B,,,,,,,,,,,,,,,,,,,,,,,,,,,48,29,Female,0.8194444444444444,0.8333333333333334,0.40839340002276,6.0730815569165746e-05,1.013789300960386,-5.586444483498881e-05,-0.3302349331866526,-0.0006006485725799952,-0.5285446914298539,,,1.028,-1.2788177790253445,2.6229999999999998,1.724813467922532,1.0,1.0,0.2,1.5,3.0,2.5,2.5555555555555554,3.111111111111111,2.125,2.111111111111111,0.75,2.0,2.5,1.75,,,,,,,,,,,,
43,240719_150001,LEARNING,1.0,44,1.0,1472.0,,,,,,,,,,44.0,44.0,44.0,cue2.png,Easy,B,,,,,,,,,,,,,,,,,,,,,,,,,,,48,29,Female,1.0,1.0,0.4969541110977944,-9.302851806889832e-05,-0.7680287289198796,-1.4294270036070093e-05,0.058291840758523,-0.001184312597326355,-1.5731911669094354,-0.0008194801116848194,-1.4468540033838546,1.551,-0.17520852054196592,1.7710000000000001,0.35906897473480254,1.0,1.0,0.2,1.5,3.0,2.5,2.5555555555555554,3.111111111111111,2.125,2.111111111111111,0.75,2.0,2.5,1.75,,,,,,,,,,,,
44,240719_150021,LEARNING,1.0,45,1.0,1472.0,,,,,,,,,,45.0,45.0,45.0,cue2.png,Easy,B,,,,,,,,,,,,,,,,,,,,,,,,,,,48,29,Female,1.0,1.0,0.4960752222298955,,,-0.00033558962236925234,-2.944626653797262,,,,,1.719,0.17929693916206432,1.3599999999999999,-0.2997584744437859,1.0,1.0,0.2,1.5,3.0,2.5,2.5555555555555554,3.111111111111111,2.125,2.111111111111111,0.75,2.0,2.5,1.75,,,,,,,,,,,,
45,240719_150041,LEARNING,1.0,46,1.0,1472.0,,,,,,,,,,46.0,46.0,46.0,cue2.png,Easy,B,,,,,,,,,,,,,,,,,,,,,,,,,,,48,29,Female,1.0,1.0,0.4460354888837577,,,,,-0.0006449343611482326,-0.6078077451391304,0.0005414240479100531,0.7534164130895885,1.1139999999999999,-1.0973447460816153,1.416,-0.20999123076008525,1.0,1.0,0.2,1.5,3.0,2.5,2.5555555555555554,3.111111111111111,2.125,2.111111111111111,0.75,2.0,2.5,1.75,,,,,,,,,,,,
46,240719_150102,LEARNING,1.0,47,3.0,1472.0,,,,,,,,,,47.0,47.0,47.0,cue1.png,Hard,B,,,,,,,,,,,,,,,,,,,,,,,,,,,48,29,Female,1.0,1.0,0.529087055565065,-4.5395467763260575e-06,0.2574130492410918,,,-0.00020105544892359307,0.1866502333129196,,,,,1.7440000000000002,0.3157883393873042,1.0,1.0,0.2,1.5,3.0,2.5,2.5555555555555554,3.111111111111111,2.125,2.111111111111111,0.75,2.0,2.5,1.75,,,,,,,,,,,,
47,240719_150123,LEARNING,1.0,48,3.0,1472.0,,,,,,,,,,48.0,48.0,48.0,cue1.png,Hard,B,,,,,,,,,,,,,,,,,,,,,,,,,,,48,29,Female,0.8194444444444444,0.8333333333333334,0.5447811333514336,,,3.0576505814603784e-05,0.4776669785828863,-0.0004603301642540497,-0.27740169736523995,0.0006884416815860182,0.9911102637524097,1.232,-0.8483468636704512,0.3959999999999999,-1.8450374549989168,1.0,1.0,0.2,1.5,3.0,2.5,2.5555555555555554,3.111111111111111,2.125,2.111111111111111,0.75,2.0,2.5,1.75,,,,,,,,,,,,
48,240719_150143,LEARNING,1.0,49,1.0,1472.0,,,,,,,,,,49.0,49.0,49.0,cue2.png,Easy,B,,,,,,,,,,,,,,,,,,,,,,,,,,,48,29,Female,1.0,1.0,0.4526000222087734,,,-4.005402381442556e-05,-0.18246620468002603,0.000592681395650281,1.6072866987910044,0.000644705081695186,0.9203981962063885,,,,,1.0,1.0,0.2,1.5,3.0,2.5,2.5555555555555554,3.111111111111111,2.125,2.111111111111111,0.75,2.0,2.5,1.75,,,,,,,,,,,,
49,240719_150203,LEARNING,1.0,50,1.0,1472.0,,,,,,,,,,50.0,50.0,50.0,cue2.png,Easy,B,,,,,,,,,,,,,,,,,,,,,,,,,,,48,29,Female,1.0,1.0,0.4758380333272119,,,,,,,,,2.373,1.5593360501527525,0.747,-1.2823891954814364,1.0,1.0,0.2,1.5,3.0,2.5,2.5555555555555554,3.111111111111111,2.125,2.111111111111111,0.75,2.0,2.5,1.75,,,,,,,,,,,,
0,240719_150336,TrueCHOICE,9.0,1,3.0,1472.0,,,,,,,,,,,1.0,1.0,,,B,,,,,,True,cue2.png,Easy,cue1.png,Hard,Right,Hard,Hard,0.0136343999765813,,,,,,,,,,,,,48,29,Female,0.8194444444444444,0.8333333333333334,0.5100550555572327,,,,,,,,,,,,,1.0,1.0,0.2,1.5,3.0,2.5,2.5555555555555554,3.111111111111111,2.125,2.111111111111111,0.75,2.0,2.5,1.75,,,,,1.46,-0.9847851454129731,,,,,,
1,240719_150355,TrueCHOICE,9.0,2,3.0,1472.0,,,,,,,,,,,2.0,2.0,,,B,,,,,,True,cue2.png,Easy,cue1.png,Hard,Right,Hard,Hard,0.0167011999292299,,,,,,,,,,,,,48,29,Female,,,,,,,,,,,,,,,,1.0,1.0,0.2,1.5,3.0,2.5,2.5555555555555554,3.111111111111111,2.125,2.111111111111111,0.75,2.0,2.5,1.75,0.00017293147211489045,1.6897406029088493,,,,,,,,,,
2,240719_150415,TrueCHOICE,9.0,3,3.0,1472.0,,,,,,,,,,,3.0,3.0,,,B,,,,,,True,cue1.png,Hard,cue2.png,Easy,Left,Hard,Hard,0.0160811999812722,,,,,,,,,,,,,48,29,Female,0.8194444444444444,0.8333333333333334,0.5682218222387342,,,,,,,,,,,,,1.0,1.0,0.2,1.5,3.0,2.5,2.5555555555555554,3.111111111111111,2.125,2.111111111111111,0.75,2.0,2.5,1.75,,,-0.0014612719110734277,-1.9001745642637935,1.599,1.550124765927826,,,,,,
3,240719_150433,TrueCHOICE,9.0,4,3.0,1472.0,,,,,,,,,,,4.0,4.0,,,B,,,,,,True,cue2.png,Easy,cue1.png,Hard,Right,Hard,Hard,0.0166049000108614,,,,,,,,,,,,,48,29,Female,0.8194444444444444,0.8333333333333334,0.5406581222260785,,,,,,,,,,,,,1.0,1.0,0.2,1.5,3.0,2.5,2.5555555555555554,3.111111111111111,2.125,2.111111111111111,0.75,2.0,2.5,1.75,1.675393306590188e-05,-0.5117722087412363,,,,,,,,,,
4,240719_150452,TrueCHOICE,9.0,5,1.0,1472.0,,,,,,,,,,,5.0,5.0,,,B,,,,,,True,cue1.png,Hard,cue2.png,Easy,Right,Easy,Easy,0.0166563000530004,,,,,,,,,,,,,48,29,Female,1.0,1.0,0.4688467999997859,,,,,,,,,,,,,1.0,1.0,0.2,1.5,3.0,2.5,2.5555555555555554,3.111111111111111,2.125,2.111111111111111,0.75,2.0,2.5,1.75,-9.617879112869265e-06,-0.8835150517359852,-0.00012068776971087096,0.3570113032323249,1.5479999999999998,0.6200499063711272,,,,,,
5,240719_150509,TrueCHOICE,9.0,6,1.0,1472.0,,,,,,,,,,,6.0,6.0,,,B,,,,,,True,cue1.png,Hard,cue2.png,Easy,Right,Easy,Easy,0.0153647999977692,,,,,,,,,,,,,48,29,Female,1.0,1.0,0.5806855444356592,,,,,,,,,,,,,1.0,1.0,0.2,1.5,3.0,2.5,2.5555555555555554,3.111111111111111,2.125,2.111111111111111,0.75,2.0,2.5,1.75,,,,,,,,,,,,
6,240719_150528,TrueCHOICE,9.0,7,1.0,1472.0,,,,,,,,,,,7.0,7.0,,,B,,,,,,True,cue2.png,Easy,cue1.png,Hard,Left,Easy,Easy,0.0168098000576719,,,,,,,,,,,,,48,29,Female,,,,,,,,,,,,,,,,1.0,1.0,0.2,1.5,3.0,2.5,2.5555555555555554,3.111111111111111,2.125,2.111111111111111,0.75,2.0,2.5,1.75,,,,,,,,,,,,
7,240719_150546,TrueCHOICE,9.0,8,1.0,1472.0,,,,,,,,,,,8.0,8.0,,,B,,,,,,True,cue1.png,Hard,cue2.png,Easy,Right,Easy,Easy,0.0165964000625535,,,,,,,,,,,,,48,29,Female,1.0,1.0,0.4702711444373967,,,,,,,,,,,,,1.0,1.0,0.2,1.5,3.0,2.5,2.5555555555555554,3.111111111111111,2.125,2.111111111111111,0.75,2.0,2.5,1.75,,,-8.157061799993811e-05,0.42287414562644526,,,,,,,,
8,240719_150603,TrueCHOICE,9.0,9,1.0,1472.0,,,,,,,,,,,9.0,9.0,,,B,,,,,,True,cue2.png,Easy,cue1.png,Hard,Left,Easy,Easy,0.0159232000587508,,,,,,,,,,,,,48,29,Female,1.0,1.0,0.4398919889030771,,,,,,,,,,,,,1.0,1.0,0.2,1.5,3.0,2.5,2.5555555555555554,3.111111111111111,2.125,2.111111111111111,0.75,2.0,2.5,1.75,-9.004250200460567e-06,-0.8748652041299033,-0.0002834901280556919,0.08289558672275146,1.51,-0.07294704780836839,,,,,,
9,240719_150621,TrueCHOICE,9.0,10,1.0,1472.0,,,,,,,,,,,10.0,10.0,,,B,,,,,,True,cue1.png,Hard,cue2.png,Easy,Right,Easy,Easy,0.0165930000366643,,,,,,,,,,,,,48,29,Female,1.0,1.0,0.4880357555553524,,,,,,,,,,,,,1.0,1.0,0.2,1.5,3.0,2.5,2.5555555555555554,3.111111111111111,2.125,2.111111111111111,0.75,2.0,2.5,1.75,9.423457247308316e-05,0.5804118616982752,0.0002834037296369253,1.0373935286822717,1.453,-1.1124424790776157,,,,,,
0,240719_150746,FalseCHOICE,9.0,1,2.0,1472.0,,,,,,,,,,,1.0,1.0,,,B,,,,,,False,cue2.png,Easy,cue1.png,Hard,Left,Easy,Mid,0.0167549999896436,,,,,,,,,,,,,48,29,Female,1.0,1.0,0.509091033328635,,,,,,,,,,,,,1.0,1.0,0.2,1.5,3.0,2.5,2.5555555555555554,3.111111111111111,2.125,2.111111111111111,0.75,2.0,2.5,1.75,,,,,1.46,-0.9847851454129731,,,,,,
1,240719_150805,FalseCHOICE,9.0,2,2.0,1472.0,,,,,,,,,,,2.0,2.0,,,B,,,,,,False,cue1.png,Hard,cue2.png,Easy,Left,Hard,Mid,0.0159174000145867,,,,,,,,,,,,,48,29,Female,,,,,,,,,,,,,,,,1.0,1.0,0.2,1.5,3.0,2.5,2.5555555555555554,3.111111111111111,2.125,2.111111111111111,0.75,2.0,2.5,1.75,0.00017293147211489045,1.6897406029088493,,,,,,,,,,
2,240719_150824,FalseCHOICE,9.0,3,2.0,1472.0,,,,,,,,,,,3.0,3.0,,,B,,,,,,False,cue1.png,Hard,cue2.png,Easy,Left,Hard,Mid,0.0159213000442832,,,,,,,,,,,,,48,29,Female,,,,,,,,,,,,,,,,1.0,1.0,0.2,1.5,3.0,2.5,2.5555555555555554,3.111111111111111,2.125,2.111111111111111,0.75,2.0,2.5,1.75,,,-0.0014612719110734277,-1.9001745642637935,1.599,1.550124765927826,,,,,,
3,240719_150843,FalseCHOICE,9.0,4,2.0,1472.0,,,,,,,,,,,4.0,4.0,,,B,,,,,,False,cue1.png,Hard,cue2.png,Easy,Right,Easy,Mid,0.0166011999826878,,,,,,,,,,,,,48,29,Female,0.5,0.6666666666666667,0.6068768888686059,,,,,,,,,,,,,1.0,1.0,0.2,1.5,3.0,2.5,2.5555555555555554,3.111111111111111,2.125,2.111111111111111,0.75,2.0,2.5,1.75,1.675393306590188e-05,-0.5117722087412363,,,,,,,,,,
4,240719_150901,FalseCHOICE,9.0,5,2.0,1472.0,,,,,,,,,,,5.0,5.0,,,B,,,,,,False,cue2.png,Easy,cue1.png,Hard,Right,Hard,Mid,0.0171441999264061,,,,,,,,,,,,,48,29,Female,,,,,,,,,,,,,,,,1.0,1.0,0.2,1.5,3.0,2.5,2.5555555555555554,3.111111111111111,2.125,2.111111111111111,0.75,2.0,2.5,1.75,-9.617879112869265e-06,-0.8835150517359852,-0.00012068776971087096,0.3570113032323249,1.5479999999999998,0.6200499063711272,,,,,,
5,240719_150919,FalseCHOICE,9.0,6,2.0,1472.0,,,,,,,,,,,6.0,6.0,,,B,,,,,,False,cue1.png,Hard,cue2.png,Easy,Right,Easy,Mid,0.0151214000070467,,,,,,,,,,,,,48,29,Female,0.8194444444444444,0.8333333333333334,0.5076027777589237,,,,,,,,,,,,,1.0,1.0,0.2,1.5,3.0,2.5,2.5555555555555554,3.111111111111111,2.125,2.111111111111111,0.75,2.0,2.5,1.75,,,,,,,,,,,,
6,240719_150937,FalseCHOICE,9.0,7,2.0,1472.0,,,,,,,,,,,7.0,7.0,,,B,,,,,,False,cue1.png,Hard,cue2.png,Easy,Left,Hard,Mid,0.0160732000367715,,,,,,,,,,,,,48,29,Female,1.0,1.0,0.4535533888782892,,,,,,,,,,,,,1.0,1.0,0.2,1.5,3.0,2.5,2.5555555555555554,3.111111111111111,2.125,2.111111111111111,0.75,2.0,2.5,1.75,,,,,,,,,,,,
7,240719_150955,FalseCHOICE,9.0,8,2.0,1472.0,,,,,,,,,,,8.0,8.0,,,B,,,,,,False,cue2.png,Easy,cue1.png,Hard,Right,Hard,Mid,0.0154342999448999,,,,,,,,,,,,,48,29,Female,,,,,,,,,,,,,,,,1.0,1.0,0.2,1.5,3.0,2.5,2.5555555555555554,3.111111111111111,2.125,2.111111111111111,0.75,2.0,2.5,1.75,,,-8.157061799993811e-05,0.42287414562644526,,,,,,,,
8,240719_151013,FalseCHOICE,9.0,9,2.0,1472.0,,,,,,,,,,,9.0,9.0,,,B,,,,,,False,cue2.png,Easy,cue1.png,Hard,Left,Easy,Mid,0.0141425000037997,,,,,,,,,,,,,48,29,Female,0.8194444444444444,0.8333333333333334,0.4459724222801419,,,,,,,,,,,,,1.0,1.0,0.2,1.5,3.0,2.5,2.5555555555555554,3.111111111111111,2.125,2.111111111111111,0.75,2.0,2.5,1.75,-9.004250200460567e-06,-0.8748652041299033,-0.0002834901280556919,0.08289558672275146,1.51,-0.07294704780836839,,,,,,
9,240719_151031,FalseCHOICE,9.0,10,2.0,1472.0,,,,,,,,,,,10.0,10.0,,,B,,,,,,False,cue1.png,Hard,cue2.png,Easy,Right,Easy,Mid,0.0167393999872729,,,,,,,,,,,,,48,29,Female,,,,,,,,,,,,,,,,1.0,1.0,0.2,1.5,3.0,2.5,2.5555555555555554,3.111111111111111,2.125,2.111111111111111,0.75,2.0,2.5,1.75,9.423457247308316e-05,0.5804118616982752,0.0002834037296369253,1.0373935286822717,1.453,-1.1124424790776157,,,,,,
0,240719_144445,OFFLINERATING,9.0,1,1.0,,,,,,,,,,,,,,,,,T0,cue2.png,Easy,28.0,0.8682278000051156,,,,,,,,,,,,,,,,,,,,,,48,29,Female,,,,,,,,,,,,,,,,1.0,1.0,0.2,1.5,3.0,2.5,2.5555555555555554,3.111111111111111,2.125,2.111111111111111,0.75,2.0,2.5,1.75,,,,,,,,,,,1.584,-0.36854809733216876
1,240719_144452,OFFLINERATING,9.0,2,3.0,,,,,,,,,,,,,,,,,T0,cue1.png,Hard,21.0,0.935016299947165,,,,,,,,,,,,,,,,,,,,,,48,29,Female,,,,,,,,,,,,,,,,1.0,1.0,0.2,1.5,3.0,2.5,2.5555555555555554,3.111111111111111,2.125,2.111111111111111,0.75,2.0,2.5,1.75,,,,,,,,,0.00011404780303849501,1.316596946512607,,
2,240719_150245,OFFLINERATING,9.0,3,1.0,,,,,,,,,,,,,,,,,T1,cue2.png,Easy,0.0,1.9301888999762011,,,,,,,,,,,,,,,,,,,,,,48,29,Female,,,,,,,,,,,,,,,,1.0,1.0,0.2,1.5,3.0,2.5,2.5555555555555554,3.111111111111111,2.125,2.111111111111111,0.75,2.0,2.5,1.75,,,,,,,-9.990582369912579e-05,1.027632059972369,,,,
3,240719_150253,OFFLINERATING,9.0,4,3.0,,,,,,,,,,,,,,,,,T1,cue1.png,Hard,0.0,1.3282851000549272,,,,,,,,,,,,,,,,,,,,,,48,29,Female,,,,,,,,,,,,,,,,1.0,1.0,0.2,1.5,3.0,2.5,2.5555555555555554,3.111111111111111,2.125,2.111111111111111,0.75,2.0,2.5,1.75,,,,,,,,,-0.0008949150492541221,-1.1054330842240296,1.4609999999999999,-0.9981510969412929
4,240719_150645,OFFLINERATING,9.0,5,1.0,,,,,,,,,,,,,,,,,T2,cue2.png,Easy,25.0,1.2187385000288486,,,,,,,,,,,,,,,,,,,,,,48,29,Female,,,,,,,,,,,,,,,,1.0,1.0,0.2,1.5,3.0,2.5,2.5555555555555554,3.111111111111111,2.125,2.111111111111111,0.75,2.0,2.5,1.75,,,,,,,-0.00016784414019111642,-1.355231065499402,,,1.923,1.3666991942734628
5,240719_150652,OFFLINERATING,9.0,6,3.0,,,,,,,,,,,,,,,,,T2,cue1.png,Hard,6.0,1.2184813999338076,,,,,,,,,,,,,,,,,,,,,,48,29,Female,,,,,,,,,,,,,,,,1.0,1.0,0.2,1.5,3.0,2.5,2.5555555555555554,3.111111111111111,2.125,2.111111111111111,0.75,2.0,2.5,1.75,,,,,,,-0.00011986461474313348,0.327599005527033,,,,
6,240719_152302,OFFLINERATING,9.0,7,1.0,,,,,,,,,,,,,,,,,T3,cue2.png,Easy,0.0,1.227960200048983,,,,,,,,,,,,,,,,,,,,,,48,29,Female,,,,,,,,,,,,,,,,1.0,1.0,0.2,1.5,3.0,2.5,2.5555555555555554,3.111111111111111,2.125,2.111111111111111,0.75,2.0,2.5,1.75,,,,,,,,,-0.000522382746420919,-0.2111638622885778,,
7,240719_152309,OFFLINERATING,9.0,8,3.0,,,,,,,,,,,,,,,,,T3,cue1.png,Hard,0.0,1.418460600078106,,,,,,,,,,,,,,,,,,,,,,48,29,Female,,,,,,,,,,,,,,,,1.0,1.0,0.2,1.5,3.0,2.5,2.5555555555555554,3.111111111111111,2.125,2.111111111111111,0.75,2.0,2.5,1.75,,,,,,,,,,,,
