,END,Phase,Block,TrialN,NbackLevel,ISI,Letter_Resp,Letter_RT,Letter_Accuracy,Trial_A_measure,Trial_ACC,Trial_RT,TrialCountCali,CaliEnd_A_measure,ISI_calibrated,TrialIndex,TrialNumber_total,TrialNumber_valid,CueLearning,TrialDemandLearning,CueMapping,OfflineRatingTimePoint,CueFigure,TrialDemand,OfflineRating,OfflineRatingRT,PhaseType,CueLeft,CueDemandLeft,CueRight,CueDemandRight,Choice,ChoiceDemand,TaskDemand,ChoiceRT,CueCheck,CueDemandCheck,CorrectAnswer,Answer,AnswerDemand,AnswerRT,AnswerACC,DemandRatingQuesIndex,QuesTLX,DemandLevel,DemandRating,DemandRatingRT,PID,Age,Gender,Task_A_measure,Task_ACC,Task_RT,cue_i_on_zyg_values,cue_i_on_zyg_zvalues,cue_e_on_zyg_values,cue_e_on_zyg_zvalues,cue_i_on_cor_values,cue_i_on_cor_zvalues,cue_e_on_cor_values,cue_e_on_cor_zvalues,cue_i_on_scr_values,cue_i_on_scr_zvalues,cue_e_on_scr_values,cue_e_on_scr_zvalues,BAI_bis,BAI_bas_d,BAI_bas_rr,BAI_bas_fs,NFC,BFI_ext,BFI_agr,BFI_con,BFI_neu,BFI_open,UPPS_lps,UPPS_lpm,UPPS_pu,UPPS_ss,cue_e_true_zyg_values,cue_e_true_zyg_zvalues,cue_e_true_cor_values,cue_e_true_cor_zvalues,cue_e_true_scr_values,cue_e_true_scr_zvalues,cue_i_off_zyg_values,cue_i_off_zyg_zvalues,cue_i_off_cor_values,cue_i_off_cor_zvalues,cue_i_off_scr_values,cue_i_off_scr_zvalues
0,240724_093628,LEARNING,1.0,1,1.0,500.0,,,,,,,,,,1.0,1.0,1.0,cue2.png,Easy,B,,,,,,,,,,,,,,,,,,,,,,,,,,,50,23,Female,1.0,1.0,0.4811813437700039,,,6.1235333951898015e-06,0.22204928147801353,0.0003568991419703911,1.1575307375323753,5.0254404907916234e-05,0.26504455176433483,,,1.3969999999999998,-0.28267350613547154,1.1428571428571428,1.5,0.4,1.0,1.7777777777777777,2.125,3.111111111111111,2.3333333333333335,1.25,1.7777777777777777,1.25,1.5,2.75,2.25,,,,,,,,,,,,
1,240724_093659,LEARNING,1.0,2,3.0,500.0,,,,,,,,,,2.0,2.0,2.0,cue1.png,Hard,B,,,,,,,,,,,,,,,,,,,,,,,,,,,50,23,Female,0.0484848484848484,0.6647727272727273,0.6743218200126042,1.2090259537525776e-05,0.15434459459370348,-0.00015572805156693383,-0.37249251910415515,-6.355476677939557e-05,0.06459888853185297,-1.4064642161820944e-05,0.10446278221822199,1.457,-0.3206259215205281,1.445,-0.20134914096337328,1.1428571428571428,1.5,0.4,1.0,1.7777777777777777,2.125,3.111111111111111,2.3333333333333335,1.25,1.7777777777777777,1.25,1.5,2.75,2.25,,,,,,,,,,,,
2,240724_093725,LEARNING,1.0,3,1.0,500.0,,,,,,,,,,3.0,3.0,3.0,cue2.png,Easy,B,,,,,,,,,,,,,,,,,,,,,,,,,,,50,23,Female,1.0,1.0,0.4846794375189347,-3.8168119595421556e-05,-0.15437660475949944,1.5938746718941518e-05,0.2581042549524288,-0.0004880987862601084,-1.0389648328112526,0.00023974490706473416,0.7381348964569631,1.0709999999999997,-1.098581417163908,1.159,-0.6859068167804561,1.1428571428571428,1.5,0.4,1.0,1.7777777777777777,2.125,3.111111111111111,2.3333333333333335,1.25,1.7777777777777777,1.25,1.5,2.75,2.25,,,,,,,,,,,,
3,240724_093754,LEARNING,1.0,4,3.0,500.0,,,,,,,,,,4.0,4.0,4.0,cue1.png,Hard,B,,,,,,,,,,,,,,,,,,,,,,,,,,,50,23,Female,0.7818181818181817,0.8181818181818181,0.5870329437457258,,,0.00012094379383024555,0.6438273221338836,0.0003503184031465956,1.1404247030757888,8.243681152020343e-05,0.3453925674376759,1.582,-0.06869732837176544,1.5930000000000002,0.04940098498392849,1.1428571428571428,1.5,0.4,1.0,1.7777777777777777,2.125,3.111111111111111,2.3333333333333335,1.25,1.7777777777777777,1.25,1.5,2.75,2.25,,,,,,,,,,,,
4,240724_093822,LEARNING,1.0,5,3.0,500.0,,,,,,,,,,5.0,5.0,5.0,cue1.png,Hard,B,,,,,,,,,,,,,,,,,,,,,,,,,,,50,23,Female,0.75,0.7708333333333334,0.5625327333342284,2.5589202608569152e-05,0.2372642980697978,0.00014557724456818345,0.734315259954901,-0.0008208640741274491,-1.9039580550968291,3.208331207293306e-05,0.21967780000160209,1.5690000000000002,-0.09489790205923655,1.531,-0.0556429866966983,1.1428571428571428,1.5,0.4,1.0,1.7777777777777777,2.125,3.111111111111111,2.3333333333333335,1.25,1.7777777777777777,1.25,1.5,2.75,2.25,,,,,,,,,,,,
5,240724_093850,LEARNING,1.0,6,1.0,500.0,,,,,,,,,,6.0,6.0,6.0,cue2.png,Easy,B,,,,,,,,,,,,,,,,,,,,,,,,,,,50,23,Female,0.9090909090909092,0.9090909090909092,0.5391668999945978,-2.6549550608924617e-05,-0.08300743977328048,7.827243185819406e-05,0.48707934597971736,0.0004288102515467157,1.3444571528120655,-0.00021105649409842303,-0.38735576316301457,1.551,-0.13117561947265885,-0.010000000000000009,-2.6664939602425877,1.1428571428571428,1.5,0.4,1.0,1.7777777777777777,2.125,3.111111111111111,2.3333333333333335,1.25,1.7777777777777777,1.25,1.5,2.75,2.25,,,,,,,,,,,,
6,240724_093919,LEARNING,1.0,7,3.0,500.0,,,,,,,,,,7.0,7.0,7.0,cue1.png,Hard,B,,,,,,,,,,,,,,,,,,,,,,,,,,,50,23,Female,0.95,0.9375,0.6110932199905316,0.00010785096160914782,0.7425720564514093,-8.999955883096447e-05,-0.13104702179907596,-0.00013146943360109117,-0.1119391358247296,0.00010231642331772709,0.39502488299227223,,,1.457,-0.18101804967034882,1.1428571428571428,1.5,0.4,1.0,1.7777777777777777,2.125,3.111111111111111,2.3333333333333335,1.25,1.7777777777777777,1.25,1.5,2.75,2.25,,,,,,,,,,,,
7,240724_093949,LEARNING,1.0,8,3.0,500.0,,,,,,,,,,8.0,8.0,8.0,cue1.png,Hard,B,,,,,,,,,,,,,,,,,,,,,,,,,,,50,23,Female,0.8958333333333333,0.8541666666666666,0.6377313666666548,-0.0003157472994331314,-1.8594570071395742,0.00020186022458082648,0.941063833264689,-0.0002856838124736683,-0.5128054442028375,-6.42502204282417e-05,-0.020832745791996073,,,2.012,0.7592949226320319,1.1428571428571428,1.5,0.4,1.0,1.7777777777777777,2.125,3.111111111111111,2.3333333333333335,1.25,1.7777777777777777,1.25,1.5,2.75,2.25,,,,,,,,,,,,
8,240724_094017,LEARNING,1.0,9,1.0,500.0,,,,,,,,,,9.0,9.0,9.0,cue2.png,Easy,B,,,,,,,,,,,,,,,,,,,,,,,,,,,50,23,Female,1.0,1.0,0.5522243062296184,-0.00014942577474540098,-0.8377969085513864,7.18764577017205e-05,0.46358452513902737,0.0002519395389675534,0.884697757286451,0.00042358344136583705,1.19711428893501,,,,,1.1428571428571428,1.5,0.4,1.0,1.7777777777777777,2.125,3.111111111111111,2.3333333333333335,1.25,1.7777777777777777,1.25,1.5,2.75,2.25,,,,,,,,,,,,
9,240724_094043,LEARNING,1.0,10,1.0,500.0,,,,,,,,,,10.0,10.0,10.0,cue2.png,Easy,B,,,,,,,,,,,,,,,,,,,,,,,,,,,50,23,Female,1.0,1.0,0.48361080622999,-9.488280555594022e-05,-0.5027568385182396,0.00016947677505681127,0.8221072324159829,-0.0005548230432320467,-1.212408494596603,0.0004398251344647883,1.2376640162253825,1.742,0.25377127085865064,2.771,2.045236446915828,1.1428571428571428,1.5,0.4,1.0,1.7777777777777777,2.125,3.111111111111111,2.3333333333333335,1.25,1.7777777777777777,1.25,1.5,2.75,2.25,,,,,,,,,,,,
10,240724_094114,LEARNING,1.0,11,3.0,500.0,,,,,,,,,,11.0,11.0,11.0,cue1.png,Hard,B,,,,,,,,,,,,,,,,,,,,,,,,,,,50,23,Female,0.95,0.9375,0.6909871933205675,4.3683575315307636e-05,0.3484122606571176,-0.0003936393071288921,-1.2464301224564653,-0.0005512012310981288,-1.2029939220361392,0.0005798771871613809,1.5873241476356004,2.0460000000000003,0.866461609396442,,,1.1428571428571428,1.5,0.4,1.0,1.7777777777777777,2.125,3.111111111111111,2.3333333333333335,1.25,1.7777777777777777,1.25,1.5,2.75,2.25,,,,,,,,,,,,
11,240724_094141,LEARNING,1.0,12,1.0,500.0,,,,,,,,,,12.0,12.0,12.0,cue2.png,Easy,B,,,,,,,,,,,,,,,,,,,,,,,,,,,50,23,Female,1.0,1.0,0.4976060937478905,,,-0.00033030628737738214,-1.0137840991989202,,,-0.00029252776032604073,-0.590760519514713,1.4409999999999998,-0.3528727814435702,1.692,0.21713248815137978,1.1428571428571428,1.5,0.4,1.0,1.7777777777777777,2.125,3.111111111111111,2.3333333333333335,1.25,1.7777777777777777,1.25,1.5,2.75,2.25,,,,,,,,,,,,
12,240724_094208,LEARNING,1.0,13,1.0,500.0,,,,,,,,,,13.0,13.0,13.0,cue2.png,Easy,B,,,,,,,,,,,,,,,,,,,,,,,,,,,50,23,Female,1.0,1.0,0.503211424977053,-8.39191411857892e-05,-0.43541054378984234,-0.00012435001749538368,-0.2572291877009204,-0.00019839147340354902,-0.2858969161618684,-0.0011287935818878872,-2.678618651052853,1.4460000000000002,-0.342795637717619,2.2439999999999998,1.1523626876305042,1.1428571428571428,1.5,0.4,1.0,1.7777777777777777,2.125,3.111111111111111,2.3333333333333335,1.25,1.7777777777777777,1.25,1.5,2.75,2.25,,,,,,,,,,,,
13,240724_094235,LEARNING,1.0,14,1.0,500.0,,,,,,,,,,14.0,14.0,14.0,cue2.png,Easy,B,,,,,,,,,,,,,,,,,,,,,,,,,,,50,23,Female,1.0,1.0,0.5237606500013499,-0.00018586141283263077,-1.061609416705172,6.440900277829764e-05,0.436153752082483,5.5133530733628665e-05,0.3731183665439586,0.00014538937624973807,0.5025627169079298,,,,,1.1428571428571428,1.5,0.4,1.0,1.7777777777777777,2.125,3.111111111111111,2.3333333333333335,1.25,1.7777777777777777,1.25,1.5,2.75,2.25,,,,,,,,,,,,
14,240724_094305,LEARNING,1.0,15,3.0,500.0,,,,,,,,,,15.0,15.0,15.0,cue1.png,Hard,B,,,,,,,,,,,,,,,,,,,,,,,,,,,50,23,Female,0.8125,0.7916666666666666,0.6057364285890279,6.881484952655538e-07,0.08430506174658546,0.000247564222025026,1.1089518211434373,1.1026134314196835e-05,0.2584651850177609,0.00023458892073726853,0.7252622335998425,,,,,1.1428571428571428,1.5,0.4,1.0,1.7777777777777777,2.125,3.111111111111111,2.3333333333333335,1.25,1.7777777777777777,1.25,1.5,2.75,2.25,,,,,,,,,,,,
15,240724_094331,LEARNING,1.0,16,1.0,500.0,,,,,,,,,,16.0,16.0,16.0,cue2.png,Easy,B,,,,,,,,,,,,,,,,,,,,,,,,,,,50,23,Female,1.0,1.0,0.4730036999535514,0.0003924554310279489,2.4908065728855964,0.00011321747048995004,0.6154456279311712,-0.00038207505603540977,-0.7633657502460077,-8.269205983340178e-05,-0.06687545538243746,,,,,1.1428571428571428,1.5,0.4,1.0,1.7777777777777777,2.125,3.111111111111111,2.3333333333333335,1.25,1.7777777777777777,1.25,1.5,2.75,2.25,,,,,,,,,,,,
16,240724_094358,LEARNING,1.0,17,1.0,500.0,,,,,,,,,,17.0,17.0,17.0,cue2.png,Easy,B,,,,,,,,,,,,,,,,,,,,,,,,,,,50,23,Female,1.0,1.0,0.4833024249965092,-3.921821129974391e-05,-0.16082698330297943,0.00011969370768288292,0.6392352851197899,0.00017559934879357152,0.6862583482011767,,,,,,,1.1428571428571428,1.5,0.4,1.0,1.7777777777777777,2.125,3.111111111111111,2.3333333333333335,1.25,1.7777777777777777,1.25,1.5,2.75,2.25,,,,,,,,,,,,
17,240724_094428,LEARNING,1.0,18,3.0,500.0,,,,,,,,,,18.0,18.0,18.0,cue1.png,Hard,B,,,,,,,,,,,,,,,,,,,,,,,,,,,50,23,Female,1.0,1.0,0.6633938750310335,-0.0002450162979984877,-1.4249790161842024,0.00011952911340703783,0.6386306683831089,0.0005179565354060398,1.576184842393084,0.0006665077389217755,1.8036098037859027,,,,,1.1428571428571428,1.5,0.4,1.0,1.7777777777777777,2.125,3.111111111111111,2.3333333333333335,1.25,1.7777777777777777,1.25,1.5,2.75,2.25,,,,,,,,,,,,
18,240724_094458,LEARNING,1.0,19,3.0,500.0,,,,,,,,,,19.0,19.0,19.0,cue1.png,Hard,B,,,,,,,,,,,,,,,,,,,,,,,,,,,50,23,Female,0.9375,0.9375,0.6639142133140316,0.00013533778986931592,0.9114148789476821,-0.0001833775830674192,-0.4740596569693725,-0.00025135494109025745,-0.42357065272061556,-0.0005258261377485713,-1.1732235376332423,,,,,1.1428571428571428,1.5,0.4,1.0,1.7777777777777777,2.125,3.111111111111111,2.3333333333333335,1.25,1.7777777777777777,1.25,1.5,2.75,2.25,,,,,,,,,,,,
19,240724_094528,LEARNING,1.0,20,3.0,500.0,,,,,,,,,,20.0,20.0,20.0,cue1.png,Hard,B,,,,,,,,,,,,,,,,,,,,,,,,,,,50,23,Female,0.6041666666666667,0.5208333333333334,0.555725209118629,-6.283622641583457e-05,-0.30590492013205745,1.0144448950105082e-05,0.23681961798455825,3.237816389189529e-05,0.3139678517325454,0.00012152885291948946,0.4429914820525174,1.952,0.6770113073485718,,,1.1428571428571428,1.5,0.4,1.0,1.7777777777777777,2.125,3.111111111111111,2.3333333333333335,1.25,1.7777777777777777,1.25,1.5,2.75,2.25,,,,,,,,,,,,
20,240724_094555,LEARNING,1.0,21,1.0,500.0,,,,,,,,,,21.0,21.0,21.0,cue2.png,Easy,B,,,,,,,,,,,,,,,,,,,,,,,,,,,50,23,Female,1.0,1.0,0.4981310999864945,-0.00028212085908529754,-1.652900505054597,2.8198724083877604e-05,0.30313976708134316,,,,,1.619,0.00587353520026816,1.3330000000000002,-0.39110599303160126,1.1428571428571428,1.5,0.4,1.0,1.7777777777777777,2.125,3.111111111111111,2.3333333333333335,1.25,1.7777777777777777,1.25,1.5,2.75,2.25,,,,,,,,,,,,
21,240724_094624,LEARNING,1.0,22,3.0,500.0,,,,,,,,,,22.0,22.0,22.0,cue1.png,Hard,B,,,,,,,,,,,,,,,,,,,,,,,,,,,50,23,Female,1.0,0.8125,0.550904292272977,-0.00017440979596424584,-0.9912657853518971,0.00012749783816544315,0.6679027942465332,-0.0011653624783330204,-2.7994504504599282,-0.00027295367032414194,-0.5418909831493536,2.1159999999999997,1.007541621559748,1.208,-0.6028881940006063,1.1428571428571428,1.5,0.4,1.0,1.7777777777777777,2.125,3.111111111111111,2.3333333333333335,1.25,1.7777777777777777,1.25,1.5,2.75,2.25,,,,,,,,,,,,
22,240724_094652,LEARNING,1.0,23,3.0,500.0,,,,,,,,,,23.0,23.0,23.0,cue1.png,Hard,B,,,,,,,,,,,,,,,,,,,,,,,,,,,50,23,Female,0.6041666666666667,0.7708333333333334,0.5026631866736958,-6.253046750054553e-05,-0.30402674059922236,0.00023696043821085392,1.0700001314004097,,,-0.0002825502173103532,-0.5658501455869963,2.195,1.1667604924297663,2.189,1.0591785192041425,1.1428571428571428,1.5,0.4,1.0,1.7777777777777777,2.125,3.111111111111111,2.3333333333333335,1.25,1.7777777777777777,1.25,1.5,2.75,2.25,,,,,,,,,,,,
23,240724_094721,LEARNING,1.0,24,3.0,500.0,,,,,,,,,,24.0,24.0,24.0,cue1.png,Hard,B,,,,,,,,,,,,,,,,,,,,,,,,,,,50,23,Female,0.7818181818181817,0.7556818181818181,0.6149377533234656,0.00014409936464856868,0.9652344394018408,0.00017204058928541044,0.8315250872252902,,,,,0.548,-2.1526506508983303,0.851,-1.2077381599680836,1.1428571428571428,1.5,0.4,1.0,1.7777777777777777,2.125,3.111111111111111,2.3333333333333335,1.25,1.7777777777777777,1.25,1.5,2.75,2.25,,,,,,,,,,,,
24,240724_094747,LEARNING,1.0,25,1.0,500.0,,,,,,,,,,25.0,25.0,25.0,cue2.png,Easy,B,,,,,,,,,,,,,,,,,,,,,,,,,,,50,23,Female,1.0,1.0,0.4364361499756342,0.00014233431921277734,0.9543923280315364,-0.00023247715754016237,-0.6544208775386641,-0.00025899224213505895,-0.44342312496207564,,,0.8130000000000002,-1.6185620334229531,2.7,1.924944156765434,1.1428571428571428,1.5,0.4,1.0,1.7777777777777777,2.125,3.111111111111111,2.3333333333333335,1.25,1.7777777777777777,1.25,1.5,2.75,2.25,,,,,,,,,,,,
25,240724_094813,LEARNING,1.0,26,1.0,500.0,,,,,,,,,,26.0,26.0,26.0,cue2.png,Easy,B,,,,,,,,,,,,,,,,,,,,,,,,,,,50,23,Female,1.0,1.0,0.4553964249935234,-2.3292743707237565e-05,-0.0630019133298006,0.00030178998040661506,1.3081434449614446,-0.0007759314093972571,-1.7871596633536955,0.00040571579001038617,1.1525051225526102,,,1.1039999999999999,-0.7790909852068184,1.1428571428571428,1.5,0.4,1.0,1.7777777777777777,2.125,3.111111111111111,2.3333333333333335,1.25,1.7777777777777777,1.25,1.5,2.75,2.25,,,,,,,,,,,,
26,240724_094843,LEARNING,1.0,27,3.0,500.0,,,,,,,,,,27.0,27.0,27.0,cue1.png,Hard,B,,,,,,,,,,,,,,,,,,,,,,,,,,,50,23,Female,0.8125,0.8541666666666666,0.6395217267020296,0.00013434530031005212,0.9053183320162554,-0.00012442868538218525,-0.25751816446366227,-0.0002523670311372272,-0.4262014891175914,-0.00032459567122281215,-0.6708226801351481,1.621,0.009904392690648366,0.8380000000000001,-1.2297635088688599,1.1428571428571428,1.5,0.4,1.0,1.7777777777777777,2.125,3.111111111111111,2.3333333333333335,1.25,1.7777777777777777,1.25,1.5,2.75,2.25,,,,,,,,,,,,
27,240724_094909,LEARNING,1.0,28,1.0,500.0,,,,,,,,,,28.0,28.0,28.0,cue2.png,Easy,B,,,,,,,,,,,,,,,,,,,,,,,,,,,50,23,Female,1.0,0.9375,0.4029775332969924,6.886301713401096e-05,0.5030815438974587,0.00011289203778645698,0.6142501911021258,7.939383611159367e-05,0.4361808327555301,-0.0010221762955657764,-2.4124332319304878,2.4530000000000003,1.6867411086888133,2.406,1.426832420086335,1.1428571428571428,1.5,0.4,1.0,1.7777777777777777,2.125,3.111111111111111,2.3333333333333335,1.25,1.7777777777777777,1.25,1.5,2.75,2.25,,,,,,,,,,,,
28,240724_094934,LEARNING,1.0,29,1.0,500.0,,,,,,,,,,29.0,29.0,29.0,cue2.png,Easy,B,,,,,,,,,,,,,,,,,,,,,,,,,,,50,23,Female,1.0,1.0,0.4184701624908484,,,,,,,0.0002464725832808743,0.754931509605627,2.073,0.9208781855165741,1.287,-0.46904184298819546,1.1428571428571428,1.5,0.4,1.0,1.7777777777777777,2.125,3.111111111111111,2.3333333333333335,1.25,1.7777777777777777,1.25,1.5,2.75,2.25,,,,,,,,,,,,
29,240724_095004,LEARNING,1.0,30,3.0,500.0,,,,,,,,,,30.0,30.0,30.0,cue1.png,Hard,B,,,,,,,,,,,,,,,,,,,,,,,,,,,50,23,Female,0.0484848484848484,0.6647727272727273,0.6172375866677612,,,,,-0.0003001921428142434,-0.5505185346868444,-0.00018684621043790414,-0.3269113012417389,1.546,-0.14125276319860916,1.474,-0.15221567033856434,1.1428571428571428,1.5,0.4,1.0,1.7777777777777777,2.125,3.111111111111111,2.3333333333333335,1.25,1.7777777777777777,1.25,1.5,2.75,2.25,,,,,,,,,,,,
30,240724_095034,LEARNING,1.0,31,3.0,500.0,,,,,,,,,,31.0,31.0,31.0,cue1.png,Hard,B,,,,,,,,,,,,,,,,,,,,,,,,,,,50,23,Female,0.9375,0.8125,0.6201031692146969,-1.3318840390816843e-05,-0.0017354051932553577,-0.00015438545613590156,-0.3675606606660304,-0.00016769334879260852,-0.20609992202368355,-0.00026969124034547775,-0.53374585658325,,,,,1.1428571428571428,1.5,0.4,1.0,1.7777777777777777,2.125,3.111111111111111,2.3333333333333335,1.25,1.7777777777777777,1.25,1.5,2.75,2.25,,,,,,,,,,,,
31,240724_095101,LEARNING,1.0,32,1.0,500.0,,,,,,,,,,32.0,32.0,32.0,cue2.png,Easy,B,,,,,,,,,,,,,,,,,,,,,,,,,,,50,23,Female,1.0,1.0,0.5127683999889996,-0.0001952226128469148,-1.1191122838022214,5.310666328205106e-05,0.39463600434796475,-0.00033757499945382286,-0.6476918841973874,-0.00038946899364900554,-0.8327882779811273,1.2719999999999998,-0.6934802393806975,1.0959999999999999,-0.7926450460688347,1.1428571428571428,1.5,0.4,1.0,1.7777777777777777,2.125,3.111111111111111,2.3333333333333335,1.25,1.7777777777777777,1.25,1.5,2.75,2.25,,,,,,,,,,,,
32,240724_095127,LEARNING,1.0,33,1.0,500.0,,,,,,,,,,33.0,33.0,33.0,cue2.png,Easy,B,,,,,,,,,,,,,,,,,,,,,,,,,,,50,23,Female,1.0,1.0,0.4245153687661513,0.00040839432210343016,2.5887140990349393,-0.00024907844113157595,-0.715403641721814,0.00035658626135326183,1.1567174327104215,-0.0008059653642252208,-1.872631485299583,1.466,-0.30248706281381743,1.104,-0.779090985206818,1.1428571428571428,1.5,0.4,1.0,1.7777777777777777,2.125,3.111111111111111,2.3333333333333335,1.25,1.7777777777777777,1.25,1.5,2.75,2.25,,,,,,,,,,,,
33,240724_095152,LEARNING,1.0,34,1.0,500.0,,,,,,,,,,34.0,34.0,34.0,cue2.png,Easy,B,,,,,,,,,,,,,,,,,,,,,,,,,,,50,23,Female,1.0,1.0,0.3973005374864442,-0.00021821436738295522,-1.2603433015559884,-0.0003274230404174648,-1.003192847717055,-0.00013132263000297656,-0.11155753316962665,-0.00035783108374265286,-0.7537996767974972,,,1.8880000000000003,0.5492069792707798,1.1428571428571428,1.5,0.4,1.0,1.7777777777777777,2.125,3.111111111111111,2.3333333333333335,1.25,1.7777777777777777,1.25,1.5,2.75,2.25,,,,,,,,,,,,
34,240724_095222,LEARNING,1.0,35,3.0,500.0,,,,,,,,,,35.0,35.0,35.0,cue1.png,Hard,B,,,,,,,,,,,,,,,,,,,,,,,,,,,50,23,Female,1.0,0.8125,0.6007587922772822,,,,,0.00030802635280579183,1.0304903492379585,4.289266445511343e-05,0.24666490587859075,1.9900000000000002,0.7535975996657962,1.3090000000000002,-0.4317681756176502,1.1428571428571428,1.5,0.4,1.0,1.7777777777777777,2.125,3.111111111111111,2.3333333333333335,1.25,1.7777777777777777,1.25,1.5,2.75,2.25,,,,,,,,,,,,
35,240724_095252,LEARNING,1.0,36,3.0,500.0,,,,,,,,,,36.0,36.0,36.0,cue1.png,Hard,B,,,,,,,,,,,,,,,,,,,,,,,,,,,50,23,Female,0.75,0.8333333333333334,0.6620026187447365,,,-0.001150045281140281,-4.024994013969064,,,-0.0006309468111754995,-1.4356724469971,1.262,-0.713634526832598,1.0850000000000002,-0.8112818797541066,1.1428571428571428,1.5,0.4,1.0,1.7777777777777777,2.125,3.111111111111111,2.3333333333333335,1.25,1.7777777777777777,1.25,1.5,2.75,2.25,,,,,,,,,,,,
36,240724_095318,LEARNING,1.0,37,1.0,500.0,,,,,,,,,,37.0,37.0,37.0,cue2.png,Easy,B,,,,,,,,,,,,,,,,,,,,,,,,,,,50,23,Female,1.0,1.0,0.4529925624956377,-2.6964494249326343e-05,-0.08555630626159162,2.9722642686669763e-05,0.30873769378843563,-8.410825044140226e-05,0.011171969588670736,0.00027046063403151493,0.8148211350430702,1.9300000000000002,0.63267187495439,1.8110000000000002,0.4187491434738726,1.1428571428571428,1.5,0.4,1.0,1.7777777777777777,2.125,3.111111111111111,2.3333333333333335,1.25,1.7777777777777777,1.25,1.5,2.75,2.25,,,,,,,,,,,,
37,240724_095348,LEARNING,1.0,38,3.0,500.0,,,,,,,,,,38.0,38.0,38.0,cue1.png,Hard,B,,,,,,,,,,,,,,,,,,,,,,,,,,,50,23,Female,1.0,0.875,0.6305059071164578,6.208496710598732e-05,0.4614461435915286,-0.00031144554389101256,-0.944501488248099,,,,,1.6639999999999997,0.09656782873382214,2.711,1.9435809904507058,1.1428571428571428,1.5,0.4,1.0,1.7777777777777777,2.125,3.111111111111111,2.3333333333333335,1.25,1.7777777777777777,1.25,1.5,2.75,2.25,,,,,,,,,,,,
38,240724_095419,LEARNING,1.0,39,3.0,500.0,,,,,,,,,,39.0,39.0,39.0,cue1.png,Hard,B,,,,,,,,,,,,,,,,,,,,,,,,,,,50,23,Female,0.9375,0.875,0.7403780285967514,3.1942689165321246e-05,0.27629174033343235,-4.4420483069204306e-06,0.18323792247377105,,,0.0001524681225197966,0.520235827036279,1.3860000000000001,-0.46372136242902523,2.31,1.264183689742139,1.1428571428571428,1.5,0.4,1.0,1.7777777777777777,2.125,3.111111111111111,2.3333333333333335,1.25,1.7777777777777777,1.25,1.5,2.75,2.25,,,,,,,,,,,,
39,240724_095449,LEARNING,1.0,40,3.0,500.0,,,,,,,,,,40.0,40.0,40.0,cue1.png,Hard,B,,,,,,,,,,,,,,,,,,,,,,,,,,,50,23,Female,0.7083333333333333,0.7916666666666666,0.5950799928811777,0.00013783835652996217,0.9267750626992363,,,0.0006359889009125218,1.8829992845717483,,,2.044,0.8624307519060613,2.199,1.0761210952816627,1.1428571428571428,1.5,0.4,1.0,1.7777777777777777,2.125,3.111111111111111,2.3333333333333335,1.25,1.7777777777777777,1.25,1.5,2.75,2.25,,,,,,,,,,,,
40,240724_095515,LEARNING,1.0,41,1.0,500.0,,,,,,,,,,41.0,41.0,41.0,cue2.png,Easy,B,,,,,,,,,,,,,,,,,,,,,,,,,,,50,23,Female,1.0,1.0,0.4906885187665466,,,,,-6.0300108927376344e-05,0.07305907679517175,-0.0003414564350948737,-0.7129180068202466,0.42399999999999993,-2.402563815301903,0.9989999999999999,-0.9569880340207823,1.1428571428571428,1.5,0.4,1.0,1.7777777777777777,2.125,3.111111111111111,2.3333333333333335,1.25,1.7777777777777777,1.25,1.5,2.75,2.25,,,,,,,,,,,,
41,240724_095544,LEARNING,1.0,42,3.0,500.0,,,,,,,,,,42.0,42.0,42.0,cue1.png,Hard,B,,,,,,,,,,,,,,,,,,,,,,,,,,,50,23,Female,0.75,0.8333333333333334,0.5700956687651342,-0.00022558862500659214,-1.3056410150354956,-0.0005583190119552066,-1.8513606719453053,-0.0001399585029820136,-0.13400570269854742,0.0002544529975136195,0.7748557637354456,2.7119999999999997,2.2087371536930487,,,1.1428571428571428,1.5,0.4,1.0,1.7777777777777777,2.125,3.111111111111111,2.3333333333333335,1.25,1.7777777777777777,1.25,1.5,2.75,2.25,,,,,,,,,,,,
42,240724_095613,LEARNING,1.0,43,3.0,500.0,,,,,,,,,,43.0,43.0,43.0,cue1.png,Hard,B,,,,,,,,,,,,,,,,,,,,,,,,,,,50,23,Female,0.6113636363636364,0.7272727272727273,0.6722137624892639,,,0.00029244227805941183,1.273805815298362,-0.00044968883085941703,-0.9391216331108847,,,1.771,0.3122187044691634,1.786,0.37639270328007146,1.1428571428571428,1.5,0.4,1.0,1.7777777777777777,2.125,3.111111111111111,2.3333333333333335,1.25,1.7777777777777777,1.25,1.5,2.75,2.25,,,,,,,,,,,,
43,240724_095640,LEARNING,1.0,44,1.0,500.0,,,,,,,,,,44.0,44.0,44.0,cue2.png,Easy,B,,,,,,,,,,,,,,,,,,,,,,,,,,,50,23,Female,1.0,1.0,0.4552372938051121,,,,,0.0002371188115197877,0.8461726188207771,0.00014136959467174687,0.4925267529378352,,,1.2029999999999998,-0.6113594820393667,1.1428571428571428,1.5,0.4,1.0,1.7777777777777777,2.125,3.111111111111111,2.3333333333333335,1.25,1.7777777777777777,1.25,1.5,2.75,2.25,,,,,,,,,,,,
44,240724_095705,LEARNING,1.0,45,1.0,500.0,,,,,,,,,,45.0,45.0,45.0,cue2.png,Easy,B,,,,,,,,,,,,,,,,,,,,,,,,,,,50,23,Female,1.0,1.0,0.4011138875066535,-2.9527074602738162e-05,-0.10129742035624859,-0.0004324501870367134,-1.388997094710548,0.00020929352569340823,0.773843308867113,0.0003030142771282382,0.8960959960959173,1.328,-0.5806162296500512,1.407,-0.26573093005795073,1.1428571428571428,1.5,0.4,1.0,1.7777777777777777,2.125,3.111111111111111,2.3333333333333335,1.25,1.7777777777777777,1.25,1.5,2.75,2.25,,,,,,,,,,,,
45,240724_095731,LEARNING,1.0,46,1.0,500.0,,,,,,,,,,46.0,46.0,46.0,cue2.png,Easy,B,,,,,,,,,,,,,,,,,,,,,,,,,,,50,23,Female,1.0,1.0,0.461278000017046,0.00021450117450621566,1.3976903114544406,-0.00019037249770811806,-0.4997546116797197,0.00010801155181967923,0.5105699924044713,8.837879368319172e-05,0.3602275821621563,0.7999999999999998,-1.6447626071104253,1.104,-0.779090985206818,1.1428571428571428,1.5,0.4,1.0,1.7777777777777777,2.125,3.111111111111111,2.3333333333333335,1.25,1.7777777777777777,1.25,1.5,2.75,2.25,,,,,,,,,,,,
46,240724_095800,LEARNING,1.0,47,3.0,500.0,,,,,,,,,,47.0,47.0,47.0,cue1.png,Hard,B,,,,,,,,,,,,,,,,,,,,,,,,,,,50,23,Female,0.75,0.7708333333333334,0.6074522999891391,-0.0001571050085166243,-0.8849679932712977,,,0.00028868891933008694,0.9802244425982275,,,1.638,0.0441666813588799,1.3110000000000002,-0.42837966040214615,1.1428571428571428,1.5,0.4,1.0,1.7777777777777777,2.125,3.111111111111111,2.3333333333333335,1.25,1.7777777777777777,1.25,1.5,2.75,2.25,,,,,,,,,,,,
47,240724_095831,LEARNING,1.0,48,3.0,500.0,,,,,,,,,,48.0,48.0,48.0,cue1.png,Hard,B,,,,,,,,,,,,,,,,,,,,,,,,,,,50,23,Female,0.2291666666666666,0.6041666666666666,0.5501514272764325,,,,,,,,,2.3070000000000004,1.3924885118910586,2.208,1.0913694137514316,1.1428571428571428,1.5,0.4,1.0,1.7777777777777777,2.125,3.111111111111111,2.3333333333333335,1.25,1.7777777777777777,1.25,1.5,2.75,2.25,,,,,,,,,,,,
48,240724_095857,LEARNING,1.0,49,1.0,500.0,,,,,,,,,,49.0,49.0,49.0,cue2.png,Easy,B,,,,,,,,,,,,,,,,,,,,,,,,,,,50,23,Female,1.0,1.0,0.4537731499731308,9.244051966867577e-05,0.6479106248552879,,,,,,,,,,,1.1428571428571428,1.5,0.4,1.0,1.7777777777777777,2.125,3.111111111111111,2.3333333333333335,1.25,1.7777777777777777,1.25,1.5,2.75,2.25,,,,,,,,,,,,
49,240724_095923,LEARNING,1.0,50,1.0,500.0,,,,,,,,,,50.0,50.0,50.0,cue2.png,Easy,B,,,,,,,,,,,,,,,,,,,,,,,,,,,50,23,Female,1.0,1.0,0.4537185750523349,,,,,,,,,1.7280000000000002,0.22555526842598964,1.214,-0.592722648354094,1.1428571428571428,1.5,0.4,1.0,1.7777777777777777,2.125,3.111111111111111,2.3333333333333335,1.25,1.7777777777777777,1.25,1.5,2.75,2.25,,,,,,,,,,,,
0,240724_100048,TrueCHOICE,9.0,1,1.0,500.0,,,,,,,,,,,1.0,1.0,,,B,,,,,,True,cue2.png,Easy,cue1.png,Hard,Left,Easy,Easy,0.0165186000522226,,,,,,,,,,,,,50,23,Female,0.9090909090909092,0.8465909090909091,0.6445647666696459,,,,,,,,,,,,,1.1428571428571428,1.5,0.4,1.0,1.7777777777777777,2.125,3.111111111111111,2.3333333333333335,1.25,1.7777777777777777,1.25,1.5,2.75,2.25,,,-0.00037228360858908337,-1.148707404688708,1.458,-0.30517390294665714,,,,,,
1,240724_100113,TrueCHOICE,9.0,2,1.0,500.0,,,,,,,,,,,2.0,2.0,,,B,,,,,,True,cue2.png,Easy,cue1.png,Hard,Left,Easy,Easy,0.0162500999867916,,,,,,,,,,,,,50,23,Female,,,,,,,,,,,,,,,,1.1428571428571428,1.5,0.4,1.0,1.7777777777777777,2.125,3.111111111111111,2.3333333333333335,1.25,1.7777777777777777,1.25,1.5,2.75,2.25,,,,,1.4680000000000002,-0.2815431803733536,,,,,,
2,240724_100138,TrueCHOICE,9.0,3,1.0,500.0,,,,,,,,,,,3.0,3.0,,,B,,,,,,True,cue1.png,Hard,cue2.png,Easy,Right,Easy,Easy,0.016700399806723,,,,,,,,,,,,,50,23,Female,0.8958333333333333,0.9166666666666666,0.498792081270949,,,,,,,,,,,,,1.1428571428571428,1.5,0.4,1.0,1.7777777777777777,2.125,3.111111111111111,2.3333333333333335,1.25,1.7777777777777777,1.25,1.5,2.75,2.25,7.441302880861192e-05,-0.6046328653055508,,,1.107,-1.1346122652695938,,,,,,
3,240724_100203,TrueCHOICE,9.0,4,1.0,500.0,,,,,,,,,,,4.0,4.0,,,B,,,,,,True,cue2.png,Easy,cue1.png,Hard,Left,Easy,Easy,0.0161261002067476,,,,,,,,,,,,,50,23,Female,1.0,1.0,0.5078314312559087,,,,,,,,,,,,,1.1428571428571428,1.5,0.4,1.0,1.7777777777777777,2.125,3.111111111111111,2.3333333333333335,1.25,1.7777777777777777,1.25,1.5,2.75,2.25,6.931008440114877e-07,-0.9786868841448906,-0.000273103872427368,-0.8097600575537559,1.4029999999999998,-0.43514287709982424,,,,,,
4,240724_100227,TrueCHOICE,9.0,5,1.0,500.0,,,,,,,,,,,5.0,5.0,,,B,,,,,,True,cue1.png,Hard,cue2.png,Easy,Right,Easy,Easy,0.0169921999331563,,,,,,,,,,,,,50,23,Female,0.8409090909090908,0.8465909090909091,0.7135913866882523,,,,,,,,,,,,,1.1428571428571428,1.5,0.4,1.0,1.7777777777777777,2.125,3.111111111111111,2.3333333333333335,1.25,1.7777777777777777,1.25,1.5,2.75,2.25,0.0002900026365625259,0.4892661851529896,0.00027272681830030213,1.0556196234863482,1.5859999999999999,-0.0027006540083784674,,,,,,
5,240724_100251,TrueCHOICE,9.0,6,1.0,500.0,,,,,,,,,,,6.0,6.0,,,B,,,,,,True,cue1.png,Hard,cue2.png,Easy,Right,Easy,Easy,0.0165662998333573,,,,,,,,,,,,,50,23,Female,0.75,0.8333333333333334,0.4541513812582707,,,,,,,,,,,,,1.1428571428571428,1.5,0.4,1.0,1.7777777777777777,2.125,3.111111111111111,2.3333333333333335,1.25,1.7777777777777777,1.25,1.5,2.75,2.25,6.821571394707328e-05,-0.6360779656193281,0.0002963840572410949,1.1364683803981925,,,,,,,,
6,240724_100316,TrueCHOICE,9.0,7,1.0,500.0,,,,,,,,,,,7.0,7.0,,,B,,,,,,True,cue2.png,Easy,cue1.png,Hard,Left,Easy,Easy,0.0152410001028329,,,,,,,,,,,,,50,23,Female,,,,,,,,,,,,,,,,1.1428571428571428,1.5,0.4,1.0,1.7777777777777777,2.125,3.111111111111111,2.3333333333333335,1.25,1.7777777777777777,1.25,1.5,2.75,2.25,0.0003306692253831718,0.6956079627542097,-0.0003936739775241664,-1.2218091196697058,,,,,,,,
7,240724_100339,TrueCHOICE,9.0,8,1.0,500.0,,,,,,,,,,,8.0,8.0,,,B,,,,,,True,cue1.png,Hard,cue2.png,Easy,Right,Easy,Easy,0.0142892999574542,,,,,,,,,,,,,50,23,Female,1.0,1.0,0.4367262687301263,,,,,,,,,,,,,1.1428571428571428,1.5,0.4,1.0,1.7777777777777777,2.125,3.111111111111111,2.3333333333333335,1.25,1.7777777777777777,1.25,1.5,2.75,2.25,0.0006212232730240528,2.169875670426102,,,,,,,,,,
8,240724_100403,TrueCHOICE,9.0,9,1.0,500.0,,,,,,,,,,,9.0,9.0,,,B,,,,,,True,cue2.png,Easy,cue1.png,Hard,Left,Easy,Easy,0.0162048998754471,,,,,,,,,,,,,50,23,Female,1.0,1.0,0.435182618748513,,,,,,,,,,,,,1.1428571428571428,1.5,0.4,1.0,1.7777777777777777,2.125,3.111111111111111,2.3333333333333335,1.25,1.7777777777777777,1.25,1.5,2.75,2.25,0.0001433733134950108,-0.2547292186329861,0.0002736581881873806,1.0588025856986278,1.5240000000000002,-0.1492111339628564,,,,,,
9,240724_100426,TrueCHOICE,9.0,10,1.0,500.0,,,,,,,,,,,10.0,10.0,,,B,,,,,,True,cue1.png,Hard,cue2.png,Easy,Right,Easy,Easy,0.0166708000469952,,,,,,,,,,,,,50,23,Female,0.9090909090909092,0.8465909090909091,0.3590473999734968,,,,,,,,,,,,,1.1428571428571428,1.5,0.4,1.0,1.7777777777777777,2.125,3.111111111111111,2.3333333333333335,1.25,1.7777777777777777,1.25,1.5,2.75,2.25,2.0019910919598892e-05,-0.8806228846305457,-5.6821577162321276e-05,-0.07061400767099844,2.564,2.3083840136606595,,,,,,
0,240724_100600,FalseCHOICE,9.0,1,2.0,500.0,,,,,,,,,,,1.0,1.0,,,B,,,,,,False,cue2.png,Easy,cue1.png,Hard,Left,Easy,Mid,0.0161150998901575,,,,,,,,,,,,,50,23,Female,1.0,0.9375,0.5269017733633519,,,,,,,,,,,,,1.1428571428571428,1.5,0.4,1.0,1.7777777777777777,2.125,3.111111111111111,2.3333333333333335,1.25,1.7777777777777777,1.25,1.5,2.75,2.25,,,-0.00037228360858908337,-1.148707404688708,1.458,-0.30517390294665714,,,,,,
1,240724_100627,FalseCHOICE,9.0,2,2.0,500.0,,,,,,,,,,,2.0,2.0,,,B,,,,,,False,cue1.png,Hard,cue2.png,Easy,Left,Hard,Mid,0.0167857999913394,,,,,,,,,,,,,50,23,Female,,,,,,,,,,,,,,,,1.1428571428571428,1.5,0.4,1.0,1.7777777777777777,2.125,3.111111111111111,2.3333333333333335,1.25,1.7777777777777777,1.25,1.5,2.75,2.25,,,,,1.4680000000000002,-0.2815431803733536,,,,,,
2,240724_100653,FalseCHOICE,9.0,3,2.0,500.0,,,,,,,,,,,3.0,3.0,,,B,,,,,,False,cue1.png,Hard,cue2.png,Easy,Right,Easy,Mid,0.0171216002199798,,,,,,,,,,,,,50,23,Female,,,,,,,,,,,,,,,,1.1428571428571428,1.5,0.4,1.0,1.7777777777777777,2.125,3.111111111111111,2.3333333333333335,1.25,1.7777777777777777,1.25,1.5,2.75,2.25,7.441302880861192e-05,-0.6046328653055508,,,1.107,-1.1346122652695938,,,,,,
3,240724_100719,FalseCHOICE,9.0,4,2.0,500.0,,,,,,,,,,,4.0,4.0,,,B,,,,,,False,cue1.png,Hard,cue2.png,Easy,Right,Easy,Mid,0.0163838998414576,,,,,,,,,,,,,50,23,Female,0.6113636363636364,0.7272727272727273,0.5743420000071637,,,,,,,,,,,,,1.1428571428571428,1.5,0.4,1.0,1.7777777777777777,2.125,3.111111111111111,2.3333333333333335,1.25,1.7777777777777777,1.25,1.5,2.75,2.25,6.931008440114877e-07,-0.9786868841448906,-0.000273103872427368,-0.8097600575537559,1.4029999999999998,-0.43514287709982424,,,,,,
4,240724_100747,FalseCHOICE,9.0,5,2.0,500.0,,,,,,,,,,,5.0,5.0,,,B,,,,,,False,cue2.png,Easy,cue1.png,Hard,Left,Easy,Mid,0.0162639999762177,,,,,,,,,,,,,50,23,Female,,,,,,,,,,,,,,,,1.1428571428571428,1.5,0.4,1.0,1.7777777777777777,2.125,3.111111111111111,2.3333333333333335,1.25,1.7777777777777777,1.25,1.5,2.75,2.25,0.0002900026365625259,0.4892661851529896,0.00027272681830030213,1.0556196234863482,1.5859999999999999,-0.0027006540083784674,,,,,,
5,240724_100814,FalseCHOICE,9.0,6,2.0,500.0,,,,,,,,,,,6.0,6.0,,,B,,,,,,False,cue1.png,Hard,cue2.png,Easy,Right,Easy,Mid,0.0166485998779535,,,,,,,,,,,,,50,23,Female,1.0,1.0,0.6441111125459429,,,,,,,,,,,,,1.1428571428571428,1.5,0.4,1.0,1.7777777777777777,2.125,3.111111111111111,2.3333333333333335,1.25,1.7777777777777777,1.25,1.5,2.75,2.25,6.821571394707328e-05,-0.6360779656193281,0.0002963840572410949,1.1364683803981925,,,,,,,,
6,240724_100841,FalseCHOICE,9.0,7,2.0,500.0,,,,,,,,,,,7.0,7.0,,,B,,,,,,False,cue1.png,Hard,cue2.png,Easy,Right,Easy,Mid,0.0166960000060498,,,,,,,,,,,,,50,23,Female,1.0,1.0,0.4851544999983161,,,,,,,,,,,,,1.1428571428571428,1.5,0.4,1.0,1.7777777777777777,2.125,3.111111111111111,2.3333333333333335,1.25,1.7777777777777777,1.25,1.5,2.75,2.25,0.0003306692253831718,0.6956079627542097,-0.0003936739775241664,-1.2218091196697058,,,,,,,,
7,240724_100908,FalseCHOICE,9.0,8,2.0,500.0,,,,,,,,,,,8.0,8.0,,,B,,,,,,False,cue2.png,Easy,cue1.png,Hard,Left,Easy,Mid,0.016279499977827,,,,,,,,,,,,,50,23,Female,,,,,,,,,,,,,,,,1.1428571428571428,1.5,0.4,1.0,1.7777777777777777,2.125,3.111111111111111,2.3333333333333335,1.25,1.7777777777777777,1.25,1.5,2.75,2.25,0.0006212232730240528,2.169875670426102,,,,,,,,,,
8,240724_100937,FalseCHOICE,9.0,9,2.0,500.0,,,,,,,,,,,9.0,9.0,,,B,,,,,,False,cue2.png,Easy,cue1.png,Hard,Left,Easy,Mid,0.0168258000630885,,,,,,,,,,,,,50,23,Female,1.0,1.0,0.6294879187335027,,,,,,,,,,,,,1.1428571428571428,1.5,0.4,1.0,1.7777777777777777,2.125,3.111111111111111,2.3333333333333335,1.25,1.7777777777777777,1.25,1.5,2.75,2.25,0.0001433733134950108,-0.2547292186329861,0.0002736581881873806,1.0588025856986278,1.5240000000000002,-0.1492111339628564,,,,,,
9,240724_101005,FalseCHOICE,9.0,10,2.0,500.0,,,,,,,,,,,10.0,10.0,,,B,,,,,,False,cue1.png,Hard,cue2.png,Easy,Right,Easy,Mid,0.0150282999966293,,,,,,,,,,,,,50,23,Female,,,,,,,,,,,,,,,,1.1428571428571428,1.5,0.4,1.0,1.7777777777777777,2.125,3.111111111111111,2.3333333333333335,1.25,1.7777777777777777,1.25,1.5,2.75,2.25,2.0019910919598892e-05,-0.8806228846305457,-5.6821577162321276e-05,-0.07061400767099844,2.564,2.3083840136606595,,,,,,
0,240724_093536,OFFLINERATING,9.0,1,1.0,,,,,,,,,,,,,,,,,T0,cue2.png,Easy,33.0,2.8090702001936734,,,,,,,,,,,,,,,,,,,,,,50,23,Female,,,,,,,,,,,,,,,,1.1428571428571428,1.5,0.4,1.0,1.7777777777777777,2.125,3.111111111111111,2.3333333333333335,1.25,1.7777777777777777,1.25,1.5,2.75,2.25,,,,,,,0.00012581355293423075,1.062217061409965,-0.0005142246628622245,-0.4148372759279047,0.829,-0.6805597791002255
1,240724_093544,OFFLINERATING,9.0,2,3.0,,,,,,,,,,,,,,,,,T0,cue1.png,Hard,36.0,1.852209400152788,,,,,,,,,,,,,,,,,,,,,,50,23,Female,,,,,,,,,,,,,,,,1.1428571428571428,1.5,0.4,1.0,1.7777777777777777,2.125,3.111111111111111,2.3333333333333335,1.25,1.7777777777777777,1.25,1.5,2.75,2.25,,,,,,,-0.0001543446747244064,-1.5247448444559375,,,1.587,1.140673451466309
2,240724_095946,OFFLINERATING,9.0,3,1.0,,,,,,,,,,,,,,,,,T1,cue2.png,Easy,40.0,1.82724849996157,,,,,,,,,,,,,,,,,,,,,,50,23,Female,,,,,,,,,,,,,,,,1.1428571428571428,1.5,0.4,1.0,1.7777777777777777,2.125,3.111111111111111,2.3333333333333335,1.25,1.7777777777777777,1.25,1.5,2.75,2.25,,,,,,,,,,,,
3,240724_095954,OFFLINERATING,9.0,4,3.0,,,,,,,,,,,,,,,,,T1,cue1.png,Hard,33.0,2.286127300001681,,,,,,,,,,,,,,,,,,,,,,50,23,Female,,,,,,,,,,,,,,,,1.1428571428571428,1.5,0.4,1.0,1.7777777777777777,2.125,3.111111111111111,2.3333333333333335,1.25,1.7777777777777777,1.25,1.5,2.75,2.25,,,,,,,,,,,,
4,240724_100444,OFFLINERATING,9.0,5,1.0,,,,,,,,,,,,,,,,,T2,cue2.png,Easy,51.0,1.684984700055793,,,,,,,,,,,,,,,,,,,,,,50,23,Female,,,,,,,,,,,,,,,,1.1428571428571428,1.5,0.4,1.0,1.7777777777777777,2.125,3.111111111111111,2.3333333333333335,1.25,1.7777777777777777,1.25,1.5,2.75,2.25,,,,,,,,,,,1.4460000000000002,0.8018952383925874
5,240724_100452,OFFLINERATING,9.0,6,3.0,,,,,,,,,,,,,,,,,T2,cue1.png,Hard,33.0,1.5353003002237529,,,,,,,,,,,,,,,,,,,,,,50,23,Female,,,,,,,,,,,,,,,,1.1428571428571428,1.5,0.4,1.0,1.7777777777777777,2.125,3.111111111111111,2.3333333333333335,1.25,1.7777777777777777,1.25,1.5,2.75,2.25,,,,,,,,,-0.00037829495384535203,0.11000739047027133,,
6,240724_102743,OFFLINERATING,9.0,7,1.0,,,,,,,,,,,,,,,,,T3,cue2.png,Easy,52.0,1.821869199862704,,,,,,,,,,,,,,,,,,,,,,50,23,Female,,,,,,,,,,,,,,,,1.1428571428571428,1.5,0.4,1.0,1.7777777777777777,2.125,3.111111111111111,2.3333333333333335,1.25,1.7777777777777777,1.25,1.5,2.75,2.25,,,,,,,-1.4964174164116412e-05,-0.23771483865030563,-1.1760969113097479e-05,1.5252491969286053,,
7,240724_102751,OFFLINERATING,9.0,8,3.0,,,,,,,,,,,,,,,,,T3,cue1.png,Hard,48.0,2.502945799846202,,,,,,,,,,,,,,,,,,,,,,50,23,Female,,,,,,,,,,,,,,,,1.1428571428571428,1.5,0.4,1.0,1.7777777777777777,2.125,3.111111111111111,2.3333333333333335,1.25,1.7777777777777777,1.25,1.5,2.75,2.25,,,,,,,8.661308490338394e-05,0.7002426216962778,-0.0007228626441378393,-1.220419311470972,0.587,-1.2620089107586705
