Instruction,Stimulus,Key,RT,START,END,Phase,Block,TrialN,NbackLevel,ISI,LetterN,Letter,Letter_isSame,Letter_Resp,Letter_RT,Letter_Accuracy,Letter_Timeout,Trial_A_measure,Trial_HR,Trial_FAR,Trial_CDR,Trial_MSR,Trial_ACC,Trial_RT,Trial_HitsCount,Trial_FAsCount,Trial_SameNoRespCount,Trial_DiffNoRespCount,Trial_NoRespCount,Trial_CDsCount,Trial_CorrectRespCount,Trial_SameLetterCount,Trial_DiffLetterCount,Trial_InvalidLetterCount,TrialCountCali,CaliEnd_A_measure,ISI_calibrated,Run,TrialIndex,TrialNumber_total,TrialNumber_valid,CueLearning,TrialDemandLearning,CueMapping,CueSTART,OfflineRatingTimePoint,OfflineRatingQuesIndex,CueFigure,TrialDemand,OfflineRating,OfflineRatingRT,CueStart,OfflineRatingStart,PhaseType,CueLeft,CueDemandLeft,CueRight,CueDemandRight,Choice,ChoiceDemand,TaskDemand,ChoiceRT,ChoiceTimeOut,ChoiceSTART,CueCheck,CueDemandCheck,CorrectAnswer,Answer,AnswerDemand,AnswerRT,AnswerACC,AnswerTimeOut,CheckSTART,DemandRatingQuesIndex,QuesTLX,DemandLevel,DemandRating,DemandRatingRT,QuesStart,PID,SONA,Age,Gender,Run,TIME,EXPERIMENTER,frameRate,
1,.\instructions\inst_begin\Slide1.png,right,3.0238568000495434,0.1329723997041583,3.1568291997537017,,,,,,,,,,,,,,,,,,,,,,,,,,,,,,,,,1,,,,,,,,,,,,,,,,,,,,,,,,,,,,,,,,,,,,,,,,,,999,999,26,Female,1,2024/05/10_10:20:29,YZ,59.937341430857714,
2,.\instructions\inst_begin\Slide2.png,right,2.8458012002520263,3.1896874997764826,6.035488700028509,,,,,,,,,,,,,,,,,,,,,,,,,,,,,,,,,1,,,,,,,,,,,,,,,,,,,,,,,,,,,,,,,,,,,,,,,,,,999,999,26,Female,1,2024/05/10_10:20:29,YZ,59.937341430857714,
3,.\instructions\inst_begin\Slide3.png,right,0.59208619967103,6.067386100068688,6.659472299739718,,,,,,,,,,,,,,,,,,,,,,,,,,,,,,,,,1,,,,,,,,,,,,,,,,,,,,,,,,,,,,,,,,,,,,,,,,,,999,999,26,Female,1,2024/05/10_10:20:29,YZ,59.937341430857714,
1,.\instructions\inst_prac_2\Slide1.png,right,0.5796189997345209,6.703833300154656,7.283452299889177,,,,,,,,,,,,,,,,,,,,,,,,,,,,,,,,,1,,,,,,,,,,,,,,,,,,,,,,,,,,,,,,,,,,,,,,,,,,999,999,26,Female,1,2024/05/10_10:20:29,YZ,59.937341430857714,
2,.\instructions\inst_prac_2\Slide2.png,right,0.4717020997777581,7.31577660003677,7.787478699814528,,,,,,,,,,,,,,,,,,,,,,,,,,,,,,,,,1,,,,,,,,,,,,,,,,,,,,,,,,,,,,,,,,,,,,,,,,,,999,999,26,Female,1,2024/05/10_10:20:29,YZ,59.937341430857714,
3,.\instructions\inst_prac_2\Slide3.png,right,0.4490789002738893,7.818370199762285,8.267449100036174,,,,,,,,,,,,,,,,,,,,,,,,,,,,,,,,,1,,,,,,,,,,,,,,,,,,,,,,,,,,,,,,,,,,,,,,,,,,999,999,26,Female,1,2024/05/10_10:20:29,YZ,59.937341430857714,
4,.\instructions\inst_prac_2\Slide4.png,right,0.5213393997400999,8.298114500008523,8.819453899748623,,,,,,,,,,,,,,,,,,,,,,,,,,,,,,,,,1,,,,,,,,,,,,,,,,,,,,,,,,,,,,,,,,,,,,,,,,,,999,999,26,Female,1,2024/05/10_10:20:29,YZ,59.937341430857714,
5,.\instructions\inst_prac_2\Slide5.png,right,0.5118852998130023,8.851557800080627,9.36344309989363,,,,,,,,,,,,,,,,,,,,,,,,,,,,,,,,,1,,,,,,,,,,,,,,,,,,,,,,,,,,,,,,,,,,,,,,,,,,999,999,26,Female,1,2024/05/10_10:20:29,YZ,59.937341430857714,
6,.\instructions\inst_prac_2\Slide6.png,right,0.3213411998003721,9.394138100091368,9.71547929989174,,,,,,,,,,,,,,,,,,,,,,,,,,,,,,,,,1,,,,,,,,,,,,,,,,,,,,,,,,,,,,,,,,,,,,,,,,,,999,999,26,Female,1,2024/05/10_10:20:29,YZ,59.937341430857714,
7,.\instructions\inst_prac_2\Slide7.png,right,0.40038139978423715,9.747078000102192,10.14745939988643,,,,,,,,,,,,,,,,,,,,,,,,,,,,,,,,,1,,,,,,,,,,,,,,,,,,,,,,,,,,,,,,,,,,,,,,,,,,999,999,26,Female,1,2024/05/10_10:20:29,YZ,59.937341430857714,
8,.\instructions\inst_prac_2\Slide8.png,right,0.4402950000949204,10.179180999752134,10.619475999847054,,,,,,,,,,,,,,,,,,,,,,,,,,,,,,,,,1,,,,,,,,,,,,,,,,,,,,,,,,,,,,,,,,,,,,,,,,,,999,999,26,Female,1,2024/05/10_10:20:29,YZ,59.937341430857714,
9,.\instructions\inst_prac_2\Slide9.png,right,0.40108289988711476,10.650675899814814,11.051758799701929,,,,,,,,,,,,,,,,,,,,,,,,,,,,,,,,,1,,,,,,,,,,,,,,,,,,,,,,,,,,,,,,,,,,,,,,,,,,999,999,26,Female,1,2024/05/10_10:20:29,YZ,59.937341430857714,
10,.\instructions\inst_prac_2\Slide10.png,right,0.4457086999900639,11.083613699767739,11.529322399757802,,,,,,,,,,,,,,,,,,,,,,,,,,,,,,,,,1,,,,,,,,,,,,,,,,,,,,,,,,,,,,,,,,,,,,,,,,,,999,999,26,Female,1,2024/05/10_10:20:29,YZ,59.937341430857714,
,,,,,,practice,0,36,2,2583,1,X,0,right,0.4354899995960295,1,0,,,,,,,,,,,,,,,,,,,,,1,,,,,,,,,,,,,,,,,,,,,,,,,,,,,,,,,,,,,,,,,,999,999,26,Female,1,2024/05/10_10:20:29,YZ,59.937341430857714,
,,,,,,practice,0,36,2,2583,2,V,0,right,0.1795872999355197,1,0,,,,,,,,,,,,,,,,,,,,,1,,,,,,,,,,,,,,,,,,,,,,,,,,,,,,,,,,,,,,,,,,999,999,26,Female,1,2024/05/10_10:20:29,YZ,59.937341430857714,
,,,,,,practice,0,36,2,2583,3,X,1,left,0.6529454998672009,1,0,,,,,,,,,,,,,,,,,,,,,1,,,,,,,,,,,,,,,,,,,,,,,,,,,,,,,,,,,,,,,,,,999,999,26,Female,1,2024/05/10_10:20:29,YZ,59.937341430857714,
,,,,,,practice,0,36,2,2583,4,V,1,left,0.7555629000999033,1,0,,,,,,,,,,,,,,,,,,,,,1,,,,,,,,,,,,,,,,,,,,,,,,,,,,,,,,,,,,,,,,,,999,999,26,Female,1,2024/05/10_10:20:29,YZ,59.937341430857714,
,,,,,,practice,0,36,2,2583,5,N,0,right,0.41495139990001917,1,0,,,,,,,,,,,,,,,,,,,,,1,,,,,,,,,,,,,,,,,,,,,,,,,,,,,,,,,,,,,,,,,,999,999,26,Female,1,2024/05/10_10:20:29,YZ,59.937341430857714,
,,,,,,practice,0,36,2,2583,6,F,0,right,0.48673259979113936,1,0,,,,,,,,,,,,,,,,,,,,,1,,,,,,,,,,,,,,,,,,,,,,,,,,,,,,,,,,,,,,,,,,999,999,26,Female,1,2024/05/10_10:20:29,YZ,59.937341430857714,
,,,,,,practice,0,36,2,2583,,,,,,,,1.0,1.0,0.0,1.0,0.0,1.0,0.48754494986496866,2,0,0,0,0,4,6,2,4,0,,,,1,,,,,,,,,,,,,,,,,,,,,,,,,,,,,,,,,,,,,,,,,,999,999,26,Female,1,2024/05/10_10:20:29,YZ,59.937341430857714,
1,.\instructions\inst_to_cali\Slide1.png,right,1.0258885999210179,20.201682100072503,21.22757069999352,,,,,,,,,,,,,,,,,,,,,,,,,,,,,,,,,1,,,,,,,,,,,,,,,,,,,,,,,,,,,,,,,,,,,,,,,,,,999,999,26,Female,1,2024/05/10_10:20:29,YZ,59.937341430857714,
1,.\instructions\inst_cali\Slide1.png,right,0.4803434000350535,21.275193799752742,21.755537199787796,,,,,,,,,,,,,,,,,,,,,,,,,,,,,,,,,1,,,,,,,,,,,,,,,,,,,,,,,,,,,,,,,,,,,,,,,,,,999,999,26,Female,1,2024/05/10_10:20:29,YZ,59.937341430857714,
,,,,,,calibration,0,33,2,583,1,V,0,right,0.22031980007886887,1,0,,,,,,,,,,,,,,,,,,,,,1,,,,,,,,,,,,,,,,,,,,,,,,,,,,,,,,,,,,,,,,,,999,999,26,Female,1,2024/05/10_10:20:29,YZ,59.937341430857714,
,,,,,,calibration,0,33,2,583,2,Q,0,right,0.12291850009933114,1,0,,,,,,,,,,,,,,,,,,,,,1,,,,,,,,,,,,,,,,,,,,,,,,,,,,,,,,,,,,,,,,,,999,999,26,Female,1,2024/05/10_10:20:29,YZ,59.937341430857714,
,,,,,,calibration,0,33,2,583,3,C,0,left,0.0,0,0,,,,,,,,,,,,,,,,,,,,,1,,,,,,,,,,,,,,,,,,,,,,,,,,,,,,,,,,,,,,,,,,999,999,26,Female,1,2024/05/10_10:20:29,YZ,59.937341430857714,
,,,,,,calibration,0,33,2,583,4,Q,1,left,0.09616219997406006,1,0,,,,,,,,,,,,,,,,,,,,,1,,,,,,,,,,,,,,,,,,,,,,,,,,,,,,,,,,,,,,,,,,999,999,26,Female,1,2024/05/10_10:20:29,YZ,59.937341430857714,
,,,,,,calibration,0,33,2,583,5,F,0,right,0.09793940000236034,1,0,,,,,,,,,,,,,,,,,,,,,1,,,,,,,,,,,,,,,,,,,,,,,,,,,,,,,,,,,,,,,,,,999,999,26,Female,1,2024/05/10_10:20:29,YZ,59.937341430857714,
,,,,,,calibration,0,33,2,583,6,X,0,left,0.0,0,0,,,,,,,,,,,,,,,,,,,,,1,,,,,,,,,,,,,,,,,,,,,,,,,,,,,,,,,,,,,,,,,,999,999,26,Female,1,2024/05/10_10:20:29,YZ,59.937341430857714,
,,,,,,calibration,0,33,2,583,7,F,1,right,0.07978089991956949,0,0,,,,,,,,,,,,,,,,,,,,,1,,,,,,,,,,,,,,,,,,,,,,,,,,,,,,,,,,,,,,,,,,999,999,26,Female,1,2024/05/10_10:20:29,YZ,59.937341430857714,
,,,,,,calibration,0,33,2,583,8,C,0,left,0.0,0,0,,,,,,,,,,,,,,,,,,,,,1,,,,,,,,,,,,,,,,,,,,,,,,,,,,,,,,,,,,,,,,,,999,999,26,Female,1,2024/05/10_10:20:29,YZ,59.937341430857714,
,,,,,,calibration,0,33,2,583,9,X,0,right,0.0,1,0,,,,,,,,,,,,,,,,,,,,,1,,,,,,,,,,,,,,,,,,,,,,,,,,,,,,,,,,,,,,,,,,999,999,26,Female,1,2024/05/10_10:20:29,YZ,59.937341430857714,
,,,,,,calibration,0,33,2,583,10,Q,0,right,0.09799070004373789,1,0,,,,,,,,,,,,,,,,,,,,,1,,,,,,,,,,,,,,,,,,,,,,,,,,,,,,,,,,,,,,,,,,999,999,26,Female,1,2024/05/10_10:20:29,YZ,59.937341430857714,
,,,,,,calibration,0,33,2,583,11,V,0,right,0.12692759977653623,1,0,,,,,,,,,,,,,,,,,,,,,1,,,,,,,,,,,,,,,,,,,,,,,,,,,,,,,,,,,,,,,,,,999,999,26,Female,1,2024/05/10_10:20:29,YZ,59.937341430857714,
,,,,,,calibration,0,33,2,583,12,F,0,left,0.0,0,0,,,,,,,,,,,,,,,,,,,,,1,,,,,,,,,,,,,,,,,,,,,,,,,,,,,,,,,,,,,,,,,,999,999,26,Female,1,2024/05/10_10:20:29,YZ,59.937341430857714,
,,,,,,calibration,0,33,2,583,13,V,1,left,0.10028799995779991,1,0,,,,,,,,,,,,,,,,,,,,,1,,,,,,,,,,,,,,,,,,,,,,,,,,,,,,,,,,,,,,,,,,999,999,26,Female,1,2024/05/10_10:20:29,YZ,59.937341430857714,
,,,,,,calibration,0,33,2,583,14,J,0,left,0.12803009990602732,0,0,,,,,,,,,,,,,,,,,,,,,1,,,,,,,,,,,,,,,,,,,,,,,,,,,,,,,,,,,,,,,,,,999,999,26,Female,1,2024/05/10_10:20:29,YZ,59.937341430857714,
,,,,,,calibration,0,33,2,583,15,V,1,right,0.0,0,0,,,,,,,,,,,,,,,,,,,,,1,,,,,,,,,,,,,,,,,,,,,,,,,,,,,,,,,,,,,,,,,,999,999,26,Female,1,2024/05/10_10:20:29,YZ,59.937341430857714,
,,,,,,calibration,0,33,2,583,,,,,,,,0.7386363636363636,0.5,0.18181818181818182,0.5454545454545454,0.0,0.8181818181818181,0.07135714665055275,2,2,0,0,0,6,8,4,11,0,,,,1,,,,,,,,,,,,,,,,,,,,,,,,,,,,,,,,,,,,,,,,,,999,999,26,Female,1,2024/05/10_10:20:29,YZ,59.937341430857714,
,,,,,,Calibration,0,,2,583,,,,,,,,,,,,,,,,,,,,,,,,,1,,,1,,,,,,,,,,,,,,,,,,,,,,,,,,,,,,,,,,,,,,,,,,999,999,26,Female,1,2024/05/10_10:20:29,YZ,59.937341430857714,
,,,,,,calibration,0,25,2,679,1,F,0,right,0.5514818001538515,1,0,,,,,,,,,,,,,,,,,,,,,1,,,,,,,,,,,,,,,,,,,,,,,,,,,,,,,,,,,,,,,,,,999,999,26,Female,1,2024/05/10_10:20:29,YZ,59.937341430857714,
,,,,,,calibration,0,25,2,679,2,V,0,right,0.3573599001392722,1,0,,,,,,,,,,,,,,,,,,,,,1,,,,,,,,,,,,,,,,,,,,,,,,,,,,,,,,,,,,,,,,,,999,999,26,Female,1,2024/05/10_10:20:29,YZ,59.937341430857714,
,,,,,,calibration,0,25,2,679,3,F,1,left,0.5195305999368429,1,0,,,,,,,,,,,,,,,,,,,,,1,,,,,,,,,,,,,,,,,,,,,,,,,,,,,,,,,,,,,,,,,,999,999,26,Female,1,2024/05/10_10:20:29,YZ,59.937341430857714,
,,,,,,calibration,0,25,2,679,4,C,0,right,0.3651763000525534,1,0,,,,,,,,,,,,,,,,,,,,,1,,,,,,,,,,,,,,,,,,,,,,,,,,,,,,,,,,,,,,,,,,999,999,26,Female,1,2024/05/10_10:20:29,YZ,59.937341430857714,
,,,,,,calibration,0,25,2,679,5,V,0,right,0.4612233997322619,1,0,,,,,,,,,,,,,,,,,,,,,1,,,,,,,,,,,,,,,,,,,,,,,,,,,,,,,,,,,,,,,,,,999,999,26,Female,1,2024/05/10_10:20:29,YZ,59.937341430857714,
,,,,,,calibration,0,25,2,679,6,J,0,right,0.4246808001771569,1,0,,,,,,,,,,,,,,,,,,,,,1,,,,,,,,,,,,,,,,,,,,,,,,,,,,,,,,,,,,,,,,,,999,999,26,Female,1,2024/05/10_10:20:29,YZ,59.937341430857714,
,,,,,,calibration,0,25,2,679,7,S,0,right,0.3434309996664524,1,0,,,,,,,,,,,,,,,,,,,,,1,,,,,,,,,,,,,,,,,,,,,,,,,,,,,,,,,,,,,,,,,,999,999,26,Female,1,2024/05/10_10:20:29,YZ,59.937341430857714,
,,,,,,calibration,0,25,2,679,8,J,1,left,0.28916599974036217,1,0,,,,,,,,,,,,,,,,,,,,,1,,,,,,,,,,,,,,,,,,,,,,,,,,,,,,,,,,,,,,,,,,999,999,26,Female,1,2024/05/10_10:20:29,YZ,59.937341430857714,
,,,,,,calibration,0,25,2,679,9,S,1,left,0.3502672999165952,1,0,,,,,,,,,,,,,,,,,,,,,1,,,,,,,,,,,,,,,,,,,,,,,,,,,,,,,,,,,,,,,,,,999,999,26,Female,1,2024/05/10_10:20:29,YZ,59.937341430857714,
,,,,,,calibration,0,25,2,679,10,N,0,right,0.335432100109756,1,0,,,,,,,,,,,,,,,,,,,,,1,,,,,,,,,,,,,,,,,,,,,,,,,,,,,,,,,,,,,,,,,,999,999,26,Female,1,2024/05/10_10:20:29,YZ,59.937341430857714,
,,,,,,calibration,0,25,2,679,11,V,0,right,0.35380539996549487,1,0,,,,,,,,,,,,,,,,,,,,,1,,,,,,,,,,,,,,,,,,,,,,,,,,,,,,,,,,,,,,,,,,999,999,26,Female,1,2024/05/10_10:20:29,YZ,59.937341430857714,
,,,,,,calibration,0,25,2,679,12,C,0,right,0.3860493996180594,1,0,,,,,,,,,,,,,,,,,,,,,1,,,,,,,,,,,,,,,,,,,,,,,,,,,,,,,,,,,,,,,,,,999,999,26,Female,1,2024/05/10_10:20:29,YZ,59.937341430857714,
,,,,,,calibration,0,25,2,679,13,V,1,left,0.2744370000436902,1,0,,,,,,,,,,,,,,,,,,,,,1,,,,,,,,,,,,,,,,,,,,,,,,,,,,,,,,,,,,,,,,,,999,999,26,Female,1,2024/05/10_10:20:29,YZ,59.937341430857714,
,,,,,,calibration,0,25,2,679,14,N,0,right,0.30537519976496696,1,0,,,,,,,,,,,,,,,,,,,,,1,,,,,,,,,,,,,,,,,,,,,,,,,,,,,,,,,,,,,,,,,,999,999,26,Female,1,2024/05/10_10:20:29,YZ,59.937341430857714,
,,,,,,calibration,0,25,2,679,,,,,,,,1.0,1.0,0.0,1.0,0.0,1.0,0.3798154427869512,4,0,0,0,0,10,14,4,10,0,,,,1,,,,,,,,,,,,,,,,,,,,,,,,,,,,,,,,,,,,,,,,,,999,999,26,Female,1,2024/05/10_10:20:29,YZ,59.937341430857714,
,,,,,,Calibration,0,,2,679,,,,,,,,,,,,,,,,,,,,,,,,,2,,,1,,,,,,,,,,,,,,,,,,,,,,,,,,,,,,,,,,,,,,,,,,999,999,26,Female,1,2024/05/10_10:20:29,YZ,59.937341430857714,
,,,,,,CALIBRATION,0,,,,,,,,,,,,,,,,,,,,,,,,,,,,2,1.0,679,1,,,,,,,,,,,,,,,,,,,,,,,,,,,,,,,,,,,,,,,,,,999,999,26,Female,1,2024/05/10_10:20:29,YZ,59.937341430857714,
1,.\instructions\inst_prac_1\Slide1.png,right,0.847862099763006,47.675809000153095,48.5236710999161,,,,,,,,,,,,,,,,,,,,,,,,,,,,,,,,,1,,,,,,,,,,,,,,,,,,,,,,,,,,,,,,,,,,,,,,,,,,999,999,26,Female,1,2024/05/10_10:20:29,YZ,59.937341430857714,
2,.\instructions\inst_prac_1\Slide2.png,right,0.20010709995403886,48.559392999857664,48.7595000998117,,,,,,,,,,,,,,,,,,,,,,,,,,,,,,,,,1,,,,,,,,,,,,,,,,,,,,,,,,,,,,,,,,,,,,,,,,,,999,999,26,Female,1,2024/05/10_10:20:29,YZ,59.937341430857714,
3,.\instructions\inst_prac_1\Slide3.png,right,0.2594929002225399,48.792077499907464,49.051570400130004,,,,,,,,,,,,,,,,,,,,,,,,,,,,,,,,,1,,,,,,,,,,,,,,,,,,,,,,,,,,,,,,,,,,,,,,,,,,999,999,26,Female,1,2024/05/10_10:20:29,YZ,59.937341430857714,
4,.\instructions\inst_prac_1\Slide4.png,right,0.2001271997578442,49.08387299999595,49.28400019975379,,,,,,,,,,,,,,,,,,,,,,,,,,,,,,,,,1,,,,,,,,,,,,,,,,,,,,,,,,,,,,,,,,,,,,,,,,,,999,999,26,Female,1,2024/05/10_10:20:29,YZ,59.937341430857714,
5,.\instructions\inst_prac_1\Slide5.png,right,0.20011560013517737,49.31468449998647,49.51480010012165,,,,,,,,,,,,,,,,,,,,,,,,,,,,,,,,,1,,,,,,,,,,,,,,,,,,,,,,,,,,,,,,,,,,,,,,,,,,999,999,26,Female,1,2024/05/10_10:20:29,YZ,59.937341430857714,
6,.\instructions\inst_prac_1\Slide6.png,right,0.3056113999336958,49.545976100023836,49.85158749995753,,,,,,,,,,,,,,,,,,,,,,,,,,,,,,,,,1,,,,,,,,,,,,,,,,,,,,,,,,,,,,,,,,,,,,,,,,,,999,999,26,Female,1,2024/05/10_10:20:29,YZ,59.937341430857714,
7,.\instructions\inst_prac_1\Slide7.png,right,0.20011189999058843,49.88326429994777,50.08337619993836,,,,,,,,,,,,,,,,,,,,,,,,,,,,,,,,,1,,,,,,,,,,,,,,,,,,,,,,,,,,,,,,,,,,,,,,,,,,999,999,26,Female,1,2024/05/10_10:20:29,YZ,59.937341430857714,
,,,,,,practice,0,31,1,1250,1,F,0,right,0.42237350018694997,1,0,,,,,,,,,,,,,,,,,,,,,1,,,,,,,,,,,,,,,,,,,,,,,,,,,,,,,,,,,,,,,,,,999,999,26,Female,1,2024/05/10_10:20:29,YZ,59.937341430857714,
,,,,,,practice,0,31,1,1250,2,F,1,left,0.45264440029859543,1,0,,,,,,,,,,,,,,,,,,,,,1,,,,,,,,,,,,,,,,,,,,,,,,,,,,,,,,,,,,,,,,,,999,999,26,Female,1,2024/05/10_10:20:29,YZ,59.937341430857714,
,,,,,,practice,0,31,1,1250,3,Q,0,right,0.321102200075984,1,0,,,,,,,,,,,,,,,,,,,,,1,,,,,,,,,,,,,,,,,,,,,,,,,,,,,,,,,,,,,,,,,,999,999,26,Female,1,2024/05/10_10:20:29,YZ,59.937341430857714,
,,,,,,practice,0,31,1,1250,4,Q,1,left,0.5689713000319898,1,0,,,,,,,,,,,,,,,,,,,,,1,,,,,,,,,,,,,,,,,,,,,,,,,,,,,,,,,,,,,,,,,,999,999,26,Female,1,2024/05/10_10:20:29,YZ,59.937341430857714,
,,,,,,practice,0,31,1,1250,5,N,0,right,0.542314600199461,1,0,,,,,,,,,,,,,,,,,,,,,1,,,,,,,,,,,,,,,,,,,,,,,,,,,,,,,,,,,,,,,,,,999,999,26,Female,1,2024/05/10_10:20:29,YZ,59.937341430857714,
,,,,,,practice,0,31,1,1250,6,X,0,right,0.3839181000366807,1,0,,,,,,,,,,,,,,,,,,,,,1,,,,,,,,,,,,,,,,,,,,,,,,,,,,,,,,,,,,,,,,,,999,999,26,Female,1,2024/05/10_10:20:29,YZ,59.937341430857714,
,,,,,,practice,0,31,1,1250,7,N,0,right,0.4727405998855829,1,0,,,,,,,,,,,,,,,,,,,,,1,,,,,,,,,,,,,,,,,,,,,,,,,,,,,,,,,,,,,,,,,,999,999,26,Female,1,2024/05/10_10:20:29,YZ,59.937341430857714,
,,,,,,practice,0,31,1,1250,8,J,0,right,0.4250319004058838,1,0,,,,,,,,,,,,,,,,,,,,,1,,,,,,,,,,,,,,,,,,,,,,,,,,,,,,,,,,,,,,,,,,999,999,26,Female,1,2024/05/10_10:20:29,YZ,59.937341430857714,
,,,,,,practice,0,31,1,1250,9,J,1,left,0.4943760000169277,1,0,,,,,,,,,,,,,,,,,,,,,1,,,,,,,,,,,,,,,,,,,,,,,,,,,,,,,,,,,,,,,,,,999,999,26,Female,1,2024/05/10_10:20:29,YZ,59.937341430857714,
,,,,,,practice,0,31,1,1250,10,Q,0,right,0.446229699999094,1,0,,,,,,,,,,,,,,,,,,,,,1,,,,,,,,,,,,,,,,,,,,,,,,,,,,,,,,,,,,,,,,,,999,999,26,Female,1,2024/05/10_10:20:29,YZ,59.937341430857714,
,,,,,,practice,0,31,1,1250,,,,,,,,1.0,1.0,0.0,1.0,0.0,1.0,0.45297023011371496,3,0,0,0,0,7,10,3,7,0,,,,1,,,,,,,,,,,,,,,,,,,,,,,,,,,,,,,,,,,,,,,,,,999,999,26,Female,1,2024/05/10_10:20:29,YZ,59.937341430857714,
1,.\instructions\inst_prac_1_next\Slide1.png,right,0.7270849999040365,64.14854079997167,64.8756257998757,,,,,,,,,,,,,,,,,,,,,,,,,,,,,,,,,1,,,,,,,,,,,,,,,,,,,,,,,,,,,,,,,,,,,,,,,,,,999,999,26,Female,1,2024/05/10_10:20:29,YZ,59.937341430857714,
,,,,,,practice,0,4,1,679,1,N,0,right,0.0,1,0,,,,,,,,,,,,,,,,,,,,,1,,,,,,,,,,,,,,,,,,,,,,,,,,,,,,,,,,,,,,,,,,999,999,26,Female,1,2024/05/10_10:20:29,YZ,59.937341430857714,
,,,,,,practice,0,4,1,679,2,F,0,right,0.4389975001104176,1,0,,,,,,,,,,,,,,,,,,,,,1,,,,,,,,,,,,,,,,,,,,,,,,,,,,,,,,,,,,,,,,,,999,999,26,Female,1,2024/05/10_10:20:29,YZ,59.937341430857714,
,,,,,,practice,0,4,1,679,3,F,1,right,0.39259970001876354,0,0,,,,,,,,,,,,,,,,,,,,,1,,,,,,,,,,,,,,,,,,,,,,,,,,,,,,,,,,,,,,,,,,999,999,26,Female,1,2024/05/10_10:20:29,YZ,59.937341430857714,
,,,,,,practice,0,4,1,679,4,N,0,left,0.0,0,0,,,,,,,,,,,,,,,,,,,,,1,,,,,,,,,,,,,,,,,,,,,,,,,,,,,,,,,,,,,,,,,,999,999,26,Female,1,2024/05/10_10:20:29,YZ,59.937341430857714,
,,,,,,practice,0,4,1,679,5,Q,0,right,0.14741750014945865,1,0,,,,,,,,,,,,,,,,,,,,,1,,,,,,,,,,,,,,,,,,,,,,,,,,,,,,,,,,,,,,,,,,999,999,26,Female,1,2024/05/10_10:20:29,YZ,59.937341430857714,
,,,,,,practice,0,4,1,679,6,F,0,left,0.07841779990121722,0,0,,,,,,,,,,,,,,,,,,,,,1,,,,,,,,,,,,,,,,,,,,,,,,,,,,,,,,,,,,,,,,,,999,999,26,Female,1,2024/05/10_10:20:29,YZ,59.937341430857714,
,,,,,,practice,0,4,1,679,7,F,1,right,0.0,0,0,,,,,,,,,,,,,,,,,,,,,1,,,,,,,,,,,,,,,,,,,,,,,,,,,,,,,,,,,,,,,,,,999,999,26,Female,1,2024/05/10_10:20:29,YZ,59.937341430857714,
,,,,,,practice,0,4,1,679,8,J,0,left,0.043505100067704916,0,0,,,,,,,,,,,,,,,,,,,,,1,,,,,,,,,,,,,,,,,,,,,,,,,,,,,,,,,,,,,,,,,,999,999,26,Female,1,2024/05/10_10:20:29,YZ,59.937341430857714,
,,,,,,practice,0,4,1,679,9,J,1,right,0.0,0,0,,,,,,,,,,,,,,,,,,,,,1,,,,,,,,,,,,,,,,,,,,,,,,,,,,,,,,,,,,,,,,,,999,999,26,Female,1,2024/05/10_10:20:29,YZ,59.937341430857714,
,,,,,,practice,0,4,1,679,10,F,0,right,0.0,1,0,,,,,,,,,,,,,,,,,,,,,1,,,,,,,,,,,,,,,,,,,,,,,,,,,,,,,,,,,,,,,,,,999,999,26,Female,1,2024/05/10_10:20:29,YZ,59.937341430857714,
,,,,,,practice,0,4,1,679,11,X,0,left,0.1258950000628829,0,0,,,,,,,,,,,,,,,,,,,,,1,,,,,,,,,,,,,,,,,,,,,,,,,,,,,,,,,,,,,,,,,,999,999,26,Female,1,2024/05/10_10:20:29,YZ,59.937341430857714,
,,,,,,practice,0,4,1,679,12,C,0,right,0.0,1,0,,,,,,,,,,,,,,,,,,,,,1,,,,,,,,,,,,,,,,,,,,,,,,,,,,,,,,,,,,,,,,,,999,999,26,Female,1,2024/05/10_10:20:29,YZ,59.937341430857714,
,,,,,,practice,0,4,1,679,13,C,1,right,0.21909689996391535,0,0,,,,,,,,,,,,,,,,,,,,,1,,,,,,,,,,,,,,,,,,,,,,,,,,,,,,,,,,,,,,,,,,999,999,26,Female,1,2024/05/10_10:20:29,YZ,59.937341430857714,
,,,,,,practice,0,4,1,679,14,V,0,right,0.0726231001317501,1,0,,,,,,,,,,,,,,,,,,,,,1,,,,,,,,,,,,,,,,,,,,,,,,,,,,,,,,,,,,,,,,,,999,999,26,Female,1,2024/05/10_10:20:29,YZ,59.937341430857714,
,,,,,,practice,0,4,1,679,,,,,,,,0.15,0.0,0.4,0.6,0.0,0.6,0.10846804288615074,0,4,0,0,0,6,6,4,10,0,,,,1,,,,,,,,,,,,,,,,,,,,,,,,,,,,,,,,,,,,,,,,,,999,999,26,Female,1,2024/05/10_10:20:29,YZ,59.937341430857714,
,,,,,,practice,0,19,1,679,1,X,0,right,0.3219590000808239,1,0,,,,,,,,,,,,,,,,,,,,,1,,,,,,,,,,,,,,,,,,,,,,,,,,,,,,,,,,,,,,,,,,999,999,26,Female,1,2024/05/10_10:20:29,YZ,59.937341430857714,
,,,,,,practice,0,19,1,679,2,Q,0,right,0.31214650021865964,1,0,,,,,,,,,,,,,,,,,,,,,1,,,,,,,,,,,,,,,,,,,,,,,,,,,,,,,,,,,,,,,,,,999,999,26,Female,1,2024/05/10_10:20:29,YZ,59.937341430857714,
,,,,,,practice,0,19,1,679,3,C,0,right,0.35279790032655,1,0,,,,,,,,,,,,,,,,,,,,,1,,,,,,,,,,,,,,,,,,,,,,,,,,,,,,,,,,,,,,,,,,999,999,26,Female,1,2024/05/10_10:20:29,YZ,59.937341430857714,
,,,,,,practice,0,19,1,679,4,C,1,left,0.4569557998329401,1,0,,,,,,,,,,,,,,,,,,,,,1,,,,,,,,,,,,,,,,,,,,,,,,,,,,,,,,,,,,,,,,,,999,999,26,Female,1,2024/05/10_10:20:29,YZ,59.937341430857714,
,,,,,,practice,0,19,1,679,5,N,0,right,0.30158150009810925,1,0,,,,,,,,,,,,,,,,,,,,,1,,,,,,,,,,,,,,,,,,,,,,,,,,,,,,,,,,,,,,,,,,999,999,26,Female,1,2024/05/10_10:20:29,YZ,59.937341430857714,
,,,,,,practice,0,19,1,679,6,C,0,right,0.3263953998684883,1,0,,,,,,,,,,,,,,,,,,,,,1,,,,,,,,,,,,,,,,,,,,,,,,,,,,,,,,,,,,,,,,,,999,999,26,Female,1,2024/05/10_10:20:29,YZ,59.937341430857714,
,,,,,,practice,0,19,1,679,7,C,1,left,0.3409269000403583,1,0,,,,,,,,,,,,,,,,,,,,,1,,,,,,,,,,,,,,,,,,,,,,,,,,,,,,,,,,,,,,,,,,999,999,26,Female,1,2024/05/10_10:20:29,YZ,59.937341430857714,
,,,,,,practice,0,19,1,679,8,X,0,right,0.12750629987567663,1,0,,,,,,,,,,,,,,,,,,,,,1,,,,,,,,,,,,,,,,,,,,,,,,,,,,,,,,,,,,,,,,,,999,999,26,Female,1,2024/05/10_10:20:29,YZ,59.937341430857714,
,,,,,,practice,0,19,1,679,9,C,0,right,0.36423289962112904,1,0,,,,,,,,,,,,,,,,,,,,,1,,,,,,,,,,,,,,,,,,,,,,,,,,,,,,,,,,,,,,,,,,999,999,26,Female,1,2024/05/10_10:20:29,YZ,59.937341430857714,
,,,,,,practice,0,19,1,679,10,X,0,right,0.30857810005545616,1,0,,,,,,,,,,,,,,,,,,,,,1,,,,,,,,,,,,,,,,,,,,,,,,,,,,,,,,,,,,,,,,,,999,999,26,Female,1,2024/05/10_10:20:29,YZ,59.937341430857714,
,,,,,,practice,0,19,1,679,11,Q,0,right,0.6614357000216842,1,0,,,,,,,,,,,,,,,,,,,,,1,,,,,,,,,,,,,,,,,,,,,,,,,,,,,,,,,,,,,,,,,,999,999,26,Female,1,2024/05/10_10:20:29,YZ,59.937341430857714,
,,,,,,practice,0,19,1,679,12,Q,1,left,0.29987019998952746,1,0,,,,,,,,,,,,,,,,,,,,,1,,,,,,,,,,,,,,,,,,,,,,,,,,,,,,,,,,,,,,,,,,999,999,26,Female,1,2024/05/10_10:20:29,YZ,59.937341430857714,
,,,,,,practice,0,19,1,679,13,X,0,right,0.2270192001014948,1,0,,,,,,,,,,,,,,,,,,,,,1,,,,,,,,,,,,,,,,,,,,,,,,,,,,,,,,,,,,,,,,,,999,999,26,Female,1,2024/05/10_10:20:29,YZ,59.937341430857714,
,,,,,,practice,0,19,1,679,14,X,1,left,0.33810439985245466,1,0,,,,,,,,,,,,,,,,,,,,,1,,,,,,,,,,,,,,,,,,,,,,,,,,,,,,,,,,,,,,,,,,999,999,26,Female,1,2024/05/10_10:20:29,YZ,59.937341430857714,
,,,,,,practice,0,19,1,679,,,,,,,,1.0,1.0,0.0,1.0,0.0,1.0,0.3385364142845252,4,0,0,0,0,10,14,4,10,0,,,,1,,,,,,,,,,,,,,,,,,,,,,,,,,,,,,,,,,,,,,,,,,999,999,26,Female,1,2024/05/10_10:20:29,YZ,59.937341430857714,
1,.\instructions\inst_prac_3\Slide1.png,right,0.7374364002607763,87.13027369976044,87.86771010002121,,,,,,,,,,,,,,,,,,,,,,,,,,,,,,,,,1,,,,,,,,,,,,,,,,,,,,,,,,,,,,,,,,,,,,,,,,,,999,999,26,Female,1,2024/05/10_10:20:29,YZ,59.937341430857714,
2,.\instructions\inst_prac_3\Slide2.png,right,0.6112693003378808,87.90449489979073,88.51576420012861,,,,,,,,,,,,,,,,,,,,,,,,,,,,,,,,,1,,,,,,,,,,,,,,,,,,,,,,,,,,,,,,,,,,,,,,,,,,999,999,26,Female,1,2024/05/10_10:20:29,YZ,59.937341430857714,
3,.\instructions\inst_prac_3\Slide3.png,right,0.48781219962984324,88.54789920011535,89.0357113997452,,,,,,,,,,,,,,,,,,,,,,,,,,,,,,,,,1,,,,,,,,,,,,,,,,,,,,,,,,,,,,,,,,,,,,,,,,,,999,999,26,Female,1,2024/05/10_10:20:29,YZ,59.937341430857714,
4,.\instructions\inst_prac_3\Slide4.png,right,0.3282373999245465,89.06747129978612,89.39570869971067,,,,,,,,,,,,,,,,,,,,,,,,,,,,,,,,,1,,,,,,,,,,,,,,,,,,,,,,,,,,,,,,,,,,,,,,,,,,999,999,26,Female,1,2024/05/10_10:20:29,YZ,59.937341430857714,
5,.\instructions\inst_prac_3\Slide5.png,right,0.20010819984599948,89.42651619995013,89.62662439979613,,,,,,,,,,,,,,,,,,,,,,,,,,,,,,,,,1,,,,,,,,,,,,,,,,,,,,,,,,,,,,,,,,,,,,,,,,,,999,999,26,Female,1,2024/05/10_10:20:29,YZ,59.937341430857714,
6,.\instructions\inst_prac_3\Slide6.png,right,0.20010640006512403,89.6583163999021,89.85842279996723,,,,,,,,,,,,,,,,,,,,,,,,,,,,,,,,,1,,,,,,,,,,,,,,,,,,,,,,,,,,,,,,,,,,,,,,,,,,999,999,26,Female,1,2024/05/10_10:20:29,YZ,59.937341430857714,
7,.\instructions\inst_prac_3\Slide7.png,right,0.20010130014270544,89.89036329975352,90.09046459989622,,,,,,,,,,,,,,,,,,,,,,,,,,,,,,,,,1,,,,,,,,,,,,,,,,,,,,,,,,,,,,,,,,,,,,,,,,,,999,999,26,Female,1,2024/05/10_10:20:29,YZ,59.937341430857714,
8,.\instructions\inst_prac_3\Slide8.png,right,0.353358699940145,90.12237509991974,90.47573379985988,,,,,,,,,,,,,,,,,,,,,,,,,,,,,,,,,1,,,,,,,,,,,,,,,,,,,,,,,,,,,,,,,,,,,,,,,,,,999,999,26,Female,1,2024/05/10_10:20:29,YZ,59.937341430857714,
,,,,,,practice,0,3,3,788,1,J,0,right,0.5429520001634955,1,0,,,,,,,,,,,,,,,,,,,,,1,,,,,,,,,,,,,,,,,,,,,,,,,,,,,,,,,,,,,,,,,,999,999,26,Female,1,2024/05/10_10:20:29,YZ,59.937341430857714,
,,,,,,practice,0,3,3,788,2,C,0,right,0.5180045003071427,1,0,,,,,,,,,,,,,,,,,,,,,1,,,,,,,,,,,,,,,,,,,,,,,,,,,,,,,,,,,,,,,,,,999,999,26,Female,1,2024/05/10_10:20:29,YZ,59.937341430857714,
,,,,,,practice,0,3,3,788,3,X,0,right,0.439153500366956,1,0,,,,,,,,,,,,,,,,,,,,,1,,,,,,,,,,,,,,,,,,,,,,,,,,,,,,,,,,,,,,,,,,999,999,26,Female,1,2024/05/10_10:20:29,YZ,59.937341430857714,
,,,,,,practice,0,3,3,788,4,Q,0,right,0.7408775999210775,1,0,,,,,,,,,,,,,,,,,,,,,1,,,,,,,,,,,,,,,,,,,,,,,,,,,,,,,,,,,,,,,,,,999,999,26,Female,1,2024/05/10_10:20:29,YZ,59.937341430857714,
,,,,,,practice,0,3,3,788,5,N,0,right,0.5622517000883818,1,0,,,,,,,,,,,,,,,,,,,,,1,,,,,,,,,,,,,,,,,,,,,,,,,,,,,,,,,,,,,,,,,,999,999,26,Female,1,2024/05/10_10:20:29,YZ,59.937341430857714,
,,,,,,practice,0,3,3,788,6,X,1,left,0.5720937000587583,1,0,,,,,,,,,,,,,,,,,,,,,1,,,,,,,,,,,,,,,,,,,,,,,,,,,,,,,,,,,,,,,,,,999,999,26,Female,1,2024/05/10_10:20:29,YZ,59.937341430857714,
,,,,,,practice,0,3,3,788,7,Q,1,left,0.6639465000480413,1,0,,,,,,,,,,,,,,,,,,,,,1,,,,,,,,,,,,,,,,,,,,,,,,,,,,,,,,,,,,,,,,,,999,999,26,Female,1,2024/05/10_10:20:29,YZ,59.937341430857714,
,,,,,,practice,0,3,3,788,8,V,0,right,0.5520972996018827,1,0,,,,,,,,,,,,,,,,,,,,,1,,,,,,,,,,,,,,,,,,,,,,,,,,,,,,,,,,,,,,,,,,999,999,26,Female,1,2024/05/10_10:20:29,YZ,59.937341430857714,
,,,,,,practice,0,3,3,788,9,Q,0,right,0.5128732998855412,1,0,,,,,,,,,,,,,,,,,,,,,1,,,,,,,,,,,,,,,,,,,,,,,,,,,,,,,,,,,,,,,,,,999,999,26,Female,1,2024/05/10_10:20:29,YZ,59.937341430857714,
,,,,,,practice,0,3,3,788,10,F,0,right,0.6072281002998352,1,0,,,,,,,,,,,,,,,,,,,,,1,,,,,,,,,,,,,,,,,,,,,,,,,,,,,,,,,,,,,,,,,,999,999,26,Female,1,2024/05/10_10:20:29,YZ,59.937341430857714,
,,,,,,practice,0,3,3,788,11,X,0,right,0.8687626998871565,1,0,,,,,,,,,,,,,,,,,,,,,1,,,,,,,,,,,,,,,,,,,,,,,,,,,,,,,,,,,,,,,,,,999,999,26,Female,1,2024/05/10_10:20:29,YZ,59.937341430857714,
,,,,,,practice,0,3,3,788,12,Q,1,right,0.6520186001434922,0,0,,,,,,,,,,,,,,,,,,,,,1,,,,,,,,,,,,,,,,,,,,,,,,,,,,,,,,,,,,,,,,,,999,999,26,Female,1,2024/05/10_10:20:29,YZ,59.937341430857714,
,,,,,,practice,0,3,3,788,13,F,1,left,0.5521308998577297,1,0,,,,,,,,,,,,,,,,,,,,,1,,,,,,,,,,,,,,,,,,,,,,,,,,,,,,,,,,,,,,,,,,999,999,26,Female,1,2024/05/10_10:20:29,YZ,59.937341430857714,
,,,,,,practice,0,3,3,788,,,,,,,,0.8819444444444444,0.75,0.1111111111111111,1.0,0.0,0.8888888888888888,0.5987992615868839,3,1,0,0,0,9,12,4,9,0,,,,1,,,,,,,,,,,,,,,,,,,,,,,,,,,,,,,,,,,,,,,,,,999,999,26,Female,1,2024/05/10_10:20:29,YZ,59.937341430857714,
1,.\instructions\inst_prac_3_next\Slide1.png,right,0.8061526003293693,111.101633799728,111.90778640005738,,,,,,,,,,,,,,,,,,,,,,,,,,,,,,,,,1,,,,,,,,,,,,,,,,,,,,,,,,,,,,,,,,,,,,,,,,,,999,999,26,Female,1,2024/05/10_10:20:29,YZ,59.937341430857714,
,,,,,,practice,0,33,3,679,1,V,0,right,0.31732669984921813,1,0,,,,,,,,,,,,,,,,,,,,,1,,,,,,,,,,,,,,,,,,,,,,,,,,,,,,,,,,,,,,,,,,999,999,26,Female,1,2024/05/10_10:20:29,YZ,59.937341430857714,
,,,,,,practice,0,33,3,679,2,V,0,left,0.2188685997389257,0,0,,,,,,,,,,,,,,,,,,,,,1,,,,,,,,,,,,,,,,,,,,,,,,,,,,,,,,,,,,,,,,,,999,999,26,Female,1,2024/05/10_10:20:29,YZ,59.937341430857714,
,,,,,,practice,0,33,3,679,3,F,0,left,0.12792090000584722,0,0,,,,,,,,,,,,,,,,,,,,,1,,,,,,,,,,,,,,,,,,,,,,,,,,,,,,,,,,,,,,,,,,999,999,26,Female,1,2024/05/10_10:20:29,YZ,59.937341430857714,
,,,,,,practice,0,33,3,679,4,S,0,right,0.0,1,0,,,,,,,,,,,,,,,,,,,,,1,,,,,,,,,,,,,,,,,,,,,,,,,,,,,,,,,,,,,,,,,,999,999,26,Female,1,2024/05/10_10:20:29,YZ,59.937341430857714,
,,,,,,practice,0,33,3,679,5,V,1,left,0.0,1,0,,,,,,,,,,,,,,,,,,,,,1,,,,,,,,,,,,,,,,,,,,,,,,,,,,,,,,,,,,,,,,,,999,999,26,Female,1,2024/05/10_10:20:29,YZ,59.937341430857714,
,,,,,,practice,0,33,3,679,6,Q,0,right,0.0,1,0,,,,,,,,,,,,,,,,,,,,,1,,,,,,,,,,,,,,,,,,,,,,,,,,,,,,,,,,,,,,,,,,999,999,26,Female,1,2024/05/10_10:20:29,YZ,59.937341430857714,
,,,,,,practice,0,33,3,679,7,Q,0,right,0.013679400086402893,1,0,,,,,,,,,,,,,,,,,,,,,1,,,,,,,,,,,,,,,,,,,,,,,,,,,,,,,,,,,,,,,,,,999,999,26,Female,1,2024/05/10_10:20:29,YZ,59.937341430857714,
,,,,,,practice,0,33,3,679,8,V,1,left,0.1756764999590814,1,0,,,,,,,,,,,,,,,,,,,,,1,,,,,,,,,,,,,,,,,,,,,,,,,,,,,,,,,,,,,,,,,,999,999,26,Female,1,2024/05/10_10:20:29,YZ,59.937341430857714,
,,,,,,practice,0,33,3,679,9,V,0,left,0.14936339994892478,0,0,,,,,,,,,,,,,,,,,,,,,1,,,,,,,,,,,,,,,,,,,,,,,,,,,,,,,,,,,,,,,,,,999,999,26,Female,1,2024/05/10_10:20:29,YZ,59.937341430857714,
,,,,,,practice,0,33,3,679,10,S,0,right,0.12276610033586621,1,0,,,,,,,,,,,,,,,,,,,,,1,,,,,,,,,,,,,,,,,,,,,,,,,,,,,,,,,,,,,,,,,,999,999,26,Female,1,2024/05/10_10:20:29,YZ,59.937341430857714,
,,,,,,practice,0,33,3,679,11,J,0,right,0.13164030015468597,1,0,,,,,,,,,,,,,,,,,,,,,1,,,,,,,,,,,,,,,,,,,,,,,,,,,,,,,,,,,,,,,,,,999,999,26,Female,1,2024/05/10_10:20:29,YZ,59.937341430857714,
,,,,,,practice,0,33,3,679,12,V,1,right,0.11279619997367263,0,0,,,,,,,,,,,,,,,,,,,,,1,,,,,,,,,,,,,,,,,,,,,,,,,,,,,,,,,,,,,,,,,,999,999,26,Female,1,2024/05/10_10:20:29,YZ,59.937341430857714,
,,,,,,practice,0,33,3,679,13,S,1,left,0.0,1,0,,,,,,,,,,,,,,,,,,,,,1,,,,,,,,,,,,,,,,,,,,,,,,,,,,,,,,,,,,,,,,,,999,999,26,Female,1,2024/05/10_10:20:29,YZ,59.937341430857714,
,,,,,,practice,0,33,3,679,14,Q,0,left,0.1325266002677381,0,0,,,,,,,,,,,,,,,,,,,,,1,,,,,,,,,,,,,,,,,,,,,,,,,,,,,,,,,,,,,,,,,,999,999,26,Female,1,2024/05/10_10:20:29,YZ,59.937341430857714,
,,,,,,practice,0,33,3,679,,,,,,,,0.8875,0.75,0.1,0.6,0.0,0.9,0.10732605002288308,3,1,0,0,0,6,9,4,10,0,,,,1,,,,,,,,,,,,,,,,,,,,,,,,,,,,,,,,,,,,,,,,,,999,999,26,Female,1,2024/05/10_10:20:29,YZ,59.937341430857714,
,,,,,,practice,0,2,3,679,1,V,0,right,0.39969890005886555,1,0,,,,,,,,,,,,,,,,,,,,,1,,,,,,,,,,,,,,,,,,,,,,,,,,,,,,,,,,,,,,,,,,999,999,26,Female,1,2024/05/10_10:20:29,YZ,59.937341430857714,
,,,,,,practice,0,2,3,679,2,S,0,right,0.12378060026094317,1,0,,,,,,,,,,,,,,,,,,,,,1,,,,,,,,,,,,,,,,,,,,,,,,,,,,,,,,,,,,,,,,,,999,999,26,Female,1,2024/05/10_10:20:29,YZ,59.937341430857714,
,,,,,,practice,0,2,3,679,3,X,0,right,0.10419620014727116,1,0,,,,,,,,,,,,,,,,,,,,,1,,,,,,,,,,,,,,,,,,,,,,,,,,,,,,,,,,,,,,,,,,999,999,26,Female,1,2024/05/10_10:20:29,YZ,59.937341430857714,
,,,,,,practice,0,2,3,679,4,X,0,right,0.4039724003523588,1,0,,,,,,,,,,,,,,,,,,,,,1,,,,,,,,,,,,,,,,,,,,,,,,,,,,,,,,,,,,,,,,,,999,999,26,Female,1,2024/05/10_10:20:29,YZ,59.937341430857714,
,,,,,,practice,0,2,3,679,5,C,0,right,0.43911619996652007,1,0,,,,,,,,,,,,,,,,,,,,,1,,,,,,,,,,,,,,,,,,,,,,,,,,,,,,,,,,,,,,,,,,999,999,26,Female,1,2024/05/10_10:20:29,YZ,59.937341430857714,
,,,,,,practice,0,2,3,679,6,X,1,left,0.4350634003058076,1,0,,,,,,,,,,,,,,,,,,,,,1,,,,,,,,,,,,,,,,,,,,,,,,,,,,,,,,,,,,,,,,,,999,999,26,Female,1,2024/05/10_10:20:29,YZ,59.937341430857714,
,,,,,,practice,0,2,3,679,7,V,0,right,0.5182688003405929,1,0,,,,,,,,,,,,,,,,,,,,,1,,,,,,,,,,,,,,,,,,,,,,,,,,,,,,,,,,,,,,,,,,999,999,26,Female,1,2024/05/10_10:20:29,YZ,59.937341430857714,
,,,,,,practice,0,2,3,679,8,N,0,right,0.36216199956834316,1,0,,,,,,,,,,,,,,,,,,,,,1,,,,,,,,,,,,,,,,,,,,,,,,,,,,,,,,,,,,,,,,,,999,999,26,Female,1,2024/05/10_10:20:29,YZ,59.937341430857714,
,,,,,,practice,0,2,3,679,9,J,0,right,0.37972680013626814,1,0,,,,,,,,,,,,,,,,,,,,,1,,,,,,,,,,,,,,,,,,,,,,,,,,,,,,,,,,,,,,,,,,999,999,26,Female,1,2024/05/10_10:20:29,YZ,59.937341430857714,
,,,,,,practice,0,2,3,679,10,Q,0,right,0.4909828999079764,1,0,,,,,,,,,,,,,,,,,,,,,1,,,,,,,,,,,,,,,,,,,,,,,,,,,,,,,,,,,,,,,,,,999,999,26,Female,1,2024/05/10_10:20:29,YZ,59.937341430857714,
,,,,,,practice,0,2,3,679,11,N,1,left,0.5137245999649167,1,0,,,,,,,,,,,,,,,,,,,,,1,,,,,,,,,,,,,,,,,,,,,,,,,,,,,,,,,,,,,,,,,,999,999,26,Female,1,2024/05/10_10:20:29,YZ,59.937341430857714,
,,,,,,practice,0,2,3,679,12,S,0,right,0.36928780004382133,1,0,,,,,,,,,,,,,,,,,,,,,1,,,,,,,,,,,,,,,,,,,,,,,,,,,,,,,,,,,,,,,,,,999,999,26,Female,1,2024/05/10_10:20:29,YZ,59.937341430857714,
,,,,,,practice,0,2,3,679,13,Q,1,left,0.4687633002176881,1,0,,,,,,,,,,,,,,,,,,,,,1,,,,,,,,,,,,,,,,,,,,,,,,,,,,,,,,,,,,,,,,,,999,999,26,Female,1,2024/05/10_10:20:29,YZ,59.937341430857714,
,,,,,,practice,0,2,3,679,14,N,1,left,0.47857109969481826,1,0,,,,,,,,,,,,,,,,,,,,,1,,,,,,,,,,,,,,,,,,,,,,,,,,,,,,,,,,,,,,,,,,999,999,26,Female,1,2024/05/10_10:20:29,YZ,59.937341430857714,
,,,,,,practice,0,2,3,679,,,,,,,,1.0,1.0,0.0,1.0,0.0,1.0,0.39195107149758507,4,0,0,0,0,10,14,4,10,0,,,,1,,,,,,,,,,,,,,,,,,,,,,,,,,,,,,,,,,,,,,,,,,999,999,26,Female,1,2024/05/10_10:20:29,YZ,59.937341430857714,
1,.\instructions\inst_prac_main\Slide1.png,right,0.7003938998095691,134.91947280010208,135.61986669991165,,,,,,,,,,,,,,,,,,,,,,,,,,,,,,,,,1,,,,,,,,,,,,,,,,,,,,,,,,,,,,,,,,,,,,,,,,,,999,999,26,Female,1,2024/05/10_10:20:29,YZ,59.937341430857714,
2,.\instructions\inst_prac_main\Slide2.png,right,0.7599148997105658,135.65993630001321,136.41985119972378,,,,,,,,,,,,,,,,,,,,,,,,,,,,,,,,,1,,,,,,,,,,,,,,,,,,,,,,,,,,,,,,,,,,,,,,,,,,999,999,26,Female,1,2024/05/10_10:20:29,YZ,59.937341430857714,
3,.\instructions\inst_prac_main\Slide3.png,right,0.7282634996809065,136.45177670009434,137.18004019977525,,,,,,,,,,,,,,,,,,,,,,,,,,,,,,,,,1,,,,,,,,,,,,,,,,,,,,,,,,,,,,,,,,,,,,,,,,,,999,999,26,Female,1,2024/05/10_10:20:29,YZ,59.937341430857714,
4,.\instructions\inst_prac_main\Slide4.png,right,0.790255299769342,137.21363080013543,138.00388609990478,,,,,,,,,,,,,,,,,,,,,,,,,,,,,,,,,1,,,,,,,,,,,,,,,,,,,,,,,,,,,,,,,,,,,,,,,,,,999,999,26,Female,1,2024/05/10_10:20:29,YZ,59.937341430857714,
,,,,,,practice_main,0,1,1,679,1,J,0,right,0.2869803998619318,1,0,,,,,,,,,,,,,,,,,,,,,1,,,,,,,,,,,,,,,,,,,,,,,,,,,,,,,,,,,,,,,,,,999,999,26,Female,1,2024/05/10_10:20:29,YZ,59.937341430857714,
,,,,,,practice_main,0,1,1,679,2,N,0,right,0.12743679992854595,1,0,,,,,,,,,,,,,,,,,,,,,1,,,,,,,,,,,,,,,,,,,,,,,,,,,,,,,,,,,,,,,,,,999,999,26,Female,1,2024/05/10_10:20:29,YZ,59.937341430857714,
,,,,,,practice_main,0,1,1,679,3,N,1,left,0.46678470028564334,1,0,,,,,,,,,,,,,,,,,,,,,1,,,,,,,,,,,,,,,,,,,,,,,,,,,,,,,,,,,,,,,,,,999,999,26,Female,1,2024/05/10_10:20:29,YZ,59.937341430857714,
,,,,,,practice_main,0,1,1,679,4,J,0,right,0.26081940019503236,1,0,,,,,,,,,,,,,,,,,,,,,1,,,,,,,,,,,,,,,,,,,,,,,,,,,,,,,,,,,,,,,,,,999,999,26,Female,1,2024/05/10_10:20:29,YZ,59.937341430857714,
,,,,,,practice_main,0,1,1,679,5,J,1,right,0.020439999643713236,0,0,,,,,,,,,,,,,,,,,,,,,1,,,,,,,,,,,,,,,,,,,,,,,,,,,,,,,,,,,,,,,,,,999,999,26,Female,1,2024/05/10_10:20:29,YZ,59.937341430857714,
,,,,,,practice_main,0,1,1,679,6,C,0,left,0.021221099887043238,0,0,,,,,,,,,,,,,,,,,,,,,1,,,,,,,,,,,,,,,,,,,,,,,,,,,,,,,,,,,,,,,,,,999,999,26,Female,1,2024/05/10_10:20:29,YZ,59.937341430857714,
,,,,,,practice_main,0,1,1,679,7,J,0,right,0.05468899989500642,1,0,,,,,,,,,,,,,,,,,,,,,1,,,,,,,,,,,,,,,,,,,,,,,,,,,,,,,,,,,,,,,,,,999,999,26,Female,1,2024/05/10_10:20:29,YZ,59.937341430857714,
,,,,,,practice_main,0,1,1,679,8,J,1,left,0.047489400021731853,1,0,,,,,,,,,,,,,,,,,,,,,1,,,,,,,,,,,,,,,,,,,,,,,,,,,,,,,,,,,,,,,,,,999,999,26,Female,1,2024/05/10_10:20:29,YZ,59.937341430857714,
,,,,,,practice_main,0,1,1,679,9,Q,0,right,0.0,1,0,,,,,,,,,,,,,,,,,,,,,1,,,,,,,,,,,,,,,,,,,,,,,,,,,,,,,,,,,,,,,,,,999,999,26,Female,1,2024/05/10_10:20:29,YZ,59.937341430857714,
,,,,,,practice_main,0,1,1,679,10,C,0,left,0.0,0,0,,,,,,,,,,,,,,,,,,,,,1,,,,,,,,,,,,,,,,,,,,,,,,,,,,,,,,,,,,,,,,,,999,999,26,Female,1,2024/05/10_10:20:29,YZ,59.937341430857714,
,,,,,,practice_main,0,1,1,679,11,C,1,right,0.15660260012373328,0,0,,,,,,,,,,,,,,,,,,,,,1,,,,,,,,,,,,,,,,,,,,,,,,,,,,,,,,,,,,,,,,,,999,999,26,Female,1,2024/05/10_10:20:29,YZ,59.937341430857714,
,,,,,,practice_main,0,1,1,679,12,F,0,left,0.04144439985975623,0,0,,,,,,,,,,,,,,,,,,,,,1,,,,,,,,,,,,,,,,,,,,,,,,,,,,,,,,,,,,,,,,,,999,999,26,Female,1,2024/05/10_10:20:29,YZ,59.937341430857714,
,,,,,,practice_main,0,1,1,679,13,C,0,right,0.17857499979436398,1,0,,,,,,,,,,,,,,,,,,,,,1,,,,,,,,,,,,,,,,,,,,,,,,,,,,,,,,,,,,,,,,,,999,999,26,Female,1,2024/05/10_10:20:29,YZ,59.937341430857714,
,,,,,,practice_main,0,1,1,679,14,X,0,left,0.0,0,0,,,,,,,,,,,,,,,,,,,,,1,,,,,,,,,,,,,,,,,,,,,,,,,,,,,,,,,,,,,,,,,,999,999,26,Female,1,2024/05/10_10:20:29,YZ,59.937341430857714,
,,,,,,practice_main,0,1,1,679,,,,,,,,0.725,0.5,0.2,0.6,0.0,0.8,0.11874877139260727,2,2,0,0,0,6,8,4,10,0,,,,1,,,,,,,,,,,,,,,,,,,,,,,,,,,,,,,,,,,,,,,,,,999,999,26,Female,1,2024/05/10_10:20:29,YZ,59.937341430857714,
,,,,,240510_102323,PRACTICE,0,1,1,679,,,,,,,,,,,,,,,,,,,,,,,,,,,,1,39,1,1,cue1.png,Easy,A,141.01660900004208,,,,,,,,,,,,,,,,,,,,,,,,,,,,,,,,,,,999,999,26,Female,1,2024/05/10_10:20:29,YZ,59.937341430857714,
,,,,,,practice_main,0,2,3,679,1,V,0,right,0.2855846001766622,1,0,,,,,,,,,,,,,,,,,,,,,1,,,,,,,,,,,,,,,,,,,,,,,,,,,,,,,,,,,,,,,,,,999,999,26,Female,1,2024/05/10_10:20:29,YZ,59.937341430857714,
,,,,,,practice_main,0,2,3,679,2,S,0,right,0.14948600018396974,1,0,,,,,,,,,,,,,,,,,,,,,1,,,,,,,,,,,,,,,,,,,,,,,,,,,,,,,,,,,,,,,,,,999,999,26,Female,1,2024/05/10_10:20:29,YZ,59.937341430857714,
,,,,,,practice_main,0,2,3,679,3,X,0,right,0.08247030014172196,1,0,,,,,,,,,,,,,,,,,,,,,1,,,,,,,,,,,,,,,,,,,,,,,,,,,,,,,,,,,,,,,,,,999,999,26,Female,1,2024/05/10_10:20:29,YZ,59.937341430857714,
,,,,,,practice_main,0,2,3,679,4,X,0,left,0.0,0,0,,,,,,,,,,,,,,,,,,,,,1,,,,,,,,,,,,,,,,,,,,,,,,,,,,,,,,,,,,,,,,,,999,999,26,Female,1,2024/05/10_10:20:29,YZ,59.937341430857714,
,,,,,,practice_main,0,2,3,679,5,C,0,right,0.07723940024152398,1,0,,,,,,,,,,,,,,,,,,,,,1,,,,,,,,,,,,,,,,,,,,,,,,,,,,,,,,,,,,,,,,,,999,999,26,Female,1,2024/05/10_10:20:29,YZ,59.937341430857714,
,,,,,,practice_main,0,2,3,679,6,X,1,left,0.0,1,0,,,,,,,,,,,,,,,,,,,,,1,,,,,,,,,,,,,,,,,,,,,,,,,,,,,,,,,,,,,,,,,,999,999,26,Female,1,2024/05/10_10:20:29,YZ,59.937341430857714,
,,,,,,practice_main,0,2,3,679,7,V,0,right,0.0,1,0,,,,,,,,,,,,,,,,,,,,,1,,,,,,,,,,,,,,,,,,,,,,,,,,,,,,,,,,,,,,,,,,999,999,26,Female,1,2024/05/10_10:20:29,YZ,59.937341430857714,
,,,,,,practice_main,0,2,3,679,8,N,0,right,0.3470621998421848,1,0,,,,,,,,,,,,,,,,,,,,,1,,,,,,,,,,,,,,,,,,,,,,,,,,,,,,,,,,,,,,,,,,999,999,26,Female,1,2024/05/10_10:20:29,YZ,59.937341430857714,
,,,,,,practice_main,0,2,3,679,9,J,0,left,0.0,0,0,,,,,,,,,,,,,,,,,,,,,1,,,,,,,,,,,,,,,,,,,,,,,,,,,,,,,,,,,,,,,,,,999,999,26,Female,1,2024/05/10_10:20:29,YZ,59.937341430857714,
,,,,,,practice_main,0,2,3,679,10,Q,0,right,0.0,1,0,,,,,,,,,,,,,,,,,,,,,1,,,,,,,,,,,,,,,,,,,,,,,,,,,,,,,,,,,,,,,,,,999,999,26,Female,1,2024/05/10_10:20:29,YZ,59.937341430857714,
,,,,,,practice_main,0,2,3,679,11,N,1,right,0.0,0,0,,,,,,,,,,,,,,,,,,,,,1,,,,,,,,,,,,,,,,,,,,,,,,,,,,,,,,,,,,,,,,,,999,999,26,Female,1,2024/05/10_10:20:29,YZ,59.937341430857714,
,,,,,,practice_main,0,2,3,679,12,S,0,right,0.3583956998772919,1,0,,,,,,,,,,,,,,,,,,,,,1,,,,,,,,,,,,,,,,,,,,,,,,,,,,,,,,,,,,,,,,,,999,999,26,Female,1,2024/05/10_10:20:29,YZ,59.937341430857714,
,,,,,,practice_main,0,2,3,679,13,Q,1,right,0.04622970009222627,0,0,,,,,,,,,,,,,,,,,,,,,1,,,,,,,,,,,,,,,,,,,,,,,,,,,,,,,,,,,,,,,,,,999,999,26,Female,1,2024/05/10_10:20:29,YZ,59.937341430857714,
,,,,,,practice_main,0,2,3,679,14,N,1,left,0.0,1,0,,,,,,,,,,,,,,,,,,,,,1,,,,,,,,,,,,,,,,,,,,,,,,,,,,,,,,,,,,,,,,,,999,999,26,Female,1,2024/05/10_10:20:29,YZ,59.937341430857714,
,,,,,,practice_main,0,2,3,679,,,,,,,,0.725,0.5,0.2,0.8,0.0,0.8,0.09617627861111291,2,2,0,0,0,8,10,4,10,0,,,,1,,,,,,,,,,,,,,,,,,,,,,,,,,,,,,,,,,,,,,,,,,999,999,26,Female,1,2024/05/10_10:20:29,YZ,59.937341430857714,
,,,,,240510_102340,PRACTICE,0,2,3,679,,,,,,,,,,,,,,,,,,,,,,,,,,,,1,40,2,2,cue2.png,Hard,A,157.71089649992064,,,,,,,,,,,,,,,,,,,,,,,,,,,,,,,,,,,999,999,26,Female,1,2024/05/10_10:20:29,YZ,59.937341430857714,
1,.\instructions\inst_prac_end\Slide1.png,right,3.9010042999871075,172.59105650009587,176.49206080008298,,,,,,,,,,,,,,,,,,,,,,,,,,,,,,,,,1,,,,,,,,,,,,,,,,,,,,,,,,,,,,,,,,,,,,,,,,,,999,999,26,Female,1,2024/05/10_10:20:29,YZ,59.937341430857714,
1,.\instructions\inst_offline_rating_0\Slide1.png,right,0.7574264998547733,176.5425517000258,177.29997819988057,,,,,,,,,,,,,,,,,,,,,,,,,,,,,,,,,1,,,,,,,,,,,,,,,,,,,,,,,,,,,,,,,,,,,,,,,,,,999,999,26,Female,1,2024/05/10_10:20:29,YZ,59.937341430857714,
2,.\instructions\inst_offline_rating_0\Slide2.png,right,0.7961678002029657,177.33586779981852,178.13203560002148,,,,,,,,,,,,,,,,,,,,,,,,,,,,,,,,,1,,,,,,,,,,,,,,,,,,,,,,,,,,,,,,,,,,,,,,,,,,999,999,26,Female,1,2024/05/10_10:20:29,YZ,59.937341430857714,
3,.\instructions\inst_offline_rating_0\Slide3.png,right,0.9260650002397597,178.16595119982958,179.09201620006934,,,,,,,,,,,,,,,,,,,,,,,,,,,,,,,,,1,,,,,,,,,,,,,,,,,,,,,,,,,,,,,,,,,,,,,,,,,,999,999,26,Female,1,2024/05/10_10:20:29,YZ,59.937341430857714,
4,.\instructions\inst_offline_rating_0\Slide4.png,right,1.351914200000465,179.1240798998624,180.47599409986287,,,,,,,,,,,,,,,,,,,,,,,,,,,,,,,,,1,,,,,,,,,,,,,,,,,,,,,,,,,,,,,,,,,,,,,,,,,,999,999,26,Female,1,2024/05/10_10:20:29,YZ,59.937341430857714,
,,,,,240510_102402,OFFLINERATING,9,,1.0,,,,,,,,,,,,,,,,,,,,,,,,,,,,,1,,,,,,,,T0,1.0,cue1.png,Easy,52,0.5832712003029883,192.6678363000974,193.28909019986168,,,,,,,,,,,,,,,,,,,,,,,,,,,999,999,26,Female,1,2024/05/10_10:20:29,YZ,59.937341430857714,
,,,,,240510_102409,OFFLINERATING,9,,3.0,,,,,,,,,,,,,,,,,,,,,,,,,,,,,1,,,,,,,,T0,2.0,cue2.png,Hard,56,2.085012400057167,197.87132749985904,199.99433510005474,,,,,,,,,,,,,,,,,,,,,,,,,,,999,999,26,Female,1,2024/05/10_10:20:29,YZ,59.937341430857714,
1,.\instructions\inst_learning\Slide1.png,right,1.253047099802643,203.05504210013896,204.3080891999416,,,,,,,,,,,,,,,,,,,,,,,,,,,,,,,,,1,,,,,,,,,,,,,,,,,,,,,,,,,,,,,,,,,,,,,,,,,,999,999,26,Female,1,2024/05/10_10:20:29,YZ,59.937341430857714,
,,,,,,learning,1,1,1,679,1,Q,0,right,0.8241300000809133,1,0,,,,,,,,,,,,,,,,,,,,,1,,,,,,,,,,,,,,,,,,,,,,,,,,,,,,,,,,,,,,,,,,999,999,26,Female,1,2024/05/10_10:20:29,YZ,59.937341430857714,
,,,,,,learning,1,1,1,679,2,S,0,left,0.0,0,0,,,,,,,,,,,,,,,,,,,,,1,,,,,,,,,,,,,,,,,,,,,,,,,,,,,,,,,,,,,,,,,,999,999,26,Female,1,2024/05/10_10:20:29,YZ,59.937341430857714,
,,,,,,learning,1,1,1,679,3,S,1,left,0.11086119990795851,1,0,,,,,,,,,,,,,,,,,,,,,1,,,,,,,,,,,,,,,,,,,,,,,,,,,,,,,,,,,,,,,,,,999,999,26,Female,1,2024/05/10_10:20:29,YZ,59.937341430857714,
,,,,,,learning,1,1,1,679,4,N,0,right,0.02386710001155734,1,0,,,,,,,,,,,,,,,,,,,,,1,,,,,,,,,,,,,,,,,,,,,,,,,,,,,,,,,,,,,,,,,,999,999,26,Female,1,2024/05/10_10:20:29,YZ,59.937341430857714,
,,,,,,learning,1,1,1,679,5,J,0,right,0.0,1,0,,,,,,,,,,,,,,,,,,,,,1,,,,,,,,,,,,,,,,,,,,,,,,,,,,,,,,,,,,,,,,,,999,999,26,Female,1,2024/05/10_10:20:29,YZ,59.937341430857714,
,,,,,,learning,1,1,1,679,6,J,1,right,0.02851559966802597,0,0,,,,,,,,,,,,,,,,,,,,,1,,,,,,,,,,,,,,,,,,,,,,,,,,,,,,,,,,,,,,,,,,999,999,26,Female,1,2024/05/10_10:20:29,YZ,59.937341430857714,
,,,,,,learning,1,1,1,679,7,Q,0,right,0.11147630028426647,1,0,,,,,,,,,,,,,,,,,,,,,1,,,,,,,,,,,,,,,,,,,,,,,,,,,,,,,,,,,,,,,,,,999,999,26,Female,1,2024/05/10_10:20:29,YZ,59.937341430857714,
,,,,,,learning,1,1,1,679,8,Q,1,right,0.05922099994495511,0,0,,,,,,,,,,,,,,,,,,,,,1,,,,,,,,,,,,,,,,,,,,,,,,,,,,,,,,,,,,,,,,,,999,999,26,Female,1,2024/05/10_10:20:29,YZ,59.937341430857714,
,,,,,,learning,1,1,1,679,9,F,0,left,0.06007179990410805,0,0,,,,,,,,,,,,,,,,,,,,,1,,,,,,,,,,,,,,,,,,,,,,,,,,,,,,,,,,,,,,,,,,999,999,26,Female,1,2024/05/10_10:20:29,YZ,59.937341430857714,
,,,,,,learning,1,1,1,679,10,V,0,right,0.023773899767547846,1,0,,,,,,,,,,,,,,,,,,,,,1,,,,,,,,,,,,,,,,,,,,,,,,,,,,,,,,,,,,,,,,,,999,999,26,Female,1,2024/05/10_10:20:29,YZ,59.937341430857714,
,,,,,,learning,1,1,1,679,11,V,1,left,0.0,1,0,,,,,,,,,,,,,,,,,,,,,1,,,,,,,,,,,,,,,,,,,,,,,,,,,,,,,,,,,,,,,,,,999,999,26,Female,1,2024/05/10_10:20:29,YZ,59.937341430857714,
,,,,,,learning,1,1,1,679,12,X,0,left,0.0,0,0,,,,,,,,,,,,,,,,,,,,,1,,,,,,,,,,,,,,,,,,,,,,,,,,,,,,,,,,,,,,,,,,999,999,26,Female,1,2024/05/10_10:20:29,YZ,59.937341430857714,
,,,,,,learning,1,1,1,679,13,S,0,left,0.07273499993607402,0,0,,,,,,,,,,,,,,,,,,,,,1,,,,,,,,,,,,,,,,,,,,,,,,,,,,,,,,,,,,,,,,,,999,999,26,Female,1,2024/05/10_10:20:29,YZ,59.937341430857714,
,,,,,,learning,1,1,1,679,14,N,0,left,0.12424520030617714,0,0,,,,,,,,,,,,,,,,,,,,,1,,,,,,,,,,,,,,,,,,,,,,,,,,,,,,,,,,,,,,,,,,999,999,26,Female,1,2024/05/10_10:20:29,YZ,59.937341430857714,
,,,,,,Learning,1,1,1,679,,,,,,,,0.725,0.5,0.2,0.5,0.0,0.8,0.10277836427225598,2,2,0,0,0,5,7,4,10,0,,,,1,,,,,,,,,,,,,,,,,,,,,,,,,,,,,,,,,,,,,,,,,,999,999,26,Female,1,2024/05/10_10:20:29,YZ,59.937341430857714,
,,,,,240510_102432,LEARNING,1,1,1,679,,,,,,,,,,,,,,,,,,,,,,,,,,,,1,1,1,1,cue1.png,Easy,A,209.345930499956,,,,,,,,,,,,,,,,,,,,,,,,,,,,,,,,,,,999,999,26,Female,1,2024/05/10_10:20:29,YZ,59.937341430857714,
,,,,,,learning,1,2,3,679,1,Q,0,right,0.2646493003703654,1,0,,,,,,,,,,,,,,,,,,,,,1,,,,,,,,,,,,,,,,,,,,,,,,,,,,,,,,,,,,,,,,,,999,999,26,Female,1,2024/05/10_10:20:29,YZ,59.937341430857714,
,,,,,,learning,1,2,3,679,2,X,0,left,0.13468030001968145,0,0,,,,,,,,,,,,,,,,,,,,,1,,,,,,,,,,,,,,,,,,,,,,,,,,,,,,,,,,,,,,,,,,999,999,26,Female,1,2024/05/10_10:20:29,YZ,59.937341430857714,
,,,,,,learning,1,2,3,679,3,Q,0,right,0.07645210018381476,1,0,,,,,,,,,,,,,,,,,,,,,1,,,,,,,,,,,,,,,,,,,,,,,,,,,,,,,,,,,,,,,,,,999,999,26,Female,1,2024/05/10_10:20:29,YZ,59.937341430857714,
,,,,,,learning,1,2,3,679,4,F,0,right,0.1282575996592641,1,0,,,,,,,,,,,,,,,,,,,,,1,,,,,,,,,,,,,,,,,,,,,,,,,,,,,,,,,,,,,,,,,,999,999,26,Female,1,2024/05/10_10:20:29,YZ,59.937341430857714,
,,,,,,learning,1,2,3,679,5,N,0,right,0.11677569989115,1,0,,,,,,,,,,,,,,,,,,,,,1,,,,,,,,,,,,,,,,,,,,,,,,,,,,,,,,,,,,,,,,,,999,999,26,Female,1,2024/05/10_10:20:29,YZ,59.937341430857714,
,,,,,,learning,1,2,3,679,6,X,0,left,0.0,0,0,,,,,,,,,,,,,,,,,,,,,1,,,,,,,,,,,,,,,,,,,,,,,,,,,,,,,,,,,,,,,,,,999,999,26,Female,1,2024/05/10_10:20:29,YZ,59.937341430857714,
,,,,,,learning,1,2,3,679,7,X,0,left,0.11922640027478337,0,0,,,,,,,,,,,,,,,,,,,,,1,,,,,,,,,,,,,,,,,,,,,,,,,,,,,,,,,,,,,,,,,,999,999,26,Female,1,2024/05/10_10:20:29,YZ,59.937341430857714,
,,,,,,learning,1,2,3,679,8,V,0,right,0.09999229991808534,1,0,,,,,,,,,,,,,,,,,,,,,1,,,,,,,,,,,,,,,,,,,,,,,,,,,,,,,,,,,,,,,,,,999,999,26,Female,1,2024/05/10_10:20:29,YZ,59.937341430857714,
,,,,,,learning,1,2,3,679,9,X,1,right,0.07843390014022589,0,0,,,,,,,,,,,,,,,,,,,,,1,,,,,,,,,,,,,,,,,,,,,,,,,,,,,,,,,,,,,,,,,,999,999,26,Female,1,2024/05/10_10:20:29,YZ,59.937341430857714,
,,,,,,learning,1,2,3,679,10,S,0,left,0.0,0,0,,,,,,,,,,,,,,,,,,,,,1,,,,,,,,,,,,,,,,,,,,,,,,,,,,,,,,,,,,,,,,,,999,999,26,Female,1,2024/05/10_10:20:29,YZ,59.937341430857714,
,,,,,,learning,1,2,3,679,11,V,1,left,0.03970880014821887,1,0,,,,,,,,,,,,,,,,,,,,,1,,,,,,,,,,,,,,,,,,,,,,,,,,,,,,,,,,,,,,,,,,999,999,26,Female,1,2024/05/10_10:20:29,YZ,59.937341430857714,
,,,,,,learning,1,2,3,679,12,S,0,right,0.042632400058209896,1,0,,,,,,,,,,,,,,,,,,,,,1,,,,,,,,,,,,,,,,,,,,,,,,,,,,,,,,,,,,,,,,,,999,999,26,Female,1,2024/05/10_10:20:29,YZ,59.937341430857714,
,,,,,,learning,1,2,3,679,13,S,1,right,0.060328199993819,0,0,,,,,,,,,,,,,,,,,,,,,1,,,,,,,,,,,,,,,,,,,,,,,,,,,,,,,,,,,,,,,,,,999,999,26,Female,1,2024/05/10_10:20:29,YZ,59.937341430857714,
,,,,,,learning,1,2,3,679,14,V,1,left,0.0,1,0,,,,,,,,,,,,,,,,,,,,,1,,,,,,,,,,,,,,,,,,,,,,,,,,,,,,,,,,,,,,,,,,999,999,26,Female,1,2024/05/10_10:20:29,YZ,59.937341430857714,
,,,,,,Learning,1,2,3,679,,,,,,,,0.725,0.5,0.2,0.6,0.0,0.8,0.08293835718982986,2,2,0,0,0,6,8,4,10,0,,,,1,,,,,,,,,,,,,,,,,,,,,,,,,,,,,,,,,,,,,,,,,,999,999,26,Female,1,2024/05/10_10:20:29,YZ,59.937341430857714,
,,,,,240510_102448,LEARNING,1,2,3,679,,,,,,,,,,,,,,,,,,,,,,,,,,,,1,2,2,2,cue2.png,Hard,A,225.84041150007397,,,,,,,,,,,,,,,,,,,,,,,,,,,,,,,,,,,999,999,26,Female,1,2024/05/10_10:20:29,YZ,59.937341430857714,
,,,,,,learning,1,3,1,679,1,V,0,right,0.2503744000568986,1,0,,,,,,,,,,,,,,,,,,,,,1,,,,,,,,,,,,,,,,,,,,,,,,,,,,,,,,,,,,,,,,,,999,999,26,Female,1,2024/05/10_10:20:29,YZ,59.937341430857714,
,,,,,,learning,1,3,1,679,2,V,1,right,0.07417130004614592,0,0,,,,,,,,,,,,,,,,,,,,,1,,,,,,,,,,,,,,,,,,,,,,,,,,,,,,,,,,,,,,,,,,999,999,26,Female,1,2024/05/10_10:20:29,YZ,59.937341430857714,
,,,,,,learning,1,3,1,679,3,S,0,right,0.08551640016958117,1,0,,,,,,,,,,,,,,,,,,,,,1,,,,,,,,,,,,,,,,,,,,,,,,,,,,,,,,,,,,,,,,,,999,999,26,Female,1,2024/05/10_10:20:29,YZ,59.937341430857714,
,,,,,,learning,1,3,1,679,4,X,0,right,0.07967180013656616,1,0,,,,,,,,,,,,,,,,,,,,,1,,,,,,,,,,,,,,,,,,,,,,,,,,,,,,,,,,,,,,,,,,999,999,26,Female,1,2024/05/10_10:20:29,YZ,59.937341430857714,
,,,,,,learning,1,3,1,679,5,J,0,right,0.00980059988796711,1,0,,,,,,,,,,,,,,,,,,,,,1,,,,,,,,,,,,,,,,,,,,,,,,,,,,,,,,,,,,,,,,,,999,999,26,Female,1,2024/05/10_10:20:29,YZ,59.937341430857714,
,,,,,,learning,1,3,1,679,6,F,0,right,0.0,1,0,,,,,,,,,,,,,,,,,,,,,1,,,,,,,,,,,,,,,,,,,,,,,,,,,,,,,,,,,,,,,,,,999,999,26,Female,1,2024/05/10_10:20:29,YZ,59.937341430857714,
,,,,,,learning,1,3,1,679,7,F,1,right,0.0,0,0,,,,,,,,,,,,,,,,,,,,,1,,,,,,,,,,,,,,,,,,,,,,,,,,,,,,,,,,,,,,,,,,999,999,26,Female,1,2024/05/10_10:20:29,YZ,59.937341430857714,
,,,,,,learning,1,3,1,679,8,V,0,left,0.0,0,0,,,,,,,,,,,,,,,,,,,,,1,,,,,,,,,,,,,,,,,,,,,,,,,,,,,,,,,,,,,,,,,,999,999,26,Female,1,2024/05/10_10:20:29,YZ,59.937341430857714,
,,,,,,learning,1,3,1,679,9,F,0,left,0.02720150025561452,0,0,,,,,,,,,,,,,,,,,,,,,1,,,,,,,,,,,,,,,,,,,,,,,,,,,,,,,,,,,,,,,,,,999,999,26,Female,1,2024/05/10_10:20:29,YZ,59.937341430857714,
,,,,,,learning,1,3,1,679,10,C,0,left,0.07815980026498437,0,0,,,,,,,,,,,,,,,,,,,,,1,,,,,,,,,,,,,,,,,,,,,,,,,,,,,,,,,,,,,,,,,,999,999,26,Female,1,2024/05/10_10:20:29,YZ,59.937341430857714,
,,,,,,learning,1,3,1,679,11,C,1,left,0.010308700148016214,1,0,,,,,,,,,,,,,,,,,,,,,1,,,,,,,,,,,,,,,,,,,,,,,,,,,,,,,,,,,,,,,,,,999,999,26,Female,1,2024/05/10_10:20:29,YZ,59.937341430857714,
,,,,,,learning,1,3,1,679,12,J,0,right,0.0,1,0,,,,,,,,,,,,,,,,,,,,,1,,,,,,,,,,,,,,,,,,,,,,,,,,,,,,,,,,,,,,,,,,999,999,26,Female,1,2024/05/10_10:20:29,YZ,59.937341430857714,
,,,,,,learning,1,3,1,679,13,F,0,left,0.05814750026911497,0,0,,,,,,,,,,,,,,,,,,,,,1,,,,,,,,,,,,,,,,,,,,,,,,,,,,,,,,,,,,,,,,,,999,999,26,Female,1,2024/05/10_10:20:29,YZ,59.937341430857714,
,,,,,,learning,1,3,1,679,14,F,1,right,0.0,0,0,,,,,,,,,,,,,,,,,,,,,1,,,,,,,,,,,,,,,,,,,,,,,,,,,,,,,,,,,,,,,,,,999,999,26,Female,1,2024/05/10_10:20:29,YZ,59.937341430857714,
,,,,,,Learning,1,3,1,679,,,,,,,,0.029166666666666646,0.25,0.3,0.6,0.0,0.7,0.048096571516777785,1,3,0,0,0,6,7,4,10,0,,,,1,,,,,,,,,,,,,,,,,,,,,,,,,,,,,,,,,,,,,,,,,,999,999,26,Female,1,2024/05/10_10:20:29,YZ,59.937341430857714,
,,,,,240510_102503,LEARNING,1,3,1,679,,,,,,,,,,,,,,,,,,,,,,,,,,,,1,3,3,3,cue1.png,Easy,A,242.0677820998244,,,,,,,,,,,,,,,,,,,,,,,,,,,,,,,,,,,999,999,26,Female,1,2024/05/10_10:20:29,YZ,59.937341430857714,
1,.\instructions\inst_offline_rating_1\Slide1.png,right,0.8808061997406185,256.3076494000852,257.18845559982583,,,,,,,,,,,,,,,,,,,,,,,,,,,,,,,,,1,,,,,,,,,,,,,,,,,,,,,,,,,,,,,,,,,,,,,,,,,,999,999,26,Female,1,2024/05/10_10:20:29,YZ,59.937341430857714,
2,.\instructions\inst_offline_rating_1\Slide2.png,right,0.7070217002183199,257.225222799927,257.9322445001453,,,,,,,,,,,,,,,,,,,,,,,,,,,,,,,,,1,,,,,,,,,,,,,,,,,,,,,,,,,,,,,,,,,,,,,,,,,,999,999,26,Female,1,2024/05/10_10:20:29,YZ,59.937341430857714,
3,.\instructions\inst_offline_rating_1\Slide3.png,right,0.5284686000086367,257.96373109985143,258.49219969986007,,,,,,,,,,,,,,,,,,,,,,,,,,,,,,,,,1,,,,,,,,,,,,,,,,,,,,,,,,,,,,,,,,,,,,,,,,,,999,999,26,Female,1,2024/05/10_10:20:29,YZ,59.937341430857714,
,,,,,240510_102512,OFFLINERATING,9,,1.0,,,,,,,,,,,,,,,,,,,,,,,,,,,,,1,,,,,,,,T1,1.0,cue1.png,Easy,58,0.5158103997819126,263.0321227000095,263.58696859981865,,,,,,,,,,,,,,,,,,,,,,,,,,,999,999,26,Female,1,2024/05/10_10:20:29,YZ,59.937341430857714,
,,,,,240510_102518,OFFLINERATING,9,,3.0,,,,,,,,,,,,,,,,,,,,,,,,,,,,,1,,,,,,,,T1,2.0,cue2.png,Hard,46,0.652691800147295,268.1518414998427,268.84345089970157,,,,,,,,,,,,,,,,,,,,,,,,,,,999,999,26,Female,1,2024/05/10_10:20:29,YZ,59.937341430857714,
1,.\instructions\inst_choice_true\Slide1.png,right,0.8817973998375237,271.91449359990656,272.7962909997441,,,,,,,,,,,,,,,,,,,,,,,,,,,,,,,,,1,,,,,,,,,,,,,,,,,,,,,,,,,,,,,,,,,,,,,,,,,,999,999,26,Female,1,2024/05/10_10:20:29,YZ,59.937341430857714,
2,.\instructions\inst_choice_true\Slide2.png,right,0.6928866999223828,272.83138700015843,273.5242737000808,,,,,,,,,,,,,,,,,,,,,,,,,,,,,,,,,1,,,,,,,,,,,,,,,,,,,,,,,,,,,,,,,,,,,,,,,,,,999,999,26,Female,1,2024/05/10_10:20:29,YZ,59.937341430857714,
3,.\instructions\inst_choice_true\Slide3.png,right,0.5447573000565171,273.5555505999364,274.1003078999929,,,,,,,,,,,,,,,,,,,,,,,,,,,,,,,,,1,,,,,,,,,,,,,,,,,,,,,,,,,,,,,,,,,,,,,,,,,,999,999,26,Female,1,2024/05/10_10:20:29,YZ,59.937341430857714,
,,,,,,choice,9,1,1,679,1,Q,0,right,0.4585531000047922,1,0,,,,,,,,,,,,,,,,,,,,,1,,,,,,,,,,,,,,,,,,,,,,,,,,,,,,,,,,,,,,,,,,999,999,26,Female,1,2024/05/10_10:20:29,YZ,59.937341430857714,
,,,,,,choice,9,1,1,679,2,S,0,right,0.20730760041624308,1,0,,,,,,,,,,,,,,,,,,,,,1,,,,,,,,,,,,,,,,,,,,,,,,,,,,,,,,,,,,,,,,,,999,999,26,Female,1,2024/05/10_10:20:29,YZ,59.937341430857714,
,,,,,,choice,9,1,1,679,3,S,1,left,0.14154829969629645,1,0,,,,,,,,,,,,,,,,,,,,,1,,,,,,,,,,,,,,,,,,,,,,,,,,,,,,,,,,,,,,,,,,999,999,26,Female,1,2024/05/10_10:20:29,YZ,59.937341430857714,
,,,,,,choice,9,1,1,679,4,N,0,right,0.10501219984143972,1,0,,,,,,,,,,,,,,,,,,,,,1,,,,,,,,,,,,,,,,,,,,,,,,,,,,,,,,,,,,,,,,,,999,999,26,Female,1,2024/05/10_10:20:29,YZ,59.937341430857714,
,,,,,,choice,9,1,1,679,5,J,0,right,0.10738770011812449,1,0,,,,,,,,,,,,,,,,,,,,,1,,,,,,,,,,,,,,,,,,,,,,,,,,,,,,,,,,,,,,,,,,999,999,26,Female,1,2024/05/10_10:20:29,YZ,59.937341430857714,
,,,,,,choice,9,1,1,679,6,J,1,left,0.0,1,0,,,,,,,,,,,,,,,,,,,,,1,,,,,,,,,,,,,,,,,,,,,,,,,,,,,,,,,,,,,,,,,,999,999,26,Female,1,2024/05/10_10:20:29,YZ,59.937341430857714,
,,,,,,choice,9,1,1,679,7,Q,0,left,0.025544899981468916,0,0,,,,,,,,,,,,,,,,,,,,,1,,,,,,,,,,,,,,,,,,,,,,,,,,,,,,,,,,,,,,,,,,999,999,26,Female,1,2024/05/10_10:20:29,YZ,59.937341430857714,
,,,,,,choice,9,1,1,679,8,Q,1,left,0.09172810008749366,1,0,,,,,,,,,,,,,,,,,,,,,1,,,,,,,,,,,,,,,,,,,,,,,,,,,,,,,,,,,,,,,,,,999,999,26,Female,1,2024/05/10_10:20:29,YZ,59.937341430857714,
,,,,,,choice,9,1,1,679,9,F,0,right,0.0,1,0,,,,,,,,,,,,,,,,,,,,,1,,,,,,,,,,,,,,,,,,,,,,,,,,,,,,,,,,,,,,,,,,999,999,26,Female,1,2024/05/10_10:20:29,YZ,59.937341430857714,
,,,,,,choice,9,1,1,679,10,V,0,right,0.0,1,0,,,,,,,,,,,,,,,,,,,,,1,,,,,,,,,,,,,,,,,,,,,,,,,,,,,,,,,,,,,,,,,,999,999,26,Female,1,2024/05/10_10:20:29,YZ,59.937341430857714,
,,,,,,choice,9,1,1,679,11,V,1,left,0.0,1,0,,,,,,,,,,,,,,,,,,,,,1,,,,,,,,,,,,,,,,,,,,,,,,,,,,,,,,,,,,,,,,,,999,999,26,Female,1,2024/05/10_10:20:29,YZ,59.937341430857714,
,,,,,,choice,9,1,1,679,12,X,0,left,0.0,0,0,,,,,,,,,,,,,,,,,,,,,1,,,,,,,,,,,,,,,,,,,,,,,,,,,,,,,,,,,,,,,,,,999,999,26,Female,1,2024/05/10_10:20:29,YZ,59.937341430857714,
,,,,,,choice,9,1,1,679,13,S,0,left,0.09851359995082021,0,0,,,,,,,,,,,,,,,,,,,,,1,,,,,,,,,,,,,,,,,,,,,,,,,,,,,,,,,,,,,,,,,,999,999,26,Female,1,2024/05/10_10:20:29,YZ,59.937341430857714,
,,,,,,choice,9,1,1,679,14,N,0,right,0.0,1,0,,,,,,,,,,,,,,,,,,,,,1,,,,,,,,,,,,,,,,,,,,,,,,,,,,,,,,,,,,,,,,,,999,999,26,Female,1,2024/05/10_10:20:29,YZ,59.937341430857714,
,,,,,,Choice,9,1,1,679,,,,,,,,1.0,1.0,0.0,0.7,0.0,1.0,0.08825682143547706,4,0,0,0,0,7,11,4,10,0,,,,1,,,,,,,,,,,,,,,,,,,,,,,,,,,,,,,,,,,,,,,,,,999,999,26,Female,1,2024/05/10_10:20:29,YZ,59.937341430857714,
,,,,,240510_102540,TrueCHOICE,9,1.0,1,679,,,,,,,,,,,,,,,,,,,,,,,,,,,,1,,1,1,,,A,277.6859965999611,,,,,,,,,True,cue1.png,Easy,cue2.png,Hard,Left,Easy,Easy,0.005469900090247393,0,277.6862335000187,,,,,,,,,,,,,,,,999,999,26,Female,1,2024/05/10_10:20:29,YZ,59.937341430857714,
,,,,,,choice,9,2,1,679,1,J,0,right,0.1219008001498878,1,0,,,,,,,,,,,,,,,,,,,,,1,,,,,,,,,,,,,,,,,,,,,,,,,,,,,,,,,,,,,,,,,,999,999,26,Female,1,2024/05/10_10:20:29,YZ,59.937341430857714,
,,,,,,choice,9,2,1,679,2,J,1,left,0.2220593998208642,1,0,,,,,,,,,,,,,,,,,,,,,1,,,,,,,,,,,,,,,,,,,,,,,,,,,,,,,,,,,,,,,,,,999,999,26,Female,1,2024/05/10_10:20:29,YZ,59.937341430857714,
,,,,,,choice,9,2,1,679,3,N,0,left,0.09146710019558668,0,0,,,,,,,,,,,,,,,,,,,,,1,,,,,,,,,,,,,,,,,,,,,,,,,,,,,,,,,,,,,,,,,,999,999,26,Female,1,2024/05/10_10:20:29,YZ,59.937341430857714,
,,,,,,choice,9,2,1,679,4,X,0,left,0.14330739993602037,0,0,,,,,,,,,,,,,,,,,,,,,1,,,,,,,,,,,,,,,,,,,,,,,,,,,,,,,,,,,,,,,,,,999,999,26,Female,1,2024/05/10_10:20:29,YZ,59.937341430857714,
,,,,,,choice,9,2,1,679,5,X,1,left,0.0682022999972105,1,0,,,,,,,,,,,,,,,,,,,,,1,,,,,,,,,,,,,,,,,,,,,,,,,,,,,,,,,,,,,,,,,,999,999,26,Female,1,2024/05/10_10:20:29,YZ,59.937341430857714,
,,,,,,choice,9,2,1,679,6,Q,0,right,0.0,1,0,,,,,,,,,,,,,,,,,,,,,1,,,,,,,,,,,,,,,,,,,,,,,,,,,,,,,,,,,,,,,,,,999,999,26,Female,1,2024/05/10_10:20:29,YZ,59.937341430857714,
,,,,,,choice,9,2,1,679,7,F,0,right,0.06462629977613688,1,0,,,,,,,,,,,,,,,,,,,,,1,,,,,,,,,,,,,,,,,,,,,,,,,,,,,,,,,,,,,,,,,,999,999,26,Female,1,2024/05/10_10:20:29,YZ,59.937341430857714,
,,,,,,choice,9,2,1,679,8,C,0,right,0.12233559973537922,1,0,,,,,,,,,,,,,,,,,,,,,1,,,,,,,,,,,,,,,,,,,,,,,,,,,,,,,,,,,,,,,,,,999,999,26,Female,1,2024/05/10_10:20:29,YZ,59.937341430857714,
,,,,,,choice,9,2,1,679,9,S,0,right,0.11777660017833114,1,0,,,,,,,,,,,,,,,,,,,,,1,,,,,,,,,,,,,,,,,,,,,,,,,,,,,,,,,,,,,,,,,,999,999,26,Female,1,2024/05/10_10:20:29,YZ,59.937341430857714,
,,,,,,choice,9,2,1,679,10,S,1,left,0.20282100001350045,1,0,,,,,,,,,,,,,,,,,,,,,1,,,,,,,,,,,,,,,,,,,,,,,,,,,,,,,,,,,,,,,,,,999,999,26,Female,1,2024/05/10_10:20:29,YZ,59.937341430857714,
,,,,,,choice,9,2,1,679,11,X,0,right,0.0,1,0,,,,,,,,,,,,,,,,,,,,,1,,,,,,,,,,,,,,,,,,,,,,,,,,,,,,,,,,,,,,,,,,999,999,26,Female,1,2024/05/10_10:20:29,YZ,59.937341430857714,
,,,,,,choice,9,2,1,679,12,J,0,right,0.0,1,0,,,,,,,,,,,,,,,,,,,,,1,,,,,,,,,,,,,,,,,,,,,,,,,,,,,,,,,,,,,,,,,,999,999,26,Female,1,2024/05/10_10:20:29,YZ,59.937341430857714,
,,,,,,choice,9,2,1,679,13,Q,0,left,0.0,0,0,,,,,,,,,,,,,,,,,,,,,1,,,,,,,,,,,,,,,,,,,,,,,,,,,,,,,,,,,,,,,,,,999,999,26,Female,1,2024/05/10_10:20:29,YZ,59.937341430857714,
,,,,,,choice,9,2,1,679,14,Q,1,left,0.0,1,0,,,,,,,,,,,,,,,,,,,,,1,,,,,,,,,,,,,,,,,,,,,,,,,,,,,,,,,,,,,,,,,,999,999,26,Female,1,2024/05/10_10:20:29,YZ,59.937341430857714,
,,,,,,Choice,9,2,1,679,,,,,,,,1.0,1.0,0.0,0.7,0.0,1.0,0.08246403570020837,4,0,0,0,0,7,11,4,10,0,,,,1,,,,,,,,,,,,,,,,,,,,,,,,,,,,,,,,,,,,,,,,,,999,999,26,Female,1,2024/05/10_10:20:29,YZ,59.937341430857714,
,,,,,240510_102557,TrueCHOICE,9,2.0,1,679,,,,,,,,,,,,,,,,,,,,,,,,,,,,1,,2,2,,,A,295.08112089987844,,,,,,,,,True,cue1.png,Easy,cue2.png,Hard,Left,Easy,Easy,0.0058316998183727264,0,295.08135400014,,,,,,,,,,,,,,,,999,999,26,Female,1,2024/05/10_10:20:29,YZ,59.937341430857714,
,,,,,,choice,9,3,3,679,1,X,0,right,0.15200919983908534,1,0,,,,,,,,,,,,,,,,,,,,,1,,,,,,,,,,,,,,,,,,,,,,,,,,,,,,,,,,,,,,,,,,999,999,26,Female,1,2024/05/10_10:20:29,YZ,59.937341430857714,
,,,,,,choice,9,3,3,679,2,N,0,left,0.1323499004356563,0,0,,,,,,,,,,,,,,,,,,,,,1,,,,,,,,,,,,,,,,,,,,,,,,,,,,,,,,,,,,,,,,,,999,999,26,Female,1,2024/05/10_10:20:29,YZ,59.937341430857714,
,,,,,,choice,9,3,3,679,3,S,0,left,0.01708310004323721,0,0,,,,,,,,,,,,,,,,,,,,,1,,,,,,,,,,,,,,,,,,,,,,,,,,,,,,,,,,,,,,,,,,999,999,26,Female,1,2024/05/10_10:20:29,YZ,59.937341430857714,
,,,,,,choice,9,3,3,679,4,X,1,left,0.11257939971983433,1,0,,,,,,,,,,,,,,,,,,,,,1,,,,,,,,,,,,,,,,,,,,,,,,,,,,,,,,,,,,,,,,,,999,999,26,Female,1,2024/05/10_10:20:29,YZ,59.937341430857714,
,,,,,,choice,9,3,3,679,5,J,0,left,0.0617761998437345,0,0,,,,,,,,,,,,,,,,,,,,,1,,,,,,,,,,,,,,,,,,,,,,,,,,,,,,,,,,,,,,,,,,999,999,26,Female,1,2024/05/10_10:20:29,YZ,59.937341430857714,
,,,,,,choice,9,3,3,679,6,X,0,left,0.09762969985604286,0,0,,,,,,,,,,,,,,,,,,,,,1,,,,,,,,,,,,,,,,,,,,,,,,,,,,,,,,,,,,,,,,,,999,999,26,Female,1,2024/05/10_10:20:29,YZ,59.937341430857714,
,,,,,,choice,9,3,3,679,7,C,0,left,0.12543149990960956,0,0,,,,,,,,,,,,,,,,,,,,,1,,,,,,,,,,,,,,,,,,,,,,,,,,,,,,,,,,,,,,,,,,999,999,26,Female,1,2024/05/10_10:20:29,YZ,59.937341430857714,
,,,,,,choice,9,3,3,679,8,S,0,left,0.08073419984430075,0,0,,,,,,,,,,,,,,,,,,,,,1,,,,,,,,,,,,,,,,,,,,,,,,,,,,,,,,,,,,,,,,,,999,999,26,Female,1,2024/05/10_10:20:29,YZ,59.937341430857714,
,,,,,,choice,9,3,3,679,9,X,1,left,0.06656030006706715,1,0,,,,,,,,,,,,,,,,,,,,,1,,,,,,,,,,,,,,,,,,,,,,,,,,,,,,,,,,,,,,,,,,999,999,26,Female,1,2024/05/10_10:20:29,YZ,59.937341430857714,
,,,,,,choice,9,3,3,679,10,V,0,right,0.061982599552720785,1,0,,,,,,,,,,,,,,,,,,,,,1,,,,,,,,,,,,,,,,,,,,,,,,,,,,,,,,,,,,,,,,,,999,999,26,Female,1,2024/05/10_10:20:29,YZ,59.937341430857714,
,,,,,,choice,9,3,3,679,11,J,0,left,0.0,0,0,,,,,,,,,,,,,,,,,,,,,1,,,,,,,,,,,,,,,,,,,,,,,,,,,,,,,,,,,,,,,,,,999,999,26,Female,1,2024/05/10_10:20:29,YZ,59.937341430857714,
,,,,,,choice,9,3,3,679,12,X,1,right,0.0,0,0,,,,,,,,,,,,,,,,,,,,,1,,,,,,,,,,,,,,,,,,,,,,,,,,,,,,,,,,,,,,,,,,999,999,26,Female,1,2024/05/10_10:20:29,YZ,59.937341430857714,
,,,,,,choice,9,3,3,679,13,V,1,left,0.0,1,0,,,,,,,,,,,,,,,,,,,,,1,,,,,,,,,,,,,,,,,,,,,,,,,,,,,,,,,,,,,,,,,,999,999,26,Female,1,2024/05/10_10:20:29,YZ,59.937341430857714,
,,,,,,choice,9,3,3,679,14,S,0,right,0.09270530007779598,1,0,,,,,,,,,,,,,,,,,,,,,1,,,,,,,,,,,,,,,,,,,,,,,,,,,,,,,,,,,,,,,,,,999,999,26,Female,1,2024/05/10_10:20:29,YZ,59.937341430857714,
,,,,,,Choice,9,3,3,679,,,,,,,,0.8875,0.75,0.1,0.3,0.0,0.9,0.07148867137064892,3,1,0,0,0,3,6,4,10,0,,,,1,,,,,,,,,,,,,,,,,,,,,,,,,,,,,,,,,,,,,,,,,,999,999,26,Female,1,2024/05/10_10:20:29,YZ,59.937341430857714,
,,,,,240510_102614,TrueCHOICE,9,3.0,3,679,,,,,,,,,,,,,,,,,,,,,,,,,,,,1,,3,3,,,A,312.37595329992473,,,,,,,,,True,cue2.png,Hard,cue1.png,Easy,Left,Hard,Hard,0.005770599935203791,0,312.376185500063,,,,,,,,,,,,,,,,999,999,26,Female,1,2024/05/10_10:20:29,YZ,59.937341430857714,
1,.\instructions\inst_offline_rating_2\Slide1.png,right,1.0219703000038862,326.92652259999886,327.94849290000275,,,,,,,,,,,,,,,,,,,,,,,,,,,,,,,,,1,,,,,,,,,,,,,,,,,,,,,,,,,,,,,,,,,,,,,,,,,,999,999,26,Female,1,2024/05/10_10:20:29,YZ,59.937341430857714,
2,.\instructions\inst_offline_rating_2\Slide2.png,right,0.653037500102073,327.98344489978626,328.63648239988834,,,,,,,,,,,,,,,,,,,,,,,,,,,,,,,,,1,,,,,,,,,,,,,,,,,,,,,,,,,,,,,,,,,,,,,,,,,,999,999,26,Female,1,2024/05/10_10:20:29,YZ,59.937341430857714,
3,.\instructions\inst_offline_rating_2\Slide3.png,right,0.4729360002093017,328.6675252998248,329.1404613000341,,,,,,,,,,,,,,,,,,,,,,,,,,,,,,,,,1,,,,,,,,,,,,,,,,,,,,,,,,,,,,,,,,,,,,,,,,,,999,999,26,Female,1,2024/05/10_10:20:29,YZ,59.937341430857714,
,,,,,240510_102625,OFFLINERATING,9,,1.0,,,,,,,,,,,,,,,,,,,,,,,,,,,,,1,,,,,,,,T2,1.0,cue1.png,Easy,62,2.181927800178528,333.6793368998915,335.900017300155,,,,,,,,,,,,,,,,,,,,,,,,,,,999,999,26,Female,1,2024/05/10_10:20:29,YZ,59.937341430857714,
,,,,,240510_102630,OFFLINERATING,9,,3.0,,,,,,,,,,,,,,,,,,,,,,,,,,,,,1,,,,,,,,T2,2.0,cue2.png,Hard,36,0.8338227001950145,340.4506916999817,341.3223683000542,,,,,,,,,,,,,,,,,,,,,,,,,,,999,999,26,Female,1,2024/05/10_10:20:29,YZ,59.937341430857714,
1,.\instructions\inst_learning_check\Slide1.png,right,0.938570300117135,344.38592549972236,345.3244957998395,,,,,,,,,,,,,,,,,,,,,,,,,,,,,,,,,1,,,,,,,,,,,,,,,,,,,,,,,,,,,,,,,,,,,,,,,,,,999,999,26,Female,1,2024/05/10_10:20:29,YZ,59.937341430857714,
,,,,,240510_102641,LEARNINGCHECK,9,1,,,,,,,,,,,,,,,,,,,,,,,,,,,,,,1,1.0,1,1,,,A,350.4587451000698,,,,,,,,,,,,,,,,,,,,cue1.png,Easy,Left,Left,Easy,0.015799200162291527,1,0,350.4589312998578,,,,,,,999,999,26,Female,1,2024/05/10_10:20:29,YZ,59.937341430857714,
,,,,,240510_102646,LEARNINGCHECK,9,2,,,,,,,,,,,,,,,,,,,,,,,,,,,,,,1,2.0,2,2,,,A,354.96149110002443,,,,,,,,,,,,,,,,,,,,cue2.png,Hard,Right,Right,Hard,0.01606110017746687,1,0,354.9616780998185,,,,,,,999,999,26,Female,1,2024/05/10_10:20:29,YZ,59.937341430857714,
1,.\instructions\inst_choice_false\Slide1.png,right,0.9038284001871943,358.55674859974533,359.4605769999325,,,,,,,,,,,,,,,,,,,,,,,,,,,,,,,,,1,,,,,,,,,,,,,,,,,,,,,,,,,,,,,,,,,,,,,,,,,,999,999,26,Female,1,2024/05/10_10:20:29,YZ,59.937341430857714,
2,.\instructions\inst_choice_false\Slide2.png,right,0.6613307995721698,359.4952488001436,360.15657959971577,,,,,,,,,,,,,,,,,,,,,,,,,,,,,,,,,1,,,,,,,,,,,,,,,,,,,,,,,,,,,,,,,,,,,,,,,,,,999,999,26,Female,1,2024/05/10_10:20:29,YZ,59.937341430857714,
3,.\instructions\inst_choice_false\Slide3.png,right,0.5692175002768636,360.187319799792,360.7565373000689,,,,,,,,,,,,,,,,,,,,,,,,,,,,,,,,,1,,,,,,,,,,,,,,,,,,,,,,,,,,,,,,,,,,,,,,,,,,999,999,26,Female,1,2024/05/10_10:20:29,YZ,59.937341430857714,
,,,,,,choice,9,1,2,679,1,S,0,right,0.257324299775064,1,0,,,,,,,,,,,,,,,,,,,,,1,,,,,,,,,,,,,,,,,,,,,,,,,,,,,,,,,,,,,,,,,,999,999,26,Female,1,2024/05/10_10:20:29,YZ,59.937341430857714,
,,,,,,choice,9,1,2,679,2,S,0,left,0.0,0,0,,,,,,,,,,,,,,,,,,,,,1,,,,,,,,,,,,,,,,,,,,,,,,,,,,,,,,,,,,,,,,,,999,999,26,Female,1,2024/05/10_10:20:29,YZ,59.937341430857714,
,,,,,,choice,9,1,2,679,3,F,0,right,0.0,1,0,,,,,,,,,,,,,,,,,,,,,1,,,,,,,,,,,,,,,,,,,,,,,,,,,,,,,,,,,,,,,,,,999,999,26,Female,1,2024/05/10_10:20:29,YZ,59.937341430857714,
,,,,,,choice,9,1,2,679,4,J,0,right,0.18676390033215284,1,0,,,,,,,,,,,,,,,,,,,,,1,,,,,,,,,,,,,,,,,,,,,,,,,,,,,,,,,,,,,,,,,,999,999,26,Female,1,2024/05/10_10:20:29,YZ,59.937341430857714,
,,,,,,choice,9,1,2,679,5,Q,0,left,0.0,0,0,,,,,,,,,,,,,,,,,,,,,1,,,,,,,,,,,,,,,,,,,,,,,,,,,,,,,,,,,,,,,,,,999,999,26,Female,1,2024/05/10_10:20:29,YZ,59.937341430857714,
,,,,,,choice,9,1,2,679,6,N,0,right,0.0,1,0,,,,,,,,,,,,,,,,,,,,,1,,,,,,,,,,,,,,,,,,,,,,,,,,,,,,,,,,,,,,,,,,999,999,26,Female,1,2024/05/10_10:20:29,YZ,59.937341430857714,
,,,,,,choice,9,1,2,679,7,Q,1,right,0.09614369971677661,0,0,,,,,,,,,,,,,,,,,,,,,1,,,,,,,,,,,,,,,,,,,,,,,,,,,,,,,,,,,,,,,,,,999,999,26,Female,1,2024/05/10_10:20:29,YZ,59.937341430857714,
,,,,,,choice,9,1,2,679,8,N,1,right,0.1643881998024881,0,0,,,,,,,,,,,,,,,,,,,,,1,,,,,,,,,,,,,,,,,,,,,,,,,,,,,,,,,,,,,,,,,,999,999,26,Female,1,2024/05/10_10:20:29,YZ,59.937341430857714,
,,,,,,choice,9,1,2,679,9,V,0,right,0.1601150999777019,1,0,,,,,,,,,,,,,,,,,,,,,1,,,,,,,,,,,,,,,,,,,,,,,,,,,,,,,,,,,,,,,,,,999,999,26,Female,1,2024/05/10_10:20:29,YZ,59.937341430857714,
,,,,,,choice,9,1,2,679,10,N,1,right,0.1622342998161912,0,0,,,,,,,,,,,,,,,,,,,,,1,,,,,,,,,,,,,,,,,,,,,,,,,,,,,,,,,,,,,,,,,,999,999,26,Female,1,2024/05/10_10:20:29,YZ,59.937341430857714,
,,,,,,choice,9,1,2,679,11,C,0,right,0.09653689991682768,1,0,,,,,,,,,,,,,,,,,,,,,1,,,,,,,,,,,,,,,,,,,,,,,,,,,,,,,,,,,,,,,,,,999,999,26,Female,1,2024/05/10_10:20:29,YZ,59.937341430857714,
,,,,,,choice,9,1,2,679,12,F,0,right,0.10829420015215874,1,0,,,,,,,,,,,,,,,,,,,,,1,,,,,,,,,,,,,,,,,,,,,,,,,,,,,,,,,,,,,,,,,,999,999,26,Female,1,2024/05/10_10:20:29,YZ,59.937341430857714,
,,,,,,choice,9,1,2,679,13,C,1,right,0.056334299966692924,0,0,,,,,,,,,,,,,,,,,,,,,1,,,,,,,,,,,,,,,,,,,,,,,,,,,,,,,,,,,,,,,,,,999,999,26,Female,1,2024/05/10_10:20:29,YZ,59.937341430857714,
,,,,,,choice,9,1,2,679,14,J,0,right,0.0341304000467062,1,0,,,,,,,,,,,,,,,,,,,,,1,,,,,,,,,,,,,,,,,,,,,,,,,,,,,,,,,,,,,,,,,,999,999,26,Female,1,2024/05/10_10:20:29,YZ,59.937341430857714,
,,,,,,Choice,9,1,2,679,,,,,,,,0.15,0.0,0.4,0.8,0.0,0.6,0.0944475213930543,0,4,0,0,0,8,8,4,10,0,,,,1,,,,,,,,,,,,,,,,,,,,,,,,,,,,,,,,,,,,,,,,,,999,999,26,Female,1,2024/05/10_10:20:29,YZ,59.937341430857714,
,,,,,240510_102708,FalseCHOICE,9,1.0,2,679,,,,,,,,,,,,,,,,,,,,,,,,,,,,1,,1,1,,,A,365.6951783997938,,,,,,,,,False,cue1.png,Easy,cue2.png,Hard,Left,Easy,Mid,0.005790799856185913,0,365.69540630001575,,,,,,,,,,,,,,,,999,999,26,Female,1,2024/05/10_10:20:29,YZ,59.937341430857714,
,,,,,,choice,9,2,2,679,1,N,0,right,0.2953278999775648,1,0,,,,,,,,,,,,,,,,,,,,,1,,,,,,,,,,,,,,,,,,,,,,,,,,,,,,,,,,,,,,,,,,999,999,26,Female,1,2024/05/10_10:20:29,YZ,59.937341430857714,
,,,,,,choice,9,2,2,679,2,N,0,left,0.0,0,0,,,,,,,,,,,,,,,,,,,,,1,,,,,,,,,,,,,,,,,,,,,,,,,,,,,,,,,,,,,,,,,,999,999,26,Female,1,2024/05/10_10:20:29,YZ,59.937341430857714,
,,,,,,choice,9,2,2,679,3,C,0,left,0.10388089995831251,0,0,,,,,,,,,,,,,,,,,,,,,1,,,,,,,,,,,,,,,,,,,,,,,,,,,,,,,,,,,,,,,,,,999,999,26,Female,1,2024/05/10_10:20:29,YZ,59.937341430857714,
,,,,,,choice,9,2,2,679,4,V,0,right,0.0,1,0,,,,,,,,,,,,,,,,,,,,,1,,,,,,,,,,,,,,,,,,,,,,,,,,,,,,,,,,,,,,,,,,999,999,26,Female,1,2024/05/10_10:20:29,YZ,59.937341430857714,
,,,,,,choice,9,2,2,679,5,C,1,right,0.03647630009800196,0,0,,,,,,,,,,,,,,,,,,,,,1,,,,,,,,,,,,,,,,,,,,,,,,,,,,,,,,,,,,,,,,,,999,999,26,Female,1,2024/05/10_10:20:29,YZ,59.937341430857714,
,,,,,,choice,9,2,2,679,6,V,1,right,0.16467930004000664,0,0,,,,,,,,,,,,,,,,,,,,,1,,,,,,,,,,,,,,,,,,,,,,,,,,,,,,,,,,,,,,,,,,999,999,26,Female,1,2024/05/10_10:20:29,YZ,59.937341430857714,
,,,,,,choice,9,2,2,679,7,N,0,right,0.16296559991315007,1,0,,,,,,,,,,,,,,,,,,,,,1,,,,,,,,,,,,,,,,,,,,,,,,,,,,,,,,,,,,,,,,,,999,999,26,Female,1,2024/05/10_10:20:29,YZ,59.937341430857714,
,,,,,,choice,9,2,2,679,8,F,0,right,0.08849230036139488,1,0,,,,,,,,,,,,,,,,,,,,,1,,,,,,,,,,,,,,,,,,,,,,,,,,,,,,,,,,,,,,,,,,999,999,26,Female,1,2024/05/10_10:20:29,YZ,59.937341430857714,
,,,,,,choice,9,2,2,679,9,N,1,right,0.1639549001120031,0,0,,,,,,,,,,,,,,,,,,,,,1,,,,,,,,,,,,,,,,,,,,,,,,,,,,,,,,,,,,,,,,,,999,999,26,Female,1,2024/05/10_10:20:29,YZ,59.937341430857714,
,,,,,,choice,9,2,2,679,10,V,0,right,0.15249280026182532,1,0,,,,,,,,,,,,,,,,,,,,,1,,,,,,,,,,,,,,,,,,,,,,,,,,,,,,,,,,,,,,,,,,999,999,26,Female,1,2024/05/10_10:20:29,YZ,59.937341430857714,
,,,,,,choice,9,2,2,679,11,N,1,right,0.12519179983064532,0,0,,,,,,,,,,,,,,,,,,,,,1,,,,,,,,,,,,,,,,,,,,,,,,,,,,,,,,,,,,,,,,,,999,999,26,Female,1,2024/05/10_10:20:29,YZ,59.937341430857714,
,,,,,,choice,9,2,2,679,12,X,0,left,0.0,0,0,,,,,,,,,,,,,,,,,,,,,1,,,,,,,,,,,,,,,,,,,,,,,,,,,,,,,,,,,,,,,,,,999,999,26,Female,1,2024/05/10_10:20:29,YZ,59.937341430857714,
,,,,,,choice,9,2,2,679,13,Q,0,right,0.11261210031807423,1,0,,,,,,,,,,,,,,,,,,,,,1,,,,,,,,,,,,,,,,,,,,,,,,,,,,,,,,,,,,,,,,,,999,999,26,Female,1,2024/05/10_10:20:29,YZ,59.937341430857714,
,,,,,,choice,9,2,2,679,14,C,0,right,0.12492190022021532,1,0,,,,,,,,,,,,,,,,,,,,,1,,,,,,,,,,,,,,,,,,,,,,,,,,,,,,,,,,,,,,,,,,999,999,26,Female,1,2024/05/10_10:20:29,YZ,59.937341430857714,
,,,,,,Choice,9,2,2,679,,,,,,,,0.15,0.0,0.4,0.7,0.0,0.6,0.1093568429350853,0,4,0,0,0,7,7,4,10,0,,,,1,,,,,,,,,,,,,,,,,,,,,,,,,,,,,,,,,,,,,,,,,,999,999,26,Female,1,2024/05/10_10:20:29,YZ,59.937341430857714,
,,,,,240510_102725,FalseCHOICE,9,2.0,2,679,,,,,,,,,,,,,,,,,,,,,,,,,,,,1,,2,2,,,A,382.4732415997423,,,,,,,,,False,cue2.png,Hard,cue1.png,Easy,Left,Hard,Mid,0.005636400077491999,0,382.47347189998254,,,,,,,,,,,,,,,,999,999,26,Female,1,2024/05/10_10:20:29,YZ,59.937341430857714,
,,,,,,choice,9,3,2,679,1,F,0,right,0.2810308998450637,1,0,,,,,,,,,,,,,,,,,,,,,1,,,,,,,,,,,,,,,,,,,,,,,,,,,,,,,,,,,,,,,,,,999,999,26,Female,1,2024/05/10_10:20:29,YZ,59.937341430857714,
,,,,,,choice,9,3,2,679,2,Q,0,left,0.0,0,0,,,,,,,,,,,,,,,,,,,,,1,,,,,,,,,,,,,,,,,,,,,,,,,,,,,,,,,,,,,,,,,,999,999,26,Female,1,2024/05/10_10:20:29,YZ,59.937341430857714,
,,,,,,choice,9,3,2,679,3,C,0,left,0.05003960011526942,0,0,,,,,,,,,,,,,,,,,,,,,1,,,,,,,,,,,,,,,,,,,,,,,,,,,,,,,,,,,,,,,,,,999,999,26,Female,1,2024/05/10_10:20:29,YZ,59.937341430857714,
,,,,,,choice,9,3,2,679,4,Q,1,left,0.08412239979952574,1,0,,,,,,,,,,,,,,,,,,,,,1,,,,,,,,,,,,,,,,,,,,,,,,,,,,,,,,,,,,,,,,,,999,999,26,Female,1,2024/05/10_10:20:29,YZ,59.937341430857714,
,,,,,,choice,9,3,2,679,5,F,0,right,0.0,1,0,,,,,,,,,,,,,,,,,,,,,1,,,,,,,,,,,,,,,,,,,,,,,,,,,,,,,,,,,,,,,,,,999,999,26,Female,1,2024/05/10_10:20:29,YZ,59.937341430857714,
,,,,,,choice,9,3,2,679,6,C,0,right,0.06346180010586977,1,0,,,,,,,,,,,,,,,,,,,,,1,,,,,,,,,,,,,,,,,,,,,,,,,,,,,,,,,,,,,,,,,,999,999,26,Female,1,2024/05/10_10:20:29,YZ,59.937341430857714,
,,,,,,choice,9,3,2,679,7,F,1,right,0.12233040016144514,0,0,,,,,,,,,,,,,,,,,,,,,1,,,,,,,,,,,,,,,,,,,,,,,,,,,,,,,,,,,,,,,,,,999,999,26,Female,1,2024/05/10_10:20:29,YZ,59.937341430857714,
,,,,,,choice,9,3,2,679,8,C,1,right,0.14352979976683855,0,0,,,,,,,,,,,,,,,,,,,,,1,,,,,,,,,,,,,,,,,,,,,,,,,,,,,,,,,,,,,,,,,,999,999,26,Female,1,2024/05/10_10:20:29,YZ,59.937341430857714,
,,,,,,choice,9,3,2,679,9,X,0,left,0.0,0,0,,,,,,,,,,,,,,,,,,,,,1,,,,,,,,,,,,,,,,,,,,,,,,,,,,,,,,,,,,,,,,,,999,999,26,Female,1,2024/05/10_10:20:29,YZ,59.937341430857714,
,,,,,,choice,9,3,2,679,10,N,0,right,0.0,1,0,,,,,,,,,,,,,,,,,,,,,1,,,,,,,,,,,,,,,,,,,,,,,,,,,,,,,,,,,,,,,,,,999,999,26,Female,1,2024/05/10_10:20:29,YZ,59.937341430857714,
,,,,,,choice,9,3,2,679,11,V,0,right,0.0,1,0,,,,,,,,,,,,,,,,,,,,,1,,,,,,,,,,,,,,,,,,,,,,,,,,,,,,,,,,,,,,,,,,999,999,26,Female,1,2024/05/10_10:20:29,YZ,59.937341430857714,
,,,,,,choice,9,3,2,679,12,C,0,right,0.06378480000421405,1,0,,,,,,,,,,,,,,,,,,,,,1,,,,,,,,,,,,,,,,,,,,,,,,,,,,,,,,,,,,,,,,,,999,999,26,Female,1,2024/05/10_10:20:29,YZ,59.937341430857714,
,,,,,,choice,9,3,2,679,13,J,0,left,0.12222079979255795,0,0,,,,,,,,,,,,,,,,,,,,,1,,,,,,,,,,,,,,,,,,,,,,,,,,,,,,,,,,,,,,,,,,999,999,26,Female,1,2024/05/10_10:20:29,YZ,59.937341430857714,
,,,,,,choice,9,3,2,679,14,C,1,right,0.0,0,0,,,,,,,,,,,,,,,,,,,,,1,,,,,,,,,,,,,,,,,,,,,,,,,,,,,,,,,,,,,,,,,,999,999,26,Female,1,2024/05/10_10:20:29,YZ,59.937341430857714,
,,,,,,Choice,9,3,2,679,,,,,,,,0.029166666666666646,0.25,0.3,0.6,0.0,0.7,0.0664657499707703,1,3,0,0,0,6,7,4,10,0,,,,1,,,,,,,,,,,,,,,,,,,,,,,,,,,,,,,,,,,,,,,,,,999,999,26,Female,1,2024/05/10_10:20:29,YZ,59.937341430857714,
,,,,,240510_102741,FalseCHOICE,9,3.0,2,679,,,,,,,,,,,,,,,,,,,,,,,,,,,,1,,3,3,,,A,399.9012683997862,,,,,,,,,False,cue2.png,Hard,cue1.png,Easy,Right,Easy,Mid,0.005731900222599506,0,399.90149179985747,,,,,,,,,,,,,,,,999,999,26,Female,1,2024/05/10_10:20:29,YZ,59.937341430857714,
1,.\instructions\inst_offline_rating_3\Slide1.png,right,3.0218571997247636,414.32694800011814,417.3488051998429,,,,,,,,,,,,,,,,,,,,,,,,,,,,,,,,,1,,,,,,,,,,,,,,,,,,,,,,,,,,,,,,,,,,,,,,,,,,999,999,26,Female,1,2024/05/10_10:20:29,YZ,59.937341430857714,
2,.\instructions\inst_offline_rating_3\Slide2.png,right,0.6361372997052968,417.38461880013347,418.02075609983876,,,,,,,,,,,,,,,,,,,,,,,,,,,,,,,,,1,,,,,,,,,,,,,,,,,,,,,,,,,,,,,,,,,,,,,,,,,,999,999,26,Female,1,2024/05/10_10:20:29,YZ,59.937341430857714,
3,.\instructions\inst_offline_rating_3\Slide3.png,right,0.2001057001762092,418.0525676999241,418.2526734001003,,,,,,,,,,,,,,,,,,,,,,,,,,,,,,,,,1,,,,,,,,,,,,,,,,,,,,,,,,,,,,,,,,,,,,,,,,,,999,999,26,Female,1,2024/05/10_10:20:29,YZ,59.937341430857714,
,,,,,240510_102752,OFFLINERATING,9,,1.0,,,,,,,,,,,,,,,,,,,,,,,,,,,,,1,,,,,,,,T3,1.0,cue1.png,Easy,56,0.6387821002863348,422.7891454999335,423.46074429992586,,,,,,,,,,,,,,,,,,,,,,,,,,,999,999,26,Female,1,2024/05/10_10:20:29,YZ,59.937341430857714,
,,,,,240510_102757,OFFLINERATING,9,,3.0,,,,,,,,,,,,,,,,,,,,,,,,,,,,,1,,,,,,,,T3,2.0,cue2.png,Hard,57,0.36388459987938404,428.00968649983406,428.4116289000958,,,,,,,,,,,,,,,,,,,,,,,,,,,999,999,26,Female,1,2024/05/10_10:20:29,YZ,59.937341430857714,
1,.\instructions\inst_learning_check\Slide1.png,right,0.8516272003762424,431.4608418997377,432.31246910011396,,,,,,,,,,,,,,,,,,,,,,,,,,,,,,,,,1,,,,,,,,,,,,,,,,,,,,,,,,,,,,,,,,,,,,,,,,,,999,999,26,Female,1,2024/05/10_10:20:29,YZ,59.937341430857714,
,,,,,240510_102807,LEARNINGCHECK,9,1,,,,,,,,,,,,,,,,,,,,,,,,,,,,,,1,1.0,1,1,,,A,436.13309160014614,,,,,,,,,,,,,,,,,,,,cue1.png,Easy,Middle,Middle,Mid,0.015558300074189901,1,0,436.13328230008483,,,,,,,999,999,26,Female,1,2024/05/10_10:20:29,YZ,59.937341430857714,
,,,,,240510_102811,LEARNINGCHECK,9,2,,,,,,,,,,,,,,,,,,,,,,,,,,,,,,1,2.0,2,2,,,A,440.0857700998895,,,,,,,,,,,,,,,,,,,,cue2.png,Hard,Middle,Middle,Mid,0.015546999871730804,1,0,440.0859584999271,,,,,,,999,999,26,Female,1,2024/05/10_10:20:29,YZ,59.937341430857714,
1,.\instructions\inst_demand_rating\Slide1.png,right,0.8518376997672021,443.6489884001203,444.5008260998875,,,,,,,,,,,,,,,,,,,,,,,,,,,,,,,,,1,,,,,,,,,,,,,,,,,,,,,,,,,,,,,,,,,,,,,,,,,,999,999,26,Female,1,2024/05/10_10:20:29,YZ,59.937341430857714,
,,,,,240510_102817,DEMANDRATING,9,,,,,,,,,,,,,,,,,,,,,,,,,,,,,,,1,,,,,,,,,,,,,,,,,,,,,,,,,,,,,,,,,,,,1,MentalDemand,1,52,1.792286999989301,447.8401028998196,999,999,26,Female,1,2024/05/10_10:20:29,YZ,59.937341430857714,
,,,,,240510_102819,DEMANDRATING,9,,,,,,,,,,,,,,,,,,,,,,,,,,,,,,,1,,,,,,,,,,,,,,,,,,,,,,,,,,,,,,,,,,,,2,Effort,1,52,0.8022014000453055,450.1749141998589,999,999,26,Female,1,2024/05/10_10:20:29,YZ,59.937341430857714,
,,,,,240510_102821,DEMANDRATING,9,,,,,,,,,,,,,,,,,,,,,,,,,,,,,,,1,,,,,,,,,,,,,,,,,,,,,,,,,,,,,,,,,,,,3,Frustration,1,51,0.6141661996953189,452.2932294998318,999,999,26,Female,1,2024/05/10_10:20:29,YZ,59.937341430857714,
,,,,,240510_102824,DEMANDRATING,9,,,,,,,,,,,,,,,,,,,,,,,,,,,,,,,1,,,,,,,,,,,,,,,,,,,,,,,,,,,,,,,,,,,,4,MentalDemand,2,52,1.407054000068456,455.2451991001144,999,999,26,Female,1,2024/05/10_10:20:29,YZ,59.937341430857714,
,,,,,240510_102826,DEMANDRATING,9,,,,,,,,,,,,,,,,,,,,,,,,,,,,,,,1,,,,,,,,,,,,,,,,,,,,,,,,,,,,,,,,,,,,5,Effort,2,54,0.4286061003804207,457.2129673999734,999,999,26,Female,1,2024/05/10_10:20:29,YZ,59.937341430857714,
,,,,,240510_102829,DEMANDRATING,9,,,,,,,,,,,,,,,,,,,,,,,,,,,,,,,1,,,,,,,,,,,,,,,,,,,,,,,,,,,,,,,,,,,,6,Frustration,2,55,1.2440873999148607,459.9819431998767,999,999,26,Female,1,2024/05/10_10:20:29,YZ,59.937341430857714,
,,,,,240510_102831,DEMANDRATING,9,,,,,,,,,,,,,,,,,,,,,,,,,,,,,,,1,,,,,,,,,,,,,,,,,,,,,,,,,,,,,,,,,,,,7,MentalDemand,3,74,0.4078247002325952,461.9330826997757,999,999,26,Female,1,2024/05/10_10:20:29,YZ,59.937341430857714,
,,,,,240510_102833,DEMANDRATING,9,,,,,,,,,,,,,,,,,,,,,,,,,,,,,,,1,,,,,,,,,,,,,,,,,,,,,,,,,,,,,,,,,,,,8,Effort,3,76,0.5236794003285468,463.96772120008245,999,999,26,Female,1,2024/05/10_10:20:29,YZ,59.937341430857714,
,,,,,240510_102835,DEMANDRATING,9,,,,,,,,,,,,,,,,,,,,,,,,,,,,,,,1,,,,,,,,,,,,,,,,,,,,,,,,,,,,,,,,,,,,9,Frustration,3,76,0.4235788998194039,465.9188588997349,999,999,26,Female,1,2024/05/10_10:20:29,YZ,59.937341430857714,
1,.\instructions\inst_end\Slide1.png,right,0.9799620001576841,468.9849430997856,469.9649050999433,,,,,,,,,,,,,,,,,,,,,,,,,,,,,,,,,1,,,,,,,,,,,,,,,,,,,,,,,,,,,,,,,,,,,,,,,,,,999,999,26,Female,1,2024/05/10_10:20:29,YZ,59.937341430857714,
