Instruction,Stimulus,Key,RT,START,END,Phase,Block,TrialN,NbackLevel,ISI,LetterN,Letter,Letter_isSame,Letter_Resp,Letter_RT,Letter_Accuracy,Letter_Timeout,Trial_A_measure,Trial_HR,Trial_FAR,Trial_CDR,Trial_MSR,Trial_ACC,Trial_RT,Trial_HitsCount,Trial_FAsCount,Trial_SameNoRespCount,Trial_DiffNoRespCount,Trial_NoRespCount,Trial_CDsCount,Trial_CorrectRespCount,Trial_SameLetterCount,Trial_DiffLetterCount,Trial_InvalidLetterCount,TrialCountCali,CaliEnd_A_measure,ISI_calibrated,Run,TrialIndex,TrialNumber_total,TrialNumber_valid,CueLearning,TrialDemandLearning,CueMapping,OnlineRating,OnlineRatingRT,OnlineRatingTimeOut,CueSTART,RatingSTART,OfflineRatingTimePoint,OfflineRatingQuesIndex,CueFigure,TrialDemand,OfflineRating,OfflineRatingRT,CueStart,OfflineRatingStart,PhaseType,CueLeft,CueDemandLeft,CueRight,CueDemandRight,Choice,ChoiceDemand,TaskDemand,ChoiceRT,ChoiceTimeOut,ChoiceSTART,CueCheck,CueDemandCheck,CorrectAnswer,Answer,AnswerDemand,AnswerRT,AnswerACC,AnswerTimeOut,CheckSTART,DemandRatingQuesIndex,QuesTLX,DemandLevel,DemandRating,DemandRatingRT,QuesStart,PID,SONA,Age,Gender,Run,TIME,EXPERIMENTER,frameRate,
1,./instructions/inst_begin/Slide2.png,right,51.24482248100685,0.22905372000241186,51.47387620100926,,,,,,,,,,,,,,,,,,,,,,,,,,,,,,,,,1,,,,,,,,,,,,,,,,,,,,,,,,,,,,,,,,,,,,,,,,,,,,,,54,159001,22,Male,1,2024/02/13_16:07:21,YZ,60.15377240986091,
2,./instructions/inst_begin/Slide3.png,right,13.430709660999128,51.515715489003924,64.94642515000305,,,,,,,,,,,,,,,,,,,,,,,,,,,,,,,,,1,,,,,,,,,,,,,,,,,,,,,,,,,,,,,,,,,,,,,,,,,,,,,,54,159001,22,Male,1,2024/02/13_16:07:21,YZ,60.15377240986091,
3,./instructions/inst_begin/Slide4.png,right,10.536082497012103,64.98571089199686,75.52179338900896,,,,,,,,,,,,,,,,,,,,,,,,,,,,,,,,,1,,,,,,,,,,,,,,,,,,,,,,,,,,,,,,,,,,,,,,,,,,,,,,54,159001,22,Male,1,2024/02/13_16:07:21,YZ,60.15377240986091,
1,./instructions/inst_prac_2/Slide6.png,right,15.842864450998604,75.59115783000016,91.43402228099876,,,,,,,,,,,,,,,,,,,,,,,,,,,,,,,,,1,,,,,,,,,,,,,,,,,,,,,,,,,,,,,,,,,,,,,,,,,,,,,,54,159001,22,Male,1,2024/02/13_16:07:21,YZ,60.15377240986091,
2,./instructions/inst_prac_2/Slide7.png,right,19.31379395299882,91.4720323549991,110.78582630799792,,,,,,,,,,,,,,,,,,,,,,,,,,,,,,,,,1,,,,,,,,,,,,,,,,,,,,,,,,,,,,,,,,,,,,,,,,,,,,,,54,159001,22,Male,1,2024/02/13_16:07:21,YZ,60.15377240986091,
3,./instructions/inst_prac_2/Slide8.png,right,15.52771565799776,110.82625225400261,126.35396791200037,,,,,,,,,,,,,,,,,,,,,,,,,,,,,,,,,1,,,,,,,,,,,,,,,,,,,,,,,,,,,,,,,,,,,,,,,,,,,,,,54,159001,22,Male,1,2024/02/13_16:07:21,YZ,60.15377240986091,
4,./instructions/inst_prac_2/Slide9.png,right,11.991407587003778,126.3946352089988,138.38604279600258,,,,,,,,,,,,,,,,,,,,,,,,,,,,,,,,,1,,,,,,,,,,,,,,,,,,,,,,,,,,,,,,,,,,,,,,,,,,,,,,54,159001,22,Male,1,2024/02/13_16:07:21,YZ,60.15377240986091,
5,./instructions/inst_prac_2/Slide10.png,right,4.506578562009963,138.4233186700003,142.92989723201026,,,,,,,,,,,,,,,,,,,,,,,,,,,,,,,,,1,,,,,,,,,,,,,,,,,,,,,,,,,,,,,,,,,,,,,,,,,,,,,,54,159001,22,Male,1,2024/02/13_16:07:21,YZ,60.15377240986091,
6,./instructions/inst_prac_2/Slide11.png,right,1.7755923390068347,142.970301940004,144.74589427901083,,,,,,,,,,,,,,,,,,,,,,,,,,,,,,,,,1,,,,,,,,,,,,,,,,,,,,,,,,,,,,,,,,,,,,,,,,,,,,,,54,159001,22,Male,1,2024/02/13_16:07:21,YZ,60.15377240986091,
7,./instructions/inst_prac_2/Slide12.png,right,1.0083858799916925,144.78549492600723,145.79388080599892,,,,,,,,,,,,,,,,,,,,,,,,,,,,,,,,,1,,,,,,,,,,,,,,,,,,,,,,,,,,,,,,,,,,,,,,,,,,,,,,54,159001,22,Male,1,2024/02/13_16:07:21,YZ,60.15377240986091,
8,./instructions/inst_prac_2/Slide13.png,right,1.408029534999514,145.82591070800845,147.23394024300796,,,,,,,,,,,,,,,,,,,,,,,,,,,,,,,,,1,,,,,,,,,,,,,,,,,,,,,,,,,,,,,,,,,,,,,,,,,,,,,,54,159001,22,Male,1,2024/02/13_16:07:21,YZ,60.15377240986091,
9,./instructions/inst_prac_2/Slide14.png,right,17.536102086000028,147.2737867120013,164.80988879800134,,,,,,,,,,,,,,,,,,,,,,,,,,,,,,,,,1,,,,,,,,,,,,,,,,,,,,,,,,,,,,,,,,,,,,,,,,,,,,,,54,159001,22,Male,1,2024/02/13_16:07:21,YZ,60.15377240986091,
10,./instructions/inst_prac_2/Slide15.png,right,30.3107501600025,164.85116270100116,195.16191286100366,,,,,,,,,,,,,,,,,,,,,,,,,,,,,,,,,1,,,,,,,,,,,,,,,,,,,,,,,,,,,,,,,,,,,,,,,,,,,,,,54,159001,22,Male,1,2024/02/13_16:07:21,YZ,60.15377240986091,
,,,,,,practice,0,33,2,2583,1,F,0,right,7.202017782008625,1,0,,,,,,,,,,,,,,,,,,,,,1,,,,,,,,,,,,,,,,,,,,,,,,,,,,,,,,,,,,,,,,,,,,,,54,159001,22,Male,1,2024/02/13_16:07:21,YZ,60.15377240986091,
,,,,,,practice,0,33,2,2583,2,F,0,right,1.78148444800172,1,0,,,,,,,,,,,,,,,,,,,,,1,,,,,,,,,,,,,,,,,,,,,,,,,,,,,,,,,,,,,,,,,,,,,,54,159001,22,Male,1,2024/02/13_16:07:21,YZ,60.15377240986091,
,,,,,,practice,0,33,2,2583,3,C,0,right,2.3751349369995296,1,0,,,,,,,,,,,,,,,,,,,,,1,,,,,,,,,,,,,,,,,,,,,,,,,,,,,,,,,,,,,,,,,,,,,,54,159001,22,Male,1,2024/02/13_16:07:21,YZ,60.15377240986091,
,,,,,,practice,0,33,2,2583,4,F,1,left,1.0059115629992448,1,0,,,,,,,,,,,,,,,,,,,,,1,,,,,,,,,,,,,,,,,,,,,,,,,,,,,,,,,,,,,,,,,,,,,,54,159001,22,Male,1,2024/02/13_16:07:21,YZ,60.15377240986091,
,,,,,,practice,0,33,2,2583,5,C,1,left,2.3669348880066536,1,0,,,,,,,,,,,,,,,,,,,,,1,,,,,,,,,,,,,,,,,,,,,,,,,,,,,,,,,,,,,,,,,,,,,,54,159001,22,Male,1,2024/02/13_16:07:21,YZ,60.15377240986091,
,,,,,,practice,0,33,2,2583,6,J,0,right,1.0368048419913976,1,0,,,,,,,,,,,,,,,,,,,,,1,,,,,,,,,,,,,,,,,,,,,,,,,,,,,,,,,,,,,,,,,,,,,,54,159001,22,Male,1,2024/02/13_16:07:21,YZ,60.15377240986091,
,,,,,,practice,0,33,2,2583,,,,,,,,1.0,1.0,0.0,1.0,0.0,1.0,2.6280480766678616,2,0,0,0,0,4,6,2,4,0,,,,1,,,,,,,,,,,,,,,,,,,,,,,,,,,,,,,,,,,,,,,,,,,,,,54,159001,22,Male,1,2024/02/13_16:07:21,YZ,60.15377240986091,
1,./instructions/inst_to_cali/Slide20.png,right,9.254827675002161,217.3473473930062,226.60217506800836,,,,,,,,,,,,,,,,,,,,,,,,,,,,,,,,,1,,,,,,,,,,,,,,,,,,,,,,,,,,,,,,,,,,,,,,,,,,,,,,54,159001,22,Male,1,2024/02/13_16:07:21,YZ,60.15377240986091,
1,./instructions/inst_cali/Slide22.png,right,6.337392907997128,226.6485546920012,232.98594759999833,,,,,,,,,,,,,,,,,,,,,,,,,,,,,,,,,1,,,,,,,,,,,,,,,,,,,,,,,,,,,,,,,,,,,,,,,,,,,,,,54,159001,22,Male,1,2024/02/13_16:07:21,YZ,60.15377240986091,
,,,,,,calibration,0,33,2,583,1,V,0,None,nan,0,1,,,,,,,,,,,,,,,,,,,,,1,,,,,,,,,,,,,,,,,,,,,,,,,,,,,,,,,,,,,,,,,,,,,,54,159001,22,Male,1,2024/02/13_16:07:21,YZ,60.15377240986091,
,,,,,,calibration,0,33,2,583,2,Q,0,None,nan,0,1,,,,,,,,,,,,,,,,,,,,,1,,,,,,,,,,,,,,,,,,,,,,,,,,,,,,,,,,,,,,,,,,,,,,54,159001,22,Male,1,2024/02/13_16:07:21,YZ,60.15377240986091,
,,,,,,calibration,0,33,2,583,3,C,0,None,nan,0,1,,,,,,,,,,,,,,,,,,,,,1,,,,,,,,,,,,,,,,,,,,,,,,,,,,,,,,,,,,,,,,,,,,,,54,159001,22,Male,1,2024/02/13_16:07:21,YZ,60.15377240986091,
,,,,,,calibration,0,33,2,583,4,Q,1,None,nan,0,1,,,,,,,,,,,,,,,,,,,,,1,,,,,,,,,,,,,,,,,,,,,,,,,,,,,,,,,,,,,,,,,,,,,,54,159001,22,Male,1,2024/02/13_16:07:21,YZ,60.15377240986091,
,,,,,,calibration,0,33,2,583,5,F,0,None,nan,0,1,,,,,,,,,,,,,,,,,,,,,1,,,,,,,,,,,,,,,,,,,,,,,,,,,,,,,,,,,,,,,,,,,,,,54,159001,22,Male,1,2024/02/13_16:07:21,YZ,60.15377240986091,
,,,,,,calibration,0,33,2,583,6,X,0,None,nan,0,1,,,,,,,,,,,,,,,,,,,,,1,,,,,,,,,,,,,,,,,,,,,,,,,,,,,,,,,,,,,,,,,,,,,,54,159001,22,Male,1,2024/02/13_16:07:21,YZ,60.15377240986091,
,,,,,,calibration,0,33,2,583,7,F,1,left,1.1969662940100534,1,0,,,,,,,,,,,,,,,,,,,,,1,,,,,,,,,,,,,,,,,,,,,,,,,,,,,,,,,,,,,,,,,,,,,,54,159001,22,Male,1,2024/02/13_16:07:21,YZ,60.15377240986091,
,,,,,,calibration,0,33,2,583,8,C,0,right,0.5773209079925437,1,0,,,,,,,,,,,,,,,,,,,,,1,,,,,,,,,,,,,,,,,,,,,,,,,,,,,,,,,,,,,,,,,,,,,,54,159001,22,Male,1,2024/02/13_16:07:21,YZ,60.15377240986091,
,,,,,,calibration,0,33,2,583,9,X,0,right,nan,0,1,,,,,,,,,,,,,,,,,,,,,1,,,,,,,,,,,,,,,,,,,,,,,,,,,,,,,,,,,,,,,,,,,,,,54,159001,22,Male,1,2024/02/13_16:07:21,YZ,60.15377240986091,
,,,,,,calibration,0,33,2,583,10,Q,0,right,nan,0,1,,,,,,,,,,,,,,,,,,,,,1,,,,,,,,,,,,,,,,,,,,,,,,,,,,,,,,,,,,,,,,,,,,,,54,159001,22,Male,1,2024/02/13_16:07:21,YZ,60.15377240986091,
,,,,,,calibration,0,33,2,583,11,V,0,right,nan,0,1,,,,,,,,,,,,,,,,,,,,,1,,,,,,,,,,,,,,,,,,,,,,,,,,,,,,,,,,,,,,,,,,,,,,54,159001,22,Male,1,2024/02/13_16:07:21,YZ,60.15377240986091,
,,,,,,calibration,0,33,2,583,12,F,0,right,nan,0,1,,,,,,,,,,,,,,,,,,,,,1,,,,,,,,,,,,,,,,,,,,,,,,,,,,,,,,,,,,,,,,,,,,,,54,159001,22,Male,1,2024/02/13_16:07:21,YZ,60.15377240986091,
,,,,,,calibration,0,33,2,583,13,V,1,right,nan,0,1,,,,,,,,,,,,,,,,,,,,,1,,,,,,,,,,,,,,,,,,,,,,,,,,,,,,,,,,,,,,,,,,,,,,54,159001,22,Male,1,2024/02/13_16:07:21,YZ,60.15377240986091,
,,,,,,calibration,0,33,2,583,14,J,0,right,nan,0,1,,,,,,,,,,,,,,,,,,,,,1,,,,,,,,,,,,,,,,,,,,,,,,,,,,,,,,,,,,,,,,,,,,,,54,159001,22,Male,1,2024/02/13_16:07:21,YZ,60.15377240986091,
,,,,,,calibration,0,33,2,583,15,V,1,right,0.35203688498586416,0,0,,,,,,,,,,,,,,,,,,,,,1,,,,,,,,,,,,,,,,,,,,,,,,,,,,,,,,,,,,,,,,,,,,,,54,159001,22,Male,1,2024/02/13_16:07:21,YZ,60.15377240986091,
,,,,,,calibration,0,33,2,583,,,,,,,,0.8125,0.25,0.0,1.0,0.8,0.19999999999999996,0.7087746956628204,1,0,2,10,12,1,2,4,11,0,,,,1,,,,,,,,,,,,,,,,,,,,,,,,,,,,,,,,,,,,,,,,,,,,,,54,159001,22,Male,1,2024/02/13_16:07:21,YZ,60.15377240986091,
,,,,,,Calibration,0,,2,583,,,,,,,,,,,,,,,,,,,,,,,,,1,,,1,,,,,,,,,,,,,,,,,,,,,,,,,,,,,,,,,,,,,,,,,,,,,,54,159001,22,Male,1,2024/02/13_16:07:21,YZ,60.15377240986091,
,,,,,,calibration,0,12,2,583,1,F,0,right,1.5856780559988692,1,0,,,,,,,,,,,,,,,,,,,,,1,,,,,,,,,,,,,,,,,,,,,,,,,,,,,,,,,,,,,,,,,,,,,,54,159001,22,Male,1,2024/02/13_16:07:21,YZ,60.15377240986091,
,,,,,,calibration,0,12,2,583,2,X,0,right,1.3976371149910847,1,0,,,,,,,,,,,,,,,,,,,,,1,,,,,,,,,,,,,,,,,,,,,,,,,,,,,,,,,,,,,,,,,,,,,,54,159001,22,Male,1,2024/02/13_16:07:21,YZ,60.15377240986091,
,,,,,,calibration,0,12,2,583,3,F,1,left,0.9117856310040224,1,0,,,,,,,,,,,,,,,,,,,,,1,,,,,,,,,,,,,,,,,,,,,,,,,,,,,,,,,,,,,,,,,,,,,,54,159001,22,Male,1,2024/02/13_16:07:21,YZ,60.15377240986091,
,,,,,,calibration,0,12,2,583,4,X,1,right,0.545085959995049,0,0,,,,,,,,,,,,,,,,,,,,,1,,,,,,,,,,,,,,,,,,,,,,,,,,,,,,,,,,,,,,,,,,,,,,54,159001,22,Male,1,2024/02/13_16:07:21,YZ,60.15377240986091,
,,,,,,calibration,0,12,2,583,5,S,0,right,1.6134890170069411,1,0,,,,,,,,,,,,,,,,,,,,,1,,,,,,,,,,,,,,,,,,,,,,,,,,,,,,,,,,,,,,,,,,,,,,54,159001,22,Male,1,2024/02/13_16:07:21,YZ,60.15377240986091,
,,,,,,calibration,0,12,2,583,6,X,1,left,0.9141896029905183,1,0,,,,,,,,,,,,,,,,,,,,,1,,,,,,,,,,,,,,,,,,,,,,,,,,,,,,,,,,,,,,,,,,,,,,54,159001,22,Male,1,2024/02/13_16:07:21,YZ,60.15377240986091,
,,,,,,calibration,0,12,2,583,7,V,0,left,nan,0,1,,,,,,,,,,,,,,,,,,,,,1,,,,,,,,,,,,,,,,,,,,,,,,,,,,,,,,,,,,,,,,,,,,,,54,159001,22,Male,1,2024/02/13_16:07:21,YZ,60.15377240986091,
,,,,,,calibration,0,12,2,583,8,X,1,right,1.4639082200010307,0,0,,,,,,,,,,,,,,,,,,,,,1,,,,,,,,,,,,,,,,,,,,,,,,,,,,,,,,,,,,,,,,,,,,,,54,159001,22,Male,1,2024/02/13_16:07:21,YZ,60.15377240986091,
,,,,,,calibration,0,12,2,583,9,S,0,left,1.028092843000195,0,0,,,,,,,,,,,,,,,,,,,,,1,,,,,,,,,,,,,,,,,,,,,,,,,,,,,,,,,,,,,,,,,,,,,,54,159001,22,Male,1,2024/02/13_16:07:21,YZ,60.15377240986091,
,,,,,,calibration,0,12,2,583,10,C,0,left,1.0642847750132205,0,0,,,,,,,,,,,,,,,,,,,,,1,,,,,,,,,,,,,,,,,,,,,,,,,,,,,,,,,,,,,,,,,,,,,,54,159001,22,Male,1,2024/02/13_16:07:21,YZ,60.15377240986091,
,,,,,,calibration,0,12,2,583,11,S,1,right,1.3487117820041021,0,0,,,,,,,,,,,,,,,,,,,,,1,,,,,,,,,,,,,,,,,,,,,,,,,,,,,,,,,,,,,,,,,,,,,,54,159001,22,Male,1,2024/02/13_16:07:21,YZ,60.15377240986091,
,,,,,,calibration,0,12,2,583,12,N,0,right,0.48431723000248894,1,0,,,,,,,,,,,,,,,,,,,,,1,,,,,,,,,,,,,,,,,,,,,,,,,,,,,,,,,,,,,,,,,,,,,,54,159001,22,Male,1,2024/02/13_16:07:21,YZ,60.15377240986091,
,,,,,,calibration,0,12,2,583,13,X,0,right,0.48562152399972547,1,0,,,,,,,,,,,,,,,,,,,,,1,,,,,,,,,,,,,,,,,,,,,,,,,,,,,,,,,,,,,,,,,,,,,,54,159001,22,Male,1,2024/02/13_16:07:21,YZ,60.15377240986091,
,,,,,,calibration,0,12,2,583,14,Q,0,right,0.645591524997144,1,0,,,,,,,,,,,,,,,,,,,,,1,,,,,,,,,,,,,,,,,,,,,,,,,,,,,,,,,,,,,,,,,,,,,,54,159001,22,Male,1,2024/02/13_16:07:21,YZ,60.15377240986091,
,,,,,,calibration,0,12,2,583,15,V,0,right,0.7815187490050448,1,0,,,,,,,,,,,,,,,,,,,,,1,,,,,,,,,,,,,,,,,,,,,,,,,,,,,,,,,,,,,,,,,,,,,,54,159001,22,Male,1,2024/02/13_16:07:21,YZ,60.15377240986091,
,,,,,,calibration,0,12,2,583,,,,,,,,0.675,0.4,0.2,0.7777777777777778,0.06666666666666667,0.7333333333333334,1.0192794307149597,2,2,0,1,1,7,9,5,10,0,,,,1,,,,,,,,,,,,,,,,,,,,,,,,,,,,,,,,,,,,,,,,,,,,,,54,159001,22,Male,1,2024/02/13_16:07:21,YZ,60.15377240986091,
,,,,,,Calibration,0,,2,583,,,,,,,,,,,,,,,,,,,,,,,,,2,,,1,,,,,,,,,,,,,,,,,,,,,,,,,,,,,,,,,,,,,,,,,,,,,,54,159001,22,Male,1,2024/02/13_16:07:21,YZ,60.15377240986091,
,,,,,,calibration,0,20,2,679,1,F,0,right,1.930461075011408,1,0,,,,,,,,,,,,,,,,,,,,,1,,,,,,,,,,,,,,,,,,,,,,,,,,,,,,,,,,,,,,,,,,,,,,54,159001,22,Male,1,2024/02/13_16:07:21,YZ,60.15377240986091,
,,,,,,calibration,0,20,2,679,2,C,0,right,0.6278402899915818,1,0,,,,,,,,,,,,,,,,,,,,,1,,,,,,,,,,,,,,,,,,,,,,,,,,,,,,,,,,,,,,,,,,,,,,54,159001,22,Male,1,2024/02/13_16:07:21,YZ,60.15377240986091,
,,,,,,calibration,0,20,2,679,3,N,0,right,0.49984400399262086,1,0,,,,,,,,,,,,,,,,,,,,,1,,,,,,,,,,,,,,,,,,,,,,,,,,,,,,,,,,,,,,,,,,,,,,54,159001,22,Male,1,2024/02/13_16:07:21,YZ,60.15377240986091,
,,,,,,calibration,0,20,2,679,4,C,1,left,0.6493108060094528,1,0,,,,,,,,,,,,,,,,,,,,,1,,,,,,,,,,,,,,,,,,,,,,,,,,,,,,,,,,,,,,,,,,,,,,54,159001,22,Male,1,2024/02/13_16:07:21,YZ,60.15377240986091,
,,,,,,calibration,0,20,2,679,5,S,0,right,0.5643507370114094,1,0,,,,,,,,,,,,,,,,,,,,,1,,,,,,,,,,,,,,,,,,,,,,,,,,,,,,,,,,,,,,,,,,,,,,54,159001,22,Male,1,2024/02/13_16:07:21,YZ,60.15377240986091,
,,,,,,calibration,0,20,2,679,6,C,1,right,0.4596782330045244,0,0,,,,,,,,,,,,,,,,,,,,,1,,,,,,,,,,,,,,,,,,,,,,,,,,,,,,,,,,,,,,,,,,,,,,54,159001,22,Male,1,2024/02/13_16:07:21,YZ,60.15377240986091,
,,,,,,calibration,0,20,2,679,7,N,0,right,0.4425468730041757,1,0,,,,,,,,,,,,,,,,,,,,,1,,,,,,,,,,,,,,,,,,,,,,,,,,,,,,,,,,,,,,,,,,,,,,54,159001,22,Male,1,2024/02/13_16:07:21,YZ,60.15377240986091,
,,,,,,calibration,0,20,2,679,8,C,1,left,0.6304510050104,1,0,,,,,,,,,,,,,,,,,,,,,1,,,,,,,,,,,,,,,,,,,,,,,,,,,,,,,,,,,,,,,,,,,,,,54,159001,22,Male,1,2024/02/13_16:07:21,YZ,60.15377240986091,
,,,,,,calibration,0,20,2,679,9,Q,0,right,0.608964287006529,1,0,,,,,,,,,,,,,,,,,,,,,1,,,,,,,,,,,,,,,,,,,,,,,,,,,,,,,,,,,,,,,,,,,,,,54,159001,22,Male,1,2024/02/13_16:07:21,YZ,60.15377240986091,
,,,,,,calibration,0,20,2,679,10,F,0,right,0.4803466409939574,1,0,,,,,,,,,,,,,,,,,,,,,1,,,,,,,,,,,,,,,,,,,,,,,,,,,,,,,,,,,,,,,,,,,,,,54,159001,22,Male,1,2024/02/13_16:07:21,YZ,60.15377240986091,
,,,,,,calibration,0,20,2,679,11,Q,1,left,0.5891668870026479,1,0,,,,,,,,,,,,,,,,,,,,,1,,,,,,,,,,,,,,,,,,,,,,,,,,,,,,,,,,,,,,,,,,,,,,54,159001,22,Male,1,2024/02/13_16:07:21,YZ,60.15377240986091,
,,,,,,calibration,0,20,2,679,12,C,0,right,0.38253824399726,1,0,,,,,,,,,,,,,,,,,,,,,1,,,,,,,,,,,,,,,,,,,,,,,,,,,,,,,,,,,,,,,,,,,,,,54,159001,22,Male,1,2024/02/13_16:07:21,YZ,60.15377240986091,
,,,,,,calibration,0,20,2,679,13,V,0,right,0.4285591160005424,1,0,,,,,,,,,,,,,,,,,,,,,1,,,,,,,,,,,,,,,,,,,,,,,,,,,,,,,,,,,,,,,,,,,,,,54,159001,22,Male,1,2024/02/13_16:07:21,YZ,60.15377240986091,
,,,,,,calibration,0,20,2,679,14,J,0,right,0.49824077100493014,1,0,,,,,,,,,,,,,,,,,,,,,1,,,,,,,,,,,,,,,,,,,,,,,,,,,,,,,,,,,,,,,,,,,,,,54,159001,22,Male,1,2024/02/13_16:07:21,YZ,60.15377240986091,
,,,,,,calibration,0,20,2,679,,,,,,,,0.9375,0.75,0.0,1.0,0.0,1.0,0.6280213549315314,3,0,0,0,0,10,13,4,10,0,,,,1,,,,,,,,,,,,,,,,,,,,,,,,,,,,,,,,,,,,,,,,,,,,,,54,159001,22,Male,1,2024/02/13_16:07:21,YZ,60.15377240986091,
,,,,,,Calibration,0,,2,679,,,,,,,,,,,,,,,,,,,,,,,,,3,,,1,,,,,,,,,,,,,,,,,,,,,,,,,,,,,,,,,,,,,,,,,,,,,,54,159001,22,Male,1,2024/02/13_16:07:21,YZ,60.15377240986091,
,,,,,,calibration,0,29,2,583,1,X,0,None,nan,0,1,,,,,,,,,,,,,,,,,,,,,1,,,,,,,,,,,,,,,,,,,,,,,,,,,,,,,,,,,,,,,,,,,,,,54,159001,22,Male,1,2024/02/13_16:07:21,YZ,60.15377240986091,
,,,,,,calibration,0,29,2,583,2,Q,0,right,0.880656260997057,1,0,,,,,,,,,,,,,,,,,,,,,1,,,,,,,,,,,,,,,,,,,,,,,,,,,,,,,,,,,,,,,,,,,,,,54,159001,22,Male,1,2024/02/13_16:07:21,YZ,60.15377240986091,
,,,,,,calibration,0,29,2,583,3,F,0,right,0.4326367009925889,1,0,,,,,,,,,,,,,,,,,,,,,1,,,,,,,,,,,,,,,,,,,,,,,,,,,,,,,,,,,,,,,,,,,,,,54,159001,22,Male,1,2024/02/13_16:07:21,YZ,60.15377240986091,
,,,,,,calibration,0,29,2,583,4,Q,1,left,0.4449518019973766,1,0,,,,,,,,,,,,,,,,,,,,,1,,,,,,,,,,,,,,,,,,,,,,,,,,,,,,,,,,,,,,,,,,,,,,54,159001,22,Male,1,2024/02/13_16:07:21,YZ,60.15377240986091,
,,,,,,calibration,0,29,2,583,5,N,0,right,0.4266433810116723,1,0,,,,,,,,,,,,,,,,,,,,,1,,,,,,,,,,,,,,,,,,,,,,,,,,,,,,,,,,,,,,,,,,,,,,54,159001,22,Male,1,2024/02/13_16:07:21,YZ,60.15377240986091,
,,,,,,calibration,0,29,2,583,6,S,0,right,0.4343549690092914,1,0,,,,,,,,,,,,,,,,,,,,,1,,,,,,,,,,,,,,,,,,,,,,,,,,,,,,,,,,,,,,,,,,,,,,54,159001,22,Male,1,2024/02/13_16:07:21,YZ,60.15377240986091,
,,,,,,calibration,0,29,2,583,7,N,1,right,0.3896075670054415,0,0,,,,,,,,,,,,,,,,,,,,,1,,,,,,,,,,,,,,,,,,,,,,,,,,,,,,,,,,,,,,,,,,,,,,54,159001,22,Male,1,2024/02/13_16:07:21,YZ,60.15377240986091,
,,,,,,calibration,0,29,2,583,8,Q,0,left,0.5131634899880737,0,0,,,,,,,,,,,,,,,,,,,,,1,,,,,,,,,,,,,,,,,,,,,,,,,,,,,,,,,,,,,,,,,,,,,,54,159001,22,Male,1,2024/02/13_16:07:21,YZ,60.15377240986091,
,,,,,,calibration,0,29,2,583,9,V,0,right,0.29814656400412787,1,0,,,,,,,,,,,,,,,,,,,,,1,,,,,,,,,,,,,,,,,,,,,,,,,,,,,,,,,,,,,,,,,,,,,,54,159001,22,Male,1,2024/02/13_16:07:21,YZ,60.15377240986091,
,,,,,,calibration,0,29,2,583,10,N,0,right,0.2370731350092683,1,0,,,,,,,,,,,,,,,,,,,,,1,,,,,,,,,,,,,,,,,,,,,,,,,,,,,,,,,,,,,,,,,,,,,,54,159001,22,Male,1,2024/02/13_16:07:21,YZ,60.15377240986091,
,,,,,,calibration,0,29,2,583,11,V,1,left,0.14105776700307615,1,0,,,,,,,,,,,,,,,,,,,,,1,,,,,,,,,,,,,,,,,,,,,,,,,,,,,,,,,,,,,,,,,,,,,,54,159001,22,Male,1,2024/02/13_16:07:21,YZ,60.15377240986091,
,,,,,,calibration,0,29,2,583,12,X,0,right,0.19843527999182697,1,0,,,,,,,,,,,,,,,,,,,,,1,,,,,,,,,,,,,,,,,,,,,,,,,,,,,,,,,,,,,,,,,,,,,,54,159001,22,Male,1,2024/02/13_16:07:21,YZ,60.15377240986091,
,,,,,,calibration,0,29,2,583,13,C,0,right,0.20428296200407203,1,0,,,,,,,,,,,,,,,,,,,,,1,,,,,,,,,,,,,,,,,,,,,,,,,,,,,,,,,,,,,,,,,,,,,,54,159001,22,Male,1,2024/02/13_16:07:21,YZ,60.15377240986091,
,,,,,,calibration,0,29,2,583,14,X,1,left,0.5459034209925449,1,0,,,,,,,,,,,,,,,,,,,,,1,,,,,,,,,,,,,,,,,,,,,,,,,,,,,,,,,,,,,,,,,,,,,,54,159001,22,Male,1,2024/02/13_16:07:21,YZ,60.15377240986091,
,,,,,,calibration,0,29,2,583,15,V,0,right,0.41831716199521907,1,0,,,,,,,,,,,,,,,,,,,,,1,,,,,,,,,,,,,,,,,,,,,,,,,,,,,,,,,,,,,,,,,,,,,,54,159001,22,Male,1,2024/02/13_16:07:21,YZ,60.15377240986091,
,,,,,,calibration,0,29,2,583,,,,,,,,0.8920454545454546,0.75,0.09090909090909091,0.9,0.06666666666666667,0.8424242424242424,0.39751646157154547,3,1,0,1,1,9,12,4,11,0,,,,1,,,,,,,,,,,,,,,,,,,,,,,,,,,,,,,,,,,,,,,,,,,,,,54,159001,22,Male,1,2024/02/13_16:07:21,YZ,60.15377240986091,
,,,,,,Calibration,0,,2,583,,,,,,,,,,,,,,,,,,,,,,,,,4,,,1,,,,,,,,,,,,,,,,,,,,,,,,,,,,,,,,,,,,,,,,,,,,,,54,159001,22,Male,1,2024/02/13_16:07:21,YZ,60.15377240986091,
,,,,,,calibration,0,19,2,500,1,V,0,right,0.3965310259955004,1,0,,,,,,,,,,,,,,,,,,,,,1,,,,,,,,,,,,,,,,,,,,,,,,,,,,,,,,,,,,,,,,,,,,,,54,159001,22,Male,1,2024/02/13_16:07:21,YZ,60.15377240986091,
,,,,,,calibration,0,19,2,500,2,S,0,right,0.4061065529967891,1,0,,,,,,,,,,,,,,,,,,,,,1,,,,,,,,,,,,,,,,,,,,,,,,,,,,,,,,,,,,,,,,,,,,,,54,159001,22,Male,1,2024/02/13_16:07:21,YZ,60.15377240986091,
,,,,,,calibration,0,19,2,500,3,N,0,right,0.4294675660057692,1,0,,,,,,,,,,,,,,,,,,,,,1,,,,,,,,,,,,,,,,,,,,,,,,,,,,,,,,,,,,,,,,,,,,,,54,159001,22,Male,1,2024/02/13_16:07:21,YZ,60.15377240986091,
,,,,,,calibration,0,19,2,500,4,S,1,left,0.6333924819919048,1,0,,,,,,,,,,,,,,,,,,,,,1,,,,,,,,,,,,,,,,,,,,,,,,,,,,,,,,,,,,,,,,,,,,,,54,159001,22,Male,1,2024/02/13_16:07:21,YZ,60.15377240986091,
,,,,,,calibration,0,19,2,500,5,N,1,right,0.23415705899242312,0,0,,,,,,,,,,,,,,,,,,,,,1,,,,,,,,,,,,,,,,,,,,,,,,,,,,,,,,,,,,,,,,,,,,,,54,159001,22,Male,1,2024/02/13_16:07:21,YZ,60.15377240986091,
,,,,,,calibration,0,19,2,500,6,C,0,left,0.12534280100953765,0,0,,,,,,,,,,,,,,,,,,,,,1,,,,,,,,,,,,,,,,,,,,,,,,,,,,,,,,,,,,,,,,,,,,,,54,159001,22,Male,1,2024/02/13_16:07:21,YZ,60.15377240986091,
,,,,,,calibration,0,19,2,500,7,Q,0,right,0.11033723800210282,1,0,,,,,,,,,,,,,,,,,,,,,1,,,,,,,,,,,,,,,,,,,,,,,,,,,,,,,,,,,,,,,,,,,,,,54,159001,22,Male,1,2024/02/13_16:07:21,YZ,60.15377240986091,
,,,,,,calibration,0,19,2,500,8,V,0,right,0.2505307430110406,1,0,,,,,,,,,,,,,,,,,,,,,1,,,,,,,,,,,,,,,,,,,,,,,,,,,,,,,,,,,,,,,,,,,,,,54,159001,22,Male,1,2024/02/13_16:07:21,YZ,60.15377240986091,
,,,,,,calibration,0,19,2,500,9,Q,1,right,0.21353501599514857,0,0,,,,,,,,,,,,,,,,,,,,,1,,,,,,,,,,,,,,,,,,,,,,,,,,,,,,,,,,,,,,,,,,,,,,54,159001,22,Male,1,2024/02/13_16:07:21,YZ,60.15377240986091,
,,,,,,calibration,0,19,2,500,10,J,0,right,0.5691754970030161,1,0,,,,,,,,,,,,,,,,,,,,,1,,,,,,,,,,,,,,,,,,,,,,,,,,,,,,,,,,,,,,,,,,,,,,54,159001,22,Male,1,2024/02/13_16:07:21,YZ,60.15377240986091,
,,,,,,calibration,0,19,2,500,11,C,0,left,0.2666784580069361,0,0,,,,,,,,,,,,,,,,,,,,,1,,,,,,,,,,,,,,,,,,,,,,,,,,,,,,,,,,,,,,,,,,,,,,54,159001,22,Male,1,2024/02/13_16:07:21,YZ,60.15377240986091,
,,,,,,calibration,0,19,2,500,12,J,1,right,0.535436625010334,0,0,,,,,,,,,,,,,,,,,,,,,1,,,,,,,,,,,,,,,,,,,,,,,,,,,,,,,,,,,,,,,,,,,,,,54,159001,22,Male,1,2024/02/13_16:07:21,YZ,60.15377240986091,
,,,,,,calibration,0,19,2,500,13,S,0,right,0.20423099999607075,1,0,,,,,,,,,,,,,,,,,,,,,1,,,,,,,,,,,,,,,,,,,,,,,,,,,,,,,,,,,,,,,,,,,,,,54,159001,22,Male,1,2024/02/13_16:07:21,YZ,60.15377240986091,
,,,,,,calibration,0,19,2,500,14,C,0,right,0.28640077100135386,1,0,,,,,,,,,,,,,,,,,,,,,1,,,,,,,,,,,,,,,,,,,,,,,,,,,,,,,,,,,,,,,,,,,,,,54,159001,22,Male,1,2024/02/13_16:07:21,YZ,60.15377240986091,
,,,,,,calibration,0,19,2,500,15,J,0,left,0.3746058550023008,0,0,,,,,,,,,,,,,,,,,,,,,1,,,,,,,,,,,,,,,,,,,,,,,,,,,,,,,,,,,,,,,,,,,,,,54,159001,22,Male,1,2024/02/13_16:07:21,YZ,60.15377240986091,
,,,,,,calibration,0,19,2,500,16,N,0,right,0.23411725199548528,1,0,,,,,,,,,,,,,,,,,,,,,1,,,,,,,,,,,,,,,,,,,,,,,,,,,,,,,,,,,,,,,,,,,,,,54,159001,22,Male,1,2024/02/13_16:07:21,YZ,60.15377240986091,
,,,,,,calibration,0,19,2,500,,,,,,,,0.5,0.25,0.25,0.75,0.0,0.75,0.32937787137598207,1,3,0,0,0,9,10,4,12,0,,,,1,,,,,,,,,,,,,,,,,,,,,,,,,,,,,,,,,,,,,,,,,,,,,,54,159001,22,Male,1,2024/02/13_16:07:21,YZ,60.15377240986091,
,,,,,,Calibration,0,,2,500,,,,,,,,,,,,,,,,,,,,,,,,,5,,,1,,,,,,,,,,,,,,,,,,,,,,,,,,,,,,,,,,,,,,,,,,,,,,54,159001,22,Male,1,2024/02/13_16:07:21,YZ,60.15377240986091,
,,,,,,calibration,0,18,2,583,1,X,0,right,0.3210196440049913,1,0,,,,,,,,,,,,,,,,,,,,,1,,,,,,,,,,,,,,,,,,,,,,,,,,,,,,,,,,,,,,,,,,,,,,54,159001,22,Male,1,2024/02/13_16:07:21,YZ,60.15377240986091,
,,,,,,calibration,0,18,2,583,2,C,0,right,0.27845260601316113,1,0,,,,,,,,,,,,,,,,,,,,,1,,,,,,,,,,,,,,,,,,,,,,,,,,,,,,,,,,,,,,,,,,,,,,54,159001,22,Male,1,2024/02/13_16:07:21,YZ,60.15377240986091,
,,,,,,calibration,0,18,2,583,3,S,0,right,0.46314175000588875,1,0,,,,,,,,,,,,,,,,,,,,,1,,,,,,,,,,,,,,,,,,,,,,,,,,,,,,,,,,,,,,,,,,,,,,54,159001,22,Male,1,2024/02/13_16:07:21,YZ,60.15377240986091,
,,,,,,calibration,0,18,2,583,4,V,0,right,0.42942111000593286,1,0,,,,,,,,,,,,,,,,,,,,,1,,,,,,,,,,,,,,,,,,,,,,,,,,,,,,,,,,,,,,,,,,,,,,54,159001,22,Male,1,2024/02/13_16:07:21,YZ,60.15377240986091,
,,,,,,calibration,0,18,2,583,5,X,0,right,0.487390542999492,1,0,,,,,,,,,,,,,,,,,,,,,1,,,,,,,,,,,,,,,,,,,,,,,,,,,,,,,,,,,,,,,,,,,,,,54,159001,22,Male,1,2024/02/13_16:07:21,YZ,60.15377240986091,
,,,,,,calibration,0,18,2,583,6,J,0,right,0.4385182070109295,1,0,,,,,,,,,,,,,,,,,,,,,1,,,,,,,,,,,,,,,,,,,,,,,,,,,,,,,,,,,,,,,,,,,,,,54,159001,22,Male,1,2024/02/13_16:07:21,YZ,60.15377240986091,
,,,,,,calibration,0,18,2,583,7,X,1,left,0.7076799950009445,1,0,,,,,,,,,,,,,,,,,,,,,1,,,,,,,,,,,,,,,,,,,,,,,,,,,,,,,,,,,,,,,,,,,,,,54,159001,22,Male,1,2024/02/13_16:07:21,YZ,60.15377240986091,
,,,,,,calibration,0,18,2,583,8,J,1,right,0.3711729120113887,0,0,,,,,,,,,,,,,,,,,,,,,1,,,,,,,,,,,,,,,,,,,,,,,,,,,,,,,,,,,,,,,,,,,,,,54,159001,22,Male,1,2024/02/13_16:07:21,YZ,60.15377240986091,
,,,,,,calibration,0,18,2,583,9,V,0,right,0.31768183699750807,1,0,,,,,,,,,,,,,,,,,,,,,1,,,,,,,,,,,,,,,,,,,,,,,,,,,,,,,,,,,,,,,,,,,,,,54,159001,22,Male,1,2024/02/13_16:07:21,YZ,60.15377240986091,
,,,,,,calibration,0,18,2,583,10,J,1,right,0.28365696300170384,0,0,,,,,,,,,,,,,,,,,,,,,1,,,,,,,,,,,,,,,,,,,,,,,,,,,,,,,,,,,,,,,,,,,,,,54,159001,22,Male,1,2024/02/13_16:07:21,YZ,60.15377240986091,
,,,,,,calibration,0,18,2,583,11,Q,0,left,0.15084731599199586,0,0,,,,,,,,,,,,,,,,,,,,,1,,,,,,,,,,,,,,,,,,,,,,,,,,,,,,,,,,,,,,,,,,,,,,54,159001,22,Male,1,2024/02/13_16:07:21,YZ,60.15377240986091,
,,,,,,calibration,0,18,2,583,12,F,0,right,0.18556222900224384,1,0,,,,,,,,,,,,,,,,,,,,,1,,,,,,,,,,,,,,,,,,,,,,,,,,,,,,,,,,,,,,,,,,,,,,54,159001,22,Male,1,2024/02/13_16:07:21,YZ,60.15377240986091,
,,,,,,calibration,0,18,2,583,13,Q,1,right,0.14194272199529223,0,0,,,,,,,,,,,,,,,,,,,,,1,,,,,,,,,,,,,,,,,,,,,,,,,,,,,,,,,,,,,,,,,,,,,,54,159001,22,Male,1,2024/02/13_16:07:21,YZ,60.15377240986091,
,,,,,,calibration,0,18,2,583,14,N,0,right,0.3758771529974183,1,0,,,,,,,,,,,,,,,,,,,,,1,,,,,,,,,,,,,,,,,,,,,,,,,,,,,,,,,,,,,,,,,,,,,,54,159001,22,Male,1,2024/02/13_16:07:21,YZ,60.15377240986091,
,,,,,,calibration,0,18,2,583,15,J,0,right,0.3784703260025708,1,0,,,,,,,,,,,,,,,,,,,,,1,,,,,,,,,,,,,,,,,,,,,,,,,,,,,,,,,,,,,,,,,,,,,,54,159001,22,Male,1,2024/02/13_16:07:21,YZ,60.15377240986091,
,,,,,,calibration,0,18,2,583,,,,,,,,0.6988636363636364,0.25,0.09090909090909091,0.9090909090909091,0.0,0.9090909090909091,0.35538902086943075,1,1,0,0,0,10,11,4,11,0,,,,1,,,,,,,,,,,,,,,,,,,,,,,,,,,,,,,,,,,,,,,,,,,,,,54,159001,22,Male,1,2024/02/13_16:07:21,YZ,60.15377240986091,
,,,,,,Calibration,0,,2,583,,,,,,,,,,,,,,,,,,,,,,,,,6,,,1,,,,,,,,,,,,,,,,,,,,,,,,,,,,,,,,,,,,,,,,,,,,,,54,159001,22,Male,1,2024/02/13_16:07:21,YZ,60.15377240986091,
,,,,,,calibration,0,35,2,679,1,N,0,right,0.37915154700749554,1,0,,,,,,,,,,,,,,,,,,,,,1,,,,,,,,,,,,,,,,,,,,,,,,,,,,,,,,,,,,,,,,,,,,,,54,159001,22,Male,1,2024/02/13_16:07:21,YZ,60.15377240986091,
,,,,,,calibration,0,35,2,679,2,J,0,right,0.32552229199791327,1,0,,,,,,,,,,,,,,,,,,,,,1,,,,,,,,,,,,,,,,,,,,,,,,,,,,,,,,,,,,,,,,,,,,,,54,159001,22,Male,1,2024/02/13_16:07:21,YZ,60.15377240986091,
,,,,,,calibration,0,35,2,679,3,X,0,right,0.5594045110046864,1,0,,,,,,,,,,,,,,,,,,,,,1,,,,,,,,,,,,,,,,,,,,,,,,,,,,,,,,,,,,,,,,,,,,,,54,159001,22,Male,1,2024/02/13_16:07:21,YZ,60.15377240986091,
,,,,,,calibration,0,35,2,679,4,C,0,left,0.5644298539991723,0,0,,,,,,,,,,,,,,,,,,,,,1,,,,,,,,,,,,,,,,,,,,,,,,,,,,,,,,,,,,,,,,,,,,,,54,159001,22,Male,1,2024/02/13_16:07:21,YZ,60.15377240986091,
,,,,,,calibration,0,35,2,679,5,V,0,right,0.3527695069933543,1,0,,,,,,,,,,,,,,,,,,,,,1,,,,,,,,,,,,,,,,,,,,,,,,,,,,,,,,,,,,,,,,,,,,,,54,159001,22,Male,1,2024/02/13_16:07:21,YZ,60.15377240986091,
,,,,,,calibration,0,35,2,679,6,N,0,right,0.3005500699946424,1,0,,,,,,,,,,,,,,,,,,,,,1,,,,,,,,,,,,,,,,,,,,,,,,,,,,,,,,,,,,,,,,,,,,,,54,159001,22,Male,1,2024/02/13_16:07:21,YZ,60.15377240986091,
,,,,,,calibration,0,35,2,679,7,V,1,right,0.47668630500265863,0,0,,,,,,,,,,,,,,,,,,,,,1,,,,,,,,,,,,,,,,,,,,,,,,,,,,,,,,,,,,,,,,,,,,,,54,159001,22,Male,1,2024/02/13_16:07:21,YZ,60.15377240986091,
,,,,,,calibration,0,35,2,679,8,N,1,left,0.35107863099256065,1,0,,,,,,,,,,,,,,,,,,,,,1,,,,,,,,,,,,,,,,,,,,,,,,,,,,,,,,,,,,,,,,,,,,,,54,159001,22,Male,1,2024/02/13_16:07:21,YZ,60.15377240986091,
,,,,,,calibration,0,35,2,679,9,J,0,right,0.27086299800430425,1,0,,,,,,,,,,,,,,,,,,,,,1,,,,,,,,,,,,,,,,,,,,,,,,,,,,,,,,,,,,,,,,,,,,,,54,159001,22,Male,1,2024/02/13_16:07:21,YZ,60.15377240986091,
,,,,,,calibration,0,35,2,679,10,C,0,right,0.35710907299653627,1,0,,,,,,,,,,,,,,,,,,,,,1,,,,,,,,,,,,,,,,,,,,,,,,,,,,,,,,,,,,,,,,,,,,,,54,159001,22,Male,1,2024/02/13_16:07:21,YZ,60.15377240986091,
,,,,,,calibration,0,35,2,679,11,V,0,right,0.3983301670086803,1,0,,,,,,,,,,,,,,,,,,,,,1,,,,,,,,,,,,,,,,,,,,,,,,,,,,,,,,,,,,,,,,,,,,,,54,159001,22,Male,1,2024/02/13_16:07:21,YZ,60.15377240986091,
,,,,,,calibration,0,35,2,679,12,Q,0,left,0.45393075700849295,0,0,,,,,,,,,,,,,,,,,,,,,1,,,,,,,,,,,,,,,,,,,,,,,,,,,,,,,,,,,,,,,,,,,,,,54,159001,22,Male,1,2024/02/13_16:07:21,YZ,60.15377240986091,
,,,,,,calibration,0,35,2,679,13,V,1,right,0.23643852799432352,0,0,,,,,,,,,,,,,,,,,,,,,1,,,,,,,,,,,,,,,,,,,,,,,,,,,,,,,,,,,,,,,,,,,,,,54,159001,22,Male,1,2024/02/13_16:07:21,YZ,60.15377240986091,
,,,,,,calibration,0,35,2,679,14,Q,1,right,0.4358583819994237,0,0,,,,,,,,,,,,,,,,,,,,,1,,,,,,,,,,,,,,,,,,,,,,,,,,,,,,,,,,,,,,,,,,,,,,54,159001,22,Male,1,2024/02/13_16:07:21,YZ,60.15377240986091,
,,,,,,calibration,0,35,2,679,,,,,,,,0.5625,0.25,0.2,0.8,0.0,0.8,0.390151615857446,1,2,0,0,0,8,9,4,10,0,,,,1,,,,,,,,,,,,,,,,,,,,,,,,,,,,,,,,,,,,,,,,,,,,,,54,159001,22,Male,1,2024/02/13_16:07:21,YZ,60.15377240986091,
,,,,,,Calibration,0,,2,679,,,,,,,,,,,,,,,,,,,,,,,,,7,,,1,,,,,,,,,,,,,,,,,,,,,,,,,,,,,,,,,,,,,,,,,,,,,,54,159001,22,Male,1,2024/02/13_16:07:21,YZ,60.15377240986091,
,,,,,,calibration,0,26,2,788,1,C,0,right,0.46503166601178236,1,0,,,,,,,,,,,,,,,,,,,,,1,,,,,,,,,,,,,,,,,,,,,,,,,,,,,,,,,,,,,,,,,,,,,,54,159001,22,Male,1,2024/02/13_16:07:21,YZ,60.15377240986091,
,,,,,,calibration,0,26,2,788,2,Q,0,right,0.2591783630050486,1,0,,,,,,,,,,,,,,,,,,,,,1,,,,,,,,,,,,,,,,,,,,,,,,,,,,,,,,,,,,,,,,,,,,,,54,159001,22,Male,1,2024/02/13_16:07:21,YZ,60.15377240986091,
,,,,,,calibration,0,26,2,788,3,C,1,left,0.6427035380038433,1,0,,,,,,,,,,,,,,,,,,,,,1,,,,,,,,,,,,,,,,,,,,,,,,,,,,,,,,,,,,,,,,,,,,,,54,159001,22,Male,1,2024/02/13_16:07:21,YZ,60.15377240986091,
,,,,,,calibration,0,26,2,788,4,F,0,right,0.26653525700385217,1,0,,,,,,,,,,,,,,,,,,,,,1,,,,,,,,,,,,,,,,,,,,,,,,,,,,,,,,,,,,,,,,,,,,,,54,159001,22,Male,1,2024/02/13_16:07:21,YZ,60.15377240986091,
,,,,,,calibration,0,26,2,788,5,C,1,right,0.3165536919987062,0,0,,,,,,,,,,,,,,,,,,,,,1,,,,,,,,,,,,,,,,,,,,,,,,,,,,,,,,,,,,,,,,,,,,,,54,159001,22,Male,1,2024/02/13_16:07:21,YZ,60.15377240986091,
,,,,,,calibration,0,26,2,788,6,F,1,left,0.33279855200089514,1,0,,,,,,,,,,,,,,,,,,,,,1,,,,,,,,,,,,,,,,,,,,,,,,,,,,,,,,,,,,,,,,,,,,,,54,159001,22,Male,1,2024/02/13_16:07:21,YZ,60.15377240986091,
,,,,,,calibration,0,26,2,788,7,X,0,right,0.4487970600021072,1,0,,,,,,,,,,,,,,,,,,,,,1,,,,,,,,,,,,,,,,,,,,,,,,,,,,,,,,,,,,,,,,,,,,,,54,159001,22,Male,1,2024/02/13_16:07:21,YZ,60.15377240986091,
,,,,,,calibration,0,26,2,788,8,V,0,right,0.5238695840089349,1,0,,,,,,,,,,,,,,,,,,,,,1,,,,,,,,,,,,,,,,,,,,,,,,,,,,,,,,,,,,,,,,,,,,,,54,159001,22,Male,1,2024/02/13_16:07:21,YZ,60.15377240986091,
,,,,,,calibration,0,26,2,788,9,C,0,left,0.21062429100857116,0,0,,,,,,,,,,,,,,,,,,,,,1,,,,,,,,,,,,,,,,,,,,,,,,,,,,,,,,,,,,,,,,,,,,,,54,159001,22,Male,1,2024/02/13_16:07:21,YZ,60.15377240986091,
,,,,,,calibration,0,26,2,788,10,X,0,right,0.2696071509999456,1,0,,,,,,,,,,,,,,,,,,,,,1,,,,,,,,,,,,,,,,,,,,,,,,,,,,,,,,,,,,,,,,,,,,,,54,159001,22,Male,1,2024/02/13_16:07:21,YZ,60.15377240986091,
,,,,,,calibration,0,26,2,788,11,S,0,right,0.14194335600768682,1,0,,,,,,,,,,,,,,,,,,,,,1,,,,,,,,,,,,,,,,,,,,,,,,,,,,,,,,,,,,,,,,,,,,,,54,159001,22,Male,1,2024/02/13_16:07:21,YZ,60.15377240986091,
,,,,,,calibration,0,26,2,788,12,F,0,right,0.23996090899163391,1,0,,,,,,,,,,,,,,,,,,,,,1,,,,,,,,,,,,,,,,,,,,,,,,,,,,,,,,,,,,,,,,,,,,,,54,159001,22,Male,1,2024/02/13_16:07:21,YZ,60.15377240986091,
,,,,,,calibration,0,26,2,788,13,S,1,left,0.24216994899325073,1,0,,,,,,,,,,,,,,,,,,,,,1,,,,,,,,,,,,,,,,,,,,,,,,,,,,,,,,,,,,,,,,,,,,,,54,159001,22,Male,1,2024/02/13_16:07:21,YZ,60.15377240986091,
,,,,,,calibration,0,26,2,788,,,,,,,,0.8819444444444444,0.75,0.1111111111111111,0.8888888888888888,0.0,0.8888888888888888,0.33536718215663525,3,1,0,0,0,8,11,4,9,0,,,,1,,,,,,,,,,,,,,,,,,,,,,,,,,,,,,,,,,,,,,,,,,,,,,54,159001,22,Male,1,2024/02/13_16:07:21,YZ,60.15377240986091,
,,,,,,Calibration,0,,2,788,,,,,,,,,,,,,,,,,,,,,,,,,8,,,1,,,,,,,,,,,,,,,,,,,,,,,,,,,,,,,,,,,,,,,,,,,,,,54,159001,22,Male,1,2024/02/13_16:07:21,YZ,60.15377240986091,
,,,,,,calibration,0,5,2,679,1,N,0,right,0.25289168299059384,1,0,,,,,,,,,,,,,,,,,,,,,1,,,,,,,,,,,,,,,,,,,,,,,,,,,,,,,,,,,,,,,,,,,,,,54,159001,22,Male,1,2024/02/13_16:07:21,YZ,60.15377240986091,
,,,,,,calibration,0,5,2,679,2,Q,0,right,0.22107294999295846,1,0,,,,,,,,,,,,,,,,,,,,,1,,,,,,,,,,,,,,,,,,,,,,,,,,,,,,,,,,,,,,,,,,,,,,54,159001,22,Male,1,2024/02/13_16:07:21,YZ,60.15377240986091,
,,,,,,calibration,0,5,2,679,3,X,0,left,0.2061775710026268,0,0,,,,,,,,,,,,,,,,,,,,,1,,,,,,,,,,,,,,,,,,,,,,,,,,,,,,,,,,,,,,,,,,,,,,54,159001,22,Male,1,2024/02/13_16:07:21,YZ,60.15377240986091,
,,,,,,calibration,0,5,2,679,4,Q,1,right,0.09449738000694197,0,0,,,,,,,,,,,,,,,,,,,,,1,,,,,,,,,,,,,,,,,,,,,,,,,,,,,,,,,,,,,,,,,,,,,,54,159001,22,Male,1,2024/02/13_16:07:21,YZ,60.15377240986091,
,,,,,,calibration,0,5,2,679,5,J,0,right,0.15091256798768882,1,0,,,,,,,,,,,,,,,,,,,,,1,,,,,,,,,,,,,,,,,,,,,,,,,,,,,,,,,,,,,,,,,,,,,,54,159001,22,Male,1,2024/02/13_16:07:21,YZ,60.15377240986091,
,,,,,,calibration,0,5,2,679,6,Q,1,right,0.11328786899684928,0,0,,,,,,,,,,,,,,,,,,,,,1,,,,,,,,,,,,,,,,,,,,,,,,,,,,,,,,,,,,,,,,,,,,,,54,159001,22,Male,1,2024/02/13_16:07:21,YZ,60.15377240986091,
,,,,,,calibration,0,5,2,679,7,J,1,right,0.14117667698883452,0,0,,,,,,,,,,,,,,,,,,,,,1,,,,,,,,,,,,,,,,,,,,,,,,,,,,,,,,,,,,,,,,,,,,,,54,159001,22,Male,1,2024/02/13_16:07:21,YZ,60.15377240986091,
,,,,,,calibration,0,5,2,679,8,C,0,right,0.07002285101043526,1,0,,,,,,,,,,,,,,,,,,,,,1,,,,,,,,,,,,,,,,,,,,,,,,,,,,,,,,,,,,,,,,,,,,,,54,159001,22,Male,1,2024/02/13_16:07:21,YZ,60.15377240986091,
,,,,,,calibration,0,5,2,679,9,J,1,left,0.43762982499902137,1,0,,,,,,,,,,,,,,,,,,,,,1,,,,,,,,,,,,,,,,,,,,,,,,,,,,,,,,,,,,,,,,,,,,,,54,159001,22,Male,1,2024/02/13_16:07:21,YZ,60.15377240986091,
,,,,,,calibration,0,5,2,679,10,V,0,right,0.1580076959944563,1,0,,,,,,,,,,,,,,,,,,,,,1,,,,,,,,,,,,,,,,,,,,,,,,,,,,,,,,,,,,,,,,,,,,,,54,159001,22,Male,1,2024/02/13_16:07:21,YZ,60.15377240986091,
,,,,,,calibration,0,5,2,679,11,C,0,right,0.20814138300193008,1,0,,,,,,,,,,,,,,,,,,,,,1,,,,,,,,,,,,,,,,,,,,,,,,,,,,,,,,,,,,,,,,,,,,,,54,159001,22,Male,1,2024/02/13_16:07:21,YZ,60.15377240986091,
,,,,,,calibration,0,5,2,679,12,S,0,left,0.21847912299563177,0,0,,,,,,,,,,,,,,,,,,,,,1,,,,,,,,,,,,,,,,,,,,,,,,,,,,,,,,,,,,,,,,,,,,,,54,159001,22,Male,1,2024/02/13_16:07:21,YZ,60.15377240986091,
,,,,,,calibration,0,5,2,679,13,X,0,right,0.029725111002335325,1,0,,,,,,,,,,,,,,,,,,,,,1,,,,,,,,,,,,,,,,,,,,,,,,,,,,,,,,,,,,,,,,,,,,,,54,159001,22,Male,1,2024/02/13_16:07:21,YZ,60.15377240986091,
,,,,,,calibration,0,5,2,679,14,J,0,right,0.13600886100903153,1,0,,,,,,,,,,,,,,,,,,,,,1,,,,,,,,,,,,,,,,,,,,,,,,,,,,,,,,,,,,,,,,,,,,,,54,159001,22,Male,1,2024/02/13_16:07:21,YZ,60.15377240986091,
,,,,,,calibration,0,5,2,679,,,,,,,,0.5625,0.25,0.2,0.8,0.0,0.8,0.17414511056995252,1,2,0,0,0,8,9,4,10,0,,,,1,,,,,,,,,,,,,,,,,,,,,,,,,,,,,,,,,,,,,,,,,,,,,,54,159001,22,Male,1,2024/02/13_16:07:21,YZ,60.15377240986091,
,,,,,,Calibration,0,,2,679,,,,,,,,,,,,,,,,,,,,,,,,,9,,,1,,,,,,,,,,,,,,,,,,,,,,,,,,,,,,,,,,,,,,,,,,,,,,54,159001,22,Male,1,2024/02/13_16:07:21,YZ,60.15377240986091,
,,,,,,calibration,0,5,2,788,1,X,0,right,0.2691446249955334,1,0,,,,,,,,,,,,,,,,,,,,,1,,,,,,,,,,,,,,,,,,,,,,,,,,,,,,,,,,,,,,,,,,,,,,54,159001,22,Male,1,2024/02/13_16:07:21,YZ,60.15377240986091,
,,,,,,calibration,0,5,2,788,2,S,0,right,0.21294978699006606,1,0,,,,,,,,,,,,,,,,,,,,,1,,,,,,,,,,,,,,,,,,,,,,,,,,,,,,,,,,,,,,,,,,,,,,54,159001,22,Male,1,2024/02/13_16:07:21,YZ,60.15377240986091,
,,,,,,calibration,0,5,2,788,3,F,0,right,0.2645874569861917,1,0,,,,,,,,,,,,,,,,,,,,,1,,,,,,,,,,,,,,,,,,,,,,,,,,,,,,,,,,,,,,,,,,,,,,54,159001,22,Male,1,2024/02/13_16:07:21,YZ,60.15377240986091,
,,,,,,calibration,0,5,2,788,4,N,0,right,0.12610294799378607,1,0,,,,,,,,,,,,,,,,,,,,,1,,,,,,,,,,,,,,,,,,,,,,,,,,,,,,,,,,,,,,,,,,,,,,54,159001,22,Male,1,2024/02/13_16:07:21,YZ,60.15377240986091,
,,,,,,calibration,0,5,2,788,5,X,0,right,0.18748264100577217,1,0,,,,,,,,,,,,,,,,,,,,,1,,,,,,,,,,,,,,,,,,,,,,,,,,,,,,,,,,,,,,,,,,,,,,54,159001,22,Male,1,2024/02/13_16:07:21,YZ,60.15377240986091,
,,,,,,calibration,0,5,2,788,6,N,1,right,0.19020622200332582,0,0,,,,,,,,,,,,,,,,,,,,,1,,,,,,,,,,,,,,,,,,,,,,,,,,,,,,,,,,,,,,,,,,,,,,54,159001,22,Male,1,2024/02/13_16:07:21,YZ,60.15377240986091,
,,,,,,calibration,0,5,2,788,7,X,1,right,0.23957659999723546,0,0,,,,,,,,,,,,,,,,,,,,,1,,,,,,,,,,,,,,,,,,,,,,,,,,,,,,,,,,,,,,,,,,,,,,54,159001,22,Male,1,2024/02/13_16:07:21,YZ,60.15377240986091,
,,,,,,calibration,0,5,2,788,8,Q,0,right,0.3275616169994464,1,0,,,,,,,,,,,,,,,,,,,,,1,,,,,,,,,,,,,,,,,,,,,,,,,,,,,,,,,,,,,,,,,,,,,,54,159001,22,Male,1,2024/02/13_16:07:21,YZ,60.15377240986091,
,,,,,,calibration,0,5,2,788,9,X,1,right,0.24716614000499249,0,0,,,,,,,,,,,,,,,,,,,,,1,,,,,,,,,,,,,,,,,,,,,,,,,,,,,,,,,,,,,,,,,,,,,,54,159001,22,Male,1,2024/02/13_16:07:21,YZ,60.15377240986091,
,,,,,,calibration,0,5,2,788,10,N,0,right,0.30992115900153294,1,0,,,,,,,,,,,,,,,,,,,,,1,,,,,,,,,,,,,,,,,,,,,,,,,,,,,,,,,,,,,,,,,,,,,,54,159001,22,Male,1,2024/02/13_16:07:21,YZ,60.15377240986091,
,,,,,,calibration,0,5,2,788,11,V,0,right,0.3144424939964665,1,0,,,,,,,,,,,,,,,,,,,,,1,,,,,,,,,,,,,,,,,,,,,,,,,,,,,,,,,,,,,,,,,,,,,,54,159001,22,Male,1,2024/02/13_16:07:21,YZ,60.15377240986091,
,,,,,,calibration,0,5,2,788,12,X,0,right,0.4284193169878563,1,0,,,,,,,,,,,,,,,,,,,,,1,,,,,,,,,,,,,,,,,,,,,,,,,,,,,,,,,,,,,,,,,,,,,,54,159001,22,Male,1,2024/02/13_16:07:21,YZ,60.15377240986091,
,,,,,,calibration,0,5,2,788,13,V,1,left,0.4662625890050549,1,0,,,,,,,,,,,,,,,,,,,,,1,,,,,,,,,,,,,,,,,,,,,,,,,,,,,,,,,,,,,,,,,,,,,,54,159001,22,Male,1,2024/02/13_16:07:21,YZ,60.15377240986091,
,,,,,,calibration,0,5,2,788,,,,,,,,0.8125,0.25,0.0,1.0,0.0,1.0,0.2756787381513277,1,0,0,0,0,9,10,4,9,0,,,,1,,,,,,,,,,,,,,,,,,,,,,,,,,,,,,,,,,,,,,,,,,,,,,54,159001,22,Male,1,2024/02/13_16:07:21,YZ,60.15377240986091,
,,,,,,Calibration,0,,2,788,,,,,,,,,,,,,,,,,,,,,,,,,10,,,1,,,,,,,,,,,,,,,,,,,,,,,,,,,,,,,,,,,,,,,,,,,,,,54,159001,22,Male,1,2024/02/13_16:07:21,YZ,60.15377240986091,
,,,,,,calibration,0,35,2,788,1,C,0,right,0.8838804400002118,1,0,,,,,,,,,,,,,,,,,,,,,1,,,,,,,,,,,,,,,,,,,,,,,,,,,,,,,,,,,,,,,,,,,,,,54,159001,22,Male,1,2024/02/13_16:07:21,YZ,60.15377240986091,
,,,,,,calibration,0,35,2,788,2,X,0,right,0.5310741290013539,1,0,,,,,,,,,,,,,,,,,,,,,1,,,,,,,,,,,,,,,,,,,,,,,,,,,,,,,,,,,,,,,,,,,,,,54,159001,22,Male,1,2024/02/13_16:07:21,YZ,60.15377240986091,
,,,,,,calibration,0,35,2,788,3,S,0,right,0.44950690800033044,1,0,,,,,,,,,,,,,,,,,,,,,1,,,,,,,,,,,,,,,,,,,,,,,,,,,,,,,,,,,,,,,,,,,,,,54,159001,22,Male,1,2024/02/13_16:07:21,YZ,60.15377240986091,
,,,,,,calibration,0,35,2,788,4,C,0,left,0.5562810889969114,0,0,,,,,,,,,,,,,,,,,,,,,1,,,,,,,,,,,,,,,,,,,,,,,,,,,,,,,,,,,,,,,,,,,,,,54,159001,22,Male,1,2024/02/13_16:07:21,YZ,60.15377240986091,
,,,,,,calibration,0,35,2,788,5,S,1,right,0.3469124190014554,0,0,,,,,,,,,,,,,,,,,,,,,1,,,,,,,,,,,,,,,,,,,,,,,,,,,,,,,,,,,,,,,,,,,,,,54,159001,22,Male,1,2024/02/13_16:07:21,YZ,60.15377240986091,
,,,,,,calibration,0,35,2,788,6,N,0,right,0.3833374779933365,1,0,,,,,,,,,,,,,,,,,,,,,1,,,,,,,,,,,,,,,,,,,,,,,,,,,,,,,,,,,,,,,,,,,,,,54,159001,22,Male,1,2024/02/13_16:07:21,YZ,60.15377240986091,
,,,,,,calibration,0,35,2,788,7,X,0,right,0.5135590790014248,1,0,,,,,,,,,,,,,,,,,,,,,1,,,,,,,,,,,,,,,,,,,,,,,,,,,,,,,,,,,,,,,,,,,,,,54,159001,22,Male,1,2024/02/13_16:07:21,YZ,60.15377240986091,
,,,,,,calibration,0,35,2,788,8,F,0,right,0.36516124800255056,1,0,,,,,,,,,,,,,,,,,,,,,1,,,,,,,,,,,,,,,,,,,,,,,,,,,,,,,,,,,,,,,,,,,,,,54,159001,22,Male,1,2024/02/13_16:07:21,YZ,60.15377240986091,
,,,,,,calibration,0,35,2,788,9,V,0,left,0.41394370098714717,0,0,,,,,,,,,,,,,,,,,,,,,1,,,,,,,,,,,,,,,,,,,,,,,,,,,,,,,,,,,,,,,,,,,,,,54,159001,22,Male,1,2024/02/13_16:07:21,YZ,60.15377240986091,
,,,,,,calibration,0,35,2,788,10,F,1,right,0.37784545301110484,0,0,,,,,,,,,,,,,,,,,,,,,1,,,,,,,,,,,,,,,,,,,,,,,,,,,,,,,,,,,,,,,,,,,,,,54,159001,22,Male,1,2024/02/13_16:07:21,YZ,60.15377240986091,
,,,,,,calibration,0,35,2,788,11,V,1,right,0.31947004099492915,0,0,,,,,,,,,,,,,,,,,,,,,1,,,,,,,,,,,,,,,,,,,,,,,,,,,,,,,,,,,,,,,,,,,,,,54,159001,22,Male,1,2024/02/13_16:07:21,YZ,60.15377240986091,
,,,,,,calibration,0,35,2,788,12,X,0,left,0.542624898997019,0,0,,,,,,,,,,,,,,,,,,,,,1,,,,,,,,,,,,,,,,,,,,,,,,,,,,,,,,,,,,,,,,,,,,,,54,159001,22,Male,1,2024/02/13_16:07:21,YZ,60.15377240986091,
,,,,,,calibration,0,35,2,788,13,V,1,right,0.5253886269929353,0,0,,,,,,,,,,,,,,,,,,,,,1,,,,,,,,,,,,,,,,,,,,,,,,,,,,,,,,,,,,,,,,,,,,,,54,159001,22,Male,1,2024/02/13_16:07:21,YZ,60.15377240986091,
,,,,,,calibration,0,35,2,788,,,,,,,,0.16666666666666669,0.0,0.3333333333333333,0.6666666666666666,0.0,0.6666666666666667,0.4776142700754393,0,3,0,0,0,6,6,4,9,0,,,,1,,,,,,,,,,,,,,,,,,,,,,,,,,,,,,,,,,,,,,,,,,,,,,54,159001,22,Male,1,2024/02/13_16:07:21,YZ,60.15377240986091,
,,,,,,Calibration,0,,2,788,,,,,,,,,,,,,,,,,,,,,,,,,11,,,1,,,,,,,,,,,,,,,,,,,,,,,,,,,,,,,,,,,,,,,,,,,,,,54,159001,22,Male,1,2024/02/13_16:07:21,YZ,60.15377240986091,
,,,,,,calibration,0,5,2,917,1,V,0,right,0.4965317689930089,1,0,,,,,,,,,,,,,,,,,,,,,1,,,,,,,,,,,,,,,,,,,,,,,,,,,,,,,,,,,,,,,,,,,,,,54,159001,22,Male,1,2024/02/13_16:07:21,YZ,60.15377240986091,
,,,,,,calibration,0,5,2,917,2,Q,0,right,0.3130949110054644,1,0,,,,,,,,,,,,,,,,,,,,,1,,,,,,,,,,,,,,,,,,,,,,,,,,,,,,,,,,,,,,,,,,,,,,54,159001,22,Male,1,2024/02/13_16:07:21,YZ,60.15377240986091,
,,,,,,calibration,0,5,2,917,3,V,1,left,0.5476848100079224,1,0,,,,,,,,,,,,,,,,,,,,,1,,,,,,,,,,,,,,,,,,,,,,,,,,,,,,,,,,,,,,,,,,,,,,54,159001,22,Male,1,2024/02/13_16:07:21,YZ,60.15377240986091,
,,,,,,calibration,0,5,2,917,4,Q,1,right,0.19929830700857565,0,0,,,,,,,,,,,,,,,,,,,,,1,,,,,,,,,,,,,,,,,,,,,,,,,,,,,,,,,,,,,,,,,,,,,,54,159001,22,Male,1,2024/02/13_16:07:21,YZ,60.15377240986091,
,,,,,,calibration,0,5,2,917,5,J,0,right,0.4931730590033112,1,0,,,,,,,,,,,,,,,,,,,,,1,,,,,,,,,,,,,,,,,,,,,,,,,,,,,,,,,,,,,,,,,,,,,,54,159001,22,Male,1,2024/02/13_16:07:21,YZ,60.15377240986091,
,,,,,,calibration,0,5,2,917,6,X,0,right,0.4624930910067633,1,0,,,,,,,,,,,,,,,,,,,,,1,,,,,,,,,,,,,,,,,,,,,,,,,,,,,,,,,,,,,,,,,,,,,,54,159001,22,Male,1,2024/02/13_16:07:21,YZ,60.15377240986091,
,,,,,,calibration,0,5,2,917,7,V,0,right,0.5539598839968676,1,0,,,,,,,,,,,,,,,,,,,,,1,,,,,,,,,,,,,,,,,,,,,,,,,,,,,,,,,,,,,,,,,,,,,,54,159001,22,Male,1,2024/02/13_16:07:21,YZ,60.15377240986091,
,,,,,,calibration,0,5,2,917,8,J,0,right,0.2130640060058795,1,0,,,,,,,,,,,,,,,,,,,,,1,,,,,,,,,,,,,,,,,,,,,,,,,,,,,,,,,,,,,,,,,,,,,,54,159001,22,Male,1,2024/02/13_16:07:21,YZ,60.15377240986091,
,,,,,,calibration,0,5,2,917,9,V,1,right,0.2509692189923953,0,0,,,,,,,,,,,,,,,,,,,,,1,,,,,,,,,,,,,,,,,,,,,,,,,,,,,,,,,,,,,,,,,,,,,,54,159001,22,Male,1,2024/02/13_16:07:21,YZ,60.15377240986091,
,,,,,,calibration,0,5,2,917,10,C,0,right,0.24576298700412735,1,0,,,,,,,,,,,,,,,,,,,,,1,,,,,,,,,,,,,,,,,,,,,,,,,,,,,,,,,,,,,,,,,,,,,,54,159001,22,Male,1,2024/02/13_16:07:21,YZ,60.15377240986091,
,,,,,,calibration,0,5,2,917,11,V,1,right,0.24772545300947968,0,0,,,,,,,,,,,,,,,,,,,,,1,,,,,,,,,,,,,,,,,,,,,,,,,,,,,,,,,,,,,,,,,,,,,,54,159001,22,Male,1,2024/02/13_16:07:21,YZ,60.15377240986091,
,,,,,,calibration,0,5,2,917,12,Q,0,right,0.1822665590007091,1,0,,,,,,,,,,,,,,,,,,,,,1,,,,,,,,,,,,,,,,,,,,,,,,,,,,,,,,,,,,,,,,,,,,,,54,159001,22,Male,1,2024/02/13_16:07:21,YZ,60.15377240986091,
,,,,,,calibration,0,5,2,917,,,,,,,,0.8125,0.25,0.0,1.0,0.0,1.0,0.35050200458620867,1,0,0,0,0,8,9,4,8,0,,,,1,,,,,,,,,,,,,,,,,,,,,,,,,,,,,,,,,,,,,,,,,,,,,,54,159001,22,Male,1,2024/02/13_16:07:21,YZ,60.15377240986091,
,,,,,,Calibration,0,,2,917,,,,,,,,,,,,,,,,,,,,,,,,,12,,,1,,,,,,,,,,,,,,,,,,,,,,,,,,,,,,,,,,,,,,,,,,,,,,54,159001,22,Male,1,2024/02/13_16:07:21,YZ,60.15377240986091,
,,,,,,calibration,0,36,2,917,1,C,0,right,1.2229144239972811,1,0,,,,,,,,,,,,,,,,,,,,,1,,,,,,,,,,,,,,,,,,,,,,,,,,,,,,,,,,,,,,,,,,,,,,54,159001,22,Male,1,2024/02/13_16:07:21,YZ,60.15377240986091,
,,,,,,calibration,0,36,2,917,2,S,0,right,0.4667520439979853,1,0,,,,,,,,,,,,,,,,,,,,,1,,,,,,,,,,,,,,,,,,,,,,,,,,,,,,,,,,,,,,,,,,,,,,54,159001,22,Male,1,2024/02/13_16:07:21,YZ,60.15377240986091,
,,,,,,calibration,0,36,2,917,3,X,0,right,0.5130964839918306,1,0,,,,,,,,,,,,,,,,,,,,,1,,,,,,,,,,,,,,,,,,,,,,,,,,,,,,,,,,,,,,,,,,,,,,54,159001,22,Male,1,2024/02/13_16:07:21,YZ,60.15377240986091,
,,,,,,calibration,0,36,2,917,4,V,0,right,0.6267598299891688,1,0,,,,,,,,,,,,,,,,,,,,,1,,,,,,,,,,,,,,,,,,,,,,,,,,,,,,,,,,,,,,,,,,,,,,54,159001,22,Male,1,2024/02/13_16:07:21,YZ,60.15377240986091,
,,,,,,calibration,0,36,2,917,5,X,1,right,0.47824187300284393,0,0,,,,,,,,,,,,,,,,,,,,,1,,,,,,,,,,,,,,,,,,,,,,,,,,,,,,,,,,,,,,,,,,,,,,54,159001,22,Male,1,2024/02/13_16:07:21,YZ,60.15377240986091,
,,,,,,calibration,0,36,2,917,6,V,1,left,0.44853619299829006,1,0,,,,,,,,,,,,,,,,,,,,,1,,,,,,,,,,,,,,,,,,,,,,,,,,,,,,,,,,,,,,,,,,,,,,54,159001,22,Male,1,2024/02/13_16:07:21,YZ,60.15377240986091,
,,,,,,calibration,0,36,2,917,7,J,0,right,0.23008456399838906,1,0,,,,,,,,,,,,,,,,,,,,,1,,,,,,,,,,,,,,,,,,,,,,,,,,,,,,,,,,,,,,,,,,,,,,54,159001,22,Male,1,2024/02/13_16:07:21,YZ,60.15377240986091,
,,,,,,calibration,0,36,2,917,8,X,0,right,0.5509919969917974,1,0,,,,,,,,,,,,,,,,,,,,,1,,,,,,,,,,,,,,,,,,,,,,,,,,,,,,,,,,,,,,,,,,,,,,54,159001,22,Male,1,2024/02/13_16:07:21,YZ,60.15377240986091,
,,,,,,calibration,0,36,2,917,9,N,0,right,0.5652323700051056,1,0,,,,,,,,,,,,,,,,,,,,,1,,,,,,,,,,,,,,,,,,,,,,,,,,,,,,,,,,,,,,,,,,,,,,54,159001,22,Male,1,2024/02/13_16:07:21,YZ,60.15377240986091,
,,,,,,calibration,0,36,2,917,10,J,0,right,0.42074920500454027,1,0,,,,,,,,,,,,,,,,,,,,,1,,,,,,,,,,,,,,,,,,,,,,,,,,,,,,,,,,,,,,,,,,,,,,54,159001,22,Male,1,2024/02/13_16:07:21,YZ,60.15377240986091,
,,,,,,calibration,0,36,2,917,11,N,1,right,0.47079766100796405,0,0,,,,,,,,,,,,,,,,,,,,,1,,,,,,,,,,,,,,,,,,,,,,,,,,,,,,,,,,,,,,,,,,,,,,54,159001,22,Male,1,2024/02/13_16:07:21,YZ,60.15377240986091,
,,,,,,calibration,0,36,2,917,12,J,1,right,0.27026243800355587,0,0,,,,,,,,,,,,,,,,,,,,,1,,,,,,,,,,,,,,,,,,,,,,,,,,,,,,,,,,,,,,,,,,,,,,54,159001,22,Male,1,2024/02/13_16:07:21,YZ,60.15377240986091,
,,,,,,calibration,0,36,2,917,,,,,,,,0.8125,0.25,0.0,1.0,0.0,1.0,0.522034923582396,1,0,0,0,0,8,9,4,8,0,,,,1,,,,,,,,,,,,,,,,,,,,,,,,,,,,,,,,,,,,,,,,,,,,,,54,159001,22,Male,1,2024/02/13_16:07:21,YZ,60.15377240986091,
,,,,,,Calibration,0,,2,917,,,,,,,,,,,,,,,,,,,,,,,,,13,,,1,,,,,,,,,,,,,,,,,,,,,,,,,,,,,,,,,,,,,,,,,,,,,,54,159001,22,Male,1,2024/02/13_16:07:21,YZ,60.15377240986091,
,,,,,,calibration,0,22,2,917,1,V,0,right,0.39250759800779633,1,0,,,,,,,,,,,,,,,,,,,,,1,,,,,,,,,,,,,,,,,,,,,,,,,,,,,,,,,,,,,,,,,,,,,,54,159001,22,Male,1,2024/02/13_16:07:21,YZ,60.15377240986091,
,,,,,,calibration,0,22,2,917,2,X,0,right,0.5475354689988308,1,0,,,,,,,,,,,,,,,,,,,,,1,,,,,,,,,,,,,,,,,,,,,,,,,,,,,,,,,,,,,,,,,,,,,,54,159001,22,Male,1,2024/02/13_16:07:21,YZ,60.15377240986091,
,,,,,,calibration,0,22,2,917,3,J,0,right,0.5591993819980416,1,0,,,,,,,,,,,,,,,,,,,,,1,,,,,,,,,,,,,,,,,,,,,,,,,,,,,,,,,,,,,,,,,,,,,,54,159001,22,Male,1,2024/02/13_16:07:21,YZ,60.15377240986091,
,,,,,,calibration,0,22,2,917,4,X,1,right,0.22678698900563177,0,0,,,,,,,,,,,,,,,,,,,,,1,,,,,,,,,,,,,,,,,,,,,,,,,,,,,,,,,,,,,,,,,,,,,,54,159001,22,Male,1,2024/02/13_16:07:21,YZ,60.15377240986091,
,,,,,,calibration,0,22,2,917,5,S,0,right,0.16850132500985637,1,0,,,,,,,,,,,,,,,,,,,,,1,,,,,,,,,,,,,,,,,,,,,,,,,,,,,,,,,,,,,,,,,,,,,,54,159001,22,Male,1,2024/02/13_16:07:21,YZ,60.15377240986091,
,,,,,,calibration,0,22,2,917,6,X,1,left,0.22119210900564212,1,0,,,,,,,,,,,,,,,,,,,,,1,,,,,,,,,,,,,,,,,,,,,,,,,,,,,,,,,,,,,,,,,,,,,,54,159001,22,Male,1,2024/02/13_16:07:21,YZ,60.15377240986091,
,,,,,,calibration,0,22,2,917,7,S,1,right,0.09438597300322726,0,0,,,,,,,,,,,,,,,,,,,,,1,,,,,,,,,,,,,,,,,,,,,,,,,,,,,,,,,,,,,,,,,,,,,,54,159001,22,Male,1,2024/02/13_16:07:21,YZ,60.15377240986091,
,,,,,,calibration,0,22,2,917,8,C,0,left,0.15092946799995843,0,0,,,,,,,,,,,,,,,,,,,,,1,,,,,,,,,,,,,,,,,,,,,,,,,,,,,,,,,,,,,,,,,,,,,,54,159001,22,Male,1,2024/02/13_16:07:21,YZ,60.15377240986091,
,,,,,,calibration,0,22,2,917,9,S,1,right,0.08014350100711454,0,0,,,,,,,,,,,,,,,,,,,,,1,,,,,,,,,,,,,,,,,,,,,,,,,,,,,,,,,,,,,,,,,,,,,,54,159001,22,Male,1,2024/02/13_16:07:21,YZ,60.15377240986091,
,,,,,,calibration,0,22,2,917,10,Q,0,right,0.20465392399637494,1,0,,,,,,,,,,,,,,,,,,,,,1,,,,,,,,,,,,,,,,,,,,,,,,,,,,,,,,,,,,,,,,,,,,,,54,159001,22,Male,1,2024/02/13_16:07:21,YZ,60.15377240986091,
,,,,,,calibration,0,22,2,917,11,J,0,right,0.2376776430028258,1,0,,,,,,,,,,,,,,,,,,,,,1,,,,,,,,,,,,,,,,,,,,,,,,,,,,,,,,,,,,,,,,,,,,,,54,159001,22,Male,1,2024/02/13_16:07:21,YZ,60.15377240986091,
,,,,,,calibration,0,22,2,917,12,S,0,left,0.09378889898653142,0,0,,,,,,,,,,,,,,,,,,,,,1,,,,,,,,,,,,,,,,,,,,,,,,,,,,,,,,,,,,,,,,,,,,,,54,159001,22,Male,1,2024/02/13_16:07:21,YZ,60.15377240986091,
,,,,,,calibration,0,22,2,917,,,,,,,,0.5,0.25,0.25,0.75,0.0,0.75,0.24810852333515263,1,2,0,0,0,6,7,4,8,0,,,,1,,,,,,,,,,,,,,,,,,,,,,,,,,,,,,,,,,,,,,,,,,,,,,54,159001,22,Male,1,2024/02/13_16:07:21,YZ,60.15377240986091,
,,,,,,Calibration,0,,2,917,,,,,,,,,,,,,,,,,,,,,,,,,14,,,1,,,,,,,,,,,,,,,,,,,,,,,,,,,,,,,,,,,,,,,,,,,,,,54,159001,22,Male,1,2024/02/13_16:07:21,YZ,60.15377240986091,
,,,,,,calibration,0,4,2,1068,1,S,0,right,0.49257624000892974,1,0,,,,,,,,,,,,,,,,,,,,,1,,,,,,,,,,,,,,,,,,,,,,,,,,,,,,,,,,,,,,,,,,,,,,54,159001,22,Male,1,2024/02/13_16:07:21,YZ,60.15377240986091,
,,,,,,calibration,0,4,2,1068,2,V,0,right,0.3538138450094266,1,0,,,,,,,,,,,,,,,,,,,,,1,,,,,,,,,,,,,,,,,,,,,,,,,,,,,,,,,,,,,,,,,,,,,,54,159001,22,Male,1,2024/02/13_16:07:21,YZ,60.15377240986091,
,,,,,,calibration,0,4,2,1068,3,S,1,left,0.34997186799591873,1,0,,,,,,,,,,,,,,,,,,,,,1,,,,,,,,,,,,,,,,,,,,,,,,,,,,,,,,,,,,,,,,,,,,,,54,159001,22,Male,1,2024/02/13_16:07:21,YZ,60.15377240986091,
,,,,,,calibration,0,4,2,1068,4,F,0,right,0.3641454309981782,1,0,,,,,,,,,,,,,,,,,,,,,1,,,,,,,,,,,,,,,,,,,,,,,,,,,,,,,,,,,,,,,,,,,,,,54,159001,22,Male,1,2024/02/13_16:07:21,YZ,60.15377240986091,
,,,,,,calibration,0,4,2,1068,5,J,0,right,0.5386266989953583,1,0,,,,,,,,,,,,,,,,,,,,,1,,,,,,,,,,,,,,,,,,,,,,,,,,,,,,,,,,,,,,,,,,,,,,54,159001,22,Male,1,2024/02/13_16:07:21,YZ,60.15377240986091,
,,,,,,calibration,0,4,2,1068,6,C,0,right,0.46640223400027025,1,0,,,,,,,,,,,,,,,,,,,,,1,,,,,,,,,,,,,,,,,,,,,,,,,,,,,,,,,,,,,,,,,,,,,,54,159001,22,Male,1,2024/02/13_16:07:21,YZ,60.15377240986091,
,,,,,,calibration,0,4,2,1068,7,S,0,left,0.35681343500618823,0,0,,,,,,,,,,,,,,,,,,,,,1,,,,,,,,,,,,,,,,,,,,,,,,,,,,,,,,,,,,,,,,,,,,,,54,159001,22,Male,1,2024/02/13_16:07:21,YZ,60.15377240986091,
,,,,,,calibration,0,4,2,1068,8,C,1,right,0.22845488401071634,0,0,,,,,,,,,,,,,,,,,,,,,1,,,,,,,,,,,,,,,,,,,,,,,,,,,,,,,,,,,,,,,,,,,,,,54,159001,22,Male,1,2024/02/13_16:07:21,YZ,60.15377240986091,
,,,,,,calibration,0,4,2,1068,9,S,1,right,0.2710364770027809,0,0,,,,,,,,,,,,,,,,,,,,,1,,,,,,,,,,,,,,,,,,,,,,,,,,,,,,,,,,,,,,,,,,,,,,54,159001,22,Male,1,2024/02/13_16:07:21,YZ,60.15377240986091,
,,,,,,calibration,0,4,2,1068,10,F,0,left,0.5566237710008863,0,0,,,,,,,,,,,,,,,,,,,,,1,,,,,,,,,,,,,,,,,,,,,,,,,,,,,,,,,,,,,,,,,,,,,,54,159001,22,Male,1,2024/02/13_16:07:21,YZ,60.15377240986091,
,,,,,,calibration,0,4,2,1068,11,V,0,left,0.4302922450006008,0,0,,,,,,,,,,,,,,,,,,,,,1,,,,,,,,,,,,,,,,,,,,,,,,,,,,,,,,,,,,,,,,,,,,,,54,159001,22,Male,1,2024/02/13_16:07:21,YZ,60.15377240986091,
,,,,,,calibration,0,4,2,1068,,,,,,,,0.017361111111111105,0.3333333333333333,0.375,0.625,0.0,0.625,0.40079610263902316,1,3,0,0,0,5,6,3,8,0,,,,1,,,,,,,,,,,,,,,,,,,,,,,,,,,,,,,,,,,,,,,,,,,,,,54,159001,22,Male,1,2024/02/13_16:07:21,YZ,60.15377240986091,
,,,,,,Calibration,0,,2,1068,,,,,,,,,,,,,,,,,,,,,,,,,15,,,1,,,,,,,,,,,,,,,,,,,,,,,,,,,,,,,,,,,,,,,,,,,,,,54,159001,22,Male,1,2024/02/13_16:07:21,YZ,60.15377240986091,
,,,,,,calibration,0,6,2,1250,1,N,0,right,0.340071184997214,1,0,,,,,,,,,,,,,,,,,,,,,1,,,,,,,,,,,,,,,,,,,,,,,,,,,,,,,,,,,,,,,,,,,,,,54,159001,22,Male,1,2024/02/13_16:07:21,YZ,60.15377240986091,
,,,,,,calibration,0,6,2,1250,2,X,0,right,0.23861639499955345,1,0,,,,,,,,,,,,,,,,,,,,,1,,,,,,,,,,,,,,,,,,,,,,,,,,,,,,,,,,,,,,,,,,,,,,54,159001,22,Male,1,2024/02/13_16:07:21,YZ,60.15377240986091,
,,,,,,calibration,0,6,2,1250,3,N,1,right,0.3038236099964706,0,0,,,,,,,,,,,,,,,,,,,,,1,,,,,,,,,,,,,,,,,,,,,,,,,,,,,,,,,,,,,,,,,,,,,,54,159001,22,Male,1,2024/02/13_16:07:21,YZ,60.15377240986091,
,,,,,,calibration,0,6,2,1250,4,J,0,right,0.3822893059987109,1,0,,,,,,,,,,,,,,,,,,,,,1,,,,,,,,,,,,,,,,,,,,,,,,,,,,,,,,,,,,,,,,,,,,,,54,159001,22,Male,1,2024/02/13_16:07:21,YZ,60.15377240986091,
,,,,,,calibration,0,6,2,1250,5,C,0,right,0.5136791480035754,1,0,,,,,,,,,,,,,,,,,,,,,1,,,,,,,,,,,,,,,,,,,,,,,,,,,,,,,,,,,,,,,,,,,,,,54,159001,22,Male,1,2024/02/13_16:07:21,YZ,60.15377240986091,
,,,,,,calibration,0,6,2,1250,6,S,0,right,0.6446818549884483,1,0,,,,,,,,,,,,,,,,,,,,,1,,,,,,,,,,,,,,,,,,,,,,,,,,,,,,,,,,,,,,,,,,,,,,54,159001,22,Male,1,2024/02/13_16:07:21,YZ,60.15377240986091,
,,,,,,calibration,0,6,2,1250,7,J,0,right,0.19153898599324748,1,0,,,,,,,,,,,,,,,,,,,,,1,,,,,,,,,,,,,,,,,,,,,,,,,,,,,,,,,,,,,,,,,,,,,,54,159001,22,Male,1,2024/02/13_16:07:21,YZ,60.15377240986091,
,,,,,,calibration,0,6,2,1250,8,F,0,left,0.41542543801188003,0,0,,,,,,,,,,,,,,,,,,,,,1,,,,,,,,,,,,,,,,,,,,,,,,,,,,,,,,,,,,,,,,,,,,,,54,159001,22,Male,1,2024/02/13_16:07:21,YZ,60.15377240986091,
,,,,,,calibration,0,6,2,1250,9,J,1,right,0.27631521099829115,0,0,,,,,,,,,,,,,,,,,,,,,1,,,,,,,,,,,,,,,,,,,,,,,,,,,,,,,,,,,,,,,,,,,,,,54,159001,22,Male,1,2024/02/13_16:07:21,YZ,60.15377240986091,
,,,,,,calibration,0,6,2,1250,10,F,1,right,0.33622445999935735,0,0,,,,,,,,,,,,,,,,,,,,,1,,,,,,,,,,,,,,,,,,,,,,,,,,,,,,,,,,,,,,,,,,,,,,54,159001,22,Male,1,2024/02/13_16:07:21,YZ,60.15377240986091,
,,,,,,calibration,0,6,2,1250,,,,,,,,0.2142857142857143,0.0,0.14285714285714285,0.8571428571428571,0.0,0.8571428571428572,0.36426655939867486,0,1,0,0,0,6,6,3,7,0,,,,1,,,,,,,,,,,,,,,,,,,,,,,,,,,,,,,,,,,,,,,,,,,,,,54,159001,22,Male,1,2024/02/13_16:07:21,YZ,60.15377240986091,
,,,,,,Calibration,0,,2,1250,,,,,,,,,,,,,,,,,,,,,,,,,16,,,1,,,,,,,,,,,,,,,,,,,,,,,,,,,,,,,,,,,,,,,,,,,,,,54,159001,22,Male,1,2024/02/13_16:07:21,YZ,60.15377240986091,
,,,,,,calibration,0,27,2,1472,1,V,0,right,0.6460771609999938,1,0,,,,,,,,,,,,,,,,,,,,,1,,,,,,,,,,,,,,,,,,,,,,,,,,,,,,,,,,,,,,,,,,,,,,54,159001,22,Male,1,2024/02/13_16:07:21,YZ,60.15377240986091,
,,,,,,calibration,0,27,2,1472,2,V,0,right,0.272561241989024,1,0,,,,,,,,,,,,,,,,,,,,,1,,,,,,,,,,,,,,,,,,,,,,,,,,,,,,,,,,,,,,,,,,,,,,54,159001,22,Male,1,2024/02/13_16:07:21,YZ,60.15377240986091,
,,,,,,calibration,0,27,2,1472,3,J,0,right,0.3099987850000616,1,0,,,,,,,,,,,,,,,,,,,,,1,,,,,,,,,,,,,,,,,,,,,,,,,,,,,,,,,,,,,,,,,,,,,,54,159001,22,Male,1,2024/02/13_16:07:21,YZ,60.15377240986091,
,,,,,,calibration,0,27,2,1472,4,V,1,left,0.4036142219993053,1,0,,,,,,,,,,,,,,,,,,,,,1,,,,,,,,,,,,,,,,,,,,,,,,,,,,,,,,,,,,,,,,,,,,,,54,159001,22,Male,1,2024/02/13_16:07:21,YZ,60.15377240986091,
,,,,,,calibration,0,27,2,1472,5,J,1,right,0.47809058299753815,0,0,,,,,,,,,,,,,,,,,,,,,1,,,,,,,,,,,,,,,,,,,,,,,,,,,,,,,,,,,,,,,,,,,,,,54,159001,22,Male,1,2024/02/13_16:07:21,YZ,60.15377240986091,
,,,,,,calibration,0,27,2,1472,6,Q,0,right,0.4512655750004342,1,0,,,,,,,,,,,,,,,,,,,,,1,,,,,,,,,,,,,,,,,,,,,,,,,,,,,,,,,,,,,,,,,,,,,,54,159001,22,Male,1,2024/02/13_16:07:21,YZ,60.15377240986091,
,,,,,,calibration,0,27,2,1472,7,X,0,right,0.4544482029887149,1,0,,,,,,,,,,,,,,,,,,,,,1,,,,,,,,,,,,,,,,,,,,,,,,,,,,,,,,,,,,,,,,,,,,,,54,159001,22,Male,1,2024/02/13_16:07:21,YZ,60.15377240986091,
,,,,,,calibration,0,27,2,1472,8,Q,1,left,0.5448746710026171,1,0,,,,,,,,,,,,,,,,,,,,,1,,,,,,,,,,,,,,,,,,,,,,,,,,,,,,,,,,,,,,,,,,,,,,54,159001,22,Male,1,2024/02/13_16:07:21,YZ,60.15377240986091,
,,,,,,calibration,0,27,2,1472,9,J,0,right,0.4452413230028469,1,0,,,,,,,,,,,,,,,,,,,,,1,,,,,,,,,,,,,,,,,,,,,,,,,,,,,,,,,,,,,,,,,,,,,,54,159001,22,Male,1,2024/02/13_16:07:21,YZ,60.15377240986091,
,,,,,,calibration,0,27,2,1472,,,,,,,,0.9166666666666666,0.6666666666666666,0.0,1.0,0.0,1.0,0.44513019610894844,2,0,0,0,0,6,8,3,6,0,,,,1,,,,,,,,,,,,,,,,,,,,,,,,,,,,,,,,,,,,,,,,,,,,,,54,159001,22,Male,1,2024/02/13_16:07:21,YZ,60.15377240986091,
,,,,,,Calibration,0,,2,1472,,,,,,,,,,,,,,,,,,,,,,,,,17,,,1,,,,,,,,,,,,,,,,,,,,,,,,,,,,,,,,,,,,,,,,,,,,,,54,159001,22,Male,1,2024/02/13_16:07:21,YZ,60.15377240986091,
,,,,,,CALIBRATION,0,,,,,,,,,,,,,,,,,,,,,,,,,,,,17,0.9166666666666666,1472,1,,,,,,,,,,,,,,,,,,,,,,,,,,,,,,,,,,,,,,,,,,,,,,54,159001,22,Male,1,2024/02/13_16:07:21,YZ,60.15377240986091,
1,./instructions/inst_prac_1/Slide24.png,right,63.05691137300164,513.5611316400027,576.6180430130044,,,,,,,,,,,,,,,,,,,,,,,,,,,,,,,,,1,,,,,,,,,,,,,,,,,,,,,,,,,,,,,,,,,,,,,,,,,,,,,,54,159001,22,Male,1,2024/02/13_16:07:21,YZ,60.15377240986091,
2,./instructions/inst_prac_1/Slide25.png,right,3.017365819992847,576.656847315011,579.6742131350038,,,,,,,,,,,,,,,,,,,,,,,,,,,,,,,,,1,,,,,,,,,,,,,,,,,,,,,,,,,,,,,,,,,,,,,,,,,,,,,,54,159001,22,Male,1,2024/02/13_16:07:21,YZ,60.15377240986091,
3,./instructions/inst_prac_1/Slide26.png,right,2.4383399540092796,579.7156518039992,582.1539917580085,,,,,,,,,,,,,,,,,,,,,,,,,,,,,,,,,1,,,,,,,,,,,,,,,,,,,,,,,,,,,,,,,,,,,,,,,,,,,,,,54,159001,22,Male,1,2024/02/13_16:07:21,YZ,60.15377240986091,
4,./instructions/inst_prac_1/Slide27.png,right,1.3205487079976592,582.193602778003,583.5141514860006,,,,,,,,,,,,,,,,,,,,,,,,,,,,,,,,,1,,,,,,,,,,,,,,,,,,,,,,,,,,,,,,,,,,,,,,,,,,,,,,54,159001,22,Male,1,2024/02/13_16:07:21,YZ,60.15377240986091,
3,./instructions/inst_prac_1/Slide28.png,left,0.7356124970101519,583.5543521049985,584.2899646020087,,,,,,,,,,,,,,,,,,,,,,,,,,,,,,,,,1,,,,,,,,,,,,,,,,,,,,,,,,,,,,,,,,,,,,,,,,,,,,,,54,159001,22,Male,1,2024/02/13_16:07:21,YZ,60.15377240986091,
4,./instructions/inst_prac_1/Slide27.png,right,0.7852697880007327,584.3286709200038,585.1139407080045,,,,,,,,,,,,,,,,,,,,,,,,,,,,,,,,,1,,,,,,,,,,,,,,,,,,,,,,,,,,,,,,,,,,,,,,,,,,,,,,54,159001,22,Male,1,2024/02/13_16:07:21,YZ,60.15377240986091,
5,./instructions/inst_prac_1/Slide28.png,right,0.43955571998958476,585.1543973040098,585.5939530239993,,,,,,,,,,,,,,,,,,,,,,,,,,,,,,,,,1,,,,,,,,,,,,,,,,,,,,,,,,,,,,,,,,,,,,,,,,,,,,,,54,159001,22,Male,1,2024/02/13_16:07:21,YZ,60.15377240986091,
6,./instructions/inst_prac_1/Slide29.png,right,10.387470749992644,585.6306698270055,596.0181405769981,,,,,,,,,,,,,,,,,,,,,,,,,,,,,,,,,1,,,,,,,,,,,,,,,,,,,,,,,,,,,,,,,,,,,,,,,,,,,,,,54,159001,22,Male,1,2024/02/13_16:07:21,YZ,60.15377240986091,
7,./instructions/inst_prac_1/Slide30.png,right,3.860971806003363,596.0609909589984,599.9219627650018,,,,,,,,,,,,,,,,,,,,,,,,,,,,,,,,,1,,,,,,,,,,,,,,,,,,,,,,,,,,,,,,,,,,,,,,,,,,,,,,54,159001,22,Male,1,2024/02/13_16:07:21,YZ,60.15377240986091,
,,,,,,practice,0,11,1,1250,1,F,0,right,2.8844187159993453,1,0,,,,,,,,,,,,,,,,,,,,,1,,,,,,,,,,,,,,,,,,,,,,,,,,,,,,,,,,,,,,,,,,,,,,54,159001,22,Male,1,2024/02/13_16:07:21,YZ,60.15377240986091,
,,,,,,practice,0,11,1,1250,2,J,0,right,1.9981607549998444,1,0,,,,,,,,,,,,,,,,,,,,,1,,,,,,,,,,,,,,,,,,,,,,,,,,,,,,,,,,,,,,,,,,,,,,54,159001,22,Male,1,2024/02/13_16:07:21,YZ,60.15377240986091,
,,,,,,practice,0,11,1,1250,3,S,0,right,1.093912651995197,1,0,,,,,,,,,,,,,,,,,,,,,1,,,,,,,,,,,,,,,,,,,,,,,,,,,,,,,,,,,,,,,,,,,,,,54,159001,22,Male,1,2024/02/13_16:07:21,YZ,60.15377240986091,
,,,,,,practice,0,11,1,1250,4,S,1,left,0.45429074599815067,1,0,,,,,,,,,,,,,,,,,,,,,1,,,,,,,,,,,,,,,,,,,,,,,,,,,,,,,,,,,,,,,,,,,,,,54,159001,22,Male,1,2024/02/13_16:07:21,YZ,60.15377240986091,
,,,,,,practice,0,11,1,1250,5,V,0,right,0.8731775369960815,1,0,,,,,,,,,,,,,,,,,,,,,1,,,,,,,,,,,,,,,,,,,,,,,,,,,,,,,,,,,,,,,,,,,,,,54,159001,22,Male,1,2024/02/13_16:07:21,YZ,60.15377240986091,
,,,,,,practice,0,11,1,1250,6,V,1,left,0.771843661001185,1,0,,,,,,,,,,,,,,,,,,,,,1,,,,,,,,,,,,,,,,,,,,,,,,,,,,,,,,,,,,,,,,,,,,,,54,159001,22,Male,1,2024/02/13_16:07:21,YZ,60.15377240986091,
,,,,,,practice,0,11,1,1250,7,Q,0,right,0.7223049939930206,1,0,,,,,,,,,,,,,,,,,,,,,1,,,,,,,,,,,,,,,,,,,,,,,,,,,,,,,,,,,,,,,,,,,,,,54,159001,22,Male,1,2024/02/13_16:07:21,YZ,60.15377240986091,
,,,,,,practice,0,11,1,1250,8,V,0,right,0.7510053660080303,1,0,,,,,,,,,,,,,,,,,,,,,1,,,,,,,,,,,,,,,,,,,,,,,,,,,,,,,,,,,,,,,,,,,,,,54,159001,22,Male,1,2024/02/13_16:07:21,YZ,60.15377240986091,
,,,,,,practice,0,11,1,1250,9,N,0,right,0.4723612969974056,1,0,,,,,,,,,,,,,,,,,,,,,1,,,,,,,,,,,,,,,,,,,,,,,,,,,,,,,,,,,,,,,,,,,,,,54,159001,22,Male,1,2024/02/13_16:07:21,YZ,60.15377240986091,
,,,,,,practice,0,11,1,1250,10,N,1,left,0.6387431819894118,1,0,,,,,,,,,,,,,,,,,,,,,1,,,,,,,,,,,,,,,,,,,,,,,,,,,,,,,,,,,,,,,,,,,,,,54,159001,22,Male,1,2024/02/13_16:07:21,YZ,60.15377240986091,
,,,,,,practice,0,11,1,1250,,,,,,,,1.0,1.0,0.0,1.0,0.0,1.0,1.0660218905977672,3,0,0,0,0,7,10,3,7,0,,,,1,,,,,,,,,,,,,,,,,,,,,,,,,,,,,,,,,,,,,,,,,,,,,,54,159001,22,Male,1,2024/02/13_16:07:21,YZ,60.15377240986091,
1,./instructions/inst_prac_1_next/Slide35.png,right,2.6120512280031107,621.2139846680075,623.8260358960106,,,,,,,,,,,,,,,,,,,,,,,,,,,,,,,,,1,,,,,,,,,,,,,,,,,,,,,,,,,,,,,,,,,,,,,,,,,,,,,,54,159001,22,Male,1,2024/02/13_16:07:21,YZ,60.15377240986091,
,,,,,,practice,0,11,1,1472,1,J,0,right,1.1684124790044734,1,0,,,,,,,,,,,,,,,,,,,,,1,,,,,,,,,,,,,,,,,,,,,,,,,,,,,,,,,,,,,,,,,,,,,,54,159001,22,Male,1,2024/02/13_16:07:21,YZ,60.15377240986091,
,,,,,,practice,0,11,1,1472,2,X,0,right,0.7240922159980983,1,0,,,,,,,,,,,,,,,,,,,,,1,,,,,,,,,,,,,,,,,,,,,,,,,,,,,,,,,,,,,,,,,,,,,,54,159001,22,Male,1,2024/02/13_16:07:21,YZ,60.15377240986091,
,,,,,,practice,0,11,1,1472,3,J,0,right,0.710471926999162,1,0,,,,,,,,,,,,,,,,,,,,,1,,,,,,,,,,,,,,,,,,,,,,,,,,,,,,,,,,,,,,,,,,,,,,54,159001,22,Male,1,2024/02/13_16:07:21,YZ,60.15377240986091,
,,,,,,practice,0,11,1,1472,4,N,0,right,0.586518945012358,1,0,,,,,,,,,,,,,,,,,,,,,1,,,,,,,,,,,,,,,,,,,,,,,,,,,,,,,,,,,,,,,,,,,,,,54,159001,22,Male,1,2024/02/13_16:07:21,YZ,60.15377240986091,
,,,,,,practice,0,11,1,1472,5,N,1,left,0.4946103660040535,1,0,,,,,,,,,,,,,,,,,,,,,1,,,,,,,,,,,,,,,,,,,,,,,,,,,,,,,,,,,,,,,,,,,,,,54,159001,22,Male,1,2024/02/13_16:07:21,YZ,60.15377240986091,
,,,,,,practice,0,11,1,1472,6,Q,0,right,0.7136655719950795,1,0,,,,,,,,,,,,,,,,,,,,,1,,,,,,,,,,,,,,,,,,,,,,,,,,,,,,,,,,,,,,,,,,,,,,54,159001,22,Male,1,2024/02/13_16:07:21,YZ,60.15377240986091,
,,,,,,practice,0,11,1,1472,7,Q,1,left,0.4515757329936605,1,0,,,,,,,,,,,,,,,,,,,,,1,,,,,,,,,,,,,,,,,,,,,,,,,,,,,,,,,,,,,,,,,,,,,,54,159001,22,Male,1,2024/02/13_16:07:21,YZ,60.15377240986091,
,,,,,,practice,0,11,1,1472,8,V,0,right,0.6502442289929604,1,0,,,,,,,,,,,,,,,,,,,,,1,,,,,,,,,,,,,,,,,,,,,,,,,,,,,,,,,,,,,,,,,,,,,,54,159001,22,Male,1,2024/02/13_16:07:21,YZ,60.15377240986091,
,,,,,,practice,0,11,1,1472,9,V,1,left,0.3571067370066885,1,0,,,,,,,,,,,,,,,,,,,,,1,,,,,,,,,,,,,,,,,,,,,,,,,,,,,,,,,,,,,,,,,,,,,,54,159001,22,Male,1,2024/02/13_16:07:21,YZ,60.15377240986091,
,,,,,,practice,0,11,1,1472,,,,,,,,1.0,1.0,0.0,1.0,0.0,1.0,0.6507442448896149,3,0,0,0,0,6,9,3,6,0,,,,1,,,,,,,,,,,,,,,,,,,,,,,,,,,,,,,,,,,,,,,,,,,,,,54,159001,22,Male,1,2024/02/13_16:07:21,YZ,60.15377240986091,
,,,,,,practice,0,20,1,1472,1,Q,0,right,0.9334529020125046,1,0,,,,,,,,,,,,,,,,,,,,,1,,,,,,,,,,,,,,,,,,,,,,,,,,,,,,,,,,,,,,,,,,,,,,54,159001,22,Male,1,2024/02/13_16:07:21,YZ,60.15377240986091,
,,,,,,practice,0,20,1,1472,2,F,0,right,0.724013458006084,1,0,,,,,,,,,,,,,,,,,,,,,1,,,,,,,,,,,,,,,,,,,,,,,,,,,,,,,,,,,,,,,,,,,,,,54,159001,22,Male,1,2024/02/13_16:07:21,YZ,60.15377240986091,
,,,,,,practice,0,20,1,1472,3,F,1,left,0.40252595499623567,1,0,,,,,,,,,,,,,,,,,,,,,1,,,,,,,,,,,,,,,,,,,,,,,,,,,,,,,,,,,,,,,,,,,,,,54,159001,22,Male,1,2024/02/13_16:07:21,YZ,60.15377240986091,
,,,,,,practice,0,20,1,1472,4,V,0,right,0.46961146699322853,1,0,,,,,,,,,,,,,,,,,,,,,1,,,,,,,,,,,,,,,,,,,,,,,,,,,,,,,,,,,,,,,,,,,,,,54,159001,22,Male,1,2024/02/13_16:07:21,YZ,60.15377240986091,
,,,,,,practice,0,20,1,1472,5,J,0,right,0.4544232909975108,1,0,,,,,,,,,,,,,,,,,,,,,1,,,,,,,,,,,,,,,,,,,,,,,,,,,,,,,,,,,,,,,,,,,,,,54,159001,22,Male,1,2024/02/13_16:07:21,YZ,60.15377240986091,
,,,,,,practice,0,20,1,1472,6,Q,0,right,0.4621271530049853,1,0,,,,,,,,,,,,,,,,,,,,,1,,,,,,,,,,,,,,,,,,,,,,,,,,,,,,,,,,,,,,,,,,,,,,54,159001,22,Male,1,2024/02/13_16:07:21,YZ,60.15377240986091,
,,,,,,practice,0,20,1,1472,7,Q,1,left,0.25610076999873854,1,0,,,,,,,,,,,,,,,,,,,,,1,,,,,,,,,,,,,,,,,,,,,,,,,,,,,,,,,,,,,,,,,,,,,,54,159001,22,Male,1,2024/02/13_16:07:21,YZ,60.15377240986091,
,,,,,,practice,0,20,1,1472,8,C,0,right,0.5755142220004927,1,0,,,,,,,,,,,,,,,,,,,,,1,,,,,,,,,,,,,,,,,,,,,,,,,,,,,,,,,,,,,,,,,,,,,,54,159001,22,Male,1,2024/02/13_16:07:21,YZ,60.15377240986091,
,,,,,,practice,0,20,1,1472,9,C,1,left,0.6132868189888541,1,0,,,,,,,,,,,,,,,,,,,,,1,,,,,,,,,,,,,,,,,,,,,,,,,,,,,,,,,,,,,,,,,,,,,,54,159001,22,Male,1,2024/02/13_16:07:21,YZ,60.15377240986091,
,,,,,,practice,0,20,1,1472,,,,,,,,1.0,1.0,0.0,1.0,0.0,1.0,0.543450670777626,3,0,0,0,0,6,9,3,6,0,,,,1,,,,,,,,,,,,,,,,,,,,,,,,,,,,,,,,,,,,,,,,,,,,,,54,159001,22,Male,1,2024/02/13_16:07:21,YZ,60.15377240986091,
1,./instructions/inst_prac_3/Slide37.png,right,9.094184252011473,648.179805435997,657.2739896880084,,,,,,,,,,,,,,,,,,,,,,,,,,,,,,,,,1,,,,,,,,,,,,,,,,,,,,,,,,,,,,,,,,,,,,,,,,,,,,,,54,159001,22,Male,1,2024/02/13_16:07:21,YZ,60.15377240986091,
2,./instructions/inst_prac_3/Slide38.png,right,1.4315038780041505,657.3149065489997,658.7464104270039,,,,,,,,,,,,,,,,,,,,,,,,,,,,,,,,,1,,,,,,,,,,,,,,,,,,,,,,,,,,,,,,,,,,,,,,,,,,,,,,54,159001,22,Male,1,2024/02/13_16:07:21,YZ,60.15377240986091,
3,./instructions/inst_prac_3/Slide39.png,right,0.6903047310042894,658.7834244039987,659.4737291350029,,,,,,,,,,,,,,,,,,,,,,,,,,,,,,,,,1,,,,,,,,,,,,,,,,,,,,,,,,,,,,,,,,,,,,,,,,,,,,,,54,159001,22,Male,1,2024/02/13_16:07:21,YZ,60.15377240986091,
4,./instructions/inst_prac_3/Slide40.png,right,0.8558085639961064,659.514008520011,660.3698170840071,,,,,,,,,,,,,,,,,,,,,,,,,,,,,,,,,1,,,,,,,,,,,,,,,,,,,,,,,,,,,,,,,,,,,,,,,,,,,,,,54,159001,22,Male,1,2024/02/13_16:07:21,YZ,60.15377240986091,
5,./instructions/inst_prac_3/Slide41.png,right,2.1441564920096425,660.4097022950009,662.5538587870105,,,,,,,,,,,,,,,,,,,,,,,,,,,,,,,,,1,,,,,,,,,,,,,,,,,,,,,,,,,,,,,,,,,,,,,,,,,,,,,,54,159001,22,Male,1,2024/02/13_16:07:21,YZ,60.15377240986091,
6,./instructions/inst_prac_3/Slide42.png,right,1.5915507030003937,662.5943114429974,664.1858621459978,,,,,,,,,,,,,,,,,,,,,,,,,,,,,,,,,1,,,,,,,,,,,,,,,,,,,,,,,,,,,,,,,,,,,,,,,,,,,,,,54,159001,22,Male,1,2024/02/13_16:07:21,YZ,60.15377240986091,
7,./instructions/inst_prac_3/Slide43.png,right,1.3043421450129244,664.225750327998,665.5300924730109,,,,,,,,,,,,,,,,,,,,,,,,,,,,,,,,,1,,,,,,,,,,,,,,,,,,,,,,,,,,,,,,,,,,,,,,,,,,,,,,54,159001,22,Male,1,2024/02/13_16:07:21,YZ,60.15377240986091,
8,./instructions/inst_prac_3/Slide44.png,right,1.4552038249967154,665.5708136030007,667.0260174279974,,,,,,,,,,,,,,,,,,,,,,,,,,,,,,,,,1,,,,,,,,,,,,,,,,,,,,,,,,,,,,,,,,,,,,,,,,,,,,,,54,159001,22,Male,1,2024/02/13_16:07:21,YZ,60.15377240986091,
,,,,,,practice,0,10,3,788,1,Q,0,right,0.9193679629970575,1,0,,,,,,,,,,,,,,,,,,,,,1,,,,,,,,,,,,,,,,,,,,,,,,,,,,,,,,,,,,,,,,,,,,,,54,159001,22,Male,1,2024/02/13_16:07:21,YZ,60.15377240986091,
,,,,,,practice,0,10,3,788,2,X,0,right,1.0890397500043036,1,0,,,,,,,,,,,,,,,,,,,,,1,,,,,,,,,,,,,,,,,,,,,,,,,,,,,,,,,,,,,,,,,,,,,,54,159001,22,Male,1,2024/02/13_16:07:21,YZ,60.15377240986091,
,,,,,,practice,0,10,3,788,3,Q,0,right,1.3201617349986918,1,0,,,,,,,,,,,,,,,,,,,,,1,,,,,,,,,,,,,,,,,,,,,,,,,,,,,,,,,,,,,,,,,,,,,,54,159001,22,Male,1,2024/02/13_16:07:21,YZ,60.15377240986091,
,,,,,,practice,0,10,3,788,4,Q,1,left,0.6185668529942632,1,0,,,,,,,,,,,,,,,,,,,,,1,,,,,,,,,,,,,,,,,,,,,,,,,,,,,,,,,,,,,,,,,,,,,,54,159001,22,Male,1,2024/02/13_16:07:21,YZ,60.15377240986091,
,,,,,,practice,0,10,3,788,5,V,0,right,1.5432728029991267,1,0,,,,,,,,,,,,,,,,,,,,,1,,,,,,,,,,,,,,,,,,,,,,,,,,,,,,,,,,,,,,,,,,,,,,54,159001,22,Male,1,2024/02/13_16:07:21,YZ,60.15377240986091,
,,,,,,practice,0,10,3,788,6,N,0,right,2.1939706510020187,1,0,,,,,,,,,,,,,,,,,,,,,1,,,,,,,,,,,,,,,,,,,,,,,,,,,,,,,,,,,,,,,,,,,,,,54,159001,22,Male,1,2024/02/13_16:07:21,YZ,60.15377240986091,
,,,,,,practice,0,10,3,788,7,N,0,right,0.3519787279947195,1,0,,,,,,,,,,,,,,,,,,,,,1,,,,,,,,,,,,,,,,,,,,,,,,,,,,,,,,,,,,,,,,,,,,,,54,159001,22,Male,1,2024/02/13_16:07:21,YZ,60.15377240986091,
,,,,,,practice,0,10,3,788,8,V,1,left,0.6640021299972432,1,0,,,,,,,,,,,,,,,,,,,,,1,,,,,,,,,,,,,,,,,,,,,,,,,,,,,,,,,,,,,,,,,,,,,,54,159001,22,Male,1,2024/02/13_16:07:21,YZ,60.15377240986091,
,,,,,,practice,0,10,3,788,9,S,0,right,1.1264641689922428,1,0,,,,,,,,,,,,,,,,,,,,,1,,,,,,,,,,,,,,,,,,,,,,,,,,,,,,,,,,,,,,,,,,,,,,54,159001,22,Male,1,2024/02/13_16:07:21,YZ,60.15377240986091,
,,,,,,practice,0,10,3,788,10,S,0,right,0.6715882379940012,1,0,,,,,,,,,,,,,,,,,,,,,1,,,,,,,,,,,,,,,,,,,,,,,,,,,,,,,,,,,,,,,,,,,,,,54,159001,22,Male,1,2024/02/13_16:07:21,YZ,60.15377240986091,
,,,,,,practice,0,10,3,788,11,Q,0,right,2.9767727330035996,1,0,,,,,,,,,,,,,,,,,,,,,1,,,,,,,,,,,,,,,,,,,,,,,,,,,,,,,,,,,,,,,,,,,,,,54,159001,22,Male,1,2024/02/13_16:07:21,YZ,60.15377240986091,
,,,,,,practice,0,10,3,788,12,S,1,left,0.5786972039932152,1,0,,,,,,,,,,,,,,,,,,,,,1,,,,,,,,,,,,,,,,,,,,,,,,,,,,,,,,,,,,,,,,,,,,,,54,159001,22,Male,1,2024/02/13_16:07:21,YZ,60.15377240986091,
,,,,,,practice,0,10,3,788,13,S,1,right,0.807725405000383,0,0,,,,,,,,,,,,,,,,,,,,,1,,,,,,,,,,,,,,,,,,,,,,,,,,,,,,,,,,,,,,,,,,,,,,54,159001,22,Male,1,2024/02/13_16:07:21,YZ,60.15377240986091,
,,,,,,practice,0,10,3,788,,,,,,,,0.9375,0.75,0.0,1.0,0.0,1.0,1.1432006432285282,3,0,0,0,0,9,12,4,9,0,,,,1,,,,,,,,,,,,,,,,,,,,,,,,,,,,,,,,,,,,,,,,,,,,,,54,159001,22,Male,1,2024/02/13_16:07:21,YZ,60.15377240986091,
1,./instructions/inst_prac_3_next/Slide49.png,right,1.3500974790076725,696.1560014790011,697.5060989580088,,,,,,,,,,,,,,,,,,,,,,,,,,,,,,,,,1,,,,,,,,,,,,,,,,,,,,,,,,,,,,,,,,,,,,,,,,,,,,,,54,159001,22,Male,1,2024/02/13_16:07:21,YZ,60.15377240986091,
,,,,,,practice,0,5,3,1472,1,C,0,right,0.965056070999708,1,0,,,,,,,,,,,,,,,,,,,,,1,,,,,,,,,,,,,,,,,,,,,,,,,,,,,,,,,,,,,,,,,,,,,,54,159001,22,Male,1,2024/02/13_16:07:21,YZ,60.15377240986091,
,,,,,,practice,0,5,3,1472,2,N,0,right,0.5063831879961072,1,0,,,,,,,,,,,,,,,,,,,,,1,,,,,,,,,,,,,,,,,,,,,,,,,,,,,,,,,,,,,,,,,,,,,,54,159001,22,Male,1,2024/02/13_16:07:21,YZ,60.15377240986091,
,,,,,,practice,0,5,3,1472,3,X,0,right,0.4285060929978499,1,0,,,,,,,,,,,,,,,,,,,,,1,,,,,,,,,,,,,,,,,,,,,,,,,,,,,,,,,,,,,,,,,,,,,,54,159001,22,Male,1,2024/02/13_16:07:21,YZ,60.15377240986091,
,,,,,,practice,0,5,3,1472,4,S,0,right,0.7785614079912193,1,0,,,,,,,,,,,,,,,,,,,,,1,,,,,,,,,,,,,,,,,,,,,,,,,,,,,,,,,,,,,,,,,,,,,,54,159001,22,Male,1,2024/02/13_16:07:21,YZ,60.15377240986091,
,,,,,,practice,0,5,3,1472,5,N,1,left,0.5639120899868431,1,0,,,,,,,,,,,,,,,,,,,,,1,,,,,,,,,,,,,,,,,,,,,,,,,,,,,,,,,,,,,,,,,,,,,,54,159001,22,Male,1,2024/02/13_16:07:21,YZ,60.15377240986091,
,,,,,,practice,0,5,3,1472,6,X,1,right,0.7081220130057773,0,0,,,,,,,,,,,,,,,,,,,,,1,,,,,,,,,,,,,,,,,,,,,,,,,,,,,,,,,,,,,,,,,,,,,,54,159001,22,Male,1,2024/02/13_16:07:21,YZ,60.15377240986091,
,,,,,,practice,0,5,3,1472,7,N,0,right,0.7723019200057024,1,0,,,,,,,,,,,,,,,,,,,,,1,,,,,,,,,,,,,,,,,,,,,,,,,,,,,,,,,,,,,,,,,,,,,,54,159001,22,Male,1,2024/02/13_16:07:21,YZ,60.15377240986091,
,,,,,,practice,0,5,3,1472,8,N,1,right,0.5298090080032125,0,0,,,,,,,,,,,,,,,,,,,,,1,,,,,,,,,,,,,,,,,,,,,,,,,,,,,,,,,,,,,,,,,,,,,,54,159001,22,Male,1,2024/02/13_16:07:21,YZ,60.15377240986091,
,,,,,,practice,0,5,3,1472,9,Q,0,right,0.6382443399925251,1,0,,,,,,,,,,,,,,,,,,,,,1,,,,,,,,,,,,,,,,,,,,,,,,,,,,,,,,,,,,,,,,,,,,,,54,159001,22,Male,1,2024/02/13_16:07:21,YZ,60.15377240986091,
,,,,,,practice,0,5,3,1472,,,,,,,,0.8333333333333334,0.3333333333333333,0.0,1.0,0.0,1.0,0.6545440145532161,1,0,0,0,0,6,7,3,6,0,,,,1,,,,,,,,,,,,,,,,,,,,,,,,,,,,,,,,,,,,,,,,,,,,,,54,159001,22,Male,1,2024/02/13_16:07:21,YZ,60.15377240986091,
,,,,,,practice,0,1,3,1472,1,Q,0,right,1.5893173730000854,1,0,,,,,,,,,,,,,,,,,,,,,1,,,,,,,,,,,,,,,,,,,,,,,,,,,,,,,,,,,,,,,,,,,,,,54,159001,22,Male,1,2024/02/13_16:07:21,YZ,60.15377240986091,
,,,,,,practice,0,1,3,1472,2,J,0,right,0.4992223389999708,1,0,,,,,,,,,,,,,,,,,,,,,1,,,,,,,,,,,,,,,,,,,,,,,,,,,,,,,,,,,,,,,,,,,,,,54,159001,22,Male,1,2024/02/13_16:07:21,YZ,60.15377240986091,
,,,,,,practice,0,1,3,1472,3,N,0,right,0.615486212001997,1,0,,,,,,,,,,,,,,,,,,,,,1,,,,,,,,,,,,,,,,,,,,,,,,,,,,,,,,,,,,,,,,,,,,,,54,159001,22,Male,1,2024/02/13_16:07:21,YZ,60.15377240986091,
,,,,,,practice,0,1,3,1472,4,N,0,right,0.7621745509968605,1,0,,,,,,,,,,,,,,,,,,,,,1,,,,,,,,,,,,,,,,,,,,,,,,,,,,,,,,,,,,,,,,,,,,,,54,159001,22,Male,1,2024/02/13_16:07:21,YZ,60.15377240986091,
,,,,,,practice,0,1,3,1472,5,J,1,left,0.7722532079933444,1,0,,,,,,,,,,,,,,,,,,,,,1,,,,,,,,,,,,,,,,,,,,,,,,,,,,,,,,,,,,,,,,,,,,,,54,159001,22,Male,1,2024/02/13_16:07:21,YZ,60.15377240986091,
,,,,,,practice,0,1,3,1472,6,X,0,right,0.7615572110080393,1,0,,,,,,,,,,,,,,,,,,,,,1,,,,,,,,,,,,,,,,,,,,,,,,,,,,,,,,,,,,,,,,,,,,,,54,159001,22,Male,1,2024/02/13_16:07:21,YZ,60.15377240986091,
,,,,,,practice,0,1,3,1472,7,N,1,right,0.5942835290043149,0,0,,,,,,,,,,,,,,,,,,,,,1,,,,,,,,,,,,,,,,,,,,,,,,,,,,,,,,,,,,,,,,,,,,,,54,159001,22,Male,1,2024/02/13_16:07:21,YZ,60.15377240986091,
,,,,,,practice,0,1,3,1472,8,J,1,left,0.9381822660070611,1,0,,,,,,,,,,,,,,,,,,,,,1,,,,,,,,,,,,,,,,,,,,,,,,,,,,,,,,,,,,,,,,,,,,,,54,159001,22,Male,1,2024/02/13_16:07:21,YZ,60.15377240986091,
,,,,,,practice,0,1,3,1472,9,Q,0,left,0.8743605659983587,0,0,,,,,,,,,,,,,,,,,,,,,1,,,,,,,,,,,,,,,,,,,,,,,,,,,,,,,,,,,,,,,,,,,,,,54,159001,22,Male,1,2024/02/13_16:07:21,YZ,60.15377240986091,
,,,,,,practice,0,1,3,1472,,,,,,,,0.8194444444444444,0.6666666666666666,0.16666666666666666,0.8333333333333334,0.0,0.8333333333333334,0.8229819172233369,2,1,0,0,0,5,7,3,6,0,,,,1,,,,,,,,,,,,,,,,,,,,,,,,,,,,,,,,,,,,,,,,,,,,,,54,159001,22,Male,1,2024/02/13_16:07:21,YZ,60.15377240986091,
1,./instructions/inst_prac_main/Slide51.png,right,3.35359637599322,724.3842176260077,727.737814002001,,,,,,,,,,,,,,,,,,,,,,,,,,,,,,,,,1,,,,,,,,,,,,,,,,,,,,,,,,,,,,,,,,,,,,,,,,,,,,,,54,159001,22,Male,1,2024/02/13_16:07:21,YZ,60.15377240986091,
2,./instructions/inst_prac_main/Slide52.png,right,13.447000322004897,727.7791872259986,741.2261875480035,,,,,,,,,,,,,,,,,,,,,,,,,,,,,,,,,1,,,,,,,,,,,,,,,,,,,,,,,,,,,,,,,,,,,,,,,,,,,,,,54,159001,22,Male,1,2024/02/13_16:07:21,YZ,60.15377240986091,
1,./instructions/inst_prac_main/Slide53.png,left,5.5113646629906725,741.2664060820098,746.7777707450005,,,,,,,,,,,,,,,,,,,,,,,,,,,,,,,,,1,,,,,,,,,,,,,,,,,,,,,,,,,,,,,,,,,,,,,,,,,,,,,,54,159001,22,Male,1,2024/02/13_16:07:21,YZ,60.15377240986091,
2,./instructions/inst_prac_main/Slide52.png,right,8.955336412996985,746.814689692008,755.770026105005,,,,,,,,,,,,,,,,,,,,,,,,,,,,,,,,,1,,,,,,,,,,,,,,,,,,,,,,,,,,,,,,,,,,,,,,,,,,,,,,54,159001,22,Male,1,2024/02/13_16:07:21,YZ,60.15377240986091,
3,./instructions/inst_prac_main/Slide53.png,right,3.943826454997179,755.8102427760023,759.7540692309994,,,,,,,,,,,,,,,,,,,,,,,,,,,,,,,,,1,,,,,,,,,,,,,,,,,,,,,,,,,,,,,,,,,,,,,,,,,,,,,,54,159001,22,Male,1,2024/02/13_16:07:21,YZ,60.15377240986091,
4,./instructions/inst_prac_main/Slide54.png,right,0.2007704589923378,759.7912797580066,759.9920502169989,,,,,,,,,,,,,,,,,,,,,,,,,,,,,,,,,1,,,,,,,,,,,,,,,,,,,,,,,,,,,,,,,,,,,,,,,,,,,,,,54,159001,22,Male,1,2024/02/13_16:07:21,YZ,60.15377240986091,
,,,,,,practice_main,0,1,3,1472,1,Q,0,None,nan,0,1,,,,,,,,,,,,,,,,,,,,,1,,,,,,,,,,,,,,,,,,,,,,,,,,,,,,,,,,,,,,,,,,,,,,54,159001,22,Male,1,2024/02/13_16:07:21,YZ,60.15377240986091,
,,,,,,practice_main,0,1,3,1472,2,J,0,right,0.6097625770053128,1,0,,,,,,,,,,,,,,,,,,,,,1,,,,,,,,,,,,,,,,,,,,,,,,,,,,,,,,,,,,,,,,,,,,,,54,159001,22,Male,1,2024/02/13_16:07:21,YZ,60.15377240986091,
,,,,,,practice_main,0,1,3,1472,3,N,0,right,0.6431618229980813,1,0,,,,,,,,,,,,,,,,,,,,,1,,,,,,,,,,,,,,,,,,,,,,,,,,,,,,,,,,,,,,,,,,,,,,54,159001,22,Male,1,2024/02/13_16:07:21,YZ,60.15377240986091,
,,,,,,practice_main,0,1,3,1472,4,N,0,right,0.7452130300080171,1,0,,,,,,,,,,,,,,,,,,,,,1,,,,,,,,,,,,,,,,,,,,,,,,,,,,,,,,,,,,,,,,,,,,,,54,159001,22,Male,1,2024/02/13_16:07:21,YZ,60.15377240986091,
,,,,,,practice_main,0,1,3,1472,5,J,1,left,0.32563548799953423,1,0,,,,,,,,,,,,,,,,,,,,,1,,,,,,,,,,,,,,,,,,,,,,,,,,,,,,,,,,,,,,,,,,,,,,54,159001,22,Male,1,2024/02/13_16:07:21,YZ,60.15377240986091,
,,,,,,practice_main,0,1,3,1472,6,X,0,right,0.6133986510103568,1,0,,,,,,,,,,,,,,,,,,,,,1,,,,,,,,,,,,,,,,,,,,,,,,,,,,,,,,,,,,,,,,,,,,,,54,159001,22,Male,1,2024/02/13_16:07:21,YZ,60.15377240986091,
,,,,,,practice_main,0,1,3,1472,7,N,1,right,0.39467410900397226,0,0,,,,,,,,,,,,,,,,,,,,,1,,,,,,,,,,,,,,,,,,,,,,,,,,,,,,,,,,,,,,,,,,,,,,54,159001,22,Male,1,2024/02/13_16:07:21,YZ,60.15377240986091,
,,,,,,practice_main,0,1,3,1472,8,J,1,right,0.2905736609973246,0,0,,,,,,,,,,,,,,,,,,,,,1,,,,,,,,,,,,,,,,,,,,,,,,,,,,,,,,,,,,,,,,,,,,,,54,159001,22,Male,1,2024/02/13_16:07:21,YZ,60.15377240986091,
,,,,,,practice_main,0,1,3,1472,9,Q,0,right,0.24978336300409865,1,0,,,,,,,,,,,,,,,,,,,,,1,,,,,,,,,,,,,,,,,,,,,,,,,,,,,,,,,,,,,,,,,,,,,,54,159001,22,Male,1,2024/02/13_16:07:21,YZ,60.15377240986091,
,,,,,,practice_main,0,1,3,1472,,,,,,,,0.8333333333333334,0.3333333333333333,0.0,1.0,0.1111111111111111,0.8888888888888888,0.4840253377533372,1,0,0,1,1,5,6,3,6,0,,,,1,,,,,,,,,,,,,,,,,,,,,,,,,,,,,,,,,,,,,,,,,,,,,,54,159001,22,Male,1,2024/02/13_16:07:21,YZ,60.15377240986091,
,,,,,240213_164628,PRACTICE,0,1,3,1472,,,,,,,,,,,,,,,,,,,,,,,,,,,,1,31,2,1,cue1.png,hard,B,17,0.9194358630047645,0,771.3064835280093,772.2619576660072,,,,,,,,,,,,,,,,,,,,,,,,,,,,,,,,,,,54,159001,22,Male,1,2024/02/13_16:07:21,YZ,60.15377240986091,
,,,,,,practice_main,0,2,3,1472,1,S,0,right,0.6108031539915828,1,0,,,,,,,,,,,,,,,,,,,,,1,,,,,,,,,,,,,,,,,,,,,,,,,,,,,,,,,,,,,,,,,,,,,,54,159001,22,Male,1,2024/02/13_16:07:21,YZ,60.15377240986091,
,,,,,,practice_main,0,2,3,1472,2,X,0,right,0.29311924999637995,1,0,,,,,,,,,,,,,,,,,,,,,1,,,,,,,,,,,,,,,,,,,,,,,,,,,,,,,,,,,,,,,,,,,,,,54,159001,22,Male,1,2024/02/13_16:07:21,YZ,60.15377240986091,
,,,,,,practice_main,0,2,3,1472,3,N,0,right,0.4190558209957089,1,0,,,,,,,,,,,,,,,,,,,,,1,,,,,,,,,,,,,,,,,,,,,,,,,,,,,,,,,,,,,,,,,,,,,,54,159001,22,Male,1,2024/02/13_16:07:21,YZ,60.15377240986091,
,,,,,,practice_main,0,2,3,1472,4,F,0,right,0.6457158760022139,1,0,,,,,,,,,,,,,,,,,,,,,1,,,,,,,,,,,,,,,,,,,,,,,,,,,,,,,,,,,,,,,,,,,,,,54,159001,22,Male,1,2024/02/13_16:07:21,YZ,60.15377240986091,
,,,,,,practice_main,0,2,3,1472,5,X,1,left,0.5633989740017569,1,0,,,,,,,,,,,,,,,,,,,,,1,,,,,,,,,,,,,,,,,,,,,,,,,,,,,,,,,,,,,,,,,,,,,,54,159001,22,Male,1,2024/02/13_16:07:21,YZ,60.15377240986091,
,,,,,,practice_main,0,2,3,1472,6,N,1,right,0.48191484199196566,0,0,,,,,,,,,,,,,,,,,,,,,1,,,,,,,,,,,,,,,,,,,,,,,,,,,,,,,,,,,,,,,,,,,,,,54,159001,22,Male,1,2024/02/13_16:07:21,YZ,60.15377240986091,
,,,,,,practice_main,0,2,3,1472,7,N,0,left,0.0,0,0,,,,,,,,,,,,,,,,,,,,,1,,,,,,,,,,,,,,,,,,,,,,,,,,,,,,,,,,,,,,,,,,,,,,54,159001,22,Male,1,2024/02/13_16:07:21,YZ,60.15377240986091,
,,,,,,practice_main,0,2,3,1472,8,F,0,right,0.6688070239906665,1,0,,,,,,,,,,,,,,,,,,,,,1,,,,,,,,,,,,,,,,,,,,,,,,,,,,,,,,,,,,,,,,,,,,,,54,159001,22,Male,1,2024/02/13_16:07:21,YZ,60.15377240986091,
,,,,,,practice_main,0,2,3,1472,9,N,1,right,0.6267078429955291,0,0,,,,,,,,,,,,,,,,,,,,,1,,,,,,,,,,,,,,,,,,,,,,,,,,,,,,,,,,,,,,,,,,,,,,54,159001,22,Male,1,2024/02/13_16:07:21,YZ,60.15377240986091,
,,,,,,practice_main,0,2,3,1472,,,,,,,,0.6666666666666666,0.3333333333333333,0.16666666666666666,0.8333333333333334,0.0,0.8333333333333334,0.4788358648850893,1,1,0,0,0,5,6,3,6,0,,,,1,,,,,,,,,,,,,,,,,,,,,,,,,,,,,,,,,,,,,,,,,,,,,,54,159001,22,Male,1,2024/02/13_16:07:21,YZ,60.15377240986091,
,,,,,240213_164647,PRACTICE,0,2,3,1472,,,,,,,,,,,,,,,,,,,,,,,,,,,,1,48,3,2,cue1.png,hard,B,8,0.9181652539991774,0,792.037141822002,792.9757481490087,,,,,,,,,,,,,,,,,,,,,,,,,,,,,,,,,,,54,159001,22,Male,1,2024/02/13_16:07:21,YZ,60.15377240986091,
,,,,,,practice_main,0,3,3,1472,1,J,0,right,0.46581251599127427,1,0,,,,,,,,,,,,,,,,,,,,,1,,,,,,,,,,,,,,,,,,,,,,,,,,,,,,,,,,,,,,,,,,,,,,54,159001,22,Male,1,2024/02/13_16:07:21,YZ,60.15377240986091,
,,,,,,practice_main,0,3,3,1472,2,N,0,right,0.42099661799147725,1,0,,,,,,,,,,,,,,,,,,,,,1,,,,,,,,,,,,,,,,,,,,,,,,,,,,,,,,,,,,,,,,,,,,,,54,159001,22,Male,1,2024/02/13_16:07:21,YZ,60.15377240986091,
,,,,,,practice_main,0,3,3,1472,3,J,0,right,0.525904697002261,1,0,,,,,,,,,,,,,,,,,,,,,1,,,,,,,,,,,,,,,,,,,,,,,,,,,,,,,,,,,,,,,,,,,,,,54,159001,22,Male,1,2024/02/13_16:07:21,YZ,60.15377240986091,
,,,,,,practice_main,0,3,3,1472,4,J,1,left,0.5264579860086087,1,0,,,,,,,,,,,,,,,,,,,,,1,,,,,,,,,,,,,,,,,,,,,,,,,,,,,,,,,,,,,,,,,,,,,,54,159001,22,Male,1,2024/02/13_16:07:21,YZ,60.15377240986091,
,,,,,,practice_main,0,3,3,1472,5,V,0,right,0.43723188700096216,1,0,,,,,,,,,,,,,,,,,,,,,1,,,,,,,,,,,,,,,,,,,,,,,,,,,,,,,,,,,,,,,,,,,,,,54,159001,22,Male,1,2024/02/13_16:07:21,YZ,60.15377240986091,
,,,,,,practice_main,0,3,3,1472,6,J,1,right,0.4695188089972362,0,0,,,,,,,,,,,,,,,,,,,,,1,,,,,,,,,,,,,,,,,,,,,,,,,,,,,,,,,,,,,,,,,,,,,,54,159001,22,Male,1,2024/02/13_16:07:21,YZ,60.15377240986091,
,,,,,,practice_main,0,3,3,1472,7,X,0,left,0.39757593799731694,0,0,,,,,,,,,,,,,,,,,,,,,1,,,,,,,,,,,,,,,,,,,,,,,,,,,,,,,,,,,,,,,,,,,,,,54,159001,22,Male,1,2024/02/13_16:07:21,YZ,60.15377240986091,
,,,,,,practice_main,0,3,3,1472,8,S,0,left,0.6212146329926327,0,0,,,,,,,,,,,,,,,,,,,,,1,,,,,,,,,,,,,,,,,,,,,,,,,,,,,,,,,,,,,,,,,,,,,,54,159001,22,Male,1,2024/02/13_16:07:21,YZ,60.15377240986091,
,,,,,,practice_main,0,3,3,1472,9,J,1,right,0.2463915810076287,0,0,,,,,,,,,,,,,,,,,,,,,1,,,,,,,,,,,,,,,,,,,,,,,,,,,,,,,,,,,,,,,,,,,,,,54,159001,22,Male,1,2024/02/13_16:07:21,YZ,60.15377240986091,
,,,,,,practice_main,0,3,3,1472,,,,,,,,0.5,0.3333333333333333,0.3333333333333333,0.6666666666666666,0.0,0.6666666666666667,0.4567894072210442,1,2,0,0,0,4,5,3,6,0,,,,1,,,,,,,,,,,,,,,,,,,,,,,,,,,,,,,,,,,,,,,,,,,,,,54,159001,22,Male,1,2024/02/13_16:07:21,YZ,60.15377240986091,
,,,,,240213_164706,PRACTICE,0,3,3,1472,,,,,,,,,,,,,,,,,,,,,,,,,,,,1,2,4,3,cue1.png,hard,B,14,0.6686351079988526,0,811.1851023659983,811.8730486830027,,,,,,,,,,,,,,,,,,,,,,,,,,,,,,,,,,,54,159001,22,Male,1,2024/02/13_16:07:21,YZ,60.15377240986091,
1,./instructions/inst_prac_end/Slide56.png,right,17.96421367500443,828.3977803930029,846.3619940680073,,,,,,,,,,,,,,,,,,,,,,,,,,,,,,,,,1,,,,,,,,,,,,,,,,,,,,,,,,,,,,,,,,,,,,,,,,,,,,,,54,159001,22,Male,1,2024/02/13_16:07:21,YZ,60.15377240986091,
1,./instructions/inst_test/Slide57.png,right,31.749679474000004,846.4042620410037,878.1539415150037,,,,,,,,,,,,,,,,,,,,,,,,,,,,,,,,,1,,,,,,,,,,,,,,,,,,,,,,,,,,,,,,,,,,,,,,,,,,,,,,54,159001,22,Male,1,2024/02/13_16:07:21,YZ,60.15377240986091,
,,,,,,test,1,1,1,1472,1,S,0,right,0.6923670630058041,1,0,,,,,,,,,,,,,,,,,,,,,1,,,,,,,,,,,,,,,,,,,,,,,,,,,,,,,,,,,,,,,,,,,,,,54,159001,22,Male,1,2024/02/13_16:07:21,YZ,60.15377240986091,
,,,,,,test,1,1,1,1472,2,S,1,left,0.5136647159961285,1,0,,,,,,,,,,,,,,,,,,,,,1,,,,,,,,,,,,,,,,,,,,,,,,,,,,,,,,,,,,,,,,,,,,,,54,159001,22,Male,1,2024/02/13_16:07:21,YZ,60.15377240986091,
,,,,,,test,1,1,1,1472,3,Q,0,right,0.6339771820057649,1,0,,,,,,,,,,,,,,,,,,,,,1,,,,,,,,,,,,,,,,,,,,,,,,,,,,,,,,,,,,,,,,,,,,,,54,159001,22,Male,1,2024/02/13_16:07:21,YZ,60.15377240986091,
,,,,,,test,1,1,1,1472,4,F,0,right,0.39896027601207606,1,0,,,,,,,,,,,,,,,,,,,,,1,,,,,,,,,,,,,,,,,,,,,,,,,,,,,,,,,,,,,,,,,,,,,,54,159001,22,Male,1,2024/02/13_16:07:21,YZ,60.15377240986091,
,,,,,,test,1,1,1,1472,5,F,1,left,0.4060252540075453,1,0,,,,,,,,,,,,,,,,,,,,,1,,,,,,,,,,,,,,,,,,,,,,,,,,,,,,,,,,,,,,,,,,,,,,54,159001,22,Male,1,2024/02/13_16:07:21,YZ,60.15377240986091,
,,,,,,test,1,1,1,1472,6,N,0,right,0.3559443569974974,1,0,,,,,,,,,,,,,,,,,,,,,1,,,,,,,,,,,,,,,,,,,,,,,,,,,,,,,,,,,,,,,,,,,,,,54,159001,22,Male,1,2024/02/13_16:07:21,YZ,60.15377240986091,
,,,,,,test,1,1,1,1472,7,V,0,right,0.3732926640077494,1,0,,,,,,,,,,,,,,,,,,,,,1,,,,,,,,,,,,,,,,,,,,,,,,,,,,,,,,,,,,,,,,,,,,,,54,159001,22,Male,1,2024/02/13_16:07:21,YZ,60.15377240986091,
,,,,,,test,1,1,1,1472,8,J,0,right,0.38413335400400683,1,0,,,,,,,,,,,,,,,,,,,,,1,,,,,,,,,,,,,,,,,,,,,,,,,,,,,,,,,,,,,,,,,,,,,,54,159001,22,Male,1,2024/02/13_16:07:21,YZ,60.15377240986091,
,,,,,,test,1,1,1,1472,9,J,1,left,0.3500172170024598,1,0,,,,,,,,,,,,,,,,,,,,,1,,,,,,,,,,,,,,,,,,,,,,,,,,,,,,,,,,,,,,,,,,,,,,54,159001,22,Male,1,2024/02/13_16:07:21,YZ,60.15377240986091,
,,,,,,Test,1,1,1,1472,,,,,,,,1.0,1.0,0.0,1.0,0.0,1.0,0.456486898115448,3,0,0,0,0,6,9,3,6,0,,,,1,,,,,,,,,,,,,,,,,,,,,,,,,,,,,,,,,,,,,,,,,,,,,,54,159001,22,Male,1,2024/02/13_16:07:21,YZ,60.15377240986091,
,,,,,240213_164819,TEST,1,1,1,1472,,,,,,,,,,,,,,,,,,,,,,,,,,,,1,1,1,1,cue2.png,easy,B,1,1.5355113110126695,0,883.2029957159975,884.7586486900109,,,,,,,,,,,,,,,,,,,,,,,,,,,,,,,,,,,54,159001,22,Male,1,2024/02/13_16:07:21,YZ,60.15377240986091,
,,,,,,test,1,2,3,1472,1,Q,0,right,0.45870360000117216,1,0,,,,,,,,,,,,,,,,,,,,,1,,,,,,,,,,,,,,,,,,,,,,,,,,,,,,,,,,,,,,,,,,,,,,54,159001,22,Male,1,2024/02/13_16:07:21,YZ,60.15377240986091,
,,,,,,test,1,2,3,1472,2,F,0,right,0.6784347190114204,1,0,,,,,,,,,,,,,,,,,,,,,1,,,,,,,,,,,,,,,,,,,,,,,,,,,,,,,,,,,,,,,,,,,,,,54,159001,22,Male,1,2024/02/13_16:07:21,YZ,60.15377240986091,
,,,,,,test,1,2,3,1472,3,X,0,right,0.3424311840062728,1,0,,,,,,,,,,,,,,,,,,,,,1,,,,,,,,,,,,,,,,,,,,,,,,,,,,,,,,,,,,,,,,,,,,,,54,159001,22,Male,1,2024/02/13_16:07:21,YZ,60.15377240986091,
,,,,,,test,1,2,3,1472,4,X,0,right,0.38455385800625663,1,0,,,,,,,,,,,,,,,,,,,,,1,,,,,,,,,,,,,,,,,,,,,,,,,,,,,,,,,,,,,,,,,,,,,,54,159001,22,Male,1,2024/02/13_16:07:21,YZ,60.15377240986091,
,,,,,,test,1,2,3,1472,5,F,1,right,0.38247721300285775,0,0,,,,,,,,,,,,,,,,,,,,,1,,,,,,,,,,,,,,,,,,,,,,,,,,,,,,,,,,,,,,,,,,,,,,54,159001,22,Male,1,2024/02/13_16:07:21,YZ,60.15377240986091,
,,,,,,test,1,2,3,1472,6,X,1,left,0.31634167399897706,1,0,,,,,,,,,,,,,,,,,,,,,1,,,,,,,,,,,,,,,,,,,,,,,,,,,,,,,,,,,,,,,,,,,,,,54,159001,22,Male,1,2024/02/13_16:07:21,YZ,60.15377240986091,
,,,,,,test,1,2,3,1472,7,J,0,right,0.28637469199020416,1,0,,,,,,,,,,,,,,,,,,,,,1,,,,,,,,,,,,,,,,,,,,,,,,,,,,,,,,,,,,,,,,,,,,,,54,159001,22,Male,1,2024/02/13_16:07:21,YZ,60.15377240986091,
,,,,,,test,1,2,3,1472,8,F,1,right,0.3521031389973359,0,0,,,,,,,,,,,,,,,,,,,,,1,,,,,,,,,,,,,,,,,,,,,,,,,,,,,,,,,,,,,,,,,,,,,,54,159001,22,Male,1,2024/02/13_16:07:21,YZ,60.15377240986091,
,,,,,,test,1,2,3,1472,9,F,0,left,0.31583359400974587,0,0,,,,,,,,,,,,,,,,,,,,,1,,,,,,,,,,,,,,,,,,,,,,,,,,,,,,,,,,,,,,,,,,,,,,54,159001,22,Male,1,2024/02/13_16:07:21,YZ,60.15377240986091,
,,,,,,Test,1,2,3,1472,,,,,,,,0.6666666666666666,0.3333333333333333,0.16666666666666666,0.8333333333333334,0.0,0.8333333333333334,0.3908059636693603,1,1,0,0,0,5,6,3,6,0,,,,1,,,,,,,,,,,,,,,,,,,,,,,,,,,,,,,,,,,,,,,,,,,,,,54,159001,22,Male,1,2024/02/13_16:07:21,YZ,60.15377240986091,
,,,,,240213_164837,TEST,1,2,3,1472,,,,,,,,,,,,,,,,,,,,,,,,,,,,1,2,2,2,cue1.png,hard,B,41,0.8845779539988143,0,902.767344264008,903.6725175129977,,,,,,,,,,,,,,,,,,,,,,,,,,,,,,,,,,,54,159001,22,Male,1,2024/02/13_16:07:21,YZ,60.15377240986091,
,,,,,,test,1,3,3,1472,1,F,0,right,0.49787177199323196,1,0,,,,,,,,,,,,,,,,,,,,,1,,,,,,,,,,,,,,,,,,,,,,,,,,,,,,,,,,,,,,,,,,,,,,54,159001,22,Male,1,2024/02/13_16:07:21,YZ,60.15377240986091,
,,,,,,test,1,3,3,1472,2,J,0,right,0.37385277599969413,1,0,,,,,,,,,,,,,,,,,,,,,1,,,,,,,,,,,,,,,,,,,,,,,,,,,,,,,,,,,,,,,,,,,,,,54,159001,22,Male,1,2024/02/13_16:07:21,YZ,60.15377240986091,
,,,,,,test,1,3,3,1472,3,F,0,right,0.5813588410092052,1,0,,,,,,,,,,,,,,,,,,,,,1,,,,,,,,,,,,,,,,,,,,,,,,,,,,,,,,,,,,,,,,,,,,,,54,159001,22,Male,1,2024/02/13_16:07:21,YZ,60.15377240986091,
,,,,,,test,1,3,3,1472,4,S,0,left,0.3274219559971243,0,0,,,,,,,,,,,,,,,,,,,,,1,,,,,,,,,,,,,,,,,,,,,,,,,,,,,,,,,,,,,,,,,,,,,,54,159001,22,Male,1,2024/02/13_16:07:21,YZ,60.15377240986091,
,,,,,,test,1,3,3,1472,5,J,1,right,0.3525842939998256,0,0,,,,,,,,,,,,,,,,,,,,,1,,,,,,,,,,,,,,,,,,,,,,,,,,,,,,,,,,,,,,,,,,,,,,54,159001,22,Male,1,2024/02/13_16:07:21,YZ,60.15377240986091,
,,,,,,test,1,3,3,1472,6,F,1,left,0.5598536119941855,1,0,,,,,,,,,,,,,,,,,,,,,1,,,,,,,,,,,,,,,,,,,,,,,,,,,,,,,,,,,,,,,,,,,,,,54,159001,22,Male,1,2024/02/13_16:07:21,YZ,60.15377240986091,
,,,,,,test,1,3,3,1472,7,X,0,right,0.41942946999915875,1,0,,,,,,,,,,,,,,,,,,,,,1,,,,,,,,,,,,,,,,,,,,,,,,,,,,,,,,,,,,,,,,,,,,,,54,159001,22,Male,1,2024/02/13_16:07:21,YZ,60.15377240986091,
,,,,,,test,1,3,3,1472,8,J,1,left,0.48511601200152654,1,0,,,,,,,,,,,,,,,,,,,,,1,,,,,,,,,,,,,,,,,,,,,,,,,,,,,,,,,,,,,,,,,,,,,,54,159001,22,Male,1,2024/02/13_16:07:21,YZ,60.15377240986091,
,,,,,,test,1,3,3,1472,9,Q,0,right,0.3562062050041277,1,0,,,,,,,,,,,,,,,,,,,,,1,,,,,,,,,,,,,,,,,,,,,,,,,,,,,,,,,,,,,,,,,,,,,,54,159001,22,Male,1,2024/02/13_16:07:21,YZ,60.15377240986091,
,,,,,,Test,1,3,3,1472,,,,,,,,0.8194444444444444,0.6666666666666666,0.16666666666666666,0.8333333333333334,0.0,0.8333333333333334,0.4392994375553422,2,1,0,0,0,5,7,3,6,0,,,,1,,,,,,,,,,,,,,,,,,,,,,,,,,,,,,,,,,,,,,,,,,,,,,54,159001,22,Male,1,2024/02/13_16:07:21,YZ,60.15377240986091,
,,,,,240213_164856,TEST,1,3,3,1472,,,,,,,,,,,,,,,,,,,,,,,,,,,,1,3,3,3,cue1.png,hard,B,36,0.9008624780108221,0,921.0479350340029,921.9708426500001,,,,,,,,,,,,,,,,,,,,,,,,,,,,,,,,,,,54,159001,22,Male,1,2024/02/13_16:07:21,YZ,60.15377240986091,
,,,,,,test,1,4,3,1472,1,J,0,right,0.38127314699522685,1,0,,,,,,,,,,,,,,,,,,,,,1,,,,,,,,,,,,,,,,,,,,,,,,,,,,,,,,,,,,,,,,,,,,,,54,159001,22,Male,1,2024/02/13_16:07:21,YZ,60.15377240986091,
,,,,,,test,1,4,3,1472,2,V,0,right,0.3813327989919344,1,0,,,,,,,,,,,,,,,,,,,,,1,,,,,,,,,,,,,,,,,,,,,,,,,,,,,,,,,,,,,,,,,,,,,,54,159001,22,Male,1,2024/02/13_16:07:21,YZ,60.15377240986091,
,,,,,,test,1,4,3,1472,3,C,0,right,0.37687666800047737,1,0,,,,,,,,,,,,,,,,,,,,,1,,,,,,,,,,,,,,,,,,,,,,,,,,,,,,,,,,,,,,,,,,,,,,54,159001,22,Male,1,2024/02/13_16:07:21,YZ,60.15377240986091,
,,,,,,test,1,4,3,1472,4,V,0,right,0.3490299669938395,1,0,,,,,,,,,,,,,,,,,,,,,1,,,,,,,,,,,,,,,,,,,,,,,,,,,,,,,,,,,,,,,,,,,,,,54,159001,22,Male,1,2024/02/13_16:07:21,YZ,60.15377240986091,
,,,,,,test,1,4,3,1472,5,V,1,right,0.4270984699978726,0,0,,,,,,,,,,,,,,,,,,,,,1,,,,,,,,,,,,,,,,,,,,,,,,,,,,,,,,,,,,,,,,,,,,,,54,159001,22,Male,1,2024/02/13_16:07:21,YZ,60.15377240986091,
,,,,,,test,1,4,3,1472,6,Q,0,right,0.31735033700533677,1,0,,,,,,,,,,,,,,,,,,,,,1,,,,,,,,,,,,,,,,,,,,,,,,,,,,,,,,,,,,,,,,,,,,,,54,159001,22,Male,1,2024/02/13_16:07:21,YZ,60.15377240986091,
,,,,,,test,1,4,3,1472,7,V,1,left,0.5264429160015425,1,0,,,,,,,,,,,,,,,,,,,,,1,,,,,,,,,,,,,,,,,,,,,,,,,,,,,,,,,,,,,,,,,,,,,,54,159001,22,Male,1,2024/02/13_16:07:21,YZ,60.15377240986091,
,,,,,,test,1,4,3,1472,8,V,1,left,0.4377843280090019,1,0,,,,,,,,,,,,,,,,,,,,,1,,,,,,,,,,,,,,,,,,,,,,,,,,,,,,,,,,,,,,,,,,,,,,54,159001,22,Male,1,2024/02/13_16:07:21,YZ,60.15377240986091,
,,,,,,test,1,4,3,1472,9,N,0,left,0.4639932870049961,0,0,,,,,,,,,,,,,,,,,,,,,1,,,,,,,,,,,,,,,,,,,,,,,,,,,,,,,,,,,,,,,,,,,,,,54,159001,22,Male,1,2024/02/13_16:07:21,YZ,60.15377240986091,
,,,,,,Test,1,4,3,1472,,,,,,,,0.8194444444444444,0.6666666666666666,0.16666666666666666,0.8333333333333334,0.0,0.8333333333333334,0.40679799100002534,2,1,0,0,0,5,7,3,6,0,,,,1,,,,,,,,,,,,,,,,,,,,,,,,,,,,,,,,,,,,,,,,,,,,,,54,159001,22,Male,1,2024/02/13_16:07:21,YZ,60.15377240986091,
,,,,,240213_164914,TEST,1,4,3,1472,,,,,,,,,,,,,,,,,,,,,,,,,,,,1,4,4,4,cue1.png,hard,B,43,0.7030777430045418,0,939.7978340609989,940.5157105690014,,,,,,,,,,,,,,,,,,,,,,,,,,,,,,,,,,,54,159001,22,Male,1,2024/02/13_16:07:21,YZ,60.15377240986091,
,,,,,,test,1,5,1,1472,1,F,0,right,0.4671815490000881,1,0,,,,,,,,,,,,,,,,,,,,,1,,,,,,,,,,,,,,,,,,,,,,,,,,,,,,,,,,,,,,,,,,,,,,54,159001,22,Male,1,2024/02/13_16:07:21,YZ,60.15377240986091,
,,,,,,test,1,5,1,1472,2,S,0,right,0.29356845299480483,1,0,,,,,,,,,,,,,,,,,,,,,1,,,,,,,,,,,,,,,,,,,,,,,,,,,,,,,,,,,,,,,,,,,,,,54,159001,22,Male,1,2024/02/13_16:07:21,YZ,60.15377240986091,
,,,,,,test,1,5,1,1472,3,X,0,right,0.4036797799926717,1,0,,,,,,,,,,,,,,,,,,,,,1,,,,,,,,,,,,,,,,,,,,,,,,,,,,,,,,,,,,,,,,,,,,,,54,159001,22,Male,1,2024/02/13_16:07:21,YZ,60.15377240986091,
,,,,,,test,1,5,1,1472,4,N,0,right,0.3738938870083075,1,0,,,,,,,,,,,,,,,,,,,,,1,,,,,,,,,,,,,,,,,,,,,,,,,,,,,,,,,,,,,,,,,,,,,,54,159001,22,Male,1,2024/02/13_16:07:21,YZ,60.15377240986091,
,,,,,,test,1,5,1,1472,5,N,1,left,0.3354683850047877,1,0,,,,,,,,,,,,,,,,,,,,,1,,,,,,,,,,,,,,,,,,,,,,,,,,,,,,,,,,,,,,,,,,,,,,54,159001,22,Male,1,2024/02/13_16:07:21,YZ,60.15377240986091,
,,,,,,test,1,5,1,1472,6,F,0,right,0.762099493003916,1,0,,,,,,,,,,,,,,,,,,,,,1,,,,,,,,,,,,,,,,,,,,,,,,,,,,,,,,,,,,,,,,,,,,,,54,159001,22,Male,1,2024/02/13_16:07:21,YZ,60.15377240986091,
,,,,,,test,1,5,1,1472,7,F,1,right,0.47372954500315245,0,0,,,,,,,,,,,,,,,,,,,,,1,,,,,,,,,,,,,,,,,,,,,,,,,,,,,,,,,,,,,,,,,,,,,,54,159001,22,Male,1,2024/02/13_16:07:21,YZ,60.15377240986091,
,,,,,,test,1,5,1,1472,8,C,0,right,0.54267176000576,1,0,,,,,,,,,,,,,,,,,,,,,1,,,,,,,,,,,,,,,,,,,,,,,,,,,,,,,,,,,,,,,,,,,,,,54,159001,22,Male,1,2024/02/13_16:07:21,YZ,60.15377240986091,
,,,,,,test,1,5,1,1472,9,C,1,left,0.6636065969942138,1,0,,,,,,,,,,,,,,,,,,,,,1,,,,,,,,,,,,,,,,,,,,,,,,,,,,,,,,,,,,,,,,,,,,,,54,159001,22,Male,1,2024/02/13_16:07:21,YZ,60.15377240986091,
,,,,,,Test,1,5,1,1472,,,,,,,,0.9166666666666666,0.6666666666666666,0.0,1.0,0.0,1.0,0.479544383223078,2,0,0,0,0,6,8,3,6,0,,,,1,,,,,,,,,,,,,,,,,,,,,,,,,,,,,,,,,,,,,,,,,,,,,,54,159001,22,Male,1,2024/02/13_16:07:21,YZ,60.15377240986091,
,,,,,240213_164933,TEST,1,5,1,1472,,,,,,,,,,,,,,,,,,,,,,,,,,,,1,5,5,5,cue2.png,easy,B,12,0.9696978449937887,0,958.023709852001,959.0301021890045,,,,,,,,,,,,,,,,,,,,,,,,,,,,,,,,,,,54,159001,22,Male,1,2024/02/13_16:07:21,YZ,60.15377240986091,
,,,,,,test,1,6,3,1472,1,V,0,right,0.4183625750010833,1,0,,,,,,,,,,,,,,,,,,,,,1,,,,,,,,,,,,,,,,,,,,,,,,,,,,,,,,,,,,,,,,,,,,,,54,159001,22,Male,1,2024/02/13_16:07:21,YZ,60.15377240986091,
,,,,,,test,1,6,3,1472,2,Q,0,right,0.2608375319978222,1,0,,,,,,,,,,,,,,,,,,,,,1,,,,,,,,,,,,,,,,,,,,,,,,,,,,,,,,,,,,,,,,,,,,,,54,159001,22,Male,1,2024/02/13_16:07:21,YZ,60.15377240986091,
,,,,,,test,1,6,3,1472,3,C,0,right,0.2972170599969104,1,0,,,,,,,,,,,,,,,,,,,,,1,,,,,,,,,,,,,,,,,,,,,,,,,,,,,,,,,,,,,,,,,,,,,,54,159001,22,Male,1,2024/02/13_16:07:21,YZ,60.15377240986091,
,,,,,,test,1,6,3,1472,4,F,0,right,0.5138445850025164,1,0,,,,,,,,,,,,,,,,,,,,,1,,,,,,,,,,,,,,,,,,,,,,,,,,,,,,,,,,,,,,,,,,,,,,54,159001,22,Male,1,2024/02/13_16:07:21,YZ,60.15377240986091,
,,,,,,test,1,6,3,1472,5,X,0,right,0.32862615000340156,1,0,,,,,,,,,,,,,,,,,,,,,1,,,,,,,,,,,,,,,,,,,,,,,,,,,,,,,,,,,,,,,,,,,,,,54,159001,22,Male,1,2024/02/13_16:07:21,YZ,60.15377240986091,
,,,,,,test,1,6,3,1472,6,C,1,right,0.33619482499489095,0,0,,,,,,,,,,,,,,,,,,,,,1,,,,,,,,,,,,,,,,,,,,,,,,,,,,,,,,,,,,,,,,,,,,,,54,159001,22,Male,1,2024/02/13_16:07:21,YZ,60.15377240986091,
,,,,,,test,1,6,3,1472,7,F,1,left,0.5961471850023372,1,0,,,,,,,,,,,,,,,,,,,,,1,,,,,,,,,,,,,,,,,,,,,,,,,,,,,,,,,,,,,,,,,,,,,,54,159001,22,Male,1,2024/02/13_16:07:21,YZ,60.15377240986091,
,,,,,,test,1,6,3,1472,8,C,0,left,0.3166540480015101,0,0,,,,,,,,,,,,,,,,,,,,,1,,,,,,,,,,,,,,,,,,,,,,,,,,,,,,,,,,,,,,,,,,,,,,54,159001,22,Male,1,2024/02/13_16:07:21,YZ,60.15377240986091,
,,,,,,test,1,6,3,1472,9,C,1,left,0.3884547010093229,1,0,,,,,,,,,,,,,,,,,,,,,1,,,,,,,,,,,,,,,,,,,,,,,,,,,,,,,,,,,,,,,,,,,,,,54,159001,22,Male,1,2024/02/13_16:07:21,YZ,60.15377240986091,
,,,,,,Test,1,6,3,1472,,,,,,,,0.8194444444444444,0.6666666666666666,0.16666666666666666,0.8333333333333334,0.0,0.8333333333333334,0.38403762900108834,2,1,0,0,0,5,7,3,6,0,,,,1,,,,,,,,,,,,,,,,,,,,,,,,,,,,,,,,,,,,,,,,,,,,,,54,159001,22,Male,1,2024/02/13_16:07:21,YZ,60.15377240986091,
,,,,,240213_164951,TEST,1,6,3,1472,,,,,,,,,,,,,,,,,,,,,,,,,,,,1,6,6,6,cue1.png,hard,B,45,0.66791257901059,0,977.2384955730085,977.9266959740053,,,,,,,,,,,,,,,,,,,,,,,,,,,,,,,,,,,54,159001,22,Male,1,2024/02/13_16:07:21,YZ,60.15377240986091,
,,,,,,test,1,7,3,1472,1,X,0,right,0.39878176599449944,1,0,,,,,,,,,,,,,,,,,,,,,1,,,,,,,,,,,,,,,,,,,,,,,,,,,,,,,,,,,,,,,,,,,,,,54,159001,22,Male,1,2024/02/13_16:07:21,YZ,60.15377240986091,
,,,,,,test,1,7,3,1472,2,N,0,right,0.26856633700663224,1,0,,,,,,,,,,,,,,,,,,,,,1,,,,,,,,,,,,,,,,,,,,,,,,,,,,,,,,,,,,,,,,,,,,,,54,159001,22,Male,1,2024/02/13_16:07:21,YZ,60.15377240986091,
,,,,,,test,1,7,3,1472,3,N,0,right,0.2929767960013123,1,0,,,,,,,,,,,,,,,,,,,,,1,,,,,,,,,,,,,,,,,,,,,,,,,,,,,,,,,,,,,,,,,,,,,,54,159001,22,Male,1,2024/02/13_16:07:21,YZ,60.15377240986091,
,,,,,,test,1,7,3,1472,4,X,1,right,0.5130905479891226,0,0,,,,,,,,,,,,,,,,,,,,,1,,,,,,,,,,,,,,,,,,,,,,,,,,,,,,,,,,,,,,,,,,,,,,54,159001,22,Male,1,2024/02/13_16:07:21,YZ,60.15377240986091,
,,,,,,test,1,7,3,1472,5,N,1,left,0.4361473619937897,1,0,,,,,,,,,,,,,,,,,,,,,1,,,,,,,,,,,,,,,,,,,,,,,,,,,,,,,,,,,,,,,,,,,,,,54,159001,22,Male,1,2024/02/13_16:07:21,YZ,60.15377240986091,
,,,,,,test,1,7,3,1472,6,S,0,right,0.6272119609930087,1,0,,,,,,,,,,,,,,,,,,,,,1,,,,,,,,,,,,,,,,,,,,,,,,,,,,,,,,,,,,,,,,,,,,,,54,159001,22,Male,1,2024/02/13_16:07:21,YZ,60.15377240986091,
,,,,,,test,1,7,3,1472,7,X,1,right,0.47233250699355267,0,0,,,,,,,,,,,,,,,,,,,,,1,,,,,,,,,,,,,,,,,,,,,,,,,,,,,,,,,,,,,,,,,,,,,,54,159001,22,Male,1,2024/02/13_16:07:21,YZ,60.15377240986091,
,,,,,,test,1,7,3,1472,8,S,0,left,0.4462506830022903,0,0,,,,,,,,,,,,,,,,,,,,,1,,,,,,,,,,,,,,,,,,,,,,,,,,,,,,,,,,,,,,,,,,,,,,54,159001,22,Male,1,2024/02/13_16:07:21,YZ,60.15377240986091,
,,,,,,test,1,7,3,1472,9,N,0,right,0.5131192989938427,1,0,,,,,,,,,,,,,,,,,,,,,1,,,,,,,,,,,,,,,,,,,,,,,,,,,,,,,,,,,,,,,,,,,,,,54,159001,22,Male,1,2024/02/13_16:07:21,YZ,60.15377240986091,
,,,,,,Test,1,7,3,1472,,,,,,,,0.6666666666666666,0.3333333333333333,0.16666666666666666,0.8333333333333334,0.0,0.8333333333333334,0.44094191766311674,1,1,0,0,0,5,6,3,6,0,,,,1,,,,,,,,,,,,,,,,,,,,,,,,,,,,,,,,,,,,,,,,,,,,,,54,159001,22,Male,1,2024/02/13_16:07:21,YZ,60.15377240986091,
,,,,,240213_165010,TEST,1,7,3,1472,,,,,,,,,,,,,,,,,,,,,,,,,,,,1,7,7,7,cue1.png,hard,B,44,0.8358733659988502,0,995.2502355010074,996.1071686729993,,,,,,,,,,,,,,,,,,,,,,,,,,,,,,,,,,,54,159001,22,Male,1,2024/02/13_16:07:21,YZ,60.15377240986091,
,,,,,,test,1,8,1,1472,1,N,0,right,0.5946301489893813,1,0,,,,,,,,,,,,,,,,,,,,,1,,,,,,,,,,,,,,,,,,,,,,,,,,,,,,,,,,,,,,,,,,,,,,54,159001,22,Male,1,2024/02/13_16:07:21,YZ,60.15377240986091,
,,,,,,test,1,8,1,1472,2,N,1,left,0.3560090959945228,1,0,,,,,,,,,,,,,,,,,,,,,1,,,,,,,,,,,,,,,,,,,,,,,,,,,,,,,,,,,,,,,,,,,,,,54,159001,22,Male,1,2024/02/13_16:07:21,YZ,60.15377240986091,
,,,,,,test,1,8,1,1472,3,C,0,right,0.3577609279891476,1,0,,,,,,,,,,,,,,,,,,,,,1,,,,,,,,,,,,,,,,,,,,,,,,,,,,,,,,,,,,,,,,,,,,,,54,159001,22,Male,1,2024/02/13_16:07:21,YZ,60.15377240986091,
,,,,,,test,1,8,1,1472,4,V,0,right,0.35329591199115384,1,0,,,,,,,,,,,,,,,,,,,,,1,,,,,,,,,,,,,,,,,,,,,,,,,,,,,,,,,,,,,,,,,,,,,,54,159001,22,Male,1,2024/02/13_16:07:21,YZ,60.15377240986091,
,,,,,,test,1,8,1,1472,5,F,0,right,0.342919985007029,1,0,,,,,,,,,,,,,,,,,,,,,1,,,,,,,,,,,,,,,,,,,,,,,,,,,,,,,,,,,,,,,,,,,,,,54,159001,22,Male,1,2024/02/13_16:07:21,YZ,60.15377240986091,
,,,,,,test,1,8,1,1472,6,F,1,right,0.36262965100468136,0,0,,,,,,,,,,,,,,,,,,,,,1,,,,,,,,,,,,,,,,,,,,,,,,,,,,,,,,,,,,,,,,,,,,,,54,159001,22,Male,1,2024/02/13_16:07:21,YZ,60.15377240986091,
,,,,,,test,1,8,1,1472,7,N,0,left,0.4784367719985312,0,0,,,,,,,,,,,,,,,,,,,,,1,,,,,,,,,,,,,,,,,,,,,,,,,,,,,,,,,,,,,,,,,,,,,,54,159001,22,Male,1,2024/02/13_16:07:21,YZ,60.15377240986091,
,,,,,,test,1,8,1,1472,8,V,0,right,0.48593171800894197,1,0,,,,,,,,,,,,,,,,,,,,,1,,,,,,,,,,,,,,,,,,,,,,,,,,,,,,,,,,,,,,,,,,,,,,54,159001,22,Male,1,2024/02/13_16:07:21,YZ,60.15377240986091,
,,,,,,test,1,8,1,1472,9,V,1,left,0.5134736759937368,1,0,,,,,,,,,,,,,,,,,,,,,1,,,,,,,,,,,,,,,,,,,,,,,,,,,,,,,,,,,,,,,,,,,,,,54,159001,22,Male,1,2024/02/13_16:07:21,YZ,60.15377240986091,
,,,,,,Test,1,8,1,1472,,,,,,,,0.8194444444444444,0.6666666666666666,0.16666666666666666,0.8333333333333334,0.0,0.8333333333333334,0.4272319874419029,2,1,0,0,0,5,7,3,6,0,,,,1,,,,,,,,,,,,,,,,,,,,,,,,,,,,,,,,,,,,,,,,,,,,,,54,159001,22,Male,1,2024/02/13_16:07:21,YZ,60.15377240986091,
,,,,,240213_165029,TEST,1,8,1,1472,,,,,,,,,,,,,,,,,,,,,,,,,,,,1,8,8,8,cue2.png,easy,B,7,1.151825473003555,0,1013.9641975510021,1015.1371885810076,,,,,,,,,,,,,,,,,,,,,,,,,,,,,,,,,,,54,159001,22,Male,1,2024/02/13_16:07:21,YZ,60.15377240986091,
,,,,,,test,1,9,1,1472,1,X,0,right,0.5007224220025819,1,0,,,,,,,,,,,,,,,,,,,,,1,,,,,,,,,,,,,,,,,,,,,,,,,,,,,,,,,,,,,,,,,,,,,,54,159001,22,Male,1,2024/02/13_16:07:21,YZ,60.15377240986091,
,,,,,,test,1,9,1,1472,2,X,1,left,0.4182166929967934,1,0,,,,,,,,,,,,,,,,,,,,,1,,,,,,,,,,,,,,,,,,,,,,,,,,,,,,,,,,,,,,,,,,,,,,54,159001,22,Male,1,2024/02/13_16:07:21,YZ,60.15377240986091,
