Instruction,Stimulus,Key,RT,START,END,Phase,Block,TrialN,NbackLevel,ISI,LetterN,Letter,Letter_isSame,Letter_Resp,Letter_RT,Letter_Accuracy,Letter_Timeout,Trial_A_measure,Trial_HR,Trial_FAR,Trial_CDR,Trial_MSR,Trial_ACC,Trial_RT,Trial_HitsCount,Trial_FAsCount,Trial_SameNoRespCount,Trial_DiffNoRespCount,Trial_NoRespCount,Trial_CDsCount,Trial_CorrectRespCount,Trial_SameLetterCount,Trial_DiffLetterCount,Trial_InvalidLetterCount,TrialCountCali,CaliEnd_A_measure,ISI_calibrated,Run,TrialIndex,TrialNumber_total,TrialNumber_valid,CueLearning,TrialDemandLearning,CueMapping,OnlineRating,OnlineRatingRT,OnlineRatingTimeOut,CueSTART,RatingSTART,OfflineRatingTimePoint,OfflineRatingQuesIndex,CueFigure,TrialDemand,OfflineRating,OfflineRatingRT,CueStart,OfflineRatingStart,PhaseType,CueLeft,CueDemandLeft,CueRight,CueDemandRight,Choice,ChoiceDemand,TaskDemand,ChoiceRT,ChoiceTimeOut,ChoiceSTART,CueCheck,CueDemandCheck,CorrectAnswer,Answer,AnswerDemand,AnswerRT,AnswerACC,AnswerTimeOut,CheckSTART,DemandRatingQuesIndex,QuesTLX,DemandLevel,DemandRating,DemandRatingRT,QuesStart,PID,SONA,Age,Gender,Run,TIME,EXPERIMENTER,frameRate,
1,./instructions/inst_begin/Slide2.png,right,19.56642874699901,0.121285375993466,19.687714122992475,,,,,,,,,,,,,,,,,,,,,,,,,,,,,,,,,1,,,,,,,,,,,,,,,,,,,,,,,,,,,,,,,,,,,,,,,,,,,,,,105,146248,22,Female,1,2024/03/20_08:48:52,SD,None,
2,./instructions/inst_begin/Slide3.png,right,12.72260183900653,19.716988767992007,32.439590606998536,,,,,,,,,,,,,,,,,,,,,,,,,,,,,,,,,1,,,,,,,,,,,,,,,,,,,,,,,,,,,,,,,,,,,,,,,,,,,,,,105,146248,22,Female,1,2024/03/20_08:48:52,SD,None,
3,./instructions/inst_begin/Slide4.png,right,26.370417747995816,32.46892513199418,58.83934287999,,,,,,,,,,,,,,,,,,,,,,,,,,,,,,,,,1,,,,,,,,,,,,,,,,,,,,,,,,,,,,,,,,,,,,,,,,,,,,,,105,146248,22,Female,1,2024/03/20_08:48:52,SD,None,
1,./instructions/inst_prac_2/Slide6.png,right,16.29365009799949,58.87393726799928,75.16758736599877,,,,,,,,,,,,,,,,,,,,,,,,,,,,,,,,,1,,,,,,,,,,,,,,,,,,,,,,,,,,,,,,,,,,,,,,,,,,,,,,105,146248,22,Female,1,2024/03/20_08:48:52,SD,None,
2,./instructions/inst_prac_2/Slide7.png,right,22.44298148198868,75.19654524700309,97.63952672899177,,,,,,,,,,,,,,,,,,,,,,,,,,,,,,,,,1,,,,,,,,,,,,,,,,,,,,,,,,,,,,,,,,,,,,,,,,,,,,,,105,146248,22,Female,1,2024/03/20_08:48:52,SD,None,
3,./instructions/inst_prac_2/Slide8.png,right,14.028412726998795,97.66724042799615,111.69565315499494,,,,,,,,,,,,,,,,,,,,,,,,,,,,,,,,,1,,,,,,,,,,,,,,,,,,,,,,,,,,,,,,,,,,,,,,,,,,,,,,105,146248,22,Female,1,2024/03/20_08:48:52,SD,None,
4,./instructions/inst_prac_2/Slide9.png,right,3.0827702340029646,111.72471232200041,114.80748255600338,,,,,,,,,,,,,,,,,,,,,,,,,,,,,,,,,1,,,,,,,,,,,,,,,,,,,,,,,,,,,,,,,,,,,,,,,,,,,,,,105,146248,22,Female,1,2024/03/20_08:48:52,SD,None,
5,./instructions/inst_prac_2/Slide10.png,right,1.4194593590073055,114.83615489899239,116.2556142579997,,,,,,,,,,,,,,,,,,,,,,,,,,,,,,,,,1,,,,,,,,,,,,,,,,,,,,,,,,,,,,,,,,,,,,,,,,,,,,,,105,146248,22,Female,1,2024/03/20_08:48:52,SD,None,
6,./instructions/inst_prac_2/Slide11.png,right,1.0858277649967931,116.28164968200144,117.36747744699824,,,,,,,,,,,,,,,,,,,,,,,,,,,,,,,,,1,,,,,,,,,,,,,,,,,,,,,,,,,,,,,,,,,,,,,,,,,,,,,,105,146248,22,Female,1,2024/03/20_08:48:52,SD,None,
7,./instructions/inst_prac_2/Slide12.png,right,2.107482257008087,117.39603678499407,119.50351904200215,,,,,,,,,,,,,,,,,,,,,,,,,,,,,,,,,1,,,,,,,,,,,,,,,,,,,,,,,,,,,,,,,,,,,,,,,,,,,,,,105,146248,22,Female,1,2024/03/20_08:48:52,SD,None,
8,./instructions/inst_prac_2/Slide13.png,right,1.4755445780028822,119.53210677599418,121.00765135399706,,,,,,,,,,,,,,,,,,,,,,,,,,,,,,,,,1,,,,,,,,,,,,,,,,,,,,,,,,,,,,,,,,,,,,,,,,,,,,,,105,146248,22,Female,1,2024/03/20_08:48:52,SD,None,
9,./instructions/inst_prac_2/Slide14.png,right,13.196914403000847,121.03471834599623,134.23163274899707,,,,,,,,,,,,,,,,,,,,,,,,,,,,,,,,,1,,,,,,,,,,,,,,,,,,,,,,,,,,,,,,,,,,,,,,,,,,,,,,105,146248,22,Female,1,2024/03/20_08:48:52,SD,None,
10,./instructions/inst_prac_2/Slide15.png,right,11.259363606004626,134.26030593599717,145.5196695420018,,,,,,,,,,,,,,,,,,,,,,,,,,,,,,,,,1,,,,,,,,,,,,,,,,,,,,,,,,,,,,,,,,,,,,,,,,,,,,,,105,146248,22,Female,1,2024/03/20_08:48:52,SD,None,
,,,,,,practice,0,24,2,2583,1,N,0,right,2.956949209998129,1,0,,,,,,,,,,,,,,,,,,,,,1,,,,,,,,,,,,,,,,,,,,,,,,,,,,,,,,,,,,,,,,,,,,,,105,146248,22,Female,1,2024/03/20_08:48:52,SD,None,
,,,,,,practice,0,24,2,2583,2,J,0,right,1.1009389760001795,1,0,,,,,,,,,,,,,,,,,,,,,1,,,,,,,,,,,,,,,,,,,,,,,,,,,,,,,,,,,,,,,,,,,,,,105,146248,22,Female,1,2024/03/20_08:48:52,SD,None,
,,,,,,practice,0,24,2,2583,3,N,1,left,0.6654338639928028,1,0,,,,,,,,,,,,,,,,,,,,,1,,,,,,,,,,,,,,,,,,,,,,,,,,,,,,,,,,,,,,,,,,,,,,105,146248,22,Female,1,2024/03/20_08:48:52,SD,None,
,,,,,,practice,0,24,2,2583,4,Q,0,right,0.620309649995761,1,0,,,,,,,,,,,,,,,,,,,,,1,,,,,,,,,,,,,,,,,,,,,,,,,,,,,,,,,,,,,,,,,,,,,,105,146248,22,Female,1,2024/03/20_08:48:52,SD,None,
,,,,,,practice,0,24,2,2583,5,V,0,right,1.09632738000073,1,0,,,,,,,,,,,,,,,,,,,,,1,,,,,,,,,,,,,,,,,,,,,,,,,,,,,,,,,,,,,,,,,,,,,,105,146248,22,Female,1,2024/03/20_08:48:52,SD,None,
,,,,,,practice,0,24,2,2583,6,Q,1,left,0.7565224909922108,1,0,,,,,,,,,,,,,,,,,,,,,1,,,,,,,,,,,,,,,,,,,,,,,,,,,,,,,,,,,,,,,,,,,,,,105,146248,22,Female,1,2024/03/20_08:48:52,SD,None,
,,,,,,practice,0,24,2,2583,,,,,,,,1.0,1.0,0.0,1.0,0.0,1.0,1.1994135951633023,2,0,0,0,0,4,6,2,4,0,,,,1,,,,,,,,,,,,,,,,,,,,,,,,,,,,,,,,,,,,,,,,,,,,,,105,146248,22,Female,1,2024/03/20_08:48:52,SD,None,
1,./instructions/inst_to_cali/Slide20.png,right,4.473028353997506,159.06266786299238,163.5356962169899,,,,,,,,,,,,,,,,,,,,,,,,,,,,,,,,,1,,,,,,,,,,,,,,,,,,,,,,,,,,,,,,,,,,,,,,,,,,,,,,105,146248,22,Female,1,2024/03/20_08:48:52,SD,None,
1,./instructions/inst_cali/Slide22.png,right,1.8828678170102648,163.57267901099112,165.4555468280014,,,,,,,,,,,,,,,,,,,,,,,,,,,,,,,,,1,,,,,,,,,,,,,,,,,,,,,,,,,,,,,,,,,,,,,,,,,,,,,,105,146248,22,Female,1,2024/03/20_08:48:52,SD,None,
,,,,,,calibration,0,11,2,583,1,S,0,right,0.5122246870014351,1,0,,,,,,,,,,,,,,,,,,,,,1,,,,,,,,,,,,,,,,,,,,,,,,,,,,,,,,,,,,,,,,,,,,,,105,146248,22,Female,1,2024/03/20_08:48:52,SD,None,
,,,,,,calibration,0,11,2,583,2,C,0,right,0.8420393989945296,1,0,,,,,,,,,,,,,,,,,,,,,1,,,,,,,,,,,,,,,,,,,,,,,,,,,,,,,,,,,,,,,,,,,,,,105,146248,22,Female,1,2024/03/20_08:48:52,SD,None,
,,,,,,calibration,0,11,2,583,3,N,0,right,1.221947252008249,1,0,,,,,,,,,,,,,,,,,,,,,1,,,,,,,,,,,,,,,,,,,,,,,,,,,,,,,,,,,,,,,,,,,,,,105,146248,22,Female,1,2024/03/20_08:48:52,SD,None,
,,,,,,calibration,0,11,2,583,4,S,0,left,0.9873883469990687,0,0,,,,,,,,,,,,,,,,,,,,,1,,,,,,,,,,,,,,,,,,,,,,,,,,,,,,,,,,,,,,,,,,,,,,105,146248,22,Female,1,2024/03/20_08:48:52,SD,None,
,,,,,,calibration,0,11,2,583,5,N,1,right,0.8691742530063493,0,0,,,,,,,,,,,,,,,,,,,,,1,,,,,,,,,,,,,,,,,,,,,,,,,,,,,,,,,,,,,,,,,,,,,,105,146248,22,Female,1,2024/03/20_08:48:52,SD,None,
,,,,,,calibration,0,11,2,583,6,C,0,left,1.1209315809974214,0,0,,,,,,,,,,,,,,,,,,,,,1,,,,,,,,,,,,,,,,,,,,,,,,,,,,,,,,,,,,,,,,,,,,,,105,146248,22,Female,1,2024/03/20_08:48:52,SD,None,
,,,,,,calibration,0,11,2,583,7,S,0,left,1.1572573570010718,0,0,,,,,,,,,,,,,,,,,,,,,1,,,,,,,,,,,,,,,,,,,,,,,,,,,,,,,,,,,,,,,,,,,,,,105,146248,22,Female,1,2024/03/20_08:48:52,SD,None,
,,,,,,calibration,0,11,2,583,8,Q,0,right,0.8032389520085417,1,0,,,,,,,,,,,,,,,,,,,,,1,,,,,,,,,,,,,,,,,,,,,,,,,,,,,,,,,,,,,,,,,,,,,,105,146248,22,Female,1,2024/03/20_08:48:52,SD,None,
,,,,,,calibration,0,11,2,583,9,X,0,right,1.0186556100088637,1,0,,,,,,,,,,,,,,,,,,,,,1,,,,,,,,,,,,,,,,,,,,,,,,,,,,,,,,,,,,,,,,,,,,,,105,146248,22,Female,1,2024/03/20_08:48:52,SD,None,
,,,,,,calibration,0,11,2,583,10,J,0,right,0.8272498790029204,1,0,,,,,,,,,,,,,,,,,,,,,1,,,,,,,,,,,,,,,,,,,,,,,,,,,,,,,,,,,,,,,,,,,,,,105,146248,22,Female,1,2024/03/20_08:48:52,SD,None,
,,,,,,calibration,0,11,2,583,11,X,1,left,0.6489505909994477,1,0,,,,,,,,,,,,,,,,,,,,,1,,,,,,,,,,,,,,,,,,,,,,,,,,,,,,,,,,,,,,,,,,,,,,105,146248,22,Female,1,2024/03/20_08:48:52,SD,None,
,,,,,,calibration,0,11,2,583,12,Q,0,right,0.9586765920103062,1,0,,,,,,,,,,,,,,,,,,,,,1,,,,,,,,,,,,,,,,,,,,,,,,,,,,,,,,,,,,,,,,,,,,,,105,146248,22,Female,1,2024/03/20_08:48:52,SD,None,
,,,,,,calibration,0,11,2,583,13,X,1,left,0.8105585190060083,1,0,,,,,,,,,,,,,,,,,,,,,1,,,,,,,,,,,,,,,,,,,,,,,,,,,,,,,,,,,,,,,,,,,,,,105,146248,22,Female,1,2024/03/20_08:48:52,SD,None,
,,,,,,calibration,0,11,2,583,14,Q,1,left,0.9158543310040841,1,0,,,,,,,,,,,,,,,,,,,,,1,,,,,,,,,,,,,,,,,,,,,,,,,,,,,,,,,,,,,,,,,,,,,,105,146248,22,Female,1,2024/03/20_08:48:52,SD,None,
,,,,,,calibration,0,11,2,583,15,F,0,right,0.8001960649999091,1,0,,,,,,,,,,,,,,,,,,,,,1,,,,,,,,,,,,,,,,,,,,,,,,,,,,,,,,,,,,,,,,,,,,,,105,146248,22,Female,1,2024/03/20_08:48:52,SD,None,
,,,,,,calibration,0,11,2,583,,,,,,,,0.8011363636363638,0.75,0.2727272727272727,0.7272727272727273,0.0,0.7272727272727273,0.8996228943365471,3,3,0,0,0,8,11,4,11,0,,,,1,,,,,,,,,,,,,,,,,,,,,,,,,,,,,,,,,,,,,,,,,,,,,,105,146248,22,Female,1,2024/03/20_08:48:52,SD,None,
,,,,,,Calibration,0,,2,583,,,,,,,,,,,,,,,,,,,,,,,,,1,,,1,,,,,,,,,,,,,,,,,,,,,,,,,,,,,,,,,,,,,,,,,,,,,,105,146248,22,Female,1,2024/03/20_08:48:52,SD,None,
,,,,,,calibration,0,26,2,583,1,C,0,right,0.8592053369939094,1,0,,,,,,,,,,,,,,,,,,,,,1,,,,,,,,,,,,,,,,,,,,,,,,,,,,,,,,,,,,,,,,,,,,,,105,146248,22,Female,1,2024/03/20_08:48:52,SD,None,
,,,,,,calibration,0,26,2,583,2,J,0,right,0.8368049349955982,1,0,,,,,,,,,,,,,,,,,,,,,1,,,,,,,,,,,,,,,,,,,,,,,,,,,,,,,,,,,,,,,,,,,,,,105,146248,22,Female,1,2024/03/20_08:48:52,SD,None,
,,,,,,calibration,0,26,2,583,3,Q,0,right,0.905278318998171,1,0,,,,,,,,,,,,,,,,,,,,,1,,,,,,,,,,,,,,,,,,,,,,,,,,,,,,,,,,,,,,,,,,,,,,105,146248,22,Female,1,2024/03/20_08:48:52,SD,None,
,,,,,,calibration,0,26,2,583,4,V,0,right,0.7722857120097615,1,0,,,,,,,,,,,,,,,,,,,,,1,,,,,,,,,,,,,,,,,,,,,,,,,,,,,,,,,,,,,,,,,,,,,,105,146248,22,Female,1,2024/03/20_08:48:52,SD,None,
,,,,,,calibration,0,26,2,583,5,N,0,right,0.7579402059927816,1,0,,,,,,,,,,,,,,,,,,,,,1,,,,,,,,,,,,,,,,,,,,,,,,,,,,,,,,,,,,,,,,,,,,,,105,146248,22,Female,1,2024/03/20_08:48:52,SD,None,
,,,,,,calibration,0,26,2,583,6,V,1,left,0.553010980002,1,0,,,,,,,,,,,,,,,,,,,,,1,,,,,,,,,,,,,,,,,,,,,,,,,,,,,,,,,,,,,,,,,,,,,,105,146248,22,Female,1,2024/03/20_08:48:52,SD,None,
,,,,,,calibration,0,26,2,583,7,N,1,left,0.8367606160027208,1,0,,,,,,,,,,,,,,,,,,,,,1,,,,,,,,,,,,,,,,,,,,,,,,,,,,,,,,,,,,,,,,,,,,,,105,146248,22,Female,1,2024/03/20_08:48:52,SD,None,
,,,,,,calibration,0,26,2,583,8,J,0,right,0.6973258640064159,1,0,,,,,,,,,,,,,,,,,,,,,1,,,,,,,,,,,,,,,,,,,,,,,,,,,,,,,,,,,,,,,,,,,,,,105,146248,22,Female,1,2024/03/20_08:48:52,SD,None,
,,,,,,calibration,0,26,2,583,9,N,1,left,1.1092545629944652,1,0,,,,,,,,,,,,,,,,,,,,,1,,,,,,,,,,,,,,,,,,,,,,,,,,,,,,,,,,,,,,,,,,,,,,105,146248,22,Female,1,2024/03/20_08:48:52,SD,None,
,,,,,,calibration,0,26,2,583,10,C,0,right,0.903068986008293,1,0,,,,,,,,,,,,,,,,,,,,,1,,,,,,,,,,,,,,,,,,,,,,,,,,,,,,,,,,,,,,,,,,,,,,105,146248,22,Female,1,2024/03/20_08:48:52,SD,None,
,,,,,,calibration,0,26,2,583,11,J,0,left,0.9621863490028773,0,0,,,,,,,,,,,,,,,,,,,,,1,,,,,,,,,,,,,,,,,,,,,,,,,,,,,,,,,,,,,,,,,,,,,,105,146248,22,Female,1,2024/03/20_08:48:52,SD,None,
,,,,,,calibration,0,26,2,583,12,X,0,right,0.7593905350076966,1,0,,,,,,,,,,,,,,,,,,,,,1,,,,,,,,,,,,,,,,,,,,,,,,,,,,,,,,,,,,,,,,,,,,,,105,146248,22,Female,1,2024/03/20_08:48:52,SD,None,
,,,,,,calibration,0,26,2,583,13,Q,0,right,0.5523517319961684,1,0,,,,,,,,,,,,,,,,,,,,,1,,,,,,,,,,,,,,,,,,,,,,,,,,,,,,,,,,,,,,,,,,,,,,105,146248,22,Female,1,2024/03/20_08:48:52,SD,None,
,,,,,,calibration,0,26,2,583,14,X,1,left,0.8619987980055157,1,0,,,,,,,,,,,,,,,,,,,,,1,,,,,,,,,,,,,,,,,,,,,,,,,,,,,,,,,,,,,,,,,,,,,,105,146248,22,Female,1,2024/03/20_08:48:52,SD,None,
,,,,,,calibration,0,26,2,583,15,J,0,right,0.574400366996997,1,0,,,,,,,,,,,,,,,,,,,,,1,,,,,,,,,,,,,,,,,,,,,,,,,,,,,,,,,,,,,,,,,,,,,,105,146248,22,Female,1,2024/03/20_08:48:52,SD,None,
,,,,,,calibration,0,26,2,583,,,,,,,,0.9772727272727273,1.0,0.09090909090909091,0.9090909090909091,0.0,0.9090909090909091,0.7960842199342247,4,1,0,0,0,10,14,4,11,0,,,,1,,,,,,,,,,,,,,,,,,,,,,,,,,,,,,,,,,,,,,,,,,,,,,105,146248,22,Female,1,2024/03/20_08:48:52,SD,None,
,,,,,,Calibration,0,,2,583,,,,,,,,,,,,,,,,,,,,,,,,,2,,,1,,,,,,,,,,,,,,,,,,,,,,,,,,,,,,,,,,,,,,,,,,,,,,105,146248,22,Female,1,2024/03/20_08:48:52,SD,None,
,,,,,,calibration,0,14,2,500,1,Q,0,right,0.47326299198903143,1,0,,,,,,,,,,,,,,,,,,,,,1,,,,,,,,,,,,,,,,,,,,,,,,,,,,,,,,,,,,,,,,,,,,,,105,146248,22,Female,1,2024/03/20_08:48:52,SD,None,
,,,,,,calibration,0,14,2,500,2,C,0,right,0.8928442249889486,1,0,,,,,,,,,,,,,,,,,,,,,1,,,,,,,,,,,,,,,,,,,,,,,,,,,,,,,,,,,,,,,,,,,,,,105,146248,22,Female,1,2024/03/20_08:48:52,SD,None,
,,,,,,calibration,0,14,2,500,3,F,0,right,0.8237848769931588,1,0,,,,,,,,,,,,,,,,,,,,,1,,,,,,,,,,,,,,,,,,,,,,,,,,,,,,,,,,,,,,,,,,,,,,105,146248,22,Female,1,2024/03/20_08:48:52,SD,None,
,,,,,,calibration,0,14,2,500,4,C,1,left,0.8090396629995666,1,0,,,,,,,,,,,,,,,,,,,,,1,,,,,,,,,,,,,,,,,,,,,,,,,,,,,,,,,,,,,,,,,,,,,,105,146248,22,Female,1,2024/03/20_08:48:52,SD,None,
,,,,,,calibration,0,14,2,500,5,N,0,right,0.8257177640043665,1,0,,,,,,,,,,,,,,,,,,,,,1,,,,,,,,,,,,,,,,,,,,,,,,,,,,,,,,,,,,,,,,,,,,,,105,146248,22,Female,1,2024/03/20_08:48:52,SD,None,
,,,,,,calibration,0,14,2,500,6,J,0,right,nan,0,1,,,,,,,,,,,,,,,,,,,,,1,,,,,,,,,,,,,,,,,,,,,,,,,,,,,,,,,,,,,,,,,,,,,,105,146248,22,Female,1,2024/03/20_08:48:52,SD,None,
,,,,,,calibration,0,14,2,500,7,N,1,left,0.6761567740031751,1,0,,,,,,,,,,,,,,,,,,,,,1,,,,,,,,,,,,,,,,,,,,,,,,,,,,,,,,,,,,,,,,,,,,,,105,146248,22,Female,1,2024/03/20_08:48:52,SD,None,
,,,,,,calibration,0,14,2,500,8,S,0,left,nan,0,1,,,,,,,,,,,,,,,,,,,,,1,,,,,,,,,,,,,,,,,,,,,,,,,,,,,,,,,,,,,,,,,,,,,,105,146248,22,Female,1,2024/03/20_08:48:52,SD,None,
,,,,,,calibration,0,14,2,500,9,X,0,right,0.6576535259955563,1,0,,,,,,,,,,,,,,,,,,,,,1,,,,,,,,,,,,,,,,,,,,,,,,,,,,,,,,,,,,,,,,,,,,,,105,146248,22,Female,1,2024/03/20_08:48:52,SD,None,
,,,,,,calibration,0,14,2,500,10,J,0,right,0.8553613760013832,1,0,,,,,,,,,,,,,,,,,,,,,1,,,,,,,,,,,,,,,,,,,,,,,,,,,,,,,,,,,,,,,,,,,,,,105,146248,22,Female,1,2024/03/20_08:48:52,SD,None,
,,,,,,calibration,0,14,2,500,11,F,0,right,0.7986941060080426,1,0,,,,,,,,,,,,,,,,,,,,,1,,,,,,,,,,,,,,,,,,,,,,,,,,,,,,,,,,,,,,,,,,,,,,105,146248,22,Female,1,2024/03/20_08:48:52,SD,None,
,,,,,,calibration,0,14,2,500,12,J,1,left,0.7083658700139495,1,0,,,,,,,,,,,,,,,,,,,,,1,,,,,,,,,,,,,,,,,,,,,,,,,,,,,,,,,,,,,,,,,,,,,,105,146248,22,Female,1,2024/03/20_08:48:52,SD,None,
,,,,,,calibration,0,14,2,500,13,S,0,left,0.9113918179937173,0,0,,,,,,,,,,,,,,,,,,,,,1,,,,,,,,,,,,,,,,,,,,,,,,,,,,,,,,,,,,,,,,,,,,,,105,146248,22,Female,1,2024/03/20_08:48:52,SD,None,
,,,,,,calibration,0,14,2,500,14,V,0,right,0.6990588229964487,1,0,,,,,,,,,,,,,,,,,,,,,1,,,,,,,,,,,,,,,,,,,,,,,,,,,,,,,,,,,,,,,,,,,,,,105,146248,22,Female,1,2024/03/20_08:48:52,SD,None,
,,,,,,calibration,0,14,2,500,15,S,1,left,0.7082524310098961,1,0,,,,,,,,,,,,,,,,,,,,,1,,,,,,,,,,,,,,,,,,,,,,,,,,,,,,,,,,,,,,,,,,,,,,105,146248,22,Female,1,2024/03/20_08:48:52,SD,None,
,,,,,,calibration,0,14,2,500,16,C,0,right,0.5592768260103185,1,0,,,,,,,,,,,,,,,,,,,,,1,,,,,,,,,,,,,,,,,,,,,,,,,,,,,,,,,,,,,,,,,,,,,,105,146248,22,Female,1,2024/03/20_08:48:52,SD,None,
,,,,,,calibration,0,14,2,500,,,,,,,,0.9791666666666666,1.0,0.08333333333333333,0.9,0.125,0.7916666666666666,0.7427757907862542,4,1,0,2,2,9,13,4,12,0,,,,1,,,,,,,,,,,,,,,,,,,,,,,,,,,,,,,,,,,,,,,,,,,,,,105,146248,22,Female,1,2024/03/20_08:48:52,SD,None,
,,,,,,Calibration,0,,2,500,,,,,,,,,,,,,,,,,,,,,,,,,3,,,1,,,,,,,,,,,,,,,,,,,,,,,,,,,,,,,,,,,,,,,,,,,,,,105,146248,22,Female,1,2024/03/20_08:48:52,SD,None,
,,,,,,calibration,0,36,2,426,1,J,0,right,0.3946272739995038,1,0,,,,,,,,,,,,,,,,,,,,,1,,,,,,,,,,,,,,,,,,,,,,,,,,,,,,,,,,,,,,,,,,,,,,105,146248,22,Female,1,2024/03/20_08:48:52,SD,None,
,,,,,,calibration,0,36,2,426,2,F,0,right,0.7934073849901324,1,0,,,,,,,,,,,,,,,,,,,,,1,,,,,,,,,,,,,,,,,,,,,,,,,,,,,,,,,,,,,,,,,,,,,,105,146248,22,Female,1,2024/03/20_08:48:52,SD,None,
,,,,,,calibration,0,36,2,426,3,S,0,right,0.478991333002341,1,0,,,,,,,,,,,,,,,,,,,,,1,,,,,,,,,,,,,,,,,,,,,,,,,,,,,,,,,,,,,,,,,,,,,,105,146248,22,Female,1,2024/03/20_08:48:52,SD,None,
,,,,,,calibration,0,36,2,426,4,F,1,right,0.5335330300003989,0,0,,,,,,,,,,,,,,,,,,,,,1,,,,,,,,,,,,,,,,,,,,,,,,,,,,,,,,,,,,,,,,,,,,,,105,146248,22,Female,1,2024/03/20_08:48:52,SD,None,
,,,,,,calibration,0,36,2,426,5,V,0,right,0.5562894210015656,1,0,,,,,,,,,,,,,,,,,,,,,1,,,,,,,,,,,,,,,,,,,,,,,,,,,,,,,,,,,,,,,,,,,,,,105,146248,22,Female,1,2024/03/20_08:48:52,SD,None,
,,,,,,calibration,0,36,2,426,6,C,0,right,0.7224320779932896,1,0,,,,,,,,,,,,,,,,,,,,,1,,,,,,,,,,,,,,,,,,,,,,,,,,,,,,,,,,,,,,,,,,,,,,105,146248,22,Female,1,2024/03/20_08:48:52,SD,None,
,,,,,,calibration,0,36,2,426,7,J,0,left,0.7731629500049166,0,0,,,,,,,,,,,,,,,,,,,,,1,,,,,,,,,,,,,,,,,,,,,,,,,,,,,,,,,,,,,,,,,,,,,,105,146248,22,Female,1,2024/03/20_08:48:52,SD,None,
,,,,,,calibration,0,36,2,426,8,Q,0,right,0.7881849360128399,1,0,,,,,,,,,,,,,,,,,,,,,1,,,,,,,,,,,,,,,,,,,,,,,,,,,,,,,,,,,,,,,,,,,,,,105,146248,22,Female,1,2024/03/20_08:48:52,SD,None,
,,,,,,calibration,0,36,2,426,9,V,0,right,0.6406439679994946,1,0,,,,,,,,,,,,,,,,,,,,,1,,,,,,,,,,,,,,,,,,,,,,,,,,,,,,,,,,,,,,,,,,,,,,105,146248,22,Female,1,2024/03/20_08:48:52,SD,None,
,,,,,,calibration,0,36,2,426,10,X,0,right,0.7528395849949447,1,0,,,,,,,,,,,,,,,,,,,,,1,,,,,,,,,,,,,,,,,,,,,,,,,,,,,,,,,,,,,,,,,,,,,,105,146248,22,Female,1,2024/03/20_08:48:52,SD,None,
,,,,,,calibration,0,36,2,426,11,V,1,right,nan,0,1,,,,,,,,,,,,,,,,,,,,,1,,,,,,,,,,,,,,,,,,,,,,,,,,,,,,,,,,,,,,,,,,,,,,105,146248,22,Female,1,2024/03/20_08:48:52,SD,None,
,,,,,,calibration,0,36,2,426,12,S,0,right,0.7577422979957191,1,0,,,,,,,,,,,,,,,,,,,,,1,,,,,,,,,,,,,,,,,,,,,,,,,,,,,,,,,,,,,,,,,,,,,,105,146248,22,Female,1,2024/03/20_08:48:52,SD,None,
,,,,,,calibration,0,36,2,426,13,V,1,left,0.579934626002796,1,0,,,,,,,,,,,,,,,,,,,,,1,,,,,,,,,,,,,,,,,,,,,,,,,,,,,,,,,,,,,,,,,,,,,,105,146248,22,Female,1,2024/03/20_08:48:52,SD,None,
,,,,,,calibration,0,36,2,426,14,N,0,right,0.8417214799992507,1,0,,,,,,,,,,,,,,,,,,,,,1,,,,,,,,,,,,,,,,,,,,,,,,,,,,,,,,,,,,,,,,,,,,,,105,146248,22,Female,1,2024/03/20_08:48:52,SD,None,
,,,,,,calibration,0,36,2,426,15,V,1,left,0.8049387450009817,1,0,,,,,,,,,,,,,,,,,,,,,1,,,,,,,,,,,,,,,,,,,,,,,,,,,,,,,,,,,,,,,,,,,,,,105,146248,22,Female,1,2024/03/20_08:48:52,SD,None,
,,,,,,calibration,0,36,2,426,16,N,1,right,0.638381106997258,0,0,,,,,,,,,,,,,,,,,,,,,1,,,,,,,,,,,,,,,,,,,,,,,,,,,,,,,,,,,,,,,,,,,,,,105,146248,22,Female,1,2024/03/20_08:48:52,SD,None,
,,,,,,calibration,0,36,2,426,17,C,0,right,0.6752215320011601,1,0,,,,,,,,,,,,,,,,,,,,,1,,,,,,,,,,,,,,,,,,,,,,,,,,,,,,,,,,,,,,,,,,,,,,105,146248,22,Female,1,2024/03/20_08:48:52,SD,None,
,,,,,,calibration,0,36,2,426,,,,,,,,0.7770833333333333,0.4,0.08333333333333333,0.9166666666666666,0.058823529411764705,0.8578431372549019,0.6707532342497871,2,1,1,0,1,11,13,5,12,0,,,,1,,,,,,,,,,,,,,,,,,,,,,,,,,,,,,,,,,,,,,,,,,,,,,105,146248,22,Female,1,2024/03/20_08:48:52,SD,None,
,,,,,,Calibration,0,,2,426,,,,,,,,,,,,,,,,,,,,,,,,,4,,,1,,,,,,,,,,,,,,,,,,,,,,,,,,,,,,,,,,,,,,,,,,,,,,105,146248,22,Female,1,2024/03/20_08:48:52,SD,None,
,,,,,,calibration,0,34,2,426,1,J,0,right,0.5119680520001566,1,0,,,,,,,,,,,,,,,,,,,,,1,,,,,,,,,,,,,,,,,,,,,,,,,,,,,,,,,,,,,,,,,,,,,,105,146248,22,Female,1,2024/03/20_08:48:52,SD,None,
,,,,,,calibration,0,34,2,426,2,F,0,right,0.6259619390039006,1,0,,,,,,,,,,,,,,,,,,,,,1,,,,,,,,,,,,,,,,,,,,,,,,,,,,,,,,,,,,,,,,,,,,,,105,146248,22,Female,1,2024/03/20_08:48:52,SD,None,
,,,,,,calibration,0,34,2,426,3,J,1,right,0.6088708299939753,0,0,,,,,,,,,,,,,,,,,,,,,1,,,,,,,,,,,,,,,,,,,,,,,,,,,,,,,,,,,,,,,,,,,,,,105,146248,22,Female,1,2024/03/20_08:48:52,SD,None,
,,,,,,calibration,0,34,2,426,4,X,0,right,0.8584494649985572,1,0,,,,,,,,,,,,,,,,,,,,,1,,,,,,,,,,,,,,,,,,,,,,,,,,,,,,,,,,,,,,,,,,,,,,105,146248,22,Female,1,2024/03/20_08:48:52,SD,None,
,,,,,,calibration,0,34,2,426,5,Q,0,right,0.8214328739995835,1,0,,,,,,,,,,,,,,,,,,,,,1,,,,,,,,,,,,,,,,,,,,,,,,,,,,,,,,,,,,,,,,,,,,,,105,146248,22,Female,1,2024/03/20_08:48:52,SD,None,
,,,,,,calibration,0,34,2,426,6,X,1,left,0.5643951520032715,1,0,,,,,,,,,,,,,,,,,,,,,1,,,,,,,,,,,,,,,,,,,,,,,,,,,,,,,,,,,,,,,,,,,,,,105,146248,22,Female,1,2024/03/20_08:48:52,SD,None,
,,,,,,calibration,0,34,2,426,7,Q,1,left,0.7252383650047705,1,0,,,,,,,,,,,,,,,,,,,,,1,,,,,,,,,,,,,,,,,,,,,,,,,,,,,,,,,,,,,,,,,,,,,,105,146248,22,Female,1,2024/03/20_08:48:52,SD,None,
,,,,,,calibration,0,34,2,426,8,F,0,right,0.5617324390041176,1,0,,,,,,,,,,,,,,,,,,,,,1,,,,,,,,,,,,,,,,,,,,,,,,,,,,,,,,,,,,,,,,,,,,,,105,146248,22,Female,1,2024/03/20_08:48:52,SD,None,
,,,,,,calibration,0,34,2,426,9,Q,1,left,0.7478698659979273,1,0,,,,,,,,,,,,,,,,,,,,,1,,,,,,,,,,,,,,,,,,,,,,,,,,,,,,,,,,,,,,,,,,,,,,105,146248,22,Female,1,2024/03/20_08:48:52,SD,None,
,,,,,,calibration,0,34,2,426,10,J,0,right,0.5760223600082099,1,0,,,,,,,,,,,,,,,,,,,,,1,,,,,,,,,,,,,,,,,,,,,,,,,,,,,,,,,,,,,,,,,,,,,,105,146248,22,Female,1,2024/03/20_08:48:52,SD,None,
,,,,,,calibration,0,34,2,426,11,V,0,right,0.7926956150040496,1,0,,,,,,,,,,,,,,,,,,,,,1,,,,,,,,,,,,,,,,,,,,,,,,,,,,,,,,,,,,,,,,,,,,,,105,146248,22,Female,1,2024/03/20_08:48:52,SD,None,
,,,,,,calibration,0,34,2,426,12,C,0,right,0.6080992369970772,1,0,,,,,,,,,,,,,,,,,,,,,1,,,,,,,,,,,,,,,,,,,,,,,,,,,,,,,,,,,,,,,,,,,,,,105,146248,22,Female,1,2024/03/20_08:48:52,SD,None,
,,,,,,calibration,0,34,2,426,13,V,1,right,0.9118134239979554,0,0,,,,,,,,,,,,,,,,,,,,,1,,,,,,,,,,,,,,,,,,,,,,,,,,,,,,,,,,,,,,,,,,,,,,105,146248,22,Female,1,2024/03/20_08:48:52,SD,None,
,,,,,,calibration,0,34,2,426,14,J,0,right,0.9427107980009168,1,0,,,,,,,,,,,,,,,,,,,,,1,,,,,,,,,,,,,,,,,,,,,,,,,,,,,,,,,,,,,,,,,,,,,,105,146248,22,Female,1,2024/03/20_08:48:52,SD,None,
,,,,,,calibration,0,34,2,426,15,N,0,right,0.5869511679920834,1,0,,,,,,,,,,,,,,,,,,,,,1,,,,,,,,,,,,,,,,,,,,,,,,,,,,,,,,,,,,,,,,,,,,,,105,146248,22,Female,1,2024/03/20_08:48:52,SD,None,
,,,,,,calibration,0,34,2,426,16,X,0,right,0.5879984600032913,1,0,,,,,,,,,,,,,,,,,,,,,1,,,,,,,,,,,,,,,,,,,,,,,,,,,,,,,,,,,,,,,,,,,,,,105,146248,22,Female,1,2024/03/20_08:48:52,SD,None,
,,,,,,calibration,0,34,2,426,17,V,0,right,0.8235271850135177,1,0,,,,,,,,,,,,,,,,,,,,,1,,,,,,,,,,,,,,,,,,,,,,,,,,,,,,,,,,,,,,,,,,,,,,105,146248,22,Female,1,2024/03/20_08:48:52,SD,None,
,,,,,,calibration,0,34,2,426,,,,,,,,0.9,0.6,0.0,1.0,0.0,1.0,0.6973963075896095,3,0,0,0,0,12,15,5,12,0,,,,1,,,,,,,,,,,,,,,,,,,,,,,,,,,,,,,,,,,,,,,,,,,,,,105,146248,22,Female,1,2024/03/20_08:48:52,SD,None,
,,,,,,Calibration,0,,2,426,,,,,,,,,,,,,,,,,,,,,,,,,5,,,1,,,,,,,,,,,,,,,,,,,,,,,,,,,,,,,,,,,,,,,,,,,,,,105,146248,22,Female,1,2024/03/20_08:48:52,SD,None,
,,,,,,calibration,0,12,2,361,1,V,0,right,0.44310877499810886,1,0,,,,,,,,,,,,,,,,,,,,,1,,,,,,,,,,,,,,,,,,,,,,,,,,,,,,,,,,,,,,,,,,,,,,105,146248,22,Female,1,2024/03/20_08:48:52,SD,None,
,,,,,,calibration,0,12,2,361,2,X,0,right,0.6308851479989244,1,0,,,,,,,,,,,,,,,,,,,,,1,,,,,,,,,,,,,,,,,,,,,,,,,,,,,,,,,,,,,,,,,,,,,,105,146248,22,Female,1,2024/03/20_08:48:52,SD,None,
,,,,,,calibration,0,12,2,361,3,C,0,right,nan,0,1,,,,,,,,,,,,,,,,,,,,,1,,,,,,,,,,,,,,,,,,,,,,,,,,,,,,,,,,,,,,,,,,,,,,105,146248,22,Female,1,2024/03/20_08:48:52,SD,None,
,,,,,,calibration,0,12,2,361,4,X,1,left,0.6653128129983088,1,0,,,,,,,,,,,,,,,,,,,,,1,,,,,,,,,,,,,,,,,,,,,,,,,,,,,,,,,,,,,,,,,,,,,,105,146248,22,Female,1,2024/03/20_08:48:52,SD,None,
,,,,,,calibration,0,12,2,361,5,J,0,right,0.5980282239906956,1,0,,,,,,,,,,,,,,,,,,,,,1,,,,,,,,,,,,,,,,,,,,,,,,,,,,,,,,,,,,,,,,,,,,,,105,146248,22,Female,1,2024/03/20_08:48:52,SD,None,
,,,,,,calibration,0,12,2,361,6,Q,0,right,0.8081878070079256,1,0,,,,,,,,,,,,,,,,,,,,,1,,,,,,,,,,,,,,,,,,,,,,,,,,,,,,,,,,,,,,,,,,,,,,105,146248,22,Female,1,2024/03/20_08:48:52,SD,None,
,,,,,,calibration,0,12,2,361,7,J,1,left,0.6140286989975721,1,0,,,,,,,,,,,,,,,,,,,,,1,,,,,,,,,,,,,,,,,,,,,,,,,,,,,,,,,,,,,,,,,,,,,,105,146248,22,Female,1,2024/03/20_08:48:52,SD,None,
,,,,,,calibration,0,12,2,361,8,S,0,right,0.6508255360095063,1,0,,,,,,,,,,,,,,,,,,,,,1,,,,,,,,,,,,,,,,,,,,,,,,,,,,,,,,,,,,,,,,,,,,,,105,146248,22,Female,1,2024/03/20_08:48:52,SD,None,
,,,,,,calibration,0,12,2,361,9,C,0,right,0.7750769900012529,1,0,,,,,,,,,,,,,,,,,,,,,1,,,,,,,,,,,,,,,,,,,,,,,,,,,,,,,,,,,,,,,,,,,,,,105,146248,22,Female,1,2024/03/20_08:48:52,SD,None,
,,,,,,calibration,0,12,2,361,10,N,0,right,0.6745927089941688,1,0,,,,,,,,,,,,,,,,,,,,,1,,,,,,,,,,,,,,,,,,,,,,,,,,,,,,,,,,,,,,,,,,,,,,105,146248,22,Female,1,2024/03/20_08:48:52,SD,None,
,,,,,,calibration,0,12,2,361,11,J,0,right,0.8248951919958927,1,0,,,,,,,,,,,,,,,,,,,,,1,,,,,,,,,,,,,,,,,,,,,,,,,,,,,,,,,,,,,,,,,,,,,,105,146248,22,Female,1,2024/03/20_08:48:52,SD,None,
,,,,,,calibration,0,12,2,361,12,Q,0,right,0.652356090999092,1,0,,,,,,,,,,,,,,,,,,,,,1,,,,,,,,,,,,,,,,,,,,,,,,,,,,,,,,,,,,,,,,,,,,,,105,146248,22,Female,1,2024/03/20_08:48:52,SD,None,
,,,,,,calibration,0,12,2,361,13,J,1,left,0.6385436030104756,1,0,,,,,,,,,,,,,,,,,,,,,1,,,,,,,,,,,,,,,,,,,,,,,,,,,,,,,,,,,,,,,,,,,,,,105,146248,22,Female,1,2024/03/20_08:48:52,SD,None,
,,,,,,calibration,0,12,2,361,14,Q,1,left,nan,0,1,,,,,,,,,,,,,,,,,,,,,1,,,,,,,,,,,,,,,,,,,,,,,,,,,,,,,,,,,,,,,,,,,,,,105,146248,22,Female,1,2024/03/20_08:48:52,SD,None,
,,,,,,calibration,0,12,2,361,15,F,0,right,0.7595491660031257,1,0,,,,,,,,,,,,,,,,,,,,,1,,,,,,,,,,,,,,,,,,,,,,,,,,,,,,,,,,,,,,,,,,,,,,105,146248,22,Female,1,2024/03/20_08:48:52,SD,None,
,,,,,,calibration,0,12,2,361,16,Q,1,left,0.6695873029966606,1,0,,,,,,,,,,,,,,,,,,,,,1,,,,,,,,,,,,,,,,,,,,,,,,,,,,,,,,,,,,,,,,,,,,,,105,146248,22,Female,1,2024/03/20_08:48:52,SD,None,
,,,,,,calibration,0,12,2,361,17,V,0,right,0.8278989940008614,1,0,,,,,,,,,,,,,,,,,,,,,1,,,,,,,,,,,,,,,,,,,,,,,,,,,,,,,,,,,,,,,,,,,,,,105,146248,22,Female,1,2024/03/20_08:48:52,SD,None,
,,,,,,calibration,0,12,2,361,18,S,0,left,0.7145342169969808,0,0,,,,,,,,,,,,,,,,,,,,,1,,,,,,,,,,,,,,,,,,,,,,,,,,,,,,,,,,,,,,,,,,,,,,105,146248,22,Female,1,2024/03/20_08:48:52,SD,None,
,,,,,,calibration,0,12,2,361,,,,,,,,0.9153846153846155,0.8,0.07692307692307693,0.9166666666666666,0.1111111111111111,0.811965811965812,0.684213204187472,4,1,1,1,2,11,15,5,13,0,,,,1,,,,,,,,,,,,,,,,,,,,,,,,,,,,,,,,,,,,,,,,,,,,,,105,146248,22,Female,1,2024/03/20_08:48:52,SD,None,
,,,,,,Calibration,0,,2,361,,,,,,,,,,,,,,,,,,,,,,,,,6,,,1,,,,,,,,,,,,,,,,,,,,,,,,,,,,,,,,,,,,,,,,,,,,,,105,146248,22,Female,1,2024/03/20_08:48:52,SD,None,
,,,,,,calibration,0,7,2,303,1,J,0,right,0.3304194389929762,1,0,,,,,,,,,,,,,,,,,,,,,1,,,,,,,,,,,,,,,,,,,,,,,,,,,,,,,,,,,,,,,,,,,,,,105,146248,22,Female,1,2024/03/20_08:48:52,SD,None,
,,,,,,calibration,0,7,2,303,2,Q,0,right,0.47359531400434207,1,0,,,,,,,,,,,,,,,,,,,,,1,,,,,,,,,,,,,,,,,,,,,,,,,,,,,,,,,,,,,,,,,,,,,,105,146248,22,Female,1,2024/03/20_08:48:52,SD,None,
,,,,,,calibration,0,7,2,303,3,S,0,right,0.590596629990614,1,0,,,,,,,,,,,,,,,,,,,,,1,,,,,,,,,,,,,,,,,,,,,,,,,,,,,,,,,,,,,,,,,,,,,,105,146248,22,Female,1,2024/03/20_08:48:52,SD,None,
,,,,,,calibration,0,7,2,303,4,X,0,right,0.6321401090099243,1,0,,,,,,,,,,,,,,,,,,,,,1,,,,,,,,,,,,,,,,,,,,,,,,,,,,,,,,,,,,,,,,,,,,,,105,146248,22,Female,1,2024/03/20_08:48:52,SD,None,
,,,,,,calibration,0,7,2,303,5,Q,0,right,0.7251005709986202,1,0,,,,,,,,,,,,,,,,,,,,,1,,,,,,,,,,,,,,,,,,,,,,,,,,,,,,,,,,,,,,,,,,,,,,105,146248,22,Female,1,2024/03/20_08:48:52,SD,None,
,,,,,,calibration,0,7,2,303,6,C,0,right,0.6362797399924602,1,0,,,,,,,,,,,,,,,,,,,,,1,,,,,,,,,,,,,,,,,,,,,,,,,,,,,,,,,,,,,,,,,,,,,,105,146248,22,Female,1,2024/03/20_08:48:52,SD,None,
,,,,,,calibration,0,7,2,303,7,N,0,right,0.5969737429986708,1,0,,,,,,,,,,,,,,,,,,,,,1,,,,,,,,,,,,,,,,,,,,,,,,,,,,,,,,,,,,,,,,,,,,,,105,146248,22,Female,1,2024/03/20_08:48:52,SD,None,
,,,,,,calibration,0,7,2,303,8,S,0,right,0.7153471689962316,1,0,,,,,,,,,,,,,,,,,,,,,1,,,,,,,,,,,,,,,,,,,,,,,,,,,,,,,,,,,,,,,,,,,,,,105,146248,22,Female,1,2024/03/20_08:48:52,SD,None,
,,,,,,calibration,0,7,2,303,9,F,0,right,0.5916833780065645,1,0,,,,,,,,,,,,,,,,,,,,,1,,,,,,,,,,,,,,,,,,,,,,,,,,,,,,,,,,,,,,,,,,,,,,105,146248,22,Female,1,2024/03/20_08:48:52,SD,None,
,,,,,,calibration,0,7,2,303,10,J,0,right,0.6914572280074935,1,0,,,,,,,,,,,,,,,,,,,,,1,,,,,,,,,,,,,,,,,,,,,,,,,,,,,,,,,,,,,,,,,,,,,,105,146248,22,Female,1,2024/03/20_08:48:52,SD,None,
,,,,,,calibration,0,7,2,303,11,F,1,right,nan,0,1,,,,,,,,,,,,,,,,,,,,,1,,,,,,,,,,,,,,,,,,,,,,,,,,,,,,,,,,,,,,,,,,,,,,105,146248,22,Female,1,2024/03/20_08:48:52,SD,None,
,,,,,,calibration,0,7,2,303,12,N,0,right,0.8587196089938516,1,0,,,,,,,,,,,,,,,,,,,,,1,,,,,,,,,,,,,,,,,,,,,,,,,,,,,,,,,,,,,,,,,,,,,,105,146248,22,Female,1,2024/03/20_08:48:52,SD,None,
,,,,,,calibration,0,7,2,303,13,V,0,right,nan,0,1,,,,,,,,,,,,,,,,,,,,,1,,,,,,,,,,,,,,,,,,,,,,,,,,,,,,,,,,,,,,,,,,,,,,105,146248,22,Female,1,2024/03/20_08:48:52,SD,None,
,,,,,,calibration,0,7,2,303,14,N,1,left,0.6412966659991071,1,0,,,,,,,,,,,,,,,,,,,,,1,,,,,,,,,,,,,,,,,,,,,,,,,,,,,,,,,,,,,,,,,,,,,,105,146248,22,Female,1,2024/03/20_08:48:52,SD,None,
,,,,,,calibration,0,7,2,303,15,J,0,right,0.6538790069898823,1,0,,,,,,,,,,,,,,,,,,,,,1,,,,,,,,,,,,,,,,,,,,,,,,,,,,,,,,,,,,,,,,,,,,,,105,146248,22,Female,1,2024/03/20_08:48:52,SD,None,
,,,,,,calibration,0,7,2,303,16,N,1,left,0.6742011240130523,1,0,,,,,,,,,,,,,,,,,,,,,1,,,,,,,,,,,,,,,,,,,,,,,,,,,,,,,,,,,,,,,,,,,,,,105,146248,22,Female,1,2024/03/20_08:48:52,SD,None,
,,,,,,calibration,0,7,2,303,17,V,0,left,nan,0,1,,,,,,,,,,,,,,,,,,,,,1,,,,,,,,,,,,,,,,,,,,,,,,,,,,,,,,,,,,,,,,,,,,,,105,146248,22,Female,1,2024/03/20_08:48:52,SD,None,
,,,,,,calibration,0,7,2,303,18,N,1,left,0.8076241340022534,1,0,,,,,,,,,,,,,,,,,,,,,1,,,,,,,,,,,,,,,,,,,,,,,,,,,,,,,,,,,,,,,,,,,,,,105,146248,22,Female,1,2024/03/20_08:48:52,SD,None,
,,,,,,calibration,0,7,2,303,19,V,1,left,0.9077350510051474,1,0,,,,,,,,,,,,,,,,,,,,,1,,,,,,,,,,,,,,,,,,,,,,,,,,,,,,,,,,,,,,,,,,,,,,105,146248,22,Female,1,2024/03/20_08:48:52,SD,None,
,,,,,,calibration,0,7,2,303,,,,,,,,0.95,0.8,0.0,1.0,0.15789473684210525,0.8421052631578947,0.6579405570000745,4,0,1,2,3,12,16,5,14,0,,,,1,,,,,,,,,,,,,,,,,,,,,,,,,,,,,,,,,,,,,,,,,,,,,,105,146248,22,Female,1,2024/03/20_08:48:52,SD,None,
,,,,,,Calibration,0,,2,303,,,,,,,,,,,,,,,,,,,,,,,,,7,,,1,,,,,,,,,,,,,,,,,,,,,,,,,,,,,,,,,,,,,,,,,,,,,,105,146248,22,Female,1,2024/03/20_08:48:52,SD,None,
,,,,,,calibration,0,30,2,250,1,F,0,right,0.42543839299469255,1,0,,,,,,,,,,,,,,,,,,,,,1,,,,,,,,,,,,,,,,,,,,,,,,,,,,,,,,,,,,,,,,,,,,,,105,146248,22,Female,1,2024/03/20_08:48:52,SD,None,
,,,,,,calibration,0,30,2,250,2,F,0,right,0.5842262240039418,1,0,,,,,,,,,,,,,,,,,,,,,1,,,,,,,,,,,,,,,,,,,,,,,,,,,,,,,,,,,,,,,,,,,,,,105,146248,22,Female,1,2024/03/20_08:48:52,SD,None,
,,,,,,calibration,0,30,2,250,3,N,0,right,nan,0,1,,,,,,,,,,,,,,,,,,,,,1,,,,,,,,,,,,,,,,,,,,,,,,,,,,,,,,,,,,,,,,,,,,,,105,146248,22,Female,1,2024/03/20_08:48:52,SD,None,
,,,,,,calibration,0,30,2,250,4,J,0,right,nan,0,1,,,,,,,,,,,,,,,,,,,,,1,,,,,,,,,,,,,,,,,,,,,,,,,,,,,,,,,,,,,,,,,,,,,,105,146248,22,Female,1,2024/03/20_08:48:52,SD,None,
,,,,,,calibration,0,30,2,250,5,N,1,right,nan,0,1,,,,,,,,,,,,,,,,,,,,,1,,,,,,,,,,,,,,,,,,,,,,,,,,,,,,,,,,,,,,,,,,,,,,105,146248,22,Female,1,2024/03/20_08:48:52,SD,None,
,,,,,,calibration,0,30,2,250,6,C,0,right,0.6924378569965484,1,0,,,,,,,,,,,,,,,,,,,,,1,,,,,,,,,,,,,,,,,,,,,,,,,,,,,,,,,,,,,,,,,,,,,,105,146248,22,Female,1,2024/03/20_08:48:52,SD,None,
,,,,,,calibration,0,30,2,250,7,J,0,right,nan,0,1,,,,,,,,,,,,,,,,,,,,,1,,,,,,,,,,,,,,,,,,,,,,,,,,,,,,,,,,,,,,,,,,,,,,105,146248,22,Female,1,2024/03/20_08:48:52,SD,None,
,,,,,,calibration,0,30,2,250,8,Q,0,right,0.9973630210006377,1,0,,,,,,,,,,,,,,,,,,,,,1,,,,,,,,,,,,,,,,,,,,,,,,,,,,,,,,,,,,,,,,,,,,,,105,146248,22,Female,1,2024/03/20_08:48:52,SD,None,
,,,,,,calibration,0,30,2,250,9,F,0,right,nan,0,1,,,,,,,,,,,,,,,,,,,,,1,,,,,,,,,,,,,,,,,,,,,,,,,,,,,,,,,,,,,,,,,,,,,,105,146248,22,Female,1,2024/03/20_08:48:52,SD,None,
,,,,,,calibration,0,30,2,250,10,S,0,right,nan,0,1,,,,,,,,,,,,,,,,,,,,,1,,,,,,,,,,,,,,,,,,,,,,,,,,,,,,,,,,,,,,,,,,,,,,105,146248,22,Female,1,2024/03/20_08:48:52,SD,None,
,,,,,,calibration,0,30,2,250,11,V,0,right,0.0,1,0,,,,,,,,,,,,,,,,,,,,,1,,,,,,,,,,,,,,,,,,,,,,,,,,,,,,,,,,,,,,,,,,,,,,105,146248,22,Female,1,2024/03/20_08:48:52,SD,None,
,,,,,,calibration,0,30,2,250,12,Q,0,right,nan,0,1,,,,,,,,,,,,,,,,,,,,,1,,,,,,,,,,,,,,,,,,,,,,,,,,,,,,,,,,,,,,,,,,,,,,105,146248,22,Female,1,2024/03/20_08:48:52,SD,None,
,,,,,,calibration,0,30,2,250,13,V,1,right,0.9399701980000827,0,0,,,,,,,,,,,,,,,,,,,,,1,,,,,,,,,,,,,,,,,,,,,,,,,,,,,,,,,,,,,,,,,,,,,,105,146248,22,Female,1,2024/03/20_08:48:52,SD,None,
,,,,,,calibration,0,30,2,250,14,N,0,right,0.8187303930026246,1,0,,,,,,,,,,,,,,,,,,,,,1,,,,,,,,,,,,,,,,,,,,,,,,,,,,,,,,,,,,,,,,,,,,,,105,146248,22,Female,1,2024/03/20_08:48:52,SD,None,
,,,,,,calibration,0,30,2,250,15,V,1,left,0.5542342640110292,1,0,,,,,,,,,,,,,,,,,,,,,1,,,,,,,,,,,,,,,,,,,,,,,,,,,,,,,,,,,,,,,,,,,,,,105,146248,22,Female,1,2024/03/20_08:48:52,SD,None,
,,,,,,calibration,0,30,2,250,16,Q,0,right,0.9094708179909503,1,0,,,,,,,,,,,,,,,,,,,,,1,,,,,,,,,,,,,,,,,,,,,,,,,,,,,,,,,,,,,,,,,,,,,,105,146248,22,Female,1,2024/03/20_08:48:52,SD,None,
,,,,,,calibration,0,30,2,250,17,F,0,left,0.8488784280052641,0,0,,,,,,,,,,,,,,,,,,,,,1,,,,,,,,,,,,,,,,,,,,,,,,,,,,,,,,,,,,,,,,,,,,,,105,146248,22,Female,1,2024/03/20_08:48:52,SD,None,
,,,,,,calibration,0,30,2,250,18,Q,1,left,0.7647282960097073,1,0,,,,,,,,,,,,,,,,,,,,,1,,,,,,,,,,,,,,,,,,,,,,,,,,,,,,,,,,,,,,,,,,,,,,105,146248,22,Female,1,2024/03/20_08:48:52,SD,None,
,,,,,,calibration,0,30,2,250,19,N,0,right,0.7581071230088128,1,0,,,,,,,,,,,,,,,,,,,,,1,,,,,,,,,,,,,,,,,,,,,,,,,,,,,,,,,,,,,,,,,,,,,,105,146248,22,Female,1,2024/03/20_08:48:52,SD,None,
,,,,,,calibration,0,30,2,250,20,Q,1,left,0.7711403040011646,1,0,,,,,,,,,,,,,,,,,,,,,1,,,,,,,,,,,,,,,,,,,,,,,,,,,,,,,,,,,,,,,,,,,,,,105,146248,22,Female,1,2024/03/20_08:48:52,SD,None,
,,,,,,calibration,0,30,2,250,,,,,,,,0.8566666666666667,0.6,0.06666666666666667,0.8888888888888888,0.35,0.5833333333333334,0.6972865630019581,3,1,1,6,7,8,11,5,15,0,,,,1,,,,,,,,,,,,,,,,,,,,,,,,,,,,,,,,,,,,,,,,,,,,,,105,146248,22,Female,1,2024/03/20_08:48:52,SD,None,
,,,,,,Calibration,0,,2,250,,,,,,,,,,,,,,,,,,,,,,,,,8,,,1,,,,,,,,,,,,,,,,,,,,,,,,,,,,,,,,,,,,,,,,,,,,,,105,146248,22,Female,1,2024/03/20_08:48:52,SD,None,
,,,,,,calibration,0,12,2,202,1,F,0,right,0.6178903689869912,1,0,,,,,,,,,,,,,,,,,,,,,1,,,,,,,,,,,,,,,,,,,,,,,,,,,,,,,,,,,,,,,,,,,,,,105,146248,22,Female,1,2024/03/20_08:48:52,SD,None,
,,,,,,calibration,0,12,2,202,2,X,0,right,0.7901853939983994,1,0,,,,,,,,,,,,,,,,,,,,,1,,,,,,,,,,,,,,,,,,,,,,,,,,,,,,,,,,,,,,,,,,,,,,105,146248,22,Female,1,2024/03/20_08:48:52,SD,None,
,,,,,,calibration,0,12,2,202,3,F,1,left,0.8250803300034022,1,0,,,,,,,,,,,,,,,,,,,,,1,,,,,,,,,,,,,,,,,,,,,,,,,,,,,,,,,,,,,,,,,,,,,,105,146248,22,Female,1,2024/03/20_08:48:52,SD,None,
,,,,,,calibration,0,12,2,202,4,X,1,left,0.8362661040009698,1,0,,,,,,,,,,,,,,,,,,,,,1,,,,,,,,,,,,,,,,,,,,,,,,,,,,,,,,,,,,,,,,,,,,,,105,146248,22,Female,1,2024/03/20_08:48:52,SD,None,
,,,,,,calibration,0,12,2,202,5,S,0,right,0.8380803580075735,1,0,,,,,,,,,,,,,,,,,,,,,1,,,,,,,,,,,,,,,,,,,,,,,,,,,,,,,,,,,,,,,,,,,,,,105,146248,22,Female,1,2024/03/20_08:48:52,SD,None,
,,,,,,calibration,0,12,2,202,6,X,1,left,0.5956039050070103,1,0,,,,,,,,,,,,,,,,,,,,,1,,,,,,,,,,,,,,,,,,,,,,,,,,,,,,,,,,,,,,,,,,,,,,105,146248,22,Female,1,2024/03/20_08:48:52,SD,None,
,,,,,,calibration,0,12,2,202,7,C,0,right,0.6151815469929716,1,0,,,,,,,,,,,,,,,,,,,,,1,,,,,,,,,,,,,,,,,,,,,,,,,,,,,,,,,,,,,,,,,,,,,,105,146248,22,Female,1,2024/03/20_08:48:52,SD,None,
,,,,,,calibration,0,12,2,202,8,F,0,right,nan,0,1,,,,,,,,,,,,,,,,,,,,,1,,,,,,,,,,,,,,,,,,,,,,,,,,,,,,,,,,,,,,,,,,,,,,105,146248,22,Female,1,2024/03/20_08:48:52,SD,None,
,,,,,,calibration,0,12,2,202,9,Q,0,right,0.9077933149965247,1,0,,,,,,,,,,,,,,,,,,,,,1,,,,,,,,,,,,,,,,,,,,,,,,,,,,,,,,,,,,,,,,,,,,,,105,146248,22,Female,1,2024/03/20_08:48:52,SD,None,
,,,,,,calibration,0,12,2,202,10,J,0,right,0.908203154001967,1,0,,,,,,,,,,,,,,,,,,,,,1,,,,,,,,,,,,,,,,,,,,,,,,,,,,,,,,,,,,,,,,,,,,,,105,146248,22,Female,1,2024/03/20_08:48:52,SD,None,
,,,,,,calibration,0,12,2,202,11,N,0,right,nan,0,1,,,,,,,,,,,,,,,,,,,,,1,,,,,,,,,,,,,,,,,,,,,,,,,,,,,,,,,,,,,,,,,,,,,,105,146248,22,Female,1,2024/03/20_08:48:52,SD,None,
,,,,,,calibration,0,12,2,202,12,S,0,right,0.9415041949978331,1,0,,,,,,,,,,,,,,,,,,,,,1,,,,,,,,,,,,,,,,,,,,,,,,,,,,,,,,,,,,,,,,,,,,,,105,146248,22,Female,1,2024/03/20_08:48:52,SD,None,
,,,,,,calibration,0,12,2,202,13,C,0,right,0.855149587005144,1,0,,,,,,,,,,,,,,,,,,,,,1,,,,,,,,,,,,,,,,,,,,,,,,,,,,,,,,,,,,,,,,,,,,,,105,146248,22,Female,1,2024/03/20_08:48:52,SD,None,
,,,,,,calibration,0,12,2,202,14,S,1,left,0.8069179370068014,1,0,,,,,,,,,,,,,,,,,,,,,1,,,,,,,,,,,,,,,,,,,,,,,,,,,,,,,,,,,,,,,,,,,,,,105,146248,22,Female,1,2024/03/20_08:48:52,SD,None,
,,,,,,calibration,0,12,2,202,15,C,1,left,0.9555999410076765,1,0,,,,,,,,,,,,,,,,,,,,,1,,,,,,,,,,,,,,,,,,,,,,,,,,,,,,,,,,,,,,,,,,,,,,105,146248,22,Female,1,2024/03/20_08:48:52,SD,None,
,,,,,,calibration,0,12,2,202,16,J,0,right,0.8782092360052047,1,0,,,,,,,,,,,,,,,,,,,,,1,,,,,,,,,,,,,,,,,,,,,,,,,,,,,,,,,,,,,,,,,,,,,,105,146248,22,Female,1,2024/03/20_08:48:52,SD,None,
,,,,,,calibration,0,12,2,202,17,V,0,right,0.8593345080007566,1,0,,,,,,,,,,,,,,,,,,,,,1,,,,,,,,,,,,,,,,,,,,,,,,,,,,,,,,,,,,,,,,,,,,,,105,146248,22,Female,1,2024/03/20_08:48:52,SD,None,
,,,,,,calibration,0,12,2,202,18,J,1,right,0.6694966039940482,0,0,,,,,,,,,,,,,,,,,,,,,1,,,,,,,,,,,,,,,,,,,,,,,,,,,,,,,,,,,,,,,,,,,,,,105,146248,22,Female,1,2024/03/20_08:48:52,SD,None,
,,,,,,calibration,0,12,2,202,19,Q,0,right,0.8924252779979724,1,0,,,,,,,,,,,,,,,,,,,,,1,,,,,,,,,,,,,,,,,,,,,,,,,,,,,,,,,,,,,,,,,,,,,,105,146248,22,Female,1,2024/03/20_08:48:52,SD,None,
,,,,,,calibration,0,12,2,202,20,C,0,right,0.9355842179938918,1,0,,,,,,,,,,,,,,,,,,,,,1,,,,,,,,,,,,,,,,,,,,,,,,,,,,,,,,,,,,,,,,,,,,,,105,146248,22,Female,1,2024/03/20_08:48:52,SD,None,
,,,,,,calibration,0,12,2,202,21,Q,1,right,0.8245144180109492,0,0,,,,,,,,,,,,,,,,,,,,,1,,,,,,,,,,,,,,,,,,,,,,,,,,,,,,,,,,,,,,,,,,,,,,105,146248,22,Female,1,2024/03/20_08:48:52,SD,None,
,,,,,,calibration,0,12,2,202,,,,,,,,0.9285714285714286,0.7142857142857143,0.0,1.0,0.09523809523809523,0.9047619047619048,0.8185800209482151,5,0,0,2,2,12,17,7,14,0,,,,1,,,,,,,,,,,,,,,,,,,,,,,,,,,,,,,,,,,,,,,,,,,,,,105,146248,22,Female,1,2024/03/20_08:48:52,SD,None,
,,,,,,Calibration,0,,2,202,,,,,,,,,,,,,,,,,,,,,,,,,9,,,1,,,,,,,,,,,,,,,,,,,,,,,,,,,,,,,,,,,,,,,,,,,,,,105,146248,22,Female,1,2024/03/20_08:48:52,SD,None,
,,,,,,calibration,0,28,2,159,1,X,0,right,0.39366520300973207,1,0,,,,,,,,,,,,,,,,,,,,,1,,,,,,,,,,,,,,,,,,,,,,,,,,,,,,,,,,,,,,,,,,,,,,105,146248,22,Female,1,2024/03/20_08:48:52,SD,None,
,,,,,,calibration,0,28,2,159,2,Q,0,right,0.9259307309985161,1,0,,,,,,,,,,,,,,,,,,,,,1,,,,,,,,,,,,,,,,,,,,,,,,,,,,,,,,,,,,,,,,,,,,,,105,146248,22,Female,1,2024/03/20_08:48:52,SD,None,
,,,,,,calibration,0,28,2,159,3,F,0,right,0.9261074859969085,1,0,,,,,,,,,,,,,,,,,,,,,1,,,,,,,,,,,,,,,,,,,,,,,,,,,,,,,,,,,,,,,,,,,,,,105,146248,22,Female,1,2024/03/20_08:48:52,SD,None,
,,,,,,calibration,0,28,2,159,4,X,0,right,0.9812744569935603,1,0,,,,,,,,,,,,,,,,,,,,,1,,,,,,,,,,,,,,,,,,,,,,,,,,,,,,,,,,,,,,,,,,,,,,105,146248,22,Female,1,2024/03/20_08:48:52,SD,None,
,,,,,,calibration,0,28,2,159,5,F,1,right,0.7806394969957182,0,0,,,,,,,,,,,,,,,,,,,,,1,,,,,,,,,,,,,,,,,,,,,,,,,,,,,,,,,,,,,,,,,,,,,,105,146248,22,Female,1,2024/03/20_08:48:52,SD,None,
,,,,,,calibration,0,28,2,159,6,X,1,left,0.7759138120018179,1,0,,,,,,,,,,,,,,,,,,,,,1,,,,,,,,,,,,,,,,,,,,,,,,,,,,,,,,,,,,,,,,,,,,,,105,146248,22,Female,1,2024/03/20_08:48:52,SD,None,
,,,,,,calibration,0,28,2,159,7,S,0,right,0.7425245689955773,1,0,,,,,,,,,,,,,,,,,,,,,1,,,,,,,,,,,,,,,,,,,,,,,,,,,,,,,,,,,,,,,,,,,,,,105,146248,22,Female,1,2024/03/20_08:48:52,SD,None,
,,,,,,calibration,0,28,2,159,8,F,0,right,0.6579670540086227,1,0,,,,,,,,,,,,,,,,,,,,,1,,,,,,,,,,,,,,,,,,,,,,,,,,,,,,,,,,,,,,,,,,,,,,105,146248,22,Female,1,2024/03/20_08:48:52,SD,None,
,,,,,,calibration,0,28,2,159,9,N,0,right,0.8570992239983752,1,0,,,,,,,,,,,,,,,,,,,,,1,,,,,,,,,,,,,,,,,,,,,,,,,,,,,,,,,,,,,,,,,,,,,,105,146248,22,Female,1,2024/03/20_08:48:52,SD,None,
,,,,,,calibration,0,28,2,159,10,F,1,left,0.7587105669954326,1,0,,,,,,,,,,,,,,,,,,,,,1,,,,,,,,,,,,,,,,,,,,,,,,,,,,,,,,,,,,,,,,,,,,,,105,146248,22,Female,1,2024/03/20_08:48:52,SD,None,
,,,,,,calibration,0,28,2,159,11,Q,0,right,0.758419170990237,1,0,,,,,,,,,,,,,,,,,,,,,1,,,,,,,,,,,,,,,,,,,,,,,,,,,,,,,,,,,,,,,,,,,,,,105,146248,22,Female,1,2024/03/20_08:48:52,SD,None,
,,,,,,calibration,0,28,2,159,12,N,0,right,0.9210109510022448,1,0,,,,,,,,,,,,,,,,,,,,,1,,,,,,,,,,,,,,,,,,,,,,,,,,,,,,,,,,,,,,,,,,,,,,105,146248,22,Female,1,2024/03/20_08:48:52,SD,None,
,,,,,,calibration,0,28,2,159,13,V,0,right,0.8234884720004629,1,0,,,,,,,,,,,,,,,,,,,,,1,,,,,,,,,,,,,,,,,,,,,,,,,,,,,,,,,,,,,,,,,,,,,,105,146248,22,Female,1,2024/03/20_08:48:52,SD,None,
,,,,,,calibration,0,28,2,159,14,N,1,right,0.761178665998159,0,0,,,,,,,,,,,,,,,,,,,,,1,,,,,,,,,,,,,,,,,,,,,,,,,,,,,,,,,,,,,,,,,,,,,,105,146248,22,Female,1,2024/03/20_08:48:52,SD,None,
,,,,,,calibration,0,28,2,159,15,J,0,right,0.5808755219914019,1,0,,,,,,,,,,,,,,,,,,,,,1,,,,,,,,,,,,,,,,,,,,,,,,,,,,,,,,,,,,,,,,,,,,,,105,146248,22,Female,1,2024/03/20_08:48:52,SD,None,
,,,,,,calibration,0,28,2,159,16,N,1,left,0.7745260210067499,1,0,,,,,,,,,,,,,,,,,,,,,1,,,,,,,,,,,,,,,,,,,,,,,,,,,,,,,,,,,,,,,,,,,,,,105,146248,22,Female,1,2024/03/20_08:48:52,SD,None,
,,,,,,calibration,0,28,2,159,17,C,0,right,0.5472020829911344,1,0,,,,,,,,,,,,,,,,,,,,,1,,,,,,,,,,,,,,,,,,,,,,,,,,,,,,,,,,,,,,,,,,,,,,105,146248,22,Female,1,2024/03/20_08:48:52,SD,None,
,,,,,,calibration,0,28,2,159,18,X,0,right,0.8153720769914798,1,0,,,,,,,,,,,,,,,,,,,,,1,,,,,,,,,,,,,,,,,,,,,,,,,,,,,,,,,,,,,,,,,,,,,,105,146248,22,Female,1,2024/03/20_08:48:52,SD,None,
,,,,,,calibration,0,28,2,159,19,F,0,right,0.8913755609974032,1,0,,,,,,,,,,,,,,,,,,,,,1,,,,,,,,,,,,,,,,,,,,,,,,,,,,,,,,,,,,,,,,,,,,,,105,146248,22,Female,1,2024/03/20_08:48:52,SD,None,
,,,,,,calibration,0,28,2,159,20,X,1,left,0.6722009069926571,1,0,,,,,,,,,,,,,,,,,,,,,1,,,,,,,,,,,,,,,,,,,,,,,,,,,,,,,,,,,,,,,,,,,,,,105,146248,22,Female,1,2024/03/20_08:48:52,SD,None,
,,,,,,calibration,0,28,2,159,21,J,0,right,0.9586264699901221,1,0,,,,,,,,,,,,,,,,,,,,,1,,,,,,,,,,,,,,,,,,,,,,,,,,,,,,,,,,,,,,,,,,,,,,105,146248,22,Female,1,2024/03/20_08:48:52,SD,None,
,,,,,,calibration,0,28,2,159,22,S,0,right,0.8857310510065872,1,0,,,,,,,,,,,,,,,,,,,,,1,,,,,,,,,,,,,,,,,,,,,,,,,,,,,,,,,,,,,,,,,,,,,,105,146248,22,Female,1,2024/03/20_08:48:52,SD,None,
,,,,,,calibration,0,28,2,159,,,,,,,,0.9166666666666666,0.6666666666666666,0.0,1.0,0.0,1.0,0.7813563432705863,4,0,0,0,0,16,20,6,16,0,,,,1,,,,,,,,,,,,,,,,,,,,,,,,,,,,,,,,,,,,,,,,,,,,,,105,146248,22,Female,1,2024/03/20_08:48:52,SD,None,
,,,,,,Calibration,0,,2,159,,,,,,,,,,,,,,,,,,,,,,,,,10,,,1,,,,,,,,,,,,,,,,,,,,,,,,,,,,,,,,,,,,,,,,,,,,,,105,146248,22,Female,1,2024/03/20_08:48:52,SD,None,
,,,,,,calibration,0,2,2,120,1,S,0,right,0.7591734460002044,1,0,,,,,,,,,,,,,,,,,,,,,1,,,,,,,,,,,,,,,,,,,,,,,,,,,,,,,,,,,,,,,,,,,,,,105,146248,22,Female,1,2024/03/20_08:48:52,SD,None,
,,,,,,calibration,0,2,2,120,2,V,0,right,0.38579183399269823,1,0,,,,,,,,,,,,,,,,,,,,,1,,,,,,,,,,,,,,,,,,,,,,,,,,,,,,,,,,,,,,,,,,,,,,105,146248,22,Female,1,2024/03/20_08:48:52,SD,None,
,,,,,,calibration,0,2,2,120,3,J,0,right,0.7288076790136984,1,0,,,,,,,,,,,,,,,,,,,,,1,,,,,,,,,,,,,,,,,,,,,,,,,,,,,,,,,,,,,,,,,,,,,,105,146248,22,Female,1,2024/03/20_08:48:52,SD,None,
,,,,,,calibration,0,2,2,120,4,X,0,right,0.6076456839946331,1,0,,,,,,,,,,,,,,,,,,,,,1,,,,,,,,,,,,,,,,,,,,,,,,,,,,,,,,,,,,,,,,,,,,,,105,146248,22,Female,1,2024/03/20_08:48:52,SD,None,
,,,,,,calibration,0,2,2,120,5,J,1,left,0.5296414430049481,1,0,,,,,,,,,,,,,,,,,,,,,1,,,,,,,,,,,,,,,,,,,,,,,,,,,,,,,,,,,,,,,,,,,,,,105,146248,22,Female,1,2024/03/20_08:48:52,SD,None,
,,,,,,calibration,0,2,2,120,6,Q,0,right,0.641905411001062,1,0,,,,,,,,,,,,,,,,,,,,,1,,,,,,,,,,,,,,,,,,,,,,,,,,,,,,,,,,,,,,,,,,,,,,105,146248,22,Female,1,2024/03/20_08:48:52,SD,None,
,,,,,,calibration,0,2,2,120,7,J,1,left,0.8891795499948785,1,0,,,,,,,,,,,,,,,,,,,,,1,,,,,,,,,,,,,,,,,,,,,,,,,,,,,,,,,,,,,,,,,,,,,,105,146248,22,Female,1,2024/03/20_08:48:52,SD,None,
,,,,,,calibration,0,2,2,120,8,X,0,right,0.8212240979919443,1,0,,,,,,,,,,,,,,,,,,,,,1,,,,,,,,,,,,,,,,,,,,,,,,,,,,,,,,,,,,,,,,,,,,,,105,146248,22,Female,1,2024/03/20_08:48:52,SD,None,
,,,,,,calibration,0,2,2,120,9,S,0,right,0.7912762519990792,1,0,,,,,,,,,,,,,,,,,,,,,1,,,,,,,,,,,,,,,,,,,,,,,,,,,,,,,,,,,,,,,,,,,,,,105,146248,22,Female,1,2024/03/20_08:48:52,SD,None,
,,,,,,calibration,0,2,2,120,10,X,1,left,0.5005548579938477,1,0,,,,,,,,,,,,,,,,,,,,,1,,,,,,,,,,,,,,,,,,,,,,,,,,,,,,,,,,,,,,,,,,,,,,105,146248,22,Female,1,2024/03/20_08:48:52,SD,None,
,,,,,,calibration,0,2,2,120,11,F,0,right,0.7204990040045232,1,0,,,,,,,,,,,,,,,,,,,,,1,,,,,,,,,,,,,,,,,,,,,,,,,,,,,,,,,,,,,,,,,,,,,,105,146248,22,Female,1,2024/03/20_08:48:52,SD,None,
,,,,,,calibration,0,2,2,120,12,X,1,left,0.5808324419922428,1,0,,,,,,,,,,,,,,,,,,,,,1,,,,,,,,,,,,,,,,,,,,,,,,,,,,,,,,,,,,,,,,,,,,,,105,146248,22,Female,1,2024/03/20_08:48:52,SD,None,
,,,,,,calibration,0,2,2,120,13,S,0,right,0.816041336991475,1,0,,,,,,,,,,,,,,,,,,,,,1,,,,,,,,,,,,,,,,,,,,,,,,,,,,,,,,,,,,,,,,,,,,,,105,146248,22,Female,1,2024/03/20_08:48:52,SD,None,
,,,,,,calibration,0,2,2,120,14,X,1,left,0.5305664369952865,1,0,,,,,,,,,,,,,,,,,,,,,1,,,,,,,,,,,,,,,,,,,,,,,,,,,,,,,,,,,,,,,,,,,,,,105,146248,22,Female,1,2024/03/20_08:48:52,SD,None,
,,,,,,calibration,0,2,2,120,15,S,1,right,0.9645974599989131,0,0,,,,,,,,,,,,,,,,,,,,,1,,,,,,,,,,,,,,,,,,,,,,,,,,,,,,,,,,,,,,,,,,,,,,105,146248,22,Female,1,2024/03/20_08:48:52,SD,None,
,,,,,,calibration,0,2,2,120,16,F,0,right,0.6241912440018496,1,0,,,,,,,,,,,,,,,,,,,,,1,,,,,,,,,,,,,,,,,,,,,,,,,,,,,,,,,,,,,,,,,,,,,,105,146248,22,Female,1,2024/03/20_08:48:52,SD,None,
,,,,,,calibration,0,2,2,120,17,N,0,right,0.7403555399941979,1,0,,,,,,,,,,,,,,,,,,,,,1,,,,,,,,,,,,,,,,,,,,,,,,,,,,,,,,,,,,,,,,,,,,,,105,146248,22,Female,1,2024/03/20_08:48:52,SD,None,
,,,,,,calibration,0,2,2,120,18,Q,0,right,0.6419736509997165,1,0,,,,,,,,,,,,,,,,,,,,,1,,,,,,,,,,,,,,,,,,,,,,,,,,,,,,,,,,,,,,,,,,,,,,105,146248,22,Female,1,2024/03/20_08:48:52,SD,None,
,,,,,,calibration,0,2,2,120,19,S,0,right,0.914363478004816,1,0,,,,,,,,,,,,,,,,,,,,,1,,,,,,,,,,,,,,,,,,,,,,,,,,,,,,,,,,,,,,,,,,,,,,105,146248,22,Female,1,2024/03/20_08:48:52,SD,None,
,,,,,,calibration,0,2,2,120,20,N,0,right,0.8073581400094554,1,0,,,,,,,,,,,,,,,,,,,,,1,,,,,,,,,,,,,,,,,,,,,,,,,,,,,,,,,,,,,,,,,,,,,,105,146248,22,Female,1,2024/03/20_08:48:52,SD,None,
,,,,,,calibration,0,2,2,120,21,Q,0,right,0.813810674007982,1,0,,,,,,,,,,,,,,,,,,,,,1,,,,,,,,,,,,,,,,,,,,,,,,,,,,,,,,,,,,,,,,,,,,,,105,146248,22,Female,1,2024/03/20_08:48:52,SD,None,
,,,,,,calibration,0,2,2,120,22,J,0,right,0.9247314170061145,1,0,,,,,,,,,,,,,,,,,,,,,1,,,,,,,,,,,,,,,,,,,,,,,,,,,,,,,,,,,,,,,,,,,,,,105,146248,22,Female,1,2024/03/20_08:48:52,SD,None,
,,,,,,calibration,0,2,2,120,23,X,0,right,0.8094084909971571,1,0,,,,,,,,,,,,,,,,,,,,,1,,,,,,,,,,,,,,,,,,,,,,,,,,,,,,,,,,,,,,,,,,,,,,105,146248,22,Female,1,2024/03/20_08:48:52,SD,None,
,,,,,,calibration,0,2,2,120,,,,,,,,0.9583333333333334,0.8333333333333334,0.0,1.0,0.0,1.0,0.7193012856517705,5,0,0,0,0,17,22,6,17,0,,,,1,,,,,,,,,,,,,,,,,,,,,,,,,,,,,,,,,,,,,,,,,,,,,,105,146248,22,Female,1,2024/03/20_08:48:52,SD,None,
,,,,,,Calibration,0,,2,120,,,,,,,,,,,,,,,,,,,,,,,,,11,,,1,,,,,,,,,,,,,,,,,,,,,,,,,,,,,,,,,,,,,,,,,,,,,,105,146248,22,Female,1,2024/03/20_08:48:52,SD,None,
,,,,,,calibration,0,23,2,83,1,N,0,right,0.3450790409988258,1,0,,,,,,,,,,,,,,,,,,,,,1,,,,,,,,,,,,,,,,,,,,,,,,,,,,,,,,,,,,,,,,,,,,,,105,146248,22,Female,1,2024/03/20_08:48:52,SD,None,
,,,,,,calibration,0,23,2,83,2,S,0,right,0.9926997150032548,1,0,,,,,,,,,,,,,,,,,,,,,1,,,,,,,,,,,,,,,,,,,,,,,,,,,,,,,,,,,,,,,,,,,,,,105,146248,22,Female,1,2024/03/20_08:48:52,SD,None,
,,,,,,calibration,0,23,2,83,3,N,1,right,nan,0,1,,,,,,,,,,,,,,,,,,,,,1,,,,,,,,,,,,,,,,,,,,,,,,,,,,,,,,,,,,,,,,,,,,,,105,146248,22,Female,1,2024/03/20_08:48:52,SD,None,
,,,,,,calibration,0,23,2,83,4,S,1,left,0.8152965619956376,1,0,,,,,,,,,,,,,,,,,,,,,1,,,,,,,,,,,,,,,,,,,,,,,,,,,,,,,,,,,,,,,,,,,,,,105,146248,22,Female,1,2024/03/20_08:48:52,SD,None,
,,,,,,calibration,0,23,2,83,5,F,0,right,0.6246826840069843,1,0,,,,,,,,,,,,,,,,,,,,,1,,,,,,,,,,,,,,,,,,,,,,,,,,,,,,,,,,,,,,,,,,,,,,105,146248,22,Female,1,2024/03/20_08:48:52,SD,None,
,,,,,,calibration,0,23,2,83,6,X,0,right,nan,0,1,,,,,,,,,,,,,,,,,,,,,1,,,,,,,,,,,,,,,,,,,,,,,,,,,,,,,,,,,,,,,,,,,,,,105,146248,22,Female,1,2024/03/20_08:48:52,SD,None,
,,,,,,calibration,0,23,2,83,7,F,1,left,0.7758928630064474,1,0,,,,,,,,,,,,,,,,,,,,,1,,,,,,,,,,,,,,,,,,,,,,,,,,,,,,,,,,,,,,,,,,,,,,105,146248,22,Female,1,2024/03/20_08:48:52,SD,None,
,,,,,,calibration,0,23,2,83,8,S,0,right,0.8354207570082508,1,0,,,,,,,,,,,,,,,,,,,,,1,,,,,,,,,,,,,,,,,,,,,,,,,,,,,,,,,,,,,,,,,,,,,,105,146248,22,Female,1,2024/03/20_08:48:52,SD,None,
,,,,,,calibration,0,23,2,83,9,X,0,left,0.8220963100029621,0,0,,,,,,,,,,,,,,,,,,,,,1,,,,,,,,,,,,,,,,,,,,,,,,,,,,,,,,,,,,,,,,,,,,,,105,146248,22,Female,1,2024/03/20_08:48:52,SD,None,
,,,,,,calibration,0,23,2,83,10,N,0,right,0.7051202270085923,1,0,,,,,,,,,,,,,,,,,,,,,1,,,,,,,,,,,,,,,,,,,,,,,,,,,,,,,,,,,,,,,,,,,,,,105,146248,22,Female,1,2024/03/20_08:48:52,SD,None,
,,,,,,calibration,0,23,2,83,11,X,1,left,0.4955553140025586,1,0,,,,,,,,,,,,,,,,,,,,,1,,,,,,,,,,,,,,,,,,,,,,,,,,,,,,,,,,,,,,,,,,,,,,105,146248,22,Female,1,2024/03/20_08:48:52,SD,None,
,,,,,,calibration,0,23,2,83,12,N,1,left,nan,0,1,,,,,,,,,,,,,,,,,,,,,1,,,,,,,,,,,,,,,,,,,,,,,,,,,,,,,,,,,,,,,,,,,,,,105,146248,22,Female,1,2024/03/20_08:48:52,SD,None,
,,,,,,calibration,0,23,2,83,13,F,0,right,0.9649780379986623,1,0,,,,,,,,,,,,,,,,,,,,,1,,,,,,,,,,,,,,,,,,,,,,,,,,,,,,,,,,,,,,,,,,,,,,105,146248,22,Female,1,2024/03/20_08:48:52,SD,None,
,,,,,,calibration,0,23,2,83,14,S,0,right,0.8241290680016391,1,0,,,,,,,,,,,,,,,,,,,,,1,,,,,,,,,,,,,,,,,,,,,,,,,,,,,,,,,,,,,,,,,,,,,,105,146248,22,Female,1,2024/03/20_08:48:52,SD,None,
,,,,,,calibration,0,23,2,83,15,C,0,right,0.9068105519982055,1,0,,,,,,,,,,,,,,,,,,,,,1,,,,,,,,,,,,,,,,,,,,,,,,,,,,,,,,,,,,,,,,,,,,,,105,146248,22,Female,1,2024/03/20_08:48:52,SD,None,
,,,,,,calibration,0,23,2,83,16,J,0,right,0.6433214319986291,1,0,,,,,,,,,,,,,,,,,,,,,1,,,,,,,,,,,,,,,,,,,,,,,,,,,,,,,,,,,,,,,,,,,,,,105,146248,22,Female,1,2024/03/20_08:48:52,SD,None,
,,,,,,calibration,0,23,2,83,17,Q,0,right,0.8308919850096572,1,0,,,,,,,,,,,,,,,,,,,,,1,,,,,,,,,,,,,,,,,,,,,,,,,,,,,,,,,,,,,,,,,,,,,,105,146248,22,Female,1,2024/03/20_08:48:52,SD,None,
,,,,,,calibration,0,23,2,83,18,J,1,left,0.7075735440012068,1,0,,,,,,,,,,,,,,,,,,,,,1,,,,,,,,,,,,,,,,,,,,,,,,,,,,,,,,,,,,,,,,,,,,,,105,146248,22,Female,1,2024/03/20_08:48:52,SD,None,
,,,,,,calibration,0,23,2,83,19,V,0,right,0.9071643389906967,1,0,,,,,,,,,,,,,,,,,,,,,1,,,,,,,,,,,,,,,,,,,,,,,,,,,,,,,,,,,,,,,,,,,,,,105,146248,22,Female,1,2024/03/20_08:48:52,SD,None,
,,,,,,calibration,0,23,2,83,20,F,0,right,0.8776713510014815,1,0,,,,,,,,,,,,,,,,,,,,,1,,,,,,,,,,,,,,,,,,,,,,,,,,,,,,,,,,,,,,,,,,,,,,105,146248,22,Female,1,2024/03/20_08:48:52,SD,None,
,,,,,,calibration,0,23,2,83,21,V,1,left,0.9082521700038342,1,0,,,,,,,,,,,,,,,,,,,,,1,,,,,,,,,,,,,,,,,,,,,,,,,,,,,,,,,,,,,,,,,,,,,,105,146248,22,Female,1,2024/03/20_08:48:52,SD,None,
,,,,,,calibration,0,23,2,83,22,F,1,right,0.74087165799574,0,0,,,,,,,,,,,,,,,,,,,,,1,,,,,,,,,,,,,,,,,,,,,,,,,,,,,,,,,,,,,,,,,,,,,,105,146248,22,Female,1,2024/03/20_08:48:52,SD,None,
,,,,,,calibration,0,23,2,83,23,X,0,right,0.8926860649953596,1,0,,,,,,,,,,,,,,,,,,,,,1,,,,,,,,,,,,,,,,,,,,,,,,,,,,,,,,,,,,,,,,,,,,,,105,146248,22,Female,1,2024/03/20_08:48:52,SD,None,
,,,,,,calibration,0,23,2,83,24,Q,0,right,0.7580545949895168,1,0,,,,,,,,,,,,,,,,,,,,,1,,,,,,,,,,,,,,,,,,,,,,,,,,,,,,,,,,,,,,,,,,,,,,105,146248,22,Female,1,2024/03/20_08:48:52,SD,None,
,,,,,,calibration,0,23,2,83,,,,,,,,0.8671875,0.625,0.0625,0.9333333333333333,0.125,0.8125,0.779726108096102,5,1,2,1,3,14,19,8,16,0,,,,1,,,,,,,,,,,,,,,,,,,,,,,,,,,,,,,,,,,,,,,,,,,,,,105,146248,22,Female,1,2024/03/20_08:48:52,SD,None,
,,,,,,Calibration,0,,2,83,,,,,,,,,,,,,,,,,,,,,,,,,12,,,1,,,,,,,,,,,,,,,,,,,,,,,,,,,,,,,,,,,,,,,,,,,,,,105,146248,22,Female,1,2024/03/20_08:48:52,SD,None,
,,,,,,calibration,0,9,2,50,1,V,0,right,0.21072654600720853,1,0,,,,,,,,,,,,,,,,,,,,,1,,,,,,,,,,,,,,,,,,,,,,,,,,,,,,,,,,,,,,,,,,,,,,105,146248,22,Female,1,2024/03/20_08:48:52,SD,None,
,,,,,,calibration,0,9,2,50,2,X,0,right,0.5745648660085863,1,0,,,,,,,,,,,,,,,,,,,,,1,,,,,,,,,,,,,,,,,,,,,,,,,,,,,,,,,,,,,,,,,,,,,,105,146248,22,Female,1,2024/03/20_08:48:52,SD,None,
,,,,,,calibration,0,9,2,50,3,F,0,right,0.8195524189941352,1,0,,,,,,,,,,,,,,,,,,,,,1,,,,,,,,,,,,,,,,,,,,,,,,,,,,,,,,,,,,,,,,,,,,,,105,146248,22,Female,1,2024/03/20_08:48:52,SD,None,
,,,,,,calibration,0,9,2,50,4,S,0,right,0.7235427779960446,1,0,,,,,,,,,,,,,,,,,,,,,1,,,,,,,,,,,,,,,,,,,,,,,,,,,,,,,,,,,,,,,,,,,,,,105,146248,22,Female,1,2024/03/20_08:48:52,SD,None,
,,,,,,calibration,0,9,2,50,5,X,0,right,0.8029003270057729,1,0,,,,,,,,,,,,,,,,,,,,,1,,,,,,,,,,,,,,,,,,,,,,,,,,,,,,,,,,,,,,,,,,,,,,105,146248,22,Female,1,2024/03/20_08:48:52,SD,None,
,,,,,,calibration,0,9,2,50,6,J,0,right,0.6094048410013784,1,0,,,,,,,,,,,,,,,,,,,,,1,,,,,,,,,,,,,,,,,,,,,,,,,,,,,,,,,,,,,,,,,,,,,,105,146248,22,Female,1,2024/03/20_08:48:52,SD,None,
,,,,,,calibration,0,9,2,50,7,F,0,right,0.6583520050044172,1,0,,,,,,,,,,,,,,,,,,,,,1,,,,,,,,,,,,,,,,,,,,,,,,,,,,,,,,,,,,,,,,,,,,,,105,146248,22,Female,1,2024/03/20_08:48:52,SD,None,
,,,,,,calibration,0,9,2,50,8,N,0,right,0.6566629690059926,1,0,,,,,,,,,,,,,,,,,,,,,1,,,,,,,,,,,,,,,,,,,,,,,,,,,,,,,,,,,,,,,,,,,,,,105,146248,22,Female,1,2024/03/20_08:48:52,SD,None,
,,,,,,calibration,0,9,2,50,9,F,1,right,0.9240296879870584,0,0,,,,,,,,,,,,,,,,,,,,,1,,,,,,,,,,,,,,,,,,,,,,,,,,,,,,,,,,,,,,,,,,,,,,105,146248,22,Female,1,2024/03/20_08:48:52,SD,None,
,,,,,,calibration,0,9,2,50,10,Q,0,right,0.7220175440015737,1,0,,,,,,,,,,,,,,,,,,,,,1,,,,,,,,,,,,,,,,,,,,,,,,,,,,,,,,,,,,,,,,,,,,,,105,146248,22,Female,1,2024/03/20_08:48:52,SD,None,
,,,,,,calibration,0,9,2,50,11,X,0,right,0.6383680360013386,1,0,,,,,,,,,,,,,,,,,,,,,1,,,,,,,,,,,,,,,,,,,,,,,,,,,,,,,,,,,,,,,,,,,,,,105,146248,22,Female,1,2024/03/20_08:48:52,SD,None,
,,,,,,calibration,0,9,2,50,12,Q,1,right,0.6391427549970103,0,0,,,,,,,,,,,,,,,,,,,,,1,,,,,,,,,,,,,,,,,,,,,,,,,,,,,,,,,,,,,,,,,,,,,,105,146248,22,Female,1,2024/03/20_08:48:52,SD,None,
,,,,,,calibration,0,9,2,50,13,C,0,right,0.5467043520038715,1,0,,,,,,,,,,,,,,,,,,,,,1,,,,,,,,,,,,,,,,,,,,,,,,,,,,,,,,,,,,,,,,,,,,,,105,146248,22,Female,1,2024/03/20_08:48:52,SD,None,
,,,,,,calibration,0,9,2,50,14,N,0,right,0.6819823699916014,1,0,,,,,,,,,,,,,,,,,,,,,1,,,,,,,,,,,,,,,,,,,,,,,,,,,,,,,,,,,,,,,,,,,,,,105,146248,22,Female,1,2024/03/20_08:48:52,SD,None,
,,,,,,calibration,0,9,2,50,15,C,1,left,0.4440508499974385,1,0,,,,,,,,,,,,,,,,,,,,,1,,,,,,,,,,,,,,,,,,,,,,,,,,,,,,,,,,,,,,,,,,,,,,105,146248,22,Female,1,2024/03/20_08:48:52,SD,None,
,,,,,,calibration,0,9,2,50,16,Q,0,left,0.8975515060010366,0,0,,,,,,,,,,,,,,,,,,,,,1,,,,,,,,,,,,,,,,,,,,,,,,,,,,,,,,,,,,,,,,,,,,,,105,146248,22,Female,1,2024/03/20_08:48:52,SD,None,
,,,,,,calibration,0,9,2,50,17,J,0,right,0.6425405759946443,1,0,,,,,,,,,,,,,,,,,,,,,1,,,,,,,,,,,,,,,,,,,,,,,,,,,,,,,,,,,,,,,,,,,,,,105,146248,22,Female,1,2024/03/20_08:48:52,SD,None,
,,,,,,calibration,0,9,2,50,18,Q,1,right,0.8356463670061203,0,0,,,,,,,,,,,,,,,,,,,,,1,,,,,,,,,,,,,,,,,,,,,,,,,,,,,,,,,,,,,,,,,,,,,,105,146248,22,Female,1,2024/03/20_08:48:52,SD,None,
,,,,,,calibration,0,9,2,50,19,S,0,right,0.6541623340017395,1,0,,,,,,,,,,,,,,,,,,,,,1,,,,,,,,,,,,,,,,,,,,,,,,,,,,,,,,,,,,,,,,,,,,,,105,146248,22,Female,1,2024/03/20_08:48:52,SD,None,
,,,,,,calibration,0,9,2,50,20,Q,1,right,0.644929558999138,0,0,,,,,,,,,,,,,,,,,,,,,1,,,,,,,,,,,,,,,,,,,,,,,,,,,,,,,,,,,,,,,,,,,,,,105,146248,22,Female,1,2024/03/20_08:48:52,SD,None,
,,,,,,calibration,0,9,2,50,21,F,0,right,0.6754175359965302,1,0,,,,,,,,,,,,,,,,,,,,,1,,,,,,,,,,,,,,,,,,,,,,,,,,,,,,,,,,,,,,,,,,,,,,105,146248,22,Female,1,2024/03/20_08:48:52,SD,None,
,,,,,,calibration,0,9,2,50,22,Q,1,right,0.9374420079984702,0,0,,,,,,,,,,,,,,,,,,,,,1,,,,,,,,,,,,,,,,,,,,,,,,,,,,,,,,,,,,,,,,,,,,,,105,146248,22,Female,1,2024/03/20_08:48:52,SD,None,
,,,,,,calibration,0,9,2,50,23,X,0,right,0.7422443539981032,1,0,,,,,,,,,,,,,,,,,,,,,1,,,,,,,,,,,,,,,,,,,,,,,,,,,,,,,,,,,,,,,,,,,,,,105,146248,22,Female,1,2024/03/20_08:48:52,SD,None,
,,,,,,calibration,0,9,2,50,24,C,0,right,0.6471926720114425,1,0,,,,,,,,,,,,,,,,,,,,,1,,,,,,,,,,,,,,,,,,,,,,,,,,,,,,,,,,,,,,,,,,,,,,105,146248,22,Female,1,2024/03/20_08:48:52,SD,None,
,,,,,,calibration,0,9,2,50,25,X,1,left,0.42690006899647415,1,0,,,,,,,,,,,,,,,,,,,,,1,,,,,,,,,,,,,,,,,,,,,,,,,,,,,,,,,,,,,,,,,,,,,,105,146248,22,Female,1,2024/03/20_08:48:52,SD,None,
,,,,,,calibration,0,9,2,50,,,,,,,,0.7589285714285714,0.2857142857142857,0.05555555555555555,0.9444444444444444,0.0,0.9444444444444444,0.6702411730802851,2,1,0,0,0,17,19,7,18,0,,,,1,,,,,,,,,,,,,,,,,,,,,,,,,,,,,,,,,,,,,,,,,,,,,,105,146248,22,Female,1,2024/03/20_08:48:52,SD,None,
,,,,,,Calibration,0,,2,50,,,,,,,,,,,,,,,,,,,,,,,,,13,,,1,,,,,,,,,,,,,,,,,,,,,,,,,,,,,,,,,,,,,,,,,,,,,,105,146248,22,Female,1,2024/03/20_08:48:52,SD,None,
,,,,,,calibration,0,24,2,50,1,S,0,right,0.9301052929949947,1,0,,,,,,,,,,,,,,,,,,,,,1,,,,,,,,,,,,,,,,,,,,,,,,,,,,,,,,,,,,,,,,,,,,,,105,146248,22,Female,1,2024/03/20_08:48:52,SD,None,
,,,,,,calibration,0,24,2,50,2,Q,0,right,nan,0,1,,,,,,,,,,,,,,,,,,,,,1,,,,,,,,,,,,,,,,,,,,,,,,,,,,,,,,,,,,,,,,,,,,,,105,146248,22,Female,1,2024/03/20_08:48:52,SD,None,
,,,,,,calibration,0,24,2,50,3,S,1,left,0.6313346120005008,1,0,,,,,,,,,,,,,,,,,,,,,1,,,,,,,,,,,,,,,,,,,,,,,,,,,,,,,,,,,,,,,,,,,,,,105,146248,22,Female,1,2024/03/20_08:48:52,SD,None,
,,,,,,calibration,0,24,2,50,4,V,0,right,0.6740860270074336,1,0,,,,,,,,,,,,,,,,,,,,,1,,,,,,,,,,,,,,,,,,,,,,,,,,,,,,,,,,,,,,,,,,,,,,105,146248,22,Female,1,2024/03/20_08:48:52,SD,None,
,,,,,,calibration,0,24,2,50,5,S,1,left,0.8723148830031278,1,0,,,,,,,,,,,,,,,,,,,,,1,,,,,,,,,,,,,,,,,,,,,,,,,,,,,,,,,,,,,,,,,,,,,,105,146248,22,Female,1,2024/03/20_08:48:52,SD,None,
,,,,,,calibration,0,24,2,50,6,Q,0,right,0.6074133819929557,1,0,,,,,,,,,,,,,,,,,,,,,1,,,,,,,,,,,,,,,,,,,,,,,,,,,,,,,,,,,,,,,,,,,,,,105,146248,22,Female,1,2024/03/20_08:48:52,SD,None,
,,,,,,calibration,0,24,2,50,7,N,0,right,0.8026259500038577,1,0,,,,,,,,,,,,,,,,,,,,,1,,,,,,,,,,,,,,,,,,,,,,,,,,,,,,,,,,,,,,,,,,,,,,105,146248,22,Female,1,2024/03/20_08:48:52,SD,None,
,,,,,,calibration,0,24,2,50,8,X,0,right,0.5718744930054527,1,0,,,,,,,,,,,,,,,,,,,,,1,,,,,,,,,,,,,,,,,,,,,,,,,,,,,,,,,,,,,,,,,,,,,,105,146248,22,Female,1,2024/03/20_08:48:52,SD,None,
,,,,,,calibration,0,24,2,50,9,J,0,right,0.7779099280014634,1,0,,,,,,,,,,,,,,,,,,,,,1,,,,,,,,,,,,,,,,,,,,,,,,,,,,,,,,,,,,,,,,,,,,,,105,146248,22,Female,1,2024/03/20_08:48:52,SD,None,
,,,,,,calibration,0,24,2,50,10,F,0,right,0.8154457280033967,1,0,,,,,,,,,,,,,,,,,,,,,1,,,,,,,,,,,,,,,,,,,,,,,,,,,,,,,,,,,,,,,,,,,,,,105,146248,22,Female,1,2024/03/20_08:48:52,SD,None,
,,,,,,calibration,0,24,2,50,11,Q,0,right,0.7914950769918505,1,0,,,,,,,,,,,,,,,,,,,,,1,,,,,,,,,,,,,,,,,,,,,,,,,,,,,,,,,,,,,,,,,,,,,,105,146248,22,Female,1,2024/03/20_08:48:52,SD,None,
,,,,,,calibration,0,24,2,50,12,J,0,right,0.8691003629937768,1,0,,,,,,,,,,,,,,,,,,,,,1,,,,,,,,,,,,,,,,,,,,,,,,,,,,,,,,,,,,,,,,,,,,,,105,146248,22,Female,1,2024/03/20_08:48:52,SD,None,
,,,,,,calibration,0,24,2,50,13,S,0,right,0.8740256399905775,1,0,,,,,,,,,,,,,,,,,,,,,1,,,,,,,,,,,,,,,,,,,,,,,,,,,,,,,,,,,,,,,,,,,,,,105,146248,22,Female,1,2024/03/20_08:48:52,SD,None,
,,,,,,calibration,0,24,2,50,14,F,0,right,0.8528708959929645,1,0,,,,,,,,,,,,,,,,,,,,,1,,,,,,,,,,,,,,,,,,,,,,,,,,,,,,,,,,,,,,,,,,,,,,105,146248,22,Female,1,2024/03/20_08:48:52,SD,None,
,,,,,,calibration,0,24,2,50,15,C,0,right,0.8030677690112498,1,0,,,,,,,,,,,,,,,,,,,,,1,,,,,,,,,,,,,,,,,,,,,,,,,,,,,,,,,,,,,,,,,,,,,,105,146248,22,Female,1,2024/03/20_08:48:52,SD,None,
,,,,,,calibration,0,24,2,50,16,Q,0,right,0.6197370659938315,1,0,,,,,,,,,,,,,,,,,,,,,1,,,,,,,,,,,,,,,,,,,,,,,,,,,,,,,,,,,,,,,,,,,,,,105,146248,22,Female,1,2024/03/20_08:48:52,SD,None,
,,,,,,calibration,0,24,2,50,17,C,1,left,0.6735541679954622,1,0,,,,,,,,,,,,,,,,,,,,,1,,,,,,,,,,,,,,,,,,,,,,,,,,,,,,,,,,,,,,,,,,,,,,105,146248,22,Female,1,2024/03/20_08:48:52,SD,None,
,,,,,,calibration,0,24,2,50,18,J,0,right,0.7591361759987194,1,0,,,,,,,,,,,,,,,,,,,,,1,,,,,,,,,,,,,,,,,,,,,,,,,,,,,,,,,,,,,,,,,,,,,,105,146248,22,Female,1,2024/03/20_08:48:52,SD,None,
,,,,,,calibration,0,24,2,50,19,Q,0,left,0.7086360579996835,0,0,,,,,,,,,,,,,,,,,,,,,1,,,,,,,,,,,,,,,,,,,,,,,,,,,,,,,,,,,,,,,,,,,,,,105,146248,22,Female,1,2024/03/20_08:48:52,SD,None,
,,,,,,calibration,0,24,2,50,20,J,1,right,0.7880291790061165,0,0,,,,,,,,,,,,,,,,,,,,,1,,,,,,,,,,,,,,,,,,,,,,,,,,,,,,,,,,,,,,,,,,,,,,105,146248,22,Female,1,2024/03/20_08:48:52,SD,None,
,,,,,,calibration,0,24,2,50,21,X,0,right,0.8321436640108004,1,0,,,,,,,,,,,,,,,,,,,,,1,,,,,,,,,,,,,,,,,,,,,,,,,,,,,,,,,,,,,,,,,,,,,,105,146248,22,Female,1,2024/03/20_08:48:52,SD,None,
,,,,,,calibration,0,24,2,50,22,J,1,left,0.7015688590036007,1,0,,,,,,,,,,,,,,,,,,,,,1,,,,,,,,,,,,,,,,,,,,,,,,,,,,,,,,,,,,,,,,,,,,,,105,146248,22,Female,1,2024/03/20_08:48:52,SD,None,
,,,,,,calibration,0,24,2,50,23,Q,0,right,0.72067415699712,1,0,,,,,,,,,,,,,,,,,,,,,1,,,,,,,,,,,,,,,,,,,,,,,,,,,,,,,,,,,,,,,,,,,,,,105,146248,22,Female,1,2024/03/20_08:48:52,SD,None,
,,,,,,calibration,0,24,2,50,24,V,0,right,0.8780712209991179,1,0,,,,,,,,,,,,,,,,,,,,,1,,,,,,,,,,,,,,,,,,,,,,,,,,,,,,,,,,,,,,,,,,,,,,105,146248,22,Female,1,2024/03/20_08:48:52,SD,None,
,,,,,,calibration,0,24,2,50,25,Q,1,right,0.9424958189920289,0,0,,,,,,,,,,,,,,,,,,,,,1,,,,,,,,,,,,,,,,,,,,,,,,,,,,,,,,,,,,,,,,,,,,,,105,146248,22,Female,1,2024/03/20_08:48:52,SD,None,
,,,,,,calibration,0,24,2,50,,,,,,,,0.8859649122807016,0.6666666666666666,0.05263157894736842,0.9444444444444444,0.04,0.9073684210526316,0.7707381836662535,4,1,0,1,1,17,21,6,19,0,,,,1,,,,,,,,,,,,,,,,,,,,,,,,,,,,,,,,,,,,,,,,,,,,,,105,146248,22,Female,1,2024/03/20_08:48:52,SD,None,
,,,,,,Calibration,0,,2,50,,,,,,,,,,,,,,,,,,,,,,,,,14,,,1,,,,,,,,,,,,,,,,,,,,,,,,,,,,,,,,,,,,,,,,,,,,,,105,146248,22,Female,1,2024/03/20_08:48:52,SD,None,
,,,,,,calibration,0,9,2,19,1,S,0,right,0.31267654000839684,1,0,,,,,,,,,,,,,,,,,,,,,1,,,,,,,,,,,,,,,,,,,,,,,,,,,,,,,,,,,,,,,,,,,,,,105,146248,22,Female,1,2024/03/20_08:48:52,SD,None,
,,,,,,calibration,0,9,2,19,2,J,0,right,0.8923585459997412,1,0,,,,,,,,,,,,,,,,,,,,,1,,,,,,,,,,,,,,,,,,,,,,,,,,,,,,,,,,,,,,,,,,,,,,105,146248,22,Female,1,2024/03/20_08:48:52,SD,None,
,,,,,,calibration,0,9,2,19,3,X,0,right,0.5923909080011072,1,0,,,,,,,,,,,,,,,,,,,,,1,,,,,,,,,,,,,,,,,,,,,,,,,,,,,,,,,,,,,,,,,,,,,,105,146248,22,Female,1,2024/03/20_08:48:52,SD,None,
,,,,,,calibration,0,9,2,19,4,Q,0,right,0.5581997789995512,1,0,,,,,,,,,,,,,,,,,,,,,1,,,,,,,,,,,,,,,,,,,,,,,,,,,,,,,,,,,,,,,,,,,,,,105,146248,22,Female,1,2024/03/20_08:48:52,SD,None,
,,,,,,calibration,0,9,2,19,5,X,1,right,0.5549374900001567,0,0,,,,,,,,,,,,,,,,,,,,,1,,,,,,,,,,,,,,,,,,,,,,,,,,,,,,,,,,,,,,,,,,,,,,105,146248,22,Female,1,2024/03/20_08:48:52,SD,None,
,,,,,,calibration,0,9,2,19,6,N,0,right,0.6636924869962968,1,0,,,,,,,,,,,,,,,,,,,,,1,,,,,,,,,,,,,,,,,,,,,,,,,,,,,,,,,,,,,,,,,,,,,,105,146248,22,Female,1,2024/03/20_08:48:52,SD,None,
,,,,,,calibration,0,9,2,19,7,X,1,left,0.5822851389966672,1,0,,,,,,,,,,,,,,,,,,,,,1,,,,,,,,,,,,,,,,,,,,,,,,,,,,,,,,,,,,,,,,,,,,,,105,146248,22,Female,1,2024/03/20_08:48:52,SD,None,
,,,,,,calibration,0,9,2,19,8,F,0,right,0.5759860649995971,1,0,,,,,,,,,,,,,,,,,,,,,1,,,,,,,,,,,,,,,,,,,,,,,,,,,,,,,,,,,,,,,,,,,,,,105,146248,22,Female,1,2024/03/20_08:48:52,SD,None,
,,,,,,calibration,0,9,2,19,9,X,1,left,0.6056232020055177,1,0,,,,,,,,,,,,,,,,,,,,,1,,,,,,,,,,,,,,,,,,,,,,,,,,,,,,,,,,,,,,,,,,,,,,105,146248,22,Female,1,2024/03/20_08:48:52,SD,None,
,,,,,,calibration,0,9,2,19,10,F,1,right,0.48120477399788797,0,0,,,,,,,,,,,,,,,,,,,,,1,,,,,,,,,,,,,,,,,,,,,,,,,,,,,,,,,,,,,,,,,,,,,,105,146248,22,Female,1,2024/03/20_08:48:52,SD,None,
,,,,,,calibration,0,9,2,19,11,J,0,right,0.6819149219954852,1,0,,,,,,,,,,,,,,,,,,,,,1,,,,,,,,,,,,,,,,,,,,,,,,,,,,,,,,,,,,,,,,,,,,,,105,146248,22,Female,1,2024/03/20_08:48:52,SD,None,
,,,,,,calibration,0,9,2,19,12,Q,0,right,0.7523771109990776,1,0,,,,,,,,,,,,,,,,,,,,,1,,,,,,,,,,,,,,,,,,,,,,,,,,,,,,,,,,,,,,,,,,,,,,105,146248,22,Female,1,2024/03/20_08:48:52,SD,None,
,,,,,,calibration,0,9,2,19,13,J,1,right,0.49808034900343046,0,0,,,,,,,,,,,,,,,,,,,,,1,,,,,,,,,,,,,,,,,,,,,,,,,,,,,,,,,,,,,,,,,,,,,,105,146248,22,Female,1,2024/03/20_08:48:52,SD,None,
,,,,,,calibration,0,9,2,19,14,X,0,right,0.6624625230033416,1,0,,,,,,,,,,,,,,,,,,,,,1,,,,,,,,,,,,,,,,,,,,,,,,,,,,,,,,,,,,,,,,,,,,,,105,146248,22,Female,1,2024/03/20_08:48:52,SD,None,
,,,,,,calibration,0,9,2,19,15,N,0,right,0.7420697290071985,1,0,,,,,,,,,,,,,,,,,,,,,1,,,,,,,,,,,,,,,,,,,,,,,,,,,,,,,,,,,,,,,,,,,,,,105,146248,22,Female,1,2024/03/20_08:48:52,SD,None,
,,,,,,calibration,0,9,2,19,16,Q,0,right,0.6924170989950653,1,0,,,,,,,,,,,,,,,,,,,,,1,,,,,,,,,,,,,,,,,,,,,,,,,,,,,,,,,,,,,,,,,,,,,,105,146248,22,Female,1,2024/03/20_08:48:52,SD,None,
,,,,,,calibration,0,9,2,19,17,S,0,right,0.5582075569982408,1,0,,,,,,,,,,,,,,,,,,,,,1,,,,,,,,,,,,,,,,,,,,,,,,,,,,,,,,,,,,,,,,,,,,,,105,146248,22,Female,1,2024/03/20_08:48:52,SD,None,
,,,,,,calibration,0,9,2,19,18,Q,1,right,0.6052470760041615,0,0,,,,,,,,,,,,,,,,,,,,,1,,,,,,,,,,,,,,,,,,,,,,,,,,,,,,,,,,,,,,,,,,,,,,105,146248,22,Female,1,2024/03/20_08:48:52,SD,None,
,,,,,,calibration,0,9,2,19,19,C,0,right,0.6740841059945524,1,0,,,,,,,,,,,,,,,,,,,,,1,,,,,,,,,,,,,,,,,,,,,,,,,,,,,,,,,,,,,,,,,,,,,,105,146248,22,Female,1,2024/03/20_08:48:52,SD,None,
,,,,,,calibration,0,9,2,19,20,J,0,right,0.8523851860081777,1,0,,,,,,,,,,,,,,,,,,,,,1,,,,,,,,,,,,,,,,,,,,,,,,,,,,,,,,,,,,,,,,,,,,,,105,146248,22,Female,1,2024/03/20_08:48:52,SD,None,
,,,,,,calibration,0,9,2,19,21,V,0,right,0.5953500710020307,1,0,,,,,,,,,,,,,,,,,,,,,1,,,,,,,,,,,,,,,,,,,,,,,,,,,,,,,,,,,,,,,,,,,,,,105,146248,22,Female,1,2024/03/20_08:48:52,SD,None,
,,,,,,calibration,0,9,2,19,22,N,0,right,0.5239572129939916,1,0,,,,,,,,,,,,,,,,,,,,,1,,,,,,,,,,,,,,,,,,,,,,,,,,,,,,,,,,,,,,,,,,,,,,105,146248,22,Female,1,2024/03/20_08:48:52,SD,None,
,,,,,,calibration,0,9,2,19,23,J,0,left,0.6889360130007844,0,0,,,,,,,,,,,,,,,,,,,,,1,,,,,,,,,,,,,,,,,,,,,,,,,,,,,,,,,,,,,,,,,,,,,,105,146248,22,Female,1,2024/03/20_08:48:52,SD,None,
,,,,,,calibration,0,9,2,19,24,S,0,right,0.624291000989615,1,0,,,,,,,,,,,,,,,,,,,,,1,,,,,,,,,,,,,,,,,,,,,,,,,,,,,,,,,,,,,,,,,,,,,,105,146248,22,Female,1,2024/03/20_08:48:52,SD,None,
,,,,,,calibration,0,9,2,19,25,J,1,left,0.9042763679899508,1,0,,,,,,,,,,,,,,,,,,,,,1,,,,,,,,,,,,,,,,,,,,,,,,,,,,,,,,,,,,,,,,,,,,,,105,146248,22,Female,1,2024/03/20_08:48:52,SD,None,
,,,,,,calibration,0,9,2,19,26,X,0,right,0.7708719599904725,1,0,,,,,,,,,,,,,,,,,,,,,1,,,,,,,,,,,,,,,,,,,,,,,,,,,,,,,,,,,,,,,,,,,,,,105,146248,22,Female,1,2024/03/20_08:48:52,SD,None,
,,,,,,calibration,0,9,2,19,,,,,,,,0.8132832080200502,0.42857142857142855,0.05263157894736842,0.9473684210526315,0.0,0.9473684210526316,0.640241662076173,3,1,0,0,0,18,21,7,19,0,,,,1,,,,,,,,,,,,,,,,,,,,,,,,,,,,,,,,,,,,,,,,,,,,,,105,146248,22,Female,1,2024/03/20_08:48:52,SD,None,
,,,,,,Calibration,0,,2,19,,,,,,,,,,,,,,,,,,,,,,,,,15,,,1,,,,,,,,,,,,,,,,,,,,,,,,,,,,,,,,,,,,,,,,,,,,,,105,146248,22,Female,1,2024/03/20_08:48:52,SD,None,
,,,,,,CALIBRATION,0,,,,,,,,,,,,,,,,,,,,,,,,,,,,15,0.8132832080200502,19,1,,,,,,,,,,,,,,,,,,,,,,,,,,,,,,,,,,,,,,,,,,,,,,105,146248,22,Female,1,2024/03/20_08:48:52,SD,None,
1,./instructions/inst_prac_1/Slide24.png,right,8.240726567993988,594.0787857929972,602.3195123609912,,,,,,,,,,,,,,,,,,,,,,,,,,,,,,,,,1,,,,,,,,,,,,,,,,,,,,,,,,,,,,,,,,,,,,,,,,,,,,,,105,146248,22,Female,1,2024/03/20_08:48:52,SD,None,
2,./instructions/inst_prac_1/Slide25.png,right,1.4751111220102757,602.3483629129914,603.8234740350017,,,,,,,,,,,,,,,,,,,,,,,,,,,,,,,,,1,,,,,,,,,,,,,,,,,,,,,,,,,,,,,,,,,,,,,,,,,,,,,,105,146248,22,Female,1,2024/03/20_08:48:52,SD,None,
3,./instructions/inst_prac_1/Slide26.png,right,0.6754462950048037,603.8521345859917,604.5275808809965,,,,,,,,,,,,,,,,,,,,,,,,,,,,,,,,,1,,,,,,,,,,,,,,,,,,,,,,,,,,,,,,,,,,,,,,,,,,,,,,105,146248,22,Female,1,2024/03/20_08:48:52,SD,None,
4,./instructions/inst_prac_1/Slide27.png,right,0.5656769740016898,604.5538619839936,605.1195389579952,,,,,,,,,,,,,,,,,,,,,,,,,,,,,,,,,1,,,,,,,,,,,,,,,,,,,,,,,,,,,,,,,,,,,,,,,,,,,,,,105,146248,22,Female,1,2024/03/20_08:48:52,SD,None,
5,./instructions/inst_prac_1/Slide28.png,right,0.6116612979967613,605.1479886199959,605.7596499179926,,,,,,,,,,,,,,,,,,,,,,,,,,,,,,,,,1,,,,,,,,,,,,,,,,,,,,,,,,,,,,,,,,,,,,,,,,,,,,,,105,146248,22,Female,1,2024/03/20_08:48:52,SD,None,
6,./instructions/inst_prac_1/Slide29.png,right,4.044114641990745,605.7874865920021,609.8316012339928,,,,,,,,,,,,,,,,,,,,,,,,,,,,,,,,,1,,,,,,,,,,,,,,,,,,,,,,,,,,,,,,,,,,,,,,,,,,,,,,105,146248,22,Female,1,2024/03/20_08:48:52,SD,None,
7,./instructions/inst_prac_1/Slide30.png,right,2.8218396220036084,609.8578893849917,612.6797290069953,,,,,,,,,,,,,,,,,,,,,,,,,,,,,,,,,1,,,,,,,,,,,,,,,,,,,,,,,,,,,,,,,,,,,,,,,,,,,,,,105,146248,22,Female,1,2024/03/20_08:48:52,SD,None,
,,,,,,practice,0,8,1,1250,1,F,0,right,3.3786665119987447,1,0,,,,,,,,,,,,,,,,,,,,,1,,,,,,,,,,,,,,,,,,,,,,,,,,,,,,,,,,,,,,,,,,,,,,105,146248,22,Female,1,2024/03/20_08:48:52,SD,None,
,,,,,,practice,0,8,1,1250,2,J,0,right,0.8363911219930742,1,0,,,,,,,,,,,,,,,,,,,,,1,,,,,,,,,,,,,,,,,,,,,,,,,,,,,,,,,,,,,,,,,,,,,,105,146248,22,Female,1,2024/03/20_08:48:52,SD,None,
,,,,,,practice,0,8,1,1250,3,J,1,left,0.6146221400122158,1,0,,,,,,,,,,,,,,,,,,,,,1,,,,,,,,,,,,,,,,,,,,,,,,,,,,,,,,,,,,,,,,,,,,,,105,146248,22,Female,1,2024/03/20_08:48:52,SD,None,
,,,,,,practice,0,8,1,1250,4,X,0,right,0.6767611960094655,1,0,,,,,,,,,,,,,,,,,,,,,1,,,,,,,,,,,,,,,,,,,,,,,,,,,,,,,,,,,,,,,,,,,,,,105,146248,22,Female,1,2024/03/20_08:48:52,SD,None,
,,,,,,practice,0,8,1,1250,5,X,1,left,0.7601650340075139,1,0,,,,,,,,,,,,,,,,,,,,,1,,,,,,,,,,,,,,,,,,,,,,,,,,,,,,,,,,,,,,,,,,,,,,105,146248,22,Female,1,2024/03/20_08:48:52,SD,None,
,,,,,,practice,0,8,1,1250,6,S,0,right,0.8378762479987927,1,0,,,,,,,,,,,,,,,,,,,,,1,,,,,,,,,,,,,,,,,,,,,,,,,,,,,,,,,,,,,,,,,,,,,,105,146248,22,Female,1,2024/03/20_08:48:52,SD,None,
,,,,,,practice,0,8,1,1250,7,V,0,right,0.9501088070101105,1,0,,,,,,,,,,,,,,,,,,,,,1,,,,,,,,,,,,,,,,,,,,,,,,,,,,,,,,,,,,,,,,,,,,,,105,146248,22,Female,1,2024/03/20_08:48:52,SD,None,
,,,,,,practice,0,8,1,1250,8,N,0,right,0.5337003980093868,1,0,,,,,,,,,,,,,,,,,,,,,1,,,,,,,,,,,,,,,,,,,,,,,,,,,,,,,,,,,,,,,,,,,,,,105,146248,22,Female,1,2024/03/20_08:48:52,SD,None,
,,,,,,practice,0,8,1,1250,9,N,1,left,0.9092873860063264,1,0,,,,,,,,,,,,,,,,,,,,,1,,,,,,,,,,,,,,,,,,,,,,,,,,,,,,,,,,,,,,,,,,,,,,105,146248,22,Female,1,2024/03/20_08:48:52,SD,None,
,,,,,,practice,0,8,1,1250,10,V,0,right,1.2372611260070698,1,0,,,,,,,,,,,,,,,,,,,,,1,,,,,,,,,,,,,,,,,,,,,,,,,,,,,,,,,,,,,,,,,,,,,,105,146248,22,Female,1,2024/03/20_08:48:52,SD,None,
,,,,,,practice,0,8,1,1250,,,,,,,,1.0,1.0,0.0,1.0,0.0,1.0,1.07348399690527,3,0,0,0,0,7,10,3,7,0,,,,1,,,,,,,,,,,,,,,,,,,,,,,,,,,,,,,,,,,,,,,,,,,,,,105,146248,22,Female,1,2024/03/20_08:48:52,SD,None,
1,./instructions/inst_prac_1_next/Slide35.png,right,1.6891308659978677,633.9505490199954,635.6396798859932,,,,,,,,,,,,,,,,,,,,,,,,,,,,,,,,,1,,,,,,,,,,,,,,,,,,,,,,,,,,,,,,,,,,,,,,,,,,,,,,105,146248,22,Female,1,2024/03/20_08:48:52,SD,None,
,,,,,,practice,0,7,1,19,1,N,0,right,1.164851338005974,1,0,,,,,,,,,,,,,,,,,,,,,1,,,,,,,,,,,,,,,,,,,,,,,,,,,,,,,,,,,,,,,,,,,,,,105,146248,22,Female,1,2024/03/20_08:48:52,SD,None,
,,,,,,practice,0,7,1,19,2,J,0,right,0.6168219770042924,1,0,,,,,,,,,,,,,,,,,,,,,1,,,,,,,,,,,,,,,,,,,,,,,,,,,,,,,,,,,,,,,,,,,,,,105,146248,22,Female,1,2024/03/20_08:48:52,SD,None,
,,,,,,practice,0,7,1,19,3,S,0,right,0.675865914003225,1,0,,,,,,,,,,,,,,,,,,,,,1,,,,,,,,,,,,,,,,,,,,,,,,,,,,,,,,,,,,,,,,,,,,,,105,146248,22,Female,1,2024/03/20_08:48:52,SD,None,
,,,,,,practice,0,7,1,19,4,C,0,right,0.6370421839965275,1,0,,,,,,,,,,,,,,,,,,,,,1,,,,,,,,,,,,,,,,,,,,,,,,,,,,,,,,,,,,,,,,,,,,,,105,146248,22,Female,1,2024/03/20_08:48:52,SD,None,
,,,,,,practice,0,7,1,19,5,C,1,left,0.5123587369889719,1,0,,,,,,,,,,,,,,,,,,,,,1,,,,,,,,,,,,,,,,,,,,,,,,,,,,,,,,,,,,,,,,,,,,,,105,146248,22,Female,1,2024/03/20_08:48:52,SD,None,
,,,,,,practice,0,7,1,19,6,S,0,right,0.6362854720064206,1,0,,,,,,,,,,,,,,,,,,,,,1,,,,,,,,,,,,,,,,,,,,,,,,,,,,,,,,,,,,,,,,,,,,,,105,146248,22,Female,1,2024/03/20_08:48:52,SD,None,
,,,,,,practice,0,7,1,19,7,S,1,left,0.624346226992202,1,0,,,,,,,,,,,,,,,,,,,,,1,,,,,,,,,,,,,,,,,,,,,,,,,,,,,,,,,,,,,,,,,,,,,,105,146248,22,Female,1,2024/03/20_08:48:52,SD,None,
,,,,,,practice,0,7,1,19,8,C,0,right,1.0010084400128108,1,0,,,,,,,,,,,,,,,,,,,,,1,,,,,,,,,,,,,,,,,,,,,,,,,,,,,,,,,,,,,,,,,,,,,,105,146248,22,Female,1,2024/03/20_08:48:52,SD,None,
,,,,,,practice,0,7,1,19,9,C,1,right,0.7611854470014805,0,0,,,,,,,,,,,,,,,,,,,,,1,,,,,,,,,,,,,,,,,,,,,,,,,,,,,,,,,,,,,,,,,,,,,,105,146248,22,Female,1,2024/03/20_08:48:52,SD,None,
,,,,,,practice,0,7,1,19,10,F,0,right,0.9008441670011962,1,0,,,,,,,,,,,,,,,,,,,,,1,,,,,,,,,,,,,,,,,,,,,,,,,,,,,,,,,,,,,,,,,,,,,,105,146248,22,Female,1,2024/03/20_08:48:52,SD,None,
,,,,,,practice,0,7,1,19,11,N,0,right,0.6882071089930832,1,0,,,,,,,,,,,,,,,,,,,,,1,,,,,,,,,,,,,,,,,,,,,,,,,,,,,,,,,,,,,,,,,,,,,,105,146248,22,Female,1,2024/03/20_08:48:52,SD,None,
,,,,,,practice,0,7,1,19,12,X,0,right,0.6812439110071864,1,0,,,,,,,,,,,,,,,,,,,,,1,,,,,,,,,,,,,,,,,,,,,,,,,,,,,,,,,,,,,,,,,,,,,,105,146248,22,Female,1,2024/03/20_08:48:52,SD,None,
,,,,,,practice,0,7,1,19,13,X,1,left,0.5607056550070411,1,0,,,,,,,,,,,,,,,,,,,,,1,,,,,,,,,,,,,,,,,,,,,,,,,,,,,,,,,,,,,,,,,,,,,,105,146248,22,Female,1,2024/03/20_08:48:52,SD,None,
,,,,,,practice,0,7,1,19,14,J,0,right,0.7085727180092363,1,0,,,,,,,,,,,,,,,,,,,,,1,,,,,,,,,,,,,,,,,,,,,,,,,,,,,,,,,,,,,,,,,,,,,,105,146248,22,Female,1,2024/03/20_08:48:52,SD,None,
,,,,,,practice,0,7,1,19,15,S,0,right,0.8581938090064796,1,0,,,,,,,,,,,,,,,,,,,,,1,,,,,,,,,,,,,,,,,,,,,,,,,,,,,,,,,,,,,,,,,,,,,,105,146248,22,Female,1,2024/03/20_08:48:52,SD,None,
,,,,,,practice,0,7,1,19,16,J,0,right,0.8655457490094705,1,0,,,,,,,,,,,,,,,,,,,,,1,,,,,,,,,,,,,,,,,,,,,,,,,,,,,,,,,,,,,,,,,,,,,,105,146248,22,Female,1,2024/03/20_08:48:52,SD,None,
,,,,,,practice,0,7,1,19,17,J,1,left,0.7133280349953566,1,0,,,,,,,,,,,,,,,,,,,,,1,,,,,,,,,,,,,,,,,,,,,,,,,,,,,,,,,,,,,,,,,,,,,,105,146248,22,Female,1,2024/03/20_08:48:52,SD,None,
,,,,,,practice,0,7,1,19,18,F,0,right,0.5403947970044101,1,0,,,,,,,,,,,,,,,,,,,,,1,,,,,,,,,,,,,,,,,,,,,,,,,,,,,,,,,,,,,,,,,,,,,,105,146248,22,Female,1,2024/03/20_08:48:52,SD,None,
,,,,,,practice,0,7,1,19,19,S,0,right,0.7085789169941563,1,0,,,,,,,,,,,,,,,,,,,,,1,,,,,,,,,,,,,,,,,,,,,,,,,,,,,,,,,,,,,,,,,,,,,,105,146248,22,Female,1,2024/03/20_08:48:52,SD,None,
,,,,,,practice,0,7,1,19,20,S,1,left,0.44157656900642905,1,0,,,,,,,,,,,,,,,,,,,,,1,,,,,,,,,,,,,,,,,,,,,,,,,,,,,,,,,,,,,,,,,,,,,,105,146248,22,Female,1,2024/03/20_08:48:52,SD,None,
,,,,,,practice,0,7,1,19,21,Q,0,right,0.49030579600366764,1,0,,,,,,,,,,,,,,,,,,,,,1,,,,,,,,,,,,,,,,,,,,,,,,,,,,,,,,,,,,,,,,,,,,,,105,146248,22,Female,1,2024/03/20_08:48:52,SD,None,
,,,,,,practice,0,7,1,19,22,X,0,right,0.48924580500170123,1,0,,,,,,,,,,,,,,,,,,,,,1,,,,,,,,,,,,,,,,,,,,,,,,,,,,,,,,,,,,,,,,,,,,,,105,146248,22,Female,1,2024/03/20_08:48:52,SD,None,
,,,,,,practice,0,7,1,19,23,Q,0,right,0.5366451570007484,1,0,,,,,,,,,,,,,,,,,,,,,1,,,,,,,,,,,,,,,,,,,,,,,,,,,,,,,,,,,,,,,,,,,,,,105,146248,22,Female,1,2024/03/20_08:48:52,SD,None,
,,,,,,practice,0,7,1,19,24,J,0,right,0.6877056100056507,1,0,,,,,,,,,,,,,,,,,,,,,1,,,,,,,,,,,,,,,,,,,,,,,,,,,,,,,,,,,,,,,,,,,,,,105,146248,22,Female,1,2024/03/20_08:48:52,SD,None,
,,,,,,practice,0,7,1,19,25,J,1,left,0.4409554440062493,1,0,,,,,,,,,,,,,,,,,,,,,1,,,,,,,,,,,,,,,,,,,,,,,,,,,,,,,,,,,,,,,,,,,,,,105,146248,22,Female,1,2024/03/20_08:48:52,SD,None,
,,,,,,practice,0,7,1,19,26,S,0,right,0.7127246129966807,1,0,,,,,,,,,,,,,,,,,,,,,1,,,,,,,,,,,,,,,,,,,,,,,,,,,,,,,,,,,,,,,,,,,,,,105,146248,22,Female,1,2024/03/20_08:48:52,SD,None,
,,,,,,practice,0,7,1,19,,,,,,,,0.9642857142857143,0.8571428571428571,0.0,1.0,0.0,1.0,0.6790207537331019,6,0,0,0,0,19,25,7,19,0,,,,1,,,,,,,,,,,,,,,,,,,,,,,,,,,,,,,,,,,,,,,,,,,,,,105,146248,22,Female,1,2024/03/20_08:48:52,SD,None,
,,,,,,practice,0,22,1,19,1,N,0,right,0.8054237350006588,1,0,,,,,,,,,,,,,,,,,,,,,1,,,,,,,,,,,,,,,,,,,,,,,,,,,,,,,,,,,,,,,,,,,,,,105,146248,22,Female,1,2024/03/20_08:48:52,SD,None,
,,,,,,practice,0,22,1,19,2,X,0,right,0.5451230649923673,1,0,,,,,,,,,,,,,,,,,,,,,1,,,,,,,,,,,,,,,,,,,,,,,,,,,,,,,,,,,,,,,,,,,,,,105,146248,22,Female,1,2024/03/20_08:48:52,SD,None,
,,,,,,practice,0,22,1,19,3,V,0,right,0.5209622349939309,1,0,,,,,,,,,,,,,,,,,,,,,1,,,,,,,,,,,,,,,,,,,,,,,,,,,,,,,,,,,,,,,,,,,,,,105,146248,22,Female,1,2024/03/20_08:48:52,SD,None,
,,,,,,practice,0,22,1,19,4,C,0,right,0.6561306779913139,1,0,,,,,,,,,,,,,,,,,,,,,1,,,,,,,,,,,,,,,,,,,,,,,,,,,,,,,,,,,,,,,,,,,,,,105,146248,22,Female,1,2024/03/20_08:48:52,SD,None,
,,,,,,practice,0,22,1,19,5,N,0,right,0.6079732059879461,1,0,,,,,,,,,,,,,,,,,,,,,1,,,,,,,,,,,,,,,,,,,,,,,,,,,,,,,,,,,,,,,,,,,,,,105,146248,22,Female,1,2024/03/20_08:48:52,SD,None,
,,,,,,practice,0,22,1,19,6,N,1,left,0.5937941729935119,1,0,,,,,,,,,,,,,,,,,,,,,1,,,,,,,,,,,,,,,,,,,,,,,,,,,,,,,,,,,,,,,,,,,,,,105,146248,22,Female,1,2024/03/20_08:48:52,SD,None,
,,,,,,practice,0,22,1,19,7,X,0,right,0.44991013400431257,1,0,,,,,,,,,,,,,,,,,,,,,1,,,,,,,,,,,,,,,,,,,,,,,,,,,,,,,,,,,,,,,,,,,,,,105,146248,22,Female,1,2024/03/20_08:48:52,SD,None,
,,,,,,practice,0,22,1,19,8,X,1,left,0.7203509160026442,1,0,,,,,,,,,,,,,,,,,,,,,1,,,,,,,,,,,,,,,,,,,,,,,,,,,,,,,,,,,,,,,,,,,,,,105,146248,22,Female,1,2024/03/20_08:48:52,SD,None,
,,,,,,practice,0,22,1,19,9,V,0,right,0.506221767005627,1,0,,,,,,,,,,,,,,,,,,,,,1,,,,,,,,,,,,,,,,,,,,,,,,,,,,,,,,,,,,,,,,,,,,,,105,146248,22,Female,1,2024/03/20_08:48:52,SD,None,
,,,,,,practice,0,22,1,19,10,S,0,right,0.515668462991016,1,0,,,,,,,,,,,,,,,,,,,,,1,,,,,,,,,,,,,,,,,,,,,,,,,,,,,,,,,,,,,,,,,,,,,,105,146248,22,Female,1,2024/03/20_08:48:52,SD,None,
,,,,,,practice,0,22,1,19,11,N,0,right,0.5437096520035993,1,0,,,,,,,,,,,,,,,,,,,,,1,,,,,,,,,,,,,,,,,,,,,,,,,,,,,,,,,,,,,,,,,,,,,,105,146248,22,Female,1,2024/03/20_08:48:52,SD,None,
,,,,,,practice,0,22,1,19,12,X,0,right,0.5523690809932305,1,0,,,,,,,,,,,,,,,,,,,,,1,,,,,,,,,,,,,,,,,,,,,,,,,,,,,,,,,,,,,,,,,,,,,,105,146248,22,Female,1,2024/03/20_08:48:52,SD,None,
,,,,,,practice,0,22,1,19,13,X,1,left,0.4332328040036373,1,0,,,,,,,,,,,,,,,,,,,,,1,,,,,,,,,,,,,,,,,,,,,,,,,,,,,,,,,,,,,,,,,,,,,,105,146248,22,Female,1,2024/03/20_08:48:52,SD,None,
,,,,,,practice,0,22,1,19,14,V,0,right,0.4365522190055344,1,0,,,,,,,,,,,,,,,,,,,,,1,,,,,,,,,,,,,,,,,,,,,,,,,,,,,,,,,,,,,,,,,,,,,,105,146248,22,Female,1,2024/03/20_08:48:52,SD,None,
,,,,,,practice,0,22,1,19,15,J,0,right,0.48842800900456496,1,0,,,,,,,,,,,,,,,,,,,,,1,,,,,,,,,,,,,,,,,,,,,,,,,,,,,,,,,,,,,,,,,,,,,,105,146248,22,Female,1,2024/03/20_08:48:52,SD,None,
,,,,,,practice,0,22,1,19,16,J,1,left,0.6083800039923517,1,0,,,,,,,,,,,,,,,,,,,,,1,,,,,,,,,,,,,,,,,,,,,,,,,,,,,,,,,,,,,,,,,,,,,,105,146248,22,Female,1,2024/03/20_08:48:52,SD,None,
,,,,,,practice,0,22,1,19,17,N,0,right,0.416211490999558,1,0,,,,,,,,,,,,,,,,,,,,,1,,,,,,,,,,,,,,,,,,,,,,,,,,,,,,,,,,,,,,,,,,,,,,105,146248,22,Female,1,2024/03/20_08:48:52,SD,None,
,,,,,,practice,0,22,1,19,18,N,1,left,0.5623172670020722,1,0,,,,,,,,,,,,,,,,,,,,,1,,,,,,,,,,,,,,,,,,,,,,,,,,,,,,,,,,,,,,,,,,,,,,105,146248,22,Female,1,2024/03/20_08:48:52,SD,None,
,,,,,,practice,0,22,1,19,19,X,0,right,0.3438498379982775,1,0,,,,,,,,,,,,,,,,,,,,,1,,,,,,,,,,,,,,,,,,,,,,,,,,,,,,,,,,,,,,,,,,,,,,105,146248,22,Female,1,2024/03/20_08:48:52,SD,None,
,,,,,,practice,0,22,1,19,20,N,0,right,0.7135211210115813,1,0,,,,,,,,,,,,,,,,,,,,,1,,,,,,,,,,,,,,,,,,,,,,,,,,,,,,,,,,,,,,,,,,,,,,105,146248,22,Female,1,2024/03/20_08:48:52,SD,None,
,,,,,,practice,0,22,1,19,21,X,0,right,0.5968289419979556,1,0,,,,,,,,,,,,,,,,,,,,,1,,,,,,,,,,,,,,,,,,,,,,,,,,,,,,,,,,,,,,,,,,,,,,105,146248,22,Female,1,2024/03/20_08:48:52,SD,None,
,,,,,,practice,0,22,1,19,22,S,0,right,0.5054399629880209,1,0,,,,,,,,,,,,,,,,,,,,,1,,,,,,,,,,,,,,,,,,,,,,,,,,,,,,,,,,,,,,,,,,,,,,105,146248,22,Female,1,2024/03/20_08:48:52,SD,None,
,,,,,,practice,0,22,1,19,23,S,1,left,0.4209079909924185,1,0,,,,,,,,,,,,,,,,,,,,,1,,,,,,,,,,,,,,,,,,,,,,,,,,,,,,,,,,,,,,,,,,,,,,105,146248,22,Female,1,2024/03/20_08:48:52,SD,None,
,,,,,,practice,0,22,1,19,24,J,0,right,0.3692760099947918,1,0,,,,,,,,,,,,,,,,,,,,,1,,,,,,,,,,,,,,,,,,,,,,,,,,,,,,,,,,,,,,,,,,,,,,105,146248,22,Female,1,2024/03/20_08:48:52,SD,None,
,,,,,,practice,0,22,1,19,25,S,0,right,0.7281251579988748,1,0,,,,,,,,,,,,,,,,,,,,,1,,,,,,,,,,,,,,,,,,,,,,,,,,,,,,,,,,,,,,,,,,,,,,105,146248,22,Female,1,2024/03/20_08:48:52,SD,None,
,,,,,,practice,0,22,1,19,26,S,1,left,0.6898043639957905,1,0,,,,,,,,,,,,,,,,,,,,,1,,,,,,,,,,,,,,,,,,,,,,,,,,,,,,,,,,,,,,,,,,,,,,105,146248,22,Female,1,2024/03/20_08:48:52,SD,None,
,,,,,,practice,0,22,1,19,,,,,,,,1.0,1.0,0.0,1.0,0.0,1.0,0.5511735494594456,7,0,0,0,0,19,26,7,19,0,,,,1,,,,,,,,,,,,,,,,,,,,,,,,,,,,,,,,,,,,,,,,,,,,,,105,146248,22,Female,1,2024/03/20_08:48:52,SD,None,
1,./instructions/inst_prac_3/Slide37.png,right,4.9756021030043485,699.0559283059993,704.0315304090036,,,,,,,,,,,,,,,,,,,,,,,,,,,,,,,,,1,,,,,,,,,,,,,,,,,,,,,,,,,,,,,,,,,,,,,,,,,,,,,,105,146248,22,Female,1,2024/03/20_08:48:52,SD,None,
2,./instructions/inst_prac_3/Slide38.png,right,0.8602617349970387,704.0593693080009,704.9196310429979,,,,,,,,,,,,,,,,,,,,,,,,,,,,,,,,,1,,,,,,,,,,,,,,,,,,,,,,,,,,,,,,,,,,,,,,,,,,,,,,105,146248,22,Female,1,2024/03/20_08:48:52,SD,None,
3,./instructions/inst_prac_3/Slide39.png,right,0.778289540001424,704.949275890991,705.7275654309924,,,,,,,,,,,,,,,,,,,,,,,,,,,,,,,,,1,,,,,,,,,,,,,,,,,,,,,,,,,,,,,,,,,,,,,,,,,,,,,,105,146248,22,Female,1,2024/03/20_08:48:52,SD,None,
4,./instructions/inst_prac_3/Slide40.png,right,0.7554138890118338,705.7562738229899,706.5116877120017,,,,,,,,,,,,,,,,,,,,,,,,,,,,,,,,,1,,,,,,,,,,,,,,,,,,,,,,,,,,,,,,,,,,,,,,,,,,,,,,105,146248,22,Female,1,2024/03/20_08:48:52,SD,None,
5,./instructions/inst_prac_3/Slide41.png,right,0.9715036639972823,706.5401410350023,707.5116446989996,,,,,,,,,,,,,,,,,,,,,,,,,,,,,,,,,1,,,,,,,,,,,,,,,,,,,,,,,,,,,,,,,,,,,,,,,,,,,,,,105,146248,22,Female,1,2024/03/20_08:48:52,SD,None,
6,./instructions/inst_prac_3/Slide42.png,right,1.1635064120055176,707.5400403819949,708.7035467940004,,,,,,,,,,,,,,,,,,,,,,,,,,,,,,,,,1,,,,,,,,,,,,,,,,,,,,,,,,,,,,,,,,,,,,,,,,,,,,,,105,146248,22,Female,1,2024/03/20_08:48:52,SD,None,
7,./instructions/inst_prac_3/Slide43.png,right,1.0057537640095688,708.7297655299917,709.7355192940013,,,,,,,,,,,,,,,,,,,,,,,,,,,,,,,,,1,,,,,,,,,,,,,,,,,,,,,,,,,,,,,,,,,,,,,,,,,,,,,,105,146248,22,Female,1,2024/03/20_08:48:52,SD,None,
8,./instructions/inst_prac_3/Slide44.png,right,1.2844482180080377,709.7631977229903,711.0476459409983,,,,,,,,,,,,,,,,,,,,,,,,,,,,,,,,,1,,,,,,,,,,,,,,,,,,,,,,,,,,,,,,,,,,,,,,,,,,,,,,105,146248,22,Female,1,2024/03/20_08:48:52,SD,None,
,,,,,,practice,0,1,3,788,1,F,0,right,1.1959646879986394,1,0,,,,,,,,,,,,,,,,,,,,,1,,,,,,,,,,,,,,,,,,,,,,,,,,,,,,,,,,,,,,,,,,,,,,105,146248,22,Female,1,2024/03/20_08:48:52,SD,None,
,,,,,,practice,0,1,3,788,2,Q,0,right,0.5331172430014703,1,0,,,,,,,,,,,,,,,,,,,,,1,,,,,,,,,,,,,,,,,,,,,,,,,,,,,,,,,,,,,,,,,,,,,,105,146248,22,Female,1,2024/03/20_08:48:52,SD,None,
,,,,,,practice,0,1,3,788,3,S,0,right,0.4840981049928814,1,0,,,,,,,,,,,,,,,,,,,,,1,,,,,,,,,,,,,,,,,,,,,,,,,,,,,,,,,,,,,,,,,,,,,,105,146248,22,Female,1,2024/03/20_08:48:52,SD,None,
,,,,,,practice,0,1,3,788,4,J,0,right,0.5969817489967681,1,0,,,,,,,,,,,,,,,,,,,,,1,,,,,,,,,,,,,,,,,,,,,,,,,,,,,,,,,,,,,,,,,,,,,,105,146248,22,Female,1,2024/03/20_08:48:52,SD,None,
,,,,,,practice,0,1,3,788,5,J,0,right,0.6768233769980725,1,0,,,,,,,,,,,,,,,,,,,,,1,,,,,,,,,,,,,,,,,,,,,,,,,,,,,,,,,,,,,,,,,,,,,,105,146248,22,Female,1,2024/03/20_08:48:52,SD,None,
,,,,,,practice,0,1,3,788,6,F,0,right,0.6488142790040001,1,0,,,,,,,,,,,,,,,,,,,,,1,,,,,,,,,,,,,,,,,,,,,,,,,,,,,,,,,,,,,,,,,,,,,,105,146248,22,Female,1,2024/03/20_08:48:52,SD,None,
,,,,,,practice,0,1,3,788,7,J,1,left,0.6527805180085124,1,0,,,,,,,,,,,,,,,,,,,,,1,,,,,,,,,,,,,,,,,,,,,,,,,,,,,,,,,,,,,,,,,,,,,,105,146248,22,Female,1,2024/03/20_08:48:52,SD,None,
,,,,,,practice,0,1,3,788,8,Q,0,right,0.6221664190088632,1,0,,,,,,,,,,,,,,,,,,,,,1,,,,,,,,,,,,,,,,,,,,,,,,,,,,,,,,,,,,,,,,,,,,,,105,146248,22,Female,1,2024/03/20_08:48:52,SD,None,
,,,,,,practice,0,1,3,788,9,F,1,left,1.1616211780055892,1,0,,,,,,,,,,,,,,,,,,,,,1,,,,,,,,,,,,,,,,,,,,,,,,,,,,,,,,,,,,,,,,,,,,,,105,146248,22,Female,1,2024/03/20_08:48:52,SD,None,
,,,,,,practice,0,1,3,788,10,C,0,right,0.8678014430042822,1,0,,,,,,,,,,,,,,,,,,,,,1,,,,,,,,,,,,,,,,,,,,,,,,,,,,,,,,,,,,,,,,,,,,,,105,146248,22,Female,1,2024/03/20_08:48:52,SD,None,
,,,,,,practice,0,1,3,788,11,Q,1,left,0.9104076100047678,1,0,,,,,,,,,,,,,,,,,,,,,1,,,,,,,,,,,,,,,,,,,,,,,,,,,,,,,,,,,,,,,,,,,,,,105,146248,22,Female,1,2024/03/20_08:48:52,SD,None,
,,,,,,practice,0,1,3,788,12,F,1,left,0.981480891990941,1,0,,,,,,,,,,,,,,,,,,,,,1,,,,,,,,,,,,,,,,,,,,,,,,,,,,,,,,,,,,,,,,,,,,,,105,146248,22,Female,1,2024/03/20_08:48:52,SD,None,
,,,,,,practice,0,1,3,788,13,S,0,right,0.8362088499998208,1,0,,,,,,,,,,,,,,,,,,,,,1,,,,,,,,,,,,,,,,,,,,,,,,,,,,,,,,,,,,,,,,,,,,,,105,146248,22,Female,1,2024/03/20_08:48:52,SD,None,
,,,,,,practice,0,1,3,788,,,,,,,,1.0,1.0,0.0,1.0,0.0,1.0,0.7821743346934315,4,0,0,0,0,9,13,4,9,0,,,,1,,,,,,,,,,,,,,,,,,,,,,,,,,,,,,,,,,,,,,,,,,,,,,105,146248,22,Female,1,2024/03/20_08:48:52,SD,None,
1,./instructions/inst_prac_3_next/Slide49.png,right,2.320873942997423,734.8947719989956,737.215645941993,,,,,,,,,,,,,,,,,,,,,,,,,,,,,,,,,1,,,,,,,,,,,,,,,,,,,,,,,,,,,,,,,,,,,,,,,,,,,,,,105,146248,22,Female,1,2024/03/20_08:48:52,SD,None,
,,,,,,practice,0,35,3,19,1,F,0,right,1.0193080750032095,1,0,,,,,,,,,,,,,,,,,,,,,1,,,,,,,,,,,,,,,,,,,,,,,,,,,,,,,,,,,,,,,,,,,,,,105,146248,22,Female,1,2024/03/20_08:48:52,SD,None,
,,,,,,practice,0,35,3,19,2,N,0,right,1.1087898580008186,1,0,,,,,,,,,,,,,,,,,,,,,1,,,,,,,,,,,,,,,,,,,,,,,,,,,,,,,,,,,,,,,,,,,,,,105,146248,22,Female,1,2024/03/20_08:48:52,SD,None,
,,,,,,practice,0,35,3,19,3,X,0,right,0.8687780570035102,1,0,,,,,,,,,,,,,,,,,,,,,1,,,,,,,,,,,,,,,,,,,,,,,,,,,,,,,,,,,,,,,,,,,,,,105,146248,22,Female,1,2024/03/20_08:48:52,SD,None,
,,,,,,practice,0,35,3,19,4,V,0,right,0.8802996610029368,1,0,,,,,,,,,,,,,,,,,,,,,1,,,,,,,,,,,,,,,,,,,,,,,,,,,,,,,,,,,,,,,,,,,,,,105,146248,22,Female,1,2024/03/20_08:48:52,SD,None,
,,,,,,practice,0,35,3,19,5,N,1,right,1.1777912179968553,0,0,,,,,,,,,,,,,,,,,,,,,1,,,,,,,,,,,,,,,,,,,,,,,,,,,,,,,,,,,,,,,,,,,,,,105,146248,22,Female,1,2024/03/20_08:48:52,SD,None,
,,,,,,practice,0,35,3,19,6,C,0,right,1.0766850890067872,1,0,,,,,,,,,,,,,,,,,,,,,1,,,,,,,,,,,,,,,,,,,,,,,,,,,,,,,,,,,,,,,,,,,,,,105,146248,22,Female,1,2024/03/20_08:48:52,SD,None,
,,,,,,practice,0,35,3,19,7,X,0,left,1.4767443379969336,0,0,,,,,,,,,,,,,,,,,,,,,1,,,,,,,,,,,,,,,,,,,,,,,,,,,,,,,,,,,,,,,,,,,,,,105,146248,22,Female,1,2024/03/20_08:48:52,SD,None,
,,,,,,practice,0,35,3,19,8,J,0,right,1.211970228003338,1,0,,,,,,,,,,,,,,,,,,,,,1,,,,,,,,,,,,,,,,,,,,,,,,,,,,,,,,,,,,,,,,,,,,,,105,146248,22,Female,1,2024/03/20_08:48:52,SD,None,
,,,,,,practice,0,35,3,19,9,X,0,right,0.9646356260054745,1,0,,,,,,,,,,,,,,,,,,,,,1,,,,,,,,,,,,,,,,,,,,,,,,,,,,,,,,,,,,,,,,,,,,,,105,146248,22,Female,1,2024/03/20_08:48:52,SD,None,
,,,,,,practice,0,35,3,19,10,J,0,right,1.4124515730072744,1,0,,,,,,,,,,,,,,,,,,,,,1,,,,,,,,,,,,,,,,,,,,,,,,,,,,,,,,,,,,,,,,,,,,,,105,146248,22,Female,1,2024/03/20_08:48:52,SD,None,
,,,,,,practice,0,35,3,19,11,Q,0,right,1.0822877399914432,1,0,,,,,,,,,,,,,,,,,,,,,1,,,,,,,,,,,,,,,,,,,,,,,,,,,,,,,,,,,,,,,,,,,,,,105,146248,22,Female,1,2024/03/20_08:48:52,SD,None,
,,,,,,practice,0,35,3,19,12,X,1,left,0.960364117010613,1,0,,,,,,,,,,,,,,,,,,,,,1,,,,,,,,,,,,,,,,,,,,,,,,,,,,,,,,,,,,,,,,,,,,,,105,146248,22,Female,1,2024/03/20_08:48:52,SD,None,
,,,,,,practice,0,35,3,19,13,N,0,right,1.2043205739901168,1,0,,,,,,,,,,,,,,,,,,,,,1,,,,,,,,,,,,,,,,,,,,,,,,,,,,,,,,,,,,,,,,,,,,,,105,146248,22,Female,1,2024/03/20_08:48:52,SD,None,
,,,,,,practice,0,35,3,19,14,X,0,right,2.1599004070012597,1,0,,,,,,,,,,,,,,,,,,,,,1,,,,,,,,,,,,,,,,,,,,,,,,,,,,,,,,,,,,,,,,,,,,,,105,146248,22,Female,1,2024/03/20_08:48:52,SD,None,
,,,,,,practice,0,35,3,19,15,X,1,left,0.9920088329963619,1,0,,,,,,,,,,,,,,,,,,,,,1,,,,,,,,,,,,,,,,,,,,,,,,,,,,,,,,,,,,,,,,,,,,,,105,146248,22,Female,1,2024/03/20_08:48:52,SD,None,
,,,,,,practice,0,35,3,19,16,S,0,right,1.004473381995922,1,0,,,,,,,,,,,,,,,,,,,,,1,,,,,,,,,,,,,,,,,,,,,,,,,,,,,,,,,,,,,,,,,,,,,,105,146248,22,Female,1,2024/03/20_08:48:52,SD,None,
,,,,,,practice,0,35,3,19,17,N,0,right,1.0806292060005944,1,0,,,,,,,,,,,,,,,,,,,,,1,,,,,,,,,,,,,,,,,,,,,,,,,,,,,,,,,,,,,,,,,,,,,,105,146248,22,Female,1,2024/03/20_08:48:52,SD,None,
,,,,,,practice,0,35,3,19,18,X,1,left,1.2489702930033673,1,0,,,,,,,,,,,,,,,,,,,,,1,,,,,,,,,,,,,,,,,,,,,,,,,,,,,,,,,,,,,,,,,,,,,,105,146248,22,Female,1,2024/03/20_08:48:52,SD,None,
,,,,,,practice,0,35,3,19,19,N,0,right,1.1095170619955752,1,0,,,,,,,,,,,,,,,,,,,,,1,,,,,,,,,,,,,,,,,,,,,,,,,,,,,,,,,,,,,,,,,,,,,,105,146248,22,Female,1,2024/03/20_08:48:52,SD,None,
,,,,,,practice,0,35,3,19,20,Q,0,right,0.9336183990089921,1,0,,,,,,,,,,,,,,,,,,,,,1,,,,,,,,,,,,,,,,,,,,,,,,,,,,,,,,,,,,,,,,,,,,,,105,146248,22,Female,1,2024/03/20_08:48:52,SD,None,
,,,,,,practice,0,35,3,19,21,X,1,left,1.6883124480082188,1,0,,,,,,,,,,,,,,,,,,,,,1,,,,,,,,,,,,,,,,,,,,,,,,,,,,,,,,,,,,,,,,,,,,,,105,146248,22,Female,1,2024/03/20_08:48:52,SD,None,
,,,,,,practice,0,35,3,19,22,N,1,left,1.1576560389949009,1,0,,,,,,,,,,,,,,,,,,,,,1,,,,,,,,,,,,,,,,,,,,,,,,,,,,,,,,,,,,,,,,,,,,,,105,146248,22,Female,1,2024/03/20_08:48:52,SD,None,
,,,,,,practice,0,35,3,19,23,J,0,right,0.9482308619917603,1,0,,,,,,,,,,,,,,,,,,,,,1,,,,,,,,,,,,,,,,,,,,,,,,,,,,,,,,,,,,,,,,,,,,,,105,146248,22,Female,1,2024/03/20_08:48:52,SD,None,
,,,,,,practice,0,35,3,19,24,X,1,left,1.2901912509987596,1,0,,,,,,,,,,,,,,,,,,,,,1,,,,,,,,,,,,,,,,,,,,,,,,,,,,,,,,,,,,,,,,,,,,,,105,146248,22,Female,1,2024/03/20_08:48:52,SD,None,
,,,,,,practice,0,35,3,19,25,N,1,left,1.0292317679995904,1,0,,,,,,,,,,,,,,,,,,,,,1,,,,,,,,,,,,,,,,,,,,,,,,,,,,,,,,,,,,,,,,,,,,,,105,146248,22,Female,1,2024/03/20_08:48:52,SD,None,
,,,,,,practice,0,35,3,19,26,C,0,right,1.132696386994212,1,0,,,,,,,,,,,,,,,,,,,,,1,,,,,,,,,,,,,,,,,,,,,,,,,,,,,,,,,,,,,,,,,,,,,,105,146248,22,Female,1,2024/03/20_08:48:52,SD,None,
,,,,,,practice,0,35,3,19,,,,,,,,0.9479166666666667,0.875,0.05555555555555555,0.9444444444444444,0.0,0.9444444444444444,1.1623024035003395,7,1,0,0,0,17,24,8,18,0,,,,1,,,,,,,,,,,,,,,,,,,,,,,,,,,,,,,,,,,,,,,,,,,,,,105,146248,22,Female,1,2024/03/20_08:48:52,SD,None,
,,,,,,practice,0,5,3,19,1,Q,0,right,0.9730702290107729,1,0,,,,,,,,,,,,,,,,,,,,,1,,,,,,,,,,,,,,,,,,,,,,,,,,,,,,,,,,,,,,,,,,,,,,105,146248,22,Female,1,2024/03/20_08:48:52,SD,None,
,,,,,,practice,0,5,3,19,2,F,0,right,0.6649579619988799,1,0,,,,,,,,,,,,,,,,,,,,,1,,,,,,,,,,,,,,,,,,,,,,,,,,,,,,,,,,,,,,,,,,,,,,105,146248,22,Female,1,2024/03/20_08:48:52,SD,None,
,,,,,,practice,0,5,3,19,3,S,0,right,0.7129772850021254,1,0,,,,,,,,,,,,,,,,,,,,,1,,,,,,,,,,,,,,,,,,,,,,,,,,,,,,,,,,,,,,,,,,,,,,105,146248,22,Female,1,2024/03/20_08:48:52,SD,None,
,,,,,,practice,0,5,3,19,4,X,0,right,1.3968036090082023,1,0,,,,,,,,,,,,,,,,,,,,,1,,,,,,,,,,,,,,,,,,,,,,,,,,,,,,,,,,,,,,,,,,,,,,105,146248,22,Female,1,2024/03/20_08:48:52,SD,None,
,,,,,,practice,0,5,3,19,5,F,1,left,2.6906974710000213,1,0,,,,,,,,,,,,,,,,,,,,,1,,,,,,,,,,,,,,,,,,,,,,,,,,,,,,,,,,,,,,,,,,,,,,105,146248,22,Female,1,2024/03/20_08:48:52,SD,None,
,,,,,,practice,0,5,3,19,6,Q,0,right,1.532789598000818,1,0,,,,,,,,,,,,,,,,,,,,,1,,,,,,,,,,,,,,,,,,,,,,,,,,,,,,,,,,,,,,,,,,,,,,105,146248,22,Female,1,2024/03/20_08:48:52,SD,None,
,,,,,,practice,0,5,3,19,7,X,1,left,1.0888833030039677,1,0,,,,,,,,,,,,,,,,,,,,,1,,,,,,,,,,,,,,,,,,,,,,,,,,,,,,,,,,,,,,,,,,,,,,105,146248,22,Female,1,2024/03/20_08:48:52,SD,None,
,,,,,,practice,0,5,3,19,8,F,1,left,1.212963284997386,1,0,,,,,,,,,,,,,,,,,,,,,1,,,,,,,,,,,,,,,,,,,,,,,,,,,,,,,,,,,,,,,,,,,,,,105,146248,22,Female,1,2024/03/20_08:48:52,SD,None,
,,,,,,practice,0,5,3,19,9,N,0,right,1.9578761440061498,1,0,,,,,,,,,,,,,,,,,,,,,1,,,,,,,,,,,,,,,,,,,,,,,,,,,,,,,,,,,,,,,,,,,,,,105,146248,22,Female,1,2024/03/20_08:48:52,SD,None,
,,,,,,practice,0,5,3,19,10,C,0,right,0.7813052040000912,1,0,,,,,,,,,,,,,,,,,,,,,1,,,,,,,,,,,,,,,,,,,,,,,,,,,,,,,,,,,,,,,,,,,,,,105,146248,22,Female,1,2024/03/20_08:48:52,SD,None,
,,,,,,practice,0,5,3,19,11,F,1,left,0.91744657100935,1,0,,,,,,,,,,,,,,,,,,,,,1,,,,,,,,,,,,,,,,,,,,,,,,,,,,,,,,,,,,,,,,,,,,,,105,146248,22,Female,1,2024/03/20_08:48:52,SD,None,
,,,,,,practice,0,5,3,19,12,Q,0,right,1.1054898769943975,1,0,,,,,,,,,,,,,,,,,,,,,1,,,,,,,,,,,,,,,,,,,,,,,,,,,,,,,,,,,,,,,,,,,,,,105,146248,22,Female,1,2024/03/20_08:48:52,SD,None,
,,,,,,practice,0,5,3,19,13,C,1,right,2.09807849599747,0,0,,,,,,,,,,,,,,,,,,,,,1,,,,,,,,,,,,,,,,,,,,,,,,,,,,,,,,,,,,,,,,,,,,,,105,146248,22,Female,1,2024/03/20_08:48:52,SD,None,
,,,,,,practice,0,5,3,19,14,V,0,right,0.8659453699947335,1,0,,,,,,,,,,,,,,,,,,,,,1,,,,,,,,,,,,,,,,,,,,,,,,,,,,,,,,,,,,,,,,,,,,,,105,146248,22,Female,1,2024/03/20_08:48:52,SD,None,
,,,,,,practice,0,5,3,19,15,Q,1,left,0.5208471430087229,1,0,,,,,,,,,,,,,,,,,,,,,1,,,,,,,,,,,,,,,,,,,,,,,,,,,,,,,,,,,,,,,,,,,,,,105,146248,22,Female,1,2024/03/20_08:48:52,SD,None,
,,,,,,practice,0,5,3,19,16,V,0,right,1.3199186390120303,1,0,,,,,,,,,,,,,,,,,,,,,1,,,,,,,,,,,,,,,,,,,,,,,,,,,,,,,,,,,,,,,,,,,,,,105,146248,22,Female,1,2024/03/20_08:48:52,SD,None,
,,,,,,practice,0,5,3,19,17,V,1,left,0.6664563689992065,1,0,,,,,,,,,,,,,,,,,,,,,1,,,,,,,,,,,,,,,,,,,,,,,,,,,,,,,,,,,,,,,,,,,,,,105,146248,22,Female,1,2024/03/20_08:48:52,SD,None,
,,,,,,practice,0,5,3,19,18,X,0,right,1.0846668159938417,1,0,,,,,,,,,,,,,,,,,,,,,1,,,,,,,,,,,,,,,,,,,,,,,,,,,,,,,,,,,,,,,,,,,,,,105,146248,22,Female,1,2024/03/20_08:48:52,SD,None,
,,,,,,practice,0,5,3,19,19,C,0,left,0.9321625220036367,0,0,,,,,,,,,,,,,,,,,,,,,1,,,,,,,,,,,,,,,,,,,,,,,,,,,,,,,,,,,,,,,,,,,,,,105,146248,22,Female,1,2024/03/20_08:48:52,SD,None,
,,,,,,practice,0,5,3,19,20,X,0,left,1.321534076007083,0,0,,,,,,,,,,,,,,,,,,,,,1,,,,,,,,,,,,,,,,,,,,,,,,,,,,,,,,,,,,,,,,,,,,,,105,146248,22,Female,1,2024/03/20_08:48:52,SD,None,
,,,,,,practice,0,5,3,19,21,N,0,right,1.1767832760087913,1,0,,,,,,,,,,,,,,,,,,,,,1,,,,,,,,,,,,,,,,,,,,,,,,,,,,,,,,,,,,,,,,,,,,,,105,146248,22,Female,1,2024/03/20_08:48:52,SD,None,
,,,,,,practice,0,5,3,19,22,S,0,right,0.8444194640032947,1,0,,,,,,,,,,,,,,,,,,,,,1,,,,,,,,,,,,,,,,,,,,,,,,,,,,,,,,,,,,,,,,,,,,,,105,146248,22,Female,1,2024/03/20_08:48:52,SD,None,
,,,,,,practice,0,5,3,19,23,X,1,right,1.668632262997562,0,0,,,,,,,,,,,,,,,,,,,,,1,,,,,,,,,,,,,,,,,,,,,,,,,,,,,,,,,,,,,,,,,,,,,,105,146248,22,Female,1,2024/03/20_08:48:52,SD,None,
,,,,,,practice,0,5,3,19,24,X,0,left,0.6716925170039758,0,0,,,,,,,,,,,,,,,,,,,,,1,,,,,,,,,,,,,,,,,,,,,,,,,,,,,,,,,,,,,,,,,,,,,,105,146248,22,Female,1,2024/03/20_08:48:52,SD,None,
,,,,,,practice,0,5,3,19,25,F,0,right,1.1369174499996006,1,0,,,,,,,,,,,,,,,,,,,,,1,,,,,,,,,,,,,,,,,,,,,,,,,,,,,,,,,,,,,,,,,,,,,,105,146248,22,Female,1,2024/03/20_08:48:52,SD,None,
,,,,,,practice,0,5,3,19,26,C,0,right,1.496117887989385,1,0,,,,,,,,,,,,,,,,,,,,,1,,,,,,,,,,,,,,,,,,,,,,,,,,,,,,,,,,,,,,,,,,,,,,105,146248,22,Female,1,2024/03/20_08:48:52,SD,None,
,,,,,,practice,0,5,3,19,,,,,,,,0.8541666666666667,0.75,0.16666666666666666,0.8333333333333334,0.0,0.8333333333333334,1.1861320318096729,6,3,0,0,0,15,21,8,18,0,,,,1,,,,,,,,,,,,,,,,,,,,,,,,,,,,,,,,,,,,,,,,,,,,,,105,146248,22,Female,1,2024/03/20_08:48:52,SD,None,
1,./instructions/inst_prac_main/Slide51.png,right,2.461727564994362,829.6338125210023,832.0955400859966,,,,,,,,,,,,,,,,,,,,,,,,,,,,,,,,,1,,,,,,,,,,,,,,,,,,,,,,,,,,,,,,,,,,,,,,,,,,,,,,105,146248,22,Female,1,2024/03/20_08:48:52,SD,None,
2,./instructions/inst_prac_main/Slide52.png,right,23.94268429900694,832.1208617279917,856.0635460269987,,,,,,,,,,,,,,,,,,,,,,,,,,,,,,,,,1,,,,,,,,,,,,,,,,,,,,,,,,,,,,,,,,,,,,,,,,,,,,,,105,146248,22,Female,1,2024/03/20_08:48:52,SD,None,
3,./instructions/inst_prac_main/Slide53.png,right,5.9587812069948995,856.0888497279957,862.0476309349906,,,,,,,,,,,,,,,,,,,,,,,,,,,,,,,,,1,,,,,,,,,,,,,,,,,,,,,,,,,,,,,,,,,,,,,,,,,,,,,,105,146248,22,Female,1,2024/03/20_08:48:52,SD,None,
4,./instructions/inst_prac_main/Slide54.png,right,10.100805922003929,862.074554848994,872.1753607709979,,,,,,,,,,,,,,,,,,,,,,,,,,,,,,,,,1,,,,,,,,,,,,,,,,,,,,,,,,,,,,,,,,,,,,,,,,,,,,,,105,146248,22,Female,1,2024/03/20_08:48:52,SD,None,
,,,,,,practice_main,0,1,1,19,1,F,0,None,nan,0,1,,,,,,,,,,,,,,,,,,,,,1,,,,,,,,,,,,,,,,,,,,,,,,,,,,,,,,,,,,,,,,,,,,,,105,146248,22,Female,1,2024/03/20_08:48:52,SD,None,
,,,,,,practice_main,0,1,1,19,2,F,1,left,0.691927036998095,1,0,,,,,,,,,,,,,,,,,,,,,1,,,,,,,,,,,,,,,,,,,,,,,,,,,,,,,,,,,,,,,,,,,,,,105,146248,22,Female,1,2024/03/20_08:48:52,SD,None,
,,,,,,practice_main,0,1,1,19,3,V,0,right,0.6541839949932182,1,0,,,,,,,,,,,,,,,,,,,,,1,,,,,,,,,,,,,,,,,,,,,,,,,,,,,,,,,,,,,,,,,,,,,,105,146248,22,Female,1,2024/03/20_08:48:52,SD,None,
,,,,,,practice_main,0,1,1,19,4,V,1,left,0.9435317579918774,1,0,,,,,,,,,,,,,,,,,,,,,1,,,,,,,,,,,,,,,,,,,,,,,,,,,,,,,,,,,,,,,,,,,,,,105,146248,22,Female,1,2024/03/20_08:48:52,SD,None,
,,,,,,practice_main,0,1,1,19,5,X,0,right,0.61435285799962,1,0,,,,,,,,,,,,,,,,,,,,,1,,,,,,,,,,,,,,,,,,,,,,,,,,,,,,,,,,,,,,,,,,,,,,105,146248,22,Female,1,2024/03/20_08:48:52,SD,None,
,,,,,,practice_main,0,1,1,19,6,Q,0,right,0.7807045270019444,1,0,,,,,,,,,,,,,,,,,,,,,1,,,,,,,,,,,,,,,,,,,,,,,,,,,,,,,,,,,,,,,,,,,,,,105,146248,22,Female,1,2024/03/20_08:48:52,SD,None,
,,,,,,practice_main,0,1,1,19,7,Q,1,left,0.5926415569992969,1,0,,,,,,,,,,,,,,,,,,,,,1,,,,,,,,,,,,,,,,,,,,,,,,,,,,,,,,,,,,,,,,,,,,,,105,146248,22,Female,1,2024/03/20_08:48:52,SD,None,
,,,,,,practice_main,0,1,1,19,8,F,0,right,0.5536066039931029,1,0,,,,,,,,,,,,,,,,,,,,,1,,,,,,,,,,,,,,,,,,,,,,,,,,,,,,,,,,,,,,,,,,,,,,105,146248,22,Female,1,2024/03/20_08:48:52,SD,None,
,,,,,,practice_main,0,1,1,19,9,J,0,right,0.6019640769955004,1,0,,,,,,,,,,,,,,,,,,,,,1,,,,,,,,,,,,,,,,,,,,,,,,,,,,,,,,,,,,,,,,,,,,,,105,146248,22,Female,1,2024/03/20_08:48:52,SD,None,
,,,,,,practice_main,0,1,1,19,10,J,1,left,0.5449589399941033,1,0,,,,,,,,,,,,,,,,,,,,,1,,,,,,,,,,,,,,,,,,,,,,,,,,,,,,,,,,,,,,,,,,,,,,105,146248,22,Female,1,2024/03/20_08:48:52,SD,None,
,,,,,,practice_main,0,1,1,19,11,F,0,left,nan,0,1,,,,,,,,,,,,,,,,,,,,,1,,,,,,,,,,,,,,,,,,,,,,,,,,,,,,,,,,,,,,,,,,,,,,105,146248,22,Female,1,2024/03/20_08:48:52,SD,None,
,,,,,,practice_main,0,1,1,19,12,F,1,left,0.7940898410015507,1,0,,,,,,,,,,,,,,,,,,,,,1,,,,,,,,,,,,,,,,,,,,,,,,,,,,,,,,,,,,,,,,,,,,,,105,146248,22,Female,1,2024/03/20_08:48:52,SD,None,
,,,,,,practice_main,0,1,1,19,13,X,0,right,0.588226060004672,1,0,,,,,,,,,,,,,,,,,,,,,1,,,,,,,,,,,,,,,,,,,,,,,,,,,,,,,,,,,,,,,,,,,,,,105,146248,22,Female,1,2024/03/20_08:48:52,SD,None,
,,,,,,practice_main,0,1,1,19,14,N,0,right,0.6784551810123958,1,0,,,,,,,,,,,,,,,,,,,,,1,,,,,,,,,,,,,,,,,,,,,,,,,,,,,,,,,,,,,,,,,,,,,,105,146248,22,Female,1,2024/03/20_08:48:52,SD,None,
,,,,,,practice_main,0,1,1,19,15,X,0,right,nan,0,1,,,,,,,,,,,,,,,,,,,,,1,,,,,,,,,,,,,,,,,,,,,,,,,,,,,,,,,,,,,,,,,,,,,,105,146248,22,Female,1,2024/03/20_08:48:52,SD,None,
,,,,,,practice_main,0,1,1,19,16,J,0,right,0.5420086810045177,1,0,,,,,,,,,,,,,,,,,,,,,1,,,,,,,,,,,,,,,,,,,,,,,,,,,,,,,,,,,,,,,,,,,,,,105,146248,22,Female,1,2024/03/20_08:48:52,SD,None,
,,,,,,practice_main,0,1,1,19,17,C,0,right,0.6017146179947304,1,0,,,,,,,,,,,,,,,,,,,,,1,,,,,,,,,,,,,,,,,,,,,,,,,,,,,,,,,,,,,,,,,,,,,,105,146248,22,Female,1,2024/03/20_08:48:52,SD,None,
,,,,,,practice_main,0,1,1,19,18,C,1,left,0.39336553699104115,1,0,,,,,,,,,,,,,,,,,,,,,1,,,,,,,,,,,,,,,,,,,,,,,,,,,,,,,,,,,,,,,,,,,,,,105,146248,22,Female,1,2024/03/20_08:48:52,SD,None,
,,,,,,practice_main,0,1,1,19,19,J,0,right,0.5811105930042686,1,0,,,,,,,,,,,,,,,,,,,,,1,,,,,,,,,,,,,,,,,,,,,,,,,,,,,,,,,,,,,,,,,,,,,,105,146248,22,Female,1,2024/03/20_08:48:52,SD,None,
,,,,,,practice_main,0,1,1,19,20,J,1,left,0.7156635410065064,1,0,,,,,,,,,,,,,,,,,,,,,1,,,,,,,,,,,,,,,,,,,,,,,,,,,,,,,,,,,,,,,,,,,,,,105,146248,22,Female,1,2024/03/20_08:48:52,SD,None,
,,,,,,practice_main,0,1,1,19,21,F,0,right,0.6083374669979094,1,0,,,,,,,,,,,,,,,,,,,,,1,,,,,,,,,,,,,,,,,,,,,,,,,,,,,,,,,,,,,,,,,,,,,,105,146248,22,Female,1,2024/03/20_08:48:52,SD,None,
