Instruction,Stimulus,Key,RT,START,END,Phase,Block,TrialN,NbackLevel,ISI,LetterN,Letter,Letter_isSame,Letter_Resp,Letter_RT,Letter_Accuracy,Letter_Timeout,Trial_A_measure,Trial_HR,Trial_FAR,Trial_CDR,Trial_MSR,Trial_ACC,Trial_RT,Trial_HitsCount,Trial_FAsCount,Trial_SameNoRespCount,Trial_DiffNoRespCount,Trial_NoRespCount,Trial_CDsCount,Trial_CorrectRespCount,Trial_SameLetterCount,Trial_DiffLetterCount,Trial_InvalidLetterCount,TrialCountCali,CaliEnd_A_measure,ISI_calibrated,Run,TrialIndex,TrialNumber_total,TrialNumber_valid,CueLearning,TrialDemandLearning,CueMapping,OnlineRating,OnlineRatingRT,OnlineRatingTimeOut,CueSTART,RatingSTART,OfflineRatingTimePoint,OfflineRatingQuesIndex,CueFigure,TrialDemand,OfflineRating,OfflineRatingRT,CueStart,OfflineRatingStart,PhaseType,CueLeft,CueDemandLeft,CueRight,CueDemandRight,Choice,ChoiceDemand,TaskDemand,ChoiceRT,ChoiceTimeOut,ChoiceSTART,CueCheck,CueDemandCheck,CorrectAnswer,Answer,AnswerDemand,AnswerRT,AnswerACC,AnswerTimeOut,CheckSTART,DemandRatingQuesIndex,QuesTLX,DemandLevel,DemandRating,DemandRatingRT,QuesStart,PID,SONA,Age,Gender,Run,TIME,EXPERIMENTER,frameRate,
-1,./instructions/inst_begin/Slide2.png,left,19.349116523000703,0.11953400199945463,19.468650525000157,,,,,,,,,,,,,,,,,,,,,,,,,,,,,,,,,1,,,,,,,,,,,,,,,,,,,,,,,,,,,,,,,,,,,,,,,,,,,,,,124,150958,20,Female,1,2024/03/26_10:24:19,YZ,None,
-2,./instructions/inst_begin/Slide4.png,left,11.51473456399981,19.498050891000275,31.012785455000085,,,,,,,,,,,,,,,,,,,,,,,,,,,,,,,,,1,,,,,,,,,,,,,,,,,,,,,,,,,,,,,,,,,,,,,,,,,,,,,,124,150958,20,Female,1,2024/03/26_10:24:19,YZ,None,
-3,./instructions/inst_begin/Slide3.png,left,0.20037138200041227,31.036163930999464,31.236535312999877,,,,,,,,,,,,,,,,,,,,,,,,,,,,,,,,,1,,,,,,,,,,,,,,,,,,,,,,,,,,,,,,,,,,,,,,,,,,,,,,124,150958,20,Female,1,2024/03/26_10:24:19,YZ,None,
-1,./instructions/inst_prac_2/Slide6.png,left,14.041176763999829,31.267378966999786,45.308555730999615,,,,,,,,,,,,,,,,,,,,,,,,,,,,,,,,,1,,,,,,,,,,,,,,,,,,,,,,,,,,,,,,,,,,,,,,,,,,,,,,124,150958,20,Female,1,2024/03/26_10:24:19,YZ,None,
-2,./instructions/inst_prac_2/Slide15.png,left,17.460317238000243,45.33628484899964,62.79660208699988,,,,,,,,,,,,,,,,,,,,,,,,,,,,,,,,,1,,,,,,,,,,,,,,,,,,,,,,,,,,,,,,,,,,,,,,,,,,,,,,124,150958,20,Female,1,2024/03/26_10:24:19,YZ,None,
-3,./instructions/inst_prac_2/Slide14.png,left,10.904823103000126,62.81957160099955,73.72439470399968,,,,,,,,,,,,,,,,,,,,,,,,,,,,,,,,,1,,,,,,,,,,,,,,,,,,,,,,,,,,,,,,,,,,,,,,,,,,,,,,124,150958,20,Female,1,2024/03/26_10:24:19,YZ,None,
-4,./instructions/inst_prac_2/Slide13.png,left,9.40260547700018,73.75410404299964,83.15670951999982,,,,,,,,,,,,,,,,,,,,,,,,,,,,,,,,,1,,,,,,,,,,,,,,,,,,,,,,,,,,,,,,,,,,,,,,,,,,,,,,124,150958,20,Female,1,2024/03/26_10:24:19,YZ,None,
-5,./instructions/inst_prac_2/Slide12.png,left,2.2010111699992194,83.17955541900028,85.3805665889995,,,,,,,,,,,,,,,,,,,,,,,,,,,,,,,,,1,,,,,,,,,,,,,,,,,,,,,,,,,,,,,,,,,,,,,,,,,,,,,,124,150958,20,Female,1,2024/03/26_10:24:19,YZ,None,
-6,./instructions/inst_prac_2/Slide11.png,left,2.489473402999465,85.40320631400027,87.89267971699974,,,,,,,,,,,,,,,,,,,,,,,,,,,,,,,,,1,,,,,,,,,,,,,,,,,,,,,,,,,,,,,,,,,,,,,,,,,,,,,,124,150958,20,Female,1,2024/03/26_10:24:19,YZ,None,
-7,./instructions/inst_prac_2/Slide10.png,left,4.369292708000103,87.91542638299961,92.28471909099972,,,,,,,,,,,,,,,,,,,,,,,,,,,,,,,,,1,,,,,,,,,,,,,,,,,,,,,,,,,,,,,,,,,,,,,,,,,,,,,,124,150958,20,Female,1,2024/03/26_10:24:19,YZ,None,
-8,./instructions/inst_prac_2/Slide9.png,left,1.937133497999639,92.30755454700011,94.24468804499975,,,,,,,,,,,,,,,,,,,,,,,,,,,,,,,,,1,,,,,,,,,,,,,,,,,,,,,,,,,,,,,,,,,,,,,,,,,,,,,,124,150958,20,Female,1,2024/03/26_10:24:19,YZ,None,
-9,./instructions/inst_prac_2/Slide8.png,left,7.056922511000266,94.26779565499965,101.32471816599991,,,,,,,,,,,,,,,,,,,,,,,,,,,,,,,,,1,,,,,,,,,,,,,,,,,,,,,,,,,,,,,,,,,,,,,,,,,,,,,,124,150958,20,Female,1,2024/03/26_10:24:19,YZ,None,
-10,./instructions/inst_prac_2/Slide7.png,left,10.104738782999448,101.3478567430002,111.45259552599964,,,,,,,,,,,,,,,,,,,,,,,,,,,,,,,,,1,,,,,,,,,,,,,,,,,,,,,,,,,,,,,,,,,,,,,,,,,,,,,,124,150958,20,Female,1,2024/03/26_10:24:19,YZ,None,
,,,,,,practice,0,22,2,2583,1,J,0,left,22.164244853999662,0,0,,,,,,,,,,,,,,,,,,,,,1,,,,,,,,,,,,,,,,,,,,,,,,,,,,,,,,,,,,,,,,,,,,,,124,150958,20,Female,1,2024/03/26_10:24:19,YZ,None,
,,,,,,practice,0,22,2,2583,2,Q,0,right,63.57816509799977,1,0,,,,,,,,,,,,,,,,,,,,,1,,,,,,,,,,,,,,,,,,,,,,,,,,,,,,,,,,,,,,,,,,,,,,124,150958,20,Female,1,2024/03/26_10:24:19,YZ,None,
,,,,,,practice,0,22,2,2583,3,J,1,left,3.219540299000073,1,0,,,,,,,,,,,,,,,,,,,,,1,,,,,,,,,,,,,,,,,,,,,,,,,,,,,,,,,,,,,,,,,,,,,,124,150958,20,Female,1,2024/03/26_10:24:19,YZ,None,
,,,,,,practice,0,22,2,2583,4,X,0,right,2.8031349349994343,1,0,,,,,,,,,,,,,,,,,,,,,1,,,,,,,,,,,,,,,,,,,,,,,,,,,,,,,,,,,,,,,,,,,,,,124,150958,20,Female,1,2024/03/26_10:24:19,YZ,None,
,,,,,,practice,0,22,2,2583,5,C,0,right,1.6377021649996095,1,0,,,,,,,,,,,,,,,,,,,,,1,,,,,,,,,,,,,,,,,,,,,,,,,,,,,,,,,,,,,,,,,,,,,,124,150958,20,Female,1,2024/03/26_10:24:19,YZ,None,
,,,,,,practice,0,22,2,2583,6,X,1,left,3.8404632720003065,1,0,,,,,,,,,,,,,,,,,,,,,1,,,,,,,,,,,,,,,,,,,,,,,,,,,,,,,,,,,,,,,,,,,,,,124,150958,20,Female,1,2024/03/26_10:24:19,YZ,None,
,,,,,,practice,0,22,2,2583,,,,,,,,0.9375,1.0,0.25,0.75,0.0,0.75,16.207208437166475,2,1,0,0,0,3,5,2,4,0,,,,1,,,,,,,,,,,,,,,,,,,,,,,,,,,,,,,,,,,,,,,,,,,,,,124,150958,20,Female,1,2024/03/26_10:24:19,YZ,None,
-1,./instructions/inst_to_cali/Slide20.png,left,8.292310453000027,215.56023886099956,223.8525493139996,,,,,,,,,,,,,,,,,,,,,,,,,,,,,,,,,1,,,,,,,,,,,,,,,,,,,,,,,,,,,,,,,,,,,,,,,,,,,,,,124,150958,20,Female,1,2024/03/26_10:24:19,YZ,None,
,,,,,,practice,0,33,2,2583,1,F,0,right,2.7688440210004046,1,0,,,,,,,,,,,,,,,,,,,,,1,,,,,,,,,,,,,,,,,,,,,,,,,,,,,,,,,,,,,,,,,,,,,,124,150958,20,Female,1,2024/03/26_10:24:19,YZ,None,
,,,,,,practice,0,33,2,2583,2,F,0,left,1.4134869670006083,0,0,,,,,,,,,,,,,,,,,,,,,1,,,,,,,,,,,,,,,,,,,,,,,,,,,,,,,,,,,,,,,,,,,,,,124,150958,20,Female,1,2024/03/26_10:24:19,YZ,None,
,,,,,,practice,0,33,2,2583,3,C,0,right,2.363360181999269,1,0,,,,,,,,,,,,,,,,,,,,,1,,,,,,,,,,,,,,,,,,,,,,,,,,,,,,,,,,,,,,,,,,,,,,124,150958,20,Female,1,2024/03/26_10:24:19,YZ,None,
,,,,,,practice,0,33,2,2583,4,F,1,right,3.539138202000686,0,0,,,,,,,,,,,,,,,,,,,,,1,,,,,,,,,,,,,,,,,,,,,,,,,,,,,,,,,,,,,,,,,,,,,,124,150958,20,Female,1,2024/03/26_10:24:19,YZ,None,
,,,,,,practice,0,33,2,2583,5,C,1,left,2.3088128989993493,1,0,,,,,,,,,,,,,,,,,,,,,1,,,,,,,,,,,,,,,,,,,,,,,,,,,,,,,,,,,,,,,,,,,,,,124,150958,20,Female,1,2024/03/26_10:24:19,YZ,None,
,,,,,,practice,0,33,2,2583,6,J,0,right,2.6450738390003607,1,0,,,,,,,,,,,,,,,,,,,,,1,,,,,,,,,,,,,,,,,,,,,,,,,,,,,,,,,,,,,,,,,,,,,,124,150958,20,Female,1,2024/03/26_10:24:19,YZ,None,
,,,,,,practice,0,33,2,2583,,,,,,,,0.6875,0.5,0.25,0.75,0.0,0.75,2.506452685000113,1,1,0,0,0,3,4,2,4,0,,,,1,,,,,,,,,,,,,,,,,,,,,,,,,,,,,,,,,,,,,,,,,,,,,,124,150958,20,Female,1,2024/03/26_10:24:19,YZ,None,
1,./instructions/inst_redo_2/Slide18.png,right,18.939891005999925,247.28059396499975,266.2204849709997,,,,,,,,,,,,,,,,,,,,,,,,,,,,,,,,,1,,,,,,,,,,,,,,,,,,,,,,,,,,,,,,,,,,,,,,,,,,,,,,124,150958,20,Female,1,2024/03/26_10:24:19,YZ,None,
,,,,,,practice,0,3,2,2583,1,N,0,right,2.288556790000257,1,0,,,,,,,,,,,,,,,,,,,,,1,,,,,,,,,,,,,,,,,,,,,,,,,,,,,,,,,,,,,,,,,,,,,,124,150958,20,Female,1,2024/03/26_10:24:19,YZ,None,
,,,,,,practice,0,3,2,2583,2,Q,0,right,1.4923038310007541,1,0,,,,,,,,,,,,,,,,,,,,,1,,,,,,,,,,,,,,,,,,,,,,,,,,,,,,,,,,,,,,,,,,,,,,124,150958,20,Female,1,2024/03/26_10:24:19,YZ,None,
,,,,,,practice,0,3,2,2583,3,S,0,right,1.1451275789995634,1,0,,,,,,,,,,,,,,,,,,,,,1,,,,,,,,,,,,,,,,,,,,,,,,,,,,,,,,,,,,,,,,,,,,,,124,150958,20,Female,1,2024/03/26_10:24:19,YZ,None,
,,,,,,practice,0,3,2,2583,4,F,0,right,1.524140957999407,1,0,,,,,,,,,,,,,,,,,,,,,1,,,,,,,,,,,,,,,,,,,,,,,,,,,,,,,,,,,,,,,,,,,,,,124,150958,20,Female,1,2024/03/26_10:24:19,YZ,None,
,,,,,,practice,0,3,2,2583,5,S,1,left,1.1349099399994884,1,0,,,,,,,,,,,,,,,,,,,,,1,,,,,,,,,,,,,,,,,,,,,,,,,,,,,,,,,,,,,,,,,,,,,,124,150958,20,Female,1,2024/03/26_10:24:19,YZ,None,
,,,,,,practice,0,3,2,2583,6,F,1,left,1.6548001780001869,1,0,,,,,,,,,,,,,,,,,,,,,1,,,,,,,,,,,,,,,,,,,,,,,,,,,,,,,,,,,,,,,,,,,,,,124,150958,20,Female,1,2024/03/26_10:24:19,YZ,None,
,,,,,,practice,0,3,2,2583,,,,,,,,1.0,1.0,0.0,1.0,0.0,1.0,1.5399732126666095,2,0,0,0,0,4,6,2,4,0,,,,1,,,,,,,,,,,,,,,,,,,,,,,,,,,,,,,,,,,,,,,,,,,,,,124,150958,20,Female,1,2024/03/26_10:24:19,YZ,None,
1,./instructions/inst_to_cali/Slide20.png,right,3.971481978999691,282.80902095700003,286.7805029359997,,,,,,,,,,,,,,,,,,,,,,,,,,,,,,,,,1,,,,,,,,,,,,,,,,,,,,,,,,,,,,,,,,,,,,,,,,,,,,,,124,150958,20,Female,1,2024/03/26_10:24:19,YZ,None,
1,./instructions/inst_cali/Slide22.png,right,27.528275278000365,286.81229447999976,314.34056975800013,,,,,,,,,,,,,,,,,,,,,,,,,,,,,,,,,1,,,,,,,,,,,,,,,,,,,,,,,,,,,,,,,,,,,,,,,,,,,,,,124,150958,20,Female,1,2024/03/26_10:24:19,YZ,None,
,,,,,,calibration,0,7,2,583,1,S,0,None,nan,0,1,,,,,,,,,,,,,,,,,,,,,1,,,,,,,,,,,,,,,,,,,,,,,,,,,,,,,,,,,,,,,,,,,,,,124,150958,20,Female,1,2024/03/26_10:24:19,YZ,None,
,,,,,,calibration,0,7,2,583,2,N,0,right,1.5590285940006652,1,0,,,,,,,,,,,,,,,,,,,,,1,,,,,,,,,,,,,,,,,,,,,,,,,,,,,,,,,,,,,,,,,,,,,,124,150958,20,Female,1,2024/03/26_10:24:19,YZ,None,
,,,,,,calibration,0,7,2,583,3,J,0,right,1.239219127999604,1,0,,,,,,,,,,,,,,,,,,,,,1,,,,,,,,,,,,,,,,,,,,,,,,,,,,,,,,,,,,,,,,,,,,,,124,150958,20,Female,1,2024/03/26_10:24:19,YZ,None,
,,,,,,calibration,0,7,2,583,4,N,1,right,1.0371199510000224,0,0,,,,,,,,,,,,,,,,,,,,,1,,,,,,,,,,,,,,,,,,,,,,,,,,,,,,,,,,,,,,,,,,,,,,124,150958,20,Female,1,2024/03/26_10:24:19,YZ,None,
,,,,,,calibration,0,7,2,583,5,V,0,right,1.1996893799996542,1,0,,,,,,,,,,,,,,,,,,,,,1,,,,,,,,,,,,,,,,,,,,,,,,,,,,,,,,,,,,,,,,,,,,,,124,150958,20,Female,1,2024/03/26_10:24:19,YZ,None,
,,,,,,calibration,0,7,2,583,6,N,1,left,0.9197007519996987,1,0,,,,,,,,,,,,,,,,,,,,,1,,,,,,,,,,,,,,,,,,,,,,,,,,,,,,,,,,,,,,,,,,,,,,124,150958,20,Female,1,2024/03/26_10:24:19,YZ,None,
,,,,,,calibration,0,7,2,583,7,V,1,right,1.5555472489995736,0,0,,,,,,,,,,,,,,,,,,,,,1,,,,,,,,,,,,,,,,,,,,,,,,,,,,,,,,,,,,,,,,,,,,,,124,150958,20,Female,1,2024/03/26_10:24:19,YZ,None,
,,,,,,calibration,0,7,2,583,8,Q,0,right,0.9844931440002256,1,0,,,,,,,,,,,,,,,,,,,,,1,,,,,,,,,,,,,,,,,,,,,,,,,,,,,,,,,,,,,,,,,,,,,,124,150958,20,Female,1,2024/03/26_10:24:19,YZ,None,
,,,,,,calibration,0,7,2,583,9,N,0,right,0.7538594470006501,1,0,,,,,,,,,,,,,,,,,,,,,1,,,,,,,,,,,,,,,,,,,,,,,,,,,,,,,,,,,,,,,,,,,,,,124,150958,20,Female,1,2024/03/26_10:24:19,YZ,None,
,,,,,,calibration,0,7,2,583,10,Q,1,left,0.8112420420002309,1,0,,,,,,,,,,,,,,,,,,,,,1,,,,,,,,,,,,,,,,,,,,,,,,,,,,,,,,,,,,,,,,,,,,,,124,150958,20,Female,1,2024/03/26_10:24:19,YZ,None,
,,,,,,calibration,0,7,2,583,11,X,0,left,nan,0,1,,,,,,,,,,,,,,,,,,,,,1,,,,,,,,,,,,,,,,,,,,,,,,,,,,,,,,,,,,,,,,,,,,,,124,150958,20,Female,1,2024/03/26_10:24:19,YZ,None,
,,,,,,calibration,0,7,2,583,12,J,0,right,1.1913113299997349,1,0,,,,,,,,,,,,,,,,,,,,,1,,,,,,,,,,,,,,,,,,,,,,,,,,,,,,,,,,,,,,,,,,,,,,124,150958,20,Female,1,2024/03/26_10:24:19,YZ,None,
,,,,,,calibration,0,7,2,583,13,S,0,right,0.5121073069994964,1,0,,,,,,,,,,,,,,,,,,,,,1,,,,,,,,,,,,,,,,,,,,,,,,,,,,,,,,,,,,,,,,,,,,,,124,150958,20,Female,1,2024/03/26_10:24:19,YZ,None,
,,,,,,calibration,0,7,2,583,14,J,1,left,1.082248759000322,1,0,,,,,,,,,,,,,,,,,,,,,1,,,,,,,,,,,,,,,,,,,,,,,,,,,,,,,,,,,,,,,,,,,,,,124,150958,20,Female,1,2024/03/26_10:24:19,YZ,None,
,,,,,,calibration,0,7,2,583,15,Q,0,left,nan,0,1,,,,,,,,,,,,,,,,,,,,,1,,,,,,,,,,,,,,,,,,,,,,,,,,,,,,,,,,,,,,,,,,,,,,124,150958,20,Female,1,2024/03/26_10:24:19,YZ,None,
,,,,,,calibration,0,7,2,583,,,,,,,,0.9,0.6,0.0,1.0,0.2,0.8,1.070463923583323,3,0,0,3,3,7,10,5,10,0,,,,1,,,,,,,,,,,,,,,,,,,,,,,,,,,,,,,,,,,,,,,,,,,,,,124,150958,20,Female,1,2024/03/26_10:24:19,YZ,None,
,,,,,,Calibration,0,,2,583,,,,,,,,,,,,,,,,,,,,,,,,,1,,,1,,,,,,,,,,,,,,,,,,,,,,,,,,,,,,,,,,,,,,,,,,,,,,124,150958,20,Female,1,2024/03/26_10:24:19,YZ,None,
,,,,,,calibration,0,12,2,500,1,V,0,None,nan,0,1,,,,,,,,,,,,,,,,,,,,,1,,,,,,,,,,,,,,,,,,,,,,,,,,,,,,,,,,,,,,,,,,,,,,124,150958,20,Female,1,2024/03/26_10:24:19,YZ,None,
,,,,,,calibration,0,12,2,500,2,V,0,left,0.8391979160005576,0,0,,,,,,,,,,,,,,,,,,,,,1,,,,,,,,,,,,,,,,,,,,,,,,,,,,,,,,,,,,,,,,,,,,,,124,150958,20,Female,1,2024/03/26_10:24:19,YZ,None,
,,,,,,calibration,0,12,2,500,3,Q,0,left,nan,0,1,,,,,,,,,,,,,,,,,,,,,1,,,,,,,,,,,,,,,,,,,,,,,,,,,,,,,,,,,,,,,,,,,,,,124,150958,20,Female,1,2024/03/26_10:24:19,YZ,None,
,,,,,,calibration,0,12,2,500,4,S,0,left,nan,0,1,,,,,,,,,,,,,,,,,,,,,1,,,,,,,,,,,,,,,,,,,,,,,,,,,,,,,,,,,,,,,,,,,,,,124,150958,20,Female,1,2024/03/26_10:24:19,YZ,None,
,,,,,,calibration,0,12,2,500,5,C,0,left,nan,0,1,,,,,,,,,,,,,,,,,,,,,1,,,,,,,,,,,,,,,,,,,,,,,,,,,,,,,,,,,,,,,,,,,,,,124,150958,20,Female,1,2024/03/26_10:24:19,YZ,None,
,,,,,,calibration,0,12,2,500,6,S,1,left,nan,0,1,,,,,,,,,,,,,,,,,,,,,1,,,,,,,,,,,,,,,,,,,,,,,,,,,,,,,,,,,,,,,,,,,,,,124,150958,20,Female,1,2024/03/26_10:24:19,YZ,None,
,,,,,,calibration,0,12,2,500,7,V,0,left,0.5837561690004804,0,0,,,,,,,,,,,,,,,,,,,,,1,,,,,,,,,,,,,,,,,,,,,,,,,,,,,,,,,,,,,,,,,,,,,,124,150958,20,Female,1,2024/03/26_10:24:19,YZ,None,
,,,,,,calibration,0,12,2,500,8,J,0,left,nan,0,1,,,,,,,,,,,,,,,,,,,,,1,,,,,,,,,,,,,,,,,,,,,,,,,,,,,,,,,,,,,,,,,,,,,,124,150958,20,Female,1,2024/03/26_10:24:19,YZ,None,
,,,,,,calibration,0,12,2,500,9,V,1,left,0.46206764799990196,1,0,,,,,,,,,,,,,,,,,,,,,1,,,,,,,,,,,,,,,,,,,,,,,,,,,,,,,,,,,,,,,,,,,,,,124,150958,20,Female,1,2024/03/26_10:24:19,YZ,None,
,,,,,,calibration,0,12,2,500,10,S,0,left,nan,0,1,,,,,,,,,,,,,,,,,,,,,1,,,,,,,,,,,,,,,,,,,,,,,,,,,,,,,,,,,,,,,,,,,,,,124,150958,20,Female,1,2024/03/26_10:24:19,YZ,None,
,,,,,,calibration,0,12,2,500,11,V,1,right,0.7752001629996812,0,0,,,,,,,,,,,,,,,,,,,,,1,,,,,,,,,,,,,,,,,,,,,,,,,,,,,,,,,,,,,,,,,,,,,,124,150958,20,Female,1,2024/03/26_10:24:19,YZ,None,
,,,,,,calibration,0,12,2,500,12,S,1,left,0.7108440960000735,1,0,,,,,,,,,,,,,,,,,,,,,1,,,,,,,,,,,,,,,,,,,,,,,,,,,,,,,,,,,,,,,,,,,,,,124,150958,20,Female,1,2024/03/26_10:24:19,YZ,None,
,,,,,,calibration,0,12,2,500,13,Q,0,left,nan,0,1,,,,,,,,,,,,,,,,,,,,,1,,,,,,,,,,,,,,,,,,,,,,,,,,,,,,,,,,,,,,,,,,,,,,124,150958,20,Female,1,2024/03/26_10:24:19,YZ,None,
,,,,,,calibration,0,12,2,500,14,S,1,left,0.9255731359999118,1,0,,,,,,,,,,,,,,,,,,,,,1,,,,,,,,,,,,,,,,,,,,,,,,,,,,,,,,,,,,,,,,,,,,,,124,150958,20,Female,1,2024/03/26_10:24:19,YZ,None,
,,,,,,calibration,0,12,2,500,15,F,0,right,0.7856385990007766,1,0,,,,,,,,,,,,,,,,,,,,,1,,,,,,,,,,,,,,,,,,,,,,,,,,,,,,,,,,,,,,,,,,,,,,124,150958,20,Female,1,2024/03/26_10:24:19,YZ,None,
,,,,,,calibration,0,12,2,500,16,J,0,left,0.9591597799999363,0,0,,,,,,,,,,,,,,,,,,,,,1,,,,,,,,,,,,,,,,,,,,,,,,,,,,,,,,,,,,,,,,,,,,,,124,150958,20,Female,1,2024/03/26_10:24:19,YZ,None,
,,,,,,calibration,0,12,2,500,,,,,,,,0.7227272727272727,0.6,0.2727272727272727,0.25,0.5,0.2272727272727273,0.7551796883751649,3,3,1,7,8,1,4,5,11,0,,,,1,,,,,,,,,,,,,,,,,,,,,,,,,,,,,,,,,,,,,,,,,,,,,,124,150958,20,Female,1,2024/03/26_10:24:19,YZ,None,
,,,,,,Calibration,0,,2,500,,,,,,,,,,,,,,,,,,,,,,,,,2,,,1,,,,,,,,,,,,,,,,,,,,,,,,,,,,,,,,,,,,,,,,,,,,,,124,150958,20,Female,1,2024/03/26_10:24:19,YZ,None,
,,,,,,calibration,0,18,2,583,1,X,0,None,nan,0,1,,,,,,,,,,,,,,,,,,,,,1,,,,,,,,,,,,,,,,,,,,,,,,,,,,,,,,,,,,,,,,,,,,,,124,150958,20,Female,1,2024/03/26_10:24:19,YZ,None,
,,,,,,calibration,0,18,2,583,2,C,0,right,1.2467680239997208,1,0,,,,,,,,,,,,,,,,,,,,,1,,,,,,,,,,,,,,,,,,,,,,,,,,,,,,,,,,,,,,,,,,,,,,124,150958,20,Female,1,2024/03/26_10:24:19,YZ,None,
,,,,,,calibration,0,18,2,583,3,S,0,right,1.0413693750006132,1,0,,,,,,,,,,,,,,,,,,,,,1,,,,,,,,,,,,,,,,,,,,,,,,,,,,,,,,,,,,,,,,,,,,,,124,150958,20,Female,1,2024/03/26_10:24:19,YZ,None,
,,,,,,calibration,0,18,2,583,4,V,0,left,1.1882025779996184,0,0,,,,,,,,,,,,,,,,,,,,,1,,,,,,,,,,,,,,,,,,,,,,,,,,,,,,,,,,,,,,,,,,,,,,124,150958,20,Female,1,2024/03/26_10:24:19,YZ,None,
,,,,,,calibration,0,18,2,583,5,X,0,right,1.0565733539997382,1,0,,,,,,,,,,,,,,,,,,,,,1,,,,,,,,,,,,,,,,,,,,,,,,,,,,,,,,,,,,,,,,,,,,,,124,150958,20,Female,1,2024/03/26_10:24:19,YZ,None,
,,,,,,calibration,0,18,2,583,6,J,0,right,1.4259503009998298,1,0,,,,,,,,,,,,,,,,,,,,,1,,,,,,,,,,,,,,,,,,,,,,,,,,,,,,,,,,,,,,,,,,,,,,124,150958,20,Female,1,2024/03/26_10:24:19,YZ,None,
,,,,,,calibration,0,18,2,583,7,X,1,right,1.0410555010003009,0,0,,,,,,,,,,,,,,,,,,,,,1,,,,,,,,,,,,,,,,,,,,,,,,,,,,,,,,,,,,,,,,,,,,,,124,150958,20,Female,1,2024/03/26_10:24:19,YZ,None,
,,,,,,calibration,0,18,2,583,8,J,1,left,1.1901639209991117,1,0,,,,,,,,,,,,,,,,,,,,,1,,,,,,,,,,,,,,,,,,,,,,,,,,,,,,,,,,,,,,,,,,,,,,124,150958,20,Female,1,2024/03/26_10:24:19,YZ,None,
,,,,,,calibration,0,18,2,583,9,V,0,right,1.3023123769999074,1,0,,,,,,,,,,,,,,,,,,,,,1,,,,,,,,,,,,,,,,,,,,,,,,,,,,,,,,,,,,,,,,,,,,,,124,150958,20,Female,1,2024/03/26_10:24:19,YZ,None,
,,,,,,calibration,0,18,2,583,10,J,1,left,1.3454158180002196,1,0,,,,,,,,,,,,,,,,,,,,,1,,,,,,,,,,,,,,,,,,,,,,,,,,,,,,,,,,,,,,,,,,,,,,124,150958,20,Female,1,2024/03/26_10:24:19,YZ,None,
,,,,,,calibration,0,18,2,583,11,Q,0,right,1.1761280900000202,1,0,,,,,,,,,,,,,,,,,,,,,1,,,,,,,,,,,,,,,,,,,,,,,,,,,,,,,,,,,,,,,,,,,,,,124,150958,20,Female,1,2024/03/26_10:24:19,YZ,None,
,,,,,,calibration,0,18,2,583,12,F,0,left,1.5029583850000563,0,0,,,,,,,,,,,,,,,,,,,,,1,,,,,,,,,,,,,,,,,,,,,,,,,,,,,,,,,,,,,,,,,,,,,,124,150958,20,Female,1,2024/03/26_10:24:19,YZ,None,
,,,,,,calibration,0,18,2,583,13,Q,1,left,nan,0,1,,,,,,,,,,,,,,,,,,,,,1,,,,,,,,,,,,,,,,,,,,,,,,,,,,,,,,,,,,,,,,,,,,,,124,150958,20,Female,1,2024/03/26_10:24:19,YZ,None,
,,,,,,calibration,0,18,2,583,14,N,0,left,0.34610476099987864,0,0,,,,,,,,,,,,,,,,,,,,,1,,,,,,,,,,,,,,,,,,,,,,,,,,,,,,,,,,,,,,,,,,,,,,124,150958,20,Female,1,2024/03/26_10:24:19,YZ,None,
,,,,,,calibration,0,18,2,583,15,J,0,left,nan,0,1,,,,,,,,,,,,,,,,,,,,,1,,,,,,,,,,,,,,,,,,,,,,,,,,,,,,,,,,,,,,,,,,,,,,124,150958,20,Female,1,2024/03/26_10:24:19,YZ,None,
,,,,,,calibration,0,18,2,583,,,,,,,,0.6704545454545455,0.5,0.2727272727272727,0.6666666666666666,0.2,0.5272727272727273,1.1552502070832513,2,3,1,2,3,6,8,4,11,0,,,,1,,,,,,,,,,,,,,,,,,,,,,,,,,,,,,,,,,,,,,,,,,,,,,124,150958,20,Female,1,2024/03/26_10:24:19,YZ,None,
,,,,,,Calibration,0,,2,583,,,,,,,,,,,,,,,,,,,,,,,,,3,,,1,,,,,,,,,,,,,,,,,,,,,,,,,,,,,,,,,,,,,,,,,,,,,,124,150958,20,Female,1,2024/03/26_10:24:19,YZ,None,
,,,,,,calibration,0,15,2,679,1,C,0,None,nan,0,1,,,,,,,,,,,,,,,,,,,,,1,,,,,,,,,,,,,,,,,,,,,,,,,,,,,,,,,,,,,,,,,,,,,,124,150958,20,Female,1,2024/03/26_10:24:19,YZ,None,
,,,,,,calibration,0,15,2,679,2,S,0,right,0.840840603000288,1,0,,,,,,,,,,,,,,,,,,,,,1,,,,,,,,,,,,,,,,,,,,,,,,,,,,,,,,,,,,,,,,,,,,,,124,150958,20,Female,1,2024/03/26_10:24:19,YZ,None,
,,,,,,calibration,0,15,2,679,3,X,0,right,0.6690082889999758,1,0,,,,,,,,,,,,,,,,,,,,,1,,,,,,,,,,,,,,,,,,,,,,,,,,,,,,,,,,,,,,,,,,,,,,124,150958,20,Female,1,2024/03/26_10:24:19,YZ,None,
,,,,,,calibration,0,15,2,679,4,S,1,left,0.6691302730005191,1,0,,,,,,,,,,,,,,,,,,,,,1,,,,,,,,,,,,,,,,,,,,,,,,,,,,,,,,,,,,,,,,,,,,,,124,150958,20,Female,1,2024/03/26_10:24:19,YZ,None,
,,,,,,calibration,0,15,2,679,5,V,0,right,0.9706067340002846,1,0,,,,,,,,,,,,,,,,,,,,,1,,,,,,,,,,,,,,,,,,,,,,,,,,,,,,,,,,,,,,,,,,,,,,124,150958,20,Female,1,2024/03/26_10:24:19,YZ,None,
,,,,,,calibration,0,15,2,679,6,F,0,left,0.7583034500003123,0,0,,,,,,,,,,,,,,,,,,,,,1,,,,,,,,,,,,,,,,,,,,,,,,,,,,,,,,,,,,,,,,,,,,,,124,150958,20,Female,1,2024/03/26_10:24:19,YZ,None,
,,,,,,calibration,0,15,2,679,7,C,0,right,0.8420898760005002,1,0,,,,,,,,,,,,,,,,,,,,,1,,,,,,,,,,,,,,,,,,,,,,,,,,,,,,,,,,,,,,,,,,,,,,124,150958,20,Female,1,2024/03/26_10:24:19,YZ,None,
,,,,,,calibration,0,15,2,679,8,Q,0,right,0.8912267360001351,1,0,,,,,,,,,,,,,,,,,,,,,1,,,,,,,,,,,,,,,,,,,,,,,,,,,,,,,,,,,,,,,,,,,,,,124,150958,20,Female,1,2024/03/26_10:24:19,YZ,None,
,,,,,,calibration,0,15,2,679,9,C,1,left,0.6546919169995817,1,0,,,,,,,,,,,,,,,,,,,,,1,,,,,,,,,,,,,,,,,,,,,,,,,,,,,,,,,,,,,,,,,,,,,,124,150958,20,Female,1,2024/03/26_10:24:19,YZ,None,
,,,,,,calibration,0,15,2,679,10,F,0,right,0.7237684029996672,1,0,,,,,,,,,,,,,,,,,,,,,1,,,,,,,,,,,,,,,,,,,,,,,,,,,,,,,,,,,,,,,,,,,,,,124,150958,20,Female,1,2024/03/26_10:24:19,YZ,None,
,,,,,,calibration,0,15,2,679,11,C,1,left,0.48432202099957067,1,0,,,,,,,,,,,,,,,,,,,,,1,,,,,,,,,,,,,,,,,,,,,,,,,,,,,,,,,,,,,,,,,,,,,,124,150958,20,Female,1,2024/03/26_10:24:19,YZ,None,
,,,,,,calibration,0,15,2,679,12,F,1,right,0.7815181449996089,0,0,,,,,,,,,,,,,,,,,,,,,1,,,,,,,,,,,,,,,,,,,,,,,,,,,,,,,,,,,,,,,,,,,,,,124,150958,20,Female,1,2024/03/26_10:24:19,YZ,None,
,,,,,,calibration,0,15,2,679,13,Q,0,right,0.7806950980002512,1,0,,,,,,,,,,,,,,,,,,,,,1,,,,,,,,,,,,,,,,,,,,,,,,,,,,,,,,,,,,,,,,,,,,,,124,150958,20,Female,1,2024/03/26_10:24:19,YZ,None,
,,,,,,calibration,0,15,2,679,14,V,0,right,0.6418746320005084,1,0,,,,,,,,,,,,,,,,,,,,,1,,,,,,,,,,,,,,,,,,,,,,,,,,,,,,,,,,,,,,,,,,,,,,124,150958,20,Female,1,2024/03/26_10:24:19,YZ,None,
,,,,,,calibration,0,15,2,679,,,,,,,,0.8875,0.75,0.1,0.8888888888888888,0.07142857142857142,0.8285714285714286,0.7467750905385541,3,1,0,1,1,8,11,4,10,0,,,,1,,,,,,,,,,,,,,,,,,,,,,,,,,,,,,,,,,,,,,,,,,,,,,124,150958,20,Female,1,2024/03/26_10:24:19,YZ,None,
,,,,,,Calibration,0,,2,679,,,,,,,,,,,,,,,,,,,,,,,,,4,,,1,,,,,,,,,,,,,,,,,,,,,,,,,,,,,,,,,,,,,,,,,,,,,,124,150958,20,Female,1,2024/03/26_10:24:19,YZ,None,
,,,,,,calibration,0,27,2,583,1,Q,0,None,nan,0,1,,,,,,,,,,,,,,,,,,,,,1,,,,,,,,,,,,,,,,,,,,,,,,,,,,,,,,,,,,,,,,,,,,,,124,150958,20,Female,1,2024/03/26_10:24:19,YZ,None,
,,,,,,calibration,0,27,2,583,2,V,0,right,0.3829101629999059,1,0,,,,,,,,,,,,,,,,,,,,,1,,,,,,,,,,,,,,,,,,,,,,,,,,,,,,,,,,,,,,,,,,,,,,124,150958,20,Female,1,2024/03/26_10:24:19,YZ,None,
,,,,,,calibration,0,27,2,583,3,N,0,right,0.5706846109997059,1,0,,,,,,,,,,,,,,,,,,,,,1,,,,,,,,,,,,,,,,,,,,,,,,,,,,,,,,,,,,,,,,,,,,,,124,150958,20,Female,1,2024/03/26_10:24:19,YZ,None,
,,,,,,calibration,0,27,2,583,4,X,0,left,0.8144768430001932,0,0,,,,,,,,,,,,,,,,,,,,,1,,,,,,,,,,,,,,,,,,,,,,,,,,,,,,,,,,,,,,,,,,,,,,124,150958,20,Female,1,2024/03/26_10:24:19,YZ,None,
,,,,,,calibration,0,27,2,583,5,N,1,right,0.7756254099995203,0,0,,,,,,,,,,,,,,,,,,,,,1,,,,,,,,,,,,,,,,,,,,,,,,,,,,,,,,,,,,,,,,,,,,,,124,150958,20,Female,1,2024/03/26_10:24:19,YZ,None,
,,,,,,calibration,0,27,2,583,6,X,1,left,0.7526690620006775,1,0,,,,,,,,,,,,,,,,,,,,,1,,,,,,,,,,,,,,,,,,,,,,,,,,,,,,,,,,,,,,,,,,,,,,124,150958,20,Female,1,2024/03/26_10:24:19,YZ,None,
,,,,,,calibration,0,27,2,583,7,V,0,right,0.6421818460003124,1,0,,,,,,,,,,,,,,,,,,,,,1,,,,,,,,,,,,,,,,,,,,,,,,,,,,,,,,,,,,,,,,,,,,,,124,150958,20,Female,1,2024/03/26_10:24:19,YZ,None,
,,,,,,calibration,0,27,2,583,8,N,0,left,1.0414865679995273,0,0,,,,,,,,,,,,,,,,,,,,,1,,,,,,,,,,,,,,,,,,,,,,,,,,,,,,,,,,,,,,,,,,,,,,124,150958,20,Female,1,2024/03/26_10:24:19,YZ,None,
,,,,,,calibration,0,27,2,583,9,V,1,left,0.9915575969998827,1,0,,,,,,,,,,,,,,,,,,,,,1,,,,,,,,,,,,,,,,,,,,,,,,,,,,,,,,,,,,,,,,,,,,,,124,150958,20,Female,1,2024/03/26_10:24:19,YZ,None,
,,,,,,calibration,0,27,2,583,10,S,0,right,0.87102515999959,1,0,,,,,,,,,,,,,,,,,,,,,1,,,,,,,,,,,,,,,,,,,,,,,,,,,,,,,,,,,,,,,,,,,,,,124,150958,20,Female,1,2024/03/26_10:24:19,YZ,None,
,,,,,,calibration,0,27,2,583,11,X,0,right,0.7053483780000533,1,0,,,,,,,,,,,,,,,,,,,,,1,,,,,,,,,,,,,,,,,,,,,,,,,,,,,,,,,,,,,,,,,,,,,,124,150958,20,Female,1,2024/03/26_10:24:19,YZ,None,
,,,,,,calibration,0,27,2,583,12,S,1,right,1.9563556889997926,0,0,,,,,,,,,,,,,,,,,,,,,1,,,,,,,,,,,,,,,,,,,,,,,,,,,,,,,,,,,,,,,,,,,,,,124,150958,20,Female,1,2024/03/26_10:24:19,YZ,None,
,,,,,,calibration,0,27,2,583,13,F,0,right,0.8021810950003783,1,0,,,,,,,,,,,,,,,,,,,,,1,,,,,,,,,,,,,,,,,,,,,,,,,,,,,,,,,,,,,,,,,,,,,,124,150958,20,Female,1,2024/03/26_10:24:19,YZ,None,
,,,,,,calibration,0,27,2,583,14,N,0,right,0.7623124090005149,1,0,,,,,,,,,,,,,,,,,,,,,1,,,,,,,,,,,,,,,,,,,,,,,,,,,,,,,,,,,,,,,,,,,,,,124,150958,20,Female,1,2024/03/26_10:24:19,YZ,None,
,,,,,,calibration,0,27,2,583,15,S,0,left,1.3091440850002982,0,0,,,,,,,,,,,,,,,,,,,,,1,,,,,,,,,,,,,,,,,,,,,,,,,,,,,,,,,,,,,,,,,,,,,,124,150958,20,Female,1,2024/03/26_10:24:19,YZ,None,
,,,,,,calibration,0,27,2,583,,,,,,,,0.6704545454545455,0.5,0.2727272727272727,0.7,0.06666666666666667,0.6606060606060606,0.8841399225714538,2,3,0,1,1,7,9,4,11,0,,,,1,,,,,,,,,,,,,,,,,,,,,,,,,,,,,,,,,,,,,,,,,,,,,,124,150958,20,Female,1,2024/03/26_10:24:19,YZ,None,
,,,,,,Calibration,0,,2,583,,,,,,,,,,,,,,,,,,,,,,,,,5,,,1,,,,,,,,,,,,,,,,,,,,,,,,,,,,,,,,,,,,,,,,,,,,,,124,150958,20,Female,1,2024/03/26_10:24:19,YZ,None,
,,,,,,calibration,0,8,2,679,1,J,0,left,1.0759740260000399,0,0,,,,,,,,,,,,,,,,,,,,,1,,,,,,,,,,,,,,,,,,,,,,,,,,,,,,,,,,,,,,,,,,,,,,124,150958,20,Female,1,2024/03/26_10:24:19,YZ,None,
,,,,,,calibration,0,8,2,679,2,C,0,right,1.3914678679993813,1,0,,,,,,,,,,,,,,,,,,,,,1,,,,,,,,,,,,,,,,,,,,,,,,,,,,,,,,,,,,,,,,,,,,,,124,150958,20,Female,1,2024/03/26_10:24:19,YZ,None,
,,,,,,calibration,0,8,2,679,3,J,1,right,1.297653053000431,0,0,,,,,,,,,,,,,,,,,,,,,1,,,,,,,,,,,,,,,,,,,,,,,,,,,,,,,,,,,,,,,,,,,,,,124,150958,20,Female,1,2024/03/26_10:24:19,YZ,None,
,,,,,,calibration,0,8,2,679,4,S,0,left,0.5912335430002713,0,0,,,,,,,,,,,,,,,,,,,,,1,,,,,,,,,,,,,,,,,,,,,,,,,,,,,,,,,,,,,,,,,,,,,,124,150958,20,Female,1,2024/03/26_10:24:19,YZ,None,
,,,,,,calibration,0,8,2,679,5,J,1,right,0.7970240979993832,0,0,,,,,,,,,,,,,,,,,,,,,1,,,,,,,,,,,,,,,,,,,,,,,,,,,,,,,,,,,,,,,,,,,,,,124,150958,20,Female,1,2024/03/26_10:24:19,YZ,None,
,,,,,,calibration,0,8,2,679,6,N,0,right,0.6077288030001,1,0,,,,,,,,,,,,,,,,,,,,,1,,,,,,,,,,,,,,,,,,,,,,,,,,,,,,,,,,,,,,,,,,,,,,124,150958,20,Female,1,2024/03/26_10:24:19,YZ,None,
,,,,,,calibration,0,8,2,679,7,V,0,right,0.6620887270000821,1,0,,,,,,,,,,,,,,,,,,,,,1,,,,,,,,,,,,,,,,,,,,,,,,,,,,,,,,,,,,,,,,,,,,,,124,150958,20,Female,1,2024/03/26_10:24:19,YZ,None,
,,,,,,calibration,0,8,2,679,8,F,0,right,0.7574218520003342,1,0,,,,,,,,,,,,,,,,,,,,,1,,,,,,,,,,,,,,,,,,,,,,,,,,,,,,,,,,,,,,,,,,,,,,124,150958,20,Female,1,2024/03/26_10:24:19,YZ,None,
,,,,,,calibration,0,8,2,679,9,C,0,right,0.8245144580005217,1,0,,,,,,,,,,,,,,,,,,,,,1,,,,,,,,,,,,,,,,,,,,,,,,,,,,,,,,,,,,,,,,,,,,,,124,150958,20,Female,1,2024/03/26_10:24:19,YZ,None,
,,,,,,calibration,0,8,2,679,10,X,0,left,0.7214567579994764,0,0,,,,,,,,,,,,,,,,,,,,,1,,,,,,,,,,,,,,,,,,,,,,,,,,,,,,,,,,,,,,,,,,,,,,124,150958,20,Female,1,2024/03/26_10:24:19,YZ,None,
,,,,,,calibration,0,8,2,679,11,C,1,left,1.0370798550002291,1,0,,,,,,,,,,,,,,,,,,,,,1,,,,,,,,,,,,,,,,,,,,,,,,,,,,,,,,,,,,,,,,,,,,,,124,150958,20,Female,1,2024/03/26_10:24:19,YZ,None,
,,,,,,calibration,0,8,2,679,12,N,0,right,0.9241378349997831,1,0,,,,,,,,,,,,,,,,,,,,,1,,,,,,,,,,,,,,,,,,,,,,,,,,,,,,,,,,,,,,,,,,,,,,124,150958,20,Female,1,2024/03/26_10:24:19,YZ,None,
,,,,,,calibration,0,8,2,679,13,X,0,right,1.4263246959999378,1,0,,,,,,,,,,,,,,,,,,,,,1,,,,,,,,,,,,,,,,,,,,,,,,,,,,,,,,,,,,,,,,,,,,,,124,150958,20,Female,1,2024/03/26_10:24:19,YZ,None,
,,,,,,calibration,0,8,2,679,14,N,1,left,0.6308420169998499,1,0,,,,,,,,,,,,,,,,,,,,,1,,,,,,,,,,,,,,,,,,,,,,,,,,,,,,,,,,,,,,,,,,,,,,124,150958,20,Female,1,2024/03/26_10:24:19,YZ,None,
,,,,,,calibration,0,8,2,679,,,,,,,,0.65,0.5,0.3,0.7,0.0,0.7,0.9103533992142729,2,3,0,0,0,7,9,4,10,0,,,,1,,,,,,,,,,,,,,,,,,,,,,,,,,,,,,,,,,,,,,,,,,,,,,124,150958,20,Female,1,2024/03/26_10:24:19,YZ,None,
,,,,,,Calibration,0,,2,679,,,,,,,,,,,,,,,,,,,,,,,,,6,,,1,,,,,,,,,,,,,,,,,,,,,,,,,,,,,,,,,,,,,,,,,,,,,,124,150958,20,Female,1,2024/03/26_10:24:19,YZ,None,
,,,,,,calibration,0,31,2,788,1,S,0,left,0.7640783919996466,0,0,,,,,,,,,,,,,,,,,,,,,1,,,,,,,,,,,,,,,,,,,,,,,,,,,,,,,,,,,,,,,,,,,,,,124,150958,20,Female,1,2024/03/26_10:24:19,YZ,None,
,,,,,,calibration,0,31,2,788,2,Q,0,right,1.035514436000085,1,0,,,,,,,,,,,,,,,,,,,,,1,,,,,,,,,,,,,,,,,,,,,,,,,,,,,,,,,,,,,,,,,,,,,,124,150958,20,Female,1,2024/03/26_10:24:19,YZ,None,
,,,,,,calibration,0,31,2,788,3,N,0,right,0.6403843830003098,1,0,,,,,,,,,,,,,,,,,,,,,1,,,,,,,,,,,,,,,,,,,,,,,,,,,,,,,,,,,,,,,,,,,,,,124,150958,20,Female,1,2024/03/26_10:24:19,YZ,None,
,,,,,,calibration,0,31,2,788,4,Q,1,left,0.5124703709998357,1,0,,,,,,,,,,,,,,,,,,,,,1,,,,,,,,,,,,,,,,,,,,,,,,,,,,,,,,,,,,,,,,,,,,,,124,150958,20,Female,1,2024/03/26_10:24:19,YZ,None,
,,,,,,calibration,0,31,2,788,5,C,0,right,0.7478909560004467,1,0,,,,,,,,,,,,,,,,,,,,,1,,,,,,,,,,,,,,,,,,,,,,,,,,,,,,,,,,,,,,,,,,,,,,124,150958,20,Female,1,2024/03/26_10:24:19,YZ,None,
,,,,,,calibration,0,31,2,788,6,V,0,right,0.7143906340006652,1,0,,,,,,,,,,,,,,,,,,,,,1,,,,,,,,,,,,,,,,,,,,,,,,,,,,,,,,,,,,,,,,,,,,,,124,150958,20,Female,1,2024/03/26_10:24:19,YZ,None,
,,,,,,calibration,0,31,2,788,7,C,1,left,0.77419015400028,1,0,,,,,,,,,,,,,,,,,,,,,1,,,,,,,,,,,,,,,,,,,,,,,,,,,,,,,,,,,,,,,,,,,,,,124,150958,20,Female,1,2024/03/26_10:24:19,YZ,None,
,,,,,,calibration,0,31,2,788,8,J,0,right,1.3905916270005036,1,0,,,,,,,,,,,,,,,,,,,,,1,,,,,,,,,,,,,,,,,,,,,,,,,,,,,,,,,,,,,,,,,,,,,,124,150958,20,Female,1,2024/03/26_10:24:19,YZ,None,
,,,,,,calibration,0,31,2,788,9,F,0,right,0.7024432070002149,1,0,,,,,,,,,,,,,,,,,,,,,1,,,,,,,,,,,,,,,,,,,,,,,,,,,,,,,,,,,,,,,,,,,,,,124,150958,20,Female,1,2024/03/26_10:24:19,YZ,None,
,,,,,,calibration,0,31,2,788,10,J,1,left,0.4172884600002362,1,0,,,,,,,,,,,,,,,,,,,,,1,,,,,,,,,,,,,,,,,,,,,,,,,,,,,,,,,,,,,,,,,,,,,,124,150958,20,Female,1,2024/03/26_10:24:19,YZ,None,
,,,,,,calibration,0,31,2,788,11,F,1,right,0.9704775399995924,0,0,,,,,,,,,,,,,,,,,,,,,1,,,,,,,,,,,,,,,,,,,,,,,,,,,,,,,,,,,,,,,,,,,,,,124,150958,20,Female,1,2024/03/26_10:24:19,YZ,None,
,,,,,,calibration,0,31,2,788,12,V,0,right,1.1979422430003979,1,0,,,,,,,,,,,,,,,,,,,,,1,,,,,,,,,,,,,,,,,,,,,,,,,,,,,,,,,,,,,,,,,,,,,,124,150958,20,Female,1,2024/03/26_10:24:19,YZ,None,
,,,,,,calibration,0,31,2,788,13,Q,0,right,0.5476042129994312,1,0,,,,,,,,,,,,,,,,,,,,,1,,,,,,,,,,,,,,,,,,,,,,,,,,,,,,,,,,,,,,,,,,,,,,124,150958,20,Female,1,2024/03/26_10:24:19,YZ,None,
,,,,,,calibration,0,31,2,788,,,,,,,,0.8819444444444444,0.75,0.1111111111111111,0.8888888888888888,0.0,0.8888888888888888,0.8011743550770496,3,1,0,0,0,8,11,4,9,0,,,,1,,,,,,,,,,,,,,,,,,,,,,,,,,,,,,,,,,,,,,,,,,,,,,124,150958,20,Female,1,2024/03/26_10:24:19,YZ,None,
,,,,,,Calibration,0,,2,788,,,,,,,,,,,,,,,,,,,,,,,,,7,,,1,,,,,,,,,,,,,,,,,,,,,,,,,,,,,,,,,,,,,,,,,,,,,,124,150958,20,Female,1,2024/03/26_10:24:19,YZ,None,
,,,,,,calibration,0,35,2,679,1,N,0,right,0.4812049460006165,1,0,,,,,,,,,,,,,,,,,,,,,1,,,,,,,,,,,,,,,,,,,,,,,,,,,,,,,,,,,,,,,,,,,,,,124,150958,20,Female,1,2024/03/26_10:24:19,YZ,None,
,,,,,,calibration,0,35,2,679,2,J,0,right,0.7739942890002567,1,0,,,,,,,,,,,,,,,,,,,,,1,,,,,,,,,,,,,,,,,,,,,,,,,,,,,,,,,,,,,,,,,,,,,,124,150958,20,Female,1,2024/03/26_10:24:19,YZ,None,
,,,,,,calibration,0,35,2,679,3,X,0,right,0.8280978809998487,1,0,,,,,,,,,,,,,,,,,,,,,1,,,,,,,,,,,,,,,,,,,,,,,,,,,,,,,,,,,,,,,,,,,,,,124,150958,20,Female,1,2024/03/26_10:24:19,YZ,None,
,,,,,,calibration,0,35,2,679,4,C,0,right,0.6422115650002524,1,0,,,,,,,,,,,,,,,,,,,,,1,,,,,,,,,,,,,,,,,,,,,,,,,,,,,,,,,,,,,,,,,,,,,,124,150958,20,Female,1,2024/03/26_10:24:19,YZ,None,
,,,,,,calibration,0,35,2,679,5,V,0,right,0.8086897789999057,1,0,,,,,,,,,,,,,,,,,,,,,1,,,,,,,,,,,,,,,,,,,,,,,,,,,,,,,,,,,,,,,,,,,,,,124,150958,20,Female,1,2024/03/26_10:24:19,YZ,None,
,,,,,,calibration,0,35,2,679,6,N,0,right,1.6079686729999594,1,0,,,,,,,,,,,,,,,,,,,,,1,,,,,,,,,,,,,,,,,,,,,,,,,,,,,,,,,,,,,,,,,,,,,,124,150958,20,Female,1,2024/03/26_10:24:19,YZ,None,
,,,,,,calibration,0,35,2,679,7,V,1,left,0.7636407540003347,1,0,,,,,,,,,,,,,,,,,,,,,1,,,,,,,,,,,,,,,,,,,,,,,,,,,,,,,,,,,,,,,,,,,,,,124,150958,20,Female,1,2024/03/26_10:24:19,YZ,None,
,,,,,,calibration,0,35,2,679,8,N,1,left,0.765711420000116,1,0,,,,,,,,,,,,,,,,,,,,,1,,,,,,,,,,,,,,,,,,,,,,,,,,,,,,,,,,,,,,,,,,,,,,124,150958,20,Female,1,2024/03/26_10:24:19,YZ,None,
,,,,,,calibration,0,35,2,679,9,J,0,right,1.1411741329993674,1,0,,,,,,,,,,,,,,,,,,,,,1,,,,,,,,,,,,,,,,,,,,,,,,,,,,,,,,,,,,,,,,,,,,,,124,150958,20,Female,1,2024/03/26_10:24:19,YZ,None,
,,,,,,calibration,0,35,2,679,10,C,0,right,0.946973885999796,1,0,,,,,,,,,,,,,,,,,,,,,1,,,,,,,,,,,,,,,,,,,,,,,,,,,,,,,,,,,,,,,,,,,,,,124,150958,20,Female,1,2024/03/26_10:24:19,YZ,None,
,,,,,,calibration,0,35,2,679,11,V,0,right,0.6087529869992068,1,0,,,,,,,,,,,,,,,,,,,,,1,,,,,,,,,,,,,,,,,,,,,,,,,,,,,,,,,,,,,,,,,,,,,,124,150958,20,Female,1,2024/03/26_10:24:19,YZ,None,
,,,,,,calibration,0,35,2,679,12,Q,0,right,0.8920861739998145,1,0,,,,,,,,,,,,,,,,,,,,,1,,,,,,,,,,,,,,,,,,,,,,,,,,,,,,,,,,,,,,,,,,,,,,124,150958,20,Female,1,2024/03/26_10:24:19,YZ,None,
,,,,,,calibration,0,35,2,679,13,V,1,left,0.8244314809999196,1,0,,,,,,,,,,,,,,,,,,,,,1,,,,,,,,,,,,,,,,,,,,,,,,,,,,,,,,,,,,,,,,,,,,,,124,150958,20,Female,1,2024/03/26_10:24:19,YZ,None,
,,,,,,calibration,0,35,2,679,14,Q,1,right,1.006332492999718,0,0,,,,,,,,,,,,,,,,,,,,,1,,,,,,,,,,,,,,,,,,,,,,,,,,,,,,,,,,,,,,,,,,,,,,124,150958,20,Female,1,2024/03/26_10:24:19,YZ,None,
,,,,,,calibration,0,35,2,679,,,,,,,,0.9375,0.75,0.0,1.0,0.0,1.0,0.8636621757856509,3,0,0,0,0,10,13,4,10,0,,,,1,,,,,,,,,,,,,,,,,,,,,,,,,,,,,,,,,,,,,,,,,,,,,,124,150958,20,Female,1,2024/03/26_10:24:19,YZ,None,
,,,,,,Calibration,0,,2,679,,,,,,,,,,,,,,,,,,,,,,,,,8,,,1,,,,,,,,,,,,,,,,,,,,,,,,,,,,,,,,,,,,,,,,,,,,,,124,150958,20,Female,1,2024/03/26_10:24:19,YZ,None,
,,,,,,calibration,0,22,2,583,1,F,0,left,0.5740966650000701,0,0,,,,,,,,,,,,,,,,,,,,,1,,,,,,,,,,,,,,,,,,,,,,,,,,,,,,,,,,,,,,,,,,,,,,124,150958,20,Female,1,2024/03/26_10:24:19,YZ,None,
,,,,,,calibration,0,22,2,583,2,F,0,right,0.6128622260002885,1,0,,,,,,,,,,,,,,,,,,,,,1,,,,,,,,,,,,,,,,,,,,,,,,,,,,,,,,,,,,,,,,,,,,,,124,150958,20,Female,1,2024/03/26_10:24:19,YZ,None,
,,,,,,calibration,0,22,2,583,3,F,1,right,1.1583656190005058,0,0,,,,,,,,,,,,,,,,,,,,,1,,,,,,,,,,,,,,,,,,,,,,,,,,,,,,,,,,,,,,,,,,,,,,124,150958,20,Female,1,2024/03/26_10:24:19,YZ,None,
,,,,,,calibration,0,22,2,583,4,F,1,left,1.1257154090008044,1,0,,,,,,,,,,,,,,,,,,,,,1,,,,,,,,,,,,,,,,,,,,,,,,,,,,,,,,,,,,,,,,,,,,,,124,150958,20,Female,1,2024/03/26_10:24:19,YZ,None,
,,,,,,calibration,0,22,2,583,5,X,0,right,0.881877149000502,1,0,,,,,,,,,,,,,,,,,,,,,1,,,,,,,,,,,,,,,,,,,,,,,,,,,,,,,,,,,,,,,,,,,,,,124,150958,20,Female,1,2024/03/26_10:24:19,YZ,None,
,,,,,,calibration,0,22,2,583,6,F,1,left,0.8249760700000479,1,0,,,,,,,,,,,,,,,,,,,,,1,,,,,,,,,,,,,,,,,,,,,,,,,,,,,,,,,,,,,,,,,,,,,,124,150958,20,Female,1,2024/03/26_10:24:19,YZ,None,
,,,,,,calibration,0,22,2,583,7,N,0,right,0.6708762119997118,1,0,,,,,,,,,,,,,,,,,,,,,1,,,,,,,,,,,,,,,,,,,,,,,,,,,,,,,,,,,,,,,,,,,,,,124,150958,20,Female,1,2024/03/26_10:24:19,YZ,None,
,,,,,,calibration,0,22,2,583,8,S,0,left,0.7698054239999692,0,0,,,,,,,,,,,,,,,,,,,,,1,,,,,,,,,,,,,,,,,,,,,,,,,,,,,,,,,,,,,,,,,,,,,,124,150958,20,Female,1,2024/03/26_10:24:19,YZ,None,
,,,,,,calibration,0,22,2,583,9,X,0,right,0.8467161489998034,1,0,,,,,,,,,,,,,,,,,,,,,1,,,,,,,,,,,,,,,,,,,,,,,,,,,,,,,,,,,,,,,,,,,,,,124,150958,20,Female,1,2024/03/26_10:24:19,YZ,None,
,,,,,,calibration,0,22,2,583,10,S,1,left,0.8915359639995586,1,0,,,,,,,,,,,,,,,,,,,,,1,,,,,,,,,,,,,,,,,,,,,,,,,,,,,,,,,,,,,,,,,,,,,,124,150958,20,Female,1,2024/03/26_10:24:19,YZ,None,
,,,,,,calibration,0,22,2,583,11,X,1,right,1.0360336900002949,0,0,,,,,,,,,,,,,,,,,,,,,1,,,,,,,,,,,,,,,,,,,,,,,,,,,,,,,,,,,,,,,,,,,,,,124,150958,20,Female,1,2024/03/26_10:24:19,YZ,None,
,,,,,,calibration,0,22,2,583,12,J,0,left,0.8119962969994958,0,0,,,,,,,,,,,,,,,,,,,,,1,,,,,,,,,,,,,,,,,,,,,,,,,,,,,,,,,,,,,,,,,,,,,,124,150958,20,Female,1,2024/03/26_10:24:19,YZ,None,
,,,,,,calibration,0,22,2,583,13,N,0,right,0.8316977539998334,1,0,,,,,,,,,,,,,,,,,,,,,1,,,,,,,,,,,,,,,,,,,,,,,,,,,,,,,,,,,,,,,,,,,,,,124,150958,20,Female,1,2024/03/26_10:24:19,YZ,None,
,,,,,,calibration,0,22,2,583,14,X,0,right,0.791697896000187,1,0,,,,,,,,,,,,,,,,,,,,,1,,,,,,,,,,,,,,,,,,,,,,,,,,,,,,,,,,,,,,,,,,,,,,124,150958,20,Female,1,2024/03/26_10:24:19,YZ,None,
,,,,,,calibration,0,22,2,583,15,J,0,left,0.7361801219994959,0,0,,,,,,,,,,,,,,,,,,,,,1,,,,,,,,,,,,,,,,,,,,,,,,,,,,,,,,,,,,,,,,,,,,,,124,150958,20,Female,1,2024/03/26_10:24:19,YZ,None,
,,,,,,calibration,0,22,2,583,,,,,,,,0.64,0.6,0.4,0.6,0.0,0.6,0.8376288430667046,3,4,0,0,0,6,9,5,10,0,,,,1,,,,,,,,,,,,,,,,,,,,,,,,,,,,,,,,,,,,,,,,,,,,,,124,150958,20,Female,1,2024/03/26_10:24:19,YZ,None,
,,,,,,Calibration,0,,2,583,,,,,,,,,,,,,,,,,,,,,,,,,9,,,1,,,,,,,,,,,,,,,,,,,,,,,,,,,,,,,,,,,,,,,,,,,,,,124,150958,20,Female,1,2024/03/26_10:24:19,YZ,None,
,,,,,,calibration,0,2,2,679,1,C,0,left,0.3836720149993198,0,0,,,,,,,,,,,,,,,,,,,,,1,,,,,,,,,,,,,,,,,,,,,,,,,,,,,,,,,,,,,,,,,,,,,,124,150958,20,Female,1,2024/03/26_10:24:19,YZ,None,
,,,,,,calibration,0,2,2,679,2,S,0,right,0.8845453510002699,1,0,,,,,,,,,,,,,,,,,,,,,1,,,,,,,,,,,,,,,,,,,,,,,,,,,,,,,,,,,,,,,,,,,,,,124,150958,20,Female,1,2024/03/26_10:24:19,YZ,None,
,,,,,,calibration,0,2,2,679,3,F,0,right,0.928259055000126,1,0,,,,,,,,,,,,,,,,,,,,,1,,,,,,,,,,,,,,,,,,,,,,,,,,,,,,,,,,,,,,,,,,,,,,124,150958,20,Female,1,2024/03/26_10:24:19,YZ,None,
,,,,,,calibration,0,2,2,679,4,S,1,left,0.6318952579995312,1,0,,,,,,,,,,,,,,,,,,,,,1,,,,,,,,,,,,,,,,,,,,,,,,,,,,,,,,,,,,,,,,,,,,,,124,150958,20,Female,1,2024/03/26_10:24:19,YZ,None,
,,,,,,calibration,0,2,2,679,5,X,0,right,0.9812797619997582,1,0,,,,,,,,,,,,,,,,,,,,,1,,,,,,,,,,,,,,,,,,,,,,,,,,,,,,,,,,,,,,,,,,,,,,124,150958,20,Female,1,2024/03/26_10:24:19,YZ,None,
,,,,,,calibration,0,2,2,679,6,S,1,left,0.7476060320004763,1,0,,,,,,,,,,,,,,,,,,,,,1,,,,,,,,,,,,,,,,,,,,,,,,,,,,,,,,,,,,,,,,,,,,,,124,150958,20,Female,1,2024/03/26_10:24:19,YZ,None,
,,,,,,calibration,0,2,2,679,7,C,0,right,0.7758848399998897,1,0,,,,,,,,,,,,,,,,,,,,,1,,,,,,,,,,,,,,,,,,,,,,,,,,,,,,,,,,,,,,,,,,,,,,124,150958,20,Female,1,2024/03/26_10:24:19,YZ,None,
,,,,,,calibration,0,2,2,679,8,N,0,right,0.6753848059997836,1,0,,,,,,,,,,,,,,,,,,,,,1,,,,,,,,,,,,,,,,,,,,,,,,,,,,,,,,,,,,,,,,,,,,,,124,150958,20,Female,1,2024/03/26_10:24:19,YZ,None,
,,,,,,calibration,0,2,2,679,9,C,1,right,0.8913805259999208,0,0,,,,,,,,,,,,,,,,,,,,,1,,,,,,,,,,,,,,,,,,,,,,,,,,,,,,,,,,,,,,,,,,,,,,124,150958,20,Female,1,2024/03/26_10:24:19,YZ,None,
,,,,,,calibration,0,2,2,679,10,F,0,right,0.8019087319999016,1,0,,,,,,,,,,,,,,,,,,,,,1,,,,,,,,,,,,,,,,,,,,,,,,,,,,,,,,,,,,,,,,,,,,,,124,150958,20,Female,1,2024/03/26_10:24:19,YZ,None,
,,,,,,calibration,0,2,2,679,11,N,0,left,0.8639340419995278,0,0,,,,,,,,,,,,,,,,,,,,,1,,,,,,,,,,,,,,,,,,,,,,,,,,,,,,,,,,,,,,,,,,,,,,124,150958,20,Female,1,2024/03/26_10:24:19,YZ,None,
,,,,,,calibration,0,2,2,679,12,Q,0,right,0.4745786160001444,1,0,,,,,,,,,,,,,,,,,,,,,1,,,,,,,,,,,,,,,,,,,,,,,,,,,,,,,,,,,,,,,,,,,,,,124,150958,20,Female,1,2024/03/26_10:24:19,YZ,None,
,,,,,,calibration,0,2,2,679,13,F,0,right,0.5748538890002237,1,0,,,,,,,,,,,,,,,,,,,,,1,,,,,,,,,,,,,,,,,,,,,,,,,,,,,,,,,,,,,,,,,,,,,,124,150958,20,Female,1,2024/03/26_10:24:19,YZ,None,
,,,,,,calibration,0,2,2,679,14,Q,1,left,0.4552462789997662,1,0,,,,,,,,,,,,,,,,,,,,,1,,,,,,,,,,,,,,,,,,,,,,,,,,,,,,,,,,,,,,,,,,,,,,124,150958,20,Female,1,2024/03/26_10:24:19,YZ,None,
,,,,,,calibration,0,2,2,679,,,,,,,,0.8374999999999999,0.75,0.2,0.8,0.0,0.8,0.71931637164276,3,2,0,0,0,8,11,4,10,0,,,,1,,,,,,,,,,,,,,,,,,,,,,,,,,,,,,,,,,,,,,,,,,,,,,124,150958,20,Female,1,2024/03/26_10:24:19,YZ,None,
,,,,,,Calibration,0,,2,679,,,,,,,,,,,,,,,,,,,,,,,,,10,,,1,,,,,,,,,,,,,,,,,,,,,,,,,,,,,,,,,,,,,,,,,,,,,,124,150958,20,Female,1,2024/03/26_10:24:19,YZ,None,
,,,,,,calibration,0,35,2,679,1,N,0,left,0.6666155900002195,0,0,,,,,,,,,,,,,,,,,,,,,1,,,,,,,,,,,,,,,,,,,,,,,,,,,,,,,,,,,,,,,,,,,,,,124,150958,20,Female,1,2024/03/26_10:24:19,YZ,None,
,,,,,,calibration,0,35,2,679,2,J,0,right,0.3803464980001081,1,0,,,,,,,,,,,,,,,,,,,,,1,,,,,,,,,,,,,,,,,,,,,,,,,,,,,,,,,,,,,,,,,,,,,,124,150958,20,Female,1,2024/03/26_10:24:19,YZ,None,
,,,,,,calibration,0,35,2,679,3,X,0,right,0.42541733699999895,1,0,,,,,,,,,,,,,,,,,,,,,1,,,,,,,,,,,,,,,,,,,,,,,,,,,,,,,,,,,,,,,,,,,,,,124,150958,20,Female,1,2024/03/26_10:24:19,YZ,None,
,,,,,,calibration,0,35,2,679,4,C,0,right,0.7505768149994765,1,0,,,,,,,,,,,,,,,,,,,,,1,,,,,,,,,,,,,,,,,,,,,,,,,,,,,,,,,,,,,,,,,,,,,,124,150958,20,Female,1,2024/03/26_10:24:19,YZ,None,
,,,,,,calibration,0,35,2,679,5,V,0,right,0.5537958940003591,1,0,,,,,,,,,,,,,,,,,,,,,1,,,,,,,,,,,,,,,,,,,,,,,,,,,,,,,,,,,,,,,,,,,,,,124,150958,20,Female,1,2024/03/26_10:24:19,YZ,None,
,,,,,,calibration,0,35,2,679,6,N,0,right,1.176050629999736,1,0,,,,,,,,,,,,,,,,,,,,,1,,,,,,,,,,,,,,,,,,,,,,,,,,,,,,,,,,,,,,,,,,,,,,124,150958,20,Female,1,2024/03/26_10:24:19,YZ,None,
,,,,,,calibration,0,35,2,679,7,V,1,right,1.2594750580001346,0,0,,,,,,,,,,,,,,,,,,,,,1,,,,,,,,,,,,,,,,,,,,,,,,,,,,,,,,,,,,,,,,,,,,,,124,150958,20,Female,1,2024/03/26_10:24:19,YZ,None,
,,,,,,calibration,0,35,2,679,8,N,1,left,0.5126885409999886,1,0,,,,,,,,,,,,,,,,,,,,,1,,,,,,,,,,,,,,,,,,,,,,,,,,,,,,,,,,,,,,,,,,,,,,124,150958,20,Female,1,2024/03/26_10:24:19,YZ,None,
,,,,,,calibration,0,35,2,679,9,J,0,right,0.6425648609993004,1,0,,,,,,,,,,,,,,,,,,,,,1,,,,,,,,,,,,,,,,,,,,,,,,,,,,,,,,,,,,,,,,,,,,,,124,150958,20,Female,1,2024/03/26_10:24:19,YZ,None,
,,,,,,calibration,0,35,2,679,10,C,0,left,1.0716976670000804,0,0,,,,,,,,,,,,,,,,,,,,,1,,,,,,,,,,,,,,,,,,,,,,,,,,,,,,,,,,,,,,,,,,,,,,124,150958,20,Female,1,2024/03/26_10:24:19,YZ,None,
,,,,,,calibration,0,35,2,679,11,V,0,left,1.1067905919999248,0,0,,,,,,,,,,,,,,,,,,,,,1,,,,,,,,,,,,,,,,,,,,,,,,,,,,,,,,,,,,,,,,,,,,,,124,150958,20,Female,1,2024/03/26_10:24:19,YZ,None,
,,,,,,calibration,0,35,2,679,12,Q,0,right,0.7192897390004873,1,0,,,,,,,,,,,,,,,,,,,,,1,,,,,,,,,,,,,,,,,,,,,,,,,,,,,,,,,,,,,,,,,,,,,,124,150958,20,Female,1,2024/03/26_10:24:19,YZ,None,
,,,,,,calibration,0,35,2,679,13,V,1,right,0.5438514649995341,0,0,,,,,,,,,,,,,,,,,,,,,1,,,,,,,,,,,,,,,,,,,,,,,,,,,,,,,,,,,,,,,,,,,,,,124,150958,20,Female,1,2024/03/26_10:24:19,YZ,None,
,,,,,,calibration,0,35,2,679,14,Q,1,left,0.4456599830000414,1,0,,,,,,,,,,,,,,,,,,,,,1,,,,,,,,,,,,,,,,,,,,,,,,,,,,,,,,,,,,,,,,,,,,,,124,150958,20,Female,1,2024/03/26_10:24:19,YZ,None,
,,,,,,calibration,0,35,2,679,,,,,,,,0.65,0.5,0.3,0.7,0.0,0.7,0.7324871907142422,2,3,0,0,0,7,9,4,10,0,,,,1,,,,,,,,,,,,,,,,,,,,,,,,,,,,,,,,,,,,,,,,,,,,,,124,150958,20,Female,1,2024/03/26_10:24:19,YZ,None,
,,,,,,Calibration,0,,2,679,,,,,,,,,,,,,,,,,,,,,,,,,11,,,1,,,,,,,,,,,,,,,,,,,,,,,,,,,,,,,,,,,,,,,,,,,,,,124,150958,20,Female,1,2024/03/26_10:24:19,YZ,None,
,,,,,,calibration,0,1,2,788,1,N,0,left,1.6604818240002714,0,0,,,,,,,,,,,,,,,,,,,,,1,,,,,,,,,,,,,,,,,,,,,,,,,,,,,,,,,,,,,,,,,,,,,,124,150958,20,Female,1,2024/03/26_10:24:19,YZ,None,
,,,,,,calibration,0,1,2,788,2,S,0,right,0.7719696590002059,1,0,,,,,,,,,,,,,,,,,,,,,1,,,,,,,,,,,,,,,,,,,,,,,,,,,,,,,,,,,,,,,,,,,,,,124,150958,20,Female,1,2024/03/26_10:24:19,YZ,None,
,,,,,,calibration,0,1,2,788,3,N,1,left,0.7408575429999473,1,0,,,,,,,,,,,,,,,,,,,,,1,,,,,,,,,,,,,,,,,,,,,,,,,,,,,,,,,,,,,,,,,,,,,,124,150958,20,Female,1,2024/03/26_10:24:19,YZ,None,
,,,,,,calibration,0,1,2,788,4,S,1,right,0.7395175170004222,0,0,,,,,,,,,,,,,,,,,,,,,1,,,,,,,,,,,,,,,,,,,,,,,,,,,,,,,,,,,,,,,,,,,,,,124,150958,20,Female,1,2024/03/26_10:24:19,YZ,None,
,,,,,,calibration,0,1,2,788,5,Q,0,left,0.6619121419998919,0,0,,,,,,,,,,,,,,,,,,,,,1,,,,,,,,,,,,,,,,,,,,,,,,,,,,,,,,,,,,,,,,,,,,,,124,150958,20,Female,1,2024/03/26_10:24:19,YZ,None,
,,,,,,calibration,0,1,2,788,6,S,1,right,0.6236710890007089,0,0,,,,,,,,,,,,,,,,,,,,,1,,,,,,,,,,,,,,,,,,,,,,,,,,,,,,,,,,,,,,,,,,,,,,124,150958,20,Female,1,2024/03/26_10:24:19,YZ,None,
,,,,,,calibration,0,1,2,788,7,Q,1,left,0.7236692440001207,1,0,,,,,,,,,,,,,,,,,,,,,1,,,,,,,,,,,,,,,,,,,,,,,,,,,,,,,,,,,,,,,,,,,,,,124,150958,20,Female,1,2024/03/26_10:24:19,YZ,None,
,,,,,,calibration,0,1,2,788,8,C,0,right,0.8232040570001118,1,0,,,,,,,,,,,,,,,,,,,,,1,,,,,,,,,,,,,,,,,,,,,,,,,,,,,,,,,,,,,,,,,,,,,,124,150958,20,Female,1,2024/03/26_10:24:19,YZ,None,
,,,,,,calibration,0,1,2,788,9,X,0,right,0.8114141320002091,1,0,,,,,,,,,,,,,,,,,,,,,1,,,,,,,,,,,,,,,,,,,,,,,,,,,,,,,,,,,,,,,,,,,,,,124,150958,20,Female,1,2024/03/26_10:24:19,YZ,None,
,,,,,,calibration,0,1,2,788,10,V,0,right,0.6908240439997826,1,0,,,,,,,,,,,,,,,,,,,,,1,,,,,,,,,,,,,,,,,,,,,,,,,,,,,,,,,,,,,,,,,,,,,,124,150958,20,Female,1,2024/03/26_10:24:19,YZ,None,
,,,,,,calibration,0,1,2,788,11,J,0,right,1.54737269799989,1,0,,,,,,,,,,,,,,,,,,,,,1,,,,,,,,,,,,,,,,,,,,,,,,,,,,,,,,,,,,,,,,,,,,,,124,150958,20,Female,1,2024/03/26_10:24:19,YZ,None,
,,,,,,calibration,0,1,2,788,12,S,0,left,0.7474426170001607,0,0,,,,,,,,,,,,,,,,,,,,,1,,,,,,,,,,,,,,,,,,,,,,,,,,,,,,,,,,,,,,,,,,,,,,124,150958,20,Female,1,2024/03/26_10:24:19,YZ,None,
,,,,,,calibration,0,1,2,788,13,X,0,right,0.4547673309998572,1,0,,,,,,,,,,,,,,,,,,,,,1,,,,,,,,,,,,,,,,,,,,,,,,,,,,,,,,,,,,,,,,,,,,,,124,150958,20,Female,1,2024/03/26_10:24:19,YZ,None,
,,,,,,calibration,0,1,2,788,,,,,,,,0.625,0.5,0.3333333333333333,0.6666666666666666,0.0,0.6666666666666667,0.8459310690001215,2,3,0,0,0,6,8,4,9,0,,,,1,,,,,,,,,,,,,,,,,,,,,,,,,,,,,,,,,,,,,,,,,,,,,,124,150958,20,Female,1,2024/03/26_10:24:19,YZ,None,
,,,,,,Calibration,0,,2,788,,,,,,,,,,,,,,,,,,,,,,,,,12,,,1,,,,,,,,,,,,,,,,,,,,,,,,,,,,,,,,,,,,,,,,,,,,,,124,150958,20,Female,1,2024/03/26_10:24:19,YZ,None,
,,,,,,calibration,0,33,2,917,1,N,0,right,1.192223281999759,1,0,,,,,,,,,,,,,,,,,,,,,1,,,,,,,,,,,,,,,,,,,,,,,,,,,,,,,,,,,,,,,,,,,,,,124,150958,20,Female,1,2024/03/26_10:24:19,YZ,None,
,,,,,,calibration,0,33,2,917,2,N,0,right,0.8237430089993723,1,0,,,,,,,,,,,,,,,,,,,,,1,,,,,,,,,,,,,,,,,,,,,,,,,,,,,,,,,,,,,,,,,,,,,,124,150958,20,Female,1,2024/03/26_10:24:19,YZ,None,
,,,,,,calibration,0,33,2,917,3,X,0,right,0.6572280370000954,1,0,,,,,,,,,,,,,,,,,,,,,1,,,,,,,,,,,,,,,,,,,,,,,,,,,,,,,,,,,,,,,,,,,,,,124,150958,20,Female,1,2024/03/26_10:24:19,YZ,None,
,,,,,,calibration,0,33,2,917,4,J,0,right,0.7089540460001444,1,0,,,,,,,,,,,,,,,,,,,,,1,,,,,,,,,,,,,,,,,,,,,,,,,,,,,,,,,,,,,,,,,,,,,,124,150958,20,Female,1,2024/03/26_10:24:19,YZ,None,
,,,,,,calibration,0,33,2,917,5,N,0,right,0.8188515329993606,1,0,,,,,,,,,,,,,,,,,,,,,1,,,,,,,,,,,,,,,,,,,,,,,,,,,,,,,,,,,,,,,,,,,,,,124,150958,20,Female,1,2024/03/26_10:24:19,YZ,None,
,,,,,,calibration,0,33,2,917,6,F,0,right,0.7952422200005458,1,0,,,,,,,,,,,,,,,,,,,,,1,,,,,,,,,,,,,,,,,,,,,,,,,,,,,,,,,,,,,,,,,,,,,,124,150958,20,Female,1,2024/03/26_10:24:19,YZ,None,
,,,,,,calibration,0,33,2,917,7,N,1,right,0.8590684060000058,0,0,,,,,,,,,,,,,,,,,,,,,1,,,,,,,,,,,,,,,,,,,,,,,,,,,,,,,,,,,,,,,,,,,,,,124,150958,20,Female,1,2024/03/26_10:24:19,YZ,None,
,,,,,,calibration,0,33,2,917,8,F,1,right,nan,0,1,,,,,,,,,,,,,,,,,,,,,1,,,,,,,,,,,,,,,,,,,,,,,,,,,,,,,,,,,,,,,,,,,,,,124,150958,20,Female,1,2024/03/26_10:24:19,YZ,None,
,,,,,,calibration,0,33,2,917,9,Q,0,right,0.5469230449998577,1,0,,,,,,,,,,,,,,,,,,,,,1,,,,,,,,,,,,,,,,,,,,,,,,,,,,,,,,,,,,,,,,,,,,,,124,150958,20,Female,1,2024/03/26_10:24:19,YZ,None,
,,,,,,calibration,0,33,2,917,10,N,0,right,1.375456153000414,1,0,,,,,,,,,,,,,,,,,,,,,1,,,,,,,,,,,,,,,,,,,,,,,,,,,,,,,,,,,,,,,,,,,,,,124,150958,20,Female,1,2024/03/26_10:24:19,YZ,None,
,,,,,,calibration,0,33,2,917,11,Q,1,left,0.512566773000799,1,0,,,,,,,,,,,,,,,,,,,,,1,,,,,,,,,,,,,,,,,,,,,,,,,,,,,,,,,,,,,,,,,,,,,,124,150958,20,Female,1,2024/03/26_10:24:19,YZ,None,
,,,,,,calibration,0,33,2,917,12,S,0,right,0.8087927440001295,1,0,,,,,,,,,,,,,,,,,,,,,1,,,,,,,,,,,,,,,,,,,,,,,,,,,,,,,,,,,,,,,,,,,,,,124,150958,20,Female,1,2024/03/26_10:24:19,YZ,None,
,,,,,,calibration,0,33,2,917,,,,,,,,0.8333333333333334,0.3333333333333333,0.0,1.0,0.08333333333333333,0.9166666666666666,0.8271862952727712,1,0,1,0,1,9,10,3,9,0,,,,1,,,,,,,,,,,,,,,,,,,,,,,,,,,,,,,,,,,,,,,,,,,,,,124,150958,20,Female,1,2024/03/26_10:24:19,YZ,None,
,,,,,,Calibration,0,,2,917,,,,,,,,,,,,,,,,,,,,,,,,,13,,,1,,,,,,,,,,,,,,,,,,,,,,,,,,,,,,,,,,,,,,,,,,,,,,124,150958,20,Female,1,2024/03/26_10:24:19,YZ,None,
,,,,,,calibration,0,30,2,917,1,C,0,left,0.6999997080001776,0,0,,,,,,,,,,,,,,,,,,,,,1,,,,,,,,,,,,,,,,,,,,,,,,,,,,,,,,,,,,,,,,,,,,,,124,150958,20,Female,1,2024/03/26_10:24:19,YZ,None,
,,,,,,calibration,0,30,2,917,2,F,0,right,0.9906107740007428,1,0,,,,,,,,,,,,,,,,,,,,,1,,,,,,,,,,,,,,,,,,,,,,,,,,,,,,,,,,,,,,,,,,,,,,124,150958,20,Female,1,2024/03/26_10:24:19,YZ,None,
,,,,,,calibration,0,30,2,917,3,N,0,right,0.8236590669994257,1,0,,,,,,,,,,,,,,,,,,,,,1,,,,,,,,,,,,,,,,,,,,,,,,,,,,,,,,,,,,,,,,,,,,,,124,150958,20,Female,1,2024/03/26_10:24:19,YZ,None,
,,,,,,calibration,0,30,2,917,4,X,0,right,0.7421426939999947,1,0,,,,,,,,,,,,,,,,,,,,,1,,,,,,,,,,,,,,,,,,,,,,,,,,,,,,,,,,,,,,,,,,,,,,124,150958,20,Female,1,2024/03/26_10:24:19,YZ,None,
,,,,,,calibration,0,30,2,917,5,Q,0,right,0.6076854689999891,1,0,,,,,,,,,,,,,,,,,,,,,1,,,,,,,,,,,,,,,,,,,,,,,,,,,,,,,,,,,,,,,,,,,,,,124,150958,20,Female,1,2024/03/26_10:24:19,YZ,None,
,,,,,,calibration,0,30,2,917,6,F,0,left,0.7195432319995234,0,0,,,,,,,,,,,,,,,,,,,,,1,,,,,,,,,,,,,,,,,,,,,,,,,,,,,,,,,,,,,,,,,,,,,,124,150958,20,Female,1,2024/03/26_10:24:19,YZ,None,
,,,,,,calibration,0,30,2,917,7,Q,1,right,0.673525179000535,0,0,,,,,,,,,,,,,,,,,,,,,1,,,,,,,,,,,,,,,,,,,,,,,,,,,,,,,,,,,,,,,,,,,,,,124,150958,20,Female,1,2024/03/26_10:24:19,YZ,None,
,,,,,,calibration,0,30,2,917,8,F,1,left,0.7928114140004254,1,0,,,,,,,,,,,,,,,,,,,,,1,,,,,,,,,,,,,,,,,,,,,,,,,,,,,,,,,,,,,,,,,,,,,,124,150958,20,Female,1,2024/03/26_10:24:19,YZ,None,
,,,,,,calibration,0,30,2,917,9,C,0,right,0.8312192029998187,1,0,,,,,,,,,,,,,,,,,,,,,1,,,,,,,,,,,,,,,,,,,,,,,,,,,,,,,,,,,,,,,,,,,,,,124,150958,20,Female,1,2024/03/26_10:24:19,YZ,None,
,,,,,,calibration,0,30,2,917,10,V,0,left,0.7473651299997073,0,0,,,,,,,,,,,,,,,,,,,,,1,,,,,,,,,,,,,,,,,,,,,,,,,,,,,,,,,,,,,,,,,,,,,,124,150958,20,Female,1,2024/03/26_10:24:19,YZ,None,
,,,,,,calibration,0,30,2,917,11,C,1,right,0.6756805730001361,0,0,,,,,,,,,,,,,,,,,,,,,1,,,,,,,,,,,,,,,,,,,,,,,,,,,,,,,,,,,,,,,,,,,,,,124,150958,20,Female,1,2024/03/26_10:24:19,YZ,None,
,,,,,,calibration,0,30,2,917,12,J,0,right,0.9582892739999807,1,0,,,,,,,,,,,,,,,,,,,,,1,,,,,,,,,,,,,,,,,,,,,,,,,,,,,,,,,,,,,,,,,,,,,,124,150958,20,Female,1,2024/03/26_10:24:19,YZ,None,
,,,,,,calibration,0,30,2,917,,,,,,,,0.5,0.3333333333333333,0.3333333333333333,0.6666666666666666,0.0,0.6666666666666667,0.7718776430833714,1,3,0,0,0,6,7,3,9,0,,,,1,,,,,,,,,,,,,,,,,,,,,,,,,,,,,,,,,,,,,,,,,,,,,,124,150958,20,Female,1,2024/03/26_10:24:19,YZ,None,
,,,,,,Calibration,0,,2,917,,,,,,,,,,,,,,,,,,,,,,,,,14,,,1,,,,,,,,,,,,,,,,,,,,,,,,,,,,,,,,,,,,,,,,,,,,,,124,150958,20,Female,1,2024/03/26_10:24:19,YZ,None,
,,,,,,calibration,0,4,2,1068,1,S,0,left,1.0979173410005387,0,0,,,,,,,,,,,,,,,,,,,,,1,,,,,,,,,,,,,,,,,,,,,,,,,,,,,,,,,,,,,,,,,,,,,,124,150958,20,Female,1,2024/03/26_10:24:19,YZ,None,
,,,,,,calibration,0,4,2,1068,2,V,0,right,0.6352038040004118,1,0,,,,,,,,,,,,,,,,,,,,,1,,,,,,,,,,,,,,,,,,,,,,,,,,,,,,,,,,,,,,,,,,,,,,124,150958,20,Female,1,2024/03/26_10:24:19,YZ,None,
,,,,,,calibration,0,4,2,1068,3,S,1,right,1.2224225999998453,0,0,,,,,,,,,,,,,,,,,,,,,1,,,,,,,,,,,,,,,,,,,,,,,,,,,,,,,,,,,,,,,,,,,,,,124,150958,20,Female,1,2024/03/26_10:24:19,YZ,None,
,,,,,,calibration,0,4,2,1068,4,F,0,right,nan,0,1,,,,,,,,,,,,,,,,,,,,,1,,,,,,,,,,,,,,,,,,,,,,,,,,,,,,,,,,,,,,,,,,,,,,124,150958,20,Female,1,2024/03/26_10:24:19,YZ,None,
,,,,,,calibration,0,4,2,1068,5,J,0,right,0.741024140999798,1,0,,,,,,,,,,,,,,,,,,,,,1,,,,,,,,,,,,,,,,,,,,,,,,,,,,,,,,,,,,,,,,,,,,,,124,150958,20,Female,1,2024/03/26_10:24:19,YZ,None,
,,,,,,calibration,0,4,2,1068,6,C,0,right,0.739054403999944,1,0,,,,,,,,,,,,,,,,,,,,,1,,,,,,,,,,,,,,,,,,,,,,,,,,,,,,,,,,,,,,,,,,,,,,124,150958,20,Female,1,2024/03/26_10:24:19,YZ,None,
,,,,,,calibration,0,4,2,1068,7,S,0,right,1.074123729999883,1,0,,,,,,,,,,,,,,,,,,,,,1,,,,,,,,,,,,,,,,,,,,,,,,,,,,,,,,,,,,,,,,,,,,,,124,150958,20,Female,1,2024/03/26_10:24:19,YZ,None,
,,,,,,calibration,0,4,2,1068,8,C,1,right,1.3635222949997114,0,0,,,,,,,,,,,,,,,,,,,,,1,,,,,,,,,,,,,,,,,,,,,,,,,,,,,,,,,,,,,,,,,,,,,,124,150958,20,Female,1,2024/03/26_10:24:19,YZ,None,
,,,,,,calibration,0,4,2,1068,9,S,1,left,0.7470754249998208,1,0,,,,,,,,,,,,,,,,,,,,,1,,,,,,,,,,,,,,,,,,,,,,,,,,,,,,,,,,,,,,,,,,,,,,124,150958,20,Female,1,2024/03/26_10:24:19,YZ,None,
,,,,,,calibration,0,4,2,1068,10,F,0,right,0.8588365309997243,1,0,,,,,,,,,,,,,,,,,,,,,1,,,,,,,,,,,,,,,,,,,,,,,,,,,,,,,,,,,,,,,,,,,,,,124,150958,20,Female,1,2024/03/26_10:24:19,YZ,None,
,,,,,,calibration,0,4,2,1068,11,V,0,right,1.2696087200001784,1,0,,,,,,,,,,,,,,,,,,,,,1,,,,,,,,,,,,,,,,,,,,,,,,,,,,,,,,,,,,,,,,,,,,,,124,150958,20,Female,1,2024/03/26_10:24:19,YZ,None,
,,,,,,calibration,0,4,2,1068,,,,,,,,0.7083333333333334,0.3333333333333333,0.125,0.8571428571428571,0.09090909090909091,0.7840909090909091,0.9748788990999856,1,1,0,1,1,6,7,3,8,0,,,,1,,,,,,,,,,,,,,,,,,,,,,,,,,,,,,,,,,,,,,,,,,,,,,124,150958,20,Female,1,2024/03/26_10:24:19,YZ,None,
,,,,,,Calibration,0,,2,1068,,,,,,,,,,,,,,,,,,,,,,,,,15,,,1,,,,,,,,,,,,,,,,,,,,,,,,,,,,,,,,,,,,,,,,,,,,,,124,150958,20,Female,1,2024/03/26_10:24:19,YZ,None,
,,,,,,calibration,0,33,2,1250,1,X,0,right,0.6934030970005551,1,0,,,,,,,,,,,,,,,,,,,,,1,,,,,,,,,,,,,,,,,,,,,,,,,,,,,,,,,,,,,,,,,,,,,,124,150958,20,Female,1,2024/03/26_10:24:19,YZ,None,
,,,,,,calibration,0,33,2,1250,2,X,0,left,1.0928299679999327,0,0,,,,,,,,,,,,,,,,,,,,,1,,,,,,,,,,,,,,,,,,,,,,,,,,,,,,,,,,,,,,,,,,,,,,124,150958,20,Female,1,2024/03/26_10:24:19,YZ,None,
,,,,,,calibration,0,33,2,1250,3,X,1,left,0.9979818390002038,1,0,,,,,,,,,,,,,,,,,,,,,1,,,,,,,,,,,,,,,,,,,,,,,,,,,,,,,,,,,,,,,,,,,,,,124,150958,20,Female,1,2024/03/26_10:24:19,YZ,None,
,,,,,,calibration,0,33,2,1250,4,F,0,right,1.1231313550006234,1,0,,,,,,,,,,,,,,,,,,,,,1,,,,,,,,,,,,,,,,,,,,,,,,,,,,,,,,,,,,,,,,,,,,,,124,150958,20,Female,1,2024/03/26_10:24:19,YZ,None,
,,,,,,calibration,0,33,2,1250,5,C,0,left,0.9026508340002692,0,0,,,,,,,,,,,,,,,,,,,,,1,,,,,,,,,,,,,,,,,,,,,,,,,,,,,,,,,,,,,,,,,,,,,,124,150958,20,Female,1,2024/03/26_10:24:19,YZ,None,
,,,,,,calibration,0,33,2,1250,6,F,1,left,1.0200922079993688,1,0,,,,,,,,,,,,,,,,,,,,,1,,,,,,,,,,,,,,,,,,,,,,,,,,,,,,,,,,,,,,,,,,,,,,124,150958,20,Female,1,2024/03/26_10:24:19,YZ,None,
,,,,,,calibration,0,33,2,1250,7,S,0,right,1.1135514269999476,1,0,,,,,,,,,,,,,,,,,,,,,1,,,,,,,,,,,,,,,,,,,,,,,,,,,,,,,,,,,,,,,,,,,,,,124,150958,20,Female,1,2024/03/26_10:24:19,YZ,None,
,,,,,,calibration,0,33,2,1250,8,V,0,right,1.2325128769998628,1,0,,,,,,,,,,,,,,,,,,,,,1,,,,,,,,,,,,,,,,,,,,,,,,,,,,,,,,,,,,,,,,,,,,,,124,150958,20,Female,1,2024/03/26_10:24:19,YZ,None,
,,,,,,calibration,0,33,2,1250,9,S,1,right,0.5121582849997139,0,0,,,,,,,,,,,,,,,,,,,,,1,,,,,,,,,,,,,,,,,,,,,,,,,,,,,,,,,,,,,,,,,,,,,,124,150958,20,Female,1,2024/03/26_10:24:19,YZ,None,
,,,,,,calibration,0,33,2,1250,10,Q,0,right,0.6575018289995569,1,0,,,,,,,,,,,,,,,,,,,,,1,,,,,,,,,,,,,,,,,,,,,,,,,,,,,,,,,,,,,,,,,,,,,,124,150958,20,Female,1,2024/03/26_10:24:19,YZ,None,
,,,,,,calibration,0,33,2,1250,,,,,,,,0.75,0.6666666666666666,0.2857142857142857,0.7142857142857143,0.0,0.7142857142857143,0.9345813719000035,2,2,0,0,0,5,7,3,7,0,,,,1,,,,,,,,,,,,,,,,,,,,,,,,,,,,,,,,,,,,,,,,,,,,,,124,150958,20,Female,1,2024/03/26_10:24:19,YZ,None,
,,,,,,Calibration,0,,2,1250,,,,,,,,,,,,,,,,,,,,,,,,,16,,,1,,,,,,,,,,,,,,,,,,,,,,,,,,,,,,,,,,,,,,,,,,,,,,124,150958,20,Female,1,2024/03/26_10:24:19,YZ,None,
,,,,,,CALIBRATION,0,,,,,,,,,,,,,,,,,,,,,,,,,,,,16,0.75,1250,1,,,,,,,,,,,,,,,,,,,,,,,,,,,,,,,,,,,,,,,,,,,,,,124,150958,20,Female,1,2024/03/26_10:24:19,YZ,None,
-1,./instructions/inst_prac_1/Slide24.png,left,22.01267092299986,671.7759385509999,693.7886094739997,,,,,,,,,,,,,,,,,,,,,,,,,,,,,,,,,1,,,,,,,,,,,,,,,,,,,,,,,,,,,,,,,,,,,,,,,,,,,,,,124,150958,20,Female,1,2024/03/26_10:24:19,YZ,None,
-2,./instructions/inst_prac_1/Slide30.png,left,18.86682082200059,693.8178521419995,712.6846729640001,,,,,,,,,,,,,,,,,,,,,,,,,,,,,,,,,1,,,,,,,,,,,,,,,,,,,,,,,,,,,,,,,,,,,,,,,,,,,,,,124,150958,20,Female,1,2024/03/26_10:24:19,YZ,None,
-1,./instructions/inst_prac_1/Slide29.png,right,7.338625632000003,712.7139482709999,720.0525739029999,,,,,,,,,,,,,,,,,,,,,,,,,,,,,,,,,1,,,,,,,,,,,,,,,,,,,,,,,,,,,,,,,,,,,,,,,,,,,,,,124,150958,20,Female,1,2024/03/26_10:24:19,YZ,None,
0,./instructions/inst_prac_1/Slide30.png,right,2.30981667100059,720.0787015179994,722.388518189,,,,,,,,,,,,,,,,,,,,,,,,,,,,,,,,,1,,,,,,,,,,,,,,,,,,,,,,,,,,,,,,,,,,,,,,,,,,,,,,124,150958,20,Female,1,2024/03/26_10:24:19,YZ,None,
1,./instructions/inst_prac_1/Slide24.png,right,2.5661207980001564,722.4143997769997,724.9805205749999,,,,,,,,,,,,,,,,,,,,,,,,,,,,,,,,,1,,,,,,,,,,,,,,,,,,,,,,,,,,,,,,,,,,,,,,,,,,,,,,124,150958,20,Female,1,2024/03/26_10:24:19,YZ,None,
2,./instructions/inst_prac_1/Slide25.png,right,8.434760477000054,725.0097796769996,733.4445401539997,,,,,,,,,,,,,,,,,,,,,,,,,,,,,,,,,1,,,,,,,,,,,,,,,,,,,,,,,,,,,,,,,,,,,,,,,,,,,,,,124,150958,20,Female,1,2024/03/26_10:24:19,YZ,None,
3,./instructions/inst_prac_1/Slide26.png,right,1.98843953100004,733.4720333189998,735.4604728499999,,,,,,,,,,,,,,,,,,,,,,,,,,,,,,,,,1,,,,,,,,,,,,,,,,,,,,,,,,,,,,,,,,,,,,,,,,,,,,,,124,150958,20,Female,1,2024/03/26_10:24:19,YZ,None,
4,./instructions/inst_prac_1/Slide27.png,right,1.8756298890002654,735.4888884089996,737.3645182979999,,,,,,,,,,,,,,,,,,,,,,,,,,,,,,,,,1,,,,,,,,,,,,,,,,,,,,,,,,,,,,,,,,,,,,,,,,,,,,,,124,150958,20,Female,1,2024/03/26_10:24:19,YZ,None,
5,./instructions/inst_prac_1/Slide28.png,right,1.5014750299997104,737.3910062260002,738.8924812559999,,,,,,,,,,,,,,,,,,,,,,,,,,,,,,,,,1,,,,,,,,,,,,,,,,,,,,,,,,,,,,,,,,,,,,,,,,,,,,,,124,150958,20,Female,1,2024/03/26_10:24:19,YZ,None,
6,./instructions/inst_prac_1/Slide29.png,right,1.37936702099978,738.9212387979996,740.3006058189994,,,,,,,,,,,,,,,,,,,,,,,,,,,,,,,,,1,,,,,,,,,,,,,,,,,,,,,,,,,,,,,,,,,,,,,,,,,,,,,,124,150958,20,Female,1,2024/03/26_10:24:19,YZ,None,
7,./instructions/inst_prac_1/Slide30.png,right,1.5734419229993364,740.3271228200001,741.9005647429994,,,,,,,,,,,,,,,,,,,,,,,,,,,,,,,,,1,,,,,,,,,,,,,,,,,,,,,,,,,,,,,,,,,,,,,,,,,,,,,,124,150958,20,Female,1,2024/03/26_10:24:19,YZ,None,
,,,,,,practice,0,31,1,1250,1,F,0,right,2.5233984710002915,1,0,,,,,,,,,,,,,,,,,,,,,1,,,,,,,,,,,,,,,,,,,,,,,,,,,,,,,,,,,,,,,,,,,,,,124,150958,20,Female,1,2024/03/26_10:24:19,YZ,None,
,,,,,,practice,0,31,1,1250,2,F,1,left,0.9800027009996484,1,0,,,,,,,,,,,,,,,,,,,,,1,,,,,,,,,,,,,,,,,,,,,,,,,,,,,,,,,,,,,,,,,,,,,,124,150958,20,Female,1,2024/03/26_10:24:19,YZ,None,
,,,,,,practice,0,31,1,1250,3,Q,0,left,1.7482492620001722,0,0,,,,,,,,,,,,,,,,,,,,,1,,,,,,,,,,,,,,,,,,,,,,,,,,,,,,,,,,,,,,,,,,,,,,124,150958,20,Female,1,2024/03/26_10:24:19,YZ,None,
,,,,,,practice,0,31,1,1250,4,Q,1,right,2.4525670610000816,0,0,,,,,,,,,,,,,,,,,,,,,1,,,,,,,,,,,,,,,,,,,,,,,,,,,,,,,,,,,,,,,,,,,,,,124,150958,20,Female,1,2024/03/26_10:24:19,YZ,None,
,,,,,,practice,0,31,1,1250,5,N,0,left,2.9567584010001156,0,0,,,,,,,,,,,,,,,,,,,,,1,,,,,,,,,,,,,,,,,,,,,,,,,,,,,,,,,,,,,,,,,,,,,,124,150958,20,Female,1,2024/03/26_10:24:19,YZ,None,
,,,,,,practice,0,31,1,1250,6,X,0,right,1.2838587639998877,1,0,,,,,,,,,,,,,,,,,,,,,1,,,,,,,,,,,,,,,,,,,,,,,,,,,,,,,,,,,,,,,,,,,,,,124,150958,20,Female,1,2024/03/26_10:24:19,YZ,None,
,,,,,,practice,0,31,1,1250,7,N,0,right,1.3253509510004733,1,0,,,,,,,,,,,,,,,,,,,,,1,,,,,,,,,,,,,,,,,,,,,,,,,,,,,,,,,,,,,,,,,,,,,,124,150958,20,Female,1,2024/03/26_10:24:19,YZ,None,
,,,,,,practice,0,31,1,1250,8,J,0,right,1.0058380119999129,1,0,,,,,,,,,,,,,,,,,,,,,1,,,,,,,,,,,,,,,,,,,,,,,,,,,,,,,,,,,,,,,,,,,,,,124,150958,20,Female,1,2024/03/26_10:24:19,YZ,None,
,,,,,,practice,0,31,1,1250,9,J,1,left,0.9068465350001134,1,0,,,,,,,,,,,,,,,,,,,,,1,,,,,,,,,,,,,,,,,,,,,,,,,,,,,,,,,,,,,,,,,,,,,,124,150958,20,Female,1,2024/03/26_10:24:19,YZ,None,
,,,,,,practice,0,31,1,1250,10,Q,0,right,2.240821667000091,1,0,,,,,,,,,,,,,,,,,,,,,1,,,,,,,,,,,,,,,,,,,,,,,,,,,,,,,,,,,,,,,,,,,,,,124,150958,20,Female,1,2024/03/26_10:24:19,YZ,None,
,,,,,,practice,0,31,1,1250,,,,,,,,0.75,0.6666666666666666,0.2857142857142857,0.7142857142857143,0.0,0.7142857142857143,1.7423691825000787,2,2,0,0,0,5,7,3,7,0,,,,1,,,,,,,,,,,,,,,,,,,,,,,,,,,,,,,,,,,,,,,,,,,,,,124,150958,20,Female,1,2024/03/26_10:24:19,YZ,None,
1,./instructions/inst_prac_1_next/Slide35.png,right,3.6523220179997224,771.4000464259998,775.0523684439995,,,,,,,,,,,,,,,,,,,,,,,,,,,,,,,,,1,,,,,,,,,,,,,,,,,,,,,,,,,,,,,,,,,,,,,,,,,,,,,,124,150958,20,Female,1,2024/03/26_10:24:19,YZ,None,
,,,,,,practice,0,24,1,1250,1,J,0,right,1.5696238620002987,1,0,,,,,,,,,,,,,,,,,,,,,1,,,,,,,,,,,,,,,,,,,,,,,,,,,,,,,,,,,,,,,,,,,,,,124,150958,20,Female,1,2024/03/26_10:24:19,YZ,None,
,,,,,,practice,0,24,1,1250,2,J,1,right,1.640360891000455,0,0,,,,,,,,,,,,,,,,,,,,,1,,,,,,,,,,,,,,,,,,,,,,,,,,,,,,,,,,,,,,,,,,,,,,124,150958,20,Female,1,2024/03/26_10:24:19,YZ,None,
,,,,,,practice,0,24,1,1250,3,F,0,left,1.8965648060002422,0,0,,,,,,,,,,,,,,,,,,,,,1,,,,,,,,,,,,,,,,,,,,,,,,,,,,,,,,,,,,,,,,,,,,,,124,150958,20,Female,1,2024/03/26_10:24:19,YZ,None,
,,,,,,practice,0,24,1,1250,4,J,0,right,2.1522855599996547,1,0,,,,,,,,,,,,,,,,,,,,,1,,,,,,,,,,,,,,,,,,,,,,,,,,,,,,,,,,,,,,,,,,,,,,124,150958,20,Female,1,2024/03/26_10:24:19,YZ,None,
,,,,,,practice,0,24,1,1250,5,N,0,right,1.6322913960002552,1,0,,,,,,,,,,,,,,,,,,,,,1,,,,,,,,,,,,,,,,,,,,,,,,,,,,,,,,,,,,,,,,,,,,,,124,150958,20,Female,1,2024/03/26_10:24:19,YZ,None,
,,,,,,practice,0,24,1,1250,6,N,1,left,1.6578349110004638,1,0,,,,,,,,,,,,,,,,,,,,,1,,,,,,,,,,,,,,,,,,,,,,,,,,,,,,,,,,,,,,,,,,,,,,124,150958,20,Female,1,2024/03/26_10:24:19,YZ,None,
,,,,,,practice,0,24,1,1250,7,J,0,right,1.0170325120006964,1,0,,,,,,,,,,,,,,,,,,,,,1,,,,,,,,,,,,,,,,,,,,,,,,,,,,,,,,,,,,,,,,,,,,,,124,150958,20,Female,1,2024/03/26_10:24:19,YZ,None,
,,,,,,practice,0,24,1,1250,8,X,0,left,0.7431998329993803,0,0,,,,,,,,,,,,,,,,,,,,,1,,,,,,,,,,,,,,,,,,,,,,,,,,,,,,,,,,,,,,,,,,,,,,124,150958,20,Female,1,2024/03/26_10:24:19,YZ,None,
,,,,,,practice,0,24,1,1250,9,Q,0,left,2.544604886000343,0,0,,,,,,,,,,,,,,,,,,,,,1,,,,,,,,,,,,,,,,,,,,,,,,,,,,,,,,,,,,,,,,,,,,,,124,150958,20,Female,1,2024/03/26_10:24:19,YZ,None,
,,,,,,practice,0,24,1,1250,10,Q,1,left,0.89989984299973,1,0,,,,,,,,,,,,,,,,,,,,,1,,,,,,,,,,,,,,,,,,,,,,,,,,,,,,,,,,,,,,,,,,,,,,124,150958,20,Female,1,2024/03/26_10:24:19,YZ,None,
,,,,,,practice,0,24,1,1250,,,,,,,,0.6666666666666666,0.6666666666666666,0.42857142857142855,0.5714285714285714,0.0,0.5714285714285714,1.5753698500001518,2,3,0,0,0,4,6,3,7,0,,,,1,,,,,,,,,,,,,,,,,,,,,,,,,,,,,,,,,,,,,,,,,,,,,,124,150958,20,Female,1,2024/03/26_10:24:19,YZ,None,
,,,,,,practice,0,17,1,1250,1,X,0,right,0.8690960339999947,1,0,,,,,,,,,,,,,,,,,,,,,1,,,,,,,,,,,,,,,,,,,,,,,,,,,,,,,,,,,,,,,,,,,,,,124,150958,20,Female,1,2024/03/26_10:24:19,YZ,None,
,,,,,,practice,0,17,1,1250,2,V,0,right,1.8652632610001092,1,0,,,,,,,,,,,,,,,,,,,,,1,,,,,,,,,,,,,,,,,,,,,,,,,,,,,,,,,,,,,,,,,,,,,,124,150958,20,Female,1,2024/03/26_10:24:19,YZ,None,
,,,,,,practice,0,17,1,1250,3,F,0,right,0.770316610000009,1,0,,,,,,,,,,,,,,,,,,,,,1,,,,,,,,,,,,,,,,,,,,,,,,,,,,,,,,,,,,,,,,,,,,,,124,150958,20,Female,1,2024/03/26_10:24:19,YZ,None,
,,,,,,practice,0,17,1,1250,4,S,0,right,0.6204668259997561,1,0,,,,,,,,,,,,,,,,,,,,,1,,,,,,,,,,,,,,,,,,,,,,,,,,,,,,,,,,,,,,,,,,,,,,124,150958,20,Female,1,2024/03/26_10:24:19,YZ,None,
,,,,,,practice,0,17,1,1250,5,N,0,right,0.6924822989994937,1,0,,,,,,,,,,,,,,,,,,,,,1,,,,,,,,,,,,,,,,,,,,,,,,,,,,,,,,,,,,,,,,,,,,,,124,150958,20,Female,1,2024/03/26_10:24:19,YZ,None,
,,,,,,practice,0,17,1,1250,6,N,1,left,0.6522812329994849,1,0,,,,,,,,,,,,,,,,,,,,,1,,,,,,,,,,,,,,,,,,,,,,,,,,,,,,,,,,,,,,,,,,,,,,124,150958,20,Female,1,2024/03/26_10:24:19,YZ,None,
,,,,,,practice,0,17,1,1250,7,X,0,right,0.8414074859992979,1,0,,,,,,,,,,,,,,,,,,,,,1,,,,,,,,,,,,,,,,,,,,,,,,,,,,,,,,,,,,,,,,,,,,,,124,150958,20,Female,1,2024/03/26_10:24:19,YZ,None,
,,,,,,practice,0,17,1,1250,8,X,1,left,0.7514586830002372,1,0,,,,,,,,,,,,,,,,,,,,,1,,,,,,,,,,,,,,,,,,,,,,,,,,,,,,,,,,,,,,,,,,,,,,124,150958,20,Female,1,2024/03/26_10:24:19,YZ,None,
,,,,,,practice,0,17,1,1250,9,F,0,right,0.8208891809999841,1,0,,,,,,,,,,,,,,,,,,,,,1,,,,,,,,,,,,,,,,,,,,,,,,,,,,,,,,,,,,,,,,,,,,,,124,150958,20,Female,1,2024/03/26_10:24:19,YZ,None,
,,,,,,practice,0,17,1,1250,10,F,1,left,0.7053801490001206,1,0,,,,,,,,,,,,,,,,,,,,,1,,,,,,,,,,,,,,,,,,,,,,,,,,,,,,,,,,,,,,,,,,,,,,124,150958,20,Female,1,2024/03/26_10:24:19,YZ,None,
,,,,,,practice,0,17,1,1250,,,,,,,,1.0,1.0,0.0,1.0,0.0,1.0,0.8589041761998487,3,0,0,0,0,7,10,3,7,0,,,,1,,,,,,,,,,,,,,,,,,,,,,,,,,,,,,,,,,,,,,,,,,,,,,124,150958,20,Female,1,2024/03/26_10:24:19,YZ,None,
-1,./instructions/inst_prac_3/Slide37.png,left,10.233508919000087,813.9950806010002,824.2285895200002,,,,,,,,,,,,,,,,,,,,,,,,,,,,,,,,,1,,,,,,,,,,,,,,,,,,,,,,,,,,,,,,,,,,,,,,,,,,,,,,124,150958,20,Female,1,2024/03/26_10:24:19,YZ,None,
0,./instructions/inst_prac_3/Slide44.png,right,2.0408534930002133,824.2518863859996,826.2927398789998,,,,,,,,,,,,,,,,,,,,,,,,,,,,,,,,,1,,,,,,,,,,,,,,,,,,,,,,,,,,,,,,,,,,,,,,,,,,,,,,124,150958,20,Female,1,2024/03/26_10:24:19,YZ,None,
1,./instructions/inst_prac_3/Slide37.png,right,2.5710007709994898,826.3215484840002,828.8925492549997,,,,,,,,,,,,,,,,,,,,,,,,,,,,,,,,,1,,,,,,,,,,,,,,,,,,,,,,,,,,,,,,,,,,,,,,,,,,,,,,124,150958,20,Female,1,2024/03/26_10:24:19,YZ,None,
2,./instructions/inst_prac_3/Slide38.png,right,7.395057551999344,828.9212426220001,836.3163001739995,,,,,,,,,,,,,,,,,,,,,,,,,,,,,,,,,1,,,,,,,,,,,,,,,,,,,,,,,,,,,,,,,,,,,,,,,,,,,,,,124,150958,20,Female,1,2024/03/26_10:24:19,YZ,None,
3,./instructions/inst_prac_3/Slide39.png,right,6.907299276000231,836.3452262219998,843.2525254980001,,,,,,,,,,,,,,,,,,,,,,,,,,,,,,,,,1,,,,,,,,,,,,,,,,,,,,,,,,,,,,,,,,,,,,,,,,,,,,,,124,150958,20,Female,1,2024/03/26_10:24:19,YZ,None,
4,./instructions/inst_prac_3/Slide40.png,right,1.9715336259996548,843.280978756,845.2525123819996,,,,,,,,,,,,,,,,,,,,,,,,,,,,,,,,,1,,,,,,,,,,,,,,,,,,,,,,,,,,,,,,,,,,,,,,,,,,,,,,124,150958,20,Female,1,2024/03/26_10:24:19,YZ,None,
5,./instructions/inst_prac_3/Slide41.png,right,4.274901686000703,845.2815895369995,849.5564912230002,,,,,,,,,,,,,,,,,,,,,,,,,,,,,,,,,1,,,,,,,,,,,,,,,,,,,,,,,,,,,,,,,,,,,,,,,,,,,,,,124,150958,20,Female,1,2024/03/26_10:24:19,YZ,None,
6,./instructions/inst_prac_3/Slide42.png,right,1.4991229170000224,849.5854513509994,851.0845742679994,,,,,,,,,,,,,,,,,,,,,,,,,,,,,,,,,1,,,,,,,,,,,,,,,,,,,,,,,,,,,,,,,,,,,,,,,,,,,,,,124,150958,20,Female,1,2024/03/26_10:24:19,YZ,None,
7,./instructions/inst_prac_3/Slide43.png,right,1.0189602059999743,851.1134868979998,852.1324471039998,,,,,,,,,,,,,,,,,,,,,,,,,,,,,,,,,1,,,,,,,,,,,,,,,,,,,,,,,,,,,,,,,,,,,,,,,,,,,,,,124,150958,20,Female,1,2024/03/26_10:24:19,YZ,None,
8,./instructions/inst_prac_3/Slide44.png,right,0.8779387430004135,852.1584940349994,853.0364327779998,,,,,,,,,,,,,,,,,,,,,,,,,,,,,,,,,1,,,,,,,,,,,,,,,,,,,,,,,,,,,,,,,,,,,,,,,,,,,,,,124,150958,20,Female,1,2024/03/26_10:24:19,YZ,None,
,,,,,,practice,0,35,3,788,1,J,0,right,1.41517558599935,1,0,,,,,,,,,,,,,,,,,,,,,1,,,,,,,,,,,,,,,,,,,,,,,,,,,,,,,,,,,,,,,,,,,,,,124,150958,20,Female,1,2024/03/26_10:24:19,YZ,None,
,,,,,,practice,0,35,3,788,2,J,0,right,1.0788374180001483,1,0,,,,,,,,,,,,,,,,,,,,,1,,,,,,,,,,,,,,,,,,,,,,,,,,,,,,,,,,,,,,,,,,,,,,124,150958,20,Female,1,2024/03/26_10:24:19,YZ,None,
,,,,,,practice,0,35,3,788,3,V,0,right,0.9330688840000221,1,0,,,,,,,,,,,,,,,,,,,,,1,,,,,,,,,,,,,,,,,,,,,,,,,,,,,,,,,,,,,,,,,,,,,,124,150958,20,Female,1,2024/03/26_10:24:19,YZ,None,
,,,,,,practice,0,35,3,788,4,V,0,left,2.6607486450002398,0,0,,,,,,,,,,,,,,,,,,,,,1,,,,,,,,,,,,,,,,,,,,,,,,,,,,,,,,,,,,,,,,,,,,,,124,150958,20,Female,1,2024/03/26_10:24:19,YZ,None,
,,,,,,practice,0,35,3,788,5,X,0,right,0.8393625059998158,1,0,,,,,,,,,,,,,,,,,,,,,1,,,,,,,,,,,,,,,,,,,,,,,,,,,,,,,,,,,,,,,,,,,,,,124,150958,20,Female,1,2024/03/26_10:24:19,YZ,None,
,,,,,,practice,0,35,3,788,6,V,1,left,1.6540834799998265,1,0,,,,,,,,,,,,,,,,,,,,,1,,,,,,,,,,,,,,,,,,,,,,,,,,,,,,,,,,,,,,,,,,,,,,124,150958,20,Female,1,2024/03/26_10:24:19,YZ,None,
,,,,,,practice,0,35,3,788,7,V,1,left,0.9566548530001455,1,0,,,,,,,,,,,,,,,,,,,,,1,,,,,,,,,,,,,,,,,,,,,,,,,,,,,,,,,,,,,,,,,,,,,,124,150958,20,Female,1,2024/03/26_10:24:19,YZ,None,
,,,,,,practice,0,35,3,788,8,S,0,right,1.1242577729999539,1,0,,,,,,,,,,,,,,,,,,,,,1,,,,,,,,,,,,,,,,,,,,,,,,,,,,,,,,,,,,,,,,,,,,,,124,150958,20,Female,1,2024/03/26_10:24:19,YZ,None,
,,,,,,practice,0,35,3,788,9,V,1,left,0.9743868660007138,1,0,,,,,,,,,,,,,,,,,,,,,1,,,,,,,,,,,,,,,,,,,,,,,,,,,,,,,,,,,,,,,,,,,,,,124,150958,20,Female,1,2024/03/26_10:24:19,YZ,None,
,,,,,,practice,0,35,3,788,10,J,0,right,0.9323474620005072,1,0,,,,,,,,,,,,,,,,,,,,,1,,,,,,,,,,,,,,,,,,,,,,,,,,,,,,,,,,,,,,,,,,,,,,124,150958,20,Female,1,2024/03/26_10:24:19,YZ,None,
,,,,,,practice,0,35,3,788,11,S,1,left,0.8563150179998047,1,0,,,,,,,,,,,,,,,,,,,,,1,,,,,,,,,,,,,,,,,,,,,,,,,,,,,,,,,,,,,,,,,,,,,,124,150958,20,Female,1,2024/03/26_10:24:19,YZ,None,
,,,,,,practice,0,35,3,788,12,N,0,right,1.0703242760000649,1,0,,,,,,,,,,,,,,,,,,,,,1,,,,,,,,,,,,,,,,,,,,,,,,,,,,,,,,,,,,,,,,,,,,,,124,150958,20,Female,1,2024/03/26_10:24:19,YZ,None,
,,,,,,practice,0,35,3,788,13,Q,0,right,1.292919635000544,1,0,,,,,,,,,,,,,,,,,,,,,1,,,,,,,,,,,,,,,,,,,,,,,,,,,,,,,,,,,,,,,,,,,,,,124,150958,20,Female,1,2024/03/26_10:24:19,YZ,None,
,,,,,,practice,0,35,3,788,,,,,,,,0.9722222222222222,1.0,0.1111111111111111,0.8888888888888888,0.0,0.8888888888888888,1.2144986463077798,4,1,0,0,0,8,12,4,9,0,,,,1,,,,,,,,,,,,,,,,,,,,,,,,,,,,,,,,,,,,,,,,,,,,,,124,150958,20,Female,1,2024/03/26_10:24:19,YZ,None,
1,./instructions/inst_prac_3_next/Slide49.png,right,3.978191870000046,883.0103064750001,886.9884983450002,,,,,,,,,,,,,,,,,,,,,,,,,,,,,,,,,1,,,,,,,,,,,,,,,,,,,,,,,,,,,,,,,,,,,,,,,,,,,,,,124,150958,20,Female,1,2024/03/26_10:24:19,YZ,None,
,,,,,,practice,0,35,3,1250,1,F,0,right,1.1954587430000174,1,0,,,,,,,,,,,,,,,,,,,,,1,,,,,,,,,,,,,,,,,,,,,,,,,,,,,,,,,,,,,,,,,,,,,,124,150958,20,Female,1,2024/03/26_10:24:19,YZ,None,
,,,,,,practice,0,35,3,1250,2,X,0,right,1.0122412270002314,1,0,,,,,,,,,,,,,,,,,,,,,1,,,,,,,,,,,,,,,,,,,,,,,,,,,,,,,,,,,,,,,,,,,,,,124,150958,20,Female,1,2024/03/26_10:24:19,YZ,None,
,,,,,,practice,0,35,3,1250,3,S,0,right,0.6673136680001335,1,0,,,,,,,,,,,,,,,,,,,,,1,,,,,,,,,,,,,,,,,,,,,,,,,,,,,,,,,,,,,,,,,,,,,,124,150958,20,Female,1,2024/03/26_10:24:19,YZ,None,
,,,,,,practice,0,35,3,1250,4,F,1,left,0.845293376999507,1,0,,,,,,,,,,,,,,,,,,,,,1,,,,,,,,,,,,,,,,,,,,,,,,,,,,,,,,,,,,,,,,,,,,,,124,150958,20,Female,1,2024/03/26_10:24:19,YZ,None,
,,,,,,practice,0,35,3,1250,5,F,0,left,2.1133770349997576,0,0,,,,,,,,,,,,,,,,,,,,,1,,,,,,,,,,,,,,,,,,,,,,,,,,,,,,,,,,,,,,,,,,,,,,124,150958,20,Female,1,2024/03/26_10:24:19,YZ,None,
,,,,,,practice,0,35,3,1250,6,Q,0,right,1.6602690479994635,1,0,,,,,,,,,,,,,,,,,,,,,1,,,,,,,,,,,,,,,,,,,,,,,,,,,,,,,,,,,,,,,,,,,,,,124,150958,20,Female,1,2024/03/26_10:24:19,YZ,None,
,,,,,,practice,0,35,3,1250,7,Q,0,right,0.6683509629992841,1,0,,,,,,,,,,,,,,,,,,,,,1,,,,,,,,,,,,,,,,,,,,,,,,,,,,,,,,,,,,,,,,,,,,,,124,150958,20,Female,1,2024/03/26_10:24:19,YZ,None,
,,,,,,practice,0,35,3,1250,8,F,1,right,0.736346057999981,0,0,,,,,,,,,,,,,,,,,,,,,1,,,,,,,,,,,,,,,,,,,,,,,,,,,,,,,,,,,,,,,,,,,,,,124,150958,20,Female,1,2024/03/26_10:24:19,YZ,None,
,,,,,,practice,0,35,3,1250,9,N,0,right,1.0454167840007358,1,0,,,,,,,,,,,,,,,,,,,,,1,,,,,,,,,,,,,,,,,,,,,,,,,,,,,,,,,,,,,,,,,,,,,,124,150958,20,Female,1,2024/03/26_10:24:19,YZ,None,
,,,,,,practice,0,35,3,1250,10,Q,1,right,2.144988132000435,0,0,,,,,,,,,,,,,,,,,,,,,1,,,,,,,,,,,,,,,,,,,,,,,,,,,,,,,,,,,,,,,,,,,,,,124,150958,20,Female,1,2024/03/26_10:24:19,YZ,None,
,,,,,,practice,0,35,3,1250,,,,,,,,0.6904761904761906,0.3333333333333333,0.14285714285714285,0.8571428571428571,0.0,0.8571428571428572,1.2089055034999547,1,1,0,0,0,6,7,3,7,0,,,,1,,,,,,,,,,,,,,,,,,,,,,,,,,,,,,,,,,,,,,,,,,,,,,124,150958,20,Female,1,2024/03/26_10:24:19,YZ,None,
,,,,,,practice,0,25,3,1250,1,C,0,right,0.7568764650004596,1,0,,,,,,,,,,,,,,,,,,,,,1,,,,,,,,,,,,,,,,,,,,,,,,,,,,,,,,,,,,,,,,,,,,,,124,150958,20,Female,1,2024/03/26_10:24:19,YZ,None,
,,,,,,practice,0,25,3,1250,2,X,0,right,0.8327022519997627,1,0,,,,,,,,,,,,,,,,,,,,,1,,,,,,,,,,,,,,,,,,,,,,,,,,,,,,,,,,,,,,,,,,,,,,124,150958,20,Female,1,2024/03/26_10:24:19,YZ,None,
,,,,,,practice,0,25,3,1250,3,S,0,right,0.4139690910005811,1,0,,,,,,,,,,,,,,,,,,,,,1,,,,,,,,,,,,,,,,,,,,,,,,,,,,,,,,,,,,,,,,,,,,,,124,150958,20,Female,1,2024/03/26_10:24:19,YZ,None,
,,,,,,practice,0,25,3,1250,4,Q,0,right,0.7993609450004442,1,0,,,,,,,,,,,,,,,,,,,,,1,,,,,,,,,,,,,,,,,,,,,,,,,,,,,,,,,,,,,,,,,,,,,,124,150958,20,Female,1,2024/03/26_10:24:19,YZ,None,
,,,,,,practice,0,25,3,1250,5,X,1,right,1.1805939139994734,0,0,,,,,,,,,,,,,,,,,,,,,1,,,,,,,,,,,,,,,,,,,,,,,,,,,,,,,,,,,,,,,,,,,,,,124,150958,20,Female,1,2024/03/26_10:24:19,YZ,None,
,,,,,,practice,0,25,3,1250,6,X,0,right,1.050719377999485,1,0,,,,,,,,,,,,,,,,,,,,,1,,,,,,,,,,,,,,,,,,,,,,,,,,,,,,,,,,,,,,,,,,,,,,124,150958,20,Female,1,2024/03/26_10:24:19,YZ,None,
,,,,,,practice,0,25,3,1250,7,Q,1,left,1.7357151900005192,1,0,,,,,,,,,,,,,,,,,,,,,1,,,,,,,,,,,,,,,,,,,,,,,,,,,,,,,,,,,,,,,,,,,,,,124,150958,20,Female,1,2024/03/26_10:24:19,YZ,None,
,,,,,,practice,0,25,3,1250,8,S,0,right,1.1195809690007081,1,0,,,,,,,,,,,,,,,,,,,,,1,,,,,,,,,,,,,,,,,,,,,,,,,,,,,,,,,,,,,,,,,,,,,,124,150958,20,Female,1,2024/03/26_10:24:19,YZ,None,
,,,,,,practice,0,25,3,1250,9,X,1,right,1.7779472299998815,0,0,,,,,,,,,,,,,,,,,,,,,1,,,,,,,,,,,,,,,,,,,,,,,,,,,,,,,,,,,,,,,,,,,,,,124,150958,20,Female,1,2024/03/26_10:24:19,YZ,None,
,,,,,,practice,0,25,3,1250,10,S,0,right,0.5280096360002062,1,0,,,,,,,,,,,,,,,,,,,,,1,,,,,,,,,,,,,,,,,,,,,,,,,,,,,,,,,,,,,,,,,,,,,,124,150958,20,Female,1,2024/03/26_10:24:19,YZ,None,
,,,,,,practice,0,25,3,1250,,,,,,,,0.8333333333333334,0.3333333333333333,0.0,1.0,0.0,1.0,1.019547507000152,1,0,0,0,0,7,8,3,7,0,,,,1,,,,,,,,,,,,,,,,,,,,,,,,,,,,,,,,,,,,,,,,,,,,,,124,150958,20,Female,1,2024/03/26_10:24:19,YZ,None,
1,./instructions/inst_prac_main/Slide51.png,right,2.2143586309994134,923.8543016160002,926.0686602469996,,,,,,,,,,,,,,,,,,,,,,,,,,,,,,,,,1,,,,,,,,,,,,,,,,,,,,,,,,,,,,,,,,,,,,,,,,,,,,,,124,150958,20,Female,1,2024/03/26_10:24:19,YZ,None,
2,./instructions/inst_prac_main/Slide52.png,right,8.957451726999352,926.0949490000003,935.0524007269996,,,,,,,,,,,,,,,,,,,,,,,,,,,,,,,,,1,,,,,,,,,,,,,,,,,,,,,,,,,,,,,,,,,,,,,,,,,,,,,,124,150958,20,Female,1,2024/03/26_10:24:19,YZ,None,
3,./instructions/inst_prac_main/Slide53.png,right,9.067254456999763,935.0812348999998,944.1484893569996,,,,,,,,,,,,,,,,,,,,,,,,,,,,,,,,,1,,,,,,,,,,,,,,,,,,,,,,,,,,,,,,,,,,,,,,,,,,,,,,124,150958,20,Female,1,2024/03/26_10:24:19,YZ,None,
2,./instructions/inst_prac_main/Slide54.png,left,11.245794424999985,944.1749641380002,955.4207585630002,,,,,,,,,,,,,,,,,,,,,,,,,,,,,,,,,1,,,,,,,,,,,,,,,,,,,,,,,,,,,,,,,,,,,,,,,,,,,,,,124,150958,20,Female,1,2024/03/26_10:24:19,YZ,None,
1,./instructions/inst_prac_main/Slide53.png,left,3.531434833000276,955.4492245949996,958.9806594279999,,,,,,,,,,,,,,,,,,,,,,,,,,,,,,,,,1,,,,,,,,,,,,,,,,,,,,,,,,,,,,,,,,,,,,,,,,,,,,,,124,150958,20,Female,1,2024/03/26_10:24:19,YZ,None,
0,./instructions/inst_prac_main/Slide52.png,left,2.4333504920005,959.0032184949996,961.4365689870001,,,,,,,,,,,,,,,,,,,,,,,,,,,,,,,,,1,,,,,,,,,,,,,,,,,,,,,,,,,,,,,,,,,,,,,,,,,,,,,,124,150958,20,Female,1,2024/03/26_10:24:19,YZ,None,
-1,./instructions/inst_prac_main/Slide51.png,left,2.092655104000187,961.4557971509994,963.5484522549996,,,,,,,,,,,,,,,,,,,,,,,,,,,,,,,,,1,,,,,,,,,,,,,,,,,,,,,,,,,,,,,,,,,,,,,,,,,,,,,,124,150958,20,Female,1,2024/03/26_10:24:19,YZ,None,
-2,./instructions/inst_prac_main/Slide54.png,left,3.2019921009996324,963.5707951479999,966.7727872489995,,,,,,,,,,,,,,,,,,,,,,,,,,,,,,,,,1,,,,,,,,,,,,,,,,,,,,,,,,,,,,,,,,,,,,,,,,,,,,,,124,150958,20,Female,1,2024/03/26_10:24:19,YZ,None,
-3,./instructions/inst_prac_main/Slide53.png,left,1.5693511350000335,966.7954734529994,968.3648245879995,,,,,,,,,,,,,,,,,,,,,,,,,,,,,,,,,1,,,,,,,,,,,,,,,,,,,,,,,,,,,,,,,,,,,,,,,,,,,,,,124,150958,20,Female,1,2024/03/26_10:24:19,YZ,None,
-4,./instructions/inst_prac_main/Slide52.png,left,0.2004101559996343,968.3921559629998,968.5925661189995,,,,,,,,,,,,,,,,,,,,,,,,,,,,,,,,,1,,,,,,,,,,,,,,,,,,,,,,,,,,,,,,,,,,,,,,,,,,,,,,124,150958,20,Female,1,2024/03/26_10:24:19,YZ,None,
,,,,,,practice_main,0,1,3,1250,1,C,0,right,0.8260901730000114,1,0,,,,,,,,,,,,,,,,,,,,,1,,,,,,,,,,,,,,,,,,,,,,,,,,,,,,,,,,,,,,,,,,,,,,124,150958,20,Female,1,2024/03/26_10:24:19,YZ,None,
,,,,,,practice_main,0,1,3,1250,2,F,0,right,0.43085096000049816,1,0,,,,,,,,,,,,,,,,,,,,,1,,,,,,,,,,,,,,,,,,,,,,,,,,,,,,,,,,,,,,,,,,,,,,124,150958,20,Female,1,2024/03/26_10:24:19,YZ,None,
,,,,,,practice_main,0,1,3,1250,3,J,0,right,0.5178475490001802,1,0,,,,,,,,,,,,,,,,,,,,,1,,,,,,,,,,,,,,,,,,,,,,,,,,,,,,,,,,,,,,,,,,,,,,124,150958,20,Female,1,2024/03/26_10:24:19,YZ,None,
,,,,,,practice_main,0,1,3,1250,4,C,1,right,0.3235472739997931,0,0,,,,,,,,,,,,,,,,,,,,,1,,,,,,,,,,,,,,,,,,,,,,,,,,,,,,,,,,,,,,,,,,,,,,124,150958,20,Female,1,2024/03/26_10:24:19,YZ,None,
,,,,,,practice_main,0,1,3,1250,5,V,0,left,1.0932890120002412,0,0,,,,,,,,,,,,,,,,,,,,,1,,,,,,,,,,,,,,,,,,,,,,,,,,,,,,,,,,,,,,,,,,,,,,124,150958,20,Female,1,2024/03/26_10:24:19,YZ,None,
,,,,,,practice_main,0,1,3,1250,6,N,0,right,0.7579470700002275,1,0,,,,,,,,,,,,,,,,,,,,,1,,,,,,,,,,,,,,,,,,,,,,,,,,,,,,,,,,,,,,,,,,,,,,124,150958,20,Female,1,2024/03/26_10:24:19,YZ,None,
,,,,,,practice_main,0,1,3,1250,7,C,1,right,0.37987479000003077,0,0,,,,,,,,,,,,,,,,,,,,,1,,,,,,,,,,,,,,,,,,,,,,,,,,,,,,,,,,,,,,,,,,,,,,124,150958,20,Female,1,2024/03/26_10:24:19,YZ,None,
,,,,,,practice_main,0,1,3,1250,8,C,0,right,0.2687388849999479,1,0,,,,,,,,,,,,,,,,,,,,,1,,,,,,,,,,,,,,,,,,,,,,,,,,,,,,,,,,,,,,,,,,,,,,124,150958,20,Female,1,2024/03/26_10:24:19,YZ,None,
,,,,,,practice_main,0,1,3,1250,9,X,0,right,0.3751582409995535,1,0,,,,,,,,,,,,,,,,,,,,,1,,,,,,,,,,,,,,,,,,,,,,,,,,,,,,,,,,,,,,,,,,,,,,124,150958,20,Female,1,2024/03/26_10:24:19,YZ,None,
,,,,,,practice_main,0,1,3,1250,10,C,1,right,0.4175451699993573,0,0,,,,,,,,,,,,,,,,,,,,,1,,,,,,,,,,,,,,,,,,,,,,,,,,,,,,,,,,,,,,,,,,,,,,124,150958,20,Female,1,2024/03/26_10:24:19,YZ,None,
,,,,,,practice_main,0,1,3,1250,,,,,,,,0.2142857142857143,0.0,0.14285714285714285,0.8571428571428571,0.0,0.8571428571428572,0.5390889123999841,0,1,0,0,0,6,6,3,7,0,,,,1,,,,,,,,,,,,,,,,,,,,,,,,,,,,,,,,,,,,,,,,,,,,,,124,150958,20,Female,1,2024/03/26_10:24:19,YZ,None,
,,,,,240326_110121,PRACTICE,0,1,3,1250,,,,,,,,,,,,,,,,,,,,,,,,,,,,1,37,1,1,cue1.png,hard,B,61,1.319794408999769,0,971.6552074270003,973.0043513769997,,,,,,,,,,,,,,,,,,,,,,,,,,,,,,,,,,,124,150958,20,Female,1,2024/03/26_10:24:19,YZ,None,
,,,,,,practice_main,0,2,1,1250,1,N,0,None,nan,0,1,,,,,,,,,,,,,,,,,,,,,1,,,,,,,,,,,,,,,,,,,,,,,,,,,,,,,,,,,,,,,,,,,,,,124,150958,20,Female,1,2024/03/26_10:24:19,YZ,None,
,,,,,,practice_main,0,2,1,1250,2,N,1,left,1.1487240780006687,1,0,,,,,,,,,,,,,,,,,,,,,1,,,,,,,,,,,,,,,,,,,,,,,,,,,,,,,,,,,,,,,,,,,,,,124,150958,20,Female,1,2024/03/26_10:24:19,YZ,None,
,,,,,,practice_main,0,2,1,1250,3,J,0,right,0.9646606899996186,1,0,,,,,,,,,,,,,,,,,,,,,1,,,,,,,,,,,,,,,,,,,,,,,,,,,,,,,,,,,,,,,,,,,,,,124,150958,20,Female,1,2024/03/26_10:24:19,YZ,None,
,,,,,,practice_main,0,2,1,1250,4,N,0,right,0.9476896520000082,1,0,,,,,,,,,,,,,,,,,,,,,1,,,,,,,,,,,,,,,,,,,,,,,,,,,,,,,,,,,,,,,,,,,,,,124,150958,20,Female,1,2024/03/26_10:24:19,YZ,None,
,,,,,,practice_main,0,2,1,1250,5,F,0,right,0.8823425800001132,1,0,,,,,,,,,,,,,,,,,,,,,1,,,,,,,,,,,,,,,,,,,,,,,,,,,,,,,,,,,,,,,,,,,,,,124,150958,20,Female,1,2024/03/26_10:24:19,YZ,None,
,,,,,,practice_main,0,2,1,1250,6,F,1,left,0.8482223490000251,1,0,,,,,,,,,,,,,,,,,,,,,1,,,,,,,,,,,,,,,,,,,,,,,,,,,,,,,,,,,,,,,,,,,,,,124,150958,20,Female,1,2024/03/26_10:24:19,YZ,None,
,,,,,,practice_main,0,2,1,1250,7,N,0,right,0.9310206460004338,1,0,,,,,,,,,,,,,,,,,,,,,1,,,,,,,,,,,,,,,,,,,,,,,,,,,,,,,,,,,,,,,,,,,,,,124,150958,20,Female,1,2024/03/26_10:24:19,YZ,None,
,,,,,,practice_main,0,2,1,1250,8,N,1,left,0.9097984340005496,1,0,,,,,,,,,,,,,,,,,,,,,1,,,,,,,,,,,,,,,,,,,,,,,,,,,,,,,,,,,,,,,,,,,,,,124,150958,20,Female,1,2024/03/26_10:24:19,YZ,None,
,,,,,,practice_main,0,2,1,1250,9,J,0,right,1.0695397170002252,1,0,,,,,,,,,,,,,,,,,,,,,1,,,,,,,,,,,,,,,,,,,,,,,,,,,,,,,,,,,,,,,,,,,,,,124,150958,20,Female,1,2024/03/26_10:24:19,YZ,None,
,,,,,,practice_main,0,2,1,1250,10,S,0,right,1.3356956799998443,1,0,,,,,,,,,,,,,,,,,,,,,1,,,,,,,,,,,,,,,,,,,,,,,,,,,,,,,,,,,,,,,,,,,,,,124,150958,20,Female,1,2024/03/26_10:24:19,YZ,None,
,,,,,,practice_main,0,2,1,1250,,,,,,,,1.0,1.0,0.0,1.0,0.1,0.9,1.004188202889054,3,0,0,1,1,6,9,3,7,0,,,,1,,,,,,,,,,,,,,,,,,,,,,,,,,,,,,,,,,,,,,,,,,,,,,124,150958,20,Female,1,2024/03/26_10:24:19,YZ,None,
,,,,,240326_110149,PRACTICE,0,2,1,1250,,,,,,,,,,,,,,,,,,,,,,,,,,,,1,3,2,2,cue2.png,easy,B,24,2.435355499999787,0,992.7636825339996,995.2153973449995,,,,,,,,,,,,,,,,,,,,,,,,,,,,,,,,,,,124,150958,20,Female,1,2024/03/26_10:24:19,YZ,None,
,,,,,,practice_main,0,3,1,1250,1,N,0,right,0.6992579679999835,1,0,,,,,,,,,,,,,,,,,,,,,1,,,,,,,,,,,,,,,,,,,,,,,,,,,,,,,,,,,,,,,,,,,,,,124,150958,20,Female,1,2024/03/26_10:24:19,YZ,None,
,,,,,,practice_main,0,3,1,1250,2,N,1,left,0.8751360340002066,1,0,,,,,,,,,,,,,,,,,,,,,1,,,,,,,,,,,,,,,,,,,,,,,,,,,,,,,,,,,,,,,,,,,,,,124,150958,20,Female,1,2024/03/26_10:24:19,YZ,None,
,,,,,,practice_main,0,3,1,1250,3,X,0,right,0.6536594059998606,1,0,,,,,,,,,,,,,,,,,,,,,1,,,,,,,,,,,,,,,,,,,,,,,,,,,,,,,,,,,,,,,,,,,,,,124,150958,20,Female,1,2024/03/26_10:24:19,YZ,None,
,,,,,,practice_main,0,3,1,1250,4,J,0,right,0.4951091210004961,1,0,,,,,,,,,,,,,,,,,,,,,1,,,,,,,,,,,,,,,,,,,,,,,,,,,,,,,,,,,,,,,,,,,,,,124,150958,20,Female,1,2024/03/26_10:24:19,YZ,None,
,,,,,,practice_main,0,3,1,1250,5,J,1,left,0.7441714070000671,1,0,,,,,,,,,,,,,,,,,,,,,1,,,,,,,,,,,,,,,,,,,,,,,,,,,,,,,,,,,,,,,,,,,,,,124,150958,20,Female,1,2024/03/26_10:24:19,YZ,None,
,,,,,,practice_main,0,3,1,1250,6,S,0,right,0.7392753710000761,1,0,,,,,,,,,,,,,,,,,,,,,1,,,,,,,,,,,,,,,,,,,,,,,,,,,,,,,,,,,,,,,,,,,,,,124,150958,20,Female,1,2024/03/26_10:24:19,YZ,None,
,,,,,,practice_main,0,3,1,1250,7,S,1,left,0.7552487500006464,1,0,,,,,,,,,,,,,,,,,,,,,1,,,,,,,,,,,,,,,,,,,,,,,,,,,,,,,,,,,,,,,,,,,,,,124,150958,20,Female,1,2024/03/26_10:24:19,YZ,None,
,,,,,,practice_main,0,3,1,1250,8,V,0,right,0.8380815169994094,1,0,,,,,,,,,,,,,,,,,,,,,1,,,,,,,,,,,,,,,,,,,,,,,,,,,,,,,,,,,,,,,,,,,,,,124,150958,20,Female,1,2024/03/26_10:24:19,YZ,None,
,,,,,,practice_main,0,3,1,1250,9,F,0,right,0.8755154660002518,1,0,,,,,,,,,,,,,,,,,,,,,1,,,,,,,,,,,,,,,,,,,,,,,,,,,,,,,,,,,,,,,,,,,,,,124,150958,20,Female,1,2024/03/26_10:24:19,YZ,None,
,,,,,,practice_main,0,3,1,1250,10,X,0,right,0.8708269839999048,1,0,,,,,,,,,,,,,,,,,,,,,1,,,,,,,,,,,,,,,,,,,,,,,,,,,,,,,,,,,,,,,,,,,,,,124,150958,20,Female,1,2024/03/26_10:24:19,YZ,None,
,,,,,,practice_main,0,3,1,1250,,,,,,,,1.0,1.0,0.0,1.0,0.0,1.0,0.7546282024000902,3,0,0,0,0,7,10,3,7,0,,,,1,,,,,,,,,,,,,,,,,,,,,,,,,,,,,,,,,,,,,,,,,,,,,,124,150958,20,Female,1,2024/03/26_10:24:19,YZ,None,
,,,,,240326_110213,PRACTICE,0,3,1,1250,,,,,,,,,,,,,,,,,,,,,,,,,,,,1,23,3,3,cue2.png,easy,B,16,1.2486357079997106,0,1020.6849306280001,1021.9499014419998,,,,,,,,,,,,,,,,,,,,,,,,,,,,,,,,,,,124,150958,20,Female,1,2024/03/26_10:24:19,YZ,None,
1,./instructions/inst_prac_end/Slide56.png,right,17.846052255999894,1042.4063655609998,1060.2524178169997,,,,,,,,,,,,,,,,,,,,,,,,,,,,,,,,,1,,,,,,,,,,,,,,,,,,,,,,,,,,,,,,,,,,,,,,,,,,,,,,124,150958,20,Female,1,2024/03/26_10:24:19,YZ,None,
-1,./instructions/inst_test/Slide57.png,left,36.61481704000016,1060.2854927569997,1096.9003097969999,,,,,,,,,,,,,,,,,,,,,,,,,,,,,,,,,1,,,,,,,,,,,,,,,,,,,,,,,,,,,,,,,,,,,,,,,,,,,,,,124,150958,20,Female,1,2024/03/26_10:24:19,YZ,None,
0,./instructions/inst_prac_main/Slide52.png,left,1.5233677939995687,1097.9531248869998,1099.4764926809994,,,,,,,,,,,,,,,,,,,,,,,,,,,,,,,,,1,,,,,,,,,,,,,,,,,,,,,,,,,,,,,,,,,,,,,,,,,,,,,,124,150958,20,Female,1,2024/03/26_10:24:19,YZ,None,
-1,./instructions/inst_prac_main/Slide51.png,left,1.8224136759999965,1099.5023653409999,1101.3247790169999,,,,,,,,,,,,,,,,,,,,,,,,,,,,,,,,,1,,,,,,,,,,,,,,,,,,,,,,,,,,,,,,,,,,,,,,,,,,,,,,124,150958,20,Female,1,2024/03/26_10:24:19,YZ,None,
-2,./instructions/inst_prac_main/Slide54.png,left,0.8969952289999128,1101.347696455,1102.244691684,,,,,,,,,,,,,,,,,,,,,,,,,,,,,,,,,1,,,,,,,,,,,,,,,,,,,,,,,,,,,,,,,,,,,,,,,,,,,,,,124,150958,20,Female,1,2024/03/26_10:24:19,YZ,None,
-3,./instructions/inst_prac_main/Slide53.png,left,0.7615811670002586,1102.2669611499996,1103.0285423169998,,,,,,,,,,,,,,,,,,,,,,,,,,,,,,,,,1,,,,,,,,,,,,,,,,,,,,,,,,,,,,,,,,,,,,,,,,,,,,,,124,150958,20,Female,1,2024/03/26_10:24:19,YZ,None,
-4,./instructions/inst_prac_main/Slide52.png,left,0.5401626169996234,1103.0564849749999,1103.5966475919995,,,,,,,,,,,,,,,,,,,,,,,,,,,,,,,,,1,,,,,,,,,,,,,,,,,,,,,,,,,,,,,,,,,,,,,,,,,,,,,,124,150958,20,Female,1,2024/03/26_10:24:19,YZ,None,
,,,,,,practice_main,0,1,3,1250,1,C,0,right,0.7579755790002309,1,0,,,,,,,,,,,,,,,,,,,,,1,,,,,,,,,,,,,,,,,,,,,,,,,,,,,,,,,,,,,,,,,,,,,,124,150958,20,Female,1,2024/03/26_10:24:19,YZ,None,
,,,,,,practice_main,0,1,3,1250,2,F,0,right,0.724301430000196,1,0,,,,,,,,,,,,,,,,,,,,,1,,,,,,,,,,,,,,,,,,,,,,,,,,,,,,,,,,,,,,,,,,,,,,124,150958,20,Female,1,2024/03/26_10:24:19,YZ,None,
,,,,,,practice_main,0,1,3,1250,3,J,0,right,0.725901676999456,1,0,,,,,,,,,,,,,,,,,,,,,1,,,,,,,,,,,,,,,,,,,,,,,,,,,,,,,,,,,,,,,,,,,,,,124,150958,20,Female,1,2024/03/26_10:24:19,YZ,None,
,,,,,,practice_main,0,1,3,1250,4,C,1,left,0.6246886890003225,1,0,,,,,,,,,,,,,,,,,,,,,1,,,,,,,,,,,,,,,,,,,,,,,,,,,,,,,,,,,,,,,,,,,,,,124,150958,20,Female,1,2024/03/26_10:24:19,YZ,None,
,,,,,,practice_main,0,1,3,1250,5,V,0,right,0.7912262680001731,1,0,,,,,,,,,,,,,,,,,,,,,1,,,,,,,,,,,,,,,,,,,,,,,,,,,,,,,,,,,,,,,,,,,,,,124,150958,20,Female,1,2024/03/26_10:24:19,YZ,None,
,,,,,,practice_main,0,1,3,1250,6,N,0,right,0.7850356819999433,1,0,,,,,,,,,,,,,,,,,,,,,1,,,,,,,,,,,,,,,,,,,,,,,,,,,,,,,,,,,,,,,,,,,,,,124,150958,20,Female,1,2024/03/26_10:24:19,YZ,None,
,,,,,,practice_main,0,1,3,1250,7,C,1,right,0.7903492929999629,0,0,,,,,,,,,,,,,,,,,,,,,1,,,,,,,,,,,,,,,,,,,,,,,,,,,,,,,,,,,,,,,,,,,,,,124,150958,20,Female,1,2024/03/26_10:24:19,YZ,None,
,,,,,,practice_main,0,1,3,1250,8,C,0,right,0.44062722100079554,1,0,,,,,,,,,,,,,,,,,,,,,1,,,,,,,,,,,,,,,,,,,,,,,,,,,,,,,,,,,,,,,,,,,,,,124,150958,20,Female,1,2024/03/26_10:24:19,YZ,None,
,,,,,,practice_main,0,1,3,1250,9,X,0,right,0.6610959699992236,1,0,,,,,,,,,,,,,,,,,,,,,1,,,,,,,,,,,,,,,,,,,,,,,,,,,,,,,,,,,,,,,,,,,,,,124,150958,20,Female,1,2024/03/26_10:24:19,YZ,None,
,,,,,,practice_main,0,1,3,1250,10,C,1,right,0.5407833929994013,0,0,,,,,,,,,,,,,,,,,,,,,1,,,,,,,,,,,,,,,,,,,,,,,,,,,,,,,,,,,,,,,,,,,,,,124,150958,20,Female,1,2024/03/26_10:24:19,YZ,None,
,,,,,,practice_main,0,1,3,1250,,,,,,,,0.8333333333333334,0.3333333333333333,0.0,1.0,0.0,1.0,0.6841985201999705,1,0,0,0,0,7,8,3,7,0,,,,1,,,,,,,,,,,,,,,,,,,,,,,,,,,,,,,,,,,,,,,,,,,,,,124,150958,20,Female,1,2024/03/26_10:24:19,YZ,None,
,,,,,240326_110339,PRACTICE,0,1,3,1250,,,,,,,,,,,,,,,,,,,,,,,,,,,,1,41,1,1,cue1.png,hard,B,72,1.480485594000129,0,1107.6475203579994,1109.1452961710002,,,,,,,,,,,,,,,,,,,,,,,,,,,,,,,,,,,124,150958,20,Female,1,2024/03/26_10:24:19,YZ,None,
,,,,,,practice_main,0,2,1,1250,1,N,0,right,1.879791682999894,1,0,,,,,,,,,,,,,,,,,,,,,1,,,,,,,,,,,,,,,,,,,,,,,,,,,,,,,,,,,,,,,,,,,,,,124,150958,20,Female,1,2024/03/26_10:24:19,YZ,None,
,,,,,,practice_main,0,2,1,1250,2,N,1,left,0.6705443089995242,1,0,,,,,,,,,,,,,,,,,,,,,1,,,,,,,,,,,,,,,,,,,,,,,,,,,,,,,,,,,,,,,,,,,,,,124,150958,20,Female,1,2024/03/26_10:24:19,YZ,None,
,,,,,,practice_main,0,2,1,1250,3,J,0,right,0.6867192509998858,1,0,,,,,,,,,,,,,,,,,,,,,1,,,,,,,,,,,,,,,,,,,,,,,,,,,,,,,,,,,,,,,,,,,,,,124,150958,20,Female,1,2024/03/26_10:24:19,YZ,None,
,,,,,,practice_main,0,2,1,1250,4,N,0,right,0.5228408259999924,1,0,,,,,,,,,,,,,,,,,,,,,1,,,,,,,,,,,,,,,,,,,,,,,,,,,,,,,,,,,,,,,,,,,,,,124,150958,20,Female,1,2024/03/26_10:24:19,YZ,None,
,,,,,,practice_main,0,2,1,1250,5,F,0,right,0.4946225819994652,1,0,,,,,,,,,,,,,,,,,,,,,1,,,,,,,,,,,,,,,,,,,,,,,,,,,,,,,,,,,,,,,,,,,,,,124,150958,20,Female,1,2024/03/26_10:24:19,YZ,None,
,,,,,,practice_main,0,2,1,1250,6,F,1,left,0.4924897780001629,1,0,,,,,,,,,,,,,,,,,,,,,1,,,,,,,,,,,,,,,,,,,,,,,,,,,,,,,,,,,,,,,,,,,,,,124,150958,20,Female,1,2024/03/26_10:24:19,YZ,None,
,,,,,,practice_main,0,2,1,1250,7,N,0,right,0.6063022280004589,1,0,,,,,,,,,,,,,,,,,,,,,1,,,,,,,,,,,,,,,,,,,,,,,,,,,,,,,,,,,,,,,,,,,,,,124,150958,20,Female,1,2024/03/26_10:24:19,YZ,None,
,,,,,,practice_main,0,2,1,1250,8,N,1,left,0.5769244779994551,1,0,,,,,,,,,,,,,,,,,,,,,1,,,,,,,,,,,,,,,,,,,,,,,,,,,,,,,,,,,,,,,,,,,,,,124,150958,20,Female,1,2024/03/26_10:24:19,YZ,None,
,,,,,,practice_main,0,2,1,1250,9,J,0,right,0.4503912579993994,1,0,,,,,,,,,,,,,,,,,,,,,1,,,,,,,,,,,,,,,,,,,,,,,,,,,,,,,,,,,,,,,,,,,,,,124,150958,20,Female,1,2024/03/26_10:24:19,YZ,None,
,,,,,,practice_main,0,2,1,1250,10,S,0,right,0.6466415249997226,1,0,,,,,,,,,,,,,,,,,,,,,1,,,,,,,,,,,,,,,,,,,,,,,,,,,,,,,,,,,,,,,,,,,,,,124,150958,20,Female,1,2024/03/26_10:24:19,YZ,None,
,,,,,,practice_main,0,2,1,1250,,,,,,,,1.0,1.0,0.0,1.0,0.0,1.0,0.702726791799796,3,0,0,0,0,7,10,3,7,0,,,,1,,,,,,,,,,,,,,,,,,,,,,,,,,,,,,,,,,,,,,,,,,,,,,124,150958,20,Female,1,2024/03/26_10:24:19,YZ,None,
,,,,,240326_110402,PRACTICE,0,2,1,1250,,,,,,,,,,,,,,,,,,,,,,,,,,,,1,16,2,2,cue2.png,easy,B,21,1.9628669209996588,0,1130.3980921909997,1132.3735420389994,,,,,,,,,,,,,,,,,,,,,,,,,,,,,,,,,,,124,150958,20,Female,1,2024/03/26_10:24:19,YZ,None,
,,,,,,practice_main,0,3,1,1250,1,N,0,right,0.4707614199996897,1,0,,,,,,,,,,,,,,,,,,,,,1,,,,,,,,,,,,,,,,,,,,,,,,,,,,,,,,,,,,,,,,,,,,,,124,150958,20,Female,1,2024/03/26_10:24:19,YZ,None,
,,,,,,practice_main,0,3,1,1250,2,N,1,left,0.6345220040002459,1,0,,,,,,,,,,,,,,,,,,,,,1,,,,,,,,,,,,,,,,,,,,,,,,,,,,,,,,,,,,,,,,,,,,,,124,150958,20,Female,1,2024/03/26_10:24:19,YZ,None,
,,,,,,practice_main,0,3,1,1250,3,X,0,right,0.5920869199999288,1,0,,,,,,,,,,,,,,,,,,,,,1,,,,,,,,,,,,,,,,,,,,,,,,,,,,,,,,,,,,,,,,,,,,,,124,150958,20,Female,1,2024/03/26_10:24:19,YZ,None,
,,,,,,practice_main,0,3,1,1250,4,J,0,right,0.6012135789997046,1,0,,,,,,,,,,,,,,,,,,,,,1,,,,,,,,,,,,,,,,,,,,,,,,,,,,,,,,,,,,,,,,,,,,,,124,150958,20,Female,1,2024/03/26_10:24:19,YZ,None,
,,,,,,practice_main,0,3,1,1250,5,J,1,left,0.5715898959997503,1,0,,,,,,,,,,,,,,,,,,,,,1,,,,,,,,,,,,,,,,,,,,,,,,,,,,,,,,,,,,,,,,,,,,,,124,150958,20,Female,1,2024/03/26_10:24:19,YZ,None,
,,,,,,practice_main,0,3,1,1250,6,S,0,right,0.5720172270002877,1,0,,,,,,,,,,,,,,,,,,,,,1,,,,,,,,,,,,,,,,,,,,,,,,,,,,,,,,,,,,,,,,,,,,,,124,150958,20,Female,1,2024/03/26_10:24:19,YZ,None,
,,,,,,practice_main,0,3,1,1250,7,S,1,left,0.6475001880007767,1,0,,,,,,,,,,,,,,,,,,,,,1,,,,,,,,,,,,,,,,,,,,,,,,,,,,,,,,,,,,,,,,,,,,,,124,150958,20,Female,1,2024/03/26_10:24:19,YZ,None,
,,,,,,practice_main,0,3,1,1250,8,V,0,right,0.42375282699958916,1,0,,,,,,,,,,,,,,,,,,,,,1,,,,,,,,,,,,,,,,,,,,,,,,,,,,,,,,,,,,,,,,,,,,,,124,150958,20,Female,1,2024/03/26_10:24:19,YZ,None,
,,,,,,practice_main,0,3,1,1250,9,F,0,right,0.6150397369992788,1,0,,,,,,,,,,,,,,,,,,,,,1,,,,,,,,,,,,,,,,,,,,,,,,,,,,,,,,,,,,,,,,,,,,,,124,150958,20,Female,1,2024/03/26_10:24:19,YZ,None,
,,,,,,practice_main,0,3,1,1250,10,X,0,right,0.48217430299973785,1,0,,,,,,,,,,,,,,,,,,,,,1,,,,,,,,,,,,,,,,,,,,,,,,,,,,,,,,,,,,,,,,,,,,,,124,150958,20,Female,1,2024/03/26_10:24:19,YZ,None,
,,,,,,practice_main,0,3,1,1250,,,,,,,,1.0,1.0,0.0,1.0,0.0,1.0,0.561065810099899,3,0,0,0,0,7,10,3,7,0,,,,1,,,,,,,,,,,,,,,,,,,,,,,,,,,,,,,,,,,,,,,,,,,,,,124,150958,20,Female,1,2024/03/26_10:24:19,YZ,None,
,,,,,240326_110424,PRACTICE,0,3,1,1250,,,,,,,,,,,,,,,,,,,,,,,,,,,,1,47,3,3,cue2.png,easy,B,25,1.6405124799994155,0,1153.7804473790002,1155.4378076040002,,,,,,,,,,,,,,,,,,,,,,,,,,,,,,,,,,,124,150958,20,Female,1,2024/03/26_10:24:19,YZ,None,
1,./instructions/inst_test/Slide57.png,right,4.454359137999745,1173.958103801,1178.4124629389999,,,,,,,,,,,,,,,,,,,,,,,,,,,,,,,,,1,,,,,,,,,,,,,,,,,,,,,,,,,,,,,,,,,,,,,,,,,,,,,,124,150958,20,Female,1,2024/03/26_10:24:19,YZ,None,
,,,,,,test,1,1,1,1250,1,Q,0,right,0.3413863429996127,1,0,,,,,,,,,,,,,,,,,,,,,1,,,,,,,,,,,,,,,,,,,,,,,,,,,,,,,,,,,,,,,,,,,,,,124,150958,20,Female,1,2024/03/26_10:24:19,YZ,None,
,,,,,,test,1,1,1,1250,2,Q,1,left,0.6738238769994496,1,0,,,,,,,,,,,,,,,,,,,,,1,,,,,,,,,,,,,,,,,,,,,,,,,,,,,,,,,,,,,,,,,,,,,,124,150958,20,Female,1,2024/03/26_10:24:19,YZ,None,
,,,,,,test,1,1,1,1250,3,C,0,right,0.66286236400083,1,0,,,,,,,,,,,,,,,,,,,,,1,,,,,,,,,,,,,,,,,,,,,,,,,,,,,,,,,,,,,,,,,,,,,,124,150958,20,Female,1,2024/03/26_10:24:19,YZ,None,
,,,,,,test,1,1,1,1250,4,C,1,left,0.6148753359993862,1,0,,,,,,,,,,,,,,,,,,,,,1,,,,,,,,,,,,,,,,,,,,,,,,,,,,,,,,,,,,,,,,,,,,,,124,150958,20,Female,1,2024/03/26_10:24:19,YZ,None,
,,,,,,test,1,1,1,1250,5,Q,0,right,0.7415419339995424,1,0,,,,,,,,,,,,,,,,,,,,,1,,,,,,,,,,,,,,,,,,,,,,,,,,,,,,,,,,,,,,,,,,,,,,124,150958,20,Female,1,2024/03/26_10:24:19,YZ,None,
,,,,,,test,1,1,1,1250,6,C,0,right,0.5754363969990663,1,0,,,,,,,,,,,,,,,,,,,,,1,,,,,,,,,,,,,,,,,,,,,,,,,,,,,,,,,,,,,,,,,,,,,,124,150958,20,Female,1,2024/03/26_10:24:19,YZ,None,
,,,,,,test,1,1,1,1250,7,X,0,right,0.7237481150004896,1,0,,,,,,,,,,,,,,,,,,,,,1,,,,,,,,,,,,,,,,,,,,,,,,,,,,,,,,,,,,,,,,,,,,,,124,150958,20,Female,1,2024/03/26_10:24:19,YZ,None,
,,,,,,test,1,1,1,1250,8,F,0,right,0.5563522560005367,1,0,,,,,,,,,,,,,,,,,,,,,1,,,,,,,,,,,,,,,,,,,,,,,,,,,,,,,,,,,,,,,,,,,,,,124,150958,20,Female,1,2024/03/26_10:24:19,YZ,None,
,,,,,,test,1,1,1,1250,9,S,0,right,0.4671599249995779,1,0,,,,,,,,,,,,,,,,,,,,,1,,,,,,,,,,,,,,,,,,,,,,,,,,,,,,,,,,,,,,,,,,,,,,124,150958,20,Female,1,2024/03/26_10:24:19,YZ,None,
,,,,,,test,1,1,1,1250,10,S,1,left,0.5124065350009914,1,0,,,,,,,,,,,,,,,,,,,,,1,,,,,,,,,,,,,,,,,,,,,,,,,,,,,,,,,,,,,,,,,,,,,,124,150958,20,Female,1,2024/03/26_10:24:19,YZ,None,
,,,,,,Test,1,1,1,1250,,,,,,,,1.0,1.0,0.0,1.0,0.0,1.0,0.5869593081999482,3,0,0,0,0,7,10,3,7,0,,,,1,,,,,,,,,,,,,,,,,,,,,,,,,,,,,,,,,,,,,,,,,,,,,,124,150958,20,Female,1,2024/03/26_10:24:19,YZ,None,
,,,,,240326_110454,TEST,1,1,1,1250,,,,,,,,,,,,,,,,,,,,,,,,,,,,1,1,1,1,cue2.png,easy,B,35,1.2810655600005703,0,1183.458964937,1184.760265938,,,,,,,,,,,,,,,,,,,,,,,,,,,,,,,,,,,124,150958,20,Female,1,2024/03/26_10:24:19,YZ,None,
,,,,,,test,1,2,3,1250,1,V,0,right,0.5304364350013202,1,0,,,,,,,,,,,,,,,,,,,,,1,,,,,,,,,,,,,,,,,,,,,,,,,,,,,,,,,,,,,,,,,,,,,,124,150958,20,Female,1,2024/03/26_10:24:19,YZ,None,
,,,,,,test,1,2,3,1250,2,C,0,right,0.6477214000005915,1,0,,,,,,,,,,,,,,,,,,,,,1,,,,,,,,,,,,,,,,,,,,,,,,,,,,,,,,,,,,,,,,,,,,,,124,150958,20,Female,1,2024/03/26_10:24:19,YZ,None,
,,,,,,test,1,2,3,1250,3,S,0,right,0.512318334000156,1,0,,,,,,,,,,,,,,,,,,,,,1,,,,,,,,,,,,,,,,,,,,,,,,,,,,,,,,,,,,,,,,,,,,,,124,150958,20,Female,1,2024/03/26_10:24:19,YZ,None,
,,,,,,test,1,2,3,1250,4,S,0,right,0.43194223000136844,1,0,,,,,,,,,,,,,,,,,,,,,1,,,,,,,,,,,,,,,,,,,,,,,,,,,,,,,,,,,,,,,,,,,,,,124,150958,20,Female,1,2024/03/26_10:24:19,YZ,None,
,,,,,,test,1,2,3,1250,5,C,1,right,0.7398916519996419,0,0,,,,,,,,,,,,,,,,,,,,,1,,,,,,,,,,,,,,,,,,,,,,,,,,,,,,,,,,,,,,,,,,,,,,124,150958,20,Female,1,2024/03/26_10:24:19,YZ,None,
,,,,,,test,1,2,3,1250,6,F,0,right,0.34123586600071576,1,0,,,,,,,,,,,,,,,,,,,,,1,,,,,,,,,,,,,,,,,,,,,,,,,,,,,,,,,,,,,,,,,,,,,,124,150958,20,Female,1,2024/03/26_10:24:19,YZ,None,
,,,,,,test,1,2,3,1250,7,V,0,right,0.4655027570006496,1,0,,,,,,,,,,,,,,,,,,,,,1,,,,,,,,,,,,,,,,,,,,,,,,,,,,,,,,,,,,,,,,,,,,,,124,150958,20,Female,1,2024/03/26_10:24:19,YZ,None,
,,,,,,test,1,2,3,1250,8,C,1,right,0.7662671170000976,0,0,,,,,,,,,,,,,,,,,,,,,1,,,,,,,,,,,,,,,,,,,,,,,,,,,,,,,,,,,,,,,,,,,,,,124,150958,20,Female,1,2024/03/26_10:24:19,YZ,None,
,,,,,,test,1,2,3,1250,9,F,1,right,0.41931781899984344,0,0,,,,,,,,,,,,,,,,,,,,,1,,,,,,,,,,,,,,,,,,,,,,,,,,,,,,,,,,,,,,,,,,,,,,124,150958,20,Female,1,2024/03/26_10:24:19,YZ,None,
,,,,,,test,1,2,3,1250,10,S,0,right,0.5249936310010526,1,0,,,,,,,,,,,,,,,,,,,,,1,,,,,,,,,,,,,,,,,,,,,,,,,,,,,,,,,,,,,,,,,,,,,,124,150958,20,Female,1,2024/03/26_10:24:19,YZ,None,
,,,,,,Test,1,2,3,1250,,,,,,,,0.5,0.0,0.0,1.0,0.0,1.0,0.5379627241005437,0,0,0,0,0,7,7,3,7,0,,,,1,,,,,,,,,,,,,,,,,,,,,,,,,,,,,,,,,,,,,,,,,,,,,,124,150958,20,Female,1,2024/03/26_10:24:19,YZ,None,
,,,,,240326_110515,TEST,1,2,3,1250,,,,,,,,,,,,,,,,,,,,,,,,,,,,1,2,2,2,cue1.png,hard,B,52,1.8549535640013346,0,1205.0425947739996,1206.9177266369998,,,,,,,,,,,,,,,,,,,,,,,,,,,,,,,,,,,124,150958,20,Female,1,2024/03/26_10:24:19,YZ,None,
,,,,,,test,1,3,3,1250,1,N,0,right,0.4040165159985918,1,0,,,,,,,,,,,,,,,,,,,,,1,,,,,,,,,,,,,,,,,,,,,,,,,,,,,,,,,,,,,,,,,,,,,,124,150958,20,Female,1,2024/03/26_10:24:19,YZ,None,
,,,,,,test,1,3,3,1250,2,X,0,right,0.40808528199886496,1,0,,,,,,,,,,,,,,,,,,,,,1,,,,,,,,,,,,,,,,,,,,,,,,,,,,,,,,,,,,,,,,,,,,,,124,150958,20,Female,1,2024/03/26_10:24:19,YZ,None,
,,,,,,test,1,3,3,1250,3,J,0,right,0.4162698960008129,1,0,,,,,,,,,,,,,,,,,,,,,1,,,,,,,,,,,,,,,,,,,,,,,,,,,,,,,,,,,,,,,,,,,,,,124,150958,20,Female,1,2024/03/26_10:24:19,YZ,None,
,,,,,,test,1,3,3,1250,4,N,1,left,0.44897799200043664,1,0,,,,,,,,,,,,,,,,,,,,,1,,,,,,,,,,,,,,,,,,,,,,,,,,,,,,,,,,,,,,,,,,,,,,124,150958,20,Female,1,2024/03/26_10:24:19,YZ,None,
,,,,,,test,1,3,3,1250,5,X,1,right,0.361724303000301,0,0,,,,,,,,,,,,,,,,,,,,,1,,,,,,,,,,,,,,,,,,,,,,,,,,,,,,,,,,,,,,,,,,,,,,124,150958,20,Female,1,2024/03/26_10:24:19,YZ,None,
,,,,,,test,1,3,3,1250,6,X,0,right,0.30052001500007464,1,0,,,,,,,,,,,,,,,,,,,,,1,,,,,,,,,,,,,,,,,,,,,,,,,,,,,,,,,,,,,,,,,,,,,,124,150958,20,Female,1,2024/03/26_10:24:19,YZ,None,
,,,,,,test,1,3,3,1250,7,V,0,right,0.3920518760005507,1,0,,,,,,,,,,,,,,,,,,,,,1,,,,,,,,,,,,,,,,,,,,,,,,,,,,,,,,,,,,,,,,,,,,,,124,150958,20,Female,1,2024/03/26_10:24:19,YZ,None,
,,,,,,test,1,3,3,1250,8,N,0,right,0.46440154499941855,1,0,,,,,,,,,,,,,,,,,,,,,1,,,,,,,,,,,,,,,,,,,,,,,,,,,,,,,,,,,,,,,,,,,,,,124,150958,20,Female,1,2024/03/26_10:24:19,YZ,None,
,,,,,,test,1,3,3,1250,9,C,0,right,0.5004596039998432,1,0,,,,,,,,,,,,,,,,,,,,,1,,,,,,,,,,,,,,,,,,,,,,,,,,,,,,,,,,,,,,,,,,,,,,124,150958,20,Female,1,2024/03/26_10:24:19,YZ,None,
,,,,,,test,1,3,3,1250,10,V,1,right,0.5199764740009414,0,0,,,,,,,,,,,,,,,,,,,,,1,,,,,,,,,,,,,,,,,,,,,,,,,,,,,,,,,,,,,,,,,,,,,,124,150958,20,Female,1,2024/03/26_10:24:19,YZ,None,
,,,,,,Test,1,3,3,1250,,,,,,,,0.8333333333333334,0.3333333333333333,0.0,1.0,0.0,1.0,0.4216483502999836,1,0,0,0,0,7,8,3,7,0,,,,1,,,,,,,,,,,,,,,,,,,,,,,,,,,,,,,,,,,,,,,,,,,,,,124,150958,20,Female,1,2024/03/26_10:24:19,YZ,None,
,,,,,240326_110535,TEST,1,3,3,1250,,,,,,,,,,,,,,,,,,,,,,,,,,,,1,3,3,3,cue1.png,hard,B,55,1.0812466720017255,0,1226.701390063,1227.7995461109995,,,,,,,,,,,,,,,,,,,,,,,,,,,,,,,,,,,124,150958,20,Female,1,2024/03/26_10:24:19,YZ,None,
,,,,,,test,1,4,3,1250,1,C,0,right,0.38495434600008593,1,0,,,,,,,,,,,,,,,,,,,,,1,,,,,,,,,,,,,,,,,,,,,,,,,,,,,,,,,,,,,,,,,,,,,,124,150958,20,Female,1,2024/03/26_10:24:19,YZ,None,
,,,,,,test,1,4,3,1250,2,N,0,right,0.40789872800087323,1,0,,,,,,,,,,,,,,,,,,,,,1,,,,,,,,,,,,,,,,,,,,,,,,,,,,,,,,,,,,,,,,,,,,,,124,150958,20,Female,1,2024/03/26_10:24:19,YZ,None,
,,,,,,test,1,4,3,1250,3,N,0,right,0.5312814549997711,1,0,,,,,,,,,,,,,,,,,,,,,1,,,,,,,,,,,,,,,,,,,,,,,,,,,,,,,,,,,,,,,,,,,,,,124,150958,20,Female,1,2024/03/26_10:24:19,YZ,None,
,,,,,,test,1,4,3,1250,4,J,0,right,0.4827775419998943,1,0,,,,,,,,,,,,,,,,,,,,,1,,,,,,,,,,,,,,,,,,,,,,,,,,,,,,,,,,,,,,,,,,,,,,124,150958,20,Female,1,2024/03/26_10:24:19,YZ,None,
,,,,,,test,1,4,3,1250,5,V,0,right,0.4095291339999676,1,0,,,,,,,,,,,,,,,,,,,,,1,,,,,,,,,,,,,,,,,,,,,,,,,,,,,,,,,,,,,,,,,,,,,,124,150958,20,Female,1,2024/03/26_10:24:19,YZ,None,
,,,,,,test,1,4,3,1250,6,N,1,right,0.6966187199996057,0,0,,,,,,,,,,,,,,,,,,,,,1,,,,,,,,,,,,,,,,,,,,,,,,,,,,,,,,,,,,,,,,,,,,,,124,150958,20,Female,1,2024/03/26_10:24:19,YZ,None,
,,,,,,test,1,4,3,1250,7,F,0,right,0.6380630540006678,1,0,,,,,,,,,,,,,,,,,,,,,1,,,,,,,,,,,,,,,,,,,,,,,,,,,,,,,,,,,,,,,,,,,,,,124,150958,20,Female,1,2024/03/26_10:24:19,YZ,None,
,,,,,,test,1,4,3,1250,8,V,1,right,0.5227142280000407,0,0,,,,,,,,,,,,,,,,,,,,,1,,,,,,,,,,,,,,,,,,,,,,,,,,,,,,,,,,,,,,,,,,,,,,124,150958,20,Female,1,2024/03/26_10:24:19,YZ,None,
,,,,,,test,1,4,3,1250,9,X,0,right,0.4015710980002041,1,0,,,,,,,,,,,,,,,,,,,,,1,,,,,,,,,,,,,,,,,,,,,,,,,,,,,,,,,,,,,,,,,,,,,,124,150958,20,Female,1,2024/03/26_10:24:19,YZ,None,
,,,,,,test,1,4,3,1250,10,F,1,left,0.40128958100103773,1,0,,,,,,,,,,,,,,,,,,,,,1,,,,,,,,,,,,,,,,,,,,,,,,,,,,,,,,,,,,,,,,,,,,,,124,150958,20,Female,1,2024/03/26_10:24:19,YZ,None,
,,,,,,Test,1,4,3,1250,,,,,,,,0.8333333333333334,0.3333333333333333,0.0,1.0,0.0,1.0,0.4876697886002148,1,0,0,0,0,7,8,3,7,0,,,,1,,,,,,,,,,,,,,,,,,,,,,,,,,,,,,,,,,,,,,,,,,,,,,124,150958,20,Female,1,2024/03/26_10:24:19,YZ,None,
,,,,,240326_110556,TEST,1,4,3,1250,,,,,,,,,,,,,,,,,,,,,,,,,,,,1,4,4,4,cue1.png,hard,B,51,1.7122965139988082,0,1246.3887766130001,1248.120977996,,,,,,,,,,,,,,,,,,,,,,,,,,,,,,,,,,,124,150958,20,Female,1,2024/03/26_10:24:19,YZ,None,
,,,,,,test,1,5,1,1250,1,Q,0,right,1.0418429380006273,1,0,,,,,,,,,,,,,,,,,,,,,1,,,,,,,,,,,,,,,,,,,,,,,,,,,,,,,,,,,,,,,,,,,,,,124,150958,20,Female,1,2024/03/26_10:24:19,YZ,None,
