Instruction,Stimulus,Key,RT,START,END,Phase,Block,TrialN,NbackLevel,ISI,LetterN,Letter,Letter_isSame,Letter_Resp,Letter_RT,Letter_Accuracy,Letter_Timeout,Trial_A_measure,Trial_HR,Trial_FAR,Trial_CDR,Trial_MSR,Trial_ACC,Trial_RT,Trial_HitsCount,Trial_FAsCount,Trial_SameNoRespCount,Trial_DiffNoRespCount,Trial_NoRespCount,Trial_CDsCount,Trial_CorrectRespCount,Trial_SameLetterCount,Trial_DiffLetterCount,Trial_InvalidLetterCount,TrialCountCali,CaliEnd_A_measure,ISI_calibrated,Run,TrialIndex,TrialNumber_total,TrialNumber_valid,CueLearning,TrialDemandLearning,CueMapping,OnlineRating,OnlineRatingRT,OnlineRatingTimeOut,CueSTART,RatingSTART,OfflineRatingTimePoint,OfflineRatingQuesIndex,CueFigure,TrialDemand,OfflineRating,OfflineRatingRT,CueStart,OfflineRatingStart,PhaseType,CueLeft,CueDemandLeft,CueRight,CueDemandRight,Choice,ChoiceDemand,TaskDemand,ChoiceRT,ChoiceTimeOut,ChoiceSTART,CueCheck,CueDemandCheck,CorrectAnswer,Answer,AnswerDemand,AnswerRT,AnswerACC,AnswerTimeOut,CheckSTART,DemandRatingQuesIndex,QuesTLX,DemandLevel,DemandRating,DemandRatingRT,QuesStart,PID,SONA,Age,Gender,Run,TIME,EXPERIMENTER,frameRate,
1,./instructions/inst_begin/Slide2.png,right,17.299602535000304,0.11175763199935318,17.411360166999657,,,,,,,,,,,,,,,,,,,,,,,,,,,,,,,,,1,,,,,,,,,,,,,,,,,,,,,,,,,,,,,,,,,,,,,,,,,,,,,,82,152812,21,Female,1,2024/03/12_12:13:31,YZ,None,
2,./instructions/inst_begin/Slide3.png,right,11.756191049000336,17.439071890999912,29.195262940000248,,,,,,,,,,,,,,,,,,,,,,,,,,,,,,,,,1,,,,,,,,,,,,,,,,,,,,,,,,,,,,,,,,,,,,,,,,,,,,,,82,152812,21,Female,1,2024/03/12_12:13:31,YZ,None,
3,./instructions/inst_begin/Slide4.png,right,6.475018557001022,29.224370116997306,35.69938867399833,,,,,,,,,,,,,,,,,,,,,,,,,,,,,,,,,1,,,,,,,,,,,,,,,,,,,,,,,,,,,,,,,,,,,,,,,,,,,,,,82,152812,21,Female,1,2024/03/12_12:13:31,YZ,None,
1,./instructions/inst_prac_2/Slide6.png,right,10.431077559002006,35.73242003399719,46.16349759299919,,,,,,,,,,,,,,,,,,,,,,,,,,,,,,,,,1,,,,,,,,,,,,,,,,,,,,,,,,,,,,,,,,,,,,,,,,,,,,,,82,152812,21,Female,1,2024/03/12_12:13:31,YZ,None,
2,./instructions/inst_prac_2/Slide7.png,right,8.210993130000134,46.19252561999747,54.4035187499976,,,,,,,,,,,,,,,,,,,,,,,,,,,,,,,,,1,,,,,,,,,,,,,,,,,,,,,,,,,,,,,,,,,,,,,,,,,,,,,,82,152812,21,Female,1,2024/03/12_12:13:31,YZ,None,
3,./instructions/inst_prac_2/Slide8.png,right,8.795463383001334,54.431828290998965,63.2272916740003,,,,,,,,,,,,,,,,,,,,,,,,,,,,,,,,,1,,,,,,,,,,,,,,,,,,,,,,,,,,,,,,,,,,,,,,,,,,,,,,82,152812,21,Female,1,2024/03/12_12:13:31,YZ,None,
4,./instructions/inst_prac_2/Slide9.png,right,2.0597202879980614,63.25561091700001,65.31533120499807,,,,,,,,,,,,,,,,,,,,,,,,,,,,,,,,,1,,,,,,,,,,,,,,,,,,,,,,,,,,,,,,,,,,,,,,,,,,,,,,82,152812,21,Female,1,2024/03/12_12:13:31,YZ,None,
5,./instructions/inst_prac_2/Slide10.png,right,1.157804042002681,65.34138303799773,66.49918708000041,,,,,,,,,,,,,,,,,,,,,,,,,,,,,,,,,1,,,,,,,,,,,,,,,,,,,,,,,,,,,,,,,,,,,,,,,,,,,,,,82,152812,21,Female,1,2024/03/12_12:13:31,YZ,None,
6,./instructions/inst_prac_2/Slide11.png,right,1.4540946630004328,66.52528469699973,67.97937936000017,,,,,,,,,,,,,,,,,,,,,,,,,,,,,,,,,1,,,,,,,,,,,,,,,,,,,,,,,,,,,,,,,,,,,,,,,,,,,,,,82,152812,21,Female,1,2024/03/12_12:13:31,YZ,None,
7,./instructions/inst_prac_2/Slide12.png,right,1.0673317500004487,68.00799171699691,69.07532346699736,,,,,,,,,,,,,,,,,,,,,,,,,,,,,,,,,1,,,,,,,,,,,,,,,,,,,,,,,,,,,,,,,,,,,,,,,,,,,,,,82,152812,21,Female,1,2024/03/12_12:13:31,YZ,None,
8,./instructions/inst_prac_2/Slide13.png,right,1.1313565719974576,69.10390301699954,70.235259588997,,,,,,,,,,,,,,,,,,,,,,,,,,,,,,,,,1,,,,,,,,,,,,,,,,,,,,,,,,,,,,,,,,,,,,,,,,,,,,,,82,152812,21,Female,1,2024/03/12_12:13:31,YZ,None,
9,./instructions/inst_prac_2/Slide14.png,right,13.574160527998174,70.26127661999999,83.83543714799816,,,,,,,,,,,,,,,,,,,,,,,,,,,,,,,,,1,,,,,,,,,,,,,,,,,,,,,,,,,,,,,,,,,,,,,,,,,,,,,,82,152812,21,Female,1,2024/03/12_12:13:31,YZ,None,
10,./instructions/inst_prac_2/Slide15.png,right,2.738706584001193,83.86465878699892,86.60336537100011,,,,,,,,,,,,,,,,,,,,,,,,,,,,,,,,,1,,,,,,,,,,,,,,,,,,,,,,,,,,,,,,,,,,,,,,,,,,,,,,82,152812,21,Female,1,2024/03/12_12:13:31,YZ,None,
,,,,,,practice,0,34,2,2583,1,J,0,right,1.1540869630007364,1,0,,,,,,,,,,,,,,,,,,,,,1,,,,,,,,,,,,,,,,,,,,,,,,,,,,,,,,,,,,,,,,,,,,,,82,152812,21,Female,1,2024/03/12_12:13:31,YZ,None,
,,,,,,practice,0,34,2,2583,2,C,0,right,0.7985422370002198,1,0,,,,,,,,,,,,,,,,,,,,,1,,,,,,,,,,,,,,,,,,,,,,,,,,,,,,,,,,,,,,,,,,,,,,82,152812,21,Female,1,2024/03/12_12:13:31,YZ,None,
,,,,,,practice,0,34,2,2583,3,J,1,left,0.6526334670015785,1,0,,,,,,,,,,,,,,,,,,,,,1,,,,,,,,,,,,,,,,,,,,,,,,,,,,,,,,,,,,,,,,,,,,,,82,152812,21,Female,1,2024/03/12_12:13:31,YZ,None,
,,,,,,practice,0,34,2,2583,4,V,0,right,0.7665497950001736,1,0,,,,,,,,,,,,,,,,,,,,,1,,,,,,,,,,,,,,,,,,,,,,,,,,,,,,,,,,,,,,,,,,,,,,82,152812,21,Female,1,2024/03/12_12:13:31,YZ,None,
,,,,,,practice,0,34,2,2583,5,Q,0,right,0.7891378470012569,1,0,,,,,,,,,,,,,,,,,,,,,1,,,,,,,,,,,,,,,,,,,,,,,,,,,,,,,,,,,,,,,,,,,,,,82,152812,21,Female,1,2024/03/12_12:13:31,YZ,None,
,,,,,,practice,0,34,2,2583,6,V,1,left,0.6771296869992511,1,0,,,,,,,,,,,,,,,,,,,,,1,,,,,,,,,,,,,,,,,,,,,,,,,,,,,,,,,,,,,,,,,,,,,,82,152812,21,Female,1,2024/03/12_12:13:31,YZ,None,
,,,,,,practice,0,34,2,2583,,,,,,,,1.0,1.0,0.0,1.0,0.0,1.0,0.8063466660005361,2,0,0,0,0,4,6,2,4,0,,,,1,,,,,,,,,,,,,,,,,,,,,,,,,,,,,,,,,,,,,,,,,,,,,,82,152812,21,Female,1,2024/03/12_12:13:31,YZ,None,
1,./instructions/inst_to_cali/Slide20.png,right,2.4407640980025462,97.79452258299716,100.2352866809997,,,,,,,,,,,,,,,,,,,,,,,,,,,,,,,,,1,,,,,,,,,,,,,,,,,,,,,,,,,,,,,,,,,,,,,,,,,,,,,,82,152812,21,Female,1,2024/03/12_12:13:31,YZ,None,
1,./instructions/inst_cali/Slide22.png,right,2.8495772860005673,100.26584363499933,103.1154209209999,,,,,,,,,,,,,,,,,,,,,,,,,,,,,,,,,1,,,,,,,,,,,,,,,,,,,,,,,,,,,,,,,,,,,,,,,,,,,,,,82,152812,21,Female,1,2024/03/12_12:13:31,YZ,None,
,,,,,,calibration,0,24,2,583,1,C,0,right,0.36693147599726217,1,0,,,,,,,,,,,,,,,,,,,,,1,,,,,,,,,,,,,,,,,,,,,,,,,,,,,,,,,,,,,,,,,,,,,,82,152812,21,Female,1,2024/03/12_12:13:31,YZ,None,
,,,,,,calibration,0,24,2,583,2,S,0,right,0.41213346799850115,1,0,,,,,,,,,,,,,,,,,,,,,1,,,,,,,,,,,,,,,,,,,,,,,,,,,,,,,,,,,,,,,,,,,,,,82,152812,21,Female,1,2024/03/12_12:13:31,YZ,None,
,,,,,,calibration,0,24,2,583,3,V,0,right,0.5002400810008112,1,0,,,,,,,,,,,,,,,,,,,,,1,,,,,,,,,,,,,,,,,,,,,,,,,,,,,,,,,,,,,,,,,,,,,,82,152812,21,Female,1,2024/03/12_12:13:31,YZ,None,
,,,,,,calibration,0,24,2,583,4,C,0,left,0.7932460800002445,0,0,,,,,,,,,,,,,,,,,,,,,1,,,,,,,,,,,,,,,,,,,,,,,,,,,,,,,,,,,,,,,,,,,,,,82,152812,21,Female,1,2024/03/12_12:13:31,YZ,None,
,,,,,,calibration,0,24,2,583,5,V,1,right,0.5587545710004633,0,0,,,,,,,,,,,,,,,,,,,,,1,,,,,,,,,,,,,,,,,,,,,,,,,,,,,,,,,,,,,,,,,,,,,,82,152812,21,Female,1,2024/03/12_12:13:31,YZ,None,
,,,,,,calibration,0,24,2,583,6,N,0,right,0.25908650800192845,1,0,,,,,,,,,,,,,,,,,,,,,1,,,,,,,,,,,,,,,,,,,,,,,,,,,,,,,,,,,,,,,,,,,,,,82,152812,21,Female,1,2024/03/12_12:13:31,YZ,None,
,,,,,,calibration,0,24,2,583,7,V,1,right,0.3562502700006007,0,0,,,,,,,,,,,,,,,,,,,,,1,,,,,,,,,,,,,,,,,,,,,,,,,,,,,,,,,,,,,,,,,,,,,,82,152812,21,Female,1,2024/03/12_12:13:31,YZ,None,
,,,,,,calibration,0,24,2,583,8,J,0,right,0.4007906560000265,1,0,,,,,,,,,,,,,,,,,,,,,1,,,,,,,,,,,,,,,,,,,,,,,,,,,,,,,,,,,,,,,,,,,,,,82,152812,21,Female,1,2024/03/12_12:13:31,YZ,None,
,,,,,,calibration,0,24,2,583,9,F,0,right,0.40744273199743475,1,0,,,,,,,,,,,,,,,,,,,,,1,,,,,,,,,,,,,,,,,,,,,,,,,,,,,,,,,,,,,,,,,,,,,,82,152812,21,Female,1,2024/03/12_12:13:31,YZ,None,
,,,,,,calibration,0,24,2,583,10,J,1,left,0.5790421359997708,1,0,,,,,,,,,,,,,,,,,,,,,1,,,,,,,,,,,,,,,,,,,,,,,,,,,,,,,,,,,,,,,,,,,,,,82,152812,21,Female,1,2024/03/12_12:13:31,YZ,None,
,,,,,,calibration,0,24,2,583,11,F,1,right,0.39550981000138563,0,0,,,,,,,,,,,,,,,,,,,,,1,,,,,,,,,,,,,,,,,,,,,,,,,,,,,,,,,,,,,,,,,,,,,,82,152812,21,Female,1,2024/03/12_12:13:31,YZ,None,
,,,,,,calibration,0,24,2,583,12,S,0,right,0.344093833999068,1,0,,,,,,,,,,,,,,,,,,,,,1,,,,,,,,,,,,,,,,,,,,,,,,,,,,,,,,,,,,,,,,,,,,,,82,152812,21,Female,1,2024/03/12_12:13:31,YZ,None,
,,,,,,calibration,0,24,2,583,13,F,1,left,0.4397589459986193,1,0,,,,,,,,,,,,,,,,,,,,,1,,,,,,,,,,,,,,,,,,,,,,,,,,,,,,,,,,,,,,,,,,,,,,82,152812,21,Female,1,2024/03/12_12:13:31,YZ,None,
,,,,,,calibration,0,24,2,583,14,Q,0,right,0.4318065330007812,1,0,,,,,,,,,,,,,,,,,,,,,1,,,,,,,,,,,,,,,,,,,,,,,,,,,,,,,,,,,,,,,,,,,,,,82,152812,21,Female,1,2024/03/12_12:13:31,YZ,None,
,,,,,,calibration,0,24,2,583,15,S,0,left,0.4595389610003622,0,0,,,,,,,,,,,,,,,,,,,,,1,,,,,,,,,,,,,,,,,,,,,,,,,,,,,,,,,,,,,,,,,,,,,,82,152812,21,Female,1,2024/03/12_12:13:31,YZ,None,
,,,,,,calibration,0,24,2,583,,,,,,,,0.675,0.4,0.2,0.8,0.0,0.8,0.44697507079981735,2,2,0,0,0,8,10,5,10,0,,,,1,,,,,,,,,,,,,,,,,,,,,,,,,,,,,,,,,,,,,,,,,,,,,,82,152812,21,Female,1,2024/03/12_12:13:31,YZ,None,
,,,,,,Calibration,0,,2,583,,,,,,,,,,,,,,,,,,,,,,,,,1,,,1,,,,,,,,,,,,,,,,,,,,,,,,,,,,,,,,,,,,,,,,,,,,,,82,152812,21,Female,1,2024/03/12_12:13:31,YZ,None,
,,,,,,calibration,0,36,2,679,1,F,0,right,0.4475466399999277,1,0,,,,,,,,,,,,,,,,,,,,,1,,,,,,,,,,,,,,,,,,,,,,,,,,,,,,,,,,,,,,,,,,,,,,82,152812,21,Female,1,2024/03/12_12:13:31,YZ,None,
,,,,,,calibration,0,36,2,679,2,V,0,right,0.32902987099805614,1,0,,,,,,,,,,,,,,,,,,,,,1,,,,,,,,,,,,,,,,,,,,,,,,,,,,,,,,,,,,,,,,,,,,,,82,152812,21,Female,1,2024/03/12_12:13:31,YZ,None,
,,,,,,calibration,0,36,2,679,3,S,0,right,0.41554867300146725,1,0,,,,,,,,,,,,,,,,,,,,,1,,,,,,,,,,,,,,,,,,,,,,,,,,,,,,,,,,,,,,,,,,,,,,82,152812,21,Female,1,2024/03/12_12:13:31,YZ,None,
,,,,,,calibration,0,36,2,679,4,F,0,right,0.6022228000001633,1,0,,,,,,,,,,,,,,,,,,,,,1,,,,,,,,,,,,,,,,,,,,,,,,,,,,,,,,,,,,,,,,,,,,,,82,152812,21,Female,1,2024/03/12_12:13:31,YZ,None,
,,,,,,calibration,0,36,2,679,5,V,0,right,0.3914771070012648,1,0,,,,,,,,,,,,,,,,,,,,,1,,,,,,,,,,,,,,,,,,,,,,,,,,,,,,,,,,,,,,,,,,,,,,82,152812,21,Female,1,2024/03/12_12:13:31,YZ,None,
,,,,,,calibration,0,36,2,679,6,F,1,right,0.38824615399789764,0,0,,,,,,,,,,,,,,,,,,,,,1,,,,,,,,,,,,,,,,,,,,,,,,,,,,,,,,,,,,,,,,,,,,,,82,152812,21,Female,1,2024/03/12_12:13:31,YZ,None,
,,,,,,calibration,0,36,2,679,7,V,1,left,0.5496126139987609,1,0,,,,,,,,,,,,,,,,,,,,,1,,,,,,,,,,,,,,,,,,,,,,,,,,,,,,,,,,,,,,,,,,,,,,82,152812,21,Female,1,2024/03/12_12:13:31,YZ,None,
,,,,,,calibration,0,36,2,679,8,C,0,right,0.3870728619986039,1,0,,,,,,,,,,,,,,,,,,,,,1,,,,,,,,,,,,,,,,,,,,,,,,,,,,,,,,,,,,,,,,,,,,,,82,152812,21,Female,1,2024/03/12_12:13:31,YZ,None,
,,,,,,calibration,0,36,2,679,9,N,0,left,0.44730294599867193,0,0,,,,,,,,,,,,,,,,,,,,,1,,,,,,,,,,,,,,,,,,,,,,,,,,,,,,,,,,,,,,,,,,,,,,82,152812,21,Female,1,2024/03/12_12:13:31,YZ,None,
,,,,,,calibration,0,36,2,679,10,V,0,right,0.4369612349983072,1,0,,,,,,,,,,,,,,,,,,,,,1,,,,,,,,,,,,,,,,,,,,,,,,,,,,,,,,,,,,,,,,,,,,,,82,152812,21,Female,1,2024/03/12_12:13:31,YZ,None,
,,,,,,calibration,0,36,2,679,11,X,0,right,0.34404525799982366,1,0,,,,,,,,,,,,,,,,,,,,,1,,,,,,,,,,,,,,,,,,,,,,,,,,,,,,,,,,,,,,,,,,,,,,82,152812,21,Female,1,2024/03/12_12:13:31,YZ,None,
,,,,,,calibration,0,36,2,679,12,V,1,left,0.3970234319967858,1,0,,,,,,,,,,,,,,,,,,,,,1,,,,,,,,,,,,,,,,,,,,,,,,,,,,,,,,,,,,,,,,,,,,,,82,152812,21,Female,1,2024/03/12_12:13:31,YZ,None,
,,,,,,calibration,0,36,2,679,13,C,0,right,0.4360685360006755,1,0,,,,,,,,,,,,,,,,,,,,,1,,,,,,,,,,,,,,,,,,,,,,,,,,,,,,,,,,,,,,,,,,,,,,82,152812,21,Female,1,2024/03/12_12:13:31,YZ,None,
,,,,,,calibration,0,36,2,679,14,V,1,right,0.512398242000927,0,0,,,,,,,,,,,,,,,,,,,,,1,,,,,,,,,,,,,,,,,,,,,,,,,,,,,,,,,,,,,,,,,,,,,,82,152812,21,Female,1,2024/03/12_12:13:31,YZ,None,
,,,,,,calibration,0,36,2,679,,,,,,,,0.7999999999999999,0.5,0.1,0.9,0.0,0.9,0.4346111692850952,2,1,0,0,0,9,11,4,10,0,,,,1,,,,,,,,,,,,,,,,,,,,,,,,,,,,,,,,,,,,,,,,,,,,,,82,152812,21,Female,1,2024/03/12_12:13:31,YZ,None,
,,,,,,Calibration,0,,2,679,,,,,,,,,,,,,,,,,,,,,,,,,2,,,1,,,,,,,,,,,,,,,,,,,,,,,,,,,,,,,,,,,,,,,,,,,,,,82,152812,21,Female,1,2024/03/12_12:13:31,YZ,None,
,,,,,,calibration,0,8,2,679,1,J,0,right,0.2732778409990715,1,0,,,,,,,,,,,,,,,,,,,,,1,,,,,,,,,,,,,,,,,,,,,,,,,,,,,,,,,,,,,,,,,,,,,,82,152812,21,Female,1,2024/03/12_12:13:31,YZ,None,
,,,,,,calibration,0,8,2,679,2,C,0,right,0.2952917609982251,1,0,,,,,,,,,,,,,,,,,,,,,1,,,,,,,,,,,,,,,,,,,,,,,,,,,,,,,,,,,,,,,,,,,,,,82,152812,21,Female,1,2024/03/12_12:13:31,YZ,None,
,,,,,,calibration,0,8,2,679,3,J,1,left,0.4662011030013673,1,0,,,,,,,,,,,,,,,,,,,,,1,,,,,,,,,,,,,,,,,,,,,,,,,,,,,,,,,,,,,,,,,,,,,,82,152812,21,Female,1,2024/03/12_12:13:31,YZ,None,
,,,,,,calibration,0,8,2,679,4,S,0,right,0.35943660300108604,1,0,,,,,,,,,,,,,,,,,,,,,1,,,,,,,,,,,,,,,,,,,,,,,,,,,,,,,,,,,,,,,,,,,,,,82,152812,21,Female,1,2024/03/12_12:13:31,YZ,None,
,,,,,,calibration,0,8,2,679,5,J,1,left,0.40827127100055804,1,0,,,,,,,,,,,,,,,,,,,,,1,,,,,,,,,,,,,,,,,,,,,,,,,,,,,,,,,,,,,,,,,,,,,,82,152812,21,Female,1,2024/03/12_12:13:31,YZ,None,
,,,,,,calibration,0,8,2,679,6,N,0,right,0.4004508309990342,1,0,,,,,,,,,,,,,,,,,,,,,1,,,,,,,,,,,,,,,,,,,,,,,,,,,,,,,,,,,,,,,,,,,,,,82,152812,21,Female,1,2024/03/12_12:13:31,YZ,None,
,,,,,,calibration,0,8,2,679,7,V,0,right,0.4714465940014634,1,0,,,,,,,,,,,,,,,,,,,,,1,,,,,,,,,,,,,,,,,,,,,,,,,,,,,,,,,,,,,,,,,,,,,,82,152812,21,Female,1,2024/03/12_12:13:31,YZ,None,
,,,,,,calibration,0,8,2,679,8,F,0,left,0.49635718400168116,0,0,,,,,,,,,,,,,,,,,,,,,1,,,,,,,,,,,,,,,,,,,,,,,,,,,,,,,,,,,,,,,,,,,,,,82,152812,21,Female,1,2024/03/12_12:13:31,YZ,None,
,,,,,,calibration,0,8,2,679,9,C,0,left,nan,0,1,,,,,,,,,,,,,,,,,,,,,1,,,,,,,,,,,,,,,,,,,,,,,,,,,,,,,,,,,,,,,,,,,,,,82,152812,21,Female,1,2024/03/12_12:13:31,YZ,None,
,,,,,,calibration,0,8,2,679,10,X,0,right,0.46725153300212696,1,0,,,,,,,,,,,,,,,,,,,,,1,,,,,,,,,,,,,,,,,,,,,,,,,,,,,,,,,,,,,,,,,,,,,,82,152812,21,Female,1,2024/03/12_12:13:31,YZ,None,
,,,,,,calibration,0,8,2,679,11,C,1,right,0.4020554519993311,0,0,,,,,,,,,,,,,,,,,,,,,1,,,,,,,,,,,,,,,,,,,,,,,,,,,,,,,,,,,,,,,,,,,,,,82,152812,21,Female,1,2024/03/12_12:13:31,YZ,None,
,,,,,,calibration,0,8,2,679,12,N,0,right,0.4602496190018428,1,0,,,,,,,,,,,,,,,,,,,,,1,,,,,,,,,,,,,,,,,,,,,,,,,,,,,,,,,,,,,,,,,,,,,,82,152812,21,Female,1,2024/03/12_12:13:31,YZ,None,
,,,,,,calibration,0,8,2,679,13,X,0,left,0.41307964800216723,0,0,,,,,,,,,,,,,,,,,,,,,1,,,,,,,,,,,,,,,,,,,,,,,,,,,,,,,,,,,,,,,,,,,,,,82,152812,21,Female,1,2024/03/12_12:13:31,YZ,None,
,,,,,,calibration,0,8,2,679,14,N,1,left,0.5917399739992106,1,0,,,,,,,,,,,,,,,,,,,,,1,,,,,,,,,,,,,,,,,,,,,,,,,,,,,,,,,,,,,,,,,,,,,,82,152812,21,Female,1,2024/03/12_12:13:31,YZ,None,
,,,,,,calibration,0,8,2,679,,,,,,,,0.8374999999999999,0.75,0.2,0.7777777777777778,0.07142857142857142,0.7285714285714286,0.4234699549236281,3,2,0,1,1,7,10,4,10,0,,,,1,,,,,,,,,,,,,,,,,,,,,,,,,,,,,,,,,,,,,,,,,,,,,,82,152812,21,Female,1,2024/03/12_12:13:31,YZ,None,
,,,,,,Calibration,0,,2,679,,,,,,,,,,,,,,,,,,,,,,,,,3,,,1,,,,,,,,,,,,,,,,,,,,,,,,,,,,,,,,,,,,,,,,,,,,,,82,152812,21,Female,1,2024/03/12_12:13:31,YZ,None,
,,,,,,calibration,0,26,2,679,1,S,0,right,0.34316134999971837,1,0,,,,,,,,,,,,,,,,,,,,,1,,,,,,,,,,,,,,,,,,,,,,,,,,,,,,,,,,,,,,,,,,,,,,82,152812,21,Female,1,2024/03/12_12:13:31,YZ,None,
,,,,,,calibration,0,26,2,679,2,N,0,right,0.42883800600247923,1,0,,,,,,,,,,,,,,,,,,,,,1,,,,,,,,,,,,,,,,,,,,,,,,,,,,,,,,,,,,,,,,,,,,,,82,152812,21,Female,1,2024/03/12_12:13:31,YZ,None,
,,,,,,calibration,0,26,2,679,3,S,1,left,0.36419951700008824,1,0,,,,,,,,,,,,,,,,,,,,,1,,,,,,,,,,,,,,,,,,,,,,,,,,,,,,,,,,,,,,,,,,,,,,82,152812,21,Female,1,2024/03/12_12:13:31,YZ,None,
,,,,,,calibration,0,26,2,679,4,C,0,right,0.38515142500182264,1,0,,,,,,,,,,,,,,,,,,,,,1,,,,,,,,,,,,,,,,,,,,,,,,,,,,,,,,,,,,,,,,,,,,,,82,152812,21,Female,1,2024/03/12_12:13:31,YZ,None,
,,,,,,calibration,0,26,2,679,5,S,1,left,0.5124656039988622,1,0,,,,,,,,,,,,,,,,,,,,,1,,,,,,,,,,,,,,,,,,,,,,,,,,,,,,,,,,,,,,,,,,,,,,82,152812,21,Female,1,2024/03/12_12:13:31,YZ,None,
,,,,,,calibration,0,26,2,679,6,N,0,right,0.3219111159996828,1,0,,,,,,,,,,,,,,,,,,,,,1,,,,,,,,,,,,,,,,,,,,,,,,,,,,,,,,,,,,,,,,,,,,,,82,152812,21,Female,1,2024/03/12_12:13:31,YZ,None,
,,,,,,calibration,0,26,2,679,7,J,0,right,0.4795155270003306,1,0,,,,,,,,,,,,,,,,,,,,,1,,,,,,,,,,,,,,,,,,,,,,,,,,,,,,,,,,,,,,,,,,,,,,82,152812,21,Female,1,2024/03/12_12:13:31,YZ,None,
,,,,,,calibration,0,26,2,679,8,N,1,right,0.36464938199787866,0,0,,,,,,,,,,,,,,,,,,,,,1,,,,,,,,,,,,,,,,,,,,,,,,,,,,,,,,,,,,,,,,,,,,,,82,152812,21,Female,1,2024/03/12_12:13:31,YZ,None,
,,,,,,calibration,0,26,2,679,9,X,0,right,0.36757637499977136,1,0,,,,,,,,,,,,,,,,,,,,,1,,,,,,,,,,,,,,,,,,,,,,,,,,,,,,,,,,,,,,,,,,,,,,82,152812,21,Female,1,2024/03/12_12:13:31,YZ,None,
,,,,,,calibration,0,26,2,679,10,S,0,right,0.371865181998146,1,0,,,,,,,,,,,,,,,,,,,,,1,,,,,,,,,,,,,,,,,,,,,,,,,,,,,,,,,,,,,,,,,,,,,,82,152812,21,Female,1,2024/03/12_12:13:31,YZ,None,
,,,,,,calibration,0,26,2,679,11,X,1,left,0.47271192599873757,1,0,,,,,,,,,,,,,,,,,,,,,1,,,,,,,,,,,,,,,,,,,,,,,,,,,,,,,,,,,,,,,,,,,,,,82,152812,21,Female,1,2024/03/12_12:13:31,YZ,None,
,,,,,,calibration,0,26,2,679,12,V,0,right,0.3203487350001524,1,0,,,,,,,,,,,,,,,,,,,,,1,,,,,,,,,,,,,,,,,,,,,,,,,,,,,,,,,,,,,,,,,,,,,,82,152812,21,Female,1,2024/03/12_12:13:31,YZ,None,
,,,,,,calibration,0,26,2,679,13,Q,0,right,0.3514351000012539,1,0,,,,,,,,,,,,,,,,,,,,,1,,,,,,,,,,,,,,,,,,,,,,,,,,,,,,,,,,,,,,,,,,,,,,82,152812,21,Female,1,2024/03/12_12:13:31,YZ,None,
,,,,,,calibration,0,26,2,679,14,N,0,right,0.3762797080016753,1,0,,,,,,,,,,,,,,,,,,,,,1,,,,,,,,,,,,,,,,,,,,,,,,,,,,,,,,,,,,,,,,,,,,,,82,152812,21,Female,1,2024/03/12_12:13:31,YZ,None,
,,,,,,calibration,0,26,2,679,,,,,,,,0.9375,0.75,0.0,1.0,0.0,1.0,0.39000778235718564,3,0,0,0,0,10,13,4,10,0,,,,1,,,,,,,,,,,,,,,,,,,,,,,,,,,,,,,,,,,,,,,,,,,,,,82,152812,21,Female,1,2024/03/12_12:13:31,YZ,None,
,,,,,,Calibration,0,,2,679,,,,,,,,,,,,,,,,,,,,,,,,,4,,,1,,,,,,,,,,,,,,,,,,,,,,,,,,,,,,,,,,,,,,,,,,,,,,82,152812,21,Female,1,2024/03/12_12:13:31,YZ,None,
,,,,,,calibration,0,24,2,583,1,C,0,right,0.2710716270012199,1,0,,,,,,,,,,,,,,,,,,,,,1,,,,,,,,,,,,,,,,,,,,,,,,,,,,,,,,,,,,,,,,,,,,,,82,152812,21,Female,1,2024/03/12_12:13:31,YZ,None,
,,,,,,calibration,0,24,2,583,2,S,0,right,0.30825386099968455,1,0,,,,,,,,,,,,,,,,,,,,,1,,,,,,,,,,,,,,,,,,,,,,,,,,,,,,,,,,,,,,,,,,,,,,82,152812,21,Female,1,2024/03/12_12:13:31,YZ,None,
,,,,,,calibration,0,24,2,583,3,V,0,right,0.3403612130023248,1,0,,,,,,,,,,,,,,,,,,,,,1,,,,,,,,,,,,,,,,,,,,,,,,,,,,,,,,,,,,,,,,,,,,,,82,152812,21,Female,1,2024/03/12_12:13:31,YZ,None,
,,,,,,calibration,0,24,2,583,4,C,0,right,0.34536584400120773,1,0,,,,,,,,,,,,,,,,,,,,,1,,,,,,,,,,,,,,,,,,,,,,,,,,,,,,,,,,,,,,,,,,,,,,82,152812,21,Female,1,2024/03/12_12:13:31,YZ,None,
,,,,,,calibration,0,24,2,583,5,V,1,right,0.38827337099792203,0,0,,,,,,,,,,,,,,,,,,,,,1,,,,,,,,,,,,,,,,,,,,,,,,,,,,,,,,,,,,,,,,,,,,,,82,152812,21,Female,1,2024/03/12_12:13:31,YZ,None,
,,,,,,calibration,0,24,2,583,6,N,0,right,0.3763104249992466,1,0,,,,,,,,,,,,,,,,,,,,,1,,,,,,,,,,,,,,,,,,,,,,,,,,,,,,,,,,,,,,,,,,,,,,82,152812,21,Female,1,2024/03/12_12:13:31,YZ,None,
,,,,,,calibration,0,24,2,583,7,V,1,left,0.4851114199991571,1,0,,,,,,,,,,,,,,,,,,,,,1,,,,,,,,,,,,,,,,,,,,,,,,,,,,,,,,,,,,,,,,,,,,,,82,152812,21,Female,1,2024/03/12_12:13:31,YZ,None,
,,,,,,calibration,0,24,2,583,8,J,0,right,0.3433032920002006,1,0,,,,,,,,,,,,,,,,,,,,,1,,,,,,,,,,,,,,,,,,,,,,,,,,,,,,,,,,,,,,,,,,,,,,82,152812,21,Female,1,2024/03/12_12:13:31,YZ,None,
,,,,,,calibration,0,24,2,583,9,F,0,right,0.37654774600014207,1,0,,,,,,,,,,,,,,,,,,,,,1,,,,,,,,,,,,,,,,,,,,,,,,,,,,,,,,,,,,,,,,,,,,,,82,152812,21,Female,1,2024/03/12_12:13:31,YZ,None,
,,,,,,calibration,0,24,2,583,10,J,1,right,0.34589328299989575,0,0,,,,,,,,,,,,,,,,,,,,,1,,,,,,,,,,,,,,,,,,,,,,,,,,,,,,,,,,,,,,,,,,,,,,82,152812,21,Female,1,2024/03/12_12:13:31,YZ,None,
,,,,,,calibration,0,24,2,583,11,F,1,right,0.395503841999016,0,0,,,,,,,,,,,,,,,,,,,,,1,,,,,,,,,,,,,,,,,,,,,,,,,,,,,,,,,,,,,,,,,,,,,,82,152812,21,Female,1,2024/03/12_12:13:31,YZ,None,
,,,,,,calibration,0,24,2,583,12,S,0,right,0.4244795479971799,1,0,,,,,,,,,,,,,,,,,,,,,1,,,,,,,,,,,,,,,,,,,,,,,,,,,,,,,,,,,,,,,,,,,,,,82,152812,21,Female,1,2024/03/12_12:13:31,YZ,None,
,,,,,,calibration,0,24,2,583,13,F,1,left,0.5100207230025262,1,0,,,,,,,,,,,,,,,,,,,,,1,,,,,,,,,,,,,,,,,,,,,,,,,,,,,,,,,,,,,,,,,,,,,,82,152812,21,Female,1,2024/03/12_12:13:31,YZ,None,
,,,,,,calibration,0,24,2,583,14,Q,0,right,0.3155648870015284,1,0,,,,,,,,,,,,,,,,,,,,,1,,,,,,,,,,,,,,,,,,,,,,,,,,,,,,,,,,,,,,,,,,,,,,82,152812,21,Female,1,2024/03/12_12:13:31,YZ,None,
,,,,,,calibration,0,24,2,583,15,S,0,left,0.3887326160001976,0,0,,,,,,,,,,,,,,,,,,,,,1,,,,,,,,,,,,,,,,,,,,,,,,,,,,,,,,,,,,,,,,,,,,,,82,152812,21,Female,1,2024/03/12_12:13:31,YZ,None,
,,,,,,calibration,0,24,2,583,,,,,,,,0.7625,0.4,0.1,0.9,0.0,0.9,0.3743195798667633,2,1,0,0,0,9,11,5,10,0,,,,1,,,,,,,,,,,,,,,,,,,,,,,,,,,,,,,,,,,,,,,,,,,,,,82,152812,21,Female,1,2024/03/12_12:13:31,YZ,None,
,,,,,,Calibration,0,,2,583,,,,,,,,,,,,,,,,,,,,,,,,,5,,,1,,,,,,,,,,,,,,,,,,,,,,,,,,,,,,,,,,,,,,,,,,,,,,82,152812,21,Female,1,2024/03/12_12:13:31,YZ,None,
,,,,,,calibration,0,22,2,583,1,F,0,right,0.25571031399886124,1,0,,,,,,,,,,,,,,,,,,,,,1,,,,,,,,,,,,,,,,,,,,,,,,,,,,,,,,,,,,,,,,,,,,,,82,152812,21,Female,1,2024/03/12_12:13:31,YZ,None,
,,,,,,calibration,0,22,2,583,2,F,0,right,0.3114489420004247,1,0,,,,,,,,,,,,,,,,,,,,,1,,,,,,,,,,,,,,,,,,,,,,,,,,,,,,,,,,,,,,,,,,,,,,82,152812,21,Female,1,2024/03/12_12:13:31,YZ,None,
,,,,,,calibration,0,22,2,583,3,F,1,left,0.3526106350000191,1,0,,,,,,,,,,,,,,,,,,,,,1,,,,,,,,,,,,,,,,,,,,,,,,,,,,,,,,,,,,,,,,,,,,,,82,152812,21,Female,1,2024/03/12_12:13:31,YZ,None,
,,,,,,calibration,0,22,2,583,4,F,1,left,0.39145604399891454,1,0,,,,,,,,,,,,,,,,,,,,,1,,,,,,,,,,,,,,,,,,,,,,,,,,,,,,,,,,,,,,,,,,,,,,82,152812,21,Female,1,2024/03/12_12:13:31,YZ,None,
,,,,,,calibration,0,22,2,583,5,X,0,right,0.3675536250011646,1,0,,,,,,,,,,,,,,,,,,,,,1,,,,,,,,,,,,,,,,,,,,,,,,,,,,,,,,,,,,,,,,,,,,,,82,152812,21,Female,1,2024/03/12_12:13:31,YZ,None,
,,,,,,calibration,0,22,2,583,6,F,1,left,0.45519701699959114,1,0,,,,,,,,,,,,,,,,,,,,,1,,,,,,,,,,,,,,,,,,,,,,,,,,,,,,,,,,,,,,,,,,,,,,82,152812,21,Female,1,2024/03/12_12:13:31,YZ,None,
,,,,,,calibration,0,22,2,583,7,N,0,right,0.399961039001937,1,0,,,,,,,,,,,,,,,,,,,,,1,,,,,,,,,,,,,,,,,,,,,,,,,,,,,,,,,,,,,,,,,,,,,,82,152812,21,Female,1,2024/03/12_12:13:31,YZ,None,
,,,,,,calibration,0,22,2,583,8,S,0,left,0.40450487800262636,0,0,,,,,,,,,,,,,,,,,,,,,1,,,,,,,,,,,,,,,,,,,,,,,,,,,,,,,,,,,,,,,,,,,,,,82,152812,21,Female,1,2024/03/12_12:13:31,YZ,None,
,,,,,,calibration,0,22,2,583,9,X,0,right,0.5653624959995796,1,0,,,,,,,,,,,,,,,,,,,,,1,,,,,,,,,,,,,,,,,,,,,,,,,,,,,,,,,,,,,,,,,,,,,,82,152812,21,Female,1,2024/03/12_12:13:31,YZ,None,
,,,,,,calibration,0,22,2,583,10,S,1,right,0.25758064900219324,0,0,,,,,,,,,,,,,,,,,,,,,1,,,,,,,,,,,,,,,,,,,,,,,,,,,,,,,,,,,,,,,,,,,,,,82,152812,21,Female,1,2024/03/12_12:13:31,YZ,None,
,,,,,,calibration,0,22,2,583,11,X,1,left,0.6137381810003717,1,0,,,,,,,,,,,,,,,,,,,,,1,,,,,,,,,,,,,,,,,,,,,,,,,,,,,,,,,,,,,,,,,,,,,,82,152812,21,Female,1,2024/03/12_12:13:31,YZ,None,
,,,,,,calibration,0,22,2,583,12,J,0,right,0.41899876299794414,1,0,,,,,,,,,,,,,,,,,,,,,1,,,,,,,,,,,,,,,,,,,,,,,,,,,,,,,,,,,,,,,,,,,,,,82,152812,21,Female,1,2024/03/12_12:13:31,YZ,None,
,,,,,,calibration,0,22,2,583,13,N,0,right,0.368221712000377,1,0,,,,,,,,,,,,,,,,,,,,,1,,,,,,,,,,,,,,,,,,,,,,,,,,,,,,,,,,,,,,,,,,,,,,82,152812,21,Female,1,2024/03/12_12:13:31,YZ,None,
,,,,,,calibration,0,22,2,583,14,X,0,right,0.43393345900040003,1,0,,,,,,,,,,,,,,,,,,,,,1,,,,,,,,,,,,,,,,,,,,,,,,,,,,,,,,,,,,,,,,,,,,,,82,152812,21,Female,1,2024/03/12_12:13:31,YZ,None,
,,,,,,calibration,0,22,2,583,15,J,0,right,0.5973403080024582,1,0,,,,,,,,,,,,,,,,,,,,,1,,,,,,,,,,,,,,,,,,,,,,,,,,,,,,,,,,,,,,,,,,,,,,82,152812,21,Female,1,2024/03/12_12:13:31,YZ,None,
,,,,,,calibration,0,22,2,583,,,,,,,,0.905,0.8,0.1,0.9,0.0,0.9,0.4129078708004575,4,1,0,0,0,9,13,5,10,0,,,,1,,,,,,,,,,,,,,,,,,,,,,,,,,,,,,,,,,,,,,,,,,,,,,82,152812,21,Female,1,2024/03/12_12:13:31,YZ,None,
,,,,,,Calibration,0,,2,583,,,,,,,,,,,,,,,,,,,,,,,,,6,,,1,,,,,,,,,,,,,,,,,,,,,,,,,,,,,,,,,,,,,,,,,,,,,,82,152812,21,Female,1,2024/03/12_12:13:31,YZ,None,
,,,,,,calibration,0,6,2,500,1,N,0,right,0.31237180400057696,1,0,,,,,,,,,,,,,,,,,,,,,1,,,,,,,,,,,,,,,,,,,,,,,,,,,,,,,,,,,,,,,,,,,,,,82,152812,21,Female,1,2024/03/12_12:13:31,YZ,None,
,,,,,,calibration,0,6,2,500,2,F,0,right,0.3534108189996914,1,0,,,,,,,,,,,,,,,,,,,,,1,,,,,,,,,,,,,,,,,,,,,,,,,,,,,,,,,,,,,,,,,,,,,,82,152812,21,Female,1,2024/03/12_12:13:31,YZ,None,
,,,,,,calibration,0,6,2,500,3,N,1,left,0.30340098700253293,1,0,,,,,,,,,,,,,,,,,,,,,1,,,,,,,,,,,,,,,,,,,,,,,,,,,,,,,,,,,,,,,,,,,,,,82,152812,21,Female,1,2024/03/12_12:13:31,YZ,None,
,,,,,,calibration,0,6,2,500,4,S,0,right,0.319018310001411,1,0,,,,,,,,,,,,,,,,,,,,,1,,,,,,,,,,,,,,,,,,,,,,,,,,,,,,,,,,,,,,,,,,,,,,82,152812,21,Female,1,2024/03/12_12:13:31,YZ,None,
,,,,,,calibration,0,6,2,500,5,N,1,right,0.3767398830023012,0,0,,,,,,,,,,,,,,,,,,,,,1,,,,,,,,,,,,,,,,,,,,,,,,,,,,,,,,,,,,,,,,,,,,,,82,152812,21,Female,1,2024/03/12_12:13:31,YZ,None,
,,,,,,calibration,0,6,2,500,6,S,1,right,0.46466009999858215,0,0,,,,,,,,,,,,,,,,,,,,,1,,,,,,,,,,,,,,,,,,,,,,,,,,,,,,,,,,,,,,,,,,,,,,82,152812,21,Female,1,2024/03/12_12:13:31,YZ,None,
,,,,,,calibration,0,6,2,500,7,X,0,right,0.3724943630004418,1,0,,,,,,,,,,,,,,,,,,,,,1,,,,,,,,,,,,,,,,,,,,,,,,,,,,,,,,,,,,,,,,,,,,,,82,152812,21,Female,1,2024/03/12_12:13:31,YZ,None,
,,,,,,calibration,0,6,2,500,8,J,0,right,0.42540426300183753,1,0,,,,,,,,,,,,,,,,,,,,,1,,,,,,,,,,,,,,,,,,,,,,,,,,,,,,,,,,,,,,,,,,,,,,82,152812,21,Female,1,2024/03/12_12:13:31,YZ,None,
,,,,,,calibration,0,6,2,500,9,Q,0,right,0.4727307719986129,1,0,,,,,,,,,,,,,,,,,,,,,1,,,,,,,,,,,,,,,,,,,,,,,,,,,,,,,,,,,,,,,,,,,,,,82,152812,21,Female,1,2024/03/12_12:13:31,YZ,None,
,,,,,,calibration,0,6,2,500,10,C,0,right,0.4735099560020899,1,0,,,,,,,,,,,,,,,,,,,,,1,,,,,,,,,,,,,,,,,,,,,,,,,,,,,,,,,,,,,,,,,,,,,,82,152812,21,Female,1,2024/03/12_12:13:31,YZ,None,
,,,,,,calibration,0,6,2,500,11,X,0,right,0.4876226440028404,1,0,,,,,,,,,,,,,,,,,,,,,1,,,,,,,,,,,,,,,,,,,,,,,,,,,,,,,,,,,,,,,,,,,,,,82,152812,21,Female,1,2024/03/12_12:13:31,YZ,None,
,,,,,,calibration,0,6,2,500,12,S,0,left,0.6095946759996878,0,0,,,,,,,,,,,,,,,,,,,,,1,,,,,,,,,,,,,,,,,,,,,,,,,,,,,,,,,,,,,,,,,,,,,,82,152812,21,Female,1,2024/03/12_12:13:31,YZ,None,
,,,,,,calibration,0,6,2,500,13,J,0,right,0.36546521200216375,1,0,,,,,,,,,,,,,,,,,,,,,1,,,,,,,,,,,,,,,,,,,,,,,,,,,,,,,,,,,,,,,,,,,,,,82,152812,21,Female,1,2024/03/12_12:13:31,YZ,None,
,,,,,,calibration,0,6,2,500,14,F,0,right,0.4166067629994359,1,0,,,,,,,,,,,,,,,,,,,,,1,,,,,,,,,,,,,,,,,,,,,,,,,,,,,,,,,,,,,,,,,,,,,,82,152812,21,Female,1,2024/03/12_12:13:31,YZ,None,
,,,,,,calibration,0,6,2,500,15,V,0,right,0.30047153999839793,1,0,,,,,,,,,,,,,,,,,,,,,1,,,,,,,,,,,,,,,,,,,,,,,,,,,,,,,,,,,,,,,,,,,,,,82,152812,21,Female,1,2024/03/12_12:13:31,YZ,None,
,,,,,,calibration,0,6,2,500,16,F,1,left,0.40742398599832086,1,0,,,,,,,,,,,,,,,,,,,,,1,,,,,,,,,,,,,,,,,,,,,,,,,,,,,,,,,,,,,,,,,,,,,,82,152812,21,Female,1,2024/03/12_12:13:31,YZ,None,
,,,,,,calibration,0,6,2,500,,,,,,,,0.8125,0.5,0.08333333333333333,0.9166666666666666,0.0,0.9166666666666666,0.4038078798755578,2,1,0,0,0,11,13,4,12,0,,,,1,,,,,,,,,,,,,,,,,,,,,,,,,,,,,,,,,,,,,,,,,,,,,,82,152812,21,Female,1,2024/03/12_12:13:31,YZ,None,
,,,,,,Calibration,0,,2,500,,,,,,,,,,,,,,,,,,,,,,,,,7,,,1,,,,,,,,,,,,,,,,,,,,,,,,,,,,,,,,,,,,,,,,,,,,,,82,152812,21,Female,1,2024/03/12_12:13:31,YZ,None,
,,,,,,calibration,0,9,2,500,1,J,0,right,0.3028279409991228,1,0,,,,,,,,,,,,,,,,,,,,,1,,,,,,,,,,,,,,,,,,,,,,,,,,,,,,,,,,,,,,,,,,,,,,82,152812,21,Female,1,2024/03/12_12:13:31,YZ,None,
,,,,,,calibration,0,9,2,500,2,N,0,right,0.29276528699847404,1,0,,,,,,,,,,,,,,,,,,,,,1,,,,,,,,,,,,,,,,,,,,,,,,,,,,,,,,,,,,,,,,,,,,,,82,152812,21,Female,1,2024/03/12_12:13:31,YZ,None,
,,,,,,calibration,0,9,2,500,3,J,1,right,0.34899669000151334,0,0,,,,,,,,,,,,,,,,,,,,,1,,,,,,,,,,,,,,,,,,,,,,,,,,,,,,,,,,,,,,,,,,,,,,82,152812,21,Female,1,2024/03/12_12:13:31,YZ,None,
,,,,,,calibration,0,9,2,500,4,F,0,right,0.30537193800046225,1,0,,,,,,,,,,,,,,,,,,,,,1,,,,,,,,,,,,,,,,,,,,,,,,,,,,,,,,,,,,,,,,,,,,,,82,152812,21,Female,1,2024/03/12_12:13:31,YZ,None,
,,,,,,calibration,0,9,2,500,5,C,0,right,0.39595274000021163,1,0,,,,,,,,,,,,,,,,,,,,,1,,,,,,,,,,,,,,,,,,,,,,,,,,,,,,,,,,,,,,,,,,,,,,82,152812,21,Female,1,2024/03/12_12:13:31,YZ,None,
,,,,,,calibration,0,9,2,500,6,F,1,left,0.4179550440021558,1,0,,,,,,,,,,,,,,,,,,,,,1,,,,,,,,,,,,,,,,,,,,,,,,,,,,,,,,,,,,,,,,,,,,,,82,152812,21,Female,1,2024/03/12_12:13:31,YZ,None,
,,,,,,calibration,0,9,2,500,7,X,0,right,0.3139043259980099,1,0,,,,,,,,,,,,,,,,,,,,,1,,,,,,,,,,,,,,,,,,,,,,,,,,,,,,,,,,,,,,,,,,,,,,82,152812,21,Female,1,2024/03/12_12:13:31,YZ,None,
,,,,,,calibration,0,9,2,500,8,J,0,right,0.3373391300010553,1,0,,,,,,,,,,,,,,,,,,,,,1,,,,,,,,,,,,,,,,,,,,,,,,,,,,,,,,,,,,,,,,,,,,,,82,152812,21,Female,1,2024/03/12_12:13:31,YZ,None,
,,,,,,calibration,0,9,2,500,9,Q,0,left,0.42864826699951664,0,0,,,,,,,,,,,,,,,,,,,,,1,,,,,,,,,,,,,,,,,,,,,,,,,,,,,,,,,,,,,,,,,,,,,,82,152812,21,Female,1,2024/03/12_12:13:31,YZ,None,
,,,,,,calibration,0,9,2,500,10,J,1,right,0.24396850099947187,0,0,,,,,,,,,,,,,,,,,,,,,1,,,,,,,,,,,,,,,,,,,,,,,,,,,,,,,,,,,,,,,,,,,,,,82,152812,21,Female,1,2024/03/12_12:13:31,YZ,None,
,,,,,,calibration,0,9,2,500,11,F,0,right,0.32461563700053375,1,0,,,,,,,,,,,,,,,,,,,,,1,,,,,,,,,,,,,,,,,,,,,,,,,,,,,,,,,,,,,,,,,,,,,,82,152812,21,Female,1,2024/03/12_12:13:31,YZ,None,
,,,,,,calibration,0,9,2,500,12,J,1,left,0.4607167770009255,1,0,,,,,,,,,,,,,,,,,,,,,1,,,,,,,,,,,,,,,,,,,,,,,,,,,,,,,,,,,,,,,,,,,,,,82,152812,21,Female,1,2024/03/12_12:13:31,YZ,None,
,,,,,,calibration,0,9,2,500,13,F,1,right,0.3003645289973065,0,0,,,,,,,,,,,,,,,,,,,,,1,,,,,,,,,,,,,,,,,,,,,,,,,,,,,,,,,,,,,,,,,,,,,,82,152812,21,Female,1,2024/03/12_12:13:31,YZ,None,
,,,,,,calibration,0,9,2,500,14,X,0,right,0.42372297899783007,1,0,,,,,,,,,,,,,,,,,,,,,1,,,,,,,,,,,,,,,,,,,,,,,,,,,,,,,,,,,,,,,,,,,,,,82,152812,21,Female,1,2024/03/12_12:13:31,YZ,None,
,,,,,,calibration,0,9,2,500,15,V,0,right,0.38364606400136836,1,0,,,,,,,,,,,,,,,,,,,,,1,,,,,,,,,,,,,,,,,,,,,,,,,,,,,,,,,,,,,,,,,,,,,,82,152812,21,Female,1,2024/03/12_12:13:31,YZ,None,
,,,,,,calibration,0,9,2,500,16,C,0,right,0.39349150999987614,1,0,,,,,,,,,,,,,,,,,,,,,1,,,,,,,,,,,,,,,,,,,,,,,,,,,,,,,,,,,,,,,,,,,,,,82,152812,21,Female,1,2024/03/12_12:13:31,YZ,None,
,,,,,,calibration,0,9,2,500,,,,,,,,0.7704545454545455,0.4,0.09090909090909091,0.9090909090909091,0.0,0.9090909090909091,0.3546429599998646,2,1,0,0,0,10,12,5,11,0,,,,1,,,,,,,,,,,,,,,,,,,,,,,,,,,,,,,,,,,,,,,,,,,,,,82,152812,21,Female,1,2024/03/12_12:13:31,YZ,None,
,,,,,,Calibration,0,,2,500,,,,,,,,,,,,,,,,,,,,,,,,,8,,,1,,,,,,,,,,,,,,,,,,,,,,,,,,,,,,,,,,,,,,,,,,,,,,82,152812,21,Female,1,2024/03/12_12:13:31,YZ,None,
,,,,,,calibration,0,7,2,500,1,N,0,right,0.3705933749988617,1,0,,,,,,,,,,,,,,,,,,,,,1,,,,,,,,,,,,,,,,,,,,,,,,,,,,,,,,,,,,,,,,,,,,,,82,152812,21,Female,1,2024/03/12_12:13:31,YZ,None,
,,,,,,calibration,0,7,2,500,2,C,0,right,0.376274693000596,1,0,,,,,,,,,,,,,,,,,,,,,1,,,,,,,,,,,,,,,,,,,,,,,,,,,,,,,,,,,,,,,,,,,,,,82,152812,21,Female,1,2024/03/12_12:13:31,YZ,None,
,,,,,,calibration,0,7,2,500,3,V,0,right,0.3294831939965661,1,0,,,,,,,,,,,,,,,,,,,,,1,,,,,,,,,,,,,,,,,,,,,,,,,,,,,,,,,,,,,,,,,,,,,,82,152812,21,Female,1,2024/03/12_12:13:31,YZ,None,
,,,,,,calibration,0,7,2,500,4,F,0,right,0.6224803160002921,1,0,,,,,,,,,,,,,,,,,,,,,1,,,,,,,,,,,,,,,,,,,,,,,,,,,,,,,,,,,,,,,,,,,,,,82,152812,21,Female,1,2024/03/12_12:13:31,YZ,None,
,,,,,,calibration,0,7,2,500,5,V,1,right,0.3015877639991231,0,0,,,,,,,,,,,,,,,,,,,,,1,,,,,,,,,,,,,,,,,,,,,,,,,,,,,,,,,,,,,,,,,,,,,,82,152812,21,Female,1,2024/03/12_12:13:31,YZ,None,
,,,,,,calibration,0,7,2,500,6,J,0,right,0.3917010690020106,1,0,,,,,,,,,,,,,,,,,,,,,1,,,,,,,,,,,,,,,,,,,,,,,,,,,,,,,,,,,,,,,,,,,,,,82,152812,21,Female,1,2024/03/12_12:13:31,YZ,None,
,,,,,,calibration,0,7,2,500,7,N,0,right,0.34471802600091905,1,0,,,,,,,,,,,,,,,,,,,,,1,,,,,,,,,,,,,,,,,,,,,,,,,,,,,,,,,,,,,,,,,,,,,,82,152812,21,Female,1,2024/03/12_12:13:31,YZ,None,
,,,,,,calibration,0,7,2,500,8,J,1,right,0.3966351939998276,0,0,,,,,,,,,,,,,,,,,,,,,1,,,,,,,,,,,,,,,,,,,,,,,,,,,,,,,,,,,,,,,,,,,,,,82,152812,21,Female,1,2024/03/12_12:13:31,YZ,None,
,,,,,,calibration,0,7,2,500,9,N,1,left,0.48228523900252185,1,0,,,,,,,,,,,,,,,,,,,,,1,,,,,,,,,,,,,,,,,,,,,,,,,,,,,,,,,,,,,,,,,,,,,,82,152812,21,Female,1,2024/03/12_12:13:31,YZ,None,
,,,,,,calibration,0,7,2,500,10,Q,0,right,0.3760116090015799,1,0,,,,,,,,,,,,,,,,,,,,,1,,,,,,,,,,,,,,,,,,,,,,,,,,,,,,,,,,,,,,,,,,,,,,82,152812,21,Female,1,2024/03/12_12:13:31,YZ,None,
,,,,,,calibration,0,7,2,500,11,V,0,right,0.37753988599797594,1,0,,,,,,,,,,,,,,,,,,,,,1,,,,,,,,,,,,,,,,,,,,,,,,,,,,,,,,,,,,,,,,,,,,,,82,152812,21,Female,1,2024/03/12_12:13:31,YZ,None,
,,,,,,calibration,0,7,2,500,12,Q,1,left,0.45285538300231565,1,0,,,,,,,,,,,,,,,,,,,,,1,,,,,,,,,,,,,,,,,,,,,,,,,,,,,,,,,,,,,,,,,,,,,,82,152812,21,Female,1,2024/03/12_12:13:31,YZ,None,
,,,,,,calibration,0,7,2,500,13,N,0,right,0.3269125469996652,1,0,,,,,,,,,,,,,,,,,,,,,1,,,,,,,,,,,,,,,,,,,,,,,,,,,,,,,,,,,,,,,,,,,,,,82,152812,21,Female,1,2024/03/12_12:13:31,YZ,None,
,,,,,,calibration,0,7,2,500,14,Q,1,right,0.33841810599915334,0,0,,,,,,,,,,,,,,,,,,,,,1,,,,,,,,,,,,,,,,,,,,,,,,,,,,,,,,,,,,,,,,,,,,,,82,152812,21,Female,1,2024/03/12_12:13:31,YZ,None,
,,,,,,calibration,0,7,2,500,15,J,0,right,0.36873201900016284,1,0,,,,,,,,,,,,,,,,,,,,,1,,,,,,,,,,,,,,,,,,,,,,,,,,,,,,,,,,,,,,,,,,,,,,82,152812,21,Female,1,2024/03/12_12:13:31,YZ,None,
,,,,,,calibration,0,7,2,500,16,S,0,right,0.3036893870012136,1,0,,,,,,,,,,,,,,,,,,,,,1,,,,,,,,,,,,,,,,,,,,,,,,,,,,,,,,,,,,,,,,,,,,,,82,152812,21,Female,1,2024/03/12_12:13:31,YZ,None,
,,,,,,calibration,0,7,2,500,,,,,,,,0.85,0.4,0.0,1.0,0.0,1.0,0.38499486293767404,2,0,0,0,0,11,13,5,11,0,,,,1,,,,,,,,,,,,,,,,,,,,,,,,,,,,,,,,,,,,,,,,,,,,,,82,152812,21,Female,1,2024/03/12_12:13:31,YZ,None,
,,,,,,Calibration,0,,2,500,,,,,,,,,,,,,,,,,,,,,,,,,9,,,1,,,,,,,,,,,,,,,,,,,,,,,,,,,,,,,,,,,,,,,,,,,,,,82,152812,21,Female,1,2024/03/12_12:13:31,YZ,None,
,,,,,,calibration,0,35,2,500,1,X,0,right,0.29744378199757193,1,0,,,,,,,,,,,,,,,,,,,,,1,,,,,,,,,,,,,,,,,,,,,,,,,,,,,,,,,,,,,,,,,,,,,,82,152812,21,Female,1,2024/03/12_12:13:31,YZ,None,
,,,,,,calibration,0,35,2,500,2,N,0,right,0.29704900900105713,1,0,,,,,,,,,,,,,,,,,,,,,1,,,,,,,,,,,,,,,,,,,,,,,,,,,,,,,,,,,,,,,,,,,,,,82,152812,21,Female,1,2024/03/12_12:13:31,YZ,None,
,,,,,,calibration,0,35,2,500,3,C,0,right,0.2882064699988405,1,0,,,,,,,,,,,,,,,,,,,,,1,,,,,,,,,,,,,,,,,,,,,,,,,,,,,,,,,,,,,,,,,,,,,,82,152812,21,Female,1,2024/03/12_12:13:31,YZ,None,
,,,,,,calibration,0,35,2,500,4,N,1,right,0.3273443620018952,0,0,,,,,,,,,,,,,,,,,,,,,1,,,,,,,,,,,,,,,,,,,,,,,,,,,,,,,,,,,,,,,,,,,,,,82,152812,21,Female,1,2024/03/12_12:13:31,YZ,None,
,,,,,,calibration,0,35,2,500,5,S,0,right,0.24460344799808809,1,0,,,,,,,,,,,,,,,,,,,,,1,,,,,,,,,,,,,,,,,,,,,,,,,,,,,,,,,,,,,,,,,,,,,,82,152812,21,Female,1,2024/03/12_12:13:31,YZ,None,
,,,,,,calibration,0,35,2,500,6,C,0,right,0.268558594998467,1,0,,,,,,,,,,,,,,,,,,,,,1,,,,,,,,,,,,,,,,,,,,,,,,,,,,,,,,,,,,,,,,,,,,,,82,152812,21,Female,1,2024/03/12_12:13:31,YZ,None,
,,,,,,calibration,0,35,2,500,7,N,0,right,0.2554263729980448,1,0,,,,,,,,,,,,,,,,,,,,,1,,,,,,,,,,,,,,,,,,,,,,,,,,,,,,,,,,,,,,,,,,,,,,82,152812,21,Female,1,2024/03/12_12:13:31,YZ,None,
,,,,,,calibration,0,35,2,500,8,C,1,left,0.416003105998243,1,0,,,,,,,,,,,,,,,,,,,,,1,,,,,,,,,,,,,,,,,,,,,,,,,,,,,,,,,,,,,,,,,,,,,,82,152812,21,Female,1,2024/03/12_12:13:31,YZ,None,
,,,,,,calibration,0,35,2,500,9,Q,0,right,0.22031754799900227,1,0,,,,,,,,,,,,,,,,,,,,,1,,,,,,,,,,,,,,,,,,,,,,,,,,,,,,,,,,,,,,,,,,,,,,82,152812,21,Female,1,2024/03/12_12:13:31,YZ,None,
,,,,,,calibration,0,35,2,500,10,C,1,left,0.30439459499757504,1,0,,,,,,,,,,,,,,,,,,,,,1,,,,,,,,,,,,,,,,,,,,,,,,,,,,,,,,,,,,,,,,,,,,,,82,152812,21,Female,1,2024/03/12_12:13:31,YZ,None,
,,,,,,calibration,0,35,2,500,11,N,0,right,0.23179080500267446,1,0,,,,,,,,,,,,,,,,,,,,,1,,,,,,,,,,,,,,,,,,,,,,,,,,,,,,,,,,,,,,,,,,,,,,82,152812,21,Female,1,2024/03/12_12:13:31,YZ,None,
,,,,,,calibration,0,35,2,500,12,C,1,left,0.2603890099999262,1,0,,,,,,,,,,,,,,,,,,,,,1,,,,,,,,,,,,,,,,,,,,,,,,,,,,,,,,,,,,,,,,,,,,,,82,152812,21,Female,1,2024/03/12_12:13:31,YZ,None,
,,,,,,calibration,0,35,2,500,13,N,1,right,0.2521345980021579,0,0,,,,,,,,,,,,,,,,,,,,,1,,,,,,,,,,,,,,,,,,,,,,,,,,,,,,,,,,,,,,,,,,,,,,82,152812,21,Female,1,2024/03/12_12:13:31,YZ,None,
,,,,,,calibration,0,35,2,500,14,V,0,left,0.2242544180007826,0,0,,,,,,,,,,,,,,,,,,,,,1,,,,,,,,,,,,,,,,,,,,,,,,,,,,,,,,,,,,,,,,,,,,,,82,152812,21,Female,1,2024/03/12_12:13:31,YZ,None,
,,,,,,calibration,0,35,2,500,15,J,0,right,0.2091186559991911,1,0,,,,,,,,,,,,,,,,,,,,,1,,,,,,,,,,,,,,,,,,,,,,,,,,,,,,,,,,,,,,,,,,,,,,82,152812,21,Female,1,2024/03/12_12:13:31,YZ,None,
,,,,,,calibration,0,35,2,500,16,S,0,right,0.21778801800246583,1,0,,,,,,,,,,,,,,,,,,,,,1,,,,,,,,,,,,,,,,,,,,,,,,,,,,,,,,,,,,,,,,,,,,,,82,152812,21,Female,1,2024/03/12_12:13:31,YZ,None,
,,,,,,calibration,0,35,2,500,,,,,,,,0.8409090909090908,0.6,0.09090909090909091,0.9090909090909091,0.0,0.9090909090909091,0.26967642456224894,3,1,0,0,0,10,13,5,11,0,,,,1,,,,,,,,,,,,,,,,,,,,,,,,,,,,,,,,,,,,,,,,,,,,,,82,152812,21,Female,1,2024/03/12_12:13:31,YZ,None,
,,,,,,Calibration,0,,2,500,,,,,,,,,,,,,,,,,,,,,,,,,10,,,1,,,,,,,,,,,,,,,,,,,,,,,,,,,,,,,,,,,,,,,,,,,,,,82,152812,21,Female,1,2024/03/12_12:13:31,YZ,None,
,,,,,,calibration,0,15,2,500,1,C,0,right,0.2585990830011724,1,0,,,,,,,,,,,,,,,,,,,,,1,,,,,,,,,,,,,,,,,,,,,,,,,,,,,,,,,,,,,,,,,,,,,,82,152812,21,Female,1,2024/03/12_12:13:31,YZ,None,
,,,,,,calibration,0,15,2,500,2,V,0,right,0.32473823799955426,1,0,,,,,,,,,,,,,,,,,,,,,1,,,,,,,,,,,,,,,,,,,,,,,,,,,,,,,,,,,,,,,,,,,,,,82,152812,21,Female,1,2024/03/12_12:13:31,YZ,None,
,,,,,,calibration,0,15,2,500,3,C,1,left,0.31670088000100804,1,0,,,,,,,,,,,,,,,,,,,,,1,,,,,,,,,,,,,,,,,,,,,,,,,,,,,,,,,,,,,,,,,,,,,,82,152812,21,Female,1,2024/03/12_12:13:31,YZ,None,
,,,,,,calibration,0,15,2,500,4,S,0,right,0.20924762499998906,1,0,,,,,,,,,,,,,,,,,,,,,1,,,,,,,,,,,,,,,,,,,,,,,,,,,,,,,,,,,,,,,,,,,,,,82,152812,21,Female,1,2024/03/12_12:13:31,YZ,None,
,,,,,,calibration,0,15,2,500,5,X,0,left,0.24037844999838853,0,0,,,,,,,,,,,,,,,,,,,,,1,,,,,,,,,,,,,,,,,,,,,,,,,,,,,,,,,,,,,,,,,,,,,,82,152812,21,Female,1,2024/03/12_12:13:31,YZ,None,
,,,,,,calibration,0,15,2,500,6,S,1,right,0.23097882399815717,0,0,,,,,,,,,,,,,,,,,,,,,1,,,,,,,,,,,,,,,,,,,,,,,,,,,,,,,,,,,,,,,,,,,,,,82,152812,21,Female,1,2024/03/12_12:13:31,YZ,None,
,,,,,,calibration,0,15,2,500,7,X,1,right,0.212455463999504,0,0,,,,,,,,,,,,,,,,,,,,,1,,,,,,,,,,,,,,,,,,,,,,,,,,,,,,,,,,,,,,,,,,,,,,82,152812,21,Female,1,2024/03/12_12:13:31,YZ,None,
,,,,,,calibration,0,15,2,500,8,N,0,right,0.24549927900079638,1,0,,,,,,,,,,,,,,,,,,,,,1,,,,,,,,,,,,,,,,,,,,,,,,,,,,,,,,,,,,,,,,,,,,,,82,152812,21,Female,1,2024/03/12_12:13:31,YZ,None,
,,,,,,calibration,0,15,2,500,9,S,0,right,0.21830978700018022,1,0,,,,,,,,,,,,,,,,,,,,,1,,,,,,,,,,,,,,,,,,,,,,,,,,,,,,,,,,,,,,,,,,,,,,82,152812,21,Female,1,2024/03/12_12:13:31,YZ,None,
,,,,,,calibration,0,15,2,500,10,J,0,right,0.26457130599737866,1,0,,,,,,,,,,,,,,,,,,,,,1,,,,,,,,,,,,,,,,,,,,,,,,,,,,,,,,,,,,,,,,,,,,,,82,152812,21,Female,1,2024/03/12_12:13:31,YZ,None,
,,,,,,calibration,0,15,2,500,11,S,1,right,0.242088317998423,0,0,,,,,,,,,,,,,,,,,,,,,1,,,,,,,,,,,,,,,,,,,,,,,,,,,,,,,,,,,,,,,,,,,,,,82,152812,21,Female,1,2024/03/12_12:13:31,YZ,None,
,,,,,,calibration,0,15,2,500,12,V,0,right,0.25656493899805355,1,0,,,,,,,,,,,,,,,,,,,,,1,,,,,,,,,,,,,,,,,,,,,,,,,,,,,,,,,,,,,,,,,,,,,,82,152812,21,Female,1,2024/03/12_12:13:31,YZ,None,
,,,,,,calibration,0,15,2,500,13,F,0,right,0.2089681469988136,1,0,,,,,,,,,,,,,,,,,,,,,1,,,,,,,,,,,,,,,,,,,,,,,,,,,,,,,,,,,,,,,,,,,,,,82,152812,21,Female,1,2024/03/12_12:13:31,YZ,None,
,,,,,,calibration,0,15,2,500,14,V,1,right,0.2396061310028017,0,0,,,,,,,,,,,,,,,,,,,,,1,,,,,,,,,,,,,,,,,,,,,,,,,,,,,,,,,,,,,,,,,,,,,,82,152812,21,Female,1,2024/03/12_12:13:31,YZ,None,
,,,,,,calibration,0,15,2,500,15,X,0,right,0.3354072609981813,1,0,,,,,,,,,,,,,,,,,,,,,1,,,,,,,,,,,,,,,,,,,,,,,,,,,,,,,,,,,,,,,,,,,,,,82,152812,21,Female,1,2024/03/12_12:13:31,YZ,None,
,,,,,,calibration,0,15,2,500,16,J,0,right,0.38571848300125566,1,0,,,,,,,,,,,,,,,,,,,,,1,,,,,,,,,,,,,,,,,,,,,,,,,,,,,,,,,,,,,,,,,,,,,,82,152812,21,Female,1,2024/03/12_12:13:31,YZ,None,
,,,,,,calibration,0,15,2,500,,,,,,,,0.6636363636363636,0.2,0.09090909090909091,0.9090909090909091,0.0,0.9090909090909091,0.2618645134371036,1,1,0,0,0,10,11,5,11,0,,,,1,,,,,,,,,,,,,,,,,,,,,,,,,,,,,,,,,,,,,,,,,,,,,,82,152812,21,Female,1,2024/03/12_12:13:31,YZ,None,
,,,,,,Calibration,0,,2,500,,,,,,,,,,,,,,,,,,,,,,,,,11,,,1,,,,,,,,,,,,,,,,,,,,,,,,,,,,,,,,,,,,,,,,,,,,,,82,152812,21,Female,1,2024/03/12_12:13:31,YZ,None,
,,,,,,calibration,0,5,2,583,1,V,0,right,0.26545176100262324,1,0,,,,,,,,,,,,,,,,,,,,,1,,,,,,,,,,,,,,,,,,,,,,,,,,,,,,,,,,,,,,,,,,,,,,82,152812,21,Female,1,2024/03/12_12:13:31,YZ,None,
,,,,,,calibration,0,5,2,583,2,S,0,right,0.3091275990009308,1,0,,,,,,,,,,,,,,,,,,,,,1,,,,,,,,,,,,,,,,,,,,,,,,,,,,,,,,,,,,,,,,,,,,,,82,152812,21,Female,1,2024/03/12_12:13:31,YZ,None,
,,,,,,calibration,0,5,2,583,3,V,1,left,0.2582815860005212,1,0,,,,,,,,,,,,,,,,,,,,,1,,,,,,,,,,,,,,,,,,,,,,,,,,,,,,,,,,,,,,,,,,,,,,82,152812,21,Female,1,2024/03/12_12:13:31,YZ,None,
,,,,,,calibration,0,5,2,583,4,X,0,right,0.2769770220002101,1,0,,,,,,,,,,,,,,,,,,,,,1,,,,,,,,,,,,,,,,,,,,,,,,,,,,,,,,,,,,,,,,,,,,,,82,152812,21,Female,1,2024/03/12_12:13:31,YZ,None,
,,,,,,calibration,0,5,2,583,5,J,0,right,0.40180835200226284,1,0,,,,,,,,,,,,,,,,,,,,,1,,,,,,,,,,,,,,,,,,,,,,,,,,,,,,,,,,,,,,,,,,,,,,82,152812,21,Female,1,2024/03/12_12:13:31,YZ,None,
,,,,,,calibration,0,5,2,583,6,X,1,left,0.3438496109993139,1,0,,,,,,,,,,,,,,,,,,,,,1,,,,,,,,,,,,,,,,,,,,,,,,,,,,,,,,,,,,,,,,,,,,,,82,152812,21,Female,1,2024/03/12_12:13:31,YZ,None,
,,,,,,calibration,0,5,2,583,7,Q,0,right,0.24891578299866524,1,0,,,,,,,,,,,,,,,,,,,,,1,,,,,,,,,,,,,,,,,,,,,,,,,,,,,,,,,,,,,,,,,,,,,,82,152812,21,Female,1,2024/03/12_12:13:31,YZ,None,
,,,,,,calibration,0,5,2,583,8,X,1,right,0.2013495069986675,0,0,,,,,,,,,,,,,,,,,,,,,1,,,,,,,,,,,,,,,,,,,,,,,,,,,,,,,,,,,,,,,,,,,,,,82,152812,21,Female,1,2024/03/12_12:13:31,YZ,None,
,,,,,,calibration,0,5,2,583,9,C,0,right,0.27620493699942017,1,0,,,,,,,,,,,,,,,,,,,,,1,,,,,,,,,,,,,,,,,,,,,,,,,,,,,,,,,,,,,,,,,,,,,,82,152812,21,Female,1,2024/03/12_12:13:31,YZ,None,
,,,,,,calibration,0,5,2,583,10,X,1,right,0.26083110599938664,0,0,,,,,,,,,,,,,,,,,,,,,1,,,,,,,,,,,,,,,,,,,,,,,,,,,,,,,,,,,,,,,,,,,,,,82,152812,21,Female,1,2024/03/12_12:13:31,YZ,None,
,,,,,,calibration,0,5,2,583,11,C,1,right,0.28475292999792146,0,0,,,,,,,,,,,,,,,,,,,,,1,,,,,,,,,,,,,,,,,,,,,,,,,,,,,,,,,,,,,,,,,,,,,,82,152812,21,Female,1,2024/03/12_12:13:31,YZ,None,
,,,,,,calibration,0,5,2,583,12,Q,0,left,0.3515731629995571,0,0,,,,,,,,,,,,,,,,,,,,,1,,,,,,,,,,,,,,,,,,,,,,,,,,,,,,,,,,,,,,,,,,,,,,82,152812,21,Female,1,2024/03/12_12:13:31,YZ,None,
,,,,,,calibration,0,5,2,583,13,J,0,right,0.2277492049979628,1,0,,,,,,,,,,,,,,,,,,,,,1,,,,,,,,,,,,,,,,,,,,,,,,,,,,,,,,,,,,,,,,,,,,,,82,152812,21,Female,1,2024/03/12_12:13:31,YZ,None,
,,,,,,calibration,0,5,2,583,14,S,0,right,0.21824073400057387,1,0,,,,,,,,,,,,,,,,,,,,,1,,,,,,,,,,,,,,,,,,,,,,,,,,,,,,,,,,,,,,,,,,,,,,82,152812,21,Female,1,2024/03/12_12:13:31,YZ,None,
,,,,,,calibration,0,5,2,583,15,Q,0,right,0.313615775998187,1,0,,,,,,,,,,,,,,,,,,,,,1,,,,,,,,,,,,,,,,,,,,,,,,,,,,,,,,,,,,,,,,,,,,,,82,152812,21,Female,1,2024/03/12_12:13:31,YZ,None,
,,,,,,calibration,0,5,2,583,,,,,,,,0.7625,0.4,0.1,0.9,0.0,0.9,0.28258193813308025,2,1,0,0,0,9,11,5,10,0,,,,1,,,,,,,,,,,,,,,,,,,,,,,,,,,,,,,,,,,,,,,,,,,,,,82,152812,21,Female,1,2024/03/12_12:13:31,YZ,None,
,,,,,,Calibration,0,,2,583,,,,,,,,,,,,,,,,,,,,,,,,,12,,,1,,,,,,,,,,,,,,,,,,,,,,,,,,,,,,,,,,,,,,,,,,,,,,82,152812,21,Female,1,2024/03/12_12:13:31,YZ,None,
,,,,,,calibration,0,13,2,583,1,C,0,right,0.2904967360009323,1,0,,,,,,,,,,,,,,,,,,,,,1,,,,,,,,,,,,,,,,,,,,,,,,,,,,,,,,,,,,,,,,,,,,,,82,152812,21,Female,1,2024/03/12_12:13:31,YZ,None,
,,,,,,calibration,0,13,2,583,2,S,0,right,0.2487855790022877,1,0,,,,,,,,,,,,,,,,,,,,,1,,,,,,,,,,,,,,,,,,,,,,,,,,,,,,,,,,,,,,,,,,,,,,82,152812,21,Female,1,2024/03/12_12:13:31,YZ,None,
,,,,,,calibration,0,13,2,583,3,Q,0,left,0.21018833500056644,0,0,,,,,,,,,,,,,,,,,,,,,1,,,,,,,,,,,,,,,,,,,,,,,,,,,,,,,,,,,,,,,,,,,,,,82,152812,21,Female,1,2024/03/12_12:13:31,YZ,None,
,,,,,,calibration,0,13,2,583,4,F,0,left,0.392214896997757,0,0,,,,,,,,,,,,,,,,,,,,,1,,,,,,,,,,,,,,,,,,,,,,,,,,,,,,,,,,,,,,,,,,,,,,82,152812,21,Female,1,2024/03/12_12:13:31,YZ,None,
,,,,,,calibration,0,13,2,583,5,Q,1,left,nan,0,1,,,,,,,,,,,,,,,,,,,,,1,,,,,,,,,,,,,,,,,,,,,,,,,,,,,,,,,,,,,,,,,,,,,,82,152812,21,Female,1,2024/03/12_12:13:31,YZ,None,
,,,,,,calibration,0,13,2,583,6,X,0,left,nan,0,1,,,,,,,,,,,,,,,,,,,,,1,,,,,,,,,,,,,,,,,,,,,,,,,,,,,,,,,,,,,,,,,,,,,,82,152812,21,Female,1,2024/03/12_12:13:31,YZ,None,
,,,,,,calibration,0,13,2,583,7,Q,1,right,0.5912154669968004,0,0,,,,,,,,,,,,,,,,,,,,,1,,,,,,,,,,,,,,,,,,,,,,,,,,,,,,,,,,,,,,,,,,,,,,82,152812,21,Female,1,2024/03/12_12:13:31,YZ,None,
,,,,,,calibration,0,13,2,583,8,C,0,right,0.5442162860017561,1,0,,,,,,,,,,,,,,,,,,,,,1,,,,,,,,,,,,,,,,,,,,,,,,,,,,,,,,,,,,,,,,,,,,,,82,152812,21,Female,1,2024/03/12_12:13:31,YZ,None,
,,,,,,calibration,0,13,2,583,9,Q,1,left,0.4452591970002686,1,0,,,,,,,,,,,,,,,,,,,,,1,,,,,,,,,,,,,,,,,,,,,,,,,,,,,,,,,,,,,,,,,,,,,,82,152812,21,Female,1,2024/03/12_12:13:31,YZ,None,
,,,,,,calibration,0,13,2,583,10,X,0,right,0.4283249629988859,1,0,,,,,,,,,,,,,,,,,,,,,1,,,,,,,,,,,,,,,,,,,,,,,,,,,,,,,,,,,,,,,,,,,,,,82,152812,21,Female,1,2024/03/12_12:13:31,YZ,None,
,,,,,,calibration,0,13,2,583,11,C,0,left,0.48423335699771997,0,0,,,,,,,,,,,,,,,,,,,,,1,,,,,,,,,,,,,,,,,,,,,,,,,,,,,,,,,,,,,,,,,,,,,,82,152812,21,Female,1,2024/03/12_12:13:31,YZ,None,
,,,,,,calibration,0,13,2,583,12,X,1,right,0.3035307259997353,0,0,,,,,,,,,,,,,,,,,,,,,1,,,,,,,,,,,,,,,,,,,,,,,,,,,,,,,,,,,,,,,,,,,,,,82,152812,21,Female,1,2024/03/12_12:13:31,YZ,None,
,,,,,,calibration,0,13,2,583,13,N,0,left,0.28734204699867405,0,0,,,,,,,,,,,,,,,,,,,,,1,,,,,,,,,,,,,,,,,,,,,,,,,,,,,,,,,,,,,,,,,,,,,,82,152812,21,Female,1,2024/03/12_12:13:31,YZ,None,
,,,,,,calibration,0,13,2,583,14,X,1,left,nan,0,1,,,,,,,,,,,,,,,,,,,,,1,,,,,,,,,,,,,,,,,,,,,,,,,,,,,,,,,,,,,,,,,,,,,,82,152812,21,Female,1,2024/03/12_12:13:31,YZ,None,
,,,,,,calibration,0,13,2,583,15,V,0,right,0.26395561800018186,1,0,,,,,,,,,,,,,,,,,,,,,1,,,,,,,,,,,,,,,,,,,,,,,,,,,,,,,,,,,,,,,,,,,,,,82,152812,21,Female,1,2024/03/12_12:13:31,YZ,None,
,,,,,,calibration,0,13,2,583,,,,,,,,0.07500000000000001,0.2,0.4,0.5555555555555556,0.2,0.39999999999999997,0.37414693399963045,1,4,2,1,3,5,6,5,10,0,,,,1,,,,,,,,,,,,,,,,,,,,,,,,,,,,,,,,,,,,,,,,,,,,,,82,152812,21,Female,1,2024/03/12_12:13:31,YZ,None,
,,,,,,Calibration,0,,2,583,,,,,,,,,,,,,,,,,,,,,,,,,13,,,1,,,,,,,,,,,,,,,,,,,,,,,,,,,,,,,,,,,,,,,,,,,,,,82,152812,21,Female,1,2024/03/12_12:13:31,YZ,None,
,,,,,,calibration,0,27,2,679,1,J,0,right,0.4015970659966115,1,0,,,,,,,,,,,,,,,,,,,,,1,,,,,,,,,,,,,,,,,,,,,,,,,,,,,,,,,,,,,,,,,,,,,,82,152812,21,Female,1,2024/03/12_12:13:31,YZ,None,
,,,,,,calibration,0,27,2,679,2,N,0,right,0.24744144099895493,1,0,,,,,,,,,,,,,,,,,,,,,1,,,,,,,,,,,,,,,,,,,,,,,,,,,,,,,,,,,,,,,,,,,,,,82,152812,21,Female,1,2024/03/12_12:13:31,YZ,None,
,,,,,,calibration,0,27,2,679,3,V,0,right,0.33937189700009185,1,0,,,,,,,,,,,,,,,,,,,,,1,,,,,,,,,,,,,,,,,,,,,,,,,,,,,,,,,,,,,,,,,,,,,,82,152812,21,Female,1,2024/03/12_12:13:31,YZ,None,
,,,,,,calibration,0,27,2,679,4,Q,0,right,0.5123701709999295,1,0,,,,,,,,,,,,,,,,,,,,,1,,,,,,,,,,,,,,,,,,,,,,,,,,,,,,,,,,,,,,,,,,,,,,82,152812,21,Female,1,2024/03/12_12:13:31,YZ,None,
,,,,,,calibration,0,27,2,679,5,V,1,right,0.24154175900184782,0,0,,,,,,,,,,,,,,,,,,,,,1,,,,,,,,,,,,,,,,,,,,,,,,,,,,,,,,,,,,,,,,,,,,,,82,152812,21,Female,1,2024/03/12_12:13:31,YZ,None,
,,,,,,calibration,0,27,2,679,6,J,0,right,0.33757062899894663,1,0,,,,,,,,,,,,,,,,,,,,,1,,,,,,,,,,,,,,,,,,,,,,,,,,,,,,,,,,,,,,,,,,,,,,82,152812,21,Female,1,2024/03/12_12:13:31,YZ,None,
,,,,,,calibration,0,27,2,679,7,N,0,right,0.3363176650018431,1,0,,,,,,,,,,,,,,,,,,,,,1,,,,,,,,,,,,,,,,,,,,,,,,,,,,,,,,,,,,,,,,,,,,,,82,152812,21,Female,1,2024/03/12_12:13:31,YZ,None,
,,,,,,calibration,0,27,2,679,8,J,1,right,0.40740951399857295,0,0,,,,,,,,,,,,,,,,,,,,,1,,,,,,,,,,,,,,,,,,,,,,,,,,,,,,,,,,,,,,,,,,,,,,82,152812,21,Female,1,2024/03/12_12:13:31,YZ,None,
,,,,,,calibration,0,27,2,679,9,Q,0,right,0.28744042000107584,1,0,,,,,,,,,,,,,,,,,,,,,1,,,,,,,,,,,,,,,,,,,,,,,,,,,,,,,,,,,,,,,,,,,,,,82,152812,21,Female,1,2024/03/12_12:13:31,YZ,None,
,,,,,,calibration,0,27,2,679,10,V,0,right,0.36816223899950273,1,0,,,,,,,,,,,,,,,,,,,,,1,,,,,,,,,,,,,,,,,,,,,,,,,,,,,,,,,,,,,,,,,,,,,,82,152812,21,Female,1,2024/03/12_12:13:31,YZ,None,
,,,,,,calibration,0,27,2,679,11,Q,1,right,0.4342533659983019,0,0,,,,,,,,,,,,,,,,,,,,,1,,,,,,,,,,,,,,,,,,,,,,,,,,,,,,,,,,,,,,,,,,,,,,82,152812,21,Female,1,2024/03/12_12:13:31,YZ,None,
,,,,,,calibration,0,27,2,679,12,J,0,right,0.4329308550004498,1,0,,,,,,,,,,,,,,,,,,,,,1,,,,,,,,,,,,,,,,,,,,,,,,,,,,,,,,,,,,,,,,,,,,,,82,152812,21,Female,1,2024/03/12_12:13:31,YZ,None,
,,,,,,calibration,0,27,2,679,13,Q,1,right,0.3921975840021332,0,0,,,,,,,,,,,,,,,,,,,,,1,,,,,,,,,,,,,,,,,,,,,,,,,,,,,,,,,,,,,,,,,,,,,,82,152812,21,Female,1,2024/03/12_12:13:31,YZ,None,
,,,,,,calibration,0,27,2,679,14,X,0,right,0.5619204129980062,1,0,,,,,,,,,,,,,,,,,,,,,1,,,,,,,,,,,,,,,,,,,,,,,,,,,,,,,,,,,,,,,,,,,,,,82,152812,21,Female,1,2024/03/12_12:13:31,YZ,None,
,,,,,,calibration,0,27,2,679,,,,,,,,0.5,0.0,0.0,1.0,0.0,1.0,0.37860892992830486,0,0,0,0,0,10,10,4,10,0,,,,1,,,,,,,,,,,,,,,,,,,,,,,,,,,,,,,,,,,,,,,,,,,,,,82,152812,21,Female,1,2024/03/12_12:13:31,YZ,None,
,,,,,,Calibration,0,,2,679,,,,,,,,,,,,,,,,,,,,,,,,,14,,,1,,,,,,,,,,,,,,,,,,,,,,,,,,,,,,,,,,,,,,,,,,,,,,82,152812,21,Female,1,2024/03/12_12:13:31,YZ,None,
,,,,,,calibration,0,14,2,788,1,V,0,right,0.2728015479988244,1,0,,,,,,,,,,,,,,,,,,,,,1,,,,,,,,,,,,,,,,,,,,,,,,,,,,,,,,,,,,,,,,,,,,,,82,152812,21,Female,1,2024/03/12_12:13:31,YZ,None,
,,,,,,calibration,0,14,2,788,2,V,0,right,0.336592469997413,1,0,,,,,,,,,,,,,,,,,,,,,1,,,,,,,,,,,,,,,,,,,,,,,,,,,,,,,,,,,,,,,,,,,,,,82,152812,21,Female,1,2024/03/12_12:13:31,YZ,None,
,,,,,,calibration,0,14,2,788,3,J,0,right,0.5947539709995908,1,0,,,,,,,,,,,,,,,,,,,,,1,,,,,,,,,,,,,,,,,,,,,,,,,,,,,,,,,,,,,,,,,,,,,,82,152812,21,Female,1,2024/03/12_12:13:31,YZ,None,
,,,,,,calibration,0,14,2,788,4,V,1,right,0.3220356109995919,0,0,,,,,,,,,,,,,,,,,,,,,1,,,,,,,,,,,,,,,,,,,,,,,,,,,,,,,,,,,,,,,,,,,,,,82,152812,21,Female,1,2024/03/12_12:13:31,YZ,None,
,,,,,,calibration,0,14,2,788,5,N,0,right,0.4846220710023772,1,0,,,,,,,,,,,,,,,,,,,,,1,,,,,,,,,,,,,,,,,,,,,,,,,,,,,,,,,,,,,,,,,,,,,,82,152812,21,Female,1,2024/03/12_12:13:31,YZ,None,
,,,,,,calibration,0,14,2,788,6,F,0,right,0.4796495330010657,1,0,,,,,,,,,,,,,,,,,,,,,1,,,,,,,,,,,,,,,,,,,,,,,,,,,,,,,,,,,,,,,,,,,,,,82,152812,21,Female,1,2024/03/12_12:13:31,YZ,None,
,,,,,,calibration,0,14,2,788,7,C,0,right,0.402018531000067,1,0,,,,,,,,,,,,,,,,,,,,,1,,,,,,,,,,,,,,,,,,,,,,,,,,,,,,,,,,,,,,,,,,,,,,82,152812,21,Female,1,2024/03/12_12:13:31,YZ,None,
,,,,,,calibration,0,14,2,788,8,S,0,right,0.4689261780004017,1,0,,,,,,,,,,,,,,,,,,,,,1,,,,,,,,,,,,,,,,,,,,,,,,,,,,,,,,,,,,,,,,,,,,,,82,152812,21,Female,1,2024/03/12_12:13:31,YZ,None,
,,,,,,calibration,0,14,2,788,9,C,1,right,0.4845351229996595,0,0,,,,,,,,,,,,,,,,,,,,,1,,,,,,,,,,,,,,,,,,,,,,,,,,,,,,,,,,,,,,,,,,,,,,82,152812,21,Female,1,2024/03/12_12:13:31,YZ,None,
,,,,,,calibration,0,14,2,788,10,V,0,right,0.5261174820007,1,0,,,,,,,,,,,,,,,,,,,,,1,,,,,,,,,,,,,,,,,,,,,,,,,,,,,,,,,,,,,,,,,,,,,,82,152812,21,Female,1,2024/03/12_12:13:31,YZ,None,
,,,,,,calibration,0,14,2,788,11,X,0,right,0.24261613699854934,1,0,,,,,,,,,,,,,,,,,,,,,1,,,,,,,,,,,,,,,,,,,,,,,,,,,,,,,,,,,,,,,,,,,,,,82,152812,21,Female,1,2024/03/12_12:13:31,YZ,None,
,,,,,,calibration,0,14,2,788,12,V,1,right,0.26521524700001464,0,0,,,,,,,,,,,,,,,,,,,,,1,,,,,,,,,,,,,,,,,,,,,,,,,,,,,,,,,,,,,,,,,,,,,,82,152812,21,Female,1,2024/03/12_12:13:31,YZ,None,
,,,,,,calibration,0,14,2,788,13,X,1,right,0.30521521999980905,0,0,,,,,,,,,,,,,,,,,,,,,1,,,,,,,,,,,,,,,,,,,,,,,,,,,,,,,,,,,,,,,,,,,,,,82,152812,21,Female,1,2024/03/12_12:13:31,YZ,None,
,,,,,,calibration,0,14,2,788,,,,,,,,0.5,0.0,0.0,1.0,0.0,1.0,0.3988537786152357,0,0,0,0,0,9,9,4,9,0,,,,1,,,,,,,,,,,,,,,,,,,,,,,,,,,,,,,,,,,,,,,,,,,,,,82,152812,21,Female,1,2024/03/12_12:13:31,YZ,None,
,,,,,,Calibration,0,,2,788,,,,,,,,,,,,,,,,,,,,,,,,,15,,,1,,,,,,,,,,,,,,,,,,,,,,,,,,,,,,,,,,,,,,,,,,,,,,82,152812,21,Female,1,2024/03/12_12:13:31,YZ,None,
,,,,,,calibration,0,22,2,917,1,V,0,right,0.2693573329997889,1,0,,,,,,,,,,,,,,,,,,,,,1,,,,,,,,,,,,,,,,,,,,,,,,,,,,,,,,,,,,,,,,,,,,,,82,152812,21,Female,1,2024/03/12_12:13:31,YZ,None,
,,,,,,calibration,0,22,2,917,2,X,0,right,0.2975776820021565,1,0,,,,,,,,,,,,,,,,,,,,,1,,,,,,,,,,,,,,,,,,,,,,,,,,,,,,,,,,,,,,,,,,,,,,82,152812,21,Female,1,2024/03/12_12:13:31,YZ,None,
,,,,,,calibration,0,22,2,917,3,J,0,right,0.4083401479983877,1,0,,,,,,,,,,,,,,,,,,,,,1,,,,,,,,,,,,,,,,,,,,,,,,,,,,,,,,,,,,,,,,,,,,,,82,152812,21,Female,1,2024/03/12_12:13:31,YZ,None,
,,,,,,calibration,0,22,2,917,4,X,1,left,0.3125931649992708,1,0,,,,,,,,,,,,,,,,,,,,,1,,,,,,,,,,,,,,,,,,,,,,,,,,,,,,,,,,,,,,,,,,,,,,82,152812,21,Female,1,2024/03/12_12:13:31,YZ,None,
,,,,,,calibration,0,22,2,917,5,S,0,right,0.30101140700207907,1,0,,,,,,,,,,,,,,,,,,,,,1,,,,,,,,,,,,,,,,,,,,,,,,,,,,,,,,,,,,,,,,,,,,,,82,152812,21,Female,1,2024/03/12_12:13:31,YZ,None,
,,,,,,calibration,0,22,2,917,6,X,1,right,0.5443250710013672,0,0,,,,,,,,,,,,,,,,,,,,,1,,,,,,,,,,,,,,,,,,,,,,,,,,,,,,,,,,,,,,,,,,,,,,82,152812,21,Female,1,2024/03/12_12:13:31,YZ,None,
,,,,,,calibration,0,22,2,917,7,S,1,right,0.3502257219988678,0,0,,,,,,,,,,,,,,,,,,,,,1,,,,,,,,,,,,,,,,,,,,,,,,,,,,,,,,,,,,,,,,,,,,,,82,152812,21,Female,1,2024/03/12_12:13:31,YZ,None,
,,,,,,calibration,0,22,2,917,8,C,0,right,0.4068258199986303,1,0,,,,,,,,,,,,,,,,,,,,,1,,,,,,,,,,,,,,,,,,,,,,,,,,,,,,,,,,,,,,,,,,,,,,82,152812,21,Female,1,2024/03/12_12:13:31,YZ,None,
,,,,,,calibration,0,22,2,917,9,S,1,right,0.3606204469979275,0,0,,,,,,,,,,,,,,,,,,,,,1,,,,,,,,,,,,,,,,,,,,,,,,,,,,,,,,,,,,,,,,,,,,,,82,152812,21,Female,1,2024/03/12_12:13:31,YZ,None,
,,,,,,calibration,0,22,2,917,10,Q,0,right,0.43468991500049015,1,0,,,,,,,,,,,,,,,,,,,,,1,,,,,,,,,,,,,,,,,,,,,,,,,,,,,,,,,,,,,,,,,,,,,,82,152812,21,Female,1,2024/03/12_12:13:31,YZ,None,
,,,,,,calibration,0,22,2,917,11,J,0,right,0.34331833100077347,1,0,,,,,,,,,,,,,,,,,,,,,1,,,,,,,,,,,,,,,,,,,,,,,,,,,,,,,,,,,,,,,,,,,,,,82,152812,21,Female,1,2024/03/12_12:13:31,YZ,None,
,,,,,,calibration,0,22,2,917,12,S,0,right,0.3526524809967668,1,0,,,,,,,,,,,,,,,,,,,,,1,,,,,,,,,,,,,,,,,,,,,,,,,,,,,,,,,,,,,,,,,,,,,,82,152812,21,Female,1,2024/03/12_12:13:31,YZ,None,
,,,,,,calibration,0,22,2,917,,,,,,,,0.8125,0.25,0.0,1.0,0.0,1.0,0.3651281268330422,1,0,0,0,0,8,9,4,8,0,,,,1,,,,,,,,,,,,,,,,,,,,,,,,,,,,,,,,,,,,,,,,,,,,,,82,152812,21,Female,1,2024/03/12_12:13:31,YZ,None,
,,,,,,Calibration,0,,2,917,,,,,,,,,,,,,,,,,,,,,,,,,16,,,1,,,,,,,,,,,,,,,,,,,,,,,,,,,,,,,,,,,,,,,,,,,,,,82,152812,21,Female,1,2024/03/12_12:13:31,YZ,None,
,,,,,,CALIBRATION,0,,,,,,,,,,,,,,,,,,,,,,,,,,,,16,0.8125,917,1,,,,,,,,,,,,,,,,,,,,,,,,,,,,,,,,,,,,,,,,,,,,,,82,152812,21,Female,1,2024/03/12_12:13:31,YZ,None,
1,./instructions/inst_prac_1/Slide24.png,right,5.394867967999744,363.96870138899976,369.3635693569995,,,,,,,,,,,,,,,,,,,,,,,,,,,,,,,,,1,,,,,,,,,,,,,,,,,,,,,,,,,,,,,,,,,,,,,,,,,,,,,,82,152812,21,Female,1,2024/03/12_12:13:31,YZ,None,
2,./instructions/inst_prac_1/Slide25.png,right,0.9227683570024965,369.3924999419978,370.3152682990003,,,,,,,,,,,,,,,,,,,,,,,,,,,,,,,,,1,,,,,,,,,,,,,,,,,,,,,,,,,,,,,,,,,,,,,,,,,,,,,,82,152812,21,Female,1,2024/03/12_12:13:31,YZ,None,
3,./instructions/inst_prac_1/Slide26.png,right,0.23561960300139617,370.3438740399979,370.5794936429993,,,,,,,,,,,,,,,,,,,,,,,,,,,,,,,,,1,,,,,,,,,,,,,,,,,,,,,,,,,,,,,,,,,,,,,,,,,,,,,,82,152812,21,Female,1,2024/03/12_12:13:31,YZ,None,
4,./instructions/inst_prac_1/Slide27.png,right,0.24213395599872456,370.6092354959983,370.851369451997,,,,,,,,,,,,,,,,,,,,,,,,,,,,,,,,,1,,,,,,,,,,,,,,,,,,,,,,,,,,,,,,,,,,,,,,,,,,,,,,82,152812,21,Female,1,2024/03/12_12:13:31,YZ,None,
5,./instructions/inst_prac_1/Slide28.png,right,0.2438807189973886,370.87950757,371.1233882889974,,,,,,,,,,,,,,,,,,,,,,,,,,,,,,,,,1,,,,,,,,,,,,,,,,,,,,,,,,,,,,,,,,,,,,,,,,,,,,,,82,152812,21,Female,1,2024/03/12_12:13:31,YZ,None,
6,./instructions/inst_prac_1/Slide29.png,right,0.2003164529996866,371.152467134998,371.3527835879977,,,,,,,,,,,,,,,,,,,,,,,,,,,,,,,,,1,,,,,,,,,,,,,,,,,,,,,,,,,,,,,,,,,,,,,,,,,,,,,,82,152812,21,Female,1,2024/03/12_12:13:31,YZ,None,
7,./instructions/inst_prac_1/Slide30.png,right,0.20045585000116262,371.3754989259978,371.575954775999,,,,,,,,,,,,,,,,,,,,,,,,,,,,,,,,,1,,,,,,,,,,,,,,,,,,,,,,,,,,,,,,,,,,,,,,,,,,,,,,82,152812,21,Female,1,2024/03/12_12:13:31,YZ,None,
,,,,,,practice,0,19,1,1250,1,Q,0,right,3.826800554001238,1,0,,,,,,,,,,,,,,,,,,,,,1,,,,,,,,,,,,,,,,,,,,,,,,,,,,,,,,,,,,,,,,,,,,,,82,152812,21,Female,1,2024/03/12_12:13:31,YZ,None,
,,,,,,practice,0,19,1,1250,2,Q,1,left,0.6934064300003229,1,0,,,,,,,,,,,,,,,,,,,,,1,,,,,,,,,,,,,,,,,,,,,,,,,,,,,,,,,,,,,,,,,,,,,,82,152812,21,Female,1,2024/03/12_12:13:31,YZ,None,
,,,,,,practice,0,19,1,1250,3,V,0,right,0.6117865289998008,1,0,,,,,,,,,,,,,,,,,,,,,1,,,,,,,,,,,,,,,,,,,,,,,,,,,,,,,,,,,,,,,,,,,,,,82,152812,21,Female,1,2024/03/12_12:13:31,YZ,None,
,,,,,,practice,0,19,1,1250,4,F,0,right,0.6219436479987053,1,0,,,,,,,,,,,,,,,,,,,,,1,,,,,,,,,,,,,,,,,,,,,,,,,,,,,,,,,,,,,,,,,,,,,,82,152812,21,Female,1,2024/03/12_12:13:31,YZ,None,
,,,,,,practice,0,19,1,1250,5,F,1,right,0.44406838200302445,0,0,,,,,,,,,,,,,,,,,,,,,1,,,,,,,,,,,,,,,,,,,,,,,,,,,,,,,,,,,,,,,,,,,,,,82,152812,21,Female,1,2024/03/12_12:13:31,YZ,None,
,,,,,,practice,0,19,1,1250,6,C,0,right,0.988881910998316,1,0,,,,,,,,,,,,,,,,,,,,,1,,,,,,,,,,,,,,,,,,,,,,,,,,,,,,,,,,,,,,,,,,,,,,82,152812,21,Female,1,2024/03/12_12:13:31,YZ,None,
,,,,,,practice,0,19,1,1250,7,N,0,right,0.7371475319996534,1,0,,,,,,,,,,,,,,,,,,,,,1,,,,,,,,,,,,,,,,,,,,,,,,,,,,,,,,,,,,,,,,,,,,,,82,152812,21,Female,1,2024/03/12_12:13:31,YZ,None,
,,,,,,practice,0,19,1,1250,8,F,0,right,0.7683148969990725,1,0,,,,,,,,,,,,,,,,,,,,,1,,,,,,,,,,,,,,,,,,,,,,,,,,,,,,,,,,,,,,,,,,,,,,82,152812,21,Female,1,2024/03/12_12:13:31,YZ,None,
,,,,,,practice,0,19,1,1250,9,F,1,left,0.5910131609998643,1,0,,,,,,,,,,,,,,,,,,,,,1,,,,,,,,,,,,,,,,,,,,,,,,,,,,,,,,,,,,,,,,,,,,,,82,152812,21,Female,1,2024/03/12_12:13:31,YZ,None,
,,,,,,practice,0,19,1,1250,10,J,0,right,0.6152028510005039,1,0,,,,,,,,,,,,,,,,,,,,,1,,,,,,,,,,,,,,,,,,,,,,,,,,,,,,,,,,,,,,,,,,,,,,82,152812,21,Female,1,2024/03/12_12:13:31,YZ,None,
,,,,,,practice,0,19,1,1250,,,,,,,,0.9166666666666666,0.6666666666666666,0.0,1.0,0.0,1.0,0.9898565895000502,2,0,0,0,0,7,9,3,7,0,,,,1,,,,,,,,,,,,,,,,,,,,,,,,,,,,,,,,,,,,,,,,,,,,,,82,152812,21,Female,1,2024/03/12_12:13:31,YZ,None,
1,./instructions/inst_prac_1_next/Slide35.png,right,1.8992111339975963,392.51207104700006,394.41128218099766,,,,,,,,,,,,,,,,,,,,,,,,,,,,,,,,,1,,,,,,,,,,,,,,,,,,,,,,,,,,,,,,,,,,,,,,,,,,,,,,82,152812,21,Female,1,2024/03/12_12:13:31,YZ,None,
,,,,,,practice,0,35,1,917,1,S,0,right,1.266632523998851,1,0,,,,,,,,,,,,,,,,,,,,,1,,,,,,,,,,,,,,,,,,,,,,,,,,,,,,,,,,,,,,,,,,,,,,82,152812,21,Female,1,2024/03/12_12:13:31,YZ,None,
,,,,,,practice,0,35,1,917,2,S,1,left,0.5644058639991272,1,0,,,,,,,,,,,,,,,,,,,,,1,,,,,,,,,,,,,,,,,,,,,,,,,,,,,,,,,,,,,,,,,,,,,,82,152812,21,Female,1,2024/03/12_12:13:31,YZ,None,
,,,,,,practice,0,35,1,917,3,V,0,right,0.4598885279992828,1,0,,,,,,,,,,,,,,,,,,,,,1,,,,,,,,,,,,,,,,,,,,,,,,,,,,,,,,,,,,,,,,,,,,,,82,152812,21,Female,1,2024/03/12_12:13:31,YZ,None,
,,,,,,practice,0,35,1,917,4,V,1,left,0.5483952320028038,1,0,,,,,,,,,,,,,,,,,,,,,1,,,,,,,,,,,,,,,,,,,,,,,,,,,,,,,,,,,,,,,,,,,,,,82,152812,21,Female,1,2024/03/12_12:13:31,YZ,None,
,,,,,,practice,0,35,1,917,5,N,0,right,0.47145198400176014,1,0,,,,,,,,,,,,,,,,,,,,,1,,,,,,,,,,,,,,,,,,,,,,,,,,,,,,,,,,,,,,,,,,,,,,82,152812,21,Female,1,2024/03/12_12:13:31,YZ,None,
,,,,,,practice,0,35,1,917,6,X,0,right,0.5042384340013086,1,0,,,,,,,,,,,,,,,,,,,,,1,,,,,,,,,,,,,,,,,,,,,,,,,,,,,,,,,,,,,,,,,,,,,,82,152812,21,Female,1,2024/03/12_12:13:31,YZ,None,
,,,,,,practice,0,35,1,917,7,N,0,left,0.473534002998349,0,0,,,,,,,,,,,,,,,,,,,,,1,,,,,,,,,,,,,,,,,,,,,,,,,,,,,,,,,,,,,,,,,,,,,,82,152812,21,Female,1,2024/03/12_12:13:31,YZ,None,
,,,,,,practice,0,35,1,917,8,N,1,left,0.609522183000081,1,0,,,,,,,,,,,,,,,,,,,,,1,,,,,,,,,,,,,,,,,,,,,,,,,,,,,,,,,,,,,,,,,,,,,,82,152812,21,Female,1,2024/03/12_12:13:31,YZ,None,
,,,,,,practice,0,35,1,917,9,S,0,right,0.4493201660006889,1,0,,,,,,,,,,,,,,,,,,,,,1,,,,,,,,,,,,,,,,,,,,,,,,,,,,,,,,,,,,,,,,,,,,,,82,152812,21,Female,1,2024/03/12_12:13:31,YZ,None,
,,,,,,practice,0,35,1,917,10,J,0,right,0.48979044999941834,1,0,,,,,,,,,,,,,,,,,,,,,1,,,,,,,,,,,,,,,,,,,,,,,,,,,,,,,,,,,,,,,,,,,,,,82,152812,21,Female,1,2024/03/12_12:13:31,YZ,None,
,,,,,,practice,0,35,1,917,11,V,0,right,0.48864808500002255,1,0,,,,,,,,,,,,,,,,,,,,,1,,,,,,,,,,,,,,,,,,,,,,,,,,,,,,,,,,,,,,,,,,,,,,82,152812,21,Female,1,2024/03/12_12:13:31,YZ,None,
,,,,,,practice,0,35,1,917,12,V,1,right,0.792434114999196,0,0,,,,,,,,,,,,,,,,,,,,,1,,,,,,,,,,,,,,,,,,,,,,,,,,,,,,,,,,,,,,,,,,,,,,82,152812,21,Female,1,2024/03/12_12:13:31,YZ,None,
,,,,,,practice,0,35,1,917,,,,,,,,0.875,0.75,0.125,0.875,0.0,0.875,0.5931884640000741,3,1,0,0,0,7,10,4,8,0,,,,1,,,,,,,,,,,,,,,,,,,,,,,,,,,,,,,,,,,,,,,,,,,,,,82,152812,21,Female,1,2024/03/12_12:13:31,YZ,None,
,,,,,,practice,0,27,1,917,1,C,0,right,0.6928832940029679,1,0,,,,,,,,,,,,,,,,,,,,,1,,,,,,,,,,,,,,,,,,,,,,,,,,,,,,,,,,,,,,,,,,,,,,82,152812,21,Female,1,2024/03/12_12:13:31,YZ,None,
,,,,,,practice,0,27,1,917,2,N,0,right,0.3484475279983599,1,0,,,,,,,,,,,,,,,,,,,,,1,,,,,,,,,,,,,,,,,,,,,,,,,,,,,,,,,,,,,,,,,,,,,,82,152812,21,Female,1,2024/03/12_12:13:31,YZ,None,
,,,,,,practice,0,27,1,917,3,F,0,right,0.46049461999791674,1,0,,,,,,,,,,,,,,,,,,,,,1,,,,,,,,,,,,,,,,,,,,,,,,,,,,,,,,,,,,,,,,,,,,,,82,152812,21,Female,1,2024/03/12_12:13:31,YZ,None,
,,,,,,practice,0,27,1,917,4,F,1,left,0.40452029700099956,1,0,,,,,,,,,,,,,,,,,,,,,1,,,,,,,,,,,,,,,,,,,,,,,,,,,,,,,,,,,,,,,,,,,,,,82,152812,21,Female,1,2024/03/12_12:13:31,YZ,None,
,,,,,,practice,0,27,1,917,5,Q,0,right,0.41649885600054404,1,0,,,,,,,,,,,,,,,,,,,,,1,,,,,,,,,,,,,,,,,,,,,,,,,,,,,,,,,,,,,,,,,,,,,,82,152812,21,Female,1,2024/03/12_12:13:31,YZ,None,
,,,,,,practice,0,27,1,917,6,N,0,right,0.5918670299979567,1,0,,,,,,,,,,,,,,,,,,,,,1,,,,,,,,,,,,,,,,,,,,,,,,,,,,,,,,,,,,,,,,,,,,,,82,152812,21,Female,1,2024/03/12_12:13:31,YZ,None,
,,,,,,practice,0,27,1,917,7,N,1,left,0.5436045120004565,1,0,,,,,,,,,,,,,,,,,,,,,1,,,,,,,,,,,,,,,,,,,,,,,,,,,,,,,,,,,,,,,,,,,,,,82,152812,21,Female,1,2024/03/12_12:13:31,YZ,None,
,,,,,,practice,0,27,1,917,8,F,0,right,0.584994787001051,1,0,,,,,,,,,,,,,,,,,,,,,1,,,,,,,,,,,,,,,,,,,,,,,,,,,,,,,,,,,,,,,,,,,,,,82,152812,21,Female,1,2024/03/12_12:13:31,YZ,None,
,,,,,,practice,0,27,1,917,9,N,0,right,0.4955421570011822,1,0,,,,,,,,,,,,,,,,,,,,,1,,,,,,,,,,,,,,,,,,,,,,,,,,,,,,,,,,,,,,,,,,,,,,82,152812,21,Female,1,2024/03/12_12:13:31,YZ,None,
,,,,,,practice,0,27,1,917,10,F,0,right,0.5940421729974332,1,0,,,,,,,,,,,,,,,,,,,,,1,,,,,,,,,,,,,,,,,,,,,,,,,,,,,,,,,,,,,,,,,,,,,,82,152812,21,Female,1,2024/03/12_12:13:31,YZ,None,
,,,,,,practice,0,27,1,917,11,J,0,right,0.5000619599995844,1,0,,,,,,,,,,,,,,,,,,,,,1,,,,,,,,,,,,,,,,,,,,,,,,,,,,,,,,,,,,,,,,,,,,,,82,152812,21,Female,1,2024/03/12_12:13:31,YZ,None,
,,,,,,practice,0,27,1,917,12,J,1,left,0.5119317249991582,1,0,,,,,,,,,,,,,,,,,,,,,1,,,,,,,,,,,,,,,,,,,,,,,,,,,,,,,,,,,,,,,,,,,,,,82,152812,21,Female,1,2024/03/12_12:13:31,YZ,None,
,,,,,,practice,0,27,1,917,,,,,,,,1.0,1.0,0.0,1.0,0.0,1.0,0.5120740782498009,3,0,0,0,0,9,12,3,9,0,,,,1,,,,,,,,,,,,,,,,,,,,,,,,,,,,,,,,,,,,,,,,,,,,,,82,152812,21,Female,1,2024/03/12_12:13:31,YZ,None,
1,./instructions/inst_prac_3/Slide37.png,right,6.44322574400212,424.38428861599823,430.82751436000035,,,,,,,,,,,,,,,,,,,,,,,,,,,,,,,,,1,,,,,,,,,,,,,,,,,,,,,,,,,,,,,,,,,,,,,,,,,,,,,,82,152812,21,Female,1,2024/03/12_12:13:31,YZ,None,
2,./instructions/inst_prac_3/Slide38.png,right,1.058238393998181,430.8493413399992,431.9075797339974,,,,,,,,,,,,,,,,,,,,,,,,,,,,,,,,,1,,,,,,,,,,,,,,,,,,,,,,,,,,,,,,,,,,,,,,,,,,,,,,82,152812,21,Female,1,2024/03/12_12:13:31,YZ,None,
3,./instructions/inst_prac_3/Slide39.png,right,0.5870307840013993,431.9362682309984,432.5232990149998,,,,,,,,,,,,,,,,,,,,,,,,,,,,,,,,,1,,,,,,,,,,,,,,,,,,,,,,,,,,,,,,,,,,,,,,,,,,,,,,82,152812,21,Female,1,2024/03/12_12:13:31,YZ,None,
4,./instructions/inst_prac_3/Slide40.png,right,0.53957263600023,432.55179262599995,433.0913652620002,,,,,,,,,,,,,,,,,,,,,,,,,,,,,,,,,1,,,,,,,,,,,,,,,,,,,,,,,,,,,,,,,,,,,,,,,,,,,,,,82,152812,21,Female,1,2024/03/12_12:13:31,YZ,None,
5,./instructions/inst_prac_3/Slide41.png,right,0.5875567219991353,433.1198040529998,433.70736077499896,,,,,,,,,,,,,,,,,,,,,,,,,,,,,,,,,1,,,,,,,,,,,,,,,,,,,,,,,,,,,,,,,,,,,,,,,,,,,,,,82,152812,21,Female,1,2024/03/12_12:13:31,YZ,None,
6,./instructions/inst_prac_3/Slide42.png,right,0.47549648900167085,433.7358943679974,434.21139085699906,,,,,,,,,,,,,,,,,,,,,,,,,,,,,,,,,1,,,,,,,,,,,,,,,,,,,,,,,,,,,,,,,,,,,,,,,,,,,,,,82,152812,21,Female,1,2024/03/12_12:13:31,YZ,None,
7,./instructions/inst_prac_3/Slide43.png,right,0.803455840999959,434.23995348300014,435.0434093240001,,,,,,,,,,,,,,,,,,,,,,,,,,,,,,,,,1,,,,,,,,,,,,,,,,,,,,,,,,,,,,,,,,,,,,,,,,,,,,,,82,152812,21,Female,1,2024/03/12_12:13:31,YZ,None,
8,./instructions/inst_prac_3/Slide44.png,right,1.0593125380000856,435.07209748499736,436.13141002299744,,,,,,,,,,,,,,,,,,,,,,,,,,,,,,,,,1,,,,,,,,,,,,,,,,,,,,,,,,,,,,,,,,,,,,,,,,,,,,,,82,152812,21,Female,1,2024/03/12_12:13:31,YZ,None,
,,,,,,practice,0,26,3,788,1,Q,0,right,1.0513157159984985,1,0,,,,,,,,,,,,,,,,,,,,,1,,,,,,,,,,,,,,,,,,,,,,,,,,,,,,,,,,,,,,,,,,,,,,82,152812,21,Female,1,2024/03/12_12:13:31,YZ,None,
,,,,,,practice,0,26,3,788,2,N,0,right,0.5416410020006879,1,0,,,,,,,,,,,,,,,,,,,,,1,,,,,,,,,,,,,,,,,,,,,,,,,,,,,,,,,,,,,,,,,,,,,,82,152812,21,Female,1,2024/03/12_12:13:31,YZ,None,
,,,,,,practice,0,26,3,788,3,Q,0,right,0.7161904579988914,1,0,,,,,,,,,,,,,,,,,,,,,1,,,,,,,,,,,,,,,,,,,,,,,,,,,,,,,,,,,,,,,,,,,,,,82,152812,21,Female,1,2024/03/12_12:13:31,YZ,None,
,,,,,,practice,0,26,3,788,4,Q,1,left,0.6596202350010572,1,0,,,,,,,,,,,,,,,,,,,,,1,,,,,,,,,,,,,,,,,,,,,,,,,,,,,,,,,,,,,,,,,,,,,,82,152812,21,Female,1,2024/03/12_12:13:31,YZ,None,
,,,,,,practice,0,26,3,788,5,V,0,right,0.668919026000367,1,0,,,,,,,,,,,,,,,,,,,,,1,,,,,,,,,,,,,,,,,,,,,,,,,,,,,,,,,,,,,,,,,,,,,,82,152812,21,Female,1,2024/03/12_12:13:31,YZ,None,
,,,,,,practice,0,26,3,788,6,Q,1,left,0.8194349559998955,1,0,,,,,,,,,,,,,,,,,,,,,1,,,,,,,,,,,,,,,,,,,,,,,,,,,,,,,,,,,,,,,,,,,,,,82,152812,21,Female,1,2024/03/12_12:13:31,YZ,None,
,,,,,,practice,0,26,3,788,7,Q,1,left,0.49173137999969185,1,0,,,,,,,,,,,,,,,,,,,,,1,,,,,,,,,,,,,,,,,,,,,,,,,,,,,,,,,,,,,,,,,,,,,,82,152812,21,Female,1,2024/03/12_12:13:31,YZ,None,
,,,,,,practice,0,26,3,788,8,C,0,right,1.1181518459998188,1,0,,,,,,,,,,,,,,,,,,,,,1,,,,,,,,,,,,,,,,,,,,,,,,,,,,,,,,,,,,,,,,,,,,,,82,152812,21,Female,1,2024/03/12_12:13:31,YZ,None,
,,,,,,practice,0,26,3,788,9,J,0,right,0.9260422219995235,1,0,,,,,,,,,,,,,,,,,,,,,1,,,,,,,,,,,,,,,,,,,,,,,,,,,,,,,,,,,,,,,,,,,,,,82,152812,21,Female,1,2024/03/12_12:13:31,YZ,None,
,,,,,,practice,0,26,3,788,10,J,0,right,0.6435739590015146,1,0,,,,,,,,,,,,,,,,,,,,,1,,,,,,,,,,,,,,,,,,,,,,,,,,,,,,,,,,,,,,,,,,,,,,82,152812,21,Female,1,2024/03/12_12:13:31,YZ,None,
,,,,,,practice,0,26,3,788,11,V,0,right,0.908968100000493,1,0,,,,,,,,,,,,,,,,,,,,,1,,,,,,,,,,,,,,,,,,,,,,,,,,,,,,,,,,,,,,,,,,,,,,82,152812,21,Female,1,2024/03/12_12:13:31,YZ,None,
,,,,,,practice,0,26,3,788,12,J,1,left,0.6534336029981205,1,0,,,,,,,,,,,,,,,,,,,,,1,,,,,,,,,,,,,,,,,,,,,,,,,,,,,,,,,,,,,,,,,,,,,,82,152812,21,Female,1,2024/03/12_12:13:31,YZ,None,
,,,,,,practice,0,26,3,788,13,V,0,right,0.5758213399967644,1,0,,,,,,,,,,,,,,,,,,,,,1,,,,,,,,,,,,,,,,,,,,,,,,,,,,,,,,,,,,,,,,,,,,,,82,152812,21,Female,1,2024/03/12_12:13:31,YZ,None,
,,,,,,practice,0,26,3,788,,,,,,,,1.0,1.0,0.0,1.0,0.0,1.0,0.7519110648457942,4,0,0,0,0,9,13,4,9,0,,,,1,,,,,,,,,,,,,,,,,,,,,,,,,,,,,,,,,,,,,,,,,,,,,,82,152812,21,Female,1,2024/03/12_12:13:31,YZ,None,
1,./instructions/inst_prac_3_next/Slide49.png,right,2.353043607003201,459.60223208899697,461.9552756960002,,,,,,,,,,,,,,,,,,,,,,,,,,,,,,,,,1,,,,,,,,,,,,,,,,,,,,,,,,,,,,,,,,,,,,,,,,,,,,,,82,152812,21,Female,1,2024/03/12_12:13:31,YZ,None,
,,,,,,practice,0,15,3,917,1,N,0,right,0.6637020169982861,1,0,,,,,,,,,,,,,,,,,,,,,1,,,,,,,,,,,,,,,,,,,,,,,,,,,,,,,,,,,,,,,,,,,,,,82,152812,21,Female,1,2024/03/12_12:13:31,YZ,None,
,,,,,,practice,0,15,3,917,2,N,0,right,0.49200179900071817,1,0,,,,,,,,,,,,,,,,,,,,,1,,,,,,,,,,,,,,,,,,,,,,,,,,,,,,,,,,,,,,,,,,,,,,82,152812,21,Female,1,2024/03/12_12:13:31,YZ,None,
,,,,,,practice,0,15,3,917,3,J,0,right,0.5482673379992775,1,0,,,,,,,,,,,,,,,,,,,,,1,,,,,,,,,,,,,,,,,,,,,,,,,,,,,,,,,,,,,,,,,,,,,,82,152812,21,Female,1,2024/03/12_12:13:31,YZ,None,
,,,,,,practice,0,15,3,917,4,C,0,right,0.5357765389999258,1,0,,,,,,,,,,,,,,,,,,,,,1,,,,,,,,,,,,,,,,,,,,,,,,,,,,,,,,,,,,,,,,,,,,,,82,152812,21,Female,1,2024/03/12_12:13:31,YZ,None,
,,,,,,practice,0,15,3,917,5,J,0,right,0.6203248549973068,1,0,,,,,,,,,,,,,,,,,,,,,1,,,,,,,,,,,,,,,,,,,,,,,,,,,,,,,,,,,,,,,,,,,,,,82,152812,21,Female,1,2024/03/12_12:13:31,YZ,None,
,,,,,,practice,0,15,3,917,6,J,1,right,0.5443352990005224,0,0,,,,,,,,,,,,,,,,,,,,,1,,,,,,,,,,,,,,,,,,,,,,,,,,,,,,,,,,,,,,,,,,,,,,82,152812,21,Female,1,2024/03/12_12:13:31,YZ,None,
,,,,,,practice,0,15,3,917,7,F,0,right,0.588429556999472,1,0,,,,,,,,,,,,,,,,,,,,,1,,,,,,,,,,,,,,,,,,,,,,,,,,,,,,,,,,,,,,,,,,,,,,82,152812,21,Female,1,2024/03/12_12:13:31,YZ,None,
,,,,,,practice,0,15,3,917,8,J,1,left,0.7202784919973055,1,0,,,,,,,,,,,,,,,,,,,,,1,,,,,,,,,,,,,,,,,,,,,,,,,,,,,,,,,,,,,,,,,,,,,,82,152812,21,Female,1,2024/03/12_12:13:31,YZ,None,
,,,,,,practice,0,15,3,917,9,V,0,right,0.8873947889987903,1,0,,,,,,,,,,,,,,,,,,,,,1,,,,,,,,,,,,,,,,,,,,,,,,,,,,,,,,,,,,,,,,,,,,,,82,152812,21,Female,1,2024/03/12_12:13:31,YZ,None,
,,,,,,practice,0,15,3,917,10,Q,0,right,0.5753998969994427,1,0,,,,,,,,,,,,,,,,,,,,,1,,,,,,,,,,,,,,,,,,,,,,,,,,,,,,,,,,,,,,,,,,,,,,82,152812,21,Female,1,2024/03/12_12:13:31,YZ,None,
,,,,,,practice,0,15,3,917,11,C,0,right,0.5433427589996427,1,0,,,,,,,,,,,,,,,,,,,,,1,,,,,,,,,,,,,,,,,,,,,,,,,,,,,,,,,,,,,,,,,,,,,,82,152812,21,Female,1,2024/03/12_12:13:31,YZ,None,
,,,,,,practice,0,15,3,917,12,V,1,left,0.5936400359969412,1,0,,,,,,,,,,,,,,,,,,,,,1,,,,,,,,,,,,,,,,,,,,,,,,,,,,,,,,,,,,,,,,,,,,,,82,152812,21,Female,1,2024/03/12_12:13:31,YZ,None,
,,,,,,practice,0,15,3,917,,,,,,,,0.9166666666666666,0.6666666666666666,0.0,1.0,0.0,1.0,0.6094077814156359,2,0,0,0,0,9,11,3,9,0,,,,1,,,,,,,,,,,,,,,,,,,,,,,,,,,,,,,,,,,,,,,,,,,,,,82,152812,21,Female,1,2024/03/12_12:13:31,YZ,None,
,,,,,,practice,0,14,3,917,1,F,0,right,0.47259078199931537,1,0,,,,,,,,,,,,,,,,,,,,,1,,,,,,,,,,,,,,,,,,,,,,,,,,,,,,,,,,,,,,,,,,,,,,82,152812,21,Female,1,2024/03/12_12:13:31,YZ,None,
,,,,,,practice,0,14,3,917,2,F,0,right,0.45585757899971213,1,0,,,,,,,,,,,,,,,,,,,,,1,,,,,,,,,,,,,,,,,,,,,,,,,,,,,,,,,,,,,,,,,,,,,,82,152812,21,Female,1,2024/03/12_12:13:31,YZ,None,
,,,,,,practice,0,14,3,917,3,X,0,right,0.5435843269988254,1,0,,,,,,,,,,,,,,,,,,,,,1,,,,,,,,,,,,,,,,,,,,,,,,,,,,,,,,,,,,,,,,,,,,,,82,152812,21,Female,1,2024/03/12_12:13:31,YZ,None,
,,,,,,practice,0,14,3,917,4,J,0,right,0.5783959760010475,1,0,,,,,,,,,,,,,,,,,,,,,1,,,,,,,,,,,,,,,,,,,,,,,,,,,,,,,,,,,,,,,,,,,,,,82,152812,21,Female,1,2024/03/12_12:13:31,YZ,None,
,,,,,,practice,0,14,3,917,5,C,0,right,0.5081385660014348,1,0,,,,,,,,,,,,,,,,,,,,,1,,,,,,,,,,,,,,,,,,,,,,,,,,,,,,,,,,,,,,,,,,,,,,82,152812,21,Female,1,2024/03/12_12:13:31,YZ,None,
,,,,,,practice,0,14,3,917,6,N,0,right,0.5324391659996763,1,0,,,,,,,,,,,,,,,,,,,,,1,,,,,,,,,,,,,,,,,,,,,,,,,,,,,,,,,,,,,,,,,,,,,,82,152812,21,Female,1,2024/03/12_12:13:31,YZ,None,
,,,,,,practice,0,14,3,917,7,V,0,right,0.45721945999684976,1,0,,,,,,,,,,,,,,,,,,,,,1,,,,,,,,,,,,,,,,,,,,,,,,,,,,,,,,,,,,,,,,,,,,,,82,152812,21,Female,1,2024/03/12_12:13:31,YZ,None,
,,,,,,practice,0,14,3,917,8,C,1,left,0.3932935479970183,1,0,,,,,,,,,,,,,,,,,,,,,1,,,,,,,,,,,,,,,,,,,,,,,,,,,,,,,,,,,,,,,,,,,,,,82,152812,21,Female,1,2024/03/12_12:13:31,YZ,None,
,,,,,,practice,0,14,3,917,9,S,0,right,0.343636082001467,1,0,,,,,,,,,,,,,,,,,,,,,1,,,,,,,,,,,,,,,,,,,,,,,,,,,,,,,,,,,,,,,,,,,,,,82,152812,21,Female,1,2024/03/12_12:13:31,YZ,None,
,,,,,,practice,0,14,3,917,10,N,0,right,0.4891104409980471,1,0,,,,,,,,,,,,,,,,,,,,,1,,,,,,,,,,,,,,,,,,,,,,,,,,,,,,,,,,,,,,,,,,,,,,82,152812,21,Female,1,2024/03/12_12:13:31,YZ,None,
,,,,,,practice,0,14,3,917,11,C,1,left,0.35211125000205357,1,0,,,,,,,,,,,,,,,,,,,,,1,,,,,,,,,,,,,,,,,,,,,,,,,,,,,,,,,,,,,,,,,,,,,,82,152812,21,Female,1,2024/03/12_12:13:31,YZ,None,
,,,,,,practice,0,14,3,917,12,S,1,right,0.2716718449992186,0,0,,,,,,,,,,,,,,,,,,,,,1,,,,,,,,,,,,,,,,,,,,,,,,,,,,,,,,,,,,,,,,,,,,,,82,152812,21,Female,1,2024/03/12_12:13:31,YZ,None,
,,,,,,practice,0,14,3,917,,,,,,,,0.9166666666666666,0.6666666666666666,0.0,1.0,0.0,1.0,0.4498374184995555,2,0,0,0,0,9,11,3,9,0,,,,1,,,,,,,,,,,,,,,,,,,,,,,,,,,,,,,,,,,,,,,,,,,,,,82,152812,21,Female,1,2024/03/12_12:13:31,YZ,None,
1,./instructions/inst_prac_main/Slide51.png,right,2.915131983001629,491.3762744839987,494.29140646700034,,,,,,,,,,,,,,,,,,,,,,,,,,,,,,,,,1,,,,,,,,,,,,,,,,,,,,,,,,,,,,,,,,,,,,,,,,,,,,,,82,152812,21,Female,1,2024/03/12_12:13:31,YZ,None,
2,./instructions/inst_prac_main/Slide52.png,right,4.363636583999323,494.3196988870004,498.68333547099974,,,,,,,,,,,,,,,,,,,,,,,,,,,,,,,,,1,,,,,,,,,,,,,,,,,,,,,,,,,,,,,,,,,,,,,,,,,,,,,,82,152812,21,Female,1,2024/03/12_12:13:31,YZ,None,
3,./instructions/inst_prac_main/Slide53.png,right,1.9308449849995668,498.71238893899863,500.6432339239982,,,,,,,,,,,,,,,,,,,,,,,,,,,,,,,,,1,,,,,,,,,,,,,,,,,,,,,,,,,,,,,,,,,,,,,,,,,,,,,,82,152812,21,Female,1,2024/03/12_12:13:31,YZ,None,
4,./instructions/inst_prac_main/Slide54.png,right,3.779545502999099,500.6719667750003,504.4515122779994,,,,,,,,,,,,,,,,,,,,,,,,,,,,,,,,,1,,,,,,,,,,,,,,,,,,,,,,,,,,,,,,,,,,,,,,,,,,,,,,82,152812,21,Female,1,2024/03/12_12:13:31,YZ,None,
,,,,,,practice_main,0,1,1,917,1,V,0,None,nan,0,1,,,,,,,,,,,,,,,,,,,,,1,,,,,,,,,,,,,,,,,,,,,,,,,,,,,,,,,,,,,,,,,,,,,,82,152812,21,Female,1,2024/03/12_12:13:31,YZ,None,
,,,,,,practice_main,0,1,1,917,2,V,1,left,0.8426812629986671,1,0,,,,,,,,,,,,,,,,,,,,,1,,,,,,,,,,,,,,,,,,,,,,,,,,,,,,,,,,,,,,,,,,,,,,82,152812,21,Female,1,2024/03/12_12:13:31,YZ,None,
,,,,,,practice_main,0,1,1,917,3,F,0,right,0.4898534669991932,1,0,,,,,,,,,,,,,,,,,,,,,1,,,,,,,,,,,,,,,,,,,,,,,,,,,,,,,,,,,,,,,,,,,,,,82,152812,21,Female,1,2024/03/12_12:13:31,YZ,None,
,,,,,,practice_main,0,1,1,917,4,V,0,left,0.5924402169985115,0,0,,,,,,,,,,,,,,,,,,,,,1,,,,,,,,,,,,,,,,,,,,,,,,,,,,,,,,,,,,,,,,,,,,,,82,152812,21,Female,1,2024/03/12_12:13:31,YZ,None,
,,,,,,practice_main,0,1,1,917,5,X,0,right,0.519087265998678,1,0,,,,,,,,,,,,,,,,,,,,,1,,,,,,,,,,,,,,,,,,,,,,,,,,,,,,,,,,,,,,,,,,,,,,82,152812,21,Female,1,2024/03/12_12:13:31,YZ,None,
,,,,,,practice_main,0,1,1,917,6,X,1,right,0.30402513000080944,0,0,,,,,,,,,,,,,,,,,,,,,1,,,,,,,,,,,,,,,,,,,,,,,,,,,,,,,,,,,,,,,,,,,,,,82,152812,21,Female,1,2024/03/12_12:13:31,YZ,None,
,,,,,,practice_main,0,1,1,917,7,N,0,right,0.5124073159968248,1,0,,,,,,,,,,,,,,,,,,,,,1,,,,,,,,,,,,,,,,,,,,,,,,,,,,,,,,,,,,,,,,,,,,,,82,152812,21,Female,1,2024/03/12_12:13:31,YZ,None,
,,,,,,practice_main,0,1,1,917,8,N,1,right,0.31559252700026263,0,0,,,,,,,,,,,,,,,,,,,,,1,,,,,,,,,,,,,,,,,,,,,,,,,,,,,,,,,,,,,,,,,,,,,,82,152812,21,Female,1,2024/03/12_12:13:31,YZ,None,
,,,,,,practice_main,0,1,1,917,9,V,0,right,0.6012230540000019,1,0,,,,,,,,,,,,,,,,,,,,,1,,,,,,,,,,,,,,,,,,,,,,,,,,,,,,,,,,,,,,,,,,,,,,82,152812,21,Female,1,2024/03/12_12:13:31,YZ,None,
,,,,,,practice_main,0,1,1,917,10,S,0,right,0.34799961899989285,1,0,,,,,,,,,,,,,,,,,,,,,1,,,,,,,,,,,,,,,,,,,,,,,,,,,,,,,,,,,,,,,,,,,,,,82,152812,21,Female,1,2024/03/12_12:13:31,YZ,None,
,,,,,,practice_main,0,1,1,917,11,N,0,right,0.4965269010026532,1,0,,,,,,,,,,,,,,,,,,,,,1,,,,,,,,,,,,,,,,,,,,,,,,,,,,,,,,,,,,,,,,,,,,,,82,152812,21,Female,1,2024/03/12_12:13:31,YZ,None,
,,,,,,practice_main,0,1,1,917,12,X,0,right,0.5235224530006235,1,0,,,,,,,,,,,,,,,,,,,,,1,,,,,,,,,,,,,,,,,,,,,,,,,,,,,,,,,,,,,,,,,,,,,,82,152812,21,Female,1,2024/03/12_12:13:31,YZ,None,
,,,,,,practice_main,0,1,1,917,,,,,,,,0.7222222222222222,0.3333333333333333,0.1111111111111111,0.875,0.08333333333333333,0.8055555555555555,0.5041235648178289,1,1,0,1,1,7,8,3,9,0,,,,1,,,,,,,,,,,,,,,,,,,,,,,,,,,,,,,,,,,,,,,,,,,,,,82,152812,21,Female,1,2024/03/12_12:13:31,YZ,None,
,,,,,240312_130736,PRACTICE,0,1,1,917,,,,,,,,,,,,,,,,,,,,,,,,,,,,1,15,1,1,cue2.png,easy,B,50,2.1086135160003323,0,507.50772815299933,509.6420904869992,,,,,,,,,,,,,,,,,,,,,,,,,,,,,,,,,,,82,152812,21,Female,1,2024/03/12_12:13:31,YZ,None,
,,,,,,practice_main,0,2,1,917,1,J,0,right,0.429361810998671,1,0,,,,,,,,,,,,,,,,,,,,,1,,,,,,,,,,,,,,,,,,,,,,,,,,,,,,,,,,,,,,,,,,,,,,82,152812,21,Female,1,2024/03/12_12:13:31,YZ,None,
,,,,,,practice_main,0,2,1,917,2,X,0,right,0.3210699890005344,1,0,,,,,,,,,,,,,,,,,,,,,1,,,,,,,,,,,,,,,,,,,,,,,,,,,,,,,,,,,,,,,,,,,,,,82,152812,21,Female,1,2024/03/12_12:13:31,YZ,None,
,,,,,,practice_main,0,2,1,917,3,F,0,right,0.37620072700156015,1,0,,,,,,,,,,,,,,,,,,,,,1,,,,,,,,,,,,,,,,,,,,,,,,,,,,,,,,,,,,,,,,,,,,,,82,152812,21,Female,1,2024/03/12_12:13:31,YZ,None,
,,,,,,practice_main,0,2,1,917,4,X,0,right,0.4180240629975742,1,0,,,,,,,,,,,,,,,,,,,,,1,,,,,,,,,,,,,,,,,,,,,,,,,,,,,,,,,,,,,,,,,,,,,,82,152812,21,Female,1,2024/03/12_12:13:31,YZ,None,
,,,,,,practice_main,0,2,1,917,5,X,1,left,0.5260001520000515,1,0,,,,,,,,,,,,,,,,,,,,,1,,,,,,,,,,,,,,,,,,,,,,,,,,,,,,,,,,,,,,,,,,,,,,82,152812,21,Female,1,2024/03/12_12:13:31,YZ,None,
,,,,,,practice_main,0,2,1,917,6,Q,0,right,0.48899651799729327,1,0,,,,,,,,,,,,,,,,,,,,,1,,,,,,,,,,,,,,,,,,,,,,,,,,,,,,,,,,,,,,,,,,,,,,82,152812,21,Female,1,2024/03/12_12:13:31,YZ,None,
,,,,,,practice_main,0,2,1,917,7,F,0,right,0.524506798999937,1,0,,,,,,,,,,,,,,,,,,,,,1,,,,,,,,,,,,,,,,,,,,,,,,,,,,,,,,,,,,,,,,,,,,,,82,152812,21,Female,1,2024/03/12_12:13:31,YZ,None,
,,,,,,practice_main,0,2,1,917,8,F,1,right,0.32377560200256994,0,0,,,,,,,,,,,,,,,,,,,,,1,,,,,,,,,,,,,,,,,,,,,,,,,,,,,,,,,,,,,,,,,,,,,,82,152812,21,Female,1,2024/03/12_12:13:31,YZ,None,
,,,,,,practice_main,0,2,1,917,9,J,0,right,0.4896812850020069,1,0,,,,,,,,,,,,,,,,,,,,,1,,,,,,,,,,,,,,,,,,,,,,,,,,,,,,,,,,,,,,,,,,,,,,82,152812,21,Female,1,2024/03/12_12:13:31,YZ,None,
,,,,,,practice_main,0,2,1,917,10,V,0,right,0.4248793780025153,1,0,,,,,,,,,,,,,,,,,,,,,1,,,,,,,,,,,,,,,,,,,,,,,,,,,,,,,,,,,,,,,,,,,,,,82,152812,21,Female,1,2024/03/12_12:13:31,YZ,None,
,,,,,,practice_main,0,2,1,917,11,V,1,left,0.5239165219973074,1,0,,,,,,,,,,,,,,,,,,,,,1,,,,,,,,,,,,,,,,,,,,,,,,,,,,,,,,,,,,,,,,,,,,,,82,152812,21,Female,1,2024/03/12_12:13:31,YZ,None,
,,,,,,practice_main,0,2,1,917,12,J,0,right,0.3223831559989776,1,0,,,,,,,,,,,,,,,,,,,,,1,,,,,,,,,,,,,,,,,,,,,,,,,,,,,,,,,,,,,,,,,,,,,,82,152812,21,Female,1,2024/03/12_12:13:31,YZ,None,
,,,,,,practice_main,0,2,1,917,,,,,,,,0.9166666666666666,0.6666666666666666,0.0,1.0,0.0,1.0,0.4307330001665832,2,0,0,0,0,9,11,3,9,0,,,,1,,,,,,,,,,,,,,,,,,,,,,,,,,,,,,,,,,,,,,,,,,,,,,82,152812,21,Female,1,2024/03/12_12:13:31,YZ,None,
,,,,,240312_130757,PRACTICE,0,2,1,917,,,,,,,,,,,,,,,,,,,,,,,,,,,,1,21,2,2,cue2.png,easy,B,49,1.1793992559978506,0,532.6527931579985,533.8434638959989,,,,,,,,,,,,,,,,,,,,,,,,,,,,,,,,,,,82,152812,21,Female,1,2024/03/12_12:13:31,YZ,None,
,,,,,,practice_main,0,3,3,917,1,Q,0,right,0.49732066999786184,1,0,,,,,,,,,,,,,,,,,,,,,1,,,,,,,,,,,,,,,,,,,,,,,,,,,,,,,,,,,,,,,,,,,,,,82,152812,21,Female,1,2024/03/12_12:13:31,YZ,None,
,,,,,,practice_main,0,3,3,917,2,V,0,right,0.3277785099999164,1,0,,,,,,,,,,,,,,,,,,,,,1,,,,,,,,,,,,,,,,,,,,,,,,,,,,,,,,,,,,,,,,,,,,,,82,152812,21,Female,1,2024/03/12_12:13:31,YZ,None,
,,,,,,practice_main,0,3,3,917,3,F,0,right,0.5124319839997042,1,0,,,,,,,,,,,,,,,,,,,,,1,,,,,,,,,,,,,,,,,,,,,,,,,,,,,,,,,,,,,,,,,,,,,,82,152812,21,Female,1,2024/03/12_12:13:31,YZ,None,
,,,,,,practice_main,0,3,3,917,4,F,0,right,0.43747985000300105,1,0,,,,,,,,,,,,,,,,,,,,,1,,,,,,,,,,,,,,,,,,,,,,,,,,,,,,,,,,,,,,,,,,,,,,82,152812,21,Female,1,2024/03/12_12:13:31,YZ,None,
,,,,,,practice_main,0,3,3,917,5,V,1,right,0.44719665500088013,0,0,,,,,,,,,,,,,,,,,,,,,1,,,,,,,,,,,,,,,,,,,,,,,,,,,,,,,,,,,,,,,,,,,,,,82,152812,21,Female,1,2024/03/12_12:13:31,YZ,None,
,,,,,,practice_main,0,3,3,917,6,F,1,right,0.3970482369986712,0,0,,,,,,,,,,,,,,,,,,,,,1,,,,,,,,,,,,,,,,,,,,,,,,,,,,,,,,,,,,,,,,,,,,,,82,152812,21,Female,1,2024/03/12_12:13:31,YZ,None,
,,,,,,practice_main,0,3,3,917,7,Q,0,left,0.3301663109996298,0,0,,,,,,,,,,,,,,,,,,,,,1,,,,,,,,,,,,,,,,,,,,,,,,,,,,,,,,,,,,,,,,,,,,,,82,152812,21,Female,1,2024/03/12_12:13:31,YZ,None,
,,,,,,practice_main,0,3,3,917,8,F,0,right,0.3995321239999612,1,0,,,,,,,,,,,,,,,,,,,,,1,,,,,,,,,,,,,,,,,,,,,,,,,,,,,,,,,,,,,,,,,,,,,,82,152812,21,Female,1,2024/03/12_12:13:31,YZ,None,
,,,,,,practice_main,0,3,3,917,9,V,0,left,0.3847254749998683,0,0,,,,,,,,,,,,,,,,,,,,,1,,,,,,,,,,,,,,,,,,,,,,,,,,,,,,,,,,,,,,,,,,,,,,82,152812,21,Female,1,2024/03/12_12:13:31,YZ,None,
,,,,,,practice_main,0,3,3,917,10,C,0,right,0.4357936190026521,1,0,,,,,,,,,,,,,,,,,,,,,1,,,,,,,,,,,,,,,,,,,,,,,,,,,,,,,,,,,,,,,,,,,,,,82,152812,21,Female,1,2024/03/12_12:13:31,YZ,None,
,,,,,,practice_main,0,3,3,917,11,C,0,right,0.38381356399986544,1,0,,,,,,,,,,,,,,,,,,,,,1,,,,,,,,,,,,,,,,,,,,,,,,,,,,,,,,,,,,,,,,,,,,,,82,152812,21,Female,1,2024/03/12_12:13:31,YZ,None,
,,,,,,practice_main,0,3,3,917,12,V,1,right,0.42851070299730054,0,0,,,,,,,,,,,,,,,,,,,,,1,,,,,,,,,,,,,,,,,,,,,,,,,,,,,,,,,,,,,,,,,,,,,,82,152812,21,Female,1,2024/03/12_12:13:31,YZ,None,
,,,,,,practice_main,0,3,3,917,,,,,,,,0.19444444444444445,0.0,0.2222222222222222,0.7777777777777778,0.0,0.7777777777777778,0.4151498084999427,0,2,0,0,0,7,7,3,9,0,,,,1,,,,,,,,,,,,,,,,,,,,,,,,,,,,,,,,,,,,,,,,,,,,,,82,152812,21,Female,1,2024/03/12_12:13:31,YZ,None,
,,,,,240312_130819,PRACTICE,0,3,3,917,,,,,,,,,,,,,,,,,,,,,,,,,,,,1,28,3,3,cue1.png,hard,B,49,1.5289907549995405,0,554.4180011190001,555.9590723269976,,,,,,,,,,,,,,,,,,,,,,,,,,,,,,,,,,,82,152812,21,Female,1,2024/03/12_12:13:31,YZ,None,
-1,./instructions/inst_prac_end/Slide56.png,left,1.9753387740020116,574.8762024139978,576.8515411879998,,,,,,,,,,,,,,,,,,,,,,,,,,,,,,,,,1,,,,,,,,,,,,,,,,,,,,,,,,,,,,,,,,,,,,,,,,,,,,,,82,152812,21,Female,1,2024/03/12_12:13:31,YZ,None,
1,./instructions/inst_test/Slide57.png,right,100.76523780199932,576.8781013320004,677.6433391339997,,,,,,,,,,,,,,,,,,,,,,,,,,,,,,,,,1,,,,,,,,,,,,,,,,,,,,,,,,,,,,,,,,,,,,,,,,,,,,,,82,152812,21,Female,1,2024/03/12_12:13:31,YZ,None,
,,,,,,test,1,1,1,917,1,N,0,right,0.5356966540020949,1,0,,,,,,,,,,,,,,,,,,,,,1,,,,,,,,,,,,,,,,,,,,,,,,,,,,,,,,,,,,,,,,,,,,,,82,152812,21,Female,1,2024/03/12_12:13:31,YZ,None,
,,,,,,test,1,1,1,917,2,V,0,right,0.3422842910003965,1,0,,,,,,,,,,,,,,,,,,,,,1,,,,,,,,,,,,,,,,,,,,,,,,,,,,,,,,,,,,,,,,,,,,,,82,152812,21,Female,1,2024/03/12_12:13:31,YZ,None,
,,,,,,test,1,1,1,917,3,V,1,left,0.4284698869996646,1,0,,,,,,,,,,,,,,,,,,,,,1,,,,,,,,,,,,,,,,,,,,,,,,,,,,,,,,,,,,,,,,,,,,,,82,152812,21,Female,1,2024/03/12_12:13:31,YZ,None,
,,,,,,test,1,1,1,917,4,F,0,right,0.363212583000859,1,0,,,,,,,,,,,,,,,,,,,,,1,,,,,,,,,,,,,,,,,,,,,,,,,,,,,,,,,,,,,,,,,,,,,,82,152812,21,Female,1,2024/03/12_12:13:31,YZ,None,
,,,,,,test,1,1,1,917,5,Q,0,right,0.3747758799981966,1,0,,,,,,,,,,,,,,,,,,,,,1,,,,,,,,,,,,,,,,,,,,,,,,,,,,,,,,,,,,,,,,,,,,,,82,152812,21,Female,1,2024/03/12_12:13:31,YZ,None,
,,,,,,test,1,1,1,917,6,N,0,left,0.4478866110002855,0,0,,,,,,,,,,,,,,,,,,,,,1,,,,,,,,,,,,,,,,,,,,,,,,,,,,,,,,,,,,,,,,,,,,,,82,152812,21,Female,1,2024/03/12_12:13:31,YZ,None,
,,,,,,test,1,1,1,917,7,C,0,right,0.3867678390015499,1,0,,,,,,,,,,,,,,,,,,,,,1,,,,,,,,,,,,,,,,,,,,,,,,,,,,,,,,,,,,,,,,,,,,,,82,152812,21,Female,1,2024/03/12_12:13:31,YZ,None,
,,,,,,test,1,1,1,917,8,C,1,left,0.4732878540016827,1,0,,,,,,,,,,,,,,,,,,,,,1,,,,,,,,,,,,,,,,,,,,,,,,,,,,,,,,,,,,,,,,,,,,,,82,152812,21,Female,1,2024/03/12_12:13:31,YZ,None,
,,,,,,test,1,1,1,917,9,F,0,right,0.3769010760006495,1,0,,,,,,,,,,,,,,,,,,,,,1,,,,,,,,,,,,,,,,,,,,,,,,,,,,,,,,,,,,,,,,,,,,,,82,152812,21,Female,1,2024/03/12_12:13:31,YZ,None,
,,,,,,test,1,1,1,917,10,N,0,right,0.40509587899941835,1,0,,,,,,,,,,,,,,,,,,,,,1,,,,,,,,,,,,,,,,,,,,,,,,,,,,,,,,,,,,,,,,,,,,,,82,152812,21,Female,1,2024/03/12_12:13:31,YZ,None,
,,,,,,test,1,1,1,917,11,Q,0,right,0.44802449800044997,1,0,,,,,,,,,,,,,,,,,,,,,1,,,,,,,,,,,,,,,,,,,,,,,,,,,,,,,,,,,,,,,,,,,,,,82,152812,21,Female,1,2024/03/12_12:13:31,YZ,None,
,,,,,,test,1,1,1,917,12,Q,1,left,0.6216872559998592,1,0,,,,,,,,,,,,,,,,,,,,,1,,,,,,,,,,,,,,,,,,,,,,,,,,,,,,,,,,,,,,,,,,,,,,82,152812,21,Female,1,2024/03/12_12:13:31,YZ,None,
,,,,,,Test,1,1,1,917,,,,,,,,0.9722222222222222,1.0,0.1111111111111111,0.8888888888888888,0.0,0.8888888888888888,0.43367419233375887,3,1,0,0,0,8,11,3,9,0,,,,1,,,,,,,,,,,,,,,,,,,,,,,,,,,,,,,,,,,,,,,,,,,,,,82,152812,21,Female,1,2024/03/12_12:13:31,YZ,None,
,,,,,240312_131027,TEST,1,1,1,917,,,,,,,,,,,,,,,,,,,,,,,,,,,,1,1,1,1,cue2.png,easy,B,49,0.9939863140025409,0,682.7019460619995,683.7172444469979,,,,,,,,,,,,,,,,,,,,,,,,,,,,,,,,,,,82,152812,21,Female,1,2024/03/12_12:13:31,YZ,None,
,,,,,,test,1,2,3,917,1,X,0,right,0.5484044250006264,1,0,,,,,,,,,,,,,,,,,,,,,1,,,,,,,,,,,,,,,,,,,,,,,,,,,,,,,,,,,,,,,,,,,,,,82,152812,21,Female,1,2024/03/12_12:13:31,YZ,None,
,,,,,,test,1,2,3,917,2,X,0,right,0.23264526699858834,1,0,,,,,,,,,,,,,,,,,,,,,1,,,,,,,,,,,,,,,,,,,,,,,,,,,,,,,,,,,,,,,,,,,,,,82,152812,21,Female,1,2024/03/12_12:13:31,YZ,None,
,,,,,,test,1,2,3,917,3,F,0,right,0.2955217390008329,1,0,,,,,,,,,,,,,,,,,,,,,1,,,,,,,,,,,,,,,,,,,,,,,,,,,,,,,,,,,,,,,,,,,,,,82,152812,21,Female,1,2024/03/12_12:13:31,YZ,None,
,,,,,,test,1,2,3,917,4,J,0,right,0.3642800849993364,1,0,,,,,,,,,,,,,,,,,,,,,1,,,,,,,,,,,,,,,,,,,,,,,,,,,,,,,,,,,,,,,,,,,,,,82,152812,21,Female,1,2024/03/12_12:13:31,YZ,None,
,,,,,,test,1,2,3,917,5,F,0,right,0.42859775599936256,1,0,,,,,,,,,,,,,,,,,,,,,1,,,,,,,,,,,,,,,,,,,,,,,,,,,,,,,,,,,,,,,,,,,,,,82,152812,21,Female,1,2024/03/12_12:13:31,YZ,None,
,,,,,,test,1,2,3,917,6,J,0,right,0.5358956060008495,1,0,,,,,,,,,,,,,,,,,,,,,1,,,,,,,,,,,,,,,,,,,,,,,,,,,,,,,,,,,,,,,,,,,,,,82,152812,21,Female,1,2024/03/12_12:13:31,YZ,None,
,,,,,,test,1,2,3,917,7,C,0,right,0.4536107179992541,1,0,,,,,,,,,,,,,,,,,,,,,1,,,,,,,,,,,,,,,,,,,,,,,,,,,,,,,,,,,,,,,,,,,,,,82,152812,21,Female,1,2024/03/12_12:13:31,YZ,None,
,,,,,,test,1,2,3,917,8,F,1,right,0.41232324900192907,0,0,,,,,,,,,,,,,,,,,,,,,1,,,,,,,,,,,,,,,,,,,,,,,,,,,,,,,,,,,,,,,,,,,,,,82,152812,21,Female,1,2024/03/12_12:13:31,YZ,None,
,,,,,,test,1,2,3,917,9,X,0,left,0.5618332990015915,0,0,,,,,,,,,,,,,,,,,,,,,1,,,,,,,,,,,,,,,,,,,,,,,,,,,,,,,,,,,,,,,,,,,,,,82,152812,21,Female,1,2024/03/12_12:13:31,YZ,None,
,,,,,,test,1,2,3,917,10,X,0,right,0.27408635200117715,1,0,,,,,,,,,,,,,,,,,,,,,1,,,,,,,,,,,,,,,,,,,,,,,,,,,,,,,,,,,,,,,,,,,,,,82,152812,21,Female,1,2024/03/12_12:13:31,YZ,None,
,,,,,,test,1,2,3,917,11,F,1,left,0.40941552900039824,1,0,,,,,,,,,,,,,,,,,,,,,1,,,,,,,,,,,,,,,,,,,,,,,,,,,,,,,,,,,,,,,,,,,,,,82,152812,21,Female,1,2024/03/12_12:13:31,YZ,None,
,,,,,,test,1,2,3,917,12,X,1,right,0.45240959000147996,0,0,,,,,,,,,,,,,,,,,,,,,1,,,,,,,,,,,,,,,,,,,,,,,,,,,,,,,,,,,,,,,,,,,,,,82,152812,21,Female,1,2024/03/12_12:13:31,YZ,None,
,,,,,,Test,1,2,3,917,,,,,,,,0.7222222222222222,0.3333333333333333,0.1111111111111111,0.8888888888888888,0.0,0.8888888888888888,0.4140853012504522,1,1,0,0,0,8,9,3,9,0,,,,1,,,,,,,,,,,,,,,,,,,,,,,,,,,,,,,,,,,,,,,,,,,,,,82,152812,21,Female,1,2024/03/12_12:13:31,YZ,None,
,,,,,240312_131049,TEST,1,2,3,917,,,,,,,,,,,,,,,,,,,,,,,,,,,,1,2,2,2,cue1.png,hard,B,49,1.126814536000893,0,704.327647236998,705.4683571269998,,,,,,,,,,,,,,,,,,,,,,,,,,,,,,,,,,,82,152812,21,Female,1,2024/03/12_12:13:31,YZ,None,
,,,,,,test,1,3,3,917,1,C,0,right,0.5176028409987339,1,0,,,,,,,,,,,,,,,,,,,,,1,,,,,,,,,,,,,,,,,,,,,,,,,,,,,,,,,,,,,,,,,,,,,,82,152812,21,Female,1,2024/03/12_12:13:31,YZ,None,
,,,,,,test,1,3,3,917,2,C,0,right,0.3797913329981384,1,0,,,,,,,,,,,,,,,,,,,,,1,,,,,,,,,,,,,,,,,,,,,,,,,,,,,,,,,,,,,,,,,,,,,,82,152812,21,Female,1,2024/03/12_12:13:31,YZ,None,
,,,,,,test,1,3,3,917,3,S,0,right,0.4157089799991809,1,0,,,,,,,,,,,,,,,,,,,,,1,,,,,,,,,,,,,,,,,,,,,,,,,,,,,,,,,,,,,,,,,,,,,,82,152812,21,Female,1,2024/03/12_12:13:31,YZ,None,
,,,,,,test,1,3,3,917,4,C,1,left,0.3944023769981868,1,0,,,,,,,,,,,,,,,,,,,,,1,,,,,,,,,,,,,,,,,,,,,,,,,,,,,,,,,,,,,,,,,,,,,,82,152812,21,Female,1,2024/03/12_12:13:31,YZ,None,
,,,,,,test,1,3,3,917,5,Q,0,right,0.4044872340018628,1,0,,,,,,,,,,,,,,,,,,,,,1,,,,,,,,,,,,,,,,,,,,,,,,,,,,,,,,,,,,,,,,,,,,,,82,152812,21,Female,1,2024/03/12_12:13:31,YZ,None,
,,,,,,test,1,3,3,917,6,X,0,right,0.3970626730006188,1,0,,,,,,,,,,,,,,,,,,,,,1,,,,,,,,,,,,,,,,,,,,,,,,,,,,,,,,,,,,,,,,,,,,,,82,152812,21,Female,1,2024/03/12_12:13:31,YZ,None,
,,,,,,test,1,3,3,917,7,C,1,right,0.39380296699891915,0,0,,,,,,,,,,,,,,,,,,,,,1,,,,,,,,,,,,,,,,,,,,,,,,,,,,,,,,,,,,,,,,,,,,,,82,152812,21,Female,1,2024/03/12_12:13:31,YZ,None,
,,,,,,test,1,3,3,917,8,Q,1,right,0.4124521679987083,0,0,,,,,,,,,,,,,,,,,,,,,1,,,,,,,,,,,,,,,,,,,,,,,,,,,,,,,,,,,,,,,,,,,,,,82,152812,21,Female,1,2024/03/12_12:13:31,YZ,None,
,,,,,,test,1,3,3,917,9,Q,0,left,0.4445834289981576,0,0,,,,,,,,,,,,,,,,,,,,,1,,,,,,,,,,,,,,,,,,,,,,,,,,,,,,,,,,,,,,,,,,,,,,82,152812,21,Female,1,2024/03/12_12:13:31,YZ,None,
,,,,,,test,1,3,3,917,10,V,0,right,0.4758682269966812,1,0,,,,,,,,,,,,,,,,,,,,,1,,,,,,,,,,,,,,,,,,,,,,,,,,,,,,,,,,,,,,,,,,,,,,82,152812,21,Female,1,2024/03/12_12:13:31,YZ,None,
,,,,,,test,1,3,3,917,11,S,0,right,0.3802309269995021,1,0,,,,,,,,,,,,,,,,,,,,,1,,,,,,,,,,,,,,,,,,,,,,,,,,,,,,,,,,,,,,,,,,,,,,82,152812,21,Female,1,2024/03/12_12:13:31,YZ,None,
,,,,,,test,1,3,3,917,12,S,0,right,0.35390870899937,1,0,,,,,,,,,,,,,,,,,,,,,1,,,,,,,,,,,,,,,,,,,,,,,,,,,,,,,,,,,,,,,,,,,,,,82,152812,21,Female,1,2024/03/12_12:13:31,YZ,None,
,,,,,,Test,1,3,3,917,,,,,,,,0.7222222222222222,0.3333333333333333,0.1111111111111111,0.8888888888888888,0.0,0.8888888888888888,0.414158488749005,1,1,0,0,0,8,9,3,9,0,,,,1,,,,,,,,,,,,,,,,,,,,,,,,,,,,,,,,,,,,,,,,,,,,,,82,152812,21,Female,1,2024/03/12_12:13:31,YZ,None,
,,,,,240312_131110,TEST,1,3,3,917,,,,,,,,,,,,,,,,,,,,,,,,,,,,1,3,3,3,cue1.png,hard,B,51,0.8118949240015354,0,725.8422675679976,726.6661988439992,,,,,,,,,,,,,,,,,,,,,,,,,,,,,,,,,,,82,152812,21,Female,1,2024/03/12_12:13:31,YZ,None,
,,,,,,test,1,4,3,917,1,N,0,right,0.5654056860003038,1,0,,,,,,,,,,,,,,,,,,,,,1,,,,,,,,,,,,,,,,,,,,,,,,,,,,,,,,,,,,,,,,,,,,,,82,152812,21,Female,1,2024/03/12_12:13:31,YZ,None,
,,,,,,test,1,4,3,917,2,F,0,right,0.33498257999963243,1,0,,,,,,,,,,,,,,,,,,,,,1,,,,,,,,,,,,,,,,,,,,,,,,,,,,,,,,,,,,,,,,,,,,,,82,152812,21,Female,1,2024/03/12_12:13:31,YZ,None,
,,,,,,test,1,4,3,917,3,C,0,right,0.39169991000017035,1,0,,,,,,,,,,,,,,,,,,,,,1,,,,,,,,,,,,,,,,,,,,,,,,,,,,,,,,,,,,,,,,,,,,,,82,152812,21,Female,1,2024/03/12_12:13:31,YZ,None,
,,,,,,test,1,4,3,917,4,X,0,right,0.40870948800147744,1,0,,,,,,,,,,,,,,,,,,,,,1,,,,,,,,,,,,,,,,,,,,,,,,,,,,,,,,,,,,,,,,,,,,,,82,152812,21,Female,1,2024/03/12_12:13:31,YZ,None,
,,,,,,test,1,4,3,917,5,F,1,right,0.3942038569985016,0,0,,,,,,,,,,,,,,,,,,,,,1,,,,,,,,,,,,,,,,,,,,,,,,,,,,,,,,,,,,,,,,,,,,,,82,152812,21,Female,1,2024/03/12_12:13:31,YZ,None,
,,,,,,test,1,4,3,917,6,Q,0,right,0.42855353400227614,1,0,,,,,,,,,,,,,,,,,,,,,1,,,,,,,,,,,,,,,,,,,,,,,,,,,,,,,,,,,,,,,,,,,,,,82,152812,21,Female,1,2024/03/12_12:13:31,YZ,None,
,,,,,,test,1,4,3,917,7,X,1,right,0.36436665400105994,0,0,,,,,,,,,,,,,,,,,,,,,1,,,,,,,,,,,,,,,,,,,,,,,,,,,,,,,,,,,,,,,,,,,,,,82,152812,21,Female,1,2024/03/12_12:13:31,YZ,None,
,,,,,,test,1,4,3,917,8,F,1,left,0.40746454400141374,1,0,,,,,,,,,,,,,,,,,,,,,1,,,,,,,,,,,,,,,,,,,,,,,,,,,,,,,,,,,,,,,,,,,,,,82,152812,21,Female,1,2024/03/12_12:13:31,YZ,None,
,,,,,,test,1,4,3,917,9,C,0,right,0.3037046250028652,1,0,,,,,,,,,,,,,,,,,,,,,1,,,,,,,,,,,,,,,,,,,,,,,,,,,,,,,,,,,,,,,,,,,,,,82,152812,21,Female,1,2024/03/12_12:13:31,YZ,None,
,,,,,,test,1,4,3,917,10,N,0,left,0.472744803999376,0,0,,,,,,,,,,,,,,,,,,,,,1,,,,,,,,,,,,,,,,,,,,,,,,,,,,,,,,,,,,,,,,,,,,,,82,152812,21,Female,1,2024/03/12_12:13:31,YZ,None,
,,,,,,test,1,4,3,917,11,Q,0,right,0.2800209829983942,1,0,,,,,,,,,,,,,,,,,,,,,1,,,,,,,,,,,,,,,,,,,,,,,,,,,,,,,,,,,,,,,,,,,,,,82,152812,21,Female,1,2024/03/12_12:13:31,YZ,None,
,,,,,,test,1,4,3,917,12,N,0,left,0.25730009600010817,0,0,,,,,,,,,,,,,,,,,,,,,1,,,,,,,,,,,,,,,,,,,,,,,,,,,,,,,,,,,,,,,,,,,,,,82,152812,21,Female,1,2024/03/12_12:13:31,YZ,None,
,,,,,,Test,1,4,3,917,,,,,,,,0.6111111111111112,0.3333333333333333,0.2222222222222222,0.7777777777777778,0.0,0.7777777777777778,0.3840963967504649,1,2,0,0,0,7,8,3,9,0,,,,1,,,,,,,,,,,,,,,,,,,,,,,,,,,,,,,,,,,,,,,,,,,,,,82,152812,21,Female,1,2024/03/12_12:13:31,YZ,None,
,,,,,240312_131131,TEST,1,4,3,917,,,,,,,,,,,,,,,,,,,,,,,,,,,,1,4,4,4,cue1.png,hard,B,49,0.7304401840010541,0,747.024304601,747.7665337959988,,,,,,,,,,,,,,,,,,,,,,,,,,,,,,,,,,,82,152812,21,Female,1,2024/03/12_12:13:31,YZ,None,
,,,,,,test,1,5,1,917,1,F,0,right,0.45977670600041165,1,0,,,,,,,,,,,,,,,,,,,,,1,,,,,,,,,,,,,,,,,,,,,,,,,,,,,,,,,,,,,,,,,,,,,,82,152812,21,Female,1,2024/03/12_12:13:31,YZ,None,
,,,,,,test,1,5,1,917,2,J,0,right,0.34860421600023983,1,0,,,,,,,,,,,,,,,,,,,,,1,,,,,,,,,,,,,,,,,,,,,,,,,,,,,,,,,,,,,,,,,,,,,,82,152812,21,Female,1,2024/03/12_12:13:31,YZ,None,
,,,,,,test,1,5,1,917,3,N,0,right,0.3934479969975655,1,0,,,,,,,,,,,,,,,,,,,,,1,,,,,,,,,,,,,,,,,,,,,,,,,,,,,,,,,,,,,,,,,,,,,,82,152812,21,Female,1,2024/03/12_12:13:31,YZ,None,
,,,,,,test,1,5,1,917,4,X,0,right,0.36935375000030035,1,0,,,,,,,,,,,,,,,,,,,,,1,,,,,,,,,,,,,,,,,,,,,,,,,,,,,,,,,,,,,,,,,,,,,,82,152812,21,Female,1,2024/03/12_12:13:31,YZ,None,
,,,,,,test,1,5,1,917,5,X,1,left,0.5268274059999385,1,0,,,,,,,,,,,,,,,,,,,,,1,,,,,,,,,,,,,,,,,,,,,,,,,,,,,,,,,,,,,,,,,,,,,,82,152812,21,Female,1,2024/03/12_12:13:31,YZ,None,
,,,,,,test,1,5,1,917,6,F,0,right,0.42688007899778313,1,0,,,,,,,,,,,,,,,,,,,,,1,,,,,,,,,,,,,,,,,,,,,,,,,,,,,,,,,,,,,,,,,,,,,,82,152812,21,Female,1,2024/03/12_12:13:31,YZ,None,
,,,,,,test,1,5,1,917,7,C,0,right,0.4206165299983695,1,0,,,,,,,,,,,,,,,,,,,,,1,,,,,,,,,,,,,,,,,,,,,,,,,,,,,,,,,,,,,,,,,,,,,,82,152812,21,Female,1,2024/03/12_12:13:31,YZ,None,
,,,,,,test,1,5,1,917,8,S,0,right,0.5441237470004125,1,0,,,,,,,,,,,,,,,,,,,,,1,,,,,,,,,,,,,,,,,,,,,,,,,,,,,,,,,,,,,,,,,,,,,,82,152812,21,Female,1,2024/03/12_12:13:31,YZ,None,
,,,,,,test,1,5,1,917,9,S,1,right,0.3628418970001803,0,0,,,,,,,,,,,,,,,,,,,,,1,,,,,,,,,,,,,,,,,,,,,,,,,,,,,,,,,,,,,,,,,,,,,,82,152812,21,Female,1,2024/03/12_12:13:31,YZ,None,
,,,,,,test,1,5,1,917,10,X,0,right,0.4152313740014506,1,0,,,,,,,,,,,,,,,,,,,,,1,,,,,,,,,,,,,,,,,,,,,,,,,,,,,,,,,,,,,,,,,,,,,,82,152812,21,Female,1,2024/03/12_12:13:31,YZ,None,
,,,,,,test,1,5,1,917,11,X,1,left,0.3328709950001212,1,0,,,,,,,,,,,,,,,,,,,,,1,,,,,,,,,,,,,,,,,,,,,,,,,,,,,,,,,,,,,,,,,,,,,,82,152812,21,Female,1,2024/03/12_12:13:31,YZ,None,
,,,,,,test,1,5,1,917,12,S,0,right,0.391628743000183,1,0,,,,,,,,,,,,,,,,,,,,,1,,,,,,,,,,,,,,,,,,,,,,,,,,,,,,,,,,,,,,,,,,,,,,82,152812,21,Female,1,2024/03/12_12:13:31,YZ,None,
,,,,,,Test,1,5,1,917,,,,,,,,0.9166666666666666,0.6666666666666666,0.0,1.0,0.0,1.0,0.4160169533330797,2,0,0,0,0,9,11,3,9,0,,,,1,,,,,,,,,,,,,,,,,,,,,,,,,,,,,,,,,,,,,,,,,,,,,,82,152812,21,Female,1,2024/03/12_12:13:31,YZ,None,
,,,,,240312_131152,TEST,1,5,1,917,,,,,,,,,,,,,,,,,,,,,,,,,,,,1,5,5,5,cue2.png,easy,B,46,0.6642169679980725,0,767.7740583470004,768.4550759579979,,,,,,,,,,,,,,,,,,,,,,,,,,,,,,,,,,,82,152812,21,Female,1,2024/03/12_12:13:31,YZ,None,
,,,,,,test,1,6,3,917,1,Q,0,right,0.4176041710015852,1,0,,,,,,,,,,,,,,,,,,,,,1,,,,,,,,,,,,,,,,,,,,,,,,,,,,,,,,,,,,,,,,,,,,,,82,152812,21,Female,1,2024/03/12_12:13:31,YZ,None,
,,,,,,test,1,6,3,917,2,N,0,right,0.3280648649997602,1,0,,,,,,,,,,,,,,,,,,,,,1,,,,,,,,,,,,,,,,,,,,,,,,,,,,,,,,,,,,,,,,,,,,,,82,152812,21,Female,1,2024/03/12_12:13:31,YZ,None,
,,,,,,test,1,6,3,917,3,S,0,right,0.2809065980000014,1,0,,,,,,,,,,,,,,,,,,,,,1,,,,,,,,,,,,,,,,,,,,,,,,,,,,,,,,,,,,,,,,,,,,,,82,152812,21,Female,1,2024/03/12_12:13:31,YZ,None,
,,,,,,test,1,6,3,917,4,Q,1,left,0.31463035399792716,1,0,,,,,,,,,,,,,,,,,,,,,1,,,,,,,,,,,,,,,,,,,,,,,,,,,,,,,,,,,,,,,,,,,,,,82,152812,21,Female,1,2024/03/12_12:13:31,YZ,None,
,,,,,,test,1,6,3,917,5,S,0,right,0.4473926719983865,1,0,,,,,,,,,,,,,,,,,,,,,1,,,,,,,,,,,,,,,,,,,,,,,,,,,,,,,,,,,,,,,,,,,,,,82,152812,21,Female,1,2024/03/12_12:13:31,YZ,None,
,,,,,,test,1,6,3,917,6,S,1,left,0.4920611410016136,1,0,,,,,,,,,,,,,,,,,,,,,1,,,,,,,,,,,,,,,,,,,,,,,,,,,,,,,,,,,,,,,,,,,,,,82,152812,21,Female,1,2024/03/12_12:13:31,YZ,None,
,,,,,,test,1,6,3,917,7,Q,1,right,0.42961549000028754,0,0,,,,,,,,,,,,,,,,,,,,,1,,,,,,,,,,,,,,,,,,,,,,,,,,,,,,,,,,,,,,,,,,,,,,82,152812,21,Female,1,2024/03/12_12:13:31,YZ,None,
,,,,,,test,1,6,3,917,8,Q,0,right,0.5902383059983549,1,0,,,,,,,,,,,,,,,,,,,,,1,,,,,,,,,,,,,,,,,,,,,,,,,,,,,,,,,,,,,,,,,,,,,,82,152812,21,Female,1,2024/03/12_12:13:31,YZ,None,
,,,,,,test,1,6,3,917,9,V,0,left,0.420750503999443,0,0,,,,,,,,,,,,,,,,,,,,,1,,,,,,,,,,,,,,,,,,,,,,,,,,,,,,,,,,,,,,,,,,,,,,82,152812,21,Female,1,2024/03/12_12:13:31,YZ,None,
,,,,,,test,1,6,3,917,10,Q,1,right,0.3694871440020506,0,0,,,,,,,,,,,,,,,,,,,,,1,,,,,,,,,,,,,,,,,,,,,,,,,,,,,,,,,,,,,,,,,,,,,,82,152812,21,Female,1,2024/03/12_12:13:31,YZ,None,
,,,,,,test,1,6,3,917,11,F,0,right,0.46312713299994357,1,0,,,,,,,,,,,,,,,,,,,,,1,,,,,,,,,,,,,,,,,,,,,,,,,,,,,,,,,,,,,,,,,,,,,,82,152812,21,Female,1,2024/03/12_12:13:31,YZ,None,
,,,,,,test,1,6,3,917,12,J,0,right,0.56468902800043,1,0,,,,,,,,,,,,,,,,,,,,,1,,,,,,,,,,,,,,,,,,,,,,,,,,,,,,,,,,,,,,,,,,,,,,82,152812,21,Female,1,2024/03/12_12:13:31,YZ,None,
,,,,,,Test,1,6,3,917,,,,,,,,0.78125,0.5,0.125,0.875,0.0,0.875,0.4265472838333153,2,1,0,0,0,7,9,4,8,0,,,,1,,,,,,,,,,,,,,,,,,,,,,,,,,,,,,,,,,,,,,,,,,,,,,82,152812,21,Female,1,2024/03/12_12:13:31,YZ,None,
,,,,,240312_131214,TEST,1,6,3,917,,,,,,,,,,,,,,,,,,,,,,,,,,,,1,6,6,6,cue1.png,hard,B,49,1.0552092680009082,0,788.8556786219997,789.927564843998,,,,,,,,,,,,,,,,,,,,,,,,,,,,,,,,,,,82,152812,21,Female,1,2024/03/12_12:13:31,YZ,None,
,,,,,,test,1,7,3,917,1,S,0,right,0.5124148199975025,1,0,,,,,,,,,,,,,,,,,,,,,1,,,,,,,,,,,,,,,,,,,,,,,,,,,,,,,,,,,,,,,,,,,,,,82,152812,21,Female,1,2024/03/12_12:13:31,YZ,None,
,,,,,,test,1,7,3,917,2,V,0,right,0.30212787299751653,1,0,,,,,,,,,,,,,,,,,,,,,1,,,,,,,,,,,,,,,,,,,,,,,,,,,,,,,,,,,,,,,,,,,,,,82,152812,21,Female,1,2024/03/12_12:13:31,YZ,None,
,,,,,,test,1,7,3,917,3,S,0,right,0.3351175269999658,1,0,,,,,,,,,,,,,,,,,,,,,1,,,,,,,,,,,,,,,,,,,,,,,,,,,,,,,,,,,,,,,,,,,,,,82,152812,21,Female,1,2024/03/12_12:13:31,YZ,None,
,,,,,,test,1,7,3,917,4,N,0,right,0.36975558000267483,1,0,,,,,,,,,,,,,,,,,,,,,1,,,,,,,,,,,,,,,,,,,,,,,,,,,,,,,,,,,,,,,,,,,,,,82,152812,21,Female,1,2024/03/12_12:13:31,YZ,None,
,,,,,,test,1,7,3,917,5,C,0,right,0.4440483110010973,1,0,,,,,,,,,,,,,,,,,,,,,1,,,,,,,,,,,,,,,,,,,,,,,,,,,,,,,,,,,,,,,,,,,,,,82,152812,21,Female,1,2024/03/12_12:13:31,YZ,None,
,,,,,,test,1,7,3,917,6,J,0,right,0.4286102209989622,1,0,,,,,,,,,,,,,,,,,,,,,1,,,,,,,,,,,,,,,,,,,,,,,,,,,,,,,,,,,,,,,,,,,,,,82,152812,21,Female,1,2024/03/12_12:13:31,YZ,None,
,,,,,,test,1,7,3,917,7,N,1,left,0.4928090350003913,1,0,,,,,,,,,,,,,,,,,,,,,1,,,,,,,,,,,,,,,,,,,,,,,,,,,,,,,,,,,,,,,,,,,,,,82,152812,21,Female,1,2024/03/12_12:13:31,YZ,None,
,,,,,,test,1,7,3,917,8,C,1,right,0.4285382159978326,0,0,,,,,,,,,,,,,,,,,,,,,1,,,,,,,,,,,,,,,,,,,,,,,,,,,,,,,,,,,,,,,,,,,,,,82,152812,21,Female,1,2024/03/12_12:13:31,YZ,None,
,,,,,,test,1,7,3,917,9,Q,0,right,0.43664503100080765,1,0,,,,,,,,,,,,,,,,,,,,,1,,,,,,,,,,,,,,,,,,,,,,,,,,,,,,,,,,,,,,,,,,,,,,82,152812,21,Female,1,2024/03/12_12:13:31,YZ,None,
,,,,,,test,1,7,3,917,10,N,1,left,0.2644794039988483,1,0,,,,,,,,,,,,,,,,,,,,,1,,,,,,,,,,,,,,,,,,,,,,,,,,,,,,,,,,,,,,,,,,,,,,82,152812,21,Female,1,2024/03/12_12:13:31,YZ,None,
,,,,,,test,1,7,3,917,11,V,0,right,0.45247303799988003,1,0,,,,,,,,,,,,,,,,,,,,,1,,,,,,,,,,,,,,,,,,,,,,,,,,,,,,,,,,,,,,,,,,,,,,82,152812,21,Female,1,2024/03/12_12:13:31,YZ,None,
,,,,,,test,1,7,3,917,12,S,0,left,0.38450475500212633,0,0,,,,,,,,,,,,,,,,,,,,,1,,,,,,,,,,,,,,,,,,,,,,,,,,,,,,,,,,,,,,,,,,,,,,82,152812,21,Female,1,2024/03/12_12:13:31,YZ,None,
