Instruction,Stimulus,Key,RT,START,END,Phase,Block,TrialN,NbackLevel,ISI,LetterN,Letter,Letter_isSame,Letter_Resp,Letter_RT,Letter_Accuracy,Letter_Timeout,Trial_A_measure,Trial_HR,Trial_FAR,Trial_CDR,Trial_MSR,Trial_ACC,Trial_RT,Trial_HitsCount,Trial_FAsCount,Trial_SameNoRespCount,Trial_DiffNoRespCount,Trial_NoRespCount,Trial_CDsCount,Trial_CorrectRespCount,Trial_SameLetterCount,Trial_DiffLetterCount,Trial_InvalidLetterCount,TrialCountCali,CaliEnd_A_measure,ISI_calibrated,Run,TrialIndex,TrialNumber_total,TrialNumber_valid,CueLearning,TrialDemandLearning,CueMapping,OnlineRating,OnlineRatingRT,OnlineRatingTimeOut,CueSTART,RatingSTART,OfflineRatingTimePoint,OfflineRatingQuesIndex,CueFigure,TrialDemand,OfflineRating,OfflineRatingRT,CueStart,OfflineRatingStart,PhaseType,CueLeft,CueDemandLeft,CueRight,CueDemandRight,Choice,ChoiceDemand,TaskDemand,ChoiceRT,ChoiceTimeOut,ChoiceSTART,CueCheck,CueDemandCheck,CorrectAnswer,Answer,AnswerDemand,AnswerRT,AnswerACC,AnswerTimeOut,CheckSTART,DemandRatingQuesIndex,QuesTLX,DemandLevel,DemandRating,DemandRatingRT,QuesStart,PID,SONA,Age,Gender,Run,TIME,EXPERIMENTER,frameRate,
-1,./instructions/inst_begin/Slide2.png,left,26.47856428498926,0.11569097700703423,26.594255261996295,,,,,,,,,,,,,,,,,,,,,,,,,,,,,,,,,1,,,,,,,,,,,,,,,,,,,,,,,,,,,,,,,,,,,,,,,,,,,,,,89,156184,19,Female,1,2024/03/14_10:30:28,YZ,None,
0,./instructions/inst_begin/Slide4.png,right,10.985963693994563,26.624248173000524,37.61021186699509,,,,,,,,,,,,,,,,,,,,,,,,,,,,,,,,,1,,,,,,,,,,,,,,,,,,,,,,,,,,,,,,,,,,,,,,,,,,,,,,89,156184,19,Female,1,2024/03/14_10:30:28,YZ,None,
1,./instructions/inst_begin/Slide2.png,right,4.570416740010842,37.63974476499425,42.21016150500509,,,,,,,,,,,,,,,,,,,,,,,,,,,,,,,,,1,,,,,,,,,,,,,,,,,,,,,,,,,,,,,,,,,,,,,,,,,,,,,,89,156184,19,Female,1,2024/03/14_10:30:28,YZ,None,
2,./instructions/inst_begin/Slide3.png,right,10.178781948998221,42.23955381500127,52.418335763999494,,,,,,,,,,,,,,,,,,,,,,,,,,,,,,,,,1,,,,,,,,,,,,,,,,,,,,,,,,,,,,,,,,,,,,,,,,,,,,,,89,156184,19,Female,1,2024/03/14_10:30:28,YZ,None,
3,./instructions/inst_begin/Slide4.png,right,5.170334204012761,52.447816390995285,57.618150595008046,,,,,,,,,,,,,,,,,,,,,,,,,,,,,,,,,1,,,,,,,,,,,,,,,,,,,,,,,,,,,,,,,,,,,,,,,,,,,,,,89,156184,19,Female,1,2024/03/14_10:30:28,YZ,None,
1,./instructions/inst_prac_2/Slide6.png,right,10.614304956005071,57.651763408997795,68.26606836500287,,,,,,,,,,,,,,,,,,,,,,,,,,,,,,,,,1,,,,,,,,,,,,,,,,,,,,,,,,,,,,,,,,,,,,,,,,,,,,,,89,156184,19,Female,1,2024/03/14_10:30:28,YZ,None,
2,./instructions/inst_prac_2/Slide7.png,right,20.298843113996554,68.29546005799784,88.5943031719944,,,,,,,,,,,,,,,,,,,,,,,,,,,,,,,,,1,,,,,,,,,,,,,,,,,,,,,,,,,,,,,,,,,,,,,,,,,,,,,,89,156184,19,Female,1,2024/03/14_10:30:28,YZ,None,
3,./instructions/inst_prac_2/Slide8.png,right,15.449703031001263,88.62440149199392,104.07410452299519,,,,,,,,,,,,,,,,,,,,,,,,,,,,,,,,,1,,,,,,,,,,,,,,,,,,,,,,,,,,,,,,,,,,,,,,,,,,,,,,89,156184,19,Female,1,2024/03/14_10:30:28,YZ,None,
4,./instructions/inst_prac_2/Slide9.png,right,3.4984606319922023,104.10355218600307,107.60201281799527,,,,,,,,,,,,,,,,,,,,,,,,,,,,,,,,,1,,,,,,,,,,,,,,,,,,,,,,,,,,,,,,,,,,,,,,,,,,,,,,89,156184,19,Female,1,2024/03/14_10:30:28,YZ,None,
5,./instructions/inst_prac_2/Slide10.png,right,1.1230173499934608,107.63102576200617,108.75404311199964,,,,,,,,,,,,,,,,,,,,,,,,,,,,,,,,,1,,,,,,,,,,,,,,,,,,,,,,,,,,,,,,,,,,,,,,,,,,,,,,89,156184,19,Female,1,2024/03/14_10:30:28,YZ,None,
6,./instructions/inst_prac_2/Slide11.png,right,2.3467720299959183,108.78330774699862,111.13007977699453,,,,,,,,,,,,,,,,,,,,,,,,,,,,,,,,,1,,,,,,,,,,,,,,,,,,,,,,,,,,,,,,,,,,,,,,,,,,,,,,89,156184,19,Female,1,2024/03/14_10:30:28,YZ,None,
7,./instructions/inst_prac_2/Slide12.png,right,0.5067818370007444,111.15932148099819,111.66610331799893,,,,,,,,,,,,,,,,,,,,,,,,,,,,,,,,,1,,,,,,,,,,,,,,,,,,,,,,,,,,,,,,,,,,,,,,,,,,,,,,89,156184,19,Female,1,2024/03/14_10:30:28,YZ,None,
8,./instructions/inst_prac_2/Slide13.png,right,2.6761899679986527,111.69390108100197,114.37009104900062,,,,,,,,,,,,,,,,,,,,,,,,,,,,,,,,,1,,,,,,,,,,,,,,,,,,,,,,,,,,,,,,,,,,,,,,,,,,,,,,89,156184,19,Female,1,2024/03/14_10:30:28,YZ,None,
9,./instructions/inst_prac_2/Slide14.png,right,0.9728079199994681,114.39726861899544,115.37007653899491,,,,,,,,,,,,,,,,,,,,,,,,,,,,,,,,,1,,,,,,,,,,,,,,,,,,,,,,,,,,,,,,,,,,,,,,,,,,,,,,89,156184,19,Female,1,2024/03/14_10:30:28,YZ,None,
10,./instructions/inst_prac_2/Slide15.png,right,7.309277257008944,115.39717701499467,122.70645427200361,,,,,,,,,,,,,,,,,,,,,,,,,,,,,,,,,1,,,,,,,,,,,,,,,,,,,,,,,,,,,,,,,,,,,,,,,,,,,,,,89,156184,19,Female,1,2024/03/14_10:30:28,YZ,None,
,,,,,,practice,0,14,2,2583,1,J,0,right,3.721973933003028,1,0,,,,,,,,,,,,,,,,,,,,,1,,,,,,,,,,,,,,,,,,,,,,,,,,,,,,,,,,,,,,,,,,,,,,89,156184,19,Female,1,2024/03/14_10:30:28,YZ,None,
,,,,,,practice,0,14,2,2583,2,C,0,right,1.1693054569914239,1,0,,,,,,,,,,,,,,,,,,,,,1,,,,,,,,,,,,,,,,,,,,,,,,,,,,,,,,,,,,,,,,,,,,,,89,156184,19,Female,1,2024/03/14_10:30:28,YZ,None,
,,,,,,practice,0,14,2,2583,3,J,1,left,0.7797852520016022,1,0,,,,,,,,,,,,,,,,,,,,,1,,,,,,,,,,,,,,,,,,,,,,,,,,,,,,,,,,,,,,,,,,,,,,89,156184,19,Female,1,2024/03/14_10:30:28,YZ,None,
,,,,,,practice,0,14,2,2583,4,C,1,left,0.9645159180072369,1,0,,,,,,,,,,,,,,,,,,,,,1,,,,,,,,,,,,,,,,,,,,,,,,,,,,,,,,,,,,,,,,,,,,,,89,156184,19,Female,1,2024/03/14_10:30:28,YZ,None,
,,,,,,practice,0,14,2,2583,5,S,0,right,0.9472317789914086,1,0,,,,,,,,,,,,,,,,,,,,,1,,,,,,,,,,,,,,,,,,,,,,,,,,,,,,,,,,,,,,,,,,,,,,89,156184,19,Female,1,2024/03/14_10:30:28,YZ,None,
,,,,,,practice,0,14,2,2583,6,F,0,right,0.7551451379986247,1,0,,,,,,,,,,,,,,,,,,,,,1,,,,,,,,,,,,,,,,,,,,,,,,,,,,,,,,,,,,,,,,,,,,,,89,156184,19,Female,1,2024/03/14_10:30:28,YZ,None,
,,,,,,practice,0,14,2,2583,,,,,,,,1.0,1.0,0.0,1.0,0.0,1.0,1.3896595794988873,2,0,0,0,0,4,6,2,4,0,,,,1,,,,,,,,,,,,,,,,,,,,,,,,,,,,,,,,,,,,,,,,,,,,,,89,156184,19,Female,1,2024/03/14_10:30:28,YZ,None,
1,./instructions/inst_to_cali/Slide20.png,right,6.319335186999524,137.41083748900564,143.73017267600517,,,,,,,,,,,,,,,,,,,,,,,,,,,,,,,,,1,,,,,,,,,,,,,,,,,,,,,,,,,,,,,,,,,,,,,,,,,,,,,,89,156184,19,Female,1,2024/03/14_10:30:28,YZ,None,
1,./instructions/inst_cali/Slide22.png,right,1.5741351420001592,143.76392984700215,145.3380649890023,,,,,,,,,,,,,,,,,,,,,,,,,,,,,,,,,1,,,,,,,,,,,,,,,,,,,,,,,,,,,,,,,,,,,,,,,,,,,,,,89,156184,19,Female,1,2024/03/14_10:30:28,YZ,None,
,,,,,,calibration,0,18,2,583,1,X,0,right,0.5755743439949583,1,0,,,,,,,,,,,,,,,,,,,,,1,,,,,,,,,,,,,,,,,,,,,,,,,,,,,,,,,,,,,,,,,,,,,,89,156184,19,Female,1,2024/03/14_10:30:28,YZ,None,
,,,,,,calibration,0,18,2,583,2,C,0,right,0.6220736709947232,1,0,,,,,,,,,,,,,,,,,,,,,1,,,,,,,,,,,,,,,,,,,,,,,,,,,,,,,,,,,,,,,,,,,,,,89,156184,19,Female,1,2024/03/14_10:30:28,YZ,None,
,,,,,,calibration,0,18,2,583,3,S,0,right,0.4738916289934423,1,0,,,,,,,,,,,,,,,,,,,,,1,,,,,,,,,,,,,,,,,,,,,,,,,,,,,,,,,,,,,,,,,,,,,,89,156184,19,Female,1,2024/03/14_10:30:28,YZ,None,
,,,,,,calibration,0,18,2,583,4,V,0,right,0.5979254479898373,1,0,,,,,,,,,,,,,,,,,,,,,1,,,,,,,,,,,,,,,,,,,,,,,,,,,,,,,,,,,,,,,,,,,,,,89,156184,19,Female,1,2024/03/14_10:30:28,YZ,None,
,,,,,,calibration,0,18,2,583,5,X,0,right,0.5412971790065058,1,0,,,,,,,,,,,,,,,,,,,,,1,,,,,,,,,,,,,,,,,,,,,,,,,,,,,,,,,,,,,,,,,,,,,,89,156184,19,Female,1,2024/03/14_10:30:28,YZ,None,
,,,,,,calibration,0,18,2,583,6,J,0,right,0.5125078070122981,1,0,,,,,,,,,,,,,,,,,,,,,1,,,,,,,,,,,,,,,,,,,,,,,,,,,,,,,,,,,,,,,,,,,,,,89,156184,19,Female,1,2024/03/14_10:30:28,YZ,None,
,,,,,,calibration,0,18,2,583,7,X,1,left,0.48807701500481926,1,0,,,,,,,,,,,,,,,,,,,,,1,,,,,,,,,,,,,,,,,,,,,,,,,,,,,,,,,,,,,,,,,,,,,,89,156184,19,Female,1,2024/03/14_10:30:28,YZ,None,
,,,,,,calibration,0,18,2,583,8,J,1,left,0.8005151600082172,1,0,,,,,,,,,,,,,,,,,,,,,1,,,,,,,,,,,,,,,,,,,,,,,,,,,,,,,,,,,,,,,,,,,,,,89,156184,19,Female,1,2024/03/14_10:30:28,YZ,None,
,,,,,,calibration,0,18,2,583,9,V,0,right,0.713817399009713,1,0,,,,,,,,,,,,,,,,,,,,,1,,,,,,,,,,,,,,,,,,,,,,,,,,,,,,,,,,,,,,,,,,,,,,89,156184,19,Female,1,2024/03/14_10:30:28,YZ,None,
,,,,,,calibration,0,18,2,583,10,J,1,left,1.3585623769904487,1,0,,,,,,,,,,,,,,,,,,,,,1,,,,,,,,,,,,,,,,,,,,,,,,,,,,,,,,,,,,,,,,,,,,,,89,156184,19,Female,1,2024/03/14_10:30:28,YZ,None,
,,,,,,calibration,0,18,2,583,11,Q,0,right,0.8123782220063731,1,0,,,,,,,,,,,,,,,,,,,,,1,,,,,,,,,,,,,,,,,,,,,,,,,,,,,,,,,,,,,,,,,,,,,,89,156184,19,Female,1,2024/03/14_10:30:28,YZ,None,
,,,,,,calibration,0,18,2,583,12,F,0,right,0.7976299799920525,1,0,,,,,,,,,,,,,,,,,,,,,1,,,,,,,,,,,,,,,,,,,,,,,,,,,,,,,,,,,,,,,,,,,,,,89,156184,19,Female,1,2024/03/14_10:30:28,YZ,None,
,,,,,,calibration,0,18,2,583,13,Q,1,left,0.48224440700141713,1,0,,,,,,,,,,,,,,,,,,,,,1,,,,,,,,,,,,,,,,,,,,,,,,,,,,,,,,,,,,,,,,,,,,,,89,156184,19,Female,1,2024/03/14_10:30:28,YZ,None,
,,,,,,calibration,0,18,2,583,14,N,0,right,0.5305339689948596,1,0,,,,,,,,,,,,,,,,,,,,,1,,,,,,,,,,,,,,,,,,,,,,,,,,,,,,,,,,,,,,,,,,,,,,89,156184,19,Female,1,2024/03/14_10:30:28,YZ,None,
,,,,,,calibration,0,18,2,583,15,J,0,right,0.7128638669964857,1,0,,,,,,,,,,,,,,,,,,,,,1,,,,,,,,,,,,,,,,,,,,,,,,,,,,,,,,,,,,,,,,,,,,,,89,156184,19,Female,1,2024/03/14_10:30:28,YZ,None,
,,,,,,calibration,0,18,2,583,,,,,,,,1.0,1.0,0.0,1.0,0.0,1.0,0.6679928315997434,4,0,0,0,0,11,15,4,11,0,,,,1,,,,,,,,,,,,,,,,,,,,,,,,,,,,,,,,,,,,,,,,,,,,,,89,156184,19,Female,1,2024/03/14_10:30:28,YZ,None,
,,,,,,Calibration,0,,2,583,,,,,,,,,,,,,,,,,,,,,,,,,1,,,1,,,,,,,,,,,,,,,,,,,,,,,,,,,,,,,,,,,,,,,,,,,,,,89,156184,19,Female,1,2024/03/14_10:30:28,YZ,None,
,,,,,,calibration,0,7,2,500,1,N,0,right,0.6516805619903607,1,0,,,,,,,,,,,,,,,,,,,,,1,,,,,,,,,,,,,,,,,,,,,,,,,,,,,,,,,,,,,,,,,,,,,,89,156184,19,Female,1,2024/03/14_10:30:28,YZ,None,
,,,,,,calibration,0,7,2,500,2,C,0,right,0.8759186459938064,1,0,,,,,,,,,,,,,,,,,,,,,1,,,,,,,,,,,,,,,,,,,,,,,,,,,,,,,,,,,,,,,,,,,,,,89,156184,19,Female,1,2024/03/14_10:30:28,YZ,None,
,,,,,,calibration,0,7,2,500,3,V,0,right,0.4591245290066581,1,0,,,,,,,,,,,,,,,,,,,,,1,,,,,,,,,,,,,,,,,,,,,,,,,,,,,,,,,,,,,,,,,,,,,,89,156184,19,Female,1,2024/03/14_10:30:28,YZ,None,
,,,,,,calibration,0,7,2,500,4,F,0,right,0.5486223890038673,1,0,,,,,,,,,,,,,,,,,,,,,1,,,,,,,,,,,,,,,,,,,,,,,,,,,,,,,,,,,,,,,,,,,,,,89,156184,19,Female,1,2024/03/14_10:30:28,YZ,None,
,,,,,,calibration,0,7,2,500,5,V,1,left,0.7443792120029684,1,0,,,,,,,,,,,,,,,,,,,,,1,,,,,,,,,,,,,,,,,,,,,,,,,,,,,,,,,,,,,,,,,,,,,,89,156184,19,Female,1,2024/03/14_10:30:28,YZ,None,
,,,,,,calibration,0,7,2,500,6,J,0,right,0.6749020610004663,1,0,,,,,,,,,,,,,,,,,,,,,1,,,,,,,,,,,,,,,,,,,,,,,,,,,,,,,,,,,,,,,,,,,,,,89,156184,19,Female,1,2024/03/14_10:30:28,YZ,None,
,,,,,,calibration,0,7,2,500,7,N,0,right,nan,0,1,,,,,,,,,,,,,,,,,,,,,1,,,,,,,,,,,,,,,,,,,,,,,,,,,,,,,,,,,,,,,,,,,,,,89,156184,19,Female,1,2024/03/14_10:30:28,YZ,None,
,,,,,,calibration,0,7,2,500,8,J,1,left,0.8144593879987951,1,0,,,,,,,,,,,,,,,,,,,,,1,,,,,,,,,,,,,,,,,,,,,,,,,,,,,,,,,,,,,,,,,,,,,,89,156184,19,Female,1,2024/03/14_10:30:28,YZ,None,
,,,,,,calibration,0,7,2,500,9,N,1,left,0.9241993920004461,1,0,,,,,,,,,,,,,,,,,,,,,1,,,,,,,,,,,,,,,,,,,,,,,,,,,,,,,,,,,,,,,,,,,,,,89,156184,19,Female,1,2024/03/14_10:30:28,YZ,None,
,,,,,,calibration,0,7,2,500,10,Q,0,right,0.8237995529925684,1,0,,,,,,,,,,,,,,,,,,,,,1,,,,,,,,,,,,,,,,,,,,,,,,,,,,,,,,,,,,,,,,,,,,,,89,156184,19,Female,1,2024/03/14_10:30:28,YZ,None,
,,,,,,calibration,0,7,2,500,11,V,0,right,0.8248250119941076,1,0,,,,,,,,,,,,,,,,,,,,,1,,,,,,,,,,,,,,,,,,,,,,,,,,,,,,,,,,,,,,,,,,,,,,89,156184,19,Female,1,2024/03/14_10:30:28,YZ,None,
,,,,,,calibration,0,7,2,500,12,Q,1,left,0.5305104610015405,1,0,,,,,,,,,,,,,,,,,,,,,1,,,,,,,,,,,,,,,,,,,,,,,,,,,,,,,,,,,,,,,,,,,,,,89,156184,19,Female,1,2024/03/14_10:30:28,YZ,None,
,,,,,,calibration,0,7,2,500,13,N,0,right,0.9639044109935639,1,0,,,,,,,,,,,,,,,,,,,,,1,,,,,,,,,,,,,,,,,,,,,,,,,,,,,,,,,,,,,,,,,,,,,,89,156184,19,Female,1,2024/03/14_10:30:28,YZ,None,
,,,,,,calibration,0,7,2,500,14,Q,1,left,0.8419049410003936,1,0,,,,,,,,,,,,,,,,,,,,,1,,,,,,,,,,,,,,,,,,,,,,,,,,,,,,,,,,,,,,,,,,,,,,89,156184,19,Female,1,2024/03/14_10:30:28,YZ,None,
,,,,,,calibration,0,7,2,500,15,J,0,right,0.9424149740079883,1,0,,,,,,,,,,,,,,,,,,,,,1,,,,,,,,,,,,,,,,,,,,,,,,,,,,,,,,,,,,,,,,,,,,,,89,156184,19,Female,1,2024/03/14_10:30:28,YZ,None,
,,,,,,calibration,0,7,2,500,16,S,0,right,0.958533344004536,1,0,,,,,,,,,,,,,,,,,,,,,1,,,,,,,,,,,,,,,,,,,,,,,,,,,,,,,,,,,,,,,,,,,,,,89,156184,19,Female,1,2024/03/14_10:30:28,YZ,None,
,,,,,,calibration,0,7,2,500,,,,,,,,1.0,1.0,0.0,1.0,0.0625,0.9375,0.7719452583328045,5,0,0,1,1,10,15,5,11,0,,,,1,,,,,,,,,,,,,,,,,,,,,,,,,,,,,,,,,,,,,,,,,,,,,,89,156184,19,Female,1,2024/03/14_10:30:28,YZ,None,
,,,,,,Calibration,0,,2,500,,,,,,,,,,,,,,,,,,,,,,,,,2,,,1,,,,,,,,,,,,,,,,,,,,,,,,,,,,,,,,,,,,,,,,,,,,,,89,156184,19,Female,1,2024/03/14_10:30:28,YZ,None,
,,,,,,calibration,0,15,2,426,1,N,0,None,nan,0,1,,,,,,,,,,,,,,,,,,,,,1,,,,,,,,,,,,,,,,,,,,,,,,,,,,,,,,,,,,,,,,,,,,,,89,156184,19,Female,1,2024/03/14_10:30:28,YZ,None,
,,,,,,calibration,0,15,2,426,2,S,0,None,nan,0,1,,,,,,,,,,,,,,,,,,,,,1,,,,,,,,,,,,,,,,,,,,,,,,,,,,,,,,,,,,,,,,,,,,,,89,156184,19,Female,1,2024/03/14_10:30:28,YZ,None,
,,,,,,calibration,0,15,2,426,3,X,0,None,nan,0,1,,,,,,,,,,,,,,,,,,,,,1,,,,,,,,,,,,,,,,,,,,,,,,,,,,,,,,,,,,,,,,,,,,,,89,156184,19,Female,1,2024/03/14_10:30:28,YZ,None,
,,,,,,calibration,0,15,2,426,4,V,0,None,nan,0,1,,,,,,,,,,,,,,,,,,,,,1,,,,,,,,,,,,,,,,,,,,,,,,,,,,,,,,,,,,,,,,,,,,,,89,156184,19,Female,1,2024/03/14_10:30:28,YZ,None,
,,,,,,calibration,0,15,2,426,5,X,1,None,nan,0,1,,,,,,,,,,,,,,,,,,,,,1,,,,,,,,,,,,,,,,,,,,,,,,,,,,,,,,,,,,,,,,,,,,,,89,156184,19,Female,1,2024/03/14_10:30:28,YZ,None,
,,,,,,calibration,0,15,2,426,6,V,1,left,0.9760536910034716,1,0,,,,,,,,,,,,,,,,,,,,,1,,,,,,,,,,,,,,,,,,,,,,,,,,,,,,,,,,,,,,,,,,,,,,89,156184,19,Female,1,2024/03/14_10:30:28,YZ,None,
,,,,,,calibration,0,15,2,426,7,S,0,right,0.8564981269882992,1,0,,,,,,,,,,,,,,,,,,,,,1,,,,,,,,,,,,,,,,,,,,,,,,,,,,,,,,,,,,,,,,,,,,,,89,156184,19,Female,1,2024/03/14_10:30:28,YZ,None,
,,,,,,calibration,0,15,2,426,8,N,0,right,0.5411065080115804,1,0,,,,,,,,,,,,,,,,,,,,,1,,,,,,,,,,,,,,,,,,,,,,,,,,,,,,,,,,,,,,,,,,,,,,89,156184,19,Female,1,2024/03/14_10:30:28,YZ,None,
,,,,,,calibration,0,15,2,426,9,V,0,right,0.41044583699840587,1,0,,,,,,,,,,,,,,,,,,,,,1,,,,,,,,,,,,,,,,,,,,,,,,,,,,,,,,,,,,,,,,,,,,,,89,156184,19,Female,1,2024/03/14_10:30:28,YZ,None,
,,,,,,calibration,0,15,2,426,10,C,0,right,nan,0,1,,,,,,,,,,,,,,,,,,,,,1,,,,,,,,,,,,,,,,,,,,,,,,,,,,,,,,,,,,,,,,,,,,,,89,156184,19,Female,1,2024/03/14_10:30:28,YZ,None,
,,,,,,calibration,0,15,2,426,11,V,1,right,nan,0,1,,,,,,,,,,,,,,,,,,,,,1,,,,,,,,,,,,,,,,,,,,,,,,,,,,,,,,,,,,,,,,,,,,,,89,156184,19,Female,1,2024/03/14_10:30:28,YZ,None,
,,,,,,calibration,0,15,2,426,12,N,0,right,0.2204127199947834,1,0,,,,,,,,,,,,,,,,,,,,,1,,,,,,,,,,,,,,,,,,,,,,,,,,,,,,,,,,,,,,,,,,,,,,89,156184,19,Female,1,2024/03/14_10:30:28,YZ,None,
,,,,,,calibration,0,15,2,426,13,V,1,left,0.0,1,0,,,,,,,,,,,,,,,,,,,,,1,,,,,,,,,,,,,,,,,,,,,,,,,,,,,,,,,,,,,,,,,,,,,,89,156184,19,Female,1,2024/03/14_10:30:28,YZ,None,
,,,,,,calibration,0,15,2,426,14,F,0,left,nan,0,1,,,,,,,,,,,,,,,,,,,,,1,,,,,,,,,,,,,,,,,,,,,,,,,,,,,,,,,,,,,,,,,,,,,,89,156184,19,Female,1,2024/03/14_10:30:28,YZ,None,
,,,,,,calibration,0,15,2,426,15,V,1,left,nan,0,1,,,,,,,,,,,,,,,,,,,,,1,,,,,,,,,,,,,,,,,,,,,,,,,,,,,,,,,,,,,,,,,,,,,,89,156184,19,Female,1,2024/03/14_10:30:28,YZ,None,
,,,,,,calibration,0,15,2,426,16,C,0,left,nan,0,1,,,,,,,,,,,,,,,,,,,,,1,,,,,,,,,,,,,,,,,,,,,,,,,,,,,,,,,,,,,,,,,,,,,,89,156184,19,Female,1,2024/03/14_10:30:28,YZ,None,
,,,,,,calibration,0,15,2,426,17,Q,0,right,0.9141648270015139,1,0,,,,,,,,,,,,,,,,,,,,,1,,,,,,,,,,,,,,,,,,,,,,,,,,,,,,,,,,,,,,,,,,,,,,89,156184,19,Female,1,2024/03/14_10:30:28,YZ,None,
,,,,,,calibration,0,15,2,426,,,,,,,,0.85,0.4,0.0,1.0,0.5882352941176471,0.4117647058823529,0.559811672856865,2,0,3,7,10,5,7,5,12,0,,,,1,,,,,,,,,,,,,,,,,,,,,,,,,,,,,,,,,,,,,,,,,,,,,,89,156184,19,Female,1,2024/03/14_10:30:28,YZ,None,
,,,,,,Calibration,0,,2,426,,,,,,,,,,,,,,,,,,,,,,,,,3,,,1,,,,,,,,,,,,,,,,,,,,,,,,,,,,,,,,,,,,,,,,,,,,,,89,156184,19,Female,1,2024/03/14_10:30:28,YZ,None,
,,,,,,calibration,0,28,2,426,1,C,0,right,0.9853275650093565,1,0,,,,,,,,,,,,,,,,,,,,,1,,,,,,,,,,,,,,,,,,,,,,,,,,,,,,,,,,,,,,,,,,,,,,89,156184,19,Female,1,2024/03/14_10:30:28,YZ,None,
,,,,,,calibration,0,28,2,426,2,S,0,right,0.7306408869917504,1,0,,,,,,,,,,,,,,,,,,,,,1,,,,,,,,,,,,,,,,,,,,,,,,,,,,,,,,,,,,,,,,,,,,,,89,156184,19,Female,1,2024/03/14_10:30:28,YZ,None,
,,,,,,calibration,0,28,2,426,3,F,0,right,0.5424305480119074,1,0,,,,,,,,,,,,,,,,,,,,,1,,,,,,,,,,,,,,,,,,,,,,,,,,,,,,,,,,,,,,,,,,,,,,89,156184,19,Female,1,2024/03/14_10:30:28,YZ,None,
,,,,,,calibration,0,28,2,426,4,N,0,right,0.6237707380059874,1,0,,,,,,,,,,,,,,,,,,,,,1,,,,,,,,,,,,,,,,,,,,,,,,,,,,,,,,,,,,,,,,,,,,,,89,156184,19,Female,1,2024/03/14_10:30:28,YZ,None,
,,,,,,calibration,0,28,2,426,5,F,1,left,0.8078684280044399,1,0,,,,,,,,,,,,,,,,,,,,,1,,,,,,,,,,,,,,,,,,,,,,,,,,,,,,,,,,,,,,,,,,,,,,89,156184,19,Female,1,2024/03/14_10:30:28,YZ,None,
,,,,,,calibration,0,28,2,426,6,N,1,left,0.7282532160024857,1,0,,,,,,,,,,,,,,,,,,,,,1,,,,,,,,,,,,,,,,,,,,,,,,,,,,,,,,,,,,,,,,,,,,,,89,156184,19,Female,1,2024/03/14_10:30:28,YZ,None,
,,,,,,calibration,0,28,2,426,7,C,0,left,0.7254411879985128,0,0,,,,,,,,,,,,,,,,,,,,,1,,,,,,,,,,,,,,,,,,,,,,,,,,,,,,,,,,,,,,,,,,,,,,89,156184,19,Female,1,2024/03/14_10:30:28,YZ,None,
,,,,,,calibration,0,28,2,426,8,V,0,right,0.791568771994207,1,0,,,,,,,,,,,,,,,,,,,,,1,,,,,,,,,,,,,,,,,,,,,,,,,,,,,,,,,,,,,,,,,,,,,,89,156184,19,Female,1,2024/03/14_10:30:28,YZ,None,
,,,,,,calibration,0,28,2,426,9,J,0,right,0.7914210840099258,1,0,,,,,,,,,,,,,,,,,,,,,1,,,,,,,,,,,,,,,,,,,,,,,,,,,,,,,,,,,,,,,,,,,,,,89,156184,19,Female,1,2024/03/14_10:30:28,YZ,None,
,,,,,,calibration,0,28,2,426,10,V,1,left,0.7207369759998983,1,0,,,,,,,,,,,,,,,,,,,,,1,,,,,,,,,,,,,,,,,,,,,,,,,,,,,,,,,,,,,,,,,,,,,,89,156184,19,Female,1,2024/03/14_10:30:28,YZ,None,
,,,,,,calibration,0,28,2,426,11,S,0,right,0.70698045300378,1,0,,,,,,,,,,,,,,,,,,,,,1,,,,,,,,,,,,,,,,,,,,,,,,,,,,,,,,,,,,,,,,,,,,,,89,156184,19,Female,1,2024/03/14_10:30:28,YZ,None,
,,,,,,calibration,0,28,2,426,12,X,0,left,0.8758787620026851,0,0,,,,,,,,,,,,,,,,,,,,,1,,,,,,,,,,,,,,,,,,,,,,,,,,,,,,,,,,,,,,,,,,,,,,89,156184,19,Female,1,2024/03/14_10:30:28,YZ,None,
,,,,,,calibration,0,28,2,426,13,F,0,left,nan,0,1,,,,,,,,,,,,,,,,,,,,,1,,,,,,,,,,,,,,,,,,,,,,,,,,,,,,,,,,,,,,,,,,,,,,89,156184,19,Female,1,2024/03/14_10:30:28,YZ,None,
,,,,,,calibration,0,28,2,426,14,X,1,left,nan,0,1,,,,,,,,,,,,,,,,,,,,,1,,,,,,,,,,,,,,,,,,,,,,,,,,,,,,,,,,,,,,,,,,,,,,89,156184,19,Female,1,2024/03/14_10:30:28,YZ,None,
,,,,,,calibration,0,28,2,426,15,F,1,left,nan,0,1,,,,,,,,,,,,,,,,,,,,,1,,,,,,,,,,,,,,,,,,,,,,,,,,,,,,,,,,,,,,,,,,,,,,89,156184,19,Female,1,2024/03/14_10:30:28,YZ,None,
,,,,,,calibration,0,28,2,426,16,S,0,right,0.31662031599262264,1,0,,,,,,,,,,,,,,,,,,,,,1,,,,,,,,,,,,,,,,,,,,,,,,,,,,,,,,,,,,,,,,,,,,,,89,156184,19,Female,1,2024/03/14_10:30:28,YZ,None,
,,,,,,calibration,0,28,2,426,17,J,0,right,0.8466108520078706,1,0,,,,,,,,,,,,,,,,,,,,,1,,,,,,,,,,,,,,,,,,,,,,,,,,,,,,,,,,,,,,,,,,,,,,89,156184,19,Female,1,2024/03/14_10:30:28,YZ,None,
,,,,,,calibration,0,28,2,426,,,,,,,,0.7916666666666667,0.6,0.16666666666666666,0.8181818181818182,0.17647058823529413,0.6568627450980392,0.7281106989311021,3,2,2,1,3,9,12,5,12,0,,,,1,,,,,,,,,,,,,,,,,,,,,,,,,,,,,,,,,,,,,,,,,,,,,,89,156184,19,Female,1,2024/03/14_10:30:28,YZ,None,
,,,,,,Calibration,0,,2,426,,,,,,,,,,,,,,,,,,,,,,,,,4,,,1,,,,,,,,,,,,,,,,,,,,,,,,,,,,,,,,,,,,,,,,,,,,,,89,156184,19,Female,1,2024/03/14_10:30:28,YZ,None,
,,,,,,calibration,0,29,2,426,1,N,0,right,0.5670205870119389,1,0,,,,,,,,,,,,,,,,,,,,,1,,,,,,,,,,,,,,,,,,,,,,,,,,,,,,,,,,,,,,,,,,,,,,89,156184,19,Female,1,2024/03/14_10:30:28,YZ,None,
,,,,,,calibration,0,29,2,426,2,V,0,right,0.714172146996134,1,0,,,,,,,,,,,,,,,,,,,,,1,,,,,,,,,,,,,,,,,,,,,,,,,,,,,,,,,,,,,,,,,,,,,,89,156184,19,Female,1,2024/03/14_10:30:28,YZ,None,
,,,,,,calibration,0,29,2,426,3,F,0,right,0.70909991399094,1,0,,,,,,,,,,,,,,,,,,,,,1,,,,,,,,,,,,,,,,,,,,,,,,,,,,,,,,,,,,,,,,,,,,,,89,156184,19,Female,1,2024/03/14_10:30:28,YZ,None,
,,,,,,calibration,0,29,2,426,4,J,0,right,0.6521200970018981,1,0,,,,,,,,,,,,,,,,,,,,,1,,,,,,,,,,,,,,,,,,,,,,,,,,,,,,,,,,,,,,,,,,,,,,89,156184,19,Female,1,2024/03/14_10:30:28,YZ,None,
,,,,,,calibration,0,29,2,426,5,V,0,left,0.8523468490020605,0,0,,,,,,,,,,,,,,,,,,,,,1,,,,,,,,,,,,,,,,,,,,,,,,,,,,,,,,,,,,,,,,,,,,,,89,156184,19,Female,1,2024/03/14_10:30:28,YZ,None,
,,,,,,calibration,0,29,2,426,6,F,0,left,0.9383738580072531,0,0,,,,,,,,,,,,,,,,,,,,,1,,,,,,,,,,,,,,,,,,,,,,,,,,,,,,,,,,,,,,,,,,,,,,89,156184,19,Female,1,2024/03/14_10:30:28,YZ,None,
,,,,,,calibration,0,29,2,426,7,V,1,left,0.8298338299937313,1,0,,,,,,,,,,,,,,,,,,,,,1,,,,,,,,,,,,,,,,,,,,,,,,,,,,,,,,,,,,,,,,,,,,,,89,156184,19,Female,1,2024/03/14_10:30:28,YZ,None,
,,,,,,calibration,0,29,2,426,8,C,0,right,0.9982965259987395,1,0,,,,,,,,,,,,,,,,,,,,,1,,,,,,,,,,,,,,,,,,,,,,,,,,,,,,,,,,,,,,,,,,,,,,89,156184,19,Female,1,2024/03/14_10:30:28,YZ,None,
,,,,,,calibration,0,29,2,426,9,S,0,right,0.6748252859979402,1,0,,,,,,,,,,,,,,,,,,,,,1,,,,,,,,,,,,,,,,,,,,,,,,,,,,,,,,,,,,,,,,,,,,,,89,156184,19,Female,1,2024/03/14_10:30:28,YZ,None,
,,,,,,calibration,0,29,2,426,10,V,0,right,0.7278204890026245,1,0,,,,,,,,,,,,,,,,,,,,,1,,,,,,,,,,,,,,,,,,,,,,,,,,,,,,,,,,,,,,,,,,,,,,89,156184,19,Female,1,2024/03/14_10:30:28,YZ,None,
,,,,,,calibration,0,29,2,426,11,S,1,left,0.748729368991917,1,0,,,,,,,,,,,,,,,,,,,,,1,,,,,,,,,,,,,,,,,,,,,,,,,,,,,,,,,,,,,,,,,,,,,,89,156184,19,Female,1,2024/03/14_10:30:28,YZ,None,
,,,,,,calibration,0,29,2,426,12,V,1,left,0.8761822600063169,1,0,,,,,,,,,,,,,,,,,,,,,1,,,,,,,,,,,,,,,,,,,,,,,,,,,,,,,,,,,,,,,,,,,,,,89,156184,19,Female,1,2024/03/14_10:30:28,YZ,None,
,,,,,,calibration,0,29,2,426,13,C,0,right,0.8594398410059512,1,0,,,,,,,,,,,,,,,,,,,,,1,,,,,,,,,,,,,,,,,,,,,,,,,,,,,,,,,,,,,,,,,,,,,,89,156184,19,Female,1,2024/03/14_10:30:28,YZ,None,
,,,,,,calibration,0,29,2,426,14,X,0,right,0.8314931519998936,1,0,,,,,,,,,,,,,,,,,,,,,1,,,,,,,,,,,,,,,,,,,,,,,,,,,,,,,,,,,,,,,,,,,,,,89,156184,19,Female,1,2024/03/14_10:30:28,YZ,None,
,,,,,,calibration,0,29,2,426,15,C,1,left,0.9756300110020675,1,0,,,,,,,,,,,,,,,,,,,,,1,,,,,,,,,,,,,,,,,,,,,,,,,,,,,,,,,,,,,,,,,,,,,,89,156184,19,Female,1,2024/03/14_10:30:28,YZ,None,
,,,,,,calibration,0,29,2,426,16,V,0,right,0.8005370229948312,1,0,,,,,,,,,,,,,,,,,,,,,1,,,,,,,,,,,,,,,,,,,,,,,,,,,,,,,,,,,,,,,,,,,,,,89,156184,19,Female,1,2024/03/14_10:30:28,YZ,None,
,,,,,,calibration,0,29,2,426,17,C,1,right,0.8691095740068704,0,0,,,,,,,,,,,,,,,,,,,,,1,,,,,,,,,,,,,,,,,,,,,,,,,,,,,,,,,,,,,,,,,,,,,,89,156184,19,Female,1,2024/03/14_10:30:28,YZ,None,
,,,,,,calibration,0,29,2,426,,,,,,,,0.875,0.8,0.16666666666666666,0.8333333333333334,0.0,0.8333333333333334,0.8014724007653593,4,2,0,0,0,10,14,5,12,0,,,,1,,,,,,,,,,,,,,,,,,,,,,,,,,,,,,,,,,,,,,,,,,,,,,89,156184,19,Female,1,2024/03/14_10:30:28,YZ,None,
,,,,,,Calibration,0,,2,426,,,,,,,,,,,,,,,,,,,,,,,,,5,,,1,,,,,,,,,,,,,,,,,,,,,,,,,,,,,,,,,,,,,,,,,,,,,,89,156184,19,Female,1,2024/03/14_10:30:28,YZ,None,
,,,,,,calibration,0,30,2,361,1,N,0,right,0.7479506580129964,1,0,,,,,,,,,,,,,,,,,,,,,1,,,,,,,,,,,,,,,,,,,,,,,,,,,,,,,,,,,,,,,,,,,,,,89,156184,19,Female,1,2024/03/14_10:30:28,YZ,None,
,,,,,,calibration,0,30,2,361,2,X,0,right,0.6139347239950439,1,0,,,,,,,,,,,,,,,,,,,,,1,,,,,,,,,,,,,,,,,,,,,,,,,,,,,,,,,,,,,,,,,,,,,,89,156184,19,Female,1,2024/03/14_10:30:28,YZ,None,
,,,,,,calibration,0,30,2,361,3,N,1,left,0.4937290610105265,1,0,,,,,,,,,,,,,,,,,,,,,1,,,,,,,,,,,,,,,,,,,,,,,,,,,,,,,,,,,,,,,,,,,,,,89,156184,19,Female,1,2024/03/14_10:30:28,YZ,None,
,,,,,,calibration,0,30,2,361,4,F,0,right,0.8316624260041863,1,0,,,,,,,,,,,,,,,,,,,,,1,,,,,,,,,,,,,,,,,,,,,,,,,,,,,,,,,,,,,,,,,,,,,,89,156184,19,Female,1,2024/03/14_10:30:28,YZ,None,
,,,,,,calibration,0,30,2,361,5,X,0,left,0.7748471560043981,0,0,,,,,,,,,,,,,,,,,,,,,1,,,,,,,,,,,,,,,,,,,,,,,,,,,,,,,,,,,,,,,,,,,,,,89,156184,19,Female,1,2024/03/14_10:30:28,YZ,None,
,,,,,,calibration,0,30,2,361,6,S,0,right,0.7592312210035743,1,0,,,,,,,,,,,,,,,,,,,,,1,,,,,,,,,,,,,,,,,,,,,,,,,,,,,,,,,,,,,,,,,,,,,,89,156184,19,Female,1,2024/03/14_10:30:28,YZ,None,
,,,,,,calibration,0,30,2,361,7,V,0,left,0.8589858770137653,0,0,,,,,,,,,,,,,,,,,,,,,1,,,,,,,,,,,,,,,,,,,,,,,,,,,,,,,,,,,,,,,,,,,,,,89,156184,19,Female,1,2024/03/14_10:30:28,YZ,None,
,,,,,,calibration,0,30,2,361,8,Q,0,right,0.6076155689952429,1,0,,,,,,,,,,,,,,,,,,,,,1,,,,,,,,,,,,,,,,,,,,,,,,,,,,,,,,,,,,,,,,,,,,,,89,156184,19,Female,1,2024/03/14_10:30:28,YZ,None,
,,,,,,calibration,0,30,2,361,9,V,1,left,0.8917267119977623,1,0,,,,,,,,,,,,,,,,,,,,,1,,,,,,,,,,,,,,,,,,,,,,,,,,,,,,,,,,,,,,,,,,,,,,89,156184,19,Female,1,2024/03/14_10:30:28,YZ,None,
,,,,,,calibration,0,30,2,361,10,Q,1,left,0.95748216699576,1,0,,,,,,,,,,,,,,,,,,,,,1,,,,,,,,,,,,,,,,,,,,,,,,,,,,,,,,,,,,,,,,,,,,,,89,156184,19,Female,1,2024/03/14_10:30:28,YZ,None,
,,,,,,calibration,0,30,2,361,11,N,0,left,nan,0,1,,,,,,,,,,,,,,,,,,,,,1,,,,,,,,,,,,,,,,,,,,,,,,,,,,,,,,,,,,,,,,,,,,,,89,156184,19,Female,1,2024/03/14_10:30:28,YZ,None,
,,,,,,calibration,0,30,2,361,12,J,0,left,nan,0,1,,,,,,,,,,,,,,,,,,,,,1,,,,,,,,,,,,,,,,,,,,,,,,,,,,,,,,,,,,,,,,,,,,,,89,156184,19,Female,1,2024/03/14_10:30:28,YZ,None,
,,,,,,calibration,0,30,2,361,13,N,1,left,nan,0,1,,,,,,,,,,,,,,,,,,,,,1,,,,,,,,,,,,,,,,,,,,,,,,,,,,,,,,,,,,,,,,,,,,,,89,156184,19,Female,1,2024/03/14_10:30:28,YZ,None,
,,,,,,calibration,0,30,2,361,14,F,0,left,nan,0,1,,,,,,,,,,,,,,,,,,,,,1,,,,,,,,,,,,,,,,,,,,,,,,,,,,,,,,,,,,,,,,,,,,,,89,156184,19,Female,1,2024/03/14_10:30:28,YZ,None,
,,,,,,calibration,0,30,2,361,15,J,0,left,nan,0,1,,,,,,,,,,,,,,,,,,,,,1,,,,,,,,,,,,,,,,,,,,,,,,,,,,,,,,,,,,,,,,,,,,,,89,156184,19,Female,1,2024/03/14_10:30:28,YZ,None,
,,,,,,calibration,0,30,2,361,16,F,1,left,nan,0,1,,,,,,,,,,,,,,,,,,,,,1,,,,,,,,,,,,,,,,,,,,,,,,,,,,,,,,,,,,,,,,,,,,,,89,156184,19,Female,1,2024/03/14_10:30:28,YZ,None,
,,,,,,calibration,0,30,2,361,17,V,0,left,0.0,0,0,,,,,,,,,,,,,,,,,,,,,1,,,,,,,,,,,,,,,,,,,,,,,,,,,,,,,,,,,,,,,,,,,,,,89,156184,19,Female,1,2024/03/14_10:30:28,YZ,None,
,,,,,,calibration,0,30,2,361,18,F,1,left,nan,0,1,,,,,,,,,,,,,,,,,,,,,1,,,,,,,,,,,,,,,,,,,,,,,,,,,,,,,,,,,,,,,,,,,,,,89,156184,19,Female,1,2024/03/14_10:30:28,YZ,None,
,,,,,,calibration,0,30,2,361,,,,,,,,0.6875,0.5,0.25,0.625,0.3888888888888889,0.3611111111111111,0.6851968700939324,3,3,3,4,7,5,8,6,12,0,,,,1,,,,,,,,,,,,,,,,,,,,,,,,,,,,,,,,,,,,,,,,,,,,,,89,156184,19,Female,1,2024/03/14_10:30:28,YZ,None,
,,,,,,Calibration,0,,2,361,,,,,,,,,,,,,,,,,,,,,,,,,6,,,1,,,,,,,,,,,,,,,,,,,,,,,,,,,,,,,,,,,,,,,,,,,,,,89,156184,19,Female,1,2024/03/14_10:30:28,YZ,None,
,,,,,,calibration,0,13,2,426,1,X,0,right,0.512474724004278,1,0,,,,,,,,,,,,,,,,,,,,,1,,,,,,,,,,,,,,,,,,,,,,,,,,,,,,,,,,,,,,,,,,,,,,89,156184,19,Female,1,2024/03/14_10:30:28,YZ,None,
,,,,,,calibration,0,13,2,426,2,X,0,right,0.9605490950052626,1,0,,,,,,,,,,,,,,,,,,,,,1,,,,,,,,,,,,,,,,,,,,,,,,,,,,,,,,,,,,,,,,,,,,,,89,156184,19,Female,1,2024/03/14_10:30:28,YZ,None,
,,,,,,calibration,0,13,2,426,3,N,0,left,0.0,0,0,,,,,,,,,,,,,,,,,,,,,1,,,,,,,,,,,,,,,,,,,,,,,,,,,,,,,,,,,,,,,,,,,,,,89,156184,19,Female,1,2024/03/14_10:30:28,YZ,None,
,,,,,,calibration,0,13,2,426,4,Q,0,left,nan,0,1,,,,,,,,,,,,,,,,,,,,,1,,,,,,,,,,,,,,,,,,,,,,,,,,,,,,,,,,,,,,,,,,,,,,89,156184,19,Female,1,2024/03/14_10:30:28,YZ,None,
,,,,,,calibration,0,13,2,426,5,N,1,left,nan,0,1,,,,,,,,,,,,,,,,,,,,,1,,,,,,,,,,,,,,,,,,,,,,,,,,,,,,,,,,,,,,,,,,,,,,89,156184,19,Female,1,2024/03/14_10:30:28,YZ,None,
,,,,,,calibration,0,13,2,426,6,F,0,right,0.2423353810008848,1,0,,,,,,,,,,,,,,,,,,,,,1,,,,,,,,,,,,,,,,,,,,,,,,,,,,,,,,,,,,,,,,,,,,,,89,156184,19,Female,1,2024/03/14_10:30:28,YZ,None,
,,,,,,calibration,0,13,2,426,7,N,1,right,nan,0,1,,,,,,,,,,,,,,,,,,,,,1,,,,,,,,,,,,,,,,,,,,,,,,,,,,,,,,,,,,,,,,,,,,,,89,156184,19,Female,1,2024/03/14_10:30:28,YZ,None,
,,,,,,calibration,0,13,2,426,8,J,0,right,0.20429169200360775,1,0,,,,,,,,,,,,,,,,,,,,,1,,,,,,,,,,,,,,,,,,,,,,,,,,,,,,,,,,,,,,,,,,,,,,89,156184,19,Female,1,2024/03/14_10:30:28,YZ,None,
,,,,,,calibration,0,13,2,426,9,S,0,right,nan,0,1,,,,,,,,,,,,,,,,,,,,,1,,,,,,,,,,,,,,,,,,,,,,,,,,,,,,,,,,,,,,,,,,,,,,89,156184,19,Female,1,2024/03/14_10:30:28,YZ,None,
,,,,,,calibration,0,13,2,426,10,V,0,left,0.8987501980009256,0,0,,,,,,,,,,,,,,,,,,,,,1,,,,,,,,,,,,,,,,,,,,,,,,,,,,,,,,,,,,,,,,,,,,,,89,156184,19,Female,1,2024/03/14_10:30:28,YZ,None,
,,,,,,calibration,0,13,2,426,11,J,0,right,0.6415209039987531,1,0,,,,,,,,,,,,,,,,,,,,,1,,,,,,,,,,,,,,,,,,,,,,,,,,,,,,,,,,,,,,,,,,,,,,89,156184,19,Female,1,2024/03/14_10:30:28,YZ,None,
,,,,,,calibration,0,13,2,426,12,V,1,right,nan,0,1,,,,,,,,,,,,,,,,,,,,,1,,,,,,,,,,,,,,,,,,,,,,,,,,,,,,,,,,,,,,,,,,,,,,89,156184,19,Female,1,2024/03/14_10:30:28,YZ,None,
,,,,,,calibration,0,13,2,426,13,J,1,right,0.540442792000249,0,0,,,,,,,,,,,,,,,,,,,,,1,,,,,,,,,,,,,,,,,,,,,,,,,,,,,,,,,,,,,,,,,,,,,,89,156184,19,Female,1,2024/03/14_10:30:28,YZ,None,
,,,,,,calibration,0,13,2,426,14,Q,0,right,nan,0,1,,,,,,,,,,,,,,,,,,,,,1,,,,,,,,,,,,,,,,,,,,,,,,,,,,,,,,,,,,,,,,,,,,,,89,156184,19,Female,1,2024/03/14_10:30:28,YZ,None,
,,,,,,calibration,0,13,2,426,15,V,0,right,0.25333543099986855,1,0,,,,,,,,,,,,,,,,,,,,,1,,,,,,,,,,,,,,,,,,,,,,,,,,,,,,,,,,,,,,,,,,,,,,89,156184,19,Female,1,2024/03/14_10:30:28,YZ,None,
,,,,,,calibration,0,13,2,426,16,Q,1,right,nan,0,1,,,,,,,,,,,,,,,,,,,,,1,,,,,,,,,,,,,,,,,,,,,,,,,,,,,,,,,,,,,,,,,,,,,,89,156184,19,Female,1,2024/03/14_10:30:28,YZ,None,
,,,,,,calibration,0,13,2,426,17,S,0,right,0.007315253998967819,1,0,,,,,,,,,,,,,,,,,,,,,1,,,,,,,,,,,,,,,,,,,,,,,,,,,,,,,,,,,,,,,,,,,,,,89,156184,19,Female,1,2024/03/14_10:30:28,YZ,None,
,,,,,,calibration,0,13,2,426,,,,,,,,0.20833333333333334,0.0,0.16666666666666666,0.7777777777777778,0.4117647058823529,0.42156862745098045,0.42610154710127973,0,2,4,3,7,7,7,5,12,0,,,,1,,,,,,,,,,,,,,,,,,,,,,,,,,,,,,,,,,,,,,,,,,,,,,89,156184,19,Female,1,2024/03/14_10:30:28,YZ,None,
,,,,,,Calibration,0,,2,426,,,,,,,,,,,,,,,,,,,,,,,,,7,,,1,,,,,,,,,,,,,,,,,,,,,,,,,,,,,,,,,,,,,,,,,,,,,,89,156184,19,Female,1,2024/03/14_10:30:28,YZ,None,
,,,,,,calibration,0,28,2,500,1,N,0,right,0.6521389200061094,1,0,,,,,,,,,,,,,,,,,,,,,1,,,,,,,,,,,,,,,,,,,,,,,,,,,,,,,,,,,,,,,,,,,,,,89,156184,19,Female,1,2024/03/14_10:30:28,YZ,None,
,,,,,,calibration,0,28,2,500,2,C,0,right,0.47429717099294066,1,0,,,,,,,,,,,,,,,,,,,,,1,,,,,,,,,,,,,,,,,,,,,,,,,,,,,,,,,,,,,,,,,,,,,,89,156184,19,Female,1,2024/03/14_10:30:28,YZ,None,
,,,,,,calibration,0,28,2,500,3,S,0,right,0.5241439850069582,1,0,,,,,,,,,,,,,,,,,,,,,1,,,,,,,,,,,,,,,,,,,,,,,,,,,,,,,,,,,,,,,,,,,,,,89,156184,19,Female,1,2024/03/14_10:30:28,YZ,None,
,,,,,,calibration,0,28,2,500,4,C,1,left,0.5465543180034729,1,0,,,,,,,,,,,,,,,,,,,,,1,,,,,,,,,,,,,,,,,,,,,,,,,,,,,,,,,,,,,,,,,,,,,,89,156184,19,Female,1,2024/03/14_10:30:28,YZ,None,
,,,,,,calibration,0,28,2,500,5,S,1,left,0.8578357100050198,1,0,,,,,,,,,,,,,,,,,,,,,1,,,,,,,,,,,,,,,,,,,,,,,,,,,,,,,,,,,,,,,,,,,,,,89,156184,19,Female,1,2024/03/14_10:30:28,YZ,None,
,,,,,,calibration,0,28,2,500,6,F,0,right,0.9923663560039131,1,0,,,,,,,,,,,,,,,,,,,,,1,,,,,,,,,,,,,,,,,,,,,,,,,,,,,,,,,,,,,,,,,,,,,,89,156184,19,Female,1,2024/03/14_10:30:28,YZ,None,
,,,,,,calibration,0,28,2,500,7,X,0,right,0.8237905470014084,1,0,,,,,,,,,,,,,,,,,,,,,1,,,,,,,,,,,,,,,,,,,,,,,,,,,,,,,,,,,,,,,,,,,,,,89,156184,19,Female,1,2024/03/14_10:30:28,YZ,None,
,,,,,,calibration,0,28,2,500,8,F,1,left,0.9234887359925779,1,0,,,,,,,,,,,,,,,,,,,,,1,,,,,,,,,,,,,,,,,,,,,,,,,,,,,,,,,,,,,,,,,,,,,,89,156184,19,Female,1,2024/03/14_10:30:28,YZ,None,
,,,,,,calibration,0,28,2,500,9,S,0,right,0.7918431959988084,1,0,,,,,,,,,,,,,,,,,,,,,1,,,,,,,,,,,,,,,,,,,,,,,,,,,,,,,,,,,,,,,,,,,,,,89,156184,19,Female,1,2024/03/14_10:30:28,YZ,None,
,,,,,,calibration,0,28,2,500,10,X,0,right,nan,0,1,,,,,,,,,,,,,,,,,,,,,1,,,,,,,,,,,,,,,,,,,,,,,,,,,,,,,,,,,,,,,,,,,,,,89,156184,19,Female,1,2024/03/14_10:30:28,YZ,None,
,,,,,,calibration,0,28,2,500,11,S,1,right,nan,0,1,,,,,,,,,,,,,,,,,,,,,1,,,,,,,,,,,,,,,,,,,,,,,,,,,,,,,,,,,,,,,,,,,,,,89,156184,19,Female,1,2024/03/14_10:30:28,YZ,None,
,,,,,,calibration,0,28,2,500,12,V,0,right,0.09463763600797392,1,0,,,,,,,,,,,,,,,,,,,,,1,,,,,,,,,,,,,,,,,,,,,,,,,,,,,,,,,,,,,,,,,,,,,,89,156184,19,Female,1,2024/03/14_10:30:28,YZ,None,
,,,,,,calibration,0,28,2,500,13,N,0,right,nan,0,1,,,,,,,,,,,,,,,,,,,,,1,,,,,,,,,,,,,,,,,,,,,,,,,,,,,,,,,,,,,,,,,,,,,,89,156184,19,Female,1,2024/03/14_10:30:28,YZ,None,
,,,,,,calibration,0,28,2,500,14,V,1,right,0.10328416399715934,0,0,,,,,,,,,,,,,,,,,,,,,1,,,,,,,,,,,,,,,,,,,,,,,,,,,,,,,,,,,,,,,,,,,,,,89,156184,19,Female,1,2024/03/14_10:30:28,YZ,None,
,,,,,,calibration,0,28,2,500,15,X,0,right,0.9091679800039856,1,0,,,,,,,,,,,,,,,,,,,,,1,,,,,,,,,,,,,,,,,,,,,,,,,,,,,,,,,,,,,,,,,,,,,,89,156184,19,Female,1,2024/03/14_10:30:28,YZ,None,
,,,,,,calibration,0,28,2,500,16,S,0,right,nan,0,1,,,,,,,,,,,,,,,,,,,,,1,,,,,,,,,,,,,,,,,,,,,,,,,,,,,,,,,,,,,,,,,,,,,,89,156184,19,Female,1,2024/03/14_10:30:28,YZ,None,
,,,,,,calibration,0,28,2,500,,,,,,,,0.9,0.6,0.0,1.0,0.25,0.75,0.6411290599183607,3,0,1,3,4,8,11,5,11,0,,,,1,,,,,,,,,,,,,,,,,,,,,,,,,,,,,,,,,,,,,,,,,,,,,,89,156184,19,Female,1,2024/03/14_10:30:28,YZ,None,
,,,,,,Calibration,0,,2,500,,,,,,,,,,,,,,,,,,,,,,,,,8,,,1,,,,,,,,,,,,,,,,,,,,,,,,,,,,,,,,,,,,,,,,,,,,,,89,156184,19,Female,1,2024/03/14_10:30:28,YZ,None,
,,,,,,calibration,0,16,2,426,1,S,0,right,0.6421103409957141,1,0,,,,,,,,,,,,,,,,,,,,,1,,,,,,,,,,,,,,,,,,,,,,,,,,,,,,,,,,,,,,,,,,,,,,89,156184,19,Female,1,2024/03/14_10:30:28,YZ,None,
,,,,,,calibration,0,16,2,426,2,S,0,left,0.8147380290029105,0,0,,,,,,,,,,,,,,,,,,,,,1,,,,,,,,,,,,,,,,,,,,,,,,,,,,,,,,,,,,,,,,,,,,,,89,156184,19,Female,1,2024/03/14_10:30:28,YZ,None,
,,,,,,calibration,0,16,2,426,3,S,1,left,0.592047411002568,1,0,,,,,,,,,,,,,,,,,,,,,1,,,,,,,,,,,,,,,,,,,,,,,,,,,,,,,,,,,,,,,,,,,,,,89,156184,19,Female,1,2024/03/14_10:30:28,YZ,None,
,,,,,,calibration,0,16,2,426,4,C,0,right,0.6027692180068698,1,0,,,,,,,,,,,,,,,,,,,,,1,,,,,,,,,,,,,,,,,,,,,,,,,,,,,,,,,,,,,,,,,,,,,,89,156184,19,Female,1,2024/03/14_10:30:28,YZ,None,
,,,,,,calibration,0,16,2,426,5,N,0,right,0.6100864140025806,1,0,,,,,,,,,,,,,,,,,,,,,1,,,,,,,,,,,,,,,,,,,,,,,,,,,,,,,,,,,,,,,,,,,,,,89,156184,19,Female,1,2024/03/14_10:30:28,YZ,None,
,,,,,,calibration,0,16,2,426,6,X,0,right,0.8419401780120097,1,0,,,,,,,,,,,,,,,,,,,,,1,,,,,,,,,,,,,,,,,,,,,,,,,,,,,,,,,,,,,,,,,,,,,,89,156184,19,Female,1,2024/03/14_10:30:28,YZ,None,
,,,,,,calibration,0,16,2,426,7,C,0,left,0.7019896400015568,0,0,,,,,,,,,,,,,,,,,,,,,1,,,,,,,,,,,,,,,,,,,,,,,,,,,,,,,,,,,,,,,,,,,,,,89,156184,19,Female,1,2024/03/14_10:30:28,YZ,None,
,,,,,,calibration,0,16,2,426,8,N,0,left,0.8691416609945009,0,0,,,,,,,,,,,,,,,,,,,,,1,,,,,,,,,,,,,,,,,,,,,,,,,,,,,,,,,,,,,,,,,,,,,,89,156184,19,Female,1,2024/03/14_10:30:28,YZ,None,
,,,,,,calibration,0,16,2,426,9,V,0,right,0.8966673240065575,1,0,,,,,,,,,,,,,,,,,,,,,1,,,,,,,,,,,,,,,,,,,,,,,,,,,,,,,,,,,,,,,,,,,,,,89,156184,19,Female,1,2024/03/14_10:30:28,YZ,None,
,,,,,,calibration,0,16,2,426,10,N,1,right,0.9916612489905674,0,0,,,,,,,,,,,,,,,,,,,,,1,,,,,,,,,,,,,,,,,,,,,,,,,,,,,,,,,,,,,,,,,,,,,,89,156184,19,Female,1,2024/03/14_10:30:28,YZ,None,
,,,,,,calibration,0,16,2,426,11,S,0,right,0.8693548970040865,1,0,,,,,,,,,,,,,,,,,,,,,1,,,,,,,,,,,,,,,,,,,,,,,,,,,,,,,,,,,,,,,,,,,,,,89,156184,19,Female,1,2024/03/14_10:30:28,YZ,None,
,,,,,,calibration,0,16,2,426,12,N,1,right,0.5951194420049433,0,0,,,,,,,,,,,,,,,,,,,,,1,,,,,,,,,,,,,,,,,,,,,,,,,,,,,,,,,,,,,,,,,,,,,,89,156184,19,Female,1,2024/03/14_10:30:28,YZ,None,
,,,,,,calibration,0,16,2,426,13,F,0,right,nan,0,1,,,,,,,,,,,,,,,,,,,,,1,,,,,,,,,,,,,,,,,,,,,,,,,,,,,,,,,,,,,,,,,,,,,,89,156184,19,Female,1,2024/03/14_10:30:28,YZ,None,
,,,,,,calibration,0,16,2,426,14,N,1,right,0.0,0,0,,,,,,,,,,,,,,,,,,,,,1,,,,,,,,,,,,,,,,,,,,,,,,,,,,,,,,,,,,,,,,,,,,,,89,156184,19,Female,1,2024/03/14_10:30:28,YZ,None,
,,,,,,calibration,0,16,2,426,15,S,0,right,0.762302542992984,1,0,,,,,,,,,,,,,,,,,,,,,1,,,,,,,,,,,,,,,,,,,,,,,,,,,,,,,,,,,,,,,,,,,,,,89,156184,19,Female,1,2024/03/14_10:30:28,YZ,None,
,,,,,,calibration,0,16,2,426,16,N,1,left,0.3892186469893204,1,0,,,,,,,,,,,,,,,,,,,,,1,,,,,,,,,,,,,,,,,,,,,,,,,,,,,,,,,,,,,,,,,,,,,,89,156184,19,Female,1,2024/03/14_10:30:28,YZ,None,
,,,,,,calibration,0,16,2,426,17,F,0,right,0.6136392929911381,1,0,,,,,,,,,,,,,,,,,,,,,1,,,,,,,,,,,,,,,,,,,,,,,,,,,,,,,,,,,,,,,,,,,,,,89,156184,19,Female,1,2024/03/14_10:30:28,YZ,None,
,,,,,,calibration,0,16,2,426,,,,,,,,0.63125,0.4,0.25,0.7272727272727273,0.058823529411764705,0.6911764705882353,0.6745491429373942,2,3,0,1,1,8,10,5,12,0,,,,1,,,,,,,,,,,,,,,,,,,,,,,,,,,,,,,,,,,,,,,,,,,,,,89,156184,19,Female,1,2024/03/14_10:30:28,YZ,None,
,,,,,,Calibration,0,,2,426,,,,,,,,,,,,,,,,,,,,,,,,,9,,,1,,,,,,,,,,,,,,,,,,,,,,,,,,,,,,,,,,,,,,,,,,,,,,89,156184,19,Female,1,2024/03/14_10:30:28,YZ,None,
,,,,,,calibration,0,5,2,500,1,F,0,right,0.4689614259987138,1,0,,,,,,,,,,,,,,,,,,,,,1,,,,,,,,,,,,,,,,,,,,,,,,,,,,,,,,,,,,,,,,,,,,,,89,156184,19,Female,1,2024/03/14_10:30:28,YZ,None,
,,,,,,calibration,0,5,2,500,2,J,0,right,0.444431818992598,1,0,,,,,,,,,,,,,,,,,,,,,1,,,,,,,,,,,,,,,,,,,,,,,,,,,,,,,,,,,,,,,,,,,,,,89,156184,19,Female,1,2024/03/14_10:30:28,YZ,None,
,,,,,,calibration,0,5,2,500,3,V,0,right,0.7722724530030973,1,0,,,,,,,,,,,,,,,,,,,,,1,,,,,,,,,,,,,,,,,,,,,,,,,,,,,,,,,,,,,,,,,,,,,,89,156184,19,Female,1,2024/03/14_10:30:28,YZ,None,
,,,,,,calibration,0,5,2,500,4,C,0,right,0.7408416569960536,1,0,,,,,,,,,,,,,,,,,,,,,1,,,,,,,,,,,,,,,,,,,,,,,,,,,,,,,,,,,,,,,,,,,,,,89,156184,19,Female,1,2024/03/14_10:30:28,YZ,None,
,,,,,,calibration,0,5,2,500,5,V,1,left,0.6244490599929122,1,0,,,,,,,,,,,,,,,,,,,,,1,,,,,,,,,,,,,,,,,,,,,,,,,,,,,,,,,,,,,,,,,,,,,,89,156184,19,Female,1,2024/03/14_10:30:28,YZ,None,
,,,,,,calibration,0,5,2,500,6,Q,0,right,0.8350055399932899,1,0,,,,,,,,,,,,,,,,,,,,,1,,,,,,,,,,,,,,,,,,,,,,,,,,,,,,,,,,,,,,,,,,,,,,89,156184,19,Female,1,2024/03/14_10:30:28,YZ,None,
,,,,,,calibration,0,5,2,500,7,F,0,right,0.863281812009518,1,0,,,,,,,,,,,,,,,,,,,,,1,,,,,,,,,,,,,,,,,,,,,,,,,,,,,,,,,,,,,,,,,,,,,,89,156184,19,Female,1,2024/03/14_10:30:28,YZ,None,
,,,,,,calibration,0,5,2,500,8,C,0,right,nan,0,1,,,,,,,,,,,,,,,,,,,,,1,,,,,,,,,,,,,,,,,,,,,,,,,,,,,,,,,,,,,,,,,,,,,,89,156184,19,Female,1,2024/03/14_10:30:28,YZ,None,
,,,,,,calibration,0,5,2,500,9,Q,0,right,nan,0,1,,,,,,,,,,,,,,,,,,,,,1,,,,,,,,,,,,,,,,,,,,,,,,,,,,,,,,,,,,,,,,,,,,,,89,156184,19,Female,1,2024/03/14_10:30:28,YZ,None,
,,,,,,calibration,0,5,2,500,10,C,1,left,0.0,1,0,,,,,,,,,,,,,,,,,,,,,1,,,,,,,,,,,,,,,,,,,,,,,,,,,,,,,,,,,,,,,,,,,,,,89,156184,19,Female,1,2024/03/14_10:30:28,YZ,None,
,,,,,,calibration,0,5,2,500,11,V,0,left,nan,0,1,,,,,,,,,,,,,,,,,,,,,1,,,,,,,,,,,,,,,,,,,,,,,,,,,,,,,,,,,,,,,,,,,,,,89,156184,19,Female,1,2024/03/14_10:30:28,YZ,None,
,,,,,,calibration,0,5,2,500,12,S,0,right,0.6260897040046984,1,0,,,,,,,,,,,,,,,,,,,,,1,,,,,,,,,,,,,,,,,,,,,,,,,,,,,,,,,,,,,,,,,,,,,,89,156184,19,Female,1,2024/03/14_10:30:28,YZ,None,
,,,,,,calibration,0,5,2,500,13,V,1,left,0.5911901049985318,1,0,,,,,,,,,,,,,,,,,,,,,1,,,,,,,,,,,,,,,,,,,,,,,,,,,,,,,,,,,,,,,,,,,,,,89,156184,19,Female,1,2024/03/14_10:30:28,YZ,None,
,,,,,,calibration,0,5,2,500,14,S,1,left,nan,0,1,,,,,,,,,,,,,,,,,,,,,1,,,,,,,,,,,,,,,,,,,,,,,,,,,,,,,,,,,,,,,,,,,,,,89,156184,19,Female,1,2024/03/14_10:30:28,YZ,None,
,,,,,,calibration,0,5,2,500,15,X,0,right,0.6919993859919487,1,0,,,,,,,,,,,,,,,,,,,,,1,,,,,,,,,,,,,,,,,,,,,,,,,,,,,,,,,,,,,,,,,,,,,,89,156184,19,Female,1,2024/03/14_10:30:28,YZ,None,
,,,,,,calibration,0,5,2,500,16,N,0,right,0.8916071459971135,1,0,,,,,,,,,,,,,,,,,,,,,1,,,,,,,,,,,,,,,,,,,,,,,,,,,,,,,,,,,,,,,,,,,,,,89,156184,19,Female,1,2024/03/14_10:30:28,YZ,None,
,,,,,,calibration,0,5,2,500,,,,,,,,0.9375,0.75,0.0,1.0,0.25,0.75,0.6291775089982062,3,0,1,3,4,9,12,4,12,0,,,,1,,,,,,,,,,,,,,,,,,,,,,,,,,,,,,,,,,,,,,,,,,,,,,89,156184,19,Female,1,2024/03/14_10:30:28,YZ,None,
,,,,,,Calibration,0,,2,500,,,,,,,,,,,,,,,,,,,,,,,,,10,,,1,,,,,,,,,,,,,,,,,,,,,,,,,,,,,,,,,,,,,,,,,,,,,,89,156184,19,Female,1,2024/03/14_10:30:28,YZ,None,
,,,,,,calibration,0,22,2,426,1,F,0,right,0.33468926799832843,1,0,,,,,,,,,,,,,,,,,,,,,1,,,,,,,,,,,,,,,,,,,,,,,,,,,,,,,,,,,,,,,,,,,,,,89,156184,19,Female,1,2024/03/14_10:30:28,YZ,None,
,,,,,,calibration,0,22,2,426,2,Q,0,right,0.8080739299912238,1,0,,,,,,,,,,,,,,,,,,,,,1,,,,,,,,,,,,,,,,,,,,,,,,,,,,,,,,,,,,,,,,,,,,,,89,156184,19,Female,1,2024/03/14_10:30:28,YZ,None,
,,,,,,calibration,0,22,2,426,3,N,0,right,0.8363233580021188,1,0,,,,,,,,,,,,,,,,,,,,,1,,,,,,,,,,,,,,,,,,,,,,,,,,,,,,,,,,,,,,,,,,,,,,89,156184,19,Female,1,2024/03/14_10:30:28,YZ,None,
,,,,,,calibration,0,22,2,426,4,Q,1,right,nan,0,1,,,,,,,,,,,,,,,,,,,,,1,,,,,,,,,,,,,,,,,,,,,,,,,,,,,,,,,,,,,,,,,,,,,,89,156184,19,Female,1,2024/03/14_10:30:28,YZ,None,
,,,,,,calibration,0,22,2,426,5,V,0,left,0.0,0,0,,,,,,,,,,,,,,,,,,,,,1,,,,,,,,,,,,,,,,,,,,,,,,,,,,,,,,,,,,,,,,,,,,,,89,156184,19,Female,1,2024/03/14_10:30:28,YZ,None,
,,,,,,calibration,0,22,2,426,6,Q,1,left,nan,0,1,,,,,,,,,,,,,,,,,,,,,1,,,,,,,,,,,,,,,,,,,,,,,,,,,,,,,,,,,,,,,,,,,,,,89,156184,19,Female,1,2024/03/14_10:30:28,YZ,None,
,,,,,,calibration,0,22,2,426,7,C,0,right,0.9051231869962066,1,0,,,,,,,,,,,,,,,,,,,,,1,,,,,,,,,,,,,,,,,,,,,,,,,,,,,,,,,,,,,,,,,,,,,,89,156184,19,Female,1,2024/03/14_10:30:28,YZ,None,
,,,,,,calibration,0,22,2,426,8,N,0,right,0.6888888880057493,1,0,,,,,,,,,,,,,,,,,,,,,1,,,,,,,,,,,,,,,,,,,,,,,,,,,,,,,,,,,,,,,,,,,,,,89,156184,19,Female,1,2024/03/14_10:30:28,YZ,None,
,,,,,,calibration,0,22,2,426,9,V,0,right,0.690293545005261,1,0,,,,,,,,,,,,,,,,,,,,,1,,,,,,,,,,,,,,,,,,,,,,,,,,,,,,,,,,,,,,,,,,,,,,89,156184,19,Female,1,2024/03/14_10:30:28,YZ,None,
,,,,,,calibration,0,22,2,426,10,X,0,right,0.9424029159999918,1,0,,,,,,,,,,,,,,,,,,,,,1,,,,,,,,,,,,,,,,,,,,,,,,,,,,,,,,,,,,,,,,,,,,,,89,156184,19,Female,1,2024/03/14_10:30:28,YZ,None,
,,,,,,calibration,0,22,2,426,11,S,0,right,0.6241408019996015,1,0,,,,,,,,,,,,,,,,,,,,,1,,,,,,,,,,,,,,,,,,,,,,,,,,,,,,,,,,,,,,,,,,,,,,89,156184,19,Female,1,2024/03/14_10:30:28,YZ,None,
,,,,,,calibration,0,22,2,426,12,X,1,right,0.3458314689924009,0,0,,,,,,,,,,,,,,,,,,,,,1,,,,,,,,,,,,,,,,,,,,,,,,,,,,,,,,,,,,,,,,,,,,,,89,156184,19,Female,1,2024/03/14_10:30:28,YZ,None,
,,,,,,calibration,0,22,2,426,13,S,1,right,0.0,0,0,,,,,,,,,,,,,,,,,,,,,1,,,,,,,,,,,,,,,,,,,,,,,,,,,,,,,,,,,,,,,,,,,,,,89,156184,19,Female,1,2024/03/14_10:30:28,YZ,None,
,,,,,,calibration,0,22,2,426,14,V,0,left,0.0,0,0,,,,,,,,,,,,,,,,,,,,,1,,,,,,,,,,,,,,,,,,,,,,,,,,,,,,,,,,,,,,,,,,,,,,89,156184,19,Female,1,2024/03/14_10:30:28,YZ,None,
,,,,,,calibration,0,22,2,426,15,J,0,left,nan,0,1,,,,,,,,,,,,,,,,,,,,,1,,,,,,,,,,,,,,,,,,,,,,,,,,,,,,,,,,,,,,,,,,,,,,89,156184,19,Female,1,2024/03/14_10:30:28,YZ,None,
,,,,,,calibration,0,22,2,426,16,V,1,right,0.5642426160047762,0,0,,,,,,,,,,,,,,,,,,,,,1,,,,,,,,,,,,,,,,,,,,,,,,,,,,,,,,,,,,,,,,,,,,,,89,156184,19,Female,1,2024/03/14_10:30:28,YZ,None,
,,,,,,calibration,0,22,2,426,17,S,0,right,0.9739533249958185,1,0,,,,,,,,,,,,,,,,,,,,,1,,,,,,,,,,,,,,,,,,,,,,,,,,,,,,,,,,,,,,,,,,,,,,89,156184,19,Female,1,2024/03/14_10:30:28,YZ,None,
,,,,,,calibration,0,22,2,426,,,,,,,,0.20833333333333334,0.0,0.16666666666666666,0.8181818181818182,0.17647058823529413,0.6568627450980392,0.5509973788565341,0,2,2,1,3,9,9,5,12,0,,,,1,,,,,,,,,,,,,,,,,,,,,,,,,,,,,,,,,,,,,,,,,,,,,,89,156184,19,Female,1,2024/03/14_10:30:28,YZ,None,
,,,,,,Calibration,0,,2,426,,,,,,,,,,,,,,,,,,,,,,,,,11,,,1,,,,,,,,,,,,,,,,,,,,,,,,,,,,,,,,,,,,,,,,,,,,,,89,156184,19,Female,1,2024/03/14_10:30:28,YZ,None,
,,,,,,calibration,0,34,2,500,1,Q,0,right,0.5312087780039292,1,0,,,,,,,,,,,,,,,,,,,,,1,,,,,,,,,,,,,,,,,,,,,,,,,,,,,,,,,,,,,,,,,,,,,,89,156184,19,Female,1,2024/03/14_10:30:28,YZ,None,
,,,,,,calibration,0,34,2,500,2,S,0,right,0.8908946470037336,1,0,,,,,,,,,,,,,,,,,,,,,1,,,,,,,,,,,,,,,,,,,,,,,,,,,,,,,,,,,,,,,,,,,,,,89,156184,19,Female,1,2024/03/14_10:30:28,YZ,None,
,,,,,,calibration,0,34,2,500,3,N,0,right,0.5295457870088285,1,0,,,,,,,,,,,,,,,,,,,,,1,,,,,,,,,,,,,,,,,,,,,,,,,,,,,,,,,,,,,,,,,,,,,,89,156184,19,Female,1,2024/03/14_10:30:28,YZ,None,
,,,,,,calibration,0,34,2,500,4,S,1,right,nan,0,1,,,,,,,,,,,,,,,,,,,,,1,,,,,,,,,,,,,,,,,,,,,,,,,,,,,,,,,,,,,,,,,,,,,,89,156184,19,Female,1,2024/03/14_10:30:28,YZ,None,
,,,,,,calibration,0,34,2,500,5,Q,0,left,0.8473262550105574,0,0,,,,,,,,,,,,,,,,,,,,,1,,,,,,,,,,,,,,,,,,,,,,,,,,,,,,,,,,,,,,,,,,,,,,89,156184,19,Female,1,2024/03/14_10:30:28,YZ,None,
,,,,,,calibration,0,34,2,500,6,F,0,right,0.7739719840028556,1,0,,,,,,,,,,,,,,,,,,,,,1,,,,,,,,,,,,,,,,,,,,,,,,,,,,,,,,,,,,,,,,,,,,,,89,156184,19,Female,1,2024/03/14_10:30:28,YZ,None,
,,,,,,calibration,0,34,2,500,7,V,0,right,nan,0,1,,,,,,,,,,,,,,,,,,,,,1,,,,,,,,,,,,,,,,,,,,,,,,,,,,,,,,,,,,,,,,,,,,,,89,156184,19,Female,1,2024/03/14_10:30:28,YZ,None,
,,,,,,calibration,0,34,2,500,8,X,0,right,nan,0,1,,,,,,,,,,,,,,,,,,,,,1,,,,,,,,,,,,,,,,,,,,,,,,,,,,,,,,,,,,,,,,,,,,,,89,156184,19,Female,1,2024/03/14_10:30:28,YZ,None,
,,,,,,calibration,0,34,2,500,9,Q,0,right,0.9138196290004998,1,0,,,,,,,,,,,,,,,,,,,,,1,,,,,,,,,,,,,,,,,,,,,,,,,,,,,,,,,,,,,,,,,,,,,,89,156184,19,Female,1,2024/03/14_10:30:28,YZ,None,
,,,,,,calibration,0,34,2,500,10,N,0,right,0.43436557799577713,1,0,,,,,,,,,,,,,,,,,,,,,1,,,,,,,,,,,,,,,,,,,,,,,,,,,,,,,,,,,,,,,,,,,,,,89,156184,19,Female,1,2024/03/14_10:30:28,YZ,None,
,,,,,,calibration,0,34,2,500,11,Q,1,right,nan,0,1,,,,,,,,,,,,,,,,,,,,,1,,,,,,,,,,,,,,,,,,,,,,,,,,,,,,,,,,,,,,,,,,,,,,89,156184,19,Female,1,2024/03/14_10:30:28,YZ,None,
,,,,,,calibration,0,34,2,500,12,V,0,left,0.4147392289887648,0,0,,,,,,,,,,,,,,,,,,,,,1,,,,,,,,,,,,,,,,,,,,,,,,,,,,,,,,,,,,,,,,,,,,,,89,156184,19,Female,1,2024/03/14_10:30:28,YZ,None,
,,,,,,calibration,0,34,2,500,13,Q,1,right,0.40764878400659654,0,0,,,,,,,,,,,,,,,,,,,,,1,,,,,,,,,,,,,,,,,,,,,,,,,,,,,,,,,,,,,,,,,,,,,,89,156184,19,Female,1,2024/03/14_10:30:28,YZ,None,
,,,,,,calibration,0,34,2,500,14,C,0,right,nan,0,1,,,,,,,,,,,,,,,,,,,,,1,,,,,,,,,,,,,,,,,,,,,,,,,,,,,,,,,,,,,,,,,,,,,,89,156184,19,Female,1,2024/03/14_10:30:28,YZ,None,
,,,,,,calibration,0,34,2,500,15,Q,1,right,0.6609171390009578,0,0,,,,,,,,,,,,,,,,,,,,,1,,,,,,,,,,,,,,,,,,,,,,,,,,,,,,,,,,,,,,,,,,,,,,89,156184,19,Female,1,2024/03/14_10:30:28,YZ,None,
,,,,,,calibration,0,34,2,500,16,S,0,right,0.6186454020062229,1,0,,,,,,,,,,,,,,,,,,,,,1,,,,,,,,,,,,,,,,,,,,,,,,,,,,,,,,,,,,,,,,,,,,,,89,156184,19,Female,1,2024/03/14_10:30:28,YZ,None,
,,,,,,calibration,0,34,2,500,,,,,,,,0.20833333333333334,0.0,0.16666666666666666,0.7777777777777778,0.3125,0.5208333333333334,0.6384621101844293,0,2,2,3,5,7,7,4,12,0,,,,1,,,,,,,,,,,,,,,,,,,,,,,,,,,,,,,,,,,,,,,,,,,,,,89,156184,19,Female,1,2024/03/14_10:30:28,YZ,None,
,,,,,,Calibration,0,,2,500,,,,,,,,,,,,,,,,,,,,,,,,,12,,,1,,,,,,,,,,,,,,,,,,,,,,,,,,,,,,,,,,,,,,,,,,,,,,89,156184,19,Female,1,2024/03/14_10:30:28,YZ,None,
,,,,,,calibration,0,25,2,583,1,N,0,right,1.1084143569896696,1,0,,,,,,,,,,,,,,,,,,,,,1,,,,,,,,,,,,,,,,,,,,,,,,,,,,,,,,,,,,,,,,,,,,,,89,156184,19,Female,1,2024/03/14_10:30:28,YZ,None,
,,,,,,calibration,0,25,2,583,2,X,0,right,0.491311042002053,1,0,,,,,,,,,,,,,,,,,,,,,1,,,,,,,,,,,,,,,,,,,,,,,,,,,,,,,,,,,,,,,,,,,,,,89,156184,19,Female,1,2024/03/14_10:30:28,YZ,None,
,,,,,,calibration,0,25,2,583,3,S,0,right,0.5252371399983531,1,0,,,,,,,,,,,,,,,,,,,,,1,,,,,,,,,,,,,,,,,,,,,,,,,,,,,,,,,,,,,,,,,,,,,,89,156184,19,Female,1,2024/03/14_10:30:28,YZ,None,
,,,,,,calibration,0,25,2,583,4,V,0,right,0.5570357510005124,1,0,,,,,,,,,,,,,,,,,,,,,1,,,,,,,,,,,,,,,,,,,,,,,,,,,,,,,,,,,,,,,,,,,,,,89,156184,19,Female,1,2024/03/14_10:30:28,YZ,None,
,,,,,,calibration,0,25,2,583,5,C,0,right,0.6066166200034786,1,0,,,,,,,,,,,,,,,,,,,,,1,,,,,,,,,,,,,,,,,,,,,,,,,,,,,,,,,,,,,,,,,,,,,,89,156184,19,Female,1,2024/03/14_10:30:28,YZ,None,
,,,,,,calibration,0,25,2,583,6,X,0,left,0.601904707000358,0,0,,,,,,,,,,,,,,,,,,,,,1,,,,,,,,,,,,,,,,,,,,,,,,,,,,,,,,,,,,,,,,,,,,,,89,156184,19,Female,1,2024/03/14_10:30:28,YZ,None,
,,,,,,calibration,0,25,2,583,7,F,0,right,0.668844486004673,1,0,,,,,,,,,,,,,,,,,,,,,1,,,,,,,,,,,,,,,,,,,,,,,,,,,,,,,,,,,,,,,,,,,,,,89,156184,19,Female,1,2024/03/14_10:30:28,YZ,None,
,,,,,,calibration,0,25,2,583,8,V,0,left,0.6457087779999711,0,0,,,,,,,,,,,,,,,,,,,,,1,,,,,,,,,,,,,,,,,,,,,,,,,,,,,,,,,,,,,,,,,,,,,,89,156184,19,Female,1,2024/03/14_10:30:28,YZ,None,
,,,,,,calibration,0,25,2,583,9,J,0,right,0.6986898999894038,1,0,,,,,,,,,,,,,,,,,,,,,1,,,,,,,,,,,,,,,,,,,,,,,,,,,,,,,,,,,,,,,,,,,,,,89,156184,19,Female,1,2024/03/14_10:30:28,YZ,None,
,,,,,,calibration,0,25,2,583,10,Q,0,right,0.6915326079906663,1,0,,,,,,,,,,,,,,,,,,,,,1,,,,,,,,,,,,,,,,,,,,,,,,,,,,,,,,,,,,,,,,,,,,,,89,156184,19,Female,1,2024/03/14_10:30:28,YZ,None,
,,,,,,calibration,0,25,2,583,11,J,1,left,0.6760278430010658,1,0,,,,,,,,,,,,,,,,,,,,,1,,,,,,,,,,,,,,,,,,,,,,,,,,,,,,,,,,,,,,,,,,,,,,89,156184,19,Female,1,2024/03/14_10:30:28,YZ,None,
,,,,,,calibration,0,25,2,583,12,Q,1,left,0.9410806779924314,1,0,,,,,,,,,,,,,,,,,,,,,1,,,,,,,,,,,,,,,,,,,,,,,,,,,,,,,,,,,,,,,,,,,,,,89,156184,19,Female,1,2024/03/14_10:30:28,YZ,None,
,,,,,,calibration,0,25,2,583,13,X,0,right,0.8134359969990328,1,0,,,,,,,,,,,,,,,,,,,,,1,,,,,,,,,,,,,,,,,,,,,,,,,,,,,,,,,,,,,,,,,,,,,,89,156184,19,Female,1,2024/03/14_10:30:28,YZ,None,
,,,,,,calibration,0,25,2,583,14,Q,1,right,0.9980532339977799,0,0,,,,,,,,,,,,,,,,,,,,,1,,,,,,,,,,,,,,,,,,,,,,,,,,,,,,,,,,,,,,,,,,,,,,89,156184,19,Female,1,2024/03/14_10:30:28,YZ,None,
,,,,,,calibration,0,25,2,583,15,X,1,left,0.5744397589878645,1,0,,,,,,,,,,,,,,,,,,,,,1,,,,,,,,,,,,,,,,,,,,,,,,,,,,,,,,,,,,,,,,,,,,,,89,156184,19,Female,1,2024/03/14_10:30:28,YZ,None,
,,,,,,calibration,0,25,2,583,,,,,,,,0.8465909090909092,0.75,0.18181818181818182,0.8181818181818182,0.0,0.8181818181818181,0.7065555266638209,3,2,0,0,0,9,12,4,11,0,,,,1,,,,,,,,,,,,,,,,,,,,,,,,,,,,,,,,,,,,,,,,,,,,,,89,156184,19,Female,1,2024/03/14_10:30:28,YZ,None,
,,,,,,Calibration,0,,2,583,,,,,,,,,,,,,,,,,,,,,,,,,13,,,1,,,,,,,,,,,,,,,,,,,,,,,,,,,,,,,,,,,,,,,,,,,,,,89,156184,19,Female,1,2024/03/14_10:30:28,YZ,None,
,,,,,,calibration,0,34,2,583,1,Q,0,right,0.43368908400589135,1,0,,,,,,,,,,,,,,,,,,,,,1,,,,,,,,,,,,,,,,,,,,,,,,,,,,,,,,,,,,,,,,,,,,,,89,156184,19,Female,1,2024/03/14_10:30:28,YZ,None,
,,,,,,calibration,0,34,2,583,2,X,0,right,0.8656862939969869,1,0,,,,,,,,,,,,,,,,,,,,,1,,,,,,,,,,,,,,,,,,,,,,,,,,,,,,,,,,,,,,,,,,,,,,89,156184,19,Female,1,2024/03/14_10:30:28,YZ,None,
,,,,,,calibration,0,34,2,583,3,Q,1,left,0.46849300400936045,1,0,,,,,,,,,,,,,,,,,,,,,1,,,,,,,,,,,,,,,,,,,,,,,,,,,,,,,,,,,,,,,,,,,,,,89,156184,19,Female,1,2024/03/14_10:30:28,YZ,None,
,,,,,,calibration,0,34,2,583,4,F,0,right,0.6089391580026131,1,0,,,,,,,,,,,,,,,,,,,,,1,,,,,,,,,,,,,,,,,,,,,,,,,,,,,,,,,,,,,,,,,,,,,,89,156184,19,Female,1,2024/03/14_10:30:28,YZ,None,
,,,,,,calibration,0,34,2,583,5,Q,1,left,0.8342526310007088,1,0,,,,,,,,,,,,,,,,,,,,,1,,,,,,,,,,,,,,,,,,,,,,,,,,,,,,,,,,,,,,,,,,,,,,89,156184,19,Female,1,2024/03/14_10:30:28,YZ,None,
,,,,,,calibration,0,34,2,583,6,N,0,right,0.5880114519968629,1,0,,,,,,,,,,,,,,,,,,,,,1,,,,,,,,,,,,,,,,,,,,,,,,,,,,,,,,,,,,,,,,,,,,,,89,156184,19,Female,1,2024/03/14_10:30:28,YZ,None,
,,,,,,calibration,0,34,2,583,7,C,0,right,0.7185516879981151,1,0,,,,,,,,,,,,,,,,,,,,,1,,,,,,,,,,,,,,,,,,,,,,,,,,,,,,,,,,,,,,,,,,,,,,89,156184,19,Female,1,2024/03/14_10:30:28,YZ,None,
,,,,,,calibration,0,34,2,583,8,Q,0,right,0.8398187660059193,1,0,,,,,,,,,,,,,,,,,,,,,1,,,,,,,,,,,,,,,,,,,,,,,,,,,,,,,,,,,,,,,,,,,,,,89,156184,19,Female,1,2024/03/14_10:30:28,YZ,None,
,,,,,,calibration,0,34,2,583,9,X,0,right,0.5426164579985198,1,0,,,,,,,,,,,,,,,,,,,,,1,,,,,,,,,,,,,,,,,,,,,,,,,,,,,,,,,,,,,,,,,,,,,,89,156184,19,Female,1,2024/03/14_10:30:28,YZ,None,
,,,,,,calibration,0,34,2,583,10,N,0,right,0.873816902996623,1,0,,,,,,,,,,,,,,,,,,,,,1,,,,,,,,,,,,,,,,,,,,,,,,,,,,,,,,,,,,,,,,,,,,,,89,156184,19,Female,1,2024/03/14_10:30:28,YZ,None,
,,,,,,calibration,0,34,2,583,11,X,1,left,0.7543057099974249,1,0,,,,,,,,,,,,,,,,,,,,,1,,,,,,,,,,,,,,,,,,,,,,,,,,,,,,,,,,,,,,,,,,,,,,89,156184,19,Female,1,2024/03/14_10:30:28,YZ,None,
,,,,,,calibration,0,34,2,583,12,N,1,left,0.0,1,0,,,,,,,,,,,,,,,,,,,,,1,,,,,,,,,,,,,,,,,,,,,,,,,,,,,,,,,,,,,,,,,,,,,,89,156184,19,Female,1,2024/03/14_10:30:28,YZ,None,
,,,,,,calibration,0,34,2,583,13,Q,0,right,0.55490246800764,1,0,,,,,,,,,,,,,,,,,,,,,1,,,,,,,,,,,,,,,,,,,,,,,,,,,,,,,,,,,,,,,,,,,,,,89,156184,19,Female,1,2024/03/14_10:30:28,YZ,None,
,,,,,,calibration,0,34,2,583,14,F,0,right,0.6423146779998206,1,0,,,,,,,,,,,,,,,,,,,,,1,,,,,,,,,,,,,,,,,,,,,,,,,,,,,,,,,,,,,,,,,,,,,,89,156184,19,Female,1,2024/03/14_10:30:28,YZ,None,
,,,,,,calibration,0,34,2,583,15,Q,1,right,nan,0,1,,,,,,,,,,,,,,,,,,,,,1,,,,,,,,,,,,,,,,,,,,,,,,,,,,,,,,,,,,,,,,,,,,,,89,156184,19,Female,1,2024/03/14_10:30:28,YZ,None,
,,,,,,calibration,0,34,2,583,,,,,,,,0.95,0.8,0.0,1.0,0.06666666666666667,0.9333333333333333,0.6232427352868919,4,0,1,0,1,10,14,5,10,0,,,,1,,,,,,,,,,,,,,,,,,,,,,,,,,,,,,,,,,,,,,,,,,,,,,89,156184,19,Female,1,2024/03/14_10:30:28,YZ,None,
,,,,,,Calibration,0,,2,583,,,,,,,,,,,,,,,,,,,,,,,,,14,,,1,,,,,,,,,,,,,,,,,,,,,,,,,,,,,,,,,,,,,,,,,,,,,,89,156184,19,Female,1,2024/03/14_10:30:28,YZ,None,
,,,,,,calibration,0,3,2,500,1,F,0,right,0.40597837399400305,1,0,,,,,,,,,,,,,,,,,,,,,1,,,,,,,,,,,,,,,,,,,,,,,,,,,,,,,,,,,,,,,,,,,,,,89,156184,19,Female,1,2024/03/14_10:30:28,YZ,None,
,,,,,,calibration,0,3,2,500,2,V,0,right,0.33521605099667795,1,0,,,,,,,,,,,,,,,,,,,,,1,,,,,,,,,,,,,,,,,,,,,,,,,,,,,,,,,,,,,,,,,,,,,,89,156184,19,Female,1,2024/03/14_10:30:28,YZ,None,
,,,,,,calibration,0,3,2,500,3,F,1,left,0.4823680859990418,1,0,,,,,,,,,,,,,,,,,,,,,1,,,,,,,,,,,,,,,,,,,,,,,,,,,,,,,,,,,,,,,,,,,,,,89,156184,19,Female,1,2024/03/14_10:30:28,YZ,None,
,,,,,,calibration,0,3,2,500,4,J,0,right,0.5927723110071383,1,0,,,,,,,,,,,,,,,,,,,,,1,,,,,,,,,,,,,,,,,,,,,,,,,,,,,,,,,,,,,,,,,,,,,,89,156184,19,Female,1,2024/03/14_10:30:28,YZ,None,
,,,,,,calibration,0,3,2,500,5,Q,0,right,0.6355040870112134,1,0,,,,,,,,,,,,,,,,,,,,,1,,,,,,,,,,,,,,,,,,,,,,,,,,,,,,,,,,,,,,,,,,,,,,89,156184,19,Female,1,2024/03/14_10:30:28,YZ,None,
,,,,,,calibration,0,3,2,500,6,C,0,right,0.6525901290006004,1,0,,,,,,,,,,,,,,,,,,,,,1,,,,,,,,,,,,,,,,,,,,,,,,,,,,,,,,,,,,,,,,,,,,,,89,156184,19,Female,1,2024/03/14_10:30:28,YZ,None,
,,,,,,calibration,0,3,2,500,7,Q,1,left,0.612106650005444,1,0,,,,,,,,,,,,,,,,,,,,,1,,,,,,,,,,,,,,,,,,,,,,,,,,,,,,,,,,,,,,,,,,,,,,89,156184,19,Female,1,2024/03/14_10:30:28,YZ,None,
,,,,,,calibration,0,3,2,500,8,N,0,right,0.6586699519975809,1,0,,,,,,,,,,,,,,,,,,,,,1,,,,,,,,,,,,,,,,,,,,,,,,,,,,,,,,,,,,,,,,,,,,,,89,156184,19,Female,1,2024/03/14_10:30:28,YZ,None,
,,,,,,calibration,0,3,2,500,9,V,0,right,nan,0,1,,,,,,,,,,,,,,,,,,,,,1,,,,,,,,,,,,,,,,,,,,,,,,,,,,,,,,,,,,,,,,,,,,,,89,156184,19,Female,1,2024/03/14_10:30:28,YZ,None,
,,,,,,calibration,0,3,2,500,10,N,1,left,0.7573411999910604,1,0,,,,,,,,,,,,,,,,,,,,,1,,,,,,,,,,,,,,,,,,,,,,,,,,,,,,,,,,,,,,,,,,,,,,89,156184,19,Female,1,2024/03/14_10:30:28,YZ,None,
,,,,,,calibration,0,3,2,500,11,F,0,right,0.6714471290033543,1,0,,,,,,,,,,,,,,,,,,,,,1,,,,,,,,,,,,,,,,,,,,,,,,,,,,,,,,,,,,,,,,,,,,,,89,156184,19,Female,1,2024/03/14_10:30:28,YZ,None,
,,,,,,calibration,0,3,2,500,12,N,1,left,0.6304337350011338,1,0,,,,,,,,,,,,,,,,,,,,,1,,,,,,,,,,,,,,,,,,,,,,,,,,,,,,,,,,,,,,,,,,,,,,89,156184,19,Female,1,2024/03/14_10:30:28,YZ,None,
,,,,,,calibration,0,3,2,500,13,X,0,right,0.5911604290013202,1,0,,,,,,,,,,,,,,,,,,,,,1,,,,,,,,,,,,,,,,,,,,,,,,,,,,,,,,,,,,,,,,,,,,,,89,156184,19,Female,1,2024/03/14_10:30:28,YZ,None,
,,,,,,calibration,0,3,2,500,14,N,1,left,0.8360714739974355,1,0,,,,,,,,,,,,,,,,,,,,,1,,,,,,,,,,,,,,,,,,,,,,,,,,,,,,,,,,,,,,,,,,,,,,89,156184,19,Female,1,2024/03/14_10:30:28,YZ,None,
,,,,,,calibration,0,3,2,500,15,S,0,right,0.5305447360005928,1,0,,,,,,,,,,,,,,,,,,,,,1,,,,,,,,,,,,,,,,,,,,,,,,,,,,,,,,,,,,,,,,,,,,,,89,156184,19,Female,1,2024/03/14_10:30:28,YZ,None,
,,,,,,calibration,0,3,2,500,16,Q,0,left,0.7256540719972691,0,0,,,,,,,,,,,,,,,,,,,,,1,,,,,,,,,,,,,,,,,,,,,,,,,,,,,,,,,,,,,,,,,,,,,,89,156184,19,Female,1,2024/03/14_10:30:28,YZ,None,
,,,,,,calibration,0,3,2,500,,,,,,,,0.9772727272727273,1.0,0.09090909090909091,0.9,0.0625,0.8465909090909091,0.6078572276669244,5,1,0,1,1,9,14,5,11,0,,,,1,,,,,,,,,,,,,,,,,,,,,,,,,,,,,,,,,,,,,,,,,,,,,,89,156184,19,Female,1,2024/03/14_10:30:28,YZ,None,
,,,,,,Calibration,0,,2,500,,,,,,,,,,,,,,,,,,,,,,,,,15,,,1,,,,,,,,,,,,,,,,,,,,,,,,,,,,,,,,,,,,,,,,,,,,,,89,156184,19,Female,1,2024/03/14_10:30:28,YZ,None,
,,,,,,CALIBRATION,0,,,,,,,,,,,,,,,,,,,,,,,,,,,,15,0.9772727272727273,500,1,,,,,,,,,,,,,,,,,,,,,,,,,,,,,,,,,,,,,,,,,,,,,,89,156184,19,Female,1,2024/03/14_10:30:28,YZ,None,
1,./instructions/inst_prac_1/Slide24.png,right,8.538463632008643,494.0396078269987,502.57807145900733,,,,,,,,,,,,,,,,,,,,,,,,,,,,,,,,,1,,,,,,,,,,,,,,,,,,,,,,,,,,,,,,,,,,,,,,,,,,,,,,89,156184,19,Female,1,2024/03/14_10:30:28,YZ,None,
2,./instructions/inst_prac_1/Slide25.png,right,2.2506934460107004,502.60733490099665,504.85802834700735,,,,,,,,,,,,,,,,,,,,,,,,,,,,,,,,,1,,,,,,,,,,,,,,,,,,,,,,,,,,,,,,,,,,,,,,,,,,,,,,89,156184,19,Female,1,2024/03/14_10:30:28,YZ,None,
3,./instructions/inst_prac_1/Slide26.png,right,0.9310102649906185,504.8870712460048,505.8180815109954,,,,,,,,,,,,,,,,,,,,,,,,,,,,,,,,,1,,,,,,,,,,,,,,,,,,,,,,,,,,,,,,,,,,,,,,,,,,,,,,89,156184,19,Female,1,2024/03/14_10:30:28,YZ,None,
4,./instructions/inst_prac_1/Slide27.png,right,0.8267136630020104,505.8473135700042,506.6740272330062,,,,,,,,,,,,,,,,,,,,,,,,,,,,,,,,,1,,,,,,,,,,,,,,,,,,,,,,,,,,,,,,,,,,,,,,,,,,,,,,89,156184,19,Female,1,2024/03/14_10:30:28,YZ,None,
5,./instructions/inst_prac_1/Slide28.png,right,1.8059745600039605,506.70001797299483,508.5059925329988,,,,,,,,,,,,,,,,,,,,,,,,,,,,,,,,,1,,,,,,,,,,,,,,,,,,,,,,,,,,,,,,,,,,,,,,,,,,,,,,89,156184,19,Female,1,2024/03/14_10:30:28,YZ,None,
6,./instructions/inst_prac_1/Slide29.png,right,1.0766125560039654,508.53347382700304,509.610086383007,,,,,,,,,,,,,,,,,,,,,,,,,,,,,,,,,1,,,,,,,,,,,,,,,,,,,,,,,,,,,,,,,,,,,,,,,,,,,,,,89,156184,19,Female,1,2024/03/14_10:30:28,YZ,None,
7,./instructions/inst_prac_1/Slide30.png,right,4.077556360003655,509.6362143629958,513.7137707229995,,,,,,,,,,,,,,,,,,,,,,,,,,,,,,,,,1,,,,,,,,,,,,,,,,,,,,,,,,,,,,,,,,,,,,,,,,,,,,,,89,156184,19,Female,1,2024/03/14_10:30:28,YZ,None,
,,,,,,practice,0,10,1,1250,1,C,0,right,2.4981481290014926,1,0,,,,,,,,,,,,,,,,,,,,,1,,,,,,,,,,,,,,,,,,,,,,,,,,,,,,,,,,,,,,,,,,,,,,89,156184,19,Female,1,2024/03/14_10:30:28,YZ,None,
,,,,,,practice,0,10,1,1250,2,N,0,right,0.7883870040095644,1,0,,,,,,,,,,,,,,,,,,,,,1,,,,,,,,,,,,,,,,,,,,,,,,,,,,,,,,,,,,,,,,,,,,,,89,156184,19,Female,1,2024/03/14_10:30:28,YZ,None,
,,,,,,practice,0,10,1,1250,3,N,1,left,0.6200470930052688,1,0,,,,,,,,,,,,,,,,,,,,,1,,,,,,,,,,,,,,,,,,,,,,,,,,,,,,,,,,,,,,,,,,,,,,89,156184,19,Female,1,2024/03/14_10:30:28,YZ,None,
,,,,,,practice,0,10,1,1250,4,S,0,right,0.622481976999552,1,0,,,,,,,,,,,,,,,,,,,,,1,,,,,,,,,,,,,,,,,,,,,,,,,,,,,,,,,,,,,,,,,,,,,,89,156184,19,Female,1,2024/03/14_10:30:28,YZ,None,
,,,,,,practice,0,10,1,1250,5,F,0,right,1.3023340359941358,1,0,,,,,,,,,,,,,,,,,,,,,1,,,,,,,,,,,,,,,,,,,,,,,,,,,,,,,,,,,,,,,,,,,,,,89,156184,19,Female,1,2024/03/14_10:30:28,YZ,None,
,,,,,,practice,0,10,1,1250,6,F,1,left,0.7414392219943693,1,0,,,,,,,,,,,,,,,,,,,,,1,,,,,,,,,,,,,,,,,,,,,,,,,,,,,,,,,,,,,,,,,,,,,,89,156184,19,Female,1,2024/03/14_10:30:28,YZ,None,
,,,,,,practice,0,10,1,1250,7,J,0,right,0.7717895399982808,1,0,,,,,,,,,,,,,,,,,,,,,1,,,,,,,,,,,,,,,,,,,,,,,,,,,,,,,,,,,,,,,,,,,,,,89,156184,19,Female,1,2024/03/14_10:30:28,YZ,None,
,,,,,,practice,0,10,1,1250,8,J,1,left,0.6075857559917495,1,0,,,,,,,,,,,,,,,,,,,,,1,,,,,,,,,,,,,,,,,,,,,,,,,,,,,,,,,,,,,,,,,,,,,,89,156184,19,Female,1,2024/03/14_10:30:28,YZ,None,
,,,,,,practice,0,10,1,1250,9,V,0,right,0.6523299070104258,1,0,,,,,,,,,,,,,,,,,,,,,1,,,,,,,,,,,,,,,,,,,,,,,,,,,,,,,,,,,,,,,,,,,,,,89,156184,19,Female,1,2024/03/14_10:30:28,YZ,None,
,,,,,,practice,0,10,1,1250,10,N,0,right,3.0199127359956037,1,0,,,,,,,,,,,,,,,,,,,,,1,,,,,,,,,,,,,,,,,,,,,,,,,,,,,,,,,,,,,,,,,,,,,,89,156184,19,Female,1,2024/03/14_10:30:28,YZ,None,
,,,,,,practice,0,10,1,1250,,,,,,,,1.0,1.0,0.0,1.0,0.0,1.0,1.1624455400000442,3,0,0,0,0,7,10,3,7,0,,,,1,,,,,,,,,,,,,,,,,,,,,,,,,,,,,,,,,,,,,,,,,,,,,,89,156184,19,Female,1,2024/03/14_10:30:28,YZ,None,
1,./instructions/inst_prac_1_next/Slide35.png,right,0.9357060299953446,535.8822739850002,536.8179800149956,,,,,,,,,,,,,,,,,,,,,,,,,,,,,,,,,1,,,,,,,,,,,,,,,,,,,,,,,,,,,,,,,,,,,,,,,,,,,,,,89,156184,19,Female,1,2024/03/14_10:30:28,YZ,None,
,,,,,,practice,0,32,1,500,1,J,0,right,1.122419206003542,1,0,,,,,,,,,,,,,,,,,,,,,1,,,,,,,,,,,,,,,,,,,,,,,,,,,,,,,,,,,,,,,,,,,,,,89,156184,19,Female,1,2024/03/14_10:30:28,YZ,None,
,,,,,,practice,0,32,1,500,2,J,1,left,0.47465324800577946,1,0,,,,,,,,,,,,,,,,,,,,,1,,,,,,,,,,,,,,,,,,,,,,,,,,,,,,,,,,,,,,,,,,,,,,89,156184,19,Female,1,2024/03/14_10:30:28,YZ,None,
,,,,,,practice,0,32,1,500,3,V,0,right,0.5570825799950399,1,0,,,,,,,,,,,,,,,,,,,,,1,,,,,,,,,,,,,,,,,,,,,,,,,,,,,,,,,,,,,,,,,,,,,,89,156184,19,Female,1,2024/03/14_10:30:28,YZ,None,
,,,,,,practice,0,32,1,500,4,S,0,right,0.41248980500677135,1,0,,,,,,,,,,,,,,,,,,,,,1,,,,,,,,,,,,,,,,,,,,,,,,,,,,,,,,,,,,,,,,,,,,,,89,156184,19,Female,1,2024/03/14_10:30:28,YZ,None,
,,,,,,practice,0,32,1,500,5,Q,0,right,0.404821226009517,1,0,,,,,,,,,,,,,,,,,,,,,1,,,,,,,,,,,,,,,,,,,,,,,,,,,,,,,,,,,,,,,,,,,,,,89,156184,19,Female,1,2024/03/14_10:30:28,YZ,None,
,,,,,,practice,0,32,1,500,6,X,0,right,0.4324057040066691,1,0,,,,,,,,,,,,,,,,,,,,,1,,,,,,,,,,,,,,,,,,,,,,,,,,,,,,,,,,,,,,,,,,,,,,89,156184,19,Female,1,2024/03/14_10:30:28,YZ,None,
,,,,,,practice,0,32,1,500,7,N,0,right,0.4807899800071027,1,0,,,,,,,,,,,,,,,,,,,,,1,,,,,,,,,,,,,,,,,,,,,,,,,,,,,,,,,,,,,,,,,,,,,,89,156184,19,Female,1,2024/03/14_10:30:28,YZ,None,
,,,,,,practice,0,32,1,500,8,X,0,right,0.512233772999025,1,0,,,,,,,,,,,,,,,,,,,,,1,,,,,,,,,,,,,,,,,,,,,,,,,,,,,,,,,,,,,,,,,,,,,,89,156184,19,Female,1,2024/03/14_10:30:28,YZ,None,
,,,,,,practice,0,32,1,500,9,X,1,left,0.31753371299419086,1,0,,,,,,,,,,,,,,,,,,,,,1,,,,,,,,,,,,,,,,,,,,,,,,,,,,,,,,,,,,,,,,,,,,,,89,156184,19,Female,1,2024/03/14_10:30:28,YZ,None,
,,,,,,practice,0,32,1,500,10,S,0,right,0.4486242040002253,1,0,,,,,,,,,,,,,,,,,,,,,1,,,,,,,,,,,,,,,,,,,,,,,,,,,,,,,,,,,,,,,,,,,,,,89,156184,19,Female,1,2024/03/14_10:30:28,YZ,None,
,,,,,,practice,0,32,1,500,11,V,0,right,0.38829441099369433,1,0,,,,,,,,,,,,,,,,,,,,,1,,,,,,,,,,,,,,,,,,,,,,,,,,,,,,,,,,,,,,,,,,,,,,89,156184,19,Female,1,2024/03/14_10:30:28,YZ,None,
,,,,,,practice,0,32,1,500,12,V,1,left,0.6163503930001752,1,0,,,,,,,,,,,,,,,,,,,,,1,,,,,,,,,,,,,,,,,,,,,,,,,,,,,,,,,,,,,,,,,,,,,,89,156184,19,Female,1,2024/03/14_10:30:28,YZ,None,
,,,,,,practice,0,32,1,500,13,Q,0,right,0.4737954289885238,1,0,,,,,,,,,,,,,,,,,,,,,1,,,,,,,,,,,,,,,,,,,,,,,,,,,,,,,,,,,,,,,,,,,,,,89,156184,19,Female,1,2024/03/14_10:30:28,YZ,None,
,,,,,,practice,0,32,1,500,14,J,0,right,0.36504420699202456,1,0,,,,,,,,,,,,,,,,,,,,,1,,,,,,,,,,,,,,,,,,,,,,,,,,,,,,,,,,,,,,,,,,,,,,89,156184,19,Female,1,2024/03/14_10:30:28,YZ,None,
,,,,,,practice,0,32,1,500,15,J,1,left,0.432583172005252,1,0,,,,,,,,,,,,,,,,,,,,,1,,,,,,,,,,,,,,,,,,,,,,,,,,,,,,,,,,,,,,,,,,,,,,89,156184,19,Female,1,2024/03/14_10:30:28,YZ,None,
,,,,,,practice,0,32,1,500,16,N,0,right,0.4122681100125192,1,0,,,,,,,,,,,,,,,,,,,,,1,,,,,,,,,,,,,,,,,,,,,,,,,,,,,,,,,,,,,,,,,,,,,,89,156184,19,Female,1,2024/03/14_10:30:28,YZ,None,
,,,,,,practice,0,32,1,500,,,,,,,,1.0,1.0,0.0,1.0,0.0,1.0,0.49071182256375323,4,0,0,0,0,12,16,4,12,0,,,,1,,,,,,,,,,,,,,,,,,,,,,,,,,,,,,,,,,,,,,,,,,,,,,89,156184,19,Female,1,2024/03/14_10:30:28,YZ,None,
,,,,,,practice,0,20,1,500,1,X,0,right,0.40018398899701424,1,0,,,,,,,,,,,,,,,,,,,,,1,,,,,,,,,,,,,,,,,,,,,,,,,,,,,,,,,,,,,,,,,,,,,,89,156184,19,Female,1,2024/03/14_10:30:28,YZ,None,
,,,,,,practice,0,20,1,500,2,S,0,right,0.3291159479995258,1,0,,,,,,,,,,,,,,,,,,,,,1,,,,,,,,,,,,,,,,,,,,,,,,,,,,,,,,,,,,,,,,,,,,,,89,156184,19,Female,1,2024/03/14_10:30:28,YZ,None,
,,,,,,practice,0,20,1,500,3,S,1,left,0.4161117350013228,1,0,,,,,,,,,,,,,,,,,,,,,1,,,,,,,,,,,,,,,,,,,,,,,,,,,,,,,,,,,,,,,,,,,,,,89,156184,19,Female,1,2024/03/14_10:30:28,YZ,None,
,,,,,,practice,0,20,1,500,4,C,0,right,0.43310244400345255,1,0,,,,,,,,,,,,,,,,,,,,,1,,,,,,,,,,,,,,,,,,,,,,,,,,,,,,,,,,,,,,,,,,,,,,89,156184,19,Female,1,2024/03/14_10:30:28,YZ,None,
,,,,,,practice,0,20,1,500,5,C,1,left,0.49782031000358984,1,0,,,,,,,,,,,,,,,,,,,,,1,,,,,,,,,,,,,,,,,,,,,,,,,,,,,,,,,,,,,,,,,,,,,,89,156184,19,Female,1,2024/03/14_10:30:28,YZ,None,
,,,,,,practice,0,20,1,500,6,Q,0,right,0.323575037997216,1,0,,,,,,,,,,,,,,,,,,,,,1,,,,,,,,,,,,,,,,,,,,,,,,,,,,,,,,,,,,,,,,,,,,,,89,156184,19,Female,1,2024/03/14_10:30:28,YZ,None,
,,,,,,practice,0,20,1,500,7,N,0,right,0.48457164398860186,1,0,,,,,,,,,,,,,,,,,,,,,1,,,,,,,,,,,,,,,,,,,,,,,,,,,,,,,,,,,,,,,,,,,,,,89,156184,19,Female,1,2024/03/14_10:30:28,YZ,None,
,,,,,,practice,0,20,1,500,8,J,0,right,0.3766194420022657,1,0,,,,,,,,,,,,,,,,,,,,,1,,,,,,,,,,,,,,,,,,,,,,,,,,,,,,,,,,,,,,,,,,,,,,89,156184,19,Female,1,2024/03/14_10:30:28,YZ,None,
,,,,,,practice,0,20,1,500,9,X,0,right,0.4164489249960752,1,0,,,,,,,,,,,,,,,,,,,,,1,,,,,,,,,,,,,,,,,,,,,,,,,,,,,,,,,,,,,,,,,,,,,,89,156184,19,Female,1,2024/03/14_10:30:28,YZ,None,
,,,,,,practice,0,20,1,500,10,C,0,right,0.4329166879906552,1,0,,,,,,,,,,,,,,,,,,,,,1,,,,,,,,,,,,,,,,,,,,,,,,,,,,,,,,,,,,,,,,,,,,,,89,156184,19,Female,1,2024/03/14_10:30:28,YZ,None,
,,,,,,practice,0,20,1,500,11,C,1,left,0.43654180799785536,1,0,,,,,,,,,,,,,,,,,,,,,1,,,,,,,,,,,,,,,,,,,,,,,,,,,,,,,,,,,,,,,,,,,,,,89,156184,19,Female,1,2024/03/14_10:30:28,YZ,None,
,,,,,,practice,0,20,1,500,12,N,0,right,0.4708608950022608,1,0,,,,,,,,,,,,,,,,,,,,,1,,,,,,,,,,,,,,,,,,,,,,,,,,,,,,,,,,,,,,,,,,,,,,89,156184,19,Female,1,2024/03/14_10:30:28,YZ,None,
,,,,,,practice,0,20,1,500,13,N,1,left,0.5123015779972775,1,0,,,,,,,,,,,,,,,,,,,,,1,,,,,,,,,,,,,,,,,,,,,,,,,,,,,,,,,,,,,,,,,,,,,,89,156184,19,Female,1,2024/03/14_10:30:28,YZ,None,
,,,,,,practice,0,20,1,500,14,V,0,right,0.5450069479993545,1,0,,,,,,,,,,,,,,,,,,,,,1,,,,,,,,,,,,,,,,,,,,,,,,,,,,,,,,,,,,,,,,,,,,,,89,156184,19,Female,1,2024/03/14_10:30:28,YZ,None,
,,,,,,practice,0,20,1,500,15,V,1,left,0.48428119299933314,1,0,,,,,,,,,,,,,,,,,,,,,1,,,,,,,,,,,,,,,,,,,,,,,,,,,,,,,,,,,,,,,,,,,,,,89,156184,19,Female,1,2024/03/14_10:30:28,YZ,None,
,,,,,,practice,0,20,1,500,16,C,0,right,0.5203626619913848,1,0,,,,,,,,,,,,,,,,,,,,,1,,,,,,,,,,,,,,,,,,,,,,,,,,,,,,,,,,,,,,,,,,,,,,89,156184,19,Female,1,2024/03/14_10:30:28,YZ,None,
,,,,,,practice,0,20,1,500,,,,,,,,1.0,1.0,0.0,1.0,0.0,1.0,0.4424888279354491,5,0,0,0,0,11,16,5,11,0,,,,1,,,,,,,,,,,,,,,,,,,,,,,,,,,,,,,,,,,,,,,,,,,,,,89,156184,19,Female,1,2024/03/14_10:30:28,YZ,None,
1,./instructions/inst_prac_3/Slide37.png,right,7.464674794988241,572.6574715260067,580.122146320995,,,,,,,,,,,,,,,,,,,,,,,,,,,,,,,,,1,,,,,,,,,,,,,,,,,,,,,,,,,,,,,,,,,,,,,,,,,,,,,,89,156184,19,Female,1,2024/03/14_10:30:28,YZ,None,
2,./instructions/inst_prac_3/Slide38.png,right,1.594452111996361,580.1516343370022,581.7460864489985,,,,,,,,,,,,,,,,,,,,,,,,,,,,,,,,,1,,,,,,,,,,,,,,,,,,,,,,,,,,,,,,,,,,,,,,,,,,,,,,89,156184,19,Female,1,2024/03/14_10:30:28,YZ,None,
3,./instructions/inst_prac_3/Slide39.png,right,1.0383225650002714,581.7718265220028,582.8101490870031,,,,,,,,,,,,,,,,,,,,,,,,,,,,,,,,,1,,,,,,,,,,,,,,,,,,,,,,,,,,,,,,,,,,,,,,,,,,,,,,89,156184,19,Female,1,2024/03/14_10:30:28,YZ,None,
4,./instructions/inst_prac_3/Slide40.png,right,1.5965594750014134,582.8374837760057,584.4340432510071,,,,,,,,,,,,,,,,,,,,,,,,,,,,,,,,,1,,,,,,,,,,,,,,,,,,,,,,,,,,,,,,,,,,,,,,,,,,,,,,89,156184,19,Female,1,2024/03/14_10:30:28,YZ,None,
5,./instructions/inst_prac_3/Slide41.png,right,4.986899907991756,584.463195631004,589.4500955389958,,,,,,,,,,,,,,,,,,,,,,,,,,,,,,,,,1,,,,,,,,,,,,,,,,,,,,,,,,,,,,,,,,,,,,,,,,,,,,,,89,156184,19,Female,1,2024/03/14_10:30:28,YZ,None,
6,./instructions/inst_prac_3/Slide42.png,right,1.533263617006014,589.4768203569984,591.0100839740044,,,,,,,,,,,,,,,,,,,,,,,,,,,,,,,,,1,,,,,,,,,,,,,,,,,,,,,,,,,,,,,,,,,,,,,,,,,,,,,,89,156184,19,Female,1,2024/03/14_10:30:28,YZ,None,
7,./instructions/inst_prac_3/Slide43.png,right,0.9460639500030084,591.0400760839984,591.9861400340014,,,,,,,,,,,,,,,,,,,,,,,,,,,,,,,,,1,,,,,,,,,,,,,,,,,,,,,,,,,,,,,,,,,,,,,,,,,,,,,,89,156184,19,Female,1,2024/03/14_10:30:28,YZ,None,
8,./instructions/inst_prac_3/Slide44.png,right,1.1419423519982956,592.0122404290014,593.1541827809997,,,,,,,,,,,,,,,,,,,,,,,,,,,,,,,,,1,,,,,,,,,,,,,,,,,,,,,,,,,,,,,,,,,,,,,,,,,,,,,,89,156184,19,Female,1,2024/03/14_10:30:28,YZ,None,
,,,,,,practice,0,30,3,788,1,X,0,right,0.8740098810085328,1,0,,,,,,,,,,,,,,,,,,,,,1,,,,,,,,,,,,,,,,,,,,,,,,,,,,,,,,,,,,,,,,,,,,,,89,156184,19,Female,1,2024/03/14_10:30:28,YZ,None,
,,,,,,practice,0,30,3,788,2,V,0,right,0.5106088049942628,1,0,,,,,,,,,,,,,,,,,,,,,1,,,,,,,,,,,,,,,,,,,,,,,,,,,,,,,,,,,,,,,,,,,,,,89,156184,19,Female,1,2024/03/14_10:30:28,YZ,None,
,,,,,,practice,0,30,3,788,3,C,0,right,0.9561541870061774,1,0,,,,,,,,,,,,,,,,,,,,,1,,,,,,,,,,,,,,,,,,,,,,,,,,,,,,,,,,,,,,,,,,,,,,89,156184,19,Female,1,2024/03/14_10:30:28,YZ,None,
,,,,,,practice,0,30,3,788,4,X,1,left,0.8692886880016886,1,0,,,,,,,,,,,,,,,,,,,,,1,,,,,,,,,,,,,,,,,,,,,,,,,,,,,,,,,,,,,,,,,,,,,,89,156184,19,Female,1,2024/03/14_10:30:28,YZ,None,
,,,,,,practice,0,30,3,788,5,F,0,right,1.2385951059986837,1,0,,,,,,,,,,,,,,,,,,,,,1,,,,,,,,,,,,,,,,,,,,,,,,,,,,,,,,,,,,,,,,,,,,,,89,156184,19,Female,1,2024/03/14_10:30:28,YZ,None,
,,,,,,practice,0,30,3,788,6,C,1,left,0.6894057610043092,1,0,,,,,,,,,,,,,,,,,,,,,1,,,,,,,,,,,,,,,,,,,,,,,,,,,,,,,,,,,,,,,,,,,,,,89,156184,19,Female,1,2024/03/14_10:30:28,YZ,None,
,,,,,,practice,0,30,3,788,7,F,0,right,0.7026583580009174,1,0,,,,,,,,,,,,,,,,,,,,,1,,,,,,,,,,,,,,,,,,,,,,,,,,,,,,,,,,,,,,,,,,,,,,89,156184,19,Female,1,2024/03/14_10:30:28,YZ,None,
,,,,,,practice,0,30,3,788,8,V,0,right,0.5756602589972317,1,0,,,,,,,,,,,,,,,,,,,,,1,,,,,,,,,,,,,,,,,,,,,,,,,,,,,,,,,,,,,,,,,,,,,,89,156184,19,Female,1,2024/03/14_10:30:28,YZ,None,
,,,,,,practice,0,30,3,788,9,N,0,right,0.7325396800006274,1,0,,,,,,,,,,,,,,,,,,,,,1,,,,,,,,,,,,,,,,,,,,,,,,,,,,,,,,,,,,,,,,,,,,,,89,156184,19,Female,1,2024/03/14_10:30:28,YZ,None,
,,,,,,practice,0,30,3,788,10,X,0,right,0.8912936080014333,1,0,,,,,,,,,,,,,,,,,,,,,1,,,,,,,,,,,,,,,,,,,,,,,,,,,,,,,,,,,,,,,,,,,,,,89,156184,19,Female,1,2024/03/14_10:30:28,YZ,None,
,,,,,,practice,0,30,3,788,11,V,1,left,0.62140143099532,1,0,,,,,,,,,,,,,,,,,,,,,1,,,,,,,,,,,,,,,,,,,,,,,,,,,,,,,,,,,,,,,,,,,,,,89,156184,19,Female,1,2024/03/14_10:30:28,YZ,None,
,,,,,,practice,0,30,3,788,12,X,0,right,0.8279407380032353,1,0,,,,,,,,,,,,,,,,,,,,,1,,,,,,,,,,,,,,,,,,,,,,,,,,,,,,,,,,,,,,,,,,,,,,89,156184,19,Female,1,2024/03/14_10:30:28,YZ,None,
,,,,,,practice,0,30,3,788,13,X,1,left,0.8491367660026299,1,0,,,,,,,,,,,,,,,,,,,,,1,,,,,,,,,,,,,,,,,,,,,,,,,,,,,,,,,,,,,,,,,,,,,,89,156184,19,Female,1,2024/03/14_10:30:28,YZ,None,
,,,,,,practice,0,30,3,788,,,,,,,,1.0,1.0,0.0,1.0,0.0,1.0,0.7952840975396192,4,0,0,0,0,9,13,4,9,0,,,,1,,,,,,,,,,,,,,,,,,,,,,,,,,,,,,,,,,,,,,,,,,,,,,89,156184,19,Female,1,2024/03/14_10:30:28,YZ,None,
1,./instructions/inst_prac_3_next/Slide49.png,right,2.881114764997619,617.1769329759991,620.0580477409967,,,,,,,,,,,,,,,,,,,,,,,,,,,,,,,,,1,,,,,,,,,,,,,,,,,,,,,,,,,,,,,,,,,,,,,,,,,,,,,,89,156184,19,Female,1,2024/03/14_10:30:28,YZ,None,
,,,,,,practice,0,12,3,500,1,Q,0,right,1.238717105006799,1,0,,,,,,,,,,,,,,,,,,,,,1,,,,,,,,,,,,,,,,,,,,,,,,,,,,,,,,,,,,,,,,,,,,,,89,156184,19,Female,1,2024/03/14_10:30:28,YZ,None,
,,,,,,practice,0,12,3,500,2,X,0,right,0.3923296959983418,1,0,,,,,,,,,,,,,,,,,,,,,1,,,,,,,,,,,,,,,,,,,,,,,,,,,,,,,,,,,,,,,,,,,,,,89,156184,19,Female,1,2024/03/14_10:30:28,YZ,None,
,,,,,,practice,0,12,3,500,3,Q,0,right,0.37773375200049486,1,0,,,,,,,,,,,,,,,,,,,,,1,,,,,,,,,,,,,,,,,,,,,,,,,,,,,,,,,,,,,,,,,,,,,,89,156184,19,Female,1,2024/03/14_10:30:28,YZ,None,
,,,,,,practice,0,12,3,500,4,Q,1,left,0.4922637779964134,1,0,,,,,,,,,,,,,,,,,,,,,1,,,,,,,,,,,,,,,,,,,,,,,,,,,,,,,,,,,,,,,,,,,,,,89,156184,19,Female,1,2024/03/14_10:30:28,YZ,None,
,,,,,,practice,0,12,3,500,5,V,0,right,0.3886379830073565,1,0,,,,,,,,,,,,,,,,,,,,,1,,,,,,,,,,,,,,,,,,,,,,,,,,,,,,,,,,,,,,,,,,,,,,89,156184,19,Female,1,2024/03/14_10:30:28,YZ,None,
,,,,,,practice,0,12,3,500,6,X,0,left,1.0398453289963072,0,0,,,,,,,,,,,,,,,,,,,,,1,,,,,,,,,,,,,,,,,,,,,,,,,,,,,,,,,,,,,,,,,,,,,,89,156184,19,Female,1,2024/03/14_10:30:28,YZ,None,
,,,,,,practice,0,12,3,500,7,F,0,right,0.46845873100392055,1,0,,,,,,,,,,,,,,,,,,,,,1,,,,,,,,,,,,,,,,,,,,,,,,,,,,,,,,,,,,,,,,,,,,,,89,156184,19,Female,1,2024/03/14_10:30:28,YZ,None,
,,,,,,practice,0,12,3,500,8,V,1,left,1.033307754987618,1,0,,,,,,,,,,,,,,,,,,,,,1,,,,,,,,,,,,,,,,,,,,,,,,,,,,,,,,,,,,,,,,,,,,,,89,156184,19,Female,1,2024/03/14_10:30:28,YZ,None,
,,,,,,practice,0,12,3,500,9,V,0,left,0.4681618090107804,0,0,,,,,,,,,,,,,,,,,,,,,1,,,,,,,,,,,,,,,,,,,,,,,,,,,,,,,,,,,,,,,,,,,,,,89,156184,19,Female,1,2024/03/14_10:30:28,YZ,None,
,,,,,,practice,0,12,3,500,10,S,0,left,0.0,0,0,,,,,,,,,,,,,,,,,,,,,1,,,,,,,,,,,,,,,,,,,,,,,,,,,,,,,,,,,,,,,,,,,,,,89,156184,19,Female,1,2024/03/14_10:30:28,YZ,None,
,,,,,,practice,0,12,3,500,11,F,0,right,0.6836882350035012,1,0,,,,,,,,,,,,,,,,,,,,,1,,,,,,,,,,,,,,,,,,,,,,,,,,,,,,,,,,,,,,,,,,,,,,89,156184,19,Female,1,2024/03/14_10:30:28,YZ,None,
,,,,,,practice,0,12,3,500,12,V,1,left,0.2890377240109956,1,0,,,,,,,,,,,,,,,,,,,,,1,,,,,,,,,,,,,,,,,,,,,,,,,,,,,,,,,,,,,,,,,,,,,,89,156184,19,Female,1,2024/03/14_10:30:28,YZ,None,
,,,,,,practice,0,12,3,500,13,Q,0,right,0.6170372800115729,1,0,,,,,,,,,,,,,,,,,,,,,1,,,,,,,,,,,,,,,,,,,,,,,,,,,,,,,,,,,,,,,,,,,,,,89,156184,19,Female,1,2024/03/14_10:30:28,YZ,None,
,,,,,,practice,0,12,3,500,14,J,0,right,0.6005827649933053,1,0,,,,,,,,,,,,,,,,,,,,,1,,,,,,,,,,,,,,,,,,,,,,,,,,,,,,,,,,,,,,,,,,,,,,89,156184,19,Female,1,2024/03/14_10:30:28,YZ,None,
,,,,,,practice,0,12,3,500,15,V,1,left,0.9645038610033225,1,0,,,,,,,,,,,,,,,,,,,,,1,,,,,,,,,,,,,,,,,,,,,,,,,,,,,,,,,,,,,,,,,,,,,,89,156184,19,Female,1,2024/03/14_10:30:28,YZ,None,
,,,,,,practice,0,12,3,500,16,J,0,left,1.084521961005521,0,0,,,,,,,,,,,,,,,,,,,,,1,,,,,,,,,,,,,,,,,,,,,,,,,,,,,,,,,,,,,,,,,,,,,,89,156184,19,Female,1,2024/03/14_10:30:28,YZ,None,
,,,,,,practice,0,12,3,500,,,,,,,,0.9166666666666667,1.0,0.3333333333333333,0.6666666666666666,0.0,0.6666666666666667,0.6336767352522656,4,4,0,0,0,8,12,4,12,0,,,,1,,,,,,,,,,,,,,,,,,,,,,,,,,,,,,,,,,,,,,,,,,,,,,89,156184,19,Female,1,2024/03/14_10:30:28,YZ,None,
,,,,,,practice,0,26,3,500,1,V,0,right,2.330397843004903,1,0,,,,,,,,,,,,,,,,,,,,,1,,,,,,,,,,,,,,,,,,,,,,,,,,,,,,,,,,,,,,,,,,,,,,89,156184,19,Female,1,2024/03/14_10:30:28,YZ,None,
,,,,,,practice,0,26,3,500,2,V,0,right,0.9798274619970471,1,0,,,,,,,,,,,,,,,,,,,,,1,,,,,,,,,,,,,,,,,,,,,,,,,,,,,,,,,,,,,,,,,,,,,,89,156184,19,Female,1,2024/03/14_10:30:28,YZ,None,
,,,,,,practice,0,26,3,500,3,X,0,right,0.7320636149961501,1,0,,,,,,,,,,,,,,,,,,,,,1,,,,,,,,,,,,,,,,,,,,,,,,,,,,,,,,,,,,,,,,,,,,,,89,156184,19,Female,1,2024/03/14_10:30:28,YZ,None,
,,,,,,practice,0,26,3,500,4,V,1,left,0.44743894500425085,1,0,,,,,,,,,,,,,,,,,,,,,1,,,,,,,,,,,,,,,,,,,,,,,,,,,,,,,,,,,,,,,,,,,,,,89,156184,19,Female,1,2024/03/14_10:30:28,YZ,None,
,,,,,,practice,0,26,3,500,5,Q,0,right,0.9086507879983401,1,0,,,,,,,,,,,,,,,,,,,,,1,,,,,,,,,,,,,,,,,,,,,,,,,,,,,,,,,,,,,,,,,,,,,,89,156184,19,Female,1,2024/03/14_10:30:28,YZ,None,
,,,,,,practice,0,26,3,500,6,X,1,left,0.47278308699605986,1,0,,,,,,,,,,,,,,,,,,,,,1,,,,,,,,,,,,,,,,,,,,,,,,,,,,,,,,,,,,,,,,,,,,,,89,156184,19,Female,1,2024/03/14_10:30:28,YZ,None,
,,,,,,practice,0,26,3,500,7,N,0,right,0.909507140997448,1,0,,,,,,,,,,,,,,,,,,,,,1,,,,,,,,,,,,,,,,,,,,,,,,,,,,,,,,,,,,,,,,,,,,,,89,156184,19,Female,1,2024/03/14_10:30:28,YZ,None,
,,,,,,practice,0,26,3,500,8,J,0,right,0.4309178480034461,1,0,,,,,,,,,,,,,,,,,,,,,1,,,,,,,,,,,,,,,,,,,,,,,,,,,,,,,,,,,,,,,,,,,,,,89,156184,19,Female,1,2024/03/14_10:30:28,YZ,None,
,,,,,,practice,0,26,3,500,9,V,0,right,0.4444550049956888,1,0,,,,,,,,,,,,,,,,,,,,,1,,,,,,,,,,,,,,,,,,,,,,,,,,,,,,,,,,,,,,,,,,,,,,89,156184,19,Female,1,2024/03/14_10:30:28,YZ,None,
,,,,,,practice,0,26,3,500,10,N,1,right,0.9071165669884067,0,0,,,,,,,,,,,,,,,,,,,,,1,,,,,,,,,,,,,,,,,,,,,,,,,,,,,,,,,,,,,,,,,,,,,,89,156184,19,Female,1,2024/03/14_10:30:28,YZ,None,
,,,,,,practice,0,26,3,500,11,X,0,left,1.164481961997808,0,0,,,,,,,,,,,,,,,,,,,,,1,,,,,,,,,,,,,,,,,,,,,,,,,,,,,,,,,,,,,,,,,,,,,,89,156184,19,Female,1,2024/03/14_10:30:28,YZ,None,
,,,,,,practice,0,26,3,500,12,V,1,right,0.7657153219915926,0,0,,,,,,,,,,,,,,,,,,,,,1,,,,,,,,,,,,,,,,,,,,,,,,,,,,,,,,,,,,,,,,,,,,,,89,156184,19,Female,1,2024/03/14_10:30:28,YZ,None,
,,,,,,practice,0,26,3,500,13,J,0,left,0.3691414249915397,0,0,,,,,,,,,,,,,,,,,,,,,1,,,,,,,,,,,,,,,,,,,,,,,,,,,,,,,,,,,,,,,,,,,,,,89,156184,19,Female,1,2024/03/14_10:30:28,YZ,None,
,,,,,,practice,0,26,3,500,14,C,0,right,0.5009960360039258,1,0,,,,,,,,,,,,,,,,,,,,,1,,,,,,,,,,,,,,,,,,,,,,,,,,,,,,,,,,,,,,,,,,,,,,89,156184,19,Female,1,2024/03/14_10:30:28,YZ,None,
,,,,,,practice,0,26,3,500,15,J,0,right,0.6551875629957067,1,0,,,,,,,,,,,,,,,,,,,,,1,,,,,,,,,,,,,,,,,,,,,,,,,,,,,,,,,,,,,,,,,,,,,,89,156184,19,Female,1,2024/03/14_10:30:28,YZ,None,
,,,,,,practice,0,26,3,500,16,S,0,right,0.8161368139990373,1,0,,,,,,,,,,,,,,,,,,,,,1,,,,,,,,,,,,,,,,,,,,,,,,,,,,,,,,,,,,,,,,,,,,,,89,156184,19,Female,1,2024/03/14_10:30:28,YZ,None,
,,,,,,practice,0,26,3,500,,,,,,,,0.75,0.5,0.16666666666666666,0.8333333333333334,0.0,0.8333333333333334,0.8021760889350844,2,2,0,0,0,10,12,4,12,0,,,,1,,,,,,,,,,,,,,,,,,,,,,,,,,,,,,,,,,,,,,,,,,,,,,89,156184,19,Female,1,2024/03/14_10:30:28,YZ,None,
1,./instructions/inst_prac_main/Slide51.png,right,3.8866826680023223,663.9152152400056,667.801897908008,,,,,,,,,,,,,,,,,,,,,,,,,,,,,,,,,1,,,,,,,,,,,,,,,,,,,,,,,,,,,,,,,,,,,,,,,,,,,,,,89,156184,19,Female,1,2024/03/14_10:30:28,YZ,None,
0,./instructions/inst_prac_main/Slide52.png,left,9.331212991994107,667.8310086410056,677.1622216329997,,,,,,,,,,,,,,,,,,,,,,,,,,,,,,,,,1,,,,,,,,,,,,,,,,,,,,,,,,,,,,,,,,,,,,,,,,,,,,,,89,156184,19,Female,1,2024/03/14_10:30:28,YZ,None,
1,./instructions/inst_prac_main/Slide51.png,right,2.03654663200723,677.1816111730004,679.2181578050076,,,,,,,,,,,,,,,,,,,,,,,,,,,,,,,,,1,,,,,,,,,,,,,,,,,,,,,,,,,,,,,,,,,,,,,,,,,,,,,,89,156184,19,Female,1,2024/03/14_10:30:28,YZ,None,
2,./instructions/inst_prac_main/Slide52.png,right,0.5068962549994467,679.2471802479995,679.7540765029989,,,,,,,,,,,,,,,,,,,,,,,,,,,,,,,,,1,,,,,,,,,,,,,,,,,,,,,,,,,,,,,,,,,,,,,,,,,,,,,,89,156184,19,Female,1,2024/03/14_10:30:28,YZ,None,
3,./instructions/inst_prac_main/Slide53.png,right,5.938855946005788,679.7832815349975,685.7221374810033,,,,,,,,,,,,,,,,,,,,,,,,,,,,,,,,,1,,,,,,,,,,,,,,,,,,,,,,,,,,,,,,,,,,,,,,,,,,,,,,89,156184,19,Female,1,2024/03/14_10:30:28,YZ,None,
4,./instructions/inst_prac_main/Slide54.png,right,10.702417206004611,685.7477359449986,696.4501531510032,,,,,,,,,,,,,,,,,,,,,,,,,,,,,,,,,1,,,,,,,,,,,,,,,,,,,,,,,,,,,,,,,,,,,,,,,,,,,,,,89,156184,19,Female,1,2024/03/14_10:30:28,YZ,None,
,,,,,,practice_main,0,1,1,500,1,N,0,None,nan,0,1,,,,,,,,,,,,,,,,,,,,,1,,,,,,,,,,,,,,,,,,,,,,,,,,,,,,,,,,,,,,,,,,,,,,89,156184,19,Female,1,2024/03/14_10:30:28,YZ,None,
,,,,,,practice_main,0,1,1,500,2,S,0,right,0.7898463199962862,1,0,,,,,,,,,,,,,,,,,,,,,1,,,,,,,,,,,,,,,,,,,,,,,,,,,,,,,,,,,,,,,,,,,,,,89,156184,19,Female,1,2024/03/14_10:30:28,YZ,None,
,,,,,,practice_main,0,1,1,500,3,V,0,right,0.5468620980100241,1,0,,,,,,,,,,,,,,,,,,,,,1,,,,,,,,,,,,,,,,,,,,,,,,,,,,,,,,,,,,,,,,,,,,,,89,156184,19,Female,1,2024/03/14_10:30:28,YZ,None,
,,,,,,practice_main,0,1,1,500,4,J,0,right,0.4103368100040825,1,0,,,,,,,,,,,,,,,,,,,,,1,,,,,,,,,,,,,,,,,,,,,,,,,,,,,,,,,,,,,,,,,,,,,,89,156184,19,Female,1,2024/03/14_10:30:28,YZ,None,
,,,,,,practice_main,0,1,1,500,5,C,0,right,0.43111128799500875,1,0,,,,,,,,,,,,,,,,,,,,,1,,,,,,,,,,,,,,,,,,,,,,,,,,,,,,,,,,,,,,,,,,,,,,89,156184,19,Female,1,2024/03/14_10:30:28,YZ,None,
,,,,,,practice_main,0,1,1,500,6,C,1,left,0.5236582399957115,1,0,,,,,,,,,,,,,,,,,,,,,1,,,,,,,,,,,,,,,,,,,,,,,,,,,,,,,,,,,,,,,,,,,,,,89,156184,19,Female,1,2024/03/14_10:30:28,YZ,None,
,,,,,,practice_main,0,1,1,500,7,J,0,right,0.5008432330068899,1,0,,,,,,,,,,,,,,,,,,,,,1,,,,,,,,,,,,,,,,,,,,,,,,,,,,,,,,,,,,,,,,,,,,,,89,156184,19,Female,1,2024/03/14_10:30:28,YZ,None,
,,,,,,practice_main,0,1,1,500,8,J,1,left,0.3729529420088511,1,0,,,,,,,,,,,,,,,,,,,,,1,,,,,,,,,,,,,,,,,,,,,,,,,,,,,,,,,,,,,,,,,,,,,,89,156184,19,Female,1,2024/03/14_10:30:28,YZ,None,
,,,,,,practice_main,0,1,1,500,9,S,0,right,0.46398634900106117,1,0,,,,,,,,,,,,,,,,,,,,,1,,,,,,,,,,,,,,,,,,,,,,,,,,,,,,,,,,,,,,,,,,,,,,89,156184,19,Female,1,2024/03/14_10:30:28,YZ,None,
,,,,,,practice_main,0,1,1,500,10,C,0,right,0.35581969399936497,1,0,,,,,,,,,,,,,,,,,,,,,1,,,,,,,,,,,,,,,,,,,,,,,,,,,,,,,,,,,,,,,,,,,,,,89,156184,19,Female,1,2024/03/14_10:30:28,YZ,None,
,,,,,,practice_main,0,1,1,500,11,C,1,left,0.48486300199874677,1,0,,,,,,,,,,,,,,,,,,,,,1,,,,,,,,,,,,,,,,,,,,,,,,,,,,,,,,,,,,,,,,,,,,,,89,156184,19,Female,1,2024/03/14_10:30:28,YZ,None,
,,,,,,practice_main,0,1,1,500,12,X,0,right,0.36684676200093236,1,0,,,,,,,,,,,,,,,,,,,,,1,,,,,,,,,,,,,,,,,,,,,,,,,,,,,,,,,,,,,,,,,,,,,,89,156184,19,Female,1,2024/03/14_10:30:28,YZ,None,
,,,,,,practice_main,0,1,1,500,13,J,0,right,0.4366429809888359,1,0,,,,,,,,,,,,,,,,,,,,,1,,,,,,,,,,,,,,,,,,,,,,,,,,,,,,,,,,,,,,,,,,,,,,89,156184,19,Female,1,2024/03/14_10:30:28,YZ,None,
,,,,,,practice_main,0,1,1,500,14,J,1,left,0.5488396040018415,1,0,,,,,,,,,,,,,,,,,,,,,1,,,,,,,,,,,,,,,,,,,,,,,,,,,,,,,,,,,,,,,,,,,,,,89,156184,19,Female,1,2024/03/14_10:30:28,YZ,None,
,,,,,,practice_main,0,1,1,500,15,X,0,right,0.49122795500443317,1,0,,,,,,,,,,,,,,,,,,,,,1,,,,,,,,,,,,,,,,,,,,,,,,,,,,,,,,,,,,,,,,,,,,,,89,156184,19,Female,1,2024/03/14_10:30:28,YZ,None,
,,,,,,practice_main,0,1,1,500,16,J,0,right,0.530798710999079,1,0,,,,,,,,,,,,,,,,,,,,,1,,,,,,,,,,,,,,,,,,,,,,,,,,,,,,,,,,,,,,,,,,,,,,89,156184,19,Female,1,2024/03/14_10:30:28,YZ,None,
,,,,,,practice_main,0,1,1,500,,,,,,,,1.0,1.0,0.0,1.0,0.0625,0.9375,0.48364239926740993,4,0,0,1,1,11,15,4,12,0,,,,1,,,,,,,,,,,,,,,,,,,,,,,,,,,,,,,,,,,,,,,,,,,,,,89,156184,19,Female,1,2024/03/14_10:30:28,YZ,None,
,,,,,240314_105816,PRACTICE,0,1,1,500,,,,,,,,,,,,,,,,,,,,,,,,,,,,1,19,2,1,cue1.png,easy,A,61,1.1124127890070667,0,707.5562594770017,708.6883530979976,,,,,,,,,,,,,,,,,,,,,,,,,,,,,,,,,,,89,156184,19,Female,1,2024/03/14_10:30:28,YZ,None,
,,,,,,practice_main,0,2,3,500,1,F,0,right,0.7874772259965539,1,0,,,,,,,,,,,,,,,,,,,,,1,,,,,,,,,,,,,,,,,,,,,,,,,,,,,,,,,,,,,,,,,,,,,,89,156184,19,Female,1,2024/03/14_10:30:28,YZ,None,
,,,,,,practice_main,0,2,3,500,2,C,0,right,0.5384240549901733,1,0,,,,,,,,,,,,,,,,,,,,,1,,,,,,,,,,,,,,,,,,,,,,,,,,,,,,,,,,,,,,,,,,,,,,89,156184,19,Female,1,2024/03/14_10:30:28,YZ,None,
,,,,,,practice_main,0,2,3,500,3,X,0,right,0.4861717440071516,1,0,,,,,,,,,,,,,,,,,,,,,1,,,,,,,,,,,,,,,,,,,,,,,,,,,,,,,,,,,,,,,,,,,,,,89,156184,19,Female,1,2024/03/14_10:30:28,YZ,None,
,,,,,,practice_main,0,2,3,500,4,S,0,right,0.6331377769965911,1,0,,,,,,,,,,,,,,,,,,,,,1,,,,,,,,,,,,,,,,,,,,,,,,,,,,,,,,,,,,,,,,,,,,,,89,156184,19,Female,1,2024/03/14_10:30:28,YZ,None,
,,,,,,practice_main,0,2,3,500,5,C,1,right,0.9249544229969615,0,0,,,,,,,,,,,,,,,,,,,,,1,,,,,,,,,,,,,,,,,,,,,,,,,,,,,,,,,,,,,,,,,,,,,,89,156184,19,Female,1,2024/03/14_10:30:28,YZ,None,
,,,,,,practice_main,0,2,3,500,6,F,0,left,0.6449585610098438,0,0,,,,,,,,,,,,,,,,,,,,,1,,,,,,,,,,,,,,,,,,,,,,,,,,,,,,,,,,,,,,,,,,,,,,89,156184,19,Female,1,2024/03/14_10:30:28,YZ,None,
,,,,,,practice_main,0,2,3,500,7,X,0,right,0.3400912819924997,1,0,,,,,,,,,,,,,,,,,,,,,1,,,,,,,,,,,,,,,,,,,,,,,,,,,,,,,,,,,,,,,,,,,,,,89,156184,19,Female,1,2024/03/14_10:30:28,YZ,None,
,,,,,,practice_main,0,2,3,500,8,N,0,right,0.448568282998167,1,0,,,,,,,,,,,,,,,,,,,,,1,,,,,,,,,,,,,,,,,,,,,,,,,,,,,,,,,,,,,,,,,,,,,,89,156184,19,Female,1,2024/03/14_10:30:28,YZ,None,
,,,,,,practice_main,0,2,3,500,9,F,1,left,0.4414057960093487,1,0,,,,,,,,,,,,,,,,,,,,,1,,,,,,,,,,,,,,,,,,,,,,,,,,,,,,,,,,,,,,,,,,,,,,89,156184,19,Female,1,2024/03/14_10:30:28,YZ,None,
,,,,,,practice_main,0,2,3,500,10,S,0,right,0.49579517099482473,1,0,,,,,,,,,,,,,,,,,,,,,1,,,,,,,,,,,,,,,,,,,,,,,,,,,,,,,,,,,,,,,,,,,,,,89,156184,19,Female,1,2024/03/14_10:30:28,YZ,None,
,,,,,,practice_main,0,2,3,500,11,S,0,left,0.6756767030019546,0,0,,,,,,,,,,,,,,,,,,,,,1,,,,,,,,,,,,,,,,,,,,,,,,,,,,,,,,,,,,,,,,,,,,,,89,156184,19,Female,1,2024/03/14_10:30:28,YZ,None,
,,,,,,practice_main,0,2,3,500,12,F,1,right,0.4212726779951481,0,0,,,,,,,,,,,,,,,,,,,,,1,,,,,,,,,,,,,,,,,,,,,,,,,,,,,,,,,,,,,,,,,,,,,,89,156184,19,Female,1,2024/03/14_10:30:28,YZ,None,
,,,,,,practice_main,0,2,3,500,13,X,0,right,0.45640004400047474,1,0,,,,,,,,,,,,,,,,,,,,,1,,,,,,,,,,,,,,,,,,,,,,,,,,,,,,,,,,,,,,,,,,,,,,89,156184,19,Female,1,2024/03/14_10:30:28,YZ,None,
,,,,,,practice_main,0,2,3,500,14,J,0,left,0.28846953899483196,0,0,,,,,,,,,,,,,,,,,,,,,1,,,,,,,,,,,,,,,,,,,,,,,,,,,,,,,,,,,,,,,,,,,,,,89,156184,19,Female,1,2024/03/14_10:30:28,YZ,None,
,,,,,,practice_main,0,2,3,500,15,F,1,right,0.3121222860063426,0,0,,,,,,,,,,,,,,,,,,,,,1,,,,,,,,,,,,,,,,,,,,,,,,,,,,,,,,,,,,,,,,,,,,,,89,156184,19,Female,1,2024/03/14_10:30:28,YZ,None,
,,,,,,practice_main,0,2,3,500,16,Q,0,right,0.5463563910016092,1,0,,,,,,,,,,,,,,,,,,,,,1,,,,,,,,,,,,,,,,,,,,,,,,,,,,,,,,,,,,,,,,,,,,,,89,156184,19,Female,1,2024/03/14_10:30:28,YZ,None,
,,,,,,practice_main,0,2,3,500,,,,,,,,0.5,0.25,0.25,0.75,0.0,0.75,0.5275801224370298,1,3,0,0,0,9,10,4,12,0,,,,1,,,,,,,,,,,,,,,,,,,,,,,,,,,,,,,,,,,,,,,,,,,,,,89,156184,19,Female,1,2024/03/14_10:30:28,YZ,None,
,,,,,240314_105843,PRACTICE,0,2,3,500,,,,,,,,,,,,,,,,,,,,,,,,,,,,1,19,3,2,cue2.png,hard,A,46,1.0402609160082648,0,734.5349072420067,735.5921418619982,,,,,,,,,,,,,,,,,,,,,,,,,,,,,,,,,,,89,156184,19,Female,1,2024/03/14_10:30:28,YZ,None,
,,,,,,practice_main,0,3,1,500,1,Q,0,right,0.6256217609916348,1,0,,,,,,,,,,,,,,,,,,,,,1,,,,,,,,,,,,,,,,,,,,,,,,,,,,,,,,,,,,,,,,,,,,,,89,156184,19,Female,1,2024/03/14_10:30:28,YZ,None,
,,,,,,practice_main,0,3,1,500,2,V,0,right,0.2405683379911352,1,0,,,,,,,,,,,,,,,,,,,,,1,,,,,,,,,,,,,,,,,,,,,,,,,,,,,,,,,,,,,,,,,,,,,,89,156184,19,Female,1,2024/03/14_10:30:28,YZ,None,
,,,,,,practice_main,0,3,1,500,3,Q,0,right,0.40434548299526796,1,0,,,,,,,,,,,,,,,,,,,,,1,,,,,,,,,,,,,,,,,,,,,,,,,,,,,,,,,,,,,,,,,,,,,,89,156184,19,Female,1,2024/03/14_10:30:28,YZ,None,
,,,,,,practice_main,0,3,1,500,4,Q,1,left,0.35316066299856175,1,0,,,,,,,,,,,,,,,,,,,,,1,,,,,,,,,,,,,,,,,,,,,,,,,,,,,,,,,,,,,,,,,,,,,,89,156184,19,Female,1,2024/03/14_10:30:28,YZ,None,
,,,,,,practice_main,0,3,1,500,5,J,0,right,0.6000271670054644,1,0,,,,,,,,,,,,,,,,,,,,,1,,,,,,,,,,,,,,,,,,,,,,,,,,,,,,,,,,,,,,,,,,,,,,89,156184,19,Female,1,2024/03/14_10:30:28,YZ,None,
,,,,,,practice_main,0,3,1,500,6,F,0,right,0.609447105001891,1,0,,,,,,,,,,,,,,,,,,,,,1,,,,,,,,,,,,,,,,,,,,,,,,,,,,,,,,,,,,,,,,,,,,,,89,156184,19,Female,1,2024/03/14_10:30:28,YZ,None,
,,,,,,practice_main,0,3,1,500,7,F,1,left,0.40399128099670634,1,0,,,,,,,,,,,,,,,,,,,,,1,,,,,,,,,,,,,,,,,,,,,,,,,,,,,,,,,,,,,,,,,,,,,,89,156184,19,Female,1,2024/03/14_10:30:28,YZ,None,
,,,,,,practice_main,0,3,1,500,8,Q,0,right,0.465455565994489,1,0,,,,,,,,,,,,,,,,,,,,,1,,,,,,,,,,,,,,,,,,,,,,,,,,,,,,,,,,,,,,,,,,,,,,89,156184,19,Female,1,2024/03/14_10:30:28,YZ,None,
,,,,,,practice_main,0,3,1,500,9,S,0,right,0.5467281800083583,1,0,,,,,,,,,,,,,,,,,,,,,1,,,,,,,,,,,,,,,,,,,,,,,,,,,,,,,,,,,,,,,,,,,,,,89,156184,19,Female,1,2024/03/14_10:30:28,YZ,None,
,,,,,,practice_main,0,3,1,500,10,S,1,left,0.4682985810068203,1,0,,,,,,,,,,,,,,,,,,,,,1,,,,,,,,,,,,,,,,,,,,,,,,,,,,,,,,,,,,,,,,,,,,,,89,156184,19,Female,1,2024/03/14_10:30:28,YZ,None,
,,,,,,practice_main,0,3,1,500,11,C,0,right,0.4082764659979148,1,0,,,,,,,,,,,,,,,,,,,,,1,,,,,,,,,,,,,,,,,,,,,,,,,,,,,,,,,,,,,,,,,,,,,,89,156184,19,Female,1,2024/03/14_10:30:28,YZ,None,
,,,,,,practice_main,0,3,1,500,12,Q,0,left,0.42510231999040116,0,0,,,,,,,,,,,,,,,,,,,,,1,,,,,,,,,,,,,,,,,,,,,,,,,,,,,,,,,,,,,,,,,,,,,,89,156184,19,Female,1,2024/03/14_10:30:28,YZ,None,
,,,,,,practice_main,0,3,1,500,13,Q,1,left,0.6080806860118173,1,0,,,,,,,,,,,,,,,,,,,,,1,,,,,,,,,,,,,,,,,,,,,,,,,,,,,,,,,,,,,,,,,,,,,,89,156184,19,Female,1,2024/03/14_10:30:28,YZ,None,
,,,,,,practice_main,0,3,1,500,14,X,0,right,0.4251231579983141,1,0,,,,,,,,,,,,,,,,,,,,,1,,,,,,,,,,,,,,,,,,,,,,,,,,,,,,,,,,,,,,,,,,,,,,89,156184,19,Female,1,2024/03/14_10:30:28,YZ,None,
,,,,,,practice_main,0,3,1,500,15,Q,0,right,0.7738597590068821,1,0,,,,,,,,,,,,,,,,,,,,,1,,,,,,,,,,,,,,,,,,,,,,,,,,,,,,,,,,,,,,,,,,,,,,89,156184,19,Female,1,2024/03/14_10:30:28,YZ,None,
,,,,,,practice_main,0,3,1,500,16,J,0,right,0.3752155499969376,1,0,,,,,,,,,,,,,,,,,,,,,1,,,,,,,,,,,,,,,,,,,,,,,,,,,,,,,,,,,,,,,,,,,,,,89,156184,19,Female,1,2024/03/14_10:30:28,YZ,None,
,,,,,,practice_main,0,3,1,500,,,,,,,,0.9791666666666666,1.0,0.08333333333333333,0.9166666666666666,0.0,0.9166666666666666,0.48333137899953726,4,1,0,0,0,11,15,4,12,0,,,,1,,,,,,,,,,,,,,,,,,,,,,,,,,,,,,,,,,,,,,,,,,,,,,89,156184,19,Female,1,2024/03/14_10:30:28,YZ,None,
,,,,,240314_105910,PRACTICE,0,3,1,500,,,,,,,,,,,,,,,,,,,,,,,,,,,,1,29,4,3,cue1.png,easy,A,56,1.8151434180035722,0,761.5728117679973,763.405082821002,,,,,,,,,,,,,,,,,,,,,,,,,,,,,,,,,,,89,156184,19,Female,1,2024/03/14_10:30:28,YZ,None,
1,./instructions/inst_prac_end/Slide56.png,right,25.281438711012015,787.184802097996,812.466240809008,,,,,,,,,,,,,,,,,,,,,,,,,,,,,,,,,1,,,,,,,,,,,,,,,,,,,,,,,,,,,,,,,,,,,,,,,,,,,,,,89,156184,19,Female,1,2024/03/14_10:30:28,YZ,None,
1,./instructions/inst_test/Slide57.png,right,24.046118042999296,812.499847649,836.5459656919993,,,,,,,,,,,,,,,,,,,,,,,,,,,,,,,,,1,,,,,,,,,,,,,,,,,,,,,,,,,,,,,,,,,,,,,,,,,,,,,,89,156184,19,Female,1,2024/03/14_10:30:28,YZ,None,
,,,,,,test,1,1,1,500,1,J,0,right,0.6373378229909576,1,0,,,,,,,,,,,,,,,,,,,,,1,,,,,,,,,,,,,,,,,,,,,,,,,,,,,,,,,,,,,,,,,,,,,,89,156184,19,Female,1,2024/03/14_10:30:28,YZ,None,
,,,,,,test,1,1,1,500,2,C,0,right,0.3431932750099804,1,0,,,,,,,,,,,,,,,,,,,,,1,,,,,,,,,,,,,,,,,,,,,,,,,,,,,,,,,,,,,,,,,,,,,,89,156184,19,Female,1,2024/03/14_10:30:28,YZ,None,
,,,,,,test,1,1,1,500,3,V,0,right,0.3530256029916927,1,0,,,,,,,,,,,,,,,,,,,,,1,,,,,,,,,,,,,,,,,,,,,,,,,,,,,,,,,,,,,,,,,,,,,,89,156184,19,Female,1,2024/03/14_10:30:28,YZ,None,
,,,,,,test,1,1,1,500,4,Q,0,right,0.40725385199766606,1,0,,,,,,,,,,,,,,,,,,,,,1,,,,,,,,,,,,,,,,,,,,,,,,,,,,,,,,,,,,,,,,,,,,,,89,156184,19,Female,1,2024/03/14_10:30:28,YZ,None,
,,,,,,test,1,1,1,500,5,Q,1,left,0.4407080030068755,1,0,,,,,,,,,,,,,,,,,,,,,1,,,,,,,,,,,,,,,,,,,,,,,,,,,,,,,,,,,,,,,,,,,,,,89,156184,19,Female,1,2024/03/14_10:30:28,YZ,None,
,,,,,,test,1,1,1,500,6,F,0,right,0.34468666699831374,1,0,,,,,,,,,,,,,,,,,,,,,1,,,,,,,,,,,,,,,,,,,,,,,,,,,,,,,,,,,,,,,,,,,,,,89,156184,19,Female,1,2024/03/14_10:30:28,YZ,None,
,,,,,,test,1,1,1,500,7,F,1,left,0.38103742701059673,1,0,,,,,,,,,,,,,,,,,,,,,1,,,,,,,,,,,,,,,,,,,,,,,,,,,,,,,,,,,,,,,,,,,,,,89,156184,19,Female,1,2024/03/14_10:30:28,YZ,None,
,,,,,,test,1,1,1,500,8,Q,0,right,0.3629787639947608,1,0,,,,,,,,,,,,,,,,,,,,,1,,,,,,,,,,,,,,,,,,,,,,,,,,,,,,,,,,,,,,,,,,,,,,89,156184,19,Female,1,2024/03/14_10:30:28,YZ,None,
,,,,,,test,1,1,1,500,9,Q,1,left,0.33650966300047,1,0,,,,,,,,,,,,,,,,,,,,,1,,,,,,,,,,,,,,,,,,,,,,,,,,,,,,,,,,,,,,,,,,,,,,89,156184,19,Female,1,2024/03/14_10:30:28,YZ,None,
,,,,,,test,1,1,1,500,10,X,0,right,0.3433162290020846,1,0,,,,,,,,,,,,,,,,,,,,,1,,,,,,,,,,,,,,,,,,,,,,,,,,,,,,,,,,,,,,,,,,,,,,89,156184,19,Female,1,2024/03/14_10:30:28,YZ,None,
,,,,,,test,1,1,1,500,11,F,0,right,0.4156765439984156,1,0,,,,,,,,,,,,,,,,,,,,,1,,,,,,,,,,,,,,,,,,,,,,,,,,,,,,,,,,,,,,,,,,,,,,89,156184,19,Female,1,2024/03/14_10:30:28,YZ,None,
,,,,,,test,1,1,1,500,12,Q,0,right,0.36357977500301786,1,0,,,,,,,,,,,,,,,,,,,,,1,,,,,,,,,,,,,,,,,,,,,,,,,,,,,,,,,,,,,,,,,,,,,,89,156184,19,Female,1,2024/03/14_10:30:28,YZ,None,
,,,,,,test,1,1,1,500,13,Q,1,left,0.31910514800983947,1,0,,,,,,,,,,,,,,,,,,,,,1,,,,,,,,,,,,,,,,,,,,,,,,,,,,,,,,,,,,,,,,,,,,,,89,156184,19,Female,1,2024/03/14_10:30:28,YZ,None,
,,,,,,test,1,1,1,500,14,J,0,right,0.36802866600919515,1,0,,,,,,,,,,,,,,,,,,,,,1,,,,,,,,,,,,,,,,,,,,,,,,,,,,,,,,,,,,,,,,,,,,,,89,156184,19,Female,1,2024/03/14_10:30:28,YZ,None,
,,,,,,test,1,1,1,500,15,X,0,right,0.3808229999995092,1,0,,,,,,,,,,,,,,,,,,,,,1,,,,,,,,,,,,,,,,,,,,,,,,,,,,,,,,,,,,,,,,,,,,,,89,156184,19,Female,1,2024/03/14_10:30:28,YZ,None,
,,,,,,test,1,1,1,500,16,F,0,right,0.31464972399408,1,0,,,,,,,,,,,,,,,,,,,,,1,,,,,,,,,,,,,,,,,,,,,,,,,,,,,,,,,,,,,,,,,,,,,,89,156184,19,Female,1,2024/03/14_10:30:28,YZ,None,
,,,,,,Test,1,1,1,500,,,,,,,,1.0,1.0,0.0,1.0,0.0,1.0,0.38199438518859097,4,0,0,0,0,12,16,4,12,0,,,,1,,,,,,,,,,,,,,,,,,,,,,,,,,,,,,,,,,,,,,,,,,,,,,89,156184,19,Female,1,2024/03/14_10:30:28,YZ,None,
,,,,,240314_110027,TEST,1,1,1,500,,,,,,,,,,,,,,,,,,,,,,,,,,,,1,1,1,1,cue1.png,easy,A,42,1.1810339090006892,0,841.5974843930017,842.8051101780002,,,,,,,,,,,,,,,,,,,,,,,,,,,,,,,,,,,89,156184,19,Female,1,2024/03/14_10:30:28,YZ,None,
,,,,,,test,1,2,3,500,1,Q,0,right,0.37259031500434503,1,0,,,,,,,,,,,,,,,,,,,,,1,,,,,,,,,,,,,,,,,,,,,,,,,,,,,,,,,,,,,,,,,,,,,,89,156184,19,Female,1,2024/03/14_10:30:28,YZ,None,
,,,,,,test,1,2,3,500,2,Q,0,right,0.5317538020026404,1,0,,,,,,,,,,,,,,,,,,,,,1,,,,,,,,,,,,,,,,,,,,,,,,,,,,,,,,,,,,,,,,,,,,,,89,156184,19,Female,1,2024/03/14_10:30:28,YZ,None,
,,,,,,test,1,2,3,500,3,J,0,right,0.39502980100223795,1,0,,,,,,,,,,,,,,,,,,,,,1,,,,,,,,,,,,,,,,,,,,,,,,,,,,,,,,,,,,,,,,,,,,,,89,156184,19,Female,1,2024/03/14_10:30:28,YZ,None,
,,,,,,test,1,2,3,500,4,Q,1,left,0.6567007830017246,1,0,,,,,,,,,,,,,,,,,,,,,1,,,,,,,,,,,,,,,,,,,,,,,,,,,,,,,,,,,,,,,,,,,,,,89,156184,19,Female,1,2024/03/14_10:30:28,YZ,None,
,,,,,,test,1,2,3,500,5,S,0,right,0.38631869199161883,1,0,,,,,,,,,,,,,,,,,,,,,1,,,,,,,,,,,,,,,,,,,,,,,,,,,,,,,,,,,,,,,,,,,,,,89,156184,19,Female,1,2024/03/14_10:30:28,YZ,None,
,,,,,,test,1,2,3,500,6,V,0,right,0.31279169699701015,1,0,,,,,,,,,,,,,,,,,,,,,1,,,,,,,,,,,,,,,,,,,,,,,,,,,,,,,,,,,,,,,,,,,,,,89,156184,19,Female,1,2024/03/14_10:30:28,YZ,None,
,,,,,,test,1,2,3,500,7,Q,1,right,0.38075333899178077,0,0,,,,,,,,,,,,,,,,,,,,,1,,,,,,,,,,,,,,,,,,,,,,,,,,,,,,,,,,,,,,,,,,,,,,89,156184,19,Female,1,2024/03/14_10:30:28,YZ,None,
,,,,,,test,1,2,3,500,8,C,0,left,0.032118613002239726,0,0,,,,,,,,,,,,,,,,,,,,,1,,,,,,,,,,,,,,,,,,,,,,,,,,,,,,,,,,,,,,,,,,,,,,89,156184,19,Female,1,2024/03/14_10:30:28,YZ,None,
,,,,,,test,1,2,3,500,9,J,0,right,0.44257534299686085,1,0,,,,,,,,,,,,,,,,,,,,,1,,,,,,,,,,,,,,,,,,,,,,,,,,,,,,,,,,,,,,,,,,,,,,89,156184,19,Female,1,2024/03/14_10:30:28,YZ,None,
,,,,,,test,1,2,3,500,10,S,0,right,0.5006474839901784,1,0,,,,,,,,,,,,,,,,,,,,,1,,,,,,,,,,,,,,,,,,,,,,,,,,,,,,,,,,,,,,,,,,,,,,89,156184,19,Female,1,2024/03/14_10:30:28,YZ,None,
,,,,,,test,1,2,3,500,11,C,1,right,0.5572584470064612,0,0,,,,,,,,,,,,,,,,,,,,,1,,,,,,,,,,,,,,,,,,,,,,,,,,,,,,,,,,,,,,,,,,,,,,89,156184,19,Female,1,2024/03/14_10:30:28,YZ,None,
,,,,,,test,1,2,3,500,12,J,1,left,0.3230354230036028,1,0,,,,,,,,,,,,,,,,,,,,,1,,,,,,,,,,,,,,,,,,,,,,,,,,,,,,,,,,,,,,,,,,,,,,89,156184,19,Female,1,2024/03/14_10:30:28,YZ,None,
,,,,,,test,1,2,3,500,13,V,0,right,0.4337290760013275,1,0,,,,,,,,,,,,,,,,,,,,,1,,,,,,,,,,,,,,,,,,,,,,,,,,,,,,,,,,,,,,,,,,,,,,89,156184,19,Female,1,2024/03/14_10:30:28,YZ,None,
,,,,,,test,1,2,3,500,14,Q,0,left,0.6029917310079327,0,0,,,,,,,,,,,,,,,,,,,,,1,,,,,,,,,,,,,,,,,,,,,,,,,,,,,,,,,,,,,,,,,,,,,,89,156184,19,Female,1,2024/03/14_10:30:28,YZ,None,
,,,,,,test,1,2,3,500,15,S,0,right,0.3883956399949966,1,0,,,,,,,,,,,,,,,,,,,,,1,,,,,,,,,,,,,,,,,,,,,,,,,,,,,,,,,,,,,,,,,,,,,,89,156184,19,Female,1,2024/03/14_10:30:28,YZ,None,
,,,,,,test,1,2,3,500,16,V,1,left,0.3448803159990348,1,0,,,,,,,,,,,,,,,,,,,,,1,,,,,,,,,,,,,,,,,,,,,,,,,,,,,,,,,,,,,,,,,,,,,,89,156184,19,Female,1,2024/03/14_10:30:28,YZ,None,
,,,,,,Test,1,2,3,500,,,,,,,,0.7818181818181817,0.6,0.18181818181818182,0.8181818181818182,0.0,0.8181818181818181,0.4163481563746245,3,2,0,0,0,9,12,5,11,0,,,,1,,,,,,,,,,,,,,,,,,,,,,,,,,,,,,,,,,,,,,,,,,,,,,89,156184,19,Female,1,2024/03/14_10:30:28,YZ,None,
,,,,,240314_110053,TEST,1,2,3,500,,,,,,,,,,,,,,,,,,,,,,,,,,,,1,2,2,2,cue2.png,hard,A,32,1.3455202030017972,0,866.4387979780004,867.8139514020004,,,,,,,,,,,,,,,,,,,,,,,,,,,,,,,,,,,89,156184,19,Female,1,2024/03/14_10:30:28,YZ,None,
,,,,,,test,1,3,1,500,1,C,0,right,0.8671963200031314,1,0,,,,,,,,,,,,,,,,,,,,,1,,,,,,,,,,,,,,,,,,,,,,,,,,,,,,,,,,,,,,,,,,,,,,89,156184,19,Female,1,2024/03/14_10:30:28,YZ,None,
,,,,,,test,1,3,1,500,2,C,1,left,0.7443828240066068,1,0,,,,,,,,,,,,,,,,,,,,,1,,,,,,,,,,,,,,,,,,,,,,,,,,,,,,,,,,,,,,,,,,,,,,89,156184,19,Female,1,2024/03/14_10:30:28,YZ,None,
,,,,,,test,1,3,1,500,3,J,0,right,0.44413344899658114,1,0,,,,,,,,,,,,,,,,,,,,,1,,,,,,,,,,,,,,,,,,,,,,,,,,,,,,,,,,,,,,,,,,,,,,89,156184,19,Female,1,2024/03/14_10:30:28,YZ,None,
,,,,,,test,1,3,1,500,4,J,1,left,0.4370515920018079,1,0,,,,,,,,,,,,,,,,,,,,,1,,,,,,,,,,,,,,,,,,,,,,,,,,,,,,,,,,,,,,,,,,,,,,89,156184,19,Female,1,2024/03/14_10:30:28,YZ,None,
,,,,,,test,1,3,1,500,5,F,0,right,0.3516467070003273,1,0,,,,,,,,,,,,,,,,,,,,,1,,,,,,,,,,,,,,,,,,,,,,,,,,,,,,,,,,,,,,,,,,,,,,89,156184,19,Female,1,2024/03/14_10:30:28,YZ,None,
,,,,,,test,1,3,1,500,6,F,1,left,0.4006787259859266,1,0,,,,,,,,,,,,,,,,,,,,,1,,,,,,,,,,,,,,,,,,,,,,,,,,,,,,,,,,,,,,,,,,,,,,89,156184,19,Female,1,2024/03/14_10:30:28,YZ,None,
,,,,,,test,1,3,1,500,7,N,0,right,0.3876420140004484,1,0,,,,,,,,,,,,,,,,,,,,,1,,,,,,,,,,,,,,,,,,,,,,,,,,,,,,,,,,,,,,,,,,,,,,89,156184,19,Female,1,2024/03/14_10:30:28,YZ,None,
,,,,,,test,1,3,1,500,8,Q,0,right,0.4236039060051553,1,0,,,,,,,,,,,,,,,,,,,,,1,,,,,,,,,,,,,,,,,,,,,,,,,,,,,,,,,,,,,,,,,,,,,,89,156184,19,Female,1,2024/03/14_10:30:28,YZ,None,
,,,,,,test,1,3,1,500,9,J,0,right,0.31292442700942047,1,0,,,,,,,,,,,,,,,,,,,,,1,,,,,,,,,,,,,,,,,,,,,,,,,,,,,,,,,,,,,,,,,,,,,,89,156184,19,Female,1,2024/03/14_10:30:28,YZ,None,
,,,,,,test,1,3,1,500,10,C,0,right,0.34080654400167987,1,0,,,,,,,,,,,,,,,,,,,,,1,,,,,,,,,,,,,,,,,,,,,,,,,,,,,,,,,,,,,,,,,,,,,,89,156184,19,Female,1,2024/03/14_10:30:28,YZ,None,
,,,,,,test,1,3,1,500,11,X,0,right,0.3175063999951817,1,0,,,,,,,,,,,,,,,,,,,,,1,,,,,,,,,,,,,,,,,,,,,,,,,,,,,,,,,,,,,,,,,,,,,,89,156184,19,Female,1,2024/03/14_10:30:28,YZ,None,
,,,,,,test,1,3,1,500,12,Q,0,right,0.29732887899444904,1,0,,,,,,,,,,,,,,,,,,,,,1,,,,,,,,,,,,,,,,,,,,,,,,,,,,,,,,,,,,,,,,,,,,,,89,156184,19,Female,1,2024/03/14_10:30:28,YZ,None,
,,,,,,test,1,3,1,500,13,X,0,right,0.3685644270008197,1,0,,,,,,,,,,,,,,,,,,,,,1,,,,,,,,,,,,,,,,,,,,,,,,,,,,,,,,,,,,,,,,,,,,,,89,156184,19,Female,1,2024/03/14_10:30:28,YZ,None,
,,,,,,test,1,3,1,500,14,X,1,left,0.3118250740080839,1,0,,,,,,,,,,,,,,,,,,,,,1,,,,,,,,,,,,,,,,,,,,,,,,,,,,,,,,,,,,,,,,,,,,,,89,156184,19,Female,1,2024/03/14_10:30:28,YZ,None,
,,,,,,test,1,3,1,500,15,V,0,right,0.3527924770023674,1,0,,,,,,,,,,,,,,,,,,,,,1,,,,,,,,,,,,,,,,,,,,,,,,,,,,,,,,,,,,,,,,,,,,,,89,156184,19,Female,1,2024/03/14_10:30:28,YZ,None,
,,,,,,test,1,3,1,500,16,C,0,right,0.37519820099987555,1,0,,,,,,,,,,,,,,,,,,,,,1,,,,,,,,,,,,,,,,,,,,,,,,,,,,,,,,,,,,,,,,,,,,,,89,156184,19,Female,1,2024/03/14_10:30:28,YZ,None,
,,,,,,Test,1,3,1,500,,,,,,,,1.0,1.0,0.0,1.0,0.0,1.0,0.4208301229382414,4,0,0,0,0,12,16,4,12,0,,,,1,,,,,,,,,,,,,,,,,,,,,,,,,,,,,,,,,,,,,,,,,,,,,,89,156184,19,Female,1,2024/03/14_10:30:28,YZ,None,
,,,,,240314_110118,TEST,1,3,1,500,,,,,,,,,,,,,,,,,,,,,,,,,,,,1,3,3,3,cue1.png,easy,A,44,0.9783145260007586,0,892.0338505990076,893.0262152509968,,,,,,,,,,,,,,,,,,,,,,,,,,,,,,,,,,,89,156184,19,Female,1,2024/03/14_10:30:28,YZ,None,
,,,,,,test,1,4,3,500,1,S,0,None,nan,0,1,,,,,,,,,,,,,,,,,,,,,1,,,,,,,,,,,,,,,,,,,,,,,,,,,,,,,,,,,,,,,,,,,,,,89,156184,19,Female,1,2024/03/14_10:30:28,YZ,None,
,,,,,,test,1,4,3,500,2,V,0,right,0.37907741699018516,1,0,,,,,,,,,,,,,,,,,,,,,1,,,,,,,,,,,,,,,,,,,,,,,,,,,,,,,,,,,,,,,,,,,,,,89,156184,19,Female,1,2024/03/14_10:30:28,YZ,None,
,,,,,,test,1,4,3,500,3,S,0,right,0.4850468430086039,1,0,,,,,,,,,,,,,,,,,,,,,1,,,,,,,,,,,,,,,,,,,,,,,,,,,,,,,,,,,,,,,,,,,,,,89,156184,19,Female,1,2024/03/14_10:30:28,YZ,None,
,,,,,,test,1,4,3,500,4,J,0,right,0.5252118810021784,1,0,,,,,,,,,,,,,,,,,,,,,1,,,,,,,,,,,,,,,,,,,,,,,,,,,,,,,,,,,,,,,,,,,,,,89,156184,19,Female,1,2024/03/14_10:30:28,YZ,None,
,,,,,,test,1,4,3,500,5,V,1,right,0.44993212800181936,0,0,,,,,,,,,,,,,,,,,,,,,1,,,,,,,,,,,,,,,,,,,,,,,,,,,,,,,,,,,,,,,,,,,,,,89,156184,19,Female,1,2024/03/14_10:30:28,YZ,None,
,,,,,,test,1,4,3,500,6,N,0,left,0.37719592099892907,0,0,,,,,,,,,,,,,,,,,,,,,1,,,,,,,,,,,,,,,,,,,,,,,,,,,,,,,,,,,,,,,,,,,,,,89,156184,19,Female,1,2024/03/14_10:30:28,YZ,None,
,,,,,,test,1,4,3,500,7,F,0,right,0.27890404300705995,1,0,,,,,,,,,,,,,,,,,,,,,1,,,,,,,,,,,,,,,,,,,,,,,,,,,,,,,,,,,,,,,,,,,,,,89,156184,19,Female,1,2024/03/14_10:30:28,YZ,None,
