Instruction,Stimulus,Key,RT,START,END,Phase,Block,TrialN,NbackLevel,ISI,LetterN,Letter,Letter_isSame,Letter_Resp,Letter_RT,Letter_Accuracy,Letter_Timeout,Trial_A_measure,Trial_HR,Trial_FAR,Trial_CDR,Trial_MSR,Trial_ACC,Trial_RT,Trial_HitsCount,Trial_FAsCount,Trial_SameNoRespCount,Trial_DiffNoRespCount,Trial_NoRespCount,Trial_CDsCount,Trial_CorrectRespCount,Trial_SameLetterCount,Trial_DiffLetterCount,Trial_InvalidLetterCount,TrialCountCali,CaliEnd_A_measure,ISI_calibrated,Run,TrialIndex,TrialNumber_total,TrialNumber_valid,CueLearning,TrialDemandLearning,CueMapping,OnlineRating,OnlineRatingRT,OnlineRatingTimeOut,CueSTART,RatingSTART,OfflineRatingTimePoint,OfflineRatingQuesIndex,CueFigure,TrialDemand,OfflineRating,OfflineRatingRT,CueStart,OfflineRatingStart,PhaseType,CueLeft,CueDemandLeft,CueRight,CueDemandRight,Choice,ChoiceDemand,TaskDemand,ChoiceRT,ChoiceTimeOut,ChoiceSTART,CueCheck,CueDemandCheck,CorrectAnswer,Answer,AnswerDemand,AnswerRT,AnswerACC,AnswerTimeOut,CheckSTART,DemandRatingQuesIndex,QuesTLX,DemandLevel,DemandRating,DemandRatingRT,QuesStart,PID,SONA,Age,Gender,Run,TIME,EXPERIMENTER,frameRate,
1,./instructions/inst_begin/Slide2.png,right,67.98865836500772,0.10974209300184157,68.09840045800956,,,,,,,,,,,,,,,,,,,,,,,,,,,,,,,,,1,,,,,,,,,,,,,,,,,,,,,,,,,,,,,,,,,,,,,,,,,,,,,,115,143101,22,Female,1,2024/03/22_11:56:46,YZ,None,
2,./instructions/inst_begin/Slide3.png,right,12.009975995999412,68.12832437400357,80.13830037000298,,,,,,,,,,,,,,,,,,,,,,,,,,,,,,,,,1,,,,,,,,,,,,,,,,,,,,,,,,,,,,,,,,,,,,,,,,,,,,,,115,143101,22,Female,1,2024/03/22_11:56:46,YZ,None,
3,./instructions/inst_begin/Slide4.png,right,15.98619105599937,80.1681612310058,96.15435228700517,,,,,,,,,,,,,,,,,,,,,,,,,,,,,,,,,1,,,,,,,,,,,,,,,,,,,,,,,,,,,,,,,,,,,,,,,,,,,,,,115,143101,22,Female,1,2024/03/22_11:56:46,YZ,None,
1,./instructions/inst_prac_2/Slide6.png,right,33.66178160600248,96.18846616300289,129.85024776900536,,,,,,,,,,,,,,,,,,,,,,,,,,,,,,,,,1,,,,,,,,,,,,,,,,,,,,,,,,,,,,,,,,,,,,,,,,,,,,,,115,143101,22,Female,1,2024/03/22_11:56:46,YZ,None,
2,./instructions/inst_prac_2/Slide7.png,right,12.57841450900014,129.87998817100015,142.4584026800003,,,,,,,,,,,,,,,,,,,,,,,,,,,,,,,,,1,,,,,,,,,,,,,,,,,,,,,,,,,,,,,,,,,,,,,,,,,,,,,,115,143101,22,Female,1,2024/03/22_11:56:46,YZ,None,
3,./instructions/inst_prac_2/Slide8.png,right,25.90660549099266,142.48781549700652,168.39442098799918,,,,,,,,,,,,,,,,,,,,,,,,,,,,,,,,,1,,,,,,,,,,,,,,,,,,,,,,,,,,,,,,,,,,,,,,,,,,,,,,115,143101,22,Female,1,2024/03/22_11:56:46,YZ,None,
4,./instructions/inst_prac_2/Slide9.png,right,14.962780546004069,168.42370521600242,183.3864857620065,,,,,,,,,,,,,,,,,,,,,,,,,,,,,,,,,1,,,,,,,,,,,,,,,,,,,,,,,,,,,,,,,,,,,,,,,,,,,,,,115,143101,22,Female,1,2024/03/22_11:56:46,YZ,None,
5,./instructions/inst_prac_2/Slide10.png,right,15.13008154500858,183.4163250290003,198.54640657400887,,,,,,,,,,,,,,,,,,,,,,,,,,,,,,,,,1,,,,,,,,,,,,,,,,,,,,,,,,,,,,,,,,,,,,,,,,,,,,,,115,143101,22,Female,1,2024/03/22_11:56:46,YZ,None,
6,./instructions/inst_prac_2/Slide11.png,right,6.106656857999042,198.5758559070091,204.68251276500814,,,,,,,,,,,,,,,,,,,,,,,,,,,,,,,,,1,,,,,,,,,,,,,,,,,,,,,,,,,,,,,,,,,,,,,,,,,,,,,,115,143101,22,Female,1,2024/03/22_11:56:46,YZ,None,
7,./instructions/inst_prac_2/Slide12.png,right,25.77857843899983,204.71184578600514,230.49042422500497,,,,,,,,,,,,,,,,,,,,,,,,,,,,,,,,,1,,,,,,,,,,,,,,,,,,,,,,,,,,,,,,,,,,,,,,,,,,,,,,115,143101,22,Female,1,2024/03/22_11:56:46,YZ,None,
8,./instructions/inst_prac_2/Slide13.png,right,2.9462433439912274,230.52010033500846,233.4663436789997,,,,,,,,,,,,,,,,,,,,,,,,,,,,,,,,,1,,,,,,,,,,,,,,,,,,,,,,,,,,,,,,,,,,,,,,,,,,,,,,115,143101,22,Female,1,2024/03/22_11:56:46,YZ,None,
9,./instructions/inst_prac_2/Slide14.png,right,15.7229405479884,233.4952630510088,249.2182035989972,,,,,,,,,,,,,,,,,,,,,,,,,,,,,,,,,1,,,,,,,,,,,,,,,,,,,,,,,,,,,,,,,,,,,,,,,,,,,,,,115,143101,22,Female,1,2024/03/22_11:56:46,YZ,None,
10,./instructions/inst_prac_2/Slide15.png,right,16.650783379009226,249.24774295999669,265.8985263390059,,,,,,,,,,,,,,,,,,,,,,,,,,,,,,,,,1,,,,,,,,,,,,,,,,,,,,,,,,,,,,,,,,,,,,,,,,,,,,,,115,143101,22,Female,1,2024/03/22_11:56:46,YZ,None,
,,,,,,practice,0,12,2,2583,1,C,0,right,2.920707981000305,1,0,,,,,,,,,,,,,,,,,,,,,1,,,,,,,,,,,,,,,,,,,,,,,,,,,,,,,,,,,,,,,,,,,,,,115,143101,22,Female,1,2024/03/22_11:56:46,YZ,None,
,,,,,,practice,0,12,2,2583,2,J,0,right,1.4984598070004722,1,0,,,,,,,,,,,,,,,,,,,,,1,,,,,,,,,,,,,,,,,,,,,,,,,,,,,,,,,,,,,,,,,,,,,,115,143101,22,Female,1,2024/03/22_11:56:46,YZ,None,
,,,,,,practice,0,12,2,2583,3,C,1,left,1.2717898670089198,1,0,,,,,,,,,,,,,,,,,,,,,1,,,,,,,,,,,,,,,,,,,,,,,,,,,,,,,,,,,,,,,,,,,,,,115,143101,22,Female,1,2024/03/22_11:56:46,YZ,None,
,,,,,,practice,0,12,2,2583,4,N,0,right,2.105485870008124,1,0,,,,,,,,,,,,,,,,,,,,,1,,,,,,,,,,,,,,,,,,,,,,,,,,,,,,,,,,,,,,,,,,,,,,115,143101,22,Female,1,2024/03/22_11:56:46,YZ,None,
,,,,,,practice,0,12,2,2583,5,C,1,left,1.8672974579967558,1,0,,,,,,,,,,,,,,,,,,,,,1,,,,,,,,,,,,,,,,,,,,,,,,,,,,,,,,,,,,,,,,,,,,,,115,143101,22,Female,1,2024/03/22_11:56:46,YZ,None,
,,,,,,practice,0,12,2,2583,6,X,0,right,1.3939656379952794,1,0,,,,,,,,,,,,,,,,,,,,,1,,,,,,,,,,,,,,,,,,,,,,,,,,,,,,,,,,,,,,,,,,,,,,115,143101,22,Female,1,2024/03/22_11:56:46,YZ,None,
,,,,,,practice,0,12,2,2583,,,,,,,,1.0,1.0,0.0,1.0,0.0,1.0,1.8429511035016428,2,0,0,0,0,4,6,2,4,0,,,,1,,,,,,,,,,,,,,,,,,,,,,,,,,,,,,,,,,,,,,,,,,,,,,115,143101,22,Female,1,2024/03/22_11:56:46,YZ,None,
1,./instructions/inst_to_cali/Slide20.png,right,10.809086003995617,283.3054084230098,294.1144944270054,,,,,,,,,,,,,,,,,,,,,,,,,,,,,,,,,1,,,,,,,,,,,,,,,,,,,,,,,,,,,,,,,,,,,,,,,,,,,,,,115,143101,22,Female,1,2024/03/22_11:56:46,YZ,None,
1,./instructions/inst_cali/Slide22.png,right,21.91036175399495,294.14806084000156,316.0584225939965,,,,,,,,,,,,,,,,,,,,,,,,,,,,,,,,,1,,,,,,,,,,,,,,,,,,,,,,,,,,,,,,,,,,,,,,,,,,,,,,115,143101,22,Female,1,2024/03/22_11:56:46,YZ,None,
,,,,,,calibration,0,25,2,583,1,N,0,right,0.6582909910066519,1,0,,,,,,,,,,,,,,,,,,,,,1,,,,,,,,,,,,,,,,,,,,,,,,,,,,,,,,,,,,,,,,,,,,,,115,143101,22,Female,1,2024/03/22_11:56:46,YZ,None,
,,,,,,calibration,0,25,2,583,2,X,0,right,0.5524707449949346,1,0,,,,,,,,,,,,,,,,,,,,,1,,,,,,,,,,,,,,,,,,,,,,,,,,,,,,,,,,,,,,,,,,,,,,115,143101,22,Female,1,2024/03/22_11:56:46,YZ,None,
,,,,,,calibration,0,25,2,583,3,S,0,right,0.4752338719990803,1,0,,,,,,,,,,,,,,,,,,,,,1,,,,,,,,,,,,,,,,,,,,,,,,,,,,,,,,,,,,,,,,,,,,,,115,143101,22,Female,1,2024/03/22_11:56:46,YZ,None,
,,,,,,calibration,0,25,2,583,4,V,0,right,0.5820848000003025,1,0,,,,,,,,,,,,,,,,,,,,,1,,,,,,,,,,,,,,,,,,,,,,,,,,,,,,,,,,,,,,,,,,,,,,115,143101,22,Female,1,2024/03/22_11:56:46,YZ,None,
,,,,,,calibration,0,25,2,583,5,C,0,right,0.6570989049942,1,0,,,,,,,,,,,,,,,,,,,,,1,,,,,,,,,,,,,,,,,,,,,,,,,,,,,,,,,,,,,,,,,,,,,,115,143101,22,Female,1,2024/03/22_11:56:46,YZ,None,
,,,,,,calibration,0,25,2,583,6,X,0,left,0.7488839010038646,0,0,,,,,,,,,,,,,,,,,,,,,1,,,,,,,,,,,,,,,,,,,,,,,,,,,,,,,,,,,,,,,,,,,,,,115,143101,22,Female,1,2024/03/22_11:56:46,YZ,None,
,,,,,,calibration,0,25,2,583,7,F,0,right,0.5936802890064428,1,0,,,,,,,,,,,,,,,,,,,,,1,,,,,,,,,,,,,,,,,,,,,,,,,,,,,,,,,,,,,,,,,,,,,,115,143101,22,Female,1,2024/03/22_11:56:46,YZ,None,
,,,,,,calibration,0,25,2,583,8,V,0,left,0.7869267899950501,0,0,,,,,,,,,,,,,,,,,,,,,1,,,,,,,,,,,,,,,,,,,,,,,,,,,,,,,,,,,,,,,,,,,,,,115,143101,22,Female,1,2024/03/22_11:56:46,YZ,None,
,,,,,,calibration,0,25,2,583,9,J,0,right,0.5466332210053224,1,0,,,,,,,,,,,,,,,,,,,,,1,,,,,,,,,,,,,,,,,,,,,,,,,,,,,,,,,,,,,,,,,,,,,,115,143101,22,Female,1,2024/03/22_11:56:46,YZ,None,
,,,,,,calibration,0,25,2,583,10,Q,0,right,0.5979291420080699,1,0,,,,,,,,,,,,,,,,,,,,,1,,,,,,,,,,,,,,,,,,,,,,,,,,,,,,,,,,,,,,,,,,,,,,115,143101,22,Female,1,2024/03/22_11:56:46,YZ,None,
,,,,,,calibration,0,25,2,583,11,J,1,left,0.6411202050076099,1,0,,,,,,,,,,,,,,,,,,,,,1,,,,,,,,,,,,,,,,,,,,,,,,,,,,,,,,,,,,,,,,,,,,,,115,143101,22,Female,1,2024/03/22_11:56:46,YZ,None,
,,,,,,calibration,0,25,2,583,12,Q,1,right,0.4853951309924014,0,0,,,,,,,,,,,,,,,,,,,,,1,,,,,,,,,,,,,,,,,,,,,,,,,,,,,,,,,,,,,,,,,,,,,,115,143101,22,Female,1,2024/03/22_11:56:46,YZ,None,
,,,,,,calibration,0,25,2,583,13,X,0,right,0.6252398350043222,1,0,,,,,,,,,,,,,,,,,,,,,1,,,,,,,,,,,,,,,,,,,,,,,,,,,,,,,,,,,,,,,,,,,,,,115,143101,22,Female,1,2024/03/22_11:56:46,YZ,None,
,,,,,,calibration,0,25,2,583,14,Q,1,left,0.522961013004533,1,0,,,,,,,,,,,,,,,,,,,,,1,,,,,,,,,,,,,,,,,,,,,,,,,,,,,,,,,,,,,,,,,,,,,,115,143101,22,Female,1,2024/03/22_11:56:46,YZ,None,
,,,,,,calibration,0,25,2,583,15,X,1,right,0.602035395000712,0,0,,,,,,,,,,,,,,,,,,,,,1,,,,,,,,,,,,,,,,,,,,,,,,,,,,,,,,,,,,,,,,,,,,,,115,143101,22,Female,1,2024/03/22_11:56:46,YZ,None,
,,,,,,calibration,0,25,2,583,,,,,,,,0.7386363636363636,0.5,0.18181818181818182,0.8181818181818182,0.0,0.8181818181818181,0.6050656156682331,2,2,0,0,0,9,11,4,11,0,,,,1,,,,,,,,,,,,,,,,,,,,,,,,,,,,,,,,,,,,,,,,,,,,,,115,143101,22,Female,1,2024/03/22_11:56:46,YZ,None,
,,,,,,Calibration,0,,2,583,,,,,,,,,,,,,,,,,,,,,,,,,1,,,1,,,,,,,,,,,,,,,,,,,,,,,,,,,,,,,,,,,,,,,,,,,,,,115,143101,22,Female,1,2024/03/22_11:56:46,YZ,None,
,,,,,,calibration,0,23,2,679,1,J,0,right,0.602611441994668,1,0,,,,,,,,,,,,,,,,,,,,,1,,,,,,,,,,,,,,,,,,,,,,,,,,,,,,,,,,,,,,,,,,,,,,115,143101,22,Female,1,2024/03/22_11:56:46,YZ,None,
,,,,,,calibration,0,23,2,679,2,S,0,right,0.48227527699782513,1,0,,,,,,,,,,,,,,,,,,,,,1,,,,,,,,,,,,,,,,,,,,,,,,,,,,,,,,,,,,,,,,,,,,,,115,143101,22,Female,1,2024/03/22_11:56:46,YZ,None,
,,,,,,calibration,0,23,2,679,3,F,0,right,0.48923531199397985,1,0,,,,,,,,,,,,,,,,,,,,,1,,,,,,,,,,,,,,,,,,,,,,,,,,,,,,,,,,,,,,,,,,,,,,115,143101,22,Female,1,2024/03/22_11:56:46,YZ,None,
,,,,,,calibration,0,23,2,679,4,S,1,left,0.5184020360029535,1,0,,,,,,,,,,,,,,,,,,,,,1,,,,,,,,,,,,,,,,,,,,,,,,,,,,,,,,,,,,,,,,,,,,,,115,143101,22,Female,1,2024/03/22_11:56:46,YZ,None,
,,,,,,calibration,0,23,2,679,5,Q,0,right,0.5702441570028896,1,0,,,,,,,,,,,,,,,,,,,,,1,,,,,,,,,,,,,,,,,,,,,,,,,,,,,,,,,,,,,,,,,,,,,,115,143101,22,Female,1,2024/03/22_11:56:46,YZ,None,
,,,,,,calibration,0,23,2,679,6,C,0,right,0.5121177839901065,1,0,,,,,,,,,,,,,,,,,,,,,1,,,,,,,,,,,,,,,,,,,,,,,,,,,,,,,,,,,,,,,,,,,,,,115,143101,22,Female,1,2024/03/22_11:56:46,YZ,None,
,,,,,,calibration,0,23,2,679,7,S,0,left,0.6420556030061562,0,0,,,,,,,,,,,,,,,,,,,,,1,,,,,,,,,,,,,,,,,,,,,,,,,,,,,,,,,,,,,,,,,,,,,,115,143101,22,Female,1,2024/03/22_11:56:46,YZ,None,
,,,,,,calibration,0,23,2,679,8,X,0,right,0.42405413498636335,1,0,,,,,,,,,,,,,,,,,,,,,1,,,,,,,,,,,,,,,,,,,,,,,,,,,,,,,,,,,,,,,,,,,,,,115,143101,22,Female,1,2024/03/22_11:56:46,YZ,None,
,,,,,,calibration,0,23,2,679,9,S,1,left,0.44501128800038714,1,0,,,,,,,,,,,,,,,,,,,,,1,,,,,,,,,,,,,,,,,,,,,,,,,,,,,,,,,,,,,,,,,,,,,,115,143101,22,Female,1,2024/03/22_11:56:46,YZ,None,
,,,,,,calibration,0,23,2,679,10,C,0,right,0.6787719840067439,1,0,,,,,,,,,,,,,,,,,,,,,1,,,,,,,,,,,,,,,,,,,,,,,,,,,,,,,,,,,,,,,,,,,,,,115,143101,22,Female,1,2024/03/22_11:56:46,YZ,None,
,,,,,,calibration,0,23,2,679,11,N,0,right,0.531071489007445,1,0,,,,,,,,,,,,,,,,,,,,,1,,,,,,,,,,,,,,,,,,,,,,,,,,,,,,,,,,,,,,,,,,,,,,115,143101,22,Female,1,2024/03/22_11:56:46,YZ,None,
,,,,,,calibration,0,23,2,679,12,C,1,left,0.6313785449892748,1,0,,,,,,,,,,,,,,,,,,,,,1,,,,,,,,,,,,,,,,,,,,,,,,,,,,,,,,,,,,,,,,,,,,,,115,143101,22,Female,1,2024/03/22_11:56:46,YZ,None,
,,,,,,calibration,0,23,2,679,13,S,0,right,0.8977601739898091,1,0,,,,,,,,,,,,,,,,,,,,,1,,,,,,,,,,,,,,,,,,,,,,,,,,,,,,,,,,,,,,,,,,,,,,115,143101,22,Female,1,2024/03/22_11:56:46,YZ,None,
,,,,,,calibration,0,23,2,679,14,C,1,left,0.542480970005272,1,0,,,,,,,,,,,,,,,,,,,,,1,,,,,,,,,,,,,,,,,,,,,,,,,,,,,,,,,,,,,,,,,,,,,,115,143101,22,Female,1,2024/03/22_11:56:46,YZ,None,
,,,,,,calibration,0,23,2,679,,,,,,,,0.975,1.0,0.1,0.9,0.0,0.9,0.5691050139981338,4,1,0,0,0,9,13,4,10,0,,,,1,,,,,,,,,,,,,,,,,,,,,,,,,,,,,,,,,,,,,,,,,,,,,,115,143101,22,Female,1,2024/03/22_11:56:46,YZ,None,
,,,,,,Calibration,0,,2,679,,,,,,,,,,,,,,,,,,,,,,,,,2,,,1,,,,,,,,,,,,,,,,,,,,,,,,,,,,,,,,,,,,,,,,,,,,,,115,143101,22,Female,1,2024/03/22_11:56:46,YZ,None,
,,,,,,calibration,0,26,2,583,1,C,0,right,0.6809978600067552,1,0,,,,,,,,,,,,,,,,,,,,,1,,,,,,,,,,,,,,,,,,,,,,,,,,,,,,,,,,,,,,,,,,,,,,115,143101,22,Female,1,2024/03/22_11:56:46,YZ,None,
,,,,,,calibration,0,26,2,583,2,J,0,right,0.413594355006353,1,0,,,,,,,,,,,,,,,,,,,,,1,,,,,,,,,,,,,,,,,,,,,,,,,,,,,,,,,,,,,,,,,,,,,,115,143101,22,Female,1,2024/03/22_11:56:46,YZ,None,
,,,,,,calibration,0,26,2,583,3,Q,0,right,0.5306240700010676,1,0,,,,,,,,,,,,,,,,,,,,,1,,,,,,,,,,,,,,,,,,,,,,,,,,,,,,,,,,,,,,,,,,,,,,115,143101,22,Female,1,2024/03/22_11:56:46,YZ,None,
,,,,,,calibration,0,26,2,583,4,V,0,right,0.39563371299300343,1,0,,,,,,,,,,,,,,,,,,,,,1,,,,,,,,,,,,,,,,,,,,,,,,,,,,,,,,,,,,,,,,,,,,,,115,143101,22,Female,1,2024/03/22_11:56:46,YZ,None,
,,,,,,calibration,0,26,2,583,5,N,0,right,0.4206112480023876,1,0,,,,,,,,,,,,,,,,,,,,,1,,,,,,,,,,,,,,,,,,,,,,,,,,,,,,,,,,,,,,,,,,,,,,115,143101,22,Female,1,2024/03/22_11:56:46,YZ,None,
,,,,,,calibration,0,26,2,583,6,V,1,left,0.5498474189953413,1,0,,,,,,,,,,,,,,,,,,,,,1,,,,,,,,,,,,,,,,,,,,,,,,,,,,,,,,,,,,,,,,,,,,,,115,143101,22,Female,1,2024/03/22_11:56:46,YZ,None,
,,,,,,calibration,0,26,2,583,7,N,1,right,0.41978776500036474,0,0,,,,,,,,,,,,,,,,,,,,,1,,,,,,,,,,,,,,,,,,,,,,,,,,,,,,,,,,,,,,,,,,,,,,115,143101,22,Female,1,2024/03/22_11:56:46,YZ,None,
,,,,,,calibration,0,26,2,583,8,J,0,right,0.48871766599768307,1,0,,,,,,,,,,,,,,,,,,,,,1,,,,,,,,,,,,,,,,,,,,,,,,,,,,,,,,,,,,,,,,,,,,,,115,143101,22,Female,1,2024/03/22_11:56:46,YZ,None,
,,,,,,calibration,0,26,2,583,9,N,1,left,0.7136475930019515,1,0,,,,,,,,,,,,,,,,,,,,,1,,,,,,,,,,,,,,,,,,,,,,,,,,,,,,,,,,,,,,,,,,,,,,115,143101,22,Female,1,2024/03/22_11:56:46,YZ,None,
,,,,,,calibration,0,26,2,583,10,C,0,right,0.49931053699401673,1,0,,,,,,,,,,,,,,,,,,,,,1,,,,,,,,,,,,,,,,,,,,,,,,,,,,,,,,,,,,,,,,,,,,,,115,143101,22,Female,1,2024/03/22_11:56:46,YZ,None,
,,,,,,calibration,0,26,2,583,11,J,0,left,0.6656345549999969,0,0,,,,,,,,,,,,,,,,,,,,,1,,,,,,,,,,,,,,,,,,,,,,,,,,,,,,,,,,,,,,,,,,,,,,115,143101,22,Female,1,2024/03/22_11:56:46,YZ,None,
,,,,,,calibration,0,26,2,583,12,X,0,right,0.5756754799949704,1,0,,,,,,,,,,,,,,,,,,,,,1,,,,,,,,,,,,,,,,,,,,,,,,,,,,,,,,,,,,,,,,,,,,,,115,143101,22,Female,1,2024/03/22_11:56:46,YZ,None,
,,,,,,calibration,0,26,2,583,13,Q,0,right,1.0007047440012684,1,0,,,,,,,,,,,,,,,,,,,,,1,,,,,,,,,,,,,,,,,,,,,,,,,,,,,,,,,,,,,,,,,,,,,,115,143101,22,Female,1,2024/03/22_11:56:46,YZ,None,
,,,,,,calibration,0,26,2,583,14,X,1,right,0.4231477200082736,0,0,,,,,,,,,,,,,,,,,,,,,1,,,,,,,,,,,,,,,,,,,,,,,,,,,,,,,,,,,,,,,,,,,,,,115,143101,22,Female,1,2024/03/22_11:56:46,YZ,None,
,,,,,,calibration,0,26,2,583,15,J,0,right,0.6328143860009732,1,0,,,,,,,,,,,,,,,,,,,,,1,,,,,,,,,,,,,,,,,,,,,,,,,,,,,,,,,,,,,,,,,,,,,,115,143101,22,Female,1,2024/03/22_11:56:46,YZ,None,
,,,,,,calibration,0,26,2,583,,,,,,,,0.8068181818181819,0.5,0.09090909090909091,0.9090909090909091,0.0,0.9090909090909091,0.5607166074002937,2,1,0,0,0,10,12,4,11,0,,,,1,,,,,,,,,,,,,,,,,,,,,,,,,,,,,,,,,,,,,,,,,,,,,,115,143101,22,Female,1,2024/03/22_11:56:46,YZ,None,
,,,,,,Calibration,0,,2,583,,,,,,,,,,,,,,,,,,,,,,,,,3,,,1,,,,,,,,,,,,,,,,,,,,,,,,,,,,,,,,,,,,,,,,,,,,,,115,143101,22,Female,1,2024/03/22_11:56:46,YZ,None,
,,,,,,calibration,0,14,2,583,1,X,0,right,0.41316735300642904,1,0,,,,,,,,,,,,,,,,,,,,,1,,,,,,,,,,,,,,,,,,,,,,,,,,,,,,,,,,,,,,,,,,,,,,115,143101,22,Female,1,2024/03/22_11:56:46,YZ,None,
,,,,,,calibration,0,14,2,583,2,Q,0,right,0.38515662000281736,1,0,,,,,,,,,,,,,,,,,,,,,1,,,,,,,,,,,,,,,,,,,,,,,,,,,,,,,,,,,,,,,,,,,,,,115,143101,22,Female,1,2024/03/22_11:56:46,YZ,None,
,,,,,,calibration,0,14,2,583,3,S,0,right,0.5627539989945944,1,0,,,,,,,,,,,,,,,,,,,,,1,,,,,,,,,,,,,,,,,,,,,,,,,,,,,,,,,,,,,,,,,,,,,,115,143101,22,Female,1,2024/03/22_11:56:46,YZ,None,
,,,,,,calibration,0,14,2,583,4,Q,1,left,0.46817338399705477,1,0,,,,,,,,,,,,,,,,,,,,,1,,,,,,,,,,,,,,,,,,,,,,,,,,,,,,,,,,,,,,,,,,,,,,115,143101,22,Female,1,2024/03/22_11:56:46,YZ,None,
,,,,,,calibration,0,14,2,583,5,V,0,right,0.4561552420054795,1,0,,,,,,,,,,,,,,,,,,,,,1,,,,,,,,,,,,,,,,,,,,,,,,,,,,,,,,,,,,,,,,,,,,,,115,143101,22,Female,1,2024/03/22_11:56:46,YZ,None,
,,,,,,calibration,0,14,2,583,6,Q,1,left,1.1438059939973755,1,0,,,,,,,,,,,,,,,,,,,,,1,,,,,,,,,,,,,,,,,,,,,,,,,,,,,,,,,,,,,,,,,,,,,,115,143101,22,Female,1,2024/03/22_11:56:46,YZ,None,
,,,,,,calibration,0,14,2,583,7,C,0,right,0.4789344269956928,1,0,,,,,,,,,,,,,,,,,,,,,1,,,,,,,,,,,,,,,,,,,,,,,,,,,,,,,,,,,,,,,,,,,,,,115,143101,22,Female,1,2024/03/22_11:56:46,YZ,None,
,,,,,,calibration,0,14,2,583,8,Q,1,left,0.5706299150042469,1,0,,,,,,,,,,,,,,,,,,,,,1,,,,,,,,,,,,,,,,,,,,,,,,,,,,,,,,,,,,,,,,,,,,,,115,143101,22,Female,1,2024/03/22_11:56:46,YZ,None,
,,,,,,calibration,0,14,2,583,9,V,0,left,nan,0,1,,,,,,,,,,,,,,,,,,,,,1,,,,,,,,,,,,,,,,,,,,,,,,,,,,,,,,,,,,,,,,,,,,,,115,143101,22,Female,1,2024/03/22_11:56:46,YZ,None,
,,,,,,calibration,0,14,2,583,10,Q,1,right,0.2688973289914429,0,0,,,,,,,,,,,,,,,,,,,,,1,,,,,,,,,,,,,,,,,,,,,,,,,,,,,,,,,,,,,,,,,,,,,,115,143101,22,Female,1,2024/03/22_11:56:46,YZ,None,
,,,,,,calibration,0,14,2,583,11,V,1,right,0.6108548420015723,0,0,,,,,,,,,,,,,,,,,,,,,1,,,,,,,,,,,,,,,,,,,,,,,,,,,,,,,,,,,,,,,,,,,,,,115,143101,22,Female,1,2024/03/22_11:56:46,YZ,None,
,,,,,,calibration,0,14,2,583,12,S,0,right,0.6060783150023781,1,0,,,,,,,,,,,,,,,,,,,,,1,,,,,,,,,,,,,,,,,,,,,,,,,,,,,,,,,,,,,,,,,,,,,,115,143101,22,Female,1,2024/03/22_11:56:46,YZ,None,
,,,,,,calibration,0,14,2,583,13,Q,0,right,0.7082360589993186,1,0,,,,,,,,,,,,,,,,,,,,,1,,,,,,,,,,,,,,,,,,,,,,,,,,,,,,,,,,,,,,,,,,,,,,115,143101,22,Female,1,2024/03/22_11:56:46,YZ,None,
,,,,,,calibration,0,14,2,583,14,J,0,right,0.5124455570039572,1,0,,,,,,,,,,,,,,,,,,,,,1,,,,,,,,,,,,,,,,,,,,,,,,,,,,,,,,,,,,,,,,,,,,,,115,143101,22,Female,1,2024/03/22_11:56:46,YZ,None,
,,,,,,calibration,0,14,2,583,15,V,0,right,0.5642590700008441,1,0,,,,,,,,,,,,,,,,,,,,,1,,,,,,,,,,,,,,,,,,,,,,,,,,,,,,,,,,,,,,,,,,,,,,115,143101,22,Female,1,2024/03/22_11:56:46,YZ,None,
,,,,,,calibration,0,14,2,583,,,,,,,,0.9,0.6,0.0,1.0,0.06666666666666667,0.9333333333333333,0.5535391504288002,3,0,0,1,1,9,12,5,10,0,,,,1,,,,,,,,,,,,,,,,,,,,,,,,,,,,,,,,,,,,,,,,,,,,,,115,143101,22,Female,1,2024/03/22_11:56:46,YZ,None,
,,,,,,Calibration,0,,2,583,,,,,,,,,,,,,,,,,,,,,,,,,4,,,1,,,,,,,,,,,,,,,,,,,,,,,,,,,,,,,,,,,,,,,,,,,,,,115,143101,22,Female,1,2024/03/22_11:56:46,YZ,None,
,,,,,,calibration,0,36,2,500,1,N,0,right,0.38824984499660786,1,0,,,,,,,,,,,,,,,,,,,,,1,,,,,,,,,,,,,,,,,,,,,,,,,,,,,,,,,,,,,,,,,,,,,,115,143101,22,Female,1,2024/03/22_11:56:46,YZ,None,
,,,,,,calibration,0,36,2,500,2,V,0,right,0.43304728699149564,1,0,,,,,,,,,,,,,,,,,,,,,1,,,,,,,,,,,,,,,,,,,,,,,,,,,,,,,,,,,,,,,,,,,,,,115,143101,22,Female,1,2024/03/22_11:56:46,YZ,None,
,,,,,,calibration,0,36,2,500,3,N,1,left,0.5239335170044797,1,0,,,,,,,,,,,,,,,,,,,,,1,,,,,,,,,,,,,,,,,,,,,,,,,,,,,,,,,,,,,,,,,,,,,,115,143101,22,Female,1,2024/03/22_11:56:46,YZ,None,
,,,,,,calibration,0,36,2,500,4,F,0,right,0.46991226899262983,1,0,,,,,,,,,,,,,,,,,,,,,1,,,,,,,,,,,,,,,,,,,,,,,,,,,,,,,,,,,,,,,,,,,,,,115,143101,22,Female,1,2024/03/22_11:56:46,YZ,None,
,,,,,,calibration,0,36,2,500,5,J,0,right,0.5246340159937972,1,0,,,,,,,,,,,,,,,,,,,,,1,,,,,,,,,,,,,,,,,,,,,,,,,,,,,,,,,,,,,,,,,,,,,,115,143101,22,Female,1,2024/03/22_11:56:46,YZ,None,
,,,,,,calibration,0,36,2,500,6,F,1,left,0.7470110779977404,1,0,,,,,,,,,,,,,,,,,,,,,1,,,,,,,,,,,,,,,,,,,,,,,,,,,,,,,,,,,,,,,,,,,,,,115,143101,22,Female,1,2024/03/22_11:56:46,YZ,None,
,,,,,,calibration,0,36,2,500,7,J,1,left,0.5777086640009657,1,0,,,,,,,,,,,,,,,,,,,,,1,,,,,,,,,,,,,,,,,,,,,,,,,,,,,,,,,,,,,,,,,,,,,,115,143101,22,Female,1,2024/03/22_11:56:46,YZ,None,
,,,,,,calibration,0,36,2,500,8,N,0,right,0.5242446329939412,1,0,,,,,,,,,,,,,,,,,,,,,1,,,,,,,,,,,,,,,,,,,,,,,,,,,,,,,,,,,,,,,,,,,,,,115,143101,22,Female,1,2024/03/22_11:56:46,YZ,None,
,,,,,,calibration,0,36,2,500,9,J,1,left,0.5628806390013779,1,0,,,,,,,,,,,,,,,,,,,,,1,,,,,,,,,,,,,,,,,,,,,,,,,,,,,,,,,,,,,,,,,,,,,,115,143101,22,Female,1,2024/03/22_11:56:46,YZ,None,
,,,,,,calibration,0,36,2,500,10,F,0,right,0.4667520070070168,1,0,,,,,,,,,,,,,,,,,,,,,1,,,,,,,,,,,,,,,,,,,,,,,,,,,,,,,,,,,,,,,,,,,,,,115,143101,22,Female,1,2024/03/22_11:56:46,YZ,None,
,,,,,,calibration,0,36,2,500,11,Q,0,right,0.4727508039941313,1,0,,,,,,,,,,,,,,,,,,,,,1,,,,,,,,,,,,,,,,,,,,,,,,,,,,,,,,,,,,,,,,,,,,,,115,143101,22,Female,1,2024/03/22_11:56:46,YZ,None,
,,,,,,calibration,0,36,2,500,12,X,0,right,0.4892528790078359,1,0,,,,,,,,,,,,,,,,,,,,,1,,,,,,,,,,,,,,,,,,,,,,,,,,,,,,,,,,,,,,,,,,,,,,115,143101,22,Female,1,2024/03/22_11:56:46,YZ,None,
,,,,,,calibration,0,36,2,500,13,J,0,left,0.53627093200339,0,0,,,,,,,,,,,,,,,,,,,,,1,,,,,,,,,,,,,,,,,,,,,,,,,,,,,,,,,,,,,,,,,,,,,,115,143101,22,Female,1,2024/03/22_11:56:46,YZ,None,
,,,,,,calibration,0,36,2,500,14,F,0,right,0.4622713059943635,1,0,,,,,,,,,,,,,,,,,,,,,1,,,,,,,,,,,,,,,,,,,,,,,,,,,,,,,,,,,,,,,,,,,,,,115,143101,22,Female,1,2024/03/22_11:56:46,YZ,None,
,,,,,,calibration,0,36,2,500,15,S,0,right,0.5301489419944119,1,0,,,,,,,,,,,,,,,,,,,,,1,,,,,,,,,,,,,,,,,,,,,,,,,,,,,,,,,,,,,,,,,,,,,,115,143101,22,Female,1,2024/03/22_11:56:46,YZ,None,
,,,,,,calibration,0,36,2,500,16,X,0,right,0.5917859710025368,1,0,,,,,,,,,,,,,,,,,,,,,1,,,,,,,,,,,,,,,,,,,,,,,,,,,,,,,,,,,,,,,,,,,,,,115,143101,22,Female,1,2024/03/22_11:56:46,YZ,None,
,,,,,,calibration,0,36,2,500,,,,,,,,0.9791666666666666,1.0,0.08333333333333333,0.9166666666666666,0.0,0.9166666666666666,0.5188034243110451,4,1,0,0,0,11,15,4,12,0,,,,1,,,,,,,,,,,,,,,,,,,,,,,,,,,,,,,,,,,,,,,,,,,,,,115,143101,22,Female,1,2024/03/22_11:56:46,YZ,None,
,,,,,,Calibration,0,,2,500,,,,,,,,,,,,,,,,,,,,,,,,,5,,,1,,,,,,,,,,,,,,,,,,,,,,,,,,,,,,,,,,,,,,,,,,,,,,115,143101,22,Female,1,2024/03/22_11:56:46,YZ,None,
,,,,,,calibration,0,29,2,426,1,N,0,right,0.3219713300059084,1,0,,,,,,,,,,,,,,,,,,,,,1,,,,,,,,,,,,,,,,,,,,,,,,,,,,,,,,,,,,,,,,,,,,,,115,143101,22,Female,1,2024/03/22_11:56:46,YZ,None,
,,,,,,calibration,0,29,2,426,2,V,0,right,0.425683728986769,1,0,,,,,,,,,,,,,,,,,,,,,1,,,,,,,,,,,,,,,,,,,,,,,,,,,,,,,,,,,,,,,,,,,,,,115,143101,22,Female,1,2024/03/22_11:56:46,YZ,None,
,,,,,,calibration,0,29,2,426,3,F,0,right,0.3843225759919733,1,0,,,,,,,,,,,,,,,,,,,,,1,,,,,,,,,,,,,,,,,,,,,,,,,,,,,,,,,,,,,,,,,,,,,,115,143101,22,Female,1,2024/03/22_11:56:46,YZ,None,
,,,,,,calibration,0,29,2,426,4,J,0,right,0.4691686019941699,1,0,,,,,,,,,,,,,,,,,,,,,1,,,,,,,,,,,,,,,,,,,,,,,,,,,,,,,,,,,,,,,,,,,,,,115,143101,22,Female,1,2024/03/22_11:56:46,YZ,None,
,,,,,,calibration,0,29,2,426,5,V,0,right,nan,0,1,,,,,,,,,,,,,,,,,,,,,1,,,,,,,,,,,,,,,,,,,,,,,,,,,,,,,,,,,,,,,,,,,,,,115,143101,22,Female,1,2024/03/22_11:56:46,YZ,None,
,,,,,,calibration,0,29,2,426,6,F,0,left,0.619609784000204,0,0,,,,,,,,,,,,,,,,,,,,,1,,,,,,,,,,,,,,,,,,,,,,,,,,,,,,,,,,,,,,,,,,,,,,115,143101,22,Female,1,2024/03/22_11:56:46,YZ,None,
,,,,,,calibration,0,29,2,426,7,V,1,right,0.6383667740010424,0,0,,,,,,,,,,,,,,,,,,,,,1,,,,,,,,,,,,,,,,,,,,,,,,,,,,,,,,,,,,,,,,,,,,,,115,143101,22,Female,1,2024/03/22_11:56:46,YZ,None,
,,,,,,calibration,0,29,2,426,8,C,0,right,0.7211702289932873,1,0,,,,,,,,,,,,,,,,,,,,,1,,,,,,,,,,,,,,,,,,,,,,,,,,,,,,,,,,,,,,,,,,,,,,115,143101,22,Female,1,2024/03/22_11:56:46,YZ,None,
,,,,,,calibration,0,29,2,426,9,S,0,right,0.6470442290010396,1,0,,,,,,,,,,,,,,,,,,,,,1,,,,,,,,,,,,,,,,,,,,,,,,,,,,,,,,,,,,,,,,,,,,,,115,143101,22,Female,1,2024/03/22_11:56:46,YZ,None,
,,,,,,calibration,0,29,2,426,10,V,0,right,0.6146972840069793,1,0,,,,,,,,,,,,,,,,,,,,,1,,,,,,,,,,,,,,,,,,,,,,,,,,,,,,,,,,,,,,,,,,,,,,115,143101,22,Female,1,2024/03/22_11:56:46,YZ,None,
,,,,,,calibration,0,29,2,426,11,S,1,right,0.5121300210012123,0,0,,,,,,,,,,,,,,,,,,,,,1,,,,,,,,,,,,,,,,,,,,,,,,,,,,,,,,,,,,,,,,,,,,,,115,143101,22,Female,1,2024/03/22_11:56:46,YZ,None,
,,,,,,calibration,0,29,2,426,12,V,1,right,0.46063029700599145,0,0,,,,,,,,,,,,,,,,,,,,,1,,,,,,,,,,,,,,,,,,,,,,,,,,,,,,,,,,,,,,,,,,,,,,115,143101,22,Female,1,2024/03/22_11:56:46,YZ,None,
,,,,,,calibration,0,29,2,426,13,C,0,right,0.6155583170038881,1,0,,,,,,,,,,,,,,,,,,,,,1,,,,,,,,,,,,,,,,,,,,,,,,,,,,,,,,,,,,,,,,,,,,,,115,143101,22,Female,1,2024/03/22_11:56:46,YZ,None,
,,,,,,calibration,0,29,2,426,14,X,0,right,0.9584122619999107,1,0,,,,,,,,,,,,,,,,,,,,,1,,,,,,,,,,,,,,,,,,,,,,,,,,,,,,,,,,,,,,,,,,,,,,115,143101,22,Female,1,2024/03/22_11:56:46,YZ,None,
,,,,,,calibration,0,29,2,426,15,C,1,right,0.5924688779923599,0,0,,,,,,,,,,,,,,,,,,,,,1,,,,,,,,,,,,,,,,,,,,,,,,,,,,,,,,,,,,,,,,,,,,,,115,143101,22,Female,1,2024/03/22_11:56:46,YZ,None,
,,,,,,calibration,0,29,2,426,16,V,0,left,0.6145436670049094,0,0,,,,,,,,,,,,,,,,,,,,,1,,,,,,,,,,,,,,,,,,,,,,,,,,,,,,,,,,,,,,,,,,,,,,115,143101,22,Female,1,2024/03/22_11:56:46,YZ,None,
,,,,,,calibration,0,29,2,426,17,C,1,left,0.7259170070028631,1,0,,,,,,,,,,,,,,,,,,,,,1,,,,,,,,,,,,,,,,,,,,,,,,,,,,,,,,,,,,,,,,,,,,,,115,143101,22,Female,1,2024/03/22_11:56:46,YZ,None,
,,,,,,calibration,0,29,2,426,,,,,,,,0.55,0.2,0.16666666666666666,0.8181818181818182,0.058823529411764705,0.7745098039215687,0.5826059366245318,1,2,0,1,1,9,10,5,12,0,,,,1,,,,,,,,,,,,,,,,,,,,,,,,,,,,,,,,,,,,,,,,,,,,,,115,143101,22,Female,1,2024/03/22_11:56:46,YZ,None,
,,,,,,Calibration,0,,2,426,,,,,,,,,,,,,,,,,,,,,,,,,6,,,1,,,,,,,,,,,,,,,,,,,,,,,,,,,,,,,,,,,,,,,,,,,,,,115,143101,22,Female,1,2024/03/22_11:56:46,YZ,None,
,,,,,,calibration,0,10,2,500,1,N,0,right,0.3482445379922865,1,0,,,,,,,,,,,,,,,,,,,,,1,,,,,,,,,,,,,,,,,,,,,,,,,,,,,,,,,,,,,,,,,,,,,,115,143101,22,Female,1,2024/03/22_11:56:46,YZ,None,
,,,,,,calibration,0,10,2,500,2,C,0,right,0.45234283700119704,1,0,,,,,,,,,,,,,,,,,,,,,1,,,,,,,,,,,,,,,,,,,,,,,,,,,,,,,,,,,,,,,,,,,,,,115,143101,22,Female,1,2024/03/22_11:56:46,YZ,None,
,,,,,,calibration,0,10,2,500,3,S,0,right,0.4963250290020369,1,0,,,,,,,,,,,,,,,,,,,,,1,,,,,,,,,,,,,,,,,,,,,,,,,,,,,,,,,,,,,,,,,,,,,,115,143101,22,Female,1,2024/03/22_11:56:46,YZ,None,
,,,,,,calibration,0,10,2,500,4,C,1,left,0.5404496919945814,1,0,,,,,,,,,,,,,,,,,,,,,1,,,,,,,,,,,,,,,,,,,,,,,,,,,,,,,,,,,,,,,,,,,,,,115,143101,22,Female,1,2024/03/22_11:56:46,YZ,None,
,,,,,,calibration,0,10,2,500,5,N,0,right,0.7425963440036867,1,0,,,,,,,,,,,,,,,,,,,,,1,,,,,,,,,,,,,,,,,,,,,,,,,,,,,,,,,,,,,,,,,,,,,,115,143101,22,Female,1,2024/03/22_11:56:46,YZ,None,
,,,,,,calibration,0,10,2,500,6,V,0,right,0.697904988002847,1,0,,,,,,,,,,,,,,,,,,,,,1,,,,,,,,,,,,,,,,,,,,,,,,,,,,,,,,,,,,,,,,,,,,,,115,143101,22,Female,1,2024/03/22_11:56:46,YZ,None,
,,,,,,calibration,0,10,2,500,7,Q,0,right,0.5123194330080878,1,0,,,,,,,,,,,,,,,,,,,,,1,,,,,,,,,,,,,,,,,,,,,,,,,,,,,,,,,,,,,,,,,,,,,,115,143101,22,Female,1,2024/03/22_11:56:46,YZ,None,
,,,,,,calibration,0,10,2,500,8,N,0,right,0.4409774529922288,1,0,,,,,,,,,,,,,,,,,,,,,1,,,,,,,,,,,,,,,,,,,,,,,,,,,,,,,,,,,,,,,,,,,,,,115,143101,22,Female,1,2024/03/22_11:56:46,YZ,None,
,,,,,,calibration,0,10,2,500,9,J,0,right,0.6319698980078101,1,0,,,,,,,,,,,,,,,,,,,,,1,,,,,,,,,,,,,,,,,,,,,,,,,,,,,,,,,,,,,,,,,,,,,,115,143101,22,Female,1,2024/03/22_11:56:46,YZ,None,
,,,,,,calibration,0,10,2,500,10,N,1,left,0.5914783769985661,1,0,,,,,,,,,,,,,,,,,,,,,1,,,,,,,,,,,,,,,,,,,,,,,,,,,,,,,,,,,,,,,,,,,,,,115,143101,22,Female,1,2024/03/22_11:56:46,YZ,None,
,,,,,,calibration,0,10,2,500,11,V,0,right,0.3432512819999829,1,0,,,,,,,,,,,,,,,,,,,,,1,,,,,,,,,,,,,,,,,,,,,,,,,,,,,,,,,,,,,,,,,,,,,,115,143101,22,Female,1,2024/03/22_11:56:46,YZ,None,
,,,,,,calibration,0,10,2,500,12,C,0,right,0.49788624499342404,1,0,,,,,,,,,,,,,,,,,,,,,1,,,,,,,,,,,,,,,,,,,,,,,,,,,,,,,,,,,,,,,,,,,,,,115,143101,22,Female,1,2024/03/22_11:56:46,YZ,None,
,,,,,,calibration,0,10,2,500,13,F,0,right,0.48854748099984135,1,0,,,,,,,,,,,,,,,,,,,,,1,,,,,,,,,,,,,,,,,,,,,,,,,,,,,,,,,,,,,,,,,,,,,,115,143101,22,Female,1,2024/03/22_11:56:46,YZ,None,
,,,,,,calibration,0,10,2,500,14,C,1,left,0.5592449690011563,1,0,,,,,,,,,,,,,,,,,,,,,1,,,,,,,,,,,,,,,,,,,,,,,,,,,,,,,,,,,,,,,,,,,,,,115,143101,22,Female,1,2024/03/22_11:56:46,YZ,None,
,,,,,,calibration,0,10,2,500,15,F,1,right,0.3797324189945357,0,0,,,,,,,,,,,,,,,,,,,,,1,,,,,,,,,,,,,,,,,,,,,,,,,,,,,,,,,,,,,,,,,,,,,,115,143101,22,Female,1,2024/03/22_11:56:46,YZ,None,
,,,,,,calibration,0,10,2,500,16,J,0,right,0.5767440299969167,1,0,,,,,,,,,,,,,,,,,,,,,1,,,,,,,,,,,,,,,,,,,,,,,,,,,,,,,,,,,,,,,,,,,,,,115,143101,22,Female,1,2024/03/22_11:56:46,YZ,None,
,,,,,,calibration,0,10,2,500,,,,,,,,0.9375,0.75,0.0,1.0,0.0,1.0,0.5187509384368241,3,0,0,0,0,12,15,4,12,0,,,,1,,,,,,,,,,,,,,,,,,,,,,,,,,,,,,,,,,,,,,,,,,,,,,115,143101,22,Female,1,2024/03/22_11:56:46,YZ,None,
,,,,,,Calibration,0,,2,500,,,,,,,,,,,,,,,,,,,,,,,,,7,,,1,,,,,,,,,,,,,,,,,,,,,,,,,,,,,,,,,,,,,,,,,,,,,,115,143101,22,Female,1,2024/03/22_11:56:46,YZ,None,
,,,,,,calibration,0,14,2,426,1,F,0,right,0.3633650499978103,1,0,,,,,,,,,,,,,,,,,,,,,1,,,,,,,,,,,,,,,,,,,,,,,,,,,,,,,,,,,,,,,,,,,,,,115,143101,22,Female,1,2024/03/22_11:56:46,YZ,None,
,,,,,,calibration,0,14,2,426,2,C,0,right,0.468150329994387,1,0,,,,,,,,,,,,,,,,,,,,,1,,,,,,,,,,,,,,,,,,,,,,,,,,,,,,,,,,,,,,,,,,,,,,115,143101,22,Female,1,2024/03/22_11:56:46,YZ,None,
,,,,,,calibration,0,14,2,426,3,X,0,right,0.42412749299546704,1,0,,,,,,,,,,,,,,,,,,,,,1,,,,,,,,,,,,,,,,,,,,,,,,,,,,,,,,,,,,,,,,,,,,,,115,143101,22,Female,1,2024/03/22_11:56:46,YZ,None,
,,,,,,calibration,0,14,2,426,4,C,1,left,0.5460123499942711,1,0,,,,,,,,,,,,,,,,,,,,,1,,,,,,,,,,,,,,,,,,,,,,,,,,,,,,,,,,,,,,,,,,,,,,115,143101,22,Female,1,2024/03/22_11:56:46,YZ,None,
,,,,,,calibration,0,14,2,426,5,F,0,right,0.6680732379900292,1,0,,,,,,,,,,,,,,,,,,,,,1,,,,,,,,,,,,,,,,,,,,,,,,,,,,,,,,,,,,,,,,,,,,,,115,143101,22,Female,1,2024/03/22_11:56:46,YZ,None,
,,,,,,calibration,0,14,2,426,6,C,1,left,0.5258992080052849,1,0,,,,,,,,,,,,,,,,,,,,,1,,,,,,,,,,,,,,,,,,,,,,,,,,,,,,,,,,,,,,,,,,,,,,115,143101,22,Female,1,2024/03/22_11:56:46,YZ,None,
,,,,,,calibration,0,14,2,426,7,N,0,right,0.6573635329987155,1,0,,,,,,,,,,,,,,,,,,,,,1,,,,,,,,,,,,,,,,,,,,,,,,,,,,,,,,,,,,,,,,,,,,,,115,143101,22,Female,1,2024/03/22_11:56:46,YZ,None,
,,,,,,calibration,0,14,2,426,8,C,1,left,0.5628912660031347,1,0,,,,,,,,,,,,,,,,,,,,,1,,,,,,,,,,,,,,,,,,,,,,,,,,,,,,,,,,,,,,,,,,,,,,115,143101,22,Female,1,2024/03/22_11:56:46,YZ,None,
,,,,,,calibration,0,14,2,426,9,F,0,right,0.5919908289943123,1,0,,,,,,,,,,,,,,,,,,,,,1,,,,,,,,,,,,,,,,,,,,,,,,,,,,,,,,,,,,,,,,,,,,,,115,143101,22,Female,1,2024/03/22_11:56:46,YZ,None,
,,,,,,calibration,0,14,2,426,10,V,0,right,0.42123398900730535,1,0,,,,,,,,,,,,,,,,,,,,,1,,,,,,,,,,,,,,,,,,,,,,,,,,,,,,,,,,,,,,,,,,,,,,115,143101,22,Female,1,2024/03/22_11:56:46,YZ,None,
,,,,,,calibration,0,14,2,426,11,J,0,right,0.34890203399118036,1,0,,,,,,,,,,,,,,,,,,,,,1,,,,,,,,,,,,,,,,,,,,,,,,,,,,,,,,,,,,,,,,,,,,,,115,143101,22,Female,1,2024/03/22_11:56:46,YZ,None,
,,,,,,calibration,0,14,2,426,12,V,1,right,0.4026223489927361,0,0,,,,,,,,,,,,,,,,,,,,,1,,,,,,,,,,,,,,,,,,,,,,,,,,,,,,,,,,,,,,,,,,,,,,115,143101,22,Female,1,2024/03/22_11:56:46,YZ,None,
,,,,,,calibration,0,14,2,426,13,J,1,left,0.5648869469878264,1,0,,,,,,,,,,,,,,,,,,,,,1,,,,,,,,,,,,,,,,,,,,,,,,,,,,,,,,,,,,,,,,,,,,,,115,143101,22,Female,1,2024/03/22_11:56:46,YZ,None,
,,,,,,calibration,0,14,2,426,14,X,0,right,0.5420308799948543,1,0,,,,,,,,,,,,,,,,,,,,,1,,,,,,,,,,,,,,,,,,,,,,,,,,,,,,,,,,,,,,,,,,,,,,115,143101,22,Female,1,2024/03/22_11:56:46,YZ,None,
,,,,,,calibration,0,14,2,426,15,S,0,right,0.5121706739882939,1,0,,,,,,,,,,,,,,,,,,,,,1,,,,,,,,,,,,,,,,,,,,,,,,,,,,,,,,,,,,,,,,,,,,,,115,143101,22,Female,1,2024/03/22_11:56:46,YZ,None,
,,,,,,calibration,0,14,2,426,16,J,0,right,0.8476602739974624,1,0,,,,,,,,,,,,,,,,,,,,,1,,,,,,,,,,,,,,,,,,,,,,,,,,,,,,,,,,,,,,,,,,,,,,115,143101,22,Female,1,2024/03/22_11:56:46,YZ,None,
,,,,,,calibration,0,14,2,426,17,C,0,right,0.6087055600073654,1,0,,,,,,,,,,,,,,,,,,,,,1,,,,,,,,,,,,,,,,,,,,,,,,,,,,,,,,,,,,,,,,,,,,,,115,143101,22,Female,1,2024/03/22_11:56:46,YZ,None,
,,,,,,calibration,0,14,2,426,,,,,,,,0.95,0.8,0.0,1.0,0.0,1.0,0.5327109414082609,4,0,0,0,0,12,16,5,12,0,,,,1,,,,,,,,,,,,,,,,,,,,,,,,,,,,,,,,,,,,,,,,,,,,,,115,143101,22,Female,1,2024/03/22_11:56:46,YZ,None,
,,,,,,Calibration,0,,2,426,,,,,,,,,,,,,,,,,,,,,,,,,8,,,1,,,,,,,,,,,,,,,,,,,,,,,,,,,,,,,,,,,,,,,,,,,,,,115,143101,22,Female,1,2024/03/22_11:56:46,YZ,None,
,,,,,,calibration,0,14,2,361,1,Q,0,right,0.40138814398960676,1,0,,,,,,,,,,,,,,,,,,,,,1,,,,,,,,,,,,,,,,,,,,,,,,,,,,,,,,,,,,,,,,,,,,,,115,143101,22,Female,1,2024/03/22_11:56:46,YZ,None,
,,,,,,calibration,0,14,2,361,2,X,0,right,0.4709076669969363,1,0,,,,,,,,,,,,,,,,,,,,,1,,,,,,,,,,,,,,,,,,,,,,,,,,,,,,,,,,,,,,,,,,,,,,115,143101,22,Female,1,2024/03/22_11:56:46,YZ,None,
,,,,,,calibration,0,14,2,361,3,C,0,right,0.4801939089957159,1,0,,,,,,,,,,,,,,,,,,,,,1,,,,,,,,,,,,,,,,,,,,,,,,,,,,,,,,,,,,,,,,,,,,,,115,143101,22,Female,1,2024/03/22_11:56:46,YZ,None,
,,,,,,calibration,0,14,2,361,4,J,0,right,0.5122421859996393,1,0,,,,,,,,,,,,,,,,,,,,,1,,,,,,,,,,,,,,,,,,,,,,,,,,,,,,,,,,,,,,,,,,,,,,115,143101,22,Female,1,2024/03/22_11:56:46,YZ,None,
,,,,,,calibration,0,14,2,361,5,V,0,right,0.5246628320019227,1,0,,,,,,,,,,,,,,,,,,,,,1,,,,,,,,,,,,,,,,,,,,,,,,,,,,,,,,,,,,,,,,,,,,,,115,143101,22,Female,1,2024/03/22_11:56:46,YZ,None,
,,,,,,calibration,0,14,2,361,6,X,0,right,0.5963344510091702,1,0,,,,,,,,,,,,,,,,,,,,,1,,,,,,,,,,,,,,,,,,,,,,,,,,,,,,,,,,,,,,,,,,,,,,115,143101,22,Female,1,2024/03/22_11:56:46,YZ,None,
,,,,,,calibration,0,14,2,361,7,J,0,left,0.575804068997968,0,0,,,,,,,,,,,,,,,,,,,,,1,,,,,,,,,,,,,,,,,,,,,,,,,,,,,,,,,,,,,,,,,,,,,,115,143101,22,Female,1,2024/03/22_11:56:46,YZ,None,
,,,,,,calibration,0,14,2,361,8,X,1,right,0.3620381759974407,0,0,,,,,,,,,,,,,,,,,,,,,1,,,,,,,,,,,,,,,,,,,,,,,,,,,,,,,,,,,,,,,,,,,,,,115,143101,22,Female,1,2024/03/22_11:56:46,YZ,None,
,,,,,,calibration,0,14,2,361,9,V,0,right,0.5950229809968732,1,0,,,,,,,,,,,,,,,,,,,,,1,,,,,,,,,,,,,,,,,,,,,,,,,,,,,,,,,,,,,,,,,,,,,,115,143101,22,Female,1,2024/03/22_11:56:46,YZ,None,
,,,,,,calibration,0,14,2,361,10,X,1,right,0.2770080600021174,0,0,,,,,,,,,,,,,,,,,,,,,1,,,,,,,,,,,,,,,,,,,,,,,,,,,,,,,,,,,,,,,,,,,,,,115,143101,22,Female,1,2024/03/22_11:56:46,YZ,None,
,,,,,,calibration,0,14,2,361,11,Q,0,right,0.5200171629985562,1,0,,,,,,,,,,,,,,,,,,,,,1,,,,,,,,,,,,,,,,,,,,,,,,,,,,,,,,,,,,,,,,,,,,,,115,143101,22,Female,1,2024/03/22_11:56:46,YZ,None,
,,,,,,calibration,0,14,2,361,12,X,1,right,0.5569579660077579,0,0,,,,,,,,,,,,,,,,,,,,,1,,,,,,,,,,,,,,,,,,,,,,,,,,,,,,,,,,,,,,,,,,,,,,115,143101,22,Female,1,2024/03/22_11:56:46,YZ,None,
,,,,,,calibration,0,14,2,361,13,J,0,right,0.4542230740044033,1,0,,,,,,,,,,,,,,,,,,,,,1,,,,,,,,,,,,,,,,,,,,,,,,,,,,,,,,,,,,,,,,,,,,,,115,143101,22,Female,1,2024/03/22_11:56:46,YZ,None,
,,,,,,calibration,0,14,2,361,14,X,1,left,0.8653705040051136,1,0,,,,,,,,,,,,,,,,,,,,,1,,,,,,,,,,,,,,,,,,,,,,,,,,,,,,,,,,,,,,,,,,,,,,115,143101,22,Female,1,2024/03/22_11:56:46,YZ,None,
,,,,,,calibration,0,14,2,361,15,J,1,left,0.49519479800073896,1,0,,,,,,,,,,,,,,,,,,,,,1,,,,,,,,,,,,,,,,,,,,,,,,,,,,,,,,,,,,,,,,,,,,,,115,143101,22,Female,1,2024/03/22_11:56:46,YZ,None,
,,,,,,calibration,0,14,2,361,16,C,0,right,0.452889922002214,1,0,,,,,,,,,,,,,,,,,,,,,1,,,,,,,,,,,,,,,,,,,,,,,,,,,,,,,,,,,,,,,,,,,,,,115,143101,22,Female,1,2024/03/22_11:56:46,YZ,None,
,,,,,,calibration,0,14,2,361,17,J,1,right,0.41584196100302506,0,0,,,,,,,,,,,,,,,,,,,,,1,,,,,,,,,,,,,,,,,,,,,,,,,,,,,,,,,,,,,,,,,,,,,,115,143101,22,Female,1,2024/03/22_11:56:46,YZ,None,
,,,,,,calibration,0,14,2,361,18,Q,0,right,0.7117438290006248,1,0,,,,,,,,,,,,,,,,,,,,,1,,,,,,,,,,,,,,,,,,,,,,,,,,,,,,,,,,,,,,,,,,,,,,115,143101,22,Female,1,2024/03/22_11:56:46,YZ,None,
,,,,,,calibration,0,14,2,361,,,,,,,,0.75,0.3333333333333333,0.08333333333333333,0.9166666666666666,0.0,0.9166666666666666,0.5148800940005458,2,1,0,0,0,11,13,6,12,0,,,,1,,,,,,,,,,,,,,,,,,,,,,,,,,,,,,,,,,,,,,,,,,,,,,115,143101,22,Female,1,2024/03/22_11:56:46,YZ,None,
,,,,,,Calibration,0,,2,361,,,,,,,,,,,,,,,,,,,,,,,,,9,,,1,,,,,,,,,,,,,,,,,,,,,,,,,,,,,,,,,,,,,,,,,,,,,,115,143101,22,Female,1,2024/03/22_11:56:46,YZ,None,
,,,,,,calibration,0,36,2,361,1,V,0,right,0.3550201140024001,1,0,,,,,,,,,,,,,,,,,,,,,1,,,,,,,,,,,,,,,,,,,,,,,,,,,,,,,,,,,,,,,,,,,,,,115,143101,22,Female,1,2024/03/22_11:56:46,YZ,None,
,,,,,,calibration,0,36,2,361,2,C,0,right,0.5324245820083888,1,0,,,,,,,,,,,,,,,,,,,,,1,,,,,,,,,,,,,,,,,,,,,,,,,,,,,,,,,,,,,,,,,,,,,,115,143101,22,Female,1,2024/03/22_11:56:46,YZ,None,
,,,,,,calibration,0,36,2,361,3,J,0,left,0.8888551709969761,0,0,,,,,,,,,,,,,,,,,,,,,1,,,,,,,,,,,,,,,,,,,,,,,,,,,,,,,,,,,,,,,,,,,,,,115,143101,22,Female,1,2024/03/22_11:56:46,YZ,None,
,,,,,,calibration,0,36,2,361,4,V,0,right,0.0004209620092296973,1,0,,,,,,,,,,,,,,,,,,,,,1,,,,,,,,,,,,,,,,,,,,,,,,,,,,,,,,,,,,,,,,,,,,,,115,143101,22,Female,1,2024/03/22_11:56:46,YZ,None,
,,,,,,calibration,0,36,2,361,5,J,1,right,nan,0,1,,,,,,,,,,,,,,,,,,,,,1,,,,,,,,,,,,,,,,,,,,,,,,,,,,,,,,,,,,,,,,,,,,,,115,143101,22,Female,1,2024/03/22_11:56:46,YZ,None,
,,,,,,calibration,0,36,2,361,6,F,0,right,0.0,1,0,,,,,,,,,,,,,,,,,,,,,1,,,,,,,,,,,,,,,,,,,,,,,,,,,,,,,,,,,,,,,,,,,,,,115,143101,22,Female,1,2024/03/22_11:56:46,YZ,None,
,,,,,,calibration,0,36,2,361,7,J,1,right,0.5392443890013965,0,0,,,,,,,,,,,,,,,,,,,,,1,,,,,,,,,,,,,,,,,,,,,,,,,,,,,,,,,,,,,,,,,,,,,,115,143101,22,Female,1,2024/03/22_11:56:46,YZ,None,
,,,,,,calibration,0,36,2,361,8,Q,0,right,0.2978755640069721,1,0,,,,,,,,,,,,,,,,,,,,,1,,,,,,,,,,,,,,,,,,,,,,,,,,,,,,,,,,,,,,,,,,,,,,115,143101,22,Female,1,2024/03/22_11:56:46,YZ,None,
,,,,,,calibration,0,36,2,361,9,J,1,left,0.5129884750058409,1,0,,,,,,,,,,,,,,,,,,,,,1,,,,,,,,,,,,,,,,,,,,,,,,,,,,,,,,,,,,,,,,,,,,,,115,143101,22,Female,1,2024/03/22_11:56:46,YZ,None,
,,,,,,calibration,0,36,2,361,10,X,0,right,0.4820107109990204,1,0,,,,,,,,,,,,,,,,,,,,,1,,,,,,,,,,,,,,,,,,,,,,,,,,,,,,,,,,,,,,,,,,,,,,115,143101,22,Female,1,2024/03/22_11:56:46,YZ,None,
,,,,,,calibration,0,36,2,361,11,V,0,right,0.42413122300058603,1,0,,,,,,,,,,,,,,,,,,,,,1,,,,,,,,,,,,,,,,,,,,,,,,,,,,,,,,,,,,,,,,,,,,,,115,143101,22,Female,1,2024/03/22_11:56:46,YZ,None,
,,,,,,calibration,0,36,2,361,12,C,0,right,0.545858131008572,1,0,,,,,,,,,,,,,,,,,,,,,1,,,,,,,,,,,,,,,,,,,,,,,,,,,,,,,,,,,,,,,,,,,,,,115,143101,22,Female,1,2024/03/22_11:56:46,YZ,None,
,,,,,,calibration,0,36,2,361,13,F,0,right,0.5828176340000937,1,0,,,,,,,,,,,,,,,,,,,,,1,,,,,,,,,,,,,,,,,,,,,,,,,,,,,,,,,,,,,,,,,,,,,,115,143101,22,Female,1,2024/03/22_11:56:46,YZ,None,
,,,,,,calibration,0,36,2,361,14,J,0,right,0.7353524320060387,1,0,,,,,,,,,,,,,,,,,,,,,1,,,,,,,,,,,,,,,,,,,,,,,,,,,,,,,,,,,,,,,,,,,,,,115,143101,22,Female,1,2024/03/22_11:56:46,YZ,None,
,,,,,,calibration,0,36,2,361,15,F,1,right,0.4593228419980733,0,0,,,,,,,,,,,,,,,,,,,,,1,,,,,,,,,,,,,,,,,,,,,,,,,,,,,,,,,,,,,,,,,,,,,,115,143101,22,Female,1,2024/03/22_11:56:46,YZ,None,
,,,,,,calibration,0,36,2,361,16,J,1,right,0.2929320160037605,0,0,,,,,,,,,,,,,,,,,,,,,1,,,,,,,,,,,,,,,,,,,,,,,,,,,,,,,,,,,,,,,,,,,,,,115,143101,22,Female,1,2024/03/22_11:56:46,YZ,None,
,,,,,,calibration,0,36,2,361,17,Q,0,left,0.4210818049905356,0,0,,,,,,,,,,,,,,,,,,,,,1,,,,,,,,,,,,,,,,,,,,,,,,,,,,,,,,,,,,,,,,,,,,,,115,143101,22,Female,1,2024/03/22_11:56:46,YZ,None,
,,,,,,calibration,0,36,2,361,18,C,0,right,0.36827262199949473,1,0,,,,,,,,,,,,,,,,,,,,,1,,,,,,,,,,,,,,,,,,,,,,,,,,,,,,,,,,,,,,,,,,,,,,115,143101,22,Female,1,2024/03/22_11:56:46,YZ,None,
,,,,,,calibration,0,36,2,361,,,,,,,,0.5692307692307692,0.2,0.15384615384615385,0.8461538461538461,0.05555555555555555,0.7905982905982906,0.4375652160610223,1,2,1,0,1,11,12,5,13,0,,,,1,,,,,,,,,,,,,,,,,,,,,,,,,,,,,,,,,,,,,,,,,,,,,,115,143101,22,Female,1,2024/03/22_11:56:46,YZ,None,
,,,,,,Calibration,0,,2,361,,,,,,,,,,,,,,,,,,,,,,,,,10,,,1,,,,,,,,,,,,,,,,,,,,,,,,,,,,,,,,,,,,,,,,,,,,,,115,143101,22,Female,1,2024/03/22_11:56:46,YZ,None,
,,,,,,calibration,0,20,2,426,1,C,0,right,0.306929083992145,1,0,,,,,,,,,,,,,,,,,,,,,1,,,,,,,,,,,,,,,,,,,,,,,,,,,,,,,,,,,,,,,,,,,,,,115,143101,22,Female,1,2024/03/22_11:56:46,YZ,None,
,,,,,,calibration,0,20,2,426,2,X,0,right,0.46602804100257345,1,0,,,,,,,,,,,,,,,,,,,,,1,,,,,,,,,,,,,,,,,,,,,,,,,,,,,,,,,,,,,,,,,,,,,,115,143101,22,Female,1,2024/03/22_11:56:46,YZ,None,
,,,,,,calibration,0,20,2,426,3,V,0,right,0.400986770997406,1,0,,,,,,,,,,,,,,,,,,,,,1,,,,,,,,,,,,,,,,,,,,,,,,,,,,,,,,,,,,,,,,,,,,,,115,143101,22,Female,1,2024/03/22_11:56:46,YZ,None,
,,,,,,calibration,0,20,2,426,4,X,1,left,0.46056774200405926,1,0,,,,,,,,,,,,,,,,,,,,,1,,,,,,,,,,,,,,,,,,,,,,,,,,,,,,,,,,,,,,,,,,,,,,115,143101,22,Female,1,2024/03/22_11:56:46,YZ,None,
,,,,,,calibration,0,20,2,426,5,F,0,right,0.558734131991514,1,0,,,,,,,,,,,,,,,,,,,,,1,,,,,,,,,,,,,,,,,,,,,,,,,,,,,,,,,,,,,,,,,,,,,,115,143101,22,Female,1,2024/03/22_11:56:46,YZ,None,
,,,,,,calibration,0,20,2,426,6,X,1,left,0.5400667570065707,1,0,,,,,,,,,,,,,,,,,,,,,1,,,,,,,,,,,,,,,,,,,,,,,,,,,,,,,,,,,,,,,,,,,,,,115,143101,22,Female,1,2024/03/22_11:56:46,YZ,None,
,,,,,,calibration,0,20,2,426,7,J,0,right,0.5353305160097079,1,0,,,,,,,,,,,,,,,,,,,,,1,,,,,,,,,,,,,,,,,,,,,,,,,,,,,,,,,,,,,,,,,,,,,,115,143101,22,Female,1,2024/03/22_11:56:46,YZ,None,
,,,,,,calibration,0,20,2,426,8,X,1,right,0.7859496960008983,0,0,,,,,,,,,,,,,,,,,,,,,1,,,,,,,,,,,,,,,,,,,,,,,,,,,,,,,,,,,,,,,,,,,,,,115,143101,22,Female,1,2024/03/22_11:56:46,YZ,None,
,,,,,,calibration,0,20,2,426,9,F,0,right,0.6869728479941841,1,0,,,,,,,,,,,,,,,,,,,,,1,,,,,,,,,,,,,,,,,,,,,,,,,,,,,,,,,,,,,,,,,,,,,,115,143101,22,Female,1,2024/03/22_11:56:46,YZ,None,
,,,,,,calibration,0,20,2,426,10,J,0,left,0.47972728600143455,0,0,,,,,,,,,,,,,,,,,,,,,1,,,,,,,,,,,,,,,,,,,,,,,,,,,,,,,,,,,,,,,,,,,,,,115,143101,22,Female,1,2024/03/22_11:56:46,YZ,None,
,,,,,,calibration,0,20,2,426,11,Q,0,right,0.6843044359993655,1,0,,,,,,,,,,,,,,,,,,,,,1,,,,,,,,,,,,,,,,,,,,,,,,,,,,,,,,,,,,,,,,,,,,,,115,143101,22,Female,1,2024/03/22_11:56:46,YZ,None,
,,,,,,calibration,0,20,2,426,12,X,0,right,0.7420358949893853,1,0,,,,,,,,,,,,,,,,,,,,,1,,,,,,,,,,,,,,,,,,,,,,,,,,,,,,,,,,,,,,,,,,,,,,115,143101,22,Female,1,2024/03/22_11:56:46,YZ,None,
,,,,,,calibration,0,20,2,426,13,Q,1,left,0.4675983269989956,1,0,,,,,,,,,,,,,,,,,,,,,1,,,,,,,,,,,,,,,,,,,,,,,,,,,,,,,,,,,,,,,,,,,,,,115,143101,22,Female,1,2024/03/22_11:56:46,YZ,None,
,,,,,,calibration,0,20,2,426,14,X,1,right,0.5297451369988266,0,0,,,,,,,,,,,,,,,,,,,,,1,,,,,,,,,,,,,,,,,,,,,,,,,,,,,,,,,,,,,,,,,,,,,,115,143101,22,Female,1,2024/03/22_11:56:46,YZ,None,
,,,,,,calibration,0,20,2,426,15,F,0,right,0.5271292510005878,1,0,,,,,,,,,,,,,,,,,,,,,1,,,,,,,,,,,,,,,,,,,,,,,,,,,,,,,,,,,,,,,,,,,,,,115,143101,22,Female,1,2024/03/22_11:56:46,YZ,None,
,,,,,,calibration,0,20,2,426,16,Q,0,right,0.6747445359942503,1,0,,,,,,,,,,,,,,,,,,,,,1,,,,,,,,,,,,,,,,,,,,,,,,,,,,,,,,,,,,,,,,,,,,,,115,143101,22,Female,1,2024/03/22_11:56:46,YZ,None,
,,,,,,calibration,0,20,2,426,17,N,0,right,0.559168451000005,1,0,,,,,,,,,,,,,,,,,,,,,1,,,,,,,,,,,,,,,,,,,,,,,,,,,,,,,,,,,,,,,,,,,,,,115,143101,22,Female,1,2024/03/22_11:56:46,YZ,None,
,,,,,,calibration,0,20,2,426,,,,,,,,0.8458333333333333,0.6,0.08333333333333333,0.9166666666666666,0.0,0.9166666666666666,0.5532952297636418,3,1,0,0,0,11,14,5,12,0,,,,1,,,,,,,,,,,,,,,,,,,,,,,,,,,,,,,,,,,,,,,,,,,,,,115,143101,22,Female,1,2024/03/22_11:56:46,YZ,None,
,,,,,,Calibration,0,,2,426,,,,,,,,,,,,,,,,,,,,,,,,,11,,,1,,,,,,,,,,,,,,,,,,,,,,,,,,,,,,,,,,,,,,,,,,,,,,115,143101,22,Female,1,2024/03/22_11:56:46,YZ,None,
,,,,,,calibration,0,21,2,426,1,F,0,right,0.34060908399987966,1,0,,,,,,,,,,,,,,,,,,,,,1,,,,,,,,,,,,,,,,,,,,,,,,,,,,,,,,,,,,,,,,,,,,,,115,143101,22,Female,1,2024/03/22_11:56:46,YZ,None,
,,,,,,calibration,0,21,2,426,2,S,0,right,0.5785964350070572,1,0,,,,,,,,,,,,,,,,,,,,,1,,,,,,,,,,,,,,,,,,,,,,,,,,,,,,,,,,,,,,,,,,,,,,115,143101,22,Female,1,2024/03/22_11:56:46,YZ,None,
,,,,,,calibration,0,21,2,426,3,F,1,left,0.5201219800073886,1,0,,,,,,,,,,,,,,,,,,,,,1,,,,,,,,,,,,,,,,,,,,,,,,,,,,,,,,,,,,,,,,,,,,,,115,143101,22,Female,1,2024/03/22_11:56:46,YZ,None,
,,,,,,calibration,0,21,2,426,4,S,1,left,0.43777340301312506,1,0,,,,,,,,,,,,,,,,,,,,,1,,,,,,,,,,,,,,,,,,,,,,,,,,,,,,,,,,,,,,,,,,,,,,115,143101,22,Female,1,2024/03/22_11:56:46,YZ,None,
,,,,,,calibration,0,21,2,426,5,X,0,right,0.4632301460078452,1,0,,,,,,,,,,,,,,,,,,,,,1,,,,,,,,,,,,,,,,,,,,,,,,,,,,,,,,,,,,,,,,,,,,,,115,143101,22,Female,1,2024/03/22_11:56:46,YZ,None,
,,,,,,calibration,0,21,2,426,6,F,0,left,0.6912737660022685,0,0,,,,,,,,,,,,,,,,,,,,,1,,,,,,,,,,,,,,,,,,,,,,,,,,,,,,,,,,,,,,,,,,,,,,115,143101,22,Female,1,2024/03/22_11:56:46,YZ,None,
,,,,,,calibration,0,21,2,426,7,X,1,right,0.5849938539904542,0,0,,,,,,,,,,,,,,,,,,,,,1,,,,,,,,,,,,,,,,,,,,,,,,,,,,,,,,,,,,,,,,,,,,,,115,143101,22,Female,1,2024/03/22_11:56:46,YZ,None,
,,,,,,calibration,0,21,2,426,8,J,0,right,0.5251756560028298,1,0,,,,,,,,,,,,,,,,,,,,,1,,,,,,,,,,,,,,,,,,,,,,,,,,,,,,,,,,,,,,,,,,,,,,115,143101,22,Female,1,2024/03/22_11:56:46,YZ,None,
,,,,,,calibration,0,21,2,426,9,S,0,right,0.6925894509913633,1,0,,,,,,,,,,,,,,,,,,,,,1,,,,,,,,,,,,,,,,,,,,,,,,,,,,,,,,,,,,,,,,,,,,,,115,143101,22,Female,1,2024/03/22_11:56:46,YZ,None,
,,,,,,calibration,0,21,2,426,10,X,0,right,0.5746107129962184,1,0,,,,,,,,,,,,,,,,,,,,,1,,,,,,,,,,,,,,,,,,,,,,,,,,,,,,,,,,,,,,,,,,,,,,115,143101,22,Female,1,2024/03/22_11:56:46,YZ,None,
,,,,,,calibration,0,21,2,426,11,S,1,right,0.4596766260074219,0,0,,,,,,,,,,,,,,,,,,,,,1,,,,,,,,,,,,,,,,,,,,,,,,,,,,,,,,,,,,,,,,,,,,,,115,143101,22,Female,1,2024/03/22_11:56:46,YZ,None,
,,,,,,calibration,0,21,2,426,12,X,1,right,0.4205265530035831,0,0,,,,,,,,,,,,,,,,,,,,,1,,,,,,,,,,,,,,,,,,,,,,,,,,,,,,,,,,,,,,,,,,,,,,115,143101,22,Female,1,2024/03/22_11:56:46,YZ,None,
,,,,,,calibration,0,21,2,426,13,C,0,right,0.48095476000162307,1,0,,,,,,,,,,,,,,,,,,,,,1,,,,,,,,,,,,,,,,,,,,,,,,,,,,,,,,,,,,,,,,,,,,,,115,143101,22,Female,1,2024/03/22_11:56:46,YZ,None,
,,,,,,calibration,0,21,2,426,14,S,0,left,0.7089823040005285,0,0,,,,,,,,,,,,,,,,,,,,,1,,,,,,,,,,,,,,,,,,,,,,,,,,,,,,,,,,,,,,,,,,,,,,115,143101,22,Female,1,2024/03/22_11:56:46,YZ,None,
,,,,,,calibration,0,21,2,426,15,Q,0,right,0.44406195799820125,1,0,,,,,,,,,,,,,,,,,,,,,1,,,,,,,,,,,,,,,,,,,,,,,,,,,,,,,,,,,,,,,,,,,,,,115,143101,22,Female,1,2024/03/22_11:56:46,YZ,None,
,,,,,,calibration,0,21,2,426,16,C,0,right,0.4804744139983086,1,0,,,,,,,,,,,,,,,,,,,,,1,,,,,,,,,,,,,,,,,,,,,,,,,,,,,,,,,,,,,,,,,,,,,,115,143101,22,Female,1,2024/03/22_11:56:46,YZ,None,
,,,,,,calibration,0,21,2,426,17,V,0,right,0.5314070759923197,1,0,,,,,,,,,,,,,,,,,,,,,1,,,,,,,,,,,,,,,,,,,,,,,,,,,,,,,,,,,,,,,,,,,,,,115,143101,22,Female,1,2024/03/22_11:56:46,YZ,None,
,,,,,,calibration,0,21,2,426,,,,,,,,0.7041666666666667,0.4,0.16666666666666666,0.8333333333333334,0.0,0.8333333333333334,0.5255916575894363,2,2,0,0,0,10,12,5,12,0,,,,1,,,,,,,,,,,,,,,,,,,,,,,,,,,,,,,,,,,,,,,,,,,,,,115,143101,22,Female,1,2024/03/22_11:56:46,YZ,None,
,,,,,,Calibration,0,,2,426,,,,,,,,,,,,,,,,,,,,,,,,,12,,,1,,,,,,,,,,,,,,,,,,,,,,,,,,,,,,,,,,,,,,,,,,,,,,115,143101,22,Female,1,2024/03/22_11:56:46,YZ,None,
,,,,,,calibration,0,4,2,500,1,Q,0,right,0.30141358100809157,1,0,,,,,,,,,,,,,,,,,,,,,1,,,,,,,,,,,,,,,,,,,,,,,,,,,,,,,,,,,,,,,,,,,,,,115,143101,22,Female,1,2024/03/22_11:56:46,YZ,None,
,,,,,,calibration,0,4,2,500,2,C,0,right,0.42876462200365495,1,0,,,,,,,,,,,,,,,,,,,,,1,,,,,,,,,,,,,,,,,,,,,,,,,,,,,,,,,,,,,,,,,,,,,,115,143101,22,Female,1,2024/03/22_11:56:46,YZ,None,
,,,,,,calibration,0,4,2,500,3,Q,1,right,0.6127701590012293,0,0,,,,,,,,,,,,,,,,,,,,,1,,,,,,,,,,,,,,,,,,,,,,,,,,,,,,,,,,,,,,,,,,,,,,115,143101,22,Female,1,2024/03/22_11:56:46,YZ,None,
,,,,,,calibration,0,4,2,500,4,F,0,right,0.4804291250038659,1,0,,,,,,,,,,,,,,,,,,,,,1,,,,,,,,,,,,,,,,,,,,,,,,,,,,,,,,,,,,,,,,,,,,,,115,143101,22,Female,1,2024/03/22_11:56:46,YZ,None,
,,,,,,calibration,0,4,2,500,5,S,0,right,0.5548872689978452,1,0,,,,,,,,,,,,,,,,,,,,,1,,,,,,,,,,,,,,,,,,,,,,,,,,,,,,,,,,,,,,,,,,,,,,115,143101,22,Female,1,2024/03/22_11:56:46,YZ,None,
,,,,,,calibration,0,4,2,500,6,F,1,left,0.5351816049951594,1,0,,,,,,,,,,,,,,,,,,,,,1,,,,,,,,,,,,,,,,,,,,,,,,,,,,,,,,,,,,,,,,,,,,,,115,143101,22,Female,1,2024/03/22_11:56:46,YZ,None,
,,,,,,calibration,0,4,2,500,7,J,0,right,0.7857094569917535,1,0,,,,,,,,,,,,,,,,,,,,,1,,,,,,,,,,,,,,,,,,,,,,,,,,,,,,,,,,,,,,,,,,,,,,115,143101,22,Female,1,2024/03/22_11:56:46,YZ,None,
,,,,,,calibration,0,4,2,500,8,F,1,left,0.6977080100041348,1,0,,,,,,,,,,,,,,,,,,,,,1,,,,,,,,,,,,,,,,,,,,,,,,,,,,,,,,,,,,,,,,,,,,,,115,143101,22,Female,1,2024/03/22_11:56:46,YZ,None,
,,,,,,calibration,0,4,2,500,9,N,0,right,0.48701287899166346,1,0,,,,,,,,,,,,,,,,,,,,,1,,,,,,,,,,,,,,,,,,,,,,,,,,,,,,,,,,,,,,,,,,,,,,115,143101,22,Female,1,2024/03/22_11:56:46,YZ,None,
,,,,,,calibration,0,4,2,500,10,F,1,left,0.7434879310021643,1,0,,,,,,,,,,,,,,,,,,,,,1,,,,,,,,,,,,,,,,,,,,,,,,,,,,,,,,,,,,,,,,,,,,,,115,143101,22,Female,1,2024/03/22_11:56:46,YZ,None,
,,,,,,calibration,0,4,2,500,11,C,0,right,0.4441446799901314,1,0,,,,,,,,,,,,,,,,,,,,,1,,,,,,,,,,,,,,,,,,,,,,,,,,,,,,,,,,,,,,,,,,,,,,115,143101,22,Female,1,2024/03/22_11:56:46,YZ,None,
,,,,,,calibration,0,4,2,500,12,Q,0,right,0.6323857649986167,1,0,,,,,,,,,,,,,,,,,,,,,1,,,,,,,,,,,,,,,,,,,,,,,,,,,,,,,,,,,,,,,,,,,,,,115,143101,22,Female,1,2024/03/22_11:56:46,YZ,None,
,,,,,,calibration,0,4,2,500,13,C,1,left,0.6067002969939495,1,0,,,,,,,,,,,,,,,,,,,,,1,,,,,,,,,,,,,,,,,,,,,,,,,,,,,,,,,,,,,,,,,,,,,,115,143101,22,Female,1,2024/03/22_11:56:46,YZ,None,
,,,,,,calibration,0,4,2,500,14,V,0,right,0.41241150500718504,1,0,,,,,,,,,,,,,,,,,,,,,1,,,,,,,,,,,,,,,,,,,,,,,,,,,,,,,,,,,,,,,,,,,,,,115,143101,22,Female,1,2024/03/22_11:56:46,YZ,None,
,,,,,,calibration,0,4,2,500,15,X,0,right,0.7596964869881049,1,0,,,,,,,,,,,,,,,,,,,,,1,,,,,,,,,,,,,,,,,,,,,,,,,,,,,,,,,,,,,,,,,,,,,,115,143101,22,Female,1,2024/03/22_11:56:46,YZ,None,
,,,,,,calibration,0,4,2,500,16,C,0,right,0.6188985479966504,1,0,,,,,,,,,,,,,,,,,,,,,1,,,,,,,,,,,,,,,,,,,,,,,,,,,,,,,,,,,,,,,,,,,,,,115,143101,22,Female,1,2024/03/22_11:56:46,YZ,None,
,,,,,,calibration,0,4,2,500,,,,,,,,0.95,0.8,0.0,1.0,0.0,1.0,0.5688501199983875,4,0,0,0,0,11,15,5,11,0,,,,1,,,,,,,,,,,,,,,,,,,,,,,,,,,,,,,,,,,,,,,,,,,,,,115,143101,22,Female,1,2024/03/22_11:56:46,YZ,None,
,,,,,,Calibration,0,,2,500,,,,,,,,,,,,,,,,,,,,,,,,,13,,,1,,,,,,,,,,,,,,,,,,,,,,,,,,,,,,,,,,,,,,,,,,,,,,115,143101,22,Female,1,2024/03/22_11:56:46,YZ,None,
,,,,,,calibration,0,29,2,426,1,N,0,right,0.4935152029938763,1,0,,,,,,,,,,,,,,,,,,,,,1,,,,,,,,,,,,,,,,,,,,,,,,,,,,,,,,,,,,,,,,,,,,,,115,143101,22,Female,1,2024/03/22_11:56:46,YZ,None,
,,,,,,calibration,0,29,2,426,2,V,0,right,0.27403888299886603,1,0,,,,,,,,,,,,,,,,,,,,,1,,,,,,,,,,,,,,,,,,,,,,,,,,,,,,,,,,,,,,,,,,,,,,115,143101,22,Female,1,2024/03/22_11:56:46,YZ,None,
,,,,,,calibration,0,29,2,426,3,F,0,right,0.40176624699961394,1,0,,,,,,,,,,,,,,,,,,,,,1,,,,,,,,,,,,,,,,,,,,,,,,,,,,,,,,,,,,,,,,,,,,,,115,143101,22,Female,1,2024/03/22_11:56:46,YZ,None,
,,,,,,calibration,0,29,2,426,4,J,0,right,0.4481185959884897,1,0,,,,,,,,,,,,,,,,,,,,,1,,,,,,,,,,,,,,,,,,,,,,,,,,,,,,,,,,,,,,,,,,,,,,115,143101,22,Female,1,2024/03/22_11:56:46,YZ,None,
,,,,,,calibration,0,29,2,426,5,V,0,left,0.5992832290066872,0,0,,,,,,,,,,,,,,,,,,,,,1,,,,,,,,,,,,,,,,,,,,,,,,,,,,,,,,,,,,,,,,,,,,,,115,143101,22,Female,1,2024/03/22_11:56:46,YZ,None,
,,,,,,calibration,0,29,2,426,6,F,0,right,0.45423190800647717,1,0,,,,,,,,,,,,,,,,,,,,,1,,,,,,,,,,,,,,,,,,,,,,,,,,,,,,,,,,,,,,,,,,,,,,115,143101,22,Female,1,2024/03/22_11:56:46,YZ,None,
,,,,,,calibration,0,29,2,426,7,V,1,right,0.4802854879962979,0,0,,,,,,,,,,,,,,,,,,,,,1,,,,,,,,,,,,,,,,,,,,,,,,,,,,,,,,,,,,,,,,,,,,,,115,143101,22,Female,1,2024/03/22_11:56:46,YZ,None,
,,,,,,calibration,0,29,2,426,8,C,0,left,0.46088592399610206,0,0,,,,,,,,,,,,,,,,,,,,,1,,,,,,,,,,,,,,,,,,,,,,,,,,,,,,,,,,,,,,,,,,,,,,115,143101,22,Female,1,2024/03/22_11:56:46,YZ,None,
,,,,,,calibration,0,29,2,426,9,S,0,right,0.6296715759963263,1,0,,,,,,,,,,,,,,,,,,,,,1,,,,,,,,,,,,,,,,,,,,,,,,,,,,,,,,,,,,,,,,,,,,,,115,143101,22,Female,1,2024/03/22_11:56:46,YZ,None,
,,,,,,calibration,0,29,2,426,10,V,0,right,0.5583651389897568,1,0,,,,,,,,,,,,,,,,,,,,,1,,,,,,,,,,,,,,,,,,,,,,,,,,,,,,,,,,,,,,,,,,,,,,115,143101,22,Female,1,2024/03/22_11:56:46,YZ,None,
,,,,,,calibration,0,29,2,426,11,S,1,right,0.29092633399704937,0,0,,,,,,,,,,,,,,,,,,,,,1,,,,,,,,,,,,,,,,,,,,,,,,,,,,,,,,,,,,,,,,,,,,,,115,143101,22,Female,1,2024/03/22_11:56:46,YZ,None,
,,,,,,calibration,0,29,2,426,12,V,1,right,0.6085876050055958,0,0,,,,,,,,,,,,,,,,,,,,,1,,,,,,,,,,,,,,,,,,,,,,,,,,,,,,,,,,,,,,,,,,,,,,115,143101,22,Female,1,2024/03/22_11:56:46,YZ,None,
,,,,,,calibration,0,29,2,426,13,C,0,right,0.5975787470088108,1,0,,,,,,,,,,,,,,,,,,,,,1,,,,,,,,,,,,,,,,,,,,,,,,,,,,,,,,,,,,,,,,,,,,,,115,143101,22,Female,1,2024/03/22_11:56:46,YZ,None,
,,,,,,calibration,0,29,2,426,14,X,0,right,0.3084431840106845,1,0,,,,,,,,,,,,,,,,,,,,,1,,,,,,,,,,,,,,,,,,,,,,,,,,,,,,,,,,,,,,,,,,,,,,115,143101,22,Female,1,2024/03/22_11:56:46,YZ,None,
,,,,,,calibration,0,29,2,426,15,C,1,left,0.4415799859998515,1,0,,,,,,,,,,,,,,,,,,,,,1,,,,,,,,,,,,,,,,,,,,,,,,,,,,,,,,,,,,,,,,,,,,,,115,143101,22,Female,1,2024/03/22_11:56:46,YZ,None,
,,,,,,calibration,0,29,2,426,16,V,0,right,0.49046884999552276,1,0,,,,,,,,,,,,,,,,,,,,,1,,,,,,,,,,,,,,,,,,,,,,,,,,,,,,,,,,,,,,,,,,,,,,115,143101,22,Female,1,2024/03/22_11:56:46,YZ,None,
,,,,,,calibration,0,29,2,426,17,C,1,right,0.29735979200631846,0,0,,,,,,,,,,,,,,,,,,,,,1,,,,,,,,,,,,,,,,,,,,,,,,,,,,,,,,,,,,,,,,,,,,,,115,143101,22,Female,1,2024/03/22_11:56:46,YZ,None,
,,,,,,calibration,0,29,2,426,,,,,,,,0.55,0.2,0.16666666666666666,0.8333333333333334,0.0,0.8333333333333334,0.46088862888213683,1,2,0,0,0,10,11,5,12,0,,,,1,,,,,,,,,,,,,,,,,,,,,,,,,,,,,,,,,,,,,,,,,,,,,,115,143101,22,Female,1,2024/03/22_11:56:46,YZ,None,
,,,,,,Calibration,0,,2,426,,,,,,,,,,,,,,,,,,,,,,,,,14,,,1,,,,,,,,,,,,,,,,,,,,,,,,,,,,,,,,,,,,,,,,,,,,,,115,143101,22,Female,1,2024/03/22_11:56:46,YZ,None,
,,,,,,calibration,0,1,2,500,1,X,0,right,0.3762544820056064,1,0,,,,,,,,,,,,,,,,,,,,,1,,,,,,,,,,,,,,,,,,,,,,,,,,,,,,,,,,,,,,,,,,,,,,115,143101,22,Female,1,2024/03/22_11:56:46,YZ,None,
,,,,,,calibration,0,1,2,500,2,X,0,right,0.3811409750051098,1,0,,,,,,,,,,,,,,,,,,,,,1,,,,,,,,,,,,,,,,,,,,,,,,,,,,,,,,,,,,,,,,,,,,,,115,143101,22,Female,1,2024/03/22_11:56:46,YZ,None,
,,,,,,calibration,0,1,2,500,3,J,0,left,0.0,0,0,,,,,,,,,,,,,,,,,,,,,1,,,,,,,,,,,,,,,,,,,,,,,,,,,,,,,,,,,,,,,,,,,,,,115,143101,22,Female,1,2024/03/22_11:56:46,YZ,None,
,,,,,,calibration,0,1,2,500,4,N,0,left,nan,0,1,,,,,,,,,,,,,,,,,,,,,1,,,,,,,,,,,,,,,,,,,,,,,,,,,,,,,,,,,,,,,,,,,,,,115,143101,22,Female,1,2024/03/22_11:56:46,YZ,None,
,,,,,,calibration,0,1,2,500,5,J,1,right,0.5119662400102243,0,0,,,,,,,,,,,,,,,,,,,,,1,,,,,,,,,,,,,,,,,,,,,,,,,,,,,,,,,,,,,,,,,,,,,,115,143101,22,Female,1,2024/03/22_11:56:46,YZ,None,
,,,,,,calibration,0,1,2,500,6,N,1,right,0.35299876499630045,0,0,,,,,,,,,,,,,,,,,,,,,1,,,,,,,,,,,,,,,,,,,,,,,,,,,,,,,,,,,,,,,,,,,,,,115,143101,22,Female,1,2024/03/22_11:56:46,YZ,None,
,,,,,,calibration,0,1,2,500,7,C,0,right,0.6520312580105383,1,0,,,,,,,,,,,,,,,,,,,,,1,,,,,,,,,,,,,,,,,,,,,,,,,,,,,,,,,,,,,,,,,,,,,,115,143101,22,Female,1,2024/03/22_11:56:46,YZ,None,
,,,,,,calibration,0,1,2,500,8,J,0,left,0.5648773809953127,0,0,,,,,,,,,,,,,,,,,,,,,1,,,,,,,,,,,,,,,,,,,,,,,,,,,,,,,,,,,,,,,,,,,,,,115,143101,22,Female,1,2024/03/22_11:56:46,YZ,None,
,,,,,,calibration,0,1,2,500,9,N,0,right,0.58077191200573,1,0,,,,,,,,,,,,,,,,,,,,,1,,,,,,,,,,,,,,,,,,,,,,,,,,,,,,,,,,,,,,,,,,,,,,115,143101,22,Female,1,2024/03/22_11:56:46,YZ,None,
,,,,,,calibration,0,1,2,500,10,C,0,right,0.6756711570051266,1,0,,,,,,,,,,,,,,,,,,,,,1,,,,,,,,,,,,,,,,,,,,,,,,,,,,,,,,,,,,,,,,,,,,,,115,143101,22,Female,1,2024/03/22_11:56:46,YZ,None,
,,,,,,calibration,0,1,2,500,11,Q,0,right,0.5594655129971216,1,0,,,,,,,,,,,,,,,,,,,,,1,,,,,,,,,,,,,,,,,,,,,,,,,,,,,,,,,,,,,,,,,,,,,,115,143101,22,Female,1,2024/03/22_11:56:46,YZ,None,
,,,,,,calibration,0,1,2,500,12,J,0,left,0.5648916700010886,0,0,,,,,,,,,,,,,,,,,,,,,1,,,,,,,,,,,,,,,,,,,,,,,,,,,,,,,,,,,,,,,,,,,,,,115,143101,22,Female,1,2024/03/22_11:56:46,YZ,None,
,,,,,,calibration,0,1,2,500,13,S,0,right,0.5859378510067472,1,0,,,,,,,,,,,,,,,,,,,,,1,,,,,,,,,,,,,,,,,,,,,,,,,,,,,,,,,,,,,,,,,,,,,,115,143101,22,Female,1,2024/03/22_11:56:46,YZ,None,
,,,,,,calibration,0,1,2,500,14,J,1,left,0.6390154659893597,1,0,,,,,,,,,,,,,,,,,,,,,1,,,,,,,,,,,,,,,,,,,,,,,,,,,,,,,,,,,,,,,,,,,,,,115,143101,22,Female,1,2024/03/22_11:56:46,YZ,None,
,,,,,,calibration,0,1,2,500,15,Q,0,right,0.5245062969916034,1,0,,,,,,,,,,,,,,,,,,,,,1,,,,,,,,,,,,,,,,,,,,,,,,,,,,,,,,,,,,,,,,,,,,,,115,143101,22,Female,1,2024/03/22_11:56:46,YZ,None,
,,,,,,calibration,0,1,2,500,16,J,1,right,0.5582472960086307,0,0,,,,,,,,,,,,,,,,,,,,,1,,,,,,,,,,,,,,,,,,,,,,,,,,,,,,,,,,,,,,,,,,,,,,115,143101,22,Female,1,2024/03/22_11:56:46,YZ,None,
,,,,,,calibration,0,1,2,500,,,,,,,,0.5,0.25,0.25,0.7272727272727273,0.0625,0.6875,0.5018517508685666,1,3,0,1,1,8,9,4,12,0,,,,1,,,,,,,,,,,,,,,,,,,,,,,,,,,,,,,,,,,,,,,,,,,,,,115,143101,22,Female,1,2024/03/22_11:56:46,YZ,None,
,,,,,,Calibration,0,,2,500,,,,,,,,,,,,,,,,,,,,,,,,,15,,,1,,,,,,,,,,,,,,,,,,,,,,,,,,,,,,,,,,,,,,,,,,,,,,115,143101,22,Female,1,2024/03/22_11:56:46,YZ,None,
,,,,,,calibration,0,32,2,583,1,V,0,right,0.46147636699606664,1,0,,,,,,,,,,,,,,,,,,,,,1,,,,,,,,,,,,,,,,,,,,,,,,,,,,,,,,,,,,,,,,,,,,,,115,143101,22,Female,1,2024/03/22_11:56:46,YZ,None,
,,,,,,calibration,0,32,2,583,2,X,0,right,0.6322276830032934,1,0,,,,,,,,,,,,,,,,,,,,,1,,,,,,,,,,,,,,,,,,,,,,,,,,,,,,,,,,,,,,,,,,,,,,115,143101,22,Female,1,2024/03/22_11:56:46,YZ,None,
,,,,,,calibration,0,32,2,583,3,V,1,left,0.524435048995656,1,0,,,,,,,,,,,,,,,,,,,,,1,,,,,,,,,,,,,,,,,,,,,,,,,,,,,,,,,,,,,,,,,,,,,,115,143101,22,Female,1,2024/03/22_11:56:46,YZ,None,
,,,,,,calibration,0,32,2,583,4,J,0,right,0.44816357700619847,1,0,,,,,,,,,,,,,,,,,,,,,1,,,,,,,,,,,,,,,,,,,,,,,,,,,,,,,,,,,,,,,,,,,,,,115,143101,22,Female,1,2024/03/22_11:56:46,YZ,None,
,,,,,,calibration,0,32,2,583,5,S,0,right,0.5830792089982424,1,0,,,,,,,,,,,,,,,,,,,,,1,,,,,,,,,,,,,,,,,,,,,,,,,,,,,,,,,,,,,,,,,,,,,,115,143101,22,Female,1,2024/03/22_11:56:46,YZ,None,
,,,,,,calibration,0,32,2,583,6,J,1,left,0.469412973994622,1,0,,,,,,,,,,,,,,,,,,,,,1,,,,,,,,,,,,,,,,,,,,,,,,,,,,,,,,,,,,,,,,,,,,,,115,143101,22,Female,1,2024/03/22_11:56:46,YZ,None,
,,,,,,calibration,0,32,2,583,7,F,0,right,0.4849106110050343,1,0,,,,,,,,,,,,,,,,,,,,,1,,,,,,,,,,,,,,,,,,,,,,,,,,,,,,,,,,,,,,,,,,,,,,115,143101,22,Female,1,2024/03/22_11:56:46,YZ,None,
,,,,,,calibration,0,32,2,583,8,S,0,right,0.4957857669942314,1,0,,,,,,,,,,,,,,,,,,,,,1,,,,,,,,,,,,,,,,,,,,,,,,,,,,,,,,,,,,,,,,,,,,,,115,143101,22,Female,1,2024/03/22_11:56:46,YZ,None,
,,,,,,calibration,0,32,2,583,9,Q,0,right,0.7744106949976413,1,0,,,,,,,,,,,,,,,,,,,,,1,,,,,,,,,,,,,,,,,,,,,,,,,,,,,,,,,,,,,,,,,,,,,,115,143101,22,Female,1,2024/03/22_11:56:46,YZ,None,
,,,,,,calibration,0,32,2,583,10,V,0,right,0.5797744000010425,1,0,,,,,,,,,,,,,,,,,,,,,1,,,,,,,,,,,,,,,,,,,,,,,,,,,,,,,,,,,,,,,,,,,,,,115,143101,22,Female,1,2024/03/22_11:56:46,YZ,None,
,,,,,,calibration,0,32,2,583,11,Q,1,left,0.48790214001201093,1,0,,,,,,,,,,,,,,,,,,,,,1,,,,,,,,,,,,,,,,,,,,,,,,,,,,,,,,,,,,,,,,,,,,,,115,143101,22,Female,1,2024/03/22_11:56:46,YZ,None,
,,,,,,calibration,0,32,2,583,12,S,0,right,0.26363835200027097,1,0,,,,,,,,,,,,,,,,,,,,,1,,,,,,,,,,,,,,,,,,,,,,,,,,,,,,,,,,,,,,,,,,,,,,115,143101,22,Female,1,2024/03/22_11:56:46,YZ,None,
,,,,,,calibration,0,32,2,583,13,V,0,right,0.7067371830053162,1,0,,,,,,,,,,,,,,,,,,,,,1,,,,,,,,,,,,,,,,,,,,,,,,,,,,,,,,,,,,,,,,,,,,,,115,143101,22,Female,1,2024/03/22_11:56:46,YZ,None,
,,,,,,calibration,0,32,2,583,14,N,0,right,0.5950118620094145,1,0,,,,,,,,,,,,,,,,,,,,,1,,,,,,,,,,,,,,,,,,,,,,,,,,,,,,,,,,,,,,,,,,,,,,115,143101,22,Female,1,2024/03/22_11:56:46,YZ,None,
,,,,,,calibration,0,32,2,583,15,V,1,right,0.7989200579904718,0,0,,,,,,,,,,,,,,,,,,,,,1,,,,,,,,,,,,,,,,,,,,,,,,,,,,,,,,,,,,,,,,,,,,,,115,143101,22,Female,1,2024/03/22_11:56:46,YZ,None,
,,,,,,calibration,0,32,2,583,,,,,,,,0.9375,0.75,0.0,1.0,0.0,1.0,0.5537257284673008,3,0,0,0,0,11,14,4,11,0,,,,1,,,,,,,,,,,,,,,,,,,,,,,,,,,,,,,,,,,,,,,,,,,,,,115,143101,22,Female,1,2024/03/22_11:56:46,YZ,None,
,,,,,,Calibration,0,,2,583,,,,,,,,,,,,,,,,,,,,,,,,,16,,,1,,,,,,,,,,,,,,,,,,,,,,,,,,,,,,,,,,,,,,,,,,,,,,115,143101,22,Female,1,2024/03/22_11:56:46,YZ,None,
,,,,,,CALIBRATION,0,,,,,,,,,,,,,,,,,,,,,,,,,,,,16,0.9375,583,1,,,,,,,,,,,,,,,,,,,,,,,,,,,,,,,,,,,,,,,,,,,,,,115,143101,22,Female,1,2024/03/22_11:56:46,YZ,None,
1,./instructions/inst_prac_1/Slide24.png,right,11.21537710899429,636.8829418250098,648.098318934004,,,,,,,,,,,,,,,,,,,,,,,,,,,,,,,,,1,,,,,,,,,,,,,,,,,,,,,,,,,,,,,,,,,,,,,,,,,,,,,,115,143101,22,Female,1,2024/03/22_11:56:46,YZ,None,
2,./instructions/inst_prac_1/Slide25.png,right,4.060943827993469,648.1255121590075,652.186455987001,,,,,,,,,,,,,,,,,,,,,,,,,,,,,,,,,1,,,,,,,,,,,,,,,,,,,,,,,,,,,,,,,,,,,,,,,,,,,,,,115,143101,22,Female,1,2024/03/22_11:56:46,YZ,None,
3,./instructions/inst_prac_1/Slide26.png,right,3.5098427519988036,652.2125654620031,655.7224082140019,,,,,,,,,,,,,,,,,,,,,,,,,,,,,,,,,1,,,,,,,,,,,,,,,,,,,,,,,,,,,,,,,,,,,,,,,,,,,,,,115,143101,22,Female,1,2024/03/22_11:56:46,YZ,None,
4,./instructions/inst_prac_1/Slide27.png,right,0.9260855689935852,655.7484665680095,656.674552137003,,,,,,,,,,,,,,,,,,,,,,,,,,,,,,,,,1,,,,,,,,,,,,,,,,,,,,,,,,,,,,,,,,,,,,,,,,,,,,,,115,143101,22,Female,1,2024/03/22_11:56:46,YZ,None,
5,./instructions/inst_prac_1/Slide28.png,right,0.6944892949977657,656.6999734990095,657.3944627940073,,,,,,,,,,,,,,,,,,,,,,,,,,,,,,,,,1,,,,,,,,,,,,,,,,,,,,,,,,,,,,,,,,,,,,,,,,,,,,,,115,143101,22,Female,1,2024/03/22_11:56:46,YZ,None,
6,./instructions/inst_prac_1/Slide29.png,right,4.338456510013202,657.4237358679966,661.7621923780098,,,,,,,,,,,,,,,,,,,,,,,,,,,,,,,,,1,,,,,,,,,,,,,,,,,,,,,,,,,,,,,,,,,,,,,,,,,,,,,,115,143101,22,Female,1,2024/03/22_11:56:46,YZ,None,
7,./instructions/inst_prac_1/Slide30.png,right,1.9230957090039738,661.791289382003,663.714385091007,,,,,,,,,,,,,,,,,,,,,,,,,,,,,,,,,1,,,,,,,,,,,,,,,,,,,,,,,,,,,,,,,,,,,,,,,,,,,,,,115,143101,22,Female,1,2024/03/22_11:56:46,YZ,None,
,,,,,,practice,0,20,1,1250,1,V,0,right,1.1372484599996824,1,0,,,,,,,,,,,,,,,,,,,,,1,,,,,,,,,,,,,,,,,,,,,,,,,,,,,,,,,,,,,,,,,,,,,,115,143101,22,Female,1,2024/03/22_11:56:46,YZ,None,
,,,,,,practice,0,20,1,1250,2,N,0,right,0.8300775679963408,1,0,,,,,,,,,,,,,,,,,,,,,1,,,,,,,,,,,,,,,,,,,,,,,,,,,,,,,,,,,,,,,,,,,,,,115,143101,22,Female,1,2024/03/22_11:56:46,YZ,None,
,,,,,,practice,0,20,1,1250,3,S,0,right,1.251925486008986,1,0,,,,,,,,,,,,,,,,,,,,,1,,,,,,,,,,,,,,,,,,,,,,,,,,,,,,,,,,,,,,,,,,,,,,115,143101,22,Female,1,2024/03/22_11:56:46,YZ,None,
,,,,,,practice,0,20,1,1250,4,V,0,right,1.4051329040084966,1,0,,,,,,,,,,,,,,,,,,,,,1,,,,,,,,,,,,,,,,,,,,,,,,,,,,,,,,,,,,,,,,,,,,,,115,143101,22,Female,1,2024/03/22_11:56:46,YZ,None,
,,,,,,practice,0,20,1,1250,5,V,1,left,0.8957918399974005,1,0,,,,,,,,,,,,,,,,,,,,,1,,,,,,,,,,,,,,,,,,,,,,,,,,,,,,,,,,,,,,,,,,,,,,115,143101,22,Female,1,2024/03/22_11:56:46,YZ,None,
,,,,,,practice,0,20,1,1250,6,S,0,right,0.7721237959922291,1,0,,,,,,,,,,,,,,,,,,,,,1,,,,,,,,,,,,,,,,,,,,,,,,,,,,,,,,,,,,,,,,,,,,,,115,143101,22,Female,1,2024/03/22_11:56:46,YZ,None,
,,,,,,practice,0,20,1,1250,7,S,1,left,0.7346583970065694,1,0,,,,,,,,,,,,,,,,,,,,,1,,,,,,,,,,,,,,,,,,,,,,,,,,,,,,,,,,,,,,,,,,,,,,115,143101,22,Female,1,2024/03/22_11:56:46,YZ,None,
,,,,,,practice,0,20,1,1250,8,V,0,right,0.6857320980052464,1,0,,,,,,,,,,,,,,,,,,,,,1,,,,,,,,,,,,,,,,,,,,,,,,,,,,,,,,,,,,,,,,,,,,,,115,143101,22,Female,1,2024/03/22_11:56:46,YZ,None,
,,,,,,practice,0,20,1,1250,9,X,0,right,0.6471843830076978,1,0,,,,,,,,,,,,,,,,,,,,,1,,,,,,,,,,,,,,,,,,,,,,,,,,,,,,,,,,,,,,,,,,,,,,115,143101,22,Female,1,2024/03/22_11:56:46,YZ,None,
,,,,,,practice,0,20,1,1250,10,X,1,left,0.6769003219960723,1,0,,,,,,,,,,,,,,,,,,,,,1,,,,,,,,,,,,,,,,,,,,,,,,,,,,,,,,,,,,,,,,,,,,,,115,143101,22,Female,1,2024/03/22_11:56:46,YZ,None,
,,,,,,practice,0,20,1,1250,,,,,,,,1.0,1.0,0.0,1.0,0.0,1.0,0.9036775254018721,3,0,0,0,0,7,10,3,7,0,,,,1,,,,,,,,,,,,,,,,,,,,,,,,,,,,,,,,,,,,,,,,,,,,,,115,143101,22,Female,1,2024/03/22_11:56:46,YZ,None,
1,./instructions/inst_prac_1_next/Slide35.png,right,1.5606685859966092,683.2896695030067,684.8503380890033,,,,,,,,,,,,,,,,,,,,,,,,,,,,,,,,,1,,,,,,,,,,,,,,,,,,,,,,,,,,,,,,,,,,,,,,,,,,,,,,115,143101,22,Female,1,2024/03/22_11:56:46,YZ,None,
,,,,,,practice,0,14,1,583,1,J,0,right,0.6682865170005243,1,0,,,,,,,,,,,,,,,,,,,,,1,,,,,,,,,,,,,,,,,,,,,,,,,,,,,,,,,,,,,,,,,,,,,,115,143101,22,Female,1,2024/03/22_11:56:46,YZ,None,
,,,,,,practice,0,14,1,583,2,J,1,left,0.5443779420020292,1,0,,,,,,,,,,,,,,,,,,,,,1,,,,,,,,,,,,,,,,,,,,,,,,,,,,,,,,,,,,,,,,,,,,,,115,143101,22,Female,1,2024/03/22_11:56:46,YZ,None,
,,,,,,practice,0,14,1,583,3,Q,0,right,0.5852625879924744,1,0,,,,,,,,,,,,,,,,,,,,,1,,,,,,,,,,,,,,,,,,,,,,,,,,,,,,,,,,,,,,,,,,,,,,115,143101,22,Female,1,2024/03/22_11:56:46,YZ,None,
,,,,,,practice,0,14,1,583,4,C,0,right,0.5599883039976703,1,0,,,,,,,,,,,,,,,,,,,,,1,,,,,,,,,,,,,,,,,,,,,,,,,,,,,,,,,,,,,,,,,,,,,,115,143101,22,Female,1,2024/03/22_11:56:46,YZ,None,
,,,,,,practice,0,14,1,583,5,Q,0,left,0.6571527719934238,0,0,,,,,,,,,,,,,,,,,,,,,1,,,,,,,,,,,,,,,,,,,,,,,,,,,,,,,,,,,,,,,,,,,,,,115,143101,22,Female,1,2024/03/22_11:56:46,YZ,None,
,,,,,,practice,0,14,1,583,6,X,0,right,0.8006726309977239,1,0,,,,,,,,,,,,,,,,,,,,,1,,,,,,,,,,,,,,,,,,,,,,,,,,,,,,,,,,,,,,,,,,,,,,115,143101,22,Female,1,2024/03/22_11:56:46,YZ,None,
,,,,,,practice,0,14,1,583,7,X,1,left,0.54609160500695,1,0,,,,,,,,,,,,,,,,,,,,,1,,,,,,,,,,,,,,,,,,,,,,,,,,,,,,,,,,,,,,,,,,,,,,115,143101,22,Female,1,2024/03/22_11:56:46,YZ,None,
,,,,,,practice,0,14,1,583,8,C,0,right,0.6701493639993714,1,0,,,,,,,,,,,,,,,,,,,,,1,,,,,,,,,,,,,,,,,,,,,,,,,,,,,,,,,,,,,,,,,,,,,,115,143101,22,Female,1,2024/03/22_11:56:46,YZ,None,
,,,,,,practice,0,14,1,583,9,S,0,right,0.6048327360040275,1,0,,,,,,,,,,,,,,,,,,,,,1,,,,,,,,,,,,,,,,,,,,,,,,,,,,,,,,,,,,,,,,,,,,,,115,143101,22,Female,1,2024/03/22_11:56:46,YZ,None,
,,,,,,practice,0,14,1,583,10,S,1,left,0.5450391359918285,1,0,,,,,,,,,,,,,,,,,,,,,1,,,,,,,,,,,,,,,,,,,,,,,,,,,,,,,,,,,,,,,,,,,,,,115,143101,22,Female,1,2024/03/22_11:56:46,YZ,None,
,,,,,,practice,0,14,1,583,11,J,0,right,0.4762004790100036,1,0,,,,,,,,,,,,,,,,,,,,,1,,,,,,,,,,,,,,,,,,,,,,,,,,,,,,,,,,,,,,,,,,,,,,115,143101,22,Female,1,2024/03/22_11:56:46,YZ,None,
,,,,,,practice,0,14,1,583,12,C,0,right,0.6022035779897124,1,0,,,,,,,,,,,,,,,,,,,,,1,,,,,,,,,,,,,,,,,,,,,,,,,,,,,,,,,,,,,,,,,,,,,,115,143101,22,Female,1,2024/03/22_11:56:46,YZ,None,
,,,,,,practice,0,14,1,583,13,C,1,left,0.6009161520050839,1,0,,,,,,,,,,,,,,,,,,,,,1,,,,,,,,,,,,,,,,,,,,,,,,,,,,,,,,,,,,,,,,,,,,,,115,143101,22,Female,1,2024/03/22_11:56:46,YZ,None,
,,,,,,practice,0,14,1,583,14,X,0,right,0.5328648220020114,1,0,,,,,,,,,,,,,,,,,,,,,1,,,,,,,,,,,,,,,,,,,,,,,,,,,,,,,,,,,,,,,,,,,,,,115,143101,22,Female,1,2024/03/22_11:56:46,YZ,None,
,,,,,,practice,0,14,1,583,15,J,0,right,0.5115440730005503,1,0,,,,,,,,,,,,,,,,,,,,,1,,,,,,,,,,,,,,,,,,,,,,,,,,,,,,,,,,,,,,,,,,,,,,115,143101,22,Female,1,2024/03/22_11:56:46,YZ,None,
,,,,,,practice,0,14,1,583,,,,,,,,0.9772727272727273,1.0,0.09090909090909091,0.9090909090909091,0.0,0.9090909090909091,0.5937055132662257,4,1,0,0,0,10,14,4,11,0,,,,1,,,,,,,,,,,,,,,,,,,,,,,,,,,,,,,,,,,,,,,,,,,,,,115,143101,22,Female,1,2024/03/22_11:56:46,YZ,None,
,,,,,,practice,0,24,1,583,1,C,0,right,0.3725464190065395,1,0,,,,,,,,,,,,,,,,,,,,,1,,,,,,,,,,,,,,,,,,,,,,,,,,,,,,,,,,,,,,,,,,,,,,115,143101,22,Female,1,2024/03/22_11:56:46,YZ,None,
,,,,,,practice,0,24,1,583,2,X,0,right,0.44140613501076587,1,0,,,,,,,,,,,,,,,,,,,,,1,,,,,,,,,,,,,,,,,,,,,,,,,,,,,,,,,,,,,,,,,,,,,,115,143101,22,Female,1,2024/03/22_11:56:46,YZ,None,
,,,,,,practice,0,24,1,583,3,N,0,right,0.5605414830060909,1,0,,,,,,,,,,,,,,,,,,,,,1,,,,,,,,,,,,,,,,,,,,,,,,,,,,,,,,,,,,,,,,,,,,,,115,143101,22,Female,1,2024/03/22_11:56:46,YZ,None,
,,,,,,practice,0,24,1,583,4,N,1,left,0.6526041220058687,1,0,,,,,,,,,,,,,,,,,,,,,1,,,,,,,,,,,,,,,,,,,,,,,,,,,,,,,,,,,,,,,,,,,,,,115,143101,22,Female,1,2024/03/22_11:56:46,YZ,None,
,,,,,,practice,0,24,1,583,5,S,0,right,0.5914792939875042,1,0,,,,,,,,,,,,,,,,,,,,,1,,,,,,,,,,,,,,,,,,,,,,,,,,,,,,,,,,,,,,,,,,,,,,115,143101,22,Female,1,2024/03/22_11:56:46,YZ,None,
,,,,,,practice,0,24,1,583,6,F,0,right,0.5040085289947456,1,0,,,,,,,,,,,,,,,,,,,,,1,,,,,,,,,,,,,,,,,,,,,,,,,,,,,,,,,,,,,,,,,,,,,,115,143101,22,Female,1,2024/03/22_11:56:46,YZ,None,
,,,,,,practice,0,24,1,583,7,Q,0,right,0.5438906199997291,1,0,,,,,,,,,,,,,,,,,,,,,1,,,,,,,,,,,,,,,,,,,,,,,,,,,,,,,,,,,,,,,,,,,,,,115,143101,22,Female,1,2024/03/22_11:56:46,YZ,None,
,,,,,,practice,0,24,1,583,8,F,0,right,0.513053841990768,1,0,,,,,,,,,,,,,,,,,,,,,1,,,,,,,,,,,,,,,,,,,,,,,,,,,,,,,,,,,,,,,,,,,,,,115,143101,22,Female,1,2024/03/22_11:56:46,YZ,None,
,,,,,,practice,0,24,1,583,9,F,1,left,0.4846413350023795,1,0,,,,,,,,,,,,,,,,,,,,,1,,,,,,,,,,,,,,,,,,,,,,,,,,,,,,,,,,,,,,,,,,,,,,115,143101,22,Female,1,2024/03/22_11:56:46,YZ,None,
,,,,,,practice,0,24,1,583,10,X,0,right,0.42359277200012,1,0,,,,,,,,,,,,,,,,,,,,,1,,,,,,,,,,,,,,,,,,,,,,,,,,,,,,,,,,,,,,,,,,,,,,115,143101,22,Female,1,2024/03/22_11:56:46,YZ,None,
,,,,,,practice,0,24,1,583,11,X,1,left,0.4321680919965729,1,0,,,,,,,,,,,,,,,,,,,,,1,,,,,,,,,,,,,,,,,,,,,,,,,,,,,,,,,,,,,,,,,,,,,,115,143101,22,Female,1,2024/03/22_11:56:46,YZ,None,
,,,,,,practice,0,24,1,583,12,Q,0,right,0.44241158598742913,1,0,,,,,,,,,,,,,,,,,,,,,1,,,,,,,,,,,,,,,,,,,,,,,,,,,,,,,,,,,,,,,,,,,,,,115,143101,22,Female,1,2024/03/22_11:56:46,YZ,None,
,,,,,,practice,0,24,1,583,13,Q,1,left,0.4670868740067817,1,0,,,,,,,,,,,,,,,,,,,,,1,,,,,,,,,,,,,,,,,,,,,,,,,,,,,,,,,,,,,,,,,,,,,,115,143101,22,Female,1,2024/03/22_11:56:46,YZ,None,
,,,,,,practice,0,24,1,583,14,S,0,right,0.5201070869952673,1,0,,,,,,,,,,,,,,,,,,,,,1,,,,,,,,,,,,,,,,,,,,,,,,,,,,,,,,,,,,,,,,,,,,,,115,143101,22,Female,1,2024/03/22_11:56:46,YZ,None,
,,,,,,practice,0,24,1,583,15,Q,0,right,0.5116680530045414,1,0,,,,,,,,,,,,,,,,,,,,,1,,,,,,,,,,,,,,,,,,,,,,,,,,,,,,,,,,,,,,,,,,,,,,115,143101,22,Female,1,2024/03/22_11:56:46,YZ,None,
,,,,,,practice,0,24,1,583,,,,,,,,1.0,1.0,0.0,1.0,0.0,1.0,0.49741374953300693,4,0,0,0,0,11,15,4,11,0,,,,1,,,,,,,,,,,,,,,,,,,,,,,,,,,,,,,,,,,,,,,,,,,,,,115,143101,22,Female,1,2024/03/22_11:56:46,YZ,None,
1,./instructions/inst_prac_3/Slide37.png,right,9.4590910130064,721.0790413759969,730.5381323890033,,,,,,,,,,,,,,,,,,,,,,,,,,,,,,,,,1,,,,,,,,,,,,,,,,,,,,,,,,,,,,,,,,,,,,,,,,,,,,,,115,143101,22,Female,1,2024/03/22_11:56:46,YZ,None,
2,./instructions/inst_prac_3/Slide38.png,right,9.546518664006726,730.5677953289996,740.1143139930064,,,,,,,,,,,,,,,,,,,,,,,,,,,,,,,,,1,,,,,,,,,,,,,,,,,,,,,,,,,,,,,,,,,,,,,,,,,,,,,,115,143101,22,Female,1,2024/03/22_11:56:46,YZ,None,
3,./instructions/inst_prac_3/Slide39.png,right,4.812590262998128,740.1418503050081,744.9544405680062,,,,,,,,,,,,,,,,,,,,,,,,,,,,,,,,,1,,,,,,,,,,,,,,,,,,,,,,,,,,,,,,,,,,,,,,,,,,,,,,115,143101,22,Female,1,2024/03/22_11:56:46,YZ,None,
4,./instructions/inst_prac_3/Slide40.png,right,10.109863043006044,744.980442414002,755.0903054570081,,,,,,,,,,,,,,,,,,,,,,,,,,,,,,,,,1,,,,,,,,,,,,,,,,,,,,,,,,,,,,,,,,,,,,,,,,,,,,,,115,143101,22,Female,1,2024/03/22_11:56:46,YZ,None,
5,./instructions/inst_prac_3/Slide41.png,right,4.635054357000627,755.1193195210071,759.7543738780078,,,,,,,,,,,,,,,,,,,,,,,,,,,,,,,,,1,,,,,,,,,,,,,,,,,,,,,,,,,,,,,,,,,,,,,,,,,,,,,,115,143101,22,Female,1,2024/03/22_11:56:46,YZ,None,
6,./instructions/inst_prac_3/Slide42.png,right,1.2188427520013647,759.7833985920006,761.002241344002,,,,,,,,,,,,,,,,,,,,,,,,,,,,,,,,,1,,,,,,,,,,,,,,,,,,,,,,,,,,,,,,,,,,,,,,,,,,,,,,115,143101,22,Female,1,2024/03/22_11:56:46,YZ,None,
7,./instructions/inst_prac_3/Slide43.png,right,1.1467324450059095,761.0316476250009,762.1783800700068,,,,,,,,,,,,,,,,,,,,,,,,,,,,,,,,,1,,,,,,,,,,,,,,,,,,,,,,,,,,,,,,,,,,,,,,,,,,,,,,115,143101,22,Female,1,2024/03/22_11:56:46,YZ,None,
8,./instructions/inst_prac_3/Slide44.png,right,0.20033517399861012,762.207518605006,762.4078537790047,,,,,,,,,,,,,,,,,,,,,,,,,,,,,,,,,1,,,,,,,,,,,,,,,,,,,,,,,,,,,,,,,,,,,,,,,,,,,,,,115,143101,22,Female,1,2024/03/22_11:56:46,YZ,None,
,,,,,,practice,0,23,3,788,1,S,0,right,1.1373333539959276,1,0,,,,,,,,,,,,,,,,,,,,,1,,,,,,,,,,,,,,,,,,,,,,,,,,,,,,,,,,,,,,,,,,,,,,115,143101,22,Female,1,2024/03/22_11:56:46,YZ,None,
,,,,,,practice,0,23,3,788,2,F,0,right,0.5577513239986729,1,0,,,,,,,,,,,,,,,,,,,,,1,,,,,,,,,,,,,,,,,,,,,,,,,,,,,,,,,,,,,,,,,,,,,,115,143101,22,Female,1,2024/03/22_11:56:46,YZ,None,
,,,,,,practice,0,23,3,788,3,V,0,right,0.5421833849977702,1,0,,,,,,,,,,,,,,,,,,,,,1,,,,,,,,,,,,,,,,,,,,,,,,,,,,,,,,,,,,,,,,,,,,,,115,143101,22,Female,1,2024/03/22_11:56:46,YZ,None,
,,,,,,practice,0,23,3,788,4,S,1,left,0.9807746139995288,1,0,,,,,,,,,,,,,,,,,,,,,1,,,,,,,,,,,,,,,,,,,,,,,,,,,,,,,,,,,,,,,,,,,,,,115,143101,22,Female,1,2024/03/22_11:56:46,YZ,None,
,,,,,,practice,0,23,3,788,5,X,0,right,0.8526110419916222,1,0,,,,,,,,,,,,,,,,,,,,,1,,,,,,,,,,,,,,,,,,,,,,,,,,,,,,,,,,,,,,,,,,,,,,115,143101,22,Female,1,2024/03/22_11:56:46,YZ,None,
,,,,,,practice,0,23,3,788,6,C,0,right,0.7646885050053243,1,0,,,,,,,,,,,,,,,,,,,,,1,,,,,,,,,,,,,,,,,,,,,,,,,,,,,,,,,,,,,,,,,,,,,,115,143101,22,Female,1,2024/03/22_11:56:46,YZ,None,
,,,,,,practice,0,23,3,788,7,S,1,left,0.8440379450039472,1,0,,,,,,,,,,,,,,,,,,,,,1,,,,,,,,,,,,,,,,,,,,,,,,,,,,,,,,,,,,,,,,,,,,,,115,143101,22,Female,1,2024/03/22_11:56:46,YZ,None,
,,,,,,practice,0,23,3,788,8,X,1,left,0.7591759009956149,1,0,,,,,,,,,,,,,,,,,,,,,1,,,,,,,,,,,,,,,,,,,,,,,,,,,,,,,,,,,,,,,,,,,,,,115,143101,22,Female,1,2024/03/22_11:56:46,YZ,None,
,,,,,,practice,0,23,3,788,9,X,0,right,0.6363859780103667,1,0,,,,,,,,,,,,,,,,,,,,,1,,,,,,,,,,,,,,,,,,,,,,,,,,,,,,,,,,,,,,,,,,,,,,115,143101,22,Female,1,2024/03/22_11:56:46,YZ,None,
,,,,,,practice,0,23,3,788,10,N,0,right,0.4456391960120527,1,0,,,,,,,,,,,,,,,,,,,,,1,,,,,,,,,,,,,,,,,,,,,,,,,,,,,,,,,,,,,,,,,,,,,,115,143101,22,Female,1,2024/03/22_11:56:46,YZ,None,
,,,,,,practice,0,23,3,788,11,X,1,left,2.340121271990938,1,0,,,,,,,,,,,,,,,,,,,,,1,,,,,,,,,,,,,,,,,,,,,,,,,,,,,,,,,,,,,,,,,,,,,,115,143101,22,Female,1,2024/03/22_11:56:46,YZ,None,
,,,,,,practice,0,23,3,788,12,N,0,right,0.7668318689975422,1,0,,,,,,,,,,,,,,,,,,,,,1,,,,,,,,,,,,,,,,,,,,,,,,,,,,,,,,,,,,,,,,,,,,,,115,143101,22,Female,1,2024/03/22_11:56:46,YZ,None,
,,,,,,practice,0,23,3,788,13,C,0,right,0.49344359600218013,1,0,,,,,,,,,,,,,,,,,,,,,1,,,,,,,,,,,,,,,,,,,,,,,,,,,,,,,,,,,,,,,,,,,,,,115,143101,22,Female,1,2024/03/22_11:56:46,YZ,None,
,,,,,,practice,0,23,3,788,,,,,,,,1.0,1.0,0.0,1.0,0.0,1.0,0.8554598446924222,4,0,0,0,0,9,13,4,9,0,,,,1,,,,,,,,,,,,,,,,,,,,,,,,,,,,,,,,,,,,,,,,,,,,,,115,143101,22,Female,1,2024/03/22_11:56:46,YZ,None,
1,./instructions/inst_prac_3_next/Slide49.png,right,3.6326952559902566,787.2177199310099,790.8504151870002,,,,,,,,,,,,,,,,,,,,,,,,,,,,,,,,,1,,,,,,,,,,,,,,,,,,,,,,,,,,,,,,,,,,,,,,,,,,,,,,115,143101,22,Female,1,2024/03/22_11:56:46,YZ,None,
,,,,,,practice,0,34,3,583,1,N,0,right,0.7726567179925041,1,0,,,,,,,,,,,,,,,,,,,,,1,,,,,,,,,,,,,,,,,,,,,,,,,,,,,,,,,,,,,,,,,,,,,,115,143101,22,Female,1,2024/03/22_11:56:46,YZ,None,
,,,,,,practice,0,34,3,583,2,N,0,right,1.2881435320014134,1,0,,,,,,,,,,,,,,,,,,,,,1,,,,,,,,,,,,,,,,,,,,,,,,,,,,,,,,,,,,,,,,,,,,,,115,143101,22,Female,1,2024/03/22_11:56:46,YZ,None,
,,,,,,practice,0,34,3,583,3,V,0,right,1.0236800910060992,1,0,,,,,,,,,,,,,,,,,,,,,1,,,,,,,,,,,,,,,,,,,,,,,,,,,,,,,,,,,,,,,,,,,,,,115,143101,22,Female,1,2024/03/22_11:56:46,YZ,None,
,,,,,,practice,0,34,3,583,4,F,0,right,0.975302423001267,1,0,,,,,,,,,,,,,,,,,,,,,1,,,,,,,,,,,,,,,,,,,,,,,,,,,,,,,,,,,,,,,,,,,,,,115,143101,22,Female,1,2024/03/22_11:56:46,YZ,None,
,,,,,,practice,0,34,3,583,5,F,0,right,1.3613259160047164,1,0,,,,,,,,,,,,,,,,,,,,,1,,,,,,,,,,,,,,,,,,,,,,,,,,,,,,,,,,,,,,,,,,,,,,115,143101,22,Female,1,2024/03/22_11:56:46,YZ,None,
,,,,,,practice,0,34,3,583,6,Q,0,right,1.1172928799933288,1,0,,,,,,,,,,,,,,,,,,,,,1,,,,,,,,,,,,,,,,,,,,,,,,,,,,,,,,,,,,,,,,,,,,,,115,143101,22,Female,1,2024/03/22_11:56:46,YZ,None,
,,,,,,practice,0,34,3,583,7,N,0,left,1.3941744780022418,0,0,,,,,,,,,,,,,,,,,,,,,1,,,,,,,,,,,,,,,,,,,,,,,,,,,,,,,,,,,,,,,,,,,,,,115,143101,22,Female,1,2024/03/22_11:56:46,YZ,None,
,,,,,,practice,0,34,3,583,8,F,1,left,1.8563185679959133,1,0,,,,,,,,,,,,,,,,,,,,,1,,,,,,,,,,,,,,,,,,,,,,,,,,,,,,,,,,,,,,,,,,,,,,115,143101,22,Female,1,2024/03/22_11:56:46,YZ,None,
,,,,,,practice,0,34,3,583,9,J,0,right,1.3774148800002877,1,0,,,,,,,,,,,,,,,,,,,,,1,,,,,,,,,,,,,,,,,,,,,,,,,,,,,,,,,,,,,,,,,,,,,,115,143101,22,Female,1,2024/03/22_11:56:46,YZ,None,
,,,,,,practice,0,34,3,583,10,N,1,left,1.3725078669958748,1,0,,,,,,,,,,,,,,,,,,,,,1,,,,,,,,,,,,,,,,,,,,,,,,,,,,,,,,,,,,,,,,,,,,,,115,143101,22,Female,1,2024/03/22_11:56:46,YZ,None,
,,,,,,practice,0,34,3,583,11,X,0,right,1.357404475013027,1,0,,,,,,,,,,,,,,,,,,,,,1,,,,,,,,,,,,,,,,,,,,,,,,,,,,,,,,,,,,,,,,,,,,,,115,143101,22,Female,1,2024/03/22_11:56:46,YZ,None,
,,,,,,practice,0,34,3,583,12,J,1,left,1.3693380810000235,1,0,,,,,,,,,,,,,,,,,,,,,1,,,,,,,,,,,,,,,,,,,,,,,,,,,,,,,,,,,,,,,,,,,,,,115,143101,22,Female,1,2024/03/22_11:56:46,YZ,None,
,,,,,,practice,0,34,3,583,13,C,0,right,1.2849858389963629,1,0,,,,,,,,,,,,,,,,,,,,,1,,,,,,,,,,,,,,,,,,,,,,,,,,,,,,,,,,,,,,,,,,,,,,115,143101,22,Female,1,2024/03/22_11:56:46,YZ,None,
,,,,,,practice,0,34,3,583,14,V,0,right,0.9039180370018585,1,0,,,,,,,,,,,,,,,,,,,,,1,,,,,,,,,,,,,,,,,,,,,,,,,,,,,,,,,,,,,,,,,,,,,,115,143101,22,Female,1,2024/03/22_11:56:46,YZ,None,
,,,,,,practice,0,34,3,583,15,J,1,left,1.1783593479922274,1,0,,,,,,,,,,,,,,,,,,,,,1,,,,,,,,,,,,,,,,,,,,,,,,,,,,,,,,,,,,,,,,,,,,,,115,143101,22,Female,1,2024/03/22_11:56:46,YZ,None,
,,,,,,practice,0,34,3,583,,,,,,,,0.9772727272727273,1.0,0.09090909090909091,0.9090909090909091,0.0,0.9090909090909091,1.2421882088664764,4,1,0,0,0,10,14,4,11,0,,,,1,,,,,,,,,,,,,,,,,,,,,,,,,,,,,,,,,,,,,,,,,,,,,,115,143101,22,Female,1,2024/03/22_11:56:46,YZ,None,
,,,,,,practice,0,28,3,583,1,F,0,right,0.509165037990897,1,0,,,,,,,,,,,,,,,,,,,,,1,,,,,,,,,,,,,,,,,,,,,,,,,,,,,,,,,,,,,,,,,,,,,,115,143101,22,Female,1,2024/03/22_11:56:46,YZ,None,
,,,,,,practice,0,28,3,583,2,F,0,right,0.5592192129988689,1,0,,,,,,,,,,,,,,,,,,,,,1,,,,,,,,,,,,,,,,,,,,,,,,,,,,,,,,,,,,,,,,,,,,,,115,143101,22,Female,1,2024/03/22_11:56:46,YZ,None,
,,,,,,practice,0,28,3,583,3,J,0,right,0.5693157359928591,1,0,,,,,,,,,,,,,,,,,,,,,1,,,,,,,,,,,,,,,,,,,,,,,,,,,,,,,,,,,,,,,,,,,,,,115,143101,22,Female,1,2024/03/22_11:56:46,YZ,None,
,,,,,,practice,0,28,3,583,4,F,1,left,0.7212783290015068,1,0,,,,,,,,,,,,,,,,,,,,,1,,,,,,,,,,,,,,,,,,,,,,,,,,,,,,,,,,,,,,,,,,,,,,115,143101,22,Female,1,2024/03/22_11:56:46,YZ,None,
,,,,,,practice,0,28,3,583,5,F,1,left,1.3937867250060663,1,0,,,,,,,,,,,,,,,,,,,,,1,,,,,,,,,,,,,,,,,,,,,,,,,,,,,,,,,,,,,,,,,,,,,,115,143101,22,Female,1,2024/03/22_11:56:46,YZ,None,
,,,,,,practice,0,28,3,583,6,X,0,right,0.9605264550045831,1,0,,,,,,,,,,,,,,,,,,,,,1,,,,,,,,,,,,,,,,,,,,,,,,,,,,,,,,,,,,,,,,,,,,,,115,143101,22,Female,1,2024/03/22_11:56:46,YZ,None,
,,,,,,practice,0,28,3,583,7,Q,0,right,0.9722822949988768,1,0,,,,,,,,,,,,,,,,,,,,,1,,,,,,,,,,,,,,,,,,,,,,,,,,,,,,,,,,,,,,,,,,,,,,115,143101,22,Female,1,2024/03/22_11:56:46,YZ,None,
,,,,,,practice,0,28,3,583,8,J,0,left,0.881148761996883,0,0,,,,,,,,,,,,,,,,,,,,,1,,,,,,,,,,,,,,,,,,,,,,,,,,,,,,,,,,,,,,,,,,,,,,115,143101,22,Female,1,2024/03/22_11:56:46,YZ,None,
,,,,,,practice,0,28,3,583,9,X,1,right,1.2211680489999708,0,0,,,,,,,,,,,,,,,,,,,,,1,,,,,,,,,,,,,,,,,,,,,,,,,,,,,,,,,,,,,,,,,,,,,,115,143101,22,Female,1,2024/03/22_11:56:46,YZ,None,
,,,,,,practice,0,28,3,583,10,S,0,right,1.0170244840119267,1,0,,,,,,,,,,,,,,,,,,,,,1,,,,,,,,,,,,,,,,,,,,,,,,,,,,,,,,,,,,,,,,,,,,,,115,143101,22,Female,1,2024/03/22_11:56:46,YZ,None,
,,,,,,practice,0,28,3,583,11,F,0,right,0.9364014750026399,1,0,,,,,,,,,,,,,,,,,,,,,1,,,,,,,,,,,,,,,,,,,,,,,,,,,,,,,,,,,,,,,,,,,,,,115,143101,22,Female,1,2024/03/22_11:56:46,YZ,None,
,,,,,,practice,0,28,3,583,12,V,0,right,1.0528740599984303,1,0,,,,,,,,,,,,,,,,,,,,,1,,,,,,,,,,,,,,,,,,,,,,,,,,,,,,,,,,,,,,,,,,,,,,115,143101,22,Female,1,2024/03/22_11:56:46,YZ,None,
,,,,,,practice,0,28,3,583,13,F,0,left,1.0399376850109547,0,0,,,,,,,,,,,,,,,,,,,,,1,,,,,,,,,,,,,,,,,,,,,,,,,,,,,,,,,,,,,,,,,,,,,,115,143101,22,Female,1,2024/03/22_11:56:46,YZ,None,
,,,,,,practice,0,28,3,583,14,F,1,right,1.0373280070052715,0,0,,,,,,,,,,,,,,,,,,,,,1,,,,,,,,,,,,,,,,,,,,,,,,,,,,,,,,,,,,,,,,,,,,,,115,143101,22,Female,1,2024/03/22_11:56:46,YZ,None,
,,,,,,practice,0,28,3,583,15,V,1,right,1.5164634130051127,0,0,,,,,,,,,,,,,,,,,,,,,1,,,,,,,,,,,,,,,,,,,,,,,,,,,,,,,,,,,,,,,,,,,,,,115,143101,22,Female,1,2024/03/22_11:56:46,YZ,None,
,,,,,,practice,0,28,3,583,,,,,,,,0.675,0.4,0.2,0.8,0.0,0.8,0.9591946484016565,2,2,0,0,0,8,10,5,10,0,,,,1,,,,,,,,,,,,,,,,,,,,,,,,,,,,,,,,,,,,,,,,,,,,,,115,143101,22,Female,1,2024/03/22_11:56:46,YZ,None,
1,./instructions/inst_redo_3/Slide47.png,right,15.171607887008577,842.198789201997,857.3703970890056,,,,,,,,,,,,,,,,,,,,,,,,,,,,,,,,,1,,,,,,,,,,,,,,,,,,,,,,,,,,,,,,,,,,,,,,,,,,,,,,115,143101,22,Female,1,2024/03/22_11:56:46,YZ,None,
,,,,,,practice,0,25,3,583,1,J,0,right,0.5898006849893136,1,0,,,,,,,,,,,,,,,,,,,,,1,,,,,,,,,,,,,,,,,,,,,,,,,,,,,,,,,,,,,,,,,,,,,,115,143101,22,Female,1,2024/03/22_11:56:46,YZ,None,
,,,,,,practice,0,25,3,583,2,V,0,right,0.8289704109920422,1,0,,,,,,,,,,,,,,,,,,,,,1,,,,,,,,,,,,,,,,,,,,,,,,,,,,,,,,,,,,,,,,,,,,,,115,143101,22,Female,1,2024/03/22_11:56:46,YZ,None,
,,,,,,practice,0,25,3,583,3,V,0,right,0.6768031190003967,1,0,,,,,,,,,,,,,,,,,,,,,1,,,,,,,,,,,,,,,,,,,,,,,,,,,,,,,,,,,,,,,,,,,,,,115,143101,22,Female,1,2024/03/22_11:56:46,YZ,None,
,,,,,,practice,0,25,3,583,4,C,0,right,0.5141296969959512,1,0,,,,,,,,,,,,,,,,,,,,,1,,,,,,,,,,,,,,,,,,,,,,,,,,,,,,,,,,,,,,,,,,,,,,115,143101,22,Female,1,2024/03/22_11:56:46,YZ,None,
,,,,,,practice,0,25,3,583,5,N,0,right,0.8247871360072168,1,0,,,,,,,,,,,,,,,,,,,,,1,,,,,,,,,,,,,,,,,,,,,,,,,,,,,,,,,,,,,,,,,,,,,,115,143101,22,Female,1,2024/03/22_11:56:46,YZ,None,
,,,,,,practice,0,25,3,583,6,Q,0,right,0.49768160399980843,1,0,,,,,,,,,,,,,,,,,,,,,1,,,,,,,,,,,,,,,,,,,,,,,,,,,,,,,,,,,,,,,,,,,,,,115,143101,22,Female,1,2024/03/22_11:56:46,YZ,None,
,,,,,,practice,0,25,3,583,7,C,1,right,0.8211467310029548,0,0,,,,,,,,,,,,,,,,,,,,,1,,,,,,,,,,,,,,,,,,,,,,,,,,,,,,,,,,,,,,,,,,,,,,115,143101,22,Female,1,2024/03/22_11:56:46,YZ,None,
,,,,,,practice,0,25,3,583,8,N,1,left,1.2577380879956763,1,0,,,,,,,,,,,,,,,,,,,,,1,,,,,,,,,,,,,,,,,,,,,,,,,,,,,,,,,,,,,,,,,,,,,,115,143101,22,Female,1,2024/03/22_11:56:46,YZ,None,
,,,,,,practice,0,25,3,583,9,X,0,right,0.7730627079872647,1,0,,,,,,,,,,,,,,,,,,,,,1,,,,,,,,,,,,,,,,,,,,,,,,,,,,,,,,,,,,,,,,,,,,,,115,143101,22,Female,1,2024/03/22_11:56:46,YZ,None,
,,,,,,practice,0,25,3,583,10,C,1,left,0.9488290649896953,1,0,,,,,,,,,,,,,,,,,,,,,1,,,,,,,,,,,,,,,,,,,,,,,,,,,,,,,,,,,,,,,,,,,,,,115,143101,22,Female,1,2024/03/22_11:56:46,YZ,None,
,,,,,,practice,0,25,3,583,11,C,0,right,0.7572925940039568,1,0,,,,,,,,,,,,,,,,,,,,,1,,,,,,,,,,,,,,,,,,,,,,,,,,,,,,,,,,,,,,,,,,,,,,115,143101,22,Female,1,2024/03/22_11:56:46,YZ,None,
,,,,,,practice,0,25,3,583,12,X,1,right,0.8692346400057431,0,0,,,,,,,,,,,,,,,,,,,,,1,,,,,,,,,,,,,,,,,,,,,,,,,,,,,,,,,,,,,,,,,,,,,,115,143101,22,Female,1,2024/03/22_11:56:46,YZ,None,
,,,,,,practice,0,25,3,583,13,Q,0,right,1.8398524560034275,1,0,,,,,,,,,,,,,,,,,,,,,1,,,,,,,,,,,,,,,,,,,,,,,,,,,,,,,,,,,,,,,,,,,,,,115,143101,22,Female,1,2024/03/22_11:56:46,YZ,None,
,,,,,,practice,0,25,3,583,14,Q,0,left,0.8157726689969422,0,0,,,,,,,,,,,,,,,,,,,,,1,,,,,,,,,,,,,,,,,,,,,,,,,,,,,,,,,,,,,,,,,,,,,,115,143101,22,Female,1,2024/03/22_11:56:46,YZ,None,
,,,,,,practice,0,25,3,583,15,F,0,right,0.5001152289914899,1,0,,,,,,,,,,,,,,,,,,,,,1,,,,,,,,,,,,,,,,,,,,,,,,,,,,,,,,,,,,,,,,,,,,,,115,143101,22,Female,1,2024/03/22_11:56:46,YZ,None,
,,,,,,practice,0,25,3,583,,,,,,,,0.8068181818181819,0.5,0.09090909090909091,0.9090909090909091,0.0,0.9090909090909091,0.8343477887974586,2,1,0,0,0,10,12,4,11,0,,,,1,,,,,,,,,,,,,,,,,,,,,,,,,,,,,,,,,,,,,,,,,,,,,,115,143101,22,Female,1,2024/03/22_11:56:46,YZ,None,
1,./instructions/inst_prac_main/Slide51.png,right,2.6118693870084826,880.3183849909983,882.9302543780068,,,,,,,,,,,,,,,,,,,,,,,,,,,,,,,,,1,,,,,,,,,,,,,,,,,,,,,,,,,,,,,,,,,,,,,,,,,,,,,,115,143101,22,Female,1,2024/03/22_11:56:46,YZ,None,
2,./instructions/inst_prac_main/Slide52.png,right,12.363010280998424,882.9592913899978,895.3223016709962,,,,,,,,,,,,,,,,,,,,,,,,,,,,,,,,,1,,,,,,,,,,,,,,,,,,,,,,,,,,,,,,,,,,,,,,,,,,,,,,115,143101,22,Female,1,2024/03/22_11:56:46,YZ,None,
3,./instructions/inst_prac_main/Slide53.png,right,14.642547248993651,895.3515744150063,909.994121664,,,,,,,,,,,,,,,,,,,,,,,,,,,,,,,,,1,,,,,,,,,,,,,,,,,,,,,,,,,,,,,,,,,,,,,,,,,,,,,,115,143101,22,Female,1,2024/03/22_11:56:46,YZ,None,
4,./instructions/inst_prac_main/Slide54.png,right,5.753833300987026,910.0243606880103,915.7781939889974,,,,,,,,,,,,,,,,,,,,,,,,,,,,,,,,,1,,,,,,,,,,,,,,,,,,,,,,,,,,,,,,,,,,,,,,,,,,,,,,115,143101,22,Female,1,2024/03/22_11:56:46,YZ,None,
,,,,,,practice_main,0,1,1,583,1,C,0,right,0.7944343479903182,1,0,,,,,,,,,,,,,,,,,,,,,1,,,,,,,,,,,,,,,,,,,,,,,,,,,,,,,,,,,,,,,,,,,,,,115,143101,22,Female,1,2024/03/22_11:56:46,YZ,None,
,,,,,,practice_main,0,1,1,583,2,J,0,right,0.4489225209981669,1,0,,,,,,,,,,,,,,,,,,,,,1,,,,,,,,,,,,,,,,,,,,,,,,,,,,,,,,,,,,,,,,,,,,,,115,143101,22,Female,1,2024/03/22_11:56:46,YZ,None,
,,,,,,practice_main,0,1,1,583,3,J,1,left,0.5554289749998134,1,0,,,,,,,,,,,,,,,,,,,,,1,,,,,,,,,,,,,,,,,,,,,,,,,,,,,,,,,,,,,,,,,,,,,,115,143101,22,Female,1,2024/03/22_11:56:46,YZ,None,
,,,,,,practice_main,0,1,1,583,4,N,0,right,0.45228459799545817,1,0,,,,,,,,,,,,,,,,,,,,,1,,,,,,,,,,,,,,,,,,,,,,,,,,,,,,,,,,,,,,,,,,,,,,115,143101,22,Female,1,2024/03/22_11:56:46,YZ,None,
,,,,,,practice_main,0,1,1,583,5,N,1,left,0.5247506250016158,1,0,,,,,,,,,,,,,,,,,,,,,1,,,,,,,,,,,,,,,,,,,,,,,,,,,,,,,,,,,,,,,,,,,,,,115,143101,22,Female,1,2024/03/22_11:56:46,YZ,None,
,,,,,,practice_main,0,1,1,583,6,X,0,right,0.42688070199801587,1,0,,,,,,,,,,,,,,,,,,,,,1,,,,,,,,,,,,,,,,,,,,,,,,,,,,,,,,,,,,,,,,,,,,,,115,143101,22,Female,1,2024/03/22_11:56:46,YZ,None,
,,,,,,practice_main,0,1,1,583,7,F,0,right,0.45542059699073434,1,0,,,,,,,,,,,,,,,,,,,,,1,,,,,,,,,,,,,,,,,,,,,,,,,,,,,,,,,,,,,,,,,,,,,,115,143101,22,Female,1,2024/03/22_11:56:46,YZ,None,
,,,,,,practice_main,0,1,1,583,8,Q,0,right,0.6400491940003121,1,0,,,,,,,,,,,,,,,,,,,,,1,,,,,,,,,,,,,,,,,,,,,,,,,,,,,,,,,,,,,,,,,,,,,,115,143101,22,Female,1,2024/03/22_11:56:46,YZ,None,
,,,,,,practice_main,0,1,1,583,9,J,0,right,0.33804104100272525,1,0,,,,,,,,,,,,,,,,,,,,,1,,,,,,,,,,,,,,,,,,,,,,,,,,,,,,,,,,,,,,,,,,,,,,115,143101,22,Female,1,2024/03/22_11:56:46,YZ,None,
,,,,,,practice_main,0,1,1,583,10,J,1,left,0.5421635289967526,1,0,,,,,,,,,,,,,,,,,,,,,1,,,,,,,,,,,,,,,,,,,,,,,,,,,,,,,,,,,,,,,,,,,,,,115,143101,22,Female,1,2024/03/22_11:56:46,YZ,None,
,,,,,,practice_main,0,1,1,583,11,F,0,right,0.33713469198846724,1,0,,,,,,,,,,,,,,,,,,,,,1,,,,,,,,,,,,,,,,,,,,,,,,,,,,,,,,,,,,,,,,,,,,,,115,143101,22,Female,1,2024/03/22_11:56:46,YZ,None,
,,,,,,practice_main,0,1,1,583,12,F,1,left,0.40126651400350966,1,0,,,,,,,,,,,,,,,,,,,,,1,,,,,,,,,,,,,,,,,,,,,,,,,,,,,,,,,,,,,,,,,,,,,,115,143101,22,Female,1,2024/03/22_11:56:46,YZ,None,
,,,,,,practice_main,0,1,1,583,13,X,0,right,0.5325217700010398,1,0,,,,,,,,,,,,,,,,,,,,,1,,,,,,,,,,,,,,,,,,,,,,,,,,,,,,,,,,,,,,,,,,,,,,115,143101,22,Female,1,2024/03/22_11:56:46,YZ,None,
,,,,,,practice_main,0,1,1,583,14,F,0,right,0.47204417099419516,1,0,,,,,,,,,,,,,,,,,,,,,1,,,,,,,,,,,,,,,,,,,,,,,,,,,,,,,,,,,,,,,,,,,,,,115,143101,22,Female,1,2024/03/22_11:56:46,YZ,None,
,,,,,,practice_main,0,1,1,583,15,Q,0,right,0.45254431599460077,1,0,,,,,,,,,,,,,,,,,,,,,1,,,,,,,,,,,,,,,,,,,,,,,,,,,,,,,,,,,,,,,,,,,,,,115,143101,22,Female,1,2024/03/22_11:56:46,YZ,None,
,,,,,,practice_main,0,1,1,583,,,,,,,,1.0,1.0,0.0,1.0,0.0,1.0,0.49159250619704836,4,0,0,0,0,11,15,4,11,0,,,,1,,,,,,,,,,,,,,,,,,,,,,,,,,,,,,,,,,,,,,,,,,,,,,115,143101,22,Female,1,2024/03/22_11:56:46,YZ,None,
,,,,,240322_131216,PRACTICE,0,1,1,583,,,,,,,,,,,,,,,,,,,,,,,,,,,,1,47,1,1,cue1.png,easy,A,12,1.4524877040093997,0,918.8335351020069,920.3156643730035,,,,,,,,,,,,,,,,,,,,,,,,,,,,,,,,,,,115,143101,22,Female,1,2024/03/22_11:56:46,YZ,None,
,,,,,,practice_main,0,2,1,583,1,F,0,right,0.8100956150010461,1,0,,,,,,,,,,,,,,,,,,,,,1,,,,,,,,,,,,,,,,,,,,,,,,,,,,,,,,,,,,,,,,,,,,,,115,143101,22,Female,1,2024/03/22_11:56:46,YZ,None,
,,,,,,practice_main,0,2,1,583,2,F,1,left,0.4711190620000707,1,0,,,,,,,,,,,,,,,,,,,,,1,,,,,,,,,,,,,,,,,,,,,,,,,,,,,,,,,,,,,,,,,,,,,,115,143101,22,Female,1,2024/03/22_11:56:46,YZ,None,
,,,,,,practice_main,0,2,1,583,3,Q,0,right,0.40183305300888605,1,0,,,,,,,,,,,,,,,,,,,,,1,,,,,,,,,,,,,,,,,,,,,,,,,,,,,,,,,,,,,,,,,,,,,,115,143101,22,Female,1,2024/03/22_11:56:46,YZ,None,
,,,,,,practice_main,0,2,1,583,4,C,0,right,0.45652567099023145,1,0,,,,,,,,,,,,,,,,,,,,,1,,,,,,,,,,,,,,,,,,,,,,,,,,,,,,,,,,,,,,,,,,,,,,115,143101,22,Female,1,2024/03/22_11:56:46,YZ,None,
,,,,,,practice_main,0,2,1,583,5,J,0,right,0.5099354839912849,1,0,,,,,,,,,,,,,,,,,,,,,1,,,,,,,,,,,,,,,,,,,,,,,,,,,,,,,,,,,,,,,,,,,,,,115,143101,22,Female,1,2024/03/22_11:56:46,YZ,None,
,,,,,,practice_main,0,2,1,583,6,N,0,right,0.38780675300222356,1,0,,,,,,,,,,,,,,,,,,,,,1,,,,,,,,,,,,,,,,,,,,,,,,,,,,,,,,,,,,,,,,,,,,,,115,143101,22,Female,1,2024/03/22_11:56:46,YZ,None,
,,,,,,practice_main,0,2,1,583,7,N,1,left,0.368187072002911,1,0,,,,,,,,,,,,,,,,,,,,,1,,,,,,,,,,,,,,,,,,,,,,,,,,,,,,,,,,,,,,,,,,,,,,115,143101,22,Female,1,2024/03/22_11:56:46,YZ,None,
,,,,,,practice_main,0,2,1,583,8,F,0,right,0.3576960130012594,1,0,,,,,,,,,,,,,,,,,,,,,1,,,,,,,,,,,,,,,,,,,,,,,,,,,,,,,,,,,,,,,,,,,,,,115,143101,22,Female,1,2024/03/22_11:56:46,YZ,None,
,,,,,,practice_main,0,2,1,583,9,J,0,right,0.3565877850051038,1,0,,,,,,,,,,,,,,,,,,,,,1,,,,,,,,,,,,,,,,,,,,,,,,,,,,,,,,,,,,,,,,,,,,,,115,143101,22,Female,1,2024/03/22_11:56:46,YZ,None,
,,,,,,practice_main,0,2,1,583,10,J,1,left,0.45692104400950484,1,0,,,,,,,,,,,,,,,,,,,,,1,,,,,,,,,,,,,,,,,,,,,,,,,,,,,,,,,,,,,,,,,,,,,,115,143101,22,Female,1,2024/03/22_11:56:46,YZ,None,
,,,,,,practice_main,0,2,1,583,11,C,0,right,0.4160430469928542,1,0,,,,,,,,,,,,,,,,,,,,,1,,,,,,,,,,,,,,,,,,,,,,,,,,,,,,,,,,,,,,,,,,,,,,115,143101,22,Female,1,2024/03/22_11:56:46,YZ,None,
,,,,,,practice_main,0,2,1,583,12,C,1,left,0.4414720969944028,1,0,,,,,,,,,,,,,,,,,,,,,1,,,,,,,,,,,,,,,,,,,,,,,,,,,,,,,,,,,,,,,,,,,,,,115,143101,22,Female,1,2024/03/22_11:56:46,YZ,None,
,,,,,,practice_main,0,2,1,583,13,X,0,right,0.4171794660069281,1,0,,,,,,,,,,,,,,,,,,,,,1,,,,,,,,,,,,,,,,,,,,,,,,,,,,,,,,,,,,,,,,,,,,,,115,143101,22,Female,1,2024/03/22_11:56:46,YZ,None,
,,,,,,practice_main,0,2,1,583,14,X,1,left,0.4524765509995632,1,0,,,,,,,,,,,,,,,,,,,,,1,,,,,,,,,,,,,,,,,,,,,,,,,,,,,,,,,,,,,,,,,,,,,,115,143101,22,Female,1,2024/03/22_11:56:46,YZ,None,
,,,,,,practice_main,0,2,1,583,15,S,0,right,0.38322944000537973,1,0,,,,,,,,,,,,,,,,,,,,,1,,,,,,,,,,,,,,,,,,,,,,,,,,,,,,,,,,,,,,,,,,,,,,115,143101,22,Female,1,2024/03/22_11:56:46,YZ,None,
,,,,,,practice_main,0,2,1,583,,,,,,,,1.0,1.0,0.0,1.0,0.0,1.0,0.4458072102007767,5,0,0,0,0,10,15,5,10,0,,,,1,,,,,,,,,,,,,,,,,,,,,,,,,,,,,,,,,,,,,,,,,,,,,,115,143101,22,Female,1,2024/03/22_11:56:46,YZ,None,
,,,,,240322_131241,PRACTICE,0,2,1,583,,,,,,,,,,,,,,,,,,,,,,,,,,,,1,39,2,2,cue1.png,easy,A,11,1.0871999180089915,0,944.6954450470075,945.8002738850046,,,,,,,,,,,,,,,,,,,,,,,,,,,,,,,,,,,115,143101,22,Female,1,2024/03/22_11:56:46,YZ,None,
,,,,,,practice_main,0,3,3,583,1,N,0,right,0.412981078014127,1,0,,,,,,,,,,,,,,,,,,,,,1,,,,,,,,,,,,,,,,,,,,,,,,,,,,,,,,,,,,,,,,,,,,,,115,143101,22,Female,1,2024/03/22_11:56:46,YZ,None,
,,,,,,practice_main,0,3,3,583,2,X,0,right,0.43717911800195,1,0,,,,,,,,,,,,,,,,,,,,,1,,,,,,,,,,,,,,,,,,,,,,,,,,,,,,,,,,,,,,,,,,,,,,115,143101,22,Female,1,2024/03/22_11:56:46,YZ,None,
,,,,,,practice_main,0,3,3,583,3,F,0,right,0.5123402989993338,1,0,,,,,,,,,,,,,,,,,,,,,1,,,,,,,,,,,,,,,,,,,,,,,,,,,,,,,,,,,,,,,,,,,,,,115,143101,22,Female,1,2024/03/22_11:56:46,YZ,None,
,,,,,,practice_main,0,3,3,583,4,N,1,right,1.0982923080009641,0,0,,,,,,,,,,,,,,,,,,,,,1,,,,,,,,,,,,,,,,,,,,,,,,,,,,,,,,,,,,,,,,,,,,,,115,143101,22,Female,1,2024/03/22_11:56:46,YZ,None,
,,,,,,practice_main,0,3,3,583,5,S,0,right,0.5243478659976972,1,0,,,,,,,,,,,,,,,,,,,,,1,,,,,,,,,,,,,,,,,,,,,,,,,,,,,,,,,,,,,,,,,,,,,,115,143101,22,Female,1,2024/03/22_11:56:46,YZ,None,
,,,,,,practice_main,0,3,3,583,6,F,1,right,0.5121997899987036,0,0,,,,,,,,,,,,,,,,,,,,,1,,,,,,,,,,,,,,,,,,,,,,,,,,,,,,,,,,,,,,,,,,,,,,115,143101,22,Female,1,2024/03/22_11:56:46,YZ,None,
,,,,,,practice_main,0,3,3,583,7,F,0,left,0.49188278599467594,0,0,,,,,,,,,,,,,,,,,,,,,1,,,,,,,,,,,,,,,,,,,,,,,,,,,,,,,,,,,,,,,,,,,,,,115,143101,22,Female,1,2024/03/22_11:56:46,YZ,None,
,,,,,,practice_main,0,3,3,583,8,X,0,right,0.42577581699879374,1,0,,,,,,,,,,,,,,,,,,,,,1,,,,,,,,,,,,,,,,,,,,,,,,,,,,,,,,,,,,,,,,,,,,,,115,143101,22,Female,1,2024/03/22_11:56:46,YZ,None,
,,,,,,practice_main,0,3,3,583,9,F,1,right,0.5248058019933524,0,0,,,,,,,,,,,,,,,,,,,,,1,,,,,,,,,,,,,,,,,,,,,,,,,,,,,,,,,,,,,,,,,,,,,,115,143101,22,Female,1,2024/03/22_11:56:46,YZ,None,
,,,,,,practice_main,0,3,3,583,10,V,0,right,0.41468952600553166,1,0,,,,,,,,,,,,,,,,,,,,,1,,,,,,,,,,,,,,,,,,,,,,,,,,,,,,,,,,,,,,,,,,,,,,115,143101,22,Female,1,2024/03/22_11:56:46,YZ,None,
,,,,,,practice_main,0,3,3,583,11,X,1,right,0.4504934120050166,0,0,,,,,,,,,,,,,,,,,,,,,1,,,,,,,,,,,,,,,,,,,,,,,,,,,,,,,,,,,,,,,,,,,,,,115,143101,22,Female,1,2024/03/22_11:56:46,YZ,None,
,,,,,,practice_main,0,3,3,583,12,N,0,right,0.3464916219963925,1,0,,,,,,,,,,,,,,,,,,,,,1,,,,,,,,,,,,,,,,,,,,,,,,,,,,,,,,,,,,,,,,,,,,,,115,143101,22,Female,1,2024/03/22_11:56:46,YZ,None,
,,,,,,practice_main,0,3,3,583,13,Q,0,right,0.3485597270046128,1,0,,,,,,,,,,,,,,,,,,,,,1,,,,,,,,,,,,,,,,,,,,,,,,,,,,,,,,,,,,,,,,,,,,,,115,143101,22,Female,1,2024/03/22_11:56:46,YZ,None,
,,,,,,practice_main,0,3,3,583,14,X,1,right,0.3209271009982331,0,0,,,,,,,,,,,,,,,,,,,,,1,,,,,,,,,,,,,,,,,,,,,,,,,,,,,,,,,,,,,,,,,,,,,,115,143101,22,Female,1,2024/03/22_11:56:46,YZ,None,
,,,,,,practice_main,0,3,3,583,15,F,0,right,0.4020772819931153,1,0,,,,,,,,,,,,,,,,,,,,,1,,,,,,,,,,,,,,,,,,,,,,,,,,,,,,,,,,,,,,,,,,,,,,115,143101,22,Female,1,2024/03/22_11:56:46,YZ,None,
,,,,,,practice_main,0,3,3,583,,,,,,,,0.225,0.0,0.1,0.9,0.0,0.9,0.4815362356001666,0,1,0,0,0,9,9,5,10,0,,,,1,,,,,,,,,,,,,,,,,,,,,,,,,,,,,,,,,,,,,,,,,,,,,,115,143101,22,Female,1,2024/03/22_11:56:46,YZ,None,
,,,,,240322_131307,PRACTICE,0,3,3,583,,,,,,,,,,,,,,,,,,,,,,,,,,,,1,7,3,3,cue2.png,hard,A,24,1.9883564670017222,0,969.4634589100024,971.469024667007,,,,,,,,,,,,,,,,,,,,,,,,,,,,,,,,,,,115,143101,22,Female,1,2024/03/22_11:56:46,YZ,None,
1,./instructions/inst_prac_end/Slide56.png,right,51.03221547299472,994.2100879970094,1045.2423034700041,,,,,,,,,,,,,,,,,,,,,,,,,,,,,,,,,1,,,,,,,,,,,,,,,,,,,,,,,,,,,,,,,,,,,,,,,,,,,,,,115,143101,22,Female,1,2024/03/22_11:56:46,YZ,None,
1,./instructions/inst_test/Slide57.png,right,78.21466586399765,1045.2758144310064,1123.490480295004,,,,,,,,,,,,,,,,,,,,,,,,,,,,,,,,,1,,,,,,,,,,,,,,,,,,,,,,,,,,,,,,,,,,,,,,,,,,,,,,115,143101,22,Female,1,2024/03/22_11:56:46,YZ,None,
,,,,,,test,1,1,1,583,1,X,0,right,0.5249923060036963,1,0,,,,,,,,,,,,,,,,,,,,,1,,,,,,,,,,,,,,,,,,,,,,,,,,,,,,,,,,,,,,,,,,,,,,115,143101,22,Female,1,2024/03/22_11:56:46,YZ,None,
,,,,,,test,1,1,1,583,2,X,1,right,0.5127238099958049,0,0,,,,,,,,,,,,,,,,,,,,,1,,,,,,,,,,,,,,,,,,,,,,,,,,,,,,,,,,,,,,,,,,,,,,115,143101,22,Female,1,2024/03/22_11:56:46,YZ,None,
,,,,,,test,1,1,1,583,3,J,0,right,0.6752529319928726,1,0,,,,,,,,,,,,,,,,,,,,,1,,,,,,,,,,,,,,,,,,,,,,,,,,,,,,,,,,,,,,,,,,,,,,115,143101,22,Female,1,2024/03/22_11:56:46,YZ,None,
,,,,,,test,1,1,1,583,4,X,0,right,0.41697265999391675,1,0,,,,,,,,,,,,,,,,,,,,,1,,,,,,,,,,,,,,,,,,,,,,,,,,,,,,,,,,,,,,,,,,,,,,115,143101,22,Female,1,2024/03/22_11:56:46,YZ,None,
,,,,,,test,1,1,1,583,5,Q,0,right,0.4652248119964497,1,0,,,,,,,,,,,,,,,,,,,,,1,,,,,,,,,,,,,,,,,,,,,,,,,,,,,,,,,,,,,,,,,,,,,,115,143101,22,Female,1,2024/03/22_11:56:46,YZ,None,
,,,,,,test,1,1,1,583,6,Q,1,left,0.5124026260018582,1,0,,,,,,,,,,,,,,,,,,,,,1,,,,,,,,,,,,,,,,,,,,,,,,,,,,,,,,,,,,,,,,,,,,,,115,143101,22,Female,1,2024/03/22_11:56:46,YZ,None,
,,,,,,test,1,1,1,583,7,N,0,right,0.4297360680066049,1,0,,,,,,,,,,,,,,,,,,,,,1,,,,,,,,,,,,,,,,,,,,,,,,,,,,,,,,,,,,,,,,,,,,,,115,143101,22,Female,1,2024/03/22_11:56:46,YZ,None,
,,,,,,test,1,1,1,583,8,S,0,right,0.44354773200757336,1,0,,,,,,,,,,,,,,,,,,,,,1,,,,,,,,,,,,,,,,,,,,,,,,,,,,,,,,,,,,,,,,,,,,,,115,143101,22,Female,1,2024/03/22_11:56:46,YZ,None,
,,,,,,test,1,1,1,583,9,N,0,right,0.4607965719915228,1,0,,,,,,,,,,,,,,,,,,,,,1,,,,,,,,,,,,,,,,,,,,,,,,,,,,,,,,,,,,,,,,,,,,,,115,143101,22,Female,1,2024/03/22_11:56:46,YZ,None,
,,,,,,test,1,1,1,583,10,S,0,left,0.5784736969944788,0,0,,,,,,,,,,,,,,,,,,,,,1,,,,,,,,,,,,,,,,,,,,,,,,,,,,,,,,,,,,,,,,,,,,,,115,143101,22,Female,1,2024/03/22_11:56:46,YZ,None,
,,,,,,test,1,1,1,583,11,S,1,right,0.0,0,0,,,,,,,,,,,,,,,,,,,,,1,,,,,,,,,,,,,,,,,,,,,,,,,,,,,,,,,,,,,,,,,,,,,,115,143101,22,Female,1,2024/03/22_11:56:46,YZ,None,
,,,,,,test,1,1,1,583,12,Q,0,right,0.5720614549936727,1,0,,,,,,,,,,,,,,,,,,,,,1,,,,,,,,,,,,,,,,,,,,,,,,,,,,,,,,,,,,,,,,,,,,,,115,143101,22,Female,1,2024/03/22_11:56:46,YZ,None,
,,,,,,test,1,1,1,583,13,F,0,right,0.5123239640088286,1,0,,,,,,,,,,,,,,,,,,,,,1,,,,,,,,,,,,,,,,,,,,,,,,,,,,,,,,,,,,,,,,,,,,,,115,143101,22,Female,1,2024/03/22_11:56:46,YZ,None,
,,,,,,test,1,1,1,583,14,C,0,right,0.4045083779928973,1,0,,,,,,,,,,,,,,,,,,,,,1,,,,,,,,,,,,,,,,,,,,,,,,,,,,,,,,,,,,,,,,,,,,,,115,143101,22,Female,1,2024/03/22_11:56:46,YZ,None,
,,,,,,test,1,1,1,583,15,C,1,left,0.4725564749969635,1,0,,,,,,,,,,,,,,,,,,,,,1,,,,,,,,,,,,,,,,,,,,,,,,,,,,,,,,,,,,,,,,,,,,,,115,143101,22,Female,1,2024/03/22_11:56:46,YZ,None,
,,,,,,Test,1,1,1,583,,,,,,,,0.8068181818181819,0.5,0.09090909090909091,0.9090909090909091,0.0,0.9090909090909091,0.4654382324651427,2,1,0,0,0,10,12,4,11,0,,,,1,,,,,,,,,,,,,,,,,,,,,,,,,,,,,,,,,,,,,,,,,,,,,,115,143101,22,Female,1,2024/03/22_11:56:46,YZ,None,
,,,,,240322_131545,TEST,1,1,1,583,,,,,,,,,,,,,,,,,,,,,,,,,,,,1,1,1,1,cue1.png,easy,A,37,1.2615295970026636,0,1128.5532379570068,1129.8354578599974,,,,,,,,,,,,,,,,,,,,,,,,,,,,,,,,,,,115,143101,22,Female,1,2024/03/22_11:56:46,YZ,None,
,,,,,,test,1,2,3,583,1,V,0,right,0.3031722419982543,1,0,,,,,,,,,,,,,,,,,,,,,1,,,,,,,,,,,,,,,,,,,,,,,,,,,,,,,,,,,,,,,,,,,,,,115,143101,22,Female,1,2024/03/22_11:56:46,YZ,None,
,,,,,,test,1,2,3,583,2,V,0,right,0.2970600559929153,1,0,,,,,,,,,,,,,,,,,,,,,1,,,,,,,,,,,,,,,,,,,,,,,,,,,,,,,,,,,,,,,,,,,,,,115,143101,22,Female,1,2024/03/22_11:56:46,YZ,None,
,,,,,,test,1,2,3,583,3,J,0,right,0.26913201600837056,1,0,,,,,,,,,,,,,,,,,,,,,1,,,,,,,,,,,,,,,,,,,,,,,,,,,,,,,,,,,,,,,,,,,,,,115,143101,22,Female,1,2024/03/22_11:56:46,YZ,None,
,,,,,,test,1,2,3,583,4,V,1,left,0.36789532299735583,1,0,,,,,,,,,,,,,,,,,,,,,1,,,,,,,,,,,,,,,,,,,,,,,,,,,,,,,,,,,,,,,,,,,,,,115,143101,22,Female,1,2024/03/22_11:56:46,YZ,None,
,,,,,,test,1,2,3,583,5,X,0,right,0.3647046370024327,1,0,,,,,,,,,,,,,,,,,,,,,1,,,,,,,,,,,,,,,,,,,,,,,,,,,,,,,,,,,,,,,,,,,,,,115,143101,22,Female,1,2024/03/22_11:56:46,YZ,None,
,,,,,,test,1,2,3,583,6,S,0,right,0.5170082880067639,1,0,,,,,,,,,,,,,,,,,,,,,1,,,,,,,,,,,,,,,,,,,,,,,,,,,,,,,,,,,,,,,,,,,,,,115,143101,22,Female,1,2024/03/22_11:56:46,YZ,None,
,,,,,,test,1,2,3,583,7,F,0,right,0.47990521499013994,1,0,,,,,,,,,,,,,,,,,,,,,1,,,,,,,,,,,,,,,,,,,,,,,,,,,,,,,,,,,,,,,,,,,,,,115,143101,22,Female,1,2024/03/22_11:56:46,YZ,None,
,,,,,,test,1,2,3,583,8,X,1,right,0.879799358008313,0,0,,,,,,,,,,,,,,,,,,,,,1,,,,,,,,,,,,,,,,,,,,,,,,,,,,,,,,,,,,,,,,,,,,,,115,143101,22,Female,1,2024/03/22_11:56:46,YZ,None,
,,,,,,test,1,2,3,583,9,S,1,right,0.34967885800870135,0,0,,,,,,,,,,,,,,,,,,,,,1,,,,,,,,,,,,,,,,,,,,,,,,,,,,,,,,,,,,,,,,,,,,,,115,143101,22,Female,1,2024/03/22_11:56:46,YZ,None,
,,,,,,test,1,2,3,583,10,S,0,right,0.7052123870089417,1,0,,,,,,,,,,,,,,,,,,,,,1,,,,,,,,,,,,,,,,,,,,,,,,,,,,,,,,,,,,,,,,,,,,,,115,143101,22,Female,1,2024/03/22_11:56:46,YZ,None,
,,,,,,test,1,2,3,583,11,X,1,left,0.7479553090088302,1,0,,,,,,,,,,,,,,,,,,,,,1,,,,,,,,,,,,,,,,,,,,,,,,,,,,,,,,,,,,,,,,,,,,,,115,143101,22,Female,1,2024/03/22_11:56:46,YZ,None,
,,,,,,test,1,2,3,583,12,C,0,right,0.34740637500362936,1,0,,,,,,,,,,,,,,,,,,,,,1,,,,,,,,,,,,,,,,,,,,,,,,,,,,,,,,,,,,,,,,,,,,,,115,143101,22,Female,1,2024/03/22_11:56:46,YZ,None,
,,,,,,test,1,2,3,583,13,V,0,right,0.34057917101017665,1,0,,,,,,,,,,,,,,,,,,,,,1,,,,,,,,,,,,,,,,,,,,,,,,,,,,,,,,,,,,,,,,,,,,,,115,143101,22,Female,1,2024/03/22_11:56:46,YZ,None,
,,,,,,test,1,2,3,583,14,C,0,right,0.5414787040062947,1,0,,,,,,,,,,,,,,,,,,,,,1,,,,,,,,,,,,,,,,,,,,,,,,,,,,,,,,,,,,,,,,,,,,,,115,143101,22,Female,1,2024/03/22_11:56:46,YZ,None,
,,,,,,test,1,2,3,583,15,J,0,right,0.5254846030002227,1,0,,,,,,,,,,,,,,,,,,,,,1,,,,,,,,,,,,,,,,,,,,,,,,,,,,,,,,,,,,,,,,,,,,,,115,143101,22,Female,1,2024/03/22_11:56:46,YZ,None,
