Instruction,Stimulus,Key,RT,START,END,Phase,Block,TrialN,NbackLevel,ISI,LetterN,Letter,Letter_isSame,Letter_Resp,Letter_RT,Letter_Accuracy,Letter_Timeout,Trial_A_measure,Trial_HR,Trial_FAR,Trial_CDR,Trial_MSR,Trial_ACC,Trial_RT,Trial_HitsCount,Trial_FAsCount,Trial_SameNoRespCount,Trial_DiffNoRespCount,Trial_NoRespCount,Trial_CDsCount,Trial_CorrectRespCount,Trial_SameLetterCount,Trial_DiffLetterCount,Trial_InvalidLetterCount,TrialCountCali,CaliEnd_A_measure,ISI_calibrated,Run,TrialIndex,TrialNumber_total,TrialNumber_valid,CueLearning,TrialDemandLearning,CueMapping,OnlineRating,OnlineRatingRT,OnlineRatingTimeOut,CueSTART,RatingSTART,OfflineRatingTimePoint,OfflineRatingQuesIndex,CueFigure,TrialDemand,OfflineRating,OfflineRatingRT,CueStart,OfflineRatingStart,PhaseType,CueLeft,CueDemandLeft,CueRight,CueDemandRight,Choice,ChoiceDemand,TaskDemand,ChoiceRT,ChoiceTimeOut,ChoiceSTART,CueCheck,CueDemandCheck,CorrectAnswer,Answer,AnswerDemand,AnswerRT,AnswerACC,AnswerTimeOut,CheckSTART,DemandRatingQuesIndex,QuesTLX,DemandLevel,DemandRating,DemandRatingRT,QuesStart,PID,SONA,Age,Gender,Run,TIME,EXPERIMENTER,frameRate
-1,./instructions/inst_begin/Slide2.png,left,46.7555556,0.359135408,47.11469101,,,,,,,,,,,,,,,,,,,,,,,,,,,,,,,,,1,,,,,,,,,,,,,,,,,,,,,,,,,,,,,,,,,,,,,,,,,,,,,,40,150820,20,Female,1,2024/02/08_11:39:22,YZ,59.92932523
0,./instructions/inst_begin/Slide4.png,right,8.713206476,47.16141246,55.87461894,,,,,,,,,,,,,,,,,,,,,,,,,,,,,,,,,1,,,,,,,,,,,,,,,,,,,,,,,,,,,,,,,,,,,,,,,,,,,,,,40,150820,20,Female,1,2024/02/08_11:39:22,YZ,59.92932523
1,./instructions/inst_begin/Slide2.png,right,6.056524303,55.90564236,61.96216666,,,,,,,,,,,,,,,,,,,,,,,,,,,,,,,,,1,,,,,,,,,,,,,,,,,,,,,,,,,,,,,,,,,,,,,,,,,,,,,,40,150820,20,Female,1,2024/02/08_11:39:22,YZ,59.92932523
2,./instructions/inst_begin/Slide3.png,right,13.8796929,62.01867243,75.89836534,,,,,,,,,,,,,,,,,,,,,,,,,,,,,,,,,1,,,,,,,,,,,,,,,,,,,,,,,,,,,,,,,,,,,,,,,,,,,,,,40,150820,20,Female,1,2024/02/08_11:39:22,YZ,59.92932523
3,./instructions/inst_begin/Slide4.png,right,4.76370582,75.93463387,80.69833969,,,,,,,,,,,,,,,,,,,,,,,,,,,,,,,,,1,,,,,,,,,,,,,,,,,,,,,,,,,,,,,,,,,,,,,,,,,,,,,,40,150820,20,Female,1,2024/02/08_11:39:22,YZ,59.92932523
1,./instructions/inst_prac_2/Slide6.png,right,12.81377964,80.75669576,93.5704754,,,,,,,,,,,,,,,,,,,,,,,,,,,,,,,,,1,,,,,,,,,,,,,,,,,,,,,,,,,,,,,,,,,,,,,,,,,,,,,,40,150820,20,Female,1,2024/02/08_11:39:22,YZ,59.92932523
2,./instructions/inst_prac_2/Slide7.png,right,14.80538659,93.62095385,108.4263404,,,,,,,,,,,,,,,,,,,,,,,,,,,,,,,,,1,,,,,,,,,,,,,,,,,,,,,,,,,,,,,,,,,,,,,,,,,,,,,,40,150820,20,Female,1,2024/02/08_11:39:22,YZ,59.92932523
3,./instructions/inst_prac_2/Slide8.png,right,18.28066732,108.5213737,126.802041,,,,,,,,,,,,,,,,,,,,,,,,,,,,,,,,,1,,,,,,,,,,,,,,,,,,,,,,,,,,,,,,,,,,,,,,,,,,,,,,40,150820,20,Female,1,2024/02/08_11:39:22,YZ,59.92932523
2,./instructions/inst_prac_2/Slide9.png,left,25.1856336,126.8407484,152.026382,,,,,,,,,,,,,,,,,,,,,,,,,,,,,,,,,1,,,,,,,,,,,,,,,,,,,,,,,,,,,,,,,,,,,,,,,,,,,,,,40,150820,20,Female,1,2024/02/08_11:39:22,YZ,59.92932523
1,./instructions/inst_prac_2/Slide8.png,left,2.575429306,152.0587751,154.6342045,,,,,,,,,,,,,,,,,,,,,,,,,,,,,,,,,1,,,,,,,,,,,,,,,,,,,,,,,,,,,,,,,,,,,,,,,,,,,,,,40,150820,20,Female,1,2024/02/08_11:39:22,YZ,59.92932523
0,./instructions/inst_prac_2/Slide7.png,left,1.956870223,154.6696699,156.6265401,,,,,,,,,,,,,,,,,,,,,,,,,,,,,,,,,1,,,,,,,,,,,,,,,,,,,,,,,,,,,,,,,,,,,,,,,,,,,,,,40,150820,20,Female,1,2024/02/08_11:39:22,YZ,59.92932523
1,./instructions/inst_prac_2/Slide6.png,right,3.294437199,156.66008,159.9545172,,,,,,,,,,,,,,,,,,,,,,,,,,,,,,,,,1,,,,,,,,,,,,,,,,,,,,,,,,,,,,,,,,,,,,,,,,,,,,,,40,150820,20,Female,1,2024/02/08_11:39:22,YZ,59.92932523
2,./instructions/inst_prac_2/Slide7.png,right,1.379716292,159.9905261,161.3702423,,,,,,,,,,,,,,,,,,,,,,,,,,,,,,,,,1,,,,,,,,,,,,,,,,,,,,,,,,,,,,,,,,,,,,,,,,,,,,,,40,150820,20,Female,1,2024/02/08_11:39:22,YZ,59.92932523
3,./instructions/inst_prac_2/Slide8.png,right,1.502947996,161.40598,162.908928,,,,,,,,,,,,,,,,,,,,,,,,,,,,,,,,,1,,,,,,,,,,,,,,,,,,,,,,,,,,,,,,,,,,,,,,,,,,,,,,40,150820,20,Female,1,2024/02/08_11:39:22,YZ,59.92932523
4,./instructions/inst_prac_2/Slide9.png,right,0.673667124,162.9447121,163.6183792,,,,,,,,,,,,,,,,,,,,,,,,,,,,,,,,,1,,,,,,,,,,,,,,,,,,,,,,,,,,,,,,,,,,,,,,,,,,,,,,40,150820,20,Female,1,2024/02/08_11:39:22,YZ,59.92932523
5,./instructions/inst_prac_2/Slide10.png,right,2.599397887,163.6748973,166.2742951,,,,,,,,,,,,,,,,,,,,,,,,,,,,,,,,,1,,,,,,,,,,,,,,,,,,,,,,,,,,,,,,,,,,,,,,,,,,,,,,40,150820,20,Female,1,2024/02/08_11:39:22,YZ,59.92932523
6,./instructions/inst_prac_2/Slide11.png,right,1.506618402,166.3113907,167.8180091,,,,,,,,,,,,,,,,,,,,,,,,,,,,,,,,,1,,,,,,,,,,,,,,,,,,,,,,,,,,,,,,,,,,,,,,,,,,,,,,40,150820,20,Female,1,2024/02/08_11:39:22,YZ,59.92932523
7,./instructions/inst_prac_2/Slide12.png,right,1.307076635,167.8631588,169.1702354,,,,,,,,,,,,,,,,,,,,,,,,,,,,,,,,,1,,,,,,,,,,,,,,,,,,,,,,,,,,,,,,,,,,,,,,,,,,,,,,40,150820,20,Female,1,2024/02/08_11:39:22,YZ,59.92932523
8,./instructions/inst_prac_2/Slide13.png,right,1.50344612,169.2189775,170.7224236,,,,,,,,,,,,,,,,,,,,,,,,,,,,,,,,,1,,,,,,,,,,,,,,,,,,,,,,,,,,,,,,,,,,,,,,,,,,,,,,40,150820,20,Female,1,2024/02/08_11:39:22,YZ,59.92932523
9,./instructions/inst_prac_2/Slide14.png,right,14.72683355,170.7555674,185.482401,,,,,,,,,,,,,,,,,,,,,,,,,,,,,,,,,1,,,,,,,,,,,,,,,,,,,,,,,,,,,,,,,,,,,,,,,,,,,,,,40,150820,20,Female,1,2024/02/08_11:39:22,YZ,59.92932523
10,./instructions/inst_prac_2/Slide15.png,right,34.1029164,185.5154424,219.6183588,,,,,,,,,,,,,,,,,,,,,,,,,,,,,,,,,1,,,,,,,,,,,,,,,,,,,,,,,,,,,,,,,,,,,,,,,,,,,,,,40,150820,20,Female,1,2024/02/08_11:39:22,YZ,59.92932523
,,,,,,practice,0,8,2,2583,1,X,0,left,5.711552955,0,0,,,,,,,,,,,,,,,,,,,,,1,,,,,,,,,,,,,,,,,,,,,,,,,,,,,,,,,,,,,,,,,,,,,,40,150820,20,Female,1,2024/02/08_11:39:22,YZ,59.92932523
,,,,,,practice,0,8,2,2583,2,C,0,right,2.546529571,1,0,,,,,,,,,,,,,,,,,,,,,1,,,,,,,,,,,,,,,,,,,,,,,,,,,,,,,,,,,,,,,,,,,,,,40,150820,20,Female,1,2024/02/08_11:39:22,YZ,59.92932523
,,,,,,practice,0,8,2,2583,3,X,1,left,1.260735255,1,0,,,,,,,,,,,,,,,,,,,,,1,,,,,,,,,,,,,,,,,,,,,,,,,,,,,,,,,,,,,,,,,,,,,,40,150820,20,Female,1,2024/02/08_11:39:22,YZ,59.92932523
,,,,,,practice,0,8,2,2583,4,C,1,left,1.51899846,1,0,,,,,,,,,,,,,,,,,,,,,1,,,,,,,,,,,,,,,,,,,,,,,,,,,,,,,,,,,,,,,,,,,,,,40,150820,20,Female,1,2024/02/08_11:39:22,YZ,59.92932523
,,,,,,practice,0,8,2,2583,5,Q,0,right,2.150813819,1,0,,,,,,,,,,,,,,,,,,,,,1,,,,,,,,,,,,,,,,,,,,,,,,,,,,,,,,,,,,,,,,,,,,,,40,150820,20,Female,1,2024/02/08_11:39:22,YZ,59.92932523
,,,,,,practice,0,8,2,2583,6,V,0,right,1.094699873,1,0,,,,,,,,,,,,,,,,,,,,,1,,,,,,,,,,,,,,,,,,,,,,,,,,,,,,,,,,,,,,,,,,,,,,40,150820,20,Female,1,2024/02/08_11:39:22,YZ,59.92932523
,,,,,,practice,0,8,2,2583,,,,,,,,0.9375,1,0.25,0.75,0,0.75,2.380554989,2,1,0,0,0,3,5,2,4,0,,,,1,,,,,,,,,,,,,,,,,,,,,,,,,,,,,,,,,,,,,,,,,,,,,,40,150820,20,Female,1,2024/02/08_11:39:22,YZ,59.92932523
1,./instructions/inst_to_cali/Slide20.png,right,7.94644398,240.8557644,248.8022084,,,,,,,,,,,,,,,,,,,,,,,,,,,,,,,,,1,,,,,,,,,,,,,,,,,,,,,,,,,,,,,,,,,,,,,,,,,,,,,,40,150820,20,Female,1,2024/02/08_11:39:22,YZ,59.92932523
1,./instructions/inst_cali/Slide22.png,right,15.07625757,248.8620023,263.9382598,,,,,,,,,,,,,,,,,,,,,,,,,,,,,,,,,1,,,,,,,,,,,,,,,,,,,,,,,,,,,,,,,,,,,,,,,,,,,,,,40,150820,20,Female,1,2024/02/08_11:39:22,YZ,59.92932523
,,,,,,calibration,0,36,2,583,1,S,0,right,1.144288317,1,0,,,,,,,,,,,,,,,,,,,,,1,,,,,,,,,,,,,,,,,,,,,,,,,,,,,,,,,,,,,,,,,,,,,,40,150820,20,Female,1,2024/02/08_11:39:22,YZ,59.92932523
,,,,,,calibration,0,36,2,583,2,Q,0,right,0.689025084,1,0,,,,,,,,,,,,,,,,,,,,,1,,,,,,,,,,,,,,,,,,,,,,,,,,,,,,,,,,,,,,,,,,,,,,40,150820,20,Female,1,2024/02/08_11:39:22,YZ,59.92932523
,,,,,,calibration,0,36,2,583,3,C,0,right,0.439691999,1,0,,,,,,,,,,,,,,,,,,,,,1,,,,,,,,,,,,,,,,,,,,,,,,,,,,,,,,,,,,,,,,,,,,,,40,150820,20,Female,1,2024/02/08_11:39:22,YZ,59.92932523
,,,,,,calibration,0,36,2,583,4,Q,1,right,nan,0,1,,,,,,,,,,,,,,,,,,,,,1,,,,,,,,,,,,,,,,,,,,,,,,,,,,,,,,,,,,,,,,,,,,,,40,150820,20,Female,1,2024/02/08_11:39:22,YZ,59.92932523
,,,,,,calibration,0,36,2,583,5,N,0,right,0.513548046,1,0,,,,,,,,,,,,,,,,,,,,,1,,,,,,,,,,,,,,,,,,,,,,,,,,,,,,,,,,,,,,,,,,,,,,40,150820,20,Female,1,2024/02/08_11:39:22,YZ,59.92932523
,,,,,,calibration,0,36,2,583,6,X,0,right,0.491580067,1,0,,,,,,,,,,,,,,,,,,,,,1,,,,,,,,,,,,,,,,,,,,,,,,,,,,,,,,,,,,,,,,,,,,,,40,150820,20,Female,1,2024/02/08_11:39:22,YZ,59.92932523
,,,,,,calibration,0,36,2,583,7,F,0,right,0.457599236,1,0,,,,,,,,,,,,,,,,,,,,,1,,,,,,,,,,,,,,,,,,,,,,,,,,,,,,,,,,,,,,,,,,,,,,40,150820,20,Female,1,2024/02/08_11:39:22,YZ,59.92932523
,,,,,,calibration,0,36,2,583,8,S,0,right,0.474473619,1,0,,,,,,,,,,,,,,,,,,,,,1,,,,,,,,,,,,,,,,,,,,,,,,,,,,,,,,,,,,,,,,,,,,,,40,150820,20,Female,1,2024/02/08_11:39:22,YZ,59.92932523
,,,,,,calibration,0,36,2,583,9,F,1,right,0.42586979,0,0,,,,,,,,,,,,,,,,,,,,,1,,,,,,,,,,,,,,,,,,,,,,,,,,,,,,,,,,,,,,,,,,,,,,40,150820,20,Female,1,2024/02/08_11:39:22,YZ,59.92932523
,,,,,,calibration,0,36,2,583,10,V,0,right,0.610406349,1,0,,,,,,,,,,,,,,,,,,,,,1,,,,,,,,,,,,,,,,,,,,,,,,,,,,,,,,,,,,,,,,,,,,,,40,150820,20,Female,1,2024/02/08_11:39:22,YZ,59.92932523
,,,,,,calibration,0,36,2,583,11,C,0,right,0.447458195,1,0,,,,,,,,,,,,,,,,,,,,,1,,,,,,,,,,,,,,,,,,,,,,,,,,,,,,,,,,,,,,,,,,,,,,40,150820,20,Female,1,2024/02/08_11:39:22,YZ,59.92932523
,,,,,,calibration,0,36,2,583,12,V,1,right,0.409377878,0,0,,,,,,,,,,,,,,,,,,,,,1,,,,,,,,,,,,,,,,,,,,,,,,,,,,,,,,,,,,,,,,,,,,,,40,150820,20,Female,1,2024/02/08_11:39:22,YZ,59.92932523
,,,,,,calibration,0,36,2,583,13,C,1,left,0.687251818,1,0,,,,,,,,,,,,,,,,,,,,,1,,,,,,,,,,,,,,,,,,,,,,,,,,,,,,,,,,,,,,,,,,,,,,40,150820,20,Female,1,2024/02/08_11:39:22,YZ,59.92932523
,,,,,,calibration,0,36,2,583,14,F,0,right,0.660341029,1,0,,,,,,,,,,,,,,,,,,,,,1,,,,,,,,,,,,,,,,,,,,,,,,,,,,,,,,,,,,,,,,,,,,,,40,150820,20,Female,1,2024/02/08_11:39:22,YZ,59.92932523
,,,,,,calibration,0,36,2,583,15,C,1,left,0.483508822,1,0,,,,,,,,,,,,,,,,,,,,,1,,,,,,,,,,,,,,,,,,,,,,,,,,,,,,,,,,,,,,,,,,,,,,40,150820,20,Female,1,2024/02/08_11:39:22,YZ,59.92932523
,,,,,,calibration,0,36,2,583,,,,,,,,0.85,0.4,0,1,0.066666667,0.933333333,0.566744304,2,0,1,0,1,10,12,5,10,0,,,,1,,,,,,,,,,,,,,,,,,,,,,,,,,,,,,,,,,,,,,,,,,,,,,40,150820,20,Female,1,2024/02/08_11:39:22,YZ,59.92932523
,,,,,,Calibration,0,,2,583,,,,,,,,,,,,,,,,,,,,,,,,,1,,,1,,,,,,,,,,,,,,,,,,,,,,,,,,,,,,,,,,,,,,,,,,,,,,40,150820,20,Female,1,2024/02/08_11:39:22,YZ,59.92932523
,,,,,,calibration,0,6,2,583,1,J,0,right,1.432763478,1,0,,,,,,,,,,,,,,,,,,,,,1,,,,,,,,,,,,,,,,,,,,,,,,,,,,,,,,,,,,,,,,,,,,,,40,150820,20,Female,1,2024/02/08_11:39:22,YZ,59.92932523
,,,,,,calibration,0,6,2,583,2,S,0,right,0.676798931,1,0,,,,,,,,,,,,,,,,,,,,,1,,,,,,,,,,,,,,,,,,,,,,,,,,,,,,,,,,,,,,,,,,,,,,40,150820,20,Female,1,2024/02/08_11:39:22,YZ,59.92932523
,,,,,,calibration,0,6,2,583,3,C,0,right,0.452485113,1,0,,,,,,,,,,,,,,,,,,,,,1,,,,,,,,,,,,,,,,,,,,,,,,,,,,,,,,,,,,,,,,,,,,,,40,150820,20,Female,1,2024/02/08_11:39:22,YZ,59.92932523
,,,,,,calibration,0,6,2,583,4,J,0,left,0.597210297,0,0,,,,,,,,,,,,,,,,,,,,,1,,,,,,,,,,,,,,,,,,,,,,,,,,,,,,,,,,,,,,,,,,,,,,40,150820,20,Female,1,2024/02/08_11:39:22,YZ,59.92932523
,,,,,,calibration,0,6,2,583,5,N,0,right,0.370890805,1,0,,,,,,,,,,,,,,,,,,,,,1,,,,,,,,,,,,,,,,,,,,,,,,,,,,,,,,,,,,,,,,,,,,,,40,150820,20,Female,1,2024/02/08_11:39:22,YZ,59.92932523
,,,,,,calibration,0,6,2,583,6,J,1,left,0.528871276,1,0,,,,,,,,,,,,,,,,,,,,,1,,,,,,,,,,,,,,,,,,,,,,,,,,,,,,,,,,,,,,,,,,,,,,40,150820,20,Female,1,2024/02/08_11:39:22,YZ,59.92932523
,,,,,,calibration,0,6,2,583,7,N,1,right,0.341296691,0,0,,,,,,,,,,,,,,,,,,,,,1,,,,,,,,,,,,,,,,,,,,,,,,,,,,,,,,,,,,,,,,,,,,,,40,150820,20,Female,1,2024/02/08_11:39:22,YZ,59.92932523
,,,,,,calibration,0,6,2,583,8,V,0,right,0.495322257,1,0,,,,,,,,,,,,,,,,,,,,,1,,,,,,,,,,,,,,,,,,,,,,,,,,,,,,,,,,,,,,,,,,,,,,40,150820,20,Female,1,2024/02/08_11:39:22,YZ,59.92932523
,,,,,,calibration,0,6,2,583,9,N,1,left,0.552265361,1,0,,,,,,,,,,,,,,,,,,,,,1,,,,,,,,,,,,,,,,,,,,,,,,,,,,,,,,,,,,,,,,,,,,,,40,150820,20,Female,1,2024/02/08_11:39:22,YZ,59.92932523
,,,,,,calibration,0,6,2,583,10,F,0,right,0.386986196,1,0,,,,,,,,,,,,,,,,,,,,,1,,,,,,,,,,,,,,,,,,,,,,,,,,,,,,,,,,,,,,,,,,,,,,40,150820,20,Female,1,2024/02/08_11:39:22,YZ,59.92932523
,,,,,,calibration,0,6,2,583,11,X,0,right,0.578144351,1,0,,,,,,,,,,,,,,,,,,,,,1,,,,,,,,,,,,,,,,,,,,,,,,,,,,,,,,,,,,,,,,,,,,,,40,150820,20,Female,1,2024/02/08_11:39:22,YZ,59.92932523
,,,,,,calibration,0,6,2,583,12,J,0,right,0.513101781,1,0,,,,,,,,,,,,,,,,,,,,,1,,,,,,,,,,,,,,,,,,,,,,,,,,,,,,,,,,,,,,,,,,,,,,40,150820,20,Female,1,2024/02/08_11:39:22,YZ,59.92932523
,,,,,,calibration,0,6,2,583,13,X,1,right,0.610671831,0,0,,,,,,,,,,,,,,,,,,,,,1,,,,,,,,,,,,,,,,,,,,,,,,,,,,,,,,,,,,,,,,,,,,,,40,150820,20,Female,1,2024/02/08_11:39:22,YZ,59.92932523
,,,,,,calibration,0,6,2,583,14,J,1,left,0.51345696,1,0,,,,,,,,,,,,,,,,,,,,,1,,,,,,,,,,,,,,,,,,,,,,,,,,,,,,,,,,,,,,,,,,,,,,40,150820,20,Female,1,2024/02/08_11:39:22,YZ,59.92932523
,,,,,,calibration,0,6,2,583,15,Q,0,right,0.435882245,1,0,,,,,,,,,,,,,,,,,,,,,1,,,,,,,,,,,,,,,,,,,,,,,,,,,,,,,,,,,,,,,,,,,,,,40,150820,20,Female,1,2024/02/08_11:39:22,YZ,59.92932523
,,,,,,calibration,0,6,2,583,,,,,,,,0.835,0.6,0.1,0.9,0,0.9,0.565743172,3,1,0,0,0,9,12,5,10,0,,,,1,,,,,,,,,,,,,,,,,,,,,,,,,,,,,,,,,,,,,,,,,,,,,,40,150820,20,Female,1,2024/02/08_11:39:22,YZ,59.92932523
,,,,,,Calibration,0,,2,583,,,,,,,,,,,,,,,,,,,,,,,,,2,,,1,,,,,,,,,,,,,,,,,,,,,,,,,,,,,,,,,,,,,,,,,,,,,,40,150820,20,Female,1,2024/02/08_11:39:22,YZ,59.92932523
,,,,,,calibration,0,29,2,583,1,X,0,right,0.832895083,1,0,,,,,,,,,,,,,,,,,,,,,1,,,,,,,,,,,,,,,,,,,,,,,,,,,,,,,,,,,,,,,,,,,,,,40,150820,20,Female,1,2024/02/08_11:39:22,YZ,59.92932523
,,,,,,calibration,0,29,2,583,2,Q,0,right,0.513626142,1,0,,,,,,,,,,,,,,,,,,,,,1,,,,,,,,,,,,,,,,,,,,,,,,,,,,,,,,,,,,,,,,,,,,,,40,150820,20,Female,1,2024/02/08_11:39:22,YZ,59.92932523
,,,,,,calibration,0,29,2,583,3,F,0,right,0.408875471,1,0,,,,,,,,,,,,,,,,,,,,,1,,,,,,,,,,,,,,,,,,,,,,,,,,,,,,,,,,,,,,,,,,,,,,40,150820,20,Female,1,2024/02/08_11:39:22,YZ,59.92932523
,,,,,,calibration,0,29,2,583,4,Q,1,left,0.593453572,1,0,,,,,,,,,,,,,,,,,,,,,1,,,,,,,,,,,,,,,,,,,,,,,,,,,,,,,,,,,,,,,,,,,,,,40,150820,20,Female,1,2024/02/08_11:39:22,YZ,59.92932523
,,,,,,calibration,0,29,2,583,5,N,0,right,0.316178905,1,0,,,,,,,,,,,,,,,,,,,,,1,,,,,,,,,,,,,,,,,,,,,,,,,,,,,,,,,,,,,,,,,,,,,,40,150820,20,Female,1,2024/02/08_11:39:22,YZ,59.92932523
,,,,,,calibration,0,29,2,583,6,S,0,right,0.513385286,1,0,,,,,,,,,,,,,,,,,,,,,1,,,,,,,,,,,,,,,,,,,,,,,,,,,,,,,,,,,,,,,,,,,,,,40,150820,20,Female,1,2024/02/08_11:39:22,YZ,59.92932523
,,,,,,calibration,0,29,2,583,7,N,1,left,0.455765863,1,0,,,,,,,,,,,,,,,,,,,,,1,,,,,,,,,,,,,,,,,,,,,,,,,,,,,,,,,,,,,,,,,,,,,,40,150820,20,Female,1,2024/02/08_11:39:22,YZ,59.92932523
,,,,,,calibration,0,29,2,583,8,Q,0,right,0.447239489,1,0,,,,,,,,,,,,,,,,,,,,,1,,,,,,,,,,,,,,,,,,,,,,,,,,,,,,,,,,,,,,,,,,,,,,40,150820,20,Female,1,2024/02/08_11:39:22,YZ,59.92932523
,,,,,,calibration,0,29,2,583,9,V,0,right,0.485023038,1,0,,,,,,,,,,,,,,,,,,,,,1,,,,,,,,,,,,,,,,,,,,,,,,,,,,,,,,,,,,,,,,,,,,,,40,150820,20,Female,1,2024/02/08_11:39:22,YZ,59.92932523
,,,,,,calibration,0,29,2,583,10,N,0,left,0.651846178,0,0,,,,,,,,,,,,,,,,,,,,,1,,,,,,,,,,,,,,,,,,,,,,,,,,,,,,,,,,,,,,,,,,,,,,40,150820,20,Female,1,2024/02/08_11:39:22,YZ,59.92932523
,,,,,,calibration,0,29,2,583,11,V,1,right,0.366856386,0,0,,,,,,,,,,,,,,,,,,,,,1,,,,,,,,,,,,,,,,,,,,,,,,,,,,,,,,,,,,,,,,,,,,,,40,150820,20,Female,1,2024/02/08_11:39:22,YZ,59.92932523
,,,,,,calibration,0,29,2,583,12,X,0,right,0.613384884,1,0,,,,,,,,,,,,,,,,,,,,,1,,,,,,,,,,,,,,,,,,,,,,,,,,,,,,,,,,,,,,,,,,,,,,40,150820,20,Female,1,2024/02/08_11:39:22,YZ,59.92932523
,,,,,,calibration,0,29,2,583,13,C,0,right,0.395049944,1,0,,,,,,,,,,,,,,,,,,,,,1,,,,,,,,,,,,,,,,,,,,,,,,,,,,,,,,,,,,,,,,,,,,,,40,150820,20,Female,1,2024/02/08_11:39:22,YZ,59.92932523
,,,,,,calibration,0,29,2,583,14,X,1,right,0.391562369,0,0,,,,,,,,,,,,,,,,,,,,,1,,,,,,,,,,,,,,,,,,,,,,,,,,,,,,,,,,,,,,,,,,,,,,40,150820,20,Female,1,2024/02/08_11:39:22,YZ,59.92932523
,,,,,,calibration,0,29,2,583,15,V,0,right,0.389623579,1,0,,,,,,,,,,,,,,,,,,,,,1,,,,,,,,,,,,,,,,,,,,,,,,,,,,,,,,,,,,,,,,,,,,,,40,150820,20,Female,1,2024/02/08_11:39:22,YZ,59.92932523
,,,,,,calibration,0,29,2,583,,,,,,,,0.806818182,0.5,0.090909091,0.909090909,0,0.909090909,0.491651079,2,1,0,0,0,10,12,4,11,0,,,,1,,,,,,,,,,,,,,,,,,,,,,,,,,,,,,,,,,,,,,,,,,,,,,40,150820,20,Female,1,2024/02/08_11:39:22,YZ,59.92932523
,,,,,,Calibration,0,,2,583,,,,,,,,,,,,,,,,,,,,,,,,,3,,,1,,,,,,,,,,,,,,,,,,,,,,,,,,,,,,,,,,,,,,,,,,,,,,40,150820,20,Female,1,2024/02/08_11:39:22,YZ,59.92932523
,,,,,,calibration,0,3,2,583,1,F,0,right,0.363290286,1,0,,,,,,,,,,,,,,,,,,,,,1,,,,,,,,,,,,,,,,,,,,,,,,,,,,,,,,,,,,,,,,,,,,,,40,150820,20,Female,1,2024/02/08_11:39:22,YZ,59.92932523
,,,,,,calibration,0,3,2,583,2,S,0,right,0.84649411,1,0,,,,,,,,,,,,,,,,,,,,,1,,,,,,,,,,,,,,,,,,,,,,,,,,,,,,,,,,,,,,,,,,,,,,40,150820,20,Female,1,2024/02/08_11:39:22,YZ,59.92932523
,,,,,,calibration,0,3,2,583,3,V,0,right,0.438968608,1,0,,,,,,,,,,,,,,,,,,,,,1,,,,,,,,,,,,,,,,,,,,,,,,,,,,,,,,,,,,,,,,,,,,,,40,150820,20,Female,1,2024/02/08_11:39:22,YZ,59.92932523
,,,,,,calibration,0,3,2,583,4,S,1,left,0.61080457,1,0,,,,,,,,,,,,,,,,,,,,,1,,,,,,,,,,,,,,,,,,,,,,,,,,,,,,,,,,,,,,,,,,,,,,40,150820,20,Female,1,2024/02/08_11:39:22,YZ,59.92932523
,,,,,,calibration,0,3,2,583,5,F,0,right,0.305706546,1,0,,,,,,,,,,,,,,,,,,,,,1,,,,,,,,,,,,,,,,,,,,,,,,,,,,,,,,,,,,,,,,,,,,,,40,150820,20,Female,1,2024/02/08_11:39:22,YZ,59.92932523
,,,,,,calibration,0,3,2,583,6,C,0,right,0.51350551,1,0,,,,,,,,,,,,,,,,,,,,,1,,,,,,,,,,,,,,,,,,,,,,,,,,,,,,,,,,,,,,,,,,,,,,40,150820,20,Female,1,2024/02/08_11:39:22,YZ,59.92932523
,,,,,,calibration,0,3,2,583,7,Q,0,right,0.395858489,1,0,,,,,,,,,,,,,,,,,,,,,1,,,,,,,,,,,,,,,,,,,,,,,,,,,,,,,,,,,,,,,,,,,,,,40,150820,20,Female,1,2024/02/08_11:39:22,YZ,59.92932523
,,,,,,calibration,0,3,2,583,8,C,1,left,0.439675059,1,0,,,,,,,,,,,,,,,,,,,,,1,,,,,,,,,,,,,,,,,,,,,,,,,,,,,,,,,,,,,,,,,,,,,,40,150820,20,Female,1,2024/02/08_11:39:22,YZ,59.92932523
,,,,,,calibration,0,3,2,583,9,V,0,right,0.317258139,1,0,,,,,,,,,,,,,,,,,,,,,1,,,,,,,,,,,,,,,,,,,,,,,,,,,,,,,,,,,,,,,,,,,,,,40,150820,20,Female,1,2024/02/08_11:39:22,YZ,59.92932523
,,,,,,calibration,0,3,2,583,10,C,1,left,0.513578185,1,0,,,,,,,,,,,,,,,,,,,,,1,,,,,,,,,,,,,,,,,,,,,,,,,,,,,,,,,,,,,,,,,,,,,,40,150820,20,Female,1,2024/02/08_11:39:22,YZ,59.92932523
,,,,,,calibration,0,3,2,583,11,V,1,right,0.312886226,0,0,,,,,,,,,,,,,,,,,,,,,1,,,,,,,,,,,,,,,,,,,,,,,,,,,,,,,,,,,,,,,,,,,,,,40,150820,20,Female,1,2024/02/08_11:39:22,YZ,59.92932523
,,,,,,calibration,0,3,2,583,12,J,0,right,0.49559228,1,0,,,,,,,,,,,,,,,,,,,,,1,,,,,,,,,,,,,,,,,,,,,,,,,,,,,,,,,,,,,,,,,,,,,,40,150820,20,Female,1,2024/02/08_11:39:22,YZ,59.92932523
,,,,,,calibration,0,3,2,583,13,Q,0,right,0.485006863,1,0,,,,,,,,,,,,,,,,,,,,,1,,,,,,,,,,,,,,,,,,,,,,,,,,,,,,,,,,,,,,,,,,,,,,40,150820,20,Female,1,2024/02/08_11:39:22,YZ,59.92932523
,,,,,,calibration,0,3,2,583,14,F,0,right,0.562115034,1,0,,,,,,,,,,,,,,,,,,,,,1,,,,,,,,,,,,,,,,,,,,,,,,,,,,,,,,,,,,,,,,,,,,,,40,150820,20,Female,1,2024/02/08_11:39:22,YZ,59.92932523
,,,,,,calibration,0,3,2,583,15,C,0,right,0.463643112,1,0,,,,,,,,,,,,,,,,,,,,,1,,,,,,,,,,,,,,,,,,,,,,,,,,,,,,,,,,,,,,,,,,,,,,40,150820,20,Female,1,2024/02/08_11:39:22,YZ,59.92932523
,,,,,,calibration,0,3,2,583,,,,,,,,0.9375,0.75,0,1,0,1,0.470958868,3,0,0,0,0,11,14,4,11,0,,,,1,,,,,,,,,,,,,,,,,,,,,,,,,,,,,,,,,,,,,,,,,,,,,,40,150820,20,Female,1,2024/02/08_11:39:22,YZ,59.92932523
,,,,,,Calibration,0,,2,583,,,,,,,,,,,,,,,,,,,,,,,,,4,,,1,,,,,,,,,,,,,,,,,,,,,,,,,,,,,,,,,,,,,,,,,,,,,,40,150820,20,Female,1,2024/02/08_11:39:22,YZ,59.92932523
,,,,,,calibration,0,15,2,500,1,C,0,right,0.513372697,1,0,,,,,,,,,,,,,,,,,,,,,1,,,,,,,,,,,,,,,,,,,,,,,,,,,,,,,,,,,,,,,,,,,,,,40,150820,20,Female,1,2024/02/08_11:39:22,YZ,59.92932523
,,,,,,calibration,0,15,2,500,2,V,0,right,0.357438312,1,0,,,,,,,,,,,,,,,,,,,,,1,,,,,,,,,,,,,,,,,,,,,,,,,,,,,,,,,,,,,,,,,,,,,,40,150820,20,Female,1,2024/02/08_11:39:22,YZ,59.92932523
,,,,,,calibration,0,15,2,500,3,C,1,left,0.408596327,1,0,,,,,,,,,,,,,,,,,,,,,1,,,,,,,,,,,,,,,,,,,,,,,,,,,,,,,,,,,,,,,,,,,,,,40,150820,20,Female,1,2024/02/08_11:39:22,YZ,59.92932523
,,,,,,calibration,0,15,2,500,4,S,0,right,0.378454721,1,0,,,,,,,,,,,,,,,,,,,,,1,,,,,,,,,,,,,,,,,,,,,,,,,,,,,,,,,,,,,,,,,,,,,,40,150820,20,Female,1,2024/02/08_11:39:22,YZ,59.92932523
,,,,,,calibration,0,15,2,500,5,X,0,right,0.541151828,1,0,,,,,,,,,,,,,,,,,,,,,1,,,,,,,,,,,,,,,,,,,,,,,,,,,,,,,,,,,,,,,,,,,,,,40,150820,20,Female,1,2024/02/08_11:39:22,YZ,59.92932523
,,,,,,calibration,0,15,2,500,6,S,1,left,0.44963984,1,0,,,,,,,,,,,,,,,,,,,,,1,,,,,,,,,,,,,,,,,,,,,,,,,,,,,,,,,,,,,,,,,,,,,,40,150820,20,Female,1,2024/02/08_11:39:22,YZ,59.92932523
,,,,,,calibration,0,15,2,500,7,X,1,right,0.31707053,0,0,,,,,,,,,,,,,,,,,,,,,1,,,,,,,,,,,,,,,,,,,,,,,,,,,,,,,,,,,,,,,,,,,,,,40,150820,20,Female,1,2024/02/08_11:39:22,YZ,59.92932523
,,,,,,calibration,0,15,2,500,8,N,0,right,0.42108634,1,0,,,,,,,,,,,,,,,,,,,,,1,,,,,,,,,,,,,,,,,,,,,,,,,,,,,,,,,,,,,,,,,,,,,,40,150820,20,Female,1,2024/02/08_11:39:22,YZ,59.92932523
,,,,,,calibration,0,15,2,500,9,S,0,right,nan,0,1,,,,,,,,,,,,,,,,,,,,,1,,,,,,,,,,,,,,,,,,,,,,,,,,,,,,,,,,,,,,,,,,,,,,40,150820,20,Female,1,2024/02/08_11:39:22,YZ,59.92932523
,,,,,,calibration,0,15,2,500,10,J,0,right,nan,0,1,,,,,,,,,,,,,,,,,,,,,1,,,,,,,,,,,,,,,,,,,,,,,,,,,,,,,,,,,,,,,,,,,,,,40,150820,20,Female,1,2024/02/08_11:39:22,YZ,59.92932523
,,,,,,calibration,0,15,2,500,11,S,1,right,0.365694753,0,0,,,,,,,,,,,,,,,,,,,,,1,,,,,,,,,,,,,,,,,,,,,,,,,,,,,,,,,,,,,,,,,,,,,,40,150820,20,Female,1,2024/02/08_11:39:22,YZ,59.92932523
,,,,,,calibration,0,15,2,500,12,V,0,right,0.325772906,1,0,,,,,,,,,,,,,,,,,,,,,1,,,,,,,,,,,,,,,,,,,,,,,,,,,,,,,,,,,,,,,,,,,,,,40,150820,20,Female,1,2024/02/08_11:39:22,YZ,59.92932523
,,,,,,calibration,0,15,2,500,13,F,0,right,0.445445003,1,0,,,,,,,,,,,,,,,,,,,,,1,,,,,,,,,,,,,,,,,,,,,,,,,,,,,,,,,,,,,,,,,,,,,,40,150820,20,Female,1,2024/02/08_11:39:22,YZ,59.92932523
,,,,,,calibration,0,15,2,500,14,V,1,left,0.688441121,1,0,,,,,,,,,,,,,,,,,,,,,1,,,,,,,,,,,,,,,,,,,,,,,,,,,,,,,,,,,,,,,,,,,,,,40,150820,20,Female,1,2024/02/08_11:39:22,YZ,59.92932523
,,,,,,calibration,0,15,2,500,15,X,0,right,0.435539281,1,0,,,,,,,,,,,,,,,,,,,,,1,,,,,,,,,,,,,,,,,,,,,,,,,,,,,,,,,,,,,,,,,,,,,,40,150820,20,Female,1,2024/02/08_11:39:22,YZ,59.92932523
,,,,,,calibration,0,15,2,500,16,J,0,right,0.493828524,1,0,,,,,,,,,,,,,,,,,,,,,1,,,,,,,,,,,,,,,,,,,,,,,,,,,,,,,,,,,,,,,,,,,,,,40,150820,20,Female,1,2024/02/08_11:39:22,YZ,59.92932523
,,,,,,calibration,0,15,2,500,,,,,,,,0.9,0.6,0,1,0.125,0.875,0.43868087,3,0,0,2,2,9,12,5,11,0,,,,1,,,,,,,,,,,,,,,,,,,,,,,,,,,,,,,,,,,,,,,,,,,,,,40,150820,20,Female,1,2024/02/08_11:39:22,YZ,59.92932523
,,,,,,Calibration,0,,2,500,,,,,,,,,,,,,,,,,,,,,,,,,5,,,1,,,,,,,,,,,,,,,,,,,,,,,,,,,,,,,,,,,,,,,,,,,,,,40,150820,20,Female,1,2024/02/08_11:39:22,YZ,59.92932523
,,,,,,calibration,0,33,2,426,1,S,0,right,0.437643698,1,0,,,,,,,,,,,,,,,,,,,,,1,,,,,,,,,,,,,,,,,,,,,,,,,,,,,,,,,,,,,,,,,,,,,,40,150820,20,Female,1,2024/02/08_11:39:22,YZ,59.92932523
,,,,,,calibration,0,33,2,426,2,Q,0,right,0.405874538,1,0,,,,,,,,,,,,,,,,,,,,,1,,,,,,,,,,,,,,,,,,,,,,,,,,,,,,,,,,,,,,,,,,,,,,40,150820,20,Female,1,2024/02/08_11:39:22,YZ,59.92932523
,,,,,,calibration,0,33,2,426,3,J,0,right,0.446671649,1,0,,,,,,,,,,,,,,,,,,,,,1,,,,,,,,,,,,,,,,,,,,,,,,,,,,,,,,,,,,,,,,,,,,,,40,150820,20,Female,1,2024/02/08_11:39:22,YZ,59.92932523
,,,,,,calibration,0,33,2,426,4,S,0,right,0.986849221,1,0,,,,,,,,,,,,,,,,,,,,,1,,,,,,,,,,,,,,,,,,,,,,,,,,,,,,,,,,,,,,,,,,,,,,40,150820,20,Female,1,2024/02/08_11:39:22,YZ,59.92932523
,,,,,,calibration,0,33,2,426,5,V,0,right,0.465978821,1,0,,,,,,,,,,,,,,,,,,,,,1,,,,,,,,,,,,,,,,,,,,,,,,,,,,,,,,,,,,,,,,,,,,,,40,150820,20,Female,1,2024/02/08_11:39:22,YZ,59.92932523
,,,,,,calibration,0,33,2,426,6,F,0,right,0.683695463,1,0,,,,,,,,,,,,,,,,,,,,,1,,,,,,,,,,,,,,,,,,,,,,,,,,,,,,,,,,,,,,,,,,,,,,40,150820,20,Female,1,2024/02/08_11:39:22,YZ,59.92932523
,,,,,,calibration,0,33,2,426,7,V,1,left,0.366222688,1,0,,,,,,,,,,,,,,,,,,,,,1,,,,,,,,,,,,,,,,,,,,,,,,,,,,,,,,,,,,,,,,,,,,,,40,150820,20,Female,1,2024/02/08_11:39:22,YZ,59.92932523
,,,,,,calibration,0,33,2,426,8,F,1,left,0.879951406,1,0,,,,,,,,,,,,,,,,,,,,,1,,,,,,,,,,,,,,,,,,,,,,,,,,,,,,,,,,,,,,,,,,,,,,40,150820,20,Female,1,2024/02/08_11:39:22,YZ,59.92932523
,,,,,,calibration,0,33,2,426,9,Q,0,right,0.61215797,1,0,,,,,,,,,,,,,,,,,,,,,1,,,,,,,,,,,,,,,,,,,,,,,,,,,,,,,,,,,,,,,,,,,,,,40,150820,20,Female,1,2024/02/08_11:39:22,YZ,59.92932523
,,,,,,calibration,0,33,2,426,10,N,0,right,0.609648542,1,0,,,,,,,,,,,,,,,,,,,,,1,,,,,,,,,,,,,,,,,,,,,,,,,,,,,,,,,,,,,,,,,,,,,,40,150820,20,Female,1,2024/02/08_11:39:22,YZ,59.92932523
,,,,,,calibration,0,33,2,426,11,X,0,right,0.528252467,1,0,,,,,,,,,,,,,,,,,,,,,1,,,,,,,,,,,,,,,,,,,,,,,,,,,,,,,,,,,,,,,,,,,,,,40,150820,20,Female,1,2024/02/08_11:39:22,YZ,59.92932523
,,,,,,calibration,0,33,2,426,12,J,0,right,0.560663891,1,0,,,,,,,,,,,,,,,,,,,,,1,,,,,,,,,,,,,,,,,,,,,,,,,,,,,,,,,,,,,,,,,,,,,,40,150820,20,Female,1,2024/02/08_11:39:22,YZ,59.92932523
,,,,,,calibration,0,33,2,426,13,X,1,left,0.863299595,1,0,,,,,,,,,,,,,,,,,,,,,1,,,,,,,,,,,,,,,,,,,,,,,,,,,,,,,,,,,,,,,,,,,,,,40,150820,20,Female,1,2024/02/08_11:39:22,YZ,59.92932523
,,,,,,calibration,0,33,2,426,14,C,0,right,0.40740973,1,0,,,,,,,,,,,,,,,,,,,,,1,,,,,,,,,,,,,,,,,,,,,,,,,,,,,,,,,,,,,,,,,,,,,,40,150820,20,Female,1,2024/02/08_11:39:22,YZ,59.92932523
,,,,,,calibration,0,33,2,426,15,Q,0,right,0.874623295,1,0,,,,,,,,,,,,,,,,,,,,,1,,,,,,,,,,,,,,,,,,,,,,,,,,,,,,,,,,,,,,,,,,,,,,40,150820,20,Female,1,2024/02/08_11:39:22,YZ,59.92932523
,,,,,,calibration,0,33,2,426,16,C,1,right,0.423181479,0,0,,,,,,,,,,,,,,,,,,,,,1,,,,,,,,,,,,,,,,,,,,,,,,,,,,,,,,,,,,,,,,,,,,,,40,150820,20,Female,1,2024/02/08_11:39:22,YZ,59.92932523
,,,,,,calibration,0,33,2,426,17,Q,1,left,0.697328785,1,0,,,,,,,,,,,,,,,,,,,,,1,,,,,,,,,,,,,,,,,,,,,,,,,,,,,,,,,,,,,,,,,,,,,,40,150820,20,Female,1,2024/02/08_11:39:22,YZ,59.92932523
,,,,,,calibration,0,33,2,426,,,,,,,,0.95,0.8,0,1,0,1,0.602909014,4,0,0,0,0,12,16,5,12,0,,,,1,,,,,,,,,,,,,,,,,,,,,,,,,,,,,,,,,,,,,,,,,,,,,,40,150820,20,Female,1,2024/02/08_11:39:22,YZ,59.92932523
,,,,,,Calibration,0,,2,426,,,,,,,,,,,,,,,,,,,,,,,,,6,,,1,,,,,,,,,,,,,,,,,,,,,,,,,,,,,,,,,,,,,,,,,,,,,,40,150820,20,Female,1,2024/02/08_11:39:22,YZ,59.92932523
,,,,,,calibration,0,12,2,361,1,V,0,right,0.435360277,1,0,,,,,,,,,,,,,,,,,,,,,1,,,,,,,,,,,,,,,,,,,,,,,,,,,,,,,,,,,,,,,,,,,,,,40,150820,20,Female,1,2024/02/08_11:39:22,YZ,59.92932523
,,,,,,calibration,0,12,2,361,2,X,0,right,0.31686941,1,0,,,,,,,,,,,,,,,,,,,,,1,,,,,,,,,,,,,,,,,,,,,,,,,,,,,,,,,,,,,,,,,,,,,,40,150820,20,Female,1,2024/02/08_11:39:22,YZ,59.92932523
,,,,,,calibration,0,12,2,361,3,C,0,right,0.416458142,1,0,,,,,,,,,,,,,,,,,,,,,1,,,,,,,,,,,,,,,,,,,,,,,,,,,,,,,,,,,,,,,,,,,,,,40,150820,20,Female,1,2024/02/08_11:39:22,YZ,59.92932523
,,,,,,calibration,0,12,2,361,4,X,1,right,0.439993973,0,0,,,,,,,,,,,,,,,,,,,,,1,,,,,,,,,,,,,,,,,,,,,,,,,,,,,,,,,,,,,,,,,,,,,,40,150820,20,Female,1,2024/02/08_11:39:22,YZ,59.92932523
,,,,,,calibration,0,12,2,361,5,J,0,right,0.418330157,1,0,,,,,,,,,,,,,,,,,,,,,1,,,,,,,,,,,,,,,,,,,,,,,,,,,,,,,,,,,,,,,,,,,,,,40,150820,20,Female,1,2024/02/08_11:39:22,YZ,59.92932523
,,,,,,calibration,0,12,2,361,6,Q,0,right,0.444925744,1,0,,,,,,,,,,,,,,,,,,,,,1,,,,,,,,,,,,,,,,,,,,,,,,,,,,,,,,,,,,,,,,,,,,,,40,150820,20,Female,1,2024/02/08_11:39:22,YZ,59.92932523
,,,,,,calibration,0,12,2,361,7,J,1,left,0.610964544,1,0,,,,,,,,,,,,,,,,,,,,,1,,,,,,,,,,,,,,,,,,,,,,,,,,,,,,,,,,,,,,,,,,,,,,40,150820,20,Female,1,2024/02/08_11:39:22,YZ,59.92932523
,,,,,,calibration,0,12,2,361,8,S,0,right,0.391398088,1,0,,,,,,,,,,,,,,,,,,,,,1,,,,,,,,,,,,,,,,,,,,,,,,,,,,,,,,,,,,,,,,,,,,,,40,150820,20,Female,1,2024/02/08_11:39:22,YZ,59.92932523
,,,,,,calibration,0,12,2,361,9,C,0,right,0.446763005,1,0,,,,,,,,,,,,,,,,,,,,,1,,,,,,,,,,,,,,,,,,,,,,,,,,,,,,,,,,,,,,,,,,,,,,40,150820,20,Female,1,2024/02/08_11:39:22,YZ,59.92932523
,,,,,,calibration,0,12,2,361,10,N,0,right,0.510713169,1,0,,,,,,,,,,,,,,,,,,,,,1,,,,,,,,,,,,,,,,,,,,,,,,,,,,,,,,,,,,,,,,,,,,,,40,150820,20,Female,1,2024/02/08_11:39:22,YZ,59.92932523
,,,,,,calibration,0,12,2,361,11,J,0,left,0.681961949,0,0,,,,,,,,,,,,,,,,,,,,,1,,,,,,,,,,,,,,,,,,,,,,,,,,,,,,,,,,,,,,,,,,,,,,40,150820,20,Female,1,2024/02/08_11:39:22,YZ,59.92932523
,,,,,,calibration,0,12,2,361,12,Q,0,right,0.082378215,1,0,,,,,,,,,,,,,,,,,,,,,1,,,,,,,,,,,,,,,,,,,,,,,,,,,,,,,,,,,,,,,,,,,,,,40,150820,20,Female,1,2024/02/08_11:39:22,YZ,59.92932523
,,,,,,calibration,0,12,2,361,13,J,1,right,0.767827494,0,0,,,,,,,,,,,,,,,,,,,,,1,,,,,,,,,,,,,,,,,,,,,,,,,,,,,,,,,,,,,,,,,,,,,,40,150820,20,Female,1,2024/02/08_11:39:22,YZ,59.92932523
,,,,,,calibration,0,12,2,361,14,Q,1,left,0.610558556,1,0,,,,,,,,,,,,,,,,,,,,,1,,,,,,,,,,,,,,,,,,,,,,,,,,,,,,,,,,,,,,,,,,,,,,40,150820,20,Female,1,2024/02/08_11:39:22,YZ,59.92932523
,,,,,,calibration,0,12,2,361,15,F,0,right,0.513300934,1,0,,,,,,,,,,,,,,,,,,,,,1,,,,,,,,,,,,,,,,,,,,,,,,,,,,,,,,,,,,,,,,,,,,,,40,150820,20,Female,1,2024/02/08_11:39:22,YZ,59.92932523
,,,,,,calibration,0,12,2,361,16,Q,1,right,0.251377015,0,0,,,,,,,,,,,,,,,,,,,,,1,,,,,,,,,,,,,,,,,,,,,,,,,,,,,,,,,,,,,,,,,,,,,,40,150820,20,Female,1,2024/02/08_11:39:22,YZ,59.92932523
,,,,,,calibration,0,12,2,361,17,V,0,right,0.334066353,1,0,,,,,,,,,,,,,,,,,,,,,1,,,,,,,,,,,,,,,,,,,,,,,,,,,,,,,,,,,,,,,,,,,,,,40,150820,20,Female,1,2024/02/08_11:39:22,YZ,59.92932523
,,,,,,calibration,0,12,2,361,18,S,0,right,0.294294058,1,0,,,,,,,,,,,,,,,,,,,,,1,,,,,,,,,,,,,,,,,,,,,,,,,,,,,,,,,,,,,,,,,,,,,,40,150820,20,Female,1,2024/02/08_11:39:22,YZ,59.92932523
,,,,,,calibration,0,12,2,361,,,,,,,,0.782692308,0.4,0.076923077,0.923076923,0,0.923076923,0.442641171,2,1,0,0,0,12,14,5,13,0,,,,1,,,,,,,,,,,,,,,,,,,,,,,,,,,,,,,,,,,,,,,,,,,,,,40,150820,20,Female,1,2024/02/08_11:39:22,YZ,59.92932523
,,,,,,Calibration,0,,2,361,,,,,,,,,,,,,,,,,,,,,,,,,7,,,1,,,,,,,,,,,,,,,,,,,,,,,,,,,,,,,,,,,,,,,,,,,,,,40,150820,20,Female,1,2024/02/08_11:39:22,YZ,59.92932523
,,,,,,calibration,0,20,2,361,1,Q,0,right,0.81262403,1,0,,,,,,,,,,,,,,,,,,,,,1,,,,,,,,,,,,,,,,,,,,,,,,,,,,,,,,,,,,,,,,,,,,,,40,150820,20,Female,1,2024/02/08_11:39:22,YZ,59.92932523
,,,,,,calibration,0,20,2,361,2,J,0,right,nan,0,1,,,,,,,,,,,,,,,,,,,,,1,,,,,,,,,,,,,,,,,,,,,,,,,,,,,,,,,,,,,,,,,,,,,,40,150820,20,Female,1,2024/02/08_11:39:22,YZ,59.92932523
,,,,,,calibration,0,20,2,361,3,X,0,right,0.449265918,1,0,,,,,,,,,,,,,,,,,,,,,1,,,,,,,,,,,,,,,,,,,,,,,,,,,,,,,,,,,,,,,,,,,,,,40,150820,20,Female,1,2024/02/08_11:39:22,YZ,59.92932523
,,,,,,calibration,0,20,2,361,4,C,0,right,0.52588396,1,0,,,,,,,,,,,,,,,,,,,,,1,,,,,,,,,,,,,,,,,,,,,,,,,,,,,,,,,,,,,,,,,,,,,,40,150820,20,Female,1,2024/02/08_11:39:22,YZ,59.92932523
,,,,,,calibration,0,20,2,361,5,V,0,right,0.367443635,1,0,,,,,,,,,,,,,,,,,,,,,1,,,,,,,,,,,,,,,,,,,,,,,,,,,,,,,,,,,,,,,,,,,,,,40,150820,20,Female,1,2024/02/08_11:39:22,YZ,59.92932523
,,,,,,calibration,0,20,2,361,6,S,0,right,0.659783399,1,0,,,,,,,,,,,,,,,,,,,,,1,,,,,,,,,,,,,,,,,,,,,,,,,,,,,,,,,,,,,,,,,,,,,,40,150820,20,Female,1,2024/02/08_11:39:22,YZ,59.92932523
,,,,,,calibration,0,20,2,361,7,V,1,left,0.52647099,1,0,,,,,,,,,,,,,,,,,,,,,1,,,,,,,,,,,,,,,,,,,,,,,,,,,,,,,,,,,,,,,,,,,,,,40,150820,20,Female,1,2024/02/08_11:39:22,YZ,59.92932523
,,,,,,calibration,0,20,2,361,8,S,1,right,0.128043037,0,0,,,,,,,,,,,,,,,,,,,,,1,,,,,,,,,,,,,,,,,,,,,,,,,,,,,,,,,,,,,,,,,,,,,,40,150820,20,Female,1,2024/02/08_11:39:22,YZ,59.92932523
,,,,,,calibration,0,20,2,361,9,J,0,right,0.662468048,1,0,,,,,,,,,,,,,,,,,,,,,1,,,,,,,,,,,,,,,,,,,,,,,,,,,,,,,,,,,,,,,,,,,,,,40,150820,20,Female,1,2024/02/08_11:39:22,YZ,59.92932523
,,,,,,calibration,0,20,2,361,10,X,0,right,0.459139115,1,0,,,,,,,,,,,,,,,,,,,,,1,,,,,,,,,,,,,,,,,,,,,,,,,,,,,,,,,,,,,,,,,,,,,,40,150820,20,Female,1,2024/02/08_11:39:22,YZ,59.92932523
,,,,,,calibration,0,20,2,361,11,J,1,right,0.592924085,0,0,,,,,,,,,,,,,,,,,,,,,1,,,,,,,,,,,,,,,,,,,,,,,,,,,,,,,,,,,,,,,,,,,,,,40,150820,20,Female,1,2024/02/08_11:39:22,YZ,59.92932523
,,,,,,calibration,0,20,2,361,12,V,0,right,0.579209483,1,0,,,,,,,,,,,,,,,,,,,,,1,,,,,,,,,,,,,,,,,,,,,,,,,,,,,,,,,,,,,,,,,,,,,,40,150820,20,Female,1,2024/02/08_11:39:22,YZ,59.92932523
,,,,,,calibration,0,20,2,361,13,F,0,right,0.531336161,1,0,,,,,,,,,,,,,,,,,,,,,1,,,,,,,,,,,,,,,,,,,,,,,,,,,,,,,,,,,,,,,,,,,,,,40,150820,20,Female,1,2024/02/08_11:39:22,YZ,59.92932523
,,,,,,calibration,0,20,2,361,14,X,0,right,0.544084568,1,0,,,,,,,,,,,,,,,,,,,,,1,,,,,,,,,,,,,,,,,,,,,,,,,,,,,,,,,,,,,,,,,,,,,,40,150820,20,Female,1,2024/02/08_11:39:22,YZ,59.92932523
,,,,,,calibration,0,20,2,361,15,F,1,right,0.392255758,0,0,,,,,,,,,,,,,,,,,,,,,1,,,,,,,,,,,,,,,,,,,,,,,,,,,,,,,,,,,,,,,,,,,,,,40,150820,20,Female,1,2024/02/08_11:39:22,YZ,59.92932523
,,,,,,calibration,0,20,2,361,16,C,0,right,0.49920729,1,0,,,,,,,,,,,,,,,,,,,,,1,,,,,,,,,,,,,,,,,,,,,,,,,,,,,,,,,,,,,,,,,,,,,,40,150820,20,Female,1,2024/02/08_11:39:22,YZ,59.92932523
,,,,,,calibration,0,20,2,361,17,F,1,left,0.582558163,1,0,,,,,,,,,,,,,,,,,,,,,1,,,,,,,,,,,,,,,,,,,,,,,,,,,,,,,,,,,,,,,,,,,,,,40,150820,20,Female,1,2024/02/08_11:39:22,YZ,59.92932523
,,,,,,calibration,0,20,2,361,18,C,1,right,0.640923473,0,0,,,,,,,,,,,,,,,,,,,,,1,,,,,,,,,,,,,,,,,,,,,,,,,,,,,,,,,,,,,,,,,,,,,,40,150820,20,Female,1,2024/02/08_11:39:22,YZ,59.92932523
,,,,,,calibration,0,20,2,361,,,,,,,,0.833333333,0.333333333,0,1,0.055555556,0.944444444,0.526683595,2,0,0,1,1,11,13,6,12,0,,,,1,,,,,,,,,,,,,,,,,,,,,,,,,,,,,,,,,,,,,,,,,,,,,,40,150820,20,Female,1,2024/02/08_11:39:22,YZ,59.92932523
,,,,,,Calibration,0,,2,361,,,,,,,,,,,,,,,,,,,,,,,,,8,,,1,,,,,,,,,,,,,,,,,,,,,,,,,,,,,,,,,,,,,,,,,,,,,,40,150820,20,Female,1,2024/02/08_11:39:22,YZ,59.92932523
,,,,,,calibration,0,17,2,361,1,N,0,right,0.435030499,1,0,,,,,,,,,,,,,,,,,,,,,1,,,,,,,,,,,,,,,,,,,,,,,,,,,,,,,,,,,,,,,,,,,,,,40,150820,20,Female,1,2024/02/08_11:39:22,YZ,59.92932523
,,,,,,calibration,0,17,2,361,2,S,0,right,0.397132245,1,0,,,,,,,,,,,,,,,,,,,,,1,,,,,,,,,,,,,,,,,,,,,,,,,,,,,,,,,,,,,,,,,,,,,,40,150820,20,Female,1,2024/02/08_11:39:22,YZ,59.92932523
,,,,,,calibration,0,17,2,361,3,Q,0,right,0.510260382,1,0,,,,,,,,,,,,,,,,,,,,,1,,,,,,,,,,,,,,,,,,,,,,,,,,,,,,,,,,,,,,,,,,,,,,40,150820,20,Female,1,2024/02/08_11:39:22,YZ,59.92932523
,,,,,,calibration,0,17,2,361,4,S,1,left,0.525567551,1,0,,,,,,,,,,,,,,,,,,,,,1,,,,,,,,,,,,,,,,,,,,,,,,,,,,,,,,,,,,,,,,,,,,,,40,150820,20,Female,1,2024/02/08_11:39:22,YZ,59.92932523
,,,,,,calibration,0,17,2,361,5,J,0,right,0.403457543,1,0,,,,,,,,,,,,,,,,,,,,,1,,,,,,,,,,,,,,,,,,,,,,,,,,,,,,,,,,,,,,,,,,,,,,40,150820,20,Female,1,2024/02/08_11:39:22,YZ,59.92932523
,,,,,,calibration,0,17,2,361,6,F,0,right,0.437431715,1,0,,,,,,,,,,,,,,,,,,,,,1,,,,,,,,,,,,,,,,,,,,,,,,,,,,,,,,,,,,,,,,,,,,,,40,150820,20,Female,1,2024/02/08_11:39:22,YZ,59.92932523
,,,,,,calibration,0,17,2,361,7,C,0,right,0.462037749,1,0,,,,,,,,,,,,,,,,,,,,,1,,,,,,,,,,,,,,,,,,,,,,,,,,,,,,,,,,,,,,,,,,,,,,40,150820,20,Female,1,2024/02/08_11:39:22,YZ,59.92932523
,,,,,,calibration,0,17,2,361,8,J,0,right,0.642126461,1,0,,,,,,,,,,,,,,,,,,,,,1,,,,,,,,,,,,,,,,,,,,,,,,,,,,,,,,,,,,,,,,,,,,,,40,150820,20,Female,1,2024/02/08_11:39:22,YZ,59.92932523
,,,,,,calibration,0,17,2,361,9,C,1,right,0.37935472,0,0,,,,,,,,,,,,,,,,,,,,,1,,,,,,,,,,,,,,,,,,,,,,,,,,,,,,,,,,,,,,,,,,,,,,40,150820,20,Female,1,2024/02/08_11:39:22,YZ,59.92932523
,,,,,,calibration,0,17,2,361,10,X,0,right,0.463852345,1,0,,,,,,,,,,,,,,,,,,,,,1,,,,,,,,,,,,,,,,,,,,,,,,,,,,,,,,,,,,,,,,,,,,,,40,150820,20,Female,1,2024/02/08_11:39:22,YZ,59.92932523
,,,,,,calibration,0,17,2,361,11,C,1,left,0.578347889,1,0,,,,,,,,,,,,,,,,,,,,,1,,,,,,,,,,,,,,,,,,,,,,,,,,,,,,,,,,,,,,,,,,,,,,40,150820,20,Female,1,2024/02/08_11:39:22,YZ,59.92932523
,,,,,,calibration,0,17,2,361,12,X,1,left,0.741608264,1,0,,,,,,,,,,,,,,,,,,,,,1,,,,,,,,,,,,,,,,,,,,,,,,,,,,,,,,,,,,,,,,,,,,,,40,150820,20,Female,1,2024/02/08_11:39:22,YZ,59.92932523
,,,,,,calibration,0,17,2,361,13,V,0,right,0.598304396,1,0,,,,,,,,,,,,,,,,,,,,,1,,,,,,,,,,,,,,,,,,,,,,,,,,,,,,,,,,,,,,,,,,,,,,40,150820,20,Female,1,2024/02/08_11:39:22,YZ,59.92932523
,,,,,,calibration,0,17,2,361,14,S,0,right,0.724604082,1,0,,,,,,,,,,,,,,,,,,,,,1,,,,,,,,,,,,,,,,,,,,,,,,,,,,,,,,,,,,,,,,,,,,,,40,150820,20,Female,1,2024/02/08_11:39:22,YZ,59.92932523
,,,,,,calibration,0,17,2,361,15,C,0,right,0.552453021,1,0,,,,,,,,,,,,,,,,,,,,,1,,,,,,,,,,,,,,,,,,,,,,,,,,,,,,,,,,,,,,,,,,,,,,40,150820,20,Female,1,2024/02/08_11:39:22,YZ,59.92932523
,,,,,,calibration,0,17,2,361,16,X,0,right,0.47831518,1,0,,,,,,,,,,,,,,,,,,,,,1,,,,,,,,,,,,,,,,,,,,,,,,,,,,,,,,,,,,,,,,,,,,,,40,150820,20,Female,1,2024/02/08_11:39:22,YZ,59.92932523
,,,,,,calibration,0,17,2,361,17,C,1,right,0.652920134,0,0,,,,,,,,,,,,,,,,,,,,,1,,,,,,,,,,,,,,,,,,,,,,,,,,,,,,,,,,,,,,,,,,,,,,40,150820,20,Female,1,2024/02/08_11:39:22,YZ,59.92932523
,,,,,,calibration,0,17,2,361,18,X,1,right,0.54270965,0,0,,,,,,,,,,,,,,,,,,,,,1,,,,,,,,,,,,,,,,,,,,,,,,,,,,,,,,,,,,,,,,,,,,,,40,150820,20,Female,1,2024/02/08_11:39:22,YZ,59.92932523
,,,,,,calibration,0,17,2,361,,,,,,,,0.875,0.5,0,1,0,1,0.529195213,3,0,0,0,0,12,15,6,12,0,,,,1,,,,,,,,,,,,,,,,,,,,,,,,,,,,,,,,,,,,,,,,,,,,,,40,150820,20,Female,1,2024/02/08_11:39:22,YZ,59.92932523
,,,,,,Calibration,0,,2,361,,,,,,,,,,,,,,,,,,,,,,,,,9,,,1,,,,,,,,,,,,,,,,,,,,,,,,,,,,,,,,,,,,,,,,,,,,,,40,150820,20,Female,1,2024/02/08_11:39:22,YZ,59.92932523
,,,,,,calibration,0,1,2,303,1,N,0,right,0.644323479,1,0,,,,,,,,,,,,,,,,,,,,,1,,,,,,,,,,,,,,,,,,,,,,,,,,,,,,,,,,,,,,,,,,,,,,40,150820,20,Female,1,2024/02/08_11:39:22,YZ,59.92932523
,,,,,,calibration,0,1,2,303,2,X,0,right,0.489911478,1,0,,,,,,,,,,,,,,,,,,,,,1,,,,,,,,,,,,,,,,,,,,,,,,,,,,,,,,,,,,,,,,,,,,,,40,150820,20,Female,1,2024/02/08_11:39:22,YZ,59.92932523
,,,,,,calibration,0,1,2,303,3,F,0,right,0.431805188,1,0,,,,,,,,,,,,,,,,,,,,,1,,,,,,,,,,,,,,,,,,,,,,,,,,,,,,,,,,,,,,,,,,,,,,40,150820,20,Female,1,2024/02/08_11:39:22,YZ,59.92932523
,,,,,,calibration,0,1,2,303,4,X,1,left,0.614759402,1,0,,,,,,,,,,,,,,,,,,,,,1,,,,,,,,,,,,,,,,,,,,,,,,,,,,,,,,,,,,,,,,,,,,,,40,150820,20,Female,1,2024/02/08_11:39:22,YZ,59.92932523
,,,,,,calibration,0,1,2,303,5,N,0,right,0.826616182,1,0,,,,,,,,,,,,,,,,,,,,,1,,,,,,,,,,,,,,,,,,,,,,,,,,,,,,,,,,,,,,,,,,,,,,40,150820,20,Female,1,2024/02/08_11:39:22,YZ,59.92932523
,,,,,,calibration,0,1,2,303,6,X,1,left,0.699721722,1,0,,,,,,,,,,,,,,,,,,,,,1,,,,,,,,,,,,,,,,,,,,,,,,,,,,,,,,,,,,,,,,,,,,,,40,150820,20,Female,1,2024/02/08_11:39:22,YZ,59.92932523
,,,,,,calibration,0,1,2,303,7,Q,0,right,0.496869596,1,0,,,,,,,,,,,,,,,,,,,,,1,,,,,,,,,,,,,,,,,,,,,,,,,,,,,,,,,,,,,,,,,,,,,,40,150820,20,Female,1,2024/02/08_11:39:22,YZ,59.92932523
,,,,,,calibration,0,1,2,303,8,F,0,right,0.524831934,1,0,,,,,,,,,,,,,,,,,,,,,1,,,,,,,,,,,,,,,,,,,,,,,,,,,,,,,,,,,,,,,,,,,,,,40,150820,20,Female,1,2024/02/08_11:39:22,YZ,59.92932523
,,,,,,calibration,0,1,2,303,9,X,0,left,0.630550354,0,0,,,,,,,,,,,,,,,,,,,,,1,,,,,,,,,,,,,,,,,,,,,,,,,,,,,,,,,,,,,,,,,,,,,,40,150820,20,Female,1,2024/02/08_11:39:22,YZ,59.92932523
,,,,,,calibration,0,1,2,303,10,J,0,right,0.442087664,1,0,,,,,,,,,,,,,,,,,,,,,1,,,,,,,,,,,,,,,,,,,,,,,,,,,,,,,,,,,,,,,,,,,,,,40,150820,20,Female,1,2024/02/08_11:39:22,YZ,59.92932523
,,,,,,calibration,0,1,2,303,11,C,0,right,0.542159957,1,0,,,,,,,,,,,,,,,,,,,,,1,,,,,,,,,,,,,,,,,,,,,,,,,,,,,,,,,,,,,,,,,,,,,,40,150820,20,Female,1,2024/02/08_11:39:22,YZ,59.92932523
,,,,,,calibration,0,1,2,303,12,X,0,right,0.464554962,1,0,,,,,,,,,,,,,,,,,,,,,1,,,,,,,,,,,,,,,,,,,,,,,,,,,,,,,,,,,,,,,,,,,,,,40,150820,20,Female,1,2024/02/08_11:39:22,YZ,59.92932523
,,,,,,calibration,0,1,2,303,13,S,0,right,0.406056947,1,0,,,,,,,,,,,,,,,,,,,,,1,,,,,,,,,,,,,,,,,,,,,,,,,,,,,,,,,,,,,,,,,,,,,,40,150820,20,Female,1,2024/02/08_11:39:22,YZ,59.92932523
,,,,,,calibration,0,1,2,303,14,X,1,right,0.428255971,0,0,,,,,,,,,,,,,,,,,,,,,1,,,,,,,,,,,,,,,,,,,,,,,,,,,,,,,,,,,,,,,,,,,,,,40,150820,20,Female,1,2024/02/08_11:39:22,YZ,59.92932523
,,,,,,calibration,0,1,2,303,15,N,0,right,0.370477812,1,0,,,,,,,,,,,,,,,,,,,,,1,,,,,,,,,,,,,,,,,,,,,,,,,,,,,,,,,,,,,,,,,,,,,,40,150820,20,Female,1,2024/02/08_11:39:22,YZ,59.92932523
,,,,,,calibration,0,1,2,303,16,X,1,right,0.698689093,0,0,,,,,,,,,,,,,,,,,,,,,1,,,,,,,,,,,,,,,,,,,,,,,,,,,,,,,,,,,,,,,,,,,,,,40,150820,20,Female,1,2024/02/08_11:39:22,YZ,59.92932523
,,,,,,calibration,0,1,2,303,17,J,0,right,0.57505019,1,0,,,,,,,,,,,,,,,,,,,,,1,,,,,,,,,,,,,,,,,,,,,,,,,,,,,,,,,,,,,,,,,,,,,,40,150820,20,Female,1,2024/02/08_11:39:22,YZ,59.92932523
,,,,,,calibration,0,1,2,303,18,X,1,right,0.931226192,0,0,,,,,,,,,,,,,,,,,,,,,1,,,,,,,,,,,,,,,,,,,,,,,,,,,,,,,,,,,,,,,,,,,,,,40,150820,20,Female,1,2024/02/08_11:39:22,YZ,59.92932523
,,,,,,calibration,0,1,2,303,19,F,0,right,0.481771534,1,0,,,,,,,,,,,,,,,,,,,,,1,,,,,,,,,,,,,,,,,,,,,,,,,,,,,,,,,,,,,,,,,,,,,,40,150820,20,Female,1,2024/02/08_11:39:22,YZ,59.92932523
,,,,,,calibration,0,1,2,303,,,,,,,,0.7875,0.4,0.071428571,0.928571429,0,0.928571429,0.56314314,2,1,0,0,0,13,15,5,14,0,,,,1,,,,,,,,,,,,,,,,,,,,,,,,,,,,,,,,,,,,,,,,,,,,,,40,150820,20,Female,1,2024/02/08_11:39:22,YZ,59.92932523
,,,,,,Calibration,0,,2,303,,,,,,,,,,,,,,,,,,,,,,,,,10,,,1,,,,,,,,,,,,,,,,,,,,,,,,,,,,,,,,,,,,,,,,,,,,,,40,150820,20,Female,1,2024/02/08_11:39:22,YZ,59.92932523
,,,,,,calibration,0,34,2,303,1,Q,0,right,0.579994154,1,0,,,,,,,,,,,,,,,,,,,,,1,,,,,,,,,,,,,,,,,,,,,,,,,,,,,,,,,,,,,,,,,,,,,,40,150820,20,Female,1,2024/02/08_11:39:22,YZ,59.92932523
,,,,,,calibration,0,34,2,303,2,F,0,right,0.403846677,1,0,,,,,,,,,,,,,,,,,,,,,1,,,,,,,,,,,,,,,,,,,,,,,,,,,,,,,,,,,,,,,,,,,,,,40,150820,20,Female,1,2024/02/08_11:39:22,YZ,59.92932523
,,,,,,calibration,0,34,2,303,3,S,0,right,0.422302428,1,0,,,,,,,,,,,,,,,,,,,,,1,,,,,,,,,,,,,,,,,,,,,,,,,,,,,,,,,,,,,,,,,,,,,,40,150820,20,Female,1,2024/02/08_11:39:22,YZ,59.92932523
,,,,,,calibration,0,34,2,303,4,Q,0,right,0.399483418,1,0,,,,,,,,,,,,,,,,,,,,,1,,,,,,,,,,,,,,,,,,,,,,,,,,,,,,,,,,,,,,,,,,,,,,40,150820,20,Female,1,2024/02/08_11:39:22,YZ,59.92932523
,,,,,,calibration,0,34,2,303,5,J,0,right,0.631328042,1,0,,,,,,,,,,,,,,,,,,,,,1,,,,,,,,,,,,,,,,,,,,,,,,,,,,,,,,,,,,,,,,,,,,,,40,150820,20,Female,1,2024/02/08_11:39:22,YZ,59.92932523
,,,,,,calibration,0,34,2,303,6,Q,1,left,0.663808916,1,0,,,,,,,,,,,,,,,,,,,,,1,,,,,,,,,,,,,,,,,,,,,,,,,,,,,,,,,,,,,,,,,,,,,,40,150820,20,Female,1,2024/02/08_11:39:22,YZ,59.92932523
,,,,,,calibration,0,34,2,303,7,J,1,left,nan,0,1,,,,,,,,,,,,,,,,,,,,,1,,,,,,,,,,,,,,,,,,,,,,,,,,,,,,,,,,,,,,,,,,,,,,40,150820,20,Female,1,2024/02/08_11:39:22,YZ,59.92932523
,,,,,,calibration,0,34,2,303,8,V,0,right,0.433886502,1,0,,,,,,,,,,,,,,,,,,,,,1,,,,,,,,,,,,,,,,,,,,,,,,,,,,,,,,,,,,,,,,,,,,,,40,150820,20,Female,1,2024/02/08_11:39:22,YZ,59.92932523
,,,,,,calibration,0,34,2,303,9,J,1,left,0.679323583,1,0,,,,,,,,,,,,,,,,,,,,,1,,,,,,,,,,,,,,,,,,,,,,,,,,,,,,,,,,,,,,,,,,,,,,40,150820,20,Female,1,2024/02/08_11:39:22,YZ,59.92932523
,,,,,,calibration,0,34,2,303,10,V,1,right,0.513827704,0,0,,,,,,,,,,,,,,,,,,,,,1,,,,,,,,,,,,,,,,,,,,,,,,,,,,,,,,,,,,,,,,,,,,,,40,150820,20,Female,1,2024/02/08_11:39:22,YZ,59.92932523
,,,,,,calibration,0,34,2,303,11,N,0,right,0.807652164,1,0,,,,,,,,,,,,,,,,,,,,,1,,,,,,,,,,,,,,,,,,,,,,,,,,,,,,,,,,,,,,,,,,,,,,40,150820,20,Female,1,2024/02/08_11:39:22,YZ,59.92932523
,,,,,,calibration,0,34,2,303,12,V,1,left,0.549932689,1,0,,,,,,,,,,,,,,,,,,,,,1,,,,,,,,,,,,,,,,,,,,,,,,,,,,,,,,,,,,,,,,,,,,,,40,150820,20,Female,1,2024/02/08_11:39:22,YZ,59.92932523
,,,,,,calibration,0,34,2,303,13,X,0,right,0.468614562,1,0,,,,,,,,,,,,,,,,,,,,,1,,,,,,,,,,,,,,,,,,,,,,,,,,,,,,,,,,,,,,,,,,,,,,40,150820,20,Female,1,2024/02/08_11:39:22,YZ,59.92932523
,,,,,,calibration,0,34,2,303,14,C,0,right,0.452768673,1,0,,,,,,,,,,,,,,,,,,,,,1,,,,,,,,,,,,,,,,,,,,,,,,,,,,,,,,,,,,,,,,,,,,,,40,150820,20,Female,1,2024/02/08_11:39:22,YZ,59.92932523
,,,,,,calibration,0,34,2,303,15,X,1,left,0.597230226,1,0,,,,,,,,,,,,,,,,,,,,,1,,,,,,,,,,,,,,,,,,,,,,,,,,,,,,,,,,,,,,,,,,,,,,40,150820,20,Female,1,2024/02/08_11:39:22,YZ,59.92932523
,,,,,,calibration,0,34,2,303,16,F,0,right,0.469128418,1,0,,,,,,,,,,,,,,,,,,,,,1,,,,,,,,,,,,,,,,,,,,,,,,,,,,,,,,,,,,,,,,,,,,,,40,150820,20,Female,1,2024/02/08_11:39:22,YZ,59.92932523
,,,,,,calibration,0,34,2,303,17,V,0,right,0.453211799,1,0,,,,,,,,,,,,,,,,,,,,,1,,,,,,,,,,,,,,,,,,,,,,,,,,,,,,,,,,,,,,,,,,,,,,40,150820,20,Female,1,2024/02/08_11:39:22,YZ,59.92932523
,,,,,,calibration,0,34,2,303,18,S,0,left,0.579807639,0,0,,,,,,,,,,,,,,,,,,,,,1,,,,,,,,,,,,,,,,,,,,,,,,,,,,,,,,,,,,,,,,,,,,,,40,150820,20,Female,1,2024/02/08_11:39:22,YZ,59.92932523
,,,,,,calibration,0,34,2,303,19,J,0,right,0.746765951,1,0,,,,,,,,,,,,,,,,,,,,,1,,,,,,,,,,,,,,,,,,,,,,,,,,,,,,,,,,,,,,,,,,,,,,40,150820,20,Female,1,2024/02/08_11:39:22,YZ,59.92932523
,,,,,,calibration,0,34,2,303,,,,,,,,0.871794872,0.666666667,0.076923077,0.923076923,0.052631579,0.870445344,0.547384086,4,1,1,0,1,12,16,6,13,0,,,,1,,,,,,,,,,,,,,,,,,,,,,,,,,,,,,,,,,,,,,,,,,,,,,40,150820,20,Female,1,2024/02/08_11:39:22,YZ,59.92932523
,,,,,,Calibration,0,,2,303,,,,,,,,,,,,,,,,,,,,,,,,,11,,,1,,,,,,,,,,,,,,,,,,,,,,,,,,,,,,,,,,,,,,,,,,,,,,40,150820,20,Female,1,2024/02/08_11:39:22,YZ,59.92932523
,,,,,,calibration,0,30,2,250,1,F,0,None,nan,0,1,,,,,,,,,,,,,,,,,,,,,1,,,,,,,,,,,,,,,,,,,,,,,,,,,,,,,,,,,,,,,,,,,,,,40,150820,20,Female,1,2024/02/08_11:39:22,YZ,59.92932523
,,,,,,calibration,0,30,2,250,2,F,0,None,nan,0,1,,,,,,,,,,,,,,,,,,,,,1,,,,,,,,,,,,,,,,,,,,,,,,,,,,,,,,,,,,,,,,,,,,,,40,150820,20,Female,1,2024/02/08_11:39:22,YZ,59.92932523
,,,,,,calibration,0,30,2,250,3,N,0,right,0.51385682,1,0,,,,,,,,,,,,,,,,,,,,,1,,,,,,,,,,,,,,,,,,,,,,,,,,,,,,,,,,,,,,,,,,,,,,40,150820,20,Female,1,2024/02/08_11:39:22,YZ,59.92932523
,,,,,,calibration,0,30,2,250,4,J,0,right,0.234932411,1,0,,,,,,,,,,,,,,,,,,,,,1,,,,,,,,,,,,,,,,,,,,,,,,,,,,,,,,,,,,,,,,,,,,,,40,150820,20,Female,1,2024/02/08_11:39:22,YZ,59.92932523
,,,,,,calibration,0,30,2,250,5,N,1,right,0.229961703,0,0,,,,,,,,,,,,,,,,,,,,,1,,,,,,,,,,,,,,,,,,,,,,,,,,,,,,,,,,,,,,,,,,,,,,40,150820,20,Female,1,2024/02/08_11:39:22,YZ,59.92932523
,,,,,,calibration,0,30,2,250,6,C,0,right,0.446954286,1,0,,,,,,,,,,,,,,,,,,,,,1,,,,,,,,,,,,,,,,,,,,,,,,,,,,,,,,,,,,,,,,,,,,,,40,150820,20,Female,1,2024/02/08_11:39:22,YZ,59.92932523
,,,,,,calibration,0,30,2,250,7,J,0,right,0.611386545,1,0,,,,,,,,,,,,,,,,,,,,,1,,,,,,,,,,,,,,,,,,,,,,,,,,,,,,,,,,,,,,,,,,,,,,40,150820,20,Female,1,2024/02/08_11:39:22,YZ,59.92932523
,,,,,,calibration,0,30,2,250,8,Q,0,right,0.876588513,1,0,,,,,,,,,,,,,,,,,,,,,1,,,,,,,,,,,,,,,,,,,,,,,,,,,,,,,,,,,,,,,,,,,,,,40,150820,20,Female,1,2024/02/08_11:39:22,YZ,59.92932523
,,,,,,calibration,0,30,2,250,9,F,0,right,0.428177043,1,0,,,,,,,,,,,,,,,,,,,,,1,,,,,,,,,,,,,,,,,,,,,,,,,,,,,,,,,,,,,,,,,,,,,,40,150820,20,Female,1,2024/02/08_11:39:22,YZ,59.92932523
,,,,,,calibration,0,30,2,250,10,S,0,right,0.719425387,1,0,,,,,,,,,,,,,,,,,,,,,1,,,,,,,,,,,,,,,,,,,,,,,,,,,,,,,,,,,,,,,,,,,,,,40,150820,20,Female,1,2024/02/08_11:39:22,YZ,59.92932523
,,,,,,calibration,0,30,2,250,11,V,0,right,0.561844394,1,0,,,,,,,,,,,,,,,,,,,,,1,,,,,,,,,,,,,,,,,,,,,,,,,,,,,,,,,,,,,,,,,,,,,,40,150820,20,Female,1,2024/02/08_11:39:22,YZ,59.92932523
,,,,,,calibration,0,30,2,250,12,Q,0,left,0.560080011,0,0,,,,,,,,,,,,,,,,,,,,,1,,,,,,,,,,,,,,,,,,,,,,,,,,,,,,,,,,,,,,,,,,,,,,40,150820,20,Female,1,2024/02/08_11:39:22,YZ,59.92932523
,,,,,,calibration,0,30,2,250,13,V,1,right,0.160664571,0,0,,,,,,,,,,,,,,,,,,,,,1,,,,,,,,,,,,,,,,,,,,,,,,,,,,,,,,,,,,,,,,,,,,,,40,150820,20,Female,1,2024/02/08_11:39:22,YZ,59.92932523
,,,,,,calibration,0,30,2,250,14,N,0,right,0.988978811,1,0,,,,,,,,,,,,,,,,,,,,,1,,,,,,,,,,,,,,,,,,,,,,,,,,,,,,,,,,,,,,,,,,,,,,40,150820,20,Female,1,2024/02/08_11:39:22,YZ,59.92932523
,,,,,,calibration,0,30,2,250,15,V,1,right,0.542811979,0,0,,,,,,,,,,,,,,,,,,,,,1,,,,,,,,,,,,,,,,,,,,,,,,,,,,,,,,,,,,,,,,,,,,,,40,150820,20,Female,1,2024/02/08_11:39:22,YZ,59.92932523
,,,,,,calibration,0,30,2,250,16,Q,0,right,0.533519057,1,0,,,,,,,,,,,,,,,,,,,,,1,,,,,,,,,,,,,,,,,,,,,,,,,,,,,,,,,,,,,,,,,,,,,,40,150820,20,Female,1,2024/02/08_11:39:22,YZ,59.92932523
,,,,,,calibration,0,30,2,250,17,F,0,right,0.467010405,1,0,,,,,,,,,,,,,,,,,,,,,1,,,,,,,,,,,,,,,,,,,,,,,,,,,,,,,,,,,,,,,,,,,,,,40,150820,20,Female,1,2024/02/08_11:39:22,YZ,59.92932523
,,,,,,calibration,0,30,2,250,18,Q,1,right,nan,0,1,,,,,,,,,,,,,,,,,,,,,1,,,,,,,,,,,,,,,,,,,,,,,,,,,,,,,,,,,,,,,,,,,,,,40,150820,20,Female,1,2024/02/08_11:39:22,YZ,59.92932523
,,,,,,calibration,0,30,2,250,19,N,0,right,0.743584782,1,0,,,,,,,,,,,,,,,,,,,,,1,,,,,,,,,,,,,,,,,,,,,,,,,,,,,,,,,,,,,,,,,,,,,,40,150820,20,Female,1,2024/02/08_11:39:22,YZ,59.92932523
,,,,,,calibration,0,30,2,250,20,Q,1,right,0.273324613,0,0,,,,,,,,,,,,,,,,,,,,,1,,,,,,,,,,,,,,,,,,,,,,,,,,,,,,,,,,,,,,,,,,,,,,40,150820,20,Female,1,2024/02/08_11:39:22,YZ,59.92932523
,,,,,,calibration,0,30,2,250,,,,,,,,0.233333333,0,0.066666667,0.923076923,0.15,0.783333333,0.523123608,0,1,1,2,3,12,12,5,15,0,,,,1,,,,,,,,,,,,,,,,,,,,,,,,,,,,,,,,,,,,,,,,,,,,,,40,150820,20,Female,1,2024/02/08_11:39:22,YZ,59.92932523
,,,,,,Calibration,0,,2,250,,,,,,,,,,,,,,,,,,,,,,,,,12,,,1,,,,,,,,,,,,,,,,,,,,,,,,,,,,,,,,,,,,,,,,,,,,,,40,150820,20,Female,1,2024/02/08_11:39:22,YZ,59.92932523
,,,,,,calibration,0,32,2,303,1,J,0,right,0.418939877,1,0,,,,,,,,,,,,,,,,,,,,,1,,,,,,,,,,,,,,,,,,,,,,,,,,,,,,,,,,,,,,,,,,,,,,40,150820,20,Female,1,2024/02/08_11:39:22,YZ,59.92932523
,,,,,,calibration,0,32,2,303,2,C,0,right,0.330209733,1,0,,,,,,,,,,,,,,,,,,,,,1,,,,,,,,,,,,,,,,,,,,,,,,,,,,,,,,,,,,,,,,,,,,,,40,150820,20,Female,1,2024/02/08_11:39:22,YZ,59.92932523
,,,,,,calibration,0,32,2,303,3,J,1,right,0.349130775,0,0,,,,,,,,,,,,,,,,,,,,,1,,,,,,,,,,,,,,,,,,,,,,,,,,,,,,,,,,,,,,,,,,,,,,40,150820,20,Female,1,2024/02/08_11:39:22,YZ,59.92932523
,,,,,,calibration,0,32,2,303,4,X,0,right,0.550723905,1,0,,,,,,,,,,,,,,,,,,,,,1,,,,,,,,,,,,,,,,,,,,,,,,,,,,,,,,,,,,,,,,,,,,,,40,150820,20,Female,1,2024/02/08_11:39:22,YZ,59.92932523
,,,,,,calibration,0,32,2,303,5,S,0,right,0.462204772,1,0,,,,,,,,,,,,,,,,,,,,,1,,,,,,,,,,,,,,,,,,,,,,,,,,,,,,,,,,,,,,,,,,,,,,40,150820,20,Female,1,2024/02/08_11:39:22,YZ,59.92932523
,,,,,,calibration,0,32,2,303,6,X,1,right,0.444247114,0,0,,,,,,,,,,,,,,,,,,,,,1,,,,,,,,,,,,,,,,,,,,,,,,,,,,,,,,,,,,,,,,,,,,,,40,150820,20,Female,1,2024/02/08_11:39:22,YZ,59.92932523
,,,,,,calibration,0,32,2,303,7,Q,0,right,0.51347058,1,0,,,,,,,,,,,,,,,,,,,,,1,,,,,,,,,,,,,,,,,,,,,,,,,,,,,,,,,,,,,,,,,,,,,,40,150820,20,Female,1,2024/02/08_11:39:22,YZ,59.92932523
,,,,,,calibration,0,32,2,303,8,X,1,right,0.371467028,0,0,,,,,,,,,,,,,,,,,,,,,1,,,,,,,,,,,,,,,,,,,,,,,,,,,,,,,,,,,,,,,,,,,,,,40,150820,20,Female,1,2024/02/08_11:39:22,YZ,59.92932523
,,,,,,calibration,0,32,2,303,9,S,0,right,0.428249594,1,0,,,,,,,,,,,,,,,,,,,,,1,,,,,,,,,,,,,,,,,,,,,,,,,,,,,,,,,,,,,,,,,,,,,,40,150820,20,Female,1,2024/02/08_11:39:22,YZ,59.92932523
,,,,,,calibration,0,32,2,303,10,N,0,right,0.415539571,1,0,,,,,,,,,,,,,,,,,,,,,1,,,,,,,,,,,,,,,,,,,,,,,,,,,,,,,,,,,,,,,,,,,,,,40,150820,20,Female,1,2024/02/08_11:39:22,YZ,59.92932523
,,,,,,calibration,0,32,2,303,11,C,0,right,0.382804431,1,0,,,,,,,,,,,,,,,,,,,,,1,,,,,,,,,,,,,,,,,,,,,,,,,,,,,,,,,,,,,,,,,,,,,,40,150820,20,Female,1,2024/02/08_11:39:22,YZ,59.92932523
,,,,,,calibration,0,32,2,303,12,F,0,right,0.485916079,1,0,,,,,,,,,,,,,,,,,,,,,1,,,,,,,,,,,,,,,,,,,,,,,,,,,,,,,,,,,,,,,,,,,,,,40,150820,20,Female,1,2024/02/08_11:39:22,YZ,59.92932523
,,,,,,calibration,0,32,2,303,13,C,1,left,0.616190014,1,0,,,,,,,,,,,,,,,,,,,,,1,,,,,,,,,,,,,,,,,,,,,,,,,,,,,,,,,,,,,,,,,,,,,,40,150820,20,Female,1,2024/02/08_11:39:22,YZ,59.92932523
,,,,,,calibration,0,32,2,303,14,Q,0,right,0.46348992,1,0,,,,,,,,,,,,,,,,,,,,,1,,,,,,,,,,,,,,,,,,,,,,,,,,,,,,,,,,,,,,,,,,,,,,40,150820,20,Female,1,2024/02/08_11:39:22,YZ,59.92932523
,,,,,,calibration,0,32,2,303,15,J,0,right,0.582393706,1,0,,,,,,,,,,,,,,,,,,,,,1,,,,,,,,,,,,,,,,,,,,,,,,,,,,,,,,,,,,,,,,,,,,,,40,150820,20,Female,1,2024/02/08_11:39:22,YZ,59.92932523
,,,,,,calibration,0,32,2,303,16,Q,1,left,0.412487088,1,0,,,,,,,,,,,,,,,,,,,,,1,,,,,,,,,,,,,,,,,,,,,,,,,,,,,,,,,,,,,,,,,,,,,,40,150820,20,Female,1,2024/02/08_11:39:22,YZ,59.92932523
,,,,,,calibration,0,32,2,303,17,F,0,right,0.455335699,1,0,,,,,,,,,,,,,,,,,,,,,1,,,,,,,,,,,,,,,,,,,,,,,,,,,,,,,,,,,,,,,,,,,,,,40,150820,20,Female,1,2024/02/08_11:39:22,YZ,59.92932523
,,,,,,calibration,0,32,2,303,18,Q,1,right,0.48145208,0,0,,,,,,,,,,,,,,,,,,,,,1,,,,,,,,,,,,,,,,,,,,,,,,,,,,,,,,,,,,,,,,,,,,,,40,150820,20,Female,1,2024/02/08_11:39:22,YZ,59.92932523
,,,,,,calibration,0,32,2,303,19,X,0,right,0.513418522,1,0,,,,,,,,,,,,,,,,,,,,,1,,,,,,,,,,,,,,,,,,,,,,,,,,,,,,,,,,,,,,,,,,,,,,40,150820,20,Female,1,2024/02/08_11:39:22,YZ,59.92932523
,,,,,,calibration,0,32,2,303,,,,,,,,0.833333333,0.333333333,0,1,0,1,0.456719499,2,0,0,0,0,13,15,6,13,0,,,,1,,,,,,,,,,,,,,,,,,,,,,,,,,,,,,,,,,,,,,,,,,,,,,40,150820,20,Female,1,2024/02/08_11:39:22,YZ,59.92932523
,,,,,,Calibration,0,,2,303,,,,,,,,,,,,,,,,,,,,,,,,,13,,,1,,,,,,,,,,,,,,,,,,,,,,,,,,,,,,,,,,,,,,,,,,,,,,40,150820,20,Female,1,2024/02/08_11:39:22,YZ,59.92932523
,,,,,,calibration,0,19,2,303,1,C,0,right,0.444912253,1,0,,,,,,,,,,,,,,,,,,,,,1,,,,,,,,,,,,,,,,,,,,,,,,,,,,,,,,,,,,,,,,,,,,,,40,150820,20,Female,1,2024/02/08_11:39:22,YZ,59.92932523
,,,,,,calibration,0,19,2,303,2,J,0,right,0.481586687,1,0,,,,,,,,,,,,,,,,,,,,,1,,,,,,,,,,,,,,,,,,,,,,,,,,,,,,,,,,,,,,,,,,,,,,40,150820,20,Female,1,2024/02/08_11:39:22,YZ,59.92932523
,,,,,,calibration,0,19,2,303,3,F,0,right,0.428750369,1,0,,,,,,,,,,,,,,,,,,,,,1,,,,,,,,,,,,,,,,,,,,,,,,,,,,,,,,,,,,,,,,,,,,,,40,150820,20,Female,1,2024/02/08_11:39:22,YZ,59.92932523
,,,,,,calibration,0,19,2,303,4,N,0,right,0.410836059,1,0,,,,,,,,,,,,,,,,,,,,,1,,,,,,,,,,,,,,,,,,,,,,,,,,,,,,,,,,,,,,,,,,,,,,40,150820,20,Female,1,2024/02/08_11:39:22,YZ,59.92932523
,,,,,,calibration,0,19,2,303,5,F,1,right,0.624369877,0,0,,,,,,,,,,,,,,,,,,,,,1,,,,,,,,,,,,,,,,,,,,,,,,,,,,,,,,,,,,,,,,,,,,,,40,150820,20,Female,1,2024/02/08_11:39:22,YZ,59.92932523
,,,,,,calibration,0,19,2,303,6,J,0,right,0.447563854,1,0,,,,,,,,,,,,,,,,,,,,,1,,,,,,,,,,,,,,,,,,,,,,,,,,,,,,,,,,,,,,,,,,,,,,40,150820,20,Female,1,2024/02/08_11:39:22,YZ,59.92932523
,,,,,,calibration,0,19,2,303,7,V,0,right,0.446704332,1,0,,,,,,,,,,,,,,,,,,,,,1,,,,,,,,,,,,,,,,,,,,,,,,,,,,,,,,,,,,,,,,,,,,,,40,150820,20,Female,1,2024/02/08_11:39:22,YZ,59.92932523
,,,,,,calibration,0,19,2,303,8,N,0,right,0.628236573,1,0,,,,,,,,,,,,,,,,,,,,,1,,,,,,,,,,,,,,,,,,,,,,,,,,,,,,,,,,,,,,,,,,,,,,40,150820,20,Female,1,2024/02/08_11:39:22,YZ,59.92932523
,,,,,,calibration,0,19,2,303,9,F,0,right,0.778349497,1,0,,,,,,,,,,,,,,,,,,,,,1,,,,,,,,,,,,,,,,,,,,,,,,,,,,,,,,,,,,,,,,,,,,,,40,150820,20,Female,1,2024/02/08_11:39:22,YZ,59.92932523
,,,,,,calibration,0,19,2,303,10,N,1,right,0.420311123,0,0,,,,,,,,,,,,,,,,,,,,,1,,,,,,,,,,,,,,,,,,,,,,,,,,,,,,,,,,,,,,,,,,,,,,40,150820,20,Female,1,2024/02/08_11:39:22,YZ,59.92932523
,,,,,,calibration,0,19,2,303,11,F,1,left,0.81491826,1,0,,,,,,,,,,,,,,,,,,,,,1,,,,,,,,,,,,,,,,,,,,,,,,,,,,,,,,,,,,,,,,,,,,,,40,150820,20,Female,1,2024/02/08_11:39:22,YZ,59.92932523
,,,,,,calibration,0,19,2,303,12,C,0,right,0.524417263,1,0,,,,,,,,,,,,,,,,,,,,,1,,,,,,,,,,,,,,,,,,,,,,,,,,,,,,,,,,,,,,,,,,,,,,40,150820,20,Female,1,2024/02/08_11:39:22,YZ,59.92932523
,,,,,,calibration,0,19,2,303,13,X,0,right,0.512028469,1,0,,,,,,,,,,,,,,,,,,,,,1,,,,,,,,,,,,,,,,,,,,,,,,,,,,,,,,,,,,,,,,,,,,,,40,150820,20,Female,1,2024/02/08_11:39:22,YZ,59.92932523
,,,,,,calibration,0,19,2,303,14,C,1,right,0.942472545,0,0,,,,,,,,,,,,,,,,,,,,,1,,,,,,,,,,,,,,,,,,,,,,,,,,,,,,,,,,,,,,,,,,,,,,40,150820,20,Female,1,2024/02/08_11:39:22,YZ,59.92932523
,,,,,,calibration,0,19,2,303,15,V,0,right,0.473071013,1,0,,,,,,,,,,,,,,,,,,,,,1,,,,,,,,,,,,,,,,,,,,,,,,,,,,,,,,,,,,,,,,,,,,,,40,150820,20,Female,1,2024/02/08_11:39:22,YZ,59.92932523
,,,,,,calibration,0,19,2,303,16,N,0,right,0.382525182,1,0,,,,,,,,,,,,,,,,,,,,,1,,,,,,,,,,,,,,,,,,,,,,,,,,,,,,,,,,,,,,,,,,,,,,40,150820,20,Female,1,2024/02/08_11:39:22,YZ,59.92932523
,,,,,,calibration,0,19,2,303,17,Q,0,right,0.430112204,1,0,,,,,,,,,,,,,,,,,,,,,1,,,,,,,,,,,,,,,,,,,,,,,,,,,,,,,,,,,,,,,,,,,,,,40,150820,20,Female,1,2024/02/08_11:39:22,YZ,59.92932523
,,,,,,calibration,0,19,2,303,18,N,1,right,0.575541089,0,0,,,,,,,,,,,,,,,,,,,,,1,,,,,,,,,,,,,,,,,,,,,,,,,,,,,,,,,,,,,,,,,,,,,,40,150820,20,Female,1,2024/02/08_11:39:22,YZ,59.92932523
,,,,,,calibration,0,19,2,303,19,Q,1,right,0.644886383,0,0,,,,,,,,,,,,,,,,,,,,,1,,,,,,,,,,,,,,,,,,,,,,,,,,,,,,,,,,,,,,,,,,,,,,40,150820,20,Female,1,2024/02/08_11:39:22,YZ,59.92932523
,,,,,,calibration,0,19,2,303,,,,,,,,0.791666667,0.166666667,0,1,0,1,0.547978581,1,0,0,0,0,13,14,6,13,0,,,,1,,,,,,,,,,,,,,,,,,,,,,,,,,,,,,,,,,,,,,,,,,,,,,40,150820,20,Female,1,2024/02/08_11:39:22,YZ,59.92932523
,,,,,,Calibration,0,,2,303,,,,,,,,,,,,,,,,,,,,,,,,,14,,,1,,,,,,,,,,,,,,,,,,,,,,,,,,,,,,,,,,,,,,,,,,,,,,40,150820,20,Female,1,2024/02/08_11:39:22,YZ,59.92932523
,,,,,,calibration,0,13,2,303,1,N,0,right,0.406150478,1,0,,,,,,,,,,,,,,,,,,,,,1,,,,,,,,,,,,,,,,,,,,,,,,,,,,,,,,,,,,,,,,,,,,,,40,150820,20,Female,1,2024/02/08_11:39:22,YZ,59.92932523
,,,,,,calibration,0,13,2,303,2,J,0,right,0.279644043,1,0,,,,,,,,,,,,,,,,,,,,,1,,,,,,,,,,,,,,,,,,,,,,,,,,,,,,,,,,,,,,,,,,,,,,40,150820,20,Female,1,2024/02/08_11:39:22,YZ,59.92932523
,,,,,,calibration,0,13,2,303,3,V,0,right,0.43783347,1,0,,,,,,,,,,,,,,,,,,,,,1,,,,,,,,,,,,,,,,,,,,,,,,,,,,,,,,,,,,,,,,,,,,,,40,150820,20,Female,1,2024/02/08_11:39:22,YZ,59.92932523
,,,,,,calibration,0,13,2,303,4,J,1,right,0.453469755,0,0,,,,,,,,,,,,,,,,,,,,,1,,,,,,,,,,,,,,,,,,,,,,,,,,,,,,,,,,,,,,,,,,,,,,40,150820,20,Female,1,2024/02/08_11:39:22,YZ,59.92932523
,,,,,,calibration,0,13,2,303,5,C,0,right,0.471996322,1,0,,,,,,,,,,,,,,,,,,,,,1,,,,,,,,,,,,,,,,,,,,,,,,,,,,,,,,,,,,,,,,,,,,,,40,150820,20,Female,1,2024/02/08_11:39:22,YZ,59.92932523
,,,,,,calibration,0,13,2,303,6,X,0,right,0.479304793,1,0,,,,,,,,,,,,,,,,,,,,,1,,,,,,,,,,,,,,,,,,,,,,,,,,,,,,,,,,,,,,,,,,,,,,40,150820,20,Female,1,2024/02/08_11:39:22,YZ,59.92932523
,,,,,,calibration,0,13,2,303,7,J,0,left,0.668451141,0,0,,,,,,,,,,,,,,,,,,,,,1,,,,,,,,,,,,,,,,,,,,,,,,,,,,,,,,,,,,,,,,,,,,,,40,150820,20,Female,1,2024/02/08_11:39:22,YZ,59.92932523
,,,,,,calibration,0,13,2,303,8,Q,0,right,0.469104952,1,0,,,,,,,,,,,,,,,,,,,,,1,,,,,,,,,,,,,,,,,,,,,,,,,,,,,,,,,,,,,,,,,,,,,,40,150820,20,Female,1,2024/02/08_11:39:22,YZ,59.92932523
,,,,,,calibration,0,13,2,303,9,C,0,right,0.374286484,1,0,,,,,,,,,,,,,,,,,,,,,1,,,,,,,,,,,,,,,,,,,,,,,,,,,,,,,,,,,,,,,,,,,,,,40,150820,20,Female,1,2024/02/08_11:39:22,YZ,59.92932523
,,,,,,calibration,0,13,2,303,10,Q,1,right,0.593302725,0,0,,,,,,,,,,,,,,,,,,,,,1,,,,,,,,,,,,,,,,,,,,,,,,,,,,,,,,,,,,,,,,,,,,,,40,150820,20,Female,1,2024/02/08_11:39:22,YZ,59.92932523
,,,,,,calibration,0,13,2,303,11,C,1,right,0.942654105,0,0,,,,,,,,,,,,,,,,,,,,,1,,,,,,,,,,,,,,,,,,,,,,,,,,,,,,,,,,,,,,,,,,,,,,40,150820,20,Female,1,2024/02/08_11:39:22,YZ,59.92932523
,,,,,,calibration,0,13,2,303,12,S,0,right,0.34939671,1,0,,,,,,,,,,,,,,,,,,,,,1,,,,,,,,,,,,,,,,,,,,,,,,,,,,,,,,,,,,,,,,,,,,,,40,150820,20,Female,1,2024/02/08_11:39:22,YZ,59.92932523
,,,,,,calibration,0,13,2,303,13,C,1,right,0.428809976,0,0,,,,,,,,,,,,,,,,,,,,,1,,,,,,,,,,,,,,,,,,,,,,,,,,,,,,,,,,,,,,,,,,,,,,40,150820,20,Female,1,2024/02/08_11:39:22,YZ,59.92932523
,,,,,,calibration,0,13,2,303,14,V,0,right,0.482332859,1,0,,,,,,,,,,,,,,,,,,,,,1,,,,,,,,,,,,,,,,,,,,,,,,,,,,,,,,,,,,,,,,,,,,,,40,150820,20,Female,1,2024/02/08_11:39:22,YZ,59.92932523
,,,,,,calibration,0,13,2,303,15,C,1,left,0.582027119,1,0,,,,,,,,,,,,,,,,,,,,,1,,,,,,,,,,,,,,,,,,,,,,,,,,,,,,,,,,,,,,,,,,,,,,40,150820,20,Female,1,2024/02/08_11:39:22,YZ,59.92932523
,,,,,,calibration,0,13,2,303,16,F,0,right,0.453317659,1,0,,,,,,,,,,,,,,,,,,,,,1,,,,,,,,,,,,,,,,,,,,,,,,,,,,,,,,,,,,,,,,,,,,,,40,150820,20,Female,1,2024/02/08_11:39:22,YZ,59.92932523
,,,,,,calibration,0,13,2,303,17,Q,0,right,0.525601683,1,0,,,,,,,,,,,,,,,,,,,,,1,,,,,,,,,,,,,,,,,,,,,,,,,,,,,,,,,,,,,,,,,,,,,,40,150820,20,Female,1,2024/02/08_11:39:22,YZ,59.92932523
,,,,,,calibration,0,13,2,303,18,F,1,left,0.442525218,1,0,,,,,,,,,,,,,,,,,,,,,1,,,,,,,,,,,,,,,,,,,,,,,,,,,,,,,,,,,,,,,,,,,,,,40,150820,20,Female,1,2024/02/08_11:39:22,YZ,59.92932523
,,,,,,calibration,0,13,2,303,19,S,0,right,0.436749325,1,0,,,,,,,,,,,,,,,,,,,,,1,,,,,,,,,,,,,,,,,,,,,,,,,,,,,,,,,,,,,,,,,,,,,,40,150820,20,Female,1,2024/02/08_11:39:22,YZ,59.92932523
,,,,,,calibration,0,13,2,303,,,,,,,,0.756410256,0.333333333,0.076923077,0.923076923,0,0.923076923,0.48826099,2,1,0,0,0,12,14,6,13,0,,,,1,,,,,,,,,,,,,,,,,,,,,,,,,,,,,,,,,,,,,,,,,,,,,,40,150820,20,Female,1,2024/02/08_11:39:22,YZ,59.92932523
,,,,,,Calibration,0,,2,303,,,,,,,,,,,,,,,,,,,,,,,,,15,,,1,,,,,,,,,,,,,,,,,,,,,,,,,,,,,,,,,,,,,,,,,,,,,,40,150820,20,Female,1,2024/02/08_11:39:22,YZ,59.92932523
,,,,,,CALIBRATION,0,,,,,,,,,,,,,,,,,,,,,,,,,,,,15,0.756410256,303,1,,,,,,,,,,,,,,,,,,,,,,,,,,,,,,,,,,,,,,,,,,,,,,40,150820,20,Female,1,2024/02/08_11:39:22,YZ,59.92932523
1,./instructions/inst_prac_1/Slide24.png,right,14.76629705,584.3559049,599.122202,,,,,,,,,,,,,,,,,,,,,,,,,,,,,,,,,1,,,,,,,,,,,,,,,,,,,,,,,,,,,,,,,,,,,,,,,,,,,,,,40,150820,20,Female,1,2024/02/08_11:39:22,YZ,59.92932523
2,./instructions/inst_prac_1/Slide25.png,right,4.589414556,599.1809484,603.770363,,,,,,,,,,,,,,,,,,,,,,,,,,,,,,,,,1,,,,,,,,,,,,,,,,,,,,,,,,,,,,,,,,,,,,,,,,,,,,,,40,150820,20,Female,1,2024/02/08_11:39:22,YZ,59.92932523
3,./instructions/inst_prac_1/Slide26.png,right,1.157961072,603.820202,604.9781631,,,,,,,,,,,,,,,,,,,,,,,,,,,,,,,,,1,,,,,,,,,,,,,,,,,,,,,,,,,,,,,,,,,,,,,,,,,,,,,,40,150820,20,Female,1,2024/02/08_11:39:22,YZ,59.92932523
4,./instructions/inst_prac_1/Slide27.png,right,1.12341761,605.0068892,606.1303068,,,,,,,,,,,,,,,,,,,,,,,,,,,,,,,,,1,,,,,,,,,,,,,,,,,,,,,,,,,,,,,,,,,,,,,,,,,,,,,,40,150820,20,Female,1,2024/02/08_11:39:22,YZ,59.92932523
5,./instructions/inst_prac_1/Slide28.png,right,0.794443135,606.1598514,606.9542945,,,,,,,,,,,,,,,,,,,,,,,,,,,,,,,,,1,,,,,,,,,,,,,,,,,,,,,,,,,,,,,,,,,,,,,,,,,,,,,,40,150820,20,Female,1,2024/02/08_11:39:22,YZ,59.92932523
6,./instructions/inst_prac_1/Slide29.png,right,3.934351968,606.9877925,610.9221444,,,,,,,,,,,,,,,,,,,,,,,,,,,,,,,,,1,,,,,,,,,,,,,,,,,,,,,,,,,,,,,,,,,,,,,,,,,,,,,,40,150820,20,Female,1,2024/02/08_11:39:22,YZ,59.92932523
7,./instructions/inst_prac_1/Slide30.png,right,8.676526405,610.9577731,619.6342995,,,,,,,,,,,,,,,,,,,,,,,,,,,,,,,,,1,,,,,,,,,,,,,,,,,,,,,,,,,,,,,,,,,,,,,,,,,,,,,,40,150820,20,Female,1,2024/02/08_11:39:22,YZ,59.92932523
,,,,,,practice,0,23,1,1250,1,V,0,right,2.30329992,1,0,,,,,,,,,,,,,,,,,,,,,1,,,,,,,,,,,,,,,,,,,,,,,,,,,,,,,,,,,,,,,,,,,,,,40,150820,20,Female,1,2024/02/08_11:39:22,YZ,59.92932523
,,,,,,practice,0,23,1,1250,2,V,1,left,0.87999813,1,0,,,,,,,,,,,,,,,,,,,,,1,,,,,,,,,,,,,,,,,,,,,,,,,,,,,,,,,,,,,,,,,,,,,,40,150820,20,Female,1,2024/02/08_11:39:22,YZ,59.92932523
,,,,,,practice,0,23,1,1250,3,F,0,right,0.812919957,1,0,,,,,,,,,,,,,,,,,,,,,1,,,,,,,,,,,,,,,,,,,,,,,,,,,,,,,,,,,,,,,,,,,,,,40,150820,20,Female,1,2024/02/08_11:39:22,YZ,59.92932523
,,,,,,practice,0,23,1,1250,4,N,0,right,0.878197796,1,0,,,,,,,,,,,,,,,,,,,,,1,,,,,,,,,,,,,,,,,,,,,,,,,,,,,,,,,,,,,,,,,,,,,,40,150820,20,Female,1,2024/02/08_11:39:22,YZ,59.92932523
,,,,,,practice,0,23,1,1250,5,V,0,right,0.846476676,1,0,,,,,,,,,,,,,,,,,,,,,1,,,,,,,,,,,,,,,,,,,,,,,,,,,,,,,,,,,,,,,,,,,,,,40,150820,20,Female,1,2024/02/08_11:39:22,YZ,59.92932523
,,,,,,practice,0,23,1,1250,6,V,1,left,1.145455909,1,0,,,,,,,,,,,,,,,,,,,,,1,,,,,,,,,,,,,,,,,,,,,,,,,,,,,,,,,,,,,,,,,,,,,,40,150820,20,Female,1,2024/02/08_11:39:22,YZ,59.92932523
,,,,,,practice,0,23,1,1250,7,Q,0,right,0.819117677,1,0,,,,,,,,,,,,,,,,,,,,,1,,,,,,,,,,,,,,,,,,,,,,,,,,,,,,,,,,,,,,,,,,,,,,40,150820,20,Female,1,2024/02/08_11:39:22,YZ,59.92932523
,,,,,,practice,0,23,1,1250,8,J,0,right,1.029339954,1,0,,,,,,,,,,,,,,,,,,,,,1,,,,,,,,,,,,,,,,,,,,,,,,,,,,,,,,,,,,,,,,,,,,,,40,150820,20,Female,1,2024/02/08_11:39:22,YZ,59.92932523
,,,,,,practice,0,23,1,1250,9,V,0,right,1.049614157,1,0,,,,,,,,,,,,,,,,,,,,,1,,,,,,,,,,,,,,,,,,,,,,,,,,,,,,,,,,,,,,,,,,,,,,40,150820,20,Female,1,2024/02/08_11:39:22,YZ,59.92932523
,,,,,,practice,0,23,1,1250,10,V,1,left,0.690291365,1,0,,,,,,,,,,,,,,,,,,,,,1,,,,,,,,,,,,,,,,,,,,,,,,,,,,,,,,,,,,,,,,,,,,,,40,150820,20,Female,1,2024/02/08_11:39:22,YZ,59.92932523
,,,,,,practice,0,23,1,1250,,,,,,,,1,1,0,1,0,1,1.045471154,3,0,0,0,0,7,10,3,7,0,,,,1,,,,,,,,,,,,,,,,,,,,,,,,,,,,,,,,,,,,,,,,,,,,,,40,150820,20,Female,1,2024/02/08_11:39:22,YZ,59.92932523
1,./instructions/inst_prac_1_next/Slide35.png,right,4.469262293,640.6610732,645.1303355,,,,,,,,,,,,,,,,,,,,,,,,,,,,,,,,,1,,,,,,,,,,,,,,,,,,,,,,,,,,,,,,,,,,,,,,,,,,,,,,40,150820,20,Female,1,2024/02/08_11:39:22,YZ,59.92932523
,,,,,,practice,0,23,1,303,1,V,0,right,1.046693104,1,0,,,,,,,,,,,,,,,,,,,,,1,,,,,,,,,,,,,,,,,,,,,,,,,,,,,,,,,,,,,,,,,,,,,,40,150820,20,Female,1,2024/02/08_11:39:22,YZ,59.92932523
,,,,,,practice,0,23,1,303,2,V,1,right,0.419129935,0,0,,,,,,,,,,,,,,,,,,,,,1,,,,,,,,,,,,,,,,,,,,,,,,,,,,,,,,,,,,,,,,,,,,,,40,150820,20,Female,1,2024/02/08_11:39:22,YZ,59.92932523
,,,,,,practice,0,23,1,303,3,X,0,right,0.894150992,1,0,,,,,,,,,,,,,,,,,,,,,1,,,,,,,,,,,,,,,,,,,,,,,,,,,,,,,,,,,,,,,,,,,,,,40,150820,20,Female,1,2024/02/08_11:39:22,YZ,59.92932523
,,,,,,practice,0,23,1,303,4,Q,0,right,0.506890177,1,0,,,,,,,,,,,,,,,,,,,,,1,,,,,,,,,,,,,,,,,,,,,,,,,,,,,,,,,,,,,,,,,,,,,,40,150820,20,Female,1,2024/02/08_11:39:22,YZ,59.92932523
,,,,,,practice,0,23,1,303,5,Q,1,left,0.700026876,1,0,,,,,,,,,,,,,,,,,,,,,1,,,,,,,,,,,,,,,,,,,,,,,,,,,,,,,,,,,,,,,,,,,,,,40,150820,20,Female,1,2024/02/08_11:39:22,YZ,59.92932523
,,,,,,practice,0,23,1,303,6,V,0,right,0.562246221,1,0,,,,,,,,,,,,,,,,,,,,,1,,,,,,,,,,,,,,,,,,,,,,,,,,,,,,,,,,,,,,,,,,,,,,40,150820,20,Female,1,2024/02/08_11:39:22,YZ,59.92932523
,,,,,,practice,0,23,1,303,7,Q,0,right,0.682479545,1,0,,,,,,,,,,,,,,,,,,,,,1,,,,,,,,,,,,,,,,,,,,,,,,,,,,,,,,,,,,,,,,,,,,,,40,150820,20,Female,1,2024/02/08_11:39:22,YZ,59.92932523
,,,,,,practice,0,23,1,303,8,V,0,right,0.777465395,1,0,,,,,,,,,,,,,,,,,,,,,1,,,,,,,,,,,,,,,,,,,,,,,,,,,,,,,,,,,,,,,,,,,,,,40,150820,20,Female,1,2024/02/08_11:39:22,YZ,59.92932523
,,,,,,practice,0,23,1,303,9,C,0,right,0.563595871,1,0,,,,,,,,,,,,,,,,,,,,,1,,,,,,,,,,,,,,,,,,,,,,,,,,,,,,,,,,,,,,,,,,,,,,40,150820,20,Female,1,2024/02/08_11:39:22,YZ,59.92932523
,,,,,,practice,0,23,1,303,10,C,1,left,0.442990821,1,0,,,,,,,,,,,,,,,,,,,,,1,,,,,,,,,,,,,,,,,,,,,,,,,,,,,,,,,,,,,,,,,,,,,,40,150820,20,Female,1,2024/02/08_11:39:22,YZ,59.92932523
,,,,,,practice,0,23,1,303,11,V,0,right,0.588639597,1,0,,,,,,,,,,,,,,,,,,,,,1,,,,,,,,,,,,,,,,,,,,,,,,,,,,,,,,,,,,,,,,,,,,,,40,150820,20,Female,1,2024/02/08_11:39:22,YZ,59.92932523
,,,,,,practice,0,23,1,303,12,J,0,right,0.539028457,1,0,,,,,,,,,,,,,,,,,,,,,1,,,,,,,,,,,,,,,,,,,,,,,,,,,,,,,,,,,,,,,,,,,,,,40,150820,20,Female,1,2024/02/08_11:39:22,YZ,59.92932523
,,,,,,practice,0,23,1,303,13,X,0,right,0.507238513,1,0,,,,,,,,,,,,,,,,,,,,,1,,,,,,,,,,,,,,,,,,,,,,,,,,,,,,,,,,,,,,,,,,,,,,40,150820,20,Female,1,2024/02/08_11:39:22,YZ,59.92932523
,,,,,,practice,0,23,1,303,14,X,1,left,0.598814107,1,0,,,,,,,,,,,,,,,,,,,,,1,,,,,,,,,,,,,,,,,,,,,,,,,,,,,,,,,,,,,,,,,,,,,,40,150820,20,Female,1,2024/02/08_11:39:22,YZ,59.92932523
,,,,,,practice,0,23,1,303,15,F,0,right,0.458031682,1,0,,,,,,,,,,,,,,,,,,,,,1,,,,,,,,,,,,,,,,,,,,,,,,,,,,,,,,,,,,,,,,,,,,,,40,150820,20,Female,1,2024/02/08_11:39:22,YZ,59.92932523
,,,,,,practice,0,23,1,303,16,N,0,right,0.54600212,1,0,,,,,,,,,,,,,,,,,,,,,1,,,,,,,,,,,,,,,,,,,,,,,,,,,,,,,,,,,,,,,,,,,,,,40,150820,20,Female,1,2024/02/08_11:39:22,YZ,59.92932523
,,,,,,practice,0,23,1,303,17,N,1,left,0.590467082,1,0,,,,,,,,,,,,,,,,,,,,,1,,,,,,,,,,,,,,,,,,,,,,,,,,,,,,,,,,,,,,,,,,,,,,40,150820,20,Female,1,2024/02/08_11:39:22,YZ,59.92932523
,,,,,,practice,0,23,1,303,18,J,0,right,0.564989002,1,0,,,,,,,,,,,,,,,,,,,,,1,,,,,,,,,,,,,,,,,,,,,,,,,,,,,,,,,,,,,,,,,,,,,,40,150820,20,Female,1,2024/02/08_11:39:22,YZ,59.92932523
,,,,,,practice,0,23,1,303,19,S,0,right,0.611106631,1,0,,,,,,,,,,,,,,,,,,,,,1,,,,,,,,,,,,,,,,,,,,,,,,,,,,,,,,,,,,,,,,,,,,,,40,150820,20,Female,1,2024/02/08_11:39:22,YZ,59.92932523
,,,,,,practice,0,23,1,303,,,,,,,,0.95,0.8,0,1,0,1,0.610525586,4,0,0,0,0,14,18,5,14,0,,,,1,,,,,,,,,,,,,,,,,,,,,,,,,,,,,,,,,,,,,,,,,,,,,,40,150820,20,Female,1,2024/02/08_11:39:22,YZ,59.92932523
,,,,,,practice,0,17,1,303,1,J,0,right,0.581042011,1,0,,,,,,,,,,,,,,,,,,,,,1,,,,,,,,,,,,,,,,,,,,,,,,,,,,,,,,,,,,,,,,,,,,,,40,150820,20,Female,1,2024/02/08_11:39:22,YZ,59.92932523
,,,,,,practice,0,17,1,303,2,F,0,right,0.476896896,1,0,,,,,,,,,,,,,,,,,,,,,1,,,,,,,,,,,,,,,,,,,,,,,,,,,,,,,,,,,,,,,,,,,,,,40,150820,20,Female,1,2024/02/08_11:39:22,YZ,59.92932523
,,,,,,practice,0,17,1,303,3,C,0,right,0.448173746,1,0,,,,,,,,,,,,,,,,,,,,,1,,,,,,,,,,,,,,,,,,,,,,,,,,,,,,,,,,,,,,,,,,,,,,40,150820,20,Female,1,2024/02/08_11:39:22,YZ,59.92932523
,,,,,,practice,0,17,1,303,4,S,0,right,0.444489049,1,0,,,,,,,,,,,,,,,,,,,,,1,,,,,,,,,,,,,,,,,,,,,,,,,,,,,,,,,,,,,,,,,,,,,,40,150820,20,Female,1,2024/02/08_11:39:22,YZ,59.92932523
,,,,,,practice,0,17,1,303,5,S,1,left,0.578516016,1,0,,,,,,,,,,,,,,,,,,,,,1,,,,,,,,,,,,,,,,,,,,,,,,,,,,,,,,,,,,,,,,,,,,,,40,150820,20,Female,1,2024/02/08_11:39:22,YZ,59.92932523
,,,,,,practice,0,17,1,303,6,V,0,right,0.458721137,1,0,,,,,,,,,,,,,,,,,,,,,1,,,,,,,,,,,,,,,,,,,,,,,,,,,,,,,,,,,,,,,,,,,,,,40,150820,20,Female,1,2024/02/08_11:39:22,YZ,59.92932523
,,,,,,practice,0,17,1,303,7,C,0,right,0.702997101,1,0,,,,,,,,,,,,,,,,,,,,,1,,,,,,,,,,,,,,,,,,,,,,,,,,,,,,,,,,,,,,,,,,,,,,40,150820,20,Female,1,2024/02/08_11:39:22,YZ,59.92932523
,,,,,,practice,0,17,1,303,8,N,0,right,0.490592308,1,0,,,,,,,,,,,,,,,,,,,,,1,,,,,,,,,,,,,,,,,,,,,,,,,,,,,,,,,,,,,,,,,,,,,,40,150820,20,Female,1,2024/02/08_11:39:22,YZ,59.92932523
,,,,,,practice,0,17,1,303,9,F,0,right,0.411525536,1,0,,,,,,,,,,,,,,,,,,,,,1,,,,,,,,,,,,,,,,,,,,,,,,,,,,,,,,,,,,,,,,,,,,,,40,150820,20,Female,1,2024/02/08_11:39:22,YZ,59.92932523
,,,,,,practice,0,17,1,303,10,S,0,right,0.466554584,1,0,,,,,,,,,,,,,,,,,,,,,1,,,,,,,,,,,,,,,,,,,,,,,,,,,,,,,,,,,,,,,,,,,,,,40,150820,20,Female,1,2024/02/08_11:39:22,YZ,59.92932523
,,,,,,practice,0,17,1,303,11,S,1,left,0.597555173,1,0,,,,,,,,,,,,,,,,,,,,,1,,,,,,,,,,,,,,,,,,,,,,,,,,,,,,,,,,,,,,,,,,,,,,40,150820,20,Female,1,2024/02/08_11:39:22,YZ,59.92932523
,,,,,,practice,0,17,1,303,12,N,0,right,0.434533939,1,0,,,,,,,,,,,,,,,,,,,,,1,,,,,,,,,,,,,,,,,,,,,,,,,,,,,,,,,,,,,,,,,,,,,,40,150820,20,Female,1,2024/02/08_11:39:22,YZ,59.92932523
,,,,,,practice,0,17,1,303,13,N,1,left,0.525973386,1,0,,,,,,,,,,,,,,,,,,,,,1,,,,,,,,,,,,,,,,,,,,,,,,,,,,,,,,,,,,,,,,,,,,,,40,150820,20,Female,1,2024/02/08_11:39:22,YZ,59.92932523
,,,,,,practice,0,17,1,303,14,V,0,right,0.490254644,1,0,,,,,,,,,,,,,,,,,,,,,1,,,,,,,,,,,,,,,,,,,,,,,,,,,,,,,,,,,,,,,,,,,,,,40,150820,20,Female,1,2024/02/08_11:39:22,YZ,59.92932523
,,,,,,practice,0,17,1,303,15,X,0,right,0.618410132,1,0,,,,,,,,,,,,,,,,,,,,,1,,,,,,,,,,,,,,,,,,,,,,,,,,,,,,,,,,,,,,,,,,,,,,40,150820,20,Female,1,2024/02/08_11:39:22,YZ,59.92932523
,,,,,,practice,0,17,1,303,16,N,0,right,0.546762128,1,0,,,,,,,,,,,,,,,,,,,,,1,,,,,,,,,,,,,,,,,,,,,,,,,,,,,,,,,,,,,,,,,,,,,,40,150820,20,Female,1,2024/02/08_11:39:22,YZ,59.92932523
,,,,,,practice,0,17,1,303,17,N,1,left,0.532976229,1,0,,,,,,,,,,,,,,,,,,,,,1,,,,,,,,,,,,,,,,,,,,,,,,,,,,,,,,,,,,,,,,,,,,,,40,150820,20,Female,1,2024/02/08_11:39:22,YZ,59.92932523
,,,,,,practice,0,17,1,303,18,Q,0,right,0.391551391,1,0,,,,,,,,,,,,,,,,,,,,,1,,,,,,,,,,,,,,,,,,,,,,,,,,,,,,,,,,,,,,,,,,,,,,40,150820,20,Female,1,2024/02/08_11:39:22,YZ,59.92932523
,,,,,,practice,0,17,1,303,19,Q,1,right,0.592823471,0,0,,,,,,,,,,,,,,,,,,,,,1,,,,,,,,,,,,,,,,,,,,,,,,,,,,,,,,,,,,,,,,,,,,,,40,150820,20,Female,1,2024/02/08_11:39:22,YZ,59.92932523
,,,,,,practice,0,17,1,303,,,,,,,,0.95,0.8,0,1,0,1,0.51528152,4,0,0,0,0,14,18,5,14,0,,,,1,,,,,,,,,,,,,,,,,,,,,,,,,,,,,,,,,,,,,,,,,,,,,,40,150820,20,Female,1,2024/02/08_11:39:22,YZ,59.92932523
1,./instructions/inst_prac_3/Slide37.png,right,12.37421098,690.6521912,703.0264021,,,,,,,,,,,,,,,,,,,,,,,,,,,,,,,,,1,,,,,,,,,,,,,,,,,,,,,,,,,,,,,,,,,,,,,,,,,,,,,,40,150820,20,Female,1,2024/02/08_11:39:22,YZ,59.92932523
2,./instructions/inst_prac_3/Slide38.png,right,1.733517706,703.068971,704.8024887,,,,,,,,,,,,,,,,,,,,,,,,,,,,,,,,,1,,,,,,,,,,,,,,,,,,,,,,,,,,,,,,,,,,,,,,,,,,,,,,40,150820,20,Female,1,2024/02/08_11:39:22,YZ,59.92932523
3,./instructions/inst_prac_3/Slide39.png,right,1.60071438,704.881567,706.4822814,,,,,,,,,,,,,,,,,,,,,,,,,,,,,,,,,1,,,,,,,,,,,,,,,,,,,,,,,,,,,,,,,,,,,,,,,,,,,,,,40,150820,20,Female,1,2024/02/08_11:39:22,YZ,59.92932523
4,./instructions/inst_prac_3/Slide40.png,right,0.739668444,706.5188021,707.2584706,,,,,,,,,,,,,,,,,,,,,,,,,,,,,,,,,1,,,,,,,,,,,,,,,,,,,,,,,,,,,,,,,,,,,,,,,,,,,,,,40,150820,20,Female,1,2024/02/08_11:39:22,YZ,59.92932523
5,./instructions/inst_prac_3/Slide41.png,right,1.1251385,707.2929919,708.4181304,,,,,,,,,,,,,,,,,,,,,,,,,,,,,,,,,1,,,,,,,,,,,,,,,,,,,,,,,,,,,,,,,,,,,,,,,,,,,,,,40,150820,20,Female,1,2024/02/08_11:39:22,YZ,59.92932523
6,./instructions/inst_prac_3/Slide42.png,right,3.516109203,708.4543075,711.9704167,,,,,,,,,,,,,,,,,,,,,,,,,,,,,,,,,1,,,,,,,,,,,,,,,,,,,,,,,,,,,,,,,,,,,,,,,,,,,,,,40,150820,20,Female,1,2024/02/08_11:39:22,YZ,59.92932523
5,./instructions/inst_prac_3/Slide43.png,left,3.416791885,712.0256739,715.4424658,,,,,,,,,,,,,,,,,,,,,,,,,,,,,,,,,1,,,,,,,,,,,,,,,,,,,,,,,,,,,,,,,,,,,,,,,,,,,,,,40,150820,20,Female,1,2024/02/08_11:39:22,YZ,59.92932523
6,./instructions/inst_prac_3/Slide42.png,right,3.716460947,715.4778706,719.1943315,,,,,,,,,,,,,,,,,,,,,,,,,,,,,,,,,1,,,,,,,,,,,,,,,,,,,,,,,,,,,,,,,,,,,,,,,,,,,,,,40,150820,20,Female,1,2024/02/08_11:39:22,YZ,59.92932523
7,./instructions/inst_prac_3/Slide43.png,right,0.812564958,719.2298096,720.0423746,,,,,,,,,,,,,,,,,,,,,,,,,,,,,,,,,1,,,,,,,,,,,,,,,,,,,,,,,,,,,,,,,,,,,,,,,,,,,,,,40,150820,20,Female,1,2024/02/08_11:39:22,YZ,59.92932523
8,./instructions/inst_prac_3/Slide44.png,right,1.253107423,720.0852895,721.3383969,,,,,,,,,,,,,,,,,,,,,,,,,,,,,,,,,1,,,,,,,,,,,,,,,,,,,,,,,,,,,,,,,,,,,,,,,,,,,,,,40,150820,20,Female,1,2024/02/08_11:39:22,YZ,59.92932523
,,,,,,practice,0,16,3,788,1,F,0,right,1.589373343,1,0,,,,,,,,,,,,,,,,,,,,,1,,,,,,,,,,,,,,,,,,,,,,,,,,,,,,,,,,,,,,,,,,,,,,40,150820,20,Female,1,2024/02/08_11:39:22,YZ,59.92932523
,,,,,,practice,0,16,3,788,2,C,0,right,0.551156301,1,0,,,,,,,,,,,,,,,,,,,,,1,,,,,,,,,,,,,,,,,,,,,,,,,,,,,,,,,,,,,,,,,,,,,,40,150820,20,Female,1,2024/02/08_11:39:22,YZ,59.92932523
,,,,,,practice,0,16,3,788,3,C,0,right,0.417064409,1,0,,,,,,,,,,,,,,,,,,,,,1,,,,,,,,,,,,,,,,,,,,,,,,,,,,,,,,,,,,,,,,,,,,,,40,150820,20,Female,1,2024/02/08_11:39:22,YZ,59.92932523
,,,,,,practice,0,16,3,788,4,F,1,left,0.52563125,1,0,,,,,,,,,,,,,,,,,,,,,1,,,,,,,,,,,,,,,,,,,,,,,,,,,,,,,,,,,,,,,,,,,,,,40,150820,20,Female,1,2024/02/08_11:39:22,YZ,59.92932523
,,,,,,practice,0,16,3,788,5,C,1,left,2.445618117,1,0,,,,,,,,,,,,,,,,,,,,,1,,,,,,,,,,,,,,,,,,,,,,,,,,,,,,,,,,,,,,,,,,,,,,40,150820,20,Female,1,2024/02/08_11:39:22,YZ,59.92932523
,,,,,,practice,0,16,3,788,6,N,0,right,0.766745021,1,0,,,,,,,,,,,,,,,,,,,,,1,,,,,,,,,,,,,,,,,,,,,,,,,,,,,,,,,,,,,,,,,,,,,,40,150820,20,Female,1,2024/02/08_11:39:22,YZ,59.92932523
,,,,,,practice,0,16,3,788,7,J,0,right,0.96670122,1,0,,,,,,,,,,,,,,,,,,,,,1,,,,,,,,,,,,,,,,,,,,,,,,,,,,,,,,,,,,,,,,,,,,,,40,150820,20,Female,1,2024/02/08_11:39:22,YZ,59.92932523
,,,,,,practice,0,16,3,788,8,F,0,right,0.828697829,1,0,,,,,,,,,,,,,,,,,,,,,1,,,,,,,,,,,,,,,,,,,,,,,,,,,,,,,,,,,,,,,,,,,,,,40,150820,20,Female,1,2024/02/08_11:39:22,YZ,59.92932523
,,,,,,practice,0,16,3,788,9,J,0,right,0.749702215,1,0,,,,,,,,,,,,,,,,,,,,,1,,,,,,,,,,,,,,,,,,,,,,,,,,,,,,,,,,,,,,,,,,,,,,40,150820,20,Female,1,2024/02/08_11:39:22,YZ,59.92932523
,,,,,,practice,0,16,3,788,10,J,1,left,0.611061226,1,0,,,,,,,,,,,,,,,,,,,,,1,,,,,,,,,,,,,,,,,,,,,,,,,,,,,,,,,,,,,,,,,,,,,,40,150820,20,Female,1,2024/02/08_11:39:22,YZ,59.92932523
,,,,,,practice,0,16,3,788,11,Q,0,right,0.888327058,1,0,,,,,,,,,,,,,,,,,,,,,1,,,,,,,,,,,,,,,,,,,,,,,,,,,,,,,,,,,,,,,,,,,,,,40,150820,20,Female,1,2024/02/08_11:39:22,YZ,59.92932523
,,,,,,practice,0,16,3,788,12,J,1,left,0.636464907,1,0,,,,,,,,,,,,,,,,,,,,,1,,,,,,,,,,,,,,,,,,,,,,,,,,,,,,,,,,,,,,,,,,,,,,40,150820,20,Female,1,2024/02/08_11:39:22,YZ,59.92932523
,,,,,,practice,0,16,3,788,13,S,0,left,0.903871751,0,0,,,,,,,,,,,,,,,,,,,,,1,,,,,,,,,,,,,,,,,,,,,,,,,,,,,,,,,,,,,,,,,,,,,,40,150820,20,Female,1,2024/02/08_11:39:22,YZ,59.92932523
,,,,,,practice,0,16,3,788,,,,,,,,0.972222222,1,0.111111111,0.888888889,0,0.888888889,0.91387805,4,1,0,0,0,8,12,4,9,0,,,,1,,,,,,,,,,,,,,,,,,,,,,,,,,,,,,,,,,,,,,,,,,,,,,40,150820,20,Female,1,2024/02/08_11:39:22,YZ,59.92932523
1,./instructions/inst_prac_3_next/Slide49.png,right,1.912433464,747.5059539,749.4183874,,,,,,,,,,,,,,,,,,,,,,,,,,,,,,,,,1,,,,,,,,,,,,,,,,,,,,,,,,,,,,,,,,,,,,,,,,,,,,,,40,150820,20,Female,1,2024/02/08_11:39:22,YZ,59.92932523
,,,,,,practice,0,5,3,303,1,J,0,right,0.903850349,1,0,,,,,,,,,,,,,,,,,,,,,1,,,,,,,,,,,,,,,,,,,,,,,,,,,,,,,,,,,,,,,,,,,,,,40,150820,20,Female,1,2024/02/08_11:39:22,YZ,59.92932523
,,,,,,practice,0,5,3,303,2,N,0,right,0.380076848,1,0,,,,,,,,,,,,,,,,,,,,,1,,,,,,,,,,,,,,,,,,,,,,,,,,,,,,,,,,,,,,,,,,,,,,40,150820,20,Female,1,2024/02/08_11:39:22,YZ,59.92932523
,,,,,,practice,0,5,3,303,3,N,0,right,0.286407272,1,0,,,,,,,,,,,,,,,,,,,,,1,,,,,,,,,,,,,,,,,,,,,,,,,,,,,,,,,,,,,,,,,,,,,,40,150820,20,Female,1,2024/02/08_11:39:22,YZ,59.92932523
,,,,,,practice,0,5,3,303,4,J,1,left,0.479394316,1,0,,,,,,,,,,,,,,,,,,,,,1,,,,,,,,,,,,,,,,,,,,,,,,,,,,,,,,,,,,,,,,,,,,,,40,150820,20,Female,1,2024/02/08_11:39:22,YZ,59.92932523
,,,,,,practice,0,5,3,303,5,N,1,right,1.44566394,0,0,,,,,,,,,,,,,,,,,,,,,1,,,,,,,,,,,,,,,,,,,,,,,,,,,,,,,,,,,,,,,,,,,,,,40,150820,20,Female,1,2024/02/08_11:39:22,YZ,59.92932523
,,,,,,practice,0,5,3,303,6,V,0,right,0.990724188,1,0,,,,,,,,,,,,,,,,,,,,,1,,,,,,,,,,,,,,,,,,,,,,,,,,,,,,,,,,,,,,,,,,,,,,40,150820,20,Female,1,2024/02/08_11:39:22,YZ,59.92932523
,,,,,,practice,0,5,3,303,7,C,0,right,0.939034228,1,0,,,,,,,,,,,,,,,,,,,,,1,,,,,,,,,,,,,,,,,,,,,,,,,,,,,,,,,,,,,,,,,,,,,,40,150820,20,Female,1,2024/02/08_11:39:22,YZ,59.92932523
,,,,,,practice,0,5,3,303,8,N,1,right,0.729898243,0,0,,,,,,,,,,,,,,,,,,,,,1,,,,,,,,,,,,,,,,,,,,,,,,,,,,,,,,,,,,,,,,,,,,,,40,150820,20,Female,1,2024/02/08_11:39:22,YZ,59.92932523
,,,,,,practice,0,5,3,303,9,C,0,left,0.762543046,0,0,,,,,,,,,,,,,,,,,,,,,1,,,,,,,,,,,,,,,,,,,,,,,,,,,,,,,,,,,,,,,,,,,,,,40,150820,20,Female,1,2024/02/08_11:39:22,YZ,59.92932523
,,,,,,practice,0,5,3,303,10,F,0,right,0.393839299,1,0,,,,,,,,,,,,,,,,,,,,,1,,,,,,,,,,,,,,,,,,,,,,,,,,,,,,,,,,,,,,,,,,,,,,40,150820,20,Female,1,2024/02/08_11:39:22,YZ,59.92932523
,,,,,,practice,0,5,3,303,11,S,0,right,1.221919276,1,0,,,,,,,,,,,,,,,,,,,,,1,,,,,,,,,,,,,,,,,,,,,,,,,,,,,,,,,,,,,,,,,,,,,,40,150820,20,Female,1,2024/02/08_11:39:22,YZ,59.92932523
,,,,,,practice,0,5,3,303,12,N,0,left,0.677115042,0,0,,,,,,,,,,,,,,,,,,,,,1,,,,,,,,,,,,,,,,,,,,,,,,,,,,,,,,,,,,,,,,,,,,,,40,150820,20,Female,1,2024/02/08_11:39:22,YZ,59.92932523
,,,,,,practice,0,5,3,303,13,X,0,right,0.66723424,1,0,,,,,,,,,,,,,,,,,,,,,1,,,,,,,,,,,,,,,,,,,,,,,,,,,,,,,,,,,,,,,,,,,,,,40,150820,20,Female,1,2024/02/08_11:39:22,YZ,59.92932523
,,,,,,practice,0,5,3,303,14,S,1,right,0.667789732,0,0,,,,,,,,,,,,,,,,,,,,,1,,,,,,,,,,,,,,,,,,,,,,,,,,,,,,,,,,,,,,,,,,,,,,40,150820,20,Female,1,2024/02/08_11:39:22,YZ,59.92932523
,,,,,,practice,0,5,3,303,15,X,0,right,0.819416452,1,0,,,,,,,,,,,,,,,,,,,,,1,,,,,,,,,,,,,,,,,,,,,,,,,,,,,,,,,,,,,,,,,,,,,,40,150820,20,Female,1,2024/02/08_11:39:22,YZ,59.92932523
,,,,,,practice,0,5,3,303,16,J,0,right,0.53902594,1,0,,,,,,,,,,,,,,,,,,,,,1,,,,,,,,,,,,,,,,,,,,,,,,,,,,,,,,,,,,,,,,,,,,,,40,150820,20,Female,1,2024/02/08_11:39:22,YZ,59.92932523
,,,,,,practice,0,5,3,303,17,Q,0,right,0.963336556,1,0,,,,,,,,,,,,,,,,,,,,,1,,,,,,,,,,,,,,,,,,,,,,,,,,,,,,,,,,,,,,,,,,,,,,40,150820,20,Female,1,2024/02/08_11:39:22,YZ,59.92932523
,,,,,,practice,0,5,3,303,18,Q,0,right,1.795277379,1,0,,,,,,,,,,,,,,,,,,,,,1,,,,,,,,,,,,,,,,,,,,,,,,,,,,,,,,,,,,,,,,,,,,,,40,150820,20,Female,1,2024/02/08_11:39:22,YZ,59.92932523
,,,,,,practice,0,5,3,303,19,J,1,right,0.895996098,0,0,,,,,,,,,,,,,,,,,,,,,1,,,,,,,,,,,,,,,,,,,,,,,,,,,,,,,,,,,,,,,,,,,,,,40,150820,20,Female,1,2024/02/08_11:39:22,YZ,59.92932523
,,,,,,practice,0,5,3,303,,,,,,,,0.585714286,0.2,0.142857143,0.857142857,0,0.857142857,0.818870655,1,2,0,0,0,12,13,5,14,0,,,,1,,,,,,,,,,,,,,,,,,,,,,,,,,,,,,,,,,,,,,,,,,,,,,40,150820,20,Female,1,2024/02/08_11:39:22,YZ,59.92932523
,,,,,,practice,0,9,3,303,1,J,0,right,1.125549621,1,0,,,,,,,,,,,,,,,,,,,,,1,,,,,,,,,,,,,,,,,,,,,,,,,,,,,,,,,,,,,,,,,,,,,,40,150820,20,Female,1,2024/02/08_11:39:22,YZ,59.92932523
,,,,,,practice,0,9,3,303,2,V,0,right,0.310796015,1,0,,,,,,,,,,,,,,,,,,,,,1,,,,,,,,,,,,,,,,,,,,,,,,,,,,,,,,,,,,,,,,,,,,,,40,150820,20,Female,1,2024/02/08_11:39:22,YZ,59.92932523
,,,,,,practice,0,9,3,303,3,F,0,right,0.670176125,1,0,,,,,,,,,,,,,,,,,,,,,1,,,,,,,,,,,,,,,,,,,,,,,,,,,,,,,,,,,,,,,,,,,,,,40,150820,20,Female,1,2024/02/08_11:39:22,YZ,59.92932523
,,,,,,practice,0,9,3,303,4,F,0,right,1.218128732,1,0,,,,,,,,,,,,,,,,,,,,,1,,,,,,,,,,,,,,,,,,,,,,,,,,,,,,,,,,,,,,,,,,,,,,40,150820,20,Female,1,2024/02/08_11:39:22,YZ,59.92932523
,,,,,,practice,0,9,3,303,5,Q,0,right,1.211980981,1,0,,,,,,,,,,,,,,,,,,,,,1,,,,,,,,,,,,,,,,,,,,,,,,,,,,,,,,,,,,,,,,,,,,,,40,150820,20,Female,1,2024/02/08_11:39:22,YZ,59.92932523
,,,,,,practice,0,9,3,303,6,F,1,left,0.705147833,1,0,,,,,,,,,,,,,,,,,,,,,1,,,,,,,,,,,,,,,,,,,,,,,,,,,,,,,,,,,,,,,,,,,,,,40,150820,20,Female,1,2024/02/08_11:39:22,YZ,59.92932523
,,,,,,practice,0,9,3,303,7,J,0,right,0.63403971,1,0,,,,,,,,,,,,,,,,,,,,,1,,,,,,,,,,,,,,,,,,,,,,,,,,,,,,,,,,,,,,,,,,,,,,40,150820,20,Female,1,2024/02/08_11:39:22,YZ,59.92932523
,,,,,,practice,0,9,3,303,8,J,0,right,1.003189443,1,0,,,,,,,,,,,,,,,,,,,,,1,,,,,,,,,,,,,,,,,,,,,,,,,,,,,,,,,,,,,,,,,,,,,,40,150820,20,Female,1,2024/02/08_11:39:22,YZ,59.92932523
,,,,,,practice,0,9,3,303,9,N,0,right,0.731810454,1,0,,,,,,,,,,,,,,,,,,,,,1,,,,,,,,,,,,,,,,,,,,,,,,,,,,,,,,,,,,,,,,,,,,,,40,150820,20,Female,1,2024/02/08_11:39:22,YZ,59.92932523
,,,,,,practice,0,9,3,303,10,V,0,right,0.770760156,1,0,,,,,,,,,,,,,,,,,,,,,1,,,,,,,,,,,,,,,,,,,,,,,,,,,,,,,,,,,,,,,,,,,,,,40,150820,20,Female,1,2024/02/08_11:39:22,YZ,59.92932523
,,,,,,practice,0,9,3,303,11,C,0,right,0.682891902,1,0,,,,,,,,,,,,,,,,,,,,,1,,,,,,,,,,,,,,,,,,,,,,,,,,,,,,,,,,,,,,,,,,,,,,40,150820,20,Female,1,2024/02/08_11:39:22,YZ,59.92932523
,,,,,,practice,0,9,3,303,12,C,0,right,1.203874076,1,0,,,,,,,,,,,,,,,,,,,,,1,,,,,,,,,,,,,,,,,,,,,,,,,,,,,,,,,,,,,,,,,,,,,,40,150820,20,Female,1,2024/02/08_11:39:22,YZ,59.92932523
,,,,,,practice,0,9,3,303,13,V,1,right,0.461792665,0,0,,,,,,,,,,,,,,,,,,,,,1,,,,,,,,,,,,,,,,,,,,,,,,,,,,,,,,,,,,,,,,,,,,,,40,150820,20,Female,1,2024/02/08_11:39:22,YZ,59.92932523
,,,,,,practice,0,9,3,303,14,C,1,right,3.965821392,0,0,,,,,,,,,,,,,,,,,,,,,1,,,,,,,,,,,,,,,,,,,,,,,,,,,,,,,,,,,,,,,,,,,,,,40,150820,20,Female,1,2024/02/08_11:39:22,YZ,59.92932523
,,,,,,practice,0,9,3,303,15,Q,0,right,2.086143925,1,0,,,,,,,,,,,,,,,,,,,,,1,,,,,,,,,,,,,,,,,,,,,,,,,,,,,,,,,,,,,,,,,,,,,,40,150820,20,Female,1,2024/02/08_11:39:22,YZ,59.92932523
,,,,,,practice,0,9,3,303,16,V,1,right,1.207685162,0,0,,,,,,,,,,,,,,,,,,,,,1,,,,,,,,,,,,,,,,,,,,,,,,,,,,,,,,,,,,,,,,,,,,,,40,150820,20,Female,1,2024/02/08_11:39:22,YZ,59.92932523
,,,,,,practice,0,9,3,303,17,N,0,right,0.742935651,1,0,,,,,,,,,,,,,,,,,,,,,1,,,,,,,,,,,,,,,,,,,,,,,,,,,,,,,,,,,,,,,,,,,,,,40,150820,20,Female,1,2024/02/08_11:39:22,YZ,59.92932523
,,,,,,practice,0,9,3,303,18,Q,1,right,2.84207463,0,0,,,,,,,,,,,,,,,,,,,,,1,,,,,,,,,,,,,,,,,,,,,,,,,,,,,,,,,,,,,,,,,,,,,,40,150820,20,Female,1,2024/02/08_11:39:22,YZ,59.92932523
,,,,,,practice,0,9,3,303,19,V,1,right,0.445452436,0,0,,,,,,,,,,,,,,,,,,,,,1,,,,,,,,,,,,,,,,,,,,,,,,,,,,,,,,,,,,,,,,,,,,,,40,150820,20,Female,1,2024/02/08_11:39:22,YZ,59.92932523
,,,,,,practice,0,9,3,303,,,,,,,,0.791666667,0.166666667,0,1,0,1,1.158960574,1,0,0,0,0,13,14,6,13,0,,,,1,,,,,,,,,,,,,,,,,,,,,,,,,,,,,,,,,,,,,,,,,,,,,,40,150820,20,Female,1,2024/02/08_11:39:22,YZ,59.92932523
1,./instructions/inst_prac_main/Slide51.png,right,2.696215549,811.2260075,813.9222231,,,,,,,,,,,,,,,,,,,,,,,,,,,,,,,,,1,,,,,,,,,,,,,,,,,,,,,,,,,,,,,,,,,,,,,,,,,,,,,,40,150820,20,Female,1,2024/02/08_11:39:22,YZ,59.92932523
2,./instructions/inst_prac_main/Slide52.png,right,19.48876116,813.9773143,833.4660755,,,,,,,,,,,,,,,,,,,,,,,,,,,,,,,,,1,,,,,,,,,,,,,,,,,,,,,,,,,,,,,,,,,,,,,,,,,,,,,,40,150820,20,Female,1,2024/02/08_11:39:22,YZ,59.92932523
3,./instructions/inst_prac_main/Slide53.png,right,8.555113644,833.5109875,842.0661011,,,,,,,,,,,,,,,,,,,,,,,,,,,,,,,,,1,,,,,,,,,,,,,,,,,,,,,,,,,,,,,,,,,,,,,,,,,,,,,,40,150820,20,Female,1,2024/02/08_11:39:22,YZ,59.92932523
4,./instructions/inst_prac_main/Slide54.png,right,16.83760612,842.1086429,858.946249,,,,,,,,,,,,,,,,,,,,,,,,,,,,,,,,,1,,,,,,,,,,,,,,,,,,,,,,,,,,,,,,,,,,,,,,,,,,,,,,40,150820,20,Female,1,2024/02/08_11:39:22,YZ,59.92932523
,,,,,,practice_main,0,1,1,303,1,V,0,None,nan,0,1,,,,,,,,,,,,,,,,,,,,,1,,,,,,,,,,,,,,,,,,,,,,,,,,,,,,,,,,,,,,,,,,,,,,40,150820,20,Female,1,2024/02/08_11:39:22,YZ,59.92932523
,,,,,,practice_main,0,1,1,303,2,V,1,None,nan,0,1,,,,,,,,,,,,,,,,,,,,,1,,,,,,,,,,,,,,,,,,,,,,,,,,,,,,,,,,,,,,,,,,,,,,40,150820,20,Female,1,2024/02/08_11:39:22,YZ,59.92932523
,,,,,,practice_main,0,1,1,303,3,J,0,None,nan,0,1,,,,,,,,,,,,,,,,,,,,,1,,,,,,,,,,,,,,,,,,,,,,,,,,,,,,,,,,,,,,,,,,,,,,40,150820,20,Female,1,2024/02/08_11:39:22,YZ,59.92932523
,,,,,,practice_main,0,1,1,303,4,X,0,right,0.307343803,1,0,,,,,,,,,,,,,,,,,,,,,1,,,,,,,,,,,,,,,,,,,,,,,,,,,,,,,,,,,,,,,,,,,,,,40,150820,20,Female,1,2024/02/08_11:39:22,YZ,59.92932523
,,,,,,practice_main,0,1,1,303,5,X,1,right,0.30398951,0,0,,,,,,,,,,,,,,,,,,,,,1,,,,,,,,,,,,,,,,,,,,,,,,,,,,,,,,,,,,,,,,,,,,,,40,150820,20,Female,1,2024/02/08_11:39:22,YZ,59.92932523
,,,,,,practice_main,0,1,1,303,6,Q,0,right,0.374261769,1,0,,,,,,,,,,,,,,,,,,,,,1,,,,,,,,,,,,,,,,,,,,,,,,,,,,,,,,,,,,,,,,,,,,,,40,150820,20,Female,1,2024/02/08_11:39:22,YZ,59.92932523
,,,,,,practice_main,0,1,1,303,7,C,0,right,0.593855324,1,0,,,,,,,,,,,,,,,,,,,,,1,,,,,,,,,,,,,,,,,,,,,,,,,,,,,,,,,,,,,,,,,,,,,,40,150820,20,Female,1,2024/02/08_11:39:22,YZ,59.92932523
,,,,,,practice_main,0,1,1,303,8,F,0,right,0.355297549,1,0,,,,,,,,,,,,,,,,,,,,,1,,,,,,,,,,,,,,,,,,,,,,,,,,,,,,,,,,,,,,,,,,,,,,40,150820,20,Female,1,2024/02/08_11:39:22,YZ,59.92932523
,,,,,,practice_main,0,1,1,303,9,S,0,right,0.513463807,1,0,,,,,,,,,,,,,,,,,,,,,1,,,,,,,,,,,,,,,,,,,,,,,,,,,,,,,,,,,,,,,,,,,,,,40,150820,20,Female,1,2024/02/08_11:39:22,YZ,59.92932523
,,,,,,practice_main,0,1,1,303,10,J,0,right,0.371945536,1,0,,,,,,,,,,,,,,,,,,,,,1,,,,,,,,,,,,,,,,,,,,,,,,,,,,,,,,,,,,,,,,,,,,,,40,150820,20,Female,1,2024/02/08_11:39:22,YZ,59.92932523
,,,,,,practice_main,0,1,1,303,11,J,1,left,0.547750564,1,0,,,,,,,,,,,,,,,,,,,,,1,,,,,,,,,,,,,,,,,,,,,,,,,,,,,,,,,,,,,,,,,,,,,,40,150820,20,Female,1,2024/02/08_11:39:22,YZ,59.92932523
,,,,,,practice_main,0,1,1,303,12,X,0,right,0.403472741,1,0,,,,,,,,,,,,,,,,,,,,,1,,,,,,,,,,,,,,,,,,,,,,,,,,,,,,,,,,,,,,,,,,,,,,40,150820,20,Female,1,2024/02/08_11:39:22,YZ,59.92932523
,,,,,,practice_main,0,1,1,303,13,V,0,right,0.610288343,1,0,,,,,,,,,,,,,,,,,,,,,1,,,,,,,,,,,,,,,,,,,,,,,,,,,,,,,,,,,,,,,,,,,,,,40,150820,20,Female,1,2024/02/08_11:39:22,YZ,59.92932523
,,,,,,practice_main,0,1,1,303,14,J,0,right,0.533712887,1,0,,,,,,,,,,,,,,,,,,,,,1,,,,,,,,,,,,,,,,,,,,,,,,,,,,,,,,,,,,,,,,,,,,,,40,150820,20,Female,1,2024/02/08_11:39:22,YZ,59.92932523
,,,,,,practice_main,0,1,1,303,15,J,1,left,0.476102908,1,0,,,,,,,,,,,,,,,,,,,,,1,,,,,,,,,,,,,,,,,,,,,,,,,,,,,,,,,,,,,,,,,,,,,,40,150820,20,Female,1,2024/02/08_11:39:22,YZ,59.92932523
,,,,,,practice_main,0,1,1,303,16,S,0,right,0.466278049,1,0,,,,,,,,,,,,,,,,,,,,,1,,,,,,,,,,,,,,,,,,,,,,,,,,,,,,,,,,,,,,,,,,,,,,40,150820,20,Female,1,2024/02/08_11:39:22,YZ,59.92932523
,,,,,,practice_main,0,1,1,303,17,S,1,left,0.746115566,1,0,,,,,,,,,,,,,,,,,,,,,1,,,,,,,,,,,,,,,,,,,,,,,,,,,,,,,,,,,,,,,,,,,,,,40,150820,20,Female,1,2024/02/08_11:39:22,YZ,59.92932523
,,,,,,practice_main,0,1,1,303,18,X,0,right,0.407025315,1,0,,,,,,,,,,,,,,,,,,,,,1,,,,,,,,,,,,,,,,,,,,,,,,,,,,,,,,,,,,,,,,,,,,,,40,150820,20,Female,1,2024/02/08_11:39:22,YZ,59.92932523
,,,,,,practice_main,0,1,1,303,19,V,0,right,0.335673595,1,0,,,,,,,,,,,,,,,,,,,,,1,,,,,,,,,,,,,,,,,,,,,,,,,,,,,,,,,,,,,,,,,,,,,,40,150820,20,Female,1,2024/02/08_11:39:22,YZ,59.92932523
,,,,,,practice_main,0,1,1,303,,,,,,,,0.9,0.6,0,1,0.157894737,0.842105263,0.459161079,3,0,1,2,3,12,15,5,14,0,,,,1,,,,,,,,,,,,,,,,,,,,,,,,,,,,,,,,,,,,,,,,,,,,,,40,150820,20,Female,1,2024/02/08_11:39:22,YZ,59.92932523
,,,,,240208_131529,PRACTICE,0,1,1,303,,,,,,,,,,,,,,,,,,,,,,,,,,,,1,34,1,1,cue2.png,easy,B,8,0.988829333,0,862.4461337,863.4693864,,,,,,,,,,,,,,,,,,,,,,,,,,,,,,,,,,,40,150820,20,Female,1,2024/02/08_11:39:22,YZ,59.92932523
,,,,,,practice_main,0,2,1,303,1,F,0,right,0.860486669,1,0,,,,,,,,,,,,,,,,,,,,,1,,,,,,,,,,,,,,,,,,,,,,,,,,,,,,,,,,,,,,,,,,,,,,40,150820,20,Female,1,2024/02/08_11:39:22,YZ,59.92932523
,,,,,,practice_main,0,2,1,303,2,C,0,right,0.449251548,1,0,,,,,,,,,,,,,,,,,,,,,1,,,,,,,,,,,,,,,,,,,,,,,,,,,,,,,,,,,,,,,,,,,,,,40,150820,20,Female,1,2024/02/08_11:39:22,YZ,59.92932523
,,,,,,practice_main,0,2,1,303,3,J,0,right,0.464439573,1,0,,,,,,,,,,,,,,,,,,,,,1,,,,,,,,,,,,,,,,,,,,,,,,,,,,,,,,,,,,,,,,,,,,,,40,150820,20,Female,1,2024/02/08_11:39:22,YZ,59.92932523
,,,,,,practice_main,0,2,1,303,4,Q,0,right,0.390244382,1,0,,,,,,,,,,,,,,,,,,,,,1,,,,,,,,,,,,,,,,,,,,,,,,,,,,,,,,,,,,,,,,,,,,,,40,150820,20,Female,1,2024/02/08_11:39:22,YZ,59.92932523
,,,,,,practice_main,0,2,1,303,5,Q,1,right,0.422882316,0,0,,,,,,,,,,,,,,,,,,,,,1,,,,,,,,,,,,,,,,,,,,,,,,,,,,,,,,,,,,,,,,,,,,,,40,150820,20,Female,1,2024/02/08_11:39:22,YZ,59.92932523
,,,,,,practice_main,0,2,1,303,6,F,0,right,0.43968561,1,0,,,,,,,,,,,,,,,,,,,,,1,,,,,,,,,,,,,,,,,,,,,,,,,,,,,,,,,,,,,,,,,,,,,,40,150820,20,Female,1,2024/02/08_11:39:22,YZ,59.92932523
,,,,,,practice_main,0,2,1,303,7,N,0,right,0.465585709,1,0,,,,,,,,,,,,,,,,,,,,,1,,,,,,,,,,,,,,,,,,,,,,,,,,,,,,,,,,,,,,,,,,,,,,40,150820,20,Female,1,2024/02/08_11:39:22,YZ,59.92932523
,,,,,,practice_main,0,2,1,303,8,N,1,left,0.485643838,1,0,,,,,,,,,,,,,,,,,,,,,1,,,,,,,,,,,,,,,,,,,,,,,,,,,,,,,,,,,,,,,,,,,,,,40,150820,20,Female,1,2024/02/08_11:39:22,YZ,59.92932523
,,,,,,practice_main,0,2,1,303,9,F,0,right,0.652158456,1,0,,,,,,,,,,,,,,,,,,,,,1,,,,,,,,,,,,,,,,,,,,,,,,,,,,,,,,,,,,,,,,,,,,,,40,150820,20,Female,1,2024/02/08_11:39:22,YZ,59.92932523
,,,,,,practice_main,0,2,1,303,10,N,0,right,0.660839455,1,0,,,,,,,,,,,,,,,,,,,,,1,,,,,,,,,,,,,,,,,,,,,,,,,,,,,,,,,,,,,,,,,,,,,,40,150820,20,Female,1,2024/02/08_11:39:22,YZ,59.92932523
,,,,,,practice_main,0,2,1,303,11,C,0,right,0.454458313,1,0,,,,,,,,,,,,,,,,,,,,,1,,,,,,,,,,,,,,,,,,,,,,,,,,,,,,,,,,,,,,,,,,,,,,40,150820,20,Female,1,2024/02/08_11:39:22,YZ,59.92932523
,,,,,,practice_main,0,2,1,303,12,J,0,right,0.543007972,1,0,,,,,,,,,,,,,,,,,,,,,1,,,,,,,,,,,,,,,,,,,,,,,,,,,,,,,,,,,,,,,,,,,,,,40,150820,20,Female,1,2024/02/08_11:39:22,YZ,59.92932523
,,,,,,practice_main,0,2,1,303,13,J,1,left,0.595566424,1,0,,,,,,,,,,,,,,,,,,,,,1,,,,,,,,,,,,,,,,,,,,,,,,,,,,,,,,,,,,,,,,,,,,,,40,150820,20,Female,1,2024/02/08_11:39:22,YZ,59.92932523
,,,,,,practice_main,0,2,1,303,14,S,0,right,0.523830165,1,0,,,,,,,,,,,,,,,,,,,,,1,,,,,,,,,,,,,,,,,,,,,,,,,,,,,,,,,,,,,,,,,,,,,,40,150820,20,Female,1,2024/02/08_11:39:22,YZ,59.92932523
,,,,,,practice_main,0,2,1,303,15,F,0,right,0.599990445,1,0,,,,,,,,,,,,,,,,,,,,,1,,,,,,,,,,,,,,,,,,,,,,,,,,,,,,,,,,,,,,,,,,,,,,40,150820,20,Female,1,2024/02/08_11:39:22,YZ,59.92932523
,,,,,,practice_main,0,2,1,303,16,J,0,right,0.561867009,1,0,,,,,,,,,,,,,,,,,,,,,1,,,,,,,,,,,,,,,,,,,,,,,,,,,,,,,,,,,,,,,,,,,,,,40,150820,20,Female,1,2024/02/08_11:39:22,YZ,59.92932523
,,,,,,practice_main,0,2,1,303,17,J,1,left,0.471994073,1,0,,,,,,,,,,,,,,,,,,,,,1,,,,,,,,,,,,,,,,,,,,,,,,,,,,,,,,,,,,,,,,,,,,,,40,150820,20,Female,1,2024/02/08_11:39:22,YZ,59.92932523
,,,,,,practice_main,0,2,1,303,18,F,0,right,0.44523074,1,0,,,,,,,,,,,,,,,,,,,,,1,,,,,,,,,,,,,,,,,,,,,,,,,,,,,,,,,,,,,,,,,,,,,,40,150820,20,Female,1,2024/02/08_11:39:22,YZ,59.92932523
,,,,,,practice_main,0,2,1,303,19,F,1,left,0.572573576,1,0,,,,,,,,,,,,,,,,,,,,,1,,,,,,,,,,,,,,,,,,,,,,,,,,,,,,,,,,,,,,,,,,,,,,40,150820,20,Female,1,2024/02/08_11:39:22,YZ,59.92932523
,,,,,,practice_main,0,2,1,303,,,,,,,,0.95,0.8,0,1,0,1,0.529459804,4,0,0,0,0,14,18,5,14,0,,,,1,,,,,,,,,,,,,,,,,,,,,,,,,,,,,,,,,,,,,,,,,,,,,,40,150820,20,Female,1,2024/02/08_11:39:22,YZ,59.92932523
,,,,,240208_131601,PRACTICE,0,2,1,303,,,,,,,,,,,,,,,,,,,,,,,,,,,,1,23,2,2,cue2.png,easy,B,11,1.885779017,0,893.0187357,894.9244108,,,,,,,,,,,,,,,,,,,,,,,,,,,,,,,,,,,40,150820,20,Female,1,2024/02/08_11:39:22,YZ,59.92932523
,,,,,,practice_main,0,3,3,303,1,X,0,right,0.760561638,1,0,,,,,,,,,,,,,,,,,,,,,1,,,,,,,,,,,,,,,,,,,,,,,,,,,,,,,,,,,,,,,,,,,,,,40,150820,20,Female,1,2024/02/08_11:39:22,YZ,59.92932523
,,,,,,practice_main,0,3,3,303,2,F,0,right,0.295535729,1,0,,,,,,,,,,,,,,,,,,,,,1,,,,,,,,,,,,,,,,,,,,,,,,,,,,,,,,,,,,,,,,,,,,,,40,150820,20,Female,1,2024/02/08_11:39:22,YZ,59.92932523
,,,,,,practice_main,0,3,3,303,3,F,0,right,0.826835398,1,0,,,,,,,,,,,,,,,,,,,,,1,,,,,,,,,,,,,,,,,,,,,,,,,,,,,,,,,,,,,,,,,,,,,,40,150820,20,Female,1,2024/02/08_11:39:22,YZ,59.92932523
,,,,,,practice_main,0,3,3,303,4,N,0,right,0.453201624,1,0,,,,,,,,,,,,,,,,,,,,,1,,,,,,,,,,,,,,,,,,,,,,,,,,,,,,,,,,,,,,,,,,,,,,40,150820,20,Female,1,2024/02/08_11:39:22,YZ,59.92932523
,,,,,,practice_main,0,3,3,303,5,F,1,right,0.438271749,0,0,,,,,,,,,,,,,,,,,,,,,1,,,,,,,,,,,,,,,,,,,,,,,,,,,,,,,,,,,,,,,,,,,,,,40,150820,20,Female,1,2024/02/08_11:39:22,YZ,59.92932523
,,,,,,practice_main,0,3,3,303,6,V,0,right,0.477757937,1,0,,,,,,,,,,,,,,,,,,,,,1,,,,,,,,,,,,,,,,,,,,,,,,,,,,,,,,,,,,,,,,,,,,,,40,150820,20,Female,1,2024/02/08_11:39:22,YZ,59.92932523
,,,,,,practice_main,0,3,3,303,7,N,1,right,0.52366877,0,0,,,,,,,,,,,,,,,,,,,,,1,,,,,,,,,,,,,,,,,,,,,,,,,,,,,,,,,,,,,,,,,,,,,,40,150820,20,Female,1,2024/02/08_11:39:22,YZ,59.92932523
,,,,,,practice_main,0,3,3,303,8,V,0,left,0.930835262,0,0,,,,,,,,,,,,,,,,,,,,,1,,,,,,,,,,,,,,,,,,,,,,,,,,,,,,,,,,,,,,,,,,,,,,40,150820,20,Female,1,2024/02/08_11:39:22,YZ,59.92932523
,,,,,,practice_main,0,3,3,303,9,V,1,right,0.877791563,0,0,,,,,,,,,,,,,,,,,,,,,1,,,,,,,,,,,,,,,,,,,,,,,,,,,,,,,,,,,,,,,,,,,,,,40,150820,20,Female,1,2024/02/08_11:39:22,YZ,59.92932523
,,,,,,practice_main,0,3,3,303,10,J,0,right,0.61214818,1,0,,,,,,,,,,,,,,,,,,,,,1,,,,,,,,,,,,,,,,,,,,,,,,,,,,,,,,,,,,,,,,,,,,,,40,150820,20,Female,1,2024/02/08_11:39:22,YZ,59.92932523
,,,,,,practice_main,0,3,3,303,11,J,0,right,0.997971227,1,0,,,,,,,,,,,,,,,,,,,,,1,,,,,,,,,,,,,,,,,,,,,,,,,,,,,,,,,,,,,,,,,,,,,,40,150820,20,Female,1,2024/02/08_11:39:22,YZ,59.92932523
,,,,,,practice_main,0,3,3,303,12,F,0,right,0.531165049,1,0,,,,,,,,,,,,,,,,,,,,,1,,,,,,,,,,,,,,,,,,,,,,,,,,,,,,,,,,,,,,,,,,,,,,40,150820,20,Female,1,2024/02/08_11:39:22,YZ,59.92932523
,,,,,,practice_main,0,3,3,303,13,V,0,left,0.601204808,0,0,,,,,,,,,,,,,,,,,,,,,1,,,,,,,,,,,,,,,,,,,,,,,,,,,,,,,,,,,,,,,,,,,,,,40,150820,20,Female,1,2024/02/08_11:39:22,YZ,59.92932523
,,,,,,practice_main,0,3,3,303,14,C,0,right,0.578234363,1,0,,,,,,,,,,,,,,,,,,,,,1,,,,,,,,,,,,,,,,,,,,,,,,,,,,,,,,,,,,,,,,,,,,,,40,150820,20,Female,1,2024/02/08_11:39:22,YZ,59.92932523
,,,,,,practice_main,0,3,3,303,15,V,0,right,0.280538887,1,0,,,,,,,,,,,,,,,,,,,,,1,,,,,,,,,,,,,,,,,,,,,,,,,,,,,,,,,,,,,,,,,,,,,,40,150820,20,Female,1,2024/02/08_11:39:22,YZ,59.92932523
,,,,,,practice_main,0,3,3,303,16,V,1,right,0.51957071,0,0,,,,,,,,,,,,,,,,,,,,,1,,,,,,,,,,,,,,,,,,,,,,,,,,,,,,,,,,,,,,,,,,,,,,40,150820,20,Female,1,2024/02/08_11:39:22,YZ,59.92932523
,,,,,,practice_main,0,3,3,303,17,X,0,right,0.576378316,1,0,,,,,,,,,,,,,,,,,,,,,1,,,,,,,,,,,,,,,,,,,,,,,,,,,,,,,,,,,,,,,,,,,,,,40,150820,20,Female,1,2024/02/08_11:39:22,YZ,59.92932523
,,,,,,practice_main,0,3,3,303,18,V,1,left,0.694873124,1,0,,,,,,,,,,,,,,,,,,,,,1,,,,,,,,,,,,,,,,,,,,,,,,,,,,,,,,,,,,,,,,,,,,,,40,150820,20,Female,1,2024/02/08_11:39:22,YZ,59.92932523
,,,,,,practice_main,0,3,3,303,19,V,1,right,0.795907713,0,0,,,,,,,,,,,,,,,,,,,,,1,,,,,,,,,,,,,,,,,,,,,,,,,,,,,,,,,,,,,,,,,,,,,,40,150820,20,Female,1,2024/02/08_11:39:22,YZ,59.92932523
,,,,,,practice_main,0,3,3,303,,,,,,,,0.522435897,0.166666667,0.153846154,0.846153846,0,0.846153846,0.619602739,1,2,0,0,0,11,12,6,13,0,,,,1,,,,,,,,,,,,,,,,,,,,,,,,,,,,,,,,,,,,,,,,,,,,,,40,150820,20,Female,1,2024/02/08_11:39:22,YZ,59.92932523
,,,,,240208_131633,PRACTICE,0,3,3,303,,,,,,,,,,,,,,,,,,,,,,,,,,,,1,17,3,3,cue1.png,hard,B,54,1.219996676,0,924.2246087,925.464927,,,,,,,,,,,,,,,,,,,,,,,,,,,,,,,,,,,40,150820,20,Female,1,2024/02/08_11:39:22,YZ,59.92932523
1,./instructions/inst_prac_end/Slide56.png,right,21.66274371,955.0755808,976.7383245,,,,,,,,,,,,,,,,,,,,,,,,,,,,,,,,,1,,,,,,,,,,,,,,,,,,,,,,,,,,,,,,,,,,,,,,,,,,,,,,40,150820,20,Female,1,2024/02/08_11:39:22,YZ,59.92932523
1,./instructions/inst_test/Slide57.png,right,35.30414947,976.811844,1012.115993,,,,,,,,,,,,,,,,,,,,,,,,,,,,,,,,,1,,,,,,,,,,,,,,,,,,,,,,,,,,,,,,,,,,,,,,,,,,,,,,40,150820,20,Female,1,2024/02/08_11:39:22,YZ,59.92932523
,,,,,,test,1,1,1,303,1,J,0,right,0.860673918,1,0,,,,,,,,,,,,,,,,,,,,,1,,,,,,,,,,,,,,,,,,,,,,,,,,,,,,,,,,,,,,,,,,,,,,40,150820,20,Female,1,2024/02/08_11:39:22,YZ,59.92932523
,,,,,,test,1,1,1,303,2,N,0,right,0.289290563,1,0,,,,,,,,,,,,,,,,,,,,,1,,,,,,,,,,,,,,,,,,,,,,,,,,,,,,,,,,,,,,,,,,,,,,40,150820,20,Female,1,2024/02/08_11:39:22,YZ,59.92932523
,,,,,,test,1,1,1,303,3,N,1,left,0.463890039,1,0,,,,,,,,,,,,,,,,,,,,,1,,,,,,,,,,,,,,,,,,,,,,,,,,,,,,,,,,,,,,,,,,,,,,40,150820,20,Female,1,2024/02/08_11:39:22,YZ,59.92932523
,,,,,,test,1,1,1,303,4,C,0,right,0.374239683,1,0,,,,,,,,,,,,,,,,,,,,,1,,,,,,,,,,,,,,,,,,,,,,,,,,,,,,,,,,,,,,,,,,,,,,40,150820,20,Female,1,2024/02/08_11:39:22,YZ,59.92932523
,,,,,,test,1,1,1,303,5,C,1,left,0.416654647,1,0,,,,,,,,,,,,,,,,,,,,,1,,,,,,,,,,,,,,,,,,,,,,,,,,,,,,,,,,,,,,,,,,,,,,40,150820,20,Female,1,2024/02/08_11:39:22,YZ,59.92932523
,,,,,,test,1,1,1,303,6,S,0,right,0.301724523,1,0,,,,,,,,,,,,,,,,,,,,,1,,,,,,,,,,,,,,,,,,,,,,,,,,,,,,,,,,,,,,,,,,,,,,40,150820,20,Female,1,2024/02/08_11:39:22,YZ,59.92932523
,,,,,,test,1,1,1,303,7,J,0,right,0.430109037,1,0,,,,,,,,,,,,,,,,,,,,,1,,,,,,,,,,,,,,,,,,,,,,,,,,,,,,,,,,,,,,,,,,,,,,40,150820,20,Female,1,2024/02/08_11:39:22,YZ,59.92932523
,,,,,,test,1,1,1,303,8,X,0,right,0.358524422,1,0,,,,,,,,,,,,,,,,,,,,,1,,,,,,,,,,,,,,,,,,,,,,,,,,,,,,,,,,,,,,,,,,,,,,40,150820,20,Female,1,2024/02/08_11:39:22,YZ,59.92932523
,,,,,,test,1,1,1,303,9,X,1,left,0.390168802,1,0,,,,,,,,,,,,,,,,,,,,,1,,,,,,,,,,,,,,,,,,,,,,,,,,,,,,,,,,,,,,,,,,,,,,40,150820,20,Female,1,2024/02/08_11:39:22,YZ,59.92932523
,,,,,,test,1,1,1,303,10,V,0,right,0.381321103,1,0,,,,,,,,,,,,,,,,,,,,,1,,,,,,,,,,,,,,,,,,,,,,,,,,,,,,,,,,,,,,,,,,,,,,40,150820,20,Female,1,2024/02/08_11:39:22,YZ,59.92932523
,,,,,,test,1,1,1,303,11,V,1,left,0.553908767,1,0,,,,,,,,,,,,,,,,,,,,,1,,,,,,,,,,,,,,,,,,,,,,,,,,,,,,,,,,,,,,,,,,,,,,40,150820,20,Female,1,2024/02/08_11:39:22,YZ,59.92932523
,,,,,,test,1,1,1,303,12,X,0,right,0.489317574,1,0,,,,,,,,,,,,,,,,,,,,,1,,,,,,,,,,,,,,,,,,,,,,,,,,,,,,,,,,,,,,,,,,,,,,40,150820,20,Female,1,2024/02/08_11:39:22,YZ,59.92932523
,,,,,,test,1,1,1,303,13,X,1,left,0.556890481,1,0,,,,,,,,,,,,,,,,,,,,,1,,,,,,,,,,,,,,,,,,,,,,,,,,,,,,,,,,,,,,,,,,,,,,40,150820,20,Female,1,2024/02/08_11:39:22,YZ,59.92932523
,,,,,,test,1,1,1,303,14,S,0,right,0.426656758,1,0,,,,,,,,,,,,,,,,,,,,,1,,,,,,,,,,,,,,,,,,,,,,,,,,,,,,,,,,,,,,,,,,,,,,40,150820,20,Female,1,2024/02/08_11:39:22,YZ,59.92932523
,,,,,,test,1,1,1,303,15,F,0,right,0.526915573,1,0,,,,,,,,,,,,,,,,,,,,,1,,,,,,,,,,,,,,,,,,,,,,,,,,,,,,,,,,,,,,,,,,,,,,40,150820,20,Female,1,2024/02/08_11:39:22,YZ,59.92932523
,,,,,,test,1,1,1,303,16,V,0,right,0.412196284,1,0,,,,,,,,,,,,,,,,,,,,,1,,,,,,,,,,,,,,,,,,,,,,,,,,,,,,,,,,,,,,,,,,,,,,40,150820,20,Female,1,2024/02/08_11:39:22,YZ,59.92932523
