Instruction,Stimulus,Key,RT,START,END,Phase,Block,TrialN,NbackLevel,ISI,LetterN,Letter,Letter_isSame,Letter_Resp,Letter_RT,Letter_Accuracy,Letter_Timeout,Trial_A_measure,Trial_HR,Trial_FAR,Trial_CDR,Trial_MSR,Trial_ACC,Trial_RT,Trial_HitsCount,Trial_FAsCount,Trial_SameNoRespCount,Trial_DiffNoRespCount,Trial_NoRespCount,Trial_CDsCount,Trial_CorrectRespCount,Trial_SameLetterCount,Trial_DiffLetterCount,Trial_InvalidLetterCount,TrialCountCali,CaliEnd_A_measure,ISI_calibrated,Run,TrialIndex,TrialNumber_total,TrialNumber_valid,CueLearning,TrialDemandLearning,CueMapping,OnlineRating,OnlineRatingRT,OnlineRatingTimeOut,CueSTART,RatingSTART,OfflineRatingTimePoint,OfflineRatingQuesIndex,CueFigure,TrialDemand,OfflineRating,OfflineRatingRT,CueStart,OfflineRatingStart,PhaseType,CueLeft,CueDemandLeft,CueRight,CueDemandRight,Choice,ChoiceDemand,TaskDemand,ChoiceRT,ChoiceTimeOut,ChoiceSTART,CueCheck,CueDemandCheck,CorrectAnswer,Answer,AnswerDemand,AnswerRT,AnswerACC,AnswerTimeOut,CheckSTART,DemandRatingQuesIndex,QuesTLX,DemandLevel,DemandRating,DemandRatingRT,QuesStart,PID,SONA,Age,Gender,Run,TIME,EXPERIMENTER,frameRate,
1,./instructions/inst_begin/Slide2.png,right,24.880835784999363,0.11116479100019205,24.992000575999555,,,,,,,,,,,,,,,,,,,,,,,,,,,,,,,,,1,,,,,,,,,,,,,,,,,,,,,,,,,,,,,,,,,,,,,,,,,,,,,,59,146092,20,Female,1,2024/02/15_12:21:57,YZ,None,
2,./instructions/inst_begin/Slide3.png,right,4.850527452999813,25.02137249700172,29.871899950001534,,,,,,,,,,,,,,,,,,,,,,,,,,,,,,,,,1,,,,,,,,,,,,,,,,,,,,,,,,,,,,,,,,,,,,,,,,,,,,,,59,146092,20,Female,1,2024/02/15_12:21:57,YZ,None,
3,./instructions/inst_begin/Slide4.png,right,3.242892269998265,29.901000449001003,33.14389271899927,,,,,,,,,,,,,,,,,,,,,,,,,,,,,,,,,1,,,,,,,,,,,,,,,,,,,,,,,,,,,,,,,,,,,,,,,,,,,,,,59,146092,20,Female,1,2024/02/15_12:21:57,YZ,None,
1,./instructions/inst_prac_2/Slide6.png,right,7.206770836000942,33.177105655999185,40.38387649200013,,,,,,,,,,,,,,,,,,,,,,,,,,,,,,,,,1,,,,,,,,,,,,,,,,,,,,,,,,,,,,,,,,,,,,,,,,,,,,,,59,146092,20,Female,1,2024/02/15_12:21:57,YZ,None,
2,./instructions/inst_prac_2/Slide7.png,right,8.355092814999807,40.41288103199986,48.767973846999666,,,,,,,,,,,,,,,,,,,,,,,,,,,,,,,,,1,,,,,,,,,,,,,,,,,,,,,,,,,,,,,,,,,,,,,,,,,,,,,,59,146092,20,Female,1,2024/02/15_12:21:57,YZ,None,
3,./instructions/inst_prac_2/Slide8.png,right,13.350476276002155,48.79354853499899,62.144024811001145,,,,,,,,,,,,,,,,,,,,,,,,,,,,,,,,,1,,,,,,,,,,,,,,,,,,,,,,,,,,,,,,,,,,,,,,,,,,,,,,59,146092,20,Female,1,2024/02/15_12:21:57,YZ,None,
4,./instructions/inst_prac_2/Slide9.png,right,5.1819446939989575,62.170098626000254,67.35204331999921,,,,,,,,,,,,,,,,,,,,,,,,,,,,,,,,,1,,,,,,,,,,,,,,,,,,,,,,,,,,,,,,,,,,,,,,,,,,,,,,59,146092,20,Female,1,2024/02/15_12:21:57,YZ,None,
5,./instructions/inst_prac_2/Slide10.png,right,1.5471911120002915,67.3807960209997,68.92798713299999,,,,,,,,,,,,,,,,,,,,,,,,,,,,,,,,,1,,,,,,,,,,,,,,,,,,,,,,,,,,,,,,,,,,,,,,,,,,,,,,59,146092,20,Female,1,2024/02/15_12:21:57,YZ,None,
6,./instructions/inst_prac_2/Slide11.png,right,1.1316669029984041,68.95632451900019,70.0879914219986,,,,,,,,,,,,,,,,,,,,,,,,,,,,,,,,,1,,,,,,,,,,,,,,,,,,,,,,,,,,,,,,,,,,,,,,,,,,,,,,59,146092,20,Female,1,2024/02/15_12:21:57,YZ,None,
7,./instructions/inst_prac_2/Slide12.png,right,0.9075213030009763,70.11642166399906,71.02394296700004,,,,,,,,,,,,,,,,,,,,,,,,,,,,,,,,,1,,,,,,,,,,,,,,,,,,,,,,,,,,,,,,,,,,,,,,,,,,,,,,59,146092,20,Female,1,2024/02/15_12:21:57,YZ,None,
8,./instructions/inst_prac_2/Slide13.png,right,1.0035434040000837,71.0523834759988,72.05592687999888,,,,,,,,,,,,,,,,,,,,,,,,,,,,,,,,,1,,,,,,,,,,,,,,,,,,,,,,,,,,,,,,,,,,,,,,,,,,,,,,59,146092,20,Female,1,2024/02/15_12:21:57,YZ,None,
9,./instructions/inst_prac_2/Slide14.png,right,5.378675459000078,72.08523513999899,77.46391059899906,,,,,,,,,,,,,,,,,,,,,,,,,,,,,,,,,1,,,,,,,,,,,,,,,,,,,,,,,,,,,,,,,,,,,,,,,,,,,,,,59,146092,20,Female,1,2024/02/15_12:21:57,YZ,None,
10,./instructions/inst_prac_2/Slide15.png,right,3.1953209070015873,77.49253908299943,80.68785999000102,,,,,,,,,,,,,,,,,,,,,,,,,,,,,,,,,1,,,,,,,,,,,,,,,,,,,,,,,,,,,,,,,,,,,,,,,,,,,,,,59,146092,20,Female,1,2024/02/15_12:21:57,YZ,None,
,,,,,,practice,0,8,2,2583,1,X,0,right,1.402228050003032,1,0,,,,,,,,,,,,,,,,,,,,,1,,,,,,,,,,,,,,,,,,,,,,,,,,,,,,,,,,,,,,,,,,,,,,59,146092,20,Female,1,2024/02/15_12:21:57,YZ,None,
,,,,,,practice,0,8,2,2583,2,C,0,right,0.7697096089978004,1,0,,,,,,,,,,,,,,,,,,,,,1,,,,,,,,,,,,,,,,,,,,,,,,,,,,,,,,,,,,,,,,,,,,,,59,146092,20,Female,1,2024/02/15_12:21:57,YZ,None,
,,,,,,practice,0,8,2,2583,3,X,1,left,0.5329356540023582,1,0,,,,,,,,,,,,,,,,,,,,,1,,,,,,,,,,,,,,,,,,,,,,,,,,,,,,,,,,,,,,,,,,,,,,59,146092,20,Female,1,2024/02/15_12:21:57,YZ,None,
,,,,,,practice,0,8,2,2583,4,C,1,left,0.691985310997552,1,0,,,,,,,,,,,,,,,,,,,,,1,,,,,,,,,,,,,,,,,,,,,,,,,,,,,,,,,,,,,,,,,,,,,,59,146092,20,Female,1,2024/02/15_12:21:57,YZ,None,
,,,,,,practice,0,8,2,2583,5,Q,0,right,0.6847222130018054,1,0,,,,,,,,,,,,,,,,,,,,,1,,,,,,,,,,,,,,,,,,,,,,,,,,,,,,,,,,,,,,,,,,,,,,59,146092,20,Female,1,2024/02/15_12:21:57,YZ,None,
,,,,,,practice,0,8,2,2583,6,V,0,right,0.6818848610018904,1,0,,,,,,,,,,,,,,,,,,,,,1,,,,,,,,,,,,,,,,,,,,,,,,,,,,,,,,,,,,,,,,,,,,,,59,146092,20,Female,1,2024/02/15_12:21:57,YZ,None,
,,,,,,practice,0,8,2,2583,,,,,,,,1.0,1.0,0.0,1.0,0.0,1.0,0.7939109496674064,2,0,0,0,0,4,6,2,4,0,,,,1,,,,,,,,,,,,,,,,,,,,,,,,,,,,,,,,,,,,,,,,,,,,,,59,146092,20,Female,1,2024/02/15_12:21:57,YZ,None,
1,./instructions/inst_to_cali/Slide20.png,right,3.7899214790013502,91.80209139499857,95.59201287399992,,,,,,,,,,,,,,,,,,,,,,,,,,,,,,,,,1,,,,,,,,,,,,,,,,,,,,,,,,,,,,,,,,,,,,,,,,,,,,,,59,146092,20,Female,1,2024/02/15_12:21:57,YZ,None,
1,./instructions/inst_cali/Slide22.png,right,4.758870675999788,95.62518550599998,100.38405618199977,,,,,,,,,,,,,,,,,,,,,,,,,,,,,,,,,1,,,,,,,,,,,,,,,,,,,,,,,,,,,,,,,,,,,,,,,,,,,,,,59,146092,20,Female,1,2024/02/15_12:21:57,YZ,None,
,,,,,,calibration,0,31,2,583,1,C,0,right,1.1939941770033329,1,0,,,,,,,,,,,,,,,,,,,,,1,,,,,,,,,,,,,,,,,,,,,,,,,,,,,,,,,,,,,,,,,,,,,,59,146092,20,Female,1,2024/02/15_12:21:57,YZ,None,
,,,,,,calibration,0,31,2,583,2,C,0,right,0.5710382690012921,1,0,,,,,,,,,,,,,,,,,,,,,1,,,,,,,,,,,,,,,,,,,,,,,,,,,,,,,,,,,,,,,,,,,,,,59,146092,20,Female,1,2024/02/15_12:21:57,YZ,None,
,,,,,,calibration,0,31,2,583,3,C,1,left,0.4847883399997954,1,0,,,,,,,,,,,,,,,,,,,,,1,,,,,,,,,,,,,,,,,,,,,,,,,,,,,,,,,,,,,,,,,,,,,,59,146092,20,Female,1,2024/02/15_12:21:57,YZ,None,
,,,,,,calibration,0,31,2,583,4,C,1,left,0.7677824059974228,1,0,,,,,,,,,,,,,,,,,,,,,1,,,,,,,,,,,,,,,,,,,,,,,,,,,,,,,,,,,,,,,,,,,,,,59,146092,20,Female,1,2024/02/15_12:21:57,YZ,None,
,,,,,,calibration,0,31,2,583,5,N,0,right,0.5305335289995128,1,0,,,,,,,,,,,,,,,,,,,,,1,,,,,,,,,,,,,,,,,,,,,,,,,,,,,,,,,,,,,,,,,,,,,,59,146092,20,Female,1,2024/02/15_12:21:57,YZ,None,
,,,,,,calibration,0,31,2,583,6,Q,0,right,0.4923097280006914,1,0,,,,,,,,,,,,,,,,,,,,,1,,,,,,,,,,,,,,,,,,,,,,,,,,,,,,,,,,,,,,,,,,,,,,59,146092,20,Female,1,2024/02/15_12:21:57,YZ,None,
,,,,,,calibration,0,31,2,583,7,S,0,right,0.7425397919978423,1,0,,,,,,,,,,,,,,,,,,,,,1,,,,,,,,,,,,,,,,,,,,,,,,,,,,,,,,,,,,,,,,,,,,,,59,146092,20,Female,1,2024/02/15_12:21:57,YZ,None,
,,,,,,calibration,0,31,2,583,8,V,0,right,0.37342079000154627,1,0,,,,,,,,,,,,,,,,,,,,,1,,,,,,,,,,,,,,,,,,,,,,,,,,,,,,,,,,,,,,,,,,,,,,59,146092,20,Female,1,2024/02/15_12:21:57,YZ,None,
,,,,,,calibration,0,31,2,583,9,F,0,right,0.4436880809989816,1,0,,,,,,,,,,,,,,,,,,,,,1,,,,,,,,,,,,,,,,,,,,,,,,,,,,,,,,,,,,,,,,,,,,,,59,146092,20,Female,1,2024/02/15_12:21:57,YZ,None,
,,,,,,calibration,0,31,2,583,10,X,0,right,0.47672939900076017,1,0,,,,,,,,,,,,,,,,,,,,,1,,,,,,,,,,,,,,,,,,,,,,,,,,,,,,,,,,,,,,,,,,,,,,59,146092,20,Female,1,2024/02/15_12:21:57,YZ,None,
,,,,,,calibration,0,31,2,583,11,F,1,left,0.5236962739982118,1,0,,,,,,,,,,,,,,,,,,,,,1,,,,,,,,,,,,,,,,,,,,,,,,,,,,,,,,,,,,,,,,,,,,,,59,146092,20,Female,1,2024/02/15_12:21:57,YZ,None,
,,,,,,calibration,0,31,2,583,12,X,1,right,0.26850495699909516,0,0,,,,,,,,,,,,,,,,,,,,,1,,,,,,,,,,,,,,,,,,,,,,,,,,,,,,,,,,,,,,,,,,,,,,59,146092,20,Female,1,2024/02/15_12:21:57,YZ,None,
,,,,,,calibration,0,31,2,583,13,Q,0,right,0.3276369569975941,1,0,,,,,,,,,,,,,,,,,,,,,1,,,,,,,,,,,,,,,,,,,,,,,,,,,,,,,,,,,,,,,,,,,,,,59,146092,20,Female,1,2024/02/15_12:21:57,YZ,None,
,,,,,,calibration,0,31,2,583,14,F,0,right,0.5308052899999893,1,0,,,,,,,,,,,,,,,,,,,,,1,,,,,,,,,,,,,,,,,,,,,,,,,,,,,,,,,,,,,,,,,,,,,,59,146092,20,Female,1,2024/02/15_12:21:57,YZ,None,
,,,,,,calibration,0,31,2,583,15,X,0,left,0.3456503520028491,0,0,,,,,,,,,,,,,,,,,,,,,1,,,,,,,,,,,,,,,,,,,,,,,,,,,,,,,,,,,,,,,,,,,,,,59,146092,20,Female,1,2024/02/15_12:21:57,YZ,None,
,,,,,,calibration,0,31,2,583,,,,,,,,0.8920454545454546,0.75,0.09090909090909091,0.9090909090909091,0.0,0.9090909090909091,0.5382078893999278,3,1,0,0,0,10,13,4,11,0,,,,1,,,,,,,,,,,,,,,,,,,,,,,,,,,,,,,,,,,,,,,,,,,,,,59,146092,20,Female,1,2024/02/15_12:21:57,YZ,None,
,,,,,,Calibration,0,,2,583,,,,,,,,,,,,,,,,,,,,,,,,,1,,,1,,,,,,,,,,,,,,,,,,,,,,,,,,,,,,,,,,,,,,,,,,,,,,59,146092,20,Female,1,2024/02/15_12:21:57,YZ,None,
,,,,,,calibration,0,27,2,500,1,C,0,right,0.9331209859992668,1,0,,,,,,,,,,,,,,,,,,,,,1,,,,,,,,,,,,,,,,,,,,,,,,,,,,,,,,,,,,,,,,,,,,,,59,146092,20,Female,1,2024/02/15_12:21:57,YZ,None,
,,,,,,calibration,0,27,2,500,2,X,0,right,0.33923688100185245,1,0,,,,,,,,,,,,,,,,,,,,,1,,,,,,,,,,,,,,,,,,,,,,,,,,,,,,,,,,,,,,,,,,,,,,59,146092,20,Female,1,2024/02/15_12:21:57,YZ,None,
,,,,,,calibration,0,27,2,500,3,F,0,right,0.5659122370016121,1,0,,,,,,,,,,,,,,,,,,,,,1,,,,,,,,,,,,,,,,,,,,,,,,,,,,,,,,,,,,,,,,,,,,,,59,146092,20,Female,1,2024/02/15_12:21:57,YZ,None,
,,,,,,calibration,0,27,2,500,4,X,1,left,0.4427239600008761,1,0,,,,,,,,,,,,,,,,,,,,,1,,,,,,,,,,,,,,,,,,,,,,,,,,,,,,,,,,,,,,,,,,,,,,59,146092,20,Female,1,2024/02/15_12:21:57,YZ,None,
,,,,,,calibration,0,27,2,500,5,N,0,right,0.4368910630000755,1,0,,,,,,,,,,,,,,,,,,,,,1,,,,,,,,,,,,,,,,,,,,,,,,,,,,,,,,,,,,,,,,,,,,,,59,146092,20,Female,1,2024/02/15_12:21:57,YZ,None,
,,,,,,calibration,0,27,2,500,6,V,0,left,0.3765497239983233,0,0,,,,,,,,,,,,,,,,,,,,,1,,,,,,,,,,,,,,,,,,,,,,,,,,,,,,,,,,,,,,,,,,,,,,59,146092,20,Female,1,2024/02/15_12:21:57,YZ,None,
,,,,,,calibration,0,27,2,500,7,X,0,right,0.4089704379985051,1,0,,,,,,,,,,,,,,,,,,,,,1,,,,,,,,,,,,,,,,,,,,,,,,,,,,,,,,,,,,,,,,,,,,,,59,146092,20,Female,1,2024/02/15_12:21:57,YZ,None,
,,,,,,calibration,0,27,2,500,8,V,1,left,0.6246441959992808,1,0,,,,,,,,,,,,,,,,,,,,,1,,,,,,,,,,,,,,,,,,,,,,,,,,,,,,,,,,,,,,,,,,,,,,59,146092,20,Female,1,2024/02/15_12:21:57,YZ,None,
,,,,,,calibration,0,27,2,500,9,X,1,right,0.6448216329990828,0,0,,,,,,,,,,,,,,,,,,,,,1,,,,,,,,,,,,,,,,,,,,,,,,,,,,,,,,,,,,,,,,,,,,,,59,146092,20,Female,1,2024/02/15_12:21:57,YZ,None,
,,,,,,calibration,0,27,2,500,10,S,0,right,0.4077919800001837,1,0,,,,,,,,,,,,,,,,,,,,,1,,,,,,,,,,,,,,,,,,,,,,,,,,,,,,,,,,,,,,,,,,,,,,59,146092,20,Female,1,2024/02/15_12:21:57,YZ,None,
,,,,,,calibration,0,27,2,500,11,C,0,right,0.45592925700111664,1,0,,,,,,,,,,,,,,,,,,,,,1,,,,,,,,,,,,,,,,,,,,,,,,,,,,,,,,,,,,,,,,,,,,,,59,146092,20,Female,1,2024/02/15_12:21:57,YZ,None,
,,,,,,calibration,0,27,2,500,12,V,0,right,0.3680544389972056,1,0,,,,,,,,,,,,,,,,,,,,,1,,,,,,,,,,,,,,,,,,,,,,,,,,,,,,,,,,,,,,,,,,,,,,59,146092,20,Female,1,2024/02/15_12:21:57,YZ,None,
,,,,,,calibration,0,27,2,500,13,C,1,left,0.4987245569973311,1,0,,,,,,,,,,,,,,,,,,,,,1,,,,,,,,,,,,,,,,,,,,,,,,,,,,,,,,,,,,,,,,,,,,,,59,146092,20,Female,1,2024/02/15_12:21:57,YZ,None,
,,,,,,calibration,0,27,2,500,14,Q,0,right,0.47604036000120686,1,0,,,,,,,,,,,,,,,,,,,,,1,,,,,,,,,,,,,,,,,,,,,,,,,,,,,,,,,,,,,,,,,,,,,,59,146092,20,Female,1,2024/02/15_12:21:57,YZ,None,
,,,,,,calibration,0,27,2,500,15,N,0,right,0.4204975629982073,1,0,,,,,,,,,,,,,,,,,,,,,1,,,,,,,,,,,,,,,,,,,,,,,,,,,,,,,,,,,,,,,,,,,,,,59,146092,20,Female,1,2024/02/15_12:21:57,YZ,None,
,,,,,,calibration,0,27,2,500,16,F,0,right,0.5603837830021803,1,0,,,,,,,,,,,,,,,,,,,,,1,,,,,,,,,,,,,,,,,,,,,,,,,,,,,,,,,,,,,,,,,,,,,,59,146092,20,Female,1,2024/02/15_12:21:57,YZ,None,
,,,,,,calibration,0,27,2,500,,,,,,,,0.8958333333333333,0.75,0.08333333333333333,0.9166666666666666,0.0,0.9166666666666666,0.49751831606226915,3,1,0,0,0,11,14,4,12,0,,,,1,,,,,,,,,,,,,,,,,,,,,,,,,,,,,,,,,,,,,,,,,,,,,,59,146092,20,Female,1,2024/02/15_12:21:57,YZ,None,
,,,,,,Calibration,0,,2,500,,,,,,,,,,,,,,,,,,,,,,,,,2,,,1,,,,,,,,,,,,,,,,,,,,,,,,,,,,,,,,,,,,,,,,,,,,,,59,146092,20,Female,1,2024/02/15_12:21:57,YZ,None,
,,,,,,calibration,0,16,2,426,1,S,0,right,0.5239089309980045,1,0,,,,,,,,,,,,,,,,,,,,,1,,,,,,,,,,,,,,,,,,,,,,,,,,,,,,,,,,,,,,,,,,,,,,59,146092,20,Female,1,2024/02/15_12:21:57,YZ,None,
,,,,,,calibration,0,16,2,426,2,S,0,right,0.3509546120003506,1,0,,,,,,,,,,,,,,,,,,,,,1,,,,,,,,,,,,,,,,,,,,,,,,,,,,,,,,,,,,,,,,,,,,,,59,146092,20,Female,1,2024/02/15_12:21:57,YZ,None,
,,,,,,calibration,0,16,2,426,3,S,1,left,0.48075594900001306,1,0,,,,,,,,,,,,,,,,,,,,,1,,,,,,,,,,,,,,,,,,,,,,,,,,,,,,,,,,,,,,,,,,,,,,59,146092,20,Female,1,2024/02/15_12:21:57,YZ,None,
,,,,,,calibration,0,16,2,426,4,C,0,right,0.3964803409980959,1,0,,,,,,,,,,,,,,,,,,,,,1,,,,,,,,,,,,,,,,,,,,,,,,,,,,,,,,,,,,,,,,,,,,,,59,146092,20,Female,1,2024/02/15_12:21:57,YZ,None,
,,,,,,calibration,0,16,2,426,5,N,0,right,0.5123492580023594,1,0,,,,,,,,,,,,,,,,,,,,,1,,,,,,,,,,,,,,,,,,,,,,,,,,,,,,,,,,,,,,,,,,,,,,59,146092,20,Female,1,2024/02/15_12:21:57,YZ,None,
,,,,,,calibration,0,16,2,426,6,X,0,right,0.3814813540011528,1,0,,,,,,,,,,,,,,,,,,,,,1,,,,,,,,,,,,,,,,,,,,,,,,,,,,,,,,,,,,,,,,,,,,,,59,146092,20,Female,1,2024/02/15_12:21:57,YZ,None,
,,,,,,calibration,0,16,2,426,7,C,0,left,0.5123280159968999,0,0,,,,,,,,,,,,,,,,,,,,,1,,,,,,,,,,,,,,,,,,,,,,,,,,,,,,,,,,,,,,,,,,,,,,59,146092,20,Female,1,2024/02/15_12:21:57,YZ,None,
,,,,,,calibration,0,16,2,426,8,N,0,left,0.7001067839992174,0,0,,,,,,,,,,,,,,,,,,,,,1,,,,,,,,,,,,,,,,,,,,,,,,,,,,,,,,,,,,,,,,,,,,,,59,146092,20,Female,1,2024/02/15_12:21:57,YZ,None,
,,,,,,calibration,0,16,2,426,9,V,0,right,0.3782361849989684,1,0,,,,,,,,,,,,,,,,,,,,,1,,,,,,,,,,,,,,,,,,,,,,,,,,,,,,,,,,,,,,,,,,,,,,59,146092,20,Female,1,2024/02/15_12:21:57,YZ,None,
,,,,,,calibration,0,16,2,426,10,N,1,left,0.6070648470013111,1,0,,,,,,,,,,,,,,,,,,,,,1,,,,,,,,,,,,,,,,,,,,,,,,,,,,,,,,,,,,,,,,,,,,,,59,146092,20,Female,1,2024/02/15_12:21:57,YZ,None,
,,,,,,calibration,0,16,2,426,11,S,0,right,0.3012797800001863,1,0,,,,,,,,,,,,,,,,,,,,,1,,,,,,,,,,,,,,,,,,,,,,,,,,,,,,,,,,,,,,,,,,,,,,59,146092,20,Female,1,2024/02/15_12:21:57,YZ,None,
,,,,,,calibration,0,16,2,426,12,N,1,left,0.48839190600119764,1,0,,,,,,,,,,,,,,,,,,,,,1,,,,,,,,,,,,,,,,,,,,,,,,,,,,,,,,,,,,,,,,,,,,,,59,146092,20,Female,1,2024/02/15_12:21:57,YZ,None,
,,,,,,calibration,0,16,2,426,13,F,0,right,0.3274290219997056,1,0,,,,,,,,,,,,,,,,,,,,,1,,,,,,,,,,,,,,,,,,,,,,,,,,,,,,,,,,,,,,,,,,,,,,59,146092,20,Female,1,2024/02/15_12:21:57,YZ,None,
,,,,,,calibration,0,16,2,426,14,N,1,left,0.46570037299898104,1,0,,,,,,,,,,,,,,,,,,,,,1,,,,,,,,,,,,,,,,,,,,,,,,,,,,,,,,,,,,,,,,,,,,,,59,146092,20,Female,1,2024/02/15_12:21:57,YZ,None,
,,,,,,calibration,0,16,2,426,15,S,0,right,0.20987582900124835,1,0,,,,,,,,,,,,,,,,,,,,,1,,,,,,,,,,,,,,,,,,,,,,,,,,,,,,,,,,,,,,,,,,,,,,59,146092,20,Female,1,2024/02/15_12:21:57,YZ,None,
,,,,,,calibration,0,16,2,426,16,N,1,left,0.27233430100022815,1,0,,,,,,,,,,,,,,,,,,,,,1,,,,,,,,,,,,,,,,,,,,,,,,,,,,,,,,,,,,,,,,,,,,,,59,146092,20,Female,1,2024/02/15_12:21:57,YZ,None,
,,,,,,calibration,0,16,2,426,17,F,0,right,0.3841263229987817,1,0,,,,,,,,,,,,,,,,,,,,,1,,,,,,,,,,,,,,,,,,,,,,,,,,,,,,,,,,,,,,,,,,,,,,59,146092,20,Female,1,2024/02/15_12:21:57,YZ,None,
,,,,,,calibration,0,16,2,426,,,,,,,,0.9583333333333334,1.0,0.16666666666666666,0.8333333333333334,0.0,0.8333333333333334,0.4289884594703942,5,2,0,0,0,10,15,5,12,0,,,,1,,,,,,,,,,,,,,,,,,,,,,,,,,,,,,,,,,,,,,,,,,,,,,59,146092,20,Female,1,2024/02/15_12:21:57,YZ,None,
,,,,,,Calibration,0,,2,426,,,,,,,,,,,,,,,,,,,,,,,,,3,,,1,,,,,,,,,,,,,,,,,,,,,,,,,,,,,,,,,,,,,,,,,,,,,,59,146092,20,Female,1,2024/02/15_12:21:57,YZ,None,
,,,,,,calibration,0,7,2,361,1,F,0,None,nan,0,1,,,,,,,,,,,,,,,,,,,,,1,,,,,,,,,,,,,,,,,,,,,,,,,,,,,,,,,,,,,,,,,,,,,,59,146092,20,Female,1,2024/02/15_12:21:57,YZ,None,
,,,,,,calibration,0,7,2,361,2,N,0,right,0.6574286180002673,1,0,,,,,,,,,,,,,,,,,,,,,1,,,,,,,,,,,,,,,,,,,,,,,,,,,,,,,,,,,,,,,,,,,,,,59,146092,20,Female,1,2024/02/15_12:21:57,YZ,None,
,,,,,,calibration,0,7,2,361,3,X,0,right,0.3503214880001906,1,0,,,,,,,,,,,,,,,,,,,,,1,,,,,,,,,,,,,,,,,,,,,,,,,,,,,,,,,,,,,,,,,,,,,,59,146092,20,Female,1,2024/02/15_12:21:57,YZ,None,
,,,,,,calibration,0,7,2,361,4,N,1,left,0.5619458500004839,1,0,,,,,,,,,,,,,,,,,,,,,1,,,,,,,,,,,,,,,,,,,,,,,,,,,,,,,,,,,,,,,,,,,,,,59,146092,20,Female,1,2024/02/15_12:21:57,YZ,None,
,,,,,,calibration,0,7,2,361,5,Q,0,right,0.33907375800117734,1,0,,,,,,,,,,,,,,,,,,,,,1,,,,,,,,,,,,,,,,,,,,,,,,,,,,,,,,,,,,,,,,,,,,,,59,146092,20,Female,1,2024/02/15_12:21:57,YZ,None,
,,,,,,calibration,0,7,2,361,6,S,0,right,0.40463429000010365,1,0,,,,,,,,,,,,,,,,,,,,,1,,,,,,,,,,,,,,,,,,,,,,,,,,,,,,,,,,,,,,,,,,,,,,59,146092,20,Female,1,2024/02/15_12:21:57,YZ,None,
,,,,,,calibration,0,7,2,361,7,Q,1,left,0.4238661380004487,1,0,,,,,,,,,,,,,,,,,,,,,1,,,,,,,,,,,,,,,,,,,,,,,,,,,,,,,,,,,,,,,,,,,,,,59,146092,20,Female,1,2024/02/15_12:21:57,YZ,None,
,,,,,,calibration,0,7,2,361,8,V,0,right,0.3277897989974008,1,0,,,,,,,,,,,,,,,,,,,,,1,,,,,,,,,,,,,,,,,,,,,,,,,,,,,,,,,,,,,,,,,,,,,,59,146092,20,Female,1,2024/02/15_12:21:57,YZ,None,
,,,,,,calibration,0,7,2,361,9,F,0,right,0.284484338000766,1,0,,,,,,,,,,,,,,,,,,,,,1,,,,,,,,,,,,,,,,,,,,,,,,,,,,,,,,,,,,,,,,,,,,,,59,146092,20,Female,1,2024/02/15_12:21:57,YZ,None,
,,,,,,calibration,0,7,2,361,10,J,0,left,0.42383834999782266,0,0,,,,,,,,,,,,,,,,,,,,,1,,,,,,,,,,,,,,,,,,,,,,,,,,,,,,,,,,,,,,,,,,,,,,59,146092,20,Female,1,2024/02/15_12:21:57,YZ,None,
,,,,,,calibration,0,7,2,361,11,F,1,right,0.48878158400111715,0,0,,,,,,,,,,,,,,,,,,,,,1,,,,,,,,,,,,,,,,,,,,,,,,,,,,,,,,,,,,,,,,,,,,,,59,146092,20,Female,1,2024/02/15_12:21:57,YZ,None,
,,,,,,calibration,0,7,2,361,12,J,1,right,0.2827700519992504,0,0,,,,,,,,,,,,,,,,,,,,,1,,,,,,,,,,,,,,,,,,,,,,,,,,,,,,,,,,,,,,,,,,,,,,59,146092,20,Female,1,2024/02/15_12:21:57,YZ,None,
,,,,,,calibration,0,7,2,361,13,V,0,right,0.630547288001253,1,0,,,,,,,,,,,,,,,,,,,,,1,,,,,,,,,,,,,,,,,,,,,,,,,,,,,,,,,,,,,,,,,,,,,,59,146092,20,Female,1,2024/02/15_12:21:57,YZ,None,
,,,,,,calibration,0,7,2,361,14,J,1,left,0.5889351750010974,1,0,,,,,,,,,,,,,,,,,,,,,1,,,,,,,,,,,,,,,,,,,,,,,,,,,,,,,,,,,,,,,,,,,,,,59,146092,20,Female,1,2024/02/15_12:21:57,YZ,None,
,,,,,,calibration,0,7,2,361,15,C,0,right,0.7873197489971062,1,0,,,,,,,,,,,,,,,,,,,,,1,,,,,,,,,,,,,,,,,,,,,,,,,,,,,,,,,,,,,,,,,,,,,,59,146092,20,Female,1,2024/02/15_12:21:57,YZ,None,
,,,,,,calibration,0,7,2,361,16,Q,0,right,0.4309717130017816,1,0,,,,,,,,,,,,,,,,,,,,,1,,,,,,,,,,,,,,,,,,,,,,,,,,,,,,,,,,,,,,,,,,,,,,59,146092,20,Female,1,2024/02/15_12:21:57,YZ,None,
,,,,,,calibration,0,7,2,361,17,J,0,left,0.4658923959977983,0,0,,,,,,,,,,,,,,,,,,,,,1,,,,,,,,,,,,,,,,,,,,,,,,,,,,,,,,,,,,,,,,,,,,,,59,146092,20,Female,1,2024/02/15_12:21:57,YZ,None,
,,,,,,calibration,0,7,2,361,18,V,0,right,0.40906289799750084,1,0,,,,,,,,,,,,,,,,,,,,,1,,,,,,,,,,,,,,,,,,,,,,,,,,,,,,,,,,,,,,,,,,,,,,59,146092,20,Female,1,2024/02/15_12:21:57,YZ,None,
,,,,,,calibration,0,7,2,361,,,,,,,,0.8,0.6,0.15384615384615385,0.8333333333333334,0.05555555555555555,0.7905982905982906,0.4622154990585627,3,2,0,1,1,10,13,5,13,0,,,,1,,,,,,,,,,,,,,,,,,,,,,,,,,,,,,,,,,,,,,,,,,,,,,59,146092,20,Female,1,2024/02/15_12:21:57,YZ,None,
,,,,,,Calibration,0,,2,361,,,,,,,,,,,,,,,,,,,,,,,,,4,,,1,,,,,,,,,,,,,,,,,,,,,,,,,,,,,,,,,,,,,,,,,,,,,,59,146092,20,Female,1,2024/02/15_12:21:57,YZ,None,
,,,,,,calibration,0,19,2,361,1,N,0,right,0.4900452199981373,1,0,,,,,,,,,,,,,,,,,,,,,1,,,,,,,,,,,,,,,,,,,,,,,,,,,,,,,,,,,,,,,,,,,,,,59,146092,20,Female,1,2024/02/15_12:21:57,YZ,None,
,,,,,,calibration,0,19,2,361,2,F,0,right,0.28824892600096064,1,0,,,,,,,,,,,,,,,,,,,,,1,,,,,,,,,,,,,,,,,,,,,,,,,,,,,,,,,,,,,,,,,,,,,,59,146092,20,Female,1,2024/02/15_12:21:57,YZ,None,
,,,,,,calibration,0,19,2,361,3,S,0,right,0.4655349480017321,1,0,,,,,,,,,,,,,,,,,,,,,1,,,,,,,,,,,,,,,,,,,,,,,,,,,,,,,,,,,,,,,,,,,,,,59,146092,20,Female,1,2024/02/15_12:21:57,YZ,None,
,,,,,,calibration,0,19,2,361,4,F,1,left,0.3856065590007347,1,0,,,,,,,,,,,,,,,,,,,,,1,,,,,,,,,,,,,,,,,,,,,,,,,,,,,,,,,,,,,,,,,,,,,,59,146092,20,Female,1,2024/02/15_12:21:57,YZ,None,
,,,,,,calibration,0,19,2,361,5,S,1,left,0.6444762059982168,1,0,,,,,,,,,,,,,,,,,,,,,1,,,,,,,,,,,,,,,,,,,,,,,,,,,,,,,,,,,,,,,,,,,,,,59,146092,20,Female,1,2024/02/15_12:21:57,YZ,None,
,,,,,,calibration,0,19,2,361,6,C,0,right,0.3793311449990142,1,0,,,,,,,,,,,,,,,,,,,,,1,,,,,,,,,,,,,,,,,,,,,,,,,,,,,,,,,,,,,,,,,,,,,,59,146092,20,Female,1,2024/02/15_12:21:57,YZ,None,
,,,,,,calibration,0,19,2,361,7,J,0,right,0.5249983650028298,1,0,,,,,,,,,,,,,,,,,,,,,1,,,,,,,,,,,,,,,,,,,,,,,,,,,,,,,,,,,,,,,,,,,,,,59,146092,20,Female,1,2024/02/15_12:21:57,YZ,None,
,,,,,,calibration,0,19,2,361,8,V,0,right,0.31659360899720923,1,0,,,,,,,,,,,,,,,,,,,,,1,,,,,,,,,,,,,,,,,,,,,,,,,,,,,,,,,,,,,,,,,,,,,,59,146092,20,Female,1,2024/02/15_12:21:57,YZ,None,
,,,,,,calibration,0,19,2,361,9,C,0,right,0.5324727689985593,1,0,,,,,,,,,,,,,,,,,,,,,1,,,,,,,,,,,,,,,,,,,,,,,,,,,,,,,,,,,,,,,,,,,,,,59,146092,20,Female,1,2024/02/15_12:21:57,YZ,None,
,,,,,,calibration,0,19,2,361,10,V,1,right,0.35651341100310674,0,0,,,,,,,,,,,,,,,,,,,,,1,,,,,,,,,,,,,,,,,,,,,,,,,,,,,,,,,,,,,,,,,,,,,,59,146092,20,Female,1,2024/02/15_12:21:57,YZ,None,
,,,,,,calibration,0,19,2,361,11,C,1,left,0.4905571510025766,1,0,,,,,,,,,,,,,,,,,,,,,1,,,,,,,,,,,,,,,,,,,,,,,,,,,,,,,,,,,,,,,,,,,,,,59,146092,20,Female,1,2024/02/15_12:21:57,YZ,None,
,,,,,,calibration,0,19,2,361,12,Q,0,right,0.4093192949985678,1,0,,,,,,,,,,,,,,,,,,,,,1,,,,,,,,,,,,,,,,,,,,,,,,,,,,,,,,,,,,,,,,,,,,,,59,146092,20,Female,1,2024/02/15_12:21:57,YZ,None,
,,,,,,calibration,0,19,2,361,13,S,0,right,0.29056873499939684,1,0,,,,,,,,,,,,,,,,,,,,,1,,,,,,,,,,,,,,,,,,,,,,,,,,,,,,,,,,,,,,,,,,,,,,59,146092,20,Female,1,2024/02/15_12:21:57,YZ,None,
,,,,,,calibration,0,19,2,361,14,Q,1,left,0.32206121899798745,1,0,,,,,,,,,,,,,,,,,,,,,1,,,,,,,,,,,,,,,,,,,,,,,,,,,,,,,,,,,,,,,,,,,,,,59,146092,20,Female,1,2024/02/15_12:21:57,YZ,None,
,,,,,,calibration,0,19,2,361,15,V,0,right,0.23317889099780587,1,0,,,,,,,,,,,,,,,,,,,,,1,,,,,,,,,,,,,,,,,,,,,,,,,,,,,,,,,,,,,,,,,,,,,,59,146092,20,Female,1,2024/02/15_12:21:57,YZ,None,
,,,,,,calibration,0,19,2,361,16,J,0,right,0.37755918100083363,1,0,,,,,,,,,,,,,,,,,,,,,1,,,,,,,,,,,,,,,,,,,,,,,,,,,,,,,,,,,,,,,,,,,,,,59,146092,20,Female,1,2024/02/15_12:21:57,YZ,None,
,,,,,,calibration,0,19,2,361,17,N,0,left,0.30447629199989024,0,0,,,,,,,,,,,,,,,,,,,,,1,,,,,,,,,,,,,,,,,,,,,,,,,,,,,,,,,,,,,,,,,,,,,,59,146092,20,Female,1,2024/02/15_12:21:57,YZ,None,
,,,,,,calibration,0,19,2,361,18,Q,0,right,0.22477888600042206,1,0,,,,,,,,,,,,,,,,,,,,,1,,,,,,,,,,,,,,,,,,,,,,,,,,,,,,,,,,,,,,,,,,,,,,59,146092,20,Female,1,2024/02/15_12:21:57,YZ,None,
,,,,,,calibration,0,19,2,361,,,,,,,,0.9153846153846155,0.8,0.07692307692307693,0.9230769230769231,0.0,0.9230769230769231,0.39090671155544343,4,1,0,0,0,12,16,5,13,0,,,,1,,,,,,,,,,,,,,,,,,,,,,,,,,,,,,,,,,,,,,,,,,,,,,59,146092,20,Female,1,2024/02/15_12:21:57,YZ,None,
,,,,,,Calibration,0,,2,361,,,,,,,,,,,,,,,,,,,,,,,,,5,,,1,,,,,,,,,,,,,,,,,,,,,,,,,,,,,,,,,,,,,,,,,,,,,,59,146092,20,Female,1,2024/02/15_12:21:57,YZ,None,
,,,,,,calibration,0,4,2,303,1,Q,0,right,0.4438791390020924,1,0,,,,,,,,,,,,,,,,,,,,,1,,,,,,,,,,,,,,,,,,,,,,,,,,,,,,,,,,,,,,,,,,,,,,59,146092,20,Female,1,2024/02/15_12:21:57,YZ,None,
,,,,,,calibration,0,4,2,303,2,C,0,right,0.22067335400060983,1,0,,,,,,,,,,,,,,,,,,,,,1,,,,,,,,,,,,,,,,,,,,,,,,,,,,,,,,,,,,,,,,,,,,,,59,146092,20,Female,1,2024/02/15_12:21:57,YZ,None,
,,,,,,calibration,0,4,2,303,3,N,0,right,0.2006571480014827,1,0,,,,,,,,,,,,,,,,,,,,,1,,,,,,,,,,,,,,,,,,,,,,,,,,,,,,,,,,,,,,,,,,,,,,59,146092,20,Female,1,2024/02/15_12:21:57,YZ,None,
,,,,,,calibration,0,4,2,303,4,F,0,right,0.2018799699981173,1,0,,,,,,,,,,,,,,,,,,,,,1,,,,,,,,,,,,,,,,,,,,,,,,,,,,,,,,,,,,,,,,,,,,,,59,146092,20,Female,1,2024/02/15_12:21:57,YZ,None,
,,,,,,calibration,0,4,2,303,5,C,0,right,0.2047253990022,1,0,,,,,,,,,,,,,,,,,,,,,1,,,,,,,,,,,,,,,,,,,,,,,,,,,,,,,,,,,,,,,,,,,,,,59,146092,20,Female,1,2024/02/15_12:21:57,YZ,None,
,,,,,,calibration,0,4,2,303,6,V,0,right,0.3021930059985607,1,0,,,,,,,,,,,,,,,,,,,,,1,,,,,,,,,,,,,,,,,,,,,,,,,,,,,,,,,,,,,,,,,,,,,,59,146092,20,Female,1,2024/02/15_12:21:57,YZ,None,
,,,,,,calibration,0,4,2,303,7,F,0,right,0.49595048899936955,1,0,,,,,,,,,,,,,,,,,,,,,1,,,,,,,,,,,,,,,,,,,,,,,,,,,,,,,,,,,,,,,,,,,,,,59,146092,20,Female,1,2024/02/15_12:21:57,YZ,None,
,,,,,,calibration,0,4,2,303,8,V,1,left,0.4563896880026732,1,0,,,,,,,,,,,,,,,,,,,,,1,,,,,,,,,,,,,,,,,,,,,,,,,,,,,,,,,,,,,,,,,,,,,,59,146092,20,Female,1,2024/02/15_12:21:57,YZ,None,
,,,,,,calibration,0,4,2,303,9,F,1,right,0.2180949520006834,0,0,,,,,,,,,,,,,,,,,,,,,1,,,,,,,,,,,,,,,,,,,,,,,,,,,,,,,,,,,,,,,,,,,,,,59,146092,20,Female,1,2024/02/15_12:21:57,YZ,None,
,,,,,,calibration,0,4,2,303,10,J,0,right,0.3530032700000447,1,0,,,,,,,,,,,,,,,,,,,,,1,,,,,,,,,,,,,,,,,,,,,,,,,,,,,,,,,,,,,,,,,,,,,,59,146092,20,Female,1,2024/02/15_12:21:57,YZ,None,
,,,,,,calibration,0,4,2,303,11,C,0,left,0.27436339300038526,0,0,,,,,,,,,,,,,,,,,,,,,1,,,,,,,,,,,,,,,,,,,,,,,,,,,,,,,,,,,,,,,,,,,,,,59,146092,20,Female,1,2024/02/15_12:21:57,YZ,None,
,,,,,,calibration,0,4,2,303,12,Q,0,right,0.258324841997819,1,0,,,,,,,,,,,,,,,,,,,,,1,,,,,,,,,,,,,,,,,,,,,,,,,,,,,,,,,,,,,,,,,,,,,,59,146092,20,Female,1,2024/02/15_12:21:57,YZ,None,
,,,,,,calibration,0,4,2,303,13,C,1,left,0.46659957399970153,1,0,,,,,,,,,,,,,,,,,,,,,1,,,,,,,,,,,,,,,,,,,,,,,,,,,,,,,,,,,,,,,,,,,,,,59,146092,20,Female,1,2024/02/15_12:21:57,YZ,None,
,,,,,,calibration,0,4,2,303,14,Q,1,left,0.5314155650012253,1,0,,,,,,,,,,,,,,,,,,,,,1,,,,,,,,,,,,,,,,,,,,,,,,,,,,,,,,,,,,,,,,,,,,,,59,146092,20,Female,1,2024/02/15_12:21:57,YZ,None,
,,,,,,calibration,0,4,2,303,15,X,0,right,0.5120535320020281,1,0,,,,,,,,,,,,,,,,,,,,,1,,,,,,,,,,,,,,,,,,,,,,,,,,,,,,,,,,,,,,,,,,,,,,59,146092,20,Female,1,2024/02/15_12:21:57,YZ,None,
,,,,,,calibration,0,4,2,303,16,Q,1,right,0.20126912999694468,0,0,,,,,,,,,,,,,,,,,,,,,1,,,,,,,,,,,,,,,,,,,,,,,,,,,,,,,,,,,,,,,,,,,,,,59,146092,20,Female,1,2024/02/15_12:21:57,YZ,None,
,,,,,,calibration,0,4,2,303,17,C,0,right,0.569245343998773,1,0,,,,,,,,,,,,,,,,,,,,,1,,,,,,,,,,,,,,,,,,,,,,,,,,,,,,,,,,,,,,,,,,,,,,59,146092,20,Female,1,2024/02/15_12:21:57,YZ,None,
,,,,,,calibration,0,4,2,303,18,F,0,right,0.43071566200160305,1,0,,,,,,,,,,,,,,,,,,,,,1,,,,,,,,,,,,,,,,,,,,,,,,,,,,,,,,,,,,,,,,,,,,,,59,146092,20,Female,1,2024/02/15_12:21:57,YZ,None,
,,,,,,calibration,0,4,2,303,19,C,1,left,0.38643342700015637,1,0,,,,,,,,,,,,,,,,,,,,,1,,,,,,,,,,,,,,,,,,,,,,,,,,,,,,,,,,,,,,,,,,,,,,59,146092,20,Female,1,2024/02/15_12:21:57,YZ,None,
,,,,,,calibration,0,4,2,303,,,,,,,,0.8717948717948717,0.6666666666666666,0.07692307692307693,0.9230769230769231,0.0,0.9230769230769231,0.35409825705286685,4,1,0,0,0,12,16,6,13,0,,,,1,,,,,,,,,,,,,,,,,,,,,,,,,,,,,,,,,,,,,,,,,,,,,,59,146092,20,Female,1,2024/02/15_12:21:57,YZ,None,
,,,,,,Calibration,0,,2,303,,,,,,,,,,,,,,,,,,,,,,,,,6,,,1,,,,,,,,,,,,,,,,,,,,,,,,,,,,,,,,,,,,,,,,,,,,,,59,146092,20,Female,1,2024/02/15_12:21:57,YZ,None,
,,,,,,calibration,0,16,2,250,1,N,0,right,0.5464774309984932,1,0,,,,,,,,,,,,,,,,,,,,,1,,,,,,,,,,,,,,,,,,,,,,,,,,,,,,,,,,,,,,,,,,,,,,59,146092,20,Female,1,2024/02/15_12:21:57,YZ,None,
,,,,,,calibration,0,16,2,250,2,F,0,right,0.24574458300048718,1,0,,,,,,,,,,,,,,,,,,,,,1,,,,,,,,,,,,,,,,,,,,,,,,,,,,,,,,,,,,,,,,,,,,,,59,146092,20,Female,1,2024/02/15_12:21:57,YZ,None,
,,,,,,calibration,0,16,2,250,3,Q,0,right,0.34643078800218063,1,0,,,,,,,,,,,,,,,,,,,,,1,,,,,,,,,,,,,,,,,,,,,,,,,,,,,,,,,,,,,,,,,,,,,,59,146092,20,Female,1,2024/02/15_12:21:57,YZ,None,
,,,,,,calibration,0,16,2,250,4,C,0,right,0.4560348310005793,1,0,,,,,,,,,,,,,,,,,,,,,1,,,,,,,,,,,,,,,,,,,,,,,,,,,,,,,,,,,,,,,,,,,,,,59,146092,20,Female,1,2024/02/15_12:21:57,YZ,None,
,,,,,,calibration,0,16,2,250,5,F,0,left,0.39234661600130494,0,0,,,,,,,,,,,,,,,,,,,,,1,,,,,,,,,,,,,,,,,,,,,,,,,,,,,,,,,,,,,,,,,,,,,,59,146092,20,Female,1,2024/02/15_12:21:57,YZ,None,
,,,,,,calibration,0,16,2,250,6,X,0,right,0.25667192099717795,1,0,,,,,,,,,,,,,,,,,,,,,1,,,,,,,,,,,,,,,,,,,,,,,,,,,,,,,,,,,,,,,,,,,,,,59,146092,20,Female,1,2024/02/15_12:21:57,YZ,None,
,,,,,,calibration,0,16,2,250,7,F,1,left,0.3691939189993718,1,0,,,,,,,,,,,,,,,,,,,,,1,,,,,,,,,,,,,,,,,,,,,,,,,,,,,,,,,,,,,,,,,,,,,,59,146092,20,Female,1,2024/02/15_12:21:57,YZ,None,
,,,,,,calibration,0,16,2,250,8,C,0,right,0.25575897800081293,1,0,,,,,,,,,,,,,,,,,,,,,1,,,,,,,,,,,,,,,,,,,,,,,,,,,,,,,,,,,,,,,,,,,,,,59,146092,20,Female,1,2024/02/15_12:21:57,YZ,None,
,,,,,,calibration,0,16,2,250,9,Q,0,right,0.5299666950013489,1,0,,,,,,,,,,,,,,,,,,,,,1,,,,,,,,,,,,,,,,,,,,,,,,,,,,,,,,,,,,,,,,,,,,,,59,146092,20,Female,1,2024/02/15_12:21:57,YZ,None,
,,,,,,calibration,0,16,2,250,10,C,1,left,0.3740203269990161,1,0,,,,,,,,,,,,,,,,,,,,,1,,,,,,,,,,,,,,,,,,,,,,,,,,,,,,,,,,,,,,,,,,,,,,59,146092,20,Female,1,2024/02/15_12:21:57,YZ,None,
,,,,,,calibration,0,16,2,250,11,Q,1,left,0.5827556989970617,1,0,,,,,,,,,,,,,,,,,,,,,1,,,,,,,,,,,,,,,,,,,,,,,,,,,,,,,,,,,,,,,,,,,,,,59,146092,20,Female,1,2024/02/15_12:21:57,YZ,None,
,,,,,,calibration,0,16,2,250,12,F,0,right,0.34990241099876584,1,0,,,,,,,,,,,,,,,,,,,,,1,,,,,,,,,,,,,,,,,,,,,,,,,,,,,,,,,,,,,,,,,,,,,,59,146092,20,Female,1,2024/02/15_12:21:57,YZ,None,
,,,,,,calibration,0,16,2,250,13,C,0,right,0.3141217060001509,1,0,,,,,,,,,,,,,,,,,,,,,1,,,,,,,,,,,,,,,,,,,,,,,,,,,,,,,,,,,,,,,,,,,,,,59,146092,20,Female,1,2024/02/15_12:21:57,YZ,None,
,,,,,,calibration,0,16,2,250,14,F,1,left,0.6414202030027809,1,0,,,,,,,,,,,,,,,,,,,,,1,,,,,,,,,,,,,,,,,,,,,,,,,,,,,,,,,,,,,,,,,,,,,,59,146092,20,Female,1,2024/02/15_12:21:57,YZ,None,
,,,,,,calibration,0,16,2,250,15,V,0,right,0.43860878799750935,1,0,,,,,,,,,,,,,,,,,,,,,1,,,,,,,,,,,,,,,,,,,,,,,,,,,,,,,,,,,,,,,,,,,,,,59,146092,20,Female,1,2024/02/15_12:21:57,YZ,None,
,,,,,,calibration,0,16,2,250,16,C,0,right,0.5750446310012194,1,0,,,,,,,,,,,,,,,,,,,,,1,,,,,,,,,,,,,,,,,,,,,,,,,,,,,,,,,,,,,,,,,,,,,,59,146092,20,Female,1,2024/02/15_12:21:57,YZ,None,
,,,,,,calibration,0,16,2,250,17,S,0,left,0.42534832100136555,0,0,,,,,,,,,,,,,,,,,,,,,1,,,,,,,,,,,,,,,,,,,,,,,,,,,,,,,,,,,,,,,,,,,,,,59,146092,20,Female,1,2024/02/15_12:21:57,YZ,None,
,,,,,,calibration,0,16,2,250,18,C,1,right,0.3723717869979737,0,0,,,,,,,,,,,,,,,,,,,,,1,,,,,,,,,,,,,,,,,,,,,,,,,,,,,,,,,,,,,,,,,,,,,,59,146092,20,Female,1,2024/02/15_12:21:57,YZ,None,
,,,,,,calibration,0,16,2,250,19,Q,0,right,0.42534296899975743,1,0,,,,,,,,,,,,,,,,,,,,,1,,,,,,,,,,,,,,,,,,,,,,,,,,,,,,,,,,,,,,,,,,,,,,59,146092,20,Female,1,2024/02/15_12:21:57,YZ,None,
,,,,,,calibration,0,16,2,250,20,C,1,left,0.4024762649969489,1,0,,,,,,,,,,,,,,,,,,,,,1,,,,,,,,,,,,,,,,,,,,,,,,,,,,,,,,,,,,,,,,,,,,,,59,146092,20,Female,1,2024/02/15_12:21:57,YZ,None,
,,,,,,calibration,0,16,2,250,,,,,,,,0.8988095238095238,0.8333333333333334,0.14285714285714285,0.8571428571428571,0.0,0.8571428571428572,0.4150019434497153,5,2,0,0,0,12,17,6,14,0,,,,1,,,,,,,,,,,,,,,,,,,,,,,,,,,,,,,,,,,,,,,,,,,,,,59,146092,20,Female,1,2024/02/15_12:21:57,YZ,None,
,,,,,,Calibration,0,,2,250,,,,,,,,,,,,,,,,,,,,,,,,,7,,,1,,,,,,,,,,,,,,,,,,,,,,,,,,,,,,,,,,,,,,,,,,,,,,59,146092,20,Female,1,2024/02/15_12:21:57,YZ,None,
,,,,,,calibration,0,2,2,202,1,C,0,right,0.5260840299997653,1,0,,,,,,,,,,,,,,,,,,,,,1,,,,,,,,,,,,,,,,,,,,,,,,,,,,,,,,,,,,,,,,,,,,,,59,146092,20,Female,1,2024/02/15_12:21:57,YZ,None,
,,,,,,calibration,0,2,2,202,2,Q,0,right,0.36239718399883714,1,0,,,,,,,,,,,,,,,,,,,,,1,,,,,,,,,,,,,,,,,,,,,,,,,,,,,,,,,,,,,,,,,,,,,,59,146092,20,Female,1,2024/02/15_12:21:57,YZ,None,
,,,,,,calibration,0,2,2,202,3,C,1,left,0.43696248800188187,1,0,,,,,,,,,,,,,,,,,,,,,1,,,,,,,,,,,,,,,,,,,,,,,,,,,,,,,,,,,,,,,,,,,,,,59,146092,20,Female,1,2024/02/15_12:21:57,YZ,None,
,,,,,,calibration,0,2,2,202,4,X,0,right,0.3442632939986652,1,0,,,,,,,,,,,,,,,,,,,,,1,,,,,,,,,,,,,,,,,,,,,,,,,,,,,,,,,,,,,,,,,,,,,,59,146092,20,Female,1,2024/02/15_12:21:57,YZ,None,
,,,,,,calibration,0,2,2,202,5,C,1,left,0.43694281200077967,1,0,,,,,,,,,,,,,,,,,,,,,1,,,,,,,,,,,,,,,,,,,,,,,,,,,,,,,,,,,,,,,,,,,,,,59,146092,20,Female,1,2024/02/15_12:21:57,YZ,None,
,,,,,,calibration,0,2,2,202,6,Q,0,right,0.33621623200087924,1,0,,,,,,,,,,,,,,,,,,,,,1,,,,,,,,,,,,,,,,,,,,,,,,,,,,,,,,,,,,,,,,,,,,,,59,146092,20,Female,1,2024/02/15_12:21:57,YZ,None,
,,,,,,calibration,0,2,2,202,7,X,0,left,0.4497590789978858,0,0,,,,,,,,,,,,,,,,,,,,,1,,,,,,,,,,,,,,,,,,,,,,,,,,,,,,,,,,,,,,,,,,,,,,59,146092,20,Female,1,2024/02/15_12:21:57,YZ,None,
,,,,,,calibration,0,2,2,202,8,S,0,right,0.33745962400280405,1,0,,,,,,,,,,,,,,,,,,,,,1,,,,,,,,,,,,,,,,,,,,,,,,,,,,,,,,,,,,,,,,,,,,,,59,146092,20,Female,1,2024/02/15_12:21:57,YZ,None,
,,,,,,calibration,0,2,2,202,9,C,0,right,0.4403511470009107,1,0,,,,,,,,,,,,,,,,,,,,,1,,,,,,,,,,,,,,,,,,,,,,,,,,,,,,,,,,,,,,,,,,,,,,59,146092,20,Female,1,2024/02/15_12:21:57,YZ,None,
,,,,,,calibration,0,2,2,202,10,Q,0,right,0.609664903000521,1,0,,,,,,,,,,,,,,,,,,,,,1,,,,,,,,,,,,,,,,,,,,,,,,,,,,,,,,,,,,,,,,,,,,,,59,146092,20,Female,1,2024/02/15_12:21:57,YZ,None,
,,,,,,calibration,0,2,2,202,11,X,0,right,0.5379109889981919,1,0,,,,,,,,,,,,,,,,,,,,,1,,,,,,,,,,,,,,,,,,,,,,,,,,,,,,,,,,,,,,,,,,,,,,59,146092,20,Female,1,2024/02/15_12:21:57,YZ,None,
,,,,,,calibration,0,2,2,202,12,C,0,right,0.22693685800186358,1,0,,,,,,,,,,,,,,,,,,,,,1,,,,,,,,,,,,,,,,,,,,,,,,,,,,,,,,,,,,,,,,,,,,,,59,146092,20,Female,1,2024/02/15_12:21:57,YZ,None,
,,,,,,calibration,0,2,2,202,13,Q,0,left,0.40477362400270067,0,0,,,,,,,,,,,,,,,,,,,,,1,,,,,,,,,,,,,,,,,,,,,,,,,,,,,,,,,,,,,,,,,,,,,,59,146092,20,Female,1,2024/02/15_12:21:57,YZ,None,
,,,,,,calibration,0,2,2,202,14,C,1,right,0.22484623200216447,0,0,,,,,,,,,,,,,,,,,,,,,1,,,,,,,,,,,,,,,,,,,,,,,,,,,,,,,,,,,,,,,,,,,,,,59,146092,20,Female,1,2024/02/15_12:21:57,YZ,None,
,,,,,,calibration,0,2,2,202,15,J,0,right,0.49887300999762374,1,0,,,,,,,,,,,,,,,,,,,,,1,,,,,,,,,,,,,,,,,,,,,,,,,,,,,,,,,,,,,,,,,,,,,,59,146092,20,Female,1,2024/02/15_12:21:57,YZ,None,
,,,,,,calibration,0,2,2,202,16,N,0,right,0.3621193660001154,1,0,,,,,,,,,,,,,,,,,,,,,1,,,,,,,,,,,,,,,,,,,,,,,,,,,,,,,,,,,,,,,,,,,,,,59,146092,20,Female,1,2024/02/15_12:21:57,YZ,None,
,,,,,,calibration,0,2,2,202,17,J,1,left,0.6609044629985874,1,0,,,,,,,,,,,,,,,,,,,,,1,,,,,,,,,,,,,,,,,,,,,,,,,,,,,,,,,,,,,,,,,,,,,,59,146092,20,Female,1,2024/02/15_12:21:57,YZ,None,
,,,,,,calibration,0,2,2,202,18,C,0,right,0.5960965140002372,1,0,,,,,,,,,,,,,,,,,,,,,1,,,,,,,,,,,,,,,,,,,,,,,,,,,,,,,,,,,,,,,,,,,,,,59,146092,20,Female,1,2024/02/15_12:21:57,YZ,None,
,,,,,,calibration,0,2,2,202,19,V,0,right,0.3737736160001077,1,0,,,,,,,,,,,,,,,,,,,,,1,,,,,,,,,,,,,,,,,,,,,,,,,,,,,,,,,,,,,,,,,,,,,,59,146092,20,Female,1,2024/02/15_12:21:57,YZ,None,
,,,,,,calibration,0,2,2,202,20,C,1,left,0.4254294829988794,1,0,,,,,,,,,,,,,,,,,,,,,1,,,,,,,,,,,,,,,,,,,,,,,,,,,,,,,,,,,,,,,,,,,,,,59,146092,20,Female,1,2024/02/15_12:21:57,YZ,None,
,,,,,,calibration,0,2,2,202,21,V,1,right,0.36210186499738484,0,0,,,,,,,,,,,,,,,,,,,,,1,,,,,,,,,,,,,,,,,,,,,,,,,,,,,,,,,,,,,,,,,,,,,,59,146092,20,Female,1,2024/02/15_12:21:57,YZ,None,
,,,,,,calibration,0,2,2,202,,,,,,,,0.8388888888888889,0.6666666666666666,0.13333333333333333,0.8666666666666667,0.0,0.8666666666666667,0.4263746101428946,4,2,0,0,0,13,17,6,15,0,,,,1,,,,,,,,,,,,,,,,,,,,,,,,,,,,,,,,,,,,,,,,,,,,,,59,146092,20,Female,1,2024/02/15_12:21:57,YZ,None,
,,,,,,Calibration,0,,2,202,,,,,,,,,,,,,,,,,,,,,,,,,8,,,1,,,,,,,,,,,,,,,,,,,,,,,,,,,,,,,,,,,,,,,,,,,,,,59,146092,20,Female,1,2024/02/15_12:21:57,YZ,None,
,,,,,,calibration,0,4,2,202,1,N,0,right,0.407283725002344,1,0,,,,,,,,,,,,,,,,,,,,,1,,,,,,,,,,,,,,,,,,,,,,,,,,,,,,,,,,,,,,,,,,,,,,59,146092,20,Female,1,2024/02/15_12:21:57,YZ,None,
,,,,,,calibration,0,4,2,202,2,S,0,right,0.19340151500000502,1,0,,,,,,,,,,,,,,,,,,,,,1,,,,,,,,,,,,,,,,,,,,,,,,,,,,,,,,,,,,,,,,,,,,,,59,146092,20,Female,1,2024/02/15_12:21:57,YZ,None,
,,,,,,calibration,0,4,2,202,3,N,1,left,0.37246699100069236,1,0,,,,,,,,,,,,,,,,,,,,,1,,,,,,,,,,,,,,,,,,,,,,,,,,,,,,,,,,,,,,,,,,,,,,59,146092,20,Female,1,2024/02/15_12:21:57,YZ,None,
,,,,,,calibration,0,4,2,202,4,V,0,right,0.6081932400011283,1,0,,,,,,,,,,,,,,,,,,,,,1,,,,,,,,,,,,,,,,,,,,,,,,,,,,,,,,,,,,,,,,,,,,,,59,146092,20,Female,1,2024/02/15_12:21:57,YZ,None,
,,,,,,calibration,0,4,2,202,5,C,0,right,0.41707700899860356,1,0,,,,,,,,,,,,,,,,,,,,,1,,,,,,,,,,,,,,,,,,,,,,,,,,,,,,,,,,,,,,,,,,,,,,59,146092,20,Female,1,2024/02/15_12:21:57,YZ,None,
,,,,,,calibration,0,4,2,202,6,V,1,right,0.3678189130005194,0,0,,,,,,,,,,,,,,,,,,,,,1,,,,,,,,,,,,,,,,,,,,,,,,,,,,,,,,,,,,,,,,,,,,,,59,146092,20,Female,1,2024/02/15_12:21:57,YZ,None,
,,,,,,calibration,0,4,2,202,7,F,0,right,0.4848136719992908,1,0,,,,,,,,,,,,,,,,,,,,,1,,,,,,,,,,,,,,,,,,,,,,,,,,,,,,,,,,,,,,,,,,,,,,59,146092,20,Female,1,2024/02/15_12:21:57,YZ,None,
,,,,,,calibration,0,4,2,202,8,V,1,left,0.3369399319999502,1,0,,,,,,,,,,,,,,,,,,,,,1,,,,,,,,,,,,,,,,,,,,,,,,,,,,,,,,,,,,,,,,,,,,,,59,146092,20,Female,1,2024/02/15_12:21:57,YZ,None,
,,,,,,calibration,0,4,2,202,9,X,0,right,0.4164662879993557,1,0,,,,,,,,,,,,,,,,,,,,,1,,,,,,,,,,,,,,,,,,,,,,,,,,,,,,,,,,,,,,,,,,,,,,59,146092,20,Female,1,2024/02/15_12:21:57,YZ,None,
,,,,,,calibration,0,4,2,202,10,N,0,right,0.4528479190012149,1,0,,,,,,,,,,,,,,,,,,,,,1,,,,,,,,,,,,,,,,,,,,,,,,,,,,,,,,,,,,,,,,,,,,,,59,146092,20,Female,1,2024/02/15_12:21:57,YZ,None,
,,,,,,calibration,0,4,2,202,11,V,0,right,0.44806080700072926,1,0,,,,,,,,,,,,,,,,,,,,,1,,,,,,,,,,,,,,,,,,,,,,,,,,,,,,,,,,,,,,,,,,,,,,59,146092,20,Female,1,2024/02/15_12:21:57,YZ,None,
,,,,,,calibration,0,4,2,202,12,X,0,right,0.7761055549999583,1,0,,,,,,,,,,,,,,,,,,,,,1,,,,,,,,,,,,,,,,,,,,,,,,,,,,,,,,,,,,,,,,,,,,,,59,146092,20,Female,1,2024/02/15_12:21:57,YZ,None,
,,,,,,calibration,0,4,2,202,13,Q,0,right,0.48290333800105145,1,0,,,,,,,,,,,,,,,,,,,,,1,,,,,,,,,,,,,,,,,,,,,,,,,,,,,,,,,,,,,,,,,,,,,,59,146092,20,Female,1,2024/02/15_12:21:57,YZ,None,
,,,,,,calibration,0,4,2,202,14,C,0,right,0.4403280000005907,1,0,,,,,,,,,,,,,,,,,,,,,1,,,,,,,,,,,,,,,,,,,,,,,,,,,,,,,,,,,,,,,,,,,,,,59,146092,20,Female,1,2024/02/15_12:21:57,YZ,None,
,,,,,,calibration,0,4,2,202,15,Q,1,right,0.3917532619998383,0,0,,,,,,,,,,,,,,,,,,,,,1,,,,,,,,,,,,,,,,,,,,,,,,,,,,,,,,,,,,,,,,,,,,,,59,146092,20,Female,1,2024/02/15_12:21:57,YZ,None,
,,,,,,calibration,0,4,2,202,16,C,1,right,0.4339771640006802,0,0,,,,,,,,,,,,,,,,,,,,,1,,,,,,,,,,,,,,,,,,,,,,,,,,,,,,,,,,,,,,,,,,,,,,59,146092,20,Female,1,2024/02/15_12:21:57,YZ,None,
,,,,,,calibration,0,4,2,202,17,X,0,right,0.592700627999875,1,0,,,,,,,,,,,,,,,,,,,,,1,,,,,,,,,,,,,,,,,,,,,,,,,,,,,,,,,,,,,,,,,,,,,,59,146092,20,Female,1,2024/02/15_12:21:57,YZ,None,
,,,,,,calibration,0,4,2,202,18,Q,0,left,0.4053248039999744,0,0,,,,,,,,,,,,,,,,,,,,,1,,,,,,,,,,,,,,,,,,,,,,,,,,,,,,,,,,,,,,,,,,,,,,59,146092,20,Female,1,2024/02/15_12:21:57,YZ,None,
,,,,,,calibration,0,4,2,202,19,X,1,left,0.6601896389984176,1,0,,,,,,,,,,,,,,,,,,,,,1,,,,,,,,,,,,,,,,,,,,,,,,,,,,,,,,,,,,,,,,,,,,,,59,146092,20,Female,1,2024/02/15_12:21:57,YZ,None,
,,,,,,calibration,0,4,2,202,20,Q,1,right,0.5574424719998206,0,0,,,,,,,,,,,,,,,,,,,,,1,,,,,,,,,,,,,,,,,,,,,,,,,,,,,,,,,,,,,,,,,,,,,,59,146092,20,Female,1,2024/02/15_12:21:57,YZ,None,
,,,,,,calibration,0,4,2,202,21,V,0,right,0.47623807600029977,1,0,,,,,,,,,,,,,,,,,,,,,1,,,,,,,,,,,,,,,,,,,,,,,,,,,,,,,,,,,,,,,,,,,,,,59,146092,20,Female,1,2024/02/15_12:21:57,YZ,None,
,,,,,,calibration,0,4,2,202,,,,,,,,0.7976190476190477,0.42857142857142855,0.07142857142857142,0.9285714285714286,0.0,0.9285714285714286,0.46296823566687334,3,1,0,0,0,13,16,7,14,0,,,,1,,,,,,,,,,,,,,,,,,,,,,,,,,,,,,,,,,,,,,,,,,,,,,59,146092,20,Female,1,2024/02/15_12:21:57,YZ,None,
,,,,,,Calibration,0,,2,202,,,,,,,,,,,,,,,,,,,,,,,,,9,,,1,,,,,,,,,,,,,,,,,,,,,,,,,,,,,,,,,,,,,,,,,,,,,,59,146092,20,Female,1,2024/02/15_12:21:57,YZ,None,
,,,,,,calibration,0,28,2,202,1,J,0,right,0.4671820299990941,1,0,,,,,,,,,,,,,,,,,,,,,1,,,,,,,,,,,,,,,,,,,,,,,,,,,,,,,,,,,,,,,,,,,,,,59,146092,20,Female,1,2024/02/15_12:21:57,YZ,None,
,,,,,,calibration,0,28,2,202,2,F,0,right,0.2167430589979631,1,0,,,,,,,,,,,,,,,,,,,,,1,,,,,,,,,,,,,,,,,,,,,,,,,,,,,,,,,,,,,,,,,,,,,,59,146092,20,Female,1,2024/02/15_12:21:57,YZ,None,
,,,,,,calibration,0,28,2,202,3,C,0,right,0.40507747100127744,1,0,,,,,,,,,,,,,,,,,,,,,1,,,,,,,,,,,,,,,,,,,,,,,,,,,,,,,,,,,,,,,,,,,,,,59,146092,20,Female,1,2024/02/15_12:21:57,YZ,None,
,,,,,,calibration,0,28,2,202,4,X,0,right,0.385034391998488,1,0,,,,,,,,,,,,,,,,,,,,,1,,,,,,,,,,,,,,,,,,,,,,,,,,,,,,,,,,,,,,,,,,,,,,59,146092,20,Female,1,2024/02/15_12:21:57,YZ,None,
,,,,,,calibration,0,28,2,202,5,C,1,left,0.43346125700190896,1,0,,,,,,,,,,,,,,,,,,,,,1,,,,,,,,,,,,,,,,,,,,,,,,,,,,,,,,,,,,,,,,,,,,,,59,146092,20,Female,1,2024/02/15_12:21:57,YZ,None,
,,,,,,calibration,0,28,2,202,6,F,0,right,0.5574025899986736,1,0,,,,,,,,,,,,,,,,,,,,,1,,,,,,,,,,,,,,,,,,,,,,,,,,,,,,,,,,,,,,,,,,,,,,59,146092,20,Female,1,2024/02/15_12:21:57,YZ,None,
,,,,,,calibration,0,28,2,202,7,C,1,left,0.5798508419975406,1,0,,,,,,,,,,,,,,,,,,,,,1,,,,,,,,,,,,,,,,,,,,,,,,,,,,,,,,,,,,,,,,,,,,,,59,146092,20,Female,1,2024/02/15_12:21:57,YZ,None,
,,,,,,calibration,0,28,2,202,8,F,1,right,0.3198367010008951,0,0,,,,,,,,,,,,,,,,,,,,,1,,,,,,,,,,,,,,,,,,,,,,,,,,,,,,,,,,,,,,,,,,,,,,59,146092,20,Female,1,2024/02/15_12:21:57,YZ,None,
,,,,,,calibration,0,28,2,202,9,S,0,left,0.5611006869985431,0,0,,,,,,,,,,,,,,,,,,,,,1,,,,,,,,,,,,,,,,,,,,,,,,,,,,,,,,,,,,,,,,,,,,,,59,146092,20,Female,1,2024/02/15_12:21:57,YZ,None,
,,,,,,calibration,0,28,2,202,10,C,0,left,0.6947200709983008,0,0,,,,,,,,,,,,,,,,,,,,,1,,,,,,,,,,,,,,,,,,,,,,,,,,,,,,,,,,,,,,,,,,,,,,59,146092,20,Female,1,2024/02/15_12:21:57,YZ,None,
,,,,,,calibration,0,28,2,202,11,X,0,right,0.5575874249989283,1,0,,,,,,,,,,,,,,,,,,,,,1,,,,,,,,,,,,,,,,,,,,,,,,,,,,,,,,,,,,,,,,,,,,,,59,146092,20,Female,1,2024/02/15_12:21:57,YZ,None,
,,,,,,calibration,0,28,2,202,12,C,1,left,0.4963799779980036,1,0,,,,,,,,,,,,,,,,,,,,,1,,,,,,,,,,,,,,,,,,,,,,,,,,,,,,,,,,,,,,,,,,,,,,59,146092,20,Female,1,2024/02/15_12:21:57,YZ,None,
,,,,,,calibration,0,28,2,202,13,F,0,right,0.46585253899684176,1,0,,,,,,,,,,,,,,,,,,,,,1,,,,,,,,,,,,,,,,,,,,,,,,,,,,,,,,,,,,,,,,,,,,,,59,146092,20,Female,1,2024/02/15_12:21:57,YZ,None,
,,,,,,calibration,0,28,2,202,14,S,0,right,0.6259660010000516,1,0,,,,,,,,,,,,,,,,,,,,,1,,,,,,,,,,,,,,,,,,,,,,,,,,,,,,,,,,,,,,,,,,,,,,59,146092,20,Female,1,2024/02/15_12:21:57,YZ,None,
,,,,,,calibration,0,28,2,202,15,N,0,left,0.4229988039987802,0,0,,,,,,,,,,,,,,,,,,,,,1,,,,,,,,,,,,,,,,,,,,,,,,,,,,,,,,,,,,,,,,,,,,,,59,146092,20,Female,1,2024/02/15_12:21:57,YZ,None,
,,,,,,calibration,0,28,2,202,16,X,0,right,0.690079831998446,1,0,,,,,,,,,,,,,,,,,,,,,1,,,,,,,,,,,,,,,,,,,,,,,,,,,,,,,,,,,,,,,,,,,,,,59,146092,20,Female,1,2024/02/15_12:21:57,YZ,None,
,,,,,,calibration,0,28,2,202,17,F,0,right,0.6234710570024617,1,0,,,,,,,,,,,,,,,,,,,,,1,,,,,,,,,,,,,,,,,,,,,,,,,,,,,,,,,,,,,,,,,,,,,,59,146092,20,Female,1,2024/02/15_12:21:57,YZ,None,
,,,,,,calibration,0,28,2,202,18,X,1,left,0.5691973110006074,1,0,,,,,,,,,,,,,,,,,,,,,1,,,,,,,,,,,,,,,,,,,,,,,,,,,,,,,,,,,,,,,,,,,,,,59,146092,20,Female,1,2024/02/15_12:21:57,YZ,None,
,,,,,,calibration,0,28,2,202,19,F,1,left,0.49815667199800373,1,0,,,,,,,,,,,,,,,,,,,,,1,,,,,,,,,,,,,,,,,,,,,,,,,,,,,,,,,,,,,,,,,,,,,,59,146092,20,Female,1,2024/02/15_12:21:57,YZ,None,
,,,,,,calibration,0,28,2,202,20,Q,0,right,0.4320329549991584,1,0,,,,,,,,,,,,,,,,,,,,,1,,,,,,,,,,,,,,,,,,,,,,,,,,,,,,,,,,,,,,,,,,,,,,59,146092,20,Female,1,2024/02/15_12:21:57,YZ,None,
,,,,,,calibration,0,28,2,202,21,V,0,right,0.5431752139993478,1,0,,,,,,,,,,,,,,,,,,,,,1,,,,,,,,,,,,,,,,,,,,,,,,,,,,,,,,,,,,,,,,,,,,,,59,146092,20,Female,1,2024/02/15_12:21:57,YZ,None,
,,,,,,calibration,0,28,2,202,,,,,,,,0.875,0.8333333333333334,0.2,0.8,0.0,0.8,0.5021574708563483,5,3,0,0,0,12,17,6,15,0,,,,1,,,,,,,,,,,,,,,,,,,,,,,,,,,,,,,,,,,,,,,,,,,,,,59,146092,20,Female,1,2024/02/15_12:21:57,YZ,None,
,,,,,,Calibration,0,,2,202,,,,,,,,,,,,,,,,,,,,,,,,,10,,,1,,,,,,,,,,,,,,,,,,,,,,,,,,,,,,,,,,,,,,,,,,,,,,59,146092,20,Female,1,2024/02/15_12:21:57,YZ,None,
,,,,,,calibration,0,11,2,159,1,Q,0,right,0.31379157899937127,1,0,,,,,,,,,,,,,,,,,,,,,1,,,,,,,,,,,,,,,,,,,,,,,,,,,,,,,,,,,,,,,,,,,,,,59,146092,20,Female,1,2024/02/15_12:21:57,YZ,None,
,,,,,,calibration,0,11,2,159,2,S,0,right,0.3552896660003171,1,0,,,,,,,,,,,,,,,,,,,,,1,,,,,,,,,,,,,,,,,,,,,,,,,,,,,,,,,,,,,,,,,,,,,,59,146092,20,Female,1,2024/02/15_12:21:57,YZ,None,
,,,,,,calibration,0,11,2,159,3,F,0,left,0.46087452199935797,0,0,,,,,,,,,,,,,,,,,,,,,1,,,,,,,,,,,,,,,,,,,,,,,,,,,,,,,,,,,,,,,,,,,,,,59,146092,20,Female,1,2024/02/15_12:21:57,YZ,None,
,,,,,,calibration,0,11,2,159,4,V,0,right,0.524253272000351,1,0,,,,,,,,,,,,,,,,,,,,,1,,,,,,,,,,,,,,,,,,,,,,,,,,,,,,,,,,,,,,,,,,,,,,59,146092,20,Female,1,2024/02/15_12:21:57,YZ,None,
,,,,,,calibration,0,11,2,159,5,Q,0,right,0.4637103150016628,1,0,,,,,,,,,,,,,,,,,,,,,1,,,,,,,,,,,,,,,,,,,,,,,,,,,,,,,,,,,,,,,,,,,,,,59,146092,20,Female,1,2024/02/15_12:21:57,YZ,None,
,,,,,,calibration,0,11,2,159,6,S,0,right,0.5570985269987432,1,0,,,,,,,,,,,,,,,,,,,,,1,,,,,,,,,,,,,,,,,,,,,,,,,,,,,,,,,,,,,,,,,,,,,,59,146092,20,Female,1,2024/02/15_12:21:57,YZ,None,
,,,,,,calibration,0,11,2,159,7,J,0,right,0.573634756001411,1,0,,,,,,,,,,,,,,,,,,,,,1,,,,,,,,,,,,,,,,,,,,,,,,,,,,,,,,,,,,,,,,,,,,,,59,146092,20,Female,1,2024/02/15_12:21:57,YZ,None,
,,,,,,calibration,0,11,2,159,8,S,1,left,0.5406704650013126,1,0,,,,,,,,,,,,,,,,,,,,,1,,,,,,,,,,,,,,,,,,,,,,,,,,,,,,,,,,,,,,,,,,,,,,59,146092,20,Female,1,2024/02/15_12:21:57,YZ,None,
,,,,,,calibration,0,11,2,159,9,Q,0,right,0.39145695100160083,1,0,,,,,,,,,,,,,,,,,,,,,1,,,,,,,,,,,,,,,,,,,,,,,,,,,,,,,,,,,,,,,,,,,,,,59,146092,20,Female,1,2024/02/15_12:21:57,YZ,None,
,,,,,,calibration,0,11,2,159,10,S,1,left,0.7125246549985604,1,0,,,,,,,,,,,,,,,,,,,,,1,,,,,,,,,,,,,,,,,,,,,,,,,,,,,,,,,,,,,,,,,,,,,,59,146092,20,Female,1,2024/02/15_12:21:57,YZ,None,
,,,,,,calibration,0,11,2,159,11,V,0,right,0.36390956900140736,1,0,,,,,,,,,,,,,,,,,,,,,1,,,,,,,,,,,,,,,,,,,,,,,,,,,,,,,,,,,,,,,,,,,,,,59,146092,20,Female,1,2024/02/15_12:21:57,YZ,None,
,,,,,,calibration,0,11,2,159,12,S,1,left,0.48286011299933307,1,0,,,,,,,,,,,,,,,,,,,,,1,,,,,,,,,,,,,,,,,,,,,,,,,,,,,,,,,,,,,,,,,,,,,,59,146092,20,Female,1,2024/02/15_12:21:57,YZ,None,
,,,,,,calibration,0,11,2,159,13,F,0,right,0.3926813959988067,1,0,,,,,,,,,,,,,,,,,,,,,1,,,,,,,,,,,,,,,,,,,,,,,,,,,,,,,,,,,,,,,,,,,,,,59,146092,20,Female,1,2024/02/15_12:21:57,YZ,None,
,,,,,,calibration,0,11,2,159,14,S,1,left,0.4574787009987631,1,0,,,,,,,,,,,,,,,,,,,,,1,,,,,,,,,,,,,,,,,,,,,,,,,,,,,,,,,,,,,,,,,,,,,,59,146092,20,Female,1,2024/02/15_12:21:57,YZ,None,
,,,,,,calibration,0,11,2,159,15,C,0,right,0.22514649699951406,1,0,,,,,,,,,,,,,,,,,,,,,1,,,,,,,,,,,,,,,,,,,,,,,,,,,,,,,,,,,,,,,,,,,,,,59,146092,20,Female,1,2024/02/15_12:21:57,YZ,None,
,,,,,,calibration,0,11,2,159,16,V,0,right,0.5240428690012777,1,0,,,,,,,,,,,,,,,,,,,,,1,,,,,,,,,,,,,,,,,,,,,,,,,,,,,,,,,,,,,,,,,,,,,,59,146092,20,Female,1,2024/02/15_12:21:57,YZ,None,
,,,,,,calibration,0,11,2,159,17,C,1,right,0.42161854000005405,0,0,,,,,,,,,,,,,,,,,,,,,1,,,,,,,,,,,,,,,,,,,,,,,,,,,,,,,,,,,,,,,,,,,,,,59,146092,20,Female,1,2024/02/15_12:21:57,YZ,None,
,,,,,,calibration,0,11,2,159,18,Q,0,right,0.4573358969973924,1,0,,,,,,,,,,,,,,,,,,,,,1,,,,,,,,,,,,,,,,,,,,,,,,,,,,,,,,,,,,,,,,,,,,,,59,146092,20,Female,1,2024/02/15_12:21:57,YZ,None,
,,,,,,calibration,0,11,2,159,19,C,1,left,0.5309318809995602,1,0,,,,,,,,,,,,,,,,,,,,,1,,,,,,,,,,,,,,,,,,,,,,,,,,,,,,,,,,,,,,,,,,,,,,59,146092,20,Female,1,2024/02/15_12:21:57,YZ,None,
,,,,,,calibration,0,11,2,159,20,V,0,right,0.26977353500114987,1,0,,,,,,,,,,,,,,,,,,,,,1,,,,,,,,,,,,,,,,,,,,,,,,,,,,,,,,,,,,,,,,,,,,,,59,146092,20,Female,1,2024/02/15_12:21:57,YZ,None,
,,,,,,calibration,0,11,2,159,21,J,0,left,0.3767688959997031,0,0,,,,,,,,,,,,,,,,,,,,,1,,,,,,,,,,,,,,,,,,,,,,,,,,,,,,,,,,,,,,,,,,,,,,59,146092,20,Female,1,2024/02/15_12:21:57,YZ,None,
,,,,,,calibration,0,11,2,159,22,N,0,right,0.32057267599884653,1,0,,,,,,,,,,,,,,,,,,,,,1,,,,,,,,,,,,,,,,,,,,,,,,,,,,,,,,,,,,,,,,,,,,,,59,146092,20,Female,1,2024/02/15_12:21:57,YZ,None,
,,,,,,calibration,0,11,2,159,,,,,,,,0.90625,0.8333333333333334,0.125,0.875,0.0,0.875,0.4416556944544771,5,2,0,0,0,14,19,6,16,0,,,,1,,,,,,,,,,,,,,,,,,,,,,,,,,,,,,,,,,,,,,,,,,,,,,59,146092,20,Female,1,2024/02/15_12:21:57,YZ,None,
,,,,,,Calibration,0,,2,159,,,,,,,,,,,,,,,,,,,,,,,,,11,,,1,,,,,,,,,,,,,,,,,,,,,,,,,,,,,,,,,,,,,,,,,,,,,,59,146092,20,Female,1,2024/02/15_12:21:57,YZ,None,
,,,,,,calibration,0,32,2,120,1,Q,0,right,0.26426667100167833,1,0,,,,,,,,,,,,,,,,,,,,,1,,,,,,,,,,,,,,,,,,,,,,,,,,,,,,,,,,,,,,,,,,,,,,59,146092,20,Female,1,2024/02/15_12:21:57,YZ,None,
,,,,,,calibration,0,32,2,120,2,Q,0,right,0.19254793400250492,1,0,,,,,,,,,,,,,,,,,,,,,1,,,,,,,,,,,,,,,,,,,,,,,,,,,,,,,,,,,,,,,,,,,,,,59,146092,20,Female,1,2024/02/15_12:21:57,YZ,None,
,,,,,,calibration,0,32,2,120,3,Q,1,left,0.34560334799971315,1,0,,,,,,,,,,,,,,,,,,,,,1,,,,,,,,,,,,,,,,,,,,,,,,,,,,,,,,,,,,,,,,,,,,,,59,146092,20,Female,1,2024/02/15_12:21:57,YZ,None,
,,,,,,calibration,0,32,2,120,4,Q,1,left,0.5121068740008923,1,0,,,,,,,,,,,,,,,,,,,,,1,,,,,,,,,,,,,,,,,,,,,,,,,,,,,,,,,,,,,,,,,,,,,,59,146092,20,Female,1,2024/02/15_12:21:57,YZ,None,
,,,,,,calibration,0,32,2,120,5,S,0,right,0.5914485590001277,1,0,,,,,,,,,,,,,,,,,,,,,1,,,,,,,,,,,,,,,,,,,,,,,,,,,,,,,,,,,,,,,,,,,,,,59,146092,20,Female,1,2024/02/15_12:21:57,YZ,None,
,,,,,,calibration,0,32,2,120,6,Q,1,left,0.4580035390026751,1,0,,,,,,,,,,,,,,,,,,,,,1,,,,,,,,,,,,,,,,,,,,,,,,,,,,,,,,,,,,,,,,,,,,,,59,146092,20,Female,1,2024/02/15_12:21:57,YZ,None,
,,,,,,calibration,0,32,2,120,7,J,0,right,0.45266460700077005,1,0,,,,,,,,,,,,,,,,,,,,,1,,,,,,,,,,,,,,,,,,,,,,,,,,,,,,,,,,,,,,,,,,,,,,59,146092,20,Female,1,2024/02/15_12:21:57,YZ,None,
,,,,,,calibration,0,32,2,120,8,X,0,right,0.40767020500061335,1,0,,,,,,,,,,,,,,,,,,,,,1,,,,,,,,,,,,,,,,,,,,,,,,,,,,,,,,,,,,,,,,,,,,,,59,146092,20,Female,1,2024/02/15_12:21:57,YZ,None,
,,,,,,calibration,0,32,2,120,9,N,0,right,0.5124839270029042,1,0,,,,,,,,,,,,,,,,,,,,,1,,,,,,,,,,,,,,,,,,,,,,,,,,,,,,,,,,,,,,,,,,,,,,59,146092,20,Female,1,2024/02/15_12:21:57,YZ,None,
,,,,,,calibration,0,32,2,120,10,J,0,left,0.42946477700024843,0,0,,,,,,,,,,,,,,,,,,,,,1,,,,,,,,,,,,,,,,,,,,,,,,,,,,,,,,,,,,,,,,,,,,,,59,146092,20,Female,1,2024/02/15_12:21:57,YZ,None,
,,,,,,calibration,0,32,2,120,11,S,0,right,0.3803331130002334,1,0,,,,,,,,,,,,,,,,,,,,,1,,,,,,,,,,,,,,,,,,,,,,,,,,,,,,,,,,,,,,,,,,,,,,59,146092,20,Female,1,2024/02/15_12:21:57,YZ,None,
,,,,,,calibration,0,32,2,120,12,Q,0,right,0.26525443799982895,1,0,,,,,,,,,,,,,,,,,,,,,1,,,,,,,,,,,,,,,,,,,,,,,,,,,,,,,,,,,,,,,,,,,,,,59,146092,20,Female,1,2024/02/15_12:21:57,YZ,None,
,,,,,,calibration,0,32,2,120,13,C,0,right,0.1769037309968553,1,0,,,,,,,,,,,,,,,,,,,,,1,,,,,,,,,,,,,,,,,,,,,,,,,,,,,,,,,,,,,,,,,,,,,,59,146092,20,Female,1,2024/02/15_12:21:57,YZ,None,
,,,,,,calibration,0,32,2,120,14,Q,1,left,0.4606266640003014,1,0,,,,,,,,,,,,,,,,,,,,,1,,,,,,,,,,,,,,,,,,,,,,,,,,,,,,,,,,,,,,,,,,,,,,59,146092,20,Female,1,2024/02/15_12:21:57,YZ,None,
,,,,,,calibration,0,32,2,120,15,N,0,right,0.3242484209986287,1,0,,,,,,,,,,,,,,,,,,,,,1,,,,,,,,,,,,,,,,,,,,,,,,,,,,,,,,,,,,,,,,,,,,,,59,146092,20,Female,1,2024/02/15_12:21:57,YZ,None,
,,,,,,calibration,0,32,2,120,16,J,0,right,0.4581278050027322,1,0,,,,,,,,,,,,,,,,,,,,,1,,,,,,,,,,,,,,,,,,,,,,,,,,,,,,,,,,,,,,,,,,,,,,59,146092,20,Female,1,2024/02/15_12:21:57,YZ,None,
,,,,,,calibration,0,32,2,120,17,C,0,right,0.512283757001569,1,0,,,,,,,,,,,,,,,,,,,,,1,,,,,,,,,,,,,,,,,,,,,,,,,,,,,,,,,,,,,,,,,,,,,,59,146092,20,Female,1,2024/02/15_12:21:57,YZ,None,
,,,,,,calibration,0,32,2,120,18,S,0,right,0.4475563180021709,1,0,,,,,,,,,,,,,,,,,,,,,1,,,,,,,,,,,,,,,,,,,,,,,,,,,,,,,,,,,,,,,,,,,,,,59,146092,20,Female,1,2024/02/15_12:21:57,YZ,None,
,,,,,,calibration,0,32,2,120,19,V,0,right,0.4452158029998827,1,0,,,,,,,,,,,,,,,,,,,,,1,,,,,,,,,,,,,,,,,,,,,,,,,,,,,,,,,,,,,,,,,,,,,,59,146092,20,Female,1,2024/02/15_12:21:57,YZ,None,
,,,,,,calibration,0,32,2,120,20,Q,0,left,0.427651750997029,0,0,,,,,,,,,,,,,,,,,,,,,1,,,,,,,,,,,,,,,,,,,,,,,,,,,,,,,,,,,,,,,,,,,,,,59,146092,20,Female,1,2024/02/15_12:21:57,YZ,None,
,,,,,,calibration,0,32,2,120,21,V,1,right,0.4338097600011679,0,0,,,,,,,,,,,,,,,,,,,,,1,,,,,,,,,,,,,,,,,,,,,,,,,,,,,,,,,,,,,,,,,,,,,,59,146092,20,Female,1,2024/02/15_12:21:57,YZ,None,
,,,,,,calibration,0,32,2,120,22,X,0,right,0.44211332199847675,1,0,,,,,,,,,,,,,,,,,,,,,1,,,,,,,,,,,,,,,,,,,,,,,,,,,,,,,,,,,,,,,,,,,,,,59,146092,20,Female,1,2024/02/15_12:21:57,YZ,None,
,,,,,,calibration,0,32,2,120,23,V,1,left,0.4449773720007215,1,0,,,,,,,,,,,,,,,,,,,,,1,,,,,,,,,,,,,,,,,,,,,,,,,,,,,,,,,,,,,,,,,,,,,,59,146092,20,Female,1,2024/02/15_12:21:57,YZ,None,
,,,,,,calibration,0,32,2,120,,,,,,,,0.9093137254901961,0.8333333333333334,0.11764705882352941,0.8823529411764706,0.0,0.8823529411764706,0.4080592476526837,5,2,0,0,0,15,20,6,17,0,,,,1,,,,,,,,,,,,,,,,,,,,,,,,,,,,,,,,,,,,,,,,,,,,,,59,146092,20,Female,1,2024/02/15_12:21:57,YZ,None,
,,,,,,Calibration,0,,2,120,,,,,,,,,,,,,,,,,,,,,,,,,12,,,1,,,,,,,,,,,,,,,,,,,,,,,,,,,,,,,,,,,,,,,,,,,,,,59,146092,20,Female,1,2024/02/15_12:21:57,YZ,None,
,,,,,,calibration,0,2,2,83,1,F,0,right,0.6870567209989531,1,0,,,,,,,,,,,,,,,,,,,,,1,,,,,,,,,,,,,,,,,,,,,,,,,,,,,,,,,,,,,,,,,,,,,,59,146092,20,Female,1,2024/02/15_12:21:57,YZ,None,
,,,,,,calibration,0,2,2,83,2,S,0,right,0.25103214499904425,1,0,,,,,,,,,,,,,,,,,,,,,1,,,,,,,,,,,,,,,,,,,,,,,,,,,,,,,,,,,,,,,,,,,,,,59,146092,20,Female,1,2024/02/15_12:21:57,YZ,None,
,,,,,,calibration,0,2,2,83,3,C,0,left,0.39219674799824134,0,0,,,,,,,,,,,,,,,,,,,,,1,,,,,,,,,,,,,,,,,,,,,,,,,,,,,,,,,,,,,,,,,,,,,,59,146092,20,Female,1,2024/02/15_12:21:57,YZ,None,
,,,,,,calibration,0,2,2,83,4,S,1,right,0.4715734670025995,0,0,,,,,,,,,,,,,,,,,,,,,1,,,,,,,,,,,,,,,,,,,,,,,,,,,,,,,,,,,,,,,,,,,,,,59,146092,20,Female,1,2024/02/15_12:21:57,YZ,None,
,,,,,,calibration,0,2,2,83,5,C,1,left,0.6960432539999601,1,0,,,,,,,,,,,,,,,,,,,,,1,,,,,,,,,,,,,,,,,,,,,,,,,,,,,,,,,,,,,,,,,,,,,,59,146092,20,Female,1,2024/02/15_12:21:57,YZ,None,
,,,,,,calibration,0,2,2,83,6,V,0,right,0.4144266549992608,1,0,,,,,,,,,,,,,,,,,,,,,1,,,,,,,,,,,,,,,,,,,,,,,,,,,,,,,,,,,,,,,,,,,,,,59,146092,20,Female,1,2024/02/15_12:21:57,YZ,None,
,,,,,,calibration,0,2,2,83,7,C,1,right,0.3781963649998943,0,0,,,,,,,,,,,,,,,,,,,,,1,,,,,,,,,,,,,,,,,,,,,,,,,,,,,,,,,,,,,,,,,,,,,,59,146092,20,Female,1,2024/02/15_12:21:57,YZ,None,
,,,,,,calibration,0,2,2,83,8,F,0,right,0.6421439689984254,1,0,,,,,,,,,,,,,,,,,,,,,1,,,,,,,,,,,,,,,,,,,,,,,,,,,,,,,,,,,,,,,,,,,,,,59,146092,20,Female,1,2024/02/15_12:21:57,YZ,None,
,,,,,,calibration,0,2,2,83,9,V,0,right,0.34336471899950993,1,0,,,,,,,,,,,,,,,,,,,,,1,,,,,,,,,,,,,,,,,,,,,,,,,,,,,,,,,,,,,,,,,,,,,,59,146092,20,Female,1,2024/02/15_12:21:57,YZ,None,
,,,,,,calibration,0,2,2,83,10,J,0,right,0.4765688829975261,1,0,,,,,,,,,,,,,,,,,,,,,1,,,,,,,,,,,,,,,,,,,,,,,,,,,,,,,,,,,,,,,,,,,,,,59,146092,20,Female,1,2024/02/15_12:21:57,YZ,None,
,,,,,,calibration,0,2,2,83,11,V,1,left,0.5812719169989577,1,0,,,,,,,,,,,,,,,,,,,,,1,,,,,,,,,,,,,,,,,,,,,,,,,,,,,,,,,,,,,,,,,,,,,,59,146092,20,Female,1,2024/02/15_12:21:57,YZ,None,
,,,,,,calibration,0,2,2,83,12,J,1,right,0.4467422970010375,0,0,,,,,,,,,,,,,,,,,,,,,1,,,,,,,,,,,,,,,,,,,,,,,,,,,,,,,,,,,,,,,,,,,,,,59,146092,20,Female,1,2024/02/15_12:21:57,YZ,None,
,,,,,,calibration,0,2,2,83,13,C,0,right,0.42049741899973014,1,0,,,,,,,,,,,,,,,,,,,,,1,,,,,,,,,,,,,,,,,,,,,,,,,,,,,,,,,,,,,,,,,,,,,,59,146092,20,Female,1,2024/02/15_12:21:57,YZ,None,
,,,,,,calibration,0,2,2,83,14,F,0,right,0.4171981479994429,1,0,,,,,,,,,,,,,,,,,,,,,1,,,,,,,,,,,,,,,,,,,,,,,,,,,,,,,,,,,,,,,,,,,,,,59,146092,20,Female,1,2024/02/15_12:21:57,YZ,None,
,,,,,,calibration,0,2,2,83,15,Q,0,right,0.5326905490001081,1,0,,,,,,,,,,,,,,,,,,,,,1,,,,,,,,,,,,,,,,,,,,,,,,,,,,,,,,,,,,,,,,,,,,,,59,146092,20,Female,1,2024/02/15_12:21:57,YZ,None,
,,,,,,calibration,0,2,2,83,16,V,0,right,0.6693729289982002,1,0,,,,,,,,,,,,,,,,,,,,,1,,,,,,,,,,,,,,,,,,,,,,,,,,,,,,,,,,,,,,,,,,,,,,59,146092,20,Female,1,2024/02/15_12:21:57,YZ,None,
,,,,,,calibration,0,2,2,83,17,Q,1,right,0.3060087459998613,0,0,,,,,,,,,,,,,,,,,,,,,1,,,,,,,,,,,,,,,,,,,,,,,,,,,,,,,,,,,,,,,,,,,,,,59,146092,20,Female,1,2024/02/15_12:21:57,YZ,None,
,,,,,,calibration,0,2,2,83,18,V,1,left,0.41302502899998217,1,0,,,,,,,,,,,,,,,,,,,,,1,,,,,,,,,,,,,,,,,,,,,,,,,,,,,,,,,,,,,,,,,,,,,,59,146092,20,Female,1,2024/02/15_12:21:57,YZ,None,
,,,,,,calibration,0,2,2,83,19,C,0,right,0.1809406879983726,1,0,,,,,,,,,,,,,,,,,,,,,1,,,,,,,,,,,,,,,,,,,,,,,,,,,,,,,,,,,,,,,,,,,,,,59,146092,20,Female,1,2024/02/15_12:21:57,YZ,None,
,,,,,,calibration,0,2,2,83,20,S,0,left,0.2018155849982577,0,0,,,,,,,,,,,,,,,,,,,,,1,,,,,,,,,,,,,,,,,,,,,,,,,,,,,,,,,,,,,,,,,,,,,,59,146092,20,Female,1,2024/02/15_12:21:57,YZ,None,
,,,,,,calibration,0,2,2,83,21,F,0,right,0.18895040300049004,1,0,,,,,,,,,,,,,,,,,,,,,1,,,,,,,,,,,,,,,,,,,,,,,,,,,,,,,,,,,,,,,,,,,,,,59,146092,20,Female,1,2024/02/15_12:21:57,YZ,None,
,,,,,,calibration,0,2,2,83,22,C,0,right,0.23219990500001586,1,0,,,,,,,,,,,,,,,,,,,,,1,,,,,,,,,,,,,,,,,,,,,,,,,,,,,,,,,,,,,,,,,,,,,,59,146092,20,Female,1,2024/02/15_12:21:57,YZ,None,
,,,,,,calibration,0,2,2,83,23,Q,0,right,0.19482208299814374,1,0,,,,,,,,,,,,,,,,,,,,,1,,,,,,,,,,,,,,,,,,,,,,,,,,,,,,,,,,,,,,,,,,,,,,59,146092,20,Female,1,2024/02/15_12:21:57,YZ,None,
,,,,,,calibration,0,2,2,83,24,C,1,right,0.23256170699823997,0,0,,,,,,,,,,,,,,,,,,,,,1,,,,,,,,,,,,,,,,,,,,,,,,,,,,,,,,,,,,,,,,,,,,,,59,146092,20,Female,1,2024/02/15_12:21:57,YZ,None,
,,,,,,calibration,0,2,2,83,,,,,,,,0.7291666666666666,0.375,0.125,0.875,0.0,0.875,0.4071125137910106,3,2,0,0,0,14,17,8,16,0,,,,1,,,,,,,,,,,,,,,,,,,,,,,,,,,,,,,,,,,,,,,,,,,,,,59,146092,20,Female,1,2024/02/15_12:21:57,YZ,None,
,,,,,,Calibration,0,,2,83,,,,,,,,,,,,,,,,,,,,,,,,,13,,,1,,,,,,,,,,,,,,,,,,,,,,,,,,,,,,,,,,,,,,,,,,,,,,59,146092,20,Female,1,2024/02/15_12:21:57,YZ,None,
,,,,,,calibration,0,30,2,120,1,Q,0,right,0.5889400870000827,1,0,,,,,,,,,,,,,,,,,,,,,1,,,,,,,,,,,,,,,,,,,,,,,,,,,,,,,,,,,,,,,,,,,,,,59,146092,20,Female,1,2024/02/15_12:21:57,YZ,None,
,,,,,,calibration,0,30,2,120,2,C,0,right,0.19955889599805232,1,0,,,,,,,,,,,,,,,,,,,,,1,,,,,,,,,,,,,,,,,,,,,,,,,,,,,,,,,,,,,,,,,,,,,,59,146092,20,Female,1,2024/02/15_12:21:57,YZ,None,
,,,,,,calibration,0,30,2,120,3,Q,1,left,0.39349209899955895,1,0,,,,,,,,,,,,,,,,,,,,,1,,,,,,,,,,,,,,,,,,,,,,,,,,,,,,,,,,,,,,,,,,,,,,59,146092,20,Female,1,2024/02/15_12:21:57,YZ,None,
,,,,,,calibration,0,30,2,120,4,C,1,right,0.47170431799895596,0,0,,,,,,,,,,,,,,,,,,,,,1,,,,,,,,,,,,,,,,,,,,,,,,,,,,,,,,,,,,,,,,,,,,,,59,146092,20,Female,1,2024/02/15_12:21:57,YZ,None,
,,,,,,calibration,0,30,2,120,5,X,0,right,0.547040219000337,1,0,,,,,,,,,,,,,,,,,,,,,1,,,,,,,,,,,,,,,,,,,,,,,,,,,,,,,,,,,,,,,,,,,,,,59,146092,20,Female,1,2024/02/15_12:21:57,YZ,None,
,,,,,,calibration,0,30,2,120,6,C,1,left,0.4265641259989934,1,0,,,,,,,,,,,,,,,,,,,,,1,,,,,,,,,,,,,,,,,,,,,,,,,,,,,,,,,,,,,,,,,,,,,,59,146092,20,Female,1,2024/02/15_12:21:57,YZ,None,
,,,,,,calibration,0,30,2,120,7,V,0,left,0.5338726970003336,0,0,,,,,,,,,,,,,,,,,,,,,1,,,,,,,,,,,,,,,,,,,,,,,,,,,,,,,,,,,,,,,,,,,,,,59,146092,20,Female,1,2024/02/15_12:21:57,YZ,None,
,,,,,,calibration,0,30,2,120,8,N,0,right,0.37702924699988216,1,0,,,,,,,,,,,,,,,,,,,,,1,,,,,,,,,,,,,,,,,,,,,,,,,,,,,,,,,,,,,,,,,,,,,,59,146092,20,Female,1,2024/02/15_12:21:57,YZ,None,
,,,,,,calibration,0,30,2,120,9,F,0,right,0.35387047399854055,1,0,,,,,,,,,,,,,,,,,,,,,1,,,,,,,,,,,,,,,,,,,,,,,,,,,,,,,,,,,,,,,,,,,,,,59,146092,20,Female,1,2024/02/15_12:21:57,YZ,None,
,,,,,,calibration,0,30,2,120,10,J,0,right,0.5594144409988075,1,0,,,,,,,,,,,,,,,,,,,,,1,,,,,,,,,,,,,,,,,,,,,,,,,,,,,,,,,,,,,,,,,,,,,,59,146092,20,Female,1,2024/02/15_12:21:57,YZ,None,
,,,,,,calibration,0,30,2,120,11,Q,0,right,0.2514083850001043,1,0,,,,,,,,,,,,,,,,,,,,,1,,,,,,,,,,,,,,,,,,,,,,,,,,,,,,,,,,,,,,,,,,,,,,59,146092,20,Female,1,2024/02/15_12:21:57,YZ,None,
,,,,,,calibration,0,30,2,120,12,V,0,right,0.2902312890000758,1,0,,,,,,,,,,,,,,,,,,,,,1,,,,,,,,,,,,,,,,,,,,,,,,,,,,,,,,,,,,,,,,,,,,,,59,146092,20,Female,1,2024/02/15_12:21:57,YZ,None,
,,,,,,calibration,0,30,2,120,13,Q,1,right,0.28935107000143034,0,0,,,,,,,,,,,,,,,,,,,,,1,,,,,,,,,,,,,,,,,,,,,,,,,,,,,,,,,,,,,,,,,,,,,,59,146092,20,Female,1,2024/02/15_12:21:57,YZ,None,
,,,,,,calibration,0,30,2,120,14,X,0,left,0.0,0,0,,,,,,,,,,,,,,,,,,,,,1,,,,,,,,,,,,,,,,,,,,,,,,,,,,,,,,,,,,,,,,,,,,,,59,146092,20,Female,1,2024/02/15_12:21:57,YZ,None,
,,,,,,calibration,0,30,2,120,15,F,0,left,nan,0,1,,,,,,,,,,,,,,,,,,,,,1,,,,,,,,,,,,,,,,,,,,,,,,,,,,,,,,,,,,,,,,,,,,,,59,146092,20,Female,1,2024/02/15_12:21:57,YZ,None,
,,,,,,calibration,0,30,2,120,16,N,0,right,0.3710921559977578,1,0,,,,,,,,,,,,,,,,,,,,,1,,,,,,,,,,,,,,,,,,,,,,,,,,,,,,,,,,,,,,,,,,,,,,59,146092,20,Female,1,2024/02/15_12:21:57,YZ,None,
,,,,,,calibration,0,30,2,120,17,J,0,right,0.2962641039994196,1,0,,,,,,,,,,,,,,,,,,,,,1,,,,,,,,,,,,,,,,,,,,,,,,,,,,,,,,,,,,,,,,,,,,,,59,146092,20,Female,1,2024/02/15_12:21:57,YZ,None,
,,,,,,calibration,0,30,2,120,18,V,0,right,0.5904695749995881,1,0,,,,,,,,,,,,,,,,,,,,,1,,,,,,,,,,,,,,,,,,,,,,,,,,,,,,,,,,,,,,,,,,,,,,59,146092,20,Female,1,2024/02/15_12:21:57,YZ,None,
,,,,,,calibration,0,30,2,120,19,X,0,right,0.21320842799832462,1,0,,,,,,,,,,,,,,,,,,,,,1,,,,,,,,,,,,,,,,,,,,,,,,,,,,,,,,,,,,,,,,,,,,,,59,146092,20,Female,1,2024/02/15_12:21:57,YZ,None,
,,,,,,calibration,0,30,2,120,20,S,0,right,0.25754172500091954,1,0,,,,,,,,,,,,,,,,,,,,,1,,,,,,,,,,,,,,,,,,,,,,,,,,,,,,,,,,,,,,,,,,,,,,59,146092,20,Female,1,2024/02/15_12:21:57,YZ,None,
,,,,,,calibration,0,30,2,120,21,F,0,right,0.20132838700010325,1,0,,,,,,,,,,,,,,,,,,,,,1,,,,,,,,,,,,,,,,,,,,,,,,,,,,,,,,,,,,,,,,,,,,,,59,146092,20,Female,1,2024/02/15_12:21:57,YZ,None,
,,,,,,calibration,0,30,2,120,22,S,1,right,0.22094195199679234,0,0,,,,,,,,,,,,,,,,,,,,,1,,,,,,,,,,,,,,,,,,,,,,,,,,,,,,,,,,,,,,,,,,,,,,59,146092,20,Female,1,2024/02/15_12:21:57,YZ,None,
,,,,,,calibration,0,30,2,120,23,F,1,left,0.6103863440002897,1,0,,,,,,,,,,,,,,,,,,,,,1,,,,,,,,,,,,,,,,,,,,,,,,,,,,,,,,,,,,,,,,,,,,,,59,146092,20,Female,1,2024/02/15_12:21:57,YZ,None,
,,,,,,calibration,0,30,2,120,,,,,,,,0.7867647058823529,0.5,0.11764705882352941,0.875,0.043478260869565216,0.8388746803069054,0.3656231826812886,3,2,0,1,1,14,17,6,17,0,,,,1,,,,,,,,,,,,,,,,,,,,,,,,,,,,,,,,,,,,,,,,,,,,,,59,146092,20,Female,1,2024/02/15_12:21:57,YZ,None,
,,,,,,Calibration,0,,2,120,,,,,,,,,,,,,,,,,,,,,,,,,14,,,1,,,,,,,,,,,,,,,,,,,,,,,,,,,,,,,,,,,,,,,,,,,,,,59,146092,20,Female,1,2024/02/15_12:21:57,YZ,None,
,,,,,,calibration,0,23,2,120,1,F,0,right,0.4564771240002301,1,0,,,,,,,,,,,,,,,,,,,,,1,,,,,,,,,,,,,,,,,,,,,,,,,,,,,,,,,,,,,,,,,,,,,,59,146092,20,Female,1,2024/02/15_12:21:57,YZ,None,
,,,,,,calibration,0,23,2,120,2,N,0,right,0.19208297200020752,1,0,,,,,,,,,,,,,,,,,,,,,1,,,,,,,,,,,,,,,,,,,,,,,,,,,,,,,,,,,,,,,,,,,,,,59,146092,20,Female,1,2024/02/15_12:21:57,YZ,None,
,,,,,,calibration,0,23,2,120,3,J,0,right,0.15676211599929957,1,0,,,,,,,,,,,,,,,,,,,,,1,,,,,,,,,,,,,,,,,,,,,,,,,,,,,,,,,,,,,,,,,,,,,,59,146092,20,Female,1,2024/02/15_12:21:57,YZ,None,
,,,,,,calibration,0,23,2,120,4,S,0,right,0.30475055599890766,1,0,,,,,,,,,,,,,,,,,,,,,1,,,,,,,,,,,,,,,,,,,,,,,,,,,,,,,,,,,,,,,,,,,,,,59,146092,20,Female,1,2024/02/15_12:21:57,YZ,None,
,,,,,,calibration,0,23,2,120,5,V,0,right,0.22477882000021054,1,0,,,,,,,,,,,,,,,,,,,,,1,,,,,,,,,,,,,,,,,,,,,,,,,,,,,,,,,,,,,,,,,,,,,,59,146092,20,Female,1,2024/02/15_12:21:57,YZ,None,
,,,,,,calibration,0,23,2,120,6,J,0,right,0.20859820999976364,1,0,,,,,,,,,,,,,,,,,,,,,1,,,,,,,,,,,,,,,,,,,,,,,,,,,,,,,,,,,,,,,,,,,,,,59,146092,20,Female,1,2024/02/15_12:21:57,YZ,None,
,,,,,,calibration,0,23,2,120,7,C,0,right,0.21703225199962617,1,0,,,,,,,,,,,,,,,,,,,,,1,,,,,,,,,,,,,,,,,,,,,,,,,,,,,,,,,,,,,,,,,,,,,,59,146092,20,Female,1,2024/02/15_12:21:57,YZ,None,
,,,,,,calibration,0,23,2,120,8,F,0,right,0.29555111700028647,1,0,,,,,,,,,,,,,,,,,,,,,1,,,,,,,,,,,,,,,,,,,,,,,,,,,,,,,,,,,,,,,,,,,,,,59,146092,20,Female,1,2024/02/15_12:21:57,YZ,None,
,,,,,,calibration,0,23,2,120,9,C,1,left,0.41741034199731075,1,0,,,,,,,,,,,,,,,,,,,,,1,,,,,,,,,,,,,,,,,,,,,,,,,,,,,,,,,,,,,,,,,,,,,,59,146092,20,Female,1,2024/02/15_12:21:57,YZ,None,
,,,,,,calibration,0,23,2,120,10,J,0,right,0.19196939399989787,1,0,,,,,,,,,,,,,,,,,,,,,1,,,,,,,,,,,,,,,,,,,,,,,,,,,,,,,,,,,,,,,,,,,,,,59,146092,20,Female,1,2024/02/15_12:21:57,YZ,None,
,,,,,,calibration,0,23,2,120,11,C,1,right,0.1776264629988873,0,0,,,,,,,,,,,,,,,,,,,,,1,,,,,,,,,,,,,,,,,,,,,,,,,,,,,,,,,,,,,,,,,,,,,,59,146092,20,Female,1,2024/02/15_12:21:57,YZ,None,
,,,,,,calibration,0,23,2,120,12,J,1,right,0.32176716400135774,0,0,,,,,,,,,,,,,,,,,,,,,1,,,,,,,,,,,,,,,,,,,,,,,,,,,,,,,,,,,,,,,,,,,,,,59,146092,20,Female,1,2024/02/15_12:21:57,YZ,None,
,,,,,,calibration,0,23,2,120,13,S,0,left,0.23955460900106118,0,0,,,,,,,,,,,,,,,,,,,,,1,,,,,,,,,,,,,,,,,,,,,,,,,,,,,,,,,,,,,,,,,,,,,,59,146092,20,Female,1,2024/02/15_12:21:57,YZ,None,
,,,,,,calibration,0,23,2,120,14,J,1,right,0.18435550699723535,0,0,,,,,,,,,,,,,,,,,,,,,1,,,,,,,,,,,,,,,,,,,,,,,,,,,,,,,,,,,,,,,,,,,,,,59,146092,20,Female,1,2024/02/15_12:21:57,YZ,None,
,,,,,,calibration,0,23,2,120,15,C,0,left,0.464591643998574,0,0,,,,,,,,,,,,,,,,,,,,,1,,,,,,,,,,,,,,,,,,,,,,,,,,,,,,,,,,,,,,,,,,,,,,59,146092,20,Female,1,2024/02/15_12:21:57,YZ,None,
,,,,,,calibration,0,23,2,120,16,V,0,right,0.20967954500156338,1,0,,,,,,,,,,,,,,,,,,,,,1,,,,,,,,,,,,,,,,,,,,,,,,,,,,,,,,,,,,,,,,,,,,,,59,146092,20,Female,1,2024/02/15_12:21:57,YZ,None,
,,,,,,calibration,0,23,2,120,17,C,1,left,0.252336343000934,1,0,,,,,,,,,,,,,,,,,,,,,1,,,,,,,,,,,,,,,,,,,,,,,,,,,,,,,,,,,,,,,,,,,,,,59,146092,20,Female,1,2024/02/15_12:21:57,YZ,None,
,,,,,,calibration,0,23,2,120,18,S,0,right,0.1997339749977982,1,0,,,,,,,,,,,,,,,,,,,,,1,,,,,,,,,,,,,,,,,,,,,,,,,,,,,,,,,,,,,,,,,,,,,,59,146092,20,Female,1,2024/02/15_12:21:57,YZ,None,
,,,,,,calibration,0,23,2,120,19,J,0,right,0.16526838000208954,1,0,,,,,,,,,,,,,,,,,,,,,1,,,,,,,,,,,,,,,,,,,,,,,,,,,,,,,,,,,,,,,,,,,,,,59,146092,20,Female,1,2024/02/15_12:21:57,YZ,None,
,,,,,,calibration,0,23,2,120,20,S,1,right,0.19302440599858528,0,0,,,,,,,,,,,,,,,,,,,,,1,,,,,,,,,,,,,,,,,,,,,,,,,,,,,,,,,,,,,,,,,,,,,,59,146092,20,Female,1,2024/02/15_12:21:57,YZ,None,
,,,,,,calibration,0,23,2,120,21,V,0,right,0.16012374999991152,1,0,,,,,,,,,,,,,,,,,,,,,1,,,,,,,,,,,,,,,,,,,,,,,,,,,,,,,,,,,,,,,,,,,,,,59,146092,20,Female,1,2024/02/15_12:21:57,YZ,None,
,,,,,,calibration,0,23,2,120,22,Q,0,right,0.5241959279992443,1,0,,,,,,,,,,,,,,,,,,,,,1,,,,,,,,,,,,,,,,,,,,,,,,,,,,,,,,,,,,,,,,,,,,,,59,146092,20,Female,1,2024/02/15_12:21:57,YZ,None,
,,,,,,calibration,0,23,2,120,23,J,0,left,0.35627149599895347,0,0,,,,,,,,,,,,,,,,,,,,,1,,,,,,,,,,,,,,,,,,,,,,,,,,,,,,,,,,,,,,,,,,,,,,59,146092,20,Female,1,2024/02/15_12:21:57,YZ,None,
,,,,,,calibration,0,23,2,120,,,,,,,,0.6568627450980391,0.3333333333333333,0.17647058823529413,0.8235294117647058,0.0,0.8235294117647058,0.2658235701300842,2,3,0,0,0,14,16,6,17,0,,,,1,,,,,,,,,,,,,,,,,,,,,,,,,,,,,,,,,,,,,,,,,,,,,,59,146092,20,Female,1,2024/02/15_12:21:57,YZ,None,
,,,,,,Calibration,0,,2,120,,,,,,,,,,,,,,,,,,,,,,,,,15,,,1,,,,,,,,,,,,,,,,,,,,,,,,,,,,,,,,,,,,,,,,,,,,,,59,146092,20,Female,1,2024/02/15_12:21:57,YZ,None,
,,,,,,calibration,0,26,2,159,1,X,0,right,0.6037693430007494,1,0,,,,,,,,,,,,,,,,,,,,,1,,,,,,,,,,,,,,,,,,,,,,,,,,,,,,,,,,,,,,,,,,,,,,59,146092,20,Female,1,2024/02/15_12:21:57,YZ,None,
,,,,,,calibration,0,26,2,159,2,X,0,right,0.14905752499907976,1,0,,,,,,,,,,,,,,,,,,,,,1,,,,,,,,,,,,,,,,,,,,,,,,,,,,,,,,,,,,,,,,,,,,,,59,146092,20,Female,1,2024/02/15_12:21:57,YZ,None,
,,,,,,calibration,0,26,2,159,3,S,0,right,0.6230768280001939,1,0,,,,,,,,,,,,,,,,,,,,,1,,,,,,,,,,,,,,,,,,,,,,,,,,,,,,,,,,,,,,,,,,,,,,59,146092,20,Female,1,2024/02/15_12:21:57,YZ,None,
,,,,,,calibration,0,26,2,159,4,X,1,right,0.2743901770008961,0,0,,,,,,,,,,,,,,,,,,,,,1,,,,,,,,,,,,,,,,,,,,,,,,,,,,,,,,,,,,,,,,,,,,,,59,146092,20,Female,1,2024/02/15_12:21:57,YZ,None,
,,,,,,calibration,0,26,2,159,5,V,0,right,0.5466739479998068,1,0,,,,,,,,,,,,,,,,,,,,,1,,,,,,,,,,,,,,,,,,,,,,,,,,,,,,,,,,,,,,,,,,,,,,59,146092,20,Female,1,2024/02/15_12:21:57,YZ,None,
,,,,,,calibration,0,26,2,159,6,X,1,left,0.5587038389967347,1,0,,,,,,,,,,,,,,,,,,,,,1,,,,,,,,,,,,,,,,,,,,,,,,,,,,,,,,,,,,,,,,,,,,,,59,146092,20,Female,1,2024/02/15_12:21:57,YZ,None,
,,,,,,calibration,0,26,2,159,7,C,0,right,0.38779986900044605,1,0,,,,,,,,,,,,,,,,,,,,,1,,,,,,,,,,,,,,,,,,,,,,,,,,,,,,,,,,,,,,,,,,,,,,59,146092,20,Female,1,2024/02/15_12:21:57,YZ,None,
,,,,,,calibration,0,26,2,159,8,S,0,right,0.26059827399876667,1,0,,,,,,,,,,,,,,,,,,,,,1,,,,,,,,,,,,,,,,,,,,,,,,,,,,,,,,,,,,,,,,,,,,,,59,146092,20,Female,1,2024/02/15_12:21:57,YZ,None,
,,,,,,calibration,0,26,2,159,9,N,0,right,0.3807097770004475,1,0,,,,,,,,,,,,,,,,,,,,,1,,,,,,,,,,,,,,,,,,,,,,,,,,,,,,,,,,,,,,,,,,,,,,59,146092,20,Female,1,2024/02/15_12:21:57,YZ,None,
,,,,,,calibration,0,26,2,159,10,F,0,right,0.2754164799989667,1,0,,,,,,,,,,,,,,,,,,,,,1,,,,,,,,,,,,,,,,,,,,,,,,,,,,,,,,,,,,,,,,,,,,,,59,146092,20,Female,1,2024/02/15_12:21:57,YZ,None,
,,,,,,calibration,0,26,2,159,11,N,1,right,0.2843777769994631,0,0,,,,,,,,,,,,,,,,,,,,,1,,,,,,,,,,,,,,,,,,,,,,,,,,,,,,,,,,,,,,,,,,,,,,59,146092,20,Female,1,2024/02/15_12:21:57,YZ,None,
,,,,,,calibration,0,26,2,159,12,C,0,right,0.4397266150008363,1,0,,,,,,,,,,,,,,,,,,,,,1,,,,,,,,,,,,,,,,,,,,,,,,,,,,,,,,,,,,,,,,,,,,,,59,146092,20,Female,1,2024/02/15_12:21:57,YZ,None,
,,,,,,calibration,0,26,2,159,13,N,1,left,0.5248357599994051,1,0,,,,,,,,,,,,,,,,,,,,,1,,,,,,,,,,,,,,,,,,,,,,,,,,,,,,,,,,,,,,,,,,,,,,59,146092,20,Female,1,2024/02/15_12:21:57,YZ,None,
,,,,,,calibration,0,26,2,159,14,Q,0,right,0.2194207379980071,1,0,,,,,,,,,,,,,,,,,,,,,1,,,,,,,,,,,,,,,,,,,,,,,,,,,,,,,,,,,,,,,,,,,,,,59,146092,20,Female,1,2024/02/15_12:21:57,YZ,None,
,,,,,,calibration,0,26,2,159,15,V,0,right,0.21638050299952738,1,0,,,,,,,,,,,,,,,,,,,,,1,,,,,,,,,,,,,,,,,,,,,,,,,,,,,,,,,,,,,,,,,,,,,,59,146092,20,Female,1,2024/02/15_12:21:57,YZ,None,
,,,,,,calibration,0,26,2,159,16,Q,1,left,0.40524832400114974,1,0,,,,,,,,,,,,,,,,,,,,,1,,,,,,,,,,,,,,,,,,,,,,,,,,,,,,,,,,,,,,,,,,,,,,59,146092,20,Female,1,2024/02/15_12:21:57,YZ,None,
,,,,,,calibration,0,26,2,159,17,N,0,right,0.2412740979998489,1,0,,,,,,,,,,,,,,,,,,,,,1,,,,,,,,,,,,,,,,,,,,,,,,,,,,,,,,,,,,,,,,,,,,,,59,146092,20,Female,1,2024/02/15_12:21:57,YZ,None,
,,,,,,calibration,0,26,2,159,18,V,0,right,0.44218146899947897,1,0,,,,,,,,,,,,,,,,,,,,,1,,,,,,,,,,,,,,,,,,,,,,,,,,,,,,,,,,,,,,,,,,,,,,59,146092,20,Female,1,2024/02/15_12:21:57,YZ,None,
,,,,,,calibration,0,26,2,159,19,N,1,left,0.26653465699928347,1,0,,,,,,,,,,,,,,,,,,,,,1,,,,,,,,,,,,,,,,,,,,,,,,,,,,,,,,,,,,,,,,,,,,,,59,146092,20,Female,1,2024/02/15_12:21:57,YZ,None,
,,,,,,calibration,0,26,2,159,20,X,0,right,0.2557775950008363,1,0,,,,,,,,,,,,,,,,,,,,,1,,,,,,,,,,,,,,,,,,,,,,,,,,,,,,,,,,,,,,,,,,,,,,59,146092,20,Female,1,2024/02/15_12:21:57,YZ,None,
,,,,,,calibration,0,26,2,159,21,J,0,right,0.19221341099910205,1,0,,,,,,,,,,,,,,,,,,,,,1,,,,,,,,,,,,,,,,,,,,,,,,,,,,,,,,,,,,,,,,,,,,,,59,146092,20,Female,1,2024/02/15_12:21:57,YZ,None,
,,,,,,calibration,0,26,2,159,22,N,0,right,0.4412294970024959,1,0,,,,,,,,,,,,,,,,,,,,,1,,,,,,,,,,,,,,,,,,,,,,,,,,,,,,,,,,,,,,,,,,,,,,59,146092,20,Female,1,2024/02/15_12:21:57,YZ,None,
,,,,,,calibration,0,26,2,159,,,,,,,,0.9166666666666666,0.6666666666666666,0.0,1.0,0.0,1.0,0.363154386545251,4,0,0,0,0,16,20,6,16,0,,,,1,,,,,,,,,,,,,,,,,,,,,,,,,,,,,,,,,,,,,,,,,,,,,,59,146092,20,Female,1,2024/02/15_12:21:57,YZ,None,
,,,,,,Calibration,0,,2,159,,,,,,,,,,,,,,,,,,,,,,,,,16,,,1,,,,,,,,,,,,,,,,,,,,,,,,,,,,,,,,,,,,,,,,,,,,,,59,146092,20,Female,1,2024/02/15_12:21:57,YZ,None,
,,,,,,CALIBRATION,0,,,,,,,,,,,,,,,,,,,,,,,,,,,,16,0.9166666666666666,159,1,,,,,,,,,,,,,,,,,,,,,,,,,,,,,,,,,,,,,,,,,,,,,,59,146092,20,Female,1,2024/02/15_12:21:57,YZ,None,
1,./instructions/inst_prac_1/Slide24.png,right,4.794606704002945,448.84551161999843,453.6401183240014,,,,,,,,,,,,,,,,,,,,,,,,,,,,,,,,,1,,,,,,,,,,,,,,,,,,,,,,,,,,,,,,,,,,,,,,,,,,,,,,59,146092,20,Female,1,2024/02/15_12:21:57,YZ,None,
2,./instructions/inst_prac_1/Slide25.png,right,1.6350362900011532,453.6689236819984,455.3039599719996,,,,,,,,,,,,,,,,,,,,,,,,,,,,,,,,,1,,,,,,,,,,,,,,,,,,,,,,,,,,,,,,,,,,,,,,,,,,,,,,59,146092,20,Female,1,2024/02/15_12:21:57,YZ,None,
3,./instructions/inst_prac_1/Slide26.png,right,0.4276043389982078,455.33242282300125,455.76002716199946,,,,,,,,,,,,,,,,,,,,,,,,,,,,,,,,,1,,,,,,,,,,,,,,,,,,,,,,,,,,,,,,,,,,,,,,,,,,,,,,59,146092,20,Female,1,2024/02/15_12:21:57,YZ,None,
4,./instructions/inst_prac_1/Slide27.png,right,0.4273920050000015,455.7885106870017,456.2159026920017,,,,,,,,,,,,,,,,,,,,,,,,,,,,,,,,,1,,,,,,,,,,,,,,,,,,,,,,,,,,,,,,,,,,,,,,,,,,,,,,59,146092,20,Female,1,2024/02/15_12:21:57,YZ,None,
5,./instructions/inst_prac_1/Slide28.png,right,0.6514275080007792,456.2445011230011,456.8959286310019,,,,,,,,,,,,,,,,,,,,,,,,,,,,,,,,,1,,,,,,,,,,,,,,,,,,,,,,,,,,,,,,,,,,,,,,,,,,,,,,59,146092,20,Female,1,2024/02/15_12:21:57,YZ,None,
6,./instructions/inst_prac_1/Slide29.png,right,0.31291498499922454,456.9189008030007,457.23181578799995,,,,,,,,,,,,,,,,,,,,,,,,,,,,,,,,,1,,,,,,,,,,,,,,,,,,,,,,,,,,,,,,,,,,,,,,,,,,,,,,59,146092,20,Female,1,2024/02/15_12:21:57,YZ,None,
7,./instructions/inst_prac_1/Slide30.png,right,1.406178182001895,457.2577662959993,458.6639444780012,,,,,,,,,,,,,,,,,,,,,,,,,,,,,,,,,1,,,,,,,,,,,,,,,,,,,,,,,,,,,,,,,,,,,,,,,,,,,,,,59,146092,20,Female,1,2024/02/15_12:21:57,YZ,None,
,,,,,,practice,0,20,1,1250,1,V,0,right,1.2659751629980747,1,0,,,,,,,,,,,,,,,,,,,,,1,,,,,,,,,,,,,,,,,,,,,,,,,,,,,,,,,,,,,,,,,,,,,,59,146092,20,Female,1,2024/02/15_12:21:57,YZ,None,
,,,,,,practice,0,20,1,1250,2,N,0,left,0.6556507489985961,0,0,,,,,,,,,,,,,,,,,,,,,1,,,,,,,,,,,,,,,,,,,,,,,,,,,,,,,,,,,,,,,,,,,,,,59,146092,20,Female,1,2024/02/15_12:21:57,YZ,None,
,,,,,,practice,0,20,1,1250,3,S,0,right,0.6852107049999177,1,0,,,,,,,,,,,,,,,,,,,,,1,,,,,,,,,,,,,,,,,,,,,,,,,,,,,,,,,,,,,,,,,,,,,,59,146092,20,Female,1,2024/02/15_12:21:57,YZ,None,
,,,,,,practice,0,20,1,1250,4,V,0,right,0.675440756000171,1,0,,,,,,,,,,,,,,,,,,,,,1,,,,,,,,,,,,,,,,,,,,,,,,,,,,,,,,,,,,,,,,,,,,,,59,146092,20,Female,1,2024/02/15_12:21:57,YZ,None,
,,,,,,practice,0,20,1,1250,5,V,1,left,0.9729684159974568,1,0,,,,,,,,,,,,,,,,,,,,,1,,,,,,,,,,,,,,,,,,,,,,,,,,,,,,,,,,,,,,,,,,,,,,59,146092,20,Female,1,2024/02/15_12:21:57,YZ,None,
,,,,,,practice,0,20,1,1250,6,S,0,right,1.0700737970000773,1,0,,,,,,,,,,,,,,,,,,,,,1,,,,,,,,,,,,,,,,,,,,,,,,,,,,,,,,,,,,,,,,,,,,,,59,146092,20,Female,1,2024/02/15_12:21:57,YZ,None,
,,,,,,practice,0,20,1,1250,7,S,1,right,0.6062975080021715,0,0,,,,,,,,,,,,,,,,,,,,,1,,,,,,,,,,,,,,,,,,,,,,,,,,,,,,,,,,,,,,,,,,,,,,59,146092,20,Female,1,2024/02/15_12:21:57,YZ,None,
,,,,,,practice,0,20,1,1250,8,V,0,right,1.404392790998827,1,0,,,,,,,,,,,,,,,,,,,,,1,,,,,,,,,,,,,,,,,,,,,,,,,,,,,,,,,,,,,,,,,,,,,,59,146092,20,Female,1,2024/02/15_12:21:57,YZ,None,
,,,,,,practice,0,20,1,1250,9,X,0,right,0.560700406000251,1,0,,,,,,,,,,,,,,,,,,,,,1,,,,,,,,,,,,,,,,,,,,,,,,,,,,,,,,,,,,,,,,,,,,,,59,146092,20,Female,1,2024/02/15_12:21:57,YZ,None,
,,,,,,practice,0,20,1,1250,10,X,1,left,0.7470650770010252,1,0,,,,,,,,,,,,,,,,,,,,,1,,,,,,,,,,,,,,,,,,,,,,,,,,,,,,,,,,,,,,,,,,,,,,59,146092,20,Female,1,2024/02/15_12:21:57,YZ,None,
,,,,,,practice,0,20,1,1250,,,,,,,,0.8333333333333333,0.6666666666666666,0.14285714285714285,0.8571428571428571,0.0,0.8571428571428572,0.8643775367996568,2,1,0,0,0,6,8,3,7,0,,,,1,,,,,,,,,,,,,,,,,,,,,,,,,,,,,,,,,,,,,,,,,,,,,,59,146092,20,Female,1,2024/02/15_12:21:57,YZ,None,
1,./instructions/inst_prac_1_next/Slide35.png,right,2.3734419369975512,478.8345205760015,481.2079625129991,,,,,,,,,,,,,,,,,,,,,,,,,,,,,,,,,1,,,,,,,,,,,,,,,,,,,,,,,,,,,,,,,,,,,,,,,,,,,,,,59,146092,20,Female,1,2024/02/15_12:21:57,YZ,None,
,,,,,,practice,0,17,1,159,1,Q,0,right,1.3069041910021042,1,0,,,,,,,,,,,,,,,,,,,,,1,,,,,,,,,,,,,,,,,,,,,,,,,,,,,,,,,,,,,,,,,,,,,,59,146092,20,Female,1,2024/02/15_12:21:57,YZ,None,
,,,,,,practice,0,17,1,159,2,Q,1,left,0.5135586520009383,1,0,,,,,,,,,,,,,,,,,,,,,1,,,,,,,,,,,,,,,,,,,,,,,,,,,,,,,,,,,,,,,,,,,,,,59,146092,20,Female,1,2024/02/15_12:21:57,YZ,None,
,,,,,,practice,0,17,1,159,3,N,0,right,0.7831540750012209,1,0,,,,,,,,,,,,,,,,,,,,,1,,,,,,,,,,,,,,,,,,,,,,,,,,,,,,,,,,,,,,,,,,,,,,59,146092,20,Female,1,2024/02/15_12:21:57,YZ,None,
,,,,,,practice,0,17,1,159,4,N,1,right,0.32466841700079385,0,0,,,,,,,,,,,,,,,,,,,,,1,,,,,,,,,,,,,,,,,,,,,,,,,,,,,,,,,,,,,,,,,,,,,,59,146092,20,Female,1,2024/02/15_12:21:57,YZ,None,
,,,,,,practice,0,17,1,159,5,Q,0,right,0.4103919279987167,1,0,,,,,,,,,,,,,,,,,,,,,1,,,,,,,,,,,,,,,,,,,,,,,,,,,,,,,,,,,,,,,,,,,,,,59,146092,20,Female,1,2024/02/15_12:21:57,YZ,None,
,,,,,,practice,0,17,1,159,6,Q,1,left,0.47660930800338974,1,0,,,,,,,,,,,,,,,,,,,,,1,,,,,,,,,,,,,,,,,,,,,,,,,,,,,,,,,,,,,,,,,,,,,,59,146092,20,Female,1,2024/02/15_12:21:57,YZ,None,
,,,,,,practice,0,17,1,159,7,C,0,right,0.3883883919988875,1,0,,,,,,,,,,,,,,,,,,,,,1,,,,,,,,,,,,,,,,,,,,,,,,,,,,,,,,,,,,,,,,,,,,,,59,146092,20,Female,1,2024/02/15_12:21:57,YZ,None,
,,,,,,practice,0,17,1,159,8,V,0,left,0.48853165400214493,0,0,,,,,,,,,,,,,,,,,,,,,1,,,,,,,,,,,,,,,,,,,,,,,,,,,,,,,,,,,,,,,,,,,,,,59,146092,20,Female,1,2024/02/15_12:21:57,YZ,None,
,,,,,,practice,0,17,1,159,9,X,0,right,0.4159542960005638,1,0,,,,,,,,,,,,,,,,,,,,,1,,,,,,,,,,,,,,,,,,,,,,,,,,,,,,,,,,,,,,,,,,,,,,59,146092,20,Female,1,2024/02/15_12:21:57,YZ,None,
,,,,,,practice,0,17,1,159,10,V,0,right,0.6771636759985995,1,0,,,,,,,,,,,,,,,,,,,,,1,,,,,,,,,,,,,,,,,,,,,,,,,,,,,,,,,,,,,,,,,,,,,,59,146092,20,Female,1,2024/02/15_12:21:57,YZ,None,
,,,,,,practice,0,17,1,159,11,S,0,right,0.49308526599998004,1,0,,,,,,,,,,,,,,,,,,,,,1,,,,,,,,,,,,,,,,,,,,,,,,,,,,,,,,,,,,,,,,,,,,,,59,146092,20,Female,1,2024/02/15_12:21:57,YZ,None,
,,,,,,practice,0,17,1,159,12,J,0,right,0.4209389120005653,1,0,,,,,,,,,,,,,,,,,,,,,1,,,,,,,,,,,,,,,,,,,,,,,,,,,,,,,,,,,,,,,,,,,,,,59,146092,20,Female,1,2024/02/15_12:21:57,YZ,None,
,,,,,,practice,0,17,1,159,13,J,1,left,0.4079259379977884,1,0,,,,,,,,,,,,,,,,,,,,,1,,,,,,,,,,,,,,,,,,,,,,,,,,,,,,,,,,,,,,,,,,,,,,59,146092,20,Female,1,2024/02/15_12:21:57,YZ,None,
,,,,,,practice,0,17,1,159,14,V,0,right,0.3202544220002892,1,0,,,,,,,,,,,,,,,,,,,,,1,,,,,,,,,,,,,,,,,,,,,,,,,,,,,,,,,,,,,,,,,,,,,,59,146092,20,Female,1,2024/02/15_12:21:57,YZ,None,
,,,,,,practice,0,17,1,159,15,C,0,right,0.28792408799927216,1,0,,,,,,,,,,,,,,,,,,,,,1,,,,,,,,,,,,,,,,,,,,,,,,,,,,,,,,,,,,,,,,,,,,,,59,146092,20,Female,1,2024/02/15_12:21:57,YZ,None,
,,,,,,practice,0,17,1,159,16,S,0,right,0.38415310499840416,1,0,,,,,,,,,,,,,,,,,,,,,1,,,,,,,,,,,,,,,,,,,,,,,,,,,,,,,,,,,,,,,,,,,,,,59,146092,20,Female,1,2024/02/15_12:21:57,YZ,None,
,,,,,,practice,0,17,1,159,17,V,0,right,0.31669999299992924,1,0,,,,,,,,,,,,,,,,,,,,,1,,,,,,,,,,,,,,,,,,,,,,,,,,,,,,,,,,,,,,,,,,,,,,59,146092,20,Female,1,2024/02/15_12:21:57,YZ,None,
,,,,,,practice,0,17,1,159,18,S,0,right,0.3436409910027578,1,0,,,,,,,,,,,,,,,,,,,,,1,,,,,,,,,,,,,,,,,,,,,,,,,,,,,,,,,,,,,,,,,,,,,,59,146092,20,Female,1,2024/02/15_12:21:57,YZ,None,
,,,,,,practice,0,17,1,159,19,S,1,left,0.5777988330009975,1,0,,,,,,,,,,,,,,,,,,,,,1,,,,,,,,,,,,,,,,,,,,,,,,,,,,,,,,,,,,,,,,,,,,,,59,146092,20,Female,1,2024/02/15_12:21:57,YZ,None,
,,,,,,practice,0,17,1,159,20,F,0,right,0.3726440089994867,1,0,,,,,,,,,,,,,,,,,,,,,1,,,,,,,,,,,,,,,,,,,,,,,,,,,,,,,,,,,,,,,,,,,,,,59,146092,20,Female,1,2024/02/15_12:21:57,YZ,None,
,,,,,,practice,0,17,1,159,21,X,0,right,0.41672160099915345,1,0,,,,,,,,,,,,,,,,,,,,,1,,,,,,,,,,,,,,,,,,,,,,,,,,,,,,,,,,,,,,,,,,,,,,59,146092,20,Female,1,2024/02/15_12:21:57,YZ,None,
,,,,,,practice,0,17,1,159,22,X,1,right,0.30537381500107585,0,0,,,,,,,,,,,,,,,,,,,,,1,,,,,,,,,,,,,,,,,,,,,,,,,,,,,,,,,,,,,,,,,,,,,,59,146092,20,Female,1,2024/02/15_12:21:57,YZ,None,
,,,,,,practice,0,17,1,159,,,,,,,,0.8802083333333333,0.6666666666666666,0.0625,0.9375,0.0,0.9375,0.47420388918213907,4,1,0,0,0,15,19,6,16,0,,,,1,,,,,,,,,,,,,,,,,,,,,,,,,,,,,,,,,,,,,,,,,,,,,,59,146092,20,Female,1,2024/02/15_12:21:57,YZ,None,
,,,,,,practice,0,21,1,159,1,Q,0,right,0.5844518220001191,1,0,,,,,,,,,,,,,,,,,,,,,1,,,,,,,,,,,,,,,,,,,,,,,,,,,,,,,,,,,,,,,,,,,,,,59,146092,20,Female,1,2024/02/15_12:21:57,YZ,None,
,,,,,,practice,0,21,1,159,2,C,0,right,0.3175840989970311,1,0,,,,,,,,,,,,,,,,,,,,,1,,,,,,,,,,,,,,,,,,,,,,,,,,,,,,,,,,,,,,,,,,,,,,59,146092,20,Female,1,2024/02/15_12:21:57,YZ,None,
,,,,,,practice,0,21,1,159,3,C,1,left,0.49350088799837977,1,0,,,,,,,,,,,,,,,,,,,,,1,,,,,,,,,,,,,,,,,,,,,,,,,,,,,,,,,,,,,,,,,,,,,,59,146092,20,Female,1,2024/02/15_12:21:57,YZ,None,
,,,,,,practice,0,21,1,159,4,S,0,right,0.4254925989989715,1,0,,,,,,,,,,,,,,,,,,,,,1,,,,,,,,,,,,,,,,,,,,,,,,,,,,,,,,,,,,,,,,,,,,,,59,146092,20,Female,1,2024/02/15_12:21:57,YZ,None,
,,,,,,practice,0,21,1,159,5,S,1,right,0.2125745769990317,0,0,,,,,,,,,,,,,,,,,,,,,1,,,,,,,,,,,,,,,,,,,,,,,,,,,,,,,,,,,,,,,,,,,,,,59,146092,20,Female,1,2024/02/15_12:21:57,YZ,None,
,,,,,,practice,0,21,1,159,6,C,0,right,0.46900437999647693,1,0,,,,,,,,,,,,,,,,,,,,,1,,,,,,,,,,,,,,,,,,,,,,,,,,,,,,,,,,,,,,,,,,,,,,59,146092,20,Female,1,2024/02/15_12:21:57,YZ,None,
,,,,,,practice,0,21,1,159,7,C,1,right,0.3602259369981766,0,0,,,,,,,,,,,,,,,,,,,,,1,,,,,,,,,,,,,,,,,,,,,,,,,,,,,,,,,,,,,,,,,,,,,,59,146092,20,Female,1,2024/02/15_12:21:57,YZ,None,
,,,,,,practice,0,21,1,159,8,V,0,right,0.4165750600004685,1,0,,,,,,,,,,,,,,,,,,,,,1,,,,,,,,,,,,,,,,,,,,,,,,,,,,,,,,,,,,,,,,,,,,,,59,146092,20,Female,1,2024/02/15_12:21:57,YZ,None,
,,,,,,practice,0,21,1,159,9,Q,0,right,0.28114104000269435,1,0,,,,,,,,,,,,,,,,,,,,,1,,,,,,,,,,,,,,,,,,,,,,,,,,,,,,,,,,,,,,,,,,,,,,59,146092,20,Female,1,2024/02/15_12:21:57,YZ,None,
,,,,,,practice,0,21,1,159,10,Q,1,left,0.28143240899953526,1,0,,,,,,,,,,,,,,,,,,,,,1,,,,,,,,,,,,,,,,,,,,,,,,,,,,,,,,,,,,,,,,,,,,,,59,146092,20,Female,1,2024/02/15_12:21:57,YZ,None,
,,,,,,practice,0,21,1,159,11,F,0,right,0.30840277900279034,1,0,,,,,,,,,,,,,,,,,,,,,1,,,,,,,,,,,,,,,,,,,,,,,,,,,,,,,,,,,,,,,,,,,,,,59,146092,20,Female,1,2024/02/15_12:21:57,YZ,None,
,,,,,,practice,0,21,1,159,12,F,1,left,0.4689308869965316,1,0,,,,,,,,,,,,,,,,,,,,,1,,,,,,,,,,,,,,,,,,,,,,,,,,,,,,,,,,,,,,,,,,,,,,59,146092,20,Female,1,2024/02/15_12:21:57,YZ,None,
,,,,,,practice,0,21,1,159,13,C,0,right,0.3518278269984876,1,0,,,,,,,,,,,,,,,,,,,,,1,,,,,,,,,,,,,,,,,,,,,,,,,,,,,,,,,,,,,,,,,,,,,,59,146092,20,Female,1,2024/02/15_12:21:57,YZ,None,
,,,,,,practice,0,21,1,159,14,C,1,left,0.2731432630025665,1,0,,,,,,,,,,,,,,,,,,,,,1,,,,,,,,,,,,,,,,,,,,,,,,,,,,,,,,,,,,,,,,,,,,,,59,146092,20,Female,1,2024/02/15_12:21:57,YZ,None,
,,,,,,practice,0,21,1,159,15,F,0,right,0.2729871209994599,1,0,,,,,,,,,,,,,,,,,,,,,1,,,,,,,,,,,,,,,,,,,,,,,,,,,,,,,,,,,,,,,,,,,,,,59,146092,20,Female,1,2024/02/15_12:21:57,YZ,None,
,,,,,,practice,0,21,1,159,16,V,0,left,0.44229933399765287,0,0,,,,,,,,,,,,,,,,,,,,,1,,,,,,,,,,,,,,,,,,,,,,,,,,,,,,,,,,,,,,,,,,,,,,59,146092,20,Female,1,2024/02/15_12:21:57,YZ,None,
,,,,,,practice,0,21,1,159,17,J,0,right,0.5124799050026922,1,0,,,,,,,,,,,,,,,,,,,,,1,,,,,,,,,,,,,,,,,,,,,,,,,,,,,,,,,,,,,,,,,,,,,,59,146092,20,Female,1,2024/02/15_12:21:57,YZ,None,
,,,,,,practice,0,21,1,159,18,F,0,right,0.24077774499892257,1,0,,,,,,,,,,,,,,,,,,,,,1,,,,,,,,,,,,,,,,,,,,,,,,,,,,,,,,,,,,,,,,,,,,,,59,146092,20,Female,1,2024/02/15_12:21:57,YZ,None,
,,,,,,practice,0,21,1,159,19,F,1,left,0.4082185449988174,1,0,,,,,,,,,,,,,,,,,,,,,1,,,,,,,,,,,,,,,,,,,,,,,,,,,,,,,,,,,,,,,,,,,,,,59,146092,20,Female,1,2024/02/15_12:21:57,YZ,None,
,,,,,,practice,0,21,1,159,20,J,0,right,0.4338107939984184,1,0,,,,,,,,,,,,,,,,,,,,,1,,,,,,,,,,,,,,,,,,,,,,,,,,,,,,,,,,,,,,,,,,,,,,59,146092,20,Female,1,2024/02/15_12:21:57,YZ,None,
,,,,,,practice,0,21,1,159,21,N,0,right,0.704248166999605,1,0,,,,,,,,,,,,,,,,,,,,,1,,,,,,,,,,,,,,,,,,,,,,,,,,,,,,,,,,,,,,,,,,,,,,59,146092,20,Female,1,2024/02/15_12:21:57,YZ,None,
,,,,,,practice,0,21,1,159,22,S,0,right,0.5016672060010023,1,0,,,,,,,,,,,,,,,,,,,,,1,,,,,,,,,,,,,,,,,,,,,,,,,,,,,,,,,,,,,,,,,,,,,,59,146092,20,Female,1,2024/02/15_12:21:57,YZ,None,
,,,,,,practice,0,21,1,159,,,,,,,,0.8928571428571428,0.7142857142857143,0.06666666666666667,0.9333333333333333,0.0,0.9333333333333333,0.39821710836308327,5,1,0,0,0,14,19,7,15,0,,,,1,,,,,,,,,,,,,,,,,,,,,,,,,,,,,,,,,,,,,,,,,,,,,,59,146092,20,Female,1,2024/02/15_12:21:57,YZ,None,
1,./instructions/inst_prac_3/Slide37.png,right,5.9534636520002095,527.6064988479993,533.5599624999995,,,,,,,,,,,,,,,,,,,,,,,,,,,,,,,,,1,,,,,,,,,,,,,,,,,,,,,,,,,,,,,,,,,,,,,,,,,,,,,,59,146092,20,Female,1,2024/02/15_12:21:57,YZ,None,
2,./instructions/inst_prac_3/Slide38.png,right,2.03498954799943,533.5889003810007,535.6238899290001,,,,,,,,,,,,,,,,,,,,,,,,,,,,,,,,,1,,,,,,,,,,,,,,,,,,,,,,,,,,,,,,,,,,,,,,,,,,,,,,59,146092,20,Female,1,2024/02/15_12:21:57,YZ,None,
3,./instructions/inst_prac_3/Slide39.png,right,0.5228044889990997,535.6531533699999,536.175957858999,,,,,,,,,,,,,,,,,,,,,,,,,,,,,,,,,1,,,,,,,,,,,,,,,,,,,,,,,,,,,,,,,,,,,,,,,,,,,,,,59,146092,20,Female,1,2024/02/15_12:21:57,YZ,None,
4,./instructions/inst_prac_3/Slide40.png,right,0.45138582800063887,536.2045548669994,536.655940695,,,,,,,,,,,,,,,,,,,,,,,,,,,,,,,,,1,,,,,,,,,,,,,,,,,,,,,,,,,,,,,,,,,,,,,,,,,,,,,,59,146092,20,Female,1,2024/02/15_12:21:57,YZ,None,
5,./instructions/inst_prac_3/Slide41.png,right,2.03815445500004,536.6818704040015,538.7200248590016,,,,,,,,,,,,,,,,,,,,,,,,,,,,,,,,,1,,,,,,,,,,,,,,,,,,,,,,,,,,,,,,,,,,,,,,,,,,,,,,59,146092,20,Female,1,2024/02/15_12:21:57,YZ,None,
6,./instructions/inst_prac_3/Slide42.png,right,2.8348971209998126,538.7491173039998,541.5840144249996,,,,,,,,,,,,,,,,,,,,,,,,,,,,,,,,,1,,,,,,,,,,,,,,,,,,,,,,,,,,,,,,,,,,,,,,,,,,,,,,59,146092,20,Female,1,2024/02/15_12:21:57,YZ,None,
7,./instructions/inst_prac_3/Slide43.png,right,2.3872838040006172,541.6126624569988,543.9999462609994,,,,,,,,,,,,,,,,,,,,,,,,,,,,,,,,,1,,,,,,,,,,,,,,,,,,,,,,,,,,,,,,,,,,,,,,,,,,,,,,59,146092,20,Female,1,2024/02/15_12:21:57,YZ,None,
8,./instructions/inst_prac_3/Slide44.png,right,0.8828207650003606,544.0291884010003,544.9120091660006,,,,,,,,,,,,,,,,,,,,,,,,,,,,,,,,,1,,,,,,,,,,,,,,,,,,,,,,,,,,,,,,,,,,,,,,,,,,,,,,59,146092,20,Female,1,2024/02/15_12:21:57,YZ,None,
,,,,,,practice,0,6,3,788,1,S,0,right,1.1545477290019335,1,0,,,,,,,,,,,,,,,,,,,,,1,,,,,,,,,,,,,,,,,,,,,,,,,,,,,,,,,,,,,,,,,,,,,,59,146092,20,Female,1,2024/02/15_12:21:57,YZ,None,
,,,,,,practice,0,6,3,788,2,N,0,right,0.18816264400084037,1,0,,,,,,,,,,,,,,,,,,,,,1,,,,,,,,,,,,,,,,,,,,,,,,,,,,,,,,,,,,,,,,,,,,,,59,146092,20,Female,1,2024/02/15_12:21:57,YZ,None,
,,,,,,practice,0,6,3,788,3,V,0,right,0.9279851100000087,1,0,,,,,,,,,,,,,,,,,,,,,1,,,,,,,,,,,,,,,,,,,,,,,,,,,,,,,,,,,,,,,,,,,,,,59,146092,20,Female,1,2024/02/15_12:21:57,YZ,None,
,,,,,,practice,0,6,3,788,4,S,1,left,0.6765366930012533,1,0,,,,,,,,,,,,,,,,,,,,,1,,,,,,,,,,,,,,,,,,,,,,,,,,,,,,,,,,,,,,,,,,,,,,59,146092,20,Female,1,2024/02/15_12:21:57,YZ,None,
,,,,,,practice,0,6,3,788,5,C,0,right,0.6887599369983946,1,0,,,,,,,,,,,,,,,,,,,,,1,,,,,,,,,,,,,,,,,,,,,,,,,,,,,,,,,,,,,,,,,,,,,,59,146092,20,Female,1,2024/02/15_12:21:57,YZ,None,
,,,,,,practice,0,6,3,788,6,C,0,right,0.8986449570002151,1,0,,,,,,,,,,,,,,,,,,,,,1,,,,,,,,,,,,,,,,,,,,,,,,,,,,,,,,,,,,,,,,,,,,,,59,146092,20,Female,1,2024/02/15_12:21:57,YZ,None,
,,,,,,practice,0,6,3,788,7,N,0,right,0.7331032959991717,1,0,,,,,,,,,,,,,,,,,,,,,1,,,,,,,,,,,,,,,,,,,,,,,,,,,,,,,,,,,,,,,,,,,,,,59,146092,20,Female,1,2024/02/15_12:21:57,YZ,None,
,,,,,,practice,0,6,3,788,8,Q,0,right,0.7531238369992934,1,0,,,,,,,,,,,,,,,,,,,,,1,,,,,,,,,,,,,,,,,,,,,,,,,,,,,,,,,,,,,,,,,,,,,,59,146092,20,Female,1,2024/02/15_12:21:57,YZ,None,
,,,,,,practice,0,6,3,788,9,S,0,right,0.4734632760009845,1,0,,,,,,,,,,,,,,,,,,,,,1,,,,,,,,,,,,,,,,,,,,,,,,,,,,,,,,,,,,,,,,,,,,,,59,146092,20,Female,1,2024/02/15_12:21:57,YZ,None,
,,,,,,practice,0,6,3,788,10,N,1,left,0.7555457310008933,1,0,,,,,,,,,,,,,,,,,,,,,1,,,,,,,,,,,,,,,,,,,,,,,,,,,,,,,,,,,,,,,,,,,,,,59,146092,20,Female,1,2024/02/15_12:21:57,YZ,None,
,,,,,,practice,0,6,3,788,11,S,0,right,0.5461231100016448,1,0,,,,,,,,,,,,,,,,,,,,,1,,,,,,,,,,,,,,,,,,,,,,,,,,,,,,,,,,,,,,,,,,,,,,59,146092,20,Female,1,2024/02/15_12:21:57,YZ,None,
,,,,,,practice,0,6,3,788,12,S,1,left,0.6519315539990203,1,0,,,,,,,,,,,,,,,,,,,,,1,,,,,,,,,,,,,,,,,,,,,,,,,,,,,,,,,,,,,,,,,,,,,,59,146092,20,Female,1,2024/02/15_12:21:57,YZ,None,
,,,,,,practice,0,6,3,788,13,N,1,left,0.7919536100016558,1,0,,,,,,,,,,,,,,,,,,,,,1,,,,,,,,,,,,,,,,,,,,,,,,,,,,,,,,,,,,,,,,,,,,,,59,146092,20,Female,1,2024/02/15_12:21:57,YZ,None,
,,,,,,practice,0,6,3,788,,,,,,,,1.0,1.0,0.0,1.0,0.0,1.0,0.7107601141542546,4,0,0,0,0,9,13,4,9,0,,,,1,,,,,,,,,,,,,,,,,,,,,,,,,,,,,,,,,,,,,,,,,,,,,,59,146092,20,Female,1,2024/02/15_12:21:57,YZ,None,
1,./instructions/inst_prac_3_next/Slide49.png,right,2.247593000996858,567.8163255370018,570.0639185379987,,,,,,,,,,,,,,,,,,,,,,,,,,,,,,,,,1,,,,,,,,,,,,,,,,,,,,,,,,,,,,,,,,,,,,,,,,,,,,,,59,146092,20,Female,1,2024/02/15_12:21:57,YZ,None,
,,,,,,practice,0,6,3,159,1,C,0,right,1.1273679189980612,1,0,,,,,,,,,,,,,,,,,,,,,1,,,,,,,,,,,,,,,,,,,,,,,,,,,,,,,,,,,,,,,,,,,,,,59,146092,20,Female,1,2024/02/15_12:21:57,YZ,None,
,,,,,,practice,0,6,3,159,2,C,0,right,0.23669885699928273,1,0,,,,,,,,,,,,,,,,,,,,,1,,,,,,,,,,,,,,,,,,,,,,,,,,,,,,,,,,,,,,,,,,,,,,59,146092,20,Female,1,2024/02/15_12:21:57,YZ,None,
,,,,,,practice,0,6,3,159,3,J,0,right,0.2881788439990487,1,0,,,,,,,,,,,,,,,,,,,,,1,,,,,,,,,,,,,,,,,,,,,,,,,,,,,,,,,,,,,,,,,,,,,,59,146092,20,Female,1,2024/02/15_12:21:57,YZ,None,
,,,,,,practice,0,6,3,159,4,C,1,left,0.3281756430005771,1,0,,,,,,,,,,,,,,,,,,,,,1,,,,,,,,,,,,,,,,,,,,,,,,,,,,,,,,,,,,,,,,,,,,,,59,146092,20,Female,1,2024/02/15_12:21:57,YZ,None,
,,,,,,practice,0,6,3,159,5,S,0,right,0.31353106000096886,1,0,,,,,,,,,,,,,,,,,,,,,1,,,,,,,,,,,,,,,,,,,,,,,,,,,,,,,,,,,,,,,,,,,,,,59,146092,20,Female,1,2024/02/15_12:21:57,YZ,None,
,,,,,,practice,0,6,3,159,6,N,0,right,0.28441805300099077,1,0,,,,,,,,,,,,,,,,,,,,,1,,,,,,,,,,,,,,,,,,,,,,,,,,,,,,,,,,,,,,,,,,,,,,59,146092,20,Female,1,2024/02/15_12:21:57,YZ,None,
,,,,,,practice,0,6,3,159,7,X,0,right,0.3684413830014819,1,0,,,,,,,,,,,,,,,,,,,,,1,,,,,,,,,,,,,,,,,,,,,,,,,,,,,,,,,,,,,,,,,,,,,,59,146092,20,Female,1,2024/02/15_12:21:57,YZ,None,
,,,,,,practice,0,6,3,159,8,C,0,left,0.5938684760003525,0,0,,,,,,,,,,,,,,,,,,,,,1,,,,,,,,,,,,,,,,,,,,,,,,,,,,,,,,,,,,,,,,,,,,,,59,146092,20,Female,1,2024/02/15_12:21:57,YZ,None,
,,,,,,practice,0,6,3,159,9,F,0,right,0.28412054000000353,1,0,,,,,,,,,,,,,,,,,,,,,1,,,,,,,,,,,,,,,,,,,,,,,,,,,,,,,,,,,,,,,,,,,,,,59,146092,20,Female,1,2024/02/15_12:21:57,YZ,None,
,,,,,,practice,0,6,3,159,10,X,1,right,0.2820582109998213,0,0,,,,,,,,,,,,,,,,,,,,,1,,,,,,,,,,,,,,,,,,,,,,,,,,,,,,,,,,,,,,,,,,,,,,59,146092,20,Female,1,2024/02/15_12:21:57,YZ,None,
,,,,,,practice,0,6,3,159,11,J,0,left,0.38608989999920595,0,0,,,,,,,,,,,,,,,,,,,,,1,,,,,,,,,,,,,,,,,,,,,,,,,,,,,,,,,,,,,,,,,,,,,,59,146092,20,Female,1,2024/02/15_12:21:57,YZ,None,
,,,,,,practice,0,6,3,159,12,J,0,right,0.29225354800291825,1,0,,,,,,,,,,,,,,,,,,,,,1,,,,,,,,,,,,,,,,,,,,,,,,,,,,,,,,,,,,,,,,,,,,,,59,146092,20,Female,1,2024/02/15_12:21:57,YZ,None,
,,,,,,practice,0,6,3,159,13,N,0,right,0.15703131199916243,1,0,,,,,,,,,,,,,,,,,,,,,1,,,,,,,,,,,,,,,,,,,,,,,,,,,,,,,,,,,,,,,,,,,,,,59,146092,20,Female,1,2024/02/15_12:21:57,YZ,None,
,,,,,,practice,0,6,3,159,14,F,0,right,0.345056835001742,1,0,,,,,,,,,,,,,,,,,,,,,1,,,,,,,,,,,,,,,,,,,,,,,,,,,,,,,,,,,,,,,,,,,,,,59,146092,20,Female,1,2024/02/15_12:21:57,YZ,None,
,,,,,,practice,0,6,3,159,15,F,0,right,0.6283042989998648,1,0,,,,,,,,,,,,,,,,,,,,,1,,,,,,,,,,,,,,,,,,,,,,,,,,,,,,,,,,,,,,,,,,,,,,59,146092,20,Female,1,2024/02/15_12:21:57,YZ,None,
,,,,,,practice,0,6,3,159,16,X,0,right,0.19690019900008338,1,0,,,,,,,,,,,,,,,,,,,,,1,,,,,,,,,,,,,,,,,,,,,,,,,,,,,,,,,,,,,,,,,,,,,,59,146092,20,Female,1,2024/02/15_12:21:57,YZ,None,
,,,,,,practice,0,6,3,159,17,F,1,right,0.20355072500024107,0,0,,,,,,,,,,,,,,,,,,,,,1,,,,,,,,,,,,,,,,,,,,,,,,,,,,,,,,,,,,,,,,,,,,,,59,146092,20,Female,1,2024/02/15_12:21:57,YZ,None,
,,,,,,practice,0,6,3,159,18,C,0,right,0.7619452960025228,1,0,,,,,,,,,,,,,,,,,,,,,1,,,,,,,,,,,,,,,,,,,,,,,,,,,,,,,,,,,,,,,,,,,,,,59,146092,20,Female,1,2024/02/15_12:21:57,YZ,None,
,,,,,,practice,0,6,3,159,19,X,1,left,0.5187782289976894,1,0,,,,,,,,,,,,,,,,,,,,,1,,,,,,,,,,,,,,,,,,,,,,,,,,,,,,,,,,,,,,,,,,,,,,59,146092,20,Female,1,2024/02/15_12:21:57,YZ,None,
,,,,,,practice,0,6,3,159,20,V,0,right,0.42953336800201214,1,0,,,,,,,,,,,,,,,,,,,,,1,,,,,,,,,,,,,,,,,,,,,,,,,,,,,,,,,,,,,,,,,,,,,,59,146092,20,Female,1,2024/02/15_12:21:57,YZ,None,
,,,,,,practice,0,6,3,159,21,C,1,right,0.3278013710005325,0,0,,,,,,,,,,,,,,,,,,,,,1,,,,,,,,,,,,,,,,,,,,,,,,,,,,,,,,,,,,,,,,,,,,,,59,146092,20,Female,1,2024/02/15_12:21:57,YZ,None,
,,,,,,practice,0,6,3,159,22,X,1,right,0.71396078899852,0,0,,,,,,,,,,,,,,,,,,,,,1,,,,,,,,,,,,,,,,,,,,,,,,,,,,,,,,,,,,,,,,,,,,,,59,146092,20,Female,1,2024/02/15_12:21:57,YZ,None,
,,,,,,practice,0,6,3,159,,,,,,,,0.7083333333333334,0.3333333333333333,0.125,0.875,0.0,0.875,0.4121847662275038,2,2,0,0,0,14,16,6,16,0,,,,1,,,,,,,,,,,,,,,,,,,,,,,,,,,,,,,,,,,,,,,,,,,,,,59,146092,20,Female,1,2024/02/15_12:21:57,YZ,None,
,,,,,,practice,0,33,3,159,1,Q,0,right,0.767361907997838,1,0,,,,,,,,,,,,,,,,,,,,,1,,,,,,,,,,,,,,,,,,,,,,,,,,,,,,,,,,,,,,,,,,,,,,59,146092,20,Female,1,2024/02/15_12:21:57,YZ,None,
,,,,,,practice,0,33,3,159,2,Q,0,right,0.256800799001212,1,0,,,,,,,,,,,,,,,,,,,,,1,,,,,,,,,,,,,,,,,,,,,,,,,,,,,,,,,,,,,,,,,,,,,,59,146092,20,Female,1,2024/02/15_12:21:57,YZ,None,
,,,,,,practice,0,33,3,159,3,F,0,right,0.6803468079997401,1,0,,,,,,,,,,,,,,,,,,,,,1,,,,,,,,,,,,,,,,,,,,,,,,,,,,,,,,,,,,,,,,,,,,,,59,146092,20,Female,1,2024/02/15_12:21:57,YZ,None,
,,,,,,practice,0,33,3,159,4,Q,1,left,0.5085302570005297,1,0,,,,,,,,,,,,,,,,,,,,,1,,,,,,,,,,,,,,,,,,,,,,,,,,,,,,,,,,,,,,,,,,,,,,59,146092,20,Female,1,2024/02/15_12:21:57,YZ,None,
,,,,,,practice,0,33,3,159,5,Q,1,left,0.5191259359999094,1,0,,,,,,,,,,,,,,,,,,,,,1,,,,,,,,,,,,,,,,,,,,,,,,,,,,,,,,,,,,,,,,,,,,,,59,146092,20,Female,1,2024/02/15_12:21:57,YZ,None,
,,,,,,practice,0,33,3,159,6,C,0,right,0.7340161680003803,1,0,,,,,,,,,,,,,,,,,,,,,1,,,,,,,,,,,,,,,,,,,,,,,,,,,,,,,,,,,,,,,,,,,,,,59,146092,20,Female,1,2024/02/15_12:21:57,YZ,None,
,,,,,,practice,0,33,3,159,7,X,0,right,0.8610384390012769,1,0,,,,,,,,,,,,,,,,,,,,,1,,,,,,,,,,,,,,,,,,,,,,,,,,,,,,,,,,,,,,,,,,,,,,59,146092,20,Female,1,2024/02/15_12:21:57,YZ,None,
,,,,,,practice,0,33,3,159,8,Q,1,left,0.7169957869991777,1,0,,,,,,,,,,,,,,,,,,,,,1,,,,,,,,,,,,,,,,,,,,,,,,,,,,,,,,,,,,,,,,,,,,,,59,146092,20,Female,1,2024/02/15_12:21:57,YZ,None,
,,,,,,practice,0,33,3,159,9,C,1,right,0.28915787900041323,0,0,,,,,,,,,,,,,,,,,,,,,1,,,,,,,,,,,,,,,,,,,,,,,,,,,,,,,,,,,,,,,,,,,,,,59,146092,20,Female,1,2024/02/15_12:21:57,YZ,None,
,,,,,,practice,0,33,3,159,10,N,0,right,0.28179936000015005,1,0,,,,,,,,,,,,,,,,,,,,,1,,,,,,,,,,,,,,,,,,,,,,,,,,,,,,,,,,,,,,,,,,,,,,59,146092,20,Female,1,2024/02/15_12:21:57,YZ,None,
,,,,,,practice,0,33,3,159,11,Q,1,right,0.2504448340005183,0,0,,,,,,,,,,,,,,,,,,,,,1,,,,,,,,,,,,,,,,,,,,,,,,,,,,,,,,,,,,,,,,,,,,,,59,146092,20,Female,1,2024/02/15_12:21:57,YZ,None,
,,,,,,practice,0,33,3,159,12,X,0,right,0.44966437200127984,1,0,,,,,,,,,,,,,,,,,,,,,1,,,,,,,,,,,,,,,,,,,,,,,,,,,,,,,,,,,,,,,,,,,,,,59,146092,20,Female,1,2024/02/15_12:21:57,YZ,None,
,,,,,,practice,0,33,3,159,13,C,0,left,0.611021853001148,0,0,,,,,,,,,,,,,,,,,,,,,1,,,,,,,,,,,,,,,,,,,,,,,,,,,,,,,,,,,,,,,,,,,,,,59,146092,20,Female,1,2024/02/15_12:21:57,YZ,None,
,,,,,,practice,0,33,3,159,14,V,0,right,0.36408784199738875,1,0,,,,,,,,,,,,,,,,,,,,,1,,,,,,,,,,,,,,,,,,,,,,,,,,,,,,,,,,,,,,,,,,,,,,59,146092,20,Female,1,2024/02/15_12:21:57,YZ,None,
,,,,,,practice,0,33,3,159,15,J,0,right,0.5122030989987252,1,0,,,,,,,,,,,,,,,,,,,,,1,,,,,,,,,,,,,,,,,,,,,,,,,,,,,,,,,,,,,,,,,,,,,,59,146092,20,Female,1,2024/02/15_12:21:57,YZ,None,
,,,,,,practice,0,33,3,159,16,Q,0,left,0.9791711020006915,0,0,,,,,,,,,,,,,,,,,,,,,1,,,,,,,,,,,,,,,,,,,,,,,,,,,,,,,,,,,,,,,,,,,,,,59,146092,20,Female,1,2024/02/15_12:21:57,YZ,None,
,,,,,,practice,0,33,3,159,17,V,1,right,0.22076594800091698,0,0,,,,,,,,,,,,,,,,,,,,,1,,,,,,,,,,,,,,,,,,,,,,,,,,,,,,,,,,,,,,,,,,,,,,59,146092,20,Female,1,2024/02/15_12:21:57,YZ,None,
,,,,,,practice,0,33,3,159,18,J,1,right,0.20828384900232777,0,0,,,,,,,,,,,,,,,,,,,,,1,,,,,,,,,,,,,,,,,,,,,,,,,,,,,,,,,,,,,,,,,,,,,,59,146092,20,Female,1,2024/02/15_12:21:57,YZ,None,
,,,,,,practice,0,33,3,159,19,J,0,right,0.3726361070002895,1,0,,,,,,,,,,,,,,,,,,,,,1,,,,,,,,,,,,,,,,,,,,,,,,,,,,,,,,,,,,,,,,,,,,,,59,146092,20,Female,1,2024/02/15_12:21:57,YZ,None,
,,,,,,practice,0,33,3,159,20,N,0,left,0.4637004469987005,0,0,,,,,,,,,,,,,,,,,,,,,1,,,,,,,,,,,,,,,,,,,,,,,,,,,,,,,,,,,,,,,,,,,,,,59,146092,20,Female,1,2024/02/15_12:21:57,YZ,None,
,,,,,,practice,0,33,3,159,21,C,0,right,0.41492412200022954,1,0,,,,,,,,,,,,,,,,,,,,,1,,,,,,,,,,,,,,,,,,,,,,,,,,,,,,,,,,,,,,,,,,,,,,59,146092,20,Female,1,2024/02/15_12:21:57,YZ,None,
,,,,,,practice,0,33,3,159,22,F,0,right,0.2682540659989172,1,0,,,,,,,,,,,,,,,,,,,,,1,,,,,,,,,,,,,,,,,,,,,,,,,,,,,,,,,,,,,,,,,,,,,,59,146092,20,Female,1,2024/02/15_12:21:57,YZ,None,
,,,,,,practice,0,33,3,159,,,,,,,,0.6904761904761905,0.42857142857142855,0.2,0.8,0.0,0.8,0.48774231736371637,3,3,0,0,0,12,15,7,15,0,,,,1,,,,,,,,,,,,,,,,,,,,,,,,,,,,,,,,,,,,,,,,,,,,,,59,146092,20,Female,1,2024/02/15_12:21:57,YZ,None,
1,./instructions/inst_redo_3/Slide47.png,right,5.775891753997712,615.5280222270012,621.3039139809989,,,,,,,,,,,,,,,,,,,,,,,,,,,,,,,,,1,,,,,,,,,,,,,,,,,,,,,,,,,,,,,,,,,,,,,,,,,,,,,,59,146092,20,Female,1,2024/02/15_12:21:57,YZ,None,
,,,,,,practice,0,2,3,159,1,V,0,right,0.7548868670019147,1,0,,,,,,,,,,,,,,,,,,,,,1,,,,,,,,,,,,,,,,,,,,,,,,,,,,,,,,,,,,,,,,,,,,,,59,146092,20,Female,1,2024/02/15_12:21:57,YZ,None,
,,,,,,practice,0,2,3,159,2,Q,0,right,0.24744007300250814,1,0,,,,,,,,,,,,,,,,,,,,,1,,,,,,,,,,,,,,,,,,,,,,,,,,,,,,,,,,,,,,,,,,,,,,59,146092,20,Female,1,2024/02/15_12:21:57,YZ,None,
,,,,,,practice,0,2,3,159,3,V,0,right,0.6602157220004301,1,0,,,,,,,,,,,,,,,,,,,,,1,,,,,,,,,,,,,,,,,,,,,,,,,,,,,,,,,,,,,,,,,,,,,,59,146092,20,Female,1,2024/02/15_12:21:57,YZ,None,
,,,,,,practice,0,2,3,159,4,V,1,left,0.6454766630013182,1,0,,,,,,,,,,,,,,,,,,,,,1,,,,,,,,,,,,,,,,,,,,,,,,,,,,,,,,,,,,,,,,,,,,,,59,146092,20,Female,1,2024/02/15_12:21:57,YZ,None,
,,,,,,practice,0,2,3,159,5,C,0,right,0.6609408040021663,1,0,,,,,,,,,,,,,,,,,,,,,1,,,,,,,,,,,,,,,,,,,,,,,,,,,,,,,,,,,,,,,,,,,,,,59,146092,20,Female,1,2024/02/15_12:21:57,YZ,None,
,,,,,,practice,0,2,3,159,6,Q,0,right,0.9168770119977125,1,0,,,,,,,,,,,,,,,,,,,,,1,,,,,,,,,,,,,,,,,,,,,,,,,,,,,,,,,,,,,,,,,,,,,,59,146092,20,Female,1,2024/02/15_12:21:57,YZ,None,
,,,,,,practice,0,2,3,159,7,C,0,right,0.776679773000069,1,0,,,,,,,,,,,,,,,,,,,,,1,,,,,,,,,,,,,,,,,,,,,,,,,,,,,,,,,,,,,,,,,,,,,,59,146092,20,Female,1,2024/02/15_12:21:57,YZ,None,
,,,,,,practice,0,2,3,159,8,V,0,left,0.7678716740010714,0,0,,,,,,,,,,,,,,,,,,,,,1,,,,,,,,,,,,,,,,,,,,,,,,,,,,,,,,,,,,,,,,,,,,,,59,146092,20,Female,1,2024/02/15_12:21:57,YZ,None,
,,,,,,practice,0,2,3,159,9,Q,1,right,0.40071163899847306,0,0,,,,,,,,,,,,,,,,,,,,,1,,,,,,,,,,,,,,,,,,,,,,,,,,,,,,,,,,,,,,,,,,,,,,59,146092,20,Female,1,2024/02/15_12:21:57,YZ,None,
,,,,,,practice,0,2,3,159,10,Q,0,right,0.3681411119978293,1,0,,,,,,,,,,,,,,,,,,,,,1,,,,,,,,,,,,,,,,,,,,,,,,,,,,,,,,,,,,,,,,,,,,,,59,146092,20,Female,1,2024/02/15_12:21:57,YZ,None,
,,,,,,practice,0,2,3,159,11,S,0,right,0.4341162370001257,1,0,,,,,,,,,,,,,,,,,,,,,1,,,,,,,,,,,,,,,,,,,,,,,,,,,,,,,,,,,,,,,,,,,,,,59,146092,20,Female,1,2024/02/15_12:21:57,YZ,None,
,,,,,,practice,0,2,3,159,12,Q,1,left,0.7927619310030423,1,0,,,,,,,,,,,,,,,,,,,,,1,,,,,,,,,,,,,,,,,,,,,,,,,,,,,,,,,,,,,,,,,,,,,,59,146092,20,Female,1,2024/02/15_12:21:57,YZ,None,
,,,,,,practice,0,2,3,159,13,C,0,right,0.7621286749999854,1,0,,,,,,,,,,,,,,,,,,,,,1,,,,,,,,,,,,,,,,,,,,,,,,,,,,,,,,,,,,,,,,,,,,,,59,146092,20,Female,1,2024/02/15_12:21:57,YZ,None,
,,,,,,practice,0,2,3,159,14,X,0,right,0.7919786980019126,1,0,,,,,,,,,,,,,,,,,,,,,1,,,,,,,,,,,,,,,,,,,,,,,,,,,,,,,,,,,,,,,,,,,,,,59,146092,20,Female,1,2024/02/15_12:21:57,YZ,None,
,,,,,,practice,0,2,3,159,15,C,0,left,0.8344234910000523,0,0,,,,,,,,,,,,,,,,,,,,,1,,,,,,,,,,,,,,,,,,,,,,,,,,,,,,,,,,,,,,,,,,,,,,59,146092,20,Female,1,2024/02/15_12:21:57,YZ,None,
,,,,,,practice,0,2,3,159,16,C,1,right,0.5609169080016727,0,0,,,,,,,,,,,,,,,,,,,,,1,,,,,,,,,,,,,,,,,,,,,,,,,,,,,,,,,,,,,,,,,,,,,,59,146092,20,Female,1,2024/02/15_12:21:57,YZ,None,
