Instruction,Stimulus,Key,RT,START,END,Phase,Block,TrialN,NbackLevel,ISI,LetterN,Letter,Letter_isSame,Letter_Resp,Letter_RT,Letter_Accuracy,Letter_Timeout,Trial_A_measure,Trial_HR,Trial_FAR,Trial_CDR,Trial_MSR,Trial_ACC,Trial_RT,Trial_HitsCount,Trial_FAsCount,Trial_SameNoRespCount,Trial_DiffNoRespCount,Trial_NoRespCount,Trial_CDsCount,Trial_CorrectRespCount,Trial_SameLetterCount,Trial_DiffLetterCount,Trial_InvalidLetterCount,TrialCountCali,CaliEnd_A_measure,ISI_calibrated,Run,TrialIndex,TrialNumber_total,TrialNumber_valid,CueLearning,TrialDemandLearning,CueMapping,OnlineRating,OnlineRatingRT,OnlineRatingTimeOut,CueSTART,RatingSTART,OfflineRatingTimePoint,OfflineRatingQuesIndex,CueFigure,TrialDemand,OfflineRating,OfflineRatingRT,CueStart,OfflineRatingStart,PhaseType,CueLeft,CueDemandLeft,CueRight,CueDemandRight,Choice,ChoiceDemand,TaskDemand,ChoiceRT,ChoiceTimeOut,ChoiceSTART,CueCheck,CueDemandCheck,CorrectAnswer,Answer,AnswerDemand,AnswerRT,AnswerACC,AnswerTimeOut,CheckSTART,DemandRatingQuesIndex,QuesTLX,DemandLevel,DemandRating,DemandRatingRT,QuesStart,PID,SONA,Age,Gender,Run,TIME,EXPERIMENTER,frameRate,
-1,./instructions/inst_begin/Slide2.png,left,23.69915848999881,0.28680816599990067,23.98596665599871,,,,,,,,,,,,,,,,,,,,,,,,,,,,,,,,,1,,,,,,,,,,,,,,,,,,,,,,,,,,,,,,,,,,,,,,,,,,,,,,111,151507,19,Female,1,2024/03/21_12:26:36,YZ,None,
0,./instructions/inst_begin/Slide4.png,right,8.558745467000335,24.03488045099948,32.593625917999816,,,,,,,,,,,,,,,,,,,,,,,,,,,,,,,,,1,,,,,,,,,,,,,,,,,,,,,,,,,,,,,,,,,,,,,,,,,,,,,,111,151507,19,Female,1,2024/03/21_12:26:36,YZ,None,
1,./instructions/inst_begin/Slide2.png,right,0.20035596299931058,32.61937458899956,32.81973055199887,,,,,,,,,,,,,,,,,,,,,,,,,,,,,,,,,1,,,,,,,,,,,,,,,,,,,,,,,,,,,,,,,,,,,,,,,,,,,,,,111,151507,19,Female,1,2024/03/21_12:26:36,YZ,None,
2,./instructions/inst_begin/Slide3.png,right,5.474969696000699,32.87859277699863,38.35356247299933,,,,,,,,,,,,,,,,,,,,,,,,,,,,,,,,,1,,,,,,,,,,,,,,,,,,,,,,,,,,,,,,,,,,,,,,,,,,,,,,111,151507,19,Female,1,2024/03/21_12:26:36,YZ,None,
3,./instructions/inst_begin/Slide4.png,right,4.762778812999386,38.38264666699979,43.145425479999176,,,,,,,,,,,,,,,,,,,,,,,,,,,,,,,,,1,,,,,,,,,,,,,,,,,,,,,,,,,,,,,,,,,,,,,,,,,,,,,,111,151507,19,Female,1,2024/03/21_12:26:36,YZ,None,
1,./instructions/inst_prac_2/Slide6.png,right,10.897475726000266,43.216181996998785,54.11365772299905,,,,,,,,,,,,,,,,,,,,,,,,,,,,,,,,,1,,,,,,,,,,,,,,,,,,,,,,,,,,,,,,,,,,,,,,,,,,,,,,111,151507,19,Female,1,2024/03/21_12:26:36,YZ,None,
2,./instructions/inst_prac_2/Slide7.png,right,9.353739296999265,54.143925145999674,63.49766444299894,,,,,,,,,,,,,,,,,,,,,,,,,,,,,,,,,1,,,,,,,,,,,,,,,,,,,,,,,,,,,,,,,,,,,,,,,,,,,,,,111,151507,19,Female,1,2024/03/21_12:26:36,YZ,None,
3,./instructions/inst_prac_2/Slide8.png,right,25.49244556799931,63.52517775399974,89.01762332199905,,,,,,,,,,,,,,,,,,,,,,,,,,,,,,,,,1,,,,,,,,,,,,,,,,,,,,,,,,,,,,,,,,,,,,,,,,,,,,,,111,151507,19,Female,1,2024/03/21_12:26:36,YZ,None,
4,./instructions/inst_prac_2/Slide9.png,right,5.949793685000259,89.05959971099946,95.00939339599972,,,,,,,,,,,,,,,,,,,,,,,,,,,,,,,,,1,,,,,,,,,,,,,,,,,,,,,,,,,,,,,,,,,,,,,,,,,,,,,,111,151507,19,Female,1,2024/03/21_12:26:36,YZ,None,
5,./instructions/inst_prac_2/Slide10.png,right,2.1429179290007596,95.0586694149988,97.20158734399956,,,,,,,,,,,,,,,,,,,,,,,,,,,,,,,,,1,,,,,,,,,,,,,,,,,,,,,,,,,,,,,,,,,,,,,,,,,,,,,,111,151507,19,Female,1,2024/03/21_12:26:36,YZ,None,
6,./instructions/inst_prac_2/Slide11.png,right,1.8746366819996183,97.23084799299977,99.10548467499939,,,,,,,,,,,,,,,,,,,,,,,,,,,,,,,,,1,,,,,,,,,,,,,,,,,,,,,,,,,,,,,,,,,,,,,,,,,,,,,,111,151507,19,Female,1,2024/03/21_12:26:36,YZ,None,
7,./instructions/inst_prac_2/Slide12.png,right,1.4279774549995636,99.13354298000013,100.5615204349997,,,,,,,,,,,,,,,,,,,,,,,,,,,,,,,,,1,,,,,,,,,,,,,,,,,,,,,,,,,,,,,,,,,,,,,,,,,,,,,,111,151507,19,Female,1,2024/03/21_12:26:36,YZ,None,
8,./instructions/inst_prac_2/Slide13.png,right,1.1624660460001905,100.59102619999976,101.75349224599995,,,,,,,,,,,,,,,,,,,,,,,,,,,,,,,,,1,,,,,,,,,,,,,,,,,,,,,,,,,,,,,,,,,,,,,,,,,,,,,,111,151507,19,Female,1,2024/03/21_12:26:36,YZ,None,
9,./instructions/inst_prac_2/Slide14.png,right,6.97807998099961,101.78345629199976,108.76153627299936,,,,,,,,,,,,,,,,,,,,,,,,,,,,,,,,,1,,,,,,,,,,,,,,,,,,,,,,,,,,,,,,,,,,,,,,,,,,,,,,111,151507,19,Female,1,2024/03/21_12:26:36,YZ,None,
10,./instructions/inst_prac_2/Slide15.png,right,7.37964962300066,108.79040363499917,116.17005325799983,,,,,,,,,,,,,,,,,,,,,,,,,,,,,,,,,1,,,,,,,,,,,,,,,,,,,,,,,,,,,,,,,,,,,,,,,,,,,,,,111,151507,19,Female,1,2024/03/21_12:26:36,YZ,None,
,,,,,,practice,0,30,2,2583,1,N,0,right,7.537933891000648,1,0,,,,,,,,,,,,,,,,,,,,,1,,,,,,,,,,,,,,,,,,,,,,,,,,,,,,,,,,,,,,,,,,,,,,111,151507,19,Female,1,2024/03/21_12:26:36,YZ,None,
,,,,,,practice,0,30,2,2583,2,N,0,left,2.8677341410002555,0,0,,,,,,,,,,,,,,,,,,,,,1,,,,,,,,,,,,,,,,,,,,,,,,,,,,,,,,,,,,,,,,,,,,,,111,151507,19,Female,1,2024/03/21_12:26:36,YZ,None,
,,,,,,practice,0,30,2,2583,3,N,1,left,6.330627620000087,1,0,,,,,,,,,,,,,,,,,,,,,1,,,,,,,,,,,,,,,,,,,,,,,,,,,,,,,,,,,,,,,,,,,,,,111,151507,19,Female,1,2024/03/21_12:26:36,YZ,None,
,,,,,,practice,0,30,2,2583,4,Q,0,right,3.0550978900009795,1,0,,,,,,,,,,,,,,,,,,,,,1,,,,,,,,,,,,,,,,,,,,,,,,,,,,,,,,,,,,,,,,,,,,,,111,151507,19,Female,1,2024/03/21_12:26:36,YZ,None,
,,,,,,practice,0,30,2,2583,5,N,1,right,1.7307296470007714,0,0,,,,,,,,,,,,,,,,,,,,,1,,,,,,,,,,,,,,,,,,,,,,,,,,,,,,,,,,,,,,,,,,,,,,111,151507,19,Female,1,2024/03/21_12:26:36,YZ,None,
,,,,,,practice,0,30,2,2583,6,J,0,right,2.0373460499995417,1,0,,,,,,,,,,,,,,,,,,,,,1,,,,,,,,,,,,,,,,,,,,,,,,,,,,,,,,,,,,,,,,,,,,,,111,151507,19,Female,1,2024/03/21_12:26:36,YZ,None,
,,,,,,practice,0,30,2,2583,,,,,,,,0.6875,0.5,0.25,0.75,0.0,0.75,3.9265782065003805,1,1,0,0,0,3,4,2,4,0,,,,1,,,,,,,,,,,,,,,,,,,,,,,,,,,,,,,,,,,,,,,,,,,,,,111,151507,19,Female,1,2024/03/21_12:26:36,YZ,None,
1,./instructions/inst_redo_2/Slide18.png,right,3.2293828279998706,147.41226482799902,150.6416476559989,,,,,,,,,,,,,,,,,,,,,,,,,,,,,,,,,1,,,,,,,,,,,,,,,,,,,,,,,,,,,,,,,,,,,,,,,,,,,,,,111,151507,19,Female,1,2024/03/21_12:26:36,YZ,None,
,,,,,,practice,0,26,2,2583,1,X,0,right,2.1290279969998664,1,0,,,,,,,,,,,,,,,,,,,,,1,,,,,,,,,,,,,,,,,,,,,,,,,,,,,,,,,,,,,,,,,,,,,,111,151507,19,Female,1,2024/03/21_12:26:36,YZ,None,
,,,,,,practice,0,26,2,2583,2,V,0,right,1.1413586879989452,1,0,,,,,,,,,,,,,,,,,,,,,1,,,,,,,,,,,,,,,,,,,,,,,,,,,,,,,,,,,,,,,,,,,,,,111,151507,19,Female,1,2024/03/21_12:26:36,YZ,None,
,,,,,,practice,0,26,2,2583,3,X,1,left,1.0908541870012414,1,0,,,,,,,,,,,,,,,,,,,,,1,,,,,,,,,,,,,,,,,,,,,,,,,,,,,,,,,,,,,,,,,,,,,,111,151507,19,Female,1,2024/03/21_12:26:36,YZ,None,
,,,,,,practice,0,26,2,2583,4,C,0,right,1.3207769370001188,1,0,,,,,,,,,,,,,,,,,,,,,1,,,,,,,,,,,,,,,,,,,,,,,,,,,,,,,,,,,,,,,,,,,,,,111,151507,19,Female,1,2024/03/21_12:26:36,YZ,None,
,,,,,,practice,0,26,2,2583,5,X,1,left,1.1456395339992014,1,0,,,,,,,,,,,,,,,,,,,,,1,,,,,,,,,,,,,,,,,,,,,,,,,,,,,,,,,,,,,,,,,,,,,,111,151507,19,Female,1,2024/03/21_12:26:36,YZ,None,
,,,,,,practice,0,26,2,2583,6,V,0,right,1.1514761910002562,1,0,,,,,,,,,,,,,,,,,,,,,1,,,,,,,,,,,,,,,,,,,,,,,,,,,,,,,,,,,,,,,,,,,,,,111,151507,19,Female,1,2024/03/21_12:26:36,YZ,None,
,,,,,,practice,0,26,2,2583,,,,,,,,1.0,1.0,0.0,1.0,0.0,1.0,1.3298555889999382,2,0,0,0,0,4,6,2,4,0,,,,1,,,,,,,,,,,,,,,,,,,,,,,,,,,,,,,,,,,,,,,,,,,,,,111,151507,19,Female,1,2024/03/21_12:26:36,YZ,None,
1,./instructions/inst_to_cali/Slide20.png,right,3.622949040000094,165.97849751600006,169.60144655600016,,,,,,,,,,,,,,,,,,,,,,,,,,,,,,,,,1,,,,,,,,,,,,,,,,,,,,,,,,,,,,,,,,,,,,,,,,,,,,,,111,151507,19,Female,1,2024/03/21_12:26:36,YZ,None,
1,./instructions/inst_cali/Slide22.png,right,8.756515056998978,169.64521656000034,178.4017316169993,,,,,,,,,,,,,,,,,,,,,,,,,,,,,,,,,1,,,,,,,,,,,,,,,,,,,,,,,,,,,,,,,,,,,,,,,,,,,,,,111,151507,19,Female,1,2024/03/21_12:26:36,YZ,None,
,,,,,,calibration,0,9,2,583,1,S,0,None,nan,0,1,,,,,,,,,,,,,,,,,,,,,1,,,,,,,,,,,,,,,,,,,,,,,,,,,,,,,,,,,,,,,,,,,,,,111,151507,19,Female,1,2024/03/21_12:26:36,YZ,None,
,,,,,,calibration,0,9,2,583,2,F,0,None,nan,0,1,,,,,,,,,,,,,,,,,,,,,1,,,,,,,,,,,,,,,,,,,,,,,,,,,,,,,,,,,,,,,,,,,,,,111,151507,19,Female,1,2024/03/21_12:26:36,YZ,None,
,,,,,,calibration,0,9,2,583,3,V,0,right,1.3420885969990195,1,0,,,,,,,,,,,,,,,,,,,,,1,,,,,,,,,,,,,,,,,,,,,,,,,,,,,,,,,,,,,,,,,,,,,,111,151507,19,Female,1,2024/03/21_12:26:36,YZ,None,
,,,,,,calibration,0,9,2,583,4,X,0,right,nan,0,1,,,,,,,,,,,,,,,,,,,,,1,,,,,,,,,,,,,,,,,,,,,,,,,,,,,,,,,,,,,,,,,,,,,,111,151507,19,Female,1,2024/03/21_12:26:36,YZ,None,
,,,,,,calibration,0,9,2,583,5,N,0,right,0.30154013500032306,1,0,,,,,,,,,,,,,,,,,,,,,1,,,,,,,,,,,,,,,,,,,,,,,,,,,,,,,,,,,,,,,,,,,,,,111,151507,19,Female,1,2024/03/21_12:26:36,YZ,None,
,,,,,,calibration,0,9,2,583,6,J,0,right,nan,0,1,,,,,,,,,,,,,,,,,,,,,1,,,,,,,,,,,,,,,,,,,,,,,,,,,,,,,,,,,,,,,,,,,,,,111,151507,19,Female,1,2024/03/21_12:26:36,YZ,None,
,,,,,,calibration,0,9,2,583,7,F,0,left,0.10805790400081605,0,0,,,,,,,,,,,,,,,,,,,,,1,,,,,,,,,,,,,,,,,,,,,,,,,,,,,,,,,,,,,,,,,,,,,,111,151507,19,Female,1,2024/03/21_12:26:36,YZ,None,
,,,,,,calibration,0,9,2,583,8,N,0,left,nan,0,1,,,,,,,,,,,,,,,,,,,,,1,,,,,,,,,,,,,,,,,,,,,,,,,,,,,,,,,,,,,,,,,,,,,,111,151507,19,Female,1,2024/03/21_12:26:36,YZ,None,
,,,,,,calibration,0,9,2,583,9,S,0,left,0.8575015509995865,0,0,,,,,,,,,,,,,,,,,,,,,1,,,,,,,,,,,,,,,,,,,,,,,,,,,,,,,,,,,,,,,,,,,,,,111,151507,19,Female,1,2024/03/21_12:26:36,YZ,None,
,,,,,,calibration,0,9,2,583,10,J,0,right,0.7823620270009997,1,0,,,,,,,,,,,,,,,,,,,,,1,,,,,,,,,,,,,,,,,,,,,,,,,,,,,,,,,,,,,,,,,,,,,,111,151507,19,Female,1,2024/03/21_12:26:36,YZ,None,
,,,,,,calibration,0,9,2,583,11,S,1,left,0.6076532879997103,1,0,,,,,,,,,,,,,,,,,,,,,1,,,,,,,,,,,,,,,,,,,,,,,,,,,,,,,,,,,,,,,,,,,,,,111,151507,19,Female,1,2024/03/21_12:26:36,YZ,None,
,,,,,,calibration,0,9,2,583,12,J,1,right,0.5732462630003283,0,0,,,,,,,,,,,,,,,,,,,,,1,,,,,,,,,,,,,,,,,,,,,,,,,,,,,,,,,,,,,,,,,,,,,,111,151507,19,Female,1,2024/03/21_12:26:36,YZ,None,
,,,,,,calibration,0,9,2,583,13,V,0,right,0.5550277170004847,1,0,,,,,,,,,,,,,,,,,,,,,1,,,,,,,,,,,,,,,,,,,,,,,,,,,,,,,,,,,,,,,,,,,,,,111,151507,19,Female,1,2024/03/21_12:26:36,YZ,None,
,,,,,,calibration,0,9,2,583,14,J,1,left,0.9620539080005983,1,0,,,,,,,,,,,,,,,,,,,,,1,,,,,,,,,,,,,,,,,,,,,,,,,,,,,,,,,,,,,,,,,,,,,,111,151507,19,Female,1,2024/03/21_12:26:36,YZ,None,
,,,,,,calibration,0,9,2,583,15,V,1,right,0.7590688580003189,0,0,,,,,,,,,,,,,,,,,,,,,1,,,,,,,,,,,,,,,,,,,,,,,,,,,,,,,,,,,,,,,,,,,,,,111,151507,19,Female,1,2024/03/21_12:26:36,YZ,None,
,,,,,,calibration,0,9,2,583,,,,,,,,0.7386363636363636,0.5,0.18181818181818182,0.6666666666666666,0.3333333333333333,0.4848484848484848,0.6848600248002186,2,2,0,5,5,4,6,4,11,0,,,,1,,,,,,,,,,,,,,,,,,,,,,,,,,,,,,,,,,,,,,,,,,,,,,111,151507,19,Female,1,2024/03/21_12:26:36,YZ,None,
,,,,,,Calibration,0,,2,583,,,,,,,,,,,,,,,,,,,,,,,,,1,,,1,,,,,,,,,,,,,,,,,,,,,,,,,,,,,,,,,,,,,,,,,,,,,,111,151507,19,Female,1,2024/03/21_12:26:36,YZ,None,
,,,,,,calibration,0,30,2,679,1,X,0,None,nan,0,1,,,,,,,,,,,,,,,,,,,,,1,,,,,,,,,,,,,,,,,,,,,,,,,,,,,,,,,,,,,,,,,,,,,,111,151507,19,Female,1,2024/03/21_12:26:36,YZ,None,
,,,,,,calibration,0,30,2,679,2,F,0,None,nan,0,1,,,,,,,,,,,,,,,,,,,,,1,,,,,,,,,,,,,,,,,,,,,,,,,,,,,,,,,,,,,,,,,,,,,,111,151507,19,Female,1,2024/03/21_12:26:36,YZ,None,
,,,,,,calibration,0,30,2,679,3,X,1,right,0.3139321340004244,0,0,,,,,,,,,,,,,,,,,,,,,1,,,,,,,,,,,,,,,,,,,,,,,,,,,,,,,,,,,,,,,,,,,,,,111,151507,19,Female,1,2024/03/21_12:26:36,YZ,None,
,,,,,,calibration,0,30,2,679,4,V,0,right,0.3885349079992011,1,0,,,,,,,,,,,,,,,,,,,,,1,,,,,,,,,,,,,,,,,,,,,,,,,,,,,,,,,,,,,,,,,,,,,,111,151507,19,Female,1,2024/03/21_12:26:36,YZ,None,
,,,,,,calibration,0,30,2,679,5,J,0,right,1.392546080000102,1,0,,,,,,,,,,,,,,,,,,,,,1,,,,,,,,,,,,,,,,,,,,,,,,,,,,,,,,,,,,,,,,,,,,,,111,151507,19,Female,1,2024/03/21_12:26:36,YZ,None,
,,,,,,calibration,0,30,2,679,6,Q,0,left,1.1423850230003154,0,0,,,,,,,,,,,,,,,,,,,,,1,,,,,,,,,,,,,,,,,,,,,,,,,,,,,,,,,,,,,,,,,,,,,,111,151507,19,Female,1,2024/03/21_12:26:36,YZ,None,
,,,,,,calibration,0,30,2,679,7,J,1,right,0.3194369020002341,0,0,,,,,,,,,,,,,,,,,,,,,1,,,,,,,,,,,,,,,,,,,,,,,,,,,,,,,,,,,,,,,,,,,,,,111,151507,19,Female,1,2024/03/21_12:26:36,YZ,None,
,,,,,,calibration,0,30,2,679,8,X,0,right,0.5255990719997499,1,0,,,,,,,,,,,,,,,,,,,,,1,,,,,,,,,,,,,,,,,,,,,,,,,,,,,,,,,,,,,,,,,,,,,,111,151507,19,Female,1,2024/03/21_12:26:36,YZ,None,
,,,,,,calibration,0,30,2,679,9,C,0,right,0.5594794339995133,1,0,,,,,,,,,,,,,,,,,,,,,1,,,,,,,,,,,,,,,,,,,,,,,,,,,,,,,,,,,,,,,,,,,,,,111,151507,19,Female,1,2024/03/21_12:26:36,YZ,None,
,,,,,,calibration,0,30,2,679,10,V,0,right,1.0179739010000048,1,0,,,,,,,,,,,,,,,,,,,,,1,,,,,,,,,,,,,,,,,,,,,,,,,,,,,,,,,,,,,,,,,,,,,,111,151507,19,Female,1,2024/03/21_12:26:36,YZ,None,
,,,,,,calibration,0,30,2,679,11,J,0,right,1.2826950959988608,1,0,,,,,,,,,,,,,,,,,,,,,1,,,,,,,,,,,,,,,,,,,,,,,,,,,,,,,,,,,,,,,,,,,,,,111,151507,19,Female,1,2024/03/21_12:26:36,YZ,None,
,,,,,,calibration,0,30,2,679,12,V,1,right,1.6588070449997758,0,0,,,,,,,,,,,,,,,,,,,,,1,,,,,,,,,,,,,,,,,,,,,,,,,,,,,,,,,,,,,,,,,,,,,,111,151507,19,Female,1,2024/03/21_12:26:36,YZ,None,
,,,,,,calibration,0,30,2,679,13,N,0,right,1.4121910199992271,1,0,,,,,,,,,,,,,,,,,,,,,1,,,,,,,,,,,,,,,,,,,,,,,,,,,,,,,,,,,,,,,,,,,,,,111,151507,19,Female,1,2024/03/21_12:26:36,YZ,None,
,,,,,,calibration,0,30,2,679,14,V,1,right,0.7822840950011596,0,0,,,,,,,,,,,,,,,,,,,,,1,,,,,,,,,,,,,,,,,,,,,,,,,,,,,,,,,,,,,,,,,,,,,,111,151507,19,Female,1,2024/03/21_12:26:36,YZ,None,
,,,,,,calibration,0,30,2,679,,,,,,,,0.225,0.0,0.1,0.875,0.14285714285714285,0.7571428571428571,0.8996553924998807,0,1,0,2,2,7,7,4,10,0,,,,1,,,,,,,,,,,,,,,,,,,,,,,,,,,,,,,,,,,,,,,,,,,,,,111,151507,19,Female,1,2024/03/21_12:26:36,YZ,None,
,,,,,,Calibration,0,,2,679,,,,,,,,,,,,,,,,,,,,,,,,,2,,,1,,,,,,,,,,,,,,,,,,,,,,,,,,,,,,,,,,,,,,,,,,,,,,111,151507,19,Female,1,2024/03/21_12:26:36,YZ,None,
,,,,,,calibration,0,28,2,788,1,V,0,None,nan,0,1,,,,,,,,,,,,,,,,,,,,,1,,,,,,,,,,,,,,,,,,,,,,,,,,,,,,,,,,,,,,,,,,,,,,111,151507,19,Female,1,2024/03/21_12:26:36,YZ,None,
,,,,,,calibration,0,28,2,788,2,V,0,None,nan,0,1,,,,,,,,,,,,,,,,,,,,,1,,,,,,,,,,,,,,,,,,,,,,,,,,,,,,,,,,,,,,,,,,,,,,111,151507,19,Female,1,2024/03/21_12:26:36,YZ,None,
,,,,,,calibration,0,28,2,788,3,F,0,None,nan,0,1,,,,,,,,,,,,,,,,,,,,,1,,,,,,,,,,,,,,,,,,,,,,,,,,,,,,,,,,,,,,,,,,,,,,111,151507,19,Female,1,2024/03/21_12:26:36,YZ,None,
,,,,,,calibration,0,28,2,788,4,X,0,None,nan,0,1,,,,,,,,,,,,,,,,,,,,,1,,,,,,,,,,,,,,,,,,,,,,,,,,,,,,,,,,,,,,,,,,,,,,111,151507,19,Female,1,2024/03/21_12:26:36,YZ,None,
,,,,,,calibration,0,28,2,788,5,F,1,left,0.8762705930002994,1,0,,,,,,,,,,,,,,,,,,,,,1,,,,,,,,,,,,,,,,,,,,,,,,,,,,,,,,,,,,,,,,,,,,,,111,151507,19,Female,1,2024/03/21_12:26:36,YZ,None,
,,,,,,calibration,0,28,2,788,6,V,0,right,1.2367663320001157,1,0,,,,,,,,,,,,,,,,,,,,,1,,,,,,,,,,,,,,,,,,,,,,,,,,,,,,,,,,,,,,,,,,,,,,111,151507,19,Female,1,2024/03/21_12:26:36,YZ,None,
,,,,,,calibration,0,28,2,788,7,F,1,right,1.3523929759994644,0,0,,,,,,,,,,,,,,,,,,,,,1,,,,,,,,,,,,,,,,,,,,,,,,,,,,,,,,,,,,,,,,,,,,,,111,151507,19,Female,1,2024/03/21_12:26:36,YZ,None,
,,,,,,calibration,0,28,2,788,8,Q,0,right,1.90864680499908,1,0,,,,,,,,,,,,,,,,,,,,,1,,,,,,,,,,,,,,,,,,,,,,,,,,,,,,,,,,,,,,,,,,,,,,111,151507,19,Female,1,2024/03/21_12:26:36,YZ,None,
,,,,,,calibration,0,28,2,788,9,S,0,right,1.6581415190012194,1,0,,,,,,,,,,,,,,,,,,,,,1,,,,,,,,,,,,,,,,,,,,,,,,,,,,,,,,,,,,,,,,,,,,,,111,151507,19,Female,1,2024/03/21_12:26:36,YZ,None,
,,,,,,calibration,0,28,2,788,10,Q,1,left,1.4406974379999156,1,0,,,,,,,,,,,,,,,,,,,,,1,,,,,,,,,,,,,,,,,,,,,,,,,,,,,,,,,,,,,,,,,,,,,,111,151507,19,Female,1,2024/03/21_12:26:36,YZ,None,
,,,,,,calibration,0,28,2,788,11,F,0,right,0.957776212000681,1,0,,,,,,,,,,,,,,,,,,,,,1,,,,,,,,,,,,,,,,,,,,,,,,,,,,,,,,,,,,,,,,,,,,,,111,151507,19,Female,1,2024/03/21_12:26:36,YZ,None,
,,,,,,calibration,0,28,2,788,12,Q,1,left,0.9244830759998877,1,0,,,,,,,,,,,,,,,,,,,,,1,,,,,,,,,,,,,,,,,,,,,,,,,,,,,,,,,,,,,,,,,,,,,,111,151507,19,Female,1,2024/03/21_12:26:36,YZ,None,
,,,,,,calibration,0,28,2,788,13,J,0,right,0.7884478399992076,1,0,,,,,,,,,,,,,,,,,,,,,1,,,,,,,,,,,,,,,,,,,,,,,,,,,,,,,,,,,,,,,,,,,,,,111,151507,19,Female,1,2024/03/21_12:26:36,YZ,None,
,,,,,,calibration,0,28,2,788,,,,,,,,0.9375,0.75,0.0,1.0,0.3076923076923077,0.6923076923076923,1.2381803101110966,3,0,0,4,4,5,8,4,9,0,,,,1,,,,,,,,,,,,,,,,,,,,,,,,,,,,,,,,,,,,,,,,,,,,,,111,151507,19,Female,1,2024/03/21_12:26:36,YZ,None,
,,,,,,Calibration,0,,2,788,,,,,,,,,,,,,,,,,,,,,,,,,3,,,1,,,,,,,,,,,,,,,,,,,,,,,,,,,,,,,,,,,,,,,,,,,,,,111,151507,19,Female,1,2024/03/21_12:26:36,YZ,None,
,,,,,,calibration,0,23,2,679,1,J,0,None,nan,0,1,,,,,,,,,,,,,,,,,,,,,1,,,,,,,,,,,,,,,,,,,,,,,,,,,,,,,,,,,,,,,,,,,,,,111,151507,19,Female,1,2024/03/21_12:26:36,YZ,None,
,,,,,,calibration,0,23,2,679,2,S,0,right,0.8255098810004711,1,0,,,,,,,,,,,,,,,,,,,,,1,,,,,,,,,,,,,,,,,,,,,,,,,,,,,,,,,,,,,,,,,,,,,,111,151507,19,Female,1,2024/03/21_12:26:36,YZ,None,
,,,,,,calibration,0,23,2,679,3,F,0,right,0.8252087010005198,1,0,,,,,,,,,,,,,,,,,,,,,1,,,,,,,,,,,,,,,,,,,,,,,,,,,,,,,,,,,,,,,,,,,,,,111,151507,19,Female,1,2024/03/21_12:26:36,YZ,None,
,,,,,,calibration,0,23,2,679,4,S,1,left,0.8484464320008556,1,0,,,,,,,,,,,,,,,,,,,,,1,,,,,,,,,,,,,,,,,,,,,,,,,,,,,,,,,,,,,,,,,,,,,,111,151507,19,Female,1,2024/03/21_12:26:36,YZ,None,
,,,,,,calibration,0,23,2,679,5,Q,0,right,1.375861898999574,1,0,,,,,,,,,,,,,,,,,,,,,1,,,,,,,,,,,,,,,,,,,,,,,,,,,,,,,,,,,,,,,,,,,,,,111,151507,19,Female,1,2024/03/21_12:26:36,YZ,None,
,,,,,,calibration,0,23,2,679,6,C,0,right,1.4926869999999326,1,0,,,,,,,,,,,,,,,,,,,,,1,,,,,,,,,,,,,,,,,,,,,,,,,,,,,,,,,,,,,,,,,,,,,,111,151507,19,Female,1,2024/03/21_12:26:36,YZ,None,
,,,,,,calibration,0,23,2,679,7,S,0,left,0.7743891610007267,0,0,,,,,,,,,,,,,,,,,,,,,1,,,,,,,,,,,,,,,,,,,,,,,,,,,,,,,,,,,,,,,,,,,,,,111,151507,19,Female,1,2024/03/21_12:26:36,YZ,None,
,,,,,,calibration,0,23,2,679,8,X,0,right,0.930441194001105,1,0,,,,,,,,,,,,,,,,,,,,,1,,,,,,,,,,,,,,,,,,,,,,,,,,,,,,,,,,,,,,,,,,,,,,111,151507,19,Female,1,2024/03/21_12:26:36,YZ,None,
,,,,,,calibration,0,23,2,679,9,S,1,left,0.7097620650001772,1,0,,,,,,,,,,,,,,,,,,,,,1,,,,,,,,,,,,,,,,,,,,,,,,,,,,,,,,,,,,,,,,,,,,,,111,151507,19,Female,1,2024/03/21_12:26:36,YZ,None,
,,,,,,calibration,0,23,2,679,10,C,0,right,0.5409529749995272,1,0,,,,,,,,,,,,,,,,,,,,,1,,,,,,,,,,,,,,,,,,,,,,,,,,,,,,,,,,,,,,,,,,,,,,111,151507,19,Female,1,2024/03/21_12:26:36,YZ,None,
,,,,,,calibration,0,23,2,679,11,N,0,right,0.7604058509987226,1,0,,,,,,,,,,,,,,,,,,,,,1,,,,,,,,,,,,,,,,,,,,,,,,,,,,,,,,,,,,,,,,,,,,,,111,151507,19,Female,1,2024/03/21_12:26:36,YZ,None,
,,,,,,calibration,0,23,2,679,12,C,1,left,1.0254590419990564,1,0,,,,,,,,,,,,,,,,,,,,,1,,,,,,,,,,,,,,,,,,,,,,,,,,,,,,,,,,,,,,,,,,,,,,111,151507,19,Female,1,2024/03/21_12:26:36,YZ,None,
,,,,,,calibration,0,23,2,679,13,S,0,right,1.2357670519995736,1,0,,,,,,,,,,,,,,,,,,,,,1,,,,,,,,,,,,,,,,,,,,,,,,,,,,,,,,,,,,,,,,,,,,,,111,151507,19,Female,1,2024/03/21_12:26:36,YZ,None,
,,,,,,calibration,0,23,2,679,14,C,1,left,0.6553427139988344,1,0,,,,,,,,,,,,,,,,,,,,,1,,,,,,,,,,,,,,,,,,,,,,,,,,,,,,,,,,,,,,,,,,,,,,111,151507,19,Female,1,2024/03/21_12:26:36,YZ,None,
,,,,,,calibration,0,23,2,679,,,,,,,,0.975,1.0,0.1,0.8888888888888888,0.07142857142857142,0.8285714285714286,0.9230949205383905,4,1,0,1,1,8,12,4,10,0,,,,1,,,,,,,,,,,,,,,,,,,,,,,,,,,,,,,,,,,,,,,,,,,,,,111,151507,19,Female,1,2024/03/21_12:26:36,YZ,None,
,,,,,,Calibration,0,,2,679,,,,,,,,,,,,,,,,,,,,,,,,,4,,,1,,,,,,,,,,,,,,,,,,,,,,,,,,,,,,,,,,,,,,,,,,,,,,111,151507,19,Female,1,2024/03/21_12:26:36,YZ,None,
,,,,,,calibration,0,29,2,583,1,X,0,right,1.2769100400000752,1,0,,,,,,,,,,,,,,,,,,,,,1,,,,,,,,,,,,,,,,,,,,,,,,,,,,,,,,,,,,,,,,,,,,,,111,151507,19,Female,1,2024/03/21_12:26:36,YZ,None,
,,,,,,calibration,0,29,2,583,2,Q,0,right,0.5915260430010676,1,0,,,,,,,,,,,,,,,,,,,,,1,,,,,,,,,,,,,,,,,,,,,,,,,,,,,,,,,,,,,,,,,,,,,,111,151507,19,Female,1,2024/03/21_12:26:36,YZ,None,
,,,,,,calibration,0,29,2,583,3,F,0,right,0.7925639730001421,1,0,,,,,,,,,,,,,,,,,,,,,1,,,,,,,,,,,,,,,,,,,,,,,,,,,,,,,,,,,,,,,,,,,,,,111,151507,19,Female,1,2024/03/21_12:26:36,YZ,None,
,,,,,,calibration,0,29,2,583,4,Q,1,left,0.6952689350000583,1,0,,,,,,,,,,,,,,,,,,,,,1,,,,,,,,,,,,,,,,,,,,,,,,,,,,,,,,,,,,,,,,,,,,,,111,151507,19,Female,1,2024/03/21_12:26:36,YZ,None,
,,,,,,calibration,0,29,2,583,5,N,0,left,0.9414818139994168,0,0,,,,,,,,,,,,,,,,,,,,,1,,,,,,,,,,,,,,,,,,,,,,,,,,,,,,,,,,,,,,,,,,,,,,111,151507,19,Female,1,2024/03/21_12:26:36,YZ,None,
,,,,,,calibration,0,29,2,583,6,S,0,right,0.8697321879990341,1,0,,,,,,,,,,,,,,,,,,,,,1,,,,,,,,,,,,,,,,,,,,,,,,,,,,,,,,,,,,,,,,,,,,,,111,151507,19,Female,1,2024/03/21_12:26:36,YZ,None,
,,,,,,calibration,0,29,2,583,7,N,1,left,0.7379042209995532,1,0,,,,,,,,,,,,,,,,,,,,,1,,,,,,,,,,,,,,,,,,,,,,,,,,,,,,,,,,,,,,,,,,,,,,111,151507,19,Female,1,2024/03/21_12:26:36,YZ,None,
,,,,,,calibration,0,29,2,583,8,Q,0,left,0.8587903999996342,0,0,,,,,,,,,,,,,,,,,,,,,1,,,,,,,,,,,,,,,,,,,,,,,,,,,,,,,,,,,,,,,,,,,,,,111,151507,19,Female,1,2024/03/21_12:26:36,YZ,None,
,,,,,,calibration,0,29,2,583,9,V,0,right,0.5475222189998021,1,0,,,,,,,,,,,,,,,,,,,,,1,,,,,,,,,,,,,,,,,,,,,,,,,,,,,,,,,,,,,,,,,,,,,,111,151507,19,Female,1,2024/03/21_12:26:36,YZ,None,
,,,,,,calibration,0,29,2,583,10,N,0,left,0.8085449529990001,0,0,,,,,,,,,,,,,,,,,,,,,1,,,,,,,,,,,,,,,,,,,,,,,,,,,,,,,,,,,,,,,,,,,,,,111,151507,19,Female,1,2024/03/21_12:26:36,YZ,None,
,,,,,,calibration,0,29,2,583,11,V,1,right,0.6297539000006509,0,0,,,,,,,,,,,,,,,,,,,,,1,,,,,,,,,,,,,,,,,,,,,,,,,,,,,,,,,,,,,,,,,,,,,,111,151507,19,Female,1,2024/03/21_12:26:36,YZ,None,
,,,,,,calibration,0,29,2,583,12,X,0,right,0.8246679439998843,1,0,,,,,,,,,,,,,,,,,,,,,1,,,,,,,,,,,,,,,,,,,,,,,,,,,,,,,,,,,,,,,,,,,,,,111,151507,19,Female,1,2024/03/21_12:26:36,YZ,None,
,,,,,,calibration,0,29,2,583,13,C,0,left,0.6723405339998862,0,0,,,,,,,,,,,,,,,,,,,,,1,,,,,,,,,,,,,,,,,,,,,,,,,,,,,,,,,,,,,,,,,,,,,,111,151507,19,Female,1,2024/03/21_12:26:36,YZ,None,
,,,,,,calibration,0,29,2,583,14,X,1,right,0.7199830350000411,0,0,,,,,,,,,,,,,,,,,,,,,1,,,,,,,,,,,,,,,,,,,,,,,,,,,,,,,,,,,,,,,,,,,,,,111,151507,19,Female,1,2024/03/21_12:26:36,YZ,None,
,,,,,,calibration,0,29,2,583,15,V,0,left,0.680077667999285,0,0,,,,,,,,,,,,,,,,,,,,,1,,,,,,,,,,,,,,,,,,,,,,,,,,,,,,,,,,,,,,,,,,,,,,111,151507,19,Female,1,2024/03/21_12:26:36,YZ,None,
,,,,,,calibration,0,29,2,583,,,,,,,,0.5340909090909091,0.5,0.45454545454545453,0.5454545454545454,0.0,0.5454545454545454,0.7764711911331688,2,5,0,0,0,6,8,4,11,0,,,,1,,,,,,,,,,,,,,,,,,,,,,,,,,,,,,,,,,,,,,,,,,,,,,111,151507,19,Female,1,2024/03/21_12:26:36,YZ,None,
,,,,,,Calibration,0,,2,583,,,,,,,,,,,,,,,,,,,,,,,,,5,,,1,,,,,,,,,,,,,,,,,,,,,,,,,,,,,,,,,,,,,,,,,,,,,,111,151507,19,Female,1,2024/03/21_12:26:36,YZ,None,
,,,,,,calibration,0,22,2,679,1,V,0,right,1.3148605709993717,1,0,,,,,,,,,,,,,,,,,,,,,1,,,,,,,,,,,,,,,,,,,,,,,,,,,,,,,,,,,,,,,,,,,,,,111,151507,19,Female,1,2024/03/21_12:26:36,YZ,None,
,,,,,,calibration,0,22,2,679,2,Q,0,right,0.7271403100003226,1,0,,,,,,,,,,,,,,,,,,,,,1,,,,,,,,,,,,,,,,,,,,,,,,,,,,,,,,,,,,,,,,,,,,,,111,151507,19,Female,1,2024/03/21_12:26:36,YZ,None,
,,,,,,calibration,0,22,2,679,3,V,1,left,0.708225903001221,1,0,,,,,,,,,,,,,,,,,,,,,1,,,,,,,,,,,,,,,,,,,,,,,,,,,,,,,,,,,,,,,,,,,,,,111,151507,19,Female,1,2024/03/21_12:26:36,YZ,None,
,,,,,,calibration,0,22,2,679,4,J,0,right,0.6189695459997893,1,0,,,,,,,,,,,,,,,,,,,,,1,,,,,,,,,,,,,,,,,,,,,,,,,,,,,,,,,,,,,,,,,,,,,,111,151507,19,Female,1,2024/03/21_12:26:36,YZ,None,
,,,,,,calibration,0,22,2,679,5,N,0,right,0.6373154989996692,1,0,,,,,,,,,,,,,,,,,,,,,1,,,,,,,,,,,,,,,,,,,,,,,,,,,,,,,,,,,,,,,,,,,,,,111,151507,19,Female,1,2024/03/21_12:26:36,YZ,None,
,,,,,,calibration,0,22,2,679,6,J,1,right,0.8728802619989438,0,0,,,,,,,,,,,,,,,,,,,,,1,,,,,,,,,,,,,,,,,,,,,,,,,,,,,,,,,,,,,,,,,,,,,,111,151507,19,Female,1,2024/03/21_12:26:36,YZ,None,
,,,,,,calibration,0,22,2,679,7,S,0,right,0.6699184400004015,1,0,,,,,,,,,,,,,,,,,,,,,1,,,,,,,,,,,,,,,,,,,,,,,,,,,,,,,,,,,,,,,,,,,,,,111,151507,19,Female,1,2024/03/21_12:26:36,YZ,None,
,,,,,,calibration,0,22,2,679,8,V,0,left,0.5691567710000527,0,0,,,,,,,,,,,,,,,,,,,,,1,,,,,,,,,,,,,,,,,,,,,,,,,,,,,,,,,,,,,,,,,,,,,,111,151507,19,Female,1,2024/03/21_12:26:36,YZ,None,
,,,,,,calibration,0,22,2,679,9,X,0,right,1.0477298109999538,1,0,,,,,,,,,,,,,,,,,,,,,1,,,,,,,,,,,,,,,,,,,,,,,,,,,,,,,,,,,,,,,,,,,,,,111,151507,19,Female,1,2024/03/21_12:26:36,YZ,None,
,,,,,,calibration,0,22,2,679,10,N,0,right,0.8511337759991875,1,0,,,,,,,,,,,,,,,,,,,,,1,,,,,,,,,,,,,,,,,,,,,,,,,,,,,,,,,,,,,,,,,,,,,,111,151507,19,Female,1,2024/03/21_12:26:36,YZ,None,
,,,,,,calibration,0,22,2,679,11,S,0,left,0.6478393580000557,0,0,,,,,,,,,,,,,,,,,,,,,1,,,,,,,,,,,,,,,,,,,,,,,,,,,,,,,,,,,,,,,,,,,,,,111,151507,19,Female,1,2024/03/21_12:26:36,YZ,None,
,,,,,,calibration,0,22,2,679,12,N,1,left,0.7644924189989979,1,0,,,,,,,,,,,,,,,,,,,,,1,,,,,,,,,,,,,,,,,,,,,,,,,,,,,,,,,,,,,,,,,,,,,,111,151507,19,Female,1,2024/03/21_12:26:36,YZ,None,
,,,,,,calibration,0,22,2,679,13,Q,0,right,0.6255461809996632,1,0,,,,,,,,,,,,,,,,,,,,,1,,,,,,,,,,,,,,,,,,,,,,,,,,,,,,,,,,,,,,,,,,,,,,111,151507,19,Female,1,2024/03/21_12:26:36,YZ,None,
,,,,,,calibration,0,22,2,679,14,N,1,left,0.8251794349998818,1,0,,,,,,,,,,,,,,,,,,,,,1,,,,,,,,,,,,,,,,,,,,,,,,,,,,,,,,,,,,,,,,,,,,,,111,151507,19,Female,1,2024/03/21_12:26:36,YZ,None,
,,,,,,calibration,0,22,2,679,,,,,,,,0.8374999999999999,0.75,0.2,0.8,0.0,0.8,0.7771705915712508,3,2,0,0,0,8,11,4,10,0,,,,1,,,,,,,,,,,,,,,,,,,,,,,,,,,,,,,,,,,,,,,,,,,,,,111,151507,19,Female,1,2024/03/21_12:26:36,YZ,None,
,,,,,,Calibration,0,,2,679,,,,,,,,,,,,,,,,,,,,,,,,,6,,,1,,,,,,,,,,,,,,,,,,,,,,,,,,,,,,,,,,,,,,,,,,,,,,111,151507,19,Female,1,2024/03/21_12:26:36,YZ,None,
,,,,,,calibration,0,34,2,679,1,Q,0,right,0.621695785999691,1,0,,,,,,,,,,,,,,,,,,,,,1,,,,,,,,,,,,,,,,,,,,,,,,,,,,,,,,,,,,,,,,,,,,,,111,151507,19,Female,1,2024/03/21_12:26:36,YZ,None,
,,,,,,calibration,0,34,2,679,2,Q,0,right,0.5411583149998478,1,0,,,,,,,,,,,,,,,,,,,,,1,,,,,,,,,,,,,,,,,,,,,,,,,,,,,,,,,,,,,,,,,,,,,,111,151507,19,Female,1,2024/03/21_12:26:36,YZ,None,
,,,,,,calibration,0,34,2,679,3,Q,1,left,0.6513957509996544,1,0,,,,,,,,,,,,,,,,,,,,,1,,,,,,,,,,,,,,,,,,,,,,,,,,,,,,,,,,,,,,,,,,,,,,111,151507,19,Female,1,2024/03/21_12:26:36,YZ,None,
,,,,,,calibration,0,34,2,679,4,Q,1,left,0.68707226999868,1,0,,,,,,,,,,,,,,,,,,,,,1,,,,,,,,,,,,,,,,,,,,,,,,,,,,,,,,,,,,,,,,,,,,,,111,151507,19,Female,1,2024/03/21_12:26:36,YZ,None,
,,,,,,calibration,0,34,2,679,5,X,0,right,0.5894776209988777,1,0,,,,,,,,,,,,,,,,,,,,,1,,,,,,,,,,,,,,,,,,,,,,,,,,,,,,,,,,,,,,,,,,,,,,111,151507,19,Female,1,2024/03/21_12:26:36,YZ,None,
,,,,,,calibration,0,34,2,679,6,C,0,right,0.6739677670011588,1,0,,,,,,,,,,,,,,,,,,,,,1,,,,,,,,,,,,,,,,,,,,,,,,,,,,,,,,,,,,,,,,,,,,,,111,151507,19,Female,1,2024/03/21_12:26:36,YZ,None,
,,,,,,calibration,0,34,2,679,7,F,0,right,0.6859500680002384,1,0,,,,,,,,,,,,,,,,,,,,,1,,,,,,,,,,,,,,,,,,,,,,,,,,,,,,,,,,,,,,,,,,,,,,111,151507,19,Female,1,2024/03/21_12:26:36,YZ,None,
,,,,,,calibration,0,34,2,679,8,J,0,right,0.6349930670003232,1,0,,,,,,,,,,,,,,,,,,,,,1,,,,,,,,,,,,,,,,,,,,,,,,,,,,,,,,,,,,,,,,,,,,,,111,151507,19,Female,1,2024/03/21_12:26:36,YZ,None,
,,,,,,calibration,0,34,2,679,9,F,1,right,0.8096881199999189,0,0,,,,,,,,,,,,,,,,,,,,,1,,,,,,,,,,,,,,,,,,,,,,,,,,,,,,,,,,,,,,,,,,,,,,111,151507,19,Female,1,2024/03/21_12:26:36,YZ,None,
,,,,,,calibration,0,34,2,679,10,Q,0,right,0.7668274660009047,1,0,,,,,,,,,,,,,,,,,,,,,1,,,,,,,,,,,,,,,,,,,,,,,,,,,,,,,,,,,,,,,,,,,,,,111,151507,19,Female,1,2024/03/21_12:26:36,YZ,None,
,,,,,,calibration,0,34,2,679,11,V,0,right,0.724691385999904,1,0,,,,,,,,,,,,,,,,,,,,,1,,,,,,,,,,,,,,,,,,,,,,,,,,,,,,,,,,,,,,,,,,,,,,111,151507,19,Female,1,2024/03/21_12:26:36,YZ,None,
,,,,,,calibration,0,34,2,679,12,C,0,right,0.8418659150011081,1,0,,,,,,,,,,,,,,,,,,,,,1,,,,,,,,,,,,,,,,,,,,,,,,,,,,,,,,,,,,,,,,,,,,,,111,151507,19,Female,1,2024/03/21_12:26:36,YZ,None,
,,,,,,calibration,0,34,2,679,13,J,0,right,0.6569053359999089,1,0,,,,,,,,,,,,,,,,,,,,,1,,,,,,,,,,,,,,,,,,,,,,,,,,,,,,,,,,,,,,,,,,,,,,111,151507,19,Female,1,2024/03/21_12:26:36,YZ,None,
,,,,,,calibration,0,34,2,679,14,C,1,left,0.5405142109993903,1,0,,,,,,,,,,,,,,,,,,,,,1,,,,,,,,,,,,,,,,,,,,,,,,,,,,,,,,,,,,,,,,,,,,,,111,151507,19,Female,1,2024/03/21_12:26:36,YZ,None,
,,,,,,calibration,0,34,2,679,,,,,,,,0.9375,0.75,0.0,1.0,0.0,1.0,0.6733002199285433,3,0,0,0,0,10,13,4,10,0,,,,1,,,,,,,,,,,,,,,,,,,,,,,,,,,,,,,,,,,,,,,,,,,,,,111,151507,19,Female,1,2024/03/21_12:26:36,YZ,None,
,,,,,,Calibration,0,,2,679,,,,,,,,,,,,,,,,,,,,,,,,,7,,,1,,,,,,,,,,,,,,,,,,,,,,,,,,,,,,,,,,,,,,,,,,,,,,111,151507,19,Female,1,2024/03/21_12:26:36,YZ,None,
,,,,,,calibration,0,19,2,583,1,C,0,right,0.546456333999231,1,0,,,,,,,,,,,,,,,,,,,,,1,,,,,,,,,,,,,,,,,,,,,,,,,,,,,,,,,,,,,,,,,,,,,,111,151507,19,Female,1,2024/03/21_12:26:36,YZ,None,
,,,,,,calibration,0,19,2,583,2,F,0,right,0.49822918900099467,1,0,,,,,,,,,,,,,,,,,,,,,1,,,,,,,,,,,,,,,,,,,,,,,,,,,,,,,,,,,,,,,,,,,,,,111,151507,19,Female,1,2024/03/21_12:26:36,YZ,None,
,,,,,,calibration,0,19,2,583,3,V,0,right,0.5914772950000042,1,0,,,,,,,,,,,,,,,,,,,,,1,,,,,,,,,,,,,,,,,,,,,,,,,,,,,,,,,,,,,,,,,,,,,,111,151507,19,Female,1,2024/03/21_12:26:36,YZ,None,
,,,,,,calibration,0,19,2,583,4,N,0,right,0.6412940430000162,1,0,,,,,,,,,,,,,,,,,,,,,1,,,,,,,,,,,,,,,,,,,,,,,,,,,,,,,,,,,,,,,,,,,,,,111,151507,19,Female,1,2024/03/21_12:26:36,YZ,None,
,,,,,,calibration,0,19,2,583,5,Q,0,right,0.7516244029993686,1,0,,,,,,,,,,,,,,,,,,,,,1,,,,,,,,,,,,,,,,,,,,,,,,,,,,,,,,,,,,,,,,,,,,,,111,151507,19,Female,1,2024/03/21_12:26:36,YZ,None,
,,,,,,calibration,0,19,2,583,6,N,1,left,0.7231716660007805,1,0,,,,,,,,,,,,,,,,,,,,,1,,,,,,,,,,,,,,,,,,,,,,,,,,,,,,,,,,,,,,,,,,,,,,111,151507,19,Female,1,2024/03/21_12:26:36,YZ,None,
,,,,,,calibration,0,19,2,583,7,Q,1,right,0.7011059739998018,0,0,,,,,,,,,,,,,,,,,,,,,1,,,,,,,,,,,,,,,,,,,,,,,,,,,,,,,,,,,,,,,,,,,,,,111,151507,19,Female,1,2024/03/21_12:26:36,YZ,None,
,,,,,,calibration,0,19,2,583,8,S,0,right,0.7355316789999051,1,0,,,,,,,,,,,,,,,,,,,,,1,,,,,,,,,,,,,,,,,,,,,,,,,,,,,,,,,,,,,,,,,,,,,,111,151507,19,Female,1,2024/03/21_12:26:36,YZ,None,
,,,,,,calibration,0,19,2,583,9,X,0,right,0.620472853001047,1,0,,,,,,,,,,,,,,,,,,,,,1,,,,,,,,,,,,,,,,,,,,,,,,,,,,,,,,,,,,,,,,,,,,,,111,151507,19,Female,1,2024/03/21_12:26:36,YZ,None,
,,,,,,calibration,0,19,2,583,10,V,0,left,0.7133375859993976,0,0,,,,,,,,,,,,,,,,,,,,,1,,,,,,,,,,,,,,,,,,,,,,,,,,,,,,,,,,,,,,,,,,,,,,111,151507,19,Female,1,2024/03/21_12:26:36,YZ,None,
,,,,,,calibration,0,19,2,583,11,F,0,right,0.6412999439999112,1,0,,,,,,,,,,,,,,,,,,,,,1,,,,,,,,,,,,,,,,,,,,,,,,,,,,,,,,,,,,,,,,,,,,,,111,151507,19,Female,1,2024/03/21_12:26:36,YZ,None,
,,,,,,calibration,0,19,2,583,12,V,1,left,0.6103716799989343,1,0,,,,,,,,,,,,,,,,,,,,,1,,,,,,,,,,,,,,,,,,,,,,,,,,,,,,,,,,,,,,,,,,,,,,111,151507,19,Female,1,2024/03/21_12:26:36,YZ,None,
,,,,,,calibration,0,19,2,583,13,C,0,right,0.6475613620004879,1,0,,,,,,,,,,,,,,,,,,,,,1,,,,,,,,,,,,,,,,,,,,,,,,,,,,,,,,,,,,,,,,,,,,,,111,151507,19,Female,1,2024/03/21_12:26:36,YZ,None,
,,,,,,calibration,0,19,2,583,14,V,1,left,0.6405765640010941,1,0,,,,,,,,,,,,,,,,,,,,,1,,,,,,,,,,,,,,,,,,,,,,,,,,,,,,,,,,,,,,,,,,,,,,111,151507,19,Female,1,2024/03/21_12:26:36,YZ,None,
,,,,,,calibration,0,19,2,583,15,N,0,right,0.5967718240008253,1,0,,,,,,,,,,,,,,,,,,,,,1,,,,,,,,,,,,,,,,,,,,,,,,,,,,,,,,,,,,,,,,,,,,,,111,151507,19,Female,1,2024/03/21_12:26:36,YZ,None,
,,,,,,calibration,0,19,2,583,,,,,,,,0.8920454545454546,0.75,0.09090909090909091,0.9090909090909091,0.0,0.9090909090909091,0.6439521597334533,3,1,0,0,0,10,13,4,11,0,,,,1,,,,,,,,,,,,,,,,,,,,,,,,,,,,,,,,,,,,,,,,,,,,,,111,151507,19,Female,1,2024/03/21_12:26:36,YZ,None,
,,,,,,Calibration,0,,2,583,,,,,,,,,,,,,,,,,,,,,,,,,8,,,1,,,,,,,,,,,,,,,,,,,,,,,,,,,,,,,,,,,,,,,,,,,,,,111,151507,19,Female,1,2024/03/21_12:26:36,YZ,None,
,,,,,,calibration,0,26,2,500,1,Q,0,None,nan,0,1,,,,,,,,,,,,,,,,,,,,,1,,,,,,,,,,,,,,,,,,,,,,,,,,,,,,,,,,,,,,,,,,,,,,111,151507,19,Female,1,2024/03/21_12:26:36,YZ,None,
,,,,,,calibration,0,26,2,500,2,S,0,right,0.4192702000000281,1,0,,,,,,,,,,,,,,,,,,,,,1,,,,,,,,,,,,,,,,,,,,,,,,,,,,,,,,,,,,,,,,,,,,,,111,151507,19,Female,1,2024/03/21_12:26:36,YZ,None,
,,,,,,calibration,0,26,2,500,3,N,0,right,0.6981359729998076,1,0,,,,,,,,,,,,,,,,,,,,,1,,,,,,,,,,,,,,,,,,,,,,,,,,,,,,,,,,,,,,,,,,,,,,111,151507,19,Female,1,2024/03/21_12:26:36,YZ,None,
,,,,,,calibration,0,26,2,500,4,S,1,left,0.5645724409987452,1,0,,,,,,,,,,,,,,,,,,,,,1,,,,,,,,,,,,,,,,,,,,,,,,,,,,,,,,,,,,,,,,,,,,,,111,151507,19,Female,1,2024/03/21_12:26:36,YZ,None,
,,,,,,calibration,0,26,2,500,5,C,0,right,0.6470693609990121,1,0,,,,,,,,,,,,,,,,,,,,,1,,,,,,,,,,,,,,,,,,,,,,,,,,,,,,,,,,,,,,,,,,,,,,111,151507,19,Female,1,2024/03/21_12:26:36,YZ,None,
,,,,,,calibration,0,26,2,500,6,S,1,left,0.5315525830010301,1,0,,,,,,,,,,,,,,,,,,,,,1,,,,,,,,,,,,,,,,,,,,,,,,,,,,,,,,,,,,,,,,,,,,,,111,151507,19,Female,1,2024/03/21_12:26:36,YZ,None,
,,,,,,calibration,0,26,2,500,7,N,0,left,0.6579361950007296,0,0,,,,,,,,,,,,,,,,,,,,,1,,,,,,,,,,,,,,,,,,,,,,,,,,,,,,,,,,,,,,,,,,,,,,111,151507,19,Female,1,2024/03/21_12:26:36,YZ,None,
,,,,,,calibration,0,26,2,500,8,C,0,right,0.6030849290000333,1,0,,,,,,,,,,,,,,,,,,,,,1,,,,,,,,,,,,,,,,,,,,,,,,,,,,,,,,,,,,,,,,,,,,,,111,151507,19,Female,1,2024/03/21_12:26:36,YZ,None,
,,,,,,calibration,0,26,2,500,9,V,0,right,0.655503210000461,1,0,,,,,,,,,,,,,,,,,,,,,1,,,,,,,,,,,,,,,,,,,,,,,,,,,,,,,,,,,,,,,,,,,,,,111,151507,19,Female,1,2024/03/21_12:26:36,YZ,None,
,,,,,,calibration,0,26,2,500,10,C,1,left,0.7117371450003702,1,0,,,,,,,,,,,,,,,,,,,,,1,,,,,,,,,,,,,,,,,,,,,,,,,,,,,,,,,,,,,,,,,,,,,,111,151507,19,Female,1,2024/03/21_12:26:36,YZ,None,
,,,,,,calibration,0,26,2,500,11,S,0,right,0.7246786910000083,1,0,,,,,,,,,,,,,,,,,,,,,1,,,,,,,,,,,,,,,,,,,,,,,,,,,,,,,,,,,,,,,,,,,,,,111,151507,19,Female,1,2024/03/21_12:26:36,YZ,None,
,,,,,,calibration,0,26,2,500,12,C,1,right,0.5267951259993424,0,0,,,,,,,,,,,,,,,,,,,,,1,,,,,,,,,,,,,,,,,,,,,,,,,,,,,,,,,,,,,,,,,,,,,,111,151507,19,Female,1,2024/03/21_12:26:36,YZ,None,
,,,,,,calibration,0,26,2,500,13,F,0,right,0.8317389880012342,1,0,,,,,,,,,,,,,,,,,,,,,1,,,,,,,,,,,,,,,,,,,,,,,,,,,,,,,,,,,,,,,,,,,,,,111,151507,19,Female,1,2024/03/21_12:26:36,YZ,None,
,,,,,,calibration,0,26,2,500,14,N,0,left,0.6922969700008252,0,0,,,,,,,,,,,,,,,,,,,,,1,,,,,,,,,,,,,,,,,,,,,,,,,,,,,,,,,,,,,,,,,,,,,,111,151507,19,Female,1,2024/03/21_12:26:36,YZ,None,
,,,,,,calibration,0,26,2,500,15,J,0,right,0.5853646879986627,1,0,,,,,,,,,,,,,,,,,,,,,1,,,,,,,,,,,,,,,,,,,,,,,,,,,,,,,,,,,,,,,,,,,,,,111,151507,19,Female,1,2024/03/21_12:26:36,YZ,None,
,,,,,,calibration,0,26,2,500,16,Q,0,right,0.7624028239988547,1,0,,,,,,,,,,,,,,,,,,,,,1,,,,,,,,,,,,,,,,,,,,,,,,,,,,,,,,,,,,,,,,,,,,,,111,151507,19,Female,1,2024/03/21_12:26:36,YZ,None,
,,,,,,calibration,0,26,2,500,,,,,,,,0.8541666666666667,0.75,0.16666666666666666,0.8181818181818182,0.0625,0.7708333333333334,0.6408092882666097,3,2,0,1,1,9,12,4,12,0,,,,1,,,,,,,,,,,,,,,,,,,,,,,,,,,,,,,,,,,,,,,,,,,,,,111,151507,19,Female,1,2024/03/21_12:26:36,YZ,None,
,,,,,,Calibration,0,,2,500,,,,,,,,,,,,,,,,,,,,,,,,,9,,,1,,,,,,,,,,,,,,,,,,,,,,,,,,,,,,,,,,,,,,,,,,,,,,111,151507,19,Female,1,2024/03/21_12:26:36,YZ,None,
,,,,,,calibration,0,9,2,426,1,Q,0,right,0.7370541239997692,1,0,,,,,,,,,,,,,,,,,,,,,1,,,,,,,,,,,,,,,,,,,,,,,,,,,,,,,,,,,,,,,,,,,,,,111,151507,19,Female,1,2024/03/21_12:26:36,YZ,None,
,,,,,,calibration,0,9,2,426,2,Q,0,right,0.5912247590003972,1,0,,,,,,,,,,,,,,,,,,,,,1,,,,,,,,,,,,,,,,,,,,,,,,,,,,,,,,,,,,,,,,,,,,,,111,151507,19,Female,1,2024/03/21_12:26:36,YZ,None,
,,,,,,calibration,0,9,2,426,3,S,0,right,0.5899531430004572,1,0,,,,,,,,,,,,,,,,,,,,,1,,,,,,,,,,,,,,,,,,,,,,,,,,,,,,,,,,,,,,,,,,,,,,111,151507,19,Female,1,2024/03/21_12:26:36,YZ,None,
,,,,,,calibration,0,9,2,426,4,X,0,right,0.545216779999464,1,0,,,,,,,,,,,,,,,,,,,,,1,,,,,,,,,,,,,,,,,,,,,,,,,,,,,,,,,,,,,,,,,,,,,,111,151507,19,Female,1,2024/03/21_12:26:36,YZ,None,
,,,,,,calibration,0,9,2,426,5,S,1,left,0.541938324999137,1,0,,,,,,,,,,,,,,,,,,,,,1,,,,,,,,,,,,,,,,,,,,,,,,,,,,,,,,,,,,,,,,,,,,,,111,151507,19,Female,1,2024/03/21_12:26:36,YZ,None,
,,,,,,calibration,0,9,2,426,6,N,0,right,0.5923953380006424,1,0,,,,,,,,,,,,,,,,,,,,,1,,,,,,,,,,,,,,,,,,,,,,,,,,,,,,,,,,,,,,,,,,,,,,111,151507,19,Female,1,2024/03/21_12:26:36,YZ,None,
,,,,,,calibration,0,9,2,426,7,X,0,right,0.6807848069984175,1,0,,,,,,,,,,,,,,,,,,,,,1,,,,,,,,,,,,,,,,,,,,,,,,,,,,,,,,,,,,,,,,,,,,,,111,151507,19,Female,1,2024/03/21_12:26:36,YZ,None,
,,,,,,calibration,0,9,2,426,8,N,1,left,0.4654698729991651,1,0,,,,,,,,,,,,,,,,,,,,,1,,,,,,,,,,,,,,,,,,,,,,,,,,,,,,,,,,,,,,,,,,,,,,111,151507,19,Female,1,2024/03/21_12:26:36,YZ,None,
,,,,,,calibration,0,9,2,426,9,S,0,right,0.8336189359997661,1,0,,,,,,,,,,,,,,,,,,,,,1,,,,,,,,,,,,,,,,,,,,,,,,,,,,,,,,,,,,,,,,,,,,,,111,151507,19,Female,1,2024/03/21_12:26:36,YZ,None,
,,,,,,calibration,0,9,2,426,10,V,0,right,0.5417375329998322,1,0,,,,,,,,,,,,,,,,,,,,,1,,,,,,,,,,,,,,,,,,,,,,,,,,,,,,,,,,,,,,,,,,,,,,111,151507,19,Female,1,2024/03/21_12:26:36,YZ,None,
,,,,,,calibration,0,9,2,426,11,J,0,right,0.5918134109997482,1,0,,,,,,,,,,,,,,,,,,,,,1,,,,,,,,,,,,,,,,,,,,,,,,,,,,,,,,,,,,,,,,,,,,,,111,151507,19,Female,1,2024/03/21_12:26:36,YZ,None,
,,,,,,calibration,0,9,2,426,12,V,1,left,0.6035658079999848,1,0,,,,,,,,,,,,,,,,,,,,,1,,,,,,,,,,,,,,,,,,,,,,,,,,,,,,,,,,,,,,,,,,,,,,111,151507,19,Female,1,2024/03/21_12:26:36,YZ,None,
,,,,,,calibration,0,9,2,426,13,J,1,right,0.6234678019991406,0,0,,,,,,,,,,,,,,,,,,,,,1,,,,,,,,,,,,,,,,,,,,,,,,,,,,,,,,,,,,,,,,,,,,,,111,151507,19,Female,1,2024/03/21_12:26:36,YZ,None,
,,,,,,calibration,0,9,2,426,14,N,0,right,0.6664666090000537,1,0,,,,,,,,,,,,,,,,,,,,,1,,,,,,,,,,,,,,,,,,,,,,,,,,,,,,,,,,,,,,,,,,,,,,111,151507,19,Female,1,2024/03/21_12:26:36,YZ,None,
,,,,,,calibration,0,9,2,426,15,F,0,right,0.6516121460008435,1,0,,,,,,,,,,,,,,,,,,,,,1,,,,,,,,,,,,,,,,,,,,,,,,,,,,,,,,,,,,,,,,,,,,,,111,151507,19,Female,1,2024/03/21_12:26:36,YZ,None,
,,,,,,calibration,0,9,2,426,16,N,1,left,0.5599908089989185,1,0,,,,,,,,,,,,,,,,,,,,,1,,,,,,,,,,,,,,,,,,,,,,,,,,,,,,,,,,,,,,,,,,,,,,111,151507,19,Female,1,2024/03/21_12:26:36,YZ,None,
,,,,,,calibration,0,9,2,426,17,C,0,right,0.6243725649983389,1,0,,,,,,,,,,,,,,,,,,,,,1,,,,,,,,,,,,,,,,,,,,,,,,,,,,,,,,,,,,,,,,,,,,,,111,151507,19,Female,1,2024/03/21_12:26:36,YZ,None,
,,,,,,calibration,0,9,2,426,,,,,,,,0.95,0.8,0.0,1.0,0.0,1.0,0.6141578098820045,4,0,0,0,0,12,16,5,12,0,,,,1,,,,,,,,,,,,,,,,,,,,,,,,,,,,,,,,,,,,,,,,,,,,,,111,151507,19,Female,1,2024/03/21_12:26:36,YZ,None,
,,,,,,Calibration,0,,2,426,,,,,,,,,,,,,,,,,,,,,,,,,10,,,1,,,,,,,,,,,,,,,,,,,,,,,,,,,,,,,,,,,,,,,,,,,,,,111,151507,19,Female,1,2024/03/21_12:26:36,YZ,None,
,,,,,,calibration,0,30,2,361,1,N,0,right,0.7432167510014551,1,0,,,,,,,,,,,,,,,,,,,,,1,,,,,,,,,,,,,,,,,,,,,,,,,,,,,,,,,,,,,,,,,,,,,,111,151507,19,Female,1,2024/03/21_12:26:36,YZ,None,
,,,,,,calibration,0,30,2,361,2,X,0,right,0.5262020040008792,1,0,,,,,,,,,,,,,,,,,,,,,1,,,,,,,,,,,,,,,,,,,,,,,,,,,,,,,,,,,,,,,,,,,,,,111,151507,19,Female,1,2024/03/21_12:26:36,YZ,None,
,,,,,,calibration,0,30,2,361,3,N,1,left,0.5423684309989767,1,0,,,,,,,,,,,,,,,,,,,,,1,,,,,,,,,,,,,,,,,,,,,,,,,,,,,,,,,,,,,,,,,,,,,,111,151507,19,Female,1,2024/03/21_12:26:36,YZ,None,
,,,,,,calibration,0,30,2,361,4,F,0,right,0.5684090399990964,1,0,,,,,,,,,,,,,,,,,,,,,1,,,,,,,,,,,,,,,,,,,,,,,,,,,,,,,,,,,,,,,,,,,,,,111,151507,19,Female,1,2024/03/21_12:26:36,YZ,None,
,,,,,,calibration,0,30,2,361,5,X,0,right,0.5356705649992364,1,0,,,,,,,,,,,,,,,,,,,,,1,,,,,,,,,,,,,,,,,,,,,,,,,,,,,,,,,,,,,,,,,,,,,,111,151507,19,Female,1,2024/03/21_12:26:36,YZ,None,
,,,,,,calibration,0,30,2,361,6,S,0,right,0.6609854079997604,1,0,,,,,,,,,,,,,,,,,,,,,1,,,,,,,,,,,,,,,,,,,,,,,,,,,,,,,,,,,,,,,,,,,,,,111,151507,19,Female,1,2024/03/21_12:26:36,YZ,None,
,,,,,,calibration,0,30,2,361,7,V,0,right,0.6089784429987048,1,0,,,,,,,,,,,,,,,,,,,,,1,,,,,,,,,,,,,,,,,,,,,,,,,,,,,,,,,,,,,,,,,,,,,,111,151507,19,Female,1,2024/03/21_12:26:36,YZ,None,
,,,,,,calibration,0,30,2,361,8,Q,0,right,0.6250651850004942,1,0,,,,,,,,,,,,,,,,,,,,,1,,,,,,,,,,,,,,,,,,,,,,,,,,,,,,,,,,,,,,,,,,,,,,111,151507,19,Female,1,2024/03/21_12:26:36,YZ,None,
,,,,,,calibration,0,30,2,361,9,V,1,right,0.6914817920005589,0,0,,,,,,,,,,,,,,,,,,,,,1,,,,,,,,,,,,,,,,,,,,,,,,,,,,,,,,,,,,,,,,,,,,,,111,151507,19,Female,1,2024/03/21_12:26:36,YZ,None,
,,,,,,calibration,0,30,2,361,10,Q,1,left,0.6769097579999652,1,0,,,,,,,,,,,,,,,,,,,,,1,,,,,,,,,,,,,,,,,,,,,,,,,,,,,,,,,,,,,,,,,,,,,,111,151507,19,Female,1,2024/03/21_12:26:36,YZ,None,
,,,,,,calibration,0,30,2,361,11,N,0,right,0.697170723000454,1,0,,,,,,,,,,,,,,,,,,,,,1,,,,,,,,,,,,,,,,,,,,,,,,,,,,,,,,,,,,,,,,,,,,,,111,151507,19,Female,1,2024/03/21_12:26:36,YZ,None,
,,,,,,calibration,0,30,2,361,12,J,0,right,0.8254946569995809,1,0,,,,,,,,,,,,,,,,,,,,,1,,,,,,,,,,,,,,,,,,,,,,,,,,,,,,,,,,,,,,,,,,,,,,111,151507,19,Female,1,2024/03/21_12:26:36,YZ,None,
,,,,,,calibration,0,30,2,361,13,N,1,right,0.6191547859998536,0,0,,,,,,,,,,,,,,,,,,,,,1,,,,,,,,,,,,,,,,,,,,,,,,,,,,,,,,,,,,,,,,,,,,,,111,151507,19,Female,1,2024/03/21_12:26:36,YZ,None,
,,,,,,calibration,0,30,2,361,14,F,0,right,0.5923597700002574,1,0,,,,,,,,,,,,,,,,,,,,,1,,,,,,,,,,,,,,,,,,,,,,,,,,,,,,,,,,,,,,,,,,,,,,111,151507,19,Female,1,2024/03/21_12:26:36,YZ,None,
,,,,,,calibration,0,30,2,361,15,J,0,left,0.5907411480002338,0,0,,,,,,,,,,,,,,,,,,,,,1,,,,,,,,,,,,,,,,,,,,,,,,,,,,,,,,,,,,,,,,,,,,,,111,151507,19,Female,1,2024/03/21_12:26:36,YZ,None,
,,,,,,calibration,0,30,2,361,16,F,1,right,0.7731529299999238,0,0,,,,,,,,,,,,,,,,,,,,,1,,,,,,,,,,,,,,,,,,,,,,,,,,,,,,,,,,,,,,,,,,,,,,111,151507,19,Female,1,2024/03/21_12:26:36,YZ,None,
,,,,,,calibration,0,30,2,361,17,V,0,right,0.5675821080003516,1,0,,,,,,,,,,,,,,,,,,,,,1,,,,,,,,,,,,,,,,,,,,,,,,,,,,,,,,,,,,,,,,,,,,,,111,151507,19,Female,1,2024/03/21_12:26:36,YZ,None,
,,,,,,calibration,0,30,2,361,18,F,1,left,0.5125759950005886,1,0,,,,,,,,,,,,,,,,,,,,,1,,,,,,,,,,,,,,,,,,,,,,,,,,,,,,,,,,,,,,,,,,,,,,111,151507,19,Female,1,2024/03/21_12:26:36,YZ,None,
,,,,,,calibration,0,30,2,361,,,,,,,,0.8125,0.5,0.08333333333333333,0.9166666666666666,0.0,0.9166666666666666,0.6309733052222428,3,1,0,0,0,11,14,6,12,0,,,,1,,,,,,,,,,,,,,,,,,,,,,,,,,,,,,,,,,,,,,,,,,,,,,111,151507,19,Female,1,2024/03/21_12:26:36,YZ,None,
,,,,,,Calibration,0,,2,361,,,,,,,,,,,,,,,,,,,,,,,,,11,,,1,,,,,,,,,,,,,,,,,,,,,,,,,,,,,,,,,,,,,,,,,,,,,,111,151507,19,Female,1,2024/03/21_12:26:36,YZ,None,
,,,,,,calibration,0,14,2,361,1,Q,0,right,0.7633656180005346,1,0,,,,,,,,,,,,,,,,,,,,,1,,,,,,,,,,,,,,,,,,,,,,,,,,,,,,,,,,,,,,,,,,,,,,111,151507,19,Female,1,2024/03/21_12:26:36,YZ,None,
,,,,,,calibration,0,14,2,361,2,X,0,right,0.8857799489996978,1,0,,,,,,,,,,,,,,,,,,,,,1,,,,,,,,,,,,,,,,,,,,,,,,,,,,,,,,,,,,,,,,,,,,,,111,151507,19,Female,1,2024/03/21_12:26:36,YZ,None,
,,,,,,calibration,0,14,2,361,3,C,0,right,0.8219648610011063,1,0,,,,,,,,,,,,,,,,,,,,,1,,,,,,,,,,,,,,,,,,,,,,,,,,,,,,,,,,,,,,,,,,,,,,111,151507,19,Female,1,2024/03/21_12:26:36,YZ,None,
,,,,,,calibration,0,14,2,361,4,J,0,right,0.539294112000789,1,0,,,,,,,,,,,,,,,,,,,,,1,,,,,,,,,,,,,,,,,,,,,,,,,,,,,,,,,,,,,,,,,,,,,,111,151507,19,Female,1,2024/03/21_12:26:36,YZ,None,
,,,,,,calibration,0,14,2,361,5,V,0,right,0.6671126089986501,1,0,,,,,,,,,,,,,,,,,,,,,1,,,,,,,,,,,,,,,,,,,,,,,,,,,,,,,,,,,,,,,,,,,,,,111,151507,19,Female,1,2024/03/21_12:26:36,YZ,None,
,,,,,,calibration,0,14,2,361,6,X,0,right,0.7188191119985277,1,0,,,,,,,,,,,,,,,,,,,,,1,,,,,,,,,,,,,,,,,,,,,,,,,,,,,,,,,,,,,,,,,,,,,,111,151507,19,Female,1,2024/03/21_12:26:36,YZ,None,
,,,,,,calibration,0,14,2,361,7,J,0,right,nan,0,1,,,,,,,,,,,,,,,,,,,,,1,,,,,,,,,,,,,,,,,,,,,,,,,,,,,,,,,,,,,,,,,,,,,,111,151507,19,Female,1,2024/03/21_12:26:36,YZ,None,
,,,,,,calibration,0,14,2,361,8,X,1,right,0.49693745500007935,0,0,,,,,,,,,,,,,,,,,,,,,1,,,,,,,,,,,,,,,,,,,,,,,,,,,,,,,,,,,,,,,,,,,,,,111,151507,19,Female,1,2024/03/21_12:26:36,YZ,None,
,,,,,,calibration,0,14,2,361,9,V,0,right,0.9215114069993433,1,0,,,,,,,,,,,,,,,,,,,,,1,,,,,,,,,,,,,,,,,,,,,,,,,,,,,,,,,,,,,,,,,,,,,,111,151507,19,Female,1,2024/03/21_12:26:36,YZ,None,
,,,,,,calibration,0,14,2,361,10,X,1,right,0.7867585020012484,0,0,,,,,,,,,,,,,,,,,,,,,1,,,,,,,,,,,,,,,,,,,,,,,,,,,,,,,,,,,,,,,,,,,,,,111,151507,19,Female,1,2024/03/21_12:26:36,YZ,None,
,,,,,,calibration,0,14,2,361,11,Q,0,right,0.8283456040007877,1,0,,,,,,,,,,,,,,,,,,,,,1,,,,,,,,,,,,,,,,,,,,,,,,,,,,,,,,,,,,,,,,,,,,,,111,151507,19,Female,1,2024/03/21_12:26:36,YZ,None,
,,,,,,calibration,0,14,2,361,12,X,1,left,0.6069395930007886,1,0,,,,,,,,,,,,,,,,,,,,,1,,,,,,,,,,,,,,,,,,,,,,,,,,,,,,,,,,,,,,,,,,,,,,111,151507,19,Female,1,2024/03/21_12:26:36,YZ,None,
,,,,,,calibration,0,14,2,361,13,J,0,right,0.4827195079997182,1,0,,,,,,,,,,,,,,,,,,,,,1,,,,,,,,,,,,,,,,,,,,,,,,,,,,,,,,,,,,,,,,,,,,,,111,151507,19,Female,1,2024/03/21_12:26:36,YZ,None,
,,,,,,calibration,0,14,2,361,14,X,1,right,0.6491645759997482,0,0,,,,,,,,,,,,,,,,,,,,,1,,,,,,,,,,,,,,,,,,,,,,,,,,,,,,,,,,,,,,,,,,,,,,111,151507,19,Female,1,2024/03/21_12:26:36,YZ,None,
,,,,,,calibration,0,14,2,361,15,J,1,left,0.6075803319999977,1,0,,,,,,,,,,,,,,,,,,,,,1,,,,,,,,,,,,,,,,,,,,,,,,,,,,,,,,,,,,,,,,,,,,,,111,151507,19,Female,1,2024/03/21_12:26:36,YZ,None,
,,,,,,calibration,0,14,2,361,16,C,0,right,0.7382194820002042,1,0,,,,,,,,,,,,,,,,,,,,,1,,,,,,,,,,,,,,,,,,,,,,,,,,,,,,,,,,,,,,,,,,,,,,111,151507,19,Female,1,2024/03/21_12:26:36,YZ,None,
,,,,,,calibration,0,14,2,361,17,J,1,right,0.5344006299983448,0,0,,,,,,,,,,,,,,,,,,,,,1,,,,,,,,,,,,,,,,,,,,,,,,,,,,,,,,,,,,,,,,,,,,,,111,151507,19,Female,1,2024/03/21_12:26:36,YZ,None,
,,,,,,calibration,0,14,2,361,18,Q,0,right,0.542547402999844,1,0,,,,,,,,,,,,,,,,,,,,,1,,,,,,,,,,,,,,,,,,,,,,,,,,,,,,,,,,,,,,,,,,,,,,111,151507,19,Female,1,2024/03/21_12:26:36,YZ,None,
,,,,,,calibration,0,14,2,361,,,,,,,,0.8333333333333334,0.3333333333333333,0.0,1.0,0.05555555555555555,0.9444444444444444,0.681850632529377,2,0,0,1,1,11,13,6,12,0,,,,1,,,,,,,,,,,,,,,,,,,,,,,,,,,,,,,,,,,,,,,,,,,,,,111,151507,19,Female,1,2024/03/21_12:26:36,YZ,None,
,,,,,,Calibration,0,,2,361,,,,,,,,,,,,,,,,,,,,,,,,,12,,,1,,,,,,,,,,,,,,,,,,,,,,,,,,,,,,,,,,,,,,,,,,,,,,111,151507,19,Female,1,2024/03/21_12:26:36,YZ,None,
,,,,,,calibration,0,9,2,361,1,Q,0,right,0.6805530559995532,1,0,,,,,,,,,,,,,,,,,,,,,1,,,,,,,,,,,,,,,,,,,,,,,,,,,,,,,,,,,,,,,,,,,,,,111,151507,19,Female,1,2024/03/21_12:26:36,YZ,None,
,,,,,,calibration,0,9,2,361,2,N,0,right,0.43261328600056004,1,0,,,,,,,,,,,,,,,,,,,,,1,,,,,,,,,,,,,,,,,,,,,,,,,,,,,,,,,,,,,,,,,,,,,,111,151507,19,Female,1,2024/03/21_12:26:36,YZ,None,
,,,,,,calibration,0,9,2,361,3,J,0,right,0.4483592460001091,1,0,,,,,,,,,,,,,,,,,,,,,1,,,,,,,,,,,,,,,,,,,,,,,,,,,,,,,,,,,,,,,,,,,,,,111,151507,19,Female,1,2024/03/21_12:26:36,YZ,None,
,,,,,,calibration,0,9,2,361,4,X,0,right,0.5373595239998394,1,0,,,,,,,,,,,,,,,,,,,,,1,,,,,,,,,,,,,,,,,,,,,,,,,,,,,,,,,,,,,,,,,,,,,,111,151507,19,Female,1,2024/03/21_12:26:36,YZ,None,
,,,,,,calibration,0,9,2,361,5,C,0,right,0.6064780939996126,1,0,,,,,,,,,,,,,,,,,,,,,1,,,,,,,,,,,,,,,,,,,,,,,,,,,,,,,,,,,,,,,,,,,,,,111,151507,19,Female,1,2024/03/21_12:26:36,YZ,None,
,,,,,,calibration,0,9,2,361,6,J,0,left,0.5354435989993362,0,0,,,,,,,,,,,,,,,,,,,,,1,,,,,,,,,,,,,,,,,,,,,,,,,,,,,,,,,,,,,,,,,,,,,,111,151507,19,Female,1,2024/03/21_12:26:36,YZ,None,
,,,,,,calibration,0,9,2,361,7,S,0,right,0.4600647509996634,1,0,,,,,,,,,,,,,,,,,,,,,1,,,,,,,,,,,,,,,,,,,,,,,,,,,,,,,,,,,,,,,,,,,,,,111,151507,19,Female,1,2024/03/21_12:26:36,YZ,None,
,,,,,,calibration,0,9,2,361,8,Q,0,right,0.4722306529984053,1,0,,,,,,,,,,,,,,,,,,,,,1,,,,,,,,,,,,,,,,,,,,,,,,,,,,,,,,,,,,,,,,,,,,,,111,151507,19,Female,1,2024/03/21_12:26:36,YZ,None,
,,,,,,calibration,0,9,2,361,9,J,0,right,0.9841526910004177,1,0,,,,,,,,,,,,,,,,,,,,,1,,,,,,,,,,,,,,,,,,,,,,,,,,,,,,,,,,,,,,,,,,,,,,111,151507,19,Female,1,2024/03/21_12:26:36,YZ,None,
,,,,,,calibration,0,9,2,361,10,F,0,right,0.6094371649996901,1,0,,,,,,,,,,,,,,,,,,,,,1,,,,,,,,,,,,,,,,,,,,,,,,,,,,,,,,,,,,,,,,,,,,,,111,151507,19,Female,1,2024/03/21_12:26:36,YZ,None,
,,,,,,calibration,0,9,2,361,11,X,0,right,0.5814848910013097,1,0,,,,,,,,,,,,,,,,,,,,,1,,,,,,,,,,,,,,,,,,,,,,,,,,,,,,,,,,,,,,,,,,,,,,111,151507,19,Female,1,2024/03/21_12:26:36,YZ,None,
,,,,,,calibration,0,9,2,361,12,F,1,left,0.6642965980008739,1,0,,,,,,,,,,,,,,,,,,,,,1,,,,,,,,,,,,,,,,,,,,,,,,,,,,,,,,,,,,,,,,,,,,,,111,151507,19,Female,1,2024/03/21_12:26:36,YZ,None,
,,,,,,calibration,0,9,2,361,13,X,1,right,0.6971355370005767,0,0,,,,,,,,,,,,,,,,,,,,,1,,,,,,,,,,,,,,,,,,,,,,,,,,,,,,,,,,,,,,,,,,,,,,111,151507,19,Female,1,2024/03/21_12:26:36,YZ,None,
,,,,,,calibration,0,9,2,361,14,J,0,left,0.6752699919998122,0,0,,,,,,,,,,,,,,,,,,,,,1,,,,,,,,,,,,,,,,,,,,,,,,,,,,,,,,,,,,,,,,,,,,,,111,151507,19,Female,1,2024/03/21_12:26:36,YZ,None,
,,,,,,calibration,0,9,2,361,15,X,1,right,0.6031351290002931,0,0,,,,,,,,,,,,,,,,,,,,,1,,,,,,,,,,,,,,,,,,,,,,,,,,,,,,,,,,,,,,,,,,,,,,111,151507,19,Female,1,2024/03/21_12:26:36,YZ,None,
,,,,,,calibration,0,9,2,361,16,J,1,left,0.5692016310003964,1,0,,,,,,,,,,,,,,,,,,,,,1,,,,,,,,,,,,,,,,,,,,,,,,,,,,,,,,,,,,,,,,,,,,,,111,151507,19,Female,1,2024/03/21_12:26:36,YZ,None,
,,,,,,calibration,0,9,2,361,17,S,0,right,0.5124568259998341,1,0,,,,,,,,,,,,,,,,,,,,,1,,,,,,,,,,,,,,,,,,,,,,,,,,,,,,,,,,,,,,,,,,,,,,111,151507,19,Female,1,2024/03/21_12:26:36,YZ,None,
,,,,,,calibration,0,9,2,361,18,J,1,left,0.6424432450003223,1,0,,,,,,,,,,,,,,,,,,,,,1,,,,,,,,,,,,,,,,,,,,,,,,,,,,,,,,,,,,,,,,,,,,,,111,151507,19,Female,1,2024/03/21_12:26:36,YZ,None,
,,,,,,calibration,0,9,2,361,,,,,,,,0.8,0.6,0.15384615384615385,0.8461538461538461,0.0,0.8461538461538461,0.5951175507778115,3,2,0,0,0,11,14,5,13,0,,,,1,,,,,,,,,,,,,,,,,,,,,,,,,,,,,,,,,,,,,,,,,,,,,,111,151507,19,Female,1,2024/03/21_12:26:36,YZ,None,
,,,,,,Calibration,0,,2,361,,,,,,,,,,,,,,,,,,,,,,,,,13,,,1,,,,,,,,,,,,,,,,,,,,,,,,,,,,,,,,,,,,,,,,,,,,,,111,151507,19,Female,1,2024/03/21_12:26:36,YZ,None,
,,,,,,calibration,0,33,2,361,1,N,0,right,0.7416838870012725,1,0,,,,,,,,,,,,,,,,,,,,,1,,,,,,,,,,,,,,,,,,,,,,,,,,,,,,,,,,,,,,,,,,,,,,111,151507,19,Female,1,2024/03/21_12:26:36,YZ,None,
,,,,,,calibration,0,33,2,361,2,V,0,right,0.5231594990000303,1,0,,,,,,,,,,,,,,,,,,,,,1,,,,,,,,,,,,,,,,,,,,,,,,,,,,,,,,,,,,,,,,,,,,,,111,151507,19,Female,1,2024/03/21_12:26:36,YZ,None,
,,,,,,calibration,0,33,2,361,3,S,0,right,0.5380375200002163,1,0,,,,,,,,,,,,,,,,,,,,,1,,,,,,,,,,,,,,,,,,,,,,,,,,,,,,,,,,,,,,,,,,,,,,111,151507,19,Female,1,2024/03/21_12:26:36,YZ,None,
,,,,,,calibration,0,33,2,361,4,V,1,right,0.75203011099984,0,0,,,,,,,,,,,,,,,,,,,,,1,,,,,,,,,,,,,,,,,,,,,,,,,,,,,,,,,,,,,,,,,,,,,,111,151507,19,Female,1,2024/03/21_12:26:36,YZ,None,
,,,,,,calibration,0,33,2,361,5,S,1,right,0.5951850470009958,0,0,,,,,,,,,,,,,,,,,,,,,1,,,,,,,,,,,,,,,,,,,,,,,,,,,,,,,,,,,,,,,,,,,,,,111,151507,19,Female,1,2024/03/21_12:26:36,YZ,None,
,,,,,,calibration,0,33,2,361,6,N,0,right,0.859251358999245,1,0,,,,,,,,,,,,,,,,,,,,,1,,,,,,,,,,,,,,,,,,,,,,,,,,,,,,,,,,,,,,,,,,,,,,111,151507,19,Female,1,2024/03/21_12:26:36,YZ,None,
,,,,,,calibration,0,33,2,361,7,F,0,right,0.5916707739997946,1,0,,,,,,,,,,,,,,,,,,,,,1,,,,,,,,,,,,,,,,,,,,,,,,,,,,,,,,,,,,,,,,,,,,,,111,151507,19,Female,1,2024/03/21_12:26:36,YZ,None,
,,,,,,calibration,0,33,2,361,8,S,0,left,0.6477894930012553,0,0,,,,,,,,,,,,,,,,,,,,,1,,,,,,,,,,,,,,,,,,,,,,,,,,,,,,,,,,,,,,,,,,,,,,111,151507,19,Female,1,2024/03/21_12:26:36,YZ,None,
,,,,,,calibration,0,33,2,361,9,Q,0,right,0.6743745490002766,1,0,,,,,,,,,,,,,,,,,,,,,1,,,,,,,,,,,,,,,,,,,,,,,,,,,,,,,,,,,,,,,,,,,,,,111,151507,19,Female,1,2024/03/21_12:26:36,YZ,None,
,,,,,,calibration,0,33,2,361,10,S,1,left,0.7125274640002317,1,0,,,,,,,,,,,,,,,,,,,,,1,,,,,,,,,,,,,,,,,,,,,,,,,,,,,,,,,,,,,,,,,,,,,,111,151507,19,Female,1,2024/03/21_12:26:36,YZ,None,
,,,,,,calibration,0,33,2,361,11,X,0,right,0.698503528999936,1,0,,,,,,,,,,,,,,,,,,,,,1,,,,,,,,,,,,,,,,,,,,,,,,,,,,,,,,,,,,,,,,,,,,,,111,151507,19,Female,1,2024/03/21_12:26:36,YZ,None,
,,,,,,calibration,0,33,2,361,12,S,1,left,0.3820156239999051,1,0,,,,,,,,,,,,,,,,,,,,,1,,,,,,,,,,,,,,,,,,,,,,,,,,,,,,,,,,,,,,,,,,,,,,111,151507,19,Female,1,2024/03/21_12:26:36,YZ,None,
,,,,,,calibration,0,33,2,361,13,N,0,right,0.6661252560006687,1,0,,,,,,,,,,,,,,,,,,,,,1,,,,,,,,,,,,,,,,,,,,,,,,,,,,,,,,,,,,,,,,,,,,,,111,151507,19,Female,1,2024/03/21_12:26:36,YZ,None,
,,,,,,calibration,0,33,2,361,14,Q,0,right,0.5615670829993178,1,0,,,,,,,,,,,,,,,,,,,,,1,,,,,,,,,,,,,,,,,,,,,,,,,,,,,,,,,,,,,,,,,,,,,,111,151507,19,Female,1,2024/03/21_12:26:36,YZ,None,
,,,,,,calibration,0,33,2,361,15,N,1,left,0.6153903379999974,1,0,,,,,,,,,,,,,,,,,,,,,1,,,,,,,,,,,,,,,,,,,,,,,,,,,,,,,,,,,,,,,,,,,,,,111,151507,19,Female,1,2024/03/21_12:26:36,YZ,None,
,,,,,,calibration,0,33,2,361,16,Q,1,right,0.6481285980007669,0,0,,,,,,,,,,,,,,,,,,,,,1,,,,,,,,,,,,,,,,,,,,,,,,,,,,,,,,,,,,,,,,,,,,,,111,151507,19,Female,1,2024/03/21_12:26:36,YZ,None,
,,,,,,calibration,0,33,2,361,17,S,0,right,0.6573502100000042,1,0,,,,,,,,,,,,,,,,,,,,,1,,,,,,,,,,,,,,,,,,,,,,,,,,,,,,,,,,,,,,,,,,,,,,111,151507,19,Female,1,2024/03/21_12:26:36,YZ,None,
,,,,,,calibration,0,33,2,361,18,X,0,right,0.6049838700000691,1,0,,,,,,,,,,,,,,,,,,,,,1,,,,,,,,,,,,,,,,,,,,,,,,,,,,,,,,,,,,,,,,,,,,,,111,151507,19,Female,1,2024/03/21_12:26:36,YZ,None,
,,,,,,calibration,0,33,2,361,,,,,,,,0.8125,0.5,0.08333333333333333,0.9166666666666666,0.0,0.9166666666666666,0.6372096783891013,3,1,0,0,0,11,14,6,12,0,,,,1,,,,,,,,,,,,,,,,,,,,,,,,,,,,,,,,,,,,,,,,,,,,,,111,151507,19,Female,1,2024/03/21_12:26:36,YZ,None,
,,,,,,Calibration,0,,2,361,,,,,,,,,,,,,,,,,,,,,,,,,14,,,1,,,,,,,,,,,,,,,,,,,,,,,,,,,,,,,,,,,,,,,,,,,,,,111,151507,19,Female,1,2024/03/21_12:26:36,YZ,None,
,,,,,,calibration,0,28,2,361,1,X,0,left,0.55978577300084,0,0,,,,,,,,,,,,,,,,,,,,,1,,,,,,,,,,,,,,,,,,,,,,,,,,,,,,,,,,,,,,,,,,,,,,111,151507,19,Female,1,2024/03/21_12:26:36,YZ,None,
,,,,,,calibration,0,28,2,361,2,V,0,left,0.47859535300085554,0,0,,,,,,,,,,,,,,,,,,,,,1,,,,,,,,,,,,,,,,,,,,,,,,,,,,,,,,,,,,,,,,,,,,,,111,151507,19,Female,1,2024/03/21_12:26:36,YZ,None,
,,,,,,calibration,0,28,2,361,3,X,1,right,0.9179422419983894,0,0,,,,,,,,,,,,,,,,,,,,,1,,,,,,,,,,,,,,,,,,,,,,,,,,,,,,,,,,,,,,,,,,,,,,111,151507,19,Female,1,2024/03/21_12:26:36,YZ,None,
,,,,,,calibration,0,28,2,361,4,J,0,right,0.37614770099935413,1,0,,,,,,,,,,,,,,,,,,,,,1,,,,,,,,,,,,,,,,,,,,,,,,,,,,,,,,,,,,,,,,,,,,,,111,151507,19,Female,1,2024/03/21_12:26:36,YZ,None,
,,,,,,calibration,0,28,2,361,5,N,0,right,0.5311953340005857,1,0,,,,,,,,,,,,,,,,,,,,,1,,,,,,,,,,,,,,,,,,,,,,,,,,,,,,,,,,,,,,,,,,,,,,111,151507,19,Female,1,2024/03/21_12:26:36,YZ,None,
,,,,,,calibration,0,28,2,361,6,J,1,right,0.6054659359997459,0,0,,,,,,,,,,,,,,,,,,,,,1,,,,,,,,,,,,,,,,,,,,,,,,,,,,,,,,,,,,,,,,,,,,,,111,151507,19,Female,1,2024/03/21_12:26:36,YZ,None,
,,,,,,calibration,0,28,2,361,7,C,0,right,0.6117040580011235,1,0,,,,,,,,,,,,,,,,,,,,,1,,,,,,,,,,,,,,,,,,,,,,,,,,,,,,,,,,,,,,,,,,,,,,111,151507,19,Female,1,2024/03/21_12:26:36,YZ,None,
,,,,,,calibration,0,28,2,361,8,X,0,right,0.7920125189993996,1,0,,,,,,,,,,,,,,,,,,,,,1,,,,,,,,,,,,,,,,,,,,,,,,,,,,,,,,,,,,,,,,,,,,,,111,151507,19,Female,1,2024/03/21_12:26:36,YZ,None,
,,,,,,calibration,0,28,2,361,9,C,1,right,0.643116380999345,0,0,,,,,,,,,,,,,,,,,,,,,1,,,,,,,,,,,,,,,,,,,,,,,,,,,,,,,,,,,,,,,,,,,,,,111,151507,19,Female,1,2024/03/21_12:26:36,YZ,None,
,,,,,,calibration,0,28,2,361,10,J,0,right,0.4921470319986838,1,0,,,,,,,,,,,,,,,,,,,,,1,,,,,,,,,,,,,,,,,,,,,,,,,,,,,,,,,,,,,,,,,,,,,,111,151507,19,Female,1,2024/03/21_12:26:36,YZ,None,
,,,,,,calibration,0,28,2,361,11,S,0,right,0.706813800999953,1,0,,,,,,,,,,,,,,,,,,,,,1,,,,,,,,,,,,,,,,,,,,,,,,,,,,,,,,,,,,,,,,,,,,,,111,151507,19,Female,1,2024/03/21_12:26:36,YZ,None,
,,,,,,calibration,0,28,2,361,12,V,0,right,0.5975681529998838,1,0,,,,,,,,,,,,,,,,,,,,,1,,,,,,,,,,,,,,,,,,,,,,,,,,,,,,,,,,,,,,,,,,,,,,111,151507,19,Female,1,2024/03/21_12:26:36,YZ,None,
,,,,,,calibration,0,28,2,361,13,S,1,left,0.6580128149998927,1,0,,,,,,,,,,,,,,,,,,,,,1,,,,,,,,,,,,,,,,,,,,,,,,,,,,,,,,,,,,,,,,,,,,,,111,151507,19,Female,1,2024/03/21_12:26:36,YZ,None,
,,,,,,calibration,0,28,2,361,14,V,1,right,0.6857987439998396,0,0,,,,,,,,,,,,,,,,,,,,,1,,,,,,,,,,,,,,,,,,,,,,,,,,,,,,,,,,,,,,,,,,,,,,111,151507,19,Female,1,2024/03/21_12:26:36,YZ,None,
,,,,,,calibration,0,28,2,361,15,Q,0,right,0.7281679610005085,1,0,,,,,,,,,,,,,,,,,,,,,1,,,,,,,,,,,,,,,,,,,,,,,,,,,,,,,,,,,,,,,,,,,,,,111,151507,19,Female,1,2024/03/21_12:26:36,YZ,None,
,,,,,,calibration,0,28,2,361,16,V,1,right,0.7089927409997472,0,0,,,,,,,,,,,,,,,,,,,,,1,,,,,,,,,,,,,,,,,,,,,,,,,,,,,,,,,,,,,,,,,,,,,,111,151507,19,Female,1,2024/03/21_12:26:36,YZ,None,
,,,,,,calibration,0,28,2,361,17,F,0,right,0.794692773000861,1,0,,,,,,,,,,,,,,,,,,,,,1,,,,,,,,,,,,,,,,,,,,,,,,,,,,,,,,,,,,,,,,,,,,,,111,151507,19,Female,1,2024/03/21_12:26:36,YZ,None,
,,,,,,calibration,0,28,2,361,18,X,0,right,nan,0,1,,,,,,,,,,,,,,,,,,,,,1,,,,,,,,,,,,,,,,,,,,,,,,,,,,,,,,,,,,,,,,,,,,,,111,151507,19,Female,1,2024/03/21_12:26:36,YZ,None,
,,,,,,calibration,0,28,2,361,,,,,,,,0.5,0.16666666666666666,0.16666666666666666,0.8181818181818182,0.05555555555555555,0.7777777777777778,0.6404799598234711,1,2,0,1,1,9,10,6,12,0,,,,1,,,,,,,,,,,,,,,,,,,,,,,,,,,,,,,,,,,,,,,,,,,,,,111,151507,19,Female,1,2024/03/21_12:26:36,YZ,None,
,,,,,,Calibration,0,,2,361,,,,,,,,,,,,,,,,,,,,,,,,,15,,,1,,,,,,,,,,,,,,,,,,,,,,,,,,,,,,,,,,,,,,,,,,,,,,111,151507,19,Female,1,2024/03/21_12:26:36,YZ,None,
,,,,,,calibration,0,24,2,426,1,V,0,right,0.5802924220006389,1,0,,,,,,,,,,,,,,,,,,,,,1,,,,,,,,,,,,,,,,,,,,,,,,,,,,,,,,,,,,,,,,,,,,,,111,151507,19,Female,1,2024/03/21_12:26:36,YZ,None,
,,,,,,calibration,0,24,2,426,2,S,0,right,0.33092288999978337,1,0,,,,,,,,,,,,,,,,,,,,,1,,,,,,,,,,,,,,,,,,,,,,,,,,,,,,,,,,,,,,,,,,,,,,111,151507,19,Female,1,2024/03/21_12:26:36,YZ,None,
,,,,,,calibration,0,24,2,426,3,X,0,right,0.41635332199984987,1,0,,,,,,,,,,,,,,,,,,,,,1,,,,,,,,,,,,,,,,,,,,,,,,,,,,,,,,,,,,,,,,,,,,,,111,151507,19,Female,1,2024/03/21_12:26:36,YZ,None,
,,,,,,calibration,0,24,2,426,4,S,1,left,0.45948427799885394,1,0,,,,,,,,,,,,,,,,,,,,,1,,,,,,,,,,,,,,,,,,,,,,,,,,,,,,,,,,,,,,,,,,,,,,111,151507,19,Female,1,2024/03/21_12:26:36,YZ,None,
,,,,,,calibration,0,24,2,426,5,V,0,right,0.4417658640013542,1,0,,,,,,,,,,,,,,,,,,,,,1,,,,,,,,,,,,,,,,,,,,,,,,,,,,,,,,,,,,,,,,,,,,,,111,151507,19,Female,1,2024/03/21_12:26:36,YZ,None,
,,,,,,calibration,0,24,2,426,6,Q,0,left,0.4169606229988858,0,0,,,,,,,,,,,,,,,,,,,,,1,,,,,,,,,,,,,,,,,,,,,,,,,,,,,,,,,,,,,,,,,,,,,,111,151507,19,Female,1,2024/03/21_12:26:36,YZ,None,
,,,,,,calibration,0,24,2,426,7,N,0,right,0.4202169270010927,1,0,,,,,,,,,,,,,,,,,,,,,1,,,,,,,,,,,,,,,,,,,,,,,,,,,,,,,,,,,,,,,,,,,,,,111,151507,19,Female,1,2024/03/21_12:26:36,YZ,None,
,,,,,,calibration,0,24,2,426,8,S,0,right,0.319376347000798,1,0,,,,,,,,,,,,,,,,,,,,,1,,,,,,,,,,,,,,,,,,,,,,,,,,,,,,,,,,,,,,,,,,,,,,111,151507,19,Female,1,2024/03/21_12:26:36,YZ,None,
,,,,,,calibration,0,24,2,426,9,F,0,right,0.30386588200053666,1,0,,,,,,,,,,,,,,,,,,,,,1,,,,,,,,,,,,,,,,,,,,,,,,,,,,,,,,,,,,,,,,,,,,,,111,151507,19,Female,1,2024/03/21_12:26:36,YZ,None,
,,,,,,calibration,0,24,2,426,10,S,1,left,0.3304904260003241,1,0,,,,,,,,,,,,,,,,,,,,,1,,,,,,,,,,,,,,,,,,,,,,,,,,,,,,,,,,,,,,,,,,,,,,111,151507,19,Female,1,2024/03/21_12:26:36,YZ,None,
,,,,,,calibration,0,24,2,426,11,F,1,right,0.32037100500019733,0,0,,,,,,,,,,,,,,,,,,,,,1,,,,,,,,,,,,,,,,,,,,,,,,,,,,,,,,,,,,,,,,,,,,,,111,151507,19,Female,1,2024/03/21_12:26:36,YZ,None,
,,,,,,calibration,0,24,2,426,12,C,0,right,0.4321200009999302,1,0,,,,,,,,,,,,,,,,,,,,,1,,,,,,,,,,,,,,,,,,,,,,,,,,,,,,,,,,,,,,,,,,,,,,111,151507,19,Female,1,2024/03/21_12:26:36,YZ,None,
,,,,,,calibration,0,24,2,426,13,S,0,left,0.5427224549985112,0,0,,,,,,,,,,,,,,,,,,,,,1,,,,,,,,,,,,,,,,,,,,,,,,,,,,,,,,,,,,,,,,,,,,,,111,151507,19,Female,1,2024/03/21_12:26:36,YZ,None,
,,,,,,calibration,0,24,2,426,14,C,1,right,0.6202723510014039,0,0,,,,,,,,,,,,,,,,,,,,,1,,,,,,,,,,,,,,,,,,,,,,,,,,,,,,,,,,,,,,,,,,,,,,111,151507,19,Female,1,2024/03/21_12:26:36,YZ,None,
,,,,,,calibration,0,24,2,426,15,S,1,right,nan,0,1,,,,,,,,,,,,,,,,,,,,,1,,,,,,,,,,,,,,,,,,,,,,,,,,,,,,,,,,,,,,,,,,,,,,111,151507,19,Female,1,2024/03/21_12:26:36,YZ,None,
,,,,,,calibration,0,24,2,426,16,Q,0,right,nan,0,1,,,,,,,,,,,,,,,,,,,,,1,,,,,,,,,,,,,,,,,,,,,,,,,,,,,,,,,,,,,,,,,,,,,,111,151507,19,Female,1,2024/03/21_12:26:36,YZ,None,
,,,,,,calibration,0,24,2,426,17,X,0,right,0.0,1,0,,,,,,,,,,,,,,,,,,,,,1,,,,,,,,,,,,,,,,,,,,,,,,,,,,,,,,,,,,,,,,,,,,,,111,151507,19,Female,1,2024/03/21_12:26:36,YZ,None,
,,,,,,calibration,0,24,2,426,,,,,,,,0.7041666666666667,0.4,0.16666666666666666,0.8181818181818182,0.11764705882352941,0.7156862745098039,0.395680986200144,2,2,1,1,2,9,11,5,12,0,,,,1,,,,,,,,,,,,,,,,,,,,,,,,,,,,,,,,,,,,,,,,,,,,,,111,151507,19,Female,1,2024/03/21_12:26:36,YZ,None,
,,,,,,Calibration,0,,2,426,,,,,,,,,,,,,,,,,,,,,,,,,16,,,1,,,,,,,,,,,,,,,,,,,,,,,,,,,,,,,,,,,,,,,,,,,,,,111,151507,19,Female,1,2024/03/21_12:26:36,YZ,None,
,,,,,,calibration,0,28,2,500,1,N,0,right,0.49462003799999366,1,0,,,,,,,,,,,,,,,,,,,,,1,,,,,,,,,,,,,,,,,,,,,,,,,,,,,,,,,,,,,,,,,,,,,,111,151507,19,Female,1,2024/03/21_12:26:36,YZ,None,
,,,,,,calibration,0,28,2,500,2,C,0,right,0.44466112299960514,1,0,,,,,,,,,,,,,,,,,,,,,1,,,,,,,,,,,,,,,,,,,,,,,,,,,,,,,,,,,,,,,,,,,,,,111,151507,19,Female,1,2024/03/21_12:26:36,YZ,None,
,,,,,,calibration,0,28,2,500,3,S,0,right,0.5186487620012485,1,0,,,,,,,,,,,,,,,,,,,,,1,,,,,,,,,,,,,,,,,,,,,,,,,,,,,,,,,,,,,,,,,,,,,,111,151507,19,Female,1,2024/03/21_12:26:36,YZ,None,
,,,,,,calibration,0,28,2,500,4,C,1,left,0.48960265499954403,1,0,,,,,,,,,,,,,,,,,,,,,1,,,,,,,,,,,,,,,,,,,,,,,,,,,,,,,,,,,,,,,,,,,,,,111,151507,19,Female,1,2024/03/21_12:26:36,YZ,None,
,,,,,,calibration,0,28,2,500,5,S,1,left,0.7604709850002109,1,0,,,,,,,,,,,,,,,,,,,,,1,,,,,,,,,,,,,,,,,,,,,,,,,,,,,,,,,,,,,,,,,,,,,,111,151507,19,Female,1,2024/03/21_12:26:36,YZ,None,
,,,,,,calibration,0,28,2,500,6,F,0,right,0.7010206909999397,1,0,,,,,,,,,,,,,,,,,,,,,1,,,,,,,,,,,,,,,,,,,,,,,,,,,,,,,,,,,,,,,,,,,,,,111,151507,19,Female,1,2024/03/21_12:26:36,YZ,None,
,,,,,,calibration,0,28,2,500,7,X,0,right,0.5865575490006449,1,0,,,,,,,,,,,,,,,,,,,,,1,,,,,,,,,,,,,,,,,,,,,,,,,,,,,,,,,,,,,,,,,,,,,,111,151507,19,Female,1,2024/03/21_12:26:36,YZ,None,
,,,,,,calibration,0,28,2,500,8,F,1,right,0.8546098339993478,0,0,,,,,,,,,,,,,,,,,,,,,1,,,,,,,,,,,,,,,,,,,,,,,,,,,,,,,,,,,,,,,,,,,,,,111,151507,19,Female,1,2024/03/21_12:26:36,YZ,None,
,,,,,,calibration,0,28,2,500,9,S,0,left,0.7308024589983688,0,0,,,,,,,,,,,,,,,,,,,,,1,,,,,,,,,,,,,,,,,,,,,,,,,,,,,,,,,,,,,,,,,,,,,,111,151507,19,Female,1,2024/03/21_12:26:36,YZ,None,
,,,,,,calibration,0,28,2,500,10,X,0,right,0.5746462209990568,1,0,,,,,,,,,,,,,,,,,,,,,1,,,,,,,,,,,,,,,,,,,,,,,,,,,,,,,,,,,,,,,,,,,,,,111,151507,19,Female,1,2024/03/21_12:26:36,YZ,None,
,,,,,,calibration,0,28,2,500,11,S,1,left,0.7259936480004399,1,0,,,,,,,,,,,,,,,,,,,,,1,,,,,,,,,,,,,,,,,,,,,,,,,,,,,,,,,,,,,,,,,,,,,,111,151507,19,Female,1,2024/03/21_12:26:36,YZ,None,
,,,,,,calibration,0,28,2,500,12,V,0,right,0.6243266490000678,1,0,,,,,,,,,,,,,,,,,,,,,1,,,,,,,,,,,,,,,,,,,,,,,,,,,,,,,,,,,,,,,,,,,,,,111,151507,19,Female,1,2024/03/21_12:26:36,YZ,None,
,,,,,,calibration,0,28,2,500,13,N,0,right,0.6896316429993021,1,0,,,,,,,,,,,,,,,,,,,,,1,,,,,,,,,,,,,,,,,,,,,,,,,,,,,,,,,,,,,,,,,,,,,,111,151507,19,Female,1,2024/03/21_12:26:36,YZ,None,
,,,,,,calibration,0,28,2,500,14,V,1,right,0.6514628479999374,0,0,,,,,,,,,,,,,,,,,,,,,1,,,,,,,,,,,,,,,,,,,,,,,,,,,,,,,,,,,,,,,,,,,,,,111,151507,19,Female,1,2024/03/21_12:26:36,YZ,None,
,,,,,,calibration,0,28,2,500,15,X,0,right,0.6197409279993735,1,0,,,,,,,,,,,,,,,,,,,,,1,,,,,,,,,,,,,,,,,,,,,,,,,,,,,,,,,,,,,,,,,,,,,,111,151507,19,Female,1,2024/03/21_12:26:36,YZ,None,
,,,,,,calibration,0,28,2,500,16,S,0,right,0.6520744129993545,1,0,,,,,,,,,,,,,,,,,,,,,1,,,,,,,,,,,,,,,,,,,,,,,,,,,,,,,,,,,,,,,,,,,,,,111,151507,19,Female,1,2024/03/21_12:26:36,YZ,None,
,,,,,,calibration,0,28,2,500,,,,,,,,0.8409090909090908,0.6,0.09090909090909091,0.9090909090909091,0.0,0.9090909090909091,0.6324294028747772,3,1,0,0,0,10,13,5,11,0,,,,1,,,,,,,,,,,,,,,,,,,,,,,,,,,,,,,,,,,,,,,,,,,,,,111,151507,19,Female,1,2024/03/21_12:26:36,YZ,None,
,,,,,,Calibration,0,,2,500,,,,,,,,,,,,,,,,,,,,,,,,,17,,,1,,,,,,,,,,,,,,,,,,,,,,,,,,,,,,,,,,,,,,,,,,,,,,111,151507,19,Female,1,2024/03/21_12:26:36,YZ,None,
,,,,,,CALIBRATION,0,,,,,,,,,,,,,,,,,,,,,,,,,,,,17,0.8409090909090908,500,1,,,,,,,,,,,,,,,,,,,,,,,,,,,,,,,,,,,,,,,,,,,,,,111,151507,19,Female,1,2024/03/21_12:26:36,YZ,None,
1,./instructions/inst_prac_1/Slide24.png,right,10.363518140000451,570.5422107309987,580.9057288709992,,,,,,,,,,,,,,,,,,,,,,,,,,,,,,,,,1,,,,,,,,,,,,,,,,,,,,,,,,,,,,,,,,,,,,,,,,,,,,,,111,151507,19,Female,1,2024/03/21_12:26:36,YZ,None,
2,./instructions/inst_prac_1/Slide25.png,right,2.731579082999815,580.9341750820004,583.6657541650002,,,,,,,,,,,,,,,,,,,,,,,,,,,,,,,,,1,,,,,,,,,,,,,,,,,,,,,,,,,,,,,,,,,,,,,,,,,,,,,,111,151507,19,Female,1,2024/03/21_12:26:36,YZ,None,
3,./instructions/inst_prac_1/Slide26.png,right,2.178534493999905,583.6950832809998,585.8736177749997,,,,,,,,,,,,,,,,,,,,,,,,,,,,,,,,,1,,,,,,,,,,,,,,,,,,,,,,,,,,,,,,,,,,,,,,,,,,,,,,111,151507,19,Female,1,2024/03/21_12:26:36,YZ,None,
4,./instructions/inst_prac_1/Slide27.png,right,1.4184276039995893,585.9031675229999,587.3215951269995,,,,,,,,,,,,,,,,,,,,,,,,,,,,,,,,,1,,,,,,,,,,,,,,,,,,,,,,,,,,,,,,,,,,,,,,,,,,,,,,111,151507,19,Female,1,2024/03/21_12:26:36,YZ,None,
5,./instructions/inst_prac_1/Slide28.png,right,0.9385747720007203,587.3510204939994,588.2895952660001,,,,,,,,,,,,,,,,,,,,,,,,,,,,,,,,,1,,,,,,,,,,,,,,,,,,,,,,,,,,,,,,,,,,,,,,,,,,,,,,111,151507,19,Female,1,2024/03/21_12:26:36,YZ,None,
6,./instructions/inst_prac_1/Slide29.png,right,4.2904454990002705,588.3191672869998,592.6096127860001,,,,,,,,,,,,,,,,,,,,,,,,,,,,,,,,,1,,,,,,,,,,,,,,,,,,,,,,,,,,,,,,,,,,,,,,,,,,,,,,111,151507,19,Female,1,2024/03/21_12:26:36,YZ,None,
7,./instructions/inst_prac_1/Slide30.png,right,6.402060752001489,592.6396137889988,599.0416745410002,,,,,,,,,,,,,,,,,,,,,,,,,,,,,,,,,1,,,,,,,,,,,,,,,,,,,,,,,,,,,,,,,,,,,,,,,,,,,,,,111,151507,19,Female,1,2024/03/21_12:26:36,YZ,None,
,,,,,,practice,0,27,1,1250,1,S,0,right,1.809580092000033,1,0,,,,,,,,,,,,,,,,,,,,,1,,,,,,,,,,,,,,,,,,,,,,,,,,,,,,,,,,,,,,,,,,,,,,111,151507,19,Female,1,2024/03/21_12:26:36,YZ,None,
,,,,,,practice,0,27,1,1250,2,S,1,left,0.9258273960003862,1,0,,,,,,,,,,,,,,,,,,,,,1,,,,,,,,,,,,,,,,,,,,,,,,,,,,,,,,,,,,,,,,,,,,,,111,151507,19,Female,1,2024/03/21_12:26:36,YZ,None,
,,,,,,practice,0,27,1,1250,3,Q,0,right,2.300163543999588,1,0,,,,,,,,,,,,,,,,,,,,,1,,,,,,,,,,,,,,,,,,,,,,,,,,,,,,,,,,,,,,,,,,,,,,111,151507,19,Female,1,2024/03/21_12:26:36,YZ,None,
,,,,,,practice,0,27,1,1250,4,X,0,right,1.5079394589993171,1,0,,,,,,,,,,,,,,,,,,,,,1,,,,,,,,,,,,,,,,,,,,,,,,,,,,,,,,,,,,,,,,,,,,,,111,151507,19,Female,1,2024/03/21_12:26:36,YZ,None,
,,,,,,practice,0,27,1,1250,5,N,0,right,0.6932736760008993,1,0,,,,,,,,,,,,,,,,,,,,,1,,,,,,,,,,,,,,,,,,,,,,,,,,,,,,,,,,,,,,,,,,,,,,111,151507,19,Female,1,2024/03/21_12:26:36,YZ,None,
,,,,,,practice,0,27,1,1250,6,N,1,left,0.85979668499931,1,0,,,,,,,,,,,,,,,,,,,,,1,,,,,,,,,,,,,,,,,,,,,,,,,,,,,,,,,,,,,,,,,,,,,,111,151507,19,Female,1,2024/03/21_12:26:36,YZ,None,
,,,,,,practice,0,27,1,1250,7,X,0,right,0.8362744229998498,1,0,,,,,,,,,,,,,,,,,,,,,1,,,,,,,,,,,,,,,,,,,,,,,,,,,,,,,,,,,,,,,,,,,,,,111,151507,19,Female,1,2024/03/21_12:26:36,YZ,None,
,,,,,,practice,0,27,1,1250,8,X,1,right,0.6764819020008872,0,0,,,,,,,,,,,,,,,,,,,,,1,,,,,,,,,,,,,,,,,,,,,,,,,,,,,,,,,,,,,,,,,,,,,,111,151507,19,Female,1,2024/03/21_12:26:36,YZ,None,
,,,,,,practice,0,27,1,1250,9,C,0,right,1.5977289580005163,1,0,,,,,,,,,,,,,,,,,,,,,1,,,,,,,,,,,,,,,,,,,,,,,,,,,,,,,,,,,,,,,,,,,,,,111,151507,19,Female,1,2024/03/21_12:26:36,YZ,None,
,,,,,,practice,0,27,1,1250,10,V,0,right,0.8673432080013299,1,0,,,,,,,,,,,,,,,,,,,,,1,,,,,,,,,,,,,,,,,,,,,,,,,,,,,,,,,,,,,,,,,,,,,,111,151507,19,Female,1,2024/03/21_12:26:36,YZ,None,
,,,,,,practice,0,27,1,1250,,,,,,,,0.9166666666666666,0.6666666666666666,0.0,1.0,0.0,1.0,1.2074409343002117,2,0,0,0,0,7,9,3,7,0,,,,1,,,,,,,,,,,,,,,,,,,,,,,,,,,,,,,,,,,,,,,,,,,,,,111,151507,19,Female,1,2024/03/21_12:26:36,YZ,None,
-1,./instructions/inst_prac_1_next/Slide35.png,left,1.7199158269995678,622.1778160129998,623.8977318399993,,,,,,,,,,,,,,,,,,,,,,,,,,,,,,,,,1,,,,,,,,,,,,,,,,,,,,,,,,,,,,,,,,,,,,,,,,,,,,,,111,151507,19,Female,1,2024/03/21_12:26:36,YZ,None,
,,,,,,practice,0,16,1,500,1,N,0,right,0.8501567339990288,1,0,,,,,,,,,,,,,,,,,,,,,1,,,,,,,,,,,,,,,,,,,,,,,,,,,,,,,,,,,,,,,,,,,,,,111,151507,19,Female,1,2024/03/21_12:26:36,YZ,None,
,,,,,,practice,0,16,1,500,2,Q,0,right,0.7170427290002408,1,0,,,,,,,,,,,,,,,,,,,,,1,,,,,,,,,,,,,,,,,,,,,,,,,,,,,,,,,,,,,,,,,,,,,,111,151507,19,Female,1,2024/03/21_12:26:36,YZ,None,
,,,,,,practice,0,16,1,500,3,S,0,right,0.6527518150014657,1,0,,,,,,,,,,,,,,,,,,,,,1,,,,,,,,,,,,,,,,,,,,,,,,,,,,,,,,,,,,,,,,,,,,,,111,151507,19,Female,1,2024/03/21_12:26:36,YZ,None,
,,,,,,practice,0,16,1,500,4,S,1,left,0.6955373610016977,1,0,,,,,,,,,,,,,,,,,,,,,1,,,,,,,,,,,,,,,,,,,,,,,,,,,,,,,,,,,,,,,,,,,,,,111,151507,19,Female,1,2024/03/21_12:26:36,YZ,None,
,,,,,,practice,0,16,1,500,5,Q,0,right,0.6351955700010876,1,0,,,,,,,,,,,,,,,,,,,,,1,,,,,,,,,,,,,,,,,,,,,,,,,,,,,,,,,,,,,,,,,,,,,,111,151507,19,Female,1,2024/03/21_12:26:36,YZ,None,
,,,,,,practice,0,16,1,500,6,J,0,right,0.540041027999905,1,0,,,,,,,,,,,,,,,,,,,,,1,,,,,,,,,,,,,,,,,,,,,,,,,,,,,,,,,,,,,,,,,,,,,,111,151507,19,Female,1,2024/03/21_12:26:36,YZ,None,
,,,,,,practice,0,16,1,500,7,X,0,right,0.4462091479999799,1,0,,,,,,,,,,,,,,,,,,,,,1,,,,,,,,,,,,,,,,,,,,,,,,,,,,,,,,,,,,,,,,,,,,,,111,151507,19,Female,1,2024/03/21_12:26:36,YZ,None,
,,,,,,practice,0,16,1,500,8,Q,0,right,0.5499347210006817,1,0,,,,,,,,,,,,,,,,,,,,,1,,,,,,,,,,,,,,,,,,,,,,,,,,,,,,,,,,,,,,,,,,,,,,111,151507,19,Female,1,2024/03/21_12:26:36,YZ,None,
,,,,,,practice,0,16,1,500,9,Q,1,left,0.717238412998995,1,0,,,,,,,,,,,,,,,,,,,,,1,,,,,,,,,,,,,,,,,,,,,,,,,,,,,,,,,,,,,,,,,,,,,,111,151507,19,Female,1,2024/03/21_12:26:36,YZ,None,
,,,,,,practice,0,16,1,500,10,V,0,right,0.4452756059999956,1,0,,,,,,,,,,,,,,,,,,,,,1,,,,,,,,,,,,,,,,,,,,,,,,,,,,,,,,,,,,,,,,,,,,,,111,151507,19,Female,1,2024/03/21_12:26:36,YZ,None,
,,,,,,practice,0,16,1,500,11,V,1,left,0.6922504549984296,1,0,,,,,,,,,,,,,,,,,,,,,1,,,,,,,,,,,,,,,,,,,,,,,,,,,,,,,,,,,,,,,,,,,,,,111,151507,19,Female,1,2024/03/21_12:26:36,YZ,None,
,,,,,,practice,0,16,1,500,12,J,0,right,0.5528822430005675,1,0,,,,,,,,,,,,,,,,,,,,,1,,,,,,,,,,,,,,,,,,,,,,,,,,,,,,,,,,,,,,,,,,,,,,111,151507,19,Female,1,2024/03/21_12:26:36,YZ,None,
,,,,,,practice,0,16,1,500,13,Q,0,right,0.7757554970012279,1,0,,,,,,,,,,,,,,,,,,,,,1,,,,,,,,,,,,,,,,,,,,,,,,,,,,,,,,,,,,,,,,,,,,,,111,151507,19,Female,1,2024/03/21_12:26:36,YZ,None,
,,,,,,practice,0,16,1,500,14,J,0,right,0.6837798729993665,1,0,,,,,,,,,,,,,,,,,,,,,1,,,,,,,,,,,,,,,,,,,,,,,,,,,,,,,,,,,,,,,,,,,,,,111,151507,19,Female,1,2024/03/21_12:26:36,YZ,None,
,,,,,,practice,0,16,1,500,15,J,1,left,0.6364728169992304,1,0,,,,,,,,,,,,,,,,,,,,,1,,,,,,,,,,,,,,,,,,,,,,,,,,,,,,,,,,,,,,,,,,,,,,111,151507,19,Female,1,2024/03/21_12:26:36,YZ,None,
,,,,,,practice,0,16,1,500,16,S,0,right,0.6839969009997731,1,0,,,,,,,,,,,,,,,,,,,,,1,,,,,,,,,,,,,,,,,,,,,,,,,,,,,,,,,,,,,,,,,,,,,,111,151507,19,Female,1,2024/03/21_12:26:36,YZ,None,
,,,,,,practice,0,16,1,500,,,,,,,,1.0,1.0,0.0,1.0,0.0,1.0,0.6421575569376046,4,0,0,0,0,12,16,4,12,0,,,,1,,,,,,,,,,,,,,,,,,,,,,,,,,,,,,,,,,,,,,,,,,,,,,111,151507,19,Female,1,2024/03/21_12:26:36,YZ,None,
1,./instructions/inst_prac_1_next/Slide35.png,right,5.097328143001505,652.0323885959988,657.1297167390003,,,,,,,,,,,,,,,,,,,,,,,,,,,,,,,,,1,,,,,,,,,,,,,,,,,,,,,,,,,,,,,,,,,,,,,,,,,,,,,,111,151507,19,Female,1,2024/03/21_12:26:36,YZ,None,
,,,,,,practice,0,36,1,500,1,C,0,right,0.9162611519986967,1,0,,,,,,,,,,,,,,,,,,,,,1,,,,,,,,,,,,,,,,,,,,,,,,,,,,,,,,,,,,,,,,,,,,,,111,151507,19,Female,1,2024/03/21_12:26:36,YZ,None,
,,,,,,practice,0,36,1,500,2,C,1,left,0.6081963769993308,1,0,,,,,,,,,,,,,,,,,,,,,1,,,,,,,,,,,,,,,,,,,,,,,,,,,,,,,,,,,,,,,,,,,,,,111,151507,19,Female,1,2024/03/21_12:26:36,YZ,None,
,,,,,,practice,0,36,1,500,3,V,0,right,0.5353950919998169,1,0,,,,,,,,,,,,,,,,,,,,,1,,,,,,,,,,,,,,,,,,,,,,,,,,,,,,,,,,,,,,,,,,,,,,111,151507,19,Female,1,2024/03/21_12:26:36,YZ,None,
,,,,,,practice,0,36,1,500,4,V,1,left,0.6182366489993001,1,0,,,,,,,,,,,,,,,,,,,,,1,,,,,,,,,,,,,,,,,,,,,,,,,,,,,,,,,,,,,,,,,,,,,,111,151507,19,Female,1,2024/03/21_12:26:36,YZ,None,
,,,,,,practice,0,36,1,500,5,J,0,right,0.6418878690001293,1,0,,,,,,,,,,,,,,,,,,,,,1,,,,,,,,,,,,,,,,,,,,,,,,,,,,,,,,,,,,,,,,,,,,,,111,151507,19,Female,1,2024/03/21_12:26:36,YZ,None,
,,,,,,practice,0,36,1,500,6,N,0,right,0.5960430939994694,1,0,,,,,,,,,,,,,,,,,,,,,1,,,,,,,,,,,,,,,,,,,,,,,,,,,,,,,,,,,,,,,,,,,,,,111,151507,19,Female,1,2024/03/21_12:26:36,YZ,None,
,,,,,,practice,0,36,1,500,7,C,0,right,0.6285794729992631,1,0,,,,,,,,,,,,,,,,,,,,,1,,,,,,,,,,,,,,,,,,,,,,,,,,,,,,,,,,,,,,,,,,,,,,111,151507,19,Female,1,2024/03/21_12:26:36,YZ,None,
,,,,,,practice,0,36,1,500,8,N,0,right,0.6365051920001861,1,0,,,,,,,,,,,,,,,,,,,,,1,,,,,,,,,,,,,,,,,,,,,,,,,,,,,,,,,,,,,,,,,,,,,,111,151507,19,Female,1,2024/03/21_12:26:36,YZ,None,
,,,,,,practice,0,36,1,500,9,J,0,right,0.7044551849994605,1,0,,,,,,,,,,,,,,,,,,,,,1,,,,,,,,,,,,,,,,,,,,,,,,,,,,,,,,,,,,,,,,,,,,,,111,151507,19,Female,1,2024/03/21_12:26:36,YZ,None,
,,,,,,practice,0,36,1,500,10,V,0,right,0.6164895279998746,1,0,,,,,,,,,,,,,,,,,,,,,1,,,,,,,,,,,,,,,,,,,,,,,,,,,,,,,,,,,,,,,,,,,,,,111,151507,19,Female,1,2024/03/21_12:26:36,YZ,None,
,,,,,,practice,0,36,1,500,11,V,1,left,0.6056903429998783,1,0,,,,,,,,,,,,,,,,,,,,,1,,,,,,,,,,,,,,,,,,,,,,,,,,,,,,,,,,,,,,,,,,,,,,111,151507,19,Female,1,2024/03/21_12:26:36,YZ,None,
,,,,,,practice,0,36,1,500,12,J,0,right,0.6493447410011868,1,0,,,,,,,,,,,,,,,,,,,,,1,,,,,,,,,,,,,,,,,,,,,,,,,,,,,,,,,,,,,,,,,,,,,,111,151507,19,Female,1,2024/03/21_12:26:36,YZ,None,
,,,,,,practice,0,36,1,500,13,J,1,left,0.600651298998855,1,0,,,,,,,,,,,,,,,,,,,,,1,,,,,,,,,,,,,,,,,,,,,,,,,,,,,,,,,,,,,,,,,,,,,,111,151507,19,Female,1,2024/03/21_12:26:36,YZ,None,
,,,,,,practice,0,36,1,500,14,C,0,right,0.6000019080001948,1,0,,,,,,,,,,,,,,,,,,,,,1,,,,,,,,,,,,,,,,,,,,,,,,,,,,,,,,,,,,,,,,,,,,,,111,151507,19,Female,1,2024/03/21_12:26:36,YZ,None,
,,,,,,practice,0,36,1,500,15,N,0,right,1.0123263369987399,1,0,,,,,,,,,,,,,,,,,,,,,1,,,,,,,,,,,,,,,,,,,,,,,,,,,,,,,,,,,,,,,,,,,,,,111,151507,19,Female,1,2024/03/21_12:26:36,YZ,None,
,,,,,,practice,0,36,1,500,16,X,0,right,0.6522729790012818,1,0,,,,,,,,,,,,,,,,,,,,,1,,,,,,,,,,,,,,,,,,,,,,,,,,,,,,,,,,,,,,,,,,,,,,111,151507,19,Female,1,2024/03/21_12:26:36,YZ,None,
,,,,,,practice,0,36,1,500,,,,,,,,1.0,1.0,0.0,1.0,0.0,1.0,0.663896076124729,4,0,0,0,0,12,16,4,12,0,,,,1,,,,,,,,,,,,,,,,,,,,,,,,,,,,,,,,,,,,,,,,,,,,,,111,151507,19,Female,1,2024/03/21_12:26:36,YZ,None,
,,,,,,practice,0,20,1,500,1,X,0,right,0.8682630110015452,1,0,,,,,,,,,,,,,,,,,,,,,1,,,,,,,,,,,,,,,,,,,,,,,,,,,,,,,,,,,,,,,,,,,,,,111,151507,19,Female,1,2024/03/21_12:26:36,YZ,None,
,,,,,,practice,0,20,1,500,2,S,0,right,0.5861188330000004,1,0,,,,,,,,,,,,,,,,,,,,,1,,,,,,,,,,,,,,,,,,,,,,,,,,,,,,,,,,,,,,,,,,,,,,111,151507,19,Female,1,2024/03/21_12:26:36,YZ,None,
,,,,,,practice,0,20,1,500,3,S,1,left,0.5247317120010848,1,0,,,,,,,,,,,,,,,,,,,,,1,,,,,,,,,,,,,,,,,,,,,,,,,,,,,,,,,,,,,,,,,,,,,,111,151507,19,Female,1,2024/03/21_12:26:36,YZ,None,
,,,,,,practice,0,20,1,500,4,C,0,right,0.52011986800062,1,0,,,,,,,,,,,,,,,,,,,,,1,,,,,,,,,,,,,,,,,,,,,,,,,,,,,,,,,,,,,,,,,,,,,,111,151507,19,Female,1,2024/03/21_12:26:36,YZ,None,
,,,,,,practice,0,20,1,500,5,C,1,left,0.5598390329996619,1,0,,,,,,,,,,,,,,,,,,,,,1,,,,,,,,,,,,,,,,,,,,,,,,,,,,,,,,,,,,,,,,,,,,,,111,151507,19,Female,1,2024/03/21_12:26:36,YZ,None,
,,,,,,practice,0,20,1,500,6,Q,0,right,0.5208538459992269,1,0,,,,,,,,,,,,,,,,,,,,,1,,,,,,,,,,,,,,,,,,,,,,,,,,,,,,,,,,,,,,,,,,,,,,111,151507,19,Female,1,2024/03/21_12:26:36,YZ,None,
,,,,,,practice,0,20,1,500,7,N,0,right,0.7678160460000072,1,0,,,,,,,,,,,,,,,,,,,,,1,,,,,,,,,,,,,,,,,,,,,,,,,,,,,,,,,,,,,,,,,,,,,,111,151507,19,Female,1,2024/03/21_12:26:36,YZ,None,
,,,,,,practice,0,20,1,500,8,J,0,right,0.6234915249988262,1,0,,,,,,,,,,,,,,,,,,,,,1,,,,,,,,,,,,,,,,,,,,,,,,,,,,,,,,,,,,,,,,,,,,,,111,151507,19,Female,1,2024/03/21_12:26:36,YZ,None,
,,,,,,practice,0,20,1,500,9,X,0,right,0.6313086739992286,1,0,,,,,,,,,,,,,,,,,,,,,1,,,,,,,,,,,,,,,,,,,,,,,,,,,,,,,,,,,,,,,,,,,,,,111,151507,19,Female,1,2024/03/21_12:26:36,YZ,None,
,,,,,,practice,0,20,1,500,10,C,0,right,0.5885277030010911,1,0,,,,,,,,,,,,,,,,,,,,,1,,,,,,,,,,,,,,,,,,,,,,,,,,,,,,,,,,,,,,,,,,,,,,111,151507,19,Female,1,2024/03/21_12:26:36,YZ,None,
,,,,,,practice,0,20,1,500,11,C,1,left,0.5917754719994264,1,0,,,,,,,,,,,,,,,,,,,,,1,,,,,,,,,,,,,,,,,,,,,,,,,,,,,,,,,,,,,,,,,,,,,,111,151507,19,Female,1,2024/03/21_12:26:36,YZ,None,
,,,,,,practice,0,20,1,500,12,N,0,right,0.5846981310005503,1,0,,,,,,,,,,,,,,,,,,,,,1,,,,,,,,,,,,,,,,,,,,,,,,,,,,,,,,,,,,,,,,,,,,,,111,151507,19,Female,1,2024/03/21_12:26:36,YZ,None,
,,,,,,practice,0,20,1,500,13,N,1,left,0.8314232520006044,1,0,,,,,,,,,,,,,,,,,,,,,1,,,,,,,,,,,,,,,,,,,,,,,,,,,,,,,,,,,,,,,,,,,,,,111,151507,19,Female,1,2024/03/21_12:26:36,YZ,None,
,,,,,,practice,0,20,1,500,14,V,0,right,0.6047730039990711,1,0,,,,,,,,,,,,,,,,,,,,,1,,,,,,,,,,,,,,,,,,,,,,,,,,,,,,,,,,,,,,,,,,,,,,111,151507,19,Female,1,2024/03/21_12:26:36,YZ,None,
,,,,,,practice,0,20,1,500,15,V,1,left,0.57605789399895,1,0,,,,,,,,,,,,,,,,,,,,,1,,,,,,,,,,,,,,,,,,,,,,,,,,,,,,,,,,,,,,,,,,,,,,111,151507,19,Female,1,2024/03/21_12:26:36,YZ,None,
,,,,,,practice,0,20,1,500,16,C,0,right,0.5213507579992438,1,0,,,,,,,,,,,,,,,,,,,,,1,,,,,,,,,,,,,,,,,,,,,,,,,,,,,,,,,,,,,,,,,,,,,,111,151507,19,Female,1,2024/03/21_12:26:36,YZ,None,
,,,,,,practice,0,20,1,500,,,,,,,,1.0,1.0,0.0,1.0,0.0,1.0,0.6188217976249462,5,0,0,0,0,11,16,5,11,0,,,,1,,,,,,,,,,,,,,,,,,,,,,,,,,,,,,,,,,,,,,,,,,,,,,111,151507,19,Female,1,2024/03/21_12:26:36,YZ,None,
1,./instructions/inst_prac_3/Slide37.png,right,9.302742698999282,698.5868668019993,707.8896095009986,,,,,,,,,,,,,,,,,,,,,,,,,,,,,,,,,1,,,,,,,,,,,,,,,,,,,,,,,,,,,,,,,,,,,,,,,,,,,,,,111,151507,19,Female,1,2024/03/21_12:26:36,YZ,None,
2,./instructions/inst_prac_3/Slide38.png,right,2.545837499001209,707.9196782749987,710.4655157739999,,,,,,,,,,,,,,,,,,,,,,,,,,,,,,,,,1,,,,,,,,,,,,,,,,,,,,,,,,,,,,,,,,,,,,,,,,,,,,,,111,151507,19,Female,1,2024/03/21_12:26:36,YZ,None,
3,./instructions/inst_prac_3/Slide39.png,right,0.6908627480006544,710.4947663129988,711.1856290609994,,,,,,,,,,,,,,,,,,,,,,,,,,,,,,,,,1,,,,,,,,,,,,,,,,,,,,,,,,,,,,,,,,,,,,,,,,,,,,,,111,151507,19,Female,1,2024/03/21_12:26:36,YZ,None,
4,./instructions/inst_prac_3/Slide40.png,right,0.7568225849990995,711.2127969060002,711.9696194909993,,,,,,,,,,,,,,,,,,,,,,,,,,,,,,,,,1,,,,,,,,,,,,,,,,,,,,,,,,,,,,,,,,,,,,,,,,,,,,,,111,151507,19,Female,1,2024/03/21_12:26:36,YZ,None,
5,./instructions/inst_prac_3/Slide41.png,right,8.67711847999999,711.9966424369995,720.6737609169995,,,,,,,,,,,,,,,,,,,,,,,,,,,,,,,,,1,,,,,,,,,,,,,,,,,,,,,,,,,,,,,,,,,,,,,,,,,,,,,,111,151507,19,Female,1,2024/03/21_12:26:36,YZ,None,
6,./instructions/inst_prac_3/Slide42.png,right,1.4805401889989298,720.7209484989999,722.2014886879988,,,,,,,,,,,,,,,,,,,,,,,,,,,,,,,,,1,,,,,,,,,,,,,,,,,,,,,,,,,,,,,,,,,,,,,,,,,,,,,,111,151507,19,Female,1,2024/03/21_12:26:36,YZ,None,
7,./instructions/inst_prac_3/Slide43.png,right,2.570521233999898,722.2310914199988,724.8016126539987,,,,,,,,,,,,,,,,,,,,,,,,,,,,,,,,,1,,,,,,,,,,,,,,,,,,,,,,,,,,,,,,,,,,,,,,,,,,,,,,111,151507,19,Female,1,2024/03/21_12:26:36,YZ,None,
8,./instructions/inst_prac_3/Slide44.png,right,1.6892613590007386,724.8321867839986,726.5214481429994,,,,,,,,,,,,,,,,,,,,,,,,,,,,,,,,,1,,,,,,,,,,,,,,,,,,,,,,,,,,,,,,,,,,,,,,,,,,,,,,111,151507,19,Female,1,2024/03/21_12:26:36,YZ,None,
,,,,,,practice,0,7,3,788,1,X,0,right,2.5308437690000574,1,0,,,,,,,,,,,,,,,,,,,,,1,,,,,,,,,,,,,,,,,,,,,,,,,,,,,,,,,,,,,,,,,,,,,,111,151507,19,Female,1,2024/03/21_12:26:36,YZ,None,
,,,,,,practice,0,7,3,788,2,N,0,right,1.100382381999225,1,0,,,,,,,,,,,,,,,,,,,,,1,,,,,,,,,,,,,,,,,,,,,,,,,,,,,,,,,,,,,,,,,,,,,,111,151507,19,Female,1,2024/03/21_12:26:36,YZ,None,
,,,,,,practice,0,7,3,788,3,X,0,right,0.4287099840003066,1,0,,,,,,,,,,,,,,,,,,,,,1,,,,,,,,,,,,,,,,,,,,,,,,,,,,,,,,,,,,,,,,,,,,,,111,151507,19,Female,1,2024/03/21_12:26:36,YZ,None,
,,,,,,practice,0,7,3,788,4,C,0,right,1.1330869949997577,1,0,,,,,,,,,,,,,,,,,,,,,1,,,,,,,,,,,,,,,,,,,,,,,,,,,,,,,,,,,,,,,,,,,,,,111,151507,19,Female,1,2024/03/21_12:26:36,YZ,None,
,,,,,,practice,0,7,3,788,5,S,0,right,0.8155975380013842,1,0,,,,,,,,,,,,,,,,,,,,,1,,,,,,,,,,,,,,,,,,,,,,,,,,,,,,,,,,,,,,,,,,,,,,111,151507,19,Female,1,2024/03/21_12:26:36,YZ,None,
,,,,,,practice,0,7,3,788,6,S,0,right,1.015785034000146,1,0,,,,,,,,,,,,,,,,,,,,,1,,,,,,,,,,,,,,,,,,,,,,,,,,,,,,,,,,,,,,,,,,,,,,111,151507,19,Female,1,2024/03/21_12:26:36,YZ,None,
,,,,,,practice,0,7,3,788,7,C,1,left,1.04463791300077,1,0,,,,,,,,,,,,,,,,,,,,,1,,,,,,,,,,,,,,,,,,,,,,,,,,,,,,,,,,,,,,,,,,,,,,111,151507,19,Female,1,2024/03/21_12:26:36,YZ,None,
,,,,,,practice,0,7,3,788,8,Q,0,right,0.8265653939997719,1,0,,,,,,,,,,,,,,,,,,,,,1,,,,,,,,,,,,,,,,,,,,,,,,,,,,,,,,,,,,,,,,,,,,,,111,151507,19,Female,1,2024/03/21_12:26:36,YZ,None,
,,,,,,practice,0,7,3,788,9,S,1,left,2.5241633629993885,1,0,,,,,,,,,,,,,,,,,,,,,1,,,,,,,,,,,,,,,,,,,,,,,,,,,,,,,,,,,,,,,,,,,,,,111,151507,19,Female,1,2024/03/21_12:26:36,YZ,None,
,,,,,,practice,0,7,3,788,10,Q,0,right,0.8487118800003373,1,0,,,,,,,,,,,,,,,,,,,,,1,,,,,,,,,,,,,,,,,,,,,,,,,,,,,,,,,,,,,,,,,,,,,,111,151507,19,Female,1,2024/03/21_12:26:36,YZ,None,
,,,,,,practice,0,7,3,788,11,Q,1,left,2.1651849579993723,1,0,,,,,,,,,,,,,,,,,,,,,1,,,,,,,,,,,,,,,,,,,,,,,,,,,,,,,,,,,,,,,,,,,,,,111,151507,19,Female,1,2024/03/21_12:26:36,YZ,None,
,,,,,,practice,0,7,3,788,12,V,0,right,0.6490185189995827,1,0,,,,,,,,,,,,,,,,,,,,,1,,,,,,,,,,,,,,,,,,,,,,,,,,,,,,,,,,,,,,,,,,,,,,111,151507,19,Female,1,2024/03/21_12:26:36,YZ,None,
,,,,,,practice,0,7,3,788,13,Q,1,left,1.0308747369999764,1,0,,,,,,,,,,,,,,,,,,,,,1,,,,,,,,,,,,,,,,,,,,,,,,,,,,,,,,,,,,,,,,,,,,,,111,151507,19,Female,1,2024/03/21_12:26:36,YZ,None,
,,,,,,practice,0,7,3,788,,,,,,,,1.0,1.0,0.0,1.0,0.0,1.0,1.2395048050769288,4,0,0,0,0,9,13,4,9,0,,,,1,,,,,,,,,,,,,,,,,,,,,,,,,,,,,,,,,,,,,,,,,,,,,,111,151507,19,Female,1,2024/03/21_12:26:36,YZ,None,
1,./instructions/inst_prac_3_next/Slide49.png,right,1.8370824639987404,756.3083727140001,758.1454551779989,,,,,,,,,,,,,,,,,,,,,,,,,,,,,,,,,1,,,,,,,,,,,,,,,,,,,,,,,,,,,,,,,,,,,,,,,,,,,,,,111,151507,19,Female,1,2024/03/21_12:26:36,YZ,None,
,,,,,,practice,0,23,3,500,1,C,0,right,1.0762006949989882,1,0,,,,,,,,,,,,,,,,,,,,,1,,,,,,,,,,,,,,,,,,,,,,,,,,,,,,,,,,,,,,,,,,,,,,111,151507,19,Female,1,2024/03/21_12:26:36,YZ,None,
,,,,,,practice,0,23,3,500,2,S,0,right,0.6635091600001033,1,0,,,,,,,,,,,,,,,,,,,,,1,,,,,,,,,,,,,,,,,,,,,,,,,,,,,,,,,,,,,,,,,,,,,,111,151507,19,Female,1,2024/03/21_12:26:36,YZ,None,
,,,,,,practice,0,23,3,500,3,Q,0,right,0.9237975359992561,1,0,,,,,,,,,,,,,,,,,,,,,1,,,,,,,,,,,,,,,,,,,,,,,,,,,,,,,,,,,,,,,,,,,,,,111,151507,19,Female,1,2024/03/21_12:26:36,YZ,None,
,,,,,,practice,0,23,3,500,4,C,1,left,0.7049676989990985,1,0,,,,,,,,,,,,,,,,,,,,,1,,,,,,,,,,,,,,,,,,,,,,,,,,,,,,,,,,,,,,,,,,,,,,111,151507,19,Female,1,2024/03/21_12:26:36,YZ,None,
,,,,,,practice,0,23,3,500,5,X,0,right,1.3012549710001622,1,0,,,,,,,,,,,,,,,,,,,,,1,,,,,,,,,,,,,,,,,,,,,,,,,,,,,,,,,,,,,,,,,,,,,,111,151507,19,Female,1,2024/03/21_12:26:36,YZ,None,
,,,,,,practice,0,23,3,500,6,S,0,right,0.7091605410005286,1,0,,,,,,,,,,,,,,,,,,,,,1,,,,,,,,,,,,,,,,,,,,,,,,,,,,,,,,,,,,,,,,,,,,,,111,151507,19,Female,1,2024/03/21_12:26:36,YZ,None,
,,,,,,practice,0,23,3,500,7,N,0,right,0.6922264789991459,1,0,,,,,,,,,,,,,,,,,,,,,1,,,,,,,,,,,,,,,,,,,,,,,,,,,,,,,,,,,,,,,,,,,,,,111,151507,19,Female,1,2024/03/21_12:26:36,YZ,None,
,,,,,,practice,0,23,3,500,8,C,0,left,0.5134299130004365,0,0,,,,,,,,,,,,,,,,,,,,,1,,,,,,,,,,,,,,,,,,,,,,,,,,,,,,,,,,,,,,,,,,,,,,111,151507,19,Female,1,2024/03/21_12:26:36,YZ,None,
,,,,,,practice,0,23,3,500,9,X,0,right,0.56455675899997,1,0,,,,,,,,,,,,,,,,,,,,,1,,,,,,,,,,,,,,,,,,,,,,,,,,,,,,,,,,,,,,,,,,,,,,111,151507,19,Female,1,2024/03/21_12:26:36,YZ,None,
,,,,,,practice,0,23,3,500,10,J,0,right,0.5527982650000922,1,0,,,,,,,,,,,,,,,,,,,,,1,,,,,,,,,,,,,,,,,,,,,,,,,,,,,,,,,,,,,,,,,,,,,,111,151507,19,Female,1,2024/03/21_12:26:36,YZ,None,
,,,,,,practice,0,23,3,500,11,C,1,right,1.181040176001261,0,0,,,,,,,,,,,,,,,,,,,,,1,,,,,,,,,,,,,,,,,,,,,,,,,,,,,,,,,,,,,,,,,,,,,,111,151507,19,Female,1,2024/03/21_12:26:36,YZ,None,
,,,,,,practice,0,23,3,500,12,X,1,right,1.8179891530016903,0,0,,,,,,,,,,,,,,,,,,,,,1,,,,,,,,,,,,,,,,,,,,,,,,,,,,,,,,,,,,,,,,,,,,,,111,151507,19,Female,1,2024/03/21_12:26:36,YZ,None,
,,,,,,practice,0,23,3,500,13,C,0,right,1.7938898029988195,1,0,,,,,,,,,,,,,,,,,,,,,1,,,,,,,,,,,,,,,,,,,,,,,,,,,,,,,,,,,,,,,,,,,,,,111,151507,19,Female,1,2024/03/21_12:26:36,YZ,None,
,,,,,,practice,0,23,3,500,14,V,0,right,0.5649528189987905,1,0,,,,,,,,,,,,,,,,,,,,,1,,,,,,,,,,,,,,,,,,,,,,,,,,,,,,,,,,,,,,,,,,,,,,111,151507,19,Female,1,2024/03/21_12:26:36,YZ,None,
,,,,,,practice,0,23,3,500,15,N,0,right,0.4688191109999025,1,0,,,,,,,,,,,,,,,,,,,,,1,,,,,,,,,,,,,,,,,,,,,,,,,,,,,,,,,,,,,,,,,,,,,,111,151507,19,Female,1,2024/03/21_12:26:36,YZ,None,
,,,,,,practice,0,23,3,500,16,C,1,right,1.6085884580006677,0,0,,,,,,,,,,,,,,,,,,,,,1,,,,,,,,,,,,,,,,,,,,,,,,,,,,,,,,,,,,,,,,,,,,,,111,151507,19,Female,1,2024/03/21_12:26:36,YZ,None,
,,,,,,practice,0,23,3,500,,,,,,,,0.7083333333333333,0.25,0.08333333333333333,0.9166666666666666,0.0,0.9166666666666666,0.9460738461249321,1,1,0,0,0,11,12,4,12,0,,,,1,,,,,,,,,,,,,,,,,,,,,,,,,,,,,,,,,,,,,,,,,,,,,,111,151507,19,Female,1,2024/03/21_12:26:36,YZ,None,
,,,,,,practice,0,21,3,500,1,F,0,right,1.6441243230001419,1,0,,,,,,,,,,,,,,,,,,,,,1,,,,,,,,,,,,,,,,,,,,,,,,,,,,,,,,,,,,,,,,,,,,,,111,151507,19,Female,1,2024/03/21_12:26:36,YZ,None,
,,,,,,practice,0,21,3,500,2,C,0,right,0.6817780879991915,1,0,,,,,,,,,,,,,,,,,,,,,1,,,,,,,,,,,,,,,,,,,,,,,,,,,,,,,,,,,,,,,,,,,,,,111,151507,19,Female,1,2024/03/21_12:26:36,YZ,None,
,,,,,,practice,0,21,3,500,3,F,0,right,0.5962089740005467,1,0,,,,,,,,,,,,,,,,,,,,,1,,,,,,,,,,,,,,,,,,,,,,,,,,,,,,,,,,,,,,,,,,,,,,111,151507,19,Female,1,2024/03/21_12:26:36,YZ,None,
,,,,,,practice,0,21,3,500,4,J,0,right,0.8320676700004697,1,0,,,,,,,,,,,,,,,,,,,,,1,,,,,,,,,,,,,,,,,,,,,,,,,,,,,,,,,,,,,,,,,,,,,,111,151507,19,Female,1,2024/03/21_12:26:36,YZ,None,
,,,,,,practice,0,21,3,500,5,C,1,right,1.6445438470000227,0,0,,,,,,,,,,,,,,,,,,,,,1,,,,,,,,,,,,,,,,,,,,,,,,,,,,,,,,,,,,,,,,,,,,,,111,151507,19,Female,1,2024/03/21_12:26:36,YZ,None,
,,,,,,practice,0,21,3,500,6,X,0,right,0.5722052799992525,1,0,,,,,,,,,,,,,,,,,,,,,1,,,,,,,,,,,,,,,,,,,,,,,,,,,,,,,,,,,,,,,,,,,,,,111,151507,19,Female,1,2024/03/21_12:26:36,YZ,None,
,,,,,,practice,0,21,3,500,7,F,0,right,0.5113080280007125,1,0,,,,,,,,,,,,,,,,,,,,,1,,,,,,,,,,,,,,,,,,,,,,,,,,,,,,,,,,,,,,,,,,,,,,111,151507,19,Female,1,2024/03/21_12:26:36,YZ,None,
,,,,,,practice,0,21,3,500,8,C,1,right,0.7804722679993574,0,0,,,,,,,,,,,,,,,,,,,,,1,,,,,,,,,,,,,,,,,,,,,,,,,,,,,,,,,,,,,,,,,,,,,,111,151507,19,Female,1,2024/03/21_12:26:36,YZ,None,
,,,,,,practice,0,21,3,500,9,Q,0,right,0.8371331930011365,1,0,,,,,,,,,,,,,,,,,,,,,1,,,,,,,,,,,,,,,,,,,,,,,,,,,,,,,,,,,,,,,,,,,,,,111,151507,19,Female,1,2024/03/21_12:26:36,YZ,None,
,,,,,,practice,0,21,3,500,10,N,0,right,1.088295281999308,1,0,,,,,,,,,,,,,,,,,,,,,1,,,,,,,,,,,,,,,,,,,,,,,,,,,,,,,,,,,,,,,,,,,,,,111,151507,19,Female,1,2024/03/21_12:26:36,YZ,None,
,,,,,,practice,0,21,3,500,11,S,0,right,0.1352033709990792,1,0,,,,,,,,,,,,,,,,,,,,,1,,,,,,,,,,,,,,,,,,,,,,,,,,,,,,,,,,,,,,,,,,,,,,111,151507,19,Female,1,2024/03/21_12:26:36,YZ,None,
,,,,,,practice,0,21,3,500,12,C,0,left,0.592788403000668,0,0,,,,,,,,,,,,,,,,,,,,,1,,,,,,,,,,,,,,,,,,,,,,,,,,,,,,,,,,,,,,,,,,,,,,111,151507,19,Female,1,2024/03/21_12:26:36,YZ,None,
,,,,,,practice,0,21,3,500,13,C,0,right,1.2080670689992985,1,0,,,,,,,,,,,,,,,,,,,,,1,,,,,,,,,,,,,,,,,,,,,,,,,,,,,,,,,,,,,,,,,,,,,,111,151507,19,Female,1,2024/03/21_12:26:36,YZ,None,
,,,,,,practice,0,21,3,500,14,S,1,right,2.5203996199998073,0,0,,,,,,,,,,,,,,,,,,,,,1,,,,,,,,,,,,,,,,,,,,,,,,,,,,,,,,,,,,,,,,,,,,,,111,151507,19,Female,1,2024/03/21_12:26:36,YZ,None,
,,,,,,practice,0,21,3,500,15,X,0,right,3.1041364840002643,1,0,,,,,,,,,,,,,,,,,,,,,1,,,,,,,,,,,,,,,,,,,,,,,,,,,,,,,,,,,,,,,,,,,,,,111,151507,19,Female,1,2024/03/21_12:26:36,YZ,None,
,,,,,,practice,0,21,3,500,16,C,1,right,0.764359284999955,0,0,,,,,,,,,,,,,,,,,,,,,1,,,,,,,,,,,,,,,,,,,,,,,,,,,,,,,,,,,,,,,,,,,,,,111,151507,19,Female,1,2024/03/21_12:26:36,YZ,None,
,,,,,,practice,0,21,3,500,,,,,,,,0.22916666666666666,0.0,0.08333333333333333,0.9166666666666666,0.0,0.9166666666666666,1.0945681990624507,0,1,0,0,0,11,11,4,12,0,,,,1,,,,,,,,,,,,,,,,,,,,,,,,,,,,,,,,,,,,,,,,,,,,,,111,151507,19,Female,1,2024/03/21_12:26:36,YZ,None,
1,./instructions/inst_redo_3/Slide47.png,right,5.392544075000842,810.2008408579986,815.5933849329995,,,,,,,,,,,,,,,,,,,,,,,,,,,,,,,,,1,,,,,,,,,,,,,,,,,,,,,,,,,,,,,,,,,,,,,,,,,,,,,,111,151507,19,Female,1,2024/03/21_12:26:36,YZ,None,
,,,,,,practice,0,16,3,500,1,X,0,right,0.7791926370009605,1,0,,,,,,,,,,,,,,,,,,,,,1,,,,,,,,,,,,,,,,,,,,,,,,,,,,,,,,,,,,,,,,,,,,,,111,151507,19,Female,1,2024/03/21_12:26:36,YZ,None,
,,,,,,practice,0,16,3,500,2,V,0,right,0.4369163760002266,1,0,,,,,,,,,,,,,,,,,,,,,1,,,,,,,,,,,,,,,,,,,,,,,,,,,,,,,,,,,,,,,,,,,,,,111,151507,19,Female,1,2024/03/21_12:26:36,YZ,None,
,,,,,,practice,0,16,3,500,3,V,0,right,0.7606777439996222,1,0,,,,,,,,,,,,,,,,,,,,,1,,,,,,,,,,,,,,,,,,,,,,,,,,,,,,,,,,,,,,,,,,,,,,111,151507,19,Female,1,2024/03/21_12:26:36,YZ,None,
,,,,,,practice,0,16,3,500,4,C,0,right,1.386170650999702,1,0,,,,,,,,,,,,,,,,,,,,,1,,,,,,,,,,,,,,,,,,,,,,,,,,,,,,,,,,,,,,,,,,,,,,111,151507,19,Female,1,2024/03/21_12:26:36,YZ,None,
,,,,,,practice,0,16,3,500,5,V,1,right,1.560500851001052,0,0,,,,,,,,,,,,,,,,,,,,,1,,,,,,,,,,,,,,,,,,,,,,,,,,,,,,,,,,,,,,,,,,,,,,111,151507,19,Female,1,2024/03/21_12:26:36,YZ,None,
,,,,,,practice,0,16,3,500,6,V,1,left,1.6004706590010755,1,0,,,,,,,,,,,,,,,,,,,,,1,,,,,,,,,,,,,,,,,,,,,,,,,,,,,,,,,,,,,,,,,,,,,,111,151507,19,Female,1,2024/03/21_12:26:36,YZ,None,
,,,,,,practice,0,16,3,500,7,X,0,right,0.8329905880000297,1,0,,,,,,,,,,,,,,,,,,,,,1,,,,,,,,,,,,,,,,,,,,,,,,,,,,,,,,,,,,,,,,,,,,,,111,151507,19,Female,1,2024/03/21_12:26:36,YZ,None,
,,,,,,practice,0,16,3,500,8,N,0,right,0.6323610780000308,1,0,,,,,,,,,,,,,,,,,,,,,1,,,,,,,,,,,,,,,,,,,,,,,,,,,,,,,,,,,,,,,,,,,,,,111,151507,19,Female,1,2024/03/21_12:26:36,YZ,None,
,,,,,,practice,0,16,3,500,9,Q,0,left,0.6286004550001962,0,0,,,,,,,,,,,,,,,,,,,,,1,,,,,,,,,,,,,,,,,,,,,,,,,,,,,,,,,,,,,,,,,,,,,,111,151507,19,Female,1,2024/03/21_12:26:36,YZ,None,
,,,,,,practice,0,16,3,500,10,J,0,right,0.9645574709993525,1,0,,,,,,,,,,,,,,,,,,,,,1,,,,,,,,,,,,,,,,,,,,,,,,,,,,,,,,,,,,,,,,,,,,,,111,151507,19,Female,1,2024/03/21_12:26:36,YZ,None,
,,,,,,practice,0,16,3,500,11,C,0,right,0.5223949880000873,1,0,,,,,,,,,,,,,,,,,,,,,1,,,,,,,,,,,,,,,,,,,,,,,,,,,,,,,,,,,,,,,,,,,,,,111,151507,19,Female,1,2024/03/21_12:26:36,YZ,None,
,,,,,,practice,0,16,3,500,12,Q,1,right,1.2923355549992266,0,0,,,,,,,,,,,,,,,,,,,,,1,,,,,,,,,,,,,,,,,,,,,,,,,,,,,,,,,,,,,,,,,,,,,,111,151507,19,Female,1,2024/03/21_12:26:36,YZ,None,
,,,,,,practice,0,16,3,500,13,J,1,right,0.3802435749985307,0,0,,,,,,,,,,,,,,,,,,,,,1,,,,,,,,,,,,,,,,,,,,,,,,,,,,,,,,,,,,,,,,,,,,,,111,151507,19,Female,1,2024/03/21_12:26:36,YZ,None,
,,,,,,practice,0,16,3,500,14,V,0,left,1.0847143499995582,0,0,,,,,,,,,,,,,,,,,,,,,1,,,,,,,,,,,,,,,,,,,,,,,,,,,,,,,,,,,,,,,,,,,,,,111,151507,19,Female,1,2024/03/21_12:26:36,YZ,None,
,,,,,,practice,0,16,3,500,15,Q,1,right,0.34154621599918755,0,0,,,,,,,,,,,,,,,,,,,,,1,,,,,,,,,,,,,,,,,,,,,,,,,,,,,,,,,,,,,,,,,,,,,,111,151507,19,Female,1,2024/03/21_12:26:36,YZ,None,
,,,,,,practice,0,16,3,500,16,V,0,right,0.40146008699957747,1,0,,,,,,,,,,,,,,,,,,,,,1,,,,,,,,,,,,,,,,,,,,,,,,,,,,,,,,,,,,,,,,,,,,,,111,151507,19,Female,1,2024/03/21_12:26:36,YZ,None,
,,,,,,practice,0,16,3,500,,,,,,,,0.5272727272727272,0.2,0.18181818181818182,0.8181818181818182,0.0,0.8181818181818181,0.850320830062401,1,2,0,0,0,9,10,5,11,0,,,,1,,,,,,,,,,,,,,,,,,,,,,,,,,,,,,,,,,,,,,,,,,,,,,111,151507,19,Female,1,2024/03/21_12:26:36,YZ,None,
1,./instructions/inst_redo_3/Slide47.png,right,1.7481404679983825,838.6454863090003,840.3936267769986,,,,,,,,,,,,,,,,,,,,,,,,,,,,,,,,,1,,,,,,,,,,,,,,,,,,,,,,,,,,,,,,,,,,,,,,,,,,,,,,111,151507,19,Female,1,2024/03/21_12:26:36,YZ,None,
,,,,,,practice,0,32,3,500,1,S,0,right,1.1479489319990535,1,0,,,,,,,,,,,,,,,,,,,,,1,,,,,,,,,,,,,,,,,,,,,,,,,,,,,,,,,,,,,,,,,,,,,,111,151507,19,Female,1,2024/03/21_12:26:36,YZ,None,
,,,,,,practice,0,32,3,500,2,V,0,right,3.132981648999703,1,0,,,,,,,,,,,,,,,,,,,,,1,,,,,,,,,,,,,,,,,,,,,,,,,,,,,,,,,,,,,,,,,,,,,,111,151507,19,Female,1,2024/03/21_12:26:36,YZ,None,
,,,,,,practice,0,32,3,500,3,F,0,right,1.0081177299998672,1,0,,,,,,,,,,,,,,,,,,,,,1,,,,,,,,,,,,,,,,,,,,,,,,,,,,,,,,,,,,,,,,,,,,,,111,151507,19,Female,1,2024/03/21_12:26:36,YZ,None,
,,,,,,practice,0,32,3,500,4,F,0,right,0.7115939969989995,1,0,,,,,,,,,,,,,,,,,,,,,1,,,,,,,,,,,,,,,,,,,,,,,,,,,,,,,,,,,,,,,,,,,,,,111,151507,19,Female,1,2024/03/21_12:26:36,YZ,None,
,,,,,,practice,0,32,3,500,5,X,0,right,2.184444402999361,1,0,,,,,,,,,,,,,,,,,,,,,1,,,,,,,,,,,,,,,,,,,,,,,,,,,,,,,,,,,,,,,,,,,,,,111,151507,19,Female,1,2024/03/21_12:26:36,YZ,None,
,,,,,,practice,0,32,3,500,6,J,0,right,4.145423344998562,1,0,,,,,,,,,,,,,,,,,,,,,1,,,,,,,,,,,,,,,,,,,,,,,,,,,,,,,,,,,,,,,,,,,,,,111,151507,19,Female,1,2024/03/21_12:26:36,YZ,None,
,,,,,,practice,0,32,3,500,7,V,0,right,1.5188702030009154,1,0,,,,,,,,,,,,,,,,,,,,,1,,,,,,,,,,,,,,,,,,,,,,,,,,,,,,,,,,,,,,,,,,,,,,111,151507,19,Female,1,2024/03/21_12:26:36,YZ,None,
,,,,,,practice,0,32,3,500,8,X,1,left,0.7301733539989073,1,0,,,,,,,,,,,,,,,,,,,,,1,,,,,,,,,,,,,,,,,,,,,,,,,,,,,,,,,,,,,,,,,,,,,,111,151507,19,Female,1,2024/03/21_12:26:36,YZ,None,
,,,,,,practice,0,32,3,500,9,J,1,left,2.1350920969998697,1,0,,,,,,,,,,,,,,,,,,,,,1,,,,,,,,,,,,,,,,,,,,,,,,,,,,,,,,,,,,,,,,,,,,,,111,151507,19,Female,1,2024/03/21_12:26:36,YZ,None,
,,,,,,practice,0,32,3,500,10,C,0,right,1.2171383799995965,1,0,,,,,,,,,,,,,,,,,,,,,1,,,,,,,,,,,,,,,,,,,,,,,,,,,,,,,,,,,,,,,,,,,,,,111,151507,19,Female,1,2024/03/21_12:26:36,YZ,None,
,,,,,,practice,0,32,3,500,11,Q,0,right,0.5289161260006949,1,0,,,,,,,,,,,,,,,,,,,,,1,,,,,,,,,,,,,,,,,,,,,,,,,,,,,,,,,,,,,,,,,,,,,,111,151507,19,Female,1,2024/03/21_12:26:36,YZ,None,
,,,,,,practice,0,32,3,500,12,J,1,right,0.9526485410005989,0,0,,,,,,,,,,,,,,,,,,,,,1,,,,,,,,,,,,,,,,,,,,,,,,,,,,,,,,,,,,,,,,,,,,,,111,151507,19,Female,1,2024/03/21_12:26:36,YZ,None,
,,,,,,practice,0,32,3,500,13,C,1,left,1.863841013999263,1,0,,,,,,,,,,,,,,,,,,,,,1,,,,,,,,,,,,,,,,,,,,,,,,,,,,,,,,,,,,,,,,,,,,,,111,151507,19,Female,1,2024/03/21_12:26:36,YZ,None,
,,,,,,practice,0,32,3,500,14,S,0,right,0.6816592360009963,1,0,,,,,,,,,,,,,,,,,,,,,1,,,,,,,,,,,,,,,,,,,,,,,,,,,,,,,,,,,,,,,,,,,,,,111,151507,19,Female,1,2024/03/21_12:26:36,YZ,None,
,,,,,,practice,0,32,3,500,15,J,1,left,1.6812234059998445,1,0,,,,,,,,,,,,,,,,,,,,,1,,,,,,,,,,,,,,,,,,,,,,,,,,,,,,,,,,,,,,,,,,,,,,111,151507,19,Female,1,2024/03/21_12:26:36,YZ,None,
,,,,,,practice,0,32,3,500,16,F,0,right,0.5814419180005643,1,0,,,,,,,,,,,,,,,,,,,,,1,,,,,,,,,,,,,,,,,,,,,,,,,,,,,,,,,,,,,,,,,,,,,,111,151507,19,Female,1,2024/03/21_12:26:36,YZ,None,
,,,,,,practice,0,32,3,500,,,,,,,,0.95,0.8,0.0,1.0,0.0,1.0,1.5138446456872998,4,0,0,0,0,11,15,5,11,0,,,,1,,,,,,,,,,,,,,,,,,,,,,,,,,,,,,,,,,,,,,,,,,,,,,111,151507,19,Female,1,2024/03/21_12:26:36,YZ,None,
1,./instructions/inst_prac_main/Slide51.png,right,3.059878910000407,875.6296403369997,878.6895192470001,,,,,,,,,,,,,,,,,,,,,,,,,,,,,,,,,1,,,,,,,,,,,,,,,,,,,,,,,,,,,,,,,,,,,,,,,,,,,,,,111,151507,19,Female,1,2024/03/21_12:26:36,YZ,None,
2,./instructions/inst_prac_main/Slide52.png,right,93.25948000599965,878.7180629239992,971.9775429299989,,,,,,,,,,,,,,,,,,,,,,,,,,,,,,,,,1,,,,,,,,,,,,,,,,,,,,,,,,,,,,,,,,,,,,,,,,,,,,,,111,151507,19,Female,1,2024/03/21_12:26:36,YZ,None,
1,./instructions/inst_prac_main/Slide53.png,left,6.4488929610015475,972.0487283459988,978.4976213070004,,,,,,,,,,,,,,,,,,,,,,,,,,,,,,,,,1,,,,,,,,,,,,,,,,,,,,,,,,,,,,,,,,,,,,,,,,,,,,,,111,151507,19,Female,1,2024/03/21_12:26:36,YZ,None,
0,./instructions/inst_prac_main/Slide52.png,left,0.20062418400084425,978.5209302219992,978.721554406,,,,,,,,,,,,,,,,,,,,,,,,,,,,,,,,,1,,,,,,,,,,,,,,,,,,,,,,,,,,,,,,,,,,,,,,,,,,,,,,111,151507,19,Female,1,2024/03/21_12:26:36,YZ,None,
-1,./instructions/inst_prac_main/Slide51.png,left,0.20033642800080997,978.7400035239989,978.9403399519997,,,,,,,,,,,,,,,,,,,,,,,,,,,,,,,,,1,,,,,,,,,,,,,,,,,,,,,,,,,,,,,,,,,,,,,,,,,,,,,,111,151507,19,Female,1,2024/03/21_12:26:36,YZ,None,
-2,./instructions/inst_prac_main/Slide54.png,left,0.20043279099991196,978.9639024989992,979.1643352899991,,,,,,,,,,,,,,,,,,,,,,,,,,,,,,,,,1,,,,,,,,,,,,,,,,,,,,,,,,,,,,,,,,,,,,,,,,,,,,,,111,151507,19,Female,1,2024/03/21_12:26:36,YZ,None,
-3,./instructions/inst_prac_main/Slide53.png,left,0.2004413940012455,979.1868311719991,979.3872725660003,,,,,,,,,,,,,,,,,,,,,,,,,,,,,,,,,1,,,,,,,,,,,,,,,,,,,,,,,,,,,,,,,,,,,,,,,,,,,,,,111,151507,19,Female,1,2024/03/21_12:26:36,YZ,None,
-4,./instructions/inst_prac_main/Slide52.png,left,0.2003017369988811,979.4097172700003,979.6100190069992,,,,,,,,,,,,,,,,,,,,,,,,,,,,,,,,,1,,,,,,,,,,,,,,,,,,,,,,,,,,,,,,,,,,,,,,,,,,,,,,111,151507,19,Female,1,2024/03/21_12:26:36,YZ,None,
,,,,,,practice_main,0,1,1,500,1,N,0,None,nan,0,1,,,,,,,,,,,,,,,,,,,,,1,,,,,,,,,,,,,,,,,,,,,,,,,,,,,,,,,,,,,,,,,,,,,,111,151507,19,Female,1,2024/03/21_12:26:36,YZ,None,
,,,,,,practice_main,0,1,1,500,2,S,0,None,nan,0,1,,,,,,,,,,,,,,,,,,,,,1,,,,,,,,,,,,,,,,,,,,,,,,,,,,,,,,,,,,,,,,,,,,,,111,151507,19,Female,1,2024/03/21_12:26:36,YZ,None,
,,,,,,practice_main,0,1,1,500,3,V,0,right,0.3146100350004417,1,0,,,,,,,,,,,,,,,,,,,,,1,,,,,,,,,,,,,,,,,,,,,,,,,,,,,,,,,,,,,,,,,,,,,,111,151507,19,Female,1,2024/03/21_12:26:36,YZ,None,
,,,,,,practice_main,0,1,1,500,4,J,0,right,0.7506623030003539,1,0,,,,,,,,,,,,,,,,,,,,,1,,,,,,,,,,,,,,,,,,,,,,,,,,,,,,,,,,,,,,,,,,,,,,111,151507,19,Female,1,2024/03/21_12:26:36,YZ,None,
,,,,,,practice_main,0,1,1,500,5,C,0,right,0.7171514410001691,1,0,,,,,,,,,,,,,,,,,,,,,1,,,,,,,,,,,,,,,,,,,,,,,,,,,,,,,,,,,,,,,,,,,,,,111,151507,19,Female,1,2024/03/21_12:26:36,YZ,None,
,,,,,,practice_main,0,1,1,500,6,C,1,left,0.9523542859988083,1,0,,,,,,,,,,,,,,,,,,,,,1,,,,,,,,,,,,,,,,,,,,,,,,,,,,,,,,,,,,,,,,,,,,,,111,151507,19,Female,1,2024/03/21_12:26:36,YZ,None,
,,,,,,practice_main,0,1,1,500,7,J,0,right,0.7405977099988377,1,0,,,,,,,,,,,,,,,,,,,,,1,,,,,,,,,,,,,,,,,,,,,,,,,,,,,,,,,,,,,,,,,,,,,,111,151507,19,Female,1,2024/03/21_12:26:36,YZ,None,
,,,,,,practice_main,0,1,1,500,8,J,1,left,0.7177132400011033,1,0,,,,,,,,,,,,,,,,,,,,,1,,,,,,,,,,,,,,,,,,,,,,,,,,,,,,,,,,,,,,,,,,,,,,111,151507,19,Female,1,2024/03/21_12:26:36,YZ,None,
,,,,,,practice_main,0,1,1,500,9,S,0,right,0.5867903729995305,1,0,,,,,,,,,,,,,,,,,,,,,1,,,,,,,,,,,,,,,,,,,,,,,,,,,,,,,,,,,,,,,,,,,,,,111,151507,19,Female,1,2024/03/21_12:26:36,YZ,None,
,,,,,,practice_main,0,1,1,500,10,C,0,right,0.5123721799991472,1,0,,,,,,,,,,,,,,,,,,,,,1,,,,,,,,,,,,,,,,,,,,,,,,,,,,,,,,,,,,,,,,,,,,,,111,151507,19,Female,1,2024/03/21_12:26:36,YZ,None,
,,,,,,practice_main,0,1,1,500,11,C,1,left,0.5425145419994806,1,0,,,,,,,,,,,,,,,,,,,,,1,,,,,,,,,,,,,,,,,,,,,,,,,,,,,,,,,,,,,,,,,,,,,,111,151507,19,Female,1,2024/03/21_12:26:36,YZ,None,
,,,,,,practice_main,0,1,1,500,12,X,0,right,0.459258184000646,1,0,,,,,,,,,,,,,,,,,,,,,1,,,,,,,,,,,,,,,,,,,,,,,,,,,,,,,,,,,,,,,,,,,,,,111,151507,19,Female,1,2024/03/21_12:26:36,YZ,None,
,,,,,,practice_main,0,1,1,500,13,J,0,right,0.5809176179991482,1,0,,,,,,,,,,,,,,,,,,,,,1,,,,,,,,,,,,,,,,,,,,,,,,,,,,,,,,,,,,,,,,,,,,,,111,151507,19,Female,1,2024/03/21_12:26:36,YZ,None,
,,,,,,practice_main,0,1,1,500,14,J,1,left,0.5544699809997837,1,0,,,,,,,,,,,,,,,,,,,,,1,,,,,,,,,,,,,,,,,,,,,,,,,,,,,,,,,,,,,,,,,,,,,,111,151507,19,Female,1,2024/03/21_12:26:36,YZ,None,
,,,,,,practice_main,0,1,1,500,15,X,0,right,0.4869343700011086,1,0,,,,,,,,,,,,,,,,,,,,,1,,,,,,,,,,,,,,,,,,,,,,,,,,,,,,,,,,,,,,,,,,,,,,111,151507,19,Female,1,2024/03/21_12:26:36,YZ,None,
,,,,,,practice_main,0,1,1,500,16,J,0,right,0.6835786209994694,1,0,,,,,,,,,,,,,,,,,,,,,1,,,,,,,,,,,,,,,,,,,,,,,,,,,,,,,,,,,,,,,,,,,,,,111,151507,19,Female,1,2024/03/21_12:26:36,YZ,None,
