Instruction,Stimulus,Key,RT,START,END,Phase,Block,TrialN,NbackLevel,ISI,LetterN,Letter,Letter_isSame,Letter_Resp,Letter_RT,Letter_Accuracy,Letter_Timeout,Trial_A_measure,Trial_HR,Trial_FAR,Trial_CDR,Trial_MSR,Trial_ACC,Trial_RT,Trial_HitsCount,Trial_FAsCount,Trial_SameNoRespCount,Trial_DiffNoRespCount,Trial_NoRespCount,Trial_CDsCount,Trial_CorrectRespCount,Trial_SameLetterCount,Trial_DiffLetterCount,Trial_InvalidLetterCount,TrialCountCali,CaliEnd_A_measure,ISI_calibrated,Run,TrialIndex,TrialNumber_total,TrialNumber_valid,CueLearning,TrialDemandLearning,CueMapping,OnlineRating,OnlineRatingRT,OnlineRatingTimeOut,CueSTART,RatingSTART,OfflineRatingTimePoint,OfflineRatingQuesIndex,CueFigure,TrialDemand,OfflineRating,OfflineRatingRT,CueStart,OfflineRatingStart,PhaseType,CueLeft,CueDemandLeft,CueRight,CueDemandRight,Choice,ChoiceDemand,TaskDemand,ChoiceRT,ChoiceTimeOut,ChoiceSTART,CueCheck,CueDemandCheck,CorrectAnswer,Answer,AnswerDemand,AnswerRT,AnswerACC,AnswerTimeOut,CheckSTART,DemandRatingQuesIndex,QuesTLX,DemandLevel,DemandRating,DemandRatingRT,QuesStart,PID,SONA,Age,Gender,Run,TIME,EXPERIMENTER,frameRate
-1,./instructions/inst_begin/Slide2.png,left,15.74032466,0.630572736,16.37089739,,,,,,,,,,,,,,,,,,,,,,,,,,,,,,,,,1,,,,,,,,,,,,,,,,,,,,,,,,,,,,,,,,,,,,,,,,,,,,,,50,159208,21,Female,1,2024/02/13_08:53:38,YZ,59.92490152
0,./instructions/inst_begin/Slide4.png,right,16.97607447,16.43485616,33.41093063,,,,,,,,,,,,,,,,,,,,,,,,,,,,,,,,,1,,,,,,,,,,,,,,,,,,,,,,,,,,,,,,,,,,,,,,,,,,,,,,50,159208,21,Female,1,2024/02/13_08:53:38,YZ,59.92490152
1,./instructions/inst_begin/Slide2.png,right,3.586622322,33.4483781,37.03500042,,,,,,,,,,,,,,,,,,,,,,,,,,,,,,,,,1,,,,,,,,,,,,,,,,,,,,,,,,,,,,,,,,,,,,,,,,,,,,,,50,159208,21,Female,1,2024/02/13_08:53:38,YZ,59.92490152
2,./instructions/inst_begin/Slide3.png,right,11.67640165,37.13459508,48.81099673,,,,,,,,,,,,,,,,,,,,,,,,,,,,,,,,,1,,,,,,,,,,,,,,,,,,,,,,,,,,,,,,,,,,,,,,,,,,,,,,50,159208,21,Female,1,2024/02/13_08:53:38,YZ,59.92490152
3,./instructions/inst_begin/Slide4.png,right,7.158704306,48.85220984,56.01091414,,,,,,,,,,,,,,,,,,,,,,,,,,,,,,,,,1,,,,,,,,,,,,,,,,,,,,,,,,,,,,,,,,,,,,,,,,,,,,,,50,159208,21,Female,1,2024/02/13_08:53:38,YZ,59.92490152
1,./instructions/inst_prac_2/Slide6.png,right,26.04304703,56.09625274,82.13929978,,,,,,,,,,,,,,,,,,,,,,,,,,,,,,,,,1,,,,,,,,,,,,,,,,,,,,,,,,,,,,,,,,,,,,,,,,,,,,,,50,159208,21,Female,1,2024/02/13_08:53:38,YZ,59.92490152
2,./instructions/inst_prac_2/Slide7.png,right,19.72926277,82.20985264,101.9391154,,,,,,,,,,,,,,,,,,,,,,,,,,,,,,,,,1,,,,,,,,,,,,,,,,,,,,,,,,,,,,,,,,,,,,,,,,,,,,,,50,159208,21,Female,1,2024/02/13_08:53:38,YZ,59.92490152
3,./instructions/inst_prac_2/Slide8.png,right,6.686455046,101.9966241,108.6830791,,,,,,,,,,,,,,,,,,,,,,,,,,,,,,,,,1,,,,,,,,,,,,,,,,,,,,,,,,,,,,,,,,,,,,,,,,,,,,,,50,159208,21,Female,1,2024/02/13_08:53:38,YZ,59.92490152
4,./instructions/inst_prac_2/Slide9.png,right,5.549004218,108.7419601,114.2909643,,,,,,,,,,,,,,,,,,,,,,,,,,,,,,,,,1,,,,,,,,,,,,,,,,,,,,,,,,,,,,,,,,,,,,,,,,,,,,,,50,159208,21,Female,1,2024/02/13_08:53:38,YZ,59.92490152
5,./instructions/inst_prac_2/Slide10.png,right,0.988420503,114.3664081,115.3548286,,,,,,,,,,,,,,,,,,,,,,,,,,,,,,,,,1,,,,,,,,,,,,,,,,,,,,,,,,,,,,,,,,,,,,,,,,,,,,,,50,159208,21,Female,1,2024/02/13_08:53:38,YZ,59.92490152
6,./instructions/inst_prac_2/Slide11.png,right,1.331059109,115.4079521,116.7390112,,,,,,,,,,,,,,,,,,,,,,,,,,,,,,,,,1,,,,,,,,,,,,,,,,,,,,,,,,,,,,,,,,,,,,,,,,,,,,,,50,159208,21,Female,1,2024/02/13_08:53:38,YZ,59.92490152
7,./instructions/inst_prac_2/Slide12.png,right,2.245411767,116.8054214,119.0508332,,,,,,,,,,,,,,,,,,,,,,,,,,,,,,,,,1,,,,,,,,,,,,,,,,,,,,,,,,,,,,,,,,,,,,,,,,,,,,,,50,159208,21,Female,1,2024/02/13_08:53:38,YZ,59.92490152
8,./instructions/inst_prac_2/Slide13.png,right,1.104669886,119.1062706,120.2109405,,,,,,,,,,,,,,,,,,,,,,,,,,,,,,,,,1,,,,,,,,,,,,,,,,,,,,,,,,,,,,,,,,,,,,,,,,,,,,,,50,159208,21,Female,1,2024/02/13_08:53:38,YZ,59.92490152
9,./instructions/inst_prac_2/Slide14.png,right,28.63473652,120.2642655,148.899002,,,,,,,,,,,,,,,,,,,,,,,,,,,,,,,,,1,,,,,,,,,,,,,,,,,,,,,,,,,,,,,,,,,,,,,,,,,,,,,,50,159208,21,Female,1,2024/02/13_08:53:38,YZ,59.92490152
10,./instructions/inst_prac_2/Slide15.png,right,27.98393829,148.9629545,176.9468928,,,,,,,,,,,,,,,,,,,,,,,,,,,,,,,,,1,,,,,,,,,,,,,,,,,,,,,,,,,,,,,,,,,,,,,,,,,,,,,,50,159208,21,Female,1,2024/02/13_08:53:38,YZ,59.92490152
,,,,,,practice,0,14,2,2583,1,J,0,right,8.479580787,1,0,,,,,,,,,,,,,,,,,,,,,1,,,,,,,,,,,,,,,,,,,,,,,,,,,,,,,,,,,,,,,,,,,,,,50,159208,21,Female,1,2024/02/13_08:53:38,YZ,59.92490152
,,,,,,practice,0,14,2,2583,2,C,0,right,2.603513298,1,0,,,,,,,,,,,,,,,,,,,,,1,,,,,,,,,,,,,,,,,,,,,,,,,,,,,,,,,,,,,,,,,,,,,,50,159208,21,Female,1,2024/02/13_08:53:38,YZ,59.92490152
,,,,,,practice,0,14,2,2583,3,J,1,left,0.8392758,1,0,,,,,,,,,,,,,,,,,,,,,1,,,,,,,,,,,,,,,,,,,,,,,,,,,,,,,,,,,,,,,,,,,,,,50,159208,21,Female,1,2024/02/13_08:53:38,YZ,59.92490152
,,,,,,practice,0,14,2,2583,4,C,1,left,1.229988735,1,0,,,,,,,,,,,,,,,,,,,,,1,,,,,,,,,,,,,,,,,,,,,,,,,,,,,,,,,,,,,,,,,,,,,,50,159208,21,Female,1,2024/02/13_08:53:38,YZ,59.92490152
,,,,,,practice,0,14,2,2583,5,S,0,right,0.936780055,1,0,,,,,,,,,,,,,,,,,,,,,1,,,,,,,,,,,,,,,,,,,,,,,,,,,,,,,,,,,,,,,,,,,,,,50,159208,21,Female,1,2024/02/13_08:53:38,YZ,59.92490152
,,,,,,practice,0,14,2,2583,6,F,0,right,0.859353723,1,0,,,,,,,,,,,,,,,,,,,,,1,,,,,,,,,,,,,,,,,,,,,,,,,,,,,,,,,,,,,,,,,,,,,,50,159208,21,Female,1,2024/02/13_08:53:38,YZ,59.92490152
,,,,,,practice,0,14,2,2583,,,,,,,,1,1,0,1,0,1,2.4914154,2,0,0,0,0,4,6,2,4,0,,,,1,,,,,,,,,,,,,,,,,,,,,,,,,,,,,,,,,,,,,,,,,,,,,,50,159208,21,Female,1,2024/02/13_08:53:38,YZ,59.92490152
1,./instructions/inst_to_cali/Slide20.png,right,1.089248631,198.4897086,199.5789572,,,,,,,,,,,,,,,,,,,,,,,,,,,,,,,,,1,,,,,,,,,,,,,,,,,,,,,,,,,,,,,,,,,,,,,,,,,,,,,,50,159208,21,Female,1,2024/02/13_08:53:38,YZ,59.92490152
1,./instructions/inst_cali/Slide22.png,right,10.57860639,199.7844325,210.3630389,,,,,,,,,,,,,,,,,,,,,,,,,,,,,,,,,1,,,,,,,,,,,,,,,,,,,,,,,,,,,,,,,,,,,,,,,,,,,,,,50,159208,21,Female,1,2024/02/13_08:53:38,YZ,59.92490152
,,,,,,calibration,0,8,2,583,1,J,0,right,1.761986163,1,0,,,,,,,,,,,,,,,,,,,,,1,,,,,,,,,,,,,,,,,,,,,,,,,,,,,,,,,,,,,,,,,,,,,,50,159208,21,Female,1,2024/02/13_08:53:38,YZ,59.92490152
,,,,,,calibration,0,8,2,583,2,Q,0,right,0.862186249,1,0,,,,,,,,,,,,,,,,,,,,,1,,,,,,,,,,,,,,,,,,,,,,,,,,,,,,,,,,,,,,,,,,,,,,50,159208,21,Female,1,2024/02/13_08:53:38,YZ,59.92490152
,,,,,,calibration,0,8,2,583,3,J,1,right,0.561152578,0,0,,,,,,,,,,,,,,,,,,,,,1,,,,,,,,,,,,,,,,,,,,,,,,,,,,,,,,,,,,,,,,,,,,,,50,159208,21,Female,1,2024/02/13_08:53:38,YZ,59.92490152
,,,,,,calibration,0,8,2,583,4,N,0,right,nan,0,1,,,,,,,,,,,,,,,,,,,,,1,,,,,,,,,,,,,,,,,,,,,,,,,,,,,,,,,,,,,,,,,,,,,,50,159208,21,Female,1,2024/02/13_08:53:38,YZ,59.92490152
,,,,,,calibration,0,8,2,583,5,J,1,right,1.298419208,0,0,,,,,,,,,,,,,,,,,,,,,1,,,,,,,,,,,,,,,,,,,,,,,,,,,,,,,,,,,,,,,,,,,,,,50,159208,21,Female,1,2024/02/13_08:53:38,YZ,59.92490152
,,,,,,calibration,0,8,2,583,6,C,0,right,1.413038579,1,0,,,,,,,,,,,,,,,,,,,,,1,,,,,,,,,,,,,,,,,,,,,,,,,,,,,,,,,,,,,,,,,,,,,,50,159208,21,Female,1,2024/02/13_08:53:38,YZ,59.92490152
,,,,,,calibration,0,8,2,583,7,X,0,right,0.94335679,1,0,,,,,,,,,,,,,,,,,,,,,1,,,,,,,,,,,,,,,,,,,,,,,,,,,,,,,,,,,,,,,,,,,,,,50,159208,21,Female,1,2024/02/13_08:53:38,YZ,59.92490152
,,,,,,calibration,0,8,2,583,8,V,0,right,0.978158165,1,0,,,,,,,,,,,,,,,,,,,,,1,,,,,,,,,,,,,,,,,,,,,,,,,,,,,,,,,,,,,,,,,,,,,,50,159208,21,Female,1,2024/02/13_08:53:38,YZ,59.92490152
,,,,,,calibration,0,8,2,583,9,N,0,right,1.164691872,1,0,,,,,,,,,,,,,,,,,,,,,1,,,,,,,,,,,,,,,,,,,,,,,,,,,,,,,,,,,,,,,,,,,,,,50,159208,21,Female,1,2024/02/13_08:53:38,YZ,59.92490152
,,,,,,calibration,0,8,2,583,10,J,0,right,1.393032505,1,0,,,,,,,,,,,,,,,,,,,,,1,,,,,,,,,,,,,,,,,,,,,,,,,,,,,,,,,,,,,,,,,,,,,,50,159208,21,Female,1,2024/02/13_08:53:38,YZ,59.92490152
,,,,,,calibration,0,8,2,583,11,N,1,right,nan,0,1,,,,,,,,,,,,,,,,,,,,,1,,,,,,,,,,,,,,,,,,,,,,,,,,,,,,,,,,,,,,,,,,,,,,50,159208,21,Female,1,2024/02/13_08:53:38,YZ,59.92490152
,,,,,,calibration,0,8,2,583,12,J,1,left,1.277349204,1,0,,,,,,,,,,,,,,,,,,,,,1,,,,,,,,,,,,,,,,,,,,,,,,,,,,,,,,,,,,,,,,,,,,,,50,159208,21,Female,1,2024/02/13_08:53:38,YZ,59.92490152
,,,,,,calibration,0,8,2,583,13,C,0,right,1.115763997,1,0,,,,,,,,,,,,,,,,,,,,,1,,,,,,,,,,,,,,,,,,,,,,,,,,,,,,,,,,,,,,,,,,,,,,50,159208,21,Female,1,2024/02/13_08:53:38,YZ,59.92490152
,,,,,,calibration,0,8,2,583,14,F,0,right,1.895054845,1,0,,,,,,,,,,,,,,,,,,,,,1,,,,,,,,,,,,,,,,,,,,,,,,,,,,,,,,,,,,,,,,,,,,,,50,159208,21,Female,1,2024/02/13_08:53:38,YZ,59.92490152
,,,,,,calibration,0,8,2,583,15,Q,0,right,nan,0,1,,,,,,,,,,,,,,,,,,,,,1,,,,,,,,,,,,,,,,,,,,,,,,,,,,,,,,,,,,,,,,,,,,,,50,159208,21,Female,1,2024/02/13_08:53:38,YZ,59.92490152
,,,,,,calibration,0,8,2,583,,,,,,,,0.8125,0.25,0,1,0.2,0.8,1.222015846,1,0,1,2,3,9,10,4,11,0,,,,1,,,,,,,,,,,,,,,,,,,,,,,,,,,,,,,,,,,,,,,,,,,,,,50,159208,21,Female,1,2024/02/13_08:53:38,YZ,59.92490152
,,,,,,Calibration,0,,2,583,,,,,,,,,,,,,,,,,,,,,,,,,1,,,1,,,,,,,,,,,,,,,,,,,,,,,,,,,,,,,,,,,,,,,,,,,,,,50,159208,21,Female,1,2024/02/13_08:53:38,YZ,59.92490152
,,,,,,calibration,0,6,2,583,1,J,0,right,0.946645102,1,0,,,,,,,,,,,,,,,,,,,,,1,,,,,,,,,,,,,,,,,,,,,,,,,,,,,,,,,,,,,,,,,,,,,,50,159208,21,Female,1,2024/02/13_08:53:38,YZ,59.92490152
,,,,,,calibration,0,6,2,583,2,S,0,right,1.125041666,1,0,,,,,,,,,,,,,,,,,,,,,1,,,,,,,,,,,,,,,,,,,,,,,,,,,,,,,,,,,,,,,,,,,,,,50,159208,21,Female,1,2024/02/13_08:53:38,YZ,59.92490152
,,,,,,calibration,0,6,2,583,3,C,0,right,nan,0,1,,,,,,,,,,,,,,,,,,,,,1,,,,,,,,,,,,,,,,,,,,,,,,,,,,,,,,,,,,,,,,,,,,,,50,159208,21,Female,1,2024/02/13_08:53:38,YZ,59.92490152
,,,,,,calibration,0,6,2,583,4,J,0,right,1.446945815,1,0,,,,,,,,,,,,,,,,,,,,,1,,,,,,,,,,,,,,,,,,,,,,,,,,,,,,,,,,,,,,,,,,,,,,50,159208,21,Female,1,2024/02/13_08:53:38,YZ,59.92490152
,,,,,,calibration,0,6,2,583,5,N,0,right,nan,0,1,,,,,,,,,,,,,,,,,,,,,1,,,,,,,,,,,,,,,,,,,,,,,,,,,,,,,,,,,,,,,,,,,,,,50,159208,21,Female,1,2024/02/13_08:53:38,YZ,59.92490152
,,,,,,calibration,0,6,2,583,6,J,1,left,0.726710067,1,0,,,,,,,,,,,,,,,,,,,,,1,,,,,,,,,,,,,,,,,,,,,,,,,,,,,,,,,,,,,,,,,,,,,,50,159208,21,Female,1,2024/02/13_08:53:38,YZ,59.92490152
,,,,,,calibration,0,6,2,583,7,N,1,left,0.797150684,1,0,,,,,,,,,,,,,,,,,,,,,1,,,,,,,,,,,,,,,,,,,,,,,,,,,,,,,,,,,,,,,,,,,,,,50,159208,21,Female,1,2024/02/13_08:53:38,YZ,59.92490152
,,,,,,calibration,0,6,2,583,8,V,0,right,0.730443952,1,0,,,,,,,,,,,,,,,,,,,,,1,,,,,,,,,,,,,,,,,,,,,,,,,,,,,,,,,,,,,,,,,,,,,,50,159208,21,Female,1,2024/02/13_08:53:38,YZ,59.92490152
,,,,,,calibration,0,6,2,583,9,N,1,left,0.67782217,1,0,,,,,,,,,,,,,,,,,,,,,1,,,,,,,,,,,,,,,,,,,,,,,,,,,,,,,,,,,,,,,,,,,,,,50,159208,21,Female,1,2024/02/13_08:53:38,YZ,59.92490152
,,,,,,calibration,0,6,2,583,10,F,0,right,1.764214053,1,0,,,,,,,,,,,,,,,,,,,,,1,,,,,,,,,,,,,,,,,,,,,,,,,,,,,,,,,,,,,,,,,,,,,,50,159208,21,Female,1,2024/02/13_08:53:38,YZ,59.92490152
,,,,,,calibration,0,6,2,583,11,X,0,right,1.729388841,1,0,,,,,,,,,,,,,,,,,,,,,1,,,,,,,,,,,,,,,,,,,,,,,,,,,,,,,,,,,,,,,,,,,,,,50,159208,21,Female,1,2024/02/13_08:53:38,YZ,59.92490152
,,,,,,calibration,0,6,2,583,12,J,0,right,1.197939789,1,0,,,,,,,,,,,,,,,,,,,,,1,,,,,,,,,,,,,,,,,,,,,,,,,,,,,,,,,,,,,,,,,,,,,,50,159208,21,Female,1,2024/02/13_08:53:38,YZ,59.92490152
,,,,,,calibration,0,6,2,583,13,X,1,left,0.64350523,1,0,,,,,,,,,,,,,,,,,,,,,1,,,,,,,,,,,,,,,,,,,,,,,,,,,,,,,,,,,,,,,,,,,,,,50,159208,21,Female,1,2024/02/13_08:53:38,YZ,59.92490152
,,,,,,calibration,0,6,2,583,14,J,1,left,1.745147635,1,0,,,,,,,,,,,,,,,,,,,,,1,,,,,,,,,,,,,,,,,,,,,,,,,,,,,,,,,,,,,,,,,,,,,,50,159208,21,Female,1,2024/02/13_08:53:38,YZ,59.92490152
,,,,,,calibration,0,6,2,583,15,Q,0,right,1.296928083,1,0,,,,,,,,,,,,,,,,,,,,,1,,,,,,,,,,,,,,,,,,,,,,,,,,,,,,,,,,,,,,,,,,,,,,50,159208,21,Female,1,2024/02/13_08:53:38,YZ,59.92490152
,,,,,,calibration,0,6,2,583,,,,,,,,1,1,0,1,0.133333333,0.866666667,1.140606391,5,0,0,2,2,8,13,5,10,0,,,,1,,,,,,,,,,,,,,,,,,,,,,,,,,,,,,,,,,,,,,,,,,,,,,50,159208,21,Female,1,2024/02/13_08:53:38,YZ,59.92490152
,,,,,,Calibration,0,,2,583,,,,,,,,,,,,,,,,,,,,,,,,,2,,,1,,,,,,,,,,,,,,,,,,,,,,,,,,,,,,,,,,,,,,,,,,,,,,50,159208,21,Female,1,2024/02/13_08:53:38,YZ,59.92490152
,,,,,,calibration,0,21,2,500,1,Q,0,right,0.995169954,1,0,,,,,,,,,,,,,,,,,,,,,1,,,,,,,,,,,,,,,,,,,,,,,,,,,,,,,,,,,,,,,,,,,,,,50,159208,21,Female,1,2024/02/13_08:53:38,YZ,59.92490152
,,,,,,calibration,0,21,2,500,2,C,0,right,0.812744988,1,0,,,,,,,,,,,,,,,,,,,,,1,,,,,,,,,,,,,,,,,,,,,,,,,,,,,,,,,,,,,,,,,,,,,,50,159208,21,Female,1,2024/02/13_08:53:38,YZ,59.92490152
,,,,,,calibration,0,21,2,500,3,Q,1,left,0.8412327,1,0,,,,,,,,,,,,,,,,,,,,,1,,,,,,,,,,,,,,,,,,,,,,,,,,,,,,,,,,,,,,,,,,,,,,50,159208,21,Female,1,2024/02/13_08:53:38,YZ,59.92490152
,,,,,,calibration,0,21,2,500,4,S,0,left,nan,0,1,,,,,,,,,,,,,,,,,,,,,1,,,,,,,,,,,,,,,,,,,,,,,,,,,,,,,,,,,,,,,,,,,,,,50,159208,21,Female,1,2024/02/13_08:53:38,YZ,59.92490152
,,,,,,calibration,0,21,2,500,5,Q,1,left,0.829963826,1,0,,,,,,,,,,,,,,,,,,,,,1,,,,,,,,,,,,,,,,,,,,,,,,,,,,,,,,,,,,,,,,,,,,,,50,159208,21,Female,1,2024/02/13_08:53:38,YZ,59.92490152
,,,,,,calibration,0,21,2,500,6,N,0,left,nan,0,1,,,,,,,,,,,,,,,,,,,,,1,,,,,,,,,,,,,,,,,,,,,,,,,,,,,,,,,,,,,,,,,,,,,,50,159208,21,Female,1,2024/02/13_08:53:38,YZ,59.92490152
,,,,,,calibration,0,21,2,500,7,F,0,left,nan,0,1,,,,,,,,,,,,,,,,,,,,,1,,,,,,,,,,,,,,,,,,,,,,,,,,,,,,,,,,,,,,,,,,,,,,50,159208,21,Female,1,2024/02/13_08:53:38,YZ,59.92490152
,,,,,,calibration,0,21,2,500,8,V,0,right,0.56254843,1,0,,,,,,,,,,,,,,,,,,,,,1,,,,,,,,,,,,,,,,,,,,,,,,,,,,,,,,,,,,,,,,,,,,,,50,159208,21,Female,1,2024/02/13_08:53:38,YZ,59.92490152
,,,,,,calibration,0,21,2,500,9,X,0,right,0.39880252,1,0,,,,,,,,,,,,,,,,,,,,,1,,,,,,,,,,,,,,,,,,,,,,,,,,,,,,,,,,,,,,,,,,,,,,50,159208,21,Female,1,2024/02/13_08:53:38,YZ,59.92490152
,,,,,,calibration,0,21,2,500,10,V,1,right,0.46263934,0,0,,,,,,,,,,,,,,,,,,,,,1,,,,,,,,,,,,,,,,,,,,,,,,,,,,,,,,,,,,,,,,,,,,,,50,159208,21,Female,1,2024/02/13_08:53:38,YZ,59.92490152
,,,,,,calibration,0,21,2,500,11,X,1,left,0.541717787,1,0,,,,,,,,,,,,,,,,,,,,,1,,,,,,,,,,,,,,,,,,,,,,,,,,,,,,,,,,,,,,,,,,,,,,50,159208,21,Female,1,2024/02/13_08:53:38,YZ,59.92490152
,,,,,,calibration,0,21,2,500,12,C,0,right,0.480221216,1,0,,,,,,,,,,,,,,,,,,,,,1,,,,,,,,,,,,,,,,,,,,,,,,,,,,,,,,,,,,,,,,,,,,,,50,159208,21,Female,1,2024/02/13_08:53:38,YZ,59.92490152
,,,,,,calibration,0,21,2,500,13,X,1,left,0.45055418,1,0,,,,,,,,,,,,,,,,,,,,,1,,,,,,,,,,,,,,,,,,,,,,,,,,,,,,,,,,,,,,,,,,,,,,50,159208,21,Female,1,2024/02/13_08:53:38,YZ,59.92490152
,,,,,,calibration,0,21,2,500,14,S,0,right,0.412527913,1,0,,,,,,,,,,,,,,,,,,,,,1,,,,,,,,,,,,,,,,,,,,,,,,,,,,,,,,,,,,,,,,,,,,,,50,159208,21,Female,1,2024/02/13_08:53:38,YZ,59.92490152
,,,,,,calibration,0,21,2,500,15,V,0,left,0.577086114,0,0,,,,,,,,,,,,,,,,,,,,,1,,,,,,,,,,,,,,,,,,,,,,,,,,,,,,,,,,,,,,,,,,,,,,50,159208,21,Female,1,2024/02/13_08:53:38,YZ,59.92490152
,,,,,,calibration,0,21,2,500,16,N,0,left,nan,0,1,,,,,,,,,,,,,,,,,,,,,1,,,,,,,,,,,,,,,,,,,,,,,,,,,,,,,,,,,,,,,,,,,,,,50,159208,21,Female,1,2024/02/13_08:53:38,YZ,59.92490152
,,,,,,calibration,0,21,2,500,,,,,,,,0.909090909,0.8,0.090909091,0.857142857,0.25,0.659090909,0.613767414,4,1,0,4,4,6,10,5,11,0,,,,1,,,,,,,,,,,,,,,,,,,,,,,,,,,,,,,,,,,,,,,,,,,,,,50,159208,21,Female,1,2024/02/13_08:53:38,YZ,59.92490152
,,,,,,Calibration,0,,2,500,,,,,,,,,,,,,,,,,,,,,,,,,3,,,1,,,,,,,,,,,,,,,,,,,,,,,,,,,,,,,,,,,,,,,,,,,,,,50,159208,21,Female,1,2024/02/13_08:53:38,YZ,59.92490152
,,,,,,calibration,0,25,2,426,1,V,0,left,0.546988523,0,0,,,,,,,,,,,,,,,,,,,,,1,,,,,,,,,,,,,,,,,,,,,,,,,,,,,,,,,,,,,,,,,,,,,,50,159208,21,Female,1,2024/02/13_08:53:38,YZ,59.92490152
,,,,,,calibration,0,25,2,426,2,N,0,right,0.811228648,1,0,,,,,,,,,,,,,,,,,,,,,1,,,,,,,,,,,,,,,,,,,,,,,,,,,,,,,,,,,,,,,,,,,,,,50,159208,21,Female,1,2024/02/13_08:53:38,YZ,59.92490152
,,,,,,calibration,0,25,2,426,3,F,0,right,0.777389061,1,0,,,,,,,,,,,,,,,,,,,,,1,,,,,,,,,,,,,,,,,,,,,,,,,,,,,,,,,,,,,,,,,,,,,,50,159208,21,Female,1,2024/02/13_08:53:38,YZ,59.92490152
,,,,,,calibration,0,25,2,426,4,Q,0,right,nan,0,1,,,,,,,,,,,,,,,,,,,,,1,,,,,,,,,,,,,,,,,,,,,,,,,,,,,,,,,,,,,,,,,,,,,,50,159208,21,Female,1,2024/02/13_08:53:38,YZ,59.92490152
,,,,,,calibration,0,25,2,426,5,N,0,right,nan,0,1,,,,,,,,,,,,,,,,,,,,,1,,,,,,,,,,,,,,,,,,,,,,,,,,,,,,,,,,,,,,,,,,,,,,50,159208,21,Female,1,2024/02/13_08:53:38,YZ,59.92490152
,,,,,,calibration,0,25,2,426,6,Q,1,left,0.6942424,1,0,,,,,,,,,,,,,,,,,,,,,1,,,,,,,,,,,,,,,,,,,,,,,,,,,,,,,,,,,,,,,,,,,,,,50,159208,21,Female,1,2024/02/13_08:53:38,YZ,59.92490152
,,,,,,calibration,0,25,2,426,7,V,0,right,0.544559613,1,0,,,,,,,,,,,,,,,,,,,,,1,,,,,,,,,,,,,,,,,,,,,,,,,,,,,,,,,,,,,,,,,,,,,,50,159208,21,Female,1,2024/02/13_08:53:38,YZ,59.92490152
,,,,,,calibration,0,25,2,426,8,N,0,left,0.730170258,0,0,,,,,,,,,,,,,,,,,,,,,1,,,,,,,,,,,,,,,,,,,,,,,,,,,,,,,,,,,,,,,,,,,,,,50,159208,21,Female,1,2024/02/13_08:53:38,YZ,59.92490152
,,,,,,calibration,0,25,2,426,9,Q,0,left,nan,0,1,,,,,,,,,,,,,,,,,,,,,1,,,,,,,,,,,,,,,,,,,,,,,,,,,,,,,,,,,,,,,,,,,,,,50,159208,21,Female,1,2024/02/13_08:53:38,YZ,59.92490152
,,,,,,calibration,0,25,2,426,10,C,0,left,nan,0,1,,,,,,,,,,,,,,,,,,,,,1,,,,,,,,,,,,,,,,,,,,,,,,,,,,,,,,,,,,,,,,,,,,,,50,159208,21,Female,1,2024/02/13_08:53:38,YZ,59.92490152
,,,,,,calibration,0,25,2,426,11,Q,1,left,0.732069188,1,0,,,,,,,,,,,,,,,,,,,,,1,,,,,,,,,,,,,,,,,,,,,,,,,,,,,,,,,,,,,,,,,,,,,,50,159208,21,Female,1,2024/02/13_08:53:38,YZ,59.92490152
,,,,,,calibration,0,25,2,426,12,N,0,right,0.724863438,1,0,,,,,,,,,,,,,,,,,,,,,1,,,,,,,,,,,,,,,,,,,,,,,,,,,,,,,,,,,,,,,,,,,,,,50,159208,21,Female,1,2024/02/13_08:53:38,YZ,59.92490152
,,,,,,calibration,0,25,2,426,13,X,0,right,nan,0,1,,,,,,,,,,,,,,,,,,,,,1,,,,,,,,,,,,,,,,,,,,,,,,,,,,,,,,,,,,,,,,,,,,,,50,159208,21,Female,1,2024/02/13_08:53:38,YZ,59.92490152
,,,,,,calibration,0,25,2,426,14,N,1,left,0.627608342,1,0,,,,,,,,,,,,,,,,,,,,,1,,,,,,,,,,,,,,,,,,,,,,,,,,,,,,,,,,,,,,,,,,,,,,50,159208,21,Female,1,2024/02/13_08:53:38,YZ,59.92490152
,,,,,,calibration,0,25,2,426,15,X,1,left,0.713303989,1,0,,,,,,,,,,,,,,,,,,,,,1,,,,,,,,,,,,,,,,,,,,,,,,,,,,,,,,,,,,,,,,,,,,,,50,159208,21,Female,1,2024/02/13_08:53:38,YZ,59.92490152
,,,,,,calibration,0,25,2,426,16,Q,0,left,nan,0,1,,,,,,,,,,,,,,,,,,,,,1,,,,,,,,,,,,,,,,,,,,,,,,,,,,,,,,,,,,,,,,,,,,,,50,159208,21,Female,1,2024/02/13_08:53:38,YZ,59.92490152
,,,,,,calibration,0,25,2,426,17,X,1,left,nan,0,1,,,,,,,,,,,,,,,,,,,,,1,,,,,,,,,,,,,,,,,,,,,,,,,,,,,,,,,,,,,,,,,,,,,,50,159208,21,Female,1,2024/02/13_08:53:38,YZ,59.92490152
,,,,,,calibration,0,25,2,426,,,,,,,,0.875,0.8,0.166666667,0.666666667,0.411764706,0.421568627,0.690242346,4,2,1,6,7,4,8,5,12,0,,,,1,,,,,,,,,,,,,,,,,,,,,,,,,,,,,,,,,,,,,,,,,,,,,,50,159208,21,Female,1,2024/02/13_08:53:38,YZ,59.92490152
,,,,,,Calibration,0,,2,426,,,,,,,,,,,,,,,,,,,,,,,,,4,,,1,,,,,,,,,,,,,,,,,,,,,,,,,,,,,,,,,,,,,,,,,,,,,,50,159208,21,Female,1,2024/02/13_08:53:38,YZ,59.92490152
,,,,,,calibration,0,11,2,361,1,J,0,right,0.546935193,1,0,,,,,,,,,,,,,,,,,,,,,1,,,,,,,,,,,,,,,,,,,,,,,,,,,,,,,,,,,,,,,,,,,,,,50,159208,21,Female,1,2024/02/13_08:53:38,YZ,59.92490152
,,,,,,calibration,0,11,2,361,2,C,0,right,0.595882719,1,0,,,,,,,,,,,,,,,,,,,,,1,,,,,,,,,,,,,,,,,,,,,,,,,,,,,,,,,,,,,,,,,,,,,,50,159208,21,Female,1,2024/02/13_08:53:38,YZ,59.92490152
,,,,,,calibration,0,11,2,361,3,J,1,left,0.777898169,1,0,,,,,,,,,,,,,,,,,,,,,1,,,,,,,,,,,,,,,,,,,,,,,,,,,,,,,,,,,,,,,,,,,,,,50,159208,21,Female,1,2024/02/13_08:53:38,YZ,59.92490152
,,,,,,calibration,0,11,2,361,4,C,1,right,0.407873484,0,0,,,,,,,,,,,,,,,,,,,,,1,,,,,,,,,,,,,,,,,,,,,,,,,,,,,,,,,,,,,,,,,,,,,,50,159208,21,Female,1,2024/02/13_08:53:38,YZ,59.92490152
,,,,,,calibration,0,11,2,361,5,F,0,left,0,0,0,,,,,,,,,,,,,,,,,,,,,1,,,,,,,,,,,,,,,,,,,,,,,,,,,,,,,,,,,,,,,,,,,,,,50,159208,21,Female,1,2024/02/13_08:53:38,YZ,59.92490152
,,,,,,calibration,0,11,2,361,6,Q,0,right,0.797102098,1,0,,,,,,,,,,,,,,,,,,,,,1,,,,,,,,,,,,,,,,,,,,,,,,,,,,,,,,,,,,,,,,,,,,,,50,159208,21,Female,1,2024/02/13_08:53:38,YZ,59.92490152
,,,,,,calibration,0,11,2,361,7,F,1,left,0.629131466,1,0,,,,,,,,,,,,,,,,,,,,,1,,,,,,,,,,,,,,,,,,,,,,,,,,,,,,,,,,,,,,,,,,,,,,50,159208,21,Female,1,2024/02/13_08:53:38,YZ,59.92490152
,,,,,,calibration,0,11,2,361,8,C,0,right,0.861319507,1,0,,,,,,,,,,,,,,,,,,,,,1,,,,,,,,,,,,,,,,,,,,,,,,,,,,,,,,,,,,,,,,,,,,,,50,159208,21,Female,1,2024/02/13_08:53:38,YZ,59.92490152
,,,,,,calibration,0,11,2,361,9,J,0,right,0.780863323,1,0,,,,,,,,,,,,,,,,,,,,,1,,,,,,,,,,,,,,,,,,,,,,,,,,,,,,,,,,,,,,,,,,,,,,50,159208,21,Female,1,2024/02/13_08:53:38,YZ,59.92490152
,,,,,,calibration,0,11,2,361,10,X,0,right,0.857421715,1,0,,,,,,,,,,,,,,,,,,,,,1,,,,,,,,,,,,,,,,,,,,,,,,,,,,,,,,,,,,,,,,,,,,,,50,159208,21,Female,1,2024/02/13_08:53:38,YZ,59.92490152
,,,,,,calibration,0,11,2,361,11,S,0,right,0.886297069,1,0,,,,,,,,,,,,,,,,,,,,,1,,,,,,,,,,,,,,,,,,,,,,,,,,,,,,,,,,,,,,,,,,,,,,50,159208,21,Female,1,2024/02/13_08:53:38,YZ,59.92490152
,,,,,,calibration,0,11,2,361,12,Q,0,right,0.812624869,1,0,,,,,,,,,,,,,,,,,,,,,1,,,,,,,,,,,,,,,,,,,,,,,,,,,,,,,,,,,,,,,,,,,,,,50,159208,21,Female,1,2024/02/13_08:53:38,YZ,59.92490152
,,,,,,calibration,0,11,2,361,13,N,0,right,0.792073866,1,0,,,,,,,,,,,,,,,,,,,,,1,,,,,,,,,,,,,,,,,,,,,,,,,,,,,,,,,,,,,,,,,,,,,,50,159208,21,Female,1,2024/02/13_08:53:38,YZ,59.92490152
,,,,,,calibration,0,11,2,361,14,C,0,right,0.912012769,1,0,,,,,,,,,,,,,,,,,,,,,1,,,,,,,,,,,,,,,,,,,,,,,,,,,,,,,,,,,,,,,,,,,,,,50,159208,21,Female,1,2024/02/13_08:53:38,YZ,59.92490152
,,,,,,calibration,0,11,2,361,15,N,1,left,0.878463245,1,0,,,,,,,,,,,,,,,,,,,,,1,,,,,,,,,,,,,,,,,,,,,,,,,,,,,,,,,,,,,,,,,,,,,,50,159208,21,Female,1,2024/02/13_08:53:38,YZ,59.92490152
,,,,,,calibration,0,11,2,361,16,C,1,left,0.795755181,1,0,,,,,,,,,,,,,,,,,,,,,1,,,,,,,,,,,,,,,,,,,,,,,,,,,,,,,,,,,,,,,,,,,,,,50,159208,21,Female,1,2024/02/13_08:53:38,YZ,59.92490152
,,,,,,calibration,0,11,2,361,17,Q,0,right,0.723954004,1,0,,,,,,,,,,,,,,,,,,,,,1,,,,,,,,,,,,,,,,,,,,,,,,,,,,,,,,,,,,,,,,,,,,,,50,159208,21,Female,1,2024/02/13_08:53:38,YZ,59.92490152
,,,,,,calibration,0,11,2,361,18,J,0,right,0.851921138,1,0,,,,,,,,,,,,,,,,,,,,,1,,,,,,,,,,,,,,,,,,,,,,,,,,,,,,,,,,,,,,,,,,,,,,50,159208,21,Female,1,2024/02/13_08:53:38,YZ,59.92490152
,,,,,,calibration,0,11,2,361,,,,,,,,0.915384615,0.8,0.076923077,0.923076923,0,0.923076923,0.71708499,4,1,0,0,0,12,16,5,13,0,,,,1,,,,,,,,,,,,,,,,,,,,,,,,,,,,,,,,,,,,,,,,,,,,,,50,159208,21,Female,1,2024/02/13_08:53:38,YZ,59.92490152
,,,,,,Calibration,0,,2,361,,,,,,,,,,,,,,,,,,,,,,,,,5,,,1,,,,,,,,,,,,,,,,,,,,,,,,,,,,,,,,,,,,,,,,,,,,,,50,159208,21,Female,1,2024/02/13_08:53:38,YZ,59.92490152
,,,,,,calibration,0,3,2,303,1,Q,0,right,0.713284021,1,0,,,,,,,,,,,,,,,,,,,,,1,,,,,,,,,,,,,,,,,,,,,,,,,,,,,,,,,,,,,,,,,,,,,,50,159208,21,Female,1,2024/02/13_08:53:38,YZ,59.92490152
,,,,,,calibration,0,3,2,303,2,N,0,right,0.577116023,1,0,,,,,,,,,,,,,,,,,,,,,1,,,,,,,,,,,,,,,,,,,,,,,,,,,,,,,,,,,,,,,,,,,,,,50,159208,21,Female,1,2024/02/13_08:53:38,YZ,59.92490152
,,,,,,calibration,0,3,2,303,3,J,0,right,0.694992855,1,0,,,,,,,,,,,,,,,,,,,,,1,,,,,,,,,,,,,,,,,,,,,,,,,,,,,,,,,,,,,,,,,,,,,,50,159208,21,Female,1,2024/02/13_08:53:38,YZ,59.92490152
,,,,,,calibration,0,3,2,303,4,S,0,right,0.476959476,1,0,,,,,,,,,,,,,,,,,,,,,1,,,,,,,,,,,,,,,,,,,,,,,,,,,,,,,,,,,,,,,,,,,,,,50,159208,21,Female,1,2024/02/13_08:53:38,YZ,59.92490152
,,,,,,calibration,0,3,2,303,5,N,0,left,0.579872957,0,0,,,,,,,,,,,,,,,,,,,,,1,,,,,,,,,,,,,,,,,,,,,,,,,,,,,,,,,,,,,,,,,,,,,,50,159208,21,Female,1,2024/02/13_08:53:38,YZ,59.92490152
,,,,,,calibration,0,3,2,303,6,C,0,right,0.01389451,1,0,,,,,,,,,,,,,,,,,,,,,1,,,,,,,,,,,,,,,,,,,,,,,,,,,,,,,,,,,,,,,,,,,,,,50,159208,21,Female,1,2024/02/13_08:53:38,YZ,59.92490152
,,,,,,calibration,0,3,2,303,7,N,1,right,nan,0,1,,,,,,,,,,,,,,,,,,,,,1,,,,,,,,,,,,,,,,,,,,,,,,,,,,,,,,,,,,,,,,,,,,,,50,159208,21,Female,1,2024/02/13_08:53:38,YZ,59.92490152
,,,,,,calibration,0,3,2,303,8,C,1,right,0.425604273,0,0,,,,,,,,,,,,,,,,,,,,,1,,,,,,,,,,,,,,,,,,,,,,,,,,,,,,,,,,,,,,,,,,,,,,50,159208,21,Female,1,2024/02/13_08:53:38,YZ,59.92490152
,,,,,,calibration,0,3,2,303,9,F,0,right,0.711191316,1,0,,,,,,,,,,,,,,,,,,,,,1,,,,,,,,,,,,,,,,,,,,,,,,,,,,,,,,,,,,,,,,,,,,,,50,159208,21,Female,1,2024/02/13_08:53:38,YZ,59.92490152
,,,,,,calibration,0,3,2,303,10,C,1,left,0.513334695,1,0,,,,,,,,,,,,,,,,,,,,,1,,,,,,,,,,,,,,,,,,,,,,,,,,,,,,,,,,,,,,,,,,,,,,50,159208,21,Female,1,2024/02/13_08:53:38,YZ,59.92490152
,,,,,,calibration,0,3,2,303,11,F,1,left,0.762595242,1,0,,,,,,,,,,,,,,,,,,,,,1,,,,,,,,,,,,,,,,,,,,,,,,,,,,,,,,,,,,,,,,,,,,,,50,159208,21,Female,1,2024/02/13_08:53:38,YZ,59.92490152
,,,,,,calibration,0,3,2,303,12,N,0,right,0.628416025,1,0,,,,,,,,,,,,,,,,,,,,,1,,,,,,,,,,,,,,,,,,,,,,,,,,,,,,,,,,,,,,,,,,,,,,50,159208,21,Female,1,2024/02/13_08:53:38,YZ,59.92490152
,,,,,,calibration,0,3,2,303,13,C,0,right,0.746183523,1,0,,,,,,,,,,,,,,,,,,,,,1,,,,,,,,,,,,,,,,,,,,,,,,,,,,,,,,,,,,,,,,,,,,,,50,159208,21,Female,1,2024/02/13_08:53:38,YZ,59.92490152
,,,,,,calibration,0,3,2,303,14,N,1,right,nan,0,1,,,,,,,,,,,,,,,,,,,,,1,,,,,,,,,,,,,,,,,,,,,,,,,,,,,,,,,,,,,,,,,,,,,,50,159208,21,Female,1,2024/02/13_08:53:38,YZ,59.92490152
,,,,,,calibration,0,3,2,303,15,S,0,right,0.575938768,1,0,,,,,,,,,,,,,,,,,,,,,1,,,,,,,,,,,,,,,,,,,,,,,,,,,,,,,,,,,,,,,,,,,,,,50,159208,21,Female,1,2024/02/13_08:53:38,YZ,59.92490152
,,,,,,calibration,0,3,2,303,16,C,0,left,0.611307508,0,0,,,,,,,,,,,,,,,,,,,,,1,,,,,,,,,,,,,,,,,,,,,,,,,,,,,,,,,,,,,,,,,,,,,,50,159208,21,Female,1,2024/02/13_08:53:38,YZ,59.92490152
,,,,,,calibration,0,3,2,303,17,F,0,right,0.58027348,1,0,,,,,,,,,,,,,,,,,,,,,1,,,,,,,,,,,,,,,,,,,,,,,,,,,,,,,,,,,,,,,,,,,,,,50,159208,21,Female,1,2024/02/13_08:53:38,YZ,59.92490152
,,,,,,calibration,0,3,2,303,18,N,0,right,0.942883291,1,0,,,,,,,,,,,,,,,,,,,,,1,,,,,,,,,,,,,,,,,,,,,,,,,,,,,,,,,,,,,,,,,,,,,,50,159208,21,Female,1,2024/02/13_08:53:38,YZ,59.92490152
,,,,,,calibration,0,3,2,303,19,C,0,left,0.727660943,0,0,,,,,,,,,,,,,,,,,,,,,1,,,,,,,,,,,,,,,,,,,,,,,,,,,,,,,,,,,,,,,,,,,,,,50,159208,21,Female,1,2024/02/13_08:53:38,YZ,59.92490152
,,,,,,calibration,0,3,2,303,,,,,,,,0.6625,0.4,0.214285714,0.785714286,0.105263158,0.680451128,0.604794642,2,3,2,0,2,11,13,5,14,0,,,,1,,,,,,,,,,,,,,,,,,,,,,,,,,,,,,,,,,,,,,,,,,,,,,50,159208,21,Female,1,2024/02/13_08:53:38,YZ,59.92490152
,,,,,,Calibration,0,,2,303,,,,,,,,,,,,,,,,,,,,,,,,,6,,,1,,,,,,,,,,,,,,,,,,,,,,,,,,,,,,,,,,,,,,,,,,,,,,50,159208,21,Female,1,2024/02/13_08:53:38,YZ,59.92490152
,,,,,,calibration,0,3,2,361,1,S,0,right,0.729892831,1,0,,,,,,,,,,,,,,,,,,,,,1,,,,,,,,,,,,,,,,,,,,,,,,,,,,,,,,,,,,,,,,,,,,,,50,159208,21,Female,1,2024/02/13_08:53:38,YZ,59.92490152
,,,,,,calibration,0,3,2,361,2,F,0,right,0.911690936,1,0,,,,,,,,,,,,,,,,,,,,,1,,,,,,,,,,,,,,,,,,,,,,,,,,,,,,,,,,,,,,,,,,,,,,50,159208,21,Female,1,2024/02/13_08:53:38,YZ,59.92490152
,,,,,,calibration,0,3,2,361,3,S,1,right,nan,0,1,,,,,,,,,,,,,,,,,,,,,1,,,,,,,,,,,,,,,,,,,,,,,,,,,,,,,,,,,,,,,,,,,,,,50,159208,21,Female,1,2024/02/13_08:53:38,YZ,59.92490152
,,,,,,calibration,0,3,2,361,4,C,0,right,0.149958531,1,0,,,,,,,,,,,,,,,,,,,,,1,,,,,,,,,,,,,,,,,,,,,,,,,,,,,,,,,,,,,,,,,,,,,,50,159208,21,Female,1,2024/02/13_08:53:38,YZ,59.92490152
,,,,,,calibration,0,3,2,361,5,S,1,left,0.92988761,1,0,,,,,,,,,,,,,,,,,,,,,1,,,,,,,,,,,,,,,,,,,,,,,,,,,,,,,,,,,,,,,,,,,,,,50,159208,21,Female,1,2024/02/13_08:53:38,YZ,59.92490152
,,,,,,calibration,0,3,2,361,6,N,0,right,0.59453618,1,0,,,,,,,,,,,,,,,,,,,,,1,,,,,,,,,,,,,,,,,,,,,,,,,,,,,,,,,,,,,,,,,,,,,,50,159208,21,Female,1,2024/02/13_08:53:38,YZ,59.92490152
,,,,,,calibration,0,3,2,361,7,S,1,right,nan,0,1,,,,,,,,,,,,,,,,,,,,,1,,,,,,,,,,,,,,,,,,,,,,,,,,,,,,,,,,,,,,,,,,,,,,50,159208,21,Female,1,2024/02/13_08:53:38,YZ,59.92490152
,,,,,,calibration,0,3,2,361,8,C,0,left,0.726906335,0,0,,,,,,,,,,,,,,,,,,,,,1,,,,,,,,,,,,,,,,,,,,,,,,,,,,,,,,,,,,,,,,,,,,,,50,159208,21,Female,1,2024/02/13_08:53:38,YZ,59.92490152
,,,,,,calibration,0,3,2,361,9,S,1,left,0.698945197,1,0,,,,,,,,,,,,,,,,,,,,,1,,,,,,,,,,,,,,,,,,,,,,,,,,,,,,,,,,,,,,,,,,,,,,50,159208,21,Female,1,2024/02/13_08:53:38,YZ,59.92490152
,,,,,,calibration,0,3,2,361,10,N,0,left,nan,0,1,,,,,,,,,,,,,,,,,,,,,1,,,,,,,,,,,,,,,,,,,,,,,,,,,,,,,,,,,,,,,,,,,,,,50,159208,21,Female,1,2024/02/13_08:53:38,YZ,59.92490152
,,,,,,calibration,0,3,2,361,11,X,0,right,0.813068465,1,0,,,,,,,,,,,,,,,,,,,,,1,,,,,,,,,,,,,,,,,,,,,,,,,,,,,,,,,,,,,,,,,,,,,,50,159208,21,Female,1,2024/02/13_08:53:38,YZ,59.92490152
,,,,,,calibration,0,3,2,361,12,J,0,right,nan,0,1,,,,,,,,,,,,,,,,,,,,,1,,,,,,,,,,,,,,,,,,,,,,,,,,,,,,,,,,,,,,,,,,,,,,50,159208,21,Female,1,2024/02/13_08:53:38,YZ,59.92490152
,,,,,,calibration,0,3,2,361,13,V,0,right,nan,0,1,,,,,,,,,,,,,,,,,,,,,1,,,,,,,,,,,,,,,,,,,,,,,,,,,,,,,,,,,,,,,,,,,,,,50,159208,21,Female,1,2024/02/13_08:53:38,YZ,59.92490152
,,,,,,calibration,0,3,2,361,14,C,0,right,0.525156839,1,0,,,,,,,,,,,,,,,,,,,,,1,,,,,,,,,,,,,,,,,,,,,,,,,,,,,,,,,,,,,,,,,,,,,,50,159208,21,Female,1,2024/02/13_08:53:38,YZ,59.92490152
,,,,,,calibration,0,3,2,361,15,F,0,right,nan,0,1,,,,,,,,,,,,,,,,,,,,,1,,,,,,,,,,,,,,,,,,,,,,,,,,,,,,,,,,,,,,,,,,,,,,50,159208,21,Female,1,2024/02/13_08:53:38,YZ,59.92490152
,,,,,,calibration,0,3,2,361,16,N,0,right,nan,0,1,,,,,,,,,,,,,,,,,,,,,1,,,,,,,,,,,,,,,,,,,,,,,,,,,,,,,,,,,,,,,,,,,,,,50,159208,21,Female,1,2024/02/13_08:53:38,YZ,59.92490152
,,,,,,calibration,0,3,2,361,17,F,1,left,0.744314556,1,0,,,,,,,,,,,,,,,,,,,,,1,,,,,,,,,,,,,,,,,,,,,,,,,,,,,,,,,,,,,,,,,,,,,,50,159208,21,Female,1,2024/02/13_08:53:38,YZ,59.92490152
,,,,,,calibration,0,3,2,361,18,V,0,right,0.678819633,1,0,,,,,,,,,,,,,,,,,,,,,1,,,,,,,,,,,,,,,,,,,,,,,,,,,,,,,,,,,,,,,,,,,,,,50,159208,21,Female,1,2024/02/13_08:53:38,YZ,59.92490152
,,,,,,calibration,0,3,2,361,,,,,,,,0.85,0.6,0.076923077,0.875,0.388888889,0.534188034,0.68210701,3,1,2,5,7,7,10,5,13,0,,,,1,,,,,,,,,,,,,,,,,,,,,,,,,,,,,,,,,,,,,,,,,,,,,,50,159208,21,Female,1,2024/02/13_08:53:38,YZ,59.92490152
,,,,,,Calibration,0,,2,361,,,,,,,,,,,,,,,,,,,,,,,,,7,,,1,,,,,,,,,,,,,,,,,,,,,,,,,,,,,,,,,,,,,,,,,,,,,,50,159208,21,Female,1,2024/02/13_08:53:38,YZ,59.92490152
,,,,,,calibration,0,14,2,361,1,Q,0,right,0.778073854,1,0,,,,,,,,,,,,,,,,,,,,,1,,,,,,,,,,,,,,,,,,,,,,,,,,,,,,,,,,,,,,,,,,,,,,50,159208,21,Female,1,2024/02/13_08:53:38,YZ,59.92490152
,,,,,,calibration,0,14,2,361,2,X,0,right,0.750353268,1,0,,,,,,,,,,,,,,,,,,,,,1,,,,,,,,,,,,,,,,,,,,,,,,,,,,,,,,,,,,,,,,,,,,,,50,159208,21,Female,1,2024/02/13_08:53:38,YZ,59.92490152
,,,,,,calibration,0,14,2,361,3,C,0,right,nan,0,1,,,,,,,,,,,,,,,,,,,,,1,,,,,,,,,,,,,,,,,,,,,,,,,,,,,,,,,,,,,,,,,,,,,,50,159208,21,Female,1,2024/02/13_08:53:38,YZ,59.92490152
,,,,,,calibration,0,14,2,361,4,J,0,right,0.959632343,1,0,,,,,,,,,,,,,,,,,,,,,1,,,,,,,,,,,,,,,,,,,,,,,,,,,,,,,,,,,,,,,,,,,,,,50,159208,21,Female,1,2024/02/13_08:53:38,YZ,59.92490152
,,,,,,calibration,0,14,2,361,5,V,0,right,nan,0,1,,,,,,,,,,,,,,,,,,,,,1,,,,,,,,,,,,,,,,,,,,,,,,,,,,,,,,,,,,,,,,,,,,,,50,159208,21,Female,1,2024/02/13_08:53:38,YZ,59.92490152
,,,,,,calibration,0,14,2,361,6,X,0,right,nan,0,1,,,,,,,,,,,,,,,,,,,,,1,,,,,,,,,,,,,,,,,,,,,,,,,,,,,,,,,,,,,,,,,,,,,,50,159208,21,Female,1,2024/02/13_08:53:38,YZ,59.92490152
,,,,,,calibration,0,14,2,361,7,J,0,right,nan,0,1,,,,,,,,,,,,,,,,,,,,,1,,,,,,,,,,,,,,,,,,,,,,,,,,,,,,,,,,,,,,,,,,,,,,50,159208,21,Female,1,2024/02/13_08:53:38,YZ,59.92490152
,,,,,,calibration,0,14,2,361,8,X,1,left,0.711892725,1,0,,,,,,,,,,,,,,,,,,,,,1,,,,,,,,,,,,,,,,,,,,,,,,,,,,,,,,,,,,,,,,,,,,,,50,159208,21,Female,1,2024/02/13_08:53:38,YZ,59.92490152
,,,,,,calibration,0,14,2,361,9,V,0,left,nan,0,1,,,,,,,,,,,,,,,,,,,,,1,,,,,,,,,,,,,,,,,,,,,,,,,,,,,,,,,,,,,,,,,,,,,,50,159208,21,Female,1,2024/02/13_08:53:38,YZ,59.92490152
,,,,,,calibration,0,14,2,361,10,X,1,left,nan,0,1,,,,,,,,,,,,,,,,,,,,,1,,,,,,,,,,,,,,,,,,,,,,,,,,,,,,,,,,,,,,,,,,,,,,50,159208,21,Female,1,2024/02/13_08:53:38,YZ,59.92490152
,,,,,,calibration,0,14,2,361,11,Q,0,right,0.593220999,1,0,,,,,,,,,,,,,,,,,,,,,1,,,,,,,,,,,,,,,,,,,,,,,,,,,,,,,,,,,,,,,,,,,,,,50,159208,21,Female,1,2024/02/13_08:53:38,YZ,59.92490152
,,,,,,calibration,0,14,2,361,12,X,1,left,0.728279775,1,0,,,,,,,,,,,,,,,,,,,,,1,,,,,,,,,,,,,,,,,,,,,,,,,,,,,,,,,,,,,,,,,,,,,,50,159208,21,Female,1,2024/02/13_08:53:38,YZ,59.92490152
,,,,,,calibration,0,14,2,361,13,J,0,right,0.406677126,1,0,,,,,,,,,,,,,,,,,,,,,1,,,,,,,,,,,,,,,,,,,,,,,,,,,,,,,,,,,,,,,,,,,,,,50,159208,21,Female,1,2024/02/13_08:53:38,YZ,59.92490152
,,,,,,calibration,0,14,2,361,14,X,1,right,nan,0,1,,,,,,,,,,,,,,,,,,,,,1,,,,,,,,,,,,,,,,,,,,,,,,,,,,,,,,,,,,,,,,,,,,,,50,159208,21,Female,1,2024/02/13_08:53:38,YZ,59.92490152
,,,,,,calibration,0,14,2,361,15,J,1,left,0.911054911,1,0,,,,,,,,,,,,,,,,,,,,,1,,,,,,,,,,,,,,,,,,,,,,,,,,,,,,,,,,,,,,,,,,,,,,50,159208,21,Female,1,2024/02/13_08:53:38,YZ,59.92490152
,,,,,,calibration,0,14,2,361,16,C,0,left,nan,0,1,,,,,,,,,,,,,,,,,,,,,1,,,,,,,,,,,,,,,,,,,,,,,,,,,,,,,,,,,,,,,,,,,,,,50,159208,21,Female,1,2024/02/13_08:53:38,YZ,59.92490152
,,,,,,calibration,0,14,2,361,17,J,1,left,nan,0,1,,,,,,,,,,,,,,,,,,,,,1,,,,,,,,,,,,,,,,,,,,,,,,,,,,,,,,,,,,,,,,,,,,,,50,159208,21,Female,1,2024/02/13_08:53:38,YZ,59.92490152
,,,,,,calibration,0,14,2,361,18,Q,0,right,0.64423374,1,0,,,,,,,,,,,,,,,,,,,,,1,,,,,,,,,,,,,,,,,,,,,,,,,,,,,,,,,,,,,,,,,,,,,,50,159208,21,Female,1,2024/02/13_08:53:38,YZ,59.92490152
,,,,,,calibration,0,14,2,361,,,,,,,,0.875,0.5,0,1,0.5,0.5,0.72037986,3,0,3,6,9,6,9,6,12,0,,,,1,,,,,,,,,,,,,,,,,,,,,,,,,,,,,,,,,,,,,,,,,,,,,,50,159208,21,Female,1,2024/02/13_08:53:38,YZ,59.92490152
,,,,,,Calibration,0,,2,361,,,,,,,,,,,,,,,,,,,,,,,,,8,,,1,,,,,,,,,,,,,,,,,,,,,,,,,,,,,,,,,,,,,,,,,,,,,,50,159208,21,Female,1,2024/02/13_08:53:38,YZ,59.92490152
,,,,,,calibration,0,8,2,303,1,X,0,right,0.729703593,1,0,,,,,,,,,,,,,,,,,,,,,1,,,,,,,,,,,,,,,,,,,,,,,,,,,,,,,,,,,,,,,,,,,,,,50,159208,21,Female,1,2024/02/13_08:53:38,YZ,59.92490152
,,,,,,calibration,0,8,2,303,2,Q,0,right,nan,0,1,,,,,,,,,,,,,,,,,,,,,1,,,,,,,,,,,,,,,,,,,,,,,,,,,,,,,,,,,,,,,,,,,,,,50,159208,21,Female,1,2024/02/13_08:53:38,YZ,59.92490152
,,,,,,calibration,0,8,2,303,3,F,0,right,0.231634655,1,0,,,,,,,,,,,,,,,,,,,,,1,,,,,,,,,,,,,,,,,,,,,,,,,,,,,,,,,,,,,,,,,,,,,,50,159208,21,Female,1,2024/02/13_08:53:38,YZ,59.92490152
,,,,,,calibration,0,8,2,303,4,C,0,right,nan,0,1,,,,,,,,,,,,,,,,,,,,,1,,,,,,,,,,,,,,,,,,,,,,,,,,,,,,,,,,,,,,,,,,,,,,50,159208,21,Female,1,2024/02/13_08:53:38,YZ,59.92490152
,,,,,,calibration,0,8,2,303,5,J,0,right,0.368862208,1,0,,,,,,,,,,,,,,,,,,,,,1,,,,,,,,,,,,,,,,,,,,,,,,,,,,,,,,,,,,,,,,,,,,,,50,159208,21,Female,1,2024/02/13_08:53:38,YZ,59.92490152
,,,,,,calibration,0,8,2,303,6,C,1,left,0.578387049,1,0,,,,,,,,,,,,,,,,,,,,,1,,,,,,,,,,,,,,,,,,,,,,,,,,,,,,,,,,,,,,,,,,,,,,50,159208,21,Female,1,2024/02/13_08:53:38,YZ,59.92490152
,,,,,,calibration,0,8,2,303,7,S,0,left,nan,0,1,,,,,,,,,,,,,,,,,,,,,1,,,,,,,,,,,,,,,,,,,,,,,,,,,,,,,,,,,,,,,,,,,,,,50,159208,21,Female,1,2024/02/13_08:53:38,YZ,59.92490152
,,,,,,calibration,0,8,2,303,8,V,0,left,nan,0,1,,,,,,,,,,,,,,,,,,,,,1,,,,,,,,,,,,,,,,,,,,,,,,,,,,,,,,,,,,,,,,,,,,,,50,159208,21,Female,1,2024/02/13_08:53:38,YZ,59.92490152
,,,,,,calibration,0,8,2,303,9,S,1,right,0.794316879,0,0,,,,,,,,,,,,,,,,,,,,,1,,,,,,,,,,,,,,,,,,,,,,,,,,,,,,,,,,,,,,,,,,,,,,50,159208,21,Female,1,2024/02/13_08:53:38,YZ,59.92490152
,,,,,,calibration,0,8,2,303,10,V,1,right,nan,0,1,,,,,,,,,,,,,,,,,,,,,1,,,,,,,,,,,,,,,,,,,,,,,,,,,,,,,,,,,,,,,,,,,,,,50,159208,21,Female,1,2024/02/13_08:53:38,YZ,59.92490152
,,,,,,calibration,0,8,2,303,11,F,0,right,nan,0,1,,,,,,,,,,,,,,,,,,,,,1,,,,,,,,,,,,,,,,,,,,,,,,,,,,,,,,,,,,,,,,,,,,,,50,159208,21,Female,1,2024/02/13_08:53:38,YZ,59.92490152
,,,,,,calibration,0,8,2,303,12,X,0,right,0.880121133,1,0,,,,,,,,,,,,,,,,,,,,,1,,,,,,,,,,,,,,,,,,,,,,,,,,,,,,,,,,,,,,,,,,,,,,50,159208,21,Female,1,2024/02/13_08:53:38,YZ,59.92490152
,,,,,,calibration,0,8,2,303,13,J,0,right,0.943347589,1,0,,,,,,,,,,,,,,,,,,,,,1,,,,,,,,,,,,,,,,,,,,,,,,,,,,,,,,,,,,,,,,,,,,,,50,159208,21,Female,1,2024/02/13_08:53:38,YZ,59.92490152
,,,,,,calibration,0,8,2,303,14,X,1,right,nan,0,1,,,,,,,,,,,,,,,,,,,,,1,,,,,,,,,,,,,,,,,,,,,,,,,,,,,,,,,,,,,,,,,,,,,,50,159208,21,Female,1,2024/02/13_08:53:38,YZ,59.92490152
,,,,,,calibration,0,8,2,303,15,N,0,right,0.646753023,1,0,,,,,,,,,,,,,,,,,,,,,1,,,,,,,,,,,,,,,,,,,,,,,,,,,,,,,,,,,,,,,,,,,,,,50,159208,21,Female,1,2024/02/13_08:53:38,YZ,59.92490152
,,,,,,calibration,0,8,2,303,16,F,0,left,0.810687783,0,0,,,,,,,,,,,,,,,,,,,,,1,,,,,,,,,,,,,,,,,,,,,,,,,,,,,,,,,,,,,,,,,,,,,,50,159208,21,Female,1,2024/02/13_08:53:38,YZ,59.92490152
,,,,,,calibration,0,8,2,303,17,J,0,left,nan,0,1,,,,,,,,,,,,,,,,,,,,,1,,,,,,,,,,,,,,,,,,,,,,,,,,,,,,,,,,,,,,,,,,,,,,50,159208,21,Female,1,2024/02/13_08:53:38,YZ,59.92490152
,,,,,,calibration,0,8,2,303,18,F,1,left,nan,0,1,,,,,,,,,,,,,,,,,,,,,1,,,,,,,,,,,,,,,,,,,,,,,,,,,,,,,,,,,,,,,,,,,,,,50,159208,21,Female,1,2024/02/13_08:53:38,YZ,59.92490152
,,,,,,calibration,0,8,2,303,19,N,0,left,nan,0,1,,,,,,,,,,,,,,,,,,,,,1,,,,,,,,,,,,,,,,,,,,,,,,,,,,,,,,,,,,,,,,,,,,,,50,159208,21,Female,1,2024/02/13_08:53:38,YZ,59.92490152
,,,,,,calibration,0,8,2,303,,,,,,,,0.692857143,0.2,0.071428571,0.857142857,0.526315789,0.402255639,0.664868212,1,1,3,7,10,6,7,5,14,0,,,,1,,,,,,,,,,,,,,,,,,,,,,,,,,,,,,,,,,,,,,,,,,,,,,50,159208,21,Female,1,2024/02/13_08:53:38,YZ,59.92490152
,,,,,,Calibration,0,,2,303,,,,,,,,,,,,,,,,,,,,,,,,,9,,,1,,,,,,,,,,,,,,,,,,,,,,,,,,,,,,,,,,,,,,,,,,,,,,50,159208,21,Female,1,2024/02/13_08:53:38,YZ,59.92490152
,,,,,,calibration,0,25,2,361,1,S,0,right,0.746916964,1,0,,,,,,,,,,,,,,,,,,,,,1,,,,,,,,,,,,,,,,,,,,,,,,,,,,,,,,,,,,,,,,,,,,,,50,159208,21,Female,1,2024/02/13_08:53:38,YZ,59.92490152
,,,,,,calibration,0,25,2,361,2,Q,0,right,nan,0,1,,,,,,,,,,,,,,,,,,,,,1,,,,,,,,,,,,,,,,,,,,,,,,,,,,,,,,,,,,,,,,,,,,,,50,159208,21,Female,1,2024/02/13_08:53:38,YZ,59.92490152
,,,,,,calibration,0,25,2,361,3,X,0,right,nan,0,1,,,,,,,,,,,,,,,,,,,,,1,,,,,,,,,,,,,,,,,,,,,,,,,,,,,,,,,,,,,,,,,,,,,,50,159208,21,Female,1,2024/02/13_08:53:38,YZ,59.92490152
,,,,,,calibration,0,25,2,361,4,Q,1,right,0,0,0,,,,,,,,,,,,,,,,,,,,,1,,,,,,,,,,,,,,,,,,,,,,,,,,,,,,,,,,,,,,,,,,,,,,50,159208,21,Female,1,2024/02/13_08:53:38,YZ,59.92490152
,,,,,,calibration,0,25,2,361,5,S,0,left,0.683015381,0,0,,,,,,,,,,,,,,,,,,,,,1,,,,,,,,,,,,,,,,,,,,,,,,,,,,,,,,,,,,,,,,,,,,,,50,159208,21,Female,1,2024/02/13_08:53:38,YZ,59.92490152
,,,,,,calibration,0,25,2,361,6,X,0,right,0.860422387,1,0,,,,,,,,,,,,,,,,,,,,,1,,,,,,,,,,,,,,,,,,,,,,,,,,,,,,,,,,,,,,,,,,,,,,50,159208,21,Female,1,2024/02/13_08:53:38,YZ,59.92490152
,,,,,,calibration,0,25,2,361,7,V,0,right,nan,0,1,,,,,,,,,,,,,,,,,,,,,1,,,,,,,,,,,,,,,,,,,,,,,,,,,,,,,,,,,,,,,,,,,,,,50,159208,21,Female,1,2024/02/13_08:53:38,YZ,59.92490152
,,,,,,calibration,0,25,2,361,8,X,1,left,0.499321739,1,0,,,,,,,,,,,,,,,,,,,,,1,,,,,,,,,,,,,,,,,,,,,,,,,,,,,,,,,,,,,,,,,,,,,,50,159208,21,Female,1,2024/02/13_08:53:38,YZ,59.92490152
,,,,,,calibration,0,25,2,361,9,S,0,left,nan,0,1,,,,,,,,,,,,,,,,,,,,,1,,,,,,,,,,,,,,,,,,,,,,,,,,,,,,,,,,,,,,,,,,,,,,50,159208,21,Female,1,2024/02/13_08:53:38,YZ,59.92490152
,,,,,,calibration,0,25,2,361,10,J,0,left,nan,0,1,,,,,,,,,,,,,,,,,,,,,1,,,,,,,,,,,,,,,,,,,,,,,,,,,,,,,,,,,,,,,,,,,,,,50,159208,21,Female,1,2024/02/13_08:53:38,YZ,59.92490152
,,,,,,calibration,0,25,2,361,11,Q,0,right,0,1,0,,,,,,,,,,,,,,,,,,,,,1,,,,,,,,,,,,,,,,,,,,,,,,,,,,,,,,,,,,,,,,,,,,,,50,159208,21,Female,1,2024/02/13_08:53:38,YZ,59.92490152
,,,,,,calibration,0,25,2,361,12,V,0,right,nan,0,1,,,,,,,,,,,,,,,,,,,,,1,,,,,,,,,,,,,,,,,,,,,,,,,,,,,,,,,,,,,,,,,,,,,,50,159208,21,Female,1,2024/02/13_08:53:38,YZ,59.92490152
,,,,,,calibration,0,25,2,361,13,Q,1,left,0.531933014,1,0,,,,,,,,,,,,,,,,,,,,,1,,,,,,,,,,,,,,,,,,,,,,,,,,,,,,,,,,,,,,,,,,,,,,50,159208,21,Female,1,2024/02/13_08:53:38,YZ,59.92490152
,,,,,,calibration,0,25,2,361,14,S,0,left,nan,0,1,,,,,,,,,,,,,,,,,,,,,1,,,,,,,,,,,,,,,,,,,,,,,,,,,,,,,,,,,,,,,,,,,,,,50,159208,21,Female,1,2024/02/13_08:53:38,YZ,59.92490152
,,,,,,calibration,0,25,2,361,15,X,0,left,nan,0,1,,,,,,,,,,,,,,,,,,,,,1,,,,,,,,,,,,,,,,,,,,,,,,,,,,,,,,,,,,,,,,,,,,,,50,159208,21,Female,1,2024/02/13_08:53:38,YZ,59.92490152
,,,,,,calibration,0,25,2,361,16,S,1,left,0.391897699,1,0,,,,,,,,,,,,,,,,,,,,,1,,,,,,,,,,,,,,,,,,,,,,,,,,,,,,,,,,,,,,,,,,,,,,50,159208,21,Female,1,2024/02/13_08:53:38,YZ,59.92490152
,,,,,,calibration,0,25,2,361,17,C,0,right,0.662516052,1,0,,,,,,,,,,,,,,,,,,,,,1,,,,,,,,,,,,,,,,,,,,,,,,,,,,,,,,,,,,,,,,,,,,,,50,159208,21,Female,1,2024/02/13_08:53:38,YZ,59.92490152
,,,,,,calibration,0,25,2,361,18,S,1,left,0.56018352,1,0,,,,,,,,,,,,,,,,,,,,,1,,,,,,,,,,,,,,,,,,,,,,,,,,,,,,,,,,,,,,,,,,,,,,50,159208,21,Female,1,2024/02/13_08:53:38,YZ,59.92490152
,,,,,,calibration,0,25,2,361,,,,,,,,0.915384615,0.8,0.076923077,0.8,0.444444444,0.478632479,0.493620676,4,1,0,8,8,4,8,5,13,0,,,,1,,,,,,,,,,,,,,,,,,,,,,,,,,,,,,,,,,,,,,,,,,,,,,50,159208,21,Female,1,2024/02/13_08:53:38,YZ,59.92490152
,,,,,,Calibration,0,,2,361,,,,,,,,,,,,,,,,,,,,,,,,,10,,,1,,,,,,,,,,,,,,,,,,,,,,,,,,,,,,,,,,,,,,,,,,,,,,50,159208,21,Female,1,2024/02/13_08:53:38,YZ,59.92490152
,,,,,,calibration,0,29,2,303,1,C,0,None,nan,0,1,,,,,,,,,,,,,,,,,,,,,1,,,,,,,,,,,,,,,,,,,,,,,,,,,,,,,,,,,,,,,,,,,,,,50,159208,21,Female,1,2024/02/13_08:53:38,YZ,59.92490152
,,,,,,calibration,0,29,2,303,2,V,0,right,0.061926771,1,0,,,,,,,,,,,,,,,,,,,,,1,,,,,,,,,,,,,,,,,,,,,,,,,,,,,,,,,,,,,,,,,,,,,,50,159208,21,Female,1,2024/02/13_08:53:38,YZ,59.92490152
,,,,,,calibration,0,29,2,303,3,S,0,right,0.440974092,1,0,,,,,,,,,,,,,,,,,,,,,1,,,,,,,,,,,,,,,,,,,,,,,,,,,,,,,,,,,,,,,,,,,,,,50,159208,21,Female,1,2024/02/13_08:53:38,YZ,59.92490152
,,,,,,calibration,0,29,2,303,4,Q,0,right,0.71982018,1,0,,,,,,,,,,,,,,,,,,,,,1,,,,,,,,,,,,,,,,,,,,,,,,,,,,,,,,,,,,,,,,,,,,,,50,159208,21,Female,1,2024/02/13_08:53:38,YZ,59.92490152
,,,,,,calibration,0,29,2,303,5,J,0,right,nan,0,1,,,,,,,,,,,,,,,,,,,,,1,,,,,,,,,,,,,,,,,,,,,,,,,,,,,,,,,,,,,,,,,,,,,,50,159208,21,Female,1,2024/02/13_08:53:38,YZ,59.92490152
,,,,,,calibration,0,29,2,303,6,Q,1,left,0.796324732,1,0,,,,,,,,,,,,,,,,,,,,,1,,,,,,,,,,,,,,,,,,,,,,,,,,,,,,,,,,,,,,,,,,,,,,50,159208,21,Female,1,2024/02/13_08:53:38,YZ,59.92490152
,,,,,,calibration,0,29,2,303,7,J,1,left,0.691002445,1,0,,,,,,,,,,,,,,,,,,,,,1,,,,,,,,,,,,,,,,,,,,,,,,,,,,,,,,,,,,,,,,,,,,,,50,159208,21,Female,1,2024/02/13_08:53:38,YZ,59.92490152
,,,,,,calibration,0,29,2,303,8,V,0,right,0.499123429,1,0,,,,,,,,,,,,,,,,,,,,,1,,,,,,,,,,,,,,,,,,,,,,,,,,,,,,,,,,,,,,,,,,,,,,50,159208,21,Female,1,2024/02/13_08:53:38,YZ,59.92490152
,,,,,,calibration,0,29,2,303,9,F,0,right,nan,0,1,,,,,,,,,,,,,,,,,,,,,1,,,,,,,,,,,,,,,,,,,,,,,,,,,,,,,,,,,,,,,,,,,,,,50,159208,21,Female,1,2024/02/13_08:53:38,YZ,59.92490152
,,,,,,calibration,0,29,2,303,10,N,0,right,nan,0,1,,,,,,,,,,,,,,,,,,,,,1,,,,,,,,,,,,,,,,,,,,,,,,,,,,,,,,,,,,,,,,,,,,,,50,159208,21,Female,1,2024/02/13_08:53:38,YZ,59.92490152
,,,,,,calibration,0,29,2,303,11,F,1,right,0,0,0,,,,,,,,,,,,,,,,,,,,,1,,,,,,,,,,,,,,,,,,,,,,,,,,,,,,,,,,,,,,,,,,,,,,50,159208,21,Female,1,2024/02/13_08:53:38,YZ,59.92490152
,,,,,,calibration,0,29,2,303,12,S,0,left,0.323714367,0,0,,,,,,,,,,,,,,,,,,,,,1,,,,,,,,,,,,,,,,,,,,,,,,,,,,,,,,,,,,,,,,,,,,,,50,159208,21,Female,1,2024/02/13_08:53:38,YZ,59.92490152
,,,,,,calibration,0,29,2,303,13,J,0,left,nan,0,1,,,,,,,,,,,,,,,,,,,,,1,,,,,,,,,,,,,,,,,,,,,,,,,,,,,,,,,,,,,,,,,,,,,,50,159208,21,Female,1,2024/02/13_08:53:38,YZ,59.92490152
,,,,,,calibration,0,29,2,303,14,N,0,right,0.699210226,1,0,,,,,,,,,,,,,,,,,,,,,1,,,,,,,,,,,,,,,,,,,,,,,,,,,,,,,,,,,,,,,,,,,,,,50,159208,21,Female,1,2024/02/13_08:53:38,YZ,59.92490152
,,,,,,calibration,0,29,2,303,15,Q,0,right,nan,0,1,,,,,,,,,,,,,,,,,,,,,1,,,,,,,,,,,,,,,,,,,,,,,,,,,,,,,,,,,,,,,,,,,,,,50,159208,21,Female,1,2024/02/13_08:53:38,YZ,59.92490152
,,,,,,calibration,0,29,2,303,16,N,1,right,0.095890219,0,0,,,,,,,,,,,,,,,,,,,,,1,,,,,,,,,,,,,,,,,,,,,,,,,,,,,,,,,,,,,,,,,,,,,,50,159208,21,Female,1,2024/02/13_08:53:38,YZ,59.92490152
,,,,,,calibration,0,29,2,303,17,Q,1,left,0,1,0,,,,,,,,,,,,,,,,,,,,,1,,,,,,,,,,,,,,,,,,,,,,,,,,,,,,,,,,,,,,,,,,,,,,50,159208,21,Female,1,2024/02/13_08:53:38,YZ,59.92490152
,,,,,,calibration,0,29,2,303,18,J,0,left,nan,0,1,,,,,,,,,,,,,,,,,,,,,1,,,,,,,,,,,,,,,,,,,,,,,,,,,,,,,,,,,,,,,,,,,,,,50,159208,21,Female,1,2024/02/13_08:53:38,YZ,59.92490152
,,,,,,calibration,0,29,2,303,19,S,0,right,0.332911197,1,0,,,,,,,,,,,,,,,,,,,,,1,,,,,,,,,,,,,,,,,,,,,,,,,,,,,,,,,,,,,,,,,,,,,,50,159208,21,Female,1,2024/02/13_08:53:38,YZ,59.92490152
,,,,,,calibration,0,29,2,303,,,,,,,,0.853571429,0.6,0.071428571,0.857142857,0.368421053,0.560150376,0.388408138,3,1,0,7,7,6,9,5,14,0,,,,1,,,,,,,,,,,,,,,,,,,,,,,,,,,,,,,,,,,,,,,,,,,,,,50,159208,21,Female,1,2024/02/13_08:53:38,YZ,59.92490152
,,,,,,Calibration,0,,2,303,,,,,,,,,,,,,,,,,,,,,,,,,11,,,1,,,,,,,,,,,,,,,,,,,,,,,,,,,,,,,,,,,,,,,,,,,,,,50,159208,21,Female,1,2024/02/13_08:53:38,YZ,59.92490152
,,,,,,calibration,0,36,2,250,1,Q,0,right,0.591326502,1,0,,,,,,,,,,,,,,,,,,,,,1,,,,,,,,,,,,,,,,,,,,,,,,,,,,,,,,,,,,,,,,,,,,,,50,159208,21,Female,1,2024/02/13_08:53:38,YZ,59.92490152
,,,,,,calibration,0,36,2,250,2,C,0,right,nan,0,1,,,,,,,,,,,,,,,,,,,,,1,,,,,,,,,,,,,,,,,,,,,,,,,,,,,,,,,,,,,,,,,,,,,,50,159208,21,Female,1,2024/02/13_08:53:38,YZ,59.92490152
,,,,,,calibration,0,36,2,250,3,S,0,right,0.371838623,1,0,,,,,,,,,,,,,,,,,,,,,1,,,,,,,,,,,,,,,,,,,,,,,,,,,,,,,,,,,,,,,,,,,,,,50,159208,21,Female,1,2024/02/13_08:53:38,YZ,59.92490152
,,,,,,calibration,0,36,2,250,4,J,0,right,nan,0,1,,,,,,,,,,,,,,,,,,,,,1,,,,,,,,,,,,,,,,,,,,,,,,,,,,,,,,,,,,,,,,,,,,,,50,159208,21,Female,1,2024/02/13_08:53:38,YZ,59.92490152
,,,,,,calibration,0,36,2,250,5,F,0,right,0.560437907,1,0,,,,,,,,,,,,,,,,,,,,,1,,,,,,,,,,,,,,,,,,,,,,,,,,,,,,,,,,,,,,,,,,,,,,50,159208,21,Female,1,2024/02/13_08:53:38,YZ,59.92490152
,,,,,,calibration,0,36,2,250,6,C,0,left,0.980843557,0,0,,,,,,,,,,,,,,,,,,,,,1,,,,,,,,,,,,,,,,,,,,,,,,,,,,,,,,,,,,,,,,,,,,,,50,159208,21,Female,1,2024/02/13_08:53:38,YZ,59.92490152
,,,,,,calibration,0,36,2,250,7,N,0,right,0.31141304,1,0,,,,,,,,,,,,,,,,,,,,,1,,,,,,,,,,,,,,,,,,,,,,,,,,,,,,,,,,,,,,,,,,,,,,50,159208,21,Female,1,2024/02/13_08:53:38,YZ,59.92490152
,,,,,,calibration,0,36,2,250,8,X,0,right,0.555609555,1,0,,,,,,,,,,,,,,,,,,,,,1,,,,,,,,,,,,,,,,,,,,,,,,,,,,,,,,,,,,,,,,,,,,,,50,159208,21,Female,1,2024/02/13_08:53:38,YZ,59.92490152
,,,,,,calibration,0,36,2,250,9,N,1,left,0.544381249,1,0,,,,,,,,,,,,,,,,,,,,,1,,,,,,,,,,,,,,,,,,,,,,,,,,,,,,,,,,,,,,,,,,,,,,50,159208,21,Female,1,2024/02/13_08:53:38,YZ,59.92490152
,,,,,,calibration,0,36,2,250,10,C,0,right,0.597733424,1,0,,,,,,,,,,,,,,,,,,,,,1,,,,,,,,,,,,,,,,,,,,,,,,,,,,,,,,,,,,,,,,,,,,,,50,159208,21,Female,1,2024/02/13_08:53:38,YZ,59.92490152
,,,,,,calibration,0,36,2,250,11,N,1,left,0.759247537,1,0,,,,,,,,,,,,,,,,,,,,,1,,,,,,,,,,,,,,,,,,,,,,,,,,,,,,,,,,,,,,,,,,,,,,50,159208,21,Female,1,2024/02/13_08:53:38,YZ,59.92490152
,,,,,,calibration,0,36,2,250,12,C,1,left,0.577453593,1,0,,,,,,,,,,,,,,,,,,,,,1,,,,,,,,,,,,,,,,,,,,,,,,,,,,,,,,,,,,,,,,,,,,,,50,159208,21,Female,1,2024/02/13_08:53:38,YZ,59.92490152
,,,,,,calibration,0,36,2,250,13,F,0,right,0.611073659,1,0,,,,,,,,,,,,,,,,,,,,,1,,,,,,,,,,,,,,,,,,,,,,,,,,,,,,,,,,,,,,,,,,,,,,50,159208,21,Female,1,2024/02/13_08:53:38,YZ,59.92490152
,,,,,,calibration,0,36,2,250,14,C,1,left,0.56131449,1,0,,,,,,,,,,,,,,,,,,,,,1,,,,,,,,,,,,,,,,,,,,,,,,,,,,,,,,,,,,,,,,,,,,,,50,159208,21,Female,1,2024/02/13_08:53:38,YZ,59.92490152
,,,,,,calibration,0,36,2,250,15,J,0,right,0.580424666,1,0,,,,,,,,,,,,,,,,,,,,,1,,,,,,,,,,,,,,,,,,,,,,,,,,,,,,,,,,,,,,,,,,,,,,50,159208,21,Female,1,2024/02/13_08:53:38,YZ,59.92490152
,,,,,,calibration,0,36,2,250,16,F,0,left,0.911032377,0,0,,,,,,,,,,,,,,,,,,,,,1,,,,,,,,,,,,,,,,,,,,,,,,,,,,,,,,,,,,,,,,,,,,,,50,159208,21,Female,1,2024/02/13_08:53:38,YZ,59.92490152
,,,,,,calibration,0,36,2,250,17,J,1,right,0.86393836,0,0,,,,,,,,,,,,,,,,,,,,,1,,,,,,,,,,,,,,,,,,,,,,,,,,,,,,,,,,,,,,,,,,,,,,50,159208,21,Female,1,2024/02/13_08:53:38,YZ,59.92490152
,,,,,,calibration,0,36,2,250,18,N,0,right,nan,0,1,,,,,,,,,,,,,,,,,,,,,1,,,,,,,,,,,,,,,,,,,,,,,,,,,,,,,,,,,,,,,,,,,,,,50,159208,21,Female,1,2024/02/13_08:53:38,YZ,59.92490152
,,,,,,calibration,0,36,2,250,19,C,0,right,0.808281938,1,0,,,,,,,,,,,,,,,,,,,,,1,,,,,,,,,,,,,,,,,,,,,,,,,,,,,,,,,,,,,,,,,,,,,,50,159208,21,Female,1,2024/02/13_08:53:38,YZ,59.92490152
,,,,,,calibration,0,36,2,250,20,N,1,left,0.578066309,1,0,,,,,,,,,,,,,,,,,,,,,1,,,,,,,,,,,,,,,,,,,,,,,,,,,,,,,,,,,,,,,,,,,,,,50,159208,21,Female,1,2024/02/13_08:53:38,YZ,59.92490152
,,,,,,calibration,0,36,2,250,,,,,,,,0.898809524,0.833333333,0.142857143,0.818181818,0.15,0.707142857,0.633200987,5,2,0,3,3,9,14,6,14,0,,,,1,,,,,,,,,,,,,,,,,,,,,,,,,,,,,,,,,,,,,,,,,,,,,,50,159208,21,Female,1,2024/02/13_08:53:38,YZ,59.92490152
,,,,,,Calibration,0,,2,250,,,,,,,,,,,,,,,,,,,,,,,,,12,,,1,,,,,,,,,,,,,,,,,,,,,,,,,,,,,,,,,,,,,,,,,,,,,,50,159208,21,Female,1,2024/02/13_08:53:38,YZ,59.92490152
,,,,,,calibration,0,21,2,202,1,F,0,right,0.27024443,1,0,,,,,,,,,,,,,,,,,,,,,1,,,,,,,,,,,,,,,,,,,,,,,,,,,,,,,,,,,,,,,,,,,,,,50,159208,21,Female,1,2024/02/13_08:53:38,YZ,59.92490152
,,,,,,calibration,0,21,2,202,2,V,0,right,0.270015446,1,0,,,,,,,,,,,,,,,,,,,,,1,,,,,,,,,,,,,,,,,,,,,,,,,,,,,,,,,,,,,,,,,,,,,,50,159208,21,Female,1,2024/02/13_08:53:38,YZ,59.92490152
,,,,,,calibration,0,21,2,202,3,S,0,right,0.270227537,1,0,,,,,,,,,,,,,,,,,,,,,1,,,,,,,,,,,,,,,,,,,,,,,,,,,,,,,,,,,,,,,,,,,,,,50,159208,21,Female,1,2024/02/13_08:53:38,YZ,59.92490152
,,,,,,calibration,0,21,2,202,4,X,0,right,0.204796746,1,0,,,,,,,,,,,,,,,,,,,,,1,,,,,,,,,,,,,,,,,,,,,,,,,,,,,,,,,,,,,,,,,,,,,,50,159208,21,Female,1,2024/02/13_08:53:38,YZ,59.92490152
,,,,,,calibration,0,21,2,202,5,J,0,right,0.269984015,1,0,,,,,,,,,,,,,,,,,,,,,1,,,,,,,,,,,,,,,,,,,,,,,,,,,,,,,,,,,,,,,,,,,,,,50,159208,21,Female,1,2024/02/13_08:53:38,YZ,59.92490152
,,,,,,calibration,0,21,2,202,6,F,0,left,0.829820847,0,0,,,,,,,,,,,,,,,,,,,,,1,,,,,,,,,,,,,,,,,,,,,,,,,,,,,,,,,,,,,,,,,,,,,,50,159208,21,Female,1,2024/02/13_08:53:38,YZ,59.92490152
,,,,,,calibration,0,21,2,202,7,J,1,right,0.259477815,0,0,,,,,,,,,,,,,,,,,,,,,1,,,,,,,,,,,,,,,,,,,,,,,,,,,,,,,,,,,,,,,,,,,,,,50,159208,21,Female,1,2024/02/13_08:53:38,YZ,59.92490152
,,,,,,calibration,0,21,2,202,8,C,0,left,0.642785247,0,0,,,,,,,,,,,,,,,,,,,,,1,,,,,,,,,,,,,,,,,,,,,,,,,,,,,,,,,,,,,,,,,,,,,,50,159208,21,Female,1,2024/02/13_08:53:38,YZ,59.92490152
,,,,,,calibration,0,21,2,202,9,J,1,left,0.524953146,1,0,,,,,,,,,,,,,,,,,,,,,1,,,,,,,,,,,,,,,,,,,,,,,,,,,,,,,,,,,,,,,,,,,,,,50,159208,21,Female,1,2024/02/13_08:53:38,YZ,59.92490152
,,,,,,calibration,0,21,2,202,10,F,0,right,0.417604679,1,0,,,,,,,,,,,,,,,,,,,,,1,,,,,,,,,,,,,,,,,,,,,,,,,,,,,,,,,,,,,,,,,,,,,,50,159208,21,Female,1,2024/02/13_08:53:38,YZ,59.92490152
,,,,,,calibration,0,21,2,202,11,N,0,right,nan,0,1,,,,,,,,,,,,,,,,,,,,,1,,,,,,,,,,,,,,,,,,,,,,,,,,,,,,,,,,,,,,,,,,,,,,50,159208,21,Female,1,2024/02/13_08:53:38,YZ,59.92490152
,,,,,,calibration,0,21,2,202,12,F,1,left,0.559683935,1,0,,,,,,,,,,,,,,,,,,,,,1,,,,,,,,,,,,,,,,,,,,,,,,,,,,,,,,,,,,,,,,,,,,,,50,159208,21,Female,1,2024/02/13_08:53:38,YZ,59.92490152
,,,,,,calibration,0,21,2,202,13,N,1,left,0.524667869,1,0,,,,,,,,,,,,,,,,,,,,,1,,,,,,,,,,,,,,,,,,,,,,,,,,,,,,,,,,,,,,,,,,,,,,50,159208,21,Female,1,2024/02/13_08:53:38,YZ,59.92490152
,,,,,,calibration,0,21,2,202,14,V,0,right,0.833375983,1,0,,,,,,,,,,,,,,,,,,,,,1,,,,,,,,,,,,,,,,,,,,,,,,,,,,,,,,,,,,,,,,,,,,,,50,159208,21,Female,1,2024/02/13_08:53:38,YZ,59.92490152
,,,,,,calibration,0,21,2,202,15,N,1,left,0.596490012,1,0,,,,,,,,,,,,,,,,,,,,,1,,,,,,,,,,,,,,,,,,,,,,,,,,,,,,,,,,,,,,,,,,,,,,50,159208,21,Female,1,2024/02/13_08:53:38,YZ,59.92490152
,,,,,,calibration,0,21,2,202,16,J,0,right,0.662639963,1,0,,,,,,,,,,,,,,,,,,,,,1,,,,,,,,,,,,,,,,,,,,,,,,,,,,,,,,,,,,,,,,,,,,,,50,159208,21,Female,1,2024/02/13_08:53:38,YZ,59.92490152
,,,,,,calibration,0,21,2,202,17,N,1,left,0.421687853,1,0,,,,,,,,,,,,,,,,,,,,,1,,,,,,,,,,,,,,,,,,,,,,,,,,,,,,,,,,,,,,,,,,,,,,50,159208,21,Female,1,2024/02/13_08:53:38,YZ,59.92490152
,,,,,,calibration,0,21,2,202,18,Q,0,right,0.614779471,1,0,,,,,,,,,,,,,,,,,,,,,1,,,,,,,,,,,,,,,,,,,,,,,,,,,,,,,,,,,,,,,,,,,,,,50,159208,21,Female,1,2024/02/13_08:53:38,YZ,59.92490152
,,,,,,calibration,0,21,2,202,19,F,0,left,0.513584834,0,0,,,,,,,,,,,,,,,,,,,,,1,,,,,,,,,,,,,,,,,,,,,,,,,,,,,,,,,,,,,,,,,,,,,,50,159208,21,Female,1,2024/02/13_08:53:38,YZ,59.92490152
,,,,,,calibration,0,21,2,202,20,C,0,left,0.388661594,0,0,,,,,,,,,,,,,,,,,,,,,1,,,,,,,,,,,,,,,,,,,,,,,,,,,,,,,,,,,,,,,,,,,,,,50,159208,21,Female,1,2024/02/13_08:53:38,YZ,59.92490152
,,,,,,calibration,0,21,2,202,21,V,0,right,0.757554883,1,0,,,,,,,,,,,,,,,,,,,,,1,,,,,,,,,,,,,,,,,,,,,,,,,,,,,,,,,,,,,,,,,,,,,,50,159208,21,Female,1,2024/02/13_08:53:38,YZ,59.92490152
,,,,,,calibration,0,21,2,202,,,,,,,,0.847222222,0.833333333,0.266666667,0.714285714,0.047619048,0.685714286,0.491651815,5,4,0,1,1,10,15,6,15,0,,,,1,,,,,,,,,,,,,,,,,,,,,,,,,,,,,,,,,,,,,,,,,,,,,,50,159208,21,Female,1,2024/02/13_08:53:38,YZ,59.92490152
,,,,,,Calibration,0,,2,202,,,,,,,,,,,,,,,,,,,,,,,,,13,,,1,,,,,,,,,,,,,,,,,,,,,,,,,,,,,,,,,,,,,,,,,,,,,,50,159208,21,Female,1,2024/02/13_08:53:38,YZ,59.92490152
,,,,,,calibration,0,28,2,202,1,J,0,right,0.251486108,1,0,,,,,,,,,,,,,,,,,,,,,1,,,,,,,,,,,,,,,,,,,,,,,,,,,,,,,,,,,,,,,,,,,,,,50,159208,21,Female,1,2024/02/13_08:53:38,YZ,59.92490152
,,,,,,calibration,0,28,2,202,2,F,0,right,0.478307485,1,0,,,,,,,,,,,,,,,,,,,,,1,,,,,,,,,,,,,,,,,,,,,,,,,,,,,,,,,,,,,,,,,,,,,,50,159208,21,Female,1,2024/02/13_08:53:38,YZ,59.92490152
,,,,,,calibration,0,28,2,202,3,C,0,right,0.692549285,1,0,,,,,,,,,,,,,,,,,,,,,1,,,,,,,,,,,,,,,,,,,,,,,,,,,,,,,,,,,,,,,,,,,,,,50,159208,21,Female,1,2024/02/13_08:53:38,YZ,59.92490152
,,,,,,calibration,0,28,2,202,4,X,0,right,0.645389115,1,0,,,,,,,,,,,,,,,,,,,,,1,,,,,,,,,,,,,,,,,,,,,,,,,,,,,,,,,,,,,,,,,,,,,,50,159208,21,Female,1,2024/02/13_08:53:38,YZ,59.92490152
,,,,,,calibration,0,28,2,202,5,C,1,left,0.731304054,1,0,,,,,,,,,,,,,,,,,,,,,1,,,,,,,,,,,,,,,,,,,,,,,,,,,,,,,,,,,,,,,,,,,,,,50,159208,21,Female,1,2024/02/13_08:53:38,YZ,59.92490152
,,,,,,calibration,0,28,2,202,6,F,0,left,nan,0,1,,,,,,,,,,,,,,,,,,,,,1,,,,,,,,,,,,,,,,,,,,,,,,,,,,,,,,,,,,,,,,,,,,,,50,159208,21,Female,1,2024/02/13_08:53:38,YZ,59.92490152
,,,,,,calibration,0,28,2,202,7,C,1,left,nan,0,1,,,,,,,,,,,,,,,,,,,,,1,,,,,,,,,,,,,,,,,,,,,,,,,,,,,,,,,,,,,,,,,,,,,,50,159208,21,Female,1,2024/02/13_08:53:38,YZ,59.92490152
,,,,,,calibration,0,28,2,202,8,F,1,left,nan,0,1,,,,,,,,,,,,,,,,,,,,,1,,,,,,,,,,,,,,,,,,,,,,,,,,,,,,,,,,,,,,,,,,,,,,50,159208,21,Female,1,2024/02/13_08:53:38,YZ,59.92490152
,,,,,,calibration,0,28,2,202,9,S,0,left,0.009860309,0,0,,,,,,,,,,,,,,,,,,,,,1,,,,,,,,,,,,,,,,,,,,,,,,,,,,,,,,,,,,,,,,,,,,,,50,159208,21,Female,1,2024/02/13_08:53:38,YZ,59.92490152
,,,,,,calibration,0,28,2,202,10,C,0,right,0.42618707,1,0,,,,,,,,,,,,,,,,,,,,,1,,,,,,,,,,,,,,,,,,,,,,,,,,,,,,,,,,,,,,,,,,,,,,50,159208,21,Female,1,2024/02/13_08:53:38,YZ,59.92490152
,,,,,,calibration,0,28,2,202,11,X,0,right,nan,0,1,,,,,,,,,,,,,,,,,,,,,1,,,,,,,,,,,,,,,,,,,,,,,,,,,,,,,,,,,,,,,,,,,,,,50,159208,21,Female,1,2024/02/13_08:53:38,YZ,59.92490152
,,,,,,calibration,0,28,2,202,12,C,1,left,0.694822975,1,0,,,,,,,,,,,,,,,,,,,,,1,,,,,,,,,,,,,,,,,,,,,,,,,,,,,,,,,,,,,,,,,,,,,,50,159208,21,Female,1,2024/02/13_08:53:38,YZ,59.92490152
,,,,,,calibration,0,28,2,202,13,F,0,left,nan,0,1,,,,,,,,,,,,,,,,,,,,,1,,,,,,,,,,,,,,,,,,,,,,,,,,,,,,,,,,,,,,,,,,,,,,50,159208,21,Female,1,2024/02/13_08:53:38,YZ,59.92490152
,,,,,,calibration,0,28,2,202,14,S,0,left,nan,0,1,,,,,,,,,,,,,,,,,,,,,1,,,,,,,,,,,,,,,,,,,,,,,,,,,,,,,,,,,,,,,,,,,,,,50,159208,21,Female,1,2024/02/13_08:53:38,YZ,59.92490152
,,,,,,calibration,0,28,2,202,15,N,0,right,0.843182295,1,0,,,,,,,,,,,,,,,,,,,,,1,,,,,,,,,,,,,,,,,,,,,,,,,,,,,,,,,,,,,,,,,,,,,,50,159208,21,Female,1,2024/02/13_08:53:38,YZ,59.92490152
,,,,,,calibration,0,28,2,202,16,X,0,right,nan,0,1,,,,,,,,,,,,,,,,,,,,,1,,,,,,,,,,,,,,,,,,,,,,,,,,,,,,,,,,,,,,,,,,,,,,50,159208,21,Female,1,2024/02/13_08:53:38,YZ,59.92490152
,,,,,,calibration,0,28,2,202,17,F,0,right,nan,0,1,,,,,,,,,,,,,,,,,,,,,1,,,,,,,,,,,,,,,,,,,,,,,,,,,,,,,,,,,,,,,,,,,,,,50,159208,21,Female,1,2024/02/13_08:53:38,YZ,59.92490152
,,,,,,calibration,0,28,2,202,18,X,1,right,nan,0,1,,,,,,,,,,,,,,,,,,,,,1,,,,,,,,,,,,,,,,,,,,,,,,,,,,,,,,,,,,,,,,,,,,,,50,159208,21,Female,1,2024/02/13_08:53:38,YZ,59.92490152
,,,,,,calibration,0,28,2,202,19,F,1,right,0.695505619,0,0,,,,,,,,,,,,,,,,,,,,,1,,,,,,,,,,,,,,,,,,,,,,,,,,,,,,,,,,,,,,,,,,,,,,50,159208,21,Female,1,2024/02/13_08:53:38,YZ,59.92490152
,,,,,,calibration,0,28,2,202,20,Q,0,right,0.798084295,1,0,,,,,,,,,,,,,,,,,,,,,1,,,,,,,,,,,,,,,,,,,,,,,,,,,,,,,,,,,,,,,,,,,,,,50,159208,21,Female,1,2024/02/13_08:53:38,YZ,59.92490152
,,,,,,calibration,0,28,2,202,21,V,0,right,nan,0,1,,,,,,,,,,,,,,,,,,,,,1,,,,,,,,,,,,,,,,,,,,,,,,,,,,,,,,,,,,,,,,,,,,,,50,159208,21,Female,1,2024/02/13_08:53:38,YZ,59.92490152
,,,,,,calibration,0,28,2,202,,,,,,,,0.766666667,0.333333333,0.066666667,0.875,0.476190476,0.457142857,0.569698055,2,1,3,7,10,7,9,6,15,0,,,,1,,,,,,,,,,,,,,,,,,,,,,,,,,,,,,,,,,,,,,,,,,,,,,50,159208,21,Female,1,2024/02/13_08:53:38,YZ,59.92490152
,,,,,,Calibration,0,,2,202,,,,,,,,,,,,,,,,,,,,,,,,,14,,,1,,,,,,,,,,,,,,,,,,,,,,,,,,,,,,,,,,,,,,,,,,,,,,50,159208,21,Female,1,2024/02/13_08:53:38,YZ,59.92490152
,,,,,,calibration,0,19,2,202,1,J,0,right,0.730664961,1,0,,,,,,,,,,,,,,,,,,,,,1,,,,,,,,,,,,,,,,,,,,,,,,,,,,,,,,,,,,,,,,,,,,,,50,159208,21,Female,1,2024/02/13_08:53:38,YZ,59.92490152
,,,,,,calibration,0,19,2,202,2,V,0,right,0.813238221,1,0,,,,,,,,,,,,,,,,,,,,,1,,,,,,,,,,,,,,,,,,,,,,,,,,,,,,,,,,,,,,,,,,,,,,50,159208,21,Female,1,2024/02/13_08:53:38,YZ,59.92490152
,,,,,,calibration,0,19,2,202,3,C,0,right,0.959574691,1,0,,,,,,,,,,,,,,,,,,,,,1,,,,,,,,,,,,,,,,,,,,,,,,,,,,,,,,,,,,,,,,,,,,,,50,159208,21,Female,1,2024/02/13_08:53:38,YZ,59.92490152
,,,,,,calibration,0,19,2,202,4,J,0,left,0.646401057,0,0,,,,,,,,,,,,,,,,,,,,,1,,,,,,,,,,,,,,,,,,,,,,,,,,,,,,,,,,,,,,,,,,,,,,50,159208,21,Female,1,2024/02/13_08:53:38,YZ,59.92490152
,,,,,,calibration,0,19,2,202,5,C,1,left,0.827429741,1,0,,,,,,,,,,,,,,,,,,,,,1,,,,,,,,,,,,,,,,,,,,,,,,,,,,,,,,,,,,,,,,,,,,,,50,159208,21,Female,1,2024/02/13_08:53:38,YZ,59.92490152
,,,,,,calibration,0,19,2,202,6,J,1,left,0.728100863,1,0,,,,,,,,,,,,,,,,,,,,,1,,,,,,,,,,,,,,,,,,,,,,,,,,,,,,,,,,,,,,,,,,,,,,50,159208,21,Female,1,2024/02/13_08:53:38,YZ,59.92490152
,,,,,,calibration,0,19,2,202,7,S,0,right,0.757969756,1,0,,,,,,,,,,,,,,,,,,,,,1,,,,,,,,,,,,,,,,,,,,,,,,,,,,,,,,,,,,,,,,,,,,,,50,159208,21,Female,1,2024/02/13_08:53:38,YZ,59.92490152
,,,,,,calibration,0,19,2,202,8,Q,0,right,0.493637259,1,0,,,,,,,,,,,,,,,,,,,,,1,,,,,,,,,,,,,,,,,,,,,,,,,,,,,,,,,,,,,,,,,,,,,,50,159208,21,Female,1,2024/02/13_08:53:38,YZ,59.92490152
,,,,,,calibration,0,19,2,202,9,F,0,right,0.709796234,1,0,,,,,,,,,,,,,,,,,,,,,1,,,,,,,,,,,,,,,,,,,,,,,,,,,,,,,,,,,,,,,,,,,,,,50,159208,21,Female,1,2024/02/13_08:53:38,YZ,59.92490152
,,,,,,calibration,0,19,2,202,10,V,0,right,nan,0,1,,,,,,,,,,,,,,,,,,,,,1,,,,,,,,,,,,,,,,,,,,,,,,,,,,,,,,,,,,,,,,,,,,,,50,159208,21,Female,1,2024/02/13_08:53:38,YZ,59.92490152
,,,,,,calibration,0,19,2,202,11,J,0,left,0.712844174,0,0,,,,,,,,,,,,,,,,,,,,,1,,,,,,,,,,,,,,,,,,,,,,,,,,,,,,,,,,,,,,,,,,,,,,50,159208,21,Female,1,2024/02/13_08:53:38,YZ,59.92490152
,,,,,,calibration,0,19,2,202,12,C,0,right,0.813386069,1,0,,,,,,,,,,,,,,,,,,,,,1,,,,,,,,,,,,,,,,,,,,,,,,,,,,,,,,,,,,,,,,,,,,,,50,159208,21,Female,1,2024/02/13_08:53:38,YZ,59.92490152
,,,,,,calibration,0,19,2,202,13,J,1,right,nan,0,1,,,,,,,,,,,,,,,,,,,,,1,,,,,,,,,,,,,,,,,,,,,,,,,,,,,,,,,,,,,,,,,,,,,,50,159208,21,Female,1,2024/02/13_08:53:38,YZ,59.92490152
,,,,,,calibration,0,19,2,202,14,S,0,right,0.525497069,1,0,,,,,,,,,,,,,,,,,,,,,1,,,,,,,,,,,,,,,,,,,,,,,,,,,,,,,,,,,,,,,,,,,,,,50,159208,21,Female,1,2024/02/13_08:53:38,YZ,59.92490152
,,,,,,calibration,0,19,2,202,15,J,1,left,0.719383036,1,0,,,,,,,,,,,,,,,,,,,,,1,,,,,,,,,,,,,,,,,,,,,,,,,,,,,,,,,,,,,,,,,,,,,,50,159208,21,Female,1,2024/02/13_08:53:38,YZ,59.92490152
,,,,,,calibration,0,19,2,202,16,Q,0,right,0.948141959,1,0,,,,,,,,,,,,,,,,,,,,,1,,,,,,,,,,,,,,,,,,,,,,,,,,,,,,,,,,,,,,,,,,,,,,50,159208,21,Female,1,2024/02/13_08:53:38,YZ,59.92490152
,,,,,,calibration,0,19,2,202,17,N,0,right,0.644857582,1,0,,,,,,,,,,,,,,,,,,,,,1,,,,,,,,,,,,,,,,,,,,,,,,,,,,,,,,,,,,,,,,,,,,,,50,159208,21,Female,1,2024/02/13_08:53:38,YZ,59.92490152
,,,,,,calibration,0,19,2,202,18,Q,1,left,0.944829615,1,0,,,,,,,,,,,,,,,,,,,,,1,,,,,,,,,,,,,,,,,,,,,,,,,,,,,,,,,,,,,,,,,,,,,,50,159208,21,Female,1,2024/02/13_08:53:38,YZ,59.92490152
,,,,,,calibration,0,19,2,202,19,N,1,left,0.877632938,1,0,,,,,,,,,,,,,,,,,,,,,1,,,,,,,,,,,,,,,,,,,,,,,,,,,,,,,,,,,,,,,,,,,,,,50,159208,21,Female,1,2024/02/13_08:53:38,YZ,59.92490152
,,,,,,calibration,0,19,2,202,20,V,0,right,0.59732625,1,0,,,,,,,,,,,,,,,,,,,,,1,,,,,,,,,,,,,,,,,,,,,,,,,,,,,,,,,,,,,,,,,,,,,,50,159208,21,Female,1,2024/02/13_08:53:38,YZ,59.92490152
,,,,,,calibration,0,19,2,202,21,N,1,left,0.660988189,1,0,,,,,,,,,,,,,,,,,,,,,1,,,,,,,,,,,,,,,,,,,,,,,,,,,,,,,,,,,,,,,,,,,,,,50,159208,21,Female,1,2024/02/13_08:53:38,YZ,59.92490152
,,,,,,calibration,0,19,2,202,,,,,,,,0.908163265,0.857142857,0.142857143,0.846153846,0.095238095,0.761904762,0.742721035,6,2,1,1,2,11,17,7,14,0,,,,1,,,,,,,,,,,,,,,,,,,,,,,,,,,,,,,,,,,,,,,,,,,,,,50,159208,21,Female,1,2024/02/13_08:53:38,YZ,59.92490152
,,,,,,Calibration,0,,2,202,,,,,,,,,,,,,,,,,,,,,,,,,15,,,1,,,,,,,,,,,,,,,,,,,,,,,,,,,,,,,,,,,,,,,,,,,,,,50,159208,21,Female,1,2024/02/13_08:53:38,YZ,59.92490152
,,,,,,CALIBRATION,0,,,,,,,,,,,,,,,,,,,,,,,,,,,,15,0.908163265,202,1,,,,,,,,,,,,,,,,,,,,,,,,,,,,,,,,,,,,,,,,,,,,,,50,159208,21,Female,1,2024/02/13_08:53:38,YZ,59.92490152
1,./instructions/inst_prac_1/Slide24.png,right,46.81316165,615.4137676,662.2269293,,,,,,,,,,,,,,,,,,,,,,,,,,,,,,,,,1,,,,,,,,,,,,,,,,,,,,,,,,,,,,,,,,,,,,,,,,,,,,,,50,159208,21,Female,1,2024/02/13_08:53:38,YZ,59.92490152
2,./instructions/inst_prac_1/Slide25.png,right,2.066770283,662.3041578,664.3709281,,,,,,,,,,,,,,,,,,,,,,,,,,,,,,,,,1,,,,,,,,,,,,,,,,,,,,,,,,,,,,,,,,,,,,,,,,,,,,,,50,159208,21,Female,1,2024/02/13_08:53:38,YZ,59.92490152
3,./instructions/inst_prac_1/Slide26.png,right,0.995162544,664.4557576,665.4509202,,,,,,,,,,,,,,,,,,,,,,,,,,,,,,,,,1,,,,,,,,,,,,,,,,,,,,,,,,,,,,,,,,,,,,,,,,,,,,,,50,159208,21,Female,1,2024/02/13_08:53:38,YZ,59.92490152
4,./instructions/inst_prac_1/Slide27.png,right,0.633052199,665.50601,666.1390622,,,,,,,,,,,,,,,,,,,,,,,,,,,,,,,,,1,,,,,,,,,,,,,,,,,,,,,,,,,,,,,,,,,,,,,,,,,,,,,,50,159208,21,Female,1,2024/02/13_08:53:38,YZ,59.92490152
5,./instructions/inst_prac_1/Slide28.png,right,0.468887134,666.1900356,666.6589228,,,,,,,,,,,,,,,,,,,,,,,,,,,,,,,,,1,,,,,,,,,,,,,,,,,,,,,,,,,,,,,,,,,,,,,,,,,,,,,,50,159208,21,Female,1,2024/02/13_08:53:38,YZ,59.92490152
6,./instructions/inst_prac_1/Slide29.png,right,1.663666444,666.7149163,668.3785828,,,,,,,,,,,,,,,,,,,,,,,,,,,,,,,,,1,,,,,,,,,,,,,,,,,,,,,,,,,,,,,,,,,,,,,,,,,,,,,,50,159208,21,Female,1,2024/02/13_08:53:38,YZ,59.92490152
7,./instructions/inst_prac_1/Slide30.png,right,4.652790099,668.4381636,673.0909537,,,,,,,,,,,,,,,,,,,,,,,,,,,,,,,,,1,,,,,,,,,,,,,,,,,,,,,,,,,,,,,,,,,,,,,,,,,,,,,,50,159208,21,Female,1,2024/02/13_08:53:38,YZ,59.92490152
,,,,,,practice,0,1,1,1250,1,F,0,right,3.112377307,1,0,,,,,,,,,,,,,,,,,,,,,1,,,,,,,,,,,,,,,,,,,,,,,,,,,,,,,,,,,,,,,,,,,,,,50,159208,21,Female,1,2024/02/13_08:53:38,YZ,59.92490152
,,,,,,practice,0,1,1,1250,2,F,1,right,0.631498313,0,0,,,,,,,,,,,,,,,,,,,,,1,,,,,,,,,,,,,,,,,,,,,,,,,,,,,,,,,,,,,,,,,,,,,,50,159208,21,Female,1,2024/02/13_08:53:38,YZ,59.92490152
,,,,,,practice,0,1,1,1250,3,Q,0,right,0.893446149,1,0,,,,,,,,,,,,,,,,,,,,,1,,,,,,,,,,,,,,,,,,,,,,,,,,,,,,,,,,,,,,,,,,,,,,50,159208,21,Female,1,2024/02/13_08:53:38,YZ,59.92490152
,,,,,,practice,0,1,1,1250,4,Q,1,left,0.4959237,1,0,,,,,,,,,,,,,,,,,,,,,1,,,,,,,,,,,,,,,,,,,,,,,,,,,,,,,,,,,,,,,,,,,,,,50,159208,21,Female,1,2024/02/13_08:53:38,YZ,59.92490152
,,,,,,practice,0,1,1,1250,5,F,0,right,0.76070255,1,0,,,,,,,,,,,,,,,,,,,,,1,,,,,,,,,,,,,,,,,,,,,,,,,,,,,,,,,,,,,,,,,,,,,,50,159208,21,Female,1,2024/02/13_08:53:38,YZ,59.92490152
,,,,,,practice,0,1,1,1250,6,S,0,right,1.037628399,1,0,,,,,,,,,,,,,,,,,,,,,1,,,,,,,,,,,,,,,,,,,,,,,,,,,,,,,,,,,,,,,,,,,,,,50,159208,21,Female,1,2024/02/13_08:53:38,YZ,59.92490152
,,,,,,practice,0,1,1,1250,7,S,1,left,0.634753581,1,0,,,,,,,,,,,,,,,,,,,,,1,,,,,,,,,,,,,,,,,,,,,,,,,,,,,,,,,,,,,,,,,,,,,,50,159208,21,Female,1,2024/02/13_08:53:38,YZ,59.92490152
,,,,,,practice,0,1,1,1250,8,C,0,right,0.65518926,1,0,,,,,,,,,,,,,,,,,,,,,1,,,,,,,,,,,,,,,,,,,,,,,,,,,,,,,,,,,,,,,,,,,,,,50,159208,21,Female,1,2024/02/13_08:53:38,YZ,59.92490152
,,,,,,practice,0,1,1,1250,9,X,0,right,0.520651236,1,0,,,,,,,,,,,,,,,,,,,,,1,,,,,,,,,,,,,,,,,,,,,,,,,,,,,,,,,,,,,,,,,,,,,,50,159208,21,Female,1,2024/02/13_08:53:38,YZ,59.92490152
,,,,,,practice,0,1,1,1250,10,S,0,right,0.526905406,1,0,,,,,,,,,,,,,,,,,,,,,1,,,,,,,,,,,,,,,,,,,,,,,,,,,,,,,,,,,,,,,,,,,,,,50,159208,21,Female,1,2024/02/13_08:53:38,YZ,59.92490152
,,,,,,practice,0,1,1,1250,,,,,,,,0.916666667,0.666666667,0,1,0,1,0.92690759,2,0,0,0,0,7,9,3,7,0,,,,1,,,,,,,,,,,,,,,,,,,,,,,,,,,,,,,,,,,,,,,,,,,,,,50,159208,21,Female,1,2024/02/13_08:53:38,YZ,59.92490152
1,./instructions/inst_prac_1_next/Slide35.png,right,0.811379662,693.5275702,694.3389498,,,,,,,,,,,,,,,,,,,,,,,,,,,,,,,,,1,,,,,,,,,,,,,,,,,,,,,,,,,,,,,,,,,,,,,,,,,,,,,,50,159208,21,Female,1,2024/02/13_08:53:38,YZ,59.92490152
,,,,,,practice,0,20,1,202,1,C,0,right,1.655820673,1,0,,,,,,,,,,,,,,,,,,,,,1,,,,,,,,,,,,,,,,,,,,,,,,,,,,,,,,,,,,,,,,,,,,,,50,159208,21,Female,1,2024/02/13_08:53:38,YZ,59.92490152
,,,,,,practice,0,20,1,202,2,C,1,left,0.614663964,1,0,,,,,,,,,,,,,,,,,,,,,1,,,,,,,,,,,,,,,,,,,,,,,,,,,,,,,,,,,,,,,,,,,,,,50,159208,21,Female,1,2024/02/13_08:53:38,YZ,59.92490152
,,,,,,practice,0,20,1,202,3,X,0,right,0.618081624,1,0,,,,,,,,,,,,,,,,,,,,,1,,,,,,,,,,,,,,,,,,,,,,,,,,,,,,,,,,,,,,,,,,,,,,50,159208,21,Female,1,2024/02/13_08:53:38,YZ,59.92490152
,,,,,,practice,0,20,1,202,4,F,0,right,0.549071133,1,0,,,,,,,,,,,,,,,,,,,,,1,,,,,,,,,,,,,,,,,,,,,,,,,,,,,,,,,,,,,,,,,,,,,,50,159208,21,Female,1,2024/02/13_08:53:38,YZ,59.92490152
,,,,,,practice,0,20,1,202,5,N,0,right,0.798552387,1,0,,,,,,,,,,,,,,,,,,,,,1,,,,,,,,,,,,,,,,,,,,,,,,,,,,,,,,,,,,,,,,,,,,,,50,159208,21,Female,1,2024/02/13_08:53:38,YZ,59.92490152
,,,,,,practice,0,20,1,202,6,N,1,left,0.665536821,1,0,,,,,,,,,,,,,,,,,,,,,1,,,,,,,,,,,,,,,,,,,,,,,,,,,,,,,,,,,,,,,,,,,,,,50,159208,21,Female,1,2024/02/13_08:53:38,YZ,59.92490152
,,,,,,practice,0,20,1,202,7,Q,0,right,0.769652396,1,0,,,,,,,,,,,,,,,,,,,,,1,,,,,,,,,,,,,,,,,,,,,,,,,,,,,,,,,,,,,,,,,,,,,,50,159208,21,Female,1,2024/02/13_08:53:38,YZ,59.92490152
,,,,,,practice,0,20,1,202,8,Q,1,right,0.522164193,0,0,,,,,,,,,,,,,,,,,,,,,1,,,,,,,,,,,,,,,,,,,,,,,,,,,,,,,,,,,,,,,,,,,,,,50,159208,21,Female,1,2024/02/13_08:53:38,YZ,59.92490152
,,,,,,practice,0,20,1,202,9,C,0,right,1.298350074,1,0,,,,,,,,,,,,,,,,,,,,,1,,,,,,,,,,,,,,,,,,,,,,,,,,,,,,,,,,,,,,,,,,,,,,50,159208,21,Female,1,2024/02/13_08:53:38,YZ,59.92490152
,,,,,,practice,0,20,1,202,10,J,0,right,0.454935227,1,0,,,,,,,,,,,,,,,,,,,,,1,,,,,,,,,,,,,,,,,,,,,,,,,,,,,,,,,,,,,,,,,,,,,,50,159208,21,Female,1,2024/02/13_08:53:38,YZ,59.92490152
,,,,,,practice,0,20,1,202,11,J,1,left,0.440611653,1,0,,,,,,,,,,,,,,,,,,,,,1,,,,,,,,,,,,,,,,,,,,,,,,,,,,,,,,,,,,,,,,,,,,,,50,159208,21,Female,1,2024/02/13_08:53:38,YZ,59.92490152
,,,,,,practice,0,20,1,202,12,X,0,right,0.390738413,1,0,,,,,,,,,,,,,,,,,,,,,1,,,,,,,,,,,,,,,,,,,,,,,,,,,,,,,,,,,,,,,,,,,,,,50,159208,21,Female,1,2024/02/13_08:53:38,YZ,59.92490152
,,,,,,practice,0,20,1,202,13,S,0,right,0.509189231,1,0,,,,,,,,,,,,,,,,,,,,,1,,,,,,,,,,,,,,,,,,,,,,,,,,,,,,,,,,,,,,,,,,,,,,50,159208,21,Female,1,2024/02/13_08:53:38,YZ,59.92490152
,,,,,,practice,0,20,1,202,14,Q,0,right,0.864709746,1,0,,,,,,,,,,,,,,,,,,,,,1,,,,,,,,,,,,,,,,,,,,,,,,,,,,,,,,,,,,,,,,,,,,,,50,159208,21,Female,1,2024/02/13_08:53:38,YZ,59.92490152
,,,,,,practice,0,20,1,202,15,N,0,right,0.548919965,1,0,,,,,,,,,,,,,,,,,,,,,1,,,,,,,,,,,,,,,,,,,,,,,,,,,,,,,,,,,,,,,,,,,,,,50,159208,21,Female,1,2024/02/13_08:53:38,YZ,59.92490152
,,,,,,practice,0,20,1,202,16,N,1,left,0.293156511,1,0,,,,,,,,,,,,,,,,,,,,,1,,,,,,,,,,,,,,,,,,,,,,,,,,,,,,,,,,,,,,,,,,,,,,50,159208,21,Female,1,2024/02/13_08:53:38,YZ,59.92490152
,,,,,,practice,0,20,1,202,17,J,0,right,0.371442169,1,0,,,,,,,,,,,,,,,,,,,,,1,,,,,,,,,,,,,,,,,,,,,,,,,,,,,,,,,,,,,,,,,,,,,,50,159208,21,Female,1,2024/02/13_08:53:38,YZ,59.92490152
,,,,,,practice,0,20,1,202,18,X,0,right,0.543201267,1,0,,,,,,,,,,,,,,,,,,,,,1,,,,,,,,,,,,,,,,,,,,,,,,,,,,,,,,,,,,,,,,,,,,,,50,159208,21,Female,1,2024/02/13_08:53:38,YZ,59.92490152
,,,,,,practice,0,20,1,202,19,N,0,right,0.954268785,1,0,,,,,,,,,,,,,,,,,,,,,1,,,,,,,,,,,,,,,,,,,,,,,,,,,,,,,,,,,,,,,,,,,,,,50,159208,21,Female,1,2024/02/13_08:53:38,YZ,59.92490152
,,,,,,practice,0,20,1,202,20,S,0,right,0.731082171,1,0,,,,,,,,,,,,,,,,,,,,,1,,,,,,,,,,,,,,,,,,,,,,,,,,,,,,,,,,,,,,,,,,,,,,50,159208,21,Female,1,2024/02/13_08:53:38,YZ,59.92490152
,,,,,,practice,0,20,1,202,21,S,1,left,0.434405408,1,0,,,,,,,,,,,,,,,,,,,,,1,,,,,,,,,,,,,,,,,,,,,,,,,,,,,,,,,,,,,,,,,,,,,,50,159208,21,Female,1,2024/02/13_08:53:38,YZ,59.92490152
,,,,,,practice,0,20,1,202,,,,,,,,0.958333333,0.833333333,0,1,0,1,0.668026372,5,0,0,0,0,15,20,6,15,0,,,,1,,,,,,,,,,,,,,,,,,,,,,,,,,,,,,,,,,,,,,,,,,,,,,50,159208,21,Female,1,2024/02/13_08:53:38,YZ,59.92490152
,,,,,,practice,0,10,1,202,1,X,0,right,0.515064734,1,0,,,,,,,,,,,,,,,,,,,,,1,,,,,,,,,,,,,,,,,,,,,,,,,,,,,,,,,,,,,,,,,,,,,,50,159208,21,Female,1,2024/02/13_08:53:38,YZ,59.92490152
,,,,,,practice,0,10,1,202,2,N,0,right,0.653567857,1,0,,,,,,,,,,,,,,,,,,,,,1,,,,,,,,,,,,,,,,,,,,,,,,,,,,,,,,,,,,,,,,,,,,,,50,159208,21,Female,1,2024/02/13_08:53:38,YZ,59.92490152
,,,,,,practice,0,10,1,202,3,J,0,right,0.418560202,1,0,,,,,,,,,,,,,,,,,,,,,1,,,,,,,,,,,,,,,,,,,,,,,,,,,,,,,,,,,,,,,,,,,,,,50,159208,21,Female,1,2024/02/13_08:53:38,YZ,59.92490152
,,,,,,practice,0,10,1,202,4,J,1,right,0.312563708,0,0,,,,,,,,,,,,,,,,,,,,,1,,,,,,,,,,,,,,,,,,,,,,,,,,,,,,,,,,,,,,,,,,,,,,50,159208,21,Female,1,2024/02/13_08:53:38,YZ,59.92490152
,,,,,,practice,0,10,1,202,5,X,0,left,0,0,0,,,,,,,,,,,,,,,,,,,,,1,,,,,,,,,,,,,,,,,,,,,,,,,,,,,,,,,,,,,,,,,,,,,,50,159208,21,Female,1,2024/02/13_08:53:38,YZ,59.92490152
,,,,,,practice,0,10,1,202,6,X,1,left,0.716816081,1,0,,,,,,,,,,,,,,,,,,,,,1,,,,,,,,,,,,,,,,,,,,,,,,,,,,,,,,,,,,,,,,,,,,,,50,159208,21,Female,1,2024/02/13_08:53:38,YZ,59.92490152
,,,,,,practice,0,10,1,202,7,N,0,right,0.403629325,1,0,,,,,,,,,,,,,,,,,,,,,1,,,,,,,,,,,,,,,,,,,,,,,,,,,,,,,,,,,,,,,,,,,,,,50,159208,21,Female,1,2024/02/13_08:53:38,YZ,59.92490152
,,,,,,practice,0,10,1,202,8,C,0,right,0.55833725,1,0,,,,,,,,,,,,,,,,,,,,,1,,,,,,,,,,,,,,,,,,,,,,,,,,,,,,,,,,,,,,,,,,,,,,50,159208,21,Female,1,2024/02/13_08:53:38,YZ,59.92490152
,,,,,,practice,0,10,1,202,9,N,0,right,1.421404382,1,0,,,,,,,,,,,,,,,,,,,,,1,,,,,,,,,,,,,,,,,,,,,,,,,,,,,,,,,,,,,,,,,,,,,,50,159208,21,Female,1,2024/02/13_08:53:38,YZ,59.92490152
,,,,,,practice,0,10,1,202,10,C,0,left,0.532742274,0,0,,,,,,,,,,,,,,,,,,,,,1,,,,,,,,,,,,,,,,,,,,,,,,,,,,,,,,,,,,,,,,,,,,,,50,159208,21,Female,1,2024/02/13_08:53:38,YZ,59.92490152
,,,,,,practice,0,10,1,202,11,C,1,left,0.586632408,1,0,,,,,,,,,,,,,,,,,,,,,1,,,,,,,,,,,,,,,,,,,,,,,,,,,,,,,,,,,,,,,,,,,,,,50,159208,21,Female,1,2024/02/13_08:53:38,YZ,59.92490152
,,,,,,practice,0,10,1,202,12,S,0,right,0.70927573,1,0,,,,,,,,,,,,,,,,,,,,,1,,,,,,,,,,,,,,,,,,,,,,,,,,,,,,,,,,,,,,,,,,,,,,50,159208,21,Female,1,2024/02/13_08:53:38,YZ,59.92490152
,,,,,,practice,0,10,1,202,13,S,1,left,0.436268997,1,0,,,,,,,,,,,,,,,,,,,,,1,,,,,,,,,,,,,,,,,,,,,,,,,,,,,,,,,,,,,,,,,,,,,,50,159208,21,Female,1,2024/02/13_08:53:38,YZ,59.92490152
,,,,,,practice,0,10,1,202,14,N,0,right,0.461684207,1,0,,,,,,,,,,,,,,,,,,,,,1,,,,,,,,,,,,,,,,,,,,,,,,,,,,,,,,,,,,,,,,,,,,,,50,159208,21,Female,1,2024/02/13_08:53:38,YZ,59.92490152
,,,,,,practice,0,10,1,202,15,N,1,left,0.383928723,1,0,,,,,,,,,,,,,,,,,,,,,1,,,,,,,,,,,,,,,,,,,,,,,,,,,,,,,,,,,,,,,,,,,,,,50,159208,21,Female,1,2024/02/13_08:53:38,YZ,59.92490152
,,,,,,practice,0,10,1,202,16,V,0,right,0.404576303,1,0,,,,,,,,,,,,,,,,,,,,,1,,,,,,,,,,,,,,,,,,,,,,,,,,,,,,,,,,,,,,,,,,,,,,50,159208,21,Female,1,2024/02/13_08:53:38,YZ,59.92490152
,,,,,,practice,0,10,1,202,17,V,1,right,0.361527778,0,0,,,,,,,,,,,,,,,,,,,,,1,,,,,,,,,,,,,,,,,,,,,,,,,,,,,,,,,,,,,,,,,,,,,,50,159208,21,Female,1,2024/02/13_08:53:38,YZ,59.92490152
,,,,,,practice,0,10,1,202,18,Q,0,right,0.598692407,1,0,,,,,,,,,,,,,,,,,,,,,1,,,,,,,,,,,,,,,,,,,,,,,,,,,,,,,,,,,,,,,,,,,,,,50,159208,21,Female,1,2024/02/13_08:53:38,YZ,59.92490152
,,,,,,practice,0,10,1,202,19,F,0,right,0.619136446,1,0,,,,,,,,,,,,,,,,,,,,,1,,,,,,,,,,,,,,,,,,,,,,,,,,,,,,,,,,,,,,,,,,,,,,50,159208,21,Female,1,2024/02/13_08:53:38,YZ,59.92490152
,,,,,,practice,0,10,1,202,20,Q,0,right,0.69937145,1,0,,,,,,,,,,,,,,,,,,,,,1,,,,,,,,,,,,,,,,,,,,,,,,,,,,,,,,,,,,,,,,,,,,,,50,159208,21,Female,1,2024/02/13_08:53:38,YZ,59.92490152
,,,,,,practice,0,10,1,202,21,Q,1,left,0.642194154,1,0,,,,,,,,,,,,,,,,,,,,,1,,,,,,,,,,,,,,,,,,,,,,,,,,,,,,,,,,,,,,,,,,,,,,50,159208,21,Female,1,2024/02/13_08:53:38,YZ,59.92490152
,,,,,,practice,0,10,1,202,,,,,,,,0.852040816,0.714285714,0.142857143,0.857142857,0,0.857142857,0.54457021,5,2,0,0,0,12,17,7,14,0,,,,1,,,,,,,,,,,,,,,,,,,,,,,,,,,,,,,,,,,,,,,,,,,,,,50,159208,21,Female,1,2024/02/13_08:53:38,YZ,59.92490152
1,./instructions/inst_prac_3/Slide37.png,right,1.717696321,746.1412105,747.8589068,,,,,,,,,,,,,,,,,,,,,,,,,,,,,,,,,1,,,,,,,,,,,,,,,,,,,,,,,,,,,,,,,,,,,,,,,,,,,,,,50,159208,21,Female,1,2024/02/13_08:53:38,YZ,59.92490152
2,./instructions/inst_prac_3/Slide38.png,right,1.532756559,747.9259496,749.4587061,,,,,,,,,,,,,,,,,,,,,,,,,,,,,,,,,1,,,,,,,,,,,,,,,,,,,,,,,,,,,,,,,,,,,,,,,,,,,,,,50,159208,21,Female,1,2024/02/13_08:53:38,YZ,59.92490152
3,./instructions/inst_prac_3/Slide39.png,right,1.804672196,749.5262619,751.3309341,,,,,,,,,,,,,,,,,,,,,,,,,,,,,,,,,1,,,,,,,,,,,,,,,,,,,,,,,,,,,,,,,,,,,,,,,,,,,,,,50,159208,21,Female,1,2024/02/13_08:53:38,YZ,59.92490152
4,./instructions/inst_prac_3/Slide40.png,right,2.265741672,751.3931543,753.658896,,,,,,,,,,,,,,,,,,,,,,,,,,,,,,,,,1,,,,,,,,,,,,,,,,,,,,,,,,,,,,,,,,,,,,,,,,,,,,,,50,159208,21,Female,1,2024/02/13_08:53:38,YZ,59.92490152
5,./instructions/inst_prac_3/Slide41.png,right,2.789719458,753.7493093,756.5390287,,,,,,,,,,,,,,,,,,,,,,,,,,,,,,,,,1,,,,,,,,,,,,,,,,,,,,,,,,,,,,,,,,,,,,,,,,,,,,,,50,159208,21,Female,1,2024/02/13_08:53:38,YZ,59.92490152
6,./instructions/inst_prac_3/Slide42.png,right,1.816628524,756.594332,758.4109605,,,,,,,,,,,,,,,,,,,,,,,,,,,,,,,,,1,,,,,,,,,,,,,,,,,,,,,,,,,,,,,,,,,,,,,,,,,,,,,,50,159208,21,Female,1,2024/02/13_08:53:38,YZ,59.92490152
7,./instructions/inst_prac_3/Slide43.png,right,0.848649179,758.5384523,759.3871015,,,,,,,,,,,,,,,,,,,,,,,,,,,,,,,,,1,,,,,,,,,,,,,,,,,,,,,,,,,,,,,,,,,,,,,,,,,,,,,,50,159208,21,Female,1,2024/02/13_08:53:38,YZ,59.92490152
8,./instructions/inst_prac_3/Slide44.png,right,0.805810768,759.4291547,760.2349655,,,,,,,,,,,,,,,,,,,,,,,,,,,,,,,,,1,,,,,,,,,,,,,,,,,,,,,,,,,,,,,,,,,,,,,,,,,,,,,,50,159208,21,Female,1,2024/02/13_08:53:38,YZ,59.92490152
,,,,,,practice,0,28,3,788,1,C,0,right,2.414453408,1,0,,,,,,,,,,,,,,,,,,,,,1,,,,,,,,,,,,,,,,,,,,,,,,,,,,,,,,,,,,,,,,,,,,,,50,159208,21,Female,1,2024/02/13_08:53:38,YZ,59.92490152
,,,,,,practice,0,28,3,788,2,J,0,right,0.984894105,1,0,,,,,,,,,,,,,,,,,,,,,1,,,,,,,,,,,,,,,,,,,,,,,,,,,,,,,,,,,,,,,,,,,,,,50,159208,21,Female,1,2024/02/13_08:53:38,YZ,59.92490152
,,,,,,practice,0,28,3,788,3,C,0,right,1.022143239,1,0,,,,,,,,,,,,,,,,,,,,,1,,,,,,,,,,,,,,,,,,,,,,,,,,,,,,,,,,,,,,,,,,,,,,50,159208,21,Female,1,2024/02/13_08:53:38,YZ,59.92490152
,,,,,,practice,0,28,3,788,4,C,1,left,0.540577457,1,0,,,,,,,,,,,,,,,,,,,,,1,,,,,,,,,,,,,,,,,,,,,,,,,,,,,,,,,,,,,,,,,,,,,,50,159208,21,Female,1,2024/02/13_08:53:38,YZ,59.92490152
,,,,,,practice,0,28,3,788,5,S,0,right,1.68869081,1,0,,,,,,,,,,,,,,,,,,,,,1,,,,,,,,,,,,,,,,,,,,,,,,,,,,,,,,,,,,,,,,,,,,,,50,159208,21,Female,1,2024/02/13_08:53:38,YZ,59.92490152
,,,,,,practice,0,28,3,788,6,C,1,left,0.96290608,1,0,,,,,,,,,,,,,,,,,,,,,1,,,,,,,,,,,,,,,,,,,,,,,,,,,,,,,,,,,,,,,,,,,,,,50,159208,21,Female,1,2024/02/13_08:53:38,YZ,59.92490152
,,,,,,practice,0,28,3,788,7,S,0,right,0.951226035,1,0,,,,,,,,,,,,,,,,,,,,,1,,,,,,,,,,,,,,,,,,,,,,,,,,,,,,,,,,,,,,,,,,,,,,50,159208,21,Female,1,2024/02/13_08:53:38,YZ,59.92490152
,,,,,,practice,0,28,3,788,8,X,0,right,0.821804174,1,0,,,,,,,,,,,,,,,,,,,,,1,,,,,,,,,,,,,,,,,,,,,,,,,,,,,,,,,,,,,,,,,,,,,,50,159208,21,Female,1,2024/02/13_08:53:38,YZ,59.92490152
,,,,,,practice,0,28,3,788,9,C,1,right,0.477205837,0,0,,,,,,,,,,,,,,,,,,,,,1,,,,,,,,,,,,,,,,,,,,,,,,,,,,,,,,,,,,,,,,,,,,,,50,159208,21,Female,1,2024/02/13_08:53:38,YZ,59.92490152
,,,,,,practice,0,28,3,788,10,F,0,right,0.594227993,1,0,,,,,,,,,,,,,,,,,,,,,1,,,,,,,,,,,,,,,,,,,,,,,,,,,,,,,,,,,,,,,,,,,,,,50,159208,21,Female,1,2024/02/13_08:53:38,YZ,59.92490152
,,,,,,practice,0,28,3,788,11,N,0,right,0.615584984,1,0,,,,,,,,,,,,,,,,,,,,,1,,,,,,,,,,,,,,,,,,,,,,,,,,,,,,,,,,,,,,,,,,,,,,50,159208,21,Female,1,2024/02/13_08:53:38,YZ,59.92490152
,,,,,,practice,0,28,3,788,12,C,1,left,0.607653659,1,0,,,,,,,,,,,,,,,,,,,,,1,,,,,,,,,,,,,,,,,,,,,,,,,,,,,,,,,,,,,,,,,,,,,,50,159208,21,Female,1,2024/02/13_08:53:38,YZ,59.92490152
,,,,,,practice,0,28,3,788,13,V,0,right,0.742594532,1,0,,,,,,,,,,,,,,,,,,,,,1,,,,,,,,,,,,,,,,,,,,,,,,,,,,,,,,,,,,,,,,,,,,,,50,159208,21,Female,1,2024/02/13_08:53:38,YZ,59.92490152
,,,,,,practice,0,28,3,788,,,,,,,,0.9375,0.75,0,1,0,1,0.955689409,3,0,0,0,0,9,12,4,9,0,,,,1,,,,,,,,,,,,,,,,,,,,,,,,,,,,,,,,,,,,,,,,,,,,,,50,159208,21,Female,1,2024/02/13_08:53:38,YZ,59.92490152
1,./instructions/inst_prac_3_next/Slide49.png,right,1.195411337,786.9434805,788.1388919,,,,,,,,,,,,,,,,,,,,,,,,,,,,,,,,,1,,,,,,,,,,,,,,,,,,,,,,,,,,,,,,,,,,,,,,,,,,,,,,50,159208,21,Female,1,2024/02/13_08:53:38,YZ,59.92490152
,,,,,,practice,0,6,3,202,1,N,0,right,0.945604169,1,0,,,,,,,,,,,,,,,,,,,,,1,,,,,,,,,,,,,,,,,,,,,,,,,,,,,,,,,,,,,,,,,,,,,,50,159208,21,Female,1,2024/02/13_08:53:38,YZ,59.92490152
,,,,,,practice,0,6,3,202,2,X,0,right,0.958397765,1,0,,,,,,,,,,,,,,,,,,,,,1,,,,,,,,,,,,,,,,,,,,,,,,,,,,,,,,,,,,,,,,,,,,,,50,159208,21,Female,1,2024/02/13_08:53:38,YZ,59.92490152
,,,,,,practice,0,6,3,202,3,S,0,right,0.607088737,1,0,,,,,,,,,,,,,,,,,,,,,1,,,,,,,,,,,,,,,,,,,,,,,,,,,,,,,,,,,,,,,,,,,,,,50,159208,21,Female,1,2024/02/13_08:53:38,YZ,59.92490152
,,,,,,practice,0,6,3,202,4,Q,0,right,0.5068962,1,0,,,,,,,,,,,,,,,,,,,,,1,,,,,,,,,,,,,,,,,,,,,,,,,,,,,,,,,,,,,,,,,,,,,,50,159208,21,Female,1,2024/02/13_08:53:38,YZ,59.92490152
,,,,,,practice,0,6,3,202,5,Q,0,right,2.461750361,1,0,,,,,,,,,,,,,,,,,,,,,1,,,,,,,,,,,,,,,,,,,,,,,,,,,,,,,,,,,,,,,,,,,,,,50,159208,21,Female,1,2024/02/13_08:53:38,YZ,59.92490152
,,,,,,practice,0,6,3,202,6,S,1,left,1.031684584,1,0,,,,,,,,,,,,,,,,,,,,,1,,,,,,,,,,,,,,,,,,,,,,,,,,,,,,,,,,,,,,,,,,,,,,50,159208,21,Female,1,2024/02/13_08:53:38,YZ,59.92490152
,,,,,,practice,0,6,3,202,7,J,0,right,0.734308809,1,0,,,,,,,,,,,,,,,,,,,,,1,,,,,,,,,,,,,,,,,,,,,,,,,,,,,,,,,,,,,,,,,,,,,,50,159208,21,Female,1,2024/02/13_08:53:38,YZ,59.92490152
,,,,,,practice,0,6,3,202,8,J,0,right,1.324695983,1,0,,,,,,,,,,,,,,,,,,,,,1,,,,,,,,,,,,,,,,,,,,,,,,,,,,,,,,,,,,,,,,,,,,,,50,159208,21,Female,1,2024/02/13_08:53:38,YZ,59.92490152
,,,,,,practice,0,6,3,202,9,C,0,right,1.198305481,1,0,,,,,,,,,,,,,,,,,,,,,1,,,,,,,,,,,,,,,,,,,,,,,,,,,,,,,,,,,,,,,,,,,,,,50,159208,21,Female,1,2024/02/13_08:53:38,YZ,59.92490152
,,,,,,practice,0,6,3,202,10,J,1,right,1.920865317,0,0,,,,,,,,,,,,,,,,,,,,,1,,,,,,,,,,,,,,,,,,,,,,,,,,,,,,,,,,,,,,,,,,,,,,50,159208,21,Female,1,2024/02/13_08:53:38,YZ,59.92490152
,,,,,,practice,0,6,3,202,11,J,1,right,1.142059351,0,0,,,,,,,,,,,,,,,,,,,,,1,,,,,,,,,,,,,,,,,,,,,,,,,,,,,,,,,,,,,,,,,,,,,,50,159208,21,Female,1,2024/02/13_08:53:38,YZ,59.92490152
,,,,,,practice,0,6,3,202,12,X,0,right,1.521023301,1,0,,,,,,,,,,,,,,,,,,,,,1,,,,,,,,,,,,,,,,,,,,,,,,,,,,,,,,,,,,,,,,,,,,,,50,159208,21,Female,1,2024/02/13_08:53:38,YZ,59.92490152
,,,,,,practice,0,6,3,202,13,Q,0,left,0.751098181,0,0,,,,,,,,,,,,,,,,,,,,,1,,,,,,,,,,,,,,,,,,,,,,,,,,,,,,,,,,,,,,,,,,,,,,50,159208,21,Female,1,2024/02/13_08:53:38,YZ,59.92490152
,,,,,,practice,0,6,3,202,14,J,1,left,0.828924601,1,0,,,,,,,,,,,,,,,,,,,,,1,,,,,,,,,,,,,,,,,,,,,,,,,,,,,,,,,,,,,,,,,,,,,,50,159208,21,Female,1,2024/02/13_08:53:38,YZ,59.92490152
,,,,,,practice,0,6,3,202,15,X,1,right,1.219002304,0,0,,,,,,,,,,,,,,,,,,,,,1,,,,,,,,,,,,,,,,,,,,,,,,,,,,,,,,,,,,,,,,,,,,,,50,159208,21,Female,1,2024/02/13_08:53:38,YZ,59.92490152
,,,,,,practice,0,6,3,202,16,V,0,right,1.429947338,1,0,,,,,,,,,,,,,,,,,,,,,1,,,,,,,,,,,,,,,,,,,,,,,,,,,,,,,,,,,,,,,,,,,,,,50,159208,21,Female,1,2024/02/13_08:53:38,YZ,59.92490152
,,,,,,practice,0,6,3,202,17,J,1,left,2.296332739,1,0,,,,,,,,,,,,,,,,,,,,,1,,,,,,,,,,,,,,,,,,,,,,,,,,,,,,,,,,,,,,,,,,,,,,50,159208,21,Female,1,2024/02/13_08:53:38,YZ,59.92490152
,,,,,,practice,0,6,3,202,18,F,0,right,0.65317929,1,0,,,,,,,,,,,,,,,,,,,,,1,,,,,,,,,,,,,,,,,,,,,,,,,,,,,,,,,,,,,,,,,,,,,,50,159208,21,Female,1,2024/02/13_08:53:38,YZ,59.92490152
,,,,,,practice,0,6,3,202,19,X,0,left,1.251001196,0,0,,,,,,,,,,,,,,,,,,,,,1,,,,,,,,,,,,,,,,,,,,,,,,,,,,,,,,,,,,,,,,,,,,,,50,159208,21,Female,1,2024/02/13_08:53:38,YZ,59.92490152
,,,,,,practice,0,6,3,202,20,S,0,right,0.463994427,1,0,,,,,,,,,,,,,,,,,,,,,1,,,,,,,,,,,,,,,,,,,,,,,,,,,,,,,,,,,,,,,,,,,,,,50,159208,21,Female,1,2024/02/13_08:53:38,YZ,59.92490152
,,,,,,practice,0,6,3,202,21,X,0,left,1.25316198,0,0,,,,,,,,,,,,,,,,,,,,,1,,,,,,,,,,,,,,,,,,,,,,,,,,,,,,,,,,,,,,,,,,,,,,50,159208,21,Female,1,2024/02/13_08:53:38,YZ,59.92490152
,,,,,,practice,0,6,3,202,,,,,,,,0.725,0.5,0.2,0.8,0,0.8,1.166634386,3,3,0,0,0,12,15,6,15,0,,,,1,,,,,,,,,,,,,,,,,,,,,,,,,,,,,,,,,,,,,,,,,,,,,,50,159208,21,Female,1,2024/02/13_08:53:38,YZ,59.92490152
,,,,,,practice,0,6,3,202,1,N,0,right,1.701447242,1,0,,,,,,,,,,,,,,,,,,,,,1,,,,,,,,,,,,,,,,,,,,,,,,,,,,,,,,,,,,,,,,,,,,,,50,159208,21,Female,1,2024/02/13_08:53:38,YZ,59.92490152
,,,,,,practice,0,6,3,202,2,X,0,right,0.471400733,1,0,,,,,,,,,,,,,,,,,,,,,1,,,,,,,,,,,,,,,,,,,,,,,,,,,,,,,,,,,,,,,,,,,,,,50,159208,21,Female,1,2024/02/13_08:53:38,YZ,59.92490152
,,,,,,practice,0,6,3,202,3,S,0,right,0.766833856,1,0,,,,,,,,,,,,,,,,,,,,,1,,,,,,,,,,,,,,,,,,,,,,,,,,,,,,,,,,,,,,,,,,,,,,50,159208,21,Female,1,2024/02/13_08:53:38,YZ,59.92490152
,,,,,,practice,0,6,3,202,4,Q,0,left,1.418547214,0,0,,,,,,,,,,,,,,,,,,,,,1,,,,,,,,,,,,,,,,,,,,,,,,,,,,,,,,,,,,,,,,,,,,,,50,159208,21,Female,1,2024/02/13_08:53:38,YZ,59.92490152
,,,,,,practice,0,6,3,202,5,Q,0,right,1.508791331,1,0,,,,,,,,,,,,,,,,,,,,,1,,,,,,,,,,,,,,,,,,,,,,,,,,,,,,,,,,,,,,,,,,,,,,50,159208,21,Female,1,2024/02/13_08:53:38,YZ,59.92490152
,,,,,,practice,0,6,3,202,6,S,1,left,0.759651324,1,0,,,,,,,,,,,,,,,,,,,,,1,,,,,,,,,,,,,,,,,,,,,,,,,,,,,,,,,,,,,,,,,,,,,,50,159208,21,Female,1,2024/02/13_08:53:38,YZ,59.92490152
,,,,,,practice,0,6,3,202,7,J,0,right,1.834600678,1,0,,,,,,,,,,,,,,,,,,,,,1,,,,,,,,,,,,,,,,,,,,,,,,,,,,,,,,,,,,,,,,,,,,,,50,159208,21,Female,1,2024/02/13_08:53:38,YZ,59.92490152
,,,,,,practice,0,6,3,202,8,J,0,right,1.405450304,1,0,,,,,,,,,,,,,,,,,,,,,1,,,,,,,,,,,,,,,,,,,,,,,,,,,,,,,,,,,,,,,,,,,,,,50,159208,21,Female,1,2024/02/13_08:53:38,YZ,59.92490152
,,,,,,practice,0,6,3,202,9,C,0,right,1.638373246,1,0,,,,,,,,,,,,,,,,,,,,,1,,,,,,,,,,,,,,,,,,,,,,,,,,,,,,,,,,,,,,,,,,,,,,50,159208,21,Female,1,2024/02/13_08:53:38,YZ,59.92490152
,,,,,,practice,0,6,3,202,10,J,1,left,0.757980373,1,0,,,,,,,,,,,,,,,,,,,,,1,,,,,,,,,,,,,,,,,,,,,,,,,,,,,,,,,,,,,,,,,,,,,,50,159208,21,Female,1,2024/02/13_08:53:38,YZ,59.92490152
,,,,,,practice,0,6,3,202,11,J,1,left,1.108396069,1,0,,,,,,,,,,,,,,,,,,,,,1,,,,,,,,,,,,,,,,,,,,,,,,,,,,,,,,,,,,,,,,,,,,,,50,159208,21,Female,1,2024/02/13_08:53:38,YZ,59.92490152
,,,,,,practice,0,6,3,202,12,X,0,right,1.373562422,1,0,,,,,,,,,,,,,,,,,,,,,1,,,,,,,,,,,,,,,,,,,,,,,,,,,,,,,,,,,,,,,,,,,,,,50,159208,21,Female,1,2024/02/13_08:53:38,YZ,59.92490152
,,,,,,practice,0,6,3,202,13,Q,0,right,3.783525485,1,0,,,,,,,,,,,,,,,,,,,,,1,,,,,,,,,,,,,,,,,,,,,,,,,,,,,,,,,,,,,,,,,,,,,,50,159208,21,Female,1,2024/02/13_08:53:38,YZ,59.92490152
,,,,,,practice,0,6,3,202,14,J,1,left,1.686000264,1,0,,,,,,,,,,,,,,,,,,,,,1,,,,,,,,,,,,,,,,,,,,,,,,,,,,,,,,,,,,,,,,,,,,,,50,159208,21,Female,1,2024/02/13_08:53:38,YZ,59.92490152
,,,,,,practice,0,6,3,202,15,X,1,right,1.560875688,0,0,,,,,,,,,,,,,,,,,,,,,1,,,,,,,,,,,,,,,,,,,,,,,,,,,,,,,,,,,,,,,,,,,,,,50,159208,21,Female,1,2024/02/13_08:53:38,YZ,59.92490152
,,,,,,practice,0,6,3,202,16,V,0,right,0.933431181,1,0,,,,,,,,,,,,,,,,,,,,,1,,,,,,,,,,,,,,,,,,,,,,,,,,,,,,,,,,,,,,,,,,,,,,50,159208,21,Female,1,2024/02/13_08:53:38,YZ,59.92490152
,,,,,,practice,0,6,3,202,17,J,1,left,1.115722241,1,0,,,,,,,,,,,,,,,,,,,,,1,,,,,,,,,,,,,,,,,,,,,,,,,,,,,,,,,,,,,,,,,,,,,,50,159208,21,Female,1,2024/02/13_08:53:38,YZ,59.92490152
,,,,,,practice,0,6,3,202,18,F,0,right,1.061112585,1,0,,,,,,,,,,,,,,,,,,,,,1,,,,,,,,,,,,,,,,,,,,,,,,,,,,,,,,,,,,,,,,,,,,,,50,159208,21,Female,1,2024/02/13_08:53:38,YZ,59.92490152
,,,,,,practice,0,6,3,202,19,X,0,left,1.3865579,0,0,,,,,,,,,,,,,,,,,,,,,1,,,,,,,,,,,,,,,,,,,,,,,,,,,,,,,,,,,,,,,,,,,,,,50,159208,21,Female,1,2024/02/13_08:53:38,YZ,59.92490152
,,,,,,practice,0,6,3,202,20,S,0,right,1.741984408,1,0,,,,,,,,,,,,,,,,,,,,,1,,,,,,,,,,,,,,,,,,,,,,,,,,,,,,,,,,,,,,,,,,,,,,50,159208,21,Female,1,2024/02/13_08:53:38,YZ,59.92490152
,,,,,,practice,0,6,3,202,21,X,0,right,0.839532333,1,0,,,,,,,,,,,,,,,,,,,,,1,,,,,,,,,,,,,,,,,,,,,,,,,,,,,,,,,,,,,,,,,,,,,,50,159208,21,Female,1,2024/02/13_08:53:38,YZ,59.92490152
,,,,,,practice,0,6,3,202,,,,,,,,0.902777778,0.833333333,0.133333333,0.866666667,0,0.866666667,1.373989375,5,2,0,0,0,13,18,6,15,0,,,,1,,,,,,,,,,,,,,,,,,,,,,,,,,,,,,,,,,,,,,,,,,,,,,50,159208,21,Female,1,2024/02/13_08:53:38,YZ,59.92490152
1,./instructions/inst_prac_main/Slide51.png,right,1.903839584,868.3151364,870.2189759,,,,,,,,,,,,,,,,,,,,,,,,,,,,,,,,,1,,,,,,,,,,,,,,,,,,,,,,,,,,,,,,,,,,,,,,,,,,,,,,50,159208,21,Female,1,2024/02/13_08:53:38,YZ,59.92490152
2,./instructions/inst_prac_main/Slide52.png,right,9.245147412,870.3018503,879.5469977,,,,,,,,,,,,,,,,,,,,,,,,,,,,,,,,,1,,,,,,,,,,,,,,,,,,,,,,,,,,,,,,,,,,,,,,,,,,,,,,50,159208,21,Female,1,2024/02/13_08:53:38,YZ,59.92490152
3,./instructions/inst_prac_main/Slide53.png,right,4.182667397,879.6442866,883.826954,,,,,,,,,,,,,,,,,,,,,,,,,,,,,,,,,1,,,,,,,,,,,,,,,,,,,,,,,,,,,,,,,,,,,,,,,,,,,,,,50,159208,21,Female,1,2024/02/13_08:53:38,YZ,59.92490152
4,./instructions/inst_prac_main/Slide54.png,right,16.64770257,883.8914089,900.5391115,,,,,,,,,,,,,,,,,,,,,,,,,,,,,,,,,1,,,,,,,,,,,,,,,,,,,,,,,,,,,,,,,,,,,,,,,,,,,,,,50,159208,21,Female,1,2024/02/13_08:53:38,YZ,59.92490152
,,,,,,practice_main,0,1,1,202,1,V,0,None,nan,0,1,,,,,,,,,,,,,,,,,,,,,1,,,,,,,,,,,,,,,,,,,,,,,,,,,,,,,,,,,,,,,,,,,,,,50,159208,21,Female,1,2024/02/13_08:53:38,YZ,59.92490152
,,,,,,practice_main,0,1,1,202,2,V,1,None,nan,0,1,,,,,,,,,,,,,,,,,,,,,1,,,,,,,,,,,,,,,,,,,,,,,,,,,,,,,,,,,,,,,,,,,,,,50,159208,21,Female,1,2024/02/13_08:53:38,YZ,59.92490152
,,,,,,practice_main,0,1,1,202,3,S,0,right,0.377377128,1,0,,,,,,,,,,,,,,,,,,,,,1,,,,,,,,,,,,,,,,,,,,,,,,,,,,,,,,,,,,,,,,,,,,,,50,159208,21,Female,1,2024/02/13_08:53:38,YZ,59.92490152
,,,,,,practice_main,0,1,1,202,4,N,0,right,0.820344627,1,0,,,,,,,,,,,,,,,,,,,,,1,,,,,,,,,,,,,,,,,,,,,,,,,,,,,,,,,,,,,,,,,,,,,,50,159208,21,Female,1,2024/02/13_08:53:38,YZ,59.92490152
,,,,,,practice_main,0,1,1,202,5,N,1,left,0.627809825,1,0,,,,,,,,,,,,,,,,,,,,,1,,,,,,,,,,,,,,,,,,,,,,,,,,,,,,,,,,,,,,,,,,,,,,50,159208,21,Female,1,2024/02/13_08:53:38,YZ,59.92490152
,,,,,,practice_main,0,1,1,202,6,Q,0,right,0.488075704,1,0,,,,,,,,,,,,,,,,,,,,,1,,,,,,,,,,,,,,,,,,,,,,,,,,,,,,,,,,,,,,,,,,,,,,50,159208,21,Female,1,2024/02/13_08:53:38,YZ,59.92490152
,,,,,,practice_main,0,1,1,202,7,V,0,right,0.579089393,1,0,,,,,,,,,,,,,,,,,,,,,1,,,,,,,,,,,,,,,,,,,,,,,,,,,,,,,,,,,,,,,,,,,,,,50,159208,21,Female,1,2024/02/13_08:53:38,YZ,59.92490152
,,,,,,practice_main,0,1,1,202,8,V,1,right,0.424864343,0,0,,,,,,,,,,,,,,,,,,,,,1,,,,,,,,,,,,,,,,,,,,,,,,,,,,,,,,,,,,,,,,,,,,,,50,159208,21,Female,1,2024/02/13_08:53:38,YZ,59.92490152
,,,,,,practice_main,0,1,1,202,9,J,0,right,0.542397456,1,0,,,,,,,,,,,,,,,,,,,,,1,,,,,,,,,,,,,,,,,,,,,,,,,,,,,,,,,,,,,,,,,,,,,,50,159208,21,Female,1,2024/02/13_08:53:38,YZ,59.92490152
,,,,,,practice_main,0,1,1,202,10,S,0,right,0.448758469,1,0,,,,,,,,,,,,,,,,,,,,,1,,,,,,,,,,,,,,,,,,,,,,,,,,,,,,,,,,,,,,,,,,,,,,50,159208,21,Female,1,2024/02/13_08:53:38,YZ,59.92490152
,,,,,,practice_main,0,1,1,202,11,Q,0,right,0.553006008,1,0,,,,,,,,,,,,,,,,,,,,,1,,,,,,,,,,,,,,,,,,,,,,,,,,,,,,,,,,,,,,,,,,,,,,50,159208,21,Female,1,2024/02/13_08:53:38,YZ,59.92490152
,,,,,,practice_main,0,1,1,202,12,Q,1,left,0.565018665,1,0,,,,,,,,,,,,,,,,,,,,,1,,,,,,,,,,,,,,,,,,,,,,,,,,,,,,,,,,,,,,,,,,,,,,50,159208,21,Female,1,2024/02/13_08:53:38,YZ,59.92490152
,,,,,,practice_main,0,1,1,202,13,F,0,right,0.388934651,1,0,,,,,,,,,,,,,,,,,,,,,1,,,,,,,,,,,,,,,,,,,,,,,,,,,,,,,,,,,,,,,,,,,,,,50,159208,21,Female,1,2024/02/13_08:53:38,YZ,59.92490152
,,,,,,practice_main,0,1,1,202,14,F,1,left,0.69075422,1,0,,,,,,,,,,,,,,,,,,,,,1,,,,,,,,,,,,,,,,,,,,,,,,,,,,,,,,,,,,,,,,,,,,,,50,159208,21,Female,1,2024/02/13_08:53:38,YZ,59.92490152
,,,,,,practice_main,0,1,1,202,15,J,0,right,0.222109152,1,0,,,,,,,,,,,,,,,,,,,,,1,,,,,,,,,,,,,,,,,,,,,,,,,,,,,,,,,,,,,,,,,,,,,,50,159208,21,Female,1,2024/02/13_08:53:38,YZ,59.92490152
,,,,,,practice_main,0,1,1,202,16,Q,0,right,0.602239364,1,0,,,,,,,,,,,,,,,,,,,,,1,,,,,,,,,,,,,,,,,,,,,,,,,,,,,,,,,,,,,,,,,,,,,,50,159208,21,Female,1,2024/02/13_08:53:38,YZ,59.92490152
,,,,,,practice_main,0,1,1,202,17,Q,1,left,0.644735805,1,0,,,,,,,,,,,,,,,,,,,,,1,,,,,,,,,,,,,,,,,,,,,,,,,,,,,,,,,,,,,,,,,,,,,,50,159208,21,Female,1,2024/02/13_08:53:38,YZ,59.92490152
,,,,,,practice_main,0,1,1,202,18,X,0,right,0.432043677,1,0,,,,,,,,,,,,,,,,,,,,,1,,,,,,,,,,,,,,,,,,,,,,,,,,,,,,,,,,,,,,,,,,,,,,50,159208,21,Female,1,2024/02/13_08:53:38,YZ,59.92490152
,,,,,,practice_main,0,1,1,202,19,S,0,right,nan,0,1,,,,,,,,,,,,,,,,,,,,,1,,,,,,,,,,,,,,,,,,,,,,,,,,,,,,,,,,,,,,,,,,,,,,50,159208,21,Female,1,2024/02/13_08:53:38,YZ,59.92490152
,,,,,,practice_main,0,1,1,202,20,S,1,left,0.599142196,1,0,,,,,,,,,,,,,,,,,,,,,1,,,,,,,,,,,,,,,,,,,,,,,,,,,,,,,,,,,,,,,,,,,,,,50,159208,21,Female,1,2024/02/13_08:53:38,YZ,59.92490152
,,,,,,practice_main,0,1,1,202,21,J,0,right,0.379726435,1,0,,,,,,,,,,,,,,,,,,,,,1,,,,,,,,,,,,,,,,,,,,,,,,,,,,,,,,,,,,,,,,,,,,,,50,159208,21,Female,1,2024/02/13_08:53:38,YZ,59.92490152
,,,,,,practice_main,0,1,1,202,,,,,,,,0.928571429,0.714285714,0,1,0.142857143,0.857142857,0.521468173,5,0,1,2,3,12,17,7,14,0,,,,1,,,,,,,,,,,,,,,,,,,,,,,,,,,,,,,,,,,,,,,,,,,,,,50,159208,21,Female,1,2024/02/13_08:53:38,YZ,59.92490152
,,,,,240213_092006,PRACTICE,0,1,1,202,,,,,,,,,,,,,,,,,,,,,,,,,,,,1,3,1,1,cue2.png,easy,B,8,1.802098966,0,904.6193784,906.4601995,,,,,,,,,,,,,,,,,,,,,,,,,,,,,,,,,,,50,159208,21,Female,1,2024/02/13_08:53:38,YZ,59.92490152
,,,,,,practice_main,0,2,3,202,1,N,0,right,0.959596451,1,0,,,,,,,,,,,,,,,,,,,,,1,,,,,,,,,,,,,,,,,,,,,,,,,,,,,,,,,,,,,,,,,,,,,,50,159208,21,Female,1,2024/02/13_08:53:38,YZ,59.92490152
,,,,,,practice_main,0,2,3,202,2,S,0,right,nan,0,1,,,,,,,,,,,,,,,,,,,,,1,,,,,,,,,,,,,,,,,,,,,,,,,,,,,,,,,,,,,,,,,,,,,,50,159208,21,Female,1,2024/02/13_08:53:38,YZ,59.92490152
,,,,,,practice_main,0,2,3,202,3,S,0,right,nan,0,1,,,,,,,,,,,,,,,,,,,,,1,,,,,,,,,,,,,,,,,,,,,,,,,,,,,,,,,,,,,,,,,,,,,,50,159208,21,Female,1,2024/02/13_08:53:38,YZ,59.92490152
,,,,,,practice_main,0,2,3,202,4,F,0,right,0.593653187,1,0,,,,,,,,,,,,,,,,,,,,,1,,,,,,,,,,,,,,,,,,,,,,,,,,,,,,,,,,,,,,,,,,,,,,50,159208,21,Female,1,2024/02/13_08:53:38,YZ,59.92490152
,,,,,,practice_main,0,2,3,202,5,X,0,right,0.64607045,1,0,,,,,,,,,,,,,,,,,,,,,1,,,,,,,,,,,,,,,,,,,,,,,,,,,,,,,,,,,,,,,,,,,,,,50,159208,21,Female,1,2024/02/13_08:53:38,YZ,59.92490152
,,,,,,practice_main,0,2,3,202,6,X,0,right,0.763542193,1,0,,,,,,,,,,,,,,,,,,,,,1,,,,,,,,,,,,,,,,,,,,,,,,,,,,,,,,,,,,,,,,,,,,,,50,159208,21,Female,1,2024/02/13_08:53:38,YZ,59.92490152
,,,,,,practice_main,0,2,3,202,7,F,1,right,0.874789965,0,0,,,,,,,,,,,,,,,,,,,,,1,,,,,,,,,,,,,,,,,,,,,,,,,,,,,,,,,,,,,,,,,,,,,,50,159208,21,Female,1,2024/02/13_08:53:38,YZ,59.92490152
,,,,,,practice_main,0,2,3,202,8,C,0,right,nan,0,1,,,,,,,,,,,,,,,,,,,,,1,,,,,,,,,,,,,,,,,,,,,,,,,,,,,,,,,,,,,,,,,,,,,,50,159208,21,Female,1,2024/02/13_08:53:38,YZ,59.92490152
,,,,,,practice_main,0,2,3,202,9,N,0,right,0,1,0,,,,,,,,,,,,,,,,,,,,,1,,,,,,,,,,,,,,,,,,,,,,,,,,,,,,,,,,,,,,,,,,,,,,50,159208,21,Female,1,2024/02/13_08:53:38,YZ,59.92490152
,,,,,,practice_main,0,2,3,202,10,F,1,left,0.994354016,1,0,,,,,,,,,,,,,,,,,,,,,1,,,,,,,,,,,,,,,,,,,,,,,,,,,,,,,,,,,,,,,,,,,,,,50,159208,21,Female,1,2024/02/13_08:53:38,YZ,59.92490152
,,,,,,practice_main,0,2,3,202,11,Q,0,right,0.9927356,1,0,,,,,,,,,,,,,,,,,,,,,1,,,,,,,,,,,,,,,,,,,,,,,,,,,,,,,,,,,,,,,,,,,,,,50,159208,21,Female,1,2024/02/13_08:53:38,YZ,59.92490152
,,,,,,practice_main,0,2,3,202,12,N,1,right,nan,0,1,,,,,,,,,,,,,,,,,,,,,1,,,,,,,,,,,,,,,,,,,,,,,,,,,,,,,,,,,,,,,,,,,,,,50,159208,21,Female,1,2024/02/13_08:53:38,YZ,59.92490152
,,,,,,practice_main,0,2,3,202,13,S,0,right,0.661223422,1,0,,,,,,,,,,,,,,,,,,,,,1,,,,,,,,,,,,,,,,,,,,,,,,,,,,,,,,,,,,,,,,,,,,,,50,159208,21,Female,1,2024/02/13_08:53:38,YZ,59.92490152
,,,,,,practice_main,0,2,3,202,14,Q,1,right,nan,0,1,,,,,,,,,,,,,,,,,,,,,1,,,,,,,,,,,,,,,,,,,,,,,,,,,,,,,,,,,,,,,,,,,,,,50,159208,21,Female,1,2024/02/13_08:53:38,YZ,59.92490152
,,,,,,practice_main,0,2,3,202,15,S,0,left,0.810233986,0,0,,,,,,,,,,,,,,,,,,,,,1,,,,,,,,,,,,,,,,,,,,,,,,,,,,,,,,,,,,,,,,,,,,,,50,159208,21,Female,1,2024/02/13_08:53:38,YZ,59.92490152
,,,,,,practice_main,0,2,3,202,16,N,0,right,0.431140188,1,0,,,,,,,,,,,,,,,,,,,,,1,,,,,,,,,,,,,,,,,,,,,,,,,,,,,,,,,,,,,,,,,,,,,,50,159208,21,Female,1,2024/02/13_08:53:38,YZ,59.92490152
,,,,,,practice_main,0,2,3,202,17,N,0,right,0.455107529,1,0,,,,,,,,,,,,,,,,,,,,,1,,,,,,,,,,,,,,,,,,,,,,,,,,,,,,,,,,,,,,,,,,,,,,50,159208,21,Female,1,2024/02/13_08:53:38,YZ,59.92490152
,,,,,,practice_main,0,2,3,202,18,S,1,right,0.553457801,0,0,,,,,,,,,,,,,,,,,,,,,1,,,,,,,,,,,,,,,,,,,,,,,,,,,,,,,,,,,,,,,,,,,,,,50,159208,21,Female,1,2024/02/13_08:53:38,YZ,59.92490152
,,,,,,practice_main,0,2,3,202,19,J,0,right,0.932043876,1,0,,,,,,,,,,,,,,,,,,,,,1,,,,,,,,,,,,,,,,,,,,,,,,,,,,,,,,,,,,,,,,,,,,,,50,159208,21,Female,1,2024/02/13_08:53:38,YZ,59.92490152
,,,,,,practice_main,0,2,3,202,20,J,0,right,0.828261681,1,0,,,,,,,,,,,,,,,,,,,,,1,,,,,,,,,,,,,,,,,,,,,,,,,,,,,,,,,,,,,,,,,,,,,,50,159208,21,Female,1,2024/02/13_08:53:38,YZ,59.92490152
,,,,,,practice_main,0,2,3,202,21,S,1,left,0.644302713,1,0,,,,,,,,,,,,,,,,,,,,,1,,,,,,,,,,,,,,,,,,,,,,,,,,,,,,,,,,,,,,,,,,,,,,50,159208,21,Female,1,2024/02/13_08:53:38,YZ,59.92490152
,,,,,,practice_main,0,2,3,202,,,,,,,,0.766666667,0.333333333,0.066666667,0.916666667,0.238095238,0.695238095,0.696282066,2,1,2,3,5,11,13,6,15,0,,,,1,,,,,,,,,,,,,,,,,,,,,,,,,,,,,,,,,,,,,,,,,,,,,,50,159208,21,Female,1,2024/02/13_08:53:38,YZ,59.92490152
,,,,,240213_092044,PRACTICE,0,2,3,202,,,,,,,,,,,,,,,,,,,,,,,,,,,,1,14,2,2,cue1.png,hard,B,20,1.405518442,0,939.1817694,940.6022545,,,,,,,,,,,,,,,,,,,,,,,,,,,,,,,,,,,50,159208,21,Female,1,2024/02/13_08:53:38,YZ,59.92490152
,,,,,,practice_main,0,3,1,202,1,N,0,right,0.696237987,1,0,,,,,,,,,,,,,,,,,,,,,1,,,,,,,,,,,,,,,,,,,,,,,,,,,,,,,,,,,,,,,,,,,,,,50,159208,21,Female,1,2024/02/13_08:53:38,YZ,59.92490152
,,,,,,practice_main,0,3,1,202,2,N,1,left,0.431538216,1,0,,,,,,,,,,,,,,,,,,,,,1,,,,,,,,,,,,,,,,,,,,,,,,,,,,,,,,,,,,,,,,,,,,,,50,159208,21,Female,1,2024/02/13_08:53:38,YZ,59.92490152
,,,,,,practice_main,0,3,1,202,3,F,0,right,0.39975018,1,0,,,,,,,,,,,,,,,,,,,,,1,,,,,,,,,,,,,,,,,,,,,,,,,,,,,,,,,,,,,,,,,,,,,,50,159208,21,Female,1,2024/02/13_08:53:38,YZ,59.92490152
,,,,,,practice_main,0,3,1,202,4,C,0,right,0.547609403,1,0,,,,,,,,,,,,,,,,,,,,,1,,,,,,,,,,,,,,,,,,,,,,,,,,,,,,,,,,,,,,,,,,,,,,50,159208,21,Female,1,2024/02/13_08:53:38,YZ,59.92490152
,,,,,,practice_main,0,3,1,202,5,Q,0,right,0.458913598,1,0,,,,,,,,,,,,,,,,,,,,,1,,,,,,,,,,,,,,,,,,,,,,,,,,,,,,,,,,,,,,,,,,,,,,50,159208,21,Female,1,2024/02/13_08:53:38,YZ,59.92490152
,,,,,,practice_main,0,3,1,202,6,Q,1,left,0.560898216,1,0,,,,,,,,,,,,,,,,,,,,,1,,,,,,,,,,,,,,,,,,,,,,,,,,,,,,,,,,,,,,,,,,,,,,50,159208,21,Female,1,2024/02/13_08:53:38,YZ,59.92490152
,,,,,,practice_main,0,3,1,202,7,V,0,right,0.51350079,1,0,,,,,,,,,,,,,,,,,,,,,1,,,,,,,,,,,,,,,,,,,,,,,,,,,,,,,,,,,,,,,,,,,,,,50,159208,21,Female,1,2024/02/13_08:53:38,YZ,59.92490152
,,,,,,practice_main,0,3,1,202,8,X,0,right,0.459949505,1,0,,,,,,,,,,,,,,,,,,,,,1,,,,,,,,,,,,,,,,,,,,,,,,,,,,,,,,,,,,,,,,,,,,,,50,159208,21,Female,1,2024/02/13_08:53:38,YZ,59.92490152
,,,,,,practice_main,0,3,1,202,9,X,1,left,0.483068122,1,0,,,,,,,,,,,,,,,,,,,,,1,,,,,,,,,,,,,,,,,,,,,,,,,,,,,,,,,,,,,,,,,,,,,,50,159208,21,Female,1,2024/02/13_08:53:38,YZ,59.92490152
,,,,,,practice_main,0,3,1,202,10,C,0,right,0.357686339,1,0,,,,,,,,,,,,,,,,,,,,,1,,,,,,,,,,,,,,,,,,,,,,,,,,,,,,,,,,,,,,,,,,,,,,50,159208,21,Female,1,2024/02/13_08:53:38,YZ,59.92490152
,,,,,,practice_main,0,3,1,202,11,F,0,right,0.595006187,1,0,,,,,,,,,,,,,,,,,,,,,1,,,,,,,,,,,,,,,,,,,,,,,,,,,,,,,,,,,,,,,,,,,,,,50,159208,21,Female,1,2024/02/13_08:53:38,YZ,59.92490152
,,,,,,practice_main,0,3,1,202,12,V,0,right,0.607997434,1,0,,,,,,,,,,,,,,,,,,,,,1,,,,,,,,,,,,,,,,,,,,,,,,,,,,,,,,,,,,,,,,,,,,,,50,159208,21,Female,1,2024/02/13_08:53:38,YZ,59.92490152
,,,,,,practice_main,0,3,1,202,13,V,1,left,0.466618889,1,0,,,,,,,,,,,,,,,,,,,,,1,,,,,,,,,,,,,,,,,,,,,,,,,,,,,,,,,,,,,,,,,,,,,,50,159208,21,Female,1,2024/02/13_08:53:38,YZ,59.92490152
,,,,,,practice_main,0,3,1,202,14,S,0,right,0.36863253,1,0,,,,,,,,,,,,,,,,,,,,,1,,,,,,,,,,,,,,,,,,,,,,,,,,,,,,,,,,,,,,,,,,,,,,50,159208,21,Female,1,2024/02/13_08:53:38,YZ,59.92490152
,,,,,,practice_main,0,3,1,202,15,Q,0,right,0.390355732,1,0,,,,,,,,,,,,,,,,,,,,,1,,,,,,,,,,,,,,,,,,,,,,,,,,,,,,,,,,,,,,,,,,,,,,50,159208,21,Female,1,2024/02/13_08:53:38,YZ,59.92490152
,,,,,,practice_main,0,3,1,202,16,Q,1,right,0.383657783,0,0,,,,,,,,,,,,,,,,,,,,,1,,,,,,,,,,,,,,,,,,,,,,,,,,,,,,,,,,,,,,,,,,,,,,50,159208,21,Female,1,2024/02/13_08:53:38,YZ,59.92490152
,,,,,,practice_main,0,3,1,202,17,V,0,right,0.598854219,1,0,,,,,,,,,,,,,,,,,,,,,1,,,,,,,,,,,,,,,,,,,,,,,,,,,,,,,,,,,,,,,,,,,,,,50,159208,21,Female,1,2024/02/13_08:53:38,YZ,59.92490152
,,,,,,practice_main,0,3,1,202,18,J,0,right,0.594472695,1,0,,,,,,,,,,,,,,,,,,,,,1,,,,,,,,,,,,,,,,,,,,,,,,,,,,,,,,,,,,,,,,,,,,,,50,159208,21,Female,1,2024/02/13_08:53:38,YZ,59.92490152
,,,,,,practice_main,0,3,1,202,19,J,1,right,nan,0,1,,,,,,,,,,,,,,,,,,,,,1,,,,,,,,,,,,,,,,,,,,,,,,,,,,,,,,,,,,,,,,,,,,,,50,159208,21,Female,1,2024/02/13_08:53:38,YZ,59.92490152
,,,,,,practice_main,0,3,1,202,20,F,0,right,0.465965962,1,0,,,,,,,,,,,,,,,,,,,,,1,,,,,,,,,,,,,,,,,,,,,,,,,,,,,,,,,,,,,,,,,,,,,,50,159208,21,Female,1,2024/02/13_08:53:38,YZ,59.92490152
,,,,,,practice_main,0,3,1,202,21,F,1,left,0.552115998,1,0,,,,,,,,,,,,,,,,,,,,,1,,,,,,,,,,,,,,,,,,,,,,,,,,,,,,,,,,,,,,,,,,,,,,50,159208,21,Female,1,2024/02/13_08:53:38,YZ,59.92490152
,,,,,,practice_main,0,3,1,202,,,,,,,,0.928571429,0.714285714,0,1,0.047619048,0.952380952,0.496641489,5,0,1,0,1,14,19,7,14,0,,,,1,,,,,,,,,,,,,,,,,,,,,,,,,,,,,,,,,,,,,,,,,,,,,,50,159208,21,Female,1,2024/02/13_08:53:38,YZ,59.92490152
,,,,,240213_092117,PRACTICE,0,3,1,202,,,,,,,,,,,,,,,,,,,,,,,,,,,,1,21,3,3,cue2.png,easy,B,7,1.501500484,0,977.1058892,978.6290057,,,,,,,,,,,,,,,,,,,,,,,,,,,,,,,,,,,50,159208,21,Female,1,2024/02/13_08:53:38,YZ,59.92490152
1,./instructions/inst_prac_end/Slide56.png,right,3.37765088,1008.481287,1011.858937,,,,,,,,,,,,,,,,,,,,,,,,,,,,,,,,,1,,,,,,,,,,,,,,,,,,,,,,,,,,,,,,,,,,,,,,,,,,,,,,50,159208,21,Female,1,2024/02/13_08:53:38,YZ,59.92490152
1,./instructions/inst_test/Slide57.png,right,71.47528617,1011.935822,1083.411108,,,,,,,,,,,,,,,,,,,,,,,,,,,,,,,,,1,,,,,,,,,,,,,,,,,,,,,,,,,,,,,,,,,,,,,,,,,,,,,,50,159208,21,Female,1,2024/02/13_08:53:38,YZ,59.92490152
,,,,,,test,1,1,1,202,1,F,0,right,0.709667328,1,0,,,,,,,,,,,,,,,,,,,,,1,,,,,,,,,,,,,,,,,,,,,,,,,,,,,,,,,,,,,,,,,,,,,,50,159208,21,Female,1,2024/02/13_08:53:38,YZ,59.92490152
