Instruction,Stimulus,Key,RT,START,END,Phase,Block,TrialN,NbackLevel,ISI,LetterN,Letter,Letter_isSame,Letter_Resp,Letter_RT,Letter_Accuracy,Letter_Timeout,Trial_A_measure,Trial_HR,Trial_FAR,Trial_CDR,Trial_MSR,Trial_ACC,Trial_RT,Trial_HitsCount,Trial_FAsCount,Trial_SameNoRespCount,Trial_DiffNoRespCount,Trial_NoRespCount,Trial_CDsCount,Trial_CorrectRespCount,Trial_SameLetterCount,Trial_DiffLetterCount,Trial_InvalidLetterCount,TrialCountCali,CaliEnd_A_measure,ISI_calibrated,PID,SONA,Age,Gender,Run,TIME,EXPERIMENTER,frameRate
1,./instructions/inst_begin/Slide2.png,right,10.35536877,2.223682059,12.57905083,,,,,,,,,,,,,,,,,,,,,,,,,,,,,,,,,57,158257,21,Female,1,2024/02/14_14:33:36,YZ,60.14239229
2,./instructions/inst_begin/Slide3.png,right,19.9409779,12.64623424,32.58721214,,,,,,,,,,,,,,,,,,,,,,,,,,,,,,,,,57,158257,21,Female,1,2024/02/14_14:33:36,YZ,60.14239229
3,./instructions/inst_begin/Slide4.png,right,14.82127509,32.69405795,47.51533304,,,,,,,,,,,,,,,,,,,,,,,,,,,,,,,,,57,158257,21,Female,1,2024/02/14_14:33:36,YZ,60.14239229
1,./instructions/inst_prac_2/Slide6.png,right,29.35771769,47.64561319,77.00333088,,,,,,,,,,,,,,,,,,,,,,,,,,,,,,,,,57,158257,21,Female,1,2024/02/14_14:33:36,YZ,60.14239229
2,./instructions/inst_prac_2/Slide7.png,right,19.08577447,77.09351688,96.17929134,,,,,,,,,,,,,,,,,,,,,,,,,,,,,,,,,57,158257,21,Female,1,2024/02/14_14:33:36,YZ,60.14239229
3,./instructions/inst_prac_2/Slide8.png,right,25.6377409,96.27745043,121.9151913,,,,,,,,,,,,,,,,,,,,,,,,,,,,,,,,,57,158257,21,Female,1,2024/02/14_14:33:36,YZ,60.14239229
4,./instructions/inst_prac_2/Slide9.png,right,14.76114388,121.9783161,136.73946,,,,,,,,,,,,,,,,,,,,,,,,,,,,,,,,,57,158257,21,Female,1,2024/02/14_14:33:36,YZ,60.14239229
5,./instructions/inst_prac_2/Slide10.png,right,3.727233811,136.8039125,140.5311463,,,,,,,,,,,,,,,,,,,,,,,,,,,,,,,,,57,158257,21,Female,1,2024/02/14_14:33:36,YZ,60.14239229
6,./instructions/inst_prac_2/Slide11.png,right,2.184454142,140.5868911,142.7713452,,,,,,,,,,,,,,,,,,,,,,,,,,,,,,,,,57,158257,21,Female,1,2024/02/14_14:33:36,YZ,60.14239229
7,./instructions/inst_prac_2/Slide12.png,right,1.438247444,142.8289433,144.2671907,,,,,,,,,,,,,,,,,,,,,,,,,,,,,,,,,57,158257,21,Female,1,2024/02/14_14:33:36,YZ,60.14239229
8,./instructions/inst_prac_2/Slide13.png,right,1.108423837,144.6066926,145.7151165,,,,,,,,,,,,,,,,,,,,,,,,,,,,,,,,,57,158257,21,Female,1,2024/02/14_14:33:36,YZ,60.14239229
9,./instructions/inst_prac_2/Slide14.png,right,13.73604253,145.7632569,159.4992994,,,,,,,,,,,,,,,,,,,,,,,,,,,,,,,,,57,158257,21,Female,1,2024/02/14_14:33:36,YZ,60.14239229
10,./instructions/inst_prac_2/Slide15.png,right,20.61715906,159.5859593,180.2031184,,,,,,,,,,,,,,,,,,,,,,,,,,,,,,,,,57,158257,21,Female,1,2024/02/14_14:33:36,YZ,60.14239229
,,,,,,practice,0,27,2,2583,1,C,0,right,2.43215326,1,0,,,,,,,,,,,,,,,,,,,,,57,158257,21,Female,1,2024/02/14_14:33:36,YZ,60.14239229
,,,,,,practice,0,27,2,2583,2,X,0,right,1.22511159,1,0,,,,,,,,,,,,,,,,,,,,,57,158257,21,Female,1,2024/02/14_14:33:36,YZ,60.14239229
,,,,,,practice,0,27,2,2583,3,C,1,left,0.780313712,1,0,,,,,,,,,,,,,,,,,,,,,57,158257,21,Female,1,2024/02/14_14:33:36,YZ,60.14239229
,,,,,,practice,0,27,2,2583,4,F,0,right,0.812946746,1,0,,,,,,,,,,,,,,,,,,,,,57,158257,21,Female,1,2024/02/14_14:33:36,YZ,60.14239229
,,,,,,practice,0,27,2,2583,5,Q,0,right,0.859261805,1,0,,,,,,,,,,,,,,,,,,,,,57,158257,21,Female,1,2024/02/14_14:33:36,YZ,60.14239229
,,,,,,practice,0,27,2,2583,6,F,1,left,0.747845155,1,0,,,,,,,,,,,,,,,,,,,,,57,158257,21,Female,1,2024/02/14_14:33:36,YZ,60.14239229
,,,,,,practice,0,27,2,2583,,,,,,,,1,1,0,1,0,1,1.142938711,2,0,0,0,0,4,6,2,4,0,,,,57,158257,21,Female,1,2024/02/14_14:33:36,YZ,60.14239229
1,./instructions/inst_to_cali/Slide20.png,right,6.623405812,193.6601628,200.2835686,,,,,,,,,,,,,,,,,,,,,,,,,,,,,,,,,57,158257,21,Female,1,2024/02/14_14:33:36,YZ,60.14239229
1,./instructions/inst_cali/Slide22.png,right,25.06402018,200.3871437,225.4511639,,,,,,,,,,,,,,,,,,,,,,,,,,,,,,,,,57,158257,21,Female,1,2024/02/14_14:33:36,YZ,60.14239229
,,,,,,calibration,0,19,2,583,1,C,0,right,0.928310572,1,0,,,,,,,,,,,,,,,,,,,,,57,158257,21,Female,1,2024/02/14_14:33:36,YZ,60.14239229
,,,,,,calibration,0,19,2,583,2,F,0,right,0.694822603,1,0,,,,,,,,,,,,,,,,,,,,,57,158257,21,Female,1,2024/02/14_14:33:36,YZ,60.14239229
,,,,,,calibration,0,19,2,583,3,V,0,right,0.445801784,1,0,,,,,,,,,,,,,,,,,,,,,57,158257,21,Female,1,2024/02/14_14:33:36,YZ,60.14239229
,,,,,,calibration,0,19,2,583,4,N,0,right,0.51745576,1,0,,,,,,,,,,,,,,,,,,,,,57,158257,21,Female,1,2024/02/14_14:33:36,YZ,60.14239229
,,,,,,calibration,0,19,2,583,5,Q,0,right,0.473261948,1,0,,,,,,,,,,,,,,,,,,,,,57,158257,21,Female,1,2024/02/14_14:33:36,YZ,60.14239229
,,,,,,calibration,0,19,2,583,6,N,1,left,0.728330135,1,0,,,,,,,,,,,,,,,,,,,,,57,158257,21,Female,1,2024/02/14_14:33:36,YZ,60.14239229
,,,,,,calibration,0,19,2,583,7,Q,1,left,0.87858635,1,0,,,,,,,,,,,,,,,,,,,,,57,158257,21,Female,1,2024/02/14_14:33:36,YZ,60.14239229
,,,,,,calibration,0,19,2,583,8,S,0,right,0.474880744,1,0,,,,,,,,,,,,,,,,,,,,,57,158257,21,Female,1,2024/02/14_14:33:36,YZ,60.14239229
,,,,,,calibration,0,19,2,583,9,X,0,right,0.711906815,1,0,,,,,,,,,,,,,,,,,,,,,57,158257,21,Female,1,2024/02/14_14:33:36,YZ,60.14239229
,,,,,,calibration,0,19,2,583,10,V,0,right,0.911887766,1,0,,,,,,,,,,,,,,,,,,,,,57,158257,21,Female,1,2024/02/14_14:33:36,YZ,60.14239229
,,,,,,calibration,0,19,2,583,11,F,0,right,0.99600811,1,0,,,,,,,,,,,,,,,,,,,,,57,158257,21,Female,1,2024/02/14_14:33:36,YZ,60.14239229
,,,,,,calibration,0,19,2,583,12,V,1,left,0.545627047,1,0,,,,,,,,,,,,,,,,,,,,,57,158257,21,Female,1,2024/02/14_14:33:36,YZ,60.14239229
,,,,,,calibration,0,19,2,583,13,C,0,right,0.577986286,1,0,,,,,,,,,,,,,,,,,,,,,57,158257,21,Female,1,2024/02/14_14:33:36,YZ,60.14239229
,,,,,,calibration,0,19,2,583,14,V,1,left,0.517340616,1,0,,,,,,,,,,,,,,,,,,,,,57,158257,21,Female,1,2024/02/14_14:33:36,YZ,60.14239229
,,,,,,calibration,0,19,2,583,15,N,0,right,0.744649643,1,0,,,,,,,,,,,,,,,,,,,,,57,158257,21,Female,1,2024/02/14_14:33:36,YZ,60.14239229
,,,,,,calibration,0,19,2,583,,,,,,,,1,1,0,1,0,1,0.676457079,4,0,0,0,0,11,15,4,11,0,,,,57,158257,21,Female,1,2024/02/14_14:33:36,YZ,60.14239229
,,,,,,Calibration,0,,2,583,,,,,,,,,,,,,,,,,,,,,,,,,1,,,57,158257,21,Female,1,2024/02/14_14:33:36,YZ,60.14239229
,,,,,,calibration,0,8,2,500,1,C,0,right,0.711753356,1,0,,,,,,,,,,,,,,,,,,,,,57,158257,21,Female,1,2024/02/14_14:33:36,YZ,60.14239229
,,,,,,calibration,0,8,2,500,2,X,0,right,0.64522886,1,0,,,,,,,,,,,,,,,,,,,,,57,158257,21,Female,1,2024/02/14_14:33:36,YZ,60.14239229
,,,,,,calibration,0,8,2,500,3,V,0,right,0.763022907,1,0,,,,,,,,,,,,,,,,,,,,,57,158257,21,Female,1,2024/02/14_14:33:36,YZ,60.14239229
,,,,,,calibration,0,8,2,500,4,Q,0,right,0.611819517,1,0,,,,,,,,,,,,,,,,,,,,,57,158257,21,Female,1,2024/02/14_14:33:36,YZ,60.14239229
,,,,,,calibration,0,8,2,500,5,V,1,left,0.695046978,1,0,,,,,,,,,,,,,,,,,,,,,57,158257,21,Female,1,2024/02/14_14:33:36,YZ,60.14239229
,,,,,,calibration,0,8,2,500,6,X,0,right,0.9618421,1,0,,,,,,,,,,,,,,,,,,,,,57,158257,21,Female,1,2024/02/14_14:33:36,YZ,60.14239229
,,,,,,calibration,0,8,2,500,7,V,1,left,0.630297154,1,0,,,,,,,,,,,,,,,,,,,,,57,158257,21,Female,1,2024/02/14_14:33:36,YZ,60.14239229
,,,,,,calibration,0,8,2,500,8,Q,0,right,0.877942095,1,0,,,,,,,,,,,,,,,,,,,,,57,158257,21,Female,1,2024/02/14_14:33:36,YZ,60.14239229
,,,,,,calibration,0,8,2,500,9,V,1,left,0.59523099,1,0,,,,,,,,,,,,,,,,,,,,,57,158257,21,Female,1,2024/02/14_14:33:36,YZ,60.14239229
,,,,,,calibration,0,8,2,500,10,S,0,right,0.484466124,1,0,,,,,,,,,,,,,,,,,,,,,57,158257,21,Female,1,2024/02/14_14:33:36,YZ,60.14239229
,,,,,,calibration,0,8,2,500,11,N,0,right,0.597542915,1,0,,,,,,,,,,,,,,,,,,,,,57,158257,21,Female,1,2024/02/14_14:33:36,YZ,60.14239229
,,,,,,calibration,0,8,2,500,12,S,1,left,0.595363804,1,0,,,,,,,,,,,,,,,,,,,,,57,158257,21,Female,1,2024/02/14_14:33:36,YZ,60.14239229
,,,,,,calibration,0,8,2,500,13,Q,0,right,0.452474983,1,0,,,,,,,,,,,,,,,,,,,,,57,158257,21,Female,1,2024/02/14_14:33:36,YZ,60.14239229
,,,,,,calibration,0,8,2,500,14,J,0,right,0.594712396,1,0,,,,,,,,,,,,,,,,,,,,,57,158257,21,Female,1,2024/02/14_14:33:36,YZ,60.14239229
,,,,,,calibration,0,8,2,500,15,Q,1,left,0.678071843,1,0,,,,,,,,,,,,,,,,,,,,,57,158257,21,Female,1,2024/02/14_14:33:36,YZ,60.14239229
,,,,,,calibration,0,8,2,500,16,N,0,right,0.394009588,1,0,,,,,,,,,,,,,,,,,,,,,57,158257,21,Female,1,2024/02/14_14:33:36,YZ,60.14239229
,,,,,,calibration,0,8,2,500,,,,,,,,1,1,0,1,0,1,0.643051601,5,0,0,0,0,11,16,5,11,0,,,,57,158257,21,Female,1,2024/02/14_14:33:36,YZ,60.14239229
,,,,,,Calibration,0,,2,500,,,,,,,,,,,,,,,,,,,,,,,,,2,,,57,158257,21,Female,1,2024/02/14_14:33:36,YZ,60.14239229
,,,,,,calibration,0,36,2,426,1,J,0,right,0.661112399,1,0,,,,,,,,,,,,,,,,,,,,,57,158257,21,Female,1,2024/02/14_14:33:36,YZ,60.14239229
,,,,,,calibration,0,36,2,426,2,F,0,right,0.561063737,1,0,,,,,,,,,,,,,,,,,,,,,57,158257,21,Female,1,2024/02/14_14:33:36,YZ,60.14239229
,,,,,,calibration,0,36,2,426,3,S,0,right,0.470112493,1,0,,,,,,,,,,,,,,,,,,,,,57,158257,21,Female,1,2024/02/14_14:33:36,YZ,60.14239229
,,,,,,calibration,0,36,2,426,4,F,1,left,0.469224245,1,0,,,,,,,,,,,,,,,,,,,,,57,158257,21,Female,1,2024/02/14_14:33:36,YZ,60.14239229
,,,,,,calibration,0,36,2,426,5,V,0,right,0.396215237,1,0,,,,,,,,,,,,,,,,,,,,,57,158257,21,Female,1,2024/02/14_14:33:36,YZ,60.14239229
,,,,,,calibration,0,36,2,426,6,C,0,right,0.761701963,1,0,,,,,,,,,,,,,,,,,,,,,57,158257,21,Female,1,2024/02/14_14:33:36,YZ,60.14239229
,,,,,,calibration,0,36,2,426,7,J,0,right,0.91170407,1,0,,,,,,,,,,,,,,,,,,,,,57,158257,21,Female,1,2024/02/14_14:33:36,YZ,60.14239229
,,,,,,calibration,0,36,2,426,8,Q,0,right,0.795450647,1,0,,,,,,,,,,,,,,,,,,,,,57,158257,21,Female,1,2024/02/14_14:33:36,YZ,60.14239229
,,,,,,calibration,0,36,2,426,9,V,0,left,0.405610364,0,0,,,,,,,,,,,,,,,,,,,,,57,158257,21,Female,1,2024/02/14_14:33:36,YZ,60.14239229
,,,,,,calibration,0,36,2,426,10,X,0,right,0.83047395,1,0,,,,,,,,,,,,,,,,,,,,,57,158257,21,Female,1,2024/02/14_14:33:36,YZ,60.14239229
,,,,,,calibration,0,36,2,426,11,V,1,left,0.628559789,1,0,,,,,,,,,,,,,,,,,,,,,57,158257,21,Female,1,2024/02/14_14:33:36,YZ,60.14239229
,,,,,,calibration,0,36,2,426,12,S,0,right,0.527535869,1,0,,,,,,,,,,,,,,,,,,,,,57,158257,21,Female,1,2024/02/14_14:33:36,YZ,60.14239229
,,,,,,calibration,0,36,2,426,13,V,1,left,0.527518112,1,0,,,,,,,,,,,,,,,,,,,,,57,158257,21,Female,1,2024/02/14_14:33:36,YZ,60.14239229
,,,,,,calibration,0,36,2,426,14,N,0,right,0.366956339,1,0,,,,,,,,,,,,,,,,,,,,,57,158257,21,Female,1,2024/02/14_14:33:36,YZ,60.14239229
,,,,,,calibration,0,36,2,426,15,V,1,left,0.394519395,1,0,,,,,,,,,,,,,,,,,,,,,57,158257,21,Female,1,2024/02/14_14:33:36,YZ,60.14239229
,,,,,,calibration,0,36,2,426,16,N,1,right,0.644889964,0,0,,,,,,,,,,,,,,,,,,,,,57,158257,21,Female,1,2024/02/14_14:33:36,YZ,60.14239229
,,,,,,calibration,0,36,2,426,17,C,0,right,0.694938016,1,0,,,,,,,,,,,,,,,,,,,,,57,158257,21,Female,1,2024/02/14_14:33:36,YZ,60.14239229
,,,,,,calibration,0,36,2,426,,,,,,,,0.9125,0.8,0.083333333,0.916666667,0,0.916666667,0.591034505,4,1,0,0,0,11,15,5,12,0,,,,57,158257,21,Female,1,2024/02/14_14:33:36,YZ,60.14239229
,,,,,,Calibration,0,,2,426,,,,,,,,,,,,,,,,,,,,,,,,,3,,,57,158257,21,Female,1,2024/02/14_14:33:36,YZ,60.14239229
,,,,,,calibration,0,12,2,361,1,V,0,right,0.595388226,1,0,,,,,,,,,,,,,,,,,,,,,57,158257,21,Female,1,2024/02/14_14:33:36,YZ,60.14239229
,,,,,,calibration,0,12,2,361,2,X,0,right,0.361442232,1,0,,,,,,,,,,,,,,,,,,,,,57,158257,21,Female,1,2024/02/14_14:33:36,YZ,60.14239229
,,,,,,calibration,0,12,2,361,3,C,0,right,0.413031651,1,0,,,,,,,,,,,,,,,,,,,,,57,158257,21,Female,1,2024/02/14_14:33:36,YZ,60.14239229
,,,,,,calibration,0,12,2,361,4,X,1,left,0.562037055,1,0,,,,,,,,,,,,,,,,,,,,,57,158257,21,Female,1,2024/02/14_14:33:36,YZ,60.14239229
,,,,,,calibration,0,12,2,361,5,J,0,right,0.647224447,1,0,,,,,,,,,,,,,,,,,,,,,57,158257,21,Female,1,2024/02/14_14:33:36,YZ,60.14239229
,,,,,,calibration,0,12,2,361,6,Q,0,right,0.447287367,1,0,,,,,,,,,,,,,,,,,,,,,57,158257,21,Female,1,2024/02/14_14:33:36,YZ,60.14239229
,,,,,,calibration,0,12,2,361,7,J,1,left,0.594961808,1,0,,,,,,,,,,,,,,,,,,,,,57,158257,21,Female,1,2024/02/14_14:33:36,YZ,60.14239229
,,,,,,calibration,0,12,2,361,8,S,0,right,0.353347967,1,0,,,,,,,,,,,,,,,,,,,,,57,158257,21,Female,1,2024/02/14_14:33:36,YZ,60.14239229
,,,,,,calibration,0,12,2,361,9,C,0,right,0.745449397,1,0,,,,,,,,,,,,,,,,,,,,,57,158257,21,Female,1,2024/02/14_14:33:36,YZ,60.14239229
,,,,,,calibration,0,12,2,361,10,N,0,right,0.795268457,1,0,,,,,,,,,,,,,,,,,,,,,57,158257,21,Female,1,2024/02/14_14:33:36,YZ,60.14239229
,,,,,,calibration,0,12,2,361,11,J,0,right,0.728432363,1,0,,,,,,,,,,,,,,,,,,,,,57,158257,21,Female,1,2024/02/14_14:33:36,YZ,60.14239229
,,,,,,calibration,0,12,2,361,12,Q,0,right,0.795352793,1,0,,,,,,,,,,,,,,,,,,,,,57,158257,21,Female,1,2024/02/14_14:33:36,YZ,60.14239229
,,,,,,calibration,0,12,2,361,13,J,1,left,0.796666348,1,0,,,,,,,,,,,,,,,,,,,,,57,158257,21,Female,1,2024/02/14_14:33:36,YZ,60.14239229
,,,,,,calibration,0,12,2,361,14,Q,1,left,0.878628532,1,0,,,,,,,,,,,,,,,,,,,,,57,158257,21,Female,1,2024/02/14_14:33:36,YZ,60.14239229
,,,,,,calibration,0,12,2,361,15,F,0,right,0.611502588,1,0,,,,,,,,,,,,,,,,,,,,,57,158257,21,Female,1,2024/02/14_14:33:36,YZ,60.14239229
,,,,,,calibration,0,12,2,361,16,Q,1,left,0.484683416,1,0,,,,,,,,,,,,,,,,,,,,,57,158257,21,Female,1,2024/02/14_14:33:36,YZ,60.14239229
,,,,,,calibration,0,12,2,361,17,V,0,right,0.664334737,1,0,,,,,,,,,,,,,,,,,,,,,57,158257,21,Female,1,2024/02/14_14:33:36,YZ,60.14239229
,,,,,,calibration,0,12,2,361,18,S,0,right,0.561787983,1,0,,,,,,,,,,,,,,,,,,,,,57,158257,21,Female,1,2024/02/14_14:33:36,YZ,60.14239229
,,,,,,calibration,0,12,2,361,,,,,,,,1,1,0,1,0,1,0.613157076,5,0,0,0,0,13,18,5,13,0,,,,57,158257,21,Female,1,2024/02/14_14:33:36,YZ,60.14239229
,,,,,,Calibration,0,,2,361,,,,,,,,,,,,,,,,,,,,,,,,,4,,,57,158257,21,Female,1,2024/02/14_14:33:36,YZ,60.14239229
,,,,,,calibration,0,35,2,303,1,Q,0,right,0.4849267,1,0,,,,,,,,,,,,,,,,,,,,,57,158257,21,Female,1,2024/02/14_14:33:36,YZ,60.14239229
,,,,,,calibration,0,35,2,303,2,J,0,right,0.33042391,1,0,,,,,,,,,,,,,,,,,,,,,57,158257,21,Female,1,2024/02/14_14:33:36,YZ,60.14239229
,,,,,,calibration,0,35,2,303,3,Q,1,left,0.484781949,1,0,,,,,,,,,,,,,,,,,,,,,57,158257,21,Female,1,2024/02/14_14:33:36,YZ,60.14239229
,,,,,,calibration,0,35,2,303,4,J,1,left,0.342228137,1,0,,,,,,,,,,,,,,,,,,,,,57,158257,21,Female,1,2024/02/14_14:33:36,YZ,60.14239229
,,,,,,calibration,0,35,2,303,5,V,0,right,0.561507626,1,0,,,,,,,,,,,,,,,,,,,,,57,158257,21,Female,1,2024/02/14_14:33:36,YZ,60.14239229
,,,,,,calibration,0,35,2,303,6,C,0,right,0.381896721,1,0,,,,,,,,,,,,,,,,,,,,,57,158257,21,Female,1,2024/02/14_14:33:36,YZ,60.14239229
,,,,,,calibration,0,35,2,303,7,F,0,right,0.545645973,1,0,,,,,,,,,,,,,,,,,,,,,57,158257,21,Female,1,2024/02/14_14:33:36,YZ,60.14239229
,,,,,,calibration,0,35,2,303,8,C,1,left,0.69514312,1,0,,,,,,,,,,,,,,,,,,,,,57,158257,21,Female,1,2024/02/14_14:33:36,YZ,60.14239229
,,,,,,calibration,0,35,2,303,9,X,0,right,0.480114528,1,0,,,,,,,,,,,,,,,,,,,,,57,158257,21,Female,1,2024/02/14_14:33:36,YZ,60.14239229
,,,,,,calibration,0,35,2,303,10,C,1,left,0.455258177,1,0,,,,,,,,,,,,,,,,,,,,,57,158257,21,Female,1,2024/02/14_14:33:36,YZ,60.14239229
,,,,,,calibration,0,35,2,303,11,V,0,right,0.629961426,1,0,,,,,,,,,,,,,,,,,,,,,57,158257,21,Female,1,2024/02/14_14:33:36,YZ,60.14239229
,,,,,,calibration,0,35,2,303,12,X,0,right,nan,0,1,,,,,,,,,,,,,,,,,,,,,57,158257,21,Female,1,2024/02/14_14:33:36,YZ,60.14239229
,,,,,,calibration,0,35,2,303,13,Q,0,right,0.578329708,1,0,,,,,,,,,,,,,,,,,,,,,57,158257,21,Female,1,2024/02/14_14:33:36,YZ,60.14239229
,,,,,,calibration,0,35,2,303,14,S,0,right,0.911757551,1,0,,,,,,,,,,,,,,,,,,,,,57,158257,21,Female,1,2024/02/14_14:33:36,YZ,60.14239229
,,,,,,calibration,0,35,2,303,15,Q,1,left,0.45352965,1,0,,,,,,,,,,,,,,,,,,,,,57,158257,21,Female,1,2024/02/14_14:33:36,YZ,60.14239229
,,,,,,calibration,0,35,2,303,16,J,0,right,0.811633971,1,0,,,,,,,,,,,,,,,,,,,,,57,158257,21,Female,1,2024/02/14_14:33:36,YZ,60.14239229
,,,,,,calibration,0,35,2,303,17,Q,1,left,0.51753619,1,0,,,,,,,,,,,,,,,,,,,,,57,158257,21,Female,1,2024/02/14_14:33:36,YZ,60.14239229
,,,,,,calibration,0,35,2,303,18,N,0,right,0.46587457,1,0,,,,,,,,,,,,,,,,,,,,,57,158257,21,Female,1,2024/02/14_14:33:36,YZ,60.14239229
,,,,,,calibration,0,35,2,303,19,X,0,right,0.677469608,1,0,,,,,,,,,,,,,,,,,,,,,57,158257,21,Female,1,2024/02/14_14:33:36,YZ,60.14239229
,,,,,,calibration,0,35,2,303,,,,,,,,1,1,0,1,0.052631579,0.947368421,0.544889973,6,0,0,1,1,12,18,6,13,0,,,,57,158257,21,Female,1,2024/02/14_14:33:36,YZ,60.14239229
,,,,,,Calibration,0,,2,303,,,,,,,,,,,,,,,,,,,,,,,,,5,,,57,158257,21,Female,1,2024/02/14_14:33:36,YZ,60.14239229
,,,,,,calibration,0,19,2,250,1,V,0,right,0.263552081,1,0,,,,,,,,,,,,,,,,,,,,,57,158257,21,Female,1,2024/02/14_14:33:36,YZ,60.14239229
,,,,,,calibration,0,19,2,250,2,C,0,right,0.303457748,1,0,,,,,,,,,,,,,,,,,,,,,57,158257,21,Female,1,2024/02/14_14:33:36,YZ,60.14239229
,,,,,,calibration,0,19,2,250,3,N,0,right,0.613714707,1,0,,,,,,,,,,,,,,,,,,,,,57,158257,21,Female,1,2024/02/14_14:33:36,YZ,60.14239229
,,,,,,calibration,0,19,2,250,4,Q,0,right,0.46808114,1,0,,,,,,,,,,,,,,,,,,,,,57,158257,21,Female,1,2024/02/14_14:33:36,YZ,60.14239229
,,,,,,calibration,0,19,2,250,5,X,0,right,0.828262336,1,0,,,,,,,,,,,,,,,,,,,,,57,158257,21,Female,1,2024/02/14_14:33:36,YZ,60.14239229
,,,,,,calibration,0,19,2,250,6,Q,1,left,0.678068221,1,0,,,,,,,,,,,,,,,,,,,,,57,158257,21,Female,1,2024/02/14_14:33:36,YZ,60.14239229
,,,,,,calibration,0,19,2,250,7,C,0,left,nan,0,1,,,,,,,,,,,,,,,,,,,,,57,158257,21,Female,1,2024/02/14_14:33:36,YZ,60.14239229
,,,,,,calibration,0,19,2,250,8,Q,1,left,0.728357033,1,0,,,,,,,,,,,,,,,,,,,,,57,158257,21,Female,1,2024/02/14_14:33:36,YZ,60.14239229
,,,,,,calibration,0,19,2,250,9,C,1,left,0.711596618,1,0,,,,,,,,,,,,,,,,,,,,,57,158257,21,Female,1,2024/02/14_14:33:36,YZ,60.14239229
,,,,,,calibration,0,19,2,250,10,V,0,right,0.418430778,1,0,,,,,,,,,,,,,,,,,,,,,57,158257,21,Female,1,2024/02/14_14:33:36,YZ,60.14239229
,,,,,,calibration,0,19,2,250,11,F,0,right,nan,0,1,,,,,,,,,,,,,,,,,,,,,57,158257,21,Female,1,2024/02/14_14:33:36,YZ,60.14239229
,,,,,,calibration,0,19,2,250,12,S,0,right,0.845068478,1,0,,,,,,,,,,,,,,,,,,,,,57,158257,21,Female,1,2024/02/14_14:33:36,YZ,60.14239229
,,,,,,calibration,0,19,2,250,13,F,1,left,0.545969232,1,0,,,,,,,,,,,,,,,,,,,,,57,158257,21,Female,1,2024/02/14_14:33:36,YZ,60.14239229
,,,,,,calibration,0,19,2,250,14,C,0,right,0.961535257,1,0,,,,,,,,,,,,,,,,,,,,,57,158257,21,Female,1,2024/02/14_14:33:36,YZ,60.14239229
,,,,,,calibration,0,19,2,250,15,N,0,right,0.56135237,1,0,,,,,,,,,,,,,,,,,,,,,57,158257,21,Female,1,2024/02/14_14:33:36,YZ,60.14239229
,,,,,,calibration,0,19,2,250,16,C,1,right,0.644404025,0,0,,,,,,,,,,,,,,,,,,,,,57,158257,21,Female,1,2024/02/14_14:33:36,YZ,60.14239229
,,,,,,calibration,0,19,2,250,17,V,0,right,0.578437842,1,0,,,,,,,,,,,,,,,,,,,,,57,158257,21,Female,1,2024/02/14_14:33:36,YZ,60.14239229
,,,,,,calibration,0,19,2,250,18,J,0,right,0.661337951,1,0,,,,,,,,,,,,,,,,,,,,,57,158257,21,Female,1,2024/02/14_14:33:36,YZ,60.14239229
,,,,,,calibration,0,19,2,250,19,X,0,right,0.830441706,1,0,,,,,,,,,,,,,,,,,,,,,57,158257,21,Female,1,2024/02/14_14:33:36,YZ,60.14239229
,,,,,,calibration,0,19,2,250,20,C,0,right,0.71166881,1,0,,,,,,,,,,,,,,,,,,,,,57,158257,21,Female,1,2024/02/14_14:33:36,YZ,60.14239229
,,,,,,calibration,0,19,2,250,,,,,,,,0.95,0.8,0,1,0.1,0.9,0.63076313,4,0,0,2,2,13,17,5,15,0,,,,57,158257,21,Female,1,2024/02/14_14:33:36,YZ,60.14239229
,,,,,,Calibration,0,,2,250,,,,,,,,,,,,,,,,,,,,,,,,,6,,,57,158257,21,Female,1,2024/02/14_14:33:36,YZ,60.14239229
,,,,,,calibration,0,5,2,202,1,F,0,right,0.399119236,1,0,,,,,,,,,,,,,,,,,,,,,57,158257,21,Female,1,2024/02/14_14:33:36,YZ,60.14239229
,,,,,,calibration,0,5,2,202,2,S,0,right,0.751361629,1,0,,,,,,,,,,,,,,,,,,,,,57,158257,21,Female,1,2024/02/14_14:33:36,YZ,60.14239229
,,,,,,calibration,0,5,2,202,3,V,0,right,0.894746239,1,0,,,,,,,,,,,,,,,,,,,,,57,158257,21,Female,1,2024/02/14_14:33:36,YZ,60.14239229
,,,,,,calibration,0,5,2,202,4,S,1,left,0.527374072,1,0,,,,,,,,,,,,,,,,,,,,,57,158257,21,Female,1,2024/02/14_14:33:36,YZ,60.14239229
,,,,,,calibration,0,5,2,202,5,V,1,left,0.630067716,1,0,,,,,,,,,,,,,,,,,,,,,57,158257,21,Female,1,2024/02/14_14:33:36,YZ,60.14239229
,,,,,,calibration,0,5,2,202,6,N,0,right,0.499576272,1,0,,,,,,,,,,,,,,,,,,,,,57,158257,21,Female,1,2024/02/14_14:33:36,YZ,60.14239229
,,,,,,calibration,0,5,2,202,7,V,1,left,0.611876787,1,0,,,,,,,,,,,,,,,,,,,,,57,158257,21,Female,1,2024/02/14_14:33:36,YZ,60.14239229
,,,,,,calibration,0,5,2,202,8,N,1,left,0.595426349,1,0,,,,,,,,,,,,,,,,,,,,,57,158257,21,Female,1,2024/02/14_14:33:36,YZ,60.14239229
,,,,,,calibration,0,5,2,202,9,C,0,right,0.420166578,1,0,,,,,,,,,,,,,,,,,,,,,57,158257,21,Female,1,2024/02/14_14:33:36,YZ,60.14239229
,,,,,,calibration,0,5,2,202,10,N,1,left,0.517559303,1,0,,,,,,,,,,,,,,,,,,,,,57,158257,21,Female,1,2024/02/14_14:33:36,YZ,60.14239229
,,,,,,calibration,0,5,2,202,11,F,0,right,0.845088213,1,0,,,,,,,,,,,,,,,,,,,,,57,158257,21,Female,1,2024/02/14_14:33:36,YZ,60.14239229
,,,,,,calibration,0,5,2,202,12,J,0,right,0.415874762,1,0,,,,,,,,,,,,,,,,,,,,,57,158257,21,Female,1,2024/02/14_14:33:36,YZ,60.14239229
,,,,,,calibration,0,5,2,202,13,X,0,right,0.594304241,1,0,,,,,,,,,,,,,,,,,,,,,57,158257,21,Female,1,2024/02/14_14:33:36,YZ,60.14239229
,,,,,,calibration,0,5,2,202,14,J,1,left,0.483698751,1,0,,,,,,,,,,,,,,,,,,,,,57,158257,21,Female,1,2024/02/14_14:33:36,YZ,60.14239229
,,,,,,calibration,0,5,2,202,15,N,0,right,0.48009995,1,0,,,,,,,,,,,,,,,,,,,,,57,158257,21,Female,1,2024/02/14_14:33:36,YZ,60.14239229
,,,,,,calibration,0,5,2,202,16,C,0,right,0.761468758,1,0,,,,,,,,,,,,,,,,,,,,,57,158257,21,Female,1,2024/02/14_14:33:36,YZ,60.14239229
,,,,,,calibration,0,5,2,202,17,V,0,right,0.961544144,1,0,,,,,,,,,,,,,,,,,,,,,57,158257,21,Female,1,2024/02/14_14:33:36,YZ,60.14239229
,,,,,,calibration,0,5,2,202,18,X,0,right,0.797180749,1,0,,,,,,,,,,,,,,,,,,,,,57,158257,21,Female,1,2024/02/14_14:33:36,YZ,60.14239229
,,,,,,calibration,0,5,2,202,19,F,0,right,nan,0,1,,,,,,,,,,,,,,,,,,,,,57,158257,21,Female,1,2024/02/14_14:33:36,YZ,60.14239229
,,,,,,calibration,0,5,2,202,20,V,0,right,0.310080768,1,0,,,,,,,,,,,,,,,,,,,,,57,158257,21,Female,1,2024/02/14_14:33:36,YZ,60.14239229
,,,,,,calibration,0,5,2,202,21,N,0,right,0.275966017,1,0,,,,,,,,,,,,,,,,,,,,,57,158257,21,Female,1,2024/02/14_14:33:36,YZ,60.14239229
,,,,,,calibration,0,5,2,202,,,,,,,,1,1,0,1,0.047619048,0.952380952,0.588629027,6,0,0,1,1,14,20,6,15,0,,,,57,158257,21,Female,1,2024/02/14_14:33:36,YZ,60.14239229
,,,,,,Calibration,0,,2,202,,,,,,,,,,,,,,,,,,,,,,,,,7,,,57,158257,21,Female,1,2024/02/14_14:33:36,YZ,60.14239229
,,,,,,calibration,0,27,2,159,1,V,0,right,0.845190803,1,0,,,,,,,,,,,,,,,,,,,,,57,158257,21,Female,1,2024/02/14_14:33:36,YZ,60.14239229
,,,,,,calibration,0,27,2,159,2,Q,0,right,0.105938816,1,0,,,,,,,,,,,,,,,,,,,,,57,158257,21,Female,1,2024/02/14_14:33:36,YZ,60.14239229
,,,,,,calibration,0,27,2,159,3,V,1,left,0.545331255,1,0,,,,,,,,,,,,,,,,,,,,,57,158257,21,Female,1,2024/02/14_14:33:36,YZ,60.14239229
,,,,,,calibration,0,27,2,159,4,J,0,right,0.427798719,1,0,,,,,,,,,,,,,,,,,,,,,57,158257,21,Female,1,2024/02/14_14:33:36,YZ,60.14239229
,,,,,,calibration,0,27,2,159,5,F,0,right,0.728027677,1,0,,,,,,,,,,,,,,,,,,,,,57,158257,21,Female,1,2024/02/14_14:33:36,YZ,60.14239229
,,,,,,calibration,0,27,2,159,6,X,0,right,0.645370408,1,0,,,,,,,,,,,,,,,,,,,,,57,158257,21,Female,1,2024/02/14_14:33:36,YZ,60.14239229
,,,,,,calibration,0,27,2,159,7,Q,0,right,0.576709751,1,0,,,,,,,,,,,,,,,,,,,,,57,158257,21,Female,1,2024/02/14_14:33:36,YZ,60.14239229
,,,,,,calibration,0,27,2,159,8,X,1,left,0.780162929,1,0,,,,,,,,,,,,,,,,,,,,,57,158257,21,Female,1,2024/02/14_14:33:36,YZ,60.14239229
,,,,,,calibration,0,27,2,159,9,Q,1,right,0.628365655,0,0,,,,,,,,,,,,,,,,,,,,,57,158257,21,Female,1,2024/02/14_14:33:36,YZ,60.14239229
,,,,,,calibration,0,27,2,159,10,F,0,right,nan,0,1,,,,,,,,,,,,,,,,,,,,,57,158257,21,Female,1,2024/02/14_14:33:36,YZ,60.14239229
,,,,,,calibration,0,27,2,159,11,X,0,right,0.778333723,1,0,,,,,,,,,,,,,,,,,,,,,57,158257,21,Female,1,2024/02/14_14:33:36,YZ,60.14239229
,,,,,,calibration,0,27,2,159,12,F,1,left,0.680645494,1,0,,,,,,,,,,,,,,,,,,,,,57,158257,21,Female,1,2024/02/14_14:33:36,YZ,60.14239229
,,,,,,calibration,0,27,2,159,13,S,0,right,0.561200715,1,0,,,,,,,,,,,,,,,,,,,,,57,158257,21,Female,1,2024/02/14_14:33:36,YZ,60.14239229
,,,,,,calibration,0,27,2,159,14,X,0,left,0.611494641,0,0,,,,,,,,,,,,,,,,,,,,,57,158257,21,Female,1,2024/02/14_14:33:36,YZ,60.14239229
,,,,,,calibration,0,27,2,159,15,Q,0,right,0.694714118,1,0,,,,,,,,,,,,,,,,,,,,,57,158257,21,Female,1,2024/02/14_14:33:36,YZ,60.14239229
,,,,,,calibration,0,27,2,159,16,J,0,right,0.597275934,1,0,,,,,,,,,,,,,,,,,,,,,57,158257,21,Female,1,2024/02/14_14:33:36,YZ,60.14239229
,,,,,,calibration,0,27,2,159,17,C,0,right,0.473542129,1,0,,,,,,,,,,,,,,,,,,,,,57,158257,21,Female,1,2024/02/14_14:33:36,YZ,60.14239229
,,,,,,calibration,0,27,2,159,18,Q,0,left,0.611946035,0,0,,,,,,,,,,,,,,,,,,,,,57,158257,21,Female,1,2024/02/14_14:33:36,YZ,60.14239229
,,,,,,calibration,0,27,2,159,19,C,1,left,0.417822111,1,0,,,,,,,,,,,,,,,,,,,,,57,158257,21,Female,1,2024/02/14_14:33:36,YZ,60.14239229
,,,,,,calibration,0,27,2,159,20,N,0,right,0.443614524,1,0,,,,,,,,,,,,,,,,,,,,,57,158257,21,Female,1,2024/02/14_14:33:36,YZ,60.14239229
,,,,,,calibration,0,27,2,159,21,C,1,left,0.61403842,1,0,,,,,,,,,,,,,,,,,,,,,57,158257,21,Female,1,2024/02/14_14:33:36,YZ,60.14239229
,,,,,,calibration,0,27,2,159,22,N,1,left,0.794963283,1,0,,,,,,,,,,,,,,,,,,,,,57,158257,21,Female,1,2024/02/14_14:33:36,YZ,60.14239229
,,,,,,calibration,0,27,2,159,,,,,,,,0.911904762,0.857142857,0.133333333,0.857142857,0.045454545,0.821212121,0.598213673,6,2,0,1,1,12,18,7,15,0,,,,57,158257,21,Female,1,2024/02/14_14:33:36,YZ,60.14239229
,,,,,,Calibration,0,,2,159,,,,,,,,,,,,,,,,,,,,,,,,,8,,,57,158257,21,Female,1,2024/02/14_14:33:36,YZ,60.14239229
,,,,,,calibration,0,13,2,120,1,C,0,left,0.663948209,0,0,,,,,,,,,,,,,,,,,,,,,57,158257,21,Female,1,2024/02/14_14:33:36,YZ,60.14239229
,,,,,,calibration,0,13,2,120,2,S,0,right,0.545456902,1,0,,,,,,,,,,,,,,,,,,,,,57,158257,21,Female,1,2024/02/14_14:33:36,YZ,60.14239229
,,,,,,calibration,0,13,2,120,3,C,1,left,0.470908046,1,0,,,,,,,,,,,,,,,,,,,,,57,158257,21,Female,1,2024/02/14_14:33:36,YZ,60.14239229
,,,,,,calibration,0,13,2,120,4,X,0,right,0.405698462,1,0,,,,,,,,,,,,,,,,,,,,,57,158257,21,Female,1,2024/02/14_14:33:36,YZ,60.14239229
,,,,,,calibration,0,13,2,120,5,J,0,right,0.494840038,1,0,,,,,,,,,,,,,,,,,,,,,57,158257,21,Female,1,2024/02/14_14:33:36,YZ,60.14239229
,,,,,,calibration,0,13,2,120,6,Q,0,right,0.645246583,1,0,,,,,,,,,,,,,,,,,,,,,57,158257,21,Female,1,2024/02/14_14:33:36,YZ,60.14239229
,,,,,,calibration,0,13,2,120,7,F,0,right,0.517205035,1,0,,,,,,,,,,,,,,,,,,,,,57,158257,21,Female,1,2024/02/14_14:33:36,YZ,60.14239229
,,,,,,calibration,0,13,2,120,8,S,0,left,0.545228633,0,0,,,,,,,,,,,,,,,,,,,,,57,158257,21,Female,1,2024/02/14_14:33:36,YZ,60.14239229
,,,,,,calibration,0,13,2,120,9,F,1,left,0.711936584,1,0,,,,,,,,,,,,,,,,,,,,,57,158257,21,Female,1,2024/02/14_14:33:36,YZ,60.14239229
,,,,,,calibration,0,13,2,120,10,V,0,left,0.680207427,0,0,,,,,,,,,,,,,,,,,,,,,57,158257,21,Female,1,2024/02/14_14:33:36,YZ,60.14239229
,,,,,,calibration,0,13,2,120,11,J,0,right,0.436798454,1,0,,,,,,,,,,,,,,,,,,,,,57,158257,21,Female,1,2024/02/14_14:33:36,YZ,60.14239229
,,,,,,calibration,0,13,2,120,12,F,0,right,0.628381568,1,0,,,,,,,,,,,,,,,,,,,,,57,158257,21,Female,1,2024/02/14_14:33:36,YZ,60.14239229
,,,,,,calibration,0,13,2,120,13,N,0,right,0.628057685,1,0,,,,,,,,,,,,,,,,,,,,,57,158257,21,Female,1,2024/02/14_14:33:36,YZ,60.14239229
,,,,,,calibration,0,13,2,120,14,C,0,right,0.046106864,1,0,,,,,,,,,,,,,,,,,,,,,57,158257,21,Female,1,2024/02/14_14:33:36,YZ,60.14239229
,,,,,,calibration,0,13,2,120,15,V,0,right,0.08455957,1,0,,,,,,,,,,,,,,,,,,,,,57,158257,21,Female,1,2024/02/14_14:33:36,YZ,60.14239229
,,,,,,calibration,0,13,2,120,16,X,0,right,nan,0,1,,,,,,,,,,,,,,,,,,,,,57,158257,21,Female,1,2024/02/14_14:33:36,YZ,60.14239229
,,,,,,calibration,0,13,2,120,17,V,1,right,nan,0,1,,,,,,,,,,,,,,,,,,,,,57,158257,21,Female,1,2024/02/14_14:33:36,YZ,60.14239229
,,,,,,calibration,0,13,2,120,18,X,1,right,0.246669546,0,0,,,,,,,,,,,,,,,,,,,,,57,158257,21,Female,1,2024/02/14_14:33:36,YZ,60.14239229
,,,,,,calibration,0,13,2,120,19,J,0,right,nan,0,1,,,,,,,,,,,,,,,,,,,,,57,158257,21,Female,1,2024/02/14_14:33:36,YZ,60.14239229
,,,,,,calibration,0,13,2,120,20,C,0,left,0.430508476,0,0,,,,,,,,,,,,,,,,,,,,,57,158257,21,Female,1,2024/02/14_14:33:36,YZ,60.14239229
,,,,,,calibration,0,13,2,120,21,S,0,right,0.327658469,1,0,,,,,,,,,,,,,,,,,,,,,57,158257,21,Female,1,2024/02/14_14:33:36,YZ,60.14239229
,,,,,,calibration,0,13,2,120,22,C,1,right,nan,0,1,,,,,,,,,,,,,,,,,,,,,57,158257,21,Female,1,2024/02/14_14:33:36,YZ,60.14239229
,,,,,,calibration,0,13,2,120,23,S,1,left,0.246167257,1,0,,,,,,,,,,,,,,,,,,,,,57,158257,21,Female,1,2024/02/14_14:33:36,YZ,60.14239229
,,,,,,calibration,0,13,2,120,,,,,,,,0.698529412,0.5,0.235294118,0.733333333,0.173913043,0.590792839,0.4608202,3,4,2,2,4,11,14,6,17,0,,,,57,158257,21,Female,1,2024/02/14_14:33:36,YZ,60.14239229
,,,,,,Calibration,0,,2,120,,,,,,,,,,,,,,,,,,,,,,,,,9,,,57,158257,21,Female,1,2024/02/14_14:33:36,YZ,60.14239229
,,,,,,calibration,0,5,2,159,1,S,0,None,nan,0,1,,,,,,,,,,,,,,,,,,,,,57,158257,21,Female,1,2024/02/14_14:33:36,YZ,60.14239229
,,,,,,calibration,0,5,2,159,2,C,0,right,0.360020721,1,0,,,,,,,,,,,,,,,,,,,,,57,158257,21,Female,1,2024/02/14_14:33:36,YZ,60.14239229
,,,,,,calibration,0,5,2,159,3,Q,0,right,0.61180562,1,0,,,,,,,,,,,,,,,,,,,,,57,158257,21,Female,1,2024/02/14_14:33:36,YZ,60.14239229
,,,,,,calibration,0,5,2,159,4,F,0,right,0.527461024,1,0,,,,,,,,,,,,,,,,,,,,,57,158257,21,Female,1,2024/02/14_14:33:36,YZ,60.14239229
,,,,,,calibration,0,5,2,159,5,C,0,right,0.561255683,1,0,,,,,,,,,,,,,,,,,,,,,57,158257,21,Female,1,2024/02/14_14:33:36,YZ,60.14239229
,,,,,,calibration,0,5,2,159,6,F,1,left,0.377770911,1,0,,,,,,,,,,,,,,,,,,,,,57,158257,21,Female,1,2024/02/14_14:33:36,YZ,60.14239229
,,,,,,calibration,0,5,2,159,7,C,1,left,0.563378551,1,0,,,,,,,,,,,,,,,,,,,,,57,158257,21,Female,1,2024/02/14_14:33:36,YZ,60.14239229
,,,,,,calibration,0,5,2,159,8,J,0,right,0.30161296,1,0,,,,,,,,,,,,,,,,,,,,,57,158257,21,Female,1,2024/02/14_14:33:36,YZ,60.14239229
,,,,,,calibration,0,5,2,159,9,C,1,left,0.395300036,1,0,,,,,,,,,,,,,,,,,,,,,57,158257,21,Female,1,2024/02/14_14:33:36,YZ,60.14239229
,,,,,,calibration,0,5,2,159,10,S,0,right,0.421776283,1,0,,,,,,,,,,,,,,,,,,,,,57,158257,21,Female,1,2024/02/14_14:33:36,YZ,60.14239229
,,,,,,calibration,0,5,2,159,11,F,0,left,0.642714414,0,0,,,,,,,,,,,,,,,,,,,,,57,158257,21,Female,1,2024/02/14_14:33:36,YZ,60.14239229
,,,,,,calibration,0,5,2,159,12,J,0,left,0.664030158,0,0,,,,,,,,,,,,,,,,,,,,,57,158257,21,Female,1,2024/02/14_14:33:36,YZ,60.14239229
,,,,,,calibration,0,5,2,159,13,F,1,left,0.628066493,1,0,,,,,,,,,,,,,,,,,,,,,57,158257,21,Female,1,2024/02/14_14:33:36,YZ,60.14239229
,,,,,,calibration,0,5,2,159,14,Q,0,right,0.363753122,1,0,,,,,,,,,,,,,,,,,,,,,57,158257,21,Female,1,2024/02/14_14:33:36,YZ,60.14239229
,,,,,,calibration,0,5,2,159,15,F,1,left,0.595317916,1,0,,,,,,,,,,,,,,,,,,,,,57,158257,21,Female,1,2024/02/14_14:33:36,YZ,60.14239229
,,,,,,calibration,0,5,2,159,16,V,0,right,0.545946665,1,0,,,,,,,,,,,,,,,,,,,,,57,158257,21,Female,1,2024/02/14_14:33:36,YZ,60.14239229
,,,,,,calibration,0,5,2,159,17,C,0,right,0.577852499,1,0,,,,,,,,,,,,,,,,,,,,,57,158257,21,Female,1,2024/02/14_14:33:36,YZ,60.14239229
,,,,,,calibration,0,5,2,159,18,F,0,right,nan,0,1,,,,,,,,,,,,,,,,,,,,,57,158257,21,Female,1,2024/02/14_14:33:36,YZ,60.14239229
,,,,,,calibration,0,5,2,159,19,V,0,left,0.342436391,0,0,,,,,,,,,,,,,,,,,,,,,57,158257,21,Female,1,2024/02/14_14:33:36,YZ,60.14239229
,,,,,,calibration,0,5,2,159,20,J,0,left,nan,0,1,,,,,,,,,,,,,,,,,,,,,57,158257,21,Female,1,2024/02/14_14:33:36,YZ,60.14239229
,,,,,,calibration,0,5,2,159,21,C,0,right,0.48227999,1,0,,,,,,,,,,,,,,,,,,,,,57,158257,21,Female,1,2024/02/14_14:33:36,YZ,60.14239229
,,,,,,calibration,0,5,2,159,22,J,1,left,0.457531678,1,0,,,,,,,,,,,,,,,,,,,,,57,158257,21,Female,1,2024/02/14_14:33:36,YZ,60.14239229
,,,,,,calibration,0,5,2,159,,,,,,,,0.953125,1,0.1875,0.769230769,0.136363636,0.676136364,0.495805848,6,3,0,3,3,10,16,6,16,0,,,,57,158257,21,Female,1,2024/02/14_14:33:36,YZ,60.14239229
,,,,,,Calibration,0,,2,159,,,,,,,,,,,,,,,,,,,,,,,,,10,,,57,158257,21,Female,1,2024/02/14_14:33:36,YZ,60.14239229
,,,,,,calibration,0,13,2,120,1,C,0,right,0.466246035,1,0,,,,,,,,,,,,,,,,,,,,,57,158257,21,Female,1,2024/02/14_14:33:36,YZ,60.14239229
,,,,,,calibration,0,13,2,120,2,S,0,right,0.611836749,1,0,,,,,,,,,,,,,,,,,,,,,57,158257,21,Female,1,2024/02/14_14:33:36,YZ,60.14239229
,,,,,,calibration,0,13,2,120,3,C,1,right,0.32891289,0,0,,,,,,,,,,,,,,,,,,,,,57,158257,21,Female,1,2024/02/14_14:33:36,YZ,60.14239229
,,,,,,calibration,0,13,2,120,4,X,0,right,0.56151589,1,0,,,,,,,,,,,,,,,,,,,,,57,158257,21,Female,1,2024/02/14_14:33:36,YZ,60.14239229
,,,,,,calibration,0,13,2,120,5,J,0,right,0.496558914,1,0,,,,,,,,,,,,,,,,,,,,,57,158257,21,Female,1,2024/02/14_14:33:36,YZ,60.14239229
,,,,,,calibration,0,13,2,120,6,Q,0,right,0.711746879,1,0,,,,,,,,,,,,,,,,,,,,,57,158257,21,Female,1,2024/02/14_14:33:36,YZ,60.14239229
,,,,,,calibration,0,13,2,120,7,F,0,right,0.473885161,1,0,,,,,,,,,,,,,,,,,,,,,57,158257,21,Female,1,2024/02/14_14:33:36,YZ,60.14239229
,,,,,,calibration,0,13,2,120,8,S,0,right,0.728042971,1,0,,,,,,,,,,,,,,,,,,,,,57,158257,21,Female,1,2024/02/14_14:33:36,YZ,60.14239229
,,,,,,calibration,0,13,2,120,9,F,1,left,0.421567498,1,0,,,,,,,,,,,,,,,,,,,,,57,158257,21,Female,1,2024/02/14_14:33:36,YZ,60.14239229
,,,,,,calibration,0,13,2,120,10,V,0,right,0.519089308,1,0,,,,,,,,,,,,,,,,,,,,,57,158257,21,Female,1,2024/02/14_14:33:36,YZ,60.14239229
,,,,,,calibration,0,13,2,120,11,J,0,right,0.678398278,1,0,,,,,,,,,,,,,,,,,,,,,57,158257,21,Female,1,2024/02/14_14:33:36,YZ,60.14239229
,,,,,,calibration,0,13,2,120,12,F,0,right,0.26371531,1,0,,,,,,,,,,,,,,,,,,,,,57,158257,21,Female,1,2024/02/14_14:33:36,YZ,60.14239229
,,,,,,calibration,0,13,2,120,13,N,0,right,0.677875881,1,0,,,,,,,,,,,,,,,,,,,,,57,158257,21,Female,1,2024/02/14_14:33:36,YZ,60.14239229
,,,,,,calibration,0,13,2,120,14,C,0,right,0.477454886,1,0,,,,,,,,,,,,,,,,,,,,,57,158257,21,Female,1,2024/02/14_14:33:36,YZ,60.14239229
,,,,,,calibration,0,13,2,120,15,V,0,right,0.50064914,1,0,,,,,,,,,,,,,,,,,,,,,57,158257,21,Female,1,2024/02/14_14:33:36,YZ,60.14239229
,,,,,,calibration,0,13,2,120,16,X,0,right,0.400218625,1,0,,,,,,,,,,,,,,,,,,,,,57,158257,21,Female,1,2024/02/14_14:33:36,YZ,60.14239229
,,,,,,calibration,0,13,2,120,17,V,1,left,0.314650705,1,0,,,,,,,,,,,,,,,,,,,,,57,158257,21,Female,1,2024/02/14_14:33:36,YZ,60.14239229
,,,,,,calibration,0,13,2,120,18,X,1,right,0.57896338,0,0,,,,,,,,,,,,,,,,,,,,,57,158257,21,Female,1,2024/02/14_14:33:36,YZ,60.14239229
,,,,,,calibration,0,13,2,120,19,J,0,right,0.578837762,1,0,,,,,,,,,,,,,,,,,,,,,57,158257,21,Female,1,2024/02/14_14:33:36,YZ,60.14239229
,,,,,,calibration,0,13,2,120,20,C,0,right,0.45839258,1,0,,,,,,,,,,,,,,,,,,,,,57,158257,21,Female,1,2024/02/14_14:33:36,YZ,60.14239229
,,,,,,calibration,0,13,2,120,21,S,0,right,0.369948413,1,0,,,,,,,,,,,,,,,,,,,,,57,158257,21,Female,1,2024/02/14_14:33:36,YZ,60.14239229
,,,,,,calibration,0,13,2,120,22,C,1,right,0.54566268,0,0,,,,,,,,,,,,,,,,,,,,,57,158257,21,Female,1,2024/02/14_14:33:36,YZ,60.14239229
,,,,,,calibration,0,13,2,120,23,S,1,right,0.304571328,0,0,,,,,,,,,,,,,,,,,,,,,57,158257,21,Female,1,2024/02/14_14:33:36,YZ,60.14239229
,,,,,,calibration,0,13,2,120,,,,,,,,0.833333333,0.333333333,0,1,0,1,0.498640924,2,0,0,0,0,17,19,6,17,0,,,,57,158257,21,Female,1,2024/02/14_14:33:36,YZ,60.14239229
,,,,,,Calibration,0,,2,120,,,,,,,,,,,,,,,,,,,,,,,,,11,,,57,158257,21,Female,1,2024/02/14_14:33:36,YZ,60.14239229
,,,,,,calibration,0,10,2,120,1,S,0,right,0.47088739,1,0,,,,,,,,,,,,,,,,,,,,,57,158257,21,Female,1,2024/02/14_14:33:36,YZ,60.14239229
,,,,,,calibration,0,10,2,120,2,Q,0,right,0.245776505,1,0,,,,,,,,,,,,,,,,,,,,,57,158257,21,Female,1,2024/02/14_14:33:36,YZ,60.14239229
,,,,,,calibration,0,10,2,120,3,C,0,right,0.711500771,1,0,,,,,,,,,,,,,,,,,,,,,57,158257,21,Female,1,2024/02/14_14:33:36,YZ,60.14239229
,,,,,,calibration,0,10,2,120,4,V,0,right,0.467049991,1,0,,,,,,,,,,,,,,,,,,,,,57,158257,21,Female,1,2024/02/14_14:33:36,YZ,60.14239229
,,,,,,calibration,0,10,2,120,5,C,1,left,0.496896355,1,0,,,,,,,,,,,,,,,,,,,,,57,158257,21,Female,1,2024/02/14_14:33:36,YZ,60.14239229
,,,,,,calibration,0,10,2,120,6,J,0,right,0.795229778,1,0,,,,,,,,,,,,,,,,,,,,,57,158257,21,Female,1,2024/02/14_14:33:36,YZ,60.14239229
,,,,,,calibration,0,10,2,120,7,V,0,right,0.911930106,1,0,,,,,,,,,,,,,,,,,,,,,57,158257,21,Female,1,2024/02/14_14:33:36,YZ,60.14239229
,,,,,,calibration,0,10,2,120,8,J,1,left,0.517717269,1,0,,,,,,,,,,,,,,,,,,,,,57,158257,21,Female,1,2024/02/14_14:33:36,YZ,60.14239229
,,,,,,calibration,0,10,2,120,9,C,0,right,0.828725429,1,0,,,,,,,,,,,,,,,,,,,,,57,158257,21,Female,1,2024/02/14_14:33:36,YZ,60.14239229
,,,,,,calibration,0,10,2,120,10,X,0,right,0.561816121,1,0,,,,,,,,,,,,,,,,,,,,,57,158257,21,Female,1,2024/02/14_14:33:36,YZ,60.14239229
,,,,,,calibration,0,10,2,120,11,S,0,right,0.694407538,1,0,,,,,,,,,,,,,,,,,,,,,57,158257,21,Female,1,2024/02/14_14:33:36,YZ,60.14239229
,,,,,,calibration,0,10,2,120,12,V,0,right,0.527366818,1,0,,,,,,,,,,,,,,,,,,,,,57,158257,21,Female,1,2024/02/14_14:33:36,YZ,60.14239229
,,,,,,calibration,0,10,2,120,13,J,0,right,0.944936379,1,0,,,,,,,,,,,,,,,,,,,,,57,158257,21,Female,1,2024/02/14_14:33:36,YZ,60.14239229
,,,,,,calibration,0,10,2,120,14,V,1,left,0.795314504,1,0,,,,,,,,,,,,,,,,,,,,,57,158257,21,Female,1,2024/02/14_14:33:36,YZ,60.14239229
,,,,,,calibration,0,10,2,120,15,Q,0,right,0.611231982,1,0,,,,,,,,,,,,,,,,,,,,,57,158257,21,Female,1,2024/02/14_14:33:36,YZ,60.14239229
,,,,,,calibration,0,10,2,120,16,V,1,left,0.457361158,1,0,,,,,,,,,,,,,,,,,,,,,57,158257,21,Female,1,2024/02/14_14:33:36,YZ,60.14239229
,,,,,,calibration,0,10,2,120,17,F,0,right,0.694500524,1,0,,,,,,,,,,,,,,,,,,,,,57,158257,21,Female,1,2024/02/14_14:33:36,YZ,60.14239229
,,,,,,calibration,0,10,2,120,18,X,0,right,nan,0,1,,,,,,,,,,,,,,,,,,,,,57,158257,21,Female,1,2024/02/14_14:33:36,YZ,60.14239229
,,,,,,calibration,0,10,2,120,19,F,1,right,0.894839188,0,0,,,,,,,,,,,,,,,,,,,,,57,158257,21,Female,1,2024/02/14_14:33:36,YZ,60.14239229
,,,,,,calibration,0,10,2,120,20,V,0,left,0.913936916,0,0,,,,,,,,,,,,,,,,,,,,,57,158257,21,Female,1,2024/02/14_14:33:36,YZ,60.14239229
,,,,,,calibration,0,10,2,120,21,F,1,right,0.711608063,0,0,,,,,,,,,,,,,,,,,,,,,57,158257,21,Female,1,2024/02/14_14:33:36,YZ,60.14239229
,,,,,,calibration,0,10,2,120,22,C,0,right,nan,0,1,,,,,,,,,,,,,,,,,,,,,57,158257,21,Female,1,2024/02/14_14:33:36,YZ,60.14239229
,,,,,,calibration,0,10,2,120,23,F,1,left,0.221203984,1,0,,,,,,,,,,,,,,,,,,,,,57,158257,21,Female,1,2024/02/14_14:33:36,YZ,60.14239229
,,,,,,calibration,0,10,2,120,,,,,,,,0.895089286,0.714285714,0.0625,0.928571429,0.086956522,0.850543478,0.641630322,5,1,0,2,2,13,18,7,16,0,,,,57,158257,21,Female,1,2024/02/14_14:33:36,YZ,60.14239229
,,,,,,Calibration,0,,2,120,,,,,,,,,,,,,,,,,,,,,,,,,12,,,57,158257,21,Female,1,2024/02/14_14:33:36,YZ,60.14239229
,,,,,,calibration,0,30,2,83,1,F,0,right,0.727902451,1,0,,,,,,,,,,,,,,,,,,,,,57,158257,21,Female,1,2024/02/14_14:33:36,YZ,60.14239229
,,,,,,calibration,0,30,2,83,2,S,0,right,0.354987185,1,0,,,,,,,,,,,,,,,,,,,,,57,158257,21,Female,1,2024/02/14_14:33:36,YZ,60.14239229
,,,,,,calibration,0,30,2,83,3,C,0,right,0.610675055,1,0,,,,,,,,,,,,,,,,,,,,,57,158257,21,Female,1,2024/02/14_14:33:36,YZ,60.14239229
,,,,,,calibration,0,30,2,83,4,Q,0,right,0.562221809,1,0,,,,,,,,,,,,,,,,,,,,,57,158257,21,Female,1,2024/02/14_14:33:36,YZ,60.14239229
,,,,,,calibration,0,30,2,83,5,X,0,right,0.661199927,1,0,,,,,,,,,,,,,,,,,,,,,57,158257,21,Female,1,2024/02/14_14:33:36,YZ,60.14239229
,,,,,,calibration,0,30,2,83,6,J,0,right,0.561478515,1,0,,,,,,,,,,,,,,,,,,,,,57,158257,21,Female,1,2024/02/14_14:33:36,YZ,60.14239229
,,,,,,calibration,0,30,2,83,7,X,1,right,0.458781895,0,0,,,,,,,,,,,,,,,,,,,,,57,158257,21,Female,1,2024/02/14_14:33:36,YZ,60.14239229
,,,,,,calibration,0,30,2,83,8,J,1,left,0.434455227,1,0,,,,,,,,,,,,,,,,,,,,,57,158257,21,Female,1,2024/02/14_14:33:36,YZ,60.14239229
,,,,,,calibration,0,30,2,83,9,F,0,left,0.711774806,0,0,,,,,,,,,,,,,,,,,,,,,57,158257,21,Female,1,2024/02/14_14:33:36,YZ,60.14239229
,,,,,,calibration,0,30,2,83,10,J,1,left,nan,0,1,,,,,,,,,,,,,,,,,,,,,57,158257,21,Female,1,2024/02/14_14:33:36,YZ,60.14239229
,,,,,,calibration,0,30,2,83,11,Q,0,left,nan,0,1,,,,,,,,,,,,,,,,,,,,,57,158257,21,Female,1,2024/02/14_14:33:36,YZ,60.14239229
,,,,,,calibration,0,30,2,83,12,J,1,right,0.446902468,0,0,,,,,,,,,,,,,,,,,,,,,57,158257,21,Female,1,2024/02/14_14:33:36,YZ,60.14239229
,,,,,,calibration,0,30,2,83,13,V,0,right,0.487526172,1,0,,,,,,,,,,,,,,,,,,,,,57,158257,21,Female,1,2024/02/14_14:33:36,YZ,60.14239229
,,,,,,calibration,0,30,2,83,14,X,0,right,0.728431052,1,0,,,,,,,,,,,,,,,,,,,,,57,158257,21,Female,1,2024/02/14_14:33:36,YZ,60.14239229
,,,,,,calibration,0,30,2,83,15,V,1,left,0.794841977,1,0,,,,,,,,,,,,,,,,,,,,,57,158257,21,Female,1,2024/02/14_14:33:36,YZ,60.14239229
,,,,,,calibration,0,30,2,83,16,X,1,left,0.730726097,1,0,,,,,,,,,,,,,,,,,,,,,57,158257,21,Female,1,2024/02/14_14:33:36,YZ,60.14239229
,,,,,,calibration,0,30,2,83,17,C,0,right,0.438103652,1,0,,,,,,,,,,,,,,,,,,,,,57,158257,21,Female,1,2024/02/14_14:33:36,YZ,60.14239229
,,,,,,calibration,0,30,2,83,18,X,1,right,nan,0,1,,,,,,,,,,,,,,,,,,,,,57,158257,21,Female,1,2024/02/14_14:33:36,YZ,60.14239229
,,,,,,calibration,0,30,2,83,19,F,0,left,0.431751644,0,0,,,,,,,,,,,,,,,,,,,,,57,158257,21,Female,1,2024/02/14_14:33:36,YZ,60.14239229
,,,,,,calibration,0,30,2,83,20,N,0,right,0.629899642,1,0,,,,,,,,,,,,,,,,,,,,,57,158257,21,Female,1,2024/02/14_14:33:36,YZ,60.14239229
,,,,,,calibration,0,30,2,83,21,V,0,right,0.174874514,1,0,,,,,,,,,,,,,,,,,,,,,57,158257,21,Female,1,2024/02/14_14:33:36,YZ,60.14239229
,,,,,,calibration,0,30,2,83,22,J,0,right,0.466140143,1,0,,,,,,,,,,,,,,,,,,,,,57,158257,21,Female,1,2024/02/14_14:33:36,YZ,60.14239229
,,,,,,calibration,0,30,2,83,23,X,0,left,0.497874329,0,0,,,,,,,,,,,,,,,,,,,,,57,158257,21,Female,1,2024/02/14_14:33:36,YZ,60.14239229
,,,,,,calibration,0,30,2,83,24,V,0,left,0.561224555,0,0,,,,,,,,,,,,,,,,,,,,,57,158257,21,Female,1,2024/02/14_14:33:36,YZ,60.14239229
,,,,,,calibration,0,30,2,83,,,,,,,,0.661064426,0.428571429,0.235294118,0.75,0.125,0.639705882,0.54627491,3,4,2,1,3,12,15,7,17,0,,,,57,158257,21,Female,1,2024/02/14_14:33:36,YZ,60.14239229
,,,,,,Calibration,0,,2,83,,,,,,,,,,,,,,,,,,,,,,,,,13,,,57,158257,21,Female,1,2024/02/14_14:33:36,YZ,60.14239229
,,,,,,calibration,0,18,2,120,1,F,0,right,0.661233527,1,0,,,,,,,,,,,,,,,,,,,,,57,158257,21,Female,1,2024/02/14_14:33:36,YZ,60.14239229
,,,,,,calibration,0,18,2,120,2,V,0,right,0.250127617,1,0,,,,,,,,,,,,,,,,,,,,,57,158257,21,Female,1,2024/02/14_14:33:36,YZ,60.14239229
,,,,,,calibration,0,18,2,120,3,Q,0,right,0.813500688,1,0,,,,,,,,,,,,,,,,,,,,,57,158257,21,Female,1,2024/02/14_14:33:36,YZ,60.14239229
,,,,,,calibration,0,18,2,120,4,V,1,left,0.449150435,1,0,,,,,,,,,,,,,,,,,,,,,57,158257,21,Female,1,2024/02/14_14:33:36,YZ,60.14239229
,,,,,,calibration,0,18,2,120,5,Q,1,left,0.5452529,1,0,,,,,,,,,,,,,,,,,,,,,57,158257,21,Female,1,2024/02/14_14:33:36,YZ,60.14239229
,,,,,,calibration,0,18,2,120,6,F,0,left,nan,0,1,,,,,,,,,,,,,,,,,,,,,57,158257,21,Female,1,2024/02/14_14:33:36,YZ,60.14239229
,,,,,,calibration,0,18,2,120,7,Q,1,left,0.612352676,1,0,,,,,,,,,,,,,,,,,,,,,57,158257,21,Female,1,2024/02/14_14:33:36,YZ,60.14239229
,,,,,,calibration,0,18,2,120,8,C,0,right,0.269586828,1,0,,,,,,,,,,,,,,,,,,,,,57,158257,21,Female,1,2024/02/14_14:33:36,YZ,60.14239229
,,,,,,calibration,0,18,2,120,9,X,0,right,0.794713322,1,0,,,,,,,,,,,,,,,,,,,,,57,158257,21,Female,1,2024/02/14_14:33:36,YZ,60.14239229
,,,,,,calibration,0,18,2,120,10,J,0,right,0.527442721,1,0,,,,,,,,,,,,,,,,,,,,,57,158257,21,Female,1,2024/02/14_14:33:36,YZ,60.14239229
,,,,,,calibration,0,18,2,120,11,X,1,left,0.578658995,1,0,,,,,,,,,,,,,,,,,,,,,57,158257,21,Female,1,2024/02/14_14:33:36,YZ,60.14239229
,,,,,,calibration,0,18,2,120,12,Q,0,right,0.630707743,1,0,,,,,,,,,,,,,,,,,,,,,57,158257,21,Female,1,2024/02/14_14:33:36,YZ,60.14239229
,,,,,,calibration,0,18,2,120,13,J,0,left,0.30718868,0,0,,,,,,,,,,,,,,,,,,,,,57,158257,21,Female,1,2024/02/14_14:33:36,YZ,60.14239229
,,,,,,calibration,0,18,2,120,14,S,0,right,0.545605299,1,0,,,,,,,,,,,,,,,,,,,,,57,158257,21,Female,1,2024/02/14_14:33:36,YZ,60.14239229
,,,,,,calibration,0,18,2,120,15,J,1,right,0.27644357,0,0,,,,,,,,,,,,,,,,,,,,,57,158257,21,Female,1,2024/02/14_14:33:36,YZ,60.14239229
,,,,,,calibration,0,18,2,120,16,N,0,right,nan,0,1,,,,,,,,,,,,,,,,,,,,,57,158257,21,Female,1,2024/02/14_14:33:36,YZ,60.14239229
,,,,,,calibration,0,18,2,120,17,V,0,right,nan,0,1,,,,,,,,,,,,,,,,,,,,,57,158257,21,Female,1,2024/02/14_14:33:36,YZ,60.14239229
,,,,,,calibration,0,18,2,120,18,Q,0,right,0.308691842,1,0,,,,,,,,,,,,,,,,,,,,,57,158257,21,Female,1,2024/02/14_14:33:36,YZ,60.14239229
,,,,,,calibration,0,18,2,120,19,V,1,right,0.474351585,0,0,,,,,,,,,,,,,,,,,,,,,57,158257,21,Female,1,2024/02/14_14:33:36,YZ,60.14239229
,,,,,,calibration,0,18,2,120,20,F,0,right,0.578192642,1,0,,,,,,,,,,,,,,,,,,,,,57,158257,21,Female,1,2024/02/14_14:33:36,YZ,60.14239229
,,,,,,calibration,0,18,2,120,21,N,0,right,0.435636157,1,0,,,,,,,,,,,,,,,,,,,,,57,158257,21,Female,1,2024/02/14_14:33:36,YZ,60.14239229
,,,,,,calibration,0,18,2,120,22,J,0,left,0.761561731,0,0,,,,,,,,,,,,,,,,,,,,,57,158257,21,Female,1,2024/02/14_14:33:36,YZ,60.14239229
,,,,,,calibration,0,18,2,120,23,C,0,right,0.485286508,1,0,,,,,,,,,,,,,,,,,,,,,57,158257,21,Female,1,2024/02/14_14:33:36,YZ,60.14239229
,,,,,,calibration,0,18,2,120,,,,,,,,0.848039216,0.666666667,0.117647059,0.857142857,0.130434783,0.751918159,0.515284273,4,2,0,3,3,12,16,6,17,0,,,,57,158257,21,Female,1,2024/02/14_14:33:36,YZ,60.14239229
,,,,,,Calibration,0,,2,120,,,,,,,,,,,,,,,,,,,,,,,,,14,,,57,158257,21,Female,1,2024/02/14_14:33:36,YZ,60.14239229
,,,,,,calibration,0,34,2,120,1,V,0,right,0.42827358,1,0,,,,,,,,,,,,,,,,,,,,,57,158257,21,Female,1,2024/02/14_14:33:36,YZ,60.14239229
,,,,,,calibration,0,34,2,120,2,F,0,right,0.261210125,1,0,,,,,,,,,,,,,,,,,,,,,57,158257,21,Female,1,2024/02/14_14:33:36,YZ,60.14239229
,,,,,,calibration,0,34,2,120,3,N,0,right,0.517439876,1,0,,,,,,,,,,,,,,,,,,,,,57,158257,21,Female,1,2024/02/14_14:33:36,YZ,60.14239229
,,,,,,calibration,0,34,2,120,4,F,1,left,0.4181928,1,0,,,,,,,,,,,,,,,,,,,,,57,158257,21,Female,1,2024/02/14_14:33:36,YZ,60.14239229
,,,,,,calibration,0,34,2,120,5,Q,0,right,0.630036149,1,0,,,,,,,,,,,,,,,,,,,,,57,158257,21,Female,1,2024/02/14_14:33:36,YZ,60.14239229
,,,,,,calibration,0,34,2,120,6,J,0,right,0.56194026,1,0,,,,,,,,,,,,,,,,,,,,,57,158257,21,Female,1,2024/02/14_14:33:36,YZ,60.14239229
,,,,,,calibration,0,34,2,120,7,S,0,right,0.561601087,1,0,,,,,,,,,,,,,,,,,,,,,57,158257,21,Female,1,2024/02/14_14:33:36,YZ,60.14239229
,,,,,,calibration,0,34,2,120,8,V,0,right,0.745324795,1,0,,,,,,,,,,,,,,,,,,,,,57,158257,21,Female,1,2024/02/14_14:33:36,YZ,60.14239229
,,,,,,calibration,0,34,2,120,9,F,0,right,0.946935967,1,0,,,,,,,,,,,,,,,,,,,,,57,158257,21,Female,1,2024/02/14_14:33:36,YZ,60.14239229
,,,,,,calibration,0,34,2,120,10,N,0,right,0.301102123,1,0,,,,,,,,,,,,,,,,,,,,,57,158257,21,Female,1,2024/02/14_14:33:36,YZ,60.14239229
,,,,,,calibration,0,34,2,120,11,Q,0,right,0.744814727,1,0,,,,,,,,,,,,,,,,,,,,,57,158257,21,Female,1,2024/02/14_14:33:36,YZ,60.14239229
,,,,,,calibration,0,34,2,120,12,V,0,right,0.612177414,1,0,,,,,,,,,,,,,,,,,,,,,57,158257,21,Female,1,2024/02/14_14:33:36,YZ,60.14239229
,,,,,,calibration,0,34,2,120,13,Q,1,left,0.845613275,1,0,,,,,,,,,,,,,,,,,,,,,57,158257,21,Female,1,2024/02/14_14:33:36,YZ,60.14239229
,,,,,,calibration,0,34,2,120,14,N,0,right,0.594925663,1,0,,,,,,,,,,,,,,,,,,,,,57,158257,21,Female,1,2024/02/14_14:33:36,YZ,60.14239229
,,,,,,calibration,0,34,2,120,15,V,0,left,0.479033702,0,0,,,,,,,,,,,,,,,,,,,,,57,158257,21,Female,1,2024/02/14_14:33:36,YZ,60.14239229
,,,,,,calibration,0,34,2,120,16,S,0,left,nan,0,1,,,,,,,,,,,,,,,,,,,,,57,158257,21,Female,1,2024/02/14_14:33:36,YZ,60.14239229
,,,,,,calibration,0,34,2,120,17,C,0,right,0.015674839,1,0,,,,,,,,,,,,,,,,,,,,,57,158257,21,Female,1,2024/02/14_14:33:36,YZ,60.14239229
,,,,,,calibration,0,34,2,120,18,S,1,right,0.680162921,0,0,,,,,,,,,,,,,,,,,,,,,57,158257,21,Female,1,2024/02/14_14:33:36,YZ,60.14239229
,,,,,,calibration,0,34,2,120,19,C,1,left,0.389695922,1,0,,,,,,,,,,,,,,,,,,,,,57,158257,21,Female,1,2024/02/14_14:33:36,YZ,60.14239229
,,,,,,calibration,0,34,2,120,20,J,0,right,0.440256946,1,0,,,,,,,,,,,,,,,,,,,,,57,158257,21,Female,1,2024/02/14_14:33:36,YZ,60.14239229
,,,,,,calibration,0,34,2,120,21,C,1,right,0.040623496,0,0,,,,,,,,,,,,,,,,,,,,,57,158257,21,Female,1,2024/02/14_14:33:36,YZ,60.14239229
,,,,,,calibration,0,34,2,120,22,J,1,right,nan,0,1,,,,,,,,,,,,,,,,,,,,,57,158257,21,Female,1,2024/02/14_14:33:36,YZ,60.14239229
,,,,,,calibration,0,34,2,120,23,V,0,right,0.026543868,1,0,,,,,,,,,,,,,,,,,,,,,57,158257,21,Female,1,2024/02/14_14:33:36,YZ,60.14239229
,,,,,,calibration,0,34,2,120,,,,,,,,0.830882353,0.5,0.058823529,0.9375,0.086956522,0.854219949,0.487694264,3,1,1,1,2,15,18,6,17,0,,,,57,158257,21,Female,1,2024/02/14_14:33:36,YZ,60.14239229
,,,,,,Calibration,0,,2,120,,,,,,,,,,,,,,,,,,,,,,,,,15,,,57,158257,21,Female,1,2024/02/14_14:33:36,YZ,60.14239229
,,,,,,CALIBRATION,0,,,,,,,,,,,,,,,,,,,,,,,,,,,,15,0.830882353,120,57,158257,21,Female,1,2024/02/14_14:33:36,YZ,60.14239229
1,./instructions/inst_prac_1/Slide24.png,right,11.72455318,619.7186344,631.4431876,,,,,,,,,,,,,,,,,,,,,,,,,,,,,,,,,57,158257,21,Female,1,2024/02/14_14:33:36,YZ,60.14239229
2,./instructions/inst_prac_1/Slide25.png,right,4.371515579,631.4957189,635.8672345,,,,,,,,,,,,,,,,,,,,,,,,,,,,,,,,,57,158257,21,Female,1,2024/02/14_14:33:36,YZ,60.14239229
3,./instructions/inst_prac_1/Slide26.png,right,1.127392737,635.9639783,637.091371,,,,,,,,,,,,,,,,,,,,,,,,,,,,,,,,,57,158257,21,Female,1,2024/02/14_14:33:36,YZ,60.14239229
4,./instructions/inst_prac_1/Slide27.png,right,0.887694832,637.1554542,638.0431491,,,,,,,,,,,,,,,,,,,,,,,,,,,,,,,,,57,158257,21,Female,1,2024/02/14_14:33:36,YZ,60.14239229
3,./instructions/inst_prac_1/Slide28.png,left,0.655473358,638.1000439,638.7555173,,,,,,,,,,,,,,,,,,,,,,,,,,,,,,,,,57,158257,21,Female,1,2024/02/14_14:33:36,YZ,60.14239229
4,./instructions/inst_prac_1/Slide27.png,right,1.147613339,638.7996263,639.9472397,,,,,,,,,,,,,,,,,,,,,,,,,,,,,,,,,57,158257,21,Female,1,2024/02/14_14:33:36,YZ,60.14239229
5,./instructions/inst_prac_1/Slide28.png,right,0.52358886,639.9914717,640.5150606,,,,,,,,,,,,,,,,,,,,,,,,,,,,,,,,,57,158257,21,Female,1,2024/02/14_14:33:36,YZ,60.14239229
6,./instructions/inst_prac_1/Slide29.png,right,2.309528667,640.5896525,642.8991812,,,,,,,,,,,,,,,,,,,,,,,,,,,,,,,,,57,158257,21,Female,1,2024/02/14_14:33:36,YZ,60.14239229
7,./instructions/inst_prac_1/Slide30.png,right,2.201429905,642.9537743,645.1552042,,,,,,,,,,,,,,,,,,,,,,,,,,,,,,,,,57,158257,21,Female,1,2024/02/14_14:33:36,YZ,60.14239229
,,,,,,practice,0,10,1,1250,1,C,0,right,1.910665716,1,0,,,,,,,,,,,,,,,,,,,,,57,158257,21,Female,1,2024/02/14_14:33:36,YZ,60.14239229
,,,,,,practice,0,10,1,1250,2,N,0,right,1.780545797,1,0,,,,,,,,,,,,,,,,,,,,,57,158257,21,Female,1,2024/02/14_14:33:36,YZ,60.14239229
,,,,,,practice,0,10,1,1250,3,N,1,left,0.617661866,1,0,,,,,,,,,,,,,,,,,,,,,57,158257,21,Female,1,2024/02/14_14:33:36,YZ,60.14239229
,,,,,,practice,0,10,1,1250,4,S,0,right,0.555053976,1,0,,,,,,,,,,,,,,,,,,,,,57,158257,21,Female,1,2024/02/14_14:33:36,YZ,60.14239229
,,,,,,practice,0,10,1,1250,5,F,0,right,1.066060321,1,0,,,,,,,,,,,,,,,,,,,,,57,158257,21,Female,1,2024/02/14_14:33:36,YZ,60.14239229
,,,,,,practice,0,10,1,1250,6,F,1,left,0.539957156,1,0,,,,,,,,,,,,,,,,,,,,,57,158257,21,Female,1,2024/02/14_14:33:36,YZ,60.14239229
,,,,,,practice,0,10,1,1250,7,J,0,right,0.576701223,1,0,,,,,,,,,,,,,,,,,,,,,57,158257,21,Female,1,2024/02/14_14:33:36,YZ,60.14239229
,,,,,,practice,0,10,1,1250,8,J,1,left,0.334450006,1,0,,,,,,,,,,,,,,,,,,,,,57,158257,21,Female,1,2024/02/14_14:33:36,YZ,60.14239229
,,,,,,practice,0,10,1,1250,9,V,0,right,0.349133528,1,0,,,,,,,,,,,,,,,,,,,,,57,158257,21,Female,1,2024/02/14_14:33:36,YZ,60.14239229
,,,,,,practice,0,10,1,1250,10,N,0,right,0.449489522,1,0,,,,,,,,,,,,,,,,,,,,,57,158257,21,Female,1,2024/02/14_14:33:36,YZ,60.14239229
,,,,,,practice,0,10,1,1250,,,,,,,,1,1,0,1,0,1,0.817971911,3,0,0,0,0,7,10,3,7,0,,,,57,158257,21,Female,1,2024/02/14_14:33:36,YZ,60.14239229
1,./instructions/inst_prac_1_next/Slide35.png,right,18.24054501,664.2187053,682.4592504,,,,,,,,,,,,,,,,,,,,,,,,,,,,,,,,,57,158257,21,Female,1,2024/02/14_14:33:36,YZ,60.14239229
,,,,,,practice,0,27,1,120,1,X,0,right,0.982861405,1,0,,,,,,,,,,,,,,,,,,,,,57,158257,21,Female,1,2024/02/14_14:33:36,YZ,60.14239229
,,,,,,practice,0,27,1,120,2,N,0,right,0.377567029,1,0,,,,,,,,,,,,,,,,,,,,,57,158257,21,Female,1,2024/02/14_14:33:36,YZ,60.14239229
,,,,,,practice,0,27,1,120,3,X,0,right,0.340826901,1,0,,,,,,,,,,,,,,,,,,,,,57,158257,21,Female,1,2024/02/14_14:33:36,YZ,60.14239229
,,,,,,practice,0,27,1,120,4,C,0,right,0.311233342,1,0,,,,,,,,,,,,,,,,,,,,,57,158257,21,Female,1,2024/02/14_14:33:36,YZ,60.14239229
,,,,,,practice,0,27,1,120,5,N,0,right,0.293073402,1,0,,,,,,,,,,,,,,,,,,,,,57,158257,21,Female,1,2024/02/14_14:33:36,YZ,60.14239229
,,,,,,practice,0,27,1,120,6,X,0,right,0.331615321,1,0,,,,,,,,,,,,,,,,,,,,,57,158257,21,Female,1,2024/02/14_14:33:36,YZ,60.14239229
,,,,,,practice,0,27,1,120,7,X,1,left,0.520489615,1,0,,,,,,,,,,,,,,,,,,,,,57,158257,21,Female,1,2024/02/14_14:33:36,YZ,60.14239229
,,,,,,practice,0,27,1,120,8,N,0,right,0.357589806,1,0,,,,,,,,,,,,,,,,,,,,,57,158257,21,Female,1,2024/02/14_14:33:36,YZ,60.14239229
,,,,,,practice,0,27,1,120,9,S,0,right,0.289374237,1,0,,,,,,,,,,,,,,,,,,,,,57,158257,21,Female,1,2024/02/14_14:33:36,YZ,60.14239229
,,,,,,practice,0,27,1,120,10,Q,0,right,0.285793049,1,0,,,,,,,,,,,,,,,,,,,,,57,158257,21,Female,1,2024/02/14_14:33:36,YZ,60.14239229
,,,,,,practice,0,27,1,120,11,X,0,right,0.267843575,1,0,,,,,,,,,,,,,,,,,,,,,57,158257,21,Female,1,2024/02/14_14:33:36,YZ,60.14239229
,,,,,,practice,0,27,1,120,12,X,1,left,0.331885215,1,0,,,,,,,,,,,,,,,,,,,,,57,158257,21,Female,1,2024/02/14_14:33:36,YZ,60.14239229
,,,,,,practice,0,27,1,120,13,S,0,right,0.328881454,1,0,,,,,,,,,,,,,,,,,,,,,57,158257,21,Female,1,2024/02/14_14:33:36,YZ,60.14239229
,,,,,,practice,0,27,1,120,14,S,1,left,0.397813827,1,0,,,,,,,,,,,,,,,,,,,,,57,158257,21,Female,1,2024/02/14_14:33:36,YZ,60.14239229
,,,,,,practice,0,27,1,120,15,C,0,right,0.408063101,1,0,,,,,,,,,,,,,,,,,,,,,57,158257,21,Female,1,2024/02/14_14:33:36,YZ,60.14239229
,,,,,,practice,0,27,1,120,16,C,1,left,0.343879419,1,0,,,,,,,,,,,,,,,,,,,,,57,158257,21,Female,1,2024/02/14_14:33:36,YZ,60.14239229
,,,,,,practice,0,27,1,120,17,V,0,right,0.36411545,1,0,,,,,,,,,,,,,,,,,,,,,57,158257,21,Female,1,2024/02/14_14:33:36,YZ,60.14239229
,,,,,,practice,0,27,1,120,18,V,1,right,0.271972459,0,0,,,,,,,,,,,,,,,,,,,,,57,158257,21,Female,1,2024/02/14_14:33:36,YZ,60.14239229
,,,,,,practice,0,27,1,120,19,F,0,right,0.430909251,1,0,,,,,,,,,,,,,,,,,,,,,57,158257,21,Female,1,2024/02/14_14:33:36,YZ,60.14239229
,,,,,,practice,0,27,1,120,20,F,1,right,0.335890381,0,0,,,,,,,,,,,,,,,,,,,,,57,158257,21,Female,1,2024/02/14_14:33:36,YZ,60.14239229
,,,,,,practice,0,27,1,120,21,S,0,right,0.459048095,1,0,,,,,,,,,,,,,,,,,,,,,57,158257,21,Female,1,2024/02/14_14:33:36,YZ,60.14239229
,,,,,,practice,0,27,1,120,22,C,0,right,0.434905543,1,0,,,,,,,,,,,,,,,,,,,,,57,158257,21,Female,1,2024/02/14_14:33:36,YZ,60.14239229
,,,,,,practice,0,27,1,120,23,S,0,right,0.603742511,1,0,,,,,,,,,,,,,,,,,,,,,57,158257,21,Female,1,2024/02/14_14:33:36,YZ,60.14239229
,,,,,,practice,0,27,1,120,,,,,,,,0.916666667,0.666666667,0,1,0,1,0.394320626,4,0,0,0,0,17,21,6,17,0,,,,57,158257,21,Female,1,2024/02/14_14:33:36,YZ,60.14239229
,,,,,,practice,0,7,1,120,1,S,0,right,0.488249916,1,0,,,,,,,,,,,,,,,,,,,,,57,158257,21,Female,1,2024/02/14_14:33:36,YZ,60.14239229
,,,,,,practice,0,7,1,120,2,V,0,right,0.284655611,1,0,,,,,,,,,,,,,,,,,,,,,57,158257,21,Female,1,2024/02/14_14:33:36,YZ,60.14239229
,,,,,,practice,0,7,1,120,3,S,0,left,0.418817451,0,0,,,,,,,,,,,,,,,,,,,,,57,158257,21,Female,1,2024/02/14_14:33:36,YZ,60.14239229
,,,,,,practice,0,7,1,120,4,F,0,right,0.452035736,1,0,,,,,,,,,,,,,,,,,,,,,57,158257,21,Female,1,2024/02/14_14:33:36,YZ,60.14239229
,,,,,,practice,0,7,1,120,5,V,0,right,0.548343544,1,0,,,,,,,,,,,,,,,,,,,,,57,158257,21,Female,1,2024/02/14_14:33:36,YZ,60.14239229
,,,,,,practice,0,7,1,120,6,N,0,right,0.352567244,1,0,,,,,,,,,,,,,,,,,,,,,57,158257,21,Female,1,2024/02/14_14:33:36,YZ,60.14239229
,,,,,,practice,0,7,1,120,7,N,1,left,0.459211892,1,0,,,,,,,,,,,,,,,,,,,,,57,158257,21,Female,1,2024/02/14_14:33:36,YZ,60.14239229
,,,,,,practice,0,7,1,120,8,Q,0,right,0.458895806,1,0,,,,,,,,,,,,,,,,,,,,,57,158257,21,Female,1,2024/02/14_14:33:36,YZ,60.14239229
,,,,,,practice,0,7,1,120,9,N,0,right,0.562448162,1,0,,,,,,,,,,,,,,,,,,,,,57,158257,21,Female,1,2024/02/14_14:33:36,YZ,60.14239229
,,,,,,practice,0,7,1,120,10,N,1,left,0.502073302,1,0,,,,,,,,,,,,,,,,,,,,,57,158257,21,Female,1,2024/02/14_14:33:36,YZ,60.14239229
,,,,,,practice,0,7,1,120,11,X,0,right,0.419498453,1,0,,,,,,,,,,,,,,,,,,,,,57,158257,21,Female,1,2024/02/14_14:33:36,YZ,60.14239229
,,,,,,practice,0,7,1,120,12,X,1,left,0.405864281,1,0,,,,,,,,,,,,,,,,,,,,,57,158257,21,Female,1,2024/02/14_14:33:36,YZ,60.14239229
,,,,,,practice,0,7,1,120,13,C,0,right,0.421244681,1,0,,,,,,,,,,,,,,,,,,,,,57,158257,21,Female,1,2024/02/14_14:33:36,YZ,60.14239229
,,,,,,practice,0,7,1,120,14,V,0,right,0.45403399,1,0,,,,,,,,,,,,,,,,,,,,,57,158257,21,Female,1,2024/02/14_14:33:36,YZ,60.14239229
,,,,,,practice,0,7,1,120,15,F,0,right,0.333845078,1,0,,,,,,,,,,,,,,,,,,,,,57,158257,21,Female,1,2024/02/14_14:33:36,YZ,60.14239229
,,,,,,practice,0,7,1,120,16,F,1,left,0.434891254,1,0,,,,,,,,,,,,,,,,,,,,,57,158257,21,Female,1,2024/02/14_14:33:36,YZ,60.14239229
,,,,,,practice,0,7,1,120,17,N,0,right,0.353684686,1,0,,,,,,,,,,,,,,,,,,,,,57,158257,21,Female,1,2024/02/14_14:33:36,YZ,60.14239229
,,,,,,practice,0,7,1,120,18,N,1,left,0.437626484,1,0,,,,,,,,,,,,,,,,,,,,,57,158257,21,Female,1,2024/02/14_14:33:36,YZ,60.14239229
,,,,,,practice,0,7,1,120,19,J,0,right,0.36591735,1,0,,,,,,,,,,,,,,,,,,,,,57,158257,21,Female,1,2024/02/14_14:33:36,YZ,60.14239229
,,,,,,practice,0,7,1,120,20,F,0,right,0.553673207,1,0,,,,,,,,,,,,,,,,,,,,,57,158257,21,Female,1,2024/02/14_14:33:36,YZ,60.14239229
,,,,,,practice,0,7,1,120,21,F,1,right,0.333390909,0,0,,,,,,,,,,,,,,,,,,,,,57,158257,21,Female,1,2024/02/14_14:33:36,YZ,60.14239229
,,,,,,practice,0,7,1,120,22,N,0,right,0.367879486,1,0,,,,,,,,,,,,,,,,,,,,,57,158257,21,Female,1,2024/02/14_14:33:36,YZ,60.14239229
,,,,,,practice,0,7,1,120,23,S,0,right,0.475983234,1,0,,,,,,,,,,,,,,,,,,,,,57,158257,21,Female,1,2024/02/14_14:33:36,YZ,60.14239229
,,,,,,practice,0,7,1,120,,,,,,,,0.933823529,0.833333333,0.058823529,0.941176471,0,0.941176471,0.429775294,5,1,0,0,0,16,21,6,17,0,,,,57,158257,21,Female,1,2024/02/14_14:33:36,YZ,60.14239229
1,./instructions/inst_prac_3/Slide37.png,right,9.026018498,730.4492318,739.4752503,,,,,,,,,,,,,,,,,,,,,,,,,,,,,,,,,57,158257,21,Female,1,2024/02/14_14:33:36,YZ,60.14239229
2,./instructions/inst_prac_3/Slide38.png,right,5.473563264,739.5457353,745.0192985,,,,,,,,,,,,,,,,,,,,,,,,,,,,,,,,,57,158257,21,Female,1,2024/02/14_14:33:36,YZ,60.14239229
3,./instructions/inst_prac_3/Slide39.png,right,2.006118171,745.0931619,747.0992801,,,,,,,,,,,,,,,,,,,,,,,,,,,,,,,,,57,158257,21,Female,1,2024/02/14_14:33:36,YZ,60.14239229
4,./instructions/inst_prac_3/Slide40.png,right,2.105284396,747.1459337,749.2512181,,,,,,,,,,,,,,,,,,,,,,,,,,,,,,,,,57,158257,21,Female,1,2024/02/14_14:33:36,YZ,60.14239229
5,./instructions/inst_prac_3/Slide41.png,right,2.297859652,749.3135784,751.611438,,,,,,,,,,,,,,,,,,,,,,,,,,,,,,,,,57,158257,21,Female,1,2024/02/14_14:33:36,YZ,60.14239229
6,./instructions/inst_prac_3/Slide42.png,right,0.762291255,751.6809706,752.4432619,,,,,,,,,,,,,,,,,,,,,,,,,,,,,,,,,57,158257,21,Female,1,2024/02/14_14:33:36,YZ,60.14239229
7,./instructions/inst_prac_3/Slide43.png,right,2.329708038,752.505652,754.83536,,,,,,,,,,,,,,,,,,,,,,,,,,,,,,,,,57,158257,21,Female,1,2024/02/14_14:33:36,YZ,60.14239229
8,./instructions/inst_prac_3/Slide44.png,right,4.605916689,754.90135,759.5072667,,,,,,,,,,,,,,,,,,,,,,,,,,,,,,,,,57,158257,21,Female,1,2024/02/14_14:33:36,YZ,60.14239229
,,,,,,practice,0,4,3,788,1,C,0,right,0.800663901,1,0,,,,,,,,,,,,,,,,,,,,,57,158257,21,Female,1,2024/02/14_14:33:36,YZ,60.14239229
,,,,,,practice,0,4,3,788,2,Q,0,right,0.388715707,1,0,,,,,,,,,,,,,,,,,,,,,57,158257,21,Female,1,2024/02/14_14:33:36,YZ,60.14239229
,,,,,,practice,0,4,3,788,3,V,0,right,0.279566601,1,0,,,,,,,,,,,,,,,,,,,,,57,158257,21,Female,1,2024/02/14_14:33:36,YZ,60.14239229
,,,,,,practice,0,4,3,788,4,F,0,right,1.913134079,1,0,,,,,,,,,,,,,,,,,,,,,57,158257,21,Female,1,2024/02/14_14:33:36,YZ,60.14239229
,,,,,,practice,0,4,3,788,5,Q,1,left,1.271171972,1,0,,,,,,,,,,,,,,,,,,,,,57,158257,21,Female,1,2024/02/14_14:33:36,YZ,60.14239229
,,,,,,practice,0,4,3,788,6,V,1,left,0.752207259,1,0,,,,,,,,,,,,,,,,,,,,,57,158257,21,Female,1,2024/02/14_14:33:36,YZ,60.14239229
,,,,,,practice,0,4,3,788,7,X,0,right,1.078194608,1,0,,,,,,,,,,,,,,,,,,,,,57,158257,21,Female,1,2024/02/14_14:33:36,YZ,60.14239229
,,,,,,practice,0,4,3,788,8,Q,1,left,0.805815769,1,0,,,,,,,,,,,,,,,,,,,,,57,158257,21,Female,1,2024/02/14_14:33:36,YZ,60.14239229
,,,,,,practice,0,4,3,788,9,N,0,right,0.889918764,1,0,,,,,,,,,,,,,,,,,,,,,57,158257,21,Female,1,2024/02/14_14:33:36,YZ,60.14239229
,,,,,,practice,0,4,3,788,10,V,0,right,1.104375217,1,0,,,,,,,,,,,,,,,,,,,,,57,158257,21,Female,1,2024/02/14_14:33:36,YZ,60.14239229
,,,,,,practice,0,4,3,788,11,S,0,right,1.34427218,1,0,,,,,,,,,,,,,,,,,,,,,57,158257,21,Female,1,2024/02/14_14:33:36,YZ,60.14239229
,,,,,,practice,0,4,3,788,12,N,1,left,7.781022474,1,0,,,,,,,,,,,,,,,,,,,,,57,158257,21,Female,1,2024/02/14_14:33:36,YZ,60.14239229
