Instruction,Stimulus,Key,RT,START,END,Phase,Block,TrialN,NbackLevel,ISI,LetterN,Letter,Letter_isSame,Letter_Resp,Letter_RT,Letter_Accuracy,Letter_Timeout,Trial_A_measure,Trial_HR,Trial_FAR,Trial_CDR,Trial_MSR,Trial_ACC,Trial_RT,Trial_HitsCount,Trial_FAsCount,Trial_SameNoRespCount,Trial_DiffNoRespCount,Trial_NoRespCount,Trial_CDsCount,Trial_CorrectRespCount,Trial_SameLetterCount,Trial_DiffLetterCount,Trial_InvalidLetterCount,TrialCountCali,CaliEnd_A_measure,ISI_calibrated,Run,TrialIndex,TrialNumber_total,TrialNumber_valid,CueLearning,TrialDemandLearning,CueMapping,OnlineRating,OnlineRatingRT,OnlineRatingTimeOut,CueSTART,RatingSTART,OfflineRatingTimePoint,OfflineRatingQuesIndex,CueFigure,TrialDemand,OfflineRating,OfflineRatingRT,CueStart,OfflineRatingStart,PhaseType,CueLeft,CueDemandLeft,CueRight,CueDemandRight,Choice,ChoiceDemand,TaskDemand,ChoiceRT,ChoiceTimeOut,ChoiceSTART,CueCheck,CueDemandCheck,CorrectAnswer,Answer,AnswerDemand,AnswerRT,AnswerACC,AnswerTimeOut,CheckSTART,DemandRatingQuesIndex,QuesTLX,DemandLevel,DemandRating,DemandRatingRT,QuesStart,PID,SONA,Age,Gender,Run,TIME,EXPERIMENTER,frameRate,
1,./instructions/inst_begin/Slide2.png,right,22.64995285599798,0.11044933500306797,22.76040219100105,,,,,,,,,,,,,,,,,,,,,,,,,,,,,,,,,1,,,,,,,,,,,,,,,,,,,,,,,,,,,,,,,,,,,,,,,,,,,,,,126,148423,23,Male,1,2024/03/26_14:01:41,YZ,None,
2,./instructions/inst_begin/Slide3.png,right,11.098457927997515,22.789855507002358,33.88831343499987,,,,,,,,,,,,,,,,,,,,,,,,,,,,,,,,,1,,,,,,,,,,,,,,,,,,,,,,,,,,,,,,,,,,,,,,,,,,,,,,126,148423,23,Male,1,2024/03/26_14:01:41,YZ,None,
3,./instructions/inst_begin/Slide4.png,right,11.937984203999804,33.91809201200158,45.856076216001384,,,,,,,,,,,,,,,,,,,,,,,,,,,,,,,,,1,,,,,,,,,,,,,,,,,,,,,,,,,,,,,,,,,,,,,,,,,,,,,,126,148423,23,Male,1,2024/03/26_14:01:41,YZ,None,
1,./instructions/inst_prac_2/Slide6.png,right,20.270563369998854,45.88977888700174,66.1603422570006,,,,,,,,,,,,,,,,,,,,,,,,,,,,,,,,,1,,,,,,,,,,,,,,,,,,,,,,,,,,,,,,,,,,,,,,,,,,,,,,126,148423,23,Male,1,2024/03/26_14:01:41,YZ,None,
2,./instructions/inst_prac_2/Slide7.png,right,17.050641169997107,66.18968732200301,83.24032849200012,,,,,,,,,,,,,,,,,,,,,,,,,,,,,,,,,1,,,,,,,,,,,,,,,,,,,,,,,,,,,,,,,,,,,,,,,,,,,,,,126,148423,23,Male,1,2024/03/26_14:01:41,YZ,None,
3,./instructions/inst_prac_2/Slide8.png,right,31.250627550998615,83.26965860800192,114.52028615900053,,,,,,,,,,,,,,,,,,,,,,,,,,,,,,,,,1,,,,,,,,,,,,,,,,,,,,,,,,,,,,,,,,,,,,,,,,,,,,,,126,148423,23,Male,1,2024/03/26_14:01:41,YZ,None,
4,./instructions/inst_prac_2/Slide9.png,right,3.4939673070002755,114.54629132500122,118.0402586320015,,,,,,,,,,,,,,,,,,,,,,,,,,,,,,,,,1,,,,,,,,,,,,,,,,,,,,,,,,,,,,,,,,,,,,,,,,,,,,,,126,148423,23,Male,1,2024/03/26_14:01:41,YZ,None,
5,./instructions/inst_prac_2/Slide10.png,right,4.4626208410008985,118.06558024900005,122.52820109000095,,,,,,,,,,,,,,,,,,,,,,,,,,,,,,,,,1,,,,,,,,,,,,,,,,,,,,,,,,,,,,,,,,,,,,,,,,,,,,,,126,148423,23,Male,1,2024/03/26_14:01:41,YZ,None,
6,./instructions/inst_prac_2/Slide11.png,right,1.371025053998892,122.55730289200073,123.92832794599963,,,,,,,,,,,,,,,,,,,,,,,,,,,,,,,,,1,,,,,,,,,,,,,,,,,,,,,,,,,,,,,,,,,,,,,,,,,,,,,,126,148423,23,Male,1,2024/03/26_14:01:41,YZ,None,
7,./instructions/inst_prac_2/Slide12.png,right,1.0149054050016275,123.9533137340004,124.96821913900203,,,,,,,,,,,,,,,,,,,,,,,,,,,,,,,,,1,,,,,,,,,,,,,,,,,,,,,,,,,,,,,,,,,,,,,,,,,,,,,,126,148423,23,Male,1,2024/03/26_14:01:41,YZ,None,
8,./instructions/inst_prac_2/Slide13.png,right,1.6189485369977774,124.99719661900235,126.61614515600013,,,,,,,,,,,,,,,,,,,,,,,,,,,,,,,,,1,,,,,,,,,,,,,,,,,,,,,,,,,,,,,,,,,,,,,,,,,,,,,,126,148423,23,Male,1,2024/03/26_14:01:41,YZ,None,
9,./instructions/inst_prac_2/Slide14.png,right,9.491191359000368,126.64523862799979,136.13642998700016,,,,,,,,,,,,,,,,,,,,,,,,,,,,,,,,,1,,,,,,,,,,,,,,,,,,,,,,,,,,,,,,,,,,,,,,,,,,,,,,126,148423,23,Male,1,2024/03/26_14:01:41,YZ,None,
10,./instructions/inst_prac_2/Slide15.png,right,20.418718020002416,136.16571302900047,156.5844310490029,,,,,,,,,,,,,,,,,,,,,,,,,,,,,,,,,1,,,,,,,,,,,,,,,,,,,,,,,,,,,,,,,,,,,,,,,,,,,,,,126,148423,23,Male,1,2024/03/26_14:01:41,YZ,None,
,,,,,,practice,0,31,2,2583,1,J,0,right,1.4895230030015227,1,0,,,,,,,,,,,,,,,,,,,,,1,,,,,,,,,,,,,,,,,,,,,,,,,,,,,,,,,,,,,,,,,,,,,,126,148423,23,Male,1,2024/03/26_14:01:41,YZ,None,
,,,,,,practice,0,31,2,2583,2,S,0,right,1.925074325998139,1,0,,,,,,,,,,,,,,,,,,,,,1,,,,,,,,,,,,,,,,,,,,,,,,,,,,,,,,,,,,,,,,,,,,,,126,148423,23,Male,1,2024/03/26_14:01:41,YZ,None,
,,,,,,practice,0,31,2,2583,3,X,0,right,1.3553812579993973,1,0,,,,,,,,,,,,,,,,,,,,,1,,,,,,,,,,,,,,,,,,,,,,,,,,,,,,,,,,,,,,,,,,,,,,126,148423,23,Male,1,2024/03/26_14:01:41,YZ,None,
,,,,,,practice,0,31,2,2583,4,J,0,left,1.507441377001669,0,0,,,,,,,,,,,,,,,,,,,,,1,,,,,,,,,,,,,,,,,,,,,,,,,,,,,,,,,,,,,,,,,,,,,,126,148423,23,Male,1,2024/03/26_14:01:41,YZ,None,
,,,,,,practice,0,31,2,2583,5,X,1,right,1.2283859980016132,0,0,,,,,,,,,,,,,,,,,,,,,1,,,,,,,,,,,,,,,,,,,,,,,,,,,,,,,,,,,,,,,,,,,,,,126,148423,23,Male,1,2024/03/26_14:01:41,YZ,None,
,,,,,,practice,0,31,2,2583,6,J,1,left,1.4859524779967614,1,0,,,,,,,,,,,,,,,,,,,,,1,,,,,,,,,,,,,,,,,,,,,,,,,,,,,,,,,,,,,,,,,,,,,,126,148423,23,Male,1,2024/03/26_14:01:41,YZ,None,
,,,,,,practice,0,31,2,2583,,,,,,,,0.6875,0.5,0.25,0.75,0.0,0.75,1.4986264066665171,1,1,0,0,0,3,4,2,4,0,,,,1,,,,,,,,,,,,,,,,,,,,,,,,,,,,,,,,,,,,,,,,,,,,,,126,148423,23,Male,1,2024/03/26_14:01:41,YZ,None,
1,./instructions/inst_redo_2/Slide18.png,right,5.743614382998203,172.9607394270024,178.7043538100006,,,,,,,,,,,,,,,,,,,,,,,,,,,,,,,,,1,,,,,,,,,,,,,,,,,,,,,,,,,,,,,,,,,,,,,,,,,,,,,,126,148423,23,Male,1,2024/03/26_14:01:41,YZ,None,
,,,,,,practice,0,20,2,2583,1,S,0,right,1.359687075997499,1,0,,,,,,,,,,,,,,,,,,,,,1,,,,,,,,,,,,,,,,,,,,,,,,,,,,,,,,,,,,,,,,,,,,,,126,148423,23,Male,1,2024/03/26_14:01:41,YZ,None,
,,,,,,practice,0,20,2,2583,2,F,0,right,1.6111888229970646,1,0,,,,,,,,,,,,,,,,,,,,,1,,,,,,,,,,,,,,,,,,,,,,,,,,,,,,,,,,,,,,,,,,,,,,126,148423,23,Male,1,2024/03/26_14:01:41,YZ,None,
,,,,,,practice,0,20,2,2583,3,S,1,left,1.1444631259982998,1,0,,,,,,,,,,,,,,,,,,,,,1,,,,,,,,,,,,,,,,,,,,,,,,,,,,,,,,,,,,,,,,,,,,,,126,148423,23,Male,1,2024/03/26_14:01:41,YZ,None,
,,,,,,practice,0,20,2,2583,4,N,0,right,1.7475173490020097,1,0,,,,,,,,,,,,,,,,,,,,,1,,,,,,,,,,,,,,,,,,,,,,,,,,,,,,,,,,,,,,,,,,,,,,126,148423,23,Male,1,2024/03/26_14:01:41,YZ,None,
,,,,,,practice,0,20,2,2583,5,S,1,right,1.7065660829975968,0,0,,,,,,,,,,,,,,,,,,,,,1,,,,,,,,,,,,,,,,,,,,,,,,,,,,,,,,,,,,,,,,,,,,,,126,148423,23,Male,1,2024/03/26_14:01:41,YZ,None,
,,,,,,practice,0,20,2,2583,6,C,0,right,1.3440764709994255,1,0,,,,,,,,,,,,,,,,,,,,,1,,,,,,,,,,,,,,,,,,,,,,,,,,,,,,,,,,,,,,,,,,,,,,126,148423,23,Male,1,2024/03/26_14:01:41,YZ,None,
,,,,,,practice,0,20,2,2583,,,,,,,,0.875,0.5,0.0,1.0,0.0,1.0,1.485583154665316,1,0,0,0,0,4,5,2,4,0,,,,1,,,,,,,,,,,,,,,,,,,,,,,,,,,,,,,,,,,,,,,,,,,,,,126,148423,23,Male,1,2024/03/26_14:01:41,YZ,None,
1,./instructions/inst_to_cali/Slide20.png,right,10.80013849900206,195.4962304569999,206.29636895600197,,,,,,,,,,,,,,,,,,,,,,,,,,,,,,,,,1,,,,,,,,,,,,,,,,,,,,,,,,,,,,,,,,,,,,,,,,,,,,,,126,148423,23,Male,1,2024/03/26_14:01:41,YZ,None,
1,./instructions/inst_cali/Slide22.png,right,11.05624700000044,206.32794332100093,217.38419032100137,,,,,,,,,,,,,,,,,,,,,,,,,,,,,,,,,1,,,,,,,,,,,,,,,,,,,,,,,,,,,,,,,,,,,,,,,,,,,,,,126,148423,23,Male,1,2024/03/26_14:01:41,YZ,None,
,,,,,,calibration,0,31,2,583,1,C,0,right,0.7121980610027094,1,0,,,,,,,,,,,,,,,,,,,,,1,,,,,,,,,,,,,,,,,,,,,,,,,,,,,,,,,,,,,,,,,,,,,,126,148423,23,Male,1,2024/03/26_14:01:41,YZ,None,
,,,,,,calibration,0,31,2,583,2,C,0,right,0.8161107730011281,1,0,,,,,,,,,,,,,,,,,,,,,1,,,,,,,,,,,,,,,,,,,,,,,,,,,,,,,,,,,,,,,,,,,,,,126,148423,23,Male,1,2024/03/26_14:01:41,YZ,None,
,,,,,,calibration,0,31,2,583,3,C,1,left,0.7601313359991764,1,0,,,,,,,,,,,,,,,,,,,,,1,,,,,,,,,,,,,,,,,,,,,,,,,,,,,,,,,,,,,,,,,,,,,,126,148423,23,Male,1,2024/03/26_14:01:41,YZ,None,
,,,,,,calibration,0,31,2,583,4,C,1,left,1.0918615759983368,1,0,,,,,,,,,,,,,,,,,,,,,1,,,,,,,,,,,,,,,,,,,,,,,,,,,,,,,,,,,,,,,,,,,,,,126,148423,23,Male,1,2024/03/26_14:01:41,YZ,None,
,,,,,,calibration,0,31,2,583,5,N,0,right,0.9191540920000989,1,0,,,,,,,,,,,,,,,,,,,,,1,,,,,,,,,,,,,,,,,,,,,,,,,,,,,,,,,,,,,,,,,,,,,,126,148423,23,Male,1,2024/03/26_14:01:41,YZ,None,
,,,,,,calibration,0,31,2,583,6,Q,0,right,1.074338746999274,1,0,,,,,,,,,,,,,,,,,,,,,1,,,,,,,,,,,,,,,,,,,,,,,,,,,,,,,,,,,,,,,,,,,,,,126,148423,23,Male,1,2024/03/26_14:01:41,YZ,None,
,,,,,,calibration,0,31,2,583,7,S,0,left,1.0257680260001507,0,0,,,,,,,,,,,,,,,,,,,,,1,,,,,,,,,,,,,,,,,,,,,,,,,,,,,,,,,,,,,,,,,,,,,,126,148423,23,Male,1,2024/03/26_14:01:41,YZ,None,
,,,,,,calibration,0,31,2,583,8,V,0,right,1.050433553999028,1,0,,,,,,,,,,,,,,,,,,,,,1,,,,,,,,,,,,,,,,,,,,,,,,,,,,,,,,,,,,,,,,,,,,,,126,148423,23,Male,1,2024/03/26_14:01:41,YZ,None,
,,,,,,calibration,0,31,2,583,9,F,0,right,1.174735034997866,1,0,,,,,,,,,,,,,,,,,,,,,1,,,,,,,,,,,,,,,,,,,,,,,,,,,,,,,,,,,,,,,,,,,,,,126,148423,23,Male,1,2024/03/26_14:01:41,YZ,None,
,,,,,,calibration,0,31,2,583,10,X,0,right,0.8419782260025386,1,0,,,,,,,,,,,,,,,,,,,,,1,,,,,,,,,,,,,,,,,,,,,,,,,,,,,,,,,,,,,,,,,,,,,,126,148423,23,Male,1,2024/03/26_14:01:41,YZ,None,
,,,,,,calibration,0,31,2,583,11,F,1,left,1.0058718799991766,1,0,,,,,,,,,,,,,,,,,,,,,1,,,,,,,,,,,,,,,,,,,,,,,,,,,,,,,,,,,,,,,,,,,,,,126,148423,23,Male,1,2024/03/26_14:01:41,YZ,None,
,,,,,,calibration,0,31,2,583,12,X,1,right,0.8426412650005659,0,0,,,,,,,,,,,,,,,,,,,,,1,,,,,,,,,,,,,,,,,,,,,,,,,,,,,,,,,,,,,,,,,,,,,,126,148423,23,Male,1,2024/03/26_14:01:41,YZ,None,
,,,,,,calibration,0,31,2,583,13,Q,0,left,0.9487601169967093,0,0,,,,,,,,,,,,,,,,,,,,,1,,,,,,,,,,,,,,,,,,,,,,,,,,,,,,,,,,,,,,,,,,,,,,126,148423,23,Male,1,2024/03/26_14:01:41,YZ,None,
,,,,,,calibration,0,31,2,583,14,F,0,right,1.308161608998489,1,0,,,,,,,,,,,,,,,,,,,,,1,,,,,,,,,,,,,,,,,,,,,,,,,,,,,,,,,,,,,,,,,,,,,,126,148423,23,Male,1,2024/03/26_14:01:41,YZ,None,
,,,,,,calibration,0,31,2,583,15,X,0,right,1.3187173110018193,1,0,,,,,,,,,,,,,,,,,,,,,1,,,,,,,,,,,,,,,,,,,,,,,,,,,,,,,,,,,,,,,,,,,,,,126,148423,23,Male,1,2024/03/26_14:01:41,YZ,None,
,,,,,,calibration,0,31,2,583,,,,,,,,0.8465909090909092,0.75,0.18181818181818182,0.8181818181818182,0.0,0.8181818181818181,0.9927241071998044,3,2,0,0,0,9,12,4,11,0,,,,1,,,,,,,,,,,,,,,,,,,,,,,,,,,,,,,,,,,,,,,,,,,,,,126,148423,23,Male,1,2024/03/26_14:01:41,YZ,None,
,,,,,,Calibration,0,,2,583,,,,,,,,,,,,,,,,,,,,,,,,,1,,,1,,,,,,,,,,,,,,,,,,,,,,,,,,,,,,,,,,,,,,,,,,,,,,126,148423,23,Male,1,2024/03/26_14:01:41,YZ,None,
,,,,,,calibration,0,10,2,583,1,F,0,right,0.9262915910003358,1,0,,,,,,,,,,,,,,,,,,,,,1,,,,,,,,,,,,,,,,,,,,,,,,,,,,,,,,,,,,,,,,,,,,,,126,148423,23,Male,1,2024/03/26_14:01:41,YZ,None,
,,,,,,calibration,0,10,2,583,2,V,0,right,0.7384098709990212,1,0,,,,,,,,,,,,,,,,,,,,,1,,,,,,,,,,,,,,,,,,,,,,,,,,,,,,,,,,,,,,,,,,,,,,126,148423,23,Male,1,2024/03/26_14:01:41,YZ,None,
,,,,,,calibration,0,10,2,583,3,S,0,right,0.763127013000485,1,0,,,,,,,,,,,,,,,,,,,,,1,,,,,,,,,,,,,,,,,,,,,,,,,,,,,,,,,,,,,,,,,,,,,,126,148423,23,Male,1,2024/03/26_14:01:41,YZ,None,
,,,,,,calibration,0,10,2,583,4,N,0,right,0.7411360389996844,1,0,,,,,,,,,,,,,,,,,,,,,1,,,,,,,,,,,,,,,,,,,,,,,,,,,,,,,,,,,,,,,,,,,,,,126,148423,23,Male,1,2024/03/26_14:01:41,YZ,None,
,,,,,,calibration,0,10,2,583,5,V,0,right,0.9888333340022655,1,0,,,,,,,,,,,,,,,,,,,,,1,,,,,,,,,,,,,,,,,,,,,,,,,,,,,,,,,,,,,,,,,,,,,,126,148423,23,Male,1,2024/03/26_14:01:41,YZ,None,
,,,,,,calibration,0,10,2,583,6,N,1,left,0.845528875997843,1,0,,,,,,,,,,,,,,,,,,,,,1,,,,,,,,,,,,,,,,,,,,,,,,,,,,,,,,,,,,,,,,,,,,,,126,148423,23,Male,1,2024/03/26_14:01:41,YZ,None,
,,,,,,calibration,0,10,2,583,7,Q,0,right,0.625109352000436,1,0,,,,,,,,,,,,,,,,,,,,,1,,,,,,,,,,,,,,,,,,,,,,,,,,,,,,,,,,,,,,,,,,,,,,126,148423,23,Male,1,2024/03/26_14:01:41,YZ,None,
,,,,,,calibration,0,10,2,583,8,N,1,left,1.008703607996722,1,0,,,,,,,,,,,,,,,,,,,,,1,,,,,,,,,,,,,,,,,,,,,,,,,,,,,,,,,,,,,,,,,,,,,,126,148423,23,Male,1,2024/03/26_14:01:41,YZ,None,
,,,,,,calibration,0,10,2,583,9,S,0,right,0.8239406280008552,1,0,,,,,,,,,,,,,,,,,,,,,1,,,,,,,,,,,,,,,,,,,,,,,,,,,,,,,,,,,,,,,,,,,,,,126,148423,23,Male,1,2024/03/26_14:01:41,YZ,None,
,,,,,,calibration,0,10,2,583,10,N,1,left,1.0915730279994023,1,0,,,,,,,,,,,,,,,,,,,,,1,,,,,,,,,,,,,,,,,,,,,,,,,,,,,,,,,,,,,,,,,,,,,,126,148423,23,Male,1,2024/03/26_14:01:41,YZ,None,
,,,,,,calibration,0,10,2,583,11,C,0,right,0.7167284749993996,1,0,,,,,,,,,,,,,,,,,,,,,1,,,,,,,,,,,,,,,,,,,,,,,,,,,,,,,,,,,,,,,,,,,,,,126,148423,23,Male,1,2024/03/26_14:01:41,YZ,None,
,,,,,,calibration,0,10,2,583,12,S,0,left,0.869465843999933,0,0,,,,,,,,,,,,,,,,,,,,,1,,,,,,,,,,,,,,,,,,,,,,,,,,,,,,,,,,,,,,,,,,,,,,126,148423,23,Male,1,2024/03/26_14:01:41,YZ,None,
,,,,,,calibration,0,10,2,583,13,C,1,right,1.5027489999993122,0,0,,,,,,,,,,,,,,,,,,,,,1,,,,,,,,,,,,,,,,,,,,,,,,,,,,,,,,,,,,,,,,,,,,,,126,148423,23,Male,1,2024/03/26_14:01:41,YZ,None,
,,,,,,calibration,0,10,2,583,14,Q,0,right,0.8230381130015303,1,0,,,,,,,,,,,,,,,,,,,,,1,,,,,,,,,,,,,,,,,,,,,,,,,,,,,,,,,,,,,,,,,,,,,,126,148423,23,Male,1,2024/03/26_14:01:41,YZ,None,
,,,,,,calibration,0,10,2,583,15,S,0,right,1.0188081240012252,1,0,,,,,,,,,,,,,,,,,,,,,1,,,,,,,,,,,,,,,,,,,,,,,,,,,,,,,,,,,,,,,,,,,,,,126,148423,23,Male,1,2024/03/26_14:01:41,YZ,None,
,,,,,,calibration,0,10,2,583,,,,,,,,0.8920454545454546,0.75,0.09090909090909091,0.9090909090909091,0.0,0.9090909090909091,0.8988961930665634,3,1,0,0,0,10,13,4,11,0,,,,1,,,,,,,,,,,,,,,,,,,,,,,,,,,,,,,,,,,,,,,,,,,,,,126,148423,23,Male,1,2024/03/26_14:01:41,YZ,None,
,,,,,,Calibration,0,,2,583,,,,,,,,,,,,,,,,,,,,,,,,,2,,,1,,,,,,,,,,,,,,,,,,,,,,,,,,,,,,,,,,,,,,,,,,,,,,126,148423,23,Male,1,2024/03/26_14:01:41,YZ,None,
,,,,,,calibration,0,10,2,500,1,N,0,right,0.858423944999231,1,0,,,,,,,,,,,,,,,,,,,,,1,,,,,,,,,,,,,,,,,,,,,,,,,,,,,,,,,,,,,,,,,,,,,,126,148423,23,Male,1,2024/03/26_14:01:41,YZ,None,
,,,,,,calibration,0,10,2,500,2,C,0,right,0.6690092950011604,1,0,,,,,,,,,,,,,,,,,,,,,1,,,,,,,,,,,,,,,,,,,,,,,,,,,,,,,,,,,,,,,,,,,,,,126,148423,23,Male,1,2024/03/26_14:01:41,YZ,None,
,,,,,,calibration,0,10,2,500,3,S,0,right,0.8385847359968466,1,0,,,,,,,,,,,,,,,,,,,,,1,,,,,,,,,,,,,,,,,,,,,,,,,,,,,,,,,,,,,,,,,,,,,,126,148423,23,Male,1,2024/03/26_14:01:41,YZ,None,
,,,,,,calibration,0,10,2,500,4,C,1,right,nan,0,1,,,,,,,,,,,,,,,,,,,,,1,,,,,,,,,,,,,,,,,,,,,,,,,,,,,,,,,,,,,,,,,,,,,,126,148423,23,Male,1,2024/03/26_14:01:41,YZ,None,
,,,,,,calibration,0,10,2,500,5,N,0,right,nan,0,1,,,,,,,,,,,,,,,,,,,,,1,,,,,,,,,,,,,,,,,,,,,,,,,,,,,,,,,,,,,,,,,,,,,,126,148423,23,Male,1,2024/03/26_14:01:41,YZ,None,
,,,,,,calibration,0,10,2,500,6,V,0,right,0.9740732880018186,1,0,,,,,,,,,,,,,,,,,,,,,1,,,,,,,,,,,,,,,,,,,,,,,,,,,,,,,,,,,,,,,,,,,,,,126,148423,23,Male,1,2024/03/26_14:01:41,YZ,None,
,,,,,,calibration,0,10,2,500,7,Q,0,right,0.7052030059967365,1,0,,,,,,,,,,,,,,,,,,,,,1,,,,,,,,,,,,,,,,,,,,,,,,,,,,,,,,,,,,,,,,,,,,,,126,148423,23,Male,1,2024/03/26_14:01:41,YZ,None,
,,,,,,calibration,0,10,2,500,8,N,0,right,0.8018341780007177,1,0,,,,,,,,,,,,,,,,,,,,,1,,,,,,,,,,,,,,,,,,,,,,,,,,,,,,,,,,,,,,,,,,,,,,126,148423,23,Male,1,2024/03/26_14:01:41,YZ,None,
,,,,,,calibration,0,10,2,500,9,J,0,right,0.7522534089985129,1,0,,,,,,,,,,,,,,,,,,,,,1,,,,,,,,,,,,,,,,,,,,,,,,,,,,,,,,,,,,,,,,,,,,,,126,148423,23,Male,1,2024/03/26_14:01:41,YZ,None,
,,,,,,calibration,0,10,2,500,10,N,1,left,0.8281099390005693,1,0,,,,,,,,,,,,,,,,,,,,,1,,,,,,,,,,,,,,,,,,,,,,,,,,,,,,,,,,,,,,,,,,,,,,126,148423,23,Male,1,2024/03/26_14:01:41,YZ,None,
,,,,,,calibration,0,10,2,500,11,V,0,left,nan,0,1,,,,,,,,,,,,,,,,,,,,,1,,,,,,,,,,,,,,,,,,,,,,,,,,,,,,,,,,,,,,,,,,,,,,126,148423,23,Male,1,2024/03/26_14:01:41,YZ,None,
,,,,,,calibration,0,10,2,500,12,C,0,right,0.0,1,0,,,,,,,,,,,,,,,,,,,,,1,,,,,,,,,,,,,,,,,,,,,,,,,,,,,,,,,,,,,,,,,,,,,,126,148423,23,Male,1,2024/03/26_14:01:41,YZ,None,
,,,,,,calibration,0,10,2,500,13,F,0,right,nan,0,1,,,,,,,,,,,,,,,,,,,,,1,,,,,,,,,,,,,,,,,,,,,,,,,,,,,,,,,,,,,,,,,,,,,,126,148423,23,Male,1,2024/03/26_14:01:41,YZ,None,
,,,,,,calibration,0,10,2,500,14,C,1,right,nan,0,1,,,,,,,,,,,,,,,,,,,,,1,,,,,,,,,,,,,,,,,,,,,,,,,,,,,,,,,,,,,,,,,,,,,,126,148423,23,Male,1,2024/03/26_14:01:41,YZ,None,
,,,,,,calibration,0,10,2,500,15,F,1,left,0.8819533310015686,1,0,,,,,,,,,,,,,,,,,,,,,1,,,,,,,,,,,,,,,,,,,,,,,,,,,,,,,,,,,,,,,,,,,,,,126,148423,23,Male,1,2024/03/26_14:01:41,YZ,None,
,,,,,,calibration,0,10,2,500,16,J,0,right,0.7578553549974458,1,0,,,,,,,,,,,,,,,,,,,,,1,,,,,,,,,,,,,,,,,,,,,,,,,,,,,,,,,,,,,,,,,,,,,,126,148423,23,Male,1,2024/03/26_14:01:41,YZ,None,
,,,,,,calibration,0,10,2,500,,,,,,,,0.875,0.5,0.0,1.0,0.3125,0.6875,0.7333909529086007,2,0,2,3,5,9,11,4,12,0,,,,1,,,,,,,,,,,,,,,,,,,,,,,,,,,,,,,,,,,,,,,,,,,,,,126,148423,23,Male,1,2024/03/26_14:01:41,YZ,None,
,,,,,,Calibration,0,,2,500,,,,,,,,,,,,,,,,,,,,,,,,,3,,,1,,,,,,,,,,,,,,,,,,,,,,,,,,,,,,,,,,,,,,,,,,,,,,126,148423,23,Male,1,2024/03/26_14:01:41,YZ,None,
,,,,,,calibration,0,7,2,426,1,N,0,right,0.8916584649996366,1,0,,,,,,,,,,,,,,,,,,,,,1,,,,,,,,,,,,,,,,,,,,,,,,,,,,,,,,,,,,,,,,,,,,,,126,148423,23,Male,1,2024/03/26_14:01:41,YZ,None,
,,,,,,calibration,0,7,2,426,2,S,0,right,0.5748971030006942,1,0,,,,,,,,,,,,,,,,,,,,,1,,,,,,,,,,,,,,,,,,,,,,,,,,,,,,,,,,,,,,,,,,,,,,126,148423,23,Male,1,2024/03/26_14:01:41,YZ,None,
,,,,,,calibration,0,7,2,426,3,Q,0,right,0.624469346999831,1,0,,,,,,,,,,,,,,,,,,,,,1,,,,,,,,,,,,,,,,,,,,,,,,,,,,,,,,,,,,,,,,,,,,,,126,148423,23,Male,1,2024/03/26_14:01:41,YZ,None,
,,,,,,calibration,0,7,2,426,4,C,0,right,0.6612423160004255,1,0,,,,,,,,,,,,,,,,,,,,,1,,,,,,,,,,,,,,,,,,,,,,,,,,,,,,,,,,,,,,,,,,,,,,126,148423,23,Male,1,2024/03/26_14:01:41,YZ,None,
,,,,,,calibration,0,7,2,426,5,Q,1,left,0.6820724009994592,1,0,,,,,,,,,,,,,,,,,,,,,1,,,,,,,,,,,,,,,,,,,,,,,,,,,,,,,,,,,,,,,,,,,,,,126,148423,23,Male,1,2024/03/26_14:01:41,YZ,None,
,,,,,,calibration,0,7,2,426,6,X,0,right,0.9474948309980391,1,0,,,,,,,,,,,,,,,,,,,,,1,,,,,,,,,,,,,,,,,,,,,,,,,,,,,,,,,,,,,,,,,,,,,,126,148423,23,Male,1,2024/03/26_14:01:41,YZ,None,
,,,,,,calibration,0,7,2,426,7,N,0,right,nan,0,1,,,,,,,,,,,,,,,,,,,,,1,,,,,,,,,,,,,,,,,,,,,,,,,,,,,,,,,,,,,,,,,,,,,,126,148423,23,Male,1,2024/03/26_14:01:41,YZ,None,
,,,,,,calibration,0,7,2,426,8,Q,0,left,0.9927915890002623,0,0,,,,,,,,,,,,,,,,,,,,,1,,,,,,,,,,,,,,,,,,,,,,,,,,,,,,,,,,,,,,,,,,,,,,126,148423,23,Male,1,2024/03/26_14:01:41,YZ,None,
,,,,,,calibration,0,7,2,426,9,N,1,left,nan,0,1,,,,,,,,,,,,,,,,,,,,,1,,,,,,,,,,,,,,,,,,,,,,,,,,,,,,,,,,,,,,,,,,,,,,126,148423,23,Male,1,2024/03/26_14:01:41,YZ,None,
,,,,,,calibration,0,7,2,426,10,Q,1,left,nan,0,1,,,,,,,,,,,,,,,,,,,,,1,,,,,,,,,,,,,,,,,,,,,,,,,,,,,,,,,,,,,,,,,,,,,,126,148423,23,Male,1,2024/03/26_14:01:41,YZ,None,
,,,,,,calibration,0,7,2,426,11,X,0,right,0.6739757909999753,1,0,,,,,,,,,,,,,,,,,,,,,1,,,,,,,,,,,,,,,,,,,,,,,,,,,,,,,,,,,,,,,,,,,,,,126,148423,23,Male,1,2024/03/26_14:01:41,YZ,None,
,,,,,,calibration,0,7,2,426,12,C,0,right,nan,0,1,,,,,,,,,,,,,,,,,,,,,1,,,,,,,,,,,,,,,,,,,,,,,,,,,,,,,,,,,,,,,,,,,,,,126,148423,23,Male,1,2024/03/26_14:01:41,YZ,None,
,,,,,,calibration,0,7,2,426,13,Q,0,left,0.9085173309977108,0,0,,,,,,,,,,,,,,,,,,,,,1,,,,,,,,,,,,,,,,,,,,,,,,,,,,,,,,,,,,,,,,,,,,,,126,148423,23,Male,1,2024/03/26_14:01:41,YZ,None,
,,,,,,calibration,0,7,2,426,14,S,0,right,0.8713663909984461,1,0,,,,,,,,,,,,,,,,,,,,,1,,,,,,,,,,,,,,,,,,,,,,,,,,,,,,,,,,,,,,,,,,,,,,126,148423,23,Male,1,2024/03/26_14:01:41,YZ,None,
,,,,,,calibration,0,7,2,426,15,Q,1,left,0.7453909739997471,1,0,,,,,,,,,,,,,,,,,,,,,1,,,,,,,,,,,,,,,,,,,,,,,,,,,,,,,,,,,,,,,,,,,,,,126,148423,23,Male,1,2024/03/26_14:01:41,YZ,None,
,,,,,,calibration,0,7,2,426,16,S,1,right,0.8475172670005122,0,0,,,,,,,,,,,,,,,,,,,,,1,,,,,,,,,,,,,,,,,,,,,,,,,,,,,,,,,,,,,,,,,,,,,,126,148423,23,Male,1,2024/03/26_14:01:41,YZ,None,
,,,,,,calibration,0,7,2,426,17,X,0,right,nan,0,1,,,,,,,,,,,,,,,,,,,,,1,,,,,,,,,,,,,,,,,,,,,,,,,,,,,,,,,,,,,,,,,,,,,,126,148423,23,Male,1,2024/03/26_14:01:41,YZ,None,
,,,,,,calibration,0,7,2,426,,,,,,,,0.7041666666666667,0.4,0.16666666666666666,0.7777777777777778,0.29411764705882354,0.5392156862745099,0.7851161504995616,2,2,2,3,5,7,9,5,12,0,,,,1,,,,,,,,,,,,,,,,,,,,,,,,,,,,,,,,,,,,,,,,,,,,,,126,148423,23,Male,1,2024/03/26_14:01:41,YZ,None,
,,,,,,Calibration,0,,2,426,,,,,,,,,,,,,,,,,,,,,,,,,4,,,1,,,,,,,,,,,,,,,,,,,,,,,,,,,,,,,,,,,,,,,,,,,,,,126,148423,23,Male,1,2024/03/26_14:01:41,YZ,None,
,,,,,,calibration,0,3,2,500,1,F,0,right,0.8798967000002449,1,0,,,,,,,,,,,,,,,,,,,,,1,,,,,,,,,,,,,,,,,,,,,,,,,,,,,,,,,,,,,,,,,,,,,,126,148423,23,Male,1,2024/03/26_14:01:41,YZ,None,
,,,,,,calibration,0,3,2,500,2,V,0,right,0.6204395599997952,1,0,,,,,,,,,,,,,,,,,,,,,1,,,,,,,,,,,,,,,,,,,,,,,,,,,,,,,,,,,,,,,,,,,,,,126,148423,23,Male,1,2024/03/26_14:01:41,YZ,None,
,,,,,,calibration,0,3,2,500,3,F,1,left,0.6550141679981607,1,0,,,,,,,,,,,,,,,,,,,,,1,,,,,,,,,,,,,,,,,,,,,,,,,,,,,,,,,,,,,,,,,,,,,,126,148423,23,Male,1,2024/03/26_14:01:41,YZ,None,
,,,,,,calibration,0,3,2,500,4,J,0,right,0.7224706580018392,1,0,,,,,,,,,,,,,,,,,,,,,1,,,,,,,,,,,,,,,,,,,,,,,,,,,,,,,,,,,,,,,,,,,,,,126,148423,23,Male,1,2024/03/26_14:01:41,YZ,None,
,,,,,,calibration,0,3,2,500,5,Q,0,right,0.7346009409993712,1,0,,,,,,,,,,,,,,,,,,,,,1,,,,,,,,,,,,,,,,,,,,,,,,,,,,,,,,,,,,,,,,,,,,,,126,148423,23,Male,1,2024/03/26_14:01:41,YZ,None,
,,,,,,calibration,0,3,2,500,6,C,0,right,0.742203720001271,1,0,,,,,,,,,,,,,,,,,,,,,1,,,,,,,,,,,,,,,,,,,,,,,,,,,,,,,,,,,,,,,,,,,,,,126,148423,23,Male,1,2024/03/26_14:01:41,YZ,None,
,,,,,,calibration,0,3,2,500,7,Q,1,left,0.7240840949998528,1,0,,,,,,,,,,,,,,,,,,,,,1,,,,,,,,,,,,,,,,,,,,,,,,,,,,,,,,,,,,,,,,,,,,,,126,148423,23,Male,1,2024/03/26_14:01:41,YZ,None,
,,,,,,calibration,0,3,2,500,8,N,0,right,0.7398046909984259,1,0,,,,,,,,,,,,,,,,,,,,,1,,,,,,,,,,,,,,,,,,,,,,,,,,,,,,,,,,,,,,,,,,,,,,126,148423,23,Male,1,2024/03/26_14:01:41,YZ,None,
,,,,,,calibration,0,3,2,500,9,V,0,right,0.8248124060010014,1,0,,,,,,,,,,,,,,,,,,,,,1,,,,,,,,,,,,,,,,,,,,,,,,,,,,,,,,,,,,,,,,,,,,,,126,148423,23,Male,1,2024/03/26_14:01:41,YZ,None,
,,,,,,calibration,0,3,2,500,10,N,1,left,0.6976230969994504,1,0,,,,,,,,,,,,,,,,,,,,,1,,,,,,,,,,,,,,,,,,,,,,,,,,,,,,,,,,,,,,,,,,,,,,126,148423,23,Male,1,2024/03/26_14:01:41,YZ,None,
,,,,,,calibration,0,3,2,500,11,F,0,right,0.7736094450010569,1,0,,,,,,,,,,,,,,,,,,,,,1,,,,,,,,,,,,,,,,,,,,,,,,,,,,,,,,,,,,,,,,,,,,,,126,148423,23,Male,1,2024/03/26_14:01:41,YZ,None,
,,,,,,calibration,0,3,2,500,12,N,1,left,0.7733353610019549,1,0,,,,,,,,,,,,,,,,,,,,,1,,,,,,,,,,,,,,,,,,,,,,,,,,,,,,,,,,,,,,,,,,,,,,126,148423,23,Male,1,2024/03/26_14:01:41,YZ,None,
,,,,,,calibration,0,3,2,500,13,X,0,right,0.6028012970018608,1,0,,,,,,,,,,,,,,,,,,,,,1,,,,,,,,,,,,,,,,,,,,,,,,,,,,,,,,,,,,,,,,,,,,,,126,148423,23,Male,1,2024/03/26_14:01:41,YZ,None,
,,,,,,calibration,0,3,2,500,14,N,1,right,0.9090568510000594,0,0,,,,,,,,,,,,,,,,,,,,,1,,,,,,,,,,,,,,,,,,,,,,,,,,,,,,,,,,,,,,,,,,,,,,126,148423,23,Male,1,2024/03/26_14:01:41,YZ,None,
,,,,,,calibration,0,3,2,500,15,S,0,right,0.8405886679975083,1,0,,,,,,,,,,,,,,,,,,,,,1,,,,,,,,,,,,,,,,,,,,,,,,,,,,,,,,,,,,,,,,,,,,,,126,148423,23,Male,1,2024/03/26_14:01:41,YZ,None,
,,,,,,calibration,0,3,2,500,16,Q,0,right,0.8299267850015895,1,0,,,,,,,,,,,,,,,,,,,,,1,,,,,,,,,,,,,,,,,,,,,,,,,,,,,,,,,,,,,,,,,,,,,,126,148423,23,Male,1,2024/03/26_14:01:41,YZ,None,
,,,,,,calibration,0,3,2,500,,,,,,,,0.95,0.8,0.0,1.0,0.0,1.0,0.7543917776877151,4,0,0,0,0,11,15,5,11,0,,,,1,,,,,,,,,,,,,,,,,,,,,,,,,,,,,,,,,,,,,,,,,,,,,,126,148423,23,Male,1,2024/03/26_14:01:41,YZ,None,
,,,,,,Calibration,0,,2,500,,,,,,,,,,,,,,,,,,,,,,,,,5,,,1,,,,,,,,,,,,,,,,,,,,,,,,,,,,,,,,,,,,,,,,,,,,,,126,148423,23,Male,1,2024/03/26_14:01:41,YZ,None,
,,,,,,calibration,0,28,2,426,1,C,0,right,0.41626770199945895,1,0,,,,,,,,,,,,,,,,,,,,,1,,,,,,,,,,,,,,,,,,,,,,,,,,,,,,,,,,,,,,,,,,,,,,126,148423,23,Male,1,2024/03/26_14:01:41,YZ,None,
,,,,,,calibration,0,28,2,426,2,S,0,right,0.5573356720014999,1,0,,,,,,,,,,,,,,,,,,,,,1,,,,,,,,,,,,,,,,,,,,,,,,,,,,,,,,,,,,,,,,,,,,,,126,148423,23,Male,1,2024/03/26_14:01:41,YZ,None,
,,,,,,calibration,0,28,2,426,3,F,0,right,0.6249289810002665,1,0,,,,,,,,,,,,,,,,,,,,,1,,,,,,,,,,,,,,,,,,,,,,,,,,,,,,,,,,,,,,,,,,,,,,126,148423,23,Male,1,2024/03/26_14:01:41,YZ,None,
,,,,,,calibration,0,28,2,426,4,N,0,right,0.5811030900003971,1,0,,,,,,,,,,,,,,,,,,,,,1,,,,,,,,,,,,,,,,,,,,,,,,,,,,,,,,,,,,,,,,,,,,,,126,148423,23,Male,1,2024/03/26_14:01:41,YZ,None,
,,,,,,calibration,0,28,2,426,5,F,1,left,0.5969552070018835,1,0,,,,,,,,,,,,,,,,,,,,,1,,,,,,,,,,,,,,,,,,,,,,,,,,,,,,,,,,,,,,,,,,,,,,126,148423,23,Male,1,2024/03/26_14:01:41,YZ,None,
,,,,,,calibration,0,28,2,426,6,N,1,right,0.512615914001799,0,0,,,,,,,,,,,,,,,,,,,,,1,,,,,,,,,,,,,,,,,,,,,,,,,,,,,,,,,,,,,,,,,,,,,,126,148423,23,Male,1,2024/03/26_14:01:41,YZ,None,
,,,,,,calibration,0,28,2,426,7,C,0,left,0.758159570999851,0,0,,,,,,,,,,,,,,,,,,,,,1,,,,,,,,,,,,,,,,,,,,,,,,,,,,,,,,,,,,,,,,,,,,,,126,148423,23,Male,1,2024/03/26_14:01:41,YZ,None,
,,,,,,calibration,0,28,2,426,8,V,0,left,0.987757242997759,0,0,,,,,,,,,,,,,,,,,,,,,1,,,,,,,,,,,,,,,,,,,,,,,,,,,,,,,,,,,,,,,,,,,,,,126,148423,23,Male,1,2024/03/26_14:01:41,YZ,None,
,,,,,,calibration,0,28,2,426,9,J,0,right,0.6685498229999212,1,0,,,,,,,,,,,,,,,,,,,,,1,,,,,,,,,,,,,,,,,,,,,,,,,,,,,,,,,,,,,,,,,,,,,,126,148423,23,Male,1,2024/03/26_14:01:41,YZ,None,
,,,,,,calibration,0,28,2,426,10,V,1,left,0.6400217800000974,1,0,,,,,,,,,,,,,,,,,,,,,1,,,,,,,,,,,,,,,,,,,,,,,,,,,,,,,,,,,,,,,,,,,,,,126,148423,23,Male,1,2024/03/26_14:01:41,YZ,None,
,,,,,,calibration,0,28,2,426,11,S,0,right,0.8350504749978427,1,0,,,,,,,,,,,,,,,,,,,,,1,,,,,,,,,,,,,,,,,,,,,,,,,,,,,,,,,,,,,,,,,,,,,,126,148423,23,Male,1,2024/03/26_14:01:41,YZ,None,
,,,,,,calibration,0,28,2,426,12,X,0,right,0.6524211519972596,1,0,,,,,,,,,,,,,,,,,,,,,1,,,,,,,,,,,,,,,,,,,,,,,,,,,,,,,,,,,,,,,,,,,,,,126,148423,23,Male,1,2024/03/26_14:01:41,YZ,None,
,,,,,,calibration,0,28,2,426,13,F,0,right,0.5950304789985239,1,0,,,,,,,,,,,,,,,,,,,,,1,,,,,,,,,,,,,,,,,,,,,,,,,,,,,,,,,,,,,,,,,,,,,,126,148423,23,Male,1,2024/03/26_14:01:41,YZ,None,
,,,,,,calibration,0,28,2,426,14,X,1,left,0.5242259530023148,1,0,,,,,,,,,,,,,,,,,,,,,1,,,,,,,,,,,,,,,,,,,,,,,,,,,,,,,,,,,,,,,,,,,,,,126,148423,23,Male,1,2024/03/26_14:01:41,YZ,None,
,,,,,,calibration,0,28,2,426,15,F,1,left,0.8871577540012368,1,0,,,,,,,,,,,,,,,,,,,,,1,,,,,,,,,,,,,,,,,,,,,,,,,,,,,,,,,,,,,,,,,,,,,,126,148423,23,Male,1,2024/03/26_14:01:41,YZ,None,
,,,,,,calibration,0,28,2,426,16,S,0,right,0.941926211999089,1,0,,,,,,,,,,,,,,,,,,,,,1,,,,,,,,,,,,,,,,,,,,,,,,,,,,,,,,,,,,,,,,,,,,,,126,148423,23,Male,1,2024/03/26_14:01:41,YZ,None,
,,,,,,calibration,0,28,2,426,17,J,0,right,0.7236499200007529,1,0,,,,,,,,,,,,,,,,,,,,,1,,,,,,,,,,,,,,,,,,,,,,,,,,,,,,,,,,,,,,,,,,,,,,126,148423,23,Male,1,2024/03/26_14:01:41,YZ,None,
,,,,,,calibration,0,28,2,426,,,,,,,,0.875,0.8,0.16666666666666666,0.8333333333333334,0.0,0.8333333333333334,0.6766562898823502,4,2,0,0,0,10,14,5,12,0,,,,1,,,,,,,,,,,,,,,,,,,,,,,,,,,,,,,,,,,,,,,,,,,,,,126,148423,23,Male,1,2024/03/26_14:01:41,YZ,None,
,,,,,,Calibration,0,,2,426,,,,,,,,,,,,,,,,,,,,,,,,,6,,,1,,,,,,,,,,,,,,,,,,,,,,,,,,,,,,,,,,,,,,,,,,,,,,126,148423,23,Male,1,2024/03/26_14:01:41,YZ,None,
,,,,,,calibration,0,24,2,361,1,J,0,right,0.6098159440007294,1,0,,,,,,,,,,,,,,,,,,,,,1,,,,,,,,,,,,,,,,,,,,,,,,,,,,,,,,,,,,,,,,,,,,,,126,148423,23,Male,1,2024/03/26_14:01:41,YZ,None,
,,,,,,calibration,0,24,2,361,2,S,0,right,0.5588143349996244,1,0,,,,,,,,,,,,,,,,,,,,,1,,,,,,,,,,,,,,,,,,,,,,,,,,,,,,,,,,,,,,,,,,,,,,126,148423,23,Male,1,2024/03/26_14:01:41,YZ,None,
,,,,,,calibration,0,24,2,361,3,N,0,right,0.5127817890024744,1,0,,,,,,,,,,,,,,,,,,,,,1,,,,,,,,,,,,,,,,,,,,,,,,,,,,,,,,,,,,,,,,,,,,,,126,148423,23,Male,1,2024/03/26_14:01:41,YZ,None,
,,,,,,calibration,0,24,2,361,4,V,0,right,0.6916494990000501,1,0,,,,,,,,,,,,,,,,,,,,,1,,,,,,,,,,,,,,,,,,,,,,,,,,,,,,,,,,,,,,,,,,,,,,126,148423,23,Male,1,2024/03/26_14:01:41,YZ,None,
,,,,,,calibration,0,24,2,361,5,Q,0,right,0.7923777629985125,1,0,,,,,,,,,,,,,,,,,,,,,1,,,,,,,,,,,,,,,,,,,,,,,,,,,,,,,,,,,,,,,,,,,,,,126,148423,23,Male,1,2024/03/26_14:01:41,YZ,None,
,,,,,,calibration,0,24,2,361,6,X,0,right,0.5739109549977002,1,0,,,,,,,,,,,,,,,,,,,,,1,,,,,,,,,,,,,,,,,,,,,,,,,,,,,,,,,,,,,,,,,,,,,,126,148423,23,Male,1,2024/03/26_14:01:41,YZ,None,
,,,,,,calibration,0,24,2,361,7,Q,1,left,0.5452419709981768,1,0,,,,,,,,,,,,,,,,,,,,,1,,,,,,,,,,,,,,,,,,,,,,,,,,,,,,,,,,,,,,,,,,,,,,126,148423,23,Male,1,2024/03/26_14:01:41,YZ,None,
,,,,,,calibration,0,24,2,361,8,X,1,left,0.6755156440012797,1,0,,,,,,,,,,,,,,,,,,,,,1,,,,,,,,,,,,,,,,,,,,,,,,,,,,,,,,,,,,,,,,,,,,,,126,148423,23,Male,1,2024/03/26_14:01:41,YZ,None,
,,,,,,calibration,0,24,2,361,9,J,0,left,nan,0,1,,,,,,,,,,,,,,,,,,,,,1,,,,,,,,,,,,,,,,,,,,,,,,,,,,,,,,,,,,,,,,,,,,,,126,148423,23,Male,1,2024/03/26_14:01:41,YZ,None,
,,,,,,calibration,0,24,2,361,10,X,1,left,0.8576326279981004,1,0,,,,,,,,,,,,,,,,,,,,,1,,,,,,,,,,,,,,,,,,,,,,,,,,,,,,,,,,,,,,,,,,,,,,126,148423,23,Male,1,2024/03/26_14:01:41,YZ,None,
,,,,,,calibration,0,24,2,361,11,J,1,left,0.7958275919991138,1,0,,,,,,,,,,,,,,,,,,,,,1,,,,,,,,,,,,,,,,,,,,,,,,,,,,,,,,,,,,,,,,,,,,,,126,148423,23,Male,1,2024/03/26_14:01:41,YZ,None,
,,,,,,calibration,0,24,2,361,12,N,0,right,0.6332574210027815,1,0,,,,,,,,,,,,,,,,,,,,,1,,,,,,,,,,,,,,,,,,,,,,,,,,,,,,,,,,,,,,,,,,,,,,126,148423,23,Male,1,2024/03/26_14:01:41,YZ,None,
,,,,,,calibration,0,24,2,361,13,J,1,left,0.6649378860020079,1,0,,,,,,,,,,,,,,,,,,,,,1,,,,,,,,,,,,,,,,,,,,,,,,,,,,,,,,,,,,,,,,,,,,,,126,148423,23,Male,1,2024/03/26_14:01:41,YZ,None,
,,,,,,calibration,0,24,2,361,14,S,0,right,0.7906993590004276,1,0,,,,,,,,,,,,,,,,,,,,,1,,,,,,,,,,,,,,,,,,,,,,,,,,,,,,,,,,,,,,,,,,,,,,126,148423,23,Male,1,2024/03/26_14:01:41,YZ,None,
,,,,,,calibration,0,24,2,361,15,Q,0,right,0.6707337640000333,1,0,,,,,,,,,,,,,,,,,,,,,1,,,,,,,,,,,,,,,,,,,,,,,,,,,,,,,,,,,,,,,,,,,,,,126,148423,23,Male,1,2024/03/26_14:01:41,YZ,None,
,,,,,,calibration,0,24,2,361,16,V,0,right,0.696676864001347,1,0,,,,,,,,,,,,,,,,,,,,,1,,,,,,,,,,,,,,,,,,,,,,,,,,,,,,,,,,,,,,,,,,,,,,126,148423,23,Male,1,2024/03/26_14:01:41,YZ,None,
,,,,,,calibration,0,24,2,361,17,Q,1,left,0.6744271739989927,1,0,,,,,,,,,,,,,,,,,,,,,1,,,,,,,,,,,,,,,,,,,,,,,,,,,,,,,,,,,,,,,,,,,,,,126,148423,23,Male,1,2024/03/26_14:01:41,YZ,None,
,,,,,,calibration,0,24,2,361,18,C,0,left,nan,0,1,,,,,,,,,,,,,,,,,,,,,1,,,,,,,,,,,,,,,,,,,,,,,,,,,,,,,,,,,,,,,,,,,,,,126,148423,23,Male,1,2024/03/26_14:01:41,YZ,None,
,,,,,,calibration,0,24,2,361,,,,,,,,1.0,1.0,0.0,1.0,0.1111111111111111,0.8888888888888888,0.6715187867500845,6,0,0,2,2,10,16,6,12,0,,,,1,,,,,,,,,,,,,,,,,,,,,,,,,,,,,,,,,,,,,,,,,,,,,,126,148423,23,Male,1,2024/03/26_14:01:41,YZ,None,
,,,,,,Calibration,0,,2,361,,,,,,,,,,,,,,,,,,,,,,,,,7,,,1,,,,,,,,,,,,,,,,,,,,,,,,,,,,,,,,,,,,,,,,,,,,,,126,148423,23,Male,1,2024/03/26_14:01:41,YZ,None,
,,,,,,calibration,0,9,2,303,1,C,0,right,0.39323667700227816,1,0,,,,,,,,,,,,,,,,,,,,,1,,,,,,,,,,,,,,,,,,,,,,,,,,,,,,,,,,,,,,,,,,,,,,126,148423,23,Male,1,2024/03/26_14:01:41,YZ,None,
,,,,,,calibration,0,9,2,303,2,S,0,right,0.5653670329993474,1,0,,,,,,,,,,,,,,,,,,,,,1,,,,,,,,,,,,,,,,,,,,,,,,,,,,,,,,,,,,,,,,,,,,,,126,148423,23,Male,1,2024/03/26_14:01:41,YZ,None,
,,,,,,calibration,0,9,2,303,3,C,1,left,0.5636823360000562,1,0,,,,,,,,,,,,,,,,,,,,,1,,,,,,,,,,,,,,,,,,,,,,,,,,,,,,,,,,,,,,,,,,,,,,126,148423,23,Male,1,2024/03/26_14:01:41,YZ,None,
,,,,,,calibration,0,9,2,303,4,S,1,left,0.7417650659990613,1,0,,,,,,,,,,,,,,,,,,,,,1,,,,,,,,,,,,,,,,,,,,,,,,,,,,,,,,,,,,,,,,,,,,,,126,148423,23,Male,1,2024/03/26_14:01:41,YZ,None,
,,,,,,calibration,0,9,2,303,5,J,0,right,0.7924824269975943,1,0,,,,,,,,,,,,,,,,,,,,,1,,,,,,,,,,,,,,,,,,,,,,,,,,,,,,,,,,,,,,,,,,,,,,126,148423,23,Male,1,2024/03/26_14:01:41,YZ,None,
,,,,,,calibration,0,9,2,303,6,S,1,left,0.6310702780028805,1,0,,,,,,,,,,,,,,,,,,,,,1,,,,,,,,,,,,,,,,,,,,,,,,,,,,,,,,,,,,,,,,,,,,,,126,148423,23,Male,1,2024/03/26_14:01:41,YZ,None,
,,,,,,calibration,0,9,2,303,7,J,1,left,0.6903243320011825,1,0,,,,,,,,,,,,,,,,,,,,,1,,,,,,,,,,,,,,,,,,,,,,,,,,,,,,,,,,,,,,,,,,,,,,126,148423,23,Male,1,2024/03/26_14:01:41,YZ,None,
,,,,,,calibration,0,9,2,303,8,V,0,right,0.5563068710034713,1,0,,,,,,,,,,,,,,,,,,,,,1,,,,,,,,,,,,,,,,,,,,,,,,,,,,,,,,,,,,,,,,,,,,,,126,148423,23,Male,1,2024/03/26_14:01:41,YZ,None,
,,,,,,calibration,0,9,2,303,9,S,0,right,nan,0,1,,,,,,,,,,,,,,,,,,,,,1,,,,,,,,,,,,,,,,,,,,,,,,,,,,,,,,,,,,,,,,,,,,,,126,148423,23,Male,1,2024/03/26_14:01:41,YZ,None,
,,,,,,calibration,0,9,2,303,10,N,0,right,0.7075371739992988,1,0,,,,,,,,,,,,,,,,,,,,,1,,,,,,,,,,,,,,,,,,,,,,,,,,,,,,,,,,,,,,,,,,,,,,126,148423,23,Male,1,2024/03/26_14:01:41,YZ,None,
,,,,,,calibration,0,9,2,303,11,V,0,right,nan,0,1,,,,,,,,,,,,,,,,,,,,,1,,,,,,,,,,,,,,,,,,,,,,,,,,,,,,,,,,,,,,,,,,,,,,126,148423,23,Male,1,2024/03/26_14:01:41,YZ,None,
,,,,,,calibration,0,9,2,303,12,N,1,left,0.8084756110001763,1,0,,,,,,,,,,,,,,,,,,,,,1,,,,,,,,,,,,,,,,,,,,,,,,,,,,,,,,,,,,,,,,,,,,,,126,148423,23,Male,1,2024/03/26_14:01:41,YZ,None,
,,,,,,calibration,0,9,2,303,13,J,0,right,0.8621462090013665,1,0,,,,,,,,,,,,,,,,,,,,,1,,,,,,,,,,,,,,,,,,,,,,,,,,,,,,,,,,,,,,,,,,,,,,126,148423,23,Male,1,2024/03/26_14:01:41,YZ,None,
,,,,,,calibration,0,9,2,303,14,F,0,right,0.9244176259999222,1,0,,,,,,,,,,,,,,,,,,,,,1,,,,,,,,,,,,,,,,,,,,,,,,,,,,,,,,,,,,,,,,,,,,,,126,148423,23,Male,1,2024/03/26_14:01:41,YZ,None,
,,,,,,calibration,0,9,2,303,15,X,0,right,0.8729983890007134,1,0,,,,,,,,,,,,,,,,,,,,,1,,,,,,,,,,,,,,,,,,,,,,,,,,,,,,,,,,,,,,,,,,,,,,126,148423,23,Male,1,2024/03/26_14:01:41,YZ,None,
,,,,,,calibration,0,9,2,303,16,N,0,right,0.7190963509965513,1,0,,,,,,,,,,,,,,,,,,,,,1,,,,,,,,,,,,,,,,,,,,,,,,,,,,,,,,,,,,,,,,,,,,,,126,148423,23,Male,1,2024/03/26_14:01:41,YZ,None,
,,,,,,calibration,0,9,2,303,17,X,1,left,0.6869592319999356,1,0,,,,,,,,,,,,,,,,,,,,,1,,,,,,,,,,,,,,,,,,,,,,,,,,,,,,,,,,,,,,,,,,,,,,126,148423,23,Male,1,2024/03/26_14:01:41,YZ,None,
,,,,,,calibration,0,9,2,303,18,V,0,left,0.9756605420006963,0,0,,,,,,,,,,,,,,,,,,,,,1,,,,,,,,,,,,,,,,,,,,,,,,,,,,,,,,,,,,,,,,,,,,,,126,148423,23,Male,1,2024/03/26_14:01:41,YZ,None,
,,,,,,calibration,0,9,2,303,19,C,0,right,0.5421183100006601,1,0,,,,,,,,,,,,,,,,,,,,,1,,,,,,,,,,,,,,,,,,,,,,,,,,,,,,,,,,,,,,,,,,,,,,126,148423,23,Male,1,2024/03/26_14:01:41,YZ,None,
,,,,,,calibration,0,9,2,303,,,,,,,,0.9807692307692308,1.0,0.07692307692307693,0.9090909090909091,0.10526315789473684,0.8178137651821863,0.7078614390591289,6,1,0,2,2,10,16,6,13,0,,,,1,,,,,,,,,,,,,,,,,,,,,,,,,,,,,,,,,,,,,,,,,,,,,,126,148423,23,Male,1,2024/03/26_14:01:41,YZ,None,
,,,,,,Calibration,0,,2,303,,,,,,,,,,,,,,,,,,,,,,,,,8,,,1,,,,,,,,,,,,,,,,,,,,,,,,,,,,,,,,,,,,,,,,,,,,,,126,148423,23,Male,1,2024/03/26_14:01:41,YZ,None,
,,,,,,calibration,0,5,2,250,1,X,0,right,0.24637644399990677,1,0,,,,,,,,,,,,,,,,,,,,,1,,,,,,,,,,,,,,,,,,,,,,,,,,,,,,,,,,,,,,,,,,,,,,126,148423,23,Male,1,2024/03/26_14:01:41,YZ,None,
,,,,,,calibration,0,5,2,250,2,X,0,right,0.26700804799838807,1,0,,,,,,,,,,,,,,,,,,,,,1,,,,,,,,,,,,,,,,,,,,,,,,,,,,,,,,,,,,,,,,,,,,,,126,148423,23,Male,1,2024/03/26_14:01:41,YZ,None,
,,,,,,calibration,0,5,2,250,3,S,0,right,0.4554104480012029,1,0,,,,,,,,,,,,,,,,,,,,,1,,,,,,,,,,,,,,,,,,,,,,,,,,,,,,,,,,,,,,,,,,,,,,126,148423,23,Male,1,2024/03/26_14:01:41,YZ,None,
,,,,,,calibration,0,5,2,250,4,X,1,left,0.542745892998937,1,0,,,,,,,,,,,,,,,,,,,,,1,,,,,,,,,,,,,,,,,,,,,,,,,,,,,,,,,,,,,,,,,,,,,,126,148423,23,Male,1,2024/03/26_14:01:41,YZ,None,
,,,,,,calibration,0,5,2,250,5,S,1,left,0.7931303289988136,1,0,,,,,,,,,,,,,,,,,,,,,1,,,,,,,,,,,,,,,,,,,,,,,,,,,,,,,,,,,,,,,,,,,,,,126,148423,23,Male,1,2024/03/26_14:01:41,YZ,None,
,,,,,,calibration,0,5,2,250,6,V,0,right,0.7737225050004781,1,0,,,,,,,,,,,,,,,,,,,,,1,,,,,,,,,,,,,,,,,,,,,,,,,,,,,,,,,,,,,,,,,,,,,,126,148423,23,Male,1,2024/03/26_14:01:41,YZ,None,
,,,,,,calibration,0,5,2,250,7,C,0,right,0.7734311530002742,1,0,,,,,,,,,,,,,,,,,,,,,1,,,,,,,,,,,,,,,,,,,,,,,,,,,,,,,,,,,,,,,,,,,,,,126,148423,23,Male,1,2024/03/26_14:01:41,YZ,None,
,,,,,,calibration,0,5,2,250,8,S,0,right,nan,0,1,,,,,,,,,,,,,,,,,,,,,1,,,,,,,,,,,,,,,,,,,,,,,,,,,,,,,,,,,,,,,,,,,,,,126,148423,23,Male,1,2024/03/26_14:01:41,YZ,None,
,,,,,,calibration,0,5,2,250,9,N,0,right,nan,0,1,,,,,,,,,,,,,,,,,,,,,1,,,,,,,,,,,,,,,,,,,,,,,,,,,,,,,,,,,,,,,,,,,,,,126,148423,23,Male,1,2024/03/26_14:01:41,YZ,None,
,,,,,,calibration,0,5,2,250,10,S,1,right,0.013746167998760939,0,0,,,,,,,,,,,,,,,,,,,,,1,,,,,,,,,,,,,,,,,,,,,,,,,,,,,,,,,,,,,,,,,,,,,,126,148423,23,Male,1,2024/03/26_14:01:41,YZ,None,
,,,,,,calibration,0,5,2,250,11,N,1,left,0.14644531600060873,1,0,,,,,,,,,,,,,,,,,,,,,1,,,,,,,,,,,,,,,,,,,,,,,,,,,,,,,,,,,,,,,,,,,,,,126,148423,23,Male,1,2024/03/26_14:01:41,YZ,None,
,,,,,,calibration,0,5,2,250,12,F,0,left,nan,0,1,,,,,,,,,,,,,,,,,,,,,1,,,,,,,,,,,,,,,,,,,,,,,,,,,,,,,,,,,,,,,,,,,,,,126,148423,23,Male,1,2024/03/26_14:01:41,YZ,None,
,,,,,,calibration,0,5,2,250,13,Q,0,right,0.6183264520004741,1,0,,,,,,,,,,,,,,,,,,,,,1,,,,,,,,,,,,,,,,,,,,,,,,,,,,,,,,,,,,,,,,,,,,,,126,148423,23,Male,1,2024/03/26_14:01:41,YZ,None,
,,,,,,calibration,0,5,2,250,14,J,0,right,0.7190634590006084,1,0,,,,,,,,,,,,,,,,,,,,,1,,,,,,,,,,,,,,,,,,,,,,,,,,,,,,,,,,,,,,,,,,,,,,126,148423,23,Male,1,2024/03/26_14:01:41,YZ,None,
,,,,,,calibration,0,5,2,250,15,C,0,right,0.594922251002572,1,0,,,,,,,,,,,,,,,,,,,,,1,,,,,,,,,,,,,,,,,,,,,,,,,,,,,,,,,,,,,,,,,,,,,,126,148423,23,Male,1,2024/03/26_14:01:41,YZ,None,
,,,,,,calibration,0,5,2,250,16,F,0,right,nan,0,1,,,,,,,,,,,,,,,,,,,,,1,,,,,,,,,,,,,,,,,,,,,,,,,,,,,,,,,,,,,,,,,,,,,,126,148423,23,Male,1,2024/03/26_14:01:41,YZ,None,
,,,,,,calibration,0,5,2,250,17,C,1,right,0.0,0,0,,,,,,,,,,,,,,,,,,,,,1,,,,,,,,,,,,,,,,,,,,,,,,,,,,,,,,,,,,,,,,,,,,,,126,148423,23,Male,1,2024/03/26_14:01:41,YZ,None,
,,,,,,calibration,0,5,2,250,18,F,1,left,0.21305673599999864,1,0,,,,,,,,,,,,,,,,,,,,,1,,,,,,,,,,,,,,,,,,,,,,,,,,,,,,,,,,,,,,,,,,,,,,126,148423,23,Male,1,2024/03/26_14:01:41,YZ,None,
,,,,,,calibration,0,5,2,250,19,Q,0,right,0.6154974210003274,1,0,,,,,,,,,,,,,,,,,,,,,1,,,,,,,,,,,,,,,,,,,,,,,,,,,,,,,,,,,,,,,,,,,,,,126,148423,23,Male,1,2024/03/26_14:01:41,YZ,None,
,,,,,,calibration,0,5,2,250,20,N,0,left,0.899427514999843,0,0,,,,,,,,,,,,,,,,,,,,,1,,,,,,,,,,,,,,,,,,,,,,,,,,,,,,,,,,,,,,,,,,,,,,126,148423,23,Male,1,2024/03/26_14:01:41,YZ,None,
,,,,,,calibration,0,5,2,250,,,,,,,,0.875,0.6666666666666666,0.07142857142857142,0.9,0.2,0.7285714285714286,0.4795193836250746,4,1,0,4,4,9,13,6,14,0,,,,1,,,,,,,,,,,,,,,,,,,,,,,,,,,,,,,,,,,,,,,,,,,,,,126,148423,23,Male,1,2024/03/26_14:01:41,YZ,None,
,,,,,,Calibration,0,,2,250,,,,,,,,,,,,,,,,,,,,,,,,,9,,,1,,,,,,,,,,,,,,,,,,,,,,,,,,,,,,,,,,,,,,,,,,,,,,126,148423,23,Male,1,2024/03/26_14:01:41,YZ,None,
,,,,,,calibration,0,15,2,202,1,J,0,right,0.5612203769996995,1,0,,,,,,,,,,,,,,,,,,,,,1,,,,,,,,,,,,,,,,,,,,,,,,,,,,,,,,,,,,,,,,,,,,,,126,148423,23,Male,1,2024/03/26_14:01:41,YZ,None,
,,,,,,calibration,0,15,2,202,2,Q,0,right,0.7635716170007072,1,0,,,,,,,,,,,,,,,,,,,,,1,,,,,,,,,,,,,,,,,,,,,,,,,,,,,,,,,,,,,,,,,,,,,,126,148423,23,Male,1,2024/03/26_14:01:41,YZ,None,
,,,,,,calibration,0,15,2,202,3,S,0,right,nan,0,1,,,,,,,,,,,,,,,,,,,,,1,,,,,,,,,,,,,,,,,,,,,,,,,,,,,,,,,,,,,,,,,,,,,,126,148423,23,Male,1,2024/03/26_14:01:41,YZ,None,
,,,,,,calibration,0,15,2,202,4,N,0,right,nan,0,1,,,,,,,,,,,,,,,,,,,,,1,,,,,,,,,,,,,,,,,,,,,,,,,,,,,,,,,,,,,,,,,,,,,,126,148423,23,Male,1,2024/03/26_14:01:41,YZ,None,
,,,,,,calibration,0,15,2,202,5,S,1,left,0.6736661479990289,1,0,,,,,,,,,,,,,,,,,,,,,1,,,,,,,,,,,,,,,,,,,,,,,,,,,,,,,,,,,,,,,,,,,,,,126,148423,23,Male,1,2024/03/26_14:01:41,YZ,None,
,,,,,,calibration,0,15,2,202,6,F,0,right,0.5399446169976727,1,0,,,,,,,,,,,,,,,,,,,,,1,,,,,,,,,,,,,,,,,,,,,,,,,,,,,,,,,,,,,,,,,,,,,,126,148423,23,Male,1,2024/03/26_14:01:41,YZ,None,
,,,,,,calibration,0,15,2,202,7,S,1,left,0.5903223999994225,1,0,,,,,,,,,,,,,,,,,,,,,1,,,,,,,,,,,,,,,,,,,,,,,,,,,,,,,,,,,,,,,,,,,,,,126,148423,23,Male,1,2024/03/26_14:01:41,YZ,None,
,,,,,,calibration,0,15,2,202,8,F,1,right,0.5741060600012133,0,0,,,,,,,,,,,,,,,,,,,,,1,,,,,,,,,,,,,,,,,,,,,,,,,,,,,,,,,,,,,,,,,,,,,,126,148423,23,Male,1,2024/03/26_14:01:41,YZ,None,
,,,,,,calibration,0,15,2,202,9,X,0,right,0.5887246420024894,1,0,,,,,,,,,,,,,,,,,,,,,1,,,,,,,,,,,,,,,,,,,,,,,,,,,,,,,,,,,,,,,,,,,,,,126,148423,23,Male,1,2024/03/26_14:01:41,YZ,None,
,,,,,,calibration,0,15,2,202,10,F,1,right,0.8730632699989656,0,0,,,,,,,,,,,,,,,,,,,,,1,,,,,,,,,,,,,,,,,,,,,,,,,,,,,,,,,,,,,,,,,,,,,,126,148423,23,Male,1,2024/03/26_14:01:41,YZ,None,
,,,,,,calibration,0,15,2,202,11,V,0,right,0.6678546319999441,1,0,,,,,,,,,,,,,,,,,,,,,1,,,,,,,,,,,,,,,,,,,,,,,,,,,,,,,,,,,,,,,,,,,,,,126,148423,23,Male,1,2024/03/26_14:01:41,YZ,None,
,,,,,,calibration,0,15,2,202,12,S,0,right,0.6921666090020153,1,0,,,,,,,,,,,,,,,,,,,,,1,,,,,,,,,,,,,,,,,,,,,,,,,,,,,,,,,,,,,,,,,,,,,,126,148423,23,Male,1,2024/03/26_14:01:41,YZ,None,
,,,,,,calibration,0,15,2,202,13,X,0,right,0.7305015669990098,1,0,,,,,,,,,,,,,,,,,,,,,1,,,,,,,,,,,,,,,,,,,,,,,,,,,,,,,,,,,,,,,,,,,,,,126,148423,23,Male,1,2024/03/26_14:01:41,YZ,None,
,,,,,,calibration,0,15,2,202,14,F,0,left,0.7421381189997192,0,0,,,,,,,,,,,,,,,,,,,,,1,,,,,,,,,,,,,,,,,,,,,,,,,,,,,,,,,,,,,,,,,,,,,,126,148423,23,Male,1,2024/03/26_14:01:41,YZ,None,
,,,,,,calibration,0,15,2,202,15,X,1,left,0.9346911749998981,1,0,,,,,,,,,,,,,,,,,,,,,1,,,,,,,,,,,,,,,,,,,,,,,,,,,,,,,,,,,,,,,,,,,,,,126,148423,23,Male,1,2024/03/26_14:01:41,YZ,None,
,,,,,,calibration,0,15,2,202,16,C,0,right,0.7930333020012768,1,0,,,,,,,,,,,,,,,,,,,,,1,,,,,,,,,,,,,,,,,,,,,,,,,,,,,,,,,,,,,,,,,,,,,,126,148423,23,Male,1,2024/03/26_14:01:41,YZ,None,
,,,,,,calibration,0,15,2,202,17,J,0,right,0.4533107889983512,1,0,,,,,,,,,,,,,,,,,,,,,1,,,,,,,,,,,,,,,,,,,,,,,,,,,,,,,,,,,,,,,,,,,,,,126,148423,23,Male,1,2024/03/26_14:01:41,YZ,None,
,,,,,,calibration,0,15,2,202,18,F,0,right,0.7606201229973522,1,0,,,,,,,,,,,,,,,,,,,,,1,,,,,,,,,,,,,,,,,,,,,,,,,,,,,,,,,,,,,,,,,,,,,,126,148423,23,Male,1,2024/03/26_14:01:41,YZ,None,
,,,,,,calibration,0,15,2,202,19,S,0,left,0.9026365250028903,0,0,,,,,,,,,,,,,,,,,,,,,1,,,,,,,,,,,,,,,,,,,,,,,,,,,,,,,,,,,,,,,,,,,,,,126,148423,23,Male,1,2024/03/26_14:01:41,YZ,None,
,,,,,,calibration,0,15,2,202,20,F,1,left,0.552812828002061,1,0,,,,,,,,,,,,,,,,,,,,,1,,,,,,,,,,,,,,,,,,,,,,,,,,,,,,,,,,,,,,,,,,,,,,126,148423,23,Male,1,2024/03/26_14:01:41,YZ,None,
,,,,,,calibration,0,15,2,202,21,J,0,left,0.5532976219983539,0,0,,,,,,,,,,,,,,,,,,,,,1,,,,,,,,,,,,,,,,,,,,,,,,,,,,,,,,,,,,,,,,,,,,,,126,148423,23,Male,1,2024/03/26_14:01:41,YZ,None,
,,,,,,calibration,0,15,2,202,,,,,,,,0.8,0.6666666666666666,0.2,0.7692307692307693,0.09523809523809523,0.7047619047619048,0.6814569695789511,4,3,0,2,2,10,14,6,15,0,,,,1,,,,,,,,,,,,,,,,,,,,,,,,,,,,,,,,,,,,,,,,,,,,,,126,148423,23,Male,1,2024/03/26_14:01:41,YZ,None,
,,,,,,Calibration,0,,2,202,,,,,,,,,,,,,,,,,,,,,,,,,10,,,1,,,,,,,,,,,,,,,,,,,,,,,,,,,,,,,,,,,,,,,,,,,,,,126,148423,23,Male,1,2024/03/26_14:01:41,YZ,None,
,,,,,,calibration,0,8,2,202,1,V,0,right,0.48151883899845416,1,0,,,,,,,,,,,,,,,,,,,,,1,,,,,,,,,,,,,,,,,,,,,,,,,,,,,,,,,,,,,,,,,,,,,,126,148423,23,Male,1,2024/03/26_14:01:41,YZ,None,
,,,,,,calibration,0,8,2,202,2,J,0,right,0.46031801299977815,1,0,,,,,,,,,,,,,,,,,,,,,1,,,,,,,,,,,,,,,,,,,,,,,,,,,,,,,,,,,,,,,,,,,,,,126,148423,23,Male,1,2024/03/26_14:01:41,YZ,None,
,,,,,,calibration,0,8,2,202,3,C,0,right,0.7217095140003948,1,0,,,,,,,,,,,,,,,,,,,,,1,,,,,,,,,,,,,,,,,,,,,,,,,,,,,,,,,,,,,,,,,,,,,,126,148423,23,Male,1,2024/03/26_14:01:41,YZ,None,
,,,,,,calibration,0,8,2,202,4,J,1,left,0.6229289670009166,1,0,,,,,,,,,,,,,,,,,,,,,1,,,,,,,,,,,,,,,,,,,,,,,,,,,,,,,,,,,,,,,,,,,,,,126,148423,23,Male,1,2024/03/26_14:01:41,YZ,None,
,,,,,,calibration,0,8,2,202,5,C,1,left,0.702368837002723,1,0,,,,,,,,,,,,,,,,,,,,,1,,,,,,,,,,,,,,,,,,,,,,,,,,,,,,,,,,,,,,,,,,,,,,126,148423,23,Male,1,2024/03/26_14:01:41,YZ,None,
,,,,,,calibration,0,8,2,202,6,X,0,right,0.5128827369990177,1,0,,,,,,,,,,,,,,,,,,,,,1,,,,,,,,,,,,,,,,,,,,,,,,,,,,,,,,,,,,,,,,,,,,,,126,148423,23,Male,1,2024/03/26_14:01:41,YZ,None,
,,,,,,calibration,0,8,2,202,7,N,0,right,0.6405584099993575,1,0,,,,,,,,,,,,,,,,,,,,,1,,,,,,,,,,,,,,,,,,,,,,,,,,,,,,,,,,,,,,,,,,,,,,126,148423,23,Male,1,2024/03/26_14:01:41,YZ,None,
,,,,,,calibration,0,8,2,202,8,J,0,right,0.7803917739984172,1,0,,,,,,,,,,,,,,,,,,,,,1,,,,,,,,,,,,,,,,,,,,,,,,,,,,,,,,,,,,,,,,,,,,,,126,148423,23,Male,1,2024/03/26_14:01:41,YZ,None,
,,,,,,calibration,0,8,2,202,9,X,0,right,0.8418651169995428,1,0,,,,,,,,,,,,,,,,,,,,,1,,,,,,,,,,,,,,,,,,,,,,,,,,,,,,,,,,,,,,,,,,,,,,126,148423,23,Male,1,2024/03/26_14:01:41,YZ,None,
,,,,,,calibration,0,8,2,202,10,F,0,right,0.7426818759995513,1,0,,,,,,,,,,,,,,,,,,,,,1,,,,,,,,,,,,,,,,,,,,,,,,,,,,,,,,,,,,,,,,,,,,,,126,148423,23,Male,1,2024/03/26_14:01:41,YZ,None,
,,,,,,calibration,0,8,2,202,11,V,0,right,0.862561509002262,1,0,,,,,,,,,,,,,,,,,,,,,1,,,,,,,,,,,,,,,,,,,,,,,,,,,,,,,,,,,,,,,,,,,,,,126,148423,23,Male,1,2024/03/26_14:01:41,YZ,None,
,,,,,,calibration,0,8,2,202,12,C,0,right,0.6799418539994804,1,0,,,,,,,,,,,,,,,,,,,,,1,,,,,,,,,,,,,,,,,,,,,,,,,,,,,,,,,,,,,,,,,,,,,,126,148423,23,Male,1,2024/03/26_14:01:41,YZ,None,
,,,,,,calibration,0,8,2,202,13,V,1,right,0.9244147559984413,0,0,,,,,,,,,,,,,,,,,,,,,1,,,,,,,,,,,,,,,,,,,,,,,,,,,,,,,,,,,,,,,,,,,,,,126,148423,23,Male,1,2024/03/26_14:01:41,YZ,None,
,,,,,,calibration,0,8,2,202,14,C,1,left,0.8695912010007305,1,0,,,,,,,,,,,,,,,,,,,,,1,,,,,,,,,,,,,,,,,,,,,,,,,,,,,,,,,,,,,,,,,,,,,,126,148423,23,Male,1,2024/03/26_14:01:41,YZ,None,
,,,,,,calibration,0,8,2,202,15,Q,0,right,0.6717259420001938,1,0,,,,,,,,,,,,,,,,,,,,,1,,,,,,,,,,,,,,,,,,,,,,,,,,,,,,,,,,,,,,,,,,,,,,126,148423,23,Male,1,2024/03/26_14:01:41,YZ,None,
,,,,,,calibration,0,8,2,202,16,N,0,right,0.8065320530004101,1,0,,,,,,,,,,,,,,,,,,,,,1,,,,,,,,,,,,,,,,,,,,,,,,,,,,,,,,,,,,,,,,,,,,,,126,148423,23,Male,1,2024/03/26_14:01:41,YZ,None,
,,,,,,calibration,0,8,2,202,17,F,0,right,0.7411815790001128,1,0,,,,,,,,,,,,,,,,,,,,,1,,,,,,,,,,,,,,,,,,,,,,,,,,,,,,,,,,,,,,,,,,,,,,126,148423,23,Male,1,2024/03/26_14:01:41,YZ,None,
,,,,,,calibration,0,8,2,202,18,C,0,right,nan,0,1,,,,,,,,,,,,,,,,,,,,,1,,,,,,,,,,,,,,,,,,,,,,,,,,,,,,,,,,,,,,,,,,,,,,126,148423,23,Male,1,2024/03/26_14:01:41,YZ,None,
,,,,,,calibration,0,8,2,202,19,F,1,left,0.7923702920015785,1,0,,,,,,,,,,,,,,,,,,,,,1,,,,,,,,,,,,,,,,,,,,,,,,,,,,,,,,,,,,,,,,,,,,,,126,148423,23,Male,1,2024/03/26_14:01:41,YZ,None,
,,,,,,calibration,0,8,2,202,20,J,0,right,0.6019331520001288,1,0,,,,,,,,,,,,,,,,,,,,,1,,,,,,,,,,,,,,,,,,,,,,,,,,,,,,,,,,,,,,,,,,,,,,126,148423,23,Male,1,2024/03/26_14:01:41,YZ,None,
,,,,,,calibration,0,8,2,202,21,F,1,right,nan,0,1,,,,,,,,,,,,,,,,,,,,,1,,,,,,,,,,,,,,,,,,,,,,,,,,,,,,,,,,,,,,,,,,,,,,126,148423,23,Male,1,2024/03/26_14:01:41,YZ,None,
,,,,,,calibration,0,8,2,202,,,,,,,,0.9166666666666666,0.6666666666666666,0.0,1.0,0.09523809523809523,0.9047619047619048,0.7082882327369205,4,0,1,1,2,14,18,6,15,0,,,,1,,,,,,,,,,,,,,,,,,,,,,,,,,,,,,,,,,,,,,,,,,,,,,126,148423,23,Male,1,2024/03/26_14:01:41,YZ,None,
,,,,,,Calibration,0,,2,202,,,,,,,,,,,,,,,,,,,,,,,,,11,,,1,,,,,,,,,,,,,,,,,,,,,,,,,,,,,,,,,,,,,,,,,,,,,,126,148423,23,Male,1,2024/03/26_14:01:41,YZ,None,
,,,,,,calibration,0,32,2,159,1,F,0,right,0.3932647640031064,1,0,,,,,,,,,,,,,,,,,,,,,1,,,,,,,,,,,,,,,,,,,,,,,,,,,,,,,,,,,,,,,,,,,,,,126,148423,23,Male,1,2024/03/26_14:01:41,YZ,None,
,,,,,,calibration,0,32,2,159,2,N,0,right,0.3836412919990835,1,0,,,,,,,,,,,,,,,,,,,,,1,,,,,,,,,,,,,,,,,,,,,,,,,,,,,,,,,,,,,,,,,,,,,,126,148423,23,Male,1,2024/03/26_14:01:41,YZ,None,
,,,,,,calibration,0,32,2,159,3,Q,0,right,0.6453845240030205,1,0,,,,,,,,,,,,,,,,,,,,,1,,,,,,,,,,,,,,,,,,,,,,,,,,,,,,,,,,,,,,,,,,,,,,126,148423,23,Male,1,2024/03/26_14:01:41,YZ,None,
,,,,,,calibration,0,32,2,159,4,C,0,right,0.6382532389980042,1,0,,,,,,,,,,,,,,,,,,,,,1,,,,,,,,,,,,,,,,,,,,,,,,,,,,,,,,,,,,,,,,,,,,,,126,148423,23,Male,1,2024/03/26_14:01:41,YZ,None,
,,,,,,calibration,0,32,2,159,5,Q,1,right,nan,0,1,,,,,,,,,,,,,,,,,,,,,1,,,,,,,,,,,,,,,,,,,,,,,,,,,,,,,,,,,,,,,,,,,,,,126,148423,23,Male,1,2024/03/26_14:01:41,YZ,None,
,,,,,,calibration,0,32,2,159,6,C,1,left,0.7575482609972823,1,0,,,,,,,,,,,,,,,,,,,,,1,,,,,,,,,,,,,,,,,,,,,,,,,,,,,,,,,,,,,,,,,,,,,,126,148423,23,Male,1,2024/03/26_14:01:41,YZ,None,
,,,,,,calibration,0,32,2,159,7,X,0,right,0.5366777859999274,1,0,,,,,,,,,,,,,,,,,,,,,1,,,,,,,,,,,,,,,,,,,,,,,,,,,,,,,,,,,,,,,,,,,,,,126,148423,23,Male,1,2024/03/26_14:01:41,YZ,None,
,,,,,,calibration,0,32,2,159,8,C,1,left,0.7210229680022167,1,0,,,,,,,,,,,,,,,,,,,,,1,,,,,,,,,,,,,,,,,,,,,,,,,,,,,,,,,,,,,,,,,,,,,,126,148423,23,Male,1,2024/03/26_14:01:41,YZ,None,
,,,,,,calibration,0,32,2,159,9,X,1,left,0.740083737000532,1,0,,,,,,,,,,,,,,,,,,,,,1,,,,,,,,,,,,,,,,,,,,,,,,,,,,,,,,,,,,,,,,,,,,,,126,148423,23,Male,1,2024/03/26_14:01:41,YZ,None,
,,,,,,calibration,0,32,2,159,10,V,0,right,0.6858387880020018,1,0,,,,,,,,,,,,,,,,,,,,,1,,,,,,,,,,,,,,,,,,,,,,,,,,,,,,,,,,,,,,,,,,,,,,126,148423,23,Male,1,2024/03/26_14:01:41,YZ,None,
,,,,,,calibration,0,32,2,159,11,X,1,left,0.710082452998904,1,0,,,,,,,,,,,,,,,,,,,,,1,,,,,,,,,,,,,,,,,,,,,,,,,,,,,,,,,,,,,,,,,,,,,,126,148423,23,Male,1,2024/03/26_14:01:41,YZ,None,
,,,,,,calibration,0,32,2,159,12,N,0,right,0.5636570970018511,1,0,,,,,,,,,,,,,,,,,,,,,1,,,,,,,,,,,,,,,,,,,,,,,,,,,,,,,,,,,,,,,,,,,,,,126,148423,23,Male,1,2024/03/26_14:01:41,YZ,None,
,,,,,,calibration,0,32,2,159,13,X,1,left,0.9254925319983158,1,0,,,,,,,,,,,,,,,,,,,,,1,,,,,,,,,,,,,,,,,,,,,,,,,,,,,,,,,,,,,,,,,,,,,,126,148423,23,Male,1,2024/03/26_14:01:41,YZ,None,
,,,,,,calibration,0,32,2,159,14,F,0,right,0.7254267209973477,1,0,,,,,,,,,,,,,,,,,,,,,1,,,,,,,,,,,,,,,,,,,,,,,,,,,,,,,,,,,,,,,,,,,,,,126,148423,23,Male,1,2024/03/26_14:01:41,YZ,None,
,,,,,,calibration,0,32,2,159,15,X,1,left,0.8575894000023254,1,0,,,,,,,,,,,,,,,,,,,,,1,,,,,,,,,,,,,,,,,,,,,,,,,,,,,,,,,,,,,,,,,,,,,,126,148423,23,Male,1,2024/03/26_14:01:41,YZ,None,
,,,,,,calibration,0,32,2,159,16,Q,0,right,0.8800383809975756,1,0,,,,,,,,,,,,,,,,,,,,,1,,,,,,,,,,,,,,,,,,,,,,,,,,,,,,,,,,,,,,,,,,,,,,126,148423,23,Male,1,2024/03/26_14:01:41,YZ,None,
,,,,,,calibration,0,32,2,159,17,F,0,left,0.9409501299996919,0,0,,,,,,,,,,,,,,,,,,,,,1,,,,,,,,,,,,,,,,,,,,,,,,,,,,,,,,,,,,,,,,,,,,,,126,148423,23,Male,1,2024/03/26_14:01:41,YZ,None,
,,,,,,calibration,0,32,2,159,18,N,0,right,0.7430146609985968,1,0,,,,,,,,,,,,,,,,,,,,,1,,,,,,,,,,,,,,,,,,,,,,,,,,,,,,,,,,,,,,,,,,,,,,126,148423,23,Male,1,2024/03/26_14:01:41,YZ,None,
,,,,,,calibration,0,32,2,159,19,X,0,left,0.9407641319994582,0,0,,,,,,,,,,,,,,,,,,,,,1,,,,,,,,,,,,,,,,,,,,,,,,,,,,,,,,,,,,,,,,,,,,,,126,148423,23,Male,1,2024/03/26_14:01:41,YZ,None,
,,,,,,calibration,0,32,2,159,20,V,0,right,0.848734818999219,1,0,,,,,,,,,,,,,,,,,,,,,1,,,,,,,,,,,,,,,,,,,,,,,,,,,,,,,,,,,,,,,,,,,,,,126,148423,23,Male,1,2024/03/26_14:01:41,YZ,None,
,,,,,,calibration,0,32,2,159,21,C,0,right,0.7906706869980553,1,0,,,,,,,,,,,,,,,,,,,,,1,,,,,,,,,,,,,,,,,,,,,,,,,,,,,,,,,,,,,,,,,,,,,,126,148423,23,Male,1,2024/03/26_14:01:41,YZ,None,
,,,,,,calibration,0,32,2,159,22,F,0,left,0.7640269180010364,0,0,,,,,,,,,,,,,,,,,,,,,1,,,,,,,,,,,,,,,,,,,,,,,,,,,,,,,,,,,,,,,,,,,,,,126,148423,23,Male,1,2024/03/26_14:01:41,YZ,None,
,,,,,,calibration,0,32,2,159,,,,,,,,0.8857142857142857,0.8571428571428571,0.2,0.8,0.045454545454545456,0.7545454545454546,0.7234363471427405,6,3,1,0,1,12,18,7,15,0,,,,1,,,,,,,,,,,,,,,,,,,,,,,,,,,,,,,,,,,,,,,,,,,,,,126,148423,23,Male,1,2024/03/26_14:01:41,YZ,None,
,,,,,,Calibration,0,,2,159,,,,,,,,,,,,,,,,,,,,,,,,,12,,,1,,,,,,,,,,,,,,,,,,,,,,,,,,,,,,,,,,,,,,,,,,,,,,126,148423,23,Male,1,2024/03/26_14:01:41,YZ,None,
,,,,,,calibration,0,30,2,120,1,Q,0,right,0.6363493559983908,1,0,,,,,,,,,,,,,,,,,,,,,1,,,,,,,,,,,,,,,,,,,,,,,,,,,,,,,,,,,,,,,,,,,,,,126,148423,23,Male,1,2024/03/26_14:01:41,YZ,None,
,,,,,,calibration,0,30,2,120,2,C,0,right,0.5241733919974649,1,0,,,,,,,,,,,,,,,,,,,,,1,,,,,,,,,,,,,,,,,,,,,,,,,,,,,,,,,,,,,,,,,,,,,,126,148423,23,Male,1,2024/03/26_14:01:41,YZ,None,
,,,,,,calibration,0,30,2,120,3,Q,1,left,0.42370457599827205,1,0,,,,,,,,,,,,,,,,,,,,,1,,,,,,,,,,,,,,,,,,,,,,,,,,,,,,,,,,,,,,,,,,,,,,126,148423,23,Male,1,2024/03/26_14:01:41,YZ,None,
,,,,,,calibration,0,30,2,120,4,C,1,left,0.38768027200057986,1,0,,,,,,,,,,,,,,,,,,,,,1,,,,,,,,,,,,,,,,,,,,,,,,,,,,,,,,,,,,,,,,,,,,,,126,148423,23,Male,1,2024/03/26_14:01:41,YZ,None,
,,,,,,calibration,0,30,2,120,5,X,0,right,0.548242617998767,1,0,,,,,,,,,,,,,,,,,,,,,1,,,,,,,,,,,,,,,,,,,,,,,,,,,,,,,,,,,,,,,,,,,,,,126,148423,23,Male,1,2024/03/26_14:01:41,YZ,None,
,,,,,,calibration,0,30,2,120,6,C,1,left,0.4908960089996981,1,0,,,,,,,,,,,,,,,,,,,,,1,,,,,,,,,,,,,,,,,,,,,,,,,,,,,,,,,,,,,,,,,,,,,,126,148423,23,Male,1,2024/03/26_14:01:41,YZ,None,
,,,,,,calibration,0,30,2,120,7,V,0,right,0.9248902459985402,1,0,,,,,,,,,,,,,,,,,,,,,1,,,,,,,,,,,,,,,,,,,,,,,,,,,,,,,,,,,,,,,,,,,,,,126,148423,23,Male,1,2024/03/26_14:01:41,YZ,None,
,,,,,,calibration,0,30,2,120,8,N,0,right,0.638672819997737,1,0,,,,,,,,,,,,,,,,,,,,,1,,,,,,,,,,,,,,,,,,,,,,,,,,,,,,,,,,,,,,,,,,,,,,126,148423,23,Male,1,2024/03/26_14:01:41,YZ,None,
,,,,,,calibration,0,30,2,120,9,F,0,right,0.7573065020005743,1,0,,,,,,,,,,,,,,,,,,,,,1,,,,,,,,,,,,,,,,,,,,,,,,,,,,,,,,,,,,,,,,,,,,,,126,148423,23,Male,1,2024/03/26_14:01:41,YZ,None,
,,,,,,calibration,0,30,2,120,10,J,0,right,0.618014409999887,1,0,,,,,,,,,,,,,,,,,,,,,1,,,,,,,,,,,,,,,,,,,,,,,,,,,,,,,,,,,,,,,,,,,,,,126,148423,23,Male,1,2024/03/26_14:01:41,YZ,None,
,,,,,,calibration,0,30,2,120,11,Q,0,right,0.6859157200015034,1,0,,,,,,,,,,,,,,,,,,,,,1,,,,,,,,,,,,,,,,,,,,,,,,,,,,,,,,,,,,,,,,,,,,,,126,148423,23,Male,1,2024/03/26_14:01:41,YZ,None,
,,,,,,calibration,0,30,2,120,12,V,0,right,0.5773376699980872,1,0,,,,,,,,,,,,,,,,,,,,,1,,,,,,,,,,,,,,,,,,,,,,,,,,,,,,,,,,,,,,,,,,,,,,126,148423,23,Male,1,2024/03/26_14:01:41,YZ,None,
,,,,,,calibration,0,30,2,120,13,Q,1,left,0.8984183199972904,1,0,,,,,,,,,,,,,,,,,,,,,1,,,,,,,,,,,,,,,,,,,,,,,,,,,,,,,,,,,,,,,,,,,,,,126,148423,23,Male,1,2024/03/26_14:01:41,YZ,None,
,,,,,,calibration,0,30,2,120,14,X,0,left,nan,0,1,,,,,,,,,,,,,,,,,,,,,1,,,,,,,,,,,,,,,,,,,,,,,,,,,,,,,,,,,,,,,,,,,,,,126,148423,23,Male,1,2024/03/26_14:01:41,YZ,None,
,,,,,,calibration,0,30,2,120,15,F,0,left,nan,0,1,,,,,,,,,,,,,,,,,,,,,1,,,,,,,,,,,,,,,,,,,,,,,,,,,,,,,,,,,,,,,,,,,,,,126,148423,23,Male,1,2024/03/26_14:01:41,YZ,None,
,,,,,,calibration,0,30,2,120,16,N,0,right,0.8319081289992027,1,0,,,,,,,,,,,,,,,,,,,,,1,,,,,,,,,,,,,,,,,,,,,,,,,,,,,,,,,,,,,,,,,,,,,,126,148423,23,Male,1,2024/03/26_14:01:41,YZ,None,
,,,,,,calibration,0,30,2,120,17,J,0,right,nan,0,1,,,,,,,,,,,,,,,,,,,,,1,,,,,,,,,,,,,,,,,,,,,,,,,,,,,,,,,,,,,,,,,,,,,,126,148423,23,Male,1,2024/03/26_14:01:41,YZ,None,
,,,,,,calibration,0,30,2,120,18,V,0,right,nan,0,1,,,,,,,,,,,,,,,,,,,,,1,,,,,,,,,,,,,,,,,,,,,,,,,,,,,,,,,,,,,,,,,,,,,,126,148423,23,Male,1,2024/03/26_14:01:41,YZ,None,
,,,,,,calibration,0,30,2,120,19,X,0,right,nan,0,1,,,,,,,,,,,,,,,,,,,,,1,,,,,,,,,,,,,,,,,,,,,,,,,,,,,,,,,,,,,,,,,,,,,,126,148423,23,Male,1,2024/03/26_14:01:41,YZ,None,
,,,,,,calibration,0,30,2,120,20,S,0,right,nan,0,1,,,,,,,,,,,,,,,,,,,,,1,,,,,,,,,,,,,,,,,,,,,,,,,,,,,,,,,,,,,,,,,,,,,,126,148423,23,Male,1,2024/03/26_14:01:41,YZ,None,
,,,,,,calibration,0,30,2,120,21,F,0,right,nan,0,1,,,,,,,,,,,,,,,,,,,,,1,,,,,,,,,,,,,,,,,,,,,,,,,,,,,,,,,,,,,,,,,,,,,,126,148423,23,Male,1,2024/03/26_14:01:41,YZ,None,
,,,,,,calibration,0,30,2,120,22,S,1,left,0.6473640750009508,1,0,,,,,,,,,,,,,,,,,,,,,1,,,,,,,,,,,,,,,,,,,,,,,,,,,,,,,,,,,,,,,,,,,,,,126,148423,23,Male,1,2024/03/26_14:01:41,YZ,None,
,,,,,,calibration,0,30,2,120,23,F,1,left,0.7919036390012479,1,0,,,,,,,,,,,,,,,,,,,,,1,,,,,,,,,,,,,,,,,,,,,,,,,,,,,,,,,,,,,,,,,,,,,,126,148423,23,Male,1,2024/03/26_14:01:41,YZ,None,
,,,,,,calibration,0,30,2,120,,,,,,,,1.0,1.0,0.0,1.0,0.30434782608695654,0.6956521739130435,0.6489236096242621,6,0,0,7,7,10,16,6,17,0,,,,1,,,,,,,,,,,,,,,,,,,,,,,,,,,,,,,,,,,,,,,,,,,,,,126,148423,23,Male,1,2024/03/26_14:01:41,YZ,None,
,,,,,,Calibration,0,,2,120,,,,,,,,,,,,,,,,,,,,,,,,,13,,,1,,,,,,,,,,,,,,,,,,,,,,,,,,,,,,,,,,,,,,,,,,,,,,126,148423,23,Male,1,2024/03/26_14:01:41,YZ,None,
,,,,,,calibration,0,13,2,83,1,V,0,right,0.4247937190011726,1,0,,,,,,,,,,,,,,,,,,,,,1,,,,,,,,,,,,,,,,,,,,,,,,,,,,,,,,,,,,,,,,,,,,,,126,148423,23,Male,1,2024/03/26_14:01:41,YZ,None,
,,,,,,calibration,0,13,2,83,2,N,0,right,0.5495770210000046,1,0,,,,,,,,,,,,,,,,,,,,,1,,,,,,,,,,,,,,,,,,,,,,,,,,,,,,,,,,,,,,,,,,,,,,126,148423,23,Male,1,2024/03/26_14:01:41,YZ,None,
,,,,,,calibration,0,13,2,83,3,F,0,right,0.7742297710028652,1,0,,,,,,,,,,,,,,,,,,,,,1,,,,,,,,,,,,,,,,,,,,,,,,,,,,,,,,,,,,,,,,,,,,,,126,148423,23,Male,1,2024/03/26_14:01:41,YZ,None,
,,,,,,calibration,0,13,2,83,4,V,0,right,nan,0,1,,,,,,,,,,,,,,,,,,,,,1,,,,,,,,,,,,,,,,,,,,,,,,,,,,,,,,,,,,,,,,,,,,,,126,148423,23,Male,1,2024/03/26_14:01:41,YZ,None,
,,,,,,calibration,0,13,2,83,5,F,1,right,0.0,0,0,,,,,,,,,,,,,,,,,,,,,1,,,,,,,,,,,,,,,,,,,,,,,,,,,,,,,,,,,,,,,,,,,,,,126,148423,23,Male,1,2024/03/26_14:01:41,YZ,None,
,,,,,,calibration,0,13,2,83,6,N,0,left,0.266409730000305,0,0,,,,,,,,,,,,,,,,,,,,,1,,,,,,,,,,,,,,,,,,,,,,,,,,,,,,,,,,,,,,,,,,,,,,126,148423,23,Male,1,2024/03/26_14:01:41,YZ,None,
,,,,,,calibration,0,13,2,83,7,F,1,left,0.7734512890019687,1,0,,,,,,,,,,,,,,,,,,,,,1,,,,,,,,,,,,,,,,,,,,,,,,,,,,,,,,,,,,,,,,,,,,,,126,148423,23,Male,1,2024/03/26_14:01:41,YZ,None,
,,,,,,calibration,0,13,2,83,8,X,0,right,0.5600725520016567,1,0,,,,,,,,,,,,,,,,,,,,,1,,,,,,,,,,,,,,,,,,,,,,,,,,,,,,,,,,,,,,,,,,,,,,126,148423,23,Male,1,2024/03/26_14:01:41,YZ,None,
,,,,,,calibration,0,13,2,83,9,S,0,left,0.6305257599997276,0,0,,,,,,,,,,,,,,,,,,,,,1,,,,,,,,,,,,,,,,,,,,,,,,,,,,,,,,,,,,,,,,,,,,,,126,148423,23,Male,1,2024/03/26_14:01:41,YZ,None,
,,,,,,calibration,0,13,2,83,10,X,1,left,nan,0,1,,,,,,,,,,,,,,,,,,,,,1,,,,,,,,,,,,,,,,,,,,,,,,,,,,,,,,,,,,,,,,,,,,,,126,148423,23,Male,1,2024/03/26_14:01:41,YZ,None,
,,,,,,calibration,0,13,2,83,11,V,0,left,nan,0,1,,,,,,,,,,,,,,,,,,,,,1,,,,,,,,,,,,,,,,,,,,,,,,,,,,,,,,,,,,,,,,,,,,,,126,148423,23,Male,1,2024/03/26_14:01:41,YZ,None,
,,,,,,calibration,0,13,2,83,12,X,1,left,nan,0,1,,,,,,,,,,,,,,,,,,,,,1,,,,,,,,,,,,,,,,,,,,,,,,,,,,,,,,,,,,,,,,,,,,,,126,148423,23,Male,1,2024/03/26_14:01:41,YZ,None,
,,,,,,calibration,0,13,2,83,13,V,1,left,0.8470307220013638,1,0,,,,,,,,,,,,,,,,,,,,,1,,,,,,,,,,,,,,,,,,,,,,,,,,,,,,,,,,,,,,,,,,,,,,126,148423,23,Male,1,2024/03/26_14:01:41,YZ,None,
,,,,,,calibration,0,13,2,83,14,C,0,right,0.9588936520012794,1,0,,,,,,,,,,,,,,,,,,,,,1,,,,,,,,,,,,,,,,,,,,,,,,,,,,,,,,,,,,,,,,,,,,,,126,148423,23,Male,1,2024/03/26_14:01:41,YZ,None,
,,,,,,calibration,0,13,2,83,15,S,0,right,0.7373884139997244,1,0,,,,,,,,,,,,,,,,,,,,,1,,,,,,,,,,,,,,,,,,,,,,,,,,,,,,,,,,,,,,,,,,,,,,126,148423,23,Male,1,2024/03/26_14:01:41,YZ,None,
,,,,,,calibration,0,13,2,83,16,N,0,right,0.8523162079982285,1,0,,,,,,,,,,,,,,,,,,,,,1,,,,,,,,,,,,,,,,,,,,,,,,,,,,,,,,,,,,,,,,,,,,,,126,148423,23,Male,1,2024/03/26_14:01:41,YZ,None,
,,,,,,calibration,0,13,2,83,17,J,0,right,nan,0,1,,,,,,,,,,,,,,,,,,,,,1,,,,,,,,,,,,,,,,,,,,,,,,,,,,,,,,,,,,,,,,,,,,,,126,148423,23,Male,1,2024/03/26_14:01:41,YZ,None,
,,,,,,calibration,0,13,2,83,18,N,1,left,0.6587224620016059,1,0,,,,,,,,,,,,,,,,,,,,,1,,,,,,,,,,,,,,,,,,,,,,,,,,,,,,,,,,,,,,,,,,,,,,126,148423,23,Male,1,2024/03/26_14:01:41,YZ,None,
,,,,,,calibration,0,13,2,83,19,C,0,right,0.8352346870015026,1,0,,,,,,,,,,,,,,,,,,,,,1,,,,,,,,,,,,,,,,,,,,,,,,,,,,,,,,,,,,,,,,,,,,,,126,148423,23,Male,1,2024/03/26_14:01:41,YZ,None,
,,,,,,calibration,0,13,2,83,20,V,0,right,0.9037442430017109,1,0,,,,,,,,,,,,,,,,,,,,,1,,,,,,,,,,,,,,,,,,,,,,,,,,,,,,,,,,,,,,,,,,,,,,126,148423,23,Male,1,2024/03/26_14:01:41,YZ,None,
,,,,,,calibration,0,13,2,83,21,J,0,right,nan,0,1,,,,,,,,,,,,,,,,,,,,,1,,,,,,,,,,,,,,,,,,,,,,,,,,,,,,,,,,,,,,,,,,,,,,126,148423,23,Male,1,2024/03/26_14:01:41,YZ,None,
,,,,,,calibration,0,13,2,83,22,Q,0,right,0.7979346460015222,1,0,,,,,,,,,,,,,,,,,,,,,1,,,,,,,,,,,,,,,,,,,,,,,,,,,,,,,,,,,,,,,,,,,,,,126,148423,23,Male,1,2024/03/26_14:01:41,YZ,None,
,,,,,,calibration,0,13,2,83,23,F,0,right,0.9806585840015032,1,0,,,,,,,,,,,,,,,,,,,,,1,,,,,,,,,,,,,,,,,,,,,,,,,,,,,,,,,,,,,,,,,,,,,,126,148423,23,Male,1,2024/03/26_14:01:41,YZ,None,
,,,,,,calibration,0,13,2,83,24,X,0,right,0.9904883669987612,1,0,,,,,,,,,,,,,,,,,,,,,1,,,,,,,,,,,,,,,,,,,,,,,,,,,,,,,,,,,,,,,,,,,,,,126,148423,23,Male,1,2024/03/26_14:01:41,YZ,None,
,,,,,,calibration,0,13,2,83,,,,,,,,0.7916666666666666,0.5,0.1111111111111111,0.8571428571428571,0.25,0.6388888888888888,0.6967484348341613,3,2,2,4,6,12,15,6,18,0,,,,1,,,,,,,,,,,,,,,,,,,,,,,,,,,,,,,,,,,,,,,,,,,,,,126,148423,23,Male,1,2024/03/26_14:01:41,YZ,None,
,,,,,,Calibration,0,,2,83,,,,,,,,,,,,,,,,,,,,,,,,,14,,,1,,,,,,,,,,,,,,,,,,,,,,,,,,,,,,,,,,,,,,,,,,,,,,126,148423,23,Male,1,2024/03/26_14:01:41,YZ,None,
,,,,,,calibration,0,22,2,83,1,S,0,right,0.4257740040011413,1,0,,,,,,,,,,,,,,,,,,,,,1,,,,,,,,,,,,,,,,,,,,,,,,,,,,,,,,,,,,,,,,,,,,,,126,148423,23,Male,1,2024/03/26_14:01:41,YZ,None,
,,,,,,calibration,0,22,2,83,2,X,0,right,0.4414711889985483,1,0,,,,,,,,,,,,,,,,,,,,,1,,,,,,,,,,,,,,,,,,,,,,,,,,,,,,,,,,,,,,,,,,,,,,126,148423,23,Male,1,2024/03/26_14:01:41,YZ,None,
,,,,,,calibration,0,22,2,83,3,F,0,right,0.6319836309994571,1,0,,,,,,,,,,,,,,,,,,,,,1,,,,,,,,,,,,,,,,,,,,,,,,,,,,,,,,,,,,,,,,,,,,,,126,148423,23,Male,1,2024/03/26_14:01:41,YZ,None,
,,,,,,calibration,0,22,2,83,4,C,0,right,0.6413199820017326,1,0,,,,,,,,,,,,,,,,,,,,,1,,,,,,,,,,,,,,,,,,,,,,,,,,,,,,,,,,,,,,,,,,,,,,126,148423,23,Male,1,2024/03/26_14:01:41,YZ,None,
,,,,,,calibration,0,22,2,83,5,J,0,right,0.7190463420010929,1,0,,,,,,,,,,,,,,,,,,,,,1,,,,,,,,,,,,,,,,,,,,,,,,,,,,,,,,,,,,,,,,,,,,,,126,148423,23,Male,1,2024/03/26_14:01:41,YZ,None,
,,,,,,calibration,0,22,2,83,6,C,1,right,nan,0,1,,,,,,,,,,,,,,,,,,,,,1,,,,,,,,,,,,,,,,,,,,,,,,,,,,,,,,,,,,,,,,,,,,,,126,148423,23,Male,1,2024/03/26_14:01:41,YZ,None,
,,,,,,calibration,0,22,2,83,7,J,1,right,0.0,0,0,,,,,,,,,,,,,,,,,,,,,1,,,,,,,,,,,,,,,,,,,,,,,,,,,,,,,,,,,,,,,,,,,,,,126,148423,23,Male,1,2024/03/26_14:01:41,YZ,None,
,,,,,,calibration,0,22,2,83,8,S,0,right,0.9138874979980756,1,0,,,,,,,,,,,,,,,,,,,,,1,,,,,,,,,,,,,,,,,,,,,,,,,,,,,,,,,,,,,,,,,,,,,,126,148423,23,Male,1,2024/03/26_14:01:41,YZ,None,
,,,,,,calibration,0,22,2,83,9,C,0,right,0.8689518340033828,1,0,,,,,,,,,,,,,,,,,,,,,1,,,,,,,,,,,,,,,,,,,,,,,,,,,,,,,,,,,,,,,,,,,,,,126,148423,23,Male,1,2024/03/26_14:01:41,YZ,None,
,,,,,,calibration,0,22,2,83,10,V,0,left,0.45951624600274954,0,0,,,,,,,,,,,,,,,,,,,,,1,,,,,,,,,,,,,,,,,,,,,,,,,,,,,,,,,,,,,,,,,,,,,,126,148423,23,Male,1,2024/03/26_14:01:41,YZ,None,
,,,,,,calibration,0,22,2,83,11,C,1,left,0.7499497550015803,1,0,,,,,,,,,,,,,,,,,,,,,1,,,,,,,,,,,,,,,,,,,,,,,,,,,,,,,,,,,,,,,,,,,,,,126,148423,23,Male,1,2024/03/26_14:01:41,YZ,None,
,,,,,,calibration,0,22,2,83,12,V,1,left,0.7898182569988421,1,0,,,,,,,,,,,,,,,,,,,,,1,,,,,,,,,,,,,,,,,,,,,,,,,,,,,,,,,,,,,,,,,,,,,,126,148423,23,Male,1,2024/03/26_14:01:41,YZ,None,
,,,,,,calibration,0,22,2,83,13,F,0,right,0.5850776840015897,1,0,,,,,,,,,,,,,,,,,,,,,1,,,,,,,,,,,,,,,,,,,,,,,,,,,,,,,,,,,,,,,,,,,,,,126,148423,23,Male,1,2024/03/26_14:01:41,YZ,None,
,,,,,,calibration,0,22,2,83,14,Q,0,right,0.5530079939999268,1,0,,,,,,,,,,,,,,,,,,,,,1,,,,,,,,,,,,,,,,,,,,,,,,,,,,,,,,,,,,,,,,,,,,,,126,148423,23,Male,1,2024/03/26_14:01:41,YZ,None,
,,,,,,calibration,0,22,2,83,15,N,0,right,0.7363397919980343,1,0,,,,,,,,,,,,,,,,,,,,,1,,,,,,,,,,,,,,,,,,,,,,,,,,,,,,,,,,,,,,,,,,,,,,126,148423,23,Male,1,2024/03/26_14:01:41,YZ,None,
,,,,,,calibration,0,22,2,83,16,C,0,right,0.9463237809977727,1,0,,,,,,,,,,,,,,,,,,,,,1,,,,,,,,,,,,,,,,,,,,,,,,,,,,,,,,,,,,,,,,,,,,,,126,148423,23,Male,1,2024/03/26_14:01:41,YZ,None,
,,,,,,calibration,0,22,2,83,17,F,0,right,nan,0,1,,,,,,,,,,,,,,,,,,,,,1,,,,,,,,,,,,,,,,,,,,,,,,,,,,,,,,,,,,,,,,,,,,,,126,148423,23,Male,1,2024/03/26_14:01:41,YZ,None,
,,,,,,calibration,0,22,2,83,18,N,0,right,0.8473039090022212,1,0,,,,,,,,,,,,,,,,,,,,,1,,,,,,,,,,,,,,,,,,,,,,,,,,,,,,,,,,,,,,,,,,,,,,126,148423,23,Male,1,2024/03/26_14:01:41,YZ,None,
,,,,,,calibration,0,22,2,83,19,F,1,right,0.6321721780004737,0,0,,,,,,,,,,,,,,,,,,,,,1,,,,,,,,,,,,,,,,,,,,,,,,,,,,,,,,,,,,,,,,,,,,,,126,148423,23,Male,1,2024/03/26_14:01:41,YZ,None,
,,,,,,calibration,0,22,2,83,20,X,0,right,0.7914194880031573,1,0,,,,,,,,,,,,,,,,,,,,,1,,,,,,,,,,,,,,,,,,,,,,,,,,,,,,,,,,,,,,,,,,,,,,126,148423,23,Male,1,2024/03/26_14:01:41,YZ,None,
,,,,,,calibration,0,22,2,83,21,N,0,left,0.4034761709990562,0,0,,,,,,,,,,,,,,,,,,,,,1,,,,,,,,,,,,,,,,,,,,,,,,,,,,,,,,,,,,,,,,,,,,,,126,148423,23,Male,1,2024/03/26_14:01:41,YZ,None,
,,,,,,calibration,0,22,2,83,22,X,1,right,0.7582533869972394,0,0,,,,,,,,,,,,,,,,,,,,,1,,,,,,,,,,,,,,,,,,,,,,,,,,,,,,,,,,,,,,,,,,,,,,126,148423,23,Male,1,2024/03/26_14:01:41,YZ,None,
,,,,,,calibration,0,22,2,83,23,V,0,right,0.7391472150011396,1,0,,,,,,,,,,,,,,,,,,,,,1,,,,,,,,,,,,,,,,,,,,,,,,,,,,,,,,,,,,,,,,,,,,,,126,148423,23,Male,1,2024/03/26_14:01:41,YZ,None,
,,,,,,calibration,0,22,2,83,24,F,0,right,0.9297932730005414,1,0,,,,,,,,,,,,,,,,,,,,,1,,,,,,,,,,,,,,,,,,,,,,,,,,,,,,,,,,,,,,,,,,,,,,126,148423,23,Male,1,2024/03/26_14:01:41,YZ,None,
,,,,,,calibration,0,22,2,83,,,,,,,,0.7222222222222222,0.3333333333333333,0.1111111111111111,0.8823529411764706,0.08333333333333333,0.8055555555555555,0.6620015277276252,2,2,1,1,2,15,17,6,18,0,,,,1,,,,,,,,,,,,,,,,,,,,,,,,,,,,,,,,,,,,,,,,,,,,,,126,148423,23,Male,1,2024/03/26_14:01:41,YZ,None,
,,,,,,Calibration,0,,2,83,,,,,,,,,,,,,,,,,,,,,,,,,15,,,1,,,,,,,,,,,,,,,,,,,,,,,,,,,,,,,,,,,,,,,,,,,,,,126,148423,23,Male,1,2024/03/26_14:01:41,YZ,None,
,,,,,,calibration,0,2,2,120,1,S,0,right,0.4222603650014207,1,0,,,,,,,,,,,,,,,,,,,,,1,,,,,,,,,,,,,,,,,,,,,,,,,,,,,,,,,,,,,,,,,,,,,,126,148423,23,Male,1,2024/03/26_14:01:41,YZ,None,
,,,,,,calibration,0,2,2,120,2,V,0,right,0.44805273600286455,1,0,,,,,,,,,,,,,,,,,,,,,1,,,,,,,,,,,,,,,,,,,,,,,,,,,,,,,,,,,,,,,,,,,,,,126,148423,23,Male,1,2024/03/26_14:01:41,YZ,None,
,,,,,,calibration,0,2,2,120,3,J,0,right,0.6581567989996984,1,0,,,,,,,,,,,,,,,,,,,,,1,,,,,,,,,,,,,,,,,,,,,,,,,,,,,,,,,,,,,,,,,,,,,,126,148423,23,Male,1,2024/03/26_14:01:41,YZ,None,
,,,,,,calibration,0,2,2,120,4,X,0,right,0.7535460100007185,1,0,,,,,,,,,,,,,,,,,,,,,1,,,,,,,,,,,,,,,,,,,,,,,,,,,,,,,,,,,,,,,,,,,,,,126,148423,23,Male,1,2024/03/26_14:01:41,YZ,None,
,,,,,,calibration,0,2,2,120,5,J,1,left,0.8875800390014774,1,0,,,,,,,,,,,,,,,,,,,,,1,,,,,,,,,,,,,,,,,,,,,,,,,,,,,,,,,,,,,,,,,,,,,,126,148423,23,Male,1,2024/03/26_14:01:41,YZ,None,
,,,,,,calibration,0,2,2,120,6,Q,0,right,0.5228881570001249,1,0,,,,,,,,,,,,,,,,,,,,,1,,,,,,,,,,,,,,,,,,,,,,,,,,,,,,,,,,,,,,,,,,,,,,126,148423,23,Male,1,2024/03/26_14:01:41,YZ,None,
,,,,,,calibration,0,2,2,120,7,J,1,left,0.7194783949998964,1,0,,,,,,,,,,,,,,,,,,,,,1,,,,,,,,,,,,,,,,,,,,,,,,,,,,,,,,,,,,,,,,,,,,,,126,148423,23,Male,1,2024/03/26_14:01:41,YZ,None,
,,,,,,calibration,0,2,2,120,8,X,0,right,0.6598932100023376,1,0,,,,,,,,,,,,,,,,,,,,,1,,,,,,,,,,,,,,,,,,,,,,,,,,,,,,,,,,,,,,,,,,,,,,126,148423,23,Male,1,2024/03/26_14:01:41,YZ,None,
,,,,,,calibration,0,2,2,120,9,S,0,right,0.9739205959995161,1,0,,,,,,,,,,,,,,,,,,,,,1,,,,,,,,,,,,,,,,,,,,,,,,,,,,,,,,,,,,,,,,,,,,,,126,148423,23,Male,1,2024/03/26_14:01:41,YZ,None,
,,,,,,calibration,0,2,2,120,10,X,1,left,0.6634505239999271,1,0,,,,,,,,,,,,,,,,,,,,,1,,,,,,,,,,,,,,,,,,,,,,,,,,,,,,,,,,,,,,,,,,,,,,126,148423,23,Male,1,2024/03/26_14:01:41,YZ,None,
,,,,,,calibration,0,2,2,120,11,F,0,right,0.6413005409995094,1,0,,,,,,,,,,,,,,,,,,,,,1,,,,,,,,,,,,,,,,,,,,,,,,,,,,,,,,,,,,,,,,,,,,,,126,148423,23,Male,1,2024/03/26_14:01:41,YZ,None,
,,,,,,calibration,0,2,2,120,12,X,1,left,0.7758418040029937,1,0,,,,,,,,,,,,,,,,,,,,,1,,,,,,,,,,,,,,,,,,,,,,,,,,,,,,,,,,,,,,,,,,,,,,126,148423,23,Male,1,2024/03/26_14:01:41,YZ,None,
,,,,,,calibration,0,2,2,120,13,S,0,left,0.8640678520023357,0,0,,,,,,,,,,,,,,,,,,,,,1,,,,,,,,,,,,,,,,,,,,,,,,,,,,,,,,,,,,,,,,,,,,,,126,148423,23,Male,1,2024/03/26_14:01:41,YZ,None,
,,,,,,calibration,0,2,2,120,14,X,1,left,0.858458693997818,1,0,,,,,,,,,,,,,,,,,,,,,1,,,,,,,,,,,,,,,,,,,,,,,,,,,,,,,,,,,,,,,,,,,,,,126,148423,23,Male,1,2024/03/26_14:01:41,YZ,None,
,,,,,,calibration,0,2,2,120,15,S,1,left,0.7424710769992089,1,0,,,,,,,,,,,,,,,,,,,,,1,,,,,,,,,,,,,,,,,,,,,,,,,,,,,,,,,,,,,,,,,,,,,,126,148423,23,Male,1,2024/03/26_14:01:41,YZ,None,
,,,,,,calibration,0,2,2,120,16,F,0,left,nan,0,1,,,,,,,,,,,,,,,,,,,,,1,,,,,,,,,,,,,,,,,,,,,,,,,,,,,,,,,,,,,,,,,,,,,,126,148423,23,Male,1,2024/03/26_14:01:41,YZ,None,
,,,,,,calibration,0,2,2,120,17,N,0,left,nan,0,1,,,,,,,,,,,,,,,,,,,,,1,,,,,,,,,,,,,,,,,,,,,,,,,,,,,,,,,,,,,,,,,,,,,,126,148423,23,Male,1,2024/03/26_14:01:41,YZ,None,
,,,,,,calibration,0,2,2,120,18,Q,0,right,0.9145612660031475,1,0,,,,,,,,,,,,,,,,,,,,,1,,,,,,,,,,,,,,,,,,,,,,,,,,,,,,,,,,,,,,,,,,,,,,126,148423,23,Male,1,2024/03/26_14:01:41,YZ,None,
,,,,,,calibration,0,2,2,120,19,S,0,right,0.7136962760014285,1,0,,,,,,,,,,,,,,,,,,,,,1,,,,,,,,,,,,,,,,,,,,,,,,,,,,,,,,,,,,,,,,,,,,,,126,148423,23,Male,1,2024/03/26_14:01:41,YZ,None,
,,,,,,calibration,0,2,2,120,20,N,0,left,0.5239928039991355,0,0,,,,,,,,,,,,,,,,,,,,,1,,,,,,,,,,,,,,,,,,,,,,,,,,,,,,,,,,,,,,,,,,,,,,126,148423,23,Male,1,2024/03/26_14:01:41,YZ,None,
,,,,,,calibration,0,2,2,120,21,Q,0,left,nan,0,1,,,,,,,,,,,,,,,,,,,,,1,,,,,,,,,,,,,,,,,,,,,,,,,,,,,,,,,,,,,,,,,,,,,,126,148423,23,Male,1,2024/03/26_14:01:41,YZ,None,
,,,,,,calibration,0,2,2,120,22,J,0,right,0.824033660999703,1,0,,,,,,,,,,,,,,,,,,,,,1,,,,,,,,,,,,,,,,,,,,,,,,,,,,,,,,,,,,,,,,,,,,,,126,148423,23,Male,1,2024/03/26_14:01:41,YZ,None,
,,,,,,calibration,0,2,2,120,23,X,0,right,0.669922642999154,1,0,,,,,,,,,,,,,,,,,,,,,1,,,,,,,,,,,,,,,,,,,,,,,,,,,,,,,,,,,,,,,,,,,,,,126,148423,23,Male,1,2024/03/26_14:01:41,YZ,None,
,,,,,,calibration,0,2,2,120,,,,,,,,0.9705882352941176,1.0,0.11764705882352941,0.8571428571428571,0.13043478260869565,0.7519181585677749,0.7118786724506208,6,2,0,3,3,12,18,6,17,0,,,,1,,,,,,,,,,,,,,,,,,,,,,,,,,,,,,,,,,,,,,,,,,,,,,126,148423,23,Male,1,2024/03/26_14:01:41,YZ,None,
,,,,,,Calibration,0,,2,120,,,,,,,,,,,,,,,,,,,,,,,,,16,,,1,,,,,,,,,,,,,,,,,,,,,,,,,,,,,,,,,,,,,,,,,,,,,,126,148423,23,Male,1,2024/03/26_14:01:41,YZ,None,
,,,,,,CALIBRATION,0,,,,,,,,,,,,,,,,,,,,,,,,,,,,16,0.9705882352941176,120,1,,,,,,,,,,,,,,,,,,,,,,,,,,,,,,,,,,,,,,,,,,,,,,126,148423,23,Male,1,2024/03/26_14:01:41,YZ,None,
-1,./instructions/inst_prac_1/Slide24.png,left,9.359885924997798,659.5925389130025,668.9524248380003,,,,,,,,,,,,,,,,,,,,,,,,,,,,,,,,,1,,,,,,,,,,,,,,,,,,,,,,,,,,,,,,,,,,,,,,,,,,,,,,126,148423,23,Male,1,2024/03/26_14:01:41,YZ,None,
0,./instructions/inst_prac_1/Slide30.png,right,1.9947880010004155,668.9814125350022,670.9762005360026,,,,,,,,,,,,,,,,,,,,,,,,,,,,,,,,,1,,,,,,,,,,,,,,,,,,,,,,,,,,,,,,,,,,,,,,,,,,,,,,126,148423,23,Male,1,2024/03/26_14:01:41,YZ,None,
1,./instructions/inst_prac_1/Slide24.png,right,2.2191844579974713,671.0051074790026,673.2242919370001,,,,,,,,,,,,,,,,,,,,,,,,,,,,,,,,,1,,,,,,,,,,,,,,,,,,,,,,,,,,,,,,,,,,,,,,,,,,,,,,126,148423,23,Male,1,2024/03/26_14:01:41,YZ,None,
2,./instructions/inst_prac_1/Slide25.png,right,1.5249637589986378,673.251313953002,674.7762777120006,,,,,,,,,,,,,,,,,,,,,,,,,,,,,,,,,1,,,,,,,,,,,,,,,,,,,,,,,,,,,,,,,,,,,,,,,,,,,,,,126,148423,23,Male,1,2024/03/26_14:01:41,YZ,None,
3,./instructions/inst_prac_1/Slide26.png,right,1.261398751001252,674.8027364900008,676.0641352410021,,,,,,,,,,,,,,,,,,,,,,,,,,,,,,,,,1,,,,,,,,,,,,,,,,,,,,,,,,,,,,,,,,,,,,,,,,,,,,,,126,148423,23,Male,1,2024/03/26_14:01:41,YZ,None,
4,./instructions/inst_prac_1/Slide27.png,right,0.8430910370007041,676.0931269480025,676.9362179850032,,,,,,,,,,,,,,,,,,,,,,,,,,,,,,,,,1,,,,,,,,,,,,,,,,,,,,,,,,,,,,,,,,,,,,,,,,,,,,,,126,148423,23,Male,1,2024/03/26_14:01:41,YZ,None,
5,./instructions/inst_prac_1/Slide28.png,right,0.771157711998967,676.9651278710007,677.7362855829997,,,,,,,,,,,,,,,,,,,,,,,,,,,,,,,,,1,,,,,,,,,,,,,,,,,,,,,,,,,,,,,,,,,,,,,,,,,,,,,,126,148423,23,Male,1,2024/03/26_14:01:41,YZ,None,
6,./instructions/inst_prac_1/Slide29.png,right,3.7468458179973823,677.7652320920024,681.5120779099998,,,,,,,,,,,,,,,,,,,,,,,,,,,,,,,,,1,,,,,,,,,,,,,,,,,,,,,,,,,,,,,,,,,,,,,,,,,,,,,,126,148423,23,Male,1,2024/03/26_14:01:41,YZ,None,
7,./instructions/inst_prac_1/Slide30.png,right,3.3237787340003706,681.5404946430026,684.864273377003,,,,,,,,,,,,,,,,,,,,,,,,,,,,,,,,,1,,,,,,,,,,,,,,,,,,,,,,,,,,,,,,,,,,,,,,,,,,,,,,126,148423,23,Male,1,2024/03/26_14:01:41,YZ,None,
,,,,,,practice,0,18,1,1250,1,X,0,right,1.795651894997718,1,0,,,,,,,,,,,,,,,,,,,,,1,,,,,,,,,,,,,,,,,,,,,,,,,,,,,,,,,,,,,,,,,,,,,,126,148423,23,Male,1,2024/03/26_14:01:41,YZ,None,
,,,,,,practice,0,18,1,1250,2,X,1,left,1.5088365299998259,1,0,,,,,,,,,,,,,,,,,,,,,1,,,,,,,,,,,,,,,,,,,,,,,,,,,,,,,,,,,,,,,,,,,,,,126,148423,23,Male,1,2024/03/26_14:01:41,YZ,None,
,,,,,,practice,0,18,1,1250,3,F,0,right,1.1960279929990065,1,0,,,,,,,,,,,,,,,,,,,,,1,,,,,,,,,,,,,,,,,,,,,,,,,,,,,,,,,,,,,,,,,,,,,,126,148423,23,Male,1,2024/03/26_14:01:41,YZ,None,
,,,,,,practice,0,18,1,1250,4,N,0,right,0.8328512950029108,1,0,,,,,,,,,,,,,,,,,,,,,1,,,,,,,,,,,,,,,,,,,,,,,,,,,,,,,,,,,,,,,,,,,,,,126,148423,23,Male,1,2024/03/26_14:01:41,YZ,None,
,,,,,,practice,0,18,1,1250,5,F,0,right,1.532512965000933,1,0,,,,,,,,,,,,,,,,,,,,,1,,,,,,,,,,,,,,,,,,,,,,,,,,,,,,,,,,,,,,,,,,,,,,126,148423,23,Male,1,2024/03/26_14:01:41,YZ,None,
,,,,,,practice,0,18,1,1250,6,Q,0,right,0.6755674359992554,1,0,,,,,,,,,,,,,,,,,,,,,1,,,,,,,,,,,,,,,,,,,,,,,,,,,,,,,,,,,,,,,,,,,,,,126,148423,23,Male,1,2024/03/26_14:01:41,YZ,None,
,,,,,,practice,0,18,1,1250,7,Q,1,left,0.6448636610002723,1,0,,,,,,,,,,,,,,,,,,,,,1,,,,,,,,,,,,,,,,,,,,,,,,,,,,,,,,,,,,,,,,,,,,,,126,148423,23,Male,1,2024/03/26_14:01:41,YZ,None,
,,,,,,practice,0,18,1,1250,8,V,0,right,0.5310319009986415,1,0,,,,,,,,,,,,,,,,,,,,,1,,,,,,,,,,,,,,,,,,,,,,,,,,,,,,,,,,,,,,,,,,,,,,126,148423,23,Male,1,2024/03/26_14:01:41,YZ,None,
,,,,,,practice,0,18,1,1250,9,F,0,right,0.8513530590025766,1,0,,,,,,,,,,,,,,,,,,,,,1,,,,,,,,,,,,,,,,,,,,,,,,,,,,,,,,,,,,,,,,,,,,,,126,148423,23,Male,1,2024/03/26_14:01:41,YZ,None,
,,,,,,practice,0,18,1,1250,10,F,1,left,0.907453253003041,1,0,,,,,,,,,,,,,,,,,,,,,1,,,,,,,,,,,,,,,,,,,,,,,,,,,,,,,,,,,,,,,,,,,,,,126,148423,23,Male,1,2024/03/26_14:01:41,YZ,None,
,,,,,,practice,0,18,1,1250,,,,,,,,1.0,1.0,0.0,1.0,0.0,1.0,1.0476149988004182,3,0,0,0,0,7,10,3,7,0,,,,1,,,,,,,,,,,,,,,,,,,,,,,,,,,,,,,,,,,,,,,,,,,,,,126,148423,23,Male,1,2024/03/26_14:01:41,YZ,None,
1,./instructions/inst_prac_1_next/Slide35.png,right,1.235821891001251,705.8763180280002,707.1121399190015,,,,,,,,,,,,,,,,,,,,,,,,,,,,,,,,,1,,,,,,,,,,,,,,,,,,,,,,,,,,,,,,,,,,,,,,,,,,,,,,126,148423,23,Male,1,2024/03/26_14:01:41,YZ,None,
,,,,,,practice,0,20,1,120,1,V,0,right,0.5399431679979898,1,0,,,,,,,,,,,,,,,,,,,,,1,,,,,,,,,,,,,,,,,,,,,,,,,,,,,,,,,,,,,,,,,,,,,,126,148423,23,Male,1,2024/03/26_14:01:41,YZ,None,
,,,,,,practice,0,20,1,120,2,V,1,left,0.7901795449979545,1,0,,,,,,,,,,,,,,,,,,,,,1,,,,,,,,,,,,,,,,,,,,,,,,,,,,,,,,,,,,,,,,,,,,,,126,148423,23,Male,1,2024/03/26_14:01:41,YZ,None,
,,,,,,practice,0,20,1,120,3,J,0,right,0.6727199809974991,1,0,,,,,,,,,,,,,,,,,,,,,1,,,,,,,,,,,,,,,,,,,,,,,,,,,,,,,,,,,,,,,,,,,,,,126,148423,23,Male,1,2024/03/26_14:01:41,YZ,None,
,,,,,,practice,0,20,1,120,4,N,0,right,0.8287407220013847,1,0,,,,,,,,,,,,,,,,,,,,,1,,,,,,,,,,,,,,,,,,,,,,,,,,,,,,,,,,,,,,,,,,,,,,126,148423,23,Male,1,2024/03/26_14:01:41,YZ,None,
,,,,,,practice,0,20,1,120,5,C,0,right,0.633542891999241,1,0,,,,,,,,,,,,,,,,,,,,,1,,,,,,,,,,,,,,,,,,,,,,,,,,,,,,,,,,,,,,,,,,,,,,126,148423,23,Male,1,2024/03/26_14:01:41,YZ,None,
,,,,,,practice,0,20,1,120,6,C,1,left,0.5643855150010495,1,0,,,,,,,,,,,,,,,,,,,,,1,,,,,,,,,,,,,,,,,,,,,,,,,,,,,,,,,,,,,,,,,,,,,,126,148423,23,Male,1,2024/03/26_14:01:41,YZ,None,
,,,,,,practice,0,20,1,120,7,N,0,right,0.5876590370025951,1,0,,,,,,,,,,,,,,,,,,,,,1,,,,,,,,,,,,,,,,,,,,,,,,,,,,,,,,,,,,,,,,,,,,,,126,148423,23,Male,1,2024/03/26_14:01:41,YZ,None,
,,,,,,practice,0,20,1,120,8,J,0,right,1.068648108997877,1,0,,,,,,,,,,,,,,,,,,,,,1,,,,,,,,,,,,,,,,,,,,,,,,,,,,,,,,,,,,,,,,,,,,,,126,148423,23,Male,1,2024/03/26_14:01:41,YZ,None,
,,,,,,practice,0,20,1,120,9,Q,0,right,0.9310703619994456,1,0,,,,,,,,,,,,,,,,,,,,,1,,,,,,,,,,,,,,,,,,,,,,,,,,,,,,,,,,,,,,,,,,,,,,126,148423,23,Male,1,2024/03/26_14:01:41,YZ,None,
,,,,,,practice,0,20,1,120,10,N,0,right,0.670715526001004,1,0,,,,,,,,,,,,,,,,,,,,,1,,,,,,,,,,,,,,,,,,,,,,,,,,,,,,,,,,,,,,,,,,,,,,126,148423,23,Male,1,2024/03/26_14:01:41,YZ,None,
,,,,,,practice,0,20,1,120,11,N,1,left,0.6203710440022405,1,0,,,,,,,,,,,,,,,,,,,,,1,,,,,,,,,,,,,,,,,,,,,,,,,,,,,,,,,,,,,,,,,,,,,,126,148423,23,Male,1,2024/03/26_14:01:41,YZ,None,
,,,,,,practice,0,20,1,120,12,V,0,right,0.5451475020017824,1,0,,,,,,,,,,,,,,,,,,,,,1,,,,,,,,,,,,,,,,,,,,,,,,,,,,,,,,,,,,,,,,,,,,,,126,148423,23,Male,1,2024/03/26_14:01:41,YZ,None,
,,,,,,practice,0,20,1,120,13,N,0,right,0.846070765001059,1,0,,,,,,,,,,,,,,,,,,,,,1,,,,,,,,,,,,,,,,,,,,,,,,,,,,,,,,,,,,,,,,,,,,,,126,148423,23,Male,1,2024/03/26_14:01:41,YZ,None,
,,,,,,practice,0,20,1,120,14,F,0,right,0.8092774959986855,1,0,,,,,,,,,,,,,,,,,,,,,1,,,,,,,,,,,,,,,,,,,,,,,,,,,,,,,,,,,,,,,,,,,,,,126,148423,23,Male,1,2024/03/26_14:01:41,YZ,None,
,,,,,,practice,0,20,1,120,15,J,0,right,0.6451231579994783,1,0,,,,,,,,,,,,,,,,,,,,,1,,,,,,,,,,,,,,,,,,,,,,,,,,,,,,,,,,,,,,,,,,,,,,126,148423,23,Male,1,2024/03/26_14:01:41,YZ,None,
,,,,,,practice,0,20,1,120,16,J,1,left,0.5801951559988083,1,0,,,,,,,,,,,,,,,,,,,,,1,,,,,,,,,,,,,,,,,,,,,,,,,,,,,,,,,,,,,,,,,,,,,,126,148423,23,Male,1,2024/03/26_14:01:41,YZ,None,
,,,,,,practice,0,20,1,120,17,Q,0,right,0.5451517799992871,1,0,,,,,,,,,,,,,,,,,,,,,1,,,,,,,,,,,,,,,,,,,,,,,,,,,,,,,,,,,,,,,,,,,,,,126,148423,23,Male,1,2024/03/26_14:01:41,YZ,None,
,,,,,,practice,0,20,1,120,18,Q,1,left,0.612778465001611,1,0,,,,,,,,,,,,,,,,,,,,,1,,,,,,,,,,,,,,,,,,,,,,,,,,,,,,,,,,,,,,,,,,,,,,126,148423,23,Male,1,2024/03/26_14:01:41,YZ,None,
,,,,,,practice,0,20,1,120,19,S,0,right,0.5160327939993294,1,0,,,,,,,,,,,,,,,,,,,,,1,,,,,,,,,,,,,,,,,,,,,,,,,,,,,,,,,,,,,,,,,,,,,,126,148423,23,Male,1,2024/03/26_14:01:41,YZ,None,
,,,,,,practice,0,20,1,120,20,X,0,right,0.8446304579993011,1,0,,,,,,,,,,,,,,,,,,,,,1,,,,,,,,,,,,,,,,,,,,,,,,,,,,,,,,,,,,,,,,,,,,,,126,148423,23,Male,1,2024/03/26_14:01:41,YZ,None,
,,,,,,practice,0,20,1,120,21,C,0,right,0.6228529619984329,1,0,,,,,,,,,,,,,,,,,,,,,1,,,,,,,,,,,,,,,,,,,,,,,,,,,,,,,,,,,,,,,,,,,,,,126,148423,23,Male,1,2024/03/26_14:01:41,YZ,None,
,,,,,,practice,0,20,1,120,22,F,0,right,0.5719921359996079,1,0,,,,,,,,,,,,,,,,,,,,,1,,,,,,,,,,,,,,,,,,,,,,,,,,,,,,,,,,,,,,,,,,,,,,126,148423,23,Male,1,2024/03/26_14:01:41,YZ,None,
,,,,,,practice,0,20,1,120,23,F,1,left,0.5000179779999598,1,0,,,,,,,,,,,,,,,,,,,,,1,,,,,,,,,,,,,,,,,,,,,,,,,,,,,,,,,,,,,,,,,,,,,,126,148423,23,Male,1,2024/03/26_14:01:41,YZ,None,
,,,,,,practice,0,20,1,120,,,,,,,,1.0,1.0,0.0,1.0,0.0,1.0,0.6759672413476359,6,0,0,0,0,17,23,6,17,0,,,,1,,,,,,,,,,,,,,,,,,,,,,,,,,,,,,,,,,,,,,,,,,,,,,126,148423,23,Male,1,2024/03/26_14:01:41,YZ,None,
,,,,,,practice,0,36,1,120,1,V,0,right,0.7443399179974222,1,0,,,,,,,,,,,,,,,,,,,,,1,,,,,,,,,,,,,,,,,,,,,,,,,,,,,,,,,,,,,,,,,,,,,,126,148423,23,Male,1,2024/03/26_14:01:41,YZ,None,
,,,,,,practice,0,36,1,120,2,V,1,left,0.5669328590010991,1,0,,,,,,,,,,,,,,,,,,,,,1,,,,,,,,,,,,,,,,,,,,,,,,,,,,,,,,,,,,,,,,,,,,,,126,148423,23,Male,1,2024/03/26_14:01:41,YZ,None,
,,,,,,practice,0,36,1,120,3,X,0,right,0.5532709930012061,1,0,,,,,,,,,,,,,,,,,,,,,1,,,,,,,,,,,,,,,,,,,,,,,,,,,,,,,,,,,,,,,,,,,,,,126,148423,23,Male,1,2024/03/26_14:01:41,YZ,None,
,,,,,,practice,0,36,1,120,4,V,0,right,0.7804826679966936,1,0,,,,,,,,,,,,,,,,,,,,,1,,,,,,,,,,,,,,,,,,,,,,,,,,,,,,,,,,,,,,,,,,,,,,126,148423,23,Male,1,2024/03/26_14:01:41,YZ,None,
,,,,,,practice,0,36,1,120,5,V,1,left,0.5923863200005144,1,0,,,,,,,,,,,,,,,,,,,,,1,,,,,,,,,,,,,,,,,,,,,,,,,,,,,,,,,,,,,,,,,,,,,,126,148423,23,Male,1,2024/03/26_14:01:41,YZ,None,
,,,,,,practice,0,36,1,120,6,S,0,right,0.4484453160002886,1,0,,,,,,,,,,,,,,,,,,,,,1,,,,,,,,,,,,,,,,,,,,,,,,,,,,,,,,,,,,,,,,,,,,,,126,148423,23,Male,1,2024/03/26_14:01:41,YZ,None,
,,,,,,practice,0,36,1,120,7,S,1,left,0.6348672570020426,1,0,,,,,,,,,,,,,,,,,,,,,1,,,,,,,,,,,,,,,,,,,,,,,,,,,,,,,,,,,,,,,,,,,,,,126,148423,23,Male,1,2024/03/26_14:01:41,YZ,None,
,,,,,,practice,0,36,1,120,8,J,0,right,0.5315146510001796,1,0,,,,,,,,,,,,,,,,,,,,,1,,,,,,,,,,,,,,,,,,,,,,,,,,,,,,,,,,,,,,,,,,,,,,126,148423,23,Male,1,2024/03/26_14:01:41,YZ,None,
,,,,,,practice,0,36,1,120,9,J,1,left,0.7102722939998785,1,0,,,,,,,,,,,,,,,,,,,,,1,,,,,,,,,,,,,,,,,,,,,,,,,,,,,,,,,,,,,,,,,,,,,,126,148423,23,Male,1,2024/03/26_14:01:41,YZ,None,
,,,,,,practice,0,36,1,120,10,F,0,right,0.8362808620004216,1,0,,,,,,,,,,,,,,,,,,,,,1,,,,,,,,,,,,,,,,,,,,,,,,,,,,,,,,,,,,,,,,,,,,,,126,148423,23,Male,1,2024/03/26_14:01:41,YZ,None,
,,,,,,practice,0,36,1,120,11,S,0,right,0.5562014839997573,1,0,,,,,,,,,,,,,,,,,,,,,1,,,,,,,,,,,,,,,,,,,,,,,,,,,,,,,,,,,,,,,,,,,,,,126,148423,23,Male,1,2024/03/26_14:01:41,YZ,None,
,,,,,,practice,0,36,1,120,12,J,0,right,0.6709292020022986,1,0,,,,,,,,,,,,,,,,,,,,,1,,,,,,,,,,,,,,,,,,,,,,,,,,,,,,,,,,,,,,,,,,,,,,126,148423,23,Male,1,2024/03/26_14:01:41,YZ,None,
,,,,,,practice,0,36,1,120,13,J,1,left,0.6201956099976087,1,0,,,,,,,,,,,,,,,,,,,,,1,,,,,,,,,,,,,,,,,,,,,,,,,,,,,,,,,,,,,,,,,,,,,,126,148423,23,Male,1,2024/03/26_14:01:41,YZ,None,
,,,,,,practice,0,36,1,120,14,X,0,right,0.47574837199863396,1,0,,,,,,,,,,,,,,,,,,,,,1,,,,,,,,,,,,,,,,,,,,,,,,,,,,,,,,,,,,,,,,,,,,,,126,148423,23,Male,1,2024/03/26_14:01:41,YZ,None,
,,,,,,practice,0,36,1,120,15,N,0,right,0.5704654540022602,1,0,,,,,,,,,,,,,,,,,,,,,1,,,,,,,,,,,,,,,,,,,,,,,,,,,,,,,,,,,,,,,,,,,,,,126,148423,23,Male,1,2024/03/26_14:01:41,YZ,None,
,,,,,,practice,0,36,1,120,16,N,1,left,0.7172998370006098,1,0,,,,,,,,,,,,,,,,,,,,,1,,,,,,,,,,,,,,,,,,,,,,,,,,,,,,,,,,,,,,,,,,,,,,126,148423,23,Male,1,2024/03/26_14:01:41,YZ,None,
,,,,,,practice,0,36,1,120,17,V,0,right,0.6765442750001966,1,0,,,,,,,,,,,,,,,,,,,,,1,,,,,,,,,,,,,,,,,,,,,,,,,,,,,,,,,,,,,,,,,,,,,,126,148423,23,Male,1,2024/03/26_14:01:41,YZ,None,
,,,,,,practice,0,36,1,120,18,N,0,right,0.7158456559991464,1,0,,,,,,,,,,,,,,,,,,,,,1,,,,,,,,,,,,,,,,,,,,,,,,,,,,,,,,,,,,,,,,,,,,,,126,148423,23,Male,1,2024/03/26_14:01:41,YZ,None,
,,,,,,practice,0,36,1,120,19,F,0,right,0.5885767910003779,1,0,,,,,,,,,,,,,,,,,,,,,1,,,,,,,,,,,,,,,,,,,,,,,,,,,,,,,,,,,,,,,,,,,,,,126,148423,23,Male,1,2024/03/26_14:01:41,YZ,None,
,,,,,,practice,0,36,1,120,20,Q,0,right,0.6455115900025703,1,0,,,,,,,,,,,,,,,,,,,,,1,,,,,,,,,,,,,,,,,,,,,,,,,,,,,,,,,,,,,,,,,,,,,,126,148423,23,Male,1,2024/03/26_14:01:41,YZ,None,
,,,,,,practice,0,36,1,120,21,J,0,right,0.6204220489998988,1,0,,,,,,,,,,,,,,,,,,,,,1,,,,,,,,,,,,,,,,,,,,,,,,,,,,,,,,,,,,,,,,,,,,,,126,148423,23,Male,1,2024/03/26_14:01:41,YZ,None,
,,,,,,practice,0,36,1,120,22,J,1,left,0.3780584980013373,1,0,,,,,,,,,,,,,,,,,,,,,1,,,,,,,,,,,,,,,,,,,,,,,,,,,,,,,,,,,,,,,,,,,,,,126,148423,23,Male,1,2024/03/26_14:01:41,YZ,None,
,,,,,,practice,0,36,1,120,23,X,0,right,0.3531602639995981,1,0,,,,,,,,,,,,,,,,,,,,,1,,,,,,,,,,,,,,,,,,,,,,,,,,,,,,,,,,,,,,,,,,,,,,126,148423,23,Male,1,2024/03/26_14:01:41,YZ,None,
,,,,,,practice,0,36,1,120,,,,,,,,1.0,1.0,0.0,1.0,0.0,1.0,0.6081631400001757,7,0,0,0,0,16,23,7,16,0,,,,1,,,,,,,,,,,,,,,,,,,,,,,,,,,,,,,,,,,,,,,,,,,,,,126,148423,23,Male,1,2024/03/26_14:01:41,YZ,None,
1,./instructions/inst_prac_3/Slide37.png,right,11.036478645000898,764.8196962360016,775.8561748810025,,,,,,,,,,,,,,,,,,,,,,,,,,,,,,,,,1,,,,,,,,,,,,,,,,,,,,,,,,,,,,,,,,,,,,,,,,,,,,,,126,148423,23,Male,1,2024/03/26_14:01:41,YZ,None,
2,./instructions/inst_prac_3/Slide38.png,right,2.8653646709972236,775.8866608410026,778.7520255119998,,,,,,,,,,,,,,,,,,,,,,,,,,,,,,,,,1,,,,,,,,,,,,,,,,,,,,,,,,,,,,,,,,,,,,,,,,,,,,,,126,148423,23,Male,1,2024/03/26_14:01:41,YZ,None,
3,./instructions/inst_prac_3/Slide39.png,right,0.6858354379983211,778.7785958420027,779.464431280001,,,,,,,,,,,,,,,,,,,,,,,,,,,,,,,,,1,,,,,,,,,,,,,,,,,,,,,,,,,,,,,,,,,,,,,,,,,,,,,,126,148423,23,Male,1,2024/03/26_14:01:41,YZ,None,
4,./instructions/inst_prac_3/Slide40.png,right,1.0828816379980708,779.4933050550026,780.5761866930006,,,,,,,,,,,,,,,,,,,,,,,,,,,,,,,,,1,,,,,,,,,,,,,,,,,,,,,,,,,,,,,,,,,,,,,,,,,,,,,,126,148423,23,Male,1,2024/03/26_14:01:41,YZ,None,
5,./instructions/inst_prac_3/Slide41.png,right,15.291293930000393,780.6048510830005,795.8961450130009,,,,,,,,,,,,,,,,,,,,,,,,,,,,,,,,,1,,,,,,,,,,,,,,,,,,,,,,,,,,,,,,,,,,,,,,,,,,,,,,126,148423,23,Male,1,2024/03/26_14:01:41,YZ,None,
6,./instructions/inst_prac_3/Slide42.png,right,0.8441284029977396,795.9239438710028,796.7680722740006,,,,,,,,,,,,,,,,,,,,,,,,,,,,,,,,,1,,,,,,,,,,,,,,,,,,,,,,,,,,,,,,,,,,,,,,,,,,,,,,126,148423,23,Male,1,2024/03/26_14:01:41,YZ,None,
7,./instructions/inst_prac_3/Slide43.png,right,2.730996688002051,796.7972581579997,799.5282548460018,,,,,,,,,,,,,,,,,,,,,,,,,,,,,,,,,1,,,,,,,,,,,,,,,,,,,,,,,,,,,,,,,,,,,,,,,,,,,,,,126,148423,23,Male,1,2024/03/26_14:01:41,YZ,None,
8,./instructions/inst_prac_3/Slide44.png,right,1.3788324829984049,799.5573341570016,800.93616664,,,,,,,,,,,,,,,,,,,,,,,,,,,,,,,,,1,,,,,,,,,,,,,,,,,,,,,,,,,,,,,,,,,,,,,,,,,,,,,,126,148423,23,Male,1,2024/03/26_14:01:41,YZ,None,
,,,,,,practice,0,27,3,788,1,X,0,right,1.8256334050020087,1,0,,,,,,,,,,,,,,,,,,,,,1,,,,,,,,,,,,,,,,,,,,,,,,,,,,,,,,,,,,,,,,,,,,,,126,148423,23,Male,1,2024/03/26_14:01:41,YZ,None,
,,,,,,practice,0,27,3,788,2,X,0,right,0.759353753997857,1,0,,,,,,,,,,,,,,,,,,,,,1,,,,,,,,,,,,,,,,,,,,,,,,,,,,,,,,,,,,,,,,,,,,,,126,148423,23,Male,1,2024/03/26_14:01:41,YZ,None,
,,,,,,practice,0,27,3,788,3,J,0,right,1.732879500999843,1,0,,,,,,,,,,,,,,,,,,,,,1,,,,,,,,,,,,,,,,,,,,,,,,,,,,,,,,,,,,,,,,,,,,,,126,148423,23,Male,1,2024/03/26_14:01:41,YZ,None,
,,,,,,practice,0,27,3,788,4,Q,0,right,1.0926308289999724,1,0,,,,,,,,,,,,,,,,,,,,,1,,,,,,,,,,,,,,,,,,,,,,,,,,,,,,,,,,,,,,,,,,,,,,126,148423,23,Male,1,2024/03/26_14:01:41,YZ,None,
,,,,,,practice,0,27,3,788,5,F,0,right,1.277506145001098,1,0,,,,,,,,,,,,,,,,,,,,,1,,,,,,,,,,,,,,,,,,,,,,,,,,,,,,,,,,,,,,,,,,,,,,126,148423,23,Male,1,2024/03/26_14:01:41,YZ,None,
,,,,,,practice,0,27,3,788,6,F,0,right,0.8829738959975657,1,0,,,,,,,,,,,,,,,,,,,,,1,,,,,,,,,,,,,,,,,,,,,,,,,,,,,,,,,,,,,,,,,,,,,,126,148423,23,Male,1,2024/03/26_14:01:41,YZ,None,
,,,,,,practice,0,27,3,788,7,Q,1,left,1.5400008229989908,1,0,,,,,,,,,,,,,,,,,,,,,1,,,,,,,,,,,,,,,,,,,,,,,,,,,,,,,,,,,,,,,,,,,,,,126,148423,23,Male,1,2024/03/26_14:01:41,YZ,None,
,,,,,,practice,0,27,3,788,8,C,0,right,1.2381177429997479,1,0,,,,,,,,,,,,,,,,,,,,,1,,,,,,,,,,,,,,,,,,,,,,,,,,,,,,,,,,,,,,,,,,,,,,126,148423,23,Male,1,2024/03/26_14:01:41,YZ,None,
,,,,,,practice,0,27,3,788,9,F,1,left,1.3370350949990097,1,0,,,,,,,,,,,,,,,,,,,,,1,,,,,,,,,,,,,,,,,,,,,,,,,,,,,,,,,,,,,,,,,,,,,,126,148423,23,Male,1,2024/03/26_14:01:41,YZ,None,
,,,,,,practice,0,27,3,788,10,C,0,right,0.8173076890016091,1,0,,,,,,,,,,,,,,,,,,,,,1,,,,,,,,,,,,,,,,,,,,,,,,,,,,,,,,,,,,,,,,,,,,,,126,148423,23,Male,1,2024/03/26_14:01:41,YZ,None,
,,,,,,practice,0,27,3,788,11,C,1,left,0.708316885997192,1,0,,,,,,,,,,,,,,,,,,,,,1,,,,,,,,,,,,,,,,,,,,,,,,,,,,,,,,,,,,,,,,,,,,,,126,148423,23,Male,1,2024/03/26_14:01:41,YZ,None,
,,,,,,practice,0,27,3,788,12,F,1,left,1.8680859560008685,1,0,,,,,,,,,,,,,,,,,,,,,1,,,,,,,,,,,,,,,,,,,,,,,,,,,,,,,,,,,,,,,,,,,,,,126,148423,23,Male,1,2024/03/26_14:01:41,YZ,None,
,,,,,,practice,0,27,3,788,13,S,0,right,1.793481297998369,1,0,,,,,,,,,,,,,,,,,,,,,1,,,,,,,,,,,,,,,,,,,,,,,,,,,,,,,,,,,,,,,,,,,,,,126,148423,23,Male,1,2024/03/26_14:01:41,YZ,None,
,,,,,,practice,0,27,3,788,,,,,,,,1.0,1.0,0.0,1.0,0.0,1.0,1.2979479246149332,4,0,0,0,0,9,13,4,9,0,,,,1,,,,,,,,,,,,,,,,,,,,,,,,,,,,,,,,,,,,,,,,,,,,,,126,148423,23,Male,1,2024/03/26_14:01:41,YZ,None,
1,./instructions/inst_prac_3_next/Slide49.png,right,4.972710740999901,831.4996749940001,836.472385735,,,,,,,,,,,,,,,,,,,,,,,,,,,,,,,,,1,,,,,,,,,,,,,,,,,,,,,,,,,,,,,,,,,,,,,,,,,,,,,,126,148423,23,Male,1,2024/03/26_14:01:41,YZ,None,
,,,,,,practice,0,22,3,120,1,F,0,right,0.49902545800068765,1,0,,,,,,,,,,,,,,,,,,,,,1,,,,,,,,,,,,,,,,,,,,,,,,,,,,,,,,,,,,,,,,,,,,,,126,148423,23,Male,1,2024/03/26_14:01:41,YZ,None,
,,,,,,practice,0,22,3,120,2,X,0,right,0.916120496000076,1,0,,,,,,,,,,,,,,,,,,,,,1,,,,,,,,,,,,,,,,,,,,,,,,,,,,,,,,,,,,,,,,,,,,,,126,148423,23,Male,1,2024/03/26_14:01:41,YZ,None,
,,,,,,practice,0,22,3,120,3,X,0,right,0.8949012229968503,1,0,,,,,,,,,,,,,,,,,,,,,1,,,,,,,,,,,,,,,,,,,,,,,,,,,,,,,,,,,,,,,,,,,,,,126,148423,23,Male,1,2024/03/26_14:01:41,YZ,None,
,,,,,,practice,0,22,3,120,4,F,1,left,0.8096249440022802,1,0,,,,,,,,,,,,,,,,,,,,,1,,,,,,,,,,,,,,,,,,,,,,,,,,,,,,,,,,,,,,,,,,,,,,126,148423,23,Male,1,2024/03/26_14:01:41,YZ,None,
,,,,,,practice,0,22,3,120,5,X,1,right,0.9082265299985011,0,0,,,,,,,,,,,,,,,,,,,,,1,,,,,,,,,,,,,,,,,,,,,,,,,,,,,,,,,,,,,,,,,,,,,,126,148423,23,Male,1,2024/03/26_14:01:41,YZ,None,
,,,,,,practice,0,22,3,120,6,F,0,right,1.1446544800019183,1,0,,,,,,,,,,,,,,,,,,,,,1,,,,,,,,,,,,,,,,,,,,,,,,,,,,,,,,,,,,,,,,,,,,,,126,148423,23,Male,1,2024/03/26_14:01:41,YZ,None,
,,,,,,practice,0,22,3,120,7,S,0,right,0.8519145360005496,1,0,,,,,,,,,,,,,,,,,,,,,1,,,,,,,,,,,,,,,,,,,,,,,,,,,,,,,,,,,,,,,,,,,,,,126,148423,23,Male,1,2024/03/26_14:01:41,YZ,None,
,,,,,,practice,0,22,3,120,8,F,0,left,1.2948941920003563,0,0,,,,,,,,,,,,,,,,,,,,,1,,,,,,,,,,,,,,,,,,,,,,,,,,,,,,,,,,,,,,,,,,,,,,126,148423,23,Male,1,2024/03/26_14:01:41,YZ,None,
,,,,,,practice,0,22,3,120,9,F,1,right,1.484686085001158,0,0,,,,,,,,,,,,,,,,,,,,,1,,,,,,,,,,,,,,,,,,,,,,,,,,,,,,,,,,,,,,,,,,,,,,126,148423,23,Male,1,2024/03/26_14:01:41,YZ,None,
,,,,,,practice,0,22,3,120,10,S,1,left,1.367798571001913,1,0,,,,,,,,,,,,,,,,,,,,,1,,,,,,,,,,,,,,,,,,,,,,,,,,,,,,,,,,,,,,,,,,,,,,126,148423,23,Male,1,2024/03/26_14:01:41,YZ,None,
,,,,,,practice,0,22,3,120,11,X,0,right,0.9645400549998158,1,0,,,,,,,,,,,,,,,,,,,,,1,,,,,,,,,,,,,,,,,,,,,,,,,,,,,,,,,,,,,,,,,,,,,,126,148423,23,Male,1,2024/03/26_14:01:41,YZ,None,
,,,,,,practice,0,22,3,120,12,F,1,left,1.1301403280012892,1,0,,,,,,,,,,,,,,,,,,,,,1,,,,,,,,,,,,,,,,,,,,,,,,,,,,,,,,,,,,,,,,,,,,,,126,148423,23,Male,1,2024/03/26_14:01:41,YZ,None,
,,,,,,practice,0,22,3,120,13,Q,0,right,0.8474365260008199,1,0,,,,,,,,,,,,,,,,,,,,,1,,,,,,,,,,,,,,,,,,,,,,,,,,,,,,,,,,,,,,,,,,,,,,126,148423,23,Male,1,2024/03/26_14:01:41,YZ,None,
,,,,,,practice,0,22,3,120,14,N,0,right,1.1321623850017204,1,0,,,,,,,,,,,,,,,,,,,,,1,,,,,,,,,,,,,,,,,,,,,,,,,,,,,,,,,,,,,,,,,,,,,,126,148423,23,Male,1,2024/03/26_14:01:41,YZ,None,
,,,,,,practice,0,22,3,120,15,C,0,right,1.0730662639980437,1,0,,,,,,,,,,,,,,,,,,,,,1,,,,,,,,,,,,,,,,,,,,,,,,,,,,,,,,,,,,,,,,,,,,,,126,148423,23,Male,1,2024/03/26_14:01:41,YZ,None,
,,,,,,practice,0,22,3,120,16,S,0,right,1.129543486997136,1,0,,,,,,,,,,,,,,,,,,,,,1,,,,,,,,,,,,,,,,,,,,,,,,,,,,,,,,,,,,,,,,,,,,,,126,148423,23,Male,1,2024/03/26_14:01:41,YZ,None,
,,,,,,practice,0,22,3,120,17,S,0,right,1.215157143000397,1,0,,,,,,,,,,,,,,,,,,,,,1,,,,,,,,,,,,,,,,,,,,,,,,,,,,,,,,,,,,,,,,,,,,,,126,148423,23,Male,1,2024/03/26_14:01:41,YZ,None,
,,,,,,practice,0,22,3,120,18,J,0,right,0.8682247050019214,1,0,,,,,,,,,,,,,,,,,,,,,1,,,,,,,,,,,,,,,,,,,,,,,,,,,,,,,,,,,,,,,,,,,,,,126,148423,23,Male,1,2024/03/26_14:01:41,YZ,None,
,,,,,,practice,0,22,3,120,19,V,0,right,0.8960808699994232,1,0,,,,,,,,,,,,,,,,,,,,,1,,,,,,,,,,,,,,,,,,,,,,,,,,,,,,,,,,,,,,,,,,,,,,126,148423,23,Male,1,2024/03/26_14:01:41,YZ,None,
,,,,,,practice,0,22,3,120,20,S,1,left,0.556479737002519,1,0,,,,,,,,,,,,,,,,,,,,,1,,,,,,,,,,,,,,,,,,,,,,,,,,,,,,,,,,,,,,,,,,,,,,126,148423,23,Male,1,2024/03/26_14:01:41,YZ,None,
,,,,,,practice,0,22,3,120,21,X,0,right,0.6678493149993301,1,0,,,,,,,,,,,,,,,,,,,,,1,,,,,,,,,,,,,,,,,,,,,,,,,,,,,,,,,,,,,,,,,,,,,,126,148423,23,Male,1,2024/03/26_14:01:41,YZ,None,
,,,,,,practice,0,22,3,120,22,N,0,right,1.716685913001129,1,0,,,,,,,,,,,,,,,,,,,,,1,,,,,,,,,,,,,,,,,,,,,,,,,,,,,,,,,,,,,,,,,,,,,,126,148423,23,Male,1,2024/03/26_14:01:41,YZ,None,
,,,,,,practice,0,22,3,120,23,C,0,right,1.0552121879991319,1,0,,,,,,,,,,,,,,,,,,,,,1,,,,,,,,,,,,,,,,,,,,,,,,,,,,,,,,,,,,,,,,,,,,,,126,148423,23,Male,1,2024/03/26_14:01:41,YZ,None,
,,,,,,practice,0,22,3,120,,,,,,,,0.8823529411764706,0.6666666666666666,0.058823529411764705,0.9411764705882353,0.0,0.9411764705882353,1.0184532796089985,4,1,0,0,0,16,20,6,17,0,,,,1,,,,,,,,,,,,,,,,,,,,,,,,,,,,,,,,,,,,,,,,,,,,,,126,148423,23,Male,1,2024/03/26_14:01:41,YZ,None,
,,,,,,practice,0,7,3,120,1,F,0,right,1.114499101000547,1,0,,,,,,,,,,,,,,,,,,,,,1,,,,,,,,,,,,,,,,,,,,,,,,,,,,,,,,,,,,,,,,,,,,,,126,148423,23,Male,1,2024/03/26_14:01:41,YZ,None,
,,,,,,practice,0,7,3,120,2,S,0,right,0.857423256002221,1,0,,,,,,,,,,,,,,,,,,,,,1,,,,,,,,,,,,,,,,,,,,,,,,,,,,,,,,,,,,,,,,,,,,,,126,148423,23,Male,1,2024/03/26_14:01:41,YZ,None,
,,,,,,practice,0,7,3,120,3,V,0,right,0.9234443759996793,1,0,,,,,,,,,,,,,,,,,,,,,1,,,,,,,,,,,,,,,,,,,,,,,,,,,,,,,,,,,,,,,,,,,,,,126,148423,23,Male,1,2024/03/26_14:01:41,YZ,None,
,,,,,,practice,0,7,3,120,4,F,1,left,0.4801014500008023,1,0,,,,,,,,,,,,,,,,,,,,,1,,,,,,,,,,,,,,,,,,,,,,,,,,,,,,,,,,,,,,,,,,,,,,126,148423,23,Male,1,2024/03/26_14:01:41,YZ,None,
,,,,,,practice,0,7,3,120,5,N,0,right,0.8683715160004795,1,0,,,,,,,,,,,,,,,,,,,,,1,,,,,,,,,,,,,,,,,,,,,,,,,,,,,,,,,,,,,,,,,,,,,,126,148423,23,Male,1,2024/03/26_14:01:41,YZ,None,
,,,,,,practice,0,7,3,120,6,Q,0,right,1.1919542219984578,1,0,,,,,,,,,,,,,,,,,,,,,1,,,,,,,,,,,,,,,,,,,,,,,,,,,,,,,,,,,,,,,,,,,,,,126,148423,23,Male,1,2024/03/26_14:01:41,YZ,None,
,,,,,,practice,0,7,3,120,7,F,1,left,1.1923779680000735,1,0,,,,,,,,,,,,,,,,,,,,,1,,,,,,,,,,,,,,,,,,,,,,,,,,,,,,,,,,,,,,,,,,,,,,126,148423,23,Male,1,2024/03/26_14:01:41,YZ,None,
,,,,,,practice,0,7,3,120,8,F,0,right,0.8250587330003327,1,0,,,,,,,,,,,,,,,,,,,,,1,,,,,,,,,,,,,,,,,,,,,,,,,,,,,,,,,,,,,,,,,,,,,,126,148423,23,Male,1,2024/03/26_14:01:41,YZ,None,
,,,,,,practice,0,7,3,120,9,N,0,right,1.2500898020007298,1,0,,,,,,,,,,,,,,,,,,,,,1,,,,,,,,,,,,,,,,,,,,,,,,,,,,,,,,,,,,,,,,,,,,,,126,148423,23,Male,1,2024/03/26_14:01:41,YZ,None,
,,,,,,practice,0,7,3,120,10,F,1,left,0.6160064050018264,1,0,,,,,,,,,,,,,,,,,,,,,1,,,,,,,,,,,,,,,,,,,,,,,,,,,,,,,,,,,,,,,,,,,,,,126,148423,23,Male,1,2024/03/26_14:01:41,YZ,None,
,,,,,,practice,0,7,3,120,11,V,0,right,0.7970205829988117,1,0,,,,,,,,,,,,,,,,,,,,,1,,,,,,,,,,,,,,,,,,,,,,,,,,,,,,,,,,,,,,,,,,,,,,126,148423,23,Male,1,2024/03/26_14:01:41,YZ,None,
,,,,,,practice,0,7,3,120,12,X,0,right,1.0199013840028783,1,0,,,,,,,,,,,,,,,,,,,,,1,,,,,,,,,,,,,,,,,,,,,,,,,,,,,,,,,,,,,,,,,,,,,,126,148423,23,Male,1,2024/03/26_14:01:41,YZ,None,
,,,,,,practice,0,7,3,120,13,F,1,left,0.9839246489973448,1,0,,,,,,,,,,,,,,,,,,,,,1,,,,,,,,,,,,,,,,,,,,,,,,,,,,,,,,,,,,,,,,,,,,,,126,148423,23,Male,1,2024/03/26_14:01:41,YZ,None,
,,,,,,practice,0,7,3,120,14,X,0,right,1.3697201020004286,1,0,,,,,,,,,,,,,,,,,,,,,1,,,,,,,,,,,,,,,,,,,,,,,,,,,,,,,,,,,,,,,,,,,,,,126,148423,23,Male,1,2024/03/26_14:01:41,YZ,None,
,,,,,,practice,0,7,3,120,15,F,0,right,1.479863918000774,1,0,,,,,,,,,,,,,,,,,,,,,1,,,,,,,,,,,,,,,,,,,,,,,,,,,,,,,,,,,,,,,,,,,,,,126,148423,23,Male,1,2024/03/26_14:01:41,YZ,None,
,,,,,,practice,0,7,3,120,16,F,1,right,1.5133013109989406,0,0,,,,,,,,,,,,,,,,,,,,,1,,,,,,,,,,,,,,,,,,,,,,,,,,,,,,,,,,,,,,,,,,,,,,126,148423,23,Male,1,2024/03/26_14:01:41,YZ,None,
,,,,,,practice,0,7,3,120,17,S,0,right,1.1383071429991105,1,0,,,,,,,,,,,,,,,,,,,,,1,,,,,,,,,,,,,,,,,,,,,,,,,,,,,,,,,,,,,,,,,,,,,,126,148423,23,Male,1,2024/03/26_14:01:41,YZ,None,
,,,,,,practice,0,7,3,120,18,X,0,right,1.292393591000291,1,0,,,,,,,,,,,,,,,,,,,,,1,,,,,,,,,,,,,,,,,,,,,,,,,,,,,,,,,,,,,,,,,,,,,,126,148423,23,Male,1,2024/03/26_14:01:41,YZ,None,
,,,,,,practice,0,7,3,120,19,J,0,right,0.9294361989996105,1,0,,,,,,,,,,,,,,,,,,,,,1,,,,,,,,,,,,,,,,,,,,,,,,,,,,,,,,,,,,,,,,,,,,,,126,148423,23,Male,1,2024/03/26_14:01:41,YZ,None,
,,,,,,practice,0,7,3,120,20,S,1,right,1.6844073760003084,0,0,,,,,,,,,,,,,,,,,,,,,1,,,,,,,,,,,,,,,,,,,,,,,,,,,,,,,,,,,,,,,,,,,,,,126,148423,23,Male,1,2024/03/26_14:01:41,YZ,None,
,,,,,,practice,0,7,3,120,21,X,1,left,1.5512614370018127,1,0,,,,,,,,,,,,,,,,,,,,,1,,,,,,,,,,,,,,,,,,,,,,,,,,,,,,,,,,,,,,,,,,,,,,126,148423,23,Male,1,2024/03/26_14:01:41,YZ,None,
,,,,,,practice,0,7,3,120,22,Q,0,right,0.5675858789982158,1,0,,,,,,,,,,,,,,,,,,,,,1,,,,,,,,,,,,,,,,,,,,,,,,,,,,,,,,,,,,,,,,,,,,,,126,148423,23,Male,1,2024/03/26_14:01:41,YZ,None,
,,,,,,practice,0,7,3,120,23,V,0,right,0.9641960260014457,1,0,,,,,,,,,,,,,,,,,,,,,1,,,,,,,,,,,,,,,,,,,,,,,,,,,,,,,,,,,,,,,,,,,,,,126,148423,23,Male,1,2024/03/26_14:01:41,YZ,None,
,,,,,,practice,0,7,3,120,,,,,,,,0.9285714285714286,0.7142857142857143,0.0,1.0,0.0,1.0,1.0700281055219618,5,0,0,0,0,16,21,7,16,0,,,,1,,,,,,,,,,,,,,,,,,,,,,,,,,,,,,,,,,,,,,,,,,,,,,126,148423,23,Male,1,2024/03/26_14:01:41,YZ,None,
1,./instructions/inst_prac_main/Slide51.png,right,3.3279302840019227,912.7762460880003,916.1041763720023,,,,,,,,,,,,,,,,,,,,,,,,,,,,,,,,,1,,,,,,,,,,,,,,,,,,,,,,,,,,,,,,,,,,,,,,,,,,,,,,126,148423,23,Male,1,2024/03/26_14:01:41,YZ,None,
2,./instructions/inst_prac_main/Slide52.png,right,13.422573207000823,916.1297602910017,929.5523334980026,,,,,,,,,,,,,,,,,,,,,,,,,,,,,,,,,1,,,,,,,,,,,,,,,,,,,,,,,,,,,,,,,,,,,,,,,,,,,,,,126,148423,23,Male,1,2024/03/26_14:01:41,YZ,None,
3,./instructions/inst_prac_main/Slide53.png,right,2.963045931999659,929.581324316001,932.5443702480006,,,,,,,,,,,,,,,,,,,,,,,,,,,,,,,,,1,,,,,,,,,,,,,,,,,,,,,,,,,,,,,,,,,,,,,,,,,,,,,,126,148423,23,Male,1,2024/03/26_14:01:41,YZ,None,
4,./instructions/inst_prac_main/Slide54.png,right,0.20047169499957818,932.5729254390026,932.7733971340022,,,,,,,,,,,,,,,,,,,,,,,,,,,,,,,,,1,,,,,,,,,,,,,,,,,,,,,,,,,,,,,,,,,,,,,,,,,,,,,,126,148423,23,Male,1,2024/03/26_14:01:41,YZ,None,
,,,,,,practice_main,0,1,3,120,1,S,0,right,0.7177248379994126,1,0,,,,,,,,,,,,,,,,,,,,,1,,,,,,,,,,,,,,,,,,,,,,,,,,,,,,,,,,,,,,,,,,,,,,126,148423,23,Male,1,2024/03/26_14:01:41,YZ,None,
,,,,,,practice_main,0,1,3,120,2,S,0,right,0.7271146819985006,1,0,,,,,,,,,,,,,,,,,,,,,1,,,,,,,,,,,,,,,,,,,,,,,,,,,,,,,,,,,,,,,,,,,,,,126,148423,23,Male,1,2024/03/26_14:01:41,YZ,None,
,,,,,,practice_main,0,1,3,120,3,N,0,right,0.5931999740023457,1,0,,,,,,,,,,,,,,,,,,,,,1,,,,,,,,,,,,,,,,,,,,,,,,,,,,,,,,,,,,,,,,,,,,,,126,148423,23,Male,1,2024/03/26_14:01:41,YZ,None,
,,,,,,practice_main,0,1,3,120,4,J,0,right,0.47858931600057986,1,0,,,,,,,,,,,,,,,,,,,,,1,,,,,,,,,,,,,,,,,,,,,,,,,,,,,,,,,,,,,,,,,,,,,,126,148423,23,Male,1,2024/03/26_14:01:41,YZ,None,
,,,,,,practice_main,0,1,3,120,5,F,0,right,0.6425027539989969,1,0,,,,,,,,,,,,,,,,,,,,,1,,,,,,,,,,,,,,,,,,,,,,,,,,,,,,,,,,,,,,,,,,,,,,126,148423,23,Male,1,2024/03/26_14:01:41,YZ,None,
,,,,,,practice_main,0,1,3,120,6,N,1,right,0.5889866979996441,0,0,,,,,,,,,,,,,,,,,,,,,1,,,,,,,,,,,,,,,,,,,,,,,,,,,,,,,,,,,,,,,,,,,,,,126,148423,23,Male,1,2024/03/26_14:01:41,YZ,None,
,,,,,,practice_main,0,1,3,120,7,N,0,left,0.5730831270011549,0,0,,,,,,,,,,,,,,,,,,,,,1,,,,,,,,,,,,,,,,,,,,,,,,,,,,,,,,,,,,,,,,,,,,,,126,148423,23,Male,1,2024/03/26_14:01:41,YZ,None,
,,,,,,practice_main,0,1,3,120,8,F,1,left,0.8424011819988664,1,0,,,,,,,,,,,,,,,,,,,,,1,,,,,,,,,,,,,,,,,,,,,,,,,,,,,,,,,,,,,,,,,,,,,,126,148423,23,Male,1,2024/03/26_14:01:41,YZ,None,
,,,,,,practice_main,0,1,3,120,9,C,0,right,0.5472966609995638,1,0,,,,,,,,,,,,,,,,,,,,,1,,,,,,,,,,,,,,,,,,,,,,,,,,,,,,,,,,,,,,,,,,,,,,126,148423,23,Male,1,2024/03/26_14:01:41,YZ,None,
,,,,,,practice_main,0,1,3,120,10,C,0,right,nan,0,1,,,,,,,,,,,,,,,,,,,,,1,,,,,,,,,,,,,,,,,,,,,,,,,,,,,,,,,,,,,,,,,,,,,,126,148423,23,Male,1,2024/03/26_14:01:41,YZ,None,
,,,,,,practice_main,0,1,3,120,11,X,0,right,nan,0,1,,,,,,,,,,,,,,,,,,,,,1,,,,,,,,,,,,,,,,,,,,,,,,,,,,,,,,,,,,,,,,,,,,,,126,148423,23,Male,1,2024/03/26_14:01:41,YZ,None,
,,,,,,practice_main,0,1,3,120,12,N,0,right,nan,0,1,,,,,,,,,,,,,,,,,,,,,1,,,,,,,,,,,,,,,,,,,,,,,,,,,,,,,,,,,,,,,,,,,,,,126,148423,23,Male,1,2024/03/26_14:01:41,YZ,None,
,,,,,,practice_main,0,1,3,120,13,Q,0,right,0.774063226999715,1,0,,,,,,,,,,,,,,,,,,,,,1,,,,,,,,,,,,,,,,,,,,,,,,,,,,,,,,,,,,,,,,,,,,,,126,148423,23,Male,1,2024/03/26_14:01:41,YZ,None,
,,,,,,practice_main,0,1,3,120,14,X,1,right,nan,0,1,,,,,,,,,,,,,,,,,,,,,1,,,,,,,,,,,,,,,,,,,,,,,,,,,,,,,,,,,,,,,,,,,,,,126,148423,23,Male,1,2024/03/26_14:01:41,YZ,None,
,,,,,,practice_main,0,1,3,120,15,N,1,right,0.9475328549997357,0,0,,,,,,,,,,,,,,,,,,,,,1,,,,,,,,,,,,,,,,,,,,,,,,,,,,,,,,,,,,,,,,,,,,,,126,148423,23,Male,1,2024/03/26_14:01:41,YZ,None,
,,,,,,practice_main,0,1,3,120,16,J,0,right,0.8405964200028393,1,0,,,,,,,,,,,,,,,,,,,,,1,,,,,,,,,,,,,,,,,,,,,,,,,,,,,,,,,,,,,,,,,,,,,,126,148423,23,Male,1,2024/03/26_14:01:41,YZ,None,
,,,,,,practice_main,0,1,3,120,17,V,0,left,0.5343929039991053,0,0,,,,,,,,,,,,,,,,,,,,,1,,,,,,,,,,,,,,,,,,,,,,,,,,,,,,,,,,,,,,,,,,,,,,126,148423,23,Male,1,2024/03/26_14:01:41,YZ,None,
,,,,,,practice_main,0,1,3,120,18,X,0,left,0.957436537999456,0,0,,,,,,,,,,,,,,,,,,,,,1,,,,,,,,,,,,,,,,,,,,,,,,,,,,,,,,,,,,,,,,,,,,,,126,148423,23,Male,1,2024/03/26_14:01:41,YZ,None,
