Instruction,Stimulus,Key,RT,START,END,Phase,Block,TrialN,NbackLevel,ISI,LetterN,Letter,Letter_isSame,Letter_Resp,Letter_RT,Letter_Accuracy,Letter_Timeout,Trial_A_measure,Trial_HR,Trial_FAR,Trial_CDR,Trial_MSR,Trial_ACC,Trial_RT,Trial_HitsCount,Trial_FAsCount,Trial_SameNoRespCount,Trial_DiffNoRespCount,Trial_NoRespCount,Trial_CDsCount,Trial_CorrectRespCount,Trial_SameLetterCount,Trial_DiffLetterCount,Trial_InvalidLetterCount,TrialCountCali,CaliEnd_A_measure,ISI_calibrated,Run,TrialIndex,TrialNumber_total,TrialNumber_valid,CueLearning,TrialDemandLearning,CueMapping,OnlineRating,OnlineRatingRT,OnlineRatingTimeOut,CueSTART,RatingSTART,OfflineRatingTimePoint,OfflineRatingQuesIndex,CueFigure,TrialDemand,OfflineRating,OfflineRatingRT,CueStart,OfflineRatingStart,PhaseType,CueLeft,CueDemandLeft,CueRight,CueDemandRight,Choice,ChoiceDemand,TaskDemand,ChoiceRT,ChoiceTimeOut,ChoiceSTART,CueCheck,CueDemandCheck,CorrectAnswer,Answer,AnswerDemand,AnswerRT,AnswerACC,AnswerTimeOut,CheckSTART,DemandRatingQuesIndex,QuesTLX,DemandLevel,DemandRating,DemandRatingRT,QuesStart,PID,SONA,Age,Gender,Run,TIME,EXPERIMENTER,frameRate,
1,./instructions/inst_begin/Slide2.png,right,26.849536207999336,0.11339599001803435,26.96293219801737,,,,,,,,,,,,,,,,,,,,,,,,,,,,,,,,,1,,,,,,,,,,,,,,,,,,,,,,,,,,,,,,,,,,,,,,,,,,,,,,95,151711,23,Female,1,2024/03/15_14:24:21,YZ,None,
2,./instructions/inst_begin/Slide3.png,right,8.068689016014105,26.990214154007845,35.05890317002195,,,,,,,,,,,,,,,,,,,,,,,,,,,,,,,,,1,,,,,,,,,,,,,,,,,,,,,,,,,,,,,,,,,,,,,,,,,,,,,,95,151711,23,Female,1,2024/03/15_14:24:21,YZ,None,
3,./instructions/inst_begin/Slide4.png,right,10.002941954997368,35.08818439702736,45.09112635202473,,,,,,,,,,,,,,,,,,,,,,,,,,,,,,,,,1,,,,,,,,,,,,,,,,,,,,,,,,,,,,,,,,,,,,,,,,,,,,,,95,151711,23,Female,1,2024/03/15_14:24:21,YZ,None,
1,./instructions/inst_prac_2/Slide6.png,right,15.357281661010347,45.12562714100932,60.482908802019665,,,,,,,,,,,,,,,,,,,,,,,,,,,,,,,,,1,,,,,,,,,,,,,,,,,,,,,,,,,,,,,,,,,,,,,,,,,,,,,,95,151711,23,Female,1,2024/03/15_14:24:21,YZ,None,
2,./instructions/inst_prac_2/Slide7.png,right,38.26627621400985,60.512636775005376,98.77891298901523,,,,,,,,,,,,,,,,,,,,,,,,,,,,,,,,,1,,,,,,,,,,,,,,,,,,,,,,,,,,,,,,,,,,,,,,,,,,,,,,95,151711,23,Female,1,2024/03/15_14:24:21,YZ,None,
3,./instructions/inst_prac_2/Slide8.png,right,19.378810180001892,98.80817384802504,118.18698402802693,,,,,,,,,,,,,,,,,,,,,,,,,,,,,,,,,1,,,,,,,,,,,,,,,,,,,,,,,,,,,,,,,,,,,,,,,,,,,,,,95,151711,23,Female,1,2024/03/15_14:24:21,YZ,None,
4,./instructions/inst_prac_2/Slide9.png,right,4.930662493978161,118.21627368102781,123.14693617500598,,,,,,,,,,,,,,,,,,,,,,,,,,,,,,,,,1,,,,,,,,,,,,,,,,,,,,,,,,,,,,,,,,,,,,,,,,,,,,,,95,151711,23,Female,1,2024/03/15_14:24:21,YZ,None,
5,./instructions/inst_prac_2/Slide10.png,right,2.123204083996825,123.17583895902499,125.29904304302181,,,,,,,,,,,,,,,,,,,,,,,,,,,,,,,,,1,,,,,,,,,,,,,,,,,,,,,,,,,,,,,,,,,,,,,,,,,,,,,,95,151711,23,Female,1,2024/03/15_14:24:21,YZ,None,
6,./instructions/inst_prac_2/Slide11.png,right,1.611396638007136,125.32746136302012,126.93885800102726,,,,,,,,,,,,,,,,,,,,,,,,,,,,,,,,,1,,,,,,,,,,,,,,,,,,,,,,,,,,,,,,,,,,,,,,,,,,,,,,95,151711,23,Female,1,2024/03/15_14:24:21,YZ,None,
7,./instructions/inst_prac_2/Slide12.png,right,1.8946023159951437,126.96424535001279,128.85884766600793,,,,,,,,,,,,,,,,,,,,,,,,,,,,,,,,,1,,,,,,,,,,,,,,,,,,,,,,,,,,,,,,,,,,,,,,,,,,,,,,95,151711,23,Female,1,2024/03/15_14:24:21,YZ,None,
8,./instructions/inst_prac_2/Slide13.png,right,1.2268229869951028,128.8881310300203,130.1149540170154,,,,,,,,,,,,,,,,,,,,,,,,,,,,,,,,,1,,,,,,,,,,,,,,,,,,,,,,,,,,,,,,,,,,,,,,,,,,,,,,95,151711,23,Female,1,2024/03/15_14:24:21,YZ,None,
9,./instructions/inst_prac_2/Slide14.png,right,15.330753568006912,130.14429431501776,145.47504788302467,,,,,,,,,,,,,,,,,,,,,,,,,,,,,,,,,1,,,,,,,,,,,,,,,,,,,,,,,,,,,,,,,,,,,,,,,,,,,,,,95,151711,23,Female,1,2024/03/15_14:24:21,YZ,None,
10,./instructions/inst_prac_2/Slide15.png,right,19.842863836005563,145.504238627007,165.34710246301256,,,,,,,,,,,,,,,,,,,,,,,,,,,,,,,,,1,,,,,,,,,,,,,,,,,,,,,,,,,,,,,,,,,,,,,,,,,,,,,,95,151711,23,Female,1,2024/03/15_14:24:21,YZ,None,
,,,,,,practice,0,8,2,2583,1,X,0,right,5.177539881988196,1,0,,,,,,,,,,,,,,,,,,,,,1,,,,,,,,,,,,,,,,,,,,,,,,,,,,,,,,,,,,,,,,,,,,,,95,151711,23,Female,1,2024/03/15_14:24:21,YZ,None,
,,,,,,practice,0,8,2,2583,2,C,0,right,2.236104854993755,1,0,,,,,,,,,,,,,,,,,,,,,1,,,,,,,,,,,,,,,,,,,,,,,,,,,,,,,,,,,,,,,,,,,,,,95,151711,23,Female,1,2024/03/15_14:24:21,YZ,None,
,,,,,,practice,0,8,2,2583,3,X,1,left,1.0303592910058796,1,0,,,,,,,,,,,,,,,,,,,,,1,,,,,,,,,,,,,,,,,,,,,,,,,,,,,,,,,,,,,,,,,,,,,,95,151711,23,Female,1,2024/03/15_14:24:21,YZ,None,
,,,,,,practice,0,8,2,2583,4,C,1,left,1.2250594559882302,1,0,,,,,,,,,,,,,,,,,,,,,1,,,,,,,,,,,,,,,,,,,,,,,,,,,,,,,,,,,,,,,,,,,,,,95,151711,23,Female,1,2024/03/15_14:24:21,YZ,None,
,,,,,,practice,0,8,2,2583,5,Q,0,right,0.8163491680170409,1,0,,,,,,,,,,,,,,,,,,,,,1,,,,,,,,,,,,,,,,,,,,,,,,,,,,,,,,,,,,,,,,,,,,,,95,151711,23,Female,1,2024/03/15_14:24:21,YZ,None,
,,,,,,practice,0,8,2,2583,6,V,0,right,0.8989216700138059,1,0,,,,,,,,,,,,,,,,,,,,,1,,,,,,,,,,,,,,,,,,,,,,,,,,,,,,,,,,,,,,,,,,,,,,95,151711,23,Female,1,2024/03/15_14:24:21,YZ,None,
,,,,,,practice,0,8,2,2583,,,,,,,,1.0,1.0,0.0,1.0,0.0,1.0,1.897389053667818,2,0,0,0,0,4,6,2,4,0,,,,1,,,,,,,,,,,,,,,,,,,,,,,,,,,,,,,,,,,,,,,,,,,,,,95,151711,23,Female,1,2024/03/15_14:24:21,YZ,None,
1,./instructions/inst_to_cali/Slide20.png,right,6.7328038669948,183.0862936800113,189.8190975470061,,,,,,,,,,,,,,,,,,,,,,,,,,,,,,,,,1,,,,,,,,,,,,,,,,,,,,,,,,,,,,,,,,,,,,,,,,,,,,,,95,151711,23,Female,1,2024/03/15_14:24:21,YZ,None,
1,./instructions/inst_cali/Slide22.png,right,17.281839211005718,189.85714538401226,207.13898459501797,,,,,,,,,,,,,,,,,,,,,,,,,,,,,,,,,1,,,,,,,,,,,,,,,,,,,,,,,,,,,,,,,,,,,,,,,,,,,,,,95,151711,23,Female,1,2024/03/15_14:24:21,YZ,None,
,,,,,,calibration,0,30,2,583,1,C,0,right,1.3341818900080398,1,0,,,,,,,,,,,,,,,,,,,,,1,,,,,,,,,,,,,,,,,,,,,,,,,,,,,,,,,,,,,,,,,,,,,,95,151711,23,Female,1,2024/03/15_14:24:21,YZ,None,
,,,,,,calibration,0,30,2,583,2,X,0,right,1.2820860669889953,1,0,,,,,,,,,,,,,,,,,,,,,1,,,,,,,,,,,,,,,,,,,,,,,,,,,,,,,,,,,,,,,,,,,,,,95,151711,23,Female,1,2024/03/15_14:24:21,YZ,None,
,,,,,,calibration,0,30,2,583,3,F,0,right,1.041378584021004,1,0,,,,,,,,,,,,,,,,,,,,,1,,,,,,,,,,,,,,,,,,,,,,,,,,,,,,,,,,,,,,,,,,,,,,95,151711,23,Female,1,2024/03/15_14:24:21,YZ,None,
,,,,,,calibration,0,30,2,583,4,Q,0,right,0.79053090501111,1,0,,,,,,,,,,,,,,,,,,,,,1,,,,,,,,,,,,,,,,,,,,,,,,,,,,,,,,,,,,,,,,,,,,,,95,151711,23,Female,1,2024/03/15_14:24:21,YZ,None,
,,,,,,calibration,0,30,2,583,5,F,1,left,0.6756865129864309,1,0,,,,,,,,,,,,,,,,,,,,,1,,,,,,,,,,,,,,,,,,,,,,,,,,,,,,,,,,,,,,,,,,,,,,95,151711,23,Female,1,2024/03/15_14:24:21,YZ,None,
,,,,,,calibration,0,30,2,583,6,N,0,right,0.5827349530009087,1,0,,,,,,,,,,,,,,,,,,,,,1,,,,,,,,,,,,,,,,,,,,,,,,,,,,,,,,,,,,,,,,,,,,,,95,151711,23,Female,1,2024/03/15_14:24:21,YZ,None,
,,,,,,calibration,0,30,2,583,7,Q,0,left,0.4932130289962515,0,0,,,,,,,,,,,,,,,,,,,,,1,,,,,,,,,,,,,,,,,,,,,,,,,,,,,,,,,,,,,,,,,,,,,,95,151711,23,Female,1,2024/03/15_14:24:21,YZ,None,
,,,,,,calibration,0,30,2,583,8,N,1,left,0.7545774199825246,1,0,,,,,,,,,,,,,,,,,,,,,1,,,,,,,,,,,,,,,,,,,,,,,,,,,,,,,,,,,,,,,,,,,,,,95,151711,23,Female,1,2024/03/15_14:24:21,YZ,None,
,,,,,,calibration,0,30,2,583,9,S,0,right,0.5904033440165222,1,0,,,,,,,,,,,,,,,,,,,,,1,,,,,,,,,,,,,,,,,,,,,,,,,,,,,,,,,,,,,,,,,,,,,,95,151711,23,Female,1,2024/03/15_14:24:21,YZ,None,
,,,,,,calibration,0,30,2,583,10,J,0,right,0.7295039870077744,1,0,,,,,,,,,,,,,,,,,,,,,1,,,,,,,,,,,,,,,,,,,,,,,,,,,,,,,,,,,,,,,,,,,,,,95,151711,23,Female,1,2024/03/15_14:24:21,YZ,None,
,,,,,,calibration,0,30,2,583,11,N,0,right,0.8813003030081745,1,0,,,,,,,,,,,,,,,,,,,,,1,,,,,,,,,,,,,,,,,,,,,,,,,,,,,,,,,,,,,,,,,,,,,,95,151711,23,Female,1,2024/03/15_14:24:21,YZ,None,
,,,,,,calibration,0,30,2,583,12,J,1,left,0.8139942220004741,1,0,,,,,,,,,,,,,,,,,,,,,1,,,,,,,,,,,,,,,,,,,,,,,,,,,,,,,,,,,,,,,,,,,,,,95,151711,23,Female,1,2024/03/15_14:24:21,YZ,None,
,,,,,,calibration,0,30,2,583,13,F,0,right,0.7658924499992281,1,0,,,,,,,,,,,,,,,,,,,,,1,,,,,,,,,,,,,,,,,,,,,,,,,,,,,,,,,,,,,,,,,,,,,,95,151711,23,Female,1,2024/03/15_14:24:21,YZ,None,
,,,,,,calibration,0,30,2,583,14,J,1,left,0.7502742869837675,1,0,,,,,,,,,,,,,,,,,,,,,1,,,,,,,,,,,,,,,,,,,,,,,,,,,,,,,,,,,,,,,,,,,,,,95,151711,23,Female,1,2024/03/15_14:24:21,YZ,None,
,,,,,,calibration,0,30,2,583,15,N,0,right,0.958424531010678,1,0,,,,,,,,,,,,,,,,,,,,,1,,,,,,,,,,,,,,,,,,,,,,,,,,,,,,,,,,,,,,,,,,,,,,95,151711,23,Female,1,2024/03/15_14:24:21,YZ,None,
,,,,,,calibration,0,30,2,583,,,,,,,,0.9772727272727273,1.0,0.09090909090909091,0.9090909090909091,0.0,0.9090909090909091,0.8296121656681256,4,1,0,0,0,10,14,4,11,0,,,,1,,,,,,,,,,,,,,,,,,,,,,,,,,,,,,,,,,,,,,,,,,,,,,95,151711,23,Female,1,2024/03/15_14:24:21,YZ,None,
,,,,,,Calibration,0,,2,583,,,,,,,,,,,,,,,,,,,,,,,,,1,,,1,,,,,,,,,,,,,,,,,,,,,,,,,,,,,,,,,,,,,,,,,,,,,,95,151711,23,Female,1,2024/03/15_14:24:21,YZ,None,
,,,,,,calibration,0,8,2,500,1,C,0,right,0.9770554849819746,1,0,,,,,,,,,,,,,,,,,,,,,1,,,,,,,,,,,,,,,,,,,,,,,,,,,,,,,,,,,,,,,,,,,,,,95,151711,23,Female,1,2024/03/15_14:24:21,YZ,None,
,,,,,,calibration,0,8,2,500,2,X,0,right,0.5357592530199327,1,0,,,,,,,,,,,,,,,,,,,,,1,,,,,,,,,,,,,,,,,,,,,,,,,,,,,,,,,,,,,,,,,,,,,,95,151711,23,Female,1,2024/03/15_14:24:21,YZ,None,
,,,,,,calibration,0,8,2,500,3,V,0,right,0.57034330200986,1,0,,,,,,,,,,,,,,,,,,,,,1,,,,,,,,,,,,,,,,,,,,,,,,,,,,,,,,,,,,,,,,,,,,,,95,151711,23,Female,1,2024/03/15_14:24:21,YZ,None,
,,,,,,calibration,0,8,2,500,4,Q,0,right,0.5465311770094559,1,0,,,,,,,,,,,,,,,,,,,,,1,,,,,,,,,,,,,,,,,,,,,,,,,,,,,,,,,,,,,,,,,,,,,,95,151711,23,Female,1,2024/03/15_14:24:21,YZ,None,
,,,,,,calibration,0,8,2,500,5,V,1,left,0.4846199309977237,1,0,,,,,,,,,,,,,,,,,,,,,1,,,,,,,,,,,,,,,,,,,,,,,,,,,,,,,,,,,,,,,,,,,,,,95,151711,23,Female,1,2024/03/15_14:24:21,YZ,None,
,,,,,,calibration,0,8,2,500,6,X,0,right,0.4952007899992168,1,0,,,,,,,,,,,,,,,,,,,,,1,,,,,,,,,,,,,,,,,,,,,,,,,,,,,,,,,,,,,,,,,,,,,,95,151711,23,Female,1,2024/03/15_14:24:21,YZ,None,
,,,,,,calibration,0,8,2,500,7,V,1,right,0.759925499005476,0,0,,,,,,,,,,,,,,,,,,,,,1,,,,,,,,,,,,,,,,,,,,,,,,,,,,,,,,,,,,,,,,,,,,,,95,151711,23,Female,1,2024/03/15_14:24:21,YZ,None,
,,,,,,calibration,0,8,2,500,8,Q,0,left,0.4197842100111302,0,0,,,,,,,,,,,,,,,,,,,,,1,,,,,,,,,,,,,,,,,,,,,,,,,,,,,,,,,,,,,,,,,,,,,,95,151711,23,Female,1,2024/03/15_14:24:21,YZ,None,
,,,,,,calibration,0,8,2,500,9,V,1,left,0.6599210049898829,1,0,,,,,,,,,,,,,,,,,,,,,1,,,,,,,,,,,,,,,,,,,,,,,,,,,,,,,,,,,,,,,,,,,,,,95,151711,23,Female,1,2024/03/15_14:24:21,YZ,None,
,,,,,,calibration,0,8,2,500,10,S,0,right,0.3603421679872554,1,0,,,,,,,,,,,,,,,,,,,,,1,,,,,,,,,,,,,,,,,,,,,,,,,,,,,,,,,,,,,,,,,,,,,,95,151711,23,Female,1,2024/03/15_14:24:21,YZ,None,
,,,,,,calibration,0,8,2,500,11,N,0,right,0.48008139900048263,1,0,,,,,,,,,,,,,,,,,,,,,1,,,,,,,,,,,,,,,,,,,,,,,,,,,,,,,,,,,,,,,,,,,,,,95,151711,23,Female,1,2024/03/15_14:24:21,YZ,None,
,,,,,,calibration,0,8,2,500,12,S,1,left,0.4417285750096198,1,0,,,,,,,,,,,,,,,,,,,,,1,,,,,,,,,,,,,,,,,,,,,,,,,,,,,,,,,,,,,,,,,,,,,,95,151711,23,Female,1,2024/03/15_14:24:21,YZ,None,
,,,,,,calibration,0,8,2,500,13,Q,0,right,0.5123960039927624,1,0,,,,,,,,,,,,,,,,,,,,,1,,,,,,,,,,,,,,,,,,,,,,,,,,,,,,,,,,,,,,,,,,,,,,95,151711,23,Female,1,2024/03/15_14:24:21,YZ,None,
,,,,,,calibration,0,8,2,500,14,J,0,right,0.5582697269855998,1,0,,,,,,,,,,,,,,,,,,,,,1,,,,,,,,,,,,,,,,,,,,,,,,,,,,,,,,,,,,,,,,,,,,,,95,151711,23,Female,1,2024/03/15_14:24:21,YZ,None,
,,,,,,calibration,0,8,2,500,15,Q,1,left,0.47740503400564194,1,0,,,,,,,,,,,,,,,,,,,,,1,,,,,,,,,,,,,,,,,,,,,,,,,,,,,,,,,,,,,,,,,,,,,,95,151711,23,Female,1,2024/03/15_14:24:21,YZ,None,
,,,,,,calibration,0,8,2,500,16,N,0,right,0.3757846599910408,1,0,,,,,,,,,,,,,,,,,,,,,1,,,,,,,,,,,,,,,,,,,,,,,,,,,,,,,,,,,,,,,,,,,,,,95,151711,23,Female,1,2024/03/15_14:24:21,YZ,None,
,,,,,,calibration,0,8,2,500,,,,,,,,0.9090909090909091,0.8,0.09090909090909091,0.9090909090909091,0.0,0.9090909090909091,0.540946763687316,4,1,0,0,0,10,14,5,11,0,,,,1,,,,,,,,,,,,,,,,,,,,,,,,,,,,,,,,,,,,,,,,,,,,,,95,151711,23,Female,1,2024/03/15_14:24:21,YZ,None,
,,,,,,Calibration,0,,2,500,,,,,,,,,,,,,,,,,,,,,,,,,2,,,1,,,,,,,,,,,,,,,,,,,,,,,,,,,,,,,,,,,,,,,,,,,,,,95,151711,23,Female,1,2024/03/15_14:24:21,YZ,None,
,,,,,,calibration,0,16,2,426,1,S,0,right,0.47220203300821595,1,0,,,,,,,,,,,,,,,,,,,,,1,,,,,,,,,,,,,,,,,,,,,,,,,,,,,,,,,,,,,,,,,,,,,,95,151711,23,Female,1,2024/03/15_14:24:21,YZ,None,
,,,,,,calibration,0,16,2,426,2,S,0,left,0.6329703730007168,0,0,,,,,,,,,,,,,,,,,,,,,1,,,,,,,,,,,,,,,,,,,,,,,,,,,,,,,,,,,,,,,,,,,,,,95,151711,23,Female,1,2024/03/15_14:24:21,YZ,None,
,,,,,,calibration,0,16,2,426,3,S,1,right,0.32670015102485195,0,0,,,,,,,,,,,,,,,,,,,,,1,,,,,,,,,,,,,,,,,,,,,,,,,,,,,,,,,,,,,,,,,,,,,,95,151711,23,Female,1,2024/03/15_14:24:21,YZ,None,
,,,,,,calibration,0,16,2,426,4,C,0,left,0.5809110410045832,0,0,,,,,,,,,,,,,,,,,,,,,1,,,,,,,,,,,,,,,,,,,,,,,,,,,,,,,,,,,,,,,,,,,,,,95,151711,23,Female,1,2024/03/15_14:24:21,YZ,None,
,,,,,,calibration,0,16,2,426,5,N,0,right,0.5122822340053972,1,0,,,,,,,,,,,,,,,,,,,,,1,,,,,,,,,,,,,,,,,,,,,,,,,,,,,,,,,,,,,,,,,,,,,,95,151711,23,Female,1,2024/03/15_14:24:21,YZ,None,
,,,,,,calibration,0,16,2,426,6,X,0,right,0.2919342850218527,1,0,,,,,,,,,,,,,,,,,,,,,1,,,,,,,,,,,,,,,,,,,,,,,,,,,,,,,,,,,,,,,,,,,,,,95,151711,23,Female,1,2024/03/15_14:24:21,YZ,None,
,,,,,,calibration,0,16,2,426,7,C,0,left,0.5768468739988748,0,0,,,,,,,,,,,,,,,,,,,,,1,,,,,,,,,,,,,,,,,,,,,,,,,,,,,,,,,,,,,,,,,,,,,,95,151711,23,Female,1,2024/03/15_14:24:21,YZ,None,
,,,,,,calibration,0,16,2,426,8,N,0,right,0.553714914014563,1,0,,,,,,,,,,,,,,,,,,,,,1,,,,,,,,,,,,,,,,,,,,,,,,,,,,,,,,,,,,,,,,,,,,,,95,151711,23,Female,1,2024/03/15_14:24:21,YZ,None,
,,,,,,calibration,0,16,2,426,9,V,0,left,0.31296886000200175,0,0,,,,,,,,,,,,,,,,,,,,,1,,,,,,,,,,,,,,,,,,,,,,,,,,,,,,,,,,,,,,,,,,,,,,95,151711,23,Female,1,2024/03/15_14:24:21,YZ,None,
,,,,,,calibration,0,16,2,426,10,N,1,right,0.5739588070136961,0,0,,,,,,,,,,,,,,,,,,,,,1,,,,,,,,,,,,,,,,,,,,,,,,,,,,,,,,,,,,,,,,,,,,,,95,151711,23,Female,1,2024/03/15_14:24:21,YZ,None,
,,,,,,calibration,0,16,2,426,11,S,0,right,0.39321891000145115,1,0,,,,,,,,,,,,,,,,,,,,,1,,,,,,,,,,,,,,,,,,,,,,,,,,,,,,,,,,,,,,,,,,,,,,95,151711,23,Female,1,2024/03/15_14:24:21,YZ,None,
,,,,,,calibration,0,16,2,426,12,N,1,left,0.5124174619850237,1,0,,,,,,,,,,,,,,,,,,,,,1,,,,,,,,,,,,,,,,,,,,,,,,,,,,,,,,,,,,,,,,,,,,,,95,151711,23,Female,1,2024/03/15_14:24:21,YZ,None,
,,,,,,calibration,0,16,2,426,13,F,0,right,0.549352509988239,1,0,,,,,,,,,,,,,,,,,,,,,1,,,,,,,,,,,,,,,,,,,,,,,,,,,,,,,,,,,,,,,,,,,,,,95,151711,23,Female,1,2024/03/15_14:24:21,YZ,None,
,,,,,,calibration,0,16,2,426,14,N,1,left,0.614701505022822,1,0,,,,,,,,,,,,,,,,,,,,,1,,,,,,,,,,,,,,,,,,,,,,,,,,,,,,,,,,,,,,,,,,,,,,95,151711,23,Female,1,2024/03/15_14:24:21,YZ,None,
,,,,,,calibration,0,16,2,426,15,S,0,right,0.4546109789807815,1,0,,,,,,,,,,,,,,,,,,,,,1,,,,,,,,,,,,,,,,,,,,,,,,,,,,,,,,,,,,,,,,,,,,,,95,151711,23,Female,1,2024/03/15_14:24:21,YZ,None,
,,,,,,calibration,0,16,2,426,16,N,1,right,0.9255679609777872,0,0,,,,,,,,,,,,,,,,,,,,,1,,,,,,,,,,,,,,,,,,,,,,,,,,,,,,,,,,,,,,,,,,,,,,95,151711,23,Female,1,2024/03/15_14:24:21,YZ,None,
,,,,,,calibration,0,16,2,426,17,F,0,left,0.7046082760207355,0,0,,,,,,,,,,,,,,,,,,,,,1,,,,,,,,,,,,,,,,,,,,,,,,,,,,,,,,,,,,,,,,,,,,,,95,151711,23,Female,1,2024/03/15_14:24:21,YZ,None,
,,,,,,calibration,0,16,2,426,,,,,,,,0.005833333333333357,0.4,0.4166666666666667,0.5833333333333334,0.0,0.5833333333333333,0.5287627750042114,2,5,0,0,0,7,9,5,12,0,,,,1,,,,,,,,,,,,,,,,,,,,,,,,,,,,,,,,,,,,,,,,,,,,,,95,151711,23,Female,1,2024/03/15_14:24:21,YZ,None,
,,,,,,Calibration,0,,2,426,,,,,,,,,,,,,,,,,,,,,,,,,3,,,1,,,,,,,,,,,,,,,,,,,,,,,,,,,,,,,,,,,,,,,,,,,,,,95,151711,23,Female,1,2024/03/15_14:24:21,YZ,None,
,,,,,,calibration,0,14,2,500,1,Q,0,right,0.42822042599436827,1,0,,,,,,,,,,,,,,,,,,,,,1,,,,,,,,,,,,,,,,,,,,,,,,,,,,,,,,,,,,,,,,,,,,,,95,151711,23,Female,1,2024/03/15_14:24:21,YZ,None,
,,,,,,calibration,0,14,2,500,2,C,0,right,0.5923830780084245,1,0,,,,,,,,,,,,,,,,,,,,,1,,,,,,,,,,,,,,,,,,,,,,,,,,,,,,,,,,,,,,,,,,,,,,95,151711,23,Female,1,2024/03/15_14:24:21,YZ,None,
,,,,,,calibration,0,14,2,500,3,F,0,right,0.4042999380035326,1,0,,,,,,,,,,,,,,,,,,,,,1,,,,,,,,,,,,,,,,,,,,,,,,,,,,,,,,,,,,,,,,,,,,,,95,151711,23,Female,1,2024/03/15_14:24:21,YZ,None,
,,,,,,calibration,0,14,2,500,4,C,1,left,0.3371747709752526,1,0,,,,,,,,,,,,,,,,,,,,,1,,,,,,,,,,,,,,,,,,,,,,,,,,,,,,,,,,,,,,,,,,,,,,95,151711,23,Female,1,2024/03/15_14:24:21,YZ,None,
,,,,,,calibration,0,14,2,500,5,N,0,right,0.4879911390016787,1,0,,,,,,,,,,,,,,,,,,,,,1,,,,,,,,,,,,,,,,,,,,,,,,,,,,,,,,,,,,,,,,,,,,,,95,151711,23,Female,1,2024/03/15_14:24:21,YZ,None,
,,,,,,calibration,0,14,2,500,6,J,0,right,0.41549374000169337,1,0,,,,,,,,,,,,,,,,,,,,,1,,,,,,,,,,,,,,,,,,,,,,,,,,,,,,,,,,,,,,,,,,,,,,95,151711,23,Female,1,2024/03/15_14:24:21,YZ,None,
,,,,,,calibration,0,14,2,500,7,N,1,left,0.3898249659978319,1,0,,,,,,,,,,,,,,,,,,,,,1,,,,,,,,,,,,,,,,,,,,,,,,,,,,,,,,,,,,,,,,,,,,,,95,151711,23,Female,1,2024/03/15_14:24:21,YZ,None,
,,,,,,calibration,0,14,2,500,8,S,0,right,0.3921262929798104,1,0,,,,,,,,,,,,,,,,,,,,,1,,,,,,,,,,,,,,,,,,,,,,,,,,,,,,,,,,,,,,,,,,,,,,95,151711,23,Female,1,2024/03/15_14:24:21,YZ,None,
,,,,,,calibration,0,14,2,500,9,X,0,right,0.49012788297841325,1,0,,,,,,,,,,,,,,,,,,,,,1,,,,,,,,,,,,,,,,,,,,,,,,,,,,,,,,,,,,,,,,,,,,,,95,151711,23,Female,1,2024/03/15_14:24:21,YZ,None,
,,,,,,calibration,0,14,2,500,10,J,0,left,0.4811996140051633,0,0,,,,,,,,,,,,,,,,,,,,,1,,,,,,,,,,,,,,,,,,,,,,,,,,,,,,,,,,,,,,,,,,,,,,95,151711,23,Female,1,2024/03/15_14:24:21,YZ,None,
,,,,,,calibration,0,14,2,500,11,F,0,right,0.37871824801550247,1,0,,,,,,,,,,,,,,,,,,,,,1,,,,,,,,,,,,,,,,,,,,,,,,,,,,,,,,,,,,,,,,,,,,,,95,151711,23,Female,1,2024/03/15_14:24:21,YZ,None,
,,,,,,calibration,0,14,2,500,12,J,1,left,0.586520853015827,1,0,,,,,,,,,,,,,,,,,,,,,1,,,,,,,,,,,,,,,,,,,,,,,,,,,,,,,,,,,,,,,,,,,,,,95,151711,23,Female,1,2024/03/15_14:24:21,YZ,None,
,,,,,,calibration,0,14,2,500,13,S,0,right,0.49360366401378997,1,0,,,,,,,,,,,,,,,,,,,,,1,,,,,,,,,,,,,,,,,,,,,,,,,,,,,,,,,,,,,,,,,,,,,,95,151711,23,Female,1,2024/03/15_14:24:21,YZ,None,
,,,,,,calibration,0,14,2,500,14,V,0,right,0.38848490300006233,1,0,,,,,,,,,,,,,,,,,,,,,1,,,,,,,,,,,,,,,,,,,,,,,,,,,,,,,,,,,,,,,,,,,,,,95,151711,23,Female,1,2024/03/15_14:24:21,YZ,None,
,,,,,,calibration,0,14,2,500,15,S,1,left,0.4086332750157453,1,0,,,,,,,,,,,,,,,,,,,,,1,,,,,,,,,,,,,,,,,,,,,,,,,,,,,,,,,,,,,,,,,,,,,,95,151711,23,Female,1,2024/03/15_14:24:21,YZ,None,
,,,,,,calibration,0,14,2,500,16,C,0,right,0.5582083239860367,1,0,,,,,,,,,,,,,,,,,,,,,1,,,,,,,,,,,,,,,,,,,,,,,,,,,,,,,,,,,,,,,,,,,,,,95,151711,23,Female,1,2024/03/15_14:24:21,YZ,None,
,,,,,,calibration,0,14,2,500,,,,,,,,0.9791666666666666,1.0,0.08333333333333333,0.9166666666666666,0.0,0.9166666666666666,0.4520631946870708,4,1,0,0,0,11,15,4,12,0,,,,1,,,,,,,,,,,,,,,,,,,,,,,,,,,,,,,,,,,,,,,,,,,,,,95,151711,23,Female,1,2024/03/15_14:24:21,YZ,None,
,,,,,,Calibration,0,,2,500,,,,,,,,,,,,,,,,,,,,,,,,,4,,,1,,,,,,,,,,,,,,,,,,,,,,,,,,,,,,,,,,,,,,,,,,,,,,95,151711,23,Female,1,2024/03/15_14:24:21,YZ,None,
,,,,,,calibration,0,27,2,426,1,J,0,right,0.48679400800028816,1,0,,,,,,,,,,,,,,,,,,,,,1,,,,,,,,,,,,,,,,,,,,,,,,,,,,,,,,,,,,,,,,,,,,,,95,151711,23,Female,1,2024/03/15_14:24:21,YZ,None,
,,,,,,calibration,0,27,2,426,2,X,0,right,0.47186852898448706,1,0,,,,,,,,,,,,,,,,,,,,,1,,,,,,,,,,,,,,,,,,,,,,,,,,,,,,,,,,,,,,,,,,,,,,95,151711,23,Female,1,2024/03/15_14:24:21,YZ,None,
,,,,,,calibration,0,27,2,426,3,N,0,right,0.3998369670007378,1,0,,,,,,,,,,,,,,,,,,,,,1,,,,,,,,,,,,,,,,,,,,,,,,,,,,,,,,,,,,,,,,,,,,,,95,151711,23,Female,1,2024/03/15_14:24:21,YZ,None,
,,,,,,calibration,0,27,2,426,4,J,0,right,0.5124071059981361,1,0,,,,,,,,,,,,,,,,,,,,,1,,,,,,,,,,,,,,,,,,,,,,,,,,,,,,,,,,,,,,,,,,,,,,95,151711,23,Female,1,2024/03/15_14:24:21,YZ,None,
,,,,,,calibration,0,27,2,426,5,N,1,right,0.459096693986794,0,0,,,,,,,,,,,,,,,,,,,,,1,,,,,,,,,,,,,,,,,,,,,,,,,,,,,,,,,,,,,,,,,,,,,,95,151711,23,Female,1,2024/03/15_14:24:21,YZ,None,
,,,,,,calibration,0,27,2,426,6,X,0,left,0.46923343298840337,0,0,,,,,,,,,,,,,,,,,,,,,1,,,,,,,,,,,,,,,,,,,,,,,,,,,,,,,,,,,,,,,,,,,,,,95,151711,23,Female,1,2024/03/15_14:24:21,YZ,None,
,,,,,,calibration,0,27,2,426,7,N,1,left,0.5877929409907665,1,0,,,,,,,,,,,,,,,,,,,,,1,,,,,,,,,,,,,,,,,,,,,,,,,,,,,,,,,,,,,,,,,,,,,,95,151711,23,Female,1,2024/03/15_14:24:21,YZ,None,
,,,,,,calibration,0,27,2,426,8,S,0,right,0.3335248829971533,1,0,,,,,,,,,,,,,,,,,,,,,1,,,,,,,,,,,,,,,,,,,,,,,,,,,,,,,,,,,,,,,,,,,,,,95,151711,23,Female,1,2024/03/15_14:24:21,YZ,None,
,,,,,,calibration,0,27,2,426,9,C,0,right,0.30457598899374716,1,0,,,,,,,,,,,,,,,,,,,,,1,,,,,,,,,,,,,,,,,,,,,,,,,,,,,,,,,,,,,,,,,,,,,,95,151711,23,Female,1,2024/03/15_14:24:21,YZ,None,
,,,,,,calibration,0,27,2,426,10,S,1,left,0.37144304599496536,1,0,,,,,,,,,,,,,,,,,,,,,1,,,,,,,,,,,,,,,,,,,,,,,,,,,,,,,,,,,,,,,,,,,,,,95,151711,23,Female,1,2024/03/15_14:24:21,YZ,None,
,,,,,,calibration,0,27,2,426,11,Q,0,right,0.28475163198891096,1,0,,,,,,,,,,,,,,,,,,,,,1,,,,,,,,,,,,,,,,,,,,,,,,,,,,,,,,,,,,,,,,,,,,,,95,151711,23,Female,1,2024/03/15_14:24:21,YZ,None,
,,,,,,calibration,0,27,2,426,12,N,0,left,0.3140456060064025,0,0,,,,,,,,,,,,,,,,,,,,,1,,,,,,,,,,,,,,,,,,,,,,,,,,,,,,,,,,,,,,,,,,,,,,95,151711,23,Female,1,2024/03/15_14:24:21,YZ,None,
,,,,,,calibration,0,27,2,426,13,V,0,right,0.22479802198358811,1,0,,,,,,,,,,,,,,,,,,,,,1,,,,,,,,,,,,,,,,,,,,,,,,,,,,,,,,,,,,,,,,,,,,,,95,151711,23,Female,1,2024/03/15_14:24:21,YZ,None,
,,,,,,calibration,0,27,2,426,14,N,1,right,0.20968098400044255,0,0,,,,,,,,,,,,,,,,,,,,,1,,,,,,,,,,,,,,,,,,,,,,,,,,,,,,,,,,,,,,,,,,,,,,95,151711,23,Female,1,2024/03/15_14:24:21,YZ,None,
,,,,,,calibration,0,27,2,426,15,Q,0,right,0.3646952550043352,1,0,,,,,,,,,,,,,,,,,,,,,1,,,,,,,,,,,,,,,,,,,,,,,,,,,,,,,,,,,,,,,,,,,,,,95,151711,23,Female,1,2024/03/15_14:24:21,YZ,None,
,,,,,,calibration,0,27,2,426,16,X,0,right,0.41755914100212976,1,0,,,,,,,,,,,,,,,,,,,,,1,,,,,,,,,,,,,,,,,,,,,,,,,,,,,,,,,,,,,,,,,,,,,,95,151711,23,Female,1,2024/03/15_14:24:21,YZ,None,
,,,,,,calibration,0,27,2,426,17,Q,1,left,0.6405670000240207,1,0,,,,,,,,,,,,,,,,,,,,,1,,,,,,,,,,,,,,,,,,,,,,,,,,,,,,,,,,,,,,,,,,,,,,95,151711,23,Female,1,2024/03/15_14:24:21,YZ,None,
,,,,,,calibration,0,27,2,426,,,,,,,,0.7916666666666667,0.6,0.16666666666666666,0.8333333333333334,0.0,0.8333333333333334,0.40309830799678287,3,2,0,0,0,10,13,5,12,0,,,,1,,,,,,,,,,,,,,,,,,,,,,,,,,,,,,,,,,,,,,,,,,,,,,95,151711,23,Female,1,2024/03/15_14:24:21,YZ,None,
,,,,,,Calibration,0,,2,426,,,,,,,,,,,,,,,,,,,,,,,,,5,,,1,,,,,,,,,,,,,,,,,,,,,,,,,,,,,,,,,,,,,,,,,,,,,,95,151711,23,Female,1,2024/03/15_14:24:21,YZ,None,
,,,,,,calibration,0,4,2,426,1,N,0,right,0.5123203549883328,1,0,,,,,,,,,,,,,,,,,,,,,1,,,,,,,,,,,,,,,,,,,,,,,,,,,,,,,,,,,,,,,,,,,,,,95,151711,23,Female,1,2024/03/15_14:24:21,YZ,None,
,,,,,,calibration,0,4,2,426,2,C,0,right,0.4172976120025851,1,0,,,,,,,,,,,,,,,,,,,,,1,,,,,,,,,,,,,,,,,,,,,,,,,,,,,,,,,,,,,,,,,,,,,,95,151711,23,Female,1,2024/03/15_14:24:21,YZ,None,
,,,,,,calibration,0,4,2,426,3,X,0,right,0.4724245019897353,1,0,,,,,,,,,,,,,,,,,,,,,1,,,,,,,,,,,,,,,,,,,,,,,,,,,,,,,,,,,,,,,,,,,,,,95,151711,23,Female,1,2024/03/15_14:24:21,YZ,None,
,,,,,,calibration,0,4,2,426,4,Q,0,right,0.425262828997802,1,0,,,,,,,,,,,,,,,,,,,,,1,,,,,,,,,,,,,,,,,,,,,,,,,,,,,,,,,,,,,,,,,,,,,,95,151711,23,Female,1,2024/03/15_14:24:21,YZ,None,
,,,,,,calibration,0,4,2,426,5,F,0,right,0.39249103199108504,1,0,,,,,,,,,,,,,,,,,,,,,1,,,,,,,,,,,,,,,,,,,,,,,,,,,,,,,,,,,,,,,,,,,,,,95,151711,23,Female,1,2024/03/15_14:24:21,YZ,None,
,,,,,,calibration,0,4,2,426,6,S,0,right,0.5841067830042448,1,0,,,,,,,,,,,,,,,,,,,,,1,,,,,,,,,,,,,,,,,,,,,,,,,,,,,,,,,,,,,,,,,,,,,,95,151711,23,Female,1,2024/03/15_14:24:21,YZ,None,
,,,,,,calibration,0,4,2,426,7,F,1,right,0.5124152679927647,0,0,,,,,,,,,,,,,,,,,,,,,1,,,,,,,,,,,,,,,,,,,,,,,,,,,,,,,,,,,,,,,,,,,,,,95,151711,23,Female,1,2024/03/15_14:24:21,YZ,None,
,,,,,,calibration,0,4,2,426,8,S,1,right,0.6922874639858492,0,0,,,,,,,,,,,,,,,,,,,,,1,,,,,,,,,,,,,,,,,,,,,,,,,,,,,,,,,,,,,,,,,,,,,,95,151711,23,Female,1,2024/03/15_14:24:21,YZ,None,
,,,,,,calibration,0,4,2,426,9,Q,0,right,0.5685893100162502,1,0,,,,,,,,,,,,,,,,,,,,,1,,,,,,,,,,,,,,,,,,,,,,,,,,,,,,,,,,,,,,,,,,,,,,95,151711,23,Female,1,2024/03/15_14:24:21,YZ,None,
,,,,,,calibration,0,4,2,426,10,S,1,left,0.6255659279995598,1,0,,,,,,,,,,,,,,,,,,,,,1,,,,,,,,,,,,,,,,,,,,,,,,,,,,,,,,,,,,,,,,,,,,,,95,151711,23,Female,1,2024/03/15_14:24:21,YZ,None,
,,,,,,calibration,0,4,2,426,11,F,0,right,0.5124494839983527,1,0,,,,,,,,,,,,,,,,,,,,,1,,,,,,,,,,,,,,,,,,,,,,,,,,,,,,,,,,,,,,,,,,,,,,95,151711,23,Female,1,2024/03/15_14:24:21,YZ,None,
,,,,,,calibration,0,4,2,426,12,Q,0,left,0.5401162619818933,0,0,,,,,,,,,,,,,,,,,,,,,1,,,,,,,,,,,,,,,,,,,,,,,,,,,,,,,,,,,,,,,,,,,,,,95,151711,23,Female,1,2024/03/15_14:24:21,YZ,None,
,,,,,,calibration,0,4,2,426,13,F,1,right,0.45473508301074617,0,0,,,,,,,,,,,,,,,,,,,,,1,,,,,,,,,,,,,,,,,,,,,,,,,,,,,,,,,,,,,,,,,,,,,,95,151711,23,Female,1,2024/03/15_14:24:21,YZ,None,
,,,,,,calibration,0,4,2,426,14,C,0,right,0.392172591004055,1,0,,,,,,,,,,,,,,,,,,,,,1,,,,,,,,,,,,,,,,,,,,,,,,,,,,,,,,,,,,,,,,,,,,,,95,151711,23,Female,1,2024/03/15_14:24:21,YZ,None,
,,,,,,calibration,0,4,2,426,15,Q,0,left,0.5304715550155379,0,0,,,,,,,,,,,,,,,,,,,,,1,,,,,,,,,,,,,,,,,,,,,,,,,,,,,,,,,,,,,,,,,,,,,,95,151711,23,Female,1,2024/03/15_14:24:21,YZ,None,
,,,,,,calibration,0,4,2,426,16,C,1,left,0.474218938004924,1,0,,,,,,,,,,,,,,,,,,,,,1,,,,,,,,,,,,,,,,,,,,,,,,,,,,,,,,,,,,,,,,,,,,,,95,151711,23,Female,1,2024/03/15_14:24:21,YZ,None,
,,,,,,calibration,0,4,2,426,17,V,0,right,0.5001943219976965,1,0,,,,,,,,,,,,,,,,,,,,,1,,,,,,,,,,,,,,,,,,,,,,,,,,,,,,,,,,,,,,,,,,,,,,95,151711,23,Female,1,2024/03/15_14:24:21,YZ,None,
,,,,,,calibration,0,4,2,426,,,,,,,,0.7041666666666667,0.4,0.16666666666666666,0.8333333333333334,0.0,0.8333333333333334,0.5063011363518479,2,2,0,0,0,10,12,5,12,0,,,,1,,,,,,,,,,,,,,,,,,,,,,,,,,,,,,,,,,,,,,,,,,,,,,95,151711,23,Female,1,2024/03/15_14:24:21,YZ,None,
,,,,,,Calibration,0,,2,426,,,,,,,,,,,,,,,,,,,,,,,,,6,,,1,,,,,,,,,,,,,,,,,,,,,,,,,,,,,,,,,,,,,,,,,,,,,,95,151711,23,Female,1,2024/03/15_14:24:21,YZ,None,
,,,,,,calibration,0,33,2,500,1,X,0,right,0.4484852160094306,1,0,,,,,,,,,,,,,,,,,,,,,1,,,,,,,,,,,,,,,,,,,,,,,,,,,,,,,,,,,,,,,,,,,,,,95,151711,23,Female,1,2024/03/15_14:24:21,YZ,None,
,,,,,,calibration,0,33,2,500,2,F,0,right,0.431484012020519,1,0,,,,,,,,,,,,,,,,,,,,,1,,,,,,,,,,,,,,,,,,,,,,,,,,,,,,,,,,,,,,,,,,,,,,95,151711,23,Female,1,2024/03/15_14:24:21,YZ,None,
,,,,,,calibration,0,33,2,500,3,X,1,left,0.4123045649903361,1,0,,,,,,,,,,,,,,,,,,,,,1,,,,,,,,,,,,,,,,,,,,,,,,,,,,,,,,,,,,,,,,,,,,,,95,151711,23,Female,1,2024/03/15_14:24:21,YZ,None,
,,,,,,calibration,0,33,2,500,4,F,1,left,0.3923900189984124,1,0,,,,,,,,,,,,,,,,,,,,,1,,,,,,,,,,,,,,,,,,,,,,,,,,,,,,,,,,,,,,,,,,,,,,95,151711,23,Female,1,2024/03/15_14:24:21,YZ,None,
,,,,,,calibration,0,33,2,500,5,N,0,right,0.4555909530026838,1,0,,,,,,,,,,,,,,,,,,,,,1,,,,,,,,,,,,,,,,,,,,,,,,,,,,,,,,,,,,,,,,,,,,,,95,151711,23,Female,1,2024/03/15_14:24:21,YZ,None,
,,,,,,calibration,0,33,2,500,6,Q,0,right,0.39155052200658247,1,0,,,,,,,,,,,,,,,,,,,,,1,,,,,,,,,,,,,,,,,,,,,,,,,,,,,,,,,,,,,,,,,,,,,,95,151711,23,Female,1,2024/03/15_14:24:21,YZ,None,
,,,,,,calibration,0,33,2,500,7,S,0,right,0.3835448379977606,1,0,,,,,,,,,,,,,,,,,,,,,1,,,,,,,,,,,,,,,,,,,,,,,,,,,,,,,,,,,,,,,,,,,,,,95,151711,23,Female,1,2024/03/15_14:24:21,YZ,None,
,,,,,,calibration,0,33,2,500,8,Q,1,left,0.35339794197352603,1,0,,,,,,,,,,,,,,,,,,,,,1,,,,,,,,,,,,,,,,,,,,,,,,,,,,,,,,,,,,,,,,,,,,,,95,151711,23,Female,1,2024/03/15_14:24:21,YZ,None,
,,,,,,calibration,0,33,2,500,9,N,0,right,0.2682799810136203,1,0,,,,,,,,,,,,,,,,,,,,,1,,,,,,,,,,,,,,,,,,,,,,,,,,,,,,,,,,,,,,,,,,,,,,95,151711,23,Female,1,2024/03/15_14:24:21,YZ,None,
,,,,,,calibration,0,33,2,500,10,V,0,right,0.38375230800011195,1,0,,,,,,,,,,,,,,,,,,,,,1,,,,,,,,,,,,,,,,,,,,,,,,,,,,,,,,,,,,,,,,,,,,,,95,151711,23,Female,1,2024/03/15_14:24:21,YZ,None,
,,,,,,calibration,0,33,2,500,11,F,0,right,0.34476087600342,1,0,,,,,,,,,,,,,,,,,,,,,1,,,,,,,,,,,,,,,,,,,,,,,,,,,,,,,,,,,,,,,,,,,,,,95,151711,23,Female,1,2024/03/15_14:24:21,YZ,None,
,,,,,,calibration,0,33,2,500,12,N,0,left,0.479682313016383,0,0,,,,,,,,,,,,,,,,,,,,,1,,,,,,,,,,,,,,,,,,,,,,,,,,,,,,,,,,,,,,,,,,,,,,95,151711,23,Female,1,2024/03/15_14:24:21,YZ,None,
,,,,,,calibration,0,33,2,500,13,S,0,right,0.5123679750249721,1,0,,,,,,,,,,,,,,,,,,,,,1,,,,,,,,,,,,,,,,,,,,,,,,,,,,,,,,,,,,,,,,,,,,,,95,151711,23,Female,1,2024/03/15_14:24:21,YZ,None,
,,,,,,calibration,0,33,2,500,14,J,0,right,0.36866705399006605,1,0,,,,,,,,,,,,,,,,,,,,,1,,,,,,,,,,,,,,,,,,,,,,,,,,,,,,,,,,,,,,,,,,,,,,95,151711,23,Female,1,2024/03/15_14:24:21,YZ,None,
,,,,,,calibration,0,33,2,500,15,S,1,left,0.42359740802203305,1,0,,,,,,,,,,,,,,,,,,,,,1,,,,,,,,,,,,,,,,,,,,,,,,,,,,,,,,,,,,,,,,,,,,,,95,151711,23,Female,1,2024/03/15_14:24:21,YZ,None,
,,,,,,calibration,0,33,2,500,16,J,1,right,0.2711319850059226,0,0,,,,,,,,,,,,,,,,,,,,,1,,,,,,,,,,,,,,,,,,,,,,,,,,,,,,,,,,,,,,,,,,,,,,95,151711,23,Female,1,2024/03/15_14:24:21,YZ,None,
,,,,,,calibration,0,33,2,500,,,,,,,,0.9090909090909091,0.8,0.09090909090909091,0.9090909090909091,0.0,0.9090909090909091,0.39506174794223625,4,1,0,0,0,10,14,5,11,0,,,,1,,,,,,,,,,,,,,,,,,,,,,,,,,,,,,,,,,,,,,,,,,,,,,95,151711,23,Female,1,2024/03/15_14:24:21,YZ,None,
,,,,,,Calibration,0,,2,500,,,,,,,,,,,,,,,,,,,,,,,,,7,,,1,,,,,,,,,,,,,,,,,,,,,,,,,,,,,,,,,,,,,,,,,,,,,,95,151711,23,Female,1,2024/03/15_14:24:21,YZ,None,
,,,,,,calibration,0,18,2,426,1,S,0,right,0.45589556999038905,1,0,,,,,,,,,,,,,,,,,,,,,1,,,,,,,,,,,,,,,,,,,,,,,,,,,,,,,,,,,,,,,,,,,,,,95,151711,23,Female,1,2024/03/15_14:24:21,YZ,None,
,,,,,,calibration,0,18,2,426,2,N,0,right,0.351717554993229,1,0,,,,,,,,,,,,,,,,,,,,,1,,,,,,,,,,,,,,,,,,,,,,,,,,,,,,,,,,,,,,,,,,,,,,95,151711,23,Female,1,2024/03/15_14:24:21,YZ,None,
,,,,,,calibration,0,18,2,426,3,F,0,right,0.3445687080093194,1,0,,,,,,,,,,,,,,,,,,,,,1,,,,,,,,,,,,,,,,,,,,,,,,,,,,,,,,,,,,,,,,,,,,,,95,151711,23,Female,1,2024/03/15_14:24:21,YZ,None,
,,,,,,calibration,0,18,2,426,4,N,1,left,0.3443429449980613,1,0,,,,,,,,,,,,,,,,,,,,,1,,,,,,,,,,,,,,,,,,,,,,,,,,,,,,,,,,,,,,,,,,,,,,95,151711,23,Female,1,2024/03/15_14:24:21,YZ,None,
,,,,,,calibration,0,18,2,426,5,J,0,right,0.27596688200719655,1,0,,,,,,,,,,,,,,,,,,,,,1,,,,,,,,,,,,,,,,,,,,,,,,,,,,,,,,,,,,,,,,,,,,,,95,151711,23,Female,1,2024/03/15_14:24:21,YZ,None,
,,,,,,calibration,0,18,2,426,6,N,1,right,0.3939592389797326,0,0,,,,,,,,,,,,,,,,,,,,,1,,,,,,,,,,,,,,,,,,,,,,,,,,,,,,,,,,,,,,,,,,,,,,95,151711,23,Female,1,2024/03/15_14:24:21,YZ,None,
,,,,,,calibration,0,18,2,426,7,C,0,left,0.5410997709841467,0,0,,,,,,,,,,,,,,,,,,,,,1,,,,,,,,,,,,,,,,,,,,,,,,,,,,,,,,,,,,,,,,,,,,,,95,151711,23,Female,1,2024/03/15_14:24:21,YZ,None,
,,,,,,calibration,0,18,2,426,8,J,0,right,0.24476307598524727,1,0,,,,,,,,,,,,,,,,,,,,,1,,,,,,,,,,,,,,,,,,,,,,,,,,,,,,,,,,,,,,,,,,,,,,95,151711,23,Female,1,2024/03/15_14:24:21,YZ,None,
,,,,,,calibration,0,18,2,426,9,C,1,right,0.5116416630044114,0,0,,,,,,,,,,,,,,,,,,,,,1,,,,,,,,,,,,,,,,,,,,,,,,,,,,,,,,,,,,,,,,,,,,,,95,151711,23,Female,1,2024/03/15_14:24:21,YZ,None,
,,,,,,calibration,0,18,2,426,10,S,0,right,0.483685161016183,1,0,,,,,,,,,,,,,,,,,,,,,1,,,,,,,,,,,,,,,,,,,,,,,,,,,,,,,,,,,,,,,,,,,,,,95,151711,23,Female,1,2024/03/15_14:24:21,YZ,None,
,,,,,,calibration,0,18,2,426,11,N,0,left,0.4042410319962073,0,0,,,,,,,,,,,,,,,,,,,,,1,,,,,,,,,,,,,,,,,,,,,,,,,,,,,,,,,,,,,,,,,,,,,,95,151711,23,Female,1,2024/03/15_14:24:21,YZ,None,
,,,,,,calibration,0,18,2,426,12,X,0,right,0.6580157950229477,1,0,,,,,,,,,,,,,,,,,,,,,1,,,,,,,,,,,,,,,,,,,,,,,,,,,,,,,,,,,,,,,,,,,,,,95,151711,23,Female,1,2024/03/15_14:24:21,YZ,None,
,,,,,,calibration,0,18,2,426,13,Q,0,right,0.2509608219843358,1,0,,,,,,,,,,,,,,,,,,,,,1,,,,,,,,,,,,,,,,,,,,,,,,,,,,,,,,,,,,,,,,,,,,,,95,151711,23,Female,1,2024/03/15_14:24:21,YZ,None,
,,,,,,calibration,0,18,2,426,14,X,1,left,0.47317348700016737,1,0,,,,,,,,,,,,,,,,,,,,,1,,,,,,,,,,,,,,,,,,,,,,,,,,,,,,,,,,,,,,,,,,,,,,95,151711,23,Female,1,2024/03/15_14:24:21,YZ,None,
,,,,,,calibration,0,18,2,426,15,J,0,right,0.36885074799647555,1,0,,,,,,,,,,,,,,,,,,,,,1,,,,,,,,,,,,,,,,,,,,,,,,,,,,,,,,,,,,,,,,,,,,,,95,151711,23,Female,1,2024/03/15_14:24:21,YZ,None,
,,,,,,calibration,0,18,2,426,16,X,1,right,0.48727716100984253,0,0,,,,,,,,,,,,,,,,,,,,,1,,,,,,,,,,,,,,,,,,,,,,,,,,,,,,,,,,,,,,,,,,,,,,95,151711,23,Female,1,2024/03/15_14:24:21,YZ,None,
,,,,,,calibration,0,18,2,426,17,S,0,right,0.6809870550059713,1,0,,,,,,,,,,,,,,,,,,,,,1,,,,,,,,,,,,,,,,,,,,,,,,,,,,,,,,,,,,,,,,,,,,,,95,151711,23,Female,1,2024/03/15_14:24:21,YZ,None,
,,,,,,calibration,0,18,2,426,,,,,,,,0.7041666666666667,0.4,0.16666666666666666,0.8333333333333334,0.0,0.8333333333333334,0.4277145099990508,2,2,0,0,0,10,12,5,12,0,,,,1,,,,,,,,,,,,,,,,,,,,,,,,,,,,,,,,,,,,,,,,,,,,,,95,151711,23,Female,1,2024/03/15_14:24:21,YZ,None,
,,,,,,Calibration,0,,2,426,,,,,,,,,,,,,,,,,,,,,,,,,8,,,1,,,,,,,,,,,,,,,,,,,,,,,,,,,,,,,,,,,,,,,,,,,,,,95,151711,23,Female,1,2024/03/15_14:24:21,YZ,None,
,,,,,,calibration,0,6,2,500,1,N,0,right,0.3219231929979287,1,0,,,,,,,,,,,,,,,,,,,,,1,,,,,,,,,,,,,,,,,,,,,,,,,,,,,,,,,,,,,,,,,,,,,,95,151711,23,Female,1,2024/03/15_14:24:21,YZ,None,
,,,,,,calibration,0,6,2,500,2,F,0,right,0.38492279799538665,1,0,,,,,,,,,,,,,,,,,,,,,1,,,,,,,,,,,,,,,,,,,,,,,,,,,,,,,,,,,,,,,,,,,,,,95,151711,23,Female,1,2024/03/15_14:24:21,YZ,None,
,,,,,,calibration,0,6,2,500,3,N,1,left,0.4398612270015292,1,0,,,,,,,,,,,,,,,,,,,,,1,,,,,,,,,,,,,,,,,,,,,,,,,,,,,,,,,,,,,,,,,,,,,,95,151711,23,Female,1,2024/03/15_14:24:21,YZ,None,
,,,,,,calibration,0,6,2,500,4,S,0,right,0.3350007999979425,1,0,,,,,,,,,,,,,,,,,,,,,1,,,,,,,,,,,,,,,,,,,,,,,,,,,,,,,,,,,,,,,,,,,,,,95,151711,23,Female,1,2024/03/15_14:24:21,YZ,None,
,,,,,,calibration,0,6,2,500,5,N,1,left,0.3306889919913374,1,0,,,,,,,,,,,,,,,,,,,,,1,,,,,,,,,,,,,,,,,,,,,,,,,,,,,,,,,,,,,,,,,,,,,,95,151711,23,Female,1,2024/03/15_14:24:21,YZ,None,
,,,,,,calibration,0,6,2,500,6,S,1,right,0.32754349801689386,0,0,,,,,,,,,,,,,,,,,,,,,1,,,,,,,,,,,,,,,,,,,,,,,,,,,,,,,,,,,,,,,,,,,,,,95,151711,23,Female,1,2024/03/15_14:24:21,YZ,None,
,,,,,,calibration,0,6,2,500,7,X,0,right,0.6238877580035478,1,0,,,,,,,,,,,,,,,,,,,,,1,,,,,,,,,,,,,,,,,,,,,,,,,,,,,,,,,,,,,,,,,,,,,,95,151711,23,Female,1,2024/03/15_14:24:21,YZ,None,
,,,,,,calibration,0,6,2,500,8,J,0,left,0.5231042869854718,0,0,,,,,,,,,,,,,,,,,,,,,1,,,,,,,,,,,,,,,,,,,,,,,,,,,,,,,,,,,,,,,,,,,,,,95,151711,23,Female,1,2024/03/15_14:24:21,YZ,None,
,,,,,,calibration,0,6,2,500,9,Q,0,right,0.2784516139945481,1,0,,,,,,,,,,,,,,,,,,,,,1,,,,,,,,,,,,,,,,,,,,,,,,,,,,,,,,,,,,,,,,,,,,,,95,151711,23,Female,1,2024/03/15_14:24:21,YZ,None,
,,,,,,calibration,0,6,2,500,10,C,0,right,0.3627170899999328,1,0,,,,,,,,,,,,,,,,,,,,,1,,,,,,,,,,,,,,,,,,,,,,,,,,,,,,,,,,,,,,,,,,,,,,95,151711,23,Female,1,2024/03/15_14:24:21,YZ,None,
,,,,,,calibration,0,6,2,500,11,X,0,right,0.407610375987133,1,0,,,,,,,,,,,,,,,,,,,,,1,,,,,,,,,,,,,,,,,,,,,,,,,,,,,,,,,,,,,,,,,,,,,,95,151711,23,Female,1,2024/03/15_14:24:21,YZ,None,
,,,,,,calibration,0,6,2,500,12,S,0,left,0.5122648499964271,0,0,,,,,,,,,,,,,,,,,,,,,1,,,,,,,,,,,,,,,,,,,,,,,,,,,,,,,,,,,,,,,,,,,,,,95,151711,23,Female,1,2024/03/15_14:24:21,YZ,None,
,,,,,,calibration,0,6,2,500,13,J,0,right,0.39627579000080004,1,0,,,,,,,,,,,,,,,,,,,,,1,,,,,,,,,,,,,,,,,,,,,,,,,,,,,,,,,,,,,,,,,,,,,,95,151711,23,Female,1,2024/03/15_14:24:21,YZ,None,
,,,,,,calibration,0,6,2,500,14,F,0,right,0.40367077698465437,1,0,,,,,,,,,,,,,,,,,,,,,1,,,,,,,,,,,,,,,,,,,,,,,,,,,,,,,,,,,,,,,,,,,,,,95,151711,23,Female,1,2024/03/15_14:24:21,YZ,None,
,,,,,,calibration,0,6,2,500,15,V,0,right,0.3596159139997326,1,0,,,,,,,,,,,,,,,,,,,,,1,,,,,,,,,,,,,,,,,,,,,,,,,,,,,,,,,,,,,,,,,,,,,,95,151711,23,Female,1,2024/03/15_14:24:21,YZ,None,
,,,,,,calibration,0,6,2,500,16,F,1,right,0.3803843330242671,0,0,,,,,,,,,,,,,,,,,,,,,1,,,,,,,,,,,,,,,,,,,,,,,,,,,,,,,,,,,,,,,,,,,,,,95,151711,23,Female,1,2024/03/15_14:24:21,YZ,None,
,,,,,,calibration,0,6,2,500,,,,,,,,0.75,0.5,0.16666666666666666,0.8333333333333334,0.0,0.8333333333333334,0.3992452060610958,2,2,0,0,0,10,12,4,12,0,,,,1,,,,,,,,,,,,,,,,,,,,,,,,,,,,,,,,,,,,,,,,,,,,,,95,151711,23,Female,1,2024/03/15_14:24:21,YZ,None,
,,,,,,Calibration,0,,2,500,,,,,,,,,,,,,,,,,,,,,,,,,9,,,1,,,,,,,,,,,,,,,,,,,,,,,,,,,,,,,,,,,,,,,,,,,,,,95,151711,23,Female,1,2024/03/15_14:24:21,YZ,None,
,,,,,,calibration,0,31,2,500,1,V,0,right,0.32729270998970605,1,0,,,,,,,,,,,,,,,,,,,,,1,,,,,,,,,,,,,,,,,,,,,,,,,,,,,,,,,,,,,,,,,,,,,,95,151711,23,Female,1,2024/03/15_14:24:21,YZ,None,
,,,,,,calibration,0,31,2,500,2,N,0,right,0.411534325015964,1,0,,,,,,,,,,,,,,,,,,,,,1,,,,,,,,,,,,,,,,,,,,,,,,,,,,,,,,,,,,,,,,,,,,,,95,151711,23,Female,1,2024/03/15_14:24:21,YZ,None,
,,,,,,calibration,0,31,2,500,3,F,0,right,0.45259089101455174,1,0,,,,,,,,,,,,,,,,,,,,,1,,,,,,,,,,,,,,,,,,,,,,,,,,,,,,,,,,,,,,,,,,,,,,95,151711,23,Female,1,2024/03/15_14:24:21,YZ,None,
,,,,,,calibration,0,31,2,500,4,N,1,left,0.5126204780244734,1,0,,,,,,,,,,,,,,,,,,,,,1,,,,,,,,,,,,,,,,,,,,,,,,,,,,,,,,,,,,,,,,,,,,,,95,151711,23,Female,1,2024/03/15_14:24:21,YZ,None,
,,,,,,calibration,0,31,2,500,5,S,0,right,0.42837661001249216,1,0,,,,,,,,,,,,,,,,,,,,,1,,,,,,,,,,,,,,,,,,,,,,,,,,,,,,,,,,,,,,,,,,,,,,95,151711,23,Female,1,2024/03/15_14:24:21,YZ,None,
,,,,,,calibration,0,31,2,500,6,Q,0,right,0.42103707999922335,1,0,,,,,,,,,,,,,,,,,,,,,1,,,,,,,,,,,,,,,,,,,,,,,,,,,,,,,,,,,,,,,,,,,,,,95,151711,23,Female,1,2024/03/15_14:24:21,YZ,None,
,,,,,,calibration,0,31,2,500,7,N,0,left,0.5124373830039985,0,0,,,,,,,,,,,,,,,,,,,,,1,,,,,,,,,,,,,,,,,,,,,,,,,,,,,,,,,,,,,,,,,,,,,,95,151711,23,Female,1,2024/03/15_14:24:21,YZ,None,
,,,,,,calibration,0,31,2,500,8,Q,1,left,0.5977812409983017,1,0,,,,,,,,,,,,,,,,,,,,,1,,,,,,,,,,,,,,,,,,,,,,,,,,,,,,,,,,,,,,,,,,,,,,95,151711,23,Female,1,2024/03/15_14:24:21,YZ,None,
,,,,,,calibration,0,31,2,500,9,J,0,right,0.5124817699834239,1,0,,,,,,,,,,,,,,,,,,,,,1,,,,,,,,,,,,,,,,,,,,,,,,,,,,,,,,,,,,,,,,,,,,,,95,151711,23,Female,1,2024/03/15_14:24:21,YZ,None,
,,,,,,calibration,0,31,2,500,10,Q,1,left,0.46815790198161267,1,0,,,,,,,,,,,,,,,,,,,,,1,,,,,,,,,,,,,,,,,,,,,,,,,,,,,,,,,,,,,,,,,,,,,,95,151711,23,Female,1,2024/03/15_14:24:21,YZ,None,
,,,,,,calibration,0,31,2,500,11,J,1,right,0.4076222050061915,0,0,,,,,,,,,,,,,,,,,,,,,1,,,,,,,,,,,,,,,,,,,,,,,,,,,,,,,,,,,,,,,,,,,,,,95,151711,23,Female,1,2024/03/15_14:24:21,YZ,None,
,,,,,,calibration,0,31,2,500,12,X,0,right,0.48021426098421216,1,0,,,,,,,,,,,,,,,,,,,,,1,,,,,,,,,,,,,,,,,,,,,,,,,,,,,,,,,,,,,,,,,,,,,,95,151711,23,Female,1,2024/03/15_14:24:21,YZ,None,
,,,,,,calibration,0,31,2,500,13,S,0,left,0.4360999839846045,0,0,,,,,,,,,,,,,,,,,,,,,1,,,,,,,,,,,,,,,,,,,,,,,,,,,,,,,,,,,,,,,,,,,,,,95,151711,23,Female,1,2024/03/15_14:24:21,YZ,None,
,,,,,,calibration,0,31,2,500,14,Q,0,right,0.31974035600433126,1,0,,,,,,,,,,,,,,,,,,,,,1,,,,,,,,,,,,,,,,,,,,,,,,,,,,,,,,,,,,,,,,,,,,,,95,151711,23,Female,1,2024/03/15_14:24:21,YZ,None,
,,,,,,calibration,0,31,2,500,15,S,1,right,0.6654816050140653,0,0,,,,,,,,,,,,,,,,,,,,,1,,,,,,,,,,,,,,,,,,,,,,,,,,,,,,,,,,,,,,,,,,,,,,95,151711,23,Female,1,2024/03/15_14:24:21,YZ,None,
,,,,,,calibration,0,31,2,500,16,J,0,right,0.8089763869938906,1,0,,,,,,,,,,,,,,,,,,,,,1,,,,,,,,,,,,,,,,,,,,,,,,,,,,,,,,,,,,,,,,,,,,,,95,151711,23,Female,1,2024/03/15_14:24:21,YZ,None,
,,,,,,calibration,0,31,2,500,,,,,,,,0.7818181818181817,0.6,0.18181818181818182,0.8181818181818182,0.0,0.8181818181818181,0.4851528242506902,3,2,0,0,0,9,12,5,11,0,,,,1,,,,,,,,,,,,,,,,,,,,,,,,,,,,,,,,,,,,,,,,,,,,,,95,151711,23,Female,1,2024/03/15_14:24:21,YZ,None,
,,,,,,Calibration,0,,2,500,,,,,,,,,,,,,,,,,,,,,,,,,10,,,1,,,,,,,,,,,,,,,,,,,,,,,,,,,,,,,,,,,,,,,,,,,,,,95,151711,23,Female,1,2024/03/15_14:24:21,YZ,None,
,,,,,,calibration,0,1,2,500,1,X,0,right,0.38436120699043386,1,0,,,,,,,,,,,,,,,,,,,,,1,,,,,,,,,,,,,,,,,,,,,,,,,,,,,,,,,,,,,,,,,,,,,,95,151711,23,Female,1,2024/03/15_14:24:21,YZ,None,
,,,,,,calibration,0,1,2,500,2,X,0,right,0.9229667620093096,1,0,,,,,,,,,,,,,,,,,,,,,1,,,,,,,,,,,,,,,,,,,,,,,,,,,,,,,,,,,,,,,,,,,,,,95,151711,23,Female,1,2024/03/15_14:24:21,YZ,None,
,,,,,,calibration,0,1,2,500,3,J,0,right,0.692831226013368,1,0,,,,,,,,,,,,,,,,,,,,,1,,,,,,,,,,,,,,,,,,,,,,,,,,,,,,,,,,,,,,,,,,,,,,95,151711,23,Female,1,2024/03/15_14:24:21,YZ,None,
,,,,,,calibration,0,1,2,500,4,N,0,right,0.4972476630064193,1,0,,,,,,,,,,,,,,,,,,,,,1,,,,,,,,,,,,,,,,,,,,,,,,,,,,,,,,,,,,,,,,,,,,,,95,151711,23,Female,1,2024/03/15_14:24:21,YZ,None,
,,,,,,calibration,0,1,2,500,5,J,1,left,0.331113082007505,1,0,,,,,,,,,,,,,,,,,,,,,1,,,,,,,,,,,,,,,,,,,,,,,,,,,,,,,,,,,,,,,,,,,,,,95,151711,23,Female,1,2024/03/15_14:24:21,YZ,None,
,,,,,,calibration,0,1,2,500,6,N,1,left,0.36040272400714457,1,0,,,,,,,,,,,,,,,,,,,,,1,,,,,,,,,,,,,,,,,,,,,,,,,,,,,,,,,,,,,,,,,,,,,,95,151711,23,Female,1,2024/03/15_14:24:21,YZ,None,
,,,,,,calibration,0,1,2,500,7,C,0,right,0.5917119179794099,1,0,,,,,,,,,,,,,,,,,,,,,1,,,,,,,,,,,,,,,,,,,,,,,,,,,,,,,,,,,,,,,,,,,,,,95,151711,23,Female,1,2024/03/15_14:24:21,YZ,None,
,,,,,,calibration,0,1,2,500,8,J,0,left,0.6373191640013829,0,0,,,,,,,,,,,,,,,,,,,,,1,,,,,,,,,,,,,,,,,,,,,,,,,,,,,,,,,,,,,,,,,,,,,,95,151711,23,Female,1,2024/03/15_14:24:21,YZ,None,
,,,,,,calibration,0,1,2,500,9,N,0,left,0.571827514009783,0,0,,,,,,,,,,,,,,,,,,,,,1,,,,,,,,,,,,,,,,,,,,,,,,,,,,,,,,,,,,,,,,,,,,,,95,151711,23,Female,1,2024/03/15_14:24:21,YZ,None,
,,,,,,calibration,0,1,2,500,10,C,0,right,0.4449479619797785,1,0,,,,,,,,,,,,,,,,,,,,,1,,,,,,,,,,,,,,,,,,,,,,,,,,,,,,,,,,,,,,,,,,,,,,95,151711,23,Female,1,2024/03/15_14:24:21,YZ,None,
,,,,,,calibration,0,1,2,500,11,Q,0,right,0.5790322789980564,1,0,,,,,,,,,,,,,,,,,,,,,1,,,,,,,,,,,,,,,,,,,,,,,,,,,,,,,,,,,,,,,,,,,,,,95,151711,23,Female,1,2024/03/15_14:24:21,YZ,None,
,,,,,,calibration,0,1,2,500,12,J,0,right,0.7085328949906398,1,0,,,,,,,,,,,,,,,,,,,,,1,,,,,,,,,,,,,,,,,,,,,,,,,,,,,,,,,,,,,,,,,,,,,,95,151711,23,Female,1,2024/03/15_14:24:21,YZ,None,
,,,,,,calibration,0,1,2,500,13,S,0,right,0.49417883600108325,1,0,,,,,,,,,,,,,,,,,,,,,1,,,,,,,,,,,,,,,,,,,,,,,,,,,,,,,,,,,,,,,,,,,,,,95,151711,23,Female,1,2024/03/15_14:24:21,YZ,None,
,,,,,,calibration,0,1,2,500,14,J,1,left,0.6792751520115416,1,0,,,,,,,,,,,,,,,,,,,,,1,,,,,,,,,,,,,,,,,,,,,,,,,,,,,,,,,,,,,,,,,,,,,,95,151711,23,Female,1,2024/03/15_14:24:21,YZ,None,
,,,,,,calibration,0,1,2,500,15,Q,0,left,0.4300066219875589,0,0,,,,,,,,,,,,,,,,,,,,,1,,,,,,,,,,,,,,,,,,,,,,,,,,,,,,,,,,,,,,,,,,,,,,95,151711,23,Female,1,2024/03/15_14:24:21,YZ,None,
,,,,,,calibration,0,1,2,500,16,J,1,right,0.24448560198652558,0,0,,,,,,,,,,,,,,,,,,,,,1,,,,,,,,,,,,,,,,,,,,,,,,,,,,,,,,,,,,,,,,,,,,,,95,151711,23,Female,1,2024/03/15_14:24:21,YZ,None,
,,,,,,calibration,0,1,2,500,,,,,,,,0.8125,0.75,0.25,0.75,0.0,0.75,0.5356400379987463,3,3,0,0,0,9,12,4,12,0,,,,1,,,,,,,,,,,,,,,,,,,,,,,,,,,,,,,,,,,,,,,,,,,,,,95,151711,23,Female,1,2024/03/15_14:24:21,YZ,None,
,,,,,,Calibration,0,,2,500,,,,,,,,,,,,,,,,,,,,,,,,,11,,,1,,,,,,,,,,,,,,,,,,,,,,,,,,,,,,,,,,,,,,,,,,,,,,95,151711,23,Female,1,2024/03/15_14:24:21,YZ,None,
,,,,,,calibration,0,20,2,500,1,Q,0,right,0.4605923679773696,1,0,,,,,,,,,,,,,,,,,,,,,1,,,,,,,,,,,,,,,,,,,,,,,,,,,,,,,,,,,,,,,,,,,,,,95,151711,23,Female,1,2024/03/15_14:24:21,YZ,None,
,,,,,,calibration,0,20,2,500,2,V,0,right,0.42403378599556163,1,0,,,,,,,,,,,,,,,,,,,,,1,,,,,,,,,,,,,,,,,,,,,,,,,,,,,,,,,,,,,,,,,,,,,,95,151711,23,Female,1,2024/03/15_14:24:21,YZ,None,
,,,,,,calibration,0,20,2,500,3,S,0,right,0.5467183779983316,1,0,,,,,,,,,,,,,,,,,,,,,1,,,,,,,,,,,,,,,,,,,,,,,,,,,,,,,,,,,,,,,,,,,,,,95,151711,23,Female,1,2024/03/15_14:24:21,YZ,None,
,,,,,,calibration,0,20,2,500,4,F,0,right,0.42540286798612215,1,0,,,,,,,,,,,,,,,,,,,,,1,,,,,,,,,,,,,,,,,,,,,,,,,,,,,,,,,,,,,,,,,,,,,,95,151711,23,Female,1,2024/03/15_14:24:21,YZ,None,
,,,,,,calibration,0,20,2,500,5,X,0,right,0.48443289299029857,1,0,,,,,,,,,,,,,,,,,,,,,1,,,,,,,,,,,,,,,,,,,,,,,,,,,,,,,,,,,,,,,,,,,,,,95,151711,23,Female,1,2024/03/15_14:24:21,YZ,None,
,,,,,,calibration,0,20,2,500,6,F,1,left,0.48738229801529087,1,0,,,,,,,,,,,,,,,,,,,,,1,,,,,,,,,,,,,,,,,,,,,,,,,,,,,,,,,,,,,,,,,,,,,,95,151711,23,Female,1,2024/03/15_14:24:21,YZ,None,
,,,,,,calibration,0,20,2,500,7,C,0,right,0.561988019006094,1,0,,,,,,,,,,,,,,,,,,,,,1,,,,,,,,,,,,,,,,,,,,,,,,,,,,,,,,,,,,,,,,,,,,,,95,151711,23,Female,1,2024/03/15_14:24:21,YZ,None,
,,,,,,calibration,0,20,2,500,8,V,0,left,0.5124108409800101,0,0,,,,,,,,,,,,,,,,,,,,,1,,,,,,,,,,,,,,,,,,,,,,,,,,,,,,,,,,,,,,,,,,,,,,95,151711,23,Female,1,2024/03/15_14:24:21,YZ,None,
,,,,,,calibration,0,20,2,500,9,C,1,left,0.5307091170107014,1,0,,,,,,,,,,,,,,,,,,,,,1,,,,,,,,,,,,,,,,,,,,,,,,,,,,,,,,,,,,,,,,,,,,,,95,151711,23,Female,1,2024/03/15_14:24:21,YZ,None,
,,,,,,calibration,0,20,2,500,10,V,1,left,0.48199173601460643,1,0,,,,,,,,,,,,,,,,,,,,,1,,,,,,,,,,,,,,,,,,,,,,,,,,,,,,,,,,,,,,,,,,,,,,95,151711,23,Female,1,2024/03/15_14:24:21,YZ,None,
,,,,,,calibration,0,20,2,500,11,N,0,right,0.5508546140044928,1,0,,,,,,,,,,,,,,,,,,,,,1,,,,,,,,,,,,,,,,,,,,,,,,,,,,,,,,,,,,,,,,,,,,,,95,151711,23,Female,1,2024/03/15_14:24:21,YZ,None,
,,,,,,calibration,0,20,2,500,12,V,1,right,0.4776890170178376,0,0,,,,,,,,,,,,,,,,,,,,,1,,,,,,,,,,,,,,,,,,,,,,,,,,,,,,,,,,,,,,,,,,,,,,95,151711,23,Female,1,2024/03/15_14:24:21,YZ,None,
,,,,,,calibration,0,20,2,500,13,C,0,right,0.41521519800880924,1,0,,,,,,,,,,,,,,,,,,,,,1,,,,,,,,,,,,,,,,,,,,,,,,,,,,,,,,,,,,,,,,,,,,,,95,151711,23,Female,1,2024/03/15_14:24:21,YZ,None,
,,,,,,calibration,0,20,2,500,14,S,0,right,0.556433190999087,1,0,,,,,,,,,,,,,,,,,,,,,1,,,,,,,,,,,,,,,,,,,,,,,,,,,,,,,,,,,,,,,,,,,,,,95,151711,23,Female,1,2024/03/15_14:24:21,YZ,None,
,,,,,,calibration,0,20,2,500,15,J,0,right,0.6691629579872824,1,0,,,,,,,,,,,,,,,,,,,,,1,,,,,,,,,,,,,,,,,,,,,,,,,,,,,,,,,,,,,,,,,,,,,,95,151711,23,Female,1,2024/03/15_14:24:21,YZ,None,
,,,,,,calibration,0,20,2,500,16,C,0,right,0.405957030976424,1,0,,,,,,,,,,,,,,,,,,,,,1,,,,,,,,,,,,,,,,,,,,,,,,,,,,,,,,,,,,,,,,,,,,,,95,151711,23,Female,1,2024/03/15_14:24:21,YZ,None,
,,,,,,calibration,0,20,2,500,,,,,,,,0.8958333333333333,0.75,0.08333333333333333,0.9166666666666666,0.0,0.9166666666666666,0.49943589456051996,3,1,0,0,0,11,14,4,12,0,,,,1,,,,,,,,,,,,,,,,,,,,,,,,,,,,,,,,,,,,,,,,,,,,,,95,151711,23,Female,1,2024/03/15_14:24:21,YZ,None,
,,,,,,Calibration,0,,2,500,,,,,,,,,,,,,,,,,,,,,,,,,12,,,1,,,,,,,,,,,,,,,,,,,,,,,,,,,,,,,,,,,,,,,,,,,,,,95,151711,23,Female,1,2024/03/15_14:24:21,YZ,None,
,,,,,,calibration,0,27,2,426,1,J,0,right,0.3200887359853368,1,0,,,,,,,,,,,,,,,,,,,,,1,,,,,,,,,,,,,,,,,,,,,,,,,,,,,,,,,,,,,,,,,,,,,,95,151711,23,Female,1,2024/03/15_14:24:21,YZ,None,
,,,,,,calibration,0,27,2,426,2,X,0,right,0.3775897939922288,1,0,,,,,,,,,,,,,,,,,,,,,1,,,,,,,,,,,,,,,,,,,,,,,,,,,,,,,,,,,,,,,,,,,,,,95,151711,23,Female,1,2024/03/15_14:24:21,YZ,None,
,,,,,,calibration,0,27,2,426,3,N,0,right,0.4803426309954375,1,0,,,,,,,,,,,,,,,,,,,,,1,,,,,,,,,,,,,,,,,,,,,,,,,,,,,,,,,,,,,,,,,,,,,,95,151711,23,Female,1,2024/03/15_14:24:21,YZ,None,
,,,,,,calibration,0,27,2,426,4,J,0,left,0.4758364250010345,0,0,,,,,,,,,,,,,,,,,,,,,1,,,,,,,,,,,,,,,,,,,,,,,,,,,,,,,,,,,,,,,,,,,,,,95,151711,23,Female,1,2024/03/15_14:24:21,YZ,None,
,,,,,,calibration,0,27,2,426,5,N,1,right,0.47662078999564983,0,0,,,,,,,,,,,,,,,,,,,,,1,,,,,,,,,,,,,,,,,,,,,,,,,,,,,,,,,,,,,,,,,,,,,,95,151711,23,Female,1,2024/03/15_14:24:21,YZ,None,
,,,,,,calibration,0,27,2,426,6,X,0,right,0.5806043220218271,1,0,,,,,,,,,,,,,,,,,,,,,1,,,,,,,,,,,,,,,,,,,,,,,,,,,,,,,,,,,,,,,,,,,,,,95,151711,23,Female,1,2024/03/15_14:24:21,YZ,None,
,,,,,,calibration,0,27,2,426,7,N,1,left,0.615705064003123,1,0,,,,,,,,,,,,,,,,,,,,,1,,,,,,,,,,,,,,,,,,,,,,,,,,,,,,,,,,,,,,,,,,,,,,95,151711,23,Female,1,2024/03/15_14:24:21,YZ,None,
,,,,,,calibration,0,27,2,426,8,S,0,right,0.6416289919870906,1,0,,,,,,,,,,,,,,,,,,,,,1,,,,,,,,,,,,,,,,,,,,,,,,,,,,,,,,,,,,,,,,,,,,,,95,151711,23,Female,1,2024/03/15_14:24:21,YZ,None,
,,,,,,calibration,0,27,2,426,9,C,0,left,0.5268806180101819,0,0,,,,,,,,,,,,,,,,,,,,,1,,,,,,,,,,,,,,,,,,,,,,,,,,,,,,,,,,,,,,,,,,,,,,95,151711,23,Female,1,2024/03/15_14:24:21,YZ,None,
,,,,,,calibration,0,27,2,426,10,S,1,right,0.41024695700616576,0,0,,,,,,,,,,,,,,,,,,,,,1,,,,,,,,,,,,,,,,,,,,,,,,,,,,,,,,,,,,,,,,,,,,,,95,151711,23,Female,1,2024/03/15_14:24:21,YZ,None,
,,,,,,calibration,0,27,2,426,11,Q,0,right,0.5738500360166654,1,0,,,,,,,,,,,,,,,,,,,,,1,,,,,,,,,,,,,,,,,,,,,,,,,,,,,,,,,,,,,,,,,,,,,,95,151711,23,Female,1,2024/03/15_14:24:21,YZ,None,
,,,,,,calibration,0,27,2,426,12,N,0,right,0.5564941150078084,1,0,,,,,,,,,,,,,,,,,,,,,1,,,,,,,,,,,,,,,,,,,,,,,,,,,,,,,,,,,,,,,,,,,,,,95,151711,23,Female,1,2024/03/15_14:24:21,YZ,None,
,,,,,,calibration,0,27,2,426,13,V,0,left,0.6187617859977763,0,0,,,,,,,,,,,,,,,,,,,,,1,,,,,,,,,,,,,,,,,,,,,,,,,,,,,,,,,,,,,,,,,,,,,,95,151711,23,Female,1,2024/03/15_14:24:21,YZ,None,
,,,,,,calibration,0,27,2,426,14,N,1,left,0.6925984240078833,1,0,,,,,,,,,,,,,,,,,,,,,1,,,,,,,,,,,,,,,,,,,,,,,,,,,,,,,,,,,,,,,,,,,,,,95,151711,23,Female,1,2024/03/15_14:24:21,YZ,None,
,,,,,,calibration,0,27,2,426,15,Q,0,right,0.46617175498977304,1,0,,,,,,,,,,,,,,,,,,,,,1,,,,,,,,,,,,,,,,,,,,,,,,,,,,,,,,,,,,,,,,,,,,,,95,151711,23,Female,1,2024/03/15_14:24:21,YZ,None,
,,,,,,calibration,0,27,2,426,16,X,0,right,0.9991092220006976,1,0,,,,,,,,,,,,,,,,,,,,,1,,,,,,,,,,,,,,,,,,,,,,,,,,,,,,,,,,,,,,,,,,,,,,95,151711,23,Female,1,2024/03/15_14:24:21,YZ,None,
,,,,,,calibration,0,27,2,426,17,Q,1,left,0.5121250090014655,1,0,,,,,,,,,,,,,,,,,,,,,1,,,,,,,,,,,,,,,,,,,,,,,,,,,,,,,,,,,,,,,,,,,,,,95,151711,23,Female,1,2024/03/15_14:24:21,YZ,None,
,,,,,,calibration,0,27,2,426,,,,,,,,0.7375,0.6,0.25,0.75,0.0,0.75,0.5485090985894203,3,3,0,0,0,9,12,5,12,0,,,,1,,,,,,,,,,,,,,,,,,,,,,,,,,,,,,,,,,,,,,,,,,,,,,95,151711,23,Female,1,2024/03/15_14:24:21,YZ,None,
,,,,,,Calibration,0,,2,426,,,,,,,,,,,,,,,,,,,,,,,,,13,,,1,,,,,,,,,,,,,,,,,,,,,,,,,,,,,,,,,,,,,,,,,,,,,,95,151711,23,Female,1,2024/03/15_14:24:21,YZ,None,
,,,,,,calibration,0,8,2,500,1,C,0,right,0.3346076309971977,1,0,,,,,,,,,,,,,,,,,,,,,1,,,,,,,,,,,,,,,,,,,,,,,,,,,,,,,,,,,,,,,,,,,,,,95,151711,23,Female,1,2024/03/15_14:24:21,YZ,None,
,,,,,,calibration,0,8,2,500,2,X,0,right,0.428411392000271,1,0,,,,,,,,,,,,,,,,,,,,,1,,,,,,,,,,,,,,,,,,,,,,,,,,,,,,,,,,,,,,,,,,,,,,95,151711,23,Female,1,2024/03/15_14:24:21,YZ,None,
,,,,,,calibration,0,8,2,500,3,V,0,right,0.5124681690067519,1,0,,,,,,,,,,,,,,,,,,,,,1,,,,,,,,,,,,,,,,,,,,,,,,,,,,,,,,,,,,,,,,,,,,,,95,151711,23,Female,1,2024/03/15_14:24:21,YZ,None,
,,,,,,calibration,0,8,2,500,4,Q,0,right,0.5910856609989423,1,0,,,,,,,,,,,,,,,,,,,,,1,,,,,,,,,,,,,,,,,,,,,,,,,,,,,,,,,,,,,,,,,,,,,,95,151711,23,Female,1,2024/03/15_14:24:21,YZ,None,
,,,,,,calibration,0,8,2,500,5,V,1,left,0.6208383000048343,1,0,,,,,,,,,,,,,,,,,,,,,1,,,,,,,,,,,,,,,,,,,,,,,,,,,,,,,,,,,,,,,,,,,,,,95,151711,23,Female,1,2024/03/15_14:24:21,YZ,None,
,,,,,,calibration,0,8,2,500,6,X,0,left,0.7729886640154291,0,0,,,,,,,,,,,,,,,,,,,,,1,,,,,,,,,,,,,,,,,,,,,,,,,,,,,,,,,,,,,,,,,,,,,,95,151711,23,Female,1,2024/03/15_14:24:21,YZ,None,
,,,,,,calibration,0,8,2,500,7,V,1,right,0.3901630769832991,0,0,,,,,,,,,,,,,,,,,,,,,1,,,,,,,,,,,,,,,,,,,,,,,,,,,,,,,,,,,,,,,,,,,,,,95,151711,23,Female,1,2024/03/15_14:24:21,YZ,None,
,,,,,,calibration,0,8,2,500,8,Q,0,right,0.57780129899038,1,0,,,,,,,,,,,,,,,,,,,,,1,,,,,,,,,,,,,,,,,,,,,,,,,,,,,,,,,,,,,,,,,,,,,,95,151711,23,Female,1,2024/03/15_14:24:21,YZ,None,
,,,,,,calibration,0,8,2,500,9,V,1,left,0.3294354480167385,1,0,,,,,,,,,,,,,,,,,,,,,1,,,,,,,,,,,,,,,,,,,,,,,,,,,,,,,,,,,,,,,,,,,,,,95,151711,23,Female,1,2024/03/15_14:24:21,YZ,None,
,,,,,,calibration,0,8,2,500,10,S,0,right,0.3136661789903883,1,0,,,,,,,,,,,,,,,,,,,,,1,,,,,,,,,,,,,,,,,,,,,,,,,,,,,,,,,,,,,,,,,,,,,,95,151711,23,Female,1,2024/03/15_14:24:21,YZ,None,
,,,,,,calibration,0,8,2,500,11,N,0,right,0.25521222001407295,1,0,,,,,,,,,,,,,,,,,,,,,1,,,,,,,,,,,,,,,,,,,,,,,,,,,,,,,,,,,,,,,,,,,,,,95,151711,23,Female,1,2024/03/15_14:24:21,YZ,None,
,,,,,,calibration,0,8,2,500,12,S,1,left,0.37621124600991607,1,0,,,,,,,,,,,,,,,,,,,,,1,,,,,,,,,,,,,,,,,,,,,,,,,,,,,,,,,,,,,,,,,,,,,,95,151711,23,Female,1,2024/03/15_14:24:21,YZ,None,
,,,,,,calibration,0,8,2,500,13,Q,0,right,0.4011735789827071,1,0,,,,,,,,,,,,,,,,,,,,,1,,,,,,,,,,,,,,,,,,,,,,,,,,,,,,,,,,,,,,,,,,,,,,95,151711,23,Female,1,2024/03/15_14:24:21,YZ,None,
,,,,,,calibration,0,8,2,500,14,J,0,right,0.40620471999864094,1,0,,,,,,,,,,,,,,,,,,,,,1,,,,,,,,,,,,,,,,,,,,,,,,,,,,,,,,,,,,,,,,,,,,,,95,151711,23,Female,1,2024/03/15_14:24:21,YZ,None,
,,,,,,calibration,0,8,2,500,15,Q,1,left,0.4955575240019243,1,0,,,,,,,,,,,,,,,,,,,,,1,,,,,,,,,,,,,,,,,,,,,,,,,,,,,,,,,,,,,,,,,,,,,,95,151711,23,Female,1,2024/03/15_14:24:21,YZ,None,
,,,,,,calibration,0,8,2,500,16,N,0,right,0.6930504830088466,1,0,,,,,,,,,,,,,,,,,,,,,1,,,,,,,,,,,,,,,,,,,,,,,,,,,,,,,,,,,,,,,,,,,,,,95,151711,23,Female,1,2024/03/15_14:24:21,YZ,None,
,,,,,,calibration,0,8,2,500,,,,,,,,0.9090909090909091,0.8,0.09090909090909091,0.9090909090909091,0.0,0.9090909090909091,0.46867972450127127,4,1,0,0,0,10,14,5,11,0,,,,1,,,,,,,,,,,,,,,,,,,,,,,,,,,,,,,,,,,,,,,,,,,,,,95,151711,23,Female,1,2024/03/15_14:24:21,YZ,None,
,,,,,,Calibration,0,,2,500,,,,,,,,,,,,,,,,,,,,,,,,,14,,,1,,,,,,,,,,,,,,,,,,,,,,,,,,,,,,,,,,,,,,,,,,,,,,95,151711,23,Female,1,2024/03/15_14:24:21,YZ,None,
,,,,,,calibration,0,20,2,426,1,C,0,right,0.34286617900943384,1,0,,,,,,,,,,,,,,,,,,,,,1,,,,,,,,,,,,,,,,,,,,,,,,,,,,,,,,,,,,,,,,,,,,,,95,151711,23,Female,1,2024/03/15_14:24:21,YZ,None,
,,,,,,calibration,0,20,2,426,2,X,0,right,0.2318915409850888,1,0,,,,,,,,,,,,,,,,,,,,,1,,,,,,,,,,,,,,,,,,,,,,,,,,,,,,,,,,,,,,,,,,,,,,95,151711,23,Female,1,2024/03/15_14:24:21,YZ,None,
,,,,,,calibration,0,20,2,426,3,V,0,right,0.3873351950023789,1,0,,,,,,,,,,,,,,,,,,,,,1,,,,,,,,,,,,,,,,,,,,,,,,,,,,,,,,,,,,,,,,,,,,,,95,151711,23,Female,1,2024/03/15_14:24:21,YZ,None,
,,,,,,calibration,0,20,2,426,4,X,1,left,0.564856185024837,1,0,,,,,,,,,,,,,,,,,,,,,1,,,,,,,,,,,,,,,,,,,,,,,,,,,,,,,,,,,,,,,,,,,,,,95,151711,23,Female,1,2024/03/15_14:24:21,YZ,None,
,,,,,,calibration,0,20,2,426,5,F,0,right,0.45308761097840033,1,0,,,,,,,,,,,,,,,,,,,,,1,,,,,,,,,,,,,,,,,,,,,,,,,,,,,,,,,,,,,,,,,,,,,,95,151711,23,Female,1,2024/03/15_14:24:21,YZ,None,
,,,,,,calibration,0,20,2,426,6,X,1,left,0.5845545750053134,1,0,,,,,,,,,,,,,,,,,,,,,1,,,,,,,,,,,,,,,,,,,,,,,,,,,,,,,,,,,,,,,,,,,,,,95,151711,23,Female,1,2024/03/15_14:24:21,YZ,None,
,,,,,,calibration,0,20,2,426,7,J,0,right,0.4371665790094994,1,0,,,,,,,,,,,,,,,,,,,,,1,,,,,,,,,,,,,,,,,,,,,,,,,,,,,,,,,,,,,,,,,,,,,,95,151711,23,Female,1,2024/03/15_14:24:21,YZ,None,
,,,,,,calibration,0,20,2,426,8,X,1,left,0.6926671729888767,1,0,,,,,,,,,,,,,,,,,,,,,1,,,,,,,,,,,,,,,,,,,,,,,,,,,,,,,,,,,,,,,,,,,,,,95,151711,23,Female,1,2024/03/15_14:24:21,YZ,None,
,,,,,,calibration,0,20,2,426,9,F,0,right,0.3604566470021382,1,0,,,,,,,,,,,,,,,,,,,,,1,,,,,,,,,,,,,,,,,,,,,,,,,,,,,,,,,,,,,,,,,,,,,,95,151711,23,Female,1,2024/03/15_14:24:21,YZ,None,
,,,,,,calibration,0,20,2,426,10,J,0,left,0.6639069999800995,0,0,,,,,,,,,,,,,,,,,,,,,1,,,,,,,,,,,,,,,,,,,,,,,,,,,,,,,,,,,,,,,,,,,,,,95,151711,23,Female,1,2024/03/15_14:24:21,YZ,None,
,,,,,,calibration,0,20,2,426,11,Q,0,right,0.36086317998706363,1,0,,,,,,,,,,,,,,,,,,,,,1,,,,,,,,,,,,,,,,,,,,,,,,,,,,,,,,,,,,,,,,,,,,,,95,151711,23,Female,1,2024/03/15_14:24:21,YZ,None,
,,,,,,calibration,0,20,2,426,12,X,0,left,0.47661286999937147,0,0,,,,,,,,,,,,,,,,,,,,,1,,,,,,,,,,,,,,,,,,,,,,,,,,,,,,,,,,,,,,,,,,,,,,95,151711,23,Female,1,2024/03/15_14:24:21,YZ,None,
,,,,,,calibration,0,20,2,426,13,Q,1,right,0.34847825000179,0,0,,,,,,,,,,,,,,,,,,,,,1,,,,,,,,,,,,,,,,,,,,,,,,,,,,,,,,,,,,,,,,,,,,,,95,151711,23,Female,1,2024/03/15_14:24:21,YZ,None,
,,,,,,calibration,0,20,2,426,14,X,1,left,0.0,1,0,,,,,,,,,,,,,,,,,,,,,1,,,,,,,,,,,,,,,,,,,,,,,,,,,,,,,,,,,,,,,,,,,,,,95,151711,23,Female,1,2024/03/15_14:24:21,YZ,None,
,,,,,,calibration,0,20,2,426,15,F,0,right,0.32253150301403366,1,0,,,,,,,,,,,,,,,,,,,,,1,,,,,,,,,,,,,,,,,,,,,,,,,,,,,,,,,,,,,,,,,,,,,,95,151711,23,Female,1,2024/03/15_14:24:21,YZ,None,
,,,,,,calibration,0,20,2,426,16,Q,0,right,0.6825868950108998,1,0,,,,,,,,,,,,,,,,,,,,,1,,,,,,,,,,,,,,,,,,,,,,,,,,,,,,,,,,,,,,,,,,,,,,95,151711,23,Female,1,2024/03/15_14:24:21,YZ,None,
,,,,,,calibration,0,20,2,426,17,N,0,left,0.541957735986216,0,0,,,,,,,,,,,,,,,,,,,,,1,,,,,,,,,,,,,,,,,,,,,,,,,,,,,,,,,,,,,,,,,,,,,,95,151711,23,Female,1,2024/03/15_14:24:21,YZ,None,
,,,,,,calibration,0,20,2,426,,,,,,,,0.8374999999999999,0.8,0.25,0.75,0.0,0.75,0.4383423011167906,4,3,0,0,0,9,13,5,12,0,,,,1,,,,,,,,,,,,,,,,,,,,,,,,,,,,,,,,,,,,,,,,,,,,,,95,151711,23,Female,1,2024/03/15_14:24:21,YZ,None,
,,,,,,Calibration,0,,2,426,,,,,,,,,,,,,,,,,,,,,,,,,15,,,1,,,,,,,,,,,,,,,,,,,,,,,,,,,,,,,,,,,,,,,,,,,,,,95,151711,23,Female,1,2024/03/15_14:24:21,YZ,None,
,,,,,,CALIBRATION,0,,,,,,,,,,,,,,,,,,,,,,,,,,,,15,0.8374999999999999,426,1,,,,,,,,,,,,,,,,,,,,,,,,,,,,,,,,,,,,,,,,,,,,,,95,151711,23,Female,1,2024/03/15_14:24:21,YZ,None,
1,./instructions/inst_prac_1/Slide24.png,right,19.077782300999388,498.1809288110235,517.2587111120229,,,,,,,,,,,,,,,,,,,,,,,,,,,,,,,,,1,,,,,,,,,,,,,,,,,,,,,,,,,,,,,,,,,,,,,,,,,,,,,,95,151711,23,Female,1,2024/03/15_14:24:21,YZ,None,
2,./instructions/inst_prac_1/Slide25.png,right,2.794718463992467,517.2881807940139,520.0828992580064,,,,,,,,,,,,,,,,,,,,,,,,,,,,,,,,,1,,,,,,,,,,,,,,,,,,,,,,,,,,,,,,,,,,,,,,,,,,,,,,95,151711,23,Female,1,2024/03/15_14:24:21,YZ,None,
3,./instructions/inst_prac_1/Slide26.png,right,0.7065052559773903,520.1124194350268,520.8189246910042,,,,,,,,,,,,,,,,,,,,,,,,,,,,,,,,,1,,,,,,,,,,,,,,,,,,,,,,,,,,,,,,,,,,,,,,,,,,,,,,95,151711,23,Female,1,2024/03/15_14:24:21,YZ,None,
4,./instructions/inst_prac_1/Slide27.png,right,0.6111635899869725,520.8477996750153,521.4589632650022,,,,,,,,,,,,,,,,,,,,,,,,,,,,,,,,,1,,,,,,,,,,,,,,,,,,,,,,,,,,,,,,,,,,,,,,,,,,,,,,95,151711,23,Female,1,2024/03/15_14:24:21,YZ,None,
5,./instructions/inst_prac_1/Slide28.png,right,0.5182781479961704,521.4845945490233,522.0028726970195,,,,,,,,,,,,,,,,,,,,,,,,,,,,,,,,,1,,,,,,,,,,,,,,,,,,,,,,,,,,,,,,,,,,,,,,,,,,,,,,95,151711,23,Female,1,2024/03/15_14:24:21,YZ,None,
6,./instructions/inst_prac_1/Slide29.png,right,10.7227509880031,522.0321179390012,532.7548689270043,,,,,,,,,,,,,,,,,,,,,,,,,,,,,,,,,1,,,,,,,,,,,,,,,,,,,,,,,,,,,,,,,,,,,,,,,,,,,,,,95,151711,23,Female,1,2024/03/15_14:24:21,YZ,None,
7,./instructions/inst_prac_1/Slide30.png,right,3.2903329449763987,532.7845646760252,536.0748976210016,,,,,,,,,,,,,,,,,,,,,,,,,,,,,,,,,1,,,,,,,,,,,,,,,,,,,,,,,,,,,,,,,,,,,,,,,,,,,,,,95,151711,23,Female,1,2024/03/15_14:24:21,YZ,None,
,,,,,,practice,0,5,1,1250,1,C,0,right,0.8981010319839697,1,0,,,,,,,,,,,,,,,,,,,,,1,,,,,,,,,,,,,,,,,,,,,,,,,,,,,,,,,,,,,,,,,,,,,,95,151711,23,Female,1,2024/03/15_14:24:21,YZ,None,
,,,,,,practice,0,5,1,1250,2,V,0,right,1.1153738540015183,1,0,,,,,,,,,,,,,,,,,,,,,1,,,,,,,,,,,,,,,,,,,,,,,,,,,,,,,,,,,,,,,,,,,,,,95,151711,23,Female,1,2024/03/15_14:24:21,YZ,None,
,,,,,,practice,0,5,1,1250,3,Q,0,right,0.5563617440056987,1,0,,,,,,,,,,,,,,,,,,,,,1,,,,,,,,,,,,,,,,,,,,,,,,,,,,,,,,,,,,,,,,,,,,,,95,151711,23,Female,1,2024/03/15_14:24:21,YZ,None,
,,,,,,practice,0,5,1,1250,4,J,0,right,0.5041507389978506,1,0,,,,,,,,,,,,,,,,,,,,,1,,,,,,,,,,,,,,,,,,,,,,,,,,,,,,,,,,,,,,,,,,,,,,95,151711,23,Female,1,2024/03/15_14:24:21,YZ,None,
,,,,,,practice,0,5,1,1250,5,J,1,left,0.4736797179793939,1,0,,,,,,,,,,,,,,,,,,,,,1,,,,,,,,,,,,,,,,,,,,,,,,,,,,,,,,,,,,,,,,,,,,,,95,151711,23,Female,1,2024/03/15_14:24:21,YZ,None,
,,,,,,practice,0,5,1,1250,6,Q,0,right,0.8066305789980106,1,0,,,,,,,,,,,,,,,,,,,,,1,,,,,,,,,,,,,,,,,,,,,,,,,,,,,,,,,,,,,,,,,,,,,,95,151711,23,Female,1,2024/03/15_14:24:21,YZ,None,
,,,,,,practice,0,5,1,1250,7,Q,1,left,0.9880975010164548,1,0,,,,,,,,,,,,,,,,,,,,,1,,,,,,,,,,,,,,,,,,,,,,,,,,,,,,,,,,,,,,,,,,,,,,95,151711,23,Female,1,2024/03/15_14:24:21,YZ,None,
,,,,,,practice,0,5,1,1250,8,C,0,right,0.7527537220157683,1,0,,,,,,,,,,,,,,,,,,,,,1,,,,,,,,,,,,,,,,,,,,,,,,,,,,,,,,,,,,,,,,,,,,,,95,151711,23,Female,1,2024/03/15_14:24:21,YZ,None,
,,,,,,practice,0,5,1,1250,9,N,0,right,1.0607508599932771,1,0,,,,,,,,,,,,,,,,,,,,,1,,,,,,,,,,,,,,,,,,,,,,,,,,,,,,,,,,,,,,,,,,,,,,95,151711,23,Female,1,2024/03/15_14:24:21,YZ,None,
,,,,,,practice,0,5,1,1250,10,N,1,left,0.5961087059986312,1,0,,,,,,,,,,,,,,,,,,,,,1,,,,,,,,,,,,,,,,,,,,,,,,,,,,,,,,,,,,,,,,,,,,,,95,151711,23,Female,1,2024/03/15_14:24:21,YZ,None,
,,,,,,practice,0,5,1,1250,,,,,,,,1.0,1.0,0.0,1.0,0.0,1.0,0.7752008454990573,3,0,0,0,0,7,10,3,7,0,,,,1,,,,,,,,,,,,,,,,,,,,,,,,,,,,,,,,,,,,,,,,,,,,,,95,151711,23,Female,1,2024/03/15_14:24:21,YZ,None,
1,./instructions/inst_prac_1_next/Slide35.png,right,15.148867295996752,554.3582375640108,569.5071048600075,,,,,,,,,,,,,,,,,,,,,,,,,,,,,,,,,1,,,,,,,,,,,,,,,,,,,,,,,,,,,,,,,,,,,,,,,,,,,,,,95,151711,23,Female,1,2024/03/15_14:24:21,YZ,None,
,,,,,,practice,0,10,1,426,1,J,0,right,0.3552986560098361,1,0,,,,,,,,,,,,,,,,,,,,,1,,,,,,,,,,,,,,,,,,,,,,,,,,,,,,,,,,,,,,,,,,,,,,95,151711,23,Female,1,2024/03/15_14:24:21,YZ,None,
,,,,,,practice,0,10,1,426,2,J,1,right,0.368784357997356,0,0,,,,,,,,,,,,,,,,,,,,,1,,,,,,,,,,,,,,,,,,,,,,,,,,,,,,,,,,,,,,,,,,,,,,95,151711,23,Female,1,2024/03/15_14:24:21,YZ,None,
,,,,,,practice,0,10,1,426,3,Q,0,right,0.7039313929853961,1,0,,,,,,,,,,,,,,,,,,,,,1,,,,,,,,,,,,,,,,,,,,,,,,,,,,,,,,,,,,,,,,,,,,,,95,151711,23,Female,1,2024/03/15_14:24:21,YZ,None,
,,,,,,practice,0,10,1,426,4,V,0,right,0.6020132160047069,1,0,,,,,,,,,,,,,,,,,,,,,1,,,,,,,,,,,,,,,,,,,,,,,,,,,,,,,,,,,,,,,,,,,,,,95,151711,23,Female,1,2024/03/15_14:24:21,YZ,None,
,,,,,,practice,0,10,1,426,5,S,0,right,0.5161095099756494,1,0,,,,,,,,,,,,,,,,,,,,,1,,,,,,,,,,,,,,,,,,,,,,,,,,,,,,,,,,,,,,,,,,,,,,95,151711,23,Female,1,2024/03/15_14:24:21,YZ,None,
,,,,,,practice,0,10,1,426,6,X,0,right,0.6822643560008146,1,0,,,,,,,,,,,,,,,,,,,,,1,,,,,,,,,,,,,,,,,,,,,,,,,,,,,,,,,,,,,,,,,,,,,,95,151711,23,Female,1,2024/03/15_14:24:21,YZ,None,
,,,,,,practice,0,10,1,426,7,S,0,right,0.616696510987822,1,0,,,,,,,,,,,,,,,,,,,,,1,,,,,,,,,,,,,,,,,,,,,,,,,,,,,,,,,,,,,,,,,,,,,,95,151711,23,Female,1,2024/03/15_14:24:21,YZ,None,
,,,,,,practice,0,10,1,426,8,X,0,right,0.6738646489975508,1,0,,,,,,,,,,,,,,,,,,,,,1,,,,,,,,,,,,,,,,,,,,,,,,,,,,,,,,,,,,,,,,,,,,,,95,151711,23,Female,1,2024/03/15_14:24:21,YZ,None,
,,,,,,practice,0,10,1,426,9,X,1,left,0.6187404619995505,1,0,,,,,,,,,,,,,,,,,,,,,1,,,,,,,,,,,,,,,,,,,,,,,,,,,,,,,,,,,,,,,,,,,,,,95,151711,23,Female,1,2024/03/15_14:24:21,YZ,None,
,,,,,,practice,0,10,1,426,10,F,0,right,0.5132142200018279,1,0,,,,,,,,,,,,,,,,,,,,,1,,,,,,,,,,,,,,,,,,,,,,,,,,,,,,,,,,,,,,,,,,,,,,95,151711,23,Female,1,2024/03/15_14:24:21,YZ,None,
,,,,,,practice,0,10,1,426,11,Q,0,right,0.7401178200088907,1,0,,,,,,,,,,,,,,,,,,,,,1,,,,,,,,,,,,,,,,,,,,,,,,,,,,,,,,,,,,,,,,,,,,,,95,151711,23,Female,1,2024/03/15_14:24:21,YZ,None,
,,,,,,practice,0,10,1,426,12,Q,1,left,0.6287857200077269,1,0,,,,,,,,,,,,,,,,,,,,,1,,,,,,,,,,,,,,,,,,,,,,,,,,,,,,,,,,,,,,,,,,,,,,95,151711,23,Female,1,2024/03/15_14:24:21,YZ,None,
,,,,,,practice,0,10,1,426,13,J,0,right,0.5404560710012447,1,0,,,,,,,,,,,,,,,,,,,,,1,,,,,,,,,,,,,,,,,,,,,,,,,,,,,,,,,,,,,,,,,,,,,,95,151711,23,Female,1,2024/03/15_14:24:21,YZ,None,
,,,,,,practice,0,10,1,426,14,J,1,left,0.37752372899558395,1,0,,,,,,,,,,,,,,,,,,,,,1,,,,,,,,,,,,,,,,,,,,,,,,,,,,,,,,,,,,,,,,,,,,,,95,151711,23,Female,1,2024/03/15_14:24:21,YZ,None,
,,,,,,practice,0,10,1,426,15,Q,0,right,0.5403388409758918,1,0,,,,,,,,,,,,,,,,,,,,,1,,,,,,,,,,,,,,,,,,,,,,,,,,,,,,,,,,,,,,,,,,,,,,95,151711,23,Female,1,2024/03/15_14:24:21,YZ,None,
,,,,,,practice,0,10,1,426,16,N,0,right,0.5452913760091178,1,0,,,,,,,,,,,,,,,,,,,,,1,,,,,,,,,,,,,,,,,,,,,,,,,,,,,,,,,,,,,,,,,,,,,,95,151711,23,Female,1,2024/03/15_14:24:21,YZ,None,
,,,,,,practice,0,10,1,426,17,N,1,left,0.46037533300113864,1,0,,,,,,,,,,,,,,,,,,,,,1,,,,,,,,,,,,,,,,,,,,,,,,,,,,,,,,,,,,,,,,,,,,,,95,151711,23,Female,1,2024/03/15_14:24:21,YZ,None,
,,,,,,practice,0,10,1,426,,,,,,,,0.95,0.8,0.0,1.0,0.0,1.0,0.5578709541741238,4,0,0,0,0,12,16,5,12,0,,,,1,,,,,,,,,,,,,,,,,,,,,,,,,,,,,,,,,,,,,,,,,,,,,,95,151711,23,Female,1,2024/03/15_14:24:21,YZ,None,
,,,,,,practice,0,25,1,426,1,S,0,right,0.4392206349875778,1,0,,,,,,,,,,,,,,,,,,,,,1,,,,,,,,,,,,,,,,,,,,,,,,,,,,,,,,,,,,,,,,,,,,,,95,151711,23,Female,1,2024/03/15_14:24:21,YZ,None,
,,,,,,practice,0,25,1,426,2,V,0,right,0.5850699949951377,1,0,,,,,,,,,,,,,,,,,,,,,1,,,,,,,,,,,,,,,,,,,,,,,,,,,,,,,,,,,,,,,,,,,,,,95,151711,23,Female,1,2024/03/15_14:24:21,YZ,None,
,,,,,,practice,0,25,1,426,3,C,0,right,0.5196930620004423,1,0,,,,,,,,,,,,,,,,,,,,,1,,,,,,,,,,,,,,,,,,,,,,,,,,,,,,,,,,,,,,,,,,,,,,95,151711,23,Female,1,2024/03/15_14:24:21,YZ,None,
,,,,,,practice,0,25,1,426,4,C,1,left,0.3291549599962309,1,0,,,,,,,,,,,,,,,,,,,,,1,,,,,,,,,,,,,,,,,,,,,,,,,,,,,,,,,,,,,,,,,,,,,,95,151711,23,Female,1,2024/03/15_14:24:21,YZ,None,
,,,,,,practice,0,25,1,426,5,F,0,right,0.48762196200550534,1,0,,,,,,,,,,,,,,,,,,,,,1,,,,,,,,,,,,,,,,,,,,,,,,,,,,,,,,,,,,,,,,,,,,,,95,151711,23,Female,1,2024/03/15_14:24:21,YZ,None,
,,,,,,practice,0,25,1,426,6,V,0,right,0.42426806199364364,1,0,,,,,,,,,,,,,,,,,,,,,1,,,,,,,,,,,,,,,,,,,,,,,,,,,,,,,,,,,,,,,,,,,,,,95,151711,23,Female,1,2024/03/15_14:24:21,YZ,None,
,,,,,,practice,0,25,1,426,7,N,0,right,0.7357738760183565,1,0,,,,,,,,,,,,,,,,,,,,,1,,,,,,,,,,,,,,,,,,,,,,,,,,,,,,,,,,,,,,,,,,,,,,95,151711,23,Female,1,2024/03/15_14:24:21,YZ,None,
,,,,,,practice,0,25,1,426,8,J,0,right,0.5436594359925948,1,0,,,,,,,,,,,,,,,,,,,,,1,,,,,,,,,,,,,,,,,,,,,,,,,,,,,,,,,,,,,,,,,,,,,,95,151711,23,Female,1,2024/03/15_14:24:21,YZ,None,
,,,,,,practice,0,25,1,426,9,J,1,left,0.5200976910127793,1,0,,,,,,,,,,,,,,,,,,,,,1,,,,,,,,,,,,,,,,,,,,,,,,,,,,,,,,,,,,,,,,,,,,,,95,151711,23,Female,1,2024/03/15_14:24:21,YZ,None,
,,,,,,practice,0,25,1,426,10,V,0,right,0.46370685001602396,1,0,,,,,,,,,,,,,,,,,,,,,1,,,,,,,,,,,,,,,,,,,,,,,,,,,,,,,,,,,,,,,,,,,,,,95,151711,23,Female,1,2024/03/15_14:24:21,YZ,None,
,,,,,,practice,0,25,1,426,11,Q,0,left,0.3801689899992198,0,0,,,,,,,,,,,,,,,,,,,,,1,,,,,,,,,,,,,,,,,,,,,,,,,,,,,,,,,,,,,,,,,,,,,,95,151711,23,Female,1,2024/03/15_14:24:21,YZ,None,
,,,,,,practice,0,25,1,426,12,S,0,right,0.38068509500590153,1,0,,,,,,,,,,,,,,,,,,,,,1,,,,,,,,,,,,,,,,,,,,,,,,,,,,,,,,,,,,,,,,,,,,,,95,151711,23,Female,1,2024/03/15_14:24:21,YZ,None,
,,,,,,practice,0,25,1,426,13,S,1,right,0.4156923989939969,0,0,,,,,,,,,,,,,,,,,,,,,1,,,,,,,,,,,,,,,,,,,,,,,,,,,,,,,,,,,,,,,,,,,,,,95,151711,23,Female,1,2024/03/15_14:24:21,YZ,None,
,,,,,,practice,0,25,1,426,14,Q,0,right,0.5244529399788007,1,0,,,,,,,,,,,,,,,,,,,,,1,,,,,,,,,,,,,,,,,,,,,,,,,,,,,,,,,,,,,,,,,,,,,,95,151711,23,Female,1,2024/03/15_14:24:21,YZ,None,
,,,,,,practice,0,25,1,426,15,Q,1,left,0.5287941120041069,1,0,,,,,,,,,,,,,,,,,,,,,1,,,,,,,,,,,,,,,,,,,,,,,,,,,,,,,,,,,,,,,,,,,,,,95,151711,23,Female,1,2024/03/15_14:24:21,YZ,None,
,,,,,,practice,0,25,1,426,16,J,0,right,0.34787201101426035,1,0,,,,,,,,,,,,,,,,,,,,,1,,,,,,,,,,,,,,,,,,,,,,,,,,,,,,,,,,,,,,,,,,,,,,95,151711,23,Female,1,2024/03/15_14:24:21,YZ,None,
,,,,,,practice,0,25,1,426,17,J,1,left,0.5118576160166413,1,0,,,,,,,,,,,,,,,,,,,,,1,,,,,,,,,,,,,,,,,,,,,,,,,,,,,,,,,,,,,,,,,,,,,,95,151711,23,Female,1,2024/03/15_14:24:21,YZ,None,
,,,,,,practice,0,25,1,426,,,,,,,,0.9125000000000001,0.8,0.08333333333333333,0.9166666666666666,0.0,0.9166666666666666,0.4786935112959541,4,1,0,0,0,11,15,5,12,0,,,,1,,,,,,,,,,,,,,,,,,,,,,,,,,,,,,,,,,,,,,,,,,,,,,95,151711,23,Female,1,2024/03/15_14:24:21,YZ,None,
1,./instructions/inst_prac_3/Slide37.png,right,21.801341595011763,609.0975959440111,630.8989375390229,,,,,,,,,,,,,,,,,,,,,,,,,,,,,,,,,1,,,,,,,,,,,,,,,,,,,,,,,,,,,,,,,,,,,,,,,,,,,,,,95,151711,23,Female,1,2024/03/15_14:24:21,YZ,None,
2,./instructions/inst_prac_3/Slide38.png,right,2.5628513430128805,630.9280234340113,633.4908747770241,,,,,,,,,,,,,,,,,,,,,,,,,,,,,,,,,1,,,,,,,,,,,,,,,,,,,,,,,,,,,,,,,,,,,,,,,,,,,,,,95,151711,23,Female,1,2024/03/15_14:24:21,YZ,None,
3,./instructions/inst_prac_3/Slide39.png,right,0.9103278480179142,633.5165036020044,634.4268314500223,,,,,,,,,,,,,,,,,,,,,,,,,,,,,,,,,1,,,,,,,,,,,,,,,,,,,,,,,,,,,,,,,,,,,,,,,,,,,,,,95,151711,23,Female,1,2024/03/15_14:24:21,YZ,None,
4,./instructions/inst_prac_3/Slide40.png,right,6.283381841989467,634.455655007012,640.7390368490014,,,,,,,,,,,,,,,,,,,,,,,,,,,,,,,,,1,,,,,,,,,,,,,,,,,,,,,,,,,,,,,,,,,,,,,,,,,,,,,,95,151711,23,Female,1,2024/03/15_14:24:21,YZ,None,
5,./instructions/inst_prac_3/Slide41.png,right,4.554993916011881,640.7679168670147,645.3229107830266,,,,,,,,,,,,,,,,,,,,,,,,,,,,,,,,,1,,,,,,,,,,,,,,,,,,,,,,,,,,,,,,,,,,,,,,,,,,,,,,95,151711,23,Female,1,2024/03/15_14:24:21,YZ,None,
6,./instructions/inst_prac_3/Slide42.png,right,6.2353190910071135,645.3516406340059,651.586959725013,,,,,,,,,,,,,,,,,,,,,,,,,,,,,,,,,1,,,,,,,,,,,,,,,,,,,,,,,,,,,,,,,,,,,,,,,,,,,,,,95,151711,23,Female,1,2024/03/15_14:24:21,YZ,None,
7,./instructions/inst_prac_3/Slide43.png,right,36.42203486699145,651.6127760820091,688.0348109490005,,,,,,,,,,,,,,,,,,,,,,,,,,,,,,,,,1,,,,,,,,,,,,,,,,,,,,,,,,,,,,,,,,,,,,,,,,,,,,,,95,151711,23,Female,1,2024/03/15_14:24:21,YZ,None,
8,./instructions/inst_prac_3/Slide44.png,right,17.514313410007162,688.0645063680131,705.5788197780203,,,,,,,,,,,,,,,,,,,,,,,,,,,,,,,,,1,,,,,,,,,,,,,,,,,,,,,,,,,,,,,,,,,,,,,,,,,,,,,,95,151711,23,Female,1,2024/03/15_14:24:21,YZ,None,
,,,,,,practice,0,18,3,788,1,S,0,right,0.5618528090126347,1,0,,,,,,,,,,,,,,,,,,,,,1,,,,,,,,,,,,,,,,,,,,,,,,,,,,,,,,,,,,,,,,,,,,,,95,151711,23,Female,1,2024/03/15_14:24:21,YZ,None,
,,,,,,practice,0,18,3,788,2,Q,0,right,0.5572241119807586,1,0,,,,,,,,,,,,,,,,,,,,,1,,,,,,,,,,,,,,,,,,,,,,,,,,,,,,,,,,,,,,,,,,,,,,95,151711,23,Female,1,2024/03/15_14:24:21,YZ,None,
,,,,,,practice,0,18,3,788,3,S,0,right,0.6047119409777224,1,0,,,,,,,,,,,,,,,,,,,,,1,,,,,,,,,,,,,,,,,,,,,,,,,,,,,,,,,,,,,,,,,,,,,,95,151711,23,Female,1,2024/03/15_14:24:21,YZ,None,
,,,,,,practice,0,18,3,788,4,S,1,left,0.8563754130154848,1,0,,,,,,,,,,,,,,,,,,,,,1,,,,,,,,,,,,,,,,,,,,,,,,,,,,,,,,,,,,,,,,,,,,,,95,151711,23,Female,1,2024/03/15_14:24:21,YZ,None,
,,,,,,practice,0,18,3,788,5,Q,1,left,1.3429451569973025,1,0,,,,,,,,,,,,,,,,,,,,,1,,,,,,,,,,,,,,,,,,,,,,,,,,,,,,,,,,,,,,,,,,,,,,95,151711,23,Female,1,2024/03/15_14:24:21,YZ,None,
,,,,,,practice,0,18,3,788,6,J,0,right,0.8801725590019487,1,0,,,,,,,,,,,,,,,,,,,,,1,,,,,,,,,,,,,,,,,,,,,,,,,,,,,,,,,,,,,,,,,,,,,,95,151711,23,Female,1,2024/03/15_14:24:21,YZ,None,
,,,,,,practice,0,18,3,788,7,S,1,left,0.8390206200128887,1,0,,,,,,,,,,,,,,,,,,,,,1,,,,,,,,,,,,,,,,,,,,,,,,,,,,,,,,,,,,,,,,,,,,,,95,151711,23,Female,1,2024/03/15_14:24:21,YZ,None,
,,,,,,practice,0,18,3,788,8,S,0,right,0.6997967599891126,1,0,,,,,,,,,,,,,,,,,,,,,1,,,,,,,,,,,,,,,,,,,,,,,,,,,,,,,,,,,,,,,,,,,,,,95,151711,23,Female,1,2024/03/15_14:24:21,YZ,None,
,,,,,,practice,0,18,3,788,9,J,1,left,0.7255235929915216,1,0,,,,,,,,,,,,,,,,,,,,,1,,,,,,,,,,,,,,,,,,,,,,,,,,,,,,,,,,,,,,,,,,,,,,95,151711,23,Female,1,2024/03/15_14:24:21,YZ,None,
,,,,,,practice,0,18,3,788,10,J,0,right,1.1748591500218026,1,0,,,,,,,,,,,,,,,,,,,,,1,,,,,,,,,,,,,,,,,,,,,,,,,,,,,,,,,,,,,,,,,,,,,,95,151711,23,Female,1,2024/03/15_14:24:21,YZ,None,
,,,,,,practice,0,18,3,788,11,F,0,right,0.8231257410079706,1,0,,,,,,,,,,,,,,,,,,,,,1,,,,,,,,,,,,,,,,,,,,,,,,,,,,,,,,,,,,,,,,,,,,,,95,151711,23,Female,1,2024/03/15_14:24:21,YZ,None,
,,,,,,practice,0,18,3,788,12,F,0,right,0.8120226500032004,1,0,,,,,,,,,,,,,,,,,,,,,1,,,,,,,,,,,,,,,,,,,,,,,,,,,,,,,,,,,,,,,,,,,,,,95,151711,23,Female,1,2024/03/15_14:24:21,YZ,None,
,,,,,,practice,0,18,3,788,13,S,0,right,0.893024354998488,1,0,,,,,,,,,,,,,,,,,,,,,1,,,,,,,,,,,,,,,,,,,,,,,,,,,,,,,,,,,,,,,,,,,,,,95,151711,23,Female,1,2024/03/15_14:24:21,YZ,None,
,,,,,,practice,0,18,3,788,,,,,,,,1.0,1.0,0.0,1.0,0.0,1.0,0.8285119123085258,4,0,0,0,0,9,13,4,9,0,,,,1,,,,,,,,,,,,,,,,,,,,,,,,,,,,,,,,,,,,,,,,,,,,,,95,151711,23,Female,1,2024/03/15_14:24:21,YZ,None,
1,./instructions/inst_prac_3_next/Slide49.png,right,13.21732518801582,730.0256590860081,743.2429842740239,,,,,,,,,,,,,,,,,,,,,,,,,,,,,,,,,1,,,,,,,,,,,,,,,,,,,,,,,,,,,,,,,,,,,,,,,,,,,,,,95,151711,23,Female,1,2024/03/15_14:24:21,YZ,None,
,,,,,,practice,0,35,3,426,1,Q,0,right,0.4379482229996938,1,0,,,,,,,,,,,,,,,,,,,,,1,,,,,,,,,,,,,,,,,,,,,,,,,,,,,,,,,,,,,,,,,,,,,,95,151711,23,Female,1,2024/03/15_14:24:21,YZ,None,
,,,,,,practice,0,35,3,426,2,V,0,right,0.4525407609762624,1,0,,,,,,,,,,,,,,,,,,,,,1,,,,,,,,,,,,,,,,,,,,,,,,,,,,,,,,,,,,,,,,,,,,,,95,151711,23,Female,1,2024/03/15_14:24:21,YZ,None,
,,,,,,practice,0,35,3,426,3,J,0,right,0.49544949500705115,1,0,,,,,,,,,,,,,,,,,,,,,1,,,,,,,,,,,,,,,,,,,,,,,,,,,,,,,,,,,,,,,,,,,,,,95,151711,23,Female,1,2024/03/15_14:24:21,YZ,None,
,,,,,,practice,0,35,3,426,4,Q,1,left,0.6692984550027177,1,0,,,,,,,,,,,,,,,,,,,,,1,,,,,,,,,,,,,,,,,,,,,,,,,,,,,,,,,,,,,,,,,,,,,,95,151711,23,Female,1,2024/03/15_14:24:21,YZ,None,
,,,,,,practice,0,35,3,426,5,C,0,right,0.520081212016521,1,0,,,,,,,,,,,,,,,,,,,,,1,,,,,,,,,,,,,,,,,,,,,,,,,,,,,,,,,,,,,,,,,,,,,,95,151711,23,Female,1,2024/03/15_14:24:21,YZ,None,
,,,,,,practice,0,35,3,426,6,S,0,right,0.5838968750031199,1,0,,,,,,,,,,,,,,,,,,,,,1,,,,,,,,,,,,,,,,,,,,,,,,,,,,,,,,,,,,,,,,,,,,,,95,151711,23,Female,1,2024/03/15_14:24:21,YZ,None,
,,,,,,practice,0,35,3,426,7,V,0,left,0.909654617018532,0,0,,,,,,,,,,,,,,,,,,,,,1,,,,,,,,,,,,,,,,,,,,,,,,,,,,,,,,,,,,,,,,,,,,,,95,151711,23,Female,1,2024/03/15_14:24:21,YZ,None,
,,,,,,practice,0,35,3,426,8,C,1,right,0.6012665810121689,0,0,,,,,,,,,,,,,,,,,,,,,1,,,,,,,,,,,,,,,,,,,,,,,,,,,,,,,,,,,,,,,,,,,,,,95,151711,23,Female,1,2024/03/15_14:24:21,YZ,None,
,,,,,,practice,0,35,3,426,9,S,1,left,0.4397588580031879,1,0,,,,,,,,,,,,,,,,,,,,,1,,,,,,,,,,,,,,,,,,,,,,,,,,,,,,,,,,,,,,,,,,,,,,95,151711,23,Female,1,2024/03/15_14:24:21,YZ,None,
,,,,,,practice,0,35,3,426,10,X,0,right,0.48906610600533895,1,0,,,,,,,,,,,,,,,,,,,,,1,,,,,,,,,,,,,,,,,,,,,,,,,,,,,,,,,,,,,,,,,,,,,,95,151711,23,Female,1,2024/03/15_14:24:21,YZ,None,
,,,,,,practice,0,35,3,426,11,C,1,left,0.584155805001501,1,0,,,,,,,,,,,,,,,,,,,,,1,,,,,,,,,,,,,,,,,,,,,,,,,,,,,,,,,,,,,,,,,,,,,,95,151711,23,Female,1,2024/03/15_14:24:21,YZ,None,
,,,,,,practice,0,35,3,426,12,X,0,left,0.7732084190065507,0,0,,,,,,,,,,,,,,,,,,,,,1,,,,,,,,,,,,,,,,,,,,,,,,,,,,,,,,,,,,,,,,,,,,,,95,151711,23,Female,1,2024/03/15_14:24:21,YZ,None,
,,,,,,practice,0,35,3,426,13,X,1,left,0.6245938419888262,1,0,,,,,,,,,,,,,,,,,,,,,1,,,,,,,,,,,,,,,,,,,,,,,,,,,,,,,,,,,,,,,,,,,,,,95,151711,23,Female,1,2024/03/15_14:24:21,YZ,None,
,,,,,,practice,0,35,3,426,14,N,0,right,0.5644710109918378,1,0,,,,,,,,,,,,,,,,,,,,,1,,,,,,,,,,,,,,,,,,,,,,,,,,,,,,,,,,,,,,,,,,,,,,95,151711,23,Female,1,2024/03/15_14:24:21,YZ,None,
,,,,,,practice,0,35,3,426,15,Q,0,left,0.7641036169952713,0,0,,,,,,,,,,,,,,,,,,,,,1,,,,,,,,,,,,,,,,,,,,,,,,,,,,,,,,,,,,,,,,,,,,,,95,151711,23,Female,1,2024/03/15_14:24:21,YZ,None,
,,,,,,practice,0,35,3,426,16,C,0,left,0.5846488100069109,0,0,,,,,,,,,,,,,,,,,,,,,1,,,,,,,,,,,,,,,,,,,,,,,,,,,,,,,,,,,,,,,,,,,,,,95,151711,23,Female,1,2024/03/15_14:24:21,YZ,None,
,,,,,,practice,0,35,3,426,17,C,0,right,0.9013982639880851,1,0,,,,,,,,,,,,,,,,,,,,,1,,,,,,,,,,,,,,,,,,,,,,,,,,,,,,,,,,,,,,,,,,,,,,95,151711,23,Female,1,2024/03/15_14:24:21,YZ,None,
,,,,,,practice,0,35,3,426,,,,,,,,0.8,0.8,0.3333333333333333,0.6666666666666666,0.0,0.6666666666666667,0.6115024088837399,4,4,0,0,0,8,12,5,12,0,,,,1,,,,,,,,,,,,,,,,,,,,,,,,,,,,,,,,,,,,,,,,,,,,,,95,151711,23,Female,1,2024/03/15_14:24:21,YZ,None,
,,,,,,practice,0,8,3,426,1,S,0,right,0.4114164150087163,1,0,,,,,,,,,,,,,,,,,,,,,1,,,,,,,,,,,,,,,,,,,,,,,,,,,,,,,,,,,,,,,,,,,,,,95,151711,23,Female,1,2024/03/15_14:24:21,YZ,None,
,,,,,,practice,0,8,3,426,2,X,0,right,0.3282258140097838,1,0,,,,,,,,,,,,,,,,,,,,,1,,,,,,,,,,,,,,,,,,,,,,,,,,,,,,,,,,,,,,,,,,,,,,95,151711,23,Female,1,2024/03/15_14:24:21,YZ,None,
,,,,,,practice,0,8,3,426,3,N,0,right,0.3645290930289775,1,0,,,,,,,,,,,,,,,,,,,,,1,,,,,,,,,,,,,,,,,,,,,,,,,,,,,,,,,,,,,,,,,,,,,,95,151711,23,Female,1,2024/03/15_14:24:21,YZ,None,
,,,,,,practice,0,8,3,426,4,Q,0,right,0.6525917260150891,1,0,,,,,,,,,,,,,,,,,,,,,1,,,,,,,,,,,,,,,,,,,,,,,,,,,,,,,,,,,,,,,,,,,,,,95,151711,23,Female,1,2024/03/15_14:24:21,YZ,None,
,,,,,,practice,0,8,3,426,5,N,0,left,0.8722384560096543,0,0,,,,,,,,,,,,,,,,,,,,,1,,,,,,,,,,,,,,,,,,,,,,,,,,,,,,,,,,,,,,,,,,,,,,95,151711,23,Female,1,2024/03/15_14:24:21,YZ,None,
,,,,,,practice,0,8,3,426,6,N,1,left,0.6473867080057971,1,0,,,,,,,,,,,,,,,,,,,,,1,,,,,,,,,,,,,,,,,,,,,,,,,,,,,,,,,,,,,,,,,,,,,,95,151711,23,Female,1,2024/03/15_14:24:21,YZ,None,
,,,,,,practice,0,8,3,426,7,S,0,right,1.0765794879989699,1,0,,,,,,,,,,,,,,,,,,,,,1,,,,,,,,,,,,,,,,,,,,,,,,,,,,,,,,,,,,,,,,,,,,,,95,151711,23,Female,1,2024/03/15_14:24:21,YZ,None,
,,,,,,practice,0,8,3,426,8,N,1,left,1.4766541330027394,1,0,,,,,,,,,,,,,,,,,,,,,1,,,,,,,,,,,,,,,,,,,,,,,,,,,,,,,,,,,,,,,,,,,,,,95,151711,23,Female,1,2024/03/15_14:24:21,YZ,None,
,,,,,,practice,0,8,3,426,9,N,1,left,0.7801018309837673,1,0,,,,,,,,,,,,,,,,,,,,,1,,,,,,,,,,,,,,,,,,,,,,,,,,,,,,,,,,,,,,,,,,,,,,95,151711,23,Female,1,2024/03/15_14:24:21,YZ,None,
,,,,,,practice,0,8,3,426,10,Q,0,right,0.7644254720071331,1,0,,,,,,,,,,,,,,,,,,,,,1,,,,,,,,,,,,,,,,,,,,,,,,,,,,,,,,,,,,,,,,,,,,,,95,151711,23,Female,1,2024/03/15_14:24:21,YZ,None,
,,,,,,practice,0,8,3,426,11,N,1,left,0.735976436000783,1,0,,,,,,,,,,,,,,,,,,,,,1,,,,,,,,,,,,,,,,,,,,,,,,,,,,,,,,,,,,,,,,,,,,,,95,151711,23,Female,1,2024/03/15_14:24:21,YZ,None,
,,,,,,practice,0,8,3,426,12,N,1,right,0.4529468129912857,0,0,,,,,,,,,,,,,,,,,,,,,1,,,,,,,,,,,,,,,,,,,,,,,,,,,,,,,,,,,,,,,,,,,,,,95,151711,23,Female,1,2024/03/15_14:24:21,YZ,None,
,,,,,,practice,0,8,3,426,13,J,0,right,0.7590193070063833,1,0,,,,,,,,,,,,,,,,,,,,,1,,,,,,,,,,,,,,,,,,,,,,,,,,,,,,,,,,,,,,,,,,,,,,95,151711,23,Female,1,2024/03/15_14:24:21,YZ,None,
,,,,,,practice,0,8,3,426,14,C,0,right,1.029332873004023,1,0,,,,,,,,,,,,,,,,,,,,,1,,,,,,,,,,,,,,,,,,,,,,,,,,,,,,,,,,,,,,,,,,,,,,95,151711,23,Female,1,2024/03/15_14:24:21,YZ,None,
,,,,,,practice,0,8,3,426,15,F,0,right,0.596897440002067,1,0,,,,,,,,,,,,,,,,,,,,,1,,,,,,,,,,,,,,,,,,,,,,,,,,,,,,,,,,,,,,,,,,,,,,95,151711,23,Female,1,2024/03/15_14:24:21,YZ,None,
,,,,,,practice,0,8,3,426,16,V,0,right,0.6048185499967076,1,0,,,,,,,,,,,,,,,,,,,,,1,,,,,,,,,,,,,,,,,,,,,,,,,,,,,,,,,,,,,,,,,,,,,,95,151711,23,Female,1,2024/03/15_14:24:21,YZ,None,
,,,,,,practice,0,8,3,426,17,Q,0,left,0.4960405290185008,0,0,,,,,,,,,,,,,,,,,,,,,1,,,,,,,,,,,,,,,,,,,,,,,,,,,,,,,,,,,,,,,,,,,,,,95,151711,23,Female,1,2024/03/15_14:24:21,YZ,None,
,,,,,,practice,0,8,3,426,,,,,,,,0.875,0.8,0.16666666666666666,0.8333333333333334,0.0,0.8333333333333334,0.7087753578876693,4,2,0,0,0,10,14,5,12,0,,,,1,,,,,,,,,,,,,,,,,,,,,,,,,,,,,,,,,,,,,,,,,,,,,,95,151711,23,Female,1,2024/03/15_14:24:21,YZ,None,
1,./instructions/inst_prac_main/Slide51.png,right,3.1426471440063324,787.6282600830018,790.7709072270081,,,,,,,,,,,,,,,,,,,,,,,,,,,,,,,,,1,,,,,,,,,,,,,,,,,,,,,,,,,,,,,,,,,,,,,,,,,,,,,,95,151711,23,Female,1,2024/03/15_14:24:21,YZ,None,
2,./instructions/inst_prac_main/Slide52.png,right,25.461800866993144,790.7971301580255,816.2589310250187,,,,,,,,,,,,,,,,,,,,,,,,,,,,,,,,,1,,,,,,,,,,,,,,,,,,,,,,,,,,,,,,,,,,,,,,,,,,,,,,95,151711,23,Female,1,2024/03/15_14:24:21,YZ,None,
3,./instructions/inst_prac_main/Slide53.png,right,10.578646367008332,816.2883103450004,826.8669567120087,,,,,,,,,,,,,,,,,,,,,,,,,,,,,,,,,1,,,,,,,,,,,,,,,,,,,,,,,,,,,,,,,,,,,,,,,,,,,,,,95,151711,23,Female,1,2024/03/15_14:24:21,YZ,None,
4,./instructions/inst_prac_main/Slide54.png,right,13.530736454005819,826.8961568630184,840.4268933170242,,,,,,,,,,,,,,,,,,,,,,,,,,,,,,,,,1,,,,,,,,,,,,,,,,,,,,,,,,,,,,,,,,,,,,,,,,,,,,,,95,151711,23,Female,1,2024/03/15_14:24:21,YZ,None,
,,,,,,practice_main,0,1,1,426,1,S,0,right,0.6485063350119162,1,0,,,,,,,,,,,,,,,,,,,,,1,,,,,,,,,,,,,,,,,,,,,,,,,,,,,,,,,,,,,,,,,,,,,,95,151711,23,Female,1,2024/03/15_14:24:21,YZ,None,
,,,,,,practice_main,0,1,1,426,2,S,1,left,0.5186260010232218,1,0,,,,,,,,,,,,,,,,,,,,,1,,,,,,,,,,,,,,,,,,,,,,,,,,,,,,,,,,,,,,,,,,,,,,95,151711,23,Female,1,2024/03/15_14:24:21,YZ,None,
,,,,,,practice_main,0,1,1,426,3,J,0,right,0.43505292700137943,1,0,,,,,,,,,,,,,,,,,,,,,1,,,,,,,,,,,,,,,,,,,,,,,,,,,,,,,,,,,,,,,,,,,,,,95,151711,23,Female,1,2024/03/15_14:24:21,YZ,None,
,,,,,,practice_main,0,1,1,426,4,N,0,right,0.5324450279877055,1,0,,,,,,,,,,,,,,,,,,,,,1,,,,,,,,,,,,,,,,,,,,,,,,,,,,,,,,,,,,,,,,,,,,,,95,151711,23,Female,1,2024/03/15_14:24:21,YZ,None,
,,,,,,practice_main,0,1,1,426,5,S,0,right,0.5657924240222201,1,0,,,,,,,,,,,,,,,,,,,,,1,,,,,,,,,,,,,,,,,,,,,,,,,,,,,,,,,,,,,,,,,,,,,,95,151711,23,Female,1,2024/03/15_14:24:21,YZ,None,
,,,,,,practice_main,0,1,1,426,6,S,1,left,0.49378417700063437,1,0,,,,,,,,,,,,,,,,,,,,,1,,,,,,,,,,,,,,,,,,,,,,,,,,,,,,,,,,,,,,,,,,,,,,95,151711,23,Female,1,2024/03/15_14:24:21,YZ,None,
,,,,,,practice_main,0,1,1,426,7,F,0,right,0.4435964259901084,1,0,,,,,,,,,,,,,,,,,,,,,1,,,,,,,,,,,,,,,,,,,,,,,,,,,,,,,,,,,,,,,,,,,,,,95,151711,23,Female,1,2024/03/15_14:24:21,YZ,None,
,,,,,,practice_main,0,1,1,426,8,J,0,right,0.5402113920135889,1,0,,,,,,,,,,,,,,,,,,,,,1,,,,,,,,,,,,,,,,,,,,,,,,,,,,,,,,,,,,,,,,,,,,,,95,151711,23,Female,1,2024/03/15_14:24:21,YZ,None,
,,,,,,practice_main,0,1,1,426,9,J,1,left,0.32646429401938803,1,0,,,,,,,,,,,,,,,,,,,,,1,,,,,,,,,,,,,,,,,,,,,,,,,,,,,,,,,,,,,,,,,,,,,,95,151711,23,Female,1,2024/03/15_14:24:21,YZ,None,
,,,,,,practice_main,0,1,1,426,10,S,0,right,0.5626089470169973,1,0,,,,,,,,,,,,,,,,,,,,,1,,,,,,,,,,,,,,,,,,,,,,,,,,,,,,,,,,,,,,,,,,,,,,95,151711,23,Female,1,2024/03/15_14:24:21,YZ,None,
,,,,,,practice_main,0,1,1,426,11,Q,0,right,0.5508577459841035,1,0,,,,,,,,,,,,,,,,,,,,,1,,,,,,,,,,,,,,,,,,,,,,,,,,,,,,,,,,,,,,,,,,,,,,95,151711,23,Female,1,2024/03/15_14:24:21,YZ,None,
,,,,,,practice_main,0,1,1,426,12,N,0,left,0.41443621399230324,0,0,,,,,,,,,,,,,,,,,,,,,1,,,,,,,,,,,,,,,,,,,,,,,,,,,,,,,,,,,,,,,,,,,,,,95,151711,23,Female,1,2024/03/15_14:24:21,YZ,None,
,,,,,,practice_main,0,1,1,426,13,Q,0,right,0.6850984439952299,1,0,,,,,,,,,,,,,,,,,,,,,1,,,,,,,,,,,,,,,,,,,,,,,,,,,,,,,,,,,,,,,,,,,,,,95,151711,23,Female,1,2024/03/15_14:24:21,YZ,None,
,,,,,,practice_main,0,1,1,426,14,Q,1,left,0.4525775230140425,1,0,,,,,,,,,,,,,,,,,,,,,1,,,,,,,,,,,,,,,,,,,,,,,,,,,,,,,,,,,,,,,,,,,,,,95,151711,23,Female,1,2024/03/15_14:24:21,YZ,None,
,,,,,,practice_main,0,1,1,426,15,V,0,right,0.44730748698930256,1,0,,,,,,,,,,,,,,,,,,,,,1,,,,,,,,,,,,,,,,,,,,,,,,,,,,,,,,,,,,,,,,,,,,,,95,151711,23,Female,1,2024/03/15_14:24:21,YZ,None,
,,,,,,practice_main,0,1,1,426,16,C,0,right,0.4414068309997674,1,0,,,,,,,,,,,,,,,,,,,,,1,,,,,,,,,,,,,,,,,,,,,,,,,,,,,,,,,,,,,,,,,,,,,,95,151711,23,Female,1,2024/03/15_14:24:21,YZ,None,
,,,,,,practice_main,0,1,1,426,17,C,1,left,0.5187069289968349,1,0,,,,,,,,,,,,,,,,,,,,,1,,,,,,,,,,,,,,,,,,,,,,,,,,,,,,,,,,,,,,,,,,,,,,95,151711,23,Female,1,2024/03/15_14:24:21,YZ,None,
,,,,,,practice_main,0,1,1,426,,,,,,,,0.9791666666666666,1.0,0.08333333333333333,0.9166666666666666,0.0,0.9166666666666666,0.5045575955916908,5,1,0,0,0,11,16,5,12,0,,,,1,,,,,,,,,,,,,,,,,,,,,,,,,,,,,,,,,,,,,,,,,,,,,,95,151711,23,Female,1,2024/03/15_14:24:21,YZ,None,
,,,,,240315_145927,PRACTICE,0,1,1,426,,,,,,,,,,,,,,,,,,,,,,,,,,,,1,41,1,1,cue1.png,easy,A,56,1.4113905190024525,0,843.4956699240138,844.9369355400268,,,,,,,,,,,,,,,,,,,,,,,,,,,,,,,,,,,95,151711,23,Female,1,2024/03/15_14:24:21,YZ,None,
,,,,,,practice_main,0,2,1,426,1,N,0,right,0.3782577100209892,1,0,,,,,,,,,,,,,,,,,,,,,1,,,,,,,,,,,,,,,,,,,,,,,,,,,,,,,,,,,,,,,,,,,,,,95,151711,23,Female,1,2024/03/15_14:24:21,YZ,None,
,,,,,,practice_main,0,2,1,426,2,X,0,right,0.4953903010173235,1,0,,,,,,,,,,,,,,,,,,,,,1,,,,,,,,,,,,,,,,,,,,,,,,,,,,,,,,,,,,,,,,,,,,,,95,151711,23,Female,1,2024/03/15_14:24:21,YZ,None,
,,,,,,practice_main,0,2,1,426,3,X,1,left,0.35680914399563335,1,0,,,,,,,,,,,,,,,,,,,,,1,,,,,,,,,,,,,,,,,,,,,,,,,,,,,,,,,,,,,,,,,,,,,,95,151711,23,Female,1,2024/03/15_14:24:21,YZ,None,
,,,,,,practice_main,0,2,1,426,4,C,0,right,0.37678028401569463,1,0,,,,,,,,,,,,,,,,,,,,,1,,,,,,,,,,,,,,,,,,,,,,,,,,,,,,,,,,,,,,,,,,,,,,95,151711,23,Female,1,2024/03/15_14:24:21,YZ,None,
,,,,,,practice_main,0,2,1,426,5,J,0,right,0.4603945899871178,1,0,,,,,,,,,,,,,,,,,,,,,1,,,,,,,,,,,,,,,,,,,,,,,,,,,,,,,,,,,,,,,,,,,,,,95,151711,23,Female,1,2024/03/15_14:24:21,YZ,None,
,,,,,,practice_main,0,2,1,426,6,S,0,right,0.44484058502712287,1,0,,,,,,,,,,,,,,,,,,,,,1,,,,,,,,,,,,,,,,,,,,,,,,,,,,,,,,,,,,,,,,,,,,,,95,151711,23,Female,1,2024/03/15_14:24:21,YZ,None,
,,,,,,practice_main,0,2,1,426,7,S,1,left,0.3088896489934996,1,0,,,,,,,,,,,,,,,,,,,,,1,,,,,,,,,,,,,,,,,,,,,,,,,,,,,,,,,,,,,,,,,,,,,,95,151711,23,Female,1,2024/03/15_14:24:21,YZ,None,
,,,,,,practice_main,0,2,1,426,8,X,0,right,0.4577160500048194,1,0,,,,,,,,,,,,,,,,,,,,,1,,,,,,,,,,,,,,,,,,,,,,,,,,,,,,,,,,,,,,,,,,,,,,95,151711,23,Female,1,2024/03/15_14:24:21,YZ,None,
,,,,,,practice_main,0,2,1,426,9,J,0,right,0.43368307998753153,1,0,,,,,,,,,,,,,,,,,,,,,1,,,,,,,,,,,,,,,,,,,,,,,,,,,,,,,,,,,,,,,,,,,,,,95,151711,23,Female,1,2024/03/15_14:24:21,YZ,None,
,,,,,,practice_main,0,2,1,426,10,J,1,left,0.30377545798546635,1,0,,,,,,,,,,,,,,,,,,,,,1,,,,,,,,,,,,,,,,,,,,,,,,,,,,,,,,,,,,,,,,,,,,,,95,151711,23,Female,1,2024/03/15_14:24:21,YZ,None,
,,,,,,practice_main,0,2,1,426,11,F,0,right,0.32899249499314465,1,0,,,,,,,,,,,,,,,,,,,,,1,,,,,,,,,,,,,,,,,,,,,,,,,,,,,,,,,,,,,,,,,,,,,,95,151711,23,Female,1,2024/03/15_14:24:21,YZ,None,
,,,,,,practice_main,0,2,1,426,12,F,1,left,0.4401346619997639,1,0,,,,,,,,,,,,,,,,,,,,,1,,,,,,,,,,,,,,,,,,,,,,,,,,,,,,,,,,,,,,,,,,,,,,95,151711,23,Female,1,2024/03/15_14:24:21,YZ,None,
,,,,,,practice_main,0,2,1,426,13,S,0,right,0.4242580250138417,1,0,,,,,,,,,,,,,,,,,,,,,1,,,,,,,,,,,,,,,,,,,,,,,,,,,,,,,,,,,,,,,,,,,,,,95,151711,23,Female,1,2024/03/15_14:24:21,YZ,None,
,,,,,,practice_main,0,2,1,426,14,N,0,right,0.4334547239996027,1,0,,,,,,,,,,,,,,,,,,,,,1,,,,,,,,,,,,,,,,,,,,,,,,,,,,,,,,,,,,,,,,,,,,,,95,151711,23,Female,1,2024/03/15_14:24:21,YZ,None,
,,,,,,practice_main,0,2,1,426,15,N,1,left,0.5123026149813086,1,0,,,,,,,,,,,,,,,,,,,,,1,,,,,,,,,,,,,,,,,,,,,,,,,,,,,,,,,,,,,,,,,,,,,,95,151711,23,Female,1,2024/03/15_14:24:21,YZ,None,
,,,,,,practice_main,0,2,1,426,16,V,0,right,0.4749056180007756,1,0,,,,,,,,,,,,,,,,,,,,,1,,,,,,,,,,,,,,,,,,,,,,,,,,,,,,,,,,,,,,,,,,,,,,95,151711,23,Female,1,2024/03/15_14:24:21,YZ,None,
,,,,,,practice_main,0,2,1,426,17,S,0,right,0.4318155229848344,1,0,,,,,,,,,,,,,,,,,,,,,1,,,,,,,,,,,,,,,,,,,,,,,,,,,,,,,,,,,,,,,,,,,,,,95,151711,23,Female,1,2024/03/15_14:24:21,YZ,None,
,,,,,,practice_main,0,2,1,426,,,,,,,,1.0,1.0,0.0,1.0,0.0,1.0,0.4154353242946159,5,0,0,0,0,12,17,5,12,0,,,,1,,,,,,,,,,,,,,,,,,,,,,,,,,,,,,,,,,,,,,,,,,,,,,95,151711,23,Female,1,2024/03/15_14:24:21,YZ,None,
,,,,,240315_145954,PRACTICE,0,2,1,426,,,,,,,,,,,,,,,,,,,,,,,,,,,,1,28,2,2,cue1.png,easy,A,56,2.165045422007097,0,871.6083031040034,873.7842413570033,,,,,,,,,,,,,,,,,,,,,,,,,,,,,,,,,,,95,151711,23,Female,1,2024/03/15_14:24:21,YZ,None,
,,,,,,practice_main,0,3,3,426,1,V,0,right,0.25224514899309725,1,0,,,,,,,,,,,,,,,,,,,,,1,,,,,,,,,,,,,,,,,,,,,,,,,,,,,,,,,,,,,,,,,,,,,,95,151711,23,Female,1,2024/03/15_14:24:21,YZ,None,
,,,,,,practice_main,0,3,3,426,2,Q,0,right,0.3165660270024091,1,0,,,,,,,,,,,,,,,,,,,,,1,,,,,,,,,,,,,,,,,,,,,,,,,,,,,,,,,,,,,,,,,,,,,,95,151711,23,Female,1,2024/03/15_14:24:21,YZ,None,
,,,,,,practice_main,0,3,3,426,3,F,0,right,0.24709625999093987,1,0,,,,,,,,,,,,,,,,,,,,,1,,,,,,,,,,,,,,,,,,,,,,,,,,,,,,,,,,,,,,,,,,,,,,95,151711,23,Female,1,2024/03/15_14:24:21,YZ,None,
,,,,,,practice_main,0,3,3,426,4,F,0,right,0.4765355649869889,1,0,,,,,,,,,,,,,,,,,,,,,1,,,,,,,,,,,,,,,,,,,,,,,,,,,,,,,,,,,,,,,,,,,,,,95,151711,23,Female,1,2024/03/15_14:24:21,YZ,None,
,,,,,,practice_main,0,3,3,426,5,Q,1,left,0.6085906559892464,1,0,,,,,,,,,,,,,,,,,,,,,1,,,,,,,,,,,,,,,,,,,,,,,,,,,,,,,,,,,,,,,,,,,,,,95,151711,23,Female,1,2024/03/15_14:24:21,YZ,None,
,,,,,,practice_main,0,3,3,426,6,V,0,right,0.371851042000344,1,0,,,,,,,,,,,,,,,,,,,,,1,,,,,,,,,,,,,,,,,,,,,,,,,,,,,,,,,,,,,,,,,,,,,,95,151711,23,Female,1,2024/03/15_14:24:21,YZ,None,
,,,,,,practice_main,0,3,3,426,7,N,0,right,0.548514887021156,1,0,,,,,,,,,,,,,,,,,,,,,1,,,,,,,,,,,,,,,,,,,,,,,,,,,,,,,,,,,,,,,,,,,,,,95,151711,23,Female,1,2024/03/15_14:24:21,YZ,None,
,,,,,,practice_main,0,3,3,426,8,Q,1,left,0.5416028460022062,1,0,,,,,,,,,,,,,,,,,,,,,1,,,,,,,,,,,,,,,,,,,,,,,,,,,,,,,,,,,,,,,,,,,,,,95,151711,23,Female,1,2024/03/15_14:24:21,YZ,None,
,,,,,,practice_main,0,3,3,426,9,V,1,right,0.4445305709959939,0,0,,,,,,,,,,,,,,,,,,,,,1,,,,,,,,,,,,,,,,,,,,,,,,,,,,,,,,,,,,,,,,,,,,,,95,151711,23,Female,1,2024/03/15_14:24:21,YZ,None,
,,,,,,practice_main,0,3,3,426,10,F,0,left,0.6011966690130066,0,0,,,,,,,,,,,,,,,,,,,,,1,,,,,,,,,,,,,,,,,,,,,,,,,,,,,,,,,,,,,,,,,,,,,,95,151711,23,Female,1,2024/03/15_14:24:21,YZ,None,
,,,,,,practice_main,0,3,3,426,11,N,0,right,0.3143140530155506,1,0,,,,,,,,,,,,,,,,,,,,,1,,,,,,,,,,,,,,,,,,,,,,,,,,,,,,,,,,,,,,,,,,,,,,95,151711,23,Female,1,2024/03/15_14:24:21,YZ,None,
,,,,,,practice_main,0,3,3,426,12,V,1,right,0.5694582299911417,0,0,,,,,,,,,,,,,,,,,,,,,1,,,,,,,,,,,,,,,,,,,,,,,,,,,,,,,,,,,,,,,,,,,,,,95,151711,23,Female,1,2024/03/15_14:24:21,YZ,None,
,,,,,,practice_main,0,3,3,426,13,Q,0,left,0.3820633660070598,0,0,,,,,,,,,,,,,,,,,,,,,1,,,,,,,,,,,,,,,,,,,,,,,,,,,,,,,,,,,,,,,,,,,,,,95,151711,23,Female,1,2024/03/15_14:24:21,YZ,None,
,,,,,,practice_main,0,3,3,426,14,S,0,right,0.3282403620250989,1,0,,,,,,,,,,,,,,,,,,,,,1,,,,,,,,,,,,,,,,,,,,,,,,,,,,,,,,,,,,,,,,,,,,,,95,151711,23,Female,1,2024/03/15_14:24:21,YZ,None,
,,,,,,practice_main,0,3,3,426,15,V,1,right,0.3329042689874768,0,0,,,,,,,,,,,,,,,,,,,,,1,,,,,,,,,,,,,,,,,,,,,,,,,,,,,,,,,,,,,,,,,,,,,,95,151711,23,Female,1,2024/03/15_14:24:21,YZ,None,
,,,,,,practice_main,0,3,3,426,16,V,0,left,0.25833620099001564,0,0,,,,,,,,,,,,,,,,,,,,,1,,,,,,,,,,,,,,,,,,,,,,,,,,,,,,,,,,,,,,,,,,,,,,95,151711,23,Female,1,2024/03/15_14:24:21,YZ,None,
,,,,,,practice_main,0,3,3,426,17,C,0,right,0.337861669017002,1,0,,,,,,,,,,,,,,,,,,,,,1,,,,,,,,,,,,,,,,,,,,,,,,,,,,,,,,,,,,,,,,,,,,,,95,151711,23,Female,1,2024/03/15_14:24:21,YZ,None,
,,,,,,practice_main,0,3,3,426,,,,,,,,0.63125,0.4,0.25,0.75,0.0,0.75,0.407759283648749,2,3,0,0,0,9,11,5,12,0,,,,1,,,,,,,,,,,,,,,,,,,,,,,,,,,,,,,,,,,,,,,,,,,,,,95,151711,23,Female,1,2024/03/15_14:24:21,YZ,None,
,,,,,240315_150021,PRACTICE,0,3,3,426,,,,,,,,,,,,,,,,,,,,,,,,,,,,1,40,3,3,cue2.png,hard,A,43,1.5620362389890943,0,898.8792461390258,900.45319969501,,,,,,,,,,,,,,,,,,,,,,,,,,,,,,,,,,,95,151711,23,Female,1,2024/03/15_14:24:21,YZ,None,
-1,./instructions/inst_prac_end/Slide56.png,left,21.21472873399034,923.9724531320098,945.1871818660002,,,,,,,,,,,,,,,,,,,,,,,,,,,,,,,,,1,,,,,,,,,,,,,,,,,,,,,,,,,,,,,,,,,,,,,,,,,,,,,,95,151711,23,Female,1,2024/03/15_14:24:21,YZ,None,
1,./instructions/inst_test/Slide57.png,right,114.03842278799857,945.2205731410068,1059.2589959290053,,,,,,,,,,,,,,,,,,,,,,,,,,,,,,,,,1,,,,,,,,,,,,,,,,,,,,,,,,,,,,,,,,,,,,,,,,,,,,,,95,151711,23,Female,1,2024/03/15_14:24:21,YZ,None,
,,,,,,test,1,1,1,426,1,F,0,right,0.34839223901508376,1,0,,,,,,,,,,,,,,,,,,,,,1,,,,,,,,,,,,,,,,,,,,,,,,,,,,,,,,,,,,,,,,,,,,,,95,151711,23,Female,1,2024/03/15_14:24:21,YZ,None,
,,,,,,test,1,1,1,426,2,F,1,left,0.4006920760148205,1,0,,,,,,,,,,,,,,,,,,,,,1,,,,,,,,,,,,,,,,,,,,,,,,,,,,,,,,,,,,,,,,,,,,,,95,151711,23,Female,1,2024/03/15_14:24:21,YZ,None,
,,,,,,test,1,1,1,426,3,N,0,right,0.32355394400656223,1,0,,,,,,,,,,,,,,,,,,,,,1,,,,,,,,,,,,,,,,,,,,,,,,,,,,,,,,,,,,,,,,,,,,,,95,151711,23,Female,1,2024/03/15_14:24:21,YZ,None,
,,,,,,test,1,1,1,426,4,C,0,right,0.36851935400045477,1,0,,,,,,,,,,,,,,,,,,,,,1,,,,,,,,,,,,,,,,,,,,,,,,,,,,,,,,,,,,,,,,,,,,,,95,151711,23,Female,1,2024/03/15_14:24:21,YZ,None,
,,,,,,test,1,1,1,426,5,F,0,right,0.39163034700322896,1,0,,,,,,,,,,,,,,,,,,,,,1,,,,,,,,,,,,,,,,,,,,,,,,,,,,,,,,,,,,,,,,,,,,,,95,151711,23,Female,1,2024/03/15_14:24:21,YZ,None,
,,,,,,test,1,1,1,426,6,X,0,right,0.4240150520054158,1,0,,,,,,,,,,,,,,,,,,,,,1,,,,,,,,,,,,,,,,,,,,,,,,,,,,,,,,,,,,,,,,,,,,,,95,151711,23,Female,1,2024/03/15_14:24:21,YZ,None,
,,,,,,test,1,1,1,426,7,X,1,left,0.5430944960098714,1,0,,,,,,,,,,,,,,,,,,,,,1,,,,,,,,,,,,,,,,,,,,,,,,,,,,,,,,,,,,,,,,,,,,,,95,151711,23,Female,1,2024/03/15_14:24:21,YZ,None,
,,,,,,test,1,1,1,426,8,V,0,right,0.3336100850137882,1,0,,,,,,,,,,,,,,,,,,,,,1,,,,,,,,,,,,,,,,,,,,,,,,,,,,,,,,,,,,,,,,,,,,,,95,151711,23,Female,1,2024/03/15_14:24:21,YZ,None,
,,,,,,test,1,1,1,426,9,V,1,left,0.39309134098584764,1,0,,,,,,,,,,,,,,,,,,,,,1,,,,,,,,,,,,,,,,,,,,,,,,,,,,,,,,,,,,,,,,,,,,,,95,151711,23,Female,1,2024/03/15_14:24:21,YZ,None,
,,,,,,test,1,1,1,426,10,C,0,right,0.40434767099213786,1,0,,,,,,,,,,,,,,,,,,,,,1,,,,,,,,,,,,,,,,,,,,,,,,,,,,,,,,,,,,,,,,,,,,,,95,151711,23,Female,1,2024/03/15_14:24:21,YZ,None,
,,,,,,test,1,1,1,426,11,J,0,right,0.3994147160265129,1,0,,,,,,,,,,,,,,,,,,,,,1,,,,,,,,,,,,,,,,,,,,,,,,,,,,,,,,,,,,,,,,,,,,,,95,151711,23,Female,1,2024/03/15_14:24:21,YZ,None,
,,,,,,test,1,1,1,426,12,J,1,left,0.31501311401370913,1,0,,,,,,,,,,,,,,,,,,,,,1,,,,,,,,,,,,,,,,,,,,,,,,,,,,,,,,,,,,,,,,,,,,,,95,151711,23,Female,1,2024/03/15_14:24:21,YZ,None,
,,,,,,test,1,1,1,426,13,Q,0,right,0.33504661000915803,1,0,,,,,,,,,,,,,,,,,,,,,1,,,,,,,,,,,,,,,,,,,,,,,,,,,,,,,,,,,,,,,,,,,,,,95,151711,23,Female,1,2024/03/15_14:24:21,YZ,None,
,,,,,,test,1,1,1,426,14,F,0,right,0.5527066570066381,1,0,,,,,,,,,,,,,,,,,,,,,1,,,,,,,,,,,,,,,,,,,,,,,,,,,,,,,,,,,,,,,,,,,,,,95,151711,23,Female,1,2024/03/15_14:24:21,YZ,None,
,,,,,,test,1,1,1,426,15,F,1,left,0.3503109849989414,1,0,,,,,,,,,,,,,,,,,,,,,1,,,,,,,,,,,,,,,,,,,,,,,,,,,,,,,,,,,,,,,,,,,,,,95,151711,23,Female,1,2024/03/15_14:24:21,YZ,None,
,,,,,,test,1,1,1,426,16,S,0,right,0.34309784398647025,1,0,,,,,,,,,,,,,,,,,,,,,1,,,,,,,,,,,,,,,,,,,,,,,,,,,,,,,,,,,,,,,,,,,,,,95,151711,23,Female,1,2024/03/15_14:24:21,YZ,None,
,,,,,,test,1,1,1,426,17,J,0,right,0.5247593879757915,1,0,,,,,,,,,,,,,,,,,,,,,1,,,,,,,,,,,,,,,,,,,,,,,,,,,,,,,,,,,,,,,,,,,,,,95,151711,23,Female,1,2024/03/15_14:24:21,YZ,None,
,,,,,,Test,1,1,1,426,,,,,,,,1.0,1.0,0.0,1.0,0.0,1.0,0.3971350540626137,5,0,0,0,0,12,17,5,12,0,,,,1,,,,,,,,,,,,,,,,,,,,,,,,,,,,,,,,,,,,,,,,,,,,,,95,151711,23,Female,1,2024/03/15_14:24:21,YZ,None,
,,,,,240315_150306,TEST,1,1,1,426,,,,,,,,,,,,,,,,,,,,,,,,,,,,1,1,1,1,cue1.png,easy,A,44,1.64740078500472,0,1064.3162461180182,1065.9813675070181,,,,,,,,,,,,,,,,,,,,,,,,,,,,,,,,,,,95,151711,23,Female,1,2024/03/15_14:24:21,YZ,None,
,,,,,,test,1,2,3,426,1,N,0,right,0.22962887398898602,1,0,,,,,,,,,,,,,,,,,,,,,1,,,,,,,,,,,,,,,,,,,,,,,,,,,,,,,,,,,,,,,,,,,,,,95,151711,23,Female,1,2024/03/15_14:24:21,YZ,None,
,,,,,,test,1,2,3,426,2,N,0,right,0.26872356099192984,1,0,,,,,,,,,,,,,,,,,,,,,1,,,,,,,,,,,,,,,,,,,,,,,,,,,,,,,,,,,,,,,,,,,,,,95,151711,23,Female,1,2024/03/15_14:24:21,YZ,None,
,,,,,,test,1,2,3,426,3,V,0,right,0.4000138829869684,1,0,,,,,,,,,,,,,,,,,,,,,1,,,,,,,,,,,,,,,,,,,,,,,,,,,,,,,,,,,,,,,,,,,,,,95,151711,23,Female,1,2024/03/15_14:24:21,YZ,None,
,,,,,,test,1,2,3,426,4,J,0,right,0.4492209119780455,1,0,,,,,,,,,,,,,,,,,,,,,1,,,,,,,,,,,,,,,,,,,,,,,,,,,,,,,,,,,,,,,,,,,,,,95,151711,23,Female,1,2024/03/15_14:24:21,YZ,None,
,,,,,,test,1,2,3,426,5,N,1,left,0.6083119249960873,1,0,,,,,,,,,,,,,,,,,,,,,1,,,,,,,,,,,,,,,,,,,,,,,,,,,,,,,,,,,,,,,,,,,,,,95,151711,23,Female,1,2024/03/15_14:24:21,YZ,None,
,,,,,,test,1,2,3,426,6,C,0,right,0.4321242609876208,1,0,,,,,,,,,,,,,,,,,,,,,1,,,,,,,,,,,,,,,,,,,,,,,,,,,,,,,,,,,,,,,,,,,,,,95,151711,23,Female,1,2024/03/15_14:24:21,YZ,None,
,,,,,,test,1,2,3,426,7,C,0,right,0.4640882700041402,1,0,,,,,,,,,,,,,,,,,,,,,1,,,,,,,,,,,,,,,,,,,,,,,,,,,,,,,,,,,,,,,,,,,,,,95,151711,23,Female,1,2024/03/15_14:24:21,YZ,None,
,,,,,,test,1,2,3,426,8,Q,0,right,0.5434249720128719,1,0,,,,,,,,,,,,,,,,,,,,,1,,,,,,,,,,,,,,,,,,,,,,,,,,,,,,,,,,,,,,,,,,,,,,95,151711,23,Female,1,2024/03/15_14:24:21,YZ,None,
,,,,,,test,1,2,3,426,9,J,0,left,0.56885032900027,0,0,,,,,,,,,,,,,,,,,,,,,1,,,,,,,,,,,,,,,,,,,,,,,,,,,,,,,,,,,,,,,,,,,,,,95,151711,23,Female,1,2024/03/15_14:24:21,YZ,None,
,,,,,,test,1,2,3,426,10,C,1,right,0.41379412898095325,0,0,,,,,,,,,,,,,,,,,,,,,1,,,,,,,,,,,,,,,,,,,,,,,,,,,,,,,,,,,,,,,,,,,,,,95,151711,23,Female,1,2024/03/15_14:24:21,YZ,None,
,,,,,,test,1,2,3,426,11,Q,1,right,0.4876413629972376,0,0,,,,,,,,,,,,,,,,,,,,,1,,,,,,,,,,,,,,,,,,,,,,,,,,,,,,,,,,,,,,,,,,,,,,95,151711,23,Female,1,2024/03/15_14:24:21,YZ,None,
,,,,,,test,1,2,3,426,12,S,0,right,0.5287784259999171,1,0,,,,,,,,,,,,,,,,,,,,,1,,,,,,,,,,,,,,,,,,,,,,,,,,,,,,,,,,,,,,,,,,,,,,95,151711,23,Female,1,2024/03/15_14:24:21,YZ,None,
,,,,,,test,1,2,3,426,13,C,1,right,0.39017682601115666,0,0,,,,,,,,,,,,,,,,,,,,,1,,,,,,,,,,,,,,,,,,,,,,,,,,,,,,,,,,,,,,,,,,,,,,95,151711,23,Female,1,2024/03/15_14:24:21,YZ,None,
,,,,,,test,1,2,3,426,14,X,0,right,0.45836245399550535,1,0,,,,,,,,,,,,,,,,,,,,,1,,,,,,,,,,,,,,,,,,,,,,,,,,,,,,,,,,,,,,,,,,,,,,95,151711,23,Female,1,2024/03/15_14:24:21,YZ,None,
,,,,,,test,1,2,3,426,15,S,1,right,0.6144047760171816,0,0,,,,,,,,,,,,,,,,,,,,,1,,,,,,,,,,,,,,,,,,,,,,,,,,,,,,,,,,,,,,,,,,,,,,95,151711,23,Female,1,2024/03/15_14:24:21,YZ,None,
,,,,,,test,1,2,3,426,16,J,0,left,0.4522233190073166,0,0,,,,,,,,,,,,,,,,,,,,,1,,,,,,,,,,,,,,,,,,,,,,,,,,,,,,,,,,,,,,,,,,,,,,95,151711,23,Female,1,2024/03/15_14:24:21,YZ,None,
,,,,,,test,1,2,3,426,17,S,0,left,0.5123071859998163,0,0,,,,,,,,,,,,,,,,,,,,,1,,,,,,,,,,,,,,,,,,,,,,,,,,,,,,,,,,,,,,,,,,,,,,95,151711,23,Female,1,2024/03/15_14:24:21,YZ,None,
,,,,,,Test,1,2,3,426,,,,,,,,0.03749999999999998,0.2,0.25,0.75,0.0,0.75,0.4601220862327061,1,3,0,0,0,9,10,5,12,0,,,,1,,,,,,,,,,,,,,,,,,,,,,,,,,,,,,,,,,,,,,,,,,,,,,95,151711,23,Female,1,2024/03/15_14:24:21,YZ,None,
,,,,,240315_150334,TEST,1,2,3,426,,,,,,,,,,,,,,,,,,,,,,,,,,,,1,2,2,2,cue2.png,hard,A,42,1.8664867699844763,0,1090.8016331920226,1092.6850085060287,,,,,,,,,,,,,,,,,,,,,,,,,,,,,,,,,,,95,151711,23,Female,1,2024/03/15_14:24:21,YZ,None,
,,,,,,test,1,3,1,426,1,N,0,right,0.35562054900219664,1,0,,,,,,,,,,,,,,,,,,,,,1,,,,,,,,,,,,,,,,,,,,,,,,,,,,,,,,,,,,,,,,,,,,,,95,151711,23,Female,1,2024/03/15_14:24:21,YZ,None,
,,,,,,test,1,3,1,426,2,C,0,right,0.6231547629868146,1,0,,,,,,,,,,,,,,,,,,,,,1,,,,,,,,,,,,,,,,,,,,,,,,,,,,,,,,,,,,,,,,,,,,,,95,151711,23,Female,1,2024/03/15_14:24:21,YZ,None,
,,,,,,test,1,3,1,426,3,F,0,right,0.4899936369911302,1,0,,,,,,,,,,,,,,,,,,,,,1,,,,,,,,,,,,,,,,,,,,,,,,,,,,,,,,,,,,,,,,,,,,,,95,151711,23,Female,1,2024/03/15_14:24:21,YZ,None,
,,,,,,test,1,3,1,426,4,J,0,right,0.42814974300563335,1,0,,,,,,,,,,,,,,,,,,,,,1,,,,,,,,,,,,,,,,,,,,,,,,,,,,,,,,,,,,,,,,,,,,,,95,151711,23,Female,1,2024/03/15_14:24:21,YZ,None,
,,,,,,test,1,3,1,426,5,X,0,right,0.7286827549978625,1,0,,,,,,,,,,,,,,,,,,,,,1,,,,,,,,,,,,,,,,,,,,,,,,,,,,,,,,,,,,,,,,,,,,,,95,151711,23,Female,1,2024/03/15_14:24:21,YZ,None,
,,,,,,test,1,3,1,426,6,X,1,left,0.1321301200077869,1,0,,,,,,,,,,,,,,,,,,,,,1,,,,,,,,,,,,,,,,,,,,,,,,,,,,,,,,,,,,,,,,,,,,,,95,151711,23,Female,1,2024/03/15_14:24:21,YZ,None,
,,,,,,test,1,3,1,426,7,F,0,right,0.35310155601473525,1,0,,,,,,,,,,,,,,,,,,,,,1,,,,,,,,,,,,,,,,,,,,,,,,,,,,,,,,,,,,,,,,,,,,,,95,151711,23,Female,1,2024/03/15_14:24:21,YZ,None,
,,,,,,test,1,3,1,426,8,F,1,right,0.5303777020017151,0,0,,,,,,,,,,,,,,,,,,,,,1,,,,,,,,,,,,,,,,,,,,,,,,,,,,,,,,,,,,,,,,,,,,,,95,151711,23,Female,1,2024/03/15_14:24:21,YZ,None,
,,,,,,test,1,3,1,426,9,N,0,left,0.47399418900022283,0,0,,,,,,,,,,,,,,,,,,,,,1,,,,,,,,,,,,,,,,,,,,,,,,,,,,,,,,,,,,,,,,,,,,,,95,151711,23,Female,1,2024/03/15_14:24:21,YZ,None,
,,,,,,test,1,3,1,426,10,N,1,right,0.3135500000207685,0,0,,,,,,,,,,,,,,,,,,,,,1,,,,,,,,,,,,,,,,,,,,,,,,,,,,,,,,,,,,,,,,,,,,,,95,151711,23,Female,1,2024/03/15_14:24:21,YZ,None,
,,,,,,test,1,3,1,426,11,F,0,right,0.33977195800980553,1,0,,,,,,,,,,,,,,,,,,,,,1,,,,,,,,,,,,,,,,,,,,,,,,,,,,,,,,,,,,,,,,,,,,,,95,151711,23,Female,1,2024/03/15_14:24:21,YZ,None,
,,,,,,test,1,3,1,426,12,Q,0,right,0.308664851996582,1,0,,,,,,,,,,,,,,,,,,,,,1,,,,,,,,,,,,,,,,,,,,,,,,,,,,,,,,,,,,,,,,,,,,,,95,151711,23,Female,1,2024/03/15_14:24:21,YZ,None,
,,,,,,test,1,3,1,426,13,S,0,right,0.3539808829955291,1,0,,,,,,,,,,,,,,,,,,,,,1,,,,,,,,,,,,,,,,,,,,,,,,,,,,,,,,,,,,,,,,,,,,,,95,151711,23,Female,1,2024/03/15_14:24:21,YZ,None,
,,,,,,test,1,3,1,426,14,S,1,left,0.32823895299225114,1,0,,,,,,,,,,,,,,,,,,,,,1,,,,,,,,,,,,,,,,,,,,,,,,,,,,,,,,,,,,,,,,,,,,,,95,151711,23,Female,1,2024/03/15_14:24:21,YZ,None,
,,,,,,test,1,3,1,426,15,F,0,right,0.4923197970201727,1,0,,,,,,,,,,,,,,,,,,,,,1,,,,,,,,,,,,,,,,,,,,,,,,,,,,,,,,,,,,,,,,,,,,,,95,151711,23,Female,1,2024/03/15_14:24:21,YZ,None,
,,,,,,test,1,3,1,426,16,S,0,right,0.385635764017934,1,0,,,,,,,,,,,,,,,,,,,,,1,,,,,,,,,,,,,,,,,,,,,,,,,,,,,,,,,,,,,,,,,,,,,,95,151711,23,Female,1,2024/03/15_14:24:21,YZ,None,
