Instruction,Stimulus,Key,RT,START,END,Phase,Block,TrialN,NbackLevel,ISI,LetterN,Letter,Letter_isSame,Letter_Resp,Letter_RT,Letter_Accuracy,Letter_Timeout,Trial_A_measure,Trial_HR,Trial_FAR,Trial_CDR,Trial_MSR,Trial_ACC,Trial_RT,Trial_HitsCount,Trial_FAsCount,Trial_SameNoRespCount,Trial_DiffNoRespCount,Trial_NoRespCount,Trial_CDsCount,Trial_CorrectRespCount,Trial_SameLetterCount,Trial_DiffLetterCount,Trial_InvalidLetterCount,TrialCountCali,CaliEnd_A_measure,ISI_calibrated,Run,TrialIndex,TrialNumber_total,TrialNumber_valid,CueLearning,TrialDemandLearning,CueMapping,OnlineRating,OnlineRatingRT,OnlineRatingTimeOut,CueSTART,RatingSTART,OfflineRatingTimePoint,OfflineRatingQuesIndex,CueFigure,TrialDemand,OfflineRating,OfflineRatingRT,CueStart,OfflineRatingStart,PhaseType,CueLeft,CueDemandLeft,CueRight,CueDemandRight,Choice,ChoiceDemand,TaskDemand,ChoiceRT,ChoiceTimeOut,ChoiceSTART,CueCheck,CueDemandCheck,CorrectAnswer,Answer,AnswerDemand,AnswerRT,AnswerACC,AnswerTimeOut,CheckSTART,DemandRatingQuesIndex,QuesTLX,DemandLevel,DemandRating,DemandRatingRT,QuesStart,PID,SONA,Age,Gender,Run,TIME,EXPERIMENTER,frameRate,
1,./instructions/inst_begin/Slide2.png,right,32.06688110899995,0.10616418399877148,32.17304529299872,,,,,,,,,,,,,,,,,,,,,,,,,,,,,,,,,1,,,,,,,,,,,,,,,,,,,,,,,,,,,,,,,,,,,,,,,,,,,,,,83,148576,20,Male,1,2024/03/12_14:06:12,YZ,None,
2,./instructions/inst_begin/Slide3.png,right,13.62631712000075,32.202486818998295,45.828803938999044,,,,,,,,,,,,,,,,,,,,,,,,,,,,,,,,,1,,,,,,,,,,,,,,,,,,,,,,,,,,,,,,,,,,,,,,,,,,,,,,83,148576,20,Male,1,2024/03/12_14:06:12,YZ,None,
3,./instructions/inst_begin/Slide4.png,right,13.989534595002624,45.85529362499801,59.844828220000636,,,,,,,,,,,,,,,,,,,,,,,,,,,,,,,,,1,,,,,,,,,,,,,,,,,,,,,,,,,,,,,,,,,,,,,,,,,,,,,,83,148576,20,Male,1,2024/03/12_14:06:12,YZ,None,
1,./instructions/inst_prac_2/Slide6.png,right,20.494775940998807,59.87823285400009,80.3730087949989,,,,,,,,,,,,,,,,,,,,,,,,,,,,,,,,,1,,,,,,,,,,,,,,,,,,,,,,,,,,,,,,,,,,,,,,,,,,,,,,83,148576,20,Male,1,2024/03/12_14:06:12,YZ,None,
2,./instructions/inst_prac_2/Slide7.png,right,36.43041080800322,80.39846750499783,116.82887831300104,,,,,,,,,,,,,,,,,,,,,,,,,,,,,,,,,1,,,,,,,,,,,,,,,,,,,,,,,,,,,,,,,,,,,,,,,,,,,,,,83,148576,20,Male,1,2024/03/12_14:06:12,YZ,None,
3,./instructions/inst_prac_2/Slide8.png,right,14.580385615001433,116.856538136999,131.43692375200044,,,,,,,,,,,,,,,,,,,,,,,,,,,,,,,,,1,,,,,,,,,,,,,,,,,,,,,,,,,,,,,,,,,,,,,,,,,,,,,,83,148576,20,Male,1,2024/03/12_14:06:12,YZ,None,
4,./instructions/inst_prac_2/Slide9.png,right,14.779351920002227,131.4658555069982,146.24520742700042,,,,,,,,,,,,,,,,,,,,,,,,,,,,,,,,,1,,,,,,,,,,,,,,,,,,,,,,,,,,,,,,,,,,,,,,,,,,,,,,83,148576,20,Male,1,2024/03/12_14:06:12,YZ,None,
5,./instructions/inst_prac_2/Slide10.png,right,1.7708988349986612,146.2741400720006,148.04503890699925,,,,,,,,,,,,,,,,,,,,,,,,,,,,,,,,,1,,,,,,,,,,,,,,,,,,,,,,,,,,,,,,,,,,,,,,,,,,,,,,83,148576,20,Male,1,2024/03/12_14:06:12,YZ,None,
6,./instructions/inst_prac_2/Slide11.png,right,2.483202411996899,148.07372965000104,150.55693206199794,,,,,,,,,,,,,,,,,,,,,,,,,,,,,,,,,1,,,,,,,,,,,,,,,,,,,,,,,,,,,,,,,,,,,,,,,,,,,,,,83,148576,20,Male,1,2024/03/12_14:06:12,YZ,None,
7,./instructions/inst_prac_2/Slide12.png,right,1.8945854939993296,150.58229551800105,152.47688101200038,,,,,,,,,,,,,,,,,,,,,,,,,,,,,,,,,1,,,,,,,,,,,,,,,,,,,,,,,,,,,,,,,,,,,,,,,,,,,,,,83,148576,20,Male,1,2024/03/12_14:06:12,YZ,None,
8,./instructions/inst_prac_2/Slide13.png,right,1.8116580470014014,152.5054879349991,154.3171459820005,,,,,,,,,,,,,,,,,,,,,,,,,,,,,,,,,1,,,,,,,,,,,,,,,,,,,,,,,,,,,,,,,,,,,,,,,,,,,,,,83,148576,20,Male,1,2024/03/12_14:06:12,YZ,None,
9,./instructions/inst_prac_2/Slide14.png,right,19.44296115600082,154.3460353679984,173.78899652399923,,,,,,,,,,,,,,,,,,,,,,,,,,,,,,,,,1,,,,,,,,,,,,,,,,,,,,,,,,,,,,,,,,,,,,,,,,,,,,,,83,148576,20,Male,1,2024/03/12_14:06:12,YZ,None,
10,./instructions/inst_prac_2/Slide15.png,right,18.125511368001753,173.8154685269983,191.94097989500005,,,,,,,,,,,,,,,,,,,,,,,,,,,,,,,,,1,,,,,,,,,,,,,,,,,,,,,,,,,,,,,,,,,,,,,,,,,,,,,,83,148576,20,Male,1,2024/03/12_14:06:12,YZ,None,
,,,,,,practice,0,36,2,2583,1,X,0,right,2.201405022002291,1,0,,,,,,,,,,,,,,,,,,,,,1,,,,,,,,,,,,,,,,,,,,,,,,,,,,,,,,,,,,,,,,,,,,,,83,148576,20,Male,1,2024/03/12_14:06:12,YZ,None,
,,,,,,practice,0,36,2,2583,2,V,0,right,0.8193788889984717,1,0,,,,,,,,,,,,,,,,,,,,,1,,,,,,,,,,,,,,,,,,,,,,,,,,,,,,,,,,,,,,,,,,,,,,83,148576,20,Male,1,2024/03/12_14:06:12,YZ,None,
,,,,,,practice,0,36,2,2583,3,X,1,left,0.8076934719974815,1,0,,,,,,,,,,,,,,,,,,,,,1,,,,,,,,,,,,,,,,,,,,,,,,,,,,,,,,,,,,,,,,,,,,,,83,148576,20,Male,1,2024/03/12_14:06:12,YZ,None,
,,,,,,practice,0,36,2,2583,4,V,1,right,0.6394947939988924,0,0,,,,,,,,,,,,,,,,,,,,,1,,,,,,,,,,,,,,,,,,,,,,,,,,,,,,,,,,,,,,,,,,,,,,83,148576,20,Male,1,2024/03/12_14:06:12,YZ,None,
,,,,,,practice,0,36,2,2583,5,N,0,right,1.2337883609980054,1,0,,,,,,,,,,,,,,,,,,,,,1,,,,,,,,,,,,,,,,,,,,,,,,,,,,,,,,,,,,,,,,,,,,,,83,148576,20,Male,1,2024/03/12_14:06:12,YZ,None,
,,,,,,practice,0,36,2,2583,6,F,0,right,1.9154617189997225,1,0,,,,,,,,,,,,,,,,,,,,,1,,,,,,,,,,,,,,,,,,,,,,,,,,,,,,,,,,,,,,,,,,,,,,83,148576,20,Male,1,2024/03/12_14:06:12,YZ,None,
,,,,,,practice,0,36,2,2583,,,,,,,,0.875,0.5,0.0,1.0,0.0,1.0,1.2695370428324775,1,0,0,0,0,4,5,2,4,0,,,,1,,,,,,,,,,,,,,,,,,,,,,,,,,,,,,,,,,,,,,,,,,,,,,83,148576,20,Male,1,2024/03/12_14:06:12,YZ,None,
-1,./instructions/inst_to_cali/Slide20.png,left,7.1253656259978015,206.42378198799997,213.54914761399777,,,,,,,,,,,,,,,,,,,,,,,,,,,,,,,,,1,,,,,,,,,,,,,,,,,,,,,,,,,,,,,,,,,,,,,,,,,,,,,,83,148576,20,Male,1,2024/03/12_14:06:12,YZ,None,
,,,,,,practice,0,4,2,2583,1,J,0,right,0.9353916010004468,1,0,,,,,,,,,,,,,,,,,,,,,1,,,,,,,,,,,,,,,,,,,,,,,,,,,,,,,,,,,,,,,,,,,,,,83,148576,20,Male,1,2024/03/12_14:06:12,YZ,None,
,,,,,,practice,0,4,2,2583,2,C,0,right,0.5233266460018058,1,0,,,,,,,,,,,,,,,,,,,,,1,,,,,,,,,,,,,,,,,,,,,,,,,,,,,,,,,,,,,,,,,,,,,,83,148576,20,Male,1,2024/03/12_14:06:12,YZ,None,
,,,,,,practice,0,4,2,2583,3,J,1,left,0.3908990009986155,1,0,,,,,,,,,,,,,,,,,,,,,1,,,,,,,,,,,,,,,,,,,,,,,,,,,,,,,,,,,,,,,,,,,,,,83,148576,20,Male,1,2024/03/12_14:06:12,YZ,None,
,,,,,,practice,0,4,2,2583,4,C,1,right,0.3570908910005528,0,0,,,,,,,,,,,,,,,,,,,,,1,,,,,,,,,,,,,,,,,,,,,,,,,,,,,,,,,,,,,,,,,,,,,,83,148576,20,Male,1,2024/03/12_14:06:12,YZ,None,
,,,,,,practice,0,4,2,2583,5,X,0,right,1.139407785001822,1,0,,,,,,,,,,,,,,,,,,,,,1,,,,,,,,,,,,,,,,,,,,,,,,,,,,,,,,,,,,,,,,,,,,,,83,148576,20,Male,1,2024/03/12_14:06:12,YZ,None,
,,,,,,practice,0,4,2,2583,6,S,0,right,0.6366818649985362,1,0,,,,,,,,,,,,,,,,,,,,,1,,,,,,,,,,,,,,,,,,,,,,,,,,,,,,,,,,,,,,,,,,,,,,83,148576,20,Male,1,2024/03/12_14:06:12,YZ,None,
,,,,,,practice,0,4,2,2583,,,,,,,,0.875,0.5,0.0,1.0,0.0,1.0,0.6637996315002965,1,0,0,0,0,4,5,2,4,0,,,,1,,,,,,,,,,,,,,,,,,,,,,,,,,,,,,,,,,,,,,,,,,,,,,83,148576,20,Male,1,2024/03/12_14:06:12,YZ,None,
-1,./instructions/inst_to_cali/Slide20.png,left,0.8349849019978137,225.40202063000106,226.23700553199888,,,,,,,,,,,,,,,,,,,,,,,,,,,,,,,,,1,,,,,,,,,,,,,,,,,,,,,,,,,,,,,,,,,,,,,,,,,,,,,,83,148576,20,Male,1,2024/03/12_14:06:12,YZ,None,
,,,,,,practice,0,22,2,2583,1,J,0,right,0.7236212759999034,1,0,,,,,,,,,,,,,,,,,,,,,1,,,,,,,,,,,,,,,,,,,,,,,,,,,,,,,,,,,,,,,,,,,,,,83,148576,20,Male,1,2024/03/12_14:06:12,YZ,None,
,,,,,,practice,0,22,2,2583,2,Q,0,right,0.5250324919979903,1,0,,,,,,,,,,,,,,,,,,,,,1,,,,,,,,,,,,,,,,,,,,,,,,,,,,,,,,,,,,,,,,,,,,,,83,148576,20,Male,1,2024/03/12_14:06:12,YZ,None,
,,,,,,practice,0,22,2,2583,3,J,1,left,0.2999590489998809,1,0,,,,,,,,,,,,,,,,,,,,,1,,,,,,,,,,,,,,,,,,,,,,,,,,,,,,,,,,,,,,,,,,,,,,83,148576,20,Male,1,2024/03/12_14:06:12,YZ,None,
,,,,,,practice,0,22,2,2583,4,X,0,right,0.3808499340011622,1,0,,,,,,,,,,,,,,,,,,,,,1,,,,,,,,,,,,,,,,,,,,,,,,,,,,,,,,,,,,,,,,,,,,,,83,148576,20,Male,1,2024/03/12_14:06:12,YZ,None,
,,,,,,practice,0,22,2,2583,5,C,0,right,0.7081689719998394,1,0,,,,,,,,,,,,,,,,,,,,,1,,,,,,,,,,,,,,,,,,,,,,,,,,,,,,,,,,,,,,,,,,,,,,83,148576,20,Male,1,2024/03/12_14:06:12,YZ,None,
,,,,,,practice,0,22,2,2583,6,X,1,left,0.6782188639990636,1,0,,,,,,,,,,,,,,,,,,,,,1,,,,,,,,,,,,,,,,,,,,,,,,,,,,,,,,,,,,,,,,,,,,,,83,148576,20,Male,1,2024/03/12_14:06:12,YZ,None,
,,,,,,practice,0,22,2,2583,,,,,,,,1.0,1.0,0.0,1.0,0.0,1.0,0.55264176449964,2,0,0,0,0,4,6,2,4,0,,,,1,,,,,,,,,,,,,,,,,,,,,,,,,,,,,,,,,,,,,,,,,,,,,,83,148576,20,Male,1,2024/03/12_14:06:12,YZ,None,
1,./instructions/inst_to_cali/Slide20.png,right,2.273717054998997,236.90739999400103,239.18111704900002,,,,,,,,,,,,,,,,,,,,,,,,,,,,,,,,,1,,,,,,,,,,,,,,,,,,,,,,,,,,,,,,,,,,,,,,,,,,,,,,83,148576,20,Male,1,2024/03/12_14:06:12,YZ,None,
1,./instructions/inst_cali/Slide22.png,right,11.272565641000256,239.21219019199998,250.48475583300024,,,,,,,,,,,,,,,,,,,,,,,,,,,,,,,,,1,,,,,,,,,,,,,,,,,,,,,,,,,,,,,,,,,,,,,,,,,,,,,,83,148576,20,Male,1,2024/03/12_14:06:12,YZ,None,
,,,,,,calibration,0,25,2,583,1,N,0,right,0.4009622980011045,1,0,,,,,,,,,,,,,,,,,,,,,1,,,,,,,,,,,,,,,,,,,,,,,,,,,,,,,,,,,,,,,,,,,,,,83,148576,20,Male,1,2024/03/12_14:06:12,YZ,None,
,,,,,,calibration,0,25,2,583,2,X,0,right,0.4527666499998304,1,0,,,,,,,,,,,,,,,,,,,,,1,,,,,,,,,,,,,,,,,,,,,,,,,,,,,,,,,,,,,,,,,,,,,,83,148576,20,Male,1,2024/03/12_14:06:12,YZ,None,
,,,,,,calibration,0,25,2,583,3,S,0,right,0.6283114770012617,1,0,,,,,,,,,,,,,,,,,,,,,1,,,,,,,,,,,,,,,,,,,,,,,,,,,,,,,,,,,,,,,,,,,,,,83,148576,20,Male,1,2024/03/12_14:06:12,YZ,None,
,,,,,,calibration,0,25,2,583,4,V,0,right,0.6349595290012076,1,0,,,,,,,,,,,,,,,,,,,,,1,,,,,,,,,,,,,,,,,,,,,,,,,,,,,,,,,,,,,,,,,,,,,,83,148576,20,Male,1,2024/03/12_14:06:12,YZ,None,
,,,,,,calibration,0,25,2,583,5,C,0,left,0.6356042680017708,0,0,,,,,,,,,,,,,,,,,,,,,1,,,,,,,,,,,,,,,,,,,,,,,,,,,,,,,,,,,,,,,,,,,,,,83,148576,20,Male,1,2024/03/12_14:06:12,YZ,None,
,,,,,,calibration,0,25,2,583,6,X,0,right,0.47383809399980237,1,0,,,,,,,,,,,,,,,,,,,,,1,,,,,,,,,,,,,,,,,,,,,,,,,,,,,,,,,,,,,,,,,,,,,,83,148576,20,Male,1,2024/03/12_14:06:12,YZ,None,
,,,,,,calibration,0,25,2,583,7,F,0,right,0.5201399229990784,1,0,,,,,,,,,,,,,,,,,,,,,1,,,,,,,,,,,,,,,,,,,,,,,,,,,,,,,,,,,,,,,,,,,,,,83,148576,20,Male,1,2024/03/12_14:06:12,YZ,None,
,,,,,,calibration,0,25,2,583,8,V,0,left,0.6661070599984669,0,0,,,,,,,,,,,,,,,,,,,,,1,,,,,,,,,,,,,,,,,,,,,,,,,,,,,,,,,,,,,,,,,,,,,,83,148576,20,Male,1,2024/03/12_14:06:12,YZ,None,
,,,,,,calibration,0,25,2,583,9,J,0,right,0.6581520180006919,1,0,,,,,,,,,,,,,,,,,,,,,1,,,,,,,,,,,,,,,,,,,,,,,,,,,,,,,,,,,,,,,,,,,,,,83,148576,20,Male,1,2024/03/12_14:06:12,YZ,None,
,,,,,,calibration,0,25,2,583,10,Q,0,right,0.6086051209967991,1,0,,,,,,,,,,,,,,,,,,,,,1,,,,,,,,,,,,,,,,,,,,,,,,,,,,,,,,,,,,,,,,,,,,,,83,148576,20,Male,1,2024/03/12_14:06:12,YZ,None,
,,,,,,calibration,0,25,2,583,11,J,1,left,0.4517804880015319,1,0,,,,,,,,,,,,,,,,,,,,,1,,,,,,,,,,,,,,,,,,,,,,,,,,,,,,,,,,,,,,,,,,,,,,83,148576,20,Male,1,2024/03/12_14:06:12,YZ,None,
,,,,,,calibration,0,25,2,583,12,Q,1,right,0.6696036100001947,0,0,,,,,,,,,,,,,,,,,,,,,1,,,,,,,,,,,,,,,,,,,,,,,,,,,,,,,,,,,,,,,,,,,,,,83,148576,20,Male,1,2024/03/12_14:06:12,YZ,None,
,,,,,,calibration,0,25,2,583,13,X,0,left,0.5123665460014308,0,0,,,,,,,,,,,,,,,,,,,,,1,,,,,,,,,,,,,,,,,,,,,,,,,,,,,,,,,,,,,,,,,,,,,,83,148576,20,Male,1,2024/03/12_14:06:12,YZ,None,
,,,,,,calibration,0,25,2,583,14,Q,1,right,0.5126297610004258,0,0,,,,,,,,,,,,,,,,,,,,,1,,,,,,,,,,,,,,,,,,,,,,,,,,,,,,,,,,,,,,,,,,,,,,83,148576,20,Male,1,2024/03/12_14:06:12,YZ,None,
,,,,,,calibration,0,25,2,583,15,X,1,left,0.5124076800020703,1,0,,,,,,,,,,,,,,,,,,,,,1,,,,,,,,,,,,,,,,,,,,,,,,,,,,,,,,,,,,,,,,,,,,,,83,148576,20,Male,1,2024/03/12_14:06:12,YZ,None,
,,,,,,calibration,0,25,2,583,,,,,,,,0.6704545454545455,0.5,0.2727272727272727,0.7272727272727273,0.0,0.7272727272727273,0.5558823015337111,2,3,0,0,0,8,10,4,11,0,,,,1,,,,,,,,,,,,,,,,,,,,,,,,,,,,,,,,,,,,,,,,,,,,,,83,148576,20,Male,1,2024/03/12_14:06:12,YZ,None,
,,,,,,Calibration,0,,2,583,,,,,,,,,,,,,,,,,,,,,,,,,1,,,1,,,,,,,,,,,,,,,,,,,,,,,,,,,,,,,,,,,,,,,,,,,,,,83,148576,20,Male,1,2024/03/12_14:06:12,YZ,None,
,,,,,,calibration,0,6,2,679,1,V,0,right,0.3847362119995523,1,0,,,,,,,,,,,,,,,,,,,,,1,,,,,,,,,,,,,,,,,,,,,,,,,,,,,,,,,,,,,,,,,,,,,,83,148576,20,Male,1,2024/03/12_14:06:12,YZ,None,
,,,,,,calibration,0,6,2,679,2,F,0,right,0.38050464400294004,1,0,,,,,,,,,,,,,,,,,,,,,1,,,,,,,,,,,,,,,,,,,,,,,,,,,,,,,,,,,,,,,,,,,,,,83,148576,20,Male,1,2024/03/12_14:06:12,YZ,None,
,,,,,,calibration,0,6,2,679,3,N,0,right,0.6148678999998083,1,0,,,,,,,,,,,,,,,,,,,,,1,,,,,,,,,,,,,,,,,,,,,,,,,,,,,,,,,,,,,,,,,,,,,,83,148576,20,Male,1,2024/03/12_14:06:12,YZ,None,
,,,,,,calibration,0,6,2,679,4,J,0,right,0.45716369900037535,1,0,,,,,,,,,,,,,,,,,,,,,1,,,,,,,,,,,,,,,,,,,,,,,,,,,,,,,,,,,,,,,,,,,,,,83,148576,20,Male,1,2024/03/12_14:06:12,YZ,None,
,,,,,,calibration,0,6,2,679,5,N,1,right,0.5250438450020738,0,0,,,,,,,,,,,,,,,,,,,,,1,,,,,,,,,,,,,,,,,,,,,,,,,,,,,,,,,,,,,,,,,,,,,,83,148576,20,Male,1,2024/03/12_14:06:12,YZ,None,
,,,,,,calibration,0,6,2,679,6,X,0,right,0.46312367000064114,1,0,,,,,,,,,,,,,,,,,,,,,1,,,,,,,,,,,,,,,,,,,,,,,,,,,,,,,,,,,,,,,,,,,,,,83,148576,20,Male,1,2024/03/12_14:06:12,YZ,None,
,,,,,,calibration,0,6,2,679,7,C,0,right,0.552183915002388,1,0,,,,,,,,,,,,,,,,,,,,,1,,,,,,,,,,,,,,,,,,,,,,,,,,,,,,,,,,,,,,,,,,,,,,83,148576,20,Male,1,2024/03/12_14:06:12,YZ,None,
,,,,,,calibration,0,6,2,679,8,S,0,left,0.5124136459999136,0,0,,,,,,,,,,,,,,,,,,,,,1,,,,,,,,,,,,,,,,,,,,,,,,,,,,,,,,,,,,,,,,,,,,,,83,148576,20,Male,1,2024/03/12_14:06:12,YZ,None,
,,,,,,calibration,0,6,2,679,9,C,1,left,0.6592220549973717,1,0,,,,,,,,,,,,,,,,,,,,,1,,,,,,,,,,,,,,,,,,,,,,,,,,,,,,,,,,,,,,,,,,,,,,83,148576,20,Male,1,2024/03/12_14:06:12,YZ,None,
,,,,,,calibration,0,6,2,679,10,V,0,right,0.618372074997751,1,0,,,,,,,,,,,,,,,,,,,,,1,,,,,,,,,,,,,,,,,,,,,,,,,,,,,,,,,,,,,,,,,,,,,,83,148576,20,Male,1,2024/03/12_14:06:12,YZ,None,
,,,,,,calibration,0,6,2,679,11,C,1,left,0.4497492969967425,1,0,,,,,,,,,,,,,,,,,,,,,1,,,,,,,,,,,,,,,,,,,,,,,,,,,,,,,,,,,,,,,,,,,,,,83,148576,20,Male,1,2024/03/12_14:06:12,YZ,None,
,,,,,,calibration,0,6,2,679,12,X,0,right,0.537826836000022,1,0,,,,,,,,,,,,,,,,,,,,,1,,,,,,,,,,,,,,,,,,,,,,,,,,,,,,,,,,,,,,,,,,,,,,83,148576,20,Male,1,2024/03/12_14:06:12,YZ,None,
,,,,,,calibration,0,6,2,679,13,C,1,left,0.45480007199876127,1,0,,,,,,,,,,,,,,,,,,,,,1,,,,,,,,,,,,,,,,,,,,,,,,,,,,,,,,,,,,,,,,,,,,,,83,148576,20,Male,1,2024/03/12_14:06:12,YZ,None,
,,,,,,calibration,0,6,2,679,14,Q,0,right,0.4884495100013737,1,0,,,,,,,,,,,,,,,,,,,,,1,,,,,,,,,,,,,,,,,,,,,,,,,,,,,,,,,,,,,,,,,,,,,,83,148576,20,Male,1,2024/03/12_14:06:12,YZ,None,
,,,,,,calibration,0,6,2,679,,,,,,,,0.8875,0.75,0.1,0.9,0.0,0.9,0.5070326697142653,3,1,0,0,0,9,12,4,10,0,,,,1,,,,,,,,,,,,,,,,,,,,,,,,,,,,,,,,,,,,,,,,,,,,,,83,148576,20,Male,1,2024/03/12_14:06:12,YZ,None,
,,,,,,Calibration,0,,2,679,,,,,,,,,,,,,,,,,,,,,,,,,2,,,1,,,,,,,,,,,,,,,,,,,,,,,,,,,,,,,,,,,,,,,,,,,,,,83,148576,20,Male,1,2024/03/12_14:06:12,YZ,None,
,,,,,,calibration,0,28,2,583,1,V,0,right,0.4919063899978937,1,0,,,,,,,,,,,,,,,,,,,,,1,,,,,,,,,,,,,,,,,,,,,,,,,,,,,,,,,,,,,,,,,,,,,,83,148576,20,Male,1,2024/03/12_14:06:12,YZ,None,
,,,,,,calibration,0,28,2,583,2,Q,0,right,0.4844055440007651,1,0,,,,,,,,,,,,,,,,,,,,,1,,,,,,,,,,,,,,,,,,,,,,,,,,,,,,,,,,,,,,,,,,,,,,83,148576,20,Male,1,2024/03/12_14:06:12,YZ,None,
,,,,,,calibration,0,28,2,583,3,V,1,left,0.3994224710004346,1,0,,,,,,,,,,,,,,,,,,,,,1,,,,,,,,,,,,,,,,,,,,,,,,,,,,,,,,,,,,,,,,,,,,,,83,148576,20,Male,1,2024/03/12_14:06:12,YZ,None,
,,,,,,calibration,0,28,2,583,4,S,0,right,0.46036058500249055,1,0,,,,,,,,,,,,,,,,,,,,,1,,,,,,,,,,,,,,,,,,,,,,,,,,,,,,,,,,,,,,,,,,,,,,83,148576,20,Male,1,2024/03/12_14:06:12,YZ,None,
,,,,,,calibration,0,28,2,583,5,V,1,left,0.612934562999726,1,0,,,,,,,,,,,,,,,,,,,,,1,,,,,,,,,,,,,,,,,,,,,,,,,,,,,,,,,,,,,,,,,,,,,,83,148576,20,Male,1,2024/03/12_14:06:12,YZ,None,
,,,,,,calibration,0,28,2,583,6,S,1,left,0.5810507780006446,1,0,,,,,,,,,,,,,,,,,,,,,1,,,,,,,,,,,,,,,,,,,,,,,,,,,,,,,,,,,,,,,,,,,,,,83,148576,20,Male,1,2024/03/12_14:06:12,YZ,None,
,,,,,,calibration,0,28,2,583,7,X,0,right,0.45130878100098926,1,0,,,,,,,,,,,,,,,,,,,,,1,,,,,,,,,,,,,,,,,,,,,,,,,,,,,,,,,,,,,,,,,,,,,,83,148576,20,Male,1,2024/03/12_14:06:12,YZ,None,
,,,,,,calibration,0,28,2,583,8,C,0,right,0.9384272930001316,1,0,,,,,,,,,,,,,,,,,,,,,1,,,,,,,,,,,,,,,,,,,,,,,,,,,,,,,,,,,,,,,,,,,,,,83,148576,20,Male,1,2024/03/12_14:06:12,YZ,None,
,,,,,,calibration,0,28,2,583,9,F,0,right,0.48606754499996896,1,0,,,,,,,,,,,,,,,,,,,,,1,,,,,,,,,,,,,,,,,,,,,,,,,,,,,,,,,,,,,,,,,,,,,,83,148576,20,Male,1,2024/03/12_14:06:12,YZ,None,
,,,,,,calibration,0,28,2,583,10,C,1,left,0.40019118299824186,1,0,,,,,,,,,,,,,,,,,,,,,1,,,,,,,,,,,,,,,,,,,,,,,,,,,,,,,,,,,,,,,,,,,,,,83,148576,20,Male,1,2024/03/12_14:06:12,YZ,None,
,,,,,,calibration,0,28,2,583,11,S,0,left,0.6383720799967705,0,0,,,,,,,,,,,,,,,,,,,,,1,,,,,,,,,,,,,,,,,,,,,,,,,,,,,,,,,,,,,,,,,,,,,,83,148576,20,Male,1,2024/03/12_14:06:12,YZ,None,
,,,,,,calibration,0,28,2,583,12,C,1,left,0.5121491139980208,1,0,,,,,,,,,,,,,,,,,,,,,1,,,,,,,,,,,,,,,,,,,,,,,,,,,,,,,,,,,,,,,,,,,,,,83,148576,20,Male,1,2024/03/12_14:06:12,YZ,None,
,,,,,,calibration,0,28,2,583,13,Q,0,right,0.4849939039995661,1,0,,,,,,,,,,,,,,,,,,,,,1,,,,,,,,,,,,,,,,,,,,,,,,,,,,,,,,,,,,,,,,,,,,,,83,148576,20,Male,1,2024/03/12_14:06:12,YZ,None,
,,,,,,calibration,0,28,2,583,14,V,0,right,0.530087448998529,1,0,,,,,,,,,,,,,,,,,,,,,1,,,,,,,,,,,,,,,,,,,,,,,,,,,,,,,,,,,,,,,,,,,,,,83,148576,20,Male,1,2024/03/12_14:06:12,YZ,None,
,,,,,,calibration,0,28,2,583,15,C,0,left,0.49087169599806657,0,0,,,,,,,,,,,,,,,,,,,,,1,,,,,,,,,,,,,,,,,,,,,,,,,,,,,,,,,,,,,,,,,,,,,,83,148576,20,Male,1,2024/03/12_14:06:12,YZ,None,
,,,,,,calibration,0,28,2,583,,,,,,,,0.95,1.0,0.2,0.8,0.0,0.8,0.5308366250661493,5,2,0,0,0,8,13,5,10,0,,,,1,,,,,,,,,,,,,,,,,,,,,,,,,,,,,,,,,,,,,,,,,,,,,,83,148576,20,Male,1,2024/03/12_14:06:12,YZ,None,
,,,,,,Calibration,0,,2,583,,,,,,,,,,,,,,,,,,,,,,,,,3,,,1,,,,,,,,,,,,,,,,,,,,,,,,,,,,,,,,,,,,,,,,,,,,,,83,148576,20,Male,1,2024/03/12_14:06:12,YZ,None,
,,,,,,calibration,0,21,2,500,1,Q,0,right,0.4801545640002587,1,0,,,,,,,,,,,,,,,,,,,,,1,,,,,,,,,,,,,,,,,,,,,,,,,,,,,,,,,,,,,,,,,,,,,,83,148576,20,Male,1,2024/03/12_14:06:12,YZ,None,
,,,,,,calibration,0,21,2,500,2,C,0,right,0.47670730899699265,1,0,,,,,,,,,,,,,,,,,,,,,1,,,,,,,,,,,,,,,,,,,,,,,,,,,,,,,,,,,,,,,,,,,,,,83,148576,20,Male,1,2024/03/12_14:06:12,YZ,None,
,,,,,,calibration,0,21,2,500,3,Q,1,left,0.3486216979981691,1,0,,,,,,,,,,,,,,,,,,,,,1,,,,,,,,,,,,,,,,,,,,,,,,,,,,,,,,,,,,,,,,,,,,,,83,148576,20,Male,1,2024/03/12_14:06:12,YZ,None,
,,,,,,calibration,0,21,2,500,4,S,0,right,0.6638464940006088,1,0,,,,,,,,,,,,,,,,,,,,,1,,,,,,,,,,,,,,,,,,,,,,,,,,,,,,,,,,,,,,,,,,,,,,83,148576,20,Male,1,2024/03/12_14:06:12,YZ,None,
,,,,,,calibration,0,21,2,500,5,Q,1,left,0.6519982409990916,1,0,,,,,,,,,,,,,,,,,,,,,1,,,,,,,,,,,,,,,,,,,,,,,,,,,,,,,,,,,,,,,,,,,,,,83,148576,20,Male,1,2024/03/12_14:06:12,YZ,None,
,,,,,,calibration,0,21,2,500,6,N,0,right,0.44475439700181596,1,0,,,,,,,,,,,,,,,,,,,,,1,,,,,,,,,,,,,,,,,,,,,,,,,,,,,,,,,,,,,,,,,,,,,,83,148576,20,Male,1,2024/03/12_14:06:12,YZ,None,
,,,,,,calibration,0,21,2,500,7,F,0,right,0.6034228729986353,1,0,,,,,,,,,,,,,,,,,,,,,1,,,,,,,,,,,,,,,,,,,,,,,,,,,,,,,,,,,,,,,,,,,,,,83,148576,20,Male,1,2024/03/12_14:06:12,YZ,None,
,,,,,,calibration,0,21,2,500,8,V,0,right,0.6139395620011783,1,0,,,,,,,,,,,,,,,,,,,,,1,,,,,,,,,,,,,,,,,,,,,,,,,,,,,,,,,,,,,,,,,,,,,,83,148576,20,Male,1,2024/03/12_14:06:12,YZ,None,
,,,,,,calibration,0,21,2,500,9,X,0,left,0.5586678479994589,0,0,,,,,,,,,,,,,,,,,,,,,1,,,,,,,,,,,,,,,,,,,,,,,,,,,,,,,,,,,,,,,,,,,,,,83,148576,20,Male,1,2024/03/12_14:06:12,YZ,None,
,,,,,,calibration,0,21,2,500,10,V,1,right,0.36344260199985,0,0,,,,,,,,,,,,,,,,,,,,,1,,,,,,,,,,,,,,,,,,,,,,,,,,,,,,,,,,,,,,,,,,,,,,83,148576,20,Male,1,2024/03/12_14:06:12,YZ,None,
,,,,,,calibration,0,21,2,500,11,X,1,left,0.8108389660010289,1,0,,,,,,,,,,,,,,,,,,,,,1,,,,,,,,,,,,,,,,,,,,,,,,,,,,,,,,,,,,,,,,,,,,,,83,148576,20,Male,1,2024/03/12_14:06:12,YZ,None,
,,,,,,calibration,0,21,2,500,12,C,0,right,0.46693368300111615,1,0,,,,,,,,,,,,,,,,,,,,,1,,,,,,,,,,,,,,,,,,,,,,,,,,,,,,,,,,,,,,,,,,,,,,83,148576,20,Male,1,2024/03/12_14:06:12,YZ,None,
,,,,,,calibration,0,21,2,500,13,X,1,right,0.6105431379983202,0,0,,,,,,,,,,,,,,,,,,,,,1,,,,,,,,,,,,,,,,,,,,,,,,,,,,,,,,,,,,,,,,,,,,,,83,148576,20,Male,1,2024/03/12_14:06:12,YZ,None,
,,,,,,calibration,0,21,2,500,14,S,0,right,0.6534680750010011,1,0,,,,,,,,,,,,,,,,,,,,,1,,,,,,,,,,,,,,,,,,,,,,,,,,,,,,,,,,,,,,,,,,,,,,83,148576,20,Male,1,2024/03/12_14:06:12,YZ,None,
,,,,,,calibration,0,21,2,500,15,V,0,left,0.3611110100027872,0,0,,,,,,,,,,,,,,,,,,,,,1,,,,,,,,,,,,,,,,,,,,,,,,,,,,,,,,,,,,,,,,,,,,,,83,148576,20,Male,1,2024/03/12_14:06:12,YZ,None,
,,,,,,calibration,0,21,2,500,16,N,0,right,0.5167007079980976,1,0,,,,,,,,,,,,,,,,,,,,,1,,,,,,,,,,,,,,,,,,,,,,,,,,,,,,,,,,,,,,,,,,,,,,83,148576,20,Male,1,2024/03/12_14:06:12,YZ,None,
,,,,,,calibration,0,21,2,500,,,,,,,,0.7818181818181817,0.6,0.18181818181818182,0.8181818181818182,0.0,0.8181818181818181,0.5390719479999007,3,2,0,0,0,9,12,5,11,0,,,,1,,,,,,,,,,,,,,,,,,,,,,,,,,,,,,,,,,,,,,,,,,,,,,83,148576,20,Male,1,2024/03/12_14:06:12,YZ,None,
,,,,,,Calibration,0,,2,500,,,,,,,,,,,,,,,,,,,,,,,,,4,,,1,,,,,,,,,,,,,,,,,,,,,,,,,,,,,,,,,,,,,,,,,,,,,,83,148576,20,Male,1,2024/03/12_14:06:12,YZ,None,
,,,,,,calibration,0,12,2,500,1,V,0,right,0.48701010899821995,1,0,,,,,,,,,,,,,,,,,,,,,1,,,,,,,,,,,,,,,,,,,,,,,,,,,,,,,,,,,,,,,,,,,,,,83,148576,20,Male,1,2024/03/12_14:06:12,YZ,None,
,,,,,,calibration,0,12,2,500,2,V,0,right,0.4361408549993939,1,0,,,,,,,,,,,,,,,,,,,,,1,,,,,,,,,,,,,,,,,,,,,,,,,,,,,,,,,,,,,,,,,,,,,,83,148576,20,Male,1,2024/03/12_14:06:12,YZ,None,
,,,,,,calibration,0,12,2,500,3,Q,0,left,0.840963845999795,0,0,,,,,,,,,,,,,,,,,,,,,1,,,,,,,,,,,,,,,,,,,,,,,,,,,,,,,,,,,,,,,,,,,,,,83,148576,20,Male,1,2024/03/12_14:06:12,YZ,None,
,,,,,,calibration,0,12,2,500,4,S,0,right,0.6394342620005773,1,0,,,,,,,,,,,,,,,,,,,,,1,,,,,,,,,,,,,,,,,,,,,,,,,,,,,,,,,,,,,,,,,,,,,,83,148576,20,Male,1,2024/03/12_14:06:12,YZ,None,
,,,,,,calibration,0,12,2,500,5,C,0,right,0.8864056349993916,1,0,,,,,,,,,,,,,,,,,,,,,1,,,,,,,,,,,,,,,,,,,,,,,,,,,,,,,,,,,,,,,,,,,,,,83,148576,20,Male,1,2024/03/12_14:06:12,YZ,None,
,,,,,,calibration,0,12,2,500,6,S,1,right,0.4762859290021879,0,0,,,,,,,,,,,,,,,,,,,,,1,,,,,,,,,,,,,,,,,,,,,,,,,,,,,,,,,,,,,,,,,,,,,,83,148576,20,Male,1,2024/03/12_14:06:12,YZ,None,
,,,,,,calibration,0,12,2,500,7,V,0,right,0.5006513440021081,1,0,,,,,,,,,,,,,,,,,,,,,1,,,,,,,,,,,,,,,,,,,,,,,,,,,,,,,,,,,,,,,,,,,,,,83,148576,20,Male,1,2024/03/12_14:06:12,YZ,None,
,,,,,,calibration,0,12,2,500,8,J,0,right,0.4613900320000539,1,0,,,,,,,,,,,,,,,,,,,,,1,,,,,,,,,,,,,,,,,,,,,,,,,,,,,,,,,,,,,,,,,,,,,,83,148576,20,Male,1,2024/03/12_14:06:12,YZ,None,
,,,,,,calibration,0,12,2,500,9,V,1,left,0.5495364779999363,1,0,,,,,,,,,,,,,,,,,,,,,1,,,,,,,,,,,,,,,,,,,,,,,,,,,,,,,,,,,,,,,,,,,,,,83,148576,20,Male,1,2024/03/12_14:06:12,YZ,None,
,,,,,,calibration,0,12,2,500,10,S,0,right,0.5122147600013705,1,0,,,,,,,,,,,,,,,,,,,,,1,,,,,,,,,,,,,,,,,,,,,,,,,,,,,,,,,,,,,,,,,,,,,,83,148576,20,Male,1,2024/03/12_14:06:12,YZ,None,
,,,,,,calibration,0,12,2,500,11,V,1,left,0.6246289660011826,1,0,,,,,,,,,,,,,,,,,,,,,1,,,,,,,,,,,,,,,,,,,,,,,,,,,,,,,,,,,,,,,,,,,,,,83,148576,20,Male,1,2024/03/12_14:06:12,YZ,None,
,,,,,,calibration,0,12,2,500,12,S,1,left,0.6046714459989744,1,0,,,,,,,,,,,,,,,,,,,,,1,,,,,,,,,,,,,,,,,,,,,,,,,,,,,,,,,,,,,,,,,,,,,,83,148576,20,Male,1,2024/03/12_14:06:12,YZ,None,
,,,,,,calibration,0,12,2,500,13,Q,0,right,0.5296022870024899,1,0,,,,,,,,,,,,,,,,,,,,,1,,,,,,,,,,,,,,,,,,,,,,,,,,,,,,,,,,,,,,,,,,,,,,83,148576,20,Male,1,2024/03/12_14:06:12,YZ,None,
,,,,,,calibration,0,12,2,500,14,S,1,right,0.8650693769995996,0,0,,,,,,,,,,,,,,,,,,,,,1,,,,,,,,,,,,,,,,,,,,,,,,,,,,,,,,,,,,,,,,,,,,,,83,148576,20,Male,1,2024/03/12_14:06:12,YZ,None,
,,,,,,calibration,0,12,2,500,15,F,0,right,0.5993975390010746,1,0,,,,,,,,,,,,,,,,,,,,,1,,,,,,,,,,,,,,,,,,,,,,,,,,,,,,,,,,,,,,,,,,,,,,83,148576,20,Male,1,2024/03/12_14:06:12,YZ,None,
,,,,,,calibration,0,12,2,500,16,J,0,right,0.47779723499843385,1,0,,,,,,,,,,,,,,,,,,,,,1,,,,,,,,,,,,,,,,,,,,,,,,,,,,,,,,,,,,,,,,,,,,,,83,148576,20,Male,1,2024/03/12_14:06:12,YZ,None,
,,,,,,calibration,0,12,2,500,,,,,,,,0.8409090909090908,0.6,0.09090909090909091,0.9090909090909091,0.0,0.9090909090909091,0.5932000062502993,3,1,0,0,0,10,13,5,11,0,,,,1,,,,,,,,,,,,,,,,,,,,,,,,,,,,,,,,,,,,,,,,,,,,,,83,148576,20,Male,1,2024/03/12_14:06:12,YZ,None,
,,,,,,Calibration,0,,2,500,,,,,,,,,,,,,,,,,,,,,,,,,5,,,1,,,,,,,,,,,,,,,,,,,,,,,,,,,,,,,,,,,,,,,,,,,,,,83,148576,20,Male,1,2024/03/12_14:06:12,YZ,None,
,,,,,,calibration,0,36,2,500,1,N,0,right,0.45576676600103383,1,0,,,,,,,,,,,,,,,,,,,,,1,,,,,,,,,,,,,,,,,,,,,,,,,,,,,,,,,,,,,,,,,,,,,,83,148576,20,Male,1,2024/03/12_14:06:12,YZ,None,
,,,,,,calibration,0,36,2,500,2,V,0,right,0.43156899099994916,1,0,,,,,,,,,,,,,,,,,,,,,1,,,,,,,,,,,,,,,,,,,,,,,,,,,,,,,,,,,,,,,,,,,,,,83,148576,20,Male,1,2024/03/12_14:06:12,YZ,None,
,,,,,,calibration,0,36,2,500,3,N,1,left,0.3889218100011931,1,0,,,,,,,,,,,,,,,,,,,,,1,,,,,,,,,,,,,,,,,,,,,,,,,,,,,,,,,,,,,,,,,,,,,,83,148576,20,Male,1,2024/03/12_14:06:12,YZ,None,
,,,,,,calibration,0,36,2,500,4,F,0,right,0.4492630360000476,1,0,,,,,,,,,,,,,,,,,,,,,1,,,,,,,,,,,,,,,,,,,,,,,,,,,,,,,,,,,,,,,,,,,,,,83,148576,20,Male,1,2024/03/12_14:06:12,YZ,None,
,,,,,,calibration,0,36,2,500,5,J,0,right,0.48757494099845644,1,0,,,,,,,,,,,,,,,,,,,,,1,,,,,,,,,,,,,,,,,,,,,,,,,,,,,,,,,,,,,,,,,,,,,,83,148576,20,Male,1,2024/03/12_14:06:12,YZ,None,
,,,,,,calibration,0,36,2,500,6,F,1,left,0.46623527699921397,1,0,,,,,,,,,,,,,,,,,,,,,1,,,,,,,,,,,,,,,,,,,,,,,,,,,,,,,,,,,,,,,,,,,,,,83,148576,20,Male,1,2024/03/12_14:06:12,YZ,None,
,,,,,,calibration,0,36,2,500,7,J,1,right,0.5327877429990622,0,0,,,,,,,,,,,,,,,,,,,,,1,,,,,,,,,,,,,,,,,,,,,,,,,,,,,,,,,,,,,,,,,,,,,,83,148576,20,Male,1,2024/03/12_14:06:12,YZ,None,
,,,,,,calibration,0,36,2,500,8,N,0,right,0.5737704019993544,1,0,,,,,,,,,,,,,,,,,,,,,1,,,,,,,,,,,,,,,,,,,,,,,,,,,,,,,,,,,,,,,,,,,,,,83,148576,20,Male,1,2024/03/12_14:06:12,YZ,None,
,,,,,,calibration,0,36,2,500,9,J,1,left,0.43779937100043753,1,0,,,,,,,,,,,,,,,,,,,,,1,,,,,,,,,,,,,,,,,,,,,,,,,,,,,,,,,,,,,,,,,,,,,,83,148576,20,Male,1,2024/03/12_14:06:12,YZ,None,
,,,,,,calibration,0,36,2,500,10,F,0,right,0.424515329003043,1,0,,,,,,,,,,,,,,,,,,,,,1,,,,,,,,,,,,,,,,,,,,,,,,,,,,,,,,,,,,,,,,,,,,,,83,148576,20,Male,1,2024/03/12_14:06:12,YZ,None,
,,,,,,calibration,0,36,2,500,11,Q,0,right,0.47356104099890217,1,0,,,,,,,,,,,,,,,,,,,,,1,,,,,,,,,,,,,,,,,,,,,,,,,,,,,,,,,,,,,,,,,,,,,,83,148576,20,Male,1,2024/03/12_14:06:12,YZ,None,
,,,,,,calibration,0,36,2,500,12,X,0,right,0.4811482849981985,1,0,,,,,,,,,,,,,,,,,,,,,1,,,,,,,,,,,,,,,,,,,,,,,,,,,,,,,,,,,,,,,,,,,,,,83,148576,20,Male,1,2024/03/12_14:06:12,YZ,None,
,,,,,,calibration,0,36,2,500,13,J,0,left,0.49013711500083446,0,0,,,,,,,,,,,,,,,,,,,,,1,,,,,,,,,,,,,,,,,,,,,,,,,,,,,,,,,,,,,,,,,,,,,,83,148576,20,Male,1,2024/03/12_14:06:12,YZ,None,
,,,,,,calibration,0,36,2,500,14,F,0,right,0.5003389090015844,1,0,,,,,,,,,,,,,,,,,,,,,1,,,,,,,,,,,,,,,,,,,,,,,,,,,,,,,,,,,,,,,,,,,,,,83,148576,20,Male,1,2024/03/12_14:06:12,YZ,None,
,,,,,,calibration,0,36,2,500,15,S,0,right,0.4958000910010014,1,0,,,,,,,,,,,,,,,,,,,,,1,,,,,,,,,,,,,,,,,,,,,,,,,,,,,,,,,,,,,,,,,,,,,,83,148576,20,Male,1,2024/03/12_14:06:12,YZ,None,
,,,,,,calibration,0,36,2,500,16,X,0,right,0.8097628409996105,1,0,,,,,,,,,,,,,,,,,,,,,1,,,,,,,,,,,,,,,,,,,,,,,,,,,,,,,,,,,,,,,,,,,,,,83,148576,20,Male,1,2024/03/12_14:06:12,YZ,None,
,,,,,,calibration,0,36,2,500,,,,,,,,0.8958333333333333,0.75,0.08333333333333333,0.9166666666666666,0.0,0.9166666666666666,0.49368449675012016,3,1,0,0,0,11,14,4,12,0,,,,1,,,,,,,,,,,,,,,,,,,,,,,,,,,,,,,,,,,,,,,,,,,,,,83,148576,20,Male,1,2024/03/12_14:06:12,YZ,None,
,,,,,,Calibration,0,,2,500,,,,,,,,,,,,,,,,,,,,,,,,,6,,,1,,,,,,,,,,,,,,,,,,,,,,,,,,,,,,,,,,,,,,,,,,,,,,83,148576,20,Male,1,2024/03/12_14:06:12,YZ,None,
,,,,,,calibration,0,6,2,426,1,J,0,right,0.3818446160003077,1,0,,,,,,,,,,,,,,,,,,,,,1,,,,,,,,,,,,,,,,,,,,,,,,,,,,,,,,,,,,,,,,,,,,,,83,148576,20,Male,1,2024/03/12_14:06:12,YZ,None,
,,,,,,calibration,0,6,2,426,2,C,0,right,0.4662177199970756,1,0,,,,,,,,,,,,,,,,,,,,,1,,,,,,,,,,,,,,,,,,,,,,,,,,,,,,,,,,,,,,,,,,,,,,83,148576,20,Male,1,2024/03/12_14:06:12,YZ,None,
,,,,,,calibration,0,6,2,426,3,J,1,left,0.33001700599925243,1,0,,,,,,,,,,,,,,,,,,,,,1,,,,,,,,,,,,,,,,,,,,,,,,,,,,,,,,,,,,,,,,,,,,,,83,148576,20,Male,1,2024/03/12_14:06:12,YZ,None,
,,,,,,calibration,0,6,2,426,4,Q,0,right,0.4602187939999567,1,0,,,,,,,,,,,,,,,,,,,,,1,,,,,,,,,,,,,,,,,,,,,,,,,,,,,,,,,,,,,,,,,,,,,,83,148576,20,Male,1,2024/03/12_14:06:12,YZ,None,
,,,,,,calibration,0,6,2,426,5,S,0,right,0.5302670100027171,1,0,,,,,,,,,,,,,,,,,,,,,1,,,,,,,,,,,,,,,,,,,,,,,,,,,,,,,,,,,,,,,,,,,,,,83,148576,20,Male,1,2024/03/12_14:06:12,YZ,None,
,,,,,,calibration,0,6,2,426,6,Q,1,left,0.5845227489990066,1,0,,,,,,,,,,,,,,,,,,,,,1,,,,,,,,,,,,,,,,,,,,,,,,,,,,,,,,,,,,,,,,,,,,,,83,148576,20,Male,1,2024/03/12_14:06:12,YZ,None,
,,,,,,calibration,0,6,2,426,7,F,0,right,0.49300064699855284,1,0,,,,,,,,,,,,,,,,,,,,,1,,,,,,,,,,,,,,,,,,,,,,,,,,,,,,,,,,,,,,,,,,,,,,83,148576,20,Male,1,2024/03/12_14:06:12,YZ,None,
,,,,,,calibration,0,6,2,426,8,Q,1,right,0.5248917149983754,0,0,,,,,,,,,,,,,,,,,,,,,1,,,,,,,,,,,,,,,,,,,,,,,,,,,,,,,,,,,,,,,,,,,,,,83,148576,20,Male,1,2024/03/12_14:06:12,YZ,None,
,,,,,,calibration,0,6,2,426,9,X,0,right,0.8141502719990967,1,0,,,,,,,,,,,,,,,,,,,,,1,,,,,,,,,,,,,,,,,,,,,,,,,,,,,,,,,,,,,,,,,,,,,,83,148576,20,Male,1,2024/03/12_14:06:12,YZ,None,
,,,,,,calibration,0,6,2,426,10,Q,1,right,0.4409598359998199,0,0,,,,,,,,,,,,,,,,,,,,,1,,,,,,,,,,,,,,,,,,,,,,,,,,,,,,,,,,,,,,,,,,,,,,83,148576,20,Male,1,2024/03/12_14:06:12,YZ,None,
,,,,,,calibration,0,6,2,426,11,C,0,right,0.8815507649997016,1,0,,,,,,,,,,,,,,,,,,,,,1,,,,,,,,,,,,,,,,,,,,,,,,,,,,,,,,,,,,,,,,,,,,,,83,148576,20,Male,1,2024/03/12_14:06:12,YZ,None,
,,,,,,calibration,0,6,2,426,12,N,0,right,0.6484461439977167,1,0,,,,,,,,,,,,,,,,,,,,,1,,,,,,,,,,,,,,,,,,,,,,,,,,,,,,,,,,,,,,,,,,,,,,83,148576,20,Male,1,2024/03/12_14:06:12,YZ,None,
,,,,,,calibration,0,6,2,426,13,J,0,right,0.9584267150021333,1,0,,,,,,,,,,,,,,,,,,,,,1,,,,,,,,,,,,,,,,,,,,,,,,,,,,,,,,,,,,,,,,,,,,,,83,148576,20,Male,1,2024/03/12_14:06:12,YZ,None,
,,,,,,calibration,0,6,2,426,14,N,1,right,0.6726527440005157,0,0,,,,,,,,,,,,,,,,,,,,,1,,,,,,,,,,,,,,,,,,,,,,,,,,,,,,,,,,,,,,,,,,,,,,83,148576,20,Male,1,2024/03/12_14:06:12,YZ,None,
,,,,,,calibration,0,6,2,426,15,X,0,right,0.6816213060010341,1,0,,,,,,,,,,,,,,,,,,,,,1,,,,,,,,,,,,,,,,,,,,,,,,,,,,,,,,,,,,,,,,,,,,,,83,148576,20,Male,1,2024/03/12_14:06:12,YZ,None,
,,,,,,calibration,0,6,2,426,16,C,0,left,0.518512902999646,0,0,,,,,,,,,,,,,,,,,,,,,1,,,,,,,,,,,,,,,,,,,,,,,,,,,,,,,,,,,,,,,,,,,,,,83,148576,20,Male,1,2024/03/12_14:06:12,YZ,None,
,,,,,,calibration,0,6,2,426,17,Q,0,right,0.37745077200088417,1,0,,,,,,,,,,,,,,,,,,,,,1,,,,,,,,,,,,,,,,,,,,,,,,,,,,,,,,,,,,,,,,,,,,,,83,148576,20,Male,1,2024/03/12_14:06:12,YZ,None,
,,,,,,calibration,0,6,2,426,,,,,,,,0.7770833333333333,0.4,0.08333333333333333,0.9166666666666666,0.0,0.9166666666666666,0.5743971596468114,2,1,0,0,0,11,13,5,12,0,,,,1,,,,,,,,,,,,,,,,,,,,,,,,,,,,,,,,,,,,,,,,,,,,,,83,148576,20,Male,1,2024/03/12_14:06:12,YZ,None,
,,,,,,Calibration,0,,2,426,,,,,,,,,,,,,,,,,,,,,,,,,7,,,1,,,,,,,,,,,,,,,,,,,,,,,,,,,,,,,,,,,,,,,,,,,,,,83,148576,20,Male,1,2024/03/12_14:06:12,YZ,None,
,,,,,,calibration,0,32,2,426,1,N,0,right,0.4592557109972404,1,0,,,,,,,,,,,,,,,,,,,,,1,,,,,,,,,,,,,,,,,,,,,,,,,,,,,,,,,,,,,,,,,,,,,,83,148576,20,Male,1,2024/03/12_14:06:12,YZ,None,
,,,,,,calibration,0,32,2,426,2,X,0,right,0.34533005299817887,1,0,,,,,,,,,,,,,,,,,,,,,1,,,,,,,,,,,,,,,,,,,,,,,,,,,,,,,,,,,,,,,,,,,,,,83,148576,20,Male,1,2024/03/12_14:06:12,YZ,None,
,,,,,,calibration,0,32,2,426,3,N,1,left,0.3004073049996805,1,0,,,,,,,,,,,,,,,,,,,,,1,,,,,,,,,,,,,,,,,,,,,,,,,,,,,,,,,,,,,,,,,,,,,,83,148576,20,Male,1,2024/03/12_14:06:12,YZ,None,
,,,,,,calibration,0,32,2,426,4,C,0,right,0.44028425400028937,1,0,,,,,,,,,,,,,,,,,,,,,1,,,,,,,,,,,,,,,,,,,,,,,,,,,,,,,,,,,,,,,,,,,,,,83,148576,20,Male,1,2024/03/12_14:06:12,YZ,None,
,,,,,,calibration,0,32,2,426,5,J,0,right,0.5849894900020445,1,0,,,,,,,,,,,,,,,,,,,,,1,,,,,,,,,,,,,,,,,,,,,,,,,,,,,,,,,,,,,,,,,,,,,,83,148576,20,Male,1,2024/03/12_14:06:12,YZ,None,
,,,,,,calibration,0,32,2,426,6,X,0,right,0.4473199909989489,1,0,,,,,,,,,,,,,,,,,,,,,1,,,,,,,,,,,,,,,,,,,,,,,,,,,,,,,,,,,,,,,,,,,,,,83,148576,20,Male,1,2024/03/12_14:06:12,YZ,None,
,,,,,,calibration,0,32,2,426,7,V,0,right,0.512397084999975,1,0,,,,,,,,,,,,,,,,,,,,,1,,,,,,,,,,,,,,,,,,,,,,,,,,,,,,,,,,,,,,,,,,,,,,83,148576,20,Male,1,2024/03/12_14:06:12,YZ,None,
,,,,,,calibration,0,32,2,426,8,C,0,right,0.7304165100031241,1,0,,,,,,,,,,,,,,,,,,,,,1,,,,,,,,,,,,,,,,,,,,,,,,,,,,,,,,,,,,,,,,,,,,,,83,148576,20,Male,1,2024/03/12_14:06:12,YZ,None,
,,,,,,calibration,0,32,2,426,9,Q,0,right,0.46581588800108875,1,0,,,,,,,,,,,,,,,,,,,,,1,,,,,,,,,,,,,,,,,,,,,,,,,,,,,,,,,,,,,,,,,,,,,,83,148576,20,Male,1,2024/03/12_14:06:12,YZ,None,
,,,,,,calibration,0,32,2,426,10,C,1,left,0.6324026760012202,1,0,,,,,,,,,,,,,,,,,,,,,1,,,,,,,,,,,,,,,,,,,,,,,,,,,,,,,,,,,,,,,,,,,,,,83,148576,20,Male,1,2024/03/12_14:06:12,YZ,None,
,,,,,,calibration,0,32,2,426,11,Q,1,right,0.3631712360001984,0,0,,,,,,,,,,,,,,,,,,,,,1,,,,,,,,,,,,,,,,,,,,,,,,,,,,,,,,,,,,,,,,,,,,,,83,148576,20,Male,1,2024/03/12_14:06:12,YZ,None,
,,,,,,calibration,0,32,2,426,12,J,0,right,0.5498442420030187,1,0,,,,,,,,,,,,,,,,,,,,,1,,,,,,,,,,,,,,,,,,,,,,,,,,,,,,,,,,,,,,,,,,,,,,83,148576,20,Male,1,2024/03/12_14:06:12,YZ,None,
,,,,,,calibration,0,32,2,426,13,X,0,right,0.6096959809983673,1,0,,,,,,,,,,,,,,,,,,,,,1,,,,,,,,,,,,,,,,,,,,,,,,,,,,,,,,,,,,,,,,,,,,,,83,148576,20,Male,1,2024/03/12_14:06:12,YZ,None,
,,,,,,calibration,0,32,2,426,14,F,0,right,0.48216868199961027,1,0,,,,,,,,,,,,,,,,,,,,,1,,,,,,,,,,,,,,,,,,,,,,,,,,,,,,,,,,,,,,,,,,,,,,83,148576,20,Male,1,2024/03/12_14:06:12,YZ,None,
,,,,,,calibration,0,32,2,426,15,X,1,left,0.32969176299957326,1,0,,,,,,,,,,,,,,,,,,,,,1,,,,,,,,,,,,,,,,,,,,,,,,,,,,,,,,,,,,,,,,,,,,,,83,148576,20,Male,1,2024/03/12_14:06:12,YZ,None,
,,,,,,calibration,0,32,2,426,16,V,0,right,0.45259914900088916,1,0,,,,,,,,,,,,,,,,,,,,,1,,,,,,,,,,,,,,,,,,,,,,,,,,,,,,,,,,,,,,,,,,,,,,83,148576,20,Male,1,2024/03/12_14:06:12,YZ,None,
,,,,,,calibration,0,32,2,426,17,X,1,right,0.6088832679997722,0,0,,,,,,,,,,,,,,,,,,,,,1,,,,,,,,,,,,,,,,,,,,,,,,,,,,,,,,,,,,,,,,,,,,,,83,148576,20,Male,1,2024/03/12_14:06:12,YZ,None,
,,,,,,calibration,0,32,2,426,,,,,,,,0.9,0.6,0.0,1.0,0.0,1.0,0.48909842847077767,3,0,0,0,0,12,15,5,12,0,,,,1,,,,,,,,,,,,,,,,,,,,,,,,,,,,,,,,,,,,,,,,,,,,,,83,148576,20,Male,1,2024/03/12_14:06:12,YZ,None,
,,,,,,Calibration,0,,2,426,,,,,,,,,,,,,,,,,,,,,,,,,8,,,1,,,,,,,,,,,,,,,,,,,,,,,,,,,,,,,,,,,,,,,,,,,,,,83,148576,20,Male,1,2024/03/12_14:06:12,YZ,None,
,,,,,,calibration,0,7,2,361,1,F,0,right,0.19720774199959124,1,0,,,,,,,,,,,,,,,,,,,,,1,,,,,,,,,,,,,,,,,,,,,,,,,,,,,,,,,,,,,,,,,,,,,,83,148576,20,Male,1,2024/03/12_14:06:12,YZ,None,
,,,,,,calibration,0,7,2,361,2,N,0,right,0.46097521599949687,1,0,,,,,,,,,,,,,,,,,,,,,1,,,,,,,,,,,,,,,,,,,,,,,,,,,,,,,,,,,,,,,,,,,,,,83,148576,20,Male,1,2024/03/12_14:06:12,YZ,None,
,,,,,,calibration,0,7,2,361,3,X,0,left,0.485104808001779,0,0,,,,,,,,,,,,,,,,,,,,,1,,,,,,,,,,,,,,,,,,,,,,,,,,,,,,,,,,,,,,,,,,,,,,83,148576,20,Male,1,2024/03/12_14:06:12,YZ,None,
,,,,,,calibration,0,7,2,361,4,N,1,right,0.46328149500186555,0,0,,,,,,,,,,,,,,,,,,,,,1,,,,,,,,,,,,,,,,,,,,,,,,,,,,,,,,,,,,,,,,,,,,,,83,148576,20,Male,1,2024/03/12_14:06:12,YZ,None,
,,,,,,calibration,0,7,2,361,5,Q,0,right,0.523489081999287,1,0,,,,,,,,,,,,,,,,,,,,,1,,,,,,,,,,,,,,,,,,,,,,,,,,,,,,,,,,,,,,,,,,,,,,83,148576,20,Male,1,2024/03/12_14:06:12,YZ,None,
,,,,,,calibration,0,7,2,361,6,S,0,right,0.5125839620013721,1,0,,,,,,,,,,,,,,,,,,,,,1,,,,,,,,,,,,,,,,,,,,,,,,,,,,,,,,,,,,,,,,,,,,,,83,148576,20,Male,1,2024/03/12_14:06:12,YZ,None,
,,,,,,calibration,0,7,2,361,7,Q,1,left,0.6246893569987151,1,0,,,,,,,,,,,,,,,,,,,,,1,,,,,,,,,,,,,,,,,,,,,,,,,,,,,,,,,,,,,,,,,,,,,,83,148576,20,Male,1,2024/03/12_14:06:12,YZ,None,
,,,,,,calibration,0,7,2,361,8,V,0,right,0.492252569001721,1,0,,,,,,,,,,,,,,,,,,,,,1,,,,,,,,,,,,,,,,,,,,,,,,,,,,,,,,,,,,,,,,,,,,,,83,148576,20,Male,1,2024/03/12_14:06:12,YZ,None,
,,,,,,calibration,0,7,2,361,9,F,0,right,0.33206059300209745,1,0,,,,,,,,,,,,,,,,,,,,,1,,,,,,,,,,,,,,,,,,,,,,,,,,,,,,,,,,,,,,,,,,,,,,83,148576,20,Male,1,2024/03/12_14:06:12,YZ,None,
,,,,,,calibration,0,7,2,361,10,J,0,right,0.5483999739990395,1,0,,,,,,,,,,,,,,,,,,,,,1,,,,,,,,,,,,,,,,,,,,,,,,,,,,,,,,,,,,,,,,,,,,,,83,148576,20,Male,1,2024/03/12_14:06:12,YZ,None,
,,,,,,calibration,0,7,2,361,11,F,1,left,0.42460289299924625,1,0,,,,,,,,,,,,,,,,,,,,,1,,,,,,,,,,,,,,,,,,,,,,,,,,,,,,,,,,,,,,,,,,,,,,83,148576,20,Male,1,2024/03/12_14:06:12,YZ,None,
,,,,,,calibration,0,7,2,361,12,J,1,right,0.41154199200173025,0,0,,,,,,,,,,,,,,,,,,,,,1,,,,,,,,,,,,,,,,,,,,,,,,,,,,,,,,,,,,,,,,,,,,,,83,148576,20,Male,1,2024/03/12_14:06:12,YZ,None,
,,,,,,calibration,0,7,2,361,13,V,0,right,0.5887904579976748,1,0,,,,,,,,,,,,,,,,,,,,,1,,,,,,,,,,,,,,,,,,,,,,,,,,,,,,,,,,,,,,,,,,,,,,83,148576,20,Male,1,2024/03/12_14:06:12,YZ,None,
,,,,,,calibration,0,7,2,361,14,J,1,right,0.858938904999377,0,0,,,,,,,,,,,,,,,,,,,,,1,,,,,,,,,,,,,,,,,,,,,,,,,,,,,,,,,,,,,,,,,,,,,,83,148576,20,Male,1,2024/03/12_14:06:12,YZ,None,
,,,,,,calibration,0,7,2,361,15,C,0,right,0.4540572779987997,1,0,,,,,,,,,,,,,,,,,,,,,1,,,,,,,,,,,,,,,,,,,,,,,,,,,,,,,,,,,,,,,,,,,,,,83,148576,20,Male,1,2024/03/12_14:06:12,YZ,None,
,,,,,,calibration,0,7,2,361,16,Q,0,right,0.3885940899999696,1,0,,,,,,,,,,,,,,,,,,,,,1,,,,,,,,,,,,,,,,,,,,,,,,,,,,,,,,,,,,,,,,,,,,,,83,148576,20,Male,1,2024/03/12_14:06:12,YZ,None,
,,,,,,calibration,0,7,2,361,17,J,0,right,0.5758564839998144,1,0,,,,,,,,,,,,,,,,,,,,,1,,,,,,,,,,,,,,,,,,,,,,,,,,,,,,,,,,,,,,,,,,,,,,83,148576,20,Male,1,2024/03/12_14:06:12,YZ,None,
,,,,,,calibration,0,7,2,361,18,V,0,right,0.5542210690000502,1,0,,,,,,,,,,,,,,,,,,,,,1,,,,,,,,,,,,,,,,,,,,,,,,,,,,,,,,,,,,,,,,,,,,,,83,148576,20,Male,1,2024/03/12_14:06:12,YZ,None,
,,,,,,calibration,0,7,2,361,,,,,,,,0.7826923076923077,0.4,0.07692307692307693,0.9230769230769231,0.0,0.9230769230769231,0.49425822038897926,2,1,0,0,0,12,14,5,13,0,,,,1,,,,,,,,,,,,,,,,,,,,,,,,,,,,,,,,,,,,,,,,,,,,,,83,148576,20,Male,1,2024/03/12_14:06:12,YZ,None,
,,,,,,Calibration,0,,2,361,,,,,,,,,,,,,,,,,,,,,,,,,9,,,1,,,,,,,,,,,,,,,,,,,,,,,,,,,,,,,,,,,,,,,,,,,,,,83,148576,20,Male,1,2024/03/12_14:06:12,YZ,None,
,,,,,,calibration,0,4,2,361,1,V,0,right,0.3917991889975383,1,0,,,,,,,,,,,,,,,,,,,,,1,,,,,,,,,,,,,,,,,,,,,,,,,,,,,,,,,,,,,,,,,,,,,,83,148576,20,Male,1,2024/03/12_14:06:12,YZ,None,
,,,,,,calibration,0,4,2,361,2,N,0,right,0.42442524999933084,1,0,,,,,,,,,,,,,,,,,,,,,1,,,,,,,,,,,,,,,,,,,,,,,,,,,,,,,,,,,,,,,,,,,,,,83,148576,20,Male,1,2024/03/12_14:06:12,YZ,None,
,,,,,,calibration,0,4,2,361,3,V,1,left,0.32964885600085836,1,0,,,,,,,,,,,,,,,,,,,,,1,,,,,,,,,,,,,,,,,,,,,,,,,,,,,,,,,,,,,,,,,,,,,,83,148576,20,Male,1,2024/03/12_14:06:12,YZ,None,
,,,,,,calibration,0,4,2,361,4,N,1,left,0.4756427869979234,1,0,,,,,,,,,,,,,,,,,,,,,1,,,,,,,,,,,,,,,,,,,,,,,,,,,,,,,,,,,,,,,,,,,,,,83,148576,20,Male,1,2024/03/12_14:06:12,YZ,None,
,,,,,,calibration,0,4,2,361,5,J,0,right,0.3963409070020134,1,0,,,,,,,,,,,,,,,,,,,,,1,,,,,,,,,,,,,,,,,,,,,,,,,,,,,,,,,,,,,,,,,,,,,,83,148576,20,Male,1,2024/03/12_14:06:12,YZ,None,
,,,,,,calibration,0,4,2,361,6,X,0,right,0.6826779999973951,1,0,,,,,,,,,,,,,,,,,,,,,1,,,,,,,,,,,,,,,,,,,,,,,,,,,,,,,,,,,,,,,,,,,,,,83,148576,20,Male,1,2024/03/12_14:06:12,YZ,None,
,,,,,,calibration,0,4,2,361,7,S,0,right,0.46103304300049786,1,0,,,,,,,,,,,,,,,,,,,,,1,,,,,,,,,,,,,,,,,,,,,,,,,,,,,,,,,,,,,,,,,,,,,,83,148576,20,Male,1,2024/03/12_14:06:12,YZ,None,
,,,,,,calibration,0,4,2,361,8,C,0,right,0.5189626410028723,1,0,,,,,,,,,,,,,,,,,,,,,1,,,,,,,,,,,,,,,,,,,,,,,,,,,,,,,,,,,,,,,,,,,,,,83,148576,20,Male,1,2024/03/12_14:06:12,YZ,None,
,,,,,,calibration,0,4,2,361,9,Q,0,right,0.5399203849992773,1,0,,,,,,,,,,,,,,,,,,,,,1,,,,,,,,,,,,,,,,,,,,,,,,,,,,,,,,,,,,,,,,,,,,,,83,148576,20,Male,1,2024/03/12_14:06:12,YZ,None,
,,,,,,calibration,0,4,2,361,10,S,0,right,0.7081308279994118,1,0,,,,,,,,,,,,,,,,,,,,,1,,,,,,,,,,,,,,,,,,,,,,,,,,,,,,,,,,,,,,,,,,,,,,83,148576,20,Male,1,2024/03/12_14:06:12,YZ,None,
,,,,,,calibration,0,4,2,361,11,X,0,right,0.4633363550019567,1,0,,,,,,,,,,,,,,,,,,,,,1,,,,,,,,,,,,,,,,,,,,,,,,,,,,,,,,,,,,,,,,,,,,,,83,148576,20,Male,1,2024/03/12_14:06:12,YZ,None,
,,,,,,calibration,0,4,2,361,12,S,1,left,0.4283109530006186,1,0,,,,,,,,,,,,,,,,,,,,,1,,,,,,,,,,,,,,,,,,,,,,,,,,,,,,,,,,,,,,,,,,,,,,83,148576,20,Male,1,2024/03/12_14:06:12,YZ,None,
,,,,,,calibration,0,4,2,361,13,X,1,right,0.7095768130020588,0,0,,,,,,,,,,,,,,,,,,,,,1,,,,,,,,,,,,,,,,,,,,,,,,,,,,,,,,,,,,,,,,,,,,,,83,148576,20,Male,1,2024/03/12_14:06:12,YZ,None,
,,,,,,calibration,0,4,2,361,14,V,0,right,0.4047396710011526,1,0,,,,,,,,,,,,,,,,,,,,,1,,,,,,,,,,,,,,,,,,,,,,,,,,,,,,,,,,,,,,,,,,,,,,83,148576,20,Male,1,2024/03/12_14:06:12,YZ,None,
,,,,,,calibration,0,4,2,361,15,N,0,right,0.5432449120016827,1,0,,,,,,,,,,,,,,,,,,,,,1,,,,,,,,,,,,,,,,,,,,,,,,,,,,,,,,,,,,,,,,,,,,,,83,148576,20,Male,1,2024/03/12_14:06:12,YZ,None,
,,,,,,calibration,0,4,2,361,16,F,0,right,0.4543807350019051,1,0,,,,,,,,,,,,,,,,,,,,,1,,,,,,,,,,,,,,,,,,,,,,,,,,,,,,,,,,,,,,,,,,,,,,83,148576,20,Male,1,2024/03/12_14:06:12,YZ,None,
,,,,,,calibration,0,4,2,361,17,X,0,left,0.694151237999904,0,0,,,,,,,,,,,,,,,,,,,,,1,,,,,,,,,,,,,,,,,,,,,,,,,,,,,,,,,,,,,,,,,,,,,,83,148576,20,Male,1,2024/03/12_14:06:12,YZ,None,
,,,,,,calibration,0,4,2,361,18,F,1,right,0.3937897640025767,0,0,,,,,,,,,,,,,,,,,,,,,1,,,,,,,,,,,,,,,,,,,,,,,,,,,,,,,,,,,,,,,,,,,,,,83,148576,20,Male,1,2024/03/12_14:06:12,YZ,None,
,,,,,,calibration,0,4,2,361,,,,,,,,0.85,0.6,0.07692307692307693,0.9230769230769231,0.0,0.9230769230769231,0.5011173515004985,3,1,0,0,0,12,15,5,13,0,,,,1,,,,,,,,,,,,,,,,,,,,,,,,,,,,,,,,,,,,,,,,,,,,,,83,148576,20,Male,1,2024/03/12_14:06:12,YZ,None,
,,,,,,Calibration,0,,2,361,,,,,,,,,,,,,,,,,,,,,,,,,10,,,1,,,,,,,,,,,,,,,,,,,,,,,,,,,,,,,,,,,,,,,,,,,,,,83,148576,20,Male,1,2024/03/12_14:06:12,YZ,None,
,,,,,,calibration,0,17,2,361,1,N,0,right,0.33078265500080306,1,0,,,,,,,,,,,,,,,,,,,,,1,,,,,,,,,,,,,,,,,,,,,,,,,,,,,,,,,,,,,,,,,,,,,,83,148576,20,Male,1,2024/03/12_14:06:12,YZ,None,
,,,,,,calibration,0,17,2,361,2,S,0,right,0.42425387399998726,1,0,,,,,,,,,,,,,,,,,,,,,1,,,,,,,,,,,,,,,,,,,,,,,,,,,,,,,,,,,,,,,,,,,,,,83,148576,20,Male,1,2024/03/12_14:06:12,YZ,None,
,,,,,,calibration,0,17,2,361,3,Q,0,right,0.5624654009989172,1,0,,,,,,,,,,,,,,,,,,,,,1,,,,,,,,,,,,,,,,,,,,,,,,,,,,,,,,,,,,,,,,,,,,,,83,148576,20,Male,1,2024/03/12_14:06:12,YZ,None,
,,,,,,calibration,0,17,2,361,4,S,1,left,0.5357977470011974,1,0,,,,,,,,,,,,,,,,,,,,,1,,,,,,,,,,,,,,,,,,,,,,,,,,,,,,,,,,,,,,,,,,,,,,83,148576,20,Male,1,2024/03/12_14:06:12,YZ,None,
,,,,,,calibration,0,17,2,361,5,J,0,right,0.39920658800110687,1,0,,,,,,,,,,,,,,,,,,,,,1,,,,,,,,,,,,,,,,,,,,,,,,,,,,,,,,,,,,,,,,,,,,,,83,148576,20,Male,1,2024/03/12_14:06:12,YZ,None,
,,,,,,calibration,0,17,2,361,6,F,0,right,0.4313806120007939,1,0,,,,,,,,,,,,,,,,,,,,,1,,,,,,,,,,,,,,,,,,,,,,,,,,,,,,,,,,,,,,,,,,,,,,83,148576,20,Male,1,2024/03/12_14:06:12,YZ,None,
,,,,,,calibration,0,17,2,361,7,C,0,right,0.41238556900134427,1,0,,,,,,,,,,,,,,,,,,,,,1,,,,,,,,,,,,,,,,,,,,,,,,,,,,,,,,,,,,,,,,,,,,,,83,148576,20,Male,1,2024/03/12_14:06:12,YZ,None,
,,,,,,calibration,0,17,2,361,8,J,0,right,0.6171336540028278,1,0,,,,,,,,,,,,,,,,,,,,,1,,,,,,,,,,,,,,,,,,,,,,,,,,,,,,,,,,,,,,,,,,,,,,83,148576,20,Male,1,2024/03/12_14:06:12,YZ,None,
,,,,,,calibration,0,17,2,361,9,C,1,right,0.4760693419993913,0,0,,,,,,,,,,,,,,,,,,,,,1,,,,,,,,,,,,,,,,,,,,,,,,,,,,,,,,,,,,,,,,,,,,,,83,148576,20,Male,1,2024/03/12_14:06:12,YZ,None,
,,,,,,calibration,0,17,2,361,10,X,0,right,0.38629011800003354,1,0,,,,,,,,,,,,,,,,,,,,,1,,,,,,,,,,,,,,,,,,,,,,,,,,,,,,,,,,,,,,,,,,,,,,83,148576,20,Male,1,2024/03/12_14:06:12,YZ,None,
,,,,,,calibration,0,17,2,361,11,C,1,left,0.3243018169996503,1,0,,,,,,,,,,,,,,,,,,,,,1,,,,,,,,,,,,,,,,,,,,,,,,,,,,,,,,,,,,,,,,,,,,,,83,148576,20,Male,1,2024/03/12_14:06:12,YZ,None,
,,,,,,calibration,0,17,2,361,12,X,1,right,0.5488819159982086,0,0,,,,,,,,,,,,,,,,,,,,,1,,,,,,,,,,,,,,,,,,,,,,,,,,,,,,,,,,,,,,,,,,,,,,83,148576,20,Male,1,2024/03/12_14:06:12,YZ,None,
,,,,,,calibration,0,17,2,361,13,V,0,right,0.39715594399967813,1,0,,,,,,,,,,,,,,,,,,,,,1,,,,,,,,,,,,,,,,,,,,,,,,,,,,,,,,,,,,,,,,,,,,,,83,148576,20,Male,1,2024/03/12_14:06:12,YZ,None,
,,,,,,calibration,0,17,2,361,14,S,0,right,0.4661814869978116,1,0,,,,,,,,,,,,,,,,,,,,,1,,,,,,,,,,,,,,,,,,,,,,,,,,,,,,,,,,,,,,,,,,,,,,83,148576,20,Male,1,2024/03/12_14:06:12,YZ,None,
,,,,,,calibration,0,17,2,361,15,C,0,right,0.4886222099994484,1,0,,,,,,,,,,,,,,,,,,,,,1,,,,,,,,,,,,,,,,,,,,,,,,,,,,,,,,,,,,,,,,,,,,,,83,148576,20,Male,1,2024/03/12_14:06:12,YZ,None,
,,,,,,calibration,0,17,2,361,16,X,0,right,0.5425541359982162,1,0,,,,,,,,,,,,,,,,,,,,,1,,,,,,,,,,,,,,,,,,,,,,,,,,,,,,,,,,,,,,,,,,,,,,83,148576,20,Male,1,2024/03/12_14:06:12,YZ,None,
,,,,,,calibration,0,17,2,361,17,C,1,left,0.6397380989983503,1,0,,,,,,,,,,,,,,,,,,,,,1,,,,,,,,,,,,,,,,,,,,,,,,,,,,,,,,,,,,,,,,,,,,,,83,148576,20,Male,1,2024/03/12_14:06:12,YZ,None,
,,,,,,calibration,0,17,2,361,18,X,1,right,0.3482518139971944,0,0,,,,,,,,,,,,,,,,,,,,,1,,,,,,,,,,,,,,,,,,,,,,,,,,,,,,,,,,,,,,,,,,,,,,83,148576,20,Male,1,2024/03/12_14:06:12,YZ,None,
,,,,,,calibration,0,17,2,361,,,,,,,,0.875,0.5,0.0,1.0,0.0,1.0,0.4628584990552756,3,0,0,0,0,12,15,6,12,0,,,,1,,,,,,,,,,,,,,,,,,,,,,,,,,,,,,,,,,,,,,,,,,,,,,83,148576,20,Male,1,2024/03/12_14:06:12,YZ,None,
,,,,,,Calibration,0,,2,361,,,,,,,,,,,,,,,,,,,,,,,,,11,,,1,,,,,,,,,,,,,,,,,,,,,,,,,,,,,,,,,,,,,,,,,,,,,,83,148576,20,Male,1,2024/03/12_14:06:12,YZ,None,
,,,,,,calibration,0,5,2,303,1,F,0,right,0.36007277000317117,1,0,,,,,,,,,,,,,,,,,,,,,1,,,,,,,,,,,,,,,,,,,,,,,,,,,,,,,,,,,,,,,,,,,,,,83,148576,20,Male,1,2024/03/12_14:06:12,YZ,None,
,,,,,,calibration,0,5,2,303,2,X,0,right,0.3832985729968641,1,0,,,,,,,,,,,,,,,,,,,,,1,,,,,,,,,,,,,,,,,,,,,,,,,,,,,,,,,,,,,,,,,,,,,,83,148576,20,Male,1,2024/03/12_14:06:12,YZ,None,
,,,,,,calibration,0,5,2,303,3,F,1,left,0.3083835400029784,1,0,,,,,,,,,,,,,,,,,,,,,1,,,,,,,,,,,,,,,,,,,,,,,,,,,,,,,,,,,,,,,,,,,,,,83,148576,20,Male,1,2024/03/12_14:06:12,YZ,None,
,,,,,,calibration,0,5,2,303,4,V,0,right,0.42049400999894715,1,0,,,,,,,,,,,,,,,,,,,,,1,,,,,,,,,,,,,,,,,,,,,,,,,,,,,,,,,,,,,,,,,,,,,,83,148576,20,Male,1,2024/03/12_14:06:12,YZ,None,
,,,,,,calibration,0,5,2,303,5,X,0,right,0.3761426319979364,1,0,,,,,,,,,,,,,,,,,,,,,1,,,,,,,,,,,,,,,,,,,,,,,,,,,,,,,,,,,,,,,,,,,,,,83,148576,20,Male,1,2024/03/12_14:06:12,YZ,None,
,,,,,,calibration,0,5,2,303,6,J,0,right,0.3774780749990896,1,0,,,,,,,,,,,,,,,,,,,,,1,,,,,,,,,,,,,,,,,,,,,,,,,,,,,,,,,,,,,,,,,,,,,,83,148576,20,Male,1,2024/03/12_14:06:12,YZ,None,
,,,,,,calibration,0,5,2,303,7,F,0,right,0.5306035009998595,1,0,,,,,,,,,,,,,,,,,,,,,1,,,,,,,,,,,,,,,,,,,,,,,,,,,,,,,,,,,,,,,,,,,,,,83,148576,20,Male,1,2024/03/12_14:06:12,YZ,None,
,,,,,,calibration,0,5,2,303,8,V,0,right,0.5241068140021525,1,0,,,,,,,,,,,,,,,,,,,,,1,,,,,,,,,,,,,,,,,,,,,,,,,,,,,,,,,,,,,,,,,,,,,,83,148576,20,Male,1,2024/03/12_14:06:12,YZ,None,
,,,,,,calibration,0,5,2,303,9,X,0,right,0.48433006100094644,1,0,,,,,,,,,,,,,,,,,,,,,1,,,,,,,,,,,,,,,,,,,,,,,,,,,,,,,,,,,,,,,,,,,,,,83,148576,20,Male,1,2024/03/12_14:06:12,YZ,None,
,,,,,,calibration,0,5,2,303,10,V,1,right,0.36783301399918855,0,0,,,,,,,,,,,,,,,,,,,,,1,,,,,,,,,,,,,,,,,,,,,,,,,,,,,,,,,,,,,,,,,,,,,,83,148576,20,Male,1,2024/03/12_14:06:12,YZ,None,
,,,,,,calibration,0,5,2,303,11,Q,0,right,0.3866833379979653,1,0,,,,,,,,,,,,,,,,,,,,,1,,,,,,,,,,,,,,,,,,,,,,,,,,,,,,,,,,,,,,,,,,,,,,83,148576,20,Male,1,2024/03/12_14:06:12,YZ,None,
,,,,,,calibration,0,5,2,303,12,S,0,right,0.5133681160004926,1,0,,,,,,,,,,,,,,,,,,,,,1,,,,,,,,,,,,,,,,,,,,,,,,,,,,,,,,,,,,,,,,,,,,,,83,148576,20,Male,1,2024/03/12_14:06:12,YZ,None,
,,,,,,calibration,0,5,2,303,13,C,0,right,0.4412582530021609,1,0,,,,,,,,,,,,,,,,,,,,,1,,,,,,,,,,,,,,,,,,,,,,,,,,,,,,,,,,,,,,,,,,,,,,83,148576,20,Male,1,2024/03/12_14:06:12,YZ,None,
,,,,,,calibration,0,5,2,303,14,F,0,right,0.4020479979990341,1,0,,,,,,,,,,,,,,,,,,,,,1,,,,,,,,,,,,,,,,,,,,,,,,,,,,,,,,,,,,,,,,,,,,,,83,148576,20,Male,1,2024/03/12_14:06:12,YZ,None,
,,,,,,calibration,0,5,2,303,15,X,0,right,0.48761991200080956,1,0,,,,,,,,,,,,,,,,,,,,,1,,,,,,,,,,,,,,,,,,,,,,,,,,,,,,,,,,,,,,,,,,,,,,83,148576,20,Male,1,2024/03/12_14:06:12,YZ,None,
,,,,,,calibration,0,5,2,303,16,F,1,right,0.6297038260017871,0,0,,,,,,,,,,,,,,,,,,,,,1,,,,,,,,,,,,,,,,,,,,,,,,,,,,,,,,,,,,,,,,,,,,,,83,148576,20,Male,1,2024/03/12_14:06:12,YZ,None,
,,,,,,calibration,0,5,2,303,17,C,0,right,0.6147249959976762,1,0,,,,,,,,,,,,,,,,,,,,,1,,,,,,,,,,,,,,,,,,,,,,,,,,,,,,,,,,,,,,,,,,,,,,83,148576,20,Male,1,2024/03/12_14:06:12,YZ,None,
,,,,,,calibration,0,5,2,303,18,F,1,right,0.5813226799982658,0,0,,,,,,,,,,,,,,,,,,,,,1,,,,,,,,,,,,,,,,,,,,,,,,,,,,,,,,,,,,,,,,,,,,,,83,148576,20,Male,1,2024/03/12_14:06:12,YZ,None,
,,,,,,calibration,0,5,2,303,19,C,1,left,0.6315805849990284,1,0,,,,,,,,,,,,,,,,,,,,,1,,,,,,,,,,,,,,,,,,,,,,,,,,,,,,,,,,,,,,,,,,,,,,83,148576,20,Male,1,2024/03/12_14:06:12,YZ,None,
,,,,,,calibration,0,5,2,303,,,,,,,,0.85,0.4,0.0,1.0,0.0,1.0,0.46426593126307125,2,0,0,0,0,14,16,5,14,0,,,,1,,,,,,,,,,,,,,,,,,,,,,,,,,,,,,,,,,,,,,,,,,,,,,83,148576,20,Male,1,2024/03/12_14:06:12,YZ,None,
,,,,,,Calibration,0,,2,303,,,,,,,,,,,,,,,,,,,,,,,,,12,,,1,,,,,,,,,,,,,,,,,,,,,,,,,,,,,,,,,,,,,,,,,,,,,,83,148576,20,Male,1,2024/03/12_14:06:12,YZ,None,
,,,,,,calibration,0,17,2,303,1,C,0,right,0.3843941650011402,1,0,,,,,,,,,,,,,,,,,,,,,1,,,,,,,,,,,,,,,,,,,,,,,,,,,,,,,,,,,,,,,,,,,,,,83,148576,20,Male,1,2024/03/12_14:06:12,YZ,None,
,,,,,,calibration,0,17,2,303,2,X,0,right,0.3436822950025089,1,0,,,,,,,,,,,,,,,,,,,,,1,,,,,,,,,,,,,,,,,,,,,,,,,,,,,,,,,,,,,,,,,,,,,,83,148576,20,Male,1,2024/03/12_14:06:12,YZ,None,
,,,,,,calibration,0,17,2,303,3,N,0,right,0.4815099139996164,1,0,,,,,,,,,,,,,,,,,,,,,1,,,,,,,,,,,,,,,,,,,,,,,,,,,,,,,,,,,,,,,,,,,,,,83,148576,20,Male,1,2024/03/12_14:06:12,YZ,None,
,,,,,,calibration,0,17,2,303,4,C,0,right,0.49995859499904327,1,0,,,,,,,,,,,,,,,,,,,,,1,,,,,,,,,,,,,,,,,,,,,,,,,,,,,,,,,,,,,,,,,,,,,,83,148576,20,Male,1,2024/03/12_14:06:12,YZ,None,
,,,,,,calibration,0,17,2,303,5,J,0,right,0.4873012389980431,1,0,,,,,,,,,,,,,,,,,,,,,1,,,,,,,,,,,,,,,,,,,,,,,,,,,,,,,,,,,,,,,,,,,,,,83,148576,20,Male,1,2024/03/12_14:06:12,YZ,None,
,,,,,,calibration,0,17,2,303,6,F,0,right,0.47178585100118653,1,0,,,,,,,,,,,,,,,,,,,,,1,,,,,,,,,,,,,,,,,,,,,,,,,,,,,,,,,,,,,,,,,,,,,,83,148576,20,Male,1,2024/03/12_14:06:12,YZ,None,
,,,,,,calibration,0,17,2,303,7,Q,0,right,0.532942259000265,1,0,,,,,,,,,,,,,,,,,,,,,1,,,,,,,,,,,,,,,,,,,,,,,,,,,,,,,,,,,,,,,,,,,,,,83,148576,20,Male,1,2024/03/12_14:06:12,YZ,None,
,,,,,,calibration,0,17,2,303,8,F,1,left,0.5473834299991722,1,0,,,,,,,,,,,,,,,,,,,,,1,,,,,,,,,,,,,,,,,,,,,,,,,,,,,,,,,,,,,,,,,,,,,,83,148576,20,Male,1,2024/03/12_14:06:12,YZ,None,
,,,,,,calibration,0,17,2,303,9,Q,1,right,0.3554805049971037,0,0,,,,,,,,,,,,,,,,,,,,,1,,,,,,,,,,,,,,,,,,,,,,,,,,,,,,,,,,,,,,,,,,,,,,83,148576,20,Male,1,2024/03/12_14:06:12,YZ,None,
,,,,,,calibration,0,17,2,303,10,X,0,right,0.5247081140005321,1,0,,,,,,,,,,,,,,,,,,,,,1,,,,,,,,,,,,,,,,,,,,,,,,,,,,,,,,,,,,,,,,,,,,,,83,148576,20,Male,1,2024/03/12_14:06:12,YZ,None,
,,,,,,calibration,0,17,2,303,11,F,0,right,0.5233627420020639,1,0,,,,,,,,,,,,,,,,,,,,,1,,,,,,,,,,,,,,,,,,,,,,,,,,,,,,,,,,,,,,,,,,,,,,83,148576,20,Male,1,2024/03/12_14:06:12,YZ,None,
,,,,,,calibration,0,17,2,303,12,C,0,right,0.4492124579992378,1,0,,,,,,,,,,,,,,,,,,,,,1,,,,,,,,,,,,,,,,,,,,,,,,,,,,,,,,,,,,,,,,,,,,,,83,148576,20,Male,1,2024/03/12_14:06:12,YZ,None,
,,,,,,calibration,0,17,2,303,13,X,0,right,0.5329884279999533,1,0,,,,,,,,,,,,,,,,,,,,,1,,,,,,,,,,,,,,,,,,,,,,,,,,,,,,,,,,,,,,,,,,,,,,83,148576,20,Male,1,2024/03/12_14:06:12,YZ,None,
,,,,,,calibration,0,17,2,303,14,C,1,left,0.6920958850023453,1,0,,,,,,,,,,,,,,,,,,,,,1,,,,,,,,,,,,,,,,,,,,,,,,,,,,,,,,,,,,,,,,,,,,,,83,148576,20,Male,1,2024/03/12_14:06:12,YZ,None,
,,,,,,calibration,0,17,2,303,15,X,1,right,0.3326773129992944,0,0,,,,,,,,,,,,,,,,,,,,,1,,,,,,,,,,,,,,,,,,,,,,,,,,,,,,,,,,,,,,,,,,,,,,83,148576,20,Male,1,2024/03/12_14:06:12,YZ,None,
,,,,,,calibration,0,17,2,303,16,N,0,right,0.46445118699921295,1,0,,,,,,,,,,,,,,,,,,,,,1,,,,,,,,,,,,,,,,,,,,,,,,,,,,,,,,,,,,,,,,,,,,,,83,148576,20,Male,1,2024/03/12_14:06:12,YZ,None,
,,,,,,calibration,0,17,2,303,17,X,1,left,0.6752127560030203,1,0,,,,,,,,,,,,,,,,,,,,,1,,,,,,,,,,,,,,,,,,,,,,,,,,,,,,,,,,,,,,,,,,,,,,83,148576,20,Male,1,2024/03/12_14:06:12,YZ,None,
,,,,,,calibration,0,17,2,303,18,N,1,right,0.35499403799985885,0,0,,,,,,,,,,,,,,,,,,,,,1,,,,,,,,,,,,,,,,,,,,,,,,,,,,,,,,,,,,,,,,,,,,,,83,148576,20,Male,1,2024/03/12_14:06:12,YZ,None,
,,,,,,calibration,0,17,2,303,19,S,0,right,0.5006968310008233,1,0,,,,,,,,,,,,,,,,,,,,,1,,,,,,,,,,,,,,,,,,,,,,,,,,,,,,,,,,,,,,,,,,,,,,83,148576,20,Male,1,2024/03/12_14:06:12,YZ,None,
,,,,,,calibration,0,17,2,303,,,,,,,,0.875,0.5,0.0,1.0,0.0,1.0,0.48183357921075903,3,0,0,0,0,13,16,6,13,0,,,,1,,,,,,,,,,,,,,,,,,,,,,,,,,,,,,,,,,,,,,,,,,,,,,83,148576,20,Male,1,2024/03/12_14:06:12,YZ,None,
,,,,,,Calibration,0,,2,303,,,,,,,,,,,,,,,,,,,,,,,,,13,,,1,,,,,,,,,,,,,,,,,,,,,,,,,,,,,,,,,,,,,,,,,,,,,,83,148576,20,Male,1,2024/03/12_14:06:12,YZ,None,
,,,,,,calibration,0,7,2,250,1,Q,0,right,0.3353216670002439,1,0,,,,,,,,,,,,,,,,,,,,,1,,,,,,,,,,,,,,,,,,,,,,,,,,,,,,,,,,,,,,,,,,,,,,83,148576,20,Male,1,2024/03/12_14:06:12,YZ,None,
,,,,,,calibration,0,7,2,250,2,F,0,right,0.4437835919998179,1,0,,,,,,,,,,,,,,,,,,,,,1,,,,,,,,,,,,,,,,,,,,,,,,,,,,,,,,,,,,,,,,,,,,,,83,148576,20,Male,1,2024/03/12_14:06:12,YZ,None,
,,,,,,calibration,0,7,2,250,3,C,0,right,0.43438187799984007,1,0,,,,,,,,,,,,,,,,,,,,,1,,,,,,,,,,,,,,,,,,,,,,,,,,,,,,,,,,,,,,,,,,,,,,83,148576,20,Male,1,2024/03/12_14:06:12,YZ,None,
,,,,,,calibration,0,7,2,250,4,S,0,right,0.5310222599982808,1,0,,,,,,,,,,,,,,,,,,,,,1,,,,,,,,,,,,,,,,,,,,,,,,,,,,,,,,,,,,,,,,,,,,,,83,148576,20,Male,1,2024/03/12_14:06:12,YZ,None,
,,,,,,calibration,0,7,2,250,5,J,0,right,0.4373856730016996,1,0,,,,,,,,,,,,,,,,,,,,,1,,,,,,,,,,,,,,,,,,,,,,,,,,,,,,,,,,,,,,,,,,,,,,83,148576,20,Male,1,2024/03/12_14:06:12,YZ,None,
,,,,,,calibration,0,7,2,250,6,S,1,right,0.44776127499790164,0,0,,,,,,,,,,,,,,,,,,,,,1,,,,,,,,,,,,,,,,,,,,,,,,,,,,,,,,,,,,,,,,,,,,,,83,148576,20,Male,1,2024/03/12_14:06:12,YZ,None,
,,,,,,calibration,0,7,2,250,7,J,1,right,0.5621957109979121,0,0,,,,,,,,,,,,,,,,,,,,,1,,,,,,,,,,,,,,,,,,,,,,,,,,,,,,,,,,,,,,,,,,,,,,83,148576,20,Male,1,2024/03/12_14:06:12,YZ,None,
,,,,,,calibration,0,7,2,250,8,X,0,right,0.6757618359988555,1,0,,,,,,,,,,,,,,,,,,,,,1,,,,,,,,,,,,,,,,,,,,,,,,,,,,,,,,,,,,,,,,,,,,,,83,148576,20,Male,1,2024/03/12_14:06:12,YZ,None,
,,,,,,calibration,0,7,2,250,9,N,0,right,0.3933538460005366,1,0,,,,,,,,,,,,,,,,,,,,,1,,,,,,,,,,,,,,,,,,,,,,,,,,,,,,,,,,,,,,,,,,,,,,83,148576,20,Male,1,2024/03/12_14:06:12,YZ,None,
,,,,,,calibration,0,7,2,250,10,F,0,right,0.5469927710000775,1,0,,,,,,,,,,,,,,,,,,,,,1,,,,,,,,,,,,,,,,,,,,,,,,,,,,,,,,,,,,,,,,,,,,,,83,148576,20,Male,1,2024/03/12_14:06:12,YZ,None,
,,,,,,calibration,0,7,2,250,11,C,0,right,0.6005511069997738,1,0,,,,,,,,,,,,,,,,,,,,,1,,,,,,,,,,,,,,,,,,,,,,,,,,,,,,,,,,,,,,,,,,,,,,83,148576,20,Male,1,2024/03/12_14:06:12,YZ,None,
,,,,,,calibration,0,7,2,250,12,X,0,right,0.6202551839996886,1,0,,,,,,,,,,,,,,,,,,,,,1,,,,,,,,,,,,,,,,,,,,,,,,,,,,,,,,,,,,,,,,,,,,,,83,148576,20,Male,1,2024/03/12_14:06:12,YZ,None,
,,,,,,calibration,0,7,2,250,13,V,0,right,0.5384640039992519,1,0,,,,,,,,,,,,,,,,,,,,,1,,,,,,,,,,,,,,,,,,,,,,,,,,,,,,,,,,,,,,,,,,,,,,83,148576,20,Male,1,2024/03/12_14:06:12,YZ,None,
,,,,,,calibration,0,7,2,250,14,Q,0,right,0.5125385310020647,1,0,,,,,,,,,,,,,,,,,,,,,1,,,,,,,,,,,,,,,,,,,,,,,,,,,,,,,,,,,,,,,,,,,,,,83,148576,20,Male,1,2024/03/12_14:06:12,YZ,None,
,,,,,,calibration,0,7,2,250,15,S,0,right,0.608091604000947,1,0,,,,,,,,,,,,,,,,,,,,,1,,,,,,,,,,,,,,,,,,,,,,,,,,,,,,,,,,,,,,,,,,,,,,83,148576,20,Male,1,2024/03/12_14:06:12,YZ,None,
,,,,,,calibration,0,7,2,250,16,Q,1,left,0.6621103500001482,1,0,,,,,,,,,,,,,,,,,,,,,1,,,,,,,,,,,,,,,,,,,,,,,,,,,,,,,,,,,,,,,,,,,,,,83,148576,20,Male,1,2024/03/12_14:06:12,YZ,None,
,,,,,,calibration,0,7,2,250,17,X,0,right,0.5468925370005309,1,0,,,,,,,,,,,,,,,,,,,,,1,,,,,,,,,,,,,,,,,,,,,,,,,,,,,,,,,,,,,,,,,,,,,,83,148576,20,Male,1,2024/03/12_14:06:12,YZ,None,
,,,,,,calibration,0,7,2,250,18,Q,1,right,0.425069467000867,0,0,,,,,,,,,,,,,,,,,,,,,1,,,,,,,,,,,,,,,,,,,,,,,,,,,,,,,,,,,,,,,,,,,,,,83,148576,20,Male,1,2024/03/12_14:06:12,YZ,None,
,,,,,,calibration,0,7,2,250,19,X,1,left,0.46611662400027853,1,0,,,,,,,,,,,,,,,,,,,,,1,,,,,,,,,,,,,,,,,,,,,,,,,,,,,,,,,,,,,,,,,,,,,,83,148576,20,Male,1,2024/03/12_14:06:12,YZ,None,
,,,,,,calibration,0,7,2,250,20,S,0,right,0.4319996740014176,1,0,,,,,,,,,,,,,,,,,,,,,1,,,,,,,,,,,,,,,,,,,,,,,,,,,,,,,,,,,,,,,,,,,,,,83,148576,20,Male,1,2024/03/12_14:06:12,YZ,None,
,,,,,,calibration,0,7,2,250,,,,,,,,0.85,0.4,0.0,1.0,0.0,1.0,0.5110024795500067,2,0,0,0,0,15,17,5,15,0,,,,1,,,,,,,,,,,,,,,,,,,,,,,,,,,,,,,,,,,,,,,,,,,,,,83,148576,20,Male,1,2024/03/12_14:06:12,YZ,None,
,,,,,,Calibration,0,,2,250,,,,,,,,,,,,,,,,,,,,,,,,,14,,,1,,,,,,,,,,,,,,,,,,,,,,,,,,,,,,,,,,,,,,,,,,,,,,83,148576,20,Male,1,2024/03/12_14:06:12,YZ,None,
,,,,,,calibration,0,6,2,250,1,V,0,right,0.49695792800048366,1,0,,,,,,,,,,,,,,,,,,,,,1,,,,,,,,,,,,,,,,,,,,,,,,,,,,,,,,,,,,,,,,,,,,,,83,148576,20,Male,1,2024/03/12_14:06:12,YZ,None,
,,,,,,calibration,0,6,2,250,2,S,0,right,0.3139956049999455,1,0,,,,,,,,,,,,,,,,,,,,,1,,,,,,,,,,,,,,,,,,,,,,,,,,,,,,,,,,,,,,,,,,,,,,83,148576,20,Male,1,2024/03/12_14:06:12,YZ,None,
,,,,,,calibration,0,6,2,250,3,J,0,right,0.4343310440017376,1,0,,,,,,,,,,,,,,,,,,,,,1,,,,,,,,,,,,,,,,,,,,,,,,,,,,,,,,,,,,,,,,,,,,,,83,148576,20,Male,1,2024/03/12_14:06:12,YZ,None,
,,,,,,calibration,0,6,2,250,4,C,0,right,0.3694109190000745,1,0,,,,,,,,,,,,,,,,,,,,,1,,,,,,,,,,,,,,,,,,,,,,,,,,,,,,,,,,,,,,,,,,,,,,83,148576,20,Male,1,2024/03/12_14:06:12,YZ,None,
,,,,,,calibration,0,6,2,250,5,J,1,right,0.39193178200002876,0,0,,,,,,,,,,,,,,,,,,,,,1,,,,,,,,,,,,,,,,,,,,,,,,,,,,,,,,,,,,,,,,,,,,,,83,148576,20,Male,1,2024/03/12_14:06:12,YZ,None,
,,,,,,calibration,0,6,2,250,6,Q,0,right,0.4474575640015246,1,0,,,,,,,,,,,,,,,,,,,,,1,,,,,,,,,,,,,,,,,,,,,,,,,,,,,,,,,,,,,,,,,,,,,,83,148576,20,Male,1,2024/03/12_14:06:12,YZ,None,
,,,,,,calibration,0,6,2,250,7,V,0,right,0.3860761799987813,1,0,,,,,,,,,,,,,,,,,,,,,1,,,,,,,,,,,,,,,,,,,,,,,,,,,,,,,,,,,,,,,,,,,,,,83,148576,20,Male,1,2024/03/12_14:06:12,YZ,None,
,,,,,,calibration,0,6,2,250,8,Q,1,left,0.48242617399955634,1,0,,,,,,,,,,,,,,,,,,,,,1,,,,,,,,,,,,,,,,,,,,,,,,,,,,,,,,,,,,,,,,,,,,,,83,148576,20,Male,1,2024/03/12_14:06:12,YZ,None,
,,,,,,calibration,0,6,2,250,9,V,1,left,0.4885522200020205,1,0,,,,,,,,,,,,,,,,,,,,,1,,,,,,,,,,,,,,,,,,,,,,,,,,,,,,,,,,,,,,,,,,,,,,83,148576,20,Male,1,2024/03/12_14:06:12,YZ,None,
,,,,,,calibration,0,6,2,250,10,N,0,right,0.42629936299999827,1,0,,,,,,,,,,,,,,,,,,,,,1,,,,,,,,,,,,,,,,,,,,,,,,,,,,,,,,,,,,,,,,,,,,,,83,148576,20,Male,1,2024/03/12_14:06:12,YZ,None,
,,,,,,calibration,0,6,2,250,11,S,0,right,0.6565313050014083,1,0,,,,,,,,,,,,,,,,,,,,,1,,,,,,,,,,,,,,,,,,,,,,,,,,,,,,,,,,,,,,,,,,,,,,83,148576,20,Male,1,2024/03/12_14:06:12,YZ,None,
,,,,,,calibration,0,6,2,250,12,C,0,right,0.3948860189993866,1,0,,,,,,,,,,,,,,,,,,,,,1,,,,,,,,,,,,,,,,,,,,,,,,,,,,,,,,,,,,,,,,,,,,,,83,148576,20,Male,1,2024/03/12_14:06:12,YZ,None,
,,,,,,calibration,0,6,2,250,13,S,1,left,0.4801012619973335,1,0,,,,,,,,,,,,,,,,,,,,,1,,,,,,,,,,,,,,,,,,,,,,,,,,,,,,,,,,,,,,,,,,,,,,83,148576,20,Male,1,2024/03/12_14:06:12,YZ,None,
,,,,,,calibration,0,6,2,250,14,C,1,right,0.4659231740006362,0,0,,,,,,,,,,,,,,,,,,,,,1,,,,,,,,,,,,,,,,,,,,,,,,,,,,,,,,,,,,,,,,,,,,,,83,148576,20,Male,1,2024/03/12_14:06:12,YZ,None,
,,,,,,calibration,0,6,2,250,15,N,0,left,0.5995877029999974,0,0,,,,,,,,,,,,,,,,,,,,,1,,,,,,,,,,,,,,,,,,,,,,,,,,,,,,,,,,,,,,,,,,,,,,83,148576,20,Male,1,2024/03/12_14:06:12,YZ,None,
,,,,,,calibration,0,6,2,250,16,V,0,left,0.6532215449988144,0,0,,,,,,,,,,,,,,,,,,,,,1,,,,,,,,,,,,,,,,,,,,,,,,,,,,,,,,,,,,,,,,,,,,,,83,148576,20,Male,1,2024/03/12_14:06:12,YZ,None,
,,,,,,calibration,0,6,2,250,17,F,0,right,0.5175713110002107,1,0,,,,,,,,,,,,,,,,,,,,,1,,,,,,,,,,,,,,,,,,,,,,,,,,,,,,,,,,,,,,,,,,,,,,83,148576,20,Male,1,2024/03/12_14:06:12,YZ,None,
,,,,,,calibration,0,6,2,250,18,N,0,left,0.5709313410006871,0,0,,,,,,,,,,,,,,,,,,,,,1,,,,,,,,,,,,,,,,,,,,,,,,,,,,,,,,,,,,,,,,,,,,,,83,148576,20,Male,1,2024/03/12_14:06:12,YZ,None,
,,,,,,calibration,0,6,2,250,19,V,0,right,0.5269515809995937,1,0,,,,,,,,,,,,,,,,,,,,,1,,,,,,,,,,,,,,,,,,,,,,,,,,,,,,,,,,,,,,,,,,,,,,83,148576,20,Male,1,2024/03/12_14:06:12,YZ,None,
,,,,,,calibration,0,6,2,250,20,N,1,right,0.5421782179982984,0,0,,,,,,,,,,,,,,,,,,,,,1,,,,,,,,,,,,,,,,,,,,,,,,,,,,,,,,,,,,,,,,,,,,,,83,148576,20,Male,1,2024/03/12_14:06:12,YZ,None,
,,,,,,calibration,0,6,2,250,,,,,,,,0.7142857142857143,0.5,0.21428571428571427,0.7857142857142857,0.0,0.7857142857142857,0.4822661119000259,3,3,0,0,0,11,14,6,14,0,,,,1,,,,,,,,,,,,,,,,,,,,,,,,,,,,,,,,,,,,,,,,,,,,,,83,148576,20,Male,1,2024/03/12_14:06:12,YZ,None,
,,,,,,Calibration,0,,2,250,,,,,,,,,,,,,,,,,,,,,,,,,15,,,1,,,,,,,,,,,,,,,,,,,,,,,,,,,,,,,,,,,,,,,,,,,,,,83,148576,20,Male,1,2024/03/12_14:06:12,YZ,None,
,,,,,,calibration,0,23,2,303,1,J,0,right,0.573715352002182,1,0,,,,,,,,,,,,,,,,,,,,,1,,,,,,,,,,,,,,,,,,,,,,,,,,,,,,,,,,,,,,,,,,,,,,83,148576,20,Male,1,2024/03/12_14:06:12,YZ,None,
,,,,,,calibration,0,23,2,303,2,F,0,right,0.35894872799690347,1,0,,,,,,,,,,,,,,,,,,,,,1,,,,,,,,,,,,,,,,,,,,,,,,,,,,,,,,,,,,,,,,,,,,,,83,148576,20,Male,1,2024/03/12_14:06:12,YZ,None,
,,,,,,calibration,0,23,2,303,3,V,0,right,0.4047680709991255,1,0,,,,,,,,,,,,,,,,,,,,,1,,,,,,,,,,,,,,,,,,,,,,,,,,,,,,,,,,,,,,,,,,,,,,83,148576,20,Male,1,2024/03/12_14:06:12,YZ,None,
,,,,,,calibration,0,23,2,303,4,X,0,right,0.38341808000041055,1,0,,,,,,,,,,,,,,,,,,,,,1,,,,,,,,,,,,,,,,,,,,,,,,,,,,,,,,,,,,,,,,,,,,,,83,148576,20,Male,1,2024/03/12_14:06:12,YZ,None,
,,,,,,calibration,0,23,2,303,5,S,0,right,0.448413685997366,1,0,,,,,,,,,,,,,,,,,,,,,1,,,,,,,,,,,,,,,,,,,,,,,,,,,,,,,,,,,,,,,,,,,,,,83,148576,20,Male,1,2024/03/12_14:06:12,YZ,None,
,,,,,,calibration,0,23,2,303,6,X,1,right,0.4336210889996437,0,0,,,,,,,,,,,,,,,,,,,,,1,,,,,,,,,,,,,,,,,,,,,,,,,,,,,,,,,,,,,,,,,,,,,,83,148576,20,Male,1,2024/03/12_14:06:12,YZ,None,
,,,,,,calibration,0,23,2,303,7,F,0,right,0.39166264300001785,1,0,,,,,,,,,,,,,,,,,,,,,1,,,,,,,,,,,,,,,,,,,,,,,,,,,,,,,,,,,,,,,,,,,,,,83,148576,20,Male,1,2024/03/12_14:06:12,YZ,None,
,,,,,,calibration,0,23,2,303,8,Q,0,right,0.5317813770016073,1,0,,,,,,,,,,,,,,,,,,,,,1,,,,,,,,,,,,,,,,,,,,,,,,,,,,,,,,,,,,,,,,,,,,,,83,148576,20,Male,1,2024/03/12_14:06:12,YZ,None,
,,,,,,calibration,0,23,2,303,9,F,1,left,0.6150808039965341,1,0,,,,,,,,,,,,,,,,,,,,,1,,,,,,,,,,,,,,,,,,,,,,,,,,,,,,,,,,,,,,,,,,,,,,83,148576,20,Male,1,2024/03/12_14:06:12,YZ,None,
,,,,,,calibration,0,23,2,303,10,J,0,right,0.3955912189994706,1,0,,,,,,,,,,,,,,,,,,,,,1,,,,,,,,,,,,,,,,,,,,,,,,,,,,,,,,,,,,,,,,,,,,,,83,148576,20,Male,1,2024/03/12_14:06:12,YZ,None,
,,,,,,calibration,0,23,2,303,11,S,0,right,0.40431588600040413,1,0,,,,,,,,,,,,,,,,,,,,,1,,,,,,,,,,,,,,,,,,,,,,,,,,,,,,,,,,,,,,,,,,,,,,83,148576,20,Male,1,2024/03/12_14:06:12,YZ,None,
,,,,,,calibration,0,23,2,303,12,J,1,right,0.4884443109986023,0,0,,,,,,,,,,,,,,,,,,,,,1,,,,,,,,,,,,,,,,,,,,,,,,,,,,,,,,,,,,,,,,,,,,,,83,148576,20,Male,1,2024/03/12_14:06:12,YZ,None,
,,,,,,calibration,0,23,2,303,13,F,0,left,0.5124587569989671,0,0,,,,,,,,,,,,,,,,,,,,,1,,,,,,,,,,,,,,,,,,,,,,,,,,,,,,,,,,,,,,,,,,,,,,83,148576,20,Male,1,2024/03/12_14:06:12,YZ,None,
,,,,,,calibration,0,23,2,303,14,S,0,left,0.5919467660023656,0,0,,,,,,,,,,,,,,,,,,,,,1,,,,,,,,,,,,,,,,,,,,,,,,,,,,,,,,,,,,,,,,,,,,,,83,148576,20,Male,1,2024/03/12_14:06:12,YZ,None,
,,,,,,calibration,0,23,2,303,15,X,0,right,0.4154462210026395,1,0,,,,,,,,,,,,,,,,,,,,,1,,,,,,,,,,,,,,,,,,,,,,,,,,,,,,,,,,,,,,,,,,,,,,83,148576,20,Male,1,2024/03/12_14:06:12,YZ,None,
,,,,,,calibration,0,23,2,303,16,F,0,left,0.5990342120021523,0,0,,,,,,,,,,,,,,,,,,,,,1,,,,,,,,,,,,,,,,,,,,,,,,,,,,,,,,,,,,,,,,,,,,,,83,148576,20,Male,1,2024/03/12_14:06:12,YZ,None,
,,,,,,calibration,0,23,2,303,17,C,0,right,0.44184926500020083,1,0,,,,,,,,,,,,,,,,,,,,,1,,,,,,,,,,,,,,,,,,,,,,,,,,,,,,,,,,,,,,,,,,,,,,83,148576,20,Male,1,2024/03/12_14:06:12,YZ,None,
,,,,,,calibration,0,23,2,303,18,F,1,left,0.6982028839993291,1,0,,,,,,,,,,,,,,,,,,,,,1,,,,,,,,,,,,,,,,,,,,,,,,,,,,,,,,,,,,,,,,,,,,,,83,148576,20,Male,1,2024/03/12_14:06:12,YZ,None,
,,,,,,calibration,0,23,2,303,19,C,1,right,0.46395940100046573,0,0,,,,,,,,,,,,,,,,,,,,,1,,,,,,,,,,,,,,,,,,,,,,,,,,,,,,,,,,,,,,,,,,,,,,83,148576,20,Male,1,2024/03/12_14:06:12,YZ,None,
,,,,,,calibration,0,23,2,303,,,,,,,,0.6625000000000001,0.4,0.21428571428571427,0.7857142857142857,0.0,0.7857142857142857,0.4817188816841257,2,3,0,0,0,11,13,5,14,0,,,,1,,,,,,,,,,,,,,,,,,,,,,,,,,,,,,,,,,,,,,,,,,,,,,83,148576,20,Male,1,2024/03/12_14:06:12,YZ,None,
,,,,,,Calibration,0,,2,303,,,,,,,,,,,,,,,,,,,,,,,,,16,,,1,,,,,,,,,,,,,,,,,,,,,,,,,,,,,,,,,,,,,,,,,,,,,,83,148576,20,Male,1,2024/03/12_14:06:12,YZ,None,
,,,,,,calibration,0,1,2,361,1,V,0,right,0.3865634180001507,1,0,,,,,,,,,,,,,,,,,,,,,1,,,,,,,,,,,,,,,,,,,,,,,,,,,,,,,,,,,,,,,,,,,,,,83,148576,20,Male,1,2024/03/12_14:06:12,YZ,None,
,,,,,,calibration,0,1,2,361,2,J,0,right,0.3915230589991552,1,0,,,,,,,,,,,,,,,,,,,,,1,,,,,,,,,,,,,,,,,,,,,,,,,,,,,,,,,,,,,,,,,,,,,,83,148576,20,Male,1,2024/03/12_14:06:12,YZ,None,
,,,,,,calibration,0,1,2,361,3,N,0,right,0.5121891880007752,1,0,,,,,,,,,,,,,,,,,,,,,1,,,,,,,,,,,,,,,,,,,,,,,,,,,,,,,,,,,,,,,,,,,,,,83,148576,20,Male,1,2024/03/12_14:06:12,YZ,None,
,,,,,,calibration,0,1,2,361,4,J,1,right,0.68227378300071,0,0,,,,,,,,,,,,,,,,,,,,,1,,,,,,,,,,,,,,,,,,,,,,,,,,,,,,,,,,,,,,,,,,,,,,83,148576,20,Male,1,2024/03/12_14:06:12,YZ,None,
,,,,,,calibration,0,1,2,361,5,N,1,right,0.3457541460011271,0,0,,,,,,,,,,,,,,,,,,,,,1,,,,,,,,,,,,,,,,,,,,,,,,,,,,,,,,,,,,,,,,,,,,,,83,148576,20,Male,1,2024/03/12_14:06:12,YZ,None,
,,,,,,calibration,0,1,2,361,6,X,0,right,0.40457535500172526,1,0,,,,,,,,,,,,,,,,,,,,,1,,,,,,,,,,,,,,,,,,,,,,,,,,,,,,,,,,,,,,,,,,,,,,83,148576,20,Male,1,2024/03/12_14:06:12,YZ,None,
,,,,,,calibration,0,1,2,361,7,S,0,left,0.5581746690004366,0,0,,,,,,,,,,,,,,,,,,,,,1,,,,,,,,,,,,,,,,,,,,,,,,,,,,,,,,,,,,,,,,,,,,,,83,148576,20,Male,1,2024/03/12_14:06:12,YZ,None,
,,,,,,calibration,0,1,2,361,8,N,0,left,0.5352438959998835,0,0,,,,,,,,,,,,,,,,,,,,,1,,,,,,,,,,,,,,,,,,,,,,,,,,,,,,,,,,,,,,,,,,,,,,83,148576,20,Male,1,2024/03/12_14:06:12,YZ,None,
,,,,,,calibration,0,1,2,361,9,V,0,right,0.4681023430021014,1,0,,,,,,,,,,,,,,,,,,,,,1,,,,,,,,,,,,,,,,,,,,,,,,,,,,,,,,,,,,,,,,,,,,,,83,148576,20,Male,1,2024/03/12_14:06:12,YZ,None,
,,,,,,calibration,0,1,2,361,10,N,1,right,0.5122503319980751,0,0,,,,,,,,,,,,,,,,,,,,,1,,,,,,,,,,,,,,,,,,,,,,,,,,,,,,,,,,,,,,,,,,,,,,83,148576,20,Male,1,2024/03/12_14:06:12,YZ,None,
,,,,,,calibration,0,1,2,361,11,V,1,left,0.4832000419992255,1,0,,,,,,,,,,,,,,,,,,,,,1,,,,,,,,,,,,,,,,,,,,,,,,,,,,,,,,,,,,,,,,,,,,,,83,148576,20,Male,1,2024/03/12_14:06:12,YZ,None,
,,,,,,calibration,0,1,2,361,12,F,0,right,0.4075791660034156,1,0,,,,,,,,,,,,,,,,,,,,,1,,,,,,,,,,,,,,,,,,,,,,,,,,,,,,,,,,,,,,,,,,,,,,83,148576,20,Male,1,2024/03/12_14:06:12,YZ,None,
,,,,,,calibration,0,1,2,361,13,V,1,left,0.6761223180001252,1,0,,,,,,,,,,,,,,,,,,,,,1,,,,,,,,,,,,,,,,,,,,,,,,,,,,,,,,,,,,,,,,,,,,,,83,148576,20,Male,1,2024/03/12_14:06:12,YZ,None,
,,,,,,calibration,0,1,2,361,14,C,0,right,0.5122379070016905,1,0,,,,,,,,,,,,,,,,,,,,,1,,,,,,,,,,,,,,,,,,,,,,,,,,,,,,,,,,,,,,,,,,,,,,83,148576,20,Male,1,2024/03/12_14:06:12,YZ,None,
,,,,,,calibration,0,1,2,361,15,V,1,right,0.48234408300049836,0,0,,,,,,,,,,,,,,,,,,,,,1,,,,,,,,,,,,,,,,,,,,,,,,,,,,,,,,,,,,,,,,,,,,,,83,148576,20,Male,1,2024/03/12_14:06:12,YZ,None,
,,,,,,calibration,0,1,2,361,16,S,0,right,0.5994346979969123,1,0,,,,,,,,,,,,,,,,,,,,,1,,,,,,,,,,,,,,,,,,,,,,,,,,,,,,,,,,,,,,,,,,,,,,83,148576,20,Male,1,2024/03/12_14:06:12,YZ,None,
,,,,,,calibration,0,1,2,361,17,N,0,right,0.3261503850008012,1,0,,,,,,,,,,,,,,,,,,,,,1,,,,,,,,,,,,,,,,,,,,,,,,,,,,,,,,,,,,,,,,,,,,,,83,148576,20,Male,1,2024/03/12_14:06:12,YZ,None,
,,,,,,calibration,0,1,2,361,18,J,0,right,0.32253524199768435,1,0,,,,,,,,,,,,,,,,,,,,,1,,,,,,,,,,,,,,,,,,,,,,,,,,,,,,,,,,,,,,,,,,,,,,83,148576,20,Male,1,2024/03/12_14:06:12,YZ,None,
,,,,,,calibration,0,1,2,361,,,,,,,,0.6666666666666666,0.3333333333333333,0.16666666666666666,0.8333333333333334,0.0,0.8333333333333334,0.4781252238891385,2,2,0,0,0,10,12,6,12,0,,,,1,,,,,,,,,,,,,,,,,,,,,,,,,,,,,,,,,,,,,,,,,,,,,,83,148576,20,Male,1,2024/03/12_14:06:12,YZ,None,
,,,,,,Calibration,0,,2,361,,,,,,,,,,,,,,,,,,,,,,,,,17,,,1,,,,,,,,,,,,,,,,,,,,,,,,,,,,,,,,,,,,,,,,,,,,,,83,148576,20,Male,1,2024/03/12_14:06:12,YZ,None,
,,,,,,calibration,0,17,2,426,1,Q,0,right,0.3122332409984665,1,0,,,,,,,,,,,,,,,,,,,,,1,,,,,,,,,,,,,,,,,,,,,,,,,,,,,,,,,,,,,,,,,,,,,,83,148576,20,Male,1,2024/03/12_14:06:12,YZ,None,
,,,,,,calibration,0,17,2,426,2,Q,0,right,0.22866333899946767,1,0,,,,,,,,,,,,,,,,,,,,,1,,,,,,,,,,,,,,,,,,,,,,,,,,,,,,,,,,,,,,,,,,,,,,83,148576,20,Male,1,2024/03/12_14:06:12,YZ,None,
,,,,,,calibration,0,17,2,426,3,V,0,right,0.3967150349999429,1,0,,,,,,,,,,,,,,,,,,,,,1,,,,,,,,,,,,,,,,,,,,,,,,,,,,,,,,,,,,,,,,,,,,,,83,148576,20,Male,1,2024/03/12_14:06:12,YZ,None,
,,,,,,calibration,0,17,2,426,4,C,0,right,0.27247427200200036,1,0,,,,,,,,,,,,,,,,,,,,,1,,,,,,,,,,,,,,,,,,,,,,,,,,,,,,,,,,,,,,,,,,,,,,83,148576,20,Male,1,2024/03/12_14:06:12,YZ,None,
,,,,,,calibration,0,17,2,426,5,J,0,right,0.3141663240021444,1,0,,,,,,,,,,,,,,,,,,,,,1,,,,,,,,,,,,,,,,,,,,,,,,,,,,,,,,,,,,,,,,,,,,,,83,148576,20,Male,1,2024/03/12_14:06:12,YZ,None,
,,,,,,calibration,0,17,2,426,6,Q,0,right,0.2956914259993937,1,0,,,,,,,,,,,,,,,,,,,,,1,,,,,,,,,,,,,,,,,,,,,,,,,,,,,,,,,,,,,,,,,,,,,,83,148576,20,Male,1,2024/03/12_14:06:12,YZ,None,
,,,,,,calibration,0,17,2,426,7,J,1,right,0.33255144900249434,0,0,,,,,,,,,,,,,,,,,,,,,1,,,,,,,,,,,,,,,,,,,,,,,,,,,,,,,,,,,,,,,,,,,,,,83,148576,20,Male,1,2024/03/12_14:06:12,YZ,None,
,,,,,,calibration,0,17,2,426,8,Q,1,right,0.3143230869973195,0,0,,,,,,,,,,,,,,,,,,,,,1,,,,,,,,,,,,,,,,,,,,,,,,,,,,,,,,,,,,,,,,,,,,,,83,148576,20,Male,1,2024/03/12_14:06:12,YZ,None,
,,,,,,calibration,0,17,2,426,9,F,0,right,0.36108226199939963,1,0,,,,,,,,,,,,,,,,,,,,,1,,,,,,,,,,,,,,,,,,,,,,,,,,,,,,,,,,,,,,,,,,,,,,83,148576,20,Male,1,2024/03/12_14:06:12,YZ,None,
,,,,,,calibration,0,17,2,426,10,X,0,right,0.301549296000303,1,0,,,,,,,,,,,,,,,,,,,,,1,,,,,,,,,,,,,,,,,,,,,,,,,,,,,,,,,,,,,,,,,,,,,,83,148576,20,Male,1,2024/03/12_14:06:12,YZ,None,
,,,,,,calibration,0,17,2,426,11,F,1,right,0.3364027850002458,0,0,,,,,,,,,,,,,,,,,,,,,1,,,,,,,,,,,,,,,,,,,,,,,,,,,,,,,,,,,,,,,,,,,,,,83,148576,20,Male,1,2024/03/12_14:06:12,YZ,None,
,,,,,,calibration,0,17,2,426,12,X,1,right,0.5122316060005687,0,0,,,,,,,,,,,,,,,,,,,,,1,,,,,,,,,,,,,,,,,,,,,,,,,,,,,,,,,,,,,,,,,,,,,,83,148576,20,Male,1,2024/03/12_14:06:12,YZ,None,
,,,,,,calibration,0,17,2,426,13,C,0,right,0.5583290440008568,1,0,,,,,,,,,,,,,,,,,,,,,1,,,,,,,,,,,,,,,,,,,,,,,,,,,,,,,,,,,,,,,,,,,,,,83,148576,20,Male,1,2024/03/12_14:06:12,YZ,None,
,,,,,,calibration,0,17,2,426,14,N,0,right,0.43432088700137683,1,0,,,,,,,,,,,,,,,,,,,,,1,,,,,,,,,,,,,,,,,,,,,,,,,,,,,,,,,,,,,,,,,,,,,,83,148576,20,Male,1,2024/03/12_14:06:12,YZ,None,
,,,,,,calibration,0,17,2,426,15,Q,0,right,0.32859614999688347,1,0,,,,,,,,,,,,,,,,,,,,,1,,,,,,,,,,,,,,,,,,,,,,,,,,,,,,,,,,,,,,,,,,,,,,83,148576,20,Male,1,2024/03/12_14:06:12,YZ,None,
,,,,,,calibration,0,17,2,426,16,F,0,right,0.3483332750001864,1,0,,,,,,,,,,,,,,,,,,,,,1,,,,,,,,,,,,,,,,,,,,,,,,,,,,,,,,,,,,,,,,,,,,,,83,148576,20,Male,1,2024/03/12_14:06:12,YZ,None,
,,,,,,calibration,0,17,2,426,17,Q,1,right,0.38396694399853004,0,0,,,,,,,,,,,,,,,,,,,,,1,,,,,,,,,,,,,,,,,,,,,,,,,,,,,,,,,,,,,,,,,,,,,,83,148576,20,Male,1,2024/03/12_14:06:12,YZ,None,
,,,,,,calibration,0,17,2,426,,,,,,,,0.5,0.0,0.0,1.0,0.0,1.0,0.35480178952938707,0,0,0,0,0,12,12,5,12,0,,,,1,,,,,,,,,,,,,,,,,,,,,,,,,,,,,,,,,,,,,,,,,,,,,,83,148576,20,Male,1,2024/03/12_14:06:12,YZ,None,
,,,,,,Calibration,0,,2,426,,,,,,,,,,,,,,,,,,,,,,,,,18,,,1,,,,,,,,,,,,,,,,,,,,,,,,,,,,,,,,,,,,,,,,,,,,,,83,148576,20,Male,1,2024/03/12_14:06:12,YZ,None,
,,,,,,calibration,0,15,2,500,1,C,0,right,0.26427039400005015,1,0,,,,,,,,,,,,,,,,,,,,,1,,,,,,,,,,,,,,,,,,,,,,,,,,,,,,,,,,,,,,,,,,,,,,83,148576,20,Male,1,2024/03/12_14:06:12,YZ,None,
,,,,,,calibration,0,15,2,500,2,V,0,right,0.2607565210018947,1,0,,,,,,,,,,,,,,,,,,,,,1,,,,,,,,,,,,,,,,,,,,,,,,,,,,,,,,,,,,,,,,,,,,,,83,148576,20,Male,1,2024/03/12_14:06:12,YZ,None,
,,,,,,calibration,0,15,2,500,3,C,1,left,0.29287707500043325,1,0,,,,,,,,,,,,,,,,,,,,,1,,,,,,,,,,,,,,,,,,,,,,,,,,,,,,,,,,,,,,,,,,,,,,83,148576,20,Male,1,2024/03/12_14:06:12,YZ,None,
,,,,,,calibration,0,15,2,500,4,S,0,right,0.340787797998928,1,0,,,,,,,,,,,,,,,,,,,,,1,,,,,,,,,,,,,,,,,,,,,,,,,,,,,,,,,,,,,,,,,,,,,,83,148576,20,Male,1,2024/03/12_14:06:12,YZ,None,
,,,,,,calibration,0,15,2,500,5,X,0,right,0.3214897860016208,1,0,,,,,,,,,,,,,,,,,,,,,1,,,,,,,,,,,,,,,,,,,,,,,,,,,,,,,,,,,,,,,,,,,,,,83,148576,20,Male,1,2024/03/12_14:06:12,YZ,None,
,,,,,,calibration,0,15,2,500,6,S,1,right,0.3526127440018172,0,0,,,,,,,,,,,,,,,,,,,,,1,,,,,,,,,,,,,,,,,,,,,,,,,,,,,,,,,,,,,,,,,,,,,,83,148576,20,Male,1,2024/03/12_14:06:12,YZ,None,
,,,,,,calibration,0,15,2,500,7,X,1,right,0.4474436819982657,0,0,,,,,,,,,,,,,,,,,,,,,1,,,,,,,,,,,,,,,,,,,,,,,,,,,,,,,,,,,,,,,,,,,,,,83,148576,20,Male,1,2024/03/12_14:06:12,YZ,None,
,,,,,,calibration,0,15,2,500,8,N,0,right,0.649776861002465,1,0,,,,,,,,,,,,,,,,,,,,,1,,,,,,,,,,,,,,,,,,,,,,,,,,,,,,,,,,,,,,,,,,,,,,83,148576,20,Male,1,2024/03/12_14:06:12,YZ,None,
,,,,,,calibration,0,15,2,500,9,S,0,right,0.33158569400256965,1,0,,,,,,,,,,,,,,,,,,,,,1,,,,,,,,,,,,,,,,,,,,,,,,,,,,,,,,,,,,,,,,,,,,,,83,148576,20,Male,1,2024/03/12_14:06:12,YZ,None,
,,,,,,calibration,0,15,2,500,10,J,0,left,0.44186229499973706,0,0,,,,,,,,,,,,,,,,,,,,,1,,,,,,,,,,,,,,,,,,,,,,,,,,,,,,,,,,,,,,,,,,,,,,83,148576,20,Male,1,2024/03/12_14:06:12,YZ,None,
,,,,,,calibration,0,15,2,500,11,S,1,left,0.5729258610008401,1,0,,,,,,,,,,,,,,,,,,,,,1,,,,,,,,,,,,,,,,,,,,,,,,,,,,,,,,,,,,,,,,,,,,,,83,148576,20,Male,1,2024/03/12_14:06:12,YZ,None,
,,,,,,calibration,0,15,2,500,12,V,0,right,0.44428116300332476,1,0,,,,,,,,,,,,,,,,,,,,,1,,,,,,,,,,,,,,,,,,,,,,,,,,,,,,,,,,,,,,,,,,,,,,83,148576,20,Male,1,2024/03/12_14:06:12,YZ,None,
,,,,,,calibration,0,15,2,500,13,F,0,right,0.36446617299952777,1,0,,,,,,,,,,,,,,,,,,,,,1,,,,,,,,,,,,,,,,,,,,,,,,,,,,,,,,,,,,,,,,,,,,,,83,148576,20,Male,1,2024/03/12_14:06:12,YZ,None,
,,,,,,calibration,0,15,2,500,14,V,1,right,0.29119836800236953,0,0,,,,,,,,,,,,,,,,,,,,,1,,,,,,,,,,,,,,,,,,,,,,,,,,,,,,,,,,,,,,,,,,,,,,83,148576,20,Male,1,2024/03/12_14:06:12,YZ,None,
,,,,,,calibration,0,15,2,500,15,X,0,right,0.5197979010008567,1,0,,,,,,,,,,,,,,,,,,,,,1,,,,,,,,,,,,,,,,,,,,,,,,,,,,,,,,,,,,,,,,,,,,,,83,148576,20,Male,1,2024/03/12_14:06:12,YZ,None,
,,,,,,calibration,0,15,2,500,16,J,0,left,0.45238784799948917,0,0,,,,,,,,,,,,,,,,,,,,,1,,,,,,,,,,,,,,,,,,,,,,,,,,,,,,,,,,,,,,,,,,,,,,83,148576,20,Male,1,2024/03/12_14:06:12,YZ,None,
,,,,,,calibration,0,15,2,500,,,,,,,,0.6909090909090909,0.4,0.18181818181818182,0.8181818181818182,0.0,0.8181818181818181,0.39678251025088684,2,2,0,0,0,9,11,5,11,0,,,,1,,,,,,,,,,,,,,,,,,,,,,,,,,,,,,,,,,,,,,,,,,,,,,83,148576,20,Male,1,2024/03/12_14:06:12,YZ,None,
,,,,,,Calibration,0,,2,500,,,,,,,,,,,,,,,,,,,,,,,,,19,,,1,,,,,,,,,,,,,,,,,,,,,,,,,,,,,,,,,,,,,,,,,,,,,,83,148576,20,Male,1,2024/03/12_14:06:12,YZ,None,
,,,,,,calibration,0,19,2,583,1,C,0,right,0.2339812649988744,1,0,,,,,,,,,,,,,,,,,,,,,1,,,,,,,,,,,,,,,,,,,,,,,,,,,,,,,,,,,,,,,,,,,,,,83,148576,20,Male,1,2024/03/12_14:06:12,YZ,None,
,,,,,,calibration,0,19,2,583,2,F,0,right,0.16822142399905715,1,0,,,,,,,,,,,,,,,,,,,,,1,,,,,,,,,,,,,,,,,,,,,,,,,,,,,,,,,,,,,,,,,,,,,,83,148576,20,Male,1,2024/03/12_14:06:12,YZ,None,
,,,,,,calibration,0,19,2,583,3,V,0,right,0.34441002200037474,1,0,,,,,,,,,,,,,,,,,,,,,1,,,,,,,,,,,,,,,,,,,,,,,,,,,,,,,,,,,,,,,,,,,,,,83,148576,20,Male,1,2024/03/12_14:06:12,YZ,None,
,,,,,,calibration,0,19,2,583,4,N,0,right,0.28112511599829304,1,0,,,,,,,,,,,,,,,,,,,,,1,,,,,,,,,,,,,,,,,,,,,,,,,,,,,,,,,,,,,,,,,,,,,,83,148576,20,Male,1,2024/03/12_14:06:12,YZ,None,
,,,,,,calibration,0,19,2,583,5,Q,0,right,0.3089561330016295,1,0,,,,,,,,,,,,,,,,,,,,,1,,,,,,,,,,,,,,,,,,,,,,,,,,,,,,,,,,,,,,,,,,,,,,83,148576,20,Male,1,2024/03/12_14:06:12,YZ,None,
,,,,,,calibration,0,19,2,583,6,N,1,right,0.3242814970035397,0,0,,,,,,,,,,,,,,,,,,,,,1,,,,,,,,,,,,,,,,,,,,,,,,,,,,,,,,,,,,,,,,,,,,,,83,148576,20,Male,1,2024/03/12_14:06:12,YZ,None,
,,,,,,calibration,0,19,2,583,7,Q,1,right,0.31419005499992636,0,0,,,,,,,,,,,,,,,,,,,,,1,,,,,,,,,,,,,,,,,,,,,,,,,,,,,,,,,,,,,,,,,,,,,,83,148576,20,Male,1,2024/03/12_14:06:12,YZ,None,
,,,,,,calibration,0,19,2,583,8,S,0,right,0.36944540300100925,1,0,,,,,,,,,,,,,,,,,,,,,1,,,,,,,,,,,,,,,,,,,,,,,,,,,,,,,,,,,,,,,,,,,,,,83,148576,20,Male,1,2024/03/12_14:06:12,YZ,None,
,,,,,,calibration,0,19,2,583,9,X,0,right,0.35675222300051246,1,0,,,,,,,,,,,,,,,,,,,,,1,,,,,,,,,,,,,,,,,,,,,,,,,,,,,,,,,,,,,,,,,,,,,,83,148576,20,Male,1,2024/03/12_14:06:12,YZ,None,
,,,,,,calibration,0,19,2,583,10,V,0,right,0.39206430000194814,1,0,,,,,,,,,,,,,,,,,,,,,1,,,,,,,,,,,,,,,,,,,,,,,,,,,,,,,,,,,,,,,,,,,,,,83,148576,20,Male,1,2024/03/12_14:06:12,YZ,None,
,,,,,,calibration,0,19,2,583,11,F,0,right,0.5570802359980007,1,0,,,,,,,,,,,,,,,,,,,,,1,,,,,,,,,,,,,,,,,,,,,,,,,,,,,,,,,,,,,,,,,,,,,,83,148576,20,Male,1,2024/03/12_14:06:12,YZ,None,
,,,,,,calibration,0,19,2,583,12,V,1,right,0.3062792829987302,0,0,,,,,,,,,,,,,,,,,,,,,1,,,,,,,,,,,,,,,,,,,,,,,,,,,,,,,,,,,,,,,,,,,,,,83,148576,20,Male,1,2024/03/12_14:06:12,YZ,None,
,,,,,,calibration,0,19,2,583,13,C,0,right,0.3244123580006999,1,0,,,,,,,,,,,,,,,,,,,,,1,,,,,,,,,,,,,,,,,,,,,,,,,,,,,,,,,,,,,,,,,,,,,,83,148576,20,Male,1,2024/03/12_14:06:12,YZ,None,
,,,,,,calibration,0,19,2,583,14,V,1,right,0.3862363179978274,0,0,,,,,,,,,,,,,,,,,,,,,1,,,,,,,,,,,,,,,,,,,,,,,,,,,,,,,,,,,,,,,,,,,,,,83,148576,20,Male,1,2024/03/12_14:06:12,YZ,None,
,,,,,,calibration,0,19,2,583,15,N,0,right,0.3836704440000176,1,0,,,,,,,,,,,,,,,,,,,,,1,,,,,,,,,,,,,,,,,,,,,,,,,,,,,,,,,,,,,,,,,,,,,,83,148576,20,Male,1,2024/03/12_14:06:12,YZ,None,
,,,,,,calibration,0,19,2,583,,,,,,,,0.5,0.0,0.0,1.0,0.0,1.0,0.33674040513336273,0,0,0,0,0,11,11,4,11,0,,,,1,,,,,,,,,,,,,,,,,,,,,,,,,,,,,,,,,,,,,,,,,,,,,,83,148576,20,Male,1,2024/03/12_14:06:12,YZ,None,
,,,,,,Calibration,0,,2,583,,,,,,,,,,,,,,,,,,,,,,,,,20,,,1,,,,,,,,,,,,,,,,,,,,,,,,,,,,,,,,,,,,,,,,,,,,,,83,148576,20,Male,1,2024/03/12_14:06:12,YZ,None,
,,,,,,calibration,0,17,2,679,1,N,0,right,0.49278589700043085,1,0,,,,,,,,,,,,,,,,,,,,,1,,,,,,,,,,,,,,,,,,,,,,,,,,,,,,,,,,,,,,,,,,,,,,83,148576,20,Male,1,2024/03/12_14:06:12,YZ,None,
,,,,,,calibration,0,17,2,679,2,Q,0,right,0.15238018100353656,1,0,,,,,,,,,,,,,,,,,,,,,1,,,,,,,,,,,,,,,,,,,,,,,,,,,,,,,,,,,,,,,,,,,,,,83,148576,20,Male,1,2024/03/12_14:06:12,YZ,None,
,,,,,,calibration,0,17,2,679,3,N,1,left,0.3358948360000795,1,0,,,,,,,,,,,,,,,,,,,,,1,,,,,,,,,,,,,,,,,,,,,,,,,,,,,,,,,,,,,,,,,,,,,,83,148576,20,Male,1,2024/03/12_14:06:12,YZ,None,
,,,,,,calibration,0,17,2,679,4,Q,1,right,0.20993834899854846,0,0,,,,,,,,,,,,,,,,,,,,,1,,,,,,,,,,,,,,,,,,,,,,,,,,,,,,,,,,,,,,,,,,,,,,83,148576,20,Male,1,2024/03/12_14:06:12,YZ,None,
,,,,,,calibration,0,17,2,679,5,X,0,right,0.28958104200137313,1,0,,,,,,,,,,,,,,,,,,,,,1,,,,,,,,,,,,,,,,,,,,,,,,,,,,,,,,,,,,,,,,,,,,,,83,148576,20,Male,1,2024/03/12_14:06:12,YZ,None,
,,,,,,calibration,0,17,2,679,6,F,0,right,0.3050134260010964,1,0,,,,,,,,,,,,,,,,,,,,,1,,,,,,,,,,,,,,,,,,,,,,,,,,,,,,,,,,,,,,,,,,,,,,83,148576,20,Male,1,2024/03/12_14:06:12,YZ,None,
,,,,,,calibration,0,17,2,679,7,V,0,right,0.3398591410004883,1,0,,,,,,,,,,,,,,,,,,,,,1,,,,,,,,,,,,,,,,,,,,,,,,,,,,,,,,,,,,,,,,,,,,,,83,148576,20,Male,1,2024/03/12_14:06:12,YZ,None,
,,,,,,calibration,0,17,2,679,8,Q,0,right,0.3649729320022743,1,0,,,,,,,,,,,,,,,,,,,,,1,,,,,,,,,,,,,,,,,,,,,,,,,,,,,,,,,,,,,,,,,,,,,,83,148576,20,Male,1,2024/03/12_14:06:12,YZ,None,
,,,,,,calibration,0,17,2,679,9,C,0,right,0.2984362940005667,1,0,,,,,,,,,,,,,,,,,,,,,1,,,,,,,,,,,,,,,,,,,,,,,,,,,,,,,,,,,,,,,,,,,,,,83,148576,20,Male,1,2024/03/12_14:06:12,YZ,None,
,,,,,,calibration,0,17,2,679,10,J,0,right,0.3361022899989621,1,0,,,,,,,,,,,,,,,,,,,,,1,,,,,,,,,,,,,,,,,,,,,,,,,,,,,,,,,,,,,,,,,,,,,,83,148576,20,Male,1,2024/03/12_14:06:12,YZ,None,
,,,,,,calibration,0,17,2,679,11,C,1,left,0.4554122869994899,1,0,,,,,,,,,,,,,,,,,,,,,1,,,,,,,,,,,,,,,,,,,,,,,,,,,,,,,,,,,,,,,,,,,,,,83,148576,20,Male,1,2024/03/12_14:06:12,YZ,None,
,,,,,,calibration,0,17,2,679,12,J,1,right,0.3200318019989936,0,0,,,,,,,,,,,,,,,,,,,,,1,,,,,,,,,,,,,,,,,,,,,,,,,,,,,,,,,,,,,,,,,,,,,,83,148576,20,Male,1,2024/03/12_14:06:12,YZ,None,
,,,,,,calibration,0,17,2,679,13,X,0,right,0.44112053900244064,1,0,,,,,,,,,,,,,,,,,,,,,1,,,,,,,,,,,,,,,,,,,,,,,,,,,,,,,,,,,,,,,,,,,,,,83,148576,20,Male,1,2024/03/12_14:06:12,YZ,None,
,,,,,,calibration,0,17,2,679,14,F,0,left,0.5329598829994211,0,0,,,,,,,,,,,,,,,,,,,,,1,,,,,,,,,,,,,,,,,,,,,,,,,,,,,,,,,,,,,,,,,,,,,,83,148576,20,Male,1,2024/03/12_14:06:12,YZ,None,
,,,,,,calibration,0,17,2,679,,,,,,,,0.7999999999999999,0.5,0.1,0.9,0.0,0.9,0.3481777785005501,2,1,0,0,0,9,11,4,10,0,,,,1,,,,,,,,,,,,,,,,,,,,,,,,,,,,,,,,,,,,,,,,,,,,,,83,148576,20,Male,1,2024/03/12_14:06:12,YZ,None,
,,,,,,Calibration,0,,2,679,,,,,,,,,,,,,,,,,,,,,,,,,21,,,1,,,,,,,,,,,,,,,,,,,,,,,,,,,,,,,,,,,,,,,,,,,,,,83,148576,20,Male,1,2024/03/12_14:06:12,YZ,None,
,,,,,,CALIBRATION,0,,,,,,,,,,,,,,,,,,,,,,,,,,,,21,0.7999999999999999,679,1,,,,,,,,,,,,,,,,,,,,,,,,,,,,,,,,,,,,,,,,,,,,,,83,148576,20,Male,1,2024/03/12_14:06:12,YZ,None,
1,./instructions/inst_prac_1/Slide24.png,right,15.641080267996585,666.2118456790013,681.8529259469979,,,,,,,,,,,,,,,,,,,,,,,,,,,,,,,,,1,,,,,,,,,,,,,,,,,,,,,,,,,,,,,,,,,,,,,,,,,,,,,,83,148576,20,Male,1,2024/03/12_14:06:12,YZ,None,
2,./instructions/inst_prac_1/Slide25.png,right,1.9469445499998983,681.8817847540013,683.8287293040012,,,,,,,,,,,,,,,,,,,,,,,,,,,,,,,,,1,,,,,,,,,,,,,,,,,,,,,,,,,,,,,,,,,,,,,,,,,,,,,,83,148576,20,Male,1,2024/03/12_14:06:12,YZ,None,
3,./instructions/inst_prac_1/Slide26.png,right,0.9425262760014448,683.8542377839985,684.79676406,,,,,,,,,,,,,,,,,,,,,,,,,,,,,,,,,1,,,,,,,,,,,,,,,,,,,,,,,,,,,,,,,,,,,,,,,,,,,,,,83,148576,20,Male,1,2024/03/12_14:06:12,YZ,None,
4,./instructions/inst_prac_1/Slide27.png,right,0.7825177949998761,684.8222894600003,685.6048072550002,,,,,,,,,,,,,,,,,,,,,,,,,,,,,,,,,1,,,,,,,,,,,,,,,,,,,,,,,,,,,,,,,,,,,,,,,,,,,,,,83,148576,20,Male,1,2024/03/12_14:06:12,YZ,None,
5,./instructions/inst_prac_1/Slide28.png,right,1.035449207000056,685.6334634259983,686.6689126329984,,,,,,,,,,,,,,,,,,,,,,,,,,,,,,,,,1,,,,,,,,,,,,,,,,,,,,,,,,,,,,,,,,,,,,,,,,,,,,,,83,148576,20,Male,1,2024/03/12_14:06:12,YZ,None,
6,./instructions/inst_prac_1/Slide29.png,right,1.5150068099974305,686.6978222020007,688.2128290119981,,,,,,,,,,,,,,,,,,,,,,,,,,,,,,,,,1,,,,,,,,,,,,,,,,,,,,,,,,,,,,,,,,,,,,,,,,,,,,,,83,148576,20,Male,1,2024/03/12_14:06:12,YZ,None,
7,./instructions/inst_prac_1/Slide30.png,right,1.2771662090017344,688.2395870969995,689.5167533060012,,,,,,,,,,,,,,,,,,,,,,,,,,,,,,,,,1,,,,,,,,,,,,,,,,,,,,,,,,,,,,,,,,,,,,,,,,,,,,,,83,148576,20,Male,1,2024/03/12_14:06:12,YZ,None,
,,,,,,practice,0,6,1,1250,1,Q,0,right,2.250935682997806,1,0,,,,,,,,,,,,,,,,,,,,,1,,,,,,,,,,,,,,,,,,,,,,,,,,,,,,,,,,,,,,,,,,,,,,83,148576,20,Male,1,2024/03/12_14:06:12,YZ,None,
,,,,,,practice,0,6,1,1250,2,S,0,right,1.043725434999942,1,0,,,,,,,,,,,,,,,,,,,,,1,,,,,,,,,,,,,,,,,,,,,,,,,,,,,,,,,,,,,,,,,,,,,,83,148576,20,Male,1,2024/03/12_14:06:12,YZ,None,
,,,,,,practice,0,6,1,1250,3,Q,0,left,0.5735786859986547,0,0,,,,,,,,,,,,,,,,,,,,,1,,,,,,,,,,,,,,,,,,,,,,,,,,,,,,,,,,,,,,,,,,,,,,83,148576,20,Male,1,2024/03/12_14:06:12,YZ,None,
,,,,,,practice,0,6,1,1250,4,C,0,right,0.5413624299981166,1,0,,,,,,,,,,,,,,,,,,,,,1,,,,,,,,,,,,,,,,,,,,,,,,,,,,,,,,,,,,,,,,,,,,,,83,148576,20,Male,1,2024/03/12_14:06:12,YZ,None,
,,,,,,practice,0,6,1,1250,5,C,1,left,0.8372177079982066,1,0,,,,,,,,,,,,,,,,,,,,,1,,,,,,,,,,,,,,,,,,,,,,,,,,,,,,,,,,,,,,,,,,,,,,83,148576,20,Male,1,2024/03/12_14:06:12,YZ,None,
,,,,,,practice,0,6,1,1250,6,V,0,right,0.6450186379988736,1,0,,,,,,,,,,,,,,,,,,,,,1,,,,,,,,,,,,,,,,,,,,,,,,,,,,,,,,,,,,,,,,,,,,,,83,148576,20,Male,1,2024/03/12_14:06:12,YZ,None,
,,,,,,practice,0,6,1,1250,7,V,1,left,0.6210919420009304,1,0,,,,,,,,,,,,,,,,,,,,,1,,,,,,,,,,,,,,,,,,,,,,,,,,,,,,,,,,,,,,,,,,,,,,83,148576,20,Male,1,2024/03/12_14:06:12,YZ,None,
,,,,,,practice,0,6,1,1250,8,Q,0,right,0.6129660259975935,1,0,,,,,,,,,,,,,,,,,,,,,1,,,,,,,,,,,,,,,,,,,,,,,,,,,,,,,,,,,,,,,,,,,,,,83,148576,20,Male,1,2024/03/12_14:06:12,YZ,None,
,,,,,,practice,0,6,1,1250,9,V,0,right,0.9000731369997084,1,0,,,,,,,,,,,,,,,,,,,,,1,,,,,,,,,,,,,,,,,,,,,,,,,,,,,,,,,,,,,,,,,,,,,,83,148576,20,Male,1,2024/03/12_14:06:12,YZ,None,
,,,,,,practice,0,6,1,1250,10,V,1,left,0.5163429840031313,1,0,,,,,,,,,,,,,,,,,,,,,1,,,,,,,,,,,,,,,,,,,,,,,,,,,,,,,,,,,,,,,,,,,,,,83,148576,20,Male,1,2024/03/12_14:06:12,YZ,None,
,,,,,,practice,0,6,1,1250,,,,,,,,0.9642857142857143,1.0,0.14285714285714285,0.8571428571428571,0.0,0.8571428571428572,0.8542312668992963,3,1,0,0,0,6,9,3,7,0,,,,1,,,,,,,,,,,,,,,,,,,,,,,,,,,,,,,,,,,,,,,,,,,,,,83,148576,20,Male,1,2024/03/12_14:06:12,YZ,None,
-1,./instructions/inst_prac_1_next/Slide35.png,left,1.753210015998775,709.1158651949991,710.8690752109978,,,,,,,,,,,,,,,,,,,,,,,,,,,,,,,,,1,,,,,,,,,,,,,,,,,,,,,,,,,,,,,,,,,,,,,,,,,,,,,,83,148576,20,Male,1,2024/03/12_14:06:12,YZ,None,
,,,,,,practice,0,23,1,679,1,N,0,right,0.5368922099987685,1,0,,,,,,,,,,,,,,,,,,,,,1,,,,,,,,,,,,,,,,,,,,,,,,,,,,,,,,,,,,,,,,,,,,,,83,148576,20,Male,1,2024/03/12_14:06:12,YZ,None,
,,,,,,practice,0,23,1,679,2,J,0,left,0.42296936599814217,0,0,,,,,,,,,,,,,,,,,,,,,1,,,,,,,,,,,,,,,,,,,,,,,,,,,,,,,,,,,,,,,,,,,,,,83,148576,20,Male,1,2024/03/12_14:06:12,YZ,None,
,,,,,,practice,0,23,1,679,3,J,1,left,0.6458803879977495,1,0,,,,,,,,,,,,,,,,,,,,,1,,,,,,,,,,,,,,,,,,,,,,,,,,,,,,,,,,,,,,,,,,,,,,83,148576,20,Male,1,2024/03/12_14:06:12,YZ,None,
,,,,,,practice,0,23,1,679,4,N,0,right,0.5007579669982078,1,0,,,,,,,,,,,,,,,,,,,,,1,,,,,,,,,,,,,,,,,,,,,,,,,,,,,,,,,,,,,,,,,,,,,,83,148576,20,Male,1,2024/03/12_14:06:12,YZ,None,
,,,,,,practice,0,23,1,679,5,N,1,left,0.5079380349998246,1,0,,,,,,,,,,,,,,,,,,,,,1,,,,,,,,,,,,,,,,,,,,,,,,,,,,,,,,,,,,,,,,,,,,,,83,148576,20,Male,1,2024/03/12_14:06:12,YZ,None,
,,,,,,practice,0,23,1,679,6,Q,0,right,0.4017421659991669,1,0,,,,,,,,,,,,,,,,,,,,,1,,,,,,,,,,,,,,,,,,,,,,,,,,,,,,,,,,,,,,,,,,,,,,83,148576,20,Male,1,2024/03/12_14:06:12,YZ,None,
,,,,,,practice,0,23,1,679,7,F,0,right,0.38331197099978453,1,0,,,,,,,,,,,,,,,,,,,,,1,,,,,,,,,,,,,,,,,,,,,,,,,,,,,,,,,,,,,,,,,,,,,,83,148576,20,Male,1,2024/03/12_14:06:12,YZ,None,
,,,,,,practice,0,23,1,679,8,F,1,left,0.30210452800019993,1,0,,,,,,,,,,,,,,,,,,,,,1,,,,,,,,,,,,,,,,,,,,,,,,,,,,,,,,,,,,,,,,,,,,,,83,148576,20,Male,1,2024/03/12_14:06:12,YZ,None,
,,,,,,practice,0,23,1,679,9,V,0,right,0.35773720200086245,1,0,,,,,,,,,,,,,,,,,,,,,1,,,,,,,,,,,,,,,,,,,,,,,,,,,,,,,,,,,,,,,,,,,,,,83,148576,20,Male,1,2024/03/12_14:06:12,YZ,None,
,,,,,,practice,0,23,1,679,10,V,1,right,0.33312231300078565,0,0,,,,,,,,,,,,,,,,,,,,,1,,,,,,,,,,,,,,,,,,,,,,,,,,,,,,,,,,,,,,,,,,,,,,83,148576,20,Male,1,2024/03/12_14:06:12,YZ,None,
,,,,,,practice,0,23,1,679,11,N,0,right,0.6471330340027635,1,0,,,,,,,,,,,,,,,,,,,,,1,,,,,,,,,,,,,,,,,,,,,,,,,,,,,,,,,,,,,,,,,,,,,,83,148576,20,Male,1,2024/03/12_14:06:12,YZ,None,
,,,,,,practice,0,23,1,679,12,F,0,right,0.5721377390000271,1,0,,,,,,,,,,,,,,,,,,,,,1,,,,,,,,,,,,,,,,,,,,,,,,,,,,,,,,,,,,,,,,,,,,,,83,148576,20,Male,1,2024/03/12_14:06:12,YZ,None,
,,,,,,practice,0,23,1,679,13,J,0,right,0.3757628540006408,1,0,,,,,,,,,,,,,,,,,,,,,1,,,,,,,,,,,,,,,,,,,,,,,,,,,,,,,,,,,,,,,,,,,,,,83,148576,20,Male,1,2024/03/12_14:06:12,YZ,None,
,,,,,,practice,0,23,1,679,14,C,0,right,0.38128415800019866,1,0,,,,,,,,,,,,,,,,,,,,,1,,,,,,,,,,,,,,,,,,,,,,,,,,,,,,,,,,,,,,,,,,,,,,83,148576,20,Male,1,2024/03/12_14:06:12,YZ,None,
,,,,,,practice,0,23,1,679,,,,,,,,0.8875,0.75,0.1,0.9,0.0,0.9,0.45491242364265155,3,1,0,0,0,9,12,4,10,0,,,,1,,,,,,,,,,,,,,,,,,,,,,,,,,,,,,,,,,,,,,,,,,,,,,83,148576,20,Male,1,2024/03/12_14:06:12,YZ,None,
-1,./instructions/inst_prac_1_next/Slide35.png,left,1.2645351110004412,734.0123675319992,735.2769026429996,,,,,,,,,,,,,,,,,,,,,,,,,,,,,,,,,1,,,,,,,,,,,,,,,,,,,,,,,,,,,,,,,,,,,,,,,,,,,,,,83,148576,20,Male,1,2024/03/12_14:06:12,YZ,None,
,,,,,,practice,0,5,1,679,1,F,0,right,0.4534283119974134,1,0,,,,,,,,,,,,,,,,,,,,,1,,,,,,,,,,,,,,,,,,,,,,,,,,,,,,,,,,,,,,,,,,,,,,83,148576,20,Male,1,2024/03/12_14:06:12,YZ,None,
,,,,,,practice,0,5,1,679,2,F,1,right,0.36078557899963926,0,0,,,,,,,,,,,,,,,,,,,,,1,,,,,,,,,,,,,,,,,,,,,,,,,,,,,,,,,,,,,,,,,,,,,,83,148576,20,Male,1,2024/03/12_14:06:12,YZ,None,
,,,,,,practice,0,5,1,679,3,Q,0,right,0.5977503280009842,1,0,,,,,,,,,,,,,,,,,,,,,1,,,,,,,,,,,,,,,,,,,,,,,,,,,,,,,,,,,,,,,,,,,,,,83,148576,20,Male,1,2024/03/12_14:06:12,YZ,None,
,,,,,,practice,0,5,1,679,4,Q,1,left,0.5435975629989116,1,0,,,,,,,,,,,,,,,,,,,,,1,,,,,,,,,,,,,,,,,,,,,,,,,,,,,,,,,,,,,,,,,,,,,,83,148576,20,Male,1,2024/03/12_14:06:12,YZ,None,
,,,,,,practice,0,5,1,679,5,C,0,right,0.6682401479993132,1,0,,,,,,,,,,,,,,,,,,,,,1,,,,,,,,,,,,,,,,,,,,,,,,,,,,,,,,,,,,,,,,,,,,,,83,148576,20,Male,1,2024/03/12_14:06:12,YZ,None,
,,,,,,practice,0,5,1,679,6,C,1,left,0.48559493200082215,1,0,,,,,,,,,,,,,,,,,,,,,1,,,,,,,,,,,,,,,,,,,,,,,,,,,,,,,,,,,,,,,,,,,,,,83,148576,20,Male,1,2024/03/12_14:06:12,YZ,None,
,,,,,,practice,0,5,1,679,7,S,0,right,0.5560982169990893,1,0,,,,,,,,,,,,,,,,,,,,,1,,,,,,,,,,,,,,,,,,,,,,,,,,,,,,,,,,,,,,,,,,,,,,83,148576,20,Male,1,2024/03/12_14:06:12,YZ,None,
,,,,,,practice,0,5,1,679,8,Q,0,right,0.3687791739976092,1,0,,,,,,,,,,,,,,,,,,,,,1,,,,,,,,,,,,,,,,,,,,,,,,,,,,,,,,,,,,,,,,,,,,,,83,148576,20,Male,1,2024/03/12_14:06:12,YZ,None,
,,,,,,practice,0,5,1,679,9,J,0,right,0.44705507600156125,1,0,,,,,,,,,,,,,,,,,,,,,1,,,,,,,,,,,,,,,,,,,,,,,,,,,,,,,,,,,,,,,,,,,,,,83,148576,20,Male,1,2024/03/12_14:06:12,YZ,None,
,,,,,,practice,0,5,1,679,10,N,0,right,0.3812362860007852,1,0,,,,,,,,,,,,,,,,,,,,,1,,,,,,,,,,,,,,,,,,,,,,,,,,,,,,,,,,,,,,,,,,,,,,83,148576,20,Male,1,2024/03/12_14:06:12,YZ,None,
,,,,,,practice,0,5,1,679,11,C,0,right,0.371786305000569,1,0,,,,,,,,,,,,,,,,,,,,,1,,,,,,,,,,,,,,,,,,,,,,,,,,,,,,,,,,,,,,,,,,,,,,83,148576,20,Male,1,2024/03/12_14:06:12,YZ,None,
,,,,,,practice,0,5,1,679,12,V,0,right,0.614058102000854,1,0,,,,,,,,,,,,,,,,,,,,,1,,,,,,,,,,,,,,,,,,,,,,,,,,,,,,,,,,,,,,,,,,,,,,83,148576,20,Male,1,2024/03/12_14:06:12,YZ,None,
,,,,,,practice,0,5,1,679,13,S,0,right,0.4357657750006183,1,0,,,,,,,,,,,,,,,,,,,,,1,,,,,,,,,,,,,,,,,,,,,,,,,,,,,,,,,,,,,,,,,,,,,,83,148576,20,Male,1,2024/03/12_14:06:12,YZ,None,
,,,,,,practice,0,5,1,679,14,S,1,left,0.5578067540009215,1,0,,,,,,,,,,,,,,,,,,,,,1,,,,,,,,,,,,,,,,,,,,,,,,,,,,,,,,,,,,,,,,,,,,,,83,148576,20,Male,1,2024/03/12_14:06:12,YZ,None,
,,,,,,practice,0,5,1,679,,,,,,,,0.9375,0.75,0.0,1.0,0.0,1.0,0.48871303935707794,3,0,0,0,0,10,13,4,10,0,,,,1,,,,,,,,,,,,,,,,,,,,,,,,,,,,,,,,,,,,,,,,,,,,,,83,148576,20,Male,1,2024/03/12_14:06:12,YZ,None,
1,./instructions/inst_prac_1_next/Slide35.png,right,0.9528117009976995,758.3800779330013,759.332889633999,,,,,,,,,,,,,,,,,,,,,,,,,,,,,,,,,1,,,,,,,,,,,,,,,,,,,,,,,,,,,,,,,,,,,,,,,,,,,,,,83,148576,20,Male,1,2024/03/12_14:06:12,YZ,None,
,,,,,,practice,0,24,1,679,1,F,0,right,0.5117980409995653,1,0,,,,,,,,,,,,,,,,,,,,,1,,,,,,,,,,,,,,,,,,,,,,,,,,,,,,,,,,,,,,,,,,,,,,83,148576,20,Male,1,2024/03/12_14:06:12,YZ,None,
,,,,,,practice,0,24,1,679,2,F,1,left,0.35618949299896485,1,0,,,,,,,,,,,,,,,,,,,,,1,,,,,,,,,,,,,,,,,,,,,,,,,,,,,,,,,,,,,,,,,,,,,,83,148576,20,Male,1,2024/03/12_14:06:12,YZ,None,
,,,,,,practice,0,24,1,679,3,C,0,right,0.3846331709974038,1,0,,,,,,,,,,,,,,,,,,,,,1,,,,,,,,,,,,,,,,,,,,,,,,,,,,,,,,,,,,,,,,,,,,,,83,148576,20,Male,1,2024/03/12_14:06:12,YZ,None,
,,,,,,practice,0,24,1,679,4,N,0,right,0.3675799279990315,1,0,,,,,,,,,,,,,,,,,,,,,1,,,,,,,,,,,,,,,,,,,,,,,,,,,,,,,,,,,,,,,,,,,,,,83,148576,20,Male,1,2024/03/12_14:06:12,YZ,None,
,,,,,,practice,0,24,1,679,5,X,0,right,0.3485907860012958,1,0,,,,,,,,,,,,,,,,,,,,,1,,,,,,,,,,,,,,,,,,,,,,,,,,,,,,,,,,,,,,,,,,,,,,83,148576,20,Male,1,2024/03/12_14:06:12,YZ,None,
,,,,,,practice,0,24,1,679,6,N,0,left,0.3921534540022549,0,0,,,,,,,,,,,,,,,,,,,,,1,,,,,,,,,,,,,,,,,,,,,,,,,,,,,,,,,,,,,,,,,,,,,,83,148576,20,Male,1,2024/03/12_14:06:12,YZ,None,
,,,,,,practice,0,24,1,679,7,N,1,left,0.0,1,0,,,,,,,,,,,,,,,,,,,,,1,,,,,,,,,,,,,,,,,,,,,,,,,,,,,,,,,,,,,,,,,,,,,,83,148576,20,Male,1,2024/03/12_14:06:12,YZ,None,
,,,,,,practice,0,24,1,679,8,Q,0,right,0.5141919989982853,1,0,,,,,,,,,,,,,,,,,,,,,1,,,,,,,,,,,,,,,,,,,,,,,,,,,,,,,,,,,,,,,,,,,,,,83,148576,20,Male,1,2024/03/12_14:06:12,YZ,None,
,,,,,,practice,0,24,1,679,9,Q,1,right,0.4076200570016226,0,0,,,,,,,,,,,,,,,,,,,,,1,,,,,,,,,,,,,,,,,,,,,,,,,,,,,,,,,,,,,,,,,,,,,,83,148576,20,Male,1,2024/03/12_14:06:12,YZ,None,
,,,,,,practice,0,24,1,679,10,V,0,right,0.5372371949997614,1,0,,,,,,,,,,,,,,,,,,,,,1,,,,,,,,,,,,,,,,,,,,,,,,,,,,,,,,,,,,,,,,,,,,,,83,148576,20,Male,1,2024/03/12_14:06:12,YZ,None,
,,,,,,practice,0,24,1,679,11,V,1,left,0.3683051109983353,1,0,,,,,,,,,,,,,,,,,,,,,1,,,,,,,,,,,,,,,,,,,,,,,,,,,,,,,,,,,,,,,,,,,,,,83,148576,20,Male,1,2024/03/12_14:06:12,YZ,None,
,,,,,,practice,0,24,1,679,12,C,0,right,0.5137705050001387,1,0,,,,,,,,,,,,,,,,,,,,,1,,,,,,,,,,,,,,,,,,,,,,,,,,,,,,,,,,,,,,,,,,,,,,83,148576,20,Male,1,2024/03/12_14:06:12,YZ,None,
,,,,,,practice,0,24,1,679,13,X,0,right,0.3993075910002517,1,0,,,,,,,,,,,,,,,,,,,,,1,,,,,,,,,,,,,,,,,,,,,,,,,,,,,,,,,,,,,,,,,,,,,,83,148576,20,Male,1,2024/03/12_14:06:12,YZ,None,
,,,,,,practice,0,24,1,679,14,V,0,right,0.5625213200000871,1,0,,,,,,,,,,,,,,,,,,,,,1,,,,,,,,,,,,,,,,,,,,,,,,,,,,,,,,,,,,,,,,,,,,,,83,148576,20,Male,1,2024/03/12_14:06:12,YZ,None,
,,,,,,practice,0,24,1,679,,,,,,,,0.8875,0.75,0.1,0.9,0.0,0.9,0.40456418935692845,3,1,0,0,0,9,12,4,10,0,,,,1,,,,,,,,,,,,,,,,,,,,,,,,,,,,,,,,,,,,,,,,,,,,,,83,148576,20,Male,1,2024/03/12_14:06:12,YZ,None,
,,,,,,practice,0,1,1,679,1,J,0,right,0.5400074600001972,1,0,,,,,,,,,,,,,,,,,,,,,1,,,,,,,,,,,,,,,,,,,,,,,,,,,,,,,,,,,,,,,,,,,,,,83,148576,20,Male,1,2024/03/12_14:06:12,YZ,None,
,,,,,,practice,0,1,1,679,2,N,0,right,0.23940976599988062,1,0,,,,,,,,,,,,,,,,,,,,,1,,,,,,,,,,,,,,,,,,,,,,,,,,,,,,,,,,,,,,,,,,,,,,83,148576,20,Male,1,2024/03/12_14:06:12,YZ,None,
,,,,,,practice,0,1,1,679,3,N,1,left,0.32021297499886714,1,0,,,,,,,,,,,,,,,,,,,,,1,,,,,,,,,,,,,,,,,,,,,,,,,,,,,,,,,,,,,,,,,,,,,,83,148576,20,Male,1,2024/03/12_14:06:12,YZ,None,
,,,,,,practice,0,1,1,679,4,J,0,right,0.31332783900143113,1,0,,,,,,,,,,,,,,,,,,,,,1,,,,,,,,,,,,,,,,,,,,,,,,,,,,,,,,,,,,,,,,,,,,,,83,148576,20,Male,1,2024/03/12_14:06:12,YZ,None,
,,,,,,practice,0,1,1,679,5,J,1,right,0.33630129599987413,0,0,,,,,,,,,,,,,,,,,,,,,1,,,,,,,,,,,,,,,,,,,,,,,,,,,,,,,,,,,,,,,,,,,,,,83,148576,20,Male,1,2024/03/12_14:06:12,YZ,None,
,,,,,,practice,0,1,1,679,6,C,0,right,0.4891130369978782,1,0,,,,,,,,,,,,,,,,,,,,,1,,,,,,,,,,,,,,,,,,,,,,,,,,,,,,,,,,,,,,,,,,,,,,83,148576,20,Male,1,2024/03/12_14:06:12,YZ,None,
,,,,,,practice,0,1,1,679,7,J,0,right,0.424784874998295,1,0,,,,,,,,,,,,,,,,,,,,,1,,,,,,,,,,,,,,,,,,,,,,,,,,,,,,,,,,,,,,,,,,,,,,83,148576,20,Male,1,2024/03/12_14:06:12,YZ,None,
,,,,,,practice,0,1,1,679,8,J,1,right,0.3911364989980939,0,0,,,,,,,,,,,,,,,,,,,,,1,,,,,,,,,,,,,,,,,,,,,,,,,,,,,,,,,,,,,,,,,,,,,,83,148576,20,Male,1,2024/03/12_14:06:12,YZ,None,
,,,,,,practice,0,1,1,679,9,Q,0,right,0.5275796800015087,1,0,,,,,,,,,,,,,,,,,,,,,1,,,,,,,,,,,,,,,,,,,,,,,,,,,,,,,,,,,,,,,,,,,,,,83,148576,20,Male,1,2024/03/12_14:06:12,YZ,None,
,,,,,,practice,0,1,1,679,10,C,0,right,0.5225045849983871,1,0,,,,,,,,,,,,,,,,,,,,,1,,,,,,,,,,,,,,,,,,,,,,,,,,,,,,,,,,,,,,,,,,,,,,83,148576,20,Male,1,2024/03/12_14:06:12,YZ,None,
,,,,,,practice,0,1,1,679,11,C,1,left,0.4967319520001183,1,0,,,,,,,,,,,,,,,,,,,,,1,,,,,,,,,,,,,,,,,,,,,,,,,,,,,,,,,,,,,,,,,,,,,,83,148576,20,Male,1,2024/03/12_14:06:12,YZ,None,
,,,,,,practice,0,1,1,679,12,F,0,right,0.4281401990010636,1,0,,,,,,,,,,,,,,,,,,,,,1,,,,,,,,,,,,,,,,,,,,,,,,,,,,,,,,,,,,,,,,,,,,,,83,148576,20,Male,1,2024/03/12_14:06:12,YZ,None,
,,,,,,practice,0,1,1,679,13,C,0,right,0.7055909419977979,1,0,,,,,,,,,,,,,,,,,,,,,1,,,,,,,,,,,,,,,,,,,,,,,,,,,,,,,,,,,,,,,,,,,,,,83,148576,20,Male,1,2024/03/12_14:06:12,YZ,None,
,,,,,,practice,0,1,1,679,14,X,0,right,0.43664597699898877,1,0,,,,,,,,,,,,,,,,,,,,,1,,,,,,,,,,,,,,,,,,,,,,,,,,,,,,,,,,,,,,,,,,,,,,83,148576,20,Male,1,2024/03/12_14:06:12,YZ,None,
,,,,,,practice,0,1,1,679,,,,,,,,0.875,0.5,0.0,1.0,0.0,1.0,0.4408205058565987,2,0,0,0,0,10,12,4,10,0,,,,1,,,,,,,,,,,,,,,,,,,,,,,,,,,,,,,,,,,,,,,,,,,,,,83,148576,20,Male,1,2024/03/12_14:06:12,YZ,None,
1,./instructions/inst_prac_3/Slide37.png,right,5.369574610998825,789.9953903630012,795.364964974,,,,,,,,,,,,,,,,,,,,,,,,,,,,,,,,,1,,,,,,,,,,,,,,,,,,,,,,,,,,,,,,,,,,,,,,,,,,,,,,83,148576,20,Male,1,2024/03/12_14:06:12,YZ,None,
2,./instructions/inst_prac_3/Slide38.png,right,1.2664877600000182,795.3943883770007,796.6608761370007,,,,,,,,,,,,,,,,,,,,,,,,,,,,,,,,,1,,,,,,,,,,,,,,,,,,,,,,,,,,,,,,,,,,,,,,,,,,,,,,83,148576,20,Male,1,2024/03/12_14:06:12,YZ,None,
3,./instructions/inst_prac_3/Slide39.png,right,0.4622601740011305,796.6865248989998,797.1487850730009,,,,,,,,,,,,,,,,,,,,,,,,,,,,,,,,,1,,,,,,,,,,,,,,,,,,,,,,,,,,,,,,,,,,,,,,,,,,,,,,83,148576,20,Male,1,2024/03/12_14:06:12,YZ,None,
4,./instructions/inst_prac_3/Slide40.png,right,0.4755017230017984,797.1773939659979,797.6528956889997,,,,,,,,,,,,,,,,,,,,,,,,,,,,,,,,,1,,,,,,,,,,,,,,,,,,,,,,,,,,,,,,,,,,,,,,,,,,,,,,83,148576,20,Male,1,2024/03/12_14:06:12,YZ,None,
5,./instructions/inst_prac_3/Slide41.png,right,3.2115923409983225,797.6816620690006,800.8932544099989,,,,,,,,,,,,,,,,,,,,,,,,,,,,,,,,,1,,,,,,,,,,,,,,,,,,,,,,,,,,,,,,,,,,,,,,,,,,,,,,83,148576,20,Male,1,2024/03/12_14:06:12,YZ,None,
6,./instructions/inst_prac_3/Slide42.png,right,1.4595506279983965,800.9213984529997,802.3809490809981,,,,,,,,,,,,,,,,,,,,,,,,,,,,,,,,,1,,,,,,,,,,,,,,,,,,,,,,,,,,,,,,,,,,,,,,,,,,,,,,83,148576,20,Male,1,2024/03/12_14:06:12,YZ,None,
7,./instructions/inst_prac_3/Slide43.png,right,5.653700225000648,802.4070877300001,808.0607879550007,,,,,,,,,,,,,,,,,,,,,,,,,,,,,,,,,1,,,,,,,,,,,,,,,,,,,,,,,,,,,,,,,,,,,,,,,,,,,,,,83,148576,20,Male,1,2024/03/12_14:06:12,YZ,None,
8,./instructions/inst_prac_3/Slide44.png,right,19.938831964998826,808.0900269800004,828.0288589449992,,,,,,,,,,,,,,,,,,,,,,,,,,,,,,,,,1,,,,,,,,,,,,,,,,,,,,,,,,,,,,,,,,,,,,,,,,,,,,,,83,148576,20,Male,1,2024/03/12_14:06:12,YZ,None,
,,,,,,practice,0,8,3,788,1,N,0,right,2.299252108001383,1,0,,,,,,,,,,,,,,,,,,,,,1,,,,,,,,,,,,,,,,,,,,,,,,,,,,,,,,,,,,,,,,,,,,,,83,148576,20,Male,1,2024/03/12_14:06:12,YZ,None,
,,,,,,practice,0,8,3,788,2,F,0,right,0.5360048929978802,1,0,,,,,,,,,,,,,,,,,,,,,1,,,,,,,,,,,,,,,,,,,,,,,,,,,,,,,,,,,,,,,,,,,,,,83,148576,20,Male,1,2024/03/12_14:06:12,YZ,None,
,,,,,,practice,0,8,3,788,3,C,0,right,0.27952670800004853,1,0,,,,,,,,,,,,,,,,,,,,,1,,,,,,,,,,,,,,,,,,,,,,,,,,,,,,,,,,,,,,,,,,,,,,83,148576,20,Male,1,2024/03/12_14:06:12,YZ,None,
,,,,,,practice,0,8,3,788,4,N,1,left,0.3567173070005083,1,0,,,,,,,,,,,,,,,,,,,,,1,,,,,,,,,,,,,,,,,,,,,,,,,,,,,,,,,,,,,,,,,,,,,,83,148576,20,Male,1,2024/03/12_14:06:12,YZ,None,
,,,,,,practice,0,8,3,788,5,N,0,right,0.903813179997087,1,0,,,,,,,,,,,,,,,,,,,,,1,,,,,,,,,,,,,,,,,,,,,,,,,,,,,,,,,,,,,,,,,,,,,,83,148576,20,Male,1,2024/03/12_14:06:12,YZ,None,
,,,,,,practice,0,8,3,788,6,Q,0,right,0.5203406079999695,1,0,,,,,,,,,,,,,,,,,,,,,1,,,,,,,,,,,,,,,,,,,,,,,,,,,,,,,,,,,,,,,,,,,,,,83,148576,20,Male,1,2024/03/12_14:06:12,YZ,None,
,,,,,,practice,0,8,3,788,7,J,0,right,0.5684962800005451,1,0,,,,,,,,,,,,,,,,,,,,,1,,,,,,,,,,,,,,,,,,,,,,,,,,,,,,,,,,,,,,,,,,,,,,83,148576,20,Male,1,2024/03/12_14:06:12,YZ,None,
,,,,,,practice,0,8,3,788,8,V,0,right,0.7670709670019278,1,0,,,,,,,,,,,,,,,,,,,,,1,,,,,,,,,,,,,,,,,,,,,,,,,,,,,,,,,,,,,,,,,,,,,,83,148576,20,Male,1,2024/03/12_14:06:12,YZ,None,
,,,,,,practice,0,8,3,788,9,Q,1,left,0.6613205039975583,1,0,,,,,,,,,,,,,,,,,,,,,1,,,,,,,,,,,,,,,,,,,,,,,,,,,,,,,,,,,,,,,,,,,,,,83,148576,20,Male,1,2024/03/12_14:06:12,YZ,None,
,,,,,,practice,0,8,3,788,10,J,1,left,0.7005017939991376,1,0,,,,,,,,,,,,,,,,,,,,,1,,,,,,,,,,,,,,,,,,,,,,,,,,,,,,,,,,,,,,,,,,,,,,83,148576,20,Male,1,2024/03/12_14:06:12,YZ,None,
