Instruction,Stimulus,Key,RT,START,END,Phase,Block,TrialN,NbackLevel,ISI,LetterN,Letter,Letter_isSame,Letter_Resp,Letter_RT,Letter_Accuracy,Letter_Timeout,Trial_A_measure,Trial_HR,Trial_FAR,Trial_CDR,Trial_MSR,Trial_ACC,Trial_RT,Trial_HitsCount,Trial_FAsCount,Trial_SameNoRespCount,Trial_DiffNoRespCount,Trial_NoRespCount,Trial_CDsCount,Trial_CorrectRespCount,Trial_SameLetterCount,Trial_DiffLetterCount,Trial_InvalidLetterCount,TrialCountCali,CaliEnd_A_measure,ISI_calibrated,Run,TrialIndex,TrialNumber_total,TrialNumber_valid,CueLearning,TrialDemandLearning,CueMapping,OnlineRating,OnlineRatingRT,OnlineRatingTimeOut,CueSTART,RatingSTART,OfflineRatingTimePoint,OfflineRatingQuesIndex,CueFigure,TrialDemand,OfflineRating,OfflineRatingRT,CueStart,OfflineRatingStart,PhaseType,CueLeft,CueDemandLeft,CueRight,CueDemandRight,Choice,ChoiceDemand,TaskDemand,ChoiceRT,ChoiceTimeOut,ChoiceSTART,CueCheck,CueDemandCheck,CorrectAnswer,Answer,AnswerDemand,AnswerRT,AnswerACC,AnswerTimeOut,CheckSTART,DemandRatingQuesIndex,QuesTLX,DemandLevel,DemandRating,DemandRatingRT,QuesStart,PID,SONA,Age,Gender,Run,TIME,EXPERIMENTER,frameRate,
1,./instructions/inst_begin/Slide2.png,right,23.36769426400133,0.11947435200272594,23.487168616004055,,,,,,,,,,,,,,,,,,,,,,,,,,,,,,,,,1,,,,,,,,,,,,,,,,,,,,,,,,,,,,,,,,,,,,,,,,,,,,,,87,158866,18,Female,1,2024/03/13_15:59:54,YZ,None,
2,./instructions/inst_begin/Slide3.png,right,10.090295762987807,23.516981835011393,33.6072775979992,,,,,,,,,,,,,,,,,,,,,,,,,,,,,,,,,1,,,,,,,,,,,,,,,,,,,,,,,,,,,,,,,,,,,,,,,,,,,,,,87,158866,18,Female,1,2024/03/13_15:59:54,YZ,None,
3,./instructions/inst_begin/Slide4.png,right,11.745561625997652,33.63778136500332,45.38334299100097,,,,,,,,,,,,,,,,,,,,,,,,,,,,,,,,,1,,,,,,,,,,,,,,,,,,,,,,,,,,,,,,,,,,,,,,,,,,,,,,87,158866,18,Female,1,2024/03/13_15:59:54,YZ,None,
1,./instructions/inst_prac_2/Slide6.png,right,20.355658082000446,45.419733169008396,65.77539125100884,,,,,,,,,,,,,,,,,,,,,,,,,,,,,,,,,1,,,,,,,,,,,,,,,,,,,,,,,,,,,,,,,,,,,,,,,,,,,,,,87,158866,18,Female,1,2024/03/13_15:59:54,YZ,None,
2,./instructions/inst_prac_2/Slide7.png,right,17.73251732699282,65.80291733201011,83.53543465900293,,,,,,,,,,,,,,,,,,,,,,,,,,,,,,,,,1,,,,,,,,,,,,,,,,,,,,,,,,,,,,,,,,,,,,,,,,,,,,,,87,158866,18,Female,1,2024/03/13_15:59:54,YZ,None,
3,./instructions/inst_prac_2/Slide8.png,right,17.467366586992284,83.56405703201017,101.03142361900245,,,,,,,,,,,,,,,,,,,,,,,,,,,,,,,,,1,,,,,,,,,,,,,,,,,,,,,,,,,,,,,,,,,,,,,,,,,,,,,,87,158866,18,Female,1,2024/03/13_15:59:54,YZ,None,
4,./instructions/inst_prac_2/Slide9.png,right,4.067234340996947,101.06001170900709,105.12724605000403,,,,,,,,,,,,,,,,,,,,,,,,,,,,,,,,,1,,,,,,,,,,,,,,,,,,,,,,,,,,,,,,,,,,,,,,,,,,,,,,87,158866,18,Female,1,2024/03/13_15:59:54,YZ,None,
5,./instructions/inst_prac_2/Slide10.png,right,1.7227207760006422,105.15663416600728,106.87935494200792,,,,,,,,,,,,,,,,,,,,,,,,,,,,,,,,,1,,,,,,,,,,,,,,,,,,,,,,,,,,,,,,,,,,,,,,,,,,,,,,87,158866,18,Female,1,2024/03/13_15:59:54,YZ,None,
6,./instructions/inst_prac_2/Slide11.png,right,1.9868250020081177,106.90846708600293,108.89529208801105,,,,,,,,,,,,,,,,,,,,,,,,,,,,,,,,,1,,,,,,,,,,,,,,,,,,,,,,,,,,,,,,,,,,,,,,,,,,,,,,87,158866,18,Female,1,2024/03/13_15:59:54,YZ,None,
7,./instructions/inst_prac_2/Slide12.png,right,1.6580409199959831,108.92539328400744,110.58343420400342,,,,,,,,,,,,,,,,,,,,,,,,,,,,,,,,,1,,,,,,,,,,,,,,,,,,,,,,,,,,,,,,,,,,,,,,,,,,,,,,87,158866,18,Female,1,2024/03/13_15:59:54,YZ,None,
8,./instructions/inst_prac_2/Slide13.png,right,2.0188957399950596,110.6126606970065,112.63155643700156,,,,,,,,,,,,,,,,,,,,,,,,,,,,,,,,,1,,,,,,,,,,,,,,,,,,,,,,,,,,,,,,,,,,,,,,,,,,,,,,87,158866,18,Female,1,2024/03/13_15:59:54,YZ,None,
9,./instructions/inst_prac_2/Slide14.png,right,18.330269879996195,112.66119327201159,130.99146315200778,,,,,,,,,,,,,,,,,,,,,,,,,,,,,,,,,1,,,,,,,,,,,,,,,,,,,,,,,,,,,,,,,,,,,,,,,,,,,,,,87,158866,18,Female,1,2024/03/13_15:59:54,YZ,None,
10,./instructions/inst_prac_2/Slide15.png,right,24.28998945800413,131.02133209700696,155.3113215550111,,,,,,,,,,,,,,,,,,,,,,,,,,,,,,,,,1,,,,,,,,,,,,,,,,,,,,,,,,,,,,,,,,,,,,,,,,,,,,,,87,158866,18,Female,1,2024/03/13_15:59:54,YZ,None,
,,,,,,practice,0,9,2,2583,1,C,0,right,2.480972312987433,1,0,,,,,,,,,,,,,,,,,,,,,1,,,,,,,,,,,,,,,,,,,,,,,,,,,,,,,,,,,,,,,,,,,,,,87,158866,18,Female,1,2024/03/13_15:59:54,YZ,None,
,,,,,,practice,0,9,2,2583,2,F,0,right,0.961500735997106,1,0,,,,,,,,,,,,,,,,,,,,,1,,,,,,,,,,,,,,,,,,,,,,,,,,,,,,,,,,,,,,,,,,,,,,87,158866,18,Female,1,2024/03/13_15:59:54,YZ,None,
,,,,,,practice,0,9,2,2583,3,C,1,left,0.7722176310053328,1,0,,,,,,,,,,,,,,,,,,,,,1,,,,,,,,,,,,,,,,,,,,,,,,,,,,,,,,,,,,,,,,,,,,,,87,158866,18,Female,1,2024/03/13_15:59:54,YZ,None,
,,,,,,practice,0,9,2,2583,4,Q,0,right,0.5706837139878189,1,0,,,,,,,,,,,,,,,,,,,,,1,,,,,,,,,,,,,,,,,,,,,,,,,,,,,,,,,,,,,,,,,,,,,,87,158866,18,Female,1,2024/03/13_15:59:54,YZ,None,
,,,,,,practice,0,9,2,2583,5,N,0,right,0.9199643559986725,1,0,,,,,,,,,,,,,,,,,,,,,1,,,,,,,,,,,,,,,,,,,,,,,,,,,,,,,,,,,,,,,,,,,,,,87,158866,18,Female,1,2024/03/13_15:59:54,YZ,None,
,,,,,,practice,0,9,2,2583,6,Q,1,left,0.6479205549985636,1,0,,,,,,,,,,,,,,,,,,,,,1,,,,,,,,,,,,,,,,,,,,,,,,,,,,,,,,,,,,,,,,,,,,,,87,158866,18,Female,1,2024/03/13_15:59:54,YZ,None,
,,,,,,practice,0,9,2,2583,,,,,,,,1.0,1.0,0.0,1.0,0.0,1.0,1.0588765508291544,2,0,0,0,0,4,6,2,4,0,,,,1,,,,,,,,,,,,,,,,,,,,,,,,,,,,,,,,,,,,,,,,,,,,,,87,158866,18,Female,1,2024/03/13_15:59:54,YZ,None,
1,./instructions/inst_to_cali/Slide20.png,right,3.040302225999767,168.0230189240101,171.06332115000987,,,,,,,,,,,,,,,,,,,,,,,,,,,,,,,,,1,,,,,,,,,,,,,,,,,,,,,,,,,,,,,,,,,,,,,,,,,,,,,,87,158866,18,Female,1,2024/03/13_15:59:54,YZ,None,
1,./instructions/inst_cali/Slide22.png,right,10.999712595992605,171.09555887601164,182.09527147200424,,,,,,,,,,,,,,,,,,,,,,,,,,,,,,,,,1,,,,,,,,,,,,,,,,,,,,,,,,,,,,,,,,,,,,,,,,,,,,,,87,158866,18,Female,1,2024/03/13_15:59:54,YZ,None,
,,,,,,calibration,0,18,2,583,1,X,0,left,1.8599527339974884,0,0,,,,,,,,,,,,,,,,,,,,,1,,,,,,,,,,,,,,,,,,,,,,,,,,,,,,,,,,,,,,,,,,,,,,87,158866,18,Female,1,2024/03/13_15:59:54,YZ,None,
,,,,,,calibration,0,18,2,583,2,C,0,right,0.8925648970034672,1,0,,,,,,,,,,,,,,,,,,,,,1,,,,,,,,,,,,,,,,,,,,,,,,,,,,,,,,,,,,,,,,,,,,,,87,158866,18,Female,1,2024/03/13_15:59:54,YZ,None,
,,,,,,calibration,0,18,2,583,3,S,0,right,0.7405988940008683,1,0,,,,,,,,,,,,,,,,,,,,,1,,,,,,,,,,,,,,,,,,,,,,,,,,,,,,,,,,,,,,,,,,,,,,87,158866,18,Female,1,2024/03/13_15:59:54,YZ,None,
,,,,,,calibration,0,18,2,583,4,V,0,right,0.8491353150020586,1,0,,,,,,,,,,,,,,,,,,,,,1,,,,,,,,,,,,,,,,,,,,,,,,,,,,,,,,,,,,,,,,,,,,,,87,158866,18,Female,1,2024/03/13_15:59:54,YZ,None,
,,,,,,calibration,0,18,2,583,5,X,0,left,1.0078501350071747,0,0,,,,,,,,,,,,,,,,,,,,,1,,,,,,,,,,,,,,,,,,,,,,,,,,,,,,,,,,,,,,,,,,,,,,87,158866,18,Female,1,2024/03/13_15:59:54,YZ,None,
,,,,,,calibration,0,18,2,583,6,J,0,right,0.6434890950040426,1,0,,,,,,,,,,,,,,,,,,,,,1,,,,,,,,,,,,,,,,,,,,,,,,,,,,,,,,,,,,,,,,,,,,,,87,158866,18,Female,1,2024/03/13_15:59:54,YZ,None,
,,,,,,calibration,0,18,2,583,7,X,1,left,0.7746813030098565,1,0,,,,,,,,,,,,,,,,,,,,,1,,,,,,,,,,,,,,,,,,,,,,,,,,,,,,,,,,,,,,,,,,,,,,87,158866,18,Female,1,2024/03/13_15:59:54,YZ,None,
,,,,,,calibration,0,18,2,583,8,J,1,left,1.6032453560037538,1,0,,,,,,,,,,,,,,,,,,,,,1,,,,,,,,,,,,,,,,,,,,,,,,,,,,,,,,,,,,,,,,,,,,,,87,158866,18,Female,1,2024/03/13_15:59:54,YZ,None,
,,,,,,calibration,0,18,2,583,9,V,0,right,0.7975036860007094,1,0,,,,,,,,,,,,,,,,,,,,,1,,,,,,,,,,,,,,,,,,,,,,,,,,,,,,,,,,,,,,,,,,,,,,87,158866,18,Female,1,2024/03/13_15:59:54,YZ,None,
,,,,,,calibration,0,18,2,583,10,J,1,left,0.9750787569937529,1,0,,,,,,,,,,,,,,,,,,,,,1,,,,,,,,,,,,,,,,,,,,,,,,,,,,,,,,,,,,,,,,,,,,,,87,158866,18,Female,1,2024/03/13_15:59:54,YZ,None,
,,,,,,calibration,0,18,2,583,11,Q,0,right,0.8029596349952044,1,0,,,,,,,,,,,,,,,,,,,,,1,,,,,,,,,,,,,,,,,,,,,,,,,,,,,,,,,,,,,,,,,,,,,,87,158866,18,Female,1,2024/03/13_15:59:54,YZ,None,
,,,,,,calibration,0,18,2,583,12,F,0,right,1.0200873309950111,1,0,,,,,,,,,,,,,,,,,,,,,1,,,,,,,,,,,,,,,,,,,,,,,,,,,,,,,,,,,,,,,,,,,,,,87,158866,18,Female,1,2024/03/13_15:59:54,YZ,None,
,,,,,,calibration,0,18,2,583,13,Q,1,left,0.5967196370038437,1,0,,,,,,,,,,,,,,,,,,,,,1,,,,,,,,,,,,,,,,,,,,,,,,,,,,,,,,,,,,,,,,,,,,,,87,158866,18,Female,1,2024/03/13_15:59:54,YZ,None,
,,,,,,calibration,0,18,2,583,14,N,0,right,1.4316607560031116,1,0,,,,,,,,,,,,,,,,,,,,,1,,,,,,,,,,,,,,,,,,,,,,,,,,,,,,,,,,,,,,,,,,,,,,87,158866,18,Female,1,2024/03/13_15:59:54,YZ,None,
,,,,,,calibration,0,18,2,583,15,J,0,left,0.7977436560031492,0,0,,,,,,,,,,,,,,,,,,,,,1,,,,,,,,,,,,,,,,,,,,,,,,,,,,,,,,,,,,,,,,,,,,,,87,158866,18,Female,1,2024/03/13_15:59:54,YZ,None,
,,,,,,calibration,0,18,2,583,,,,,,,,0.9318181818181819,1.0,0.2727272727272727,0.7272727272727273,0.0,0.7272727272727273,0.9862180791348995,4,3,0,0,0,8,12,4,11,0,,,,1,,,,,,,,,,,,,,,,,,,,,,,,,,,,,,,,,,,,,,,,,,,,,,87,158866,18,Female,1,2024/03/13_15:59:54,YZ,None,
,,,,,,Calibration,0,,2,583,,,,,,,,,,,,,,,,,,,,,,,,,1,,,1,,,,,,,,,,,,,,,,,,,,,,,,,,,,,,,,,,,,,,,,,,,,,,87,158866,18,Female,1,2024/03/13_15:59:54,YZ,None,
,,,,,,calibration,0,4,2,500,1,Q,0,None,nan,0,1,,,,,,,,,,,,,,,,,,,,,1,,,,,,,,,,,,,,,,,,,,,,,,,,,,,,,,,,,,,,,,,,,,,,87,158866,18,Female,1,2024/03/13_15:59:54,YZ,None,
,,,,,,calibration,0,4,2,500,2,C,0,None,nan,0,1,,,,,,,,,,,,,,,,,,,,,1,,,,,,,,,,,,,,,,,,,,,,,,,,,,,,,,,,,,,,,,,,,,,,87,158866,18,Female,1,2024/03/13_15:59:54,YZ,None,
,,,,,,calibration,0,4,2,500,3,Q,1,left,0.775541773007717,1,0,,,,,,,,,,,,,,,,,,,,,1,,,,,,,,,,,,,,,,,,,,,,,,,,,,,,,,,,,,,,,,,,,,,,87,158866,18,Female,1,2024/03/13_15:59:54,YZ,None,
,,,,,,calibration,0,4,2,500,4,F,0,left,nan,0,1,,,,,,,,,,,,,,,,,,,,,1,,,,,,,,,,,,,,,,,,,,,,,,,,,,,,,,,,,,,,,,,,,,,,87,158866,18,Female,1,2024/03/13_15:59:54,YZ,None,
,,,,,,calibration,0,4,2,500,5,S,0,left,0.7643089670018526,0,0,,,,,,,,,,,,,,,,,,,,,1,,,,,,,,,,,,,,,,,,,,,,,,,,,,,,,,,,,,,,,,,,,,,,87,158866,18,Female,1,2024/03/13_15:59:54,YZ,None,
,,,,,,calibration,0,4,2,500,6,F,1,right,0.7259680019924417,0,0,,,,,,,,,,,,,,,,,,,,,1,,,,,,,,,,,,,,,,,,,,,,,,,,,,,,,,,,,,,,,,,,,,,,87,158866,18,Female,1,2024/03/13_15:59:54,YZ,None,
,,,,,,calibration,0,4,2,500,7,J,0,right,0.8578588779928396,1,0,,,,,,,,,,,,,,,,,,,,,1,,,,,,,,,,,,,,,,,,,,,,,,,,,,,,,,,,,,,,,,,,,,,,87,158866,18,Female,1,2024/03/13_15:59:54,YZ,None,
,,,,,,calibration,0,4,2,500,8,F,1,left,0.9157461860013427,1,0,,,,,,,,,,,,,,,,,,,,,1,,,,,,,,,,,,,,,,,,,,,,,,,,,,,,,,,,,,,,,,,,,,,,87,158866,18,Female,1,2024/03/13_15:59:54,YZ,None,
,,,,,,calibration,0,4,2,500,9,N,0,right,0.9411558150022756,1,0,,,,,,,,,,,,,,,,,,,,,1,,,,,,,,,,,,,,,,,,,,,,,,,,,,,,,,,,,,,,,,,,,,,,87,158866,18,Female,1,2024/03/13_15:59:54,YZ,None,
,,,,,,calibration,0,4,2,500,10,F,1,left,0.7635012529935921,1,0,,,,,,,,,,,,,,,,,,,,,1,,,,,,,,,,,,,,,,,,,,,,,,,,,,,,,,,,,,,,,,,,,,,,87,158866,18,Female,1,2024/03/13_15:59:54,YZ,None,
,,,,,,calibration,0,4,2,500,11,C,0,right,0.8749169869988691,1,0,,,,,,,,,,,,,,,,,,,,,1,,,,,,,,,,,,,,,,,,,,,,,,,,,,,,,,,,,,,,,,,,,,,,87,158866,18,Female,1,2024/03/13_15:59:54,YZ,None,
,,,,,,calibration,0,4,2,500,12,Q,0,right,nan,0,1,,,,,,,,,,,,,,,,,,,,,1,,,,,,,,,,,,,,,,,,,,,,,,,,,,,,,,,,,,,,,,,,,,,,87,158866,18,Female,1,2024/03/13_15:59:54,YZ,None,
,,,,,,calibration,0,4,2,500,13,C,1,left,0.7821603170013987,1,0,,,,,,,,,,,,,,,,,,,,,1,,,,,,,,,,,,,,,,,,,,,,,,,,,,,,,,,,,,,,,,,,,,,,87,158866,18,Female,1,2024/03/13_15:59:54,YZ,None,
,,,,,,calibration,0,4,2,500,14,V,0,right,0.8228380770015065,1,0,,,,,,,,,,,,,,,,,,,,,1,,,,,,,,,,,,,,,,,,,,,,,,,,,,,,,,,,,,,,,,,,,,,,87,158866,18,Female,1,2024/03/13_15:59:54,YZ,None,
,,,,,,calibration,0,4,2,500,15,X,0,right,0.6857524750084849,1,0,,,,,,,,,,,,,,,,,,,,,1,,,,,,,,,,,,,,,,,,,,,,,,,,,,,,,,,,,,,,,,,,,,,,87,158866,18,Female,1,2024/03/13_15:59:54,YZ,None,
,,,,,,calibration,0,4,2,500,16,C,0,right,0.6766056600026786,1,0,,,,,,,,,,,,,,,,,,,,,1,,,,,,,,,,,,,,,,,,,,,,,,,,,,,,,,,,,,,,,,,,,,,,87,158866,18,Female,1,2024/03/13_15:59:54,YZ,None,
,,,,,,calibration,0,4,2,500,,,,,,,,0.9090909090909091,0.8,0.09090909090909091,0.8571428571428571,0.25,0.6590909090909091,0.7988628658337499,4,1,0,4,4,6,10,5,11,0,,,,1,,,,,,,,,,,,,,,,,,,,,,,,,,,,,,,,,,,,,,,,,,,,,,87,158866,18,Female,1,2024/03/13_15:59:54,YZ,None,
,,,,,,Calibration,0,,2,500,,,,,,,,,,,,,,,,,,,,,,,,,2,,,1,,,,,,,,,,,,,,,,,,,,,,,,,,,,,,,,,,,,,,,,,,,,,,87,158866,18,Female,1,2024/03/13_15:59:54,YZ,None,
,,,,,,calibration,0,14,2,426,1,F,0,right,0.7632351890060818,1,0,,,,,,,,,,,,,,,,,,,,,1,,,,,,,,,,,,,,,,,,,,,,,,,,,,,,,,,,,,,,,,,,,,,,87,158866,18,Female,1,2024/03/13_15:59:54,YZ,None,
,,,,,,calibration,0,14,2,426,2,C,0,right,0.45389344199793413,1,0,,,,,,,,,,,,,,,,,,,,,1,,,,,,,,,,,,,,,,,,,,,,,,,,,,,,,,,,,,,,,,,,,,,,87,158866,18,Female,1,2024/03/13_15:59:54,YZ,None,
,,,,,,calibration,0,14,2,426,3,X,0,right,0.5409303680062294,1,0,,,,,,,,,,,,,,,,,,,,,1,,,,,,,,,,,,,,,,,,,,,,,,,,,,,,,,,,,,,,,,,,,,,,87,158866,18,Female,1,2024/03/13_15:59:54,YZ,None,
,,,,,,calibration,0,14,2,426,4,C,1,right,0.7231507529941155,0,0,,,,,,,,,,,,,,,,,,,,,1,,,,,,,,,,,,,,,,,,,,,,,,,,,,,,,,,,,,,,,,,,,,,,87,158866,18,Female,1,2024/03/13_15:59:54,YZ,None,
,,,,,,calibration,0,14,2,426,5,F,0,left,0.6250272750039585,0,0,,,,,,,,,,,,,,,,,,,,,1,,,,,,,,,,,,,,,,,,,,,,,,,,,,,,,,,,,,,,,,,,,,,,87,158866,18,Female,1,2024/03/13_15:59:54,YZ,None,
,,,,,,calibration,0,14,2,426,6,C,1,right,0.6077872040041257,0,0,,,,,,,,,,,,,,,,,,,,,1,,,,,,,,,,,,,,,,,,,,,,,,,,,,,,,,,,,,,,,,,,,,,,87,158866,18,Female,1,2024/03/13_15:59:54,YZ,None,
,,,,,,calibration,0,14,2,426,7,N,0,right,0.6949297589890193,1,0,,,,,,,,,,,,,,,,,,,,,1,,,,,,,,,,,,,,,,,,,,,,,,,,,,,,,,,,,,,,,,,,,,,,87,158866,18,Female,1,2024/03/13_15:59:54,YZ,None,
,,,,,,calibration,0,14,2,426,8,C,1,left,0.7424458379973657,1,0,,,,,,,,,,,,,,,,,,,,,1,,,,,,,,,,,,,,,,,,,,,,,,,,,,,,,,,,,,,,,,,,,,,,87,158866,18,Female,1,2024/03/13_15:59:54,YZ,None,
,,,,,,calibration,0,14,2,426,9,F,0,right,0.48029262800992,1,0,,,,,,,,,,,,,,,,,,,,,1,,,,,,,,,,,,,,,,,,,,,,,,,,,,,,,,,,,,,,,,,,,,,,87,158866,18,Female,1,2024/03/13_15:59:54,YZ,None,
,,,,,,calibration,0,14,2,426,10,V,0,right,0.6158977930026595,1,0,,,,,,,,,,,,,,,,,,,,,1,,,,,,,,,,,,,,,,,,,,,,,,,,,,,,,,,,,,,,,,,,,,,,87,158866,18,Female,1,2024/03/13_15:59:54,YZ,None,
,,,,,,calibration,0,14,2,426,11,J,0,right,0.4304910079954425,1,0,,,,,,,,,,,,,,,,,,,,,1,,,,,,,,,,,,,,,,,,,,,,,,,,,,,,,,,,,,,,,,,,,,,,87,158866,18,Female,1,2024/03/13_15:59:54,YZ,None,
,,,,,,calibration,0,14,2,426,12,V,1,left,0.6012627909949515,1,0,,,,,,,,,,,,,,,,,,,,,1,,,,,,,,,,,,,,,,,,,,,,,,,,,,,,,,,,,,,,,,,,,,,,87,158866,18,Female,1,2024/03/13_15:59:54,YZ,None,
,,,,,,calibration,0,14,2,426,13,J,1,right,0.30403250199742615,0,0,,,,,,,,,,,,,,,,,,,,,1,,,,,,,,,,,,,,,,,,,,,,,,,,,,,,,,,,,,,,,,,,,,,,87,158866,18,Female,1,2024/03/13_15:59:54,YZ,None,
,,,,,,calibration,0,14,2,426,14,X,0,right,0.6263166080025258,1,0,,,,,,,,,,,,,,,,,,,,,1,,,,,,,,,,,,,,,,,,,,,,,,,,,,,,,,,,,,,,,,,,,,,,87,158866,18,Female,1,2024/03/13_15:59:54,YZ,None,
,,,,,,calibration,0,14,2,426,15,S,0,right,0.4922391330037499,1,0,,,,,,,,,,,,,,,,,,,,,1,,,,,,,,,,,,,,,,,,,,,,,,,,,,,,,,,,,,,,,,,,,,,,87,158866,18,Female,1,2024/03/13_15:59:54,YZ,None,
,,,,,,calibration,0,14,2,426,16,J,0,left,0.5122443200089037,0,0,,,,,,,,,,,,,,,,,,,,,1,,,,,,,,,,,,,,,,,,,,,,,,,,,,,,,,,,,,,,,,,,,,,,87,158866,18,Female,1,2024/03/13_15:59:54,YZ,None,
,,,,,,calibration,0,14,2,426,17,C,0,right,0.530553085001884,1,0,,,,,,,,,,,,,,,,,,,,,1,,,,,,,,,,,,,,,,,,,,,,,,,,,,,,,,,,,,,,,,,,,,,,87,158866,18,Female,1,2024/03/13_15:59:54,YZ,None,
,,,,,,calibration,0,14,2,426,,,,,,,,0.7041666666666667,0.4,0.16666666666666666,0.8333333333333334,0.0,0.8333333333333334,0.5732193938833113,2,2,0,0,0,10,12,5,12,0,,,,1,,,,,,,,,,,,,,,,,,,,,,,,,,,,,,,,,,,,,,,,,,,,,,87,158866,18,Female,1,2024/03/13_15:59:54,YZ,None,
,,,,,,Calibration,0,,2,426,,,,,,,,,,,,,,,,,,,,,,,,,3,,,1,,,,,,,,,,,,,,,,,,,,,,,,,,,,,,,,,,,,,,,,,,,,,,87,158866,18,Female,1,2024/03/13_15:59:54,YZ,None,
,,,,,,calibration,0,14,2,500,1,Q,0,right,0.7291193330020178,1,0,,,,,,,,,,,,,,,,,,,,,1,,,,,,,,,,,,,,,,,,,,,,,,,,,,,,,,,,,,,,,,,,,,,,87,158866,18,Female,1,2024/03/13_15:59:54,YZ,None,
,,,,,,calibration,0,14,2,500,2,C,0,right,0.4611311399930855,1,0,,,,,,,,,,,,,,,,,,,,,1,,,,,,,,,,,,,,,,,,,,,,,,,,,,,,,,,,,,,,,,,,,,,,87,158866,18,Female,1,2024/03/13_15:59:54,YZ,None,
,,,,,,calibration,0,14,2,500,3,F,0,right,0.5123281029955251,1,0,,,,,,,,,,,,,,,,,,,,,1,,,,,,,,,,,,,,,,,,,,,,,,,,,,,,,,,,,,,,,,,,,,,,87,158866,18,Female,1,2024/03/13_15:59:54,YZ,None,
,,,,,,calibration,0,14,2,500,4,C,1,left,0.565500354001415,1,0,,,,,,,,,,,,,,,,,,,,,1,,,,,,,,,,,,,,,,,,,,,,,,,,,,,,,,,,,,,,,,,,,,,,87,158866,18,Female,1,2024/03/13_15:59:54,YZ,None,
,,,,,,calibration,0,14,2,500,5,N,0,right,0.47157015500124544,1,0,,,,,,,,,,,,,,,,,,,,,1,,,,,,,,,,,,,,,,,,,,,,,,,,,,,,,,,,,,,,,,,,,,,,87,158866,18,Female,1,2024/03/13_15:59:54,YZ,None,
,,,,,,calibration,0,14,2,500,6,J,0,right,0.6246010310132988,1,0,,,,,,,,,,,,,,,,,,,,,1,,,,,,,,,,,,,,,,,,,,,,,,,,,,,,,,,,,,,,,,,,,,,,87,158866,18,Female,1,2024/03/13_15:59:54,YZ,None,
,,,,,,calibration,0,14,2,500,7,N,1,left,0.6074762580101378,1,0,,,,,,,,,,,,,,,,,,,,,1,,,,,,,,,,,,,,,,,,,,,,,,,,,,,,,,,,,,,,,,,,,,,,87,158866,18,Female,1,2024/03/13_15:59:54,YZ,None,
,,,,,,calibration,0,14,2,500,8,S,0,right,0.5684433209971758,1,0,,,,,,,,,,,,,,,,,,,,,1,,,,,,,,,,,,,,,,,,,,,,,,,,,,,,,,,,,,,,,,,,,,,,87,158866,18,Female,1,2024/03/13_15:59:54,YZ,None,
,,,,,,calibration,0,14,2,500,9,X,0,right,0.8042282089882065,1,0,,,,,,,,,,,,,,,,,,,,,1,,,,,,,,,,,,,,,,,,,,,,,,,,,,,,,,,,,,,,,,,,,,,,87,158866,18,Female,1,2024/03/13_15:59:54,YZ,None,
,,,,,,calibration,0,14,2,500,10,J,0,right,nan,0,1,,,,,,,,,,,,,,,,,,,,,1,,,,,,,,,,,,,,,,,,,,,,,,,,,,,,,,,,,,,,,,,,,,,,87,158866,18,Female,1,2024/03/13_15:59:54,YZ,None,
,,,,,,calibration,0,14,2,500,11,F,0,right,0.809131164001883,1,0,,,,,,,,,,,,,,,,,,,,,1,,,,,,,,,,,,,,,,,,,,,,,,,,,,,,,,,,,,,,,,,,,,,,87,158866,18,Female,1,2024/03/13_15:59:54,YZ,None,
,,,,,,calibration,0,14,2,500,12,J,1,left,0.9375501750037074,1,0,,,,,,,,,,,,,,,,,,,,,1,,,,,,,,,,,,,,,,,,,,,,,,,,,,,,,,,,,,,,,,,,,,,,87,158866,18,Female,1,2024/03/13_15:59:54,YZ,None,
,,,,,,calibration,0,14,2,500,13,S,0,right,0.5594731419987511,1,0,,,,,,,,,,,,,,,,,,,,,1,,,,,,,,,,,,,,,,,,,,,,,,,,,,,,,,,,,,,,,,,,,,,,87,158866,18,Female,1,2024/03/13_15:59:54,YZ,None,
,,,,,,calibration,0,14,2,500,14,V,0,right,nan,0,1,,,,,,,,,,,,,,,,,,,,,1,,,,,,,,,,,,,,,,,,,,,,,,,,,,,,,,,,,,,,,,,,,,,,87,158866,18,Female,1,2024/03/13_15:59:54,YZ,None,
,,,,,,calibration,0,14,2,500,15,S,1,left,0.809009374002926,1,0,,,,,,,,,,,,,,,,,,,,,1,,,,,,,,,,,,,,,,,,,,,,,,,,,,,,,,,,,,,,,,,,,,,,87,158866,18,Female,1,2024/03/13_15:59:54,YZ,None,
,,,,,,calibration,0,14,2,500,16,C,0,right,0.42437313101254404,1,0,,,,,,,,,,,,,,,,,,,,,1,,,,,,,,,,,,,,,,,,,,,,,,,,,,,,,,,,,,,,,,,,,,,,87,158866,18,Female,1,2024/03/13_15:59:54,YZ,None,
,,,,,,calibration,0,14,2,500,,,,,,,,1.0,1.0,0.0,1.0,0.125,0.875,0.6345667778587085,4,0,0,2,2,10,14,4,12,0,,,,1,,,,,,,,,,,,,,,,,,,,,,,,,,,,,,,,,,,,,,,,,,,,,,87,158866,18,Female,1,2024/03/13_15:59:54,YZ,None,
,,,,,,Calibration,0,,2,500,,,,,,,,,,,,,,,,,,,,,,,,,4,,,1,,,,,,,,,,,,,,,,,,,,,,,,,,,,,,,,,,,,,,,,,,,,,,87,158866,18,Female,1,2024/03/13_15:59:54,YZ,None,
,,,,,,calibration,0,25,2,426,1,V,0,None,nan,0,1,,,,,,,,,,,,,,,,,,,,,1,,,,,,,,,,,,,,,,,,,,,,,,,,,,,,,,,,,,,,,,,,,,,,87,158866,18,Female,1,2024/03/13_15:59:54,YZ,None,
,,,,,,calibration,0,25,2,426,2,N,0,right,0.2963047609955538,1,0,,,,,,,,,,,,,,,,,,,,,1,,,,,,,,,,,,,,,,,,,,,,,,,,,,,,,,,,,,,,,,,,,,,,87,158866,18,Female,1,2024/03/13_15:59:54,YZ,None,
,,,,,,calibration,0,25,2,426,3,F,0,right,0.5447378589888103,1,0,,,,,,,,,,,,,,,,,,,,,1,,,,,,,,,,,,,,,,,,,,,,,,,,,,,,,,,,,,,,,,,,,,,,87,158866,18,Female,1,2024/03/13_15:59:54,YZ,None,
,,,,,,calibration,0,25,2,426,4,Q,0,right,0.964455947992974,1,0,,,,,,,,,,,,,,,,,,,,,1,,,,,,,,,,,,,,,,,,,,,,,,,,,,,,,,,,,,,,,,,,,,,,87,158866,18,Female,1,2024/03/13_15:59:54,YZ,None,
,,,,,,calibration,0,25,2,426,5,N,0,right,0.9591464700060897,1,0,,,,,,,,,,,,,,,,,,,,,1,,,,,,,,,,,,,,,,,,,,,,,,,,,,,,,,,,,,,,,,,,,,,,87,158866,18,Female,1,2024/03/13_15:59:54,YZ,None,
,,,,,,calibration,0,25,2,426,6,Q,1,left,0.6930852840014268,1,0,,,,,,,,,,,,,,,,,,,,,1,,,,,,,,,,,,,,,,,,,,,,,,,,,,,,,,,,,,,,,,,,,,,,87,158866,18,Female,1,2024/03/13_15:59:54,YZ,None,
,,,,,,calibration,0,25,2,426,7,V,0,right,0.691404765995685,1,0,,,,,,,,,,,,,,,,,,,,,1,,,,,,,,,,,,,,,,,,,,,,,,,,,,,,,,,,,,,,,,,,,,,,87,158866,18,Female,1,2024/03/13_15:59:54,YZ,None,
,,,,,,calibration,0,25,2,426,8,N,0,right,0.4672104569908697,1,0,,,,,,,,,,,,,,,,,,,,,1,,,,,,,,,,,,,,,,,,,,,,,,,,,,,,,,,,,,,,,,,,,,,,87,158866,18,Female,1,2024/03/13_15:59:54,YZ,None,
,,,,,,calibration,0,25,2,426,9,Q,0,left,0.48797019199992064,0,0,,,,,,,,,,,,,,,,,,,,,1,,,,,,,,,,,,,,,,,,,,,,,,,,,,,,,,,,,,,,,,,,,,,,87,158866,18,Female,1,2024/03/13_15:59:54,YZ,None,
,,,,,,calibration,0,25,2,426,10,C,0,right,0.651770526994369,1,0,,,,,,,,,,,,,,,,,,,,,1,,,,,,,,,,,,,,,,,,,,,,,,,,,,,,,,,,,,,,,,,,,,,,87,158866,18,Female,1,2024/03/13_15:59:54,YZ,None,
,,,,,,calibration,0,25,2,426,11,Q,1,left,0.5648173000081442,1,0,,,,,,,,,,,,,,,,,,,,,1,,,,,,,,,,,,,,,,,,,,,,,,,,,,,,,,,,,,,,,,,,,,,,87,158866,18,Female,1,2024/03/13_15:59:54,YZ,None,
,,,,,,calibration,0,25,2,426,12,N,0,right,0.4707751579990145,1,0,,,,,,,,,,,,,,,,,,,,,1,,,,,,,,,,,,,,,,,,,,,,,,,,,,,,,,,,,,,,,,,,,,,,87,158866,18,Female,1,2024/03/13_15:59:54,YZ,None,
,,,,,,calibration,0,25,2,426,13,X,0,right,0.5586297430127161,1,0,,,,,,,,,,,,,,,,,,,,,1,,,,,,,,,,,,,,,,,,,,,,,,,,,,,,,,,,,,,,,,,,,,,,87,158866,18,Female,1,2024/03/13_15:59:54,YZ,None,
,,,,,,calibration,0,25,2,426,14,N,1,left,0.6802740830025868,1,0,,,,,,,,,,,,,,,,,,,,,1,,,,,,,,,,,,,,,,,,,,,,,,,,,,,,,,,,,,,,,,,,,,,,87,158866,18,Female,1,2024/03/13_15:59:54,YZ,None,
,,,,,,calibration,0,25,2,426,15,X,1,right,0.3437644410005305,0,0,,,,,,,,,,,,,,,,,,,,,1,,,,,,,,,,,,,,,,,,,,,,,,,,,,,,,,,,,,,,,,,,,,,,87,158866,18,Female,1,2024/03/13_15:59:54,YZ,None,
,,,,,,calibration,0,25,2,426,16,Q,0,right,0.34072626299166586,1,0,,,,,,,,,,,,,,,,,,,,,1,,,,,,,,,,,,,,,,,,,,,,,,,,,,,,,,,,,,,,,,,,,,,,87,158866,18,Female,1,2024/03/13_15:59:54,YZ,None,
,,,,,,calibration,0,25,2,426,17,X,1,left,0.7247062259993982,1,0,,,,,,,,,,,,,,,,,,,,,1,,,,,,,,,,,,,,,,,,,,,,,,,,,,,,,,,,,,,,,,,,,,,,87,158866,18,Female,1,2024/03/13_15:59:54,YZ,None,
,,,,,,calibration,0,25,2,426,,,,,,,,0.9125000000000001,0.8,0.08333333333333333,0.9090909090909091,0.058823529411764705,0.8578431372549019,0.5899862173737347,4,1,0,1,1,10,14,5,12,0,,,,1,,,,,,,,,,,,,,,,,,,,,,,,,,,,,,,,,,,,,,,,,,,,,,87,158866,18,Female,1,2024/03/13_15:59:54,YZ,None,
,,,,,,Calibration,0,,2,426,,,,,,,,,,,,,,,,,,,,,,,,,5,,,1,,,,,,,,,,,,,,,,,,,,,,,,,,,,,,,,,,,,,,,,,,,,,,87,158866,18,Female,1,2024/03/13_15:59:54,YZ,None,
,,,,,,calibration,0,30,2,361,1,N,0,right,0.3210993239918025,1,0,,,,,,,,,,,,,,,,,,,,,1,,,,,,,,,,,,,,,,,,,,,,,,,,,,,,,,,,,,,,,,,,,,,,87,158866,18,Female,1,2024/03/13_15:59:54,YZ,None,
,,,,,,calibration,0,30,2,361,2,X,0,right,0.2792938329948811,1,0,,,,,,,,,,,,,,,,,,,,,1,,,,,,,,,,,,,,,,,,,,,,,,,,,,,,,,,,,,,,,,,,,,,,87,158866,18,Female,1,2024/03/13_15:59:54,YZ,None,
,,,,,,calibration,0,30,2,361,3,N,1,left,0.5307005329959793,1,0,,,,,,,,,,,,,,,,,,,,,1,,,,,,,,,,,,,,,,,,,,,,,,,,,,,,,,,,,,,,,,,,,,,,87,158866,18,Female,1,2024/03/13_15:59:54,YZ,None,
,,,,,,calibration,0,30,2,361,4,F,0,left,nan,0,1,,,,,,,,,,,,,,,,,,,,,1,,,,,,,,,,,,,,,,,,,,,,,,,,,,,,,,,,,,,,,,,,,,,,87,158866,18,Female,1,2024/03/13_15:59:54,YZ,None,
,,,,,,calibration,0,30,2,361,5,X,0,left,nan,0,1,,,,,,,,,,,,,,,,,,,,,1,,,,,,,,,,,,,,,,,,,,,,,,,,,,,,,,,,,,,,,,,,,,,,87,158866,18,Female,1,2024/03/13_15:59:54,YZ,None,
,,,,,,calibration,0,30,2,361,6,S,0,right,0.647874635993503,1,0,,,,,,,,,,,,,,,,,,,,,1,,,,,,,,,,,,,,,,,,,,,,,,,,,,,,,,,,,,,,,,,,,,,,87,158866,18,Female,1,2024/03/13_15:59:54,YZ,None,
,,,,,,calibration,0,30,2,361,7,V,0,right,0.9407542160042794,1,0,,,,,,,,,,,,,,,,,,,,,1,,,,,,,,,,,,,,,,,,,,,,,,,,,,,,,,,,,,,,,,,,,,,,87,158866,18,Female,1,2024/03/13_15:59:54,YZ,None,
,,,,,,calibration,0,30,2,361,8,Q,0,right,nan,0,1,,,,,,,,,,,,,,,,,,,,,1,,,,,,,,,,,,,,,,,,,,,,,,,,,,,,,,,,,,,,,,,,,,,,87,158866,18,Female,1,2024/03/13_15:59:54,YZ,None,
,,,,,,calibration,0,30,2,361,9,V,1,left,0.714627717010444,1,0,,,,,,,,,,,,,,,,,,,,,1,,,,,,,,,,,,,,,,,,,,,,,,,,,,,,,,,,,,,,,,,,,,,,87,158866,18,Female,1,2024/03/13_15:59:54,YZ,None,
,,,,,,calibration,0,30,2,361,10,Q,1,right,0.5476280849979958,0,0,,,,,,,,,,,,,,,,,,,,,1,,,,,,,,,,,,,,,,,,,,,,,,,,,,,,,,,,,,,,,,,,,,,,87,158866,18,Female,1,2024/03/13_15:59:54,YZ,None,
,,,,,,calibration,0,30,2,361,11,N,0,right,nan,0,1,,,,,,,,,,,,,,,,,,,,,1,,,,,,,,,,,,,,,,,,,,,,,,,,,,,,,,,,,,,,,,,,,,,,87,158866,18,Female,1,2024/03/13_15:59:54,YZ,None,
,,,,,,calibration,0,30,2,361,12,J,0,right,0.6315623460104689,1,0,,,,,,,,,,,,,,,,,,,,,1,,,,,,,,,,,,,,,,,,,,,,,,,,,,,,,,,,,,,,,,,,,,,,87,158866,18,Female,1,2024/03/13_15:59:54,YZ,None,
,,,,,,calibration,0,30,2,361,13,N,1,left,0.4927862449985696,1,0,,,,,,,,,,,,,,,,,,,,,1,,,,,,,,,,,,,,,,,,,,,,,,,,,,,,,,,,,,,,,,,,,,,,87,158866,18,Female,1,2024/03/13_15:59:54,YZ,None,
,,,,,,calibration,0,30,2,361,14,F,0,right,0.4928844719979679,1,0,,,,,,,,,,,,,,,,,,,,,1,,,,,,,,,,,,,,,,,,,,,,,,,,,,,,,,,,,,,,,,,,,,,,87,158866,18,Female,1,2024/03/13_15:59:54,YZ,None,
,,,,,,calibration,0,30,2,361,15,J,0,left,0.42578904099354986,0,0,,,,,,,,,,,,,,,,,,,,,1,,,,,,,,,,,,,,,,,,,,,,,,,,,,,,,,,,,,,,,,,,,,,,87,158866,18,Female,1,2024/03/13_15:59:54,YZ,None,
,,,,,,calibration,0,30,2,361,16,F,1,left,0.5835153579973849,1,0,,,,,,,,,,,,,,,,,,,,,1,,,,,,,,,,,,,,,,,,,,,,,,,,,,,,,,,,,,,,,,,,,,,,87,158866,18,Female,1,2024/03/13_15:59:54,YZ,None,
,,,,,,calibration,0,30,2,361,17,V,0,right,0.21341624499473255,1,0,,,,,,,,,,,,,,,,,,,,,1,,,,,,,,,,,,,,,,,,,,,,,,,,,,,,,,,,,,,,,,,,,,,,87,158866,18,Female,1,2024/03/13_15:59:54,YZ,None,
,,,,,,calibration,0,30,2,361,18,F,1,right,0.7426275519974297,0,0,,,,,,,,,,,,,,,,,,,,,1,,,,,,,,,,,,,,,,,,,,,,,,,,,,,,,,,,,,,,,,,,,,,,87,158866,18,Female,1,2024/03/13_15:59:54,YZ,None,
,,,,,,calibration,0,30,2,361,,,,,,,,0.8680555555555555,0.6666666666666666,0.08333333333333333,0.875,0.2222222222222222,0.6944444444444444,0.5403256859270706,4,1,0,4,4,7,11,6,12,0,,,,1,,,,,,,,,,,,,,,,,,,,,,,,,,,,,,,,,,,,,,,,,,,,,,87,158866,18,Female,1,2024/03/13_15:59:54,YZ,None,
,,,,,,Calibration,0,,2,361,,,,,,,,,,,,,,,,,,,,,,,,,6,,,1,,,,,,,,,,,,,,,,,,,,,,,,,,,,,,,,,,,,,,,,,,,,,,87,158866,18,Female,1,2024/03/13_15:59:54,YZ,None,
,,,,,,calibration,0,11,2,303,1,V,0,right,0.6518100160028553,1,0,,,,,,,,,,,,,,,,,,,,,1,,,,,,,,,,,,,,,,,,,,,,,,,,,,,,,,,,,,,,,,,,,,,,87,158866,18,Female,1,2024/03/13_15:59:54,YZ,None,
,,,,,,calibration,0,11,2,303,2,C,0,right,0.32324580699787475,1,0,,,,,,,,,,,,,,,,,,,,,1,,,,,,,,,,,,,,,,,,,,,,,,,,,,,,,,,,,,,,,,,,,,,,87,158866,18,Female,1,2024/03/13_15:59:54,YZ,None,
,,,,,,calibration,0,11,2,303,3,V,1,left,0.345223561002058,1,0,,,,,,,,,,,,,,,,,,,,,1,,,,,,,,,,,,,,,,,,,,,,,,,,,,,,,,,,,,,,,,,,,,,,87,158866,18,Female,1,2024/03/13_15:59:54,YZ,None,
,,,,,,calibration,0,11,2,303,4,F,0,right,0.5124923570110695,1,0,,,,,,,,,,,,,,,,,,,,,1,,,,,,,,,,,,,,,,,,,,,,,,,,,,,,,,,,,,,,,,,,,,,,87,158866,18,Female,1,2024/03/13_15:59:54,YZ,None,
,,,,,,calibration,0,11,2,303,5,X,0,right,0.6332085540052503,1,0,,,,,,,,,,,,,,,,,,,,,1,,,,,,,,,,,,,,,,,,,,,,,,,,,,,,,,,,,,,,,,,,,,,,87,158866,18,Female,1,2024/03/13_15:59:54,YZ,None,
,,,,,,calibration,0,11,2,303,6,F,1,left,0.4462315669952659,1,0,,,,,,,,,,,,,,,,,,,,,1,,,,,,,,,,,,,,,,,,,,,,,,,,,,,,,,,,,,,,,,,,,,,,87,158866,18,Female,1,2024/03/13_15:59:54,YZ,None,
,,,,,,calibration,0,11,2,303,7,S,0,right,0.37219882299541496,1,0,,,,,,,,,,,,,,,,,,,,,1,,,,,,,,,,,,,,,,,,,,,,,,,,,,,,,,,,,,,,,,,,,,,,87,158866,18,Female,1,2024/03/13_15:59:54,YZ,None,
,,,,,,calibration,0,11,2,303,8,J,0,right,0.42500507600198034,1,0,,,,,,,,,,,,,,,,,,,,,1,,,,,,,,,,,,,,,,,,,,,,,,,,,,,,,,,,,,,,,,,,,,,,87,158866,18,Female,1,2024/03/13_15:59:54,YZ,None,
,,,,,,calibration,0,11,2,303,9,S,1,left,0.5240835439908551,1,0,,,,,,,,,,,,,,,,,,,,,1,,,,,,,,,,,,,,,,,,,,,,,,,,,,,,,,,,,,,,,,,,,,,,87,158866,18,Female,1,2024/03/13_15:59:54,YZ,None,
,,,,,,calibration,0,11,2,303,10,X,0,right,0.30833036299736705,1,0,,,,,,,,,,,,,,,,,,,,,1,,,,,,,,,,,,,,,,,,,,,,,,,,,,,,,,,,,,,,,,,,,,,,87,158866,18,Female,1,2024/03/13_15:59:54,YZ,None,
,,,,,,calibration,0,11,2,303,11,N,0,right,0.5237575479986845,1,0,,,,,,,,,,,,,,,,,,,,,1,,,,,,,,,,,,,,,,,,,,,,,,,,,,,,,,,,,,,,,,,,,,,,87,158866,18,Female,1,2024/03/13_15:59:54,YZ,None,
,,,,,,calibration,0,11,2,303,12,J,0,right,0.4310817530058557,1,0,,,,,,,,,,,,,,,,,,,,,1,,,,,,,,,,,,,,,,,,,,,,,,,,,,,,,,,,,,,,,,,,,,,,87,158866,18,Female,1,2024/03/13_15:59:54,YZ,None,
,,,,,,calibration,0,11,2,303,13,F,0,right,0.570105456004967,1,0,,,,,,,,,,,,,,,,,,,,,1,,,,,,,,,,,,,,,,,,,,,,,,,,,,,,,,,,,,,,,,,,,,,,87,158866,18,Female,1,2024/03/13_15:59:54,YZ,None,
,,,,,,calibration,0,11,2,303,14,Q,0,right,0.38970843599236105,1,0,,,,,,,,,,,,,,,,,,,,,1,,,,,,,,,,,,,,,,,,,,,,,,,,,,,,,,,,,,,,,,,,,,,,87,158866,18,Female,1,2024/03/13_15:59:54,YZ,None,
,,,,,,calibration,0,11,2,303,15,F,1,left,0.4965694300044561,1,0,,,,,,,,,,,,,,,,,,,,,1,,,,,,,,,,,,,,,,,,,,,,,,,,,,,,,,,,,,,,,,,,,,,,87,158866,18,Female,1,2024/03/13_15:59:54,YZ,None,
,,,,,,calibration,0,11,2,303,16,Q,1,right,0.34756123600527644,0,0,,,,,,,,,,,,,,,,,,,,,1,,,,,,,,,,,,,,,,,,,,,,,,,,,,,,,,,,,,,,,,,,,,,,87,158866,18,Female,1,2024/03/13_15:59:54,YZ,None,
,,,,,,calibration,0,11,2,303,17,J,0,right,0.5963774240080966,1,0,,,,,,,,,,,,,,,,,,,,,1,,,,,,,,,,,,,,,,,,,,,,,,,,,,,,,,,,,,,,,,,,,,,,87,158866,18,Female,1,2024/03/13_15:59:54,YZ,None,
,,,,,,calibration,0,11,2,303,18,Q,1,left,0.4397291409986792,1,0,,,,,,,,,,,,,,,,,,,,,1,,,,,,,,,,,,,,,,,,,,,,,,,,,,,,,,,,,,,,,,,,,,,,87,158866,18,Female,1,2024/03/13_15:59:54,YZ,None,
,,,,,,calibration,0,11,2,303,19,S,0,right,0.067960000000312,1,0,,,,,,,,,,,,,,,,,,,,,1,,,,,,,,,,,,,,,,,,,,,,,,,,,,,,,,,,,,,,,,,,,,,,87,158866,18,Female,1,2024/03/13_15:59:54,YZ,None,
,,,,,,calibration,0,11,2,303,,,,,,,,0.9583333333333334,0.8333333333333334,0.0,1.0,0.0,1.0,0.4423515837904568,5,0,0,0,0,13,18,6,13,0,,,,1,,,,,,,,,,,,,,,,,,,,,,,,,,,,,,,,,,,,,,,,,,,,,,87,158866,18,Female,1,2024/03/13_15:59:54,YZ,None,
,,,,,,Calibration,0,,2,303,,,,,,,,,,,,,,,,,,,,,,,,,7,,,1,,,,,,,,,,,,,,,,,,,,,,,,,,,,,,,,,,,,,,,,,,,,,,87,158866,18,Female,1,2024/03/13_15:59:54,YZ,None,
,,,,,,calibration,0,36,2,250,1,Q,0,right,0.246410855994327,1,0,,,,,,,,,,,,,,,,,,,,,1,,,,,,,,,,,,,,,,,,,,,,,,,,,,,,,,,,,,,,,,,,,,,,87,158866,18,Female,1,2024/03/13_15:59:54,YZ,None,
,,,,,,calibration,0,36,2,250,2,C,0,right,0.3044306149968179,1,0,,,,,,,,,,,,,,,,,,,,,1,,,,,,,,,,,,,,,,,,,,,,,,,,,,,,,,,,,,,,,,,,,,,,87,158866,18,Female,1,2024/03/13_15:59:54,YZ,None,
,,,,,,calibration,0,36,2,250,3,S,0,right,0.36820481599716004,1,0,,,,,,,,,,,,,,,,,,,,,1,,,,,,,,,,,,,,,,,,,,,,,,,,,,,,,,,,,,,,,,,,,,,,87,158866,18,Female,1,2024/03/13_15:59:54,YZ,None,
,,,,,,calibration,0,36,2,250,4,J,0,right,0.40176127300946973,1,0,,,,,,,,,,,,,,,,,,,,,1,,,,,,,,,,,,,,,,,,,,,,,,,,,,,,,,,,,,,,,,,,,,,,87,158866,18,Female,1,2024/03/13_15:59:54,YZ,None,
,,,,,,calibration,0,36,2,250,5,F,0,right,0.4442551099928096,1,0,,,,,,,,,,,,,,,,,,,,,1,,,,,,,,,,,,,,,,,,,,,,,,,,,,,,,,,,,,,,,,,,,,,,87,158866,18,Female,1,2024/03/13_15:59:54,YZ,None,
,,,,,,calibration,0,36,2,250,6,C,0,right,0.48431752300530206,1,0,,,,,,,,,,,,,,,,,,,,,1,,,,,,,,,,,,,,,,,,,,,,,,,,,,,,,,,,,,,,,,,,,,,,87,158866,18,Female,1,2024/03/13_15:59:54,YZ,None,
,,,,,,calibration,0,36,2,250,7,N,0,right,0.7465266509971116,1,0,,,,,,,,,,,,,,,,,,,,,1,,,,,,,,,,,,,,,,,,,,,,,,,,,,,,,,,,,,,,,,,,,,,,87,158866,18,Female,1,2024/03/13_15:59:54,YZ,None,
,,,,,,calibration,0,36,2,250,8,X,0,right,0.4332318130036583,1,0,,,,,,,,,,,,,,,,,,,,,1,,,,,,,,,,,,,,,,,,,,,,,,,,,,,,,,,,,,,,,,,,,,,,87,158866,18,Female,1,2024/03/13_15:59:54,YZ,None,
,,,,,,calibration,0,36,2,250,9,N,1,left,0.6086318969901185,1,0,,,,,,,,,,,,,,,,,,,,,1,,,,,,,,,,,,,,,,,,,,,,,,,,,,,,,,,,,,,,,,,,,,,,87,158866,18,Female,1,2024/03/13_15:59:54,YZ,None,
,,,,,,calibration,0,36,2,250,10,C,0,right,0.13520274100301322,1,0,,,,,,,,,,,,,,,,,,,,,1,,,,,,,,,,,,,,,,,,,,,,,,,,,,,,,,,,,,,,,,,,,,,,87,158866,18,Female,1,2024/03/13_15:59:54,YZ,None,
,,,,,,calibration,0,36,2,250,11,N,1,left,0.5123475319996942,1,0,,,,,,,,,,,,,,,,,,,,,1,,,,,,,,,,,,,,,,,,,,,,,,,,,,,,,,,,,,,,,,,,,,,,87,158866,18,Female,1,2024/03/13_15:59:54,YZ,None,
,,,,,,calibration,0,36,2,250,12,C,1,right,0.23675948700110894,0,0,,,,,,,,,,,,,,,,,,,,,1,,,,,,,,,,,,,,,,,,,,,,,,,,,,,,,,,,,,,,,,,,,,,,87,158866,18,Female,1,2024/03/13_15:59:54,YZ,None,
,,,,,,calibration,0,36,2,250,13,F,0,right,0.6179559820011491,1,0,,,,,,,,,,,,,,,,,,,,,1,,,,,,,,,,,,,,,,,,,,,,,,,,,,,,,,,,,,,,,,,,,,,,87,158866,18,Female,1,2024/03/13_15:59:54,YZ,None,
,,,,,,calibration,0,36,2,250,14,C,1,right,0.27750579100393225,0,0,,,,,,,,,,,,,,,,,,,,,1,,,,,,,,,,,,,,,,,,,,,,,,,,,,,,,,,,,,,,,,,,,,,,87,158866,18,Female,1,2024/03/13_15:59:54,YZ,None,
,,,,,,calibration,0,36,2,250,15,J,0,right,0.5125369009911083,1,0,,,,,,,,,,,,,,,,,,,,,1,,,,,,,,,,,,,,,,,,,,,,,,,,,,,,,,,,,,,,,,,,,,,,87,158866,18,Female,1,2024/03/13_15:59:54,YZ,None,
,,,,,,calibration,0,36,2,250,16,F,0,right,0.3939890479960013,1,0,,,,,,,,,,,,,,,,,,,,,1,,,,,,,,,,,,,,,,,,,,,,,,,,,,,,,,,,,,,,,,,,,,,,87,158866,18,Female,1,2024/03/13_15:59:54,YZ,None,
,,,,,,calibration,0,36,2,250,17,J,1,left,0.681558070005849,1,0,,,,,,,,,,,,,,,,,,,,,1,,,,,,,,,,,,,,,,,,,,,,,,,,,,,,,,,,,,,,,,,,,,,,87,158866,18,Female,1,2024/03/13_15:59:54,YZ,None,
,,,,,,calibration,0,36,2,250,18,N,0,right,0.21902917099941988,1,0,,,,,,,,,,,,,,,,,,,,,1,,,,,,,,,,,,,,,,,,,,,,,,,,,,,,,,,,,,,,,,,,,,,,87,158866,18,Female,1,2024/03/13_15:59:54,YZ,None,
,,,,,,calibration,0,36,2,250,19,C,0,right,0.36799890399561264,1,0,,,,,,,,,,,,,,,,,,,,,1,,,,,,,,,,,,,,,,,,,,,,,,,,,,,,,,,,,,,,,,,,,,,,87,158866,18,Female,1,2024/03/13_15:59:54,YZ,None,
,,,,,,calibration,0,36,2,250,20,N,1,left,0.24913819500943646,1,0,,,,,,,,,,,,,,,,,,,,,1,,,,,,,,,,,,,,,,,,,,,,,,,,,,,,,,,,,,,,,,,,,,,,87,158866,18,Female,1,2024/03/13_15:59:54,YZ,None,
,,,,,,calibration,0,36,2,250,,,,,,,,0.9166666666666666,0.6666666666666666,0.0,1.0,0.0,1.0,0.412089618799655,4,0,0,0,0,14,18,6,14,0,,,,1,,,,,,,,,,,,,,,,,,,,,,,,,,,,,,,,,,,,,,,,,,,,,,87,158866,18,Female,1,2024/03/13_15:59:54,YZ,None,
,,,,,,Calibration,0,,2,250,,,,,,,,,,,,,,,,,,,,,,,,,8,,,1,,,,,,,,,,,,,,,,,,,,,,,,,,,,,,,,,,,,,,,,,,,,,,87,158866,18,Female,1,2024/03/13_15:59:54,YZ,None,
,,,,,,calibration,0,7,2,202,1,J,0,right,0.24626109399832785,1,0,,,,,,,,,,,,,,,,,,,,,1,,,,,,,,,,,,,,,,,,,,,,,,,,,,,,,,,,,,,,,,,,,,,,87,158866,18,Female,1,2024/03/13_15:59:54,YZ,None,
,,,,,,calibration,0,7,2,202,2,C,0,right,0.2254870890028542,1,0,,,,,,,,,,,,,,,,,,,,,1,,,,,,,,,,,,,,,,,,,,,,,,,,,,,,,,,,,,,,,,,,,,,,87,158866,18,Female,1,2024/03/13_15:59:54,YZ,None,
,,,,,,calibration,0,7,2,202,3,J,1,left,0.356592169002397,1,0,,,,,,,,,,,,,,,,,,,,,1,,,,,,,,,,,,,,,,,,,,,,,,,,,,,,,,,,,,,,,,,,,,,,87,158866,18,Female,1,2024/03/13_15:59:54,YZ,None,
,,,,,,calibration,0,7,2,202,4,N,0,right,0.2561926859925734,1,0,,,,,,,,,,,,,,,,,,,,,1,,,,,,,,,,,,,,,,,,,,,,,,,,,,,,,,,,,,,,,,,,,,,,87,158866,18,Female,1,2024/03/13_15:59:54,YZ,None,
,,,,,,calibration,0,7,2,202,5,J,1,right,0.32110650299000554,0,0,,,,,,,,,,,,,,,,,,,,,1,,,,,,,,,,,,,,,,,,,,,,,,,,,,,,,,,,,,,,,,,,,,,,87,158866,18,Female,1,2024/03/13_15:59:54,YZ,None,
,,,,,,calibration,0,7,2,202,6,F,0,left,0.0,0,0,,,,,,,,,,,,,,,,,,,,,1,,,,,,,,,,,,,,,,,,,,,,,,,,,,,,,,,,,,,,,,,,,,,,87,158866,18,Female,1,2024/03/13_15:59:54,YZ,None,
,,,,,,calibration,0,7,2,202,7,C,0,right,0.0,1,0,,,,,,,,,,,,,,,,,,,,,1,,,,,,,,,,,,,,,,,,,,,,,,,,,,,,,,,,,,,,,,,,,,,,87,158866,18,Female,1,2024/03/13_15:59:54,YZ,None,
,,,,,,calibration,0,7,2,202,8,Q,0,right,nan,0,1,,,,,,,,,,,,,,,,,,,,,1,,,,,,,,,,,,,,,,,,,,,,,,,,,,,,,,,,,,,,,,,,,,,,87,158866,18,Female,1,2024/03/13_15:59:54,YZ,None,
,,,,,,calibration,0,7,2,202,9,X,0,right,0.625476934001199,1,0,,,,,,,,,,,,,,,,,,,,,1,,,,,,,,,,,,,,,,,,,,,,,,,,,,,,,,,,,,,,,,,,,,,,87,158866,18,Female,1,2024/03/13_15:59:54,YZ,None,
,,,,,,calibration,0,7,2,202,10,C,0,left,0.5347485940001206,0,0,,,,,,,,,,,,,,,,,,,,,1,,,,,,,,,,,,,,,,,,,,,,,,,,,,,,,,,,,,,,,,,,,,,,87,158866,18,Female,1,2024/03/13_15:59:54,YZ,None,
,,,,,,calibration,0,7,2,202,11,X,1,right,0.20332753799448255,0,0,,,,,,,,,,,,,,,,,,,,,1,,,,,,,,,,,,,,,,,,,,,,,,,,,,,,,,,,,,,,,,,,,,,,87,158866,18,Female,1,2024/03/13_15:59:54,YZ,None,
,,,,,,calibration,0,7,2,202,12,C,1,right,0.20515750799677335,0,0,,,,,,,,,,,,,,,,,,,,,1,,,,,,,,,,,,,,,,,,,,,,,,,,,,,,,,,,,,,,,,,,,,,,87,158866,18,Female,1,2024/03/13_15:59:54,YZ,None,
,,,,,,calibration,0,7,2,202,13,N,0,right,0.6925792139954865,1,0,,,,,,,,,,,,,,,,,,,,,1,,,,,,,,,,,,,,,,,,,,,,,,,,,,,,,,,,,,,,,,,,,,,,87,158866,18,Female,1,2024/03/13_15:59:54,YZ,None,
,,,,,,calibration,0,7,2,202,14,S,0,right,0.6873683960002381,1,0,,,,,,,,,,,,,,,,,,,,,1,,,,,,,,,,,,,,,,,,,,,,,,,,,,,,,,,,,,,,,,,,,,,,87,158866,18,Female,1,2024/03/13_15:59:54,YZ,None,
,,,,,,calibration,0,7,2,202,15,V,0,right,0.7405901160091162,1,0,,,,,,,,,,,,,,,,,,,,,1,,,,,,,,,,,,,,,,,,,,,,,,,,,,,,,,,,,,,,,,,,,,,,87,158866,18,Female,1,2024/03/13_15:59:54,YZ,None,
,,,,,,calibration,0,7,2,202,16,Q,0,right,0.7686440739926184,1,0,,,,,,,,,,,,,,,,,,,,,1,,,,,,,,,,,,,,,,,,,,,,,,,,,,,,,,,,,,,,,,,,,,,,87,158866,18,Female,1,2024/03/13_15:59:54,YZ,None,
,,,,,,calibration,0,7,2,202,17,J,0,right,0.7536911150091328,1,0,,,,,,,,,,,,,,,,,,,,,1,,,,,,,,,,,,,,,,,,,,,,,,,,,,,,,,,,,,,,,,,,,,,,87,158866,18,Female,1,2024/03/13_15:59:54,YZ,None,
,,,,,,calibration,0,7,2,202,18,N,0,right,nan,0,1,,,,,,,,,,,,,,,,,,,,,1,,,,,,,,,,,,,,,,,,,,,,,,,,,,,,,,,,,,,,,,,,,,,,87,158866,18,Female,1,2024/03/13_15:59:54,YZ,None,
,,,,,,calibration,0,7,2,202,19,J,1,left,0.8247949100041296,1,0,,,,,,,,,,,,,,,,,,,,,1,,,,,,,,,,,,,,,,,,,,,,,,,,,,,,,,,,,,,,,,,,,,,,87,158866,18,Female,1,2024/03/13_15:59:54,YZ,None,
,,,,,,calibration,0,7,2,202,20,N,1,left,0.7250898799975403,1,0,,,,,,,,,,,,,,,,,,,,,1,,,,,,,,,,,,,,,,,,,,,,,,,,,,,,,,,,,,,,,,,,,,,,87,158866,18,Female,1,2024/03/13_15:59:54,YZ,None,
,,,,,,calibration,0,7,2,202,21,X,0,right,0.647713134996593,1,0,,,,,,,,,,,,,,,,,,,,,1,,,,,,,,,,,,,,,,,,,,,,,,,,,,,,,,,,,,,,,,,,,,,,87,158866,18,Female,1,2024/03/13_15:59:54,YZ,None,
,,,,,,calibration,0,7,2,202,,,,,,,,0.775,0.5,0.13333333333333333,0.8461538461538461,0.09523809523809523,0.7714285714285715,0.4639379449991362,3,2,0,2,2,11,14,6,15,0,,,,1,,,,,,,,,,,,,,,,,,,,,,,,,,,,,,,,,,,,,,,,,,,,,,87,158866,18,Female,1,2024/03/13_15:59:54,YZ,None,
,,,,,,Calibration,0,,2,202,,,,,,,,,,,,,,,,,,,,,,,,,9,,,1,,,,,,,,,,,,,,,,,,,,,,,,,,,,,,,,,,,,,,,,,,,,,,87,158866,18,Female,1,2024/03/13_15:59:54,YZ,None,
,,,,,,calibration,0,13,2,202,1,Q,0,right,0.2605754279938992,1,0,,,,,,,,,,,,,,,,,,,,,1,,,,,,,,,,,,,,,,,,,,,,,,,,,,,,,,,,,,,,,,,,,,,,87,158866,18,Female,1,2024/03/13_15:59:54,YZ,None,
,,,,,,calibration,0,13,2,202,2,X,0,right,0.32020391599508,1,0,,,,,,,,,,,,,,,,,,,,,1,,,,,,,,,,,,,,,,,,,,,,,,,,,,,,,,,,,,,,,,,,,,,,87,158866,18,Female,1,2024/03/13_15:59:54,YZ,None,
,,,,,,calibration,0,13,2,202,3,V,0,right,0.46352226700400934,1,0,,,,,,,,,,,,,,,,,,,,,1,,,,,,,,,,,,,,,,,,,,,,,,,,,,,,,,,,,,,,,,,,,,,,87,158866,18,Female,1,2024/03/13_15:59:54,YZ,None,
,,,,,,calibration,0,13,2,202,4,J,0,right,0.6259865799947875,1,0,,,,,,,,,,,,,,,,,,,,,1,,,,,,,,,,,,,,,,,,,,,,,,,,,,,,,,,,,,,,,,,,,,,,87,158866,18,Female,1,2024/03/13_15:59:54,YZ,None,
,,,,,,calibration,0,13,2,202,5,V,1,left,0.608337769008358,1,0,,,,,,,,,,,,,,,,,,,,,1,,,,,,,,,,,,,,,,,,,,,,,,,,,,,,,,,,,,,,,,,,,,,,87,158866,18,Female,1,2024/03/13_15:59:54,YZ,None,
,,,,,,calibration,0,13,2,202,6,J,1,right,0.36604319300386123,0,0,,,,,,,,,,,,,,,,,,,,,1,,,,,,,,,,,,,,,,,,,,,,,,,,,,,,,,,,,,,,,,,,,,,,87,158866,18,Female,1,2024/03/13_15:59:54,YZ,None,
,,,,,,calibration,0,13,2,202,7,X,0,right,0.5713770110014593,1,0,,,,,,,,,,,,,,,,,,,,,1,,,,,,,,,,,,,,,,,,,,,,,,,,,,,,,,,,,,,,,,,,,,,,87,158866,18,Female,1,2024/03/13_15:59:54,YZ,None,
,,,,,,calibration,0,13,2,202,8,Q,0,left,0.5805655689910054,0,0,,,,,,,,,,,,,,,,,,,,,1,,,,,,,,,,,,,,,,,,,,,,,,,,,,,,,,,,,,,,,,,,,,,,87,158866,18,Female,1,2024/03/13_15:59:54,YZ,None,
,,,,,,calibration,0,13,2,202,9,C,0,right,0.2294214839930646,1,0,,,,,,,,,,,,,,,,,,,,,1,,,,,,,,,,,,,,,,,,,,,,,,,,,,,,,,,,,,,,,,,,,,,,87,158866,18,Female,1,2024/03/13_15:59:54,YZ,None,
,,,,,,calibration,0,13,2,202,10,Q,1,left,0.5414725369919324,1,0,,,,,,,,,,,,,,,,,,,,,1,,,,,,,,,,,,,,,,,,,,,,,,,,,,,,,,,,,,,,,,,,,,,,87,158866,18,Female,1,2024/03/13_15:59:54,YZ,None,
,,,,,,calibration,0,13,2,202,11,J,0,right,0.2680404440034181,1,0,,,,,,,,,,,,,,,,,,,,,1,,,,,,,,,,,,,,,,,,,,,,,,,,,,,,,,,,,,,,,,,,,,,,87,158866,18,Female,1,2024/03/13_15:59:54,YZ,None,
,,,,,,calibration,0,13,2,202,12,S,0,right,nan,0,1,,,,,,,,,,,,,,,,,,,,,1,,,,,,,,,,,,,,,,,,,,,,,,,,,,,,,,,,,,,,,,,,,,,,87,158866,18,Female,1,2024/03/13_15:59:54,YZ,None,
,,,,,,calibration,0,13,2,202,13,J,1,left,0.6722810440114699,1,0,,,,,,,,,,,,,,,,,,,,,1,,,,,,,,,,,,,,,,,,,,,,,,,,,,,,,,,,,,,,,,,,,,,,87,158866,18,Female,1,2024/03/13_15:59:54,YZ,None,
,,,,,,calibration,0,13,2,202,14,N,0,right,0.5127887170092436,1,0,,,,,,,,,,,,,,,,,,,,,1,,,,,,,,,,,,,,,,,,,,,,,,,,,,,,,,,,,,,,,,,,,,,,87,158866,18,Female,1,2024/03/13_15:59:54,YZ,None,
,,,,,,calibration,0,13,2,202,15,V,0,right,0.581211697004619,1,0,,,,,,,,,,,,,,,,,,,,,1,,,,,,,,,,,,,,,,,,,,,,,,,,,,,,,,,,,,,,,,,,,,,,87,158866,18,Female,1,2024/03/13_15:59:54,YZ,None,
,,,,,,calibration,0,13,2,202,16,J,0,right,0.4529883619979955,1,0,,,,,,,,,,,,,,,,,,,,,1,,,,,,,,,,,,,,,,,,,,,,,,,,,,,,,,,,,,,,,,,,,,,,87,158866,18,Female,1,2024/03/13_15:59:54,YZ,None,
,,,,,,calibration,0,13,2,202,17,V,1,left,0.48824004299240187,1,0,,,,,,,,,,,,,,,,,,,,,1,,,,,,,,,,,,,,,,,,,,,,,,,,,,,,,,,,,,,,,,,,,,,,87,158866,18,Female,1,2024/03/13_15:59:54,YZ,None,
,,,,,,calibration,0,13,2,202,18,J,1,right,0.415239041991299,0,0,,,,,,,,,,,,,,,,,,,,,1,,,,,,,,,,,,,,,,,,,,,,,,,,,,,,,,,,,,,,,,,,,,,,87,158866,18,Female,1,2024/03/13_15:59:54,YZ,None,
,,,,,,calibration,0,13,2,202,19,S,0,left,0.6072430890053511,0,0,,,,,,,,,,,,,,,,,,,,,1,,,,,,,,,,,,,,,,,,,,,,,,,,,,,,,,,,,,,,,,,,,,,,87,158866,18,Female,1,2024/03/13_15:59:54,YZ,None,
,,,,,,calibration,0,13,2,202,20,F,0,right,0.5757202329987194,1,0,,,,,,,,,,,,,,,,,,,,,1,,,,,,,,,,,,,,,,,,,,,,,,,,,,,,,,,,,,,,,,,,,,,,87,158866,18,Female,1,2024/03/13_15:59:54,YZ,None,
,,,,,,calibration,0,13,2,202,21,J,0,right,0.3136931470071431,1,0,,,,,,,,,,,,,,,,,,,,,1,,,,,,,,,,,,,,,,,,,,,,,,,,,,,,,,,,,,,,,,,,,,,,87,158866,18,Female,1,2024/03/13_15:59:54,YZ,None,
,,,,,,calibration,0,13,2,202,,,,,,,,0.8388888888888889,0.6666666666666666,0.13333333333333333,0.8571428571428571,0.047619047619047616,0.819047619047619,0.47274757859995586,4,2,0,1,1,12,16,6,15,0,,,,1,,,,,,,,,,,,,,,,,,,,,,,,,,,,,,,,,,,,,,,,,,,,,,87,158866,18,Female,1,2024/03/13_15:59:54,YZ,None,
,,,,,,Calibration,0,,2,202,,,,,,,,,,,,,,,,,,,,,,,,,10,,,1,,,,,,,,,,,,,,,,,,,,,,,,,,,,,,,,,,,,,,,,,,,,,,87,158866,18,Female,1,2024/03/13_15:59:54,YZ,None,
,,,,,,calibration,0,3,2,202,1,V,0,right,0.640249305011821,1,0,,,,,,,,,,,,,,,,,,,,,1,,,,,,,,,,,,,,,,,,,,,,,,,,,,,,,,,,,,,,,,,,,,,,87,158866,18,Female,1,2024/03/13_15:59:54,YZ,None,
,,,,,,calibration,0,3,2,202,2,F,0,right,0.29953511300846003,1,0,,,,,,,,,,,,,,,,,,,,,1,,,,,,,,,,,,,,,,,,,,,,,,,,,,,,,,,,,,,,,,,,,,,,87,158866,18,Female,1,2024/03/13_15:59:54,YZ,None,
,,,,,,calibration,0,3,2,202,3,N,0,right,0.5420438589935657,1,0,,,,,,,,,,,,,,,,,,,,,1,,,,,,,,,,,,,,,,,,,,,,,,,,,,,,,,,,,,,,,,,,,,,,87,158866,18,Female,1,2024/03/13_15:59:54,YZ,None,
,,,,,,calibration,0,3,2,202,4,F,1,left,0.5548149839887628,1,0,,,,,,,,,,,,,,,,,,,,,1,,,,,,,,,,,,,,,,,,,,,,,,,,,,,,,,,,,,,,,,,,,,,,87,158866,18,Female,1,2024/03/13_15:59:54,YZ,None,
,,,,,,calibration,0,3,2,202,5,C,0,right,0.494349497006624,1,0,,,,,,,,,,,,,,,,,,,,,1,,,,,,,,,,,,,,,,,,,,,,,,,,,,,,,,,,,,,,,,,,,,,,87,158866,18,Female,1,2024/03/13_15:59:54,YZ,None,
,,,,,,calibration,0,3,2,202,6,N,0,left,0.5562518070073565,0,0,,,,,,,,,,,,,,,,,,,,,1,,,,,,,,,,,,,,,,,,,,,,,,,,,,,,,,,,,,,,,,,,,,,,87,158866,18,Female,1,2024/03/13_15:59:54,YZ,None,
,,,,,,calibration,0,3,2,202,7,Q,0,right,0.19309890900331084,1,0,,,,,,,,,,,,,,,,,,,,,1,,,,,,,,,,,,,,,,,,,,,,,,,,,,,,,,,,,,,,,,,,,,,,87,158866,18,Female,1,2024/03/13_15:59:54,YZ,None,
,,,,,,calibration,0,3,2,202,8,N,1,left,0.6583802660024958,1,0,,,,,,,,,,,,,,,,,,,,,1,,,,,,,,,,,,,,,,,,,,,,,,,,,,,,,,,,,,,,,,,,,,,,87,158866,18,Female,1,2024/03/13_15:59:54,YZ,None,
,,,,,,calibration,0,3,2,202,9,Q,1,right,0.01765395700931549,0,0,,,,,,,,,,,,,,,,,,,,,1,,,,,,,,,,,,,,,,,,,,,,,,,,,,,,,,,,,,,,,,,,,,,,87,158866,18,Female,1,2024/03/13_15:59:54,YZ,None,
,,,,,,calibration,0,3,2,202,10,J,0,right,0.543860345002031,1,0,,,,,,,,,,,,,,,,,,,,,1,,,,,,,,,,,,,,,,,,,,,,,,,,,,,,,,,,,,,,,,,,,,,,87,158866,18,Female,1,2024/03/13_15:59:54,YZ,None,
,,,,,,calibration,0,3,2,202,11,Q,1,left,0.6095603560097516,1,0,,,,,,,,,,,,,,,,,,,,,1,,,,,,,,,,,,,,,,,,,,,,,,,,,,,,,,,,,,,,,,,,,,,,87,158866,18,Female,1,2024/03/13_15:59:54,YZ,None,
,,,,,,calibration,0,3,2,202,12,C,0,right,0.19500213299761526,1,0,,,,,,,,,,,,,,,,,,,,,1,,,,,,,,,,,,,,,,,,,,,,,,,,,,,,,,,,,,,,,,,,,,,,87,158866,18,Female,1,2024/03/13_15:59:54,YZ,None,
,,,,,,calibration,0,3,2,202,13,S,0,right,0.48417950500152074,1,0,,,,,,,,,,,,,,,,,,,,,1,,,,,,,,,,,,,,,,,,,,,,,,,,,,,,,,,,,,,,,,,,,,,,87,158866,18,Female,1,2024/03/13_15:59:54,YZ,None,
,,,,,,calibration,0,3,2,202,14,Q,0,left,0.48706081400450785,0,0,,,,,,,,,,,,,,,,,,,,,1,,,,,,,,,,,,,,,,,,,,,,,,,,,,,,,,,,,,,,,,,,,,,,87,158866,18,Female,1,2024/03/13_15:59:54,YZ,None,
,,,,,,calibration,0,3,2,202,15,X,0,right,0.33533365999755915,1,0,,,,,,,,,,,,,,,,,,,,,1,,,,,,,,,,,,,,,,,,,,,,,,,,,,,,,,,,,,,,,,,,,,,,87,158866,18,Female,1,2024/03/13_15:59:54,YZ,None,
,,,,,,calibration,0,3,2,202,16,Q,1,right,nan,0,1,,,,,,,,,,,,,,,,,,,,,1,,,,,,,,,,,,,,,,,,,,,,,,,,,,,,,,,,,,,,,,,,,,,,87,158866,18,Female,1,2024/03/13_15:59:54,YZ,None,
,,,,,,calibration,0,3,2,202,17,V,0,right,nan,0,1,,,,,,,,,,,,,,,,,,,,,1,,,,,,,,,,,,,,,,,,,,,,,,,,,,,,,,,,,,,,,,,,,,,,87,158866,18,Female,1,2024/03/13_15:59:54,YZ,None,
,,,,,,calibration,0,3,2,202,18,Q,1,left,0.30898213099862915,1,0,,,,,,,,,,,,,,,,,,,,,1,,,,,,,,,,,,,,,,,,,,,,,,,,,,,,,,,,,,,,,,,,,,,,87,158866,18,Female,1,2024/03/13_15:59:54,YZ,None,
,,,,,,calibration,0,3,2,202,19,N,0,right,0.9087220700021135,1,0,,,,,,,,,,,,,,,,,,,,,1,,,,,,,,,,,,,,,,,,,,,,,,,,,,,,,,,,,,,,,,,,,,,,87,158866,18,Female,1,2024/03/13_15:59:54,YZ,None,
,,,,,,calibration,0,3,2,202,20,S,0,right,0.5127101390098687,1,0,,,,,,,,,,,,,,,,,,,,,1,,,,,,,,,,,,,,,,,,,,,,,,,,,,,,,,,,,,,,,,,,,,,,87,158866,18,Female,1,2024/03/13_15:59:54,YZ,None,
,,,,,,calibration,0,3,2,202,21,X,0,right,0.35287530899222475,1,0,,,,,,,,,,,,,,,,,,,,,1,,,,,,,,,,,,,,,,,,,,,,,,,,,,,,,,,,,,,,,,,,,,,,87,158866,18,Female,1,2024/03/13_15:59:54,YZ,None,
,,,,,,calibration,0,3,2,202,,,,,,,,0.8388888888888889,0.6666666666666666,0.13333333333333333,0.8571428571428571,0.09523809523809523,0.7714285714285715,0.45761390310776495,4,2,1,1,2,12,16,6,15,0,,,,1,,,,,,,,,,,,,,,,,,,,,,,,,,,,,,,,,,,,,,,,,,,,,,87,158866,18,Female,1,2024/03/13_15:59:54,YZ,None,
,,,,,,Calibration,0,,2,202,,,,,,,,,,,,,,,,,,,,,,,,,11,,,1,,,,,,,,,,,,,,,,,,,,,,,,,,,,,,,,,,,,,,,,,,,,,,87,158866,18,Female,1,2024/03/13_15:59:54,YZ,None,
,,,,,,calibration,0,2,2,202,1,C,0,right,0.3164660690090386,1,0,,,,,,,,,,,,,,,,,,,,,1,,,,,,,,,,,,,,,,,,,,,,,,,,,,,,,,,,,,,,,,,,,,,,87,158866,18,Female,1,2024/03/13_15:59:54,YZ,None,
,,,,,,calibration,0,2,2,202,2,Q,0,right,0.26595869701122865,1,0,,,,,,,,,,,,,,,,,,,,,1,,,,,,,,,,,,,,,,,,,,,,,,,,,,,,,,,,,,,,,,,,,,,,87,158866,18,Female,1,2024/03/13_15:59:54,YZ,None,
,,,,,,calibration,0,2,2,202,3,C,1,right,0.3931022339966148,0,0,,,,,,,,,,,,,,,,,,,,,1,,,,,,,,,,,,,,,,,,,,,,,,,,,,,,,,,,,,,,,,,,,,,,87,158866,18,Female,1,2024/03/13_15:59:54,YZ,None,
,,,,,,calibration,0,2,2,202,4,X,0,right,0.540820326001267,1,0,,,,,,,,,,,,,,,,,,,,,1,,,,,,,,,,,,,,,,,,,,,,,,,,,,,,,,,,,,,,,,,,,,,,87,158866,18,Female,1,2024/03/13_15:59:54,YZ,None,
,,,,,,calibration,0,2,2,202,5,C,1,left,0.5375752249965444,1,0,,,,,,,,,,,,,,,,,,,,,1,,,,,,,,,,,,,,,,,,,,,,,,,,,,,,,,,,,,,,,,,,,,,,87,158866,18,Female,1,2024/03/13_15:59:54,YZ,None,
,,,,,,calibration,0,2,2,202,6,Q,0,right,0.9067734530108282,1,0,,,,,,,,,,,,,,,,,,,,,1,,,,,,,,,,,,,,,,,,,,,,,,,,,,,,,,,,,,,,,,,,,,,,87,158866,18,Female,1,2024/03/13_15:59:54,YZ,None,
,,,,,,calibration,0,2,2,202,7,X,0,left,0.5415936679928564,0,0,,,,,,,,,,,,,,,,,,,,,1,,,,,,,,,,,,,,,,,,,,,,,,,,,,,,,,,,,,,,,,,,,,,,87,158866,18,Female,1,2024/03/13_15:59:54,YZ,None,
,,,,,,calibration,0,2,2,202,8,S,0,right,0.46087609000096563,1,0,,,,,,,,,,,,,,,,,,,,,1,,,,,,,,,,,,,,,,,,,,,,,,,,,,,,,,,,,,,,,,,,,,,,87,158866,18,Female,1,2024/03/13_15:59:54,YZ,None,
,,,,,,calibration,0,2,2,202,9,C,0,right,0.41404148598667234,1,0,,,,,,,,,,,,,,,,,,,,,1,,,,,,,,,,,,,,,,,,,,,,,,,,,,,,,,,,,,,,,,,,,,,,87,158866,18,Female,1,2024/03/13_15:59:54,YZ,None,
,,,,,,calibration,0,2,2,202,10,Q,0,left,0.5402659530082019,0,0,,,,,,,,,,,,,,,,,,,,,1,,,,,,,,,,,,,,,,,,,,,,,,,,,,,,,,,,,,,,,,,,,,,,87,158866,18,Female,1,2024/03/13_15:59:54,YZ,None,
,,,,,,calibration,0,2,2,202,11,X,0,right,0.3099509029998444,1,0,,,,,,,,,,,,,,,,,,,,,1,,,,,,,,,,,,,,,,,,,,,,,,,,,,,,,,,,,,,,,,,,,,,,87,158866,18,Female,1,2024/03/13_15:59:54,YZ,None,
,,,,,,calibration,0,2,2,202,12,C,0,left,0.7057577460072935,0,0,,,,,,,,,,,,,,,,,,,,,1,,,,,,,,,,,,,,,,,,,,,,,,,,,,,,,,,,,,,,,,,,,,,,87,158866,18,Female,1,2024/03/13_15:59:54,YZ,None,
,,,,,,calibration,0,2,2,202,13,Q,0,right,0.00040598600753583014,1,0,,,,,,,,,,,,,,,,,,,,,1,,,,,,,,,,,,,,,,,,,,,,,,,,,,,,,,,,,,,,,,,,,,,,87,158866,18,Female,1,2024/03/13_15:59:54,YZ,None,
,,,,,,calibration,0,2,2,202,14,C,1,right,nan,0,1,,,,,,,,,,,,,,,,,,,,,1,,,,,,,,,,,,,,,,,,,,,,,,,,,,,,,,,,,,,,,,,,,,,,87,158866,18,Female,1,2024/03/13_15:59:54,YZ,None,
,,,,,,calibration,0,2,2,202,15,J,0,right,0.5899447300034808,1,0,,,,,,,,,,,,,,,,,,,,,1,,,,,,,,,,,,,,,,,,,,,,,,,,,,,,,,,,,,,,,,,,,,,,87,158866,18,Female,1,2024/03/13_15:59:54,YZ,None,
,,,,,,calibration,0,2,2,202,16,N,0,right,0.2950780120008858,1,0,,,,,,,,,,,,,,,,,,,,,1,,,,,,,,,,,,,,,,,,,,,,,,,,,,,,,,,,,,,,,,,,,,,,87,158866,18,Female,1,2024/03/13_15:59:54,YZ,None,
,,,,,,calibration,0,2,2,202,17,J,1,left,0.31903019901074003,1,0,,,,,,,,,,,,,,,,,,,,,1,,,,,,,,,,,,,,,,,,,,,,,,,,,,,,,,,,,,,,,,,,,,,,87,158866,18,Female,1,2024/03/13_15:59:54,YZ,None,
,,,,,,calibration,0,2,2,202,18,C,0,right,0.48062261499580927,1,0,,,,,,,,,,,,,,,,,,,,,1,,,,,,,,,,,,,,,,,,,,,,,,,,,,,,,,,,,,,,,,,,,,,,87,158866,18,Female,1,2024/03/13_15:59:54,YZ,None,
,,,,,,calibration,0,2,2,202,19,V,0,right,0.6405955549998907,1,0,,,,,,,,,,,,,,,,,,,,,1,,,,,,,,,,,,,,,,,,,,,,,,,,,,,,,,,,,,,,,,,,,,,,87,158866,18,Female,1,2024/03/13_15:59:54,YZ,None,
,,,,,,calibration,0,2,2,202,20,C,1,left,0.49514852500578854,1,0,,,,,,,,,,,,,,,,,,,,,1,,,,,,,,,,,,,,,,,,,,,,,,,,,,,,,,,,,,,,,,,,,,,,87,158866,18,Female,1,2024/03/13_15:59:54,YZ,None,
,,,,,,calibration,0,2,2,202,21,V,1,right,0.3710624280065531,0,0,,,,,,,,,,,,,,,,,,,,,1,,,,,,,,,,,,,,,,,,,,,,,,,,,,,,,,,,,,,,,,,,,,,,87,158866,18,Female,1,2024/03/13_15:59:54,YZ,None,
,,,,,,calibration,0,2,2,202,,,,,,,,0.725,0.5,0.2,0.8,0.047619047619047616,0.7523809523809524,0.456253495002602,3,3,1,0,1,12,15,6,15,0,,,,1,,,,,,,,,,,,,,,,,,,,,,,,,,,,,,,,,,,,,,,,,,,,,,87,158866,18,Female,1,2024/03/13_15:59:54,YZ,None,
,,,,,,Calibration,0,,2,202,,,,,,,,,,,,,,,,,,,,,,,,,12,,,1,,,,,,,,,,,,,,,,,,,,,,,,,,,,,,,,,,,,,,,,,,,,,,87,158866,18,Female,1,2024/03/13_15:59:54,YZ,None,
,,,,,,calibration,0,31,2,250,1,Q,0,right,0.42423383799905423,1,0,,,,,,,,,,,,,,,,,,,,,1,,,,,,,,,,,,,,,,,,,,,,,,,,,,,,,,,,,,,,,,,,,,,,87,158866,18,Female,1,2024/03/13_15:59:54,YZ,None,
,,,,,,calibration,0,31,2,250,2,V,0,right,0.2731544109992683,1,0,,,,,,,,,,,,,,,,,,,,,1,,,,,,,,,,,,,,,,,,,,,,,,,,,,,,,,,,,,,,,,,,,,,,87,158866,18,Female,1,2024/03/13_15:59:54,YZ,None,
,,,,,,calibration,0,31,2,250,3,Q,1,left,0.375995825001155,1,0,,,,,,,,,,,,,,,,,,,,,1,,,,,,,,,,,,,,,,,,,,,,,,,,,,,,,,,,,,,,,,,,,,,,87,158866,18,Female,1,2024/03/13_15:59:54,YZ,None,
,,,,,,calibration,0,31,2,250,4,S,0,right,0.4971745210059453,1,0,,,,,,,,,,,,,,,,,,,,,1,,,,,,,,,,,,,,,,,,,,,,,,,,,,,,,,,,,,,,,,,,,,,,87,158866,18,Female,1,2024/03/13_15:59:54,YZ,None,
,,,,,,calibration,0,31,2,250,5,N,0,right,0.4842056780034909,1,0,,,,,,,,,,,,,,,,,,,,,1,,,,,,,,,,,,,,,,,,,,,,,,,,,,,,,,,,,,,,,,,,,,,,87,158866,18,Female,1,2024/03/13_15:59:54,YZ,None,
,,,,,,calibration,0,31,2,250,6,S,1,right,0.44037525000749156,0,0,,,,,,,,,,,,,,,,,,,,,1,,,,,,,,,,,,,,,,,,,,,,,,,,,,,,,,,,,,,,,,,,,,,,87,158866,18,Female,1,2024/03/13_15:59:54,YZ,None,
,,,,,,calibration,0,31,2,250,7,N,1,right,0.46324990899302065,0,0,,,,,,,,,,,,,,,,,,,,,1,,,,,,,,,,,,,,,,,,,,,,,,,,,,,,,,,,,,,,,,,,,,,,87,158866,18,Female,1,2024/03/13_15:59:54,YZ,None,
,,,,,,calibration,0,31,2,250,8,F,0,right,0.5570903890038608,1,0,,,,,,,,,,,,,,,,,,,,,1,,,,,,,,,,,,,,,,,,,,,,,,,,,,,,,,,,,,,,,,,,,,,,87,158866,18,Female,1,2024/03/13_15:59:54,YZ,None,
,,,,,,calibration,0,31,2,250,9,Q,0,left,0.5123789619974559,0,0,,,,,,,,,,,,,,,,,,,,,1,,,,,,,,,,,,,,,,,,,,,,,,,,,,,,,,,,,,,,,,,,,,,,87,158866,18,Female,1,2024/03/13_15:59:54,YZ,None,
,,,,,,calibration,0,31,2,250,10,F,1,right,0.29477061999205034,0,0,,,,,,,,,,,,,,,,,,,,,1,,,,,,,,,,,,,,,,,,,,,,,,,,,,,,,,,,,,,,,,,,,,,,87,158866,18,Female,1,2024/03/13_15:59:54,YZ,None,
,,,,,,calibration,0,31,2,250,11,X,0,right,0.3492294259922346,1,0,,,,,,,,,,,,,,,,,,,,,1,,,,,,,,,,,,,,,,,,,,,,,,,,,,,,,,,,,,,,,,,,,,,,87,158866,18,Female,1,2024/03/13_15:59:54,YZ,None,
,,,,,,calibration,0,31,2,250,12,C,0,right,0.42389195899886545,1,0,,,,,,,,,,,,,,,,,,,,,1,,,,,,,,,,,,,,,,,,,,,,,,,,,,,,,,,,,,,,,,,,,,,,87,158866,18,Female,1,2024/03/13_15:59:54,YZ,None,
,,,,,,calibration,0,31,2,250,13,X,1,left,0.510448412009282,1,0,,,,,,,,,,,,,,,,,,,,,1,,,,,,,,,,,,,,,,,,,,,,,,,,,,,,,,,,,,,,,,,,,,,,87,158866,18,Female,1,2024/03/13_15:59:54,YZ,None,
,,,,,,calibration,0,31,2,250,14,N,0,right,0.36364057900209446,1,0,,,,,,,,,,,,,,,,,,,,,1,,,,,,,,,,,,,,,,,,,,,,,,,,,,,,,,,,,,,,,,,,,,,,87,158866,18,Female,1,2024/03/13_15:59:54,YZ,None,
,,,,,,calibration,0,31,2,250,15,S,0,right,0.4846683570067398,1,0,,,,,,,,,,,,,,,,,,,,,1,,,,,,,,,,,,,,,,,,,,,,,,,,,,,,,,,,,,,,,,,,,,,,87,158866,18,Female,1,2024/03/13_15:59:54,YZ,None,
,,,,,,calibration,0,31,2,250,16,C,0,right,0.5454112890001852,1,0,,,,,,,,,,,,,,,,,,,,,1,,,,,,,,,,,,,,,,,,,,,,,,,,,,,,,,,,,,,,,,,,,,,,87,158866,18,Female,1,2024/03/13_15:59:54,YZ,None,
,,,,,,calibration,0,31,2,250,17,V,0,right,nan,0,1,,,,,,,,,,,,,,,,,,,,,1,,,,,,,,,,,,,,,,,,,,,,,,,,,,,,,,,,,,,,,,,,,,,,87,158866,18,Female,1,2024/03/13_15:59:54,YZ,None,
,,,,,,calibration,0,31,2,250,18,X,0,right,0.0,1,0,,,,,,,,,,,,,,,,,,,,,1,,,,,,,,,,,,,,,,,,,,,,,,,,,,,,,,,,,,,,,,,,,,,,87,158866,18,Female,1,2024/03/13_15:59:54,YZ,None,
,,,,,,calibration,0,31,2,250,19,N,0,right,0.4883333439938724,1,0,,,,,,,,,,,,,,,,,,,,,1,,,,,,,,,,,,,,,,,,,,,,,,,,,,,,,,,,,,,,,,,,,,,,87,158866,18,Female,1,2024/03/13_15:59:54,YZ,None,
,,,,,,calibration,0,31,2,250,20,C,0,left,0.836298389986041,0,0,,,,,,,,,,,,,,,,,,,,,1,,,,,,,,,,,,,,,,,,,,,,,,,,,,,,,,,,,,,,,,,,,,,,87,158866,18,Female,1,2024/03/13_15:59:54,YZ,None,
,,,,,,calibration,0,31,2,250,,,,,,,,0.7333333333333333,0.4,0.13333333333333333,0.8571428571428571,0.05,0.8166666666666667,0.4381342715259004,2,2,0,1,1,12,14,5,15,0,,,,1,,,,,,,,,,,,,,,,,,,,,,,,,,,,,,,,,,,,,,,,,,,,,,87,158866,18,Female,1,2024/03/13_15:59:54,YZ,None,
,,,,,,Calibration,0,,2,250,,,,,,,,,,,,,,,,,,,,,,,,,13,,,1,,,,,,,,,,,,,,,,,,,,,,,,,,,,,,,,,,,,,,,,,,,,,,87,158866,18,Female,1,2024/03/13_15:59:54,YZ,None,
,,,,,,calibration,0,12,2,303,1,N,0,right,0.0,1,0,,,,,,,,,,,,,,,,,,,,,1,,,,,,,,,,,,,,,,,,,,,,,,,,,,,,,,,,,,,,,,,,,,,,87,158866,18,Female,1,2024/03/13_15:59:54,YZ,None,
,,,,,,calibration,0,12,2,303,2,C,0,right,0.36550570899271406,1,0,,,,,,,,,,,,,,,,,,,,,1,,,,,,,,,,,,,,,,,,,,,,,,,,,,,,,,,,,,,,,,,,,,,,87,158866,18,Female,1,2024/03/13_15:59:54,YZ,None,
,,,,,,calibration,0,12,2,303,3,F,0,right,0.327617299000849,1,0,,,,,,,,,,,,,,,,,,,,,1,,,,,,,,,,,,,,,,,,,,,,,,,,,,,,,,,,,,,,,,,,,,,,87,158866,18,Female,1,2024/03/13_15:59:54,YZ,None,
,,,,,,calibration,0,12,2,303,4,C,1,left,0.6077501300023869,1,0,,,,,,,,,,,,,,,,,,,,,1,,,,,,,,,,,,,,,,,,,,,,,,,,,,,,,,,,,,,,,,,,,,,,87,158866,18,Female,1,2024/03/13_15:59:54,YZ,None,
,,,,,,calibration,0,12,2,303,5,J,0,right,0.29457822800031863,1,0,,,,,,,,,,,,,,,,,,,,,1,,,,,,,,,,,,,,,,,,,,,,,,,,,,,,,,,,,,,,,,,,,,,,87,158866,18,Female,1,2024/03/13_15:59:54,YZ,None,
,,,,,,calibration,0,12,2,303,6,V,0,right,0.26704288300243206,1,0,,,,,,,,,,,,,,,,,,,,,1,,,,,,,,,,,,,,,,,,,,,,,,,,,,,,,,,,,,,,,,,,,,,,87,158866,18,Female,1,2024/03/13_15:59:54,YZ,None,
,,,,,,calibration,0,12,2,303,7,Q,0,right,0.2961789020046126,1,0,,,,,,,,,,,,,,,,,,,,,1,,,,,,,,,,,,,,,,,,,,,,,,,,,,,,,,,,,,,,,,,,,,,,87,158866,18,Female,1,2024/03/13_15:59:54,YZ,None,
,,,,,,calibration,0,12,2,303,8,X,0,right,0.3482677499996498,1,0,,,,,,,,,,,,,,,,,,,,,1,,,,,,,,,,,,,,,,,,,,,,,,,,,,,,,,,,,,,,,,,,,,,,87,158866,18,Female,1,2024/03/13_15:59:54,YZ,None,
,,,,,,calibration,0,12,2,303,9,J,0,right,0.31990149899502285,1,0,,,,,,,,,,,,,,,,,,,,,1,,,,,,,,,,,,,,,,,,,,,,,,,,,,,,,,,,,,,,,,,,,,,,87,158866,18,Female,1,2024/03/13_15:59:54,YZ,None,
,,,,,,calibration,0,12,2,303,10,Q,0,right,0.3223083890043199,1,0,,,,,,,,,,,,,,,,,,,,,1,,,,,,,,,,,,,,,,,,,,,,,,,,,,,,,,,,,,,,,,,,,,,,87,158866,18,Female,1,2024/03/13_15:59:54,YZ,None,
,,,,,,calibration,0,12,2,303,11,J,1,right,0.34009263399639167,0,0,,,,,,,,,,,,,,,,,,,,,1,,,,,,,,,,,,,,,,,,,,,,,,,,,,,,,,,,,,,,,,,,,,,,87,158866,18,Female,1,2024/03/13_15:59:54,YZ,None,
,,,,,,calibration,0,12,2,303,12,V,0,right,0.38508874700346496,1,0,,,,,,,,,,,,,,,,,,,,,1,,,,,,,,,,,,,,,,,,,,,,,,,,,,,,,,,,,,,,,,,,,,,,87,158866,18,Female,1,2024/03/13_15:59:54,YZ,None,
,,,,,,calibration,0,12,2,303,13,Q,0,right,nan,0,1,,,,,,,,,,,,,,,,,,,,,1,,,,,,,,,,,,,,,,,,,,,,,,,,,,,,,,,,,,,,,,,,,,,,87,158866,18,Female,1,2024/03/13_15:59:54,YZ,None,
,,,,,,calibration,0,12,2,303,14,V,1,right,0.7222330219956348,0,0,,,,,,,,,,,,,,,,,,,,,1,,,,,,,,,,,,,,,,,,,,,,,,,,,,,,,,,,,,,,,,,,,,,,87,158866,18,Female,1,2024/03/13_15:59:54,YZ,None,
,,,,,,calibration,0,12,2,303,15,X,0,right,0.4660431260126643,1,0,,,,,,,,,,,,,,,,,,,,,1,,,,,,,,,,,,,,,,,,,,,,,,,,,,,,,,,,,,,,,,,,,,,,87,158866,18,Female,1,2024/03/13_15:59:54,YZ,None,
,,,,,,calibration,0,12,2,303,16,V,1,left,0.2952599039999768,1,0,,,,,,,,,,,,,,,,,,,,,1,,,,,,,,,,,,,,,,,,,,,,,,,,,,,,,,,,,,,,,,,,,,,,87,158866,18,Female,1,2024/03/13_15:59:54,YZ,None,
,,,,,,calibration,0,12,2,303,17,X,1,right,0.39359751099254936,0,0,,,,,,,,,,,,,,,,,,,,,1,,,,,,,,,,,,,,,,,,,,,,,,,,,,,,,,,,,,,,,,,,,,,,87,158866,18,Female,1,2024/03/13_15:59:54,YZ,None,
,,,,,,calibration,0,12,2,303,18,Q,0,right,0.5125084000028437,1,0,,,,,,,,,,,,,,,,,,,,,1,,,,,,,,,,,,,,,,,,,,,,,,,,,,,,,,,,,,,,,,,,,,,,87,158866,18,Female,1,2024/03/13_15:59:54,YZ,None,
,,,,,,calibration,0,12,2,303,19,V,0,left,0.39390006399480626,0,0,,,,,,,,,,,,,,,,,,,,,1,,,,,,,,,,,,,,,,,,,,,,,,,,,,,,,,,,,,,,,,,,,,,,87,158866,18,Female,1,2024/03/13_15:59:54,YZ,None,
,,,,,,calibration,0,12,2,303,,,,,,,,0.7875000000000001,0.4,0.07142857142857142,0.9230769230769231,0.05263157894736842,0.8759398496240602,0.3698818998333688,2,1,0,1,1,12,14,5,14,0,,,,1,,,,,,,,,,,,,,,,,,,,,,,,,,,,,,,,,,,,,,,,,,,,,,87,158866,18,Female,1,2024/03/13_15:59:54,YZ,None,
,,,,,,Calibration,0,,2,303,,,,,,,,,,,,,,,,,,,,,,,,,14,,,1,,,,,,,,,,,,,,,,,,,,,,,,,,,,,,,,,,,,,,,,,,,,,,87,158866,18,Female,1,2024/03/13_15:59:54,YZ,None,
,,,,,,calibration,0,5,2,303,1,F,0,right,0.30317885799740907,1,0,,,,,,,,,,,,,,,,,,,,,1,,,,,,,,,,,,,,,,,,,,,,,,,,,,,,,,,,,,,,,,,,,,,,87,158866,18,Female,1,2024/03/13_15:59:54,YZ,None,
,,,,,,calibration,0,5,2,303,2,X,0,right,0.1914265209925361,1,0,,,,,,,,,,,,,,,,,,,,,1,,,,,,,,,,,,,,,,,,,,,,,,,,,,,,,,,,,,,,,,,,,,,,87,158866,18,Female,1,2024/03/13_15:59:54,YZ,None,
,,,,,,calibration,0,5,2,303,3,F,1,left,0.5657146739977179,1,0,,,,,,,,,,,,,,,,,,,,,1,,,,,,,,,,,,,,,,,,,,,,,,,,,,,,,,,,,,,,,,,,,,,,87,158866,18,Female,1,2024/03/13_15:59:54,YZ,None,
,,,,,,calibration,0,5,2,303,4,V,0,right,0.22530846799782012,1,0,,,,,,,,,,,,,,,,,,,,,1,,,,,,,,,,,,,,,,,,,,,,,,,,,,,,,,,,,,,,,,,,,,,,87,158866,18,Female,1,2024/03/13_15:59:54,YZ,None,
,,,,,,calibration,0,5,2,303,5,X,0,right,0.44239473099878523,1,0,,,,,,,,,,,,,,,,,,,,,1,,,,,,,,,,,,,,,,,,,,,,,,,,,,,,,,,,,,,,,,,,,,,,87,158866,18,Female,1,2024/03/13_15:59:54,YZ,None,
,,,,,,calibration,0,5,2,303,6,J,0,right,0.6437189080024837,1,0,,,,,,,,,,,,,,,,,,,,,1,,,,,,,,,,,,,,,,,,,,,,,,,,,,,,,,,,,,,,,,,,,,,,87,158866,18,Female,1,2024/03/13_15:59:54,YZ,None,
,,,,,,calibration,0,5,2,303,7,F,0,right,nan,0,1,,,,,,,,,,,,,,,,,,,,,1,,,,,,,,,,,,,,,,,,,,,,,,,,,,,,,,,,,,,,,,,,,,,,87,158866,18,Female,1,2024/03/13_15:59:54,YZ,None,
,,,,,,calibration,0,5,2,303,8,V,0,left,0.7235302970075281,0,0,,,,,,,,,,,,,,,,,,,,,1,,,,,,,,,,,,,,,,,,,,,,,,,,,,,,,,,,,,,,,,,,,,,,87,158866,18,Female,1,2024/03/13_15:59:54,YZ,None,
,,,,,,calibration,0,5,2,303,9,X,0,right,0.02508378299535252,1,0,,,,,,,,,,,,,,,,,,,,,1,,,,,,,,,,,,,,,,,,,,,,,,,,,,,,,,,,,,,,,,,,,,,,87,158866,18,Female,1,2024/03/13_15:59:54,YZ,None,
,,,,,,calibration,0,5,2,303,10,V,1,right,0.542135601004702,0,0,,,,,,,,,,,,,,,,,,,,,1,,,,,,,,,,,,,,,,,,,,,,,,,,,,,,,,,,,,,,,,,,,,,,87,158866,18,Female,1,2024/03/13_15:59:54,YZ,None,
,,,,,,calibration,0,5,2,303,11,Q,0,right,nan,0,1,,,,,,,,,,,,,,,,,,,,,1,,,,,,,,,,,,,,,,,,,,,,,,,,,,,,,,,,,,,,,,,,,,,,87,158866,18,Female,1,2024/03/13_15:59:54,YZ,None,
,,,,,,calibration,0,5,2,303,12,S,0,right,0.0,1,0,,,,,,,,,,,,,,,,,,,,,1,,,,,,,,,,,,,,,,,,,,,,,,,,,,,,,,,,,,,,,,,,,,,,87,158866,18,Female,1,2024/03/13_15:59:54,YZ,None,
,,,,,,calibration,0,5,2,303,13,C,0,right,0.32258918999286834,1,0,,,,,,,,,,,,,,,,,,,,,1,,,,,,,,,,,,,,,,,,,,,,,,,,,,,,,,,,,,,,,,,,,,,,87,158866,18,Female,1,2024/03/13_15:59:54,YZ,None,
,,,,,,calibration,0,5,2,303,14,F,0,left,0.0004994420014554635,0,0,,,,,,,,,,,,,,,,,,,,,1,,,,,,,,,,,,,,,,,,,,,,,,,,,,,,,,,,,,,,,,,,,,,,87,158866,18,Female,1,2024/03/13_15:59:54,YZ,None,
,,,,,,calibration,0,5,2,303,15,X,0,right,0.29517226200550795,1,0,,,,,,,,,,,,,,,,,,,,,1,,,,,,,,,,,,,,,,,,,,,,,,,,,,,,,,,,,,,,,,,,,,,,87,158866,18,Female,1,2024/03/13_15:59:54,YZ,None,
,,,,,,calibration,0,5,2,303,16,F,1,left,0.42829820000042673,1,0,,,,,,,,,,,,,,,,,,,,,1,,,,,,,,,,,,,,,,,,,,,,,,,,,,,,,,,,,,,,,,,,,,,,87,158866,18,Female,1,2024/03/13_15:59:54,YZ,None,
,,,,,,calibration,0,5,2,303,17,C,0,right,0.4601633900019806,1,0,,,,,,,,,,,,,,,,,,,,,1,,,,,,,,,,,,,,,,,,,,,,,,,,,,,,,,,,,,,,,,,,,,,,87,158866,18,Female,1,2024/03/13_15:59:54,YZ,None,
,,,,,,calibration,0,5,2,303,18,F,1,left,0.6967892919929,1,0,,,,,,,,,,,,,,,,,,,,,1,,,,,,,,,,,,,,,,,,,,,,,,,,,,,,,,,,,,,,,,,,,,,,87,158866,18,Female,1,2024/03/13_15:59:54,YZ,None,
,,,,,,calibration,0,5,2,303,19,C,1,right,0.010720938997110352,0,0,,,,,,,,,,,,,,,,,,,,,1,,,,,,,,,,,,,,,,,,,,,,,,,,,,,,,,,,,,,,,,,,,,,,87,158866,18,Female,1,2024/03/13_15:59:54,YZ,None,
,,,,,,calibration,0,5,2,303,,,,,,,,0.8071428571428572,0.6,0.14285714285714285,0.8333333333333334,0.10526315789473684,0.7518796992481204,0.34568967976391674,3,2,0,2,2,10,13,5,14,0,,,,1,,,,,,,,,,,,,,,,,,,,,,,,,,,,,,,,,,,,,,,,,,,,,,87,158866,18,Female,1,2024/03/13_15:59:54,YZ,None,
,,,,,,Calibration,0,,2,303,,,,,,,,,,,,,,,,,,,,,,,,,15,,,1,,,,,,,,,,,,,,,,,,,,,,,,,,,,,,,,,,,,,,,,,,,,,,87,158866,18,Female,1,2024/03/13_15:59:54,YZ,None,
,,,,,,CALIBRATION,0,,,,,,,,,,,,,,,,,,,,,,,,,,,,15,0.8071428571428572,303,1,,,,,,,,,,,,,,,,,,,,,,,,,,,,,,,,,,,,,,,,,,,,,,87,158866,18,Female,1,2024/03/13_15:59:54,YZ,None,
1,./instructions/inst_prac_1/Slide24.png,right,10.476896214997396,525.0023974560027,535.479293671,,,,,,,,,,,,,,,,,,,,,,,,,,,,,,,,,1,,,,,,,,,,,,,,,,,,,,,,,,,,,,,,,,,,,,,,,,,,,,,,87,158866,18,Female,1,2024/03/13_15:59:54,YZ,None,
2,./instructions/inst_prac_1/Slide25.png,right,1.570603091007797,535.508722493003,537.0793255840108,,,,,,,,,,,,,,,,,,,,,,,,,,,,,,,,,1,,,,,,,,,,,,,,,,,,,,,,,,,,,,,,,,,,,,,,,,,,,,,,87,158866,18,Female,1,2024/03/13_15:59:54,YZ,None,
3,./instructions/inst_prac_1/Slide26.png,right,1.6346474180027144,537.1086684320035,538.7433158500062,,,,,,,,,,,,,,,,,,,,,,,,,,,,,,,,,1,,,,,,,,,,,,,,,,,,,,,,,,,,,,,,,,,,,,,,,,,,,,,,87,158866,18,Female,1,2024/03/13_15:59:54,YZ,None,
4,./instructions/inst_prac_1/Slide27.png,right,1.1227410919964314,538.7725019230129,539.8952430150093,,,,,,,,,,,,,,,,,,,,,,,,,,,,,,,,,1,,,,,,,,,,,,,,,,,,,,,,,,,,,,,,,,,,,,,,,,,,,,,,87,158866,18,Female,1,2024/03/13_15:59:54,YZ,None,
5,./instructions/inst_prac_1/Slide28.png,right,0.9146983359969454,539.924672470006,540.839370806003,,,,,,,,,,,,,,,,,,,,,,,,,,,,,,,,,1,,,,,,,,,,,,,,,,,,,,,,,,,,,,,,,,,,,,,,,,,,,,,,87,158866,18,Female,1,2024/03/13_15:59:54,YZ,None,
6,./instructions/inst_prac_1/Slide29.png,right,4.677928300996427,540.8654186000058,545.5433469010022,,,,,,,,,,,,,,,,,,,,,,,,,,,,,,,,,1,,,,,,,,,,,,,,,,,,,,,,,,,,,,,,,,,,,,,,,,,,,,,,87,158866,18,Female,1,2024/03/13_15:59:54,YZ,None,
7,./instructions/inst_prac_1/Slide30.png,right,2.954301766003482,545.5730539590004,548.5273557250039,,,,,,,,,,,,,,,,,,,,,,,,,,,,,,,,,1,,,,,,,,,,,,,,,,,,,,,,,,,,,,,,,,,,,,,,,,,,,,,,87,158866,18,Female,1,2024/03/13_15:59:54,YZ,None,
,,,,,,practice,0,19,1,1250,1,Q,0,right,0.897554658993613,1,0,,,,,,,,,,,,,,,,,,,,,1,,,,,,,,,,,,,,,,,,,,,,,,,,,,,,,,,,,,,,,,,,,,,,87,158866,18,Female,1,2024/03/13_15:59:54,YZ,None,
,,,,,,practice,0,19,1,1250,2,Q,1,left,0.6841638519981643,1,0,,,,,,,,,,,,,,,,,,,,,1,,,,,,,,,,,,,,,,,,,,,,,,,,,,,,,,,,,,,,,,,,,,,,87,158866,18,Female,1,2024/03/13_15:59:54,YZ,None,
,,,,,,practice,0,19,1,1250,3,V,0,right,0.8205711240007076,1,0,,,,,,,,,,,,,,,,,,,,,1,,,,,,,,,,,,,,,,,,,,,,,,,,,,,,,,,,,,,,,,,,,,,,87,158866,18,Female,1,2024/03/13_15:59:54,YZ,None,
,,,,,,practice,0,19,1,1250,4,F,0,right,0.6363187399983872,1,0,,,,,,,,,,,,,,,,,,,,,1,,,,,,,,,,,,,,,,,,,,,,,,,,,,,,,,,,,,,,,,,,,,,,87,158866,18,Female,1,2024/03/13_15:59:54,YZ,None,
,,,,,,practice,0,19,1,1250,5,F,1,left,0.5966946260014083,1,0,,,,,,,,,,,,,,,,,,,,,1,,,,,,,,,,,,,,,,,,,,,,,,,,,,,,,,,,,,,,,,,,,,,,87,158866,18,Female,1,2024/03/13_15:59:54,YZ,None,
,,,,,,practice,0,19,1,1250,6,C,0,right,0.7632562469952973,1,0,,,,,,,,,,,,,,,,,,,,,1,,,,,,,,,,,,,,,,,,,,,,,,,,,,,,,,,,,,,,,,,,,,,,87,158866,18,Female,1,2024/03/13_15:59:54,YZ,None,
,,,,,,practice,0,19,1,1250,7,N,0,right,0.8598825840017525,1,0,,,,,,,,,,,,,,,,,,,,,1,,,,,,,,,,,,,,,,,,,,,,,,,,,,,,,,,,,,,,,,,,,,,,87,158866,18,Female,1,2024/03/13_15:59:54,YZ,None,
,,,,,,practice,0,19,1,1250,8,F,0,right,0.7659174669970525,1,0,,,,,,,,,,,,,,,,,,,,,1,,,,,,,,,,,,,,,,,,,,,,,,,,,,,,,,,,,,,,,,,,,,,,87,158866,18,Female,1,2024/03/13_15:59:54,YZ,None,
,,,,,,practice,0,19,1,1250,9,F,1,left,0.5039329639985226,1,0,,,,,,,,,,,,,,,,,,,,,1,,,,,,,,,,,,,,,,,,,,,,,,,,,,,,,,,,,,,,,,,,,,,,87,158866,18,Female,1,2024/03/13_15:59:54,YZ,None,
,,,,,,practice,0,19,1,1250,10,J,0,right,0.7124893209984293,1,0,,,,,,,,,,,,,,,,,,,,,1,,,,,,,,,,,,,,,,,,,,,,,,,,,,,,,,,,,,,,,,,,,,,,87,158866,18,Female,1,2024/03/13_15:59:54,YZ,None,
,,,,,,practice,0,19,1,1250,,,,,,,,1.0,1.0,0.0,1.0,0.0,1.0,0.7240781583983334,3,0,0,0,0,7,10,3,7,0,,,,1,,,,,,,,,,,,,,,,,,,,,,,,,,,,,,,,,,,,,,,,,,,,,,87,158866,18,Female,1,2024/03/13_15:59:54,YZ,None,
1,./instructions/inst_prac_1_next/Slide35.png,right,3.2801839809981175,566.311039985012,569.5912239660101,,,,,,,,,,,,,,,,,,,,,,,,,,,,,,,,,1,,,,,,,,,,,,,,,,,,,,,,,,,,,,,,,,,,,,,,,,,,,,,,87,158866,18,Female,1,2024/03/13_15:59:54,YZ,None,
,,,,,,practice,0,4,1,303,1,V,0,right,0.7961782289930852,1,0,,,,,,,,,,,,,,,,,,,,,1,,,,,,,,,,,,,,,,,,,,,,,,,,,,,,,,,,,,,,,,,,,,,,87,158866,18,Female,1,2024/03/13_15:59:54,YZ,None,
,,,,,,practice,0,4,1,303,2,J,0,right,0.44555786398996133,1,0,,,,,,,,,,,,,,,,,,,,,1,,,,,,,,,,,,,,,,,,,,,,,,,,,,,,,,,,,,,,,,,,,,,,87,158866,18,Female,1,2024/03/13_15:59:54,YZ,None,
,,,,,,practice,0,4,1,303,3,J,1,left,0.5568048150016693,1,0,,,,,,,,,,,,,,,,,,,,,1,,,,,,,,,,,,,,,,,,,,,,,,,,,,,,,,,,,,,,,,,,,,,,87,158866,18,Female,1,2024/03/13_15:59:54,YZ,None,
,,,,,,practice,0,4,1,303,4,N,0,right,0.444762510000146,1,0,,,,,,,,,,,,,,,,,,,,,1,,,,,,,,,,,,,,,,,,,,,,,,,,,,,,,,,,,,,,,,,,,,,,87,158866,18,Female,1,2024/03/13_15:59:54,YZ,None,
,,,,,,practice,0,4,1,303,5,N,1,left,0.4606883290107362,1,0,,,,,,,,,,,,,,,,,,,,,1,,,,,,,,,,,,,,,,,,,,,,,,,,,,,,,,,,,,,,,,,,,,,,87,158866,18,Female,1,2024/03/13_15:59:54,YZ,None,
,,,,,,practice,0,4,1,303,6,F,0,right,0.46037993900245056,1,0,,,,,,,,,,,,,,,,,,,,,1,,,,,,,,,,,,,,,,,,,,,,,,,,,,,,,,,,,,,,,,,,,,,,87,158866,18,Female,1,2024/03/13_15:59:54,YZ,None,
,,,,,,practice,0,4,1,303,7,F,1,right,0.388509542986867,0,0,,,,,,,,,,,,,,,,,,,,,1,,,,,,,,,,,,,,,,,,,,,,,,,,,,,,,,,,,,,,,,,,,,,,87,158866,18,Female,1,2024/03/13_15:59:54,YZ,None,
,,,,,,practice,0,4,1,303,8,C,0,right,1.320263255998725,1,0,,,,,,,,,,,,,,,,,,,,,1,,,,,,,,,,,,,,,,,,,,,,,,,,,,,,,,,,,,,,,,,,,,,,87,158866,18,Female,1,2024/03/13_15:59:54,YZ,None,
,,,,,,practice,0,4,1,303,9,N,0,right,0.6153052760055289,1,0,,,,,,,,,,,,,,,,,,,,,1,,,,,,,,,,,,,,,,,,,,,,,,,,,,,,,,,,,,,,,,,,,,,,87,158866,18,Female,1,2024/03/13_15:59:54,YZ,None,
,,,,,,practice,0,4,1,303,10,J,0,right,0.941021988997818,1,0,,,,,,,,,,,,,,,,,,,,,1,,,,,,,,,,,,,,,,,,,,,,,,,,,,,,,,,,,,,,,,,,,,,,87,158866,18,Female,1,2024/03/13_15:59:54,YZ,None,
,,,,,,practice,0,4,1,303,11,S,0,right,0.44923661700158846,1,0,,,,,,,,,,,,,,,,,,,,,1,,,,,,,,,,,,,,,,,,,,,,,,,,,,,,,,,,,,,,,,,,,,,,87,158866,18,Female,1,2024/03/13_15:59:54,YZ,None,
,,,,,,practice,0,4,1,303,12,S,1,left,0.3523369150061626,1,0,,,,,,,,,,,,,,,,,,,,,1,,,,,,,,,,,,,,,,,,,,,,,,,,,,,,,,,,,,,,,,,,,,,,87,158866,18,Female,1,2024/03/13_15:59:54,YZ,None,
,,,,,,practice,0,4,1,303,13,Q,0,right,0.6040614179946715,1,0,,,,,,,,,,,,,,,,,,,,,1,,,,,,,,,,,,,,,,,,,,,,,,,,,,,,,,,,,,,,,,,,,,,,87,158866,18,Female,1,2024/03/13_15:59:54,YZ,None,
,,,,,,practice,0,4,1,303,14,N,0,right,0.49570061899430584,1,0,,,,,,,,,,,,,,,,,,,,,1,,,,,,,,,,,,,,,,,,,,,,,,,,,,,,,,,,,,,,,,,,,,,,87,158866,18,Female,1,2024/03/13_15:59:54,YZ,None,
,,,,,,practice,0,4,1,303,15,J,0,right,0.820247413998004,1,0,,,,,,,,,,,,,,,,,,,,,1,,,,,,,,,,,,,,,,,,,,,,,,,,,,,,,,,,,,,,,,,,,,,,87,158866,18,Female,1,2024/03/13_15:59:54,YZ,None,
,,,,,,practice,0,4,1,303,16,J,1,left,0.6477825410111109,1,0,,,,,,,,,,,,,,,,,,,,,1,,,,,,,,,,,,,,,,,,,,,,,,,,,,,,,,,,,,,,,,,,,,,,87,158866,18,Female,1,2024/03/13_15:59:54,YZ,None,
,,,,,,practice,0,4,1,303,17,C,0,right,0.33276713399391156,1,0,,,,,,,,,,,,,,,,,,,,,1,,,,,,,,,,,,,,,,,,,,,,,,,,,,,,,,,,,,,,,,,,,,,,87,158866,18,Female,1,2024/03/13_15:59:54,YZ,None,
,,,,,,practice,0,4,1,303,18,N,0,right,0.3518062819930492,1,0,,,,,,,,,,,,,,,,,,,,,1,,,,,,,,,,,,,,,,,,,,,,,,,,,,,,,,,,,,,,,,,,,,,,87,158866,18,Female,1,2024/03/13_15:59:54,YZ,None,
,,,,,,practice,0,4,1,303,19,J,0,right,0.6736296970047988,1,0,,,,,,,,,,,,,,,,,,,,,1,,,,,,,,,,,,,,,,,,,,,,,,,,,,,,,,,,,,,,,,,,,,,,87,158866,18,Female,1,2024/03/13_15:59:54,YZ,None,
,,,,,,practice,0,4,1,303,,,,,,,,0.95,0.8,0.0,1.0,0.0,1.0,0.5872126519465574,4,0,0,0,0,14,18,5,14,0,,,,1,,,,,,,,,,,,,,,,,,,,,,,,,,,,,,,,,,,,,,,,,,,,,,87,158866,18,Female,1,2024/03/13_15:59:54,YZ,None,
,,,,,,practice,0,9,1,303,1,C,0,right,0.6221614910027711,1,0,,,,,,,,,,,,,,,,,,,,,1,,,,,,,,,,,,,,,,,,,,,,,,,,,,,,,,,,,,,,,,,,,,,,87,158866,18,Female,1,2024/03/13_15:59:54,YZ,None,
,,,,,,practice,0,9,1,303,2,N,0,right,0.3484902019990841,1,0,,,,,,,,,,,,,,,,,,,,,1,,,,,,,,,,,,,,,,,,,,,,,,,,,,,,,,,,,,,,,,,,,,,,87,158866,18,Female,1,2024/03/13_15:59:54,YZ,None,
,,,,,,practice,0,9,1,303,3,C,0,right,0.4337281299958704,1,0,,,,,,,,,,,,,,,,,,,,,1,,,,,,,,,,,,,,,,,,,,,,,,,,,,,,,,,,,,,,,,,,,,,,87,158866,18,Female,1,2024/03/13_15:59:54,YZ,None,
,,,,,,practice,0,9,1,303,4,C,1,left,0.5374282020056853,1,0,,,,,,,,,,,,,,,,,,,,,1,,,,,,,,,,,,,,,,,,,,,,,,,,,,,,,,,,,,,,,,,,,,,,87,158866,18,Female,1,2024/03/13_15:59:54,YZ,None,
,,,,,,practice,0,9,1,303,5,X,0,right,0.512030322002829,1,0,,,,,,,,,,,,,,,,,,,,,1,,,,,,,,,,,,,,,,,,,,,,,,,,,,,,,,,,,,,,,,,,,,,,87,158866,18,Female,1,2024/03/13_15:59:54,YZ,None,
,,,,,,practice,0,9,1,303,6,X,1,left,0.5164930750033818,1,0,,,,,,,,,,,,,,,,,,,,,1,,,,,,,,,,,,,,,,,,,,,,,,,,,,,,,,,,,,,,,,,,,,,,87,158866,18,Female,1,2024/03/13_15:59:54,YZ,None,
,,,,,,practice,0,9,1,303,7,V,0,right,0.39242658599687275,1,0,,,,,,,,,,,,,,,,,,,,,1,,,,,,,,,,,,,,,,,,,,,,,,,,,,,,,,,,,,,,,,,,,,,,87,158866,18,Female,1,2024/03/13_15:59:54,YZ,None,
,,,,,,practice,0,9,1,303,8,V,1,left,0.5126322330033872,1,0,,,,,,,,,,,,,,,,,,,,,1,,,,,,,,,,,,,,,,,,,,,,,,,,,,,,,,,,,,,,,,,,,,,,87,158866,18,Female,1,2024/03/13_15:59:54,YZ,None,
,,,,,,practice,0,9,1,303,9,C,0,right,0.3451866149989655,1,0,,,,,,,,,,,,,,,,,,,,,1,,,,,,,,,,,,,,,,,,,,,,,,,,,,,,,,,,,,,,,,,,,,,,87,158866,18,Female,1,2024/03/13_15:59:54,YZ,None,
,,,,,,practice,0,9,1,303,10,Q,0,right,0.5166918109898688,1,0,,,,,,,,,,,,,,,,,,,,,1,,,,,,,,,,,,,,,,,,,,,,,,,,,,,,,,,,,,,,,,,,,,,,87,158866,18,Female,1,2024/03/13_15:59:54,YZ,None,
,,,,,,practice,0,9,1,303,11,F,0,right,0.6790192959888373,1,0,,,,,,,,,,,,,,,,,,,,,1,,,,,,,,,,,,,,,,,,,,,,,,,,,,,,,,,,,,,,,,,,,,,,87,158866,18,Female,1,2024/03/13_15:59:54,YZ,None,
,,,,,,practice,0,9,1,303,12,V,0,right,0.6122805290069664,1,0,,,,,,,,,,,,,,,,,,,,,1,,,,,,,,,,,,,,,,,,,,,,,,,,,,,,,,,,,,,,,,,,,,,,87,158866,18,Female,1,2024/03/13_15:59:54,YZ,None,
,,,,,,practice,0,9,1,303,13,J,0,right,0.42851951900229324,1,0,,,,,,,,,,,,,,,,,,,,,1,,,,,,,,,,,,,,,,,,,,,,,,,,,,,,,,,,,,,,,,,,,,,,87,158866,18,Female,1,2024/03/13_15:59:54,YZ,None,
,,,,,,practice,0,9,1,303,14,J,1,left,0.3884070049971342,1,0,,,,,,,,,,,,,,,,,,,,,1,,,,,,,,,,,,,,,,,,,,,,,,,,,,,,,,,,,,,,,,,,,,,,87,158866,18,Female,1,2024/03/13_15:59:54,YZ,None,
,,,,,,practice,0,9,1,303,15,Q,0,right,0.39243951099342667,1,0,,,,,,,,,,,,,,,,,,,,,1,,,,,,,,,,,,,,,,,,,,,,,,,,,,,,,,,,,,,,,,,,,,,,87,158866,18,Female,1,2024/03/13_15:59:54,YZ,None,
,,,,,,practice,0,9,1,303,16,X,0,right,0.3780945220059948,1,0,,,,,,,,,,,,,,,,,,,,,1,,,,,,,,,,,,,,,,,,,,,,,,,,,,,,,,,,,,,,,,,,,,,,87,158866,18,Female,1,2024/03/13_15:59:54,YZ,None,
,,,,,,practice,0,9,1,303,17,V,0,right,0.43623415801266674,1,0,,,,,,,,,,,,,,,,,,,,,1,,,,,,,,,,,,,,,,,,,,,,,,,,,,,,,,,,,,,,,,,,,,,,87,158866,18,Female,1,2024/03/13_15:59:54,YZ,None,
,,,,,,practice,0,9,1,303,18,Q,0,right,0.4322878210077761,1,0,,,,,,,,,,,,,,,,,,,,,1,,,,,,,,,,,,,,,,,,,,,,,,,,,,,,,,,,,,,,,,,,,,,,87,158866,18,Female,1,2024/03/13_15:59:54,YZ,None,
,,,,,,practice,0,9,1,303,19,Q,1,left,0.5788272249919828,1,0,,,,,,,,,,,,,,,,,,,,,1,,,,,,,,,,,,,,,,,,,,,,,,,,,,,,,,,,,,,,,,,,,,,,87,158866,18,Female,1,2024/03/13_15:59:54,YZ,None,
,,,,,,practice,0,9,1,303,,,,,,,,1.0,1.0,0.0,1.0,0.0,1.0,0.47701990805293654,5,0,0,0,0,14,19,5,14,0,,,,1,,,,,,,,,,,,,,,,,,,,,,,,,,,,,,,,,,,,,,,,,,,,,,87,158866,18,Female,1,2024/03/13_15:59:54,YZ,None,
1,./instructions/inst_prac_3/Slide37.png,right,9.428526208997937,613.8668608160078,623.2953870250058,,,,,,,,,,,,,,,,,,,,,,,,,,,,,,,,,1,,,,,,,,,,,,,,,,,,,,,,,,,,,,,,,,,,,,,,,,,,,,,,87,158866,18,Female,1,2024/03/13_15:59:54,YZ,None,
2,./instructions/inst_prac_3/Slide38.png,right,1.6591446829988854,623.324165856,624.9833105389989,,,,,,,,,,,,,,,,,,,,,,,,,,,,,,,,,1,,,,,,,,,,,,,,,,,,,,,,,,,,,,,,,,,,,,,,,,,,,,,,87,158866,18,Female,1,2024/03/13_15:59:54,YZ,None,
3,./instructions/inst_prac_3/Slide39.png,right,0.200409169003251,625.0095710050082,625.2099801740114,,,,,,,,,,,,,,,,,,,,,,,,,,,,,,,,,1,,,,,,,,,,,,,,,,,,,,,,,,,,,,,,,,,,,,,,,,,,,,,,87,158866,18,Female,1,2024/03/13_15:59:54,YZ,None,
4,./instructions/inst_prac_3/Slide40.png,right,0.8305725799873471,625.2328246110119,626.0633971909992,,,,,,,,,,,,,,,,,,,,,,,,,,,,,,,,,1,,,,,,,,,,,,,,,,,,,,,,,,,,,,,,,,,,,,,,,,,,,,,,87,158866,18,Female,1,2024/03/13_15:59:54,YZ,None,
5,./instructions/inst_prac_3/Slide41.png,right,1.6107339090085588,626.0925594500004,627.703293359009,,,,,,,,,,,,,,,,,,,,,,,,,,,,,,,,,1,,,,,,,,,,,,,,,,,,,,,,,,,,,,,,,,,,,,,,,,,,,,,,87,158866,18,Female,1,2024/03/13_15:59:54,YZ,None,
6,./instructions/inst_prac_3/Slide42.png,right,1.2179528069973458,627.7336292320106,628.9515820390079,,,,,,,,,,,,,,,,,,,,,,,,,,,,,,,,,1,,,,,,,,,,,,,,,,,,,,,,,,,,,,,,,,,,,,,,,,,,,,,,87,158866,18,Female,1,2024/03/13_15:59:54,YZ,None,
7,./instructions/inst_prac_3/Slide43.png,right,2.372150048002368,628.9791935740068,631.3513436220092,,,,,,,,,,,,,,,,,,,,,,,,,,,,,,,,,1,,,,,,,,,,,,,,,,,,,,,,,,,,,,,,,,,,,,,,,,,,,,,,87,158866,18,Female,1,2024/03/13_15:59:54,YZ,None,
8,./instructions/inst_prac_3/Slide44.png,right,0.20059962398954667,631.37966641401,631.5802660379995,,,,,,,,,,,,,,,,,,,,,,,,,,,,,,,,,1,,,,,,,,,,,,,,,,,,,,,,,,,,,,,,,,,,,,,,,,,,,,,,87,158866,18,Female,1,2024/03/13_15:59:54,YZ,None,
,,,,,,practice,0,32,3,788,1,Q,0,right,1.2899154170008842,1,0,,,,,,,,,,,,,,,,,,,,,1,,,,,,,,,,,,,,,,,,,,,,,,,,,,,,,,,,,,,,,,,,,,,,87,158866,18,Female,1,2024/03/13_15:59:54,YZ,None,
,,,,,,practice,0,32,3,788,2,C,0,right,0.4640575249941321,1,0,,,,,,,,,,,,,,,,,,,,,1,,,,,,,,,,,,,,,,,,,,,,,,,,,,,,,,,,,,,,,,,,,,,,87,158866,18,Female,1,2024/03/13_15:59:54,YZ,None,
,,,,,,practice,0,32,3,788,3,N,0,right,0.5454456539882813,1,0,,,,,,,,,,,,,,,,,,,,,1,,,,,,,,,,,,,,,,,,,,,,,,,,,,,,,,,,,,,,,,,,,,,,87,158866,18,Female,1,2024/03/13_15:59:54,YZ,None,
,,,,,,practice,0,32,3,788,4,Q,1,left,0.8258949460141594,1,0,,,,,,,,,,,,,,,,,,,,,1,,,,,,,,,,,,,,,,,,,,,,,,,,,,,,,,,,,,,,,,,,,,,,87,158866,18,Female,1,2024/03/13_15:59:54,YZ,None,
,,,,,,practice,0,32,3,788,5,C,1,right,1.2597455600043759,0,0,,,,,,,,,,,,,,,,,,,,,1,,,,,,,,,,,,,,,,,,,,,,,,,,,,,,,,,,,,,,,,,,,,,,87,158866,18,Female,1,2024/03/13_15:59:54,YZ,None,
,,,,,,practice,0,32,3,788,6,V,0,right,2.4921805660123937,1,0,,,,,,,,,,,,,,,,,,,,,1,,,,,,,,,,,,,,,,,,,,,,,,,,,,,,,,,,,,,,,,,,,,,,87,158866,18,Female,1,2024/03/13_15:59:54,YZ,None,
,,,,,,practice,0,32,3,788,7,S,0,right,0.6748789660050534,1,0,,,,,,,,,,,,,,,,,,,,,1,,,,,,,,,,,,,,,,,,,,,,,,,,,,,,,,,,,,,,,,,,,,,,87,158866,18,Female,1,2024/03/13_15:59:54,YZ,None,
,,,,,,practice,0,32,3,788,8,C,1,left,0.7565908029937418,1,0,,,,,,,,,,,,,,,,,,,,,1,,,,,,,,,,,,,,,,,,,,,,,,,,,,,,,,,,,,,,,,,,,,,,87,158866,18,Female,1,2024/03/13_15:59:54,YZ,None,
,,,,,,practice,0,32,3,788,9,N,0,right,1.2993568949896144,1,0,,,,,,,,,,,,,,,,,,,,,1,,,,,,,,,,,,,,,,,,,,,,,,,,,,,,,,,,,,,,,,,,,,,,87,158866,18,Female,1,2024/03/13_15:59:54,YZ,None,
,,,,,,practice,0,32,3,788,10,S,1,left,1.3408345019997796,1,0,,,,,,,,,,,,,,,,,,,,,1,,,,,,,,,,,,,,,,,,,,,,,,,,,,,,,,,,,,,,,,,,,,,,87,158866,18,Female,1,2024/03/13_15:59:54,YZ,None,
,,,,,,practice,0,32,3,788,11,X,0,right,1.0581671050022123,1,0,,,,,,,,,,,,,,,,,,,,,1,,,,,,,,,,,,,,,,,,,,,,,,,,,,,,,,,,,,,,,,,,,,,,87,158866,18,Female,1,2024/03/13_15:59:54,YZ,None,
,,,,,,practice,0,32,3,788,12,Q,0,right,1.0591836209932808,1,0,,,,,,,,,,,,,,,,,,,,,1,,,,,,,,,,,,,,,,,,,,,,,,,,,,,,,,,,,,,,,,,,,,,,87,158866,18,Female,1,2024/03/13_15:59:54,YZ,None,
,,,,,,practice,0,32,3,788,13,V,0,right,0.7502829209988704,1,0,,,,,,,,,,,,,,,,,,,,,1,,,,,,,,,,,,,,,,,,,,,,,,,,,,,,,,,,,,,,,,,,,,,,87,158866,18,Female,1,2024/03/13_15:59:54,YZ,None,
,,,,,,practice,0,32,3,788,,,,,,,,0.9375,0.75,0.0,1.0,0.0,1.0,1.06281034469206,3,0,0,0,0,9,12,4,9,0,,,,1,,,,,,,,,,,,,,,,,,,,,,,,,,,,,,,,,,,,,,,,,,,,,,87,158866,18,Female,1,2024/03/13_15:59:54,YZ,None,
1,./instructions/inst_prac_3_next/Slide49.png,right,4.921485967992339,659.5898855350097,664.511371503002,,,,,,,,,,,,,,,,,,,,,,,,,,,,,,,,,1,,,,,,,,,,,,,,,,,,,,,,,,,,,,,,,,,,,,,,,,,,,,,,87,158866,18,Female,1,2024/03/13_15:59:54,YZ,None,
,,,,,,practice,0,22,3,303,1,S,0,right,0.9110883209941676,1,0,,,,,,,,,,,,,,,,,,,,,1,,,,,,,,,,,,,,,,,,,,,,,,,,,,,,,,,,,,,,,,,,,,,,87,158866,18,Female,1,2024/03/13_15:59:54,YZ,None,
,,,,,,practice,0,22,3,303,2,S,0,right,0.6045681449904805,1,0,,,,,,,,,,,,,,,,,,,,,1,,,,,,,,,,,,,,,,,,,,,,,,,,,,,,,,,,,,,,,,,,,,,,87,158866,18,Female,1,2024/03/13_15:59:54,YZ,None,
,,,,,,practice,0,22,3,303,3,N,0,right,0.6722699329984607,1,0,,,,,,,,,,,,,,,,,,,,,1,,,,,,,,,,,,,,,,,,,,,,,,,,,,,,,,,,,,,,,,,,,,,,87,158866,18,Female,1,2024/03/13_15:59:54,YZ,None,
,,,,,,practice,0,22,3,303,4,C,0,right,0.607370247002109,1,0,,,,,,,,,,,,,,,,,,,,,1,,,,,,,,,,,,,,,,,,,,,,,,,,,,,,,,,,,,,,,,,,,,,,87,158866,18,Female,1,2024/03/13_15:59:54,YZ,None,
,,,,,,practice,0,22,3,303,5,S,1,right,0.983245724986773,0,0,,,,,,,,,,,,,,,,,,,,,1,,,,,,,,,,,,,,,,,,,,,,,,,,,,,,,,,,,,,,,,,,,,,,87,158866,18,Female,1,2024/03/13_15:59:54,YZ,None,
,,,,,,practice,0,22,3,303,6,V,0,right,1.385503402998438,1,0,,,,,,,,,,,,,,,,,,,,,1,,,,,,,,,,,,,,,,,,,,,,,,,,,,,,,,,,,,,,,,,,,,,,87,158866,18,Female,1,2024/03/13_15:59:54,YZ,None,
,,,,,,practice,0,22,3,303,7,C,1,left,0.5086357729887823,1,0,,,,,,,,,,,,,,,,,,,,,1,,,,,,,,,,,,,,,,,,,,,,,,,,,,,,,,,,,,,,,,,,,,,,87,158866,18,Female,1,2024/03/13_15:59:54,YZ,None,
,,,,,,practice,0,22,3,303,8,V,0,left,0.7952756219892763,0,0,,,,,,,,,,,,,,,,,,,,,1,,,,,,,,,,,,,,,,,,,,,,,,,,,,,,,,,,,,,,,,,,,,,,87,158866,18,Female,1,2024/03/13_15:59:54,YZ,None,
,,,,,,practice,0,22,3,303,9,V,1,left,0.8743379470106447,1,0,,,,,,,,,,,,,,,,,,,,,1,,,,,,,,,,,,,,,,,,,,,,,,,,,,,,,,,,,,,,,,,,,,,,87,158866,18,Female,1,2024/03/13_15:59:54,YZ,None,
,,,,,,practice,0,22,3,303,10,C,1,left,1.113805697998032,1,0,,,,,,,,,,,,,,,,,,,,,1,,,,,,,,,,,,,,,,,,,,,,,,,,,,,,,,,,,,,,,,,,,,,,87,158866,18,Female,1,2024/03/13_15:59:54,YZ,None,
,,,,,,practice,0,22,3,303,11,C,0,left,0.7645184650027659,0,0,,,,,,,,,,,,,,,,,,,,,1,,,,,,,,,,,,,,,,,,,,,,,,,,,,,,,,,,,,,,,,,,,,,,87,158866,18,Female,1,2024/03/13_15:59:54,YZ,None,
,,,,,,practice,0,22,3,303,12,J,0,right,0.375600300001679,1,0,,,,,,,,,,,,,,,,,,,,,1,,,,,,,,,,,,,,,,,,,,,,,,,,,,,,,,,,,,,,,,,,,,,,87,158866,18,Female,1,2024/03/13_15:59:54,YZ,None,
,,,,,,practice,0,22,3,303,13,J,0,right,0.3515846170048462,1,0,,,,,,,,,,,,,,,,,,,,,1,,,,,,,,,,,,,,,,,,,,,,,,,,,,,,,,,,,,,,,,,,,,,,87,158866,18,Female,1,2024/03/13_15:59:54,YZ,None,
,,,,,,practice,0,22,3,303,14,C,1,right,1.4638974090048578,0,0,,,,,,,,,,,,,,,,,,,,,1,,,,,,,,,,,,,,,,,,,,,,,,,,,,,,,,,,,,,,,,,,,,,,87,158866,18,Female,1,2024/03/13_15:59:54,YZ,None,
,,,,,,practice,0,22,3,303,15,C,0,right,0.7371651099965675,1,0,,,,,,,,,,,,,,,,,,,,,1,,,,,,,,,,,,,,,,,,,,,,,,,,,,,,,,,,,,,,,,,,,,,,87,158866,18,Female,1,2024/03/13_15:59:54,YZ,None,
,,,,,,practice,0,22,3,303,16,N,0,left,0.5029253300017444,0,0,,,,,,,,,,,,,,,,,,,,,1,,,,,,,,,,,,,,,,,,,,,,,,,,,,,,,,,,,,,,,,,,,,,,87,158866,18,Female,1,2024/03/13_15:59:54,YZ,None,
,,,,,,practice,0,22,3,303,17,F,0,right,0.45697426098922733,1,0,,,,,,,,,,,,,,,,,,,,,1,,,,,,,,,,,,,,,,,,,,,,,,,,,,,,,,,,,,,,,,,,,,,,87,158866,18,Female,1,2024/03/13_15:59:54,YZ,None,
,,,,,,practice,0,22,3,303,18,C,1,right,0.9397400650050258,0,0,,,,,,,,,,,,,,,,,,,,,1,,,,,,,,,,,,,,,,,,,,,,,,,,,,,,,,,,,,,,,,,,,,,,87,158866,18,Female,1,2024/03/13_15:59:54,YZ,None,
,,,,,,practice,0,22,3,303,19,X,0,right,0.9604894990043249,1,0,,,,,,,,,,,,,,,,,,,,,1,,,,,,,,,,,,,,,,,,,,,,,,,,,,,,,,,,,,,,,,,,,,,,87,158866,18,Female,1,2024/03/13_15:59:54,YZ,None,
,,,,,,practice,0,22,3,303,,,,,,,,0.7019230769230769,0.5,0.23076923076923078,0.7692307692307693,0.0,0.7692307692307692,0.789947151050958,3,3,0,0,0,10,13,6,13,0,,,,1,,,,,,,,,,,,,,,,,,,,,,,,,,,,,,,,,,,,,,,,,,,,,,87,158866,18,Female,1,2024/03/13_15:59:54,YZ,None,
,,,,,,practice,0,36,3,303,1,S,0,right,0.48590836398943793,1,0,,,,,,,,,,,,,,,,,,,,,1,,,,,,,,,,,,,,,,,,,,,,,,,,,,,,,,,,,,,,,,,,,,,,87,158866,18,Female,1,2024/03/13_15:59:54,YZ,None,
,,,,,,practice,0,36,3,303,2,C,0,right,0.5035281719901832,1,0,,,,,,,,,,,,,,,,,,,,,1,,,,,,,,,,,,,,,,,,,,,,,,,,,,,,,,,,,,,,,,,,,,,,87,158866,18,Female,1,2024/03/13_15:59:54,YZ,None,
,,,,,,practice,0,36,3,303,3,X,0,right,0.5592505890090251,1,0,,,,,,,,,,,,,,,,,,,,,1,,,,,,,,,,,,,,,,,,,,,,,,,,,,,,,,,,,,,,,,,,,,,,87,158866,18,Female,1,2024/03/13_15:59:54,YZ,None,
,,,,,,practice,0,36,3,303,4,S,1,left,0.6004044110013638,1,0,,,,,,,,,,,,,,,,,,,,,1,,,,,,,,,,,,,,,,,,,,,,,,,,,,,,,,,,,,,,,,,,,,,,87,158866,18,Female,1,2024/03/13_15:59:54,YZ,None,
,,,,,,practice,0,36,3,303,5,Q,0,right,0.7549665469996398,1,0,,,,,,,,,,,,,,,,,,,,,1,,,,,,,,,,,,,,,,,,,,,,,,,,,,,,,,,,,,,,,,,,,,,,87,158866,18,Female,1,2024/03/13_15:59:54,YZ,None,
,,,,,,practice,0,36,3,303,6,X,1,right,0.381061337000574,0,0,,,,,,,,,,,,,,,,,,,,,1,,,,,,,,,,,,,,,,,,,,,,,,,,,,,,,,,,,,,,,,,,,,,,87,158866,18,Female,1,2024/03/13_15:59:54,YZ,None,
,,,,,,practice,0,36,3,303,7,J,0,right,0.8100498349958798,1,0,,,,,,,,,,,,,,,,,,,,,1,,,,,,,,,,,,,,,,,,,,,,,,,,,,,,,,,,,,,,,,,,,,,,87,158866,18,Female,1,2024/03/13_15:59:54,YZ,None,
,,,,,,practice,0,36,3,303,8,J,0,right,1.288717520001228,1,0,,,,,,,,,,,,,,,,,,,,,1,,,,,,,,,,,,,,,,,,,,,,,,,,,,,,,,,,,,,,,,,,,,,,87,158866,18,Female,1,2024/03/13_15:59:54,YZ,None,
,,,,,,practice,0,36,3,303,9,V,0,right,1.209883167000953,1,0,,,,,,,,,,,,,,,,,,,,,1,,,,,,,,,,,,,,,,,,,,,,,,,,,,,,,,,,,,,,,,,,,,,,87,158866,18,Female,1,2024/03/13_15:59:54,YZ,None,
,,,,,,practice,0,36,3,303,10,X,0,left,0.45815364600275643,0,0,,,,,,,,,,,,,,,,,,,,,1,,,,,,,,,,,,,,,,,,,,,,,,,,,,,,,,,,,,,,,,,,,,,,87,158866,18,Female,1,2024/03/13_15:59:54,YZ,None,
,,,,,,practice,0,36,3,303,11,N,0,right,2.1259358450042782,1,0,,,,,,,,,,,,,,,,,,,,,1,,,,,,,,,,,,,,,,,,,,,,,,,,,,,,,,,,,,,,,,,,,,,,87,158866,18,Female,1,2024/03/13_15:59:54,YZ,None,
,,,,,,practice,0,36,3,303,12,V,1,left,1.0440377779887058,1,0,,,,,,,,,,,,,,,,,,,,,1,,,,,,,,,,,,,,,,,,,,,,,,,,,,,,,,,,,,,,,,,,,,,,87,158866,18,Female,1,2024/03/13_15:59:54,YZ,None,
,,,,,,practice,0,36,3,303,13,X,1,right,0.9648811939987354,0,0,,,,,,,,,,,,,,,,,,,,,1,,,,,,,,,,,,,,,,,,,,,,,,,,,,,,,,,,,,,,,,,,,,,,87,158866,18,Female,1,2024/03/13_15:59:54,YZ,None,
,,,,,,practice,0,36,3,303,14,F,0,left,1.4857707650080556,0,0,,,,,,,,,,,,,,,,,,,,,1,,,,,,,,,,,,,,,,,,,,,,,,,,,,,,,,,,,,,,,,,,,,,,87,158866,18,Female,1,2024/03/13_15:59:54,YZ,None,
,,,,,,practice,0,36,3,303,15,Q,0,right,0.5810302449972369,1,0,,,,,,,,,,,,,,,,,,,,,1,,,,,,,,,,,,,,,,,,,,,,,,,,,,,,,,,,,,,,,,,,,,,,87,158866,18,Female,1,2024/03/13_15:59:54,YZ,None,
,,,,,,practice,0,36,3,303,16,S,0,right,0.7854922300030012,1,0,,,,,,,,,,,,,,,,,,,,,1,,,,,,,,,,,,,,,,,,,,,,,,,,,,,,,,,,,,,,,,,,,,,,87,158866,18,Female,1,2024/03/13_15:59:54,YZ,None,
,,,,,,practice,0,36,3,303,17,Q,0,right,0.9039284839964239,1,0,,,,,,,,,,,,,,,,,,,,,1,,,,,,,,,,,,,,,,,,,,,,,,,,,,,,,,,,,,,,,,,,,,,,87,158866,18,Female,1,2024/03/13_15:59:54,YZ,None,
,,,,,,practice,0,36,3,303,18,Q,1,left,0.6712558190047275,1,0,,,,,,,,,,,,,,,,,,,,,1,,,,,,,,,,,,,,,,,,,,,,,,,,,,,,,,,,,,,,,,,,,,,,87,158866,18,Female,1,2024/03/13_15:59:54,YZ,None,
,,,,,,practice,0,36,3,303,19,F,0,right,0.5129756789974635,1,0,,,,,,,,,,,,,,,,,,,,,1,,,,,,,,,,,,,,,,,,,,,,,,,,,,,,,,,,,,,,,,,,,,,,87,158866,18,Female,1,2024/03/13_15:59:54,YZ,None,
,,,,,,practice,0,36,3,303,,,,,,,,0.8071428571428572,0.6,0.14285714285714285,0.8571428571428571,0.0,0.8571428571428572,0.8488016645784037,3,2,0,0,0,12,15,5,14,0,,,,1,,,,,,,,,,,,,,,,,,,,,,,,,,,,,,,,,,,,,,,,,,,,,,87,158866,18,Female,1,2024/03/13_15:59:54,YZ,None,
1,./instructions/inst_prac_main/Slide51.png,right,2.5032700300071156,719.6958836410049,722.199153671012,,,,,,,,,,,,,,,,,,,,,,,,,,,,,,,,,1,,,,,,,,,,,,,,,,,,,,,,,,,,,,,,,,,,,,,,,,,,,,,,87,158866,18,Female,1,2024/03/13_15:59:54,YZ,None,
2,./instructions/inst_prac_main/Slide52.png,right,7.106594275988755,722.2286148460116,729.3352091220004,,,,,,,,,,,,,,,,,,,,,,,,,,,,,,,,,1,,,,,,,,,,,,,,,,,,,,,,,,,,,,,,,,,,,,,,,,,,,,,,87,158866,18,Female,1,2024/03/13_15:59:54,YZ,None,
1,./instructions/inst_prac_main/Slide53.png,left,3.52252800099086,729.3648778540082,732.8874058549991,,,,,,,,,,,,,,,,,,,,,,,,,,,,,,,,,1,,,,,,,,,,,,,,,,,,,,,,,,,,,,,,,,,,,,,,,,,,,,,,87,158866,18,Female,1,2024/03/13_15:59:54,YZ,None,
0,./instructions/inst_prac_main/Slide52.png,left,0.20056392900005449,732.9112059960025,733.1117699250026,,,,,,,,,,,,,,,,,,,,,,,,,,,,,,,,,1,,,,,,,,,,,,,,,,,,,,,,,,,,,,,,,,,,,,,,,,,,,,,,87,158866,18,Female,1,2024/03/13_15:59:54,YZ,None,
-1,./instructions/inst_prac_main/Slide51.png,left,0.2004694030038081,733.1313667140057,733.3318361170095,,,,,,,,,,,,,,,,,,,,,,,,,,,,,,,,,1,,,,,,,,,,,,,,,,,,,,,,,,,,,,,,,,,,,,,,,,,,,,,,87,158866,18,Female,1,2024/03/13_15:59:54,YZ,None,
-2,./instructions/inst_prac_main/Slide54.png,left,5.524947653000709,733.3543747150106,738.8793223680113,,,,,,,,,,,,,,,,,,,,,,,,,,,,,,,,,1,,,,,,,,,,,,,,,,,,,,,,,,,,,,,,,,,,,,,,,,,,,,,,87,158866,18,Female,1,2024/03/13_15:59:54,YZ,None,
-1,./instructions/inst_prac_main/Slide53.png,right,5.048505015001865,738.9028571420058,743.9513621570077,,,,,,,,,,,,,,,,,,,,,,,,,,,,,,,,,1,,,,,,,,,,,,,,,,,,,,,,,,,,,,,,,,,,,,,,,,,,,,,,87,158866,18,Female,1,2024/03/13_15:59:54,YZ,None,
0,./instructions/inst_prac_main/Slide54.png,right,4.676506013987819,743.978720449013,748.6552264630009,,,,,,,,,,,,,,,,,,,,,,,,,,,,,,,,,1,,,,,,,,,,,,,,,,,,,,,,,,,,,,,,,,,,,,,,,,,,,,,,87,158866,18,Female,1,2024/03/13_15:59:54,YZ,None,
1,./instructions/inst_prac_main/Slide51.png,right,4.0944896540022455,748.6806173390069,752.7751069930091,,,,,,,,,,,,,,,,,,,,,,,,,,,,,,,,,1,,,,,,,,,,,,,,,,,,,,,,,,,,,,,,,,,,,,,,,,,,,,,,87,158866,18,Female,1,2024/03/13_15:59:54,YZ,None,
2,./instructions/inst_prac_main/Slide52.png,right,30.621138781003538,752.8022312910034,783.423370072007,,,,,,,,,,,,,,,,,,,,,,,,,,,,,,,,,1,,,,,,,,,,,,,,,,,,,,,,,,,,,,,,,,,,,,,,,,,,,,,,87,158866,18,Female,1,2024/03/13_15:59:54,YZ,None,
1,./instructions/inst_prac_main/Slide53.png,left,2.666736799001228,783.4527832450112,786.1195200440125,,,,,,,,,,,,,,,,,,,,,,,,,,,,,,,,,1,,,,,,,,,,,,,,,,,,,,,,,,,,,,,,,,,,,,,,,,,,,,,,87,158866,18,Female,1,2024/03/13_15:59:54,YZ,None,
0,./instructions/inst_prac_main/Slide52.png,left,0.20040801299910527,786.1423984310095,786.3428064440086,,,,,,,,,,,,,,,,,,,,,,,,,,,,,,,,,1,,,,,,,,,,,,,,,,,,,,,,,,,,,,,,,,,,,,,,,,,,,,,,87,158866,18,Female,1,2024/03/13_15:59:54,YZ,None,
-1,./instructions/inst_prac_main/Slide51.png,left,0.2003400070097996,786.3626874879992,786.563027495009,,,,,,,,,,,,,,,,,,,,,,,,,,,,,,,,,1,,,,,,,,,,,,,,,,,,,,,,,,,,,,,,,,,,,,,,,,,,,,,,87,158866,18,Female,1,2024/03/13_15:59:54,YZ,None,
0,./instructions/inst_prac_main/Slide54.png,right,0.6997530520020518,786.5874413359998,787.2871943880018,,,,,,,,,,,,,,,,,,,,,,,,,,,,,,,,,1,,,,,,,,,,,,,,,,,,,,,,,,,,,,,,,,,,,,,,,,,,,,,,87,158866,18,Female,1,2024/03/13_15:59:54,YZ,None,
1,./instructions/inst_prac_main/Slide51.png,right,1.9289995099970838,787.3103053820087,789.2393048920057,,,,,,,,,,,,,,,,,,,,,,,,,,,,,,,,,1,,,,,,,,,,,,,,,,,,,,,,,,,,,,,,,,,,,,,,,,,,,,,,87,158866,18,Female,1,2024/03/13_15:59:54,YZ,None,
2,./instructions/inst_prac_main/Slide52.png,right,0.6349491349974414,789.2683284130035,789.9032775480009,,,,,,,,,,,,,,,,,,,,,,,,,,,,,,,,,1,,,,,,,,,,,,,,,,,,,,,,,,,,,,,,,,,,,,,,,,,,,,,,87,158866,18,Female,1,2024/03/13_15:59:54,YZ,None,
3,./instructions/inst_prac_main/Slide53.png,right,0.9418064740020782,789.9295922400051,790.8713987140072,,,,,,,,,,,,,,,,,,,,,,,,,,,,,,,,,1,,,,,,,,,,,,,,,,,,,,,,,,,,,,,,,,,,,,,,,,,,,,,,87,158866,18,Female,1,2024/03/13_15:59:54,YZ,None,
4,./instructions/inst_prac_main/Slide54.png,right,1.5819150280003669,790.897401004011,792.4793160320114,,,,,,,,,,,,,,,,,,,,,,,,,,,,,,,,,1,,,,,,,,,,,,,,,,,,,,,,,,,,,,,,,,,,,,,,,,,,,,,,87,158866,18,Female,1,2024/03/13_15:59:54,YZ,None,
,,,,,,practice_main,0,1,1,303,1,V,0,right,0.9302351889928104,1,0,,,,,,,,,,,,,,,,,,,,,1,,,,,,,,,,,,,,,,,,,,,,,,,,,,,,,,,,,,,,,,,,,,,,87,158866,18,Female,1,2024/03/13_15:59:54,YZ,None,
,,,,,,practice_main,0,1,1,303,2,V,1,left,0.43131518800510094,1,0,,,,,,,,,,,,,,,,,,,,,1,,,,,,,,,,,,,,,,,,,,,,,,,,,,,,,,,,,,,,,,,,,,,,87,158866,18,Female,1,2024/03/13_15:59:54,YZ,None,
,,,,,,practice_main,0,1,1,303,3,J,0,right,0.48862663700128905,1,0,,,,,,,,,,,,,,,,,,,,,1,,,,,,,,,,,,,,,,,,,,,,,,,,,,,,,,,,,,,,,,,,,,,,87,158866,18,Female,1,2024/03/13_15:59:54,YZ,None,
,,,,,,practice_main,0,1,1,303,4,X,0,right,0.3880651859944919,1,0,,,,,,,,,,,,,,,,,,,,,1,,,,,,,,,,,,,,,,,,,,,,,,,,,,,,,,,,,,,,,,,,,,,,87,158866,18,Female,1,2024/03/13_15:59:54,YZ,None,
,,,,,,practice_main,0,1,1,303,5,X,1,left,0.41738095998880453,1,0,,,,,,,,,,,,,,,,,,,,,1,,,,,,,,,,,,,,,,,,,,,,,,,,,,,,,,,,,,,,,,,,,,,,87,158866,18,Female,1,2024/03/13_15:59:54,YZ,None,
,,,,,,practice_main,0,1,1,303,6,Q,0,right,0.4790922530082753,1,0,,,,,,,,,,,,,,,,,,,,,1,,,,,,,,,,,,,,,,,,,,,,,,,,,,,,,,,,,,,,,,,,,,,,87,158866,18,Female,1,2024/03/13_15:59:54,YZ,None,
,,,,,,practice_main,0,1,1,303,7,C,0,right,0.4492187440046109,1,0,,,,,,,,,,,,,,,,,,,,,1,,,,,,,,,,,,,,,,,,,,,,,,,,,,,,,,,,,,,,,,,,,,,,87,158866,18,Female,1,2024/03/13_15:59:54,YZ,None,
,,,,,,practice_main,0,1,1,303,8,F,0,right,0.431297192000784,1,0,,,,,,,,,,,,,,,,,,,,,1,,,,,,,,,,,,,,,,,,,,,,,,,,,,,,,,,,,,,,,,,,,,,,87,158866,18,Female,1,2024/03/13_15:59:54,YZ,None,
,,,,,,practice_main,0,1,1,303,9,S,0,right,0.5245441370061599,1,0,,,,,,,,,,,,,,,,,,,,,1,,,,,,,,,,,,,,,,,,,,,,,,,,,,,,,,,,,,,,,,,,,,,,87,158866,18,Female,1,2024/03/13_15:59:54,YZ,None,
,,,,,,practice_main,0,1,1,303,10,J,0,right,0.47899088899430353,1,0,,,,,,,,,,,,,,,,,,,,,1,,,,,,,,,,,,,,,,,,,,,,,,,,,,,,,,,,,,,,,,,,,,,,87,158866,18,Female,1,2024/03/13_15:59:54,YZ,None,
,,,,,,practice_main,0,1,1,303,11,J,1,left,0.37258881200978067,1,0,,,,,,,,,,,,,,,,,,,,,1,,,,,,,,,,,,,,,,,,,,,,,,,,,,,,,,,,,,,,,,,,,,,,87,158866,18,Female,1,2024/03/13_15:59:54,YZ,None,
,,,,,,practice_main,0,1,1,303,12,X,0,right,0.4840523390012095,1,0,,,,,,,,,,,,,,,,,,,,,1,,,,,,,,,,,,,,,,,,,,,,,,,,,,,,,,,,,,,,,,,,,,,,87,158866,18,Female,1,2024/03/13_15:59:54,YZ,None,
,,,,,,practice_main,0,1,1,303,13,V,0,right,0.7884503219975159,1,0,,,,,,,,,,,,,,,,,,,,,1,,,,,,,,,,,,,,,,,,,,,,,,,,,,,,,,,,,,,,,,,,,,,,87,158866,18,Female,1,2024/03/13_15:59:54,YZ,None,
,,,,,,practice_main,0,1,1,303,14,J,0,right,0.6913324009947246,1,0,,,,,,,,,,,,,,,,,,,,,1,,,,,,,,,,,,,,,,,,,,,,,,,,,,,,,,,,,,,,,,,,,,,,87,158866,18,Female,1,2024/03/13_15:59:54,YZ,None,
,,,,,,practice_main,0,1,1,303,15,J,1,left,0.5709145410073688,1,0,,,,,,,,,,,,,,,,,,,,,1,,,,,,,,,,,,,,,,,,,,,,,,,,,,,,,,,,,,,,,,,,,,,,87,158866,18,Female,1,2024/03/13_15:59:54,YZ,None,
,,,,,,practice_main,0,1,1,303,16,S,0,right,0.2508560259884689,1,0,,,,,,,,,,,,,,,,,,,,,1,,,,,,,,,,,,,,,,,,,,,,,,,,,,,,,,,,,,,,,,,,,,,,87,158866,18,Female,1,2024/03/13_15:59:54,YZ,None,
,,,,,,practice_main,0,1,1,303,17,S,1,left,0.46359572300571017,1,0,,,,,,,,,,,,,,,,,,,,,1,,,,,,,,,,,,,,,,,,,,,,,,,,,,,,,,,,,,,,,,,,,,,,87,158866,18,Female,1,2024/03/13_15:59:54,YZ,None,
,,,,,,practice_main,0,1,1,303,18,X,0,right,0.2764493440045044,1,0,,,,,,,,,,,,,,,,,,,,,1,,,,,,,,,,,,,,,,,,,,,,,,,,,,,,,,,,,,,,,,,,,,,,87,158866,18,Female,1,2024/03/13_15:59:54,YZ,None,
,,,,,,practice_main,0,1,1,303,19,V,0,right,0.37342988001182675,1,0,,,,,,,,,,,,,,,,,,,,,1,,,,,,,,,,,,,,,,,,,,,,,,,,,,,,,,,,,,,,,,,,,,,,87,158866,18,Female,1,2024/03/13_15:59:54,YZ,None,
,,,,,,practice_main,0,1,1,303,,,,,,,,1.0,1.0,0.0,1.0,0.0,1.0,0.48897030331672314,5,0,0,0,0,14,19,5,14,0,,,,1,,,,,,,,,,,,,,,,,,,,,,,,,,,,,,,,,,,,,,,,,,,,,,87,158866,18,Female,1,2024/03/13_15:59:54,YZ,None,
,,,,,240313_162817,PRACTICE,0,1,1,303,,,,,,,,,,,,,,,,,,,,,,,,,,,,1,12,2,1,cue1.png,easy,A,68,0.8724242890020832,0,803.6170690360013,804.5079564010084,,,,,,,,,,,,,,,,,,,,,,,,,,,,,,,,,,,87,158866,18,Female,1,2024/03/13_15:59:54,YZ,None,
,,,,,,practice_main,0,2,1,303,1,F,0,right,0.8505520350008737,1,0,,,,,,,,,,,,,,,,,,,,,1,,,,,,,,,,,,,,,,,,,,,,,,,,,,,,,,,,,,,,,,,,,,,,87,158866,18,Female,1,2024/03/13_15:59:54,YZ,None,
,,,,,,practice_main,0,2,1,303,2,C,0,right,0.5586404659989057,1,0,,,,,,,,,,,,,,,,,,,,,1,,,,,,,,,,,,,,,,,,,,,,,,,,,,,,,,,,,,,,,,,,,,,,87,158866,18,Female,1,2024/03/13_15:59:54,YZ,None,
,,,,,,practice_main,0,2,1,303,3,J,0,right,0.6926461519906297,1,0,,,,,,,,,,,,,,,,,,,,,1,,,,,,,,,,,,,,,,,,,,,,,,,,,,,,,,,,,,,,,,,,,,,,87,158866,18,Female,1,2024/03/13_15:59:54,YZ,None,
,,,,,,practice_main,0,2,1,303,4,Q,0,right,0.495162145991344,1,0,,,,,,,,,,,,,,,,,,,,,1,,,,,,,,,,,,,,,,,,,,,,,,,,,,,,,,,,,,,,,,,,,,,,87,158866,18,Female,1,2024/03/13_15:59:54,YZ,None,
,,,,,,practice_main,0,2,1,303,5,Q,1,left,0.36491951400239486,1,0,,,,,,,,,,,,,,,,,,,,,1,,,,,,,,,,,,,,,,,,,,,,,,,,,,,,,,,,,,,,,,,,,,,,87,158866,18,Female,1,2024/03/13_15:59:54,YZ,None,
,,,,,,practice_main,0,2,1,303,6,F,0,right,0.5120292259962298,1,0,,,,,,,,,,,,,,,,,,,,,1,,,,,,,,,,,,,,,,,,,,,,,,,,,,,,,,,,,,,,,,,,,,,,87,158866,18,Female,1,2024/03/13_15:59:54,YZ,None,
,,,,,,practice_main,0,2,1,303,7,N,0,right,0.38477578898891807,1,0,,,,,,,,,,,,,,,,,,,,,1,,,,,,,,,,,,,,,,,,,,,,,,,,,,,,,,,,,,,,,,,,,,,,87,158866,18,Female,1,2024/03/13_15:59:54,YZ,None,
,,,,,,practice_main,0,2,1,303,8,N,1,left,0.384446306998143,1,0,,,,,,,,,,,,,,,,,,,,,1,,,,,,,,,,,,,,,,,,,,,,,,,,,,,,,,,,,,,,,,,,,,,,87,158866,18,Female,1,2024/03/13_15:59:54,YZ,None,
,,,,,,practice_main,0,2,1,303,9,F,0,right,0.523794075998012,1,0,,,,,,,,,,,,,,,,,,,,,1,,,,,,,,,,,,,,,,,,,,,,,,,,,,,,,,,,,,,,,,,,,,,,87,158866,18,Female,1,2024/03/13_15:59:54,YZ,None,
,,,,,,practice_main,0,2,1,303,10,N,0,right,0.7017863550136099,1,0,,,,,,,,,,,,,,,,,,,,,1,,,,,,,,,,,,,,,,,,,,,,,,,,,,,,,,,,,,,,,,,,,,,,87,158866,18,Female,1,2024/03/13_15:59:54,YZ,None,
,,,,,,practice_main,0,2,1,303,11,C,0,right,0.5565587150049396,1,0,,,,,,,,,,,,,,,,,,,,,1,,,,,,,,,,,,,,,,,,,,,,,,,,,,,,,,,,,,,,,,,,,,,,87,158866,18,Female,1,2024/03/13_15:59:54,YZ,None,
,,,,,,practice_main,0,2,1,303,12,J,0,right,0.42909276801219676,1,0,,,,,,,,,,,,,,,,,,,,,1,,,,,,,,,,,,,,,,,,,,,,,,,,,,,,,,,,,,,,,,,,,,,,87,158866,18,Female,1,2024/03/13_15:59:54,YZ,None,
,,,,,,practice_main,0,2,1,303,13,J,1,left,0.5261137210036395,1,0,,,,,,,,,,,,,,,,,,,,,1,,,,,,,,,,,,,,,,,,,,,,,,,,,,,,,,,,,,,,,,,,,,,,87,158866,18,Female,1,2024/03/13_15:59:54,YZ,None,
,,,,,,practice_main,0,2,1,303,14,S,0,right,0.26568413399218116,1,0,,,,,,,,,,,,,,,,,,,,,1,,,,,,,,,,,,,,,,,,,,,,,,,,,,,,,,,,,,,,,,,,,,,,87,158866,18,Female,1,2024/03/13_15:59:54,YZ,None,
,,,,,,practice_main,0,2,1,303,15,F,0,right,0.3046628649899503,1,0,,,,,,,,,,,,,,,,,,,,,1,,,,,,,,,,,,,,,,,,,,,,,,,,,,,,,,,,,,,,,,,,,,,,87,158866,18,Female,1,2024/03/13_15:59:54,YZ,None,
,,,,,,practice_main,0,2,1,303,16,J,0,right,0.33093688599183224,1,0,,,,,,,,,,,,,,,,,,,,,1,,,,,,,,,,,,,,,,,,,,,,,,,,,,,,,,,,,,,,,,,,,,,,87,158866,18,Female,1,2024/03/13_15:59:54,YZ,None,
,,,,,,practice_main,0,2,1,303,17,J,1,left,0.5125827860028949,1,0,,,,,,,,,,,,,,,,,,,,,1,,,,,,,,,,,,,,,,,,,,,,,,,,,,,,,,,,,,,,,,,,,,,,87,158866,18,Female,1,2024/03/13_15:59:54,YZ,None,
,,,,,,practice_main,0,2,1,303,18,F,0,right,0.21859263400256168,1,0,,,,,,,,,,,,,,,,,,,,,1,,,,,,,,,,,,,,,,,,,,,,,,,,,,,,,,,,,,,,,,,,,,,,87,158866,18,Female,1,2024/03/13_15:59:54,YZ,None,
,,,,,,practice_main,0,2,1,303,19,F,1,right,0.1916743340116227,0,0,,,,,,,,,,,,,,,,,,,,,1,,,,,,,,,,,,,,,,,,,,,,,,,,,,,,,,,,,,,,,,,,,,,,87,158866,18,Female,1,2024/03/13_15:59:54,YZ,None,
,,,,,,practice_main,0,2,1,303,,,,,,,,0.95,0.8,0.0,1.0,0.0,1.0,0.4634026794205726,4,0,0,0,0,14,18,5,14,0,,,,1,,,,,,,,,,,,,,,,,,,,,,,,,,,,,,,,,,,,,,,,,,,,,,87,158866,18,Female,1,2024/03/13_15:59:54,YZ,None,
,,,,,240313_162846,PRACTICE,0,2,1,303,,,,,,,,,,,,,,,,,,,,,,,,,,,,1,16,3,2,cue1.png,easy,A,60,1.764739190999535,0,832.9134442180075,834.6908452550124,,,,,,,,,,,,,,,,,,,,,,,,,,,,,,,,,,,87,158866,18,Female,1,2024/03/13_15:59:54,YZ,None,
,,,,,,practice_main,0,3,1,303,1,V,0,right,0.43318344799627084,1,0,,,,,,,,,,,,,,,,,,,,,1,,,,,,,,,,,,,,,,,,,,,,,,,,,,,,,,,,,,,,,,,,,,,,87,158866,18,Female,1,2024/03/13_15:59:54,YZ,None,
,,,,,,practice_main,0,3,1,303,2,N,0,right,0.3774157750012819,1,0,,,,,,,,,,,,,,,,,,,,,1,,,,,,,,,,,,,,,,,,,,,,,,,,,,,,,,,,,,,,,,,,,,,,87,158866,18,Female,1,2024/03/13_15:59:54,YZ,None,
,,,,,,practice_main,0,3,1,303,3,N,1,left,0.31683025699749123,1,0,,,,,,,,,,,,,,,,,,,,,1,,,,,,,,,,,,,,,,,,,,,,,,,,,,,,,,,,,,,,,,,,,,,,87,158866,18,Female,1,2024/03/13_15:59:54,YZ,None,
,,,,,,practice_main,0,3,1,303,4,X,0,right,0.3274855580093572,1,0,,,,,,,,,,,,,,,,,,,,,1,,,,,,,,,,,,,,,,,,,,,,,,,,,,,,,,,,,,,,,,,,,,,,87,158866,18,Female,1,2024/03/13_15:59:54,YZ,None,
,,,,,,practice_main,0,3,1,303,5,J,0,right,0.39307746800477616,1,0,,,,,,,,,,,,,,,,,,,,,1,,,,,,,,,,,,,,,,,,,,,,,,,,,,,,,,,,,,,,,,,,,,,,87,158866,18,Female,1,2024/03/13_15:59:54,YZ,None,
,,,,,,practice_main,0,3,1,303,6,J,1,right,0.3536841400054982,0,0,,,,,,,,,,,,,,,,,,,,,1,,,,,,,,,,,,,,,,,,,,,,,,,,,,,,,,,,,,,,,,,,,,,,87,158866,18,Female,1,2024/03/13_15:59:54,YZ,None,
,,,,,,practice_main,0,3,1,303,7,C,0,right,0.5925868369959062,1,0,,,,,,,,,,,,,,,,,,,,,1,,,,,,,,,,,,,,,,,,,,,,,,,,,,,,,,,,,,,,,,,,,,,,87,158866,18,Female,1,2024/03/13_15:59:54,YZ,None,
,,,,,,practice_main,0,3,1,303,8,Q,0,right,0.454900976998033,1,0,,,,,,,,,,,,,,,,,,,,,1,,,,,,,,,,,,,,,,,,,,,,,,,,,,,,,,,,,,,,,,,,,,,,87,158866,18,Female,1,2024/03/13_15:59:54,YZ,None,
,,,,,,practice_main,0,3,1,303,9,V,0,right,0.4652894319879124,1,0,,,,,,,,,,,,,,,,,,,,,1,,,,,,,,,,,,,,,,,,,,,,,,,,,,,,,,,,,,,,,,,,,,,,87,158866,18,Female,1,2024/03/13_15:59:54,YZ,None,
,,,,,,practice_main,0,3,1,303,10,Q,0,right,0.6011897990101716,1,0,,,,,,,,,,,,,,,,,,,,,1,,,,,,,,,,,,,,,,,,,,,,,,,,,,,,,,,,,,,,,,,,,,,,87,158866,18,Female,1,2024/03/13_15:59:54,YZ,None,
,,,,,,practice_main,0,3,1,303,11,Q,1,left,0.4646303629997419,1,0,,,,,,,,,,,,,,,,,,,,,1,,,,,,,,,,,,,,,,,,,,,,,,,,,,,,,,,,,,,,,,,,,,,,87,158866,18,Female,1,2024/03/13_15:59:54,YZ,None,
