Instruction,Stimulus,Key,RT,START,END,Phase,Block,TrialN,NbackLevel,ISI,LetterN,Letter,Letter_isSame,Letter_Resp,Letter_RT,Letter_Accuracy,Letter_Timeout,Trial_A_measure,Trial_HR,Trial_FAR,Trial_CDR,Trial_MSR,Trial_ACC,Trial_RT,Trial_HitsCount,Trial_FAsCount,Trial_SameNoRespCount,Trial_DiffNoRespCount,Trial_NoRespCount,Trial_CDsCount,Trial_CorrectRespCount,Trial_SameLetterCount,Trial_DiffLetterCount,Trial_InvalidLetterCount,TrialCountCali,CaliEnd_A_measure,ISI_calibrated,Run,TrialIndex,TrialNumber_total,TrialNumber_valid,CueLearning,TrialDemandLearning,CueMapping,OnlineRating,OnlineRatingRT,OnlineRatingTimeOut,CueSTART,RatingSTART,OfflineRatingTimePoint,OfflineRatingQuesIndex,CueFigure,TrialDemand,OfflineRating,OfflineRatingRT,CueStart,OfflineRatingStart,PhaseType,CueLeft,CueDemandLeft,CueRight,CueDemandRight,Choice,ChoiceDemand,TaskDemand,ChoiceRT,ChoiceTimeOut,ChoiceSTART,CueCheck,CueDemandCheck,CorrectAnswer,Answer,AnswerDemand,AnswerRT,AnswerACC,AnswerTimeOut,CheckSTART,DemandRatingQuesIndex,QuesTLX,DemandLevel,DemandRating,DemandRatingRT,QuesStart,PID,SONA,Age,Gender,Run,TIME,EXPERIMENTER,frameRate,
1,./instructions/inst_begin/Slide2.png,right,23.910254510992672,0.3493720429978566,24.25962655399053,,,,,,,,,,,,,,,,,,,,,,,,,,,,,,,,,1,,,,,,,,,,,,,,,,,,,,,,,,,,,,,,,,,,,,,,,,,,,,,,52,152194,21,Female,1,2024/02/13_12:14:57,YZ,59.96622750174633,
2,./instructions/inst_begin/Slide3.png,right,7.054463783002575,24.317083128000377,31.37154691100295,,,,,,,,,,,,,,,,,,,,,,,,,,,,,,,,,1,,,,,,,,,,,,,,,,,,,,,,,,,,,,,,,,,,,,,,,,,,,,,,52,152194,21,Female,1,2024/02/13_12:14:57,YZ,59.96622750174633,
3,./instructions/inst_begin/Slide4.png,right,6.903469608005253,31.411937693992513,38.315407301997766,,,,,,,,,,,,,,,,,,,,,,,,,,,,,,,,,1,,,,,,,,,,,,,,,,,,,,,,,,,,,,,,,,,,,,,,,,,,,,,,52,152194,21,Female,1,2024/02/13_12:14:57,YZ,59.96622750174633,
1,./instructions/inst_prac_2/Slide6.png,right,8.804128246003529,38.42337966899504,47.22750791499857,,,,,,,,,,,,,,,,,,,,,,,,,,,,,,,,,1,,,,,,,,,,,,,,,,,,,,,,,,,,,,,,,,,,,,,,,,,,,,,,52,152194,21,Female,1,2024/02/13_12:14:57,YZ,59.96622750174633,
2,./instructions/inst_prac_2/Slide7.png,right,16.624495272000786,47.298924583999906,63.92341985600069,,,,,,,,,,,,,,,,,,,,,,,,,,,,,,,,,1,,,,,,,,,,,,,,,,,,,,,,,,,,,,,,,,,,,,,,,,,,,,,,52,152194,21,Female,1,2024/02/13_12:14:57,YZ,59.96622750174633,
3,./instructions/inst_prac_2/Slide8.png,right,9.560099839989562,64.01148781800293,73.5715876579925,,,,,,,,,,,,,,,,,,,,,,,,,,,,,,,,,1,,,,,,,,,,,,,,,,,,,,,,,,,,,,,,,,,,,,,,,,,,,,,,52,152194,21,Female,1,2024/02/13_12:14:57,YZ,59.96622750174633,
4,./instructions/inst_prac_2/Slide9.png,right,3.7289359540009173,73.63460067698907,77.36353663098998,,,,,,,,,,,,,,,,,,,,,,,,,,,,,,,,,1,,,,,,,,,,,,,,,,,,,,,,,,,,,,,,,,,,,,,,,,,,,,,,52,152194,21,Female,1,2024/02/13_12:14:57,YZ,59.96622750174633,
5,./instructions/inst_prac_2/Slide10.png,right,1.839468215010129,77.41999085499265,79.25945907000278,,,,,,,,,,,,,,,,,,,,,,,,,,,,,,,,,1,,,,,,,,,,,,,,,,,,,,,,,,,,,,,,,,,,,,,,,,,,,,,,52,152194,21,Female,1,2024/02/13_12:14:57,YZ,59.96622750174633,
6,./instructions/inst_prac_2/Slide11.png,right,2.434116223012097,79.50530399999116,81.93942022300325,,,,,,,,,,,,,,,,,,,,,,,,,,,,,,,,,1,,,,,,,,,,,,,,,,,,,,,,,,,,,,,,,,,,,,,,,,,,,,,,52,152194,21,Female,1,2024/02/13_12:14:57,YZ,59.96622750174633,
7,./instructions/inst_prac_2/Slide12.png,right,3.277519814990228,81.99792989400157,85.2754497089918,,,,,,,,,,,,,,,,,,,,,,,,,,,,,,,,,1,,,,,,,,,,,,,,,,,,,,,,,,,,,,,,,,,,,,,,,,,,,,,,52,152194,21,Female,1,2024/02/13_12:14:57,YZ,59.96622750174633,
8,./instructions/inst_prac_2/Slide13.png,right,2.019271455996204,85.37619950399676,87.39547095999296,,,,,,,,,,,,,,,,,,,,,,,,,,,,,,,,,1,,,,,,,,,,,,,,,,,,,,,,,,,,,,,,,,,,,,,,,,,,,,,,52,152194,21,Female,1,2024/02/13_12:14:57,YZ,59.96622750174633,
9,./instructions/inst_prac_2/Slide14.png,right,6.324676910997368,87.45566508799675,93.78034199899412,,,,,,,,,,,,,,,,,,,,,,,,,,,,,,,,,1,,,,,,,,,,,,,,,,,,,,,,,,,,,,,,,,,,,,,,,,,,,,,,52,152194,21,Female,1,2024/02/13_12:14:57,YZ,59.96622750174633,
10,./instructions/inst_prac_2/Slide15.png,right,11.790578967993497,93.84488365300058,105.63546262099408,,,,,,,,,,,,,,,,,,,,,,,,,,,,,,,,,1,,,,,,,,,,,,,,,,,,,,,,,,,,,,,,,,,,,,,,,,,,,,,,52,152194,21,Female,1,2024/02/13_12:14:57,YZ,59.96622750174633,
,,,,,,practice,0,10,2,2583,1,Q,0,right,2.7899669949983945,1,0,,,,,,,,,,,,,,,,,,,,,1,,,,,,,,,,,,,,,,,,,,,,,,,,,,,,,,,,,,,,,,,,,,,,52,152194,21,Female,1,2024/02/13_12:14:57,YZ,59.96622750174633,
,,,,,,practice,0,10,2,2583,2,C,0,right,1.4364094650081825,1,0,,,,,,,,,,,,,,,,,,,,,1,,,,,,,,,,,,,,,,,,,,,,,,,,,,,,,,,,,,,,,,,,,,,,52,152194,21,Female,1,2024/02/13_12:14:57,YZ,59.96622750174633,
,,,,,,practice,0,10,2,2583,3,J,0,right,1.8464474430074915,1,0,,,,,,,,,,,,,,,,,,,,,1,,,,,,,,,,,,,,,,,,,,,,,,,,,,,,,,,,,,,,,,,,,,,,52,152194,21,Female,1,2024/02/13_12:14:57,YZ,59.96622750174633,
,,,,,,practice,0,10,2,2583,4,C,1,left,1.2316654410096817,1,0,,,,,,,,,,,,,,,,,,,,,1,,,,,,,,,,,,,,,,,,,,,,,,,,,,,,,,,,,,,,,,,,,,,,52,152194,21,Female,1,2024/02/13_12:14:57,YZ,59.96622750174633,
,,,,,,practice,0,10,2,2583,5,S,0,right,1.6468859169981442,1,0,,,,,,,,,,,,,,,,,,,,,1,,,,,,,,,,,,,,,,,,,,,,,,,,,,,,,,,,,,,,,,,,,,,,52,152194,21,Female,1,2024/02/13_12:14:57,YZ,59.96622750174633,
,,,,,,practice,0,10,2,2583,6,C,1,left,1.1939608660031809,1,0,,,,,,,,,,,,,,,,,,,,,1,,,,,,,,,,,,,,,,,,,,,,,,,,,,,,,,,,,,,,,,,,,,,,52,152194,21,Female,1,2024/02/13_12:14:57,YZ,59.96622750174633,
,,,,,,practice,0,10,2,2583,,,,,,,,1.0,1.0,0.0,1.0,0.0,1.0,1.6908893545041792,2,0,0,0,0,4,6,2,4,0,,,,1,,,,,,,,,,,,,,,,,,,,,,,,,,,,,,,,,,,,,,,,,,,,,,52,152194,21,Female,1,2024/02/13_12:14:57,YZ,59.96622750174633,
1,./instructions/inst_to_cali/Slide20.png,right,4.012566820005304,122.25485703498998,126.26742385499529,,,,,,,,,,,,,,,,,,,,,,,,,,,,,,,,,1,,,,,,,,,,,,,,,,,,,,,,,,,,,,,,,,,,,,,,,,,,,,,,52,152194,21,Female,1,2024/02/13_12:14:57,YZ,59.96622750174633,
1,./instructions/inst_cali/Slide22.png,right,4.056163336994359,126.33977259299718,130.39593592999154,,,,,,,,,,,,,,,,,,,,,,,,,,,,,,,,,1,,,,,,,,,,,,,,,,,,,,,,,,,,,,,,,,,,,,,,,,,,,,,,52,152194,21,Female,1,2024/02/13_12:14:57,YZ,59.96622750174633,
,,,,,,calibration,0,7,2,583,1,S,0,None,nan,0,1,,,,,,,,,,,,,,,,,,,,,1,,,,,,,,,,,,,,,,,,,,,,,,,,,,,,,,,,,,,,,,,,,,,,52,152194,21,Female,1,2024/02/13_12:14:57,YZ,59.96622750174633,
,,,,,,calibration,0,7,2,583,2,N,0,right,0.4810959809983615,1,0,,,,,,,,,,,,,,,,,,,,,1,,,,,,,,,,,,,,,,,,,,,,,,,,,,,,,,,,,,,,,,,,,,,,52,152194,21,Female,1,2024/02/13_12:14:57,YZ,59.96622750174633,
,,,,,,calibration,0,7,2,583,3,J,0,right,nan,0,1,,,,,,,,,,,,,,,,,,,,,1,,,,,,,,,,,,,,,,,,,,,,,,,,,,,,,,,,,,,,,,,,,,,,52,152194,21,Female,1,2024/02/13_12:14:57,YZ,59.96622750174633,
,,,,,,calibration,0,7,2,583,4,N,1,right,0.6932878360094037,0,0,,,,,,,,,,,,,,,,,,,,,1,,,,,,,,,,,,,,,,,,,,,,,,,,,,,,,,,,,,,,,,,,,,,,52,152194,21,Female,1,2024/02/13_12:14:57,YZ,59.96622750174633,
,,,,,,calibration,0,7,2,583,5,V,0,right,1.3310522999963723,1,0,,,,,,,,,,,,,,,,,,,,,1,,,,,,,,,,,,,,,,,,,,,,,,,,,,,,,,,,,,,,,,,,,,,,52,152194,21,Female,1,2024/02/13_12:14:57,YZ,59.96622750174633,
,,,,,,calibration,0,7,2,583,6,N,1,left,0.2900135810050415,1,0,,,,,,,,,,,,,,,,,,,,,1,,,,,,,,,,,,,,,,,,,,,,,,,,,,,,,,,,,,,,,,,,,,,,52,152194,21,Female,1,2024/02/13_12:14:57,YZ,59.96622750174633,
,,,,,,calibration,0,7,2,583,7,V,1,left,0.3108706779894419,1,0,,,,,,,,,,,,,,,,,,,,,1,,,,,,,,,,,,,,,,,,,,,,,,,,,,,,,,,,,,,,,,,,,,,,52,152194,21,Female,1,2024/02/13_12:14:57,YZ,59.96622750174633,
,,,,,,calibration,0,7,2,583,8,Q,0,left,0.32895876199472696,0,0,,,,,,,,,,,,,,,,,,,,,1,,,,,,,,,,,,,,,,,,,,,,,,,,,,,,,,,,,,,,,,,,,,,,52,152194,21,Female,1,2024/02/13_12:14:57,YZ,59.96622750174633,
,,,,,,calibration,0,7,2,583,9,N,0,left,0.42140742599440273,0,0,,,,,,,,,,,,,,,,,,,,,1,,,,,,,,,,,,,,,,,,,,,,,,,,,,,,,,,,,,,,,,,,,,,,52,152194,21,Female,1,2024/02/13_12:14:57,YZ,59.96622750174633,
,,,,,,calibration,0,7,2,583,10,Q,1,left,0.5258076329919277,1,0,,,,,,,,,,,,,,,,,,,,,1,,,,,,,,,,,,,,,,,,,,,,,,,,,,,,,,,,,,,,,,,,,,,,52,152194,21,Female,1,2024/02/13_12:14:57,YZ,59.96622750174633,
,,,,,,calibration,0,7,2,583,11,X,0,right,0.7691519579966553,1,0,,,,,,,,,,,,,,,,,,,,,1,,,,,,,,,,,,,,,,,,,,,,,,,,,,,,,,,,,,,,,,,,,,,,52,152194,21,Female,1,2024/02/13_12:14:57,YZ,59.96622750174633,
,,,,,,calibration,0,7,2,583,12,J,0,right,0.4973650649917545,1,0,,,,,,,,,,,,,,,,,,,,,1,,,,,,,,,,,,,,,,,,,,,,,,,,,,,,,,,,,,,,,,,,,,,,52,152194,21,Female,1,2024/02/13_12:14:57,YZ,59.96622750174633,
,,,,,,calibration,0,7,2,583,13,S,0,left,0.3891760570113547,0,0,,,,,,,,,,,,,,,,,,,,,1,,,,,,,,,,,,,,,,,,,,,,,,,,,,,,,,,,,,,,,,,,,,,,52,152194,21,Female,1,2024/02/13_12:14:57,YZ,59.96622750174633,
,,,,,,calibration,0,7,2,583,14,J,1,right,0.4375370649941033,0,0,,,,,,,,,,,,,,,,,,,,,1,,,,,,,,,,,,,,,,,,,,,,,,,,,,,,,,,,,,,,,,,,,,,,52,152194,21,Female,1,2024/02/13_12:14:57,YZ,59.96622750174633,
,,,,,,calibration,0,7,2,583,15,Q,0,right,nan,0,1,,,,,,,,,,,,,,,,,,,,,1,,,,,,,,,,,,,,,,,,,,,,,,,,,,,,,,,,,,,,,,,,,,,,52,152194,21,Female,1,2024/02/13_12:14:57,YZ,59.96622750174633,
,,,,,,calibration,0,7,2,583,,,,,,,,0.705,0.6,0.3,0.5714285714285714,0.2,0.49999999999999994,0.5396436951644622,3,3,0,3,3,4,7,5,10,0,,,,1,,,,,,,,,,,,,,,,,,,,,,,,,,,,,,,,,,,,,,,,,,,,,,52,152194,21,Female,1,2024/02/13_12:14:57,YZ,59.96622750174633,
,,,,,,Calibration,0,,2,583,,,,,,,,,,,,,,,,,,,,,,,,,1,,,1,,,,,,,,,,,,,,,,,,,,,,,,,,,,,,,,,,,,,,,,,,,,,,52,152194,21,Female,1,2024/02/13_12:14:57,YZ,59.96622750174633,
,,,,,,calibration,0,6,2,679,1,V,0,right,1.7696810320048826,1,0,,,,,,,,,,,,,,,,,,,,,1,,,,,,,,,,,,,,,,,,,,,,,,,,,,,,,,,,,,,,,,,,,,,,52,152194,21,Female,1,2024/02/13_12:14:57,YZ,59.96622750174633,
,,,,,,calibration,0,6,2,679,2,F,0,right,0.8395096349995583,1,0,,,,,,,,,,,,,,,,,,,,,1,,,,,,,,,,,,,,,,,,,,,,,,,,,,,,,,,,,,,,,,,,,,,,52,152194,21,Female,1,2024/02/13_12:14:57,YZ,59.96622750174633,
,,,,,,calibration,0,6,2,679,3,N,0,right,0.6787445340014528,1,0,,,,,,,,,,,,,,,,,,,,,1,,,,,,,,,,,,,,,,,,,,,,,,,,,,,,,,,,,,,,,,,,,,,,52,152194,21,Female,1,2024/02/13_12:14:57,YZ,59.96622750174633,
,,,,,,calibration,0,6,2,679,4,J,0,left,0.8636415420041885,0,0,,,,,,,,,,,,,,,,,,,,,1,,,,,,,,,,,,,,,,,,,,,,,,,,,,,,,,,,,,,,,,,,,,,,52,152194,21,Female,1,2024/02/13_12:14:57,YZ,59.96622750174633,
,,,,,,calibration,0,6,2,679,5,N,1,right,0.7289545939856907,0,0,,,,,,,,,,,,,,,,,,,,,1,,,,,,,,,,,,,,,,,,,,,,,,,,,,,,,,,,,,,,,,,,,,,,52,152194,21,Female,1,2024/02/13_12:14:57,YZ,59.96622750174633,
,,,,,,calibration,0,6,2,679,6,X,0,right,nan,0,1,,,,,,,,,,,,,,,,,,,,,1,,,,,,,,,,,,,,,,,,,,,,,,,,,,,,,,,,,,,,,,,,,,,,52,152194,21,Female,1,2024/02/13_12:14:57,YZ,59.96622750174633,
,,,,,,calibration,0,6,2,679,7,C,0,right,nan,0,1,,,,,,,,,,,,,,,,,,,,,1,,,,,,,,,,,,,,,,,,,,,,,,,,,,,,,,,,,,,,,,,,,,,,52,152194,21,Female,1,2024/02/13_12:14:57,YZ,59.96622750174633,
,,,,,,calibration,0,6,2,679,8,S,0,right,0.5413446040038252,1,0,,,,,,,,,,,,,,,,,,,,,1,,,,,,,,,,,,,,,,,,,,,,,,,,,,,,,,,,,,,,,,,,,,,,52,152194,21,Female,1,2024/02/13_12:14:57,YZ,59.96622750174633,
,,,,,,calibration,0,6,2,679,9,C,1,right,0.41255649700178765,0,0,,,,,,,,,,,,,,,,,,,,,1,,,,,,,,,,,,,,,,,,,,,,,,,,,,,,,,,,,,,,,,,,,,,,52,152194,21,Female,1,2024/02/13_12:14:57,YZ,59.96622750174633,
,,,,,,calibration,0,6,2,679,10,V,0,right,nan,0,1,,,,,,,,,,,,,,,,,,,,,1,,,,,,,,,,,,,,,,,,,,,,,,,,,,,,,,,,,,,,,,,,,,,,52,152194,21,Female,1,2024/02/13_12:14:57,YZ,59.96622750174633,
,,,,,,calibration,0,6,2,679,11,C,1,right,0.35875689999375027,0,0,,,,,,,,,,,,,,,,,,,,,1,,,,,,,,,,,,,,,,,,,,,,,,,,,,,,,,,,,,,,,,,,,,,,52,152194,21,Female,1,2024/02/13_12:14:57,YZ,59.96622750174633,
,,,,,,calibration,0,6,2,679,12,X,0,right,0.4956715330044972,1,0,,,,,,,,,,,,,,,,,,,,,1,,,,,,,,,,,,,,,,,,,,,,,,,,,,,,,,,,,,,,,,,,,,,,52,152194,21,Female,1,2024/02/13_12:14:57,YZ,59.96622750174633,
,,,,,,calibration,0,6,2,679,13,C,1,left,0.31753315799869597,1,0,,,,,,,,,,,,,,,,,,,,,1,,,,,,,,,,,,,,,,,,,,,,,,,,,,,,,,,,,,,,,,,,,,,,52,152194,21,Female,1,2024/02/13_12:14:57,YZ,59.96622750174633,
,,,,,,calibration,0,6,2,679,14,Q,0,right,0.37296023599628825,1,0,,,,,,,,,,,,,,,,,,,,,1,,,,,,,,,,,,,,,,,,,,,,,,,,,,,,,,,,,,,,,,,,,,,,52,152194,21,Female,1,2024/02/13_12:14:57,YZ,59.96622750174633,
,,,,,,calibration,0,6,2,679,,,,,,,,0.6875,0.25,0.1,0.8571428571428571,0.21428571428571427,0.6857142857142857,0.6708503877267834,1,1,0,3,3,6,7,4,10,0,,,,1,,,,,,,,,,,,,,,,,,,,,,,,,,,,,,,,,,,,,,,,,,,,,,52,152194,21,Female,1,2024/02/13_12:14:57,YZ,59.96622750174633,
,,,,,,Calibration,0,,2,679,,,,,,,,,,,,,,,,,,,,,,,,,2,,,1,,,,,,,,,,,,,,,,,,,,,,,,,,,,,,,,,,,,,,,,,,,,,,52,152194,21,Female,1,2024/02/13_12:14:57,YZ,59.96622750174633,
,,,,,,calibration,0,31,2,788,1,S,0,right,1.5472091010014992,1,0,,,,,,,,,,,,,,,,,,,,,1,,,,,,,,,,,,,,,,,,,,,,,,,,,,,,,,,,,,,,,,,,,,,,52,152194,21,Female,1,2024/02/13_12:14:57,YZ,59.96622750174633,
,,,,,,calibration,0,31,2,788,2,Q,0,right,0.40238775599573273,1,0,,,,,,,,,,,,,,,,,,,,,1,,,,,,,,,,,,,,,,,,,,,,,,,,,,,,,,,,,,,,,,,,,,,,52,152194,21,Female,1,2024/02/13_12:14:57,YZ,59.96622750174633,
,,,,,,calibration,0,31,2,788,3,N,0,right,0.5475703309930395,1,0,,,,,,,,,,,,,,,,,,,,,1,,,,,,,,,,,,,,,,,,,,,,,,,,,,,,,,,,,,,,,,,,,,,,52,152194,21,Female,1,2024/02/13_12:14:57,YZ,59.96622750174633,
,,,,,,calibration,0,31,2,788,4,Q,1,right,0.5641753439995227,0,0,,,,,,,,,,,,,,,,,,,,,1,,,,,,,,,,,,,,,,,,,,,,,,,,,,,,,,,,,,,,,,,,,,,,52,152194,21,Female,1,2024/02/13_12:14:57,YZ,59.96622750174633,
,,,,,,calibration,0,31,2,788,5,C,0,right,0.5249945679970551,1,0,,,,,,,,,,,,,,,,,,,,,1,,,,,,,,,,,,,,,,,,,,,,,,,,,,,,,,,,,,,,,,,,,,,,52,152194,21,Female,1,2024/02/13_12:14:57,YZ,59.96622750174633,
,,,,,,calibration,0,31,2,788,6,V,0,right,0.37545077099639457,1,0,,,,,,,,,,,,,,,,,,,,,1,,,,,,,,,,,,,,,,,,,,,,,,,,,,,,,,,,,,,,,,,,,,,,52,152194,21,Female,1,2024/02/13_12:14:57,YZ,59.96622750174633,
,,,,,,calibration,0,31,2,788,7,C,1,left,0.6316818230116041,1,0,,,,,,,,,,,,,,,,,,,,,1,,,,,,,,,,,,,,,,,,,,,,,,,,,,,,,,,,,,,,,,,,,,,,52,152194,21,Female,1,2024/02/13_12:14:57,YZ,59.96622750174633,
,,,,,,calibration,0,31,2,788,8,J,0,right,0.5133655050012749,1,0,,,,,,,,,,,,,,,,,,,,,1,,,,,,,,,,,,,,,,,,,,,,,,,,,,,,,,,,,,,,,,,,,,,,52,152194,21,Female,1,2024/02/13_12:14:57,YZ,59.96622750174633,
,,,,,,calibration,0,31,2,788,9,F,0,right,0.6085175759944832,1,0,,,,,,,,,,,,,,,,,,,,,1,,,,,,,,,,,,,,,,,,,,,,,,,,,,,,,,,,,,,,,,,,,,,,52,152194,21,Female,1,2024/02/13_12:14:57,YZ,59.96622750174633,
,,,,,,calibration,0,31,2,788,10,J,1,left,0.5106677979929373,1,0,,,,,,,,,,,,,,,,,,,,,1,,,,,,,,,,,,,,,,,,,,,,,,,,,,,,,,,,,,,,,,,,,,,,52,152194,21,Female,1,2024/02/13_12:14:57,YZ,59.96622750174633,
,,,,,,calibration,0,31,2,788,11,F,1,right,0.5131719039927702,0,0,,,,,,,,,,,,,,,,,,,,,1,,,,,,,,,,,,,,,,,,,,,,,,,,,,,,,,,,,,,,,,,,,,,,52,152194,21,Female,1,2024/02/13_12:14:57,YZ,59.96622750174633,
,,,,,,calibration,0,31,2,788,12,V,0,right,0.7445438690047013,1,0,,,,,,,,,,,,,,,,,,,,,1,,,,,,,,,,,,,,,,,,,,,,,,,,,,,,,,,,,,,,,,,,,,,,52,152194,21,Female,1,2024/02/13_12:14:57,YZ,59.96622750174633,
,,,,,,calibration,0,31,2,788,13,Q,0,right,0.4624959650100209,1,0,,,,,,,,,,,,,,,,,,,,,1,,,,,,,,,,,,,,,,,,,,,,,,,,,,,,,,,,,,,,,,,,,,,,52,152194,21,Female,1,2024/02/13_12:14:57,YZ,59.96622750174633,
,,,,,,calibration,0,31,2,788,,,,,,,,0.875,0.5,0.0,1.0,0.0,1.0,0.6112486393070028,2,0,0,0,0,9,11,4,9,0,,,,1,,,,,,,,,,,,,,,,,,,,,,,,,,,,,,,,,,,,,,,,,,,,,,52,152194,21,Female,1,2024/02/13_12:14:57,YZ,59.96622750174633,
,,,,,,Calibration,0,,2,788,,,,,,,,,,,,,,,,,,,,,,,,,3,,,1,,,,,,,,,,,,,,,,,,,,,,,,,,,,,,,,,,,,,,,,,,,,,,52,152194,21,Female,1,2024/02/13_12:14:57,YZ,59.96622750174633,
,,,,,,calibration,0,6,2,679,1,V,0,None,nan,0,1,,,,,,,,,,,,,,,,,,,,,1,,,,,,,,,,,,,,,,,,,,,,,,,,,,,,,,,,,,,,,,,,,,,,52,152194,21,Female,1,2024/02/13_12:14:57,YZ,59.96622750174633,
,,,,,,calibration,0,6,2,679,2,F,0,None,nan,0,1,,,,,,,,,,,,,,,,,,,,,1,,,,,,,,,,,,,,,,,,,,,,,,,,,,,,,,,,,,,,,,,,,,,,52,152194,21,Female,1,2024/02/13_12:14:57,YZ,59.96622750174633,
,,,,,,calibration,0,6,2,679,3,N,0,right,0.6287040879979031,1,0,,,,,,,,,,,,,,,,,,,,,1,,,,,,,,,,,,,,,,,,,,,,,,,,,,,,,,,,,,,,,,,,,,,,52,152194,21,Female,1,2024/02/13_12:14:57,YZ,59.96622750174633,
,,,,,,calibration,0,6,2,679,4,J,0,right,0.3466452769935131,1,0,,,,,,,,,,,,,,,,,,,,,1,,,,,,,,,,,,,,,,,,,,,,,,,,,,,,,,,,,,,,,,,,,,,,52,152194,21,Female,1,2024/02/13_12:14:57,YZ,59.96622750174633,
,,,,,,calibration,0,6,2,679,5,N,1,left,0.8190463689970784,1,0,,,,,,,,,,,,,,,,,,,,,1,,,,,,,,,,,,,,,,,,,,,,,,,,,,,,,,,,,,,,,,,,,,,,52,152194,21,Female,1,2024/02/13_12:14:57,YZ,59.96622750174633,
,,,,,,calibration,0,6,2,679,6,X,0,right,0.424709161001374,1,0,,,,,,,,,,,,,,,,,,,,,1,,,,,,,,,,,,,,,,,,,,,,,,,,,,,,,,,,,,,,,,,,,,,,52,152194,21,Female,1,2024/02/13_12:14:57,YZ,59.96622750174633,
,,,,,,calibration,0,6,2,679,7,C,0,right,0.7756894729973283,1,0,,,,,,,,,,,,,,,,,,,,,1,,,,,,,,,,,,,,,,,,,,,,,,,,,,,,,,,,,,,,,,,,,,,,52,152194,21,Female,1,2024/02/13_12:14:57,YZ,59.96622750174633,
,,,,,,calibration,0,6,2,679,8,S,0,left,0.8981815639999695,0,0,,,,,,,,,,,,,,,,,,,,,1,,,,,,,,,,,,,,,,,,,,,,,,,,,,,,,,,,,,,,,,,,,,,,52,152194,21,Female,1,2024/02/13_12:14:57,YZ,59.96622750174633,
,,,,,,calibration,0,6,2,679,9,C,1,right,0.6084224749938585,0,0,,,,,,,,,,,,,,,,,,,,,1,,,,,,,,,,,,,,,,,,,,,,,,,,,,,,,,,,,,,,,,,,,,,,52,152194,21,Female,1,2024/02/13_12:14:57,YZ,59.96622750174633,
,,,,,,calibration,0,6,2,679,10,V,0,right,nan,0,1,,,,,,,,,,,,,,,,,,,,,1,,,,,,,,,,,,,,,,,,,,,,,,,,,,,,,,,,,,,,,,,,,,,,52,152194,21,Female,1,2024/02/13_12:14:57,YZ,59.96622750174633,
,,,,,,calibration,0,6,2,679,11,C,1,right,0.27133264900476206,0,0,,,,,,,,,,,,,,,,,,,,,1,,,,,,,,,,,,,,,,,,,,,,,,,,,,,,,,,,,,,,,,,,,,,,52,152194,21,Female,1,2024/02/13_12:14:57,YZ,59.96622750174633,
,,,,,,calibration,0,6,2,679,12,X,0,right,nan,0,1,,,,,,,,,,,,,,,,,,,,,1,,,,,,,,,,,,,,,,,,,,,,,,,,,,,,,,,,,,,,,,,,,,,,52,152194,21,Female,1,2024/02/13_12:14:57,YZ,59.96622750174633,
,,,,,,calibration,0,6,2,679,13,C,1,left,0.5139612060011132,1,0,,,,,,,,,,,,,,,,,,,,,1,,,,,,,,,,,,,,,,,,,,,,,,,,,,,,,,,,,,,,,,,,,,,,52,152194,21,Female,1,2024/02/13_12:14:57,YZ,59.96622750174633,
,,,,,,calibration,0,6,2,679,14,Q,0,right,0.7608928109984845,1,0,,,,,,,,,,,,,,,,,,,,,1,,,,,,,,,,,,,,,,,,,,,,,,,,,,,,,,,,,,,,,,,,,,,,52,152194,21,Female,1,2024/02/13_12:14:57,YZ,59.96622750174633,
,,,,,,calibration,0,6,2,679,,,,,,,,0.7999999999999999,0.5,0.1,0.8333333333333334,0.2857142857142857,0.6142857142857143,0.6047585072985384,2,1,0,4,4,5,7,4,10,0,,,,1,,,,,,,,,,,,,,,,,,,,,,,,,,,,,,,,,,,,,,,,,,,,,,52,152194,21,Female,1,2024/02/13_12:14:57,YZ,59.96622750174633,
,,,,,,Calibration,0,,2,679,,,,,,,,,,,,,,,,,,,,,,,,,4,,,1,,,,,,,,,,,,,,,,,,,,,,,,,,,,,,,,,,,,,,,,,,,,,,52,152194,21,Female,1,2024/02/13_12:14:57,YZ,59.96622750174633,
,,,,,,calibration,0,19,2,679,1,V,0,right,1.2295879510056693,1,0,,,,,,,,,,,,,,,,,,,,,1,,,,,,,,,,,,,,,,,,,,,,,,,,,,,,,,,,,,,,,,,,,,,,52,152194,21,Female,1,2024/02/13_12:14:57,YZ,59.96622750174633,
,,,,,,calibration,0,19,2,679,2,C,0,right,0.5323099050001474,1,0,,,,,,,,,,,,,,,,,,,,,1,,,,,,,,,,,,,,,,,,,,,,,,,,,,,,,,,,,,,,,,,,,,,,52,152194,21,Female,1,2024/02/13_12:14:57,YZ,59.96622750174633,
,,,,,,calibration,0,19,2,679,3,V,1,left,0.5928414080117363,1,0,,,,,,,,,,,,,,,,,,,,,1,,,,,,,,,,,,,,,,,,,,,,,,,,,,,,,,,,,,,,,,,,,,,,52,152194,21,Female,1,2024/02/13_12:14:57,YZ,59.96622750174633,
,,,,,,calibration,0,19,2,679,4,N,0,right,0.578199374009273,1,0,,,,,,,,,,,,,,,,,,,,,1,,,,,,,,,,,,,,,,,,,,,,,,,,,,,,,,,,,,,,,,,,,,,,52,152194,21,Female,1,2024/02/13_12:14:57,YZ,59.96622750174633,
,,,,,,calibration,0,19,2,679,5,V,1,left,0.6932144250022247,1,0,,,,,,,,,,,,,,,,,,,,,1,,,,,,,,,,,,,,,,,,,,,,,,,,,,,,,,,,,,,,,,,,,,,,52,152194,21,Female,1,2024/02/13_12:14:57,YZ,59.96622750174633,
,,,,,,calibration,0,19,2,679,6,Q,0,right,0.6153398970054695,1,0,,,,,,,,,,,,,,,,,,,,,1,,,,,,,,,,,,,,,,,,,,,,,,,,,,,,,,,,,,,,,,,,,,,,52,152194,21,Female,1,2024/02/13_12:14:57,YZ,59.96622750174633,
,,,,,,calibration,0,19,2,679,7,N,0,left,0.6096918179973727,0,0,,,,,,,,,,,,,,,,,,,,,1,,,,,,,,,,,,,,,,,,,,,,,,,,,,,,,,,,,,,,,,,,,,,,52,152194,21,Female,1,2024/02/13_12:14:57,YZ,59.96622750174633,
,,,,,,calibration,0,19,2,679,8,F,0,right,0.5940827949962113,1,0,,,,,,,,,,,,,,,,,,,,,1,,,,,,,,,,,,,,,,,,,,,,,,,,,,,,,,,,,,,,,,,,,,,,52,152194,21,Female,1,2024/02/13_12:14:57,YZ,59.96622750174633,
,,,,,,calibration,0,19,2,679,9,Q,0,right,0.576943118008785,1,0,,,,,,,,,,,,,,,,,,,,,1,,,,,,,,,,,,,,,,,,,,,,,,,,,,,,,,,,,,,,,,,,,,,,52,152194,21,Female,1,2024/02/13_12:14:57,YZ,59.96622750174633,
,,,,,,calibration,0,19,2,679,10,X,0,left,0.5133986110013211,0,0,,,,,,,,,,,,,,,,,,,,,1,,,,,,,,,,,,,,,,,,,,,,,,,,,,,,,,,,,,,,,,,,,,,,52,152194,21,Female,1,2024/02/13_12:14:57,YZ,59.96622750174633,
,,,,,,calibration,0,19,2,679,11,J,0,right,0.5947162020020187,1,0,,,,,,,,,,,,,,,,,,,,,1,,,,,,,,,,,,,,,,,,,,,,,,,,,,,,,,,,,,,,,,,,,,,,52,152194,21,Female,1,2024/02/13_12:14:57,YZ,59.96622750174633,
,,,,,,calibration,0,19,2,679,12,X,1,right,0.5466836749983486,0,0,,,,,,,,,,,,,,,,,,,,,1,,,,,,,,,,,,,,,,,,,,,,,,,,,,,,,,,,,,,,,,,,,,,,52,152194,21,Female,1,2024/02/13_12:14:57,YZ,59.96622750174633,
,,,,,,calibration,0,19,2,679,13,S,0,right,0.5421681980078574,1,0,,,,,,,,,,,,,,,,,,,,,1,,,,,,,,,,,,,,,,,,,,,,,,,,,,,,,,,,,,,,,,,,,,,,52,152194,21,Female,1,2024/02/13_12:14:57,YZ,59.96622750174633,
,,,,,,calibration,0,19,2,679,14,X,1,left,0.5341436220041942,1,0,,,,,,,,,,,,,,,,,,,,,1,,,,,,,,,,,,,,,,,,,,,,,,,,,,,,,,,,,,,,,,,,,,,,52,152194,21,Female,1,2024/02/13_12:14:57,YZ,59.96622750174633,
,,,,,,calibration,0,19,2,679,,,,,,,,0.8374999999999999,0.75,0.2,0.8,0.0,0.8,0.6252372142179021,3,2,0,0,0,8,11,4,10,0,,,,1,,,,,,,,,,,,,,,,,,,,,,,,,,,,,,,,,,,,,,,,,,,,,,52,152194,21,Female,1,2024/02/13_12:14:57,YZ,59.96622750174633,
,,,,,,Calibration,0,,2,679,,,,,,,,,,,,,,,,,,,,,,,,,5,,,1,,,,,,,,,,,,,,,,,,,,,,,,,,,,,,,,,,,,,,,,,,,,,,52,152194,21,Female,1,2024/02/13_12:14:57,YZ,59.96622750174633,
,,,,,,calibration,0,21,2,679,1,F,0,right,1.4480730340001173,1,0,,,,,,,,,,,,,,,,,,,,,1,,,,,,,,,,,,,,,,,,,,,,,,,,,,,,,,,,,,,,,,,,,,,,52,152194,21,Female,1,2024/02/13_12:14:57,YZ,59.96622750174633,
,,,,,,calibration,0,21,2,679,2,C,0,right,0.302880229006405,1,0,,,,,,,,,,,,,,,,,,,,,1,,,,,,,,,,,,,,,,,,,,,,,,,,,,,,,,,,,,,,,,,,,,,,52,152194,21,Female,1,2024/02/13_12:14:57,YZ,59.96622750174633,
,,,,,,calibration,0,21,2,679,3,V,0,left,0.597287522003171,0,0,,,,,,,,,,,,,,,,,,,,,1,,,,,,,,,,,,,,,,,,,,,,,,,,,,,,,,,,,,,,,,,,,,,,52,152194,21,Female,1,2024/02/13_12:14:57,YZ,59.96622750174633,
,,,,,,calibration,0,21,2,679,4,C,1,right,0.45301683399884496,0,0,,,,,,,,,,,,,,,,,,,,,1,,,,,,,,,,,,,,,,,,,,,,,,,,,,,,,,,,,,,,,,,,,,,,52,152194,21,Female,1,2024/02/13_12:14:57,YZ,59.96622750174633,
,,,,,,calibration,0,21,2,679,5,V,1,left,1.1122313300002133,1,0,,,,,,,,,,,,,,,,,,,,,1,,,,,,,,,,,,,,,,,,,,,,,,,,,,,,,,,,,,,,,,,,,,,,52,152194,21,Female,1,2024/02/13_12:14:57,YZ,59.96622750174633,
,,,,,,calibration,0,21,2,679,6,S,0,right,1.1812494379992131,1,0,,,,,,,,,,,,,,,,,,,,,1,,,,,,,,,,,,,,,,,,,,,,,,,,,,,,,,,,,,,,,,,,,,,,52,152194,21,Female,1,2024/02/13_12:14:57,YZ,59.96622750174633,
,,,,,,calibration,0,21,2,679,7,J,0,right,0.7103737790021114,1,0,,,,,,,,,,,,,,,,,,,,,1,,,,,,,,,,,,,,,,,,,,,,,,,,,,,,,,,,,,,,,,,,,,,,52,152194,21,Female,1,2024/02/13_12:14:57,YZ,59.96622750174633,
,,,,,,calibration,0,21,2,679,8,Q,0,left,0.7845434129994828,0,0,,,,,,,,,,,,,,,,,,,,,1,,,,,,,,,,,,,,,,,,,,,,,,,,,,,,,,,,,,,,,,,,,,,,52,152194,21,Female,1,2024/02/13_12:14:57,YZ,59.96622750174633,
,,,,,,calibration,0,21,2,679,9,X,0,right,0.5135163300001295,1,0,,,,,,,,,,,,,,,,,,,,,1,,,,,,,,,,,,,,,,,,,,,,,,,,,,,,,,,,,,,,,,,,,,,,52,152194,21,Female,1,2024/02/13_12:14:57,YZ,59.96622750174633,
,,,,,,calibration,0,21,2,679,10,N,0,right,0.9618586829892593,1,0,,,,,,,,,,,,,,,,,,,,,1,,,,,,,,,,,,,,,,,,,,,,,,,,,,,,,,,,,,,,,,,,,,,,52,152194,21,Female,1,2024/02/13_12:14:57,YZ,59.96622750174633,
,,,,,,calibration,0,21,2,679,11,X,1,left,0.37065475901181344,1,0,,,,,,,,,,,,,,,,,,,,,1,,,,,,,,,,,,,,,,,,,,,,,,,,,,,,,,,,,,,,,,,,,,,,52,152194,21,Female,1,2024/02/13_12:14:57,YZ,59.96622750174633,
,,,,,,calibration,0,21,2,679,12,N,1,right,0.8084177869895939,0,0,,,,,,,,,,,,,,,,,,,,,1,,,,,,,,,,,,,,,,,,,,,,,,,,,,,,,,,,,,,,,,,,,,,,52,152194,21,Female,1,2024/02/13_12:14:57,YZ,59.96622750174633,
,,,,,,calibration,0,21,2,679,13,F,0,right,0.9164006889914162,1,0,,,,,,,,,,,,,,,,,,,,,1,,,,,,,,,,,,,,,,,,,,,,,,,,,,,,,,,,,,,,,,,,,,,,52,152194,21,Female,1,2024/02/13_12:14:57,YZ,59.96622750174633,
,,,,,,calibration,0,21,2,679,14,C,0,left,0.9797911049972754,0,0,,,,,,,,,,,,,,,,,,,,,1,,,,,,,,,,,,,,,,,,,,,,,,,,,,,,,,,,,,,,,,,,,,,,52,152194,21,Female,1,2024/02/13_12:14:57,YZ,59.96622750174633,
,,,,,,calibration,0,21,2,679,,,,,,,,0.65,0.5,0.3,0.7,0.0,0.7,0.7957353522849319,2,3,0,0,0,7,9,4,10,0,,,,1,,,,,,,,,,,,,,,,,,,,,,,,,,,,,,,,,,,,,,,,,,,,,,52,152194,21,Female,1,2024/02/13_12:14:57,YZ,59.96622750174633,
,,,,,,Calibration,0,,2,679,,,,,,,,,,,,,,,,,,,,,,,,,6,,,1,,,,,,,,,,,,,,,,,,,,,,,,,,,,,,,,,,,,,,,,,,,,,,52,152194,21,Female,1,2024/02/13_12:14:57,YZ,59.96622750174633,
,,,,,,calibration,0,25,2,788,1,X,0,right,1.0780917210067855,1,0,,,,,,,,,,,,,,,,,,,,,1,,,,,,,,,,,,,,,,,,,,,,,,,,,,,,,,,,,,,,,,,,,,,,52,152194,21,Female,1,2024/02/13_12:14:57,YZ,59.96622750174633,
,,,,,,calibration,0,25,2,788,2,F,0,right,0.4548269389924826,1,0,,,,,,,,,,,,,,,,,,,,,1,,,,,,,,,,,,,,,,,,,,,,,,,,,,,,,,,,,,,,,,,,,,,,52,152194,21,Female,1,2024/02/13_12:14:57,YZ,59.96622750174633,
,,,,,,calibration,0,25,2,788,3,X,1,left,0.5135283470008289,1,0,,,,,,,,,,,,,,,,,,,,,1,,,,,,,,,,,,,,,,,,,,,,,,,,,,,,,,,,,,,,,,,,,,,,52,152194,21,Female,1,2024/02/13_12:14:57,YZ,59.96622750174633,
,,,,,,calibration,0,25,2,788,4,V,0,right,0.797460392001085,1,0,,,,,,,,,,,,,,,,,,,,,1,,,,,,,,,,,,,,,,,,,,,,,,,,,,,,,,,,,,,,,,,,,,,,52,152194,21,Female,1,2024/02/13_12:14:57,YZ,59.96622750174633,
,,,,,,calibration,0,25,2,788,5,J,0,right,0.49428867700044066,1,0,,,,,,,,,,,,,,,,,,,,,1,,,,,,,,,,,,,,,,,,,,,,,,,,,,,,,,,,,,,,,,,,,,,,52,152194,21,Female,1,2024/02/13_12:14:57,YZ,59.96622750174633,
,,,,,,calibration,0,25,2,788,6,V,1,left,0.644153365996317,1,0,,,,,,,,,,,,,,,,,,,,,1,,,,,,,,,,,,,,,,,,,,,,,,,,,,,,,,,,,,,,,,,,,,,,52,152194,21,Female,1,2024/02/13_12:14:57,YZ,59.96622750174633,
,,,,,,calibration,0,25,2,788,7,X,0,right,0.4259433950064704,1,0,,,,,,,,,,,,,,,,,,,,,1,,,,,,,,,,,,,,,,,,,,,,,,,,,,,,,,,,,,,,,,,,,,,,52,152194,21,Female,1,2024/02/13_12:14:57,YZ,59.96622750174633,
,,,,,,calibration,0,25,2,788,8,N,0,right,0.5238831480091903,1,0,,,,,,,,,,,,,,,,,,,,,1,,,,,,,,,,,,,,,,,,,,,,,,,,,,,,,,,,,,,,,,,,,,,,52,152194,21,Female,1,2024/02/13_12:14:57,YZ,59.96622750174633,
,,,,,,calibration,0,25,2,788,9,C,0,right,0.5529776159964968,1,0,,,,,,,,,,,,,,,,,,,,,1,,,,,,,,,,,,,,,,,,,,,,,,,,,,,,,,,,,,,,,,,,,,,,52,152194,21,Female,1,2024/02/13_12:14:57,YZ,59.96622750174633,
,,,,,,calibration,0,25,2,788,10,N,1,left,0.4392305950023001,1,0,,,,,,,,,,,,,,,,,,,,,1,,,,,,,,,,,,,,,,,,,,,,,,,,,,,,,,,,,,,,,,,,,,,,52,152194,21,Female,1,2024/02/13_12:14:57,YZ,59.96622750174633,
,,,,,,calibration,0,25,2,788,11,S,0,right,0.3746411020110827,1,0,,,,,,,,,,,,,,,,,,,,,1,,,,,,,,,,,,,,,,,,,,,,,,,,,,,,,,,,,,,,,,,,,,,,52,152194,21,Female,1,2024/02/13_12:14:57,YZ,59.96622750174633,
,,,,,,calibration,0,25,2,788,12,C,0,right,0.42359318801027257,1,0,,,,,,,,,,,,,,,,,,,,,1,,,,,,,,,,,,,,,,,,,,,,,,,,,,,,,,,,,,,,,,,,,,,,52,152194,21,Female,1,2024/02/13_12:14:57,YZ,59.96622750174633,
,,,,,,calibration,0,25,2,788,13,S,1,left,0.8777999440062558,1,0,,,,,,,,,,,,,,,,,,,,,1,,,,,,,,,,,,,,,,,,,,,,,,,,,,,,,,,,,,,,,,,,,,,,52,152194,21,Female,1,2024/02/13_12:14:57,YZ,59.96622750174633,
,,,,,,calibration,0,25,2,788,,,,,,,,1.0,1.0,0.0,1.0,0.0,1.0,0.5846475715415391,4,0,0,0,0,9,13,4,9,0,,,,1,,,,,,,,,,,,,,,,,,,,,,,,,,,,,,,,,,,,,,,,,,,,,,52,152194,21,Female,1,2024/02/13_12:14:57,YZ,59.96622750174633,
,,,,,,Calibration,0,,2,788,,,,,,,,,,,,,,,,,,,,,,,,,7,,,1,,,,,,,,,,,,,,,,,,,,,,,,,,,,,,,,,,,,,,,,,,,,,,52,152194,21,Female,1,2024/02/13_12:14:57,YZ,59.96622750174633,
,,,,,,calibration,0,15,2,679,1,C,0,right,0.5317190239875345,1,0,,,,,,,,,,,,,,,,,,,,,1,,,,,,,,,,,,,,,,,,,,,,,,,,,,,,,,,,,,,,,,,,,,,,52,152194,21,Female,1,2024/02/13_12:14:57,YZ,59.96622750174633,
,,,,,,calibration,0,15,2,679,2,S,0,right,0.31043833200237714,1,0,,,,,,,,,,,,,,,,,,,,,1,,,,,,,,,,,,,,,,,,,,,,,,,,,,,,,,,,,,,,,,,,,,,,52,152194,21,Female,1,2024/02/13_12:14:57,YZ,59.96622750174633,
,,,,,,calibration,0,15,2,679,3,X,0,left,0.543033046007622,0,0,,,,,,,,,,,,,,,,,,,,,1,,,,,,,,,,,,,,,,,,,,,,,,,,,,,,,,,,,,,,,,,,,,,,52,152194,21,Female,1,2024/02/13_12:14:57,YZ,59.96622750174633,
,,,,,,calibration,0,15,2,679,4,S,1,right,0.8300698489911156,0,0,,,,,,,,,,,,,,,,,,,,,1,,,,,,,,,,,,,,,,,,,,,,,,,,,,,,,,,,,,,,,,,,,,,,52,152194,21,Female,1,2024/02/13_12:14:57,YZ,59.96622750174633,
,,,,,,calibration,0,15,2,679,5,V,0,right,0.39349158300319687,1,0,,,,,,,,,,,,,,,,,,,,,1,,,,,,,,,,,,,,,,,,,,,,,,,,,,,,,,,,,,,,,,,,,,,,52,152194,21,Female,1,2024/02/13_12:14:57,YZ,59.96622750174633,
,,,,,,calibration,0,15,2,679,6,F,0,left,0.8740872610069346,0,0,,,,,,,,,,,,,,,,,,,,,1,,,,,,,,,,,,,,,,,,,,,,,,,,,,,,,,,,,,,,,,,,,,,,52,152194,21,Female,1,2024/02/13_12:14:57,YZ,59.96622750174633,
,,,,,,calibration,0,15,2,679,7,C,0,left,0.6870845890080091,0,0,,,,,,,,,,,,,,,,,,,,,1,,,,,,,,,,,,,,,,,,,,,,,,,,,,,,,,,,,,,,,,,,,,,,52,152194,21,Female,1,2024/02/13_12:14:57,YZ,59.96622750174633,
,,,,,,calibration,0,15,2,679,8,Q,0,right,0.4253417379950406,1,0,,,,,,,,,,,,,,,,,,,,,1,,,,,,,,,,,,,,,,,,,,,,,,,,,,,,,,,,,,,,,,,,,,,,52,152194,21,Female,1,2024/02/13_12:14:57,YZ,59.96622750174633,
,,,,,,calibration,0,15,2,679,9,C,1,left,0.8297363090096042,1,0,,,,,,,,,,,,,,,,,,,,,1,,,,,,,,,,,,,,,,,,,,,,,,,,,,,,,,,,,,,,,,,,,,,,52,152194,21,Female,1,2024/02/13_12:14:57,YZ,59.96622750174633,
,,,,,,calibration,0,15,2,679,10,F,0,right,0.4161206209973898,1,0,,,,,,,,,,,,,,,,,,,,,1,,,,,,,,,,,,,,,,,,,,,,,,,,,,,,,,,,,,,,,,,,,,,,52,152194,21,Female,1,2024/02/13_12:14:57,YZ,59.96622750174633,
,,,,,,calibration,0,15,2,679,11,C,1,left,0.5132837760029361,1,0,,,,,,,,,,,,,,,,,,,,,1,,,,,,,,,,,,,,,,,,,,,,,,,,,,,,,,,,,,,,,,,,,,,,52,152194,21,Female,1,2024/02/13_12:14:57,YZ,59.96622750174633,
,,,,,,calibration,0,15,2,679,12,F,1,right,0.3755226670036791,0,0,,,,,,,,,,,,,,,,,,,,,1,,,,,,,,,,,,,,,,,,,,,,,,,,,,,,,,,,,,,,,,,,,,,,52,152194,21,Female,1,2024/02/13_12:14:57,YZ,59.96622750174633,
,,,,,,calibration,0,15,2,679,13,Q,0,left,0.4827771600103006,0,0,,,,,,,,,,,,,,,,,,,,,1,,,,,,,,,,,,,,,,,,,,,,,,,,,,,,,,,,,,,,,,,,,,,,52,152194,21,Female,1,2024/02/13_12:14:57,YZ,59.96622750174633,
,,,,,,calibration,0,15,2,679,14,V,0,right,0.365469098003814,1,0,,,,,,,,,,,,,,,,,,,,,1,,,,,,,,,,,,,,,,,,,,,,,,,,,,,,,,,,,,,,,,,,,,,,52,152194,21,Female,1,2024/02/13_12:14:57,YZ,59.96622750174633,
,,,,,,calibration,0,15,2,679,,,,,,,,0.575,0.5,0.4,0.6,0.0,0.6,0.5412982180735396,2,4,0,0,0,6,8,4,10,0,,,,1,,,,,,,,,,,,,,,,,,,,,,,,,,,,,,,,,,,,,,,,,,,,,,52,152194,21,Female,1,2024/02/13_12:14:57,YZ,59.96622750174633,
,,,,,,Calibration,0,,2,679,,,,,,,,,,,,,,,,,,,,,,,,,8,,,1,,,,,,,,,,,,,,,,,,,,,,,,,,,,,,,,,,,,,,,,,,,,,,52,152194,21,Female,1,2024/02/13_12:14:57,YZ,59.96622750174633,
,,,,,,calibration,0,14,2,788,1,V,0,right,0.5774366900004679,1,0,,,,,,,,,,,,,,,,,,,,,1,,,,,,,,,,,,,,,,,,,,,,,,,,,,,,,,,,,,,,,,,,,,,,52,152194,21,Female,1,2024/02/13_12:14:57,YZ,59.96622750174633,
,,,,,,calibration,0,14,2,788,2,V,0,right,0.33039247200940736,1,0,,,,,,,,,,,,,,,,,,,,,1,,,,,,,,,,,,,,,,,,,,,,,,,,,,,,,,,,,,,,,,,,,,,,52,152194,21,Female,1,2024/02/13_12:14:57,YZ,59.96622750174633,
,,,,,,calibration,0,14,2,788,3,J,0,left,0.47966409601212945,0,0,,,,,,,,,,,,,,,,,,,,,1,,,,,,,,,,,,,,,,,,,,,,,,,,,,,,,,,,,,,,,,,,,,,,52,152194,21,Female,1,2024/02/13_12:14:57,YZ,59.96622750174633,
,,,,,,calibration,0,14,2,788,4,V,1,right,0.3905277589947218,0,0,,,,,,,,,,,,,,,,,,,,,1,,,,,,,,,,,,,,,,,,,,,,,,,,,,,,,,,,,,,,,,,,,,,,52,152194,21,Female,1,2024/02/13_12:14:57,YZ,59.96622750174633,
,,,,,,calibration,0,14,2,788,5,N,0,right,0.5968157979950774,1,0,,,,,,,,,,,,,,,,,,,,,1,,,,,,,,,,,,,,,,,,,,,,,,,,,,,,,,,,,,,,,,,,,,,,52,152194,21,Female,1,2024/02/13_12:14:57,YZ,59.96622750174633,
,,,,,,calibration,0,14,2,788,6,F,0,left,0.9280095540016191,0,0,,,,,,,,,,,,,,,,,,,,,1,,,,,,,,,,,,,,,,,,,,,,,,,,,,,,,,,,,,,,,,,,,,,,52,152194,21,Female,1,2024/02/13_12:14:57,YZ,59.96622750174633,
,,,,,,calibration,0,14,2,788,7,C,0,right,0.33559737300674897,1,0,,,,,,,,,,,,,,,,,,,,,1,,,,,,,,,,,,,,,,,,,,,,,,,,,,,,,,,,,,,,,,,,,,,,52,152194,21,Female,1,2024/02/13_12:14:57,YZ,59.96622750174633,
,,,,,,calibration,0,14,2,788,8,S,0,right,0.8799122799973702,1,0,,,,,,,,,,,,,,,,,,,,,1,,,,,,,,,,,,,,,,,,,,,,,,,,,,,,,,,,,,,,,,,,,,,,52,152194,21,Female,1,2024/02/13_12:14:57,YZ,59.96622750174633,
,,,,,,calibration,0,14,2,788,9,C,1,left,0.6747565909900004,1,0,,,,,,,,,,,,,,,,,,,,,1,,,,,,,,,,,,,,,,,,,,,,,,,,,,,,,,,,,,,,,,,,,,,,52,152194,21,Female,1,2024/02/13_12:14:57,YZ,59.96622750174633,
,,,,,,calibration,0,14,2,788,10,V,0,right,0.8662148570001591,1,0,,,,,,,,,,,,,,,,,,,,,1,,,,,,,,,,,,,,,,,,,,,,,,,,,,,,,,,,,,,,,,,,,,,,52,152194,21,Female,1,2024/02/13_12:14:57,YZ,59.96622750174633,
,,,,,,calibration,0,14,2,788,11,X,0,left,0.5464943819970358,0,0,,,,,,,,,,,,,,,,,,,,,1,,,,,,,,,,,,,,,,,,,,,,,,,,,,,,,,,,,,,,,,,,,,,,52,152194,21,Female,1,2024/02/13_12:14:57,YZ,59.96622750174633,
,,,,,,calibration,0,14,2,788,12,V,1,right,0.45715144599671476,0,0,,,,,,,,,,,,,,,,,,,,,1,,,,,,,,,,,,,,,,,,,,,,,,,,,,,,,,,,,,,,,,,,,,,,52,152194,21,Female,1,2024/02/13_12:14:57,YZ,59.96622750174633,
,,,,,,calibration,0,14,2,788,13,X,1,left,0.39288706400839146,1,0,,,,,,,,,,,,,,,,,,,,,1,,,,,,,,,,,,,,,,,,,,,,,,,,,,,,,,,,,,,,,,,,,,,,52,152194,21,Female,1,2024/02/13_12:14:57,YZ,59.96622750174633,
,,,,,,calibration,0,14,2,788,,,,,,,,0.625,0.5,0.3333333333333333,0.6666666666666666,0.0,0.6666666666666667,0.5735277201546034,2,3,0,0,0,6,8,4,9,0,,,,1,,,,,,,,,,,,,,,,,,,,,,,,,,,,,,,,,,,,,,,,,,,,,,52,152194,21,Female,1,2024/02/13_12:14:57,YZ,59.96622750174633,
,,,,,,Calibration,0,,2,788,,,,,,,,,,,,,,,,,,,,,,,,,9,,,1,,,,,,,,,,,,,,,,,,,,,,,,,,,,,,,,,,,,,,,,,,,,,,52,152194,21,Female,1,2024/02/13_12:14:57,YZ,59.96622750174633,
,,,,,,calibration,0,34,2,917,1,Q,0,right,0.7782627790002152,1,0,,,,,,,,,,,,,,,,,,,,,1,,,,,,,,,,,,,,,,,,,,,,,,,,,,,,,,,,,,,,,,,,,,,,52,152194,21,Female,1,2024/02/13_12:14:57,YZ,59.96622750174633,
,,,,,,calibration,0,34,2,917,2,F,0,right,0.3988278520118911,1,0,,,,,,,,,,,,,,,,,,,,,1,,,,,,,,,,,,,,,,,,,,,,,,,,,,,,,,,,,,,,,,,,,,,,52,152194,21,Female,1,2024/02/13_12:14:57,YZ,59.96622750174633,
,,,,,,calibration,0,34,2,917,3,C,0,left,0.5643227770051453,0,0,,,,,,,,,,,,,,,,,,,,,1,,,,,,,,,,,,,,,,,,,,,,,,,,,,,,,,,,,,,,,,,,,,,,52,152194,21,Female,1,2024/02/13_12:14:57,YZ,59.96622750174633,
,,,,,,calibration,0,34,2,917,4,Q,0,right,0.4478136340039782,1,0,,,,,,,,,,,,,,,,,,,,,1,,,,,,,,,,,,,,,,,,,,,,,,,,,,,,,,,,,,,,,,,,,,,,52,152194,21,Female,1,2024/02/13_12:14:57,YZ,59.96622750174633,
,,,,,,calibration,0,34,2,917,5,C,1,right,0.5998300589999417,0,0,,,,,,,,,,,,,,,,,,,,,1,,,,,,,,,,,,,,,,,,,,,,,,,,,,,,,,,,,,,,,,,,,,,,52,152194,21,Female,1,2024/02/13_12:14:57,YZ,59.96622750174633,
,,,,,,calibration,0,34,2,917,6,J,0,left,0.5876330549945123,0,0,,,,,,,,,,,,,,,,,,,,,1,,,,,,,,,,,,,,,,,,,,,,,,,,,,,,,,,,,,,,,,,,,,,,52,152194,21,Female,1,2024/02/13_12:14:57,YZ,59.96622750174633,
,,,,,,calibration,0,34,2,917,7,S,0,right,0.29093751800246537,1,0,,,,,,,,,,,,,,,,,,,,,1,,,,,,,,,,,,,,,,,,,,,,,,,,,,,,,,,,,,,,,,,,,,,,52,152194,21,Female,1,2024/02/13_12:14:57,YZ,59.96622750174633,
,,,,,,calibration,0,34,2,917,8,J,1,right,0.40747651499987114,0,0,,,,,,,,,,,,,,,,,,,,,1,,,,,,,,,,,,,,,,,,,,,,,,,,,,,,,,,,,,,,,,,,,,,,52,152194,21,Female,1,2024/02/13_12:14:57,YZ,59.96622750174633,
,,,,,,calibration,0,34,2,917,9,V,0,left,0.8575780339888297,0,0,,,,,,,,,,,,,,,,,,,,,1,,,,,,,,,,,,,,,,,,,,,,,,,,,,,,,,,,,,,,,,,,,,,,52,152194,21,Female,1,2024/02/13_12:14:57,YZ,59.96622750174633,
,,,,,,calibration,0,34,2,917,10,J,1,right,0.7382049080042634,0,0,,,,,,,,,,,,,,,,,,,,,1,,,,,,,,,,,,,,,,,,,,,,,,,,,,,,,,,,,,,,,,,,,,,,52,152194,21,Female,1,2024/02/13_12:14:57,YZ,59.96622750174633,
,,,,,,calibration,0,34,2,917,11,C,0,right,0.7752693859947613,1,0,,,,,,,,,,,,,,,,,,,,,1,,,,,,,,,,,,,,,,,,,,,,,,,,,,,,,,,,,,,,,,,,,,,,52,152194,21,Female,1,2024/02/13_12:14:57,YZ,59.96622750174633,
,,,,,,calibration,0,34,2,917,12,Q,0,right,0.45346702499955427,1,0,,,,,,,,,,,,,,,,,,,,,1,,,,,,,,,,,,,,,,,,,,,,,,,,,,,,,,,,,,,,,,,,,,,,52,152194,21,Female,1,2024/02/13_12:14:57,YZ,59.96622750174633,
,,,,,,calibration,0,34,2,917,,,,,,,,0.16666666666666669,0.0,0.3333333333333333,0.6666666666666666,0.0,0.6666666666666667,0.5749686285004524,0,3,0,0,0,6,6,3,9,0,,,,1,,,,,,,,,,,,,,,,,,,,,,,,,,,,,,,,,,,,,,,,,,,,,,52,152194,21,Female,1,2024/02/13_12:14:57,YZ,59.96622750174633,
,,,,,,Calibration,0,,2,917,,,,,,,,,,,,,,,,,,,,,,,,,10,,,1,,,,,,,,,,,,,,,,,,,,,,,,,,,,,,,,,,,,,,,,,,,,,,52,152194,21,Female,1,2024/02/13_12:14:57,YZ,59.96622750174633,
,,,,,,calibration,0,29,2,1068,1,J,0,right,0.49965814300230704,1,0,,,,,,,,,,,,,,,,,,,,,1,,,,,,,,,,,,,,,,,,,,,,,,,,,,,,,,,,,,,,,,,,,,,,52,152194,21,Female,1,2024/02/13_12:14:57,YZ,59.96622750174633,
,,,,,,calibration,0,29,2,1068,2,J,0,right,0.4362507009936962,1,0,,,,,,,,,,,,,,,,,,,,,1,,,,,,,,,,,,,,,,,,,,,,,,,,,,,,,,,,,,,,,,,,,,,,52,152194,21,Female,1,2024/02/13_12:14:57,YZ,59.96622750174633,
,,,,,,calibration,0,29,2,1068,3,V,0,left,0.49347507700440474,0,0,,,,,,,,,,,,,,,,,,,,,1,,,,,,,,,,,,,,,,,,,,,,,,,,,,,,,,,,,,,,,,,,,,,,52,152194,21,Female,1,2024/02/13_12:14:57,YZ,59.96622750174633,
,,,,,,calibration,0,29,2,1068,4,N,0,right,0.4202478700026404,1,0,,,,,,,,,,,,,,,,,,,,,1,,,,,,,,,,,,,,,,,,,,,,,,,,,,,,,,,,,,,,,,,,,,,,52,152194,21,Female,1,2024/02/13_12:14:57,YZ,59.96622750174633,
,,,,,,calibration,0,29,2,1068,5,V,1,right,0.34325661399634555,0,0,,,,,,,,,,,,,,,,,,,,,1,,,,,,,,,,,,,,,,,,,,,,,,,,,,,,,,,,,,,,,,,,,,,,52,152194,21,Female,1,2024/02/13_12:14:57,YZ,59.96622750174633,
,,,,,,calibration,0,29,2,1068,6,C,0,right,0.44871522099128924,1,0,,,,,,,,,,,,,,,,,,,,,1,,,,,,,,,,,,,,,,,,,,,,,,,,,,,,,,,,,,,,,,,,,,,,52,152194,21,Female,1,2024/02/13_12:14:57,YZ,59.96622750174633,
,,,,,,calibration,0,29,2,1068,7,Q,0,right,0.4134231570060365,1,0,,,,,,,,,,,,,,,,,,,,,1,,,,,,,,,,,,,,,,,,,,,,,,,,,,,,,,,,,,,,,,,,,,,,52,152194,21,Female,1,2024/02/13_12:14:57,YZ,59.96622750174633,
,,,,,,calibration,0,29,2,1068,8,X,0,right,0.5873786899901461,1,0,,,,,,,,,,,,,,,,,,,,,1,,,,,,,,,,,,,,,,,,,,,,,,,,,,,,,,,,,,,,,,,,,,,,52,152194,21,Female,1,2024/02/13_12:14:57,YZ,59.96622750174633,
,,,,,,calibration,0,29,2,1068,9,Q,1,left,0.5328323269932298,1,0,,,,,,,,,,,,,,,,,,,,,1,,,,,,,,,,,,,,,,,,,,,,,,,,,,,,,,,,,,,,,,,,,,,,52,152194,21,Female,1,2024/02/13_12:14:57,YZ,59.96622750174633,
,,,,,,calibration,0,29,2,1068,10,X,1,right,0.6633272120088805,0,0,,,,,,,,,,,,,,,,,,,,,1,,,,,,,,,,,,,,,,,,,,,,,,,,,,,,,,,,,,,,,,,,,,,,52,152194,21,Female,1,2024/02/13_12:14:57,YZ,59.96622750174633,
,,,,,,calibration,0,29,2,1068,11,J,0,left,0.5449752809945494,0,0,,,,,,,,,,,,,,,,,,,,,1,,,,,,,,,,,,,,,,,,,,,,,,,,,,,,,,,,,,,,,,,,,,,,52,152194,21,Female,1,2024/02/13_12:14:57,YZ,59.96622750174633,
,,,,,,calibration,0,29,2,1068,,,,,,,,0.5833333333333334,0.3333333333333333,0.25,0.75,0.0,0.75,0.4894127539075932,1,2,0,0,0,6,7,3,8,0,,,,1,,,,,,,,,,,,,,,,,,,,,,,,,,,,,,,,,,,,,,,,,,,,,,52,152194,21,Female,1,2024/02/13_12:14:57,YZ,59.96622750174633,
,,,,,,Calibration,0,,2,1068,,,,,,,,,,,,,,,,,,,,,,,,,11,,,1,,,,,,,,,,,,,,,,,,,,,,,,,,,,,,,,,,,,,,,,,,,,,,52,152194,21,Female,1,2024/02/13_12:14:57,YZ,59.96622750174633,
,,,,,,calibration,0,10,2,1250,1,J,0,right,0.8811851020000177,1,0,,,,,,,,,,,,,,,,,,,,,1,,,,,,,,,,,,,,,,,,,,,,,,,,,,,,,,,,,,,,,,,,,,,,52,152194,21,Female,1,2024/02/13_12:14:57,YZ,59.96622750174633,
,,,,,,calibration,0,10,2,1250,2,F,0,right,0.31885170000896323,1,0,,,,,,,,,,,,,,,,,,,,,1,,,,,,,,,,,,,,,,,,,,,,,,,,,,,,,,,,,,,,,,,,,,,,52,152194,21,Female,1,2024/02/13_12:14:57,YZ,59.96622750174633,
,,,,,,calibration,0,10,2,1250,3,J,1,left,0.5782208720047493,1,0,,,,,,,,,,,,,,,,,,,,,1,,,,,,,,,,,,,,,,,,,,,,,,,,,,,,,,,,,,,,,,,,,,,,52,152194,21,Female,1,2024/02/13_12:14:57,YZ,59.96622750174633,
,,,,,,calibration,0,10,2,1250,4,F,1,left,0.8599934840021888,1,0,,,,,,,,,,,,,,,,,,,,,1,,,,,,,,,,,,,,,,,,,,,,,,,,,,,,,,,,,,,,,,,,,,,,52,152194,21,Female,1,2024/02/13_12:14:57,YZ,59.96622750174633,
,,,,,,calibration,0,10,2,1250,5,N,0,right,0.6479882070125313,1,0,,,,,,,,,,,,,,,,,,,,,1,,,,,,,,,,,,,,,,,,,,,,,,,,,,,,,,,,,,,,,,,,,,,,52,152194,21,Female,1,2024/02/13_12:14:57,YZ,59.96622750174633,
,,,,,,calibration,0,10,2,1250,6,F,1,left,0.6450244129955536,1,0,,,,,,,,,,,,,,,,,,,,,1,,,,,,,,,,,,,,,,,,,,,,,,,,,,,,,,,,,,,,,,,,,,,,52,152194,21,Female,1,2024/02/13_12:14:57,YZ,59.96622750174633,
,,,,,,calibration,0,10,2,1250,7,V,0,right,0.541716996987816,1,0,,,,,,,,,,,,,,,,,,,,,1,,,,,,,,,,,,,,,,,,,,,,,,,,,,,,,,,,,,,,,,,,,,,,52,152194,21,Female,1,2024/02/13_12:14:57,YZ,59.96622750174633,
,,,,,,calibration,0,10,2,1250,8,N,0,left,0.5741651599964825,0,0,,,,,,,,,,,,,,,,,,,,,1,,,,,,,,,,,,,,,,,,,,,,,,,,,,,,,,,,,,,,,,,,,,,,52,152194,21,Female,1,2024/02/13_12:14:57,YZ,59.96622750174633,
,,,,,,calibration,0,10,2,1250,9,C,0,right,0.5330911310011288,1,0,,,,,,,,,,,,,,,,,,,,,1,,,,,,,,,,,,,,,,,,,,,,,,,,,,,,,,,,,,,,,,,,,,,,52,152194,21,Female,1,2024/02/13_12:14:57,YZ,59.96622750174633,
,,,,,,calibration,0,10,2,1250,10,Q,0,right,0.5645146720053162,1,0,,,,,,,,,,,,,,,,,,,,,1,,,,,,,,,,,,,,,,,,,,,,,,,,,,,,,,,,,,,,,,,,,,,,52,152194,21,Female,1,2024/02/13_12:14:57,YZ,59.96622750174633,
,,,,,,calibration,0,10,2,1250,,,,,,,,0.9642857142857143,1.0,0.14285714285714285,0.8571428571428571,0.0,0.8571428571428572,0.6144751738014748,3,1,0,0,0,6,9,3,7,0,,,,1,,,,,,,,,,,,,,,,,,,,,,,,,,,,,,,,,,,,,,,,,,,,,,52,152194,21,Female,1,2024/02/13_12:14:57,YZ,59.96622750174633,
,,,,,,Calibration,0,,2,1250,,,,,,,,,,,,,,,,,,,,,,,,,12,,,1,,,,,,,,,,,,,,,,,,,,,,,,,,,,,,,,,,,,,,,,,,,,,,52,152194,21,Female,1,2024/02/13_12:14:57,YZ,59.96622750174633,
,,,,,,calibration,0,12,2,1068,1,C,0,right,0.6783908420038642,1,0,,,,,,,,,,,,,,,,,,,,,1,,,,,,,,,,,,,,,,,,,,,,,,,,,,,,,,,,,,,,,,,,,,,,52,152194,21,Female,1,2024/02/13_12:14:57,YZ,59.96622750174633,
,,,,,,calibration,0,12,2,1068,2,J,0,left,0.49743462599872146,0,0,,,,,,,,,,,,,,,,,,,,,1,,,,,,,,,,,,,,,,,,,,,,,,,,,,,,,,,,,,,,,,,,,,,,52,152194,21,Female,1,2024/02/13_12:14:57,YZ,59.96622750174633,
,,,,,,calibration,0,12,2,1068,3,X,0,right,0.49908853399392683,1,0,,,,,,,,,,,,,,,,,,,,,1,,,,,,,,,,,,,,,,,,,,,,,,,,,,,,,,,,,,,,,,,,,,,,52,152194,21,Female,1,2024/02/13_12:14:57,YZ,59.96622750174633,
,,,,,,calibration,0,12,2,1068,4,S,0,right,0.7020181010011584,1,0,,,,,,,,,,,,,,,,,,,,,1,,,,,,,,,,,,,,,,,,,,,,,,,,,,,,,,,,,,,,,,,,,,,,52,152194,21,Female,1,2024/02/13_12:14:57,YZ,59.96622750174633,
,,,,,,calibration,0,12,2,1068,5,C,0,left,0.5134300109930336,0,0,,,,,,,,,,,,,,,,,,,,,1,,,,,,,,,,,,,,,,,,,,,,,,,,,,,,,,,,,,,,,,,,,,,,52,152194,21,Female,1,2024/02/13_12:14:57,YZ,59.96622750174633,
,,,,,,calibration,0,12,2,1068,6,S,1,right,0.6467314539913787,0,0,,,,,,,,,,,,,,,,,,,,,1,,,,,,,,,,,,,,,,,,,,,,,,,,,,,,,,,,,,,,,,,,,,,,52,152194,21,Female,1,2024/02/13_12:14:57,YZ,59.96622750174633,
,,,,,,calibration,0,12,2,1068,7,C,1,left,0.5136194160004379,1,0,,,,,,,,,,,,,,,,,,,,,1,,,,,,,,,,,,,,,,,,,,,,,,,,,,,,,,,,,,,,,,,,,,,,52,152194,21,Female,1,2024/02/13_12:14:57,YZ,59.96622750174633,
,,,,,,calibration,0,12,2,1068,8,N,0,right,0.3779814119916409,1,0,,,,,,,,,,,,,,,,,,,,,1,,,,,,,,,,,,,,,,,,,,,,,,,,,,,,,,,,,,,,,,,,,,,,52,152194,21,Female,1,2024/02/13_12:14:57,YZ,59.96622750174633,
,,,,,,calibration,0,12,2,1068,9,J,0,left,0.6303321580053307,0,0,,,,,,,,,,,,,,,,,,,,,1,,,,,,,,,,,,,,,,,,,,,,,,,,,,,,,,,,,,,,,,,,,,,,52,152194,21,Female,1,2024/02/13_12:14:57,YZ,59.96622750174633,
,,,,,,calibration,0,12,2,1068,10,S,0,right,0.5250764429947594,1,0,,,,,,,,,,,,,,,,,,,,,1,,,,,,,,,,,,,,,,,,,,,,,,,,,,,,,,,,,,,,,,,,,,,,52,152194,21,Female,1,2024/02/13_12:14:57,YZ,59.96622750174633,
,,,,,,calibration,0,12,2,1068,11,J,1,right,0.46626268701220397,0,0,,,,,,,,,,,,,,,,,,,,,1,,,,,,,,,,,,,,,,,,,,,,,,,,,,,,,,,,,,,,,,,,,,,,52,152194,21,Female,1,2024/02/13_12:14:57,YZ,59.96622750174633,
,,,,,,calibration,0,12,2,1068,,,,,,,,0.017361111111111105,0.3333333333333333,0.375,0.625,0.0,0.625,0.5500332439987687,1,3,0,0,0,5,6,3,8,0,,,,1,,,,,,,,,,,,,,,,,,,,,,,,,,,,,,,,,,,,,,,,,,,,,,52,152194,21,Female,1,2024/02/13_12:14:57,YZ,59.96622750174633,
,,,,,,Calibration,0,,2,1068,,,,,,,,,,,,,,,,,,,,,,,,,13,,,1,,,,,,,,,,,,,,,,,,,,,,,,,,,,,,,,,,,,,,,,,,,,,,52,152194,21,Female,1,2024/02/13_12:14:57,YZ,59.96622750174633,
,,,,,,calibration,0,25,2,1250,1,X,0,right,0.4910164160100976,1,0,,,,,,,,,,,,,,,,,,,,,1,,,,,,,,,,,,,,,,,,,,,,,,,,,,,,,,,,,,,,,,,,,,,,52,152194,21,Female,1,2024/02/13_12:14:57,YZ,59.96622750174633,
,,,,,,calibration,0,25,2,1250,2,S,0,right,0.36553966799692716,1,0,,,,,,,,,,,,,,,,,,,,,1,,,,,,,,,,,,,,,,,,,,,,,,,,,,,,,,,,,,,,,,,,,,,,52,152194,21,Female,1,2024/02/13_12:14:57,YZ,59.96622750174633,
,,,,,,calibration,0,25,2,1250,3,X,1,left,0.45852966800157446,1,0,,,,,,,,,,,,,,,,,,,,,1,,,,,,,,,,,,,,,,,,,,,,,,,,,,,,,,,,,,,,,,,,,,,,52,152194,21,Female,1,2024/02/13_12:14:57,YZ,59.96622750174633,
,,,,,,calibration,0,25,2,1250,4,N,0,right,0.629893269011518,1,0,,,,,,,,,,,,,,,,,,,,,1,,,,,,,,,,,,,,,,,,,,,,,,,,,,,,,,,,,,,,,,,,,,,,52,152194,21,Female,1,2024/02/13_12:14:57,YZ,59.96622750174633,
,,,,,,calibration,0,25,2,1250,5,X,1,left,0.7011771879915614,1,0,,,,,,,,,,,,,,,,,,,,,1,,,,,,,,,,,,,,,,,,,,,,,,,,,,,,,,,,,,,,,,,,,,,,52,152194,21,Female,1,2024/02/13_12:14:57,YZ,59.96622750174633,
,,,,,,calibration,0,25,2,1250,6,J,0,right,0.5260238890041364,1,0,,,,,,,,,,,,,,,,,,,,,1,,,,,,,,,,,,,,,,,,,,,,,,,,,,,,,,,,,,,,,,,,,,,,52,152194,21,Female,1,2024/02/13_12:14:57,YZ,59.96622750174633,
,,,,,,calibration,0,25,2,1250,7,C,0,right,0.8766900659975363,1,0,,,,,,,,,,,,,,,,,,,,,1,,,,,,,,,,,,,,,,,,,,,,,,,,,,,,,,,,,,,,,,,,,,,,52,152194,21,Female,1,2024/02/13_12:14:57,YZ,59.96622750174633,
,,,,,,calibration,0,25,2,1250,8,J,1,left,0.6461826339946128,1,0,,,,,,,,,,,,,,,,,,,,,1,,,,,,,,,,,,,,,,,,,,,,,,,,,,,,,,,,,,,,,,,,,,,,52,152194,21,Female,1,2024/02/13_12:14:57,YZ,59.96622750174633,
,,,,,,calibration,0,25,2,1250,9,V,0,right,0.478663391986629,1,0,,,,,,,,,,,,,,,,,,,,,1,,,,,,,,,,,,,,,,,,,,,,,,,,,,,,,,,,,,,,,,,,,,,,52,152194,21,Female,1,2024/02/13_12:14:57,YZ,59.96622750174633,
,,,,,,calibration,0,25,2,1250,10,F,0,left,0.6087547170027392,0,0,,,,,,,,,,,,,,,,,,,,,1,,,,,,,,,,,,,,,,,,,,,,,,,,,,,,,,,,,,,,,,,,,,,,52,152194,21,Female,1,2024/02/13_12:14:57,YZ,59.96622750174633,
,,,,,,calibration,0,25,2,1250,,,,,,,,0.9642857142857143,1.0,0.14285714285714285,0.8571428571428571,0.0,0.8571428571428572,0.5782470906997332,3,1,0,0,0,6,9,3,7,0,,,,1,,,,,,,,,,,,,,,,,,,,,,,,,,,,,,,,,,,,,,,,,,,,,,52,152194,21,Female,1,2024/02/13_12:14:57,YZ,59.96622750174633,
,,,,,,Calibration,0,,2,1250,,,,,,,,,,,,,,,,,,,,,,,,,14,,,1,,,,,,,,,,,,,,,,,,,,,,,,,,,,,,,,,,,,,,,,,,,,,,52,152194,21,Female,1,2024/02/13_12:14:57,YZ,59.96622750174633,
,,,,,,calibration,0,28,2,1068,1,X,0,right,0.42416568999760784,1,0,,,,,,,,,,,,,,,,,,,,,1,,,,,,,,,,,,,,,,,,,,,,,,,,,,,,,,,,,,,,,,,,,,,,52,152194,21,Female,1,2024/02/13_12:14:57,YZ,59.96622750174633,
,,,,,,calibration,0,28,2,1068,2,C,0,right,0.3521982779930113,1,0,,,,,,,,,,,,,,,,,,,,,1,,,,,,,,,,,,,,,,,,,,,,,,,,,,,,,,,,,,,,,,,,,,,,52,152194,21,Female,1,2024/02/13_12:14:57,YZ,59.96622750174633,
,,,,,,calibration,0,28,2,1068,3,N,0,right,0.4294354229932651,1,0,,,,,,,,,,,,,,,,,,,,,1,,,,,,,,,,,,,,,,,,,,,,,,,,,,,,,,,,,,,,,,,,,,,,52,152194,21,Female,1,2024/02/13_12:14:57,YZ,59.96622750174633,
,,,,,,calibration,0,28,2,1068,4,Q,0,right,0.448474199991324,1,0,,,,,,,,,,,,,,,,,,,,,1,,,,,,,,,,,,,,,,,,,,,,,,,,,,,,,,,,,,,,,,,,,,,,52,152194,21,Female,1,2024/02/13_12:14:57,YZ,59.96622750174633,
,,,,,,calibration,0,28,2,1068,5,S,0,left,0.6776200349995634,0,0,,,,,,,,,,,,,,,,,,,,,1,,,,,,,,,,,,,,,,,,,,,,,,,,,,,,,,,,,,,,,,,,,,,,52,152194,21,Female,1,2024/02/13_12:14:57,YZ,59.96622750174633,
,,,,,,calibration,0,28,2,1068,6,F,0,right,0.46727878900128417,1,0,,,,,,,,,,,,,,,,,,,,,1,,,,,,,,,,,,,,,,,,,,,,,,,,,,,,,,,,,,,,,,,,,,,,52,152194,21,Female,1,2024/02/13_12:14:57,YZ,59.96622750174633,
,,,,,,calibration,0,28,2,1068,7,S,1,left,0.5632370210078079,1,0,,,,,,,,,,,,,,,,,,,,,1,,,,,,,,,,,,,,,,,,,,,,,,,,,,,,,,,,,,,,,,,,,,,,52,152194,21,Female,1,2024/02/13_12:14:57,YZ,59.96622750174633,
,,,,,,calibration,0,28,2,1068,8,J,0,right,0.4793581459962297,1,0,,,,,,,,,,,,,,,,,,,,,1,,,,,,,,,,,,,,,,,,,,,,,,,,,,,,,,,,,,,,,,,,,,,,52,152194,21,Female,1,2024/02/13_12:14:57,YZ,59.96622750174633,
,,,,,,calibration,0,28,2,1068,9,S,1,left,0.5566716110042762,1,0,,,,,,,,,,,,,,,,,,,,,1,,,,,,,,,,,,,,,,,,,,,,,,,,,,,,,,,,,,,,,,,,,,,,52,152194,21,Female,1,2024/02/13_12:14:57,YZ,59.96622750174633,
,,,,,,calibration,0,28,2,1068,10,J,1,right,0.4462379949982278,0,0,,,,,,,,,,,,,,,,,,,,,1,,,,,,,,,,,,,,,,,,,,,,,,,,,,,,,,,,,,,,,,,,,,,,52,152194,21,Female,1,2024/02/13_12:14:57,YZ,59.96622750174633,
,,,,,,calibration,0,28,2,1068,11,C,0,right,0.7492770209937589,1,0,,,,,,,,,,,,,,,,,,,,,1,,,,,,,,,,,,,,,,,,,,,,,,,,,,,,,,,,,,,,,,,,,,,,52,152194,21,Female,1,2024/02/13_12:14:57,YZ,59.96622750174633,
,,,,,,calibration,0,28,2,1068,,,,,,,,0.84375,0.6666666666666666,0.125,0.875,0.0,0.875,0.5085412917251233,2,1,0,0,0,7,9,3,8,0,,,,1,,,,,,,,,,,,,,,,,,,,,,,,,,,,,,,,,,,,,,,,,,,,,,52,152194,21,Female,1,2024/02/13_12:14:57,YZ,59.96622750174633,
,,,,,,Calibration,0,,2,1068,,,,,,,,,,,,,,,,,,,,,,,,,15,,,1,,,,,,,,,,,,,,,,,,,,,,,,,,,,,,,,,,,,,,,,,,,,,,52,152194,21,Female,1,2024/02/13_12:14:57,YZ,59.96622750174633,
,,,,,,CALIBRATION,0,,,,,,,,,,,,,,,,,,,,,,,,,,,,15,0.84375,1068,1,,,,,,,,,,,,,,,,,,,,,,,,,,,,,,,,,,,,,,,,,,,,,,52,152194,21,Female,1,2024/02/13_12:14:57,YZ,59.96622750174633,
1,./instructions/inst_prac_1/Slide24.png,right,14.850053571994067,397.7534534790029,412.603507050997,,,,,,,,,,,,,,,,,,,,,,,,,,,,,,,,,1,,,,,,,,,,,,,,,,,,,,,,,,,,,,,,,,,,,,,,,,,,,,,,52,152194,21,Female,1,2024/02/13_12:14:57,YZ,59.96622750174633,
2,./instructions/inst_prac_1/Slide25.png,right,1.7550317170098424,412.6643784219923,414.41941013900214,,,,,,,,,,,,,,,,,,,,,,,,,,,,,,,,,1,,,,,,,,,,,,,,,,,,,,,,,,,,,,,,,,,,,,,,,,,,,,,,52,152194,21,Female,1,2024/02/13_12:14:57,YZ,59.96622750174633,
3,./instructions/inst_prac_1/Slide26.png,right,0.8283556160022272,414.47901871999784,415.30737433600007,,,,,,,,,,,,,,,,,,,,,,,,,,,,,,,,,1,,,,,,,,,,,,,,,,,,,,,,,,,,,,,,,,,,,,,,,,,,,,,,52,152194,21,Female,1,2024/02/13_12:14:57,YZ,59.96622750174633,
4,./instructions/inst_prac_1/Slide27.png,right,0.7823031910083955,415.3488292379916,416.131132429,,,,,,,,,,,,,,,,,,,,,,,,,,,,,,,,,1,,,,,,,,,,,,,,,,,,,,,,,,,,,,,,,,,,,,,,,,,,,,,,52,152194,21,Female,1,2024/02/13_12:14:57,YZ,59.96622750174633,
5,./instructions/inst_prac_1/Slide28.png,right,0.8279455860028975,416.1994500009896,417.0273955869925,,,,,,,,,,,,,,,,,,,,,,,,,,,,,,,,,1,,,,,,,,,,,,,,,,,,,,,,,,,,,,,,,,,,,,,,,,,,,,,,52,152194,21,Female,1,2024/02/13_12:14:57,YZ,59.96622750174633,
6,./instructions/inst_prac_1/Slide29.png,right,8.69653317600023,417.0672404169891,425.7637735929893,,,,,,,,,,,,,,,,,,,,,,,,,,,,,,,,,1,,,,,,,,,,,,,,,,,,,,,,,,,,,,,,,,,,,,,,,,,,,,,,52,152194,21,Female,1,2024/02/13_12:14:57,YZ,59.96622750174633,
7,./instructions/inst_prac_1/Slide30.png,right,1.8681735699938145,425.82335839400184,427.69153196399566,,,,,,,,,,,,,,,,,,,,,,,,,,,,,,,,,1,,,,,,,,,,,,,,,,,,,,,,,,,,,,,,,,,,,,,,,,,,,,,,52,152194,21,Female,1,2024/02/13_12:14:57,YZ,59.96622750174633,
,,,,,,practice,0,11,1,1250,1,F,0,right,2.6693819950014586,1,0,,,,,,,,,,,,,,,,,,,,,1,,,,,,,,,,,,,,,,,,,,,,,,,,,,,,,,,,,,,,,,,,,,,,52,152194,21,Female,1,2024/02/13_12:14:57,YZ,59.96622750174633,
,,,,,,practice,0,11,1,1250,2,J,0,right,3.27851481999096,1,0,,,,,,,,,,,,,,,,,,,,,1,,,,,,,,,,,,,,,,,,,,,,,,,,,,,,,,,,,,,,,,,,,,,,52,152194,21,Female,1,2024/02/13_12:14:57,YZ,59.96622750174633,
,,,,,,practice,0,11,1,1250,3,S,0,right,2.253554032999091,1,0,,,,,,,,,,,,,,,,,,,,,1,,,,,,,,,,,,,,,,,,,,,,,,,,,,,,,,,,,,,,,,,,,,,,52,152194,21,Female,1,2024/02/13_12:14:57,YZ,59.96622750174633,
,,,,,,practice,0,11,1,1250,4,S,1,right,1.231111424989649,0,0,,,,,,,,,,,,,,,,,,,,,1,,,,,,,,,,,,,,,,,,,,,,,,,,,,,,,,,,,,,,,,,,,,,,52,152194,21,Female,1,2024/02/13_12:14:57,YZ,59.96622750174633,
,,,,,,practice,0,11,1,1250,5,V,0,left,3.938472827998339,0,0,,,,,,,,,,,,,,,,,,,,,1,,,,,,,,,,,,,,,,,,,,,,,,,,,,,,,,,,,,,,,,,,,,,,52,152194,21,Female,1,2024/02/13_12:14:57,YZ,59.96622750174633,
,,,,,,practice,0,11,1,1250,6,V,1,right,2.0627812430029735,0,0,,,,,,,,,,,,,,,,,,,,,1,,,,,,,,,,,,,,,,,,,,,,,,,,,,,,,,,,,,,,,,,,,,,,52,152194,21,Female,1,2024/02/13_12:14:57,YZ,59.96622750174633,
,,,,,,practice,0,11,1,1250,7,Q,0,left,3.1831706859957194,0,0,,,,,,,,,,,,,,,,,,,,,1,,,,,,,,,,,,,,,,,,,,,,,,,,,,,,,,,,,,,,,,,,,,,,52,152194,21,Female,1,2024/02/13_12:14:57,YZ,59.96622750174633,
,,,,,,practice,0,11,1,1250,8,V,0,right,3.853686493006535,1,0,,,,,,,,,,,,,,,,,,,,,1,,,,,,,,,,,,,,,,,,,,,,,,,,,,,,,,,,,,,,,,,,,,,,52,152194,21,Female,1,2024/02/13_12:14:57,YZ,59.96622750174633,
,,,,,,practice,0,11,1,1250,9,N,0,right,1.2655406929989113,1,0,,,,,,,,,,,,,,,,,,,,,1,,,,,,,,,,,,,,,,,,,,,,,,,,,,,,,,,,,,,,,,,,,,,,52,152194,21,Female,1,2024/02/13_12:14:57,YZ,59.96622750174633,
,,,,,,practice,0,11,1,1250,10,N,1,right,1.4402122519968543,0,0,,,,,,,,,,,,,,,,,,,,,1,,,,,,,,,,,,,,,,,,,,,,,,,,,,,,,,,,,,,,,,,,,,,,52,152194,21,Female,1,2024/02/13_12:14:57,YZ,59.96622750174633,
,,,,,,practice,0,11,1,1250,,,,,,,,0.17857142857142858,0.0,0.2857142857142857,0.7142857142857143,0.0,0.7142857142857143,2.5176426467980493,0,2,0,0,0,5,5,3,7,0,,,,1,,,,,,,,,,,,,,,,,,,,,,,,,,,,,,,,,,,,,,,,,,,,,,52,152194,21,Female,1,2024/02/13_12:14:57,YZ,59.96622750174633,
1,./instructions/inst_redo_1/Slide33.png,right,5.615494494995801,466.11593843100127,471.73143292599707,,,,,,,,,,,,,,,,,,,,,,,,,,,,,,,,,1,,,,,,,,,,,,,,,,,,,,,,,,,,,,,,,,,,,,,,,,,,,,,,52,152194,21,Female,1,2024/02/13_12:14:57,YZ,59.96622750174633,
,,,,,,practice,0,7,1,1250,1,J,0,right,2.1136350619926816,1,0,,,,,,,,,,,,,,,,,,,,,1,,,,,,,,,,,,,,,,,,,,,,,,,,,,,,,,,,,,,,,,,,,,,,52,152194,21,Female,1,2024/02/13_12:14:57,YZ,59.96622750174633,
,,,,,,practice,0,7,1,1250,2,J,1,left,1.5288356459932402,1,0,,,,,,,,,,,,,,,,,,,,,1,,,,,,,,,,,,,,,,,,,,,,,,,,,,,,,,,,,,,,,,,,,,,,52,152194,21,Female,1,2024/02/13_12:14:57,YZ,59.96622750174633,
,,,,,,practice,0,7,1,1250,3,S,0,left,1.5758690590009792,0,0,,,,,,,,,,,,,,,,,,,,,1,,,,,,,,,,,,,,,,,,,,,,,,,,,,,,,,,,,,,,,,,,,,,,52,152194,21,Female,1,2024/02/13_12:14:57,YZ,59.96622750174633,
,,,,,,practice,0,7,1,1250,4,N,0,right,8.144185693003237,1,0,,,,,,,,,,,,,,,,,,,,,1,,,,,,,,,,,,,,,,,,,,,,,,,,,,,,,,,,,,,,,,,,,,,,52,152194,21,Female,1,2024/02/13_12:14:57,YZ,59.96622750174633,
,,,,,,practice,0,7,1,1250,5,V,0,right,0.9287554679904133,1,0,,,,,,,,,,,,,,,,,,,,,1,,,,,,,,,,,,,,,,,,,,,,,,,,,,,,,,,,,,,,,,,,,,,,52,152194,21,Female,1,2024/02/13_12:14:57,YZ,59.96622750174633,
,,,,,,practice,0,7,1,1250,6,N,0,right,0.45301843900233507,1,0,,,,,,,,,,,,,,,,,,,,,1,,,,,,,,,,,,,,,,,,,,,,,,,,,,,,,,,,,,,,,,,,,,,,52,152194,21,Female,1,2024/02/13_12:14:57,YZ,59.96622750174633,
,,,,,,practice,0,7,1,1250,7,N,1,left,0.9578693120129174,1,0,,,,,,,,,,,,,,,,,,,,,1,,,,,,,,,,,,,,,,,,,,,,,,,,,,,,,,,,,,,,,,,,,,,,52,152194,21,Female,1,2024/02/13_12:14:57,YZ,59.96622750174633,
,,,,,,practice,0,7,1,1250,8,V,0,right,1.2834534819994587,1,0,,,,,,,,,,,,,,,,,,,,,1,,,,,,,,,,,,,,,,,,,,,,,,,,,,,,,,,,,,,,,,,,,,,,52,152194,21,Female,1,2024/02/13_12:14:57,YZ,59.96622750174633,
,,,,,,practice,0,7,1,1250,9,Q,0,right,0.8542449790111277,1,0,,,,,,,,,,,,,,,,,,,,,1,,,,,,,,,,,,,,,,,,,,,,,,,,,,,,,,,,,,,,,,,,,,,,52,152194,21,Female,1,2024/02/13_12:14:57,YZ,59.96622750174633,
,,,,,,practice,0,7,1,1250,10,Q,1,left,1.0215086579992203,1,0,,,,,,,,,,,,,,,,,,,,,1,,,,,,,,,,,,,,,,,,,,,,,,,,,,,,,,,,,,,,,,,,,,,,52,152194,21,Female,1,2024/02/13_12:14:57,YZ,59.96622750174633,
,,,,,,practice,0,7,1,1250,,,,,,,,0.9642857142857143,1.0,0.14285714285714285,0.8571428571428571,0.0,0.8571428571428572,1.886137579800561,3,1,0,0,0,6,9,3,7,0,,,,1,,,,,,,,,,,,,,,,,,,,,,,,,,,,,,,,,,,,,,,,,,,,,,52,152194,21,Female,1,2024/02/13_12:14:57,YZ,59.96622750174633,
1,./instructions/inst_prac_1_next/Slide35.png,right,1.5768731660064077,502.76274919399293,504.33962235999934,,,,,,,,,,,,,,,,,,,,,,,,,,,,,,,,,1,,,,,,,,,,,,,,,,,,,,,,,,,,,,,,,,,,,,,,,,,,,,,,52,152194,21,Female,1,2024/02/13_12:14:57,YZ,59.96622750174633,
,,,,,,practice,0,4,1,1068,1,S,0,right,0.7733534069993766,1,0,,,,,,,,,,,,,,,,,,,,,1,,,,,,,,,,,,,,,,,,,,,,,,,,,,,,,,,,,,,,,,,,,,,,52,152194,21,Female,1,2024/02/13_12:14:57,YZ,59.96622750174633,
,,,,,,practice,0,4,1,1068,2,Q,0,right,0.4161703449935885,1,0,,,,,,,,,,,,,,,,,,,,,1,,,,,,,,,,,,,,,,,,,,,,,,,,,,,,,,,,,,,,,,,,,,,,52,152194,21,Female,1,2024/02/13_12:14:57,YZ,59.96622750174633,
,,,,,,practice,0,4,1,1068,3,Q,1,left,0.6207193859881954,1,0,,,,,,,,,,,,,,,,,,,,,1,,,,,,,,,,,,,,,,,,,,,,,,,,,,,,,,,,,,,,,,,,,,,,52,152194,21,Female,1,2024/02/13_12:14:57,YZ,59.96622750174633,
,,,,,,practice,0,4,1,1068,4,J,0,right,0.46946766499604564,1,0,,,,,,,,,,,,,,,,,,,,,1,,,,,,,,,,,,,,,,,,,,,,,,,,,,,,,,,,,,,,,,,,,,,,52,152194,21,Female,1,2024/02/13_12:14:57,YZ,59.96622750174633,
,,,,,,practice,0,4,1,1068,5,Q,0,right,0.4604690920095891,1,0,,,,,,,,,,,,,,,,,,,,,1,,,,,,,,,,,,,,,,,,,,,,,,,,,,,,,,,,,,,,,,,,,,,,52,152194,21,Female,1,2024/02/13_12:14:57,YZ,59.96622750174633,
,,,,,,practice,0,4,1,1068,6,F,0,left,0.4493428080022568,0,0,,,,,,,,,,,,,,,,,,,,,1,,,,,,,,,,,,,,,,,,,,,,,,,,,,,,,,,,,,,,,,,,,,,,52,152194,21,Female,1,2024/02/13_12:14:57,YZ,59.96622750174633,
,,,,,,practice,0,4,1,1068,7,V,0,right,0.3697894549986813,1,0,,,,,,,,,,,,,,,,,,,,,1,,,,,,,,,,,,,,,,,,,,,,,,,,,,,,,,,,,,,,,,,,,,,,52,152194,21,Female,1,2024/02/13_12:14:57,YZ,59.96622750174633,
,,,,,,practice,0,4,1,1068,8,V,1,right,0.29361826299282257,0,0,,,,,,,,,,,,,,,,,,,,,1,,,,,,,,,,,,,,,,,,,,,,,,,,,,,,,,,,,,,,,,,,,,,,52,152194,21,Female,1,2024/02/13_12:14:57,YZ,59.96622750174633,
,,,,,,practice,0,4,1,1068,9,F,0,right,0.37177980299748015,1,0,,,,,,,,,,,,,,,,,,,,,1,,,,,,,,,,,,,,,,,,,,,,,,,,,,,,,,,,,,,,,,,,,,,,52,152194,21,Female,1,2024/02/13_12:14:57,YZ,59.96622750174633,
,,,,,,practice,0,4,1,1068,10,J,0,right,0.56793802199536,1,0,,,,,,,,,,,,,,,,,,,,,1,,,,,,,,,,,,,,,,,,,,,,,,,,,,,,,,,,,,,,,,,,,,,,52,152194,21,Female,1,2024/02/13_12:14:57,YZ,59.96622750174633,
,,,,,,practice,0,4,1,1068,11,J,1,left,0.5567121079948265,1,0,,,,,,,,,,,,,,,,,,,,,1,,,,,,,,,,,,,,,,,,,,,,,,,,,,,,,,,,,,,,,,,,,,,,52,152194,21,Female,1,2024/02/13_12:14:57,YZ,59.96622750174633,
,,,,,,practice,0,4,1,1068,,,,,,,,0.84375,0.6666666666666666,0.125,0.875,0.0,0.875,0.4863054867243839,2,1,0,0,0,7,9,3,8,0,,,,1,,,,,,,,,,,,,,,,,,,,,,,,,,,,,,,,,,,,,,,,,,,,,,52,152194,21,Female,1,2024/02/13_12:14:57,YZ,59.96622750174633,
,,,,,,practice,0,9,1,1068,1,S,0,right,0.4962524409929756,1,0,,,,,,,,,,,,,,,,,,,,,1,,,,,,,,,,,,,,,,,,,,,,,,,,,,,,,,,,,,,,,,,,,,,,52,152194,21,Female,1,2024/02/13_12:14:57,YZ,59.96622750174633,
,,,,,,practice,0,9,1,1068,2,S,1,left,0.7677150499948766,1,0,,,,,,,,,,,,,,,,,,,,,1,,,,,,,,,,,,,,,,,,,,,,,,,,,,,,,,,,,,,,,,,,,,,,52,152194,21,Female,1,2024/02/13_12:14:57,YZ,59.96622750174633,
,,,,,,practice,0,9,1,1068,3,N,0,right,0.5946461029961938,1,0,,,,,,,,,,,,,,,,,,,,,1,,,,,,,,,,,,,,,,,,,,,,,,,,,,,,,,,,,,,,,,,,,,,,52,152194,21,Female,1,2024/02/13_12:14:57,YZ,59.96622750174633,
,,,,,,practice,0,9,1,1068,4,Q,0,left,0.6986699659901205,0,0,,,,,,,,,,,,,,,,,,,,,1,,,,,,,,,,,,,,,,,,,,,,,,,,,,,,,,,,,,,,,,,,,,,,52,152194,21,Female,1,2024/02/13_12:14:57,YZ,59.96622750174633,
,,,,,,practice,0,9,1,1068,5,N,0,left,1.555281806999119,0,0,,,,,,,,,,,,,,,,,,,,,1,,,,,,,,,,,,,,,,,,,,,,,,,,,,,,,,,,,,,,,,,,,,,,52,152194,21,Female,1,2024/02/13_12:14:57,YZ,59.96622750174633,
,,,,,,practice,0,9,1,1068,6,N,1,left,0.542261734008207,1,0,,,,,,,,,,,,,,,,,,,,,1,,,,,,,,,,,,,,,,,,,,,,,,,,,,,,,,,,,,,,,,,,,,,,52,152194,21,Female,1,2024/02/13_12:14:57,YZ,59.96622750174633,
,,,,,,practice,0,9,1,1068,7,V,0,right,0.5881737120071193,1,0,,,,,,,,,,,,,,,,,,,,,1,,,,,,,,,,,,,,,,,,,,,,,,,,,,,,,,,,,,,,,,,,,,,,52,152194,21,Female,1,2024/02/13_12:14:57,YZ,59.96622750174633,
,,,,,,practice,0,9,1,1068,8,X,0,right,0.6327266820007935,1,0,,,,,,,,,,,,,,,,,,,,,1,,,,,,,,,,,,,,,,,,,,,,,,,,,,,,,,,,,,,,,,,,,,,,52,152194,21,Female,1,2024/02/13_12:14:57,YZ,59.96622750174633,
,,,,,,practice,0,9,1,1068,9,X,1,left,0.623568046008586,1,0,,,,,,,,,,,,,,,,,,,,,1,,,,,,,,,,,,,,,,,,,,,,,,,,,,,,,,,,,,,,,,,,,,,,52,152194,21,Female,1,2024/02/13_12:14:57,YZ,59.96622750174633,
,,,,,,practice,0,9,1,1068,10,C,0,right,0.4950903249991825,1,0,,,,,,,,,,,,,,,,,,,,,1,,,,,,,,,,,,,,,,,,,,,,,,,,,,,,,,,,,,,,,,,,,,,,52,152194,21,Female,1,2024/02/13_12:14:57,YZ,59.96622750174633,
,,,,,,practice,0,9,1,1068,11,Q,0,right,0.519844655005727,1,0,,,,,,,,,,,,,,,,,,,,,1,,,,,,,,,,,,,,,,,,,,,,,,,,,,,,,,,,,,,,,,,,,,,,52,152194,21,Female,1,2024/02/13_12:14:57,YZ,59.96622750174633,
,,,,,,practice,0,9,1,1068,,,,,,,,0.9375,1.0,0.25,0.75,0.0,0.75,0.6831118655457182,3,2,0,0,0,6,9,3,8,0,,,,1,,,,,,,,,,,,,,,,,,,,,,,,,,,,,,,,,,,,,,,,,,,,,,52,152194,21,Female,1,2024/02/13_12:14:57,YZ,59.96622750174633,
1,./instructions/inst_prac_3/Slide37.png,right,12.134080670002731,532.9493515399954,545.0834322099981,,,,,,,,,,,,,,,,,,,,,,,,,,,,,,,,,1,,,,,,,,,,,,,,,,,,,,,,,,,,,,,,,,,,,,,,,,,,,,,,52,152194,21,Female,1,2024/02/13_12:14:57,YZ,59.96622750174633,
2,./instructions/inst_prac_3/Slide38.png,right,1.8290163250057958,545.1346257979894,546.9636421229952,,,,,,,,,,,,,,,,,,,,,,,,,,,,,,,,,1,,,,,,,,,,,,,,,,,,,,,,,,,,,,,,,,,,,,,,,,,,,,,,52,152194,21,Female,1,2024/02/13_12:14:57,YZ,59.96622750174633,
3,./instructions/inst_prac_3/Slide39.png,right,1.2521866379975108,547.0233318349929,548.2755184729904,,,,,,,,,,,,,,,,,,,,,,,,,,,,,,,,,1,,,,,,,,,,,,,,,,,,,,,,,,,,,,,,,,,,,,,,,,,,,,,,52,152194,21,Female,1,2024/02/13_12:14:57,YZ,59.96622750174633,
4,./instructions/inst_prac_3/Slide40.png,right,2.2146139329997823,548.3568918419915,550.5715057749912,,,,,,,,,,,,,,,,,,,,,,,,,,,,,,,,,1,,,,,,,,,,,,,,,,,,,,,,,,,,,,,,,,,,,,,,,,,,,,,,52,152194,21,Female,1,2024/02/13_12:14:57,YZ,59.96622750174633,
5,./instructions/inst_prac_3/Slide41.png,right,3.0114766900078394,550.6320646279928,553.6435413180006,,,,,,,,,,,,,,,,,,,,,,,,,,,,,,,,,1,,,,,,,,,,,,,,,,,,,,,,,,,,,,,,,,,,,,,,,,,,,,,,52,152194,21,Female,1,2024/02/13_12:14:57,YZ,59.96622750174633,
6,./instructions/inst_prac_3/Slide42.png,right,1.1343062829982955,553.7332248799939,554.8675311629922,,,,,,,,,,,,,,,,,,,,,,,,,,,,,,,,,1,,,,,,,,,,,,,,,,,,,,,,,,,,,,,,,,,,,,,,,,,,,,,,52,152194,21,Female,1,2024/02/13_12:14:57,YZ,59.96622750174633,
7,./instructions/inst_prac_3/Slide43.png,right,2.062567038999987,554.916756630002,556.979323669002,,,,,,,,,,,,,,,,,,,,,,,,,,,,,,,,,1,,,,,,,,,,,,,,,,,,,,,,,,,,,,,,,,,,,,,,,,,,,,,,52,152194,21,Female,1,2024/02/13_12:14:57,YZ,59.96622750174633,
8,./instructions/inst_prac_3/Slide44.png,right,1.9765044509986183,557.058927274993,559.0354317259917,,,,,,,,,,,,,,,,,,,,,,,,,,,,,,,,,1,,,,,,,,,,,,,,,,,,,,,,,,,,,,,,,,,,,,,,,,,,,,,,52,152194,21,Female,1,2024/02/13_12:14:57,YZ,59.96622750174633,
,,,,,,practice,0,35,3,788,1,J,0,right,1.3890918890101602,1,0,,,,,,,,,,,,,,,,,,,,,1,,,,,,,,,,,,,,,,,,,,,,,,,,,,,,,,,,,,,,,,,,,,,,52,152194,21,Female,1,2024/02/13_12:14:57,YZ,59.96622750174633,
,,,,,,practice,0,35,3,788,2,J,0,right,0.49507119100599084,1,0,,,,,,,,,,,,,,,,,,,,,1,,,,,,,,,,,,,,,,,,,,,,,,,,,,,,,,,,,,,,,,,,,,,,52,152194,21,Female,1,2024/02/13_12:14:57,YZ,59.96622750174633,
,,,,,,practice,0,35,3,788,3,V,0,right,0.5279948780080304,1,0,,,,,,,,,,,,,,,,,,,,,1,,,,,,,,,,,,,,,,,,,,,,,,,,,,,,,,,,,,,,,,,,,,,,52,152194,21,Female,1,2024/02/13_12:14:57,YZ,59.96622750174633,
,,,,,,practice,0,35,3,788,4,V,0,right,1.799636447991361,1,0,,,,,,,,,,,,,,,,,,,,,1,,,,,,,,,,,,,,,,,,,,,,,,,,,,,,,,,,,,,,,,,,,,,,52,152194,21,Female,1,2024/02/13_12:14:57,YZ,59.96622750174633,
,,,,,,practice,0,35,3,788,5,X,0,right,1.8949091660033446,1,0,,,,,,,,,,,,,,,,,,,,,1,,,,,,,,,,,,,,,,,,,,,,,,,,,,,,,,,,,,,,,,,,,,,,52,152194,21,Female,1,2024/02/13_12:14:57,YZ,59.96622750174633,
,,,,,,practice,0,35,3,788,6,V,1,left,0.8063995490083471,1,0,,,,,,,,,,,,,,,,,,,,,1,,,,,,,,,,,,,,,,,,,,,,,,,,,,,,,,,,,,,,,,,,,,,,52,152194,21,Female,1,2024/02/13_12:14:57,YZ,59.96622750174633,
,,,,,,practice,0,35,3,788,7,V,1,left,1.38030374700611,1,0,,,,,,,,,,,,,,,,,,,,,1,,,,,,,,,,,,,,,,,,,,,,,,,,,,,,,,,,,,,,,,,,,,,,52,152194,21,Female,1,2024/02/13_12:14:57,YZ,59.96622750174633,
,,,,,,practice,0,35,3,788,8,S,0,right,0.7090575870097382,1,0,,,,,,,,,,,,,,,,,,,,,1,,,,,,,,,,,,,,,,,,,,,,,,,,,,,,,,,,,,,,,,,,,,,,52,152194,21,Female,1,2024/02/13_12:14:57,YZ,59.96622750174633,
,,,,,,practice,0,35,3,788,9,V,1,right,0.9743969900009688,0,0,,,,,,,,,,,,,,,,,,,,,1,,,,,,,,,,,,,,,,,,,,,,,,,,,,,,,,,,,,,,,,,,,,,,52,152194,21,Female,1,2024/02/13_12:14:57,YZ,59.96622750174633,
,,,,,,practice,0,35,3,788,10,J,0,right,0.94045392901171,1,0,,,,,,,,,,,,,,,,,,,,,1,,,,,,,,,,,,,,,,,,,,,,,,,,,,,,,,,,,,,,,,,,,,,,52,152194,21,Female,1,2024/02/13_12:14:57,YZ,59.96622750174633,
,,,,,,practice,0,35,3,788,11,S,1,left,0.8451692069938872,1,0,,,,,,,,,,,,,,,,,,,,,1,,,,,,,,,,,,,,,,,,,,,,,,,,,,,,,,,,,,,,,,,,,,,,52,152194,21,Female,1,2024/02/13_12:14:57,YZ,59.96622750174633,
,,,,,,practice,0,35,3,788,12,N,0,right,1.3580393040028866,1,0,,,,,,,,,,,,,,,,,,,,,1,,,,,,,,,,,,,,,,,,,,,,,,,,,,,,,,,,,,,,,,,,,,,,52,152194,21,Female,1,2024/02/13_12:14:57,YZ,59.96622750174633,
,,,,,,practice,0,35,3,788,13,Q,0,right,1.4220585209986893,1,0,,,,,,,,,,,,,,,,,,,,,1,,,,,,,,,,,,,,,,,,,,,,,,,,,,,,,,,,,,,,,,,,,,,,52,152194,21,Female,1,2024/02/13_12:14:57,YZ,59.96622750174633,
,,,,,,practice,0,35,3,788,,,,,,,,0.9375,0.75,0.0,1.0,0.0,1.0,1.1186601850808633,3,0,0,0,0,9,12,4,9,0,,,,1,,,,,,,,,,,,,,,,,,,,,,,,,,,,,,,,,,,,,,,,,,,,,,52,152194,21,Female,1,2024/02/13_12:14:57,YZ,59.96622750174633,
1,./instructions/inst_prac_3_next/Slide49.png,right,3.206845651002368,587.8847929579933,591.0916386089957,,,,,,,,,,,,,,,,,,,,,,,,,,,,,,,,,1,,,,,,,,,,,,,,,,,,,,,,,,,,,,,,,,,,,,,,,,,,,,,,52,152194,21,Female,1,2024/02/13_12:14:57,YZ,59.96622750174633,
,,,,,,practice,0,25,3,1068,1,F,0,right,0.7340611639956478,1,0,,,,,,,,,,,,,,,,,,,,,1,,,,,,,,,,,,,,,,,,,,,,,,,,,,,,,,,,,,,,,,,,,,,,52,152194,21,Female,1,2024/02/13_12:14:57,YZ,59.96622750174633,
,,,,,,practice,0,25,3,1068,2,C,0,right,0.5227001540042693,1,0,,,,,,,,,,,,,,,,,,,,,1,,,,,,,,,,,,,,,,,,,,,,,,,,,,,,,,,,,,,,,,,,,,,,52,152194,21,Female,1,2024/02/13_12:14:57,YZ,59.96622750174633,
,,,,,,practice,0,25,3,1068,3,Q,0,right,0.3233316650002962,1,0,,,,,,,,,,,,,,,,,,,,,1,,,,,,,,,,,,,,,,,,,,,,,,,,,,,,,,,,,,,,,,,,,,,,52,152194,21,Female,1,2024/02/13_12:14:57,YZ,59.96622750174633,
,,,,,,practice,0,25,3,1068,4,S,0,right,0.30683219200000167,1,0,,,,,,,,,,,,,,,,,,,,,1,,,,,,,,,,,,,,,,,,,,,,,,,,,,,,,,,,,,,,,,,,,,,,52,152194,21,Female,1,2024/02/13_12:14:57,YZ,59.96622750174633,
,,,,,,practice,0,25,3,1068,5,C,1,right,0.3362415540032089,0,0,,,,,,,,,,,,,,,,,,,,,1,,,,,,,,,,,,,,,,,,,,,,,,,,,,,,,,,,,,,,,,,,,,,,52,152194,21,Female,1,2024/02/13_12:14:57,YZ,59.96622750174633,
,,,,,,practice,0,25,3,1068,6,Q,1,right,0.3508755439979723,0,0,,,,,,,,,,,,,,,,,,,,,1,,,,,,,,,,,,,,,,,,,,,,,,,,,,,,,,,,,,,,,,,,,,,,52,152194,21,Female,1,2024/02/13_12:14:57,YZ,59.96622750174633,
,,,,,,practice,0,25,3,1068,7,F,0,left,0.36307147100160364,0,0,,,,,,,,,,,,,,,,,,,,,1,,,,,,,,,,,,,,,,,,,,,,,,,,,,,,,,,,,,,,,,,,,,,,52,152194,21,Female,1,2024/02/13_12:14:57,YZ,59.96622750174633,
,,,,,,practice,0,25,3,1068,8,S,0,right,0.3200392620055936,1,0,,,,,,,,,,,,,,,,,,,,,1,,,,,,,,,,,,,,,,,,,,,,,,,,,,,,,,,,,,,,,,,,,,,,52,152194,21,Female,1,2024/02/13_12:14:57,YZ,59.96622750174633,
,,,,,,practice,0,25,3,1068,9,C,0,right,0.26638806200935505,1,0,,,,,,,,,,,,,,,,,,,,,1,,,,,,,,,,,,,,,,,,,,,,,,,,,,,,,,,,,,,,,,,,,,,,52,152194,21,Female,1,2024/02/13_12:14:57,YZ,59.96622750174633,
,,,,,,practice,0,25,3,1068,10,X,0,right,0.38081956199312117,1,0,,,,,,,,,,,,,,,,,,,,,1,,,,,,,,,,,,,,,,,,,,,,,,,,,,,,,,,,,,,,,,,,,,,,52,152194,21,Female,1,2024/02/13_12:14:57,YZ,59.96622750174633,
,,,,,,practice,0,25,3,1068,11,S,1,right,0.38609243799874093,0,0,,,,,,,,,,,,,,,,,,,,,1,,,,,,,,,,,,,,,,,,,,,,,,,,,,,,,,,,,,,,,,,,,,,,52,152194,21,Female,1,2024/02/13_12:14:57,YZ,59.96622750174633,
,,,,,,practice,0,25,3,1068,,,,,,,,0.21875,0.0,0.125,0.875,0.0,0.875,0.3900411880008919,0,1,0,0,0,7,7,3,8,0,,,,1,,,,,,,,,,,,,,,,,,,,,,,,,,,,,,,,,,,,,,,,,,,,,,52,152194,21,Female,1,2024/02/13_12:14:57,YZ,59.96622750174633,
,,,,,,practice,0,6,3,1068,1,X,0,right,0.5004373480041977,1,0,,,,,,,,,,,,,,,,,,,,,1,,,,,,,,,,,,,,,,,,,,,,,,,,,,,,,,,,,,,,,,,,,,,,52,152194,21,Female,1,2024/02/13_12:14:57,YZ,59.96622750174633,
,,,,,,practice,0,6,3,1068,2,N,0,right,0.396682865000912,1,0,,,,,,,,,,,,,,,,,,,,,1,,,,,,,,,,,,,,,,,,,,,,,,,,,,,,,,,,,,,,,,,,,,,,52,152194,21,Female,1,2024/02/13_12:14:57,YZ,59.96622750174633,
,,,,,,practice,0,6,3,1068,3,S,0,right,0.4586859049886698,1,0,,,,,,,,,,,,,,,,,,,,,1,,,,,,,,,,,,,,,,,,,,,,,,,,,,,,,,,,,,,,,,,,,,,,52,152194,21,Female,1,2024/02/13_12:14:57,YZ,59.96622750174633,
,,,,,,practice,0,6,3,1068,4,F,0,right,0.43478753700037487,1,0,,,,,,,,,,,,,,,,,,,,,1,,,,,,,,,,,,,,,,,,,,,,,,,,,,,,,,,,,,,,,,,,,,,,52,152194,21,Female,1,2024/02/13_12:14:57,YZ,59.96622750174633,
,,,,,,practice,0,6,3,1068,5,N,1,left,0.6854186510026921,1,0,,,,,,,,,,,,,,,,,,,,,1,,,,,,,,,,,,,,,,,,,,,,,,,,,,,,,,,,,,,,,,,,,,,,52,152194,21,Female,1,2024/02/13_12:14:57,YZ,59.96622750174633,
,,,,,,practice,0,6,3,1068,6,V,0,right,0.6572554489976028,1,0,,,,,,,,,,,,,,,,,,,,,1,,,,,,,,,,,,,,,,,,,,,,,,,,,,,,,,,,,,,,,,,,,,,,52,152194,21,Female,1,2024/02/13_12:14:57,YZ,59.96622750174633,
,,,,,,practice,0,6,3,1068,7,C,0,left,0.802883042008034,0,0,,,,,,,,,,,,,,,,,,,,,1,,,,,,,,,,,,,,,,,,,,,,,,,,,,,,,,,,,,,,,,,,,,,,52,152194,21,Female,1,2024/02/13_12:14:57,YZ,59.96622750174633,
,,,,,,practice,0,6,3,1068,8,V,0,right,0.5073271400033263,1,0,,,,,,,,,,,,,,,,,,,,,1,,,,,,,,,,,,,,,,,,,,,,,,,,,,,,,,,,,,,,,,,,,,,,52,152194,21,Female,1,2024/02/13_12:14:57,YZ,59.96622750174633,
,,,,,,practice,0,6,3,1068,9,V,1,right,0.9151831400085939,0,0,,,,,,,,,,,,,,,,,,,,,1,,,,,,,,,,,,,,,,,,,,,,,,,,,,,,,,,,,,,,,,,,,,,,52,152194,21,Female,1,2024/02/13_12:14:57,YZ,59.96622750174633,
,,,,,,practice,0,6,3,1068,10,F,0,right,1.301455844004522,1,0,,,,,,,,,,,,,,,,,,,,,1,,,,,,,,,,,,,,,,,,,,,,,,,,,,,,,,,,,,,,,,,,,,,,52,152194,21,Female,1,2024/02/13_12:14:57,YZ,59.96622750174633,
,,,,,,practice,0,6,3,1068,11,V,1,right,0.6947386419924442,0,0,,,,,,,,,,,,,,,,,,,,,1,,,,,,,,,,,,,,,,,,,,,,,,,,,,,,,,,,,,,,,,,,,,,,52,152194,21,Female,1,2024/02/13_12:14:57,YZ,59.96622750174633,
,,,,,,practice,0,6,3,1068,,,,,,,,0.7083333333333334,0.3333333333333333,0.125,0.875,0.0,0.875,0.6686232330010337,1,1,0,0,0,7,8,3,8,0,,,,1,,,,,,,,,,,,,,,,,,,,,,,,,,,,,,,,,,,,,,,,,,,,,,52,152194,21,Female,1,2024/02/13_12:14:57,YZ,59.96622750174633,
1,./instructions/inst_redo_3/Slide47.png,right,7.201290842000162,616.9302307530015,624.1315215950017,,,,,,,,,,,,,,,,,,,,,,,,,,,,,,,,,1,,,,,,,,,,,,,,,,,,,,,,,,,,,,,,,,,,,,,,,,,,,,,,52,152194,21,Female,1,2024/02/13_12:14:57,YZ,59.96622750174633,
,,,,,,practice,0,4,3,1068,1,J,0,right,0.5164781689964002,1,0,,,,,,,,,,,,,,,,,,,,,1,,,,,,,,,,,,,,,,,,,,,,,,,,,,,,,,,,,,,,,,,,,,,,52,152194,21,Female,1,2024/02/13_12:14:57,YZ,59.96622750174633,
,,,,,,practice,0,4,3,1068,2,F,0,right,1.6102177389984718,1,0,,,,,,,,,,,,,,,,,,,,,1,,,,,,,,,,,,,,,,,,,,,,,,,,,,,,,,,,,,,,,,,,,,,,52,152194,21,Female,1,2024/02/13_12:14:57,YZ,59.96622750174633,
,,,,,,practice,0,4,3,1068,3,Q,0,right,0.7251605760102393,1,0,,,,,,,,,,,,,,,,,,,,,1,,,,,,,,,,,,,,,,,,,,,,,,,,,,,,,,,,,,,,,,,,,,,,52,152194,21,Female,1,2024/02/13_12:14:57,YZ,59.96622750174633,
,,,,,,practice,0,4,3,1068,4,J,1,left,0.44358479499351233,1,0,,,,,,,,,,,,,,,,,,,,,1,,,,,,,,,,,,,,,,,,,,,,,,,,,,,,,,,,,,,,,,,,,,,,52,152194,21,Female,1,2024/02/13_12:14:57,YZ,59.96622750174633,
,,,,,,practice,0,4,3,1068,5,Q,0,right,1.0942031949962256,1,0,,,,,,,,,,,,,,,,,,,,,1,,,,,,,,,,,,,,,,,,,,,,,,,,,,,,,,,,,,,,,,,,,,,,52,152194,21,Female,1,2024/02/13_12:14:57,YZ,59.96622750174633,
,,,,,,practice,0,4,3,1068,6,Q,1,right,1.3855462189967511,0,0,,,,,,,,,,,,,,,,,,,,,1,,,,,,,,,,,,,,,,,,,,,,,,,,,,,,,,,,,,,,,,,,,,,,52,152194,21,Female,1,2024/02/13_12:14:57,YZ,59.96622750174633,
,,,,,,practice,0,4,3,1068,7,J,1,right,0.5669282380113145,0,0,,,,,,,,,,,,,,,,,,,,,1,,,,,,,,,,,,,,,,,,,,,,,,,,,,,,,,,,,,,,,,,,,,,,52,152194,21,Female,1,2024/02/13_12:14:57,YZ,59.96622750174633,
,,,,,,practice,0,4,3,1068,8,S,0,right,0.9492738429980818,1,0,,,,,,,,,,,,,,,,,,,,,1,,,,,,,,,,,,,,,,,,,,,,,,,,,,,,,,,,,,,,,,,,,,,,52,152194,21,Female,1,2024/02/13_12:14:57,YZ,59.96622750174633,
,,,,,,practice,0,4,3,1068,9,V,0,right,0.6916336299909744,1,0,,,,,,,,,,,,,,,,,,,,,1,,,,,,,,,,,,,,,,,,,,,,,,,,,,,,,,,,,,,,,,,,,,,,52,152194,21,Female,1,2024/02/13_12:14:57,YZ,59.96622750174633,
,,,,,,practice,0,4,3,1068,10,S,0,right,0.39551020799262915,1,0,,,,,,,,,,,,,,,,,,,,,1,,,,,,,,,,,,,,,,,,,,,,,,,,,,,,,,,,,,,,,,,,,,,,52,152194,21,Female,1,2024/02/13_12:14:57,YZ,59.96622750174633,
,,,,,,practice,0,4,3,1068,11,N,0,right,0.3266726599977119,1,0,,,,,,,,,,,,,,,,,,,,,1,,,,,,,,,,,,,,,,,,,,,,,,,,,,,,,,,,,,,,,,,,,,,,52,152194,21,Female,1,2024/02/13_12:14:57,YZ,59.96622750174633,
,,,,,,practice,0,4,3,1068,,,,,,,,0.8333333333333334,0.3333333333333333,0.0,1.0,0.0,1.0,0.7913826610893011,1,0,0,0,0,8,9,3,8,0,,,,1,,,,,,,,,,,,,,,,,,,,,,,,,,,,,,,,,,,,,,,,,,,,,,52,152194,21,Female,1,2024/02/13_12:14:57,YZ,59.96622750174633,
1,./instructions/inst_prac_main/Slide51.png,right,3.651885293991654,641.2397565360006,644.8916418299923,,,,,,,,,,,,,,,,,,,,,,,,,,,,,,,,,1,,,,,,,,,,,,,,,,,,,,,,,,,,,,,,,,,,,,,,,,,,,,,,52,152194,21,Female,1,2024/02/13_12:14:57,YZ,59.96622750174633,
2,./instructions/inst_prac_main/Slide52.png,right,8.093116996999015,644.9502973600029,653.0434143570019,,,,,,,,,,,,,,,,,,,,,,,,,,,,,,,,,1,,,,,,,,,,,,,,,,,,,,,,,,,,,,,,,,,,,,,,,,,,,,,,52,152194,21,Female,1,2024/02/13_12:14:57,YZ,59.96622750174633,
1,./instructions/inst_prac_main/Slide53.png,left,6.729530868004076,653.1057705589919,659.835301426996,,,,,,,,,,,,,,,,,,,,,,,,,,,,,,,,,1,,,,,,,,,,,,,,,,,,,,,,,,,,,,,,,,,,,,,,,,,,,,,,52,152194,21,Female,1,2024/02/13_12:14:57,YZ,59.96622750174633,
0,./instructions/inst_prac_main/Slide52.png,left,0.20051331199647393,659.8759980640025,660.076511375999,,,,,,,,,,,,,,,,,,,,,,,,,,,,,,,,,1,,,,,,,,,,,,,,,,,,,,,,,,,,,,,,,,,,,,,,,,,,,,,,52,152194,21,Female,1,2024/02/13_12:14:57,YZ,59.96622750174633,
-1,./instructions/inst_prac_main/Slide51.png,left,0.20043903500481974,660.1033968429983,660.3038358780032,,,,,,,,,,,,,,,,,,,,,,,,,,,,,,,,,1,,,,,,,,,,,,,,,,,,,,,,,,,,,,,,,,,,,,,,,,,,,,,,52,152194,21,Female,1,2024/02/13_12:14:57,YZ,59.96622750174633,
0,./instructions/inst_prac_main/Slide54.png,right,4.294305463001365,660.3571696589934,664.6514751219947,,,,,,,,,,,,,,,,,,,,,,,,,,,,,,,,,1,,,,,,,,,,,,,,,,,,,,,,,,,,,,,,,,,,,,,,,,,,,,,,52,152194,21,Female,1,2024/02/13_12:14:57,YZ,59.96622750174633,
1,./instructions/inst_prac_main/Slide51.png,right,1.433531258997391,664.682114205003,666.1156454640004,,,,,,,,,,,,,,,,,,,,,,,,,,,,,,,,,1,,,,,,,,,,,,,,,,,,,,,,,,,,,,,,,,,,,,,,,,,,,,,,52,152194,21,Female,1,2024/02/13_12:14:57,YZ,59.96622750174633,
2,./instructions/inst_prac_main/Slide52.png,right,3.70366417299374,666.155920033998,669.8595842069917,,,,,,,,,,,,,,,,,,,,,,,,,,,,,,,,,1,,,,,,,,,,,,,,,,,,,,,,,,,,,,,,,,,,,,,,,,,,,,,,52,152194,21,Female,1,2024/02/13_12:14:57,YZ,59.96622750174633,
1,./instructions/inst_prac_main/Slide53.png,left,2.5354077639931347,669.9001489799994,672.4355567439925,,,,,,,,,,,,,,,,,,,,,,,,,,,,,,,,,1,,,,,,,,,,,,,,,,,,,,,,,,,,,,,,,,,,,,,,,,,,,,,,52,152194,21,Female,1,2024/02/13_12:14:57,YZ,59.96622750174633,
0,./instructions/inst_prac_main/Slide52.png,left,0.2005047279963037,672.4755101850023,672.6760149129987,,,,,,,,,,,,,,,,,,,,,,,,,,,,,,,,,1,,,,,,,,,,,,,,,,,,,,,,,,,,,,,,,,,,,,,,,,,,,,,,52,152194,21,Female,1,2024/02/13_12:14:57,YZ,59.96622750174633,
-1,./instructions/inst_prac_main/Slide51.png,left,0.20050594500207808,672.7029008519894,672.9034067969915,,,,,,,,,,,,,,,,,,,,,,,,,,,,,,,,,1,,,,,,,,,,,,,,,,,,,,,,,,,,,,,,,,,,,,,,,,,,,,,,52,152194,21,Female,1,2024/02/13_12:14:57,YZ,59.96622750174633,
-2,./instructions/inst_prac_main/Slide54.png,left,0.2005194339872105,672.9378507380025,673.1383701719897,,,,,,,,,,,,,,,,,,,,,,,,,,,,,,,,,1,,,,,,,,,,,,,,,,,,,,,,,,,,,,,,,,,,,,,,,,,,,,,,52,152194,21,Female,1,2024/02/13_12:14:57,YZ,59.96622750174633,
-3,./instructions/inst_prac_main/Slide53.png,left,5.689799701998709,673.1697358359961,678.8595355379948,,,,,,,,,,,,,,,,,,,,,,,,,,,,,,,,,1,,,,,,,,,,,,,,,,,,,,,,,,,,,,,,,,,,,,,,,,,,,,,,52,152194,21,Female,1,2024/02/13_12:14:57,YZ,59.96622750174633,
-4,./instructions/inst_prac_main/Slide52.png,left,0.20100851899769623,678.9018700419983,679.102878560996,,,,,,,,,,,,,,,,,,,,,,,,,,,,,,,,,1,,,,,,,,,,,,,,,,,,,,,,,,,,,,,,,,,,,,,,,,,,,,,,52,152194,21,Female,1,2024/02/13_12:14:57,YZ,59.96622750174633,
,,,,,,practice_main,0,1,1,1068,1,S,0,right,0.5818797190004261,1,0,,,,,,,,,,,,,,,,,,,,,1,,,,,,,,,,,,,,,,,,,,,,,,,,,,,,,,,,,,,,,,,,,,,,52,152194,21,Female,1,2024/02/13_12:14:57,YZ,59.96622750174633,
,,,,,,practice_main,0,1,1,1068,2,V,0,right,0.6282257970015053,1,0,,,,,,,,,,,,,,,,,,,,,1,,,,,,,,,,,,,,,,,,,,,,,,,,,,,,,,,,,,,,,,,,,,,,52,152194,21,Female,1,2024/02/13_12:14:57,YZ,59.96622750174633,
,,,,,,practice_main,0,1,1,1068,3,F,0,right,0.46055392699781805,1,0,,,,,,,,,,,,,,,,,,,,,1,,,,,,,,,,,,,,,,,,,,,,,,,,,,,,,,,,,,,,,,,,,,,,52,152194,21,Female,1,2024/02/13_12:14:57,YZ,59.96622750174633,
,,,,,,practice_main,0,1,1,1068,4,F,1,left,0.6441687579936115,1,0,,,,,,,,,,,,,,,,,,,,,1,,,,,,,,,,,,,,,,,,,,,,,,,,,,,,,,,,,,,,,,,,,,,,52,152194,21,Female,1,2024/02/13_12:14:57,YZ,59.96622750174633,
,,,,,,practice_main,0,1,1,1068,5,S,0,right,0.49873657400894444,1,0,,,,,,,,,,,,,,,,,,,,,1,,,,,,,,,,,,,,,,,,,,,,,,,,,,,,,,,,,,,,,,,,,,,,52,152194,21,Female,1,2024/02/13_12:14:57,YZ,59.96622750174633,
,,,,,,practice_main,0,1,1,1068,6,C,0,right,0.4518065260053845,1,0,,,,,,,,,,,,,,,,,,,,,1,,,,,,,,,,,,,,,,,,,,,,,,,,,,,,,,,,,,,,,,,,,,,,52,152194,21,Female,1,2024/02/13_12:14:57,YZ,59.96622750174633,
,,,,,,practice_main,0,1,1,1068,7,Q,0,right,0.4758421229926171,1,0,,,,,,,,,,,,,,,,,,,,,1,,,,,,,,,,,,,,,,,,,,,,,,,,,,,,,,,,,,,,,,,,,,,,52,152194,21,Female,1,2024/02/13_12:14:57,YZ,59.96622750174633,
,,,,,,practice_main,0,1,1,1068,8,F,0,right,0.4000146660109749,1,0,,,,,,,,,,,,,,,,,,,,,1,,,,,,,,,,,,,,,,,,,,,,,,,,,,,,,,,,,,,,,,,,,,,,52,152194,21,Female,1,2024/02/13_12:14:57,YZ,59.96622750174633,
,,,,,,practice_main,0,1,1,1068,9,F,1,left,0.4210213369951816,1,0,,,,,,,,,,,,,,,,,,,,,1,,,,,,,,,,,,,,,,,,,,,,,,,,,,,,,,,,,,,,,,,,,,,,52,152194,21,Female,1,2024/02/13_12:14:57,YZ,59.96622750174633,
,,,,,,practice_main,0,1,1,1068,10,N,0,right,0.4851605349977035,1,0,,,,,,,,,,,,,,,,,,,,,1,,,,,,,,,,,,,,,,,,,,,,,,,,,,,,,,,,,,,,,,,,,,,,52,152194,21,Female,1,2024/02/13_12:14:57,YZ,59.96622750174633,
,,,,,,practice_main,0,1,1,1068,11,N,1,left,0.5794732619979186,1,0,,,,,,,,,,,,,,,,,,,,,1,,,,,,,,,,,,,,,,,,,,,,,,,,,,,,,,,,,,,,,,,,,,,,52,152194,21,Female,1,2024/02/13_12:14:57,YZ,59.96622750174633,
,,,,,,practice_main,0,1,1,1068,,,,,,,,1.0,1.0,0.0,1.0,0.0,1.0,0.5115348385456442,3,0,0,0,0,8,11,3,8,0,,,,1,,,,,,,,,,,,,,,,,,,,,,,,,,,,,,,,,,,,,,,,,,,,,,52,152194,21,Female,1,2024/02/13_12:14:57,YZ,59.96622750174633,
,,,,,240213_130912,PRACTICE,0,1,1,1068,,,,,,,,,,,,,,,,,,,,,,,,,,,,1,6,2,1,cue2.png,easy,B,33,1.2009862900013104,0,690.7562043749931,691.9795154780004,,,,,,,,,,,,,,,,,,,,,,,,,,,,,,,,,,,52,152194,21,Female,1,2024/02/13_12:14:57,YZ,59.96622750174633,
,,,,,,practice_main,0,2,1,1068,1,N,0,right,0.41052912300801836,1,0,,,,,,,,,,,,,,,,,,,,,1,,,,,,,,,,,,,,,,,,,,,,,,,,,,,,,,,,,,,,,,,,,,,,52,152194,21,Female,1,2024/02/13_12:14:57,YZ,59.96622750174633,
,,,,,,practice_main,0,2,1,1068,2,Q,0,right,0.36771562199282926,1,0,,,,,,,,,,,,,,,,,,,,,1,,,,,,,,,,,,,,,,,,,,,,,,,,,,,,,,,,,,,,,,,,,,,,52,152194,21,Female,1,2024/02/13_12:14:57,YZ,59.96622750174633,
,,,,,,practice_main,0,2,1,1068,3,Q,1,right,0.41590300100506283,0,0,,,,,,,,,,,,,,,,,,,,,1,,,,,,,,,,,,,,,,,,,,,,,,,,,,,,,,,,,,,,,,,,,,,,52,152194,21,Female,1,2024/02/13_12:14:57,YZ,59.96622750174633,
,,,,,,practice_main,0,2,1,1068,4,X,0,left,0.4446073709987104,0,0,,,,,,,,,,,,,,,,,,,,,1,,,,,,,,,,,,,,,,,,,,,,,,,,,,,,,,,,,,,,,,,,,,,,52,152194,21,Female,1,2024/02/13_12:14:57,YZ,59.96622750174633,
,,,,,,practice_main,0,2,1,1068,5,X,1,left,0.49788483200245537,1,0,,,,,,,,,,,,,,,,,,,,,1,,,,,,,,,,,,,,,,,,,,,,,,,,,,,,,,,,,,,,,,,,,,,,52,152194,21,Female,1,2024/02/13_12:14:57,YZ,59.96622750174633,
,,,,,,practice_main,0,2,1,1068,6,S,0,right,0.4134577530057868,1,0,,,,,,,,,,,,,,,,,,,,,1,,,,,,,,,,,,,,,,,,,,,,,,,,,,,,,,,,,,,,,,,,,,,,52,152194,21,Female,1,2024/02/13_12:14:57,YZ,59.96622750174633,
,,,,,,practice_main,0,2,1,1068,7,J,0,right,0.49011540999345016,1,0,,,,,,,,,,,,,,,,,,,,,1,,,,,,,,,,,,,,,,,,,,,,,,,,,,,,,,,,,,,,,,,,,,,,52,152194,21,Female,1,2024/02/13_12:14:57,YZ,59.96622750174633,
,,,,,,practice_main,0,2,1,1068,8,J,1,left,0.5627766440011328,1,0,,,,,,,,,,,,,,,,,,,,,1,,,,,,,,,,,,,,,,,,,,,,,,,,,,,,,,,,,,,,,,,,,,,,52,152194,21,Female,1,2024/02/13_12:14:57,YZ,59.96622750174633,
,,,,,,practice_main,0,2,1,1068,9,Q,0,right,0.4652573899948038,1,0,,,,,,,,,,,,,,,,,,,,,1,,,,,,,,,,,,,,,,,,,,,,,,,,,,,,,,,,,,,,,,,,,,,,52,152194,21,Female,1,2024/02/13_12:14:57,YZ,59.96622750174633,
,,,,,,practice_main,0,2,1,1068,10,S,0,left,0.3627707690029638,0,0,,,,,,,,,,,,,,,,,,,,,1,,,,,,,,,,,,,,,,,,,,,,,,,,,,,,,,,,,,,,,,,,,,,,52,152194,21,Female,1,2024/02/13_12:14:57,YZ,59.96622750174633,
,,,,,,practice_main,0,2,1,1068,11,F,0,right,0.4301782350084977,1,0,,,,,,,,,,,,,,,,,,,,,1,,,,,,,,,,,,,,,,,,,,,,,,,,,,,,,,,,,,,,,,,,,,,,52,152194,21,Female,1,2024/02/13_12:14:57,YZ,59.96622750174633,
,,,,,,practice_main,0,2,1,1068,,,,,,,,0.7708333333333333,0.6666666666666666,0.25,0.75,0.0,0.75,0.4419269227285192,2,2,0,0,0,6,8,3,8,0,,,,1,,,,,,,,,,,,,,,,,,,,,,,,,,,,,,,,,,,,,,,,,,,,,,52,152194,21,Female,1,2024/02/13_12:14:57,YZ,59.96622750174633,
,,,,,240213_130933,PRACTICE,0,2,1,1068,,,,,,,,,,,,,,,,,,,,,,,,,,,,1,15,3,2,cue2.png,easy,B,32,1.3342518669960555,0,712.5736548260029,713.9265183109965,,,,,,,,,,,,,,,,,,,,,,,,,,,,,,,,,,,52,152194,21,Female,1,2024/02/13_12:14:57,YZ,59.96622750174633,
,,,,,,practice_main,0,3,1,1068,1,J,0,right,0.49682372699317057,1,0,,,,,,,,,,,,,,,,,,,,,1,,,,,,,,,,,,,,,,,,,,,,,,,,,,,,,,,,,,,,,,,,,,,,52,152194,21,Female,1,2024/02/13_12:14:57,YZ,59.96622750174633,
,,,,,,practice_main,0,3,1,1068,2,J,1,left,0.374184009997407,1,0,,,,,,,,,,,,,,,,,,,,,1,,,,,,,,,,,,,,,,,,,,,,,,,,,,,,,,,,,,,,,,,,,,,,52,152194,21,Female,1,2024/02/13_12:14:57,YZ,59.96622750174633,
,,,,,,practice_main,0,3,1,1068,3,C,0,right,0.37303894000069704,1,0,,,,,,,,,,,,,,,,,,,,,1,,,,,,,,,,,,,,,,,,,,,,,,,,,,,,,,,,,,,,,,,,,,,,52,152194,21,Female,1,2024/02/13_12:14:57,YZ,59.96622750174633,
,,,,,,practice_main,0,3,1,1068,4,V,0,left,0.48620378600026015,0,0,,,,,,,,,,,,,,,,,,,,,1,,,,,,,,,,,,,,,,,,,,,,,,,,,,,,,,,,,,,,,,,,,,,,52,152194,21,Female,1,2024/02/13_12:14:57,YZ,59.96622750174633,
,,,,,,practice_main,0,3,1,1068,5,C,0,right,0.7616237879992696,1,0,,,,,,,,,,,,,,,,,,,,,1,,,,,,,,,,,,,,,,,,,,,,,,,,,,,,,,,,,,,,,,,,,,,,52,152194,21,Female,1,2024/02/13_12:14:57,YZ,59.96622750174633,
,,,,,,practice_main,0,3,1,1068,6,C,1,left,0.597796425994602,1,0,,,,,,,,,,,,,,,,,,,,,1,,,,,,,,,,,,,,,,,,,,,,,,,,,,,,,,,,,,,,,,,,,,,,52,152194,21,Female,1,2024/02/13_12:14:57,YZ,59.96622750174633,
,,,,,,practice_main,0,3,1,1068,7,F,0,right,0.4975273059972096,1,0,,,,,,,,,,,,,,,,,,,,,1,,,,,,,,,,,,,,,,,,,,,,,,,,,,,,,,,,,,,,,,,,,,,,52,152194,21,Female,1,2024/02/13_12:14:57,YZ,59.96622750174633,
,,,,,,practice_main,0,3,1,1068,8,V,0,left,0.5113718650100054,0,0,,,,,,,,,,,,,,,,,,,,,1,,,,,,,,,,,,,,,,,,,,,,,,,,,,,,,,,,,,,,,,,,,,,,52,152194,21,Female,1,2024/02/13_12:14:57,YZ,59.96622750174633,
,,,,,,practice_main,0,3,1,1068,9,V,1,left,0.45130844399682246,1,0,,,,,,,,,,,,,,,,,,,,,1,,,,,,,,,,,,,,,,,,,,,,,,,,,,,,,,,,,,,,,,,,,,,,52,152194,21,Female,1,2024/02/13_12:14:57,YZ,59.96622750174633,
,,,,,,practice_main,0,3,1,1068,10,Q,0,right,0.3602223260095343,1,0,,,,,,,,,,,,,,,,,,,,,1,,,,,,,,,,,,,,,,,,,,,,,,,,,,,,,,,,,,,,,,,,,,,,52,152194,21,Female,1,2024/02/13_12:14:57,YZ,59.96622750174633,
,,,,,,practice_main,0,3,1,1068,11,X,0,right,0.47704239799350034,1,0,,,,,,,,,,,,,,,,,,,,,1,,,,,,,,,,,,,,,,,,,,,,,,,,,,,,,,,,,,,,,,,,,,,,52,152194,21,Female,1,2024/02/13_12:14:57,YZ,59.96622750174633,
,,,,,,practice_main,0,3,1,1068,,,,,,,,0.9375,1.0,0.25,0.75,0.0,0.75,0.4897402741811344,3,2,0,0,0,6,9,3,8,0,,,,1,,,,,,,,,,,,,,,,,,,,,,,,,,,,,,,,,,,,,,,,,,,,,,52,152194,21,Female,1,2024/02/13_12:14:57,YZ,59.96622750174633,
,,,,,240213_130955,PRACTICE,0,3,1,1068,,,,,,,,,,,,,,,,,,,,,,,,,,,,1,36,4,3,cue2.png,easy,B,31,1.2839663540071342,0,733.7055842769914,735.0111595880007,,,,,,,,,,,,,,,,,,,,,,,,,,,,,,,,,,,52,152194,21,Female,1,2024/02/13_12:14:57,YZ,59.96622750174633,
1,./instructions/inst_prac_end/Slide56.png,right,14.856830228003673,753.8825285889907,768.7393588169944,,,,,,,,,,,,,,,,,,,,,,,,,,,,,,,,,1,,,,,,,,,,,,,,,,,,,,,,,,,,,,,,,,,,,,,,,,,,,,,,52,152194,21,Female,1,2024/02/13_12:14:57,YZ,59.96622750174633,
1,./instructions/inst_test/Slide57.png,right,28.16397592499561,768.8394904599991,797.0034663849947,,,,,,,,,,,,,,,,,,,,,,,,,,,,,,,,,1,,,,,,,,,,,,,,,,,,,,,,,,,,,,,,,,,,,,,,,,,,,,,,52,152194,21,Female,1,2024/02/13_12:14:57,YZ,59.96622750174633,
,,,,,,test,1,1,1,1068,1,N,0,right,0.40874777898716275,1,0,,,,,,,,,,,,,,,,,,,,,1,,,,,,,,,,,,,,,,,,,,,,,,,,,,,,,,,,,,,,,,,,,,,,52,152194,21,Female,1,2024/02/13_12:14:57,YZ,59.96622750174633,
,,,,,,test,1,1,1,1068,2,F,0,right,0.38898882499779575,1,0,,,,,,,,,,,,,,,,,,,,,1,,,,,,,,,,,,,,,,,,,,,,,,,,,,,,,,,,,,,,,,,,,,,,52,152194,21,Female,1,2024/02/13_12:14:57,YZ,59.96622750174633,
,,,,,,test,1,1,1,1068,3,Q,0,right,0.4199245019990485,1,0,,,,,,,,,,,,,,,,,,,,,1,,,,,,,,,,,,,,,,,,,,,,,,,,,,,,,,,,,,,,,,,,,,,,52,152194,21,Female,1,2024/02/13_12:14:57,YZ,59.96622750174633,
,,,,,,test,1,1,1,1068,4,N,0,right,0.3411220690031769,1,0,,,,,,,,,,,,,,,,,,,,,1,,,,,,,,,,,,,,,,,,,,,,,,,,,,,,,,,,,,,,,,,,,,,,52,152194,21,Female,1,2024/02/13_12:14:57,YZ,59.96622750174633,
,,,,,,test,1,1,1,1068,5,N,1,right,0.37521486601326615,0,0,,,,,,,,,,,,,,,,,,,,,1,,,,,,,,,,,,,,,,,,,,,,,,,,,,,,,,,,,,,,,,,,,,,,52,152194,21,Female,1,2024/02/13_12:14:57,YZ,59.96622750174633,
,,,,,,test,1,1,1,1068,6,S,0,right,0.38589077099459246,1,0,,,,,,,,,,,,,,,,,,,,,1,,,,,,,,,,,,,,,,,,,,,,,,,,,,,,,,,,,,,,,,,,,,,,52,152194,21,Female,1,2024/02/13_12:14:57,YZ,59.96622750174633,
,,,,,,test,1,1,1,1068,7,Q,0,right,0.42313224700046703,1,0,,,,,,,,,,,,,,,,,,,,,1,,,,,,,,,,,,,,,,,,,,,,,,,,,,,,,,,,,,,,,,,,,,,,52,152194,21,Female,1,2024/02/13_12:14:57,YZ,59.96622750174633,
,,,,,,test,1,1,1,1068,8,Q,1,left,0.38292410899885,1,0,,,,,,,,,,,,,,,,,,,,,1,,,,,,,,,,,,,,,,,,,,,,,,,,,,,,,,,,,,,,,,,,,,,,52,152194,21,Female,1,2024/02/13_12:14:57,YZ,59.96622750174633,
,,,,,,test,1,1,1,1068,9,F,0,right,0.3806934450112749,1,0,,,,,,,,,,,,,,,,,,,,,1,,,,,,,,,,,,,,,,,,,,,,,,,,,,,,,,,,,,,,,,,,,,,,52,152194,21,Female,1,2024/02/13_12:14:57,YZ,59.96622750174633,
,,,,,,test,1,1,1,1068,10,S,0,right,0.43193873899872415,1,0,,,,,,,,,,,,,,,,,,,,,1,,,,,,,,,,,,,,,,,,,,,,,,,,,,,,,,,,,,,,,,,,,,,,52,152194,21,Female,1,2024/02/13_12:14:57,YZ,59.96622750174633,
,,,,,,test,1,1,1,1068,11,S,1,left,0.38198140100575984,1,0,,,,,,,,,,,,,,,,,,,,,1,,,,,,,,,,,,,,,,,,,,,,,,,,,,,,,,,,,,,,,,,,,,,,52,152194,21,Female,1,2024/02/13_12:14:57,YZ,59.96622750174633,
,,,,,,Test,1,1,1,1068,,,,,,,,0.9166666666666666,0.6666666666666666,0.0,1.0,0.0,1.0,0.3927780684554653,2,0,0,0,0,8,10,3,8,0,,,,1,,,,,,,,,,,,,,,,,,,,,,,,,,,,,,,,,,,,,,,,,,,,,,52,152194,21,Female,1,2024/02/13_12:14:57,YZ,59.96622750174633,
,,,,,240213_131102,TEST,1,1,1,1068,,,,,,,,,,,,,,,,,,,,,,,,,,,,1,1,1,1,cue2.png,easy,B,23,1.0216760969924508,0,802.0534137149953,803.1121106060018,,,,,,,,,,,,,,,,,,,,,,,,,,,,,,,,,,,52,152194,21,Female,1,2024/02/13_12:14:57,YZ,59.96622750174633,
,,,,,,test,1,2,3,1068,1,J,0,right,0.4705715789896203,1,0,,,,,,,,,,,,,,,,,,,,,1,,,,,,,,,,,,,,,,,,,,,,,,,,,,,,,,,,,,,,,,,,,,,,52,152194,21,Female,1,2024/02/13_12:14:57,YZ,59.96622750174633,
,,,,,,test,1,2,3,1068,2,V,0,right,0.29805342899635434,1,0,,,,,,,,,,,,,,,,,,,,,1,,,,,,,,,,,,,,,,,,,,,,,,,,,,,,,,,,,,,,,,,,,,,,52,152194,21,Female,1,2024/02/13_12:14:57,YZ,59.96622750174633,
,,,,,,test,1,2,3,1068,3,N,0,right,0.28805914100666996,1,0,,,,,,,,,,,,,,,,,,,,,1,,,,,,,,,,,,,,,,,,,,,,,,,,,,,,,,,,,,,,,,,,,,,,52,152194,21,Female,1,2024/02/13_12:14:57,YZ,59.96622750174633,
,,,,,,test,1,2,3,1068,4,Q,0,right,0.3586380690103397,1,0,,,,,,,,,,,,,,,,,,,,,1,,,,,,,,,,,,,,,,,,,,,,,,,,,,,,,,,,,,,,,,,,,,,,52,152194,21,Female,1,2024/02/13_12:14:57,YZ,59.96622750174633,
,,,,,,test,1,2,3,1068,5,Q,0,left,0.5673972860095091,0,0,,,,,,,,,,,,,,,,,,,,,1,,,,,,,,,,,,,,,,,,,,,,,,,,,,,,,,,,,,,,,,,,,,,,52,152194,21,Female,1,2024/02/13_12:14:57,YZ,59.96622750174633,
,,,,,,test,1,2,3,1068,6,N,1,right,0.33428549600648694,0,0,,,,,,,,,,,,,,,,,,,,,1,,,,,,,,,,,,,,,,,,,,,,,,,,,,,,,,,,,,,,,,,,,,,,52,152194,21,Female,1,2024/02/13_12:14:57,YZ,59.96622750174633,
,,,,,,test,1,2,3,1068,7,F,0,right,0.430685879997327,1,0,,,,,,,,,,,,,,,,,,,,,1,,,,,,,,,,,,,,,,,,,,,,,,,,,,,,,,,,,,,,,,,,,,,,52,152194,21,Female,1,2024/02/13_12:14:57,YZ,59.96622750174633,
,,,,,,test,1,2,3,1068,8,Q,1,left,0.46688704501139,1,0,,,,,,,,,,,,,,,,,,,,,1,,,,,,,,,,,,,,,,,,,,,,,,,,,,,,,,,,,,,,,,,,,,,,52,152194,21,Female,1,2024/02/13_12:14:57,YZ,59.96622750174633,
,,,,,,test,1,2,3,1068,9,N,1,right,0.24552607400983106,0,0,,,,,,,,,,,,,,,,,,,,,1,,,,,,,,,,,,,,,,,,,,,,,,,,,,,,,,,,,,,,,,,,,,,,52,152194,21,Female,1,2024/02/13_12:14:57,YZ,59.96622750174633,
,,,,,,test,1,2,3,1068,10,C,0,right,0.30712203499570023,1,0,,,,,,,,,,,,,,,,,,,,,1,,,,,,,,,,,,,,,,,,,,,,,,,,,,,,,,,,,,,,,,,,,,,,52,152194,21,Female,1,2024/02/13_12:14:57,YZ,59.96622750174633,
,,,,,,test,1,2,3,1068,11,C,0,right,0.31231869000475854,1,0,,,,,,,,,,,,,,,,,,,,,1,,,,,,,,,,,,,,,,,,,,,,,,,,,,,,,,,,,,,,,,,,,,,,52,152194,21,Female,1,2024/02/13_12:14:57,YZ,59.96622750174633,
,,,,,,Test,1,2,3,1068,,,,,,,,0.7083333333333334,0.3333333333333333,0.125,0.875,0.0,0.875,0.37086770218527154,1,1,0,0,0,7,8,3,8,0,,,,1,,,,,,,,,,,,,,,,,,,,,,,,,,,,,,,,,,,,,,,,,,,,,,52,152194,21,Female,1,2024/02/13_12:14:57,YZ,59.96622750174633,
,,,,,240213_131123,TEST,1,2,3,1068,,,,,,,,,,,,,,,,,,,,,,,,,,,,1,2,2,2,cue1.png,hard,B,66,1.4692705540073803,0,822.3685482199944,823.8594068980019,,,,,,,,,,,,,,,,,,,,,,,,,,,,,,,,,,,52,152194,21,Female,1,2024/02/13_12:14:57,YZ,59.96622750174633,
,,,,,,test,1,3,3,1068,1,X,0,right,0.36916864800150506,1,0,,,,,,,,,,,,,,,,,,,,,1,,,,,,,,,,,,,,,,,,,,,,,,,,,,,,,,,,,,,,,,,,,,,,52,152194,21,Female,1,2024/02/13_12:14:57,YZ,59.96622750174633,
,,,,,,test,1,3,3,1068,2,F,0,right,0.44619141099974513,1,0,,,,,,,,,,,,,,,,,,,,,1,,,,,,,,,,,,,,,,,,,,,,,,,,,,,,,,,,,,,,,,,,,,,,52,152194,21,Female,1,2024/02/13_12:14:57,YZ,59.96622750174633,
,,,,,,test,1,3,3,1068,3,F,0,right,0.4734911059931619,1,0,,,,,,,,,,,,,,,,,,,,,1,,,,,,,,,,,,,,,,,,,,,,,,,,,,,,,,,,,,,,,,,,,,,,52,152194,21,Female,1,2024/02/13_12:14:57,YZ,59.96622750174633,
,,,,,,test,1,3,3,1068,4,Q,0,right,0.5754740759875858,1,0,,,,,,,,,,,,,,,,,,,,,1,,,,,,,,,,,,,,,,,,,,,,,,,,,,,,,,,,,,,,,,,,,,,,52,152194,21,Female,1,2024/02/13_12:14:57,YZ,59.96622750174633,
,,,,,,test,1,3,3,1068,5,N,0,right,0.533508307999,1,0,,,,,,,,,,,,,,,,,,,,,1,,,,,,,,,,,,,,,,,,,,,,,,,,,,,,,,,,,,,,,,,,,,,,52,152194,21,Female,1,2024/02/13_12:14:57,YZ,59.96622750174633,
,,,,,,test,1,3,3,1068,6,F,1,right,0.49341452699445654,0,0,,,,,,,,,,,,,,,,,,,,,1,,,,,,,,,,,,,,,,,,,,,,,,,,,,,,,,,,,,,,,,,,,,,,52,152194,21,Female,1,2024/02/13_12:14:57,YZ,59.96622750174633,
,,,,,,test,1,3,3,1068,7,Q,1,right,0.5963108360010665,0,0,,,,,,,,,,,,,,,,,,,,,1,,,,,,,,,,,,,,,,,,,,,,,,,,,,,,,,,,,,,,,,,,,,,,52,152194,21,Female,1,2024/02/13_12:14:57,YZ,59.96622750174633,
,,,,,,test,1,3,3,1068,8,C,0,right,0.32416663199546747,1,0,,,,,,,,,,,,,,,,,,,,,1,,,,,,,,,,,,,,,,,,,,,,,,,,,,,,,,,,,,,,,,,,,,,,52,152194,21,Female,1,2024/02/13_12:14:57,YZ,59.96622750174633,
,,,,,,test,1,3,3,1068,9,J,0,right,0.29857980100496206,1,0,,,,,,,,,,,,,,,,,,,,,1,,,,,,,,,,,,,,,,,,,,,,,,,,,,,,,,,,,,,,,,,,,,,,52,152194,21,Female,1,2024/02/13_12:14:57,YZ,59.96622750174633,
,,,,,,test,1,3,3,1068,10,J,0,right,0.3419320059911115,1,0,,,,,,,,,,,,,,,,,,,,,1,,,,,,,,,,,,,,,,,,,,,,,,,,,,,,,,,,,,,,,,,,,,,,52,152194,21,Female,1,2024/02/13_12:14:57,YZ,59.96622750174633,
,,,,,,test,1,3,3,1068,11,C,1,right,0.30982032799511217,0,0,,,,,,,,,,,,,,,,,,,,,1,,,,,,,,,,,,,,,,,,,,,,,,,,,,,,,,,,,,,,,,,,,,,,52,152194,21,Female,1,2024/02/13_12:14:57,YZ,59.96622750174633,
,,,,,,Test,1,3,3,1068,,,,,,,,0.5,0.0,0.0,1.0,0.0,1.0,0.43291433445119765,0,0,0,0,0,8,8,3,8,0,,,,1,,,,,,,,,,,,,,,,,,,,,,,,,,,,,,,,,,,,,,,,,,,,,,52,152194,21,Female,1,2024/02/13_12:14:57,YZ,59.96622750174633,
,,,,,240213_131143,TEST,1,3,3,1068,,,,,,,,,,,,,,,,,,,,,,,,,,,,1,3,3,3,cue1.png,hard,B,60,0.8347771630069474,0,842.8510597819986,843.7068083850027,,,,,,,,,,,,,,,,,,,,,,,,,,,,,,,,,,,52,152194,21,Female,1,2024/02/13_12:14:57,YZ,59.96622750174633,
,,,,,,test,1,4,3,1068,1,C,0,right,0.4293190039898036,1,0,,,,,,,,,,,,,,,,,,,,,1,,,,,,,,,,,,,,,,,,,,,,,,,,,,,,,,,,,,,,,,,,,,,,52,152194,21,Female,1,2024/02/13_12:14:57,YZ,59.96622750174633,
,,,,,,test,1,4,3,1068,2,X,0,right,0.2827374409971526,1,0,,,,,,,,,,,,,,,,,,,,,1,,,,,,,,,,,,,,,,,,,,,,,,,,,,,,,,,,,,,,,,,,,,,,52,152194,21,Female,1,2024/02/13_12:14:57,YZ,59.96622750174633,
,,,,,,test,1,4,3,1068,3,Q,0,right,0.429611975006992,1,0,,,,,,,,,,,,,,,,,,,,,1,,,,,,,,,,,,,,,,,,,,,,,,,,,,,,,,,,,,,,,,,,,,,,52,152194,21,Female,1,2024/02/13_12:14:57,YZ,59.96622750174633,
,,,,,,test,1,4,3,1068,4,Q,0,right,0.4027455729956273,1,0,,,,,,,,,,,,,,,,,,,,,1,,,,,,,,,,,,,,,,,,,,,,,,,,,,,,,,,,,,,,,,,,,,,,52,152194,21,Female,1,2024/02/13_12:14:57,YZ,59.96622750174633,
,,,,,,test,1,4,3,1068,5,X,1,right,0.4380243350024102,0,0,,,,,,,,,,,,,,,,,,,,,1,,,,,,,,,,,,,,,,,,,,,,,,,,,,,,,,,,,,,,,,,,,,,,52,152194,21,Female,1,2024/02/13_12:14:57,YZ,59.96622750174633,
,,,,,,test,1,4,3,1068,6,J,0,right,0.4783382870082278,1,0,,,,,,,,,,,,,,,,,,,,,1,,,,,,,,,,,,,,,,,,,,,,,,,,,,,,,,,,,,,,,,,,,,,,52,152194,21,Female,1,2024/02/13_12:14:57,YZ,59.96622750174633,
,,,,,,test,1,4,3,1068,7,S,0,right,0.38725946900376584,1,0,,,,,,,,,,,,,,,,,,,,,1,,,,,,,,,,,,,,,,,,,,,,,,,,,,,,,,,,,,,,,,,,,,,,52,152194,21,Female,1,2024/02/13_12:14:57,YZ,59.96622750174633,
,,,,,,test,1,4,3,1068,8,X,1,right,0.3906427579931915,0,0,,,,,,,,,,,,,,,,,,,,,1,,,,,,,,,,,,,,,,,,,,,,,,,,,,,,,,,,,,,,,,,,,,,,52,152194,21,Female,1,2024/02/13_12:14:57,YZ,59.96622750174633,
,,,,,,test,1,4,3,1068,9,J,1,right,0.37047942899516784,0,0,,,,,,,,,,,,,,,,,,,,,1,,,,,,,,,,,,,,,,,,,,,,,,,,,,,,,,,,,,,,,,,,,,,,52,152194,21,Female,1,2024/02/13_12:14:57,YZ,59.96622750174633,
,,,,,,test,1,4,3,1068,10,Q,0,right,0.3576605629932601,1,0,,,,,,,,,,,,,,,,,,,,,1,,,,,,,,,,,,,,,,,,,,,,,,,,,,,,,,,,,,,,,,,,,,,,52,152194,21,Female,1,2024/02/13_12:14:57,YZ,59.96622750174633,
,,,,,,test,1,4,3,1068,11,F,0,right,0.29141037100635003,1,0,,,,,,,,,,,,,,,,,,,,,1,,,,,,,,,,,,,,,,,,,,,,,,,,,,,,,,,,,,,,,,,,,,,,52,152194,21,Female,1,2024/02/13_12:14:57,YZ,59.96622750174633,
,,,,,,Test,1,4,3,1068,,,,,,,,0.5,0.0,0.0,1.0,0.0,1.0,0.387111745908359,0,0,0,0,0,8,8,3,8,0,,,,1,,,,,,,,,,,,,,,,,,,,,,,,,,,,,,,,,,,,,,,,,,,,,,52,152194,21,Female,1,2024/02/13_12:14:57,YZ,59.96622750174633,
,,,,,240213_131203,TEST,1,4,3,1068,,,,,,,,,,,,,,,,,,,,,,,,,,,,1,4,4,4,cue1.png,hard,B,70,0.9676556670019636,0,863.3824420789897,864.3749119679997,,,,,,,,,,,,,,,,,,,,,,,,,,,,,,,,,,,52,152194,21,Female,1,2024/02/13_12:14:57,YZ,59.96622750174633,
,,,,,,test,1,5,1,1068,1,V,0,right,0.4299917199969059,1,0,,,,,,,,,,,,,,,,,,,,,1,,,,,,,,,,,,,,,,,,,,,,,,,,,,,,,,,,,,,,,,,,,,,,52,152194,21,Female,1,2024/02/13_12:14:57,YZ,59.96622750174633,
,,,,,,test,1,5,1,1068,2,V,1,left,0.5346155940060271,1,0,,,,,,,,,,,,,,,,,,,,,1,,,,,,,,,,,,,,,,,,,,,,,,,,,,,,,,,,,,,,,,,,,,,,52,152194,21,Female,1,2024/02/13_12:14:57,YZ,59.96622750174633,
,,,,,,test,1,5,1,1068,3,Q,0,right,0.34817228201427497,1,0,,,,,,,,,,,,,,,,,,,,,1,,,,,,,,,,,,,,,,,,,,,,,,,,,,,,,,,,,,,,,,,,,,,,52,152194,21,Female,1,2024/02/13_12:14:57,YZ,59.96622750174633,
,,,,,,test,1,5,1,1068,4,C,0,right,0.46180858499428723,1,0,,,,,,,,,,,,,,,,,,,,,1,,,,,,,,,,,,,,,,,,,,,,,,,,,,,,,,,,,,,,,,,,,,,,52,152194,21,Female,1,2024/02/13_12:14:57,YZ,59.96622750174633,
,,,,,,test,1,5,1,1068,5,S,0,right,0.5930415220063878,1,0,,,,,,,,,,,,,,,,,,,,,1,,,,,,,,,,,,,,,,,,,,,,,,,,,,,,,,,,,,,,,,,,,,,,52,152194,21,Female,1,2024/02/13_12:14:57,YZ,59.96622750174633,
,,,,,,test,1,5,1,1068,6,S,1,left,0.44369063299382105,1,0,,,,,,,,,,,,,,,,,,,,,1,,,,,,,,,,,,,,,,,,,,,,,,,,,,,,,,,,,,,,,,,,,,,,52,152194,21,Female,1,2024/02/13_12:14:57,YZ,59.96622750174633,
,,,,,,test,1,5,1,1068,7,J,0,right,0.46657430300547276,1,0,,,,,,,,,,,,,,,,,,,,,1,,,,,,,,,,,,,,,,,,,,,,,,,,,,,,,,,,,,,,,,,,,,,,52,152194,21,Female,1,2024/02/13_12:14:57,YZ,59.96622750174633,
,,,,,,test,1,5,1,1068,8,V,0,right,0.3647830200061435,1,0,,,,,,,,,,,,,,,,,,,,,1,,,,,,,,,,,,,,,,,,,,,,,,,,,,,,,,,,,,,,,,,,,,,,52,152194,21,Female,1,2024/02/13_12:14:57,YZ,59.96622750174633,
,,,,,,test,1,5,1,1068,9,N,0,right,0.555488857004093,1,0,,,,,,,,,,,,,,,,,,,,,1,,,,,,,,,,,,,,,,,,,,,,,,,,,,,,,,,,,,,,,,,,,,,,52,152194,21,Female,1,2024/02/13_12:14:57,YZ,59.96622750174633,
,,,,,,test,1,5,1,1068,10,N,1,left,0.3942207369982498,1,0,,,,,,,,,,,,,,,,,,,,,1,,,,,,,,,,,,,,,,,,,,,,,,,,,,,,,,,,,,,,,,,,,,,,52,152194,21,Female,1,2024/02/13_12:14:57,YZ,59.96622750174633,
,,,,,,test,1,5,1,1068,11,V,0,right,0.37081309099448845,1,0,,,,,,,,,,,,,,,,,,,,,1,,,,,,,,,,,,,,,,,,,,,,,,,,,,,,,,,,,,,,,,,,,,,,52,152194,21,Female,1,2024/02/13_12:14:57,YZ,59.96622750174633,
,,,,,,Test,1,5,1,1068,,,,,,,,1.0,1.0,0.0,1.0,0.0,1.0,0.4512000312745592,3,0,0,0,0,8,11,3,8,0,,,,1,,,,,,,,,,,,,,,,,,,,,,,,,,,,,,,,,,,,,,,,,,,,,,52,152194,21,Female,1,2024/02/13_12:14:57,YZ,59.96622750174633,
,,,,,240213_131224,TEST,1,5,1,1068,,,,,,,,,,,,,,,,,,,,,,,,,,,,1,5,5,5,cue2.png,easy,B,32,0.9349020880035823,0,883.5143969549972,884.4704722259921,,,,,,,,,,,,,,,,,,,,,,,,,,,,,,,,,,,52,152194,21,Female,1,2024/02/13_12:14:57,YZ,59.96622750174633,
,,,,,,test,1,6,3,1068,1,J,0,right,0.3578473550005583,1,0,,,,,,,,,,,,,,,,,,,,,1,,,,,,,,,,,,,,,,,,,,,,,,,,,,,,,,,,,,,,,,,,,,,,52,152194,21,Female,1,2024/02/13_12:14:57,YZ,59.96622750174633,
,,,,,,test,1,6,3,1068,2,N,0,right,0.3948886680009309,1,0,,,,,,,,,,,,,,,,,,,,,1,,,,,,,,,,,,,,,,,,,,,,,,,,,,,,,,,,,,,,,,,,,,,,52,152194,21,Female,1,2024/02/13_12:14:57,YZ,59.96622750174633,
,,,,,,test,1,6,3,1068,3,S,0,right,0.3623457200010307,1,0,,,,,,,,,,,,,,,,,,,,,1,,,,,,,,,,,,,,,,,,,,,,,,,,,,,,,,,,,,,,,,,,,,,,52,152194,21,Female,1,2024/02/13_12:14:57,YZ,59.96622750174633,
,,,,,,test,1,6,3,1068,4,X,0,right,0.5680444149911636,1,0,,,,,,,,,,,,,,,,,,,,,1,,,,,,,,,,,,,,,,,,,,,,,,,,,,,,,,,,,,,,,,,,,,,,52,152194,21,Female,1,2024/02/13_12:14:57,YZ,59.96622750174633,
,,,,,,test,1,6,3,1068,5,N,1,left,0.6795346139988396,1,0,,,,,,,,,,,,,,,,,,,,,1,,,,,,,,,,,,,,,,,,,,,,,,,,,,,,,,,,,,,,,,,,,,,,52,152194,21,Female,1,2024/02/13_12:14:57,YZ,59.96622750174633,
,,,,,,test,1,6,3,1068,6,S,1,right,0.4446667809970677,0,0,,,,,,,,,,,,,,,,,,,,,1,,,,,,,,,,,,,,,,,,,,,,,,,,,,,,,,,,,,,,,,,,,,,,52,152194,21,Female,1,2024/02/13_12:14:57,YZ,59.96622750174633,
,,,,,,test,1,6,3,1068,7,N,0,right,0.813485184989986,1,0,,,,,,,,,,,,,,,,,,,,,1,,,,,,,,,,,,,,,,,,,,,,,,,,,,,,,,,,,,,,,,,,,,,,52,152194,21,Female,1,2024/02/13_12:14:57,YZ,59.96622750174633,
,,,,,,test,1,6,3,1068,8,Q,0,right,0.46943030299735256,1,0,,,,,,,,,,,,,,,,,,,,,1,,,,,,,,,,,,,,,,,,,,,,,,,,,,,,,,,,,,,,,,,,,,,,52,152194,21,Female,1,2024/02/13_12:14:57,YZ,59.96622750174633,
,,,,,,test,1,6,3,1068,9,S,1,right,0.5635269769991282,0,0,,,,,,,,,,,,,,,,,,,,,1,,,,,,,,,,,,,,,,,,,,,,,,,,,,,,,,,,,,,,,,,,,,,,52,152194,21,Female,1,2024/02/13_12:14:57,YZ,59.96622750174633,
,,,,,,test,1,6,3,1068,10,J,0,right,0.4645646879944252,1,0,,,,,,,,,,,,,,,,,,,,,1,,,,,,,,,,,,,,,,,,,,,,,,,,,,,,,,,,,,,,,,,,,,,,52,152194,21,Female,1,2024/02/13_12:14:57,YZ,59.96622750174633,
,,,,,,test,1,6,3,1068,11,S,0,left,0.3923971969925333,0,0,,,,,,,,,,,,,,,,,,,,,1,,,,,,,,,,,,,,,,,,,,,,,,,,,,,,,,,,,,,,,,,,,,,,52,152194,21,Female,1,2024/02/13_12:14:57,YZ,59.96622750174633,
,,,,,,Test,1,6,3,1068,,,,,,,,0.7083333333333334,0.3333333333333333,0.125,0.875,0.0,0.875,0.5009756275420923,1,1,0,0,0,7,8,3,8,0,,,,1,,,,,,,,,,,,,,,,,,,,,,,,,,,,,,,,,,,,,,,,,,,,,,52,152194,21,Female,1,2024/02/13_12:14:57,YZ,59.96622750174633,
,,,,,240213_131246,TEST,1,6,3,1068,,,,,,,,,,,,,,,,,,,,,,,,,,,,1,6,6,6,cue1.png,hard,B,62,1.351818793991697,0,904.361793500997,905.7343685919914,,,,,,,,,,,,,,,,,,,,,,,,,,,,,,,,,,,52,152194,21,Female,1,2024/02/13_12:14:57,YZ,59.96622750174633,
