Instruction,Stimulus,Key,RT,START,END,Phase,Block,TrialN,NbackLevel,ISI,LetterN,Letter,Letter_isSame,Letter_Resp,Letter_RT,Letter_Accuracy,Letter_Timeout,Trial_A_measure,Trial_HR,Trial_FAR,Trial_CDR,Trial_MSR,Trial_ACC,Trial_RT,Trial_HitsCount,Trial_FAsCount,Trial_SameNoRespCount,Trial_DiffNoRespCount,Trial_NoRespCount,Trial_CDsCount,Trial_CorrectRespCount,Trial_SameLetterCount,Trial_DiffLetterCount,Trial_InvalidLetterCount,TrialCountCali,CaliEnd_A_measure,ISI_calibrated,Run,TrialIndex,TrialNumber_total,TrialNumber_valid,CueLearning,TrialDemandLearning,CueMapping,OnlineRating,OnlineRatingRT,OnlineRatingTimeOut,CueSTART,RatingSTART,OfflineRatingTimePoint,OfflineRatingQuesIndex,CueFigure,TrialDemand,OfflineRating,OfflineRatingRT,CueStart,OfflineRatingStart,PhaseType,CueLeft,CueDemandLeft,CueRight,CueDemandRight,Choice,ChoiceDemand,TaskDemand,ChoiceRT,ChoiceTimeOut,ChoiceSTART,CueCheck,CueDemandCheck,CorrectAnswer,Answer,AnswerDemand,AnswerRT,AnswerACC,AnswerTimeOut,CheckSTART,DemandRatingQuesIndex,QuesTLX,DemandLevel,DemandRating,DemandRatingRT,QuesStart,PID,SONA,Age,Gender,Run,TIME,EXPERIMENTER,frameRate,
1,./instructions/inst_begin/Slide2.png,right,23.81210480100708,0.20092740099062212,24.013032201997703,,,,,,,,,,,,,,,,,,,,,,,,,,,,,,,,,1,,,,,,,,,,,,,,,,,,,,,,,,,,,,,,,,,,,,,,,,,,,,,,85,159535,23,Female,1,2024/03/13_10:20:35,YZ,None,
2,./instructions/inst_begin/Slide3.png,right,9.098067626997363,24.05103958399559,33.14910721099295,,,,,,,,,,,,,,,,,,,,,,,,,,,,,,,,,1,,,,,,,,,,,,,,,,,,,,,,,,,,,,,,,,,,,,,,,,,,,,,,85,159535,23,Female,1,2024/03/13_10:20:35,YZ,None,
3,./instructions/inst_begin/Slide4.png,right,7.19629343599081,33.17693470099766,40.37322813698847,,,,,,,,,,,,,,,,,,,,,,,,,,,,,,,,,1,,,,,,,,,,,,,,,,,,,,,,,,,,,,,,,,,,,,,,,,,,,,,,85,159535,23,Female,1,2024/03/13_10:20:35,YZ,None,
1,./instructions/inst_prac_2/Slide6.png,right,10.134633099994971,40.42239774799964,50.55703084799461,,,,,,,,,,,,,,,,,,,,,,,,,,,,,,,,,1,,,,,,,,,,,,,,,,,,,,,,,,,,,,,,,,,,,,,,,,,,,,,,85,159535,23,Female,1,2024/03/13_10:20:35,YZ,None,
2,./instructions/inst_prac_2/Slide7.png,right,15.129847762000281,50.587255136997555,65.71710289899784,,,,,,,,,,,,,,,,,,,,,,,,,,,,,,,,,1,,,,,,,,,,,,,,,,,,,,,,,,,,,,,,,,,,,,,,,,,,,,,,85,159535,23,Female,1,2024/03/13_10:20:35,YZ,None,
3,./instructions/inst_prac_2/Slide8.png,right,12.72154933999991,65.74759348799125,78.46914282799116,,,,,,,,,,,,,,,,,,,,,,,,,,,,,,,,,1,,,,,,,,,,,,,,,,,,,,,,,,,,,,,,,,,,,,,,,,,,,,,,85,159535,23,Female,1,2024/03/13_10:20:35,YZ,None,
4,./instructions/inst_prac_2/Slide9.png,right,8.137824059987906,78.49933753500227,86.63716159499018,,,,,,,,,,,,,,,,,,,,,,,,,,,,,,,,,1,,,,,,,,,,,,,,,,,,,,,,,,,,,,,,,,,,,,,,,,,,,,,,85,159535,23,Female,1,2024/03/13_10:20:35,YZ,None,
5,./instructions/inst_prac_2/Slide10.png,right,1.7945979030046146,86.67440408999391,88.46900199299853,,,,,,,,,,,,,,,,,,,,,,,,,,,,,,,,,1,,,,,,,,,,,,,,,,,,,,,,,,,,,,,,,,,,,,,,,,,,,,,,85,159535,23,Female,1,2024/03/13_10:20:35,YZ,None,
6,./instructions/inst_prac_2/Slide11.png,right,1.7213956600025995,88.49963611699059,90.22103177699319,,,,,,,,,,,,,,,,,,,,,,,,,,,,,,,,,1,,,,,,,,,,,,,,,,,,,,,,,,,,,,,,,,,,,,,,,,,,,,,,85,159535,23,Female,1,2024/03/13_10:20:35,YZ,None,
7,./instructions/inst_prac_2/Slide12.png,right,1.425849841994932,90.25121612400108,91.67706596599601,,,,,,,,,,,,,,,,,,,,,,,,,,,,,,,,,1,,,,,,,,,,,,,,,,,,,,,,,,,,,,,,,,,,,,,,,,,,,,,,85,159535,23,Female,1,2024/03/13_10:20:35,YZ,None,
8,./instructions/inst_prac_2/Slide13.png,right,1.86096198100131,91.70403139998962,93.56499338099093,,,,,,,,,,,,,,,,,,,,,,,,,,,,,,,,,1,,,,,,,,,,,,,,,,,,,,,,,,,,,,,,,,,,,,,,,,,,,,,,85,159535,23,Female,1,2024/03/13_10:20:35,YZ,None,
9,./instructions/inst_prac_2/Slide14.png,right,15.88973866100423,93.59520836899173,109.48494702999596,,,,,,,,,,,,,,,,,,,,,,,,,,,,,,,,,1,,,,,,,,,,,,,,,,,,,,,,,,,,,,,,,,,,,,,,,,,,,,,,85,159535,23,Female,1,2024/03/13_10:20:35,YZ,None,
10,./instructions/inst_prac_2/Slide15.png,right,11.376844650993007,109.53238029200293,120.90922494299593,,,,,,,,,,,,,,,,,,,,,,,,,,,,,,,,,1,,,,,,,,,,,,,,,,,,,,,,,,,,,,,,,,,,,,,,,,,,,,,,85,159535,23,Female,1,2024/03/13_10:20:35,YZ,None,
,,,,,,practice,0,25,2,2583,1,F,0,right,4.697637630000827,1,0,,,,,,,,,,,,,,,,,,,,,1,,,,,,,,,,,,,,,,,,,,,,,,,,,,,,,,,,,,,,,,,,,,,,85,159535,23,Female,1,2024/03/13_10:20:35,YZ,None,
,,,,,,practice,0,25,2,2583,2,C,0,right,1.1390367840067483,1,0,,,,,,,,,,,,,,,,,,,,,1,,,,,,,,,,,,,,,,,,,,,,,,,,,,,,,,,,,,,,,,,,,,,,85,159535,23,Female,1,2024/03/13_10:20:35,YZ,None,
,,,,,,practice,0,25,2,2583,3,N,1,right,0.8093817260087235,0,0,,,,,,,,,,,,,,,,,,,,,1,,,,,,,,,,,,,,,,,,,,,,,,,,,,,,,,,,,,,,,,,,,,,,85,159535,23,Female,1,2024/03/13_10:20:35,YZ,None,
,,,,,,practice,0,25,2,2583,4,S,0,right,4.436242155003129,1,0,,,,,,,,,,,,,,,,,,,,,1,,,,,,,,,,,,,,,,,,,,,,,,,,,,,,,,,,,,,,,,,,,,,,85,159535,23,Female,1,2024/03/13_10:20:35,YZ,None,
,,,,,,practice,0,25,2,2583,5,N,1,left,1.2342257350101136,1,0,,,,,,,,,,,,,,,,,,,,,1,,,,,,,,,,,,,,,,,,,,,,,,,,,,,,,,,,,,,,,,,,,,,,85,159535,23,Female,1,2024/03/13_10:20:35,YZ,None,
,,,,,,practice,0,25,2,2583,6,S,0,left,1.096450539000216,0,0,,,,,,,,,,,,,,,,,,,,,1,,,,,,,,,,,,,,,,,,,,,,,,,,,,,,,,,,,,,,,,,,,,,,85,159535,23,Female,1,2024/03/13_10:20:35,YZ,None,
,,,,,,practice,0,25,2,2583,,,,,,,,0.6875,0.5,0.25,0.75,0.0,0.75,2.2354957615049593,1,1,0,0,0,3,4,2,4,0,,,,1,,,,,,,,,,,,,,,,,,,,,,,,,,,,,,,,,,,,,,,,,,,,,,85,159535,23,Female,1,2024/03/13_10:20:35,YZ,None,
1,./instructions/inst_redo_2/Slide18.png,right,14.271318594997865,141.70166373699612,155.972982331994,,,,,,,,,,,,,,,,,,,,,,,,,,,,,,,,,1,,,,,,,,,,,,,,,,,,,,,,,,,,,,,,,,,,,,,,,,,,,,,,85,159535,23,Female,1,2024/03/13_10:20:35,YZ,None,
,,,,,,practice,0,33,2,2583,1,F,0,right,4.280315683005028,1,0,,,,,,,,,,,,,,,,,,,,,1,,,,,,,,,,,,,,,,,,,,,,,,,,,,,,,,,,,,,,,,,,,,,,85,159535,23,Female,1,2024/03/13_10:20:35,YZ,None,
,,,,,,practice,0,33,2,2583,2,F,0,left,0.8081999200076098,0,0,,,,,,,,,,,,,,,,,,,,,1,,,,,,,,,,,,,,,,,,,,,,,,,,,,,,,,,,,,,,,,,,,,,,85,159535,23,Female,1,2024/03/13_10:20:35,YZ,None,
,,,,,,practice,0,33,2,2583,3,C,0,right,1.4471190460026264,1,0,,,,,,,,,,,,,,,,,,,,,1,,,,,,,,,,,,,,,,,,,,,,,,,,,,,,,,,,,,,,,,,,,,,,85,159535,23,Female,1,2024/03/13_10:20:35,YZ,None,
,,,,,,practice,0,33,2,2583,4,F,1,left,1.1724919080006657,1,0,,,,,,,,,,,,,,,,,,,,,1,,,,,,,,,,,,,,,,,,,,,,,,,,,,,,,,,,,,,,,,,,,,,,85,159535,23,Female,1,2024/03/13_10:20:35,YZ,None,
,,,,,,practice,0,33,2,2583,5,C,1,left,0.912610608007526,1,0,,,,,,,,,,,,,,,,,,,,,1,,,,,,,,,,,,,,,,,,,,,,,,,,,,,,,,,,,,,,,,,,,,,,85,159535,23,Female,1,2024/03/13_10:20:35,YZ,None,
,,,,,,practice,0,33,2,2583,6,J,0,right,0.7466520510060946,1,0,,,,,,,,,,,,,,,,,,,,,1,,,,,,,,,,,,,,,,,,,,,,,,,,,,,,,,,,,,,,,,,,,,,,85,159535,23,Female,1,2024/03/13_10:20:35,YZ,None,
,,,,,,practice,0,33,2,2583,,,,,,,,0.9375,1.0,0.25,0.75,0.0,0.75,1.5612315360049251,2,1,0,0,0,3,5,2,4,0,,,,1,,,,,,,,,,,,,,,,,,,,,,,,,,,,,,,,,,,,,,,,,,,,,,85,159535,23,Female,1,2024/03/13_10:20:35,YZ,None,
1,./instructions/inst_to_cali/Slide20.png,right,1.9779900900030043,173.22693252899626,175.20492261899926,,,,,,,,,,,,,,,,,,,,,,,,,,,,,,,,,1,,,,,,,,,,,,,,,,,,,,,,,,,,,,,,,,,,,,,,,,,,,,,,85,159535,23,Female,1,2024/03/13_10:20:35,YZ,None,
1,./instructions/inst_cali/Slide22.png,right,14.413894044002518,175.2471808949922,189.66107493899472,,,,,,,,,,,,,,,,,,,,,,,,,,,,,,,,,1,,,,,,,,,,,,,,,,,,,,,,,,,,,,,,,,,,,,,,,,,,,,,,85,159535,23,Female,1,2024/03/13_10:20:35,YZ,None,
,,,,,,calibration,0,17,2,583,1,J,0,left,1.011320491990773,0,0,,,,,,,,,,,,,,,,,,,,,1,,,,,,,,,,,,,,,,,,,,,,,,,,,,,,,,,,,,,,,,,,,,,,85,159535,23,Female,1,2024/03/13_10:20:35,YZ,None,
,,,,,,calibration,0,17,2,583,2,C,0,right,1.0911208449979313,1,0,,,,,,,,,,,,,,,,,,,,,1,,,,,,,,,,,,,,,,,,,,,,,,,,,,,,,,,,,,,,,,,,,,,,85,159535,23,Female,1,2024/03/13_10:20:35,YZ,None,
,,,,,,calibration,0,17,2,583,3,J,1,left,1.1641621409944491,1,0,,,,,,,,,,,,,,,,,,,,,1,,,,,,,,,,,,,,,,,,,,,,,,,,,,,,,,,,,,,,,,,,,,,,85,159535,23,Female,1,2024/03/13_10:20:35,YZ,None,
,,,,,,calibration,0,17,2,583,4,F,0,right,1.0002445499994792,1,0,,,,,,,,,,,,,,,,,,,,,1,,,,,,,,,,,,,,,,,,,,,,,,,,,,,,,,,,,,,,,,,,,,,,85,159535,23,Female,1,2024/03/13_10:20:35,YZ,None,
,,,,,,calibration,0,17,2,583,5,N,0,right,1.231215357009205,1,0,,,,,,,,,,,,,,,,,,,,,1,,,,,,,,,,,,,,,,,,,,,,,,,,,,,,,,,,,,,,,,,,,,,,85,159535,23,Female,1,2024/03/13_10:20:35,YZ,None,
,,,,,,calibration,0,17,2,583,6,X,0,right,0.957654489990091,1,0,,,,,,,,,,,,,,,,,,,,,1,,,,,,,,,,,,,,,,,,,,,,,,,,,,,,,,,,,,,,,,,,,,,,85,159535,23,Female,1,2024/03/13_10:20:35,YZ,None,
,,,,,,calibration,0,17,2,583,7,N,1,left,0.8743598340079188,1,0,,,,,,,,,,,,,,,,,,,,,1,,,,,,,,,,,,,,,,,,,,,,,,,,,,,,,,,,,,,,,,,,,,,,85,159535,23,Female,1,2024/03/13_10:20:35,YZ,None,
,,,,,,calibration,0,17,2,583,8,Q,0,right,0.7523378059995594,1,0,,,,,,,,,,,,,,,,,,,,,1,,,,,,,,,,,,,,,,,,,,,,,,,,,,,,,,,,,,,,,,,,,,,,85,159535,23,Female,1,2024/03/13_10:20:35,YZ,None,
,,,,,,calibration,0,17,2,583,9,N,1,left,0.9051999780058395,1,0,,,,,,,,,,,,,,,,,,,,,1,,,,,,,,,,,,,,,,,,,,,,,,,,,,,,,,,,,,,,,,,,,,,,85,159535,23,Female,1,2024/03/13_10:20:35,YZ,None,
,,,,,,calibration,0,17,2,583,10,S,0,right,0.7115963949909201,1,0,,,,,,,,,,,,,,,,,,,,,1,,,,,,,,,,,,,,,,,,,,,,,,,,,,,,,,,,,,,,,,,,,,,,85,159535,23,Female,1,2024/03/13_10:20:35,YZ,None,
,,,,,,calibration,0,17,2,583,11,N,1,left,0.8088630470010685,1,0,,,,,,,,,,,,,,,,,,,,,1,,,,,,,,,,,,,,,,,,,,,,,,,,,,,,,,,,,,,,,,,,,,,,85,159535,23,Female,1,2024/03/13_10:20:35,YZ,None,
,,,,,,calibration,0,17,2,583,12,V,0,right,0.6257565560081275,1,0,,,,,,,,,,,,,,,,,,,,,1,,,,,,,,,,,,,,,,,,,,,,,,,,,,,,,,,,,,,,,,,,,,,,85,159535,23,Female,1,2024/03/13_10:20:35,YZ,None,
,,,,,,calibration,0,17,2,583,13,C,0,right,0.7068938570009777,1,0,,,,,,,,,,,,,,,,,,,,,1,,,,,,,,,,,,,,,,,,,,,,,,,,,,,,,,,,,,,,,,,,,,,,85,159535,23,Female,1,2024/03/13_10:20:35,YZ,None,
,,,,,,calibration,0,17,2,583,14,F,0,right,0.8056135840015486,1,0,,,,,,,,,,,,,,,,,,,,,1,,,,,,,,,,,,,,,,,,,,,,,,,,,,,,,,,,,,,,,,,,,,,,85,159535,23,Female,1,2024/03/13_10:20:35,YZ,None,
,,,,,,calibration,0,17,2,583,15,Q,0,left,0.7314471300051082,0,0,,,,,,,,,,,,,,,,,,,,,1,,,,,,,,,,,,,,,,,,,,,,,,,,,,,,,,,,,,,,,,,,,,,,85,159535,23,Female,1,2024/03/13_10:20:35,YZ,None,
,,,,,,calibration,0,17,2,583,,,,,,,,0.9545454545454546,1.0,0.18181818181818182,0.8181818181818182,0.0,0.8181818181818181,0.8918524041335332,4,2,0,0,0,9,13,4,11,0,,,,1,,,,,,,,,,,,,,,,,,,,,,,,,,,,,,,,,,,,,,,,,,,,,,85,159535,23,Female,1,2024/03/13_10:20:35,YZ,None,
,,,,,,Calibration,0,,2,583,,,,,,,,,,,,,,,,,,,,,,,,,1,,,1,,,,,,,,,,,,,,,,,,,,,,,,,,,,,,,,,,,,,,,,,,,,,,85,159535,23,Female,1,2024/03/13_10:20:35,YZ,None,
,,,,,,calibration,0,3,2,500,1,F,0,right,0.8360627719957847,1,0,,,,,,,,,,,,,,,,,,,,,1,,,,,,,,,,,,,,,,,,,,,,,,,,,,,,,,,,,,,,,,,,,,,,85,159535,23,Female,1,2024/03/13_10:20:35,YZ,None,
,,,,,,calibration,0,3,2,500,2,V,0,right,0.459661219996633,1,0,,,,,,,,,,,,,,,,,,,,,1,,,,,,,,,,,,,,,,,,,,,,,,,,,,,,,,,,,,,,,,,,,,,,85,159535,23,Female,1,2024/03/13_10:20:35,YZ,None,
,,,,,,calibration,0,3,2,500,3,F,1,left,0.4363964790099999,1,0,,,,,,,,,,,,,,,,,,,,,1,,,,,,,,,,,,,,,,,,,,,,,,,,,,,,,,,,,,,,,,,,,,,,85,159535,23,Female,1,2024/03/13_10:20:35,YZ,None,
,,,,,,calibration,0,3,2,500,4,J,0,right,0.49635373600176536,1,0,,,,,,,,,,,,,,,,,,,,,1,,,,,,,,,,,,,,,,,,,,,,,,,,,,,,,,,,,,,,,,,,,,,,85,159535,23,Female,1,2024/03/13_10:20:35,YZ,None,
,,,,,,calibration,0,3,2,500,5,Q,0,right,0.7757948910002597,1,0,,,,,,,,,,,,,,,,,,,,,1,,,,,,,,,,,,,,,,,,,,,,,,,,,,,,,,,,,,,,,,,,,,,,85,159535,23,Female,1,2024/03/13_10:20:35,YZ,None,
,,,,,,calibration,0,3,2,500,6,C,0,right,0.6572384379978757,1,0,,,,,,,,,,,,,,,,,,,,,1,,,,,,,,,,,,,,,,,,,,,,,,,,,,,,,,,,,,,,,,,,,,,,85,159535,23,Female,1,2024/03/13_10:20:35,YZ,None,
,,,,,,calibration,0,3,2,500,7,Q,1,left,0.658957740990445,1,0,,,,,,,,,,,,,,,,,,,,,1,,,,,,,,,,,,,,,,,,,,,,,,,,,,,,,,,,,,,,,,,,,,,,85,159535,23,Female,1,2024/03/13_10:20:35,YZ,None,
,,,,,,calibration,0,3,2,500,8,N,0,right,0.5748108030093135,1,0,,,,,,,,,,,,,,,,,,,,,1,,,,,,,,,,,,,,,,,,,,,,,,,,,,,,,,,,,,,,,,,,,,,,85,159535,23,Female,1,2024/03/13_10:20:35,YZ,None,
,,,,,,calibration,0,3,2,500,9,V,0,right,0.48490739898988977,1,0,,,,,,,,,,,,,,,,,,,,,1,,,,,,,,,,,,,,,,,,,,,,,,,,,,,,,,,,,,,,,,,,,,,,85,159535,23,Female,1,2024/03/13_10:20:35,YZ,None,
,,,,,,calibration,0,3,2,500,10,N,1,left,0.39210415999696124,1,0,,,,,,,,,,,,,,,,,,,,,1,,,,,,,,,,,,,,,,,,,,,,,,,,,,,,,,,,,,,,,,,,,,,,85,159535,23,Female,1,2024/03/13_10:20:35,YZ,None,
,,,,,,calibration,0,3,2,500,11,F,0,right,0.48915447799663525,1,0,,,,,,,,,,,,,,,,,,,,,1,,,,,,,,,,,,,,,,,,,,,,,,,,,,,,,,,,,,,,,,,,,,,,85,159535,23,Female,1,2024/03/13_10:20:35,YZ,None,
,,,,,,calibration,0,3,2,500,12,N,1,left,0.5816418699978385,1,0,,,,,,,,,,,,,,,,,,,,,1,,,,,,,,,,,,,,,,,,,,,,,,,,,,,,,,,,,,,,,,,,,,,,85,159535,23,Female,1,2024/03/13_10:20:35,YZ,None,
,,,,,,calibration,0,3,2,500,13,X,0,right,0.4421371100033866,1,0,,,,,,,,,,,,,,,,,,,,,1,,,,,,,,,,,,,,,,,,,,,,,,,,,,,,,,,,,,,,,,,,,,,,85,159535,23,Female,1,2024/03/13_10:20:35,YZ,None,
,,,,,,calibration,0,3,2,500,14,N,1,left,0.3879753310029628,1,0,,,,,,,,,,,,,,,,,,,,,1,,,,,,,,,,,,,,,,,,,,,,,,,,,,,,,,,,,,,,,,,,,,,,85,159535,23,Female,1,2024/03/13_10:20:35,YZ,None,
,,,,,,calibration,0,3,2,500,15,S,0,right,0.36721817999205086,1,0,,,,,,,,,,,,,,,,,,,,,1,,,,,,,,,,,,,,,,,,,,,,,,,,,,,,,,,,,,,,,,,,,,,,85,159535,23,Female,1,2024/03/13_10:20:35,YZ,None,
,,,,,,calibration,0,3,2,500,16,Q,0,right,0.4654438110010233,1,0,,,,,,,,,,,,,,,,,,,,,1,,,,,,,,,,,,,,,,,,,,,,,,,,,,,,,,,,,,,,,,,,,,,,85,159535,23,Female,1,2024/03/13_10:20:35,YZ,None,
,,,,,,calibration,0,3,2,500,,,,,,,,1.0,1.0,0.0,1.0,0.0,1.0,0.5316161511864266,5,0,0,0,0,11,16,5,11,0,,,,1,,,,,,,,,,,,,,,,,,,,,,,,,,,,,,,,,,,,,,,,,,,,,,85,159535,23,Female,1,2024/03/13_10:20:35,YZ,None,
,,,,,,Calibration,0,,2,500,,,,,,,,,,,,,,,,,,,,,,,,,2,,,1,,,,,,,,,,,,,,,,,,,,,,,,,,,,,,,,,,,,,,,,,,,,,,85,159535,23,Female,1,2024/03/13_10:20:35,YZ,None,
,,,,,,calibration,0,34,2,426,1,J,0,right,0.39955149599700235,1,0,,,,,,,,,,,,,,,,,,,,,1,,,,,,,,,,,,,,,,,,,,,,,,,,,,,,,,,,,,,,,,,,,,,,85,159535,23,Female,1,2024/03/13_10:20:35,YZ,None,
,,,,,,calibration,0,34,2,426,2,F,0,right,0.5401180059998296,1,0,,,,,,,,,,,,,,,,,,,,,1,,,,,,,,,,,,,,,,,,,,,,,,,,,,,,,,,,,,,,,,,,,,,,85,159535,23,Female,1,2024/03/13_10:20:35,YZ,None,
,,,,,,calibration,0,34,2,426,3,J,1,left,0.4083649109961698,1,0,,,,,,,,,,,,,,,,,,,,,1,,,,,,,,,,,,,,,,,,,,,,,,,,,,,,,,,,,,,,,,,,,,,,85,159535,23,Female,1,2024/03/13_10:20:35,YZ,None,
,,,,,,calibration,0,34,2,426,4,X,0,right,0.460369623004226,1,0,,,,,,,,,,,,,,,,,,,,,1,,,,,,,,,,,,,,,,,,,,,,,,,,,,,,,,,,,,,,,,,,,,,,85,159535,23,Female,1,2024/03/13_10:20:35,YZ,None,
,,,,,,calibration,0,34,2,426,5,Q,0,right,0.524609692991362,1,0,,,,,,,,,,,,,,,,,,,,,1,,,,,,,,,,,,,,,,,,,,,,,,,,,,,,,,,,,,,,,,,,,,,,85,159535,23,Female,1,2024/03/13_10:20:35,YZ,None,
,,,,,,calibration,0,34,2,426,6,X,1,left,0.6634351849934319,1,0,,,,,,,,,,,,,,,,,,,,,1,,,,,,,,,,,,,,,,,,,,,,,,,,,,,,,,,,,,,,,,,,,,,,85,159535,23,Female,1,2024/03/13_10:20:35,YZ,None,
,,,,,,calibration,0,34,2,426,7,Q,1,left,0.592425547001767,1,0,,,,,,,,,,,,,,,,,,,,,1,,,,,,,,,,,,,,,,,,,,,,,,,,,,,,,,,,,,,,,,,,,,,,85,159535,23,Female,1,2024/03/13_10:20:35,YZ,None,
,,,,,,calibration,0,34,2,426,8,F,0,right,0.6684207649959717,1,0,,,,,,,,,,,,,,,,,,,,,1,,,,,,,,,,,,,,,,,,,,,,,,,,,,,,,,,,,,,,,,,,,,,,85,159535,23,Female,1,2024/03/13_10:20:35,YZ,None,
,,,,,,calibration,0,34,2,426,9,Q,1,left,0.6521623360022204,1,0,,,,,,,,,,,,,,,,,,,,,1,,,,,,,,,,,,,,,,,,,,,,,,,,,,,,,,,,,,,,,,,,,,,,85,159535,23,Female,1,2024/03/13_10:20:35,YZ,None,
,,,,,,calibration,0,34,2,426,10,J,0,right,0.5614088600123068,1,0,,,,,,,,,,,,,,,,,,,,,1,,,,,,,,,,,,,,,,,,,,,,,,,,,,,,,,,,,,,,,,,,,,,,85,159535,23,Female,1,2024/03/13_10:20:35,YZ,None,
,,,,,,calibration,0,34,2,426,11,V,0,right,0.5121419439965393,1,0,,,,,,,,,,,,,,,,,,,,,1,,,,,,,,,,,,,,,,,,,,,,,,,,,,,,,,,,,,,,,,,,,,,,85,159535,23,Female,1,2024/03/13_10:20:35,YZ,None,
,,,,,,calibration,0,34,2,426,12,C,0,right,0.5307976599870017,1,0,,,,,,,,,,,,,,,,,,,,,1,,,,,,,,,,,,,,,,,,,,,,,,,,,,,,,,,,,,,,,,,,,,,,85,159535,23,Female,1,2024/03/13_10:20:35,YZ,None,
,,,,,,calibration,0,34,2,426,13,V,1,left,0.5412333240092266,1,0,,,,,,,,,,,,,,,,,,,,,1,,,,,,,,,,,,,,,,,,,,,,,,,,,,,,,,,,,,,,,,,,,,,,85,159535,23,Female,1,2024/03/13_10:20:35,YZ,None,
,,,,,,calibration,0,34,2,426,14,J,0,right,0.5125272500008577,1,0,,,,,,,,,,,,,,,,,,,,,1,,,,,,,,,,,,,,,,,,,,,,,,,,,,,,,,,,,,,,,,,,,,,,85,159535,23,Female,1,2024/03/13_10:20:35,YZ,None,
,,,,,,calibration,0,34,2,426,15,N,0,left,0.6071739889885066,0,0,,,,,,,,,,,,,,,,,,,,,1,,,,,,,,,,,,,,,,,,,,,,,,,,,,,,,,,,,,,,,,,,,,,,85,159535,23,Female,1,2024/03/13_10:20:35,YZ,None,
,,,,,,calibration,0,34,2,426,16,X,0,left,0.6574033359938767,0,0,,,,,,,,,,,,,,,,,,,,,1,,,,,,,,,,,,,,,,,,,,,,,,,,,,,,,,,,,,,,,,,,,,,,85,159535,23,Female,1,2024/03/13_10:20:35,YZ,None,
,,,,,,calibration,0,34,2,426,17,V,0,right,0.5515559829946142,1,0,,,,,,,,,,,,,,,,,,,,,1,,,,,,,,,,,,,,,,,,,,,,,,,,,,,,,,,,,,,,,,,,,,,,85,159535,23,Female,1,2024/03/13_10:20:35,YZ,None,
,,,,,,calibration,0,34,2,426,,,,,,,,0.9583333333333334,1.0,0.16666666666666666,0.8333333333333334,0.0,0.8333333333333334,0.5519823475273476,5,2,0,0,0,10,15,5,12,0,,,,1,,,,,,,,,,,,,,,,,,,,,,,,,,,,,,,,,,,,,,,,,,,,,,85,159535,23,Female,1,2024/03/13_10:20:35,YZ,None,
,,,,,,Calibration,0,,2,426,,,,,,,,,,,,,,,,,,,,,,,,,3,,,1,,,,,,,,,,,,,,,,,,,,,,,,,,,,,,,,,,,,,,,,,,,,,,85,159535,23,Female,1,2024/03/13_10:20:35,YZ,None,
,,,,,,calibration,0,32,2,361,1,S,0,right,0.4938267310062656,1,0,,,,,,,,,,,,,,,,,,,,,1,,,,,,,,,,,,,,,,,,,,,,,,,,,,,,,,,,,,,,,,,,,,,,85,159535,23,Female,1,2024/03/13_10:20:35,YZ,None,
,,,,,,calibration,0,32,2,361,2,C,0,right,0.5305067209992558,1,0,,,,,,,,,,,,,,,,,,,,,1,,,,,,,,,,,,,,,,,,,,,,,,,,,,,,,,,,,,,,,,,,,,,,85,159535,23,Female,1,2024/03/13_10:20:35,YZ,None,
,,,,,,calibration,0,32,2,361,3,S,1,left,0.3714316669938853,1,0,,,,,,,,,,,,,,,,,,,,,1,,,,,,,,,,,,,,,,,,,,,,,,,,,,,,,,,,,,,,,,,,,,,,85,159535,23,Female,1,2024/03/13_10:20:35,YZ,None,
,,,,,,calibration,0,32,2,361,4,Q,0,right,0.47972454800037667,1,0,,,,,,,,,,,,,,,,,,,,,1,,,,,,,,,,,,,,,,,,,,,,,,,,,,,,,,,,,,,,,,,,,,,,85,159535,23,Female,1,2024/03/13_10:20:35,YZ,None,
,,,,,,calibration,0,32,2,361,5,J,0,right,0.548583936993964,1,0,,,,,,,,,,,,,,,,,,,,,1,,,,,,,,,,,,,,,,,,,,,,,,,,,,,,,,,,,,,,,,,,,,,,85,159535,23,Female,1,2024/03/13_10:20:35,YZ,None,
,,,,,,calibration,0,32,2,361,6,V,0,right,0.5923996759956935,1,0,,,,,,,,,,,,,,,,,,,,,1,,,,,,,,,,,,,,,,,,,,,,,,,,,,,,,,,,,,,,,,,,,,,,85,159535,23,Female,1,2024/03/13_10:20:35,YZ,None,
,,,,,,calibration,0,32,2,361,7,N,0,right,0.6522465520101832,1,0,,,,,,,,,,,,,,,,,,,,,1,,,,,,,,,,,,,,,,,,,,,,,,,,,,,,,,,,,,,,,,,,,,,,85,159535,23,Female,1,2024/03/13_10:20:35,YZ,None,
,,,,,,calibration,0,32,2,361,8,C,0,left,0.7590619149996201,0,0,,,,,,,,,,,,,,,,,,,,,1,,,,,,,,,,,,,,,,,,,,,,,,,,,,,,,,,,,,,,,,,,,,,,85,159535,23,Female,1,2024/03/13_10:20:35,YZ,None,
,,,,,,calibration,0,32,2,361,9,F,0,right,0.5306712580058957,1,0,,,,,,,,,,,,,,,,,,,,,1,,,,,,,,,,,,,,,,,,,,,,,,,,,,,,,,,,,,,,,,,,,,,,85,159535,23,Female,1,2024/03/13_10:20:35,YZ,None,
,,,,,,calibration,0,32,2,361,10,N,0,right,0.7077004589955322,1,0,,,,,,,,,,,,,,,,,,,,,1,,,,,,,,,,,,,,,,,,,,,,,,,,,,,,,,,,,,,,,,,,,,,,85,159535,23,Female,1,2024/03/13_10:20:35,YZ,None,
,,,,,,calibration,0,32,2,361,11,F,1,left,0.6235277709929505,1,0,,,,,,,,,,,,,,,,,,,,,1,,,,,,,,,,,,,,,,,,,,,,,,,,,,,,,,,,,,,,,,,,,,,,85,159535,23,Female,1,2024/03/13_10:20:35,YZ,None,
,,,,,,calibration,0,32,2,361,12,Q,0,right,0.5415952030016342,1,0,,,,,,,,,,,,,,,,,,,,,1,,,,,,,,,,,,,,,,,,,,,,,,,,,,,,,,,,,,,,,,,,,,,,85,159535,23,Female,1,2024/03/13_10:20:35,YZ,None,
,,,,,,calibration,0,32,2,361,13,J,0,right,0.5123067699896637,1,0,,,,,,,,,,,,,,,,,,,,,1,,,,,,,,,,,,,,,,,,,,,,,,,,,,,,,,,,,,,,,,,,,,,,85,159535,23,Female,1,2024/03/13_10:20:35,YZ,None,
,,,,,,calibration,0,32,2,361,14,Q,1,left,0.34546692500589415,1,0,,,,,,,,,,,,,,,,,,,,,1,,,,,,,,,,,,,,,,,,,,,,,,,,,,,,,,,,,,,,,,,,,,,,85,159535,23,Female,1,2024/03/13_10:20:35,YZ,None,
,,,,,,calibration,0,32,2,361,15,F,0,right,0.5002400219964329,1,0,,,,,,,,,,,,,,,,,,,,,1,,,,,,,,,,,,,,,,,,,,,,,,,,,,,,,,,,,,,,,,,,,,,,85,159535,23,Female,1,2024/03/13_10:20:35,YZ,None,
,,,,,,calibration,0,32,2,361,16,J,0,right,0.8188201360026142,1,0,,,,,,,,,,,,,,,,,,,,,1,,,,,,,,,,,,,,,,,,,,,,,,,,,,,,,,,,,,,,,,,,,,,,85,159535,23,Female,1,2024/03/13_10:20:35,YZ,None,
,,,,,,calibration,0,32,2,361,17,F,1,left,0.4449272030033171,1,0,,,,,,,,,,,,,,,,,,,,,1,,,,,,,,,,,,,,,,,,,,,,,,,,,,,,,,,,,,,,,,,,,,,,85,159535,23,Female,1,2024/03/13_10:20:35,YZ,None,
,,,,,,calibration,0,32,2,361,18,J,1,right,0.4206352199980756,0,0,,,,,,,,,,,,,,,,,,,,,1,,,,,,,,,,,,,,,,,,,,,,,,,,,,,,,,,,,,,,,,,,,,,,85,159535,23,Female,1,2024/03/13_10:20:35,YZ,None,
,,,,,,calibration,0,32,2,361,,,,,,,,0.9153846153846155,0.8,0.07692307692307693,0.9230769230769231,0.0,0.9230769230769231,0.5485373729995141,4,1,0,0,0,12,16,5,13,0,,,,1,,,,,,,,,,,,,,,,,,,,,,,,,,,,,,,,,,,,,,,,,,,,,,85,159535,23,Female,1,2024/03/13_10:20:35,YZ,None,
,,,,,,Calibration,0,,2,361,,,,,,,,,,,,,,,,,,,,,,,,,4,,,1,,,,,,,,,,,,,,,,,,,,,,,,,,,,,,,,,,,,,,,,,,,,,,85,159535,23,Female,1,2024/03/13_10:20:35,YZ,None,
,,,,,,calibration,0,7,2,303,1,J,0,right,0.35049558299942873,1,0,,,,,,,,,,,,,,,,,,,,,1,,,,,,,,,,,,,,,,,,,,,,,,,,,,,,,,,,,,,,,,,,,,,,85,159535,23,Female,1,2024/03/13_10:20:35,YZ,None,
,,,,,,calibration,0,7,2,303,2,Q,0,right,0.44458121100615244,1,0,,,,,,,,,,,,,,,,,,,,,1,,,,,,,,,,,,,,,,,,,,,,,,,,,,,,,,,,,,,,,,,,,,,,85,159535,23,Female,1,2024/03/13_10:20:35,YZ,None,
,,,,,,calibration,0,7,2,303,3,S,0,right,0.45233541099878494,1,0,,,,,,,,,,,,,,,,,,,,,1,,,,,,,,,,,,,,,,,,,,,,,,,,,,,,,,,,,,,,,,,,,,,,85,159535,23,Female,1,2024/03/13_10:20:35,YZ,None,
,,,,,,calibration,0,7,2,303,4,X,0,right,0.5440675799909513,1,0,,,,,,,,,,,,,,,,,,,,,1,,,,,,,,,,,,,,,,,,,,,,,,,,,,,,,,,,,,,,,,,,,,,,85,159535,23,Female,1,2024/03/13_10:20:35,YZ,None,
,,,,,,calibration,0,7,2,303,5,Q,0,left,0.5802277549955761,0,0,,,,,,,,,,,,,,,,,,,,,1,,,,,,,,,,,,,,,,,,,,,,,,,,,,,,,,,,,,,,,,,,,,,,85,159535,23,Female,1,2024/03/13_10:20:35,YZ,None,
,,,,,,calibration,0,7,2,303,6,C,0,right,0.46019893400080036,1,0,,,,,,,,,,,,,,,,,,,,,1,,,,,,,,,,,,,,,,,,,,,,,,,,,,,,,,,,,,,,,,,,,,,,85,159535,23,Female,1,2024/03/13_10:20:35,YZ,None,
,,,,,,calibration,0,7,2,303,7,N,0,right,0.6079363019962329,1,0,,,,,,,,,,,,,,,,,,,,,1,,,,,,,,,,,,,,,,,,,,,,,,,,,,,,,,,,,,,,,,,,,,,,85,159535,23,Female,1,2024/03/13_10:20:35,YZ,None,
,,,,,,calibration,0,7,2,303,8,S,0,right,0.5717472709948197,1,0,,,,,,,,,,,,,,,,,,,,,1,,,,,,,,,,,,,,,,,,,,,,,,,,,,,,,,,,,,,,,,,,,,,,85,159535,23,Female,1,2024/03/13_10:20:35,YZ,None,
,,,,,,calibration,0,7,2,303,9,F,0,right,0.5754345839959569,1,0,,,,,,,,,,,,,,,,,,,,,1,,,,,,,,,,,,,,,,,,,,,,,,,,,,,,,,,,,,,,,,,,,,,,85,159535,23,Female,1,2024/03/13_10:20:35,YZ,None,
,,,,,,calibration,0,7,2,303,10,J,0,right,0.5861960420006653,1,0,,,,,,,,,,,,,,,,,,,,,1,,,,,,,,,,,,,,,,,,,,,,,,,,,,,,,,,,,,,,,,,,,,,,85,159535,23,Female,1,2024/03/13_10:20:35,YZ,None,
,,,,,,calibration,0,7,2,303,11,F,1,left,0.554324301003362,1,0,,,,,,,,,,,,,,,,,,,,,1,,,,,,,,,,,,,,,,,,,,,,,,,,,,,,,,,,,,,,,,,,,,,,85,159535,23,Female,1,2024/03/13_10:20:35,YZ,None,
,,,,,,calibration,0,7,2,303,12,N,0,right,0.49535096500767395,1,0,,,,,,,,,,,,,,,,,,,,,1,,,,,,,,,,,,,,,,,,,,,,,,,,,,,,,,,,,,,,,,,,,,,,85,159535,23,Female,1,2024/03/13_10:20:35,YZ,None,
,,,,,,calibration,0,7,2,303,13,V,0,right,0.5834352289966773,1,0,,,,,,,,,,,,,,,,,,,,,1,,,,,,,,,,,,,,,,,,,,,,,,,,,,,,,,,,,,,,,,,,,,,,85,159535,23,Female,1,2024/03/13_10:20:35,YZ,None,
,,,,,,calibration,0,7,2,303,14,N,1,left,0.6067385789938271,1,0,,,,,,,,,,,,,,,,,,,,,1,,,,,,,,,,,,,,,,,,,,,,,,,,,,,,,,,,,,,,,,,,,,,,85,159535,23,Female,1,2024/03/13_10:20:35,YZ,None,
,,,,,,calibration,0,7,2,303,15,J,0,right,0.4548628720076522,1,0,,,,,,,,,,,,,,,,,,,,,1,,,,,,,,,,,,,,,,,,,,,,,,,,,,,,,,,,,,,,,,,,,,,,85,159535,23,Female,1,2024/03/13_10:20:35,YZ,None,
,,,,,,calibration,0,7,2,303,16,N,1,right,0.5808901029959088,0,0,,,,,,,,,,,,,,,,,,,,,1,,,,,,,,,,,,,,,,,,,,,,,,,,,,,,,,,,,,,,,,,,,,,,85,159535,23,Female,1,2024/03/13_10:20:35,YZ,None,
,,,,,,calibration,0,7,2,303,17,V,0,right,0.564168635988608,1,0,,,,,,,,,,,,,,,,,,,,,1,,,,,,,,,,,,,,,,,,,,,,,,,,,,,,,,,,,,,,,,,,,,,,85,159535,23,Female,1,2024/03/13_10:20:35,YZ,None,
,,,,,,calibration,0,7,2,303,18,N,1,right,0.6759393200045452,0,0,,,,,,,,,,,,,,,,,,,,,1,,,,,,,,,,,,,,,,,,,,,,,,,,,,,,,,,,,,,,,,,,,,,,85,159535,23,Female,1,2024/03/13_10:20:35,YZ,None,
,,,,,,calibration,0,7,2,303,19,V,1,left,0.6686520189978182,1,0,,,,,,,,,,,,,,,,,,,,,1,,,,,,,,,,,,,,,,,,,,,,,,,,,,,,,,,,,,,,,,,,,,,,85,159535,23,Female,1,2024/03/13_10:20:35,YZ,None,
,,,,,,calibration,0,7,2,303,,,,,,,,0.8535714285714285,0.6,0.07142857142857142,0.9285714285714286,0.0,0.9285714285714286,0.5451359314197601,3,1,0,0,0,13,16,5,14,0,,,,1,,,,,,,,,,,,,,,,,,,,,,,,,,,,,,,,,,,,,,,,,,,,,,85,159535,23,Female,1,2024/03/13_10:20:35,YZ,None,
,,,,,,Calibration,0,,2,303,,,,,,,,,,,,,,,,,,,,,,,,,5,,,1,,,,,,,,,,,,,,,,,,,,,,,,,,,,,,,,,,,,,,,,,,,,,,85,159535,23,Female,1,2024/03/13_10:20:35,YZ,None,
,,,,,,calibration,0,10,2,250,1,Q,0,right,0.39543132699327543,1,0,,,,,,,,,,,,,,,,,,,,,1,,,,,,,,,,,,,,,,,,,,,,,,,,,,,,,,,,,,,,,,,,,,,,85,159535,23,Female,1,2024/03/13_10:20:35,YZ,None,
,,,,,,calibration,0,10,2,250,2,Q,0,left,0.5240429270052118,0,0,,,,,,,,,,,,,,,,,,,,,1,,,,,,,,,,,,,,,,,,,,,,,,,,,,,,,,,,,,,,,,,,,,,,85,159535,23,Female,1,2024/03/13_10:20:35,YZ,None,
,,,,,,calibration,0,10,2,250,3,N,0,right,0.6064875610027229,1,0,,,,,,,,,,,,,,,,,,,,,1,,,,,,,,,,,,,,,,,,,,,,,,,,,,,,,,,,,,,,,,,,,,,,85,159535,23,Female,1,2024/03/13_10:20:35,YZ,None,
,,,,,,calibration,0,10,2,250,4,Q,1,left,0.5945077170035802,1,0,,,,,,,,,,,,,,,,,,,,,1,,,,,,,,,,,,,,,,,,,,,,,,,,,,,,,,,,,,,,,,,,,,,,85,159535,23,Female,1,2024/03/13_10:20:35,YZ,None,
,,,,,,calibration,0,10,2,250,5,V,0,right,0.4535743950109463,1,0,,,,,,,,,,,,,,,,,,,,,1,,,,,,,,,,,,,,,,,,,,,,,,,,,,,,,,,,,,,,,,,,,,,,85,159535,23,Female,1,2024/03/13_10:20:35,YZ,None,
,,,,,,calibration,0,10,2,250,6,S,0,right,0.4487203769967891,1,0,,,,,,,,,,,,,,,,,,,,,1,,,,,,,,,,,,,,,,,,,,,,,,,,,,,,,,,,,,,,,,,,,,,,85,159535,23,Female,1,2024/03/13_10:20:35,YZ,None,
,,,,,,calibration,0,10,2,250,7,V,1,left,0.38026225300563965,1,0,,,,,,,,,,,,,,,,,,,,,1,,,,,,,,,,,,,,,,,,,,,,,,,,,,,,,,,,,,,,,,,,,,,,85,159535,23,Female,1,2024/03/13_10:20:35,YZ,None,
,,,,,,calibration,0,10,2,250,8,J,0,right,0.45696056399901863,1,0,,,,,,,,,,,,,,,,,,,,,1,,,,,,,,,,,,,,,,,,,,,,,,,,,,,,,,,,,,,,,,,,,,,,85,159535,23,Female,1,2024/03/13_10:20:35,YZ,None,
,,,,,,calibration,0,10,2,250,9,V,1,right,0.5338626440061489,0,0,,,,,,,,,,,,,,,,,,,,,1,,,,,,,,,,,,,,,,,,,,,,,,,,,,,,,,,,,,,,,,,,,,,,85,159535,23,Female,1,2024/03/13_10:20:35,YZ,None,
,,,,,,calibration,0,10,2,250,10,S,0,right,0.6415815010113874,1,0,,,,,,,,,,,,,,,,,,,,,1,,,,,,,,,,,,,,,,,,,,,,,,,,,,,,,,,,,,,,,,,,,,,,85,159535,23,Female,1,2024/03/13_10:20:35,YZ,None,
,,,,,,calibration,0,10,2,250,11,J,0,left,0.575492909993045,0,0,,,,,,,,,,,,,,,,,,,,,1,,,,,,,,,,,,,,,,,,,,,,,,,,,,,,,,,,,,,,,,,,,,,,85,159535,23,Female,1,2024/03/13_10:20:35,YZ,None,
,,,,,,calibration,0,10,2,250,12,V,0,right,0.5122335810010554,1,0,,,,,,,,,,,,,,,,,,,,,1,,,,,,,,,,,,,,,,,,,,,,,,,,,,,,,,,,,,,,,,,,,,,,85,159535,23,Female,1,2024/03/13_10:20:35,YZ,None,
,,,,,,calibration,0,10,2,250,13,J,1,left,0.5308599699928891,1,0,,,,,,,,,,,,,,,,,,,,,1,,,,,,,,,,,,,,,,,,,,,,,,,,,,,,,,,,,,,,,,,,,,,,85,159535,23,Female,1,2024/03/13_10:20:35,YZ,None,
,,,,,,calibration,0,10,2,250,14,X,0,right,0.6075500299921259,1,0,,,,,,,,,,,,,,,,,,,,,1,,,,,,,,,,,,,,,,,,,,,,,,,,,,,,,,,,,,,,,,,,,,,,85,159535,23,Female,1,2024/03/13_10:20:35,YZ,None,
,,,,,,calibration,0,10,2,250,15,C,0,right,0.5264496879972285,1,0,,,,,,,,,,,,,,,,,,,,,1,,,,,,,,,,,,,,,,,,,,,,,,,,,,,,,,,,,,,,,,,,,,,,85,159535,23,Female,1,2024/03/13_10:20:35,YZ,None,
,,,,,,calibration,0,10,2,250,16,Q,0,left,0.5307369980000658,0,0,,,,,,,,,,,,,,,,,,,,,1,,,,,,,,,,,,,,,,,,,,,,,,,,,,,,,,,,,,,,,,,,,,,,85,159535,23,Female,1,2024/03/13_10:20:35,YZ,None,
,,,,,,calibration,0,10,2,250,17,C,1,left,0.8008266609977,1,0,,,,,,,,,,,,,,,,,,,,,1,,,,,,,,,,,,,,,,,,,,,,,,,,,,,,,,,,,,,,,,,,,,,,85,159535,23,Female,1,2024/03/13_10:20:35,YZ,None,
,,,,,,calibration,0,10,2,250,18,Q,1,left,0.7808025859994814,1,0,,,,,,,,,,,,,,,,,,,,,1,,,,,,,,,,,,,,,,,,,,,,,,,,,,,,,,,,,,,,,,,,,,,,85,159535,23,Female,1,2024/03/13_10:20:35,YZ,None,
,,,,,,calibration,0,10,2,250,19,V,0,right,0.657390092004789,1,0,,,,,,,,,,,,,,,,,,,,,1,,,,,,,,,,,,,,,,,,,,,,,,,,,,,,,,,,,,,,,,,,,,,,85,159535,23,Female,1,2024/03/13_10:20:35,YZ,None,
,,,,,,calibration,0,10,2,250,20,F,0,right,0.6658696939994115,1,0,,,,,,,,,,,,,,,,,,,,,1,,,,,,,,,,,,,,,,,,,,,,,,,,,,,,,,,,,,,,,,,,,,,,85,159535,23,Female,1,2024/03/13_10:20:35,YZ,None,
,,,,,,calibration,0,10,2,250,,,,,,,,0.8690476190476191,0.8333333333333334,0.21428571428571427,0.7857142857142857,0.0,0.7857142857142857,0.5611821738006256,5,3,0,0,0,11,16,6,14,0,,,,1,,,,,,,,,,,,,,,,,,,,,,,,,,,,,,,,,,,,,,,,,,,,,,85,159535,23,Female,1,2024/03/13_10:20:35,YZ,None,
,,,,,,Calibration,0,,2,250,,,,,,,,,,,,,,,,,,,,,,,,,6,,,1,,,,,,,,,,,,,,,,,,,,,,,,,,,,,,,,,,,,,,,,,,,,,,85,159535,23,Female,1,2024/03/13_10:20:35,YZ,None,
,,,,,,calibration,0,3,2,202,1,V,0,right,0.46126756799640134,1,0,,,,,,,,,,,,,,,,,,,,,1,,,,,,,,,,,,,,,,,,,,,,,,,,,,,,,,,,,,,,,,,,,,,,85,159535,23,Female,1,2024/03/13_10:20:35,YZ,None,
,,,,,,calibration,0,3,2,202,2,F,0,right,0.5755474170000525,1,0,,,,,,,,,,,,,,,,,,,,,1,,,,,,,,,,,,,,,,,,,,,,,,,,,,,,,,,,,,,,,,,,,,,,85,159535,23,Female,1,2024/03/13_10:20:35,YZ,None,
,,,,,,calibration,0,3,2,202,3,N,0,right,0.5519029249990126,1,0,,,,,,,,,,,,,,,,,,,,,1,,,,,,,,,,,,,,,,,,,,,,,,,,,,,,,,,,,,,,,,,,,,,,85,159535,23,Female,1,2024/03/13_10:20:35,YZ,None,
,,,,,,calibration,0,3,2,202,4,F,1,left,0.5439685070014093,1,0,,,,,,,,,,,,,,,,,,,,,1,,,,,,,,,,,,,,,,,,,,,,,,,,,,,,,,,,,,,,,,,,,,,,85,159535,23,Female,1,2024/03/13_10:20:35,YZ,None,
,,,,,,calibration,0,3,2,202,5,C,0,right,0.5643010350031545,1,0,,,,,,,,,,,,,,,,,,,,,1,,,,,,,,,,,,,,,,,,,,,,,,,,,,,,,,,,,,,,,,,,,,,,85,159535,23,Female,1,2024/03/13_10:20:35,YZ,None,
,,,,,,calibration,0,3,2,202,6,N,0,right,0.6307759650080698,1,0,,,,,,,,,,,,,,,,,,,,,1,,,,,,,,,,,,,,,,,,,,,,,,,,,,,,,,,,,,,,,,,,,,,,85,159535,23,Female,1,2024/03/13_10:20:35,YZ,None,
,,,,,,calibration,0,3,2,202,7,Q,0,right,0.8288869679963682,1,0,,,,,,,,,,,,,,,,,,,,,1,,,,,,,,,,,,,,,,,,,,,,,,,,,,,,,,,,,,,,,,,,,,,,85,159535,23,Female,1,2024/03/13_10:20:35,YZ,None,
,,,,,,calibration,0,3,2,202,8,N,1,left,0.6313736769952811,1,0,,,,,,,,,,,,,,,,,,,,,1,,,,,,,,,,,,,,,,,,,,,,,,,,,,,,,,,,,,,,,,,,,,,,85,159535,23,Female,1,2024/03/13_10:20:35,YZ,None,
,,,,,,calibration,0,3,2,202,9,Q,1,right,0.6080759480100824,0,0,,,,,,,,,,,,,,,,,,,,,1,,,,,,,,,,,,,,,,,,,,,,,,,,,,,,,,,,,,,,,,,,,,,,85,159535,23,Female,1,2024/03/13_10:20:35,YZ,None,
,,,,,,calibration,0,3,2,202,10,J,0,right,0.9118263330019545,1,0,,,,,,,,,,,,,,,,,,,,,1,,,,,,,,,,,,,,,,,,,,,,,,,,,,,,,,,,,,,,,,,,,,,,85,159535,23,Female,1,2024/03/13_10:20:35,YZ,None,
,,,,,,calibration,0,3,2,202,11,Q,1,left,0.6088388310017763,1,0,,,,,,,,,,,,,,,,,,,,,1,,,,,,,,,,,,,,,,,,,,,,,,,,,,,,,,,,,,,,,,,,,,,,85,159535,23,Female,1,2024/03/13_10:20:35,YZ,None,
,,,,,,calibration,0,3,2,202,12,C,0,right,0.525080049992539,1,0,,,,,,,,,,,,,,,,,,,,,1,,,,,,,,,,,,,,,,,,,,,,,,,,,,,,,,,,,,,,,,,,,,,,85,159535,23,Female,1,2024/03/13_10:20:35,YZ,None,
,,,,,,calibration,0,3,2,202,13,S,0,right,0.5909865689900471,1,0,,,,,,,,,,,,,,,,,,,,,1,,,,,,,,,,,,,,,,,,,,,,,,,,,,,,,,,,,,,,,,,,,,,,85,159535,23,Female,1,2024/03/13_10:20:35,YZ,None,
,,,,,,calibration,0,3,2,202,14,Q,0,right,0.5382804300024873,1,0,,,,,,,,,,,,,,,,,,,,,1,,,,,,,,,,,,,,,,,,,,,,,,,,,,,,,,,,,,,,,,,,,,,,85,159535,23,Female,1,2024/03/13_10:20:35,YZ,None,
,,,,,,calibration,0,3,2,202,15,X,0,right,0.723365054000169,1,0,,,,,,,,,,,,,,,,,,,,,1,,,,,,,,,,,,,,,,,,,,,,,,,,,,,,,,,,,,,,,,,,,,,,85,159535,23,Female,1,2024/03/13_10:20:35,YZ,None,
,,,,,,calibration,0,3,2,202,16,Q,1,left,0.5588831099885283,1,0,,,,,,,,,,,,,,,,,,,,,1,,,,,,,,,,,,,,,,,,,,,,,,,,,,,,,,,,,,,,,,,,,,,,85,159535,23,Female,1,2024/03/13_10:20:35,YZ,None,
,,,,,,calibration,0,3,2,202,17,V,0,right,0.6645875800022623,1,0,,,,,,,,,,,,,,,,,,,,,1,,,,,,,,,,,,,,,,,,,,,,,,,,,,,,,,,,,,,,,,,,,,,,85,159535,23,Female,1,2024/03/13_10:20:35,YZ,None,
,,,,,,calibration,0,3,2,202,18,Q,1,left,0.7076804380048998,1,0,,,,,,,,,,,,,,,,,,,,,1,,,,,,,,,,,,,,,,,,,,,,,,,,,,,,,,,,,,,,,,,,,,,,85,159535,23,Female,1,2024/03/13_10:20:35,YZ,None,
,,,,,,calibration,0,3,2,202,19,N,0,right,0.4965969339973526,1,0,,,,,,,,,,,,,,,,,,,,,1,,,,,,,,,,,,,,,,,,,,,,,,,,,,,,,,,,,,,,,,,,,,,,85,159535,23,Female,1,2024/03/13_10:20:35,YZ,None,
,,,,,,calibration,0,3,2,202,20,S,0,right,0.5722754519956652,1,0,,,,,,,,,,,,,,,,,,,,,1,,,,,,,,,,,,,,,,,,,,,,,,,,,,,,,,,,,,,,,,,,,,,,85,159535,23,Female,1,2024/03/13_10:20:35,YZ,None,
,,,,,,calibration,0,3,2,202,21,X,0,right,0.6191959470015718,1,0,,,,,,,,,,,,,,,,,,,,,1,,,,,,,,,,,,,,,,,,,,,,,,,,,,,,,,,,,,,,,,,,,,,,85,159535,23,Female,1,2024/03/13_10:20:35,YZ,None,
,,,,,,calibration,0,3,2,202,,,,,,,,0.9583333333333334,0.8333333333333334,0.0,1.0,0.0,1.0,0.6149379399042422,5,0,0,0,0,15,20,6,15,0,,,,1,,,,,,,,,,,,,,,,,,,,,,,,,,,,,,,,,,,,,,,,,,,,,,85,159535,23,Female,1,2024/03/13_10:20:35,YZ,None,
,,,,,,Calibration,0,,2,202,,,,,,,,,,,,,,,,,,,,,,,,,7,,,1,,,,,,,,,,,,,,,,,,,,,,,,,,,,,,,,,,,,,,,,,,,,,,85,159535,23,Female,1,2024/03/13_10:20:35,YZ,None,
,,,,,,calibration,0,6,2,159,1,X,0,right,0.4077392659964971,1,0,,,,,,,,,,,,,,,,,,,,,1,,,,,,,,,,,,,,,,,,,,,,,,,,,,,,,,,,,,,,,,,,,,,,85,159535,23,Female,1,2024/03/13_10:20:35,YZ,None,
,,,,,,calibration,0,6,2,159,2,X,0,right,0.576478415998281,1,0,,,,,,,,,,,,,,,,,,,,,1,,,,,,,,,,,,,,,,,,,,,,,,,,,,,,,,,,,,,,,,,,,,,,85,159535,23,Female,1,2024/03/13_10:20:35,YZ,None,
,,,,,,calibration,0,6,2,159,3,S,0,right,0.512068772004568,1,0,,,,,,,,,,,,,,,,,,,,,1,,,,,,,,,,,,,,,,,,,,,,,,,,,,,,,,,,,,,,,,,,,,,,85,159535,23,Female,1,2024/03/13_10:20:35,YZ,None,
,,,,,,calibration,0,6,2,159,4,N,0,right,0.6086301019968232,1,0,,,,,,,,,,,,,,,,,,,,,1,,,,,,,,,,,,,,,,,,,,,,,,,,,,,,,,,,,,,,,,,,,,,,85,159535,23,Female,1,2024/03/13_10:20:35,YZ,None,
,,,,,,calibration,0,6,2,159,5,Q,0,right,0.5970236339926487,1,0,,,,,,,,,,,,,,,,,,,,,1,,,,,,,,,,,,,,,,,,,,,,,,,,,,,,,,,,,,,,,,,,,,,,85,159535,23,Female,1,2024/03/13_10:20:35,YZ,None,
,,,,,,calibration,0,6,2,159,6,V,0,right,0.641538469993975,1,0,,,,,,,,,,,,,,,,,,,,,1,,,,,,,,,,,,,,,,,,,,,,,,,,,,,,,,,,,,,,,,,,,,,,85,159535,23,Female,1,2024/03/13_10:20:35,YZ,None,
,,,,,,calibration,0,6,2,159,7,F,0,right,0.6419096460012952,1,0,,,,,,,,,,,,,,,,,,,,,1,,,,,,,,,,,,,,,,,,,,,,,,,,,,,,,,,,,,,,,,,,,,,,85,159535,23,Female,1,2024/03/13_10:20:35,YZ,None,
,,,,,,calibration,0,6,2,159,8,C,0,right,0.6076529559941264,1,0,,,,,,,,,,,,,,,,,,,,,1,,,,,,,,,,,,,,,,,,,,,,,,,,,,,,,,,,,,,,,,,,,,,,85,159535,23,Female,1,2024/03/13_10:20:35,YZ,None,
,,,,,,calibration,0,6,2,159,9,F,1,right,0.5899338539893506,0,0,,,,,,,,,,,,,,,,,,,,,1,,,,,,,,,,,,,,,,,,,,,,,,,,,,,,,,,,,,,,,,,,,,,,85,159535,23,Female,1,2024/03/13_10:20:35,YZ,None,
,,,,,,calibration,0,6,2,159,10,Q,0,right,0.6967775150114903,1,0,,,,,,,,,,,,,,,,,,,,,1,,,,,,,,,,,,,,,,,,,,,,,,,,,,,,,,,,,,,,,,,,,,,,85,159535,23,Female,1,2024/03/13_10:20:35,YZ,None,
,,,,,,calibration,0,6,2,159,11,F,1,left,0.5649168999952963,1,0,,,,,,,,,,,,,,,,,,,,,1,,,,,,,,,,,,,,,,,,,,,,,,,,,,,,,,,,,,,,,,,,,,,,85,159535,23,Female,1,2024/03/13_10:20:35,YZ,None,
,,,,,,calibration,0,6,2,159,12,S,0,right,0.5188704320025863,1,0,,,,,,,,,,,,,,,,,,,,,1,,,,,,,,,,,,,,,,,,,,,,,,,,,,,,,,,,,,,,,,,,,,,,85,159535,23,Female,1,2024/03/13_10:20:35,YZ,None,
,,,,,,calibration,0,6,2,159,13,V,0,right,0.6297361339966301,1,0,,,,,,,,,,,,,,,,,,,,,1,,,,,,,,,,,,,,,,,,,,,,,,,,,,,,,,,,,,,,,,,,,,,,85,159535,23,Female,1,2024/03/13_10:20:35,YZ,None,
,,,,,,calibration,0,6,2,159,14,S,1,left,0.40600523199827876,1,0,,,,,,,,,,,,,,,,,,,,,1,,,,,,,,,,,,,,,,,,,,,,,,,,,,,,,,,,,,,,,,,,,,,,85,159535,23,Female,1,2024/03/13_10:20:35,YZ,None,
,,,,,,calibration,0,6,2,159,15,F,0,right,0.4802761070022825,1,0,,,,,,,,,,,,,,,,,,,,,1,,,,,,,,,,,,,,,,,,,,,,,,,,,,,,,,,,,,,,,,,,,,,,85,159535,23,Female,1,2024/03/13_10:20:35,YZ,None,
,,,,,,calibration,0,6,2,159,16,N,0,right,0.6123797909967834,1,0,,,,,,,,,,,,,,,,,,,,,1,,,,,,,,,,,,,,,,,,,,,,,,,,,,,,,,,,,,,,,,,,,,,,85,159535,23,Female,1,2024/03/13_10:20:35,YZ,None,
,,,,,,calibration,0,6,2,159,17,F,1,left,0.5549106760008726,1,0,,,,,,,,,,,,,,,,,,,,,1,,,,,,,,,,,,,,,,,,,,,,,,,,,,,,,,,,,,,,,,,,,,,,85,159535,23,Female,1,2024/03/13_10:20:35,YZ,None,
,,,,,,calibration,0,6,2,159,18,J,0,right,0.43377959400822874,1,0,,,,,,,,,,,,,,,,,,,,,1,,,,,,,,,,,,,,,,,,,,,,,,,,,,,,,,,,,,,,,,,,,,,,85,159535,23,Female,1,2024/03/13_10:20:35,YZ,None,
,,,,,,calibration,0,6,2,159,19,S,0,right,0.5785806859930744,1,0,,,,,,,,,,,,,,,,,,,,,1,,,,,,,,,,,,,,,,,,,,,,,,,,,,,,,,,,,,,,,,,,,,,,85,159535,23,Female,1,2024/03/13_10:20:35,YZ,None,
,,,,,,calibration,0,6,2,159,20,J,1,left,0.4102428019978106,1,0,,,,,,,,,,,,,,,,,,,,,1,,,,,,,,,,,,,,,,,,,,,,,,,,,,,,,,,,,,,,,,,,,,,,85,159535,23,Female,1,2024/03/13_10:20:35,YZ,None,
,,,,,,calibration,0,6,2,159,21,S,1,right,0.5111824560008245,0,0,,,,,,,,,,,,,,,,,,,,,1,,,,,,,,,,,,,,,,,,,,,,,,,,,,,,,,,,,,,,,,,,,,,,85,159535,23,Female,1,2024/03/13_10:20:35,YZ,None,
,,,,,,calibration,0,6,2,159,22,X,0,right,0.47438918400439434,1,0,,,,,,,,,,,,,,,,,,,,,1,,,,,,,,,,,,,,,,,,,,,,,,,,,,,,,,,,,,,,,,,,,,,,85,159535,23,Female,1,2024/03/13_10:20:35,YZ,None,
,,,,,,calibration,0,6,2,159,,,,,,,,0.9166666666666666,0.6666666666666666,0.0,1.0,0.0,1.0,0.5479555738625508,4,0,0,0,0,16,20,6,16,0,,,,1,,,,,,,,,,,,,,,,,,,,,,,,,,,,,,,,,,,,,,,,,,,,,,85,159535,23,Female,1,2024/03/13_10:20:35,YZ,None,
,,,,,,Calibration,0,,2,159,,,,,,,,,,,,,,,,,,,,,,,,,8,,,1,,,,,,,,,,,,,,,,,,,,,,,,,,,,,,,,,,,,,,,,,,,,,,85,159535,23,Female,1,2024/03/13_10:20:35,YZ,None,
,,,,,,calibration,0,23,2,120,1,F,0,right,0.4480002900090767,1,0,,,,,,,,,,,,,,,,,,,,,1,,,,,,,,,,,,,,,,,,,,,,,,,,,,,,,,,,,,,,,,,,,,,,85,159535,23,Female,1,2024/03/13_10:20:35,YZ,None,
,,,,,,calibration,0,23,2,120,2,N,0,right,0.6084393710043514,1,0,,,,,,,,,,,,,,,,,,,,,1,,,,,,,,,,,,,,,,,,,,,,,,,,,,,,,,,,,,,,,,,,,,,,85,159535,23,Female,1,2024/03/13_10:20:35,YZ,None,
,,,,,,calibration,0,23,2,120,3,J,0,right,0.5123344879975775,1,0,,,,,,,,,,,,,,,,,,,,,1,,,,,,,,,,,,,,,,,,,,,,,,,,,,,,,,,,,,,,,,,,,,,,85,159535,23,Female,1,2024/03/13_10:20:35,YZ,None,
,,,,,,calibration,0,23,2,120,4,S,0,right,0.6588450220006052,1,0,,,,,,,,,,,,,,,,,,,,,1,,,,,,,,,,,,,,,,,,,,,,,,,,,,,,,,,,,,,,,,,,,,,,85,159535,23,Female,1,2024/03/13_10:20:35,YZ,None,
,,,,,,calibration,0,23,2,120,5,V,0,right,0.5687716569955228,1,0,,,,,,,,,,,,,,,,,,,,,1,,,,,,,,,,,,,,,,,,,,,,,,,,,,,,,,,,,,,,,,,,,,,,85,159535,23,Female,1,2024/03/13_10:20:35,YZ,None,
,,,,,,calibration,0,23,2,120,6,J,0,left,0.6688599610060919,0,0,,,,,,,,,,,,,,,,,,,,,1,,,,,,,,,,,,,,,,,,,,,,,,,,,,,,,,,,,,,,,,,,,,,,85,159535,23,Female,1,2024/03/13_10:20:35,YZ,None,
,,,,,,calibration,0,23,2,120,7,C,0,right,0.5188597800006391,1,0,,,,,,,,,,,,,,,,,,,,,1,,,,,,,,,,,,,,,,,,,,,,,,,,,,,,,,,,,,,,,,,,,,,,85,159535,23,Female,1,2024/03/13_10:20:35,YZ,None,
,,,,,,calibration,0,23,2,120,8,F,0,right,0.9239540569978999,1,0,,,,,,,,,,,,,,,,,,,,,1,,,,,,,,,,,,,,,,,,,,,,,,,,,,,,,,,,,,,,,,,,,,,,85,159535,23,Female,1,2024/03/13_10:20:35,YZ,None,
,,,,,,calibration,0,23,2,120,9,C,1,right,nan,0,1,,,,,,,,,,,,,,,,,,,,,1,,,,,,,,,,,,,,,,,,,,,,,,,,,,,,,,,,,,,,,,,,,,,,85,159535,23,Female,1,2024/03/13_10:20:35,YZ,None,
,,,,,,calibration,0,23,2,120,10,J,0,right,nan,0,1,,,,,,,,,,,,,,,,,,,,,1,,,,,,,,,,,,,,,,,,,,,,,,,,,,,,,,,,,,,,,,,,,,,,85,159535,23,Female,1,2024/03/13_10:20:35,YZ,None,
,,,,,,calibration,0,23,2,120,11,C,1,left,0.8808257460041204,1,0,,,,,,,,,,,,,,,,,,,,,1,,,,,,,,,,,,,,,,,,,,,,,,,,,,,,,,,,,,,,,,,,,,,,85,159535,23,Female,1,2024/03/13_10:20:35,YZ,None,
,,,,,,calibration,0,23,2,120,12,J,1,left,0.6418981379974866,1,0,,,,,,,,,,,,,,,,,,,,,1,,,,,,,,,,,,,,,,,,,,,,,,,,,,,,,,,,,,,,,,,,,,,,85,159535,23,Female,1,2024/03/13_10:20:35,YZ,None,
,,,,,,calibration,0,23,2,120,13,S,0,right,0.5920711259968812,1,0,,,,,,,,,,,,,,,,,,,,,1,,,,,,,,,,,,,,,,,,,,,,,,,,,,,,,,,,,,,,,,,,,,,,85,159535,23,Female,1,2024/03/13_10:20:35,YZ,None,
,,,,,,calibration,0,23,2,120,14,J,1,left,0.8315344559960067,1,0,,,,,,,,,,,,,,,,,,,,,1,,,,,,,,,,,,,,,,,,,,,,,,,,,,,,,,,,,,,,,,,,,,,,85,159535,23,Female,1,2024/03/13_10:20:35,YZ,None,
,,,,,,calibration,0,23,2,120,15,C,0,right,0.7406767439970281,1,0,,,,,,,,,,,,,,,,,,,,,1,,,,,,,,,,,,,,,,,,,,,,,,,,,,,,,,,,,,,,,,,,,,,,85,159535,23,Female,1,2024/03/13_10:20:35,YZ,None,
,,,,,,calibration,0,23,2,120,16,V,0,right,0.8891763569990871,1,0,,,,,,,,,,,,,,,,,,,,,1,,,,,,,,,,,,,,,,,,,,,,,,,,,,,,,,,,,,,,,,,,,,,,85,159535,23,Female,1,2024/03/13_10:20:35,YZ,None,
,,,,,,calibration,0,23,2,120,17,C,1,left,0.6114459659875138,1,0,,,,,,,,,,,,,,,,,,,,,1,,,,,,,,,,,,,,,,,,,,,,,,,,,,,,,,,,,,,,,,,,,,,,85,159535,23,Female,1,2024/03/13_10:20:35,YZ,None,
,,,,,,calibration,0,23,2,120,18,S,0,right,0.49049719799950253,1,0,,,,,,,,,,,,,,,,,,,,,1,,,,,,,,,,,,,,,,,,,,,,,,,,,,,,,,,,,,,,,,,,,,,,85,159535,23,Female,1,2024/03/13_10:20:35,YZ,None,
,,,,,,calibration,0,23,2,120,19,J,0,right,0.7468845219991636,1,0,,,,,,,,,,,,,,,,,,,,,1,,,,,,,,,,,,,,,,,,,,,,,,,,,,,,,,,,,,,,,,,,,,,,85,159535,23,Female,1,2024/03/13_10:20:35,YZ,None,
,,,,,,calibration,0,23,2,120,20,S,1,left,0.37296300700108986,1,0,,,,,,,,,,,,,,,,,,,,,1,,,,,,,,,,,,,,,,,,,,,,,,,,,,,,,,,,,,,,,,,,,,,,85,159535,23,Female,1,2024/03/13_10:20:35,YZ,None,
,,,,,,calibration,0,23,2,120,21,V,0,right,0.46454798999184277,1,0,,,,,,,,,,,,,,,,,,,,,1,,,,,,,,,,,,,,,,,,,,,,,,,,,,,,,,,,,,,,,,,,,,,,85,159535,23,Female,1,2024/03/13_10:20:35,YZ,None,
,,,,,,calibration,0,23,2,120,22,Q,0,right,0.5584147900081007,1,0,,,,,,,,,,,,,,,,,,,,,1,,,,,,,,,,,,,,,,,,,,,,,,,,,,,,,,,,,,,,,,,,,,,,85,159535,23,Female,1,2024/03/13_10:20:35,YZ,None,
,,,,,,calibration,0,23,2,120,23,J,0,right,0.5240728539938573,1,0,,,,,,,,,,,,,,,,,,,,,1,,,,,,,,,,,,,,,,,,,,,,,,,,,,,,,,,,,,,,,,,,,,,,85,159535,23,Female,1,2024/03/13_10:20:35,YZ,None,
,,,,,,calibration,0,23,2,120,,,,,,,,0.9338235294117647,0.8333333333333334,0.058823529411764705,0.9375,0.08695652173913043,0.8542199488491049,0.6310987390468308,5,1,1,1,2,15,20,6,17,0,,,,1,,,,,,,,,,,,,,,,,,,,,,,,,,,,,,,,,,,,,,,,,,,,,,85,159535,23,Female,1,2024/03/13_10:20:35,YZ,None,
,,,,,,Calibration,0,,2,120,,,,,,,,,,,,,,,,,,,,,,,,,9,,,1,,,,,,,,,,,,,,,,,,,,,,,,,,,,,,,,,,,,,,,,,,,,,,85,159535,23,Female,1,2024/03/13_10:20:35,YZ,None,
,,,,,,calibration,0,27,2,83,1,N,0,right,0.5251606960082427,1,0,,,,,,,,,,,,,,,,,,,,,1,,,,,,,,,,,,,,,,,,,,,,,,,,,,,,,,,,,,,,,,,,,,,,85,159535,23,Female,1,2024/03/13_10:20:35,YZ,None,
,,,,,,calibration,0,27,2,83,2,V,0,right,0.524317413000972,1,0,,,,,,,,,,,,,,,,,,,,,1,,,,,,,,,,,,,,,,,,,,,,,,,,,,,,,,,,,,,,,,,,,,,,85,159535,23,Female,1,2024/03/13_10:20:35,YZ,None,
,,,,,,calibration,0,27,2,83,3,S,0,right,0.4977078289957717,1,0,,,,,,,,,,,,,,,,,,,,,1,,,,,,,,,,,,,,,,,,,,,,,,,,,,,,,,,,,,,,,,,,,,,,85,159535,23,Female,1,2024/03/13_10:20:35,YZ,None,
,,,,,,calibration,0,27,2,83,4,Q,0,right,0.5326041900116252,1,0,,,,,,,,,,,,,,,,,,,,,1,,,,,,,,,,,,,,,,,,,,,,,,,,,,,,,,,,,,,,,,,,,,,,85,159535,23,Female,1,2024/03/13_10:20:35,YZ,None,
,,,,,,calibration,0,27,2,83,5,S,1,left,0.6415982629987411,1,0,,,,,,,,,,,,,,,,,,,,,1,,,,,,,,,,,,,,,,,,,,,,,,,,,,,,,,,,,,,,,,,,,,,,85,159535,23,Female,1,2024/03/13_10:20:35,YZ,None,
,,,,,,calibration,0,27,2,83,6,N,0,right,0.5305350959970383,1,0,,,,,,,,,,,,,,,,,,,,,1,,,,,,,,,,,,,,,,,,,,,,,,,,,,,,,,,,,,,,,,,,,,,,85,159535,23,Female,1,2024/03/13_10:20:35,YZ,None,
,,,,,,calibration,0,27,2,83,7,S,1,left,0.6309560340014286,1,0,,,,,,,,,,,,,,,,,,,,,1,,,,,,,,,,,,,,,,,,,,,,,,,,,,,,,,,,,,,,,,,,,,,,85,159535,23,Female,1,2024/03/13_10:20:35,YZ,None,
,,,,,,calibration,0,27,2,83,8,N,1,right,0.4598037870018743,0,0,,,,,,,,,,,,,,,,,,,,,1,,,,,,,,,,,,,,,,,,,,,,,,,,,,,,,,,,,,,,,,,,,,,,85,159535,23,Female,1,2024/03/13_10:20:35,YZ,None,
,,,,,,calibration,0,27,2,83,9,X,0,right,0.5757045920036035,1,0,,,,,,,,,,,,,,,,,,,,,1,,,,,,,,,,,,,,,,,,,,,,,,,,,,,,,,,,,,,,,,,,,,,,85,159535,23,Female,1,2024/03/13_10:20:35,YZ,None,
,,,,,,calibration,0,27,2,83,10,F,0,right,0.5863431079924339,1,0,,,,,,,,,,,,,,,,,,,,,1,,,,,,,,,,,,,,,,,,,,,,,,,,,,,,,,,,,,,,,,,,,,,,85,159535,23,Female,1,2024/03/13_10:20:35,YZ,None,
,,,,,,calibration,0,27,2,83,11,Q,0,right,0.6776562659943011,1,0,,,,,,,,,,,,,,,,,,,,,1,,,,,,,,,,,,,,,,,,,,,,,,,,,,,,,,,,,,,,,,,,,,,,85,159535,23,Female,1,2024/03/13_10:20:35,YZ,None,
,,,,,,calibration,0,27,2,83,12,C,0,right,0.7613770000025397,1,0,,,,,,,,,,,,,,,,,,,,,1,,,,,,,,,,,,,,,,,,,,,,,,,,,,,,,,,,,,,,,,,,,,,,85,159535,23,Female,1,2024/03/13_10:20:35,YZ,None,
,,,,,,calibration,0,27,2,83,13,S,0,right,0.4992689689970575,1,0,,,,,,,,,,,,,,,,,,,,,1,,,,,,,,,,,,,,,,,,,,,,,,,,,,,,,,,,,,,,,,,,,,,,85,159535,23,Female,1,2024/03/13_10:20:35,YZ,None,
,,,,,,calibration,0,27,2,83,14,F,0,right,0.5829315000009956,1,0,,,,,,,,,,,,,,,,,,,,,1,,,,,,,,,,,,,,,,,,,,,,,,,,,,,,,,,,,,,,,,,,,,,,85,159535,23,Female,1,2024/03/13_10:20:35,YZ,None,
,,,,,,calibration,0,27,2,83,15,Q,0,right,0.6048011109960498,1,0,,,,,,,,,,,,,,,,,,,,,1,,,,,,,,,,,,,,,,,,,,,,,,,,,,,,,,,,,,,,,,,,,,,,85,159535,23,Female,1,2024/03/13_10:20:35,YZ,None,
,,,,,,calibration,0,27,2,83,16,V,0,right,0.6277253180014668,1,0,,,,,,,,,,,,,,,,,,,,,1,,,,,,,,,,,,,,,,,,,,,,,,,,,,,,,,,,,,,,,,,,,,,,85,159535,23,Female,1,2024/03/13_10:20:35,YZ,None,
,,,,,,calibration,0,27,2,83,17,Q,1,right,0.5581594910036074,0,0,,,,,,,,,,,,,,,,,,,,,1,,,,,,,,,,,,,,,,,,,,,,,,,,,,,,,,,,,,,,,,,,,,,,85,159535,23,Female,1,2024/03/13_10:20:35,YZ,None,
,,,,,,calibration,0,27,2,83,18,V,1,left,0.4568988239916507,1,0,,,,,,,,,,,,,,,,,,,,,1,,,,,,,,,,,,,,,,,,,,,,,,,,,,,,,,,,,,,,,,,,,,,,85,159535,23,Female,1,2024/03/13_10:20:35,YZ,None,
,,,,,,calibration,0,27,2,83,19,X,0,right,0.525219142989954,1,0,,,,,,,,,,,,,,,,,,,,,1,,,,,,,,,,,,,,,,,,,,,,,,,,,,,,,,,,,,,,,,,,,,,,85,159535,23,Female,1,2024/03/13_10:20:35,YZ,None,
,,,,,,calibration,0,27,2,83,20,J,0,right,0.5993785199971171,1,0,,,,,,,,,,,,,,,,,,,,,1,,,,,,,,,,,,,,,,,,,,,,,,,,,,,,,,,,,,,,,,,,,,,,85,159535,23,Female,1,2024/03/13_10:20:35,YZ,None,
,,,,,,calibration,0,27,2,83,21,X,1,right,0.6073857930023223,0,0,,,,,,,,,,,,,,,,,,,,,1,,,,,,,,,,,,,,,,,,,,,,,,,,,,,,,,,,,,,,,,,,,,,,85,159535,23,Female,1,2024/03/13_10:20:35,YZ,None,
,,,,,,calibration,0,27,2,83,22,J,1,left,0.5119841230043676,1,0,,,,,,,,,,,,,,,,,,,,,1,,,,,,,,,,,,,,,,,,,,,,,,,,,,,,,,,,,,,,,,,,,,,,85,159535,23,Female,1,2024/03/13_10:20:35,YZ,None,
,,,,,,calibration,0,27,2,83,23,S,0,right,0.5240229899936821,1,0,,,,,,,,,,,,,,,,,,,,,1,,,,,,,,,,,,,,,,,,,,,,,,,,,,,,,,,,,,,,,,,,,,,,85,159535,23,Female,1,2024/03/13_10:20:35,YZ,None,
,,,,,,calibration,0,27,2,83,24,F,0,right,0.44464304999564774,1,0,,,,,,,,,,,,,,,,,,,,,1,,,,,,,,,,,,,,,,,,,,,,,,,,,,,,,,,,,,,,,,,,,,,,85,159535,23,Female,1,2024/03/13_10:20:35,YZ,None,
,,,,,,calibration,0,27,2,83,,,,,,,,0.8928571428571428,0.5714285714285714,0.0,1.0,0.0,1.0,0.5619242960826037,4,0,0,0,0,17,21,7,17,0,,,,1,,,,,,,,,,,,,,,,,,,,,,,,,,,,,,,,,,,,,,,,,,,,,,85,159535,23,Female,1,2024/03/13_10:20:35,YZ,None,
,,,,,,Calibration,0,,2,83,,,,,,,,,,,,,,,,,,,,,,,,,10,,,1,,,,,,,,,,,,,,,,,,,,,,,,,,,,,,,,,,,,,,,,,,,,,,85,159535,23,Female,1,2024/03/13_10:20:35,YZ,None,
,,,,,,calibration,0,16,2,50,1,C,0,right,0.575361088005593,1,0,,,,,,,,,,,,,,,,,,,,,1,,,,,,,,,,,,,,,,,,,,,,,,,,,,,,,,,,,,,,,,,,,,,,85,159535,23,Female,1,2024/03/13_10:20:35,YZ,None,
,,,,,,calibration,0,16,2,50,2,N,0,right,0.5894924929889385,1,0,,,,,,,,,,,,,,,,,,,,,1,,,,,,,,,,,,,,,,,,,,,,,,,,,,,,,,,,,,,,,,,,,,,,85,159535,23,Female,1,2024/03/13_10:20:35,YZ,None,
,,,,,,calibration,0,16,2,50,3,J,0,right,0.4876310130057391,1,0,,,,,,,,,,,,,,,,,,,,,1,,,,,,,,,,,,,,,,,,,,,,,,,,,,,,,,,,,,,,,,,,,,,,85,159535,23,Female,1,2024/03/13_10:20:35,YZ,None,
,,,,,,calibration,0,16,2,50,4,F,0,right,0.5419325460097753,1,0,,,,,,,,,,,,,,,,,,,,,1,,,,,,,,,,,,,,,,,,,,,,,,,,,,,,,,,,,,,,,,,,,,,,85,159535,23,Female,1,2024/03/13_10:20:35,YZ,None,
,,,,,,calibration,0,16,2,50,5,N,0,right,0.8799325760046486,1,0,,,,,,,,,,,,,,,,,,,,,1,,,,,,,,,,,,,,,,,,,,,,,,,,,,,,,,,,,,,,,,,,,,,,85,159535,23,Female,1,2024/03/13_10:20:35,YZ,None,
,,,,,,calibration,0,16,2,50,6,C,0,right,0.6414761920023011,1,0,,,,,,,,,,,,,,,,,,,,,1,,,,,,,,,,,,,,,,,,,,,,,,,,,,,,,,,,,,,,,,,,,,,,85,159535,23,Female,1,2024/03/13_10:20:35,YZ,None,
,,,,,,calibration,0,16,2,50,7,X,0,right,0.6927292649925221,1,0,,,,,,,,,,,,,,,,,,,,,1,,,,,,,,,,,,,,,,,,,,,,,,,,,,,,,,,,,,,,,,,,,,,,85,159535,23,Female,1,2024/03/13_10:20:35,YZ,None,
,,,,,,calibration,0,16,2,50,8,V,0,right,0.574338179998449,1,0,,,,,,,,,,,,,,,,,,,,,1,,,,,,,,,,,,,,,,,,,,,,,,,,,,,,,,,,,,,,,,,,,,,,85,159535,23,Female,1,2024/03/13_10:20:35,YZ,None,
,,,,,,calibration,0,16,2,50,9,Q,0,right,0.5638455930020427,1,0,,,,,,,,,,,,,,,,,,,,,1,,,,,,,,,,,,,,,,,,,,,,,,,,,,,,,,,,,,,,,,,,,,,,85,159535,23,Female,1,2024/03/13_10:20:35,YZ,None,
,,,,,,calibration,0,16,2,50,10,V,1,left,0.41899444500450045,1,0,,,,,,,,,,,,,,,,,,,,,1,,,,,,,,,,,,,,,,,,,,,,,,,,,,,,,,,,,,,,,,,,,,,,85,159535,23,Female,1,2024/03/13_10:20:35,YZ,None,
,,,,,,calibration,0,16,2,50,11,S,0,right,0.4562156499887351,1,0,,,,,,,,,,,,,,,,,,,,,1,,,,,,,,,,,,,,,,,,,,,,,,,,,,,,,,,,,,,,,,,,,,,,85,159535,23,Female,1,2024/03/13_10:20:35,YZ,None,
,,,,,,calibration,0,16,2,50,12,J,0,right,0.512199546006741,1,0,,,,,,,,,,,,,,,,,,,,,1,,,,,,,,,,,,,,,,,,,,,,,,,,,,,,,,,,,,,,,,,,,,,,85,159535,23,Female,1,2024/03/13_10:20:35,YZ,None,
,,,,,,calibration,0,16,2,50,13,S,1,left,0.4910256410075817,1,0,,,,,,,,,,,,,,,,,,,,,1,,,,,,,,,,,,,,,,,,,,,,,,,,,,,,,,,,,,,,,,,,,,,,85,159535,23,Female,1,2024/03/13_10:20:35,YZ,None,
,,,,,,calibration,0,16,2,50,14,C,0,right,0.36010471600457095,1,0,,,,,,,,,,,,,,,,,,,,,1,,,,,,,,,,,,,,,,,,,,,,,,,,,,,,,,,,,,,,,,,,,,,,85,159535,23,Female,1,2024/03/13_10:20:35,YZ,None,
,,,,,,calibration,0,16,2,50,15,F,0,right,0.5822503569943365,1,0,,,,,,,,,,,,,,,,,,,,,1,,,,,,,,,,,,,,,,,,,,,,,,,,,,,,,,,,,,,,,,,,,,,,85,159535,23,Female,1,2024/03/13_10:20:35,YZ,None,
,,,,,,calibration,0,16,2,50,16,S,0,left,0.5751764379965607,0,0,,,,,,,,,,,,,,,,,,,,,1,,,,,,,,,,,,,,,,,,,,,,,,,,,,,,,,,,,,,,,,,,,,,,85,159535,23,Female,1,2024/03/13_10:20:35,YZ,None,
,,,,,,calibration,0,16,2,50,17,N,0,right,0.32768999799736775,1,0,,,,,,,,,,,,,,,,,,,,,1,,,,,,,,,,,,,,,,,,,,,,,,,,,,,,,,,,,,,,,,,,,,,,85,159535,23,Female,1,2024/03/13_10:20:35,YZ,None,
,,,,,,calibration,0,16,2,50,18,S,1,right,0.44474215898662806,0,0,,,,,,,,,,,,,,,,,,,,,1,,,,,,,,,,,,,,,,,,,,,,,,,,,,,,,,,,,,,,,,,,,,,,85,159535,23,Female,1,2024/03/13_10:20:35,YZ,None,
,,,,,,calibration,0,16,2,50,19,J,0,right,0.5712165870063473,1,0,,,,,,,,,,,,,,,,,,,,,1,,,,,,,,,,,,,,,,,,,,,,,,,,,,,,,,,,,,,,,,,,,,,,85,159535,23,Female,1,2024/03/13_10:20:35,YZ,None,
,,,,,,calibration,0,16,2,50,20,F,0,right,0.6249050899932627,1,0,,,,,,,,,,,,,,,,,,,,,1,,,,,,,,,,,,,,,,,,,,,,,,,,,,,,,,,,,,,,,,,,,,,,85,159535,23,Female,1,2024/03/13_10:20:35,YZ,None,
,,,,,,calibration,0,16,2,50,21,J,1,left,0.3258927569986554,1,0,,,,,,,,,,,,,,,,,,,,,1,,,,,,,,,,,,,,,,,,,,,,,,,,,,,,,,,,,,,,,,,,,,,,85,159535,23,Female,1,2024/03/13_10:20:35,YZ,None,
,,,,,,calibration,0,16,2,50,22,N,0,right,0.40997583699936513,1,0,,,,,,,,,,,,,,,,,,,,,1,,,,,,,,,,,,,,,,,,,,,,,,,,,,,,,,,,,,,,,,,,,,,,85,159535,23,Female,1,2024/03/13_10:20:35,YZ,None,
,,,,,,calibration,0,16,2,50,23,J,1,right,0.5533185439999215,0,0,,,,,,,,,,,,,,,,,,,,,1,,,,,,,,,,,,,,,,,,,,,,,,,,,,,,,,,,,,,,,,,,,,,,85,159535,23,Female,1,2024/03/13_10:20:35,YZ,None,
,,,,,,calibration,0,16,2,50,24,N,1,right,0.5418245549954008,0,0,,,,,,,,,,,,,,,,,,,,,1,,,,,,,,,,,,,,,,,,,,,,,,,,,,,,,,,,,,,,,,,,,,,,85,159535,23,Female,1,2024/03/13_10:20:35,YZ,None,
,,,,,,calibration,0,16,2,50,25,S,0,left,0.36682980200566817,0,0,,,,,,,,,,,,,,,,,,,,,1,,,,,,,,,,,,,,,,,,,,,,,,,,,,,,,,,,,,,,,,,,,,,,85,159535,23,Female,1,2024/03/13_10:20:35,YZ,None,
,,,,,,calibration,0,16,2,50,,,,,,,,0.7960526315789473,0.5,0.10526315789473684,0.8947368421052632,0.0,0.8947368421052632,0.5243640427198261,3,2,0,0,0,17,20,6,19,0,,,,1,,,,,,,,,,,,,,,,,,,,,,,,,,,,,,,,,,,,,,,,,,,,,,85,159535,23,Female,1,2024/03/13_10:20:35,YZ,None,
,,,,,,Calibration,0,,2,50,,,,,,,,,,,,,,,,,,,,,,,,,11,,,1,,,,,,,,,,,,,,,,,,,,,,,,,,,,,,,,,,,,,,,,,,,,,,85,159535,23,Female,1,2024/03/13_10:20:35,YZ,None,
,,,,,,calibration,0,1,2,50,1,F,0,None,nan,0,1,,,,,,,,,,,,,,,,,,,,,1,,,,,,,,,,,,,,,,,,,,,,,,,,,,,,,,,,,,,,,,,,,,,,85,159535,23,Female,1,2024/03/13_10:20:35,YZ,None,
,,,,,,calibration,0,1,2,50,2,V,0,None,nan,0,1,,,,,,,,,,,,,,,,,,,,,1,,,,,,,,,,,,,,,,,,,,,,,,,,,,,,,,,,,,,,,,,,,,,,85,159535,23,Female,1,2024/03/13_10:20:35,YZ,None,
,,,,,,calibration,0,1,2,50,3,C,0,None,nan,0,1,,,,,,,,,,,,,,,,,,,,,1,,,,,,,,,,,,,,,,,,,,,,,,,,,,,,,,,,,,,,,,,,,,,,85,159535,23,Female,1,2024/03/13_10:20:35,YZ,None,
,,,,,,calibration,0,1,2,50,4,Q,0,None,nan,0,1,,,,,,,,,,,,,,,,,,,,,1,,,,,,,,,,,,,,,,,,,,,,,,,,,,,,,,,,,,,,,,,,,,,,85,159535,23,Female,1,2024/03/13_10:20:35,YZ,None,
,,,,,,calibration,0,1,2,50,5,V,0,None,nan,0,1,,,,,,,,,,,,,,,,,,,,,1,,,,,,,,,,,,,,,,,,,,,,,,,,,,,,,,,,,,,,,,,,,,,,85,159535,23,Female,1,2024/03/13_10:20:35,YZ,None,
,,,,,,calibration,0,1,2,50,6,J,0,right,0.3832530250074342,1,0,,,,,,,,,,,,,,,,,,,,,1,,,,,,,,,,,,,,,,,,,,,,,,,,,,,,,,,,,,,,,,,,,,,,85,159535,23,Female,1,2024/03/13_10:20:35,YZ,None,
,,,,,,calibration,0,1,2,50,7,N,0,right,0.7207996329962043,1,0,,,,,,,,,,,,,,,,,,,,,1,,,,,,,,,,,,,,,,,,,,,,,,,,,,,,,,,,,,,,,,,,,,,,85,159535,23,Female,1,2024/03/13_10:20:35,YZ,None,
,,,,,,calibration,0,1,2,50,8,V,0,left,0.6072072649985785,0,0,,,,,,,,,,,,,,,,,,,,,1,,,,,,,,,,,,,,,,,,,,,,,,,,,,,,,,,,,,,,,,,,,,,,85,159535,23,Female,1,2024/03/13_10:20:35,YZ,None,
,,,,,,calibration,0,1,2,50,9,J,0,right,0.5642660159937805,1,0,,,,,,,,,,,,,,,,,,,,,1,,,,,,,,,,,,,,,,,,,,,,,,,,,,,,,,,,,,,,,,,,,,,,85,159535,23,Female,1,2024/03/13_10:20:35,YZ,None,
,,,,,,calibration,0,1,2,50,10,F,0,right,0.7091392969887238,1,0,,,,,,,,,,,,,,,,,,,,,1,,,,,,,,,,,,,,,,,,,,,,,,,,,,,,,,,,,,,,,,,,,,,,85,159535,23,Female,1,2024/03/13_10:20:35,YZ,None,
,,,,,,calibration,0,1,2,50,11,J,1,left,0.5945197539986111,1,0,,,,,,,,,,,,,,,,,,,,,1,,,,,,,,,,,,,,,,,,,,,,,,,,,,,,,,,,,,,,,,,,,,,,85,159535,23,Female,1,2024/03/13_10:20:35,YZ,None,
,,,,,,calibration,0,1,2,50,12,V,0,right,0.35562396500608884,1,0,,,,,,,,,,,,,,,,,,,,,1,,,,,,,,,,,,,,,,,,,,,,,,,,,,,,,,,,,,,,,,,,,,,,85,159535,23,Female,1,2024/03/13_10:20:35,YZ,None,
,,,,,,calibration,0,1,2,50,13,F,0,left,0.6662030379957287,0,0,,,,,,,,,,,,,,,,,,,,,1,,,,,,,,,,,,,,,,,,,,,,,,,,,,,,,,,,,,,,,,,,,,,,85,159535,23,Female,1,2024/03/13_10:20:35,YZ,None,
,,,,,,calibration,0,1,2,50,14,Q,0,right,0.446580173986149,1,0,,,,,,,,,,,,,,,,,,,,,1,,,,,,,,,,,,,,,,,,,,,,,,,,,,,,,,,,,,,,,,,,,,,,85,159535,23,Female,1,2024/03/13_10:20:35,YZ,None,
,,,,,,calibration,0,1,2,50,15,X,0,right,0.525935555997421,1,0,,,,,,,,,,,,,,,,,,,,,1,,,,,,,,,,,,,,,,,,,,,,,,,,,,,,,,,,,,,,,,,,,,,,85,159535,23,Female,1,2024/03/13_10:20:35,YZ,None,
,,,,,,calibration,0,1,2,50,16,F,0,right,0.48387266900681425,1,0,,,,,,,,,,,,,,,,,,,,,1,,,,,,,,,,,,,,,,,,,,,,,,,,,,,,,,,,,,,,,,,,,,,,85,159535,23,Female,1,2024/03/13_10:20:35,YZ,None,
,,,,,,calibration,0,1,2,50,17,X,1,right,0.6023730610031635,0,0,,,,,,,,,,,,,,,,,,,,,1,,,,,,,,,,,,,,,,,,,,,,,,,,,,,,,,,,,,,,,,,,,,,,85,159535,23,Female,1,2024/03/13_10:20:35,YZ,None,
,,,,,,calibration,0,1,2,50,18,N,0,right,0.6588259670097614,1,0,,,,,,,,,,,,,,,,,,,,,1,,,,,,,,,,,,,,,,,,,,,,,,,,,,,,,,,,,,,,,,,,,,,,85,159535,23,Female,1,2024/03/13_10:20:35,YZ,None,
,,,,,,calibration,0,1,2,50,19,C,0,right,0.6254318540013628,1,0,,,,,,,,,,,,,,,,,,,,,1,,,,,,,,,,,,,,,,,,,,,,,,,,,,,,,,,,,,,,,,,,,,,,85,159535,23,Female,1,2024/03/13_10:20:35,YZ,None,
,,,,,,calibration,0,1,2,50,20,N,1,left,0.5006384139996953,1,0,,,,,,,,,,,,,,,,,,,,,1,,,,,,,,,,,,,,,,,,,,,,,,,,,,,,,,,,,,,,,,,,,,,,85,159535,23,Female,1,2024/03/13_10:20:35,YZ,None,
,,,,,,calibration,0,1,2,50,21,C,1,right,0.2582163879997097,0,0,,,,,,,,,,,,,,,,,,,,,1,,,,,,,,,,,,,,,,,,,,,,,,,,,,,,,,,,,,,,,,,,,,,,85,159535,23,Female,1,2024/03/13_10:20:35,YZ,None,
,,,,,,calibration,0,1,2,50,22,V,0,right,0.6299958839954343,1,0,,,,,,,,,,,,,,,,,,,,,1,,,,,,,,,,,,,,,,,,,,,,,,,,,,,,,,,,,,,,,,,,,,,,85,159535,23,Female,1,2024/03/13_10:20:35,YZ,None,
,,,,,,calibration,0,1,2,50,23,X,0,left,0.42650887300260365,0,0,,,,,,,,,,,,,,,,,,,,,1,,,,,,,,,,,,,,,,,,,,,,,,,,,,,,,,,,,,,,,,,,,,,,85,159535,23,Female,1,2024/03/13_10:20:35,YZ,None,
,,,,,,calibration,0,1,2,50,24,V,1,right,0.6926736149907811,0,0,,,,,,,,,,,,,,,,,,,,,1,,,,,,,,,,,,,,,,,,,,,,,,,,,,,,,,,,,,,,,,,,,,,,85,159535,23,Female,1,2024/03/13_10:20:35,YZ,None,
,,,,,,calibration,0,1,2,50,25,X,1,left,0.6121175700100139,1,0,,,,,,,,,,,,,,,,,,,,,1,,,,,,,,,,,,,,,,,,,,,,,,,,,,,,,,,,,,,,,,,,,,,,85,159535,23,Female,1,2024/03/13_10:20:35,YZ,None,
,,,,,,calibration,0,1,2,50,,,,,,,,0.756578947368421,0.5,0.15789473684210525,0.7857142857142857,0.2,0.6421052631578947,0.553209100899403,3,3,0,5,5,11,14,6,19,0,,,,1,,,,,,,,,,,,,,,,,,,,,,,,,,,,,,,,,,,,,,,,,,,,,,85,159535,23,Female,1,2024/03/13_10:20:35,YZ,None,
,,,,,,Calibration,0,,2,50,,,,,,,,,,,,,,,,,,,,,,,,,12,,,1,,,,,,,,,,,,,,,,,,,,,,,,,,,,,,,,,,,,,,,,,,,,,,85,159535,23,Female,1,2024/03/13_10:20:35,YZ,None,
,,,,,,calibration,0,3,2,50,1,S,0,None,nan,0,1,,,,,,,,,,,,,,,,,,,,,1,,,,,,,,,,,,,,,,,,,,,,,,,,,,,,,,,,,,,,,,,,,,,,85,159535,23,Female,1,2024/03/13_10:20:35,YZ,None,
,,,,,,calibration,0,3,2,50,2,Q,0,right,0.12173337099375203,1,0,,,,,,,,,,,,,,,,,,,,,1,,,,,,,,,,,,,,,,,,,,,,,,,,,,,,,,,,,,,,,,,,,,,,85,159535,23,Female,1,2024/03/13_10:20:35,YZ,None,
,,,,,,calibration,0,3,2,50,3,F,0,right,0.6650405590044102,1,0,,,,,,,,,,,,,,,,,,,,,1,,,,,,,,,,,,,,,,,,,,,,,,,,,,,,,,,,,,,,,,,,,,,,85,159535,23,Female,1,2024/03/13_10:20:35,YZ,None,
,,,,,,calibration,0,3,2,50,4,S,0,left,0.5400870930025121,0,0,,,,,,,,,,,,,,,,,,,,,1,,,,,,,,,,,,,,,,,,,,,,,,,,,,,,,,,,,,,,,,,,,,,,85,159535,23,Female,1,2024/03/13_10:20:35,YZ,None,
,,,,,,calibration,0,3,2,50,5,N,0,right,0.7410448259906843,1,0,,,,,,,,,,,,,,,,,,,,,1,,,,,,,,,,,,,,,,,,,,,,,,,,,,,,,,,,,,,,,,,,,,,,85,159535,23,Female,1,2024/03/13_10:20:35,YZ,None,
,,,,,,calibration,0,3,2,50,6,X,0,right,0.6257291210058611,1,0,,,,,,,,,,,,,,,,,,,,,1,,,,,,,,,,,,,,,,,,,,,,,,,,,,,,,,,,,,,,,,,,,,,,85,159535,23,Female,1,2024/03/13_10:20:35,YZ,None,
,,,,,,calibration,0,3,2,50,7,C,0,right,0.48459557999740355,1,0,,,,,,,,,,,,,,,,,,,,,1,,,,,,,,,,,,,,,,,,,,,,,,,,,,,,,,,,,,,,,,,,,,,,85,159535,23,Female,1,2024/03/13_10:20:35,YZ,None,
,,,,,,calibration,0,3,2,50,8,N,0,right,0.5956373660010286,1,0,,,,,,,,,,,,,,,,,,,,,1,,,,,,,,,,,,,,,,,,,,,,,,,,,,,,,,,,,,,,,,,,,,,,85,159535,23,Female,1,2024/03/13_10:20:35,YZ,None,
,,,,,,calibration,0,3,2,50,9,C,1,left,0.6128874800051562,1,0,,,,,,,,,,,,,,,,,,,,,1,,,,,,,,,,,,,,,,,,,,,,,,,,,,,,,,,,,,,,,,,,,,,,85,159535,23,Female,1,2024/03/13_10:20:35,YZ,None,
,,,,,,calibration,0,3,2,50,10,N,1,left,0.6311852649960201,1,0,,,,,,,,,,,,,,,,,,,,,1,,,,,,,,,,,,,,,,,,,,,,,,,,,,,,,,,,,,,,,,,,,,,,85,159535,23,Female,1,2024/03/13_10:20:35,YZ,None,
,,,,,,calibration,0,3,2,50,11,X,0,right,0.48716908000642434,1,0,,,,,,,,,,,,,,,,,,,,,1,,,,,,,,,,,,,,,,,,,,,,,,,,,,,,,,,,,,,,,,,,,,,,85,159535,23,Female,1,2024/03/13_10:20:35,YZ,None,
,,,,,,calibration,0,3,2,50,12,N,1,right,0.6092106229916681,0,0,,,,,,,,,,,,,,,,,,,,,1,,,,,,,,,,,,,,,,,,,,,,,,,,,,,,,,,,,,,,,,,,,,,,85,159535,23,Female,1,2024/03/13_10:20:35,YZ,None,
,,,,,,calibration,0,3,2,50,13,J,0,right,0.5292469790001633,1,0,,,,,,,,,,,,,,,,,,,,,1,,,,,,,,,,,,,,,,,,,,,,,,,,,,,,,,,,,,,,,,,,,,,,85,159535,23,Female,1,2024/03/13_10:20:35,YZ,None,
,,,,,,calibration,0,3,2,50,14,C,0,right,0.5240888590051327,1,0,,,,,,,,,,,,,,,,,,,,,1,,,,,,,,,,,,,,,,,,,,,,,,,,,,,,,,,,,,,,,,,,,,,,85,159535,23,Female,1,2024/03/13_10:20:35,YZ,None,
,,,,,,calibration,0,3,2,50,15,J,1,left,0.5306268499989528,1,0,,,,,,,,,,,,,,,,,,,,,1,,,,,,,,,,,,,,,,,,,,,,,,,,,,,,,,,,,,,,,,,,,,,,85,159535,23,Female,1,2024/03/13_10:20:35,YZ,None,
,,,,,,calibration,0,3,2,50,16,Q,0,right,0.5743256499990821,1,0,,,,,,,,,,,,,,,,,,,,,1,,,,,,,,,,,,,,,,,,,,,,,,,,,,,,,,,,,,,,,,,,,,,,85,159535,23,Female,1,2024/03/13_10:20:35,YZ,None,
,,,,,,calibration,0,3,2,50,17,X,0,right,0.5550913869956275,1,0,,,,,,,,,,,,,,,,,,,,,1,,,,,,,,,,,,,,,,,,,,,,,,,,,,,,,,,,,,,,,,,,,,,,85,159535,23,Female,1,2024/03/13_10:20:35,YZ,None,
,,,,,,calibration,0,3,2,50,18,S,0,right,0.5636357530020177,1,0,,,,,,,,,,,,,,,,,,,,,1,,,,,,,,,,,,,,,,,,,,,,,,,,,,,,,,,,,,,,,,,,,,,,85,159535,23,Female,1,2024/03/13_10:20:35,YZ,None,
,,,,,,calibration,0,3,2,50,19,V,0,right,0.5477954109956045,1,0,,,,,,,,,,,,,,,,,,,,,1,,,,,,,,,,,,,,,,,,,,,,,,,,,,,,,,,,,,,,,,,,,,,,85,159535,23,Female,1,2024/03/13_10:20:35,YZ,None,
,,,,,,calibration,0,3,2,50,20,S,1,left,0.5982182930019917,1,0,,,,,,,,,,,,,,,,,,,,,1,,,,,,,,,,,,,,,,,,,,,,,,,,,,,,,,,,,,,,,,,,,,,,85,159535,23,Female,1,2024/03/13_10:20:35,YZ,None,
,,,,,,calibration,0,3,2,50,21,Q,0,right,0.44619254900317173,1,0,,,,,,,,,,,,,,,,,,,,,1,,,,,,,,,,,,,,,,,,,,,,,,,,,,,,,,,,,,,,,,,,,,,,85,159535,23,Female,1,2024/03/13_10:20:35,YZ,None,
,,,,,,calibration,0,3,2,50,22,V,0,right,0.5889745390013559,1,0,,,,,,,,,,,,,,,,,,,,,1,,,,,,,,,,,,,,,,,,,,,,,,,,,,,,,,,,,,,,,,,,,,,,85,159535,23,Female,1,2024/03/13_10:20:35,YZ,None,
,,,,,,calibration,0,3,2,50,23,X,0,right,0.5569320329959737,1,0,,,,,,,,,,,,,,,,,,,,,1,,,,,,,,,,,,,,,,,,,,,,,,,,,,,,,,,,,,,,,,,,,,,,85,159535,23,Female,1,2024/03/13_10:20:35,YZ,None,
,,,,,,calibration,0,3,2,50,24,N,0,right,0.4871102629986126,1,0,,,,,,,,,,,,,,,,,,,,,1,,,,,,,,,,,,,,,,,,,,,,,,,,,,,,,,,,,,,,,,,,,,,,85,159535,23,Female,1,2024/03/13_10:20:35,YZ,None,
,,,,,,calibration,0,3,2,50,25,X,1,right,0.6493730500078527,0,0,,,,,,,,,,,,,,,,,,,,,1,,,,,,,,,,,,,,,,,,,,,,,,,,,,,,,,,,,,,,,,,,,,,,85,159535,23,Female,1,2024/03/13_10:20:35,YZ,None,
,,,,,,calibration,0,3,2,50,,,,,,,,0.8859649122807016,0.6666666666666666,0.05263157894736842,0.9444444444444444,0.04,0.9073684210526316,0.5527471658333525,4,1,0,1,1,17,21,6,19,0,,,,1,,,,,,,,,,,,,,,,,,,,,,,,,,,,,,,,,,,,,,,,,,,,,,85,159535,23,Female,1,2024/03/13_10:20:35,YZ,None,
,,,,,,Calibration,0,,2,50,,,,,,,,,,,,,,,,,,,,,,,,,13,,,1,,,,,,,,,,,,,,,,,,,,,,,,,,,,,,,,,,,,,,,,,,,,,,85,159535,23,Female,1,2024/03/13_10:20:35,YZ,None,
,,,,,,calibration,0,10,2,19,1,X,0,right,0.3772356669942383,1,0,,,,,,,,,,,,,,,,,,,,,1,,,,,,,,,,,,,,,,,,,,,,,,,,,,,,,,,,,,,,,,,,,,,,85,159535,23,Female,1,2024/03/13_10:20:35,YZ,None,
,,,,,,calibration,0,10,2,19,2,S,0,right,0.488376204011729,1,0,,,,,,,,,,,,,,,,,,,,,1,,,,,,,,,,,,,,,,,,,,,,,,,,,,,,,,,,,,,,,,,,,,,,85,159535,23,Female,1,2024/03/13_10:20:35,YZ,None,
,,,,,,calibration,0,10,2,19,3,X,1,left,0.4794397670048056,1,0,,,,,,,,,,,,,,,,,,,,,1,,,,,,,,,,,,,,,,,,,,,,,,,,,,,,,,,,,,,,,,,,,,,,85,159535,23,Female,1,2024/03/13_10:20:35,YZ,None,
,,,,,,calibration,0,10,2,19,4,N,0,right,0.4763714900036575,1,0,,,,,,,,,,,,,,,,,,,,,1,,,,,,,,,,,,,,,,,,,,,,,,,,,,,,,,,,,,,,,,,,,,,,85,159535,23,Female,1,2024/03/13_10:20:35,YZ,None,
,,,,,,calibration,0,10,2,19,5,F,0,right,0.542433811002411,1,0,,,,,,,,,,,,,,,,,,,,,1,,,,,,,,,,,,,,,,,,,,,,,,,,,,,,,,,,,,,,,,,,,,,,85,159535,23,Female,1,2024/03/13_10:20:35,YZ,None,
,,,,,,calibration,0,10,2,19,6,J,0,right,0.45786445499106776,1,0,,,,,,,,,,,,,,,,,,,,,1,,,,,,,,,,,,,,,,,,,,,,,,,,,,,,,,,,,,,,,,,,,,,,85,159535,23,Female,1,2024/03/13_10:20:35,YZ,None,
,,,,,,calibration,0,10,2,19,7,V,0,right,0.5846643020049669,1,0,,,,,,,,,,,,,,,,,,,,,1,,,,,,,,,,,,,,,,,,,,,,,,,,,,,,,,,,,,,,,,,,,,,,85,159535,23,Female,1,2024/03/13_10:20:35,YZ,None,
,,,,,,calibration,0,10,2,19,8,X,0,right,0.47266715300793294,1,0,,,,,,,,,,,,,,,,,,,,,1,,,,,,,,,,,,,,,,,,,,,,,,,,,,,,,,,,,,,,,,,,,,,,85,159535,23,Female,1,2024/03/13_10:20:35,YZ,None,
,,,,,,calibration,0,10,2,19,9,C,0,right,0.5635125910048373,1,0,,,,,,,,,,,,,,,,,,,,,1,,,,,,,,,,,,,,,,,,,,,,,,,,,,,,,,,,,,,,,,,,,,,,85,159535,23,Female,1,2024/03/13_10:20:35,YZ,None,
,,,,,,calibration,0,10,2,19,10,X,1,left,0.6420968519960297,1,0,,,,,,,,,,,,,,,,,,,,,1,,,,,,,,,,,,,,,,,,,,,,,,,,,,,,,,,,,,,,,,,,,,,,85,159535,23,Female,1,2024/03/13_10:20:35,YZ,None,
,,,,,,calibration,0,10,2,19,11,C,1,right,0.40034005799680017,0,0,,,,,,,,,,,,,,,,,,,,,1,,,,,,,,,,,,,,,,,,,,,,,,,,,,,,,,,,,,,,,,,,,,,,85,159535,23,Female,1,2024/03/13_10:20:35,YZ,None,
,,,,,,calibration,0,10,2,19,12,S,0,right,0.7083579080062918,1,0,,,,,,,,,,,,,,,,,,,,,1,,,,,,,,,,,,,,,,,,,,,,,,,,,,,,,,,,,,,,,,,,,,,,85,159535,23,Female,1,2024/03/13_10:20:35,YZ,None,
,,,,,,calibration,0,10,2,19,13,N,0,right,0.6613539640093222,1,0,,,,,,,,,,,,,,,,,,,,,1,,,,,,,,,,,,,,,,,,,,,,,,,,,,,,,,,,,,,,,,,,,,,,85,159535,23,Female,1,2024/03/13_10:20:35,YZ,None,
,,,,,,calibration,0,10,2,19,14,S,1,left,0.46918996899330523,1,0,,,,,,,,,,,,,,,,,,,,,1,,,,,,,,,,,,,,,,,,,,,,,,,,,,,,,,,,,,,,,,,,,,,,85,159535,23,Female,1,2024/03/13_10:20:35,YZ,None,
,,,,,,calibration,0,10,2,19,15,F,0,right,0.512297741996008,1,0,,,,,,,,,,,,,,,,,,,,,1,,,,,,,,,,,,,,,,,,,,,,,,,,,,,,,,,,,,,,,,,,,,,,85,159535,23,Female,1,2024/03/13_10:20:35,YZ,None,
,,,,,,calibration,0,10,2,19,16,S,1,right,0.47537014599947724,0,0,,,,,,,,,,,,,,,,,,,,,1,,,,,,,,,,,,,,,,,,,,,,,,,,,,,,,,,,,,,,,,,,,,,,85,159535,23,Female,1,2024/03/13_10:20:35,YZ,None,
,,,,,,calibration,0,10,2,19,17,Q,0,right,0.5123538400075631,1,0,,,,,,,,,,,,,,,,,,,,,1,,,,,,,,,,,,,,,,,,,,,,,,,,,,,,,,,,,,,,,,,,,,,,85,159535,23,Female,1,2024/03/13_10:20:35,YZ,None,
,,,,,,calibration,0,10,2,19,18,S,1,left,0.5909292600117624,1,0,,,,,,,,,,,,,,,,,,,,,1,,,,,,,,,,,,,,,,,,,,,,,,,,,,,,,,,,,,,,,,,,,,,,85,159535,23,Female,1,2024/03/13_10:20:35,YZ,None,
,,,,,,calibration,0,10,2,19,19,Q,1,right,0.5567955330043333,0,0,,,,,,,,,,,,,,,,,,,,,1,,,,,,,,,,,,,,,,,,,,,,,,,,,,,,,,,,,,,,,,,,,,,,85,159535,23,Female,1,2024/03/13_10:20:35,YZ,None,
,,,,,,calibration,0,10,2,19,20,J,0,right,0.5923797800060129,1,0,,,,,,,,,,,,,,,,,,,,,1,,,,,,,,,,,,,,,,,,,,,,,,,,,,,,,,,,,,,,,,,,,,,,85,159535,23,Female,1,2024/03/13_10:20:35,YZ,None,
,,,,,,calibration,0,10,2,19,21,X,0,right,0.5913654629985103,1,0,,,,,,,,,,,,,,,,,,,,,1,,,,,,,,,,,,,,,,,,,,,,,,,,,,,,,,,,,,,,,,,,,,,,85,159535,23,Female,1,2024/03/13_10:20:35,YZ,None,
,,,,,,calibration,0,10,2,19,22,V,0,right,0.5773969389992999,1,0,,,,,,,,,,,,,,,,,,,,,1,,,,,,,,,,,,,,,,,,,,,,,,,,,,,,,,,,,,,,,,,,,,,,85,159535,23,Female,1,2024/03/13_10:20:35,YZ,None,
,,,,,,calibration,0,10,2,19,23,J,0,left,0.5239994290022878,0,0,,,,,,,,,,,,,,,,,,,,,1,,,,,,,,,,,,,,,,,,,,,,,,,,,,,,,,,,,,,,,,,,,,,,85,159535,23,Female,1,2024/03/13_10:20:35,YZ,None,
,,,,,,calibration,0,10,2,19,24,C,0,right,0.5399754679965554,1,0,,,,,,,,,,,,,,,,,,,,,1,,,,,,,,,,,,,,,,,,,,,,,,,,,,,,,,,,,,,,,,,,,,,,85,159535,23,Female,1,2024/03/13_10:20:35,YZ,None,
,,,,,,calibration,0,10,2,19,25,J,1,right,0.6524276550044306,0,0,,,,,,,,,,,,,,,,,,,,,1,,,,,,,,,,,,,,,,,,,,,,,,,,,,,,,,,,,,,,,,,,,,,,85,159535,23,Female,1,2024/03/13_10:20:35,YZ,None,
,,,,,,calibration,0,10,2,19,26,V,0,right,0.6200220960017759,1,0,,,,,,,,,,,,,,,,,,,,,1,,,,,,,,,,,,,,,,,,,,,,,,,,,,,,,,,,,,,,,,,,,,,,85,159535,23,Female,1,2024/03/13_10:20:35,YZ,None,
,,,,,,calibration,0,10,2,19,,,,,,,,0.8333333333333334,0.5,0.05555555555555555,0.9444444444444444,0.0,0.9444444444444444,0.5411237516175158,4,1,0,0,0,17,21,8,18,0,,,,1,,,,,,,,,,,,,,,,,,,,,,,,,,,,,,,,,,,,,,,,,,,,,,85,159535,23,Female,1,2024/03/13_10:20:35,YZ,None,
,,,,,,Calibration,0,,2,19,,,,,,,,,,,,,,,,,,,,,,,,,14,,,1,,,,,,,,,,,,,,,,,,,,,,,,,,,,,,,,,,,,,,,,,,,,,,85,159535,23,Female,1,2024/03/13_10:20:35,YZ,None,
,,,,,,calibration,0,16,2,19,1,F,0,right,0.7753040019888431,1,0,,,,,,,,,,,,,,,,,,,,,1,,,,,,,,,,,,,,,,,,,,,,,,,,,,,,,,,,,,,,,,,,,,,,85,159535,23,Female,1,2024/03/13_10:20:35,YZ,None,
,,,,,,calibration,0,16,2,19,2,V,0,right,0.5960478089982644,1,0,,,,,,,,,,,,,,,,,,,,,1,,,,,,,,,,,,,,,,,,,,,,,,,,,,,,,,,,,,,,,,,,,,,,85,159535,23,Female,1,2024/03/13_10:20:35,YZ,None,
,,,,,,calibration,0,16,2,19,3,N,0,right,0.48357047300669365,1,0,,,,,,,,,,,,,,,,,,,,,1,,,,,,,,,,,,,,,,,,,,,,,,,,,,,,,,,,,,,,,,,,,,,,85,159535,23,Female,1,2024/03/13_10:20:35,YZ,None,
,,,,,,calibration,0,16,2,19,4,X,0,right,0.5881348550028633,1,0,,,,,,,,,,,,,,,,,,,,,1,,,,,,,,,,,,,,,,,,,,,,,,,,,,,,,,,,,,,,,,,,,,,,85,159535,23,Female,1,2024/03/13_10:20:35,YZ,None,
,,,,,,calibration,0,16,2,19,5,C,0,right,0.5247698320017662,1,0,,,,,,,,,,,,,,,,,,,,,1,,,,,,,,,,,,,,,,,,,,,,,,,,,,,,,,,,,,,,,,,,,,,,85,159535,23,Female,1,2024/03/13_10:20:35,YZ,None,
,,,,,,calibration,0,16,2,19,6,J,0,right,0.6411121599958278,1,0,,,,,,,,,,,,,,,,,,,,,1,,,,,,,,,,,,,,,,,,,,,,,,,,,,,,,,,,,,,,,,,,,,,,85,159535,23,Female,1,2024/03/13_10:20:35,YZ,None,
,,,,,,calibration,0,16,2,19,7,F,0,left,0.6613200860010693,0,0,,,,,,,,,,,,,,,,,,,,,1,,,,,,,,,,,,,,,,,,,,,,,,,,,,,,,,,,,,,,,,,,,,,,85,159535,23,Female,1,2024/03/13_10:20:35,YZ,None,
,,,,,,calibration,0,16,2,19,8,J,1,right,0.20112869700824376,0,0,,,,,,,,,,,,,,,,,,,,,1,,,,,,,,,,,,,,,,,,,,,,,,,,,,,,,,,,,,,,,,,,,,,,85,159535,23,Female,1,2024/03/13_10:20:35,YZ,None,
,,,,,,calibration,0,16,2,19,9,Q,0,right,0.6138218240084825,1,0,,,,,,,,,,,,,,,,,,,,,1,,,,,,,,,,,,,,,,,,,,,,,,,,,,,,,,,,,,,,,,,,,,,,85,159535,23,Female,1,2024/03/13_10:20:35,YZ,None,
,,,,,,calibration,0,16,2,19,10,J,1,right,0.6021866950031836,0,0,,,,,,,,,,,,,,,,,,,,,1,,,,,,,,,,,,,,,,,,,,,,,,,,,,,,,,,,,,,,,,,,,,,,85,159535,23,Female,1,2024/03/13_10:20:35,YZ,None,
,,,,,,calibration,0,16,2,19,11,X,0,right,0.5586518880008953,1,0,,,,,,,,,,,,,,,,,,,,,1,,,,,,,,,,,,,,,,,,,,,,,,,,,,,,,,,,,,,,,,,,,,,,85,159535,23,Female,1,2024/03/13_10:20:35,YZ,None,
,,,,,,calibration,0,16,2,19,12,F,0,right,0.5469936300069094,1,0,,,,,,,,,,,,,,,,,,,,,1,,,,,,,,,,,,,,,,,,,,,,,,,,,,,,,,,,,,,,,,,,,,,,85,159535,23,Female,1,2024/03/13_10:20:35,YZ,None,
,,,,,,calibration,0,16,2,19,13,V,0,right,0.3021196829940891,1,0,,,,,,,,,,,,,,,,,,,,,1,,,,,,,,,,,,,,,,,,,,,,,,,,,,,,,,,,,,,,,,,,,,,,85,159535,23,Female,1,2024/03/13_10:20:35,YZ,None,
,,,,,,calibration,0,16,2,19,14,F,1,left,0.49603895799373277,1,0,,,,,,,,,,,,,,,,,,,,,1,,,,,,,,,,,,,,,,,,,,,,,,,,,,,,,,,,,,,,,,,,,,,,85,159535,23,Female,1,2024/03/13_10:20:35,YZ,None,
,,,,,,calibration,0,16,2,19,15,V,1,left,0.5807945860142354,1,0,,,,,,,,,,,,,,,,,,,,,1,,,,,,,,,,,,,,,,,,,,,,,,,,,,,,,,,,,,,,,,,,,,,,85,159535,23,Female,1,2024/03/13_10:20:35,YZ,None,
,,,,,,calibration,0,16,2,19,16,N,0,right,0.5125343929976225,1,0,,,,,,,,,,,,,,,,,,,,,1,,,,,,,,,,,,,,,,,,,,,,,,,,,,,,,,,,,,,,,,,,,,,,85,159535,23,Female,1,2024/03/13_10:20:35,YZ,None,
,,,,,,calibration,0,16,2,19,17,C,0,right,0.6406224910024321,1,0,,,,,,,,,,,,,,,,,,,,,1,,,,,,,,,,,,,,,,,,,,,,,,,,,,,,,,,,,,,,,,,,,,,,85,159535,23,Female,1,2024/03/13_10:20:35,YZ,None,
,,,,,,calibration,0,16,2,19,18,X,0,right,0.7238674050022382,1,0,,,,,,,,,,,,,,,,,,,,,1,,,,,,,,,,,,,,,,,,,,,,,,,,,,,,,,,,,,,,,,,,,,,,85,159535,23,Female,1,2024/03/13_10:20:35,YZ,None,
,,,,,,calibration,0,16,2,19,19,C,1,left,0.5249642839917215,1,0,,,,,,,,,,,,,,,,,,,,,1,,,,,,,,,,,,,,,,,,,,,,,,,,,,,,,,,,,,,,,,,,,,,,85,159535,23,Female,1,2024/03/13_10:20:35,YZ,None,
,,,,,,calibration,0,16,2,19,20,J,0,right,0.4843173299886985,1,0,,,,,,,,,,,,,,,,,,,,,1,,,,,,,,,,,,,,,,,,,,,,,,,,,,,,,,,,,,,,,,,,,,,,85,159535,23,Female,1,2024/03/13_10:20:35,YZ,None,
,,,,,,calibration,0,16,2,19,21,C,1,left,0.5631211989966687,1,0,,,,,,,,,,,,,,,,,,,,,1,,,,,,,,,,,,,,,,,,,,,,,,,,,,,,,,,,,,,,,,,,,,,,85,159535,23,Female,1,2024/03/13_10:20:35,YZ,None,
,,,,,,calibration,0,16,2,19,22,J,1,right,0.7904670410061954,0,0,,,,,,,,,,,,,,,,,,,,,1,,,,,,,,,,,,,,,,,,,,,,,,,,,,,,,,,,,,,,,,,,,,,,85,159535,23,Female,1,2024/03/13_10:20:35,YZ,None,
,,,,,,calibration,0,16,2,19,23,F,0,left,0.6757797939935699,0,0,,,,,,,,,,,,,,,,,,,,,1,,,,,,,,,,,,,,,,,,,,,,,,,,,,,,,,,,,,,,,,,,,,,,85,159535,23,Female,1,2024/03/13_10:20:35,YZ,None,
,,,,,,calibration,0,16,2,19,24,C,0,left,0.7246190809964901,0,0,,,,,,,,,,,,,,,,,,,,,1,,,,,,,,,,,,,,,,,,,,,,,,,,,,,,,,,,,,,,,,,,,,,,85,159535,23,Female,1,2024/03/13_10:20:35,YZ,None,
,,,,,,calibration,0,16,2,19,25,V,0,right,0.6219942839961732,1,0,,,,,,,,,,,,,,,,,,,,,1,,,,,,,,,,,,,,,,,,,,,,,,,,,,,,,,,,,,,,,,,,,,,,85,159535,23,Female,1,2024/03/13_10:20:35,YZ,None,
,,,,,,calibration,0,16,2,19,26,C,1,left,0.5122742120001931,1,0,,,,,,,,,,,,,,,,,,,,,1,,,,,,,,,,,,,,,,,,,,,,,,,,,,,,,,,,,,,,,,,,,,,,85,159535,23,Female,1,2024/03/13_10:20:35,YZ,None,
,,,,,,calibration,0,16,2,19,,,,,,,,0.8020833333333334,0.625,0.16666666666666666,0.8333333333333334,0.0,0.8333333333333334,0.5748675650768116,5,3,0,0,0,15,20,8,18,0,,,,1,,,,,,,,,,,,,,,,,,,,,,,,,,,,,,,,,,,,,,,,,,,,,,85,159535,23,Female,1,2024/03/13_10:20:35,YZ,None,
,,,,,,Calibration,0,,2,19,,,,,,,,,,,,,,,,,,,,,,,,,15,,,1,,,,,,,,,,,,,,,,,,,,,,,,,,,,,,,,,,,,,,,,,,,,,,85,159535,23,Female,1,2024/03/13_10:20:35,YZ,None,
,,,,,,CALIBRATION,0,,,,,,,,,,,,,,,,,,,,,,,,,,,,15,0.8020833333333334,19,1,,,,,,,,,,,,,,,,,,,,,,,,,,,,,,,,,,,,,,,,,,,,,,85,159535,23,Female,1,2024/03/13_10:20:35,YZ,None,
1,./instructions/inst_prac_1/Slide24.png,right,11.898829136000131,589.6819828809967,601.5808120169968,,,,,,,,,,,,,,,,,,,,,,,,,,,,,,,,,1,,,,,,,,,,,,,,,,,,,,,,,,,,,,,,,,,,,,,,,,,,,,,,85,159535,23,Female,1,2024/03/13_10:20:35,YZ,None,
2,./instructions/inst_prac_1/Slide25.png,right,1.796297868990223,601.6246722869982,603.4209701559885,,,,,,,,,,,,,,,,,,,,,,,,,,,,,,,,,1,,,,,,,,,,,,,,,,,,,,,,,,,,,,,,,,,,,,,,,,,,,,,,85,159535,23,Female,1,2024/03/13_10:20:35,YZ,None,
3,./instructions/inst_prac_1/Slide26.png,right,0.9299445059878053,603.4510237060022,604.38096821199,,,,,,,,,,,,,,,,,,,,,,,,,,,,,,,,,1,,,,,,,,,,,,,,,,,,,,,,,,,,,,,,,,,,,,,,,,,,,,,,85,159535,23,Female,1,2024/03/13_10:20:35,YZ,None,
4,./instructions/inst_prac_1/Slide27.png,right,0.8906846589961788,604.4262731310009,605.3169577899971,,,,,,,,,,,,,,,,,,,,,,,,,,,,,,,,,1,,,,,,,,,,,,,,,,,,,,,,,,,,,,,,,,,,,,,,,,,,,,,,85,159535,23,Female,1,2024/03/13_10:20:35,YZ,None,
3,./instructions/inst_prac_1/Slide28.png,left,0.7725040629884461,605.3446009420004,606.1171050049888,,,,,,,,,,,,,,,,,,,,,,,,,,,,,,,,,1,,,,,,,,,,,,,,,,,,,,,,,,,,,,,,,,,,,,,,,,,,,,,,85,159535,23,Female,1,2024/03/13_10:20:35,YZ,None,
4,./instructions/inst_prac_1/Slide27.png,right,1.580590741999913,606.1444669699995,607.7250577119994,,,,,,,,,,,,,,,,,,,,,,,,,,,,,,,,,1,,,,,,,,,,,,,,,,,,,,,,,,,,,,,,,,,,,,,,,,,,,,,,85,159535,23,Female,1,2024/03/13_10:20:35,YZ,None,
3,./instructions/inst_prac_1/Slide28.png,left,2.4190287819947116,607.754139110999,610.1731678929937,,,,,,,,,,,,,,,,,,,,,,,,,,,,,,,,,1,,,,,,,,,,,,,,,,,,,,,,,,,,,,,,,,,,,,,,,,,,,,,,85,159535,23,Female,1,2024/03/13_10:20:35,YZ,None,
4,./instructions/inst_prac_1/Slide27.png,right,4.288284327994916,610.1965820299956,614.4848663579905,,,,,,,,,,,,,,,,,,,,,,,,,,,,,,,,,1,,,,,,,,,,,,,,,,,,,,,,,,,,,,,,,,,,,,,,,,,,,,,,85,159535,23,Female,1,2024/03/13_10:20:35,YZ,None,
3,./instructions/inst_prac_1/Slide28.png,left,1.1869508159870747,614.5141806320025,615.7011314479896,,,,,,,,,,,,,,,,,,,,,,,,,,,,,,,,,1,,,,,,,,,,,,,,,,,,,,,,,,,,,,,,,,,,,,,,,,,,,,,,85,159535,23,Female,1,2024/03/13_10:20:35,YZ,None,
4,./instructions/inst_prac_1/Slide27.png,right,3.0667781259980984,615.7301012009993,618.7968793269974,,,,,,,,,,,,,,,,,,,,,,,,,,,,,,,,,1,,,,,,,,,,,,,,,,,,,,,,,,,,,,,,,,,,,,,,,,,,,,,,85,159535,23,Female,1,2024/03/13_10:20:35,YZ,None,
5,./instructions/inst_prac_1/Slide28.png,right,1.3427112889912678,618.8221726159973,620.1648839049885,,,,,,,,,,,,,,,,,,,,,,,,,,,,,,,,,1,,,,,,,,,,,,,,,,,,,,,,,,,,,,,,,,,,,,,,,,,,,,,,85,159535,23,Female,1,2024/03/13_10:20:35,YZ,None,
6,./instructions/inst_prac_1/Slide29.png,right,14.601962202999857,620.1951055679965,634.7970677709964,,,,,,,,,,,,,,,,,,,,,,,,,,,,,,,,,1,,,,,,,,,,,,,,,,,,,,,,,,,,,,,,,,,,,,,,,,,,,,,,85,159535,23,Female,1,2024/03/13_10:20:35,YZ,None,
7,./instructions/inst_prac_1/Slide30.png,right,8.739596643004916,634.8415403419931,643.581136984998,,,,,,,,,,,,,,,,,,,,,,,,,,,,,,,,,1,,,,,,,,,,,,,,,,,,,,,,,,,,,,,,,,,,,,,,,,,,,,,,85,159535,23,Female,1,2024/03/13_10:20:35,YZ,None,
,,,,,,practice,0,34,1,1250,1,F,0,right,2.5534051739959978,1,0,,,,,,,,,,,,,,,,,,,,,1,,,,,,,,,,,,,,,,,,,,,,,,,,,,,,,,,,,,,,,,,,,,,,85,159535,23,Female,1,2024/03/13_10:20:35,YZ,None,
,,,,,,practice,0,34,1,1250,2,F,1,left,0.7878383719944395,1,0,,,,,,,,,,,,,,,,,,,,,1,,,,,,,,,,,,,,,,,,,,,,,,,,,,,,,,,,,,,,,,,,,,,,85,159535,23,Female,1,2024/03/13_10:20:35,YZ,None,
,,,,,,practice,0,34,1,1250,3,C,0,right,0.6314000269921962,1,0,,,,,,,,,,,,,,,,,,,,,1,,,,,,,,,,,,,,,,,,,,,,,,,,,,,,,,,,,,,,,,,,,,,,85,159535,23,Female,1,2024/03/13_10:20:35,YZ,None,
,,,,,,practice,0,34,1,1250,4,F,0,right,0.6601850779989036,1,0,,,,,,,,,,,,,,,,,,,,,1,,,,,,,,,,,,,,,,,,,,,,,,,,,,,,,,,,,,,,,,,,,,,,85,159535,23,Female,1,2024/03/13_10:20:35,YZ,None,
,,,,,,practice,0,34,1,1250,5,C,0,right,0.9243988219968742,1,0,,,,,,,,,,,,,,,,,,,,,1,,,,,,,,,,,,,,,,,,,,,,,,,,,,,,,,,,,,,,,,,,,,,,85,159535,23,Female,1,2024/03/13_10:20:35,YZ,None,
,,,,,,practice,0,34,1,1250,6,C,1,left,0.6532270230090944,1,0,,,,,,,,,,,,,,,,,,,,,1,,,,,,,,,,,,,,,,,,,,,,,,,,,,,,,,,,,,,,,,,,,,,,85,159535,23,Female,1,2024/03/13_10:20:35,YZ,None,
,,,,,,practice,0,34,1,1250,7,N,0,right,0.671181202007574,1,0,,,,,,,,,,,,,,,,,,,,,1,,,,,,,,,,,,,,,,,,,,,,,,,,,,,,,,,,,,,,,,,,,,,,85,159535,23,Female,1,2024/03/13_10:20:35,YZ,None,
,,,,,,practice,0,34,1,1250,8,C,0,right,1.3133800530049484,1,0,,,,,,,,,,,,,,,,,,,,,1,,,,,,,,,,,,,,,,,,,,,,,,,,,,,,,,,,,,,,,,,,,,,,85,159535,23,Female,1,2024/03/13_10:20:35,YZ,None,
,,,,,,practice,0,34,1,1250,9,V,0,right,0.5640352019981947,1,0,,,,,,,,,,,,,,,,,,,,,1,,,,,,,,,,,,,,,,,,,,,,,,,,,,,,,,,,,,,,,,,,,,,,85,159535,23,Female,1,2024/03/13_10:20:35,YZ,None,
,,,,,,practice,0,34,1,1250,10,V,1,left,0.48472174200287554,1,0,,,,,,,,,,,,,,,,,,,,,1,,,,,,,,,,,,,,,,,,,,,,,,,,,,,,,,,,,,,,,,,,,,,,85,159535,23,Female,1,2024/03/13_10:20:35,YZ,None,
,,,,,,practice,0,34,1,1250,,,,,,,,1.0,1.0,0.0,1.0,0.0,1.0,0.9243772695001098,3,0,0,0,0,7,10,3,7,0,,,,1,,,,,,,,,,,,,,,,,,,,,,,,,,,,,,,,,,,,,,,,,,,,,,85,159535,23,Female,1,2024/03/13_10:20:35,YZ,None,
1,./instructions/inst_prac_1_next/Slide35.png,right,1.0558994820021326,663.3653077950003,664.4212072770024,,,,,,,,,,,,,,,,,,,,,,,,,,,,,,,,,1,,,,,,,,,,,,,,,,,,,,,,,,,,,,,,,,,,,,,,,,,,,,,,85,159535,23,Female,1,2024/03/13_10:20:35,YZ,None,
,,,,,,practice,0,33,1,19,1,C,0,right,0.6759227059956174,1,0,,,,,,,,,,,,,,,,,,,,,1,,,,,,,,,,,,,,,,,,,,,,,,,,,,,,,,,,,,,,,,,,,,,,85,159535,23,Female,1,2024/03/13_10:20:35,YZ,None,
,,,,,,practice,0,33,1,19,2,C,1,right,1.2715951660065912,0,0,,,,,,,,,,,,,,,,,,,,,1,,,,,,,,,,,,,,,,,,,,,,,,,,,,,,,,,,,,,,,,,,,,,,85,159535,23,Female,1,2024/03/13_10:20:35,YZ,None,
,,,,,,practice,0,33,1,19,3,Q,0,right,0.6803588100010529,1,0,,,,,,,,,,,,,,,,,,,,,1,,,,,,,,,,,,,,,,,,,,,,,,,,,,,,,,,,,,,,,,,,,,,,85,159535,23,Female,1,2024/03/13_10:20:35,YZ,None,
,,,,,,practice,0,33,1,19,4,F,0,right,0.6684331720025511,1,0,,,,,,,,,,,,,,,,,,,,,1,,,,,,,,,,,,,,,,,,,,,,,,,,,,,,,,,,,,,,,,,,,,,,85,159535,23,Female,1,2024/03/13_10:20:35,YZ,None,
,,,,,,practice,0,33,1,19,5,V,0,right,0.5280942230019718,1,0,,,,,,,,,,,,,,,,,,,,,1,,,,,,,,,,,,,,,,,,,,,,,,,,,,,,,,,,,,,,,,,,,,,,85,159535,23,Female,1,2024/03/13_10:20:35,YZ,None,
,,,,,,practice,0,33,1,19,6,F,0,right,0.7041924080112949,1,0,,,,,,,,,,,,,,,,,,,,,1,,,,,,,,,,,,,,,,,,,,,,,,,,,,,,,,,,,,,,,,,,,,,,85,159535,23,Female,1,2024/03/13_10:20:35,YZ,None,
,,,,,,practice,0,33,1,19,7,F,1,left,0.7436423070030287,1,0,,,,,,,,,,,,,,,,,,,,,1,,,,,,,,,,,,,,,,,,,,,,,,,,,,,,,,,,,,,,,,,,,,,,85,159535,23,Female,1,2024/03/13_10:20:35,YZ,None,
,,,,,,practice,0,33,1,19,8,C,0,right,0.6503929729951778,1,0,,,,,,,,,,,,,,,,,,,,,1,,,,,,,,,,,,,,,,,,,,,,,,,,,,,,,,,,,,,,,,,,,,,,85,159535,23,Female,1,2024/03/13_10:20:35,YZ,None,
,,,,,,practice,0,33,1,19,9,S,0,right,0.5852550769923255,1,0,,,,,,,,,,,,,,,,,,,,,1,,,,,,,,,,,,,,,,,,,,,,,,,,,,,,,,,,,,,,,,,,,,,,85,159535,23,Female,1,2024/03/13_10:20:35,YZ,None,
,,,,,,practice,0,33,1,19,10,S,1,left,0.4793934750050539,1,0,,,,,,,,,,,,,,,,,,,,,1,,,,,,,,,,,,,,,,,,,,,,,,,,,,,,,,,,,,,,,,,,,,,,85,159535,23,Female,1,2024/03/13_10:20:35,YZ,None,
,,,,,,practice,0,33,1,19,11,N,0,right,0.5723870840010932,1,0,,,,,,,,,,,,,,,,,,,,,1,,,,,,,,,,,,,,,,,,,,,,,,,,,,,,,,,,,,,,,,,,,,,,85,159535,23,Female,1,2024/03/13_10:20:35,YZ,None,
,,,,,,practice,0,33,1,19,12,C,0,right,0.5692466829932528,1,0,,,,,,,,,,,,,,,,,,,,,1,,,,,,,,,,,,,,,,,,,,,,,,,,,,,,,,,,,,,,,,,,,,,,85,159535,23,Female,1,2024/03/13_10:20:35,YZ,None,
,,,,,,practice,0,33,1,19,13,F,0,right,0.5996482129994547,1,0,,,,,,,,,,,,,,,,,,,,,1,,,,,,,,,,,,,,,,,,,,,,,,,,,,,,,,,,,,,,,,,,,,,,85,159535,23,Female,1,2024/03/13_10:20:35,YZ,None,
,,,,,,practice,0,33,1,19,14,N,0,right,0.5967429199954495,1,0,,,,,,,,,,,,,,,,,,,,,1,,,,,,,,,,,,,,,,,,,,,,,,,,,,,,,,,,,,,,,,,,,,,,85,159535,23,Female,1,2024/03/13_10:20:35,YZ,None,
,,,,,,practice,0,33,1,19,15,Q,0,right,0.6274951439991128,1,0,,,,,,,,,,,,,,,,,,,,,1,,,,,,,,,,,,,,,,,,,,,,,,,,,,,,,,,,,,,,,,,,,,,,85,159535,23,Female,1,2024/03/13_10:20:35,YZ,None,
,,,,,,practice,0,33,1,19,16,F,0,right,0.7290920550003648,1,0,,,,,,,,,,,,,,,,,,,,,1,,,,,,,,,,,,,,,,,,,,,,,,,,,,,,,,,,,,,,,,,,,,,,85,159535,23,Female,1,2024/03/13_10:20:35,YZ,None,
,,,,,,practice,0,33,1,19,17,Q,0,right,0.8231388959975448,1,0,,,,,,,,,,,,,,,,,,,,,1,,,,,,,,,,,,,,,,,,,,,,,,,,,,,,,,,,,,,,,,,,,,,,85,159535,23,Female,1,2024/03/13_10:20:35,YZ,None,
,,,,,,practice,0,33,1,19,18,Q,1,left,0.6081901240104344,1,0,,,,,,,,,,,,,,,,,,,,,1,,,,,,,,,,,,,,,,,,,,,,,,,,,,,,,,,,,,,,,,,,,,,,85,159535,23,Female,1,2024/03/13_10:20:35,YZ,None,
,,,,,,practice,0,33,1,19,19,X,0,right,0.516070971993031,1,0,,,,,,,,,,,,,,,,,,,,,1,,,,,,,,,,,,,,,,,,,,,,,,,,,,,,,,,,,,,,,,,,,,,,85,159535,23,Female,1,2024/03/13_10:20:35,YZ,None,
,,,,,,practice,0,33,1,19,20,X,1,left,0.5097168590000365,1,0,,,,,,,,,,,,,,,,,,,,,1,,,,,,,,,,,,,,,,,,,,,,,,,,,,,,,,,,,,,,,,,,,,,,85,159535,23,Female,1,2024/03/13_10:20:35,YZ,None,
,,,,,,practice,0,33,1,19,21,N,0,right,0.49258945700421464,1,0,,,,,,,,,,,,,,,,,,,,,1,,,,,,,,,,,,,,,,,,,,,,,,,,,,,,,,,,,,,,,,,,,,,,85,159535,23,Female,1,2024/03/13_10:20:35,YZ,None,
,,,,,,practice,0,33,1,19,22,N,1,left,0.5545000929996604,1,0,,,,,,,,,,,,,,,,,,,,,1,,,,,,,,,,,,,,,,,,,,,,,,,,,,,,,,,,,,,,,,,,,,,,85,159535,23,Female,1,2024/03/13_10:20:35,YZ,None,
,,,,,,practice,0,33,1,19,23,X,0,right,0.5205702899984317,1,0,,,,,,,,,,,,,,,,,,,,,1,,,,,,,,,,,,,,,,,,,,,,,,,,,,,,,,,,,,,,,,,,,,,,85,159535,23,Female,1,2024/03/13_10:20:35,YZ,None,
,,,,,,practice,0,33,1,19,24,S,0,right,0.6637250210042112,1,0,,,,,,,,,,,,,,,,,,,,,1,,,,,,,,,,,,,,,,,,,,,,,,,,,,,,,,,,,,,,,,,,,,,,85,159535,23,Female,1,2024/03/13_10:20:35,YZ,None,
,,,,,,practice,0,33,1,19,25,S,1,left,0.6749157029989874,1,0,,,,,,,,,,,,,,,,,,,,,1,,,,,,,,,,,,,,,,,,,,,,,,,,,,,,,,,,,,,,,,,,,,,,85,159535,23,Female,1,2024/03/13_10:20:35,YZ,None,
,,,,,,practice,0,33,1,19,26,N,0,right,0.508384262007894,1,0,,,,,,,,,,,,,,,,,,,,,1,,,,,,,,,,,,,,,,,,,,,,,,,,,,,,,,,,,,,,,,,,,,,,85,159535,23,Female,1,2024/03/13_10:20:35,YZ,None,
,,,,,,practice,0,33,1,19,,,,,,,,0.9642857142857143,0.8571428571428571,0.0,1.0,0.0,1.0,0.6366805420391477,6,0,0,0,0,19,25,7,19,0,,,,1,,,,,,,,,,,,,,,,,,,,,,,,,,,,,,,,,,,,,,,,,,,,,,85,159535,23,Female,1,2024/03/13_10:20:35,YZ,None,
,,,,,,practice,0,11,1,19,1,N,0,right,1.7999225789972115,1,0,,,,,,,,,,,,,,,,,,,,,1,,,,,,,,,,,,,,,,,,,,,,,,,,,,,,,,,,,,,,,,,,,,,,85,159535,23,Female,1,2024/03/13_10:20:35,YZ,None,
,,,,,,practice,0,11,1,19,2,N,1,left,0.66106059300364,1,0,,,,,,,,,,,,,,,,,,,,,1,,,,,,,,,,,,,,,,,,,,,,,,,,,,,,,,,,,,,,,,,,,,,,85,159535,23,Female,1,2024/03/13_10:20:35,YZ,None,
,,,,,,practice,0,11,1,19,3,S,0,right,0.8846500219951849,1,0,,,,,,,,,,,,,,,,,,,,,1,,,,,,,,,,,,,,,,,,,,,,,,,,,,,,,,,,,,,,,,,,,,,,85,159535,23,Female,1,2024/03/13_10:20:35,YZ,None,
,,,,,,practice,0,11,1,19,4,C,0,right,0.4879323899949668,1,0,,,,,,,,,,,,,,,,,,,,,1,,,,,,,,,,,,,,,,,,,,,,,,,,,,,,,,,,,,,,,,,,,,,,85,159535,23,Female,1,2024/03/13_10:20:35,YZ,None,
,,,,,,practice,0,11,1,19,5,C,1,left,0.528667573002167,1,0,,,,,,,,,,,,,,,,,,,,,1,,,,,,,,,,,,,,,,,,,,,,,,,,,,,,,,,,,,,,,,,,,,,,85,159535,23,Female,1,2024/03/13_10:20:35,YZ,None,
,,,,,,practice,0,11,1,19,6,F,0,right,0.8002150440006517,1,0,,,,,,,,,,,,,,,,,,,,,1,,,,,,,,,,,,,,,,,,,,,,,,,,,,,,,,,,,,,,,,,,,,,,85,159535,23,Female,1,2024/03/13_10:20:35,YZ,None,
,,,,,,practice,0,11,1,19,7,F,1,left,0.5624578059941996,1,0,,,,,,,,,,,,,,,,,,,,,1,,,,,,,,,,,,,,,,,,,,,,,,,,,,,,,,,,,,,,,,,,,,,,85,159535,23,Female,1,2024/03/13_10:20:35,YZ,None,
,,,,,,practice,0,11,1,19,8,V,0,right,0.518667511001695,1,0,,,,,,,,,,,,,,,,,,,,,1,,,,,,,,,,,,,,,,,,,,,,,,,,,,,,,,,,,,,,,,,,,,,,85,159535,23,Female,1,2024/03/13_10:20:35,YZ,None,
,,,,,,practice,0,11,1,19,9,F,0,right,0.5058880109863821,1,0,,,,,,,,,,,,,,,,,,,,,1,,,,,,,,,,,,,,,,,,,,,,,,,,,,,,,,,,,,,,,,,,,,,,85,159535,23,Female,1,2024/03/13_10:20:35,YZ,None,
,,,,,,practice,0,11,1,19,10,C,0,right,0.4642621929961024,1,0,,,,,,,,,,,,,,,,,,,,,1,,,,,,,,,,,,,,,,,,,,,,,,,,,,,,,,,,,,,,,,,,,,,,85,159535,23,Female,1,2024/03/13_10:20:35,YZ,None,
,,,,,,practice,0,11,1,19,11,J,0,right,0.5865972840110771,1,0,,,,,,,,,,,,,,,,,,,,,1,,,,,,,,,,,,,,,,,,,,,,,,,,,,,,,,,,,,,,,,,,,,,,85,159535,23,Female,1,2024/03/13_10:20:35,YZ,None,
,,,,,,practice,0,11,1,19,12,J,1,left,0.47405443601019215,1,0,,,,,,,,,,,,,,,,,,,,,1,,,,,,,,,,,,,,,,,,,,,,,,,,,,,,,,,,,,,,,,,,,,,,85,159535,23,Female,1,2024/03/13_10:20:35,YZ,None,
,,,,,,practice,0,11,1,19,13,S,0,right,0.4976702769927215,1,0,,,,,,,,,,,,,,,,,,,,,1,,,,,,,,,,,,,,,,,,,,,,,,,,,,,,,,,,,,,,,,,,,,,,85,159535,23,Female,1,2024/03/13_10:20:35,YZ,None,
,,,,,,practice,0,11,1,19,14,S,1,left,0.6743586910015438,1,0,,,,,,,,,,,,,,,,,,,,,1,,,,,,,,,,,,,,,,,,,,,,,,,,,,,,,,,,,,,,,,,,,,,,85,159535,23,Female,1,2024/03/13_10:20:35,YZ,None,
,,,,,,practice,0,11,1,19,15,X,0,right,0.5632393940031761,1,0,,,,,,,,,,,,,,,,,,,,,1,,,,,,,,,,,,,,,,,,,,,,,,,,,,,,,,,,,,,,,,,,,,,,85,159535,23,Female,1,2024/03/13_10:20:35,YZ,None,
,,,,,,practice,0,11,1,19,16,X,1,left,0.7440115759964101,1,0,,,,,,,,,,,,,,,,,,,,,1,,,,,,,,,,,,,,,,,,,,,,,,,,,,,,,,,,,,,,,,,,,,,,85,159535,23,Female,1,2024/03/13_10:20:35,YZ,None,
,,,,,,practice,0,11,1,19,17,J,0,right,0.4877272760058986,1,0,,,,,,,,,,,,,,,,,,,,,1,,,,,,,,,,,,,,,,,,,,,,,,,,,,,,,,,,,,,,,,,,,,,,85,159535,23,Female,1,2024/03/13_10:20:35,YZ,None,
,,,,,,practice,0,11,1,19,18,N,0,right,0.6232679649983766,1,0,,,,,,,,,,,,,,,,,,,,,1,,,,,,,,,,,,,,,,,,,,,,,,,,,,,,,,,,,,,,,,,,,,,,85,159535,23,Female,1,2024/03/13_10:20:35,YZ,None,
,,,,,,practice,0,11,1,19,19,N,1,left,0.49634449800942093,1,0,,,,,,,,,,,,,,,,,,,,,1,,,,,,,,,,,,,,,,,,,,,,,,,,,,,,,,,,,,,,,,,,,,,,85,159535,23,Female,1,2024/03/13_10:20:35,YZ,None,
,,,,,,practice,0,11,1,19,20,S,0,right,0.44429565100290347,1,0,,,,,,,,,,,,,,,,,,,,,1,,,,,,,,,,,,,,,,,,,,,,,,,,,,,,,,,,,,,,,,,,,,,,85,159535,23,Female,1,2024/03/13_10:20:35,YZ,None,
,,,,,,practice,0,11,1,19,21,S,1,left,0.5964510449994123,1,0,,,,,,,,,,,,,,,,,,,,,1,,,,,,,,,,,,,,,,,,,,,,,,,,,,,,,,,,,,,,,,,,,,,,85,159535,23,Female,1,2024/03/13_10:20:35,YZ,None,
,,,,,,practice,0,11,1,19,22,F,0,right,0.5630329109990271,1,0,,,,,,,,,,,,,,,,,,,,,1,,,,,,,,,,,,,,,,,,,,,,,,,,,,,,,,,,,,,,,,,,,,,,85,159535,23,Female,1,2024/03/13_10:20:35,YZ,None,
,,,,,,practice,0,11,1,19,23,N,0,right,0.9674651700042887,1,0,,,,,,,,,,,,,,,,,,,,,1,,,,,,,,,,,,,,,,,,,,,,,,,,,,,,,,,,,,,,,,,,,,,,85,159535,23,Female,1,2024/03/13_10:20:35,YZ,None,
,,,,,,practice,0,11,1,19,24,V,0,right,0.5234553350019269,1,0,,,,,,,,,,,,,,,,,,,,,1,,,,,,,,,,,,,,,,,,,,,,,,,,,,,,,,,,,,,,,,,,,,,,85,159535,23,Female,1,2024/03/13_10:20:35,YZ,None,
,,,,,,practice,0,11,1,19,25,S,0,right,0.4609926549892407,1,0,,,,,,,,,,,,,,,,,,,,,1,,,,,,,,,,,,,,,,,,,,,,,,,,,,,,,,,,,,,,,,,,,,,,85,159535,23,Female,1,2024/03/13_10:20:35,YZ,None,
,,,,,,practice,0,11,1,19,26,N,0,right,0.5489702590130037,1,0,,,,,,,,,,,,,,,,,,,,,1,,,,,,,,,,,,,,,,,,,,,,,,,,,,,,,,,,,,,,,,,,,,,,85,159535,23,Female,1,2024/03/13_10:20:35,YZ,None,
,,,,,,practice,0,11,1,19,,,,,,,,1.0,1.0,0.0,1.0,0.0,1.0,0.6332945440388777,8,0,0,0,0,18,26,8,18,0,,,,1,,,,,,,,,,,,,,,,,,,,,,,,,,,,,,,,,,,,,,,,,,,,,,85,159535,23,Female,1,2024/03/13_10:20:35,YZ,None,
1,./instructions/inst_prac_3/Slide37.png,right,1.3946101459878264,728.8743318030029,730.2689419489907,,,,,,,,,,,,,,,,,,,,,,,,,,,,,,,,,1,,,,,,,,,,,,,,,,,,,,,,,,,,,,,,,,,,,,,,,,,,,,,,85,159535,23,Female,1,2024/03/13_10:20:35,YZ,None,
2,./instructions/inst_prac_3/Slide38.png,right,3.769742046002648,730.2991172499896,734.0688592959923,,,,,,,,,,,,,,,,,,,,,,,,,,,,,,,,,1,,,,,,,,,,,,,,,,,,,,,,,,,,,,,,,,,,,,,,,,,,,,,,85,159535,23,Female,1,2024/03/13_10:20:35,YZ,None,
3,./instructions/inst_prac_3/Slide39.png,right,1.090304790996015,734.0986751849996,735.1889799759956,,,,,,,,,,,,,,,,,,,,,,,,,,,,,,,,,1,,,,,,,,,,,,,,,,,,,,,,,,,,,,,,,,,,,,,,,,,,,,,,85,159535,23,Female,1,2024/03/13_10:20:35,YZ,None,
4,./instructions/inst_prac_3/Slide40.png,right,1.4816879610007163,735.2194893260021,736.7011772870028,,,,,,,,,,,,,,,,,,,,,,,,,,,,,,,,,1,,,,,,,,,,,,,,,,,,,,,,,,,,,,,,,,,,,,,,,,,,,,,,85,159535,23,Female,1,2024/03/13_10:20:35,YZ,None,
5,./instructions/inst_prac_3/Slide41.png,right,1.7942929419950815,736.7307708699955,738.5250638119905,,,,,,,,,,,,,,,,,,,,,,,,,,,,,,,,,1,,,,,,,,,,,,,,,,,,,,,,,,,,,,,,,,,,,,,,,,,,,,,,85,159535,23,Female,1,2024/03/13_10:20:35,YZ,None,
4,./instructions/inst_prac_3/Slide42.png,left,1.3469370030070422,738.5541856039927,739.9011226069997,,,,,,,,,,,,,,,,,,,,,,,,,,,,,,,,,1,,,,,,,,,,,,,,,,,,,,,,,,,,,,,,,,,,,,,,,,,,,,,,85,159535,23,Female,1,2024/03/13_10:20:35,YZ,None,
5,./instructions/inst_prac_3/Slide41.png,right,1.0988364330114564,739.9301119899901,741.0289484230016,,,,,,,,,,,,,,,,,,,,,,,,,,,,,,,,,1,,,,,,,,,,,,,,,,,,,,,,,,,,,,,,,,,,,,,,,,,,,,,,85,159535,23,Female,1,2024/03/13_10:20:35,YZ,None,
6,./instructions/inst_prac_3/Slide42.png,right,0.43467910699837375,741.0582392389915,741.4929183459899,,,,,,,,,,,,,,,,,,,,,,,,,,,,,,,,,1,,,,,,,,,,,,,,,,,,,,,,,,,,,,,,,,,,,,,,,,,,,,,,85,159535,23,Female,1,2024/03/13_10:20:35,YZ,None,
7,./instructions/inst_prac_3/Slide43.png,right,3.3459783389989752,741.5229695909948,744.8689479299937,,,,,,,,,,,,,,,,,,,,,,,,,,,,,,,,,1,,,,,,,,,,,,,,,,,,,,,,,,,,,,,,,,,,,,,,,,,,,,,,85,159535,23,Female,1,2024/03/13_10:20:35,YZ,None,
8,./instructions/inst_prac_3/Slide44.png,right,6.356708524006535,744.8963664899929,751.2530750139995,,,,,,,,,,,,,,,,,,,,,,,,,,,,,,,,,1,,,,,,,,,,,,,,,,,,,,,,,,,,,,,,,,,,,,,,,,,,,,,,85,159535,23,Female,1,2024/03/13_10:20:35,YZ,None,
,,,,,,practice,0,23,3,788,1,S,0,right,2.294930199001101,1,0,,,,,,,,,,,,,,,,,,,,,1,,,,,,,,,,,,,,,,,,,,,,,,,,,,,,,,,,,,,,,,,,,,,,85,159535,23,Female,1,2024/03/13_10:20:35,YZ,None,
,,,,,,practice,0,23,3,788,2,F,0,right,0.7081498299958184,1,0,,,,,,,,,,,,,,,,,,,,,1,,,,,,,,,,,,,,,,,,,,,,,,,,,,,,,,,,,,,,,,,,,,,,85,159535,23,Female,1,2024/03/13_10:20:35,YZ,None,
,,,,,,practice,0,23,3,788,3,V,0,right,0.6792175870068604,1,0,,,,,,,,,,,,,,,,,,,,,1,,,,,,,,,,,,,,,,,,,,,,,,,,,,,,,,,,,,,,,,,,,,,,85,159535,23,Female,1,2024/03/13_10:20:35,YZ,None,
,,,,,,practice,0,23,3,788,4,S,1,left,1.0123821099987254,1,0,,,,,,,,,,,,,,,,,,,,,1,,,,,,,,,,,,,,,,,,,,,,,,,,,,,,,,,,,,,,,,,,,,,,85,159535,23,Female,1,2024/03/13_10:20:35,YZ,None,
,,,,,,practice,0,23,3,788,5,X,0,right,1.156654956008424,1,0,,,,,,,,,,,,,,,,,,,,,1,,,,,,,,,,,,,,,,,,,,,,,,,,,,,,,,,,,,,,,,,,,,,,85,159535,23,Female,1,2024/03/13_10:20:35,YZ,None,
,,,,,,practice,0,23,3,788,6,C,0,right,0.6846676939894678,1,0,,,,,,,,,,,,,,,,,,,,,1,,,,,,,,,,,,,,,,,,,,,,,,,,,,,,,,,,,,,,,,,,,,,,85,159535,23,Female,1,2024/03/13_10:20:35,YZ,None,
,,,,,,practice,0,23,3,788,7,S,1,left,0.8610712509980658,1,0,,,,,,,,,,,,,,,,,,,,,1,,,,,,,,,,,,,,,,,,,,,,,,,,,,,,,,,,,,,,,,,,,,,,85,159535,23,Female,1,2024/03/13_10:20:35,YZ,None,
,,,,,,practice,0,23,3,788,8,X,1,left,1.526597767995554,1,0,,,,,,,,,,,,,,,,,,,,,1,,,,,,,,,,,,,,,,,,,,,,,,,,,,,,,,,,,,,,,,,,,,,,85,159535,23,Female,1,2024/03/13_10:20:35,YZ,None,
,,,,,,practice,0,23,3,788,9,X,0,right,0.8181601830001455,1,0,,,,,,,,,,,,,,,,,,,,,1,,,,,,,,,,,,,,,,,,,,,,,,,,,,,,,,,,,,,,,,,,,,,,85,159535,23,Female,1,2024/03/13_10:20:35,YZ,None,
,,,,,,practice,0,23,3,788,10,N,0,right,2.269414173992118,1,0,,,,,,,,,,,,,,,,,,,,,1,,,,,,,,,,,,,,,,,,,,,,,,,,,,,,,,,,,,,,,,,,,,,,85,159535,23,Female,1,2024/03/13_10:20:35,YZ,None,
,,,,,,practice,0,23,3,788,11,X,1,left,0.8614994480012683,1,0,,,,,,,,,,,,,,,,,,,,,1,,,,,,,,,,,,,,,,,,,,,,,,,,,,,,,,,,,,,,,,,,,,,,85,159535,23,Female,1,2024/03/13_10:20:35,YZ,None,
,,,,,,practice,0,23,3,788,12,N,0,right,0.8854953949921764,1,0,,,,,,,,,,,,,,,,,,,,,1,,,,,,,,,,,,,,,,,,,,,,,,,,,,,,,,,,,,,,,,,,,,,,85,159535,23,Female,1,2024/03/13_10:20:35,YZ,None,
,,,,,,practice,0,23,3,788,13,C,0,right,1.406452390991035,1,0,,,,,,,,,,,,,,,,,,,,,1,,,,,,,,,,,,,,,,,,,,,,,,,,,,,,,,,,,,,,,,,,,,,,85,159535,23,Female,1,2024/03/13_10:20:35,YZ,None,
,,,,,,practice,0,23,3,788,,,,,,,,1.0,1.0,0.0,1.0,0.0,1.0,1.1665148450746738,4,0,0,0,0,9,13,4,9,0,,,,1,,,,,,,,,,,,,,,,,,,,,,,,,,,,,,,,,,,,,,,,,,,,,,85,159535,23,Female,1,2024/03/13_10:20:35,YZ,None,
1,./instructions/inst_prac_3_next/Slide49.png,right,1.2236834909999743,780.1014133369899,781.3250968279899,,,,,,,,,,,,,,,,,,,,,,,,,,,,,,,,,1,,,,,,,,,,,,,,,,,,,,,,,,,,,,,,,,,,,,,,,,,,,,,,85,159535,23,Female,1,2024/03/13_10:20:35,YZ,None,
,,,,,,practice,0,29,3,19,1,C,0,right,1.1238827039924217,1,0,,,,,,,,,,,,,,,,,,,,,1,,,,,,,,,,,,,,,,,,,,,,,,,,,,,,,,,,,,,,,,,,,,,,85,159535,23,Female,1,2024/03/13_10:20:35,YZ,None,
,,,,,,practice,0,29,3,19,2,S,0,right,0.4788137290015584,1,0,,,,,,,,,,,,,,,,,,,,,1,,,,,,,,,,,,,,,,,,,,,,,,,,,,,,,,,,,,,,,,,,,,,,85,159535,23,Female,1,2024/03/13_10:20:35,YZ,None,
,,,,,,practice,0,29,3,19,3,N,0,right,0.43159658199874684,1,0,,,,,,,,,,,,,,,,,,,,,1,,,,,,,,,,,,,,,,,,,,,,,,,,,,,,,,,,,,,,,,,,,,,,85,159535,23,Female,1,2024/03/13_10:20:35,YZ,None,
,,,,,,practice,0,29,3,19,4,V,0,right,0.5006153750000522,1,0,,,,,,,,,,,,,,,,,,,,,1,,,,,,,,,,,,,,,,,,,,,,,,,,,,,,,,,,,,,,,,,,,,,,85,159535,23,Female,1,2024/03/13_10:20:35,YZ,None,
,,,,,,practice,0,29,3,19,5,S,1,left,0.8721859159995802,1,0,,,,,,,,,,,,,,,,,,,,,1,,,,,,,,,,,,,,,,,,,,,,,,,,,,,,,,,,,,,,,,,,,,,,85,159535,23,Female,1,2024/03/13_10:20:35,YZ,None,
,,,,,,practice,0,29,3,19,6,S,0,right,0.7268459649931174,1,0,,,,,,,,,,,,,,,,,,,,,1,,,,,,,,,,,,,,,,,,,,,,,,,,,,,,,,,,,,,,,,,,,,,,85,159535,23,Female,1,2024/03/13_10:20:35,YZ,None,
,,,,,,practice,0,29,3,19,7,F,0,right,1.2405005159962457,1,0,,,,,,,,,,,,,,,,,,,,,1,,,,,,,,,,,,,,,,,,,,,,,,,,,,,,,,,,,,,,,,,,,,,,85,159535,23,Female,1,2024/03/13_10:20:35,YZ,None,
,,,,,,practice,0,29,3,19,8,S,1,right,2.0089482990006218,0,0,,,,,,,,,,,,,,,,,,,,,1,,,,,,,,,,,,,,,,,,,,,,,,,,,,,,,,,,,,,,,,,,,,,,85,159535,23,Female,1,2024/03/13_10:20:35,YZ,None,
,,,,,,practice,0,29,3,19,9,J,0,right,1.0331557089957641,1,0,,,,,,,,,,,,,,,,,,,,,1,,,,,,,,,,,,,,,,,,,,,,,,,,,,,,,,,,,,,,,,,,,,,,85,159535,23,Female,1,2024/03/13_10:20:35,YZ,None,
,,,,,,practice,0,29,3,19,10,J,0,right,1.056403869006317,1,0,,,,,,,,,,,,,,,,,,,,,1,,,,,,,,,,,,,,,,,,,,,,,,,,,,,,,,,,,,,,,,,,,,,,85,159535,23,Female,1,2024/03/13_10:20:35,YZ,None,
,,,,,,practice,0,29,3,19,11,X,0,right,1.0255265180021524,1,0,,,,,,,,,,,,,,,,,,,,,1,,,,,,,,,,,,,,,,,,,,,,,,,,,,,,,,,,,,,,,,,,,,,,85,159535,23,Female,1,2024/03/13_10:20:35,YZ,None,
,,,,,,practice,0,29,3,19,12,C,0,right,2.6081726450065617,1,0,,,,,,,,,,,,,,,,,,,,,1,,,,,,,,,,,,,,,,,,,,,,,,,,,,,,,,,,,,,,,,,,,,,,85,159535,23,Female,1,2024/03/13_10:20:35,YZ,None,
,,,,,,practice,0,29,3,19,13,J,1,left,1.1692280389979715,1,0,,,,,,,,,,,,,,,,,,,,,1,,,,,,,,,,,,,,,,,,,,,,,,,,,,,,,,,,,,,,,,,,,,,,85,159535,23,Female,1,2024/03/13_10:20:35,YZ,None,
,,,,,,practice,0,29,3,19,14,X,1,right,1.1481596430094214,0,0,,,,,,,,,,,,,,,,,,,,,1,,,,,,,,,,,,,,,,,,,,,,,,,,,,,,,,,,,,,,,,,,,,,,85,159535,23,Female,1,2024/03/13_10:20:35,YZ,None,
,,,,,,practice,0,29,3,19,15,V,0,right,0.9762313009996433,1,0,,,,,,,,,,,,,,,,,,,,,1,,,,,,,,,,,,,,,,,,,,,,,,,,,,,,,,,,,,,,,,,,,,,,85,159535,23,Female,1,2024/03/13_10:20:35,YZ,None,
,,,,,,practice,0,29,3,19,16,N,0,right,1.1756948319962248,1,0,,,,,,,,,,,,,,,,,,,,,1,,,,,,,,,,,,,,,,,,,,,,,,,,,,,,,,,,,,,,,,,,,,,,85,159535,23,Female,1,2024/03/13_10:20:35,YZ,None,
,,,,,,practice,0,29,3,19,17,X,1,left,5.976211697998224,1,0,,,,,,,,,,,,,,,,,,,,,1,,,,,,,,,,,,,,,,,,,,,,,,,,,,,,,,,,,,,,,,,,,,,,85,159535,23,Female,1,2024/03/13_10:20:35,YZ,None,
,,,,,,practice,0,29,3,19,18,V,1,left,2.204304676997708,1,0,,,,,,,,,,,,,,,,,,,,,1,,,,,,,,,,,,,,,,,,,,,,,,,,,,,,,,,,,,,,,,,,,,,,85,159535,23,Female,1,2024/03/13_10:20:35,YZ,None,
,,,,,,practice,0,29,3,19,19,C,0,right,0.5793390329927206,1,0,,,,,,,,,,,,,,,,,,,,,1,,,,,,,,,,,,,,,,,,,,,,,,,,,,,,,,,,,,,,,,,,,,,,85,159535,23,Female,1,2024/03/13_10:20:35,YZ,None,
,,,,,,practice,0,29,3,19,20,X,1,left,1.9532480399939232,1,0,,,,,,,,,,,,,,,,,,,,,1,,,,,,,,,,,,,,,,,,,,,,,,,,,,,,,,,,,,,,,,,,,,,,85,159535,23,Female,1,2024/03/13_10:20:35,YZ,None,
,,,,,,practice,0,29,3,19,21,N,0,right,0.9004393030045321,1,0,,,,,,,,,,,,,,,,,,,,,1,,,,,,,,,,,,,,,,,,,,,,,,,,,,,,,,,,,,,,,,,,,,,,85,159535,23,Female,1,2024/03/13_10:20:35,YZ,None,
,,,,,,practice,0,29,3,19,22,C,1,right,0.7441022239945596,0,0,,,,,,,,,,,,,,,,,,,,,1,,,,,,,,,,,,,,,,,,,,,,,,,,,,,,,,,,,,,,,,,,,,,,85,159535,23,Female,1,2024/03/13_10:20:35,YZ,None,
,,,,,,practice,0,29,3,19,23,V,0,right,1.0810232460062252,1,0,,,,,,,,,,,,,,,,,,,,,1,,,,,,,,,,,,,,,,,,,,,,,,,,,,,,,,,,,,,,,,,,,,,,85,159535,23,Female,1,2024/03/13_10:20:35,YZ,None,
,,,,,,practice,0,29,3,19,24,V,0,right,0.7805259370070416,1,0,,,,,,,,,,,,,,,,,,,,,1,,,,,,,,,,,,,,,,,,,,,,,,,,,,,,,,,,,,,,,,,,,,,,85,159535,23,Female,1,2024/03/13_10:20:35,YZ,None,
,,,,,,practice,0,29,3,19,25,N,0,left,1.858247076990665,0,0,,,,,,,,,,,,,,,,,,,,,1,,,,,,,,,,,,,,,,,,,,,,,,,,,,,,,,,,,,,,,,,,,,,,85,159535,23,Female,1,2024/03/13_10:20:35,YZ,None,
,,,,,,practice,0,29,3,19,26,C,0,left,0.9893746110028587,0,0,,,,,,,,,,,,,,,,,,,,,1,,,,,,,,,,,,,,,,,,,,,,,,,,,,,,,,,,,,,,,,,,,,,,85,159535,23,Female,1,2024/03/13_10:20:35,YZ,None,
,,,,,,practice,0,29,3,19,,,,,,,,0.8368055555555556,0.625,0.1111111111111111,0.8888888888888888,0.0,0.8888888888888888,1.3324145187686485,5,2,0,0,0,16,21,8,18,0,,,,1,,,,,,,,,,,,,,,,,,,,,,,,,,,,,,,,,,,,,,,,,,,,,,85,159535,23,Female,1,2024/03/13_10:20:35,YZ,None,
,,,,,,practice,0,26,3,19,1,V,0,right,0.956362070995965,1,0,,,,,,,,,,,,,,,,,,,,,1,,,,,,,,,,,,,,,,,,,,,,,,,,,,,,,,,,,,,,,,,,,,,,85,159535,23,Female,1,2024/03/13_10:20:35,YZ,None,
,,,,,,practice,0,26,3,19,2,S,0,right,0.9765044170053443,1,0,,,,,,,,,,,,,,,,,,,,,1,,,,,,,,,,,,,,,,,,,,,,,,,,,,,,,,,,,,,,,,,,,,,,85,159535,23,Female,1,2024/03/13_10:20:35,YZ,None,
,,,,,,practice,0,26,3,19,3,J,0,right,2.092186355002923,1,0,,,,,,,,,,,,,,,,,,,,,1,,,,,,,,,,,,,,,,,,,,,,,,,,,,,,,,,,,,,,,,,,,,,,85,159535,23,Female,1,2024/03/13_10:20:35,YZ,None,
,,,,,,practice,0,26,3,19,4,S,0,right,1.3529553589905845,1,0,,,,,,,,,,,,,,,,,,,,,1,,,,,,,,,,,,,,,,,,,,,,,,,,,,,,,,,,,,,,,,,,,,,,85,159535,23,Female,1,2024/03/13_10:20:35,YZ,None,
,,,,,,practice,0,26,3,19,5,N,0,right,1.90365019600722,1,0,,,,,,,,,,,,,,,,,,,,,1,,,,,,,,,,,,,,,,,,,,,,,,,,,,,,,,,,,,,,,,,,,,,,85,159535,23,Female,1,2024/03/13_10:20:35,YZ,None,
,,,,,,practice,0,26,3,19,6,Q,0,right,1.3130441910034278,1,0,,,,,,,,,,,,,,,,,,,,,1,,,,,,,,,,,,,,,,,,,,,,,,,,,,,,,,,,,,,,,,,,,,,,85,159535,23,Female,1,2024/03/13_10:20:35,YZ,None,
,,,,,,practice,0,26,3,19,7,S,1,right,3.71183760400163,0,0,,,,,,,,,,,,,,,,,,,,,1,,,,,,,,,,,,,,,,,,,,,,,,,,,,,,,,,,,,,,,,,,,,,,85,159535,23,Female,1,2024/03/13_10:20:35,YZ,None,
,,,,,,practice,0,26,3,19,8,Q,0,right,1.2495524999976624,1,0,,,,,,,,,,,,,,,,,,,,,1,,,,,,,,,,,,,,,,,,,,,,,,,,,,,,,,,,,,,,,,,,,,,,85,159535,23,Female,1,2024/03/13_10:20:35,YZ,None,
,,,,,,practice,0,26,3,19,9,F,0,right,0.920816265992471,1,0,,,,,,,,,,,,,,,,,,,,,1,,,,,,,,,,,,,,,,,,,,,,,,,,,,,,,,,,,,,,,,,,,,,,85,159535,23,Female,1,2024/03/13_10:20:35,YZ,None,
,,,,,,practice,0,26,3,19,10,J,0,right,1.1357937260036124,1,0,,,,,,,,,,,,,,,,,,,,,1,,,,,,,,,,,,,,,,,,,,,,,,,,,,,,,,,,,,,,,,,,,,,,85,159535,23,Female,1,2024/03/13_10:20:35,YZ,None,
,,,,,,practice,0,26,3,19,11,Q,1,left,2.8237620089930715,1,0,,,,,,,,,,,,,,,,,,,,,1,,,,,,,,,,,,,,,,,,,,,,,,,,,,,,,,,,,,,,,,,,,,,,85,159535,23,Female,1,2024/03/13_10:20:35,YZ,None,
,,,,,,practice,0,26,3,19,12,V,0,left,1.409705608006334,0,0,,,,,,,,,,,,,,,,,,,,,1,,,,,,,,,,,,,,,,,,,,,,,,,,,,,,,,,,,,,,,,,,,,,,85,159535,23,Female,1,2024/03/13_10:20:35,YZ,None,
,,,,,,practice,0,26,3,19,13,C,0,right,0.8280400630028453,1,0,,,,,,,,,,,,,,,,,,,,,1,,,,,,,,,,,,,,,,,,,,,,,,,,,,,,,,,,,,,,,,,,,,,,85,159535,23,Female,1,2024/03/13_10:20:35,YZ,None,
,,,,,,practice,0,26,3,19,14,Q,1,left,1.493238441995345,1,0,,,,,,,,,,,,,,,,,,,,,1,,,,,,,,,,,,,,,,,,,,,,,,,,,,,,,,,,,,,,,,,,,,,,85,159535,23,Female,1,2024/03/13_10:20:35,YZ,None,
,,,,,,practice,0,26,3,19,15,C,0,right,0.7250552549958229,1,0,,,,,,,,,,,,,,,,,,,,,1,,,,,,,,,,,,,,,,,,,,,,,,,,,,,,,,,,,,,,,,,,,,,,85,159535,23,Female,1,2024/03/13_10:20:35,YZ,None,
,,,,,,practice,0,26,3,19,16,C,1,left,1.2329905509977834,1,0,,,,,,,,,,,,,,,,,,,,,1,,,,,,,,,,,,,,,,,,,,,,,,,,,,,,,,,,,,,,,,,,,,,,85,159535,23,Female,1,2024/03/13_10:20:35,YZ,None,
,,,,,,practice,0,26,3,19,17,V,0,right,1.0296208930085413,1,0,,,,,,,,,,,,,,,,,,,,,1,,,,,,,,,,,,,,,,,,,,,,,,,,,,,,,,,,,,,,,,,,,,,,85,159535,23,Female,1,2024/03/13_10:20:35,YZ,None,
