Instruction,Stimulus,Key,RT,START,END,Phase,Block,TrialN,NbackLevel,ISI,LetterN,Letter,Letter_isSame,Letter_Resp,Letter_RT,Letter_Accuracy,Letter_Timeout,Trial_A_measure,Trial_HR,Trial_FAR,Trial_CDR,Trial_MSR,Trial_ACC,Trial_RT,Trial_HitsCount,Trial_FAsCount,Trial_SameNoRespCount,Trial_DiffNoRespCount,Trial_NoRespCount,Trial_CDsCount,Trial_CorrectRespCount,Trial_SameLetterCount,Trial_DiffLetterCount,Trial_InvalidLetterCount,TrialCountCali,CaliEnd_A_measure,ISI_calibrated,Run,TrialIndex,TrialNumber_total,TrialNumber_valid,CueLearning,TrialDemandLearning,CueMapping,OnlineRating,OnlineRatingRT,OnlineRatingTimeOut,CueSTART,RatingSTART,OfflineRatingTimePoint,OfflineRatingQuesIndex,CueFigure,TrialDemand,OfflineRating,OfflineRatingRT,CueStart,OfflineRatingStart,PhaseType,CueLeft,CueDemandLeft,CueRight,CueDemandRight,Choice,ChoiceDemand,TaskDemand,ChoiceRT,ChoiceTimeOut,ChoiceSTART,CueCheck,CueDemandCheck,CorrectAnswer,Answer,AnswerDemand,AnswerRT,AnswerACC,AnswerTimeOut,CheckSTART,DemandRatingQuesIndex,QuesTLX,DemandLevel,DemandRating,DemandRatingRT,QuesStart,PID,SONA,Age,Gender,Run,TIME,EXPERIMENTER,frameRate,
1,./instructions/inst_begin/Slide2.png,right,25.461114674999408,0.23788456400143332,25.69899923900084,,,,,,,,,,,,,,,,,,,,,,,,,,,,,,,,,1,,,,,,,,,,,,,,,,,,,,,,,,,,,,,,,,,,,,,,,,,,,,,,81,155983,19,Female,1,2024/03/12_10:36:19,YZ,None,
2,./instructions/inst_begin/Slide3.png,right,11.130771501999334,25.74422995000168,36.875001452001015,,,,,,,,,,,,,,,,,,,,,,,,,,,,,,,,,1,,,,,,,,,,,,,,,,,,,,,,,,,,,,,,,,,,,,,,,,,,,,,,81,155983,19,Female,1,2024/03/12_10:36:19,YZ,None,
3,./instructions/inst_begin/Slide4.png,right,8.17833331500151,36.90482010300002,45.08315341800153,,,,,,,,,,,,,,,,,,,,,,,,,,,,,,,,,1,,,,,,,,,,,,,,,,,,,,,,,,,,,,,,,,,,,,,,,,,,,,,,81,155983,19,Female,1,2024/03/12_10:36:19,YZ,None,
1,./instructions/inst_prac_2/Slide6.png,right,16.250268606001555,45.136948160999964,61.38721676700152,,,,,,,,,,,,,,,,,,,,,,,,,,,,,,,,,1,,,,,,,,,,,,,,,,,,,,,,,,,,,,,,,,,,,,,,,,,,,,,,81,155983,19,Female,1,2024/03/12_10:36:19,YZ,None,
2,./instructions/inst_prac_2/Slide7.png,right,7.494477424999786,61.420608416001414,68.9150858410012,,,,,,,,,,,,,,,,,,,,,,,,,,,,,,,,,1,,,,,,,,,,,,,,,,,,,,,,,,,,,,,,,,,,,,,,,,,,,,,,81,155983,19,Female,1,2024/03/12_10:36:19,YZ,None,
3,./instructions/inst_prac_2/Slide8.png,right,7.551409380999758,68.9797116180016,76.53112099900136,,,,,,,,,,,,,,,,,,,,,,,,,,,,,,,,,1,,,,,,,,,,,,,,,,,,,,,,,,,,,,,,,,,,,,,,,,,,,,,,81,155983,19,Female,1,2024/03/12_10:36:19,YZ,None,
4,./instructions/inst_prac_2/Slide9.png,right,2.6902883050006494,76.56056392500068,79.25085223000133,,,,,,,,,,,,,,,,,,,,,,,,,,,,,,,,,1,,,,,,,,,,,,,,,,,,,,,,,,,,,,,,,,,,,,,,,,,,,,,,81,155983,19,Female,1,2024/03/12_10:36:19,YZ,None,
5,./instructions/inst_prac_2/Slide10.png,right,1.5393911310002295,79.311591529,80.85098266000023,,,,,,,,,,,,,,,,,,,,,,,,,,,,,,,,,1,,,,,,,,,,,,,,,,,,,,,,,,,,,,,,,,,,,,,,,,,,,,,,81,155983,19,Female,1,2024/03/12_10:36:19,YZ,None,
6,./instructions/inst_prac_2/Slide11.png,right,1.6029147480003303,80.88004872400052,82.48296347200085,,,,,,,,,,,,,,,,,,,,,,,,,,,,,,,,,1,,,,,,,,,,,,,,,,,,,,,,,,,,,,,,,,,,,,,,,,,,,,,,81,155983,19,Female,1,2024/03/12_10:36:19,YZ,None,
7,./instructions/inst_prac_2/Slide12.png,right,1.2508842370007187,82.51211598100053,83.76300021800125,,,,,,,,,,,,,,,,,,,,,,,,,,,,,,,,,1,,,,,,,,,,,,,,,,,,,,,,,,,,,,,,,,,,,,,,,,,,,,,,81,155983,19,Female,1,2024/03/12_10:36:19,YZ,None,
8,./instructions/inst_prac_2/Slide13.png,right,1.9562784760000795,83.79068307400121,85.74696155000129,,,,,,,,,,,,,,,,,,,,,,,,,,,,,,,,,1,,,,,,,,,,,,,,,,,,,,,,,,,,,,,,,,,,,,,,,,,,,,,,81,155983,19,Female,1,2024/03/12_10:36:19,YZ,None,
9,./instructions/inst_prac_2/Slide14.png,right,8.563688767000713,85.77535530100067,94.33904406800139,,,,,,,,,,,,,,,,,,,,,,,,,,,,,,,,,1,,,,,,,,,,,,,,,,,,,,,,,,,,,,,,,,,,,,,,,,,,,,,,81,155983,19,Female,1,2024/03/12_10:36:19,YZ,None,
10,./instructions/inst_prac_2/Slide15.png,right,10.061941936999574,94.38123194700165,104.44317388400123,,,,,,,,,,,,,,,,,,,,,,,,,,,,,,,,,1,,,,,,,,,,,,,,,,,,,,,,,,,,,,,,,,,,,,,,,,,,,,,,81,155983,19,Female,1,2024/03/12_10:36:19,YZ,None,
,,,,,,practice,0,10,2,2583,1,Q,0,right,0.8173332619990106,1,0,,,,,,,,,,,,,,,,,,,,,1,,,,,,,,,,,,,,,,,,,,,,,,,,,,,,,,,,,,,,,,,,,,,,81,155983,19,Female,1,2024/03/12_10:36:19,YZ,None,
,,,,,,practice,0,10,2,2583,2,C,0,right,0.7155555989993445,1,0,,,,,,,,,,,,,,,,,,,,,1,,,,,,,,,,,,,,,,,,,,,,,,,,,,,,,,,,,,,,,,,,,,,,81,155983,19,Female,1,2024/03/12_10:36:19,YZ,None,
,,,,,,practice,0,10,2,2583,3,J,0,right,0.6511371659998986,1,0,,,,,,,,,,,,,,,,,,,,,1,,,,,,,,,,,,,,,,,,,,,,,,,,,,,,,,,,,,,,,,,,,,,,81,155983,19,Female,1,2024/03/12_10:36:19,YZ,None,
,,,,,,practice,0,10,2,2583,4,C,1,left,0.9459134280004946,1,0,,,,,,,,,,,,,,,,,,,,,1,,,,,,,,,,,,,,,,,,,,,,,,,,,,,,,,,,,,,,,,,,,,,,81,155983,19,Female,1,2024/03/12_10:36:19,YZ,None,
,,,,,,practice,0,10,2,2583,5,S,0,right,0.8044559019999724,1,0,,,,,,,,,,,,,,,,,,,,,1,,,,,,,,,,,,,,,,,,,,,,,,,,,,,,,,,,,,,,,,,,,,,,81,155983,19,Female,1,2024/03/12_10:36:19,YZ,None,
,,,,,,practice,0,10,2,2583,6,C,1,left,0.716998481999326,1,0,,,,,,,,,,,,,,,,,,,,,1,,,,,,,,,,,,,,,,,,,,,,,,,,,,,,,,,,,,,,,,,,,,,,81,155983,19,Female,1,2024/03/12_10:36:19,YZ,None,
,,,,,,practice,0,10,2,2583,,,,,,,,1.0,1.0,0.0,1.0,0.0,1.0,0.7752323064996745,2,0,0,0,0,4,6,2,4,0,,,,1,,,,,,,,,,,,,,,,,,,,,,,,,,,,,,,,,,,,,,,,,,,,,,81,155983,19,Female,1,2024/03/12_10:36:19,YZ,None,
1,./instructions/inst_to_cali/Slide20.png,right,3.9811651119998714,115.46187635000024,119.44304146200011,,,,,,,,,,,,,,,,,,,,,,,,,,,,,,,,,1,,,,,,,,,,,,,,,,,,,,,,,,,,,,,,,,,,,,,,,,,,,,,,81,155983,19,Female,1,2024/03/12_10:36:19,YZ,None,
1,./instructions/inst_cali/Slide22.png,right,4.094434032998834,119.51651374800167,123.6109477810005,,,,,,,,,,,,,,,,,,,,,,,,,,,,,,,,,1,,,,,,,,,,,,,,,,,,,,,,,,,,,,,,,,,,,,,,,,,,,,,,81,155983,19,Female,1,2024/03/12_10:36:19,YZ,None,
,,,,,,calibration,0,14,2,583,1,X,0,right,0.6479565089994139,1,0,,,,,,,,,,,,,,,,,,,,,1,,,,,,,,,,,,,,,,,,,,,,,,,,,,,,,,,,,,,,,,,,,,,,81,155983,19,Female,1,2024/03/12_10:36:19,YZ,None,
,,,,,,calibration,0,14,2,583,2,Q,0,right,0.46910089700031676,1,0,,,,,,,,,,,,,,,,,,,,,1,,,,,,,,,,,,,,,,,,,,,,,,,,,,,,,,,,,,,,,,,,,,,,81,155983,19,Female,1,2024/03/12_10:36:19,YZ,None,
,,,,,,calibration,0,14,2,583,3,S,0,right,0.6629753050001455,1,0,,,,,,,,,,,,,,,,,,,,,1,,,,,,,,,,,,,,,,,,,,,,,,,,,,,,,,,,,,,,,,,,,,,,81,155983,19,Female,1,2024/03/12_10:36:19,YZ,None,
,,,,,,calibration,0,14,2,583,4,Q,1,left,0.39513970099869766,1,0,,,,,,,,,,,,,,,,,,,,,1,,,,,,,,,,,,,,,,,,,,,,,,,,,,,,,,,,,,,,,,,,,,,,81,155983,19,Female,1,2024/03/12_10:36:19,YZ,None,
,,,,,,calibration,0,14,2,583,5,V,0,right,0.399215835999712,1,0,,,,,,,,,,,,,,,,,,,,,1,,,,,,,,,,,,,,,,,,,,,,,,,,,,,,,,,,,,,,,,,,,,,,81,155983,19,Female,1,2024/03/12_10:36:19,YZ,None,
,,,,,,calibration,0,14,2,583,6,Q,1,left,0.8043688230009138,1,0,,,,,,,,,,,,,,,,,,,,,1,,,,,,,,,,,,,,,,,,,,,,,,,,,,,,,,,,,,,,,,,,,,,,81,155983,19,Female,1,2024/03/12_10:36:19,YZ,None,
,,,,,,calibration,0,14,2,583,7,C,0,right,0.41792079900005774,1,0,,,,,,,,,,,,,,,,,,,,,1,,,,,,,,,,,,,,,,,,,,,,,,,,,,,,,,,,,,,,,,,,,,,,81,155983,19,Female,1,2024/03/12_10:36:19,YZ,None,
,,,,,,calibration,0,14,2,583,8,Q,1,right,0.4583817820002878,0,0,,,,,,,,,,,,,,,,,,,,,1,,,,,,,,,,,,,,,,,,,,,,,,,,,,,,,,,,,,,,,,,,,,,,81,155983,19,Female,1,2024/03/12_10:36:19,YZ,None,
,,,,,,calibration,0,14,2,583,9,V,0,right,0.460897370998282,1,0,,,,,,,,,,,,,,,,,,,,,1,,,,,,,,,,,,,,,,,,,,,,,,,,,,,,,,,,,,,,,,,,,,,,81,155983,19,Female,1,2024/03/12_10:36:19,YZ,None,
,,,,,,calibration,0,14,2,583,10,Q,1,left,0.4264295270004368,1,0,,,,,,,,,,,,,,,,,,,,,1,,,,,,,,,,,,,,,,,,,,,,,,,,,,,,,,,,,,,,,,,,,,,,81,155983,19,Female,1,2024/03/12_10:36:19,YZ,None,
,,,,,,calibration,0,14,2,583,11,V,1,left,0.48444908400051645,1,0,,,,,,,,,,,,,,,,,,,,,1,,,,,,,,,,,,,,,,,,,,,,,,,,,,,,,,,,,,,,,,,,,,,,81,155983,19,Female,1,2024/03/12_10:36:19,YZ,None,
,,,,,,calibration,0,14,2,583,12,S,0,right,0.4720788779995928,1,0,,,,,,,,,,,,,,,,,,,,,1,,,,,,,,,,,,,,,,,,,,,,,,,,,,,,,,,,,,,,,,,,,,,,81,155983,19,Female,1,2024/03/12_10:36:19,YZ,None,
,,,,,,calibration,0,14,2,583,13,Q,0,right,0.5316349320000882,1,0,,,,,,,,,,,,,,,,,,,,,1,,,,,,,,,,,,,,,,,,,,,,,,,,,,,,,,,,,,,,,,,,,,,,81,155983,19,Female,1,2024/03/12_10:36:19,YZ,None,
,,,,,,calibration,0,14,2,583,14,J,0,right,0.42357309799990617,1,0,,,,,,,,,,,,,,,,,,,,,1,,,,,,,,,,,,,,,,,,,,,,,,,,,,,,,,,,,,,,,,,,,,,,81,155983,19,Female,1,2024/03/12_10:36:19,YZ,None,
,,,,,,calibration,0,14,2,583,15,V,0,right,0.5674124649995065,1,0,,,,,,,,,,,,,,,,,,,,,1,,,,,,,,,,,,,,,,,,,,,,,,,,,,,,,,,,,,,,,,,,,,,,81,155983,19,Female,1,2024/03/12_10:36:19,YZ,None,
,,,,,,calibration,0,14,2,583,,,,,,,,0.95,0.8,0.0,1.0,0.0,1.0,0.5081023337998583,4,0,0,0,0,10,14,5,10,0,,,,1,,,,,,,,,,,,,,,,,,,,,,,,,,,,,,,,,,,,,,,,,,,,,,81,155983,19,Female,1,2024/03/12_10:36:19,YZ,None,
,,,,,,Calibration,0,,2,583,,,,,,,,,,,,,,,,,,,,,,,,,1,,,1,,,,,,,,,,,,,,,,,,,,,,,,,,,,,,,,,,,,,,,,,,,,,,81,155983,19,Female,1,2024/03/12_10:36:19,YZ,None,
,,,,,,calibration,0,33,2,500,1,X,0,right,0.3986513260006177,1,0,,,,,,,,,,,,,,,,,,,,,1,,,,,,,,,,,,,,,,,,,,,,,,,,,,,,,,,,,,,,,,,,,,,,81,155983,19,Female,1,2024/03/12_10:36:19,YZ,None,
,,,,,,calibration,0,33,2,500,2,F,0,right,0.35312528100075724,1,0,,,,,,,,,,,,,,,,,,,,,1,,,,,,,,,,,,,,,,,,,,,,,,,,,,,,,,,,,,,,,,,,,,,,81,155983,19,Female,1,2024/03/12_10:36:19,YZ,None,
,,,,,,calibration,0,33,2,500,3,X,1,left,0.46122826999999234,1,0,,,,,,,,,,,,,,,,,,,,,1,,,,,,,,,,,,,,,,,,,,,,,,,,,,,,,,,,,,,,,,,,,,,,81,155983,19,Female,1,2024/03/12_10:36:19,YZ,None,
,,,,,,calibration,0,33,2,500,4,F,1,left,0.32445007800015446,1,0,,,,,,,,,,,,,,,,,,,,,1,,,,,,,,,,,,,,,,,,,,,,,,,,,,,,,,,,,,,,,,,,,,,,81,155983,19,Female,1,2024/03/12_10:36:19,YZ,None,
,,,,,,calibration,0,33,2,500,5,N,0,right,0.5241698840000026,1,0,,,,,,,,,,,,,,,,,,,,,1,,,,,,,,,,,,,,,,,,,,,,,,,,,,,,,,,,,,,,,,,,,,,,81,155983,19,Female,1,2024/03/12_10:36:19,YZ,None,
,,,,,,calibration,0,33,2,500,6,Q,0,right,0.48280856999917887,1,0,,,,,,,,,,,,,,,,,,,,,1,,,,,,,,,,,,,,,,,,,,,,,,,,,,,,,,,,,,,,,,,,,,,,81,155983,19,Female,1,2024/03/12_10:36:19,YZ,None,
,,,,,,calibration,0,33,2,500,7,S,0,right,0.49614119900070364,1,0,,,,,,,,,,,,,,,,,,,,,1,,,,,,,,,,,,,,,,,,,,,,,,,,,,,,,,,,,,,,,,,,,,,,81,155983,19,Female,1,2024/03/12_10:36:19,YZ,None,
,,,,,,calibration,0,33,2,500,8,Q,1,left,0.43700434800121,1,0,,,,,,,,,,,,,,,,,,,,,1,,,,,,,,,,,,,,,,,,,,,,,,,,,,,,,,,,,,,,,,,,,,,,81,155983,19,Female,1,2024/03/12_10:36:19,YZ,None,
,,,,,,calibration,0,33,2,500,9,N,0,right,0.46371922499929497,1,0,,,,,,,,,,,,,,,,,,,,,1,,,,,,,,,,,,,,,,,,,,,,,,,,,,,,,,,,,,,,,,,,,,,,81,155983,19,Female,1,2024/03/12_10:36:19,YZ,None,
,,,,,,calibration,0,33,2,500,10,V,0,right,0.4129806490000192,1,0,,,,,,,,,,,,,,,,,,,,,1,,,,,,,,,,,,,,,,,,,,,,,,,,,,,,,,,,,,,,,,,,,,,,81,155983,19,Female,1,2024/03/12_10:36:19,YZ,None,
,,,,,,calibration,0,33,2,500,11,F,0,right,0.5239772250006354,1,0,,,,,,,,,,,,,,,,,,,,,1,,,,,,,,,,,,,,,,,,,,,,,,,,,,,,,,,,,,,,,,,,,,,,81,155983,19,Female,1,2024/03/12_10:36:19,YZ,None,
,,,,,,calibration,0,33,2,500,12,N,0,left,0.4690507439991052,0,0,,,,,,,,,,,,,,,,,,,,,1,,,,,,,,,,,,,,,,,,,,,,,,,,,,,,,,,,,,,,,,,,,,,,81,155983,19,Female,1,2024/03/12_10:36:19,YZ,None,
,,,,,,calibration,0,33,2,500,13,S,0,right,0.35398404599982314,1,0,,,,,,,,,,,,,,,,,,,,,1,,,,,,,,,,,,,,,,,,,,,,,,,,,,,,,,,,,,,,,,,,,,,,81,155983,19,Female,1,2024/03/12_10:36:19,YZ,None,
,,,,,,calibration,0,33,2,500,14,J,0,right,0.48791463499946985,1,0,,,,,,,,,,,,,,,,,,,,,1,,,,,,,,,,,,,,,,,,,,,,,,,,,,,,,,,,,,,,,,,,,,,,81,155983,19,Female,1,2024/03/12_10:36:19,YZ,None,
,,,,,,calibration,0,33,2,500,15,S,1,left,0.27277218800008995,1,0,,,,,,,,,,,,,,,,,,,,,1,,,,,,,,,,,,,,,,,,,,,,,,,,,,,,,,,,,,,,,,,,,,,,81,155983,19,Female,1,2024/03/12_10:36:19,YZ,None,
,,,,,,calibration,0,33,2,500,16,J,1,left,0.4320084840001073,1,0,,,,,,,,,,,,,,,,,,,,,1,,,,,,,,,,,,,,,,,,,,,,,,,,,,,,,,,,,,,,,,,,,,,,81,155983,19,Female,1,2024/03/12_10:36:19,YZ,None,
,,,,,,calibration,0,33,2,500,,,,,,,,0.9772727272727273,1.0,0.09090909090909091,0.9090909090909091,0.0,0.9090909090909091,0.4308741345000726,5,1,0,0,0,10,15,5,11,0,,,,1,,,,,,,,,,,,,,,,,,,,,,,,,,,,,,,,,,,,,,,,,,,,,,81,155983,19,Female,1,2024/03/12_10:36:19,YZ,None,
,,,,,,Calibration,0,,2,500,,,,,,,,,,,,,,,,,,,,,,,,,2,,,1,,,,,,,,,,,,,,,,,,,,,,,,,,,,,,,,,,,,,,,,,,,,,,81,155983,19,Female,1,2024/03/12_10:36:19,YZ,None,
,,,,,,calibration,0,3,2,426,1,N,0,right,0.360444889000064,1,0,,,,,,,,,,,,,,,,,,,,,1,,,,,,,,,,,,,,,,,,,,,,,,,,,,,,,,,,,,,,,,,,,,,,81,155983,19,Female,1,2024/03/12_10:36:19,YZ,None,
,,,,,,calibration,0,3,2,426,2,Q,0,right,0.3460234529993613,1,0,,,,,,,,,,,,,,,,,,,,,1,,,,,,,,,,,,,,,,,,,,,,,,,,,,,,,,,,,,,,,,,,,,,,81,155983,19,Female,1,2024/03/12_10:36:19,YZ,None,
,,,,,,calibration,0,3,2,426,3,V,0,right,0.5458932229994389,1,0,,,,,,,,,,,,,,,,,,,,,1,,,,,,,,,,,,,,,,,,,,,,,,,,,,,,,,,,,,,,,,,,,,,,81,155983,19,Female,1,2024/03/12_10:36:19,YZ,None,
,,,,,,calibration,0,3,2,426,4,Q,1,right,0.4432921219995478,0,0,,,,,,,,,,,,,,,,,,,,,1,,,,,,,,,,,,,,,,,,,,,,,,,,,,,,,,,,,,,,,,,,,,,,81,155983,19,Female,1,2024/03/12_10:36:19,YZ,None,
,,,,,,calibration,0,3,2,426,5,V,1,left,0.6149831839993567,1,0,,,,,,,,,,,,,,,,,,,,,1,,,,,,,,,,,,,,,,,,,,,,,,,,,,,,,,,,,,,,,,,,,,,,81,155983,19,Female,1,2024/03/12_10:36:19,YZ,None,
,,,,,,calibration,0,3,2,426,6,J,0,right,0.3406958230007149,1,0,,,,,,,,,,,,,,,,,,,,,1,,,,,,,,,,,,,,,,,,,,,,,,,,,,,,,,,,,,,,,,,,,,,,81,155983,19,Female,1,2024/03/12_10:36:19,YZ,None,
,,,,,,calibration,0,3,2,426,7,V,1,left,0.44955929900061165,1,0,,,,,,,,,,,,,,,,,,,,,1,,,,,,,,,,,,,,,,,,,,,,,,,,,,,,,,,,,,,,,,,,,,,,81,155983,19,Female,1,2024/03/12_10:36:19,YZ,None,
,,,,,,calibration,0,3,2,426,8,F,0,right,0.37655705399993167,1,0,,,,,,,,,,,,,,,,,,,,,1,,,,,,,,,,,,,,,,,,,,,,,,,,,,,,,,,,,,,,,,,,,,,,81,155983,19,Female,1,2024/03/12_10:36:19,YZ,None,
,,,,,,calibration,0,3,2,426,9,X,0,right,0.5325873870006035,1,0,,,,,,,,,,,,,,,,,,,,,1,,,,,,,,,,,,,,,,,,,,,,,,,,,,,,,,,,,,,,,,,,,,,,81,155983,19,Female,1,2024/03/12_10:36:19,YZ,None,
,,,,,,calibration,0,3,2,426,10,C,0,right,0.4493895329997031,1,0,,,,,,,,,,,,,,,,,,,,,1,,,,,,,,,,,,,,,,,,,,,,,,,,,,,,,,,,,,,,,,,,,,,,81,155983,19,Female,1,2024/03/12_10:36:19,YZ,None,
,,,,,,calibration,0,3,2,426,11,F,0,right,0.4406268109996745,1,0,,,,,,,,,,,,,,,,,,,,,1,,,,,,,,,,,,,,,,,,,,,,,,,,,,,,,,,,,,,,,,,,,,,,81,155983,19,Female,1,2024/03/12_10:36:19,YZ,None,
,,,,,,calibration,0,3,2,426,12,J,0,right,0.5105383760001132,1,0,,,,,,,,,,,,,,,,,,,,,1,,,,,,,,,,,,,,,,,,,,,,,,,,,,,,,,,,,,,,,,,,,,,,81,155983,19,Female,1,2024/03/12_10:36:19,YZ,None,
,,,,,,calibration,0,3,2,426,13,F,1,left,0.497235800999988,1,0,,,,,,,,,,,,,,,,,,,,,1,,,,,,,,,,,,,,,,,,,,,,,,,,,,,,,,,,,,,,,,,,,,,,81,155983,19,Female,1,2024/03/12_10:36:19,YZ,None,
,,,,,,calibration,0,3,2,426,14,N,0,right,0.4521218379995844,1,0,,,,,,,,,,,,,,,,,,,,,1,,,,,,,,,,,,,,,,,,,,,,,,,,,,,,,,,,,,,,,,,,,,,,81,155983,19,Female,1,2024/03/12_10:36:19,YZ,None,
,,,,,,calibration,0,3,2,426,15,F,1,right,0.48839418300121906,0,0,,,,,,,,,,,,,,,,,,,,,1,,,,,,,,,,,,,,,,,,,,,,,,,,,,,,,,,,,,,,,,,,,,,,81,155983,19,Female,1,2024/03/12_10:36:19,YZ,None,
,,,,,,calibration,0,3,2,426,16,X,0,right,0.4164926169996761,1,0,,,,,,,,,,,,,,,,,,,,,1,,,,,,,,,,,,,,,,,,,,,,,,,,,,,,,,,,,,,,,,,,,,,,81,155983,19,Female,1,2024/03/12_10:36:19,YZ,None,
,,,,,,calibration,0,3,2,426,17,J,0,left,0.4127901400006522,0,0,,,,,,,,,,,,,,,,,,,,,1,,,,,,,,,,,,,,,,,,,,,,,,,,,,,,,,,,,,,,,,,,,,,,81,155983,19,Female,1,2024/03/12_10:36:19,YZ,None,
,,,,,,calibration,0,3,2,426,,,,,,,,0.8458333333333333,0.6,0.08333333333333333,0.9166666666666666,0.0,0.9166666666666666,0.4516250431176612,3,1,0,0,0,11,14,5,12,0,,,,1,,,,,,,,,,,,,,,,,,,,,,,,,,,,,,,,,,,,,,,,,,,,,,81,155983,19,Female,1,2024/03/12_10:36:19,YZ,None,
,,,,,,Calibration,0,,2,426,,,,,,,,,,,,,,,,,,,,,,,,,3,,,1,,,,,,,,,,,,,,,,,,,,,,,,,,,,,,,,,,,,,,,,,,,,,,81,155983,19,Female,1,2024/03/12_10:36:19,YZ,None,
,,,,,,calibration,0,2,2,426,1,C,0,right,0.4411670720000984,1,0,,,,,,,,,,,,,,,,,,,,,1,,,,,,,,,,,,,,,,,,,,,,,,,,,,,,,,,,,,,,,,,,,,,,81,155983,19,Female,1,2024/03/12_10:36:19,YZ,None,
,,,,,,calibration,0,2,2,426,2,C,0,right,0.5987724320002599,1,0,,,,,,,,,,,,,,,,,,,,,1,,,,,,,,,,,,,,,,,,,,,,,,,,,,,,,,,,,,,,,,,,,,,,81,155983,19,Female,1,2024/03/12_10:36:19,YZ,None,
,,,,,,calibration,0,2,2,426,3,C,1,right,0.3881240249993425,0,0,,,,,,,,,,,,,,,,,,,,,1,,,,,,,,,,,,,,,,,,,,,,,,,,,,,,,,,,,,,,,,,,,,,,81,155983,19,Female,1,2024/03/12_10:36:19,YZ,None,
,,,,,,calibration,0,2,2,426,4,V,0,right,0.4883084319990303,1,0,,,,,,,,,,,,,,,,,,,,,1,,,,,,,,,,,,,,,,,,,,,,,,,,,,,,,,,,,,,,,,,,,,,,81,155983,19,Female,1,2024/03/12_10:36:19,YZ,None,
,,,,,,calibration,0,2,2,426,5,N,0,right,0.3916336410002259,1,0,,,,,,,,,,,,,,,,,,,,,1,,,,,,,,,,,,,,,,,,,,,,,,,,,,,,,,,,,,,,,,,,,,,,81,155983,19,Female,1,2024/03/12_10:36:19,YZ,None,
,,,,,,calibration,0,2,2,426,6,C,0,right,0.6813780770007725,1,0,,,,,,,,,,,,,,,,,,,,,1,,,,,,,,,,,,,,,,,,,,,,,,,,,,,,,,,,,,,,,,,,,,,,81,155983,19,Female,1,2024/03/12_10:36:19,YZ,None,
,,,,,,calibration,0,2,2,426,7,F,0,right,0.4068388209998375,1,0,,,,,,,,,,,,,,,,,,,,,1,,,,,,,,,,,,,,,,,,,,,,,,,,,,,,,,,,,,,,,,,,,,,,81,155983,19,Female,1,2024/03/12_10:36:19,YZ,None,
,,,,,,calibration,0,2,2,426,8,S,0,right,0.6417053850000229,1,0,,,,,,,,,,,,,,,,,,,,,1,,,,,,,,,,,,,,,,,,,,,,,,,,,,,,,,,,,,,,,,,,,,,,81,155983,19,Female,1,2024/03/12_10:36:19,YZ,None,
,,,,,,calibration,0,2,2,426,9,J,0,right,0.4352912730009848,1,0,,,,,,,,,,,,,,,,,,,,,1,,,,,,,,,,,,,,,,,,,,,,,,,,,,,,,,,,,,,,,,,,,,,,81,155983,19,Female,1,2024/03/12_10:36:19,YZ,None,
,,,,,,calibration,0,2,2,426,10,Q,0,right,0.4978578650006966,1,0,,,,,,,,,,,,,,,,,,,,,1,,,,,,,,,,,,,,,,,,,,,,,,,,,,,,,,,,,,,,,,,,,,,,81,155983,19,Female,1,2024/03/12_10:36:19,YZ,None,
,,,,,,calibration,0,2,2,426,11,X,0,right,0.4261351580007613,1,0,,,,,,,,,,,,,,,,,,,,,1,,,,,,,,,,,,,,,,,,,,,,,,,,,,,,,,,,,,,,,,,,,,,,81,155983,19,Female,1,2024/03/12_10:36:19,YZ,None,
,,,,,,calibration,0,2,2,426,12,Q,1,left,0.5513842239997757,1,0,,,,,,,,,,,,,,,,,,,,,1,,,,,,,,,,,,,,,,,,,,,,,,,,,,,,,,,,,,,,,,,,,,,,81,155983,19,Female,1,2024/03/12_10:36:19,YZ,None,
,,,,,,calibration,0,2,2,426,13,X,1,left,0.6271781830000691,1,0,,,,,,,,,,,,,,,,,,,,,1,,,,,,,,,,,,,,,,,,,,,,,,,,,,,,,,,,,,,,,,,,,,,,81,155983,19,Female,1,2024/03/12_10:36:19,YZ,None,
,,,,,,calibration,0,2,2,426,14,C,0,right,0.4542113879997487,1,0,,,,,,,,,,,,,,,,,,,,,1,,,,,,,,,,,,,,,,,,,,,,,,,,,,,,,,,,,,,,,,,,,,,,81,155983,19,Female,1,2024/03/12_10:36:19,YZ,None,
,,,,,,calibration,0,2,2,426,15,X,1,right,0.383946036999987,0,0,,,,,,,,,,,,,,,,,,,,,1,,,,,,,,,,,,,,,,,,,,,,,,,,,,,,,,,,,,,,,,,,,,,,81,155983,19,Female,1,2024/03/12_10:36:19,YZ,None,
,,,,,,calibration,0,2,2,426,16,J,0,right,0.42624360199988587,1,0,,,,,,,,,,,,,,,,,,,,,1,,,,,,,,,,,,,,,,,,,,,,,,,,,,,,,,,,,,,,,,,,,,,,81,155983,19,Female,1,2024/03/12_10:36:19,YZ,None,
,,,,,,calibration,0,2,2,426,17,X,1,left,0.5115754540001944,1,0,,,,,,,,,,,,,,,,,,,,,1,,,,,,,,,,,,,,,,,,,,,,,,,,,,,,,,,,,,,,,,,,,,,,81,155983,19,Female,1,2024/03/12_10:36:19,YZ,None,
,,,,,,calibration,0,2,2,426,,,,,,,,0.9,0.6,0.0,1.0,0.0,1.0,0.49127947464715843,3,0,0,0,0,12,15,5,12,0,,,,1,,,,,,,,,,,,,,,,,,,,,,,,,,,,,,,,,,,,,,,,,,,,,,81,155983,19,Female,1,2024/03/12_10:36:19,YZ,None,
,,,,,,Calibration,0,,2,426,,,,,,,,,,,,,,,,,,,,,,,,,4,,,1,,,,,,,,,,,,,,,,,,,,,,,,,,,,,,,,,,,,,,,,,,,,,,81,155983,19,Female,1,2024/03/12_10:36:19,YZ,None,
,,,,,,calibration,0,7,2,361,1,F,0,right,0.4067286609988514,1,0,,,,,,,,,,,,,,,,,,,,,1,,,,,,,,,,,,,,,,,,,,,,,,,,,,,,,,,,,,,,,,,,,,,,81,155983,19,Female,1,2024/03/12_10:36:19,YZ,None,
,,,,,,calibration,0,7,2,361,2,N,0,right,0.36042656199970224,1,0,,,,,,,,,,,,,,,,,,,,,1,,,,,,,,,,,,,,,,,,,,,,,,,,,,,,,,,,,,,,,,,,,,,,81,155983,19,Female,1,2024/03/12_10:36:19,YZ,None,
,,,,,,calibration,0,7,2,361,3,X,0,right,0.39232893000007607,1,0,,,,,,,,,,,,,,,,,,,,,1,,,,,,,,,,,,,,,,,,,,,,,,,,,,,,,,,,,,,,,,,,,,,,81,155983,19,Female,1,2024/03/12_10:36:19,YZ,None,
,,,,,,calibration,0,7,2,361,4,N,1,left,0.5651309199984098,1,0,,,,,,,,,,,,,,,,,,,,,1,,,,,,,,,,,,,,,,,,,,,,,,,,,,,,,,,,,,,,,,,,,,,,81,155983,19,Female,1,2024/03/12_10:36:19,YZ,None,
,,,,,,calibration,0,7,2,361,5,Q,0,right,0.46870588199999474,1,0,,,,,,,,,,,,,,,,,,,,,1,,,,,,,,,,,,,,,,,,,,,,,,,,,,,,,,,,,,,,,,,,,,,,81,155983,19,Female,1,2024/03/12_10:36:19,YZ,None,
,,,,,,calibration,0,7,2,361,6,S,0,right,0.3762887100001535,1,0,,,,,,,,,,,,,,,,,,,,,1,,,,,,,,,,,,,,,,,,,,,,,,,,,,,,,,,,,,,,,,,,,,,,81,155983,19,Female,1,2024/03/12_10:36:19,YZ,None,
,,,,,,calibration,0,7,2,361,7,Q,1,left,0.4007575790001283,1,0,,,,,,,,,,,,,,,,,,,,,1,,,,,,,,,,,,,,,,,,,,,,,,,,,,,,,,,,,,,,,,,,,,,,81,155983,19,Female,1,2024/03/12_10:36:19,YZ,None,
,,,,,,calibration,0,7,2,361,8,V,0,right,0.39516909799931454,1,0,,,,,,,,,,,,,,,,,,,,,1,,,,,,,,,,,,,,,,,,,,,,,,,,,,,,,,,,,,,,,,,,,,,,81,155983,19,Female,1,2024/03/12_10:36:19,YZ,None,
,,,,,,calibration,0,7,2,361,9,F,0,right,0.407863926000573,1,0,,,,,,,,,,,,,,,,,,,,,1,,,,,,,,,,,,,,,,,,,,,,,,,,,,,,,,,,,,,,,,,,,,,,81,155983,19,Female,1,2024/03/12_10:36:19,YZ,None,
,,,,,,calibration,0,7,2,361,10,J,0,right,0.4096691849990748,1,0,,,,,,,,,,,,,,,,,,,,,1,,,,,,,,,,,,,,,,,,,,,,,,,,,,,,,,,,,,,,,,,,,,,,81,155983,19,Female,1,2024/03/12_10:36:19,YZ,None,
,,,,,,calibration,0,7,2,361,11,F,1,left,0.4479433090000384,1,0,,,,,,,,,,,,,,,,,,,,,1,,,,,,,,,,,,,,,,,,,,,,,,,,,,,,,,,,,,,,,,,,,,,,81,155983,19,Female,1,2024/03/12_10:36:19,YZ,None,
,,,,,,calibration,0,7,2,361,12,J,1,left,0.4262819369996578,1,0,,,,,,,,,,,,,,,,,,,,,1,,,,,,,,,,,,,,,,,,,,,,,,,,,,,,,,,,,,,,,,,,,,,,81,155983,19,Female,1,2024/03/12_10:36:19,YZ,None,
,,,,,,calibration,0,7,2,361,13,V,0,right,0.37702166000053694,1,0,,,,,,,,,,,,,,,,,,,,,1,,,,,,,,,,,,,,,,,,,,,,,,,,,,,,,,,,,,,,,,,,,,,,81,155983,19,Female,1,2024/03/12_10:36:19,YZ,None,
,,,,,,calibration,0,7,2,361,14,J,1,right,0.5524618709987408,0,0,,,,,,,,,,,,,,,,,,,,,1,,,,,,,,,,,,,,,,,,,,,,,,,,,,,,,,,,,,,,,,,,,,,,81,155983,19,Female,1,2024/03/12_10:36:19,YZ,None,
,,,,,,calibration,0,7,2,361,15,C,0,right,0.512127669999245,1,0,,,,,,,,,,,,,,,,,,,,,1,,,,,,,,,,,,,,,,,,,,,,,,,,,,,,,,,,,,,,,,,,,,,,81,155983,19,Female,1,2024/03/12_10:36:19,YZ,None,
,,,,,,calibration,0,7,2,361,16,Q,0,right,0.4455533069994999,1,0,,,,,,,,,,,,,,,,,,,,,1,,,,,,,,,,,,,,,,,,,,,,,,,,,,,,,,,,,,,,,,,,,,,,81,155983,19,Female,1,2024/03/12_10:36:19,YZ,None,
,,,,,,calibration,0,7,2,361,17,J,0,left,0.4443148320006003,0,0,,,,,,,,,,,,,,,,,,,,,1,,,,,,,,,,,,,,,,,,,,,,,,,,,,,,,,,,,,,,,,,,,,,,81,155983,19,Female,1,2024/03/12_10:36:19,YZ,None,
,,,,,,calibration,0,7,2,361,18,V,0,right,0.4203642939992278,1,0,,,,,,,,,,,,,,,,,,,,,1,,,,,,,,,,,,,,,,,,,,,,,,,,,,,,,,,,,,,,,,,,,,,,81,155983,19,Female,1,2024/03/12_10:36:19,YZ,None,
,,,,,,calibration,0,7,2,361,,,,,,,,0.9153846153846155,0.8,0.07692307692307693,0.9230769230769231,0.0,0.9230769230769231,0.43384101849965695,4,1,0,0,0,12,16,5,13,0,,,,1,,,,,,,,,,,,,,,,,,,,,,,,,,,,,,,,,,,,,,,,,,,,,,81,155983,19,Female,1,2024/03/12_10:36:19,YZ,None,
,,,,,,Calibration,0,,2,361,,,,,,,,,,,,,,,,,,,,,,,,,5,,,1,,,,,,,,,,,,,,,,,,,,,,,,,,,,,,,,,,,,,,,,,,,,,,81,155983,19,Female,1,2024/03/12_10:36:19,YZ,None,
,,,,,,calibration,0,29,2,303,1,C,0,right,0.31907771000078355,1,0,,,,,,,,,,,,,,,,,,,,,1,,,,,,,,,,,,,,,,,,,,,,,,,,,,,,,,,,,,,,,,,,,,,,81,155983,19,Female,1,2024/03/12_10:36:19,YZ,None,
,,,,,,calibration,0,29,2,303,2,V,0,right,0.3568579220009269,1,0,,,,,,,,,,,,,,,,,,,,,1,,,,,,,,,,,,,,,,,,,,,,,,,,,,,,,,,,,,,,,,,,,,,,81,155983,19,Female,1,2024/03/12_10:36:19,YZ,None,
,,,,,,calibration,0,29,2,303,3,S,0,right,0.378084296000452,1,0,,,,,,,,,,,,,,,,,,,,,1,,,,,,,,,,,,,,,,,,,,,,,,,,,,,,,,,,,,,,,,,,,,,,81,155983,19,Female,1,2024/03/12_10:36:19,YZ,None,
,,,,,,calibration,0,29,2,303,4,Q,0,right,0.44485335900026257,1,0,,,,,,,,,,,,,,,,,,,,,1,,,,,,,,,,,,,,,,,,,,,,,,,,,,,,,,,,,,,,,,,,,,,,81,155983,19,Female,1,2024/03/12_10:36:19,YZ,None,
,,,,,,calibration,0,29,2,303,5,J,0,right,0.3787565669990727,1,0,,,,,,,,,,,,,,,,,,,,,1,,,,,,,,,,,,,,,,,,,,,,,,,,,,,,,,,,,,,,,,,,,,,,81,155983,19,Female,1,2024/03/12_10:36:19,YZ,None,
,,,,,,calibration,0,29,2,303,6,Q,1,left,0.5118528309994872,1,0,,,,,,,,,,,,,,,,,,,,,1,,,,,,,,,,,,,,,,,,,,,,,,,,,,,,,,,,,,,,,,,,,,,,81,155983,19,Female,1,2024/03/12_10:36:19,YZ,None,
,,,,,,calibration,0,29,2,303,7,J,1,right,0.34760127299887245,0,0,,,,,,,,,,,,,,,,,,,,,1,,,,,,,,,,,,,,,,,,,,,,,,,,,,,,,,,,,,,,,,,,,,,,81,155983,19,Female,1,2024/03/12_10:36:19,YZ,None,
,,,,,,calibration,0,29,2,303,8,V,0,right,0.4047043329992448,1,0,,,,,,,,,,,,,,,,,,,,,1,,,,,,,,,,,,,,,,,,,,,,,,,,,,,,,,,,,,,,,,,,,,,,81,155983,19,Female,1,2024/03/12_10:36:19,YZ,None,
,,,,,,calibration,0,29,2,303,9,F,0,right,0.5120166200013045,1,0,,,,,,,,,,,,,,,,,,,,,1,,,,,,,,,,,,,,,,,,,,,,,,,,,,,,,,,,,,,,,,,,,,,,81,155983,19,Female,1,2024/03/12_10:36:19,YZ,None,
,,,,,,calibration,0,29,2,303,10,N,0,right,0.41274353800145036,1,0,,,,,,,,,,,,,,,,,,,,,1,,,,,,,,,,,,,,,,,,,,,,,,,,,,,,,,,,,,,,,,,,,,,,81,155983,19,Female,1,2024/03/12_10:36:19,YZ,None,
,,,,,,calibration,0,29,2,303,11,F,1,right,0.6567183900006057,0,0,,,,,,,,,,,,,,,,,,,,,1,,,,,,,,,,,,,,,,,,,,,,,,,,,,,,,,,,,,,,,,,,,,,,81,155983,19,Female,1,2024/03/12_10:36:19,YZ,None,
,,,,,,calibration,0,29,2,303,12,S,0,right,0.3865714919993479,1,0,,,,,,,,,,,,,,,,,,,,,1,,,,,,,,,,,,,,,,,,,,,,,,,,,,,,,,,,,,,,,,,,,,,,81,155983,19,Female,1,2024/03/12_10:36:19,YZ,None,
,,,,,,calibration,0,29,2,303,13,J,0,right,0.5439109219987586,1,0,,,,,,,,,,,,,,,,,,,,,1,,,,,,,,,,,,,,,,,,,,,,,,,,,,,,,,,,,,,,,,,,,,,,81,155983,19,Female,1,2024/03/12_10:36:19,YZ,None,
,,,,,,calibration,0,29,2,303,14,N,0,right,0.3899189010007831,1,0,,,,,,,,,,,,,,,,,,,,,1,,,,,,,,,,,,,,,,,,,,,,,,,,,,,,,,,,,,,,,,,,,,,,81,155983,19,Female,1,2024/03/12_10:36:19,YZ,None,
,,,,,,calibration,0,29,2,303,15,Q,0,right,0.42017407399907825,1,0,,,,,,,,,,,,,,,,,,,,,1,,,,,,,,,,,,,,,,,,,,,,,,,,,,,,,,,,,,,,,,,,,,,,81,155983,19,Female,1,2024/03/12_10:36:19,YZ,None,
,,,,,,calibration,0,29,2,303,16,N,1,left,0.4898185719994217,1,0,,,,,,,,,,,,,,,,,,,,,1,,,,,,,,,,,,,,,,,,,,,,,,,,,,,,,,,,,,,,,,,,,,,,81,155983,19,Female,1,2024/03/12_10:36:19,YZ,None,
,,,,,,calibration,0,29,2,303,17,Q,1,left,0.4162778120007715,1,0,,,,,,,,,,,,,,,,,,,,,1,,,,,,,,,,,,,,,,,,,,,,,,,,,,,,,,,,,,,,,,,,,,,,81,155983,19,Female,1,2024/03/12_10:36:19,YZ,None,
,,,,,,calibration,0,29,2,303,18,J,0,right,0.4262056190000294,1,0,,,,,,,,,,,,,,,,,,,,,1,,,,,,,,,,,,,,,,,,,,,,,,,,,,,,,,,,,,,,,,,,,,,,81,155983,19,Female,1,2024/03/12_10:36:19,YZ,None,
,,,,,,calibration,0,29,2,303,19,S,0,right,0.44841185299992503,1,0,,,,,,,,,,,,,,,,,,,,,1,,,,,,,,,,,,,,,,,,,,,,,,,,,,,,,,,,,,,,,,,,,,,,81,155983,19,Female,1,2024/03/12_10:36:19,YZ,None,
,,,,,,calibration,0,29,2,303,,,,,,,,0.9,0.6,0.0,1.0,0.0,1.0,0.4339240044210831,3,0,0,0,0,14,17,5,14,0,,,,1,,,,,,,,,,,,,,,,,,,,,,,,,,,,,,,,,,,,,,,,,,,,,,81,155983,19,Female,1,2024/03/12_10:36:19,YZ,None,
,,,,,,Calibration,0,,2,303,,,,,,,,,,,,,,,,,,,,,,,,,6,,,1,,,,,,,,,,,,,,,,,,,,,,,,,,,,,,,,,,,,,,,,,,,,,,81,155983,19,Female,1,2024/03/12_10:36:19,YZ,None,
,,,,,,calibration,0,14,2,250,1,V,0,right,0.2886667969996779,1,0,,,,,,,,,,,,,,,,,,,,,1,,,,,,,,,,,,,,,,,,,,,,,,,,,,,,,,,,,,,,,,,,,,,,81,155983,19,Female,1,2024/03/12_10:36:19,YZ,None,
,,,,,,calibration,0,14,2,250,2,V,0,right,0.4573724479996599,1,0,,,,,,,,,,,,,,,,,,,,,1,,,,,,,,,,,,,,,,,,,,,,,,,,,,,,,,,,,,,,,,,,,,,,81,155983,19,Female,1,2024/03/12_10:36:19,YZ,None,
,,,,,,calibration,0,14,2,250,3,V,1,left,0.29753348299891513,1,0,,,,,,,,,,,,,,,,,,,,,1,,,,,,,,,,,,,,,,,,,,,,,,,,,,,,,,,,,,,,,,,,,,,,81,155983,19,Female,1,2024/03/12_10:36:19,YZ,None,
,,,,,,calibration,0,14,2,250,4,S,0,right,0.31261277200064796,1,0,,,,,,,,,,,,,,,,,,,,,1,,,,,,,,,,,,,,,,,,,,,,,,,,,,,,,,,,,,,,,,,,,,,,81,155983,19,Female,1,2024/03/12_10:36:19,YZ,None,
,,,,,,calibration,0,14,2,250,5,F,0,left,0.37274461400011205,0,0,,,,,,,,,,,,,,,,,,,,,1,,,,,,,,,,,,,,,,,,,,,,,,,,,,,,,,,,,,,,,,,,,,,,81,155983,19,Female,1,2024/03/12_10:36:19,YZ,None,
,,,,,,calibration,0,14,2,250,6,S,1,right,0.38599482999961765,0,0,,,,,,,,,,,,,,,,,,,,,1,,,,,,,,,,,,,,,,,,,,,,,,,,,,,,,,,,,,,,,,,,,,,,81,155983,19,Female,1,2024/03/12_10:36:19,YZ,None,
,,,,,,calibration,0,14,2,250,7,V,0,right,0.5791245210002671,1,0,,,,,,,,,,,,,,,,,,,,,1,,,,,,,,,,,,,,,,,,,,,,,,,,,,,,,,,,,,,,,,,,,,,,81,155983,19,Female,1,2024/03/12_10:36:19,YZ,None,
,,,,,,calibration,0,14,2,250,8,N,0,right,0.4574129560005531,1,0,,,,,,,,,,,,,,,,,,,,,1,,,,,,,,,,,,,,,,,,,,,,,,,,,,,,,,,,,,,,,,,,,,,,81,155983,19,Female,1,2024/03/12_10:36:19,YZ,None,
,,,,,,calibration,0,14,2,250,9,Q,0,right,0.4435090669994679,1,0,,,,,,,,,,,,,,,,,,,,,1,,,,,,,,,,,,,,,,,,,,,,,,,,,,,,,,,,,,,,,,,,,,,,81,155983,19,Female,1,2024/03/12_10:36:19,YZ,None,
,,,,,,calibration,0,14,2,250,10,N,1,left,0.6353103179990285,1,0,,,,,,,,,,,,,,,,,,,,,1,,,,,,,,,,,,,,,,,,,,,,,,,,,,,,,,,,,,,,,,,,,,,,81,155983,19,Female,1,2024/03/12_10:36:19,YZ,None,
,,,,,,calibration,0,14,2,250,11,F,0,right,0.2853995189998386,1,0,,,,,,,,,,,,,,,,,,,,,1,,,,,,,,,,,,,,,,,,,,,,,,,,,,,,,,,,,,,,,,,,,,,,81,155983,19,Female,1,2024/03/12_10:36:19,YZ,None,
,,,,,,calibration,0,14,2,250,12,J,0,right,0.44083010500071396,1,0,,,,,,,,,,,,,,,,,,,,,1,,,,,,,,,,,,,,,,,,,,,,,,,,,,,,,,,,,,,,,,,,,,,,81,155983,19,Female,1,2024/03/12_10:36:19,YZ,None,
,,,,,,calibration,0,14,2,250,13,F,1,left,0.5658664750008029,1,0,,,,,,,,,,,,,,,,,,,,,1,,,,,,,,,,,,,,,,,,,,,,,,,,,,,,,,,,,,,,,,,,,,,,81,155983,19,Female,1,2024/03/12_10:36:19,YZ,None,
,,,,,,calibration,0,14,2,250,14,N,0,right,0.3314143210009206,1,0,,,,,,,,,,,,,,,,,,,,,1,,,,,,,,,,,,,,,,,,,,,,,,,,,,,,,,,,,,,,,,,,,,,,81,155983,19,Female,1,2024/03/12_10:36:19,YZ,None,
,,,,,,calibration,0,14,2,250,15,V,0,right,0.4018349350008066,1,0,,,,,,,,,,,,,,,,,,,,,1,,,,,,,,,,,,,,,,,,,,,,,,,,,,,,,,,,,,,,,,,,,,,,81,155983,19,Female,1,2024/03/12_10:36:19,YZ,None,
,,,,,,calibration,0,14,2,250,16,C,0,right,0.47434255000007397,1,0,,,,,,,,,,,,,,,,,,,,,1,,,,,,,,,,,,,,,,,,,,,,,,,,,,,,,,,,,,,,,,,,,,,,81,155983,19,Female,1,2024/03/12_10:36:19,YZ,None,
,,,,,,calibration,0,14,2,250,17,V,1,left,0.5654516720005631,1,0,,,,,,,,,,,,,,,,,,,,,1,,,,,,,,,,,,,,,,,,,,,,,,,,,,,,,,,,,,,,,,,,,,,,81,155983,19,Female,1,2024/03/12_10:36:19,YZ,None,
,,,,,,calibration,0,14,2,250,18,N,0,right,0.37335109900050156,1,0,,,,,,,,,,,,,,,,,,,,,1,,,,,,,,,,,,,,,,,,,,,,,,,,,,,,,,,,,,,,,,,,,,,,81,155983,19,Female,1,2024/03/12_10:36:19,YZ,None,
,,,,,,calibration,0,14,2,250,19,Q,0,left,0.3606905579999875,0,0,,,,,,,,,,,,,,,,,,,,,1,,,,,,,,,,,,,,,,,,,,,,,,,,,,,,,,,,,,,,,,,,,,,,81,155983,19,Female,1,2024/03/12_10:36:19,YZ,None,
,,,,,,calibration,0,14,2,250,20,J,0,right,0.30829016100142326,1,0,,,,,,,,,,,,,,,,,,,,,1,,,,,,,,,,,,,,,,,,,,,,,,,,,,,,,,,,,,,,,,,,,,,,81,155983,19,Female,1,2024/03/12_10:36:19,YZ,None,
,,,,,,calibration,0,14,2,250,,,,,,,,0.8900000000000001,0.8,0.13333333333333333,0.8666666666666667,0.0,0.8666666666666667,0.41688766005017897,4,2,0,0,0,13,17,5,15,0,,,,1,,,,,,,,,,,,,,,,,,,,,,,,,,,,,,,,,,,,,,,,,,,,,,81,155983,19,Female,1,2024/03/12_10:36:19,YZ,None,
,,,,,,Calibration,0,,2,250,,,,,,,,,,,,,,,,,,,,,,,,,7,,,1,,,,,,,,,,,,,,,,,,,,,,,,,,,,,,,,,,,,,,,,,,,,,,81,155983,19,Female,1,2024/03/12_10:36:19,YZ,None,
,,,,,,calibration,0,6,2,202,1,C,0,right,0.3059204029996181,1,0,,,,,,,,,,,,,,,,,,,,,1,,,,,,,,,,,,,,,,,,,,,,,,,,,,,,,,,,,,,,,,,,,,,,81,155983,19,Female,1,2024/03/12_10:36:19,YZ,None,
,,,,,,calibration,0,6,2,202,2,C,0,right,0.2738003069989645,1,0,,,,,,,,,,,,,,,,,,,,,1,,,,,,,,,,,,,,,,,,,,,,,,,,,,,,,,,,,,,,,,,,,,,,81,155983,19,Female,1,2024/03/12_10:36:19,YZ,None,
,,,,,,calibration,0,6,2,202,3,S,0,right,0.4248375560000568,1,0,,,,,,,,,,,,,,,,,,,,,1,,,,,,,,,,,,,,,,,,,,,,,,,,,,,,,,,,,,,,,,,,,,,,81,155983,19,Female,1,2024/03/12_10:36:19,YZ,None,
,,,,,,calibration,0,6,2,202,4,C,1,right,0.3530499369990139,0,0,,,,,,,,,,,,,,,,,,,,,1,,,,,,,,,,,,,,,,,,,,,,,,,,,,,,,,,,,,,,,,,,,,,,81,155983,19,Female,1,2024/03/12_10:36:19,YZ,None,
,,,,,,calibration,0,6,2,202,5,F,0,right,0.42885106399990036,1,0,,,,,,,,,,,,,,,,,,,,,1,,,,,,,,,,,,,,,,,,,,,,,,,,,,,,,,,,,,,,,,,,,,,,81,155983,19,Female,1,2024/03/12_10:36:19,YZ,None,
,,,,,,calibration,0,6,2,202,6,J,0,right,0.4352710660004959,1,0,,,,,,,,,,,,,,,,,,,,,1,,,,,,,,,,,,,,,,,,,,,,,,,,,,,,,,,,,,,,,,,,,,,,81,155983,19,Female,1,2024/03/12_10:36:19,YZ,None,
,,,,,,calibration,0,6,2,202,7,Q,0,right,0.45715690500037454,1,0,,,,,,,,,,,,,,,,,,,,,1,,,,,,,,,,,,,,,,,,,,,,,,,,,,,,,,,,,,,,,,,,,,,,81,155983,19,Female,1,2024/03/12_10:36:19,YZ,None,
,,,,,,calibration,0,6,2,202,8,J,1,left,0.5123074389994144,1,0,,,,,,,,,,,,,,,,,,,,,1,,,,,,,,,,,,,,,,,,,,,,,,,,,,,,,,,,,,,,,,,,,,,,81,155983,19,Female,1,2024/03/12_10:36:19,YZ,None,
,,,,,,calibration,0,6,2,202,9,Q,1,left,0.40598115300053905,1,0,,,,,,,,,,,,,,,,,,,,,1,,,,,,,,,,,,,,,,,,,,,,,,,,,,,,,,,,,,,,,,,,,,,,81,155983,19,Female,1,2024/03/12_10:36:19,YZ,None,
,,,,,,calibration,0,6,2,202,10,F,0,right,0.45730369400007476,1,0,,,,,,,,,,,,,,,,,,,,,1,,,,,,,,,,,,,,,,,,,,,,,,,,,,,,,,,,,,,,,,,,,,,,81,155983,19,Female,1,2024/03/12_10:36:19,YZ,None,
,,,,,,calibration,0,6,2,202,11,S,0,right,0.38565215099879424,1,0,,,,,,,,,,,,,,,,,,,,,1,,,,,,,,,,,,,,,,,,,,,,,,,,,,,,,,,,,,,,,,,,,,,,81,155983,19,Female,1,2024/03/12_10:36:19,YZ,None,
,,,,,,calibration,0,6,2,202,12,X,0,right,0.4163190500003111,1,0,,,,,,,,,,,,,,,,,,,,,1,,,,,,,,,,,,,,,,,,,,,,,,,,,,,,,,,,,,,,,,,,,,,,81,155983,19,Female,1,2024/03/12_10:36:19,YZ,None,
,,,,,,calibration,0,6,2,202,13,C,0,right,0.5576586490005866,1,0,,,,,,,,,,,,,,,,,,,,,1,,,,,,,,,,,,,,,,,,,,,,,,,,,,,,,,,,,,,,,,,,,,,,81,155983,19,Female,1,2024/03/12_10:36:19,YZ,None,
,,,,,,calibration,0,6,2,202,14,X,1,left,0.5122078519998468,1,0,,,,,,,,,,,,,,,,,,,,,1,,,,,,,,,,,,,,,,,,,,,,,,,,,,,,,,,,,,,,,,,,,,,,81,155983,19,Female,1,2024/03/12_10:36:19,YZ,None,
,,,,,,calibration,0,6,2,202,15,V,0,right,0.40569161599887593,1,0,,,,,,,,,,,,,,,,,,,,,1,,,,,,,,,,,,,,,,,,,,,,,,,,,,,,,,,,,,,,,,,,,,,,81,155983,19,Female,1,2024/03/12_10:36:19,YZ,None,
,,,,,,calibration,0,6,2,202,16,Q,0,right,0.3768016539997916,1,0,,,,,,,,,,,,,,,,,,,,,1,,,,,,,,,,,,,,,,,,,,,,,,,,,,,,,,,,,,,,,,,,,,,,81,155983,19,Female,1,2024/03/12_10:36:19,YZ,None,
,,,,,,calibration,0,6,2,202,17,F,0,right,0.6335792979989492,1,0,,,,,,,,,,,,,,,,,,,,,1,,,,,,,,,,,,,,,,,,,,,,,,,,,,,,,,,,,,,,,,,,,,,,81,155983,19,Female,1,2024/03/12_10:36:19,YZ,None,
,,,,,,calibration,0,6,2,202,18,Q,1,right,0.37946264799938945,0,0,,,,,,,,,,,,,,,,,,,,,1,,,,,,,,,,,,,,,,,,,,,,,,,,,,,,,,,,,,,,,,,,,,,,81,155983,19,Female,1,2024/03/12_10:36:19,YZ,None,
,,,,,,calibration,0,6,2,202,19,X,0,right,0.3562159760003851,1,0,,,,,,,,,,,,,,,,,,,,,1,,,,,,,,,,,,,,,,,,,,,,,,,,,,,,,,,,,,,,,,,,,,,,81,155983,19,Female,1,2024/03/12_10:36:19,YZ,None,
,,,,,,calibration,0,6,2,202,20,F,0,left,0.5254698980006651,0,0,,,,,,,,,,,,,,,,,,,,,1,,,,,,,,,,,,,,,,,,,,,,,,,,,,,,,,,,,,,,,,,,,,,,81,155983,19,Female,1,2024/03/12_10:36:19,YZ,None,
,,,,,,calibration,0,6,2,202,21,X,1,right,0.3834505689992511,0,0,,,,,,,,,,,,,,,,,,,,,1,,,,,,,,,,,,,,,,,,,,,,,,,,,,,,,,,,,,,,,,,,,,,,81,155983,19,Female,1,2024/03/12_10:36:19,YZ,None,
,,,,,,calibration,0,6,2,202,,,,,,,,0.8250000000000001,0.5,0.06666666666666667,0.9333333333333333,0.0,0.9333333333333333,0.4279518516664428,3,1,0,0,0,14,17,6,15,0,,,,1,,,,,,,,,,,,,,,,,,,,,,,,,,,,,,,,,,,,,,,,,,,,,,81,155983,19,Female,1,2024/03/12_10:36:19,YZ,None,
,,,,,,Calibration,0,,2,202,,,,,,,,,,,,,,,,,,,,,,,,,8,,,1,,,,,,,,,,,,,,,,,,,,,,,,,,,,,,,,,,,,,,,,,,,,,,81,155983,19,Female,1,2024/03/12_10:36:19,YZ,None,
,,,,,,calibration,0,21,2,202,1,F,0,right,0.314295456999389,1,0,,,,,,,,,,,,,,,,,,,,,1,,,,,,,,,,,,,,,,,,,,,,,,,,,,,,,,,,,,,,,,,,,,,,81,155983,19,Female,1,2024/03/12_10:36:19,YZ,None,
,,,,,,calibration,0,21,2,202,2,V,0,right,0.3523706020005193,1,0,,,,,,,,,,,,,,,,,,,,,1,,,,,,,,,,,,,,,,,,,,,,,,,,,,,,,,,,,,,,,,,,,,,,81,155983,19,Female,1,2024/03/12_10:36:19,YZ,None,
,,,,,,calibration,0,21,2,202,3,S,0,right,0.4448329229999217,1,0,,,,,,,,,,,,,,,,,,,,,1,,,,,,,,,,,,,,,,,,,,,,,,,,,,,,,,,,,,,,,,,,,,,,81,155983,19,Female,1,2024/03/12_10:36:19,YZ,None,
,,,,,,calibration,0,21,2,202,4,X,0,right,0.4210222470010194,1,0,,,,,,,,,,,,,,,,,,,,,1,,,,,,,,,,,,,,,,,,,,,,,,,,,,,,,,,,,,,,,,,,,,,,81,155983,19,Female,1,2024/03/12_10:36:19,YZ,None,
,,,,,,calibration,0,21,2,202,5,J,0,right,0.3937254899992695,1,0,,,,,,,,,,,,,,,,,,,,,1,,,,,,,,,,,,,,,,,,,,,,,,,,,,,,,,,,,,,,,,,,,,,,81,155983,19,Female,1,2024/03/12_10:36:19,YZ,None,
,,,,,,calibration,0,21,2,202,6,F,0,right,0.4688068320010643,1,0,,,,,,,,,,,,,,,,,,,,,1,,,,,,,,,,,,,,,,,,,,,,,,,,,,,,,,,,,,,,,,,,,,,,81,155983,19,Female,1,2024/03/12_10:36:19,YZ,None,
,,,,,,calibration,0,21,2,202,7,J,1,right,0.4406689740008005,0,0,,,,,,,,,,,,,,,,,,,,,1,,,,,,,,,,,,,,,,,,,,,,,,,,,,,,,,,,,,,,,,,,,,,,81,155983,19,Female,1,2024/03/12_10:36:19,YZ,None,
,,,,,,calibration,0,21,2,202,8,C,0,right,0.5182879800013325,1,0,,,,,,,,,,,,,,,,,,,,,1,,,,,,,,,,,,,,,,,,,,,,,,,,,,,,,,,,,,,,,,,,,,,,81,155983,19,Female,1,2024/03/12_10:36:19,YZ,None,
,,,,,,calibration,0,21,2,202,9,J,1,left,0.5655157050005073,1,0,,,,,,,,,,,,,,,,,,,,,1,,,,,,,,,,,,,,,,,,,,,,,,,,,,,,,,,,,,,,,,,,,,,,81,155983,19,Female,1,2024/03/12_10:36:19,YZ,None,
,,,,,,calibration,0,21,2,202,10,F,0,right,0.3392618219986616,1,0,,,,,,,,,,,,,,,,,,,,,1,,,,,,,,,,,,,,,,,,,,,,,,,,,,,,,,,,,,,,,,,,,,,,81,155983,19,Female,1,2024/03/12_10:36:19,YZ,None,
,,,,,,calibration,0,21,2,202,11,N,0,right,0.5823757620000833,1,0,,,,,,,,,,,,,,,,,,,,,1,,,,,,,,,,,,,,,,,,,,,,,,,,,,,,,,,,,,,,,,,,,,,,81,155983,19,Female,1,2024/03/12_10:36:19,YZ,None,
,,,,,,calibration,0,21,2,202,12,F,1,left,0.7499304819993995,1,0,,,,,,,,,,,,,,,,,,,,,1,,,,,,,,,,,,,,,,,,,,,,,,,,,,,,,,,,,,,,,,,,,,,,81,155983,19,Female,1,2024/03/12_10:36:19,YZ,None,
,,,,,,calibration,0,21,2,202,13,N,1,left,0.4078182489993196,1,0,,,,,,,,,,,,,,,,,,,,,1,,,,,,,,,,,,,,,,,,,,,,,,,,,,,,,,,,,,,,,,,,,,,,81,155983,19,Female,1,2024/03/12_10:36:19,YZ,None,
,,,,,,calibration,0,21,2,202,14,V,0,right,0.5122377480001887,1,0,,,,,,,,,,,,,,,,,,,,,1,,,,,,,,,,,,,,,,,,,,,,,,,,,,,,,,,,,,,,,,,,,,,,81,155983,19,Female,1,2024/03/12_10:36:19,YZ,None,
,,,,,,calibration,0,21,2,202,15,N,1,right,0.46164768200105755,0,0,,,,,,,,,,,,,,,,,,,,,1,,,,,,,,,,,,,,,,,,,,,,,,,,,,,,,,,,,,,,,,,,,,,,81,155983,19,Female,1,2024/03/12_10:36:19,YZ,None,
,,,,,,calibration,0,21,2,202,16,J,0,right,0.3803063409995957,1,0,,,,,,,,,,,,,,,,,,,,,1,,,,,,,,,,,,,,,,,,,,,,,,,,,,,,,,,,,,,,,,,,,,,,81,155983,19,Female,1,2024/03/12_10:36:19,YZ,None,
,,,,,,calibration,0,21,2,202,17,N,1,left,0.4986552970003686,1,0,,,,,,,,,,,,,,,,,,,,,1,,,,,,,,,,,,,,,,,,,,,,,,,,,,,,,,,,,,,,,,,,,,,,81,155983,19,Female,1,2024/03/12_10:36:19,YZ,None,
,,,,,,calibration,0,21,2,202,18,Q,0,right,0.3661261100005504,1,0,,,,,,,,,,,,,,,,,,,,,1,,,,,,,,,,,,,,,,,,,,,,,,,,,,,,,,,,,,,,,,,,,,,,81,155983,19,Female,1,2024/03/12_10:36:19,YZ,None,
,,,,,,calibration,0,21,2,202,19,F,0,right,0.4244619169985526,1,0,,,,,,,,,,,,,,,,,,,,,1,,,,,,,,,,,,,,,,,,,,,,,,,,,,,,,,,,,,,,,,,,,,,,81,155983,19,Female,1,2024/03/12_10:36:19,YZ,None,
,,,,,,calibration,0,21,2,202,20,C,0,right,0.4476120950002951,1,0,,,,,,,,,,,,,,,,,,,,,1,,,,,,,,,,,,,,,,,,,,,,,,,,,,,,,,,,,,,,,,,,,,,,81,155983,19,Female,1,2024/03/12_10:36:19,YZ,None,
,,,,,,calibration,0,21,2,202,21,V,0,right,0.4440469250002934,1,0,,,,,,,,,,,,,,,,,,,,,1,,,,,,,,,,,,,,,,,,,,,,,,,,,,,,,,,,,,,,,,,,,,,,81,155983,19,Female,1,2024/03/12_10:36:19,YZ,None,
,,,,,,calibration,0,21,2,202,,,,,,,,0.9166666666666666,0.6666666666666666,0.0,1.0,0.0,1.0,0.45400031619058046,4,0,0,0,0,15,19,6,15,0,,,,1,,,,,,,,,,,,,,,,,,,,,,,,,,,,,,,,,,,,,,,,,,,,,,81,155983,19,Female,1,2024/03/12_10:36:19,YZ,None,
,,,,,,Calibration,0,,2,202,,,,,,,,,,,,,,,,,,,,,,,,,9,,,1,,,,,,,,,,,,,,,,,,,,,,,,,,,,,,,,,,,,,,,,,,,,,,81,155983,19,Female,1,2024/03/12_10:36:19,YZ,None,
,,,,,,calibration,0,19,2,159,1,F,0,right,0.7207352599998558,1,0,,,,,,,,,,,,,,,,,,,,,1,,,,,,,,,,,,,,,,,,,,,,,,,,,,,,,,,,,,,,,,,,,,,,81,155983,19,Female,1,2024/03/12_10:36:19,YZ,None,
,,,,,,calibration,0,19,2,159,2,N,0,right,0.33019729999978154,1,0,,,,,,,,,,,,,,,,,,,,,1,,,,,,,,,,,,,,,,,,,,,,,,,,,,,,,,,,,,,,,,,,,,,,81,155983,19,Female,1,2024/03/12_10:36:19,YZ,None,
,,,,,,calibration,0,19,2,159,3,V,0,right,0.38183277800089854,1,0,,,,,,,,,,,,,,,,,,,,,1,,,,,,,,,,,,,,,,,,,,,,,,,,,,,,,,,,,,,,,,,,,,,,81,155983,19,Female,1,2024/03/12_10:36:19,YZ,None,
,,,,,,calibration,0,19,2,159,4,X,0,right,0.39267600500170374,1,0,,,,,,,,,,,,,,,,,,,,,1,,,,,,,,,,,,,,,,,,,,,,,,,,,,,,,,,,,,,,,,,,,,,,81,155983,19,Female,1,2024/03/12_10:36:19,YZ,None,
,,,,,,calibration,0,19,2,159,5,V,1,left,0.44915990099980263,1,0,,,,,,,,,,,,,,,,,,,,,1,,,,,,,,,,,,,,,,,,,,,,,,,,,,,,,,,,,,,,,,,,,,,,81,155983,19,Female,1,2024/03/12_10:36:19,YZ,None,
,,,,,,calibration,0,19,2,159,6,X,1,right,0.40469605999896885,0,0,,,,,,,,,,,,,,,,,,,,,1,,,,,,,,,,,,,,,,,,,,,,,,,,,,,,,,,,,,,,,,,,,,,,81,155983,19,Female,1,2024/03/12_10:36:19,YZ,None,
,,,,,,calibration,0,19,2,159,7,N,0,left,0.6592071670002042,0,0,,,,,,,,,,,,,,,,,,,,,1,,,,,,,,,,,,,,,,,,,,,,,,,,,,,,,,,,,,,,,,,,,,,,81,155983,19,Female,1,2024/03/12_10:36:19,YZ,None,
,,,,,,calibration,0,19,2,159,8,C,0,right,0.5451005819995771,1,0,,,,,,,,,,,,,,,,,,,,,1,,,,,,,,,,,,,,,,,,,,,,,,,,,,,,,,,,,,,,,,,,,,,,81,155983,19,Female,1,2024/03/12_10:36:19,YZ,None,
,,,,,,calibration,0,19,2,159,9,F,0,right,0.512143764000939,1,0,,,,,,,,,,,,,,,,,,,,,1,,,,,,,,,,,,,,,,,,,,,,,,,,,,,,,,,,,,,,,,,,,,,,81,155983,19,Female,1,2024/03/12_10:36:19,YZ,None,
,,,,,,calibration,0,19,2,159,10,C,1,left,0.30486765000023297,1,0,,,,,,,,,,,,,,,,,,,,,1,,,,,,,,,,,,,,,,,,,,,,,,,,,,,,,,,,,,,,,,,,,,,,81,155983,19,Female,1,2024/03/12_10:36:19,YZ,None,
,,,,,,calibration,0,19,2,159,11,J,0,right,0.39244016999873566,1,0,,,,,,,,,,,,,,,,,,,,,1,,,,,,,,,,,,,,,,,,,,,,,,,,,,,,,,,,,,,,,,,,,,,,81,155983,19,Female,1,2024/03/12_10:36:19,YZ,None,
,,,,,,calibration,0,19,2,159,12,S,0,right,0.46552683300069475,1,0,,,,,,,,,,,,,,,,,,,,,1,,,,,,,,,,,,,,,,,,,,,,,,,,,,,,,,,,,,,,,,,,,,,,81,155983,19,Female,1,2024/03/12_10:36:19,YZ,None,
,,,,,,calibration,0,19,2,159,13,Q,0,right,0.5336527660001593,1,0,,,,,,,,,,,,,,,,,,,,,1,,,,,,,,,,,,,,,,,,,,,,,,,,,,,,,,,,,,,,,,,,,,,,81,155983,19,Female,1,2024/03/12_10:36:19,YZ,None,
,,,,,,calibration,0,19,2,159,14,V,0,right,0.5188383770000655,1,0,,,,,,,,,,,,,,,,,,,,,1,,,,,,,,,,,,,,,,,,,,,,,,,,,,,,,,,,,,,,,,,,,,,,81,155983,19,Female,1,2024/03/12_10:36:19,YZ,None,
,,,,,,calibration,0,19,2,159,15,J,0,right,0.7398959460006154,1,0,,,,,,,,,,,,,,,,,,,,,1,,,,,,,,,,,,,,,,,,,,,,,,,,,,,,,,,,,,,,,,,,,,,,81,155983,19,Female,1,2024/03/12_10:36:19,YZ,None,
,,,,,,calibration,0,19,2,159,16,V,1,left,0.6590343560001202,1,0,,,,,,,,,,,,,,,,,,,,,1,,,,,,,,,,,,,,,,,,,,,,,,,,,,,,,,,,,,,,,,,,,,,,81,155983,19,Female,1,2024/03/12_10:36:19,YZ,None,
,,,,,,calibration,0,19,2,159,17,J,1,right,0.47844570400047814,0,0,,,,,,,,,,,,,,,,,,,,,1,,,,,,,,,,,,,,,,,,,,,,,,,,,,,,,,,,,,,,,,,,,,,,81,155983,19,Female,1,2024/03/12_10:36:19,YZ,None,
,,,,,,calibration,0,19,2,159,18,C,0,right,0.4361615130001155,1,0,,,,,,,,,,,,,,,,,,,,,1,,,,,,,,,,,,,,,,,,,,,,,,,,,,,,,,,,,,,,,,,,,,,,81,155983,19,Female,1,2024/03/12_10:36:19,YZ,None,
,,,,,,calibration,0,19,2,159,19,Q,0,right,0.5321623020008701,1,0,,,,,,,,,,,,,,,,,,,,,1,,,,,,,,,,,,,,,,,,,,,,,,,,,,,,,,,,,,,,,,,,,,,,81,155983,19,Female,1,2024/03/12_10:36:19,YZ,None,
,,,,,,calibration,0,19,2,159,20,S,0,right,0.44275588399978005,1,0,,,,,,,,,,,,,,,,,,,,,1,,,,,,,,,,,,,,,,,,,,,,,,,,,,,,,,,,,,,,,,,,,,,,81,155983,19,Female,1,2024/03/12_10:36:19,YZ,None,
,,,,,,calibration,0,19,2,159,21,Q,1,left,0.48526686699915444,1,0,,,,,,,,,,,,,,,,,,,,,1,,,,,,,,,,,,,,,,,,,,,,,,,,,,,,,,,,,,,,,,,,,,,,81,155983,19,Female,1,2024/03/12_10:36:19,YZ,None,
,,,,,,calibration,0,19,2,159,22,F,0,right,0.3676708039984078,1,0,,,,,,,,,,,,,,,,,,,,,1,,,,,,,,,,,,,,,,,,,,,,,,,,,,,,,,,,,,,,,,,,,,,,81,155983,19,Female,1,2024/03/12_10:36:19,YZ,None,
,,,,,,calibration,0,19,2,159,,,,,,,,0.8802083333333333,0.6666666666666666,0.0625,0.9375,0.0,0.9375,0.48874854495459824,4,1,0,0,0,15,19,6,16,0,,,,1,,,,,,,,,,,,,,,,,,,,,,,,,,,,,,,,,,,,,,,,,,,,,,81,155983,19,Female,1,2024/03/12_10:36:19,YZ,None,
,,,,,,Calibration,0,,2,159,,,,,,,,,,,,,,,,,,,,,,,,,10,,,1,,,,,,,,,,,,,,,,,,,,,,,,,,,,,,,,,,,,,,,,,,,,,,81,155983,19,Female,1,2024/03/12_10:36:19,YZ,None,
,,,,,,calibration,0,26,2,120,1,X,0,None,nan,0,1,,,,,,,,,,,,,,,,,,,,,1,,,,,,,,,,,,,,,,,,,,,,,,,,,,,,,,,,,,,,,,,,,,,,81,155983,19,Female,1,2024/03/12_10:36:19,YZ,None,
,,,,,,calibration,0,26,2,120,2,X,0,left,0.5123244539990992,0,0,,,,,,,,,,,,,,,,,,,,,1,,,,,,,,,,,,,,,,,,,,,,,,,,,,,,,,,,,,,,,,,,,,,,81,155983,19,Female,1,2024/03/12_10:36:19,YZ,None,
,,,,,,calibration,0,26,2,120,3,J,0,right,0.3678358740016847,1,0,,,,,,,,,,,,,,,,,,,,,1,,,,,,,,,,,,,,,,,,,,,,,,,,,,,,,,,,,,,,,,,,,,,,81,155983,19,Female,1,2024/03/12_10:36:19,YZ,None,
,,,,,,calibration,0,26,2,120,4,X,1,right,0.532854443999895,0,0,,,,,,,,,,,,,,,,,,,,,1,,,,,,,,,,,,,,,,,,,,,,,,,,,,,,,,,,,,,,,,,,,,,,81,155983,19,Female,1,2024/03/12_10:36:19,YZ,None,
,,,,,,calibration,0,26,2,120,5,J,1,left,0.6014439479986322,1,0,,,,,,,,,,,,,,,,,,,,,1,,,,,,,,,,,,,,,,,,,,,,,,,,,,,,,,,,,,,,,,,,,,,,81,155983,19,Female,1,2024/03/12_10:36:19,YZ,None,
,,,,,,calibration,0,26,2,120,6,C,0,right,0.3865439860001061,1,0,,,,,,,,,,,,,,,,,,,,,1,,,,,,,,,,,,,,,,,,,,,,,,,,,,,,,,,,,,,,,,,,,,,,81,155983,19,Female,1,2024/03/12_10:36:19,YZ,None,
,,,,,,calibration,0,26,2,120,7,V,0,right,0.4206933179993939,1,0,,,,,,,,,,,,,,,,,,,,,1,,,,,,,,,,,,,,,,,,,,,,,,,,,,,,,,,,,,,,,,,,,,,,81,155983,19,Female,1,2024/03/12_10:36:19,YZ,None,
,,,,,,calibration,0,26,2,120,8,X,0,right,0.49668401700000686,1,0,,,,,,,,,,,,,,,,,,,,,1,,,,,,,,,,,,,,,,,,,,,,,,,,,,,,,,,,,,,,,,,,,,,,81,155983,19,Female,1,2024/03/12_10:36:19,YZ,None,
,,,,,,calibration,0,26,2,120,9,J,0,left,0.4848110799994174,0,0,,,,,,,,,,,,,,,,,,,,,1,,,,,,,,,,,,,,,,,,,,,,,,,,,,,,,,,,,,,,,,,,,,,,81,155983,19,Female,1,2024/03/12_10:36:19,YZ,None,
,,,,,,calibration,0,26,2,120,10,V,0,right,0.4641243019996182,1,0,,,,,,,,,,,,,,,,,,,,,1,,,,,,,,,,,,,,,,,,,,,,,,,,,,,,,,,,,,,,,,,,,,,,81,155983,19,Female,1,2024/03/12_10:36:19,YZ,None,
,,,,,,calibration,0,26,2,120,11,J,1,left,0.6145105750001676,1,0,,,,,,,,,,,,,,,,,,,,,1,,,,,,,,,,,,,,,,,,,,,,,,,,,,,,,,,,,,,,,,,,,,,,81,155983,19,Female,1,2024/03/12_10:36:19,YZ,None,
,,,,,,calibration,0,26,2,120,12,N,0,right,0.34749526800078456,1,0,,,,,,,,,,,,,,,,,,,,,1,,,,,,,,,,,,,,,,,,,,,,,,,,,,,,,,,,,,,,,,,,,,,,81,155983,19,Female,1,2024/03/12_10:36:19,YZ,None,
,,,,,,calibration,0,26,2,120,13,Q,0,right,0.4029399500013824,1,0,,,,,,,,,,,,,,,,,,,,,1,,,,,,,,,,,,,,,,,,,,,,,,,,,,,,,,,,,,,,,,,,,,,,81,155983,19,Female,1,2024/03/12_10:36:19,YZ,None,
,,,,,,calibration,0,26,2,120,14,J,0,right,0.4418254310003249,1,0,,,,,,,,,,,,,,,,,,,,,1,,,,,,,,,,,,,,,,,,,,,,,,,,,,,,,,,,,,,,,,,,,,,,81,155983,19,Female,1,2024/03/12_10:36:19,YZ,None,
,,,,,,calibration,0,26,2,120,15,N,0,right,0.5660442069984128,1,0,,,,,,,,,,,,,,,,,,,,,1,,,,,,,,,,,,,,,,,,,,,,,,,,,,,,,,,,,,,,,,,,,,,,81,155983,19,Female,1,2024/03/12_10:36:19,YZ,None,
,,,,,,calibration,0,26,2,120,16,J,1,left,0.7148229160011397,1,0,,,,,,,,,,,,,,,,,,,,,1,,,,,,,,,,,,,,,,,,,,,,,,,,,,,,,,,,,,,,,,,,,,,,81,155983,19,Female,1,2024/03/12_10:36:19,YZ,None,
,,,,,,calibration,0,26,2,120,17,N,1,right,0.2831060560001788,0,0,,,,,,,,,,,,,,,,,,,,,1,,,,,,,,,,,,,,,,,,,,,,,,,,,,,,,,,,,,,,,,,,,,,,81,155983,19,Female,1,2024/03/12_10:36:19,YZ,None,
,,,,,,calibration,0,26,2,120,18,S,0,right,0.5477819569987332,1,0,,,,,,,,,,,,,,,,,,,,,1,,,,,,,,,,,,,,,,,,,,,,,,,,,,,,,,,,,,,,,,,,,,,,81,155983,19,Female,1,2024/03/12_10:36:19,YZ,None,
,,,,,,calibration,0,26,2,120,19,C,0,right,0.47537537700009125,1,0,,,,,,,,,,,,,,,,,,,,,1,,,,,,,,,,,,,,,,,,,,,,,,,,,,,,,,,,,,,,,,,,,,,,81,155983,19,Female,1,2024/03/12_10:36:19,YZ,None,
,,,,,,calibration,0,26,2,120,20,V,0,right,0.3969488740003726,1,0,,,,,,,,,,,,,,,,,,,,,1,,,,,,,,,,,,,,,,,,,,,,,,,,,,,,,,,,,,,,,,,,,,,,81,155983,19,Female,1,2024/03/12_10:36:19,YZ,None,
,,,,,,calibration,0,26,2,120,21,N,0,right,0.6436225309989823,1,0,,,,,,,,,,,,,,,,,,,,,1,,,,,,,,,,,,,,,,,,,,,,,,,,,,,,,,,,,,,,,,,,,,,,81,155983,19,Female,1,2024/03/12_10:36:19,YZ,None,
,,,,,,calibration,0,26,2,120,22,S,0,right,0.4480106840001099,1,0,,,,,,,,,,,,,,,,,,,,,1,,,,,,,,,,,,,,,,,,,,,,,,,,,,,,,,,,,,,,,,,,,,,,81,155983,19,Female,1,2024/03/12_10:36:19,YZ,None,
,,,,,,calibration,0,26,2,120,23,N,1,left,0.6038404240007367,1,0,,,,,,,,,,,,,,,,,,,,,1,,,,,,,,,,,,,,,,,,,,,,,,,,,,,,,,,,,,,,,,,,,,,,81,155983,19,Female,1,2024/03/12_10:36:19,YZ,None,
,,,,,,calibration,0,26,2,120,,,,,,,,0.8480392156862745,0.6666666666666666,0.11764705882352941,0.875,0.043478260869565216,0.8388746803069054,0.48880180331814865,4,2,0,1,1,14,18,6,17,0,,,,1,,,,,,,,,,,,,,,,,,,,,,,,,,,,,,,,,,,,,,,,,,,,,,81,155983,19,Female,1,2024/03/12_10:36:19,YZ,None,
,,,,,,Calibration,0,,2,120,,,,,,,,,,,,,,,,,,,,,,,,,11,,,1,,,,,,,,,,,,,,,,,,,,,,,,,,,,,,,,,,,,,,,,,,,,,,81,155983,19,Female,1,2024/03/12_10:36:19,YZ,None,
,,,,,,calibration,0,31,2,120,1,C,0,right,0.34882411000035063,1,0,,,,,,,,,,,,,,,,,,,,,1,,,,,,,,,,,,,,,,,,,,,,,,,,,,,,,,,,,,,,,,,,,,,,81,155983,19,Female,1,2024/03/12_10:36:19,YZ,None,
,,,,,,calibration,0,31,2,120,2,X,0,right,0.3238680149988795,1,0,,,,,,,,,,,,,,,,,,,,,1,,,,,,,,,,,,,,,,,,,,,,,,,,,,,,,,,,,,,,,,,,,,,,81,155983,19,Female,1,2024/03/12_10:36:19,YZ,None,
,,,,,,calibration,0,31,2,120,3,C,1,left,0.31674100200143585,1,0,,,,,,,,,,,,,,,,,,,,,1,,,,,,,,,,,,,,,,,,,,,,,,,,,,,,,,,,,,,,,,,,,,,,81,155983,19,Female,1,2024/03/12_10:36:19,YZ,None,
,,,,,,calibration,0,31,2,120,4,Q,0,right,0.2960943620000762,1,0,,,,,,,,,,,,,,,,,,,,,1,,,,,,,,,,,,,,,,,,,,,,,,,,,,,,,,,,,,,,,,,,,,,,81,155983,19,Female,1,2024/03/12_10:36:19,YZ,None,
,,,,,,calibration,0,31,2,120,5,J,0,right,0.3777176280000276,1,0,,,,,,,,,,,,,,,,,,,,,1,,,,,,,,,,,,,,,,,,,,,,,,,,,,,,,,,,,,,,,,,,,,,,81,155983,19,Female,1,2024/03/12_10:36:19,YZ,None,
,,,,,,calibration,0,31,2,120,6,C,0,left,0.46939044300052046,0,0,,,,,,,,,,,,,,,,,,,,,1,,,,,,,,,,,,,,,,,,,,,,,,,,,,,,,,,,,,,,,,,,,,,,81,155983,19,Female,1,2024/03/12_10:36:19,YZ,None,
,,,,,,calibration,0,31,2,120,7,J,1,left,0.4653664720008237,1,0,,,,,,,,,,,,,,,,,,,,,1,,,,,,,,,,,,,,,,,,,,,,,,,,,,,,,,,,,,,,,,,,,,,,81,155983,19,Female,1,2024/03/12_10:36:19,YZ,None,
,,,,,,calibration,0,31,2,120,8,V,0,right,0.3725481340006809,1,0,,,,,,,,,,,,,,,,,,,,,1,,,,,,,,,,,,,,,,,,,,,,,,,,,,,,,,,,,,,,,,,,,,,,81,155983,19,Female,1,2024/03/12_10:36:19,YZ,None,
,,,,,,calibration,0,31,2,120,9,J,1,left,0.5602339309989475,1,0,,,,,,,,,,,,,,,,,,,,,1,,,,,,,,,,,,,,,,,,,,,,,,,,,,,,,,,,,,,,,,,,,,,,81,155983,19,Female,1,2024/03/12_10:36:19,YZ,None,
,,,,,,calibration,0,31,2,120,10,C,0,right,0.3410241589990619,1,0,,,,,,,,,,,,,,,,,,,,,1,,,,,,,,,,,,,,,,,,,,,,,,,,,,,,,,,,,,,,,,,,,,,,81,155983,19,Female,1,2024/03/12_10:36:19,YZ,None,
,,,,,,calibration,0,31,2,120,11,V,0,left,0.49812596700030554,0,0,,,,,,,,,,,,,,,,,,,,,1,,,,,,,,,,,,,,,,,,,,,,,,,,,,,,,,,,,,,,,,,,,,,,81,155983,19,Female,1,2024/03/12_10:36:19,YZ,None,
,,,,,,calibration,0,31,2,120,12,C,1,left,0.40334075200007646,1,0,,,,,,,,,,,,,,,,,,,,,1,,,,,,,,,,,,,,,,,,,,,,,,,,,,,,,,,,,,,,,,,,,,,,81,155983,19,Female,1,2024/03/12_10:36:19,YZ,None,
,,,,,,calibration,0,31,2,120,13,S,0,right,0.32938758300042537,1,0,,,,,,,,,,,,,,,,,,,,,1,,,,,,,,,,,,,,,,,,,,,,,,,,,,,,,,,,,,,,,,,,,,,,81,155983,19,Female,1,2024/03/12_10:36:19,YZ,None,
,,,,,,calibration,0,31,2,120,14,C,1,right,0.500370784999177,0,0,,,,,,,,,,,,,,,,,,,,,1,,,,,,,,,,,,,,,,,,,,,,,,,,,,,,,,,,,,,,,,,,,,,,81,155983,19,Female,1,2024/03/12_10:36:19,YZ,None,
,,,,,,calibration,0,31,2,120,15,Q,0,right,0.5607011100000818,1,0,,,,,,,,,,,,,,,,,,,,,1,,,,,,,,,,,,,,,,,,,,,,,,,,,,,,,,,,,,,,,,,,,,,,81,155983,19,Female,1,2024/03/12_10:36:19,YZ,None,
,,,,,,calibration,0,31,2,120,16,N,0,right,0.44885324999995646,1,0,,,,,,,,,,,,,,,,,,,,,1,,,,,,,,,,,,,,,,,,,,,,,,,,,,,,,,,,,,,,,,,,,,,,81,155983,19,Female,1,2024/03/12_10:36:19,YZ,None,
,,,,,,calibration,0,31,2,120,17,S,0,right,0.4725937429993792,1,0,,,,,,,,,,,,,,,,,,,,,1,,,,,,,,,,,,,,,,,,,,,,,,,,,,,,,,,,,,,,,,,,,,,,81,155983,19,Female,1,2024/03/12_10:36:19,YZ,None,
,,,,,,calibration,0,31,2,120,18,N,1,left,0.512124920000133,1,0,,,,,,,,,,,,,,,,,,,,,1,,,,,,,,,,,,,,,,,,,,,,,,,,,,,,,,,,,,,,,,,,,,,,81,155983,19,Female,1,2024/03/12_10:36:19,YZ,None,
,,,,,,calibration,0,31,2,120,19,S,1,right,0.37193602100160206,0,0,,,,,,,,,,,,,,,,,,,,,1,,,,,,,,,,,,,,,,,,,,,,,,,,,,,,,,,,,,,,,,,,,,,,81,155983,19,Female,1,2024/03/12_10:36:19,YZ,None,
,,,,,,calibration,0,31,2,120,20,J,0,right,0.40833107300022675,1,0,,,,,,,,,,,,,,,,,,,,,1,,,,,,,,,,,,,,,,,,,,,,,,,,,,,,,,,,,,,,,,,,,,,,81,155983,19,Female,1,2024/03/12_10:36:19,YZ,None,
,,,,,,calibration,0,31,2,120,21,Q,0,right,0.46521860800021386,1,0,,,,,,,,,,,,,,,,,,,,,1,,,,,,,,,,,,,,,,,,,,,,,,,,,,,,,,,,,,,,,,,,,,,,81,155983,19,Female,1,2024/03/12_10:36:19,YZ,None,
,,,,,,calibration,0,31,2,120,22,N,0,right,0.39073923400064814,1,0,,,,,,,,,,,,,,,,,,,,,1,,,,,,,,,,,,,,,,,,,,,,,,,,,,,,,,,,,,,,,,,,,,,,81,155983,19,Female,1,2024/03/12_10:36:19,YZ,None,
,,,,,,calibration,0,31,2,120,23,X,0,right,0.4137145939985203,1,0,,,,,,,,,,,,,,,,,,,,,1,,,,,,,,,,,,,,,,,,,,,,,,,,,,,,,,,,,,,,,,,,,,,,81,155983,19,Female,1,2024/03/12_10:36:19,YZ,None,
,,,,,,calibration,0,31,2,120,,,,,,,,0.8616071428571429,0.7142857142857143,0.125,0.875,0.0,0.875,0.4194454737391978,5,2,0,0,0,14,19,7,16,0,,,,1,,,,,,,,,,,,,,,,,,,,,,,,,,,,,,,,,,,,,,,,,,,,,,81,155983,19,Female,1,2024/03/12_10:36:19,YZ,None,
,,,,,,Calibration,0,,2,120,,,,,,,,,,,,,,,,,,,,,,,,,12,,,1,,,,,,,,,,,,,,,,,,,,,,,,,,,,,,,,,,,,,,,,,,,,,,81,155983,19,Female,1,2024/03/12_10:36:19,YZ,None,
,,,,,,calibration,0,2,2,83,1,F,0,right,0.36818067399872234,1,0,,,,,,,,,,,,,,,,,,,,,1,,,,,,,,,,,,,,,,,,,,,,,,,,,,,,,,,,,,,,,,,,,,,,81,155983,19,Female,1,2024/03/12_10:36:19,YZ,None,
,,,,,,calibration,0,2,2,83,2,S,0,right,0.3224438340002962,1,0,,,,,,,,,,,,,,,,,,,,,1,,,,,,,,,,,,,,,,,,,,,,,,,,,,,,,,,,,,,,,,,,,,,,81,155983,19,Female,1,2024/03/12_10:36:19,YZ,None,
,,,,,,calibration,0,2,2,83,3,C,0,right,0.34059388099922216,1,0,,,,,,,,,,,,,,,,,,,,,1,,,,,,,,,,,,,,,,,,,,,,,,,,,,,,,,,,,,,,,,,,,,,,81,155983,19,Female,1,2024/03/12_10:36:19,YZ,None,
,,,,,,calibration,0,2,2,83,4,S,1,left,0.4444428910010174,1,0,,,,,,,,,,,,,,,,,,,,,1,,,,,,,,,,,,,,,,,,,,,,,,,,,,,,,,,,,,,,,,,,,,,,81,155983,19,Female,1,2024/03/12_10:36:19,YZ,None,
,,,,,,calibration,0,2,2,83,5,C,1,left,0.5120682050001051,1,0,,,,,,,,,,,,,,,,,,,,,1,,,,,,,,,,,,,,,,,,,,,,,,,,,,,,,,,,,,,,,,,,,,,,81,155983,19,Female,1,2024/03/12_10:36:19,YZ,None,
,,,,,,calibration,0,2,2,83,6,V,0,right,0.5245122630003607,1,0,,,,,,,,,,,,,,,,,,,,,1,,,,,,,,,,,,,,,,,,,,,,,,,,,,,,,,,,,,,,,,,,,,,,81,155983,19,Female,1,2024/03/12_10:36:19,YZ,None,
,,,,,,calibration,0,2,2,83,7,C,1,left,0.40471223699933034,1,0,,,,,,,,,,,,,,,,,,,,,1,,,,,,,,,,,,,,,,,,,,,,,,,,,,,,,,,,,,,,,,,,,,,,81,155983,19,Female,1,2024/03/12_10:36:19,YZ,None,
,,,,,,calibration,0,2,2,83,8,F,0,right,0.3452781659998436,1,0,,,,,,,,,,,,,,,,,,,,,1,,,,,,,,,,,,,,,,,,,,,,,,,,,,,,,,,,,,,,,,,,,,,,81,155983,19,Female,1,2024/03/12_10:36:19,YZ,None,
,,,,,,calibration,0,2,2,83,9,V,0,left,0.6474212969988002,0,0,,,,,,,,,,,,,,,,,,,,,1,,,,,,,,,,,,,,,,,,,,,,,,,,,,,,,,,,,,,,,,,,,,,,81,155983,19,Female,1,2024/03/12_10:36:19,YZ,None,
,,,,,,calibration,0,2,2,83,10,J,0,right,0.2617709499991179,1,0,,,,,,,,,,,,,,,,,,,,,1,,,,,,,,,,,,,,,,,,,,,,,,,,,,,,,,,,,,,,,,,,,,,,81,155983,19,Female,1,2024/03/12_10:36:19,YZ,None,
,,,,,,calibration,0,2,2,83,11,V,1,right,0.6406648129996029,0,0,,,,,,,,,,,,,,,,,,,,,1,,,,,,,,,,,,,,,,,,,,,,,,,,,,,,,,,,,,,,,,,,,,,,81,155983,19,Female,1,2024/03/12_10:36:19,YZ,None,
,,,,,,calibration,0,2,2,83,12,J,1,left,0.45144726500075194,1,0,,,,,,,,,,,,,,,,,,,,,1,,,,,,,,,,,,,,,,,,,,,,,,,,,,,,,,,,,,,,,,,,,,,,81,155983,19,Female,1,2024/03/12_10:36:19,YZ,None,
,,,,,,calibration,0,2,2,83,13,C,0,right,0.33619896799973503,1,0,,,,,,,,,,,,,,,,,,,,,1,,,,,,,,,,,,,,,,,,,,,,,,,,,,,,,,,,,,,,,,,,,,,,81,155983,19,Female,1,2024/03/12_10:36:19,YZ,None,
,,,,,,calibration,0,2,2,83,14,F,0,right,0.3761065080016124,1,0,,,,,,,,,,,,,,,,,,,,,1,,,,,,,,,,,,,,,,,,,,,,,,,,,,,,,,,,,,,,,,,,,,,,81,155983,19,Female,1,2024/03/12_10:36:19,YZ,None,
,,,,,,calibration,0,2,2,83,15,Q,0,right,0.550687007000306,1,0,,,,,,,,,,,,,,,,,,,,,1,,,,,,,,,,,,,,,,,,,,,,,,,,,,,,,,,,,,,,,,,,,,,,81,155983,19,Female,1,2024/03/12_10:36:19,YZ,None,
,,,,,,calibration,0,2,2,83,16,V,0,right,0.5747398269995756,1,0,,,,,,,,,,,,,,,,,,,,,1,,,,,,,,,,,,,,,,,,,,,,,,,,,,,,,,,,,,,,,,,,,,,,81,155983,19,Female,1,2024/03/12_10:36:19,YZ,None,
,,,,,,calibration,0,2,2,83,17,Q,1,left,0.6088320179987932,1,0,,,,,,,,,,,,,,,,,,,,,1,,,,,,,,,,,,,,,,,,,,,,,,,,,,,,,,,,,,,,,,,,,,,,81,155983,19,Female,1,2024/03/12_10:36:19,YZ,None,
,,,,,,calibration,0,2,2,83,18,V,1,right,0.22260043999995105,0,0,,,,,,,,,,,,,,,,,,,,,1,,,,,,,,,,,,,,,,,,,,,,,,,,,,,,,,,,,,,,,,,,,,,,81,155983,19,Female,1,2024/03/12_10:36:19,YZ,None,
,,,,,,calibration,0,2,2,83,19,C,0,right,0.3761065910002799,1,0,,,,,,,,,,,,,,,,,,,,,1,,,,,,,,,,,,,,,,,,,,,,,,,,,,,,,,,,,,,,,,,,,,,,81,155983,19,Female,1,2024/03/12_10:36:19,YZ,None,
,,,,,,calibration,0,2,2,83,20,S,0,right,0.38873722500102303,1,0,,,,,,,,,,,,,,,,,,,,,1,,,,,,,,,,,,,,,,,,,,,,,,,,,,,,,,,,,,,,,,,,,,,,81,155983,19,Female,1,2024/03/12_10:36:19,YZ,None,
,,,,,,calibration,0,2,2,83,21,F,0,right,0.4479740770002536,1,0,,,,,,,,,,,,,,,,,,,,,1,,,,,,,,,,,,,,,,,,,,,,,,,,,,,,,,,,,,,,,,,,,,,,81,155983,19,Female,1,2024/03/12_10:36:19,YZ,None,
,,,,,,calibration,0,2,2,83,22,C,0,right,0.5628239580000809,1,0,,,,,,,,,,,,,,,,,,,,,1,,,,,,,,,,,,,,,,,,,,,,,,,,,,,,,,,,,,,,,,,,,,,,81,155983,19,Female,1,2024/03/12_10:36:19,YZ,None,
,,,,,,calibration,0,2,2,83,23,Q,0,right,0.43399461099943437,1,0,,,,,,,,,,,,,,,,,,,,,1,,,,,,,,,,,,,,,,,,,,,,,,,,,,,,,,,,,,,,,,,,,,,,81,155983,19,Female,1,2024/03/12_10:36:19,YZ,None,
,,,,,,calibration,0,2,2,83,24,C,1,right,0.3686732009991829,0,0,,,,,,,,,,,,,,,,,,,,,1,,,,,,,,,,,,,,,,,,,,,,,,,,,,,,,,,,,,,,,,,,,,,,81,155983,19,Female,1,2024/03/12_10:36:19,YZ,None,
,,,,,,calibration,0,2,2,83,,,,,,,,0.8671875,0.625,0.0625,0.9375,0.0,0.9375,0.4379587877915583,5,1,0,0,0,15,20,8,16,0,,,,1,,,,,,,,,,,,,,,,,,,,,,,,,,,,,,,,,,,,,,,,,,,,,,81,155983,19,Female,1,2024/03/12_10:36:19,YZ,None,
,,,,,,Calibration,0,,2,83,,,,,,,,,,,,,,,,,,,,,,,,,13,,,1,,,,,,,,,,,,,,,,,,,,,,,,,,,,,,,,,,,,,,,,,,,,,,81,155983,19,Female,1,2024/03/12_10:36:19,YZ,None,
,,,,,,calibration,0,36,2,50,1,C,0,right,0.24140740199982247,1,0,,,,,,,,,,,,,,,,,,,,,1,,,,,,,,,,,,,,,,,,,,,,,,,,,,,,,,,,,,,,,,,,,,,,81,155983,19,Female,1,2024/03/12_10:36:19,YZ,None,
,,,,,,calibration,0,36,2,50,2,X,0,right,0.2964969309996377,1,0,,,,,,,,,,,,,,,,,,,,,1,,,,,,,,,,,,,,,,,,,,,,,,,,,,,,,,,,,,,,,,,,,,,,81,155983,19,Female,1,2024/03/12_10:36:19,YZ,None,
,,,,,,calibration,0,36,2,50,3,Q,0,right,0.3086946329985949,1,0,,,,,,,,,,,,,,,,,,,,,1,,,,,,,,,,,,,,,,,,,,,,,,,,,,,,,,,,,,,,,,,,,,,,81,155983,19,Female,1,2024/03/12_10:36:19,YZ,None,
,,,,,,calibration,0,36,2,50,4,X,1,left,0.46069362399975944,1,0,,,,,,,,,,,,,,,,,,,,,1,,,,,,,,,,,,,,,,,,,,,,,,,,,,,,,,,,,,,,,,,,,,,,81,155983,19,Female,1,2024/03/12_10:36:19,YZ,None,
,,,,,,calibration,0,36,2,50,5,V,0,right,0.4124775079999381,1,0,,,,,,,,,,,,,,,,,,,,,1,,,,,,,,,,,,,,,,,,,,,,,,,,,,,,,,,,,,,,,,,,,,,,81,155983,19,Female,1,2024/03/12_10:36:19,YZ,None,
,,,,,,calibration,0,36,2,50,6,J,0,right,0.4043212590004259,1,0,,,,,,,,,,,,,,,,,,,,,1,,,,,,,,,,,,,,,,,,,,,,,,,,,,,,,,,,,,,,,,,,,,,,81,155983,19,Female,1,2024/03/12_10:36:19,YZ,None,
,,,,,,calibration,0,36,2,50,7,F,0,right,0.47301785699892207,1,0,,,,,,,,,,,,,,,,,,,,,1,,,,,,,,,,,,,,,,,,,,,,,,,,,,,,,,,,,,,,,,,,,,,,81,155983,19,Female,1,2024/03/12_10:36:19,YZ,None,
,,,,,,calibration,0,36,2,50,8,J,1,right,0.46548849400096515,0,0,,,,,,,,,,,,,,,,,,,,,1,,,,,,,,,,,,,,,,,,,,,,,,,,,,,,,,,,,,,,,,,,,,,,81,155983,19,Female,1,2024/03/12_10:36:19,YZ,None,
,,,,,,calibration,0,36,2,50,9,C,0,right,0.34118428000147105,1,0,,,,,,,,,,,,,,,,,,,,,1,,,,,,,,,,,,,,,,,,,,,,,,,,,,,,,,,,,,,,,,,,,,,,81,155983,19,Female,1,2024/03/12_10:36:19,YZ,None,
,,,,,,calibration,0,36,2,50,10,S,0,right,0.45319034100066347,1,0,,,,,,,,,,,,,,,,,,,,,1,,,,,,,,,,,,,,,,,,,,,,,,,,,,,,,,,,,,,,,,,,,,,,81,155983,19,Female,1,2024/03/12_10:36:19,YZ,None,
,,,,,,calibration,0,36,2,50,11,C,1,left,0.464364805000514,1,0,,,,,,,,,,,,,,,,,,,,,1,,,,,,,,,,,,,,,,,,,,,,,,,,,,,,,,,,,,,,,,,,,,,,81,155983,19,Female,1,2024/03/12_10:36:19,YZ,None,
,,,,,,calibration,0,36,2,50,12,F,0,right,0.4450072170002386,1,0,,,,,,,,,,,,,,,,,,,,,1,,,,,,,,,,,,,,,,,,,,,,,,,,,,,,,,,,,,,,,,,,,,,,81,155983,19,Female,1,2024/03/12_10:36:19,YZ,None,
,,,,,,calibration,0,36,2,50,13,X,0,right,0.45300569999926665,1,0,,,,,,,,,,,,,,,,,,,,,1,,,,,,,,,,,,,,,,,,,,,,,,,,,,,,,,,,,,,,,,,,,,,,81,155983,19,Female,1,2024/03/12_10:36:19,YZ,None,
,,,,,,calibration,0,36,2,50,14,F,1,left,0.45546417299919995,1,0,,,,,,,,,,,,,,,,,,,,,1,,,,,,,,,,,,,,,,,,,,,,,,,,,,,,,,,,,,,,,,,,,,,,81,155983,19,Female,1,2024/03/12_10:36:19,YZ,None,
,,,,,,calibration,0,36,2,50,15,V,0,right,0.39326028600044083,1,0,,,,,,,,,,,,,,,,,,,,,1,,,,,,,,,,,,,,,,,,,,,,,,,,,,,,,,,,,,,,,,,,,,,,81,155983,19,Female,1,2024/03/12_10:36:19,YZ,None,
,,,,,,calibration,0,36,2,50,16,N,0,right,0.7762600169990037,1,0,,,,,,,,,,,,,,,,,,,,,1,,,,,,,,,,,,,,,,,,,,,,,,,,,,,,,,,,,,,,,,,,,,,,81,155983,19,Female,1,2024/03/12_10:36:19,YZ,None,
,,,,,,calibration,0,36,2,50,17,F,0,right,0.4790876629995182,1,0,,,,,,,,,,,,,,,,,,,,,1,,,,,,,,,,,,,,,,,,,,,,,,,,,,,,,,,,,,,,,,,,,,,,81,155983,19,Female,1,2024/03/12_10:36:19,YZ,None,
,,,,,,calibration,0,36,2,50,18,S,0,right,0.5117202040000848,1,0,,,,,,,,,,,,,,,,,,,,,1,,,,,,,,,,,,,,,,,,,,,,,,,,,,,,,,,,,,,,,,,,,,,,81,155983,19,Female,1,2024/03/12_10:36:19,YZ,None,
,,,,,,calibration,0,36,2,50,19,F,1,left,0.5257734040005744,1,0,,,,,,,,,,,,,,,,,,,,,1,,,,,,,,,,,,,,,,,,,,,,,,,,,,,,,,,,,,,,,,,,,,,,81,155983,19,Female,1,2024/03/12_10:36:19,YZ,None,
,,,,,,calibration,0,36,2,50,20,S,1,right,0.2538979039982223,0,0,,,,,,,,,,,,,,,,,,,,,1,,,,,,,,,,,,,,,,,,,,,,,,,,,,,,,,,,,,,,,,,,,,,,81,155983,19,Female,1,2024/03/12_10:36:19,YZ,None,
,,,,,,calibration,0,36,2,50,21,N,0,right,0.7033945950006455,1,0,,,,,,,,,,,,,,,,,,,,,1,,,,,,,,,,,,,,,,,,,,,,,,,,,,,,,,,,,,,,,,,,,,,,81,155983,19,Female,1,2024/03/12_10:36:19,YZ,None,
,,,,,,calibration,0,36,2,50,22,V,0,right,0.3224377349997667,1,0,,,,,,,,,,,,,,,,,,,,,1,,,,,,,,,,,,,,,,,,,,,,,,,,,,,,,,,,,,,,,,,,,,,,81,155983,19,Female,1,2024/03/12_10:36:19,YZ,None,
,,,,,,calibration,0,36,2,50,23,J,0,right,0.43341789499936567,1,0,,,,,,,,,,,,,,,,,,,,,1,,,,,,,,,,,,,,,,,,,,,,,,,,,,,,,,,,,,,,,,,,,,,,81,155983,19,Female,1,2024/03/12_10:36:19,YZ,None,
,,,,,,calibration,0,36,2,50,24,V,1,right,0.5685861379988637,0,0,,,,,,,,,,,,,,,,,,,,,1,,,,,,,,,,,,,,,,,,,,,,,,,,,,,,,,,,,,,,,,,,,,,,81,155983,19,Female,1,2024/03/12_10:36:19,YZ,None,
,,,,,,calibration,0,36,2,50,25,Q,0,right,0.42023614599929715,1,0,,,,,,,,,,,,,,,,,,,,,1,,,,,,,,,,,,,,,,,,,,,,,,,,,,,,,,,,,,,,,,,,,,,,81,155983,19,Female,1,2024/03/12_10:36:19,YZ,None,
,,,,,,calibration,0,36,2,50,,,,,,,,0.8928571428571428,0.5714285714285714,0.0,1.0,0.0,1.0,0.4425154484398081,4,0,0,0,0,18,22,7,18,0,,,,1,,,,,,,,,,,,,,,,,,,,,,,,,,,,,,,,,,,,,,,,,,,,,,81,155983,19,Female,1,2024/03/12_10:36:19,YZ,None,
,,,,,,Calibration,0,,2,50,,,,,,,,,,,,,,,,,,,,,,,,,14,,,1,,,,,,,,,,,,,,,,,,,,,,,,,,,,,,,,,,,,,,,,,,,,,,81,155983,19,Female,1,2024/03/12_10:36:19,YZ,None,
,,,,,,calibration,0,15,2,19,1,F,0,right,0.32025850399986666,1,0,,,,,,,,,,,,,,,,,,,,,1,,,,,,,,,,,,,,,,,,,,,,,,,,,,,,,,,,,,,,,,,,,,,,81,155983,19,Female,1,2024/03/12_10:36:19,YZ,None,
,,,,,,calibration,0,15,2,19,2,S,0,right,0.3681009689989878,1,0,,,,,,,,,,,,,,,,,,,,,1,,,,,,,,,,,,,,,,,,,,,,,,,,,,,,,,,,,,,,,,,,,,,,81,155983,19,Female,1,2024/03/12_10:36:19,YZ,None,
,,,,,,calibration,0,15,2,19,3,F,1,left,0.38123823100067966,1,0,,,,,,,,,,,,,,,,,,,,,1,,,,,,,,,,,,,,,,,,,,,,,,,,,,,,,,,,,,,,,,,,,,,,81,155983,19,Female,1,2024/03/12_10:36:19,YZ,None,
,,,,,,calibration,0,15,2,19,4,C,0,right,0.3932382790007978,1,0,,,,,,,,,,,,,,,,,,,,,1,,,,,,,,,,,,,,,,,,,,,,,,,,,,,,,,,,,,,,,,,,,,,,81,155983,19,Female,1,2024/03/12_10:36:19,YZ,None,
,,,,,,calibration,0,15,2,19,5,F,1,left,0.5607456349989661,1,0,,,,,,,,,,,,,,,,,,,,,1,,,,,,,,,,,,,,,,,,,,,,,,,,,,,,,,,,,,,,,,,,,,,,81,155983,19,Female,1,2024/03/12_10:36:19,YZ,None,
,,,,,,calibration,0,15,2,19,6,C,1,left,0.37512303199946473,1,0,,,,,,,,,,,,,,,,,,,,,1,,,,,,,,,,,,,,,,,,,,,,,,,,,,,,,,,,,,,,,,,,,,,,81,155983,19,Female,1,2024/03/12_10:36:19,YZ,None,
,,,,,,calibration,0,15,2,19,7,N,0,right,0.3721454520000407,1,0,,,,,,,,,,,,,,,,,,,,,1,,,,,,,,,,,,,,,,,,,,,,,,,,,,,,,,,,,,,,,,,,,,,,81,155983,19,Female,1,2024/03/12_10:36:19,YZ,None,
,,,,,,calibration,0,15,2,19,8,C,1,left,0.4401271149999957,1,0,,,,,,,,,,,,,,,,,,,,,1,,,,,,,,,,,,,,,,,,,,,,,,,,,,,,,,,,,,,,,,,,,,,,81,155983,19,Female,1,2024/03/12_10:36:19,YZ,None,
,,,,,,calibration,0,15,2,19,9,N,1,left,0.43384672600041085,1,0,,,,,,,,,,,,,,,,,,,,,1,,,,,,,,,,,,,,,,,,,,,,,,,,,,,,,,,,,,,,,,,,,,,,81,155983,19,Female,1,2024/03/12_10:36:19,YZ,None,
,,,,,,calibration,0,15,2,19,10,Q,0,right,0.37780390799889574,1,0,,,,,,,,,,,,,,,,,,,,,1,,,,,,,,,,,,,,,,,,,,,,,,,,,,,,,,,,,,,,,,,,,,,,81,155983,19,Female,1,2024/03/12_10:36:19,YZ,None,
,,,,,,calibration,0,15,2,19,11,X,0,right,0.5120643809987087,1,0,,,,,,,,,,,,,,,,,,,,,1,,,,,,,,,,,,,,,,,,,,,,,,,,,,,,,,,,,,,,,,,,,,,,81,155983,19,Female,1,2024/03/12_10:36:19,YZ,None,
,,,,,,calibration,0,15,2,19,12,V,0,right,0.39512480799930927,1,0,,,,,,,,,,,,,,,,,,,,,1,,,,,,,,,,,,,,,,,,,,,,,,,,,,,,,,,,,,,,,,,,,,,,81,155983,19,Female,1,2024/03/12_10:36:19,YZ,None,
,,,,,,calibration,0,15,2,19,13,S,0,right,0.4128590340005758,1,0,,,,,,,,,,,,,,,,,,,,,1,,,,,,,,,,,,,,,,,,,,,,,,,,,,,,,,,,,,,,,,,,,,,,81,155983,19,Female,1,2024/03/12_10:36:19,YZ,None,
,,,,,,calibration,0,15,2,19,14,J,0,right,0.4367831439994916,1,0,,,,,,,,,,,,,,,,,,,,,1,,,,,,,,,,,,,,,,,,,,,,,,,,,,,,,,,,,,,,,,,,,,,,81,155983,19,Female,1,2024/03/12_10:36:19,YZ,None,
,,,,,,calibration,0,15,2,19,15,V,0,right,0.6335332999988168,1,0,,,,,,,,,,,,,,,,,,,,,1,,,,,,,,,,,,,,,,,,,,,,,,,,,,,,,,,,,,,,,,,,,,,,81,155983,19,Female,1,2024/03/12_10:36:19,YZ,None,
,,,,,,calibration,0,15,2,19,16,F,0,right,0.3997129359995597,1,0,,,,,,,,,,,,,,,,,,,,,1,,,,,,,,,,,,,,,,,,,,,,,,,,,,,,,,,,,,,,,,,,,,,,81,155983,19,Female,1,2024/03/12_10:36:19,YZ,None,
,,,,,,calibration,0,15,2,19,17,J,0,right,0.4971550809987093,1,0,,,,,,,,,,,,,,,,,,,,,1,,,,,,,,,,,,,,,,,,,,,,,,,,,,,,,,,,,,,,,,,,,,,,81,155983,19,Female,1,2024/03/12_10:36:19,YZ,None,
,,,,,,calibration,0,15,2,19,18,F,1,right,0.5122104729998682,0,0,,,,,,,,,,,,,,,,,,,,,1,,,,,,,,,,,,,,,,,,,,,,,,,,,,,,,,,,,,,,,,,,,,,,81,155983,19,Female,1,2024/03/12_10:36:19,YZ,None,
,,,,,,calibration,0,15,2,19,19,J,1,left,0.3426102359990182,1,0,,,,,,,,,,,,,,,,,,,,,1,,,,,,,,,,,,,,,,,,,,,,,,,,,,,,,,,,,,,,,,,,,,,,81,155983,19,Female,1,2024/03/12_10:36:19,YZ,None,
,,,,,,calibration,0,15,2,19,20,Q,0,right,0.3378635770004621,1,0,,,,,,,,,,,,,,,,,,,,,1,,,,,,,,,,,,,,,,,,,,,,,,,,,,,,,,,,,,,,,,,,,,,,81,155983,19,Female,1,2024/03/12_10:36:19,YZ,None,
,,,,,,calibration,0,15,2,19,21,V,0,right,0.3924521270000696,1,0,,,,,,,,,,,,,,,,,,,,,1,,,,,,,,,,,,,,,,,,,,,,,,,,,,,,,,,,,,,,,,,,,,,,81,155983,19,Female,1,2024/03/12_10:36:19,YZ,None,
,,,,,,calibration,0,15,2,19,22,X,0,right,0.48152602299887803,1,0,,,,,,,,,,,,,,,,,,,,,1,,,,,,,,,,,,,,,,,,,,,,,,,,,,,,,,,,,,,,,,,,,,,,81,155983,19,Female,1,2024/03/12_10:36:19,YZ,None,
,,,,,,calibration,0,15,2,19,23,F,0,right,0.4680786850003642,1,0,,,,,,,,,,,,,,,,,,,,,1,,,,,,,,,,,,,,,,,,,,,,,,,,,,,,,,,,,,,,,,,,,,,,81,155983,19,Female,1,2024/03/12_10:36:19,YZ,None,
,,,,,,calibration,0,15,2,19,24,C,0,right,0.5763517049999791,1,0,,,,,,,,,,,,,,,,,,,,,1,,,,,,,,,,,,,,,,,,,,,,,,,,,,,,,,,,,,,,,,,,,,,,81,155983,19,Female,1,2024/03/12_10:36:19,YZ,None,
,,,,,,calibration,0,15,2,19,25,N,0,right,0.3496811040004104,1,0,,,,,,,,,,,,,,,,,,,,,1,,,,,,,,,,,,,,,,,,,,,,,,,,,,,,,,,,,,,,,,,,,,,,81,155983,19,Female,1,2024/03/12_10:36:19,YZ,None,
,,,,,,calibration,0,15,2,19,26,C,1,right,0.39312254499964183,0,0,,,,,,,,,,,,,,,,,,,,,1,,,,,,,,,,,,,,,,,,,,,,,,,,,,,,,,,,,,,,,,,,,,,,81,155983,19,Female,1,2024/03/12_10:36:19,YZ,None,
,,,,,,calibration,0,15,2,19,,,,,,,,0.9375,0.75,0.0,1.0,0.0,1.0,0.4293752696150757,6,0,0,0,0,18,24,8,18,0,,,,1,,,,,,,,,,,,,,,,,,,,,,,,,,,,,,,,,,,,,,,,,,,,,,81,155983,19,Female,1,2024/03/12_10:36:19,YZ,None,
,,,,,,Calibration,0,,2,19,,,,,,,,,,,,,,,,,,,,,,,,,15,,,1,,,,,,,,,,,,,,,,,,,,,,,,,,,,,,,,,,,,,,,,,,,,,,81,155983,19,Female,1,2024/03/12_10:36:19,YZ,None,
,,,,,,CALIBRATION,0,,,,,,,,,,,,,,,,,,,,,,,,,,,,15,0.9375,19,1,,,,,,,,,,,,,,,,,,,,,,,,,,,,,,,,,,,,,,,,,,,,,,81,155983,19,Female,1,2024/03/12_10:36:19,YZ,None,
1,./instructions/inst_prac_1/Slide24.png,right,1.9759441759997571,464.035002173001,466.01094634900073,,,,,,,,,,,,,,,,,,,,,,,,,,,,,,,,,1,,,,,,,,,,,,,,,,,,,,,,,,,,,,,,,,,,,,,,,,,,,,,,81,155983,19,Female,1,2024/03/12_10:36:19,YZ,None,
2,./instructions/inst_prac_1/Slide25.png,right,1.7255205059991567,466.0374038860009,467.76292439200006,,,,,,,,,,,,,,,,,,,,,,,,,,,,,,,,,1,,,,,,,,,,,,,,,,,,,,,,,,,,,,,,,,,,,,,,,,,,,,,,81,155983,19,Female,1,2024/03/12_10:36:19,YZ,None,
3,./instructions/inst_prac_1/Slide26.png,right,0.7501701990004221,467.7888674750011,468.5390376740015,,,,,,,,,,,,,,,,,,,,,,,,,,,,,,,,,1,,,,,,,,,,,,,,,,,,,,,,,,,,,,,,,,,,,,,,,,,,,,,,81,155983,19,Female,1,2024/03/12_10:36:19,YZ,None,
4,./instructions/inst_prac_1/Slide27.png,right,0.6749984199996106,468.56797362200086,469.2429720420005,,,,,,,,,,,,,,,,,,,,,,,,,,,,,,,,,1,,,,,,,,,,,,,,,,,,,,,,,,,,,,,,,,,,,,,,,,,,,,,,81,155983,19,Female,1,2024/03/12_10:36:19,YZ,None,
5,./instructions/inst_prac_1/Slide28.png,right,0.8835431749994314,469.2714704940008,470.15501366900025,,,,,,,,,,,,,,,,,,,,,,,,,,,,,,,,,1,,,,,,,,,,,,,,,,,,,,,,,,,,,,,,,,,,,,,,,,,,,,,,81,155983,19,Female,1,2024/03/12_10:36:19,YZ,None,
6,./instructions/inst_prac_1/Slide29.png,right,1.0182533979987056,470.1847132810017,471.2029666790004,,,,,,,,,,,,,,,,,,,,,,,,,,,,,,,,,1,,,,,,,,,,,,,,,,,,,,,,,,,,,,,,,,,,,,,,,,,,,,,,81,155983,19,Female,1,2024/03/12_10:36:19,YZ,None,
7,./instructions/inst_prac_1/Slide30.png,right,1.994472393000251,471.2325308010004,473.22700319400064,,,,,,,,,,,,,,,,,,,,,,,,,,,,,,,,,1,,,,,,,,,,,,,,,,,,,,,,,,,,,,,,,,,,,,,,,,,,,,,,81,155983,19,Female,1,2024/03/12_10:36:19,YZ,None,
,,,,,,practice,0,10,1,1250,1,C,0,right,0.6859926949982764,1,0,,,,,,,,,,,,,,,,,,,,,1,,,,,,,,,,,,,,,,,,,,,,,,,,,,,,,,,,,,,,,,,,,,,,81,155983,19,Female,1,2024/03/12_10:36:19,YZ,None,
,,,,,,practice,0,10,1,1250,2,N,0,right,0.6815908759999729,1,0,,,,,,,,,,,,,,,,,,,,,1,,,,,,,,,,,,,,,,,,,,,,,,,,,,,,,,,,,,,,,,,,,,,,81,155983,19,Female,1,2024/03/12_10:36:19,YZ,None,
,,,,,,practice,0,10,1,1250,3,N,1,left,0.6505536799995753,1,0,,,,,,,,,,,,,,,,,,,,,1,,,,,,,,,,,,,,,,,,,,,,,,,,,,,,,,,,,,,,,,,,,,,,81,155983,19,Female,1,2024/03/12_10:36:19,YZ,None,
,,,,,,practice,0,10,1,1250,4,S,0,right,0.5255220729995926,1,0,,,,,,,,,,,,,,,,,,,,,1,,,,,,,,,,,,,,,,,,,,,,,,,,,,,,,,,,,,,,,,,,,,,,81,155983,19,Female,1,2024/03/12_10:36:19,YZ,None,
,,,,,,practice,0,10,1,1250,5,F,0,right,0.5304115859999001,1,0,,,,,,,,,,,,,,,,,,,,,1,,,,,,,,,,,,,,,,,,,,,,,,,,,,,,,,,,,,,,,,,,,,,,81,155983,19,Female,1,2024/03/12_10:36:19,YZ,None,
,,,,,,practice,0,10,1,1250,6,F,1,left,0.6518960550001793,1,0,,,,,,,,,,,,,,,,,,,,,1,,,,,,,,,,,,,,,,,,,,,,,,,,,,,,,,,,,,,,,,,,,,,,81,155983,19,Female,1,2024/03/12_10:36:19,YZ,None,
,,,,,,practice,0,10,1,1250,7,J,0,right,0.575289354999768,1,0,,,,,,,,,,,,,,,,,,,,,1,,,,,,,,,,,,,,,,,,,,,,,,,,,,,,,,,,,,,,,,,,,,,,81,155983,19,Female,1,2024/03/12_10:36:19,YZ,None,
,,,,,,practice,0,10,1,1250,8,J,1,left,0.5887302880000789,1,0,,,,,,,,,,,,,,,,,,,,,1,,,,,,,,,,,,,,,,,,,,,,,,,,,,,,,,,,,,,,,,,,,,,,81,155983,19,Female,1,2024/03/12_10:36:19,YZ,None,
,,,,,,practice,0,10,1,1250,9,V,0,right,0.542422735999935,1,0,,,,,,,,,,,,,,,,,,,,,1,,,,,,,,,,,,,,,,,,,,,,,,,,,,,,,,,,,,,,,,,,,,,,81,155983,19,Female,1,2024/03/12_10:36:19,YZ,None,
,,,,,,practice,0,10,1,1250,10,N,0,right,0.4497783899987553,1,0,,,,,,,,,,,,,,,,,,,,,1,,,,,,,,,,,,,,,,,,,,,,,,,,,,,,,,,,,,,,,,,,,,,,81,155983,19,Female,1,2024/03/12_10:36:19,YZ,None,
,,,,,,practice,0,10,1,1250,,,,,,,,1.0,1.0,0.0,1.0,0.0,1.0,0.5882187733996034,3,0,0,0,0,7,10,3,7,0,,,,1,,,,,,,,,,,,,,,,,,,,,,,,,,,,,,,,,,,,,,,,,,,,,,81,155983,19,Female,1,2024/03/12_10:36:19,YZ,None,
1,./instructions/inst_prac_1_next/Slide35.png,right,1.0476158949986711,489.60351553000146,490.65113142500013,,,,,,,,,,,,,,,,,,,,,,,,,,,,,,,,,1,,,,,,,,,,,,,,,,,,,,,,,,,,,,,,,,,,,,,,,,,,,,,,81,155983,19,Female,1,2024/03/12_10:36:19,YZ,None,
,,,,,,practice,0,8,1,19,1,S,0,right,0.26837132400032715,1,0,,,,,,,,,,,,,,,,,,,,,1,,,,,,,,,,,,,,,,,,,,,,,,,,,,,,,,,,,,,,,,,,,,,,81,155983,19,Female,1,2024/03/12_10:36:19,YZ,None,
,,,,,,practice,0,8,1,19,2,J,0,right,0.28281815700029256,1,0,,,,,,,,,,,,,,,,,,,,,1,,,,,,,,,,,,,,,,,,,,,,,,,,,,,,,,,,,,,,,,,,,,,,81,155983,19,Female,1,2024/03/12_10:36:19,YZ,None,
,,,,,,practice,0,8,1,19,3,J,1,left,0.37917454700072994,1,0,,,,,,,,,,,,,,,,,,,,,1,,,,,,,,,,,,,,,,,,,,,,,,,,,,,,,,,,,,,,,,,,,,,,81,155983,19,Female,1,2024/03/12_10:36:19,YZ,None,
,,,,,,practice,0,8,1,19,4,F,0,right,0.35286233500119124,1,0,,,,,,,,,,,,,,,,,,,,,1,,,,,,,,,,,,,,,,,,,,,,,,,,,,,,,,,,,,,,,,,,,,,,81,155983,19,Female,1,2024/03/12_10:36:19,YZ,None,
,,,,,,practice,0,8,1,19,5,J,0,right,0.4331760100012616,1,0,,,,,,,,,,,,,,,,,,,,,1,,,,,,,,,,,,,,,,,,,,,,,,,,,,,,,,,,,,,,,,,,,,,,81,155983,19,Female,1,2024/03/12_10:36:19,YZ,None,
,,,,,,practice,0,8,1,19,6,J,1,left,0.4342412460009655,1,0,,,,,,,,,,,,,,,,,,,,,1,,,,,,,,,,,,,,,,,,,,,,,,,,,,,,,,,,,,,,,,,,,,,,81,155983,19,Female,1,2024/03/12_10:36:19,YZ,None,
,,,,,,practice,0,8,1,19,7,C,0,right,0.2647344150009303,1,0,,,,,,,,,,,,,,,,,,,,,1,,,,,,,,,,,,,,,,,,,,,,,,,,,,,,,,,,,,,,,,,,,,,,81,155983,19,Female,1,2024/03/12_10:36:19,YZ,None,
,,,,,,practice,0,8,1,19,8,C,1,left,0.4278005470005155,1,0,,,,,,,,,,,,,,,,,,,,,1,,,,,,,,,,,,,,,,,,,,,,,,,,,,,,,,,,,,,,,,,,,,,,81,155983,19,Female,1,2024/03/12_10:36:19,YZ,None,
,,,,,,practice,0,8,1,19,9,X,0,right,0.31674826000016765,1,0,,,,,,,,,,,,,,,,,,,,,1,,,,,,,,,,,,,,,,,,,,,,,,,,,,,,,,,,,,,,,,,,,,,,81,155983,19,Female,1,2024/03/12_10:36:19,YZ,None,
,,,,,,practice,0,8,1,19,10,V,0,right,0.3126770340004441,1,0,,,,,,,,,,,,,,,,,,,,,1,,,,,,,,,,,,,,,,,,,,,,,,,,,,,,,,,,,,,,,,,,,,,,81,155983,19,Female,1,2024/03/12_10:36:19,YZ,None,
,,,,,,practice,0,8,1,19,11,N,0,right,0.37747929699980887,1,0,,,,,,,,,,,,,,,,,,,,,1,,,,,,,,,,,,,,,,,,,,,,,,,,,,,,,,,,,,,,,,,,,,,,81,155983,19,Female,1,2024/03/12_10:36:19,YZ,None,
,,,,,,practice,0,8,1,19,12,C,0,right,0.4927055210009712,1,0,,,,,,,,,,,,,,,,,,,,,1,,,,,,,,,,,,,,,,,,,,,,,,,,,,,,,,,,,,,,,,,,,,,,81,155983,19,Female,1,2024/03/12_10:36:19,YZ,None,
,,,,,,practice,0,8,1,19,13,C,1,left,0.43403020199912135,1,0,,,,,,,,,,,,,,,,,,,,,1,,,,,,,,,,,,,,,,,,,,,,,,,,,,,,,,,,,,,,,,,,,,,,81,155983,19,Female,1,2024/03/12_10:36:19,YZ,None,
,,,,,,practice,0,8,1,19,14,Q,0,right,0.2962322300008964,1,0,,,,,,,,,,,,,,,,,,,,,1,,,,,,,,,,,,,,,,,,,,,,,,,,,,,,,,,,,,,,,,,,,,,,81,155983,19,Female,1,2024/03/12_10:36:19,YZ,None,
,,,,,,practice,0,8,1,19,15,F,0,right,0.33749134599929675,1,0,,,,,,,,,,,,,,,,,,,,,1,,,,,,,,,,,,,,,,,,,,,,,,,,,,,,,,,,,,,,,,,,,,,,81,155983,19,Female,1,2024/03/12_10:36:19,YZ,None,
,,,,,,practice,0,8,1,19,16,J,0,right,0.35169361699990986,1,0,,,,,,,,,,,,,,,,,,,,,1,,,,,,,,,,,,,,,,,,,,,,,,,,,,,,,,,,,,,,,,,,,,,,81,155983,19,Female,1,2024/03/12_10:36:19,YZ,None,
,,,,,,practice,0,8,1,19,17,J,1,left,0.4483462079988385,1,0,,,,,,,,,,,,,,,,,,,,,1,,,,,,,,,,,,,,,,,,,,,,,,,,,,,,,,,,,,,,,,,,,,,,81,155983,19,Female,1,2024/03/12_10:36:19,YZ,None,
,,,,,,practice,0,8,1,19,18,N,0,right,0.2582592520011531,1,0,,,,,,,,,,,,,,,,,,,,,1,,,,,,,,,,,,,,,,,,,,,,,,,,,,,,,,,,,,,,,,,,,,,,81,155983,19,Female,1,2024/03/12_10:36:19,YZ,None,
,,,,,,practice,0,8,1,19,19,N,1,left,0.5571787620010582,1,0,,,,,,,,,,,,,,,,,,,,,1,,,,,,,,,,,,,,,,,,,,,,,,,,,,,,,,,,,,,,,,,,,,,,81,155983,19,Female,1,2024/03/12_10:36:19,YZ,None,
,,,,,,practice,0,8,1,19,20,Q,0,right,0.28440677900107403,1,0,,,,,,,,,,,,,,,,,,,,,1,,,,,,,,,,,,,,,,,,,,,,,,,,,,,,,,,,,,,,,,,,,,,,81,155983,19,Female,1,2024/03/12_10:36:19,YZ,None,
,,,,,,practice,0,8,1,19,21,X,0,right,0.4448656620006659,1,0,,,,,,,,,,,,,,,,,,,,,1,,,,,,,,,,,,,,,,,,,,,,,,,,,,,,,,,,,,,,,,,,,,,,81,155983,19,Female,1,2024/03/12_10:36:19,YZ,None,
,,,,,,practice,0,8,1,19,22,Q,0,right,0.3809810019993165,1,0,,,,,,,,,,,,,,,,,,,,,1,,,,,,,,,,,,,,,,,,,,,,,,,,,,,,,,,,,,,,,,,,,,,,81,155983,19,Female,1,2024/03/12_10:36:19,YZ,None,
,,,,,,practice,0,8,1,19,23,X,0,left,0.4340225610012567,0,0,,,,,,,,,,,,,,,,,,,,,1,,,,,,,,,,,,,,,,,,,,,,,,,,,,,,,,,,,,,,,,,,,,,,81,155983,19,Female,1,2024/03/12_10:36:19,YZ,None,
,,,,,,practice,0,8,1,19,24,X,1,left,0.4771317569993698,1,0,,,,,,,,,,,,,,,,,,,,,1,,,,,,,,,,,,,,,,,,,,,,,,,,,,,,,,,,,,,,,,,,,,,,81,155983,19,Female,1,2024/03/12_10:36:19,YZ,None,
,,,,,,practice,0,8,1,19,25,N,0,right,0.5380546639989916,1,0,,,,,,,,,,,,,,,,,,,,,1,,,,,,,,,,,,,,,,,,,,,,,,,,,,,,,,,,,,,,,,,,,,,,81,155983,19,Female,1,2024/03/12_10:36:19,YZ,None,
,,,,,,practice,0,8,1,19,26,J,0,left,0.41306747999988147,0,0,,,,,,,,,,,,,,,,,,,,,1,,,,,,,,,,,,,,,,,,,,,,,,,,,,,,,,,,,,,,,,,,,,,,81,155983,19,Female,1,2024/03/12_10:36:19,YZ,None,
,,,,,,practice,0,8,1,19,,,,,,,,0.9736842105263158,1.0,0.10526315789473684,0.8947368421052632,0.0,0.8947368421052632,0.3845596236541706,7,2,0,0,0,17,24,7,19,0,,,,1,,,,,,,,,,,,,,,,,,,,,,,,,,,,,,,,,,,,,,,,,,,,,,81,155983,19,Female,1,2024/03/12_10:36:19,YZ,None,
,,,,,,practice,0,16,1,19,1,V,0,right,0.6245780439985538,1,0,,,,,,,,,,,,,,,,,,,,,1,,,,,,,,,,,,,,,,,,,,,,,,,,,,,,,,,,,,,,,,,,,,,,81,155983,19,Female,1,2024/03/12_10:36:19,YZ,None,
,,,,,,practice,0,16,1,19,2,V,1,left,0.4768423580007948,1,0,,,,,,,,,,,,,,,,,,,,,1,,,,,,,,,,,,,,,,,,,,,,,,,,,,,,,,,,,,,,,,,,,,,,81,155983,19,Female,1,2024/03/12_10:36:19,YZ,None,
,,,,,,practice,0,16,1,19,3,Q,0,right,0.2809666740013199,1,0,,,,,,,,,,,,,,,,,,,,,1,,,,,,,,,,,,,,,,,,,,,,,,,,,,,,,,,,,,,,,,,,,,,,81,155983,19,Female,1,2024/03/12_10:36:19,YZ,None,
,,,,,,practice,0,16,1,19,4,J,0,right,0.32845431699934124,1,0,,,,,,,,,,,,,,,,,,,,,1,,,,,,,,,,,,,,,,,,,,,,,,,,,,,,,,,,,,,,,,,,,,,,81,155983,19,Female,1,2024/03/12_10:36:19,YZ,None,
,,,,,,practice,0,16,1,19,5,Q,0,right,0.4803109679996851,1,0,,,,,,,,,,,,,,,,,,,,,1,,,,,,,,,,,,,,,,,,,,,,,,,,,,,,,,,,,,,,,,,,,,,,81,155983,19,Female,1,2024/03/12_10:36:19,YZ,None,
,,,,,,practice,0,16,1,19,6,V,0,right,0.524717309001062,1,0,,,,,,,,,,,,,,,,,,,,,1,,,,,,,,,,,,,,,,,,,,,,,,,,,,,,,,,,,,,,,,,,,,,,81,155983,19,Female,1,2024/03/12_10:36:19,YZ,None,
,,,,,,practice,0,16,1,19,7,S,0,right,0.48455861799993727,1,0,,,,,,,,,,,,,,,,,,,,,1,,,,,,,,,,,,,,,,,,,,,,,,,,,,,,,,,,,,,,,,,,,,,,81,155983,19,Female,1,2024/03/12_10:36:19,YZ,None,
,,,,,,practice,0,16,1,19,8,X,0,right,0.3040331940010219,1,0,,,,,,,,,,,,,,,,,,,,,1,,,,,,,,,,,,,,,,,,,,,,,,,,,,,,,,,,,,,,,,,,,,,,81,155983,19,Female,1,2024/03/12_10:36:19,YZ,None,
,,,,,,practice,0,16,1,19,9,X,1,left,0.48113734900107374,1,0,,,,,,,,,,,,,,,,,,,,,1,,,,,,,,,,,,,,,,,,,,,,,,,,,,,,,,,,,,,,,,,,,,,,81,155983,19,Female,1,2024/03/12_10:36:19,YZ,None,
,,,,,,practice,0,16,1,19,10,V,0,right,0.45755543999985093,1,0,,,,,,,,,,,,,,,,,,,,,1,,,,,,,,,,,,,,,,,,,,,,,,,,,,,,,,,,,,,,,,,,,,,,81,155983,19,Female,1,2024/03/12_10:36:19,YZ,None,
,,,,,,practice,0,16,1,19,11,J,0,right,0.37666035999973246,1,0,,,,,,,,,,,,,,,,,,,,,1,,,,,,,,,,,,,,,,,,,,,,,,,,,,,,,,,,,,,,,,,,,,,,81,155983,19,Female,1,2024/03/12_10:36:19,YZ,None,
,,,,,,practice,0,16,1,19,12,J,1,left,0.38823730399963097,1,0,,,,,,,,,,,,,,,,,,,,,1,,,,,,,,,,,,,,,,,,,,,,,,,,,,,,,,,,,,,,,,,,,,,,81,155983,19,Female,1,2024/03/12_10:36:19,YZ,None,
,,,,,,practice,0,16,1,19,13,F,0,right,0.24792433499897015,1,0,,,,,,,,,,,,,,,,,,,,,1,,,,,,,,,,,,,,,,,,,,,,,,,,,,,,,,,,,,,,,,,,,,,,81,155983,19,Female,1,2024/03/12_10:36:19,YZ,None,
,,,,,,practice,0,16,1,19,14,J,0,right,0.34843315800026176,1,0,,,,,,,,,,,,,,,,,,,,,1,,,,,,,,,,,,,,,,,,,,,,,,,,,,,,,,,,,,,,,,,,,,,,81,155983,19,Female,1,2024/03/12_10:36:19,YZ,None,
,,,,,,practice,0,16,1,19,15,J,1,left,0.48973411100087105,1,0,,,,,,,,,,,,,,,,,,,,,1,,,,,,,,,,,,,,,,,,,,,,,,,,,,,,,,,,,,,,,,,,,,,,81,155983,19,Female,1,2024/03/12_10:36:19,YZ,None,
,,,,,,practice,0,16,1,19,16,F,0,right,0.27297117699890805,1,0,,,,,,,,,,,,,,,,,,,,,1,,,,,,,,,,,,,,,,,,,,,,,,,,,,,,,,,,,,,,,,,,,,,,81,155983,19,Female,1,2024/03/12_10:36:19,YZ,None,
,,,,,,practice,0,16,1,19,17,V,0,right,0.37029027299831796,1,0,,,,,,,,,,,,,,,,,,,,,1,,,,,,,,,,,,,,,,,,,,,,,,,,,,,,,,,,,,,,,,,,,,,,81,155983,19,Female,1,2024/03/12_10:36:19,YZ,None,
,,,,,,practice,0,16,1,19,18,V,1,left,0.4690605329997197,1,0,,,,,,,,,,,,,,,,,,,,,1,,,,,,,,,,,,,,,,,,,,,,,,,,,,,,,,,,,,,,,,,,,,,,81,155983,19,Female,1,2024/03/12_10:36:19,YZ,None,
,,,,,,practice,0,16,1,19,19,J,0,right,0.2803117769999517,1,0,,,,,,,,,,,,,,,,,,,,,1,,,,,,,,,,,,,,,,,,,,,,,,,,,,,,,,,,,,,,,,,,,,,,81,155983,19,Female,1,2024/03/12_10:36:19,YZ,None,
,,,,,,practice,0,16,1,19,20,S,0,right,0.3481416940012423,1,0,,,,,,,,,,,,,,,,,,,,,1,,,,,,,,,,,,,,,,,,,,,,,,,,,,,,,,,,,,,,,,,,,,,,81,155983,19,Female,1,2024/03/12_10:36:19,YZ,None,
,,,,,,practice,0,16,1,19,21,Q,0,right,0.38692097300008754,1,0,,,,,,,,,,,,,,,,,,,,,1,,,,,,,,,,,,,,,,,,,,,,,,,,,,,,,,,,,,,,,,,,,,,,81,155983,19,Female,1,2024/03/12_10:36:19,YZ,None,
,,,,,,practice,0,16,1,19,22,X,0,right,0.4422415280005225,1,0,,,,,,,,,,,,,,,,,,,,,1,,,,,,,,,,,,,,,,,,,,,,,,,,,,,,,,,,,,,,,,,,,,,,81,155983,19,Female,1,2024/03/12_10:36:19,YZ,None,
,,,,,,practice,0,16,1,19,23,X,1,left,0.5889561320000212,1,0,,,,,,,,,,,,,,,,,,,,,1,,,,,,,,,,,,,,,,,,,,,,,,,,,,,,,,,,,,,,,,,,,,,,81,155983,19,Female,1,2024/03/12_10:36:19,YZ,None,
,,,,,,practice,0,16,1,19,24,N,0,right,0.34084064200033026,1,0,,,,,,,,,,,,,,,,,,,,,1,,,,,,,,,,,,,,,,,,,,,,,,,,,,,,,,,,,,,,,,,,,,,,81,155983,19,Female,1,2024/03/12_10:36:19,YZ,None,
,,,,,,practice,0,16,1,19,25,S,0,right,0.34451486799844133,1,0,,,,,,,,,,,,,,,,,,,,,1,,,,,,,,,,,,,,,,,,,,,,,,,,,,,,,,,,,,,,,,,,,,,,81,155983,19,Female,1,2024/03/12_10:36:19,YZ,None,
,,,,,,practice,0,16,1,19,26,S,1,left,0.3602160840000579,1,0,,,,,,,,,,,,,,,,,,,,,1,,,,,,,,,,,,,,,,,,,,,,,,,,,,,,,,,,,,,,,,,,,,,,81,155983,19,Female,1,2024/03/12_10:36:19,YZ,None,
,,,,,,practice,0,16,1,19,,,,,,,,1.0,1.0,0.0,1.0,0.0,1.0,0.40379266230768107,7,0,0,0,0,19,26,7,19,0,,,,1,,,,,,,,,,,,,,,,,,,,,,,,,,,,,,,,,,,,,,,,,,,,,,81,155983,19,Female,1,2024/03/12_10:36:19,YZ,None,
1,./instructions/inst_prac_3/Slide37.png,right,2.668636278998747,542.5584868960013,545.2271231750001,,,,,,,,,,,,,,,,,,,,,,,,,,,,,,,,,1,,,,,,,,,,,,,,,,,,,,,,,,,,,,,,,,,,,,,,,,,,,,,,81,155983,19,Female,1,2024/03/12_10:36:19,YZ,None,
2,./instructions/inst_prac_3/Slide38.png,right,1.4022496239995235,545.2568121020013,546.6590617260008,,,,,,,,,,,,,,,,,,,,,,,,,,,,,,,,,1,,,,,,,,,,,,,,,,,,,,,,,,,,,,,,,,,,,,,,,,,,,,,,81,155983,19,Female,1,2024/03/12_10:36:19,YZ,None,
3,./instructions/inst_prac_3/Slide39.png,right,0.9625488890014822,546.6883525140001,547.6509014030016,,,,,,,,,,,,,,,,,,,,,,,,,,,,,,,,,1,,,,,,,,,,,,,,,,,,,,,,,,,,,,,,,,,,,,,,,,,,,,,,81,155983,19,Female,1,2024/03/12_10:36:19,YZ,None,
4,./instructions/inst_prac_3/Slide40.png,right,0.9556417560015689,547.679383998,548.6350257540016,,,,,,,,,,,,,,,,,,,,,,,,,,,,,,,,,1,,,,,,,,,,,,,,,,,,,,,,,,,,,,,,,,,,,,,,,,,,,,,,81,155983,19,Female,1,2024/03/12_10:36:19,YZ,None,
5,./instructions/inst_prac_3/Slide41.png,right,1.4557247800003097,548.6592282310012,550.1149530110015,,,,,,,,,,,,,,,,,,,,,,,,,,,,,,,,,1,,,,,,,,,,,,,,,,,,,,,,,,,,,,,,,,,,,,,,,,,,,,,,81,155983,19,Female,1,2024/03/12_10:36:19,YZ,None,
6,./instructions/inst_prac_3/Slide42.png,right,0.20038838800064696,550.1442454730004,550.3446338610011,,,,,,,,,,,,,,,,,,,,,,,,,,,,,,,,,1,,,,,,,,,,,,,,,,,,,,,,,,,,,,,,,,,,,,,,,,,,,,,,81,155983,19,Female,1,2024/03/12_10:36:19,YZ,None,
7,./instructions/inst_prac_3/Slide43.png,right,1.9626010249994579,550.3684148090015,552.3310158340009,,,,,,,,,,,,,,,,,,,,,,,,,,,,,,,,,1,,,,,,,,,,,,,,,,,,,,,,,,,,,,,,,,,,,,,,,,,,,,,,81,155983,19,Female,1,2024/03/12_10:36:19,YZ,None,
8,./instructions/inst_prac_3/Slide44.png,right,1.3384374659999594,552.3605338710004,553.6989713370003,,,,,,,,,,,,,,,,,,,,,,,,,,,,,,,,,1,,,,,,,,,,,,,,,,,,,,,,,,,,,,,,,,,,,,,,,,,,,,,,81,155983,19,Female,1,2024/03/12_10:36:19,YZ,None,
,,,,,,practice,0,26,3,788,1,Q,0,right,0.5793836720004037,1,0,,,,,,,,,,,,,,,,,,,,,1,,,,,,,,,,,,,,,,,,,,,,,,,,,,,,,,,,,,,,,,,,,,,,81,155983,19,Female,1,2024/03/12_10:36:19,YZ,None,
,,,,,,practice,0,26,3,788,2,N,0,right,0.5083106030015188,1,0,,,,,,,,,,,,,,,,,,,,,1,,,,,,,,,,,,,,,,,,,,,,,,,,,,,,,,,,,,,,,,,,,,,,81,155983,19,Female,1,2024/03/12_10:36:19,YZ,None,
,,,,,,practice,0,26,3,788,3,Q,0,right,0.65776968299906,1,0,,,,,,,,,,,,,,,,,,,,,1,,,,,,,,,,,,,,,,,,,,,,,,,,,,,,,,,,,,,,,,,,,,,,81,155983,19,Female,1,2024/03/12_10:36:19,YZ,None,
,,,,,,practice,0,26,3,788,4,Q,1,left,0.5401921519987809,1,0,,,,,,,,,,,,,,,,,,,,,1,,,,,,,,,,,,,,,,,,,,,,,,,,,,,,,,,,,,,,,,,,,,,,81,155983,19,Female,1,2024/03/12_10:36:19,YZ,None,
,,,,,,practice,0,26,3,788,5,V,0,right,1.0629750810003316,1,0,,,,,,,,,,,,,,,,,,,,,1,,,,,,,,,,,,,,,,,,,,,,,,,,,,,,,,,,,,,,,,,,,,,,81,155983,19,Female,1,2024/03/12_10:36:19,YZ,None,
,,,,,,practice,0,26,3,788,6,Q,1,left,0.6537433630001033,1,0,,,,,,,,,,,,,,,,,,,,,1,,,,,,,,,,,,,,,,,,,,,,,,,,,,,,,,,,,,,,,,,,,,,,81,155983,19,Female,1,2024/03/12_10:36:19,YZ,None,
,,,,,,practice,0,26,3,788,7,Q,1,left,0.728398217999711,1,0,,,,,,,,,,,,,,,,,,,,,1,,,,,,,,,,,,,,,,,,,,,,,,,,,,,,,,,,,,,,,,,,,,,,81,155983,19,Female,1,2024/03/12_10:36:19,YZ,None,
,,,,,,practice,0,26,3,788,8,C,0,right,0.6527597730000707,1,0,,,,,,,,,,,,,,,,,,,,,1,,,,,,,,,,,,,,,,,,,,,,,,,,,,,,,,,,,,,,,,,,,,,,81,155983,19,Female,1,2024/03/12_10:36:19,YZ,None,
,,,,,,practice,0,26,3,788,9,J,0,right,0.6096937649999745,1,0,,,,,,,,,,,,,,,,,,,,,1,,,,,,,,,,,,,,,,,,,,,,,,,,,,,,,,,,,,,,,,,,,,,,81,155983,19,Female,1,2024/03/12_10:36:19,YZ,None,
,,,,,,practice,0,26,3,788,10,J,0,right,0.8987369410006067,1,0,,,,,,,,,,,,,,,,,,,,,1,,,,,,,,,,,,,,,,,,,,,,,,,,,,,,,,,,,,,,,,,,,,,,81,155983,19,Female,1,2024/03/12_10:36:19,YZ,None,
,,,,,,practice,0,26,3,788,11,V,0,right,0.5176157879996026,1,0,,,,,,,,,,,,,,,,,,,,,1,,,,,,,,,,,,,,,,,,,,,,,,,,,,,,,,,,,,,,,,,,,,,,81,155983,19,Female,1,2024/03/12_10:36:19,YZ,None,
,,,,,,practice,0,26,3,788,12,J,1,left,0.876902493999296,1,0,,,,,,,,,,,,,,,,,,,,,1,,,,,,,,,,,,,,,,,,,,,,,,,,,,,,,,,,,,,,,,,,,,,,81,155983,19,Female,1,2024/03/12_10:36:19,YZ,None,
,,,,,,practice,0,26,3,788,13,V,0,right,2.6651738319997094,1,0,,,,,,,,,,,,,,,,,,,,,1,,,,,,,,,,,,,,,,,,,,,,,,,,,,,,,,,,,,,,,,,,,,,,81,155983,19,Female,1,2024/03/12_10:36:19,YZ,None,
,,,,,,practice,0,26,3,788,,,,,,,,1.0,1.0,0.0,1.0,0.0,1.0,0.8424350280768592,4,0,0,0,0,9,13,4,9,0,,,,1,,,,,,,,,,,,,,,,,,,,,,,,,,,,,,,,,,,,,,,,,,,,,,81,155983,19,Female,1,2024/03/12_10:36:19,YZ,None,
1,./instructions/inst_prac_3_next/Slide49.png,right,0.8643129070005671,578.3146864310002,579.1789993380007,,,,,,,,,,,,,,,,,,,,,,,,,,,,,,,,,1,,,,,,,,,,,,,,,,,,,,,,,,,,,,,,,,,,,,,,,,,,,,,,81,155983,19,Female,1,2024/03/12_10:36:19,YZ,None,
,,,,,,practice,0,31,3,19,1,X,0,right,0.6720970689984824,1,0,,,,,,,,,,,,,,,,,,,,,1,,,,,,,,,,,,,,,,,,,,,,,,,,,,,,,,,,,,,,,,,,,,,,81,155983,19,Female,1,2024/03/12_10:36:19,YZ,None,
,,,,,,practice,0,31,3,19,2,N,0,right,0.30886019799982023,1,0,,,,,,,,,,,,,,,,,,,,,1,,,,,,,,,,,,,,,,,,,,,,,,,,,,,,,,,,,,,,,,,,,,,,81,155983,19,Female,1,2024/03/12_10:36:19,YZ,None,
,,,,,,practice,0,31,3,19,3,F,0,right,0.43323470700124744,1,0,,,,,,,,,,,,,,,,,,,,,1,,,,,,,,,,,,,,,,,,,,,,,,,,,,,,,,,,,,,,,,,,,,,,81,155983,19,Female,1,2024/03/12_10:36:19,YZ,None,
,,,,,,practice,0,31,3,19,4,X,1,right,0.3407886649983993,0,0,,,,,,,,,,,,,,,,,,,,,1,,,,,,,,,,,,,,,,,,,,,,,,,,,,,,,,,,,,,,,,,,,,,,81,155983,19,Female,1,2024/03/12_10:36:19,YZ,None,
,,,,,,practice,0,31,3,19,5,X,0,right,0.42903035299968906,1,0,,,,,,,,,,,,,,,,,,,,,1,,,,,,,,,,,,,,,,,,,,,,,,,,,,,,,,,,,,,,,,,,,,,,81,155983,19,Female,1,2024/03/12_10:36:19,YZ,None,
,,,,,,practice,0,31,3,19,6,Q,0,right,0.45195054999931017,1,0,,,,,,,,,,,,,,,,,,,,,1,,,,,,,,,,,,,,,,,,,,,,,,,,,,,,,,,,,,,,,,,,,,,,81,155983,19,Female,1,2024/03/12_10:36:19,YZ,None,
,,,,,,practice,0,31,3,19,7,X,1,left,0.5923188519991527,1,0,,,,,,,,,,,,,,,,,,,,,1,,,,,,,,,,,,,,,,,,,,,,,,,,,,,,,,,,,,,,,,,,,,,,81,155983,19,Female,1,2024/03/12_10:36:19,YZ,None,
,,,,,,practice,0,31,3,19,8,S,0,right,0.5006033509998815,1,0,,,,,,,,,,,,,,,,,,,,,1,,,,,,,,,,,,,,,,,,,,,,,,,,,,,,,,,,,,,,,,,,,,,,81,155983,19,Female,1,2024/03/12_10:36:19,YZ,None,
,,,,,,practice,0,31,3,19,9,F,0,left,0.620773801998439,0,0,,,,,,,,,,,,,,,,,,,,,1,,,,,,,,,,,,,,,,,,,,,,,,,,,,,,,,,,,,,,,,,,,,,,81,155983,19,Female,1,2024/03/12_10:36:19,YZ,None,
,,,,,,practice,0,31,3,19,10,J,0,right,0.4216242769998644,1,0,,,,,,,,,,,,,,,,,,,,,1,,,,,,,,,,,,,,,,,,,,,,,,,,,,,,,,,,,,,,,,,,,,,,81,155983,19,Female,1,2024/03/12_10:36:19,YZ,None,
,,,,,,practice,0,31,3,19,11,F,0,right,0.585830044999966,1,0,,,,,,,,,,,,,,,,,,,,,1,,,,,,,,,,,,,,,,,,,,,,,,,,,,,,,,,,,,,,,,,,,,,,81,155983,19,Female,1,2024/03/12_10:36:19,YZ,None,
,,,,,,practice,0,31,3,19,12,F,1,left,0.3494895029998588,1,0,,,,,,,,,,,,,,,,,,,,,1,,,,,,,,,,,,,,,,,,,,,,,,,,,,,,,,,,,,,,,,,,,,,,81,155983,19,Female,1,2024/03/12_10:36:19,YZ,None,
,,,,,,practice,0,31,3,19,13,X,0,right,0.2823411800000031,1,0,,,,,,,,,,,,,,,,,,,,,1,,,,,,,,,,,,,,,,,,,,,,,,,,,,,,,,,,,,,,,,,,,,,,81,155983,19,Female,1,2024/03/12_10:36:19,YZ,None,
,,,,,,practice,0,31,3,19,14,C,0,right,0.49661624700092943,1,0,,,,,,,,,,,,,,,,,,,,,1,,,,,,,,,,,,,,,,,,,,,,,,,,,,,,,,,,,,,,,,,,,,,,81,155983,19,Female,1,2024/03/12_10:36:19,YZ,None,
,,,,,,practice,0,31,3,19,15,N,0,left,0.38063764100115804,0,0,,,,,,,,,,,,,,,,,,,,,1,,,,,,,,,,,,,,,,,,,,,,,,,,,,,,,,,,,,,,,,,,,,,,81,155983,19,Female,1,2024/03/12_10:36:19,YZ,None,
,,,,,,practice,0,31,3,19,16,X,1,right,0.5052643159997388,0,0,,,,,,,,,,,,,,,,,,,,,1,,,,,,,,,,,,,,,,,,,,,,,,,,,,,,,,,,,,,,,,,,,,,,81,155983,19,Female,1,2024/03/12_10:36:19,YZ,None,
,,,,,,practice,0,31,3,19,17,V,0,right,0.541745960001208,1,0,,,,,,,,,,,,,,,,,,,,,1,,,,,,,,,,,,,,,,,,,,,,,,,,,,,,,,,,,,,,,,,,,,,,81,155983,19,Female,1,2024/03/12_10:36:19,YZ,None,
,,,,,,practice,0,31,3,19,18,Q,0,right,0.4362581260011211,1,0,,,,,,,,,,,,,,,,,,,,,1,,,,,,,,,,,,,,,,,,,,,,,,,,,,,,,,,,,,,,,,,,,,,,81,155983,19,Female,1,2024/03/12_10:36:19,YZ,None,
,,,,,,practice,0,31,3,19,19,N,0,right,0.504899106999801,1,0,,,,,,,,,,,,,,,,,,,,,1,,,,,,,,,,,,,,,,,,,,,,,,,,,,,,,,,,,,,,,,,,,,,,81,155983,19,Female,1,2024/03/12_10:36:19,YZ,None,
,,,,,,practice,0,31,3,19,20,Q,0,left,0.5875985759994364,0,0,,,,,,,,,,,,,,,,,,,,,1,,,,,,,,,,,,,,,,,,,,,,,,,,,,,,,,,,,,,,,,,,,,,,81,155983,19,Female,1,2024/03/12_10:36:19,YZ,None,
,,,,,,practice,0,31,3,19,21,Q,1,left,0.4933027930001117,1,0,,,,,,,,,,,,,,,,,,,,,1,,,,,,,,,,,,,,,,,,,,,,,,,,,,,,,,,,,,,,,,,,,,,,81,155983,19,Female,1,2024/03/12_10:36:19,YZ,None,
,,,,,,practice,0,31,3,19,22,N,1,left,0.39172747699922184,1,0,,,,,,,,,,,,,,,,,,,,,1,,,,,,,,,,,,,,,,,,,,,,,,,,,,,,,,,,,,,,,,,,,,,,81,155983,19,Female,1,2024/03/12_10:36:19,YZ,None,
,,,,,,practice,0,31,3,19,23,C,0,left,0.5041323539990117,0,0,,,,,,,,,,,,,,,,,,,,,1,,,,,,,,,,,,,,,,,,,,,,,,,,,,,,,,,,,,,,,,,,,,,,81,155983,19,Female,1,2024/03/12_10:36:19,YZ,None,
,,,,,,practice,0,31,3,19,24,V,0,right,0.3433900279997033,1,0,,,,,,,,,,,,,,,,,,,,,1,,,,,,,,,,,,,,,,,,,,,,,,,,,,,,,,,,,,,,,,,,,,,,81,155983,19,Female,1,2024/03/12_10:36:19,YZ,None,
,,,,,,practice,0,31,3,19,25,N,1,right,0.3448862570003257,0,0,,,,,,,,,,,,,,,,,,,,,1,,,,,,,,,,,,,,,,,,,,,,,,,,,,,,,,,,,,,,,,,,,,,,81,155983,19,Female,1,2024/03/12_10:36:19,YZ,None,
,,,,,,practice,0,31,3,19,26,C,1,left,0.5888890629994421,1,0,,,,,,,,,,,,,,,,,,,,,1,,,,,,,,,,,,,,,,,,,,,,,,,,,,,,,,,,,,,,,,,,,,,,81,155983,19,Female,1,2024/03/12_10:36:19,YZ,None,
,,,,,,practice,0,31,3,19,,,,,,,,0.767361111111111,0.625,0.2222222222222222,0.7777777777777778,0.0,0.7777777777777778,0.4657034806536663,5,4,0,0,0,14,19,8,18,0,,,,1,,,,,,,,,,,,,,,,,,,,,,,,,,,,,,,,,,,,,,,,,,,,,,81,155983,19,Female,1,2024/03/12_10:36:19,YZ,None,
,,,,,,practice,0,35,3,19,1,F,0,right,0.5093461889991886,1,0,,,,,,,,,,,,,,,,,,,,,1,,,,,,,,,,,,,,,,,,,,,,,,,,,,,,,,,,,,,,,,,,,,,,81,155983,19,Female,1,2024/03/12_10:36:19,YZ,None,
,,,,,,practice,0,35,3,19,2,N,0,right,0.33344516299985116,1,0,,,,,,,,,,,,,,,,,,,,,1,,,,,,,,,,,,,,,,,,,,,,,,,,,,,,,,,,,,,,,,,,,,,,81,155983,19,Female,1,2024/03/12_10:36:19,YZ,None,
,,,,,,practice,0,35,3,19,3,X,0,right,0.564633338000931,1,0,,,,,,,,,,,,,,,,,,,,,1,,,,,,,,,,,,,,,,,,,,,,,,,,,,,,,,,,,,,,,,,,,,,,81,155983,19,Female,1,2024/03/12_10:36:19,YZ,None,
,,,,,,practice,0,35,3,19,4,V,0,right,0.35784560499996587,1,0,,,,,,,,,,,,,,,,,,,,,1,,,,,,,,,,,,,,,,,,,,,,,,,,,,,,,,,,,,,,,,,,,,,,81,155983,19,Female,1,2024/03/12_10:36:19,YZ,None,
,,,,,,practice,0,35,3,19,5,N,1,right,0.5406565490011417,0,0,,,,,,,,,,,,,,,,,,,,,1,,,,,,,,,,,,,,,,,,,,,,,,,,,,,,,,,,,,,,,,,,,,,,81,155983,19,Female,1,2024/03/12_10:36:19,YZ,None,
,,,,,,practice,0,35,3,19,6,C,0,right,0.3803750850001961,1,0,,,,,,,,,,,,,,,,,,,,,1,,,,,,,,,,,,,,,,,,,,,,,,,,,,,,,,,,,,,,,,,,,,,,81,155983,19,Female,1,2024/03/12_10:36:19,YZ,None,
,,,,,,practice,0,35,3,19,7,X,0,left,0.5326203160002478,0,0,,,,,,,,,,,,,,,,,,,,,1,,,,,,,,,,,,,,,,,,,,,,,,,,,,,,,,,,,,,,,,,,,,,,81,155983,19,Female,1,2024/03/12_10:36:19,YZ,None,
,,,,,,practice,0,35,3,19,8,J,0,right,0.34856872700038366,1,0,,,,,,,,,,,,,,,,,,,,,1,,,,,,,,,,,,,,,,,,,,,,,,,,,,,,,,,,,,,,,,,,,,,,81,155983,19,Female,1,2024/03/12_10:36:19,YZ,None,
,,,,,,practice,0,35,3,19,9,X,0,right,0.7439718500008894,1,0,,,,,,,,,,,,,,,,,,,,,1,,,,,,,,,,,,,,,,,,,,,,,,,,,,,,,,,,,,,,,,,,,,,,81,155983,19,Female,1,2024/03/12_10:36:19,YZ,None,
,,,,,,practice,0,35,3,19,10,J,0,left,0.5805611799987673,0,0,,,,,,,,,,,,,,,,,,,,,1,,,,,,,,,,,,,,,,,,,,,,,,,,,,,,,,,,,,,,,,,,,,,,81,155983,19,Female,1,2024/03/12_10:36:19,YZ,None,
,,,,,,practice,0,35,3,19,11,Q,0,right,0.3954840480000712,1,0,,,,,,,,,,,,,,,,,,,,,1,,,,,,,,,,,,,,,,,,,,,,,,,,,,,,,,,,,,,,,,,,,,,,81,155983,19,Female,1,2024/03/12_10:36:19,YZ,None,
,,,,,,practice,0,35,3,19,12,X,1,left,0.44979598600002646,1,0,,,,,,,,,,,,,,,,,,,,,1,,,,,,,,,,,,,,,,,,,,,,,,,,,,,,,,,,,,,,,,,,,,,,81,155983,19,Female,1,2024/03/12_10:36:19,YZ,None,
,,,,,,practice,0,35,3,19,13,N,0,left,0.35272210800030734,0,0,,,,,,,,,,,,,,,,,,,,,1,,,,,,,,,,,,,,,,,,,,,,,,,,,,,,,,,,,,,,,,,,,,,,81,155983,19,Female,1,2024/03/12_10:36:19,YZ,None,
,,,,,,practice,0,35,3,19,14,X,0,right,0.376539037000839,1,0,,,,,,,,,,,,,,,,,,,,,1,,,,,,,,,,,,,,,,,,,,,,,,,,,,,,,,,,,,,,,,,,,,,,81,155983,19,Female,1,2024/03/12_10:36:19,YZ,None,
,,,,,,practice,0,35,3,19,15,X,1,right,0.5134354779984278,0,0,,,,,,,,,,,,,,,,,,,,,1,,,,,,,,,,,,,,,,,,,,,,,,,,,,,,,,,,,,,,,,,,,,,,81,155983,19,Female,1,2024/03/12_10:36:19,YZ,None,
,,,,,,practice,0,35,3,19,16,S,0,right,0.37238880599943514,1,0,,,,,,,,,,,,,,,,,,,,,1,,,,,,,,,,,,,,,,,,,,,,,,,,,,,,,,,,,,,,,,,,,,,,81,155983,19,Female,1,2024/03/12_10:36:19,YZ,None,
,,,,,,practice,0,35,3,19,17,N,0,right,0.44932043900007557,1,0,,,,,,,,,,,,,,,,,,,,,1,,,,,,,,,,,,,,,,,,,,,,,,,,,,,,,,,,,,,,,,,,,,,,81,155983,19,Female,1,2024/03/12_10:36:19,YZ,None,
,,,,,,practice,0,35,3,19,18,X,1,left,0.29832840400013083,1,0,,,,,,,,,,,,,,,,,,,,,1,,,,,,,,,,,,,,,,,,,,,,,,,,,,,,,,,,,,,,,,,,,,,,81,155983,19,Female,1,2024/03/12_10:36:19,YZ,None,
,,,,,,practice,0,35,3,19,19,N,0,right,0.5213248760010174,1,0,,,,,,,,,,,,,,,,,,,,,1,,,,,,,,,,,,,,,,,,,,,,,,,,,,,,,,,,,,,,,,,,,,,,81,155983,19,Female,1,2024/03/12_10:36:19,YZ,None,
,,,,,,practice,0,35,3,19,20,Q,0,right,0.4243362849992991,1,0,,,,,,,,,,,,,,,,,,,,,1,,,,,,,,,,,,,,,,,,,,,,,,,,,,,,,,,,,,,,,,,,,,,,81,155983,19,Female,1,2024/03/12_10:36:19,YZ,None,
,,,,,,practice,0,35,3,19,21,X,1,left,0.5478916039992328,1,0,,,,,,,,,,,,,,,,,,,,,1,,,,,,,,,,,,,,,,,,,,,,,,,,,,,,,,,,,,,,,,,,,,,,81,155983,19,Female,1,2024/03/12_10:36:19,YZ,None,
,,,,,,practice,0,35,3,19,22,N,1,left,0.5241847269990103,1,0,,,,,,,,,,,,,,,,,,,,,1,,,,,,,,,,,,,,,,,,,,,,,,,,,,,,,,,,,,,,,,,,,,,,81,155983,19,Female,1,2024/03/12_10:36:19,YZ,None,
,,,,,,practice,0,35,3,19,23,J,0,right,0.38106891099960194,1,0,,,,,,,,,,,,,,,,,,,,,1,,,,,,,,,,,,,,,,,,,,,,,,,,,,,,,,,,,,,,,,,,,,,,81,155983,19,Female,1,2024/03/12_10:36:19,YZ,None,
,,,,,,practice,0,35,3,19,24,X,1,right,0.5449112459991738,0,0,,,,,,,,,,,,,,,,,,,,,1,,,,,,,,,,,,,,,,,,,,,,,,,,,,,,,,,,,,,,,,,,,,,,81,155983,19,Female,1,2024/03/12_10:36:19,YZ,None,
,,,,,,practice,0,35,3,19,25,N,1,left,0.4368338450003648,1,0,,,,,,,,,,,,,,,,,,,,,1,,,,,,,,,,,,,,,,,,,,,,,,,,,,,,,,,,,,,,,,,,,,,,81,155983,19,Female,1,2024/03/12_10:36:19,YZ,None,
,,,,,,practice,0,35,3,19,26,C,0,right,0.44212404400059313,1,0,,,,,,,,,,,,,,,,,,,,,1,,,,,,,,,,,,,,,,,,,,,,,,,,,,,,,,,,,,,,,,,,,,,,81,155983,19,Female,1,2024/03/12_10:36:19,YZ,None,
,,,,,,practice,0,35,3,19,,,,,,,,0.8020833333333334,0.625,0.16666666666666666,0.8333333333333334,0.0,0.8333333333333334,0.45856591715381423,5,3,0,0,0,15,20,8,18,0,,,,1,,,,,,,,,,,,,,,,,,,,,,,,,,,,,,,,,,,,,,,,,,,,,,81,155983,19,Female,1,2024/03/12_10:36:19,YZ,None,
1,./instructions/inst_prac_main/Slide51.png,right,2.001553629999762,634.5933306000006,636.5948842300004,,,,,,,,,,,,,,,,,,,,,,,,,,,,,,,,,1,,,,,,,,,,,,,,,,,,,,,,,,,,,,,,,,,,,,,,,,,,,,,,81,155983,19,Female,1,2024/03/12_10:36:19,YZ,None,
2,./instructions/inst_prac_main/Slide52.png,right,7.482758711001225,636.6242195880004,644.1069782990016,,,,,,,,,,,,,,,,,,,,,,,,,,,,,,,,,1,,,,,,,,,,,,,,,,,,,,,,,,,,,,,,,,,,,,,,,,,,,,,,81,155983,19,Female,1,2024/03/12_10:36:19,YZ,None,
3,./instructions/inst_prac_main/Slide53.png,right,5.853287371999613,644.1337896960013,649.9870770680009,,,,,,,,,,,,,,,,,,,,,,,,,,,,,,,,,1,,,,,,,,,,,,,,,,,,,,,,,,,,,,,,,,,,,,,,,,,,,,,,81,155983,19,Female,1,2024/03/12_10:36:19,YZ,None,
4,./instructions/inst_prac_main/Slide54.png,right,3.378622779999205,650.016436928001,653.3950597080002,,,,,,,,,,,,,,,,,,,,,,,,,,,,,,,,,1,,,,,,,,,,,,,,,,,,,,,,,,,,,,,,,,,,,,,,,,,,,,,,81,155983,19,Female,1,2024/03/12_10:36:19,YZ,None,
,,,,,,practice_main,0,1,3,19,1,J,0,right,0.6740719089993945,1,0,,,,,,,,,,,,,,,,,,,,,1,,,,,,,,,,,,,,,,,,,,,,,,,,,,,,,,,,,,,,,,,,,,,,81,155983,19,Female,1,2024/03/12_10:36:19,YZ,None,
,,,,,,practice_main,0,1,3,19,2,J,0,right,0.0793771230000857,1,0,,,,,,,,,,,,,,,,,,,,,1,,,,,,,,,,,,,,,,,,,,,,,,,,,,,,,,,,,,,,,,,,,,,,81,155983,19,Female,1,2024/03/12_10:36:19,YZ,None,
,,,,,,practice_main,0,1,3,19,3,C,0,right,0.2661707639999804,1,0,,,,,,,,,,,,,,,,,,,,,1,,,,,,,,,,,,,,,,,,,,,,,,,,,,,,,,,,,,,,,,,,,,,,81,155983,19,Female,1,2024/03/12_10:36:19,YZ,None,
,,,,,,practice_main,0,1,3,19,4,J,1,left,0.4008570750011131,1,0,,,,,,,,,,,,,,,,,,,,,1,,,,,,,,,,,,,,,,,,,,,,,,,,,,,,,,,,,,,,,,,,,,,,81,155983,19,Female,1,2024/03/12_10:36:19,YZ,None,
,,,,,,practice_main,0,1,3,19,5,J,1,left,0.36066458499954024,1,0,,,,,,,,,,,,,,,,,,,,,1,,,,,,,,,,,,,,,,,,,,,,,,,,,,,,,,,,,,,,,,,,,,,,81,155983,19,Female,1,2024/03/12_10:36:19,YZ,None,
,,,,,,practice_main,0,1,3,19,6,V,0,right,0.3045237839996844,1,0,,,,,,,,,,,,,,,,,,,,,1,,,,,,,,,,,,,,,,,,,,,,,,,,,,,,,,,,,,,,,,,,,,,,81,155983,19,Female,1,2024/03/12_10:36:19,YZ,None,
,,,,,,practice_main,0,1,3,19,7,S,0,right,0.36743083100009244,1,0,,,,,,,,,,,,,,,,,,,,,1,,,,,,,,,,,,,,,,,,,,,,,,,,,,,,,,,,,,,,,,,,,,,,81,155983,19,Female,1,2024/03/12_10:36:19,YZ,None,
,,,,,,practice_main,0,1,3,19,8,X,0,right,0.3376232600003277,1,0,,,,,,,,,,,,,,,,,,,,,1,,,,,,,,,,,,,,,,,,,,,,,,,,,,,,,,,,,,,,,,,,,,,,81,155983,19,Female,1,2024/03/12_10:36:19,YZ,None,
,,,,,,practice_main,0,1,3,19,9,V,1,right,0.3572221800004627,0,0,,,,,,,,,,,,,,,,,,,,,1,,,,,,,,,,,,,,,,,,,,,,,,,,,,,,,,,,,,,,,,,,,,,,81,155983,19,Female,1,2024/03/12_10:36:19,YZ,None,
,,,,,,practice_main,0,1,3,19,10,C,0,right,0.32937114800006384,1,0,,,,,,,,,,,,,,,,,,,,,1,,,,,,,,,,,,,,,,,,,,,,,,,,,,,,,,,,,,,,,,,,,,,,81,155983,19,Female,1,2024/03/12_10:36:19,YZ,None,
,,,,,,practice_main,0,1,3,19,11,J,0,right,0.36496319199977734,1,0,,,,,,,,,,,,,,,,,,,,,1,,,,,,,,,,,,,,,,,,,,,,,,,,,,,,,,,,,,,,,,,,,,,,81,155983,19,Female,1,2024/03/12_10:36:19,YZ,None,
,,,,,,practice_main,0,1,3,19,12,V,1,right,0.40920987199933734,0,0,,,,,,,,,,,,,,,,,,,,,1,,,,,,,,,,,,,,,,,,,,,,,,,,,,,,,,,,,,,,,,,,,,,,81,155983,19,Female,1,2024/03/12_10:36:19,YZ,None,
,,,,,,practice_main,0,1,3,19,13,C,1,left,0.2803999820007448,1,0,,,,,,,,,,,,,,,,,,,,,1,,,,,,,,,,,,,,,,,,,,,,,,,,,,,,,,,,,,,,,,,,,,,,81,155983,19,Female,1,2024/03/12_10:36:19,YZ,None,
,,,,,,practice_main,0,1,3,19,14,X,0,left,0.3229618149998714,0,0,,,,,,,,,,,,,,,,,,,,,1,,,,,,,,,,,,,,,,,,,,,,,,,,,,,,,,,,,,,,,,,,,,,,81,155983,19,Female,1,2024/03/12_10:36:19,YZ,None,
,,,,,,practice_main,0,1,3,19,15,N,0,left,0.3611757900016528,0,0,,,,,,,,,,,,,,,,,,,,,1,,,,,,,,,,,,,,,,,,,,,,,,,,,,,,,,,,,,,,,,,,,,,,81,155983,19,Female,1,2024/03/12_10:36:19,YZ,None,
,,,,,,practice_main,0,1,3,19,16,C,1,right,0.2842422579997219,0,0,,,,,,,,,,,,,,,,,,,,,1,,,,,,,,,,,,,,,,,,,,,,,,,,,,,,,,,,,,,,,,,,,,,,81,155983,19,Female,1,2024/03/12_10:36:19,YZ,None,
,,,,,,practice_main,0,1,3,19,17,F,0,left,0.3671958920003817,0,0,,,,,,,,,,,,,,,,,,,,,1,,,,,,,,,,,,,,,,,,,,,,,,,,,,,,,,,,,,,,,,,,,,,,81,155983,19,Female,1,2024/03/12_10:36:19,YZ,None,
,,,,,,practice_main,0,1,3,19,18,Q,0,right,0.24992885400024534,1,0,,,,,,,,,,,,,,,,,,,,,1,,,,,,,,,,,,,,,,,,,,,,,,,,,,,,,,,,,,,,,,,,,,,,81,155983,19,Female,1,2024/03/12_10:36:19,YZ,None,
