Instruction,Stimulus,Key,RT,START,END,Phase,Block,TrialN,NbackLevel,ISI,LetterN,Letter,Letter_isSame,Letter_Resp,Letter_RT,Letter_Accuracy,Letter_Timeout,Trial_A_measure,Trial_HR,Trial_FAR,Trial_CDR,Trial_MSR,Trial_ACC,Trial_RT,Trial_HitsCount,Trial_FAsCount,Trial_SameNoRespCount,Trial_DiffNoRespCount,Trial_NoRespCount,Trial_CDsCount,Trial_CorrectRespCount,Trial_SameLetterCount,Trial_DiffLetterCount,Trial_InvalidLetterCount,TrialCountCali,CaliEnd_A_measure,ISI_calibrated,Run,TrialIndex,TrialNumber_total,TrialNumber_valid,CueLearning,TrialDemandLearning,CueMapping,OnlineRating,OnlineRatingRT,OnlineRatingTimeOut,CueSTART,RatingSTART,OfflineRatingTimePoint,OfflineRatingQuesIndex,CueFigure,TrialDemand,OfflineRating,OfflineRatingRT,CueStart,OfflineRatingStart,PhaseType,CueLeft,CueDemandLeft,CueRight,CueDemandRight,Choice,ChoiceDemand,TaskDemand,ChoiceRT,ChoiceTimeOut,ChoiceSTART,CueCheck,CueDemandCheck,CorrectAnswer,Answer,AnswerDemand,AnswerRT,AnswerACC,AnswerTimeOut,CheckSTART,DemandRatingQuesIndex,QuesTLX,DemandLevel,DemandRating,DemandRatingRT,QuesStart,PID,SONA,Age,Gender,Run,TIME,EXPERIMENTER,frameRate,
1,./instructions/inst_begin/Slide2.png,right,23.735422540994477,0.1304837409988977,23.865906281993375,,,,,,,,,,,,,,,,,,,,,,,,,,,,,,,,,1,,,,,,,,,,,,,,,,,,,,,,,,,,,,,,,,,,,,,,,,,,,,,,129,155461,22,Female,1,2024/03/27_14:10:01,YZ,50.485275321403876,
2,./instructions/inst_begin/Slide3.png,right,8.472648269991623,23.904944013003842,32.377592282995465,,,,,,,,,,,,,,,,,,,,,,,,,,,,,,,,,1,,,,,,,,,,,,,,,,,,,,,,,,,,,,,,,,,,,,,,,,,,,,,,129,155461,22,Female,1,2024/03/27_14:10:01,YZ,50.485275321403876,
3,./instructions/inst_begin/Slide4.png,right,7.5502865109883714,32.427647449003416,39.97793395999179,,,,,,,,,,,,,,,,,,,,,,,,,,,,,,,,,1,,,,,,,,,,,,,,,,,,,,,,,,,,,,,,,,,,,,,,,,,,,,,,129,155461,22,Female,1,2024/03/27_14:10:01,YZ,50.485275321403876,
1,./instructions/inst_prac_2/Slide6.png,right,9.977608137996867,40.03222468600143,50.009832823998295,,,,,,,,,,,,,,,,,,,,,,,,,,,,,,,,,1,,,,,,,,,,,,,,,,,,,,,,,,,,,,,,,,,,,,,,,,,,,,,,129,155461,22,Female,1,2024/03/27_14:10:01,YZ,50.485275321403876,
2,./instructions/inst_prac_2/Slide7.png,right,15.725944819991128,50.0518832020025,65.77782802199363,,,,,,,,,,,,,,,,,,,,,,,,,,,,,,,,,1,,,,,,,,,,,,,,,,,,,,,,,,,,,,,,,,,,,,,,,,,,,,,,129,155461,22,Female,1,2024/03/27_14:10:01,YZ,50.485275321403876,
3,./instructions/inst_prac_2/Slide8.png,right,11.405925992003176,65.81158525799401,77.21751124999719,,,,,,,,,,,,,,,,,,,,,,,,,,,,,,,,,1,,,,,,,,,,,,,,,,,,,,,,,,,,,,,,,,,,,,,,,,,,,,,,129,155461,22,Female,1,2024/03/27_14:10:01,YZ,50.485275321403876,
4,./instructions/inst_prac_2/Slide9.png,right,5.047313581992057,77.25038565900468,82.29769924099674,,,,,,,,,,,,,,,,,,,,,,,,,,,,,,,,,1,,,,,,,,,,,,,,,,,,,,,,,,,,,,,,,,,,,,,,,,,,,,,,129,155461,22,Female,1,2024/03/27_14:10:01,YZ,50.485275321403876,
5,./instructions/inst_prac_2/Slide10.png,right,2.6384597190044587,82.33919349299686,84.97765321200131,,,,,,,,,,,,,,,,,,,,,,,,,,,,,,,,,1,,,,,,,,,,,,,,,,,,,,,,,,,,,,,,,,,,,,,,,,,,,,,,129,155461,22,Female,1,2024/03/27_14:10:01,YZ,50.485275321403876,
6,./instructions/inst_prac_2/Slide11.png,right,1.8871494789927965,85.0105281540018,86.8976776329946,,,,,,,,,,,,,,,,,,,,,,,,,,,,,,,,,1,,,,,,,,,,,,,,,,,,,,,,,,,,,,,,,,,,,,,,,,,,,,,,129,155461,22,Female,1,2024/03/27_14:10:01,YZ,50.485275321403876,
7,./instructions/inst_prac_2/Slide12.png,right,1.2636914830072783,86.93012744099542,88.1938189240027,,,,,,,,,,,,,,,,,,,,,,,,,,,,,,,,,1,,,,,,,,,,,,,,,,,,,,,,,,,,,,,,,,,,,,,,,,,,,,,,129,155461,22,Female,1,2024/03/27_14:10:01,YZ,50.485275321403876,
8,./instructions/inst_prac_2/Slide13.png,right,1.159160081006121,88.22664709499804,89.38580717600416,,,,,,,,,,,,,,,,,,,,,,,,,,,,,,,,,1,,,,,,,,,,,,,,,,,,,,,,,,,,,,,,,,,,,,,,,,,,,,,,129,155461,22,Female,1,2024/03/27_14:10:01,YZ,50.485275321403876,
9,./instructions/inst_prac_2/Slide14.png,right,7.439233659009915,89.41860258499219,96.8578362440021,,,,,,,,,,,,,,,,,,,,,,,,,,,,,,,,,1,,,,,,,,,,,,,,,,,,,,,,,,,,,,,,,,,,,,,,,,,,,,,,129,155461,22,Female,1,2024/03/27_14:10:01,YZ,50.485275321403876,
10,./instructions/inst_prac_2/Slide15.png,right,6.429697187006241,96.89188573199499,103.32158291900123,,,,,,,,,,,,,,,,,,,,,,,,,,,,,,,,,1,,,,,,,,,,,,,,,,,,,,,,,,,,,,,,,,,,,,,,,,,,,,,,129,155461,22,Female,1,2024/03/27_14:10:01,YZ,50.485275321403876,
,,,,,,practice,0,26,2,2583,1,X,0,right,2.876432509990991,1,0,,,,,,,,,,,,,,,,,,,,,1,,,,,,,,,,,,,,,,,,,,,,,,,,,,,,,,,,,,,,,,,,,,,,129,155461,22,Female,1,2024/03/27_14:10:01,YZ,50.485275321403876,
,,,,,,practice,0,26,2,2583,2,V,0,right,3.3944282209995436,1,0,,,,,,,,,,,,,,,,,,,,,1,,,,,,,,,,,,,,,,,,,,,,,,,,,,,,,,,,,,,,,,,,,,,,129,155461,22,Female,1,2024/03/27_14:10:01,YZ,50.485275321403876,
,,,,,,practice,0,26,2,2583,3,X,1,left,3.1009172079939162,1,0,,,,,,,,,,,,,,,,,,,,,1,,,,,,,,,,,,,,,,,,,,,,,,,,,,,,,,,,,,,,,,,,,,,,129,155461,22,Female,1,2024/03/27_14:10:01,YZ,50.485275321403876,
,,,,,,practice,0,26,2,2583,4,C,0,right,1.0025656939978944,1,0,,,,,,,,,,,,,,,,,,,,,1,,,,,,,,,,,,,,,,,,,,,,,,,,,,,,,,,,,,,,,,,,,,,,129,155461,22,Female,1,2024/03/27_14:10:01,YZ,50.485275321403876,
,,,,,,practice,0,26,2,2583,5,X,1,left,1.0051224850030849,1,0,,,,,,,,,,,,,,,,,,,,,1,,,,,,,,,,,,,,,,,,,,,,,,,,,,,,,,,,,,,,,,,,,,,,129,155461,22,Female,1,2024/03/27_14:10:01,YZ,50.485275321403876,
,,,,,,practice,0,26,2,2583,6,V,0,right,0.7811712879920378,1,0,,,,,,,,,,,,,,,,,,,,,1,,,,,,,,,,,,,,,,,,,,,,,,,,,,,,,,,,,,,,,,,,,,,,129,155461,22,Female,1,2024/03/27_14:10:01,YZ,50.485275321403876,
,,,,,,practice,0,26,2,2583,,,,,,,,1.0,1.0,0.0,1.0,0.0,1.0,2.0267729009962445,2,0,0,0,0,4,6,2,4,0,,,,1,,,,,,,,,,,,,,,,,,,,,,,,,,,,,,,,,,,,,,,,,,,,,,129,155461,22,Female,1,2024/03/27_14:10:01,YZ,50.485275321403876,
1,./instructions/inst_to_cali/Slide20.png,right,3.985955237993039,121.89575898800103,125.88171422599407,,,,,,,,,,,,,,,,,,,,,,,,,,,,,,,,,1,,,,,,,,,,,,,,,,,,,,,,,,,,,,,,,,,,,,,,,,,,,,,,129,155461,22,Female,1,2024/03/27_14:10:01,YZ,50.485275321403876,
1,./instructions/inst_cali/Slide22.png,right,1.5474873810017016,125.93428396400122,127.48177134500293,,,,,,,,,,,,,,,,,,,,,,,,,,,,,,,,,1,,,,,,,,,,,,,,,,,,,,,,,,,,,,,,,,,,,,,,,,,,,,,,129,155461,22,Female,1,2024/03/27_14:10:01,YZ,50.485275321403876,
,,,,,,calibration,0,14,2,583,1,X,0,None,nan,0,1,,,,,,,,,,,,,,,,,,,,,1,,,,,,,,,,,,,,,,,,,,,,,,,,,,,,,,,,,,,,,,,,,,,,129,155461,22,Female,1,2024/03/27_14:10:01,YZ,50.485275321403876,
,,,,,,calibration,0,14,2,583,2,Q,0,None,nan,0,1,,,,,,,,,,,,,,,,,,,,,1,,,,,,,,,,,,,,,,,,,,,,,,,,,,,,,,,,,,,,,,,,,,,,129,155461,22,Female,1,2024/03/27_14:10:01,YZ,50.485275321403876,
,,,,,,calibration,0,14,2,583,3,S,0,right,1.2239167179941433,1,0,,,,,,,,,,,,,,,,,,,,,1,,,,,,,,,,,,,,,,,,,,,,,,,,,,,,,,,,,,,,,,,,,,,,129,155461,22,Female,1,2024/03/27_14:10:01,YZ,50.485275321403876,
,,,,,,calibration,0,14,2,583,4,Q,1,right,nan,0,1,,,,,,,,,,,,,,,,,,,,,1,,,,,,,,,,,,,,,,,,,,,,,,,,,,,,,,,,,,,,,,,,,,,,129,155461,22,Female,1,2024/03/27_14:10:01,YZ,50.485275321403876,
,,,,,,calibration,0,14,2,583,5,V,0,right,nan,0,1,,,,,,,,,,,,,,,,,,,,,1,,,,,,,,,,,,,,,,,,,,,,,,,,,,,,,,,,,,,,,,,,,,,,129,155461,22,Female,1,2024/03/27_14:10:01,YZ,50.485275321403876,
,,,,,,calibration,0,14,2,583,6,Q,1,right,nan,0,1,,,,,,,,,,,,,,,,,,,,,1,,,,,,,,,,,,,,,,,,,,,,,,,,,,,,,,,,,,,,,,,,,,,,129,155461,22,Female,1,2024/03/27_14:10:01,YZ,50.485275321403876,
,,,,,,calibration,0,14,2,583,7,C,0,right,nan,0,1,,,,,,,,,,,,,,,,,,,,,1,,,,,,,,,,,,,,,,,,,,,,,,,,,,,,,,,,,,,,,,,,,,,,129,155461,22,Female,1,2024/03/27_14:10:01,YZ,50.485275321403876,
,,,,,,calibration,0,14,2,583,8,Q,1,right,nan,0,1,,,,,,,,,,,,,,,,,,,,,1,,,,,,,,,,,,,,,,,,,,,,,,,,,,,,,,,,,,,,,,,,,,,,129,155461,22,Female,1,2024/03/27_14:10:01,YZ,50.485275321403876,
,,,,,,calibration,0,14,2,583,9,V,0,right,nan,0,1,,,,,,,,,,,,,,,,,,,,,1,,,,,,,,,,,,,,,,,,,,,,,,,,,,,,,,,,,,,,,,,,,,,,129,155461,22,Female,1,2024/03/27_14:10:01,YZ,50.485275321403876,
,,,,,,calibration,0,14,2,583,10,Q,1,right,nan,0,1,,,,,,,,,,,,,,,,,,,,,1,,,,,,,,,,,,,,,,,,,,,,,,,,,,,,,,,,,,,,,,,,,,,,129,155461,22,Female,1,2024/03/27_14:10:01,YZ,50.485275321403876,
,,,,,,calibration,0,14,2,583,11,V,1,right,nan,0,1,,,,,,,,,,,,,,,,,,,,,1,,,,,,,,,,,,,,,,,,,,,,,,,,,,,,,,,,,,,,,,,,,,,,129,155461,22,Female,1,2024/03/27_14:10:01,YZ,50.485275321403876,
,,,,,,calibration,0,14,2,583,12,S,0,right,nan,0,1,,,,,,,,,,,,,,,,,,,,,1,,,,,,,,,,,,,,,,,,,,,,,,,,,,,,,,,,,,,,,,,,,,,,129,155461,22,Female,1,2024/03/27_14:10:01,YZ,50.485275321403876,
,,,,,,calibration,0,14,2,583,13,Q,0,right,nan,0,1,,,,,,,,,,,,,,,,,,,,,1,,,,,,,,,,,,,,,,,,,,,,,,,,,,,,,,,,,,,,,,,,,,,,129,155461,22,Female,1,2024/03/27_14:10:01,YZ,50.485275321403876,
,,,,,,calibration,0,14,2,583,14,J,0,right,nan,0,1,,,,,,,,,,,,,,,,,,,,,1,,,,,,,,,,,,,,,,,,,,,,,,,,,,,,,,,,,,,,,,,,,,,,129,155461,22,Female,1,2024/03/27_14:10:01,YZ,50.485275321403876,
,,,,,,calibration,0,14,2,583,15,V,0,right,nan,0,1,,,,,,,,,,,,,,,,,,,,,1,,,,,,,,,,,,,,,,,,,,,,,,,,,,,,,,,,,,,,,,,,,,,,129,155461,22,Female,1,2024/03/27_14:10:01,YZ,50.485275321403876,
,,,,,,calibration,0,14,2,583,,,,,,,,0.5,0.0,0.0,1.0,0.9333333333333333,0.06666666666666665,1.2239167179941433,0,0,5,9,14,1,1,5,10,0,,,,1,,,,,,,,,,,,,,,,,,,,,,,,,,,,,,,,,,,,,,,,,,,,,,129,155461,22,Female,1,2024/03/27_14:10:01,YZ,50.485275321403876,
,,,,,,Calibration,0,,2,583,,,,,,,,,,,,,,,,,,,,,,,,,1,,,1,,,,,,,,,,,,,,,,,,,,,,,,,,,,,,,,,,,,,,,,,,,,,,129,155461,22,Female,1,2024/03/27_14:10:01,YZ,50.485275321403876,
,,,,,,calibration,0,14,2,679,1,J,0,None,nan,0,1,,,,,,,,,,,,,,,,,,,,,1,,,,,,,,,,,,,,,,,,,,,,,,,,,,,,,,,,,,,,,,,,,,,,129,155461,22,Female,1,2024/03/27_14:10:01,YZ,50.485275321403876,
,,,,,,calibration,0,14,2,679,2,F,0,None,nan,0,1,,,,,,,,,,,,,,,,,,,,,1,,,,,,,,,,,,,,,,,,,,,,,,,,,,,,,,,,,,,,,,,,,,,,129,155461,22,Female,1,2024/03/27_14:10:01,YZ,50.485275321403876,
,,,,,,calibration,0,14,2,679,3,V,0,None,nan,0,1,,,,,,,,,,,,,,,,,,,,,1,,,,,,,,,,,,,,,,,,,,,,,,,,,,,,,,,,,,,,,,,,,,,,129,155461,22,Female,1,2024/03/27_14:10:01,YZ,50.485275321403876,
,,,,,,calibration,0,14,2,679,4,Q,0,None,nan,0,1,,,,,,,,,,,,,,,,,,,,,1,,,,,,,,,,,,,,,,,,,,,,,,,,,,,,,,,,,,,,,,,,,,,,129,155461,22,Female,1,2024/03/27_14:10:01,YZ,50.485275321403876,
,,,,,,calibration,0,14,2,679,5,N,0,None,nan,0,1,,,,,,,,,,,,,,,,,,,,,1,,,,,,,,,,,,,,,,,,,,,,,,,,,,,,,,,,,,,,,,,,,,,,129,155461,22,Female,1,2024/03/27_14:10:01,YZ,50.485275321403876,
,,,,,,calibration,0,14,2,679,6,Q,1,None,nan,0,1,,,,,,,,,,,,,,,,,,,,,1,,,,,,,,,,,,,,,,,,,,,,,,,,,,,,,,,,,,,,,,,,,,,,129,155461,22,Female,1,2024/03/27_14:10:01,YZ,50.485275321403876,
,,,,,,calibration,0,14,2,679,7,N,1,None,nan,0,1,,,,,,,,,,,,,,,,,,,,,1,,,,,,,,,,,,,,,,,,,,,,,,,,,,,,,,,,,,,,,,,,,,,,129,155461,22,Female,1,2024/03/27_14:10:01,YZ,50.485275321403876,
,,,,,,calibration,0,14,2,679,8,C,0,None,nan,0,1,,,,,,,,,,,,,,,,,,,,,1,,,,,,,,,,,,,,,,,,,,,,,,,,,,,,,,,,,,,,,,,,,,,,129,155461,22,Female,1,2024/03/27_14:10:01,YZ,50.485275321403876,
,,,,,,calibration,0,14,2,679,9,S,0,None,nan,0,1,,,,,,,,,,,,,,,,,,,,,1,,,,,,,,,,,,,,,,,,,,,,,,,,,,,,,,,,,,,,,,,,,,,,129,155461,22,Female,1,2024/03/27_14:10:01,YZ,50.485275321403876,
,,,,,,calibration,0,14,2,679,10,C,1,None,nan,0,1,,,,,,,,,,,,,,,,,,,,,1,,,,,,,,,,,,,,,,,,,,,,,,,,,,,,,,,,,,,,,,,,,,,,129,155461,22,Female,1,2024/03/27_14:10:01,YZ,50.485275321403876,
,,,,,,calibration,0,14,2,679,11,X,0,None,nan,0,1,,,,,,,,,,,,,,,,,,,,,1,,,,,,,,,,,,,,,,,,,,,,,,,,,,,,,,,,,,,,,,,,,,,,129,155461,22,Female,1,2024/03/27_14:10:01,YZ,50.485275321403876,
,,,,,,calibration,0,14,2,679,12,Q,0,None,nan,0,1,,,,,,,,,,,,,,,,,,,,,1,,,,,,,,,,,,,,,,,,,,,,,,,,,,,,,,,,,,,,,,,,,,,,129,155461,22,Female,1,2024/03/27_14:10:01,YZ,50.485275321403876,
,,,,,,calibration,0,14,2,679,13,V,0,None,nan,0,1,,,,,,,,,,,,,,,,,,,,,1,,,,,,,,,,,,,,,,,,,,,,,,,,,,,,,,,,,,,,,,,,,,,,129,155461,22,Female,1,2024/03/27_14:10:01,YZ,50.485275321403876,
,,,,,,calibration,0,14,2,679,14,Q,1,None,nan,0,1,,,,,,,,,,,,,,,,,,,,,1,,,,,,,,,,,,,,,,,,,,,,,,,,,,,,,,,,,,,,,,,,,,,,129,155461,22,Female,1,2024/03/27_14:10:01,YZ,50.485275321403876,
,,,,,,calibration,0,14,2,679,,,,,,,,nan,0.0,nan,nan,1.0,nan,nan,0,0,4,10,14,0,0,4,10,0,,,,1,,,,,,,,,,,,,,,,,,,,,,,,,,,,,,,,,,,,,,,,,,,,,,129,155461,22,Female,1,2024/03/27_14:10:01,YZ,50.485275321403876,
,,,,,,Calibration,0,,2,679,,,,,,,,,,,,,,,,,,,,,,,,,2,,,1,,,,,,,,,,,,,,,,,,,,,,,,,,,,,,,,,,,,,,,,,,,,,,129,155461,22,Female,1,2024/03/27_14:10:01,YZ,50.485275321403876,
,,,,,,calibration,0,34,2,788,1,Q,0,None,nan,0,1,,,,,,,,,,,,,,,,,,,,,1,,,,,,,,,,,,,,,,,,,,,,,,,,,,,,,,,,,,,,,,,,,,,,129,155461,22,Female,1,2024/03/27_14:10:01,YZ,50.485275321403876,
,,,,,,calibration,0,34,2,788,2,F,0,None,nan,0,1,,,,,,,,,,,,,,,,,,,,,1,,,,,,,,,,,,,,,,,,,,,,,,,,,,,,,,,,,,,,,,,,,,,,129,155461,22,Female,1,2024/03/27_14:10:01,YZ,50.485275321403876,
,,,,,,calibration,0,34,2,788,3,S,0,right,0.9820223230053671,1,0,,,,,,,,,,,,,,,,,,,,,1,,,,,,,,,,,,,,,,,,,,,,,,,,,,,,,,,,,,,,,,,,,,,,129,155461,22,Female,1,2024/03/27_14:10:01,YZ,50.485275321403876,
,,,,,,calibration,0,34,2,788,4,X,0,right,nan,0,1,,,,,,,,,,,,,,,,,,,,,1,,,,,,,,,,,,,,,,,,,,,,,,,,,,,,,,,,,,,,,,,,,,,,129,155461,22,Female,1,2024/03/27_14:10:01,YZ,50.485275321403876,
,,,,,,calibration,0,34,2,788,5,S,1,right,0.5931679680070374,0,0,,,,,,,,,,,,,,,,,,,,,1,,,,,,,,,,,,,,,,,,,,,,,,,,,,,,,,,,,,,,,,,,,,,,129,155461,22,Female,1,2024/03/27_14:10:01,YZ,50.485275321403876,
,,,,,,calibration,0,34,2,788,6,J,0,left,0.968805702010286,0,0,,,,,,,,,,,,,,,,,,,,,1,,,,,,,,,,,,,,,,,,,,,,,,,,,,,,,,,,,,,,,,,,,,,,129,155461,22,Female,1,2024/03/27_14:10:01,YZ,50.485275321403876,
,,,,,,calibration,0,34,2,788,7,F,0,left,nan,0,1,,,,,,,,,,,,,,,,,,,,,1,,,,,,,,,,,,,,,,,,,,,,,,,,,,,,,,,,,,,,,,,,,,,,129,155461,22,Female,1,2024/03/27_14:10:01,YZ,50.485275321403876,
,,,,,,calibration,0,34,2,788,8,N,0,right,0.3573780739970971,1,0,,,,,,,,,,,,,,,,,,,,,1,,,,,,,,,,,,,,,,,,,,,,,,,,,,,,,,,,,,,,,,,,,,,,129,155461,22,Female,1,2024/03/27_14:10:01,YZ,50.485275321403876,
,,,,,,calibration,0,34,2,788,9,F,1,right,nan,0,1,,,,,,,,,,,,,,,,,,,,,1,,,,,,,,,,,,,,,,,,,,,,,,,,,,,,,,,,,,,,,,,,,,,,129,155461,22,Female,1,2024/03/27_14:10:01,YZ,50.485275321403876,
,,,,,,calibration,0,34,2,788,10,N,1,right,0.3427832409943221,0,0,,,,,,,,,,,,,,,,,,,,,1,,,,,,,,,,,,,,,,,,,,,,,,,,,,,,,,,,,,,,,,,,,,,,129,155461,22,Female,1,2024/03/27_14:10:01,YZ,50.485275321403876,
,,,,,,calibration,0,34,2,788,11,V,0,right,nan,0,1,,,,,,,,,,,,,,,,,,,,,1,,,,,,,,,,,,,,,,,,,,,,,,,,,,,,,,,,,,,,,,,,,,,,129,155461,22,Female,1,2024/03/27_14:10:01,YZ,50.485275321403876,
,,,,,,calibration,0,34,2,788,12,N,1,left,0.012406350011588074,1,0,,,,,,,,,,,,,,,,,,,,,1,,,,,,,,,,,,,,,,,,,,,,,,,,,,,,,,,,,,,,,,,,,,,,129,155461,22,Female,1,2024/03/27_14:10:01,YZ,50.485275321403876,
,,,,,,calibration,0,34,2,788,13,X,0,left,nan,0,1,,,,,,,,,,,,,,,,,,,,,1,,,,,,,,,,,,,,,,,,,,,,,,,,,,,,,,,,,,,,,,,,,,,,129,155461,22,Female,1,2024/03/27_14:10:01,YZ,50.485275321403876,
,,,,,,calibration,0,34,2,788,,,,,,,,0.6736111111111112,0.25,0.1111111111111111,0.6666666666666666,0.5384615384615384,0.3504273504273504,0.5427606096709496,1,1,1,6,7,2,3,4,9,0,,,,1,,,,,,,,,,,,,,,,,,,,,,,,,,,,,,,,,,,,,,,,,,,,,,129,155461,22,Female,1,2024/03/27_14:10:01,YZ,50.485275321403876,
,,,,,,Calibration,0,,2,788,,,,,,,,,,,,,,,,,,,,,,,,,3,,,1,,,,,,,,,,,,,,,,,,,,,,,,,,,,,,,,,,,,,,,,,,,,,,129,155461,22,Female,1,2024/03/27_14:10:01,YZ,50.485275321403876,
,,,,,,calibration,0,14,2,917,1,Q,0,None,nan,0,1,,,,,,,,,,,,,,,,,,,,,1,,,,,,,,,,,,,,,,,,,,,,,,,,,,,,,,,,,,,,,,,,,,,,129,155461,22,Female,1,2024/03/27_14:10:01,YZ,50.485275321403876,
,,,,,,calibration,0,14,2,917,2,V,0,None,nan,0,1,,,,,,,,,,,,,,,,,,,,,1,,,,,,,,,,,,,,,,,,,,,,,,,,,,,,,,,,,,,,,,,,,,,,129,155461,22,Female,1,2024/03/27_14:10:01,YZ,50.485275321403876,
,,,,,,calibration,0,14,2,917,3,S,0,right,0.6741144539992092,1,0,,,,,,,,,,,,,,,,,,,,,1,,,,,,,,,,,,,,,,,,,,,,,,,,,,,,,,,,,,,,,,,,,,,,129,155461,22,Female,1,2024/03/27_14:10:01,YZ,50.485275321403876,
,,,,,,calibration,0,14,2,917,4,N,0,left,0.8118572370003676,0,0,,,,,,,,,,,,,,,,,,,,,1,,,,,,,,,,,,,,,,,,,,,,,,,,,,,,,,,,,,,,,,,,,,,,129,155461,22,Female,1,2024/03/27_14:10:01,YZ,50.485275321403876,
,,,,,,calibration,0,14,2,917,5,F,0,right,0.792011088997242,1,0,,,,,,,,,,,,,,,,,,,,,1,,,,,,,,,,,,,,,,,,,,,,,,,,,,,,,,,,,,,,,,,,,,,,129,155461,22,Female,1,2024/03/27_14:10:01,YZ,50.485275321403876,
,,,,,,calibration,0,14,2,917,6,S,0,right,0.42614394999691285,1,0,,,,,,,,,,,,,,,,,,,,,1,,,,,,,,,,,,,,,,,,,,,,,,,,,,,,,,,,,,,,,,,,,,,,129,155461,22,Female,1,2024/03/27_14:10:01,YZ,50.485275321403876,
,,,,,,calibration,0,14,2,917,7,F,1,right,0.5344881649944,0,0,,,,,,,,,,,,,,,,,,,,,1,,,,,,,,,,,,,,,,,,,,,,,,,,,,,,,,,,,,,,,,,,,,,,129,155461,22,Female,1,2024/03/27_14:10:01,YZ,50.485275321403876,
,,,,,,calibration,0,14,2,917,8,J,0,right,0.4350275480101118,1,0,,,,,,,,,,,,,,,,,,,,,1,,,,,,,,,,,,,,,,,,,,,,,,,,,,,,,,,,,,,,,,,,,,,,129,155461,22,Female,1,2024/03/27_14:10:01,YZ,50.485275321403876,
,,,,,,calibration,0,14,2,917,9,F,1,right,0.633021630012081,0,0,,,,,,,,,,,,,,,,,,,,,1,,,,,,,,,,,,,,,,,,,,,,,,,,,,,,,,,,,,,,,,,,,,,,129,155461,22,Female,1,2024/03/27_14:10:01,YZ,50.485275321403876,
,,,,,,calibration,0,14,2,917,10,X,0,right,0.4978075489925686,1,0,,,,,,,,,,,,,,,,,,,,,1,,,,,,,,,,,,,,,,,,,,,,,,,,,,,,,,,,,,,,,,,,,,,,129,155461,22,Female,1,2024/03/27_14:10:01,YZ,50.485275321403876,
,,,,,,calibration,0,14,2,917,11,F,1,left,0.46722238999791443,1,0,,,,,,,,,,,,,,,,,,,,,1,,,,,,,,,,,,,,,,,,,,,,,,,,,,,,,,,,,,,,,,,,,,,,129,155461,22,Female,1,2024/03/27_14:10:01,YZ,50.485275321403876,
,,,,,,calibration,0,14,2,917,12,Q,0,right,0.3538125380000565,1,0,,,,,,,,,,,,,,,,,,,,,1,,,,,,,,,,,,,,,,,,,,,,,,,,,,,,,,,,,,,,,,,,,,,,129,155461,22,Female,1,2024/03/27_14:10:01,YZ,50.485275321403876,
,,,,,,calibration,0,14,2,917,,,,,,,,0.7222222222222222,0.3333333333333333,0.1111111111111111,0.8571428571428571,0.16666666666666666,0.7222222222222222,0.5625506550000864,1,1,0,2,2,6,7,3,9,0,,,,1,,,,,,,,,,,,,,,,,,,,,,,,,,,,,,,,,,,,,,,,,,,,,,129,155461,22,Female,1,2024/03/27_14:10:01,YZ,50.485275321403876,
,,,,,,Calibration,0,,2,917,,,,,,,,,,,,,,,,,,,,,,,,,4,,,1,,,,,,,,,,,,,,,,,,,,,,,,,,,,,,,,,,,,,,,,,,,,,,129,155461,22,Female,1,2024/03/27_14:10:01,YZ,50.485275321403876,
,,,,,,calibration,0,12,2,1068,1,C,0,None,nan,0,1,,,,,,,,,,,,,,,,,,,,,1,,,,,,,,,,,,,,,,,,,,,,,,,,,,,,,,,,,,,,,,,,,,,,129,155461,22,Female,1,2024/03/27_14:10:01,YZ,50.485275321403876,
,,,,,,calibration,0,12,2,1068,2,J,0,None,nan,0,1,,,,,,,,,,,,,,,,,,,,,1,,,,,,,,,,,,,,,,,,,,,,,,,,,,,,,,,,,,,,,,,,,,,,129,155461,22,Female,1,2024/03/27_14:10:01,YZ,50.485275321403876,
,,,,,,calibration,0,12,2,1068,3,X,0,right,0.40279066799848806,1,0,,,,,,,,,,,,,,,,,,,,,1,,,,,,,,,,,,,,,,,,,,,,,,,,,,,,,,,,,,,,,,,,,,,,129,155461,22,Female,1,2024/03/27_14:10:01,YZ,50.485275321403876,
,,,,,,calibration,0,12,2,1068,4,S,0,left,1.3651314589951653,0,0,,,,,,,,,,,,,,,,,,,,,1,,,,,,,,,,,,,,,,,,,,,,,,,,,,,,,,,,,,,,,,,,,,,,129,155461,22,Female,1,2024/03/27_14:10:01,YZ,50.485275321403876,
,,,,,,calibration,0,12,2,1068,5,C,0,right,0.4923887890035985,1,0,,,,,,,,,,,,,,,,,,,,,1,,,,,,,,,,,,,,,,,,,,,,,,,,,,,,,,,,,,,,,,,,,,,,129,155461,22,Female,1,2024/03/27_14:10:01,YZ,50.485275321403876,
,,,,,,calibration,0,12,2,1068,6,S,1,right,nan,0,1,,,,,,,,,,,,,,,,,,,,,1,,,,,,,,,,,,,,,,,,,,,,,,,,,,,,,,,,,,,,,,,,,,,,129,155461,22,Female,1,2024/03/27_14:10:01,YZ,50.485275321403876,
,,,,,,calibration,0,12,2,1068,7,C,1,right,0.356259615989984,0,0,,,,,,,,,,,,,,,,,,,,,1,,,,,,,,,,,,,,,,,,,,,,,,,,,,,,,,,,,,,,,,,,,,,,129,155461,22,Female,1,2024/03/27_14:10:01,YZ,50.485275321403876,
,,,,,,calibration,0,12,2,1068,8,N,0,right,0.40450221599894576,1,0,,,,,,,,,,,,,,,,,,,,,1,,,,,,,,,,,,,,,,,,,,,,,,,,,,,,,,,,,,,,,,,,,,,,129,155461,22,Female,1,2024/03/27_14:10:01,YZ,50.485275321403876,
,,,,,,calibration,0,12,2,1068,9,J,0,right,1.028673656997853,1,0,,,,,,,,,,,,,,,,,,,,,1,,,,,,,,,,,,,,,,,,,,,,,,,,,,,,,,,,,,,,,,,,,,,,129,155461,22,Female,1,2024/03/27_14:10:01,YZ,50.485275321403876,
,,,,,,calibration,0,12,2,1068,10,S,0,right,0.6278987389960093,1,0,,,,,,,,,,,,,,,,,,,,,1,,,,,,,,,,,,,,,,,,,,,,,,,,,,,,,,,,,,,,,,,,,,,,129,155461,22,Female,1,2024/03/27_14:10:01,YZ,50.485275321403876,
,,,,,,calibration,0,12,2,1068,11,J,1,right,0.38501033899956383,0,0,,,,,,,,,,,,,,,,,,,,,1,,,,,,,,,,,,,,,,,,,,,,,,,,,,,,,,,,,,,,,,,,,,,,129,155461,22,Female,1,2024/03/27_14:10:01,YZ,50.485275321403876,
,,,,,,calibration,0,12,2,1068,,,,,,,,0.21875,0.0,0.125,0.8333333333333334,0.2727272727272727,0.6022727272727273,0.632831935372451,0,1,1,2,3,5,5,3,8,0,,,,1,,,,,,,,,,,,,,,,,,,,,,,,,,,,,,,,,,,,,,,,,,,,,,129,155461,22,Female,1,2024/03/27_14:10:01,YZ,50.485275321403876,
,,,,,,Calibration,0,,2,1068,,,,,,,,,,,,,,,,,,,,,,,,,5,,,1,,,,,,,,,,,,,,,,,,,,,,,,,,,,,,,,,,,,,,,,,,,,,,129,155461,22,Female,1,2024/03/27_14:10:01,YZ,50.485275321403876,
,,,,,,calibration,0,16,2,1250,1,S,0,None,nan,0,1,,,,,,,,,,,,,,,,,,,,,1,,,,,,,,,,,,,,,,,,,,,,,,,,,,,,,,,,,,,,,,,,,,,,129,155461,22,Female,1,2024/03/27_14:10:01,YZ,50.485275321403876,
,,,,,,calibration,0,16,2,1250,2,C,0,right,0.8717180630046641,1,0,,,,,,,,,,,,,,,,,,,,,1,,,,,,,,,,,,,,,,,,,,,,,,,,,,,,,,,,,,,,,,,,,,,,129,155461,22,Female,1,2024/03/27_14:10:01,YZ,50.485275321403876,
,,,,,,calibration,0,16,2,1250,3,S,1,right,0.4210499170003459,0,0,,,,,,,,,,,,,,,,,,,,,1,,,,,,,,,,,,,,,,,,,,,,,,,,,,,,,,,,,,,,,,,,,,,,129,155461,22,Female,1,2024/03/27_14:10:01,YZ,50.485275321403876,
,,,,,,calibration,0,16,2,1250,4,Q,0,right,nan,0,1,,,,,,,,,,,,,,,,,,,,,1,,,,,,,,,,,,,,,,,,,,,,,,,,,,,,,,,,,,,,,,,,,,,,129,155461,22,Female,1,2024/03/27_14:10:01,YZ,50.485275321403876,
,,,,,,calibration,0,16,2,1250,5,X,0,right,0.7911613799951738,1,0,,,,,,,,,,,,,,,,,,,,,1,,,,,,,,,,,,,,,,,,,,,,,,,,,,,,,,,,,,,,,,,,,,,,129,155461,22,Female,1,2024/03/27_14:10:01,YZ,50.485275321403876,
,,,,,,calibration,0,16,2,1250,6,Q,1,left,0.8504858319938648,1,0,,,,,,,,,,,,,,,,,,,,,1,,,,,,,,,,,,,,,,,,,,,,,,,,,,,,,,,,,,,,,,,,,,,,129,155461,22,Female,1,2024/03/27_14:10:01,YZ,50.485275321403876,
,,,,,,calibration,0,16,2,1250,7,C,0,right,0.5345493249915307,1,0,,,,,,,,,,,,,,,,,,,,,1,,,,,,,,,,,,,,,,,,,,,,,,,,,,,,,,,,,,,,,,,,,,,,129,155461,22,Female,1,2024/03/27_14:10:01,YZ,50.485275321403876,
,,,,,,calibration,0,16,2,1250,8,Q,1,right,0.7131947849993594,0,0,,,,,,,,,,,,,,,,,,,,,1,,,,,,,,,,,,,,,,,,,,,,,,,,,,,,,,,,,,,,,,,,,,,,129,155461,22,Female,1,2024/03/27_14:10:01,YZ,50.485275321403876,
,,,,,,calibration,0,16,2,1250,9,N,0,right,1.025961142993765,1,0,,,,,,,,,,,,,,,,,,,,,1,,,,,,,,,,,,,,,,,,,,,,,,,,,,,,,,,,,,,,,,,,,,,,129,155461,22,Female,1,2024/03/27_14:10:01,YZ,50.485275321403876,
,,,,,,calibration,0,16,2,1250,10,J,0,right,0.6726138899975922,1,0,,,,,,,,,,,,,,,,,,,,,1,,,,,,,,,,,,,,,,,,,,,,,,,,,,,,,,,,,,,,,,,,,,,,129,155461,22,Female,1,2024/03/27_14:10:01,YZ,50.485275321403876,
,,,,,,calibration,0,16,2,1250,,,,,,,,0.8333333333333334,0.3333333333333333,0.0,1.0,0.2,0.8,0.735091791872037,1,0,0,2,2,5,6,3,7,0,,,,1,,,,,,,,,,,,,,,,,,,,,,,,,,,,,,,,,,,,,,,,,,,,,,129,155461,22,Female,1,2024/03/27_14:10:01,YZ,50.485275321403876,
,,,,,,Calibration,0,,2,1250,,,,,,,,,,,,,,,,,,,,,,,,,6,,,1,,,,,,,,,,,,,,,,,,,,,,,,,,,,,,,,,,,,,,,,,,,,,,129,155461,22,Female,1,2024/03/27_14:10:01,YZ,50.485275321403876,
,,,,,,calibration,0,25,2,1250,1,X,0,None,nan,0,1,,,,,,,,,,,,,,,,,,,,,1,,,,,,,,,,,,,,,,,,,,,,,,,,,,,,,,,,,,,,,,,,,,,,129,155461,22,Female,1,2024/03/27_14:10:01,YZ,50.485275321403876,
,,,,,,calibration,0,25,2,1250,2,S,0,None,nan,0,1,,,,,,,,,,,,,,,,,,,,,1,,,,,,,,,,,,,,,,,,,,,,,,,,,,,,,,,,,,,,,,,,,,,,129,155461,22,Female,1,2024/03/27_14:10:01,YZ,50.485275321403876,
,,,,,,calibration,0,25,2,1250,3,X,1,left,0.45222807000391185,1,0,,,,,,,,,,,,,,,,,,,,,1,,,,,,,,,,,,,,,,,,,,,,,,,,,,,,,,,,,,,,,,,,,,,,129,155461,22,Female,1,2024/03/27_14:10:01,YZ,50.485275321403876,
,,,,,,calibration,0,25,2,1250,4,N,0,left,0.9869893750001211,0,0,,,,,,,,,,,,,,,,,,,,,1,,,,,,,,,,,,,,,,,,,,,,,,,,,,,,,,,,,,,,,,,,,,,,129,155461,22,Female,1,2024/03/27_14:10:01,YZ,50.485275321403876,
,,,,,,calibration,0,25,2,1250,5,X,1,right,0.9810972569976002,0,0,,,,,,,,,,,,,,,,,,,,,1,,,,,,,,,,,,,,,,,,,,,,,,,,,,,,,,,,,,,,,,,,,,,,129,155461,22,Female,1,2024/03/27_14:10:01,YZ,50.485275321403876,
,,,,,,calibration,0,25,2,1250,6,J,0,right,0.5686618199979421,1,0,,,,,,,,,,,,,,,,,,,,,1,,,,,,,,,,,,,,,,,,,,,,,,,,,,,,,,,,,,,,,,,,,,,,129,155461,22,Female,1,2024/03/27_14:10:01,YZ,50.485275321403876,
,,,,,,calibration,0,25,2,1250,7,C,0,right,0.5347646660084138,1,0,,,,,,,,,,,,,,,,,,,,,1,,,,,,,,,,,,,,,,,,,,,,,,,,,,,,,,,,,,,,,,,,,,,,129,155461,22,Female,1,2024/03/27_14:10:01,YZ,50.485275321403876,
,,,,,,calibration,0,25,2,1250,8,J,1,left,0.8703707859967835,1,0,,,,,,,,,,,,,,,,,,,,,1,,,,,,,,,,,,,,,,,,,,,,,,,,,,,,,,,,,,,,,,,,,,,,129,155461,22,Female,1,2024/03/27_14:10:01,YZ,50.485275321403876,
,,,,,,calibration,0,25,2,1250,9,V,0,right,0.7319722510001156,1,0,,,,,,,,,,,,,,,,,,,,,1,,,,,,,,,,,,,,,,,,,,,,,,,,,,,,,,,,,,,,,,,,,,,,129,155461,22,Female,1,2024/03/27_14:10:01,YZ,50.485275321403876,
,,,,,,calibration,0,25,2,1250,10,F,0,right,0.5937946959893452,1,0,,,,,,,,,,,,,,,,,,,,,1,,,,,,,,,,,,,,,,,,,,,,,,,,,,,,,,,,,,,,,,,,,,,,129,155461,22,Female,1,2024/03/27_14:10:01,YZ,50.485275321403876,
,,,,,,calibration,0,25,2,1250,,,,,,,,0.8333333333333333,0.6666666666666666,0.14285714285714285,0.8,0.2,0.6571428571428573,0.7149848651242792,2,1,0,2,2,4,6,3,7,0,,,,1,,,,,,,,,,,,,,,,,,,,,,,,,,,,,,,,,,,,,,,,,,,,,,129,155461,22,Female,1,2024/03/27_14:10:01,YZ,50.485275321403876,
,,,,,,Calibration,0,,2,1250,,,,,,,,,,,,,,,,,,,,,,,,,7,,,1,,,,,,,,,,,,,,,,,,,,,,,,,,,,,,,,,,,,,,,,,,,,,,129,155461,22,Female,1,2024/03/27_14:10:01,YZ,50.485275321403876,
,,,,,,calibration,0,17,2,1250,1,Q,0,None,nan,0,1,,,,,,,,,,,,,,,,,,,,,1,,,,,,,,,,,,,,,,,,,,,,,,,,,,,,,,,,,,,,,,,,,,,,129,155461,22,Female,1,2024/03/27_14:10:01,YZ,50.485275321403876,
,,,,,,calibration,0,17,2,1250,2,C,0,None,nan,0,1,,,,,,,,,,,,,,,,,,,,,1,,,,,,,,,,,,,,,,,,,,,,,,,,,,,,,,,,,,,,,,,,,,,,129,155461,22,Female,1,2024/03/27_14:10:01,YZ,50.485275321403876,
,,,,,,calibration,0,17,2,1250,3,S,0,right,0.4266803080099635,1,0,,,,,,,,,,,,,,,,,,,,,1,,,,,,,,,,,,,,,,,,,,,,,,,,,,,,,,,,,,,,,,,,,,,,129,155461,22,Female,1,2024/03/27_14:10:01,YZ,50.485275321403876,
,,,,,,calibration,0,17,2,1250,4,X,0,left,0.6730781350051984,0,0,,,,,,,,,,,,,,,,,,,,,1,,,,,,,,,,,,,,,,,,,,,,,,,,,,,,,,,,,,,,,,,,,,,,129,155461,22,Female,1,2024/03/27_14:10:01,YZ,50.485275321403876,
,,,,,,calibration,0,17,2,1250,5,S,1,right,0.9473061050084652,0,0,,,,,,,,,,,,,,,,,,,,,1,,,,,,,,,,,,,,,,,,,,,,,,,,,,,,,,,,,,,,,,,,,,,,129,155461,22,Female,1,2024/03/27_14:10:01,YZ,50.485275321403876,
,,,,,,calibration,0,17,2,1250,6,V,0,right,nan,0,1,,,,,,,,,,,,,,,,,,,,,1,,,,,,,,,,,,,,,,,,,,,,,,,,,,,,,,,,,,,,,,,,,,,,129,155461,22,Female,1,2024/03/27_14:10:01,YZ,50.485275321403876,
,,,,,,calibration,0,17,2,1250,7,J,0,right,0.6335158449946903,1,0,,,,,,,,,,,,,,,,,,,,,1,,,,,,,,,,,,,,,,,,,,,,,,,,,,,,,,,,,,,,,,,,,,,,129,155461,22,Female,1,2024/03/27_14:10:01,YZ,50.485275321403876,
,,,,,,calibration,0,17,2,1250,8,V,1,right,0.7112743390025571,0,0,,,,,,,,,,,,,,,,,,,,,1,,,,,,,,,,,,,,,,,,,,,,,,,,,,,,,,,,,,,,,,,,,,,,129,155461,22,Female,1,2024/03/27_14:10:01,YZ,50.485275321403876,
,,,,,,calibration,0,17,2,1250,9,S,0,right,nan,0,1,,,,,,,,,,,,,,,,,,,,,1,,,,,,,,,,,,,,,,,,,,,,,,,,,,,,,,,,,,,,,,,,,,,,129,155461,22,Female,1,2024/03/27_14:10:01,YZ,50.485275321403876,
,,,,,,calibration,0,17,2,1250,10,V,1,right,0.5933562369900756,0,0,,,,,,,,,,,,,,,,,,,,,1,,,,,,,,,,,,,,,,,,,,,,,,,,,,,,,,,,,,,,,,,,,,,,129,155461,22,Female,1,2024/03/27_14:10:01,YZ,50.485275321403876,
,,,,,,calibration,0,17,2,1250,,,,,,,,0.2142857142857143,0.0,0.14285714285714285,0.6666666666666666,0.4,0.4571428571428572,0.6642018281684917,0,1,0,4,4,2,2,3,7,0,,,,1,,,,,,,,,,,,,,,,,,,,,,,,,,,,,,,,,,,,,,,,,,,,,,129,155461,22,Female,1,2024/03/27_14:10:01,YZ,50.485275321403876,
,,,,,,Calibration,0,,2,1250,,,,,,,,,,,,,,,,,,,,,,,,,8,,,1,,,,,,,,,,,,,,,,,,,,,,,,,,,,,,,,,,,,,,,,,,,,,,129,155461,22,Female,1,2024/03/27_14:10:01,YZ,50.485275321403876,
,,,,,,calibration,0,28,2,1472,1,V,0,None,nan,0,1,,,,,,,,,,,,,,,,,,,,,1,,,,,,,,,,,,,,,,,,,,,,,,,,,,,,,,,,,,,,,,,,,,,,129,155461,22,Female,1,2024/03/27_14:10:01,YZ,50.485275321403876,
,,,,,,calibration,0,28,2,1472,2,S,0,None,nan,0,1,,,,,,,,,,,,,,,,,,,,,1,,,,,,,,,,,,,,,,,,,,,,,,,,,,,,,,,,,,,,,,,,,,,,129,155461,22,Female,1,2024/03/27_14:10:01,YZ,50.485275321403876,
,,,,,,calibration,0,28,2,1472,3,V,1,left,0.6326194110006327,1,0,,,,,,,,,,,,,,,,,,,,,1,,,,,,,,,,,,,,,,,,,,,,,,,,,,,,,,,,,,,,,,,,,,,,129,155461,22,Female,1,2024/03/27_14:10:01,YZ,50.485275321403876,
,,,,,,calibration,0,28,2,1472,4,Q,0,left,0.9501866029895609,0,0,,,,,,,,,,,,,,,,,,,,,1,,,,,,,,,,,,,,,,,,,,,,,,,,,,,,,,,,,,,,,,,,,,,,129,155461,22,Female,1,2024/03/27_14:10:01,YZ,50.485275321403876,
,,,,,,calibration,0,28,2,1472,5,V,1,left,0.0,1,0,,,,,,,,,,,,,,,,,,,,,1,,,,,,,,,,,,,,,,,,,,,,,,,,,,,,,,,,,,,,,,,,,,,,129,155461,22,Female,1,2024/03/27_14:10:01,YZ,50.485275321403876,
,,,,,,calibration,0,28,2,1472,6,F,0,left,0.0,0,0,,,,,,,,,,,,,,,,,,,,,1,,,,,,,,,,,,,,,,,,,,,,,,,,,,,,,,,,,,,,,,,,,,,,129,155461,22,Female,1,2024/03/27_14:10:01,YZ,50.485275321403876,
,,,,,,calibration,0,28,2,1472,7,X,0,left,nan,0,1,,,,,,,,,,,,,,,,,,,,,1,,,,,,,,,,,,,,,,,,,,,,,,,,,,,,,,,,,,,,,,,,,,,,129,155461,22,Female,1,2024/03/27_14:10:01,YZ,50.485275321403876,
,,,,,,calibration,0,28,2,1472,8,N,0,right,0.33275196299655363,1,0,,,,,,,,,,,,,,,,,,,,,1,,,,,,,,,,,,,,,,,,,,,,,,,,,,,,,,,,,,,,,,,,,,,,129,155461,22,Female,1,2024/03/27_14:10:01,YZ,50.485275321403876,
,,,,,,calibration,0,28,2,1472,9,X,1,right,0.42722587200114504,0,0,,,,,,,,,,,,,,,,,,,,,1,,,,,,,,,,,,,,,,,,,,,,,,,,,,,,,,,,,,,,,,,,,,,,129,155461,22,Female,1,2024/03/27_14:10:01,YZ,50.485275321403876,
,,,,,,calibration,0,28,2,1472,,,,,,,,0.7222222222222222,0.6666666666666666,0.3333333333333333,0.3333333333333333,0.3333333333333333,0.3333333333333334,0.3904639748313154,2,2,0,3,3,1,3,3,6,0,,,,1,,,,,,,,,,,,,,,,,,,,,,,,,,,,,,,,,,,,,,,,,,,,,,129,155461,22,Female,1,2024/03/27_14:10:01,YZ,50.485275321403876,
,,,,,,Calibration,0,,2,1472,,,,,,,,,,,,,,,,,,,,,,,,,9,,,1,,,,,,,,,,,,,,,,,,,,,,,,,,,,,,,,,,,,,,,,,,,,,,129,155461,22,Female,1,2024/03/27_14:10:01,YZ,50.485275321403876,
,,,,,,calibration,0,34,2,1750,1,C,0,None,nan,0,1,,,,,,,,,,,,,,,,,,,,,1,,,,,,,,,,,,,,,,,,,,,,,,,,,,,,,,,,,,,,,,,,,,,,129,155461,22,Female,1,2024/03/27_14:10:01,YZ,50.485275321403876,
,,,,,,calibration,0,34,2,1750,2,N,0,None,nan,0,1,,,,,,,,,,,,,,,,,,,,,1,,,,,,,,,,,,,,,,,,,,,,,,,,,,,,,,,,,,,,,,,,,,,,129,155461,22,Female,1,2024/03/27_14:10:01,YZ,50.485275321403876,
,,,,,,calibration,0,34,2,1750,3,V,0,None,nan,0,1,,,,,,,,,,,,,,,,,,,,,1,,,,,,,,,,,,,,,,,,,,,,,,,,,,,,,,,,,,,,,,,,,,,,129,155461,22,Female,1,2024/03/27_14:10:01,YZ,50.485275321403876,
,,,,,,calibration,0,34,2,1750,4,F,0,None,nan,0,1,,,,,,,,,,,,,,,,,,,,,1,,,,,,,,,,,,,,,,,,,,,,,,,,,,,,,,,,,,,,,,,,,,,,129,155461,22,Female,1,2024/03/27_14:10:01,YZ,50.485275321403876,
,,,,,,calibration,0,34,2,1750,5,N,0,right,0.3032292590069119,1,0,,,,,,,,,,,,,,,,,,,,,1,,,,,,,,,,,,,,,,,,,,,,,,,,,,,,,,,,,,,,,,,,,,,,129,155461,22,Female,1,2024/03/27_14:10:01,YZ,50.485275321403876,
,,,,,,calibration,0,34,2,1750,6,F,1,right,nan,0,1,,,,,,,,,,,,,,,,,,,,,1,,,,,,,,,,,,,,,,,,,,,,,,,,,,,,,,,,,,,,,,,,,,,,129,155461,22,Female,1,2024/03/27_14:10:01,YZ,50.485275321403876,
,,,,,,calibration,0,34,2,1750,7,N,1,right,0.03360741399228573,0,0,,,,,,,,,,,,,,,,,,,,,1,,,,,,,,,,,,,,,,,,,,,,,,,,,,,,,,,,,,,,,,,,,,,,129,155461,22,Female,1,2024/03/27_14:10:01,YZ,50.485275321403876,
,,,,,,calibration,0,34,2,1750,8,Q,0,right,0.0,1,0,,,,,,,,,,,,,,,,,,,,,1,,,,,,,,,,,,,,,,,,,,,,,,,,,,,,,,,,,,,,,,,,,,,,129,155461,22,Female,1,2024/03/27_14:10:01,YZ,50.485275321403876,
,,,,,,calibration,0,34,2,1750,,,,,,,,0.5,0.0,0.0,1.0,0.625,0.375,0.11227889099973254,0,0,1,4,5,2,2,2,6,0,,,,1,,,,,,,,,,,,,,,,,,,,,,,,,,,,,,,,,,,,,,,,,,,,,,129,155461,22,Female,1,2024/03/27_14:10:01,YZ,50.485275321403876,
,,,,,,Calibration,0,,2,1750,,,,,,,,,,,,,,,,,,,,,,,,,10,,,1,,,,,,,,,,,,,,,,,,,,,,,,,,,,,,,,,,,,,,,,,,,,,,129,155461,22,Female,1,2024/03/27_14:10:01,YZ,50.485275321403876,
,,,,,,calibration,0,16,2,2107,1,Q,0,None,nan,0,1,,,,,,,,,,,,,,,,,,,,,1,,,,,,,,,,,,,,,,,,,,,,,,,,,,,,,,,,,,,,,,,,,,,,129,155461,22,Female,1,2024/03/27_14:10:01,YZ,50.485275321403876,
,,,,,,calibration,0,16,2,2107,2,F,0,None,nan,0,1,,,,,,,,,,,,,,,,,,,,,1,,,,,,,,,,,,,,,,,,,,,,,,,,,,,,,,,,,,,,,,,,,,,,129,155461,22,Female,1,2024/03/27_14:10:01,YZ,50.485275321403876,
,,,,,,calibration,0,16,2,2107,3,X,0,right,0.4455806180048967,1,0,,,,,,,,,,,,,,,,,,,,,1,,,,,,,,,,,,,,,,,,,,,,,,,,,,,,,,,,,,,,,,,,,,,,129,155461,22,Female,1,2024/03/27_14:10:01,YZ,50.485275321403876,
,,,,,,calibration,0,16,2,2107,4,F,1,left,1.0488228610047372,1,0,,,,,,,,,,,,,,,,,,,,,1,,,,,,,,,,,,,,,,,,,,,,,,,,,,,,,,,,,,,,,,,,,,,,129,155461,22,Female,1,2024/03/27_14:10:01,YZ,50.485275321403876,
,,,,,,calibration,0,16,2,2107,5,J,0,right,0.7133077710022917,1,0,,,,,,,,,,,,,,,,,,,,,1,,,,,,,,,,,,,,,,,,,,,,,,,,,,,,,,,,,,,,,,,,,,,,129,155461,22,Female,1,2024/03/27_14:10:01,YZ,50.485275321403876,
,,,,,,calibration,0,16,2,2107,6,F,1,left,0.5353991949959891,1,0,,,,,,,,,,,,,,,,,,,,,1,,,,,,,,,,,,,,,,,,,,,,,,,,,,,,,,,,,,,,,,,,,,,,129,155461,22,Female,1,2024/03/27_14:10:01,YZ,50.485275321403876,
,,,,,,calibration,0,16,2,2107,7,V,0,right,0.4948888319922844,1,0,,,,,,,,,,,,,,,,,,,,,1,,,,,,,,,,,,,,,,,,,,,,,,,,,,,,,,,,,,,,,,,,,,,,129,155461,22,Female,1,2024/03/27_14:10:01,YZ,50.485275321403876,
,,,,,,calibration,0,16,2,2107,,,,,,,,1.0,1.0,0.0,1.0,0.2857142857142857,0.7142857142857143,0.6475998554000398,2,0,0,2,2,3,5,2,5,0,,,,1,,,,,,,,,,,,,,,,,,,,,,,,,,,,,,,,,,,,,,,,,,,,,,129,155461,22,Female,1,2024/03/27_14:10:01,YZ,50.485275321403876,
,,,,,,Calibration,0,,2,2107,,,,,,,,,,,,,,,,,,,,,,,,,11,,,1,,,,,,,,,,,,,,,,,,,,,,,,,,,,,,,,,,,,,,,,,,,,,,129,155461,22,Female,1,2024/03/27_14:10:01,YZ,50.485275321403876,
,,,,,,calibration,0,26,2,1750,1,F,0,None,nan,0,1,,,,,,,,,,,,,,,,,,,,,1,,,,,,,,,,,,,,,,,,,,,,,,,,,,,,,,,,,,,,,,,,,,,,129,155461,22,Female,1,2024/03/27_14:10:01,YZ,50.485275321403876,
,,,,,,calibration,0,26,2,1750,2,F,0,None,nan,0,1,,,,,,,,,,,,,,,,,,,,,1,,,,,,,,,,,,,,,,,,,,,,,,,,,,,,,,,,,,,,,,,,,,,,129,155461,22,Female,1,2024/03/27_14:10:01,YZ,50.485275321403876,
,,,,,,calibration,0,26,2,1750,3,S,0,right,0.751287503997446,1,0,,,,,,,,,,,,,,,,,,,,,1,,,,,,,,,,,,,,,,,,,,,,,,,,,,,,,,,,,,,,,,,,,,,,129,155461,22,Female,1,2024/03/27_14:10:01,YZ,50.485275321403876,
,,,,,,calibration,0,26,2,1750,4,F,1,left,0.6296759219985688,1,0,,,,,,,,,,,,,,,,,,,,,1,,,,,,,,,,,,,,,,,,,,,,,,,,,,,,,,,,,,,,,,,,,,,,129,155461,22,Female,1,2024/03/27_14:10:01,YZ,50.485275321403876,
,,,,,,calibration,0,26,2,1750,5,Q,0,right,0.8116487660008715,1,0,,,,,,,,,,,,,,,,,,,,,1,,,,,,,,,,,,,,,,,,,,,,,,,,,,,,,,,,,,,,,,,,,,,,129,155461,22,Female,1,2024/03/27_14:10:01,YZ,50.485275321403876,
,,,,,,calibration,0,26,2,1750,6,F,1,left,0.8327174129954074,1,0,,,,,,,,,,,,,,,,,,,,,1,,,,,,,,,,,,,,,,,,,,,,,,,,,,,,,,,,,,,,,,,,,,,,129,155461,22,Female,1,2024/03/27_14:10:01,YZ,50.485275321403876,
,,,,,,calibration,0,26,2,1750,7,X,0,right,0.5152729940018617,1,0,,,,,,,,,,,,,,,,,,,,,1,,,,,,,,,,,,,,,,,,,,,,,,,,,,,,,,,,,,,,,,,,,,,,129,155461,22,Female,1,2024/03/27_14:10:01,YZ,50.485275321403876,
,,,,,,calibration,0,26,2,1750,8,S,0,right,0.7521216539898887,1,0,,,,,,,,,,,,,,,,,,,,,1,,,,,,,,,,,,,,,,,,,,,,,,,,,,,,,,,,,,,,,,,,,,,,129,155461,22,Female,1,2024/03/27_14:10:01,YZ,50.485275321403876,
,,,,,,calibration,0,26,2,1750,,,,,,,,1.0,1.0,0.0,1.0,0.25,0.75,0.7154540421640073,2,0,0,2,2,4,6,2,6,0,,,,1,,,,,,,,,,,,,,,,,,,,,,,,,,,,,,,,,,,,,,,,,,,,,,129,155461,22,Female,1,2024/03/27_14:10:01,YZ,50.485275321403876,
,,,,,,Calibration,0,,2,1750,,,,,,,,,,,,,,,,,,,,,,,,,12,,,1,,,,,,,,,,,,,,,,,,,,,,,,,,,,,,,,,,,,,,,,,,,,,,129,155461,22,Female,1,2024/03/27_14:10:01,YZ,50.485275321403876,
,,,,,,calibration,0,28,2,1472,1,V,0,None,nan,0,1,,,,,,,,,,,,,,,,,,,,,1,,,,,,,,,,,,,,,,,,,,,,,,,,,,,,,,,,,,,,,,,,,,,,129,155461,22,Female,1,2024/03/27_14:10:01,YZ,50.485275321403876,
,,,,,,calibration,0,28,2,1472,2,S,0,None,nan,0,1,,,,,,,,,,,,,,,,,,,,,1,,,,,,,,,,,,,,,,,,,,,,,,,,,,,,,,,,,,,,,,,,,,,,129,155461,22,Female,1,2024/03/27_14:10:01,YZ,50.485275321403876,
,,,,,,calibration,0,28,2,1472,3,V,1,left,0.4787593360088067,1,0,,,,,,,,,,,,,,,,,,,,,1,,,,,,,,,,,,,,,,,,,,,,,,,,,,,,,,,,,,,,,,,,,,,,129,155461,22,Female,1,2024/03/27_14:10:01,YZ,50.485275321403876,
,,,,,,calibration,0,28,2,1472,4,Q,0,right,0.7917113230068935,1,0,,,,,,,,,,,,,,,,,,,,,1,,,,,,,,,,,,,,,,,,,,,,,,,,,,,,,,,,,,,,,,,,,,,,129,155461,22,Female,1,2024/03/27_14:10:01,YZ,50.485275321403876,
,,,,,,calibration,0,28,2,1472,5,V,1,left,0.7710063660051674,1,0,,,,,,,,,,,,,,,,,,,,,1,,,,,,,,,,,,,,,,,,,,,,,,,,,,,,,,,,,,,,,,,,,,,,129,155461,22,Female,1,2024/03/27_14:10:01,YZ,50.485275321403876,
,,,,,,calibration,0,28,2,1472,6,F,0,right,0.5543093599990243,1,0,,,,,,,,,,,,,,,,,,,,,1,,,,,,,,,,,,,,,,,,,,,,,,,,,,,,,,,,,,,,,,,,,,,,129,155461,22,Female,1,2024/03/27_14:10:01,YZ,50.485275321403876,
,,,,,,calibration,0,28,2,1472,7,X,0,right,0.771894338002312,1,0,,,,,,,,,,,,,,,,,,,,,1,,,,,,,,,,,,,,,,,,,,,,,,,,,,,,,,,,,,,,,,,,,,,,129,155461,22,Female,1,2024/03/27_14:10:01,YZ,50.485275321403876,
,,,,,,calibration,0,28,2,1472,8,N,0,right,0.8846288750064559,1,0,,,,,,,,,,,,,,,,,,,,,1,,,,,,,,,,,,,,,,,,,,,,,,,,,,,,,,,,,,,,,,,,,,,,129,155461,22,Female,1,2024/03/27_14:10:01,YZ,50.485275321403876,
,,,,,,calibration,0,28,2,1472,9,X,1,left,0.7714060909929685,1,0,,,,,,,,,,,,,,,,,,,,,1,,,,,,,,,,,,,,,,,,,,,,,,,,,,,,,,,,,,,,,,,,,,,,129,155461,22,Female,1,2024/03/27_14:10:01,YZ,50.485275321403876,
,,,,,,calibration,0,28,2,1472,,,,,,,,1.0,1.0,0.0,1.0,0.2222222222222222,0.7777777777777778,0.7176736698602326,3,0,0,2,2,4,7,3,6,0,,,,1,,,,,,,,,,,,,,,,,,,,,,,,,,,,,,,,,,,,,,,,,,,,,,129,155461,22,Female,1,2024/03/27_14:10:01,YZ,50.485275321403876,
,,,,,,Calibration,0,,2,1472,,,,,,,,,,,,,,,,,,,,,,,,,13,,,1,,,,,,,,,,,,,,,,,,,,,,,,,,,,,,,,,,,,,,,,,,,,,,129,155461,22,Female,1,2024/03/27_14:10:01,YZ,50.485275321403876,
,,,,,,calibration,0,10,2,1250,1,J,0,None,nan,0,1,,,,,,,,,,,,,,,,,,,,,1,,,,,,,,,,,,,,,,,,,,,,,,,,,,,,,,,,,,,,,,,,,,,,129,155461,22,Female,1,2024/03/27_14:10:01,YZ,50.485275321403876,
,,,,,,calibration,0,10,2,1250,2,F,0,None,nan,0,1,,,,,,,,,,,,,,,,,,,,,1,,,,,,,,,,,,,,,,,,,,,,,,,,,,,,,,,,,,,,,,,,,,,,129,155461,22,Female,1,2024/03/27_14:10:01,YZ,50.485275321403876,
,,,,,,calibration,0,10,2,1250,3,J,1,right,0.5347057019971544,0,0,,,,,,,,,,,,,,,,,,,,,1,,,,,,,,,,,,,,,,,,,,,,,,,,,,,,,,,,,,,,,,,,,,,,129,155461,22,Female,1,2024/03/27_14:10:01,YZ,50.485275321403876,
,,,,,,calibration,0,10,2,1250,4,F,1,left,0.7917671079922002,1,0,,,,,,,,,,,,,,,,,,,,,1,,,,,,,,,,,,,,,,,,,,,,,,,,,,,,,,,,,,,,,,,,,,,,129,155461,22,Female,1,2024/03/27_14:10:01,YZ,50.485275321403876,
,,,,,,calibration,0,10,2,1250,5,N,0,right,0.48540660699654836,1,0,,,,,,,,,,,,,,,,,,,,,1,,,,,,,,,,,,,,,,,,,,,,,,,,,,,,,,,,,,,,,,,,,,,,129,155461,22,Female,1,2024/03/27_14:10:01,YZ,50.485275321403876,
,,,,,,calibration,0,10,2,1250,6,F,1,left,0.5542089489899809,1,0,,,,,,,,,,,,,,,,,,,,,1,,,,,,,,,,,,,,,,,,,,,,,,,,,,,,,,,,,,,,,,,,,,,,129,155461,22,Female,1,2024/03/27_14:10:01,YZ,50.485275321403876,
,,,,,,calibration,0,10,2,1250,7,V,0,right,0.48705560600501485,1,0,,,,,,,,,,,,,,,,,,,,,1,,,,,,,,,,,,,,,,,,,,,,,,,,,,,,,,,,,,,,,,,,,,,,129,155461,22,Female,1,2024/03/27_14:10:01,YZ,50.485275321403876,
,,,,,,calibration,0,10,2,1250,8,N,0,right,0.6890419970004587,1,0,,,,,,,,,,,,,,,,,,,,,1,,,,,,,,,,,,,,,,,,,,,,,,,,,,,,,,,,,,,,,,,,,,,,129,155461,22,Female,1,2024/03/27_14:10:01,YZ,50.485275321403876,
,,,,,,calibration,0,10,2,1250,9,C,0,right,0.5547404819953954,1,0,,,,,,,,,,,,,,,,,,,,,1,,,,,,,,,,,,,,,,,,,,,,,,,,,,,,,,,,,,,,,,,,,,,,129,155461,22,Female,1,2024/03/27_14:10:01,YZ,50.485275321403876,
,,,,,,calibration,0,10,2,1250,10,Q,0,right,0.8695192860031966,1,0,,,,,,,,,,,,,,,,,,,,,1,,,,,,,,,,,,,,,,,,,,,,,,,,,,,,,,,,,,,,,,,,,,,,129,155461,22,Female,1,2024/03/27_14:10:01,YZ,50.485275321403876,
,,,,,,calibration,0,10,2,1250,,,,,,,,0.9166666666666666,0.6666666666666666,0.0,1.0,0.2,0.8,0.6208057171224937,2,0,0,2,2,5,7,3,7,0,,,,1,,,,,,,,,,,,,,,,,,,,,,,,,,,,,,,,,,,,,,,,,,,,,,129,155461,22,Female,1,2024/03/27_14:10:01,YZ,50.485275321403876,
,,,,,,Calibration,0,,2,1250,,,,,,,,,,,,,,,,,,,,,,,,,14,,,1,,,,,,,,,,,,,,,,,,,,,,,,,,,,,,,,,,,,,,,,,,,,,,129,155461,22,Female,1,2024/03/27_14:10:01,YZ,50.485275321403876,
,,,,,,calibration,0,3,2,1068,1,J,0,right,0.5344766080088448,1,0,,,,,,,,,,,,,,,,,,,,,1,,,,,,,,,,,,,,,,,,,,,,,,,,,,,,,,,,,,,,,,,,,,,,129,155461,22,Female,1,2024/03/27_14:10:01,YZ,50.485275321403876,
,,,,,,calibration,0,3,2,1068,2,F,0,right,0.0,1,0,,,,,,,,,,,,,,,,,,,,,1,,,,,,,,,,,,,,,,,,,,,,,,,,,,,,,,,,,,,,,,,,,,,,129,155461,22,Female,1,2024/03/27_14:10:01,YZ,50.485275321403876,
,,,,,,calibration,0,3,2,1068,3,S,0,right,0.0,1,0,,,,,,,,,,,,,,,,,,,,,1,,,,,,,,,,,,,,,,,,,,,,,,,,,,,,,,,,,,,,,,,,,,,,129,155461,22,Female,1,2024/03/27_14:10:01,YZ,50.485275321403876,
,,,,,,calibration,0,3,2,1068,4,Q,0,right,0.8899231650138972,1,0,,,,,,,,,,,,,,,,,,,,,1,,,,,,,,,,,,,,,,,,,,,,,,,,,,,,,,,,,,,,,,,,,,,,129,155461,22,Female,1,2024/03/27_14:10:01,YZ,50.485275321403876,
,,,,,,calibration,0,3,2,1068,5,X,0,right,0.45144484800403006,1,0,,,,,,,,,,,,,,,,,,,,,1,,,,,,,,,,,,,,,,,,,,,,,,,,,,,,,,,,,,,,,,,,,,,,129,155461,22,Female,1,2024/03/27_14:10:01,YZ,50.485275321403876,
,,,,,,calibration,0,3,2,1068,6,Q,1,right,0.4663959409954259,0,0,,,,,,,,,,,,,,,,,,,,,1,,,,,,,,,,,,,,,,,,,,,,,,,,,,,,,,,,,,,,,,,,,,,,129,155461,22,Female,1,2024/03/27_14:10:01,YZ,50.485275321403876,
,,,,,,calibration,0,3,2,1068,7,V,0,right,0.554214461997617,1,0,,,,,,,,,,,,,,,,,,,,,1,,,,,,,,,,,,,,,,,,,,,,,,,,,,,,,,,,,,,,,,,,,,,,129,155461,22,Female,1,2024/03/27_14:10:01,YZ,50.485275321403876,
,,,,,,calibration,0,3,2,1068,8,Q,1,right,0.3687575930089224,0,0,,,,,,,,,,,,,,,,,,,,,1,,,,,,,,,,,,,,,,,,,,,,,,,,,,,,,,,,,,,,,,,,,,,,129,155461,22,Female,1,2024/03/27_14:10:01,YZ,50.485275321403876,
,,,,,,calibration,0,3,2,1068,9,C,0,right,0.7912367050012108,1,0,,,,,,,,,,,,,,,,,,,,,1,,,,,,,,,,,,,,,,,,,,,,,,,,,,,,,,,,,,,,,,,,,,,,129,155461,22,Female,1,2024/03/27_14:10:01,YZ,50.485275321403876,
,,,,,,calibration,0,3,2,1068,10,Q,1,left,0.38567759600118734,1,0,,,,,,,,,,,,,,,,,,,,,1,,,,,,,,,,,,,,,,,,,,,,,,,,,,,,,,,,,,,,,,,,,,,,129,155461,22,Female,1,2024/03/27_14:10:01,YZ,50.485275321403876,
,,,,,,calibration,0,3,2,1068,11,X,0,right,0.4034642020124011,1,0,,,,,,,,,,,,,,,,,,,,,1,,,,,,,,,,,,,,,,,,,,,,,,,,,,,,,,,,,,,,,,,,,,,,129,155461,22,Female,1,2024/03/27_14:10:01,YZ,50.485275321403876,
,,,,,,calibration,0,3,2,1068,,,,,,,,0.8333333333333334,0.3333333333333333,0.0,1.0,0.0,1.0,0.4405082836403215,1,0,0,0,0,8,9,3,8,0,,,,1,,,,,,,,,,,,,,,,,,,,,,,,,,,,,,,,,,,,,,,,,,,,,,129,155461,22,Female,1,2024/03/27_14:10:01,YZ,50.485275321403876,
,,,,,,Calibration,0,,2,1068,,,,,,,,,,,,,,,,,,,,,,,,,15,,,1,,,,,,,,,,,,,,,,,,,,,,,,,,,,,,,,,,,,,,,,,,,,,,129,155461,22,Female,1,2024/03/27_14:10:01,YZ,50.485275321403876,
,,,,,,CALIBRATION,0,,,,,,,,,,,,,,,,,,,,,,,,,,,,15,0.8333333333333334,1068,1,,,,,,,,,,,,,,,,,,,,,,,,,,,,,,,,,,,,,,,,,,,,,,129,155461,22,Female,1,2024/03/27_14:10:01,YZ,50.485275321403876,
1,./instructions/inst_prac_1/Slide24.png,right,10.675754273004713,446.14197816599335,456.81773243899806,,,,,,,,,,,,,,,,,,,,,,,,,,,,,,,,,1,,,,,,,,,,,,,,,,,,,,,,,,,,,,,,,,,,,,,,,,,,,,,,129,155461,22,Female,1,2024/03/27_14:10:01,YZ,50.485275321403876,
2,./instructions/inst_prac_1/Slide25.png,right,1.3909334060008405,456.8508092550037,458.24174266100454,,,,,,,,,,,,,,,,,,,,,,,,,,,,,,,,,1,,,,,,,,,,,,,,,,,,,,,,,,,,,,,,,,,,,,,,,,,,,,,,129,155461,22,Female,1,2024/03/27_14:10:01,YZ,50.485275321403876,
3,./instructions/inst_prac_1/Slide26.png,right,2.5187935849971836,458.2748316789948,460.793625263992,,,,,,,,,,,,,,,,,,,,,,,,,,,,,,,,,1,,,,,,,,,,,,,,,,,,,,,,,,,,,,,,,,,,,,,,,,,,,,,,129,155461,22,Female,1,2024/03/27_14:10:01,YZ,50.485275321403876,
4,./instructions/inst_prac_1/Slide27.png,right,1.230631953003467,460.8269991900015,462.057631143005,,,,,,,,,,,,,,,,,,,,,,,,,,,,,,,,,1,,,,,,,,,,,,,,,,,,,,,,,,,,,,,,,,,,,,,,,,,,,,,,129,155461,22,Female,1,2024/03/27_14:10:01,YZ,50.485275321403876,
5,./instructions/inst_prac_1/Slide28.png,right,1.1193731489911443,462.0902778650052,463.20965101399634,,,,,,,,,,,,,,,,,,,,,,,,,,,,,,,,,1,,,,,,,,,,,,,,,,,,,,,,,,,,,,,,,,,,,,,,,,,,,,,,129,155461,22,Female,1,2024/03/27_14:10:01,YZ,50.485275321403876,
6,./instructions/inst_prac_1/Slide29.png,right,2.070904377993429,463.2426669050037,465.31357128299715,,,,,,,,,,,,,,,,,,,,,,,,,,,,,,,,,1,,,,,,,,,,,,,,,,,,,,,,,,,,,,,,,,,,,,,,,,,,,,,,129,155461,22,Female,1,2024/03/27_14:10:01,YZ,50.485275321403876,
7,./instructions/inst_prac_1/Slide30.png,right,7.087462854993646,465.3462898430007,472.43375269799435,,,,,,,,,,,,,,,,,,,,,,,,,,,,,,,,,1,,,,,,,,,,,,,,,,,,,,,,,,,,,,,,,,,,,,,,,,,,,,,,129,155461,22,Female,1,2024/03/27_14:10:01,YZ,50.485275321403876,
,,,,,,practice,0,6,1,1250,1,Q,0,right,3.5403792540018912,1,0,,,,,,,,,,,,,,,,,,,,,1,,,,,,,,,,,,,,,,,,,,,,,,,,,,,,,,,,,,,,,,,,,,,,129,155461,22,Female,1,2024/03/27_14:10:01,YZ,50.485275321403876,
,,,,,,practice,0,6,1,1250,2,S,0,right,3.068575808996684,1,0,,,,,,,,,,,,,,,,,,,,,1,,,,,,,,,,,,,,,,,,,,,,,,,,,,,,,,,,,,,,,,,,,,,,129,155461,22,Female,1,2024/03/27_14:10:01,YZ,50.485275321403876,
,,,,,,practice,0,6,1,1250,3,Q,0,right,2.0852071150002303,1,0,,,,,,,,,,,,,,,,,,,,,1,,,,,,,,,,,,,,,,,,,,,,,,,,,,,,,,,,,,,,,,,,,,,,129,155461,22,Female,1,2024/03/27_14:10:01,YZ,50.485275321403876,
,,,,,,practice,0,6,1,1250,4,C,0,right,1.484666084012133,1,0,,,,,,,,,,,,,,,,,,,,,1,,,,,,,,,,,,,,,,,,,,,,,,,,,,,,,,,,,,,,,,,,,,,,129,155461,22,Female,1,2024/03/27_14:10:01,YZ,50.485275321403876,
,,,,,,practice,0,6,1,1250,5,C,1,left,0.8529573749983683,1,0,,,,,,,,,,,,,,,,,,,,,1,,,,,,,,,,,,,,,,,,,,,,,,,,,,,,,,,,,,,,,,,,,,,,129,155461,22,Female,1,2024/03/27_14:10:01,YZ,50.485275321403876,
,,,,,,practice,0,6,1,1250,6,V,0,right,0.8927442580024945,1,0,,,,,,,,,,,,,,,,,,,,,1,,,,,,,,,,,,,,,,,,,,,,,,,,,,,,,,,,,,,,,,,,,,,,129,155461,22,Female,1,2024/03/27_14:10:01,YZ,50.485275321403876,
,,,,,,practice,0,6,1,1250,7,V,1,left,0.9252610780094983,1,0,,,,,,,,,,,,,,,,,,,,,1,,,,,,,,,,,,,,,,,,,,,,,,,,,,,,,,,,,,,,,,,,,,,,129,155461,22,Female,1,2024/03/27_14:10:01,YZ,50.485275321403876,
,,,,,,practice,0,6,1,1250,8,Q,0,right,0.6519368860026589,1,0,,,,,,,,,,,,,,,,,,,,,1,,,,,,,,,,,,,,,,,,,,,,,,,,,,,,,,,,,,,,,,,,,,,,129,155461,22,Female,1,2024/03/27_14:10:01,YZ,50.485275321403876,
,,,,,,practice,0,6,1,1250,9,V,0,right,0.7480380839988356,1,0,,,,,,,,,,,,,,,,,,,,,1,,,,,,,,,,,,,,,,,,,,,,,,,,,,,,,,,,,,,,,,,,,,,,129,155461,22,Female,1,2024/03/27_14:10:01,YZ,50.485275321403876,
,,,,,,practice,0,6,1,1250,10,V,1,left,0.6922190980112646,1,0,,,,,,,,,,,,,,,,,,,,,1,,,,,,,,,,,,,,,,,,,,,,,,,,,,,,,,,,,,,,,,,,,,,,129,155461,22,Female,1,2024/03/27_14:10:01,YZ,50.485275321403876,
,,,,,,practice,0,6,1,1250,,,,,,,,1.0,1.0,0.0,1.0,0.0,1.0,1.4941985041034058,3,0,0,0,0,7,10,3,7,0,,,,1,,,,,,,,,,,,,,,,,,,,,,,,,,,,,,,,,,,,,,,,,,,,,,129,155461,22,Female,1,2024/03/27_14:10:01,YZ,50.485275321403876,
1,./instructions/inst_prac_1_next/Slide35.png,right,1.6081427589961095,498.0255704260053,499.6337131850014,,,,,,,,,,,,,,,,,,,,,,,,,,,,,,,,,1,,,,,,,,,,,,,,,,,,,,,,,,,,,,,,,,,,,,,,,,,,,,,,129,155461,22,Female,1,2024/03/27_14:10:01,YZ,50.485275321403876,
,,,,,,practice,0,2,1,1068,1,N,0,right,4.610541881003883,1,0,,,,,,,,,,,,,,,,,,,,,1,,,,,,,,,,,,,,,,,,,,,,,,,,,,,,,,,,,,,,,,,,,,,,129,155461,22,Female,1,2024/03/27_14:10:01,YZ,50.485275321403876,
,,,,,,practice,0,2,1,1068,2,Q,0,right,1.401849874004256,1,0,,,,,,,,,,,,,,,,,,,,,1,,,,,,,,,,,,,,,,,,,,,,,,,,,,,,,,,,,,,,,,,,,,,,129,155461,22,Female,1,2024/03/27_14:10:01,YZ,50.485275321403876,
,,,,,,practice,0,2,1,1068,3,Q,1,left,0.5142097960051615,1,0,,,,,,,,,,,,,,,,,,,,,1,,,,,,,,,,,,,,,,,,,,,,,,,,,,,,,,,,,,,,,,,,,,,,129,155461,22,Female,1,2024/03/27_14:10:01,YZ,50.485275321403876,
,,,,,,practice,0,2,1,1068,4,X,0,right,0.5696006270009093,1,0,,,,,,,,,,,,,,,,,,,,,1,,,,,,,,,,,,,,,,,,,,,,,,,,,,,,,,,,,,,,,,,,,,,,129,155461,22,Female,1,2024/03/27_14:10:01,YZ,50.485275321403876,
,,,,,,practice,0,2,1,1068,5,X,1,right,0.4112501609924948,0,0,,,,,,,,,,,,,,,,,,,,,1,,,,,,,,,,,,,,,,,,,,,,,,,,,,,,,,,,,,,,,,,,,,,,129,155461,22,Female,1,2024/03/27_14:10:01,YZ,50.485275321403876,
,,,,,,practice,0,2,1,1068,6,S,0,right,0.0,1,0,,,,,,,,,,,,,,,,,,,,,1,,,,,,,,,,,,,,,,,,,,,,,,,,,,,,,,,,,,,,,,,,,,,,129,155461,22,Female,1,2024/03/27_14:10:01,YZ,50.485275321403876,
,,,,,,practice,0,2,1,1068,7,J,0,right,0.6763153729989426,1,0,,,,,,,,,,,,,,,,,,,,,1,,,,,,,,,,,,,,,,,,,,,,,,,,,,,,,,,,,,,,,,,,,,,,129,155461,22,Female,1,2024/03/27_14:10:01,YZ,50.485275321403876,
,,,,,,practice,0,2,1,1068,8,J,1,left,0.610612382995896,1,0,,,,,,,,,,,,,,,,,,,,,1,,,,,,,,,,,,,,,,,,,,,,,,,,,,,,,,,,,,,,,,,,,,,,129,155461,22,Female,1,2024/03/27_14:10:01,YZ,50.485275321403876,
,,,,,,practice,0,2,1,1068,9,Q,0,right,0.6024198999948567,1,0,,,,,,,,,,,,,,,,,,,,,1,,,,,,,,,,,,,,,,,,,,,,,,,,,,,,,,,,,,,,,,,,,,,,129,155461,22,Female,1,2024/03/27_14:10:01,YZ,50.485275321403876,
,,,,,,practice,0,2,1,1068,10,S,0,right,0.4660058590088738,1,0,,,,,,,,,,,,,,,,,,,,,1,,,,,,,,,,,,,,,,,,,,,,,,,,,,,,,,,,,,,,,,,,,,,,129,155461,22,Female,1,2024/03/27_14:10:01,YZ,50.485275321403876,
,,,,,,practice,0,2,1,1068,11,F,0,right,0.4502423980011372,1,0,,,,,,,,,,,,,,,,,,,,,1,,,,,,,,,,,,,,,,,,,,,,,,,,,,,,,,,,,,,,,,,,,,,,129,155461,22,Female,1,2024/03/27_14:10:01,YZ,50.485275321403876,
,,,,,,practice,0,2,1,1068,,,,,,,,0.9166666666666666,0.6666666666666666,0.0,1.0,0.0,1.0,0.9375498410914919,2,0,0,0,0,8,10,3,8,0,,,,1,,,,,,,,,,,,,,,,,,,,,,,,,,,,,,,,,,,,,,,,,,,,,,129,155461,22,Female,1,2024/03/27_14:10:01,YZ,50.485275321403876,
,,,,,,practice,0,7,1,1068,1,X,0,right,0.9950879649986746,1,0,,,,,,,,,,,,,,,,,,,,,1,,,,,,,,,,,,,,,,,,,,,,,,,,,,,,,,,,,,,,,,,,,,,,129,155461,22,Female,1,2024/03/27_14:10:01,YZ,50.485275321403876,
,,,,,,practice,0,7,1,1068,2,N,0,right,0.5890777759923367,1,0,,,,,,,,,,,,,,,,,,,,,1,,,,,,,,,,,,,,,,,,,,,,,,,,,,,,,,,,,,,,,,,,,,,,129,155461,22,Female,1,2024/03/27_14:10:01,YZ,50.485275321403876,
,,,,,,practice,0,7,1,1068,3,S,0,right,0.410132254997734,1,0,,,,,,,,,,,,,,,,,,,,,1,,,,,,,,,,,,,,,,,,,,,,,,,,,,,,,,,,,,,,,,,,,,,,129,155461,22,Female,1,2024/03/27_14:10:01,YZ,50.485275321403876,
,,,,,,practice,0,7,1,1068,4,V,0,right,0.44258649299445096,1,0,,,,,,,,,,,,,,,,,,,,,1,,,,,,,,,,,,,,,,,,,,,,,,,,,,,,,,,,,,,,,,,,,,,,129,155461,22,Female,1,2024/03/27_14:10:01,YZ,50.485275321403876,
,,,,,,practice,0,7,1,1068,5,V,1,left,0.5944143910019193,1,0,,,,,,,,,,,,,,,,,,,,,1,,,,,,,,,,,,,,,,,,,,,,,,,,,,,,,,,,,,,,,,,,,,,,129,155461,22,Female,1,2024/03/27_14:10:01,YZ,50.485275321403876,
,,,,,,practice,0,7,1,1068,6,N,0,right,0.4661547060095472,1,0,,,,,,,,,,,,,,,,,,,,,1,,,,,,,,,,,,,,,,,,,,,,,,,,,,,,,,,,,,,,,,,,,,,,129,155461,22,Female,1,2024/03/27_14:10:01,YZ,50.485275321403876,
,,,,,,practice,0,7,1,1068,7,S,0,right,0.5140488500037463,1,0,,,,,,,,,,,,,,,,,,,,,1,,,,,,,,,,,,,,,,,,,,,,,,,,,,,,,,,,,,,,,,,,,,,,129,155461,22,Female,1,2024/03/27_14:10:01,YZ,50.485275321403876,
,,,,,,practice,0,7,1,1068,8,S,1,left,0.5941224999987753,1,0,,,,,,,,,,,,,,,,,,,,,1,,,,,,,,,,,,,,,,,,,,,,,,,,,,,,,,,,,,,,,,,,,,,,129,155461,22,Female,1,2024/03/27_14:10:01,YZ,50.485275321403876,
,,,,,,practice,0,7,1,1068,9,X,0,right,0.5145374670100864,1,0,,,,,,,,,,,,,,,,,,,,,1,,,,,,,,,,,,,,,,,,,,,,,,,,,,,,,,,,,,,,,,,,,,,,129,155461,22,Female,1,2024/03/27_14:10:01,YZ,50.485275321403876,
,,,,,,practice,0,7,1,1068,10,X,1,right,0.4503848560125334,0,0,,,,,,,,,,,,,,,,,,,,,1,,,,,,,,,,,,,,,,,,,,,,,,,,,,,,,,,,,,,,,,,,,,,,129,155461,22,Female,1,2024/03/27_14:10:01,YZ,50.485275321403876,
,,,,,,practice,0,7,1,1068,11,Q,0,right,0.4748605920030968,1,0,,,,,,,,,,,,,,,,,,,,,1,,,,,,,,,,,,,,,,,,,,,,,,,,,,,,,,,,,,,,,,,,,,,,129,155461,22,Female,1,2024/03/27_14:10:01,YZ,50.485275321403876,
,,,,,,practice,0,7,1,1068,,,,,,,,0.9166666666666666,0.6666666666666666,0.0,1.0,0.0,1.0,0.5495825319111728,2,0,0,0,0,8,10,3,8,0,,,,1,,,,,,,,,,,,,,,,,,,,,,,,,,,,,,,,,,,,,,,,,,,,,,129,155461,22,Female,1,2024/03/27_14:10:01,YZ,50.485275321403876,
1,./instructions/inst_prac_3/Slide37.png,right,3.0616302309936145,531.8280391540029,534.8896693849965,,,,,,,,,,,,,,,,,,,,,,,,,,,,,,,,,1,,,,,,,,,,,,,,,,,,,,,,,,,,,,,,,,,,,,,,,,,,,,,,129,155461,22,Female,1,2024/03/27_14:10:01,YZ,50.485275321403876,
2,./instructions/inst_prac_3/Slide38.png,right,1.591647137000109,534.9219874690025,536.5136346060026,,,,,,,,,,,,,,,,,,,,,,,,,,,,,,,,,1,,,,,,,,,,,,,,,,,,,,,,,,,,,,,,,,,,,,,,,,,,,,,,129,155461,22,Female,1,2024/03/27_14:10:01,YZ,50.485275321403876,
3,./instructions/inst_prac_3/Slide39.png,right,0.6867818310129223,536.5469877339929,537.2337695650058,,,,,,,,,,,,,,,,,,,,,,,,,,,,,,,,,1,,,,,,,,,,,,,,,,,,,,,,,,,,,,,,,,,,,,,,,,,,,,,,129,155461,22,Female,1,2024/03/27_14:10:01,YZ,50.485275321403876,
4,./instructions/inst_prac_3/Slide40.png,right,0.47896456001035403,537.2669025859941,537.7458671460045,,,,,,,,,,,,,,,,,,,,,,,,,,,,,,,,,1,,,,,,,,,,,,,,,,,,,,,,,,,,,,,,,,,,,,,,,,,,,,,,129,155461,22,Female,1,2024/03/27_14:10:01,YZ,50.485275321403876,
5,./instructions/inst_prac_3/Slide41.png,right,2.8550239789910847,537.778741645001,540.6337656239921,,,,,,,,,,,,,,,,,,,,,,,,,,,,,,,,,1,,,,,,,,,,,,,,,,,,,,,,,,,,,,,,,,,,,,,,,,,,,,,,129,155461,22,Female,1,2024/03/27_14:10:01,YZ,50.485275321403876,
6,./instructions/inst_prac_3/Slide42.png,right,1.5829828389978502,540.6667401559971,542.249722994995,,,,,,,,,,,,,,,,,,,,,,,,,,,,,,,,,1,,,,,,,,,,,,,,,,,,,,,,,,,,,,,,,,,,,,,,,,,,,,,,129,155461,22,Female,1,2024/03/27_14:10:01,YZ,50.485275321403876,
7,./instructions/inst_prac_3/Slide43.png,right,1.030701837997185,542.2828994250012,543.3136012629984,,,,,,,,,,,,,,,,,,,,,,,,,,,,,,,,,1,,,,,,,,,,,,,,,,,,,,,,,,,,,,,,,,,,,,,,,,,,,,,,129,155461,22,Female,1,2024/03/27_14:10:01,YZ,50.485275321403876,
8,./instructions/inst_prac_3/Slide44.png,right,0.8949819529952947,543.3466336870042,544.2416156399995,,,,,,,,,,,,,,,,,,,,,,,,,,,,,,,,,1,,,,,,,,,,,,,,,,,,,,,,,,,,,,,,,,,,,,,,,,,,,,,,129,155461,22,Female,1,2024/03/27_14:10:01,YZ,50.485275321403876,
,,,,,,practice,0,18,3,788,1,S,0,right,2.1898103959974833,1,0,,,,,,,,,,,,,,,,,,,,,1,,,,,,,,,,,,,,,,,,,,,,,,,,,,,,,,,,,,,,,,,,,,,,129,155461,22,Female,1,2024/03/27_14:10:01,YZ,50.485275321403876,
,,,,,,practice,0,18,3,788,2,Q,0,right,1.124014328001067,1,0,,,,,,,,,,,,,,,,,,,,,1,,,,,,,,,,,,,,,,,,,,,,,,,,,,,,,,,,,,,,,,,,,,,,129,155461,22,Female,1,2024/03/27_14:10:01,YZ,50.485275321403876,
,,,,,,practice,0,18,3,788,3,S,0,right,1.4042634409997845,1,0,,,,,,,,,,,,,,,,,,,,,1,,,,,,,,,,,,,,,,,,,,,,,,,,,,,,,,,,,,,,,,,,,,,,129,155461,22,Female,1,2024/03/27_14:10:01,YZ,50.485275321403876,
,,,,,,practice,0,18,3,788,4,S,1,left,1.2211379660002422,1,0,,,,,,,,,,,,,,,,,,,,,1,,,,,,,,,,,,,,,,,,,,,,,,,,,,,,,,,,,,,,,,,,,,,,129,155461,22,Female,1,2024/03/27_14:10:01,YZ,50.485275321403876,
,,,,,,practice,0,18,3,788,5,Q,1,left,0.9262296719971346,1,0,,,,,,,,,,,,,,,,,,,,,1,,,,,,,,,,,,,,,,,,,,,,,,,,,,,,,,,,,,,,,,,,,,,,129,155461,22,Female,1,2024/03/27_14:10:01,YZ,50.485275321403876,
,,,,,,practice,0,18,3,788,6,J,0,right,0.5165002510038903,1,0,,,,,,,,,,,,,,,,,,,,,1,,,,,,,,,,,,,,,,,,,,,,,,,,,,,,,,,,,,,,,,,,,,,,129,155461,22,Female,1,2024/03/27_14:10:01,YZ,50.485275321403876,
,,,,,,practice,0,18,3,788,7,S,1,left,1.2925605989876203,1,0,,,,,,,,,,,,,,,,,,,,,1,,,,,,,,,,,,,,,,,,,,,,,,,,,,,,,,,,,,,,,,,,,,,,129,155461,22,Female,1,2024/03/27_14:10:01,YZ,50.485275321403876,
,,,,,,practice,0,18,3,788,8,S,0,right,0.7717842279962497,1,0,,,,,,,,,,,,,,,,,,,,,1,,,,,,,,,,,,,,,,,,,,,,,,,,,,,,,,,,,,,,,,,,,,,,129,155461,22,Female,1,2024/03/27_14:10:01,YZ,50.485275321403876,
,,,,,,practice,0,18,3,788,9,J,1,left,1.0142656159878243,1,0,,,,,,,,,,,,,,,,,,,,,1,,,,,,,,,,,,,,,,,,,,,,,,,,,,,,,,,,,,,,,,,,,,,,129,155461,22,Female,1,2024/03/27_14:10:01,YZ,50.485275321403876,
,,,,,,practice,0,18,3,788,10,J,0,right,0.6918139110057382,1,0,,,,,,,,,,,,,,,,,,,,,1,,,,,,,,,,,,,,,,,,,,,,,,,,,,,,,,,,,,,,,,,,,,,,129,155461,22,Female,1,2024/03/27_14:10:01,YZ,50.485275321403876,
,,,,,,practice,0,18,3,788,11,F,0,right,1.2601542139891535,1,0,,,,,,,,,,,,,,,,,,,,,1,,,,,,,,,,,,,,,,,,,,,,,,,,,,,,,,,,,,,,,,,,,,,,129,155461,22,Female,1,2024/03/27_14:10:01,YZ,50.485275321403876,
,,,,,,practice,0,18,3,788,12,F,0,right,0.797412739993888,1,0,,,,,,,,,,,,,,,,,,,,,1,,,,,,,,,,,,,,,,,,,,,,,,,,,,,,,,,,,,,,,,,,,,,,129,155461,22,Female,1,2024/03/27_14:10:01,YZ,50.485275321403876,
,,,,,,practice,0,18,3,788,13,S,0,right,0.6526034510025056,1,0,,,,,,,,,,,,,,,,,,,,,1,,,,,,,,,,,,,,,,,,,,,,,,,,,,,,,,,,,,,,,,,,,,,,129,155461,22,Female,1,2024/03/27_14:10:01,YZ,50.485275321403876,
,,,,,,practice,0,18,3,788,,,,,,,,1.0,1.0,0.0,1.0,0.0,1.0,1.0663500625355833,4,0,0,0,0,9,13,4,9,0,,,,1,,,,,,,,,,,,,,,,,,,,,,,,,,,,,,,,,,,,,,,,,,,,,,129,155461,22,Female,1,2024/03/27_14:10:01,YZ,50.485275321403876,
1,./instructions/inst_prac_3_next/Slide49.png,right,1.1945690540014766,571.9111047879996,573.1056738420011,,,,,,,,,,,,,,,,,,,,,,,,,,,,,,,,,1,,,,,,,,,,,,,,,,,,,,,,,,,,,,,,,,,,,,,,,,,,,,,,129,155461,22,Female,1,2024/03/27_14:10:01,YZ,50.485275321403876,
,,,,,,practice,0,21,3,1068,1,X,0,right,1.9146405550127383,1,0,,,,,,,,,,,,,,,,,,,,,1,,,,,,,,,,,,,,,,,,,,,,,,,,,,,,,,,,,,,,,,,,,,,,129,155461,22,Female,1,2024/03/27_14:10:01,YZ,50.485275321403876,
,,,,,,practice,0,21,3,1068,2,C,0,right,1.017924578001839,1,0,,,,,,,,,,,,,,,,,,,,,1,,,,,,,,,,,,,,,,,,,,,,,,,,,,,,,,,,,,,,,,,,,,,,129,155461,22,Female,1,2024/03/27_14:10:01,YZ,50.485275321403876,
,,,,,,practice,0,21,3,1068,3,F,0,right,0.7384164889954263,1,0,,,,,,,,,,,,,,,,,,,,,1,,,,,,,,,,,,,,,,,,,,,,,,,,,,,,,,,,,,,,,,,,,,,,129,155461,22,Female,1,2024/03/27_14:10:01,YZ,50.485275321403876,
,,,,,,practice,0,21,3,1068,4,V,0,right,0.8743295070016757,1,0,,,,,,,,,,,,,,,,,,,,,1,,,,,,,,,,,,,,,,,,,,,,,,,,,,,,,,,,,,,,,,,,,,,,129,155461,22,Female,1,2024/03/27_14:10:01,YZ,50.485275321403876,
,,,,,,practice,0,21,3,1068,5,C,1,left,1.4911359889956657,1,0,,,,,,,,,,,,,,,,,,,,,1,,,,,,,,,,,,,,,,,,,,,,,,,,,,,,,,,,,,,,,,,,,,,,129,155461,22,Female,1,2024/03/27_14:10:01,YZ,50.485275321403876,
,,,,,,practice,0,21,3,1068,6,X,0,right,2.16958319900732,1,0,,,,,,,,,,,,,,,,,,,,,1,,,,,,,,,,,,,,,,,,,,,,,,,,,,,,,,,,,,,,,,,,,,,,129,155461,22,Female,1,2024/03/27_14:10:01,YZ,50.485275321403876,
,,,,,,practice,0,21,3,1068,7,X,0,right,1.265905127991573,1,0,,,,,,,,,,,,,,,,,,,,,1,,,,,,,,,,,,,,,,,,,,,,,,,,,,,,,,,,,,,,,,,,,,,,129,155461,22,Female,1,2024/03/27_14:10:01,YZ,50.485275321403876,
,,,,,,practice,0,21,3,1068,8,J,0,right,1.1379913700075122,1,0,,,,,,,,,,,,,,,,,,,,,1,,,,,,,,,,,,,,,,,,,,,,,,,,,,,,,,,,,,,,,,,,,,,,129,155461,22,Female,1,2024/03/27_14:10:01,YZ,50.485275321403876,
,,,,,,practice,0,21,3,1068,9,N,0,right,1.106588497001212,1,0,,,,,,,,,,,,,,,,,,,,,1,,,,,,,,,,,,,,,,,,,,,,,,,,,,,,,,,,,,,,,,,,,,,,129,155461,22,Female,1,2024/03/27_14:10:01,YZ,50.485275321403876,
,,,,,,practice,0,21,3,1068,10,X,1,left,1.6669071040087147,1,0,,,,,,,,,,,,,,,,,,,,,1,,,,,,,,,,,,,,,,,,,,,,,,,,,,,,,,,,,,,,,,,,,,,,129,155461,22,Female,1,2024/03/27_14:10:01,YZ,50.485275321403876,
,,,,,,practice,0,21,3,1068,11,J,1,right,1.1153217290120665,0,0,,,,,,,,,,,,,,,,,,,,,1,,,,,,,,,,,,,,,,,,,,,,,,,,,,,,,,,,,,,,,,,,,,,,129,155461,22,Female,1,2024/03/27_14:10:01,YZ,50.485275321403876,
,,,,,,practice,0,21,3,1068,,,,,,,,0.9166666666666666,0.6666666666666666,0.0,1.0,0.0,1.0,1.318067649548704,2,0,0,0,0,8,10,3,8,0,,,,1,,,,,,,,,,,,,,,,,,,,,,,,,,,,,,,,,,,,,,,,,,,,,,129,155461,22,Female,1,2024/03/27_14:10:01,YZ,50.485275321403876,
,,,,,,practice,0,10,3,1068,1,S,0,right,1.5148511259903898,1,0,,,,,,,,,,,,,,,,,,,,,1,,,,,,,,,,,,,,,,,,,,,,,,,,,,,,,,,,,,,,,,,,,,,,129,155461,22,Female,1,2024/03/27_14:10:01,YZ,50.485275321403876,
,,,,,,practice,0,10,3,1068,2,J,0,right,0.4182587179966504,1,0,,,,,,,,,,,,,,,,,,,,,1,,,,,,,,,,,,,,,,,,,,,,,,,,,,,,,,,,,,,,,,,,,,,,129,155461,22,Female,1,2024/03/27_14:10:01,YZ,50.485275321403876,
,,,,,,practice,0,10,3,1068,3,C,0,right,0.5540831700054696,1,0,,,,,,,,,,,,,,,,,,,,,1,,,,,,,,,,,,,,,,,,,,,,,,,,,,,,,,,,,,,,,,,,,,,,129,155461,22,Female,1,2024/03/27_14:10:01,YZ,50.485275321403876,
,,,,,,practice,0,10,3,1068,4,V,0,right,0.7701296720042592,1,0,,,,,,,,,,,,,,,,,,,,,1,,,,,,,,,,,,,,,,,,,,,,,,,,,,,,,,,,,,,,,,,,,,,,129,155461,22,Female,1,2024/03/27_14:10:01,YZ,50.485275321403876,
,,,,,,practice,0,10,3,1068,5,J,1,left,1.666139970999211,1,0,,,,,,,,,,,,,,,,,,,,,1,,,,,,,,,,,,,,,,,,,,,,,,,,,,,,,,,,,,,,,,,,,,,,129,155461,22,Female,1,2024/03/27_14:10:01,YZ,50.485275321403876,
,,,,,,practice,0,10,3,1068,6,X,0,right,0.8991862990078516,1,0,,,,,,,,,,,,,,,,,,,,,1,,,,,,,,,,,,,,,,,,,,,,,,,,,,,,,,,,,,,,,,,,,,,,129,155461,22,Female,1,2024/03/27_14:10:01,YZ,50.485275321403876,
,,,,,,practice,0,10,3,1068,7,S,0,right,2.6981700739997905,1,0,,,,,,,,,,,,,,,,,,,,,1,,,,,,,,,,,,,,,,,,,,,,,,,,,,,,,,,,,,,,,,,,,,,,129,155461,22,Female,1,2024/03/27_14:10:01,YZ,50.485275321403876,
,,,,,,practice,0,10,3,1068,8,F,0,left,2.586525040998822,0,0,,,,,,,,,,,,,,,,,,,,,1,,,,,,,,,,,,,,,,,,,,,,,,,,,,,,,,,,,,,,,,,,,,,,129,155461,22,Female,1,2024/03/27_14:10:01,YZ,50.485275321403876,
,,,,,,practice,0,10,3,1068,9,X,1,left,0.9632802019914379,1,0,,,,,,,,,,,,,,,,,,,,,1,,,,,,,,,,,,,,,,,,,,,,,,,,,,,,,,,,,,,,,,,,,,,,129,155461,22,Female,1,2024/03/27_14:10:01,YZ,50.485275321403876,
,,,,,,practice,0,10,3,1068,10,S,1,right,1.1942078810097883,0,0,,,,,,,,,,,,,,,,,,,,,1,,,,,,,,,,,,,,,,,,,,,,,,,,,,,,,,,,,,,,,,,,,,,,129,155461,22,Female,1,2024/03/27_14:10:01,YZ,50.485275321403876,
,,,,,,practice,0,10,3,1068,11,X,0,right,0.9232556180068059,1,0,,,,,,,,,,,,,,,,,,,,,1,,,,,,,,,,,,,,,,,,,,,,,,,,,,,,,,,,,,,,,,,,,,,,129,155461,22,Female,1,2024/03/27_14:10:01,YZ,50.485275321403876,
,,,,,,practice,0,10,3,1068,,,,,,,,0.84375,0.6666666666666666,0.125,0.875,0.0,0.875,1.2898261610918615,2,1,0,0,0,7,9,3,8,0,,,,1,,,,,,,,,,,,,,,,,,,,,,,,,,,,,,,,,,,,,,,,,,,,,,129,155461,22,Female,1,2024/03/27_14:10:01,YZ,50.485275321403876,
1,./instructions/inst_prac_main/Slide51.png,right,1.8317653999984032,617.6340125510033,619.4657779510017,,,,,,,,,,,,,,,,,,,,,,,,,,,,,,,,,1,,,,,,,,,,,,,,,,,,,,,,,,,,,,,,,,,,,,,,,,,,,,,,129,155461,22,Female,1,2024/03/27_14:10:01,YZ,50.485275321403876,
2,./instructions/inst_prac_main/Slide52.png,right,9.11060698700021,619.4990663109929,628.6096732979931,,,,,,,,,,,,,,,,,,,,,,,,,,,,,,,,,1,,,,,,,,,,,,,,,,,,,,,,,,,,,,,,,,,,,,,,,,,,,,,,129,155461,22,Female,1,2024/03/27_14:10:01,YZ,50.485275321403876,
1,./instructions/inst_prac_main/Slide53.png,left,3.1898544900031993,628.6598194399994,631.8496739300026,,,,,,,,,,,,,,,,,,,,,,,,,,,,,,,,,1,,,,,,,,,,,,,,,,,,,,,,,,,,,,,,,,,,,,,,,,,,,,,,129,155461,22,Female,1,2024/03/27_14:10:01,YZ,50.485275321403876,
0,./instructions/inst_prac_main/Slide52.png,left,0.20045070600463077,631.8818190259917,632.0822697319963,,,,,,,,,,,,,,,,,,,,,,,,,,,,,,,,,1,,,,,,,,,,,,,,,,,,,,,,,,,,,,,,,,,,,,,,,,,,,,,,129,155461,22,Female,1,2024/03/27_14:10:01,YZ,50.485275321403876,
-1,./instructions/inst_prac_main/Slide51.png,left,0.20064094600093085,632.1110106559936,632.3116516019945,,,,,,,,,,,,,,,,,,,,,,,,,,,,,,,,,1,,,,,,,,,,,,,,,,,,,,,,,,,,,,,,,,,,,,,,,,,,,,,,129,155461,22,Female,1,2024/03/27_14:10:01,YZ,50.485275321403876,
-2,./instructions/inst_prac_main/Slide54.png,left,0.20042667500092648,632.344410685997,632.5448373609979,,,,,,,,,,,,,,,,,,,,,,,,,,,,,,,,,1,,,,,,,,,,,,,,,,,,,,,,,,,,,,,,,,,,,,,,,,,,,,,,129,155461,22,Female,1,2024/03/27_14:10:01,YZ,50.485275321403876,
-3,./instructions/inst_prac_main/Slide53.png,left,0.20047207099560183,632.5765663229977,632.7770383939933,,,,,,,,,,,,,,,,,,,,,,,,,,,,,,,,,1,,,,,,,,,,,,,,,,,,,,,,,,,,,,,,,,,,,,,,,,,,,,,,129,155461,22,Female,1,2024/03/27_14:10:01,YZ,50.485275321403876,
-4,./instructions/inst_prac_main/Slide52.png,left,0.20051021600374952,632.8088978250016,633.0094080410054,,,,,,,,,,,,,,,,,,,,,,,,,,,,,,,,,1,,,,,,,,,,,,,,,,,,,,,,,,,,,,,,,,,,,,,,,,,,,,,,129,155461,22,Female,1,2024/03/27_14:10:01,YZ,50.485275321403876,
,,,,,,practice_main,0,1,1,1068,1,S,0,None,nan,0,1,,,,,,,,,,,,,,,,,,,,,1,,,,,,,,,,,,,,,,,,,,,,,,,,,,,,,,,,,,,,,,,,,,,,129,155461,22,Female,1,2024/03/27_14:10:01,YZ,50.485275321403876,
,,,,,,practice_main,0,1,1,1068,2,V,0,None,nan,0,1,,,,,,,,,,,,,,,,,,,,,1,,,,,,,,,,,,,,,,,,,,,,,,,,,,,,,,,,,,,,,,,,,,,,129,155461,22,Female,1,2024/03/27_14:10:01,YZ,50.485275321403876,
,,,,,,practice_main,0,1,1,1068,3,F,0,right,0.5566923820006195,1,0,,,,,,,,,,,,,,,,,,,,,1,,,,,,,,,,,,,,,,,,,,,,,,,,,,,,,,,,,,,,,,,,,,,,129,155461,22,Female,1,2024/03/27_14:10:01,YZ,50.485275321403876,
,,,,,,practice_main,0,1,1,1068,4,F,1,left,0.7704507610033033,1,0,,,,,,,,,,,,,,,,,,,,,1,,,,,,,,,,,,,,,,,,,,,,,,,,,,,,,,,,,,,,,,,,,,,,129,155461,22,Female,1,2024/03/27_14:10:01,YZ,50.485275321403876,
,,,,,,practice_main,0,1,1,1068,5,S,0,right,1.183321189993876,1,0,,,,,,,,,,,,,,,,,,,,,1,,,,,,,,,,,,,,,,,,,,,,,,,,,,,,,,,,,,,,,,,,,,,,129,155461,22,Female,1,2024/03/27_14:10:01,YZ,50.485275321403876,
,,,,,,practice_main,0,1,1,1068,6,C,0,right,0.5146763889933936,1,0,,,,,,,,,,,,,,,,,,,,,1,,,,,,,,,,,,,,,,,,,,,,,,,,,,,,,,,,,,,,,,,,,,,,129,155461,22,Female,1,2024/03/27_14:10:01,YZ,50.485275321403876,
,,,,,,practice_main,0,1,1,1068,7,Q,0,right,0.7258760120021179,1,0,,,,,,,,,,,,,,,,,,,,,1,,,,,,,,,,,,,,,,,,,,,,,,,,,,,,,,,,,,,,,,,,,,,,129,155461,22,Female,1,2024/03/27_14:10:01,YZ,50.485275321403876,
,,,,,,practice_main,0,1,1,1068,8,F,0,right,0.4389675999991596,1,0,,,,,,,,,,,,,,,,,,,,,1,,,,,,,,,,,,,,,,,,,,,,,,,,,,,,,,,,,,,,,,,,,,,,129,155461,22,Female,1,2024/03/27_14:10:01,YZ,50.485275321403876,
,,,,,,practice_main,0,1,1,1068,9,F,1,left,0.4194481930026086,1,0,,,,,,,,,,,,,,,,,,,,,1,,,,,,,,,,,,,,,,,,,,,,,,,,,,,,,,,,,,,,,,,,,,,,129,155461,22,Female,1,2024/03/27_14:10:01,YZ,50.485275321403876,
,,,,,,practice_main,0,1,1,1068,10,N,0,right,0.3779752120026387,1,0,,,,,,,,,,,,,,,,,,,,,1,,,,,,,,,,,,,,,,,,,,,,,,,,,,,,,,,,,,,,,,,,,,,,129,155461,22,Female,1,2024/03/27_14:10:01,YZ,50.485275321403876,
,,,,,,practice_main,0,1,1,1068,11,N,1,right,0.37837972199486103,0,0,,,,,,,,,,,,,,,,,,,,,1,,,,,,,,,,,,,,,,,,,,,,,,,,,,,,,,,,,,,,,,,,,,,,129,155461,22,Female,1,2024/03/27_14:10:01,YZ,50.485275321403876,
,,,,,,practice_main,0,1,1,1068,,,,,,,,0.9166666666666666,0.6666666666666666,0.0,1.0,0.18181818181818182,0.8181818181818181,0.5961986067769531,2,0,0,2,2,6,8,3,8,0,,,,1,,,,,,,,,,,,,,,,,,,,,,,,,,,,,,,,,,,,,,,,,,,,,,129,155461,22,Female,1,2024/03/27_14:10:01,YZ,50.485275321403876,
,,,,,240327_142333,PRACTICE,0,1,1,1068,,,,,,,,,,,,,,,,,,,,,,,,,,,,1,1,2,1,cue1.png,easy,A,16,1.0005317199975252,0,644.2028703459946,645.2309637139988,,,,,,,,,,,,,,,,,,,,,,,,,,,,,,,,,,,129,155461,22,Female,1,2024/03/27_14:10:01,YZ,50.485275321403876,
,,,,,,practice_main,0,2,3,1068,1,N,0,right,0.8891369390039472,1,0,,,,,,,,,,,,,,,,,,,,,1,,,,,,,,,,,,,,,,,,,,,,,,,,,,,,,,,,,,,,,,,,,,,,129,155461,22,Female,1,2024/03/27_14:10:01,YZ,50.485275321403876,
,,,,,,practice_main,0,2,3,1068,2,F,0,right,0.4837525760085555,1,0,,,,,,,,,,,,,,,,,,,,,1,,,,,,,,,,,,,,,,,,,,,,,,,,,,,,,,,,,,,,,,,,,,,,129,155461,22,Female,1,2024/03/27_14:10:01,YZ,50.485275321403876,
,,,,,,practice_main,0,2,3,1068,3,Q,0,right,0.5154374859994277,1,0,,,,,,,,,,,,,,,,,,,,,1,,,,,,,,,,,,,,,,,,,,,,,,,,,,,,,,,,,,,,,,,,,,,,129,155461,22,Female,1,2024/03/27_14:10:01,YZ,50.485275321403876,
,,,,,,practice_main,0,2,3,1068,4,N,1,left,0.37526932400942314,1,0,,,,,,,,,,,,,,,,,,,,,1,,,,,,,,,,,,,,,,,,,,,,,,,,,,,,,,,,,,,,,,,,,,,,129,155461,22,Female,1,2024/03/27_14:10:01,YZ,50.485275321403876,
,,,,,,practice_main,0,2,3,1068,5,F,1,right,0.6933393229992362,0,0,,,,,,,,,,,,,,,,,,,,,1,,,,,,,,,,,,,,,,,,,,,,,,,,,,,,,,,,,,,,,,,,,,,,129,155461,22,Female,1,2024/03/27_14:10:01,YZ,50.485275321403876,
,,,,,,practice_main,0,2,3,1068,6,F,0,right,0.49367800999607425,1,0,,,,,,,,,,,,,,,,,,,,,1,,,,,,,,,,,,,,,,,,,,,,,,,,,,,,,,,,,,,,,,,,,,,,129,155461,22,Female,1,2024/03/27_14:10:01,YZ,50.485275321403876,
,,,,,,practice_main,0,2,3,1068,7,J,0,right,0.5150029500073288,1,0,,,,,,,,,,,,,,,,,,,,,1,,,,,,,,,,,,,,,,,,,,,,,,,,,,,,,,,,,,,,,,,,,,,,129,155461,22,Female,1,2024/03/27_14:10:01,YZ,50.485275321403876,
,,,,,,practice_main,0,2,3,1068,8,Q,0,right,0.6137112559954403,1,0,,,,,,,,,,,,,,,,,,,,,1,,,,,,,,,,,,,,,,,,,,,,,,,,,,,,,,,,,,,,,,,,,,,,129,155461,22,Female,1,2024/03/27_14:10:01,YZ,50.485275321403876,
,,,,,,practice_main,0,2,3,1068,9,V,0,right,0.3812590680026915,1,0,,,,,,,,,,,,,,,,,,,,,1,,,,,,,,,,,,,,,,,,,,,,,,,,,,,,,,,,,,,,,,,,,,,,129,155461,22,Female,1,2024/03/27_14:10:01,YZ,50.485275321403876,
,,,,,,practice_main,0,2,3,1068,10,X,0,right,0.2903097579983296,1,0,,,,,,,,,,,,,,,,,,,,,1,,,,,,,,,,,,,,,,,,,,,,,,,,,,,,,,,,,,,,,,,,,,,,129,155461,22,Female,1,2024/03/27_14:10:01,YZ,50.485275321403876,
,,,,,,practice_main,0,2,3,1068,11,Q,1,right,0.3317575469991425,0,0,,,,,,,,,,,,,,,,,,,,,1,,,,,,,,,,,,,,,,,,,,,,,,,,,,,,,,,,,,,,,,,,,,,,129,155461,22,Female,1,2024/03/27_14:10:01,YZ,50.485275321403876,
,,,,,,practice_main,0,2,3,1068,,,,,,,,0.8333333333333334,0.3333333333333333,0.0,1.0,0.0,1.0,0.507514021547236,1,0,0,0,0,8,9,3,8,0,,,,1,,,,,,,,,,,,,,,,,,,,,,,,,,,,,,,,,,,,,,,,,,,,,,129,155461,22,Female,1,2024/03/27_14:10:01,YZ,50.485275321403876,
,,,,,240327_142355,PRACTICE,0,2,3,1068,,,,,,,,,,,,,,,,,,,,,,,,,,,,1,41,3,2,cue2.png,hard,A,11,0.7498256050021155,0,669.700917477996,670.4784856210026,,,,,,,,,,,,,,,,,,,,,,,,,,,,,,,,,,,129,155461,22,Female,1,2024/03/27_14:10:01,YZ,50.485275321403876,
,,,,,,practice_main,0,3,1,1068,1,J,0,right,1.0281045099982293,1,0,,,,,,,,,,,,,,,,,,,,,1,,,,,,,,,,,,,,,,,,,,,,,,,,,,,,,,,,,,,,,,,,,,,,129,155461,22,Female,1,2024/03/27_14:10:01,YZ,50.485275321403876,
,,,,,,practice_main,0,3,1,1068,2,J,1,left,0.38840213399089407,1,0,,,,,,,,,,,,,,,,,,,,,1,,,,,,,,,,,,,,,,,,,,,,,,,,,,,,,,,,,,,,,,,,,,,,129,155461,22,Female,1,2024/03/27_14:10:01,YZ,50.485275321403876,
,,,,,,practice_main,0,3,1,1068,3,C,0,right,0.3624326809949707,1,0,,,,,,,,,,,,,,,,,,,,,1,,,,,,,,,,,,,,,,,,,,,,,,,,,,,,,,,,,,,,,,,,,,,,129,155461,22,Female,1,2024/03/27_14:10:01,YZ,50.485275321403876,
,,,,,,practice_main,0,3,1,1068,4,V,0,right,0.45060575001116376,1,0,,,,,,,,,,,,,,,,,,,,,1,,,,,,,,,,,,,,,,,,,,,,,,,,,,,,,,,,,,,,,,,,,,,,129,155461,22,Female,1,2024/03/27_14:10:01,YZ,50.485275321403876,
,,,,,,practice_main,0,3,1,1068,5,C,0,right,0.45830426199245267,1,0,,,,,,,,,,,,,,,,,,,,,1,,,,,,,,,,,,,,,,,,,,,,,,,,,,,,,,,,,,,,,,,,,,,,129,155461,22,Female,1,2024/03/27_14:10:01,YZ,50.485275321403876,
,,,,,,practice_main,0,3,1,1068,6,C,1,left,0.5743025340052554,1,0,,,,,,,,,,,,,,,,,,,,,1,,,,,,,,,,,,,,,,,,,,,,,,,,,,,,,,,,,,,,,,,,,,,,129,155461,22,Female,1,2024/03/27_14:10:01,YZ,50.485275321403876,
,,,,,,practice_main,0,3,1,1068,7,F,0,right,0.38076307899609674,1,0,,,,,,,,,,,,,,,,,,,,,1,,,,,,,,,,,,,,,,,,,,,,,,,,,,,,,,,,,,,,,,,,,,,,129,155461,22,Female,1,2024/03/27_14:10:01,YZ,50.485275321403876,
,,,,,,practice_main,0,3,1,1068,8,V,0,right,0.4341072009992786,1,0,,,,,,,,,,,,,,,,,,,,,1,,,,,,,,,,,,,,,,,,,,,,,,,,,,,,,,,,,,,,,,,,,,,,129,155461,22,Female,1,2024/03/27_14:10:01,YZ,50.485275321403876,
,,,,,,practice_main,0,3,1,1068,9,V,1,right,0.5344363490003161,0,0,,,,,,,,,,,,,,,,,,,,,1,,,,,,,,,,,,,,,,,,,,,,,,,,,,,,,,,,,,,,,,,,,,,,129,155461,22,Female,1,2024/03/27_14:10:01,YZ,50.485275321403876,
,,,,,,practice_main,0,3,1,1068,10,Q,0,right,0.0,1,0,,,,,,,,,,,,,,,,,,,,,1,,,,,,,,,,,,,,,,,,,,,,,,,,,,,,,,,,,,,,,,,,,,,,129,155461,22,Female,1,2024/03/27_14:10:01,YZ,50.485275321403876,
,,,,,,practice_main,0,3,1,1068,11,X,0,right,0.3020091820071684,1,0,,,,,,,,,,,,,,,,,,,,,1,,,,,,,,,,,,,,,,,,,,,,,,,,,,,,,,,,,,,,,,,,,,,,129,155461,22,Female,1,2024/03/27_14:10:01,YZ,50.485275321403876,
,,,,,,practice_main,0,3,1,1068,,,,,,,,0.9166666666666666,0.6666666666666666,0.0,1.0,0.0,1.0,0.4466788801814387,2,0,0,0,0,8,10,3,8,0,,,,1,,,,,,,,,,,,,,,,,,,,,,,,,,,,,,,,,,,,,,,,,,,,,,129,155461,22,Female,1,2024/03/27_14:10:01,YZ,50.485275321403876,
,,,,,240327_142416,PRACTICE,0,3,1,1068,,,,,,,,,,,,,,,,,,,,,,,,,,,,1,16,4,3,cue1.png,easy,A,12,1.0939314529969124,0,691.1519921209983,692.2724743629951,,,,,,,,,,,,,,,,,,,,,,,,,,,,,,,,,,,129,155461,22,Female,1,2024/03/27_14:10:01,YZ,50.485275321403876,
1,./instructions/inst_prac_end/Slide56.png,right,30.362373555995873,710.7672042490012,741.1295778049971,,,,,,,,,,,,,,,,,,,,,,,,,,,,,,,,,1,,,,,,,,,,,,,,,,,,,,,,,,,,,,,,,,,,,,,,,,,,,,,,129,155461,22,Female,1,2024/03/27_14:10:01,YZ,50.485275321403876,
1,./instructions/inst_test/Slide57.png,right,214.86716533999424,741.1667438889999,956.0339092289942,,,,,,,,,,,,,,,,,,,,,,,,,,,,,,,,,1,,,,,,,,,,,,,,,,,,,,,,,,,,,,,,,,,,,,,,,,,,,,,,129,155461,22,Female,1,2024/03/27_14:10:01,YZ,50.485275321403876,
,,,,,,test,1,1,1,1068,1,N,0,None,nan,0,1,,,,,,,,,,,,,,,,,,,,,1,,,,,,,,,,,,,,,,,,,,,,,,,,,,,,,,,,,,,,,,,,,,,,129,155461,22,Female,1,2024/03/27_14:10:01,YZ,50.485275321403876,
,,,,,,test,1,1,1,1068,2,F,0,right,0.8103626249940135,1,0,,,,,,,,,,,,,,,,,,,,,1,,,,,,,,,,,,,,,,,,,,,,,,,,,,,,,,,,,,,,,,,,,,,,129,155461,22,Female,1,2024/03/27_14:10:01,YZ,50.485275321403876,
,,,,,,test,1,1,1,1068,3,Q,0,right,0.453301379995537,1,0,,,,,,,,,,,,,,,,,,,,,1,,,,,,,,,,,,,,,,,,,,,,,,,,,,,,,,,,,,,,,,,,,,,,129,155461,22,Female,1,2024/03/27_14:10:01,YZ,50.485275321403876,
,,,,,,test,1,1,1,1068,4,N,0,right,0.6671033540042117,1,0,,,,,,,,,,,,,,,,,,,,,1,,,,,,,,,,,,,,,,,,,,,,,,,,,,,,,,,,,,,,,,,,,,,,129,155461,22,Female,1,2024/03/27_14:10:01,YZ,50.485275321403876,
,,,,,,test,1,1,1,1068,5,N,1,left,0.40683035099937115,1,0,,,,,,,,,,,,,,,,,,,,,1,,,,,,,,,,,,,,,,,,,,,,,,,,,,,,,,,,,,,,,,,,,,,,129,155461,22,Female,1,2024/03/27_14:10:01,YZ,50.485275321403876,
,,,,,,test,1,1,1,1068,6,S,0,right,0.33702205000736285,1,0,,,,,,,,,,,,,,,,,,,,,1,,,,,,,,,,,,,,,,,,,,,,,,,,,,,,,,,,,,,,,,,,,,,,129,155461,22,Female,1,2024/03/27_14:10:01,YZ,50.485275321403876,
,,,,,,test,1,1,1,1068,7,Q,0,right,0.43465672800084576,1,0,,,,,,,,,,,,,,,,,,,,,1,,,,,,,,,,,,,,,,,,,,,,,,,,,,,,,,,,,,,,,,,,,,,,129,155461,22,Female,1,2024/03/27_14:10:01,YZ,50.485275321403876,
,,,,,,test,1,1,1,1068,8,Q,1,left,0.3703814079926815,1,0,,,,,,,,,,,,,,,,,,,,,1,,,,,,,,,,,,,,,,,,,,,,,,,,,,,,,,,,,,,,,,,,,,,,129,155461,22,Female,1,2024/03/27_14:10:01,YZ,50.485275321403876,
,,,,,,test,1,1,1,1068,9,F,0,right,0.315331543009961,1,0,,,,,,,,,,,,,,,,,,,,,1,,,,,,,,,,,,,,,,,,,,,,,,,,,,,,,,,,,,,,,,,,,,,,129,155461,22,Female,1,2024/03/27_14:10:01,YZ,50.485275321403876,
,,,,,,test,1,1,1,1068,10,S,0,left,0.48357300499628764,0,0,,,,,,,,,,,,,,,,,,,,,1,,,,,,,,,,,,,,,,,,,,,,,,,,,,,,,,,,,,,,,,,,,,,,129,155461,22,Female,1,2024/03/27_14:10:01,YZ,50.485275321403876,
,,,,,,test,1,1,1,1068,11,S,1,left,0.5742484459915431,1,0,,,,,,,,,,,,,,,,,,,,,1,,,,,,,,,,,,,,,,,,,,,,,,,,,,,,,,,,,,,,,,,,,,,,129,155461,22,Female,1,2024/03/27_14:10:01,YZ,50.485275321403876,
,,,,,,Test,1,1,1,1068,,,,,,,,0.96875,1.0,0.125,0.8571428571428571,0.09090909090909091,0.7840909090909091,0.48528108899918154,3,1,0,1,1,6,9,3,8,0,,,,1,,,,,,,,,,,,,,,,,,,,,,,,,,,,,,,,,,,,,,,,,,,,,,129,155461,22,Female,1,2024/03/27_14:10:01,YZ,50.485275321403876,
,,,,,240327_142847,TEST,1,1,1,1068,,,,,,,,,,,,,,,,,,,,,,,,,,,,1,1,1,1,cue1.png,easy,A,26,0.8758293990103994,0,961.1008456260024,962.0027690069983,,,,,,,,,,,,,,,,,,,,,,,,,,,,,,,,,,,129,155461,22,Female,1,2024/03/27_14:10:01,YZ,50.485275321403876,
,,,,,,test,1,2,3,1068,1,J,0,right,0.9878680260007968,1,0,,,,,,,,,,,,,,,,,,,,,1,,,,,,,,,,,,,,,,,,,,,,,,,,,,,,,,,,,,,,,,,,,,,,129,155461,22,Female,1,2024/03/27_14:10:01,YZ,50.485275321403876,
,,,,,,test,1,2,3,1068,2,V,0,right,0.46828080600243993,1,0,,,,,,,,,,,,,,,,,,,,,1,,,,,,,,,,,,,,,,,,,,,,,,,,,,,,,,,,,,,,,,,,,,,,129,155461,22,Female,1,2024/03/27_14:10:01,YZ,50.485275321403876,
,,,,,,test,1,2,3,1068,3,N,0,right,0.6532785060117021,1,0,,,,,,,,,,,,,,,,,,,,,1,,,,,,,,,,,,,,,,,,,,,,,,,,,,,,,,,,,,,,,,,,,,,,129,155461,22,Female,1,2024/03/27_14:10:01,YZ,50.485275321403876,
,,,,,,test,1,2,3,1068,4,Q,0,right,0.44590653499471955,1,0,,,,,,,,,,,,,,,,,,,,,1,,,,,,,,,,,,,,,,,,,,,,,,,,,,,,,,,,,,,,,,,,,,,,129,155461,22,Female,1,2024/03/27_14:10:01,YZ,50.485275321403876,
,,,,,,test,1,2,3,1068,5,Q,0,right,0.8690323860064382,1,0,,,,,,,,,,,,,,,,,,,,,1,,,,,,,,,,,,,,,,,,,,,,,,,,,,,,,,,,,,,,,,,,,,,,129,155461,22,Female,1,2024/03/27_14:10:01,YZ,50.485275321403876,
,,,,,,test,1,2,3,1068,6,N,1,right,0.46147936399211176,0,0,,,,,,,,,,,,,,,,,,,,,1,,,,,,,,,,,,,,,,,,,,,,,,,,,,,,,,,,,,,,,,,,,,,,129,155461,22,Female,1,2024/03/27_14:10:01,YZ,50.485275321403876,
,,,,,,test,1,2,3,1068,7,F,0,right,0.45868688299378846,1,0,,,,,,,,,,,,,,,,,,,,,1,,,,,,,,,,,,,,,,,,,,,,,,,,,,,,,,,,,,,,,,,,,,,,129,155461,22,Female,1,2024/03/27_14:10:01,YZ,50.485275321403876,
,,,,,,test,1,2,3,1068,8,Q,1,right,0.42796101901330985,0,0,,,,,,,,,,,,,,,,,,,,,1,,,,,,,,,,,,,,,,,,,,,,,,,,,,,,,,,,,,,,,,,,,,,,129,155461,22,Female,1,2024/03/27_14:10:01,YZ,50.485275321403876,
,,,,,,test,1,2,3,1068,9,N,1,right,0.4020393559912918,0,0,,,,,,,,,,,,,,,,,,,,,1,,,,,,,,,,,,,,,,,,,,,,,,,,,,,,,,,,,,,,,,,,,,,,129,155461,22,Female,1,2024/03/27_14:10:01,YZ,50.485275321403876,
,,,,,,test,1,2,3,1068,10,C,0,right,0.33762761199614033,1,0,,,,,,,,,,,,,,,,,,,,,1,,,,,,,,,,,,,,,,,,,,,,,,,,,,,,,,,,,,,,,,,,,,,,129,155461,22,Female,1,2024/03/27_14:10:01,YZ,50.485275321403876,
,,,,,,test,1,2,3,1068,11,C,0,right,0.2834898989967769,1,0,,,,,,,,,,,,,,,,,,,,,1,,,,,,,,,,,,,,,,,,,,,,,,,,,,,,,,,,,,,,,,,,,,,,129,155461,22,Female,1,2024/03/27_14:10:01,YZ,50.485275321403876,
,,,,,,Test,1,2,3,1068,,,,,,,,0.5,0.0,0.0,1.0,0.0,1.0,0.5268773083635924,0,0,0,0,0,8,8,3,8,0,,,,1,,,,,,,,,,,,,,,,,,,,,,,,,,,,,,,,,,,,,,,,,,,,,,129,155461,22,Female,1,2024/03/27_14:10:01,YZ,50.485275321403876,
,,,,,240327_142909,TEST,1,2,3,1068,,,,,,,,,,,,,,,,,,,,,,,,,,,,1,2,2,2,cue2.png,hard,A,21,0.7744363829988288,0,983.9493558149989,984.7513911279966,,,,,,,,,,,,,,,,,,,,,,,,,,,,,,,,,,,129,155461,22,Female,1,2024/03/27_14:10:01,YZ,50.485275321403876,
,,,,,,test,1,3,1,1068,1,V,0,right,0.4381004149909131,1,0,,,,,,,,,,,,,,,,,,,,,1,,,,,,,,,,,,,,,,,,,,,,,,,,,,,,,,,,,,,,,,,,,,,,129,155461,22,Female,1,2024/03/27_14:10:01,YZ,50.485275321403876,
,,,,,,test,1,3,1,1068,2,S,0,right,0.41101422399515286,1,0,,,,,,,,,,,,,,,,,,,,,1,,,,,,,,,,,,,,,,,,,,,,,,,,,,,,,,,,,,,,,,,,,,,,129,155461,22,Female,1,2024/03/27_14:10:01,YZ,50.485275321403876,
,,,,,,test,1,3,1,1068,3,C,0,right,0.386441045004176,1,0,,,,,,,,,,,,,,,,,,,,,1,,,,,,,,,,,,,,,,,,,,,,,,,,,,,,,,,,,,,,,,,,,,,,129,155461,22,Female,1,2024/03/27_14:10:01,YZ,50.485275321403876,
,,,,,,test,1,3,1,1068,4,C,1,left,0.3311359390063444,1,0,,,,,,,,,,,,,,,,,,,,,1,,,,,,,,,,,,,,,,,,,,,,,,,,,,,,,,,,,,,,,,,,,,,,129,155461,22,Female,1,2024/03/27_14:10:01,YZ,50.485275321403876,
,,,,,,test,1,3,1,1068,5,N,0,right,0.31395277599222027,1,0,,,,,,,,,,,,,,,,,,,,,1,,,,,,,,,,,,,,,,,,,,,,,,,,,,,,,,,,,,,,,,,,,,,,129,155461,22,Female,1,2024/03/27_14:10:01,YZ,50.485275321403876,
,,,,,,test,1,3,1,1068,6,C,0,right,0.3305974730028538,1,0,,,,,,,,,,,,,,,,,,,,,1,,,,,,,,,,,,,,,,,,,,,,,,,,,,,,,,,,,,,,,,,,,,,,129,155461,22,Female,1,2024/03/27_14:10:01,YZ,50.485275321403876,
,,,,,,test,1,3,1,1068,7,N,0,right,0.3785363829956623,1,0,,,,,,,,,,,,,,,,,,,,,1,,,,,,,,,,,,,,,,,,,,,,,,,,,,,,,,,,,,,,,,,,,,,,129,155461,22,Female,1,2024/03/27_14:10:01,YZ,50.485275321403876,
,,,,,,test,1,3,1,1068,8,N,1,left,0.5535399520013016,1,0,,,,,,,,,,,,,,,,,,,,,1,,,,,,,,,,,,,,,,,,,,,,,,,,,,,,,,,,,,,,,,,,,,,,129,155461,22,Female,1,2024/03/27_14:10:01,YZ,50.485275321403876,
,,,,,,test,1,3,1,1068,9,J,0,right,0.40255474600417074,1,0,,,,,,,,,,,,,,,,,,,,,1,,,,,,,,,,,,,,,,,,,,,,,,,,,,,,,,,,,,,,,,,,,,,,129,155461,22,Female,1,2024/03/27_14:10:01,YZ,50.485275321403876,
,,,,,,test,1,3,1,1068,10,J,1,left,0.4266215759998886,1,0,,,,,,,,,,,,,,,,,,,,,1,,,,,,,,,,,,,,,,,,,,,,,,,,,,,,,,,,,,,,,,,,,,,,129,155461,22,Female,1,2024/03/27_14:10:01,YZ,50.485275321403876,
,,,,,,test,1,3,1,1068,11,Q,0,right,0.3378532260103384,1,0,,,,,,,,,,,,,,,,,,,,,1,,,,,,,,,,,,,,,,,,,,,,,,,,,,,,,,,,,,,,,,,,,,,,129,155461,22,Female,1,2024/03/27_14:10:01,YZ,50.485275321403876,
,,,,,,Test,1,3,1,1068,,,,,,,,1.0,1.0,0.0,1.0,0.0,1.0,0.39184979590936564,3,0,0,0,0,8,11,3,8,0,,,,1,,,,,,,,,,,,,,,,,,,,,,,,,,,,,,,,,,,,,,,,,,,,,,129,155461,22,Female,1,2024/03/27_14:10:01,YZ,50.485275321403876,
,,,,,240327_142929,TEST,1,3,1,1068,,,,,,,,,,,,,,,,,,,,,,,,,,,,1,3,3,3,cue1.png,easy,A,25,0.9961566099955235,0,1005.5877087609988,1006.611828277004,,,,,,,,,,,,,,,,,,,,,,,,,,,,,,,,,,,129,155461,22,Female,1,2024/03/27_14:10:01,YZ,50.485275321403876,
,,,,,,test,1,4,3,1068,1,C,0,right,1.3039234939933522,1,0,,,,,,,,,,,,,,,,,,,,,1,,,,,,,,,,,,,,,,,,,,,,,,,,,,,,,,,,,,,,,,,,,,,,129,155461,22,Female,1,2024/03/27_14:10:01,YZ,50.485275321403876,
,,,,,,test,1,4,3,1068,2,X,0,right,0.5743937950028339,1,0,,,,,,,,,,,,,,,,,,,,,1,,,,,,,,,,,,,,,,,,,,,,,,,,,,,,,,,,,,,,,,,,,,,,129,155461,22,Female,1,2024/03/27_14:10:01,YZ,50.485275321403876,
,,,,,,test,1,4,3,1068,3,Q,0,right,0.574198823000188,1,0,,,,,,,,,,,,,,,,,,,,,1,,,,,,,,,,,,,,,,,,,,,,,,,,,,,,,,,,,,,,,,,,,,,,129,155461,22,Female,1,2024/03/27_14:10:01,YZ,50.485275321403876,
,,,,,,test,1,4,3,1068,4,Q,0,right,0.2632028649968561,1,0,,,,,,,,,,,,,,,,,,,,,1,,,,,,,,,,,,,,,,,,,,,,,,,,,,,,,,,,,,,,,,,,,,,,129,155461,22,Female,1,2024/03/27_14:10:01,YZ,50.485275321403876,
,,,,,,test,1,4,3,1068,5,X,1,left,0.5738124130002689,1,0,,,,,,,,,,,,,,,,,,,,,1,,,,,,,,,,,,,,,,,,,,,,,,,,,,,,,,,,,,,,,,,,,,,,129,155461,22,Female,1,2024/03/27_14:10:01,YZ,50.485275321403876,
,,,,,,test,1,4,3,1068,6,J,0,right,0.2035584240074968,1,0,,,,,,,,,,,,,,,,,,,,,1,,,,,,,,,,,,,,,,,,,,,,,,,,,,,,,,,,,,,,,,,,,,,,129,155461,22,Female,1,2024/03/27_14:10:01,YZ,50.485275321403876,
,,,,,,test,1,4,3,1068,7,S,0,right,0.26820357200631406,1,0,,,,,,,,,,,,,,,,,,,,,1,,,,,,,,,,,,,,,,,,,,,,,,,,,,,,,,,,,,,,,,,,,,,,129,155461,22,Female,1,2024/03/27_14:10:01,YZ,50.485275321403876,
,,,,,,test,1,4,3,1068,8,X,1,right,0.09928176100947894,0,0,,,,,,,,,,,,,,,,,,,,,1,,,,,,,,,,,,,,,,,,,,,,,,,,,,,,,,,,,,,,,,,,,,,,129,155461,22,Female,1,2024/03/27_14:10:01,YZ,50.485275321403876,
,,,,,,test,1,4,3,1068,9,J,1,right,0.033950140001252294,0,0,,,,,,,,,,,,,,,,,,,,,1,,,,,,,,,,,,,,,,,,,,,,,,,,,,,,,,,,,,,,,,,,,,,,129,155461,22,Female,1,2024/03/27_14:10:01,YZ,50.485275321403876,
,,,,,,test,1,4,3,1068,10,Q,0,right,0.018988808005815372,1,0,,,,,,,,,,,,,,,,,,,,,1,,,,,,,,,,,,,,,,,,,,,,,,,,,,,,,,,,,,,,,,,,,,,,129,155461,22,Female,1,2024/03/27_14:10:01,YZ,50.485275321403876,
,,,,,,test,1,4,3,1068,11,F,0,right,0.12224148100358434,1,0,,,,,,,,,,,,,,,,,,,,,1,,,,,,,,,,,,,,,,,,,,,,,,,,,,,,,,,,,,,,,,,,,,,,129,155461,22,Female,1,2024/03/27_14:10:01,YZ,50.485275321403876,
,,,,,,Test,1,4,3,1068,,,,,,,,0.8333333333333334,0.3333333333333333,0.0,1.0,0.0,1.0,0.36688687054794916,1,0,0,0,0,8,9,3,8,0,,,,1,,,,,,,,,,,,,,,,,,,,,,,,,,,,,,,,,,,,,,,,,,,,,,129,155461,22,Female,1,2024/03/27_14:10:01,YZ,50.485275321403876,
,,,,,240327_142949,TEST,1,4,3,1068,,,,,,,,,,,,,,,,,,,,,,,,,,,,1,4,4,4,cue2.png,hard,A,24,0.6505959690111922,0,1025.920068765001,1026.599212510002,,,,,,,,,,,,,,,,,,,,,,,,,,,,,,,,,,,129,155461,22,Female,1,2024/03/27_14:10:01,YZ,50.485275321403876,
,,,,,,test,1,5,3,1068,1,N,0,right,0.43293940600415226,1,0,,,,,,,,,,,,,,,,,,,,,1,,,,,,,,,,,,,,,,,,,,,,,,,,,,,,,,,,,,,,,,,,,,,,129,155461,22,Female,1,2024/03/27_14:10:01,YZ,50.485275321403876,
,,,,,,test,1,5,3,1068,2,N,0,right,0.27465553900401574,1,0,,,,,,,,,,,,,,,,,,,,,1,,,,,,,,,,,,,,,,,,,,,,,,,,,,,,,,,,,,,,,,,,,,,,129,155461,22,Female,1,2024/03/27_14:10:01,YZ,50.485275321403876,
,,,,,,test,1,5,3,1068,3,X,0,right,0.33886745499330573,1,0,,,,,,,,,,,,,,,,,,,,,1,,,,,,,,,,,,,,,,,,,,,,,,,,,,,,,,,,,,,,,,,,,,,,129,155461,22,Female,1,2024/03/27_14:10:01,YZ,50.485275321403876,
,,,,,,test,1,5,3,1068,4,X,0,right,0.42641098899184726,1,0,,,,,,,,,,,,,,,,,,,,,1,,,,,,,,,,,,,,,,,,,,,,,,,,,,,,,,,,,,,,,,,,,,,,129,155461,22,Female,1,2024/03/27_14:10:01,YZ,50.485275321403876,
,,,,,,test,1,5,3,1068,5,J,0,right,0.5149278949975269,1,0,,,,,,,,,,,,,,,,,,,,,1,,,,,,,,,,,,,,,,,,,,,,,,,,,,,,,,,,,,,,,,,,,,,,129,155461,22,Female,1,2024/03/27_14:10:01,YZ,50.485275321403876,
,,,,,,test,1,5,3,1068,6,X,1,left,0.3909471769875381,1,0,,,,,,,,,,,,,,,,,,,,,1,,,,,,,,,,,,,,,,,,,,,,,,,,,,,,,,,,,,,,,,,,,,,,129,155461,22,Female,1,2024/03/27_14:10:01,YZ,50.485275321403876,
,,,,,,test,1,5,3,1068,7,F,0,right,0.5490922479948495,1,0,,,,,,,,,,,,,,,,,,,,,1,,,,,,,,,,,,,,,,,,,,,,,,,,,,,,,,,,,,,,,,,,,,,,129,155461,22,Female,1,2024/03/27_14:10:01,YZ,50.485275321403876,
,,,,,,test,1,5,3,1068,8,N,0,right,0.42886690799787175,1,0,,,,,,,,,,,,,,,,,,,,,1,,,,,,,,,,,,,,,,,,,,,,,,,,,,,,,,,,,,,,,,,,,,,,129,155461,22,Female,1,2024/03/27_14:10:01,YZ,50.485275321403876,
,,,,,,test,1,5,3,1068,9,N,0,right,0.49030518499785103,1,0,,,,,,,,,,,,,,,,,,,,,1,,,,,,,,,,,,,,,,,,,,,,,,,,,,,,,,,,,,,,,,,,,,,,129,155461,22,Female,1,2024/03/27_14:10:01,YZ,50.485275321403876,
,,,,,,test,1,5,3,1068,10,F,1,left,0.5550109479954699,1,0,,,,,,,,,,,,,,,,,,,,,1,,,,,,,,,,,,,,,,,,,,,,,,,,,,,,,,,,,,,,,,,,,,,,129,155461,22,Female,1,2024/03/27_14:10:01,YZ,50.485275321403876,
,,,,,,test,1,5,3,1068,11,N,1,right,0.34188620300847106,0,0,,,,,,,,,,,,,,,,,,,,,1,,,,,,,,,,,,,,,,,,,,,,,,,,,,,,,,,,,,,,,,,,,,,,129,155461,22,Female,1,2024/03/27_14:10:01,YZ,50.485275321403876,
,,,,,,Test,1,5,3,1068,,,,,,,,0.9166666666666666,0.6666666666666666,0.0,1.0,0.0,1.0,0.4312645411793545,2,0,0,0,0,8,10,3,8,0,,,,1,,,,,,,,,,,,,,,,,,,,,,,,,,,,,,,,,,,,,,,,,,,,,,129,155461,22,Female,1,2024/03/27_14:10:01,YZ,50.485275321403876,
,,,,,240327_143009,TEST,1,5,3,1068,,,,,,,,,,,,,,,,,,,,,,,,,,,,1,5,5,5,cue2.png,hard,A,23,0.5122776389907813,0,1045.6936633409932,1046.2317688610055,,,,,,,,,,,,,,,,,,,,,,,,,,,,,,,,,,,129,155461,22,Female,1,2024/03/27_14:10:01,YZ,50.485275321403876,
,,,,,,test,1,6,1,1068,1,J,0,right,0.7112531549937557,1,0,,,,,,,,,,,,,,,,,,,,,1,,,,,,,,,,,,,,,,,,,,,,,,,,,,,,,,,,,,,,,,,,,,,,129,155461,22,Female,1,2024/03/27_14:10:01,YZ,50.485275321403876,
,,,,,,test,1,6,1,1068,2,C,0,right,0.38265889600734226,1,0,,,,,,,,,,,,,,,,,,,,,1,,,,,,,,,,,,,,,,,,,,,,,,,,,,,,,,,,,,,,,,,,,,,,129,155461,22,Female,1,2024/03/27_14:10:01,YZ,50.485275321403876,
,,,,,,test,1,6,1,1068,3,Q,0,right,0.4264169959933497,1,0,,,,,,,,,,,,,,,,,,,,,1,,,,,,,,,,,,,,,,,,,,,,,,,,,,,,,,,,,,,,,,,,,,,,129,155461,22,Female,1,2024/03/27_14:10:01,YZ,50.485275321403876,
,,,,,,test,1,6,1,1068,4,X,0,right,0.38618356600636616,1,0,,,,,,,,,,,,,,,,,,,,,1,,,,,,,,,,,,,,,,,,,,,,,,,,,,,,,,,,,,,,,,,,,,,,129,155461,22,Female,1,2024/03/27_14:10:01,YZ,50.485275321403876,
,,,,,,test,1,6,1,1068,5,V,0,right,0.47601944699999876,1,0,,,,,,,,,,,,,,,,,,,,,1,,,,,,,,,,,,,,,,,,,,,,,,,,,,,,,,,,,,,,,,,,,,,,129,155461,22,Female,1,2024/03/27_14:10:01,YZ,50.485275321403876,
,,,,,,test,1,6,1,1068,6,V,1,left,0.3623346479871543,1,0,,,,,,,,,,,,,,,,,,,,,1,,,,,,,,,,,,,,,,,,,,,,,,,,,,,,,,,,,,,,,,,,,,,,129,155461,22,Female,1,2024/03/27_14:10:01,YZ,50.485275321403876,
,,,,,,test,1,6,1,1068,7,C,0,right,0.26598728200769983,1,0,,,,,,,,,,,,,,,,,,,,,1,,,,,,,,,,,,,,,,,,,,,,,,,,,,,,,,,,,,,,,,,,,,,,129,155461,22,Female,1,2024/03/27_14:10:01,YZ,50.485275321403876,
,,,,,,test,1,6,1,1068,8,C,1,left,0.36263387599319685,1,0,,,,,,,,,,,,,,,,,,,,,1,,,,,,,,,,,,,,,,,,,,,,,,,,,,,,,,,,,,,,,,,,,,,,129,155461,22,Female,1,2024/03/27_14:10:01,YZ,50.485275321403876,
,,,,,,test,1,6,1,1068,9,V,0,right,0.3297389299987117,1,0,,,,,,,,,,,,,,,,,,,,,1,,,,,,,,,,,,,,,,,,,,,,,,,,,,,,,,,,,,,,,,,,,,,,129,155461,22,Female,1,2024/03/27_14:10:01,YZ,50.485275321403876,
,,,,,,test,1,6,1,1068,10,V,1,left,0.4265563079970889,1,0,,,,,,,,,,,,,,,,,,,,,1,,,,,,,,,,,,,,,,,,,,,,,,,,,,,,,,,,,,,,,,,,,,,,129,155461,22,Female,1,2024/03/27_14:10:01,YZ,50.485275321403876,
,,,,,,test,1,6,1,1068,11,X,0,right,0.37020721498993225,1,0,,,,,,,,,,,,,,,,,,,,,1,,,,,,,,,,,,,,,,,,,,,,,,,,,,,,,,,,,,,,,,,,,,,,129,155461,22,Female,1,2024/03/27_14:10:01,YZ,50.485275321403876,
,,,,,,Test,1,6,1,1068,,,,,,,,1.0,1.0,0.0,1.0,0.0,1.0,0.4090900289976906,3,0,0,0,0,8,11,3,8,0,,,,1,,,,,,,,,,,,,,,,,,,,,,,,,,,,,,,,,,,,,,,,,,,,,,129,155461,22,Female,1,2024/03/27_14:10:01,YZ,50.485275321403876,
,,,,,240327_143030,TEST,1,6,1,1068,,,,,,,,,,,,,,,,,,,,,,,,,,,,1,6,6,6,cue1.png,easy,A,21,0.6127059809950879,0,1066.0105800040037,1066.6517156549962,,,,,,,,,,,,,,,,,,,,,,,,,,,,,,,,,,,129,155461,22,Female,1,2024/03/27_14:10:01,YZ,50.485275321403876,
,,,,,,test,1,7,3,1068,1,C,0,right,0.6331966239959002,1,0,,,,,,,,,,,,,,,,,,,,,1,,,,,,,,,,,,,,,,,,,,,,,,,,,,,,,,,,,,,,,,,,,,,,129,155461,22,Female,1,2024/03/27_14:10:01,YZ,50.485275321403876,
,,,,,,test,1,7,3,1068,2,X,0,right,0.31483498599845916,1,0,,,,,,,,,,,,,,,,,,,,,1,,,,,,,,,,,,,,,,,,,,,,,,,,,,,,,,,,,,,,,,,,,,,,129,155461,22,Female,1,2024/03/27_14:10:01,YZ,50.485275321403876,
,,,,,,test,1,7,3,1068,3,F,0,right,0.42657101499207783,1,0,,,,,,,,,,,,,,,,,,,,,1,,,,,,,,,,,,,,,,,,,,,,,,,,,,,,,,,,,,,,,,,,,,,,129,155461,22,Female,1,2024/03/27_14:10:01,YZ,50.485275321403876,
,,,,,,test,1,7,3,1068,4,F,0,right,0.42672277700330596,1,0,,,,,,,,,,,,,,,,,,,,,1,,,,,,,,,,,,,,,,,,,,,,,,,,,,,,,,,,,,,,,,,,,,,,129,155461,22,Female,1,2024/03/27_14:10:01,YZ,50.485275321403876,
,,,,,,test,1,7,3,1068,5,V,0,left,0.35451341899170075,0,0,,,,,,,,,,,,,,,,,,,,,1,,,,,,,,,,,,,,,,,,,,,,,,,,,,,,,,,,,,,,,,,,,,,,129,155461,22,Female,1,2024/03/27_14:10:01,YZ,50.485275321403876,
,,,,,,test,1,7,3,1068,6,F,1,right,0.25791618700895924,0,0,,,,,,,,,,,,,,,,,,,,,1,,,,,,,,,,,,,,,,,,,,,,,,,,,,,,,,,,,,,,,,,,,,,,129,155461,22,Female,1,2024/03/27_14:10:01,YZ,50.485275321403876,
,,,,,,test,1,7,3,1068,7,Q,0,right,0.6324148169951513,1,0,,,,,,,,,,,,,,,,,,,,,1,,,,,,,,,,,,,,,,,,,,,,,,,,,,,,,,,,,,,,,,,,,,,,129,155461,22,Female,1,2024/03/27_14:10:01,YZ,50.485275321403876,
,,,,,,test,1,7,3,1068,8,X,0,right,0.3922980869974708,1,0,,,,,,,,,,,,,,,,,,,,,1,,,,,,,,,,,,,,,,,,,,,,,,,,,,,,,,,,,,,,,,,,,,,,129,155461,22,Female,1,2024/03/27_14:10:01,YZ,50.485275321403876,
,,,,,,test,1,7,3,1068,9,F,1,left,0.5736797669960652,1,0,,,,,,,,,,,,,,,,,,,,,1,,,,,,,,,,,,,,,,,,,,,,,,,,,,,,,,,,,,,,,,,,,,,,129,155461,22,Female,1,2024/03/27_14:10:01,YZ,50.485275321403876,
,,,,,,test,1,7,3,1068,10,C,0,right,0.31740617399918847,1,0,,,,,,,,,,,,,,,,,,,,,1,,,,,,,,,,,,,,,,,,,,,,,,,,,,,,,,,,,,,,,,,,,,,,129,155461,22,Female,1,2024/03/27_14:10:01,YZ,50.485275321403876,
,,,,,,test,1,7,3,1068,11,X,1,right,0.29857274499954656,0,0,,,,,,,,,,,,,,,,,,,,,1,,,,,,,,,,,,,,,,,,,,,,,,,,,,,,,,,,,,,,,,,,,,,,129,155461,22,Female,1,2024/03/27_14:10:01,YZ,50.485275321403876,
,,,,,,Test,1,7,3,1068,,,,,,,,0.7083333333333334,0.3333333333333333,0.125,0.875,0.0,0.875,0.42073878163434775,1,1,0,0,0,7,8,3,8,0,,,,1,,,,,,,,,,,,,,,,,,,,,,,,,,,,,,,,,,,,,,,,,,,,,,129,155461,22,Female,1,2024/03/27_14:10:01,YZ,50.485275321403876,
,,,,,240327_143050,TEST,1,7,3,1068,,,,,,,,,,,,,,,,,,,,,,,,,,,,1,7,7,7,cue2.png,hard,A,21,0.568131184001686,0,1086.1532388990017,1086.7496079150005,,,,,,,,,,,,,,,,,,,,,,,,,,,,,,,,,,,129,155461,22,Female,1,2024/03/27_14:10:01,YZ,50.485275321403876,
,,,,,,test,1,8,3,1068,1,N,0,right,0.614107311994303,1,0,,,,,,,,,,,,,,,,,,,,,1,,,,,,,,,,,,,,,,,,,,,,,,,,,,,,,,,,,,,,,,,,,,,,129,155461,22,Female,1,2024/03/27_14:10:01,YZ,50.485275321403876,
,,,,,,test,1,8,3,1068,2,N,0,right,0.3764324389921967,1,0,,,,,,,,,,,,,,,,,,,,,1,,,,,,,,,,,,,,,,,,,,,,,,,,,,,,,,,,,,,,,,,,,,,,129,155461,22,Female,1,2024/03/27_14:10:01,YZ,50.485275321403876,
,,,,,,test,1,8,3,1068,3,S,0,right,0.4349136110104155,1,0,,,,,,,,,,,,,,,,,,,,,1,,,,,,,,,,,,,,,,,,,,,,,,,,,,,,,,,,,,,,,,,,,,,,129,155461,22,Female,1,2024/03/27_14:10:01,YZ,50.485275321403876,
,,,,,,test,1,8,3,1068,4,C,0,right,0.40277513800538145,1,0,,,,,,,,,,,,,,,,,,,,,1,,,,,,,,,,,,,,,,,,,,,,,,,,,,,,,,,,,,,,,,,,,,,,129,155461,22,Female,1,2024/03/27_14:10:01,YZ,50.485275321403876,
,,,,,,test,1,8,3,1068,5,N,1,left,0.3304179460101295,1,0,,,,,,,,,,,,,,,,,,,,,1,,,,,,,,,,,,,,,,,,,,,,,,,,,,,,,,,,,,,,,,,,,,,,129,155461,22,Female,1,2024/03/27_14:10:01,YZ,50.485275321403876,
,,,,,,test,1,8,3,1068,6,F,0,right,0.37061953599913977,1,0,,,,,,,,,,,,,,,,,,,,,1,,,,,,,,,,,,,,,,,,,,,,,,,,,,,,,,,,,,,,,,,,,,,,129,155461,22,Female,1,2024/03/27_14:10:01,YZ,50.485275321403876,
,,,,,,test,1,8,3,1068,7,S,0,right,0.2827375019987812,1,0,,,,,,,,,,,,,,,,,,,,,1,,,,,,,,,,,,,,,,,,,,,,,,,,,,,,,,,,,,,,,,,,,,,,129,155461,22,Female,1,2024/03/27_14:10:01,YZ,50.485275321403876,
,,,,,,test,1,8,3,1068,8,C,0,left,0.43465671299782116,0,0,,,,,,,,,,,,,,,,,,,,,1,,,,,,,,,,,,,,,,,,,,,,,,,,,,,,,,,,,,,,,,,,,,,,129,155461,22,Female,1,2024/03/27_14:10:01,YZ,50.485275321403876,
,,,,,,test,1,8,3,1068,9,N,0,right,0.28227718200651,1,0,,,,,,,,,,,,,,,,,,,,,1,,,,,,,,,,,,,,,,,,,,,,,,,,,,,,,,,,,,,,,,,,,,,,129,155461,22,Female,1,2024/03/27_14:10:01,YZ,50.485275321403876,
,,,,,,test,1,8,3,1068,10,S,1,right,0.3627675189927686,0,0,,,,,,,,,,,,,,,,,,,,,1,,,,,,,,,,,,,,,,,,,,,,,,,,,,,,,,,,,,,,,,,,,,,,129,155461,22,Female,1,2024/03/27_14:10:01,YZ,50.485275321403876,
,,,,,,test,1,8,3,1068,11,C,1,right,0.3868778089963598,0,0,,,,,,,,,,,,,,,,,,,,,1,,,,,,,,,,,,,,,,,,,,,,,,,,,,,,,,,,,,,,,,,,,,,,129,155461,22,Female,1,2024/03/27_14:10:01,YZ,50.485275321403876,
,,,,,,Test,1,8,3,1068,,,,,,,,0.7083333333333334,0.3333333333333333,0.125,0.875,0.0,0.875,0.38896206427307334,1,1,0,0,0,7,8,3,8,0,,,,1,,,,,,,,,,,,,,,,,,,,,,,,,,,,,,,,,,,,,,,,,,,,,,129,155461,22,Female,1,2024/03/27_14:10:01,YZ,50.485275321403876,
,,,,,240327_143110,TEST,1,8,3,1068,,,,,,,,,,,,,,,,,,,,,,,,,,,,1,8,8,8,cue2.png,hard,A,22,0.5890259819861967,0,1106.4194404080044,1107.0358349580056,,,,,,,,,,,,,,,,,,,,,,,,,,,,,,,,,,,129,155461,22,Female,1,2024/03/27_14:10:01,YZ,50.485275321403876,
,,,,,,test,1,9,1,1068,1,C,0,right,0.3573808639921481,1,0,,,,,,,,,,,,,,,,,,,,,1,,,,,,,,,,,,,,,,,,,,,,,,,,,,,,,,,,,,,,,,,,,,,,129,155461,22,Female,1,2024/03/27_14:10:01,YZ,50.485275321403876,
,,,,,,test,1,9,1,1068,2,C,1,left,0.49023040299653076,1,0,,,,,,,,,,,,,,,,,,,,,1,,,,,,,,,,,,,,,,,,,,,,,,,,,,,,,,,,,,,,,,,,,,,,129,155461,22,Female,1,2024/03/27_14:10:01,YZ,50.485275321403876,
,,,,,,test,1,9,1,1068,3,V,0,right,0.3544520569994347,1,0,,,,,,,,,,,,,,,,,,,,,1,,,,,,,,,,,,,,,,,,,,,,,,,,,,,,,,,,,,,,,,,,,,,,129,155461,22,Female,1,2024/03/27_14:10:01,YZ,50.485275321403876,
,,,,,,test,1,9,1,1068,4,Q,0,right,0.3784598799975356,1,0,,,,,,,,,,,,,,,,,,,,,1,,,,,,,,,,,,,,,,,,,,,,,,,,,,,,,,,,,,,,,,,,,,,,129,155461,22,Female,1,2024/03/27_14:10:01,YZ,50.485275321403876,
,,,,,,test,1,9,1,1068,5,N,0,right,0.4433658409980126,1,0,,,,,,,,,,,,,,,,,,,,,1,,,,,,,,,,,,,,,,,,,,,,,,,,,,,,,,,,,,,,,,,,,,,,129,155461,22,Female,1,2024/03/27_14:10:01,YZ,50.485275321403876,
,,,,,,test,1,9,1,1068,6,F,0,right,0.3784370359935565,1,0,,,,,,,,,,,,,,,,,,,,,1,,,,,,,,,,,,,,,,,,,,,,,,,,,,,,,,,,,,,,,,,,,,,,129,155461,22,Female,1,2024/03/27_14:10:01,YZ,50.485275321403876,
,,,,,,test,1,9,1,1068,7,J,0,right,0.3869168339879252,1,0,,,,,,,,,,,,,,,,,,,,,1,,,,,,,,,,,,,,,,,,,,,,,,,,,,,,,,,,,,,,,,,,,,,,129,155461,22,Female,1,2024/03/27_14:10:01,YZ,50.485275321403876,
,,,,,,test,1,9,1,1068,8,C,0,right,0.4595669919945067,1,0,,,,,,,,,,,,,,,,,,,,,1,,,,,,,,,,,,,,,,,,,,,,,,,,,,,,,,,,,,,,,,,,,,,,129,155461,22,Female,1,2024/03/27_14:10:01,YZ,50.485275321403876,
,,,,,,test,1,9,1,1068,9,C,1,left,0.5547918810043484,1,0,,,,,,,,,,,,,,,,,,,,,1,,,,,,,,,,,,,,,,,,,,,,,,,,,,,,,,,,,,,,,,,,,,,,129,155461,22,Female,1,2024/03/27_14:10:01,YZ,50.485275321403876,
,,,,,,test,1,9,1,1068,10,Q,0,right,0.4390381039993372,1,0,,,,,,,,,,,,,,,,,,,,,1,,,,,,,,,,,,,,,,,,,,,,,,,,,,,,,,,,,,,,,,,,,,,,129,155461,22,Female,1,2024/03/27_14:10:01,YZ,50.485275321403876,
,,,,,,test,1,9,1,1068,11,Q,1,left,0.6762678980012424,1,0,,,,,,,,,,,,,,,,,,,,,1,,,,,,,,,,,,,,,,,,,,,,,,,,,,,,,,,,,,,,,,,,,,,,129,155461,22,Female,1,2024/03/27_14:10:01,YZ,50.485275321403876,
,,,,,,Test,1,9,1,1068,,,,,,,,1.0,1.0,0.0,1.0,0.0,1.0,0.44717343545132526,3,0,0,0,0,8,11,3,8,0,,,,1,,,,,,,,,,,,,,,,,,,,,,,,,,,,,,,,,,,,,,,,,,,,,,129,155461,22,Female,1,2024/03/27_14:10:01,YZ,50.485275321403876,
,,,,,240327_143130,TEST,1,9,1,1068,,,,,,,,,,,,,,,,,,,,,,,,,,,,1,9,9,9,cue1.png,easy,A,21,0.5505322809913196,0,1126.3074549309968,1126.8862877929932,,,,,,,,,,,,,,,,,,,,,,,,,,,,,,,,,,,129,155461,22,Female,1,2024/03/27_14:10:01,YZ,50.485275321403876,
,,,,,,test,1,10,1,1068,1,C,0,right,0.8841571310040308,1,0,,,,,,,,,,,,,,,,,,,,,1,,,,,,,,,,,,,,,,,,,,,,,,,,,,,,,,,,,,,,,,,,,,,,129,155461,22,Female,1,2024/03/27_14:10:01,YZ,50.485275321403876,
,,,,,,test,1,10,1,1068,2,S,0,right,0.3620435000048019,1,0,,,,,,,,,,,,,,,,,,,,,1,,,,,,,,,,,,,,,,,,,,,,,,,,,,,,,,,,,,,,,,,,,,,,129,155461,22,Female,1,2024/03/27_14:10:01,YZ,50.485275321403876,
,,,,,,test,1,10,1,1068,3,X,0,right,0.41168542600644287,1,0,,,,,,,,,,,,,,,,,,,,,1,,,,,,,,,,,,,,,,,,,,,,,,,,,,,,,,,,,,,,,,,,,,,,129,155461,22,Female,1,2024/03/27_14:10:01,YZ,50.485275321403876,
,,,,,,test,1,10,1,1068,4,V,0,right,0.4827158299885923,1,0,,,,,,,,,,,,,,,,,,,,,1,,,,,,,,,,,,,,,,,,,,,,,,,,,,,,,,,,,,,,,,,,,,,,129,155461,22,Female,1,2024/03/27_14:10:01,YZ,50.485275321403876,
,,,,,,test,1,10,1,1068,5,V,1,left,0.4829137409979012,1,0,,,,,,,,,,,,,,,,,,,,,1,,,,,,,,,,,,,,,,,,,,,,,,,,,,,,,,,,,,,,,,,,,,,,129,155461,22,Female,1,2024/03/27_14:10:01,YZ,50.485275321403876,
,,,,,,test,1,10,1,1068,6,Q,0,right,0.29839123599231243,1,0,,,,,,,,,,,,,,,,,,,,,1,,,,,,,,,,,,,,,,,,,,,,,,,,,,,,,,,,,,,,,,,,,,,,129,155461,22,Female,1,2024/03/27_14:10:01,YZ,50.485275321403876,
,,,,,,test,1,10,1,1068,7,Q,1,left,0.34644023299915716,1,0,,,,,,,,,,,,,,,,,,,,,1,,,,,,,,,,,,,,,,,,,,,,,,,,,,,,,,,,,,,,,,,,,,,,129,155461,22,Female,1,2024/03/27_14:10:01,YZ,50.485275321403876,
,,,,,,test,1,10,1,1068,8,X,0,right,0.3949591699929442,1,0,,,,,,,,,,,,,,,,,,,,,1,,,,,,,,,,,,,,,,,,,,,,,,,,,,,,,,,,,,,,,,,,,,,,129,155461,22,Female,1,2024/03/27_14:10:01,YZ,50.485275321403876,
,,,,,,test,1,10,1,1068,9,Q,0,right,0.43443187000229955,1,0,,,,,,,,,,,,,,,,,,,,,1,,,,,,,,,,,,,,,,,,,,,,,,,,,,,,,,,,,,,,,,,,,,,,129,155461,22,Female,1,2024/03/27_14:10:01,YZ,50.485275321403876,
,,,,,,test,1,10,1,1068,10,C,0,right,0.5934788960003061,1,0,,,,,,,,,,,,,,,,,,,,,1,,,,,,,,,,,,,,,,,,,,,,,,,,,,,,,,,,,,,,,,,,,,,,129,155461,22,Female,1,2024/03/27_14:10:01,YZ,50.485275321403876,
,,,,,,test,1,10,1,1068,11,C,1,right,0.40811706900421996,0,0,,,,,,,,,,,,,,,,,,,,,1,,,,,,,,,,,,,,,,,,,,,,,,,,,,,,,,,,,,,,,,,,,,,,129,155461,22,Female,1,2024/03/27_14:10:01,YZ,50.485275321403876,
,,,,,,Test,1,10,1,1068,,,,,,,,0.9166666666666666,0.6666666666666666,0.0,1.0,0.0,1.0,0.46357582745390985,2,0,0,0,0,8,10,3,8,0,,,,1,,,,,,,,,,,,,,,,,,,,,,,,,,,,,,,,,,,,,,,,,,,,,,129,155461,22,Female,1,2024/03/27_14:10:01,YZ,50.485275321403876,
,,,,,240327_143151,TEST,1,10,1,1068,,,,,,,,,,,,,,,,,,,,,,,,,,,,1,10,10,10,cue1.png,easy,A,22,0.7314660530100809,0,1146.825228264992,1147.5854301159998,,,,,,,,,,,,,,,,,,,,,,,,,,,,,,,,,,,129,155461,22,Female,1,2024/03/27_14:10:01,YZ,50.485275321403876,
,,,,,,test,1,11,3,1068,1,V,0,right,0.48902952000207733,1,0,,,,,,,,,,,,,,,,,,,,,1,,,,,,,,,,,,,,,,,,,,,,,,,,,,,,,,,,,,,,,,,,,,,,129,155461,22,Female,1,2024/03/27_14:10:01,YZ,50.485275321403876,
,,,,,,test,1,11,3,1068,2,Q,0,right,0.24192948699055705,1,0,,,,,,,,,,,,,,,,,,,,,1,,,,,,,,,,,,,,,,,,,,,,,,,,,,,,,,,,,,,,,,,,,,,,129,155461,22,Female,1,2024/03/27_14:10:01,YZ,50.485275321403876,
,,,,,,test,1,11,3,1068,3,Q,0,right,0.33036175000597723,1,0,,,,,,,,,,,,,,,,,,,,,1,,,,,,,,,,,,,,,,,,,,,,,,,,,,,,,,,,,,,,,,,,,,,,129,155461,22,Female,1,2024/03/27_14:10:01,YZ,50.485275321403876,
,,,,,,test,1,11,3,1068,4,F,0,right,0.4511616779927863,1,0,,,,,,,,,,,,,,,,,,,,,1,,,,,,,,,,,,,,,,,,,,,,,,,,,,,,,,,,,,,,,,,,,,,,129,155461,22,Female,1,2024/03/27_14:10:01,YZ,50.485275321403876,
,,,,,,test,1,11,3,1068,5,F,0,right,0.41111200299928896,1,0,,,,,,,,,,,,,,,,,,,,,1,,,,,,,,,,,,,,,,,,,,,,,,,,,,,,,,,,,,,,,,,,,,,,129,155461,22,Female,1,2024/03/27_14:10:01,YZ,50.485275321403876,
,,,,,,test,1,11,3,1068,6,J,0,right,0.5151113169995369,1,0,,,,,,,,,,,,,,,,,,,,,1,,,,,,,,,,,,,,,,,,,,,,,,,,,,,,,,,,,,,,,,,,,,,,129,155461,22,Female,1,2024/03/27_14:10:01,YZ,50.485275321403876,
,,,,,,test,1,11,3,1068,7,F,1,left,0.6137260270043043,1,0,,,,,,,,,,,,,,,,,,,,,1,,,,,,,,,,,,,,,,,,,,,,,,,,,,,,,,,,,,,,,,,,,,,,129,155461,22,Female,1,2024/03/27_14:10:01,YZ,50.485275321403876,
,,,,,,test,1,11,3,1068,8,C,0,right,0.3192079939908581,1,0,,,,,,,,,,,,,,,,,,,,,1,,,,,,,,,,,,,,,,,,,,,,,,,,,,,,,,,,,,,,,,,,,,,,129,155461,22,Female,1,2024/03/27_14:10:01,YZ,50.485275321403876,
,,,,,,test,1,11,3,1068,9,J,1,right,0.42671070399228483,0,0,,,,,,,,,,,,,,,,,,,,,1,,,,,,,,,,,,,,,,,,,,,,,,,,,,,,,,,,,,,,,,,,,,,,129,155461,22,Female,1,2024/03/27_14:10:01,YZ,50.485275321403876,
,,,,,,test,1,11,3,1068,10,X,0,right,0.307106506996206,1,0,,,,,,,,,,,,,,,,,,,,,1,,,,,,,,,,,,,,,,,,,,,,,,,,,,,,,,,,,,,,,,,,,,,,129,155461,22,Female,1,2024/03/27_14:10:01,YZ,50.485275321403876,
,,,,,,test,1,11,3,1068,11,C,1,right,0.3307864509988576,0,0,,,,,,,,,,,,,,,,,,,,,1,,,,,,,,,,,,,,,,,,,,,,,,,,,,,,,,,,,,,,,,,,,,,,129,155461,22,Female,1,2024/03/27_14:10:01,YZ,50.485275321403876,
,,,,,,Test,1,11,3,1068,,,,,,,,0.8333333333333334,0.3333333333333333,0.0,1.0,0.0,1.0,0.40329485799752135,1,0,0,0,0,8,9,3,8,0,,,,1,,,,,,,,,,,,,,,,,,,,,,,,,,,,,,,,,,,,,,,,,,,,,,129,155461,22,Female,1,2024/03/27_14:10:01,YZ,50.485275321403876,
