Instruction,Stimulus,Key,RT,START,END,Phase,Block,TrialN,NbackLevel,ISI,LetterN,Letter,Letter_isSame,Letter_Resp,Letter_RT,Letter_Accuracy,Letter_Timeout,Trial_A_measure,Trial_HR,Trial_FAR,Trial_CDR,Trial_MSR,Trial_ACC,Trial_RT,Trial_HitsCount,Trial_FAsCount,Trial_SameNoRespCount,Trial_DiffNoRespCount,Trial_NoRespCount,Trial_CDsCount,Trial_CorrectRespCount,Trial_SameLetterCount,Trial_DiffLetterCount,Trial_InvalidLetterCount,TrialCountCali,CaliEnd_A_measure,ISI_calibrated,Run,TrialIndex,TrialNumber_total,TrialNumber_valid,CueLearning,TrialDemandLearning,CueMapping,OnlineRating,OnlineRatingRT,OnlineRatingTimeOut,CueSTART,RatingSTART,OfflineRatingTimePoint,OfflineRatingQuesIndex,CueFigure,TrialDemand,OfflineRating,OfflineRatingRT,CueStart,OfflineRatingStart,PhaseType,CueLeft,CueDemandLeft,CueRight,CueDemandRight,Choice,ChoiceDemand,TaskDemand,ChoiceRT,ChoiceTimeOut,ChoiceSTART,CueCheck,CueDemandCheck,CorrectAnswer,Answer,AnswerDemand,AnswerRT,AnswerACC,AnswerTimeOut,CheckSTART,DemandRatingQuesIndex,QuesTLX,DemandLevel,DemandRating,DemandRatingRT,QuesStart,PID,SONA,Age,Gender,Run,TIME,EXPERIMENTER,frameRate,
-1,./instructions/inst_begin/Slide2.png,left,54.06709411900374,0.14941788400756195,54.2165120030113,,,,,,,,,,,,,,,,,,,,,,,,,,,,,,,,,1,,,,,,,,,,,,,,,,,,,,,,,,,,,,,,,,,,,,,,,,,,,,,,97,152404,22,Female,1,2024/03/18_08:44:28,YZ,None,
0,./instructions/inst_begin/Slide4.png,right,9.040812256978825,54.25552487501409,63.296337131992914,,,,,,,,,,,,,,,,,,,,,,,,,,,,,,,,,1,,,,,,,,,,,,,,,,,,,,,,,,,,,,,,,,,,,,,,,,,,,,,,97,152404,22,Female,1,2024/03/18_08:44:28,YZ,None,
1,./instructions/inst_begin/Slide2.png,right,2.6503779900085647,63.32583423200413,65.97621222201269,,,,,,,,,,,,,,,,,,,,,,,,,,,,,,,,,1,,,,,,,,,,,,,,,,,,,,,,,,,,,,,,,,,,,,,,,,,,,,,,97,152404,22,Female,1,2024/03/18_08:44:28,YZ,None,
2,./instructions/inst_begin/Slide3.png,right,15.824201062991051,66.02405397500843,81.84825503799948,,,,,,,,,,,,,,,,,,,,,,,,,,,,,,,,,1,,,,,,,,,,,,,,,,,,,,,,,,,,,,,,,,,,,,,,,,,,,,,,97,152404,22,Female,1,2024/03/18_08:44:28,YZ,None,
3,./instructions/inst_begin/Slide4.png,right,8.204623127996456,81.87582891099737,90.08045203899383,,,,,,,,,,,,,,,,,,,,,,,,,,,,,,,,,1,,,,,,,,,,,,,,,,,,,,,,,,,,,,,,,,,,,,,,,,,,,,,,97,152404,22,Female,1,2024/03/18_08:44:28,YZ,None,
1,./instructions/inst_prac_2/Slide6.png,right,38.68371288201888,90.11670749899349,128.80042038101237,,,,,,,,,,,,,,,,,,,,,,,,,,,,,,,,,1,,,,,,,,,,,,,,,,,,,,,,,,,,,,,,,,,,,,,,,,,,,,,,97,152404,22,Female,1,2024/03/18_08:44:28,YZ,None,
2,./instructions/inst_prac_2/Slide7.png,right,17.254056250007125,128.85044579900568,146.1045020490128,,,,,,,,,,,,,,,,,,,,,,,,,,,,,,,,,1,,,,,,,,,,,,,,,,,,,,,,,,,,,,,,,,,,,,,,,,,,,,,,97,152404,22,Female,1,2024/03/18_08:44:28,YZ,None,
3,./instructions/inst_prac_2/Slide8.png,right,12.824607048998587,146.15190846798941,158.976515516988,,,,,,,,,,,,,,,,,,,,,,,,,,,,,,,,,1,,,,,,,,,,,,,,,,,,,,,,,,,,,,,,,,,,,,,,,,,,,,,,97,152404,22,Female,1,2024/03/18_08:44:28,YZ,None,
4,./instructions/inst_prac_2/Slide9.png,right,7.335485821007751,159.0167109000031,166.35219672101084,,,,,,,,,,,,,,,,,,,,,,,,,,,,,,,,,1,,,,,,,,,,,,,,,,,,,,,,,,,,,,,,,,,,,,,,,,,,,,,,97,152404,22,Female,1,2024/03/18_08:44:28,YZ,None,
5,./instructions/inst_prac_2/Slide10.png,right,2.918746243987698,166.3935843690124,169.31233061300009,,,,,,,,,,,,,,,,,,,,,,,,,,,,,,,,,1,,,,,,,,,,,,,,,,,,,,,,,,,,,,,,,,,,,,,,,,,,,,,,97,152404,22,Female,1,2024/03/18_08:44:28,YZ,None,
6,./instructions/inst_prac_2/Slide11.png,right,3.3480528140207753,169.34015253398684,172.6882053480076,,,,,,,,,,,,,,,,,,,,,,,,,,,,,,,,,1,,,,,,,,,,,,,,,,,,,,,,,,,,,,,,,,,,,,,,,,,,,,,,97,152404,22,Female,1,2024/03/18_08:44:28,YZ,None,
7,./instructions/inst_prac_2/Slide12.png,right,1.897854996001115,172.71845020799083,174.61630520399194,,,,,,,,,,,,,,,,,,,,,,,,,,,,,,,,,1,,,,,,,,,,,,,,,,,,,,,,,,,,,,,,,,,,,,,,,,,,,,,,97,152404,22,Female,1,2024/03/18_08:44:28,YZ,None,
8,./instructions/inst_prac_2/Slide13.png,right,3.164594517002115,174.64375727399602,177.80835179099813,,,,,,,,,,,,,,,,,,,,,,,,,,,,,,,,,1,,,,,,,,,,,,,,,,,,,,,,,,,,,,,,,,,,,,,,,,,,,,,,97,152404,22,Female,1,2024/03/18_08:44:28,YZ,None,
9,./instructions/inst_prac_2/Slide14.png,right,11.273636562022148,177.83874642598676,189.1123829880089,,,,,,,,,,,,,,,,,,,,,,,,,,,,,,,,,1,,,,,,,,,,,,,,,,,,,,,,,,,,,,,,,,,,,,,,,,,,,,,,97,152404,22,Female,1,2024/03/18_08:44:28,YZ,None,
10,./instructions/inst_prac_2/Slide15.png,right,24.081083828990813,189.14320007601054,213.22428390500136,,,,,,,,,,,,,,,,,,,,,,,,,,,,,,,,,1,,,,,,,,,,,,,,,,,,,,,,,,,,,,,,,,,,,,,,,,,,,,,,97,152404,22,Female,1,2024/03/18_08:44:28,YZ,None,
,,,,,,practice,0,17,2,2583,1,C,0,right,3.146755210997071,1,0,,,,,,,,,,,,,,,,,,,,,1,,,,,,,,,,,,,,,,,,,,,,,,,,,,,,,,,,,,,,,,,,,,,,97,152404,22,Female,1,2024/03/18_08:44:28,YZ,None,
,,,,,,practice,0,17,2,2583,2,N,0,right,1.1874027359881438,1,0,,,,,,,,,,,,,,,,,,,,,1,,,,,,,,,,,,,,,,,,,,,,,,,,,,,,,,,,,,,,,,,,,,,,97,152404,22,Female,1,2024/03/18_08:44:28,YZ,None,
,,,,,,practice,0,17,2,2583,3,S,0,right,2.1038430979824625,1,0,,,,,,,,,,,,,,,,,,,,,1,,,,,,,,,,,,,,,,,,,,,,,,,,,,,,,,,,,,,,,,,,,,,,97,152404,22,Female,1,2024/03/18_08:44:28,YZ,None,
,,,,,,practice,0,17,2,2583,4,X,0,right,0.9520940759975929,1,0,,,,,,,,,,,,,,,,,,,,,1,,,,,,,,,,,,,,,,,,,,,,,,,,,,,,,,,,,,,,,,,,,,,,97,152404,22,Female,1,2024/03/18_08:44:28,YZ,None,
,,,,,,practice,0,17,2,2583,5,S,1,left,1.0229070289933588,1,0,,,,,,,,,,,,,,,,,,,,,1,,,,,,,,,,,,,,,,,,,,,,,,,,,,,,,,,,,,,,,,,,,,,,97,152404,22,Female,1,2024/03/18_08:44:28,YZ,None,
,,,,,,practice,0,17,2,2583,6,X,1,left,0.9866212160268333,1,0,,,,,,,,,,,,,,,,,,,,,1,,,,,,,,,,,,,,,,,,,,,,,,,,,,,,,,,,,,,,,,,,,,,,97,152404,22,Female,1,2024/03/18_08:44:28,YZ,None,
,,,,,,practice,0,17,2,2583,,,,,,,,1.0,1.0,0.0,1.0,0.0,1.0,1.5666038943309104,2,0,0,0,0,4,6,2,4,0,,,,1,,,,,,,,,,,,,,,,,,,,,,,,,,,,,,,,,,,,,,,,,,,,,,97,152404,22,Female,1,2024/03/18_08:44:28,YZ,None,
1,./instructions/inst_to_cali/Slide20.png,right,5.846163817011984,228.97815126099158,234.82431507800356,,,,,,,,,,,,,,,,,,,,,,,,,,,,,,,,,1,,,,,,,,,,,,,,,,,,,,,,,,,,,,,,,,,,,,,,,,,,,,,,97,152404,22,Female,1,2024/03/18_08:44:28,YZ,None,
1,./instructions/inst_cali/Slide22.png,right,14.298078946012538,234.8623443589895,249.16042330500204,,,,,,,,,,,,,,,,,,,,,,,,,,,,,,,,,1,,,,,,,,,,,,,,,,,,,,,,,,,,,,,,,,,,,,,,,,,,,,,,97,152404,22,Female,1,2024/03/18_08:44:28,YZ,None,
,,,,,,calibration,0,5,2,583,1,V,0,right,0.4415081559855025,1,0,,,,,,,,,,,,,,,,,,,,,1,,,,,,,,,,,,,,,,,,,,,,,,,,,,,,,,,,,,,,,,,,,,,,97,152404,22,Female,1,2024/03/18_08:44:28,YZ,None,
,,,,,,calibration,0,5,2,583,2,S,0,right,1.0203525719989557,1,0,,,,,,,,,,,,,,,,,,,,,1,,,,,,,,,,,,,,,,,,,,,,,,,,,,,,,,,,,,,,,,,,,,,,97,152404,22,Female,1,2024/03/18_08:44:28,YZ,None,
,,,,,,calibration,0,5,2,583,3,V,1,left,0.7144196099834517,1,0,,,,,,,,,,,,,,,,,,,,,1,,,,,,,,,,,,,,,,,,,,,,,,,,,,,,,,,,,,,,,,,,,,,,97,152404,22,Female,1,2024/03/18_08:44:28,YZ,None,
,,,,,,calibration,0,5,2,583,4,X,0,left,0.7908431510149967,0,0,,,,,,,,,,,,,,,,,,,,,1,,,,,,,,,,,,,,,,,,,,,,,,,,,,,,,,,,,,,,,,,,,,,,97,152404,22,Female,1,2024/03/18_08:44:28,YZ,None,
,,,,,,calibration,0,5,2,583,5,J,0,left,0.820511344994884,0,0,,,,,,,,,,,,,,,,,,,,,1,,,,,,,,,,,,,,,,,,,,,,,,,,,,,,,,,,,,,,,,,,,,,,97,152404,22,Female,1,2024/03/18_08:44:28,YZ,None,
,,,,,,calibration,0,5,2,583,6,X,1,left,1.62554508500034,1,0,,,,,,,,,,,,,,,,,,,,,1,,,,,,,,,,,,,,,,,,,,,,,,,,,,,,,,,,,,,,,,,,,,,,97,152404,22,Female,1,2024/03/18_08:44:28,YZ,None,
,,,,,,calibration,0,5,2,583,7,Q,0,right,0.6640659609984141,1,0,,,,,,,,,,,,,,,,,,,,,1,,,,,,,,,,,,,,,,,,,,,,,,,,,,,,,,,,,,,,,,,,,,,,97,152404,22,Female,1,2024/03/18_08:44:28,YZ,None,
,,,,,,calibration,0,5,2,583,8,X,1,left,0.9490740579785779,1,0,,,,,,,,,,,,,,,,,,,,,1,,,,,,,,,,,,,,,,,,,,,,,,,,,,,,,,,,,,,,,,,,,,,,97,152404,22,Female,1,2024/03/18_08:44:28,YZ,None,
,,,,,,calibration,0,5,2,583,9,C,0,right,0.7582519430143293,1,0,,,,,,,,,,,,,,,,,,,,,1,,,,,,,,,,,,,,,,,,,,,,,,,,,,,,,,,,,,,,,,,,,,,,97,152404,22,Female,1,2024/03/18_08:44:28,YZ,None,
,,,,,,calibration,0,5,2,583,10,X,1,left,0.8951078719983343,1,0,,,,,,,,,,,,,,,,,,,,,1,,,,,,,,,,,,,,,,,,,,,,,,,,,,,,,,,,,,,,,,,,,,,,97,152404,22,Female,1,2024/03/18_08:44:28,YZ,None,
,,,,,,calibration,0,5,2,583,11,C,1,left,1.2924206759780645,1,0,,,,,,,,,,,,,,,,,,,,,1,,,,,,,,,,,,,,,,,,,,,,,,,,,,,,,,,,,,,,,,,,,,,,97,152404,22,Female,1,2024/03/18_08:44:28,YZ,None,
,,,,,,calibration,0,5,2,583,12,Q,0,right,0.6961261940014083,1,0,,,,,,,,,,,,,,,,,,,,,1,,,,,,,,,,,,,,,,,,,,,,,,,,,,,,,,,,,,,,,,,,,,,,97,152404,22,Female,1,2024/03/18_08:44:28,YZ,None,
,,,,,,calibration,0,5,2,583,13,J,0,right,0.9811683429870754,1,0,,,,,,,,,,,,,,,,,,,,,1,,,,,,,,,,,,,,,,,,,,,,,,,,,,,,,,,,,,,,,,,,,,,,97,152404,22,Female,1,2024/03/18_08:44:28,YZ,None,
,,,,,,calibration,0,5,2,583,14,S,0,right,0.7911041759944055,1,0,,,,,,,,,,,,,,,,,,,,,1,,,,,,,,,,,,,,,,,,,,,,,,,,,,,,,,,,,,,,,,,,,,,,97,152404,22,Female,1,2024/03/18_08:44:28,YZ,None,
,,,,,,calibration,0,5,2,583,15,Q,0,left,0.8221992640173994,0,0,,,,,,,,,,,,,,,,,,,,,1,,,,,,,,,,,,,,,,,,,,,,,,,,,,,,,,,,,,,,,,,,,,,,97,152404,22,Female,1,2024/03/18_08:44:28,YZ,None,
,,,,,,calibration,0,5,2,583,,,,,,,,0.925,1.0,0.3,0.7,0.0,0.7,0.8841798937297426,5,3,0,0,0,7,12,5,10,0,,,,1,,,,,,,,,,,,,,,,,,,,,,,,,,,,,,,,,,,,,,,,,,,,,,97,152404,22,Female,1,2024/03/18_08:44:28,YZ,None,
,,,,,,Calibration,0,,2,583,,,,,,,,,,,,,,,,,,,,,,,,,1,,,1,,,,,,,,,,,,,,,,,,,,,,,,,,,,,,,,,,,,,,,,,,,,,,97,152404,22,Female,1,2024/03/18_08:44:28,YZ,None,
,,,,,,calibration,0,18,2,500,1,F,0,None,nan,0,1,,,,,,,,,,,,,,,,,,,,,1,,,,,,,,,,,,,,,,,,,,,,,,,,,,,,,,,,,,,,,,,,,,,,97,152404,22,Female,1,2024/03/18_08:44:28,YZ,None,
,,,,,,calibration,0,18,2,500,2,J,0,right,0.0,1,0,,,,,,,,,,,,,,,,,,,,,1,,,,,,,,,,,,,,,,,,,,,,,,,,,,,,,,,,,,,,,,,,,,,,97,152404,22,Female,1,2024/03/18_08:44:28,YZ,None,
,,,,,,calibration,0,18,2,500,3,Q,0,right,0.24355432600714266,1,0,,,,,,,,,,,,,,,,,,,,,1,,,,,,,,,,,,,,,,,,,,,,,,,,,,,,,,,,,,,,,,,,,,,,97,152404,22,Female,1,2024/03/18_08:44:28,YZ,None,
,,,,,,calibration,0,18,2,500,4,C,0,right,0.3512483049998991,1,0,,,,,,,,,,,,,,,,,,,,,1,,,,,,,,,,,,,,,,,,,,,,,,,,,,,,,,,,,,,,,,,,,,,,97,152404,22,Female,1,2024/03/18_08:44:28,YZ,None,
,,,,,,calibration,0,18,2,500,5,V,0,right,0.3365248719928786,1,0,,,,,,,,,,,,,,,,,,,,,1,,,,,,,,,,,,,,,,,,,,,,,,,,,,,,,,,,,,,,,,,,,,,,97,152404,22,Female,1,2024/03/18_08:44:28,YZ,None,
,,,,,,calibration,0,18,2,500,6,C,1,left,0.7718792040250264,1,0,,,,,,,,,,,,,,,,,,,,,1,,,,,,,,,,,,,,,,,,,,,,,,,,,,,,,,,,,,,,,,,,,,,,97,152404,22,Female,1,2024/03/18_08:44:28,YZ,None,
,,,,,,calibration,0,18,2,500,7,Q,0,right,0.2875672910013236,1,0,,,,,,,,,,,,,,,,,,,,,1,,,,,,,,,,,,,,,,,,,,,,,,,,,,,,,,,,,,,,,,,,,,,,97,152404,22,Female,1,2024/03/18_08:44:28,YZ,None,
,,,,,,calibration,0,18,2,500,8,J,0,right,0.44894605499575846,1,0,,,,,,,,,,,,,,,,,,,,,1,,,,,,,,,,,,,,,,,,,,,,,,,,,,,,,,,,,,,,,,,,,,,,97,152404,22,Female,1,2024/03/18_08:44:28,YZ,None,
,,,,,,calibration,0,18,2,500,9,N,0,right,0.6906868799997028,1,0,,,,,,,,,,,,,,,,,,,,,1,,,,,,,,,,,,,,,,,,,,,,,,,,,,,,,,,,,,,,,,,,,,,,97,152404,22,Female,1,2024/03/18_08:44:28,YZ,None,
,,,,,,calibration,0,18,2,500,10,J,1,left,0.5649694190069567,1,0,,,,,,,,,,,,,,,,,,,,,1,,,,,,,,,,,,,,,,,,,,,,,,,,,,,,,,,,,,,,,,,,,,,,97,152404,22,Female,1,2024/03/18_08:44:28,YZ,None,
,,,,,,calibration,0,18,2,500,11,X,0,right,0.2499459960090462,1,0,,,,,,,,,,,,,,,,,,,,,1,,,,,,,,,,,,,,,,,,,,,,,,,,,,,,,,,,,,,,,,,,,,,,97,152404,22,Female,1,2024/03/18_08:44:28,YZ,None,
,,,,,,calibration,0,18,2,500,12,V,0,right,0.3199714810180012,1,0,,,,,,,,,,,,,,,,,,,,,1,,,,,,,,,,,,,,,,,,,,,,,,,,,,,,,,,,,,,,,,,,,,,,97,152404,22,Female,1,2024/03/18_08:44:28,YZ,None,
,,,,,,calibration,0,18,2,500,13,S,0,right,0.49098159500863403,1,0,,,,,,,,,,,,,,,,,,,,,1,,,,,,,,,,,,,,,,,,,,,,,,,,,,,,,,,,,,,,,,,,,,,,97,152404,22,Female,1,2024/03/18_08:44:28,YZ,None,
,,,,,,calibration,0,18,2,500,14,V,1,left,0.5551390339969657,1,0,,,,,,,,,,,,,,,,,,,,,1,,,,,,,,,,,,,,,,,,,,,,,,,,,,,,,,,,,,,,,,,,,,,,97,152404,22,Female,1,2024/03/18_08:44:28,YZ,None,
,,,,,,calibration,0,18,2,500,15,J,0,right,0.3085809319745749,1,0,,,,,,,,,,,,,,,,,,,,,1,,,,,,,,,,,,,,,,,,,,,,,,,,,,,,,,,,,,,,,,,,,,,,97,152404,22,Female,1,2024/03/18_08:44:28,YZ,None,
,,,,,,calibration,0,18,2,500,16,V,1,right,0.8065809030085802,0,0,,,,,,,,,,,,,,,,,,,,,1,,,,,,,,,,,,,,,,,,,,,,,,,,,,,,,,,,,,,,,,,,,,,,97,152404,22,Female,1,2024/03/18_08:44:28,YZ,None,
,,,,,,calibration,0,18,2,500,,,,,,,,0.9375,0.75,0.0,1.0,0.0625,0.9375,0.4284384195362994,3,0,0,1,1,11,14,4,12,0,,,,1,,,,,,,,,,,,,,,,,,,,,,,,,,,,,,,,,,,,,,,,,,,,,,97,152404,22,Female,1,2024/03/18_08:44:28,YZ,None,
,,,,,,Calibration,0,,2,500,,,,,,,,,,,,,,,,,,,,,,,,,2,,,1,,,,,,,,,,,,,,,,,,,,,,,,,,,,,,,,,,,,,,,,,,,,,,97,152404,22,Female,1,2024/03/18_08:44:28,YZ,None,
,,,,,,calibration,0,16,2,426,1,S,0,right,0.9260299529996701,1,0,,,,,,,,,,,,,,,,,,,,,1,,,,,,,,,,,,,,,,,,,,,,,,,,,,,,,,,,,,,,,,,,,,,,97,152404,22,Female,1,2024/03/18_08:44:28,YZ,None,
,,,,,,calibration,0,16,2,426,2,S,0,right,0.7802943410060834,1,0,,,,,,,,,,,,,,,,,,,,,1,,,,,,,,,,,,,,,,,,,,,,,,,,,,,,,,,,,,,,,,,,,,,,97,152404,22,Female,1,2024/03/18_08:44:28,YZ,None,
,,,,,,calibration,0,16,2,426,3,S,1,left,0.7001344639866147,1,0,,,,,,,,,,,,,,,,,,,,,1,,,,,,,,,,,,,,,,,,,,,,,,,,,,,,,,,,,,,,,,,,,,,,97,152404,22,Female,1,2024/03/18_08:44:28,YZ,None,
,,,,,,calibration,0,16,2,426,4,C,0,right,0.724691345996689,1,0,,,,,,,,,,,,,,,,,,,,,1,,,,,,,,,,,,,,,,,,,,,,,,,,,,,,,,,,,,,,,,,,,,,,97,152404,22,Female,1,2024/03/18_08:44:28,YZ,None,
,,,,,,calibration,0,16,2,426,5,N,0,right,0.5362234420026653,1,0,,,,,,,,,,,,,,,,,,,,,1,,,,,,,,,,,,,,,,,,,,,,,,,,,,,,,,,,,,,,,,,,,,,,97,152404,22,Female,1,2024/03/18_08:44:28,YZ,None,
,,,,,,calibration,0,16,2,426,6,X,0,right,0.7887914390012156,1,0,,,,,,,,,,,,,,,,,,,,,1,,,,,,,,,,,,,,,,,,,,,,,,,,,,,,,,,,,,,,,,,,,,,,97,152404,22,Female,1,2024/03/18_08:44:28,YZ,None,
,,,,,,calibration,0,16,2,426,7,C,0,left,0.49858354998286813,0,0,,,,,,,,,,,,,,,,,,,,,1,,,,,,,,,,,,,,,,,,,,,,,,,,,,,,,,,,,,,,,,,,,,,,97,152404,22,Female,1,2024/03/18_08:44:28,YZ,None,
,,,,,,calibration,0,16,2,426,8,N,0,right,0.39231453600223176,1,0,,,,,,,,,,,,,,,,,,,,,1,,,,,,,,,,,,,,,,,,,,,,,,,,,,,,,,,,,,,,,,,,,,,,97,152404,22,Female,1,2024/03/18_08:44:28,YZ,None,
,,,,,,calibration,0,16,2,426,9,V,0,right,0.5324967770138755,1,0,,,,,,,,,,,,,,,,,,,,,1,,,,,,,,,,,,,,,,,,,,,,,,,,,,,,,,,,,,,,,,,,,,,,97,152404,22,Female,1,2024/03/18_08:44:28,YZ,None,
,,,,,,calibration,0,16,2,426,10,N,1,left,0.6245757690048777,1,0,,,,,,,,,,,,,,,,,,,,,1,,,,,,,,,,,,,,,,,,,,,,,,,,,,,,,,,,,,,,,,,,,,,,97,152404,22,Female,1,2024/03/18_08:44:28,YZ,None,
,,,,,,calibration,0,16,2,426,11,S,0,right,0.2411985469807405,1,0,,,,,,,,,,,,,,,,,,,,,1,,,,,,,,,,,,,,,,,,,,,,,,,,,,,,,,,,,,,,,,,,,,,,97,152404,22,Female,1,2024/03/18_08:44:28,YZ,None,
,,,,,,calibration,0,16,2,426,12,N,1,right,0.370392794982763,0,0,,,,,,,,,,,,,,,,,,,,,1,,,,,,,,,,,,,,,,,,,,,,,,,,,,,,,,,,,,,,,,,,,,,,97,152404,22,Female,1,2024/03/18_08:44:28,YZ,None,
,,,,,,calibration,0,16,2,426,13,F,0,right,0.45574019200284965,1,0,,,,,,,,,,,,,,,,,,,,,1,,,,,,,,,,,,,,,,,,,,,,,,,,,,,,,,,,,,,,,,,,,,,,97,152404,22,Female,1,2024/03/18_08:44:28,YZ,None,
,,,,,,calibration,0,16,2,426,14,N,1,left,0.5599131060007494,1,0,,,,,,,,,,,,,,,,,,,,,1,,,,,,,,,,,,,,,,,,,,,,,,,,,,,,,,,,,,,,,,,,,,,,97,152404,22,Female,1,2024/03/18_08:44:28,YZ,None,
,,,,,,calibration,0,16,2,426,15,S,0,right,0.3029946189781185,1,0,,,,,,,,,,,,,,,,,,,,,1,,,,,,,,,,,,,,,,,,,,,,,,,,,,,,,,,,,,,,,,,,,,,,97,152404,22,Female,1,2024/03/18_08:44:28,YZ,None,
,,,,,,calibration,0,16,2,426,16,N,1,right,0.33614323000074364,0,0,,,,,,,,,,,,,,,,,,,,,1,,,,,,,,,,,,,,,,,,,,,,,,,,,,,,,,,,,,,,,,,,,,,,97,152404,22,Female,1,2024/03/18_08:44:28,YZ,None,
,,,,,,calibration,0,16,2,426,17,F,0,left,0.2964374130242504,0,0,,,,,,,,,,,,,,,,,,,,,1,,,,,,,,,,,,,,,,,,,,,,,,,,,,,,,,,,,,,,,,,,,,,,97,152404,22,Female,1,2024/03/18_08:44:28,YZ,None,
,,,,,,calibration,0,16,2,426,,,,,,,,0.7916666666666667,0.6,0.16666666666666666,0.8333333333333334,0.0,0.8333333333333334,0.533350324645118,3,2,0,0,0,10,13,5,12,0,,,,1,,,,,,,,,,,,,,,,,,,,,,,,,,,,,,,,,,,,,,,,,,,,,,97,152404,22,Female,1,2024/03/18_08:44:28,YZ,None,
,,,,,,Calibration,0,,2,426,,,,,,,,,,,,,,,,,,,,,,,,,3,,,1,,,,,,,,,,,,,,,,,,,,,,,,,,,,,,,,,,,,,,,,,,,,,,97,152404,22,Female,1,2024/03/18_08:44:28,YZ,None,
,,,,,,calibration,0,2,2,426,1,C,0,right,0.7712213289923966,1,0,,,,,,,,,,,,,,,,,,,,,1,,,,,,,,,,,,,,,,,,,,,,,,,,,,,,,,,,,,,,,,,,,,,,97,152404,22,Female,1,2024/03/18_08:44:28,YZ,None,
,,,,,,calibration,0,2,2,426,2,C,0,right,0.6789173319994006,1,0,,,,,,,,,,,,,,,,,,,,,1,,,,,,,,,,,,,,,,,,,,,,,,,,,,,,,,,,,,,,,,,,,,,,97,152404,22,Female,1,2024/03/18_08:44:28,YZ,None,
,,,,,,calibration,0,2,2,426,3,C,1,left,0.6090147990034893,1,0,,,,,,,,,,,,,,,,,,,,,1,,,,,,,,,,,,,,,,,,,,,,,,,,,,,,,,,,,,,,,,,,,,,,97,152404,22,Female,1,2024/03/18_08:44:28,YZ,None,
,,,,,,calibration,0,2,2,426,4,V,0,right,0.4360919459722936,1,0,,,,,,,,,,,,,,,,,,,,,1,,,,,,,,,,,,,,,,,,,,,,,,,,,,,,,,,,,,,,,,,,,,,,97,152404,22,Female,1,2024/03/18_08:44:28,YZ,None,
,,,,,,calibration,0,2,2,426,5,N,0,right,0.6418376929941587,1,0,,,,,,,,,,,,,,,,,,,,,1,,,,,,,,,,,,,,,,,,,,,,,,,,,,,,,,,,,,,,,,,,,,,,97,152404,22,Female,1,2024/03/18_08:44:28,YZ,None,
,,,,,,calibration,0,2,2,426,6,C,0,left,0.47072279299027286,0,0,,,,,,,,,,,,,,,,,,,,,1,,,,,,,,,,,,,,,,,,,,,,,,,,,,,,,,,,,,,,,,,,,,,,97,152404,22,Female,1,2024/03/18_08:44:28,YZ,None,
,,,,,,calibration,0,2,2,426,7,F,0,right,0.5807784580101725,1,0,,,,,,,,,,,,,,,,,,,,,1,,,,,,,,,,,,,,,,,,,,,,,,,,,,,,,,,,,,,,,,,,,,,,97,152404,22,Female,1,2024/03/18_08:44:28,YZ,None,
,,,,,,calibration,0,2,2,426,8,S,0,right,0.6989133839961141,1,0,,,,,,,,,,,,,,,,,,,,,1,,,,,,,,,,,,,,,,,,,,,,,,,,,,,,,,,,,,,,,,,,,,,,97,152404,22,Female,1,2024/03/18_08:44:28,YZ,None,
,,,,,,calibration,0,2,2,426,9,J,0,right,0.6874043979914859,1,0,,,,,,,,,,,,,,,,,,,,,1,,,,,,,,,,,,,,,,,,,,,,,,,,,,,,,,,,,,,,,,,,,,,,97,152404,22,Female,1,2024/03/18_08:44:28,YZ,None,
,,,,,,calibration,0,2,2,426,10,Q,0,right,0.6384957999980543,1,0,,,,,,,,,,,,,,,,,,,,,1,,,,,,,,,,,,,,,,,,,,,,,,,,,,,,,,,,,,,,,,,,,,,,97,152404,22,Female,1,2024/03/18_08:44:28,YZ,None,
,,,,,,calibration,0,2,2,426,11,X,0,right,0.6550429970084224,1,0,,,,,,,,,,,,,,,,,,,,,1,,,,,,,,,,,,,,,,,,,,,,,,,,,,,,,,,,,,,,,,,,,,,,97,152404,22,Female,1,2024/03/18_08:44:28,YZ,None,
,,,,,,calibration,0,2,2,426,12,Q,1,right,0.6572642399987672,0,0,,,,,,,,,,,,,,,,,,,,,1,,,,,,,,,,,,,,,,,,,,,,,,,,,,,,,,,,,,,,,,,,,,,,97,152404,22,Female,1,2024/03/18_08:44:28,YZ,None,
,,,,,,calibration,0,2,2,426,13,X,1,right,nan,0,1,,,,,,,,,,,,,,,,,,,,,1,,,,,,,,,,,,,,,,,,,,,,,,,,,,,,,,,,,,,,,,,,,,,,97,152404,22,Female,1,2024/03/18_08:44:28,YZ,None,
,,,,,,calibration,0,2,2,426,14,C,0,right,0.8408148729940876,1,0,,,,,,,,,,,,,,,,,,,,,1,,,,,,,,,,,,,,,,,,,,,,,,,,,,,,,,,,,,,,,,,,,,,,97,152404,22,Female,1,2024/03/18_08:44:28,YZ,None,
,,,,,,calibration,0,2,2,426,15,X,1,left,0.6955075559963007,1,0,,,,,,,,,,,,,,,,,,,,,1,,,,,,,,,,,,,,,,,,,,,,,,,,,,,,,,,,,,,,,,,,,,,,97,152404,22,Female,1,2024/03/18_08:44:28,YZ,None,
,,,,,,calibration,0,2,2,426,16,J,0,right,0.5765312039875425,1,0,,,,,,,,,,,,,,,,,,,,,1,,,,,,,,,,,,,,,,,,,,,,,,,,,,,,,,,,,,,,,,,,,,,,97,152404,22,Female,1,2024/03/18_08:44:28,YZ,None,
,,,,,,calibration,0,2,2,426,17,X,1,left,0.5589403880003374,1,0,,,,,,,,,,,,,,,,,,,,,1,,,,,,,,,,,,,,,,,,,,,,,,,,,,,,,,,,,,,,,,,,,,,,97,152404,22,Female,1,2024/03/18_08:44:28,YZ,None,
,,,,,,calibration,0,2,2,426,,,,,,,,0.8458333333333333,0.6,0.08333333333333333,0.9166666666666666,0.058823529411764705,0.8578431372549019,0.637343699370831,3,1,1,0,1,11,14,5,12,0,,,,1,,,,,,,,,,,,,,,,,,,,,,,,,,,,,,,,,,,,,,,,,,,,,,97,152404,22,Female,1,2024/03/18_08:44:28,YZ,None,
,,,,,,Calibration,0,,2,426,,,,,,,,,,,,,,,,,,,,,,,,,4,,,1,,,,,,,,,,,,,,,,,,,,,,,,,,,,,,,,,,,,,,,,,,,,,,97,152404,22,Female,1,2024/03/18_08:44:28,YZ,None,
,,,,,,calibration,0,27,2,426,1,J,0,right,0.5631512450054288,1,0,,,,,,,,,,,,,,,,,,,,,1,,,,,,,,,,,,,,,,,,,,,,,,,,,,,,,,,,,,,,,,,,,,,,97,152404,22,Female,1,2024/03/18_08:44:28,YZ,None,
,,,,,,calibration,0,27,2,426,2,X,0,right,0.46737086298526265,1,0,,,,,,,,,,,,,,,,,,,,,1,,,,,,,,,,,,,,,,,,,,,,,,,,,,,,,,,,,,,,,,,,,,,,97,152404,22,Female,1,2024/03/18_08:44:28,YZ,None,
,,,,,,calibration,0,27,2,426,3,N,0,right,0.4967657219967805,1,0,,,,,,,,,,,,,,,,,,,,,1,,,,,,,,,,,,,,,,,,,,,,,,,,,,,,,,,,,,,,,,,,,,,,97,152404,22,Female,1,2024/03/18_08:44:28,YZ,None,
,,,,,,calibration,0,27,2,426,4,J,0,right,nan,0,1,,,,,,,,,,,,,,,,,,,,,1,,,,,,,,,,,,,,,,,,,,,,,,,,,,,,,,,,,,,,,,,,,,,,97,152404,22,Female,1,2024/03/18_08:44:28,YZ,None,
,,,,,,calibration,0,27,2,426,5,N,1,left,0.9824953700008336,1,0,,,,,,,,,,,,,,,,,,,,,1,,,,,,,,,,,,,,,,,,,,,,,,,,,,,,,,,,,,,,,,,,,,,,97,152404,22,Female,1,2024/03/18_08:44:28,YZ,None,
,,,,,,calibration,0,27,2,426,6,X,0,right,0.6751693399855867,1,0,,,,,,,,,,,,,,,,,,,,,1,,,,,,,,,,,,,,,,,,,,,,,,,,,,,,,,,,,,,,,,,,,,,,97,152404,22,Female,1,2024/03/18_08:44:28,YZ,None,
,,,,,,calibration,0,27,2,426,7,N,1,left,0.778382093005348,1,0,,,,,,,,,,,,,,,,,,,,,1,,,,,,,,,,,,,,,,,,,,,,,,,,,,,,,,,,,,,,,,,,,,,,97,152404,22,Female,1,2024/03/18_08:44:28,YZ,None,
,,,,,,calibration,0,27,2,426,8,S,0,right,0.5576410639914684,1,0,,,,,,,,,,,,,,,,,,,,,1,,,,,,,,,,,,,,,,,,,,,,,,,,,,,,,,,,,,,,,,,,,,,,97,152404,22,Female,1,2024/03/18_08:44:28,YZ,None,
,,,,,,calibration,0,27,2,426,9,C,0,right,nan,0,1,,,,,,,,,,,,,,,,,,,,,1,,,,,,,,,,,,,,,,,,,,,,,,,,,,,,,,,,,,,,,,,,,,,,97,152404,22,Female,1,2024/03/18_08:44:28,YZ,None,
,,,,,,calibration,0,27,2,426,10,S,1,right,0.7250395930022933,0,0,,,,,,,,,,,,,,,,,,,,,1,,,,,,,,,,,,,,,,,,,,,,,,,,,,,,,,,,,,,,,,,,,,,,97,152404,22,Female,1,2024/03/18_08:44:28,YZ,None,
,,,,,,calibration,0,27,2,426,11,Q,0,right,0.6583543799933977,1,0,,,,,,,,,,,,,,,,,,,,,1,,,,,,,,,,,,,,,,,,,,,,,,,,,,,,,,,,,,,,,,,,,,,,97,152404,22,Female,1,2024/03/18_08:44:28,YZ,None,
,,,,,,calibration,0,27,2,426,12,N,0,right,nan,0,1,,,,,,,,,,,,,,,,,,,,,1,,,,,,,,,,,,,,,,,,,,,,,,,,,,,,,,,,,,,,,,,,,,,,97,152404,22,Female,1,2024/03/18_08:44:28,YZ,None,
,,,,,,calibration,0,27,2,426,13,V,0,right,0.5822288769995794,1,0,,,,,,,,,,,,,,,,,,,,,1,,,,,,,,,,,,,,,,,,,,,,,,,,,,,,,,,,,,,,,,,,,,,,97,152404,22,Female,1,2024/03/18_08:44:28,YZ,None,
,,,,,,calibration,0,27,2,426,14,N,1,right,0.4502685249899514,0,0,,,,,,,,,,,,,,,,,,,,,1,,,,,,,,,,,,,,,,,,,,,,,,,,,,,,,,,,,,,,,,,,,,,,97,152404,22,Female,1,2024/03/18_08:44:28,YZ,None,
,,,,,,calibration,0,27,2,426,15,Q,0,right,0.6132345749938395,1,0,,,,,,,,,,,,,,,,,,,,,1,,,,,,,,,,,,,,,,,,,,,,,,,,,,,,,,,,,,,,,,,,,,,,97,152404,22,Female,1,2024/03/18_08:44:28,YZ,None,
,,,,,,calibration,0,27,2,426,16,X,0,left,0.2961961849941872,0,0,,,,,,,,,,,,,,,,,,,,,1,,,,,,,,,,,,,,,,,,,,,,,,,,,,,,,,,,,,,,,,,,,,,,97,152404,22,Female,1,2024/03/18_08:44:28,YZ,None,
,,,,,,calibration,0,27,2,426,17,Q,1,left,0.5845380419923458,1,0,,,,,,,,,,,,,,,,,,,,,1,,,,,,,,,,,,,,,,,,,,,,,,,,,,,,,,,,,,,,,,,,,,,,97,152404,22,Female,1,2024/03/18_08:44:28,YZ,None,
,,,,,,calibration,0,27,2,426,,,,,,,,0.8458333333333333,0.6,0.08333333333333333,0.8888888888888888,0.17647058823529413,0.7401960784313725,0.6022025624240216,3,1,0,3,3,8,11,5,12,0,,,,1,,,,,,,,,,,,,,,,,,,,,,,,,,,,,,,,,,,,,,,,,,,,,,97,152404,22,Female,1,2024/03/18_08:44:28,YZ,None,
,,,,,,Calibration,0,,2,426,,,,,,,,,,,,,,,,,,,,,,,,,5,,,1,,,,,,,,,,,,,,,,,,,,,,,,,,,,,,,,,,,,,,,,,,,,,,97,152404,22,Female,1,2024/03/18_08:44:28,YZ,None,
,,,,,,calibration,0,6,2,426,1,J,0,right,0.8625408130174037,1,0,,,,,,,,,,,,,,,,,,,,,1,,,,,,,,,,,,,,,,,,,,,,,,,,,,,,,,,,,,,,,,,,,,,,97,152404,22,Female,1,2024/03/18_08:44:28,YZ,None,
,,,,,,calibration,0,6,2,426,2,C,0,right,0.499059997004224,1,0,,,,,,,,,,,,,,,,,,,,,1,,,,,,,,,,,,,,,,,,,,,,,,,,,,,,,,,,,,,,,,,,,,,,97,152404,22,Female,1,2024/03/18_08:44:28,YZ,None,
,,,,,,calibration,0,6,2,426,3,J,1,left,0.5702270540059544,1,0,,,,,,,,,,,,,,,,,,,,,1,,,,,,,,,,,,,,,,,,,,,,,,,,,,,,,,,,,,,,,,,,,,,,97,152404,22,Female,1,2024/03/18_08:44:28,YZ,None,
,,,,,,calibration,0,6,2,426,4,Q,0,right,0.6485198860173114,1,0,,,,,,,,,,,,,,,,,,,,,1,,,,,,,,,,,,,,,,,,,,,,,,,,,,,,,,,,,,,,,,,,,,,,97,152404,22,Female,1,2024/03/18_08:44:28,YZ,None,
,,,,,,calibration,0,6,2,426,5,S,0,right,0.7079246139910538,1,0,,,,,,,,,,,,,,,,,,,,,1,,,,,,,,,,,,,,,,,,,,,,,,,,,,,,,,,,,,,,,,,,,,,,97,152404,22,Female,1,2024/03/18_08:44:28,YZ,None,
,,,,,,calibration,0,6,2,426,6,Q,1,left,0.788397330994485,1,0,,,,,,,,,,,,,,,,,,,,,1,,,,,,,,,,,,,,,,,,,,,,,,,,,,,,,,,,,,,,,,,,,,,,97,152404,22,Female,1,2024/03/18_08:44:28,YZ,None,
,,,,,,calibration,0,6,2,426,7,F,0,right,0.3965352450031787,1,0,,,,,,,,,,,,,,,,,,,,,1,,,,,,,,,,,,,,,,,,,,,,,,,,,,,,,,,,,,,,,,,,,,,,97,152404,22,Female,1,2024/03/18_08:44:28,YZ,None,
,,,,,,calibration,0,6,2,426,8,Q,1,left,0.5669537300127558,1,0,,,,,,,,,,,,,,,,,,,,,1,,,,,,,,,,,,,,,,,,,,,,,,,,,,,,,,,,,,,,,,,,,,,,97,152404,22,Female,1,2024/03/18_08:44:28,YZ,None,
,,,,,,calibration,0,6,2,426,9,X,0,right,0.4823057980102021,1,0,,,,,,,,,,,,,,,,,,,,,1,,,,,,,,,,,,,,,,,,,,,,,,,,,,,,,,,,,,,,,,,,,,,,97,152404,22,Female,1,2024/03/18_08:44:28,YZ,None,
,,,,,,calibration,0,6,2,426,10,Q,1,left,0.479687928018393,1,0,,,,,,,,,,,,,,,,,,,,,1,,,,,,,,,,,,,,,,,,,,,,,,,,,,,,,,,,,,,,,,,,,,,,97,152404,22,Female,1,2024/03/18_08:44:28,YZ,None,
,,,,,,calibration,0,6,2,426,11,C,0,right,0.3780224089859985,1,0,,,,,,,,,,,,,,,,,,,,,1,,,,,,,,,,,,,,,,,,,,,,,,,,,,,,,,,,,,,,,,,,,,,,97,152404,22,Female,1,2024/03/18_08:44:28,YZ,None,
,,,,,,calibration,0,6,2,426,12,N,0,right,0.5416739149950445,1,0,,,,,,,,,,,,,,,,,,,,,1,,,,,,,,,,,,,,,,,,,,,,,,,,,,,,,,,,,,,,,,,,,,,,97,152404,22,Female,1,2024/03/18_08:44:28,YZ,None,
,,,,,,calibration,0,6,2,426,13,J,0,right,0.728533247980522,1,0,,,,,,,,,,,,,,,,,,,,,1,,,,,,,,,,,,,,,,,,,,,,,,,,,,,,,,,,,,,,,,,,,,,,97,152404,22,Female,1,2024/03/18_08:44:28,YZ,None,
,,,,,,calibration,0,6,2,426,14,N,1,left,0.6578119269979652,1,0,,,,,,,,,,,,,,,,,,,,,1,,,,,,,,,,,,,,,,,,,,,,,,,,,,,,,,,,,,,,,,,,,,,,97,152404,22,Female,1,2024/03/18_08:44:28,YZ,None,
,,,,,,calibration,0,6,2,426,15,X,0,right,0.27693840899155475,1,0,,,,,,,,,,,,,,,,,,,,,1,,,,,,,,,,,,,,,,,,,,,,,,,,,,,,,,,,,,,,,,,,,,,,97,152404,22,Female,1,2024/03/18_08:44:28,YZ,None,
,,,,,,calibration,0,6,2,426,16,C,0,right,0.6243660989857744,1,0,,,,,,,,,,,,,,,,,,,,,1,,,,,,,,,,,,,,,,,,,,,,,,,,,,,,,,,,,,,,,,,,,,,,97,152404,22,Female,1,2024/03/18_08:44:28,YZ,None,
,,,,,,calibration,0,6,2,426,17,Q,0,right,0.74063607599237,1,0,,,,,,,,,,,,,,,,,,,,,1,,,,,,,,,,,,,,,,,,,,,,,,,,,,,,,,,,,,,,,,,,,,,,97,152404,22,Female,1,2024/03/18_08:44:28,YZ,None,
,,,,,,calibration,0,6,2,426,,,,,,,,1.0,1.0,0.0,1.0,0.0,1.0,0.5853020281767172,5,0,0,0,0,12,17,5,12,0,,,,1,,,,,,,,,,,,,,,,,,,,,,,,,,,,,,,,,,,,,,,,,,,,,,97,152404,22,Female,1,2024/03/18_08:44:28,YZ,None,
,,,,,,Calibration,0,,2,426,,,,,,,,,,,,,,,,,,,,,,,,,6,,,1,,,,,,,,,,,,,,,,,,,,,,,,,,,,,,,,,,,,,,,,,,,,,,97,152404,22,Female,1,2024/03/18_08:44:28,YZ,None,
,,,,,,calibration,0,27,2,361,1,S,0,right,0.6120164780004416,1,0,,,,,,,,,,,,,,,,,,,,,1,,,,,,,,,,,,,,,,,,,,,,,,,,,,,,,,,,,,,,,,,,,,,,97,152404,22,Female,1,2024/03/18_08:44:28,YZ,None,
,,,,,,calibration,0,27,2,361,2,Q,0,right,0.6739713450078852,1,0,,,,,,,,,,,,,,,,,,,,,1,,,,,,,,,,,,,,,,,,,,,,,,,,,,,,,,,,,,,,,,,,,,,,97,152404,22,Female,1,2024/03/18_08:44:28,YZ,None,
,,,,,,calibration,0,27,2,361,3,S,1,left,0.5534167549922131,1,0,,,,,,,,,,,,,,,,,,,,,1,,,,,,,,,,,,,,,,,,,,,,,,,,,,,,,,,,,,,,,,,,,,,,97,152404,22,Female,1,2024/03/18_08:44:28,YZ,None,
,,,,,,calibration,0,27,2,361,4,Q,1,right,0.23278885800391436,0,0,,,,,,,,,,,,,,,,,,,,,1,,,,,,,,,,,,,,,,,,,,,,,,,,,,,,,,,,,,,,,,,,,,,,97,152404,22,Female,1,2024/03/18_08:44:28,YZ,None,
,,,,,,calibration,0,27,2,361,5,J,0,right,0.7806503149913624,1,0,,,,,,,,,,,,,,,,,,,,,1,,,,,,,,,,,,,,,,,,,,,,,,,,,,,,,,,,,,,,,,,,,,,,97,152404,22,Female,1,2024/03/18_08:44:28,YZ,None,
,,,,,,calibration,0,27,2,361,6,F,0,right,0.6923541930154897,1,0,,,,,,,,,,,,,,,,,,,,,1,,,,,,,,,,,,,,,,,,,,,,,,,,,,,,,,,,,,,,,,,,,,,,97,152404,22,Female,1,2024/03/18_08:44:28,YZ,None,
,,,,,,calibration,0,27,2,361,7,Q,0,left,0.49929909501224756,0,0,,,,,,,,,,,,,,,,,,,,,1,,,,,,,,,,,,,,,,,,,,,,,,,,,,,,,,,,,,,,,,,,,,,,97,152404,22,Female,1,2024/03/18_08:44:28,YZ,None,
,,,,,,calibration,0,27,2,361,8,C,0,right,0.264192176022334,1,0,,,,,,,,,,,,,,,,,,,,,1,,,,,,,,,,,,,,,,,,,,,,,,,,,,,,,,,,,,,,,,,,,,,,97,152404,22,Female,1,2024/03/18_08:44:28,YZ,None,
,,,,,,calibration,0,27,2,361,9,V,0,right,0.35464242700254545,1,0,,,,,,,,,,,,,,,,,,,,,1,,,,,,,,,,,,,,,,,,,,,,,,,,,,,,,,,,,,,,,,,,,,,,97,152404,22,Female,1,2024/03/18_08:44:28,YZ,None,
,,,,,,calibration,0,27,2,361,10,C,1,right,0.6072052299859934,0,0,,,,,,,,,,,,,,,,,,,,,1,,,,,,,,,,,,,,,,,,,,,,,,,,,,,,,,,,,,,,,,,,,,,,97,152404,22,Female,1,2024/03/18_08:44:28,YZ,None,
,,,,,,calibration,0,27,2,361,11,Q,0,left,0.6632369909784757,0,0,,,,,,,,,,,,,,,,,,,,,1,,,,,,,,,,,,,,,,,,,,,,,,,,,,,,,,,,,,,,,,,,,,,,97,152404,22,Female,1,2024/03/18_08:44:28,YZ,None,
,,,,,,calibration,0,27,2,361,12,C,1,right,0.0613208259746898,0,0,,,,,,,,,,,,,,,,,,,,,1,,,,,,,,,,,,,,,,,,,,,,,,,,,,,,,,,,,,,,,,,,,,,,97,152404,22,Female,1,2024/03/18_08:44:28,YZ,None,
,,,,,,calibration,0,27,2,361,13,V,0,right,0.38852777099236846,1,0,,,,,,,,,,,,,,,,,,,,,1,,,,,,,,,,,,,,,,,,,,,,,,,,,,,,,,,,,,,,,,,,,,,,97,152404,22,Female,1,2024/03/18_08:44:28,YZ,None,
,,,,,,calibration,0,27,2,361,14,J,0,left,0.4091813070117496,0,0,,,,,,,,,,,,,,,,,,,,,1,,,,,,,,,,,,,,,,,,,,,,,,,,,,,,,,,,,,,,,,,,,,,,97,152404,22,Female,1,2024/03/18_08:44:28,YZ,None,
,,,,,,calibration,0,27,2,361,15,V,1,right,0.30528711300576106,0,0,,,,,,,,,,,,,,,,,,,,,1,,,,,,,,,,,,,,,,,,,,,,,,,,,,,,,,,,,,,,,,,,,,,,97,152404,22,Female,1,2024/03/18_08:44:28,YZ,None,
,,,,,,calibration,0,27,2,361,16,J,1,right,0.43313820799812675,0,0,,,,,,,,,,,,,,,,,,,,,1,,,,,,,,,,,,,,,,,,,,,,,,,,,,,,,,,,,,,,,,,,,,,,97,152404,22,Female,1,2024/03/18_08:44:28,YZ,None,
,,,,,,calibration,0,27,2,361,17,C,0,right,0.4572669860208407,1,0,,,,,,,,,,,,,,,,,,,,,1,,,,,,,,,,,,,,,,,,,,,,,,,,,,,,,,,,,,,,,,,,,,,,97,152404,22,Female,1,2024/03/18_08:44:28,YZ,None,
,,,,,,calibration,0,27,2,361,18,Q,0,right,0.40941652000765316,1,0,,,,,,,,,,,,,,,,,,,,,1,,,,,,,,,,,,,,,,,,,,,,,,,,,,,,,,,,,,,,,,,,,,,,97,152404,22,Female,1,2024/03/18_08:44:28,YZ,None,
,,,,,,calibration,0,27,2,361,,,,,,,,0.0625,0.16666666666666666,0.25,0.75,0.0,0.75,0.4665506996680051,1,3,0,0,0,9,10,6,12,0,,,,1,,,,,,,,,,,,,,,,,,,,,,,,,,,,,,,,,,,,,,,,,,,,,,97,152404,22,Female,1,2024/03/18_08:44:28,YZ,None,
,,,,,,Calibration,0,,2,361,,,,,,,,,,,,,,,,,,,,,,,,,7,,,1,,,,,,,,,,,,,,,,,,,,,,,,,,,,,,,,,,,,,,,,,,,,,,97,152404,22,Female,1,2024/03/18_08:44:28,YZ,None,
,,,,,,calibration,0,30,2,426,1,Q,0,right,0.6901713570114225,1,0,,,,,,,,,,,,,,,,,,,,,1,,,,,,,,,,,,,,,,,,,,,,,,,,,,,,,,,,,,,,,,,,,,,,97,152404,22,Female,1,2024/03/18_08:44:28,YZ,None,
,,,,,,calibration,0,30,2,426,2,Q,0,right,0.7426776110078208,1,0,,,,,,,,,,,,,,,,,,,,,1,,,,,,,,,,,,,,,,,,,,,,,,,,,,,,,,,,,,,,,,,,,,,,97,152404,22,Female,1,2024/03/18_08:44:28,YZ,None,
,,,,,,calibration,0,30,2,426,3,Q,1,left,0.34991862199967727,1,0,,,,,,,,,,,,,,,,,,,,,1,,,,,,,,,,,,,,,,,,,,,,,,,,,,,,,,,,,,,,,,,,,,,,97,152404,22,Female,1,2024/03/18_08:44:28,YZ,None,
,,,,,,calibration,0,30,2,426,4,N,0,right,0.3436659840226639,1,0,,,,,,,,,,,,,,,,,,,,,1,,,,,,,,,,,,,,,,,,,,,,,,,,,,,,,,,,,,,,,,,,,,,,97,152404,22,Female,1,2024/03/18_08:44:28,YZ,None,
,,,,,,calibration,0,30,2,426,5,J,0,right,0.3924784440023359,1,0,,,,,,,,,,,,,,,,,,,,,1,,,,,,,,,,,,,,,,,,,,,,,,,,,,,,,,,,,,,,,,,,,,,,97,152404,22,Female,1,2024/03/18_08:44:28,YZ,None,
,,,,,,calibration,0,30,2,426,6,X,0,right,0.44099770399043337,1,0,,,,,,,,,,,,,,,,,,,,,1,,,,,,,,,,,,,,,,,,,,,,,,,,,,,,,,,,,,,,,,,,,,,,97,152404,22,Female,1,2024/03/18_08:44:28,YZ,None,
,,,,,,calibration,0,30,2,426,7,N,0,left,0.608326016983483,0,0,,,,,,,,,,,,,,,,,,,,,1,,,,,,,,,,,,,,,,,,,,,,,,,,,,,,,,,,,,,,,,,,,,,,97,152404,22,Female,1,2024/03/18_08:44:28,YZ,None,
,,,,,,calibration,0,30,2,426,8,Q,0,right,0.19739934199606068,1,0,,,,,,,,,,,,,,,,,,,,,1,,,,,,,,,,,,,,,,,,,,,,,,,,,,,,,,,,,,,,,,,,,,,,97,152404,22,Female,1,2024/03/18_08:44:28,YZ,None,
,,,,,,calibration,0,30,2,426,9,F,0,right,0.4398201179865282,1,0,,,,,,,,,,,,,,,,,,,,,1,,,,,,,,,,,,,,,,,,,,,,,,,,,,,,,,,,,,,,,,,,,,,,97,152404,22,Female,1,2024/03/18_08:44:28,YZ,None,
,,,,,,calibration,0,30,2,426,10,X,0,right,0.45622959901811555,1,0,,,,,,,,,,,,,,,,,,,,,1,,,,,,,,,,,,,,,,,,,,,,,,,,,,,,,,,,,,,,,,,,,,,,97,152404,22,Female,1,2024/03/18_08:44:28,YZ,None,
,,,,,,calibration,0,30,2,426,11,S,0,right,0.44024673802778125,1,0,,,,,,,,,,,,,,,,,,,,,1,,,,,,,,,,,,,,,,,,,,,,,,,,,,,,,,,,,,,,,,,,,,,,97,152404,22,Female,1,2024/03/18_08:44:28,YZ,None,
,,,,,,calibration,0,30,2,426,12,X,1,left,0.368535935995169,1,0,,,,,,,,,,,,,,,,,,,,,1,,,,,,,,,,,,,,,,,,,,,,,,,,,,,,,,,,,,,,,,,,,,,,97,152404,22,Female,1,2024/03/18_08:44:28,YZ,None,
,,,,,,calibration,0,30,2,426,13,S,1,right,0.2564844790031202,0,0,,,,,,,,,,,,,,,,,,,,,1,,,,,,,,,,,,,,,,,,,,,,,,,,,,,,,,,,,,,,,,,,,,,,97,152404,22,Female,1,2024/03/18_08:44:28,YZ,None,
,,,,,,calibration,0,30,2,426,14,V,0,right,0.23203940701205283,1,0,,,,,,,,,,,,,,,,,,,,,1,,,,,,,,,,,,,,,,,,,,,,,,,,,,,,,,,,,,,,,,,,,,,,97,152404,22,Female,1,2024/03/18_08:44:28,YZ,None,
,,,,,,calibration,0,30,2,426,15,J,0,right,0.36429656902328134,1,0,,,,,,,,,,,,,,,,,,,,,1,,,,,,,,,,,,,,,,,,,,,,,,,,,,,,,,,,,,,,,,,,,,,,97,152404,22,Female,1,2024/03/18_08:44:28,YZ,None,
,,,,,,calibration,0,30,2,426,16,V,1,right,0.4741338469902985,0,0,,,,,,,,,,,,,,,,,,,,,1,,,,,,,,,,,,,,,,,,,,,,,,,,,,,,,,,,,,,,,,,,,,,,97,152404,22,Female,1,2024/03/18_08:44:28,YZ,None,
,,,,,,calibration,0,30,2,426,17,J,1,right,0.45229222599300556,0,0,,,,,,,,,,,,,,,,,,,,,1,,,,,,,,,,,,,,,,,,,,,,,,,,,,,,,,,,,,,,,,,,,,,,97,152404,22,Female,1,2024/03/18_08:44:28,YZ,None,
,,,,,,calibration,0,30,2,426,,,,,,,,0.7770833333333333,0.4,0.08333333333333333,0.9166666666666666,0.0,0.9166666666666666,0.42645376470960294,2,1,0,0,0,11,13,5,12,0,,,,1,,,,,,,,,,,,,,,,,,,,,,,,,,,,,,,,,,,,,,,,,,,,,,97,152404,22,Female,1,2024/03/18_08:44:28,YZ,None,
,,,,,,Calibration,0,,2,426,,,,,,,,,,,,,,,,,,,,,,,,,8,,,1,,,,,,,,,,,,,,,,,,,,,,,,,,,,,,,,,,,,,,,,,,,,,,97,152404,22,Female,1,2024/03/18_08:44:28,YZ,None,
,,,,,,calibration,0,34,2,426,1,J,0,right,0.3502938330057077,1,0,,,,,,,,,,,,,,,,,,,,,1,,,,,,,,,,,,,,,,,,,,,,,,,,,,,,,,,,,,,,,,,,,,,,97,152404,22,Female,1,2024/03/18_08:44:28,YZ,None,
,,,,,,calibration,0,34,2,426,2,F,0,right,0.35624537098919973,1,0,,,,,,,,,,,,,,,,,,,,,1,,,,,,,,,,,,,,,,,,,,,,,,,,,,,,,,,,,,,,,,,,,,,,97,152404,22,Female,1,2024/03/18_08:44:28,YZ,None,
,,,,,,calibration,0,34,2,426,3,J,1,left,0.36091247797594406,1,0,,,,,,,,,,,,,,,,,,,,,1,,,,,,,,,,,,,,,,,,,,,,,,,,,,,,,,,,,,,,,,,,,,,,97,152404,22,Female,1,2024/03/18_08:44:28,YZ,None,
,,,,,,calibration,0,34,2,426,4,X,0,right,0.31612112899892963,1,0,,,,,,,,,,,,,,,,,,,,,1,,,,,,,,,,,,,,,,,,,,,,,,,,,,,,,,,,,,,,,,,,,,,,97,152404,22,Female,1,2024/03/18_08:44:28,YZ,None,
,,,,,,calibration,0,34,2,426,5,Q,0,right,0.4400114589952864,1,0,,,,,,,,,,,,,,,,,,,,,1,,,,,,,,,,,,,,,,,,,,,,,,,,,,,,,,,,,,,,,,,,,,,,97,152404,22,Female,1,2024/03/18_08:44:28,YZ,None,
,,,,,,calibration,0,34,2,426,6,X,1,left,0.6524742110050283,1,0,,,,,,,,,,,,,,,,,,,,,1,,,,,,,,,,,,,,,,,,,,,,,,,,,,,,,,,,,,,,,,,,,,,,97,152404,22,Female,1,2024/03/18_08:44:28,YZ,None,
,,,,,,calibration,0,34,2,426,7,Q,1,right,0.2987558550084941,0,0,,,,,,,,,,,,,,,,,,,,,1,,,,,,,,,,,,,,,,,,,,,,,,,,,,,,,,,,,,,,,,,,,,,,97,152404,22,Female,1,2024/03/18_08:44:28,YZ,None,
,,,,,,calibration,0,34,2,426,8,F,0,right,0.43274460500106215,1,0,,,,,,,,,,,,,,,,,,,,,1,,,,,,,,,,,,,,,,,,,,,,,,,,,,,,,,,,,,,,,,,,,,,,97,152404,22,Female,1,2024/03/18_08:44:28,YZ,None,
,,,,,,calibration,0,34,2,426,9,Q,1,right,0.5305927059962414,0,0,,,,,,,,,,,,,,,,,,,,,1,,,,,,,,,,,,,,,,,,,,,,,,,,,,,,,,,,,,,,,,,,,,,,97,152404,22,Female,1,2024/03/18_08:44:28,YZ,None,
,,,,,,calibration,0,34,2,426,10,J,0,right,0.4467211620067246,1,0,,,,,,,,,,,,,,,,,,,,,1,,,,,,,,,,,,,,,,,,,,,,,,,,,,,,,,,,,,,,,,,,,,,,97,152404,22,Female,1,2024/03/18_08:44:28,YZ,None,
,,,,,,calibration,0,34,2,426,11,V,0,right,0.5200448370014783,1,0,,,,,,,,,,,,,,,,,,,,,1,,,,,,,,,,,,,,,,,,,,,,,,,,,,,,,,,,,,,,,,,,,,,,97,152404,22,Female,1,2024/03/18_08:44:28,YZ,None,
,,,,,,calibration,0,34,2,426,12,C,0,right,0.3807170189975295,1,0,,,,,,,,,,,,,,,,,,,,,1,,,,,,,,,,,,,,,,,,,,,,,,,,,,,,,,,,,,,,,,,,,,,,97,152404,22,Female,1,2024/03/18_08:44:28,YZ,None,
,,,,,,calibration,0,34,2,426,13,V,1,left,0.5871886379900388,1,0,,,,,,,,,,,,,,,,,,,,,1,,,,,,,,,,,,,,,,,,,,,,,,,,,,,,,,,,,,,,,,,,,,,,97,152404,22,Female,1,2024/03/18_08:44:28,YZ,None,
,,,,,,calibration,0,34,2,426,14,J,0,right,0.324165975995129,1,0,,,,,,,,,,,,,,,,,,,,,1,,,,,,,,,,,,,,,,,,,,,,,,,,,,,,,,,,,,,,,,,,,,,,97,152404,22,Female,1,2024/03/18_08:44:28,YZ,None,
,,,,,,calibration,0,34,2,426,15,N,0,right,0.418975809996482,1,0,,,,,,,,,,,,,,,,,,,,,1,,,,,,,,,,,,,,,,,,,,,,,,,,,,,,,,,,,,,,,,,,,,,,97,152404,22,Female,1,2024/03/18_08:44:28,YZ,None,
,,,,,,calibration,0,34,2,426,16,X,0,right,0.4653529549832456,1,0,,,,,,,,,,,,,,,,,,,,,1,,,,,,,,,,,,,,,,,,,,,,,,,,,,,,,,,,,,,,,,,,,,,,97,152404,22,Female,1,2024/03/18_08:44:28,YZ,None,
,,,,,,calibration,0,34,2,426,17,V,0,right,0.3934026350034401,1,0,,,,,,,,,,,,,,,,,,,,,1,,,,,,,,,,,,,,,,,,,,,,,,,,,,,,,,,,,,,,,,,,,,,,97,152404,22,Female,1,2024/03/18_08:44:28,YZ,None,
,,,,,,calibration,0,34,2,426,,,,,,,,0.9,0.6,0.0,1.0,0.0,1.0,0.427924745820586,3,0,0,0,0,12,15,5,12,0,,,,1,,,,,,,,,,,,,,,,,,,,,,,,,,,,,,,,,,,,,,,,,,,,,,97,152404,22,Female,1,2024/03/18_08:44:28,YZ,None,
,,,,,,Calibration,0,,2,426,,,,,,,,,,,,,,,,,,,,,,,,,9,,,1,,,,,,,,,,,,,,,,,,,,,,,,,,,,,,,,,,,,,,,,,,,,,,97,152404,22,Female,1,2024/03/18_08:44:28,YZ,None,
,,,,,,calibration,0,26,2,361,1,Q,0,right,0.41069243400124833,1,0,,,,,,,,,,,,,,,,,,,,,1,,,,,,,,,,,,,,,,,,,,,,,,,,,,,,,,,,,,,,,,,,,,,,97,152404,22,Female,1,2024/03/18_08:44:28,YZ,None,
,,,,,,calibration,0,26,2,361,2,Q,0,right,0.4518288980179932,1,0,,,,,,,,,,,,,,,,,,,,,1,,,,,,,,,,,,,,,,,,,,,,,,,,,,,,,,,,,,,,,,,,,,,,97,152404,22,Female,1,2024/03/18_08:44:28,YZ,None,
,,,,,,calibration,0,26,2,361,3,Q,1,left,0.3522326329839416,1,0,,,,,,,,,,,,,,,,,,,,,1,,,,,,,,,,,,,,,,,,,,,,,,,,,,,,,,,,,,,,,,,,,,,,97,152404,22,Female,1,2024/03/18_08:44:28,YZ,None,
,,,,,,calibration,0,26,2,361,4,J,0,right,0.4318387410021387,1,0,,,,,,,,,,,,,,,,,,,,,1,,,,,,,,,,,,,,,,,,,,,,,,,,,,,,,,,,,,,,,,,,,,,,97,152404,22,Female,1,2024/03/18_08:44:28,YZ,None,
,,,,,,calibration,0,26,2,361,5,X,0,right,0.3571201349841431,1,0,,,,,,,,,,,,,,,,,,,,,1,,,,,,,,,,,,,,,,,,,,,,,,,,,,,,,,,,,,,,,,,,,,,,97,152404,22,Female,1,2024/03/18_08:44:28,YZ,None,
,,,,,,calibration,0,26,2,361,6,F,0,right,0.45711283400305547,1,0,,,,,,,,,,,,,,,,,,,,,1,,,,,,,,,,,,,,,,,,,,,,,,,,,,,,,,,,,,,,,,,,,,,,97,152404,22,Female,1,2024/03/18_08:44:28,YZ,None,
,,,,,,calibration,0,26,2,361,7,Q,0,right,0.41699452899047174,1,0,,,,,,,,,,,,,,,,,,,,,1,,,,,,,,,,,,,,,,,,,,,,,,,,,,,,,,,,,,,,,,,,,,,,97,152404,22,Female,1,2024/03/18_08:44:28,YZ,None,
,,,,,,calibration,0,26,2,361,8,J,0,right,0.4230119529820513,1,0,,,,,,,,,,,,,,,,,,,,,1,,,,,,,,,,,,,,,,,,,,,,,,,,,,,,,,,,,,,,,,,,,,,,97,152404,22,Female,1,2024/03/18_08:44:28,YZ,None,
,,,,,,calibration,0,26,2,361,9,C,0,right,0.41752129900851287,1,0,,,,,,,,,,,,,,,,,,,,,1,,,,,,,,,,,,,,,,,,,,,,,,,,,,,,,,,,,,,,,,,,,,,,97,152404,22,Female,1,2024/03/18_08:44:28,YZ,None,
,,,,,,calibration,0,26,2,361,10,F,0,right,0.36467092199018225,1,0,,,,,,,,,,,,,,,,,,,,,1,,,,,,,,,,,,,,,,,,,,,,,,,,,,,,,,,,,,,,,,,,,,,,97,152404,22,Female,1,2024/03/18_08:44:28,YZ,None,
,,,,,,calibration,0,26,2,361,11,J,0,left,0.7016711980104446,0,0,,,,,,,,,,,,,,,,,,,,,1,,,,,,,,,,,,,,,,,,,,,,,,,,,,,,,,,,,,,,,,,,,,,,97,152404,22,Female,1,2024/03/18_08:44:28,YZ,None,
,,,,,,calibration,0,26,2,361,12,V,0,right,0.08174364300793968,1,0,,,,,,,,,,,,,,,,,,,,,1,,,,,,,,,,,,,,,,,,,,,,,,,,,,,,,,,,,,,,,,,,,,,,97,152404,22,Female,1,2024/03/18_08:44:28,YZ,None,
,,,,,,calibration,0,26,2,361,13,J,1,right,0.36031191700021736,0,0,,,,,,,,,,,,,,,,,,,,,1,,,,,,,,,,,,,,,,,,,,,,,,,,,,,,,,,,,,,,,,,,,,,,97,152404,22,Female,1,2024/03/18_08:44:28,YZ,None,
,,,,,,calibration,0,26,2,361,14,X,0,right,0.24893842701567337,1,0,,,,,,,,,,,,,,,,,,,,,1,,,,,,,,,,,,,,,,,,,,,,,,,,,,,,,,,,,,,,,,,,,,,,97,152404,22,Female,1,2024/03/18_08:44:28,YZ,None,
,,,,,,calibration,0,26,2,361,15,J,1,left,0.3454085419944022,1,0,,,,,,,,,,,,,,,,,,,,,1,,,,,,,,,,,,,,,,,,,,,,,,,,,,,,,,,,,,,,,,,,,,,,97,152404,22,Female,1,2024/03/18_08:44:28,YZ,None,
,,,,,,calibration,0,26,2,361,16,V,0,right,0.27947417899849825,1,0,,,,,,,,,,,,,,,,,,,,,1,,,,,,,,,,,,,,,,,,,,,,,,,,,,,,,,,,,,,,,,,,,,,,97,152404,22,Female,1,2024/03/18_08:44:28,YZ,None,
,,,,,,calibration,0,26,2,361,17,J,1,right,0.2926123070064932,0,0,,,,,,,,,,,,,,,,,,,,,1,,,,,,,,,,,,,,,,,,,,,,,,,,,,,,,,,,,,,,,,,,,,,,97,152404,22,Female,1,2024/03/18_08:44:28,YZ,None,
,,,,,,calibration,0,26,2,361,18,V,1,left,0.2937397859932389,1,0,,,,,,,,,,,,,,,,,,,,,1,,,,,,,,,,,,,,,,,,,,,,,,,,,,,,,,,,,,,,,,,,,,,,97,152404,22,Female,1,2024/03/18_08:44:28,YZ,None,
,,,,,,calibration,0,26,2,361,,,,,,,,0.85,0.6,0.07692307692307693,0.9230769230769231,0.0,0.9230769230769231,0.3714957987217026,3,1,0,0,0,12,15,5,13,0,,,,1,,,,,,,,,,,,,,,,,,,,,,,,,,,,,,,,,,,,,,,,,,,,,,97,152404,22,Female,1,2024/03/18_08:44:28,YZ,None,
,,,,,,Calibration,0,,2,361,,,,,,,,,,,,,,,,,,,,,,,,,10,,,1,,,,,,,,,,,,,,,,,,,,,,,,,,,,,,,,,,,,,,,,,,,,,,97,152404,22,Female,1,2024/03/18_08:44:28,YZ,None,
,,,,,,calibration,0,21,2,361,1,V,0,right,0.361045911005931,1,0,,,,,,,,,,,,,,,,,,,,,1,,,,,,,,,,,,,,,,,,,,,,,,,,,,,,,,,,,,,,,,,,,,,,97,152404,22,Female,1,2024/03/18_08:44:28,YZ,None,
,,,,,,calibration,0,21,2,361,2,Q,0,right,0.3035492369963322,1,0,,,,,,,,,,,,,,,,,,,,,1,,,,,,,,,,,,,,,,,,,,,,,,,,,,,,,,,,,,,,,,,,,,,,97,152404,22,Female,1,2024/03/18_08:44:28,YZ,None,
,,,,,,calibration,0,21,2,361,3,V,1,left,0.4162150940101128,1,0,,,,,,,,,,,,,,,,,,,,,1,,,,,,,,,,,,,,,,,,,,,,,,,,,,,,,,,,,,,,,,,,,,,,97,152404,22,Female,1,2024/03/18_08:44:28,YZ,None,
,,,,,,calibration,0,21,2,361,4,S,0,right,0.28331156898639165,1,0,,,,,,,,,,,,,,,,,,,,,1,,,,,,,,,,,,,,,,,,,,,,,,,,,,,,,,,,,,,,,,,,,,,,97,152404,22,Female,1,2024/03/18_08:44:28,YZ,None,
,,,,,,calibration,0,21,2,361,5,V,1,left,0.472392588009825,1,0,,,,,,,,,,,,,,,,,,,,,1,,,,,,,,,,,,,,,,,,,,,,,,,,,,,,,,,,,,,,,,,,,,,,97,152404,22,Female,1,2024/03/18_08:44:28,YZ,None,
,,,,,,calibration,0,21,2,361,6,F,0,right,0.3192150820104871,1,0,,,,,,,,,,,,,,,,,,,,,1,,,,,,,,,,,,,,,,,,,,,,,,,,,,,,,,,,,,,,,,,,,,,,97,152404,22,Female,1,2024/03/18_08:44:28,YZ,None,
,,,,,,calibration,0,21,2,361,7,S,0,right,0.3595311260141898,1,0,,,,,,,,,,,,,,,,,,,,,1,,,,,,,,,,,,,,,,,,,,,,,,,,,,,,,,,,,,,,,,,,,,,,97,152404,22,Female,1,2024/03/18_08:44:28,YZ,None,
,,,,,,calibration,0,21,2,361,8,C,0,right,0.28827332198852673,1,0,,,,,,,,,,,,,,,,,,,,,1,,,,,,,,,,,,,,,,,,,,,,,,,,,,,,,,,,,,,,,,,,,,,,97,152404,22,Female,1,2024/03/18_08:44:28,YZ,None,
,,,,,,calibration,0,21,2,361,9,X,0,right,0.4393133739940822,1,0,,,,,,,,,,,,,,,,,,,,,1,,,,,,,,,,,,,,,,,,,,,,,,,,,,,,,,,,,,,,,,,,,,,,97,152404,22,Female,1,2024/03/18_08:44:28,YZ,None,
,,,,,,calibration,0,21,2,361,10,C,1,right,0.4318782479967922,0,0,,,,,,,,,,,,,,,,,,,,,1,,,,,,,,,,,,,,,,,,,,,,,,,,,,,,,,,,,,,,,,,,,,,,97,152404,22,Female,1,2024/03/18_08:44:28,YZ,None,
,,,,,,calibration,0,21,2,361,11,Q,0,right,0.42908017997979186,1,0,,,,,,,,,,,,,,,,,,,,,1,,,,,,,,,,,,,,,,,,,,,,,,,,,,,,,,,,,,,,,,,,,,,,97,152404,22,Female,1,2024/03/18_08:44:28,YZ,None,
,,,,,,calibration,0,21,2,361,12,C,1,left,0.4332460839941632,1,0,,,,,,,,,,,,,,,,,,,,,1,,,,,,,,,,,,,,,,,,,,,,,,,,,,,,,,,,,,,,,,,,,,,,97,152404,22,Female,1,2024/03/18_08:44:28,YZ,None,
,,,,,,calibration,0,21,2,361,13,N,0,right,0.30577538098441437,1,0,,,,,,,,,,,,,,,,,,,,,1,,,,,,,,,,,,,,,,,,,,,,,,,,,,,,,,,,,,,,,,,,,,,,97,152404,22,Female,1,2024/03/18_08:44:28,YZ,None,
,,,,,,calibration,0,21,2,361,14,X,0,right,0.232975863997126,1,0,,,,,,,,,,,,,,,,,,,,,1,,,,,,,,,,,,,,,,,,,,,,,,,,,,,,,,,,,,,,,,,,,,,,97,152404,22,Female,1,2024/03/18_08:44:28,YZ,None,
,,,,,,calibration,0,21,2,361,15,N,1,right,0.25677367000025697,0,0,,,,,,,,,,,,,,,,,,,,,1,,,,,,,,,,,,,,,,,,,,,,,,,,,,,,,,,,,,,,,,,,,,,,97,152404,22,Female,1,2024/03/18_08:44:28,YZ,None,
,,,,,,calibration,0,21,2,361,16,F,0,right,nan,0,1,,,,,,,,,,,,,,,,,,,,,1,,,,,,,,,,,,,,,,,,,,,,,,,,,,,,,,,,,,,,,,,,,,,,97,152404,22,Female,1,2024/03/18_08:44:28,YZ,None,
,,,,,,calibration,0,21,2,361,17,X,0,right,nan,0,1,,,,,,,,,,,,,,,,,,,,,1,,,,,,,,,,,,,,,,,,,,,,,,,,,,,,,,,,,,,,,,,,,,,,97,152404,22,Female,1,2024/03/18_08:44:28,YZ,None,
,,,,,,calibration,0,21,2,361,18,F,1,right,nan,0,1,,,,,,,,,,,,,,,,,,,,,1,,,,,,,,,,,,,,,,,,,,,,,,,,,,,,,,,,,,,,,,,,,,,,97,152404,22,Female,1,2024/03/18_08:44:28,YZ,None,
,,,,,,calibration,0,21,2,361,,,,,,,,0.875,0.5,0.0,1.0,0.16666666666666666,0.8333333333333334,0.3555051153312282,3,0,1,2,3,10,13,6,12,0,,,,1,,,,,,,,,,,,,,,,,,,,,,,,,,,,,,,,,,,,,,,,,,,,,,97,152404,22,Female,1,2024/03/18_08:44:28,YZ,None,
,,,,,,Calibration,0,,2,361,,,,,,,,,,,,,,,,,,,,,,,,,11,,,1,,,,,,,,,,,,,,,,,,,,,,,,,,,,,,,,,,,,,,,,,,,,,,97,152404,22,Female,1,2024/03/18_08:44:28,YZ,None,
,,,,,,calibration,0,3,2,303,1,Q,0,None,nan,0,1,,,,,,,,,,,,,,,,,,,,,1,,,,,,,,,,,,,,,,,,,,,,,,,,,,,,,,,,,,,,,,,,,,,,97,152404,22,Female,1,2024/03/18_08:44:28,YZ,None,
,,,,,,calibration,0,3,2,303,2,N,0,None,nan,0,1,,,,,,,,,,,,,,,,,,,,,1,,,,,,,,,,,,,,,,,,,,,,,,,,,,,,,,,,,,,,,,,,,,,,97,152404,22,Female,1,2024/03/18_08:44:28,YZ,None,
,,,,,,calibration,0,3,2,303,3,J,0,None,nan,0,1,,,,,,,,,,,,,,,,,,,,,1,,,,,,,,,,,,,,,,,,,,,,,,,,,,,,,,,,,,,,,,,,,,,,97,152404,22,Female,1,2024/03/18_08:44:28,YZ,None,
,,,,,,calibration,0,3,2,303,4,S,0,right,0.19557451200671494,1,0,,,,,,,,,,,,,,,,,,,,,1,,,,,,,,,,,,,,,,,,,,,,,,,,,,,,,,,,,,,,,,,,,,,,97,152404,22,Female,1,2024/03/18_08:44:28,YZ,None,
,,,,,,calibration,0,3,2,303,5,N,0,right,nan,0,1,,,,,,,,,,,,,,,,,,,,,1,,,,,,,,,,,,,,,,,,,,,,,,,,,,,,,,,,,,,,,,,,,,,,97,152404,22,Female,1,2024/03/18_08:44:28,YZ,None,
,,,,,,calibration,0,3,2,303,6,C,0,left,0.0,0,0,,,,,,,,,,,,,,,,,,,,,1,,,,,,,,,,,,,,,,,,,,,,,,,,,,,,,,,,,,,,,,,,,,,,97,152404,22,Female,1,2024/03/18_08:44:28,YZ,None,
,,,,,,calibration,0,3,2,303,7,N,1,left,nan,0,1,,,,,,,,,,,,,,,,,,,,,1,,,,,,,,,,,,,,,,,,,,,,,,,,,,,,,,,,,,,,,,,,,,,,97,152404,22,Female,1,2024/03/18_08:44:28,YZ,None,
,,,,,,calibration,0,3,2,303,8,C,1,right,0.0,0,0,,,,,,,,,,,,,,,,,,,,,1,,,,,,,,,,,,,,,,,,,,,,,,,,,,,,,,,,,,,,,,,,,,,,97,152404,22,Female,1,2024/03/18_08:44:28,YZ,None,
,,,,,,calibration,0,3,2,303,9,F,0,right,0.42676961098914035,1,0,,,,,,,,,,,,,,,,,,,,,1,,,,,,,,,,,,,,,,,,,,,,,,,,,,,,,,,,,,,,,,,,,,,,97,152404,22,Female,1,2024/03/18_08:44:28,YZ,None,
,,,,,,calibration,0,3,2,303,10,C,1,right,0.25737189600476995,0,0,,,,,,,,,,,,,,,,,,,,,1,,,,,,,,,,,,,,,,,,,,,,,,,,,,,,,,,,,,,,,,,,,,,,97,152404,22,Female,1,2024/03/18_08:44:28,YZ,None,
,,,,,,calibration,0,3,2,303,11,F,1,right,0.37718845100607723,0,0,,,,,,,,,,,,,,,,,,,,,1,,,,,,,,,,,,,,,,,,,,,,,,,,,,,,,,,,,,,,,,,,,,,,97,152404,22,Female,1,2024/03/18_08:44:28,YZ,None,
,,,,,,calibration,0,3,2,303,12,N,0,right,0.23117568698944524,1,0,,,,,,,,,,,,,,,,,,,,,1,,,,,,,,,,,,,,,,,,,,,,,,,,,,,,,,,,,,,,,,,,,,,,97,152404,22,Female,1,2024/03/18_08:44:28,YZ,None,
,,,,,,calibration,0,3,2,303,13,C,0,right,0.37223756199819036,1,0,,,,,,,,,,,,,,,,,,,,,1,,,,,,,,,,,,,,,,,,,,,,,,,,,,,,,,,,,,,,,,,,,,,,97,152404,22,Female,1,2024/03/18_08:44:28,YZ,None,
,,,,,,calibration,0,3,2,303,14,N,1,left,0.29677293001441285,1,0,,,,,,,,,,,,,,,,,,,,,1,,,,,,,,,,,,,,,,,,,,,,,,,,,,,,,,,,,,,,,,,,,,,,97,152404,22,Female,1,2024/03/18_08:44:28,YZ,None,
,,,,,,calibration,0,3,2,303,15,S,0,right,0.23497098599909805,1,0,,,,,,,,,,,,,,,,,,,,,1,,,,,,,,,,,,,,,,,,,,,,,,,,,,,,,,,,,,,,,,,,,,,,97,152404,22,Female,1,2024/03/18_08:44:28,YZ,None,
,,,,,,calibration,0,3,2,303,16,C,0,right,0.23272673497558571,1,0,,,,,,,,,,,,,,,,,,,,,1,,,,,,,,,,,,,,,,,,,,,,,,,,,,,,,,,,,,,,,,,,,,,,97,152404,22,Female,1,2024/03/18_08:44:28,YZ,None,
,,,,,,calibration,0,3,2,303,17,F,0,left,0.07350579500780441,0,0,,,,,,,,,,,,,,,,,,,,,1,,,,,,,,,,,,,,,,,,,,,,,,,,,,,,,,,,,,,,,,,,,,,,97,152404,22,Female,1,2024/03/18_08:44:28,YZ,None,
,,,,,,calibration,0,3,2,303,18,N,0,left,nan,0,1,,,,,,,,,,,,,,,,,,,,,1,,,,,,,,,,,,,,,,,,,,,,,,,,,,,,,,,,,,,,,,,,,,,,97,152404,22,Female,1,2024/03/18_08:44:28,YZ,None,
,,,,,,calibration,0,3,2,303,19,C,0,right,0.12009360900265165,1,0,,,,,,,,,,,,,,,,,,,,,1,,,,,,,,,,,,,,,,,,,,,,,,,,,,,,,,,,,,,,,,,,,,,,97,152404,22,Female,1,2024/03/18_08:44:28,YZ,None,
,,,,,,calibration,0,3,2,303,,,,,,,,0.5857142857142856,0.2,0.14285714285714285,0.7777777777777778,0.3157894736842105,0.5413533834586467,0.21679905953799158,1,2,1,5,6,7,8,5,14,0,,,,1,,,,,,,,,,,,,,,,,,,,,,,,,,,,,,,,,,,,,,,,,,,,,,97,152404,22,Female,1,2024/03/18_08:44:28,YZ,None,
,,,,,,Calibration,0,,2,303,,,,,,,,,,,,,,,,,,,,,,,,,12,,,1,,,,,,,,,,,,,,,,,,,,,,,,,,,,,,,,,,,,,,,,,,,,,,97,152404,22,Female,1,2024/03/18_08:44:28,YZ,None,
,,,,,,calibration,0,5,2,361,1,N,0,right,0.5367079749994446,1,0,,,,,,,,,,,,,,,,,,,,,1,,,,,,,,,,,,,,,,,,,,,,,,,,,,,,,,,,,,,,,,,,,,,,97,152404,22,Female,1,2024/03/18_08:44:28,YZ,None,
,,,,,,calibration,0,5,2,361,2,Q,0,right,0.3577434720064048,1,0,,,,,,,,,,,,,,,,,,,,,1,,,,,,,,,,,,,,,,,,,,,,,,,,,,,,,,,,,,,,,,,,,,,,97,152404,22,Female,1,2024/03/18_08:44:28,YZ,None,
,,,,,,calibration,0,5,2,361,3,N,1,right,0.48152610697434284,0,0,,,,,,,,,,,,,,,,,,,,,1,,,,,,,,,,,,,,,,,,,,,,,,,,,,,,,,,,,,,,,,,,,,,,97,152404,22,Female,1,2024/03/18_08:44:28,YZ,None,
,,,,,,calibration,0,5,2,361,4,X,0,right,0.4096337399969343,1,0,,,,,,,,,,,,,,,,,,,,,1,,,,,,,,,,,,,,,,,,,,,,,,,,,,,,,,,,,,,,,,,,,,,,97,152404,22,Female,1,2024/03/18_08:44:28,YZ,None,
,,,,,,calibration,0,5,2,361,5,N,1,left,0.620976891979808,1,0,,,,,,,,,,,,,,,,,,,,,1,,,,,,,,,,,,,,,,,,,,,,,,,,,,,,,,,,,,,,,,,,,,,,97,152404,22,Female,1,2024/03/18_08:44:28,YZ,None,
,,,,,,calibration,0,5,2,361,6,J,0,right,0.2512868610210717,1,0,,,,,,,,,,,,,,,,,,,,,1,,,,,,,,,,,,,,,,,,,,,,,,,,,,,,,,,,,,,,,,,,,,,,97,152404,22,Female,1,2024/03/18_08:44:28,YZ,None,
,,,,,,calibration,0,5,2,361,7,N,1,left,0.3195486449985765,1,0,,,,,,,,,,,,,,,,,,,,,1,,,,,,,,,,,,,,,,,,,,,,,,,,,,,,,,,,,,,,,,,,,,,,97,152404,22,Female,1,2024/03/18_08:44:28,YZ,None,
,,,,,,calibration,0,5,2,361,8,J,1,right,0.0004797510046046227,0,0,,,,,,,,,,,,,,,,,,,,,1,,,,,,,,,,,,,,,,,,,,,,,,,,,,,,,,,,,,,,,,,,,,,,97,152404,22,Female,1,2024/03/18_08:44:28,YZ,None,
,,,,,,calibration,0,5,2,361,9,Q,0,right,0.4076758800074458,1,0,,,,,,,,,,,,,,,,,,,,,1,,,,,,,,,,,,,,,,,,,,,,,,,,,,,,,,,,,,,,,,,,,,,,97,152404,22,Female,1,2024/03/18_08:44:28,YZ,None,
,,,,,,calibration,0,5,2,361,10,S,0,right,0.6333497970190365,1,0,,,,,,,,,,,,,,,,,,,,,1,,,,,,,,,,,,,,,,,,,,,,,,,,,,,,,,,,,,,,,,,,,,,,97,152404,22,Female,1,2024/03/18_08:44:28,YZ,None,
,,,,,,calibration,0,5,2,361,11,V,0,left,0.34235350400558673,0,0,,,,,,,,,,,,,,,,,,,,,1,,,,,,,,,,,,,,,,,,,,,,,,,,,,,,,,,,,,,,,,,,,,,,97,152404,22,Female,1,2024/03/18_08:44:28,YZ,None,
,,,,,,calibration,0,5,2,361,12,Q,0,right,0.2683925769815687,1,0,,,,,,,,,,,,,,,,,,,,,1,,,,,,,,,,,,,,,,,,,,,,,,,,,,,,,,,,,,,,,,,,,,,,97,152404,22,Female,1,2024/03/18_08:44:28,YZ,None,
,,,,,,calibration,0,5,2,361,13,X,0,right,0.27878222399158403,1,0,,,,,,,,,,,,,,,,,,,,,1,,,,,,,,,,,,,,,,,,,,,,,,,,,,,,,,,,,,,,,,,,,,,,97,152404,22,Female,1,2024/03/18_08:44:28,YZ,None,
,,,,,,calibration,0,5,2,361,14,J,0,right,0.27391646199976094,1,0,,,,,,,,,,,,,,,,,,,,,1,,,,,,,,,,,,,,,,,,,,,,,,,,,,,,,,,,,,,,,,,,,,,,97,152404,22,Female,1,2024/03/18_08:44:28,YZ,None,
,,,,,,calibration,0,5,2,361,15,X,1,right,0.31309626600705087,0,0,,,,,,,,,,,,,,,,,,,,,1,,,,,,,,,,,,,,,,,,,,,,,,,,,,,,,,,,,,,,,,,,,,,,97,152404,22,Female,1,2024/03/18_08:44:28,YZ,None,
,,,,,,calibration,0,5,2,361,16,V,0,right,0.3236411389952991,1,0,,,,,,,,,,,,,,,,,,,,,1,,,,,,,,,,,,,,,,,,,,,,,,,,,,,,,,,,,,,,,,,,,,,,97,152404,22,Female,1,2024/03/18_08:44:28,YZ,None,
,,,,,,calibration,0,5,2,361,17,F,0,right,0.3010634350066539,1,0,,,,,,,,,,,,,,,,,,,,,1,,,,,,,,,,,,,,,,,,,,,,,,,,,,,,,,,,,,,,,,,,,,,,97,152404,22,Female,1,2024/03/18_08:44:28,YZ,None,
,,,,,,calibration,0,5,2,361,18,S,0,right,0.3358985809900332,1,0,,,,,,,,,,,,,,,,,,,,,1,,,,,,,,,,,,,,,,,,,,,,,,,,,,,,,,,,,,,,,,,,,,,,97,152404,22,Female,1,2024/03/18_08:44:28,YZ,None,
,,,,,,calibration,0,5,2,361,,,,,,,,0.7826923076923077,0.4,0.07692307692307693,0.9230769230769231,0.0,0.9230769230769231,0.3586707393325115,2,1,0,0,0,12,14,5,13,0,,,,1,,,,,,,,,,,,,,,,,,,,,,,,,,,,,,,,,,,,,,,,,,,,,,97,152404,22,Female,1,2024/03/18_08:44:28,YZ,None,
,,,,,,Calibration,0,,2,361,,,,,,,,,,,,,,,,,,,,,,,,,13,,,1,,,,,,,,,,,,,,,,,,,,,,,,,,,,,,,,,,,,,,,,,,,,,,97,152404,22,Female,1,2024/03/18_08:44:28,YZ,None,
,,,,,,calibration,0,5,2,361,1,N,0,right,0.424335871997755,1,0,,,,,,,,,,,,,,,,,,,,,1,,,,,,,,,,,,,,,,,,,,,,,,,,,,,,,,,,,,,,,,,,,,,,97,152404,22,Female,1,2024/03/18_08:44:28,YZ,None,
,,,,,,calibration,0,5,2,361,2,Q,0,right,0.44458940500044264,1,0,,,,,,,,,,,,,,,,,,,,,1,,,,,,,,,,,,,,,,,,,,,,,,,,,,,,,,,,,,,,,,,,,,,,97,152404,22,Female,1,2024/03/18_08:44:28,YZ,None,
,,,,,,calibration,0,5,2,361,3,N,1,left,0.3061648129951209,1,0,,,,,,,,,,,,,,,,,,,,,1,,,,,,,,,,,,,,,,,,,,,,,,,,,,,,,,,,,,,,,,,,,,,,97,152404,22,Female,1,2024/03/18_08:44:28,YZ,None,
,,,,,,calibration,0,5,2,361,4,X,0,right,0.33672064199345186,1,0,,,,,,,,,,,,,,,,,,,,,1,,,,,,,,,,,,,,,,,,,,,,,,,,,,,,,,,,,,,,,,,,,,,,97,152404,22,Female,1,2024/03/18_08:44:28,YZ,None,
,,,,,,calibration,0,5,2,361,5,N,1,left,0.6939791899931151,1,0,,,,,,,,,,,,,,,,,,,,,1,,,,,,,,,,,,,,,,,,,,,,,,,,,,,,,,,,,,,,,,,,,,,,97,152404,22,Female,1,2024/03/18_08:44:28,YZ,None,
,,,,,,calibration,0,5,2,361,6,J,0,right,0.19064977602101862,1,0,,,,,,,,,,,,,,,,,,,,,1,,,,,,,,,,,,,,,,,,,,,,,,,,,,,,,,,,,,,,,,,,,,,,97,152404,22,Female,1,2024/03/18_08:44:28,YZ,None,
,,,,,,calibration,0,5,2,361,7,N,1,left,0.4369022230093833,1,0,,,,,,,,,,,,,,,,,,,,,1,,,,,,,,,,,,,,,,,,,,,,,,,,,,,,,,,,,,,,,,,,,,,,97,152404,22,Female,1,2024/03/18_08:44:28,YZ,None,
,,,,,,calibration,0,5,2,361,8,J,1,right,0.2649372630112339,0,0,,,,,,,,,,,,,,,,,,,,,1,,,,,,,,,,,,,,,,,,,,,,,,,,,,,,,,,,,,,,,,,,,,,,97,152404,22,Female,1,2024/03/18_08:44:28,YZ,None,
,,,,,,calibration,0,5,2,361,9,Q,0,right,0.41915457701543346,1,0,,,,,,,,,,,,,,,,,,,,,1,,,,,,,,,,,,,,,,,,,,,,,,,,,,,,,,,,,,,,,,,,,,,,97,152404,22,Female,1,2024/03/18_08:44:28,YZ,None,
,,,,,,calibration,0,5,2,361,10,S,0,left,0.4012949689931702,0,0,,,,,,,,,,,,,,,,,,,,,1,,,,,,,,,,,,,,,,,,,,,,,,,,,,,,,,,,,,,,,,,,,,,,97,152404,22,Female,1,2024/03/18_08:44:28,YZ,None,
,,,,,,calibration,0,5,2,361,11,V,0,right,0.304392258025473,1,0,,,,,,,,,,,,,,,,,,,,,1,,,,,,,,,,,,,,,,,,,,,,,,,,,,,,,,,,,,,,,,,,,,,,97,152404,22,Female,1,2024/03/18_08:44:28,YZ,None,
,,,,,,calibration,0,5,2,361,12,Q,0,right,0.4011359899886884,1,0,,,,,,,,,,,,,,,,,,,,,1,,,,,,,,,,,,,,,,,,,,,,,,,,,,,,,,,,,,,,,,,,,,,,97,152404,22,Female,1,2024/03/18_08:44:28,YZ,None,
,,,,,,calibration,0,5,2,361,13,X,0,right,0.35651070799212903,1,0,,,,,,,,,,,,,,,,,,,,,1,,,,,,,,,,,,,,,,,,,,,,,,,,,,,,,,,,,,,,,,,,,,,,97,152404,22,Female,1,2024/03/18_08:44:28,YZ,None,
,,,,,,calibration,0,5,2,361,14,J,0,right,0.3051891819923185,1,0,,,,,,,,,,,,,,,,,,,,,1,,,,,,,,,,,,,,,,,,,,,,,,,,,,,,,,,,,,,,,,,,,,,,97,152404,22,Female,1,2024/03/18_08:44:28,YZ,None,
,,,,,,calibration,0,5,2,361,15,X,1,right,0.367316246003611,0,0,,,,,,,,,,,,,,,,,,,,,1,,,,,,,,,,,,,,,,,,,,,,,,,,,,,,,,,,,,,,,,,,,,,,97,152404,22,Female,1,2024/03/18_08:44:28,YZ,None,
,,,,,,calibration,0,5,2,361,16,V,0,right,0.34707400100887753,1,0,,,,,,,,,,,,,,,,,,,,,1,,,,,,,,,,,,,,,,,,,,,,,,,,,,,,,,,,,,,,,,,,,,,,97,152404,22,Female,1,2024/03/18_08:44:28,YZ,None,
,,,,,,calibration,0,5,2,361,17,F,0,right,0.31942594100837596,1,0,,,,,,,,,,,,,,,,,,,,,1,,,,,,,,,,,,,,,,,,,,,,,,,,,,,,,,,,,,,,,,,,,,,,97,152404,22,Female,1,2024/03/18_08:44:28,YZ,None,
,,,,,,calibration,0,5,2,361,18,S,0,right,0.38273319898871705,1,0,,,,,,,,,,,,,,,,,,,,,1,,,,,,,,,,,,,,,,,,,,,,,,,,,,,,,,,,,,,,,,,,,,,,97,152404,22,Female,1,2024/03/18_08:44:28,YZ,None,
,,,,,,calibration,0,5,2,361,,,,,,,,0.85,0.6,0.07692307692307693,0.9230769230769231,0.0,0.9230769230769231,0.37236145861323977,3,1,0,0,0,12,15,5,13,0,,,,1,,,,,,,,,,,,,,,,,,,,,,,,,,,,,,,,,,,,,,,,,,,,,,97,152404,22,Female,1,2024/03/18_08:44:28,YZ,None,
,,,,,,Calibration,0,,2,361,,,,,,,,,,,,,,,,,,,,,,,,,14,,,1,,,,,,,,,,,,,,,,,,,,,,,,,,,,,,,,,,,,,,,,,,,,,,97,152404,22,Female,1,2024/03/18_08:44:28,YZ,None,
,,,,,,calibration,0,13,2,361,1,S,0,right,0.48915807699086145,1,0,,,,,,,,,,,,,,,,,,,,,1,,,,,,,,,,,,,,,,,,,,,,,,,,,,,,,,,,,,,,,,,,,,,,97,152404,22,Female,1,2024/03/18_08:44:28,YZ,None,
,,,,,,calibration,0,13,2,361,2,X,0,right,0.3277697059966158,1,0,,,,,,,,,,,,,,,,,,,,,1,,,,,,,,,,,,,,,,,,,,,,,,,,,,,,,,,,,,,,,,,,,,,,97,152404,22,Female,1,2024/03/18_08:44:28,YZ,None,
,,,,,,calibration,0,13,2,361,3,Q,0,left,0.46882210799958557,0,0,,,,,,,,,,,,,,,,,,,,,1,,,,,,,,,,,,,,,,,,,,,,,,,,,,,,,,,,,,,,,,,,,,,,97,152404,22,Female,1,2024/03/18_08:44:28,YZ,None,
,,,,,,calibration,0,13,2,361,4,X,1,left,nan,0,1,,,,,,,,,,,,,,,,,,,,,1,,,,,,,,,,,,,,,,,,,,,,,,,,,,,,,,,,,,,,,,,,,,,,97,152404,22,Female,1,2024/03/18_08:44:28,YZ,None,
,,,,,,calibration,0,13,2,361,5,Q,1,right,0.353648703021463,0,0,,,,,,,,,,,,,,,,,,,,,1,,,,,,,,,,,,,,,,,,,,,,,,,,,,,,,,,,,,,,,,,,,,,,97,152404,22,Female,1,2024/03/18_08:44:28,YZ,None,
,,,,,,calibration,0,13,2,361,6,V,0,right,0.4007292969909031,1,0,,,,,,,,,,,,,,,,,,,,,1,,,,,,,,,,,,,,,,,,,,,,,,,,,,,,,,,,,,,,,,,,,,,,97,152404,22,Female,1,2024/03/18_08:44:28,YZ,None,
,,,,,,calibration,0,13,2,361,7,F,0,right,0.4959914530045353,1,0,,,,,,,,,,,,,,,,,,,,,1,,,,,,,,,,,,,,,,,,,,,,,,,,,,,,,,,,,,,,,,,,,,,,97,152404,22,Female,1,2024/03/18_08:44:28,YZ,None,
,,,,,,calibration,0,13,2,361,8,C,0,right,0.4896081220067572,1,0,,,,,,,,,,,,,,,,,,,,,1,,,,,,,,,,,,,,,,,,,,,,,,,,,,,,,,,,,,,,,,,,,,,,97,152404,22,Female,1,2024/03/18_08:44:28,YZ,None,
,,,,,,calibration,0,13,2,361,9,J,0,right,0.5315023169969209,1,0,,,,,,,,,,,,,,,,,,,,,1,,,,,,,,,,,,,,,,,,,,,,,,,,,,,,,,,,,,,,,,,,,,,,97,152404,22,Female,1,2024/03/18_08:44:28,YZ,None,
,,,,,,calibration,0,13,2,361,10,C,1,right,0.39648042200133204,0,0,,,,,,,,,,,,,,,,,,,,,1,,,,,,,,,,,,,,,,,,,,,,,,,,,,,,,,,,,,,,,,,,,,,,97,152404,22,Female,1,2024/03/18_08:44:28,YZ,None,
,,,,,,calibration,0,13,2,361,11,J,1,right,0.47646489000180736,0,0,,,,,,,,,,,,,,,,,,,,,1,,,,,,,,,,,,,,,,,,,,,,,,,,,,,,,,,,,,,,,,,,,,,,97,152404,22,Female,1,2024/03/18_08:44:28,YZ,None,
,,,,,,calibration,0,13,2,361,12,N,0,right,0.33245042999624275,1,0,,,,,,,,,,,,,,,,,,,,,1,,,,,,,,,,,,,,,,,,,,,,,,,,,,,,,,,,,,,,,,,,,,,,97,152404,22,Female,1,2024/03/18_08:44:28,YZ,None,
,,,,,,calibration,0,13,2,361,13,J,1,left,0.39132507401518524,1,0,,,,,,,,,,,,,,,,,,,,,1,,,,,,,,,,,,,,,,,,,,,,,,,,,,,,,,,,,,,,,,,,,,,,97,152404,22,Female,1,2024/03/18_08:44:28,YZ,None,
,,,,,,calibration,0,13,2,361,14,Q,0,right,0.29547812801320106,1,0,,,,,,,,,,,,,,,,,,,,,1,,,,,,,,,,,,,,,,,,,,,,,,,,,,,,,,,,,,,,,,,,,,,,97,152404,22,Female,1,2024/03/18_08:44:28,YZ,None,
,,,,,,calibration,0,13,2,361,15,S,0,right,0.4282519659900572,1,0,,,,,,,,,,,,,,,,,,,,,1,,,,,,,,,,,,,,,,,,,,,,,,,,,,,,,,,,,,,,,,,,,,,,97,152404,22,Female,1,2024/03/18_08:44:28,YZ,None,
,,,,,,calibration,0,13,2,361,16,N,0,right,0.38844541599974036,1,0,,,,,,,,,,,,,,,,,,,,,1,,,,,,,,,,,,,,,,,,,,,,,,,,,,,,,,,,,,,,,,,,,,,,97,152404,22,Female,1,2024/03/18_08:44:28,YZ,None,
,,,,,,calibration,0,13,2,361,17,F,0,right,0.44853398299892433,1,0,,,,,,,,,,,,,,,,,,,,,1,,,,,,,,,,,,,,,,,,,,,,,,,,,,,,,,,,,,,,,,,,,,,,97,152404,22,Female,1,2024/03/18_08:44:28,YZ,None,
,,,,,,calibration,0,13,2,361,18,S,0,left,0.47986455901991576,0,0,,,,,,,,,,,,,,,,,,,,,1,,,,,,,,,,,,,,,,,,,,,,,,,,,,,,,,,,,,,,,,,,,,,,97,152404,22,Female,1,2024/03/18_08:44:28,YZ,None,
,,,,,,calibration,0,13,2,361,,,,,,,,0.5692307692307692,0.2,0.15384615384615385,0.8461538461538461,0.05555555555555555,0.7905982905982906,0.42320733241435576,1,2,1,0,1,11,12,5,13,0,,,,1,,,,,,,,,,,,,,,,,,,,,,,,,,,,,,,,,,,,,,,,,,,,,,97,152404,22,Female,1,2024/03/18_08:44:28,YZ,None,
,,,,,,Calibration,0,,2,361,,,,,,,,,,,,,,,,,,,,,,,,,15,,,1,,,,,,,,,,,,,,,,,,,,,,,,,,,,,,,,,,,,,,,,,,,,,,97,152404,22,Female,1,2024/03/18_08:44:28,YZ,None,
,,,,,,calibration,0,1,2,426,1,S,0,right,0.29399379398091696,1,0,,,,,,,,,,,,,,,,,,,,,1,,,,,,,,,,,,,,,,,,,,,,,,,,,,,,,,,,,,,,,,,,,,,,97,152404,22,Female,1,2024/03/18_08:44:28,YZ,None,
,,,,,,calibration,0,1,2,426,2,C,0,right,0.3371704269957263,1,0,,,,,,,,,,,,,,,,,,,,,1,,,,,,,,,,,,,,,,,,,,,,,,,,,,,,,,,,,,,,,,,,,,,,97,152404,22,Female,1,2024/03/18_08:44:28,YZ,None,
,,,,,,calibration,0,1,2,426,3,S,1,right,0.41534263201174326,0,0,,,,,,,,,,,,,,,,,,,,,1,,,,,,,,,,,,,,,,,,,,,,,,,,,,,,,,,,,,,,,,,,,,,,97,152404,22,Female,1,2024/03/18_08:44:28,YZ,None,
,,,,,,calibration,0,1,2,426,4,X,0,right,0.36429761501494795,1,0,,,,,,,,,,,,,,,,,,,,,1,,,,,,,,,,,,,,,,,,,,,,,,,,,,,,,,,,,,,,,,,,,,,,97,152404,22,Female,1,2024/03/18_08:44:28,YZ,None,
,,,,,,calibration,0,1,2,426,5,V,0,right,0.5457831859821454,1,0,,,,,,,,,,,,,,,,,,,,,1,,,,,,,,,,,,,,,,,,,,,,,,,,,,,,,,,,,,,,,,,,,,,,97,152404,22,Female,1,2024/03/18_08:44:28,YZ,None,
,,,,,,calibration,0,1,2,426,6,Q,0,right,0.4671275800210424,1,0,,,,,,,,,,,,,,,,,,,,,1,,,,,,,,,,,,,,,,,,,,,,,,,,,,,,,,,,,,,,,,,,,,,,97,152404,22,Female,1,2024/03/18_08:44:28,YZ,None,
,,,,,,calibration,0,1,2,426,7,J,0,right,0.39970081800129265,1,0,,,,,,,,,,,,,,,,,,,,,1,,,,,,,,,,,,,,,,,,,,,,,,,,,,,,,,,,,,,,,,,,,,,,97,152404,22,Female,1,2024/03/18_08:44:28,YZ,None,
,,,,,,calibration,0,1,2,426,8,Q,1,left,0.6038218829780817,1,0,,,,,,,,,,,,,,,,,,,,,1,,,,,,,,,,,,,,,,,,,,,,,,,,,,,,,,,,,,,,,,,,,,,,97,152404,22,Female,1,2024/03/18_08:44:28,YZ,None,
,,,,,,calibration,0,1,2,426,9,F,0,right,0.3880236349941697,1,0,,,,,,,,,,,,,,,,,,,,,1,,,,,,,,,,,,,,,,,,,,,,,,,,,,,,,,,,,,,,,,,,,,,,97,152404,22,Female,1,2024/03/18_08:44:28,YZ,None,
,,,,,,calibration,0,1,2,426,10,S,0,right,0.41255278102471493,1,0,,,,,,,,,,,,,,,,,,,,,1,,,,,,,,,,,,,,,,,,,,,,,,,,,,,,,,,,,,,,,,,,,,,,97,152404,22,Female,1,2024/03/18_08:44:28,YZ,None,
,,,,,,calibration,0,1,2,426,11,F,1,left,0.6242453629965894,1,0,,,,,,,,,,,,,,,,,,,,,1,,,,,,,,,,,,,,,,,,,,,,,,,,,,,,,,,,,,,,,,,,,,,,97,152404,22,Female,1,2024/03/18_08:44:28,YZ,None,
,,,,,,calibration,0,1,2,426,12,S,1,right,0.29754454299109057,0,0,,,,,,,,,,,,,,,,,,,,,1,,,,,,,,,,,,,,,,,,,,,,,,,,,,,,,,,,,,,,,,,,,,,,97,152404,22,Female,1,2024/03/18_08:44:28,YZ,None,
,,,,,,calibration,0,1,2,426,13,X,0,right,0.6096423239796422,1,0,,,,,,,,,,,,,,,,,,,,,1,,,,,,,,,,,,,,,,,,,,,,,,,,,,,,,,,,,,,,,,,,,,,,97,152404,22,Female,1,2024/03/18_08:44:28,YZ,None,
,,,,,,calibration,0,1,2,426,14,Q,0,right,0.5008065089932643,1,0,,,,,,,,,,,,,,,,,,,,,1,,,,,,,,,,,,,,,,,,,,,,,,,,,,,,,,,,,,,,,,,,,,,,97,152404,22,Female,1,2024/03/18_08:44:28,YZ,None,
,,,,,,calibration,0,1,2,426,15,N,0,right,0.5972981399972923,1,0,,,,,,,,,,,,,,,,,,,,,1,,,,,,,,,,,,,,,,,,,,,,,,,,,,,,,,,,,,,,,,,,,,,,97,152404,22,Female,1,2024/03/18_08:44:28,YZ,None,
,,,,,,calibration,0,1,2,426,16,S,0,right,0.29460583699983545,1,0,,,,,,,,,,,,,,,,,,,,,1,,,,,,,,,,,,,,,,,,,,,,,,,,,,,,,,,,,,,,,,,,,,,,97,152404,22,Female,1,2024/03/18_08:44:28,YZ,None,
,,,,,,calibration,0,1,2,426,17,N,1,right,0.3082370870106388,0,0,,,,,,,,,,,,,,,,,,,,,1,,,,,,,,,,,,,,,,,,,,,,,,,,,,,,,,,,,,,,,,,,,,,,97,152404,22,Female,1,2024/03/18_08:44:28,YZ,None,
,,,,,,calibration,0,1,2,426,,,,,,,,0.85,0.4,0.0,1.0,0.0,1.0,0.43883495023371377,2,0,0,0,0,12,14,5,12,0,,,,1,,,,,,,,,,,,,,,,,,,,,,,,,,,,,,,,,,,,,,,,,,,,,,97,152404,22,Female,1,2024/03/18_08:44:28,YZ,None,
,,,,,,Calibration,0,,2,426,,,,,,,,,,,,,,,,,,,,,,,,,16,,,1,,,,,,,,,,,,,,,,,,,,,,,,,,,,,,,,,,,,,,,,,,,,,,97,152404,22,Female,1,2024/03/18_08:44:28,YZ,None,
,,,,,,CALIBRATION,0,,,,,,,,,,,,,,,,,,,,,,,,,,,,16,0.85,426,1,,,,,,,,,,,,,,,,,,,,,,,,,,,,,,,,,,,,,,,,,,,,,,97,152404,22,Female,1,2024/03/18_08:44:28,YZ,None,
1,./instructions/inst_prac_1/Slide24.png,right,11.004614052013494,576.0678184079879,587.0724324600014,,,,,,,,,,,,,,,,,,,,,,,,,,,,,,,,,1,,,,,,,,,,,,,,,,,,,,,,,,,,,,,,,,,,,,,,,,,,,,,,97,152404,22,Female,1,2024/03/18_08:44:28,YZ,None,
2,./instructions/inst_prac_1/Slide25.png,right,3.5847590859921183,587.1195151080028,590.7042741939949,,,,,,,,,,,,,,,,,,,,,,,,,,,,,,,,,1,,,,,,,,,,,,,,,,,,,,,,,,,,,,,,,,,,,,,,,,,,,,,,97,152404,22,Female,1,2024/03/18_08:44:28,YZ,None,
3,./instructions/inst_prac_1/Slide26.png,right,1.2445653280010447,590.7318283439963,591.9763936719974,,,,,,,,,,,,,,,,,,,,,,,,,,,,,,,,,1,,,,,,,,,,,,,,,,,,,,,,,,,,,,,,,,,,,,,,,,,,,,,,97,152404,22,Female,1,2024/03/18_08:44:28,YZ,None,
4,./instructions/inst_prac_1/Slide27.png,right,1.3689932439883705,592.0072483620024,593.3762416059908,,,,,,,,,,,,,,,,,,,,,,,,,,,,,,,,,1,,,,,,,,,,,,,,,,,,,,,,,,,,,,,,,,,,,,,,,,,,,,,,97,152404,22,Female,1,2024/03/18_08:44:28,YZ,None,
5,./instructions/inst_prac_1/Slide28.png,right,0.8260579749767203,593.4062569900125,594.2323149649892,,,,,,,,,,,,,,,,,,,,,,,,,,,,,,,,,1,,,,,,,,,,,,,,,,,,,,,,,,,,,,,,,,,,,,,,,,,,,,,,97,152404,22,Female,1,2024/03/18_08:44:28,YZ,None,
6,./instructions/inst_prac_1/Slide29.png,right,2.2327839779900387,594.263584166998,596.4963681449881,,,,,,,,,,,,,,,,,,,,,,,,,,,,,,,,,1,,,,,,,,,,,,,,,,,,,,,,,,,,,,,,,,,,,,,,,,,,,,,,97,152404,22,Female,1,2024/03/18_08:44:28,YZ,None,
7,./instructions/inst_prac_1/Slide30.png,right,1.9044589280092623,596.5277915030019,598.4322504310112,,,,,,,,,,,,,,,,,,,,,,,,,,,,,,,,,1,,,,,,,,,,,,,,,,,,,,,,,,,,,,,,,,,,,,,,,,,,,,,,97,152404,22,Female,1,2024/03/18_08:44:28,YZ,None,
,,,,,,practice,0,9,1,1250,1,Q,0,right,2.529639253014466,1,0,,,,,,,,,,,,,,,,,,,,,1,,,,,,,,,,,,,,,,,,,,,,,,,,,,,,,,,,,,,,,,,,,,,,97,152404,22,Female,1,2024/03/18_08:44:28,YZ,None,
,,,,,,practice,0,9,1,1250,2,X,0,right,1.6678621280007064,1,0,,,,,,,,,,,,,,,,,,,,,1,,,,,,,,,,,,,,,,,,,,,,,,,,,,,,,,,,,,,,,,,,,,,,97,152404,22,Female,1,2024/03/18_08:44:28,YZ,None,
,,,,,,practice,0,9,1,1250,3,X,1,right,0.5088210850080941,0,0,,,,,,,,,,,,,,,,,,,,,1,,,,,,,,,,,,,,,,,,,,,,,,,,,,,,,,,,,,,,,,,,,,,,97,152404,22,Female,1,2024/03/18_08:44:28,YZ,None,
,,,,,,practice,0,9,1,1250,4,V,0,right,0.9806867779989261,1,0,,,,,,,,,,,,,,,,,,,,,1,,,,,,,,,,,,,,,,,,,,,,,,,,,,,,,,,,,,,,,,,,,,,,97,152404,22,Female,1,2024/03/18_08:44:28,YZ,None,
,,,,,,practice,0,9,1,1250,5,S,0,right,0.8920936539943796,1,0,,,,,,,,,,,,,,,,,,,,,1,,,,,,,,,,,,,,,,,,,,,,,,,,,,,,,,,,,,,,,,,,,,,,97,152404,22,Female,1,2024/03/18_08:44:28,YZ,None,
,,,,,,practice,0,9,1,1250,6,V,0,right,0.6860137889743783,1,0,,,,,,,,,,,,,,,,,,,,,1,,,,,,,,,,,,,,,,,,,,,,,,,,,,,,,,,,,,,,,,,,,,,,97,152404,22,Female,1,2024/03/18_08:44:28,YZ,None,
,,,,,,practice,0,9,1,1250,7,V,1,left,0.6952077540045138,1,0,,,,,,,,,,,,,,,,,,,,,1,,,,,,,,,,,,,,,,,,,,,,,,,,,,,,,,,,,,,,,,,,,,,,97,152404,22,Female,1,2024/03/18_08:44:28,YZ,None,
,,,,,,practice,0,9,1,1250,8,N,0,right,0.7253467749978881,1,0,,,,,,,,,,,,,,,,,,,,,1,,,,,,,,,,,,,,,,,,,,,,,,,,,,,,,,,,,,,,,,,,,,,,97,152404,22,Female,1,2024/03/18_08:44:28,YZ,None,
,,,,,,practice,0,9,1,1250,9,N,1,left,0.6369349920132663,1,0,,,,,,,,,,,,,,,,,,,,,1,,,,,,,,,,,,,,,,,,,,,,,,,,,,,,,,,,,,,,,,,,,,,,97,152404,22,Female,1,2024/03/18_08:44:28,YZ,None,
,,,,,,practice,0,9,1,1250,10,S,0,right,1.3554597340116743,1,0,,,,,,,,,,,,,,,,,,,,,1,,,,,,,,,,,,,,,,,,,,,,,,,,,,,,,,,,,,,,,,,,,,,,97,152404,22,Female,1,2024/03/18_08:44:28,YZ,None,
,,,,,,practice,0,9,1,1250,,,,,,,,0.9166666666666666,0.6666666666666666,0.0,1.0,0.0,1.0,1.0678065942018293,2,0,0,0,0,7,9,3,7,0,,,,1,,,,,,,,,,,,,,,,,,,,,,,,,,,,,,,,,,,,,,,,,,,,,,97,152404,22,Female,1,2024/03/18_08:44:28,YZ,None,
1,./instructions/inst_prac_1_next/Slide35.png,right,4.611351441999432,620.1811845820048,624.7925360240042,,,,,,,,,,,,,,,,,,,,,,,,,,,,,,,,,1,,,,,,,,,,,,,,,,,,,,,,,,,,,,,,,,,,,,,,,,,,,,,,97,152404,22,Female,1,2024/03/18_08:44:28,YZ,None,
,,,,,,practice,0,1,1,426,1,S,0,right,0.8505712429760024,1,0,,,,,,,,,,,,,,,,,,,,,1,,,,,,,,,,,,,,,,,,,,,,,,,,,,,,,,,,,,,,,,,,,,,,97,152404,22,Female,1,2024/03/18_08:44:28,YZ,None,
,,,,,,practice,0,1,1,426,2,S,1,left,0.6476867670135107,1,0,,,,,,,,,,,,,,,,,,,,,1,,,,,,,,,,,,,,,,,,,,,,,,,,,,,,,,,,,,,,,,,,,,,,97,152404,22,Female,1,2024/03/18_08:44:28,YZ,None,
,,,,,,practice,0,1,1,426,3,J,0,right,0.6689671310014091,1,0,,,,,,,,,,,,,,,,,,,,,1,,,,,,,,,,,,,,,,,,,,,,,,,,,,,,,,,,,,,,,,,,,,,,97,152404,22,Female,1,2024/03/18_08:44:28,YZ,None,
,,,,,,practice,0,1,1,426,4,N,0,right,0.7840615699824411,1,0,,,,,,,,,,,,,,,,,,,,,1,,,,,,,,,,,,,,,,,,,,,,,,,,,,,,,,,,,,,,,,,,,,,,97,152404,22,Female,1,2024/03/18_08:44:28,YZ,None,
,,,,,,practice,0,1,1,426,5,S,0,right,0.5888331329915673,1,0,,,,,,,,,,,,,,,,,,,,,1,,,,,,,,,,,,,,,,,,,,,,,,,,,,,,,,,,,,,,,,,,,,,,97,152404,22,Female,1,2024/03/18_08:44:28,YZ,None,
,,,,,,practice,0,1,1,426,6,S,1,left,0.528914246999193,1,0,,,,,,,,,,,,,,,,,,,,,1,,,,,,,,,,,,,,,,,,,,,,,,,,,,,,,,,,,,,,,,,,,,,,97,152404,22,Female,1,2024/03/18_08:44:28,YZ,None,
,,,,,,practice,0,1,1,426,7,F,0,right,0.3888091440021526,1,0,,,,,,,,,,,,,,,,,,,,,1,,,,,,,,,,,,,,,,,,,,,,,,,,,,,,,,,,,,,,,,,,,,,,97,152404,22,Female,1,2024/03/18_08:44:28,YZ,None,
,,,,,,practice,0,1,1,426,8,J,0,right,0.5516343700001016,1,0,,,,,,,,,,,,,,,,,,,,,1,,,,,,,,,,,,,,,,,,,,,,,,,,,,,,,,,,,,,,,,,,,,,,97,152404,22,Female,1,2024/03/18_08:44:28,YZ,None,
,,,,,,practice,0,1,1,426,9,J,1,right,0.4003824160026852,0,0,,,,,,,,,,,,,,,,,,,,,1,,,,,,,,,,,,,,,,,,,,,,,,,,,,,,,,,,,,,,,,,,,,,,97,152404,22,Female,1,2024/03/18_08:44:28,YZ,None,
,,,,,,practice,0,1,1,426,10,S,0,right,0.5320026580011472,1,0,,,,,,,,,,,,,,,,,,,,,1,,,,,,,,,,,,,,,,,,,,,,,,,,,,,,,,,,,,,,,,,,,,,,97,152404,22,Female,1,2024/03/18_08:44:28,YZ,None,
,,,,,,practice,0,1,1,426,11,Q,0,right,0.5433549729932565,1,0,,,,,,,,,,,,,,,,,,,,,1,,,,,,,,,,,,,,,,,,,,,,,,,,,,,,,,,,,,,,,,,,,,,,97,152404,22,Female,1,2024/03/18_08:44:28,YZ,None,
,,,,,,practice,0,1,1,426,12,N,0,right,0.688489997992292,1,0,,,,,,,,,,,,,,,,,,,,,1,,,,,,,,,,,,,,,,,,,,,,,,,,,,,,,,,,,,,,,,,,,,,,97,152404,22,Female,1,2024/03/18_08:44:28,YZ,None,
,,,,,,practice,0,1,1,426,13,Q,0,right,0.5509399939910509,1,0,,,,,,,,,,,,,,,,,,,,,1,,,,,,,,,,,,,,,,,,,,,,,,,,,,,,,,,,,,,,,,,,,,,,97,152404,22,Female,1,2024/03/18_08:44:28,YZ,None,
,,,,,,practice,0,1,1,426,14,Q,1,left,0.5930481950053945,1,0,,,,,,,,,,,,,,,,,,,,,1,,,,,,,,,,,,,,,,,,,,,,,,,,,,,,,,,,,,,,,,,,,,,,97,152404,22,Female,1,2024/03/18_08:44:28,YZ,None,
,,,,,,practice,0,1,1,426,15,V,0,right,0.47931175300618634,1,0,,,,,,,,,,,,,,,,,,,,,1,,,,,,,,,,,,,,,,,,,,,,,,,,,,,,,,,,,,,,,,,,,,,,97,152404,22,Female,1,2024/03/18_08:44:28,YZ,None,
,,,,,,practice,0,1,1,426,16,C,0,right,0.3644310609961394,1,0,,,,,,,,,,,,,,,,,,,,,1,,,,,,,,,,,,,,,,,,,,,,,,,,,,,,,,,,,,,,,,,,,,,,97,152404,22,Female,1,2024/03/18_08:44:28,YZ,None,
,,,,,,practice,0,1,1,426,17,C,1,left,0.42046840602415614,1,0,,,,,,,,,,,,,,,,,,,,,1,,,,,,,,,,,,,,,,,,,,,,,,,,,,,,,,,,,,,,,,,,,,,,97,152404,22,Female,1,2024/03/18_08:44:28,YZ,None,
,,,,,,practice,0,1,1,426,,,,,,,,0.95,0.8,0.0,1.0,0.0,1.0,0.5636415917046286,4,0,0,0,0,12,16,5,12,0,,,,1,,,,,,,,,,,,,,,,,,,,,,,,,,,,,,,,,,,,,,,,,,,,,,97,152404,22,Female,1,2024/03/18_08:44:28,YZ,None,
,,,,,,practice,0,11,1,426,1,X,0,right,1.0973844020045362,1,0,,,,,,,,,,,,,,,,,,,,,1,,,,,,,,,,,,,,,,,,,,,,,,,,,,,,,,,,,,,,,,,,,,,,97,152404,22,Female,1,2024/03/18_08:44:28,YZ,None,
,,,,,,practice,0,11,1,426,2,S,0,right,0.7602956920163706,1,0,,,,,,,,,,,,,,,,,,,,,1,,,,,,,,,,,,,,,,,,,,,,,,,,,,,,,,,,,,,,,,,,,,,,97,152404,22,Female,1,2024/03/18_08:44:28,YZ,None,
,,,,,,practice,0,11,1,426,3,X,0,right,0.8450598380004521,1,0,,,,,,,,,,,,,,,,,,,,,1,,,,,,,,,,,,,,,,,,,,,,,,,,,,,,,,,,,,,,,,,,,,,,97,152404,22,Female,1,2024/03/18_08:44:28,YZ,None,
,,,,,,practice,0,11,1,426,4,X,1,left,0.6605458900157828,1,0,,,,,,,,,,,,,,,,,,,,,1,,,,,,,,,,,,,,,,,,,,,,,,,,,,,,,,,,,,,,,,,,,,,,97,152404,22,Female,1,2024/03/18_08:44:28,YZ,None,
,,,,,,practice,0,11,1,426,5,N,0,right,0.5652227200043853,1,0,,,,,,,,,,,,,,,,,,,,,1,,,,,,,,,,,,,,,,,,,,,,,,,,,,,,,,,,,,,,,,,,,,,,97,152404,22,Female,1,2024/03/18_08:44:28,YZ,None,
,,,,,,practice,0,11,1,426,6,N,1,left,0.6255895089998376,1,0,,,,,,,,,,,,,,,,,,,,,1,,,,,,,,,,,,,,,,,,,,,,,,,,,,,,,,,,,,,,,,,,,,,,97,152404,22,Female,1,2024/03/18_08:44:28,YZ,None,
,,,,,,practice,0,11,1,426,7,V,0,right,0.5759311100118794,1,0,,,,,,,,,,,,,,,,,,,,,1,,,,,,,,,,,,,,,,,,,,,,,,,,,,,,,,,,,,,,,,,,,,,,97,152404,22,Female,1,2024/03/18_08:44:28,YZ,None,
,,,,,,practice,0,11,1,426,8,F,0,right,0.6234700139902998,1,0,,,,,,,,,,,,,,,,,,,,,1,,,,,,,,,,,,,,,,,,,,,,,,,,,,,,,,,,,,,,,,,,,,,,97,152404,22,Female,1,2024/03/18_08:44:28,YZ,None,
,,,,,,practice,0,11,1,426,9,F,1,left,0.45574261600268073,1,0,,,,,,,,,,,,,,,,,,,,,1,,,,,,,,,,,,,,,,,,,,,,,,,,,,,,,,,,,,,,,,,,,,,,97,152404,22,Female,1,2024/03/18_08:44:28,YZ,None,
,,,,,,practice,0,11,1,426,10,C,0,right,0.4075599850038998,1,0,,,,,,,,,,,,,,,,,,,,,1,,,,,,,,,,,,,,,,,,,,,,,,,,,,,,,,,,,,,,,,,,,,,,97,152404,22,Female,1,2024/03/18_08:44:28,YZ,None,
,,,,,,practice,0,11,1,426,11,F,0,right,0.9755585049861111,1,0,,,,,,,,,,,,,,,,,,,,,1,,,,,,,,,,,,,,,,,,,,,,,,,,,,,,,,,,,,,,,,,,,,,,97,152404,22,Female,1,2024/03/18_08:44:28,YZ,None,
,,,,,,practice,0,11,1,426,12,F,1,left,0.6259241710067727,1,0,,,,,,,,,,,,,,,,,,,,,1,,,,,,,,,,,,,,,,,,,,,,,,,,,,,,,,,,,,,,,,,,,,,,97,152404,22,Female,1,2024/03/18_08:44:28,YZ,None,
,,,,,,practice,0,11,1,426,13,X,0,right,0.4448925180186052,1,0,,,,,,,,,,,,,,,,,,,,,1,,,,,,,,,,,,,,,,,,,,,,,,,,,,,,,,,,,,,,,,,,,,,,97,152404,22,Female,1,2024/03/18_08:44:28,YZ,None,
,,,,,,practice,0,11,1,426,14,J,0,right,0.49262429602094926,1,0,,,,,,,,,,,,,,,,,,,,,1,,,,,,,,,,,,,,,,,,,,,,,,,,,,,,,,,,,,,,,,,,,,,,97,152404,22,Female,1,2024/03/18_08:44:28,YZ,None,
,,,,,,practice,0,11,1,426,15,F,0,right,0.6183026480139233,1,0,,,,,,,,,,,,,,,,,,,,,1,,,,,,,,,,,,,,,,,,,,,,,,,,,,,,,,,,,,,,,,,,,,,,97,152404,22,Female,1,2024/03/18_08:44:28,YZ,None,
,,,,,,practice,0,11,1,426,16,C,0,right,0.6236234569805674,1,0,,,,,,,,,,,,,,,,,,,,,1,,,,,,,,,,,,,,,,,,,,,,,,,,,,,,,,,,,,,,,,,,,,,,97,152404,22,Female,1,2024/03/18_08:44:28,YZ,None,
,,,,,,practice,0,11,1,426,17,C,1,left,0.520139203988947,1,0,,,,,,,,,,,,,,,,,,,,,1,,,,,,,,,,,,,,,,,,,,,,,,,,,,,,,,,,,,,,,,,,,,,,97,152404,22,Female,1,2024/03/18_08:44:28,YZ,None,
,,,,,,practice,0,11,1,426,,,,,,,,1.0,1.0,0.0,1.0,0.0,1.0,0.6422274455921176,5,0,0,0,0,12,17,5,12,0,,,,1,,,,,,,,,,,,,,,,,,,,,,,,,,,,,,,,,,,,,,,,,,,,,,97,152404,22,Female,1,2024/03/18_08:44:28,YZ,None,
1,./instructions/inst_prac_3/Slide37.png,right,5.8266172210278455,667.2856926049863,673.1123098260141,,,,,,,,,,,,,,,,,,,,,,,,,,,,,,,,,1,,,,,,,,,,,,,,,,,,,,,,,,,,,,,,,,,,,,,,,,,,,,,,97,152404,22,Female,1,2024/03/18_08:44:28,YZ,None,
2,./instructions/inst_prac_3/Slide38.png,right,4.507786928996211,673.1404590230086,677.6482459520048,,,,,,,,,,,,,,,,,,,,,,,,,,,,,,,,,1,,,,,,,,,,,,,,,,,,,,,,,,,,,,,,,,,,,,,,,,,,,,,,97,152404,22,Female,1,2024/03/18_08:44:28,YZ,None,
3,./instructions/inst_prac_3/Slide39.png,right,0.6981178290152457,677.6942178189929,678.3923356480082,,,,,,,,,,,,,,,,,,,,,,,,,,,,,,,,,1,,,,,,,,,,,,,,,,,,,,,,,,,,,,,,,,,,,,,,,,,,,,,,97,152404,22,Female,1,2024/03/18_08:44:28,YZ,None,
4,./instructions/inst_prac_3/Slide40.png,right,2.4657179820060264,678.4225955540023,680.8883135360084,,,,,,,,,,,,,,,,,,,,,,,,,,,,,,,,,1,,,,,,,,,,,,,,,,,,,,,,,,,,,,,,,,,,,,,,,,,,,,,,97,152404,22,Female,1,2024/03/18_08:44:28,YZ,None,
5,./instructions/inst_prac_3/Slide41.png,right,11.151674068009015,680.9127405179897,692.0644145859987,,,,,,,,,,,,,,,,,,,,,,,,,,,,,,,,,1,,,,,,,,,,,,,,,,,,,,,,,,,,,,,,,,,,,,,,,,,,,,,,97,152404,22,Female,1,2024/03/18_08:44:28,YZ,None,
6,./instructions/inst_prac_3/Slide42.png,right,1.3798284239892382,692.1325694250118,693.512397849001,,,,,,,,,,,,,,,,,,,,,,,,,,,,,,,,,1,,,,,,,,,,,,,,,,,,,,,,,,,,,,,,,,,,,,,,,,,,,,,,97,152404,22,Female,1,2024/03/18_08:44:28,YZ,None,
7,./instructions/inst_prac_3/Slide43.png,right,2.7328932940145023,693.5394899749954,696.2723832690099,,,,,,,,,,,,,,,,,,,,,,,,,,,,,,,,,1,,,,,,,,,,,,,,,,,,,,,,,,,,,,,,,,,,,,,,,,,,,,,,97,152404,22,Female,1,2024/03/18_08:44:28,YZ,None,
8,./instructions/inst_prac_3/Slide44.png,right,0.8496778779954184,696.3026663319906,697.152344209986,,,,,,,,,,,,,,,,,,,,,,,,,,,,,,,,,1,,,,,,,,,,,,,,,,,,,,,,,,,,,,,,,,,,,,,,,,,,,,,,97,152404,22,Female,1,2024/03/18_08:44:28,YZ,None,
,,,,,,practice,0,32,3,788,1,Q,0,right,1.6016697650193237,1,0,,,,,,,,,,,,,,,,,,,,,1,,,,,,,,,,,,,,,,,,,,,,,,,,,,,,,,,,,,,,,,,,,,,,97,152404,22,Female,1,2024/03/18_08:44:28,YZ,None,
,,,,,,practice,0,32,3,788,2,C,0,right,0.5319167519919574,1,0,,,,,,,,,,,,,,,,,,,,,1,,,,,,,,,,,,,,,,,,,,,,,,,,,,,,,,,,,,,,,,,,,,,,97,152404,22,Female,1,2024/03/18_08:44:28,YZ,None,
,,,,,,practice,0,32,3,788,3,N,0,right,0.42781812298926525,1,0,,,,,,,,,,,,,,,,,,,,,1,,,,,,,,,,,,,,,,,,,,,,,,,,,,,,,,,,,,,,,,,,,,,,97,152404,22,Female,1,2024/03/18_08:44:28,YZ,None,
,,,,,,practice,0,32,3,788,4,Q,1,right,0.7161823609785642,0,0,,,,,,,,,,,,,,,,,,,,,1,,,,,,,,,,,,,,,,,,,,,,,,,,,,,,,,,,,,,,,,,,,,,,97,152404,22,Female,1,2024/03/18_08:44:28,YZ,None,
,,,,,,practice,0,32,3,788,5,C,1,left,1.3177364559960552,1,0,,,,,,,,,,,,,,,,,,,,,1,,,,,,,,,,,,,,,,,,,,,,,,,,,,,,,,,,,,,,,,,,,,,,97,152404,22,Female,1,2024/03/18_08:44:28,YZ,None,
,,,,,,practice,0,32,3,788,6,V,0,right,0.7212711269967258,1,0,,,,,,,,,,,,,,,,,,,,,1,,,,,,,,,,,,,,,,,,,,,,,,,,,,,,,,,,,,,,,,,,,,,,97,152404,22,Female,1,2024/03/18_08:44:28,YZ,None,
,,,,,,practice,0,32,3,788,7,S,0,right,1.6090876160014886,1,0,,,,,,,,,,,,,,,,,,,,,1,,,,,,,,,,,,,,,,,,,,,,,,,,,,,,,,,,,,,,,,,,,,,,97,152404,22,Female,1,2024/03/18_08:44:28,YZ,None,
,,,,,,practice,0,32,3,788,8,C,1,left,0.7484309799910989,1,0,,,,,,,,,,,,,,,,,,,,,1,,,,,,,,,,,,,,,,,,,,,,,,,,,,,,,,,,,,,,,,,,,,,,97,152404,22,Female,1,2024/03/18_08:44:28,YZ,None,
,,,,,,practice,0,32,3,788,9,N,0,right,1.0156207169929985,1,0,,,,,,,,,,,,,,,,,,,,,1,,,,,,,,,,,,,,,,,,,,,,,,,,,,,,,,,,,,,,,,,,,,,,97,152404,22,Female,1,2024/03/18_08:44:28,YZ,None,
,,,,,,practice,0,32,3,788,10,S,1,left,0.8160557539958972,1,0,,,,,,,,,,,,,,,,,,,,,1,,,,,,,,,,,,,,,,,,,,,,,,,,,,,,,,,,,,,,,,,,,,,,97,152404,22,Female,1,2024/03/18_08:44:28,YZ,None,
,,,,,,practice,0,32,3,788,11,X,0,right,0.692693812015932,1,0,,,,,,,,,,,,,,,,,,,,,1,,,,,,,,,,,,,,,,,,,,,,,,,,,,,,,,,,,,,,,,,,,,,,97,152404,22,Female,1,2024/03/18_08:44:28,YZ,None,
,,,,,,practice,0,32,3,788,12,Q,0,right,0.6275521159986965,1,0,,,,,,,,,,,,,,,,,,,,,1,,,,,,,,,,,,,,,,,,,,,,,,,,,,,,,,,,,,,,,,,,,,,,97,152404,22,Female,1,2024/03/18_08:44:28,YZ,None,
,,,,,,practice,0,32,3,788,13,V,0,right,0.6245555279892869,1,0,,,,,,,,,,,,,,,,,,,,,1,,,,,,,,,,,,,,,,,,,,,,,,,,,,,,,,,,,,,,,,,,,,,,97,152404,22,Female,1,2024/03/18_08:44:28,YZ,None,
,,,,,,practice,0,32,3,788,,,,,,,,0.9375,0.75,0.0,1.0,0.0,1.0,0.8808147005351762,3,0,0,0,0,9,12,4,9,0,,,,1,,,,,,,,,,,,,,,,,,,,,,,,,,,,,,,,,,,,,,,,,,,,,,97,152404,22,Female,1,2024/03/18_08:44:28,YZ,None,
1,./instructions/inst_prac_3_next/Slide49.png,right,2.9094544159888756,722.8108471200103,725.7203015359992,,,,,,,,,,,,,,,,,,,,,,,,,,,,,,,,,1,,,,,,,,,,,,,,,,,,,,,,,,,,,,,,,,,,,,,,,,,,,,,,97,152404,22,Female,1,2024/03/18_08:44:28,YZ,None,
,,,,,,practice,0,30,3,426,1,X,0,right,1.2791898039868101,1,0,,,,,,,,,,,,,,,,,,,,,1,,,,,,,,,,,,,,,,,,,,,,,,,,,,,,,,,,,,,,,,,,,,,,97,152404,22,Female,1,2024/03/18_08:44:28,YZ,None,
,,,,,,practice,0,30,3,426,2,N,0,right,0.5719528030022047,1,0,,,,,,,,,,,,,,,,,,,,,1,,,,,,,,,,,,,,,,,,,,,,,,,,,,,,,,,,,,,,,,,,,,,,97,152404,22,Female,1,2024/03/18_08:44:28,YZ,None,
,,,,,,practice,0,30,3,426,3,N,0,right,0.7049432100029662,1,0,,,,,,,,,,,,,,,,,,,,,1,,,,,,,,,,,,,,,,,,,,,,,,,,,,,,,,,,,,,,,,,,,,,,97,152404,22,Female,1,2024/03/18_08:44:28,YZ,None,
,,,,,,practice,0,30,3,426,4,X,1,left,0.8246216340048704,1,0,,,,,,,,,,,,,,,,,,,,,1,,,,,,,,,,,,,,,,,,,,,,,,,,,,,,,,,,,,,,,,,,,,,,97,152404,22,Female,1,2024/03/18_08:44:28,YZ,None,
,,,,,,practice,0,30,3,426,5,F,0,right,0.3595987709995825,1,0,,,,,,,,,,,,,,,,,,,,,1,,,,,,,,,,,,,,,,,,,,,,,,,,,,,,,,,,,,,,,,,,,,,,97,152404,22,Female,1,2024/03/18_08:44:28,YZ,None,
,,,,,,practice,0,30,3,426,6,V,0,right,0.4916981930145994,1,0,,,,,,,,,,,,,,,,,,,,,1,,,,,,,,,,,,,,,,,,,,,,,,,,,,,,,,,,,,,,,,,,,,,,97,152404,22,Female,1,2024/03/18_08:44:28,YZ,None,
,,,,,,practice,0,30,3,426,7,Q,0,right,0.6656910800084006,1,0,,,,,,,,,,,,,,,,,,,,,1,,,,,,,,,,,,,,,,,,,,,,,,,,,,,,,,,,,,,,,,,,,,,,97,152404,22,Female,1,2024/03/18_08:44:28,YZ,None,
,,,,,,practice,0,30,3,426,8,Q,0,right,0.9141008559963666,1,0,,,,,,,,,,,,,,,,,,,,,1,,,,,,,,,,,,,,,,,,,,,,,,,,,,,,,,,,,,,,,,,,,,,,97,152404,22,Female,1,2024/03/18_08:44:28,YZ,None,
,,,,,,practice,0,30,3,426,9,V,1,left,0.6485076610115357,1,0,,,,,,,,,,,,,,,,,,,,,1,,,,,,,,,,,,,,,,,,,,,,,,,,,,,,,,,,,,,,,,,,,,,,97,152404,22,Female,1,2024/03/18_08:44:28,YZ,None,
,,,,,,practice,0,30,3,426,10,Q,1,left,0.8605380060034804,1,0,,,,,,,,,,,,,,,,,,,,,1,,,,,,,,,,,,,,,,,,,,,,,,,,,,,,,,,,,,,,,,,,,,,,97,152404,22,Female,1,2024/03/18_08:44:28,YZ,None,
,,,,,,practice,0,30,3,426,11,X,0,right,0.4691662859986536,1,0,,,,,,,,,,,,,,,,,,,,,1,,,,,,,,,,,,,,,,,,,,,,,,,,,,,,,,,,,,,,,,,,,,,,97,152404,22,Female,1,2024/03/18_08:44:28,YZ,None,
,,,,,,practice,0,30,3,426,12,V,1,right,0.504235050000716,0,0,,,,,,,,,,,,,,,,,,,,,1,,,,,,,,,,,,,,,,,,,,,,,,,,,,,,,,,,,,,,,,,,,,,,97,152404,22,Female,1,2024/03/18_08:44:28,YZ,None,
,,,,,,practice,0,30,3,426,13,Q,1,right,0.751980642991839,0,0,,,,,,,,,,,,,,,,,,,,,1,,,,,,,,,,,,,,,,,,,,,,,,,,,,,,,,,,,,,,,,,,,,,,97,152404,22,Female,1,2024/03/18_08:44:28,YZ,None,
,,,,,,practice,0,30,3,426,14,N,0,right,0.5546351159864571,1,0,,,,,,,,,,,,,,,,,,,,,1,,,,,,,,,,,,,,,,,,,,,,,,,,,,,,,,,,,,,,,,,,,,,,97,152404,22,Female,1,2024/03/18_08:44:28,YZ,None,
,,,,,,practice,0,30,3,426,15,S,0,left,0.40485140099190176,0,0,,,,,,,,,,,,,,,,,,,,,1,,,,,,,,,,,,,,,,,,,,,,,,,,,,,,,,,,,,,,,,,,,,,,97,152404,22,Female,1,2024/03/18_08:44:28,YZ,None,
,,,,,,practice,0,30,3,426,16,X,0,right,0.10373705200618133,1,0,,,,,,,,,,,,,,,,,,,,,1,,,,,,,,,,,,,,,,,,,,,,,,,,,,,,,,,,,,,,,,,,,,,,97,152404,22,Female,1,2024/03/18_08:44:28,YZ,None,
,,,,,,practice,0,30,3,426,17,V,0,left,0.2964410240238067,0,0,,,,,,,,,,,,,,,,,,,,,1,,,,,,,,,,,,,,,,,,,,,,,,,,,,,,,,,,,,,,,,,,,,,,97,152404,22,Female,1,2024/03/18_08:44:28,YZ,None,
,,,,,,practice,0,30,3,426,,,,,,,,0.7916666666666667,0.6,0.16666666666666666,0.8333333333333334,0.0,0.8333333333333334,0.6121110935311984,3,2,0,0,0,10,13,5,12,0,,,,1,,,,,,,,,,,,,,,,,,,,,,,,,,,,,,,,,,,,,,,,,,,,,,97,152404,22,Female,1,2024/03/18_08:44:28,YZ,None,
,,,,,,practice,0,13,3,426,1,F,0,right,0.653222424996784,1,0,,,,,,,,,,,,,,,,,,,,,1,,,,,,,,,,,,,,,,,,,,,,,,,,,,,,,,,,,,,,,,,,,,,,97,152404,22,Female,1,2024/03/18_08:44:28,YZ,None,
,,,,,,practice,0,13,3,426,2,J,0,right,0.42338873900007457,1,0,,,,,,,,,,,,,,,,,,,,,1,,,,,,,,,,,,,,,,,,,,,,,,,,,,,,,,,,,,,,,,,,,,,,97,152404,22,Female,1,2024/03/18_08:44:28,YZ,None,
,,,,,,practice,0,13,3,426,3,J,0,right,0.5043474220146891,1,0,,,,,,,,,,,,,,,,,,,,,1,,,,,,,,,,,,,,,,,,,,,,,,,,,,,,,,,,,,,,,,,,,,,,97,152404,22,Female,1,2024/03/18_08:44:28,YZ,None,
,,,,,,practice,0,13,3,426,4,Q,0,right,0.7452556049975101,1,0,,,,,,,,,,,,,,,,,,,,,1,,,,,,,,,,,,,,,,,,,,,,,,,,,,,,,,,,,,,,,,,,,,,,97,152404,22,Female,1,2024/03/18_08:44:28,YZ,None,
,,,,,,practice,0,13,3,426,5,J,1,left,0.9130698710214347,1,0,,,,,,,,,,,,,,,,,,,,,1,,,,,,,,,,,,,,,,,,,,,,,,,,,,,,,,,,,,,,,,,,,,,,97,152404,22,Female,1,2024/03/18_08:44:28,YZ,None,
,,,,,,practice,0,13,3,426,6,C,0,right,1.2359818920085672,1,0,,,,,,,,,,,,,,,,,,,,,1,,,,,,,,,,,,,,,,,,,,,,,,,,,,,,,,,,,,,,,,,,,,,,97,152404,22,Female,1,2024/03/18_08:44:28,YZ,None,
,,,,,,practice,0,13,3,426,7,F,0,right,0.960425846016733,1,0,,,,,,,,,,,,,,,,,,,,,1,,,,,,,,,,,,,,,,,,,,,,,,,,,,,,,,,,,,,,,,,,,,,,97,152404,22,Female,1,2024/03/18_08:44:28,YZ,None,
,,,,,,practice,0,13,3,426,8,J,1,left,0.7220948020112701,1,0,,,,,,,,,,,,,,,,,,,,,1,,,,,,,,,,,,,,,,,,,,,,,,,,,,,,,,,,,,,,,,,,,,,,97,152404,22,Female,1,2024/03/18_08:44:28,YZ,None,
,,,,,,practice,0,13,3,426,9,X,0,right,0.6767311170115136,1,0,,,,,,,,,,,,,,,,,,,,,1,,,,,,,,,,,,,,,,,,,,,,,,,,,,,,,,,,,,,,,,,,,,,,97,152404,22,Female,1,2024/03/18_08:44:28,YZ,None,
,,,,,,practice,0,13,3,426,10,Q,0,right,1.032254775025649,1,0,,,,,,,,,,,,,,,,,,,,,1,,,,,,,,,,,,,,,,,,,,,,,,,,,,,,,,,,,,,,,,,,,,,,97,152404,22,Female,1,2024/03/18_08:44:28,YZ,None,
,,,,,,practice,0,13,3,426,11,J,1,right,1.3214793560036924,0,0,,,,,,,,,,,,,,,,,,,,,1,,,,,,,,,,,,,,,,,,,,,,,,,,,,,,,,,,,,,,,,,,,,,,97,152404,22,Female,1,2024/03/18_08:44:28,YZ,None,
,,,,,,practice,0,13,3,426,12,C,0,right,1.2765864550019614,1,0,,,,,,,,,,,,,,,,,,,,,1,,,,,,,,,,,,,,,,,,,,,,,,,,,,,,,,,,,,,,,,,,,,,,97,152404,22,Female,1,2024/03/18_08:44:28,YZ,None,
,,,,,,practice,0,13,3,426,13,S,0,right,1.292264009010978,1,0,,,,,,,,,,,,,,,,,,,,,1,,,,,,,,,,,,,,,,,,,,,,,,,,,,,,,,,,,,,,,,,,,,,,97,152404,22,Female,1,2024/03/18_08:44:28,YZ,None,
,,,,,,practice,0,13,3,426,14,J,1,left,0.8421802000084426,1,0,,,,,,,,,,,,,,,,,,,,,1,,,,,,,,,,,,,,,,,,,,,,,,,,,,,,,,,,,,,,,,,,,,,,97,152404,22,Female,1,2024/03/18_08:44:28,YZ,None,
,,,,,,practice,0,13,3,426,15,C,1,left,1.156300706003094,1,0,,,,,,,,,,,,,,,,,,,,,1,,,,,,,,,,,,,,,,,,,,,,,,,,,,,,,,,,,,,,,,,,,,,,97,152404,22,Female,1,2024/03/18_08:44:28,YZ,None,
,,,,,,practice,0,13,3,426,16,Q,0,left,1.01570078797522,0,0,,,,,,,,,,,,,,,,,,,,,1,,,,,,,,,,,,,,,,,,,,,,,,,,,,,,,,,,,,,,,,,,,,,,97,152404,22,Female,1,2024/03/18_08:44:28,YZ,None,
,,,,,,practice,0,13,3,426,17,N,0,right,0.7180027909926139,1,0,,,,,,,,,,,,,,,,,,,,,1,,,,,,,,,,,,,,,,,,,,,,,,,,,,,,,,,,,,,,,,,,,,,,97,152404,22,Female,1,2024/03/18_08:44:28,YZ,None,
,,,,,,practice,0,13,3,426,,,,,,,,0.9125000000000001,0.8,0.08333333333333333,0.9166666666666666,0.0,0.9166666666666666,0.911134517594131,4,1,0,0,0,11,15,5,12,0,,,,1,,,,,,,,,,,,,,,,,,,,,,,,,,,,,,,,,,,,,,,,,,,,,,97,152404,22,Female,1,2024/03/18_08:44:28,YZ,None,
1,./instructions/inst_prac_main/Slide51.png,right,2.476901017013006,773.5793785589922,776.0562795760052,,,,,,,,,,,,,,,,,,,,,,,,,,,,,,,,,1,,,,,,,,,,,,,,,,,,,,,,,,,,,,,,,,,,,,,,,,,,,,,,97,152404,22,Female,1,2024/03/18_08:44:28,YZ,None,
2,./instructions/inst_prac_main/Slide52.png,right,19.754075178992935,776.0864413300005,795.8405165089935,,,,,,,,,,,,,,,,,,,,,,,,,,,,,,,,,1,,,,,,,,,,,,,,,,,,,,,,,,,,,,,,,,,,,,,,,,,,,,,,97,152404,22,Female,1,2024/03/18_08:44:28,YZ,None,
1,./instructions/inst_prac_main/Slide53.png,left,4.119644093007082,795.8807312909921,800.0003753839992,,,,,,,,,,,,,,,,,,,,,,,,,,,,,,,,,1,,,,,,,,,,,,,,,,,,,,,,,,,,,,,,,,,,,,,,,,,,,,,,97,152404,22,Female,1,2024/03/18_08:44:28,YZ,None,
0,./instructions/inst_prac_main/Slide52.png,left,0.20057929199538194,800.0242105030047,800.2247897950001,,,,,,,,,,,,,,,,,,,,,,,,,,,,,,,,,1,,,,,,,,,,,,,,,,,,,,,,,,,,,,,,,,,,,,,,,,,,,,,,97,152404,22,Female,1,2024/03/18_08:44:28,YZ,None,
1,./instructions/inst_prac_main/Slide51.png,right,2.067179245990701,800.2451237729983,802.312303018989,,,,,,,,,,,,,,,,,,,,,,,,,,,,,,,,,1,,,,,,,,,,,,,,,,,,,,,,,,,,,,,,,,,,,,,,,,,,,,,,97,152404,22,Female,1,2024/03/18_08:44:28,YZ,None,
2,./instructions/inst_prac_main/Slide52.png,right,4.345740521996049,802.3425267869898,806.6882673089858,,,,,,,,,,,,,,,,,,,,,,,,,,,,,,,,,1,,,,,,,,,,,,,,,,,,,,,,,,,,,,,,,,,,,,,,,,,,,,,,97,152404,22,Female,1,2024/03/18_08:44:28,YZ,None,
1,./instructions/inst_prac_main/Slide53.png,left,13.322906781017082,806.717720924993,820.0406277060101,,,,,,,,,,,,,,,,,,,,,,,,,,,,,,,,,1,,,,,,,,,,,,,,,,,,,,,,,,,,,,,,,,,,,,,,,,,,,,,,97,152404,22,Female,1,2024/03/18_08:44:28,YZ,None,
0,./instructions/inst_prac_main/Slide52.png,left,0.8823431609780528,820.0700975010113,820.9524406619894,,,,,,,,,,,,,,,,,,,,,,,,,,,,,,,,,1,,,,,,,,,,,,,,,,,,,,,,,,,,,,,,,,,,,,,,,,,,,,,,97,152404,22,Female,1,2024/03/18_08:44:28,YZ,None,
1,./instructions/inst_prac_main/Slide51.png,right,1.2768537089868914,820.9714178940048,822.2482716029917,,,,,,,,,,,,,,,,,,,,,,,,,,,,,,,,,1,,,,,,,,,,,,,,,,,,,,,,,,,,,,,,,,,,,,,,,,,,,,,,97,152404,22,Female,1,2024/03/18_08:44:28,YZ,None,
2,./instructions/inst_prac_main/Slide52.png,right,7.899005699000554,822.2773863800103,830.1763920790108,,,,,,,,,,,,,,,,,,,,,,,,,,,,,,,,,1,,,,,,,,,,,,,,,,,,,,,,,,,,,,,,,,,,,,,,,,,,,,,,97,152404,22,Female,1,2024/03/18_08:44:28,YZ,None,
3,./instructions/inst_prac_main/Slide53.png,right,4.556155260012019,830.2041930510022,834.7603483110142,,,,,,,,,,,,,,,,,,,,,,,,,,,,,,,,,1,,,,,,,,,,,,,,,,,,,,,,,,,,,,,,,,,,,,,,,,,,,,,,97,152404,22,Female,1,2024/03/18_08:44:28,YZ,None,
4,./instructions/inst_prac_main/Slide54.png,right,12.609251110989135,834.8070794439991,847.4163305549882,,,,,,,,,,,,,,,,,,,,,,,,,,,,,,,,,1,,,,,,,,,,,,,,,,,,,,,,,,,,,,,,,,,,,,,,,,,,,,,,97,152404,22,Female,1,2024/03/18_08:44:28,YZ,None,
,,,,,,practice_main,0,1,1,426,1,S,0,None,nan,0,1,,,,,,,,,,,,,,,,,,,,,1,,,,,,,,,,,,,,,,,,,,,,,,,,,,,,,,,,,,,,,,,,,,,,97,152404,22,Female,1,2024/03/18_08:44:28,YZ,None,
,,,,,,practice_main,0,1,1,426,2,S,1,right,0.4721080609888304,0,0,,,,,,,,,,,,,,,,,,,,,1,,,,,,,,,,,,,,,,,,,,,,,,,,,,,,,,,,,,,,,,,,,,,,97,152404,22,Female,1,2024/03/18_08:44:28,YZ,None,
,,,,,,practice_main,0,1,1,426,3,J,0,right,0.6317193239810877,1,0,,,,,,,,,,,,,,,,,,,,,1,,,,,,,,,,,,,,,,,,,,,,,,,,,,,,,,,,,,,,,,,,,,,,97,152404,22,Female,1,2024/03/18_08:44:28,YZ,None,
,,,,,,practice_main,0,1,1,426,4,N,0,right,0.5319231720059179,1,0,,,,,,,,,,,,,,,,,,,,,1,,,,,,,,,,,,,,,,,,,,,,,,,,,,,,,,,,,,,,,,,,,,,,97,152404,22,Female,1,2024/03/18_08:44:28,YZ,None,
,,,,,,practice_main,0,1,1,426,5,S,0,right,0.5743134719959926,1,0,,,,,,,,,,,,,,,,,,,,,1,,,,,,,,,,,,,,,,,,,,,,,,,,,,,,,,,,,,,,,,,,,,,,97,152404,22,Female,1,2024/03/18_08:44:28,YZ,None,
,,,,,,practice_main,0,1,1,426,6,S,1,left,0.6936379589897115,1,0,,,,,,,,,,,,,,,,,,,,,1,,,,,,,,,,,,,,,,,,,,,,,,,,,,,,,,,,,,,,,,,,,,,,97,152404,22,Female,1,2024/03/18_08:44:28,YZ,None,
,,,,,,practice_main,0,1,1,426,7,F,0,right,0.3327497309946921,1,0,,,,,,,,,,,,,,,,,,,,,1,,,,,,,,,,,,,,,,,,,,,,,,,,,,,,,,,,,,,,,,,,,,,,97,152404,22,Female,1,2024/03/18_08:44:28,YZ,None,
,,,,,,practice_main,0,1,1,426,8,J,0,right,0.4487804919772316,1,0,,,,,,,,,,,,,,,,,,,,,1,,,,,,,,,,,,,,,,,,,,,,,,,,,,,,,,,,,,,,,,,,,,,,97,152404,22,Female,1,2024/03/18_08:44:28,YZ,None,
,,,,,,practice_main,0,1,1,426,9,J,1,left,0.5476425439992454,1,0,,,,,,,,,,,,,,,,,,,,,1,,,,,,,,,,,,,,,,,,,,,,,,,,,,,,,,,,,,,,,,,,,,,,97,152404,22,Female,1,2024/03/18_08:44:28,YZ,None,
,,,,,,practice_main,0,1,1,426,10,S,0,right,0.3500527290161699,1,0,,,,,,,,,,,,,,,,,,,,,1,,,,,,,,,,,,,,,,,,,,,,,,,,,,,,,,,,,,,,,,,,,,,,97,152404,22,Female,1,2024/03/18_08:44:28,YZ,None,
,,,,,,practice_main,0,1,1,426,11,Q,0,right,0.39970746700419113,1,0,,,,,,,,,,,,,,,,,,,,,1,,,,,,,,,,,,,,,,,,,,,,,,,,,,,,,,,,,,,,,,,,,,,,97,152404,22,Female,1,2024/03/18_08:44:28,YZ,None,
,,,,,,practice_main,0,1,1,426,12,N,0,right,0.46834915401996113,1,0,,,,,,,,,,,,,,,,,,,,,1,,,,,,,,,,,,,,,,,,,,,,,,,,,,,,,,,,,,,,,,,,,,,,97,152404,22,Female,1,2024/03/18_08:44:28,YZ,None,
,,,,,,practice_main,0,1,1,426,13,Q,0,right,0.7283894070133101,1,0,,,,,,,,,,,,,,,,,,,,,1,,,,,,,,,,,,,,,,,,,,,,,,,,,,,,,,,,,,,,,,,,,,,,97,152404,22,Female,1,2024/03/18_08:44:28,YZ,None,
,,,,,,practice_main,0,1,1,426,14,Q,1,right,0.37245981401065364,0,0,,,,,,,,,,,,,,,,,,,,,1,,,,,,,,,,,,,,,,,,,,,,,,,,,,,,,,,,,,,,,,,,,,,,97,152404,22,Female,1,2024/03/18_08:44:28,YZ,None,
,,,,,,practice_main,0,1,1,426,15,V,0,right,0.3958469899953343,1,0,,,,,,,,,,,,,,,,,,,,,1,,,,,,,,,,,,,,,,,,,,,,,,,,,,,,,,,,,,,,,,,,,,,,97,152404,22,Female,1,2024/03/18_08:44:28,YZ,None,
,,,,,,practice_main,0,1,1,426,16,C,0,right,0.4419951550080441,1,0,,,,,,,,,,,,,,,,,,,,,1,,,,,,,,,,,,,,,,,,,,,,,,,,,,,,,,,,,,,,,,,,,,,,97,152404,22,Female,1,2024/03/18_08:44:28,YZ,None,
,,,,,,practice_main,0,1,1,426,17,C,1,left,0.3313598539971281,1,0,,,,,,,,,,,,,,,,,,,,,1,,,,,,,,,,,,,,,,,,,,,,,,,,,,,,,,,,,,,,,,,,,,,,97,152404,22,Female,1,2024/03/18_08:44:28,YZ,None,
,,,,,,practice_main,0,1,1,426,,,,,,,,0.9,0.6,0.0,1.0,0.058823529411764705,0.9411764705882353,0.48256470781234384,3,0,0,1,1,11,14,5,12,0,,,,1,,,,,,,,,,,,,,,,,,,,,,,,,,,,,,,,,,,,,,,,,,,,,,97,152404,22,Female,1,2024/03/18_08:44:28,YZ,None,
,,,,,240318_110412,PRACTICE,0,1,1,426,,,,,,,,,,,,,,,,,,,,,,,,,,,,1,46,1,1,cue1.png,easy,A,50,2.710513380006887,0,850.5462671660061,853.2825476180005,,,,,,,,,,,,,,,,,,,,,,,,,,,,,,,,,,,97,152404,22,Female,1,2024/03/18_08:44:28,YZ,None,
,,,,,,practice_main,0,2,1,426,1,N,0,right,0.47301765202428214,1,0,,,,,,,,,,,,,,,,,,,,,1,,,,,,,,,,,,,,,,,,,,,,,,,,,,,,,,,,,,,,,,,,,,,,97,152404,22,Female,1,2024/03/18_08:44:28,YZ,None,
,,,,,,practice_main,0,2,1,426,2,X,0,right,0.3550877099914942,1,0,,,,,,,,,,,,,,,,,,,,,1,,,,,,,,,,,,,,,,,,,,,,,,,,,,,,,,,,,,,,,,,,,,,,97,152404,22,Female,1,2024/03/18_08:44:28,YZ,None,
,,,,,,practice_main,0,2,1,426,3,X,1,left,0.32976020002388395,1,0,,,,,,,,,,,,,,,,,,,,,1,,,,,,,,,,,,,,,,,,,,,,,,,,,,,,,,,,,,,,,,,,,,,,97,152404,22,Female,1,2024/03/18_08:44:28,YZ,None,
,,,,,,practice_main,0,2,1,426,4,C,0,right,0.3247479670098983,1,0,,,,,,,,,,,,,,,,,,,,,1,,,,,,,,,,,,,,,,,,,,,,,,,,,,,,,,,,,,,,,,,,,,,,97,152404,22,Female,1,2024/03/18_08:44:28,YZ,None,
,,,,,,practice_main,0,2,1,426,5,J,0,right,0.3488257919962052,1,0,,,,,,,,,,,,,,,,,,,,,1,,,,,,,,,,,,,,,,,,,,,,,,,,,,,,,,,,,,,,,,,,,,,,97,152404,22,Female,1,2024/03/18_08:44:28,YZ,None,
,,,,,,practice_main,0,2,1,426,6,S,0,right,0.5500937410106417,1,0,,,,,,,,,,,,,,,,,,,,,1,,,,,,,,,,,,,,,,,,,,,,,,,,,,,,,,,,,,,,,,,,,,,,97,152404,22,Female,1,2024/03/18_08:44:28,YZ,None,
,,,,,,practice_main,0,2,1,426,7,S,1,left,0.5537589590239804,1,0,,,,,,,,,,,,,,,,,,,,,1,,,,,,,,,,,,,,,,,,,,,,,,,,,,,,,,,,,,,,,,,,,,,,97,152404,22,Female,1,2024/03/18_08:44:28,YZ,None,
,,,,,,practice_main,0,2,1,426,8,X,0,right,0.2852162689960096,1,0,,,,,,,,,,,,,,,,,,,,,1,,,,,,,,,,,,,,,,,,,,,,,,,,,,,,,,,,,,,,,,,,,,,,97,152404,22,Female,1,2024/03/18_08:44:28,YZ,None,
,,,,,,practice_main,0,2,1,426,9,J,0,right,0.3050712530093733,1,0,,,,,,,,,,,,,,,,,,,,,1,,,,,,,,,,,,,,,,,,,,,,,,,,,,,,,,,,,,,,,,,,,,,,97,152404,22,Female,1,2024/03/18_08:44:28,YZ,None,
,,,,,,practice_main,0,2,1,426,10,J,1,left,0.4555583340115845,1,0,,,,,,,,,,,,,,,,,,,,,1,,,,,,,,,,,,,,,,,,,,,,,,,,,,,,,,,,,,,,,,,,,,,,97,152404,22,Female,1,2024/03/18_08:44:28,YZ,None,
,,,,,,practice_main,0,2,1,426,11,F,0,right,0.3114010189892724,1,0,,,,,,,,,,,,,,,,,,,,,1,,,,,,,,,,,,,,,,,,,,,,,,,,,,,,,,,,,,,,,,,,,,,,97,152404,22,Female,1,2024/03/18_08:44:28,YZ,None,
,,,,,,practice_main,0,2,1,426,12,F,1,right,0.27669543999945745,0,0,,,,,,,,,,,,,,,,,,,,,1,,,,,,,,,,,,,,,,,,,,,,,,,,,,,,,,,,,,,,,,,,,,,,97,152404,22,Female,1,2024/03/18_08:44:28,YZ,None,
,,,,,,practice_main,0,2,1,426,13,S,0,right,0.2765586349996738,1,0,,,,,,,,,,,,,,,,,,,,,1,,,,,,,,,,,,,,,,,,,,,,,,,,,,,,,,,,,,,,,,,,,,,,97,152404,22,Female,1,2024/03/18_08:44:28,YZ,None,
,,,,,,practice_main,0,2,1,426,14,N,0,right,0.43392406799830496,1,0,,,,,,,,,,,,,,,,,,,,,1,,,,,,,,,,,,,,,,,,,,,,,,,,,,,,,,,,,,,,,,,,,,,,97,152404,22,Female,1,2024/03/18_08:44:28,YZ,None,
,,,,,,practice_main,0,2,1,426,15,N,1,left,0.28767898699152283,1,0,,,,,,,,,,,,,,,,,,,,,1,,,,,,,,,,,,,,,,,,,,,,,,,,,,,,,,,,,,,,,,,,,,,,97,152404,22,Female,1,2024/03/18_08:44:28,YZ,None,
,,,,,,practice_main,0,2,1,426,16,V,0,right,0.29639307101024315,1,0,,,,,,,,,,,,,,,,,,,,,1,,,,,,,,,,,,,,,,,,,,,,,,,,,,,,,,,,,,,,,,,,,,,,97,152404,22,Female,1,2024/03/18_08:44:28,YZ,None,
,,,,,,practice_main,0,2,1,426,17,S,0,right,0.3851760549878236,1,0,,,,,,,,,,,,,,,,,,,,,1,,,,,,,,,,,,,,,,,,,,,,,,,,,,,,,,,,,,,,,,,,,,,,97,152404,22,Female,1,2024/03/18_08:44:28,YZ,None,
,,,,,,practice_main,0,2,1,426,,,,,,,,0.95,0.8,0.0,1.0,0.0,1.0,0.36758618541609717,4,0,0,0,0,12,16,5,12,0,,,,1,,,,,,,,,,,,,,,,,,,,,,,,,,,,,,,,,,,,,,,,,,,,,,97,152404,22,Female,1,2024/03/18_08:44:28,YZ,None,
,,,,,240318_110438,PRACTICE,0,2,1,426,,,,,,,,,,,,,,,,,,,,,,,,,,,,1,41,2,2,cue1.png,easy,A,50,1.295673329004785,0,880.0944277420058,881.4020182180102,,,,,,,,,,,,,,,,,,,,,,,,,,,,,,,,,,,97,152404,22,Female,1,2024/03/18_08:44:28,YZ,None,
,,,,,,practice_main,0,3,3,426,1,V,0,right,0.6643979870132171,1,0,,,,,,,,,,,,,,,,,,,,,1,,,,,,,,,,,,,,,,,,,,,,,,,,,,,,,,,,,,,,,,,,,,,,97,152404,22,Female,1,2024/03/18_08:44:28,YZ,None,
,,,,,,practice_main,0,3,3,426,2,Q,0,right,0.9744752899860032,1,0,,,,,,,,,,,,,,,,,,,,,1,,,,,,,,,,,,,,,,,,,,,,,,,,,,,,,,,,,,,,,,,,,,,,97,152404,22,Female,1,2024/03/18_08:44:28,YZ,None,
,,,,,,practice_main,0,3,3,426,3,F,0,right,0.36759624900878407,1,0,,,,,,,,,,,,,,,,,,,,,1,,,,,,,,,,,,,,,,,,,,,,,,,,,,,,,,,,,,,,,,,,,,,,97,152404,22,Female,1,2024/03/18_08:44:28,YZ,None,
,,,,,,practice_main,0,3,3,426,4,F,0,right,0.6962314440170303,1,0,,,,,,,,,,,,,,,,,,,,,1,,,,,,,,,,,,,,,,,,,,,,,,,,,,,,,,,,,,,,,,,,,,,,97,152404,22,Female,1,2024/03/18_08:44:28,YZ,None,
,,,,,,practice_main,0,3,3,426,5,Q,1,right,0.4406287409947254,0,0,,,,,,,,,,,,,,,,,,,,,1,,,,,,,,,,,,,,,,,,,,,,,,,,,,,,,,,,,,,,,,,,,,,,97,152404,22,Female,1,2024/03/18_08:44:28,YZ,None,
,,,,,,practice_main,0,3,3,426,6,V,0,left,0.6411015590128954,0,0,,,,,,,,,,,,,,,,,,,,,1,,,,,,,,,,,,,,,,,,,,,,,,,,,,,,,,,,,,,,,,,,,,,,97,152404,22,Female,1,2024/03/18_08:44:28,YZ,None,
,,,,,,practice_main,0,3,3,426,7,N,0,right,0.2738687559904065,1,0,,,,,,,,,,,,,,,,,,,,,1,,,,,,,,,,,,,,,,,,,,,,,,,,,,,,,,,,,,,,,,,,,,,,97,152404,22,Female,1,2024/03/18_08:44:28,YZ,None,
,,,,,,practice_main,0,3,3,426,8,Q,1,right,0.3085469090146944,0,0,,,,,,,,,,,,,,,,,,,,,1,,,,,,,,,,,,,,,,,,,,,,,,,,,,,,,,,,,,,,,,,,,,,,97,152404,22,Female,1,2024/03/18_08:44:28,YZ,None,
,,,,,,practice_main,0,3,3,426,9,V,1,right,0.46669441999983974,0,0,,,,,,,,,,,,,,,,,,,,,1,,,,,,,,,,,,,,,,,,,,,,,,,,,,,,,,,,,,,,,,,,,,,,97,152404,22,Female,1,2024/03/18_08:44:28,YZ,None,
,,,,,,practice_main,0,3,3,426,10,F,0,left,0.2565286149911117,0,0,,,,,,,,,,,,,,,,,,,,,1,,,,,,,,,,,,,,,,,,,,,,,,,,,,,,,,,,,,,,,,,,,,,,97,152404,22,Female,1,2024/03/18_08:44:28,YZ,None,
,,,,,,practice_main,0,3,3,426,11,N,0,right,0.22449575900100172,1,0,,,,,,,,,,,,,,,,,,,,,1,,,,,,,,,,,,,,,,,,,,,,,,,,,,,,,,,,,,,,,,,,,,,,97,152404,22,Female,1,2024/03/18_08:44:28,YZ,None,
,,,,,,practice_main,0,3,3,426,12,V,1,right,0.26387222201447,0,0,,,,,,,,,,,,,,,,,,,,,1,,,,,,,,,,,,,,,,,,,,,,,,,,,,,,,,,,,,,,,,,,,,,,97,152404,22,Female,1,2024/03/18_08:44:28,YZ,None,
,,,,,,practice_main,0,3,3,426,13,Q,0,right,0.28463368900702335,1,0,,,,,,,,,,,,,,,,,,,,,1,,,,,,,,,,,,,,,,,,,,,,,,,,,,,,,,,,,,,,,,,,,,,,97,152404,22,Female,1,2024/03/18_08:44:28,YZ,None,
,,,,,,practice_main,0,3,3,426,14,S,0,left,0.13690495601622388,0,0,,,,,,,,,,,,,,,,,,,,,1,,,,,,,,,,,,,,,,,,,,,,,,,,,,,,,,,,,,,,,,,,,,,,97,152404,22,Female,1,2024/03/18_08:44:28,YZ,None,
,,,,,,practice_main,0,3,3,426,15,V,1,right,0.22799156000837684,0,0,,,,,,,,,,,,,,,,,,,,,1,,,,,,,,,,,,,,,,,,,,,,,,,,,,,,,,,,,,,,,,,,,,,,97,152404,22,Female,1,2024/03/18_08:44:28,YZ,None,
,,,,,,practice_main,0,3,3,426,16,V,0,right,0.3700657970039174,1,0,,,,,,,,,,,,,,,,,,,,,1,,,,,,,,,,,,,,,,,,,,,,,,,,,,,,,,,,,,,,,,,,,,,,97,152404,22,Female,1,2024/03/18_08:44:28,YZ,None,
,,,,,,practice_main,0,3,3,426,17,C,0,right,0.3884755879989825,1,0,,,,,,,,,,,,,,,,,,,,,1,,,,,,,,,,,,,,,,,,,,,,,,,,,,,,,,,,,,,,,,,,,,,,97,152404,22,Female,1,2024/03/18_08:44:28,YZ,None,
,,,,,,practice_main,0,3,3,426,,,,,,,,0.1875,0.0,0.25,0.75,0.0,0.75,0.41097114947521785,0,3,0,0,0,9,9,5,12,0,,,,1,,,,,,,,,,,,,,,,,,,,,,,,,,,,,,,,,,,,,,,,,,,,,,97,152404,22,Female,1,2024/03/18_08:44:28,YZ,None,
,,,,,240318_110504,PRACTICE,0,3,3,426,,,,,,,,,,,,,,,,,,,,,,,,,,,,1,48,3,3,cue2.png,hard,A,48,1.3954414069885388,0,905.7027487060113,907.1180947000103,,,,,,,,,,,,,,,,,,,,,,,,,,,,,,,,,,,97,152404,22,Female,1,2024/03/18_08:44:28,YZ,None,
1,./instructions/inst_prac_end/Slide56.png,right,29.37756437200005,930.6787936520122,960.0563580240123,,,,,,,,,,,,,,,,,,,,,,,,,,,,,,,,,1,,,,,,,,,,,,,,,,,,,,,,,,,,,,,,,,,,,,,,,,,,,,,,97,152404,22,Female,1,2024/03/18_08:44:28,YZ,None,
1,./instructions/inst_test/Slide57.png,right,58.37925289399573,960.1090874760121,1018.4883403700078,,,,,,,,,,,,,,,,,,,,,,,,,,,,,,,,,1,,,,,,,,,,,,,,,,,,,,,,,,,,,,,,,,,,,,,,,,,,,,,,97,152404,22,Female,1,2024/03/18_08:44:28,YZ,None,
,,,,,,test,1,1,1,426,1,F,0,right,0.8749286870006472,1,0,,,,,,,,,,,,,,,,,,,,,1,,,,,,,,,,,,,,,,,,,,,,,,,,,,,,,,,,,,,,,,,,,,,,97,152404,22,Female,1,2024/03/18_08:44:28,YZ,None,
,,,,,,test,1,1,1,426,2,F,1,left,0.5366765159997158,1,0,,,,,,,,,,,,,,,,,,,,,1,,,,,,,,,,,,,,,,,,,,,,,,,,,,,,,,,,,,,,,,,,,,,,97,152404,22,Female,1,2024/03/18_08:44:28,YZ,None,
,,,,,,test,1,1,1,426,3,N,0,right,0.34428774198750034,1,0,,,,,,,,,,,,,,,,,,,,,1,,,,,,,,,,,,,,,,,,,,,,,,,,,,,,,,,,,,,,,,,,,,,,97,152404,22,Female,1,2024/03/18_08:44:28,YZ,None,
,,,,,,test,1,1,1,426,4,C,0,right,0.36676511299447156,1,0,,,,,,,,,,,,,,,,,,,,,1,,,,,,,,,,,,,,,,,,,,,,,,,,,,,,,,,,,,,,,,,,,,,,97,152404,22,Female,1,2024/03/18_08:44:28,YZ,None,
,,,,,,test,1,1,1,426,5,F,0,right,0.3647224750020541,1,0,,,,,,,,,,,,,,,,,,,,,1,,,,,,,,,,,,,,,,,,,,,,,,,,,,,,,,,,,,,,,,,,,,,,97,152404,22,Female,1,2024/03/18_08:44:28,YZ,None,
,,,,,,test,1,1,1,426,6,X,0,right,0.4554475319746416,1,0,,,,,,,,,,,,,,,,,,,,,1,,,,,,,,,,,,,,,,,,,,,,,,,,,,,,,,,,,,,,,,,,,,,,97,152404,22,Female,1,2024/03/18_08:44:28,YZ,None,
,,,,,,test,1,1,1,426,7,X,1,left,0.3514197089825757,1,0,,,,,,,,,,,,,,,,,,,,,1,,,,,,,,,,,,,,,,,,,,,,,,,,,,,,,,,,,,,,,,,,,,,,97,152404,22,Female,1,2024/03/18_08:44:28,YZ,None,
,,,,,,test,1,1,1,426,8,V,0,right,0.3386555599863641,1,0,,,,,,,,,,,,,,,,,,,,,1,,,,,,,,,,,,,,,,,,,,,,,,,,,,,,,,,,,,,,,,,,,,,,97,152404,22,Female,1,2024/03/18_08:44:28,YZ,None,
