Instruction,Stimulus,Key,RT,START,END,Phase,Block,TrialN,NbackLevel,ISI,LetterN,Letter,Letter_isSame,Letter_Resp,Letter_RT,Letter_Accuracy,Letter_Timeout,Trial_A_measure,Trial_HR,Trial_FAR,Trial_CDR,Trial_MSR,Trial_ACC,Trial_RT,Trial_HitsCount,Trial_FAsCount,Trial_SameNoRespCount,Trial_DiffNoRespCount,Trial_NoRespCount,Trial_CDsCount,Trial_CorrectRespCount,Trial_SameLetterCount,Trial_DiffLetterCount,Trial_InvalidLetterCount,TrialCountCali,CaliEnd_A_measure,ISI_calibrated,Run,TrialIndex,TrialNumber_total,TrialNumber_valid,CueLearning,TrialDemandLearning,CueMapping,OnlineRating,OnlineRatingRT,OnlineRatingTimeOut,CueSTART,RatingSTART,OfflineRatingTimePoint,OfflineRatingQuesIndex,CueFigure,TrialDemand,OfflineRating,OfflineRatingRT,CueStart,OfflineRatingStart,PhaseType,CueLeft,CueDemandLeft,CueRight,CueDemandRight,Choice,ChoiceDemand,TaskDemand,ChoiceRT,ChoiceTimeOut,ChoiceSTART,CueCheck,CueDemandCheck,CorrectAnswer,Answer,AnswerDemand,AnswerRT,AnswerACC,AnswerTimeOut,CheckSTART,DemandRatingQuesIndex,QuesTLX,DemandLevel,DemandRating,DemandRatingRT,QuesStart,PID,SONA,Age,Gender,Run,TIME,EXPERIMENTER,frameRate,
-1,./instructions/inst_begin/Slide2.png,left,12.859113093996712,0.11052387500240002,12.969636968999112,,,,,,,,,,,,,,,,,,,,,,,,,,,,,,,,,1,,,,,,,,,,,,,,,,,,,,,,,,,,,,,,,,,,,,,,,,,,,,,,102,157162,20,Female,1,2024/03/19_10:29:21,YZ,None,
0,./instructions/inst_begin/Slide4.png,right,22.945721434996813,12.99978124700283,35.94550268199964,,,,,,,,,,,,,,,,,,,,,,,,,,,,,,,,,1,,,,,,,,,,,,,,,,,,,,,,,,,,,,,,,,,,,,,,,,,,,,,,102,157162,20,Female,1,2024/03/19_10:29:21,YZ,None,
1,./instructions/inst_begin/Slide2.png,right,8.54645389700454,35.974985565997486,44.521439463002025,,,,,,,,,,,,,,,,,,,,,,,,,,,,,,,,,1,,,,,,,,,,,,,,,,,,,,,,,,,,,,,,,,,,,,,,,,,,,,,,102,157162,20,Female,1,2024/03/19_10:29:21,YZ,None,
2,./instructions/inst_begin/Slide3.png,right,0.20042351000302006,44.55022129399731,44.75064480400033,,,,,,,,,,,,,,,,,,,,,,,,,,,,,,,,,1,,,,,,,,,,,,,,,,,,,,,,,,,,,,,,,,,,,,,,,,,,,,,,102,157162,20,Female,1,2024/03/19_10:29:21,YZ,None,
1,./instructions/inst_begin/Slide4.png,left,2.4687477839979692,44.77312006300053,47.2418678469985,,,,,,,,,,,,,,,,,,,,,,,,,,,,,,,,,1,,,,,,,,,,,,,,,,,,,,,,,,,,,,,,,,,,,,,,,,,,,,,,102,157162,20,Female,1,2024/03/19_10:29:21,YZ,None,
2,./instructions/inst_begin/Slide3.png,right,9.801076078998449,47.264467959001195,57.06554403799964,,,,,,,,,,,,,,,,,,,,,,,,,,,,,,,,,1,,,,,,,,,,,,,,,,,,,,,,,,,,,,,,,,,,,,,,,,,,,,,,102,157162,20,Female,1,2024/03/19_10:29:21,YZ,None,
3,./instructions/inst_begin/Slide4.png,right,10.97959399499814,57.09393796999939,68.07353196499753,,,,,,,,,,,,,,,,,,,,,,,,,,,,,,,,,1,,,,,,,,,,,,,,,,,,,,,,,,,,,,,,,,,,,,,,,,,,,,,,102,157162,20,Female,1,2024/03/19_10:29:21,YZ,None,
1,./instructions/inst_prac_2/Slide6.png,right,21.72680136499548,68.10687497800245,89.83367634299793,,,,,,,,,,,,,,,,,,,,,,,,,,,,,,,,,1,,,,,,,,,,,,,,,,,,,,,,,,,,,,,,,,,,,,,,,,,,,,,,102,157162,20,Female,1,2024/03/19_10:29:21,YZ,None,
2,./instructions/inst_prac_2/Slide7.png,right,24.5065679679974,89.86280409699975,114.36937206499715,,,,,,,,,,,,,,,,,,,,,,,,,,,,,,,,,1,,,,,,,,,,,,,,,,,,,,,,,,,,,,,,,,,,,,,,,,,,,,,,102,157162,20,Female,1,2024/03/19_10:29:21,YZ,None,
3,./instructions/inst_prac_2/Slide8.png,right,21.731096227005764,114.39864011199825,136.129736339004,,,,,,,,,,,,,,,,,,,,,,,,,,,,,,,,,1,,,,,,,,,,,,,,,,,,,,,,,,,,,,,,,,,,,,,,,,,,,,,,102,157162,20,Female,1,2024/03/19_10:29:21,YZ,None,
4,./instructions/inst_prac_2/Slide9.png,right,23.41937009400135,136.158115430997,159.57748552499834,,,,,,,,,,,,,,,,,,,,,,,,,,,,,,,,,1,,,,,,,,,,,,,,,,,,,,,,,,,,,,,,,,,,,,,,,,,,,,,,102,157162,20,Female,1,2024/03/19_10:29:21,YZ,None,
5,./instructions/inst_prac_2/Slide10.png,right,6.650814736000029,159.60678349900263,166.25759823500266,,,,,,,,,,,,,,,,,,,,,,,,,,,,,,,,,1,,,,,,,,,,,,,,,,,,,,,,,,,,,,,,,,,,,,,,,,,,,,,,102,157162,20,Female,1,2024/03/19_10:29:21,YZ,None,
6,./instructions/inst_prac_2/Slide11.png,right,4.442996865000168,166.28654073199868,170.72953759699885,,,,,,,,,,,,,,,,,,,,,,,,,,,,,,,,,1,,,,,,,,,,,,,,,,,,,,,,,,,,,,,,,,,,,,,,,,,,,,,,102,157162,20,Female,1,2024/03/19_10:29:21,YZ,None,
7,./instructions/inst_prac_2/Slide12.png,right,1.7473135749969515,170.75835511000332,172.50566868500027,,,,,,,,,,,,,,,,,,,,,,,,,,,,,,,,,1,,,,,,,,,,,,,,,,,,,,,,,,,,,,,,,,,,,,,,,,,,,,,,102,157162,20,Female,1,2024/03/19_10:29:21,YZ,None,
8,./instructions/inst_prac_2/Slide13.png,right,2.1240791950040148,172.53357175699784,174.65765095200186,,,,,,,,,,,,,,,,,,,,,,,,,,,,,,,,,1,,,,,,,,,,,,,,,,,,,,,,,,,,,,,,,,,,,,,,,,,,,,,,102,157162,20,Female,1,2024/03/19_10:29:21,YZ,None,
9,./instructions/inst_prac_2/Slide14.png,right,21.364463507998153,174.68521086400142,196.04967437199957,,,,,,,,,,,,,,,,,,,,,,,,,,,,,,,,,1,,,,,,,,,,,,,,,,,,,,,,,,,,,,,,,,,,,,,,,,,,,,,,102,157162,20,Female,1,2024/03/19_10:29:21,YZ,None,
10,./instructions/inst_prac_2/Slide15.png,right,23.523037071994622,196.07873741700314,219.60177448899776,,,,,,,,,,,,,,,,,,,,,,,,,,,,,,,,,1,,,,,,,,,,,,,,,,,,,,,,,,,,,,,,,,,,,,,,,,,,,,,,102,157162,20,Female,1,2024/03/19_10:29:21,YZ,None,
,,,,,,practice,0,33,2,2583,1,F,0,left,8.484244054998271,0,0,,,,,,,,,,,,,,,,,,,,,1,,,,,,,,,,,,,,,,,,,,,,,,,,,,,,,,,,,,,,,,,,,,,,102,157162,20,Female,1,2024/03/19_10:29:21,YZ,None,
,,,,,,practice,0,33,2,2583,2,F,0,right,3.120800336000684,1,0,,,,,,,,,,,,,,,,,,,,,1,,,,,,,,,,,,,,,,,,,,,,,,,,,,,,,,,,,,,,,,,,,,,,102,157162,20,Female,1,2024/03/19_10:29:21,YZ,None,
,,,,,,practice,0,33,2,2583,3,C,0,left,4.729826198999945,0,0,,,,,,,,,,,,,,,,,,,,,1,,,,,,,,,,,,,,,,,,,,,,,,,,,,,,,,,,,,,,,,,,,,,,102,157162,20,Female,1,2024/03/19_10:29:21,YZ,None,
,,,,,,practice,0,33,2,2583,4,F,1,right,7.640091560999281,0,0,,,,,,,,,,,,,,,,,,,,,1,,,,,,,,,,,,,,,,,,,,,,,,,,,,,,,,,,,,,,,,,,,,,,102,157162,20,Female,1,2024/03/19_10:29:21,YZ,None,
,,,,,,practice,0,33,2,2583,5,C,1,left,3.9534318429941777,1,0,,,,,,,,,,,,,,,,,,,,,1,,,,,,,,,,,,,,,,,,,,,,,,,,,,,,,,,,,,,,,,,,,,,,102,157162,20,Female,1,2024/03/19_10:29:21,YZ,None,
,,,,,,practice,0,33,2,2583,6,J,0,left,3.2060741880050045,0,0,,,,,,,,,,,,,,,,,,,,,1,,,,,,,,,,,,,,,,,,,,,,,,,,,,,,,,,,,,,,,,,,,,,,102,157162,20,Female,1,2024/03/19_10:29:21,YZ,None,
,,,,,,practice,0,33,2,2583,,,,,,,,0.0625,0.5,0.75,0.25,0.0,0.25,5.189078030332894,1,3,0,0,0,1,2,2,4,0,,,,1,,,,,,,,,,,,,,,,,,,,,,,,,,,,,,,,,,,,,,,,,,,,,,102,157162,20,Female,1,2024/03/19_10:29:21,YZ,None,
1,./instructions/inst_redo_2/Slide18.png,right,52.88491199100099,259.1566073299982,312.0415193209992,,,,,,,,,,,,,,,,,,,,,,,,,,,,,,,,,1,,,,,,,,,,,,,,,,,,,,,,,,,,,,,,,,,,,,,,,,,,,,,,102,157162,20,Female,1,2024/03/19_10:29:21,YZ,None,
,,,,,,practice,0,26,2,2583,1,X,0,right,5.199500222995994,1,0,,,,,,,,,,,,,,,,,,,,,1,,,,,,,,,,,,,,,,,,,,,,,,,,,,,,,,,,,,,,,,,,,,,,102,157162,20,Female,1,2024/03/19_10:29:21,YZ,None,
,,,,,,practice,0,26,2,2583,2,V,0,right,1.3337786210031481,1,0,,,,,,,,,,,,,,,,,,,,,1,,,,,,,,,,,,,,,,,,,,,,,,,,,,,,,,,,,,,,,,,,,,,,102,157162,20,Female,1,2024/03/19_10:29:21,YZ,None,
,,,,,,practice,0,26,2,2583,3,X,1,left,1.296560495000449,1,0,,,,,,,,,,,,,,,,,,,,,1,,,,,,,,,,,,,,,,,,,,,,,,,,,,,,,,,,,,,,,,,,,,,,102,157162,20,Female,1,2024/03/19_10:29:21,YZ,None,
,,,,,,practice,0,26,2,2583,4,C,0,right,0.8670202920038719,1,0,,,,,,,,,,,,,,,,,,,,,1,,,,,,,,,,,,,,,,,,,,,,,,,,,,,,,,,,,,,,,,,,,,,,102,157162,20,Female,1,2024/03/19_10:29:21,YZ,None,
,,,,,,practice,0,26,2,2583,5,X,1,left,0.9721351769985631,1,0,,,,,,,,,,,,,,,,,,,,,1,,,,,,,,,,,,,,,,,,,,,,,,,,,,,,,,,,,,,,,,,,,,,,102,157162,20,Female,1,2024/03/19_10:29:21,YZ,None,
,,,,,,practice,0,26,2,2583,6,V,0,right,2.0408056550004403,1,0,,,,,,,,,,,,,,,,,,,,,1,,,,,,,,,,,,,,,,,,,,,,,,,,,,,,,,,,,,,,,,,,,,,,102,157162,20,Female,1,2024/03/19_10:29:21,YZ,None,
,,,,,,practice,0,26,2,2583,,,,,,,,1.0,1.0,0.0,1.0,0.0,1.0,1.951633410500411,2,0,0,0,0,4,6,2,4,0,,,,1,,,,,,,,,,,,,,,,,,,,,,,,,,,,,,,,,,,,,,,,,,,,,,102,157162,20,Female,1,2024/03/19_10:29:21,YZ,None,
1,./instructions/inst_to_cali/Slide20.png,right,11.060805139000877,331.10073090899823,342.1615360479991,,,,,,,,,,,,,,,,,,,,,,,,,,,,,,,,,1,,,,,,,,,,,,,,,,,,,,,,,,,,,,,,,,,,,,,,,,,,,,,,102,157162,20,Female,1,2024/03/19_10:29:21,YZ,None,
1,./instructions/inst_cali/Slide22.png,right,28.745342777001497,342.1920929120024,370.9374356890039,,,,,,,,,,,,,,,,,,,,,,,,,,,,,,,,,1,,,,,,,,,,,,,,,,,,,,,,,,,,,,,,,,,,,,,,,,,,,,,,102,157162,20,Female,1,2024/03/19_10:29:21,YZ,None,
,,,,,,calibration,0,19,2,583,1,C,0,None,nan,0,1,,,,,,,,,,,,,,,,,,,,,1,,,,,,,,,,,,,,,,,,,,,,,,,,,,,,,,,,,,,,,,,,,,,,102,157162,20,Female,1,2024/03/19_10:29:21,YZ,None,
,,,,,,calibration,0,19,2,583,2,F,0,None,nan,0,1,,,,,,,,,,,,,,,,,,,,,1,,,,,,,,,,,,,,,,,,,,,,,,,,,,,,,,,,,,,,,,,,,,,,102,157162,20,Female,1,2024/03/19_10:29:21,YZ,None,
,,,,,,calibration,0,19,2,583,3,V,0,None,nan,0,1,,,,,,,,,,,,,,,,,,,,,1,,,,,,,,,,,,,,,,,,,,,,,,,,,,,,,,,,,,,,,,,,,,,,102,157162,20,Female,1,2024/03/19_10:29:21,YZ,None,
,,,,,,calibration,0,19,2,583,4,N,0,None,nan,0,1,,,,,,,,,,,,,,,,,,,,,1,,,,,,,,,,,,,,,,,,,,,,,,,,,,,,,,,,,,,,,,,,,,,,102,157162,20,Female,1,2024/03/19_10:29:21,YZ,None,
,,,,,,calibration,0,19,2,583,5,Q,0,None,nan,0,1,,,,,,,,,,,,,,,,,,,,,1,,,,,,,,,,,,,,,,,,,,,,,,,,,,,,,,,,,,,,,,,,,,,,102,157162,20,Female,1,2024/03/19_10:29:21,YZ,None,
,,,,,,calibration,0,19,2,583,6,N,1,None,nan,0,1,,,,,,,,,,,,,,,,,,,,,1,,,,,,,,,,,,,,,,,,,,,,,,,,,,,,,,,,,,,,,,,,,,,,102,157162,20,Female,1,2024/03/19_10:29:21,YZ,None,
,,,,,,calibration,0,19,2,583,7,Q,1,right,0.37127370199596044,0,0,,,,,,,,,,,,,,,,,,,,,1,,,,,,,,,,,,,,,,,,,,,,,,,,,,,,,,,,,,,,,,,,,,,,102,157162,20,Female,1,2024/03/19_10:29:21,YZ,None,
,,,,,,calibration,0,19,2,583,8,S,0,right,nan,0,1,,,,,,,,,,,,,,,,,,,,,1,,,,,,,,,,,,,,,,,,,,,,,,,,,,,,,,,,,,,,,,,,,,,,102,157162,20,Female,1,2024/03/19_10:29:21,YZ,None,
,,,,,,calibration,0,19,2,583,9,X,0,right,nan,0,1,,,,,,,,,,,,,,,,,,,,,1,,,,,,,,,,,,,,,,,,,,,,,,,,,,,,,,,,,,,,,,,,,,,,102,157162,20,Female,1,2024/03/19_10:29:21,YZ,None,
,,,,,,calibration,0,19,2,583,10,V,0,left,0.36105677700106753,0,0,,,,,,,,,,,,,,,,,,,,,1,,,,,,,,,,,,,,,,,,,,,,,,,,,,,,,,,,,,,,,,,,,,,,102,157162,20,Female,1,2024/03/19_10:29:21,YZ,None,
,,,,,,calibration,0,19,2,583,11,F,0,left,nan,0,1,,,,,,,,,,,,,,,,,,,,,1,,,,,,,,,,,,,,,,,,,,,,,,,,,,,,,,,,,,,,,,,,,,,,102,157162,20,Female,1,2024/03/19_10:29:21,YZ,None,
,,,,,,calibration,0,19,2,583,12,V,1,left,0.5240417960012564,1,0,,,,,,,,,,,,,,,,,,,,,1,,,,,,,,,,,,,,,,,,,,,,,,,,,,,,,,,,,,,,,,,,,,,,102,157162,20,Female,1,2024/03/19_10:29:21,YZ,None,
,,,,,,calibration,0,19,2,583,13,C,0,right,0.9730846140009817,1,0,,,,,,,,,,,,,,,,,,,,,1,,,,,,,,,,,,,,,,,,,,,,,,,,,,,,,,,,,,,,,,,,,,,,102,157162,20,Female,1,2024/03/19_10:29:21,YZ,None,
,,,,,,calibration,0,19,2,583,14,V,1,right,0.7847356170022977,0,0,,,,,,,,,,,,,,,,,,,,,1,,,,,,,,,,,,,,,,,,,,,,,,,,,,,,,,,,,,,,,,,,,,,,102,157162,20,Female,1,2024/03/19_10:29:21,YZ,None,
,,,,,,calibration,0,19,2,583,15,N,0,left,0.9746166949989856,0,0,,,,,,,,,,,,,,,,,,,,,1,,,,,,,,,,,,,,,,,,,,,,,,,,,,,,,,,,,,,,,,,,,,,,102,157162,20,Female,1,2024/03/19_10:29:21,YZ,None,
,,,,,,calibration,0,19,2,583,,,,,,,,0.5852272727272727,0.25,0.18181818181818182,0.3333333333333333,0.6,0.21818181818181814,0.6648015335000915,1,2,1,8,9,1,2,4,11,0,,,,1,,,,,,,,,,,,,,,,,,,,,,,,,,,,,,,,,,,,,,,,,,,,,,102,157162,20,Female,1,2024/03/19_10:29:21,YZ,None,
,,,,,,Calibration,0,,2,583,,,,,,,,,,,,,,,,,,,,,,,,,1,,,1,,,,,,,,,,,,,,,,,,,,,,,,,,,,,,,,,,,,,,,,,,,,,,102,157162,20,Female,1,2024/03/19_10:29:21,YZ,None,
,,,,,,calibration,0,14,2,679,1,J,0,None,nan,0,1,,,,,,,,,,,,,,,,,,,,,1,,,,,,,,,,,,,,,,,,,,,,,,,,,,,,,,,,,,,,,,,,,,,,102,157162,20,Female,1,2024/03/19_10:29:21,YZ,None,
,,,,,,calibration,0,14,2,679,2,F,0,right,1.2965356999993674,1,0,,,,,,,,,,,,,,,,,,,,,1,,,,,,,,,,,,,,,,,,,,,,,,,,,,,,,,,,,,,,,,,,,,,,102,157162,20,Female,1,2024/03/19_10:29:21,YZ,None,
,,,,,,calibration,0,14,2,679,3,V,0,left,0.29307826200238196,0,0,,,,,,,,,,,,,,,,,,,,,1,,,,,,,,,,,,,,,,,,,,,,,,,,,,,,,,,,,,,,,,,,,,,,102,157162,20,Female,1,2024/03/19_10:29:21,YZ,None,
,,,,,,calibration,0,14,2,679,4,Q,0,left,0.3772041759948479,0,0,,,,,,,,,,,,,,,,,,,,,1,,,,,,,,,,,,,,,,,,,,,,,,,,,,,,,,,,,,,,,,,,,,,,102,157162,20,Female,1,2024/03/19_10:29:21,YZ,None,
,,,,,,calibration,0,14,2,679,5,N,0,right,0.41995502800273243,1,0,,,,,,,,,,,,,,,,,,,,,1,,,,,,,,,,,,,,,,,,,,,,,,,,,,,,,,,,,,,,,,,,,,,,102,157162,20,Female,1,2024/03/19_10:29:21,YZ,None,
,,,,,,calibration,0,14,2,679,6,Q,1,right,1.0331840840008226,0,0,,,,,,,,,,,,,,,,,,,,,1,,,,,,,,,,,,,,,,,,,,,,,,,,,,,,,,,,,,,,,,,,,,,,102,157162,20,Female,1,2024/03/19_10:29:21,YZ,None,
,,,,,,calibration,0,14,2,679,7,N,1,right,0.9255074390021036,0,0,,,,,,,,,,,,,,,,,,,,,1,,,,,,,,,,,,,,,,,,,,,,,,,,,,,,,,,,,,,,,,,,,,,,102,157162,20,Female,1,2024/03/19_10:29:21,YZ,None,
,,,,,,calibration,0,14,2,679,8,C,0,left,1.011296234006295,0,0,,,,,,,,,,,,,,,,,,,,,1,,,,,,,,,,,,,,,,,,,,,,,,,,,,,,,,,,,,,,,,,,,,,,102,157162,20,Female,1,2024/03/19_10:29:21,YZ,None,
,,,,,,calibration,0,14,2,679,9,S,0,right,0.3075445619979291,1,0,,,,,,,,,,,,,,,,,,,,,1,,,,,,,,,,,,,,,,,,,,,,,,,,,,,,,,,,,,,,,,,,,,,,102,157162,20,Female,1,2024/03/19_10:29:21,YZ,None,
,,,,,,calibration,0,14,2,679,10,C,1,right,0.6304900120012462,0,0,,,,,,,,,,,,,,,,,,,,,1,,,,,,,,,,,,,,,,,,,,,,,,,,,,,,,,,,,,,,,,,,,,,,102,157162,20,Female,1,2024/03/19_10:29:21,YZ,None,
,,,,,,calibration,0,14,2,679,11,X,0,right,0.4023886470022262,1,0,,,,,,,,,,,,,,,,,,,,,1,,,,,,,,,,,,,,,,,,,,,,,,,,,,,,,,,,,,,,,,,,,,,,102,157162,20,Female,1,2024/03/19_10:29:21,YZ,None,
,,,,,,calibration,0,14,2,679,12,Q,0,left,0.5955631879987777,0,0,,,,,,,,,,,,,,,,,,,,,1,,,,,,,,,,,,,,,,,,,,,,,,,,,,,,,,,,,,,,,,,,,,,,102,157162,20,Female,1,2024/03/19_10:29:21,YZ,None,
,,,,,,calibration,0,14,2,679,13,V,0,right,0.6846609659987735,1,0,,,,,,,,,,,,,,,,,,,,,1,,,,,,,,,,,,,,,,,,,,,,,,,,,,,,,,,,,,,,,,,,,,,,102,157162,20,Female,1,2024/03/19_10:29:21,YZ,None,
,,,,,,calibration,0,14,2,679,14,Q,1,left,0.36753558900090866,1,0,,,,,,,,,,,,,,,,,,,,,1,,,,,,,,,,,,,,,,,,,,,,,,,,,,,,,,,,,,,,,,,,,,,,102,157162,20,Female,1,2024/03/19_10:29:21,YZ,None,
,,,,,,calibration,0,14,2,679,,,,,,,,0.056249999999999994,0.25,0.4,0.5555555555555556,0.07142857142857142,0.5285714285714286,0.6419187605391087,1,4,0,1,1,5,6,4,10,0,,,,1,,,,,,,,,,,,,,,,,,,,,,,,,,,,,,,,,,,,,,,,,,,,,,102,157162,20,Female,1,2024/03/19_10:29:21,YZ,None,
,,,,,,Calibration,0,,2,679,,,,,,,,,,,,,,,,,,,,,,,,,2,,,1,,,,,,,,,,,,,,,,,,,,,,,,,,,,,,,,,,,,,,,,,,,,,,102,157162,20,Female,1,2024/03/19_10:29:21,YZ,None,
,,,,,,calibration,0,2,2,788,1,Q,0,None,nan,0,1,,,,,,,,,,,,,,,,,,,,,1,,,,,,,,,,,,,,,,,,,,,,,,,,,,,,,,,,,,,,,,,,,,,,102,157162,20,Female,1,2024/03/19_10:29:21,YZ,None,
,,,,,,calibration,0,2,2,788,2,F,0,None,nan,0,1,,,,,,,,,,,,,,,,,,,,,1,,,,,,,,,,,,,,,,,,,,,,,,,,,,,,,,,,,,,,,,,,,,,,102,157162,20,Female,1,2024/03/19_10:29:21,YZ,None,
,,,,,,calibration,0,2,2,788,3,C,0,left,1.925537130999146,0,0,,,,,,,,,,,,,,,,,,,,,1,,,,,,,,,,,,,,,,,,,,,,,,,,,,,,,,,,,,,,,,,,,,,,102,157162,20,Female,1,2024/03/19_10:29:21,YZ,None,
,,,,,,calibration,0,2,2,788,4,V,0,right,0.654078113999276,1,0,,,,,,,,,,,,,,,,,,,,,1,,,,,,,,,,,,,,,,,,,,,,,,,,,,,,,,,,,,,,,,,,,,,,102,157162,20,Female,1,2024/03/19_10:29:21,YZ,None,
,,,,,,calibration,0,2,2,788,5,J,0,left,1.1727337470001657,0,0,,,,,,,,,,,,,,,,,,,,,1,,,,,,,,,,,,,,,,,,,,,,,,,,,,,,,,,,,,,,,,,,,,,,102,157162,20,Female,1,2024/03/19_10:29:21,YZ,None,
,,,,,,calibration,0,2,2,788,6,V,1,right,1.0079672940046294,0,0,,,,,,,,,,,,,,,,,,,,,1,,,,,,,,,,,,,,,,,,,,,,,,,,,,,,,,,,,,,,,,,,,,,,102,157162,20,Female,1,2024/03/19_10:29:21,YZ,None,
,,,,,,calibration,0,2,2,788,7,C,0,right,1.13544885799638,1,0,,,,,,,,,,,,,,,,,,,,,1,,,,,,,,,,,,,,,,,,,,,,,,,,,,,,,,,,,,,,,,,,,,,,102,157162,20,Female,1,2024/03/19_10:29:21,YZ,None,
,,,,,,calibration,0,2,2,788,8,S,0,left,0.7466169369945419,0,0,,,,,,,,,,,,,,,,,,,,,1,,,,,,,,,,,,,,,,,,,,,,,,,,,,,,,,,,,,,,,,,,,,,,102,157162,20,Female,1,2024/03/19_10:29:21,YZ,None,
,,,,,,calibration,0,2,2,788,9,C,1,left,1.8079596850002417,1,0,,,,,,,,,,,,,,,,,,,,,1,,,,,,,,,,,,,,,,,,,,,,,,,,,,,,,,,,,,,,,,,,,,,,102,157162,20,Female,1,2024/03/19_10:29:21,YZ,None,
,,,,,,calibration,0,2,2,788,10,S,1,right,0.8087340890051564,0,0,,,,,,,,,,,,,,,,,,,,,1,,,,,,,,,,,,,,,,,,,,,,,,,,,,,,,,,,,,,,,,,,,,,,102,157162,20,Female,1,2024/03/19_10:29:21,YZ,None,
,,,,,,calibration,0,2,2,788,11,N,0,left,0.9826882790002855,0,0,,,,,,,,,,,,,,,,,,,,,1,,,,,,,,,,,,,,,,,,,,,,,,,,,,,,,,,,,,,,,,,,,,,,102,157162,20,Female,1,2024/03/19_10:29:21,YZ,None,
,,,,,,calibration,0,2,2,788,12,C,0,left,1.5817675119978958,0,0,,,,,,,,,,,,,,,,,,,,,1,,,,,,,,,,,,,,,,,,,,,,,,,,,,,,,,,,,,,,,,,,,,,,102,157162,20,Female,1,2024/03/19_10:29:21,YZ,None,
,,,,,,calibration,0,2,2,788,13,N,1,right,0.7738556319964118,0,0,,,,,,,,,,,,,,,,,,,,,1,,,,,,,,,,,,,,,,,,,,,,,,,,,,,,,,,,,,,,,,,,,,,,102,157162,20,Female,1,2024/03/19_10:29:21,YZ,None,
,,,,,,calibration,0,2,2,788,,,,,,,,0.10218253968253968,0.25,0.5555555555555556,0.2857142857142857,0.15384615384615385,0.29059829059829057,1.1452170252721936,1,5,0,2,2,2,3,4,9,0,,,,1,,,,,,,,,,,,,,,,,,,,,,,,,,,,,,,,,,,,,,,,,,,,,,102,157162,20,Female,1,2024/03/19_10:29:21,YZ,None,
,,,,,,Calibration,0,,2,788,,,,,,,,,,,,,,,,,,,,,,,,,3,,,1,,,,,,,,,,,,,,,,,,,,,,,,,,,,,,,,,,,,,,,,,,,,,,102,157162,20,Female,1,2024/03/19_10:29:21,YZ,None,
,,,,,,calibration,0,27,2,917,1,V,0,None,nan,0,1,,,,,,,,,,,,,,,,,,,,,1,,,,,,,,,,,,,,,,,,,,,,,,,,,,,,,,,,,,,,,,,,,,,,102,157162,20,Female,1,2024/03/19_10:29:21,YZ,None,
,,,,,,calibration,0,27,2,917,2,V,0,right,0.0,1,0,,,,,,,,,,,,,,,,,,,,,1,,,,,,,,,,,,,,,,,,,,,,,,,,,,,,,,,,,,,,,,,,,,,,102,157162,20,Female,1,2024/03/19_10:29:21,YZ,None,
,,,,,,calibration,0,27,2,917,3,V,1,right,nan,0,1,,,,,,,,,,,,,,,,,,,,,1,,,,,,,,,,,,,,,,,,,,,,,,,,,,,,,,,,,,,,,,,,,,,,102,157162,20,Female,1,2024/03/19_10:29:21,YZ,None,
,,,,,,calibration,0,27,2,917,4,Q,0,left,1.2408642980008153,0,0,,,,,,,,,,,,,,,,,,,,,1,,,,,,,,,,,,,,,,,,,,,,,,,,,,,,,,,,,,,,,,,,,,,,102,157162,20,Female,1,2024/03/19_10:29:21,YZ,None,
,,,,,,calibration,0,27,2,917,5,C,0,left,1.331119923001097,0,0,,,,,,,,,,,,,,,,,,,,,1,,,,,,,,,,,,,,,,,,,,,,,,,,,,,,,,,,,,,,,,,,,,,,102,157162,20,Female,1,2024/03/19_10:29:21,YZ,None,
,,,,,,calibration,0,27,2,917,6,Q,1,right,0.6915749850013526,0,0,,,,,,,,,,,,,,,,,,,,,1,,,,,,,,,,,,,,,,,,,,,,,,,,,,,,,,,,,,,,,,,,,,,,102,157162,20,Female,1,2024/03/19_10:29:21,YZ,None,
,,,,,,calibration,0,27,2,917,7,X,0,left,0.318252785000368,0,0,,,,,,,,,,,,,,,,,,,,,1,,,,,,,,,,,,,,,,,,,,,,,,,,,,,,,,,,,,,,,,,,,,,,102,157162,20,Female,1,2024/03/19_10:29:21,YZ,None,
,,,,,,calibration,0,27,2,917,8,Q,1,left,0.3857565100042848,1,0,,,,,,,,,,,,,,,,,,,,,1,,,,,,,,,,,,,,,,,,,,,,,,,,,,,,,,,,,,,,,,,,,,,,102,157162,20,Female,1,2024/03/19_10:29:21,YZ,None,
,,,,,,calibration,0,27,2,917,9,F,0,right,0.7130170000018552,1,0,,,,,,,,,,,,,,,,,,,,,1,,,,,,,,,,,,,,,,,,,,,,,,,,,,,,,,,,,,,,,,,,,,,,102,157162,20,Female,1,2024/03/19_10:29:21,YZ,None,
,,,,,,calibration,0,27,2,917,10,N,0,left,0.35629631399933714,0,0,,,,,,,,,,,,,,,,,,,,,1,,,,,,,,,,,,,,,,,,,,,,,,,,,,,,,,,,,,,,,,,,,,,,102,157162,20,Female,1,2024/03/19_10:29:21,YZ,None,
,,,,,,calibration,0,27,2,917,11,Q,0,right,0.3808627830003388,1,0,,,,,,,,,,,,,,,,,,,,,1,,,,,,,,,,,,,,,,,,,,,,,,,,,,,,,,,,,,,,,,,,,,,,102,157162,20,Female,1,2024/03/19_10:29:21,YZ,None,
,,,,,,calibration,0,27,2,917,12,N,1,left,0.43446253999718465,1,0,,,,,,,,,,,,,,,,,,,,,1,,,,,,,,,,,,,,,,,,,,,,,,,,,,,,,,,,,,,,,,,,,,,,102,157162,20,Female,1,2024/03/19_10:29:21,YZ,None,
,,,,,,calibration,0,27,2,917,,,,,,,,0.5,0.5,0.5,0.42857142857142855,0.16666666666666666,0.33333333333333337,0.5852207138006633,2,4,1,1,2,3,5,4,8,0,,,,1,,,,,,,,,,,,,,,,,,,,,,,,,,,,,,,,,,,,,,,,,,,,,,102,157162,20,Female,1,2024/03/19_10:29:21,YZ,None,
,,,,,,Calibration,0,,2,917,,,,,,,,,,,,,,,,,,,,,,,,,4,,,1,,,,,,,,,,,,,,,,,,,,,,,,,,,,,,,,,,,,,,,,,,,,,,102,157162,20,Female,1,2024/03/19_10:29:21,YZ,None,
,,,,,,calibration,0,6,2,1068,1,X,0,right,0.9708458040040568,1,0,,,,,,,,,,,,,,,,,,,,,1,,,,,,,,,,,,,,,,,,,,,,,,,,,,,,,,,,,,,,,,,,,,,,102,157162,20,Female,1,2024/03/19_10:29:21,YZ,None,
,,,,,,calibration,0,6,2,1068,2,Q,0,left,1.3647041519943741,0,0,,,,,,,,,,,,,,,,,,,,,1,,,,,,,,,,,,,,,,,,,,,,,,,,,,,,,,,,,,,,,,,,,,,,102,157162,20,Female,1,2024/03/19_10:29:21,YZ,None,
,,,,,,calibration,0,6,2,1068,3,X,1,left,nan,0,1,,,,,,,,,,,,,,,,,,,,,1,,,,,,,,,,,,,,,,,,,,,,,,,,,,,,,,,,,,,,,,,,,,,,102,157162,20,Female,1,2024/03/19_10:29:21,YZ,None,
,,,,,,calibration,0,6,2,1068,4,F,0,left,nan,0,1,,,,,,,,,,,,,,,,,,,,,1,,,,,,,,,,,,,,,,,,,,,,,,,,,,,,,,,,,,,,,,,,,,,,102,157162,20,Female,1,2024/03/19_10:29:21,YZ,None,
,,,,,,calibration,0,6,2,1068,5,C,0,left,nan,0,1,,,,,,,,,,,,,,,,,,,,,1,,,,,,,,,,,,,,,,,,,,,,,,,,,,,,,,,,,,,,,,,,,,,,102,157162,20,Female,1,2024/03/19_10:29:21,YZ,None,
,,,,,,calibration,0,6,2,1068,6,S,0,left,nan,0,1,,,,,,,,,,,,,,,,,,,,,1,,,,,,,,,,,,,,,,,,,,,,,,,,,,,,,,,,,,,,,,,,,,,,102,157162,20,Female,1,2024/03/19_10:29:21,YZ,None,
,,,,,,calibration,0,6,2,1068,7,Q,0,right,0.9083345609979006,1,0,,,,,,,,,,,,,,,,,,,,,1,,,,,,,,,,,,,,,,,,,,,,,,,,,,,,,,,,,,,,,,,,,,,,102,157162,20,Female,1,2024/03/19_10:29:21,YZ,None,
,,,,,,calibration,0,6,2,1068,8,N,0,left,0.13922877800359856,0,0,,,,,,,,,,,,,,,,,,,,,1,,,,,,,,,,,,,,,,,,,,,,,,,,,,,,,,,,,,,,,,,,,,,,102,157162,20,Female,1,2024/03/19_10:29:21,YZ,None,
,,,,,,calibration,0,6,2,1068,9,Q,1,right,0.26791170700016664,0,0,,,,,,,,,,,,,,,,,,,,,1,,,,,,,,,,,,,,,,,,,,,,,,,,,,,,,,,,,,,,,,,,,,,,102,157162,20,Female,1,2024/03/19_10:29:21,YZ,None,
,,,,,,calibration,0,6,2,1068,10,N,1,left,0.1759979039998143,1,0,,,,,,,,,,,,,,,,,,,,,1,,,,,,,,,,,,,,,,,,,,,,,,,,,,,,,,,,,,,,,,,,,,,,102,157162,20,Female,1,2024/03/19_10:29:21,YZ,None,
,,,,,,calibration,0,6,2,1068,11,C,0,right,0.20986590000393335,1,0,,,,,,,,,,,,,,,,,,,,,1,,,,,,,,,,,,,,,,,,,,,,,,,,,,,,,,,,,,,,,,,,,,,,102,157162,20,Female,1,2024/03/19_10:29:21,YZ,None,
,,,,,,calibration,0,6,2,1068,,,,,,,,0.5833333333333334,0.3333333333333333,0.25,0.6,0.36363636363636365,0.38636363636363635,0.5766984008576921,1,2,1,3,4,3,4,3,8,0,,,,1,,,,,,,,,,,,,,,,,,,,,,,,,,,,,,,,,,,,,,,,,,,,,,102,157162,20,Female,1,2024/03/19_10:29:21,YZ,None,
,,,,,,Calibration,0,,2,1068,,,,,,,,,,,,,,,,,,,,,,,,,5,,,1,,,,,,,,,,,,,,,,,,,,,,,,,,,,,,,,,,,,,,,,,,,,,,102,157162,20,Female,1,2024/03/19_10:29:21,YZ,None,
,,,,,,calibration,0,18,2,1250,1,C,0,None,nan,0,1,,,,,,,,,,,,,,,,,,,,,1,,,,,,,,,,,,,,,,,,,,,,,,,,,,,,,,,,,,,,,,,,,,,,102,157162,20,Female,1,2024/03/19_10:29:21,YZ,None,
,,,,,,calibration,0,18,2,1250,2,S,0,left,0.0,0,0,,,,,,,,,,,,,,,,,,,,,1,,,,,,,,,,,,,,,,,,,,,,,,,,,,,,,,,,,,,,,,,,,,,,102,157162,20,Female,1,2024/03/19_10:29:21,YZ,None,
,,,,,,calibration,0,18,2,1250,3,C,1,left,0.3453595570026664,1,0,,,,,,,,,,,,,,,,,,,,,1,,,,,,,,,,,,,,,,,,,,,,,,,,,,,,,,,,,,,,,,,,,,,,102,157162,20,Female,1,2024/03/19_10:29:21,YZ,None,
,,,,,,calibration,0,18,2,1250,4,N,0,right,0.877789202000713,1,0,,,,,,,,,,,,,,,,,,,,,1,,,,,,,,,,,,,,,,,,,,,,,,,,,,,,,,,,,,,,,,,,,,,,102,157162,20,Female,1,2024/03/19_10:29:21,YZ,None,
,,,,,,calibration,0,18,2,1250,5,X,0,left,1.1357562689954648,0,0,,,,,,,,,,,,,,,,,,,,,1,,,,,,,,,,,,,,,,,,,,,,,,,,,,,,,,,,,,,,,,,,,,,,102,157162,20,Female,1,2024/03/19_10:29:21,YZ,None,
,,,,,,calibration,0,18,2,1250,6,N,1,right,0.5697405230021104,0,0,,,,,,,,,,,,,,,,,,,,,1,,,,,,,,,,,,,,,,,,,,,,,,,,,,,,,,,,,,,,,,,,,,,,102,157162,20,Female,1,2024/03/19_10:29:21,YZ,None,
,,,,,,calibration,0,18,2,1250,7,X,1,left,0.7898563519993331,1,0,,,,,,,,,,,,,,,,,,,,,1,,,,,,,,,,,,,,,,,,,,,,,,,,,,,,,,,,,,,,,,,,,,,,102,157162,20,Female,1,2024/03/19_10:29:21,YZ,None,
,,,,,,calibration,0,18,2,1250,8,Q,0,right,0.4240626539976802,1,0,,,,,,,,,,,,,,,,,,,,,1,,,,,,,,,,,,,,,,,,,,,,,,,,,,,,,,,,,,,,,,,,,,,,102,157162,20,Female,1,2024/03/19_10:29:21,YZ,None,
,,,,,,calibration,0,18,2,1250,9,S,0,right,0.41940916999737965,1,0,,,,,,,,,,,,,,,,,,,,,1,,,,,,,,,,,,,,,,,,,,,,,,,,,,,,,,,,,,,,,,,,,,,,102,157162,20,Female,1,2024/03/19_10:29:21,YZ,None,
,,,,,,calibration,0,18,2,1250,10,V,0,left,0.4810562069978914,0,0,,,,,,,,,,,,,,,,,,,,,1,,,,,,,,,,,,,,,,,,,,,,,,,,,,,,,,,,,,,,,,,,,,,,102,157162,20,Female,1,2024/03/19_10:29:21,YZ,None,
,,,,,,calibration,0,18,2,1250,,,,,,,,0.6666666666666666,0.6666666666666666,0.42857142857142855,0.5,0.1,0.4714285714285714,0.5603366593325821,2,3,0,1,1,3,5,3,7,0,,,,1,,,,,,,,,,,,,,,,,,,,,,,,,,,,,,,,,,,,,,,,,,,,,,102,157162,20,Female,1,2024/03/19_10:29:21,YZ,None,
,,,,,,Calibration,0,,2,1250,,,,,,,,,,,,,,,,,,,,,,,,,6,,,1,,,,,,,,,,,,,,,,,,,,,,,,,,,,,,,,,,,,,,,,,,,,,,102,157162,20,Female,1,2024/03/19_10:29:21,YZ,None,
,,,,,,calibration,0,1,2,1472,1,X,0,right,1.460643317004724,1,0,,,,,,,,,,,,,,,,,,,,,1,,,,,,,,,,,,,,,,,,,,,,,,,,,,,,,,,,,,,,,,,,,,,,102,157162,20,Female,1,2024/03/19_10:29:21,YZ,None,
,,,,,,calibration,0,1,2,1472,2,J,0,right,0.674903881001228,1,0,,,,,,,,,,,,,,,,,,,,,1,,,,,,,,,,,,,,,,,,,,,,,,,,,,,,,,,,,,,,,,,,,,,,102,157162,20,Female,1,2024/03/19_10:29:21,YZ,None,
,,,,,,calibration,0,1,2,1472,3,F,0,left,0.5820515680024982,0,0,,,,,,,,,,,,,,,,,,,,,1,,,,,,,,,,,,,,,,,,,,,,,,,,,,,,,,,,,,,,,,,,,,,,102,157162,20,Female,1,2024/03/19_10:29:21,YZ,None,
,,,,,,calibration,0,1,2,1472,4,J,1,right,0.48002664600062417,0,0,,,,,,,,,,,,,,,,,,,,,1,,,,,,,,,,,,,,,,,,,,,,,,,,,,,,,,,,,,,,,,,,,,,,102,157162,20,Female,1,2024/03/19_10:29:21,YZ,None,
,,,,,,calibration,0,1,2,1472,5,V,0,left,0.8690451879956527,0,0,,,,,,,,,,,,,,,,,,,,,1,,,,,,,,,,,,,,,,,,,,,,,,,,,,,,,,,,,,,,,,,,,,,,102,157162,20,Female,1,2024/03/19_10:29:21,YZ,None,
,,,,,,calibration,0,1,2,1472,6,Q,0,right,0.3297978199989302,1,0,,,,,,,,,,,,,,,,,,,,,1,,,,,,,,,,,,,,,,,,,,,,,,,,,,,,,,,,,,,,,,,,,,,,102,157162,20,Female,1,2024/03/19_10:29:21,YZ,None,
,,,,,,calibration,0,1,2,1472,7,S,0,right,1.346606626000721,1,0,,,,,,,,,,,,,,,,,,,,,1,,,,,,,,,,,,,,,,,,,,,,,,,,,,,,,,,,,,,,,,,,,,,,102,157162,20,Female,1,2024/03/19_10:29:21,YZ,None,
,,,,,,calibration,0,1,2,1472,8,Q,1,left,1.0242448190037976,1,0,,,,,,,,,,,,,,,,,,,,,1,,,,,,,,,,,,,,,,,,,,,,,,,,,,,,,,,,,,,,,,,,,,,,102,157162,20,Female,1,2024/03/19_10:29:21,YZ,None,
,,,,,,calibration,0,1,2,1472,9,S,1,right,0.5641089019991341,0,0,,,,,,,,,,,,,,,,,,,,,1,,,,,,,,,,,,,,,,,,,,,,,,,,,,,,,,,,,,,,,,,,,,,,102,157162,20,Female,1,2024/03/19_10:29:21,YZ,None,
,,,,,,calibration,0,1,2,1472,,,,,,,,0.5,0.3333333333333333,0.3333333333333333,0.6666666666666666,0.0,0.6666666666666667,0.8146031963341456,1,2,0,0,0,4,5,3,6,0,,,,1,,,,,,,,,,,,,,,,,,,,,,,,,,,,,,,,,,,,,,,,,,,,,,102,157162,20,Female,1,2024/03/19_10:29:21,YZ,None,
,,,,,,Calibration,0,,2,1472,,,,,,,,,,,,,,,,,,,,,,,,,7,,,1,,,,,,,,,,,,,,,,,,,,,,,,,,,,,,,,,,,,,,,,,,,,,,102,157162,20,Female,1,2024/03/19_10:29:21,YZ,None,
,,,,,,calibration,0,22,2,1750,1,C,0,None,nan,0,1,,,,,,,,,,,,,,,,,,,,,1,,,,,,,,,,,,,,,,,,,,,,,,,,,,,,,,,,,,,,,,,,,,,,102,157162,20,Female,1,2024/03/19_10:29:21,YZ,None,
,,,,,,calibration,0,22,2,1750,2,J,0,None,nan,0,1,,,,,,,,,,,,,,,,,,,,,1,,,,,,,,,,,,,,,,,,,,,,,,,,,,,,,,,,,,,,,,,,,,,,102,157162,20,Female,1,2024/03/19_10:29:21,YZ,None,
,,,,,,calibration,0,22,2,1750,3,Q,0,right,2.743345025999588,1,0,,,,,,,,,,,,,,,,,,,,,1,,,,,,,,,,,,,,,,,,,,,,,,,,,,,,,,,,,,,,,,,,,,,,102,157162,20,Female,1,2024/03/19_10:29:21,YZ,None,
,,,,,,calibration,0,22,2,1750,4,J,1,left,0.3779329719982343,1,0,,,,,,,,,,,,,,,,,,,,,1,,,,,,,,,,,,,,,,,,,,,,,,,,,,,,,,,,,,,,,,,,,,,,102,157162,20,Female,1,2024/03/19_10:29:21,YZ,None,
,,,,,,calibration,0,22,2,1750,5,X,0,right,0.5461200270001427,1,0,,,,,,,,,,,,,,,,,,,,,1,,,,,,,,,,,,,,,,,,,,,,,,,,,,,,,,,,,,,,,,,,,,,,102,157162,20,Female,1,2024/03/19_10:29:21,YZ,None,
,,,,,,calibration,0,22,2,1750,6,F,0,right,0.3299181559996214,1,0,,,,,,,,,,,,,,,,,,,,,1,,,,,,,,,,,,,,,,,,,,,,,,,,,,,,,,,,,,,,,,,,,,,,102,157162,20,Female,1,2024/03/19_10:29:21,YZ,None,
,,,,,,calibration,0,22,2,1750,7,X,1,right,0.32765015599579783,0,0,,,,,,,,,,,,,,,,,,,,,1,,,,,,,,,,,,,,,,,,,,,,,,,,,,,,,,,,,,,,,,,,,,,,102,157162,20,Female,1,2024/03/19_10:29:21,YZ,None,
,,,,,,calibration,0,22,2,1750,8,V,0,left,0.3138097139963065,0,0,,,,,,,,,,,,,,,,,,,,,1,,,,,,,,,,,,,,,,,,,,,,,,,,,,,,,,,,,,,,,,,,,,,,102,157162,20,Female,1,2024/03/19_10:29:21,YZ,None,
,,,,,,calibration,0,22,2,1750,,,,,,,,0.75,0.5,0.16666666666666666,0.75,0.25,0.5833333333333334,0.7731293418316151,1,1,0,2,2,3,4,2,6,0,,,,1,,,,,,,,,,,,,,,,,,,,,,,,,,,,,,,,,,,,,,,,,,,,,,102,157162,20,Female,1,2024/03/19_10:29:21,YZ,None,
,,,,,,Calibration,0,,2,1750,,,,,,,,,,,,,,,,,,,,,,,,,8,,,1,,,,,,,,,,,,,,,,,,,,,,,,,,,,,,,,,,,,,,,,,,,,,,102,157162,20,Female,1,2024/03/19_10:29:21,YZ,None,
,,,,,,calibration,0,18,2,1750,1,Q,0,None,nan,0,1,,,,,,,,,,,,,,,,,,,,,1,,,,,,,,,,,,,,,,,,,,,,,,,,,,,,,,,,,,,,,,,,,,,,102,157162,20,Female,1,2024/03/19_10:29:21,YZ,None,
,,,,,,calibration,0,18,2,1750,2,S,0,left,0.25577129099838203,0,0,,,,,,,,,,,,,,,,,,,,,1,,,,,,,,,,,,,,,,,,,,,,,,,,,,,,,,,,,,,,,,,,,,,,102,157162,20,Female,1,2024/03/19_10:29:21,YZ,None,
,,,,,,calibration,0,18,2,1750,3,X,0,right,0.2882196210048278,1,0,,,,,,,,,,,,,,,,,,,,,1,,,,,,,,,,,,,,,,,,,,,,,,,,,,,,,,,,,,,,,,,,,,,,102,157162,20,Female,1,2024/03/19_10:29:21,YZ,None,
,,,,,,calibration,0,18,2,1750,4,N,0,right,0.4161911560004228,1,0,,,,,,,,,,,,,,,,,,,,,1,,,,,,,,,,,,,,,,,,,,,,,,,,,,,,,,,,,,,,,,,,,,,,102,157162,20,Female,1,2024/03/19_10:29:21,YZ,None,
,,,,,,calibration,0,18,2,1750,5,C,0,right,0.3616020330009633,1,0,,,,,,,,,,,,,,,,,,,,,1,,,,,,,,,,,,,,,,,,,,,,,,,,,,,,,,,,,,,,,,,,,,,,102,157162,20,Female,1,2024/03/19_10:29:21,YZ,None,
,,,,,,calibration,0,18,2,1750,6,S,0,left,0.28163136100192787,0,0,,,,,,,,,,,,,,,,,,,,,1,,,,,,,,,,,,,,,,,,,,,,,,,,,,,,,,,,,,,,,,,,,,,,102,157162,20,Female,1,2024/03/19_10:29:21,YZ,None,
,,,,,,calibration,0,18,2,1750,7,C,1,right,0.4361195909950766,0,0,,,,,,,,,,,,,,,,,,,,,1,,,,,,,,,,,,,,,,,,,,,,,,,,,,,,,,,,,,,,,,,,,,,,102,157162,20,Female,1,2024/03/19_10:29:21,YZ,None,
,,,,,,calibration,0,18,2,1750,8,S,1,right,0.2796544910015655,0,0,,,,,,,,,,,,,,,,,,,,,1,,,,,,,,,,,,,,,,,,,,,,,,,,,,,,,,,,,,,,,,,,,,,,102,157162,20,Female,1,2024/03/19_10:29:21,YZ,None,
,,,,,,calibration,0,18,2,1750,,,,,,,,0.16666666666666669,0.0,0.3333333333333333,0.6,0.125,0.5416666666666667,0.33131279200045227,0,2,0,1,1,3,3,2,6,0,,,,1,,,,,,,,,,,,,,,,,,,,,,,,,,,,,,,,,,,,,,,,,,,,,,102,157162,20,Female,1,2024/03/19_10:29:21,YZ,None,
,,,,,,Calibration,0,,2,1750,,,,,,,,,,,,,,,,,,,,,,,,,9,,,1,,,,,,,,,,,,,,,,,,,,,,,,,,,,,,,,,,,,,,,,,,,,,,102,157162,20,Female,1,2024/03/19_10:29:21,YZ,None,
,,,,,,calibration,0,3,2,2107,1,F,0,left,0.9139685650006868,0,0,,,,,,,,,,,,,,,,,,,,,1,,,,,,,,,,,,,,,,,,,,,,,,,,,,,,,,,,,,,,,,,,,,,,102,157162,20,Female,1,2024/03/19_10:29:21,YZ,None,
,,,,,,calibration,0,3,2,2107,2,S,0,right,0.6744215079961577,1,0,,,,,,,,,,,,,,,,,,,,,1,,,,,,,,,,,,,,,,,,,,,,,,,,,,,,,,,,,,,,,,,,,,,,102,157162,20,Female,1,2024/03/19_10:29:21,YZ,None,
,,,,,,calibration,0,3,2,2107,3,J,0,right,0.35527685200213455,1,0,,,,,,,,,,,,,,,,,,,,,1,,,,,,,,,,,,,,,,,,,,,,,,,,,,,,,,,,,,,,,,,,,,,,102,157162,20,Female,1,2024/03/19_10:29:21,YZ,None,
,,,,,,calibration,0,3,2,2107,4,S,1,right,0.1560328890045639,0,0,,,,,,,,,,,,,,,,,,,,,1,,,,,,,,,,,,,,,,,,,,,,,,,,,,,,,,,,,,,,,,,,,,,,102,157162,20,Female,1,2024/03/19_10:29:21,YZ,None,
,,,,,,calibration,0,3,2,2107,5,J,1,left,0.09675219399650814,1,0,,,,,,,,,,,,,,,,,,,,,1,,,,,,,,,,,,,,,,,,,,,,,,,,,,,,,,,,,,,,,,,,,,,,102,157162,20,Female,1,2024/03/19_10:29:21,YZ,None,
,,,,,,calibration,0,3,2,2107,6,C,0,right,0.10594386400043732,1,0,,,,,,,,,,,,,,,,,,,,,1,,,,,,,,,,,,,,,,,,,,,,,,,,,,,,,,,,,,,,,,,,,,,,102,157162,20,Female,1,2024/03/19_10:29:21,YZ,None,
,,,,,,calibration,0,3,2,2107,7,X,0,right,0.16402962999563897,1,0,,,,,,,,,,,,,,,,,,,,,1,,,,,,,,,,,,,,,,,,,,,,,,,,,,,,,,,,,,,,,,,,,,,,102,157162,20,Female,1,2024/03/19_10:29:21,YZ,None,
,,,,,,calibration,0,3,2,2107,,,,,,,,0.725,0.5,0.2,0.8,0.0,0.8,0.35234650028516107,1,1,0,0,0,4,5,2,5,0,,,,1,,,,,,,,,,,,,,,,,,,,,,,,,,,,,,,,,,,,,,,,,,,,,,102,157162,20,Female,1,2024/03/19_10:29:21,YZ,None,
,,,,,,Calibration,0,,2,2107,,,,,,,,,,,,,,,,,,,,,,,,,10,,,1,,,,,,,,,,,,,,,,,,,,,,,,,,,,,,,,,,,,,,,,,,,,,,102,157162,20,Female,1,2024/03/19_10:29:21,YZ,None,
,,,,,,calibration,0,24,2,2583,1,V,0,None,nan,0,1,,,,,,,,,,,,,,,,,,,,,1,,,,,,,,,,,,,,,,,,,,,,,,,,,,,,,,,,,,,,,,,,,,,,102,157162,20,Female,1,2024/03/19_10:29:21,YZ,None,
,,,,,,calibration,0,24,2,2583,2,X,0,left,1.7928773849998834,0,0,,,,,,,,,,,,,,,,,,,,,1,,,,,,,,,,,,,,,,,,,,,,,,,,,,,,,,,,,,,,,,,,,,,,102,157162,20,Female,1,2024/03/19_10:29:21,YZ,None,
,,,,,,calibration,0,24,2,2583,3,V,1,right,0.5579437870037509,0,0,,,,,,,,,,,,,,,,,,,,,1,,,,,,,,,,,,,,,,,,,,,,,,,,,,,,,,,,,,,,,,,,,,,,102,157162,20,Female,1,2024/03/19_10:29:21,YZ,None,
,,,,,,calibration,0,24,2,2583,4,X,1,right,0.08624741200037533,0,0,,,,,,,,,,,,,,,,,,,,,1,,,,,,,,,,,,,,,,,,,,,,,,,,,,,,,,,,,,,,,,,,,,,,102,157162,20,Female,1,2024/03/19_10:29:21,YZ,None,
,,,,,,calibration,0,24,2,2583,5,N,0,right,0.16734086199721787,1,0,,,,,,,,,,,,,,,,,,,,,1,,,,,,,,,,,,,,,,,,,,,,,,,,,,,,,,,,,,,,,,,,,,,,102,157162,20,Female,1,2024/03/19_10:29:21,YZ,None,
,,,,,,calibration,0,24,2,2583,6,J,0,left,0.4644540869994671,0,0,,,,,,,,,,,,,,,,,,,,,1,,,,,,,,,,,,,,,,,,,,,,,,,,,,,,,,,,,,,,,,,,,,,,102,157162,20,Female,1,2024/03/19_10:29:21,YZ,None,
,,,,,,calibration,0,24,2,2583,,,,,,,,0.125,0.0,0.5,0.3333333333333333,0.16666666666666666,0.33333333333333337,0.6137727066001389,0,2,0,1,1,1,1,2,4,0,,,,1,,,,,,,,,,,,,,,,,,,,,,,,,,,,,,,,,,,,,,,,,,,,,,102,157162,20,Female,1,2024/03/19_10:29:21,YZ,None,
,,,,,,Calibration,0,,2,2583,,,,,,,,,,,,,,,,,,,,,,,,,11,,,1,,,,,,,,,,,,,,,,,,,,,,,,,,,,,,,,,,,,,,,,,,,,,,102,157162,20,Female,1,2024/03/19_10:29:21,YZ,None,
,,,,,,calibration,0,30,2,2583,1,X,0,left,2.950437161998707,0,0,,,,,,,,,,,,,,,,,,,,,1,,,,,,,,,,,,,,,,,,,,,,,,,,,,,,,,,,,,,,,,,,,,,,102,157162,20,Female,1,2024/03/19_10:29:21,YZ,None,
,,,,,,calibration,0,30,2,2583,2,S,0,right,0.6169202519959072,1,0,,,,,,,,,,,,,,,,,,,,,1,,,,,,,,,,,,,,,,,,,,,,,,,,,,,,,,,,,,,,,,,,,,,,102,157162,20,Female,1,2024/03/19_10:29:21,YZ,None,
,,,,,,calibration,0,30,2,2583,3,X,1,left,0.3117525640045642,1,0,,,,,,,,,,,,,,,,,,,,,1,,,,,,,,,,,,,,,,,,,,,,,,,,,,,,,,,,,,,,,,,,,,,,102,157162,20,Female,1,2024/03/19_10:29:21,YZ,None,
,,,,,,calibration,0,30,2,2583,4,N,0,right,0.2311917899933178,1,0,,,,,,,,,,,,,,,,,,,,,1,,,,,,,,,,,,,,,,,,,,,,,,,,,,,,,,,,,,,,,,,,,,,,102,157162,20,Female,1,2024/03/19_10:29:21,YZ,None,
,,,,,,calibration,0,30,2,2583,5,C,0,right,0.22896311699878424,1,0,,,,,,,,,,,,,,,,,,,,,1,,,,,,,,,,,,,,,,,,,,,,,,,,,,,,,,,,,,,,,,,,,,,,102,157162,20,Female,1,2024/03/19_10:29:21,YZ,None,
,,,,,,calibration,0,30,2,2583,6,N,1,left,0.34841214399784803,1,0,,,,,,,,,,,,,,,,,,,,,1,,,,,,,,,,,,,,,,,,,,,,,,,,,,,,,,,,,,,,,,,,,,,,102,157162,20,Female,1,2024/03/19_10:29:21,YZ,None,
,,,,,,calibration,0,30,2,2583,,,,,,,,0.9375,1.0,0.25,0.75,0.0,0.75,0.7812795048315214,2,1,0,0,0,3,5,2,4,0,,,,1,,,,,,,,,,,,,,,,,,,,,,,,,,,,,,,,,,,,,,,,,,,,,,102,157162,20,Female,1,2024/03/19_10:29:21,YZ,None,
,,,,,,Calibration,0,,2,2583,,,,,,,,,,,,,,,,,,,,,,,,,12,,,1,,,,,,,,,,,,,,,,,,,,,,,,,,,,,,,,,,,,,,,,,,,,,,102,157162,20,Female,1,2024/03/19_10:29:21,YZ,None,
,,,,,,calibration,0,15,2,2107,1,N,0,right,2.013075855997158,1,0,,,,,,,,,,,,,,,,,,,,,1,,,,,,,,,,,,,,,,,,,,,,,,,,,,,,,,,,,,,,,,,,,,,,102,157162,20,Female,1,2024/03/19_10:29:21,YZ,None,
,,,,,,calibration,0,15,2,2107,2,S,0,left,0.4922492900004727,0,0,,,,,,,,,,,,,,,,,,,,,1,,,,,,,,,,,,,,,,,,,,,,,,,,,,,,,,,,,,,,,,,,,,,,102,157162,20,Female,1,2024/03/19_10:29:21,YZ,None,
,,,,,,calibration,0,15,2,2107,3,V,0,right,0.48151546900044195,1,0,,,,,,,,,,,,,,,,,,,,,1,,,,,,,,,,,,,,,,,,,,,,,,,,,,,,,,,,,,,,,,,,,,,,102,157162,20,Female,1,2024/03/19_10:29:21,YZ,None,
,,,,,,calibration,0,15,2,2107,4,C,0,left,1.449251074998756,0,0,,,,,,,,,,,,,,,,,,,,,1,,,,,,,,,,,,,,,,,,,,,,,,,,,,,,,,,,,,,,,,,,,,,,102,157162,20,Female,1,2024/03/19_10:29:21,YZ,None,
,,,,,,calibration,0,15,2,2107,5,V,1,right,1.0466394709947053,0,0,,,,,,,,,,,,,,,,,,,,,1,,,,,,,,,,,,,,,,,,,,,,,,,,,,,,,,,,,,,,,,,,,,,,102,157162,20,Female,1,2024/03/19_10:29:21,YZ,None,
,,,,,,calibration,0,15,2,2107,6,S,0,right,0.9749255310016451,1,0,,,,,,,,,,,,,,,,,,,,,1,,,,,,,,,,,,,,,,,,,,,,,,,,,,,,,,,,,,,,,,,,,,,,102,157162,20,Female,1,2024/03/19_10:29:21,YZ,None,
,,,,,,calibration,0,15,2,2107,7,V,1,right,1.4363873039983446,0,0,,,,,,,,,,,,,,,,,,,,,1,,,,,,,,,,,,,,,,,,,,,,,,,,,,,,,,,,,,,,,,,,,,,,102,157162,20,Female,1,2024/03/19_10:29:21,YZ,None,
,,,,,,calibration,0,15,2,2107,,,,,,,,0.15,0.0,0.4,0.6,0.0,0.6,1.127720570855932,0,2,0,0,0,3,3,2,5,0,,,,1,,,,,,,,,,,,,,,,,,,,,,,,,,,,,,,,,,,,,,,,,,,,,,102,157162,20,Female,1,2024/03/19_10:29:21,YZ,None,
,,,,,,Calibration,0,,2,2107,,,,,,,,,,,,,,,,,,,,,,,,,13,,,1,,,,,,,,,,,,,,,,,,,,,,,,,,,,,,,,,,,,,,,,,,,,,,102,157162,20,Female,1,2024/03/19_10:29:21,YZ,None,
,,,,,,calibration,0,8,2,2583,1,S,0,left,0.9430829839984654,0,0,,,,,,,,,,,,,,,,,,,,,1,,,,,,,,,,,,,,,,,,,,,,,,,,,,,,,,,,,,,,,,,,,,,,102,157162,20,Female,1,2024/03/19_10:29:21,YZ,None,
,,,,,,calibration,0,8,2,2583,2,X,0,right,0.6523959019978065,1,0,,,,,,,,,,,,,,,,,,,,,1,,,,,,,,,,,,,,,,,,,,,,,,,,,,,,,,,,,,,,,,,,,,,,102,157162,20,Female,1,2024/03/19_10:29:21,YZ,None,
,,,,,,calibration,0,8,2,2583,3,S,1,right,0.2221083219992579,0,0,,,,,,,,,,,,,,,,,,,,,1,,,,,,,,,,,,,,,,,,,,,,,,,,,,,,,,,,,,,,,,,,,,,,102,157162,20,Female,1,2024/03/19_10:29:21,YZ,None,
,,,,,,calibration,0,8,2,2583,4,J,0,left,0.5492445260024397,0,0,,,,,,,,,,,,,,,,,,,,,1,,,,,,,,,,,,,,,,,,,,,,,,,,,,,,,,,,,,,,,,,,,,,,102,157162,20,Female,1,2024/03/19_10:29:21,YZ,None,
,,,,,,calibration,0,8,2,2583,5,V,0,right,0.4055873539982713,1,0,,,,,,,,,,,,,,,,,,,,,1,,,,,,,,,,,,,,,,,,,,,,,,,,,,,,,,,,,,,,,,,,,,,,102,157162,20,Female,1,2024/03/19_10:29:21,YZ,None,
,,,,,,calibration,0,8,2,2583,6,J,1,right,0.20776637400558684,0,0,,,,,,,,,,,,,,,,,,,,,1,,,,,,,,,,,,,,,,,,,,,,,,,,,,,,,,,,,,,,,,,,,,,,102,157162,20,Female,1,2024/03/19_10:29:21,YZ,None,
,,,,,,calibration,0,8,2,2583,,,,,,,,0.125,0.0,0.5,0.5,0.0,0.5,0.4966975770003046,0,2,0,0,0,2,2,2,4,0,,,,1,,,,,,,,,,,,,,,,,,,,,,,,,,,,,,,,,,,,,,,,,,,,,,102,157162,20,Female,1,2024/03/19_10:29:21,YZ,None,
,,,,,,Calibration,0,,2,2583,,,,,,,,,,,,,,,,,,,,,,,,,14,,,1,,,,,,,,,,,,,,,,,,,,,,,,,,,,,,,,,,,,,,,,,,,,,,102,157162,20,Female,1,2024/03/19_10:29:21,YZ,None,
,,,,,,calibration,0,10,2,2583,1,N,0,None,nan,0,1,,,,,,,,,,,,,,,,,,,,,1,,,,,,,,,,,,,,,,,,,,,,,,,,,,,,,,,,,,,,,,,,,,,,102,157162,20,Female,1,2024/03/19_10:29:21,YZ,None,
,,,,,,calibration,0,10,2,2583,2,N,0,left,0.0,0,0,,,,,,,,,,,,,,,,,,,,,1,,,,,,,,,,,,,,,,,,,,,,,,,,,,,,,,,,,,,,,,,,,,,,102,157162,20,Female,1,2024/03/19_10:29:21,YZ,None,
,,,,,,calibration,0,10,2,2583,3,N,1,left,0.4319045269949129,1,0,,,,,,,,,,,,,,,,,,,,,1,,,,,,,,,,,,,,,,,,,,,,,,,,,,,,,,,,,,,,,,,,,,,,102,157162,20,Female,1,2024/03/19_10:29:21,YZ,None,
,,,,,,calibration,0,10,2,2583,4,V,0,left,nan,0,1,,,,,,,,,,,,,,,,,,,,,1,,,,,,,,,,,,,,,,,,,,,,,,,,,,,,,,,,,,,,,,,,,,,,102,157162,20,Female,1,2024/03/19_10:29:21,YZ,None,
,,,,,,calibration,0,10,2,2583,5,J,0,left,1.3745980570020038,0,0,,,,,,,,,,,,,,,,,,,,,1,,,,,,,,,,,,,,,,,,,,,,,,,,,,,,,,,,,,,,,,,,,,,,102,157162,20,Female,1,2024/03/19_10:29:21,YZ,None,
,,,,,,calibration,0,10,2,2583,6,V,1,right,0.26599252399319084,0,0,,,,,,,,,,,,,,,,,,,,,1,,,,,,,,,,,,,,,,,,,,,,,,,,,,,,,,,,,,,,,,,,,,,,102,157162,20,Female,1,2024/03/19_10:29:21,YZ,None,
,,,,,,calibration,0,10,2,2583,,,,,,,,0.5,0.5,0.5,0.0,0.3333333333333333,0.16666666666666669,0.5181237769975269,1,2,0,2,2,0,1,2,4,0,,,,1,,,,,,,,,,,,,,,,,,,,,,,,,,,,,,,,,,,,,,,,,,,,,,102,157162,20,Female,1,2024/03/19_10:29:21,YZ,None,
,,,,,,Calibration,0,,2,2583,,,,,,,,,,,,,,,,,,,,,,,,,15,,,1,,,,,,,,,,,,,,,,,,,,,,,,,,,,,,,,,,,,,,,,,,,,,,102,157162,20,Female,1,2024/03/19_10:29:21,YZ,None,
,,,,,,calibration,0,36,2,2583,1,S,0,right,0.35057249999954365,1,0,,,,,,,,,,,,,,,,,,,,,1,,,,,,,,,,,,,,,,,,,,,,,,,,,,,,,,,,,,,,,,,,,,,,102,157162,20,Female,1,2024/03/19_10:29:21,YZ,None,
,,,,,,calibration,0,36,2,2583,2,N,0,right,nan,0,1,,,,,,,,,,,,,,,,,,,,,1,,,,,,,,,,,,,,,,,,,,,,,,,,,,,,,,,,,,,,,,,,,,,,102,157162,20,Female,1,2024/03/19_10:29:21,YZ,None,
,,,,,,calibration,0,36,2,2583,3,S,1,left,0.8986553170034313,1,0,,,,,,,,,,,,,,,,,,,,,1,,,,,,,,,,,,,,,,,,,,,,,,,,,,,,,,,,,,,,,,,,,,,,102,157162,20,Female,1,2024/03/19_10:29:21,YZ,None,
,,,,,,calibration,0,36,2,2583,4,V,0,right,0.6655971550062532,1,0,,,,,,,,,,,,,,,,,,,,,1,,,,,,,,,,,,,,,,,,,,,,,,,,,,,,,,,,,,,,,,,,,,,,102,157162,20,Female,1,2024/03/19_10:29:21,YZ,None,
,,,,,,calibration,0,36,2,2583,5,S,1,right,1.776334748006775,0,0,,,,,,,,,,,,,,,,,,,,,1,,,,,,,,,,,,,,,,,,,,,,,,,,,,,,,,,,,,,,,,,,,,,,102,157162,20,Female,1,2024/03/19_10:29:21,YZ,None,
,,,,,,calibration,0,36,2,2583,6,N,0,right,1.135120086997631,1,0,,,,,,,,,,,,,,,,,,,,,1,,,,,,,,,,,,,,,,,,,,,,,,,,,,,,,,,,,,,,,,,,,,,,102,157162,20,Female,1,2024/03/19_10:29:21,YZ,None,
,,,,,,calibration,0,36,2,2583,,,,,,,,0.875,0.5,0.0,1.0,0.16666666666666666,0.8333333333333334,0.9652559614027268,1,0,0,1,1,3,4,2,4,0,,,,1,,,,,,,,,,,,,,,,,,,,,,,,,,,,,,,,,,,,,,,,,,,,,,102,157162,20,Female,1,2024/03/19_10:29:21,YZ,None,
,,,,,,Calibration,0,,2,2583,,,,,,,,,,,,,,,,,,,,,,,,,16,,,1,,,,,,,,,,,,,,,,,,,,,,,,,,,,,,,,,,,,,,,,,,,,,,102,157162,20,Female,1,2024/03/19_10:29:21,YZ,None,
,,,,,,CALIBRATION,0,,,,,,,,,,,,,,,,,,,,,,,,,,,,16,0.875,2583,1,,,,,,,,,,,,,,,,,,,,,,,,,,,,,,,,,,,,,,,,,,,,,,102,157162,20,Female,1,2024/03/19_10:29:21,YZ,None,
1,./instructions/inst_prac_1/Slide24.png,right,35.52619408400642,634.9553066829976,670.481500767004,,,,,,,,,,,,,,,,,,,,,,,,,,,,,,,,,1,,,,,,,,,,,,,,,,,,,,,,,,,,,,,,,,,,,,,,,,,,,,,,102,157162,20,Female,1,2024/03/19_10:29:21,YZ,None,
2,./instructions/inst_prac_1/Slide25.png,right,8.570749709993834,670.5106120870041,679.081361796998,,,,,,,,,,,,,,,,,,,,,,,,,,,,,,,,,1,,,,,,,,,,,,,,,,,,,,,,,,,,,,,,,,,,,,,,,,,,,,,,102,157162,20,Female,1,2024/03/19_10:29:21,YZ,None,
3,./instructions/inst_prac_1/Slide26.png,right,1.5545819039980415,679.111024468999,680.665606372997,,,,,,,,,,,,,,,,,,,,,,,,,,,,,,,,,1,,,,,,,,,,,,,,,,,,,,,,,,,,,,,,,,,,,,,,,,,,,,,,102,157162,20,Female,1,2024/03/19_10:29:21,YZ,None,
4,./instructions/inst_prac_1/Slide27.png,right,0.2004273189959349,680.6950287860018,680.8954561049977,,,,,,,,,,,,,,,,,,,,,,,,,,,,,,,,,1,,,,,,,,,,,,,,,,,,,,,,,,,,,,,,,,,,,,,,,,,,,,,,102,157162,20,Female,1,2024/03/19_10:29:21,YZ,None,
5,./instructions/inst_prac_1/Slide28.png,right,2.123005968001962,680.9184770339998,683.0414830020018,,,,,,,,,,,,,,,,,,,,,,,,,,,,,,,,,1,,,,,,,,,,,,,,,,,,,,,,,,,,,,,,,,,,,,,,,,,,,,,,102,157162,20,Female,1,2024/03/19_10:29:21,YZ,None,
6,./instructions/inst_prac_1/Slide29.png,right,12.883390179995331,683.0701208430037,695.953511022999,,,,,,,,,,,,,,,,,,,,,,,,,,,,,,,,,1,,,,,,,,,,,,,,,,,,,,,,,,,,,,,,,,,,,,,,,,,,,,,,102,157162,20,Female,1,2024/03/19_10:29:21,YZ,None,
7,./instructions/inst_prac_1/Slide30.png,right,18.47589424600301,695.9817167799993,714.4576110260023,,,,,,,,,,,,,,,,,,,,,,,,,,,,,,,,,1,,,,,,,,,,,,,,,,,,,,,,,,,,,,,,,,,,,,,,,,,,,,,,102,157162,20,Female,1,2024/03/19_10:29:21,YZ,None,
,,,,,,practice,0,29,1,1250,1,J,0,right,6.129265868999937,1,0,,,,,,,,,,,,,,,,,,,,,1,,,,,,,,,,,,,,,,,,,,,,,,,,,,,,,,,,,,,,,,,,,,,,102,157162,20,Female,1,2024/03/19_10:29:21,YZ,None,
,,,,,,practice,0,29,1,1250,2,Q,0,right,1.9030628219989012,1,0,,,,,,,,,,,,,,,,,,,,,1,,,,,,,,,,,,,,,,,,,,,,,,,,,,,,,,,,,,,,,,,,,,,,102,157162,20,Female,1,2024/03/19_10:29:21,YZ,None,
,,,,,,practice,0,29,1,1250,3,C,0,right,2.659269448995474,1,0,,,,,,,,,,,,,,,,,,,,,1,,,,,,,,,,,,,,,,,,,,,,,,,,,,,,,,,,,,,,,,,,,,,,102,157162,20,Female,1,2024/03/19_10:29:21,YZ,None,
,,,,,,practice,0,29,1,1250,4,X,0,right,1.22836864200508,1,0,,,,,,,,,,,,,,,,,,,,,1,,,,,,,,,,,,,,,,,,,,,,,,,,,,,,,,,,,,,,,,,,,,,,102,157162,20,Female,1,2024/03/19_10:29:21,YZ,None,
,,,,,,practice,0,29,1,1250,5,V,0,right,2.8961137989972485,1,0,,,,,,,,,,,,,,,,,,,,,1,,,,,,,,,,,,,,,,,,,,,,,,,,,,,,,,,,,,,,,,,,,,,,102,157162,20,Female,1,2024/03/19_10:29:21,YZ,None,
,,,,,,practice,0,29,1,1250,6,V,1,left,0.9637001849987428,1,0,,,,,,,,,,,,,,,,,,,,,1,,,,,,,,,,,,,,,,,,,,,,,,,,,,,,,,,,,,,,,,,,,,,,102,157162,20,Female,1,2024/03/19_10:29:21,YZ,None,
,,,,,,practice,0,29,1,1250,7,C,0,right,1.555602653999813,1,0,,,,,,,,,,,,,,,,,,,,,1,,,,,,,,,,,,,,,,,,,,,,,,,,,,,,,,,,,,,,,,,,,,,,102,157162,20,Female,1,2024/03/19_10:29:21,YZ,None,
,,,,,,practice,0,29,1,1250,8,C,1,left,0.772727138006303,1,0,,,,,,,,,,,,,,,,,,,,,1,,,,,,,,,,,,,,,,,,,,,,,,,,,,,,,,,,,,,,,,,,,,,,102,157162,20,Female,1,2024/03/19_10:29:21,YZ,None,
,,,,,,practice,0,29,1,1250,9,Q,0,right,1.1977009080001153,1,0,,,,,,,,,,,,,,,,,,,,,1,,,,,,,,,,,,,,,,,,,,,,,,,,,,,,,,,,,,,,,,,,,,,,102,157162,20,Female,1,2024/03/19_10:29:21,YZ,None,
,,,,,,practice,0,29,1,1250,10,Q,1,left,0.9736642029965878,1,0,,,,,,,,,,,,,,,,,,,,,1,,,,,,,,,,,,,,,,,,,,,,,,,,,,,,,,,,,,,,,,,,,,,,102,157162,20,Female,1,2024/03/19_10:29:21,YZ,None,
,,,,,,practice,0,29,1,1250,,,,,,,,1.0,1.0,0.0,1.0,0.0,1.0,2.02794756689982,3,0,0,0,0,7,10,3,7,0,,,,1,,,,,,,,,,,,,,,,,,,,,,,,,,,,,,,,,,,,,,,,,,,,,,102,157162,20,Female,1,2024/03/19_10:29:21,YZ,None,
1,./instructions/inst_prac_1_next/Slide35.png,right,10.664545799001644,745.2731334650016,755.9376792640032,,,,,,,,,,,,,,,,,,,,,,,,,,,,,,,,,1,,,,,,,,,,,,,,,,,,,,,,,,,,,,,,,,,,,,,,,,,,,,,,102,157162,20,Female,1,2024/03/19_10:29:21,YZ,None,
,,,,,,practice,0,31,1,2583,1,V,0,right,2.020732550001412,1,0,,,,,,,,,,,,,,,,,,,,,1,,,,,,,,,,,,,,,,,,,,,,,,,,,,,,,,,,,,,,,,,,,,,,102,157162,20,Female,1,2024/03/19_10:29:21,YZ,None,
,,,,,,practice,0,31,1,2583,2,C,0,right,1.7939082049997523,1,0,,,,,,,,,,,,,,,,,,,,,1,,,,,,,,,,,,,,,,,,,,,,,,,,,,,,,,,,,,,,,,,,,,,,102,157162,20,Female,1,2024/03/19_10:29:21,YZ,None,
,,,,,,practice,0,31,1,2583,3,C,1,left,1.3647879290001583,1,0,,,,,,,,,,,,,,,,,,,,,1,,,,,,,,,,,,,,,,,,,,,,,,,,,,,,,,,,,,,,,,,,,,,,102,157162,20,Female,1,2024/03/19_10:29:21,YZ,None,
,,,,,,practice,0,31,1,2583,4,Q,0,right,0.9301476260006893,1,0,,,,,,,,,,,,,,,,,,,,,1,,,,,,,,,,,,,,,,,,,,,,,,,,,,,,,,,,,,,,,,,,,,,,102,157162,20,Female,1,2024/03/19_10:29:21,YZ,None,
,,,,,,practice,0,31,1,2583,5,Q,1,left,1.5673087729956023,1,0,,,,,,,,,,,,,,,,,,,,,1,,,,,,,,,,,,,,,,,,,,,,,,,,,,,,,,,,,,,,,,,,,,,,102,157162,20,Female,1,2024/03/19_10:29:21,YZ,None,
,,,,,,practice,0,31,1,2583,6,J,0,right,1.3397495059980429,1,0,,,,,,,,,,,,,,,,,,,,,1,,,,,,,,,,,,,,,,,,,,,,,,,,,,,,,,,,,,,,,,,,,,,,102,157162,20,Female,1,2024/03/19_10:29:21,YZ,None,
,,,,,,practice,0,31,1,2583,,,,,,,,1.0,1.0,0.0,1.0,0.0,1.0,1.5027724314992763,2,0,0,0,0,4,6,2,4,0,,,,1,,,,,,,,,,,,,,,,,,,,,,,,,,,,,,,,,,,,,,,,,,,,,,102,157162,20,Female,1,2024/03/19_10:29:21,YZ,None,
,,,,,,practice,0,33,1,2583,1,S,0,right,2.372649934004585,1,0,,,,,,,,,,,,,,,,,,,,,1,,,,,,,,,,,,,,,,,,,,,,,,,,,,,,,,,,,,,,,,,,,,,,102,157162,20,Female,1,2024/03/19_10:29:21,YZ,None,
,,,,,,practice,0,33,1,2583,2,F,0,left,1.4963215129973833,0,0,,,,,,,,,,,,,,,,,,,,,1,,,,,,,,,,,,,,,,,,,,,,,,,,,,,,,,,,,,,,,,,,,,,,102,157162,20,Female,1,2024/03/19_10:29:21,YZ,None,
,,,,,,practice,0,33,1,2583,3,F,1,left,1.620368679999956,1,0,,,,,,,,,,,,,,,,,,,,,1,,,,,,,,,,,,,,,,,,,,,,,,,,,,,,,,,,,,,,,,,,,,,,102,157162,20,Female,1,2024/03/19_10:29:21,YZ,None,
,,,,,,practice,0,33,1,2583,4,Q,0,right,1.1909543389992905,1,0,,,,,,,,,,,,,,,,,,,,,1,,,,,,,,,,,,,,,,,,,,,,,,,,,,,,,,,,,,,,,,,,,,,,102,157162,20,Female,1,2024/03/19_10:29:21,YZ,None,
,,,,,,practice,0,33,1,2583,5,C,0,right,1.1687235200006398,1,0,,,,,,,,,,,,,,,,,,,,,1,,,,,,,,,,,,,,,,,,,,,,,,,,,,,,,,,,,,,,,,,,,,,,102,157162,20,Female,1,2024/03/19_10:29:21,YZ,None,
,,,,,,practice,0,33,1,2583,6,C,1,left,0.7921291989987367,1,0,,,,,,,,,,,,,,,,,,,,,1,,,,,,,,,,,,,,,,,,,,,,,,,,,,,,,,,,,,,,,,,,,,,,102,157162,20,Female,1,2024/03/19_10:29:21,YZ,None,
,,,,,,practice,0,33,1,2583,,,,,,,,0.9375,1.0,0.25,0.75,0.0,0.75,1.4401911975000985,2,1,0,0,0,3,5,2,4,0,,,,1,,,,,,,,,,,,,,,,,,,,,,,,,,,,,,,,,,,,,,,,,,,,,,102,157162,20,Female,1,2024/03/19_10:29:21,YZ,None,
1,./instructions/inst_prac_3/Slide37.png,right,16.058399633999215,783.9912317359995,800.0496313699987,,,,,,,,,,,,,,,,,,,,,,,,,,,,,,,,,1,,,,,,,,,,,,,,,,,,,,,,,,,,,,,,,,,,,,,,,,,,,,,,102,157162,20,Female,1,2024/03/19_10:29:21,YZ,None,
2,./instructions/inst_prac_3/Slide38.png,right,2.2860019600047963,800.0756308549971,802.3616328150019,,,,,,,,,,,,,,,,,,,,,,,,,,,,,,,,,1,,,,,,,,,,,,,,,,,,,,,,,,,,,,,,,,,,,,,,,,,,,,,,102,157162,20,Female,1,2024/03/19_10:29:21,YZ,None,
3,./instructions/inst_prac_3/Slide39.png,right,0.7226851309969788,802.3907639980025,803.1134491289995,,,,,,,,,,,,,,,,,,,,,,,,,,,,,,,,,1,,,,,,,,,,,,,,,,,,,,,,,,,,,,,,,,,,,,,,,,,,,,,,102,157162,20,Female,1,2024/03/19_10:29:21,YZ,None,
4,./instructions/inst_prac_3/Slide40.png,right,3.971371296000143,803.1422116620015,807.1135829580016,,,,,,,,,,,,,,,,,,,,,,,,,,,,,,,,,1,,,,,,,,,,,,,,,,,,,,,,,,,,,,,,,,,,,,,,,,,,,,,,102,157162,20,Female,1,2024/03/19_10:29:21,YZ,None,
5,./instructions/inst_prac_3/Slide41.png,right,3.0270044349963428,807.1425611450031,810.1695655799995,,,,,,,,,,,,,,,,,,,,,,,,,,,,,,,,,1,,,,,,,,,,,,,,,,,,,,,,,,,,,,,,,,,,,,,,,,,,,,,,102,157162,20,Female,1,2024/03/19_10:29:21,YZ,None,
6,./instructions/inst_prac_3/Slide42.png,right,1.9953041780026979,810.1982613319997,812.1935655100024,,,,,,,,,,,,,,,,,,,,,,,,,,,,,,,,,1,,,,,,,,,,,,,,,,,,,,,,,,,,,,,,,,,,,,,,,,,,,,,,102,157162,20,Female,1,2024/03/19_10:29:21,YZ,None,
7,./instructions/inst_prac_3/Slide43.png,right,9.187237090998678,812.2222710720016,821.4095081630003,,,,,,,,,,,,,,,,,,,,,,,,,,,,,,,,,1,,,,,,,,,,,,,,,,,,,,,,,,,,,,,,,,,,,,,,,,,,,,,,102,157162,20,Female,1,2024/03/19_10:29:21,YZ,None,
8,./instructions/inst_prac_3/Slide44.png,right,3.1707933209982,821.4386781979993,824.6094715189975,,,,,,,,,,,,,,,,,,,,,,,,,,,,,,,,,1,,,,,,,,,,,,,,,,,,,,,,,,,,,,,,,,,,,,,,,,,,,,,,102,157162,20,Female,1,2024/03/19_10:29:21,YZ,None,
,,,,,,practice,0,13,3,788,1,N,0,right,1.7700593670015223,1,0,,,,,,,,,,,,,,,,,,,,,1,,,,,,,,,,,,,,,,,,,,,,,,,,,,,,,,,,,,,,,,,,,,,,102,157162,20,Female,1,2024/03/19_10:29:21,YZ,None,
,,,,,,practice,0,13,3,788,2,J,0,right,0.581593946000794,1,0,,,,,,,,,,,,,,,,,,,,,1,,,,,,,,,,,,,,,,,,,,,,,,,,,,,,,,,,,,,,,,,,,,,,102,157162,20,Female,1,2024/03/19_10:29:21,YZ,None,
,,,,,,practice,0,13,3,788,3,X,0,right,0.6728867049969267,1,0,,,,,,,,,,,,,,,,,,,,,1,,,,,,,,,,,,,,,,,,,,,,,,,,,,,,,,,,,,,,,,,,,,,,102,157162,20,Female,1,2024/03/19_10:29:21,YZ,None,
,,,,,,practice,0,13,3,788,4,N,1,left,0.6342312119959388,1,0,,,,,,,,,,,,,,,,,,,,,1,,,,,,,,,,,,,,,,,,,,,,,,,,,,,,,,,,,,,,,,,,,,,,102,157162,20,Female,1,2024/03/19_10:29:21,YZ,None,
,,,,,,practice,0,13,3,788,5,J,1,left,1.3974132849980379,1,0,,,,,,,,,,,,,,,,,,,,,1,,,,,,,,,,,,,,,,,,,,,,,,,,,,,,,,,,,,,,,,,,,,,,102,157162,20,Female,1,2024/03/19_10:29:21,YZ,None,
,,,,,,practice,0,13,3,788,6,C,0,right,1.2114864509931067,1,0,,,,,,,,,,,,,,,,,,,,,1,,,,,,,,,,,,,,,,,,,,,,,,,,,,,,,,,,,,,,,,,,,,,,102,157162,20,Female,1,2024/03/19_10:29:21,YZ,None,
,,,,,,practice,0,13,3,788,7,X,0,left,1.1331255819968646,0,0,,,,,,,,,,,,,,,,,,,,,1,,,,,,,,,,,,,,,,,,,,,,,,,,,,,,,,,,,,,,,,,,,,,,102,157162,20,Female,1,2024/03/19_10:29:21,YZ,None,
,,,,,,practice,0,13,3,788,8,J,1,left,1.4873540129992762,1,0,,,,,,,,,,,,,,,,,,,,,1,,,,,,,,,,,,,,,,,,,,,,,,,,,,,,,,,,,,,,,,,,,,,,102,157162,20,Female,1,2024/03/19_10:29:21,YZ,None,
,,,,,,practice,0,13,3,788,9,Q,0,right,1.1122793390022707,1,0,,,,,,,,,,,,,,,,,,,,,1,,,,,,,,,,,,,,,,,,,,,,,,,,,,,,,,,,,,,,,,,,,,,,102,157162,20,Female,1,2024/03/19_10:29:21,YZ,None,
,,,,,,practice,0,13,3,788,10,Q,0,right,1.1637998879959923,1,0,,,,,,,,,,,,,,,,,,,,,1,,,,,,,,,,,,,,,,,,,,,,,,,,,,,,,,,,,,,,,,,,,,,,102,157162,20,Female,1,2024/03/19_10:29:21,YZ,None,
,,,,,,practice,0,13,3,788,11,N,0,right,1.172354592999909,1,0,,,,,,,,,,,,,,,,,,,,,1,,,,,,,,,,,,,,,,,,,,,,,,,,,,,,,,,,,,,,,,,,,,,,102,157162,20,Female,1,2024/03/19_10:29:21,YZ,None,
,,,,,,practice,0,13,3,788,12,Q,1,left,1.276315864000935,1,0,,,,,,,,,,,,,,,,,,,,,1,,,,,,,,,,,,,,,,,,,,,,,,,,,,,,,,,,,,,,,,,,,,,,102,157162,20,Female,1,2024/03/19_10:29:21,YZ,None,
,,,,,,practice,0,13,3,788,13,S,0,right,0.7945573069955572,1,0,,,,,,,,,,,,,,,,,,,,,1,,,,,,,,,,,,,,,,,,,,,,,,,,,,,,,,,,,,,,,,,,,,,,102,157162,20,Female,1,2024/03/19_10:29:21,YZ,None,
,,,,,,practice,0,13,3,788,,,,,,,,0.9722222222222222,1.0,0.1111111111111111,0.8888888888888888,0.0,0.8888888888888888,1.1082659655367024,4,1,0,0,0,8,12,4,9,0,,,,1,,,,,,,,,,,,,,,,,,,,,,,,,,,,,,,,,,,,,,,,,,,,,,102,157162,20,Female,1,2024/03/19_10:29:21,YZ,None,
1,./instructions/inst_prac_3_next/Slide49.png,right,1.308934444001352,853.2125739170006,854.5215083610019,,,,,,,,,,,,,,,,,,,,,,,,,,,,,,,,,1,,,,,,,,,,,,,,,,,,,,,,,,,,,,,,,,,,,,,,,,,,,,,,102,157162,20,Female,1,2024/03/19_10:29:21,YZ,None,
,,,,,,practice,0,19,3,2583,1,J,0,right,2.623640476995206,1,0,,,,,,,,,,,,,,,,,,,,,1,,,,,,,,,,,,,,,,,,,,,,,,,,,,,,,,,,,,,,,,,,,,,,102,157162,20,Female,1,2024/03/19_10:29:21,YZ,None,
,,,,,,practice,0,19,3,2583,2,V,0,right,1.574963774997741,1,0,,,,,,,,,,,,,,,,,,,,,1,,,,,,,,,,,,,,,,,,,,,,,,,,,,,,,,,,,,,,,,,,,,,,102,157162,20,Female,1,2024/03/19_10:29:21,YZ,None,
,,,,,,practice,0,19,3,2583,3,J,0,right,2.1054141349959536,1,0,,,,,,,,,,,,,,,,,,,,,1,,,,,,,,,,,,,,,,,,,,,,,,,,,,,,,,,,,,,,,,,,,,,,102,157162,20,Female,1,2024/03/19_10:29:21,YZ,None,
,,,,,,practice,0,19,3,2583,4,J,1,left,1.5598104129967396,1,0,,,,,,,,,,,,,,,,,,,,,1,,,,,,,,,,,,,,,,,,,,,,,,,,,,,,,,,,,,,,,,,,,,,,102,157162,20,Female,1,2024/03/19_10:29:21,YZ,None,
,,,,,,practice,0,19,3,2583,5,N,0,right,1.3042869609998888,1,0,,,,,,,,,,,,,,,,,,,,,1,,,,,,,,,,,,,,,,,,,,,,,,,,,,,,,,,,,,,,,,,,,,,,102,157162,20,Female,1,2024/03/19_10:29:21,YZ,None,
,,,,,,practice,0,19,3,2583,6,J,1,left,5.607068141005584,1,0,,,,,,,,,,,,,,,,,,,,,1,,,,,,,,,,,,,,,,,,,,,,,,,,,,,,,,,,,,,,,,,,,,,,102,157162,20,Female,1,2024/03/19_10:29:21,YZ,None,
,,,,,,practice,0,19,3,2583,,,,,,,,1.0,1.0,0.0,1.0,0.0,1.0,2.462530650331852,2,0,0,0,0,4,6,2,4,0,,,,1,,,,,,,,,,,,,,,,,,,,,,,,,,,,,,,,,,,,,,,,,,,,,,102,157162,20,Female,1,2024/03/19_10:29:21,YZ,None,
,,,,,,practice,0,34,3,2583,1,N,0,right,2.506537023000419,1,0,,,,,,,,,,,,,,,,,,,,,1,,,,,,,,,,,,,,,,,,,,,,,,,,,,,,,,,,,,,,,,,,,,,,102,157162,20,Female,1,2024/03/19_10:29:21,YZ,None,
,,,,,,practice,0,34,3,2583,2,N,0,right,2.193366736995813,1,0,,,,,,,,,,,,,,,,,,,,,1,,,,,,,,,,,,,,,,,,,,,,,,,,,,,,,,,,,,,,,,,,,,,,102,157162,20,Female,1,2024/03/19_10:29:21,YZ,None,
,,,,,,practice,0,34,3,2583,3,Q,0,right,2.4560142280024593,1,0,,,,,,,,,,,,,,,,,,,,,1,,,,,,,,,,,,,,,,,,,,,,,,,,,,,,,,,,,,,,,,,,,,,,102,157162,20,Female,1,2024/03/19_10:29:21,YZ,None,
,,,,,,practice,0,34,3,2583,4,C,0,right,1.2472144499988644,1,0,,,,,,,,,,,,,,,,,,,,,1,,,,,,,,,,,,,,,,,,,,,,,,,,,,,,,,,,,,,,,,,,,,,,102,157162,20,Female,1,2024/03/19_10:29:21,YZ,None,
,,,,,,practice,0,34,3,2583,5,N,1,left,2.5616962230051286,1,0,,,,,,,,,,,,,,,,,,,,,1,,,,,,,,,,,,,,,,,,,,,,,,,,,,,,,,,,,,,,,,,,,,,,102,157162,20,Female,1,2024/03/19_10:29:21,YZ,None,
,,,,,,practice,0,34,3,2583,6,Q,1,right,2.4682678550016135,0,0,,,,,,,,,,,,,,,,,,,,,1,,,,,,,,,,,,,,,,,,,,,,,,,,,,,,,,,,,,,,,,,,,,,,102,157162,20,Female,1,2024/03/19_10:29:21,YZ,None,
,,,,,,practice,0,34,3,2583,,,,,,,,0.875,0.5,0.0,1.0,0.0,1.0,2.23884941933405,1,0,0,0,0,4,5,2,4,0,,,,1,,,,,,,,,,,,,,,,,,,,,,,,,,,,,,,,,,,,,,,,,,,,,,102,157162,20,Female,1,2024/03/19_10:29:21,YZ,None,
1,./instructions/inst_prac_main/Slide51.png,right,4.868490126995312,893.1329096800036,898.001399806999,,,,,,,,,,,,,,,,,,,,,,,,,,,,,,,,,1,,,,,,,,,,,,,,,,,,,,,,,,,,,,,,,,,,,,,,,,,,,,,,102,157162,20,Female,1,2024/03/19_10:29:21,YZ,None,
2,./instructions/inst_prac_main/Slide52.png,right,17.772538131997862,898.0290838820001,915.801622013998,,,,,,,,,,,,,,,,,,,,,,,,,,,,,,,,,1,,,,,,,,,,,,,,,,,,,,,,,,,,,,,,,,,,,,,,,,,,,,,,102,157162,20,Female,1,2024/03/19_10:29:21,YZ,None,
1,./instructions/inst_prac_main/Slide53.png,left,6.230530970002292,915.8270432249992,922.0575741950015,,,,,,,,,,,,,,,,,,,,,,,,,,,,,,,,,1,,,,,,,,,,,,,,,,,,,,,,,,,,,,,,,,,,,,,,,,,,,,,,102,157162,20,Female,1,2024/03/19_10:29:21,YZ,None,
2,./instructions/inst_prac_main/Slide52.png,right,4.449154688998533,922.0801227990014,926.5292774879999,,,,,,,,,,,,,,,,,,,,,,,,,,,,,,,,,1,,,,,,,,,,,,,,,,,,,,,,,,,,,,,,,,,,,,,,,,,,,,,,102,157162,20,Female,1,2024/03/19_10:29:21,YZ,None,
3,./instructions/inst_prac_main/Slide53.png,right,5.8430685569983325,926.5583575290002,932.4014260859985,,,,,,,,,,,,,,,,,,,,,,,,,,,,,,,,,1,,,,,,,,,,,,,,,,,,,,,,,,,,,,,,,,,,,,,,,,,,,,,,102,157162,20,Female,1,2024/03/19_10:29:21,YZ,None,
4,./instructions/inst_prac_main/Slide54.png,right,15.195300744002452,932.4302468669994,947.6255476110018,,,,,,,,,,,,,,,,,,,,,,,,,,,,,,,,,1,,,,,,,,,,,,,,,,,,,,,,,,,,,,,,,,,,,,,,,,,,,,,,102,157162,20,Female,1,2024/03/19_10:29:21,YZ,None,
,,,,,,practice_main,0,1,1,2583,1,C,0,right,2.837127150000015,1,0,,,,,,,,,,,,,,,,,,,,,1,,,,,,,,,,,,,,,,,,,,,,,,,,,,,,,,,,,,,,,,,,,,,,102,157162,20,Female,1,2024/03/19_10:29:21,YZ,None,
,,,,,,practice_main,0,1,1,2583,2,C,1,right,1.2184752129978733,0,0,,,,,,,,,,,,,,,,,,,,,1,,,,,,,,,,,,,,,,,,,,,,,,,,,,,,,,,,,,,,,,,,,,,,102,157162,20,Female,1,2024/03/19_10:29:21,YZ,None,
,,,,,,practice_main,0,1,1,2583,3,F,0,right,1.2785256450006273,1,0,,,,,,,,,,,,,,,,,,,,,1,,,,,,,,,,,,,,,,,,,,,,,,,,,,,,,,,,,,,,,,,,,,,,102,157162,20,Female,1,2024/03/19_10:29:21,YZ,None,
,,,,,,practice_main,0,1,1,2583,4,C,0,left,0.9413770969986217,0,0,,,,,,,,,,,,,,,,,,,,,1,,,,,,,,,,,,,,,,,,,,,,,,,,,,,,,,,,,,,,,,,,,,,,102,157162,20,Female,1,2024/03/19_10:29:21,YZ,None,
,,,,,,practice_main,0,1,1,2583,5,S,0,right,0.6346692119986983,1,0,,,,,,,,,,,,,,,,,,,,,1,,,,,,,,,,,,,,,,,,,,,,,,,,,,,,,,,,,,,,,,,,,,,,102,157162,20,Female,1,2024/03/19_10:29:21,YZ,None,
,,,,,,practice_main,0,1,1,2583,6,S,1,left,1.6737875249964418,1,0,,,,,,,,,,,,,,,,,,,,,1,,,,,,,,,,,,,,,,,,,,,,,,,,,,,,,,,,,,,,,,,,,,,,102,157162,20,Female,1,2024/03/19_10:29:21,YZ,None,
,,,,,,practice_main,0,1,1,2583,,,,,,,,0.6875,0.5,0.25,0.75,0.0,0.75,1.430660306998713,1,1,0,0,0,3,4,2,4,0,,,,1,,,,,,,,,,,,,,,,,,,,,,,,,,,,,,,,,,,,,,,,,,,,,,102,157162,20,Female,1,2024/03/19_10:29:21,YZ,None,
,,,,,240319_110547,PRACTICE,0,1,1,2583,,,,,,,,,,,,,,,,,,,,,,,,,,,,1,28,1,1,cue2.png,easy,B,49,2.04629261700029,0,950.6885205560029,952.7611146400013,,,,,,,,,,,,,,,,,,,,,,,,,,,,,,,,,,,102,157162,20,Female,1,2024/03/19_10:29:21,YZ,None,
,,,,,,practice_main,0,2,3,2583,1,S,0,right,1.7608131660017534,1,0,,,,,,,,,,,,,,,,,,,,,1,,,,,,,,,,,,,,,,,,,,,,,,,,,,,,,,,,,,,,,,,,,,,,102,157162,20,Female,1,2024/03/19_10:29:21,YZ,None,
,,,,,,practice_main,0,2,3,2583,2,Q,0,right,0.941524584995932,1,0,,,,,,,,,,,,,,,,,,,,,1,,,,,,,,,,,,,,,,,,,,,,,,,,,,,,,,,,,,,,,,,,,,,,102,157162,20,Female,1,2024/03/19_10:29:21,YZ,None,
,,,,,,practice_main,0,2,3,2583,3,C,0,right,0.7074165069934679,1,0,,,,,,,,,,,,,,,,,,,,,1,,,,,,,,,,,,,,,,,,,,,,,,,,,,,,,,,,,,,,,,,,,,,,102,157162,20,Female,1,2024/03/19_10:29:21,YZ,None,
,,,,,,practice_main,0,2,3,2583,4,S,1,left,0.7034834959995351,1,0,,,,,,,,,,,,,,,,,,,,,1,,,,,,,,,,,,,,,,,,,,,,,,,,,,,,,,,,,,,,,,,,,,,,102,157162,20,Female,1,2024/03/19_10:29:21,YZ,None,
,,,,,,practice_main,0,2,3,2583,5,Q,1,right,1.1181124420036213,0,0,,,,,,,,,,,,,,,,,,,,,1,,,,,,,,,,,,,,,,,,,,,,,,,,,,,,,,,,,,,,,,,,,,,,102,157162,20,Female,1,2024/03/19_10:29:21,YZ,None,
,,,,,,practice_main,0,2,3,2583,6,X,0,right,1.1571018660033587,1,0,,,,,,,,,,,,,,,,,,,,,1,,,,,,,,,,,,,,,,,,,,,,,,,,,,,,,,,,,,,,,,,,,,,,102,157162,20,Female,1,2024/03/19_10:29:21,YZ,None,
,,,,,,practice_main,0,2,3,2583,,,,,,,,0.875,0.5,0.0,1.0,0.0,1.0,1.0647420103329448,1,0,0,0,0,4,5,2,4,0,,,,1,,,,,,,,,,,,,,,,,,,,,,,,,,,,,,,,,,,,,,,,,,,,,,102,157162,20,Female,1,2024/03/19_10:29:21,YZ,None,
,,,,,240319_110614,PRACTICE,0,2,3,2583,,,,,,,,,,,,,,,,,,,,,,,,,,,,1,45,3,2,cue1.png,hard,B,43,0.668984340998577,0,981.6839592300021,982.3680324710003,,,,,,,,,,,,,,,,,,,,,,,,,,,,,,,,,,,102,157162,20,Female,1,2024/03/19_10:29:21,YZ,None,
,,,,,,practice_main,0,3,1,2583,1,Q,0,right,2.1605322390023503,1,0,,,,,,,,,,,,,,,,,,,,,1,,,,,,,,,,,,,,,,,,,,,,,,,,,,,,,,,,,,,,,,,,,,,,102,157162,20,Female,1,2024/03/19_10:29:21,YZ,None,
,,,,,,practice_main,0,3,1,2583,2,F,0,right,1.5501711090037134,1,0,,,,,,,,,,,,,,,,,,,,,1,,,,,,,,,,,,,,,,,,,,,,,,,,,,,,,,,,,,,,,,,,,,,,102,157162,20,Female,1,2024/03/19_10:29:21,YZ,None,
,,,,,,practice_main,0,3,1,2583,3,F,1,left,1.0798164119987632,1,0,,,,,,,,,,,,,,,,,,,,,1,,,,,,,,,,,,,,,,,,,,,,,,,,,,,,,,,,,,,,,,,,,,,,102,157162,20,Female,1,2024/03/19_10:29:21,YZ,None,
,,,,,,practice_main,0,3,1,2583,4,S,0,right,2.0659552170036477,1,0,,,,,,,,,,,,,,,,,,,,,1,,,,,,,,,,,,,,,,,,,,,,,,,,,,,,,,,,,,,,,,,,,,,,102,157162,20,Female,1,2024/03/19_10:29:21,YZ,None,
,,,,,,practice_main,0,3,1,2583,5,S,1,left,0.8238694489991758,1,0,,,,,,,,,,,,,,,,,,,,,1,,,,,,,,,,,,,,,,,,,,,,,,,,,,,,,,,,,,,,,,,,,,,,102,157162,20,Female,1,2024/03/19_10:29:21,YZ,None,
,,,,,,practice_main,0,3,1,2583,6,J,0,right,0.7872009929997148,1,0,,,,,,,,,,,,,,,,,,,,,1,,,,,,,,,,,,,,,,,,,,,,,,,,,,,,,,,,,,,,,,,,,,,,102,157162,20,Female,1,2024/03/19_10:29:21,YZ,None,
,,,,,,practice_main,0,3,1,2583,,,,,,,,1.0,1.0,0.0,1.0,0.0,1.0,1.4112575698345609,2,0,0,0,0,4,6,2,4,0,,,,1,,,,,,,,,,,,,,,,,,,,,,,,,,,,,,,,,,,,,,,,,,,,,,102,157162,20,Female,1,2024/03/19_10:29:21,YZ,None,
,,,,,240319_110636,PRACTICE,0,3,1,2583,,,,,,,,,,,,,,,,,,,,,,,,,,,,1,20,4,3,cue2.png,easy,B,51,1.3450386339973193,0,1001.0486723450013,1002.4135545280005,,,,,,,,,,,,,,,,,,,,,,,,,,,,,,,,,,,102,157162,20,Female,1,2024/03/19_10:29:21,YZ,None,
1,./instructions/inst_prac_end/Slide56.png,right,20.350618215001305,1021.683000942001,1042.0336191570022,,,,,,,,,,,,,,,,,,,,,,,,,,,,,,,,,1,,,,,,,,,,,,,,,,,,,,,,,,,,,,,,,,,,,,,,,,,,,,,,102,157162,20,Female,1,2024/03/19_10:29:21,YZ,None,
1,./instructions/inst_test/Slide57.png,right,58.40654590899794,1042.0667620930035,1100.4733080020014,,,,,,,,,,,,,,,,,,,,,,,,,,,,,,,,,1,,,,,,,,,,,,,,,,,,,,,,,,,,,,,,,,,,,,,,,,,,,,,,102,157162,20,Female,1,2024/03/19_10:29:21,YZ,None,
,,,,,,test,1,1,1,2583,1,C,0,right,0.68511275700439,1,0,,,,,,,,,,,,,,,,,,,,,1,,,,,,,,,,,,,,,,,,,,,,,,,,,,,,,,,,,,,,,,,,,,,,102,157162,20,Female,1,2024/03/19_10:29:21,YZ,None,
,,,,,,test,1,1,1,2583,2,S,0,left,1.2770170220028376,0,0,,,,,,,,,,,,,,,,,,,,,1,,,,,,,,,,,,,,,,,,,,,,,,,,,,,,,,,,,,,,,,,,,,,,102,157162,20,Female,1,2024/03/19_10:29:21,YZ,None,
,,,,,,test,1,1,1,2583,3,F,0,right,0.9082418289981433,1,0,,,,,,,,,,,,,,,,,,,,,1,,,,,,,,,,,,,,,,,,,,,,,,,,,,,,,,,,,,,,,,,,,,,,102,157162,20,Female,1,2024/03/19_10:29:21,YZ,None,
,,,,,,test,1,1,1,2583,4,F,1,left,0.8073257569994894,1,0,,,,,,,,,,,,,,,,,,,,,1,,,,,,,,,,,,,,,,,,,,,,,,,,,,,,,,,,,,,,,,,,,,,,102,157162,20,Female,1,2024/03/19_10:29:21,YZ,None,
,,,,,,test,1,1,1,2583,5,Q,0,right,1.1072930819937028,1,0,,,,,,,,,,,,,,,,,,,,,1,,,,,,,,,,,,,,,,,,,,,,,,,,,,,,,,,,,,,,,,,,,,,,102,157162,20,Female,1,2024/03/19_10:29:21,YZ,None,
,,,,,,test,1,1,1,2583,6,Q,1,left,0.7190941430017119,1,0,,,,,,,,,,,,,,,,,,,,,1,,,,,,,,,,,,,,,,,,,,,,,,,,,,,,,,,,,,,,,,,,,,,,102,157162,20,Female,1,2024/03/19_10:29:21,YZ,None,
,,,,,,Test,1,1,1,2583,,,,,,,,0.9375,1.0,0.25,0.75,0.0,0.75,0.9173474316667125,2,1,0,0,0,3,5,2,4,0,,,,1,,,,,,,,,,,,,,,,,,,,,,,,,,,,,,,,,,,,,,,,,,,,,,102,157162,20,Female,1,2024/03/19_10:29:21,YZ,None,
,,,,,240319_110818,TEST,1,1,1,2583,,,,,,,,,,,,,,,,,,,,,,,,,,,,1,1,1,1,cue2.png,easy,B,50,1.347140349993424,0,1105.534613803,1106.9093188909974,,,,,,,,,,,,,,,,,,,,,,,,,,,,,,,,,,,102,157162,20,Female,1,2024/03/19_10:29:21,YZ,None,
,,,,,,test,1,2,3,2583,1,C,0,right,1.0550066900032107,1,0,,,,,,,,,,,,,,,,,,,,,1,,,,,,,,,,,,,,,,,,,,,,,,,,,,,,,,,,,,,,,,,,,,,,102,157162,20,Female,1,2024/03/19_10:29:21,YZ,None,
,,,,,,test,1,2,3,2583,2,S,0,right,1.032123827993928,1,0,,,,,,,,,,,,,,,,,,,,,1,,,,,,,,,,,,,,,,,,,,,,,,,,,,,,,,,,,,,,,,,,,,,,102,157162,20,Female,1,2024/03/19_10:29:21,YZ,None,
,,,,,,test,1,2,3,2583,3,V,0,right,1.050717253005132,1,0,,,,,,,,,,,,,,,,,,,,,1,,,,,,,,,,,,,,,,,,,,,,,,,,,,,,,,,,,,,,,,,,,,,,102,157162,20,Female,1,2024/03/19_10:29:21,YZ,None,
,,,,,,test,1,2,3,2583,4,C,1,left,1.5243867419994785,1,0,,,,,,,,,,,,,,,,,,,,,1,,,,,,,,,,,,,,,,,,,,,,,,,,,,,,,,,,,,,,,,,,,,,,102,157162,20,Female,1,2024/03/19_10:29:21,YZ,None,
,,,,,,test,1,2,3,2583,5,S,1,left,1.9308664680065704,1,0,,,,,,,,,,,,,,,,,,,,,1,,,,,,,,,,,,,,,,,,,,,,,,,,,,,,,,,,,,,,,,,,,,,,102,157162,20,Female,1,2024/03/19_10:29:21,YZ,None,
,,,,,,test,1,2,3,2583,6,X,0,right,1.2242800029998762,1,0,,,,,,,,,,,,,,,,,,,,,1,,,,,,,,,,,,,,,,,,,,,,,,,,,,,,,,,,,,,,,,,,,,,,102,157162,20,Female,1,2024/03/19_10:29:21,YZ,None,
,,,,,,Test,1,2,3,2583,,,,,,,,1.0,1.0,0.0,1.0,0.0,1.0,1.3028968306680326,2,0,0,0,0,4,6,2,4,0,,,,1,,,,,,,,,,,,,,,,,,,,,,,,,,,,,,,,,,,,,,,,,,,,,,102,157162,20,Female,1,2024/03/19_10:29:21,YZ,None,
,,,,,240319_110840,TEST,1,2,3,2583,,,,,,,,,,,,,,,,,,,,,,,,,,,,1,2,2,2,cue1.png,hard,B,49,1.4138452270053676,0,1124.6966135080002,1126.1233076709977,,,,,,,,,,,,,,,,,,,,,,,,,,,,,,,,,,,102,157162,20,Female,1,2024/03/19_10:29:21,YZ,None,
,,,,,,test,1,3,3,2583,1,F,0,right,0.926906083994254,1,0,,,,,,,,,,,,,,,,,,,,,1,,,,,,,,,,,,,,,,,,,,,,,,,,,,,,,,,,,,,,,,,,,,,,102,157162,20,Female,1,2024/03/19_10:29:21,YZ,None,
,,,,,,test,1,3,3,2583,2,F,0,right,1.3681756959995255,1,0,,,,,,,,,,,,,,,,,,,,,1,,,,,,,,,,,,,,,,,,,,,,,,,,,,,,,,,,,,,,,,,,,,,,102,157162,20,Female,1,2024/03/19_10:29:21,YZ,None,
,,,,,,test,1,3,3,2583,3,X,0,right,1.1109836370014818,1,0,,,,,,,,,,,,,,,,,,,,,1,,,,,,,,,,,,,,,,,,,,,,,,,,,,,,,,,,,,,,,,,,,,,,102,157162,20,Female,1,2024/03/19_10:29:21,YZ,None,
,,,,,,test,1,3,3,2583,4,F,1,left,1.3267700879951008,1,0,,,,,,,,,,,,,,,,,,,,,1,,,,,,,,,,,,,,,,,,,,,,,,,,,,,,,,,,,,,,,,,,,,,,102,157162,20,Female,1,2024/03/19_10:29:21,YZ,None,
,,,,,,test,1,3,3,2583,5,S,0,right,1.3342065780016128,1,0,,,,,,,,,,,,,,,,,,,,,1,,,,,,,,,,,,,,,,,,,,,,,,,,,,,,,,,,,,,,,,,,,,,,102,157162,20,Female,1,2024/03/19_10:29:21,YZ,None,
,,,,,,test,1,3,3,2583,6,X,1,left,2.04759058199852,1,0,,,,,,,,,,,,,,,,,,,,,1,,,,,,,,,,,,,,,,,,,,,,,,,,,,,,,,,,,,,,,,,,,,,,102,157162,20,Female,1,2024/03/19_10:29:21,YZ,None,
,,,,,,Test,1,3,3,2583,,,,,,,,1.0,1.0,0.0,1.0,0.0,1.0,1.352438777498416,2,0,0,0,0,4,6,2,4,0,,,,1,,,,,,,,,,,,,,,,,,,,,,,,,,,,,,,,,,,,,,,,,,,,,,102,157162,20,Female,1,2024/03/19_10:29:21,YZ,None,
,,,,,240319_110901,TEST,1,3,3,2583,,,,,,,,,,,,,,,,,,,,,,,,,,,,1,3,3,3,cue1.png,hard,B,34,1.355263097997522,0,1146.230725125999,1147.6130615650036,,,,,,,,,,,,,,,,,,,,,,,,,,,,,,,,,,,102,157162,20,Female,1,2024/03/19_10:29:21,YZ,None,
,,,,,,test,1,4,3,2583,1,N,0,right,0.8743477899988648,1,0,,,,,,,,,,,,,,,,,,,,,1,,,,,,,,,,,,,,,,,,,,,,,,,,,,,,,,,,,,,,,,,,,,,,102,157162,20,Female,1,2024/03/19_10:29:21,YZ,None,
,,,,,,test,1,4,3,2583,2,F,0,right,0.6243756959956954,1,0,,,,,,,,,,,,,,,,,,,,,1,,,,,,,,,,,,,,,,,,,,,,,,,,,,,,,,,,,,,,,,,,,,,,102,157162,20,Female,1,2024/03/19_10:29:21,YZ,None,
,,,,,,test,1,4,3,2583,3,S,0,right,0.804990420001559,1,0,,,,,,,,,,,,,,,,,,,,,1,,,,,,,,,,,,,,,,,,,,,,,,,,,,,,,,,,,,,,,,,,,,,,102,157162,20,Female,1,2024/03/19_10:29:21,YZ,None,
,,,,,,test,1,4,3,2583,4,N,1,left,1.3074219449990778,1,0,,,,,,,,,,,,,,,,,,,,,1,,,,,,,,,,,,,,,,,,,,,,,,,,,,,,,,,,,,,,,,,,,,,,102,157162,20,Female,1,2024/03/19_10:29:21,YZ,None,
,,,,,,test,1,4,3,2583,5,F,1,left,1.0316874039999675,1,0,,,,,,,,,,,,,,,,,,,,,1,,,,,,,,,,,,,,,,,,,,,,,,,,,,,,,,,,,,,,,,,,,,,,102,157162,20,Female,1,2024/03/19_10:29:21,YZ,None,
,,,,,,test,1,4,3,2583,6,F,0,right,0.9264021390044945,1,0,,,,,,,,,,,,,,,,,,,,,1,,,,,,,,,,,,,,,,,,,,,,,,,,,,,,,,,,,,,,,,,,,,,,102,157162,20,Female,1,2024/03/19_10:29:21,YZ,None,
,,,,,,Test,1,4,3,2583,,,,,,,,1.0,1.0,0.0,1.0,0.0,1.0,0.9282042323332765,2,0,0,0,0,4,6,2,4,0,,,,1,,,,,,,,,,,,,,,,,,,,,,,,,,,,,,,,,,,,,,,,,,,,,,102,157162,20,Female,1,2024/03/19_10:29:21,YZ,None,
,,,,,240319_110921,TEST,1,4,3,2583,,,,,,,,,,,,,,,,,,,,,,,,,,,,1,4,4,4,cue1.png,hard,B,30,1.3855092880039592,0,1168.0026623259982,1169.4036912640004,,,,,,,,,,,,,,,,,,,,,,,,,,,,,,,,,,,102,157162,20,Female,1,2024/03/19_10:29:21,YZ,None,
,,,,,,test,1,5,1,2583,1,V,0,right,1.3991455550058163,1,0,,,,,,,,,,,,,,,,,,,,,1,,,,,,,,,,,,,,,,,,,,,,,,,,,,,,,,,,,,,,,,,,,,,,102,157162,20,Female,1,2024/03/19_10:29:21,YZ,None,
,,,,,,test,1,5,1,2583,2,F,0,right,0.8757808360023773,1,0,,,,,,,,,,,,,,,,,,,,,1,,,,,,,,,,,,,,,,,,,,,,,,,,,,,,,,,,,,,,,,,,,,,,102,157162,20,Female,1,2024/03/19_10:29:21,YZ,None,
,,,,,,test,1,5,1,2583,3,F,1,left,0.6839156150017516,1,0,,,,,,,,,,,,,,,,,,,,,1,,,,,,,,,,,,,,,,,,,,,,,,,,,,,,,,,,,,,,,,,,,,,,102,157162,20,Female,1,2024/03/19_10:29:21,YZ,None,
,,,,,,test,1,5,1,2583,4,Q,0,right,0.7011782310000854,1,0,,,,,,,,,,,,,,,,,,,,,1,,,,,,,,,,,,,,,,,,,,,,,,,,,,,,,,,,,,,,,,,,,,,,102,157162,20,Female,1,2024/03/19_10:29:21,YZ,None,
,,,,,,test,1,5,1,2583,5,Q,1,left,0.7760222839933704,1,0,,,,,,,,,,,,,,,,,,,,,1,,,,,,,,,,,,,,,,,,,,,,,,,,,,,,,,,,,,,,,,,,,,,,102,157162,20,Female,1,2024/03/19_10:29:21,YZ,None,
,,,,,,test,1,5,1,2583,6,N,0,right,0.7091980199984391,1,0,,,,,,,,,,,,,,,,,,,,,1,,,,,,,,,,,,,,,,,,,,,,,,,,,,,,,,,,,,,,,,,,,,,,102,157162,20,Female,1,2024/03/19_10:29:21,YZ,None,
,,,,,,Test,1,5,1,2583,,,,,,,,1.0,1.0,0.0,1.0,0.0,1.0,0.8575400901669733,2,0,0,0,0,4,6,2,4,0,,,,1,,,,,,,,,,,,,,,,,,,,,,,,,,,,,,,,,,,,,,,,,,,,,,102,157162,20,Female,1,2024/03/19_10:29:21,YZ,None,
,,,,,240319_110941,TEST,1,5,1,2583,,,,,,,,,,,,,,,,,,,,,,,,,,,,1,5,5,5,cue2.png,easy,B,48,2.6376934309955686,0,1187.260344221002,1189.9158321950017,,,,,,,,,,,,,,,,,,,,,,,,,,,,,,,,,,,102,157162,20,Female,1,2024/03/19_10:29:21,YZ,None,
,,,,,,test,1,6,3,2583,1,V,0,right,1.2069134580015088,1,0,,,,,,,,,,,,,,,,,,,,,1,,,,,,,,,,,,,,,,,,,,,,,,,,,,,,,,,,,,,,,,,,,,,,102,157162,20,Female,1,2024/03/19_10:29:21,YZ,None,
,,,,,,test,1,6,3,2583,2,Q,0,right,1.1582628039977862,1,0,,,,,,,,,,,,,,,,,,,,,1,,,,,,,,,,,,,,,,,,,,,,,,,,,,,,,,,,,,,,,,,,,,,,102,157162,20,Female,1,2024/03/19_10:29:21,YZ,None,
,,,,,,test,1,6,3,2583,3,V,0,right,1.2618801259959582,1,0,,,,,,,,,,,,,,,,,,,,,1,,,,,,,,,,,,,,,,,,,,,,,,,,,,,,,,,,,,,,,,,,,,,,102,157162,20,Female,1,2024/03/19_10:29:21,YZ,None,
,,,,,,test,1,6,3,2583,4,V,1,left,1.335381591001351,1,0,,,,,,,,,,,,,,,,,,,,,1,,,,,,,,,,,,,,,,,,,,,,,,,,,,,,,,,,,,,,,,,,,,,,102,157162,20,Female,1,2024/03/19_10:29:21,YZ,None,
,,,,,,test,1,6,3,2583,5,Q,1,left,1.3934180299984291,1,0,,,,,,,,,,,,,,,,,,,,,1,,,,,,,,,,,,,,,,,,,,,,,,,,,,,,,,,,,,,,,,,,,,,,102,157162,20,Female,1,2024/03/19_10:29:21,YZ,None,
,,,,,,test,1,6,3,2583,6,Q,0,right,0.9663438600036898,1,0,,,,,,,,,,,,,,,,,,,,,1,,,,,,,,,,,,,,,,,,,,,,,,,,,,,,,,,,,,,,,,,,,,,,102,157162,20,Female,1,2024/03/19_10:29:21,YZ,None,
,,,,,,Test,1,6,3,2583,,,,,,,,1.0,1.0,0.0,1.0,0.0,1.0,1.2203666448331205,2,0,0,0,0,4,6,2,4,0,,,,1,,,,,,,,,,,,,,,,,,,,,,,,,,,,,,,,,,,,,,,,,,,,,,102,157162,20,Female,1,2024/03/19_10:29:21,YZ,None,
,,,,,240319_111001,TEST,1,6,3,2583,,,,,,,,,,,,,,,,,,,,,,,,,,,,1,6,6,6,cue1.png,hard,B,45,0.6774647470010677,0,1207.3412942799987,1208.0324212850028,,,,,,,,,,,,,,,,,,,,,,,,,,,,,,,,,,,102,157162,20,Female,1,2024/03/19_10:29:21,YZ,None,
,,,,,,test,1,7,3,2583,1,Q,0,right,1.1087233830039622,1,0,,,,,,,,,,,,,,,,,,,,,1,,,,,,,,,,,,,,,,,,,,,,,,,,,,,,,,,,,,,,,,,,,,,,102,157162,20,Female,1,2024/03/19_10:29:21,YZ,None,
,,,,,,test,1,7,3,2583,2,F,0,right,0.8907622820042889,1,0,,,,,,,,,,,,,,,,,,,,,1,,,,,,,,,,,,,,,,,,,,,,,,,,,,,,,,,,,,,,,,,,,,,,102,157162,20,Female,1,2024/03/19_10:29:21,YZ,None,
,,,,,,test,1,7,3,2583,3,J,0,right,2.389293104999524,1,0,,,,,,,,,,,,,,,,,,,,,1,,,,,,,,,,,,,,,,,,,,,,,,,,,,,,,,,,,,,,,,,,,,,,102,157162,20,Female,1,2024/03/19_10:29:21,YZ,None,
,,,,,,test,1,7,3,2583,4,Q,1,left,0.9693423090066062,1,0,,,,,,,,,,,,,,,,,,,,,1,,,,,,,,,,,,,,,,,,,,,,,,,,,,,,,,,,,,,,,,,,,,,,102,157162,20,Female,1,2024/03/19_10:29:21,YZ,None,
,,,,,,test,1,7,3,2583,5,F,1,left,0.821717840997735,1,0,,,,,,,,,,,,,,,,,,,,,1,,,,,,,,,,,,,,,,,,,,,,,,,,,,,,,,,,,,,,,,,,,,,,102,157162,20,Female,1,2024/03/19_10:29:21,YZ,None,
,,,,,,test,1,7,3,2583,6,Q,0,right,0.8229835339952842,1,0,,,,,,,,,,,,,,,,,,,,,1,,,,,,,,,,,,,,,,,,,,,,,,,,,,,,,,,,,,,,,,,,,,,,102,157162,20,Female,1,2024/03/19_10:29:21,YZ,None,
,,,,,,Test,1,7,3,2583,,,,,,,,1.0,1.0,0.0,1.0,0.0,1.0,1.1671370756679,2,0,0,0,0,4,6,2,4,0,,,,1,,,,,,,,,,,,,,,,,,,,,,,,,,,,,,,,,,,,,,,,,,,,,,102,157162,20,Female,1,2024/03/19_10:29:21,YZ,None,
,,,,,240319_111022,TEST,1,7,3,2583,,,,,,,,,,,,,,,,,,,,,,,,,,,,1,7,7,7,cue1.png,hard,B,25,1.5848110229999293,0,1227.6466140699995,1229.2470009149984,,,,,,,,,,,,,,,,,,,,,,,,,,,,,,,,,,,102,157162,20,Female,1,2024/03/19_10:29:21,YZ,None,
,,,,,,test,1,8,1,2583,1,N,0,right,2.348953893997532,1,0,,,,,,,,,,,,,,,,,,,,,1,,,,,,,,,,,,,,,,,,,,,,,,,,,,,,,,,,,,,,,,,,,,,,102,157162,20,Female,1,2024/03/19_10:29:21,YZ,None,
,,,,,,test,1,8,1,2583,2,Q,0,right,1.049096874994575,1,0,,,,,,,,,,,,,,,,,,,,,1,,,,,,,,,,,,,,,,,,,,,,,,,,,,,,,,,,,,,,,,,,,,,,102,157162,20,Female,1,2024/03/19_10:29:21,YZ,None,
,,,,,,test,1,8,1,2583,3,Q,1,left,0.7582210719992872,1,0,,,,,,,,,,,,,,,,,,,,,1,,,,,,,,,,,,,,,,,,,,,,,,,,,,,,,,,,,,,,,,,,,,,,102,157162,20,Female,1,2024/03/19_10:29:21,YZ,None,
,,,,,,test,1,8,1,2583,4,J,0,right,1.3571588859995245,1,0,,,,,,,,,,,,,,,,,,,,,1,,,,,,,,,,,,,,,,,,,,,,,,,,,,,,,,,,,,,,,,,,,,,,102,157162,20,Female,1,2024/03/19_10:29:21,YZ,None,
,,,,,,test,1,8,1,2583,5,J,1,left,0.7424207609947189,1,0,,,,,,,,,,,,,,,,,,,,,1,,,,,,,,,,,,,,,,,,,,,,,,,,,,,,,,,,,,,,,,,,,,,,102,157162,20,Female,1,2024/03/19_10:29:21,YZ,None,
,,,,,,test,1,8,1,2583,6,F,0,right,0.8018042830008199,1,0,,,,,,,,,,,,,,,,,,,,,1,,,,,,,,,,,,,,,,,,,,,,,,,,,,,,,,,,,,,,,,,,,,,,102,157162,20,Female,1,2024/03/19_10:29:21,YZ,None,
,,,,,,Test,1,8,1,2583,,,,,,,,1.0,1.0,0.0,1.0,0.0,1.0,1.1762759618310763,2,0,0,0,0,4,6,2,4,0,,,,1,,,,,,,,,,,,,,,,,,,,,,,,,,,,,,,,,,,,,,,,,,,,,,102,157162,20,Female,1,2024/03/19_10:29:21,YZ,None,
,,,,,240319_111042,TEST,1,8,1,2583,,,,,,,,,,,,,,,,,,,,,,,,,,,,1,8,8,8,cue2.png,easy,B,30,0.9053747959987959,0,1248.5211741919993,1249.4528027600027,,,,,,,,,,,,,,,,,,,,,,,,,,,,,,,,,,,102,157162,20,Female,1,2024/03/19_10:29:21,YZ,None,
,,,,,,test,1,9,1,2583,1,C,0,right,0.8610581679968163,1,0,,,,,,,,,,,,,,,,,,,,,1,,,,,,,,,,,,,,,,,,,,,,,,,,,,,,,,,,,,,,,,,,,,,,102,157162,20,Female,1,2024/03/19_10:29:21,YZ,None,
,,,,,,test,1,9,1,2583,2,X,0,right,1.1257343289980781,1,0,,,,,,,,,,,,,,,,,,,,,1,,,,,,,,,,,,,,,,,,,,,,,,,,,,,,,,,,,,,,,,,,,,,,102,157162,20,Female,1,2024/03/19_10:29:21,YZ,None,
,,,,,,test,1,9,1,2583,3,Q,0,right,0.858847056995728,1,0,,,,,,,,,,,,,,,,,,,,,1,,,,,,,,,,,,,,,,,,,,,,,,,,,,,,,,,,,,,,,,,,,,,,102,157162,20,Female,1,2024/03/19_10:29:21,YZ,None,
,,,,,,test,1,9,1,2583,4,Q,1,left,0.7241359079998801,1,0,,,,,,,,,,,,,,,,,,,,,1,,,,,,,,,,,,,,,,,,,,,,,,,,,,,,,,,,,,,,,,,,,,,,102,157162,20,Female,1,2024/03/19_10:29:21,YZ,None,
,,,,,,test,1,9,1,2583,5,N,0,right,0.8750244550028583,1,0,,,,,,,,,,,,,,,,,,,,,1,,,,,,,,,,,,,,,,,,,,,,,,,,,,,,,,,,,,,,,,,,,,,,102,157162,20,Female,1,2024/03/19_10:29:21,YZ,None,
,,,,,,test,1,9,1,2583,6,N,1,left,0.7114109240064863,1,0,,,,,,,,,,,,,,,,,,,,,1,,,,,,,,,,,,,,,,,,,,,,,,,,,,,,,,,,,,,,,,,,,,,,102,157162,20,Female,1,2024/03/19_10:29:21,YZ,None,
,,,,,,Test,1,9,1,2583,,,,,,,,1.0,1.0,0.0,1.0,0.0,1.0,0.8593684734999746,2,0,0,0,0,4,6,2,4,0,,,,1,,,,,,,,,,,,,,,,,,,,,,,,,,,,,,,,,,,,,,,,,,,,,,102,157162,20,Female,1,2024/03/19_10:29:21,YZ,None,
,,,,,240319_111100,TEST,1,9,1,2583,,,,,,,,,,,,,,,,,,,,,,,,,,,,1,9,9,9,cue2.png,easy,B,34,0.9122329229940078,0,1268.8022544710038,1269.7411044719993,,,,,,,,,,,,,,,,,,,,,,,,,,,,,,,,,,,102,157162,20,Female,1,2024/03/19_10:29:21,YZ,None,
,,,,,,test,1,10,3,2583,1,C,0,right,1.00890215599793,1,0,,,,,,,,,,,,,,,,,,,,,1,,,,,,,,,,,,,,,,,,,,,,,,,,,,,,,,,,,,,,,,,,,,,,102,157162,20,Female,1,2024/03/19_10:29:21,YZ,None,
,,,,,,test,1,10,3,2583,2,X,0,right,0.9578667780006072,1,0,,,,,,,,,,,,,,,,,,,,,1,,,,,,,,,,,,,,,,,,,,,,,,,,,,,,,,,,,,,,,,,,,,,,102,157162,20,Female,1,2024/03/19_10:29:21,YZ,None,
,,,,,,test,1,10,3,2583,3,C,0,right,1.039515794000181,1,0,,,,,,,,,,,,,,,,,,,,,1,,,,,,,,,,,,,,,,,,,,,,,,,,,,,,,,,,,,,,,,,,,,,,102,157162,20,Female,1,2024/03/19_10:29:21,YZ,None,
,,,,,,test,1,10,3,2583,4,C,1,left,1.0184597349943942,1,0,,,,,,,,,,,,,,,,,,,,,1,,,,,,,,,,,,,,,,,,,,,,,,,,,,,,,,,,,,,,,,,,,,,,102,157162,20,Female,1,2024/03/19_10:29:21,YZ,None,
,,,,,,test,1,10,3,2583,5,F,0,right,0.9350896480027586,1,0,,,,,,,,,,,,,,,,,,,,,1,,,,,,,,,,,,,,,,,,,,,,,,,,,,,,,,,,,,,,,,,,,,,,102,157162,20,Female,1,2024/03/19_10:29:21,YZ,None,
,,,,,,test,1,10,3,2583,6,C,1,left,1.0887503220001236,1,0,,,,,,,,,,,,,,,,,,,,,1,,,,,,,,,,,,,,,,,,,,,,,,,,,,,,,,,,,,,,,,,,,,,,102,157162,20,Female,1,2024/03/19_10:29:21,YZ,None,
,,,,,,Test,1,10,3,2583,,,,,,,,1.0,1.0,0.0,1.0,0.0,1.0,1.0080974054993324,2,0,0,0,0,4,6,2,4,0,,,,1,,,,,,,,,,,,,,,,,,,,,,,,,,,,,,,,,,,,,,,,,,,,,,102,157162,20,Female,1,2024/03/19_10:29:21,YZ,None,
,,,,,240319_111120,TEST,1,10,3,2583,,,,,,,,,,,,,,,,,,,,,,,,,,,,1,10,10,10,cue1.png,hard,B,35,1.5180388980006683,0,1287.1731150560008,1288.7073568100022,,,,,,,,,,,,,,,,,,,,,,,,,,,,,,,,,,,102,157162,20,Female,1,2024/03/19_10:29:21,YZ,None,
,,,,,,test,1,11,1,2583,1,S,0,right,0.7084712289943127,1,0,,,,,,,,,,,,,,,,,,,,,1,,,,,,,,,,,,,,,,,,,,,,,,,,,,,,,,,,,,,,,,,,,,,,102,157162,20,Female,1,2024/03/19_10:29:21,YZ,None,
,,,,,,test,1,11,1,2583,2,S,1,left,0.6519223380018957,1,0,,,,,,,,,,,,,,,,,,,,,1,,,,,,,,,,,,,,,,,,,,,,,,,,,,,,,,,,,,,,,,,,,,,,102,157162,20,Female,1,2024/03/19_10:29:21,YZ,None,
,,,,,,test,1,11,1,2583,3,F,0,right,0.8681440400032443,1,0,,,,,,,,,,,,,,,,,,,,,1,,,,,,,,,,,,,,,,,,,,,,,,,,,,,,,,,,,,,,,,,,,,,,102,157162,20,Female,1,2024/03/19_10:29:21,YZ,None,
,,,,,,test,1,11,1,2583,4,S,0,right,1.5899885870021535,1,0,,,,,,,,,,,,,,,,,,,,,1,,,,,,,,,,,,,,,,,,,,,,,,,,,,,,,,,,,,,,,,,,,,,,102,157162,20,Female,1,2024/03/19_10:29:21,YZ,None,
,,,,,,test,1,11,1,2583,5,C,0,right,0.9341852550060139,1,0,,,,,,,,,,,,,,,,,,,,,1,,,,,,,,,,,,,,,,,,,,,,,,,,,,,,,,,,,,,,,,,,,,,,102,157162,20,Female,1,2024/03/19_10:29:21,YZ,None,
,,,,,,test,1,11,1,2583,6,C,1,left,0.7863343360004365,1,0,,,,,,,,,,,,,,,,,,,,,1,,,,,,,,,,,,,,,,,,,,,,,,,,,,,,,,,,,,,,,,,,,,,,102,157162,20,Female,1,2024/03/19_10:29:21,YZ,None,
,,,,,,Test,1,11,1,2583,,,,,,,,1.0,1.0,0.0,1.0,0.0,1.0,0.9231742975013427,2,0,0,0,0,4,6,2,4,0,,,,1,,,,,,,,,,,,,,,,,,,,,,,,,,,,,,,,,,,,,,,,,,,,,,102,157162,20,Female,1,2024/03/19_10:29:21,YZ,None,
,,,,,240319_111139,TEST,1,11,1,2583,,,,,,,,,,,,,,,,,,,,,,,,,,,,1,11,11,11,cue2.png,easy,B,19,0.954811219999101,0,1307.0306536479984,1308.0127810269987,,,,,,,,,,,,,,,,,,,,,,,,,,,,,,,,,,,102,157162,20,Female,1,2024/03/19_10:29:21,YZ,None,
,,,,,,test,1,12,3,2583,1,N,0,right,1.5834683459979715,1,0,,,,,,,,,,,,,,,,,,,,,1,,,,,,,,,,,,,,,,,,,,,,,,,,,,,,,,,,,,,,,,,,,,,,102,157162,20,Female,1,2024/03/19_10:29:21,YZ,None,
,,,,,,test,1,12,3,2583,2,Q,0,right,0.5309091850067489,1,0,,,,,,,,,,,,,,,,,,,,,1,,,,,,,,,,,,,,,,,,,,,,,,,,,,,,,,,,,,,,,,,,,,,,102,157162,20,Female,1,2024/03/19_10:29:21,YZ,None,
,,,,,,test,1,12,3,2583,3,C,0,right,1.0249137460050406,1,0,,,,,,,,,,,,,,,,,,,,,1,,,,,,,,,,,,,,,,,,,,,,,,,,,,,,,,,,,,,,,,,,,,,,102,157162,20,Female,1,2024/03/19_10:29:21,YZ,None,
,,,,,,test,1,12,3,2583,4,S,0,right,1.2248272910001106,1,0,,,,,,,,,,,,,,,,,,,,,1,,,,,,,,,,,,,,,,,,,,,,,,,,,,,,,,,,,,,,,,,,,,,,102,157162,20,Female,1,2024/03/19_10:29:21,YZ,None,
,,,,,,test,1,12,3,2583,5,Q,1,left,1.1088363440067042,1,0,,,,,,,,,,,,,,,,,,,,,1,,,,,,,,,,,,,,,,,,,,,,,,,,,,,,,,,,,,,,,,,,,,,,102,157162,20,Female,1,2024/03/19_10:29:21,YZ,None,
,,,,,,test,1,12,3,2583,6,C,1,left,1.1592461500040372,1,0,,,,,,,,,,,,,,,,,,,,,1,,,,,,,,,,,,,,,,,,,,,,,,,,,,,,,,,,,,,,,,,,,,,,102,157162,20,Female,1,2024/03/19_10:29:21,YZ,None,
,,,,,,Test,1,12,3,2583,,,,,,,,1.0,1.0,0.0,1.0,0.0,1.0,1.105366843670102,2,0,0,0,0,4,6,2,4,0,,,,1,,,,,,,,,,,,,,,,,,,,,,,,,,,,,,,,,,,,,,,,,,,,,,102,157162,20,Female,1,2024/03/19_10:29:21,YZ,None,
,,,,,240319_111159,TEST,1,12,3,2583,,,,,,,,,,,,,,,,,,,,,,,,,,,,1,12,12,12,cue1.png,hard,B,23,0.8482407420015079,0,1325.8280716470035,1326.692556095004,,,,,,,,,,,,,,,,,,,,,,,,,,,,,,,,,,,102,157162,20,Female,1,2024/03/19_10:29:21,YZ,None,
,,,,,,test,1,13,1,2583,1,X,0,right,0.9315643480003928,1,0,,,,,,,,,,,,,,,,,,,,,1,,,,,,,,,,,,,,,,,,,,,,,,,,,,,,,,,,,,,,,,,,,,,,102,157162,20,Female,1,2024/03/19_10:29:21,YZ,None,
,,,,,,test,1,13,1,2583,2,X,1,left,0.7481300819999888,1,0,,,,,,,,,,,,,,,,,,,,,1,,,,,,,,,,,,,,,,,,,,,,,,,,,,,,,,,,,,,,,,,,,,,,102,157162,20,Female,1,2024/03/19_10:29:21,YZ,None,
,,,,,,test,1,13,1,2583,3,C,0,right,0.8083010550035397,1,0,,,,,,,,,,,,,,,,,,,,,1,,,,,,,,,,,,,,,,,,,,,,,,,,,,,,,,,,,,,,,,,,,,,,102,157162,20,Female,1,2024/03/19_10:29:21,YZ,None,
,,,,,,test,1,13,1,2583,4,V,0,right,1.2759156280008028,1,0,,,,,,,,,,,,,,,,,,,,,1,,,,,,,,,,,,,,,,,,,,,,,,,,,,,,,,,,,,,,,,,,,,,,102,157162,20,Female,1,2024/03/19_10:29:21,YZ,None,
,,,,,,test,1,13,1,2583,5,N,0,right,1.5159787759985193,1,0,,,,,,,,,,,,,,,,,,,,,1,,,,,,,,,,,,,,,,,,,,,,,,,,,,,,,,,,,,,,,,,,,,,,102,157162,20,Female,1,2024/03/19_10:29:21,YZ,None,
,,,,,,test,1,13,1,2583,6,N,1,left,0.791150759003358,1,0,,,,,,,,,,,,,,,,,,,,,1,,,,,,,,,,,,,,,,,,,,,,,,,,,,,,,,,,,,,,,,,,,,,,102,157162,20,Female,1,2024/03/19_10:29:21,YZ,None,
,,,,,,Test,1,13,1,2583,,,,,,,,1.0,1.0,0.0,1.0,0.0,1.0,1.0118401080011001,2,0,0,0,0,4,6,2,4,0,,,,1,,,,,,,,,,,,,,,,,,,,,,,,,,,,,,,,,,,,,,,,,,,,,,102,157162,20,Female,1,2024/03/19_10:29:21,YZ,None,
,,,,,240319_111218,TEST,1,13,1,2583,,,,,,,,,,,,,,,,,,,,,,,,,,,,1,13,13,13,cue2.png,easy,B,23,0.5604523580041132,0,1345.6095593339996,1346.183234574004,,,,,,,,,,,,,,,,,,,,,,,,,,,,,,,,,,,102,157162,20,Female,1,2024/03/19_10:29:21,YZ,None,
,,,,,,test,1,14,3,2583,1,X,0,right,1.1167082600004505,1,0,,,,,,,,,,,,,,,,,,,,,1,,,,,,,,,,,,,,,,,,,,,,,,,,,,,,,,,,,,,,,,,,,,,,102,157162,20,Female,1,2024/03/19_10:29:21,YZ,None,
,,,,,,test,1,14,3,2583,2,N,0,right,1.0323503100007656,1,0,,,,,,,,,,,,,,,,,,,,,1,,,,,,,,,,,,,,,,,,,,,,,,,,,,,,,,,,,,,,,,,,,,,,102,157162,20,Female,1,2024/03/19_10:29:21,YZ,None,
,,,,,,test,1,14,3,2583,3,S,0,right,0.657904581996263,1,0,,,,,,,,,,,,,,,,,,,,,1,,,,,,,,,,,,,,,,,,,,,,,,,,,,,,,,,,,,,,,,,,,,,,102,157162,20,Female,1,2024/03/19_10:29:21,YZ,None,
,,,,,,test,1,14,3,2583,4,V,0,right,0.8692994589946466,1,0,,,,,,,,,,,,,,,,,,,,,1,,,,,,,,,,,,,,,,,,,,,,,,,,,,,,,,,,,,,,,,,,,,,,102,157162,20,Female,1,2024/03/19_10:29:21,YZ,None,
,,,,,,test,1,14,3,2583,5,N,1,left,0.6775246320030419,1,0,,,,,,,,,,,,,,,,,,,,,1,,,,,,,,,,,,,,,,,,,,,,,,,,,,,,,,,,,,,,,,,,,,,,102,157162,20,Female,1,2024/03/19_10:29:21,YZ,None,
,,,,,,test,1,14,3,2583,6,S,1,left,3.3779112119955244,1,0,,,,,,,,,,,,,,,,,,,,,1,,,,,,,,,,,,,,,,,,,,,,,,,,,,,,,,,,,,,,,,,,,,,,102,157162,20,Female,1,2024/03/19_10:29:21,YZ,None,
,,,,,,Test,1,14,3,2583,,,,,,,,1.0,1.0,0.0,1.0,0.0,1.0,1.2886164091651153,2,0,0,0,0,4,6,2,4,0,,,,1,,,,,,,,,,,,,,,,,,,,,,,,,,,,,,,,,,,,,,,,,,,,,,102,157162,20,Female,1,2024/03/19_10:29:21,YZ,None,
,,,,,240319_111239,TEST,1,14,3,2583,,,,,,,,,,,,,,,,,,,,,,,,,,,,1,14,14,14,cue1.png,hard,B,9,1.522409767996578,0,1364.5383220000003,1366.0785727320035,,,,,,,,,,,,,,,,,,,,,,,,,,,,,,,,,,,102,157162,20,Female,1,2024/03/19_10:29:21,YZ,None,
,,,,,,test,1,15,1,2583,1,S,0,right,0.8211302019990399,1,0,,,,,,,,,,,,,,,,,,,,,1,,,,,,,,,,,,,,,,,,,,,,,,,,,,,,,,,,,,,,,,,,,,,,102,157162,20,Female,1,2024/03/19_10:29:21,YZ,None,
,,,,,,test,1,15,1,2583,2,F,0,right,1.1336055299980217,1,0,,,,,,,,,,,,,,,,,,,,,1,,,,,,,,,,,,,,,,,,,,,,,,,,,,,,,,,,,,,,,,,,,,,,102,157162,20,Female,1,2024/03/19_10:29:21,YZ,None,
,,,,,,test,1,15,1,2583,3,F,1,left,0.7417386009983602,1,0,,,,,,,,,,,,,,,,,,,,,1,,,,,,,,,,,,,,,,,,,,,,,,,,,,,,,,,,,,,,,,,,,,,,102,157162,20,Female,1,2024/03/19_10:29:21,YZ,None,
,,,,,,test,1,15,1,2583,4,J,0,right,0.9104150610000943,1,0,,,,,,,,,,,,,,,,,,,,,1,,,,,,,,,,,,,,,,,,,,,,,,,,,,,,,,,,,,,,,,,,,,,,102,157162,20,Female,1,2024/03/19_10:29:21,YZ,None,
,,,,,,test,1,15,1,2583,5,N,0,right,0.9758083720007562,1,0,,,,,,,,,,,,,,,,,,,,,1,,,,,,,,,,,,,,,,,,,,,,,,,,,,,,,,,,,,,,,,,,,,,,102,157162,20,Female,1,2024/03/19_10:29:21,YZ,None,
,,,,,,test,1,15,1,2583,6,N,1,left,0.6216819879991817,1,0,,,,,,,,,,,,,,,,,,,,,1,,,,,,,,,,,,,,,,,,,,,,,,,,,,,,,,,,,,,,,,,,,,,,102,157162,20,Female,1,2024/03/19_10:29:21,YZ,None,
,,,,,,Test,1,15,1,2583,,,,,,,,1.0,1.0,0.0,1.0,0.0,1.0,0.867396625665909,2,0,0,0,0,4,6,2,4,0,,,,1,,,,,,,,,,,,,,,,,,,,,,,,,,,,,,,,,,,,,,,,,,,,,,102,157162,20,Female,1,2024/03/19_10:29:21,YZ,None,
,,,,,240319_111257,TEST,1,15,1,2583,,,,,,,,,,,,,,,,,,,,,,,,,,,,1,15,15,15,cue2.png,easy,B,13,0.5613204280016362,0,1386.088757065998,1386.662649775004,,,,,,,,,,,,,,,,,,,,,,,,,,,,,,,,,,,102,157162,20,Female,1,2024/03/19_10:29:21,YZ,None,
,,,,,,test,1,16,1,2583,1,N,0,right,0.9322553110032459,1,0,,,,,,,,,,,,,,,,,,,,,1,,,,,,,,,,,,,,,,,,,,,,,,,,,,,,,,,,,,,,,,,,,,,,102,157162,20,Female,1,2024/03/19_10:29:21,YZ,None,
,,,,,,test,1,16,1,2583,2,J,0,right,1.2371767590011586,1,0,,,,,,,,,,,,,,,,,,,,,1,,,,,,,,,,,,,,,,,,,,,,,,,,,,,,,,,,,,,,,,,,,,,,102,157162,20,Female,1,2024/03/19_10:29:21,YZ,None,
,,,,,,test,1,16,1,2583,3,J,1,left,0.6465356639964739,1,0,,,,,,,,,,,,,,,,,,,,,1,,,,,,,,,,,,,,,,,,,,,,,,,,,,,,,,,,,,,,,,,,,,,,102,157162,20,Female,1,2024/03/19_10:29:21,YZ,None,
,,,,,,test,1,16,1,2583,4,X,0,right,0.7748007269983646,1,0,,,,,,,,,,,,,,,,,,,,,1,,,,,,,,,,,,,,,,,,,,,,,,,,,,,,,,,,,,,,,,,,,,,,102,157162,20,Female,1,2024/03/19_10:29:21,YZ,None,
,,,,,,test,1,16,1,2583,5,X,1,left,0.6510316630010493,1,0,,,,,,,,,,,,,,,,,,,,,1,,,,,,,,,,,,,,,,,,,,,,,,,,,,,,,,,,,,,,,,,,,,,,102,157162,20,Female,1,2024/03/19_10:29:21,YZ,None,
,,,,,,test,1,16,1,2583,6,F,0,right,1.4560077369969804,1,0,,,,,,,,,,,,,,,,,,,,,1,,,,,,,,,,,,,,,,,,,,,,,,,,,,,,,,,,,,,,,,,,,,,,102,157162,20,Female,1,2024/03/19_10:29:21,YZ,None,
,,,,,,Test,1,16,1,2583,,,,,,,,1.0,1.0,0.0,1.0,0.0,1.0,0.9496346434995454,2,0,0,0,0,4,6,2,4,0,,,,1,,,,,,,,,,,,,,,,,,,,,,,,,,,,,,,,,,,,,,,,,,,,,,102,157162,20,Female,1,2024/03/19_10:29:21,YZ,None,
,,,,,240319_111316,TEST,1,16,1,2583,,,,,,,,,,,,,,,,,,,,,,,,,,,,1,16,16,16,cue2.png,easy,B,15,0.5714294639983564,0,1404.1506272370025,1404.7392484070006,,,,,,,,,,,,,,,,,,,,,,,,,,,,,,,,,,,102,157162,20,Female,1,2024/03/19_10:29:21,YZ,None,
,,,,,,test,1,17,3,2583,1,F,0,right,1.0416012069981662,1,0,,,,,,,,,,,,,,,,,,,,,1,,,,,,,,,,,,,,,,,,,,,,,,,,,,,,,,,,,,,,,,,,,,,,102,157162,20,Female,1,2024/03/19_10:29:21,YZ,None,
,,,,,,test,1,17,3,2583,2,F,0,right,0.9747048880017246,1,0,,,,,,,,,,,,,,,,,,,,,1,,,,,,,,,,,,,,,,,,,,,,,,,,,,,,,,,,,,,,,,,,,,,,102,157162,20,Female,1,2024/03/19_10:29:21,YZ,None,
,,,,,,test,1,17,3,2583,3,Q,0,right,1.1386214399972232,1,0,,,,,,,,,,,,,,,,,,,,,1,,,,,,,,,,,,,,,,,,,,,,,,,,,,,,,,,,,,,,,,,,,,,,102,157162,20,Female,1,2024/03/19_10:29:21,YZ,None,
,,,,,,test,1,17,3,2583,4,V,0,right,1.1752491170045687,1,0,,,,,,,,,,,,,,,,,,,,,1,,,,,,,,,,,,,,,,,,,,,,,,,,,,,,,,,,,,,,,,,,,,,,102,157162,20,Female,1,2024/03/19_10:29:21,YZ,None,
,,,,,,test,1,17,3,2583,5,F,1,left,0.7080274580002879,1,0,,,,,,,,,,,,,,,,,,,,,1,,,,,,,,,,,,,,,,,,,,,,,,,,,,,,,,,,,,,,,,,,,,,,102,157162,20,Female,1,2024/03/19_10:29:21,YZ,None,
,,,,,,test,1,17,3,2583,6,Q,1,left,2.372186205997423,1,0,,,,,,,,,,,,,,,,,,,,,1,,,,,,,,,,,,,,,,,,,,,,,,,,,,,,,,,,,,,,,,,,,,,,102,157162,20,Female,1,2024/03/19_10:29:21,YZ,None,
,,,,,,Test,1,17,3,2583,,,,,,,,1.0,1.0,0.0,1.0,0.0,1.0,1.2350650526665656,2,0,0,0,0,4,6,2,4,0,,,,1,,,,,,,,,,,,,,,,,,,,,,,,,,,,,,,,,,,,,,,,,,,,,,102,157162,20,Female,1,2024/03/19_10:29:21,YZ,None,
,,,,,240319_111337,TEST,1,17,3,2583,,,,,,,,,,,,,,,,,,,,,,,,,,,,1,17,17,17,cue1.png,hard,B,15,1.111709239994525,0,1422.7146284050032,1423.8387490460009,,,,,,,,,,,,,,,,,,,,,,,,,,,,,,,,,,,102,157162,20,Female,1,2024/03/19_10:29:21,YZ,None,
,,,,,,test,1,18,3,2583,1,C,0,right,0.7578821759962011,1,0,,,,,,,,,,,,,,,,,,,,,1,,,,,,,,,,,,,,,,,,,,,,,,,,,,,,,,,,,,,,,,,,,,,,102,157162,20,Female,1,2024/03/19_10:29:21,YZ,None,
,,,,,,test,1,18,3,2583,2,J,0,right,0.7679269990039757,1,0,,,,,,,,,,,,,,,,,,,,,1,,,,,,,,,,,,,,,,,,,,,,,,,,,,,,,,,,,,,,,,,,,,,,102,157162,20,Female,1,2024/03/19_10:29:21,YZ,None,
,,,,,,test,1,18,3,2583,3,X,0,right,0.6933093749976251,1,0,,,,,,,,,,,,,,,,,,,,,1,,,,,,,,,,,,,,,,,,,,,,,,,,,,,,,,,,,,,,,,,,,,,,102,157162,20,Female,1,2024/03/19_10:29:21,YZ,None,
,,,,,,test,1,18,3,2583,4,C,1,left,0.9423490150002181,1,0,,,,,,,,,,,,,,,,,,,,,1,,,,,,,,,,,,,,,,,,,,,,,,,,,,,,,,,,,,,,,,,,,,,,102,157162,20,Female,1,2024/03/19_10:29:21,YZ,None,
,,,,,,test,1,18,3,2583,5,J,1,right,1.2253188739996403,0,0,,,,,,,,,,,,,,,,,,,,,1,,,,,,,,,,,,,,,,,,,,,,,,,,,,,,,,,,,,,,,,,,,,,,102,157162,20,Female,1,2024/03/19_10:29:21,YZ,None,
,,,,,,test,1,18,3,2583,6,V,0,right,1.1475443359959172,1,0,,,,,,,,,,,,,,,,,,,,,1,,,,,,,,,,,,,,,,,,,,,,,,,,,,,,,,,,,,,,,,,,,,,,102,157162,20,Female,1,2024/03/19_10:29:21,YZ,None,
,,,,,,Test,1,18,3,2583,,,,,,,,0.875,0.5,0.0,1.0,0.0,1.0,0.9223884624989296,1,0,0,0,0,4,5,2,4,0,,,,1,,,,,,,,,,,,,,,,,,,,,,,,,,,,,,,,,,,,,,,,,,,,,,102,157162,20,Female,1,2024/03/19_10:29:21,YZ,None,
,,,,,240319_111355,TEST,1,18,3,2583,,,,,,,,,,,,,,,,,,,,,,,,,,,,1,18,18,18,cue1.png,hard,B,14,0.5294401240025763,0,1443.5296509010004,1444.085001188003,,,,,,,,,,,,,,,,,,,,,,,,,,,,,,,,,,,102,157162,20,Female,1,2024/03/19_10:29:21,YZ,None,
,,,,,,test,1,19,1,2583,1,N,0,right,0.5317960500033223,1,0,,,,,,,,,,,,,,,,,,,,,1,,,,,,,,,,,,,,,,,,,,,,,,,,,,,,,,,,,,,,,,,,,,,,102,157162,20,Female,1,2024/03/19_10:29:21,YZ,None,
,,,,,,test,1,19,1,2583,2,N,1,left,0.648093649004295,1,0,,,,,,,,,,,,,,,,,,,,,1,,,,,,,,,,,,,,,,,,,,,,,,,,,,,,,,,,,,,,,,,,,,,,102,157162,20,Female,1,2024/03/19_10:29:21,YZ,None,
,,,,,,test,1,19,1,2583,3,J,0,right,0.6410810860033962,1,0,,,,,,,,,,,,,,,,,,,,,1,,,,,,,,,,,,,,,,,,,,,,,,,,,,,,,,,,,,,,,,,,,,,,102,157162,20,Female,1,2024/03/19_10:29:21,YZ,None,
,,,,,,test,1,19,1,2583,4,Q,0,right,0.742678894996061,1,0,,,,,,,,,,,,,,,,,,,,,1,,,,,,,,,,,,,,,,,,,,,,,,,,,,,,,,,,,,,,,,,,,,,,102,157162,20,Female,1,2024/03/19_10:29:21,YZ,None,
,,,,,,test,1,19,1,2583,5,F,0,right,0.9494343930055038,1,0,,,,,,,,,,,,,,,,,,,,,1,,,,,,,,,,,,,,,,,,,,,,,,,,,,,,,,,,,,,,,,,,,,,,102,157162,20,Female,1,2024/03/19_10:29:21,YZ,None,
,,,,,,test,1,19,1,2583,6,F,1,left,0.6487696339972899,1,0,,,,,,,,,,,,,,,,,,,,,1,,,,,,,,,,,,,,,,,,,,,,,,,,,,,,,,,,,,,,,,,,,,,,102,157162,20,Female,1,2024/03/19_10:29:21,YZ,None,
,,,,,,Test,1,19,1,2583,,,,,,,,1.0,1.0,0.0,1.0,0.0,1.0,0.6936422845016447,2,0,0,0,0,4,6,2,4,0,,,,1,,,,,,,,,,,,,,,,,,,,,,,,,,,,,,,,,,,,,,,,,,,,,,102,157162,20,Female,1,2024/03/19_10:29:21,YZ,None,
,,,,,240319_111413,TEST,1,19,1,2583,,,,,,,,,,,,,,,,,,,,,,,,,,,,1,19,19,19,cue2.png,easy,B,9,1.2549139019974973,0,1461.8932983490013,1463.1656528770036,,,,,,,,,,,,,,,,,,,,,,,,,,,,,,,,,,,102,157162,20,Female,1,2024/03/19_10:29:21,YZ,None,
,,,,,,test,1,20,1,2583,1,Q,0,right,1.221793994998734,1,0,,,,,,,,,,,,,,,,,,,,,1,,,,,,,,,,,,,,,,,,,,,,,,,,,,,,,,,,,,,,,,,,,,,,102,157162,20,Female,1,2024/03/19_10:29:21,YZ,None,
,,,,,,test,1,20,1,2583,2,F,0,right,0.6989614789999905,1,0,,,,,,,,,,,,,,,,,,,,,1,,,,,,,,,,,,,,,,,,,,,,,,,,,,,,,,,,,,,,,,,,,,,,102,157162,20,Female,1,2024/03/19_10:29:21,YZ,None,
,,,,,,test,1,20,1,2583,3,C,0,right,0.8750257030042121,1,0,,,,,,,,,,,,,,,,,,,,,1,,,,,,,,,,,,,,,,,,,,,,,,,,,,,,,,,,,,,,,,,,,,,,102,157162,20,Female,1,2024/03/19_10:29:21,YZ,None,
,,,,,,test,1,20,1,2583,4,C,1,left,0.4118554539963952,1,0,,,,,,,,,,,,,,,,,,,,,1,,,,,,,,,,,,,,,,,,,,,,,,,,,,,,,,,,,,,,,,,,,,,,102,157162,20,Female,1,2024/03/19_10:29:21,YZ,None,
,,,,,,test,1,20,1,2583,5,F,0,right,0.8459872259991243,1,0,,,,,,,,,,,,,,,,,,,,,1,,,,,,,,,,,,,,,,,,,,,,,,,,,,,,,,,,,,,,,,,,,,,,102,157162,20,Female,1,2024/03/19_10:29:21,YZ,None,
,,,,,,test,1,20,1,2583,6,F,1,right,0.43267407099483535,0,0,,,,,,,,,,,,,,,,,,,,,1,,,,,,,,,,,,,,,,,,,,,,,,,,,,,,,,,,,,,,,,,,,,,,102,157162,20,Female,1,2024/03/19_10:29:21,YZ,None,
,,,,,,Test,1,20,1,2583,,,,,,,,0.875,0.5,0.0,1.0,0.0,1.0,0.7477163213322152,1,0,0,0,0,4,5,2,4,0,,,,1,,,,,,,,,,,,,,,,,,,,,,,,,,,,,,,,,,,,,,,,,,,,,,102,157162,20,Female,1,2024/03/19_10:29:21,YZ,None,
,,,,,240319_111431,TEST,1,20,1,2583,,,,,,,,,,,,,,,,,,,,,,,,,,,,1,20,20,20,cue2.png,easy,B,14,0.9709547509992262,0,1479.6123343369982,1480.5981071940041,,,,,,,,,,,,,,,,,,,,,,,,,,,,,,,,,,,102,157162,20,Female,1,2024/03/19_10:29:21,YZ,None,
,,,,,,test,1,21,1,2583,1,C,0,right,0.6932242920011049,1,0,,,,,,,,,,,,,,,,,,,,,1,,,,,,,,,,,,,,,,,,,,,,,,,,,,,,,,,,,,,,,,,,,,,,102,157162,20,Female,1,2024/03/19_10:29:21,YZ,None,
,,,,,,test,1,21,1,2583,2,X,0,right,0.7582477989999461,1,0,,,,,,,,,,,,,,,,,,,,,1,,,,,,,,,,,,,,,,,,,,,,,,,,,,,,,,,,,,,,,,,,,,,,102,157162,20,Female,1,2024/03/19_10:29:21,YZ,None,
,,,,,,test,1,21,1,2583,3,X,1,left,0.7075163979970966,1,0,,,,,,,,,,,,,,,,,,,,,1,,,,,,,,,,,,,,,,,,,,,,,,,,,,,,,,,,,,,,,,,,,,,,102,157162,20,Female,1,2024/03/19_10:29:21,YZ,None,
,,,,,,test,1,21,1,2583,4,Q,0,right,0.7650194260058925,1,0,,,,,,,,,,,,,,,,,,,,,1,,,,,,,,,,,,,,,,,,,,,,,,,,,,,,,,,,,,,,,,,,,,,,102,157162,20,Female,1,2024/03/19_10:29:21,YZ,None,
,,,,,,test,1,21,1,2583,5,X,0,right,0.9418014659968321,1,0,,,,,,,,,,,,,,,,,,,,,1,,,,,,,,,,,,,,,,,,,,,,,,,,,,,,,,,,,,,,,,,,,,,,102,157162,20,Female,1,2024/03/19_10:29:21,YZ,None,
,,,,,,test,1,21,1,2583,6,X,1,left,0.5125090299989097,1,0,,,,,,,,,,,,,,,,,,,,,1,,,,,,,,,,,,,,,,,,,,,,,,,,,,,,,,,,,,,,,,,,,,,,102,157162,20,Female,1,2024/03/19_10:29:21,YZ,None,
,,,,,,Test,1,21,1,2583,,,,,,,,1.0,1.0,0.0,1.0,0.0,1.0,0.7297197351666304,2,0,0,0,0,4,6,2,4,0,,,,1,,,,,,,,,,,,,,,,,,,,,,,,,,,,,,,,,,,,,,,,,,,,,,102,157162,20,Female,1,2024/03/19_10:29:21,YZ,None,
,,,,,240319_111448,TEST,1,21,1,2583,,,,,,,,,,,,,,,,,,,,,,,,,,,,1,21,21,21,cue2.png,easy,B,9,1.1379546800017124,0,1497.3526207079994,1498.507915358001,,,,,,,,,,,,,,,,,,,,,,,,,,,,,,,,,,,102,157162,20,Female,1,2024/03/19_10:29:21,YZ,None,
,,,,,,test,1,22,3,2583,1,S,0,right,0.732490495996899,1,0,,,,,,,,,,,,,,,,,,,,,1,,,,,,,,,,,,,,,,,,,,,,,,,,,,,,,,,,,,,,,,,,,,,,102,157162,20,Female,1,2024/03/19_10:29:21,YZ,None,
,,,,,,test,1,22,3,2583,2,X,0,right,1.095144981998601,1,0,,,,,,,,,,,,,,,,,,,,,1,,,,,,,,,,,,,,,,,,,,,,,,,,,,,,,,,,,,,,,,,,,,,,102,157162,20,Female,1,2024/03/19_10:29:21,YZ,None,
,,,,,,test,1,22,3,2583,3,S,0,right,1.565610056000878,1,0,,,,,,,,,,,,,,,,,,,,,1,,,,,,,,,,,,,,,,,,,,,,,,,,,,,,,,,,,,,,,,,,,,,,102,157162,20,Female,1,2024/03/19_10:29:21,YZ,None,
,,,,,,test,1,22,3,2583,4,J,0,right,0.9979655509960139,1,0,,,,,,,,,,,,,,,,,,,,,1,,,,,,,,,,,,,,,,,,,,,,,,,,,,,,,,,,,,,,,,,,,,,,102,157162,20,Female,1,2024/03/19_10:29:21,YZ,None,
,,,,,,test,1,22,3,2583,5,X,1,left,1.2259229959963704,1,0,,,,,,,,,,,,,,,,,,,,,1,,,,,,,,,,,,,,,,,,,,,,,,,,,,,,,,,,,,,,,,,,,,,,102,157162,20,Female,1,2024/03/19_10:29:21,YZ,None,
,,,,,,test,1,22,3,2583,6,S,1,left,0.9095788199992967,1,0,,,,,,,,,,,,,,,,,,,,,1,,,,,,,,,,,,,,,,,,,,,,,,,,,,,,,,,,,,,,,,,,,,,,102,157162,20,Female,1,2024/03/19_10:29:21,YZ,None,
,,,,,,Test,1,22,3,2583,,,,,,,,1.0,1.0,0.0,1.0,0.0,1.0,1.0877854834980099,2,0,0,0,0,4,6,2,4,0,,,,1,,,,,,,,,,,,,,,,,,,,,,,,,,,,,,,,,,,,,,,,,,,,,,102,157162,20,Female,1,2024/03/19_10:29:21,YZ,None,
,,,,,240319_111508,TEST,1,22,3,2583,,,,,,,,,,,,,,,,,,,,,,,,,,,,1,22,22,22,cue1.png,hard,B,5,0.84693434300425,0,1515.1645942670002,1516.0236005650004,,,,,,,,,,,,,,,,,,,,,,,,,,,,,,,,,,,102,157162,20,Female,1,2024/03/19_10:29:21,YZ,None,
,,,,,,test,1,23,1,2583,1,S,0,right,0.9221215630022925,1,0,,,,,,,,,,,,,,,,,,,,,1,,,,,,,,,,,,,,,,,,,,,,,,,,,,,,,,,,,,,,,,,,,,,,102,157162,20,Female,1,2024/03/19_10:29:21,YZ,None,
,,,,,,test,1,23,1,2583,2,S,1,left,1.3432897340026102,1,0,,,,,,,,,,,,,,,,,,,,,1,,,,,,,,,,,,,,,,,,,,,,,,,,,,,,,,,,,,,,,,,,,,,,102,157162,20,Female,1,2024/03/19_10:29:21,YZ,None,
,,,,,,test,1,23,1,2583,3,N,0,right,0.9522698729997501,1,0,,,,,,,,,,,,,,,,,,,,,1,,,,,,,,,,,,,,,,,,,,,,,,,,,,,,,,,,,,,,,,,,,,,,102,157162,20,Female,1,2024/03/19_10:29:21,YZ,None,
,,,,,,test,1,23,1,2583,4,F,0,right,0.7262991379975574,1,0,,,,,,,,,,,,,,,,,,,,,1,,,,,,,,,,,,,,,,,,,,,,,,,,,,,,,,,,,,,,,,,,,,,,102,157162,20,Female,1,2024/03/19_10:29:21,YZ,None,
,,,,,,test,1,23,1,2583,5,F,1,left,0.7258309890021337,1,0,,,,,,,,,,,,,,,,,,,,,1,,,,,,,,,,,,,,,,,,,,,,,,,,,,,,,,,,,,,,,,,,,,,,102,157162,20,Female,1,2024/03/19_10:29:21,YZ,None,
,,,,,,test,1,23,1,2583,6,S,0,right,1.3030762130001676,1,0,,,,,,,,,,,,,,,,,,,,,1,,,,,,,,,,,,,,,,,,,,,,,,,,,,,,,,,,,,,,,,,,,,,,102,157162,20,Female,1,2024/03/19_10:29:21,YZ,None,
,,,,,,Test,1,23,1,2583,,,,,,,,1.0,1.0,0.0,1.0,0.0,1.0,0.9954812516674186,2,0,0,0,0,4,6,2,4,0,,,,1,,,,,,,,,,,,,,,,,,,,,,,,,,,,,,,,,,,,,,,,,,,,,,102,157162,20,Female,1,2024/03/19_10:29:21,YZ,None,
,,,,,240319_111528,TEST,1,23,1,2583,,,,,,,,,,,,,,,,,,,,,,,,,,,,1,23,23,23,cue2.png,easy,B,4,1.570614204996673,0,1534.8354129380023,1536.4214521920003,,,,,,,,,,,,,,,,,,,,,,,,,,,,,,,,,,,102,157162,20,Female,1,2024/03/19_10:29:21,YZ,None,
,,,,,,test,1,24,3,2583,1,V,0,right,1.1886524759975146,1,0,,,,,,,,,,,,,,,,,,,,,1,,,,,,,,,,,,,,,,,,,,,,,,,,,,,,,,,,,,,,,,,,,,,,102,157162,20,Female,1,2024/03/19_10:29:21,YZ,None,
,,,,,,test,1,24,3,2583,2,Q,0,right,0.8591847679999773,1,0,,,,,,,,,,,,,,,,,,,,,1,,,,,,,,,,,,,,,,,,,,,,,,,,,,,,,,,,,,,,,,,,,,,,102,157162,20,Female,1,2024/03/19_10:29:21,YZ,None,
,,,,,,test,1,24,3,2583,3,V,0,right,0.8671005989963305,1,0,,,,,,,,,,,,,,,,,,,,,1,,,,,,,,,,,,,,,,,,,,,,,,,,,,,,,,,,,,,,,,,,,,,,102,157162,20,Female,1,2024/03/19_10:29:21,YZ,None,
,,,,,,test,1,24,3,2583,4,V,1,left,1.1700326060017687,1,0,,,,,,,,,,,,,,,,,,,,,1,,,,,,,,,,,,,,,,,,,,,,,,,,,,,,,,,,,,,,,,,,,,,,102,157162,20,Female,1,2024/03/19_10:29:21,YZ,None,
,,,,,,test,1,24,3,2583,5,Q,1,left,1.2734101320020272,1,0,,,,,,,,,,,,,,,,,,,,,1,,,,,,,,,,,,,,,,,,,,,,,,,,,,,,,,,,,,,,,,,,,,,,102,157162,20,Female,1,2024/03/19_10:29:21,YZ,None,
,,,,,,test,1,24,3,2583,6,X,0,right,0.7194551739958115,1,0,,,,,,,,,,,,,,,,,,,,,1,,,,,,,,,,,,,,,,,,,,,,,,,,,,,,,,,,,,,,,,,,,,,,102,157162,20,Female,1,2024/03/19_10:29:21,YZ,None,
,,,,,,Test,1,24,3,2583,,,,,,,,1.0,1.0,0.0,1.0,0.0,1.0,1.0129726258322382,2,0,0,0,0,4,6,2,4,0,,,,1,,,,,,,,,,,,,,,,,,,,,,,,,,,,,,,,,,,,,,,,,,,,,,102,157162,20,Female,1,2024/03/19_10:29:21,YZ,None,
,,,,,240319_111547,TEST,1,24,3,2583,,,,,,,,,,,,,,,,,,,,,,,,,,,,1,24,24,24,cue1.png,hard,B,1,0.8208132500003558,0,1554.6834347199983,1555.5192152610034,,,,,,,,,,,,,,,,,,,,,,,,,,,,,,,,,,,102,157162,20,Female,1,2024/03/19_10:29:21,YZ,None,
,,,,,,test,1,25,3,2583,1,J,0,right,0.6261348900006851,1,0,,,,,,,,,,,,,,,,,,,,,1,,,,,,,,,,,,,,,,,,,,,,,,,,,,,,,,,,,,,,,,,,,,,,102,157162,20,Female,1,2024/03/19_10:29:21,YZ,None,
,,,,,,test,1,25,3,2583,2,Q,0,right,0.5861725810027565,1,0,,,,,,,,,,,,,,,,,,,,,1,,,,,,,,,,,,,,,,,,,,,,,,,,,,,,,,,,,,,,,,,,,,,,102,157162,20,Female,1,2024/03/19_10:29:21,YZ,None,
,,,,,,test,1,25,3,2583,3,V,0,right,0.6489505680001457,1,0,,,,,,,,,,,,,,,,,,,,,1,,,,,,,,,,,,,,,,,,,,,,,,,,,,,,,,,,,,,,,,,,,,,,102,157162,20,Female,1,2024/03/19_10:29:21,YZ,None,
,,,,,,test,1,25,3,2583,4,J,1,left,0.6924861970037455,1,0,,,,,,,,,,,,,,,,,,,,,1,,,,,,,,,,,,,,,,,,,,,,,,,,,,,,,,,,,,,,,,,,,,,,102,157162,20,Female,1,2024/03/19_10:29:21,YZ,None,
,,,,,,test,1,25,3,2583,5,N,0,right,1.6914963020026335,1,0,,,,,,,,,,,,,,,,,,,,,1,,,,,,,,,,,,,,,,,,,,,,,,,,,,,,,,,,,,,,,,,,,,,,102,157162,20,Female,1,2024/03/19_10:29:21,YZ,None,
,,,,,,test,1,25,3,2583,6,V,1,left,0.5542954569973517,1,0,,,,,,,,,,,,,,,,,,,,,1,,,,,,,,,,,,,,,,,,,,,,,,,,,,,,,,,,,,,,,,,,,,,,102,157162,20,Female,1,2024/03/19_10:29:21,YZ,None,
,,,,,,Test,1,25,3,2583,,,,,,,,1.0,1.0,0.0,1.0,0.0,1.0,0.799922665834553,2,0,0,0,0,4,6,2,4,0,,,,1,,,,,,,,,,,,,,,,,,,,,,,,,,,,,,,,,,,,,,,,,,,,,,102,157162,20,Female,1,2024/03/19_10:29:21,YZ,None,
,,,,,240319_111606,TEST,1,25,3,2583,,,,,,,,,,,,,,,,,,,,,,,,,,,,1,25,25,25,cue1.png,hard,B,1,1.2142931659982423,0,1573.8744245749986,1575.1061630570039,,,,,,,,,,,,,,,,,,,,,,,,,,,,,,,,,,,102,157162,20,Female,1,2024/03/19_10:29:21,YZ,None,
,,,,,,test,1,26,1,2583,1,X,0,right,0.7940805469988845,1,0,,,,,,,,,,,,,,,,,,,,,1,,,,,,,,,,,,,,,,,,,,,,,,,,,,,,,,,,,,,,,,,,,,,,102,157162,20,Female,1,2024/03/19_10:29:21,YZ,None,
,,,,,,test,1,26,1,2583,2,F,0,right,0.9684851260026335,1,0,,,,,,,,,,,,,,,,,,,,,1,,,,,,,,,,,,,,,,,,,,,,,,,,,,,,,,,,,,,,,,,,,,,,102,157162,20,Female,1,2024/03/19_10:29:21,YZ,None,
,,,,,,test,1,26,1,2583,3,V,0,right,0.9217783230051282,1,0,,,,,,,,,,,,,,,,,,,,,1,,,,,,,,,,,,,,,,,,,,,,,,,,,,,,,,,,,,,,,,,,,,,,102,157162,20,Female,1,2024/03/19_10:29:21,YZ,None,
,,,,,,test,1,26,1,2583,4,V,1,left,0.5470075260018348,1,0,,,,,,,,,,,,,,,,,,,,,1,,,,,,,,,,,,,,,,,,,,,,,,,,,,,,,,,,,,,,,,,,,,,,102,157162,20,Female,1,2024/03/19_10:29:21,YZ,None,
,,,,,,test,1,26,1,2583,5,S,0,right,1.182313183999213,1,0,,,,,,,,,,,,,,,,,,,,,1,,,,,,,,,,,,,,,,,,,,,,,,,,,,,,,,,,,,,,,,,,,,,,102,157162,20,Female,1,2024/03/19_10:29:21,YZ,None,
,,,,,,test,1,26,1,2583,6,S,1,left,0.8087173310050275,1,0,,,,,,,,,,,,,,,,,,,,,1,,,,,,,,,,,,,,,,,,,,,,,,,,,,,,,,,,,,,,,,,,,,,,102,157162,20,Female,1,2024/03/19_10:29:21,YZ,None,
,,,,,,Test,1,26,1,2583,,,,,,,,1.0,1.0,0.0,1.0,0.0,1.0,0.8703970061687869,2,0,0,0,0,4,6,2,4,0,,,,1,,,,,,,,,,,,,,,,,,,,,,,,,,,,,,,,,,,,,,,,,,,,,,102,157162,20,Female,1,2024/03/19_10:29:21,YZ,None,
,,,,,240319_111624,TEST,1,26,1,2583,,,,,,,,,,,,,,,,,,,,,,,,,,,,1,26,26,26,cue2.png,easy,B,3,1.1549276910009212,0,1592.2048393779987,1593.3772119470013,,,,,,,,,,,,,,,,,,,,,,,,,,,,,,,,,,,102,157162,20,Female,1,2024/03/19_10:29:21,YZ,None,
,,,,,,test,1,27,1,2583,1,N,0,right,1.0996935850052978,1,0,,,,,,,,,,,,,,,,,,,,,1,,,,,,,,,,,,,,,,,,,,,,,,,,,,,,,,,,,,,,,,,,,,,,102,157162,20,Female,1,2024/03/19_10:29:21,YZ,None,
,,,,,,test,1,27,1,2583,2,N,1,left,0.6083852049996494,1,0,,,,,,,,,,,,,,,,,,,,,1,,,,,,,,,,,,,,,,,,,,,,,,,,,,,,,,,,,,,,,,,,,,,,102,157162,20,Female,1,2024/03/19_10:29:21,YZ,None,
