Instruction,Stimulus,Key,RT,START,END,Phase,Block,TrialN,NbackLevel,ISI,LetterN,Letter,Letter_isSame,Letter_Resp,Letter_RT,Letter_Accuracy,Letter_Timeout,Trial_A_measure,Trial_HR,Trial_FAR,Trial_CDR,Trial_MSR,Trial_ACC,Trial_RT,Trial_HitsCount,Trial_FAsCount,Trial_SameNoRespCount,Trial_DiffNoRespCount,Trial_NoRespCount,Trial_CDsCount,Trial_CorrectRespCount,Trial_SameLetterCount,Trial_DiffLetterCount,Trial_InvalidLetterCount,TrialCountCali,CaliEnd_A_measure,ISI_calibrated,Run,TrialIndex,TrialNumber_total,TrialNumber_valid,CueLearning,TrialDemandLearning,CueMapping,OnlineRating,OnlineRatingRT,OnlineRatingTimeOut,CueSTART,RatingSTART,OfflineRatingTimePoint,OfflineRatingQuesIndex,CueFigure,TrialDemand,OfflineRating,OfflineRatingRT,CueStart,OfflineRatingStart,PhaseType,CueLeft,CueDemandLeft,CueRight,CueDemandRight,Choice,ChoiceDemand,TaskDemand,ChoiceRT,ChoiceTimeOut,ChoiceSTART,CueCheck,CueDemandCheck,CorrectAnswer,Answer,AnswerDemand,AnswerRT,AnswerACC,AnswerTimeOut,CheckSTART,DemandRatingQuesIndex,QuesTLX,DemandLevel,DemandRating,DemandRatingRT,QuesStart,PID,SONA,Age,Gender,Run,TIME,EXPERIMENTER,frameRate,
1,./instructions/inst_begin/Slide2.png,right,15.902293749000819,0.2558178909966955,16.158111639997514,,,,,,,,,,,,,,,,,,,,,,,,,,,,,,,,,1,,,,,,,,,,,,,,,,,,,,,,,,,,,,,,,,,,,,,,,,,,,,,,73,152710,20,Female,1,2024/02/21_08:45:12,SD,None,
2,./instructions/inst_begin/Slide3.png,right,9.439020534002339,16.215405878996535,25.654426412998873,,,,,,,,,,,,,,,,,,,,,,,,,,,,,,,,,1,,,,,,,,,,,,,,,,,,,,,,,,,,,,,,,,,,,,,,,,,,,,,,73,152710,20,Female,1,2024/02/21_08:45:12,SD,None,
3,./instructions/inst_begin/Slide4.png,right,15.179820889003167,25.690366044000257,40.870186933003424,,,,,,,,,,,,,,,,,,,,,,,,,,,,,,,,,1,,,,,,,,,,,,,,,,,,,,,,,,,,,,,,,,,,,,,,,,,,,,,,73,152710,20,Female,1,2024/02/21_08:45:12,SD,None,
1,./instructions/inst_prac_2/Slide6.png,right,14.648445505998097,40.94196224099869,55.59040774699679,,,,,,,,,,,,,,,,,,,,,,,,,,,,,,,,,1,,,,,,,,,,,,,,,,,,,,,,,,,,,,,,,,,,,,,,,,,,,,,,73,152710,20,Female,1,2024/02/21_08:45:12,SD,None,
2,./instructions/inst_prac_2/Slide7.png,right,18.906121265004913,55.620201737998286,74.5263230030032,,,,,,,,,,,,,,,,,,,,,,,,,,,,,,,,,1,,,,,,,,,,,,,,,,,,,,,,,,,,,,,,,,,,,,,,,,,,,,,,73,152710,20,Female,1,2024/02/21_08:45:12,SD,None,
3,./instructions/inst_prac_2/Slide8.png,right,32.956205713999225,74.58608361199731,107.54228932599653,,,,,,,,,,,,,,,,,,,,,,,,,,,,,,,,,1,,,,,,,,,,,,,,,,,,,,,,,,,,,,,,,,,,,,,,,,,,,,,,73,152710,20,Female,1,2024/02/21_08:45:12,SD,None,
4,./instructions/inst_prac_2/Slide9.png,right,2.5062561750019086,107.57204008199915,110.07829625700106,,,,,,,,,,,,,,,,,,,,,,,,,,,,,,,,,1,,,,,,,,,,,,,,,,,,,,,,,,,,,,,,,,,,,,,,,,,,,,,,73,152710,20,Female,1,2024/02/21_08:45:12,SD,None,
5,./instructions/inst_prac_2/Slide10.png,right,2.4903442579961848,110.13988813500328,112.63023239299946,,,,,,,,,,,,,,,,,,,,,,,,,,,,,,,,,1,,,,,,,,,,,,,,,,,,,,,,,,,,,,,,,,,,,,,,,,,,,,,,73,152710,20,Female,1,2024/02/21_08:45:12,SD,None,
6,./instructions/inst_prac_2/Slide11.png,right,0.8985718399999314,112.65971806699963,113.55828990699956,,,,,,,,,,,,,,,,,,,,,,,,,,,,,,,,,1,,,,,,,,,,,,,,,,,,,,,,,,,,,,,,,,,,,,,,,,,,,,,,73,152710,20,Female,1,2024/02/21_08:45:12,SD,None,
7,./instructions/inst_prac_2/Slide12.png,right,1.2996905929976492,113.58656440699997,114.88625499999762,,,,,,,,,,,,,,,,,,,,,,,,,,,,,,,,,1,,,,,,,,,,,,,,,,,,,,,,,,,,,,,,,,,,,,,,,,,,,,,,73,152710,20,Female,1,2024/02/21_08:45:12,SD,None,
8,./instructions/inst_prac_2/Slide13.png,right,1.0984970070057898,114.91572299599648,116.01422000300227,,,,,,,,,,,,,,,,,,,,,,,,,,,,,,,,,1,,,,,,,,,,,,,,,,,,,,,,,,,,,,,,,,,,,,,,,,,,,,,,73,152710,20,Female,1,2024/02/21_08:45:12,SD,None,
9,./instructions/inst_prac_2/Slide14.png,right,18.154422960004013,116.04377340499923,134.19819636500324,,,,,,,,,,,,,,,,,,,,,,,,,,,,,,,,,1,,,,,,,,,,,,,,,,,,,,,,,,,,,,,,,,,,,,,,,,,,,,,,73,152710,20,Female,1,2024/02/21_08:45:12,SD,None,
10,./instructions/inst_prac_2/Slide15.png,right,22.917080016995897,134.2652190020017,157.18229901899758,,,,,,,,,,,,,,,,,,,,,,,,,,,,,,,,,1,,,,,,,,,,,,,,,,,,,,,,,,,,,,,,,,,,,,,,,,,,,,,,73,152710,20,Female,1,2024/02/21_08:45:12,SD,None,
,,,,,,practice,0,6,2,2583,1,Q,0,right,5.891353099999833,1,0,,,,,,,,,,,,,,,,,,,,,1,,,,,,,,,,,,,,,,,,,,,,,,,,,,,,,,,,,,,,,,,,,,,,73,152710,20,Female,1,2024/02/21_08:45:12,SD,None,
,,,,,,practice,0,6,2,2583,2,J,0,right,1.8497069900040515,1,0,,,,,,,,,,,,,,,,,,,,,1,,,,,,,,,,,,,,,,,,,,,,,,,,,,,,,,,,,,,,,,,,,,,,73,152710,20,Female,1,2024/02/21_08:45:12,SD,None,
,,,,,,practice,0,6,2,2583,3,Q,1,left,0.8680608750000829,1,0,,,,,,,,,,,,,,,,,,,,,1,,,,,,,,,,,,,,,,,,,,,,,,,,,,,,,,,,,,,,,,,,,,,,73,152710,20,Female,1,2024/02/21_08:45:12,SD,None,
,,,,,,practice,0,6,2,2583,4,N,0,right,1.0194107390052523,1,0,,,,,,,,,,,,,,,,,,,,,1,,,,,,,,,,,,,,,,,,,,,,,,,,,,,,,,,,,,,,,,,,,,,,73,152710,20,Female,1,2024/02/21_08:45:12,SD,None,
,,,,,,practice,0,6,2,2583,5,Q,1,left,1.0374617300039972,1,0,,,,,,,,,,,,,,,,,,,,,1,,,,,,,,,,,,,,,,,,,,,,,,,,,,,,,,,,,,,,,,,,,,,,73,152710,20,Female,1,2024/02/21_08:45:12,SD,None,
,,,,,,practice,0,6,2,2583,6,X,0,right,0.8303493589992286,1,0,,,,,,,,,,,,,,,,,,,,,1,,,,,,,,,,,,,,,,,,,,,,,,,,,,,,,,,,,,,,,,,,,,,,73,152710,20,Female,1,2024/02/21_08:45:12,SD,None,
,,,,,,practice,0,6,2,2583,,,,,,,,1.0,1.0,0.0,1.0,0.0,1.0,1.916057132168741,2,0,0,0,0,4,6,2,4,0,,,,1,,,,,,,,,,,,,,,,,,,,,,,,,,,,,,,,,,,,,,,,,,,,,,73,152710,20,Female,1,2024/02/21_08:45:12,SD,None,
1,./instructions/inst_to_cali/Slide20.png,right,9.667613540004822,175.11456794999685,184.78218149000168,,,,,,,,,,,,,,,,,,,,,,,,,,,,,,,,,1,,,,,,,,,,,,,,,,,,,,,,,,,,,,,,,,,,,,,,,,,,,,,,73,152710,20,Female,1,2024/02/21_08:45:12,SD,None,
1,./instructions/inst_cali/Slide22.png,right,4.849912705998577,184.83625020700129,189.68616291299986,,,,,,,,,,,,,,,,,,,,,,,,,,,,,,,,,1,,,,,,,,,,,,,,,,,,,,,,,,,,,,,,,,,,,,,,,,,,,,,,73,152710,20,Female,1,2024/02/21_08:45:12,SD,None,
,,,,,,calibration,0,26,2,583,1,C,0,right,0.7246779749984853,1,0,,,,,,,,,,,,,,,,,,,,,1,,,,,,,,,,,,,,,,,,,,,,,,,,,,,,,,,,,,,,,,,,,,,,73,152710,20,Female,1,2024/02/21_08:45:12,SD,None,
,,,,,,calibration,0,26,2,583,2,J,0,right,0.32366838800226105,1,0,,,,,,,,,,,,,,,,,,,,,1,,,,,,,,,,,,,,,,,,,,,,,,,,,,,,,,,,,,,,,,,,,,,,73,152710,20,Female,1,2024/02/21_08:45:12,SD,None,
,,,,,,calibration,0,26,2,583,3,Q,0,right,0.4330458590047783,1,0,,,,,,,,,,,,,,,,,,,,,1,,,,,,,,,,,,,,,,,,,,,,,,,,,,,,,,,,,,,,,,,,,,,,73,152710,20,Female,1,2024/02/21_08:45:12,SD,None,
,,,,,,calibration,0,26,2,583,4,V,0,right,0.4379872610006714,1,0,,,,,,,,,,,,,,,,,,,,,1,,,,,,,,,,,,,,,,,,,,,,,,,,,,,,,,,,,,,,,,,,,,,,73,152710,20,Female,1,2024/02/21_08:45:12,SD,None,
,,,,,,calibration,0,26,2,583,5,N,0,right,0.4237710240049637,1,0,,,,,,,,,,,,,,,,,,,,,1,,,,,,,,,,,,,,,,,,,,,,,,,,,,,,,,,,,,,,,,,,,,,,73,152710,20,Female,1,2024/02/21_08:45:12,SD,None,
,,,,,,calibration,0,26,2,583,6,V,1,right,0.34368626700597815,0,0,,,,,,,,,,,,,,,,,,,,,1,,,,,,,,,,,,,,,,,,,,,,,,,,,,,,,,,,,,,,,,,,,,,,73,152710,20,Female,1,2024/02/21_08:45:12,SD,None,
,,,,,,calibration,0,26,2,583,7,N,1,left,0.8257960149931023,1,0,,,,,,,,,,,,,,,,,,,,,1,,,,,,,,,,,,,,,,,,,,,,,,,,,,,,,,,,,,,,,,,,,,,,73,152710,20,Female,1,2024/02/21_08:45:12,SD,None,
,,,,,,calibration,0,26,2,583,8,J,0,right,0.49904665099893464,1,0,,,,,,,,,,,,,,,,,,,,,1,,,,,,,,,,,,,,,,,,,,,,,,,,,,,,,,,,,,,,,,,,,,,,73,152710,20,Female,1,2024/02/21_08:45:12,SD,None,
,,,,,,calibration,0,26,2,583,9,N,1,left,0.5246541700034868,1,0,,,,,,,,,,,,,,,,,,,,,1,,,,,,,,,,,,,,,,,,,,,,,,,,,,,,,,,,,,,,,,,,,,,,73,152710,20,Female,1,2024/02/21_08:45:12,SD,None,
,,,,,,calibration,0,26,2,583,10,C,0,right,0.4833440700022038,1,0,,,,,,,,,,,,,,,,,,,,,1,,,,,,,,,,,,,,,,,,,,,,,,,,,,,,,,,,,,,,,,,,,,,,73,152710,20,Female,1,2024/02/21_08:45:12,SD,None,
,,,,,,calibration,0,26,2,583,11,J,0,left,0.7681624780016136,0,0,,,,,,,,,,,,,,,,,,,,,1,,,,,,,,,,,,,,,,,,,,,,,,,,,,,,,,,,,,,,,,,,,,,,73,152710,20,Female,1,2024/02/21_08:45:12,SD,None,
,,,,,,calibration,0,26,2,583,12,X,0,right,0.5585883710009512,1,0,,,,,,,,,,,,,,,,,,,,,1,,,,,,,,,,,,,,,,,,,,,,,,,,,,,,,,,,,,,,,,,,,,,,73,152710,20,Female,1,2024/02/21_08:45:12,SD,None,
,,,,,,calibration,0,26,2,583,13,Q,0,left,0.38009724600124173,0,0,,,,,,,,,,,,,,,,,,,,,1,,,,,,,,,,,,,,,,,,,,,,,,,,,,,,,,,,,,,,,,,,,,,,73,152710,20,Female,1,2024/02/21_08:45:12,SD,None,
,,,,,,calibration,0,26,2,583,14,X,1,right,0.5686217999973451,0,0,,,,,,,,,,,,,,,,,,,,,1,,,,,,,,,,,,,,,,,,,,,,,,,,,,,,,,,,,,,,,,,,,,,,73,152710,20,Female,1,2024/02/21_08:45:12,SD,None,
,,,,,,calibration,0,26,2,583,15,J,0,left,0.5446032289983123,0,0,,,,,,,,,,,,,,,,,,,,,1,,,,,,,,,,,,,,,,,,,,,,,,,,,,,,,,,,,,,,,,,,,,,,73,152710,20,Female,1,2024/02/21_08:45:12,SD,None,
,,,,,,calibration,0,26,2,583,,,,,,,,0.6704545454545455,0.5,0.2727272727272727,0.7272727272727273,0.0,0.7272727272727273,0.5226500536009553,2,3,0,0,0,8,10,4,11,0,,,,1,,,,,,,,,,,,,,,,,,,,,,,,,,,,,,,,,,,,,,,,,,,,,,73,152710,20,Female,1,2024/02/21_08:45:12,SD,None,
,,,,,,Calibration,0,,2,583,,,,,,,,,,,,,,,,,,,,,,,,,1,,,1,,,,,,,,,,,,,,,,,,,,,,,,,,,,,,,,,,,,,,,,,,,,,,73,152710,20,Female,1,2024/02/21_08:45:12,SD,None,
,,,,,,calibration,0,28,2,679,1,S,0,right,1.06289105599717,1,0,,,,,,,,,,,,,,,,,,,,,1,,,,,,,,,,,,,,,,,,,,,,,,,,,,,,,,,,,,,,,,,,,,,,73,152710,20,Female,1,2024/02/21_08:45:12,SD,None,
,,,,,,calibration,0,28,2,679,2,C,0,right,0.8617114490043605,1,0,,,,,,,,,,,,,,,,,,,,,1,,,,,,,,,,,,,,,,,,,,,,,,,,,,,,,,,,,,,,,,,,,,,,73,152710,20,Female,1,2024/02/21_08:45:12,SD,None,
,,,,,,calibration,0,28,2,679,3,Q,0,right,0.7760421359998873,1,0,,,,,,,,,,,,,,,,,,,,,1,,,,,,,,,,,,,,,,,,,,,,,,,,,,,,,,,,,,,,,,,,,,,,73,152710,20,Female,1,2024/02/21_08:45:12,SD,None,
,,,,,,calibration,0,28,2,679,4,C,1,left,0.3607084030008991,1,0,,,,,,,,,,,,,,,,,,,,,1,,,,,,,,,,,,,,,,,,,,,,,,,,,,,,,,,,,,,,,,,,,,,,73,152710,20,Female,1,2024/02/21_08:45:12,SD,None,
,,,,,,calibration,0,28,2,679,5,F,0,right,0.3750277479994111,1,0,,,,,,,,,,,,,,,,,,,,,1,,,,,,,,,,,,,,,,,,,,,,,,,,,,,,,,,,,,,,,,,,,,,,73,152710,20,Female,1,2024/02/21_08:45:12,SD,None,
,,,,,,calibration,0,28,2,679,6,S,0,left,0.6343939760045032,0,0,,,,,,,,,,,,,,,,,,,,,1,,,,,,,,,,,,,,,,,,,,,,,,,,,,,,,,,,,,,,,,,,,,,,73,152710,20,Female,1,2024/02/21_08:45:12,SD,None,
,,,,,,calibration,0,28,2,679,7,N,0,right,0.2855844080040697,1,0,,,,,,,,,,,,,,,,,,,,,1,,,,,,,,,,,,,,,,,,,,,,,,,,,,,,,,,,,,,,,,,,,,,,73,152710,20,Female,1,2024/02/21_08:45:12,SD,None,
,,,,,,calibration,0,28,2,679,8,C,0,left,0.31199472599837463,0,0,,,,,,,,,,,,,,,,,,,,,1,,,,,,,,,,,,,,,,,,,,,,,,,,,,,,,,,,,,,,,,,,,,,,73,152710,20,Female,1,2024/02/21_08:45:12,SD,None,
,,,,,,calibration,0,28,2,679,9,J,0,right,0.2421257020032499,1,0,,,,,,,,,,,,,,,,,,,,,1,,,,,,,,,,,,,,,,,,,,,,,,,,,,,,,,,,,,,,,,,,,,,,73,152710,20,Female,1,2024/02/21_08:45:12,SD,None,
,,,,,,calibration,0,28,2,679,10,C,1,left,0.19660558800387662,1,0,,,,,,,,,,,,,,,,,,,,,1,,,,,,,,,,,,,,,,,,,,,,,,,,,,,,,,,,,,,,,,,,,,,,73,152710,20,Female,1,2024/02/21_08:45:12,SD,None,
,,,,,,calibration,0,28,2,679,11,S,0,right,0.6062937430033344,1,0,,,,,,,,,,,,,,,,,,,,,1,,,,,,,,,,,,,,,,,,,,,,,,,,,,,,,,,,,,,,,,,,,,,,73,152710,20,Female,1,2024/02/21_08:45:12,SD,None,
,,,,,,calibration,0,28,2,679,12,C,1,right,0.2997716500030947,0,0,,,,,,,,,,,,,,,,,,,,,1,,,,,,,,,,,,,,,,,,,,,,,,,,,,,,,,,,,,,,,,,,,,,,73,152710,20,Female,1,2024/02/21_08:45:12,SD,None,
,,,,,,calibration,0,28,2,679,13,Q,0,right,0.2954392250030651,1,0,,,,,,,,,,,,,,,,,,,,,1,,,,,,,,,,,,,,,,,,,,,,,,,,,,,,,,,,,,,,,,,,,,,,73,152710,20,Female,1,2024/02/21_08:45:12,SD,None,
,,,,,,calibration,0,28,2,679,14,C,1,right,nan,0,1,,,,,,,,,,,,,,,,,,,,,1,,,,,,,,,,,,,,,,,,,,,,,,,,,,,,,,,,,,,,,,,,,,,,73,152710,20,Female,1,2024/02/21_08:45:12,SD,None,
,,,,,,calibration,0,28,2,679,,,,,,,,0.725,0.5,0.2,0.8,0.07142857142857142,0.7285714285714286,0.48527613923271506,2,2,1,0,1,8,10,4,10,0,,,,1,,,,,,,,,,,,,,,,,,,,,,,,,,,,,,,,,,,,,,,,,,,,,,73,152710,20,Female,1,2024/02/21_08:45:12,SD,None,
,,,,,,Calibration,0,,2,679,,,,,,,,,,,,,,,,,,,,,,,,,2,,,1,,,,,,,,,,,,,,,,,,,,,,,,,,,,,,,,,,,,,,,,,,,,,,73,152710,20,Female,1,2024/02/21_08:45:12,SD,None,
,,,,,,calibration,0,15,2,788,1,F,0,right,0.8376008659979561,1,0,,,,,,,,,,,,,,,,,,,,,1,,,,,,,,,,,,,,,,,,,,,,,,,,,,,,,,,,,,,,,,,,,,,,73,152710,20,Female,1,2024/02/21_08:45:12,SD,None,
,,,,,,calibration,0,15,2,788,2,C,0,right,0.38227880699560046,1,0,,,,,,,,,,,,,,,,,,,,,1,,,,,,,,,,,,,,,,,,,,,,,,,,,,,,,,,,,,,,,,,,,,,,73,152710,20,Female,1,2024/02/21_08:45:12,SD,None,
,,,,,,calibration,0,15,2,788,3,X,0,right,0.5552112920049694,1,0,,,,,,,,,,,,,,,,,,,,,1,,,,,,,,,,,,,,,,,,,,,,,,,,,,,,,,,,,,,,,,,,,,,,73,152710,20,Female,1,2024/02/21_08:45:12,SD,None,
,,,,,,calibration,0,15,2,788,4,C,1,left,0.5471684660005849,1,0,,,,,,,,,,,,,,,,,,,,,1,,,,,,,,,,,,,,,,,,,,,,,,,,,,,,,,,,,,,,,,,,,,,,73,152710,20,Female,1,2024/02/21_08:45:12,SD,None,
,,,,,,calibration,0,15,2,788,5,S,0,right,0.46476546200574376,1,0,,,,,,,,,,,,,,,,,,,,,1,,,,,,,,,,,,,,,,,,,,,,,,,,,,,,,,,,,,,,,,,,,,,,73,152710,20,Female,1,2024/02/21_08:45:12,SD,None,
,,,,,,calibration,0,15,2,788,6,V,0,right,0.5179744770066463,1,0,,,,,,,,,,,,,,,,,,,,,1,,,,,,,,,,,,,,,,,,,,,,,,,,,,,,,,,,,,,,,,,,,,,,73,152710,20,Female,1,2024/02/21_08:45:12,SD,None,
,,,,,,calibration,0,15,2,788,7,Q,0,right,0.8439693200052716,1,0,,,,,,,,,,,,,,,,,,,,,1,,,,,,,,,,,,,,,,,,,,,,,,,,,,,,,,,,,,,,,,,,,,,,73,152710,20,Female,1,2024/02/21_08:45:12,SD,None,
,,,,,,calibration,0,15,2,788,8,N,0,right,0.6476853319982183,1,0,,,,,,,,,,,,,,,,,,,,,1,,,,,,,,,,,,,,,,,,,,,,,,,,,,,,,,,,,,,,,,,,,,,,73,152710,20,Female,1,2024/02/21_08:45:12,SD,None,
,,,,,,calibration,0,15,2,788,9,Q,1,left,0.6570640930003719,1,0,,,,,,,,,,,,,,,,,,,,,1,,,,,,,,,,,,,,,,,,,,,,,,,,,,,,,,,,,,,,,,,,,,,,73,152710,20,Female,1,2024/02/21_08:45:12,SD,None,
,,,,,,calibration,0,15,2,788,10,N,1,right,0.5267947940010345,0,0,,,,,,,,,,,,,,,,,,,,,1,,,,,,,,,,,,,,,,,,,,,,,,,,,,,,,,,,,,,,,,,,,,,,73,152710,20,Female,1,2024/02/21_08:45:12,SD,None,
,,,,,,calibration,0,15,2,788,11,J,0,left,0.0,0,0,,,,,,,,,,,,,,,,,,,,,1,,,,,,,,,,,,,,,,,,,,,,,,,,,,,,,,,,,,,,,,,,,,,,73,152710,20,Female,1,2024/02/21_08:45:12,SD,None,
,,,,,,calibration,0,15,2,788,12,N,1,right,0.25894810799945844,0,0,,,,,,,,,,,,,,,,,,,,,1,,,,,,,,,,,,,,,,,,,,,,,,,,,,,,,,,,,,,,,,,,,,,,73,152710,20,Female,1,2024/02/21_08:45:12,SD,None,
,,,,,,calibration,0,15,2,788,13,X,0,left,0.26348705399868777,0,0,,,,,,,,,,,,,,,,,,,,,1,,,,,,,,,,,,,,,,,,,,,,,,,,,,,,,,,,,,,,,,,,,,,,73,152710,20,Female,1,2024/02/21_08:45:12,SD,None,
,,,,,,calibration,0,15,2,788,,,,,,,,0.7083333333333333,0.5,0.2222222222222222,0.7777777777777778,0.0,0.7777777777777778,0.5002267746934265,2,2,0,0,0,7,9,4,9,0,,,,1,,,,,,,,,,,,,,,,,,,,,,,,,,,,,,,,,,,,,,,,,,,,,,73,152710,20,Female,1,2024/02/21_08:45:12,SD,None,
,,,,,,Calibration,0,,2,788,,,,,,,,,,,,,,,,,,,,,,,,,3,,,1,,,,,,,,,,,,,,,,,,,,,,,,,,,,,,,,,,,,,,,,,,,,,,73,152710,20,Female,1,2024/02/21_08:45:12,SD,None,
,,,,,,calibration,0,28,2,917,1,X,0,right,0.8280852140014758,1,0,,,,,,,,,,,,,,,,,,,,,1,,,,,,,,,,,,,,,,,,,,,,,,,,,,,,,,,,,,,,,,,,,,,,73,152710,20,Female,1,2024/02/21_08:45:12,SD,None,
,,,,,,calibration,0,28,2,917,2,J,0,right,0.37103453499730676,1,0,,,,,,,,,,,,,,,,,,,,,1,,,,,,,,,,,,,,,,,,,,,,,,,,,,,,,,,,,,,,,,,,,,,,73,152710,20,Female,1,2024/02/21_08:45:12,SD,None,
,,,,,,calibration,0,28,2,917,3,S,0,right,0.41736732400022447,1,0,,,,,,,,,,,,,,,,,,,,,1,,,,,,,,,,,,,,,,,,,,,,,,,,,,,,,,,,,,,,,,,,,,,,73,152710,20,Female,1,2024/02/21_08:45:12,SD,None,
,,,,,,calibration,0,28,2,917,4,J,1,left,0.4796638449988677,1,0,,,,,,,,,,,,,,,,,,,,,1,,,,,,,,,,,,,,,,,,,,,,,,,,,,,,,,,,,,,,,,,,,,,,73,152710,20,Female,1,2024/02/21_08:45:12,SD,None,
,,,,,,calibration,0,28,2,917,5,C,0,right,0.3618026389958686,1,0,,,,,,,,,,,,,,,,,,,,,1,,,,,,,,,,,,,,,,,,,,,,,,,,,,,,,,,,,,,,,,,,,,,,73,152710,20,Female,1,2024/02/21_08:45:12,SD,None,
,,,,,,calibration,0,28,2,917,6,J,1,left,0.4924658130039461,1,0,,,,,,,,,,,,,,,,,,,,,1,,,,,,,,,,,,,,,,,,,,,,,,,,,,,,,,,,,,,,,,,,,,,,73,152710,20,Female,1,2024/02/21_08:45:12,SD,None,
,,,,,,calibration,0,28,2,917,7,Q,0,right,0.380182059998333,1,0,,,,,,,,,,,,,,,,,,,,,1,,,,,,,,,,,,,,,,,,,,,,,,,,,,,,,,,,,,,,,,,,,,,,73,152710,20,Female,1,2024/02/21_08:45:12,SD,None,
,,,,,,calibration,0,28,2,917,8,F,0,right,0.5192187939974247,1,0,,,,,,,,,,,,,,,,,,,,,1,,,,,,,,,,,,,,,,,,,,,,,,,,,,,,,,,,,,,,,,,,,,,,73,152710,20,Female,1,2024/02/21_08:45:12,SD,None,
,,,,,,calibration,0,28,2,917,9,Q,1,left,0.881460208001954,1,0,,,,,,,,,,,,,,,,,,,,,1,,,,,,,,,,,,,,,,,,,,,,,,,,,,,,,,,,,,,,,,,,,,,,73,152710,20,Female,1,2024/02/21_08:45:12,SD,None,
,,,,,,calibration,0,28,2,917,10,N,0,right,0.4351278180038207,1,0,,,,,,,,,,,,,,,,,,,,,1,,,,,,,,,,,,,,,,,,,,,,,,,,,,,,,,,,,,,,,,,,,,,,73,152710,20,Female,1,2024/02/21_08:45:12,SD,None,
,,,,,,calibration,0,28,2,917,11,S,0,right,0.6680671319991234,1,0,,,,,,,,,,,,,,,,,,,,,1,,,,,,,,,,,,,,,,,,,,,,,,,,,,,,,,,,,,,,,,,,,,,,73,152710,20,Female,1,2024/02/21_08:45:12,SD,None,
,,,,,,calibration,0,28,2,917,12,F,0,right,0.7311738749995129,1,0,,,,,,,,,,,,,,,,,,,,,1,,,,,,,,,,,,,,,,,,,,,,,,,,,,,,,,,,,,,,,,,,,,,,73,152710,20,Female,1,2024/02/21_08:45:12,SD,None,
,,,,,,calibration,0,28,2,917,,,,,,,,1.0,1.0,0.0,1.0,0.0,1.0,0.5471374380831548,3,0,0,0,0,9,12,3,9,0,,,,1,,,,,,,,,,,,,,,,,,,,,,,,,,,,,,,,,,,,,,,,,,,,,,73,152710,20,Female,1,2024/02/21_08:45:12,SD,None,
,,,,,,Calibration,0,,2,917,,,,,,,,,,,,,,,,,,,,,,,,,4,,,1,,,,,,,,,,,,,,,,,,,,,,,,,,,,,,,,,,,,,,,,,,,,,,73,152710,20,Female,1,2024/02/21_08:45:12,SD,None,
,,,,,,calibration,0,17,2,788,1,C,0,right,0.654160131001845,1,0,,,,,,,,,,,,,,,,,,,,,1,,,,,,,,,,,,,,,,,,,,,,,,,,,,,,,,,,,,,,,,,,,,,,73,152710,20,Female,1,2024/02/21_08:45:12,SD,None,
,,,,,,calibration,0,17,2,788,2,N,0,right,0.28833328100154176,1,0,,,,,,,,,,,,,,,,,,,,,1,,,,,,,,,,,,,,,,,,,,,,,,,,,,,,,,,,,,,,,,,,,,,,73,152710,20,Female,1,2024/02/21_08:45:12,SD,None,
,,,,,,calibration,0,17,2,788,3,C,1,left,0.4804882649987121,1,0,,,,,,,,,,,,,,,,,,,,,1,,,,,,,,,,,,,,,,,,,,,,,,,,,,,,,,,,,,,,,,,,,,,,73,152710,20,Female,1,2024/02/21_08:45:12,SD,None,
,,,,,,calibration,0,17,2,788,4,N,1,right,0.5570332550050807,0,0,,,,,,,,,,,,,,,,,,,,,1,,,,,,,,,,,,,,,,,,,,,,,,,,,,,,,,,,,,,,,,,,,,,,73,152710,20,Female,1,2024/02/21_08:45:12,SD,None,
,,,,,,calibration,0,17,2,788,5,V,0,left,0.0,0,0,,,,,,,,,,,,,,,,,,,,,1,,,,,,,,,,,,,,,,,,,,,,,,,,,,,,,,,,,,,,,,,,,,,,73,152710,20,Female,1,2024/02/21_08:45:12,SD,None,
,,,,,,calibration,0,17,2,788,6,Q,0,right,0.22759339099866338,1,0,,,,,,,,,,,,,,,,,,,,,1,,,,,,,,,,,,,,,,,,,,,,,,,,,,,,,,,,,,,,,,,,,,,,73,152710,20,Female,1,2024/02/21_08:45:12,SD,None,
,,,,,,calibration,0,17,2,788,7,C,0,right,0.3433356219975394,1,0,,,,,,,,,,,,,,,,,,,,,1,,,,,,,,,,,,,,,,,,,,,,,,,,,,,,,,,,,,,,,,,,,,,,73,152710,20,Female,1,2024/02/21_08:45:12,SD,None,
,,,,,,calibration,0,17,2,788,8,V,0,left,1.1243012410050142,0,0,,,,,,,,,,,,,,,,,,,,,1,,,,,,,,,,,,,,,,,,,,,,,,,,,,,,,,,,,,,,,,,,,,,,73,152710,20,Female,1,2024/02/21_08:45:12,SD,None,
,,,,,,calibration,0,17,2,788,9,N,0,right,1.0805918979967828,1,0,,,,,,,,,,,,,,,,,,,,,1,,,,,,,,,,,,,,,,,,,,,,,,,,,,,,,,,,,,,,,,,,,,,,73,152710,20,Female,1,2024/02/21_08:45:12,SD,None,
,,,,,,calibration,0,17,2,788,10,V,1,left,0.6815844119992107,1,0,,,,,,,,,,,,,,,,,,,,,1,,,,,,,,,,,,,,,,,,,,,,,,,,,,,,,,,,,,,,,,,,,,,,73,152710,20,Female,1,2024/02/21_08:45:12,SD,None,
,,,,,,calibration,0,17,2,788,11,F,0,right,0.38013765800133115,1,0,,,,,,,,,,,,,,,,,,,,,1,,,,,,,,,,,,,,,,,,,,,,,,,,,,,,,,,,,,,,,,,,,,,,73,152710,20,Female,1,2024/02/21_08:45:12,SD,None,
,,,,,,calibration,0,17,2,788,12,S,0,left,0.5609844979990157,0,0,,,,,,,,,,,,,,,,,,,,,1,,,,,,,,,,,,,,,,,,,,,,,,,,,,,,,,,,,,,,,,,,,,,,73,152710,20,Female,1,2024/02/21_08:45:12,SD,None,
,,,,,,calibration,0,17,2,788,13,F,1,left,1.525847524004348,1,0,,,,,,,,,,,,,,,,,,,,,1,,,,,,,,,,,,,,,,,,,,,,,,,,,,,,,,,,,,,,,,,,,,,,73,152710,20,Female,1,2024/02/21_08:45:12,SD,None,
,,,,,,calibration,0,17,2,788,,,,,,,,0.7708333333333333,0.75,0.3333333333333333,0.6666666666666666,0.0,0.6666666666666667,0.6080300904622373,3,3,0,0,0,6,9,4,9,0,,,,1,,,,,,,,,,,,,,,,,,,,,,,,,,,,,,,,,,,,,,,,,,,,,,73,152710,20,Female,1,2024/02/21_08:45:12,SD,None,
,,,,,,Calibration,0,,2,788,,,,,,,,,,,,,,,,,,,,,,,,,5,,,1,,,,,,,,,,,,,,,,,,,,,,,,,,,,,,,,,,,,,,,,,,,,,,73,152710,20,Female,1,2024/02/21_08:45:12,SD,None,
,,,,,,calibration,0,6,2,788,1,S,0,right,0.5398612789940671,1,0,,,,,,,,,,,,,,,,,,,,,1,,,,,,,,,,,,,,,,,,,,,,,,,,,,,,,,,,,,,,,,,,,,,,73,152710,20,Female,1,2024/02/21_08:45:12,SD,None,
,,,,,,calibration,0,6,2,788,2,J,0,right,0.4262725500011584,1,0,,,,,,,,,,,,,,,,,,,,,1,,,,,,,,,,,,,,,,,,,,,,,,,,,,,,,,,,,,,,,,,,,,,,73,152710,20,Female,1,2024/02/21_08:45:12,SD,None,
,,,,,,calibration,0,6,2,788,3,S,1,left,0.42181730899756076,1,0,,,,,,,,,,,,,,,,,,,,,1,,,,,,,,,,,,,,,,,,,,,,,,,,,,,,,,,,,,,,,,,,,,,,73,152710,20,Female,1,2024/02/21_08:45:12,SD,None,
,,,,,,calibration,0,6,2,788,4,Q,0,right,0.5660745019995375,1,0,,,,,,,,,,,,,,,,,,,,,1,,,,,,,,,,,,,,,,,,,,,,,,,,,,,,,,,,,,,,,,,,,,,,73,152710,20,Female,1,2024/02/21_08:45:12,SD,None,
,,,,,,calibration,0,6,2,788,5,F,0,right,0.426029884001764,1,0,,,,,,,,,,,,,,,,,,,,,1,,,,,,,,,,,,,,,,,,,,,,,,,,,,,,,,,,,,,,,,,,,,,,73,152710,20,Female,1,2024/02/21_08:45:12,SD,None,
,,,,,,calibration,0,6,2,788,6,Q,1,right,0.4366522780037485,0,0,,,,,,,,,,,,,,,,,,,,,1,,,,,,,,,,,,,,,,,,,,,,,,,,,,,,,,,,,,,,,,,,,,,,73,152710,20,Female,1,2024/02/21_08:45:12,SD,None,
,,,,,,calibration,0,6,2,788,7,F,1,right,0.8955110919996514,0,0,,,,,,,,,,,,,,,,,,,,,1,,,,,,,,,,,,,,,,,,,,,,,,,,,,,,,,,,,,,,,,,,,,,,73,152710,20,Female,1,2024/02/21_08:45:12,SD,None,
,,,,,,calibration,0,6,2,788,8,C,0,right,1.286185741002555,1,0,,,,,,,,,,,,,,,,,,,,,1,,,,,,,,,,,,,,,,,,,,,,,,,,,,,,,,,,,,,,,,,,,,,,73,152710,20,Female,1,2024/02/21_08:45:12,SD,None,
,,,,,,calibration,0,6,2,788,9,V,0,right,1.0185450830031186,1,0,,,,,,,,,,,,,,,,,,,,,1,,,,,,,,,,,,,,,,,,,,,,,,,,,,,,,,,,,,,,,,,,,,,,73,152710,20,Female,1,2024/02/21_08:45:12,SD,None,
,,,,,,calibration,0,6,2,788,10,Q,0,right,0.9921251859996119,1,0,,,,,,,,,,,,,,,,,,,,,1,,,,,,,,,,,,,,,,,,,,,,,,,,,,,,,,,,,,,,,,,,,,,,73,152710,20,Female,1,2024/02/21_08:45:12,SD,None,
,,,,,,calibration,0,6,2,788,11,X,0,right,0.8695960130062304,1,0,,,,,,,,,,,,,,,,,,,,,1,,,,,,,,,,,,,,,,,,,,,,,,,,,,,,,,,,,,,,,,,,,,,,73,152710,20,Female,1,2024/02/21_08:45:12,SD,None,
,,,,,,calibration,0,6,2,788,12,Q,1,left,0.49243716199998744,1,0,,,,,,,,,,,,,,,,,,,,,1,,,,,,,,,,,,,,,,,,,,,,,,,,,,,,,,,,,,,,,,,,,,,,73,152710,20,Female,1,2024/02/21_08:45:12,SD,None,
,,,,,,calibration,0,6,2,788,13,C,0,right,0.4655405990051804,1,0,,,,,,,,,,,,,,,,,,,,,1,,,,,,,,,,,,,,,,,,,,,,,,,,,,,,,,,,,,,,,,,,,,,,73,152710,20,Female,1,2024/02/21_08:45:12,SD,None,
,,,,,,calibration,0,6,2,788,,,,,,,,0.875,0.5,0.0,1.0,0.0,1.0,0.6797422060010901,2,0,0,0,0,9,11,4,9,0,,,,1,,,,,,,,,,,,,,,,,,,,,,,,,,,,,,,,,,,,,,,,,,,,,,73,152710,20,Female,1,2024/02/21_08:45:12,SD,None,
,,,,,,Calibration,0,,2,788,,,,,,,,,,,,,,,,,,,,,,,,,6,,,1,,,,,,,,,,,,,,,,,,,,,,,,,,,,,,,,,,,,,,,,,,,,,,73,152710,20,Female,1,2024/02/21_08:45:12,SD,None,
,,,,,,calibration,0,19,2,679,1,V,0,right,0.38978899900394026,1,0,,,,,,,,,,,,,,,,,,,,,1,,,,,,,,,,,,,,,,,,,,,,,,,,,,,,,,,,,,,,,,,,,,,,73,152710,20,Female,1,2024/02/21_08:45:12,SD,None,
,,,,,,calibration,0,19,2,679,2,C,0,right,0.5325793619995238,1,0,,,,,,,,,,,,,,,,,,,,,1,,,,,,,,,,,,,,,,,,,,,,,,,,,,,,,,,,,,,,,,,,,,,,73,152710,20,Female,1,2024/02/21_08:45:12,SD,None,
,,,,,,calibration,0,19,2,679,3,V,1,left,0.5637740689999191,1,0,,,,,,,,,,,,,,,,,,,,,1,,,,,,,,,,,,,,,,,,,,,,,,,,,,,,,,,,,,,,,,,,,,,,73,152710,20,Female,1,2024/02/21_08:45:12,SD,None,
,,,,,,calibration,0,19,2,679,4,N,0,right,0.49215947699849494,1,0,,,,,,,,,,,,,,,,,,,,,1,,,,,,,,,,,,,,,,,,,,,,,,,,,,,,,,,,,,,,,,,,,,,,73,152710,20,Female,1,2024/02/21_08:45:12,SD,None,
,,,,,,calibration,0,19,2,679,5,V,1,left,0.5242055099952267,1,0,,,,,,,,,,,,,,,,,,,,,1,,,,,,,,,,,,,,,,,,,,,,,,,,,,,,,,,,,,,,,,,,,,,,73,152710,20,Female,1,2024/02/21_08:45:12,SD,None,
,,,,,,calibration,0,19,2,679,6,Q,0,right,0.4447833440062823,1,0,,,,,,,,,,,,,,,,,,,,,1,,,,,,,,,,,,,,,,,,,,,,,,,,,,,,,,,,,,,,,,,,,,,,73,152710,20,Female,1,2024/02/21_08:45:12,SD,None,
,,,,,,calibration,0,19,2,679,7,N,0,left,0.31698518399934983,0,0,,,,,,,,,,,,,,,,,,,,,1,,,,,,,,,,,,,,,,,,,,,,,,,,,,,,,,,,,,,,,,,,,,,,73,152710,20,Female,1,2024/02/21_08:45:12,SD,None,
,,,,,,calibration,0,19,2,679,8,F,0,right,0.38390767999953823,1,0,,,,,,,,,,,,,,,,,,,,,1,,,,,,,,,,,,,,,,,,,,,,,,,,,,,,,,,,,,,,,,,,,,,,73,152710,20,Female,1,2024/02/21_08:45:12,SD,None,
,,,,,,calibration,0,19,2,679,9,Q,0,left,0.419056452003133,0,0,,,,,,,,,,,,,,,,,,,,,1,,,,,,,,,,,,,,,,,,,,,,,,,,,,,,,,,,,,,,,,,,,,,,73,152710,20,Female,1,2024/02/21_08:45:12,SD,None,
,,,,,,calibration,0,19,2,679,10,X,0,right,0.44898742999794194,1,0,,,,,,,,,,,,,,,,,,,,,1,,,,,,,,,,,,,,,,,,,,,,,,,,,,,,,,,,,,,,,,,,,,,,73,152710,20,Female,1,2024/02/21_08:45:12,SD,None,
,,,,,,calibration,0,19,2,679,11,J,0,right,0.7322272090023034,1,0,,,,,,,,,,,,,,,,,,,,,1,,,,,,,,,,,,,,,,,,,,,,,,,,,,,,,,,,,,,,,,,,,,,,73,152710,20,Female,1,2024/02/21_08:45:12,SD,None,
,,,,,,calibration,0,19,2,679,12,X,1,right,0.4113620829957654,0,0,,,,,,,,,,,,,,,,,,,,,1,,,,,,,,,,,,,,,,,,,,,,,,,,,,,,,,,,,,,,,,,,,,,,73,152710,20,Female,1,2024/02/21_08:45:12,SD,None,
,,,,,,calibration,0,19,2,679,13,S,0,right,0.9593822459937655,1,0,,,,,,,,,,,,,,,,,,,,,1,,,,,,,,,,,,,,,,,,,,,,,,,,,,,,,,,,,,,,,,,,,,,,73,152710,20,Female,1,2024/02/21_08:45:12,SD,None,
,,,,,,calibration,0,19,2,679,14,X,1,left,0.791786466994381,1,0,,,,,,,,,,,,,,,,,,,,,1,,,,,,,,,,,,,,,,,,,,,,,,,,,,,,,,,,,,,,,,,,,,,,73,152710,20,Female,1,2024/02/21_08:45:12,SD,None,
,,,,,,calibration,0,19,2,679,,,,,,,,0.8374999999999999,0.75,0.2,0.8,0.0,0.8,0.5293561079992547,3,2,0,0,0,8,11,4,10,0,,,,1,,,,,,,,,,,,,,,,,,,,,,,,,,,,,,,,,,,,,,,,,,,,,,73,152710,20,Female,1,2024/02/21_08:45:12,SD,None,
,,,,,,Calibration,0,,2,679,,,,,,,,,,,,,,,,,,,,,,,,,7,,,1,,,,,,,,,,,,,,,,,,,,,,,,,,,,,,,,,,,,,,,,,,,,,,73,152710,20,Female,1,2024/02/21_08:45:12,SD,None,
,,,,,,calibration,0,16,2,679,1,X,0,right,0.350730147001741,1,0,,,,,,,,,,,,,,,,,,,,,1,,,,,,,,,,,,,,,,,,,,,,,,,,,,,,,,,,,,,,,,,,,,,,73,152710,20,Female,1,2024/02/21_08:45:12,SD,None,
,,,,,,calibration,0,16,2,679,2,N,0,right,0.7536589349983842,1,0,,,,,,,,,,,,,,,,,,,,,1,,,,,,,,,,,,,,,,,,,,,,,,,,,,,,,,,,,,,,,,,,,,,,73,152710,20,Female,1,2024/02/21_08:45:12,SD,None,
,,,,,,calibration,0,16,2,679,3,X,1,left,0.3262970750001841,1,0,,,,,,,,,,,,,,,,,,,,,1,,,,,,,,,,,,,,,,,,,,,,,,,,,,,,,,,,,,,,,,,,,,,,73,152710,20,Female,1,2024/02/21_08:45:12,SD,None,
,,,,,,calibration,0,16,2,679,4,F,0,right,0.48434855099912966,1,0,,,,,,,,,,,,,,,,,,,,,1,,,,,,,,,,,,,,,,,,,,,,,,,,,,,,,,,,,,,,,,,,,,,,73,152710,20,Female,1,2024/02/21_08:45:12,SD,None,
,,,,,,calibration,0,16,2,679,5,Q,0,right,0.5804688759963028,1,0,,,,,,,,,,,,,,,,,,,,,1,,,,,,,,,,,,,,,,,,,,,,,,,,,,,,,,,,,,,,,,,,,,,,73,152710,20,Female,1,2024/02/21_08:45:12,SD,None,
,,,,,,calibration,0,16,2,679,6,X,0,right,0.5404784839993226,1,0,,,,,,,,,,,,,,,,,,,,,1,,,,,,,,,,,,,,,,,,,,,,,,,,,,,,,,,,,,,,,,,,,,,,73,152710,20,Female,1,2024/02/21_08:45:12,SD,None,
,,,,,,calibration,0,16,2,679,7,Q,1,left,0.3556572129964479,1,0,,,,,,,,,,,,,,,,,,,,,1,,,,,,,,,,,,,,,,,,,,,,,,,,,,,,,,,,,,,,,,,,,,,,73,152710,20,Female,1,2024/02/21_08:45:12,SD,None,
,,,,,,calibration,0,16,2,679,8,J,0,right,0.348418704001233,1,0,,,,,,,,,,,,,,,,,,,,,1,,,,,,,,,,,,,,,,,,,,,,,,,,,,,,,,,,,,,,,,,,,,,,73,152710,20,Female,1,2024/02/21_08:45:12,SD,None,
,,,,,,calibration,0,16,2,679,9,V,0,left,0.4481432979955571,0,0,,,,,,,,,,,,,,,,,,,,,1,,,,,,,,,,,,,,,,,,,,,,,,,,,,,,,,,,,,,,,,,,,,,,73,152710,20,Female,1,2024/02/21_08:45:12,SD,None,
,,,,,,calibration,0,16,2,679,10,N,0,right,0.4348342719968059,1,0,,,,,,,,,,,,,,,,,,,,,1,,,,,,,,,,,,,,,,,,,,,,,,,,,,,,,,,,,,,,,,,,,,,,73,152710,20,Female,1,2024/02/21_08:45:12,SD,None,
,,,,,,calibration,0,16,2,679,11,X,0,left,0.6962183620053111,0,0,,,,,,,,,,,,,,,,,,,,,1,,,,,,,,,,,,,,,,,,,,,,,,,,,,,,,,,,,,,,,,,,,,,,73,152710,20,Female,1,2024/02/21_08:45:12,SD,None,
,,,,,,calibration,0,16,2,679,12,N,1,right,0.2914429160009604,0,0,,,,,,,,,,,,,,,,,,,,,1,,,,,,,,,,,,,,,,,,,,,,,,,,,,,,,,,,,,,,,,,,,,,,73,152710,20,Female,1,2024/02/21_08:45:12,SD,None,
,,,,,,calibration,0,16,2,679,13,X,1,right,nan,0,1,,,,,,,,,,,,,,,,,,,,,1,,,,,,,,,,,,,,,,,,,,,,,,,,,,,,,,,,,,,,,,,,,,,,73,152710,20,Female,1,2024/02/21_08:45:12,SD,None,
,,,,,,calibration,0,16,2,679,14,J,0,right,1.5431235199939692,1,0,,,,,,,,,,,,,,,,,,,,,1,,,,,,,,,,,,,,,,,,,,,,,,,,,,,,,,,,,,,,,,,,,,,,73,152710,20,Female,1,2024/02/21_08:45:12,SD,None,
,,,,,,calibration,0,16,2,679,,,,,,,,0.725,0.5,0.2,0.8,0.07142857142857142,0.7285714285714286,0.5502938733065653,2,2,1,0,1,8,10,4,10,0,,,,1,,,,,,,,,,,,,,,,,,,,,,,,,,,,,,,,,,,,,,,,,,,,,,73,152710,20,Female,1,2024/02/21_08:45:12,SD,None,
,,,,,,Calibration,0,,2,679,,,,,,,,,,,,,,,,,,,,,,,,,8,,,1,,,,,,,,,,,,,,,,,,,,,,,,,,,,,,,,,,,,,,,,,,,,,,73,152710,20,Female,1,2024/02/21_08:45:12,SD,None,
,,,,,,calibration,0,33,2,788,1,X,0,right,0.813869647005049,1,0,,,,,,,,,,,,,,,,,,,,,1,,,,,,,,,,,,,,,,,,,,,,,,,,,,,,,,,,,,,,,,,,,,,,73,152710,20,Female,1,2024/02/21_08:45:12,SD,None,
,,,,,,calibration,0,33,2,788,2,S,0,right,0.4150640919979196,1,0,,,,,,,,,,,,,,,,,,,,,1,,,,,,,,,,,,,,,,,,,,,,,,,,,,,,,,,,,,,,,,,,,,,,73,152710,20,Female,1,2024/02/21_08:45:12,SD,None,
,,,,,,calibration,0,33,2,788,3,X,1,left,0.449286316994403,1,0,,,,,,,,,,,,,,,,,,,,,1,,,,,,,,,,,,,,,,,,,,,,,,,,,,,,,,,,,,,,,,,,,,,,73,152710,20,Female,1,2024/02/21_08:45:12,SD,None,
,,,,,,calibration,0,33,2,788,4,N,0,right,0.40893090100144036,1,0,,,,,,,,,,,,,,,,,,,,,1,,,,,,,,,,,,,,,,,,,,,,,,,,,,,,,,,,,,,,,,,,,,,,73,152710,20,Female,1,2024/02/21_08:45:12,SD,None,
,,,,,,calibration,0,33,2,788,5,S,0,right,0.5908573100023204,1,0,,,,,,,,,,,,,,,,,,,,,1,,,,,,,,,,,,,,,,,,,,,,,,,,,,,,,,,,,,,,,,,,,,,,73,152710,20,Female,1,2024/02/21_08:45:12,SD,None,
,,,,,,calibration,0,33,2,788,6,C,0,right,0.6365663030010182,1,0,,,,,,,,,,,,,,,,,,,,,1,,,,,,,,,,,,,,,,,,,,,,,,,,,,,,,,,,,,,,,,,,,,,,73,152710,20,Female,1,2024/02/21_08:45:12,SD,None,
,,,,,,calibration,0,33,2,788,7,S,1,left,0.613312050998502,1,0,,,,,,,,,,,,,,,,,,,,,1,,,,,,,,,,,,,,,,,,,,,,,,,,,,,,,,,,,,,,,,,,,,,,73,152710,20,Female,1,2024/02/21_08:45:12,SD,None,
,,,,,,calibration,0,33,2,788,8,C,1,left,0.6414181450018077,1,0,,,,,,,,,,,,,,,,,,,,,1,,,,,,,,,,,,,,,,,,,,,,,,,,,,,,,,,,,,,,,,,,,,,,73,152710,20,Female,1,2024/02/21_08:45:12,SD,None,
,,,,,,calibration,0,33,2,788,9,J,0,right,1.2031501800011029,1,0,,,,,,,,,,,,,,,,,,,,,1,,,,,,,,,,,,,,,,,,,,,,,,,,,,,,,,,,,,,,,,,,,,,,73,152710,20,Female,1,2024/02/21_08:45:12,SD,None,
,,,,,,calibration,0,33,2,788,10,S,0,right,nan,0,1,,,,,,,,,,,,,,,,,,,,,1,,,,,,,,,,,,,,,,,,,,,,,,,,,,,,,,,,,,,,,,,,,,,,73,152710,20,Female,1,2024/02/21_08:45:12,SD,None,
,,,,,,calibration,0,33,2,788,11,J,1,left,1.0419405860011466,1,0,,,,,,,,,,,,,,,,,,,,,1,,,,,,,,,,,,,,,,,,,,,,,,,,,,,,,,,,,,,,,,,,,,,,73,152710,20,Female,1,2024/02/21_08:45:12,SD,None,
,,,,,,calibration,0,33,2,788,12,V,0,right,1.1372437000027276,1,0,,,,,,,,,,,,,,,,,,,,,1,,,,,,,,,,,,,,,,,,,,,,,,,,,,,,,,,,,,,,,,,,,,,,73,152710,20,Female,1,2024/02/21_08:45:12,SD,None,
,,,,,,calibration,0,33,2,788,13,X,0,right,0.7952310580003541,1,0,,,,,,,,,,,,,,,,,,,,,1,,,,,,,,,,,,,,,,,,,,,,,,,,,,,,,,,,,,,,,,,,,,,,73,152710,20,Female,1,2024/02/21_08:45:12,SD,None,
,,,,,,calibration,0,33,2,788,,,,,,,,1.0,1.0,0.0,1.0,0.07692307692307693,0.9230769230769231,0.7289058575006493,4,0,0,1,1,8,12,4,9,0,,,,1,,,,,,,,,,,,,,,,,,,,,,,,,,,,,,,,,,,,,,,,,,,,,,73,152710,20,Female,1,2024/02/21_08:45:12,SD,None,
,,,,,,Calibration,0,,2,788,,,,,,,,,,,,,,,,,,,,,,,,,9,,,1,,,,,,,,,,,,,,,,,,,,,,,,,,,,,,,,,,,,,,,,,,,,,,73,152710,20,Female,1,2024/02/21_08:45:12,SD,None,
,,,,,,calibration,0,8,2,679,1,J,0,right,0.6862508210033411,1,0,,,,,,,,,,,,,,,,,,,,,1,,,,,,,,,,,,,,,,,,,,,,,,,,,,,,,,,,,,,,,,,,,,,,73,152710,20,Female,1,2024/02/21_08:45:12,SD,None,
,,,,,,calibration,0,8,2,679,2,C,0,right,0.3168185379981878,1,0,,,,,,,,,,,,,,,,,,,,,1,,,,,,,,,,,,,,,,,,,,,,,,,,,,,,,,,,,,,,,,,,,,,,73,152710,20,Female,1,2024/02/21_08:45:12,SD,None,
,,,,,,calibration,0,8,2,679,3,J,1,left,0.40004400099860504,1,0,,,,,,,,,,,,,,,,,,,,,1,,,,,,,,,,,,,,,,,,,,,,,,,,,,,,,,,,,,,,,,,,,,,,73,152710,20,Female,1,2024/02/21_08:45:12,SD,None,
,,,,,,calibration,0,8,2,679,4,S,0,right,0.41800455899647204,1,0,,,,,,,,,,,,,,,,,,,,,1,,,,,,,,,,,,,,,,,,,,,,,,,,,,,,,,,,,,,,,,,,,,,,73,152710,20,Female,1,2024/02/21_08:45:12,SD,None,
,,,,,,calibration,0,8,2,679,5,J,1,left,0.38474573800340295,1,0,,,,,,,,,,,,,,,,,,,,,1,,,,,,,,,,,,,,,,,,,,,,,,,,,,,,,,,,,,,,,,,,,,,,73,152710,20,Female,1,2024/02/21_08:45:12,SD,None,
,,,,,,calibration,0,8,2,679,6,N,0,right,0.43935671399958665,1,0,,,,,,,,,,,,,,,,,,,,,1,,,,,,,,,,,,,,,,,,,,,,,,,,,,,,,,,,,,,,,,,,,,,,73,152710,20,Female,1,2024/02/21_08:45:12,SD,None,
,,,,,,calibration,0,8,2,679,7,V,0,right,0.6294661790016107,1,0,,,,,,,,,,,,,,,,,,,,,1,,,,,,,,,,,,,,,,,,,,,,,,,,,,,,,,,,,,,,,,,,,,,,73,152710,20,Female,1,2024/02/21_08:45:12,SD,None,
,,,,,,calibration,0,8,2,679,8,F,0,right,0.5359942089999095,1,0,,,,,,,,,,,,,,,,,,,,,1,,,,,,,,,,,,,,,,,,,,,,,,,,,,,,,,,,,,,,,,,,,,,,73,152710,20,Female,1,2024/02/21_08:45:12,SD,None,
,,,,,,calibration,0,8,2,679,9,C,0,right,0.902082029999292,1,0,,,,,,,,,,,,,,,,,,,,,1,,,,,,,,,,,,,,,,,,,,,,,,,,,,,,,,,,,,,,,,,,,,,,73,152710,20,Female,1,2024/02/21_08:45:12,SD,None,
,,,,,,calibration,0,8,2,679,10,X,0,right,0.5587243299960392,1,0,,,,,,,,,,,,,,,,,,,,,1,,,,,,,,,,,,,,,,,,,,,,,,,,,,,,,,,,,,,,,,,,,,,,73,152710,20,Female,1,2024/02/21_08:45:12,SD,None,
,,,,,,calibration,0,8,2,679,11,C,1,left,0.6306173390039476,1,0,,,,,,,,,,,,,,,,,,,,,1,,,,,,,,,,,,,,,,,,,,,,,,,,,,,,,,,,,,,,,,,,,,,,73,152710,20,Female,1,2024/02/21_08:45:12,SD,None,
,,,,,,calibration,0,8,2,679,12,N,0,right,0.3071042800002033,1,0,,,,,,,,,,,,,,,,,,,,,1,,,,,,,,,,,,,,,,,,,,,,,,,,,,,,,,,,,,,,,,,,,,,,73,152710,20,Female,1,2024/02/21_08:45:12,SD,None,
,,,,,,calibration,0,8,2,679,13,X,0,right,0.32049361700046575,1,0,,,,,,,,,,,,,,,,,,,,,1,,,,,,,,,,,,,,,,,,,,,,,,,,,,,,,,,,,,,,,,,,,,,,73,152710,20,Female,1,2024/02/21_08:45:12,SD,None,
,,,,,,calibration,0,8,2,679,14,N,1,left,0.9929765990018495,1,0,,,,,,,,,,,,,,,,,,,,,1,,,,,,,,,,,,,,,,,,,,,,,,,,,,,,,,,,,,,,,,,,,,,,73,152710,20,Female,1,2024/02/21_08:45:12,SD,None,
,,,,,,calibration,0,8,2,679,,,,,,,,1.0,1.0,0.0,1.0,0.0,1.0,0.5373342110002081,4,0,0,0,0,10,14,4,10,0,,,,1,,,,,,,,,,,,,,,,,,,,,,,,,,,,,,,,,,,,,,,,,,,,,,73,152710,20,Female,1,2024/02/21_08:45:12,SD,None,
,,,,,,Calibration,0,,2,679,,,,,,,,,,,,,,,,,,,,,,,,,10,,,1,,,,,,,,,,,,,,,,,,,,,,,,,,,,,,,,,,,,,,,,,,,,,,73,152710,20,Female,1,2024/02/21_08:45:12,SD,None,
,,,,,,calibration,0,2,2,583,1,N,0,right,1.2584741700047744,1,0,,,,,,,,,,,,,,,,,,,,,1,,,,,,,,,,,,,,,,,,,,,,,,,,,,,,,,,,,,,,,,,,,,,,73,152710,20,Female,1,2024/02/21_08:45:12,SD,None,
,,,,,,calibration,0,2,2,583,2,Q,0,right,0.7086757029974251,1,0,,,,,,,,,,,,,,,,,,,,,1,,,,,,,,,,,,,,,,,,,,,,,,,,,,,,,,,,,,,,,,,,,,,,73,152710,20,Female,1,2024/02/21_08:45:12,SD,None,
,,,,,,calibration,0,2,2,583,3,N,1,left,0.3097335159982322,1,0,,,,,,,,,,,,,,,,,,,,,1,,,,,,,,,,,,,,,,,,,,,,,,,,,,,,,,,,,,,,,,,,,,,,73,152710,20,Female,1,2024/02/21_08:45:12,SD,None,
,,,,,,calibration,0,2,2,583,4,Q,1,left,0.4677963920039474,1,0,,,,,,,,,,,,,,,,,,,,,1,,,,,,,,,,,,,,,,,,,,,,,,,,,,,,,,,,,,,,,,,,,,,,73,152710,20,Female,1,2024/02/21_08:45:12,SD,None,
,,,,,,calibration,0,2,2,583,5,C,0,right,0.6025415859985515,1,0,,,,,,,,,,,,,,,,,,,,,1,,,,,,,,,,,,,,,,,,,,,,,,,,,,,,,,,,,,,,,,,,,,,,73,152710,20,Female,1,2024/02/21_08:45:12,SD,None,
,,,,,,calibration,0,2,2,583,6,S,0,right,0.40461048699944513,1,0,,,,,,,,,,,,,,,,,,,,,1,,,,,,,,,,,,,,,,,,,,,,,,,,,,,,,,,,,,,,,,,,,,,,73,152710,20,Female,1,2024/02/21_08:45:12,SD,None,
,,,,,,calibration,0,2,2,583,7,J,0,right,0.8997623680043034,1,0,,,,,,,,,,,,,,,,,,,,,1,,,,,,,,,,,,,,,,,,,,,,,,,,,,,,,,,,,,,,,,,,,,,,73,152710,20,Female,1,2024/02/21_08:45:12,SD,None,
,,,,,,calibration,0,2,2,583,8,X,0,right,0.7089435649977531,1,0,,,,,,,,,,,,,,,,,,,,,1,,,,,,,,,,,,,,,,,,,,,,,,,,,,,,,,,,,,,,,,,,,,,,73,152710,20,Female,1,2024/02/21_08:45:12,SD,None,
,,,,,,calibration,0,2,2,583,9,S,0,right,0.7348176809973666,1,0,,,,,,,,,,,,,,,,,,,,,1,,,,,,,,,,,,,,,,,,,,,,,,,,,,,,,,,,,,,,,,,,,,,,73,152710,20,Female,1,2024/02/21_08:45:12,SD,None,
,,,,,,calibration,0,2,2,583,10,Q,0,right,0.969608077997691,1,0,,,,,,,,,,,,,,,,,,,,,1,,,,,,,,,,,,,,,,,,,,,,,,,,,,,,,,,,,,,,,,,,,,,,73,152710,20,Female,1,2024/02/21_08:45:12,SD,None,
,,,,,,calibration,0,2,2,583,11,S,1,left,0.4774872130001313,1,0,,,,,,,,,,,,,,,,,,,,,1,,,,,,,,,,,,,,,,,,,,,,,,,,,,,,,,,,,,,,,,,,,,,,73,152710,20,Female,1,2024/02/21_08:45:12,SD,None,
,,,,,,calibration,0,2,2,583,12,X,0,right,0.41715999000007287,1,0,,,,,,,,,,,,,,,,,,,,,1,,,,,,,,,,,,,,,,,,,,,,,,,,,,,,,,,,,,,,,,,,,,,,73,152710,20,Female,1,2024/02/21_08:45:12,SD,None,
,,,,,,calibration,0,2,2,583,13,S,1,left,0.5486226770008216,1,0,,,,,,,,,,,,,,,,,,,,,1,,,,,,,,,,,,,,,,,,,,,,,,,,,,,,,,,,,,,,,,,,,,,,73,152710,20,Female,1,2024/02/21_08:45:12,SD,None,
,,,,,,calibration,0,2,2,583,14,N,0,right,0.5583171419930295,1,0,,,,,,,,,,,,,,,,,,,,,1,,,,,,,,,,,,,,,,,,,,,,,,,,,,,,,,,,,,,,,,,,,,,,73,152710,20,Female,1,2024/02/21_08:45:12,SD,None,
,,,,,,calibration,0,2,2,583,15,S,1,left,0.36452450799697544,1,0,,,,,,,,,,,,,,,,,,,,,1,,,,,,,,,,,,,,,,,,,,,,,,,,,,,,,,,,,,,,,,,,,,,,73,152710,20,Female,1,2024/02/21_08:45:12,SD,None,
,,,,,,calibration,0,2,2,583,,,,,,,,1.0,1.0,0.0,1.0,0.0,1.0,0.628738338399368,5,0,0,0,0,10,15,5,10,0,,,,1,,,,,,,,,,,,,,,,,,,,,,,,,,,,,,,,,,,,,,,,,,,,,,73,152710,20,Female,1,2024/02/21_08:45:12,SD,None,
,,,,,,Calibration,0,,2,583,,,,,,,,,,,,,,,,,,,,,,,,,11,,,1,,,,,,,,,,,,,,,,,,,,,,,,,,,,,,,,,,,,,,,,,,,,,,73,152710,20,Female,1,2024/02/21_08:45:12,SD,None,
,,,,,,calibration,0,17,2,500,1,V,0,right,0.606809078999504,1,0,,,,,,,,,,,,,,,,,,,,,1,,,,,,,,,,,,,,,,,,,,,,,,,,,,,,,,,,,,,,,,,,,,,,73,152710,20,Female,1,2024/02/21_08:45:12,SD,None,
,,,,,,calibration,0,17,2,500,2,V,0,right,0.6579483820023597,1,0,,,,,,,,,,,,,,,,,,,,,1,,,,,,,,,,,,,,,,,,,,,,,,,,,,,,,,,,,,,,,,,,,,,,73,152710,20,Female,1,2024/02/21_08:45:12,SD,None,
,,,,,,calibration,0,17,2,500,3,V,1,left,0.5713891330015031,1,0,,,,,,,,,,,,,,,,,,,,,1,,,,,,,,,,,,,,,,,,,,,,,,,,,,,,,,,,,,,,,,,,,,,,73,152710,20,Female,1,2024/02/21_08:45:12,SD,None,
,,,,,,calibration,0,17,2,500,4,V,1,left,0.4731916319942684,1,0,,,,,,,,,,,,,,,,,,,,,1,,,,,,,,,,,,,,,,,,,,,,,,,,,,,,,,,,,,,,,,,,,,,,73,152710,20,Female,1,2024/02/21_08:45:12,SD,None,
,,,,,,calibration,0,17,2,500,5,S,0,right,0.6782651429966791,1,0,,,,,,,,,,,,,,,,,,,,,1,,,,,,,,,,,,,,,,,,,,,,,,,,,,,,,,,,,,,,,,,,,,,,73,152710,20,Female,1,2024/02/21_08:45:12,SD,None,
,,,,,,calibration,0,17,2,500,6,J,0,right,0.634574456998962,1,0,,,,,,,,,,,,,,,,,,,,,1,,,,,,,,,,,,,,,,,,,,,,,,,,,,,,,,,,,,,,,,,,,,,,73,152710,20,Female,1,2024/02/21_08:45:12,SD,None,
,,,,,,calibration,0,17,2,500,7,X,0,right,0.6683712660014862,1,0,,,,,,,,,,,,,,,,,,,,,1,,,,,,,,,,,,,,,,,,,,,,,,,,,,,,,,,,,,,,,,,,,,,,73,152710,20,Female,1,2024/02/21_08:45:12,SD,None,
,,,,,,calibration,0,17,2,500,8,C,0,right,0.7271201030016528,1,0,,,,,,,,,,,,,,,,,,,,,1,,,,,,,,,,,,,,,,,,,,,,,,,,,,,,,,,,,,,,,,,,,,,,73,152710,20,Female,1,2024/02/21_08:45:12,SD,None,
,,,,,,calibration,0,17,2,500,9,X,1,left,0.7655057109950576,1,0,,,,,,,,,,,,,,,,,,,,,1,,,,,,,,,,,,,,,,,,,,,,,,,,,,,,,,,,,,,,,,,,,,,,73,152710,20,Female,1,2024/02/21_08:45:12,SD,None,
,,,,,,calibration,0,17,2,500,10,F,0,right,0.41049659199779853,1,0,,,,,,,,,,,,,,,,,,,,,1,,,,,,,,,,,,,,,,,,,,,,,,,,,,,,,,,,,,,,,,,,,,,,73,152710,20,Female,1,2024/02/21_08:45:12,SD,None,
,,,,,,calibration,0,17,2,500,11,C,0,left,0.6650011149977217,0,0,,,,,,,,,,,,,,,,,,,,,1,,,,,,,,,,,,,,,,,,,,,,,,,,,,,,,,,,,,,,,,,,,,,,73,152710,20,Female,1,2024/02/21_08:45:12,SD,None,
,,,,,,calibration,0,17,2,500,12,F,1,right,0.4534431739957654,0,0,,,,,,,,,,,,,,,,,,,,,1,,,,,,,,,,,,,,,,,,,,,,,,,,,,,,,,,,,,,,,,,,,,,,73,152710,20,Female,1,2024/02/21_08:45:12,SD,None,
,,,,,,calibration,0,17,2,500,13,Q,0,left,0.7154860059963539,0,0,,,,,,,,,,,,,,,,,,,,,1,,,,,,,,,,,,,,,,,,,,,,,,,,,,,,,,,,,,,,,,,,,,,,73,152710,20,Female,1,2024/02/21_08:45:12,SD,None,
,,,,,,calibration,0,17,2,500,14,N,0,left,nan,0,1,,,,,,,,,,,,,,,,,,,,,1,,,,,,,,,,,,,,,,,,,,,,,,,,,,,,,,,,,,,,,,,,,,,,73,152710,20,Female,1,2024/02/21_08:45:12,SD,None,
,,,,,,calibration,0,17,2,500,15,C,0,right,0.23208352100482443,1,0,,,,,,,,,,,,,,,,,,,,,1,,,,,,,,,,,,,,,,,,,,,,,,,,,,,,,,,,,,,,,,,,,,,,73,152710,20,Female,1,2024/02/21_08:45:12,SD,None,
,,,,,,calibration,0,17,2,500,16,F,0,right,0.6161200589995133,1,0,,,,,,,,,,,,,,,,,,,,,1,,,,,,,,,,,,,,,,,,,,,,,,,,,,,,,,,,,,,,,,,,,,,,73,152710,20,Female,1,2024/02/21_08:45:12,SD,None,
,,,,,,calibration,0,17,2,500,,,,,,,,0.8541666666666667,0.75,0.16666666666666666,0.8181818181818182,0.0625,0.7708333333333334,0.5917203581988967,3,2,0,1,1,9,12,4,12,0,,,,1,,,,,,,,,,,,,,,,,,,,,,,,,,,,,,,,,,,,,,,,,,,,,,73,152710,20,Female,1,2024/02/21_08:45:12,SD,None,
,,,,,,Calibration,0,,2,500,,,,,,,,,,,,,,,,,,,,,,,,,12,,,1,,,,,,,,,,,,,,,,,,,,,,,,,,,,,,,,,,,,,,,,,,,,,,73,152710,20,Female,1,2024/02/21_08:45:12,SD,None,
,,,,,,calibration,0,16,2,426,1,S,0,right,0.6477177959968685,1,0,,,,,,,,,,,,,,,,,,,,,1,,,,,,,,,,,,,,,,,,,,,,,,,,,,,,,,,,,,,,,,,,,,,,73,152710,20,Female,1,2024/02/21_08:45:12,SD,None,
,,,,,,calibration,0,16,2,426,2,S,0,right,0.33913839500019094,1,0,,,,,,,,,,,,,,,,,,,,,1,,,,,,,,,,,,,,,,,,,,,,,,,,,,,,,,,,,,,,,,,,,,,,73,152710,20,Female,1,2024/02/21_08:45:12,SD,None,
,,,,,,calibration,0,16,2,426,3,S,1,left,0.36842680600238964,1,0,,,,,,,,,,,,,,,,,,,,,1,,,,,,,,,,,,,,,,,,,,,,,,,,,,,,,,,,,,,,,,,,,,,,73,152710,20,Female,1,2024/02/21_08:45:12,SD,None,
,,,,,,calibration,0,16,2,426,4,C,0,right,0.39914182200300274,1,0,,,,,,,,,,,,,,,,,,,,,1,,,,,,,,,,,,,,,,,,,,,,,,,,,,,,,,,,,,,,,,,,,,,,73,152710,20,Female,1,2024/02/21_08:45:12,SD,None,
,,,,,,calibration,0,16,2,426,5,N,0,left,0.23590508299821522,0,0,,,,,,,,,,,,,,,,,,,,,1,,,,,,,,,,,,,,,,,,,,,,,,,,,,,,,,,,,,,,,,,,,,,,73,152710,20,Female,1,2024/02/21_08:45:12,SD,None,
,,,,,,calibration,0,16,2,426,6,X,0,left,nan,0,1,,,,,,,,,,,,,,,,,,,,,1,,,,,,,,,,,,,,,,,,,,,,,,,,,,,,,,,,,,,,,,,,,,,,73,152710,20,Female,1,2024/02/21_08:45:12,SD,None,
,,,,,,calibration,0,16,2,426,7,C,0,right,0.5572631100003491,1,0,,,,,,,,,,,,,,,,,,,,,1,,,,,,,,,,,,,,,,,,,,,,,,,,,,,,,,,,,,,,,,,,,,,,73,152710,20,Female,1,2024/02/21_08:45:12,SD,None,
,,,,,,calibration,0,16,2,426,8,N,0,right,0.5882542550025391,1,0,,,,,,,,,,,,,,,,,,,,,1,,,,,,,,,,,,,,,,,,,,,,,,,,,,,,,,,,,,,,,,,,,,,,73,152710,20,Female,1,2024/02/21_08:45:12,SD,None,
,,,,,,calibration,0,16,2,426,9,V,0,right,0.6236240310026915,1,0,,,,,,,,,,,,,,,,,,,,,1,,,,,,,,,,,,,,,,,,,,,,,,,,,,,,,,,,,,,,,,,,,,,,73,152710,20,Female,1,2024/02/21_08:45:12,SD,None,
,,,,,,calibration,0,16,2,426,10,N,1,left,0.668811439005367,1,0,,,,,,,,,,,,,,,,,,,,,1,,,,,,,,,,,,,,,,,,,,,,,,,,,,,,,,,,,,,,,,,,,,,,73,152710,20,Female,1,2024/02/21_08:45:12,SD,None,
,,,,,,calibration,0,16,2,426,11,S,0,right,0.31440440199367004,1,0,,,,,,,,,,,,,,,,,,,,,1,,,,,,,,,,,,,,,,,,,,,,,,,,,,,,,,,,,,,,,,,,,,,,73,152710,20,Female,1,2024/02/21_08:45:12,SD,None,
,,,,,,calibration,0,16,2,426,12,N,1,left,0.7170515609977883,1,0,,,,,,,,,,,,,,,,,,,,,1,,,,,,,,,,,,,,,,,,,,,,,,,,,,,,,,,,,,,,,,,,,,,,73,152710,20,Female,1,2024/02/21_08:45:12,SD,None,
,,,,,,calibration,0,16,2,426,13,F,0,right,0.3295729259989457,1,0,,,,,,,,,,,,,,,,,,,,,1,,,,,,,,,,,,,,,,,,,,,,,,,,,,,,,,,,,,,,,,,,,,,,73,152710,20,Female,1,2024/02/21_08:45:12,SD,None,
,,,,,,calibration,0,16,2,426,14,N,1,left,0.2923809279964189,1,0,,,,,,,,,,,,,,,,,,,,,1,,,,,,,,,,,,,,,,,,,,,,,,,,,,,,,,,,,,,,,,,,,,,,73,152710,20,Female,1,2024/02/21_08:45:12,SD,None,
,,,,,,calibration,0,16,2,426,15,S,0,right,0.3563698360012495,1,0,,,,,,,,,,,,,,,,,,,,,1,,,,,,,,,,,,,,,,,,,,,,,,,,,,,,,,,,,,,,,,,,,,,,73,152710,20,Female,1,2024/02/21_08:45:12,SD,None,
,,,,,,calibration,0,16,2,426,16,N,1,left,0.3294931250056834,1,0,,,,,,,,,,,,,,,,,,,,,1,,,,,,,,,,,,,,,,,,,,,,,,,,,,,,,,,,,,,,,,,,,,,,73,152710,20,Female,1,2024/02/21_08:45:12,SD,None,
,,,,,,calibration,0,16,2,426,17,F,0,right,0.26831409000442363,1,0,,,,,,,,,,,,,,,,,,,,,1,,,,,,,,,,,,,,,,,,,,,,,,,,,,,,,,,,,,,,,,,,,,,,73,152710,20,Female,1,2024/02/21_08:45:12,SD,None,
,,,,,,calibration,0,16,2,426,,,,,,,,0.9791666666666666,1.0,0.08333333333333333,0.9090909090909091,0.058823529411764705,0.8578431372549019,0.4397418503131121,5,1,0,1,1,10,15,5,12,0,,,,1,,,,,,,,,,,,,,,,,,,,,,,,,,,,,,,,,,,,,,,,,,,,,,73,152710,20,Female,1,2024/02/21_08:45:12,SD,None,
,,,,,,Calibration,0,,2,426,,,,,,,,,,,,,,,,,,,,,,,,,13,,,1,,,,,,,,,,,,,,,,,,,,,,,,,,,,,,,,,,,,,,,,,,,,,,73,152710,20,Female,1,2024/02/21_08:45:12,SD,None,
,,,,,,calibration,0,34,2,361,1,F,0,right,0.8002534589977586,1,0,,,,,,,,,,,,,,,,,,,,,1,,,,,,,,,,,,,,,,,,,,,,,,,,,,,,,,,,,,,,,,,,,,,,73,152710,20,Female,1,2024/02/21_08:45:12,SD,None,
,,,,,,calibration,0,34,2,361,2,C,0,right,nan,0,1,,,,,,,,,,,,,,,,,,,,,1,,,,,,,,,,,,,,,,,,,,,,,,,,,,,,,,,,,,,,,,,,,,,,73,152710,20,Female,1,2024/02/21_08:45:12,SD,None,
,,,,,,calibration,0,34,2,361,3,V,0,right,0.6238327519968152,1,0,,,,,,,,,,,,,,,,,,,,,1,,,,,,,,,,,,,,,,,,,,,,,,,,,,,,,,,,,,,,,,,,,,,,73,152710,20,Female,1,2024/02/21_08:45:12,SD,None,
,,,,,,calibration,0,34,2,361,4,X,0,right,0.8547907929969369,1,0,,,,,,,,,,,,,,,,,,,,,1,,,,,,,,,,,,,,,,,,,,,,,,,,,,,,,,,,,,,,,,,,,,,,73,152710,20,Female,1,2024/02/21_08:45:12,SD,None,
,,,,,,calibration,0,34,2,361,5,V,1,left,0.7521701389996451,1,0,,,,,,,,,,,,,,,,,,,,,1,,,,,,,,,,,,,,,,,,,,,,,,,,,,,,,,,,,,,,,,,,,,,,73,152710,20,Female,1,2024/02/21_08:45:12,SD,None,
,,,,,,calibration,0,34,2,361,6,N,0,right,0.45837212900369195,1,0,,,,,,,,,,,,,,,,,,,,,1,,,,,,,,,,,,,,,,,,,,,,,,,,,,,,,,,,,,,,,,,,,,,,73,152710,20,Female,1,2024/02/21_08:45:12,SD,None,
,,,,,,calibration,0,34,2,361,7,V,1,left,0.9709067639996647,1,0,,,,,,,,,,,,,,,,,,,,,1,,,,,,,,,,,,,,,,,,,,,,,,,,,,,,,,,,,,,,,,,,,,,,73,152710,20,Female,1,2024/02/21_08:45:12,SD,None,
,,,,,,calibration,0,34,2,361,8,N,1,left,0.8676296100020409,1,0,,,,,,,,,,,,,,,,,,,,,1,,,,,,,,,,,,,,,,,,,,,,,,,,,,,,,,,,,,,,,,,,,,,,73,152710,20,Female,1,2024/02/21_08:45:12,SD,None,
,,,,,,calibration,0,34,2,361,9,J,0,right,0.5523059199986164,1,0,,,,,,,,,,,,,,,,,,,,,1,,,,,,,,,,,,,,,,,,,,,,,,,,,,,,,,,,,,,,,,,,,,,,73,152710,20,Female,1,2024/02/21_08:45:12,SD,None,
,,,,,,calibration,0,34,2,361,10,V,0,left,0.754673110001022,0,0,,,,,,,,,,,,,,,,,,,,,1,,,,,,,,,,,,,,,,,,,,,,,,,,,,,,,,,,,,,,,,,,,,,,73,152710,20,Female,1,2024/02/21_08:45:12,SD,None,
,,,,,,calibration,0,34,2,361,11,C,0,right,0.7301532580022467,1,0,,,,,,,,,,,,,,,,,,,,,1,,,,,,,,,,,,,,,,,,,,,,,,,,,,,,,,,,,,,,,,,,,,,,73,152710,20,Female,1,2024/02/21_08:45:12,SD,None,
,,,,,,calibration,0,34,2,361,12,V,1,left,0.598091222003859,1,0,,,,,,,,,,,,,,,,,,,,,1,,,,,,,,,,,,,,,,,,,,,,,,,,,,,,,,,,,,,,,,,,,,,,73,152710,20,Female,1,2024/02/21_08:45:12,SD,None,
,,,,,,calibration,0,34,2,361,13,J,0,right,0.5817905789954239,1,0,,,,,,,,,,,,,,,,,,,,,1,,,,,,,,,,,,,,,,,,,,,,,,,,,,,,,,,,,,,,,,,,,,,,73,152710,20,Female,1,2024/02/21_08:45:12,SD,None,
,,,,,,calibration,0,34,2,361,14,S,0,right,nan,0,1,,,,,,,,,,,,,,,,,,,,,1,,,,,,,,,,,,,,,,,,,,,,,,,,,,,,,,,,,,,,,,,,,,,,73,152710,20,Female,1,2024/02/21_08:45:12,SD,None,
,,,,,,calibration,0,34,2,361,15,J,1,left,0.7661992170033045,1,0,,,,,,,,,,,,,,,,,,,,,1,,,,,,,,,,,,,,,,,,,,,,,,,,,,,,,,,,,,,,,,,,,,,,73,152710,20,Female,1,2024/02/21_08:45:12,SD,None,
,,,,,,calibration,0,34,2,361,16,V,0,left,0.9584677310049301,0,0,,,,,,,,,,,,,,,,,,,,,1,,,,,,,,,,,,,,,,,,,,,,,,,,,,,,,,,,,,,,,,,,,,,,73,152710,20,Female,1,2024/02/21_08:45:12,SD,None,
,,,,,,calibration,0,34,2,361,17,F,0,right,0.5003789059992414,1,0,,,,,,,,,,,,,,,,,,,,,1,,,,,,,,,,,,,,,,,,,,,,,,,,,,,,,,,,,,,,,,,,,,,,73,152710,20,Female,1,2024/02/21_08:45:12,SD,None,
,,,,,,calibration,0,34,2,361,18,S,0,right,nan,0,1,,,,,,,,,,,,,,,,,,,,,1,,,,,,,,,,,,,,,,,,,,,,,,,,,,,,,,,,,,,,,,,,,,,,73,152710,20,Female,1,2024/02/21_08:45:12,SD,None,
,,,,,,calibration,0,34,2,361,,,,,,,,0.9615384615384616,1.0,0.15384615384615385,0.8,0.16666666666666666,0.6794871794871795,0.7180010392670132,5,2,0,3,3,8,13,5,13,0,,,,1,,,,,,,,,,,,,,,,,,,,,,,,,,,,,,,,,,,,,,,,,,,,,,73,152710,20,Female,1,2024/02/21_08:45:12,SD,None,
,,,,,,Calibration,0,,2,361,,,,,,,,,,,,,,,,,,,,,,,,,14,,,1,,,,,,,,,,,,,,,,,,,,,,,,,,,,,,,,,,,,,,,,,,,,,,73,152710,20,Female,1,2024/02/21_08:45:12,SD,None,
,,,,,,calibration,0,28,2,303,1,S,0,right,0.6363539029989624,1,0,,,,,,,,,,,,,,,,,,,,,1,,,,,,,,,,,,,,,,,,,,,,,,,,,,,,,,,,,,,,,,,,,,,,73,152710,20,Female,1,2024/02/21_08:45:12,SD,None,
,,,,,,calibration,0,28,2,303,2,F,0,right,0.315058145999501,1,0,,,,,,,,,,,,,,,,,,,,,1,,,,,,,,,,,,,,,,,,,,,,,,,,,,,,,,,,,,,,,,,,,,,,73,152710,20,Female,1,2024/02/21_08:45:12,SD,None,
,,,,,,calibration,0,28,2,303,3,C,0,right,0.4741568850004114,1,0,,,,,,,,,,,,,,,,,,,,,1,,,,,,,,,,,,,,,,,,,,,,,,,,,,,,,,,,,,,,,,,,,,,,73,152710,20,Female,1,2024/02/21_08:45:12,SD,None,
,,,,,,calibration,0,28,2,303,4,F,1,left,0.49817993299802765,1,0,,,,,,,,,,,,,,,,,,,,,1,,,,,,,,,,,,,,,,,,,,,,,,,,,,,,,,,,,,,,,,,,,,,,73,152710,20,Female,1,2024/02/21_08:45:12,SD,None,
,,,,,,calibration,0,28,2,303,5,X,0,right,0.33097394200012786,1,0,,,,,,,,,,,,,,,,,,,,,1,,,,,,,,,,,,,,,,,,,,,,,,,,,,,,,,,,,,,,,,,,,,,,73,152710,20,Female,1,2024/02/21_08:45:12,SD,None,
,,,,,,calibration,0,28,2,303,6,Q,0,right,0.3282751759979874,1,0,,,,,,,,,,,,,,,,,,,,,1,,,,,,,,,,,,,,,,,,,,,,,,,,,,,,,,,,,,,,,,,,,,,,73,152710,20,Female,1,2024/02/21_08:45:12,SD,None,
,,,,,,calibration,0,28,2,303,7,X,1,left,0.49662862200057134,1,0,,,,,,,,,,,,,,,,,,,,,1,,,,,,,,,,,,,,,,,,,,,,,,,,,,,,,,,,,,,,,,,,,,,,73,152710,20,Female,1,2024/02/21_08:45:12,SD,None,
,,,,,,calibration,0,28,2,303,8,F,0,right,0.22017186100129038,1,0,,,,,,,,,,,,,,,,,,,,,1,,,,,,,,,,,,,,,,,,,,,,,,,,,,,,,,,,,,,,,,,,,,,,73,152710,20,Female,1,2024/02/21_08:45:12,SD,None,
,,,,,,calibration,0,28,2,303,9,X,1,right,0.360438259995135,0,0,,,,,,,,,,,,,,,,,,,,,1,,,,,,,,,,,,,,,,,,,,,,,,,,,,,,,,,,,,,,,,,,,,,,73,152710,20,Female,1,2024/02/21_08:45:12,SD,None,
,,,,,,calibration,0,28,2,303,10,S,0,right,0.36473223799839616,1,0,,,,,,,,,,,,,,,,,,,,,1,,,,,,,,,,,,,,,,,,,,,,,,,,,,,,,,,,,,,,,,,,,,,,73,152710,20,Female,1,2024/02/21_08:45:12,SD,None,
,,,,,,calibration,0,28,2,303,11,C,0,right,0.5383355130034033,1,0,,,,,,,,,,,,,,,,,,,,,1,,,,,,,,,,,,,,,,,,,,,,,,,,,,,,,,,,,,,,,,,,,,,,73,152710,20,Female,1,2024/02/21_08:45:12,SD,None,
,,,,,,calibration,0,28,2,303,12,J,0,right,0.8705749559958349,1,0,,,,,,,,,,,,,,,,,,,,,1,,,,,,,,,,,,,,,,,,,,,,,,,,,,,,,,,,,,,,,,,,,,,,73,152710,20,Female,1,2024/02/21_08:45:12,SD,None,
,,,,,,calibration,0,28,2,303,13,Q,0,right,nan,0,1,,,,,,,,,,,,,,,,,,,,,1,,,,,,,,,,,,,,,,,,,,,,,,,,,,,,,,,,,,,,,,,,,,,,73,152710,20,Female,1,2024/02/21_08:45:12,SD,None,
,,,,,,calibration,0,28,2,303,14,J,1,left,0.6087968339998042,1,0,,,,,,,,,,,,,,,,,,,,,1,,,,,,,,,,,,,,,,,,,,,,,,,,,,,,,,,,,,,,,,,,,,,,73,152710,20,Female,1,2024/02/21_08:45:12,SD,None,
,,,,,,calibration,0,28,2,303,15,V,0,right,0.38841846699506277,1,0,,,,,,,,,,,,,,,,,,,,,1,,,,,,,,,,,,,,,,,,,,,,,,,,,,,,,,,,,,,,,,,,,,,,73,152710,20,Female,1,2024/02/21_08:45:12,SD,None,
,,,,,,calibration,0,28,2,303,16,S,0,left,0.40981999300129246,0,0,,,,,,,,,,,,,,,,,,,,,1,,,,,,,,,,,,,,,,,,,,,,,,,,,,,,,,,,,,,,,,,,,,,,73,152710,20,Female,1,2024/02/21_08:45:12,SD,None,
,,,,,,calibration,0,28,2,303,17,V,1,right,0.24434687199391192,0,0,,,,,,,,,,,,,,,,,,,,,1,,,,,,,,,,,,,,,,,,,,,,,,,,,,,,,,,,,,,,,,,,,,,,73,152710,20,Female,1,2024/02/21_08:45:12,SD,None,
,,,,,,calibration,0,28,2,303,18,C,0,right,nan,0,1,,,,,,,,,,,,,,,,,,,,,1,,,,,,,,,,,,,,,,,,,,,,,,,,,,,,,,,,,,,,,,,,,,,,73,152710,20,Female,1,2024/02/21_08:45:12,SD,None,
,,,,,,calibration,0,28,2,303,19,V,1,right,0.6748900069942465,0,0,,,,,,,,,,,,,,,,,,,,,1,,,,,,,,,,,,,,,,,,,,,,,,,,,,,,,,,,,,,,,,,,,,,,73,152710,20,Female,1,2024/02/21_08:45:12,SD,None,
,,,,,,calibration,0,28,2,303,,,,,,,,0.8173076923076923,0.5,0.07692307692307693,0.9090909090909091,0.10526315789473684,0.8178137651821863,0.4564795063514098,3,1,0,2,2,10,13,6,13,0,,,,1,,,,,,,,,,,,,,,,,,,,,,,,,,,,,,,,,,,,,,,,,,,,,,73,152710,20,Female,1,2024/02/21_08:45:12,SD,None,
,,,,,,Calibration,0,,2,303,,,,,,,,,,,,,,,,,,,,,,,,,15,,,1,,,,,,,,,,,,,,,,,,,,,,,,,,,,,,,,,,,,,,,,,,,,,,73,152710,20,Female,1,2024/02/21_08:45:12,SD,None,
,,,,,,CALIBRATION,0,,,,,,,,,,,,,,,,,,,,,,,,,,,,15,0.8173076923076923,303,1,,,,,,,,,,,,,,,,,,,,,,,,,,,,,,,,,,,,,,,,,,,,,,73,152710,20,Female,1,2024/02/21_08:45:12,SD,None,
1,./instructions/inst_prac_1/Slide24.png,right,8.308643172000302,477.9855025200013,486.2941456920016,,,,,,,,,,,,,,,,,,,,,,,,,,,,,,,,,1,,,,,,,,,,,,,,,,,,,,,,,,,,,,,,,,,,,,,,,,,,,,,,73,152710,20,Female,1,2024/02/21_08:45:12,SD,None,
2,./instructions/inst_prac_1/Slide25.png,right,2.168274810996081,486.34178195000277,488.51005676099885,,,,,,,,,,,,,,,,,,,,,,,,,,,,,,,,,1,,,,,,,,,,,,,,,,,,,,,,,,,,,,,,,,,,,,,,,,,,,,,,73,152710,20,Female,1,2024/02/21_08:45:12,SD,None,
3,./instructions/inst_prac_1/Slide26.png,right,0.9467708359952667,488.5395028010025,489.4862736369978,,,,,,,,,,,,,,,,,,,,,,,,,,,,,,,,,1,,,,,,,,,,,,,,,,,,,,,,,,,,,,,,,,,,,,,,,,,,,,,,73,152710,20,Female,1,2024/02/21_08:45:12,SD,None,
4,./instructions/inst_prac_1/Slide27.png,right,0.8940132770003402,489.5122192359995,490.40623251299985,,,,,,,,,,,,,,,,,,,,,,,,,,,,,,,,,1,,,,,,,,,,,,,,,,,,,,,,,,,,,,,,,,,,,,,,,,,,,,,,73,152710,20,Female,1,2024/02/21_08:45:12,SD,None,
5,./instructions/inst_prac_1/Slide28.png,right,0.530575887998566,490.4357237209988,490.96629960899736,,,,,,,,,,,,,,,,,,,,,,,,,,,,,,,,,1,,,,,,,,,,,,,,,,,,,,,,,,,,,,,,,,,,,,,,,,,,,,,,73,152710,20,Female,1,2024/02/21_08:45:12,SD,None,
6,./instructions/inst_prac_1/Slide29.png,right,1.0593019799998729,490.9949913870005,492.05429336700035,,,,,,,,,,,,,,,,,,,,,,,,,,,,,,,,,1,,,,,,,,,,,,,,,,,,,,,,,,,,,,,,,,,,,,,,,,,,,,,,73,152710,20,Female,1,2024/02/21_08:45:12,SD,None,
7,./instructions/inst_prac_1/Slide30.png,right,1.7815520470030606,492.0807238519992,493.86227589900227,,,,,,,,,,,,,,,,,,,,,,,,,,,,,,,,,1,,,,,,,,,,,,,,,,,,,,,,,,,,,,,,,,,,,,,,,,,,,,,,73,152710,20,Female,1,2024/02/21_08:45:12,SD,None,
,,,,,,practice,0,5,1,1250,1,C,0,right,3.3752910590046667,1,0,,,,,,,,,,,,,,,,,,,,,1,,,,,,,,,,,,,,,,,,,,,,,,,,,,,,,,,,,,,,,,,,,,,,73,152710,20,Female,1,2024/02/21_08:45:12,SD,None,
,,,,,,practice,0,5,1,1250,2,V,0,right,0.9506571070014616,1,0,,,,,,,,,,,,,,,,,,,,,1,,,,,,,,,,,,,,,,,,,,,,,,,,,,,,,,,,,,,,,,,,,,,,73,152710,20,Female,1,2024/02/21_08:45:12,SD,None,
,,,,,,practice,0,5,1,1250,3,Q,0,right,0.6531778639982804,1,0,,,,,,,,,,,,,,,,,,,,,1,,,,,,,,,,,,,,,,,,,,,,,,,,,,,,,,,,,,,,,,,,,,,,73,152710,20,Female,1,2024/02/21_08:45:12,SD,None,
,,,,,,practice,0,5,1,1250,4,J,0,right,1.1132888599968283,1,0,,,,,,,,,,,,,,,,,,,,,1,,,,,,,,,,,,,,,,,,,,,,,,,,,,,,,,,,,,,,,,,,,,,,73,152710,20,Female,1,2024/02/21_08:45:12,SD,None,
,,,,,,practice,0,5,1,1250,5,J,1,left,0.8119254969933536,1,0,,,,,,,,,,,,,,,,,,,,,1,,,,,,,,,,,,,,,,,,,,,,,,,,,,,,,,,,,,,,,,,,,,,,73,152710,20,Female,1,2024/02/21_08:45:12,SD,None,
,,,,,,practice,0,5,1,1250,6,Q,0,right,0.9326709779998055,1,0,,,,,,,,,,,,,,,,,,,,,1,,,,,,,,,,,,,,,,,,,,,,,,,,,,,,,,,,,,,,,,,,,,,,73,152710,20,Female,1,2024/02/21_08:45:12,SD,None,
,,,,,,practice,0,5,1,1250,7,Q,1,right,0.6621023369953036,0,0,,,,,,,,,,,,,,,,,,,,,1,,,,,,,,,,,,,,,,,,,,,,,,,,,,,,,,,,,,,,,,,,,,,,73,152710,20,Female,1,2024/02/21_08:45:12,SD,None,
,,,,,,practice,0,5,1,1250,8,C,0,right,3.6309531399965636,1,0,,,,,,,,,,,,,,,,,,,,,1,,,,,,,,,,,,,,,,,,,,,,,,,,,,,,,,,,,,,,,,,,,,,,73,152710,20,Female,1,2024/02/21_08:45:12,SD,None,
,,,,,,practice,0,5,1,1250,9,N,0,right,0.8456703429983463,1,0,,,,,,,,,,,,,,,,,,,,,1,,,,,,,,,,,,,,,,,,,,,,,,,,,,,,,,,,,,,,,,,,,,,,73,152710,20,Female,1,2024/02/21_08:45:12,SD,None,
,,,,,,practice,0,5,1,1250,10,N,1,left,0.40565025500109186,1,0,,,,,,,,,,,,,,,,,,,,,1,,,,,,,,,,,,,,,,,,,,,,,,,,,,,,,,,,,,,,,,,,,,,,73,152710,20,Female,1,2024/02/21_08:45:12,SD,None,
,,,,,,practice,0,5,1,1250,,,,,,,,0.9166666666666666,0.6666666666666666,0.0,1.0,0.0,1.0,1.3381387439985701,2,0,0,0,0,7,9,3,7,0,,,,1,,,,,,,,,,,,,,,,,,,,,,,,,,,,,,,,,,,,,,,,,,,,,,73,152710,20,Female,1,2024/02/21_08:45:12,SD,None,
1,./instructions/inst_prac_1_next/Slide35.png,right,0.8446643200004473,518.2974077199979,519.1420720399983,,,,,,,,,,,,,,,,,,,,,,,,,,,,,,,,,1,,,,,,,,,,,,,,,,,,,,,,,,,,,,,,,,,,,,,,,,,,,,,,73,152710,20,Female,1,2024/02/21_08:45:12,SD,None,
,,,,,,practice,0,24,1,303,1,F,0,right,0.8473815729958005,1,0,,,,,,,,,,,,,,,,,,,,,1,,,,,,,,,,,,,,,,,,,,,,,,,,,,,,,,,,,,,,,,,,,,,,73,152710,20,Female,1,2024/02/21_08:45:12,SD,None,
,,,,,,practice,0,24,1,303,2,S,0,right,0.546193456997571,1,0,,,,,,,,,,,,,,,,,,,,,1,,,,,,,,,,,,,,,,,,,,,,,,,,,,,,,,,,,,,,,,,,,,,,73,152710,20,Female,1,2024/02/21_08:45:12,SD,None,
,,,,,,practice,0,24,1,303,3,J,0,right,0.7280589229994803,1,0,,,,,,,,,,,,,,,,,,,,,1,,,,,,,,,,,,,,,,,,,,,,,,,,,,,,,,,,,,,,,,,,,,,,73,152710,20,Female,1,2024/02/21_08:45:12,SD,None,
,,,,,,practice,0,24,1,303,4,J,1,left,0.7665045070025371,1,0,,,,,,,,,,,,,,,,,,,,,1,,,,,,,,,,,,,,,,,,,,,,,,,,,,,,,,,,,,,,,,,,,,,,73,152710,20,Female,1,2024/02/21_08:45:12,SD,None,
,,,,,,practice,0,24,1,303,5,S,0,right,0.4397427259973483,1,0,,,,,,,,,,,,,,,,,,,,,1,,,,,,,,,,,,,,,,,,,,,,,,,,,,,,,,,,,,,,,,,,,,,,73,152710,20,Female,1,2024/02/21_08:45:12,SD,None,
,,,,,,practice,0,24,1,303,6,S,1,left,0.4550511289999122,1,0,,,,,,,,,,,,,,,,,,,,,1,,,,,,,,,,,,,,,,,,,,,,,,,,,,,,,,,,,,,,,,,,,,,,73,152710,20,Female,1,2024/02/21_08:45:12,SD,None,
,,,,,,practice,0,24,1,303,7,Q,0,right,0.575732691999292,1,0,,,,,,,,,,,,,,,,,,,,,1,,,,,,,,,,,,,,,,,,,,,,,,,,,,,,,,,,,,,,,,,,,,,,73,152710,20,Female,1,2024/02/21_08:45:12,SD,None,
,,,,,,practice,0,24,1,303,8,Q,1,right,0.3490722810020088,0,0,,,,,,,,,,,,,,,,,,,,,1,,,,,,,,,,,,,,,,,,,,,,,,,,,,,,,,,,,,,,,,,,,,,,73,152710,20,Female,1,2024/02/21_08:45:12,SD,None,
,,,,,,practice,0,24,1,303,9,J,0,right,0.8682144569975208,1,0,,,,,,,,,,,,,,,,,,,,,1,,,,,,,,,,,,,,,,,,,,,,,,,,,,,,,,,,,,,,,,,,,,,,73,152710,20,Female,1,2024/02/21_08:45:12,SD,None,
,,,,,,practice,0,24,1,303,10,Q,0,right,0.8558970939993742,1,0,,,,,,,,,,,,,,,,,,,,,1,,,,,,,,,,,,,,,,,,,,,,,,,,,,,,,,,,,,,,,,,,,,,,73,152710,20,Female,1,2024/02/21_08:45:12,SD,None,
,,,,,,practice,0,24,1,303,11,S,0,right,0.6878550429973984,1,0,,,,,,,,,,,,,,,,,,,,,1,,,,,,,,,,,,,,,,,,,,,,,,,,,,,,,,,,,,,,,,,,,,,,73,152710,20,Female,1,2024/02/21_08:45:12,SD,None,
,,,,,,practice,0,24,1,303,12,S,1,left,0.4817172849943745,1,0,,,,,,,,,,,,,,,,,,,,,1,,,,,,,,,,,,,,,,,,,,,,,,,,,,,,,,,,,,,,,,,,,,,,73,152710,20,Female,1,2024/02/21_08:45:12,SD,None,
,,,,,,practice,0,24,1,303,13,V,0,right,0.6806483969994588,1,0,,,,,,,,,,,,,,,,,,,,,1,,,,,,,,,,,,,,,,,,,,,,,,,,,,,,,,,,,,,,,,,,,,,,73,152710,20,Female,1,2024/02/21_08:45:12,SD,None,
,,,,,,practice,0,24,1,303,14,V,1,left,0.5489167830019142,1,0,,,,,,,,,,,,,,,,,,,,,1,,,,,,,,,,,,,,,,,,,,,,,,,,,,,,,,,,,,,,,,,,,,,,73,152710,20,Female,1,2024/02/21_08:45:12,SD,None,
,,,,,,practice,0,24,1,303,15,C,0,right,0.4926910969952587,1,0,,,,,,,,,,,,,,,,,,,,,1,,,,,,,,,,,,,,,,,,,,,,,,,,,,,,,,,,,,,,,,,,,,,,73,152710,20,Female,1,2024/02/21_08:45:12,SD,None,
,,,,,,practice,0,24,1,303,16,C,1,left,0.6438526320052915,1,0,,,,,,,,,,,,,,,,,,,,,1,,,,,,,,,,,,,,,,,,,,,,,,,,,,,,,,,,,,,,,,,,,,,,73,152710,20,Female,1,2024/02/21_08:45:12,SD,None,
,,,,,,practice,0,24,1,303,17,F,0,right,0.612512905994663,1,0,,,,,,,,,,,,,,,,,,,,,1,,,,,,,,,,,,,,,,,,,,,,,,,,,,,,,,,,,,,,,,,,,,,,73,152710,20,Female,1,2024/02/21_08:45:12,SD,None,
,,,,,,practice,0,24,1,303,18,S,0,right,1.252830466000887,1,0,,,,,,,,,,,,,,,,,,,,,1,,,,,,,,,,,,,,,,,,,,,,,,,,,,,,,,,,,,,,,,,,,,,,73,152710,20,Female,1,2024/02/21_08:45:12,SD,None,
,,,,,,practice,0,24,1,303,19,N,0,right,0.6232604369943147,1,0,,,,,,,,,,,,,,,,,,,,,1,,,,,,,,,,,,,,,,,,,,,,,,,,,,,,,,,,,,,,,,,,,,,,73,152710,20,Female,1,2024/02/21_08:45:12,SD,None,
,,,,,,practice,0,24,1,303,,,,,,,,0.9583333333333334,0.8333333333333334,0.0,1.0,0.0,1.0,0.6555859939460214,5,0,0,0,0,13,18,6,13,0,,,,1,,,,,,,,,,,,,,,,,,,,,,,,,,,,,,,,,,,,,,,,,,,,,,73,152710,20,Female,1,2024/02/21_08:45:12,SD,None,
,,,,,,practice,0,4,1,303,1,V,0,right,1.748014331999002,1,0,,,,,,,,,,,,,,,,,,,,,1,,,,,,,,,,,,,,,,,,,,,,,,,,,,,,,,,,,,,,,,,,,,,,73,152710,20,Female,1,2024/02/21_08:45:12,SD,None,
,,,,,,practice,0,4,1,303,2,J,0,right,0.8452824799969676,1,0,,,,,,,,,,,,,,,,,,,,,1,,,,,,,,,,,,,,,,,,,,,,,,,,,,,,,,,,,,,,,,,,,,,,73,152710,20,Female,1,2024/02/21_08:45:12,SD,None,
,,,,,,practice,0,4,1,303,3,J,1,left,0.573343358002603,1,0,,,,,,,,,,,,,,,,,,,,,1,,,,,,,,,,,,,,,,,,,,,,,,,,,,,,,,,,,,,,,,,,,,,,73,152710,20,Female,1,2024/02/21_08:45:12,SD,None,
,,,,,,practice,0,4,1,303,4,N,0,right,0.5049386710015824,1,0,,,,,,,,,,,,,,,,,,,,,1,,,,,,,,,,,,,,,,,,,,,,,,,,,,,,,,,,,,,,,,,,,,,,73,152710,20,Female,1,2024/02/21_08:45:12,SD,None,
,,,,,,practice,0,4,1,303,5,N,1,left,0.42982581300020684,1,0,,,,,,,,,,,,,,,,,,,,,1,,,,,,,,,,,,,,,,,,,,,,,,,,,,,,,,,,,,,,,,,,,,,,73,152710,20,Female,1,2024/02/21_08:45:12,SD,None,
,,,,,,practice,0,4,1,303,6,F,0,right,0.35349717200006125,1,0,,,,,,,,,,,,,,,,,,,,,1,,,,,,,,,,,,,,,,,,,,,,,,,,,,,,,,,,,,,,,,,,,,,,73,152710,20,Female,1,2024/02/21_08:45:12,SD,None,
,,,,,,practice,0,4,1,303,7,F,1,left,0.37276817100064363,1,0,,,,,,,,,,,,,,,,,,,,,1,,,,,,,,,,,,,,,,,,,,,,,,,,,,,,,,,,,,,,,,,,,,,,73,152710,20,Female,1,2024/02/21_08:45:12,SD,None,
,,,,,,practice,0,4,1,303,8,C,0,right,0.744224704001681,1,0,,,,,,,,,,,,,,,,,,,,,1,,,,,,,,,,,,,,,,,,,,,,,,,,,,,,,,,,,,,,,,,,,,,,73,152710,20,Female,1,2024/02/21_08:45:12,SD,None,
,,,,,,practice,0,4,1,303,9,N,0,right,0.6775686990004033,1,0,,,,,,,,,,,,,,,,,,,,,1,,,,,,,,,,,,,,,,,,,,,,,,,,,,,,,,,,,,,,,,,,,,,,73,152710,20,Female,1,2024/02/21_08:45:12,SD,None,
,,,,,,practice,0,4,1,303,10,J,0,right,0.6050043979994371,1,0,,,,,,,,,,,,,,,,,,,,,1,,,,,,,,,,,,,,,,,,,,,,,,,,,,,,,,,,,,,,,,,,,,,,73,152710,20,Female,1,2024/02/21_08:45:12,SD,None,
,,,,,,practice,0,4,1,303,11,S,0,right,0.6569883609990939,1,0,,,,,,,,,,,,,,,,,,,,,1,,,,,,,,,,,,,,,,,,,,,,,,,,,,,,,,,,,,,,,,,,,,,,73,152710,20,Female,1,2024/02/21_08:45:12,SD,None,
,,,,,,practice,0,4,1,303,12,S,1,left,0.3241076790000079,1,0,,,,,,,,,,,,,,,,,,,,,1,,,,,,,,,,,,,,,,,,,,,,,,,,,,,,,,,,,,,,,,,,,,,,73,152710,20,Female,1,2024/02/21_08:45:12,SD,None,
,,,,,,practice,0,4,1,303,13,Q,0,right,0.34862693000468425,1,0,,,,,,,,,,,,,,,,,,,,,1,,,,,,,,,,,,,,,,,,,,,,,,,,,,,,,,,,,,,,,,,,,,,,73,152710,20,Female,1,2024/02/21_08:45:12,SD,None,
,,,,,,practice,0,4,1,303,14,N,0,right,0.5951896420010598,1,0,,,,,,,,,,,,,,,,,,,,,1,,,,,,,,,,,,,,,,,,,,,,,,,,,,,,,,,,,,,,,,,,,,,,73,152710,20,Female,1,2024/02/21_08:45:12,SD,None,
,,,,,,practice,0,4,1,303,15,J,0,right,0.7694975579943275,1,0,,,,,,,,,,,,,,,,,,,,,1,,,,,,,,,,,,,,,,,,,,,,,,,,,,,,,,,,,,,,,,,,,,,,73,152710,20,Female,1,2024/02/21_08:45:12,SD,None,
,,,,,,practice,0,4,1,303,16,J,1,left,0.31340341500617797,1,0,,,,,,,,,,,,,,,,,,,,,1,,,,,,,,,,,,,,,,,,,,,,,,,,,,,,,,,,,,,,,,,,,,,,73,152710,20,Female,1,2024/02/21_08:45:12,SD,None,
,,,,,,practice,0,4,1,303,17,C,0,right,0.5198052109990385,1,0,,,,,,,,,,,,,,,,,,,,,1,,,,,,,,,,,,,,,,,,,,,,,,,,,,,,,,,,,,,,,,,,,,,,73,152710,20,Female,1,2024/02/21_08:45:12,SD,None,
,,,,,,practice,0,4,1,303,18,N,0,right,0.44956419799564173,1,0,,,,,,,,,,,,,,,,,,,,,1,,,,,,,,,,,,,,,,,,,,,,,,,,,,,,,,,,,,,,,,,,,,,,73,152710,20,Female,1,2024/02/21_08:45:12,SD,None,
,,,,,,practice,0,4,1,303,19,J,0,right,0.7529401290012174,1,0,,,,,,,,,,,,,,,,,,,,,1,,,,,,,,,,,,,,,,,,,,,,,,,,,,,,,,,,,,,,,,,,,,,,73,152710,20,Female,1,2024/02/21_08:45:12,SD,None,
,,,,,,practice,0,4,1,303,,,,,,,,1.0,1.0,0.0,1.0,0.0,1.0,0.6097153116317809,5,0,0,0,0,14,19,5,14,0,,,,1,,,,,,,,,,,,,,,,,,,,,,,,,,,,,,,,,,,,,,,,,,,,,,73,152710,20,Female,1,2024/02/21_08:45:12,SD,None,
1,./instructions/inst_prac_3/Slide37.png,right,2.5838156989993877,567.1745065319992,569.7583222309986,,,,,,,,,,,,,,,,,,,,,,,,,,,,,,,,,1,,,,,,,,,,,,,,,,,,,,,,,,,,,,,,,,,,,,,,,,,,,,,,73,152710,20,Female,1,2024/02/21_08:45:12,SD,None,
2,./instructions/inst_prac_3/Slide38.png,right,2.4122663359958096,569.785923565003,572.1981899009988,,,,,,,,,,,,,,,,,,,,,,,,,,,,,,,,,1,,,,,,,,,,,,,,,,,,,,,,,,,,,,,,,,,,,,,,,,,,,,,,73,152710,20,Female,1,2024/02/21_08:45:12,SD,None,
3,./instructions/inst_prac_3/Slide39.png,right,1.0095855909967213,572.2285781980027,573.2381637889994,,,,,,,,,,,,,,,,,,,,,,,,,,,,,,,,,1,,,,,,,,,,,,,,,,,,,,,,,,,,,,,,,,,,,,,,,,,,,,,,73,152710,20,Female,1,2024/02/21_08:45:12,SD,None,
4,./instructions/inst_prac_3/Slide40.png,right,0.9193473679988529,573.2868418200014,574.2061891880003,,,,,,,,,,,,,,,,,,,,,,,,,,,,,,,,,1,,,,,,,,,,,,,,,,,,,,,,,,,,,,,,,,,,,,,,,,,,,,,,73,152710,20,Female,1,2024/02/21_08:45:12,SD,None,
5,./instructions/inst_prac_3/Slide41.png,right,5.056432558994857,574.2536764140023,579.3101089729971,,,,,,,,,,,,,,,,,,,,,,,,,,,,,,,,,1,,,,,,,,,,,,,,,,,,,,,,,,,,,,,,,,,,,,,,,,,,,,,,73,152710,20,Female,1,2024/02/21_08:45:12,SD,None,
6,./instructions/inst_prac_3/Slide42.png,right,1.5144222019953304,579.3398783500015,580.8543005519969,,,,,,,,,,,,,,,,,,,,,,,,,,,,,,,,,1,,,,,,,,,,,,,,,,,,,,,,,,,,,,,,,,,,,,,,,,,,,,,,73,152710,20,Female,1,2024/02/21_08:45:12,SD,None,
7,./instructions/inst_prac_3/Slide43.png,right,2.2021035159996245,580.8841948370027,583.0862983530023,,,,,,,,,,,,,,,,,,,,,,,,,,,,,,,,,1,,,,,,,,,,,,,,,,,,,,,,,,,,,,,,,,,,,,,,,,,,,,,,73,152710,20,Female,1,2024/02/21_08:45:12,SD,None,
8,./instructions/inst_prac_3/Slide44.png,right,0.8768949899967993,583.1134389810031,583.9903339709999,,,,,,,,,,,,,,,,,,,,,,,,,,,,,,,,,1,,,,,,,,,,,,,,,,,,,,,,,,,,,,,,,,,,,,,,,,,,,,,,73,152710,20,Female,1,2024/02/21_08:45:12,SD,None,
,,,,,,practice,0,3,3,788,1,J,0,right,1.334774220995314,1,0,,,,,,,,,,,,,,,,,,,,,1,,,,,,,,,,,,,,,,,,,,,,,,,,,,,,,,,,,,,,,,,,,,,,73,152710,20,Female,1,2024/02/21_08:45:12,SD,None,
,,,,,,practice,0,3,3,788,2,C,0,right,1.316312597002252,1,0,,,,,,,,,,,,,,,,,,,,,1,,,,,,,,,,,,,,,,,,,,,,,,,,,,,,,,,,,,,,,,,,,,,,73,152710,20,Female,1,2024/02/21_08:45:12,SD,None,
,,,,,,practice,0,3,3,788,3,X,0,right,0.9249550210006419,1,0,,,,,,,,,,,,,,,,,,,,,1,,,,,,,,,,,,,,,,,,,,,,,,,,,,,,,,,,,,,,,,,,,,,,73,152710,20,Female,1,2024/02/21_08:45:12,SD,None,
,,,,,,practice,0,3,3,788,4,Q,0,right,1.1810806330031483,1,0,,,,,,,,,,,,,,,,,,,,,1,,,,,,,,,,,,,,,,,,,,,,,,,,,,,,,,,,,,,,,,,,,,,,73,152710,20,Female,1,2024/02/21_08:45:12,SD,None,
,,,,,,practice,0,3,3,788,5,N,0,right,0.5004568210060825,1,0,,,,,,,,,,,,,,,,,,,,,1,,,,,,,,,,,,,,,,,,,,,,,,,,,,,,,,,,,,,,,,,,,,,,73,152710,20,Female,1,2024/02/21_08:45:12,SD,None,
,,,,,,practice,0,3,3,788,6,X,1,left,0.5385912269994151,1,0,,,,,,,,,,,,,,,,,,,,,1,,,,,,,,,,,,,,,,,,,,,,,,,,,,,,,,,,,,,,,,,,,,,,73,152710,20,Female,1,2024/02/21_08:45:12,SD,None,
,,,,,,practice,0,3,3,788,7,Q,1,right,1.7012390230011079,0,0,,,,,,,,,,,,,,,,,,,,,1,,,,,,,,,,,,,,,,,,,,,,,,,,,,,,,,,,,,,,,,,,,,,,73,152710,20,Female,1,2024/02/21_08:45:12,SD,None,
,,,,,,practice,0,3,3,788,8,V,0,right,1.0207392320007784,1,0,,,,,,,,,,,,,,,,,,,,,1,,,,,,,,,,,,,,,,,,,,,,,,,,,,,,,,,,,,,,,,,,,,,,73,152710,20,Female,1,2024/02/21_08:45:12,SD,None,
,,,,,,practice,0,3,3,788,9,Q,0,left,0.7125003179971827,0,0,,,,,,,,,,,,,,,,,,,,,1,,,,,,,,,,,,,,,,,,,,,,,,,,,,,,,,,,,,,,,,,,,,,,73,152710,20,Female,1,2024/02/21_08:45:12,SD,None,
,,,,,,practice,0,3,3,788,10,F,0,right,1.564155109001149,1,0,,,,,,,,,,,,,,,,,,,,,1,,,,,,,,,,,,,,,,,,,,,,,,,,,,,,,,,,,,,,,,,,,,,,73,152710,20,Female,1,2024/02/21_08:45:12,SD,None,
,,,,,,practice,0,3,3,788,11,X,0,right,0.9051618990051793,1,0,,,,,,,,,,,,,,,,,,,,,1,,,,,,,,,,,,,,,,,,,,,,,,,,,,,,,,,,,,,,,,,,,,,,73,152710,20,Female,1,2024/02/21_08:45:12,SD,None,
,,,,,,practice,0,3,3,788,12,Q,1,left,0.9743494059948716,1,0,,,,,,,,,,,,,,,,,,,,,1,,,,,,,,,,,,,,,,,,,,,,,,,,,,,,,,,,,,,,,,,,,,,,73,152710,20,Female,1,2024/02/21_08:45:12,SD,None,
,,,,,,practice,0,3,3,788,13,F,1,left,0.9328773399975034,1,0,,,,,,,,,,,,,,,,,,,,,1,,,,,,,,,,,,,,,,,,,,,,,,,,,,,,,,,,,,,,,,,,,,,,73,152710,20,Female,1,2024/02/21_08:45:12,SD,None,
,,,,,,practice,0,3,3,788,,,,,,,,0.8819444444444444,0.75,0.1111111111111111,0.8888888888888888,0.0,0.8888888888888888,1.0467071420772789,3,1,0,0,0,8,11,4,9,0,,,,1,,,,,,,,,,,,,,,,,,,,,,,,,,,,,,,,,,,,,,,,,,,,,,73,152710,20,Female,1,2024/02/21_08:45:12,SD,None,
1,./instructions/inst_prac_3_next/Slide49.png,right,1.816230780998012,612.3099727890003,614.1262035699983,,,,,,,,,,,,,,,,,,,,,,,,,,,,,,,,,1,,,,,,,,,,,,,,,,,,,,,,,,,,,,,,,,,,,,,,,,,,,,,,73,152710,20,Female,1,2024/02/21_08:45:12,SD,None,
,,,,,,practice,0,13,3,303,1,N,0,right,0.8392692069974146,1,0,,,,,,,,,,,,,,,,,,,,,1,,,,,,,,,,,,,,,,,,,,,,,,,,,,,,,,,,,,,,,,,,,,,,73,152710,20,Female,1,2024/02/21_08:45:12,SD,None,
,,,,,,practice,0,13,3,303,2,Q,0,right,0.9280167620017892,1,0,,,,,,,,,,,,,,,,,,,,,1,,,,,,,,,,,,,,,,,,,,,,,,,,,,,,,,,,,,,,,,,,,,,,73,152710,20,Female,1,2024/02/21_08:45:12,SD,None,
,,,,,,practice,0,13,3,303,3,C,0,right,1.6999821450008312,1,0,,,,,,,,,,,,,,,,,,,,,1,,,,,,,,,,,,,,,,,,,,,,,,,,,,,,,,,,,,,,,,,,,,,,73,152710,20,Female,1,2024/02/21_08:45:12,SD,None,
,,,,,,practice,0,13,3,303,4,Q,0,left,0.987019901003805,0,0,,,,,,,,,,,,,,,,,,,,,1,,,,,,,,,,,,,,,,,,,,,,,,,,,,,,,,,,,,,,,,,,,,,,73,152710,20,Female,1,2024/02/21_08:45:12,SD,None,
,,,,,,practice,0,13,3,303,5,V,0,right,1.2686654880017159,1,0,,,,,,,,,,,,,,,,,,,,,1,,,,,,,,,,,,,,,,,,,,,,,,,,,,,,,,,,,,,,,,,,,,,,73,152710,20,Female,1,2024/02/21_08:45:12,SD,None,
,,,,,,practice,0,13,3,303,6,J,0,right,2.0009286389977206,1,0,,,,,,,,,,,,,,,,,,,,,1,,,,,,,,,,,,,,,,,,,,,,,,,,,,,,,,,,,,,,,,,,,,,,73,152710,20,Female,1,2024/02/21_08:45:12,SD,None,
,,,,,,practice,0,13,3,303,7,S,0,right,0.8924638649987173,1,0,,,,,,,,,,,,,,,,,,,,,1,,,,,,,,,,,,,,,,,,,,,,,,,,,,,,,,,,,,,,,,,,,,,,73,152710,20,Female,1,2024/02/21_08:45:12,SD,None,
,,,,,,practice,0,13,3,303,8,Q,0,left,0.7318606970002293,0,0,,,,,,,,,,,,,,,,,,,,,1,,,,,,,,,,,,,,,,,,,,,,,,,,,,,,,,,,,,,,,,,,,,,,73,152710,20,Female,1,2024/02/21_08:45:12,SD,None,
,,,,,,practice,0,13,3,303,9,F,0,right,0.6924333140050294,1,0,,,,,,,,,,,,,,,,,,,,,1,,,,,,,,,,,,,,,,,,,,,,,,,,,,,,,,,,,,,,,,,,,,,,73,152710,20,Female,1,2024/02/21_08:45:12,SD,None,
,,,,,,practice,0,13,3,303,10,S,1,left,1.0444516229981673,1,0,,,,,,,,,,,,,,,,,,,,,1,,,,,,,,,,,,,,,,,,,,,,,,,,,,,,,,,,,,,,,,,,,,,,73,152710,20,Female,1,2024/02/21_08:45:12,SD,None,
,,,,,,practice,0,13,3,303,11,S,0,left,1.1003482050000457,0,0,,,,,,,,,,,,,,,,,,,,,1,,,,,,,,,,,,,,,,,,,,,,,,,,,,,,,,,,,,,,,,,,,,,,73,152710,20,Female,1,2024/02/21_08:45:12,SD,None,
,,,,,,practice,0,13,3,303,12,F,1,right,0.6876855169975897,0,0,,,,,,,,,,,,,,,,,,,,,1,,,,,,,,,,,,,,,,,,,,,,,,,,,,,,,,,,,,,,,,,,,,,,73,152710,20,Female,1,2024/02/21_08:45:12,SD,None,
,,,,,,practice,0,13,3,303,13,F,0,right,0.8732364810057334,1,0,,,,,,,,,,,,,,,,,,,,,1,,,,,,,,,,,,,,,,,,,,,,,,,,,,,,,,,,,,,,,,,,,,,,73,152710,20,Female,1,2024/02/21_08:45:12,SD,None,
,,,,,,practice,0,13,3,303,14,S,1,left,1.7853528650011867,1,0,,,,,,,,,,,,,,,,,,,,,1,,,,,,,,,,,,,,,,,,,,,,,,,,,,,,,,,,,,,,,,,,,,,,73,152710,20,Female,1,2024/02/21_08:45:12,SD,None,
,,,,,,practice,0,13,3,303,15,Q,0,right,0.647876308998093,1,0,,,,,,,,,,,,,,,,,,,,,1,,,,,,,,,,,,,,,,,,,,,,,,,,,,,,,,,,,,,,,,,,,,,,73,152710,20,Female,1,2024/02/21_08:45:12,SD,None,
,,,,,,practice,0,13,3,303,16,F,1,right,0.5011612130037975,0,0,,,,,,,,,,,,,,,,,,,,,1,,,,,,,,,,,,,,,,,,,,,,,,,,,,,,,,,,,,,,,,,,,,,,73,152710,20,Female,1,2024/02/21_08:45:12,SD,None,
,,,,,,practice,0,13,3,303,17,X,0,right,0.857320028997492,1,0,,,,,,,,,,,,,,,,,,,,,1,,,,,,,,,,,,,,,,,,,,,,,,,,,,,,,,,,,,,,,,,,,,,,73,152710,20,Female,1,2024/02/21_08:45:12,SD,None,
,,,,,,practice,0,13,3,303,18,V,0,left,0.32120216399925994,0,0,,,,,,,,,,,,,,,,,,,,,1,,,,,,,,,,,,,,,,,,,,,,,,,,,,,,,,,,,,,,,,,,,,,,73,152710,20,Female,1,2024/02/21_08:45:12,SD,None,
,,,,,,practice,0,13,3,303,19,F,1,right,0.2559863169954042,0,0,,,,,,,,,,,,,,,,,,,,,1,,,,,,,,,,,,,,,,,,,,,,,,,,,,,,,,,,,,,,,,,,,,,,73,152710,20,Female,1,2024/02/21_08:45:12,SD,None,
,,,,,,practice,0,13,3,303,,,,,,,,0.6000000000000001,0.4,0.2857142857142857,0.7142857142857143,0.0,0.7142857142857143,0.953434775842317,2,4,0,0,0,10,12,5,14,0,,,,1,,,,,,,,,,,,,,,,,,,,,,,,,,,,,,,,,,,,,,,,,,,,,,73,152710,20,Female,1,2024/02/21_08:45:12,SD,None,
,,,,,,practice,0,24,3,303,1,J,0,right,2.355545047998021,1,0,,,,,,,,,,,,,,,,,,,,,1,,,,,,,,,,,,,,,,,,,,,,,,,,,,,,,,,,,,,,,,,,,,,,73,152710,20,Female,1,2024/02/21_08:45:12,SD,None,
,,,,,,practice,0,24,3,303,2,N,0,right,0.4286486330020125,1,0,,,,,,,,,,,,,,,,,,,,,1,,,,,,,,,,,,,,,,,,,,,,,,,,,,,,,,,,,,,,,,,,,,,,73,152710,20,Female,1,2024/02/21_08:45:12,SD,None,
,,,,,,practice,0,24,3,303,3,S,0,right,0.7725011630027439,1,0,,,,,,,,,,,,,,,,,,,,,1,,,,,,,,,,,,,,,,,,,,,,,,,,,,,,,,,,,,,,,,,,,,,,73,152710,20,Female,1,2024/02/21_08:45:12,SD,None,
,,,,,,practice,0,24,3,303,4,S,0,right,1.401236385005177,1,0,,,,,,,,,,,,,,,,,,,,,1,,,,,,,,,,,,,,,,,,,,,,,,,,,,,,,,,,,,,,,,,,,,,,73,152710,20,Female,1,2024/02/21_08:45:12,SD,None,
,,,,,,practice,0,24,3,303,5,N,1,left,1.7769536139967386,1,0,,,,,,,,,,,,,,,,,,,,,1,,,,,,,,,,,,,,,,,,,,,,,,,,,,,,,,,,,,,,,,,,,,,,73,152710,20,Female,1,2024/02/21_08:45:12,SD,None,
,,,,,,practice,0,24,3,303,6,C,0,right,1.4472396460041637,1,0,,,,,,,,,,,,,,,,,,,,,1,,,,,,,,,,,,,,,,,,,,,,,,,,,,,,,,,,,,,,,,,,,,,,73,152710,20,Female,1,2024/02/21_08:45:12,SD,None,
,,,,,,practice,0,24,3,303,7,Q,0,right,1.0286376510048285,1,0,,,,,,,,,,,,,,,,,,,,,1,,,,,,,,,,,,,,,,,,,,,,,,,,,,,,,,,,,,,,,,,,,,,,73,152710,20,Female,1,2024/02/21_08:45:12,SD,None,
,,,,,,practice,0,24,3,303,8,N,1,left,1.4603221240031417,1,0,,,,,,,,,,,,,,,,,,,,,1,,,,,,,,,,,,,,,,,,,,,,,,,,,,,,,,,,,,,,,,,,,,,,73,152710,20,Female,1,2024/02/21_08:45:12,SD,None,
,,,,,,practice,0,24,3,303,9,X,0,right,1.1482584660043358,1,0,,,,,,,,,,,,,,,,,,,,,1,,,,,,,,,,,,,,,,,,,,,,,,,,,,,,,,,,,,,,,,,,,,,,73,152710,20,Female,1,2024/02/21_08:45:12,SD,None,
,,,,,,practice,0,24,3,303,10,Q,1,left,1.0742458950044238,1,0,,,,,,,,,,,,,,,,,,,,,1,,,,,,,,,,,,,,,,,,,,,,,,,,,,,,,,,,,,,,,,,,,,,,73,152710,20,Female,1,2024/02/21_08:45:12,SD,None,
,,,,,,practice,0,24,3,303,11,N,1,left,0.9803492490027566,1,0,,,,,,,,,,,,,,,,,,,,,1,,,,,,,,,,,,,,,,,,,,,,,,,,,,,,,,,,,,,,,,,,,,,,73,152710,20,Female,1,2024/02/21_08:45:12,SD,None,
,,,,,,practice,0,24,3,303,12,F,0,right,0.9765994629997294,1,0,,,,,,,,,,,,,,,,,,,,,1,,,,,,,,,,,,,,,,,,,,,,,,,,,,,,,,,,,,,,,,,,,,,,73,152710,20,Female,1,2024/02/21_08:45:12,SD,None,
,,,,,,practice,0,24,3,303,13,F,0,right,0.9916906049984391,1,0,,,,,,,,,,,,,,,,,,,,,1,,,,,,,,,,,,,,,,,,,,,,,,,,,,,,,,,,,,,,,,,,,,,,73,152710,20,Female,1,2024/02/21_08:45:12,SD,None,
,,,,,,practice,0,24,3,303,14,N,1,right,1.1757383580043097,0,0,,,,,,,,,,,,,,,,,,,,,1,,,,,,,,,,,,,,,,,,,,,,,,,,,,,,,,,,,,,,,,,,,,,,73,152710,20,Female,1,2024/02/21_08:45:12,SD,None,
,,,,,,practice,0,24,3,303,15,V,0,right,1.5528961880045244,1,0,,,,,,,,,,,,,,,,,,,,,1,,,,,,,,,,,,,,,,,,,,,,,,,,,,,,,,,,,,,,,,,,,,,,73,152710,20,Female,1,2024/02/21_08:45:12,SD,None,
,,,,,,practice,0,24,3,303,16,V,0,right,0.7745254930050578,1,0,,,,,,,,,,,,,,,,,,,,,1,,,,,,,,,,,,,,,,,,,,,,,,,,,,,,,,,,,,,,,,,,,,,,73,152710,20,Female,1,2024/02/21_08:45:12,SD,None,
,,,,,,practice,0,24,3,303,17,S,0,right,0.9684792420011945,1,0,,,,,,,,,,,,,,,,,,,,,1,,,,,,,,,,,,,,,,,,,,,,,,,,,,,,,,,,,,,,,,,,,,,,73,152710,20,Female,1,2024/02/21_08:45:12,SD,None,
,,,,,,practice,0,24,3,303,18,V,1,right,0.27998433700122405,0,0,,,,,,,,,,,,,,,,,,,,,1,,,,,,,,,,,,,,,,,,,,,,,,,,,,,,,,,,,,,,,,,,,,,,73,152710,20,Female,1,2024/02/21_08:45:12,SD,None,
,,,,,,practice,0,24,3,303,19,S,0,right,0.24935347900463967,1,0,,,,,,,,,,,,,,,,,,,,,1,,,,,,,,,,,,,,,,,,,,,,,,,,,,,,,,,,,,,,,,,,,,,,73,152710,20,Female,1,2024/02/21_08:45:12,SD,None,
,,,,,,practice,0,24,3,303,,,,,,,,0.9166666666666666,0.6666666666666666,0.0,1.0,0.0,1.0,1.0970107915288139,4,0,0,0,0,13,17,6,13,0,,,,1,,,,,,,,,,,,,,,,,,,,,,,,,,,,,,,,,,,,,,,,,,,,,,73,152710,20,Female,1,2024/02/21_08:45:12,SD,None,
1,./instructions/inst_prac_main/Slide51.png,right,1.6989878009990207,677.1552500390026,678.8542378400016,,,,,,,,,,,,,,,,,,,,,,,,,,,,,,,,,1,,,,,,,,,,,,,,,,,,,,,,,,,,,,,,,,,,,,,,,,,,,,,,73,152710,20,Female,1,2024/02/21_08:45:12,SD,None,
2,./instructions/inst_prac_main/Slide52.png,right,7.056797998993716,678.8934077860031,685.9502057849968,,,,,,,,,,,,,,,,,,,,,,,,,,,,,,,,,1,,,,,,,,,,,,,,,,,,,,,,,,,,,,,,,,,,,,,,,,,,,,,,73,152710,20,Female,1,2024/02/21_08:45:12,SD,None,
3,./instructions/inst_prac_main/Slide53.png,right,2.3134512649994576,685.9807344849978,688.2941857499973,,,,,,,,,,,,,,,,,,,,,,,,,,,,,,,,,1,,,,,,,,,,,,,,,,,,,,,,,,,,,,,,,,,,,,,,,,,,,,,,73,152710,20,Female,1,2024/02/21_08:45:12,SD,None,
4,./instructions/inst_prac_main/Slide54.png,right,2.37160574200243,688.3227292619995,690.6943350040019,,,,,,,,,,,,,,,,,,,,,,,,,,,,,,,,,1,,,,,,,,,,,,,,,,,,,,,,,,,,,,,,,,,,,,,,,,,,,,,,73,152710,20,Female,1,2024/02/21_08:45:12,SD,None,
,,,,,,practice_main,0,1,3,303,1,F,0,right,0.9431608349987073,1,0,,,,,,,,,,,,,,,,,,,,,1,,,,,,,,,,,,,,,,,,,,,,,,,,,,,,,,,,,,,,,,,,,,,,73,152710,20,Female,1,2024/02/21_08:45:12,SD,None,
,,,,,,practice_main,0,1,3,303,2,N,0,right,0.3273363150001387,1,0,,,,,,,,,,,,,,,,,,,,,1,,,,,,,,,,,,,,,,,,,,,,,,,,,,,,,,,,,,,,,,,,,,,,73,152710,20,Female,1,2024/02/21_08:45:12,SD,None,
,,,,,,practice_main,0,1,3,303,3,S,0,right,0.571771285001887,1,0,,,,,,,,,,,,,,,,,,,,,1,,,,,,,,,,,,,,,,,,,,,,,,,,,,,,,,,,,,,,,,,,,,,,73,152710,20,Female,1,2024/02/21_08:45:12,SD,None,
,,,,,,practice_main,0,1,3,303,4,N,0,right,nan,0,1,,,,,,,,,,,,,,,,,,,,,1,,,,,,,,,,,,,,,,,,,,,,,,,,,,,,,,,,,,,,,,,,,,,,73,152710,20,Female,1,2024/02/21_08:45:12,SD,None,
,,,,,,practice_main,0,1,3,303,5,X,0,right,0.5573614460008685,1,0,,,,,,,,,,,,,,,,,,,,,1,,,,,,,,,,,,,,,,,,,,,,,,,,,,,,,,,,,,,,,,,,,,,,73,152710,20,Female,1,2024/02/21_08:45:12,SD,None,
,,,,,,practice_main,0,1,3,303,6,S,1,left,0.5448580830052379,1,0,,,,,,,,,,,,,,,,,,,,,1,,,,,,,,,,,,,,,,,,,,,,,,,,,,,,,,,,,,,,,,,,,,,,73,152710,20,Female,1,2024/02/21_08:45:12,SD,None,
,,,,,,practice_main,0,1,3,303,7,N,1,right,0.5126766579996911,0,0,,,,,,,,,,,,,,,,,,,,,1,,,,,,,,,,,,,,,,,,,,,,,,,,,,,,,,,,,,,,,,,,,,,,73,152710,20,Female,1,2024/02/21_08:45:12,SD,None,
,,,,,,practice_main,0,1,3,303,8,N,0,right,0.932006987000932,1,0,,,,,,,,,,,,,,,,,,,,,1,,,,,,,,,,,,,,,,,,,,,,,,,,,,,,,,,,,,,,,,,,,,,,73,152710,20,Female,1,2024/02/21_08:45:12,SD,None,
,,,,,,practice_main,0,1,3,303,9,J,0,right,nan,0,1,,,,,,,,,,,,,,,,,,,,,1,,,,,,,,,,,,,,,,,,,,,,,,,,,,,,,,,,,,,,,,,,,,,,73,152710,20,Female,1,2024/02/21_08:45:12,SD,None,
,,,,,,practice_main,0,1,3,303,10,J,0,right,0.0,1,0,,,,,,,,,,,,,,,,,,,,,1,,,,,,,,,,,,,,,,,,,,,,,,,,,,,,,,,,,,,,,,,,,,,,73,152710,20,Female,1,2024/02/21_08:45:12,SD,None,
,,,,,,practice_main,0,1,3,303,11,X,0,right,0.5319915520012728,1,0,,,,,,,,,,,,,,,,,,,,,1,,,,,,,,,,,,,,,,,,,,,,,,,,,,,,,,,,,,,,,,,,,,,,73,152710,20,Female,1,2024/02/21_08:45:12,SD,None,
,,,,,,practice_main,0,1,3,303,12,N,0,right,0.6007852350012399,1,0,,,,,,,,,,,,,,,,,,,,,1,,,,,,,,,,,,,,,,,,,,,,,,,,,,,,,,,,,,,,,,,,,,,,73,152710,20,Female,1,2024/02/21_08:45:12,SD,None,
,,,,,,practice_main,0,1,3,303,13,V,0,left,0.5905021549988305,0,0,,,,,,,,,,,,,,,,,,,,,1,,,,,,,,,,,,,,,,,,,,,,,,,,,,,,,,,,,,,,,,,,,,,,73,152710,20,Female,1,2024/02/21_08:45:12,SD,None,
,,,,,,practice_main,0,1,3,303,14,F,0,right,0.7638618050041259,1,0,,,,,,,,,,,,,,,,,,,,,1,,,,,,,,,,,,,,,,,,,,,,,,,,,,,,,,,,,,,,,,,,,,,,73,152710,20,Female,1,2024/02/21_08:45:12,SD,None,
,,,,,,practice_main,0,1,3,303,15,F,0,right,0.4792475279973587,1,0,,,,,,,,,,,,,,,,,,,,,1,,,,,,,,,,,,,,,,,,,,,,,,,,,,,,,,,,,,,,,,,,,,,,73,152710,20,Female,1,2024/02/21_08:45:12,SD,None,
,,,,,,practice_main,0,1,3,303,16,V,1,right,0.5123569599963957,0,0,,,,,,,,,,,,,,,,,,,,,1,,,,,,,,,,,,,,,,,,,,,,,,,,,,,,,,,,,,,,,,,,,,,,73,152710,20,Female,1,2024/02/21_08:45:12,SD,None,
,,,,,,practice_main,0,1,3,303,17,F,1,right,0.4049018900041119,0,0,,,,,,,,,,,,,,,,,,,,,1,,,,,,,,,,,,,,,,,,,,,,,,,,,,,,,,,,,,,,,,,,,,,,73,152710,20,Female,1,2024/02/21_08:45:12,SD,None,
,,,,,,practice_main,0,1,3,303,18,Q,0,right,0.5314269160007825,1,0,,,,,,,,,,,,,,,,,,,,,1,,,,,,,,,,,,,,,,,,,,,,,,,,,,,,,,,,,,,,,,,,,,,,73,152710,20,Female,1,2024/02/21_08:45:12,SD,None,
,,,,,,practice_main,0,1,3,303,19,V,1,left,0.37023699099518126,1,0,,,,,,,,,,,,,,,,,,,,,1,,,,,,,,,,,,,,,,,,,,,,,,,,,,,,,,,,,,,,,,,,,,,,73,152710,20,Female,1,2024/02/21_08:45:12,SD,None,
,,,,,,practice_main,0,1,3,303,,,,,,,,0.7875000000000001,0.4,0.07142857142857142,0.9166666666666666,0.10526315789473684,0.8233082706766918,0.539675449470986,2,1,0,2,2,11,13,5,14,0,,,,1,,,,,,,,,,,,,,,,,,,,,,,,,,,,,,,,,,,,,,,,,,,,,,73,152710,20,Female,1,2024/02/21_08:45:12,SD,None,
,,,,,240221_090909,PRACTICE,0,1,3,303,,,,,,,,,,,,,,,,,,,,,,,,,,,,1,4,2,1,cue2.png,hard,A,3,2.505074054002762,0,701.9428009730036,704.463254342998,,,,,,,,,,,,,,,,,,,,,,,,,,,,,,,,,,,73,152710,20,Female,1,2024/02/21_08:45:12,SD,None,
,,,,,,practice_main,0,2,3,303,1,J,0,right,0.6142414119967725,1,0,,,,,,,,,,,,,,,,,,,,,1,,,,,,,,,,,,,,,,,,,,,,,,,,,,,,,,,,,,,,,,,,,,,,73,152710,20,Female,1,2024/02/21_08:45:12,SD,None,
,,,,,,practice_main,0,2,3,303,2,N,0,right,0.4284038209952996,1,0,,,,,,,,,,,,,,,,,,,,,1,,,,,,,,,,,,,,,,,,,,,,,,,,,,,,,,,,,,,,,,,,,,,,73,152710,20,Female,1,2024/02/21_08:45:12,SD,None,
,,,,,,practice_main,0,2,3,303,3,J,0,right,0.7526799240004038,1,0,,,,,,,,,,,,,,,,,,,,,1,,,,,,,,,,,,,,,,,,,,,,,,,,,,,,,,,,,,,,,,,,,,,,73,152710,20,Female,1,2024/02/21_08:45:12,SD,None,
,,,,,,practice_main,0,2,3,303,4,J,1,right,0.39885028299613623,0,0,,,,,,,,,,,,,,,,,,,,,1,,,,,,,,,,,,,,,,,,,,,,,,,,,,,,,,,,,,,,,,,,,,,,73,152710,20,Female,1,2024/02/21_08:45:12,SD,None,
,,,,,,practice_main,0,2,3,303,5,Q,0,left,0.0,0,0,,,,,,,,,,,,,,,,,,,,,1,,,,,,,,,,,,,,,,,,,,,,,,,,,,,,,,,,,,,,,,,,,,,,73,152710,20,Female,1,2024/02/21_08:45:12,SD,None,
,,,,,,practice_main,0,2,3,303,6,J,1,left,nan,0,1,,,,,,,,,,,,,,,,,,,,,1,,,,,,,,,,,,,,,,,,,,,,,,,,,,,,,,,,,,,,,,,,,,,,73,152710,20,Female,1,2024/02/21_08:45:12,SD,None,
,,,,,,practice_main,0,2,3,303,7,J,1,right,0.5124093959966558,0,0,,,,,,,,,,,,,,,,,,,,,1,,,,,,,,,,,,,,,,,,,,,,,,,,,,,,,,,,,,,,,,,,,,,,73,152710,20,Female,1,2024/02/21_08:45:12,SD,None,
,,,,,,practice_main,0,2,3,303,8,F,0,right,0.9541775409961701,1,0,,,,,,,,,,,,,,,,,,,,,1,,,,,,,,,,,,,,,,,,,,,,,,,,,,,,,,,,,,,,,,,,,,,,73,152710,20,Female,1,2024/02/21_08:45:12,SD,None,
,,,,,,practice_main,0,2,3,303,9,X,0,right,0.9235049890048685,1,0,,,,,,,,,,,,,,,,,,,,,1,,,,,,,,,,,,,,,,,,,,,,,,,,,,,,,,,,,,,,,,,,,,,,73,152710,20,Female,1,2024/02/21_08:45:12,SD,None,
,,,,,,practice_main,0,2,3,303,10,S,0,right,0.8085186580065056,1,0,,,,,,,,,,,,,,,,,,,,,1,,,,,,,,,,,,,,,,,,,,,,,,,,,,,,,,,,,,,,,,,,,,,,73,152710,20,Female,1,2024/02/21_08:45:12,SD,None,
,,,,,,practice_main,0,2,3,303,11,Q,0,left,0.9251033990003634,0,0,,,,,,,,,,,,,,,,,,,,,1,,,,,,,,,,,,,,,,,,,,,,,,,,,,,,,,,,,,,,,,,,,,,,73,152710,20,Female,1,2024/02/21_08:45:12,SD,None,
,,,,,,practice_main,0,2,3,303,12,X,1,right,0.4865452390004066,0,0,,,,,,,,,,,,,,,,,,,,,1,,,,,,,,,,,,,,,,,,,,,,,,,,,,,,,,,,,,,,,,,,,,,,73,152710,20,Female,1,2024/02/21_08:45:12,SD,None,
,,,,,,practice_main,0,2,3,303,13,S,1,right,0.7495872860017698,0,0,,,,,,,,,,,,,,,,,,,,,1,,,,,,,,,,,,,,,,,,,,,,,,,,,,,,,,,,,,,,,,,,,,,,73,152710,20,Female,1,2024/02/21_08:45:12,SD,None,
,,,,,,practice_main,0,2,3,303,14,F,0,right,nan,0,1,,,,,,,,,,,,,,,,,,,,,1,,,,,,,,,,,,,,,,,,,,,,,,,,,,,,,,,,,,,,,,,,,,,,73,152710,20,Female,1,2024/02/21_08:45:12,SD,None,
,,,,,,practice_main,0,2,3,303,15,N,0,right,0.5307012639968889,1,0,,,,,,,,,,,,,,,,,,,,,1,,,,,,,,,,,,,,,,,,,,,,,,,,,,,,,,,,,,,,,,,,,,,,73,152710,20,Female,1,2024/02/21_08:45:12,SD,None,
,,,,,,practice_main,0,2,3,303,16,X,0,right,0.24225900499732234,1,0,,,,,,,,,,,,,,,,,,,,,1,,,,,,,,,,,,,,,,,,,,,,,,,,,,,,,,,,,,,,,,,,,,,,73,152710,20,Female,1,2024/02/21_08:45:12,SD,None,
,,,,,,practice_main,0,2,3,303,17,V,0,right,0.40264331700018374,1,0,,,,,,,,,,,,,,,,,,,,,1,,,,,,,,,,,,,,,,,,,,,,,,,,,,,,,,,,,,,,,,,,,,,,73,152710,20,Female,1,2024/02/21_08:45:12,SD,None,
,,,,,,practice_main,0,2,3,303,18,X,0,right,0.5254754069974297,1,0,,,,,,,,,,,,,,,,,,,,,1,,,,,,,,,,,,,,,,,,,,,,,,,,,,,,,,,,,,,,,,,,,,,,73,152710,20,Female,1,2024/02/21_08:45:12,SD,None,
,,,,,,practice_main,0,2,3,303,19,F,0,right,0.4835412570027984,1,0,,,,,,,,,,,,,,,,,,,,,1,,,,,,,,,,,,,,,,,,,,,,,,,,,,,,,,,,,,,,,,,,,,,,73,152710,20,Female,1,2024/02/21_08:45:12,SD,None,
,,,,,,practice_main,0,2,3,303,,,,,,,,0.2142857142857143,0.0,0.14285714285714285,0.8461538461538461,0.10526315789473684,0.7518796992481204,0.5728613057641162,0,2,1,1,2,11,11,5,14,0,,,,1,,,,,,,,,,,,,,,,,,,,,,,,,,,,,,,,,,,,,,,,,,,,,,73,152710,20,Female,1,2024/02/21_08:45:12,SD,None,
,,,,,240221_090942,PRACTICE,0,2,3,303,,,,,,,,,,,,,,,,,,,,,,,,,,,,1,49,3,2,cue2.png,hard,A,0,1.8187137290005921,0,734.851029145997,736.6859670519989,,,,,,,,,,,,,,,,,,,,,,,,,,,,,,,,,,,73,152710,20,Female,1,2024/02/21_08:45:12,SD,None,
,,,,,,practice_main,0,3,1,303,1,V,0,right,0.8497260770018329,1,0,,,,,,,,,,,,,,,,,,,,,1,,,,,,,,,,,,,,,,,,,,,,,,,,,,,,,,,,,,,,,,,,,,,,73,152710,20,Female,1,2024/02/21_08:45:12,SD,None,
,,,,,,practice_main,0,3,1,303,2,N,0,right,0.9059568190059508,1,0,,,,,,,,,,,,,,,,,,,,,1,,,,,,,,,,,,,,,,,,,,,,,,,,,,,,,,,,,,,,,,,,,,,,73,152710,20,Female,1,2024/02/21_08:45:12,SD,None,
,,,,,,practice_main,0,3,1,303,3,N,1,left,0.5468158020012197,1,0,,,,,,,,,,,,,,,,,,,,,1,,,,,,,,,,,,,,,,,,,,,,,,,,,,,,,,,,,,,,,,,,,,,,73,152710,20,Female,1,2024/02/21_08:45:12,SD,None,
,,,,,,practice_main,0,3,1,303,4,X,0,right,0.3811524940028903,1,0,,,,,,,,,,,,,,,,,,,,,1,,,,,,,,,,,,,,,,,,,,,,,,,,,,,,,,,,,,,,,,,,,,,,73,152710,20,Female,1,2024/02/21_08:45:12,SD,None,
,,,,,,practice_main,0,3,1,303,5,J,0,right,0.450815780000994,1,0,,,,,,,,,,,,,,,,,,,,,1,,,,,,,,,,,,,,,,,,,,,,,,,,,,,,,,,,,,,,,,,,,,,,73,152710,20,Female,1,2024/02/21_08:45:12,SD,None,
,,,,,,practice_main,0,3,1,303,6,J,1,left,0.6414715770006296,1,0,,,,,,,,,,,,,,,,,,,,,1,,,,,,,,,,,,,,,,,,,,,,,,,,,,,,,,,,,,,,,,,,,,,,73,152710,20,Female,1,2024/02/21_08:45:12,SD,None,
,,,,,,practice_main,0,3,1,303,7,C,0,right,0.285449012000754,1,0,,,,,,,,,,,,,,,,,,,,,1,,,,,,,,,,,,,,,,,,,,,,,,,,,,,,,,,,,,,,,,,,,,,,73,152710,20,Female,1,2024/02/21_08:45:12,SD,None,
,,,,,,practice_main,0,3,1,303,8,Q,0,right,0.44799505599803524,1,0,,,,,,,,,,,,,,,,,,,,,1,,,,,,,,,,,,,,,,,,,,,,,,,,,,,,,,,,,,,,,,,,,,,,73,152710,20,Female,1,2024/02/21_08:45:12,SD,None,
,,,,,,practice_main,0,3,1,303,9,V,0,right,0.4656277050016797,1,0,,,,,,,,,,,,,,,,,,,,,1,,,,,,,,,,,,,,,,,,,,,,,,,,,,,,,,,,,,,,,,,,,,,,73,152710,20,Female,1,2024/02/21_08:45:12,SD,None,
,,,,,,practice_main,0,3,1,303,10,Q,0,left,0.48100322500249604,0,0,,,,,,,,,,,,,,,,,,,,,1,,,,,,,,,,,,,,,,,,,,,,,,,,,,,,,,,,,,,,,,,,,,,,73,152710,20,Female,1,2024/02/21_08:45:12,SD,None,
,,,,,,practice_main,0,3,1,303,11,Q,1,left,0.6054196960030822,1,0,,,,,,,,,,,,,,,,,,,,,1,,,,,,,,,,,,,,,,,,,,,,,,,,,,,,,,,,,,,,,,,,,,,,73,152710,20,Female,1,2024/02/21_08:45:12,SD,None,
,,,,,,practice_main,0,3,1,303,12,J,0,right,0.38364656300109345,1,0,,,,,,,,,,,,,,,,,,,,,1,,,,,,,,,,,,,,,,,,,,,,,,,,,,,,,,,,,,,,,,,,,,,,73,152710,20,Female,1,2024/02/21_08:45:12,SD,None,
,,,,,,practice_main,0,3,1,303,13,J,1,left,0.3352889950037934,1,0,,,,,,,,,,,,,,,,,,,,,1,,,,,,,,,,,,,,,,,,,,,,,,,,,,,,,,,,,,,,,,,,,,,,73,152710,20,Female,1,2024/02/21_08:45:12,SD,None,
,,,,,,practice_main,0,3,1,303,14,Q,0,right,0.8183632410000428,1,0,,,,,,,,,,,,,,,,,,,,,1,,,,,,,,,,,,,,,,,,,,,,,,,,,,,,,,,,,,,,,,,,,,,,73,152710,20,Female,1,2024/02/21_08:45:12,SD,None,
,,,,,,practice_main,0,3,1,303,15,Q,1,left,0.28345112100214465,1,0,,,,,,,,,,,,,,,,,,,,,1,,,,,,,,,,,,,,,,,,,,,,,,,,,,,,,,,,,,,,,,,,,,,,73,152710,20,Female,1,2024/02/21_08:45:12,SD,None,
,,,,,,practice_main,0,3,1,303,16,J,0,right,0.3526046879997011,1,0,,,,,,,,,,,,,,,,,,,,,1,,,,,,,,,,,,,,,,,,,,,,,,,,,,,,,,,,,,,,,,,,,,,,73,152710,20,Female,1,2024/02/21_08:45:12,SD,None,
,,,,,,practice_main,0,3,1,303,17,X,0,right,0.532629501001793,1,0,,,,,,,,,,,,,,,,,,,,,1,,,,,,,,,,,,,,,,,,,,,,,,,,,,,,,,,,,,,,,,,,,,,,73,152710,20,Female,1,2024/02/21_08:45:12,SD,None,
,,,,,,practice_main,0,3,1,303,18,F,0,right,0.4014055890002055,1,0,,,,,,,,,,,,,,,,,,,,,1,,,,,,,,,,,,,,,,,,,,,,,,,,,,,,,,,,,,,,,,,,,,,,73,152710,20,Female,1,2024/02/21_08:45:12,SD,None,
,,,,,,practice_main,0,3,1,303,19,S,0,right,0.3992451779995463,1,0,,,,,,,,,,,,,,,,,,,,,1,,,,,,,,,,,,,,,,,,,,,,,,,,,,,,,,,,,,,,,,,,,,,,73,152710,20,Female,1,2024/02/21_08:45:12,SD,None,
,,,,,,practice_main,0,3,1,303,,,,,,,,0.9821428571428572,1.0,0.07142857142857142,0.9285714285714286,0.0,0.9285714285714286,0.503582532580415,5,1,0,0,0,13,18,5,14,0,,,,1,,,,,,,,,,,,,,,,,,,,,,,,,,,,,,,,,,,,,,,,,,,,,,73,152710,20,Female,1,2024/02/21_08:45:12,SD,None,
,,,,,240221_091012,PRACTICE,0,3,1,303,,,,,,,,,,,,,,,,,,,,,,,,,,,,1,44,4,3,cue1.png,easy,A,95,1.045068833998812,0,767.6003573900016,768.6575980350026,,,,,,,,,,,,,,,,,,,,,,,,,,,,,,,,,,,73,152710,20,Female,1,2024/02/21_08:45:12,SD,None,
1,./instructions/inst_prac_end/Slide56.png,right,29.666593113994168,795.8917649240029,825.5583580379971,,,,,,,,,,,,,,,,,,,,,,,,,,,,,,,,,1,,,,,,,,,,,,,,,,,,,,,,,,,,,,,,,,,,,,,,,,,,,,,,73,152710,20,Female,1,2024/02/21_08:45:12,SD,None,
1,./instructions/inst_test/Slide57.png,right,17.288301855005557,825.5897917979964,842.878093653002,,,,,,,,,,,,,,,,,,,,,,,,,,,,,,,,,1,,,,,,,,,,,,,,,,,,,,,,,,,,,,,,,,,,,,,,,,,,,,,,73,152710,20,Female,1,2024/02/21_08:45:12,SD,None,
,,,,,,test,1,1,1,303,1,J,0,right,0.7480980260006618,1,0,,,,,,,,,,,,,,,,,,,,,1,,,,,,,,,,,,,,,,,,,,,,,,,,,,,,,,,,,,,,,,,,,,,,73,152710,20,Female,1,2024/02/21_08:45:12,SD,None,
,,,,,,test,1,1,1,303,2,N,0,right,0.24609068300196668,1,0,,,,,,,,,,,,,,,,,,,,,1,,,,,,,,,,,,,,,,,,,,,,,,,,,,,,,,,,,,,,,,,,,,,,73,152710,20,Female,1,2024/02/21_08:45:12,SD,None,
,,,,,,test,1,1,1,303,3,N,1,right,0.3408505939951283,0,0,,,,,,,,,,,,,,,,,,,,,1,,,,,,,,,,,,,,,,,,,,,,,,,,,,,,,,,,,,,,,,,,,,,,73,152710,20,Female,1,2024/02/21_08:45:12,SD,None,
,,,,,,test,1,1,1,303,4,C,0,right,0.38705139499506913,1,0,,,,,,,,,,,,,,,,,,,,,1,,,,,,,,,,,,,,,,,,,,,,,,,,,,,,,,,,,,,,,,,,,,,,73,152710,20,Female,1,2024/02/21_08:45:12,SD,None,
,,,,,,test,1,1,1,303,5,C,1,left,0.3682881519998773,1,0,,,,,,,,,,,,,,,,,,,,,1,,,,,,,,,,,,,,,,,,,,,,,,,,,,,,,,,,,,,,,,,,,,,,73,152710,20,Female,1,2024/02/21_08:45:12,SD,None,
,,,,,,test,1,1,1,303,6,S,0,right,0.24410448699927656,1,0,,,,,,,,,,,,,,,,,,,,,1,,,,,,,,,,,,,,,,,,,,,,,,,,,,,,,,,,,,,,,,,,,,,,73,152710,20,Female,1,2024/02/21_08:45:12,SD,None,
,,,,,,test,1,1,1,303,7,J,0,right,0.581219466002949,1,0,,,,,,,,,,,,,,,,,,,,,1,,,,,,,,,,,,,,,,,,,,,,,,,,,,,,,,,,,,,,,,,,,,,,73,152710,20,Female,1,2024/02/21_08:45:12,SD,None,
,,,,,,test,1,1,1,303,8,X,0,right,0.41319217599811964,1,0,,,,,,,,,,,,,,,,,,,,,1,,,,,,,,,,,,,,,,,,,,,,,,,,,,,,,,,,,,,,,,,,,,,,73,152710,20,Female,1,2024/02/21_08:45:12,SD,None,
,,,,,,test,1,1,1,303,9,X,1,left,0.33287313699838705,1,0,,,,,,,,,,,,,,,,,,,,,1,,,,,,,,,,,,,,,,,,,,,,,,,,,,,,,,,,,,,,,,,,,,,,73,152710,20,Female,1,2024/02/21_08:45:12,SD,None,
,,,,,,test,1,1,1,303,10,V,0,right,0.21507647600083146,1,0,,,,,,,,,,,,,,,,,,,,,1,,,,,,,,,,,,,,,,,,,,,,,,,,,,,,,,,,,,,,,,,,,,,,73,152710,20,Female,1,2024/02/21_08:45:12,SD,None,
,,,,,,test,1,1,1,303,11,V,1,right,0.3646158400006243,0,0,,,,,,,,,,,,,,,,,,,,,1,,,,,,,,,,,,,,,,,,,,,,,,,,,,,,,,,,,,,,,,,,,,,,73,152710,20,Female,1,2024/02/21_08:45:12,SD,None,
,,,,,,test,1,1,1,303,12,X,0,right,0.29034358599892585,1,0,,,,,,,,,,,,,,,,,,,,,1,,,,,,,,,,,,,,,,,,,,,,,,,,,,,,,,,,,,,,,,,,,,,,73,152710,20,Female,1,2024/02/21_08:45:12,SD,None,
,,,,,,test,1,1,1,303,13,X,1,left,0.2973604169965256,1,0,,,,,,,,,,,,,,,,,,,,,1,,,,,,,,,,,,,,,,,,,,,,,,,,,,,,,,,,,,,,,,,,,,,,73,152710,20,Female,1,2024/02/21_08:45:12,SD,None,
,,,,,,test,1,1,1,303,14,S,0,right,0.2484346980054397,1,0,,,,,,,,,,,,,,,,,,,,,1,,,,,,,,,,,,,,,,,,,,,,,,,,,,,,,,,,,,,,,,,,,,,,73,152710,20,Female,1,2024/02/21_08:45:12,SD,None,
,,,,,,test,1,1,1,303,15,F,0,left,0.2493072189972736,0,0,,,,,,,,,,,,,,,,,,,,,1,,,,,,,,,,,,,,,,,,,,,,,,,,,,,,,,,,,,,,,,,,,,,,73,152710,20,Female,1,2024/02/21_08:45:12,SD,None,
,,,,,,test,1,1,1,303,16,V,0,right,0.02383036899846047,1,0,,,,,,,,,,,,,,,,,,,,,1,,,,,,,,,,,,,,,,,,,,,,,,,,,,,,,,,,,,,,,,,,,,,,73,152710,20,Female,1,2024/02/21_08:45:12,SD,None,
,,,,,,test,1,1,1,303,17,V,1,right,0.2332579430003534,0,0,,,,,,,,,,,,,,,,,,,,,1,,,,,,,,,,,,,,,,,,,,,,,,,,,,,,,,,,,,,,,,,,,,,,73,152710,20,Female,1,2024/02/21_08:45:12,SD,None,
,,,,,,test,1,1,1,303,18,N,0,right,0.49692177300312323,1,0,,,,,,,,,,,,,,,,,,,,,1,,,,,,,,,,,,,,,,,,,,,,,,,,,,,,,,,,,,,,,,,,,,,,73,152710,20,Female,1,2024/02/21_08:45:12,SD,None,
,,,,,,test,1,1,1,303,19,J,0,right,0.6219335659989156,1,0,,,,,,,,,,,,,,,,,,,,,1,,,,,,,,,,,,,,,,,,,,,,,,,,,,,,,,,,,,,,,,,,,,,,73,152710,20,Female,1,2024/02/21_08:45:12,SD,None,
,,,,,,Test,1,1,1,303,,,,,,,,0.8173076923076923,0.5,0.07692307692307693,0.9230769230769231,0.0,0.9230769230769231,0.3527815791048373,3,1,0,0,0,12,15,6,13,0,,,,1,,,,,,,,,,,,,,,,,,,,,,,,,,,,,,,,,,,,,,,,,,,,,,73,152710,20,Female,1,2024/02/21_08:45:12,SD,None,
,,,,,240221_091129,TEST,1,1,1,303,,,,,,,,,,,,,,,,,,,,,,,,,,,,1,1,1,1,cue1.png,easy,A,67,0.50389867600461,0,847.965730295,848.4895798709986,,,,,,,,,,,,,,,,,,,,,,,,,,,,,,,,,,,73,152710,20,Female,1,2024/02/21_08:45:12,SD,None,
,,,,,,test,1,2,3,303,1,C,0,right,0.44073415199818555,1,0,,,,,,,,,,,,,,,,,,,,,1,,,,,,,,,,,,,,,,,,,,,,,,,,,,,,,,,,,,,,,,,,,,,,73,152710,20,Female,1,2024/02/21_08:45:12,SD,None,
,,,,,,test,1,2,3,303,2,V,0,right,0.351501578996249,1,0,,,,,,,,,,,,,,,,,,,,,1,,,,,,,,,,,,,,,,,,,,,,,,,,,,,,,,,,,,,,,,,,,,,,73,152710,20,Female,1,2024/02/21_08:45:12,SD,None,
,,,,,,test,1,2,3,303,3,X,0,right,0.4809157359995879,1,0,,,,,,,,,,,,,,,,,,,,,1,,,,,,,,,,,,,,,,,,,,,,,,,,,,,,,,,,,,,,,,,,,,,,73,152710,20,Female,1,2024/02/21_08:45:12,SD,None,
,,,,,,test,1,2,3,303,4,C,1,left,0.4087323589992593,1,0,,,,,,,,,,,,,,,,,,,,,1,,,,,,,,,,,,,,,,,,,,,,,,,,,,,,,,,,,,,,,,,,,,,,73,152710,20,Female,1,2024/02/21_08:45:12,SD,None,
,,,,,,test,1,2,3,303,5,V,1,right,0.5808964269963326,0,0,,,,,,,,,,,,,,,,,,,,,1,,,,,,,,,,,,,,,,,,,,,,,,,,,,,,,,,,,,,,,,,,,,,,73,152710,20,Female,1,2024/02/21_08:45:12,SD,None,
,,,,,,test,1,2,3,303,6,J,0,left,0.9975746290001553,0,0,,,,,,,,,,,,,,,,,,,,,1,,,,,,,,,,,,,,,,,,,,,,,,,,,,,,,,,,,,,,,,,,,,,,73,152710,20,Female,1,2024/02/21_08:45:12,SD,None,
,,,,,,test,1,2,3,303,7,J,0,left,nan,0,1,,,,,,,,,,,,,,,,,,,,,1,,,,,,,,,,,,,,,,,,,,,,,,,,,,,,,,,,,,,,,,,,,,,,73,152710,20,Female,1,2024/02/21_08:45:12,SD,None,
,,,,,,test,1,2,3,303,8,F,0,left,nan,0,1,,,,,,,,,,,,,,,,,,,,,1,,,,,,,,,,,,,,,,,,,,,,,,,,,,,,,,,,,,,,,,,,,,,,73,152710,20,Female,1,2024/02/21_08:45:12,SD,None,
,,,,,,test,1,2,3,303,9,J,1,left,nan,0,1,,,,,,,,,,,,,,,,,,,,,1,,,,,,,,,,,,,,,,,,,,,,,,,,,,,,,,,,,,,,,,,,,,,,73,152710,20,Female,1,2024/02/21_08:45:12,SD,None,
,,,,,,test,1,2,3,303,10,F,0,left,nan,0,1,,,,,,,,,,,,,,,,,,,,,1,,,,,,,,,,,,,,,,,,,,,,,,,,,,,,,,,,,,,,,,,,,,,,73,152710,20,Female,1,2024/02/21_08:45:12,SD,None,
,,,,,,test,1,2,3,303,11,J,0,left,0.25251324100099737,0,0,,,,,,,,,,,,,,,,,,,,,1,,,,,,,,,,,,,,,,,,,,,,,,,,,,,,,,,,,,,,,,,,,,,,73,152710,20,Female,1,2024/02/21_08:45:12,SD,None,
,,,,,,test,1,2,3,303,12,F,0,left,0.6516054230014561,0,0,,,,,,,,,,,,,,,,,,,,,1,,,,,,,,,,,,,,,,,,,,,,,,,,,,,,,,,,,,,,,,,,,,,,73,152710,20,Female,1,2024/02/21_08:45:12,SD,None,
,,,,,,test,1,2,3,303,13,V,0,right,0.48495704399829265,1,0,,,,,,,,,,,,,,,,,,,,,1,,,,,,,,,,,,,,,,,,,,,,,,,,,,,,,,,,,,,,,,,,,,,,73,152710,20,Female,1,2024/02/21_08:45:12,SD,None,
,,,,,,test,1,2,3,303,14,J,1,right,nan,0,1,,,,,,,,,,,,,,,,,,,,,1,,,,,,,,,,,,,,,,,,,,,,,,,,,,,,,,,,,,,,,,,,,,,,73,152710,20,Female,1,2024/02/21_08:45:12,SD,None,
,,,,,,test,1,2,3,303,15,C,0,right,0.3712309210022795,1,0,,,,,,,,,,,,,,,,,,,,,1,,,,,,,,,,,,,,,,,,,,,,,,,,,,,,,,,,,,,,,,,,,,,,73,152710,20,Female,1,2024/02/21_08:45:12,SD,None,
,,,,,,test,1,2,3,303,16,X,0,right,0.7152857589971973,1,0,,,,,,,,,,,,,,,,,,,,,1,,,,,,,,,,,,,,,,,,,,,,,,,,,,,,,,,,,,,,,,,,,,,,73,152710,20,Female,1,2024/02/21_08:45:12,SD,None,
,,,,,,test,1,2,3,303,17,J,1,right,0.3740976289991522,0,0,,,,,,,,,,,,,,,,,,,,,1,,,,,,,,,,,,,,,,,,,,,,,,,,,,,,,,,,,,,,,,,,,,,,73,152710,20,Female,1,2024/02/21_08:45:12,SD,None,
,,,,,,test,1,2,3,303,18,N,0,right,0.4574643180021667,1,0,,,,,,,,,,,,,,,,,,,,,1,,,,,,,,,,,,,,,,,,,,,,,,,,,,,,,,,,,,,,,,,,,,,,73,152710,20,Female,1,2024/02/21_08:45:12,SD,None,
,,,,,,test,1,2,3,303,19,S,0,right,0.7159221399997477,1,0,,,,,,,,,,,,,,,,,,,,,1,,,,,,,,,,,,,,,,,,,,,,,,,,,,,,,,,,,,,,,,,,,,,,73,152710,20,Female,1,2024/02/21_08:45:12,SD,None,
,,,,,,Test,1,2,3,303,,,,,,,,0.013095238095238076,0.2,0.21428571428571427,0.7272727272727273,0.2631578947368421,0.5225563909774436,0.5202450969279327,1,3,2,3,5,8,9,5,14,0,,,,1,,,,,,,,,,,,,,,,,,,,,,,,,,,,,,,,,,,,,,,,,,,,,,73,152710,20,Female,1,2024/02/21_08:45:12,SD,None,
,,,,,240221_091201,TEST,1,2,3,303,,,,,,,,,,,,,,,,,,,,,,,,,,,,1,2,2,2,cue2.png,hard,A,19,0.6361707719988772,0,874.319249498003,874.9704293780014,,,,,,,,,,,,,,,,,,,,,,,,,,,,,,,,,,,73,152710,20,Female,1,2024/02/21_08:45:12,SD,None,
,,,,,,test,1,3,1,303,1,V,0,right,0.4028241249980056,1,0,,,,,,,,,,,,,,,,,,,,,1,,,,,,,,,,,,,,,,,,,,,,,,,,,,,,,,,,,,,,,,,,,,,,73,152710,20,Female,1,2024/02/21_08:45:12,SD,None,
,,,,,,test,1,3,1,303,2,V,1,left,0.41260381300526205,1,0,,,,,,,,,,,,,,,,,,,,,1,,,,,,,,,,,,,,,,,,,,,,,,,,,,,,,,,,,,,,,,,,,,,,73,152710,20,Female,1,2024/02/21_08:45:12,SD,None,
,,,,,,test,1,3,1,303,3,Q,0,right,0.4760172220048844,1,0,,,,,,,,,,,,,,,,,,,,,1,,,,,,,,,,,,,,,,,,,,,,,,,,,,,,,,,,,,,,,,,,,,,,73,152710,20,Female,1,2024/02/21_08:45:12,SD,None,
,,,,,,test,1,3,1,303,4,C,0,right,0.6148547019984107,1,0,,,,,,,,,,,,,,,,,,,,,1,,,,,,,,,,,,,,,,,,,,,,,,,,,,,,,,,,,,,,,,,,,,,,73,152710,20,Female,1,2024/02/21_08:45:12,SD,None,
,,,,,,test,1,3,1,303,5,C,1,left,0.3019586930022342,1,0,,,,,,,,,,,,,,,,,,,,,1,,,,,,,,,,,,,,,,,,,,,,,,,,,,,,,,,,,,,,,,,,,,,,73,152710,20,Female,1,2024/02/21_08:45:12,SD,None,
,,,,,,test,1,3,1,303,6,S,0,right,0.3439748699966003,1,0,,,,,,,,,,,,,,,,,,,,,1,,,,,,,,,,,,,,,,,,,,,,,,,,,,,,,,,,,,,,,,,,,,,,73,152710,20,Female,1,2024/02/21_08:45:12,SD,None,
,,,,,,test,1,3,1,303,7,S,1,left,0.3210718979971716,1,0,,,,,,,,,,,,,,,,,,,,,1,,,,,,,,,,,,,,,,,,,,,,,,,,,,,,,,,,,,,,,,,,,,,,73,152710,20,Female,1,2024/02/21_08:45:12,SD,None,
,,,,,,test,1,3,1,303,8,V,0,right,0.36795280299702426,1,0,,,,,,,,,,,,,,,,,,,,,1,,,,,,,,,,,,,,,,,,,,,,,,,,,,,,,,,,,,,,,,,,,,,,73,152710,20,Female,1,2024/02/21_08:45:12,SD,None,
,,,,,,test,1,3,1,303,9,V,1,left,0.28122787499887636,1,0,,,,,,,,,,,,,,,,,,,,,1,,,,,,,,,,,,,,,,,,,,,,,,,,,,,,,,,,,,,,,,,,,,,,73,152710,20,Female,1,2024/02/21_08:45:12,SD,None,
,,,,,,test,1,3,1,303,10,N,0,right,0.30485684599989327,1,0,,,,,,,,,,,,,,,,,,,,,1,,,,,,,,,,,,,,,,,,,,,,,,,,,,,,,,,,,,,,,,,,,,,,73,152710,20,Female,1,2024/02/21_08:45:12,SD,None,
,,,,,,test,1,3,1,303,11,C,0,right,0.46446942100010347,1,0,,,,,,,,,,,,,,,,,,,,,1,,,,,,,,,,,,,,,,,,,,,,,,,,,,,,,,,,,,,,,,,,,,,,73,152710,20,Female,1,2024/02/21_08:45:12,SD,None,
,,,,,,test,1,3,1,303,12,C,1,left,0.4529892880018451,1,0,,,,,,,,,,,,,,,,,,,,,1,,,,,,,,,,,,,,,,,,,,,,,,,,,,,,,,,,,,,,,,,,,,,,73,152710,20,Female,1,2024/02/21_08:45:12,SD,None,
,,,,,,test,1,3,1,303,13,Q,0,right,0.3599966750043677,1,0,,,,,,,,,,,,,,,,,,,,,1,,,,,,,,,,,,,,,,,,,,,,,,,,,,,,,,,,,,,,,,,,,,,,73,152710,20,Female,1,2024/02/21_08:45:12,SD,None,
,,,,,,test,1,3,1,303,14,C,0,right,0.5122676780010806,1,0,,,,,,,,,,,,,,,,,,,,,1,,,,,,,,,,,,,,,,,,,,,,,,,,,,,,,,,,,,,,,,,,,,,,73,152710,20,Female,1,2024/02/21_08:45:12,SD,None,
,,,,,,test,1,3,1,303,15,F,0,right,0.750016375000996,1,0,,,,,,,,,,,,,,,,,,,,,1,,,,,,,,,,,,,,,,,,,,,,,,,,,,,,,,,,,,,,,,,,,,,,73,152710,20,Female,1,2024/02/21_08:45:12,SD,None,
,,,,,,test,1,3,1,303,16,V,0,right,0.5007032900030026,1,0,,,,,,,,,,,,,,,,,,,,,1,,,,,,,,,,,,,,,,,,,,,,,,,,,,,,,,,,,,,,,,,,,,,,73,152710,20,Female,1,2024/02/21_08:45:12,SD,None,
,,,,,,test,1,3,1,303,17,S,0,right,0.5241920680055046,1,0,,,,,,,,,,,,,,,,,,,,,1,,,,,,,,,,,,,,,,,,,,,,,,,,,,,,,,,,,,,,,,,,,,,,73,152710,20,Female,1,2024/02/21_08:45:12,SD,None,
,,,,,,test,1,3,1,303,18,X,0,right,0.6388711619947571,1,0,,,,,,,,,,,,,,,,,,,,,1,,,,,,,,,,,,,,,,,,,,,,,,,,,,,,,,,,,,,,,,,,,,,,73,152710,20,Female,1,2024/02/21_08:45:12,SD,None,
,,,,,,test,1,3,1,303,19,S,0,left,0.5565747150030802,0,0,,,,,,,,,,,,,,,,,,,,,1,,,,,,,,,,,,,,,,,,,,,,,,,,,,,,,,,,,,,,,,,,,,,,73,152710,20,Female,1,2024/02/21_08:45:12,SD,None,
,,,,,,Test,1,3,1,303,,,,,,,,0.9821428571428572,1.0,0.07142857142857142,0.9285714285714286,0.0,0.9285714285714286,0.45196965889542634,5,1,0,0,0,13,18,5,14,0,,,,1,,,,,,,,,,,,,,,,,,,,,,,,,,,,,,,,,,,,,,,,,,,,,,73,152710,20,Female,1,2024/02/21_08:45:12,SD,None,
,,,,,240221_091231,TEST,1,3,1,303,,,,,,,,,,,,,,,,,,,,,,,,,,,,1,3,3,3,cue1.png,easy,A,75,2.4451801589966635,0,906.4188309070014,908.8779660060027,,,,,,,,,,,,,,,,,,,,,,,,,,,,,,,,,,,73,152710,20,Female,1,2024/02/21_08:45:12,SD,None,
,,,,,,test,1,4,3,303,1,Q,0,right,0.6071533690046635,1,0,,,,,,,,,,,,,,,,,,,,,1,,,,,,,,,,,,,,,,,,,,,,,,,,,,,,,,,,,,,,,,,,,,,,73,152710,20,Female,1,2024/02/21_08:45:12,SD,None,
,,,,,,test,1,4,3,303,2,C,0,right,0.29465260700089857,1,0,,,,,,,,,,,,,,,,,,,,,1,,,,,,,,,,,,,,,,,,,,,,,,,,,,,,,,,,,,,,,,,,,,,,73,152710,20,Female,1,2024/02/21_08:45:12,SD,None,
