Instruction,Stimulus,Key,RT,START,END,Phase,Block,TrialN,NbackLevel,ISI,LetterN,Letter,Letter_isSame,Letter_Resp,Letter_RT,Letter_Accuracy,Letter_Timeout,Trial_A_measure,Trial_HR,Trial_FAR,Trial_CDR,Trial_MSR,Trial_ACC,Trial_RT,Trial_HitsCount,Trial_FAsCount,Trial_SameNoRespCount,Trial_DiffNoRespCount,Trial_NoRespCount,Trial_CDsCount,Trial_CorrectRespCount,Trial_SameLetterCount,Trial_DiffLetterCount,Trial_InvalidLetterCount,TrialCountCali,CaliEnd_A_measure,ISI_calibrated,Run,TrialIndex,TrialNumber_total,TrialNumber_valid,CueLearning,TrialDemandLearning,CueMapping,CueSTART,OfflineRatingTimePoint,OfflineRatingQuesIndex,CueFigure,TrialDemand,OfflineRating,OfflineRatingRT,CueStart,OfflineRatingStart,PhaseType,CueLeft,CueDemandLeft,CueRight,CueDemandRight,Choice,ChoiceDemand,TaskDemand,ChoiceRT,ChoiceTimeOut,ChoiceSTART,CueCheck,CueDemandCheck,CorrectAnswer,Answer,AnswerDemand,AnswerRT,AnswerACC,AnswerTimeOut,CheckSTART,DemandRatingQuesIndex,QuesTLX,DemandLevel,DemandRating,DemandRatingRT,QuesStart,PID,SONA,Age,Gender,Run,TIME,EXPERIMENTER,frameRate,
1,.\instructions\inst_begin\Slide1.png,right,1.9692577999085188,0.14760710019618273,2.1168649001047015,,,,,,,,,,,,,,,,,,,,,,,,,,,,,,,,,1,,,,,,,,,,,,,,,,,,,,,,,,,,,,,,,,,,,,,,,,,,999,999,26,Female,1,2024/05/07_14:58:33,YZ,59.891572419901344,
2,.\instructions\inst_begin\Slide2.png,right,0.20011889981105924,2.150317100342363,2.3504360001534224,,,,,,,,,,,,,,,,,,,,,,,,,,,,,,,,,1,,,,,,,,,,,,,,,,,,,,,,,,,,,,,,,,,,,,,,,,,,999,999,26,Female,1,2024/05/07_14:58:33,YZ,59.891572419901344,
3,.\instructions\inst_begin\Slide3.png,right,0.30859690019860864,2.3836051002144814,2.69220200041309,,,,,,,,,,,,,,,,,,,,,,,,,,,,,,,,,1,,,,,,,,,,,,,,,,,,,,,,,,,,,,,,,,,,,,,,,,,,999,999,26,Female,1,2024/05/07_14:58:33,YZ,59.891572419901344,
1,.\instructions\inst_prac_2\Slide1.png,right,0.2586691998876631,2.7374957003630698,2.996164900250733,,,,,,,,,,,,,,,,,,,,,,,,,,,,,,,,,1,,,,,,,,,,,,,,,,,,,,,,,,,,,,,,,,,,,,,,,,,,999,999,26,Female,1,2024/05/07_14:58:33,YZ,59.891572419901344,
2,.\instructions\inst_prac_2\Slide2.png,right,0.29402399994432926,3.0301470002159476,3.324171000160277,,,,,,,,,,,,,,,,,,,,,,,,,,,,,,,,,1,,,,,,,,,,,,,,,,,,,,,,,,,,,,,,,,,,,,,,,,,,999,999,26,Female,1,2024/05/07_14:58:33,YZ,59.891572419901344,
3,.\instructions\inst_prac_2\Slide3.png,right,0.3270073998719454,3.357305500190705,3.6843129000626504,,,,,,,,,,,,,,,,,,,,,,,,,,,,,,,,,1,,,,,,,,,,,,,,,,,,,,,,,,,,,,,,,,,,,,,,,,,,999,999,26,Female,1,2024/05/07_14:58:33,YZ,59.891572419901344,
4,.\instructions\inst_prac_2\Slide4.png,right,0.6315017999149859,3.7167179002426565,4.348219700157642,,,,,,,,,,,,,,,,,,,,,,,,,,,,,,,,,1,,,,,,,,,,,,,,,,,,,,,,,,,,,,,,,,,,,,,,,,,,999,999,26,Female,1,2024/05/07_14:58:33,YZ,59.891572419901344,
5,.\instructions\inst_prac_2\Slide5.png,right,0.38494390016421676,4.37923840014264,4.764182300306857,,,,,,,,,,,,,,,,,,,,,,,,,,,,,,,,,1,,,,,,,,,,,,,,,,,,,,,,,,,,,,,,,,,,,,,,,,,,999,999,26,Female,1,2024/05/07_14:58:33,YZ,59.891572419901344,
6,.\instructions\inst_prac_2\Slide6.png,right,0.2005257997661829,4.795610400382429,4.996136200148612,,,,,,,,,,,,,,,,,,,,,,,,,,,,,,,,,1,,,,,,,,,,,,,,,,,,,,,,,,,,,,,,,,,,,,,,,,,,999,999,26,Female,1,2024/05/07_14:58:33,YZ,59.891572419901344,
7,.\instructions\inst_prac_2\Slide7.png,right,0.28132349997758865,5.026898400392383,5.308221900369972,,,,,,,,,,,,,,,,,,,,,,,,,,,,,,,,,1,,,,,,,,,,,,,,,,,,,,,,,,,,,,,,,,,,,,,,,,,,999,999,26,Female,1,2024/05/07_14:58:33,YZ,59.891572419901344,
8,.\instructions\inst_prac_2\Slide8.png,right,0.2641755002550781,5.339979100041091,5.6041546002961695,,,,,,,,,,,,,,,,,,,,,,,,,,,,,,,,,1,,,,,,,,,,,,,,,,,,,,,,,,,,,,,,,,,,,,,,,,,,999,999,26,Female,1,2024/05/07_14:58:33,YZ,59.891572419901344,
9,.\instructions\inst_prac_2\Slide9.png,right,0.2891186000779271,5.635003000032157,5.924121600110084,,,,,,,,,,,,,,,,,,,,,,,,,,,,,,,,,1,,,,,,,,,,,,,,,,,,,,,,,,,,,,,,,,,,,,,,,,,,999,999,26,Female,1,2024/05/07_14:58:33,YZ,59.891572419901344,
10,.\instructions\inst_prac_2\Slide10.png,right,0.593408000189811,5.954799800179899,6.54820780036971,,,,,,,,,,,,,,,,,,,,,,,,,,,,,,,,,1,,,,,,,,,,,,,,,,,,,,,,,,,,,,,,,,,,,,,,,,,,999,999,26,Female,1,2024/05/07_14:58:33,YZ,59.891572419901344,
,,,,,,practice,0,20,2,2583,1,S,0,right,0.564344400074333,1,0,,,,,,,,,,,,,,,,,,,,,1,,,,,,,,,,,,,,,,,,,,,,,,,,,,,,,,,,,,,,,,,,999,999,26,Female,1,2024/05/07_14:58:33,YZ,59.891572419901344,
,,,,,,practice,0,20,2,2583,2,F,0,right,0.0,1,0,,,,,,,,,,,,,,,,,,,,,1,,,,,,,,,,,,,,,,,,,,,,,,,,,,,,,,,,,,,,,,,,999,999,26,Female,1,2024/05/07_14:58:33,YZ,59.891572419901344,
,,,,,,practice,0,20,2,2583,3,S,1,right,0.1694625997915864,0,0,,,,,,,,,,,,,,,,,,,,,1,,,,,,,,,,,,,,,,,,,,,,,,,,,,,,,,,,,,,,,,,,999,999,26,Female,1,2024/05/07_14:58:33,YZ,59.891572419901344,
,,,,,,practice,0,20,2,2583,4,N,0,right,0.07353929989039898,1,0,,,,,,,,,,,,,,,,,,,,,1,,,,,,,,,,,,,,,,,,,,,,,,,,,,,,,,,,,,,,,,,,999,999,26,Female,1,2024/05/07_14:58:33,YZ,59.891572419901344,
,,,,,,practice,0,20,2,2583,5,S,1,left,0.4894143999554217,1,0,,,,,,,,,,,,,,,,,,,,,1,,,,,,,,,,,,,,,,,,,,,,,,,,,,,,,,,,,,,,,,,,999,999,26,Female,1,2024/05/07_14:58:33,YZ,59.891572419901344,
,,,,,,practice,0,20,2,2583,6,C,0,right,0.3928291001357138,1,0,,,,,,,,,,,,,,,,,,,,,1,,,,,,,,,,,,,,,,,,,,,,,,,,,,,,,,,,,,,,,,,,999,999,26,Female,1,2024/05/07_14:58:33,YZ,59.891572419901344,
,,,,,,practice,0,20,2,2583,,,,,,,,0.6875,0.5,0.25,1.0,0.0,0.75,0.28159829997457564,1,1,0,0,0,4,5,2,4,0,,,,1,,,,,,,,,,,,,,,,,,,,,,,,,,,,,,,,,,,,,,,,,,999,999,26,Female,1,2024/05/07_14:58:33,YZ,59.891572419901344,
1,.\instructions\inst_redo_2\Slide1.png,right,0.738716899883002,14.505496600177139,15.244213500060141,,,,,,,,,,,,,,,,,,,,,,,,,,,,,,,,,1,,,,,,,,,,,,,,,,,,,,,,,,,,,,,,,,,,,,,,,,,,999,999,26,Female,1,2024/05/07_14:58:33,YZ,59.891572419901344,
,,,,,,practice,0,36,2,2583,1,X,0,right,0.2642055000178516,1,0,,,,,,,,,,,,,,,,,,,,,1,,,,,,,,,,,,,,,,,,,,,,,,,,,,,,,,,,,,,,,,,,999,999,26,Female,1,2024/05/07_14:58:33,YZ,59.891572419901344,
,,,,,,practice,0,36,2,2583,2,V,0,right,0.3873449000529945,1,0,,,,,,,,,,,,,,,,,,,,,1,,,,,,,,,,,,,,,,,,,,,,,,,,,,,,,,,,,,,,,,,,999,999,26,Female,1,2024/05/07_14:58:33,YZ,59.891572419901344,
,,,,,,practice,0,36,2,2583,3,X,1,left,0.5993857998400927,1,0,,,,,,,,,,,,,,,,,,,,,1,,,,,,,,,,,,,,,,,,,,,,,,,,,,,,,,,,,,,,,,,,999,999,26,Female,1,2024/05/07_14:58:33,YZ,59.891572419901344,
,,,,,,practice,0,36,2,2583,4,V,1,right,0.4965627999044955,0,0,,,,,,,,,,,,,,,,,,,,,1,,,,,,,,,,,,,,,,,,,,,,,,,,,,,,,,,,,,,,,,,,999,999,26,Female,1,2024/05/07_14:58:33,YZ,59.891572419901344,
,,,,,,practice,0,36,2,2583,5,N,0,right,0.3092919001355767,1,0,,,,,,,,,,,,,,,,,,,,,1,,,,,,,,,,,,,,,,,,,,,,,,,,,,,,,,,,,,,,,,,,999,999,26,Female,1,2024/05/07_14:58:33,YZ,59.891572419901344,
,,,,,,practice,0,36,2,2583,6,F,0,right,0.20822350028902292,1,0,,,,,,,,,,,,,,,,,,,,,1,,,,,,,,,,,,,,,,,,,,,,,,,,,,,,,,,,,,,,,,,,999,999,26,Female,1,2024/05/07_14:58:33,YZ,59.891572419901344,
,,,,,,practice,0,36,2,2583,,,,,,,,0.6875,0.5,0.25,1.0,0.0,0.75,0.3775024000400056,1,1,0,0,0,4,5,2,4,0,,,,1,,,,,,,,,,,,,,,,,,,,,,,,,,,,,,,,,,,,,,,,,,999,999,26,Female,1,2024/05/07_14:58:33,YZ,59.891572419901344,
1,.\instructions\inst_redo_2\Slide1.png,right,0.5321347997523844,24.79212040035054,25.324255200102925,,,,,,,,,,,,,,,,,,,,,,,,,,,,,,,,,1,,,,,,,,,,,,,,,,,,,,,,,,,,,,,,,,,,,,,,,,,,999,999,26,Female,1,2024/05/07_14:58:33,YZ,59.891572419901344,
,,,,,,practice,0,10,2,2583,1,Q,0,right,0.7953629996627569,1,0,,,,,,,,,,,,,,,,,,,,,1,,,,,,,,,,,,,,,,,,,,,,,,,,,,,,,,,,,,,,,,,,999,999,26,Female,1,2024/05/07_14:58:33,YZ,59.891572419901344,
,,,,,,practice,0,10,2,2583,2,C,0,right,0.44170779967680573,1,0,,,,,,,,,,,,,,,,,,,,,1,,,,,,,,,,,,,,,,,,,,,,,,,,,,,,,,,,,,,,,,,,999,999,26,Female,1,2024/05/07_14:58:33,YZ,59.891572419901344,
,,,,,,practice,0,10,2,2583,3,J,0,right,0.6741839000023901,1,0,,,,,,,,,,,,,,,,,,,,,1,,,,,,,,,,,,,,,,,,,,,,,,,,,,,,,,,,,,,,,,,,999,999,26,Female,1,2024/05/07_14:58:33,YZ,59.891572419901344,
,,,,,,practice,0,10,2,2583,4,C,1,left,0.44732119981199503,1,0,,,,,,,,,,,,,,,,,,,,,1,,,,,,,,,,,,,,,,,,,,,,,,,,,,,,,,,,,,,,,,,,999,999,26,Female,1,2024/05/07_14:58:33,YZ,59.891572419901344,
,,,,,,practice,0,10,2,2583,5,S,0,right,0.43686340004205704,1,0,,,,,,,,,,,,,,,,,,,,,1,,,,,,,,,,,,,,,,,,,,,,,,,,,,,,,,,,,,,,,,,,999,999,26,Female,1,2024/05/07_14:58:33,YZ,59.891572419901344,
,,,,,,practice,0,10,2,2583,6,C,1,left,0.4831254999153316,1,0,,,,,,,,,,,,,,,,,,,,,1,,,,,,,,,,,,,,,,,,,,,,,,,,,,,,,,,,,,,,,,,,999,999,26,Female,1,2024/05/07_14:58:33,YZ,59.891572419901344,
,,,,,,practice,0,10,2,2583,,,,,,,,1.0,1.0,0.0,1.0,0.0,1.0,0.5464274665185561,2,0,0,0,0,4,6,2,4,0,,,,1,,,,,,,,,,,,,,,,,,,,,,,,,,,,,,,,,,,,,,,,,,999,999,26,Female,1,2024/05/07_14:58:33,YZ,59.891572419901344,
1,.\instructions\inst_to_cali\Slide1.png,right,0.6699477001093328,35.3743431000039,36.04429080011323,,,,,,,,,,,,,,,,,,,,,,,,,,,,,,,,,1,,,,,,,,,,,,,,,,,,,,,,,,,,,,,,,,,,,,,,,,,,999,999,26,Female,1,2024/05/07_14:58:33,YZ,59.891572419901344,
1,.\instructions\inst_cali\Slide1.png,right,0.5199967003427446,36.09228520002216,36.612281900364906,,,,,,,,,,,,,,,,,,,,,,,,,,,,,,,,,1,,,,,,,,,,,,,,,,,,,,,,,,,,,,,,,,,,,,,,,,,,999,999,26,Female,1,2024/05/07_14:58:33,YZ,59.891572419901344,
,,,,,,calibration,0,11,2,583,1,S,0,right,0.6215395000763237,1,0,,,,,,,,,,,,,,,,,,,,,1,,,,,,,,,,,,,,,,,,,,,,,,,,,,,,,,,,,,,,,,,,999,999,26,Female,1,2024/05/07_14:58:33,YZ,59.891572419901344,
,,,,,,calibration,0,11,2,583,2,C,0,left,0.02866190019994974,0,0,,,,,,,,,,,,,,,,,,,,,1,,,,,,,,,,,,,,,,,,,,,,,,,,,,,,,,,,,,,,,,,,999,999,26,Female,1,2024/05/07_14:58:33,YZ,59.891572419901344,
,,,,,,calibration,0,11,2,583,3,N,0,right,0.04502630000934005,1,0,,,,,,,,,,,,,,,,,,,,,1,,,,,,,,,,,,,,,,,,,,,,,,,,,,,,,,,,,,,,,,,,999,999,26,Female,1,2024/05/07_14:58:33,YZ,59.891572419901344,
,,,,,,calibration,0,11,2,583,4,S,0,right,0.0,1,0,,,,,,,,,,,,,,,,,,,,,1,,,,,,,,,,,,,,,,,,,,,,,,,,,,,,,,,,,,,,,,,,999,999,26,Female,1,2024/05/07_14:58:33,YZ,59.891572419901344,
,,,,,,calibration,0,11,2,583,5,N,1,right,0.0,0,0,,,,,,,,,,,,,,,,,,,,,1,,,,,,,,,,,,,,,,,,,,,,,,,,,,,,,,,,,,,,,,,,999,999,26,Female,1,2024/05/07_14:58:33,YZ,59.891572419901344,
,,,,,,calibration,0,11,2,583,6,C,0,left,0.0,0,0,,,,,,,,,,,,,,,,,,,,,1,,,,,,,,,,,,,,,,,,,,,,,,,,,,,,,,,,,,,,,,,,999,999,26,Female,1,2024/05/07_14:58:33,YZ,59.891572419901344,
,,,,,,calibration,0,11,2,583,7,S,0,right,0.0,1,0,,,,,,,,,,,,,,,,,,,,,1,,,,,,,,,,,,,,,,,,,,,,,,,,,,,,,,,,,,,,,,,,999,999,26,Female,1,2024/05/07_14:58:33,YZ,59.891572419901344,
,,,,,,calibration,0,11,2,583,8,Q,0,left,0.0,0,0,,,,,,,,,,,,,,,,,,,,,1,,,,,,,,,,,,,,,,,,,,,,,,,,,,,,,,,,,,,,,,,,999,999,26,Female,1,2024/05/07_14:58:33,YZ,59.891572419901344,
,,,,,,calibration,0,11,2,583,9,X,0,right,0.0,1,0,,,,,,,,,,,,,,,,,,,,,1,,,,,,,,,,,,,,,,,,,,,,,,,,,,,,,,,,,,,,,,,,999,999,26,Female,1,2024/05/07_14:58:33,YZ,59.891572419901344,
,,,,,,calibration,0,11,2,583,10,J,0,left,0.0,0,0,,,,,,,,,,,,,,,,,,,,,1,,,,,,,,,,,,,,,,,,,,,,,,,,,,,,,,,,,,,,,,,,999,999,26,Female,1,2024/05/07_14:58:33,YZ,59.891572419901344,
,,,,,,calibration,0,11,2,583,11,X,1,left,0.0,1,0,,,,,,,,,,,,,,,,,,,,,1,,,,,,,,,,,,,,,,,,,,,,,,,,,,,,,,,,,,,,,,,,999,999,26,Female,1,2024/05/07_14:58:33,YZ,59.891572419901344,
,,,,,,calibration,0,11,2,583,12,Q,0,left,0.0,0,0,,,,,,,,,,,,,,,,,,,,,1,,,,,,,,,,,,,,,,,,,,,,,,,,,,,,,,,,,,,,,,,,999,999,26,Female,1,2024/05/07_14:58:33,YZ,59.891572419901344,
,,,,,,calibration,0,11,2,583,13,X,1,left,0.04513250011950731,1,0,,,,,,,,,,,,,,,,,,,,,1,,,,,,,,,,,,,,,,,,,,,,,,,,,,,,,,,,,,,,,,,,999,999,26,Female,1,2024/05/07_14:58:33,YZ,59.891572419901344,
,,,,,,calibration,0,11,2,583,14,Q,1,left,0.0,1,0,,,,,,,,,,,,,,,,,,,,,1,,,,,,,,,,,,,,,,,,,,,,,,,,,,,,,,,,,,,,,,,,999,999,26,Female,1,2024/05/07_14:58:33,YZ,59.891572419901344,
,,,,,,calibration,0,11,2,583,15,F,0,right,0.03443339979276061,1,0,,,,,,,,,,,,,,,,,,,,,1,,,,,,,,,,,,,,,,,,,,,,,,,,,,,,,,,,,,,,,,,,999,999,26,Female,1,2024/05/07_14:58:33,YZ,59.891572419901344,
,,,,,,calibration,0,11,2,583,,,,,,,,0.8920454545454546,0.75,0.09090909090909091,0.5454545454545454,0.0,0.9090909090909091,0.051652906679858765,3,1,0,0,0,6,9,4,11,0,,,,1,,,,,,,,,,,,,,,,,,,,,,,,,,,,,,,,,,,,,,,,,,999,999,26,Female,1,2024/05/07_14:58:33,YZ,59.891572419901344,
,,,,,,Calibration,0,,2,583,,,,,,,,,,,,,,,,,,,,,,,,,1,,,1,,,,,,,,,,,,,,,,,,,,,,,,,,,,,,,,,,,,,,,,,,999,999,26,Female,1,2024/05/07_14:58:33,YZ,59.891572419901344,
,,,,,,CALIBRATION,0,,,,,,,,,,,,,,,,,,,,,,,,,,,,1,0.8920454545454546,583,1,,,,,,,,,,,,,,,,,,,,,,,,,,,,,,,,,,,,,,,,,,999,999,26,Female,1,2024/05/07_14:58:33,YZ,59.891572419901344,
1,.\instructions\inst_prac_1\Slide1.png,right,1.0762218995951116,48.392132700420916,49.46835460001603,,,,,,,,,,,,,,,,,,,,,,,,,,,,,,,,,1,,,,,,,,,,,,,,,,,,,,,,,,,,,,,,,,,,,,,,,,,,999,999,26,Female,1,2024/05/07_14:58:33,YZ,59.891572419901344,
2,.\instructions\inst_prac_1\Slide2.png,right,2.826564199756831,49.50577810034156,52.33234230009839,,,,,,,,,,,,,,,,,,,,,,,,,,,,,,,,,1,,,,,,,,,,,,,,,,,,,,,,,,,,,,,,,,,,,,,,,,,,999,999,26,Female,1,2024/05/07_14:58:33,YZ,59.891572419901344,
3,.\instructions\inst_prac_1\Slide3.png,right,1.2483970997855067,52.36393970018253,53.612336799968034,,,,,,,,,,,,,,,,,,,,,,,,,,,,,,,,,1,,,,,,,,,,,,,,,,,,,,,,,,,,,,,,,,,,,,,,,,,,999,999,26,Female,1,2024/05/07_14:58:33,YZ,59.891572419901344,
4,.\instructions\inst_prac_1\Slide4.png,right,1.1927384999580681,53.64359030034393,54.836328800302,,,,,,,,,,,,,,,,,,,,,,,,,,,,,,,,,1,,,,,,,,,,,,,,,,,,,,,,,,,,,,,,,,,,,,,,,,,,999,999,26,Female,1,2024/05/07_14:58:33,YZ,59.891572419901344,
5,.\instructions\inst_prac_1\Slide5.png,right,1.392546999733895,54.8678034003824,56.260350400116295,,,,,,,,,,,,,,,,,,,,,,,,,,,,,,,,,1,,,,,,,,,,,,,,,,,,,,,,,,,,,,,,,,,,,,,,,,,,999,999,26,Female,1,2024/05/07_14:58:33,YZ,59.891572419901344,
6,.\instructions\inst_prac_1\Slide6.png,right,0.22471059998497367,56.29161290032789,56.516323500312865,,,,,,,,,,,,,,,,,,,,,,,,,,,,,,,,,1,,,,,,,,,,,,,,,,,,,,,,,,,,,,,,,,,,,,,,,,,,999,999,26,Female,1,2024/05/07_14:58:33,YZ,59.891572419901344,
7,.\instructions\inst_prac_1\Slide7.png,right,0.35134229995310307,56.548996000085026,56.90033830003813,,,,,,,,,,,,,,,,,,,,,,,,,,,,,,,,,1,,,,,,,,,,,,,,,,,,,,,,,,,,,,,,,,,,,,,,,,,,999,999,26,Female,1,2024/05/07_14:58:33,YZ,59.891572419901344,
,,,,,,practice,0,14,1,1250,1,N,0,right,0.4129627998918295,1,0,,,,,,,,,,,,,,,,,,,,,1,,,,,,,,,,,,,,,,,,,,,,,,,,,,,,,,,,,,,,,,,,999,999,26,Female,1,2024/05/07_14:58:33,YZ,59.891572419901344,
,,,,,,practice,0,14,1,1250,2,F,0,right,0.0022009997628629208,1,0,,,,,,,,,,,,,,,,,,,,,1,,,,,,,,,,,,,,,,,,,,,,,,,,,,,,,,,,,,,,,,,,999,999,26,Female,1,2024/05/07_14:58:33,YZ,59.891572419901344,
,,,,,,practice,0,14,1,1250,3,Q,0,right,0.11150550004094839,1,0,,,,,,,,,,,,,,,,,,,,,1,,,,,,,,,,,,,,,,,,,,,,,,,,,,,,,,,,,,,,,,,,999,999,26,Female,1,2024/05/07_14:58:33,YZ,59.891572419901344,
,,,,,,practice,0,14,1,1250,4,Q,1,right,0.0,0,0,,,,,,,,,,,,,,,,,,,,,1,,,,,,,,,,,,,,,,,,,,,,,,,,,,,,,,,,,,,,,,,,999,999,26,Female,1,2024/05/07_14:58:33,YZ,59.891572419901344,
,,,,,,practice,0,14,1,1250,5,C,0,left,0.0,0,0,,,,,,,,,,,,,,,,,,,,,1,,,,,,,,,,,,,,,,,,,,,,,,,,,,,,,,,,,,,,,,,,999,999,26,Female,1,2024/05/07_14:58:33,YZ,59.891572419901344,
,,,,,,practice,0,14,1,1250,6,N,0,right,0.3605235000140965,1,0,,,,,,,,,,,,,,,,,,,,,1,,,,,,,,,,,,,,,,,,,,,,,,,,,,,,,,,,,,,,,,,,999,999,26,Female,1,2024/05/07_14:58:33,YZ,59.891572419901344,
,,,,,,practice,0,14,1,1250,7,J,0,right,0.386771900113672,1,0,,,,,,,,,,,,,,,,,,,,,1,,,,,,,,,,,,,,,,,,,,,,,,,,,,,,,,,,,,,,,,,,999,999,26,Female,1,2024/05/07_14:58:33,YZ,59.891572419901344,
,,,,,,practice,0,14,1,1250,8,J,1,left,0.41255690017715096,1,0,,,,,,,,,,,,,,,,,,,,,1,,,,,,,,,,,,,,,,,,,,,,,,,,,,,,,,,,,,,,,,,,999,999,26,Female,1,2024/05/07_14:58:33,YZ,59.891572419901344,
,,,,,,practice,0,14,1,1250,9,C,0,right,0.3948399000801146,1,0,,,,,,,,,,,,,,,,,,,,,1,,,,,,,,,,,,,,,,,,,,,,,,,,,,,,,,,,,,,,,,,,999,999,26,Female,1,2024/05/07_14:58:33,YZ,59.891572419901344,
,,,,,,practice,0,14,1,1250,10,C,1,left,0.4151095002889633,1,0,,,,,,,,,,,,,,,,,,,,,1,,,,,,,,,,,,,,,,,,,,,,,,,,,,,,,,,,,,,,,,,,999,999,26,Female,1,2024/05/07_14:58:33,YZ,59.891572419901344,
,,,,,,practice,0,14,1,1250,,,,,,,,0.8333333333333333,0.6666666666666666,0.14285714285714285,0.8571428571428571,0.0,0.8571428571428572,0.24964710003696383,2,1,0,0,0,6,8,3,7,0,,,,1,,,,,,,,,,,,,,,,,,,,,,,,,,,,,,,,,,,,,,,,,,999,999,26,Female,1,2024/05/07_14:58:33,YZ,59.891572419901344,
1,.\instructions\inst_prac_1_next\Slide1.png,right,0.6375710000284016,69.9428457999602,70.5804167999886,,,,,,,,,,,,,,,,,,,,,,,,,,,,,,,,,1,,,,,,,,,,,,,,,,,,,,,,,,,,,,,,,,,,,,,,,,,,999,999,26,Female,1,2024/05/07_14:58:33,YZ,59.891572419901344,
,,,,,,practice,0,30,1,583,1,F,0,left,0.07399439997971058,0,0,,,,,,,,,,,,,,,,,,,,,1,,,,,,,,,,,,,,,,,,,,,,,,,,,,,,,,,,,,,,,,,,999,999,26,Female,1,2024/05/07_14:58:33,YZ,59.891572419901344,
,,,,,,practice,0,30,1,583,2,F,1,left,0.22985329991206527,1,0,,,,,,,,,,,,,,,,,,,,,1,,,,,,,,,,,,,,,,,,,,,,,,,,,,,,,,,,,,,,,,,,999,999,26,Female,1,2024/05/07_14:58:33,YZ,59.891572419901344,
,,,,,,practice,0,30,1,583,3,J,0,right,0.0,1,0,,,,,,,,,,,,,,,,,,,,,1,,,,,,,,,,,,,,,,,,,,,,,,,,,,,,,,,,,,,,,,,,999,999,26,Female,1,2024/05/07_14:58:33,YZ,59.891572419901344,
,,,,,,practice,0,30,1,583,4,C,0,left,0.01195929991081357,0,0,,,,,,,,,,,,,,,,,,,,,1,,,,,,,,,,,,,,,,,,,,,,,,,,,,,,,,,,,,,,,,,,999,999,26,Female,1,2024/05/07_14:58:33,YZ,59.891572419901344,
,,,,,,practice,0,30,1,583,5,N,0,left,0.0,0,0,,,,,,,,,,,,,,,,,,,,,1,,,,,,,,,,,,,,,,,,,,,,,,,,,,,,,,,,,,,,,,,,999,999,26,Female,1,2024/05/07_14:58:33,YZ,59.891572419901344,
,,,,,,practice,0,30,1,583,6,Q,0,left,0.0,0,0,,,,,,,,,,,,,,,,,,,,,1,,,,,,,,,,,,,,,,,,,,,,,,,,,,,,,,,,,,,,,,,,999,999,26,Female,1,2024/05/07_14:58:33,YZ,59.891572419901344,
,,,,,,practice,0,30,1,583,7,S,0,right,0.0,1,0,,,,,,,,,,,,,,,,,,,,,1,,,,,,,,,,,,,,,,,,,,,,,,,,,,,,,,,,,,,,,,,,999,999,26,Female,1,2024/05/07_14:58:33,YZ,59.891572419901344,
,,,,,,practice,0,30,1,583,8,S,1,right,0.0,0,0,,,,,,,,,,,,,,,,,,,,,1,,,,,,,,,,,,,,,,,,,,,,,,,,,,,,,,,,,,,,,,,,999,999,26,Female,1,2024/05/07_14:58:33,YZ,59.891572419901344,
,,,,,,practice,0,30,1,583,9,V,0,right,0.0,1,0,,,,,,,,,,,,,,,,,,,,,1,,,,,,,,,,,,,,,,,,,,,,,,,,,,,,,,,,,,,,,,,,999,999,26,Female,1,2024/05/07_14:58:33,YZ,59.891572419901344,
,,,,,,practice,0,30,1,583,10,V,1,right,0.06210719980299473,0,0,,,,,,,,,,,,,,,,,,,,,1,,,,,,,,,,,,,,,,,,,,,,,,,,,,,,,,,,,,,,,,,,999,999,26,Female,1,2024/05/07_14:58:33,YZ,59.891572419901344,
,,,,,,practice,0,30,1,583,11,S,0,left,0.0,0,0,,,,,,,,,,,,,,,,,,,,,1,,,,,,,,,,,,,,,,,,,,,,,,,,,,,,,,,,,,,,,,,,999,999,26,Female,1,2024/05/07_14:58:33,YZ,59.891572419901344,
,,,,,,practice,0,30,1,583,12,F,0,left,0.0,0,0,,,,,,,,,,,,,,,,,,,,,1,,,,,,,,,,,,,,,,,,,,,,,,,,,,,,,,,,,,,,,,,,999,999,26,Female,1,2024/05/07_14:58:33,YZ,59.891572419901344,
,,,,,,practice,0,30,1,583,13,S,0,left,0.0,0,0,,,,,,,,,,,,,,,,,,,,,1,,,,,,,,,,,,,,,,,,,,,,,,,,,,,,,,,,,,,,,,,,999,999,26,Female,1,2024/05/07_14:58:33,YZ,59.891572419901344,
,,,,,,practice,0,30,1,583,14,S,1,right,0.0,0,0,,,,,,,,,,,,,,,,,,,,,1,,,,,,,,,,,,,,,,,,,,,,,,,,,,,,,,,,,,,,,,,,999,999,26,Female,1,2024/05/07_14:58:33,YZ,59.891572419901344,
,,,,,,practice,0,30,1,583,15,F,0,right,0.45588159980252385,1,0,,,,,,,,,,,,,,,,,,,,,1,,,,,,,,,,,,,,,,,,,,,,,,,,,,,,,,,,,,,,,,,,999,999,26,Female,1,2024/05/07_14:58:33,YZ,59.891572419901344,
,,,,,,practice,0,30,1,583,,,,,,,,0.015151515151515138,0.25,0.2727272727272727,0.36363636363636365,0.0,0.7272727272727273,0.0555863866272072,1,3,0,0,0,4,5,4,11,0,,,,1,,,,,,,,,,,,,,,,,,,,,,,,,,,,,,,,,,,,,,,,,,999,999,26,Female,1,2024/05/07_14:58:33,YZ,59.891572419901344,
,,,,,,practice,0,32,1,583,1,F,0,right,0.566915599629283,1,0,,,,,,,,,,,,,,,,,,,,,1,,,,,,,,,,,,,,,,,,,,,,,,,,,,,,,,,,,,,,,,,,999,999,26,Female,1,2024/05/07_14:58:33,YZ,59.891572419901344,
,,,,,,practice,0,32,1,583,2,Q,0,right,0.49677260033786297,1,0,,,,,,,,,,,,,,,,,,,,,1,,,,,,,,,,,,,,,,,,,,,,,,,,,,,,,,,,,,,,,,,,999,999,26,Female,1,2024/05/07_14:58:33,YZ,59.891572419901344,
,,,,,,practice,0,32,1,583,3,Q,1,left,0.39059239998459816,1,0,,,,,,,,,,,,,,,,,,,,,1,,,,,,,,,,,,,,,,,,,,,,,,,,,,,,,,,,,,,,,,,,999,999,26,Female,1,2024/05/07_14:58:33,YZ,59.891572419901344,
,,,,,,practice,0,32,1,583,4,F,0,right,0.24495110008865595,1,0,,,,,,,,,,,,,,,,,,,,,1,,,,,,,,,,,,,,,,,,,,,,,,,,,,,,,,,,,,,,,,,,999,999,26,Female,1,2024/05/07_14:58:33,YZ,59.891572419901344,
,,,,,,practice,0,32,1,583,5,J,0,right,0.30841049971058965,1,0,,,,,,,,,,,,,,,,,,,,,1,,,,,,,,,,,,,,,,,,,,,,,,,,,,,,,,,,,,,,,,,,999,999,26,Female,1,2024/05/07_14:58:33,YZ,59.891572419901344,
,,,,,,practice,0,32,1,583,6,X,0,right,0.3249488999135792,1,0,,,,,,,,,,,,,,,,,,,,,1,,,,,,,,,,,,,,,,,,,,,,,,,,,,,,,,,,,,,,,,,,999,999,26,Female,1,2024/05/07_14:58:33,YZ,59.891572419901344,
,,,,,,practice,0,32,1,583,7,X,1,left,0.27553969994187355,1,0,,,,,,,,,,,,,,,,,,,,,1,,,,,,,,,,,,,,,,,,,,,,,,,,,,,,,,,,,,,,,,,,999,999,26,Female,1,2024/05/07_14:58:33,YZ,59.891572419901344,
,,,,,,practice,0,32,1,583,8,V,0,right,0.1643221997655928,1,0,,,,,,,,,,,,,,,,,,,,,1,,,,,,,,,,,,,,,,,,,,,,,,,,,,,,,,,,,,,,,,,,999,999,26,Female,1,2024/05/07_14:58:33,YZ,59.891572419901344,
,,,,,,practice,0,32,1,583,9,V,1,left,0.28984500002115965,1,0,,,,,,,,,,,,,,,,,,,,,1,,,,,,,,,,,,,,,,,,,,,,,,,,,,,,,,,,,,,,,,,,999,999,26,Female,1,2024/05/07_14:58:33,YZ,59.891572419901344,
,,,,,,practice,0,32,1,583,10,F,0,right,0.11343749985098839,1,0,,,,,,,,,,,,,,,,,,,,,1,,,,,,,,,,,,,,,,,,,,,,,,,,,,,,,,,,,,,,,,,,999,999,26,Female,1,2024/05/07_14:58:33,YZ,59.891572419901344,
,,,,,,practice,0,32,1,583,11,V,0,right,0.4430501996539533,1,0,,,,,,,,,,,,,,,,,,,,,1,,,,,,,,,,,,,,,,,,,,,,,,,,,,,,,,,,,,,,,,,,999,999,26,Female,1,2024/05/07_14:58:33,YZ,59.891572419901344,
,,,,,,practice,0,32,1,583,12,C,0,right,0.3196888999082148,1,0,,,,,,,,,,,,,,,,,,,,,1,,,,,,,,,,,,,,,,,,,,,,,,,,,,,,,,,,,,,,,,,,999,999,26,Female,1,2024/05/07_14:58:33,YZ,59.891572419901344,
,,,,,,practice,0,32,1,583,13,C,1,left,0.33731549978256226,1,0,,,,,,,,,,,,,,,,,,,,,1,,,,,,,,,,,,,,,,,,,,,,,,,,,,,,,,,,,,,,,,,,999,999,26,Female,1,2024/05/07_14:58:33,YZ,59.891572419901344,
,,,,,,practice,0,32,1,583,14,Q,0,right,0.1794555000960827,1,0,,,,,,,,,,,,,,,,,,,,,1,,,,,,,,,,,,,,,,,,,,,,,,,,,,,,,,,,,,,,,,,,999,999,26,Female,1,2024/05/07_14:58:33,YZ,59.891572419901344,
,,,,,,practice,0,32,1,583,15,Q,1,left,0.37715830001980066,1,0,,,,,,,,,,,,,,,,,,,,,1,,,,,,,,,,,,,,,,,,,,,,,,,,,,,,,,,,,,,,,,,,999,999,26,Female,1,2024/05/07_14:58:33,YZ,59.891572419901344,
,,,,,,practice,0,32,1,583,,,,,,,,1.0,1.0,0.0,1.0,0.0,1.0,0.32216025991365316,5,0,0,0,0,10,15,5,10,0,,,,1,,,,,,,,,,,,,,,,,,,,,,,,,,,,,,,,,,,,,,,,,,999,999,26,Female,1,2024/05/07_14:58:33,YZ,59.891572419901344,
1,.\instructions\inst_prac_3\Slide1.png,right,0.8044437998905778,93.11206120019779,93.91650500008836,,,,,,,,,,,,,,,,,,,,,,,,,,,,,,,,,1,,,,,,,,,,,,,,,,,,,,,,,,,,,,,,,,,,,,,,,,,,999,999,26,Female,1,2024/05/07_14:58:33,YZ,59.891572419901344,
2,.\instructions\inst_prac_3\Slide2.png,right,0.4764049001969397,93.95238960022107,94.42879450041801,,,,,,,,,,,,,,,,,,,,,,,,,,,,,,,,,1,,,,,,,,,,,,,,,,,,,,,,,,,,,,,,,,,,,,,,,,,,999,999,26,Female,1,2024/05/07_14:58:33,YZ,59.891572419901344,
3,.\instructions\inst_prac_3\Slide3.png,right,0.20010979985818267,94.4625026001595,94.66261240001768,,,,,,,,,,,,,,,,,,,,,,,,,,,,,,,,,1,,,,,,,,,,,,,,,,,,,,,,,,,,,,,,,,,,,,,,,,,,999,999,26,Female,1,2024/05/07_14:58:33,YZ,59.891572419901344,
4,.\instructions\inst_prac_3\Slide4.png,right,0.20012989966198802,94.69476560037583,94.89489550003782,,,,,,,,,,,,,,,,,,,,,,,,,,,,,,,,,1,,,,,,,,,,,,,,,,,,,,,,,,,,,,,,,,,,,,,,,,,,999,999,26,Female,1,2024/05/07_14:58:33,YZ,59.891572419901344,
5,.\instructions\inst_prac_3\Slide5.png,right,0.31757899979129434,94.92684920039028,95.24442820018157,,,,,,,,,,,,,,,,,,,,,,,,,,,,,,,,,1,,,,,,,,,,,,,,,,,,,,,,,,,,,,,,,,,,,,,,,,,,999,999,26,Female,1,2024/05/07_14:58:33,YZ,59.891572419901344,
6,.\instructions\inst_prac_3\Slide6.png,right,2.6232826998457313,95.27719780011103,97.90048049995676,,,,,,,,,,,,,,,,,,,,,,,,,,,,,,,,,1,,,,,,,,,,,,,,,,,,,,,,,,,,,,,,,,,,,,,,,,,,999,999,26,Female,1,2024/05/07_14:58:33,YZ,59.891572419901344,
7,.\instructions\inst_prac_3\Slide7.png,right,1.8004324003122747,97.93207109998912,99.73250350030139,,,,,,,,,,,,,,,,,,,,,,,,,,,,,,,,,1,,,,,,,,,,,,,,,,,,,,,,,,,,,,,,,,,,,,,,,,,,999,999,26,Female,1,2024/05/07_14:58:33,YZ,59.891572419901344,
8,.\instructions\inst_prac_3\Slide8.png,right,1.7122119995765388,99.7643191004172,101.47653109999374,,,,,,,,,,,,,,,,,,,,,,,,,,,,,,,,,1,,,,,,,,,,,,,,,,,,,,,,,,,,,,,,,,,,,,,,,,,,999,999,26,Female,1,2024/05/07_14:58:33,YZ,59.891572419901344,
,,,,,,practice,0,17,3,788,1,Q,0,right,0.6103008002974093,1,0,,,,,,,,,,,,,,,,,,,,,1,,,,,,,,,,,,,,,,,,,,,,,,,,,,,,,,,,,,,,,,,,999,999,26,Female,1,2024/05/07_14:58:33,YZ,59.891572419901344,
,,,,,,practice,0,17,3,788,2,N,0,right,0.04395549977198243,1,0,,,,,,,,,,,,,,,,,,,,,1,,,,,,,,,,,,,,,,,,,,,,,,,,,,,,,,,,,,,,,,,,999,999,26,Female,1,2024/05/07_14:58:33,YZ,59.891572419901344,
,,,,,,practice,0,17,3,788,3,X,0,right,0.0,1,0,,,,,,,,,,,,,,,,,,,,,1,,,,,,,,,,,,,,,,,,,,,,,,,,,,,,,,,,,,,,,,,,999,999,26,Female,1,2024/05/07_14:58:33,YZ,59.891572419901344,
,,,,,,practice,0,17,3,788,4,Q,1,left,0.0,1,0,,,,,,,,,,,,,,,,,,,,,1,,,,,,,,,,,,,,,,,,,,,,,,,,,,,,,,,,,,,,,,,,999,999,26,Female,1,2024/05/07_14:58:33,YZ,59.891572419901344,
,,,,,,practice,0,17,3,788,5,S,0,right,0.014345299918204546,1,0,,,,,,,,,,,,,,,,,,,,,1,,,,,,,,,,,,,,,,,,,,,,,,,,,,,,,,,,,,,,,,,,999,999,26,Female,1,2024/05/07_14:58:33,YZ,59.891572419901344,
,,,,,,practice,0,17,3,788,6,V,0,right,0.6042055999860168,1,0,,,,,,,,,,,,,,,,,,,,,1,,,,,,,,,,,,,,,,,,,,,,,,,,,,,,,,,,,,,,,,,,999,999,26,Female,1,2024/05/07_14:58:33,YZ,59.891572419901344,
,,,,,,practice,0,17,3,788,7,Q,1,left,0.46135969972237945,1,0,,,,,,,,,,,,,,,,,,,,,1,,,,,,,,,,,,,,,,,,,,,,,,,,,,,,,,,,,,,,,,,,999,999,26,Female,1,2024/05/07_14:58:33,YZ,59.891572419901344,
,,,,,,practice,0,17,3,788,8,C,0,right,0.3973241997882724,1,0,,,,,,,,,,,,,,,,,,,,,1,,,,,,,,,,,,,,,,,,,,,,,,,,,,,,,,,,,,,,,,,,999,999,26,Female,1,2024/05/07_14:58:33,YZ,59.891572419901344,
,,,,,,practice,0,17,3,788,9,V,1,left,0.34703930001705885,1,0,,,,,,,,,,,,,,,,,,,,,1,,,,,,,,,,,,,,,,,,,,,,,,,,,,,,,,,,,,,,,,,,999,999,26,Female,1,2024/05/07_14:58:33,YZ,59.891572419901344,
,,,,,,practice,0,17,3,788,10,X,0,right,0.35037400014698505,1,0,,,,,,,,,,,,,,,,,,,,,1,,,,,,,,,,,,,,,,,,,,,,,,,,,,,,,,,,,,,,,,,,999,999,26,Female,1,2024/05/07_14:58:33,YZ,59.891572419901344,
,,,,,,practice,0,17,3,788,11,Q,0,right,0.5402267999015749,1,0,,,,,,,,,,,,,,,,,,,,,1,,,,,,,,,,,,,,,,,,,,,,,,,,,,,,,,,,,,,,,,,,999,999,26,Female,1,2024/05/07_14:58:33,YZ,59.891572419901344,
,,,,,,practice,0,17,3,788,12,N,0,right,0.41741190012544394,1,0,,,,,,,,,,,,,,,,,,,,,1,,,,,,,,,,,,,,,,,,,,,,,,,,,,,,,,,,,,,,,,,,999,999,26,Female,1,2024/05/07_14:58:33,YZ,59.891572419901344,
,,,,,,practice,0,17,3,788,13,X,1,left,0.6233899998478591,1,0,,,,,,,,,,,,,,,,,,,,,1,,,,,,,,,,,,,,,,,,,,,,,,,,,,,,,,,,,,,,,,,,999,999,26,Female,1,2024/05/07_14:58:33,YZ,59.891572419901344,
,,,,,,practice,0,17,3,788,,,,,,,,1.0,1.0,0.0,1.0,0.0,1.0,0.3392256230402451,4,0,0,0,0,9,13,4,9,0,,,,1,,,,,,,,,,,,,,,,,,,,,,,,,,,,,,,,,,,,,,,,,,999,999,26,Female,1,2024/05/07_14:58:33,YZ,59.891572419901344,
1,.\instructions\inst_prac_3_next\Slide1.png,right,0.6026121000759304,118.33794540027156,118.9405575003475,,,,,,,,,,,,,,,,,,,,,,,,,,,,,,,,,1,,,,,,,,,,,,,,,,,,,,,,,,,,,,,,,,,,,,,,,,,,999,999,26,Female,1,2024/05/07_14:58:33,YZ,59.891572419901344,
,,,,,,practice,0,17,3,583,1,S,0,left,0.09191829990595579,0,0,,,,,,,,,,,,,,,,,,,,,1,,,,,,,,,,,,,,,,,,,,,,,,,,,,,,,,,,,,,,,,,,999,999,26,Female,1,2024/05/07_14:58:33,YZ,59.891572419901344,
,,,,,,practice,0,17,3,583,2,Q,0,left,0.04851730028167367,0,0,,,,,,,,,,,,,,,,,,,,,1,,,,,,,,,,,,,,,,,,,,,,,,,,,,,,,,,,,,,,,,,,999,999,26,Female,1,2024/05/07_14:58:33,YZ,59.891572419901344,
,,,,,,practice,0,17,3,583,3,X,0,left,0.0,0,0,,,,,,,,,,,,,,,,,,,,,1,,,,,,,,,,,,,,,,,,,,,,,,,,,,,,,,,,,,,,,,,,999,999,26,Female,1,2024/05/07_14:58:33,YZ,59.891572419901344,
,,,,,,practice,0,17,3,583,4,X,0,left,0.0,0,0,,,,,,,,,,,,,,,,,,,,,1,,,,,,,,,,,,,,,,,,,,,,,,,,,,,,,,,,,,,,,,,,999,999,26,Female,1,2024/05/07_14:58:33,YZ,59.891572419901344,
,,,,,,practice,0,17,3,583,5,Q,1,left,0.0,1,0,,,,,,,,,,,,,,,,,,,,,1,,,,,,,,,,,,,,,,,,,,,,,,,,,,,,,,,,,,,,,,,,999,999,26,Female,1,2024/05/07_14:58:33,YZ,59.891572419901344,
,,,,,,practice,0,17,3,583,6,Q,0,right,0.0466542998328805,1,0,,,,,,,,,,,,,,,,,,,,,1,,,,,,,,,,,,,,,,,,,,,,,,,,,,,,,,,,,,,,,,,,999,999,26,Female,1,2024/05/07_14:58:33,YZ,59.891572419901344,
,,,,,,practice,0,17,3,583,7,X,1,right,0.0,0,0,,,,,,,,,,,,,,,,,,,,,1,,,,,,,,,,,,,,,,,,,,,,,,,,,,,,,,,,,,,,,,,,999,999,26,Female,1,2024/05/07_14:58:33,YZ,59.891572419901344,
,,,,,,practice,0,17,3,583,8,S,0,left,0.07541569974273443,0,0,,,,,,,,,,,,,,,,,,,,,1,,,,,,,,,,,,,,,,,,,,,,,,,,,,,,,,,,,,,,,,,,999,999,26,Female,1,2024/05/07_14:58:33,YZ,59.891572419901344,
,,,,,,practice,0,17,3,583,9,Q,1,left,0.03688309993594885,1,0,,,,,,,,,,,,,,,,,,,,,1,,,,,,,,,,,,,,,,,,,,,,,,,,,,,,,,,,,,,,,,,,999,999,26,Female,1,2024/05/07_14:58:33,YZ,59.891572419901344,
,,,,,,practice,0,17,3,583,10,S,0,right,0.454789400100708,1,0,,,,,,,,,,,,,,,,,,,,,1,,,,,,,,,,,,,,,,,,,,,,,,,,,,,,,,,,,,,,,,,,999,999,26,Female,1,2024/05/07_14:58:33,YZ,59.891572419901344,
,,,,,,practice,0,17,3,583,11,J,0,left,0.0,0,0,,,,,,,,,,,,,,,,,,,,,1,,,,,,,,,,,,,,,,,,,,,,,,,,,,,,,,,,,,,,,,,,999,999,26,Female,1,2024/05/07_14:58:33,YZ,59.891572419901344,
,,,,,,practice,0,17,3,583,12,F,0,right,0.46140760043635964,1,0,,,,,,,,,,,,,,,,,,,,,1,,,,,,,,,,,,,,,,,,,,,,,,,,,,,,,,,,,,,,,,,,999,999,26,Female,1,2024/05/07_14:58:33,YZ,59.891572419901344,
,,,,,,practice,0,17,3,583,13,N,0,left,0.0,0,0,,,,,,,,,,,,,,,,,,,,,1,,,,,,,,,,,,,,,,,,,,,,,,,,,,,,,,,,,,,,,,,,999,999,26,Female,1,2024/05/07_14:58:33,YZ,59.891572419901344,
,,,,,,practice,0,17,3,583,14,C,0,right,0.0,1,0,,,,,,,,,,,,,,,,,,,,,1,,,,,,,,,,,,,,,,,,,,,,,,,,,,,,,,,,,,,,,,,,999,999,26,Female,1,2024/05/07_14:58:33,YZ,59.891572419901344,
,,,,,,practice,0,17,3,583,15,F,1,right,0.0,0,0,,,,,,,,,,,,,,,,,,,,,1,,,,,,,,,,,,,,,,,,,,,,,,,,,,,,,,,,,,,,,,,,999,999,26,Female,1,2024/05/07_14:58:33,YZ,59.891572419901344,
,,,,,,practice,0,17,3,583,,,,,,,,0.7386363636363636,0.5,0.18181818181818182,0.36363636363636365,0.0,0.8181818181818181,0.08103904668241739,2,2,0,0,0,4,6,4,11,0,,,,1,,,,,,,,,,,,,,,,,,,,,,,,,,,,,,,,,,,,,,,,,,999,999,26,Female,1,2024/05/07_14:58:33,YZ,59.891572419901344,
,,,,,,practice,0,3,3,583,1,N,0,right,9.36641539959237,1,0,,,,,,,,,,,,,,,,,,,,,1,,,,,,,,,,,,,,,,,,,,,,,,,,,,,,,,,,,,,,,,,,999,999,26,Female,1,2024/05/07_14:58:33,YZ,59.891572419901344,
,,,,,,practice,0,3,3,583,2,X,0,right,0.04891349980607629,1,0,,,,,,,,,,,,,,,,,,,,,1,,,,,,,,,,,,,,,,,,,,,,,,,,,,,,,,,,,,,,,,,,999,999,26,Female,1,2024/05/07_14:58:33,YZ,59.891572419901344,
,,,,,,practice,0,3,3,583,3,F,0,right,0.7075800001621246,1,0,,,,,,,,,,,,,,,,,,,,,1,,,,,,,,,,,,,,,,,,,,,,,,,,,,,,,,,,,,,,,,,,999,999,26,Female,1,2024/05/07_14:58:33,YZ,59.891572419901344,
,,,,,,practice,0,3,3,583,4,N,1,left,0.44616040028631687,1,0,,,,,,,,,,,,,,,,,,,,,1,,,,,,,,,,,,,,,,,,,,,,,,,,,,,,,,,,,,,,,,,,999,999,26,Female,1,2024/05/07_14:58:33,YZ,59.891572419901344,
,,,,,,practice,0,3,3,583,5,S,0,right,0.2736165998503566,1,0,,,,,,,,,,,,,,,,,,,,,1,,,,,,,,,,,,,,,,,,,,,,,,,,,,,,,,,,,,,,,,,,999,999,26,Female,1,2024/05/07_14:58:33,YZ,59.891572419901344,
,,,,,,practice,0,3,3,583,6,F,1,right,0.706543100066483,0,0,,,,,,,,,,,,,,,,,,,,,1,,,,,,,,,,,,,,,,,,,,,,,,,,,,,,,,,,,,,,,,,,999,999,26,Female,1,2024/05/07_14:58:33,YZ,59.891572419901344,
,,,,,,practice,0,3,3,583,7,F,0,left,0.4174620001576841,0,0,,,,,,,,,,,,,,,,,,,,,1,,,,,,,,,,,,,,,,,,,,,,,,,,,,,,,,,,,,,,,,,,999,999,26,Female,1,2024/05/07_14:58:33,YZ,59.891572419901344,
,,,,,,practice,0,3,3,583,8,X,0,right,0.21253219991922379,1,0,,,,,,,,,,,,,,,,,,,,,1,,,,,,,,,,,,,,,,,,,,,,,,,,,,,,,,,,,,,,,,,,999,999,26,Female,1,2024/05/07_14:58:33,YZ,59.891572419901344,
,,,,,,practice,0,3,3,583,9,F,1,right,0.25037149991840124,0,0,,,,,,,,,,,,,,,,,,,,,1,,,,,,,,,,,,,,,,,,,,,,,,,,,,,,,,,,,,,,,,,,999,999,26,Female,1,2024/05/07_14:58:33,YZ,59.891572419901344,
,,,,,,practice,0,3,3,583,10,V,0,right,0.5279478998854756,1,0,,,,,,,,,,,,,,,,,,,,,1,,,,,,,,,,,,,,,,,,,,,,,,,,,,,,,,,,,,,,,,,,999,999,26,Female,1,2024/05/07_14:58:33,YZ,59.891572419901344,
,,,,,,practice,0,3,3,583,11,X,1,right,0.4212573003023863,0,0,,,,,,,,,,,,,,,,,,,,,1,,,,,,,,,,,,,,,,,,,,,,,,,,,,,,,,,,,,,,,,,,999,999,26,Female,1,2024/05/07_14:58:33,YZ,59.891572419901344,
,,,,,,practice,0,3,3,583,12,N,0,left,0.42548599978908896,0,0,,,,,,,,,,,,,,,,,,,,,1,,,,,,,,,,,,,,,,,,,,,,,,,,,,,,,,,,,,,,,,,,999,999,26,Female,1,2024/05/07_14:58:33,YZ,59.891572419901344,
,,,,,,practice,0,3,3,583,13,Q,0,right,0.38626129971817136,1,0,,,,,,,,,,,,,,,,,,,,,1,,,,,,,,,,,,,,,,,,,,,,,,,,,,,,,,,,,,,,,,,,999,999,26,Female,1,2024/05/07_14:58:33,YZ,59.891572419901344,
,,,,,,practice,0,3,3,583,14,X,1,left,0.7330570998601615,1,0,,,,,,,,,,,,,,,,,,,,,1,,,,,,,,,,,,,,,,,,,,,,,,,,,,,,,,,,,,,,,,,,999,999,26,Female,1,2024/05/07_14:58:33,YZ,59.891572419901344,
,,,,,,practice,0,3,3,583,15,F,0,right,0.3453749995678663,1,0,,,,,,,,,,,,,,,,,,,,,1,,,,,,,,,,,,,,,,,,,,,,,,,,,,,,,,,,,,,,,,,,999,999,26,Female,1,2024/05/07_14:58:33,YZ,59.891572419901344,
,,,,,,practice,0,3,3,583,,,,,,,,0.5875,0.4,0.3,0.8,0.0,0.7,1.0179319532588125,2,3,0,0,0,8,10,5,10,0,,,,1,,,,,,,,,,,,,,,,,,,,,,,,,,,,,,,,,,,,,,,,,,999,999,26,Female,1,2024/05/07_14:58:33,YZ,59.891572419901344,
1,.\instructions\inst_redo_3\Slide1.png,right,0.7548910998739302,150.763054900337,151.51794600021094,,,,,,,,,,,,,,,,,,,,,,,,,,,,,,,,,1,,,,,,,,,,,,,,,,,,,,,,,,,,,,,,,,,,,,,,,,,,999,999,26,Female,1,2024/05/07_14:58:33,YZ,59.891572419901344,
,,,,,,practice,0,4,3,583,1,J,0,right,0.27650680020451546,1,0,,,,,,,,,,,,,,,,,,,,,1,,,,,,,,,,,,,,,,,,,,,,,,,,,,,,,,,,,,,,,,,,999,999,26,Female,1,2024/05/07_14:58:33,YZ,59.891572419901344,
,,,,,,practice,0,4,3,583,2,V,0,right,0.14920780016109347,1,0,,,,,,,,,,,,,,,,,,,,,1,,,,,,,,,,,,,,,,,,,,,,,,,,,,,,,,,,,,,,,,,,999,999,26,Female,1,2024/05/07_14:58:33,YZ,59.891572419901344,
,,,,,,practice,0,4,3,583,3,J,0,right,0.1603701999410987,1,0,,,,,,,,,,,,,,,,,,,,,1,,,,,,,,,,,,,,,,,,,,,,,,,,,,,,,,,,,,,,,,,,999,999,26,Female,1,2024/05/07_14:58:33,YZ,59.891572419901344,
,,,,,,practice,0,4,3,583,4,V,0,right,0.7719081002287567,1,0,,,,,,,,,,,,,,,,,,,,,1,,,,,,,,,,,,,,,,,,,,,,,,,,,,,,,,,,,,,,,,,,999,999,26,Female,1,2024/05/07_14:58:33,YZ,59.891572419901344,
,,,,,,practice,0,4,3,583,5,V,1,left,0.4792884001508355,1,0,,,,,,,,,,,,,,,,,,,,,1,,,,,,,,,,,,,,,,,,,,,,,,,,,,,,,,,,,,,,,,,,999,999,26,Female,1,2024/05/07_14:58:33,YZ,59.891572419901344,
,,,,,,practice,0,4,3,583,6,F,0,right,0.3879037001170218,1,0,,,,,,,,,,,,,,,,,,,,,1,,,,,,,,,,,,,,,,,,,,,,,,,,,,,,,,,,,,,,,,,,999,999,26,Female,1,2024/05/07_14:58:33,YZ,59.891572419901344,
,,,,,,practice,0,4,3,583,7,Q,0,right,0.4061369998380542,1,0,,,,,,,,,,,,,,,,,,,,,1,,,,,,,,,,,,,,,,,,,,,,,,,,,,,,,,,,,,,,,,,,999,999,26,Female,1,2024/05/07_14:58:33,YZ,59.891572419901344,
,,,,,,practice,0,4,3,583,8,Q,0,left,0.7106384001672268,0,0,,,,,,,,,,,,,,,,,,,,,1,,,,,,,,,,,,,,,,,,,,,,,,,,,,,,,,,,,,,,,,,,999,999,26,Female,1,2024/05/07_14:58:33,YZ,59.891572419901344,
,,,,,,practice,0,4,3,583,9,F,1,left,0.6897005001083016,1,0,,,,,,,,,,,,,,,,,,,,,1,,,,,,,,,,,,,,,,,,,,,,,,,,,,,,,,,,,,,,,,,,999,999,26,Female,1,2024/05/07_14:58:33,YZ,59.891572419901344,
,,,,,,practice,0,4,3,583,10,N,0,right,0.6411962998099625,1,0,,,,,,,,,,,,,,,,,,,,,1,,,,,,,,,,,,,,,,,,,,,,,,,,,,,,,,,,,,,,,,,,999,999,26,Female,1,2024/05/07_14:58:33,YZ,59.891572419901344,
,,,,,,practice,0,4,3,583,11,Q,1,left,0.44126580003648996,1,0,,,,,,,,,,,,,,,,,,,,,1,,,,,,,,,,,,,,,,,,,,,,,,,,,,,,,,,,,,,,,,,,999,999,26,Female,1,2024/05/07_14:58:33,YZ,59.891572419901344,
,,,,,,practice,0,4,3,583,12,S,0,right,0.364843999966979,1,0,,,,,,,,,,,,,,,,,,,,,1,,,,,,,,,,,,,,,,,,,,,,,,,,,,,,,,,,,,,,,,,,999,999,26,Female,1,2024/05/07_14:58:33,YZ,59.891572419901344,
,,,,,,practice,0,4,3,583,13,J,0,left,0.5019835997372866,0,0,,,,,,,,,,,,,,,,,,,,,1,,,,,,,,,,,,,,,,,,,,,,,,,,,,,,,,,,,,,,,,,,999,999,26,Female,1,2024/05/07_14:58:33,YZ,59.891572419901344,
,,,,,,practice,0,4,3,583,14,Q,1,left,0.4432677999138832,1,0,,,,,,,,,,,,,,,,,,,,,1,,,,,,,,,,,,,,,,,,,,,,,,,,,,,,,,,,,,,,,,,,999,999,26,Female,1,2024/05/07_14:58:33,YZ,59.891572419901344,
,,,,,,practice,0,4,3,583,15,N,0,left,0.4959640000015497,0,0,,,,,,,,,,,,,,,,,,,,,1,,,,,,,,,,,,,,,,,,,,,,,,,,,,,,,,,,,,,,,,,,999,999,26,Female,1,2024/05/07_14:58:33,YZ,59.891572419901344,
,,,,,,practice,0,4,3,583,,,,,,,,1.0,1.0,0.0,0.7272727272727273,0.0,1.0,0.4613454933588704,4,0,0,0,0,8,12,4,11,0,,,,1,,,,,,,,,,,,,,,,,,,,,,,,,,,,,,,,,,,,,,,,,,999,999,26,Female,1,2024/05/07_14:58:33,YZ,59.891572419901344,
1,.\instructions\inst_prac_main\Slide1.png,right,0.7887523001991212,167.42394600016996,168.21269830036908,,,,,,,,,,,,,,,,,,,,,,,,,,,,,,,,,1,,,,,,,,,,,,,,,,,,,,,,,,,,,,,,,,,,,,,,,,,,999,999,26,Female,1,2024/05/07_14:58:33,YZ,59.891572419901344,
2,.\instructions\inst_prac_main\Slide2.png,right,0.5893438998609781,168.25535130035132,168.8446952002123,,,,,,,,,,,,,,,,,,,,,,,,,,,,,,,,,1,,,,,,,,,,,,,,,,,,,,,,,,,,,,,,,,,,,,,,,,,,999,999,26,Female,1,2024/05/07_14:58:33,YZ,59.891572419901344,
3,.\instructions\inst_prac_main\Slide3.png,right,1.206866499967873,168.87780340015888,170.08466990012676,,,,,,,,,,,,,,,,,,,,,,,,,,,,,,,,,1,,,,,,,,,,,,,,,,,,,,,,,,,,,,,,,,,,,,,,,,,,999,999,26,Female,1,2024/05/07_14:58:33,YZ,59.891572419901344,
4,.\instructions\inst_prac_main\Slide4.png,right,0.45544440019875765,170.11725590005517,170.57270030025393,,,,,,,,,,,,,,,,,,,,,,,,,,,,,,,,,1,,,,,,,,,,,,,,,,,,,,,,,,,,,,,,,,,,,,,,,,,,999,999,26,Female,1,2024/05/07_14:58:33,YZ,59.891572419901344,
,,,,,,practice_main,0,1,3,583,1,C,0,right,0.19691200042143464,1,0,,,,,,,,,,,,,,,,,,,,,1,,,,,,,,,,,,,,,,,,,,,,,,,,,,,,,,,,,,,,,,,,999,999,26,Female,1,2024/05/07_14:58:33,YZ,59.891572419901344,
,,,,,,practice_main,0,1,3,583,2,F,0,left,0.07523459987714887,0,0,,,,,,,,,,,,,,,,,,,,,1,,,,,,,,,,,,,,,,,,,,,,,,,,,,,,,,,,,,,,,,,,999,999,26,Female,1,2024/05/07_14:58:33,YZ,59.891572419901344,
,,,,,,practice_main,0,1,3,583,3,J,0,left,0.0,0,0,,,,,,,,,,,,,,,,,,,,,1,,,,,,,,,,,,,,,,,,,,,,,,,,,,,,,,,,,,,,,,,,999,999,26,Female,1,2024/05/07_14:58:33,YZ,59.891572419901344,
,,,,,,practice_main,0,1,3,583,4,Q,0,left,0.0,0,0,,,,,,,,,,,,,,,,,,,,,1,,,,,,,,,,,,,,,,,,,,,,,,,,,,,,,,,,,,,,,,,,999,999,26,Female,1,2024/05/07_14:58:33,YZ,59.891572419901344,
,,,,,,practice_main,0,1,3,583,5,F,1,left,0.0,1,0,,,,,,,,,,,,,,,,,,,,,1,,,,,,,,,,,,,,,,,,,,,,,,,,,,,,,,,,,,,,,,,,999,999,26,Female,1,2024/05/07_14:58:33,YZ,59.891572419901344,
,,,,,,practice_main,0,1,3,583,6,J,1,left,0.0,1,0,,,,,,,,,,,,,,,,,,,,,1,,,,,,,,,,,,,,,,,,,,,,,,,,,,,,,,,,,,,,,,,,999,999,26,Female,1,2024/05/07_14:58:33,YZ,59.891572419901344,
,,,,,,practice_main,0,1,3,583,7,X,0,right,0.0,1,0,,,,,,,,,,,,,,,,,,,,,1,,,,,,,,,,,,,,,,,,,,,,,,,,,,,,,,,,,,,,,,,,999,999,26,Female,1,2024/05/07_14:58:33,YZ,59.891572419901344,
,,,,,,practice_main,0,1,3,583,8,F,1,right,0.0,0,0,,,,,,,,,,,,,,,,,,,,,1,,,,,,,,,,,,,,,,,,,,,,,,,,,,,,,,,,,,,,,,,,999,999,26,Female,1,2024/05/07_14:58:33,YZ,59.891572419901344,
,,,,,,practice_main,0,1,3,583,9,J,1,left,0.055991200264543295,1,0,,,,,,,,,,,,,,,,,,,,,1,,,,,,,,,,,,,,,,,,,,,,,,,,,,,,,,,,,,,,,,,,999,999,26,Female,1,2024/05/07_14:58:33,YZ,59.891572419901344,
,,,,,,practice_main,0,1,3,583,10,J,0,right,0.0,1,0,,,,,,,,,,,,,,,,,,,,,1,,,,,,,,,,,,,,,,,,,,,,,,,,,,,,,,,,,,,,,,,,999,999,26,Female,1,2024/05/07_14:58:33,YZ,59.891572419901344,
,,,,,,practice_main,0,1,3,583,11,C,0,right,0.13131129974499345,1,0,,,,,,,,,,,,,,,,,,,,,1,,,,,,,,,,,,,,,,,,,,,,,,,,,,,,,,,,,,,,,,,,999,999,26,Female,1,2024/05/07_14:58:33,YZ,59.891572419901344,
,,,,,,practice_main,0,1,3,583,12,V,0,left,0.0,0,0,,,,,,,,,,,,,,,,,,,,,1,,,,,,,,,,,,,,,,,,,,,,,,,,,,,,,,,,,,,,,,,,999,999,26,Female,1,2024/05/07_14:58:33,YZ,59.891572419901344,
,,,,,,practice_main,0,1,3,583,13,N,0,right,0.0,1,0,,,,,,,,,,,,,,,,,,,,,1,,,,,,,,,,,,,,,,,,,,,,,,,,,,,,,,,,,,,,,,,,999,999,26,Female,1,2024/05/07_14:58:33,YZ,59.891572419901344,
,,,,,,practice_main,0,1,3,583,14,J,0,right,0.20980449998751283,1,0,,,,,,,,,,,,,,,,,,,,,1,,,,,,,,,,,,,,,,,,,,,,,,,,,,,,,,,,,,,,,,,,999,999,26,Female,1,2024/05/07_14:58:33,YZ,59.891572419901344,
,,,,,,practice_main,0,1,3,583,15,X,0,right,0.19287719996646047,1,0,,,,,,,,,,,,,,,,,,,,,1,,,,,,,,,,,,,,,,,,,,,,,,,,,,,,,,,,,,,,,,,,999,999,26,Female,1,2024/05/07_14:58:33,YZ,59.891572419901344,
,,,,,,practice_main,0,1,3,583,,,,,,,,0.8920454545454546,0.75,0.09090909090909091,0.6363636363636364,0.0,0.9090909090909091,0.05747538668413957,3,1,0,0,0,7,10,4,11,0,,,,1,,,,,,,,,,,,,,,,,,,,,,,,,,,,,,,,,,,,,,,,,,999,999,26,Female,1,2024/05/07_14:58:33,YZ,59.891572419901344,
,,,,,240507_150147,PRACTICE,0,1,3,583,,,,,,,,,,,,,,,,,,,,,,,,,,,,1,47,1,1,cue2.png,Hard,A,173.58266230020672,,,,,,,,,,,,,,,,,,,,,,,,,,,,,,,,,,,999,999,26,Female,1,2024/05/07_14:58:33,YZ,59.891572419901344,
,,,,,,practice_main,0,2,1,583,1,F,0,right,0.17238770006224513,1,0,,,,,,,,,,,,,,,,,,,,,1,,,,,,,,,,,,,,,,,,,,,,,,,,,,,,,,,,,,,,,,,,999,999,26,Female,1,2024/05/07_14:58:33,YZ,59.891572419901344,
,,,,,,practice_main,0,2,1,583,2,F,1,left,0.0,1,0,,,,,,,,,,,,,,,,,,,,,1,,,,,,,,,,,,,,,,,,,,,,,,,,,,,,,,,,,,,,,,,,999,999,26,Female,1,2024/05/07_14:58:33,YZ,59.891572419901344,
,,,,,,practice_main,0,2,1,583,3,Q,0,left,0.0,0,0,,,,,,,,,,,,,,,,,,,,,1,,,,,,,,,,,,,,,,,,,,,,,,,,,,,,,,,,,,,,,,,,999,999,26,Female,1,2024/05/07_14:58:33,YZ,59.891572419901344,
,,,,,,practice_main,0,2,1,583,4,C,0,right,0.0,1,0,,,,,,,,,,,,,,,,,,,,,1,,,,,,,,,,,,,,,,,,,,,,,,,,,,,,,,,,,,,,,,,,999,999,26,Female,1,2024/05/07_14:58:33,YZ,59.891572419901344,
,,,,,,practice_main,0,2,1,583,5,J,0,right,0.0,1,0,,,,,,,,,,,,,,,,,,,,,1,,,,,,,,,,,,,,,,,,,,,,,,,,,,,,,,,,,,,,,,,,999,999,26,Female,1,2024/05/07_14:58:33,YZ,59.891572419901344,
,,,,,,practice_main,0,2,1,583,6,N,0,right,0.04949719971045852,1,0,,,,,,,,,,,,,,,,,,,,,1,,,,,,,,,,,,,,,,,,,,,,,,,,,,,,,,,,,,,,,,,,999,999,26,Female,1,2024/05/07_14:58:33,YZ,59.891572419901344,
,,,,,,practice_main,0,2,1,583,7,N,1,left,0.0,1,0,,,,,,,,,,,,,,,,,,,,,1,,,,,,,,,,,,,,,,,,,,,,,,,,,,,,,,,,,,,,,,,,999,999,26,Female,1,2024/05/07_14:58:33,YZ,59.891572419901344,
,,,,,,practice_main,0,2,1,583,8,F,0,right,0.02976850001141429,1,0,,,,,,,,,,,,,,,,,,,,,1,,,,,,,,,,,,,,,,,,,,,,,,,,,,,,,,,,,,,,,,,,999,999,26,Female,1,2024/05/07_14:58:33,YZ,59.891572419901344,
,,,,,,practice_main,0,2,1,583,9,J,0,left,0.0,0,0,,,,,,,,,,,,,,,,,,,,,1,,,,,,,,,,,,,,,,,,,,,,,,,,,,,,,,,,,,,,,,,,999,999,26,Female,1,2024/05/07_14:58:33,YZ,59.891572419901344,
,,,,,,practice_main,0,2,1,583,10,J,1,left,0.0,1,0,,,,,,,,,,,,,,,,,,,,,1,,,,,,,,,,,,,,,,,,,,,,,,,,,,,,,,,,,,,,,,,,999,999,26,Female,1,2024/05/07_14:58:33,YZ,59.891572419901344,
,,,,,,practice_main,0,2,1,583,11,C,0,right,0.0,1,0,,,,,,,,,,,,,,,,,,,,,1,,,,,,,,,,,,,,,,,,,,,,,,,,,,,,,,,,,,,,,,,,999,999,26,Female,1,2024/05/07_14:58:33,YZ,59.891572419901344,
,,,,,,practice_main,0,2,1,583,12,C,1,left,0.10892600007355213,1,0,,,,,,,,,,,,,,,,,,,,,1,,,,,,,,,,,,,,,,,,,,,,,,,,,,,,,,,,,,,,,,,,999,999,26,Female,1,2024/05/07_14:58:33,YZ,59.891572419901344,
,,,,,,practice_main,0,2,1,583,13,X,0,right,0.0,1,0,,,,,,,,,,,,,,,,,,,,,1,,,,,,,,,,,,,,,,,,,,,,,,,,,,,,,,,,,,,,,,,,999,999,26,Female,1,2024/05/07_14:58:33,YZ,59.891572419901344,
,,,,,,practice_main,0,2,1,583,14,X,1,right,0.16175400000065565,0,0,,,,,,,,,,,,,,,,,,,,,1,,,,,,,,,,,,,,,,,,,,,,,,,,,,,,,,,,,,,,,,,,999,999,26,Female,1,2024/05/07_14:58:33,YZ,59.891572419901344,
,,,,,,practice_main,0,2,1,583,15,S,0,left,0.0,0,0,,,,,,,,,,,,,,,,,,,,,1,,,,,,,,,,,,,,,,,,,,,,,,,,,,,,,,,,,,,,,,,,999,999,26,Female,1,2024/05/07_14:58:33,YZ,59.891572419901344,
,,,,,,practice_main,0,2,1,583,,,,,,,,0.905,0.8,0.1,0.7,0.0,0.9,0.03482222665722171,4,1,0,0,0,7,11,5,10,0,,,,1,,,,,,,,,,,,,,,,,,,,,,,,,,,,,,,,,,,,,,,,,,999,999,26,Female,1,2024/05/07_14:58:33,YZ,59.891572419901344,
,,,,,240507_150203,PRACTICE,0,2,1,583,,,,,,,,,,,,,,,,,,,,,,,,,,,,1,13,2,2,cue1.png,Easy,A,189.9103959002532,,,,,,,,,,,,,,,,,,,,,,,,,,,,,,,,,,,999,999,26,Female,1,2024/05/07_14:58:33,YZ,59.891572419901344,
1,.\instructions\inst_prac_end\Slide1.png,right,5.1972869001328945,204.43159600021318,209.62888290034607,,,,,,,,,,,,,,,,,,,,,,,,,,,,,,,,,1,,,,,,,,,,,,,,,,,,,,,,,,,,,,,,,,,,,,,,,,,,999,999,26,Female,1,2024/05/07_14:58:33,YZ,59.891572419901344,
1,.\instructions\inst_offline_rating_0\Slide1.png,right,4.98132159980014,209.67955470038578,214.66087630018592,,,,,,,,,,,,,,,,,,,,,,,,,,,,,,,,,1,,,,,,,,,,,,,,,,,,,,,,,,,,,,,,,,,,,,,,,,,,999,999,26,Female,1,2024/05/07_14:58:33,YZ,59.891572419901344,
2,.\instructions\inst_offline_rating_0\Slide2.png,right,0.6056002997793257,214.69524990022182,215.30085020000115,,,,,,,,,,,,,,,,,,,,,,,,,,,,,,,,,1,,,,,,,,,,,,,,,,,,,,,,,,,,,,,,,,,,,,,,,,,,999,999,26,Female,1,2024/05/07_14:58:33,YZ,59.891572419901344,
3,.\instructions\inst_offline_rating_0\Slide3.png,right,4.726374799851328,215.3345457003452,220.06092050019652,,,,,,,,,,,,,,,,,,,,,,,,,,,,,,,,,1,,,,,,,,,,,,,,,,,,,,,,,,,,,,,,,,,,,,,,,,,,999,999,26,Female,1,2024/05/07_14:58:33,YZ,59.891572419901344,
4,.\instructions\inst_offline_rating_0\Slide4.png,right,2.728655000217259,220.09228250011802,222.82093750033528,,,,,,,,,,,,,,,,,,,,,,,,,,,,,,,,,1,,,,,,,,,,,,,,,,,,,,,,,,,,,,,,,,,,,,,,,,,,999,999,26,Female,1,2024/05/07_14:58:33,YZ,59.891572419901344,
,,,,,240507_150253,OFFLINERATING,9,,3.0,,,,,,,,,,,,,,,,,,,,,,,,,,,,,1,,,,,,,,T0,2.0,cue2.png,Hard,55,1.250436999835074,251.65175379998982,252.94007600005716,,,,,,,,,,,,,,,,,,,,,,,,,,,999,999,26,Female,1,2024/05/07_14:58:33,YZ,59.891572419901344,
,,,,,240507_150307,OFFLINERATING,9,,3.0,,,,,,,,,,,,,,,,,,,,,,,,,,,,,1,,,,,,,,T0,2.0,cue2.png,Hard,55,0.7734015001915395,266.57821630034596,267.38381510041654,,,,,,,,,,,,,,,,,,,,,,,,,,,999,999,26,Female,1,2024/05/07_14:58:33,YZ,59.891572419901344,
1,.\instructions\inst_learning\Slide1.png,right,203.71210519969463,270.42991310032085,474.1420183000155,,,,,,,,,,,,,,,,,,,,,,,,,,,,,,,,,1,,,,,,,,,,,,,,,,,,,,,,,,,,,,,,,,,,,,,,,,,,999,999,26,Female,1,2024/05/07_14:58:33,YZ,59.891572419901344,
,,,,,,learning,1,1,1,583,1,X,0,right,0.2652245000936091,1,0,,,,,,,,,,,,,,,,,,,,,1,,,,,,,,,,,,,,,,,,,,,,,,,,,,,,,,,,,,,,,,,,999,999,26,Female,1,2024/05/07_14:58:33,YZ,59.891572419901344,
,,,,,,learning,1,1,1,583,2,X,1,left,0.0,1,0,,,,,,,,,,,,,,,,,,,,,1,,,,,,,,,,,,,,,,,,,,,,,,,,,,,,,,,,,,,,,,,,999,999,26,Female,1,2024/05/07_14:58:33,YZ,59.891572419901344,
,,,,,,learning,1,1,1,583,3,J,0,left,0.0,0,0,,,,,,,,,,,,,,,,,,,,,1,,,,,,,,,,,,,,,,,,,,,,,,,,,,,,,,,,,,,,,,,,999,999,26,Female,1,2024/05/07_14:58:33,YZ,59.891572419901344,
,,,,,,learning,1,1,1,583,4,X,0,right,0.1084655998274684,1,0,,,,,,,,,,,,,,,,,,,,,1,,,,,,,,,,,,,,,,,,,,,,,,,,,,,,,,,,,,,,,,,,999,999,26,Female,1,2024/05/07_14:58:33,YZ,59.891572419901344,
,,,,,,learning,1,1,1,583,5,Q,0,left,0.0,0,0,,,,,,,,,,,,,,,,,,,,,1,,,,,,,,,,,,,,,,,,,,,,,,,,,,,,,,,,,,,,,,,,999,999,26,Female,1,2024/05/07_14:58:33,YZ,59.891572419901344,
,,,,,,learning,1,1,1,583,6,Q,1,left,0.08021179959177971,1,0,,,,,,,,,,,,,,,,,,,,,1,,,,,,,,,,,,,,,,,,,,,,,,,,,,,,,,,,,,,,,,,,999,999,26,Female,1,2024/05/07_14:58:33,YZ,59.891572419901344,
,,,,,,learning,1,1,1,583,7,N,0,left,0.0,0,0,,,,,,,,,,,,,,,,,,,,,1,,,,,,,,,,,,,,,,,,,,,,,,,,,,,,,,,,,,,,,,,,999,999,26,Female,1,2024/05/07_14:58:33,YZ,59.891572419901344,
,,,,,,learning,1,1,1,583,8,S,0,left,0.0,0,0,,,,,,,,,,,,,,,,,,,,,1,,,,,,,,,,,,,,,,,,,,,,,,,,,,,,,,,,,,,,,,,,999,999,26,Female,1,2024/05/07_14:58:33,YZ,59.891572419901344,
,,,,,,learning,1,1,1,583,9,N,0,left,0.0,0,0,,,,,,,,,,,,,,,,,,,,,1,,,,,,,,,,,,,,,,,,,,,,,,,,,,,,,,,,,,,,,,,,999,999,26,Female,1,2024/05/07_14:58:33,YZ,59.891572419901344,
,,,,,,learning,1,1,1,583,10,S,0,right,0.0013327999040484428,1,0,,,,,,,,,,,,,,,,,,,,,1,,,,,,,,,,,,,,,,,,,,,,,,,,,,,,,,,,,,,,,,,,999,999,26,Female,1,2024/05/07_14:58:33,YZ,59.891572419901344,
,,,,,,learning,1,1,1,583,11,S,1,right,0.0,0,0,,,,,,,,,,,,,,,,,,,,,1,,,,,,,,,,,,,,,,,,,,,,,,,,,,,,,,,,,,,,,,,,999,999,26,Female,1,2024/05/07_14:58:33,YZ,59.891572419901344,
,,,,,,learning,1,1,1,583,12,Q,0,left,0.0,0,0,,,,,,,,,,,,,,,,,,,,,1,,,,,,,,,,,,,,,,,,,,,,,,,,,,,,,,,,,,,,,,,,999,999,26,Female,1,2024/05/07_14:58:33,YZ,59.891572419901344,
,,,,,,learning,1,1,1,583,13,F,0,left,0.0,0,0,,,,,,,,,,,,,,,,,,,,,1,,,,,,,,,,,,,,,,,,,,,,,,,,,,,,,,,,,,,,,,,,999,999,26,Female,1,2024/05/07_14:58:33,YZ,59.891572419901344,
,,,,,,learning,1,1,1,583,14,C,0,right,0.0,1,0,,,,,,,,,,,,,,,,,,,,,1,,,,,,,,,,,,,,,,,,,,,,,,,,,,,,,,,,,,,,,,,,999,999,26,Female,1,2024/05/07_14:58:33,YZ,59.891572419901344,
,,,,,,learning,1,1,1,583,15,C,1,right,0.0,0,0,,,,,,,,,,,,,,,,,,,,,1,,,,,,,,,,,,,,,,,,,,,,,,,,,,,,,,,,,,,,,,,,999,999,26,Female,1,2024/05/07_14:58:33,YZ,59.891572419901344,
,,,,,,Learning,1,1,1,583,,,,,,,,0.7386363636363636,0.5,0.18181818181818182,0.36363636363636365,0.0,0.8181818181818181,0.030348979961127044,2,2,0,0,0,4,6,4,11,0,,,,1,,,,,,,,,,,,,,,,,,,,,,,,,,,,,,,,,,,,,,,,,,999,999,26,Female,1,2024/05/07_14:58:33,YZ,59.891572419901344,
,,,,,240507_150652,LEARNING,1,1,1,583,,,,,,,,,,,,,,,,,,,,,,,,,,,,1,1,1,1,cue1.png,Easy,A,479.1885266001336,,,,,,,,,,,,,,,,,,,,,,,,,,,,,,,,,,,999,999,26,Female,1,2024/05/07_14:58:33,YZ,59.891572419901344,
,,,,,,learning,1,2,3,583,1,V,0,right,0.28449989994987845,1,0,,,,,,,,,,,,,,,,,,,,,1,,,,,,,,,,,,,,,,,,,,,,,,,,,,,,,,,,,,,,,,,,999,999,26,Female,1,2024/05/07_14:58:33,YZ,59.891572419901344,
,,,,,,learning,1,2,3,583,2,V,0,left,0.22779860021546483,0,0,,,,,,,,,,,,,,,,,,,,,1,,,,,,,,,,,,,,,,,,,,,,,,,,,,,,,,,,,,,,,,,,999,999,26,Female,1,2024/05/07_14:58:33,YZ,59.891572419901344,
,,,,,,learning,1,2,3,583,3,J,0,right,0.02572969999164343,1,0,,,,,,,,,,,,,,,,,,,,,1,,,,,,,,,,,,,,,,,,,,,,,,,,,,,,,,,,,,,,,,,,999,999,26,Female,1,2024/05/07_14:58:33,YZ,59.891572419901344,
,,,,,,learning,1,2,3,583,4,V,1,right,0.02040829975157976,0,0,,,,,,,,,,,,,,,,,,,,,1,,,,,,,,,,,,,,,,,,,,,,,,,,,,,,,,,,,,,,,,,,999,999,26,Female,1,2024/05/07_14:58:33,YZ,59.891572419901344,
,,,,,,learning,1,2,3,583,5,X,0,right,0.02940470026805997,1,0,,,,,,,,,,,,,,,,,,,,,1,,,,,,,,,,,,,,,,,,,,,,,,,,,,,,,,,,,,,,,,,,999,999,26,Female,1,2024/05/07_14:58:33,YZ,59.891572419901344,
,,,,,,learning,1,2,3,583,6,S,0,left,0.0,0,0,,,,,,,,,,,,,,,,,,,,,1,,,,,,,,,,,,,,,,,,,,,,,,,,,,,,,,,,,,,,,,,,999,999,26,Female,1,2024/05/07_14:58:33,YZ,59.891572419901344,
,,,,,,learning,1,2,3,583,7,F,0,right,0.008988100104033947,1,0,,,,,,,,,,,,,,,,,,,,,1,,,,,,,,,,,,,,,,,,,,,,,,,,,,,,,,,,,,,,,,,,999,999,26,Female,1,2024/05/07_14:58:33,YZ,59.891572419901344,
,,,,,,learning,1,2,3,583,8,X,1,right,0.0,0,0,,,,,,,,,,,,,,,,,,,,,1,,,,,,,,,,,,,,,,,,,,,,,,,,,,,,,,,,,,,,,,,,999,999,26,Female,1,2024/05/07_14:58:33,YZ,59.891572419901344,
,,,,,,learning,1,2,3,583,9,S,1,right,0.0,0,0,,,,,,,,,,,,,,,,,,,,,1,,,,,,,,,,,,,,,,,,,,,,,,,,,,,,,,,,,,,,,,,,999,999,26,Female,1,2024/05/07_14:58:33,YZ,59.891572419901344,
,,,,,,learning,1,2,3,583,10,S,0,left,0.012461300007998943,0,0,,,,,,,,,,,,,,,,,,,,,1,,,,,,,,,,,,,,,,,,,,,,,,,,,,,,,,,,,,,,,,,,999,999,26,Female,1,2024/05/07_14:58:33,YZ,59.891572419901344,
,,,,,,learning,1,2,3,583,11,X,1,left,0.0,1,0,,,,,,,,,,,,,,,,,,,,,1,,,,,,,,,,,,,,,,,,,,,,,,,,,,,,,,,,,,,,,,,,999,999,26,Female,1,2024/05/07_14:58:33,YZ,59.891572419901344,
,,,,,,learning,1,2,3,583,12,C,0,left,0.0,0,0,,,,,,,,,,,,,,,,,,,,,1,,,,,,,,,,,,,,,,,,,,,,,,,,,,,,,,,,,,,,,,,,999,999,26,Female,1,2024/05/07_14:58:33,YZ,59.891572419901344,
,,,,,,learning,1,2,3,583,13,V,0,right,0.0653690998442471,1,0,,,,,,,,,,,,,,,,,,,,,1,,,,,,,,,,,,,,,,,,,,,,,,,,,,,,,,,,,,,,,,,,999,999,26,Female,1,2024/05/07_14:58:33,YZ,59.891572419901344,
,,,,,,learning,1,2,3,583,14,C,0,left,0.6450931001454592,0,0,,,,,,,,,,,,,,,,,,,,,1,,,,,,,,,,,,,,,,,,,,,,,,,,,,,,,,,,,,,,,,,,999,999,26,Female,1,2024/05/07_14:58:33,YZ,59.891572419901344,
,,,,,,learning,1,2,3,583,15,J,0,right,0.0,1,0,,,,,,,,,,,,,,,,,,,,,1,,,,,,,,,,,,,,,,,,,,,,,,,,,,,,,,,,,,,,,,,,999,999,26,Female,1,2024/05/07_14:58:33,YZ,59.891572419901344,
,,,,,,Learning,1,2,3,583,,,,,,,,0.015151515151515138,0.25,0.2727272727272727,0.5454545454545454,0.0,0.7272727272727273,0.0879835200185577,1,3,0,0,0,6,7,4,11,0,,,,1,,,,,,,,,,,,,,,,,,,,,,,,,,,,,,,,,,,,,,,,,,999,999,26,Female,1,2024/05/07_14:58:33,YZ,59.891572419901344,
,,,,,240507_150709,LEARNING,1,2,3,583,,,,,,,,,,,,,,,,,,,,,,,,,,,,1,2,2,2,cue2.png,Hard,A,495.09911080030724,,,,,,,,,,,,,,,,,,,,,,,,,,,,,,,,,,,999,999,26,Female,1,2024/05/07_14:58:33,YZ,59.891572419901344,
,,,,,,learning,1,3,1,583,1,X,0,left,0.35018379986286163,0,0,,,,,,,,,,,,,,,,,,,,,1,,,,,,,,,,,,,,,,,,,,,,,,,,,,,,,,,,,,,,,,,,999,999,26,Female,1,2024/05/07_14:58:33,YZ,59.891572419901344,
,,,,,,learning,1,3,1,583,2,F,0,right,0.0,1,0,,,,,,,,,,,,,,,,,,,,,1,,,,,,,,,,,,,,,,,,,,,,,,,,,,,,,,,,,,,,,,,,999,999,26,Female,1,2024/05/07_14:58:33,YZ,59.891572419901344,
,,,,,,learning,1,3,1,583,3,F,1,right,0.0009937998838722706,0,0,,,,,,,,,,,,,,,,,,,,,1,,,,,,,,,,,,,,,,,,,,,,,,,,,,,,,,,,,,,,,,,,999,999,26,Female,1,2024/05/07_14:58:33,YZ,59.891572419901344,
,,,,,,learning,1,3,1,583,4,J,0,right,0.0589999002404511,1,0,,,,,,,,,,,,,,,,,,,,,1,,,,,,,,,,,,,,,,,,,,,,,,,,,,,,,,,,,,,,,,,,999,999,26,Female,1,2024/05/07_14:58:33,YZ,59.891572419901344,
,,,,,,learning,1,3,1,583,5,N,0,left,0.126670700032264,0,0,,,,,,,,,,,,,,,,,,,,,1,,,,,,,,,,,,,,,,,,,,,,,,,,,,,,,,,,,,,,,,,,999,999,26,Female,1,2024/05/07_14:58:33,YZ,59.891572419901344,
,,,,,,learning,1,3,1,583,6,N,1,right,0.0,0,0,,,,,,,,,,,,,,,,,,,,,1,,,,,,,,,,,,,,,,,,,,,,,,,,,,,,,,,,,,,,,,,,999,999,26,Female,1,2024/05/07_14:58:33,YZ,59.891572419901344,
,,,,,,learning,1,3,1,583,7,C,0,right,0.10705039976164699,1,0,,,,,,,,,,,,,,,,,,,,,1,,,,,,,,,,,,,,,,,,,,,,,,,,,,,,,,,,,,,,,,,,999,999,26,Female,1,2024/05/07_14:58:33,YZ,59.891572419901344,
,,,,,,learning,1,3,1,583,8,Q,0,right,0.09497900027781725,1,0,,,,,,,,,,,,,,,,,,,,,1,,,,,,,,,,,,,,,,,,,,,,,,,,,,,,,,,,,,,,,,,,999,999,26,Female,1,2024/05/07_14:58:33,YZ,59.891572419901344,
,,,,,,learning,1,3,1,583,9,F,0,left,0.0,0,0,,,,,,,,,,,,,,,,,,,,,1,,,,,,,,,,,,,,,,,,,,,,,,,,,,,,,,,,,,,,,,,,999,999,26,Female,1,2024/05/07_14:58:33,YZ,59.891572419901344,
,,,,,,learning,1,3,1,583,10,X,0,left,0.0,0,0,,,,,,,,,,,,,,,,,,,,,1,,,,,,,,,,,,,,,,,,,,,,,,,,,,,,,,,,,,,,,,,,999,999,26,Female,1,2024/05/07_14:58:33,YZ,59.891572419901344,
,,,,,,learning,1,3,1,583,11,X,1,left,0.029511800035834312,1,0,,,,,,,,,,,,,,,,,,,,,1,,,,,,,,,,,,,,,,,,,,,,,,,,,,,,,,,,,,,,,,,,999,999,26,Female,1,2024/05/07_14:58:33,YZ,59.891572419901344,
,,,,,,learning,1,3,1,583,12,S,0,right,0.0,1,0,,,,,,,,,,,,,,,,,,,,,1,,,,,,,,,,,,,,,,,,,,,,,,,,,,,,,,,,,,,,,,,,999,999,26,Female,1,2024/05/07_14:58:33,YZ,59.891572419901344,
,,,,,,learning,1,3,1,583,13,S,1,left,0.1675099995918572,1,0,,,,,,,,,,,,,,,,,,,,,1,,,,,,,,,,,,,,,,,,,,,,,,,,,,,,,,,,,,,,,,,,999,999,26,Female,1,2024/05/07_14:58:33,YZ,59.891572419901344,
,,,,,,learning,1,3,1,583,14,V,0,right,0.0,1,0,,,,,,,,,,,,,,,,,,,,,1,,,,,,,,,,,,,,,,,,,,,,,,,,,,,,,,,,,,,,,,,,999,999,26,Female,1,2024/05/07_14:58:33,YZ,59.891572419901344,
,,,,,,learning,1,3,1,583,15,V,1,right,0.03126309998333454,0,0,,,,,,,,,,,,,,,,,,,,,1,,,,,,,,,,,,,,,,,,,,,,,,,,,,,,,,,,,,,,,,,,999,999,26,Female,1,2024/05/07_14:58:33,YZ,59.891572419901344,
,,,,,,Learning,1,3,1,583,,,,,,,,0.5875,0.4,0.3,0.6,0.0,0.7,0.06447749997799596,2,3,0,0,0,6,8,5,10,0,,,,1,,,,,,,,,,,,,,,,,,,,,,,,,,,,,,,,,,,,,,,,,,999,999,26,Female,1,2024/05/07_14:58:33,YZ,59.891572419901344,
,,,,,240507_150725,LEARNING,1,3,1,583,,,,,,,,,,,,,,,,,,,,,,,,,,,,1,3,3,3,cue1.png,Easy,A,511.89382460014895,,,,,,,,,,,,,,,,,,,,,,,,,,,,,,,,,,,999,999,26,Female,1,2024/05/07_14:58:33,YZ,59.891572419901344,
1,.\instructions\inst_offline_rating_1\Slide1.png,right,3.349020400084555,526.8168616001494,530.165882000234,,,,,,,,,,,,,,,,,,,,,,,,,,,,,,,,,1,,,,,,,,,,,,,,,,,,,,,,,,,,,,,,,,,,,,,,,,,,999,999,26,Female,1,2024/05/07_14:58:33,YZ,59.891572419901344,
2,.\instructions\inst_offline_rating_1\Slide2.png,right,0.8347336002625525,530.2031032000668,531.0378368003294,,,,,,,,,,,,,,,,,,,,,,,,,,,,,,,,,1,,,,,,,,,,,,,,,,,,,,,,,,,,,,,,,,,,,,,,,,,,999,999,26,Female,1,2024/05/07_14:58:33,YZ,59.891572419901344,
3,.\instructions\inst_offline_rating_1\Slide3.png,right,0.5035726996138692,531.0702532003634,531.5738258999772,,,,,,,,,,,,,,,,,,,,,,,,,,,,,,,,,1,,,,,,,,,,,,,,,,,,,,,,,,,,,,,,,,,,,,,,,,,,999,999,26,Female,1,2024/05/07_14:58:33,YZ,59.891572419901344,
,,,,,240507_150737,OFFLINERATING,9,,1.0,,,,,,,,,,,,,,,,,,,,,,,,,,,,,1,,,,,,,,T1,1.0,cue1.png,Easy,60,0.8068904997780919,536.1266218000092,536.9667529002763,,,,,,,,,,,,,,,,,,,,,,,,,,,999,999,26,Female,1,2024/05/07_14:58:33,YZ,59.891572419901344,
,,,,,240507_150742,OFFLINERATING,9,,3.0,,,,,,,,,,,,,,,,,,,,,,,,,,,,,1,,,,,,,,T1,2.0,cue2.png,Hard,59,0.9779119002632797,541.5302295000292,542.5398862003349,,,,,,,,,,,,,,,,,,,,,,,,,,,999,999,26,Female,1,2024/05/07_14:58:33,YZ,59.891572419901344,
1,.\instructions\inst_choice_true\Slide1.png,right,1.9990136995911598,545.6148845003918,547.6138981999829,,,,,,,,,,,,,,,,,,,,,,,,,,,,,,,,,1,,,,,,,,,,,,,,,,,,,,,,,,,,,,,,,,,,,,,,,,,,999,999,26,Female,1,2024/05/07_14:58:33,YZ,59.891572419901344,
2,.\instructions\inst_choice_true\Slide2.png,right,0.8883307999931276,547.6534914001822,548.5418222001754,,,,,,,,,,,,,,,,,,,,,,,,,,,,,,,,,1,,,,,,,,,,,,,,,,,,,,,,,,,,,,,,,,,,,,,,,,,,999,999,26,Female,1,2024/05/07_14:58:33,YZ,59.891572419901344,
3,.\instructions\inst_choice_true\Slide3.png,right,0.7200291999615729,548.5738352001645,549.293864400126,,,,,,,,,,,,,,,,,,,,,,,,,,,,,,,,,1,,,,,,,,,,,,,,,,,,,,,,,,,,,,,,,,,,,,,,,,,,999,999,26,Female,1,2024/05/07_14:58:33,YZ,59.891572419901344,
,,,,,,choice,9,1,3,583,1,Q,0,right,0.28108520014211535,1,0,,,,,,,,,,,,,,,,,,,,,1,,,,,,,,,,,,,,,,,,,,,,,,,,,,,,,,,,,,,,,,,,999,999,26,Female,1,2024/05/07_14:58:33,YZ,59.891572419901344,
,,,,,,choice,9,1,3,583,2,X,0,right,0.0,1,0,,,,,,,,,,,,,,,,,,,,,1,,,,,,,,,,,,,,,,,,,,,,,,,,,,,,,,,,,,,,,,,,999,999,26,Female,1,2024/05/07_14:58:33,YZ,59.891572419901344,
,,,,,,choice,9,1,3,583,3,J,0,left,0.0,0,0,,,,,,,,,,,,,,,,,,,,,1,,,,,,,,,,,,,,,,,,,,,,,,,,,,,,,,,,,,,,,,,,999,999,26,Female,1,2024/05/07_14:58:33,YZ,59.891572419901344,
,,,,,,choice,9,1,3,583,4,Q,1,left,0.0,1,0,,,,,,,,,,,,,,,,,,,,,1,,,,,,,,,,,,,,,,,,,,,,,,,,,,,,,,,,,,,,,,,,999,999,26,Female,1,2024/05/07_14:58:33,YZ,59.891572419901344,
,,,,,,choice,9,1,3,583,5,J,0,left,0.0,0,0,,,,,,,,,,,,,,,,,,,,,1,,,,,,,,,,,,,,,,,,,,,,,,,,,,,,,,,,,,,,,,,,999,999,26,Female,1,2024/05/07_14:58:33,YZ,59.891572419901344,
,,,,,,choice,9,1,3,583,6,J,1,left,0.0,1,0,,,,,,,,,,,,,,,,,,,,,1,,,,,,,,,,,,,,,,,,,,,,,,,,,,,,,,,,,,,,,,,,999,999,26,Female,1,2024/05/07_14:58:33,YZ,59.891572419901344,
,,,,,,choice,9,1,3,583,7,Q,1,left,0.0,1,0,,,,,,,,,,,,,,,,,,,,,1,,,,,,,,,,,,,,,,,,,,,,,,,,,,,,,,,,,,,,,,,,999,999,26,Female,1,2024/05/07_14:58:33,YZ,59.891572419901344,
,,,,,,choice,9,1,3,583,8,N,0,right,0.03145839972421527,1,0,,,,,,,,,,,,,,,,,,,,,1,,,,,,,,,,,,,,,,,,,,,,,,,,,,,,,,,,,,,,,,,,999,999,26,Female,1,2024/05/07_14:58:33,YZ,59.891572419901344,
,,,,,,choice,9,1,3,583,9,X,0,left,0.15547530027106404,0,0,,,,,,,,,,,,,,,,,,,,,1,,,,,,,,,,,,,,,,,,,,,,,,,,,,,,,,,,,,,,,,,,999,999,26,Female,1,2024/05/07_14:58:33,YZ,59.891572419901344,
,,,,,,choice,9,1,3,583,10,C,0,right,0.0,1,0,,,,,,,,,,,,,,,,,,,,,1,,,,,,,,,,,,,,,,,,,,,,,,,,,,,,,,,,,,,,,,,,999,999,26,Female,1,2024/05/07_14:58:33,YZ,59.891572419901344,
,,,,,,choice,9,1,3,583,11,C,0,right,0.0,1,0,,,,,,,,,,,,,,,,,,,,,1,,,,,,,,,,,,,,,,,,,,,,,,,,,,,,,,,,,,,,,,,,999,999,26,Female,1,2024/05/07_14:58:33,YZ,59.891572419901344,
,,,,,,choice,9,1,3,583,12,X,1,right,0.0,0,0,,,,,,,,,,,,,,,,,,,,,1,,,,,,,,,,,,,,,,,,,,,,,,,,,,,,,,,,,,,,,,,,999,999,26,Female,1,2024/05/07_14:58:33,YZ,59.891572419901344,
,,,,,,choice,9,1,3,583,13,Q,0,left,0.0,0,0,,,,,,,,,,,,,,,,,,,,,1,,,,,,,,,,,,,,,,,,,,,,,,,,,,,,,,,,,,,,,,,,999,999,26,Female,1,2024/05/07_14:58:33,YZ,59.891572419901344,
,,,,,,choice,9,1,3,583,14,C,1,left,0.0,1,0,,,,,,,,,,,,,,,,,,,,,1,,,,,,,,,,,,,,,,,,,,,,,,,,,,,,,,,,,,,,,,,,999,999,26,Female,1,2024/05/07_14:58:33,YZ,59.891572419901344,
,,,,,,choice,9,1,3,583,15,F,0,left,0.0,0,0,,,,,,,,,,,,,,,,,,,,,1,,,,,,,,,,,,,,,,,,,,,,,,,,,,,,,,,,,,,,,,,,999,999,26,Female,1,2024/05/07_14:58:33,YZ,59.891572419901344,
,,,,,,Choice,9,1,3,583,,,,,,,,0.905,0.8,0.1,0.5,0.0,0.9,0.031201260009159643,4,1,0,0,0,5,9,5,10,0,,,,1,,,,,,,,,,,,,,,,,,,,,,,,,,,,,,,,,,,,,,,,,,999,999,26,Female,1,2024/05/07_14:58:33,YZ,59.891572419901344,
,,,,,240507_150806,TrueCHOICE,9,1.0,3,583,,,,,,,,,,,,,,,,,,,,,,,,,,,,1,,1,1,,,A,553.1657930002548,,,,,,,,,True,cue1.png,Easy,cue2.png,Hard,Right,Hard,Hard,0.0056859999895095825,0,553.1660227002576,,,,,,,,,,,,,,,,999,999,26,Female,1,2024/05/07_14:58:33,YZ,59.891572419901344,
,,,,,,choice,9,2,1,583,1,S,0,right,0.5650746999308467,1,0,,,,,,,,,,,,,,,,,,,,,1,,,,,,,,,,,,,,,,,,,,,,,,,,,,,,,,,,,,,,,,,,999,999,26,Female,1,2024/05/07_14:58:33,YZ,59.891572419901344,
,,,,,,choice,9,2,1,583,2,N,0,left,0.0,0,0,,,,,,,,,,,,,,,,,,,,,1,,,,,,,,,,,,,,,,,,,,,,,,,,,,,,,,,,,,,,,,,,999,999,26,Female,1,2024/05/07_14:58:33,YZ,59.891572419901344,
,,,,,,choice,9,2,1,583,3,N,1,left,0.0,1,0,,,,,,,,,,,,,,,,,,,,,1,,,,,,,,,,,,,,,,,,,,,,,,,,,,,,,,,,,,,,,,,,999,999,26,Female,1,2024/05/07_14:58:33,YZ,59.891572419901344,
,,,,,,choice,9,2,1,583,4,X,0,left,0.0,0,0,,,,,,,,,,,,,,,,,,,,,1,,,,,,,,,,,,,,,,,,,,,,,,,,,,,,,,,,,,,,,,,,999,999,26,Female,1,2024/05/07_14:58:33,YZ,59.891572419901344,
,,,,,,choice,9,2,1,583,5,C,0,left,0.0,0,0,,,,,,,,,,,,,,,,,,,,,1,,,,,,,,,,,,,,,,,,,,,,,,,,,,,,,,,,,,,,,,,,999,999,26,Female,1,2024/05/07_14:58:33,YZ,59.891572419901344,
,,,,,,choice,9,2,1,583,6,V,0,right,0.0,1,0,,,,,,,,,,,,,,,,,,,,,1,,,,,,,,,,,,,,,,,,,,,,,,,,,,,,,,,,,,,,,,,,999,999,26,Female,1,2024/05/07_14:58:33,YZ,59.891572419901344,
,,,,,,choice,9,2,1,583,7,N,0,right,0.0026061004027724266,1,0,,,,,,,,,,,,,,,,,,,,,1,,,,,,,,,,,,,,,,,,,,,,,,,,,,,,,,,,,,,,,,,,999,999,26,Female,1,2024/05/07_14:58:33,YZ,59.891572419901344,
,,,,,,choice,9,2,1,583,8,N,1,right,0.013195999898016453,0,0,,,,,,,,,,,,,,,,,,,,,1,,,,,,,,,,,,,,,,,,,,,,,,,,,,,,,,,,,,,,,,,,999,999,26,Female,1,2024/05/07_14:58:33,YZ,59.891572419901344,
,,,,,,choice,9,2,1,583,9,V,0,left,0.0,0,0,,,,,,,,,,,,,,,,,,,,,1,,,,,,,,,,,,,,,,,,,,,,,,,,,,,,,,,,,,,,,,,,999,999,26,Female,1,2024/05/07_14:58:33,YZ,59.891572419901344,
,,,,,,choice,9,2,1,583,10,V,1,left,0.0,1,0,,,,,,,,,,,,,,,,,,,,,1,,,,,,,,,,,,,,,,,,,,,,,,,,,,,,,,,,,,,,,,,,999,999,26,Female,1,2024/05/07_14:58:33,YZ,59.891572419901344,
,,,,,,choice,9,2,1,583,11,S,0,left,0.06636980036273599,0,0,,,,,,,,,,,,,,,,,,,,,1,,,,,,,,,,,,,,,,,,,,,,,,,,,,,,,,,,,,,,,,,,999,999,26,Female,1,2024/05/07_14:58:33,YZ,59.891572419901344,
,,,,,,choice,9,2,1,583,12,S,1,right,0.0,0,0,,,,,,,,,,,,,,,,,,,,,1,,,,,,,,,,,,,,,,,,,,,,,,,,,,,,,,,,,,,,,,,,999,999,26,Female,1,2024/05/07_14:58:33,YZ,59.891572419901344,
,,,,,,choice,9,2,1,583,13,F,0,right,0.0,1,0,,,,,,,,,,,,,,,,,,,,,1,,,,,,,,,,,,,,,,,,,,,,,,,,,,,,,,,,,,,,,,,,999,999,26,Female,1,2024/05/07_14:58:33,YZ,59.891572419901344,
,,,,,,choice,9,2,1,583,14,J,0,left,0.0,0,0,,,,,,,,,,,,,,,,,,,,,1,,,,,,,,,,,,,,,,,,,,,,,,,,,,,,,,,,,,,,,,,,999,999,26,Female,1,2024/05/07_14:58:33,YZ,59.891572419901344,
,,,,,,choice,9,2,1,583,15,C,0,left,0.0,0,0,,,,,,,,,,,,,,,,,,,,,1,,,,,,,,,,,,,,,,,,,,,,,,,,,,,,,,,,,,,,,,,,999,999,26,Female,1,2024/05/07_14:58:33,YZ,59.891572419901344,
,,,,,,Choice,9,2,1,583,,,,,,,,0.7386363636363636,0.5,0.18181818181818182,0.36363636363636365,0.0,0.8181818181818181,0.043149773372958104,2,2,0,0,0,4,6,4,11,0,,,,1,,,,,,,,,,,,,,,,,,,,,,,,,,,,,,,,,,,,,,,,,,999,999,26,Female,1,2024/05/07_14:58:33,YZ,59.891572419901344,
,,,,,240507_150821,TrueCHOICE,9,2.0,1,583,,,,,,,,,,,,,,,,,,,,,,,,,,,,1,,2,2,,,A,568.4422649000771,,,,,,,,,True,cue1.png,Easy,cue2.png,Hard,Left,Easy,Easy,0.006083700340241194,0,568.4424731000327,,,,,,,,,,,,,,,,999,999,26,Female,1,2024/05/07_14:58:33,YZ,59.891572419901344,
,,,,,,choice,9,3,3,583,1,N,0,right,0.45248749991878867,1,0,,,,,,,,,,,,,,,,,,,,,1,,,,,,,,,,,,,,,,,,,,,,,,,,,,,,,,,,,,,,,,,,999,999,26,Female,1,2024/05/07_14:58:33,YZ,59.891572419901344,
,,,,,,choice,9,3,3,583,2,X,0,left,0.0,0,0,,,,,,,,,,,,,,,,,,,,,1,,,,,,,,,,,,,,,,,,,,,,,,,,,,,,,,,,,,,,,,,,999,999,26,Female,1,2024/05/07_14:58:33,YZ,59.891572419901344,
,,,,,,choice,9,3,3,583,3,C,0,left,0.0,0,0,,,,,,,,,,,,,,,,,,,,,1,,,,,,,,,,,,,,,,,,,,,,,,,,,,,,,,,,,,,,,,,,999,999,26,Female,1,2024/05/07_14:58:33,YZ,59.891572419901344,
,,,,,,choice,9,3,3,583,4,V,0,left,0.0,0,0,,,,,,,,,,,,,,,,,,,,,1,,,,,,,,,,,,,,,,,,,,,,,,,,,,,,,,,,,,,,,,,,999,999,26,Female,1,2024/05/07_14:58:33,YZ,59.891572419901344,
,,,,,,choice,9,3,3,583,5,S,0,right,0.0,1,0,,,,,,,,,,,,,,,,,,,,,1,,,,,,,,,,,,,,,,,,,,,,,,,,,,,,,,,,,,,,,,,,999,999,26,Female,1,2024/05/07_14:58:33,YZ,59.891572419901344,
,,,,,,choice,9,3,3,583,6,C,1,right,0.0,0,0,,,,,,,,,,,,,,,,,,,,,1,,,,,,,,,,,,,,,,,,,,,,,,,,,,,,,,,,,,,,,,,,999,999,26,Female,1,2024/05/07_14:58:33,YZ,59.891572419901344,
,,,,,,choice,9,3,3,583,7,V,1,left,0.0,1,0,,,,,,,,,,,,,,,,,,,,,1,,,,,,,,,,,,,,,,,,,,,,,,,,,,,,,,,,,,,,,,,,999,999,26,Female,1,2024/05/07_14:58:33,YZ,59.891572419901344,
,,,,,,choice,9,3,3,583,8,V,0,right,0.0,1,0,,,,,,,,,,,,,,,,,,,,,1,,,,,,,,,,,,,,,,,,,,,,,,,,,,,,,,,,,,,,,,,,999,999,26,Female,1,2024/05/07_14:58:33,YZ,59.891572419901344,
,,,,,,choice,9,3,3,583,9,F,0,right,0.0,1,0,,,,,,,,,,,,,,,,,,,,,1,,,,,,,,,,,,,,,,,,,,,,,,,,,,,,,,,,,,,,,,,,999,999,26,Female,1,2024/05/07_14:58:33,YZ,59.891572419901344,
,,,,,,choice,9,3,3,583,10,V,1,right,0.0,0,0,,,,,,,,,,,,,,,,,,,,,1,,,,,,,,,,,,,,,,,,,,,,,,,,,,,,,,,,,,,,,,,,999,999,26,Female,1,2024/05/07_14:58:33,YZ,59.891572419901344,
,,,,,,choice,9,3,3,583,11,V,1,right,0.0,0,0,,,,,,,,,,,,,,,,,,,,,1,,,,,,,,,,,,,,,,,,,,,,,,,,,,,,,,,,,,,,,,,,999,999,26,Female,1,2024/05/07_14:58:33,YZ,59.891572419901344,
,,,,,,choice,9,3,3,583,12,Q,0,right,0.0,1,0,,,,,,,,,,,,,,,,,,,,,1,,,,,,,,,,,,,,,,,,,,,,,,,,,,,,,,,,,,,,,,,,999,999,26,Female,1,2024/05/07_14:58:33,YZ,59.891572419901344,
,,,,,,choice,9,3,3,583,13,F,0,right,0.08214139984920621,1,0,,,,,,,,,,,,,,,,,,,,,1,,,,,,,,,,,,,,,,,,,,,,,,,,,,,,,,,,,,,,,,,,999,999,26,Female,1,2024/05/07_14:58:33,YZ,59.891572419901344,
,,,,,,choice,9,3,3,583,14,J,0,left,0.0035703000612556934,0,0,,,,,,,,,,,,,,,,,,,,,1,,,,,,,,,,,,,,,,,,,,,,,,,,,,,,,,,,,,,,,,,,999,999,26,Female,1,2024/05/07_14:58:33,YZ,59.891572419901344,
,,,,,,choice,9,3,3,583,15,J,0,left,0.10938119981437922,0,0,,,,,,,,,,,,,,,,,,,,,1,,,,,,,,,,,,,,,,,,,,,,,,,,,,,,,,,,,,,,,,,,999,999,26,Female,1,2024/05/07_14:58:33,YZ,59.891572419901344,
,,,,,,Choice,9,3,3,583,,,,,,,,0.015151515151515138,0.25,0.2727272727272727,0.5454545454545454,0.0,0.7272727272727273,0.04317202664290865,1,3,0,0,0,6,7,4,11,0,,,,1,,,,,,,,,,,,,,,,,,,,,,,,,,,,,,,,,,,,,,,,,,999,999,26,Female,1,2024/05/07_14:58:33,YZ,59.891572419901344,
,,,,,240507_150839,TrueCHOICE,9,3.0,3,583,,,,,,,,,,,,,,,,,,,,,,,,,,,,1,,3,3,,,A,586.2714162003249,,,,,,,,,True,cue2.png,Hard,cue1.png,Easy,Left,Hard,Hard,0.005536799784749746,0,586.2716467003338,,,,,,,,,,,,,,,,999,999,26,Female,1,2024/05/07_14:58:33,YZ,59.891572419901344,
1,.\instructions\inst_offline_rating_2\Slide1.png,right,0.6245621996931732,600.8695066003129,601.4940688000061,,,,,,,,,,,,,,,,,,,,,,,,,,,,,,,,,1,,,,,,,,,,,,,,,,,,,,,,,,,,,,,,,,,,,,,,,,,,999,999,26,Female,1,2024/05/07_14:58:33,YZ,59.891572419901344,
2,.\instructions\inst_offline_rating_2\Slide2.png,right,0.41067219991236925,601.5314279003069,601.9421001002192,,,,,,,,,,,,,,,,,,,,,,,,,,,,,,,,,1,,,,,,,,,,,,,,,,,,,,,,,,,,,,,,,,,,,,,,,,,,999,999,26,Female,1,2024/05/07_14:58:33,YZ,59.891572419901344,
3,.\instructions\inst_offline_rating_2\Slide3.png,right,0.24822179973125458,601.9738108003512,602.2220326000825,,,,,,,,,,,,,,,,,,,,,,,,,,,,,,,,,1,,,,,,,,,,,,,,,,,,,,,,,,,,,,,,,,,,,,,,,,,,999,999,26,Female,1,2024/05/07_14:58:33,YZ,59.891572419901344,
,,,,,240507_150847,OFFLINERATING,9,,1.0,,,,,,,,,,,,,,,,,,,,,,,,,,,,,1,,,,,,,,T2,1.0,cue1.png,Easy,55,0.6232333001680672,606.7909369003028,607.4475118000992,,,,,,,,,,,,,,,,,,,,,,,,,,,999,999,26,Female,1,2024/05/07_14:58:33,YZ,59.891572419901344,
,,,,,240507_150903,OFFLINERATING,9,,3.0,,,,,,,,,,,,,,,,,,,,,,,,,,,,,1,,,,,,,,T2,2.0,cue2.png,Hard,59,1.8756114998832345,621.0837822002359,622.99738180032,,,,,,,,,,,,,,,,,,,,,,,,,,,999,999,26,Female,1,2024/05/07_14:58:33,YZ,59.891572419901344,
1,.\instructions\inst_learning_check\Slide1.png,right,0.94428740022704,626.0538155999966,626.9981030002236,,,,,,,,,,,,,,,,,,,,,,,,,,,,,,,,,1,,,,,,,,,,,,,,,,,,,,,,,,,,,,,,,,,,,,,,,,,,999,999,26,Female,1,2024/05/07_14:58:33,YZ,59.891572419901344,
,,,,,240507_150914,LEARNINGCHECK,9,1,,,,,,,,,,,,,,,,,,,,,,,,,,,,,,1,1.0,1,1,,,A,632.5425370000303,,,,,,,,,,,,,,,,,,,,cue1.png,Easy,Left,Right,Hard,0.015923900064080954,0,0,632.542725500185,,,,,,,999,999,26,Female,1,2024/05/07_14:58:33,YZ,59.891572419901344,
,,,,,240507_150919,LEARNINGCHECK,9,2,,,,,,,,,,,,,,,,,,,,,,,,,,,,,,1,2.0,2,2,,,A,637.0791062000208,,,,,,,,,,,,,,,,,,,,cue2.png,Hard,Right,Left,Easy,0.015404199715703726,0,0,637.0792956002988,,,,,,,999,999,26,Female,1,2024/05/07_14:58:33,YZ,59.891572419901344,
1,.\instructions\inst_choice_false\Slide1.png,right,2.608203699812293,640.6539752003737,643.262178900186,,,,,,,,,,,,,,,,,,,,,,,,,,,,,,,,,1,,,,,,,,,,,,,,,,,,,,,,,,,,,,,,,,,,,,,,,,,,999,999,26,Female,1,2024/05/07_14:58:33,YZ,59.891572419901344,
2,.\instructions\inst_choice_false\Slide2.png,right,0.8109532999806106,643.2992576002143,644.1102109001949,,,,,,,,,,,,,,,,,,,,,,,,,,,,,,,,,1,,,,,,,,,,,,,,,,,,,,,,,,,,,,,,,,,,,,,,,,,,999,999,26,Female,1,2024/05/07_14:58:33,YZ,59.891572419901344,
3,.\instructions\inst_choice_false\Slide3.png,right,2.031876299995929,644.1423218999989,646.1741981999949,,,,,,,,,,,,,,,,,,,,,,,,,,,,,,,,,1,,,,,,,,,,,,,,,,,,,,,,,,,,,,,,,,,,,,,,,,,,999,999,26,Female,1,2024/05/07_14:58:33,YZ,59.891572419901344,
,,,,,,choice,9,1,2,583,1,S,0,right,0.3725365996360779,1,0,,,,,,,,,,,,,,,,,,,,,1,,,,,,,,,,,,,,,,,,,,,,,,,,,,,,,,,,,,,,,,,,999,999,26,Female,1,2024/05/07_14:58:33,YZ,59.891572419901344,
,,,,,,choice,9,1,2,583,2,F,0,left,0.0,0,0,,,,,,,,,,,,,,,,,,,,,1,,,,,,,,,,,,,,,,,,,,,,,,,,,,,,,,,,,,,,,,,,999,999,26,Female,1,2024/05/07_14:58:33,YZ,59.891572419901344,
,,,,,,choice,9,1,2,583,3,S,1,right,0.0,0,0,,,,,,,,,,,,,,,,,,,,,1,,,,,,,,,,,,,,,,,,,,,,,,,,,,,,,,,,,,,,,,,,999,999,26,Female,1,2024/05/07_14:58:33,YZ,59.891572419901344,
,,,,,,choice,9,1,2,583,4,V,0,left,0.06464829994365573,0,0,,,,,,,,,,,,,,,,,,,,,1,,,,,,,,,,,,,,,,,,,,,,,,,,,,,,,,,,,,,,,,,,999,999,26,Female,1,2024/05/07_14:58:33,YZ,59.891572419901344,
,,,,,,choice,9,1,2,583,5,S,1,left,0.0,1,0,,,,,,,,,,,,,,,,,,,,,1,,,,,,,,,,,,,,,,,,,,,,,,,,,,,,,,,,,,,,,,,,999,999,26,Female,1,2024/05/07_14:58:33,YZ,59.891572419901344,
,,,,,,choice,9,1,2,583,6,C,0,left,0.0,0,0,,,,,,,,,,,,,,,,,,,,,1,,,,,,,,,,,,,,,,,,,,,,,,,,,,,,,,,,,,,,,,,,999,999,26,Female,1,2024/05/07_14:58:33,YZ,59.891572419901344,
,,,,,,choice,9,1,2,583,7,S,1,left,0.0,1,0,,,,,,,,,,,,,,,,,,,,,1,,,,,,,,,,,,,,,,,,,,,,,,,,,,,,,,,,,,,,,,,,999,999,26,Female,1,2024/05/07_14:58:33,YZ,59.891572419901344,
,,,,,,choice,9,1,2,583,8,Q,0,left,0.0,0,0,,,,,,,,,,,,,,,,,,,,,1,,,,,,,,,,,,,,,,,,,,,,,,,,,,,,,,,,,,,,,,,,999,999,26,Female,1,2024/05/07_14:58:33,YZ,59.891572419901344,
,,,,,,choice,9,1,2,583,9,J,0,left,0.0,0,0,,,,,,,,,,,,,,,,,,,,,1,,,,,,,,,,,,,,,,,,,,,,,,,,,,,,,,,,,,,,,,,,999,999,26,Female,1,2024/05/07_14:58:33,YZ,59.891572419901344,
,,,,,,choice,9,1,2,583,10,V,0,right,0.0828629001043737,1,0,,,,,,,,,,,,,,,,,,,,,1,,,,,,,,,,,,,,,,,,,,,,,,,,,,,,,,,,,,,,,,,,999,999,26,Female,1,2024/05/07_14:58:33,YZ,59.891572419901344,
,,,,,,choice,9,1,2,583,11,X,0,right,0.014411999844014645,1,0,,,,,,,,,,,,,,,,,,,,,1,,,,,,,,,,,,,,,,,,,,,,,,,,,,,,,,,,,,,,,,,,999,999,26,Female,1,2024/05/07_14:58:33,YZ,59.891572419901344,
,,,,,,choice,9,1,2,583,12,J,0,right,0.0,1,0,,,,,,,,,,,,,,,,,,,,,1,,,,,,,,,,,,,,,,,,,,,,,,,,,,,,,,,,,,,,,,,,999,999,26,Female,1,2024/05/07_14:58:33,YZ,59.891572419901344,
,,,,,,choice,9,1,2,583,13,X,1,right,0.0,0,0,,,,,,,,,,,,,,,,,,,,,1,,,,,,,,,,,,,,,,,,,,,,,,,,,,,,,,,,,,,,,,,,999,999,26,Female,1,2024/05/07_14:58:33,YZ,59.891572419901344,
,,,,,,choice,9,1,2,583,14,V,0,left,0.0,0,0,,,,,,,,,,,,,,,,,,,,,1,,,,,,,,,,,,,,,,,,,,,,,,,,,,,,,,,,,,,,,,,,999,999,26,Female,1,2024/05/07_14:58:33,YZ,59.891572419901344,
,,,,,,choice,9,1,2,583,15,F,0,left,0.0,0,0,,,,,,,,,,,,,,,,,,,,,1,,,,,,,,,,,,,,,,,,,,,,,,,,,,,,,,,,,,,,,,,,999,999,26,Female,1,2024/05/07_14:58:33,YZ,59.891572419901344,
,,,,,,Choice,9,1,2,583,,,,,,,,0.7386363636363636,0.5,0.18181818181818182,0.36363636363636365,0.0,0.8181818181818181,0.035630653301874794,2,2,0,0,0,4,6,4,11,0,,,,1,,,,,,,,,,,,,,,,,,,,,,,,,,,,,,,,,,,,,,,,,,999,999,26,Female,1,2024/05/07_14:58:33,YZ,59.891572419901344,
,,,,,240507_150943,FalseCHOICE,9,1.0,2,583,,,,,,,,,,,,,,,,,,,,,,,,,,,,1,,1,1,,,A,650.5981208002195,,,,,,,,,False,cue1.png,Easy,cue2.png,Hard,Left,Easy,Mid,0.005297699943184853,0,650.5983604001813,,,,,,,,,,,,,,,,999,999,26,Female,1,2024/05/07_14:58:33,YZ,59.891572419901344,
,,,,,,choice,9,2,2,583,1,X,0,left,0.260137100238353,0,0,,,,,,,,,,,,,,,,,,,,,1,,,,,,,,,,,,,,,,,,,,,,,,,,,,,,,,,,,,,,,,,,999,999,26,Female,1,2024/05/07_14:58:33,YZ,59.891572419901344,
,,,,,,choice,9,2,2,583,2,F,0,left,0.08348640007898211,0,0,,,,,,,,,,,,,,,,,,,,,1,,,,,,,,,,,,,,,,,,,,,,,,,,,,,,,,,,,,,,,,,,999,999,26,Female,1,2024/05/07_14:58:33,YZ,59.891572419901344,
,,,,,,choice,9,2,2,583,3,Q,0,left,0.0,0,0,,,,,,,,,,,,,,,,,,,,,1,,,,,,,,,,,,,,,,,,,,,,,,,,,,,,,,,,,,,,,,,,999,999,26,Female,1,2024/05/07_14:58:33,YZ,59.891572419901344,
,,,,,,choice,9,2,2,583,4,F,1,right,0.04838240006938577,0,0,,,,,,,,,,,,,,,,,,,,,1,,,,,,,,,,,,,,,,,,,,,,,,,,,,,,,,,,,,,,,,,,999,999,26,Female,1,2024/05/07_14:58:33,YZ,59.891572419901344,
,,,,,,choice,9,2,2,583,5,X,0,left,0.02718729991465807,0,0,,,,,,,,,,,,,,,,,,,,,1,,,,,,,,,,,,,,,,,,,,,,,,,,,,,,,,,,,,,,,,,,999,999,26,Female,1,2024/05/07_14:58:33,YZ,59.891572419901344,
,,,,,,choice,9,2,2,583,6,F,1,left,0.0,1,0,,,,,,,,,,,,,,,,,,,,,1,,,,,,,,,,,,,,,,,,,,,,,,,,,,,,,,,,,,,,,,,,999,999,26,Female,1,2024/05/07_14:58:33,YZ,59.891572419901344,
,,,,,,choice,9,2,2,583,7,C,0,left,0.013619099743664265,0,0,,,,,,,,,,,,,,,,,,,,,1,,,,,,,,,,,,,,,,,,,,,,,,,,,,,,,,,,,,,,,,,,999,999,26,Female,1,2024/05/07_14:58:33,YZ,59.891572419901344,
,,,,,,choice,9,2,2,583,8,J,0,right,0.16748119983822107,1,0,,,,,,,,,,,,,,,,,,,,,1,,,,,,,,,,,,,,,,,,,,,,,,,,,,,,,,,,,,,,,,,,999,999,26,Female,1,2024/05/07_14:58:33,YZ,59.891572419901344,
,,,,,,choice,9,2,2,583,9,V,0,right,0.021498400252312422,1,0,,,,,,,,,,,,,,,,,,,,,1,,,,,,,,,,,,,,,,,,,,,,,,,,,,,,,,,,,,,,,,,,999,999,26,Female,1,2024/05/07_14:58:33,YZ,59.891572419901344,
,,,,,,choice,9,2,2,583,10,C,0,left,0.0,0,0,,,,,,,,,,,,,,,,,,,,,1,,,,,,,,,,,,,,,,,,,,,,,,,,,,,,,,,,,,,,,,,,999,999,26,Female,1,2024/05/07_14:58:33,YZ,59.891572419901344,
,,,,,,choice,9,2,2,583,11,J,0,left,0.0,0,0,,,,,,,,,,,,,,,,,,,,,1,,,,,,,,,,,,,,,,,,,,,,,,,,,,,,,,,,,,,,,,,,999,999,26,Female,1,2024/05/07_14:58:33,YZ,59.891572419901344,
,,,,,,choice,9,2,2,583,12,C,1,left,0.0,1,0,,,,,,,,,,,,,,,,,,,,,1,,,,,,,,,,,,,,,,,,,,,,,,,,,,,,,,,,,,,,,,,,999,999,26,Female,1,2024/05/07_14:58:33,YZ,59.891572419901344,
,,,,,,choice,9,2,2,583,13,N,0,left,0.0,0,0,,,,,,,,,,,,,,,,,,,,,1,,,,,,,,,,,,,,,,,,,,,,,,,,,,,,,,,,,,,,,,,,999,999,26,Female,1,2024/05/07_14:58:33,YZ,59.891572419901344,
,,,,,,choice,9,2,2,583,14,X,0,left,0.0,0,0,,,,,,,,,,,,,,,,,,,,,1,,,,,,,,,,,,,,,,,,,,,,,,,,,,,,,,,,,,,,,,,,999,999,26,Female,1,2024/05/07_14:58:33,YZ,59.891572419901344,
,,,,,,choice,9,2,2,583,15,N,1,left,0.0,1,0,,,,,,,,,,,,,,,,,,,,,1,,,,,,,,,,,,,,,,,,,,,,,,,,,,,,,,,,,,,,,,,,999,999,26,Female,1,2024/05/07_14:58:33,YZ,59.891572419901344,
,,,,,,Choice,9,2,2,583,,,,,,,,0.8920454545454546,0.75,0.09090909090909091,0.18181818181818182,0.0,0.9090909090909091,0.04145279334237178,3,1,0,0,0,2,5,4,11,0,,,,1,,,,,,,,,,,,,,,,,,,,,,,,,,,,,,,,,,,,,,,,,,999,999,26,Female,1,2024/05/07_14:58:33,YZ,59.891572419901344,
,,,,,240507_151000,FalseCHOICE,9,2.0,2,583,,,,,,,,,,,,,,,,,,,,,,,,,,,,1,,2,2,,,A,667.2089510001242,,,,,,,,,False,cue2.png,Hard,cue1.png,Easy,Right,Easy,Mid,0.005944900214672089,0,667.2091743000783,,,,,,,,,,,,,,,,999,999,26,Female,1,2024/05/07_14:58:33,YZ,59.891572419901344,
,,,,,,choice,9,3,2,583,1,Q,0,right,0.37328110029920936,1,0,,,,,,,,,,,,,,,,,,,,,1,,,,,,,,,,,,,,,,,,,,,,,,,,,,,,,,,,,,,,,,,,999,999,26,Female,1,2024/05/07_14:58:33,YZ,59.891572419901344,
,,,,,,choice,9,3,2,583,2,N,0,right,0.06290609994903207,1,0,,,,,,,,,,,,,,,,,,,,,1,,,,,,,,,,,,,,,,,,,,,,,,,,,,,,,,,,,,,,,,,,999,999,26,Female,1,2024/05/07_14:58:33,YZ,59.891572419901344,
,,,,,,choice,9,3,2,583,3,Q,1,left,0.002303000073879957,1,0,,,,,,,,,,,,,,,,,,,,,1,,,,,,,,,,,,,,,,,,,,,,,,,,,,,,,,,,,,,,,,,,999,999,26,Female,1,2024/05/07_14:58:33,YZ,59.891572419901344,
,,,,,,choice,9,3,2,583,4,N,1,left,0.0,1,0,,,,,,,,,,,,,,,,,,,,,1,,,,,,,,,,,,,,,,,,,,,,,,,,,,,,,,,,,,,,,,,,999,999,26,Female,1,2024/05/07_14:58:33,YZ,59.891572419901344,
,,,,,,choice,9,3,2,583,5,X,0,left,0.11671829968690872,0,0,,,,,,,,,,,,,,,,,,,,,1,,,,,,,,,,,,,,,,,,,,,,,,,,,,,,,,,,,,,,,,,,999,999,26,Female,1,2024/05/07_14:58:33,YZ,59.891572419901344,
,,,,,,choice,9,3,2,583,6,N,1,left,0.0,1,0,,,,,,,,,,,,,,,,,,,,,1,,,,,,,,,,,,,,,,,,,,,,,,,,,,,,,,,,,,,,,,,,999,999,26,Female,1,2024/05/07_14:58:33,YZ,59.891572419901344,
,,,,,,choice,9,3,2,583,7,J,0,right,0.0,1,0,,,,,,,,,,,,,,,,,,,,,1,,,,,,,,,,,,,,,,,,,,,,,,,,,,,,,,,,,,,,,,,,999,999,26,Female,1,2024/05/07_14:58:33,YZ,59.891572419901344,
,,,,,,choice,9,3,2,583,8,S,0,right,0.3573139999061823,1,0,,,,,,,,,,,,,,,,,,,,,1,,,,,,,,,,,,,,,,,,,,,,,,,,,,,,,,,,,,,,,,,,999,999,26,Female,1,2024/05/07_14:58:33,YZ,59.891572419901344,
,,,,,,choice,9,3,2,583,9,X,0,right,0.0403006998822093,1,0,,,,,,,,,,,,,,,,,,,,,1,,,,,,,,,,,,,,,,,,,,,,,,,,,,,,,,,,,,,,,,,,999,999,26,Female,1,2024/05/07_14:58:33,YZ,59.891572419901344,
,,,,,,choice,9,3,2,583,10,F,0,right,0.0,1,0,,,,,,,,,,,,,,,,,,,,,1,,,,,,,,,,,,,,,,,,,,,,,,,,,,,,,,,,,,,,,,,,999,999,26,Female,1,2024/05/07_14:58:33,YZ,59.891572419901344,
,,,,,,choice,9,3,2,583,11,X,1,right,0.0,0,0,,,,,,,,,,,,,,,,,,,,,1,,,,,,,,,,,,,,,,,,,,,,,,,,,,,,,,,,,,,,,,,,999,999,26,Female,1,2024/05/07_14:58:33,YZ,59.891572419901344,
,,,,,,choice,9,3,2,583,12,S,0,left,0.0,0,0,,,,,,,,,,,,,,,,,,,,,1,,,,,,,,,,,,,,,,,,,,,,,,,,,,,,,,,,,,,,,,,,999,999,26,Female,1,2024/05/07_14:58:33,YZ,59.891572419901344,
,,,,,,choice,9,3,2,583,13,N,0,right,0.0,1,0,,,,,,,,,,,,,,,,,,,,,1,,,,,,,,,,,,,,,,,,,,,,,,,,,,,,,,,,,,,,,,,,999,999,26,Female,1,2024/05/07_14:58:33,YZ,59.891572419901344,
,,,,,,choice,9,3,2,583,14,X,0,right,0.0,1,0,,,,,,,,,,,,,,,,,,,,,1,,,,,,,,,,,,,,,,,,,,,,,,,,,,,,,,,,,,,,,,,,999,999,26,Female,1,2024/05/07_14:58:33,YZ,59.891572419901344,
,,,,,,choice,9,3,2,583,15,Q,0,left,0.0,0,0,,,,,,,,,,,,,,,,,,,,,1,,,,,,,,,,,,,,,,,,,,,,,,,,,,,,,,,,,,,,,,,,999,999,26,Female,1,2024/05/07_14:58:33,YZ,59.891572419901344,
,,,,,,Choice,9,3,2,583,,,,,,,,0.8920454545454546,0.75,0.09090909090909091,0.7272727272727273,0.0,0.9090909090909091,0.06352154665316144,3,1,0,0,0,8,11,4,11,0,,,,1,,,,,,,,,,,,,,,,,,,,,,,,,,,,,,,,,,,,,,,,,,999,999,26,Female,1,2024/05/07_14:58:33,YZ,59.891572419901344,
,,,,,240507_151015,FalseCHOICE,9,3.0,2,583,,,,,,,,,,,,,,,,,,,,,,,,,,,,1,,3,3,,,A,682.3356588003226,,,,,,,,,False,cue2.png,Hard,cue1.png,Easy,Right,Easy,Mid,0.005887700244784355,0,682.3358724000864,,,,,,,,,,,,,,,,999,999,26,Female,1,2024/05/07_14:58:33,YZ,59.891572419901344,
1,.\instructions\inst_offline_rating_3\Slide1.png,right,0.7558229002170265,697.2425710000098,697.9983939002268,,,,,,,,,,,,,,,,,,,,,,,,,,,,,,,,,1,,,,,,,,,,,,,,,,,,,,,,,,,,,,,,,,,,,,,,,,,,999,999,26,Female,1,2024/05/07_14:58:33,YZ,59.891572419901344,
2,.\instructions\inst_offline_rating_3\Slide2.png,right,0.4641567999497056,698.0382233001292,698.5023801000789,,,,,,,,,,,,,,,,,,,,,,,,,,,,,,,,,1,,,,,,,,,,,,,,,,,,,,,,,,,,,,,,,,,,,,,,,,,,999,999,26,Female,1,2024/05/07_14:58:33,YZ,59.891572419901344,
3,.\instructions\inst_offline_rating_3\Slide3.png,right,0.24045859975740314,698.5338632003404,698.7743218000978,,,,,,,,,,,,,,,,,,,,,,,,,,,,,,,,,1,,,,,,,,,,,,,,,,,,,,,,,,,,,,,,,,,,,,,,,,,,999,999,26,Female,1,2024/05/07_14:58:33,YZ,59.891572419901344,
,,,,,240507_151024,OFFLINERATING,9,,1.0,,,,,,,,,,,,,,,,,,,,,,,,,,,,,1,,,,,,,,T3,1.0,cue1.png,Easy,63,0.8738354002125561,703.3392390003428,704.2460850002244,,,,,,,,,,,,,,,,,,,,,,,,,,,999,999,26,Female,1,2024/05/07_14:58:33,YZ,59.891572419901344,
,,,,,240507_151029,OFFLINERATING,9,,3.0,,,,,,,,,,,,,,,,,,,,,,,,,,,,,1,,,,,,,,T3,2.0,cue2.png,Hard,55,0.5337559999898076,708.8095794999972,709.3811668003909,,,,,,,,,,,,,,,,,,,,,,,,,,,999,999,26,Female,1,2024/05/07_14:58:33,YZ,59.891572419901344,
1,.\instructions\inst_learning_check\Slide1.png,right,0.8950648000463843,712.455379600171,713.3504444002174,,,,,,,,,,,,,,,,,,,,,,,,,,,,,,,,,1,,,,,,,,,,,,,,,,,,,,,,,,,,,,,,,,,,,,,,,,,,999,999,26,Female,1,2024/05/07_14:58:33,YZ,59.891572419901344,
,,,,,240507_151039,LEARNINGCHECK,9,1,,,,,,,,,,,,,,,,,,,,,,,,,,,,,,1,1.0,1,1,,,A,717.0658800001256,,,,,,,,,,,,,,,,,,,,cue1.png,Easy,Middle,Middle,Mid,0.016386600211262703,1,0,717.0660663000308,,,,,,,999,999,26,Female,1,2024/05/07_14:58:33,YZ,59.891572419901344,
,,,,,240507_151043,LEARNINGCHECK,9,2,,,,,,,,,,,,,,,,,,,,,,,,,,,,,,1,2.0,2,2,,,A,721.2022371999919,,,,,,,,,,,,,,,,,,,,cue2.png,Hard,Middle,Middle,Mid,0.01618769997730851,1,0,721.2024248000234,,,,,,,999,999,26,Female,1,2024/05/07_14:58:33,YZ,59.891572419901344,
1,.\instructions\inst_demand_rating\Slide1.png,right,0.6118375002406538,724.7706389999948,725.3824765002355,,,,,,,,,,,,,,,,,,,,,,,,,,,,,,,,,1,,,,,,,,,,,,,,,,,,,,,,,,,,,,,,,,,,,,,,,,,,999,999,26,Female,1,2024/05/07_14:58:33,YZ,59.891572419901344,
,,,,,240507_151048,DEMANDRATING,9,,,,,,,,,,,,,,,,,,,,,,,,,,,,,,,1,,,,,,,,,,,,,,,,,,,,,,,,,,,,,,,,,,,,1,MentalDemand,1,59,1.097591099794954,728.0397455999628,999,999,26,Female,1,2024/05/07_14:58:33,YZ,59.891572419901344,
,,,,,240507_151050,DEMANDRATING,9,,,,,,,,,,,,,,,,,,,,,,,,,,,,,,,1,,,,,,,,,,,,,,,,,,,,,,,,,,,,,,,,,,,,2,Effort,1,53,0.8664132002741098,730.441018300131,999,999,26,Female,1,2024/05/07_14:58:33,YZ,59.891572419901344,
,,,,,240507_151052,DEMANDRATING,9,,,,,,,,,,,,,,,,,,,,,,,,,,,,,,,1,,,,,,,,,,,,,,,,,,,,,,,,,,,,,,,,,,,,3,Frustration,1,53,0.5061603002250195,732.4926929003559,999,999,26,Female,1,2024/05/07_14:58:33,YZ,59.891572419901344,
,,,,,240507_151054,DEMANDRATING,9,,,,,,,,,,,,,,,,,,,,,,,,,,,,,,,1,,,,,,,,,,,,,,,,,,,,,,,,,,,,,,,,,,,,4,MentalDemand,2,69,0.3651589001528919,734.377208000049,999,999,26,Female,1,2024/05/07_14:58:33,YZ,59.891572419901344,
,,,,,240507_151056,DEMANDRATING,9,,,,,,,,,,,,,,,,,,,,,,,,,,,,,,,1,,,,,,,,,,,,,,,,,,,,,,,,,,,,,,,,,,,,5,Effort,2,69,0.29448379995301366,736.2118780002929,999,999,26,Female,1,2024/05/07_14:58:33,YZ,59.891572419901344,
,,,,,240507_151058,DEMANDRATING,9,,,,,,,,,,,,,,,,,,,,,,,,,,,,,,,1,,,,,,,,,,,,,,,,,,,,,,,,,,,,,,,,,,,,6,Frustration,2,69,0.31152339978143573,738.0464067002758,999,999,26,Female,1,2024/05/07_14:58:33,YZ,59.891572419901344,
,,,,,240507_151100,DEMANDRATING,9,,,,,,,,,,,,,,,,,,,,,,,,,,,,,,,1,,,,,,,,,,,,,,,,,,,,,,,,,,,,,,,,,,,,7,MentalDemand,3,91,0.30592559976503253,739.8639065003954,999,999,26,Female,1,2024/05/07_14:58:33,YZ,59.891572419901344,
,,,,,240507_151101,DEMANDRATING,9,,,,,,,,,,,,,,,,,,,,,,,,,,,,,,,1,,,,,,,,,,,,,,,,,,,,,,,,,,,,,,,,,,,,8,Effort,3,91,0.3107957001775503,741.6989048002288,999,999,26,Female,1,2024/05/07_14:58:33,YZ,59.891572419901344,
,,,,,240507_151103,DEMANDRATING,9,,,,,,,,,,,,,,,,,,,,,,,,,,,,,,,1,,,,,,,,,,,,,,,,,,,,,,,,,,,,,,,,,,,,9,Frustration,3,91,0.29712949972599745,743.5166629003361,999,999,26,Female,1,2024/05/07_14:58:33,YZ,59.891572419901344,
1,.\instructions\inst_end\Slide1.png,right,0.5816867002286017,746.5687355999835,747.1504223002121,,,,,,,,,,,,,,,,,,,,,,,,,,,,,,,,,1,,,,,,,,,,,,,,,,,,,,,,,,,,,,,,,,,,,,,,,,,,999,999,26,Female,1,2024/05/07_14:58:33,YZ,59.891572419901344,
