Instruction,Stimulus,Key,RT,START,END,Phase,Block,TrialN,NbackLevel,ISI,LetterN,Letter,Letter_isSame,Letter_Resp,Letter_RT,Letter_Accuracy,Letter_Timeout,Trial_A_measure,Trial_HR,Trial_FAR,Trial_CDR,Trial_MSR,Trial_ACC,Trial_RT,Trial_HitsCount,Trial_FAsCount,Trial_SameNoRespCount,Trial_DiffNoRespCount,Trial_NoRespCount,Trial_CDsCount,Trial_CorrectRespCount,Trial_SameLetterCount,Trial_DiffLetterCount,Trial_InvalidLetterCount,TrialCountCali,CaliEnd_A_measure,ISI_calibrated,Run,TrialIndex,TrialNumber_total,TrialNumber_valid,CueLearning,TrialDemandLearning,CueMapping,OnlineRating,OnlineRatingRT,OnlineRatingTimeOut,CueSTART,RatingSTART,OfflineRatingTimePoint,OfflineRatingQuesIndex,CueFigure,TrialDemand,OfflineRating,OfflineRatingRT,CueStart,OfflineRatingStart,PhaseType,CueLeft,CueDemandLeft,CueRight,CueDemandRight,Choice,ChoiceDemand,TaskDemand,ChoiceRT,ChoiceTimeOut,ChoiceSTART,CueCheck,CueDemandCheck,CorrectAnswer,Answer,AnswerDemand,AnswerRT,AnswerACC,AnswerTimeOut,CheckSTART,DemandRatingQuesIndex,QuesTLX,DemandLevel,DemandRating,DemandRatingRT,QuesStart,PID,SONA,Age,Gender,Run,TIME,EXPERIMENTER,frameRate,
1,./instructions/inst_begin/Slide2.png,right,17.693337196978973,0.11235755000961944,17.805694746988593,,,,,,,,,,,,,,,,,,,,,,,,,,,,,,,,,1,,,,,,,,,,,,,,,,,,,,,,,,,,,,,,,,,,,,,,,,,,,,,,91,151792,19,Female,1,2024/03/14_15:48:08,YZ,None,
2,./instructions/inst_begin/Slide3.png,right,9.679091044992674,17.838070844998583,27.517161889991257,,,,,,,,,,,,,,,,,,,,,,,,,,,,,,,,,1,,,,,,,,,,,,,,,,,,,,,,,,,,,,,,,,,,,,,,,,,,,,,,91,151792,19,Female,1,2024/03/14_15:48:08,YZ,None,
3,./instructions/inst_begin/Slide4.png,right,7.426287469977979,27.546823648008285,34.973111117986264,,,,,,,,,,,,,,,,,,,,,,,,,,,,,,,,,1,,,,,,,,,,,,,,,,,,,,,,,,,,,,,,,,,,,,,,,,,,,,,,91,151792,19,Female,1,2024/03/14_15:48:08,YZ,None,
1,./instructions/inst_prac_2/Slide6.png,right,17.54224219400203,35.007050118001644,52.54929231200367,,,,,,,,,,,,,,,,,,,,,,,,,,,,,,,,,1,,,,,,,,,,,,,,,,,,,,,,,,,,,,,,,,,,,,,,,,,,,,,,91,151792,19,Female,1,2024/03/14_15:48:08,YZ,None,
2,./instructions/inst_prac_2/Slide7.png,right,0.2005585060105659,52.57912783298525,52.779686338995816,,,,,,,,,,,,,,,,,,,,,,,,,,,,,,,,,1,,,,,,,,,,,,,,,,,,,,,,,,,,,,,,,,,,,,,,,,,,,,,,91,151792,19,Female,1,2024/03/14_15:48:08,YZ,None,
3,./instructions/inst_prac_2/Slide8.png,right,17.234417842992116,52.80274232800002,70.03716017099214,,,,,,,,,,,,,,,,,,,,,,,,,,,,,,,,,1,,,,,,,,,,,,,,,,,,,,,,,,,,,,,,,,,,,,,,,,,,,,,,91,151792,19,Female,1,2024/03/14_15:48:08,YZ,None,
4,./instructions/inst_prac_2/Slide9.png,right,0.20043202201486565,70.06660015499801,70.26703217701288,,,,,,,,,,,,,,,,,,,,,,,,,,,,,,,,,1,,,,,,,,,,,,,,,,,,,,,,,,,,,,,,,,,,,,,,,,,,,,,,91,151792,19,Female,1,2024/03/14_15:48:08,YZ,None,
5,./instructions/inst_prac_2/Slide10.png,right,10.594760929991025,70.29030871001305,80.88506964000408,,,,,,,,,,,,,,,,,,,,,,,,,,,,,,,,,1,,,,,,,,,,,,,,,,,,,,,,,,,,,,,,,,,,,,,,,,,,,,,,91,151792,19,Female,1,2024/03/14_15:48:08,YZ,None,
6,./instructions/inst_prac_2/Slide11.png,right,2.370805898011895,80.91437682698597,83.28518272499787,,,,,,,,,,,,,,,,,,,,,,,,,,,,,,,,,1,,,,,,,,,,,,,,,,,,,,,,,,,,,,,,,,,,,,,,,,,,,,,,91,151792,19,Female,1,2024/03/14_15:48:08,YZ,None,
7,./instructions/inst_prac_2/Slide12.png,right,1.8930722509976476,83.3120435269957,85.20511577799334,,,,,,,,,,,,,,,,,,,,,,,,,,,,,,,,,1,,,,,,,,,,,,,,,,,,,,,,,,,,,,,,,,,,,,,,,,,,,,,,91,151792,19,Female,1,2024/03/14_15:48:08,YZ,None,
8,./instructions/inst_prac_2/Slide13.png,right,2.0910208149871323,85.23413570300909,87.32515651799622,,,,,,,,,,,,,,,,,,,,,,,,,,,,,,,,,1,,,,,,,,,,,,,,,,,,,,,,,,,,,,,,,,,,,,,,,,,,,,,,91,151792,19,Female,1,2024/03/14_15:48:08,YZ,None,
9,./instructions/inst_prac_2/Slide14.png,right,17.723388087004423,87.3542156110052,105.07760369800963,,,,,,,,,,,,,,,,,,,,,,,,,,,,,,,,,1,,,,,,,,,,,,,,,,,,,,,,,,,,,,,,,,,,,,,,,,,,,,,,91,151792,19,Female,1,2024/03/14_15:48:08,YZ,None,
10,./instructions/inst_prac_2/Slide15.png,right,14.625669501983793,105.10752457700437,119.73319407898816,,,,,,,,,,,,,,,,,,,,,,,,,,,,,,,,,1,,,,,,,,,,,,,,,,,,,,,,,,,,,,,,,,,,,,,,,,,,,,,,91,151792,19,Female,1,2024/03/14_15:48:08,YZ,None,
,,,,,,practice,0,17,2,2583,1,C,0,right,5.3622182449908,1,0,,,,,,,,,,,,,,,,,,,,,1,,,,,,,,,,,,,,,,,,,,,,,,,,,,,,,,,,,,,,,,,,,,,,91,151792,19,Female,1,2024/03/14_15:48:08,YZ,None,
,,,,,,practice,0,17,2,2583,2,N,0,right,1.7713511479960289,1,0,,,,,,,,,,,,,,,,,,,,,1,,,,,,,,,,,,,,,,,,,,,,,,,,,,,,,,,,,,,,,,,,,,,,91,151792,19,Female,1,2024/03/14_15:48:08,YZ,None,
,,,,,,practice,0,17,2,2583,3,S,0,right,2.6434908240044024,1,0,,,,,,,,,,,,,,,,,,,,,1,,,,,,,,,,,,,,,,,,,,,,,,,,,,,,,,,,,,,,,,,,,,,,91,151792,19,Female,1,2024/03/14_15:48:08,YZ,None,
,,,,,,practice,0,17,2,2583,4,X,0,right,1.2486989739991259,1,0,,,,,,,,,,,,,,,,,,,,,1,,,,,,,,,,,,,,,,,,,,,,,,,,,,,,,,,,,,,,,,,,,,,,91,151792,19,Female,1,2024/03/14_15:48:08,YZ,None,
,,,,,,practice,0,17,2,2583,5,S,1,right,1.036735233006766,0,0,,,,,,,,,,,,,,,,,,,,,1,,,,,,,,,,,,,,,,,,,,,,,,,,,,,,,,,,,,,,,,,,,,,,91,151792,19,Female,1,2024/03/14_15:48:08,YZ,None,
,,,,,,practice,0,17,2,2583,6,X,1,left,1.275928605988156,1,0,,,,,,,,,,,,,,,,,,,,,1,,,,,,,,,,,,,,,,,,,,,,,,,,,,,,,,,,,,,,,,,,,,,,91,151792,19,Female,1,2024/03/14_15:48:08,YZ,None,
,,,,,,practice,0,17,2,2583,,,,,,,,0.875,0.5,0.0,1.0,0.0,1.0,2.2230705049975463,1,0,0,0,0,4,5,2,4,0,,,,1,,,,,,,,,,,,,,,,,,,,,,,,,,,,,,,,,,,,,,,,,,,,,,91,151792,19,Female,1,2024/03/14_15:48:08,YZ,None,
1,./instructions/inst_to_cali/Slide20.png,right,3.08128621900687,139.93185801399522,143.0131442330021,,,,,,,,,,,,,,,,,,,,,,,,,,,,,,,,,1,,,,,,,,,,,,,,,,,,,,,,,,,,,,,,,,,,,,,,,,,,,,,,91,151792,19,Female,1,2024/03/14_15:48:08,YZ,None,
-1,./instructions/inst_cali/Slide22.png,left,3.8543708739744034,143.0468801970128,146.9012510709872,,,,,,,,,,,,,,,,,,,,,,,,,,,,,,,,,1,,,,,,,,,,,,,,,,,,,,,,,,,,,,,,,,,,,,,,,,,,,,,,91,151792,19,Female,1,2024/03/14_15:48:08,YZ,None,
,,,,,,calibration,0,11,2,583,1,S,0,None,nan,0,1,,,,,,,,,,,,,,,,,,,,,1,,,,,,,,,,,,,,,,,,,,,,,,,,,,,,,,,,,,,,,,,,,,,,91,151792,19,Female,1,2024/03/14_15:48:08,YZ,None,
,,,,,,calibration,0,11,2,583,2,C,0,None,nan,0,1,,,,,,,,,,,,,,,,,,,,,1,,,,,,,,,,,,,,,,,,,,,,,,,,,,,,,,,,,,,,,,,,,,,,91,151792,19,Female,1,2024/03/14_15:48:08,YZ,None,
,,,,,,calibration,0,11,2,583,3,N,0,right,0.18497584300348535,1,0,,,,,,,,,,,,,,,,,,,,,1,,,,,,,,,,,,,,,,,,,,,,,,,,,,,,,,,,,,,,,,,,,,,,91,151792,19,Female,1,2024/03/14_15:48:08,YZ,None,
,,,,,,calibration,0,11,2,583,4,S,0,left,0.007544280000729486,0,0,,,,,,,,,,,,,,,,,,,,,1,,,,,,,,,,,,,,,,,,,,,,,,,,,,,,,,,,,,,,,,,,,,,,91,151792,19,Female,1,2024/03/14_15:48:08,YZ,None,
,,,,,,calibration,0,11,2,583,5,N,1,left,nan,0,1,,,,,,,,,,,,,,,,,,,,,1,,,,,,,,,,,,,,,,,,,,,,,,,,,,,,,,,,,,,,,,,,,,,,91,151792,19,Female,1,2024/03/14_15:48:08,YZ,None,
,,,,,,calibration,0,11,2,583,6,C,0,right,0.3288879710016772,1,0,,,,,,,,,,,,,,,,,,,,,1,,,,,,,,,,,,,,,,,,,,,,,,,,,,,,,,,,,,,,,,,,,,,,91,151792,19,Female,1,2024/03/14_15:48:08,YZ,None,
,,,,,,calibration,0,11,2,583,7,S,0,right,nan,0,1,,,,,,,,,,,,,,,,,,,,,1,,,,,,,,,,,,,,,,,,,,,,,,,,,,,,,,,,,,,,,,,,,,,,91,151792,19,Female,1,2024/03/14_15:48:08,YZ,None,
,,,,,,calibration,0,11,2,583,8,Q,0,right,0.1603931889985688,1,0,,,,,,,,,,,,,,,,,,,,,1,,,,,,,,,,,,,,,,,,,,,,,,,,,,,,,,,,,,,,,,,,,,,,91,151792,19,Female,1,2024/03/14_15:48:08,YZ,None,
,,,,,,calibration,0,11,2,583,9,X,0,right,nan,0,1,,,,,,,,,,,,,,,,,,,,,1,,,,,,,,,,,,,,,,,,,,,,,,,,,,,,,,,,,,,,,,,,,,,,91,151792,19,Female,1,2024/03/14_15:48:08,YZ,None,
,,,,,,calibration,0,11,2,583,10,J,0,left,0.13114942199899815,0,0,,,,,,,,,,,,,,,,,,,,,1,,,,,,,,,,,,,,,,,,,,,,,,,,,,,,,,,,,,,,,,,,,,,,91,151792,19,Female,1,2024/03/14_15:48:08,YZ,None,
,,,,,,calibration,0,11,2,583,11,X,1,left,nan,0,1,,,,,,,,,,,,,,,,,,,,,1,,,,,,,,,,,,,,,,,,,,,,,,,,,,,,,,,,,,,,,,,,,,,,91,151792,19,Female,1,2024/03/14_15:48:08,YZ,None,
,,,,,,calibration,0,11,2,583,12,Q,0,right,0.1290838219865691,1,0,,,,,,,,,,,,,,,,,,,,,1,,,,,,,,,,,,,,,,,,,,,,,,,,,,,,,,,,,,,,,,,,,,,,91,151792,19,Female,1,2024/03/14_15:48:08,YZ,None,
,,,,,,calibration,0,11,2,583,13,X,1,right,nan,0,1,,,,,,,,,,,,,,,,,,,,,1,,,,,,,,,,,,,,,,,,,,,,,,,,,,,,,,,,,,,,,,,,,,,,91,151792,19,Female,1,2024/03/14_15:48:08,YZ,None,
,,,,,,calibration,0,11,2,583,14,Q,1,left,0.26382204302353784,1,0,,,,,,,,,,,,,,,,,,,,,1,,,,,,,,,,,,,,,,,,,,,,,,,,,,,,,,,,,,,,,,,,,,,,91,151792,19,Female,1,2024/03/14_15:48:08,YZ,None,
,,,,,,calibration,0,11,2,583,15,F,0,left,nan,0,1,,,,,,,,,,,,,,,,,,,,,1,,,,,,,,,,,,,,,,,,,,,,,,,,,,,,,,,,,,,,,,,,,,,,91,151792,19,Female,1,2024/03/14_15:48:08,YZ,None,
,,,,,,calibration,0,11,2,583,,,,,,,,0.5852272727272727,0.25,0.18181818181818182,0.6666666666666666,0.5333333333333333,0.2848484848484848,0.17226522428765229,1,2,3,5,8,4,5,4,11,0,,,,1,,,,,,,,,,,,,,,,,,,,,,,,,,,,,,,,,,,,,,,,,,,,,,91,151792,19,Female,1,2024/03/14_15:48:08,YZ,None,
,,,,,,Calibration,0,,2,583,,,,,,,,,,,,,,,,,,,,,,,,,1,,,1,,,,,,,,,,,,,,,,,,,,,,,,,,,,,,,,,,,,,,,,,,,,,,91,151792,19,Female,1,2024/03/14_15:48:08,YZ,None,
,,,,,,calibration,0,31,2,679,1,C,0,left,0.6315962240041699,0,0,,,,,,,,,,,,,,,,,,,,,1,,,,,,,,,,,,,,,,,,,,,,,,,,,,,,,,,,,,,,,,,,,,,,91,151792,19,Female,1,2024/03/14_15:48:08,YZ,None,
,,,,,,calibration,0,31,2,679,2,Q,0,left,nan,0,1,,,,,,,,,,,,,,,,,,,,,1,,,,,,,,,,,,,,,,,,,,,,,,,,,,,,,,,,,,,,,,,,,,,,91,151792,19,Female,1,2024/03/14_15:48:08,YZ,None,
,,,,,,calibration,0,31,2,679,3,S,0,right,0.31561981097911485,1,0,,,,,,,,,,,,,,,,,,,,,1,,,,,,,,,,,,,,,,,,,,,,,,,,,,,,,,,,,,,,,,,,,,,,91,151792,19,Female,1,2024/03/14_15:48:08,YZ,None,
,,,,,,calibration,0,31,2,679,4,Q,1,left,0.8931679189845454,1,0,,,,,,,,,,,,,,,,,,,,,1,,,,,,,,,,,,,,,,,,,,,,,,,,,,,,,,,,,,,,,,,,,,,,91,151792,19,Female,1,2024/03/14_15:48:08,YZ,None,
,,,,,,calibration,0,31,2,679,5,J,0,right,0.564389470993774,1,0,,,,,,,,,,,,,,,,,,,,,1,,,,,,,,,,,,,,,,,,,,,,,,,,,,,,,,,,,,,,,,,,,,,,91,151792,19,Female,1,2024/03/14_15:48:08,YZ,None,
,,,,,,calibration,0,31,2,679,6,N,0,right,0.512252938002348,1,0,,,,,,,,,,,,,,,,,,,,,1,,,,,,,,,,,,,,,,,,,,,,,,,,,,,,,,,,,,,,,,,,,,,,91,151792,19,Female,1,2024/03/14_15:48:08,YZ,None,
,,,,,,calibration,0,31,2,679,7,J,1,right,0.5410568070074078,0,0,,,,,,,,,,,,,,,,,,,,,1,,,,,,,,,,,,,,,,,,,,,,,,,,,,,,,,,,,,,,,,,,,,,,91,151792,19,Female,1,2024/03/14_15:48:08,YZ,None,
,,,,,,calibration,0,31,2,679,8,C,0,right,0.5885462279838976,1,0,,,,,,,,,,,,,,,,,,,,,1,,,,,,,,,,,,,,,,,,,,,,,,,,,,,,,,,,,,,,,,,,,,,,91,151792,19,Female,1,2024/03/14_15:48:08,YZ,None,
,,,,,,calibration,0,31,2,679,9,V,0,right,0.48419425898464397,1,0,,,,,,,,,,,,,,,,,,,,,1,,,,,,,,,,,,,,,,,,,,,,,,,,,,,,,,,,,,,,,,,,,,,,91,151792,19,Female,1,2024/03/14_15:48:08,YZ,None,
,,,,,,calibration,0,31,2,679,10,C,1,right,0.4486558329954278,0,0,,,,,,,,,,,,,,,,,,,,,1,,,,,,,,,,,,,,,,,,,,,,,,,,,,,,,,,,,,,,,,,,,,,,91,151792,19,Female,1,2024/03/14_15:48:08,YZ,None,
,,,,,,calibration,0,31,2,679,11,N,0,right,0.484894938999787,1,0,,,,,,,,,,,,,,,,,,,,,1,,,,,,,,,,,,,,,,,,,,,,,,,,,,,,,,,,,,,,,,,,,,,,91,151792,19,Female,1,2024/03/14_15:48:08,YZ,None,
,,,,,,calibration,0,31,2,679,12,C,1,left,0.4553400939912535,1,0,,,,,,,,,,,,,,,,,,,,,1,,,,,,,,,,,,,,,,,,,,,,,,,,,,,,,,,,,,,,,,,,,,,,91,151792,19,Female,1,2024/03/14_15:48:08,YZ,None,
,,,,,,calibration,0,31,2,679,13,V,0,right,0.37605549400905147,1,0,,,,,,,,,,,,,,,,,,,,,1,,,,,,,,,,,,,,,,,,,,,,,,,,,,,,,,,,,,,,,,,,,,,,91,151792,19,Female,1,2024/03/14_15:48:08,YZ,None,
,,,,,,calibration,0,31,2,679,14,N,0,left,0.7270562409830745,0,0,,,,,,,,,,,,,,,,,,,,,1,,,,,,,,,,,,,,,,,,,,,,,,,,,,,,,,,,,,,,,,,,,,,,91,151792,19,Female,1,2024/03/14_15:48:08,YZ,None,
,,,,,,calibration,0,31,2,679,,,,,,,,0.725,0.5,0.2,0.7777777777777778,0.07142857142857142,0.7285714285714286,0.5402174044552689,2,2,0,1,1,7,9,4,10,0,,,,1,,,,,,,,,,,,,,,,,,,,,,,,,,,,,,,,,,,,,,,,,,,,,,91,151792,19,Female,1,2024/03/14_15:48:08,YZ,None,
,,,,,,Calibration,0,,2,679,,,,,,,,,,,,,,,,,,,,,,,,,2,,,1,,,,,,,,,,,,,,,,,,,,,,,,,,,,,,,,,,,,,,,,,,,,,,91,151792,19,Female,1,2024/03/14_15:48:08,YZ,None,
,,,,,,calibration,0,19,2,788,1,F,0,right,0.4131925519905053,1,0,,,,,,,,,,,,,,,,,,,,,1,,,,,,,,,,,,,,,,,,,,,,,,,,,,,,,,,,,,,,,,,,,,,,91,151792,19,Female,1,2024/03/14_15:48:08,YZ,None,
,,,,,,calibration,0,19,2,788,2,N,0,right,0.9127165710087866,1,0,,,,,,,,,,,,,,,,,,,,,1,,,,,,,,,,,,,,,,,,,,,,,,,,,,,,,,,,,,,,,,,,,,,,91,151792,19,Female,1,2024/03/14_15:48:08,YZ,None,
,,,,,,calibration,0,19,2,788,3,F,1,left,0.6248202749993652,1,0,,,,,,,,,,,,,,,,,,,,,1,,,,,,,,,,,,,,,,,,,,,,,,,,,,,,,,,,,,,,,,,,,,,,91,151792,19,Female,1,2024/03/14_15:48:08,YZ,None,
,,,,,,calibration,0,19,2,788,4,V,0,right,0.36252408000291325,1,0,,,,,,,,,,,,,,,,,,,,,1,,,,,,,,,,,,,,,,,,,,,,,,,,,,,,,,,,,,,,,,,,,,,,91,151792,19,Female,1,2024/03/14_15:48:08,YZ,None,
,,,,,,calibration,0,19,2,788,5,F,1,left,0.4493565009906888,1,0,,,,,,,,,,,,,,,,,,,,,1,,,,,,,,,,,,,,,,,,,,,,,,,,,,,,,,,,,,,,,,,,,,,,91,151792,19,Female,1,2024/03/14_15:48:08,YZ,None,
,,,,,,calibration,0,19,2,788,6,C,0,right,0.42554768998525105,1,0,,,,,,,,,,,,,,,,,,,,,1,,,,,,,,,,,,,,,,,,,,,,,,,,,,,,,,,,,,,,,,,,,,,,91,151792,19,Female,1,2024/03/14_15:48:08,YZ,None,
,,,,,,calibration,0,19,2,788,7,F,1,left,0.37854524501017295,1,0,,,,,,,,,,,,,,,,,,,,,1,,,,,,,,,,,,,,,,,,,,,,,,,,,,,,,,,,,,,,,,,,,,,,91,151792,19,Female,1,2024/03/14_15:48:08,YZ,None,
,,,,,,calibration,0,19,2,788,8,S,0,right,0.2522697559907101,1,0,,,,,,,,,,,,,,,,,,,,,1,,,,,,,,,,,,,,,,,,,,,,,,,,,,,,,,,,,,,,,,,,,,,,91,151792,19,Female,1,2024/03/14_15:48:08,YZ,None,
,,,,,,calibration,0,19,2,788,9,X,0,right,0.3917275959975086,1,0,,,,,,,,,,,,,,,,,,,,,1,,,,,,,,,,,,,,,,,,,,,,,,,,,,,,,,,,,,,,,,,,,,,,91,151792,19,Female,1,2024/03/14_15:48:08,YZ,None,
,,,,,,calibration,0,19,2,788,10,F,0,left,0.43275482300668955,0,0,,,,,,,,,,,,,,,,,,,,,1,,,,,,,,,,,,,,,,,,,,,,,,,,,,,,,,,,,,,,,,,,,,,,91,151792,19,Female,1,2024/03/14_15:48:08,YZ,None,
,,,,,,calibration,0,19,2,788,11,J,0,right,0.30426932498812675,1,0,,,,,,,,,,,,,,,,,,,,,1,,,,,,,,,,,,,,,,,,,,,,,,,,,,,,,,,,,,,,,,,,,,,,91,151792,19,Female,1,2024/03/14_15:48:08,YZ,None,
,,,,,,calibration,0,19,2,788,12,F,1,left,0.6032249680138193,1,0,,,,,,,,,,,,,,,,,,,,,1,,,,,,,,,,,,,,,,,,,,,,,,,,,,,,,,,,,,,,,,,,,,,,91,151792,19,Female,1,2024/03/14_15:48:08,YZ,None,
,,,,,,calibration,0,19,2,788,13,N,0,right,0.3959828520019073,1,0,,,,,,,,,,,,,,,,,,,,,1,,,,,,,,,,,,,,,,,,,,,,,,,,,,,,,,,,,,,,,,,,,,,,91,151792,19,Female,1,2024/03/14_15:48:08,YZ,None,
,,,,,,calibration,0,19,2,788,,,,,,,,0.9722222222222222,1.0,0.1111111111111111,0.8888888888888888,0.0,0.8888888888888888,0.457456325691265,4,1,0,0,0,8,12,4,9,0,,,,1,,,,,,,,,,,,,,,,,,,,,,,,,,,,,,,,,,,,,,,,,,,,,,91,151792,19,Female,1,2024/03/14_15:48:08,YZ,None,
,,,,,,Calibration,0,,2,788,,,,,,,,,,,,,,,,,,,,,,,,,3,,,1,,,,,,,,,,,,,,,,,,,,,,,,,,,,,,,,,,,,,,,,,,,,,,91,151792,19,Female,1,2024/03/14_15:48:08,YZ,None,
,,,,,,calibration,0,3,2,679,1,S,0,left,1.1904503899859264,0,0,,,,,,,,,,,,,,,,,,,,,1,,,,,,,,,,,,,,,,,,,,,,,,,,,,,,,,,,,,,,,,,,,,,,91,151792,19,Female,1,2024/03/14_15:48:08,YZ,None,
,,,,,,calibration,0,3,2,679,2,S,0,right,0.676324426982319,1,0,,,,,,,,,,,,,,,,,,,,,1,,,,,,,,,,,,,,,,,,,,,,,,,,,,,,,,,,,,,,,,,,,,,,91,151792,19,Female,1,2024/03/14_15:48:08,YZ,None,
,,,,,,calibration,0,3,2,679,3,X,0,right,0.974874814011855,1,0,,,,,,,,,,,,,,,,,,,,,1,,,,,,,,,,,,,,,,,,,,,,,,,,,,,,,,,,,,,,,,,,,,,,91,151792,19,Female,1,2024/03/14_15:48:08,YZ,None,
,,,,,,calibration,0,3,2,679,4,C,0,left,0.5119747029966675,0,0,,,,,,,,,,,,,,,,,,,,,1,,,,,,,,,,,,,,,,,,,,,,,,,,,,,,,,,,,,,,,,,,,,,,91,151792,19,Female,1,2024/03/14_15:48:08,YZ,None,
,,,,,,calibration,0,3,2,679,5,N,0,right,0.8507170829980168,1,0,,,,,,,,,,,,,,,,,,,,,1,,,,,,,,,,,,,,,,,,,,,,,,,,,,,,,,,,,,,,,,,,,,,,91,151792,19,Female,1,2024/03/14_15:48:08,YZ,None,
,,,,,,calibration,0,3,2,679,6,F,0,left,0.5484590279811528,0,0,,,,,,,,,,,,,,,,,,,,,1,,,,,,,,,,,,,,,,,,,,,,,,,,,,,,,,,,,,,,,,,,,,,,91,151792,19,Female,1,2024/03/14_15:48:08,YZ,None,
,,,,,,calibration,0,3,2,679,7,S,0,right,0.4337687969964463,1,0,,,,,,,,,,,,,,,,,,,,,1,,,,,,,,,,,,,,,,,,,,,,,,,,,,,,,,,,,,,,,,,,,,,,91,151792,19,Female,1,2024/03/14_15:48:08,YZ,None,
,,,,,,calibration,0,3,2,679,8,F,1,left,0.46468058100435883,1,0,,,,,,,,,,,,,,,,,,,,,1,,,,,,,,,,,,,,,,,,,,,,,,,,,,,,,,,,,,,,,,,,,,,,91,151792,19,Female,1,2024/03/14_15:48:08,YZ,None,
,,,,,,calibration,0,3,2,679,9,V,0,right,0.3301198800036218,1,0,,,,,,,,,,,,,,,,,,,,,1,,,,,,,,,,,,,,,,,,,,,,,,,,,,,,,,,,,,,,,,,,,,,,91,151792,19,Female,1,2024/03/14_15:48:08,YZ,None,
,,,,,,calibration,0,3,2,679,10,F,1,left,0.3792789459985215,1,0,,,,,,,,,,,,,,,,,,,,,1,,,,,,,,,,,,,,,,,,,,,,,,,,,,,,,,,,,,,,,,,,,,,,91,151792,19,Female,1,2024/03/14_15:48:08,YZ,None,
,,,,,,calibration,0,3,2,679,11,X,0,right,0.4470453599933535,1,0,,,,,,,,,,,,,,,,,,,,,1,,,,,,,,,,,,,,,,,,,,,,,,,,,,,,,,,,,,,,,,,,,,,,91,151792,19,Female,1,2024/03/14_15:48:08,YZ,None,
,,,,,,calibration,0,3,2,679,12,N,0,right,0.5006231619918253,1,0,,,,,,,,,,,,,,,,,,,,,1,,,,,,,,,,,,,,,,,,,,,,,,,,,,,,,,,,,,,,,,,,,,,,91,151792,19,Female,1,2024/03/14_15:48:08,YZ,None,
,,,,,,calibration,0,3,2,679,13,X,1,right,0.6823245539853815,0,0,,,,,,,,,,,,,,,,,,,,,1,,,,,,,,,,,,,,,,,,,,,,,,,,,,,,,,,,,,,,,,,,,,,,91,151792,19,Female,1,2024/03/14_15:48:08,YZ,None,
,,,,,,calibration,0,3,2,679,14,N,1,left,0.5406166100001428,1,0,,,,,,,,,,,,,,,,,,,,,1,,,,,,,,,,,,,,,,,,,,,,,,,,,,,,,,,,,,,,,,,,,,,,91,151792,19,Female,1,2024/03/14_15:48:08,YZ,None,
,,,,,,calibration,0,3,2,679,,,,,,,,0.7875000000000001,0.75,0.3,0.7,0.0,0.7,0.6093755953521135,3,3,0,0,0,7,10,4,10,0,,,,1,,,,,,,,,,,,,,,,,,,,,,,,,,,,,,,,,,,,,,,,,,,,,,91,151792,19,Female,1,2024/03/14_15:48:08,YZ,None,
,,,,,,Calibration,0,,2,679,,,,,,,,,,,,,,,,,,,,,,,,,4,,,1,,,,,,,,,,,,,,,,,,,,,,,,,,,,,,,,,,,,,,,,,,,,,,91,151792,19,Female,1,2024/03/14_15:48:08,YZ,None,
,,,,,,calibration,0,27,2,679,1,J,0,right,1.163240441994276,1,0,,,,,,,,,,,,,,,,,,,,,1,,,,,,,,,,,,,,,,,,,,,,,,,,,,,,,,,,,,,,,,,,,,,,91,151792,19,Female,1,2024/03/14_15:48:08,YZ,None,
,,,,,,calibration,0,27,2,679,2,N,0,right,0.5632176000217441,1,0,,,,,,,,,,,,,,,,,,,,,1,,,,,,,,,,,,,,,,,,,,,,,,,,,,,,,,,,,,,,,,,,,,,,91,151792,19,Female,1,2024/03/14_15:48:08,YZ,None,
,,,,,,calibration,0,27,2,679,3,V,0,right,0.48222614999394864,1,0,,,,,,,,,,,,,,,,,,,,,1,,,,,,,,,,,,,,,,,,,,,,,,,,,,,,,,,,,,,,,,,,,,,,91,151792,19,Female,1,2024/03/14_15:48:08,YZ,None,
,,,,,,calibration,0,27,2,679,4,Q,0,right,0.5211822880082764,1,0,,,,,,,,,,,,,,,,,,,,,1,,,,,,,,,,,,,,,,,,,,,,,,,,,,,,,,,,,,,,,,,,,,,,91,151792,19,Female,1,2024/03/14_15:48:08,YZ,None,
,,,,,,calibration,0,27,2,679,5,V,1,left,0.4230429820017889,1,0,,,,,,,,,,,,,,,,,,,,,1,,,,,,,,,,,,,,,,,,,,,,,,,,,,,,,,,,,,,,,,,,,,,,91,151792,19,Female,1,2024/03/14_15:48:08,YZ,None,
,,,,,,calibration,0,27,2,679,6,J,0,left,0.4414334860048257,0,0,,,,,,,,,,,,,,,,,,,,,1,,,,,,,,,,,,,,,,,,,,,,,,,,,,,,,,,,,,,,,,,,,,,,91,151792,19,Female,1,2024/03/14_15:48:08,YZ,None,
,,,,,,calibration,0,27,2,679,7,N,0,right,0.5661084169987589,1,0,,,,,,,,,,,,,,,,,,,,,1,,,,,,,,,,,,,,,,,,,,,,,,,,,,,,,,,,,,,,,,,,,,,,91,151792,19,Female,1,2024/03/14_15:48:08,YZ,None,
,,,,,,calibration,0,27,2,679,8,J,1,right,0.5815702709951438,0,0,,,,,,,,,,,,,,,,,,,,,1,,,,,,,,,,,,,,,,,,,,,,,,,,,,,,,,,,,,,,,,,,,,,,91,151792,19,Female,1,2024/03/14_15:48:08,YZ,None,
,,,,,,calibration,0,27,2,679,9,Q,0,left,0.5915622739994433,0,0,,,,,,,,,,,,,,,,,,,,,1,,,,,,,,,,,,,,,,,,,,,,,,,,,,,,,,,,,,,,,,,,,,,,91,151792,19,Female,1,2024/03/14_15:48:08,YZ,None,
,,,,,,calibration,0,27,2,679,10,V,0,left,nan,0,1,,,,,,,,,,,,,,,,,,,,,1,,,,,,,,,,,,,,,,,,,,,,,,,,,,,,,,,,,,,,,,,,,,,,91,151792,19,Female,1,2024/03/14_15:48:08,YZ,None,
,,,,,,calibration,0,27,2,679,11,Q,1,right,0.08901295700343326,0,0,,,,,,,,,,,,,,,,,,,,,1,,,,,,,,,,,,,,,,,,,,,,,,,,,,,,,,,,,,,,,,,,,,,,91,151792,19,Female,1,2024/03/14_15:48:08,YZ,None,
,,,,,,calibration,0,27,2,679,12,J,0,left,0.36834689701208845,0,0,,,,,,,,,,,,,,,,,,,,,1,,,,,,,,,,,,,,,,,,,,,,,,,,,,,,,,,,,,,,,,,,,,,,91,151792,19,Female,1,2024/03/14_15:48:08,YZ,None,
,,,,,,calibration,0,27,2,679,13,Q,1,right,0.6855365399969742,0,0,,,,,,,,,,,,,,,,,,,,,1,,,,,,,,,,,,,,,,,,,,,,,,,,,,,,,,,,,,,,,,,,,,,,91,151792,19,Female,1,2024/03/14_15:48:08,YZ,None,
,,,,,,calibration,0,27,2,679,14,X,0,left,0.6408610480139032,0,0,,,,,,,,,,,,,,,,,,,,,1,,,,,,,,,,,,,,,,,,,,,,,,,,,,,,,,,,,,,,,,,,,,,,91,151792,19,Female,1,2024/03/14_15:48:08,YZ,None,
,,,,,,calibration,0,27,2,679,,,,,,,,0.056249999999999994,0.25,0.4,0.5555555555555556,0.07142857142857142,0.5285714285714286,0.5474877963111234,1,4,0,1,1,5,6,4,10,0,,,,1,,,,,,,,,,,,,,,,,,,,,,,,,,,,,,,,,,,,,,,,,,,,,,91,151792,19,Female,1,2024/03/14_15:48:08,YZ,None,
,,,,,,Calibration,0,,2,679,,,,,,,,,,,,,,,,,,,,,,,,,5,,,1,,,,,,,,,,,,,,,,,,,,,,,,,,,,,,,,,,,,,,,,,,,,,,91,151792,19,Female,1,2024/03/14_15:48:08,YZ,None,
,,,,,,calibration,0,28,2,788,1,V,0,right,0.3816381079959683,1,0,,,,,,,,,,,,,,,,,,,,,1,,,,,,,,,,,,,,,,,,,,,,,,,,,,,,,,,,,,,,,,,,,,,,91,151792,19,Female,1,2024/03/14_15:48:08,YZ,None,
,,,,,,calibration,0,28,2,788,2,V,0,left,0.0,0,0,,,,,,,,,,,,,,,,,,,,,1,,,,,,,,,,,,,,,,,,,,,,,,,,,,,,,,,,,,,,,,,,,,,,91,151792,19,Female,1,2024/03/14_15:48:08,YZ,None,
,,,,,,calibration,0,28,2,788,3,F,0,left,0.6712314700125717,0,0,,,,,,,,,,,,,,,,,,,,,1,,,,,,,,,,,,,,,,,,,,,,,,,,,,,,,,,,,,,,,,,,,,,,91,151792,19,Female,1,2024/03/14_15:48:08,YZ,None,
,,,,,,calibration,0,28,2,788,4,X,0,right,0.25506038501043804,1,0,,,,,,,,,,,,,,,,,,,,,1,,,,,,,,,,,,,,,,,,,,,,,,,,,,,,,,,,,,,,,,,,,,,,91,151792,19,Female,1,2024/03/14_15:48:08,YZ,None,
,,,,,,calibration,0,28,2,788,5,F,1,left,0.4573363840172533,1,0,,,,,,,,,,,,,,,,,,,,,1,,,,,,,,,,,,,,,,,,,,,,,,,,,,,,,,,,,,,,,,,,,,,,91,151792,19,Female,1,2024/03/14_15:48:08,YZ,None,
,,,,,,calibration,0,28,2,788,6,V,0,right,0.5306056839763187,1,0,,,,,,,,,,,,,,,,,,,,,1,,,,,,,,,,,,,,,,,,,,,,,,,,,,,,,,,,,,,,,,,,,,,,91,151792,19,Female,1,2024/03/14_15:48:08,YZ,None,
,,,,,,calibration,0,28,2,788,7,F,1,right,0.5305379289784469,0,0,,,,,,,,,,,,,,,,,,,,,1,,,,,,,,,,,,,,,,,,,,,,,,,,,,,,,,,,,,,,,,,,,,,,91,151792,19,Female,1,2024/03/14_15:48:08,YZ,None,
,,,,,,calibration,0,28,2,788,8,Q,0,left,0.5810774749843404,0,0,,,,,,,,,,,,,,,,,,,,,1,,,,,,,,,,,,,,,,,,,,,,,,,,,,,,,,,,,,,,,,,,,,,,91,151792,19,Female,1,2024/03/14_15:48:08,YZ,None,
,,,,,,calibration,0,28,2,788,9,S,0,right,0.2125082400161773,1,0,,,,,,,,,,,,,,,,,,,,,1,,,,,,,,,,,,,,,,,,,,,,,,,,,,,,,,,,,,,,,,,,,,,,91,151792,19,Female,1,2024/03/14_15:48:08,YZ,None,
,,,,,,calibration,0,28,2,788,10,Q,1,right,0.5294373910001013,0,0,,,,,,,,,,,,,,,,,,,,,1,,,,,,,,,,,,,,,,,,,,,,,,,,,,,,,,,,,,,,,,,,,,,,91,151792,19,Female,1,2024/03/14_15:48:08,YZ,None,
,,,,,,calibration,0,28,2,788,11,F,0,left,0.05122759999358095,0,0,,,,,,,,,,,,,,,,,,,,,1,,,,,,,,,,,,,,,,,,,,,,,,,,,,,,,,,,,,,,,,,,,,,,91,151792,19,Female,1,2024/03/14_15:48:08,YZ,None,
,,,,,,calibration,0,28,2,788,12,Q,1,left,0.1763045779953245,1,0,,,,,,,,,,,,,,,,,,,,,1,,,,,,,,,,,,,,,,,,,,,,,,,,,,,,,,,,,,,,,,,,,,,,91,151792,19,Female,1,2024/03/14_15:48:08,YZ,None,
,,,,,,calibration,0,28,2,788,13,J,0,right,0.4008939149789512,1,0,,,,,,,,,,,,,,,,,,,,,1,,,,,,,,,,,,,,,,,,,,,,,,,,,,,,,,,,,,,,,,,,,,,,91,151792,19,Female,1,2024/03/14_15:48:08,YZ,None,
,,,,,,calibration,0,28,2,788,,,,,,,,0.5416666666666666,0.5,0.4444444444444444,0.5555555555555556,0.0,0.5555555555555556,0.3675276276122671,2,4,0,0,0,5,7,4,9,0,,,,1,,,,,,,,,,,,,,,,,,,,,,,,,,,,,,,,,,,,,,,,,,,,,,91,151792,19,Female,1,2024/03/14_15:48:08,YZ,None,
,,,,,,Calibration,0,,2,788,,,,,,,,,,,,,,,,,,,,,,,,,6,,,1,,,,,,,,,,,,,,,,,,,,,,,,,,,,,,,,,,,,,,,,,,,,,,91,151792,19,Female,1,2024/03/14_15:48:08,YZ,None,
,,,,,,calibration,0,9,2,917,1,J,0,left,0.910277599003166,0,0,,,,,,,,,,,,,,,,,,,,,1,,,,,,,,,,,,,,,,,,,,,,,,,,,,,,,,,,,,,,,,,,,,,,91,151792,19,Female,1,2024/03/14_15:48:08,YZ,None,
,,,,,,calibration,0,9,2,917,2,S,0,right,0.3793781769927591,1,0,,,,,,,,,,,,,,,,,,,,,1,,,,,,,,,,,,,,,,,,,,,,,,,,,,,,,,,,,,,,,,,,,,,,91,151792,19,Female,1,2024/03/14_15:48:08,YZ,None,
,,,,,,calibration,0,9,2,917,3,J,1,left,0.3925454950076528,1,0,,,,,,,,,,,,,,,,,,,,,1,,,,,,,,,,,,,,,,,,,,,,,,,,,,,,,,,,,,,,,,,,,,,,91,151792,19,Female,1,2024/03/14_15:48:08,YZ,None,
,,,,,,calibration,0,9,2,917,4,X,0,right,0.41585800200118683,1,0,,,,,,,,,,,,,,,,,,,,,1,,,,,,,,,,,,,,,,,,,,,,,,,,,,,,,,,,,,,,,,,,,,,,91,151792,19,Female,1,2024/03/14_15:48:08,YZ,None,
,,,,,,calibration,0,9,2,917,5,V,0,right,0.712520469998708,1,0,,,,,,,,,,,,,,,,,,,,,1,,,,,,,,,,,,,,,,,,,,,,,,,,,,,,,,,,,,,,,,,,,,,,91,151792,19,Female,1,2024/03/14_15:48:08,YZ,None,
,,,,,,calibration,0,9,2,917,6,S,0,right,0.5982368299737573,1,0,,,,,,,,,,,,,,,,,,,,,1,,,,,,,,,,,,,,,,,,,,,,,,,,,,,,,,,,,,,,,,,,,,,,91,151792,19,Female,1,2024/03/14_15:48:08,YZ,None,
,,,,,,calibration,0,9,2,917,7,X,0,right,1.3583663280005567,1,0,,,,,,,,,,,,,,,,,,,,,1,,,,,,,,,,,,,,,,,,,,,,,,,,,,,,,,,,,,,,,,,,,,,,91,151792,19,Female,1,2024/03/14_15:48:08,YZ,None,
,,,,,,calibration,0,9,2,917,8,S,1,right,0.7157592799921986,0,0,,,,,,,,,,,,,,,,,,,,,1,,,,,,,,,,,,,,,,,,,,,,,,,,,,,,,,,,,,,,,,,,,,,,91,151792,19,Female,1,2024/03/14_15:48:08,YZ,None,
,,,,,,calibration,0,9,2,917,9,Q,0,left,0.3418613290123176,0,0,,,,,,,,,,,,,,,,,,,,,1,,,,,,,,,,,,,,,,,,,,,,,,,,,,,,,,,,,,,,,,,,,,,,91,151792,19,Female,1,2024/03/14_15:48:08,YZ,None,
,,,,,,calibration,0,9,2,917,10,S,1,right,0.4364946119894739,0,0,,,,,,,,,,,,,,,,,,,,,1,,,,,,,,,,,,,,,,,,,,,,,,,,,,,,,,,,,,,,,,,,,,,,91,151792,19,Female,1,2024/03/14_15:48:08,YZ,None,
,,,,,,calibration,0,9,2,917,11,J,0,right,0.4250749250059016,1,0,,,,,,,,,,,,,,,,,,,,,1,,,,,,,,,,,,,,,,,,,,,,,,,,,,,,,,,,,,,,,,,,,,,,91,151792,19,Female,1,2024/03/14_15:48:08,YZ,None,
,,,,,,calibration,0,9,2,917,12,C,0,left,0.6679853360110428,0,0,,,,,,,,,,,,,,,,,,,,,1,,,,,,,,,,,,,,,,,,,,,,,,,,,,,,,,,,,,,,,,,,,,,,91,151792,19,Female,1,2024/03/14_15:48:08,YZ,None,
,,,,,,calibration,0,9,2,917,,,,,,,,0.5,0.3333333333333333,0.3333333333333333,0.6666666666666666,0.0,0.6666666666666667,0.6128631985823935,1,3,0,0,0,6,7,3,9,0,,,,1,,,,,,,,,,,,,,,,,,,,,,,,,,,,,,,,,,,,,,,,,,,,,,91,151792,19,Female,1,2024/03/14_15:48:08,YZ,None,
,,,,,,Calibration,0,,2,917,,,,,,,,,,,,,,,,,,,,,,,,,7,,,1,,,,,,,,,,,,,,,,,,,,,,,,,,,,,,,,,,,,,,,,,,,,,,91,151792,19,Female,1,2024/03/14_15:48:08,YZ,None,
,,,,,,calibration,0,8,2,1068,1,X,0,right,0.16385518098832108,1,0,,,,,,,,,,,,,,,,,,,,,1,,,,,,,,,,,,,,,,,,,,,,,,,,,,,,,,,,,,,,,,,,,,,,91,151792,19,Female,1,2024/03/14_15:48:08,YZ,None,
,,,,,,calibration,0,8,2,1068,2,C,0,left,0.161106668994762,0,0,,,,,,,,,,,,,,,,,,,,,1,,,,,,,,,,,,,,,,,,,,,,,,,,,,,,,,,,,,,,,,,,,,,,91,151792,19,Female,1,2024/03/14_15:48:08,YZ,None,
,,,,,,calibration,0,8,2,1068,3,V,0,right,0.11250638499041088,1,0,,,,,,,,,,,,,,,,,,,,,1,,,,,,,,,,,,,,,,,,,,,,,,,,,,,,,,,,,,,,,,,,,,,,91,151792,19,Female,1,2024/03/14_15:48:08,YZ,None,
,,,,,,calibration,0,8,2,1068,4,C,1,right,0.06678619101876393,0,0,,,,,,,,,,,,,,,,,,,,,1,,,,,,,,,,,,,,,,,,,,,,,,,,,,,,,,,,,,,,,,,,,,,,91,151792,19,Female,1,2024/03/14_15:48:08,YZ,None,
,,,,,,calibration,0,8,2,1068,5,N,0,left,0.023836303007556126,0,0,,,,,,,,,,,,,,,,,,,,,1,,,,,,,,,,,,,,,,,,,,,,,,,,,,,,,,,,,,,,,,,,,,,,91,151792,19,Female,1,2024/03/14_15:48:08,YZ,None,
,,,,,,calibration,0,8,2,1068,6,Q,0,right,0.34433207899564877,1,0,,,,,,,,,,,,,,,,,,,,,1,,,,,,,,,,,,,,,,,,,,,,,,,,,,,,,,,,,,,,,,,,,,,,91,151792,19,Female,1,2024/03/14_15:48:08,YZ,None,
,,,,,,calibration,0,8,2,1068,7,S,0,right,0.43315405200701207,1,0,,,,,,,,,,,,,,,,,,,,,1,,,,,,,,,,,,,,,,,,,,,,,,,,,,,,,,,,,,,,,,,,,,,,91,151792,19,Female,1,2024/03/14_15:48:08,YZ,None,
,,,,,,calibration,0,8,2,1068,8,F,0,right,0.6990296349977143,1,0,,,,,,,,,,,,,,,,,,,,,1,,,,,,,,,,,,,,,,,,,,,,,,,,,,,,,,,,,,,,,,,,,,,,91,151792,19,Female,1,2024/03/14_15:48:08,YZ,None,
,,,,,,calibration,0,8,2,1068,9,X,0,right,0.46975645000929944,1,0,,,,,,,,,,,,,,,,,,,,,1,,,,,,,,,,,,,,,,,,,,,,,,,,,,,,,,,,,,,,,,,,,,,,91,151792,19,Female,1,2024/03/14_15:48:08,YZ,None,
,,,,,,calibration,0,8,2,1068,10,F,1,right,0.6436993019888178,0,0,,,,,,,,,,,,,,,,,,,,,1,,,,,,,,,,,,,,,,,,,,,,,,,,,,,,,,,,,,,,,,,,,,,,91,151792,19,Female,1,2024/03/14_15:48:08,YZ,None,
,,,,,,calibration,0,8,2,1068,11,X,1,left,0.04955260598217137,1,0,,,,,,,,,,,,,,,,,,,,,1,,,,,,,,,,,,,,,,,,,,,,,,,,,,,,,,,,,,,,,,,,,,,,91,151792,19,Female,1,2024/03/14_15:48:08,YZ,None,
,,,,,,calibration,0,8,2,1068,,,,,,,,0.5833333333333334,0.3333333333333333,0.25,0.75,0.0,0.75,0.28796498663458886,1,2,0,0,0,6,7,3,8,0,,,,1,,,,,,,,,,,,,,,,,,,,,,,,,,,,,,,,,,,,,,,,,,,,,,91,151792,19,Female,1,2024/03/14_15:48:08,YZ,None,
,,,,,,Calibration,0,,2,1068,,,,,,,,,,,,,,,,,,,,,,,,,8,,,1,,,,,,,,,,,,,,,,,,,,,,,,,,,,,,,,,,,,,,,,,,,,,,91,151792,19,Female,1,2024/03/14_15:48:08,YZ,None,
,,,,,,calibration,0,20,2,1250,1,C,0,right,0.7218450540094636,1,0,,,,,,,,,,,,,,,,,,,,,1,,,,,,,,,,,,,,,,,,,,,,,,,,,,,,,,,,,,,,,,,,,,,,91,151792,19,Female,1,2024/03/14_15:48:08,YZ,None,
,,,,,,calibration,0,20,2,1250,2,C,0,right,0.7323262960126158,1,0,,,,,,,,,,,,,,,,,,,,,1,,,,,,,,,,,,,,,,,,,,,,,,,,,,,,,,,,,,,,,,,,,,,,91,151792,19,Female,1,2024/03/14_15:48:08,YZ,None,
,,,,,,calibration,0,20,2,1250,3,C,1,left,0.29079723998438567,1,0,,,,,,,,,,,,,,,,,,,,,1,,,,,,,,,,,,,,,,,,,,,,,,,,,,,,,,,,,,,,,,,,,,,,91,151792,19,Female,1,2024/03/14_15:48:08,YZ,None,
,,,,,,calibration,0,20,2,1250,4,C,1,left,0.44146802398609,1,0,,,,,,,,,,,,,,,,,,,,,1,,,,,,,,,,,,,,,,,,,,,,,,,,,,,,,,,,,,,,,,,,,,,,91,151792,19,Female,1,2024/03/14_15:48:08,YZ,None,
,,,,,,calibration,0,20,2,1250,5,N,0,right,0.4258518999849912,1,0,,,,,,,,,,,,,,,,,,,,,1,,,,,,,,,,,,,,,,,,,,,,,,,,,,,,,,,,,,,,,,,,,,,,91,151792,19,Female,1,2024/03/14_15:48:08,YZ,None,
,,,,,,calibration,0,20,2,1250,6,C,1,left,0.4131897740007844,1,0,,,,,,,,,,,,,,,,,,,,,1,,,,,,,,,,,,,,,,,,,,,,,,,,,,,,,,,,,,,,,,,,,,,,91,151792,19,Female,1,2024/03/14_15:48:08,YZ,None,
,,,,,,calibration,0,20,2,1250,7,J,0,right,0.41227463600807823,1,0,,,,,,,,,,,,,,,,,,,,,1,,,,,,,,,,,,,,,,,,,,,,,,,,,,,,,,,,,,,,,,,,,,,,91,151792,19,Female,1,2024/03/14_15:48:08,YZ,None,
,,,,,,calibration,0,20,2,1250,8,Q,0,left,0.6220773620007094,0,0,,,,,,,,,,,,,,,,,,,,,1,,,,,,,,,,,,,,,,,,,,,,,,,,,,,,,,,,,,,,,,,,,,,,91,151792,19,Female,1,2024/03/14_15:48:08,YZ,None,
,,,,,,calibration,0,20,2,1250,9,V,0,right,0.5377470100065693,1,0,,,,,,,,,,,,,,,,,,,,,1,,,,,,,,,,,,,,,,,,,,,,,,,,,,,,,,,,,,,,,,,,,,,,91,151792,19,Female,1,2024/03/14_15:48:08,YZ,None,
,,,,,,calibration,0,20,2,1250,10,F,0,right,0.5123074349830858,1,0,,,,,,,,,,,,,,,,,,,,,1,,,,,,,,,,,,,,,,,,,,,,,,,,,,,,,,,,,,,,,,,,,,,,91,151792,19,Female,1,2024/03/14_15:48:08,YZ,None,
,,,,,,calibration,0,20,2,1250,,,,,,,,0.9642857142857143,1.0,0.14285714285714285,0.8571428571428571,0.0,0.8571428571428572,0.5109884730976774,3,1,0,0,0,6,9,3,7,0,,,,1,,,,,,,,,,,,,,,,,,,,,,,,,,,,,,,,,,,,,,,,,,,,,,91,151792,19,Female,1,2024/03/14_15:48:08,YZ,None,
,,,,,,Calibration,0,,2,1250,,,,,,,,,,,,,,,,,,,,,,,,,9,,,1,,,,,,,,,,,,,,,,,,,,,,,,,,,,,,,,,,,,,,,,,,,,,,91,151792,19,Female,1,2024/03/14_15:48:08,YZ,None,
,,,,,,calibration,0,19,2,1068,1,S,0,right,0.7743650510092266,1,0,,,,,,,,,,,,,,,,,,,,,1,,,,,,,,,,,,,,,,,,,,,,,,,,,,,,,,,,,,,,,,,,,,,,91,151792,19,Female,1,2024/03/14_15:48:08,YZ,None,
,,,,,,calibration,0,19,2,1068,2,X,0,right,0.6412228269909974,1,0,,,,,,,,,,,,,,,,,,,,,1,,,,,,,,,,,,,,,,,,,,,,,,,,,,,,,,,,,,,,,,,,,,,,91,151792,19,Female,1,2024/03/14_15:48:08,YZ,None,
,,,,,,calibration,0,19,2,1068,3,C,0,right,0.39612884499365464,1,0,,,,,,,,,,,,,,,,,,,,,1,,,,,,,,,,,,,,,,,,,,,,,,,,,,,,,,,,,,,,,,,,,,,,91,151792,19,Female,1,2024/03/14_15:48:08,YZ,None,
,,,,,,calibration,0,19,2,1068,4,X,1,right,0.4659638140001334,0,0,,,,,,,,,,,,,,,,,,,,,1,,,,,,,,,,,,,,,,,,,,,,,,,,,,,,,,,,,,,,,,,,,,,,91,151792,19,Female,1,2024/03/14_15:48:08,YZ,None,
,,,,,,calibration,0,19,2,1068,5,S,0,left,0.45655760902445763,0,0,,,,,,,,,,,,,,,,,,,,,1,,,,,,,,,,,,,,,,,,,,,,,,,,,,,,,,,,,,,,,,,,,,,,91,151792,19,Female,1,2024/03/14_15:48:08,YZ,None,
,,,,,,calibration,0,19,2,1068,6,V,0,right,0.3136416290071793,1,0,,,,,,,,,,,,,,,,,,,,,1,,,,,,,,,,,,,,,,,,,,,,,,,,,,,,,,,,,,,,,,,,,,,,91,151792,19,Female,1,2024/03/14_15:48:08,YZ,None,
,,,,,,calibration,0,19,2,1068,7,N,0,right,0.3559723749931436,1,0,,,,,,,,,,,,,,,,,,,,,1,,,,,,,,,,,,,,,,,,,,,,,,,,,,,,,,,,,,,,,,,,,,,,91,151792,19,Female,1,2024/03/14_15:48:08,YZ,None,
,,,,,,calibration,0,19,2,1068,8,F,0,right,0.4180586380243767,1,0,,,,,,,,,,,,,,,,,,,,,1,,,,,,,,,,,,,,,,,,,,,,,,,,,,,,,,,,,,,,,,,,,,,,91,151792,19,Female,1,2024/03/14_15:48:08,YZ,None,
,,,,,,calibration,0,19,2,1068,9,S,0,right,0.41610638599377126,1,0,,,,,,,,,,,,,,,,,,,,,1,,,,,,,,,,,,,,,,,,,,,,,,,,,,,,,,,,,,,,,,,,,,,,91,151792,19,Female,1,2024/03/14_15:48:08,YZ,None,
,,,,,,calibration,0,19,2,1068,10,F,1,left,0.3643221340025775,1,0,,,,,,,,,,,,,,,,,,,,,1,,,,,,,,,,,,,,,,,,,,,,,,,,,,,,,,,,,,,,,,,,,,,,91,151792,19,Female,1,2024/03/14_15:48:08,YZ,None,
,,,,,,calibration,0,19,2,1068,11,S,1,right,0.4572882229986135,0,0,,,,,,,,,,,,,,,,,,,,,1,,,,,,,,,,,,,,,,,,,,,,,,,,,,,,,,,,,,,,,,,,,,,,91,151792,19,Female,1,2024/03/14_15:48:08,YZ,None,
,,,,,,calibration,0,19,2,1068,,,,,,,,0.7083333333333334,0.3333333333333333,0.125,0.875,0.0,0.875,0.4599661391852847,1,1,0,0,0,7,8,3,8,0,,,,1,,,,,,,,,,,,,,,,,,,,,,,,,,,,,,,,,,,,,,,,,,,,,,91,151792,19,Female,1,2024/03/14_15:48:08,YZ,None,
,,,,,,Calibration,0,,2,1068,,,,,,,,,,,,,,,,,,,,,,,,,10,,,1,,,,,,,,,,,,,,,,,,,,,,,,,,,,,,,,,,,,,,,,,,,,,,91,151792,19,Female,1,2024/03/14_15:48:08,YZ,None,
,,,,,,calibration,0,5,2,1250,1,J,0,right,0.5248570340045262,1,0,,,,,,,,,,,,,,,,,,,,,1,,,,,,,,,,,,,,,,,,,,,,,,,,,,,,,,,,,,,,,,,,,,,,91,151792,19,Female,1,2024/03/14_15:48:08,YZ,None,
,,,,,,calibration,0,5,2,1250,2,X,0,right,0.479580845014425,1,0,,,,,,,,,,,,,,,,,,,,,1,,,,,,,,,,,,,,,,,,,,,,,,,,,,,,,,,,,,,,,,,,,,,,91,151792,19,Female,1,2024/03/14_15:48:08,YZ,None,
,,,,,,calibration,0,5,2,1250,3,J,1,right,0.4364927010028623,0,0,,,,,,,,,,,,,,,,,,,,,1,,,,,,,,,,,,,,,,,,,,,,,,,,,,,,,,,,,,,,,,,,,,,,91,151792,19,Female,1,2024/03/14_15:48:08,YZ,None,
,,,,,,calibration,0,5,2,1250,4,X,1,right,0.36118835999513976,0,0,,,,,,,,,,,,,,,,,,,,,1,,,,,,,,,,,,,,,,,,,,,,,,,,,,,,,,,,,,,,,,,,,,,,91,151792,19,Female,1,2024/03/14_15:48:08,YZ,None,
,,,,,,calibration,0,5,2,1250,5,V,0,left,0.47621440899092704,0,0,,,,,,,,,,,,,,,,,,,,,1,,,,,,,,,,,,,,,,,,,,,,,,,,,,,,,,,,,,,,,,,,,,,,91,151792,19,Female,1,2024/03/14_15:48:08,YZ,None,
,,,,,,calibration,0,5,2,1250,6,N,0,right,0.523897365987068,1,0,,,,,,,,,,,,,,,,,,,,,1,,,,,,,,,,,,,,,,,,,,,,,,,,,,,,,,,,,,,,,,,,,,,,91,151792,19,Female,1,2024/03/14_15:48:08,YZ,None,
,,,,,,calibration,0,5,2,1250,7,X,0,right,0.46209953899960965,1,0,,,,,,,,,,,,,,,,,,,,,1,,,,,,,,,,,,,,,,,,,,,,,,,,,,,,,,,,,,,,,,,,,,,,91,151792,19,Female,1,2024/03/14_15:48:08,YZ,None,
,,,,,,calibration,0,5,2,1250,8,N,1,left,0.3323531749774702,1,0,,,,,,,,,,,,,,,,,,,,,1,,,,,,,,,,,,,,,,,,,,,,,,,,,,,,,,,,,,,,,,,,,,,,91,151792,19,Female,1,2024/03/14_15:48:08,YZ,None,
,,,,,,calibration,0,5,2,1250,9,V,0,right,0.4475280170154292,1,0,,,,,,,,,,,,,,,,,,,,,1,,,,,,,,,,,,,,,,,,,,,,,,,,,,,,,,,,,,,,,,,,,,,,91,151792,19,Female,1,2024/03/14_15:48:08,YZ,None,
,,,,,,calibration,0,5,2,1250,10,J,0,left,0.47704087698366493,0,0,,,,,,,,,,,,,,,,,,,,,1,,,,,,,,,,,,,,,,,,,,,,,,,,,,,,,,,,,,,,,,,,,,,,91,151792,19,Female,1,2024/03/14_15:48:08,YZ,None,
,,,,,,calibration,0,5,2,1250,,,,,,,,0.5476190476190476,0.3333333333333333,0.2857142857142857,0.7142857142857143,0.0,0.7142857142857143,0.4521252322971122,1,2,0,0,0,5,6,3,7,0,,,,1,,,,,,,,,,,,,,,,,,,,,,,,,,,,,,,,,,,,,,,,,,,,,,91,151792,19,Female,1,2024/03/14_15:48:08,YZ,None,
,,,,,,Calibration,0,,2,1250,,,,,,,,,,,,,,,,,,,,,,,,,11,,,1,,,,,,,,,,,,,,,,,,,,,,,,,,,,,,,,,,,,,,,,,,,,,,91,151792,19,Female,1,2024/03/14_15:48:08,YZ,None,
,,,,,,calibration,0,8,2,1472,1,X,0,right,0.6604457460052799,1,0,,,,,,,,,,,,,,,,,,,,,1,,,,,,,,,,,,,,,,,,,,,,,,,,,,,,,,,,,,,,,,,,,,,,91,151792,19,Female,1,2024/03/14_15:48:08,YZ,None,
,,,,,,calibration,0,8,2,1472,2,J,0,left,0.8115821149840485,0,0,,,,,,,,,,,,,,,,,,,,,1,,,,,,,,,,,,,,,,,,,,,,,,,,,,,,,,,,,,,,,,,,,,,,91,151792,19,Female,1,2024/03/14_15:48:08,YZ,None,
,,,,,,calibration,0,8,2,1472,3,S,0,right,0.6491659260063898,1,0,,,,,,,,,,,,,,,,,,,,,1,,,,,,,,,,,,,,,,,,,,,,,,,,,,,,,,,,,,,,,,,,,,,,91,151792,19,Female,1,2024/03/14_15:48:08,YZ,None,
,,,,,,calibration,0,8,2,1472,4,J,1,right,0.5304434149875306,0,0,,,,,,,,,,,,,,,,,,,,,1,,,,,,,,,,,,,,,,,,,,,,,,,,,,,,,,,,,,,,,,,,,,,,91,151792,19,Female,1,2024/03/14_15:48:08,YZ,None,
,,,,,,calibration,0,8,2,1472,5,V,0,right,0.458942383993417,1,0,,,,,,,,,,,,,,,,,,,,,1,,,,,,,,,,,,,,,,,,,,,,,,,,,,,,,,,,,,,,,,,,,,,,91,151792,19,Female,1,2024/03/14_15:48:08,YZ,None,
,,,,,,calibration,0,8,2,1472,6,F,0,right,0.40220549498917535,1,0,,,,,,,,,,,,,,,,,,,,,1,,,,,,,,,,,,,,,,,,,,,,,,,,,,,,,,,,,,,,,,,,,,,,91,151792,19,Female,1,2024/03/14_15:48:08,YZ,None,
,,,,,,calibration,0,8,2,1472,7,V,1,left,0.5258403320040088,1,0,,,,,,,,,,,,,,,,,,,,,1,,,,,,,,,,,,,,,,,,,,,,,,,,,,,,,,,,,,,,,,,,,,,,91,151792,19,Female,1,2024/03/14_15:48:08,YZ,None,
,,,,,,calibration,0,8,2,1472,8,F,1,left,0.34771174399065785,1,0,,,,,,,,,,,,,,,,,,,,,1,,,,,,,,,,,,,,,,,,,,,,,,,,,,,,,,,,,,,,,,,,,,,,91,151792,19,Female,1,2024/03/14_15:48:08,YZ,None,
,,,,,,calibration,0,8,2,1472,9,J,0,right,0.42054889499559067,1,0,,,,,,,,,,,,,,,,,,,,,1,,,,,,,,,,,,,,,,,,,,,,,,,,,,,,,,,,,,,,,,,,,,,,91,151792,19,Female,1,2024/03/14_15:48:08,YZ,None,
,,,,,,calibration,0,8,2,1472,,,,,,,,0.8194444444444444,0.6666666666666666,0.16666666666666666,0.8333333333333334,0.0,0.8333333333333334,0.5340984502173443,2,1,0,0,0,5,7,3,6,0,,,,1,,,,,,,,,,,,,,,,,,,,,,,,,,,,,,,,,,,,,,,,,,,,,,91,151792,19,Female,1,2024/03/14_15:48:08,YZ,None,
,,,,,,Calibration,0,,2,1472,,,,,,,,,,,,,,,,,,,,,,,,,12,,,1,,,,,,,,,,,,,,,,,,,,,,,,,,,,,,,,,,,,,,,,,,,,,,91,151792,19,Female,1,2024/03/14_15:48:08,YZ,None,
,,,,,,calibration,0,32,2,1472,1,J,0,right,0.6044458489923272,1,0,,,,,,,,,,,,,,,,,,,,,1,,,,,,,,,,,,,,,,,,,,,,,,,,,,,,,,,,,,,,,,,,,,,,91,151792,19,Female,1,2024/03/14_15:48:08,YZ,None,
,,,,,,calibration,0,32,2,1472,2,X,0,right,0.4981093439855613,1,0,,,,,,,,,,,,,,,,,,,,,1,,,,,,,,,,,,,,,,,,,,,,,,,,,,,,,,,,,,,,,,,,,,,,91,151792,19,Female,1,2024/03/14_15:48:08,YZ,None,
,,,,,,calibration,0,32,2,1472,3,J,1,left,0.49816602500504814,1,0,,,,,,,,,,,,,,,,,,,,,1,,,,,,,,,,,,,,,,,,,,,,,,,,,,,,,,,,,,,,,,,,,,,,91,151792,19,Female,1,2024/03/14_15:48:08,YZ,None,
,,,,,,calibration,0,32,2,1472,4,S,0,right,0.5122951400117017,1,0,,,,,,,,,,,,,,,,,,,,,1,,,,,,,,,,,,,,,,,,,,,,,,,,,,,,,,,,,,,,,,,,,,,,91,151792,19,Female,1,2024/03/14_15:48:08,YZ,None,
,,,,,,calibration,0,32,2,1472,5,F,0,right,0.5118526740116067,1,0,,,,,,,,,,,,,,,,,,,,,1,,,,,,,,,,,,,,,,,,,,,,,,,,,,,,,,,,,,,,,,,,,,,,91,151792,19,Female,1,2024/03/14_15:48:08,YZ,None,
,,,,,,calibration,0,32,2,1472,6,S,1,left,0.4908388250041753,1,0,,,,,,,,,,,,,,,,,,,,,1,,,,,,,,,,,,,,,,,,,,,,,,,,,,,,,,,,,,,,,,,,,,,,91,151792,19,Female,1,2024/03/14_15:48:08,YZ,None,
,,,,,,calibration,0,32,2,1472,7,Q,0,right,0.4642344409949146,1,0,,,,,,,,,,,,,,,,,,,,,1,,,,,,,,,,,,,,,,,,,,,,,,,,,,,,,,,,,,,,,,,,,,,,91,151792,19,Female,1,2024/03/14_15:48:08,YZ,None,
,,,,,,calibration,0,32,2,1472,8,C,0,left,0.5452112269995268,0,0,,,,,,,,,,,,,,,,,,,,,1,,,,,,,,,,,,,,,,,,,,,,,,,,,,,,,,,,,,,,,,,,,,,,91,151792,19,Female,1,2024/03/14_15:48:08,YZ,None,
,,,,,,calibration,0,32,2,1472,9,Q,1,right,0.2999362279952038,0,0,,,,,,,,,,,,,,,,,,,,,1,,,,,,,,,,,,,,,,,,,,,,,,,,,,,,,,,,,,,,,,,,,,,,91,151792,19,Female,1,2024/03/14_15:48:08,YZ,None,
,,,,,,calibration,0,32,2,1472,,,,,,,,0.8194444444444444,0.6666666666666666,0.16666666666666666,0.8333333333333334,0.0,0.8333333333333334,0.49167663922222954,2,1,0,0,0,5,7,3,6,0,,,,1,,,,,,,,,,,,,,,,,,,,,,,,,,,,,,,,,,,,,,,,,,,,,,91,151792,19,Female,1,2024/03/14_15:48:08,YZ,None,
,,,,,,Calibration,0,,2,1472,,,,,,,,,,,,,,,,,,,,,,,,,13,,,1,,,,,,,,,,,,,,,,,,,,,,,,,,,,,,,,,,,,,,,,,,,,,,91,151792,19,Female,1,2024/03/14_15:48:08,YZ,None,
,,,,,,calibration,0,26,2,1472,1,Q,0,right,0.2675505749939475,1,0,,,,,,,,,,,,,,,,,,,,,1,,,,,,,,,,,,,,,,,,,,,,,,,,,,,,,,,,,,,,,,,,,,,,91,151792,19,Female,1,2024/03/14_15:48:08,YZ,None,
,,,,,,calibration,0,26,2,1472,2,Q,0,left,0.5702894679852761,0,0,,,,,,,,,,,,,,,,,,,,,1,,,,,,,,,,,,,,,,,,,,,,,,,,,,,,,,,,,,,,,,,,,,,,91,151792,19,Female,1,2024/03/14_15:48:08,YZ,None,
,,,,,,calibration,0,26,2,1472,3,Q,1,right,0.24601556101697497,0,0,,,,,,,,,,,,,,,,,,,,,1,,,,,,,,,,,,,,,,,,,,,,,,,,,,,,,,,,,,,,,,,,,,,,91,151792,19,Female,1,2024/03/14_15:48:08,YZ,None,
,,,,,,calibration,0,26,2,1472,4,Q,1,left,0.2927122849796433,1,0,,,,,,,,,,,,,,,,,,,,,1,,,,,,,,,,,,,,,,,,,,,,,,,,,,,,,,,,,,,,,,,,,,,,91,151792,19,Female,1,2024/03/14_15:48:08,YZ,None,
,,,,,,calibration,0,26,2,1472,5,F,0,right,0.4844883430050686,1,0,,,,,,,,,,,,,,,,,,,,,1,,,,,,,,,,,,,,,,,,,,,,,,,,,,,,,,,,,,,,,,,,,,,,91,151792,19,Female,1,2024/03/14_15:48:08,YZ,None,
,,,,,,calibration,0,26,2,1472,6,V,0,right,0.5857358989887871,1,0,,,,,,,,,,,,,,,,,,,,,1,,,,,,,,,,,,,,,,,,,,,,,,,,,,,,,,,,,,,,,,,,,,,,91,151792,19,Female,1,2024/03/14_15:48:08,YZ,None,
,,,,,,calibration,0,26,2,1472,7,Q,0,left,0.438985593005782,0,0,,,,,,,,,,,,,,,,,,,,,1,,,,,,,,,,,,,,,,,,,,,,,,,,,,,,,,,,,,,,,,,,,,,,91,151792,19,Female,1,2024/03/14_15:48:08,YZ,None,
,,,,,,calibration,0,26,2,1472,8,F,0,left,0.46484986701398157,0,0,,,,,,,,,,,,,,,,,,,,,1,,,,,,,,,,,,,,,,,,,,,,,,,,,,,,,,,,,,,,,,,,,,,,91,151792,19,Female,1,2024/03/14_15:48:08,YZ,None,
,,,,,,calibration,0,26,2,1472,9,Q,1,left,0.39659789999132045,1,0,,,,,,,,,,,,,,,,,,,,,1,,,,,,,,,,,,,,,,,,,,,,,,,,,,,,,,,,,,,,,,,,,,,,91,151792,19,Female,1,2024/03/14_15:48:08,YZ,None,
,,,,,,calibration,0,26,2,1472,,,,,,,,0.625,0.6666666666666666,0.5,0.5,0.0,0.5,0.4163583878867535,2,3,0,0,0,3,5,3,6,0,,,,1,,,,,,,,,,,,,,,,,,,,,,,,,,,,,,,,,,,,,,,,,,,,,,91,151792,19,Female,1,2024/03/14_15:48:08,YZ,None,
,,,,,,Calibration,0,,2,1472,,,,,,,,,,,,,,,,,,,,,,,,,14,,,1,,,,,,,,,,,,,,,,,,,,,,,,,,,,,,,,,,,,,,,,,,,,,,91,151792,19,Female,1,2024/03/14_15:48:08,YZ,None,
,,,,,,calibration,0,8,2,1750,1,F,0,right,0.3942084199807141,1,0,,,,,,,,,,,,,,,,,,,,,1,,,,,,,,,,,,,,,,,,,,,,,,,,,,,,,,,,,,,,,,,,,,,,91,151792,19,Female,1,2024/03/14_15:48:08,YZ,None,
,,,,,,calibration,0,8,2,1750,2,V,0,right,0.38056402100482956,1,0,,,,,,,,,,,,,,,,,,,,,1,,,,,,,,,,,,,,,,,,,,,,,,,,,,,,,,,,,,,,,,,,,,,,91,151792,19,Female,1,2024/03/14_15:48:08,YZ,None,
,,,,,,calibration,0,8,2,1750,3,Q,0,right,0.3775315909879282,1,0,,,,,,,,,,,,,,,,,,,,,1,,,,,,,,,,,,,,,,,,,,,,,,,,,,,,,,,,,,,,,,,,,,,,91,151792,19,Female,1,2024/03/14_15:48:08,YZ,None,
,,,,,,calibration,0,8,2,1750,4,N,0,right,0.40823337898473255,1,0,,,,,,,,,,,,,,,,,,,,,1,,,,,,,,,,,,,,,,,,,,,,,,,,,,,,,,,,,,,,,,,,,,,,91,151792,19,Female,1,2024/03/14_15:48:08,YZ,None,
,,,,,,calibration,0,8,2,1750,5,Q,1,left,0.3835743090021424,1,0,,,,,,,,,,,,,,,,,,,,,1,,,,,,,,,,,,,,,,,,,,,,,,,,,,,,,,,,,,,,,,,,,,,,91,151792,19,Female,1,2024/03/14_15:48:08,YZ,None,
,,,,,,calibration,0,8,2,1750,6,C,0,right,0.40977305502747186,1,0,,,,,,,,,,,,,,,,,,,,,1,,,,,,,,,,,,,,,,,,,,,,,,,,,,,,,,,,,,,,,,,,,,,,91,151792,19,Female,1,2024/03/14_15:48:08,YZ,None,
,,,,,,calibration,0,8,2,1750,7,F,0,right,0.4171793650020845,1,0,,,,,,,,,,,,,,,,,,,,,1,,,,,,,,,,,,,,,,,,,,,,,,,,,,,,,,,,,,,,,,,,,,,,91,151792,19,Female,1,2024/03/14_15:48:08,YZ,None,
,,,,,,calibration,0,8,2,1750,8,C,1,left,0.492824663000647,1,0,,,,,,,,,,,,,,,,,,,,,1,,,,,,,,,,,,,,,,,,,,,,,,,,,,,,,,,,,,,,,,,,,,,,91,151792,19,Female,1,2024/03/14_15:48:08,YZ,None,
,,,,,,calibration,0,8,2,1750,,,,,,,,1.0,1.0,0.0,1.0,0.0,1.0,0.40798610037381877,2,0,0,0,0,6,8,2,6,0,,,,1,,,,,,,,,,,,,,,,,,,,,,,,,,,,,,,,,,,,,,,,,,,,,,91,151792,19,Female,1,2024/03/14_15:48:08,YZ,None,
,,,,,,Calibration,0,,2,1750,,,,,,,,,,,,,,,,,,,,,,,,,15,,,1,,,,,,,,,,,,,,,,,,,,,,,,,,,,,,,,,,,,,,,,,,,,,,91,151792,19,Female,1,2024/03/14_15:48:08,YZ,None,
,,,,,,CALIBRATION,0,,,,,,,,,,,,,,,,,,,,,,,,,,,,15,1.0,1750,1,,,,,,,,,,,,,,,,,,,,,,,,,,,,,,,,,,,,,,,,,,,,,,91,151792,19,Female,1,2024/03/14_15:48:08,YZ,None,
1,./instructions/inst_prac_1/Slide24.png,right,0.2004260410030838,373.9212340810045,374.1216601220076,,,,,,,,,,,,,,,,,,,,,,,,,,,,,,,,,1,,,,,,,,,,,,,,,,,,,,,,,,,,,,,,,,,,,,,,,,,,,,,,91,151792,19,Female,1,2024/03/14_15:48:08,YZ,None,
0,./instructions/inst_prac_1/Slide25.png,left,1.2681520789919887,374.14500454999506,375.41315662898705,,,,,,,,,,,,,,,,,,,,,,,,,,,,,,,,,1,,,,,,,,,,,,,,,,,,,,,,,,,,,,,,,,,,,,,,,,,,,,,,91,151792,19,Female,1,2024/03/14_15:48:08,YZ,None,
1,./instructions/inst_prac_1/Slide24.png,right,40.84914482399472,375.43624306301353,416.28538788700826,,,,,,,,,,,,,,,,,,,,,,,,,,,,,,,,,1,,,,,,,,,,,,,,,,,,,,,,,,,,,,,,,,,,,,,,,,,,,,,,91,151792,19,Female,1,2024/03/14_15:48:08,YZ,None,
2,./instructions/inst_prac_1/Slide25.png,right,2.200801663013408,416.3163050749863,418.5171067379997,,,,,,,,,,,,,,,,,,,,,,,,,,,,,,,,,1,,,,,,,,,,,,,,,,,,,,,,,,,,,,,,,,,,,,,,,,,,,,,,91,151792,19,Female,1,2024/03/14_15:48:08,YZ,None,
3,./instructions/inst_prac_1/Slide26.png,right,1.2669910130207427,418.54609338298906,419.8130843960098,,,,,,,,,,,,,,,,,,,,,,,,,,,,,,,,,1,,,,,,,,,,,,,,,,,,,,,,,,,,,,,,,,,,,,,,,,,,,,,,91,151792,19,Female,1,2024/03/14_15:48:08,YZ,None,
4,./instructions/inst_prac_1/Slide27.png,right,1.0215184289845638,419.8399424680101,420.8614608969947,,,,,,,,,,,,,,,,,,,,,,,,,,,,,,,,,1,,,,,,,,,,,,,,,,,,,,,,,,,,,,,,,,,,,,,,,,,,,,,,91,151792,19,Female,1,2024/03/14_15:48:08,YZ,None,
5,./instructions/inst_prac_1/Slide28.png,right,0.8429827150248457,420.8901018569886,421.73308457201347,,,,,,,,,,,,,,,,,,,,,,,,,,,,,,,,,1,,,,,,,,,,,,,,,,,,,,,,,,,,,,,,,,,,,,,,,,,,,,,,91,151792,19,Female,1,2024/03/14_15:48:08,YZ,None,
6,./instructions/inst_prac_1/Slide29.png,right,5.518019437993644,421.7593725080078,427.27739194600144,,,,,,,,,,,,,,,,,,,,,,,,,,,,,,,,,1,,,,,,,,,,,,,,,,,,,,,,,,,,,,,,,,,,,,,,,,,,,,,,91,151792,19,Female,1,2024/03/14_15:48:08,YZ,None,
7,./instructions/inst_prac_1/Slide30.png,right,2.9946770350215957,427.3065696769918,430.3012467120134,,,,,,,,,,,,,,,,,,,,,,,,,,,,,,,,,1,,,,,,,,,,,,,,,,,,,,,,,,,,,,,,,,,,,,,,,,,,,,,,91,151792,19,Female,1,2024/03/14_15:48:08,YZ,None,
,,,,,,practice,0,26,1,1250,1,S,0,right,1.3634003339975607,1,0,,,,,,,,,,,,,,,,,,,,,1,,,,,,,,,,,,,,,,,,,,,,,,,,,,,,,,,,,,,,,,,,,,,,91,151792,19,Female,1,2024/03/14_15:48:08,YZ,None,
,,,,,,practice,0,26,1,1250,2,V,0,right,0.9018899750080891,1,0,,,,,,,,,,,,,,,,,,,,,1,,,,,,,,,,,,,,,,,,,,,,,,,,,,,,,,,,,,,,,,,,,,,,91,151792,19,Female,1,2024/03/14_15:48:08,YZ,None,
,,,,,,practice,0,26,1,1250,3,N,0,right,0.6704262449929956,1,0,,,,,,,,,,,,,,,,,,,,,1,,,,,,,,,,,,,,,,,,,,,,,,,,,,,,,,,,,,,,,,,,,,,,91,151792,19,Female,1,2024/03/14_15:48:08,YZ,None,
,,,,,,practice,0,26,1,1250,4,N,1,left,0.6882660340052098,1,0,,,,,,,,,,,,,,,,,,,,,1,,,,,,,,,,,,,,,,,,,,,,,,,,,,,,,,,,,,,,,,,,,,,,91,151792,19,Female,1,2024/03/14_15:48:08,YZ,None,
,,,,,,practice,0,26,1,1250,5,C,0,right,0.6815633110236377,1,0,,,,,,,,,,,,,,,,,,,,,1,,,,,,,,,,,,,,,,,,,,,,,,,,,,,,,,,,,,,,,,,,,,,,91,151792,19,Female,1,2024/03/14_15:48:08,YZ,None,
,,,,,,practice,0,26,1,1250,6,Q,0,right,0.6847104720072821,1,0,,,,,,,,,,,,,,,,,,,,,1,,,,,,,,,,,,,,,,,,,,,,,,,,,,,,,,,,,,,,,,,,,,,,91,151792,19,Female,1,2024/03/14_15:48:08,YZ,None,
,,,,,,practice,0,26,1,1250,7,Q,1,left,0.9092600389849395,1,0,,,,,,,,,,,,,,,,,,,,,1,,,,,,,,,,,,,,,,,,,,,,,,,,,,,,,,,,,,,,,,,,,,,,91,151792,19,Female,1,2024/03/14_15:48:08,YZ,None,
,,,,,,practice,0,26,1,1250,8,N,0,right,1.036249361000955,1,0,,,,,,,,,,,,,,,,,,,,,1,,,,,,,,,,,,,,,,,,,,,,,,,,,,,,,,,,,,,,,,,,,,,,91,151792,19,Female,1,2024/03/14_15:48:08,YZ,None,
,,,,,,practice,0,26,1,1250,9,Q,0,left,1.4841437709983438,0,0,,,,,,,,,,,,,,,,,,,,,1,,,,,,,,,,,,,,,,,,,,,,,,,,,,,,,,,,,,,,,,,,,,,,91,151792,19,Female,1,2024/03/14_15:48:08,YZ,None,
,,,,,,practice,0,26,1,1250,10,Q,1,left,0.8361335799854714,1,0,,,,,,,,,,,,,,,,,,,,,1,,,,,,,,,,,,,,,,,,,,,,,,,,,,,,,,,,,,,,,,,,,,,,91,151792,19,Female,1,2024/03/14_15:48:08,YZ,None,
,,,,,,practice,0,26,1,1250,,,,,,,,0.9642857142857143,1.0,0.14285714285714285,0.8571428571428571,0.0,0.8571428571428572,0.9256043122004485,3,1,0,0,0,6,9,3,7,0,,,,1,,,,,,,,,,,,,,,,,,,,,,,,,,,,,,,,,,,,,,,,,,,,,,91,151792,19,Female,1,2024/03/14_15:48:08,YZ,None,
1,./instructions/inst_prac_1_next/Slide35.png,right,2.5065996129997075,450.59465975899366,453.10125937199336,,,,,,,,,,,,,,,,,,,,,,,,,,,,,,,,,1,,,,,,,,,,,,,,,,,,,,,,,,,,,,,,,,,,,,,,,,,,,,,,91,151792,19,Female,1,2024/03/14_15:48:08,YZ,None,
,,,,,,practice,0,29,1,1750,1,S,0,right,0.788459759001853,1,0,,,,,,,,,,,,,,,,,,,,,1,,,,,,,,,,,,,,,,,,,,,,,,,,,,,,,,,,,,,,,,,,,,,,91,151792,19,Female,1,2024/03/14_15:48:08,YZ,None,
,,,,,,practice,0,29,1,1750,2,J,0,right,0.48042815100052394,1,0,,,,,,,,,,,,,,,,,,,,,1,,,,,,,,,,,,,,,,,,,,,,,,,,,,,,,,,,,,,,,,,,,,,,91,151792,19,Female,1,2024/03/14_15:48:08,YZ,None,
,,,,,,practice,0,29,1,1750,3,J,1,left,0.3750620080099907,1,0,,,,,,,,,,,,,,,,,,,,,1,,,,,,,,,,,,,,,,,,,,,,,,,,,,,,,,,,,,,,,,,,,,,,91,151792,19,Female,1,2024/03/14_15:48:08,YZ,None,
,,,,,,practice,0,29,1,1750,4,C,0,right,0.4804409650096204,1,0,,,,,,,,,,,,,,,,,,,,,1,,,,,,,,,,,,,,,,,,,,,,,,,,,,,,,,,,,,,,,,,,,,,,91,151792,19,Female,1,2024/03/14_15:48:08,YZ,None,
,,,,,,practice,0,29,1,1750,5,X,0,right,0.4844701869878918,1,0,,,,,,,,,,,,,,,,,,,,,1,,,,,,,,,,,,,,,,,,,,,,,,,,,,,,,,,,,,,,,,,,,,,,91,151792,19,Female,1,2024/03/14_15:48:08,YZ,None,
,,,,,,practice,0,29,1,1750,6,J,0,left,0.5363872140005697,0,0,,,,,,,,,,,,,,,,,,,,,1,,,,,,,,,,,,,,,,,,,,,,,,,,,,,,,,,,,,,,,,,,,,,,91,151792,19,Female,1,2024/03/14_15:48:08,YZ,None,
,,,,,,practice,0,29,1,1750,7,J,1,left,0.6721685020020232,1,0,,,,,,,,,,,,,,,,,,,,,1,,,,,,,,,,,,,,,,,,,,,,,,,,,,,,,,,,,,,,,,,,,,,,91,151792,19,Female,1,2024/03/14_15:48:08,YZ,None,
,,,,,,practice,0,29,1,1750,8,V,0,right,0.488526961999014,1,0,,,,,,,,,,,,,,,,,,,,,1,,,,,,,,,,,,,,,,,,,,,,,,,,,,,,,,,,,,,,,,,,,,,,91,151792,19,Female,1,2024/03/14_15:48:08,YZ,None,
,,,,,,practice,0,29,1,1750,,,,,,,,0.9583333333333334,1.0,0.16666666666666666,0.8333333333333334,0.0,0.8333333333333334,0.5382429685014358,2,1,0,0,0,5,7,2,6,0,,,,1,,,,,,,,,,,,,,,,,,,,,,,,,,,,,,,,,,,,,,,,,,,,,,91,151792,19,Female,1,2024/03/14_15:48:08,YZ,None,
,,,,,,practice,0,20,1,1750,1,C,0,right,0.5677833179943264,1,0,,,,,,,,,,,,,,,,,,,,,1,,,,,,,,,,,,,,,,,,,,,,,,,,,,,,,,,,,,,,,,,,,,,,91,151792,19,Female,1,2024/03/14_15:48:08,YZ,None,
,,,,,,practice,0,20,1,1750,2,C,1,right,0.5917900300119072,0,0,,,,,,,,,,,,,,,,,,,,,1,,,,,,,,,,,,,,,,,,,,,,,,,,,,,,,,,,,,,,,,,,,,,,91,151792,19,Female,1,2024/03/14_15:48:08,YZ,None,
,,,,,,practice,0,20,1,1750,3,N,0,left,0.7296008080011234,0,0,,,,,,,,,,,,,,,,,,,,,1,,,,,,,,,,,,,,,,,,,,,,,,,,,,,,,,,,,,,,,,,,,,,,91,151792,19,Female,1,2024/03/14_15:48:08,YZ,None,
,,,,,,practice,0,20,1,1750,4,N,1,right,0.0,0,0,,,,,,,,,,,,,,,,,,,,,1,,,,,,,,,,,,,,,,,,,,,,,,,,,,,,,,,,,,,,,,,,,,,,91,151792,19,Female,1,2024/03/14_15:48:08,YZ,None,
,,,,,,practice,0,20,1,1750,5,S,0,left,0.10070802998961881,0,0,,,,,,,,,,,,,,,,,,,,,1,,,,,,,,,,,,,,,,,,,,,,,,,,,,,,,,,,,,,,,,,,,,,,91,151792,19,Female,1,2024/03/14_15:48:08,YZ,None,
,,,,,,practice,0,20,1,1750,6,J,0,right,0.45614768800442107,1,0,,,,,,,,,,,,,,,,,,,,,1,,,,,,,,,,,,,,,,,,,,,,,,,,,,,,,,,,,,,,,,,,,,,,91,151792,19,Female,1,2024/03/14_15:48:08,YZ,None,
,,,,,,practice,0,20,1,1750,7,Q,0,right,0.6239323439949658,1,0,,,,,,,,,,,,,,,,,,,,,1,,,,,,,,,,,,,,,,,,,,,,,,,,,,,,,,,,,,,,,,,,,,,,91,151792,19,Female,1,2024/03/14_15:48:08,YZ,None,
,,,,,,practice,0,20,1,1750,8,S,0,right,0.5926959799835458,1,0,,,,,,,,,,,,,,,,,,,,,1,,,,,,,,,,,,,,,,,,,,,,,,,,,,,,,,,,,,,,,,,,,,,,91,151792,19,Female,1,2024/03/14_15:48:08,YZ,None,
,,,,,,practice,0,20,1,1750,,,,,,,,0.16666666666666669,0.0,0.3333333333333333,0.6666666666666666,0.0,0.6666666666666667,0.45783227474748855,0,2,0,0,0,4,4,2,6,0,,,,1,,,,,,,,,,,,,,,,,,,,,,,,,,,,,,,,,,,,,,,,,,,,,,91,151792,19,Female,1,2024/03/14_15:48:08,YZ,None,
1,./instructions/inst_redo_1/Slide33.png,right,24.343333900993457,472.045900216006,496.38923411699943,,,,,,,,,,,,,,,,,,,,,,,,,,,,,,,,,1,,,,,,,,,,,,,,,,,,,,,,,,,,,,,,,,,,,,,,,,,,,,,,91,151792,19,Female,1,2024/03/14_15:48:08,YZ,None,
,,,,,,practice,0,8,1,1750,1,S,0,right,1.0358211580023635,1,0,,,,,,,,,,,,,,,,,,,,,1,,,,,,,,,,,,,,,,,,,,,,,,,,,,,,,,,,,,,,,,,,,,,,91,151792,19,Female,1,2024/03/14_15:48:08,YZ,None,
,,,,,,practice,0,8,1,1750,2,C,0,right,0.6572669129818678,1,0,,,,,,,,,,,,,,,,,,,,,1,,,,,,,,,,,,,,,,,,,,,,,,,,,,,,,,,,,,,,,,,,,,,,91,151792,19,Female,1,2024/03/14_15:48:08,YZ,None,
,,,,,,practice,0,8,1,1750,3,N,0,right,0.6248262390145101,1,0,,,,,,,,,,,,,,,,,,,,,1,,,,,,,,,,,,,,,,,,,,,,,,,,,,,,,,,,,,,,,,,,,,,,91,151792,19,Female,1,2024/03/14_15:48:08,YZ,None,
,,,,,,practice,0,8,1,1750,4,X,0,right,0.5541816980112344,1,0,,,,,,,,,,,,,,,,,,,,,1,,,,,,,,,,,,,,,,,,,,,,,,,,,,,,,,,,,,,,,,,,,,,,91,151792,19,Female,1,2024/03/14_15:48:08,YZ,None,
,,,,,,practice,0,8,1,1750,5,Q,0,right,0.6873776970023755,1,0,,,,,,,,,,,,,,,,,,,,,1,,,,,,,,,,,,,,,,,,,,,,,,,,,,,,,,,,,,,,,,,,,,,,91,151792,19,Female,1,2024/03/14_15:48:08,YZ,None,
,,,,,,practice,0,8,1,1750,6,Q,1,left,0.3840755400015041,1,0,,,,,,,,,,,,,,,,,,,,,1,,,,,,,,,,,,,,,,,,,,,,,,,,,,,,,,,,,,,,,,,,,,,,91,151792,19,Female,1,2024/03/14_15:48:08,YZ,None,
,,,,,,practice,0,8,1,1750,7,N,0,right,0.4418057069997303,1,0,,,,,,,,,,,,,,,,,,,,,1,,,,,,,,,,,,,,,,,,,,,,,,,,,,,,,,,,,,,,,,,,,,,,91,151792,19,Female,1,2024/03/14_15:48:08,YZ,None,
,,,,,,practice,0,8,1,1750,8,N,1,left,0.4355498540098779,1,0,,,,,,,,,,,,,,,,,,,,,1,,,,,,,,,,,,,,,,,,,,,,,,,,,,,,,,,,,,,,,,,,,,,,91,151792,19,Female,1,2024/03/14_15:48:08,YZ,None,
,,,,,,practice,0,8,1,1750,,,,,,,,1.0,1.0,0.0,1.0,0.0,1.0,0.602613100752933,2,0,0,0,0,6,8,2,6,0,,,,1,,,,,,,,,,,,,,,,,,,,,,,,,,,,,,,,,,,,,,,,,,,,,,91,151792,19,Female,1,2024/03/14_15:48:08,YZ,None,
1,./instructions/inst_prac_3/Slide37.png,right,13.690424421976786,507.98690480401274,521.6773292259895,,,,,,,,,,,,,,,,,,,,,,,,,,,,,,,,,1,,,,,,,,,,,,,,,,,,,,,,,,,,,,,,,,,,,,,,,,,,,,,,91,151792,19,Female,1,2024/03/14_15:48:08,YZ,None,
2,./instructions/inst_prac_3/Slide38.png,right,1.6901658270217013,521.7069419999898,523.3971078270115,,,,,,,,,,,,,,,,,,,,,,,,,,,,,,,,,1,,,,,,,,,,,,,,,,,,,,,,,,,,,,,,,,,,,,,,,,,,,,,,91,151792,19,Female,1,2024/03/14_15:48:08,YZ,None,
3,./instructions/inst_prac_3/Slide39.png,right,0.7631828169978689,523.4259316360112,524.1891144530091,,,,,,,,,,,,,,,,,,,,,,,,,,,,,,,,,1,,,,,,,,,,,,,,,,,,,,,,,,,,,,,,,,,,,,,,,,,,,,,,91,151792,19,Female,1,2024/03/14_15:48:08,YZ,None,
4,./instructions/inst_prac_3/Slide40.png,right,1.3012296949746087,524.215999033011,525.5172287279856,,,,,,,,,,,,,,,,,,,,,,,,,,,,,,,,,1,,,,,,,,,,,,,,,,,,,,,,,,,,,,,,,,,,,,,,,,,,,,,,91,151792,19,Female,1,2024/03/14_15:48:08,YZ,None,
5,./instructions/inst_prac_3/Slide41.png,right,1.227090266009327,525.546097340004,526.7731876060134,,,,,,,,,,,,,,,,,,,,,,,,,,,,,,,,,1,,,,,,,,,,,,,,,,,,,,,,,,,,,,,,,,,,,,,,,,,,,,,,91,151792,19,Female,1,2024/03/14_15:48:08,YZ,None,
6,./instructions/inst_prac_3/Slide42.png,right,3.5323704839975107,526.8007723249902,530.3331428089878,,,,,,,,,,,,,,,,,,,,,,,,,,,,,,,,,1,,,,,,,,,,,,,,,,,,,,,,,,,,,,,,,,,,,,,,,,,,,,,,91,151792,19,Female,1,2024/03/14_15:48:08,YZ,None,
7,./instructions/inst_prac_3/Slide43.png,right,4.122746391018154,530.3624015279929,534.4851479190111,,,,,,,,,,,,,,,,,,,,,,,,,,,,,,,,,1,,,,,,,,,,,,,,,,,,,,,,,,,,,,,,,,,,,,,,,,,,,,,,91,151792,19,Female,1,2024/03/14_15:48:08,YZ,None,
8,./instructions/inst_prac_3/Slide44.png,right,5.745896250999067,534.5153781890112,540.2612744400103,,,,,,,,,,,,,,,,,,,,,,,,,,,,,,,,,1,,,,,,,,,,,,,,,,,,,,,,,,,,,,,,,,,,,,,,,,,,,,,,91,151792,19,Female,1,2024/03/14_15:48:08,YZ,None,
,,,,,,practice,0,33,3,788,1,N,0,right,2.32441186500364,1,0,,,,,,,,,,,,,,,,,,,,,1,,,,,,,,,,,,,,,,,,,,,,,,,,,,,,,,,,,,,,,,,,,,,,91,151792,19,Female,1,2024/03/14_15:48:08,YZ,None,
,,,,,,practice,0,33,3,788,2,J,0,right,0.7204184540023562,1,0,,,,,,,,,,,,,,,,,,,,,1,,,,,,,,,,,,,,,,,,,,,,,,,,,,,,,,,,,,,,,,,,,,,,91,151792,19,Female,1,2024/03/14_15:48:08,YZ,None,
,,,,,,practice,0,33,3,788,3,C,0,right,0.39086933102225885,1,0,,,,,,,,,,,,,,,,,,,,,1,,,,,,,,,,,,,,,,,,,,,,,,,,,,,,,,,,,,,,,,,,,,,,91,151792,19,Female,1,2024/03/14_15:48:08,YZ,None,
,,,,,,practice,0,33,3,788,4,N,1,left,1.677251475979574,1,0,,,,,,,,,,,,,,,,,,,,,1,,,,,,,,,,,,,,,,,,,,,,,,,,,,,,,,,,,,,,,,,,,,,,91,151792,19,Female,1,2024/03/14_15:48:08,YZ,None,
,,,,,,practice,0,33,3,788,5,X,0,right,1.1141068389988504,1,0,,,,,,,,,,,,,,,,,,,,,1,,,,,,,,,,,,,,,,,,,,,,,,,,,,,,,,,,,,,,,,,,,,,,91,151792,19,Female,1,2024/03/14_15:48:08,YZ,None,
,,,,,,practice,0,33,3,788,6,C,1,left,0.6733077870158013,1,0,,,,,,,,,,,,,,,,,,,,,1,,,,,,,,,,,,,,,,,,,,,,,,,,,,,,,,,,,,,,,,,,,,,,91,151792,19,Female,1,2024/03/14_15:48:08,YZ,None,
,,,,,,practice,0,33,3,788,7,N,1,left,0.852887251006905,1,0,,,,,,,,,,,,,,,,,,,,,1,,,,,,,,,,,,,,,,,,,,,,,,,,,,,,,,,,,,,,,,,,,,,,91,151792,19,Female,1,2024/03/14_15:48:08,YZ,None,
,,,,,,practice,0,33,3,788,8,N,0,right,0.9265886160137597,1,0,,,,,,,,,,,,,,,,,,,,,1,,,,,,,,,,,,,,,,,,,,,,,,,,,,,,,,,,,,,,,,,,,,,,91,151792,19,Female,1,2024/03/14_15:48:08,YZ,None,
,,,,,,practice,0,33,3,788,9,S,0,right,3.300752178998664,1,0,,,,,,,,,,,,,,,,,,,,,1,,,,,,,,,,,,,,,,,,,,,,,,,,,,,,,,,,,,,,,,,,,,,,91,151792,19,Female,1,2024/03/14_15:48:08,YZ,None,
,,,,,,practice,0,33,3,788,10,S,0,right,0.9573284689977299,1,0,,,,,,,,,,,,,,,,,,,,,1,,,,,,,,,,,,,,,,,,,,,,,,,,,,,,,,,,,,,,,,,,,,,,91,151792,19,Female,1,2024/03/14_15:48:08,YZ,None,
,,,,,,practice,0,33,3,788,11,N,1,left,0.7804063029761892,1,0,,,,,,,,,,,,,,,,,,,,,1,,,,,,,,,,,,,,,,,,,,,,,,,,,,,,,,,,,,,,,,,,,,,,91,151792,19,Female,1,2024/03/14_15:48:08,YZ,None,
,,,,,,practice,0,33,3,788,12,F,0,right,1.0685008360014763,1,0,,,,,,,,,,,,,,,,,,,,,1,,,,,,,,,,,,,,,,,,,,,,,,,,,,,,,,,,,,,,,,,,,,,,91,151792,19,Female,1,2024/03/14_15:48:08,YZ,None,
,,,,,,practice,0,33,3,788,13,X,0,right,0.8453828979982063,1,0,,,,,,,,,,,,,,,,,,,,,1,,,,,,,,,,,,,,,,,,,,,,,,,,,,,,,,,,,,,,,,,,,,,,91,151792,19,Female,1,2024/03/14_15:48:08,YZ,None,
,,,,,,practice,0,33,3,788,,,,,,,,1.0,1.0,0.0,1.0,0.0,1.0,1.202477869539647,4,0,0,0,0,9,13,4,9,0,,,,1,,,,,,,,,,,,,,,,,,,,,,,,,,,,,,,,,,,,,,,,,,,,,,91,151792,19,Female,1,2024/03/14_15:48:08,YZ,None,
1,./instructions/inst_prac_3_next/Slide49.png,right,1.9049484950082842,569.572255275998,571.4772037710063,,,,,,,,,,,,,,,,,,,,,,,,,,,,,,,,,1,,,,,,,,,,,,,,,,,,,,,,,,,,,,,,,,,,,,,,,,,,,,,,91,151792,19,Female,1,2024/03/14_15:48:08,YZ,None,
,,,,,,practice,0,32,3,1750,1,F,0,right,0.9206603329803329,1,0,,,,,,,,,,,,,,,,,,,,,1,,,,,,,,,,,,,,,,,,,,,,,,,,,,,,,,,,,,,,,,,,,,,,91,151792,19,Female,1,2024/03/14_15:48:08,YZ,None,
,,,,,,practice,0,32,3,1750,2,V,0,right,0.7995658880099654,1,0,,,,,,,,,,,,,,,,,,,,,1,,,,,,,,,,,,,,,,,,,,,,,,,,,,,,,,,,,,,,,,,,,,,,91,151792,19,Female,1,2024/03/14_15:48:08,YZ,None,
,,,,,,practice,0,32,3,1750,3,V,0,right,0.9060392499959562,1,0,,,,,,,,,,,,,,,,,,,,,1,,,,,,,,,,,,,,,,,,,,,,,,,,,,,,,,,,,,,,,,,,,,,,91,151792,19,Female,1,2024/03/14_15:48:08,YZ,None,
,,,,,,practice,0,32,3,1750,4,J,0,right,0.5327692730061244,1,0,,,,,,,,,,,,,,,,,,,,,1,,,,,,,,,,,,,,,,,,,,,,,,,,,,,,,,,,,,,,,,,,,,,,91,151792,19,Female,1,2024/03/14_15:48:08,YZ,None,
,,,,,,practice,0,32,3,1750,5,J,0,right,0.7128056100045796,1,0,,,,,,,,,,,,,,,,,,,,,1,,,,,,,,,,,,,,,,,,,,,,,,,,,,,,,,,,,,,,,,,,,,,,91,151792,19,Female,1,2024/03/14_15:48:08,YZ,None,
,,,,,,practice,0,32,3,1750,6,F,0,left,0.5053192999912426,0,0,,,,,,,,,,,,,,,,,,,,,1,,,,,,,,,,,,,,,,,,,,,,,,,,,,,,,,,,,,,,,,,,,,,,91,151792,19,Female,1,2024/03/14_15:48:08,YZ,None,
,,,,,,practice,0,32,3,1750,7,J,1,right,0.616732441005297,0,0,,,,,,,,,,,,,,,,,,,,,1,,,,,,,,,,,,,,,,,,,,,,,,,,,,,,,,,,,,,,,,,,,,,,91,151792,19,Female,1,2024/03/14_15:48:08,YZ,None,
,,,,,,practice,0,32,3,1750,8,J,1,right,0.5053866830130573,0,0,,,,,,,,,,,,,,,,,,,,,1,,,,,,,,,,,,,,,,,,,,,,,,,,,,,,,,,,,,,,,,,,,,,,91,151792,19,Female,1,2024/03/14_15:48:08,YZ,None,
,,,,,,practice,0,32,3,1750,,,,,,,,0.20833333333333334,0.0,0.16666666666666666,0.8333333333333334,0.0,0.8333333333333334,0.6874098472508194,0,1,0,0,0,5,5,2,6,0,,,,1,,,,,,,,,,,,,,,,,,,,,,,,,,,,,,,,,,,,,,,,,,,,,,91,151792,19,Female,1,2024/03/14_15:48:08,YZ,None,
,,,,,,practice,0,29,3,1750,1,S,0,right,0.6979397620016243,1,0,,,,,,,,,,,,,,,,,,,,,1,,,,,,,,,,,,,,,,,,,,,,,,,,,,,,,,,,,,,,,,,,,,,,91,151792,19,Female,1,2024/03/14_15:48:08,YZ,None,
,,,,,,practice,0,29,3,1750,2,X,0,right,0.36457139198319055,1,0,,,,,,,,,,,,,,,,,,,,,1,,,,,,,,,,,,,,,,,,,,,,,,,,,,,,,,,,,,,,,,,,,,,,91,151792,19,Female,1,2024/03/14_15:48:08,YZ,None,
,,,,,,practice,0,29,3,1750,3,X,0,right,0.5289959460205864,1,0,,,,,,,,,,,,,,,,,,,,,1,,,,,,,,,,,,,,,,,,,,,,,,,,,,,,,,,,,,,,,,,,,,,,91,151792,19,Female,1,2024/03/14_15:48:08,YZ,None,
,,,,,,practice,0,29,3,1750,4,S,1,left,0.43262687599053606,1,0,,,,,,,,,,,,,,,,,,,,,1,,,,,,,,,,,,,,,,,,,,,,,,,,,,,,,,,,,,,,,,,,,,,,91,151792,19,Female,1,2024/03/14_15:48:08,YZ,None,
,,,,,,practice,0,29,3,1750,5,X,1,left,0.9222297389933374,1,0,,,,,,,,,,,,,,,,,,,,,1,,,,,,,,,,,,,,,,,,,,,,,,,,,,,,,,,,,,,,,,,,,,,,91,151792,19,Female,1,2024/03/14_15:48:08,YZ,None,
,,,,,,practice,0,29,3,1750,6,F,0,right,0.5172016589785926,1,0,,,,,,,,,,,,,,,,,,,,,1,,,,,,,,,,,,,,,,,,,,,,,,,,,,,,,,,,,,,,,,,,,,,,91,151792,19,Female,1,2024/03/14_15:48:08,YZ,None,
,,,,,,practice,0,29,3,1750,7,C,0,right,0.6406526020145975,1,0,,,,,,,,,,,,,,,,,,,,,1,,,,,,,,,,,,,,,,,,,,,,,,,,,,,,,,,,,,,,,,,,,,,,91,151792,19,Female,1,2024/03/14_15:48:08,YZ,None,
,,,,,,practice,0,29,3,1750,8,F,0,left,0.4075659879890736,0,0,,,,,,,,,,,,,,,,,,,,,1,,,,,,,,,,,,,,,,,,,,,,,,,,,,,,,,,,,,,,,,,,,,,,91,151792,19,Female,1,2024/03/14_15:48:08,YZ,None,
,,,,,,practice,0,29,3,1750,,,,,,,,0.9583333333333334,1.0,0.16666666666666666,0.8333333333333334,0.0,0.8333333333333334,0.5639729954964423,2,1,0,0,0,5,7,2,6,0,,,,1,,,,,,,,,,,,,,,,,,,,,,,,,,,,,,,,,,,,,,,,,,,,,,91,151792,19,Female,1,2024/03/14_15:48:08,YZ,None,
1,./instructions/inst_prac_main/Slide51.png,right,1.9731584980036132,593.9759360470052,595.9490945450088,,,,,,,,,,,,,,,,,,,,,,,,,,,,,,,,,1,,,,,,,,,,,,,,,,,,,,,,,,,,,,,,,,,,,,,,,,,,,,,,91,151792,19,Female,1,2024/03/14_15:48:08,YZ,None,
2,./instructions/inst_prac_main/Slide52.png,right,8.232757979014423,595.9803912779898,604.2131492570043,,,,,,,,,,,,,,,,,,,,,,,,,,,,,,,,,1,,,,,,,,,,,,,,,,,,,,,,,,,,,,,,,,,,,,,,,,,,,,,,91,151792,19,Female,1,2024/03/14_15:48:08,YZ,None,
3,./instructions/inst_prac_main/Slide53.png,right,7.4286415509996,604.2405387310137,611.6691802820133,,,,,,,,,,,,,,,,,,,,,,,,,,,,,,,,,1,,,,,,,,,,,,,,,,,,,,,,,,,,,,,,,,,,,,,,,,,,,,,,91,151792,19,Female,1,2024/03/14_15:48:08,YZ,None,
4,./instructions/inst_prac_main/Slide54.png,right,13.780400086019654,611.6967464099871,625.4771464960068,,,,,,,,,,,,,,,,,,,,,,,,,,,,,,,,,1,,,,,,,,,,,,,,,,,,,,,,,,,,,,,,,,,,,,,,,,,,,,,,91,151792,19,Female,1,2024/03/14_15:48:08,YZ,None,
,,,,,,practice_main,0,1,1,1750,1,N,0,right,0.9176731850020587,1,0,,,,,,,,,,,,,,,,,,,,,1,,,,,,,,,,,,,,,,,,,,,,,,,,,,,,,,,,,,,,,,,,,,,,91,151792,19,Female,1,2024/03/14_15:48:08,YZ,None,
,,,,,,practice_main,0,1,1,1750,2,F,0,right,0.5120842769974843,1,0,,,,,,,,,,,,,,,,,,,,,1,,,,,,,,,,,,,,,,,,,,,,,,,,,,,,,,,,,,,,,,,,,,,,91,151792,19,Female,1,2024/03/14_15:48:08,YZ,None,
,,,,,,practice_main,0,1,1,1750,3,N,0,left,0.7428230789955705,0,0,,,,,,,,,,,,,,,,,,,,,1,,,,,,,,,,,,,,,,,,,,,,,,,,,,,,,,,,,,,,,,,,,,,,91,151792,19,Female,1,2024/03/14_15:48:08,YZ,None,
,,,,,,practice_main,0,1,1,1750,4,V,0,right,0.3944162080006208,1,0,,,,,,,,,,,,,,,,,,,,,1,,,,,,,,,,,,,,,,,,,,,,,,,,,,,,,,,,,,,,,,,,,,,,91,151792,19,Female,1,2024/03/14_15:48:08,YZ,None,
,,,,,,practice_main,0,1,1,1750,5,V,1,left,0.40053831398836337,1,0,,,,,,,,,,,,,,,,,,,,,1,,,,,,,,,,,,,,,,,,,,,,,,,,,,,,,,,,,,,,,,,,,,,,91,151792,19,Female,1,2024/03/14_15:48:08,YZ,None,
,,,,,,practice_main,0,1,1,1750,6,X,0,right,0.47534735599765554,1,0,,,,,,,,,,,,,,,,,,,,,1,,,,,,,,,,,,,,,,,,,,,,,,,,,,,,,,,,,,,,,,,,,,,,91,151792,19,Female,1,2024/03/14_15:48:08,YZ,None,
,,,,,,practice_main,0,1,1,1750,7,X,1,left,0.453231583989691,1,0,,,,,,,,,,,,,,,,,,,,,1,,,,,,,,,,,,,,,,,,,,,,,,,,,,,,,,,,,,,,,,,,,,,,91,151792,19,Female,1,2024/03/14_15:48:08,YZ,None,
,,,,,,practice_main,0,1,1,1750,8,S,0,right,0.6279790059779771,1,0,,,,,,,,,,,,,,,,,,,,,1,,,,,,,,,,,,,,,,,,,,,,,,,,,,,,,,,,,,,,,,,,,,,,91,151792,19,Female,1,2024/03/14_15:48:08,YZ,None,
,,,,,,practice_main,0,1,1,1750,,,,,,,,0.9583333333333334,1.0,0.16666666666666666,0.8333333333333334,0.0,0.8333333333333334,0.5655116261186777,2,1,0,0,0,5,7,2,6,0,,,,1,,,,,,,,,,,,,,,,,,,,,,,,,,,,,,,,,,,,,,,,,,,,,,91,151792,19,Female,1,2024/03/14_15:48:08,YZ,None,
,,,,,240314_161306,PRACTICE,0,1,1,1750,,,,,,,,,,,,,,,,,,,,,,,,,,,,1,6,1,1,cue1.png,easy,A,61,1.224807493010303,0,628.5358039519924,629.7867220200133,,,,,,,,,,,,,,,,,,,,,,,,,,,,,,,,,,,91,151792,19,Female,1,2024/03/14_15:48:08,YZ,None,
,,,,,,practice_main,0,2,1,1750,1,C,0,right,0.5425596619897988,1,0,,,,,,,,,,,,,,,,,,,,,1,,,,,,,,,,,,,,,,,,,,,,,,,,,,,,,,,,,,,,,,,,,,,,91,151792,19,Female,1,2024/03/14_15:48:08,YZ,None,
,,,,,,practice_main,0,2,1,1750,2,C,1,left,0.4015934969938826,1,0,,,,,,,,,,,,,,,,,,,,,1,,,,,,,,,,,,,,,,,,,,,,,,,,,,,,,,,,,,,,,,,,,,,,91,151792,19,Female,1,2024/03/14_15:48:08,YZ,None,
,,,,,,practice_main,0,2,1,1750,3,F,0,right,0.3995240049844142,1,0,,,,,,,,,,,,,,,,,,,,,1,,,,,,,,,,,,,,,,,,,,,,,,,,,,,,,,,,,,,,,,,,,,,,91,151792,19,Female,1,2024/03/14_15:48:08,YZ,None,
,,,,,,practice_main,0,2,1,1750,4,J,0,right,0.4741063800174743,1,0,,,,,,,,,,,,,,,,,,,,,1,,,,,,,,,,,,,,,,,,,,,,,,,,,,,,,,,,,,,,,,,,,,,,91,151792,19,Female,1,2024/03/14_15:48:08,YZ,None,
,,,,,,practice_main,0,2,1,1750,5,Q,0,right,0.4272933189931791,1,0,,,,,,,,,,,,,,,,,,,,,1,,,,,,,,,,,,,,,,,,,,,,,,,,,,,,,,,,,,,,,,,,,,,,91,151792,19,Female,1,2024/03/14_15:48:08,YZ,None,
,,,,,,practice_main,0,2,1,1750,6,F,0,left,0.47389389300951734,0,0,,,,,,,,,,,,,,,,,,,,,1,,,,,,,,,,,,,,,,,,,,,,,,,,,,,,,,,,,,,,,,,,,,,,91,151792,19,Female,1,2024/03/14_15:48:08,YZ,None,
,,,,,,practice_main,0,2,1,1750,7,V,0,right,0.4422977039939724,1,0,,,,,,,,,,,,,,,,,,,,,1,,,,,,,,,,,,,,,,,,,,,,,,,,,,,,,,,,,,,,,,,,,,,,91,151792,19,Female,1,2024/03/14_15:48:08,YZ,None,
,,,,,,practice_main,0,2,1,1750,8,V,1,left,0.5681446270027664,1,0,,,,,,,,,,,,,,,,,,,,,1,,,,,,,,,,,,,,,,,,,,,,,,,,,,,,,,,,,,,,,,,,,,,,91,151792,19,Female,1,2024/03/14_15:48:08,YZ,None,
,,,,,,practice_main,0,2,1,1750,,,,,,,,0.9583333333333334,1.0,0.16666666666666666,0.8333333333333334,0.0,0.8333333333333334,0.46617663587312563,2,1,0,0,0,5,7,2,6,0,,,,1,,,,,,,,,,,,,,,,,,,,,,,,,,,,,,,,,,,,,,,,,,,,,,91,151792,19,Female,1,2024/03/14_15:48:08,YZ,None,
,,,,,240314_161324,PRACTICE,0,2,1,1750,,,,,,,,,,,,,,,,,,,,,,,,,,,,1,13,2,2,cue1.png,easy,A,63,1.6651287499989849,0,647.6437335390074,649.32543089299,,,,,,,,,,,,,,,,,,,,,,,,,,,,,,,,,,,91,151792,19,Female,1,2024/03/14_15:48:08,YZ,None,
,,,,,,practice_main,0,3,1,1750,1,J,0,right,0.12391250301152468,1,0,,,,,,,,,,,,,,,,,,,,,1,,,,,,,,,,,,,,,,,,,,,,,,,,,,,,,,,,,,,,,,,,,,,,91,151792,19,Female,1,2024/03/14_15:48:08,YZ,None,
,,,,,,practice_main,0,3,1,1750,2,J,1,left,0.4971247639914509,1,0,,,,,,,,,,,,,,,,,,,,,1,,,,,,,,,,,,,,,,,,,,,,,,,,,,,,,,,,,,,,,,,,,,,,91,151792,19,Female,1,2024/03/14_15:48:08,YZ,None,
,,,,,,practice_main,0,3,1,1750,3,S,0,right,0.4604248790128622,1,0,,,,,,,,,,,,,,,,,,,,,1,,,,,,,,,,,,,,,,,,,,,,,,,,,,,,,,,,,,,,,,,,,,,,91,151792,19,Female,1,2024/03/14_15:48:08,YZ,None,
,,,,,,practice_main,0,3,1,1750,4,X,0,right,0.5731398439966142,1,0,,,,,,,,,,,,,,,,,,,,,1,,,,,,,,,,,,,,,,,,,,,,,,,,,,,,,,,,,,,,,,,,,,,,91,151792,19,Female,1,2024/03/14_15:48:08,YZ,None,
,,,,,,practice_main,0,3,1,1750,5,C,0,left,0.6280570689996239,0,0,,,,,,,,,,,,,,,,,,,,,1,,,,,,,,,,,,,,,,,,,,,,,,,,,,,,,,,,,,,,,,,,,,,,91,151792,19,Female,1,2024/03/14_15:48:08,YZ,None,
,,,,,,practice_main,0,3,1,1750,6,F,0,right,0.29126438798266463,1,0,,,,,,,,,,,,,,,,,,,,,1,,,,,,,,,,,,,,,,,,,,,,,,,,,,,,,,,,,,,,,,,,,,,,91,151792,19,Female,1,2024/03/14_15:48:08,YZ,None,
,,,,,,practice_main,0,3,1,1750,7,J,0,right,0.48894074000418186,1,0,,,,,,,,,,,,,,,,,,,,,1,,,,,,,,,,,,,,,,,,,,,,,,,,,,,,,,,,,,,,,,,,,,,,91,151792,19,Female,1,2024/03/14_15:48:08,YZ,None,
,,,,,,practice_main,0,3,1,1750,8,J,1,right,0.3927270980202593,0,0,,,,,,,,,,,,,,,,,,,,,1,,,,,,,,,,,,,,,,,,,,,,,,,,,,,,,,,,,,,,,,,,,,,,91,151792,19,Female,1,2024/03/14_15:48:08,YZ,None,
,,,,,,practice_main,0,3,1,1750,,,,,,,,0.75,0.5,0.16666666666666666,0.8333333333333334,0.0,0.8333333333333334,0.4319489106273977,1,1,0,0,0,5,6,2,6,0,,,,1,,,,,,,,,,,,,,,,,,,,,,,,,,,,,,,,,,,,,,,,,,,,,,91,151792,19,Female,1,2024/03/14_15:48:08,YZ,None,
,,,,,240314_161343,PRACTICE,0,3,1,1750,,,,,,,,,,,,,,,,,,,,,,,,,,,,1,39,3,3,cue1.png,easy,A,57,1.5559132400085218,0,666.3562315879972,667.9295781329856,,,,,,,,,,,,,,,,,,,,,,,,,,,,,,,,,,,91,151792,19,Female,1,2024/03/14_15:48:08,YZ,None,
1,./instructions/inst_prac_end/Slide56.png,right,13.663201421994017,683.1978799249919,696.8610813469859,,,,,,,,,,,,,,,,,,,,,,,,,,,,,,,,,1,,,,,,,,,,,,,,,,,,,,,,,,,,,,,,,,,,,,,,,,,,,,,,91,151792,19,Female,1,2024/03/14_15:48:08,YZ,None,
1,./instructions/inst_test/Slide57.png,right,37.472373803990195,696.8927260460041,734.3650998499943,,,,,,,,,,,,,,,,,,,,,,,,,,,,,,,,,1,,,,,,,,,,,,,,,,,,,,,,,,,,,,,,,,,,,,,,,,,,,,,,91,151792,19,Female,1,2024/03/14_15:48:08,YZ,None,
,,,,,,test,1,1,1,1750,1,Q,0,right,0.28292028699070215,1,0,,,,,,,,,,,,,,,,,,,,,1,,,,,,,,,,,,,,,,,,,,,,,,,,,,,,,,,,,,,,,,,,,,,,91,151792,19,Female,1,2024/03/14_15:48:08,YZ,None,
,,,,,,test,1,1,1,1750,2,F,0,right,0.4399831499904394,1,0,,,,,,,,,,,,,,,,,,,,,1,,,,,,,,,,,,,,,,,,,,,,,,,,,,,,,,,,,,,,,,,,,,,,91,151792,19,Female,1,2024/03/14_15:48:08,YZ,None,
,,,,,,test,1,1,1,1750,3,N,0,right,0.40690367500064895,1,0,,,,,,,,,,,,,,,,,,,,,1,,,,,,,,,,,,,,,,,,,,,,,,,,,,,,,,,,,,,,,,,,,,,,91,151792,19,Female,1,2024/03/14_15:48:08,YZ,None,
,,,,,,test,1,1,1,1750,4,C,0,right,0.3676148210070096,1,0,,,,,,,,,,,,,,,,,,,,,1,,,,,,,,,,,,,,,,,,,,,,,,,,,,,,,,,,,,,,,,,,,,,,91,151792,19,Female,1,2024/03/14_15:48:08,YZ,None,
,,,,,,test,1,1,1,1750,5,C,1,left,0.31457052400219254,1,0,,,,,,,,,,,,,,,,,,,,,1,,,,,,,,,,,,,,,,,,,,,,,,,,,,,,,,,,,,,,,,,,,,,,91,151792,19,Female,1,2024/03/14_15:48:08,YZ,None,
,,,,,,test,1,1,1,1750,6,F,0,right,0.383623339002952,1,0,,,,,,,,,,,,,,,,,,,,,1,,,,,,,,,,,,,,,,,,,,,,,,,,,,,,,,,,,,,,,,,,,,,,91,151792,19,Female,1,2024/03/14_15:48:08,YZ,None,
,,,,,,test,1,1,1,1750,7,V,0,left,0.35378360500908457,0,0,,,,,,,,,,,,,,,,,,,,,1,,,,,,,,,,,,,,,,,,,,,,,,,,,,,,,,,,,,,,,,,,,,,,91,151792,19,Female,1,2024/03/14_15:48:08,YZ,None,
,,,,,,test,1,1,1,1750,8,V,1,left,0.6308371120248921,1,0,,,,,,,,,,,,,,,,,,,,,1,,,,,,,,,,,,,,,,,,,,,,,,,,,,,,,,,,,,,,,,,,,,,,91,151792,19,Female,1,2024/03/14_15:48:08,YZ,None,
,,,,,,Test,1,1,1,1750,,,,,,,,0.9583333333333334,1.0,0.16666666666666666,0.8333333333333334,0.0,0.8333333333333334,0.39752956412849016,2,1,0,0,0,5,7,2,6,0,,,,1,,,,,,,,,,,,,,,,,,,,,,,,,,,,,,,,,,,,,,,,,,,,,,91,151792,19,Female,1,2024/03/14_15:48:08,YZ,None,
,,,,,240314_161455,TEST,1,1,1,1750,,,,,,,,,,,,,,,,,,,,,,,,,,,,1,1,1,1,cue1.png,easy,A,67,0.9876451640157029,0,739.4266748260125,740.4414953280066,,,,,,,,,,,,,,,,,,,,,,,,,,,,,,,,,,,91,151792,19,Female,1,2024/03/14_15:48:08,YZ,None,
,,,,,,test,1,2,3,1750,1,C,0,right,0.46698721501161344,1,0,,,,,,,,,,,,,,,,,,,,,1,,,,,,,,,,,,,,,,,,,,,,,,,,,,,,,,,,,,,,,,,,,,,,91,151792,19,Female,1,2024/03/14_15:48:08,YZ,None,
,,,,,,test,1,2,3,1750,2,X,0,right,0.42789330397499725,1,0,,,,,,,,,,,,,,,,,,,,,1,,,,,,,,,,,,,,,,,,,,,,,,,,,,,,,,,,,,,,,,,,,,,,91,151792,19,Female,1,2024/03/14_15:48:08,YZ,None,
,,,,,,test,1,2,3,1750,3,Q,0,right,0.4128063120006118,1,0,,,,,,,,,,,,,,,,,,,,,1,,,,,,,,,,,,,,,,,,,,,,,,,,,,,,,,,,,,,,,,,,,,,,91,151792,19,Female,1,2024/03/14_15:48:08,YZ,None,
,,,,,,test,1,2,3,1750,4,V,0,right,0.46721884902217425,1,0,,,,,,,,,,,,,,,,,,,,,1,,,,,,,,,,,,,,,,,,,,,,,,,,,,,,,,,,,,,,,,,,,,,,91,151792,19,Female,1,2024/03/14_15:48:08,YZ,None,
,,,,,,test,1,2,3,1750,5,X,1,right,0.8264239139971323,0,0,,,,,,,,,,,,,,,,,,,,,1,,,,,,,,,,,,,,,,,,,,,,,,,,,,,,,,,,,,,,,,,,,,,,91,151792,19,Female,1,2024/03/14_15:48:08,YZ,None,
,,,,,,test,1,2,3,1750,6,S,0,right,0.6228720429935493,1,0,,,,,,,,,,,,,,,,,,,,,1,,,,,,,,,,,,,,,,,,,,,,,,,,,,,,,,,,,,,,,,,,,,,,91,151792,19,Female,1,2024/03/14_15:48:08,YZ,None,
,,,,,,test,1,2,3,1750,7,C,0,left,0.5739480199990794,0,0,,,,,,,,,,,,,,,,,,,,,1,,,,,,,,,,,,,,,,,,,,,,,,,,,,,,,,,,,,,,,,,,,,,,91,151792,19,Female,1,2024/03/14_15:48:08,YZ,None,
,,,,,,test,1,2,3,1750,8,X,1,right,0.4864207450009417,0,0,,,,,,,,,,,,,,,,,,,,,1,,,,,,,,,,,,,,,,,,,,,,,,,,,,,,,,,,,,,,,,,,,,,,91,151792,19,Female,1,2024/03/14_15:48:08,YZ,None,
,,,,,,Test,1,2,3,1750,,,,,,,,0.20833333333333334,0.0,0.16666666666666666,0.8333333333333334,0.0,0.8333333333333334,0.5355713002500124,0,1,0,0,0,5,5,2,6,0,,,,1,,,,,,,,,,,,,,,,,,,,,,,,,,,,,,,,,,,,,,,,,,,,,,91,151792,19,Female,1,2024/03/14_15:48:08,YZ,None,
,,,,,240314_161514,TEST,1,2,3,1750,,,,,,,,,,,,,,,,,,,,,,,,,,,,1,2,2,2,cue2.png,hard,A,88,0.9371306649991311,0,756.928401762998,757.8807853419858,,,,,,,,,,,,,,,,,,,,,,,,,,,,,,,,,,,91,151792,19,Female,1,2024/03/14_15:48:08,YZ,None,
,,,,,,test,1,3,1,1750,1,S,0,right,0.8664603430079296,1,0,,,,,,,,,,,,,,,,,,,,,1,,,,,,,,,,,,,,,,,,,,,,,,,,,,,,,,,,,,,,,,,,,,,,91,151792,19,Female,1,2024/03/14_15:48:08,YZ,None,
,,,,,,test,1,3,1,1750,2,C,0,right,0.4772576839895919,1,0,,,,,,,,,,,,,,,,,,,,,1,,,,,,,,,,,,,,,,,,,,,,,,,,,,,,,,,,,,,,,,,,,,,,91,151792,19,Female,1,2024/03/14_15:48:08,YZ,None,
,,,,,,test,1,3,1,1750,3,Q,0,right,0.4610050799965393,1,0,,,,,,,,,,,,,,,,,,,,,1,,,,,,,,,,,,,,,,,,,,,,,,,,,,,,,,,,,,,,,,,,,,,,91,151792,19,Female,1,2024/03/14_15:48:08,YZ,None,
,,,,,,test,1,3,1,1750,4,Q,1,left,0.44506338200881146,1,0,,,,,,,,,,,,,,,,,,,,,1,,,,,,,,,,,,,,,,,,,,,,,,,,,,,,,,,,,,,,,,,,,,,,91,151792,19,Female,1,2024/03/14_15:48:08,YZ,None,
,,,,,,test,1,3,1,1750,5,J,0,right,0.40180661200429313,1,0,,,,,,,,,,,,,,,,,,,,,1,,,,,,,,,,,,,,,,,,,,,,,,,,,,,,,,,,,,,,,,,,,,,,91,151792,19,Female,1,2024/03/14_15:48:08,YZ,None,
,,,,,,test,1,3,1,1750,6,N,0,right,0.44154117998550646,1,0,,,,,,,,,,,,,,,,,,,,,1,,,,,,,,,,,,,,,,,,,,,,,,,,,,,,,,,,,,,,,,,,,,,,91,151792,19,Female,1,2024/03/14_15:48:08,YZ,None,
,,,,,,test,1,3,1,1750,7,X,0,left,0.5438048049982172,0,0,,,,,,,,,,,,,,,,,,,,,1,,,,,,,,,,,,,,,,,,,,,,,,,,,,,,,,,,,,,,,,,,,,,,91,151792,19,Female,1,2024/03/14_15:48:08,YZ,None,
,,,,,,test,1,3,1,1750,8,X,1,right,0.3656512119923718,0,0,,,,,,,,,,,,,,,,,,,,,1,,,,,,,,,,,,,,,,,,,,,,,,,,,,,,,,,,,,,,,,,,,,,,91,151792,19,Female,1,2024/03/14_15:48:08,YZ,None,
,,,,,,Test,1,3,1,1750,,,,,,,,0.75,0.5,0.16666666666666666,0.8333333333333334,0.0,0.8333333333333334,0.5003237872479076,1,1,0,0,0,5,6,2,6,0,,,,1,,,,,,,,,,,,,,,,,,,,,,,,,,,,,,,,,,,,,,,,,,,,,,91,151792,19,Female,1,2024/03/14_15:48:08,YZ,None,
,,,,,240314_161532,TEST,1,3,1,1750,,,,,,,,,,,,,,,,,,,,,,,,,,,,1,3,3,3,cue1.png,easy,A,40,1.3700514980009757,0,775.4591548370081,776.850274884986,,,,,,,,,,,,,,,,,,,,,,,,,,,,,,,,,,,91,151792,19,Female,1,2024/03/14_15:48:08,YZ,None,
,,,,,,test,1,4,3,1750,1,N,0,right,0.2594292630092241,1,0,,,,,,,,,,,,,,,,,,,,,1,,,,,,,,,,,,,,,,,,,,,,,,,,,,,,,,,,,,,,,,,,,,,,91,151792,19,Female,1,2024/03/14_15:48:08,YZ,None,
,,,,,,test,1,4,3,1750,2,Q,0,right,0.38119097700109705,1,0,,,,,,,,,,,,,,,,,,,,,1,,,,,,,,,,,,,,,,,,,,,,,,,,,,,,,,,,,,,,,,,,,,,,91,151792,19,Female,1,2024/03/14_15:48:08,YZ,None,
,,,,,,test,1,4,3,1750,3,J,0,right,0.39716871301061474,1,0,,,,,,,,,,,,,,,,,,,,,1,,,,,,,,,,,,,,,,,,,,,,,,,,,,,,,,,,,,,,,,,,,,,,91,151792,19,Female,1,2024/03/14_15:48:08,YZ,None,
,,,,,,test,1,4,3,1750,4,N,1,left,0.345459766977001,1,0,,,,,,,,,,,,,,,,,,,,,1,,,,,,,,,,,,,,,,,,,,,,,,,,,,,,,,,,,,,,,,,,,,,,91,151792,19,Female,1,2024/03/14_15:48:08,YZ,None,
,,,,,,test,1,4,3,1750,5,F,0,right,0.360210990998894,1,0,,,,,,,,,,,,,,,,,,,,,1,,,,,,,,,,,,,,,,,,,,,,,,,,,,,,,,,,,,,,,,,,,,,,91,151792,19,Female,1,2024/03/14_15:48:08,YZ,None,
,,,,,,test,1,4,3,1750,6,Q,0,right,0.44946641399292275,1,0,,,,,,,,,,,,,,,,,,,,,1,,,,,,,,,,,,,,,,,,,,,,,,,,,,,,,,,,,,,,,,,,,,,,91,151792,19,Female,1,2024/03/14_15:48:08,YZ,None,
,,,,,,test,1,4,3,1750,7,X,0,left,0.32205903000431135,0,0,,,,,,,,,,,,,,,,,,,,,1,,,,,,,,,,,,,,,,,,,,,,,,,,,,,,,,,,,,,,,,,,,,,,91,151792,19,Female,1,2024/03/14_15:48:08,YZ,None,
,,,,,,test,1,4,3,1750,8,F,1,right,0.2769279179919977,0,0,,,,,,,,,,,,,,,,,,,,,1,,,,,,,,,,,,,,,,,,,,,,,,,,,,,,,,,,,,,,,,,,,,,,91,151792,19,Female,1,2024/03/14_15:48:08,YZ,None,
,,,,,,Test,1,4,3,1750,,,,,,,,0.75,0.5,0.16666666666666666,0.8333333333333334,0.0,0.8333333333333334,0.3489891341232578,1,1,0,0,0,5,6,2,6,0,,,,1,,,,,,,,,,,,,,,,,,,,,,,,,,,,,,,,,,,,,,,,,,,,,,91,151792,19,Female,1,2024/03/14_15:48:08,YZ,None,
,,,,,240314_161549,TEST,1,4,3,1750,,,,,,,,,,,,,,,,,,,,,,,,,,,,1,4,4,4,cue2.png,hard,A,64,0.5149168950156309,0,794.1500381240039,794.6813066739996,,,,,,,,,,,,,,,,,,,,,,,,,,,,,,,,,,,91,151792,19,Female,1,2024/03/14_15:48:08,YZ,None,
,,,,,,test,1,5,3,1750,1,V,0,right,0.12590188600006513,1,0,,,,,,,,,,,,,,,,,,,,,1,,,,,,,,,,,,,,,,,,,,,,,,,,,,,,,,,,,,,,,,,,,,,,91,151792,19,Female,1,2024/03/14_15:48:08,YZ,None,
,,,,,,test,1,5,3,1750,2,J,0,right,0.25765280600171536,1,0,,,,,,,,,,,,,,,,,,,,,1,,,,,,,,,,,,,,,,,,,,,,,,,,,,,,,,,,,,,,,,,,,,,,91,151792,19,Female,1,2024/03/14_15:48:08,YZ,None,
,,,,,,test,1,5,3,1750,3,N,0,right,0.6477497159794439,1,0,,,,,,,,,,,,,,,,,,,,,1,,,,,,,,,,,,,,,,,,,,,,,,,,,,,,,,,,,,,,,,,,,,,,91,151792,19,Female,1,2024/03/14_15:48:08,YZ,None,
,,,,,,test,1,5,3,1750,4,V,1,left,0.32951389098889194,1,0,,,,,,,,,,,,,,,,,,,,,1,,,,,,,,,,,,,,,,,,,,,,,,,,,,,,,,,,,,,,,,,,,,,,91,151792,19,Female,1,2024/03/14_15:48:08,YZ,None,
,,,,,,test,1,5,3,1750,5,S,0,right,0.22853705700254068,1,0,,,,,,,,,,,,,,,,,,,,,1,,,,,,,,,,,,,,,,,,,,,,,,,,,,,,,,,,,,,,,,,,,,,,91,151792,19,Female,1,2024/03/14_15:48:08,YZ,None,
,,,,,,test,1,5,3,1750,6,X,0,right,0.2608681799902115,1,0,,,,,,,,,,,,,,,,,,,,,1,,,,,,,,,,,,,,,,,,,,,,,,,,,,,,,,,,,,,,,,,,,,,,91,151792,19,Female,1,2024/03/14_15:48:08,YZ,None,
,,,,,,test,1,5,3,1750,7,V,1,left,0.36212072501075454,1,0,,,,,,,,,,,,,,,,,,,,,1,,,,,,,,,,,,,,,,,,,,,,,,,,,,,,,,,,,,,,,,,,,,,,91,151792,19,Female,1,2024/03/14_15:48:08,YZ,None,
,,,,,,test,1,5,3,1750,8,C,0,right,0.2157506649964489,1,0,,,,,,,,,,,,,,,,,,,,,1,,,,,,,,,,,,,,,,,,,,,,,,,,,,,,,,,,,,,,,,,,,,,,91,151792,19,Female,1,2024/03/14_15:48:08,YZ,None,
,,,,,,Test,1,5,3,1750,,,,,,,,1.0,1.0,0.0,1.0,0.0,1.0,0.303511865746259,2,0,0,0,0,6,8,2,6,0,,,,1,,,,,,,,,,,,,,,,,,,,,,,,,,,,,,,,,,,,,,,,,,,,,,91,151792,19,Female,1,2024/03/14_15:48:08,YZ,None,
,,,,,240314_161605,TEST,1,5,3,1750,,,,,,,,,,,,,,,,,,,,,,,,,,,,1,5,5,5,cue2.png,hard,A,65,0.40545268199639395,0,810.7614455909934,811.1833068339911,,,,,,,,,,,,,,,,,,,,,,,,,,,,,,,,,,,91,151792,19,Female,1,2024/03/14_15:48:08,YZ,None,
,,,,,,test,1,6,1,1750,1,N,0,right,0.30377271099132486,1,0,,,,,,,,,,,,,,,,,,,,,1,,,,,,,,,,,,,,,,,,,,,,,,,,,,,,,,,,,,,,,,,,,,,,91,151792,19,Female,1,2024/03/14_15:48:08,YZ,None,
,,,,,,test,1,6,1,1750,2,N,1,left,0.47941386298043653,1,0,,,,,,,,,,,,,,,,,,,,,1,,,,,,,,,,,,,,,,,,,,,,,,,,,,,,,,,,,,,,,,,,,,,,91,151792,19,Female,1,2024/03/14_15:48:08,YZ,None,
,,,,,,test,1,6,1,1750,3,S,0,right,0.2925870940089226,1,0,,,,,,,,,,,,,,,,,,,,,1,,,,,,,,,,,,,,,,,,,,,,,,,,,,,,,,,,,,,,,,,,,,,,91,151792,19,Female,1,2024/03/14_15:48:08,YZ,None,
,,,,,,test,1,6,1,1750,4,V,0,right,0.41279681300511584,1,0,,,,,,,,,,,,,,,,,,,,,1,,,,,,,,,,,,,,,,,,,,,,,,,,,,,,,,,,,,,,,,,,,,,,91,151792,19,Female,1,2024/03/14_15:48:08,YZ,None,
,,,,,,test,1,6,1,1750,5,X,0,right,0.49389238699222915,1,0,,,,,,,,,,,,,,,,,,,,,1,,,,,,,,,,,,,,,,,,,,,,,,,,,,,,,,,,,,,,,,,,,,,,91,151792,19,Female,1,2024/03/14_15:48:08,YZ,None,
,,,,,,test,1,6,1,1750,6,J,0,right,0.5491299309942406,1,0,,,,,,,,,,,,,,,,,,,,,1,,,,,,,,,,,,,,,,,,,,,,,,,,,,,,,,,,,,,,,,,,,,,,91,151792,19,Female,1,2024/03/14_15:48:08,YZ,None,
,,,,,,test,1,6,1,1750,7,J,1,left,0.3736266939959023,1,0,,,,,,,,,,,,,,,,,,,,,1,,,,,,,,,,,,,,,,,,,,,,,,,,,,,,,,,,,,,,,,,,,,,,91,151792,19,Female,1,2024/03/14_15:48:08,YZ,None,
,,,,,,test,1,6,1,1750,8,C,0,right,0.340654675004771,1,0,,,,,,,,,,,,,,,,,,,,,1,,,,,,,,,,,,,,,,,,,,,,,,,,,,,,,,,,,,,,,,,,,,,,91,151792,19,Female,1,2024/03/14_15:48:08,YZ,None,
,,,,,,Test,1,6,1,1750,,,,,,,,1.0,1.0,0.0,1.0,0.0,1.0,0.40573427099661785,2,0,0,0,0,6,8,2,6,0,,,,1,,,,,,,,,,,,,,,,,,,,,,,,,,,,,,,,,,,,,,,,,,,,,,91,151792,19,Female,1,2024/03/14_15:48:08,YZ,None,
,,,,,240314_161622,TEST,1,6,1,1750,,,,,,,,,,,,,,,,,,,,,,,,,,,,1,6,6,6,cue1.png,easy,A,61,0.4829654230270535,0,826.9061877249915,827.406026910001,,,,,,,,,,,,,,,,,,,,,,,,,,,,,,,,,,,91,151792,19,Female,1,2024/03/14_15:48:08,YZ,None,
,,,,,,test,1,7,3,1750,1,Q,0,right,0.4833761780173518,1,0,,,,,,,,,,,,,,,,,,,,,1,,,,,,,,,,,,,,,,,,,,,,,,,,,,,,,,,,,,,,,,,,,,,,91,151792,19,Female,1,2024/03/14_15:48:08,YZ,None,
,,,,,,test,1,7,3,1750,2,V,0,right,0.39357914502033964,1,0,,,,,,,,,,,,,,,,,,,,,1,,,,,,,,,,,,,,,,,,,,,,,,,,,,,,,,,,,,,,,,,,,,,,91,151792,19,Female,1,2024/03/14_15:48:08,YZ,None,
,,,,,,test,1,7,3,1750,3,J,0,right,0.41653724198113196,1,0,,,,,,,,,,,,,,,,,,,,,1,,,,,,,,,,,,,,,,,,,,,,,,,,,,,,,,,,,,,,,,,,,,,,91,151792,19,Female,1,2024/03/14_15:48:08,YZ,None,
,,,,,,test,1,7,3,1750,4,Q,1,left,0.38905871100723743,1,0,,,,,,,,,,,,,,,,,,,,,1,,,,,,,,,,,,,,,,,,,,,,,,,,,,,,,,,,,,,,,,,,,,,,91,151792,19,Female,1,2024/03/14_15:48:08,YZ,None,
,,,,,,test,1,7,3,1750,5,S,0,right,0.28121553699020296,1,0,,,,,,,,,,,,,,,,,,,,,1,,,,,,,,,,,,,,,,,,,,,,,,,,,,,,,,,,,,,,,,,,,,,,91,151792,19,Female,1,2024/03/14_15:48:08,YZ,None,
,,,,,,test,1,7,3,1750,6,F,0,right,0.2745624750095885,1,0,,,,,,,,,,,,,,,,,,,,,1,,,,,,,,,,,,,,,,,,,,,,,,,,,,,,,,,,,,,,,,,,,,,,91,151792,19,Female,1,2024/03/14_15:48:08,YZ,None,
,,,,,,test,1,7,3,1750,7,Q,1,left,0.35595013201236725,1,0,,,,,,,,,,,,,,,,,,,,,1,,,,,,,,,,,,,,,,,,,,,,,,,,,,,,,,,,,,,,,,,,,,,,91,151792,19,Female,1,2024/03/14_15:48:08,YZ,None,
,,,,,,test,1,7,3,1750,8,C,0,right,0.24480836899601854,1,0,,,,,,,,,,,,,,,,,,,,,1,,,,,,,,,,,,,,,,,,,,,,,,,,,,,,,,,,,,,,,,,,,,,,91,151792,19,Female,1,2024/03/14_15:48:08,YZ,None,
,,,,,,Test,1,7,3,1750,,,,,,,,1.0,1.0,0.0,1.0,0.0,1.0,0.35488597362927976,2,0,0,0,0,6,8,2,6,0,,,,1,,,,,,,,,,,,,,,,,,,,,,,,,,,,,,,,,,,,,,,,,,,,,,91,151792,19,Female,1,2024/03/14_15:48:08,YZ,None,
,,,,,240314_161639,TEST,1,7,3,1750,,,,,,,,,,,,,,,,,,,,,,,,,,,,1,7,7,7,cue2.png,hard,A,72,1.0386930859822314,0,843.9364337990119,845.0015666180116,,,,,,,,,,,,,,,,,,,,,,,,,,,,,,,,,,,91,151792,19,Female,1,2024/03/14_15:48:08,YZ,None,
,,,,,,test,1,8,3,1750,1,F,0,right,0.4366886189964134,1,0,,,,,,,,,,,,,,,,,,,,,1,,,,,,,,,,,,,,,,,,,,,,,,,,,,,,,,,,,,,,,,,,,,,,91,151792,19,Female,1,2024/03/14_15:48:08,YZ,None,
,,,,,,test,1,8,3,1750,2,S,0,right,0.34434073901502416,1,0,,,,,,,,,,,,,,,,,,,,,1,,,,,,,,,,,,,,,,,,,,,,,,,,,,,,,,,,,,,,,,,,,,,,91,151792,19,Female,1,2024/03/14_15:48:08,YZ,None,
,,,,,,test,1,8,3,1750,3,S,0,right,0.2735678200260736,1,0,,,,,,,,,,,,,,,,,,,,,1,,,,,,,,,,,,,,,,,,,,,,,,,,,,,,,,,,,,,,,,,,,,,,91,151792,19,Female,1,2024/03/14_15:48:08,YZ,None,
,,,,,,test,1,8,3,1750,4,J,0,right,0.35327022199635394,1,0,,,,,,,,,,,,,,,,,,,,,1,,,,,,,,,,,,,,,,,,,,,,,,,,,,,,,,,,,,,,,,,,,,,,91,151792,19,Female,1,2024/03/14_15:48:08,YZ,None,
,,,,,,test,1,8,3,1750,5,S,1,right,0.3845930850075092,0,0,,,,,,,,,,,,,,,,,,,,,1,,,,,,,,,,,,,,,,,,,,,,,,,,,,,,,,,,,,,,,,,,,,,,91,151792,19,Female,1,2024/03/14_15:48:08,YZ,None,
,,,,,,test,1,8,3,1750,6,S,1,left,0.29821890901075676,1,0,,,,,,,,,,,,,,,,,,,,,1,,,,,,,,,,,,,,,,,,,,,,,,,,,,,,,,,,,,,,,,,,,,,,91,151792,19,Female,1,2024/03/14_15:48:08,YZ,None,
,,,,,,test,1,8,3,1750,7,C,0,left,0.4242737749882508,0,0,,,,,,,,,,,,,,,,,,,,,1,,,,,,,,,,,,,,,,,,,,,,,,,,,,,,,,,,,,,,,,,,,,,,91,151792,19,Female,1,2024/03/14_15:48:08,YZ,None,
,,,,,,test,1,8,3,1750,8,V,0,left,0.3852785349881742,0,0,,,,,,,,,,,,,,,,,,,,,1,,,,,,,,,,,,,,,,,,,,,,,,,,,,,,,,,,,,,,,,,,,,,,91,151792,19,Female,1,2024/03/14_15:48:08,YZ,None,
,,,,,,Test,1,8,3,1750,,,,,,,,0.625,0.5,0.3333333333333333,0.6666666666666666,0.0,0.6666666666666667,0.3625289630035695,1,2,0,0,0,4,5,2,6,0,,,,1,,,,,,,,,,,,,,,,,,,,,,,,,,,,,,,,,,,,,,,,,,,,,,91,151792,19,Female,1,2024/03/14_15:48:08,YZ,None,
,,,,,240314_161656,TEST,1,8,3,1750,,,,,,,,,,,,,,,,,,,,,,,,,,,,1,8,8,8,cue2.png,hard,A,62,0.7376647359924391,0,861.1315878139867,861.8864419489983,,,,,,,,,,,,,,,,,,,,,,,,,,,,,,,,,,,91,151792,19,Female,1,2024/03/14_15:48:08,YZ,None,
,,,,,,test,1,9,1,1750,1,X,0,right,0.4644869820040185,1,0,,,,,,,,,,,,,,,,,,,,,1,,,,,,,,,,,,,,,,,,,,,,,,,,,,,,,,,,,,,,,,,,,,,,91,151792,19,Female,1,2024/03/14_15:48:08,YZ,None,
,,,,,,test,1,9,1,1750,2,N,0,right,0.37644082799670286,1,0,,,,,,,,,,,,,,,,,,,,,1,,,,,,,,,,,,,,,,,,,,,,,,,,,,,,,,,,,,,,,,,,,,,,91,151792,19,Female,1,2024/03/14_15:48:08,YZ,None,
,,,,,,test,1,9,1,1750,3,X,0,left,0.5007978549983818,0,0,,,,,,,,,,,,,,,,,,,,,1,,,,,,,,,,,,,,,,,,,,,,,,,,,,,,,,,,,,,,,,,,,,,,91,151792,19,Female,1,2024/03/14_15:48:08,YZ,None,
,,,,,,test,1,9,1,1750,4,F,0,right,0.2980482930142898,1,0,,,,,,,,,,,,,,,,,,,,,1,,,,,,,,,,,,,,,,,,,,,,,,,,,,,,,,,,,,,,,,,,,,,,91,151792,19,Female,1,2024/03/14_15:48:08,YZ,None,
,,,,,,test,1,9,1,1750,5,S,0,right,0.5715636949753389,1,0,,,,,,,,,,,,,,,,,,,,,1,,,,,,,,,,,,,,,,,,,,,,,,,,,,,,,,,,,,,,,,,,,,,,91,151792,19,Female,1,2024/03/14_15:48:08,YZ,None,
,,,,,,test,1,9,1,1750,6,S,1,left,0.48031029300182126,1,0,,,,,,,,,,,,,,,,,,,,,1,,,,,,,,,,,,,,,,,,,,,,,,,,,,,,,,,,,,,,,,,,,,,,91,151792,19,Female,1,2024/03/14_15:48:08,YZ,None,
,,,,,,test,1,9,1,1750,7,C,0,right,0.3288613769982476,1,0,,,,,,,,,,,,,,,,,,,,,1,,,,,,,,,,,,,,,,,,,,,,,,,,,,,,,,,,,,,,,,,,,,,,91,151792,19,Female,1,2024/03/14_15:48:08,YZ,None,
,,,,,,test,1,9,1,1750,8,C,1,left,0.42460755101637915,1,0,,,,,,,,,,,,,,,,,,,,,1,,,,,,,,,,,,,,,,,,,,,,,,,,,,,,,,,,,,,,,,,,,,,,91,151792,19,Female,1,2024/03/14_15:48:08,YZ,None,
,,,,,,Test,1,9,1,1750,,,,,,,,0.9583333333333334,1.0,0.16666666666666666,0.8333333333333334,0.0,0.8333333333333334,0.4306396092506475,2,1,0,0,0,5,7,2,6,0,,,,1,,,,,,,,,,,,,,,,,,,,,,,,,,,,,,,,,,,,,,,,,,,,,,91,151792,19,Female,1,2024/03/14_15:48:08,YZ,None,
,,,,,240314_161714,TEST,1,9,1,1750,,,,,,,,,,,,,,,,,,,,,,,,,,,,1,9,9,9,cue1.png,easy,A,61,0.794846092001535,0,878.0780375020113,878.885285700002,,,,,,,,,,,,,,,,,,,,,,,,,,,,,,,,,,,91,151792,19,Female,1,2024/03/14_15:48:08,YZ,None,
,,,,,,test,1,10,1,1750,1,X,0,right,0.10200959900976159,1,0,,,,,,,,,,,,,,,,,,,,,1,,,,,,,,,,,,,,,,,,,,,,,,,,,,,,,,,,,,,,,,,,,,,,91,151792,19,Female,1,2024/03/14_15:48:08,YZ,None,
,,,,,,test,1,10,1,1750,2,X,1,right,0.3121409519808367,0,0,,,,,,,,,,,,,,,,,,,,,1,,,,,,,,,,,,,,,,,,,,,,,,,,,,,,,,,,,,,,,,,,,,,,91,151792,19,Female,1,2024/03/14_15:48:08,YZ,None,
,,,,,,test,1,10,1,1750,3,N,0,right,0.40222877301857807,1,0,,,,,,,,,,,,,,,,,,,,,1,,,,,,,,,,,,,,,,,,,,,,,,,,,,,,,,,,,,,,,,,,,,,,91,151792,19,Female,1,2024/03/14_15:48:08,YZ,None,
,,,,,,test,1,10,1,1750,4,Q,0,right,0.35993074500584044,1,0,,,,,,,,,,,,,,,,,,,,,1,,,,,,,,,,,,,,,,,,,,,,,,,,,,,,,,,,,,,,,,,,,,,,91,151792,19,Female,1,2024/03/14_15:48:08,YZ,None,
,,,,,,test,1,10,1,1750,5,V,0,left,0.4247679010150023,0,0,,,,,,,,,,,,,,,,,,,,,1,,,,,,,,,,,,,,,,,,,,,,,,,,,,,,,,,,,,,,,,,,,,,,91,151792,19,Female,1,2024/03/14_15:48:08,YZ,None,
,,,,,,test,1,10,1,1750,6,J,0,right,0.33770902900141664,1,0,,,,,,,,,,,,,,,,,,,,,1,,,,,,,,,,,,,,,,,,,,,,,,,,,,,,,,,,,,,,,,,,,,,,91,151792,19,Female,1,2024/03/14_15:48:08,YZ,None,
,,,,,,test,1,10,1,1750,7,J,1,right,0.3120592729828786,0,0,,,,,,,,,,,,,,,,,,,,,1,,,,,,,,,,,,,,,,,,,,,,,,,,,,,,,,,,,,,,,,,,,,,,91,151792,19,Female,1,2024/03/14_15:48:08,YZ,None,
,,,,,,test,1,10,1,1750,8,Q,0,right,0.5119756819913164,1,0,,,,,,,,,,,,,,,,,,,,,1,,,,,,,,,,,,,,,,,,,,,,,,,,,,,,,,,,,,,,,,,,,,,,91,151792,19,Female,1,2024/03/14_15:48:08,YZ,None,
,,,,,,Test,1,10,1,1750,,,,,,,,0.20833333333333334,0.0,0.16666666666666666,0.8333333333333334,0.0,0.8333333333333334,0.34535274425070384,0,1,0,0,0,5,5,2,6,0,,,,1,,,,,,,,,,,,,,,,,,,,,,,,,,,,,,,,,,,,,,,,,,,,,,91,151792,19,Female,1,2024/03/14_15:48:08,YZ,None,
,,,,,240314_161730,TEST,1,10,1,1750,,,,,,,,,,,,,,,,,,,,,,,,,,,,1,10,10,10,cue1.png,easy,A,66,0.5720826639735606,0,895.6465250150068,896.2383068130002,,,,,,,,,,,,,,,,,,,,,,,,,,,,,,,,,,,91,151792,19,Female,1,2024/03/14_15:48:08,YZ,None,
,,,,,,test,1,11,3,1750,1,J,0,right,0.4145213130104821,1,0,,,,,,,,,,,,,,,,,,,,,1,,,,,,,,,,,,,,,,,,,,,,,,,,,,,,,,,,,,,,,,,,,,,,91,151792,19,Female,1,2024/03/14_15:48:08,YZ,None,
,,,,,,test,1,11,3,1750,2,X,0,right,0.7437355289875995,1,0,,,,,,,,,,,,,,,,,,,,,1,,,,,,,,,,,,,,,,,,,,,,,,,,,,,,,,,,,,,,,,,,,,,,91,151792,19,Female,1,2024/03/14_15:48:08,YZ,None,
,,,,,,test,1,11,3,1750,3,C,0,right,0.2841680799901951,1,0,,,,,,,,,,,,,,,,,,,,,1,,,,,,,,,,,,,,,,,,,,,,,,,,,,,,,,,,,,,,,,,,,,,,91,151792,19,Female,1,2024/03/14_15:48:08,YZ,None,
,,,,,,test,1,11,3,1750,4,Q,0,right,0.33606764901196584,1,0,,,,,,,,,,,,,,,,,,,,,1,,,,,,,,,,,,,,,,,,,,,,,,,,,,,,,,,,,,,,,,,,,,,,91,151792,19,Female,1,2024/03/14_15:48:08,YZ,None,
,,,,,,test,1,11,3,1750,5,Q,0,right,0.4206007699831389,1,0,,,,,,,,,,,,,,,,,,,,,1,,,,,,,,,,,,,,,,,,,,,,,,,,,,,,,,,,,,,,,,,,,,,,91,151792,19,Female,1,2024/03/14_15:48:08,YZ,None,
,,,,,,test,1,11,3,1750,6,C,1,right,0.3863198610197287,0,0,,,,,,,,,,,,,,,,,,,,,1,,,,,,,,,,,,,,,,,,,,,,,,,,,,,,,,,,,,,,,,,,,,,,91,151792,19,Female,1,2024/03/14_15:48:08,YZ,None,
,,,,,,test,1,11,3,1750,7,Q,1,right,0.39169535000110045,0,0,,,,,,,,,,,,,,,,,,,,,1,,,,,,,,,,,,,,,,,,,,,,,,,,,,,,,,,,,,,,,,,,,,,,91,151792,19,Female,1,2024/03/14_15:48:08,YZ,None,
,,,,,,test,1,11,3,1750,8,V,0,left,0.3281978750019334,0,0,,,,,,,,,,,,,,,,,,,,,1,,,,,,,,,,,,,,,,,,,,,,,,,,,,,,,,,,,,,,,,,,,,,,91,151792,19,Female,1,2024/03/14_15:48:08,YZ,None,
,,,,,,Test,1,11,3,1750,,,,,,,,0.20833333333333334,0.0,0.16666666666666666,0.8333333333333334,0.0,0.8333333333333334,0.413163303375768,0,1,0,0,0,5,5,2,6,0,,,,1,,,,,,,,,,,,,,,,,,,,,,,,,,,,,,,,,,,,,,,,,,,,,,91,151792,19,Female,1,2024/03/14_15:48:08,YZ,None,
,,,,,240314_161747,TEST,1,11,3,1750,,,,,,,,,,,,,,,,,,,,,,,,,,,,1,11,11,11,cue2.png,hard,A,48,0.4217160170082934,0,912.3095740400022,912.7517021530075,,,,,,,,,,,,,,,,,,,,,,,,,,,,,,,,,,,91,151792,19,Female,1,2024/03/14_15:48:08,YZ,None,
,,,,,,test,1,12,1,1750,1,C,0,right,0.1957155389827676,1,0,,,,,,,,,,,,,,,,,,,,,1,,,,,,,,,,,,,,,,,,,,,,,,,,,,,,,,,,,,,,,,,,,,,,91,151792,19,Female,1,2024/03/14_15:48:08,YZ,None,
,,,,,,test,1,12,1,1750,2,C,1,left,0.3679701410001144,1,0,,,,,,,,,,,,,,,,,,,,,1,,,,,,,,,,,,,,,,,,,,,,,,,,,,,,,,,,,,,,,,,,,,,,91,151792,19,Female,1,2024/03/14_15:48:08,YZ,None,
,,,,,,test,1,12,1,1750,3,V,0,right,0.34595374201308005,1,0,,,,,,,,,,,,,,,,,,,,,1,,,,,,,,,,,,,,,,,,,,,,,,,,,,,,,,,,,,,,,,,,,,,,91,151792,19,Female,1,2024/03/14_15:48:08,YZ,None,
,,,,,,test,1,12,1,1750,4,J,0,right,0.43970708802226,1,0,,,,,,,,,,,,,,,,,,,,,1,,,,,,,,,,,,,,,,,,,,,,,,,,,,,,,,,,,,,,,,,,,,,,91,151792,19,Female,1,2024/03/14_15:48:08,YZ,None,
,,,,,,test,1,12,1,1750,5,C,0,left,0.4078272199840285,0,0,,,,,,,,,,,,,,,,,,,,,1,,,,,,,,,,,,,,,,,,,,,,,,,,,,,,,,,,,,,,,,,,,,,,91,151792,19,Female,1,2024/03/14_15:48:08,YZ,None,
,,,,,,test,1,12,1,1750,6,C,1,right,0.2963801459991373,0,0,,,,,,,,,,,,,,,,,,,,,1,,,,,,,,,,,,,,,,,,,,,,,,,,,,,,,,,,,,,,,,,,,,,,91,151792,19,Female,1,2024/03/14_15:48:08,YZ,None,
,,,,,,test,1,12,1,1750,7,J,0,right,0.5232082070142496,1,0,,,,,,,,,,,,,,,,,,,,,1,,,,,,,,,,,,,,,,,,,,,,,,,,,,,,,,,,,,,,,,,,,,,,91,151792,19,Female,1,2024/03/14_15:48:08,YZ,None,
,,,,,,test,1,12,1,1750,8,S,0,left,0.6627067249792162,0,0,,,,,,,,,,,,,,,,,,,,,1,,,,,,,,,,,,,,,,,,,,,,,,,,,,,,,,,,,,,,,,,,,,,,91,151792,19,Female,1,2024/03/14_15:48:08,YZ,None,
,,,,,,Test,1,12,1,1750,,,,,,,,0.625,0.5,0.3333333333333333,0.6666666666666666,0.0,0.6666666666666667,0.4049336009993567,1,2,0,0,0,4,5,2,6,0,,,,1,,,,,,,,,,,,,,,,,,,,,,,,,,,,,,,,,,,,,,,,,,,,,,91,151792,19,Female,1,2024/03/14_15:48:08,YZ,None,
,,,,,240314_161805,TEST,1,12,1,1750,,,,,,,,,,,,,,,,,,,,,,,,,,,,1,12,12,12,cue1.png,easy,A,62,0.5686665979737882,0,929.3549138490052,929.938944176014,,,,,,,,,,,,,,,,,,,,,,,,,,,,,,,,,,,91,151792,19,Female,1,2024/03/14_15:48:08,YZ,None,
,,,,,,test,1,13,1,1750,1,V,0,right,0.29600733300321735,1,0,,,,,,,,,,,,,,,,,,,,,1,,,,,,,,,,,,,,,,,,,,,,,,,,,,,,,,,,,,,,,,,,,,,,91,151792,19,Female,1,2024/03/14_15:48:08,YZ,None,
,,,,,,test,1,13,1,1750,2,J,0,right,0.4366762030113023,1,0,,,,,,,,,,,,,,,,,,,,,1,,,,,,,,,,,,,,,,,,,,,,,,,,,,,,,,,,,,,,,,,,,,,,91,151792,19,Female,1,2024/03/14_15:48:08,YZ,None,
,,,,,,test,1,13,1,1750,3,J,1,left,0.5590769819973502,1,0,,,,,,,,,,,,,,,,,,,,,1,,,,,,,,,,,,,,,,,,,,,,,,,,,,,,,,,,,,,,,,,,,,,,91,151792,19,Female,1,2024/03/14_15:48:08,YZ,None,
,,,,,,test,1,13,1,1750,4,S,0,right,0.42480807297397405,1,0,,,,,,,,,,,,,,,,,,,,,1,,,,,,,,,,,,,,,,,,,,,,,,,,,,,,,,,,,,,,,,,,,,,,91,151792,19,Female,1,2024/03/14_15:48:08,YZ,None,
,,,,,,test,1,13,1,1750,5,J,0,right,0.46865248199901544,1,0,,,,,,,,,,,,,,,,,,,,,1,,,,,,,,,,,,,,,,,,,,,,,,,,,,,,,,,,,,,,,,,,,,,,91,151792,19,Female,1,2024/03/14_15:48:08,YZ,None,
,,,,,,test,1,13,1,1750,6,V,0,right,0.635659402993042,1,0,,,,,,,,,,,,,,,,,,,,,1,,,,,,,,,,,,,,,,,,,,,,,,,,,,,,,,,,,,,,,,,,,,,,91,151792,19,Female,1,2024/03/14_15:48:08,YZ,None,
,,,,,,test,1,13,1,1750,7,X,0,right,0.48382556199794635,1,0,,,,,,,,,,,,,,,,,,,,,1,,,,,,,,,,,,,,,,,,,,,,,,,,,,,,,,,,,,,,,,,,,,,,91,151792,19,Female,1,2024/03/14_15:48:08,YZ,None,
,,,,,,test,1,13,1,1750,8,X,1,left,0.48050179198617116,1,0,,,,,,,,,,,,,,,,,,,,,1,,,,,,,,,,,,,,,,,,,,,,,,,,,,,,,,,,,,,,,,,,,,,,91,151792,19,Female,1,2024/03/14_15:48:08,YZ,None,
,,,,,,Test,1,13,1,1750,,,,,,,,1.0,1.0,0.0,1.0,0.0,1.0,0.47315097874525236,2,0,0,0,0,6,8,2,6,0,,,,1,,,,,,,,,,,,,,,,,,,,,,,,,,,,,,,,,,,,,,,,,,,,,,91,151792,19,Female,1,2024/03/14_15:48:08,YZ,None,
,,,,,240314_161822,TEST,1,13,1,1750,,,,,,,,,,,,,,,,,,,,,,,,,,,,1,13,13,13,cue1.png,easy,A,60,0.604929560009623,0,946.4832913329883,947.1076605459966,,,,,,,,,,,,,,,,,,,,,,,,,,,,,,,,,,,91,151792,19,Female,1,2024/03/14_15:48:08,YZ,None,
,,,,,,test,1,14,1,1750,1,Q,0,right,0.18574101000558585,1,0,,,,,,,,,,,,,,,,,,,,,1,,,,,,,,,,,,,,,,,,,,,,,,,,,,,,,,,,,,,,,,,,,,,,91,151792,19,Female,1,2024/03/14_15:48:08,YZ,None,
,,,,,,test,1,14,1,1750,2,Q,1,left,0.40828776598209515,1,0,,,,,,,,,,,,,,,,,,,,,1,,,,,,,,,,,,,,,,,,,,,,,,,,,,,,,,,,,,,,,,,,,,,,91,151792,19,Female,1,2024/03/14_15:48:08,YZ,None,
,,,,,,test,1,14,1,1750,3,X,0,right,0.32795383999473415,1,0,,,,,,,,,,,,,,,,,,,,,1,,,,,,,,,,,,,,,,,,,,,,,,,,,,,,,,,,,,,,,,,,,,,,91,151792,19,Female,1,2024/03/14_15:48:08,YZ,None,
,,,,,,test,1,14,1,1750,4,C,0,left,0.5495068930031266,0,0,,,,,,,,,,,,,,,,,,,,,1,,,,,,,,,,,,,,,,,,,,,,,,,,,,,,,,,,,,,,,,,,,,,,91,151792,19,Female,1,2024/03/14_15:48:08,YZ,None,
,,,,,,test,1,14,1,1750,5,V,0,right,0.31920259300386533,1,0,,,,,,,,,,,,,,,,,,,,,1,,,,,,,,,,,,,,,,,,,,,,,,,,,,,,,,,,,,,,,,,,,,,,91,151792,19,Female,1,2024/03/14_15:48:08,YZ,None,
,,,,,,test,1,14,1,1750,6,J,0,right,0.42485863200272433,1,0,,,,,,,,,,,,,,,,,,,,,1,,,,,,,,,,,,,,,,,,,,,,,,,,,,,,,,,,,,,,,,,,,,,,91,151792,19,Female,1,2024/03/14_15:48:08,YZ,None,
,,,,,,test,1,14,1,1750,7,F,0,right,0.43179613500251435,1,0,,,,,,,,,,,,,,,,,,,,,1,,,,,,,,,,,,,,,,,,,,,,,,,,,,,,,,,,,,,,,,,,,,,,91,151792,19,Female,1,2024/03/14_15:48:08,YZ,None,
,,,,,,test,1,14,1,1750,8,F,1,right,0.41249103398877196,0,0,,,,,,,,,,,,,,,,,,,,,1,,,,,,,,,,,,,,,,,,,,,,,,,,,,,,,,,,,,,,,,,,,,,,91,151792,19,Female,1,2024/03/14_15:48:08,YZ,None,
,,,,,,Test,1,14,1,1750,,,,,,,,0.75,0.5,0.16666666666666666,0.8333333333333334,0.0,0.8333333333333334,0.3824797378729272,1,1,0,0,0,5,6,2,6,0,,,,1,,,,,,,,,,,,,,,,,,,,,,,,,,,,,,,,,,,,,,,,,,,,,,91,151792,19,Female,1,2024/03/14_15:48:08,YZ,None,
,,,,,240314_161839,TEST,1,14,1,1750,,,,,,,,,,,,,,,,,,,,,,,,,,,,1,14,14,14,cue1.png,easy,A,60,0.7369925559905823,0,964.1940200130048,964.9553475000139,,,,,,,,,,,,,,,,,,,,,,,,,,,,,,,,,,,91,151792,19,Female,1,2024/03/14_15:48:08,YZ,None,
,,,,,,test,1,15,3,1750,1,J,0,right,0.22492827198584564,1,0,,,,,,,,,,,,,,,,,,,,,1,,,,,,,,,,,,,,,,,,,,,,,,,,,,,,,,,,,,,,,,,,,,,,91,151792,19,Female,1,2024/03/14_15:48:08,YZ,None,
,,,,,,test,1,15,3,1750,2,C,0,right,0.27403882500948384,1,0,,,,,,,,,,,,,,,,,,,,,1,,,,,,,,,,,,,,,,,,,,,,,,,,,,,,,,,,,,,,,,,,,,,,91,151792,19,Female,1,2024/03/14_15:48:08,YZ,None,
,,,,,,test,1,15,3,1750,3,S,0,right,0.4415098569879774,1,0,,,,,,,,,,,,,,,,,,,,,1,,,,,,,,,,,,,,,,,,,,,,,,,,,,,,,,,,,,,,,,,,,,,,91,151792,19,Female,1,2024/03/14_15:48:08,YZ,None,
,,,,,,test,1,15,3,1750,4,V,0,right,0.43404099901090376,1,0,,,,,,,,,,,,,,,,,,,,,1,,,,,,,,,,,,,,,,,,,,,,,,,,,,,,,,,,,,,,,,,,,,,,91,151792,19,Female,1,2024/03/14_15:48:08,YZ,None,
,,,,,,test,1,15,3,1750,5,X,0,right,0.4083897600066848,1,0,,,,,,,,,,,,,,,,,,,,,1,,,,,,,,,,,,,,,,,,,,,,,,,,,,,,,,,,,,,,,,,,,,,,91,151792,19,Female,1,2024/03/14_15:48:08,YZ,None,
,,,,,,test,1,15,3,1750,6,S,1,left,0.49637221501325257,1,0,,,,,,,,,,,,,,,,,,,,,1,,,,,,,,,,,,,,,,,,,,,,,,,,,,,,,,,,,,,,,,,,,,,,91,151792,19,Female,1,2024/03/14_15:48:08,YZ,None,
,,,,,,test,1,15,3,1750,7,V,1,right,0.3548550650011748,0,0,,,,,,,,,,,,,,,,,,,,,1,,,,,,,,,,,,,,,,,,,,,,,,,,,,,,,,,,,,,,,,,,,,,,91,151792,19,Female,1,2024/03/14_15:48:08,YZ,None,
,,,,,,test,1,15,3,1750,8,F,0,left,0.5924268499948084,0,0,,,,,,,,,,,,,,,,,,,,,1,,,,,,,,,,,,,,,,,,,,,,,,,,,,,,,,,,,,,,,,,,,,,,91,151792,19,Female,1,2024/03/14_15:48:08,YZ,None,
,,,,,,Test,1,15,3,1750,,,,,,,,0.75,0.5,0.16666666666666666,0.8333333333333334,0.0,0.8333333333333334,0.4033202303762664,1,1,0,0,0,5,6,2,6,0,,,,1,,,,,,,,,,,,,,,,,,,,,,,,,,,,,,,,,,,,,,,,,,,,,,91,151792,19,Female,1,2024/03/14_15:48:08,YZ,None,
,,,,,240314_161857,TEST,1,15,3,1750,,,,,,,,,,,,,,,,,,,,,,,,,,,,1,15,15,15,cue2.png,hard,A,56,1.1329159649903886,0,981.3190102030057,982.4693097909912,,,,,,,,,,,,,,,,,,,,,,,,,,,,,,,,,,,91,151792,19,Female,1,2024/03/14_15:48:08,YZ,None,
,,,,,,test,1,16,1,1750,1,Q,0,right,0.444879843009403,1,0,,,,,,,,,,,,,,,,,,,,,1,,,,,,,,,,,,,,,,,,,,,,,,,,,,,,,,,,,,,,,,,,,,,,91,151792,19,Female,1,2024/03/14_15:48:08,YZ,None,
,,,,,,test,1,16,1,1750,2,V,0,right,0.34047906400519423,1,0,,,,,,,,,,,,,,,,,,,,,1,,,,,,,,,,,,,,,,,,,,,,,,,,,,,,,,,,,,,,,,,,,,,,91,151792,19,Female,1,2024/03/14_15:48:08,YZ,None,
,,,,,,test,1,16,1,1750,3,S,0,right,0.3863686980039347,1,0,,,,,,,,,,,,,,,,,,,,,1,,,,,,,,,,,,,,,,,,,,,,,,,,,,,,,,,,,,,,,,,,,,,,91,151792,19,Female,1,2024/03/14_15:48:08,YZ,None,
,,,,,,test,1,16,1,1750,4,C,0,right,0.4406262910051737,1,0,,,,,,,,,,,,,,,,,,,,,1,,,,,,,,,,,,,,,,,,,,,,,,,,,,,,,,,,,,,,,,,,,,,,91,151792,19,Female,1,2024/03/14_15:48:08,YZ,None,
,,,,,,test,1,16,1,1750,5,C,1,left,0.5123142169904895,1,0,,,,,,,,,,,,,,,,,,,,,1,,,,,,,,,,,,,,,,,,,,,,,,,,,,,,,,,,,,,,,,,,,,,,91,151792,19,Female,1,2024/03/14_15:48:08,YZ,None,
,,,,,,test,1,16,1,1750,6,V,0,right,0.3402450699941255,1,0,,,,,,,,,,,,,,,,,,,,,1,,,,,,,,,,,,,,,,,,,,,,,,,,,,,,,,,,,,,,,,,,,,,,91,151792,19,Female,1,2024/03/14_15:48:08,YZ,None,
,,,,,,test,1,16,1,1750,7,V,1,left,0.35263889201451093,1,0,,,,,,,,,,,,,,,,,,,,,1,,,,,,,,,,,,,,,,,,,,,,,,,,,,,,,,,,,,,,,,,,,,,,91,151792,19,Female,1,2024/03/14_15:48:08,YZ,None,
,,,,,,test,1,16,1,1750,8,J,0,right,0.2877297890081536,1,0,,,,,,,,,,,,,,,,,,,,,1,,,,,,,,,,,,,,,,,,,,,,,,,,,,,,,,,,,,,,,,,,,,,,91,151792,19,Female,1,2024/03/14_15:48:08,YZ,None,
,,,,,,Test,1,16,1,1750,,,,,,,,1.0,1.0,0.0,1.0,0.0,1.0,0.38816023300387315,2,0,0,0,0,6,8,2,6,0,,,,1,,,,,,,,,,,,,,,,,,,,,,,,,,,,,,,,,,,,,,,,,,,,,,91,151792,19,Female,1,2024/03/14_15:48:08,YZ,None,
,,,,,240314_161914,TEST,1,16,1,1750,,,,,,,,,,,,,,,,,,,,,,,,,,,,1,16,16,16,cue1.png,easy,A,56,0.6474986760003958,0,998.9993339859939,999.6638770400023,,,,,,,,,,,,,,,,,,,,,,,,,,,,,,,,,,,91,151792,19,Female,1,2024/03/14_15:48:08,YZ,None,
,,,,,,test,1,17,1,1750,1,J,0,right,0.2886353849899024,1,0,,,,,,,,,,,,,,,,,,,,,1,,,,,,,,,,,,,,,,,,,,,,,,,,,,,,,,,,,,,,,,,,,,,,91,151792,19,Female,1,2024/03/14_15:48:08,YZ,None,
,,,,,,test,1,17,1,1750,2,J,1,right,0.36070141501841135,0,0,,,,,,,,,,,,,,,,,,,,,1,,,,,,,,,,,,,,,,,,,,,,,,,,,,,,,,,,,,,,,,,,,,,,91,151792,19,Female,1,2024/03/14_15:48:08,YZ,None,
,,,,,,test,1,17,1,1750,3,V,0,right,0.45274846800020896,1,0,,,,,,,,,,,,,,,,,,,,,1,,,,,,,,,,,,,,,,,,,,,,,,,,,,,,,,,,,,,,,,,,,,,,91,151792,19,Female,1,2024/03/14_15:48:08,YZ,None,
,,,,,,test,1,17,1,1750,4,Q,0,right,0.3920209089992568,1,0,,,,,,,,,,,,,,,,,,,,,1,,,,,,,,,,,,,,,,,,,,,,,,,,,,,,,,,,,,,,,,,,,,,,91,151792,19,Female,1,2024/03/14_15:48:08,YZ,None,
,,,,,,test,1,17,1,1750,5,X,0,right,0.7772733090096153,1,0,,,,,,,,,,,,,,,,,,,,,1,,,,,,,,,,,,,,,,,,,,,,,,,,,,,,,,,,,,,,,,,,,,,,91,151792,19,Female,1,2024/03/14_15:48:08,YZ,None,
,,,,,,test,1,17,1,1750,6,C,0,right,0.4842571500048507,1,0,,,,,,,,,,,,,,,,,,,,,1,,,,,,,,,,,,,,,,,,,,,,,,,,,,,,,,,,,,,,,,,,,,,,91,151792,19,Female,1,2024/03/14_15:48:08,YZ,None,
,,,,,,test,1,17,1,1750,7,J,0,right,0.5427074760082178,1,0,,,,,,,,,,,,,,,,,,,,,1,,,,,,,,,,,,,,,,,,,,,,,,,,,,,,,,,,,,,,,,,,,,,,91,151792,19,Female,1,2024/03/14_15:48:08,YZ,None,
,,,,,,test,1,17,1,1750,8,J,1,left,0.3696079600194935,1,0,,,,,,,,,,,,,,,,,,,,,1,,,,,,,,,,,,,,,,,,,,,,,,,,,,,,,,,,,,,,,,,,,,,,91,151792,19,Female,1,2024/03/14_15:48:08,YZ,None,
,,,,,,Test,1,17,1,1750,,,,,,,,0.875,0.5,0.0,1.0,0.0,1.0,0.4584940090062446,1,0,0,0,0,6,7,2,6,0,,,,1,,,,,,,,,,,,,,,,,,,,,,,,,,,,,,,,,,,,,,,,,,,,,,91,151792,19,Female,1,2024/03/14_15:48:08,YZ,None,
,,,,,240314_161932,TEST,1,17,1,1750,,,,,,,,,,,,,,,,,,,,,,,,,,,,1,17,17,17,cue1.png,easy,A,63,0.5709424420201685,0,1016.0839435959933,1016.6749472490046,,,,,,,,,,,,,,,,,,,,,,,,,,,,,,,,,,,91,151792,19,Female,1,2024/03/14_15:48:08,YZ,None,
