Instruction,Stimulus,Key,RT,START,END,Phase,Block,TrialN,NbackLevel,ISI,LetterN,Letter,Letter_isSame,Letter_Resp,Letter_RT,Letter_Accuracy,Letter_Timeout,Trial_A_measure,Trial_HR,Trial_FAR,Trial_CDR,Trial_MSR,Trial_ACC,Trial_RT,Trial_HitsCount,Trial_FAsCount,Trial_SameNoRespCount,Trial_DiffNoRespCount,Trial_NoRespCount,Trial_CDsCount,Trial_CorrectRespCount,Trial_SameLetterCount,Trial_DiffLetterCount,Trial_InvalidLetterCount,TrialCountCali,CaliEnd_A_measure,ISI_calibrated,Run,TrialIndex,TrialNumber_total,TrialNumber_valid,CueLearning,TrialDemandLearning,CueMapping,CueSTART,OfflineRatingTimePoint,OfflineRatingQuesIndex,CueFigure,TrialDemand,OfflineRating,OfflineRatingRT,CueStart,OfflineRatingStart,PhaseType,CueLeft,CueDemandLeft,CueRight,CueDemandRight,Choice,ChoiceDemand,TaskDemand,ChoiceRT,ChoiceTimeOut,ChoiceSTART,CueCheck,CueDemandCheck,CorrectAnswer,Answer,AnswerDemand,AnswerRT,AnswerACC,AnswerTimeOut,CheckSTART,DemandRatingQuesIndex,QuesTLX,DemandLevel,DemandRating,DemandRatingRT,QuesStart,PID,Age,Gender,Run,TIME,EXPERIMENTER,frameRate,
1,.\instructions\inst_begin\Slide1.png,right,2.848789499999839,0.156262999997125,3.005052499996964,,,,,,,,,,,,,,,,,,,,,,,,,,,,,,,,,1,,,,,,,,,,,,,,,,,,,,,,,,,,,,,,,,,,,,,,,,,,999,26,Female,1,2024/05/15_09:22:42,YZ,60.01006968952248,
2,.\instructions\inst_begin\Slide2.png,right,2.4730724999972153,3.0336409000010462,5.506713399998262,,,,,,,,,,,,,,,,,,,,,,,,,,,,,,,,,1,,,,,,,,,,,,,,,,,,,,,,,,,,,,,,,,,,,,,,,,,,999,26,Female,1,2024/05/15_09:22:42,YZ,60.01006968952248,
3,.\instructions\inst_begin\Slide3.png,right,1.1016831000015372,5.53911589999916,6.640799000000698,,,,,,,,,,,,,,,,,,,,,,,,,,,,,,,,,1,,,,,,,,,,,,,,,,,,,,,,,,,,,,,,,,,,,,,,,,,,999,26,Female,1,2024/05/15_09:22:42,YZ,60.01006968952248,
1,.\instructions\inst_prac_2\Slide1.png,right,2.373701499993331,6.6854028000016115,9.059104299994942,,,,,,,,,,,,,,,,,,,,,,,,,,,,,,,,,1,,,,,,,,,,,,,,,,,,,,,,,,,,,,,,,,,,,,,,,,,,999,26,Female,1,2024/05/15_09:22:42,YZ,60.01006968952248,
2,.\instructions\inst_prac_2\Slide2.png,right,0.7211327999975765,9.09151109999948,9.812643899997056,,,,,,,,,,,,,,,,,,,,,,,,,,,,,,,,,1,,,,,,,,,,,,,,,,,,,,,,,,,,,,,,,,,,,,,,,,,,999,26,Female,1,2024/05/15_09:22:42,YZ,60.01006968952248,
3,.\instructions\inst_prac_2\Slide3.png,right,0.5607299999974202,9.84394749999774,10.40467749999516,,,,,,,,,,,,,,,,,,,,,,,,,,,,,,,,,1,,,,,,,,,,,,,,,,,,,,,,,,,,,,,,,,,,,,,,,,,,999,26,Female,1,2024/05/15_09:22:42,YZ,60.01006968952248,
4,.\instructions\inst_prac_2\Slide4.png,right,0.45759389999875566,10.435119199995825,10.89271309999458,,,,,,,,,,,,,,,,,,,,,,,,,,,,,,,,,1,,,,,,,,,,,,,,,,,,,,,,,,,,,,,,,,,,,,,,,,,,999,26,Female,1,2024/05/15_09:22:42,YZ,60.01006968952248,
5,.\instructions\inst_prac_2\Slide5.png,right,0.6373642999969888,10.923397799997474,11.560762099994463,,,,,,,,,,,,,,,,,,,,,,,,,,,,,,,,,1,,,,,,,,,,,,,,,,,,,,,,,,,,,,,,,,,,,,,,,,,,999,26,Female,1,2024/05/15_09:22:42,YZ,60.01006968952248,
6,.\instructions\inst_prac_2\Slide6.png,right,0.4375094999995781,11.591224799994961,12.02873429999454,,,,,,,,,,,,,,,,,,,,,,,,,,,,,,,,,1,,,,,,,,,,,,,,,,,,,,,,,,,,,,,,,,,,,,,,,,,,999,26,Female,1,2024/05/15_09:22:42,YZ,60.01006968952248,
7,.\instructions\inst_prac_2\Slide7.png,right,0.5354630999936489,12.059307700001227,12.594770799994876,,,,,,,,,,,,,,,,,,,,,,,,,,,,,,,,,1,,,,,,,,,,,,,,,,,,,,,,,,,,,,,,,,,,,,,,,,,,999,26,Female,1,2024/05/15_09:22:42,YZ,60.01006968952248,
8,.\instructions\inst_prac_2\Slide8.png,right,0.5393524000028265,12.625346399996488,13.164698799999314,,,,,,,,,,,,,,,,,,,,,,,,,,,,,,,,,1,,,,,,,,,,,,,,,,,,,,,,,,,,,,,,,,,,,,,,,,,,999,26,Female,1,2024/05/15_09:22:42,YZ,60.01006968952248,
9,.\instructions\inst_prac_2\Slide9.png,right,2.1502313000019058,13.196371199999703,15.346602500001609,,,,,,,,,,,,,,,,,,,,,,,,,,,,,,,,,1,,,,,,,,,,,,,,,,,,,,,,,,,,,,,,,,,,,,,,,,,,999,26,Female,1,2024/05/15_09:22:42,YZ,60.01006968952248,
10,.\instructions\inst_prac_2\Slide10.png,right,1.653724499999953,15.377400400000624,17.031124900000577,,,,,,,,,,,,,,,,,,,,,,,,,,,,,,,,,1,,,,,,,,,,,,,,,,,,,,,,,,,,,,,,,,,,,,,,,,,,999,26,Female,1,2024/05/15_09:22:42,YZ,60.01006968952248,
,,,,,,practice,0,12,2,2583,1,C,0,right,1.195871799995075,1,0,,,,,,,,,,,,,,,,,,,,,1,,,,,,,,,,,,,,,,,,,,,,,,,,,,,,,,,,,,,,,,,,999,26,Female,1,2024/05/15_09:22:42,YZ,60.01006968952248,
,,,,,,practice,0,12,2,2583,2,J,0,right,0.11665240000002086,1,0,,,,,,,,,,,,,,,,,,,,,1,,,,,,,,,,,,,,,,,,,,,,,,,,,,,,,,,,,,,,,,,,999,26,Female,1,2024/05/15_09:22:42,YZ,60.01006968952248,
,,,,,,practice,0,12,2,2583,3,C,1,left,0.6911251999990782,1,0,,,,,,,,,,,,,,,,,,,,,1,,,,,,,,,,,,,,,,,,,,,,,,,,,,,,,,,,,,,,,,,,999,26,Female,1,2024/05/15_09:22:42,YZ,60.01006968952248,
,,,,,,practice,0,12,2,2583,4,N,0,right,0.4109392999962438,1,0,,,,,,,,,,,,,,,,,,,,,1,,,,,,,,,,,,,,,,,,,,,,,,,,,,,,,,,,,,,,,,,,999,26,Female,1,2024/05/15_09:22:42,YZ,60.01006968952248,
,,,,,,practice,0,12,2,2583,5,C,1,left,0.41155670000443934,1,0,,,,,,,,,,,,,,,,,,,,,1,,,,,,,,,,,,,,,,,,,,,,,,,,,,,,,,,,,,,,,,,,999,26,Female,1,2024/05/15_09:22:42,YZ,60.01006968952248,
,,,,,,practice,0,12,2,2583,6,X,0,right,0.7649767999973847,1,0,,,,,,,,,,,,,,,,,,,,,1,,,,,,,,,,,,,,,,,,,,,,,,,,,,,,,,,,,,,,,,,,999,26,Female,1,2024/05/15_09:22:42,YZ,60.01006968952248,
,,,,,,practice,0,12,2,2583,,,,,,,,1.0,1.0,0.0,1.0,0.0,1.0,0.5985203666653737,2,0,0,0,0,4,6,2,4,0,,,,1,,,,,,,,,,,,,,,,,,,,,,,,,,,,,,,,,,,,,,,,,,999,26,Female,1,2024/05/15_09:22:42,YZ,60.01006968952248,
1,.\instructions\inst_to_cali\Slide1.png,right,1.0402552000014111,26.364498899994942,27.404754099996353,,,,,,,,,,,,,,,,,,,,,,,,,,,,,,,,,1,,,,,,,,,,,,,,,,,,,,,,,,,,,,,,,,,,,,,,,,,,999,26,Female,1,2024/05/15_09:22:42,YZ,60.01006968952248,
1,.\instructions\inst_cali\Slide1.png,right,2.4541822000028333,27.45219929999439,29.906381499997224,,,,,,,,,,,,,,,,,,,,,,,,,,,,,,,,,1,,,,,,,,,,,,,,,,,,,,,,,,,,,,,,,,,,,,,,,,,,999,26,Female,1,2024/05/15_09:22:42,YZ,60.01006968952248,
,,,,,,calibration,0,10,2,583,1,F,0,right,0.4674126999962027,1,0,,,,,,,,,,,,,,,,,,,,,1,,,,,,,,,,,,,,,,,,,,,,,,,,,,,,,,,,,,,,,,,,999,26,Female,1,2024/05/15_09:22:42,YZ,60.01006968952248,
,,,,,,calibration,0,10,2,583,2,V,0,right,0.3940950999967754,1,0,,,,,,,,,,,,,,,,,,,,,1,,,,,,,,,,,,,,,,,,,,,,,,,,,,,,,,,,,,,,,,,,999,26,Female,1,2024/05/15_09:22:42,YZ,60.01006968952248,
,,,,,,calibration,0,10,2,583,3,S,0,right,0.38135160000092583,1,0,,,,,,,,,,,,,,,,,,,,,1,,,,,,,,,,,,,,,,,,,,,,,,,,,,,,,,,,,,,,,,,,999,26,Female,1,2024/05/15_09:22:42,YZ,60.01006968952248,
,,,,,,calibration,0,10,2,583,4,N,0,right,0.4857158000013442,1,0,,,,,,,,,,,,,,,,,,,,,1,,,,,,,,,,,,,,,,,,,,,,,,,,,,,,,,,,,,,,,,,,999,26,Female,1,2024/05/15_09:22:42,YZ,60.01006968952248,
,,,,,,calibration,0,10,2,583,5,V,0,right,0.4974307000011322,1,0,,,,,,,,,,,,,,,,,,,,,1,,,,,,,,,,,,,,,,,,,,,,,,,,,,,,,,,,,,,,,,,,999,26,Female,1,2024/05/15_09:22:42,YZ,60.01006968952248,
,,,,,,calibration,0,10,2,583,6,N,1,left,0.5442221999983303,1,0,,,,,,,,,,,,,,,,,,,,,1,,,,,,,,,,,,,,,,,,,,,,,,,,,,,,,,,,,,,,,,,,999,26,Female,1,2024/05/15_09:22:42,YZ,60.01006968952248,
,,,,,,calibration,0,10,2,583,7,Q,0,right,0.47631080000428483,1,0,,,,,,,,,,,,,,,,,,,,,1,,,,,,,,,,,,,,,,,,,,,,,,,,,,,,,,,,,,,,,,,,999,26,Female,1,2024/05/15_09:22:42,YZ,60.01006968952248,
,,,,,,calibration,0,10,2,583,8,N,1,right,0.9379819000023417,0,0,,,,,,,,,,,,,,,,,,,,,1,,,,,,,,,,,,,,,,,,,,,,,,,,,,,,,,,,,,,,,,,,999,26,Female,1,2024/05/15_09:22:42,YZ,60.01006968952248,
,,,,,,calibration,0,10,2,583,9,S,0,right,0.379104699997697,1,0,,,,,,,,,,,,,,,,,,,,,1,,,,,,,,,,,,,,,,,,,,,,,,,,,,,,,,,,,,,,,,,,999,26,Female,1,2024/05/15_09:22:42,YZ,60.01006968952248,
,,,,,,calibration,0,10,2,583,10,N,1,left,0.7184300000008079,1,0,,,,,,,,,,,,,,,,,,,,,1,,,,,,,,,,,,,,,,,,,,,,,,,,,,,,,,,,,,,,,,,,999,26,Female,1,2024/05/15_09:22:42,YZ,60.01006968952248,
,,,,,,calibration,0,10,2,583,11,C,0,right,0.4279674000063096,1,0,,,,,,,,,,,,,,,,,,,,,1,,,,,,,,,,,,,,,,,,,,,,,,,,,,,,,,,,,,,,,,,,999,26,Female,1,2024/05/15_09:22:42,YZ,60.01006968952248,
,,,,,,calibration,0,10,2,583,12,S,0,right,0.7045868000059272,1,0,,,,,,,,,,,,,,,,,,,,,1,,,,,,,,,,,,,,,,,,,,,,,,,,,,,,,,,,,,,,,,,,999,26,Female,1,2024/05/15_09:22:42,YZ,60.01006968952248,
,,,,,,calibration,0,10,2,583,13,C,1,right,0.5624669999961043,0,0,,,,,,,,,,,,,,,,,,,,,1,,,,,,,,,,,,,,,,,,,,,,,,,,,,,,,,,,,,,,,,,,999,26,Female,1,2024/05/15_09:22:42,YZ,60.01006968952248,
,,,,,,calibration,0,10,2,583,14,Q,0,right,0.5962085999999545,1,0,,,,,,,,,,,,,,,,,,,,,1,,,,,,,,,,,,,,,,,,,,,,,,,,,,,,,,,,,,,,,,,,999,26,Female,1,2024/05/15_09:22:42,YZ,60.01006968952248,
,,,,,,calibration,0,10,2,583,15,S,0,right,0.3979798000000301,1,0,,,,,,,,,,,,,,,,,,,,,1,,,,,,,,,,,,,,,,,,,,,,,,,,,,,,,,,,,,,,,,,,999,26,Female,1,2024/05/15_09:22:42,YZ,60.01006968952248,
,,,,,,calibration,0,10,2,583,,,,,,,,0.7386363636363636,0.5,0.18181818181818182,1.0,0.0,0.8181818181818181,0.5314176733338779,2,2,0,0,0,11,13,4,11,0,,,,1,,,,,,,,,,,,,,,,,,,,,,,,,,,,,,,,,,,,,,,,,,999,26,Female,1,2024/05/15_09:22:42,YZ,60.01006968952248,
,,,,,,Calibration,0,,2,583,,,,,,,,,,,,,,,,,,,,,,,,,1,,,1,,,,,,,,,,,,,,,,,,,,,,,,,,,,,,,,,,,,,,,,,,999,26,Female,1,2024/05/15_09:22:42,YZ,60.01006968952248,
,,,,,,calibration,0,20,2,679,1,F,0,right,0.2904640999986441,1,0,,,,,,,,,,,,,,,,,,,,,1,,,,,,,,,,,,,,,,,,,,,,,,,,,,,,,,,,,,,,,,,,999,26,Female,1,2024/05/15_09:22:42,YZ,60.01006968952248,
,,,,,,calibration,0,20,2,679,2,C,0,right,0.14654919999884441,1,0,,,,,,,,,,,,,,,,,,,,,1,,,,,,,,,,,,,,,,,,,,,,,,,,,,,,,,,,,,,,,,,,999,26,Female,1,2024/05/15_09:22:42,YZ,60.01006968952248,
,,,,,,calibration,0,20,2,679,3,N,0,right,0.3759501000022283,1,0,,,,,,,,,,,,,,,,,,,,,1,,,,,,,,,,,,,,,,,,,,,,,,,,,,,,,,,,,,,,,,,,999,26,Female,1,2024/05/15_09:22:42,YZ,60.01006968952248,
,,,,,,calibration,0,20,2,679,4,C,1,right,0.41554919999907725,0,0,,,,,,,,,,,,,,,,,,,,,1,,,,,,,,,,,,,,,,,,,,,,,,,,,,,,,,,,,,,,,,,,999,26,Female,1,2024/05/15_09:22:42,YZ,60.01006968952248,
,,,,,,calibration,0,20,2,679,5,S,0,right,0.389019999995071,1,0,,,,,,,,,,,,,,,,,,,,,1,,,,,,,,,,,,,,,,,,,,,,,,,,,,,,,,,,,,,,,,,,999,26,Female,1,2024/05/15_09:22:42,YZ,60.01006968952248,
,,,,,,calibration,0,20,2,679,6,C,1,left,0.377247600001283,1,0,,,,,,,,,,,,,,,,,,,,,1,,,,,,,,,,,,,,,,,,,,,,,,,,,,,,,,,,,,,,,,,,999,26,Female,1,2024/05/15_09:22:42,YZ,60.01006968952248,
,,,,,,calibration,0,20,2,679,7,N,0,right,0.30283020000206307,1,0,,,,,,,,,,,,,,,,,,,,,1,,,,,,,,,,,,,,,,,,,,,,,,,,,,,,,,,,,,,,,,,,999,26,Female,1,2024/05/15_09:22:42,YZ,60.01006968952248,
,,,,,,calibration,0,20,2,679,8,C,1,left,0.424297799996566,1,0,,,,,,,,,,,,,,,,,,,,,1,,,,,,,,,,,,,,,,,,,,,,,,,,,,,,,,,,,,,,,,,,999,26,Female,1,2024/05/15_09:22:42,YZ,60.01006968952248,
,,,,,,calibration,0,20,2,679,9,Q,0,right,0.4208968000020832,1,0,,,,,,,,,,,,,,,,,,,,,1,,,,,,,,,,,,,,,,,,,,,,,,,,,,,,,,,,,,,,,,,,999,26,Female,1,2024/05/15_09:22:42,YZ,60.01006968952248,
,,,,,,calibration,0,20,2,679,10,F,0,right,0.361406200005149,1,0,,,,,,,,,,,,,,,,,,,,,1,,,,,,,,,,,,,,,,,,,,,,,,,,,,,,,,,,,,,,,,,,999,26,Female,1,2024/05/15_09:22:42,YZ,60.01006968952248,
,,,,,,calibration,0,20,2,679,11,Q,1,left,0.3634130999998888,1,0,,,,,,,,,,,,,,,,,,,,,1,,,,,,,,,,,,,,,,,,,,,,,,,,,,,,,,,,,,,,,,,,999,26,Female,1,2024/05/15_09:22:42,YZ,60.01006968952248,
,,,,,,calibration,0,20,2,679,12,C,0,right,0.3330735000054119,1,0,,,,,,,,,,,,,,,,,,,,,1,,,,,,,,,,,,,,,,,,,,,,,,,,,,,,,,,,,,,,,,,,999,26,Female,1,2024/05/15_09:22:42,YZ,60.01006968952248,
,,,,,,calibration,0,20,2,679,13,V,0,right,0.3447691000037594,1,0,,,,,,,,,,,,,,,,,,,,,1,,,,,,,,,,,,,,,,,,,,,,,,,,,,,,,,,,,,,,,,,,999,26,Female,1,2024/05/15_09:22:42,YZ,60.01006968952248,
,,,,,,calibration,0,20,2,679,14,J,0,right,0.3538334999975632,1,0,,,,,,,,,,,,,,,,,,,,,1,,,,,,,,,,,,,,,,,,,,,,,,,,,,,,,,,,,,,,,,,,999,26,Female,1,2024/05/15_09:22:42,YZ,60.01006968952248,
,,,,,,calibration,0,20,2,679,,,,,,,,0.8875,0.75,0.1,1.0,0.0,0.9,0.34995002857197377,3,1,0,0,0,10,13,4,10,0,,,,1,,,,,,,,,,,,,,,,,,,,,,,,,,,,,,,,,,,,,,,,,,999,26,Female,1,2024/05/15_09:22:42,YZ,60.01006968952248,
,,,,,,Calibration,0,,2,679,,,,,,,,,,,,,,,,,,,,,,,,,2,,,1,,,,,,,,,,,,,,,,,,,,,,,,,,,,,,,,,,,,,,,,,,999,26,Female,1,2024/05/15_09:22:42,YZ,60.01006968952248,
,,,,,,CALIBRATION,0,,,,,,,,,,,,,,,,,,,,,,,,,,,,2,0.8875,679,1,,,,,,,,,,,,,,,,,,,,,,,,,,,,,,,,,,,,,,,,,,999,26,Female,1,2024/05/15_09:22:42,YZ,60.01006968952248,
1,.\instructions\inst_prac_1\Slide1.png,right,0.5955099000057089,62.38301439999486,62.97852430000057,,,,,,,,,,,,,,,,,,,,,,,,,,,,,,,,,1,,,,,,,,,,,,,,,,,,,,,,,,,,,,,,,,,,,,,,,,,,999,26,Female,1,2024/05/15_09:22:42,YZ,60.01006968952248,
2,.\instructions\inst_prac_1\Slide2.png,right,0.4473682999960147,63.01474579999922,63.46211409999523,,,,,,,,,,,,,,,,,,,,,,,,,,,,,,,,,1,,,,,,,,,,,,,,,,,,,,,,,,,,,,,,,,,,,,,,,,,,999,26,Female,1,2024/05/15_09:22:42,YZ,60.01006968952248,
3,.\instructions\inst_prac_1\Slide3.png,right,0.3337561000007554,63.49493950000033,63.82869560000108,,,,,,,,,,,,,,,,,,,,,,,,,,,,,,,,,1,,,,,,,,,,,,,,,,,,,,,,,,,,,,,,,,,,,,,,,,,,999,26,Female,1,2024/05/15_09:22:42,YZ,60.01006968952248,
4,.\instructions\inst_prac_1\Slide4.png,right,0.2652085999943665,63.85946300000069,64.12467159999505,,,,,,,,,,,,,,,,,,,,,,,,,,,,,,,,,1,,,,,,,,,,,,,,,,,,,,,,,,,,,,,,,,,,,,,,,,,,999,26,Female,1,2024/05/15_09:22:42,YZ,60.01006968952248,
5,.\instructions\inst_prac_1\Slide5.png,right,0.2742026999985683,64.15535799999634,64.42956069999491,,,,,,,,,,,,,,,,,,,,,,,,,,,,,,,,,1,,,,,,,,,,,,,,,,,,,,,,,,,,,,,,,,,,,,,,,,,,999,26,Female,1,2024/05/15_09:22:42,YZ,60.01006968952248,
6,.\instructions\inst_prac_1\Slide6.png,right,0.20033160000457428,64.46048969999538,64.66082129999995,,,,,,,,,,,,,,,,,,,,,,,,,,,,,,,,,1,,,,,,,,,,,,,,,,,,,,,,,,,,,,,,,,,,,,,,,,,,999,26,Female,1,2024/05/15_09:22:42,YZ,60.01006968952248,
7,.\instructions\inst_prac_1\Slide7.png,right,3.3571047999939765,64.69146570000157,68.04857049999555,,,,,,,,,,,,,,,,,,,,,,,,,,,,,,,,,1,,,,,,,,,,,,,,,,,,,,,,,,,,,,,,,,,,,,,,,,,,999,26,Female,1,2024/05/15_09:22:42,YZ,60.01006968952248,
,,,,,,practice,0,20,1,1250,1,V,0,right,0.46547629999986384,1,0,,,,,,,,,,,,,,,,,,,,,1,,,,,,,,,,,,,,,,,,,,,,,,,,,,,,,,,,,,,,,,,,999,26,Female,1,2024/05/15_09:22:42,YZ,60.01006968952248,
,,,,,,practice,0,20,1,1250,2,N,0,right,0.3785201999999117,1,0,,,,,,,,,,,,,,,,,,,,,1,,,,,,,,,,,,,,,,,,,,,,,,,,,,,,,,,,,,,,,,,,999,26,Female,1,2024/05/15_09:22:42,YZ,60.01006968952248,
,,,,,,practice,0,20,1,1250,3,S,0,right,0.4182566000017687,1,0,,,,,,,,,,,,,,,,,,,,,1,,,,,,,,,,,,,,,,,,,,,,,,,,,,,,,,,,,,,,,,,,999,26,Female,1,2024/05/15_09:22:42,YZ,60.01006968952248,
,,,,,,practice,0,20,1,1250,4,V,0,right,0.4439490000004298,1,0,,,,,,,,,,,,,,,,,,,,,1,,,,,,,,,,,,,,,,,,,,,,,,,,,,,,,,,,,,,,,,,,999,26,Female,1,2024/05/15_09:22:42,YZ,60.01006968952248,
,,,,,,practice,0,20,1,1250,5,V,1,left,0.40447390000190353,1,0,,,,,,,,,,,,,,,,,,,,,1,,,,,,,,,,,,,,,,,,,,,,,,,,,,,,,,,,,,,,,,,,999,26,Female,1,2024/05/15_09:22:42,YZ,60.01006968952248,
,,,,,,practice,0,20,1,1250,6,S,0,right,0.39541509999980917,1,0,,,,,,,,,,,,,,,,,,,,,1,,,,,,,,,,,,,,,,,,,,,,,,,,,,,,,,,,,,,,,,,,999,26,Female,1,2024/05/15_09:22:42,YZ,60.01006968952248,
,,,,,,practice,0,20,1,1250,7,S,1,left,0.503017800001544,1,0,,,,,,,,,,,,,,,,,,,,,1,,,,,,,,,,,,,,,,,,,,,,,,,,,,,,,,,,,,,,,,,,999,26,Female,1,2024/05/15_09:22:42,YZ,60.01006968952248,
,,,,,,practice,0,20,1,1250,8,V,0,right,0.4880927000049269,1,0,,,,,,,,,,,,,,,,,,,,,1,,,,,,,,,,,,,,,,,,,,,,,,,,,,,,,,,,,,,,,,,,999,26,Female,1,2024/05/15_09:22:42,YZ,60.01006968952248,
,,,,,,practice,0,20,1,1250,9,X,0,right,0.42721069999970496,1,0,,,,,,,,,,,,,,,,,,,,,1,,,,,,,,,,,,,,,,,,,,,,,,,,,,,,,,,,,,,,,,,,999,26,Female,1,2024/05/15_09:22:42,YZ,60.01006968952248,
,,,,,,practice,0,20,1,1250,10,X,1,left,0.5061798000024282,1,0,,,,,,,,,,,,,,,,,,,,,1,,,,,,,,,,,,,,,,,,,,,,,,,,,,,,,,,,,,,,,,,,999,26,Female,1,2024/05/15_09:22:42,YZ,60.01006968952248,
,,,,,,practice,0,20,1,1250,,,,,,,,1.0,1.0,0.0,1.0,0.0,1.0,0.44305921000122905,3,0,0,0,0,7,10,3,7,0,,,,1,,,,,,,,,,,,,,,,,,,,,,,,,,,,,,,,,,,,,,,,,,999,26,Female,1,2024/05/15_09:22:42,YZ,60.01006968952248,
1,.\instructions\inst_prac_1_next\Slide1.png,right,0.7817262999960803,82.01485590000084,82.79658219999692,,,,,,,,,,,,,,,,,,,,,,,,,,,,,,,,,1,,,,,,,,,,,,,,,,,,,,,,,,,,,,,,,,,,,,,,,,,,999,26,Female,1,2024/05/15_09:22:42,YZ,60.01006968952248,
,,,,,,practice,0,22,1,679,1,J,0,right,0.20459519999712938,1,0,,,,,,,,,,,,,,,,,,,,,1,,,,,,,,,,,,,,,,,,,,,,,,,,,,,,,,,,,,,,,,,,999,26,Female,1,2024/05/15_09:22:42,YZ,60.01006968952248,
,,,,,,practice,0,22,1,679,2,J,1,left,0.3977734000000055,1,0,,,,,,,,,,,,,,,,,,,,,1,,,,,,,,,,,,,,,,,,,,,,,,,,,,,,,,,,,,,,,,,,999,26,Female,1,2024/05/15_09:22:42,YZ,60.01006968952248,
,,,,,,practice,0,22,1,679,3,S,0,right,0.18338829999993322,1,0,,,,,,,,,,,,,,,,,,,,,1,,,,,,,,,,,,,,,,,,,,,,,,,,,,,,,,,,,,,,,,,,999,26,Female,1,2024/05/15_09:22:42,YZ,60.01006968952248,
,,,,,,practice,0,22,1,679,4,V,0,right,0.3446144000045024,1,0,,,,,,,,,,,,,,,,,,,,,1,,,,,,,,,,,,,,,,,,,,,,,,,,,,,,,,,,,,,,,,,,999,26,Female,1,2024/05/15_09:22:42,YZ,60.01006968952248,
,,,,,,practice,0,22,1,679,5,S,0,right,0.39686690000235103,1,0,,,,,,,,,,,,,,,,,,,,,1,,,,,,,,,,,,,,,,,,,,,,,,,,,,,,,,,,,,,,,,,,999,26,Female,1,2024/05/15_09:22:42,YZ,60.01006968952248,
,,,,,,practice,0,22,1,679,6,S,1,left,0.36452469999494497,1,0,,,,,,,,,,,,,,,,,,,,,1,,,,,,,,,,,,,,,,,,,,,,,,,,,,,,,,,,,,,,,,,,999,26,Female,1,2024/05/15_09:22:42,YZ,60.01006968952248,
,,,,,,practice,0,22,1,679,7,F,0,right,0.27937589999783086,1,0,,,,,,,,,,,,,,,,,,,,,1,,,,,,,,,,,,,,,,,,,,,,,,,,,,,,,,,,,,,,,,,,999,26,Female,1,2024/05/15_09:22:42,YZ,60.01006968952248,
,,,,,,practice,0,22,1,679,8,N,0,right,0.3868953999990481,1,0,,,,,,,,,,,,,,,,,,,,,1,,,,,,,,,,,,,,,,,,,,,,,,,,,,,,,,,,,,,,,,,,999,26,Female,1,2024/05/15_09:22:42,YZ,60.01006968952248,
,,,,,,practice,0,22,1,679,9,Q,0,right,0.3577538000026834,1,0,,,,,,,,,,,,,,,,,,,,,1,,,,,,,,,,,,,,,,,,,,,,,,,,,,,,,,,,,,,,,,,,999,26,Female,1,2024/05/15_09:22:42,YZ,60.01006968952248,
,,,,,,practice,0,22,1,679,10,Q,1,left,0.32678799999848707,1,0,,,,,,,,,,,,,,,,,,,,,1,,,,,,,,,,,,,,,,,,,,,,,,,,,,,,,,,,,,,,,,,,999,26,Female,1,2024/05/15_09:22:42,YZ,60.01006968952248,
,,,,,,practice,0,22,1,679,11,F,0,right,0.21577149999939138,1,0,,,,,,,,,,,,,,,,,,,,,1,,,,,,,,,,,,,,,,,,,,,,,,,,,,,,,,,,,,,,,,,,999,26,Female,1,2024/05/15_09:22:42,YZ,60.01006968952248,
,,,,,,practice,0,22,1,679,12,J,0,right,0.3542379999998957,1,0,,,,,,,,,,,,,,,,,,,,,1,,,,,,,,,,,,,,,,,,,,,,,,,,,,,,,,,,,,,,,,,,999,26,Female,1,2024/05/15_09:22:42,YZ,60.01006968952248,
,,,,,,practice,0,22,1,679,13,J,1,left,0.3397906999962288,1,0,,,,,,,,,,,,,,,,,,,,,1,,,,,,,,,,,,,,,,,,,,,,,,,,,,,,,,,,,,,,,,,,999,26,Female,1,2024/05/15_09:22:42,YZ,60.01006968952248,
,,,,,,practice,0,22,1,679,14,F,0,right,0.2910212999995565,1,0,,,,,,,,,,,,,,,,,,,,,1,,,,,,,,,,,,,,,,,,,,,,,,,,,,,,,,,,,,,,,,,,999,26,Female,1,2024/05/15_09:22:42,YZ,60.01006968952248,
,,,,,,practice,0,22,1,679,,,,,,,,1.0,1.0,0.0,1.0,0.0,1.0,0.3173855357137135,4,0,0,0,0,10,14,4,10,0,,,,1,,,,,,,,,,,,,,,,,,,,,,,,,,,,,,,,,,,,,,,,,,999,26,Female,1,2024/05/15_09:22:42,YZ,60.01006968952248,
,,,,,,practice,0,4,1,679,1,N,0,right,0.22616700000071432,1,0,,,,,,,,,,,,,,,,,,,,,1,,,,,,,,,,,,,,,,,,,,,,,,,,,,,,,,,,,,,,,,,,999,26,Female,1,2024/05/15_09:22:42,YZ,60.01006968952248,
,,,,,,practice,0,4,1,679,2,F,0,right,0.37047509999683825,1,0,,,,,,,,,,,,,,,,,,,,,1,,,,,,,,,,,,,,,,,,,,,,,,,,,,,,,,,,,,,,,,,,999,26,Female,1,2024/05/15_09:22:42,YZ,60.01006968952248,
,,,,,,practice,0,4,1,679,3,F,1,left,0.4688109999988228,1,0,,,,,,,,,,,,,,,,,,,,,1,,,,,,,,,,,,,,,,,,,,,,,,,,,,,,,,,,,,,,,,,,999,26,Female,1,2024/05/15_09:22:42,YZ,60.01006968952248,
,,,,,,practice,0,4,1,679,4,N,0,right,0.21831289999681758,1,0,,,,,,,,,,,,,,,,,,,,,1,,,,,,,,,,,,,,,,,,,,,,,,,,,,,,,,,,,,,,,,,,999,26,Female,1,2024/05/15_09:22:42,YZ,60.01006968952248,
,,,,,,practice,0,4,1,679,5,Q,0,right,0.3758921000044211,1,0,,,,,,,,,,,,,,,,,,,,,1,,,,,,,,,,,,,,,,,,,,,,,,,,,,,,,,,,,,,,,,,,999,26,Female,1,2024/05/15_09:22:42,YZ,60.01006968952248,
,,,,,,practice,0,4,1,679,6,F,0,right,0.38058409999939613,1,0,,,,,,,,,,,,,,,,,,,,,1,,,,,,,,,,,,,,,,,,,,,,,,,,,,,,,,,,,,,,,,,,999,26,Female,1,2024/05/15_09:22:42,YZ,60.01006968952248,
,,,,,,practice,0,4,1,679,7,F,1,left,0.2716930000024149,1,0,,,,,,,,,,,,,,,,,,,,,1,,,,,,,,,,,,,,,,,,,,,,,,,,,,,,,,,,,,,,,,,,999,26,Female,1,2024/05/15_09:22:42,YZ,60.01006968952248,
,,,,,,practice,0,4,1,679,8,J,0,right,0.18304989999887766,1,0,,,,,,,,,,,,,,,,,,,,,1,,,,,,,,,,,,,,,,,,,,,,,,,,,,,,,,,,,,,,,,,,999,26,Female,1,2024/05/15_09:22:42,YZ,60.01006968952248,
,,,,,,practice,0,4,1,679,9,J,1,left,0.30614390000118874,1,0,,,,,,,,,,,,,,,,,,,,,1,,,,,,,,,,,,,,,,,,,,,,,,,,,,,,,,,,,,,,,,,,999,26,Female,1,2024/05/15_09:22:42,YZ,60.01006968952248,
,,,,,,practice,0,4,1,679,10,F,0,right,0.20799439999973401,1,0,,,,,,,,,,,,,,,,,,,,,1,,,,,,,,,,,,,,,,,,,,,,,,,,,,,,,,,,,,,,,,,,999,26,Female,1,2024/05/15_09:22:42,YZ,60.01006968952248,
,,,,,,practice,0,4,1,679,11,X,0,right,0.3324592999997549,1,0,,,,,,,,,,,,,,,,,,,,,1,,,,,,,,,,,,,,,,,,,,,,,,,,,,,,,,,,,,,,,,,,999,26,Female,1,2024/05/15_09:22:42,YZ,60.01006968952248,
,,,,,,practice,0,4,1,679,12,C,0,right,0.3175889999984065,1,0,,,,,,,,,,,,,,,,,,,,,1,,,,,,,,,,,,,,,,,,,,,,,,,,,,,,,,,,,,,,,,,,999,26,Female,1,2024/05/15_09:22:42,YZ,60.01006968952248,
,,,,,,practice,0,4,1,679,13,C,1,left,0.30126620000373805,1,0,,,,,,,,,,,,,,,,,,,,,1,,,,,,,,,,,,,,,,,,,,,,,,,,,,,,,,,,,,,,,,,,999,26,Female,1,2024/05/15_09:22:42,YZ,60.01006968952248,
,,,,,,practice,0,4,1,679,14,V,0,right,0.1980981000015163,1,0,,,,,,,,,,,,,,,,,,,,,1,,,,,,,,,,,,,,,,,,,,,,,,,,,,,,,,,,,,,,,,,,999,26,Female,1,2024/05/15_09:22:42,YZ,60.01006968952248,
,,,,,,practice,0,4,1,679,,,,,,,,1.0,1.0,0.0,1.0,0.0,1.0,0.2970382857144744,4,0,0,0,0,10,14,4,10,0,,,,1,,,,,,,,,,,,,,,,,,,,,,,,,,,,,,,,,,,,,,,,,,999,26,Female,1,2024/05/15_09:22:42,YZ,60.01006968952248,
1,.\instructions\inst_prac_3\Slide1.png,right,0.776047400002426,107.51623309999559,108.29228049999801,,,,,,,,,,,,,,,,,,,,,,,,,,,,,,,,,1,,,,,,,,,,,,,,,,,,,,,,,,,,,,,,,,,,,,,,,,,,999,26,Female,1,2024/05/15_09:22:42,YZ,60.01006968952248,
2,.\instructions\inst_prac_3\Slide2.png,right,0.5143834000045899,108.3302493999945,108.84463279999909,,,,,,,,,,,,,,,,,,,,,,,,,,,,,,,,,1,,,,,,,,,,,,,,,,,,,,,,,,,,,,,,,,,,,,,,,,,,999,26,Female,1,2024/05/15_09:22:42,YZ,60.01006968952248,
3,.\instructions\inst_prac_3\Slide3.png,right,0.29577469999640016,108.87681750000047,109.17259219999687,,,,,,,,,,,,,,,,,,,,,,,,,,,,,,,,,1,,,,,,,,,,,,,,,,,,,,,,,,,,,,,,,,,,,,,,,,,,999,26,Female,1,2024/05/15_09:22:42,YZ,60.01006968952248,
4,.\instructions\inst_prac_3\Slide4.png,right,0.20012319999659667,109.20334010000079,109.40346329999738,,,,,,,,,,,,,,,,,,,,,,,,,,,,,,,,,1,,,,,,,,,,,,,,,,,,,,,,,,,,,,,,,,,,,,,,,,,,999,26,Female,1,2024/05/15_09:22:42,YZ,60.01006968952248,
5,.\instructions\inst_prac_3\Slide5.png,right,0.20012530000531115,109.43421329999546,109.63433860000077,,,,,,,,,,,,,,,,,,,,,,,,,,,,,,,,,1,,,,,,,,,,,,,,,,,,,,,,,,,,,,,,,,,,,,,,,,,,999,26,Female,1,2024/05/15_09:22:42,YZ,60.01006968952248,
6,.\instructions\inst_prac_3\Slide6.png,right,0.22775459999684244,109.66486900000018,109.89262359999702,,,,,,,,,,,,,,,,,,,,,,,,,,,,,,,,,1,,,,,,,,,,,,,,,,,,,,,,,,,,,,,,,,,,,,,,,,,,999,26,Female,1,2024/05/15_09:22:42,YZ,60.01006968952248,
7,.\instructions\inst_prac_3\Slide7.png,right,1.6041572999965865,109.92356709999876,111.52772439999535,,,,,,,,,,,,,,,,,,,,,,,,,,,,,,,,,1,,,,,,,,,,,,,,,,,,,,,,,,,,,,,,,,,,,,,,,,,,999,26,Female,1,2024/05/15_09:22:42,YZ,60.01006968952248,
8,.\instructions\inst_prac_3\Slide8.png,right,1.7869366000013542,111.55860419999954,113.34554080000089,,,,,,,,,,,,,,,,,,,,,,,,,,,,,,,,,1,,,,,,,,,,,,,,,,,,,,,,,,,,,,,,,,,,,,,,,,,,999,26,Female,1,2024/05/15_09:22:42,YZ,60.01006968952248,
,,,,,,practice,0,26,3,788,1,Q,0,right,0.7115619999967748,1,0,,,,,,,,,,,,,,,,,,,,,1,,,,,,,,,,,,,,,,,,,,,,,,,,,,,,,,,,,,,,,,,,999,26,Female,1,2024/05/15_09:22:42,YZ,60.01006968952248,
,,,,,,practice,0,26,3,788,2,N,0,right,0.02312289999827044,1,0,,,,,,,,,,,,,,,,,,,,,1,,,,,,,,,,,,,,,,,,,,,,,,,,,,,,,,,,,,,,,,,,999,26,Female,1,2024/05/15_09:22:42,YZ,60.01006968952248,
,,,,,,practice,0,26,3,788,3,Q,0,right,0.1392624000000069,1,0,,,,,,,,,,,,,,,,,,,,,1,,,,,,,,,,,,,,,,,,,,,,,,,,,,,,,,,,,,,,,,,,999,26,Female,1,2024/05/15_09:22:42,YZ,60.01006968952248,
,,,,,,practice,0,26,3,788,4,Q,1,left,0.41312789999938104,1,0,,,,,,,,,,,,,,,,,,,,,1,,,,,,,,,,,,,,,,,,,,,,,,,,,,,,,,,,,,,,,,,,999,26,Female,1,2024/05/15_09:22:42,YZ,60.01006968952248,
,,,,,,practice,0,26,3,788,5,V,0,right,0.4374507000029553,1,0,,,,,,,,,,,,,,,,,,,,,1,,,,,,,,,,,,,,,,,,,,,,,,,,,,,,,,,,,,,,,,,,999,26,Female,1,2024/05/15_09:22:42,YZ,60.01006968952248,
,,,,,,practice,0,26,3,788,6,Q,1,left,0.4982622000025003,1,0,,,,,,,,,,,,,,,,,,,,,1,,,,,,,,,,,,,,,,,,,,,,,,,,,,,,,,,,,,,,,,,,999,26,Female,1,2024/05/15_09:22:42,YZ,60.01006968952248,
,,,,,,practice,0,26,3,788,7,Q,1,left,0.4968166000035126,1,0,,,,,,,,,,,,,,,,,,,,,1,,,,,,,,,,,,,,,,,,,,,,,,,,,,,,,,,,,,,,,,,,999,26,Female,1,2024/05/15_09:22:42,YZ,60.01006968952248,
,,,,,,practice,0,26,3,788,8,C,0,right,0.4605550000051153,1,0,,,,,,,,,,,,,,,,,,,,,1,,,,,,,,,,,,,,,,,,,,,,,,,,,,,,,,,,,,,,,,,,999,26,Female,1,2024/05/15_09:22:42,YZ,60.01006968952248,
,,,,,,practice,0,26,3,788,9,J,0,right,0.5718392999988282,1,0,,,,,,,,,,,,,,,,,,,,,1,,,,,,,,,,,,,,,,,,,,,,,,,,,,,,,,,,,,,,,,,,999,26,Female,1,2024/05/15_09:22:42,YZ,60.01006968952248,
,,,,,,practice,0,26,3,788,10,J,0,right,0.709107499998936,1,0,,,,,,,,,,,,,,,,,,,,,1,,,,,,,,,,,,,,,,,,,,,,,,,,,,,,,,,,,,,,,,,,999,26,Female,1,2024/05/15_09:22:42,YZ,60.01006968952248,
,,,,,,practice,0,26,3,788,11,V,0,right,0.48705259999405826,1,0,,,,,,,,,,,,,,,,,,,,,1,,,,,,,,,,,,,,,,,,,,,,,,,,,,,,,,,,,,,,,,,,999,26,Female,1,2024/05/15_09:22:42,YZ,60.01006968952248,
,,,,,,practice,0,26,3,788,12,J,1,left,0.5004044999950565,1,0,,,,,,,,,,,,,,,,,,,,,1,,,,,,,,,,,,,,,,,,,,,,,,,,,,,,,,,,,,,,,,,,999,26,Female,1,2024/05/15_09:22:42,YZ,60.01006968952248,
,,,,,,practice,0,26,3,788,13,V,0,right,0.5479159999958938,1,0,,,,,,,,,,,,,,,,,,,,,1,,,,,,,,,,,,,,,,,,,,,,,,,,,,,,,,,,,,,,,,,,999,26,Female,1,2024/05/15_09:22:42,YZ,60.01006968952248,
,,,,,,practice,0,26,3,788,,,,,,,,1.0,1.0,0.0,1.0,0.0,1.0,0.4612676615377915,4,0,0,0,0,9,13,4,9,0,,,,1,,,,,,,,,,,,,,,,,,,,,,,,,,,,,,,,,,,,,,,,,,999,26,Female,1,2024/05/15_09:22:42,YZ,60.01006968952248,
1,.\instructions\inst_prac_3_next\Slide1.png,right,0.8230817000003299,131.78539569999703,132.60847739999735,,,,,,,,,,,,,,,,,,,,,,,,,,,,,,,,,1,,,,,,,,,,,,,,,,,,,,,,,,,,,,,,,,,,,,,,,,,,999,26,Female,1,2024/05/15_09:22:42,YZ,60.01006968952248,
,,,,,,practice,0,5,3,679,1,N,0,right,0.16819129999930738,1,0,,,,,,,,,,,,,,,,,,,,,1,,,,,,,,,,,,,,,,,,,,,,,,,,,,,,,,,,,,,,,,,,999,26,Female,1,2024/05/15_09:22:42,YZ,60.01006968952248,
,,,,,,practice,0,5,3,679,2,Q,0,right,0.15124639999703504,1,0,,,,,,,,,,,,,,,,,,,,,1,,,,,,,,,,,,,,,,,,,,,,,,,,,,,,,,,,,,,,,,,,999,26,Female,1,2024/05/15_09:22:42,YZ,60.01006968952248,
,,,,,,practice,0,5,3,679,3,Q,0,right,0.5802387999938219,1,0,,,,,,,,,,,,,,,,,,,,,1,,,,,,,,,,,,,,,,,,,,,,,,,,,,,,,,,,,,,,,,,,999,26,Female,1,2024/05/15_09:22:42,YZ,60.01006968952248,
,,,,,,practice,0,5,3,679,4,J,0,right,0.6821255999966525,1,0,,,,,,,,,,,,,,,,,,,,,1,,,,,,,,,,,,,,,,,,,,,,,,,,,,,,,,,,,,,,,,,,999,26,Female,1,2024/05/15_09:22:42,YZ,60.01006968952248,
,,,,,,practice,0,5,3,679,5,Q,1,left,0.49053960000310326,1,0,,,,,,,,,,,,,,,,,,,,,1,,,,,,,,,,,,,,,,,,,,,,,,,,,,,,,,,,,,,,,,,,999,26,Female,1,2024/05/15_09:22:42,YZ,60.01006968952248,
,,,,,,practice,0,5,3,679,6,C,0,right,0.5180166999998619,1,0,,,,,,,,,,,,,,,,,,,,,1,,,,,,,,,,,,,,,,,,,,,,,,,,,,,,,,,,,,,,,,,,999,26,Female,1,2024/05/15_09:22:42,YZ,60.01006968952248,
,,,,,,practice,0,5,3,679,7,J,1,right,0.4986791999981506,0,0,,,,,,,,,,,,,,,,,,,,,1,,,,,,,,,,,,,,,,,,,,,,,,,,,,,,,,,,,,,,,,,,999,26,Female,1,2024/05/15_09:22:42,YZ,60.01006968952248,
,,,,,,practice,0,5,3,679,8,J,0,left,0.4946896999972523,0,0,,,,,,,,,,,,,,,,,,,,,1,,,,,,,,,,,,,,,,,,,,,,,,,,,,,,,,,,,,,,,,,,999,26,Female,1,2024/05/15_09:22:42,YZ,60.01006968952248,
,,,,,,practice,0,5,3,679,9,N,0,right,0.37304860000585904,1,0,,,,,,,,,,,,,,,,,,,,,1,,,,,,,,,,,,,,,,,,,,,,,,,,,,,,,,,,,,,,,,,,999,26,Female,1,2024/05/15_09:22:42,YZ,60.01006968952248,
,,,,,,practice,0,5,3,679,10,J,1,right,0.6436219000024721,0,0,,,,,,,,,,,,,,,,,,,,,1,,,,,,,,,,,,,,,,,,,,,,,,,,,,,,,,,,,,,,,,,,999,26,Female,1,2024/05/15_09:22:42,YZ,60.01006968952248,
,,,,,,practice,0,5,3,679,11,Q,0,right,0.5329835000011371,1,0,,,,,,,,,,,,,,,,,,,,,1,,,,,,,,,,,,,,,,,,,,,,,,,,,,,,,,,,,,,,,,,,999,26,Female,1,2024/05/15_09:22:42,YZ,60.01006968952248,
,,,,,,practice,0,5,3,679,12,S,0,right,0.4640508000011323,1,0,,,,,,,,,,,,,,,,,,,,,1,,,,,,,,,,,,,,,,,,,,,,,,,,,,,,,,,,,,,,,,,,999,26,Female,1,2024/05/15_09:22:42,YZ,60.01006968952248,
,,,,,,practice,0,5,3,679,13,S,0,right,0.841136799994274,1,0,,,,,,,,,,,,,,,,,,,,,1,,,,,,,,,,,,,,,,,,,,,,,,,,,,,,,,,,,,,,,,,,999,26,Female,1,2024/05/15_09:22:42,YZ,60.01006968952248,
,,,,,,practice,0,5,3,679,14,Q,1,left,0.4922297000011895,1,0,,,,,,,,,,,,,,,,,,,,,1,,,,,,,,,,,,,,,,,,,,,,,,,,,,,,,,,,,,,,,,,,999,26,Female,1,2024/05/15_09:22:42,YZ,60.01006968952248,
,,,,,,practice,0,5,3,679,,,,,,,,0.725,0.5,0.2,0.9,0.0,0.8,0.4950570428565178,2,2,0,0,0,9,11,4,10,0,,,,1,,,,,,,,,,,,,,,,,,,,,,,,,,,,,,,,,,,,,,,,,,999,26,Female,1,2024/05/15_09:22:42,YZ,60.01006968952248,
,,,,,,practice,0,7,3,679,1,S,0,right,0.27320160000090254,1,0,,,,,,,,,,,,,,,,,,,,,1,,,,,,,,,,,,,,,,,,,,,,,,,,,,,,,,,,,,,,,,,,999,26,Female,1,2024/05/15_09:22:42,YZ,60.01006968952248,
,,,,,,practice,0,7,3,679,2,C,0,right,0.019298999999591615,1,0,,,,,,,,,,,,,,,,,,,,,1,,,,,,,,,,,,,,,,,,,,,,,,,,,,,,,,,,,,,,,,,,999,26,Female,1,2024/05/15_09:22:42,YZ,60.01006968952248,
,,,,,,practice,0,7,3,679,3,N,0,right,0.2379808999976376,1,0,,,,,,,,,,,,,,,,,,,,,1,,,,,,,,,,,,,,,,,,,,,,,,,,,,,,,,,,,,,,,,,,999,26,Female,1,2024/05/15_09:22:42,YZ,60.01006968952248,
,,,,,,practice,0,7,3,679,4,V,0,right,0.3785788999957731,1,0,,,,,,,,,,,,,,,,,,,,,1,,,,,,,,,,,,,,,,,,,,,,,,,,,,,,,,,,,,,,,,,,999,26,Female,1,2024/05/15_09:22:42,YZ,60.01006968952248,
,,,,,,practice,0,7,3,679,5,C,1,right,0.7671352999968803,0,0,,,,,,,,,,,,,,,,,,,,,1,,,,,,,,,,,,,,,,,,,,,,,,,,,,,,,,,,,,,,,,,,999,26,Female,1,2024/05/15_09:22:42,YZ,60.01006968952248,
,,,,,,practice,0,7,3,679,6,S,0,left,0.5137343000023975,0,0,,,,,,,,,,,,,,,,,,,,,1,,,,,,,,,,,,,,,,,,,,,,,,,,,,,,,,,,,,,,,,,,999,26,Female,1,2024/05/15_09:22:42,YZ,60.01006968952248,
,,,,,,practice,0,7,3,679,7,X,0,right,0.45985050000308547,1,0,,,,,,,,,,,,,,,,,,,,,1,,,,,,,,,,,,,,,,,,,,,,,,,,,,,,,,,,,,,,,,,,999,26,Female,1,2024/05/15_09:22:42,YZ,60.01006968952248,
,,,,,,practice,0,7,3,679,8,S,0,right,0.8511377999966498,1,0,,,,,,,,,,,,,,,,,,,,,1,,,,,,,,,,,,,,,,,,,,,,,,,,,,,,,,,,,,,,,,,,999,26,Female,1,2024/05/15_09:22:42,YZ,60.01006968952248,
,,,,,,practice,0,7,3,679,9,Q,0,right,0.5210867999994662,1,0,,,,,,,,,,,,,,,,,,,,,1,,,,,,,,,,,,,,,,,,,,,,,,,,,,,,,,,,,,,,,,,,999,26,Female,1,2024/05/15_09:22:42,YZ,60.01006968952248,
,,,,,,practice,0,7,3,679,10,F,0,right,0.6339355000018259,1,0,,,,,,,,,,,,,,,,,,,,,1,,,,,,,,,,,,,,,,,,,,,,,,,,,,,,,,,,,,,,,,,,999,26,Female,1,2024/05/15_09:22:42,YZ,60.01006968952248,
,,,,,,practice,0,7,3,679,11,S,1,left,0.5559265999982017,1,0,,,,,,,,,,,,,,,,,,,,,1,,,,,,,,,,,,,,,,,,,,,,,,,,,,,,,,,,,,,,,,,,999,26,Female,1,2024/05/15_09:22:42,YZ,60.01006968952248,
,,,,,,practice,0,7,3,679,12,N,0,right,1.0881989000044996,1,0,,,,,,,,,,,,,,,,,,,,,1,,,,,,,,,,,,,,,,,,,,,,,,,,,,,,,,,,,,,,,,,,999,26,Female,1,2024/05/15_09:22:42,YZ,60.01006968952248,
,,,,,,practice,0,7,3,679,13,F,1,left,0.5735552000041935,1,0,,,,,,,,,,,,,,,,,,,,,1,,,,,,,,,,,,,,,,,,,,,,,,,,,,,,,,,,,,,,,,,,999,26,Female,1,2024/05/15_09:22:42,YZ,60.01006968952248,
,,,,,,practice,0,7,3,679,14,S,1,left,0.624488300003577,1,0,,,,,,,,,,,,,,,,,,,,,1,,,,,,,,,,,,,,,,,,,,,,,,,,,,,,,,,,,,,,,,,,999,26,Female,1,2024/05/15_09:22:42,YZ,60.01006968952248,
,,,,,,practice,0,7,3,679,,,,,,,,0.8875,0.75,0.1,0.9,0.0,0.9,0.5355792571431915,3,1,0,0,0,9,12,4,10,0,,,,1,,,,,,,,,,,,,,,,,,,,,,,,,,,,,,,,,,,,,,,,,,999,26,Female,1,2024/05/15_09:22:42,YZ,60.01006968952248,
1,.\instructions\inst_prac_main\Slide1.png,right,1.0052584999939427,163.09093510000093,164.09619359999488,,,,,,,,,,,,,,,,,,,,,,,,,,,,,,,,,1,,,,,,,,,,,,,,,,,,,,,,,,,,,,,,,,,,,,,,,,,,999,26,Female,1,2024/05/15_09:22:42,YZ,60.01006968952248,
2,.\instructions\inst_prac_main\Slide2.png,right,1.9648766000027535,164.13265039999533,166.09752699999808,,,,,,,,,,,,,,,,,,,,,,,,,,,,,,,,,1,,,,,,,,,,,,,,,,,,,,,,,,,,,,,,,,,,,,,,,,,,999,26,Female,1,2024/05/15_09:22:42,YZ,60.01006968952248,
3,.\instructions\inst_prac_main\Slide3.png,right,1.2515366000006907,166.13017099999706,167.38170759999775,,,,,,,,,,,,,,,,,,,,,,,,,,,,,,,,,1,,,,,,,,,,,,,,,,,,,,,,,,,,,,,,,,,,,,,,,,,,999,26,Female,1,2024/05/15_09:22:42,YZ,60.01006968952248,
4,.\instructions\inst_prac_main\Slide4.png,right,2.821491499998956,167.41211340000154,170.2336049000005,,,,,,,,,,,,,,,,,,,,,,,,,,,,,,,,,1,,,,,,,,,,,,,,,,,,,,,,,,,,,,,,,,,,,,,,,,,,999,26,Female,1,2024/05/15_09:22:42,YZ,60.01006968952248,
,,,,,,practice_main,0,1,3,679,1,V,0,right,0.23695139999472303,1,0,,,,,,,,,,,,,,,,,,,,,1,,,,,,,,,,,,,,,,,,,,,,,,,,,,,,,,,,,,,,,,,,999,26,Female,1,2024/05/15_09:22:42,YZ,60.01006968952248,
,,,,,,practice_main,0,1,3,679,2,C,0,right,0.315331600002537,1,0,,,,,,,,,,,,,,,,,,,,,1,,,,,,,,,,,,,,,,,,,,,,,,,,,,,,,,,,,,,,,,,,999,26,Female,1,2024/05/15_09:22:42,YZ,60.01006968952248,
,,,,,,practice_main,0,1,3,679,3,F,0,right,0.3657824999972945,1,0,,,,,,,,,,,,,,,,,,,,,1,,,,,,,,,,,,,,,,,,,,,,,,,,,,,,,,,,,,,,,,,,999,26,Female,1,2024/05/15_09:22:42,YZ,60.01006968952248,
,,,,,,practice_main,0,1,3,679,4,S,0,right,0.4364082000029157,1,0,,,,,,,,,,,,,,,,,,,,,1,,,,,,,,,,,,,,,,,,,,,,,,,,,,,,,,,,,,,,,,,,999,26,Female,1,2024/05/15_09:22:42,YZ,60.01006968952248,
,,,,,,practice_main,0,1,3,679,5,X,0,right,0.5112848999997368,1,0,,,,,,,,,,,,,,,,,,,,,1,,,,,,,,,,,,,,,,,,,,,,,,,,,,,,,,,,,,,,,,,,999,26,Female,1,2024/05/15_09:22:42,YZ,60.01006968952248,
,,,,,,practice_main,0,1,3,679,6,V,0,left,0.4048264000011841,0,0,,,,,,,,,,,,,,,,,,,,,1,,,,,,,,,,,,,,,,,,,,,,,,,,,,,,,,,,,,,,,,,,999,26,Female,1,2024/05/15_09:22:42,YZ,60.01006968952248,
,,,,,,practice_main,0,1,3,679,7,S,1,left,0.6241222000026028,1,0,,,,,,,,,,,,,,,,,,,,,1,,,,,,,,,,,,,,,,,,,,,,,,,,,,,,,,,,,,,,,,,,999,26,Female,1,2024/05/15_09:22:42,YZ,60.01006968952248,
,,,,,,practice_main,0,1,3,679,8,S,0,right,0.30517690000124276,1,0,,,,,,,,,,,,,,,,,,,,,1,,,,,,,,,,,,,,,,,,,,,,,,,,,,,,,,,,,,,,,,,,999,26,Female,1,2024/05/15_09:22:42,YZ,60.01006968952248,
,,,,,,practice_main,0,1,3,679,9,F,0,left,0.34883800000534393,0,0,,,,,,,,,,,,,,,,,,,,,1,,,,,,,,,,,,,,,,,,,,,,,,,,,,,,,,,,,,,,,,,,999,26,Female,1,2024/05/15_09:22:42,YZ,60.01006968952248,
,,,,,,practice_main,0,1,3,679,10,S,1,right,0.3012897000007797,0,0,,,,,,,,,,,,,,,,,,,,,1,,,,,,,,,,,,,,,,,,,,,,,,,,,,,,,,,,,,,,,,,,999,26,Female,1,2024/05/15_09:22:42,YZ,60.01006968952248,
,,,,,,practice_main,0,1,3,679,11,Q,0,left,0.2792626000009477,0,0,,,,,,,,,,,,,,,,,,,,,1,,,,,,,,,,,,,,,,,,,,,,,,,,,,,,,,,,,,,,,,,,999,26,Female,1,2024/05/15_09:22:42,YZ,60.01006968952248,
,,,,,,practice_main,0,1,3,679,12,N,0,right,0.2884440999987419,1,0,,,,,,,,,,,,,,,,,,,,,1,,,,,,,,,,,,,,,,,,,,,,,,,,,,,,,,,,,,,,,,,,999,26,Female,1,2024/05/15_09:22:42,YZ,60.01006968952248,
,,,,,,practice_main,0,1,3,679,13,S,1,right,0.24654329999611946,0,0,,,,,,,,,,,,,,,,,,,,,1,,,,,,,,,,,,,,,,,,,,,,,,,,,,,,,,,,,,,,,,,,999,26,Female,1,2024/05/15_09:22:42,YZ,60.01006968952248,
,,,,,,practice_main,0,1,3,679,14,Q,1,right,0.21713150000141468,0,0,,,,,,,,,,,,,,,,,,,,,1,,,,,,,,,,,,,,,,,,,,,,,,,,,,,,,,,,,,,,,,,,999,26,Female,1,2024/05/15_09:22:42,YZ,60.01006968952248,
,,,,,,practice_main,0,1,3,679,,,,,,,,0.029166666666666646,0.25,0.3,0.7,0.0,0.7,0.3486709500003989,1,3,0,0,0,7,8,4,10,0,,,,1,,,,,,,,,,,,,,,,,,,,,,,,,,,,,,,,,,,,,,,,,,999,26,Female,1,2024/05/15_09:22:42,YZ,60.01006968952248,
,,,,,240515_092601,PRACTICE,0,1,3,679,,,,,,,,,,,,,,,,,,,,,,,,,,,,1,28,1,1,cue2.png,Hard,A,173.25398739999946,,,,,,,,,,,,,,,,,,,,,,,,,,,,,,,,,,,999,26,Female,1,2024/05/15_09:22:42,YZ,60.01006968952248,
,,,,,,practice_main,0,2,3,679,1,V,0,right,0.4132049999971059,1,0,,,,,,,,,,,,,,,,,,,,,1,,,,,,,,,,,,,,,,,,,,,,,,,,,,,,,,,,,,,,,,,,999,26,Female,1,2024/05/15_09:22:42,YZ,60.01006968952248,
,,,,,,practice_main,0,2,3,679,2,S,0,left,0.2785524999999325,0,0,,,,,,,,,,,,,,,,,,,,,1,,,,,,,,,,,,,,,,,,,,,,,,,,,,,,,,,,,,,,,,,,999,26,Female,1,2024/05/15_09:22:42,YZ,60.01006968952248,
,,,,,,practice_main,0,2,3,679,3,X,0,right,0.21646879999752855,1,0,,,,,,,,,,,,,,,,,,,,,1,,,,,,,,,,,,,,,,,,,,,,,,,,,,,,,,,,,,,,,,,,999,26,Female,1,2024/05/15_09:22:42,YZ,60.01006968952248,
,,,,,,practice_main,0,2,3,679,4,X,0,right,0.22903100000257837,1,0,,,,,,,,,,,,,,,,,,,,,1,,,,,,,,,,,,,,,,,,,,,,,,,,,,,,,,,,,,,,,,,,999,26,Female,1,2024/05/15_09:22:42,YZ,60.01006968952248,
,,,,,,practice_main,0,2,3,679,5,C,0,left,0.13306060000468278,0,0,,,,,,,,,,,,,,,,,,,,,1,,,,,,,,,,,,,,,,,,,,,,,,,,,,,,,,,,,,,,,,,,999,26,Female,1,2024/05/15_09:22:42,YZ,60.01006968952248,
,,,,,,practice_main,0,2,3,679,6,X,1,right,0.17445890000090003,0,0,,,,,,,,,,,,,,,,,,,,,1,,,,,,,,,,,,,,,,,,,,,,,,,,,,,,,,,,,,,,,,,,999,26,Female,1,2024/05/15_09:22:42,YZ,60.01006968952248,
,,,,,,practice_main,0,2,3,679,7,V,0,right,0.15313489999971353,1,0,,,,,,,,,,,,,,,,,,,,,1,,,,,,,,,,,,,,,,,,,,,,,,,,,,,,,,,,,,,,,,,,999,26,Female,1,2024/05/15_09:22:42,YZ,60.01006968952248,
,,,,,,practice_main,0,2,3,679,8,N,0,left,0.13731620000180556,0,0,,,,,,,,,,,,,,,,,,,,,1,,,,,,,,,,,,,,,,,,,,,,,,,,,,,,,,,,,,,,,,,,999,26,Female,1,2024/05/15_09:22:42,YZ,60.01006968952248,
,,,,,,practice_main,0,2,3,679,9,J,0,right,0.13224840000475524,1,0,,,,,,,,,,,,,,,,,,,,,1,,,,,,,,,,,,,,,,,,,,,,,,,,,,,,,,,,,,,,,,,,999,26,Female,1,2024/05/15_09:22:42,YZ,60.01006968952248,
,,,,,,practice_main,0,2,3,679,10,Q,0,left,0.19650499999988824,0,0,,,,,,,,,,,,,,,,,,,,,1,,,,,,,,,,,,,,,,,,,,,,,,,,,,,,,,,,,,,,,,,,999,26,Female,1,2024/05/15_09:22:42,YZ,60.01006968952248,
,,,,,,practice_main,0,2,3,679,11,N,1,right,0.12953510000079405,0,0,,,,,,,,,,,,,,,,,,,,,1,,,,,,,,,,,,,,,,,,,,,,,,,,,,,,,,,,,,,,,,,,999,26,Female,1,2024/05/15_09:22:42,YZ,60.01006968952248,
,,,,,,practice_main,0,2,3,679,12,S,0,right,0.05405830000381684,1,0,,,,,,,,,,,,,,,,,,,,,1,,,,,,,,,,,,,,,,,,,,,,,,,,,,,,,,,,,,,,,,,,999,26,Female,1,2024/05/15_09:22:42,YZ,60.01006968952248,
,,,,,,practice_main,0,2,3,679,13,Q,1,right,0.39280020000296645,0,0,,,,,,,,,,,,,,,,,,,,,1,,,,,,,,,,,,,,,,,,,,,,,,,,,,,,,,,,,,,,,,,,999,26,Female,1,2024/05/15_09:22:42,YZ,60.01006968952248,
,,,,,,practice_main,0,2,3,679,14,N,1,left,0.10909150000225054,1,0,,,,,,,,,,,,,,,,,,,,,1,,,,,,,,,,,,,,,,,,,,,,,,,,,,,,,,,,,,,,,,,,999,26,Female,1,2024/05/15_09:22:42,YZ,60.01006968952248,
,,,,,,practice_main,0,2,3,679,,,,,,,,0.029166666666666646,0.25,0.3,0.6,0.0,0.7,0.19639045714419417,1,3,0,0,0,6,7,4,10,0,,,,1,,,,,,,,,,,,,,,,,,,,,,,,,,,,,,,,,,,,,,,,,,999,26,Female,1,2024/05/15_09:22:42,YZ,60.01006968952248,
,,,,,240515_092618,PRACTICE,0,2,3,679,,,,,,,,,,,,,,,,,,,,,,,,,,,,1,41,2,2,cue2.png,Hard,A,193.23436349999974,,,,,,,,,,,,,,,,,,,,,,,,,,,,,,,,,,,999,26,Female,1,2024/05/15_09:22:42,YZ,60.01006968952248,
1,.\instructions\inst_prac_end\Slide1.png,right,3.619731699996919,209.60942649999924,213.22915819999616,,,,,,,,,,,,,,,,,,,,,,,,,,,,,,,,,1,,,,,,,,,,,,,,,,,,,,,,,,,,,,,,,,,,,,,,,,,,999,26,Female,1,2024/05/15_09:22:42,YZ,60.01006968952248,
1,.\instructions\inst_offline_rating_0\Slide1.png,right,0.9559559999979683,213.2805262999973,214.23648229999526,,,,,,,,,,,,,,,,,,,,,,,,,,,,,,,,,1,,,,,,,,,,,,,,,,,,,,,,,,,,,,,,,,,,,,,,,,,,999,26,Female,1,2024/05/15_09:22:42,YZ,60.01006968952248,
2,.\instructions\inst_offline_rating_0\Slide2.png,right,1.2922551000010571,214.2717091999948,215.56396429999586,,,,,,,,,,,,,,,,,,,,,,,,,,,,,,,,,1,,,,,,,,,,,,,,,,,,,,,,,,,,,,,,,,,,,,,,,,,,999,26,Female,1,2024/05/15_09:22:42,YZ,60.01006968952248,
3,.\instructions\inst_offline_rating_0\Slide3.png,right,1.3696542999969097,215.59525310000026,216.96490739999717,,,,,,,,,,,,,,,,,,,,,,,,,,,,,,,,,1,,,,,,,,,,,,,,,,,,,,,,,,,,,,,,,,,,,,,,,,,,999,26,Female,1,2024/05/15_09:22:42,YZ,60.01006968952248,
4,.\instructions\inst_offline_rating_0\Slide4.png,right,1.753741499996977,216.99566290000075,218.74940439999773,,,,,,,,,,,,,,,,,,,,,,,,,,,,,,,,,1,,,,,,,,,,,,,,,,,,,,,,,,,,,,,,,,,,,,,,,,,,999,26,Female,1,2024/05/15_09:22:42,YZ,60.01006968952248,
,,,,,240515_092643,OFFLINERATING,9,,1.0,,,,,,,,,,,,,,,,,,,,,,,,,,,,,1,,,,,,,,T0,1.0,cue1.png,Easy,40,1.5185986000069533,230.96879799999442,232.51416590000008,,,,,,,,,,,,,,,,,,,,,,,,,,,999,26,Female,1,2024/05/15_09:22:42,YZ,60.01006968952248,
,,,,,240515_092649,OFFLINERATING,9,,3.0,,,,,,,,,,,,,,,,,,,,,,,,,,,,,1,,,,,,,,T0,2.0,cue2.png,Hard,59,1.4106216999934986,237.08958839999832,238.53775029999815,,,,,,,,,,,,,,,,,,,,,,,,,,,999,26,Female,1,2024/05/15_09:22:42,YZ,60.01006968952248,
1,.\instructions\inst_learning\Slide1.png,right,0.9917301000023144,241.59666369999468,242.588393799997,,,,,,,,,,,,,,,,,,,,,,,,,,,,,,,,,1,,,,,,,,,,,,,,,,,,,,,,,,,,,,,,,,,,,,,,,,,,999,26,Female,1,2024/05/15_09:22:42,YZ,60.01006968952248,
,,,,,,learning,1,1,1,679,1,Q,0,right,0.5696766000037314,1,0,,,,,,,,,,,,,,,,,,,,,1,,,,,,,,,,,,,,,,,,,,,,,,,,,,,,,,,,,,,,,,,,999,26,Female,1,2024/05/15_09:22:42,YZ,60.01006968952248,
,,,,,,learning,1,1,1,679,2,S,0,right,0.07548730000416981,1,0,,,,,,,,,,,,,,,,,,,,,1,,,,,,,,,,,,,,,,,,,,,,,,,,,,,,,,,,,,,,,,,,999,26,Female,1,2024/05/15_09:22:42,YZ,60.01006968952248,
,,,,,,learning,1,1,1,679,3,S,1,left,0.06313080000109039,1,0,,,,,,,,,,,,,,,,,,,,,1,,,,,,,,,,,,,,,,,,,,,,,,,,,,,,,,,,,,,,,,,,999,26,Female,1,2024/05/15_09:22:42,YZ,60.01006968952248,
,,,,,,learning,1,1,1,679,4,N,0,right,0.10678510000434471,1,0,,,,,,,,,,,,,,,,,,,,,1,,,,,,,,,,,,,,,,,,,,,,,,,,,,,,,,,,,,,,,,,,999,26,Female,1,2024/05/15_09:22:42,YZ,60.01006968952248,
,,,,,,learning,1,1,1,679,5,J,0,right,0.0719253999995999,1,0,,,,,,,,,,,,,,,,,,,,,1,,,,,,,,,,,,,,,,,,,,,,,,,,,,,,,,,,,,,,,,,,999,26,Female,1,2024/05/15_09:22:42,YZ,60.01006968952248,
,,,,,,learning,1,1,1,679,6,J,1,left,0.33809520000068005,1,0,,,,,,,,,,,,,,,,,,,,,1,,,,,,,,,,,,,,,,,,,,,,,,,,,,,,,,,,,,,,,,,,999,26,Female,1,2024/05/15_09:22:42,YZ,60.01006968952248,
,,,,,,learning,1,1,1,679,7,Q,0,right,0.10193509999953676,1,0,,,,,,,,,,,,,,,,,,,,,1,,,,,,,,,,,,,,,,,,,,,,,,,,,,,,,,,,,,,,,,,,999,26,Female,1,2024/05/15_09:22:42,YZ,60.01006968952248,
,,,,,,learning,1,1,1,679,8,Q,1,left,0.35788440000033006,1,0,,,,,,,,,,,,,,,,,,,,,1,,,,,,,,,,,,,,,,,,,,,,,,,,,,,,,,,,,,,,,,,,999,26,Female,1,2024/05/15_09:22:42,YZ,60.01006968952248,
,,,,,,learning,1,1,1,679,9,F,0,right,0.2104433999993489,1,0,,,,,,,,,,,,,,,,,,,,,1,,,,,,,,,,,,,,,,,,,,,,,,,,,,,,,,,,,,,,,,,,999,26,Female,1,2024/05/15_09:22:42,YZ,60.01006968952248,
,,,,,,learning,1,1,1,679,10,V,0,right,0.3005173999990802,1,0,,,,,,,,,,,,,,,,,,,,,1,,,,,,,,,,,,,,,,,,,,,,,,,,,,,,,,,,,,,,,,,,999,26,Female,1,2024/05/15_09:22:42,YZ,60.01006968952248,
,,,,,,learning,1,1,1,679,11,V,1,left,0.26942560000316007,1,0,,,,,,,,,,,,,,,,,,,,,1,,,,,,,,,,,,,,,,,,,,,,,,,,,,,,,,,,,,,,,,,,999,26,Female,1,2024/05/15_09:22:42,YZ,60.01006968952248,
,,,,,,learning,1,1,1,679,12,X,0,right,0.1000385000006645,1,0,,,,,,,,,,,,,,,,,,,,,1,,,,,,,,,,,,,,,,,,,,,,,,,,,,,,,,,,,,,,,,,,999,26,Female,1,2024/05/15_09:22:42,YZ,60.01006968952248,
,,,,,,learning,1,1,1,679,13,S,0,right,0.27496419999806676,1,0,,,,,,,,,,,,,,,,,,,,,1,,,,,,,,,,,,,,,,,,,,,,,,,,,,,,,,,,,,,,,,,,999,26,Female,1,2024/05/15_09:22:42,YZ,60.01006968952248,
,,,,,,learning,1,1,1,679,14,N,0,right,0.29978960000153165,1,0,,,,,,,,,,,,,,,,,,,,,1,,,,,,,,,,,,,,,,,,,,,,,,,,,,,,,,,,,,,,,,,,999,26,Female,1,2024/05/15_09:22:42,YZ,60.01006968952248,
,,,,,,Learning,1,1,1,679,,,,,,,,1.0,1.0,0.0,1.0,0.0,1.0,0.22429275714395253,4,0,0,0,0,10,14,4,10,0,,,,1,,,,,,,,,,,,,,,,,,,,,,,,,,,,,,,,,,,,,,,,,,999,26,Female,1,2024/05/15_09:22:42,YZ,60.01006968952248,
,,,,,240515_092713,LEARNING,1,1,1,679,,,,,,,,,,,,,,,,,,,,,,,,,,,,1,1,1,1,cue1.png,Easy,A,247.6372257999974,,,,,,,,,,,,,,,,,,,,,,,,,,,,,,,,,,,999,26,Female,1,2024/05/15_09:22:42,YZ,60.01006968952248,
,,,,,,learning,1,2,3,679,1,Q,0,right,0.3091022000007797,1,0,,,,,,,,,,,,,,,,,,,,,1,,,,,,,,,,,,,,,,,,,,,,,,,,,,,,,,,,,,,,,,,,999,26,Female,1,2024/05/15_09:22:42,YZ,60.01006968952248,
,,,,,,learning,1,2,3,679,2,X,0,right,0.0,1,0,,,,,,,,,,,,,,,,,,,,,1,,,,,,,,,,,,,,,,,,,,,,,,,,,,,,,,,,,,,,,,,,999,26,Female,1,2024/05/15_09:22:42,YZ,60.01006968952248,
,,,,,,learning,1,2,3,679,3,Q,0,right,0.0,1,0,,,,,,,,,,,,,,,,,,,,,1,,,,,,,,,,,,,,,,,,,,,,,,,,,,,,,,,,,,,,,,,,999,26,Female,1,2024/05/15_09:22:42,YZ,60.01006968952248,
,,,,,,learning,1,2,3,679,4,F,0,left,0.17012930000055349,0,0,,,,,,,,,,,,,,,,,,,,,1,,,,,,,,,,,,,,,,,,,,,,,,,,,,,,,,,,,,,,,,,,999,26,Female,1,2024/05/15_09:22:42,YZ,60.01006968952248,
,,,,,,learning,1,2,3,679,5,N,0,right,0.020927699995809235,1,0,,,,,,,,,,,,,,,,,,,,,1,,,,,,,,,,,,,,,,,,,,,,,,,,,,,,,,,,,,,,,,,,999,26,Female,1,2024/05/15_09:22:42,YZ,60.01006968952248,
,,,,,,learning,1,2,3,679,6,X,0,right,0.3071806999942055,1,0,,,,,,,,,,,,,,,,,,,,,1,,,,,,,,,,,,,,,,,,,,,,,,,,,,,,,,,,,,,,,,,,999,26,Female,1,2024/05/15_09:22:42,YZ,60.01006968952248,
,,,,,,learning,1,2,3,679,7,X,0,right,0.11672940000426024,1,0,,,,,,,,,,,,,,,,,,,,,1,,,,,,,,,,,,,,,,,,,,,,,,,,,,,,,,,,,,,,,,,,999,26,Female,1,2024/05/15_09:22:42,YZ,60.01006968952248,
,,,,,,learning,1,2,3,679,8,V,0,left,0.42030869999871356,0,0,,,,,,,,,,,,,,,,,,,,,1,,,,,,,,,,,,,,,,,,,,,,,,,,,,,,,,,,,,,,,,,,999,26,Female,1,2024/05/15_09:22:42,YZ,60.01006968952248,
,,,,,,learning,1,2,3,679,9,X,1,right,0.06948839999677148,0,0,,,,,,,,,,,,,,,,,,,,,1,,,,,,,,,,,,,,,,,,,,,,,,,,,,,,,,,,,,,,,,,,999,26,Female,1,2024/05/15_09:22:42,YZ,60.01006968952248,
,,,,,,learning,1,2,3,679,10,S,0,left,0.217774400000053,0,0,,,,,,,,,,,,,,,,,,,,,1,,,,,,,,,,,,,,,,,,,,,,,,,,,,,,,,,,,,,,,,,,999,26,Female,1,2024/05/15_09:22:42,YZ,60.01006968952248,
,,,,,,learning,1,2,3,679,11,V,1,right,0.5562274999974761,0,0,,,,,,,,,,,,,,,,,,,,,1,,,,,,,,,,,,,,,,,,,,,,,,,,,,,,,,,,,,,,,,,,999,26,Female,1,2024/05/15_09:22:42,YZ,60.01006968952248,
,,,,,,learning,1,2,3,679,12,S,0,left,0.049269399998593144,0,0,,,,,,,,,,,,,,,,,,,,,1,,,,,,,,,,,,,,,,,,,,,,,,,,,,,,,,,,,,,,,,,,999,26,Female,1,2024/05/15_09:22:42,YZ,60.01006968952248,
,,,,,,learning,1,2,3,679,13,S,1,right,0.41243889999896055,0,0,,,,,,,,,,,,,,,,,,,,,1,,,,,,,,,,,,,,,,,,,,,,,,,,,,,,,,,,,,,,,,,,999,26,Female,1,2024/05/15_09:22:42,YZ,60.01006968952248,
,,,,,,learning,1,2,3,679,14,V,1,right,0.3594532999995863,0,0,,,,,,,,,,,,,,,,,,,,,1,,,,,,,,,,,,,,,,,,,,,,,,,,,,,,,,,,,,,,,,,,999,26,Female,1,2024/05/15_09:22:42,YZ,60.01006968952248,
,,,,,,Learning,1,2,3,679,,,,,,,,0.15,0.0,0.4,0.6,0.0,0.6,0.21493070714184018,0,4,0,0,0,6,6,4,10,0,,,,1,,,,,,,,,,,,,,,,,,,,,,,,,,,,,,,,,,,,,,,,,,999,26,Female,1,2024/05/15_09:22:42,YZ,60.01006968952248,
,,,,,240515_092731,LEARNING,1,2,3,679,,,,,,,,,,,,,,,,,,,,,,,,,,,,1,2,2,2,cue2.png,Hard,A,265.8820435999951,,,,,,,,,,,,,,,,,,,,,,,,,,,,,,,,,,,999,26,Female,1,2024/05/15_09:22:42,YZ,60.01006968952248,
,,,,,,learning,1,3,1,679,1,V,0,right,0.5310279999976046,1,0,,,,,,,,,,,,,,,,,,,,,1,,,,,,,,,,,,,,,,,,,,,,,,,,,,,,,,,,,,,,,,,,999,26,Female,1,2024/05/15_09:22:42,YZ,60.01006968952248,
,,,,,,learning,1,3,1,679,2,V,1,right,0.06922850000410108,0,0,,,,,,,,,,,,,,,,,,,,,1,,,,,,,,,,,,,,,,,,,,,,,,,,,,,,,,,,,,,,,,,,999,26,Female,1,2024/05/15_09:22:42,YZ,60.01006968952248,
,,,,,,learning,1,3,1,679,3,S,0,right,0.3010658000057447,1,0,,,,,,,,,,,,,,,,,,,,,1,,,,,,,,,,,,,,,,,,,,,,,,,,,,,,,,,,,,,,,,,,999,26,Female,1,2024/05/15_09:22:42,YZ,60.01006968952248,
,,,,,,learning,1,3,1,679,4,X,0,right,0.37500120000186143,1,0,,,,,,,,,,,,,,,,,,,,,1,,,,,,,,,,,,,,,,,,,,,,,,,,,,,,,,,,,,,,,,,,999,26,Female,1,2024/05/15_09:22:42,YZ,60.01006968952248,
,,,,,,learning,1,3,1,679,5,J,0,left,0.24040819999936502,0,0,,,,,,,,,,,,,,,,,,,,,1,,,,,,,,,,,,,,,,,,,,,,,,,,,,,,,,,,,,,,,,,,999,26,Female,1,2024/05/15_09:22:42,YZ,60.01006968952248,
,,,,,,learning,1,3,1,679,6,F,0,left,0.21849630000360776,0,0,,,,,,,,,,,,,,,,,,,,,1,,,,,,,,,,,,,,,,,,,,,,,,,,,,,,,,,,,,,,,,,,999,26,Female,1,2024/05/15_09:22:42,YZ,60.01006968952248,
,,,,,,learning,1,3,1,679,7,F,1,left,0.3372832999957609,1,0,,,,,,,,,,,,,,,,,,,,,1,,,,,,,,,,,,,,,,,,,,,,,,,,,,,,,,,,,,,,,,,,999,26,Female,1,2024/05/15_09:22:42,YZ,60.01006968952248,
,,,,,,learning,1,3,1,679,8,V,0,right,0.09656649999669753,1,0,,,,,,,,,,,,,,,,,,,,,1,,,,,,,,,,,,,,,,,,,,,,,,,,,,,,,,,,,,,,,,,,999,26,Female,1,2024/05/15_09:22:42,YZ,60.01006968952248,
,,,,,,learning,1,3,1,679,9,F,0,right,0.3316583999985596,1,0,,,,,,,,,,,,,,,,,,,,,1,,,,,,,,,,,,,,,,,,,,,,,,,,,,,,,,,,,,,,,,,,999,26,Female,1,2024/05/15_09:22:42,YZ,60.01006968952248,
,,,,,,learning,1,3,1,679,10,C,0,right,0.19445369999448303,1,0,,,,,,,,,,,,,,,,,,,,,1,,,,,,,,,,,,,,,,,,,,,,,,,,,,,,,,,,,,,,,,,,999,26,Female,1,2024/05/15_09:22:42,YZ,60.01006968952248,
,,,,,,learning,1,3,1,679,11,C,1,left,0.257764900001348,1,0,,,,,,,,,,,,,,,,,,,,,1,,,,,,,,,,,,,,,,,,,,,,,,,,,,,,,,,,,,,,,,,,999,26,Female,1,2024/05/15_09:22:42,YZ,60.01006968952248,
,,,,,,learning,1,3,1,679,12,J,0,right,0.08200070000020787,1,0,,,,,,,,,,,,,,,,,,,,,1,,,,,,,,,,,,,,,,,,,,,,,,,,,,,,,,,,,,,,,,,,999,26,Female,1,2024/05/15_09:22:42,YZ,60.01006968952248,
,,,,,,learning,1,3,1,679,13,F,0,right,0.29408450000482844,1,0,,,,,,,,,,,,,,,,,,,,,1,,,,,,,,,,,,,,,,,,,,,,,,,,,,,,,,,,,,,,,,,,999,26,Female,1,2024/05/15_09:22:42,YZ,60.01006968952248,
,,,,,,learning,1,3,1,679,14,F,1,right,0.28686419999576174,0,0,,,,,,,,,,,,,,,,,,,,,1,,,,,,,,,,,,,,,,,,,,,,,,,,,,,,,,,,,,,,,,,,999,26,Female,1,2024/05/15_09:22:42,YZ,60.01006968952248,
,,,,,,Learning,1,3,1,679,,,,,,,,0.725,0.5,0.2,0.8,0.0,0.8,0.25827887142856654,2,2,0,0,0,8,10,4,10,0,,,,1,,,,,,,,,,,,,,,,,,,,,,,,,,,,,,,,,,,,,,,,,,999,26,Female,1,2024/05/15_09:22:42,YZ,60.01006968952248,
,,,,,240515_092750,LEARNING,1,3,1,679,,,,,,,,,,,,,,,,,,,,,,,,,,,,1,3,3,3,cue1.png,Easy,A,283.9606141999975,,,,,,,,,,,,,,,,,,,,,,,,,,,,,,,,,,,999,26,Female,1,2024/05/15_09:22:42,YZ,60.01006968952248,
1,.\instructions\inst_offline_rating_1\Slide1.png,right,2.251703299996734,301.18790140000056,303.4396046999973,,,,,,,,,,,,,,,,,,,,,,,,,,,,,,,,,1,,,,,,,,,,,,,,,,,,,,,,,,,,,,,,,,,,,,,,,,,,999,26,Female,1,2024/05/15_09:22:42,YZ,60.01006968952248,
2,.\instructions\inst_offline_rating_1\Slide2.png,right,2.716974399998435,303.4743401000014,306.19131449999986,,,,,,,,,,,,,,,,,,,,,,,,,,,,,,,,,1,,,,,,,,,,,,,,,,,,,,,,,,,,,,,,,,,,,,,,,,,,999,26,Female,1,2024/05/15_09:22:42,YZ,60.01006968952248,
3,.\instructions\inst_offline_rating_1\Slide3.png,right,2.9544047999952454,306.2221993999992,309.1766041999945,,,,,,,,,,,,,,,,,,,,,,,,,,,,,,,,,1,,,,,,,,,,,,,,,,,,,,,,,,,,,,,,,,,,,,,,,,,,999,26,Female,1,2024/05/15_09:22:42,YZ,60.01006968952248,
,,,,,240515_092807,OFFLINERATING,9,,1.0,,,,,,,,,,,,,,,,,,,,,,,,,,,,,1,,,,,,,,T1,1.0,cue1.png,Easy,53,2.407968499996059,313.74151939999865,316.1831019999954,,,,,,,,,,,,,,,,,,,,,,,,,,,999,26,Female,1,2024/05/15_09:22:42,YZ,60.01006968952248,
,,,,,240515_092813,OFFLINERATING,9,,3.0,,,,,,,,,,,,,,,,,,,,,,,,,,,,,1,,,,,,,,T1,2.0,cue2.png,Hard,45,1.6032645999948727,320.76240129999496,322.3866598999957,,,,,,,,,,,,,,,,,,,,,,,,,,,999,26,Female,1,2024/05/15_09:22:42,YZ,60.01006968952248,
1,.\instructions\inst_choice_true\Slide1.png,right,2.744270700000925,325.4450849999994,328.1893557000003,,,,,,,,,,,,,,,,,,,,,,,,,,,,,,,,,1,,,,,,,,,,,,,,,,,,,,,,,,,,,,,,,,,,,,,,,,,,999,26,Female,1,2024/05/15_09:22:42,YZ,60.01006968952248,
2,.\instructions\inst_choice_true\Slide2.png,right,0.6353671000033501,328.2250159999967,328.86038310000004,,,,,,,,,,,,,,,,,,,,,,,,,,,,,,,,,1,,,,,,,,,,,,,,,,,,,,,,,,,,,,,,,,,,,,,,,,,,999,26,Female,1,2024/05/15_09:22:42,YZ,60.01006968952248,
3,.\instructions\inst_choice_true\Slide3.png,right,1.1995145000037155,328.89104089999455,330.09055539999827,,,,,,,,,,,,,,,,,,,,,,,,,,,,,,,,,1,,,,,,,,,,,,,,,,,,,,,,,,,,,,,,,,,,,,,,,,,,999,26,Female,1,2024/05/15_09:22:42,YZ,60.01006968952248,
,,,,,,choice,9,1,1,679,1,Q,0,right,0.907550000003539,1,0,,,,,,,,,,,,,,,,,,,,,1,,,,,,,,,,,,,,,,,,,,,,,,,,,,,,,,,,,,,,,,,,999,26,Female,1,2024/05/15_09:22:42,YZ,60.01006968952248,
,,,,,,choice,9,1,1,679,2,S,0,right,0.42970079999940936,1,0,,,,,,,,,,,,,,,,,,,,,1,,,,,,,,,,,,,,,,,,,,,,,,,,,,,,,,,,,,,,,,,,999,26,Female,1,2024/05/15_09:22:42,YZ,60.01006968952248,
,,,,,,choice,9,1,1,679,3,S,1,left,0.27107819999946514,1,0,,,,,,,,,,,,,,,,,,,,,1,,,,,,,,,,,,,,,,,,,,,,,,,,,,,,,,,,,,,,,,,,999,26,Female,1,2024/05/15_09:22:42,YZ,60.01006968952248,
,,,,,,choice,9,1,1,679,4,N,0,right,0.09394559999782359,1,0,,,,,,,,,,,,,,,,,,,,,1,,,,,,,,,,,,,,,,,,,,,,,,,,,,,,,,,,,,,,,,,,999,26,Female,1,2024/05/15_09:22:42,YZ,60.01006968952248,
,,,,,,choice,9,1,1,679,5,J,0,right,0.30445999999938067,1,0,,,,,,,,,,,,,,,,,,,,,1,,,,,,,,,,,,,,,,,,,,,,,,,,,,,,,,,,,,,,,,,,999,26,Female,1,2024/05/15_09:22:42,YZ,60.01006968952248,
,,,,,,choice,9,1,1,679,6,J,1,left,0.2704355000023497,1,0,,,,,,,,,,,,,,,,,,,,,1,,,,,,,,,,,,,,,,,,,,,,,,,,,,,,,,,,,,,,,,,,999,26,Female,1,2024/05/15_09:22:42,YZ,60.01006968952248,
,,,,,,choice,9,1,1,679,7,Q,0,right,0.021583100002317224,1,0,,,,,,,,,,,,,,,,,,,,,1,,,,,,,,,,,,,,,,,,,,,,,,,,,,,,,,,,,,,,,,,,999,26,Female,1,2024/05/15_09:22:42,YZ,60.01006968952248,
,,,,,,choice,9,1,1,679,8,Q,1,left,0.41426599999977043,1,0,,,,,,,,,,,,,,,,,,,,,1,,,,,,,,,,,,,,,,,,,,,,,,,,,,,,,,,,,,,,,,,,999,26,Female,1,2024/05/15_09:22:42,YZ,60.01006968952248,
,,,,,,choice,9,1,1,679,9,F,0,right,0.0681994999977178,1,0,,,,,,,,,,,,,,,,,,,,,1,,,,,,,,,,,,,,,,,,,,,,,,,,,,,,,,,,,,,,,,,,999,26,Female,1,2024/05/15_09:22:42,YZ,60.01006968952248,
,,,,,,choice,9,1,1,679,10,V,0,right,0.2558534999989206,1,0,,,,,,,,,,,,,,,,,,,,,1,,,,,,,,,,,,,,,,,,,,,,,,,,,,,,,,,,,,,,,,,,999,26,Female,1,2024/05/15_09:22:42,YZ,60.01006968952248,
,,,,,,choice,9,1,1,679,11,V,1,left,0.2997739999991609,1,0,,,,,,,,,,,,,,,,,,,,,1,,,,,,,,,,,,,,,,,,,,,,,,,,,,,,,,,,,,,,,,,,999,26,Female,1,2024/05/15_09:22:42,YZ,60.01006968952248,
,,,,,,choice,9,1,1,679,12,X,0,right,0.15381700000580167,1,0,,,,,,,,,,,,,,,,,,,,,1,,,,,,,,,,,,,,,,,,,,,,,,,,,,,,,,,,,,,,,,,,999,26,Female,1,2024/05/15_09:22:42,YZ,60.01006968952248,
,,,,,,choice,9,1,1,679,13,S,0,right,0.3117162000053213,1,0,,,,,,,,,,,,,,,,,,,,,1,,,,,,,,,,,,,,,,,,,,,,,,,,,,,,,,,,,,,,,,,,999,26,Female,1,2024/05/15_09:22:42,YZ,60.01006968952248,
,,,,,,choice,9,1,1,679,14,N,0,right,0.30474180000601336,1,0,,,,,,,,,,,,,,,,,,,,,1,,,,,,,,,,,,,,,,,,,,,,,,,,,,,,,,,,,,,,,,,,999,26,Female,1,2024/05/15_09:22:42,YZ,60.01006968952248,
,,,,,,Choice,9,1,1,679,,,,,,,,1.0,1.0,0.0,1.0,0.0,1.0,0.29336580000121365,4,0,0,0,0,10,14,4,10,0,,,,1,,,,,,,,,,,,,,,,,,,,,,,,,,,,,,,,,,,,,,,,,,999,26,Female,1,2024/05/15_09:22:42,YZ,60.01006968952248,
,,,,,240515_092848,TrueCHOICE,9,1.0,1,679,,,,,,,,,,,,,,,,,,,,,,,,,,,,1,,2,1,,,A,341.5260433000003,,,,,,,,,True,cue1.png,Easy,cue2.png,Hard,Left,Easy,Easy,0.005656599998474121,0,341.52627819999907,,,,,,,,,,,,,,,,999,26,Female,1,2024/05/15_09:22:42,YZ,60.01006968952248,
,,,,,,choice,9,2,3,679,1,Q,0,right,0.40907460000016727,1,0,,,,,,,,,,,,,,,,,,,,,1,,,,,,,,,,,,,,,,,,,,,,,,,,,,,,,,,,,,,,,,,,999,26,Female,1,2024/05/15_09:22:42,YZ,60.01006968952248,
,,,,,,choice,9,2,3,679,2,X,0,right,0.0,1,0,,,,,,,,,,,,,,,,,,,,,1,,,,,,,,,,,,,,,,,,,,,,,,,,,,,,,,,,,,,,,,,,999,26,Female,1,2024/05/15_09:22:42,YZ,60.01006968952248,
,,,,,,choice,9,2,3,679,3,Q,0,left,0.0,0,0,,,,,,,,,,,,,,,,,,,,,1,,,,,,,,,,,,,,,,,,,,,,,,,,,,,,,,,,,,,,,,,,999,26,Female,1,2024/05/15_09:22:42,YZ,60.01006968952248,
,,,,,,choice,9,2,3,679,4,F,0,right,0.017039999998814892,1,0,,,,,,,,,,,,,,,,,,,,,1,,,,,,,,,,,,,,,,,,,,,,,,,,,,,,,,,,,,,,,,,,999,26,Female,1,2024/05/15_09:22:42,YZ,60.01006968952248,
,,,,,,choice,9,2,3,679,5,N,0,left,0.0,0,0,,,,,,,,,,,,,,,,,,,,,1,,,,,,,,,,,,,,,,,,,,,,,,,,,,,,,,,,,,,,,,,,999,26,Female,1,2024/05/15_09:22:42,YZ,60.01006968952248,
,,,,,,choice,9,2,3,679,6,X,0,right,0.09312620000127936,1,0,,,,,,,,,,,,,,,,,,,,,1,,,,,,,,,,,,,,,,,,,,,,,,,,,,,,,,,,,,,,,,,,999,26,Female,1,2024/05/15_09:22:42,YZ,60.01006968952248,
,,,,,,choice,9,2,3,679,7,X,0,left,0.0,0,0,,,,,,,,,,,,,,,,,,,,,1,,,,,,,,,,,,,,,,,,,,,,,,,,,,,,,,,,,,,,,,,,999,26,Female,1,2024/05/15_09:22:42,YZ,60.01006968952248,
,,,,,,choice,9,2,3,679,8,V,0,right,0.0,1,0,,,,,,,,,,,,,,,,,,,,,1,,,,,,,,,,,,,,,,,,,,,,,,,,,,,,,,,,,,,,,,,,999,26,Female,1,2024/05/15_09:22:42,YZ,60.01006968952248,
,,,,,,choice,9,2,3,679,9,X,1,left,0.0,1,0,,,,,,,,,,,,,,,,,,,,,1,,,,,,,,,,,,,,,,,,,,,,,,,,,,,,,,,,,,,,,,,,999,26,Female,1,2024/05/15_09:22:42,YZ,60.01006968952248,
,,,,,,choice,9,2,3,679,10,S,0,right,0.0,1,0,,,,,,,,,,,,,,,,,,,,,1,,,,,,,,,,,,,,,,,,,,,,,,,,,,,,,,,,,,,,,,,,999,26,Female,1,2024/05/15_09:22:42,YZ,60.01006968952248,
,,,,,,choice,9,2,3,679,11,V,1,left,0.2826969999950961,1,0,,,,,,,,,,,,,,,,,,,,,1,,,,,,,,,,,,,,,,,,,,,,,,,,,,,,,,,,,,,,,,,,999,26,Female,1,2024/05/15_09:22:42,YZ,60.01006968952248,
,,,,,,choice,9,2,3,679,12,S,0,right,0.39494059999560704,1,0,,,,,,,,,,,,,,,,,,,,,1,,,,,,,,,,,,,,,,,,,,,,,,,,,,,,,,,,,,,,,,,,999,26,Female,1,2024/05/15_09:22:42,YZ,60.01006968952248,
,,,,,,choice,9,2,3,679,13,S,1,right,0.04757139999856008,0,0,,,,,,,,,,,,,,,,,,,,,1,,,,,,,,,,,,,,,,,,,,,,,,,,,,,,,,,,,,,,,,,,999,26,Female,1,2024/05/15_09:22:42,YZ,60.01006968952248,
,,,,,,choice,9,2,3,679,14,V,1,right,0.1618640999950003,0,0,,,,,,,,,,,,,,,,,,,,,1,,,,,,,,,,,,,,,,,,,,,,,,,,,,,,,,,,,,,,,,,,999,26,Female,1,2024/05/15_09:22:42,YZ,60.01006968952248,
,,,,,,Choice,9,2,3,679,,,,,,,,0.725,0.5,0.2,0.7,0.0,0.8,0.10045099285603751,2,2,0,0,0,7,9,4,10,0,,,,1,,,,,,,,,,,,,,,,,,,,,,,,,,,,,,,,,,,,,,,,,,999,26,Female,1,2024/05/15_09:22:42,YZ,60.01006968952248,
,,,,,240515_092905,TrueCHOICE,9,2.0,3,679,,,,,,,,,,,,,,,,,,,,,,,,,,,,1,,3,2,,,A,361.6734709999946,,,,,,,,,True,cue1.png,Easy,cue2.png,Hard,Right,Hard,Hard,0.005323299999872688,0,361.67374749999726,,,,,,,,,,,,,,,,999,26,Female,1,2024/05/15_09:22:42,YZ,60.01006968952248,
,,,,,,choice,9,3,1,679,1,V,0,right,0.38533669999742415,1,0,,,,,,,,,,,,,,,,,,,,,1,,,,,,,,,,,,,,,,,,,,,,,,,,,,,,,,,,,,,,,,,,999,26,Female,1,2024/05/15_09:22:42,YZ,60.01006968952248,
,,,,,,choice,9,3,1,679,2,V,1,right,0.0,0,0,,,,,,,,,,,,,,,,,,,,,1,,,,,,,,,,,,,,,,,,,,,,,,,,,,,,,,,,,,,,,,,,999,26,Female,1,2024/05/15_09:22:42,YZ,60.01006968952248,
,,,,,,choice,9,3,1,679,3,S,0,right,0.0,1,0,,,,,,,,,,,,,,,,,,,,,1,,,,,,,,,,,,,,,,,,,,,,,,,,,,,,,,,,,,,,,,,,999,26,Female,1,2024/05/15_09:22:42,YZ,60.01006968952248,
,,,,,,choice,9,3,1,679,4,X,0,right,0.0,1,0,,,,,,,,,,,,,,,,,,,,,1,,,,,,,,,,,,,,,,,,,,,,,,,,,,,,,,,,,,,,,,,,999,26,Female,1,2024/05/15_09:22:42,YZ,60.01006968952248,
,,,,,,choice,9,3,1,679,5,J,0,right,0.0,1,0,,,,,,,,,,,,,,,,,,,,,1,,,,,,,,,,,,,,,,,,,,,,,,,,,,,,,,,,,,,,,,,,999,26,Female,1,2024/05/15_09:22:42,YZ,60.01006968952248,
,,,,,,choice,9,3,1,679,6,F,0,right,0.06305609999981243,1,0,,,,,,,,,,,,,,,,,,,,,1,,,,,,,,,,,,,,,,,,,,,,,,,,,,,,,,,,,,,,,,,,999,26,Female,1,2024/05/15_09:22:42,YZ,60.01006968952248,
,,,,,,choice,9,3,1,679,7,F,1,right,0.21092440000211354,0,0,,,,,,,,,,,,,,,,,,,,,1,,,,,,,,,,,,,,,,,,,,,,,,,,,,,,,,,,,,,,,,,,999,26,Female,1,2024/05/15_09:22:42,YZ,60.01006968952248,
,,,,,,choice,9,3,1,679,8,V,0,left,0.0,0,0,,,,,,,,,,,,,,,,,,,,,1,,,,,,,,,,,,,,,,,,,,,,,,,,,,,,,,,,,,,,,,,,999,26,Female,1,2024/05/15_09:22:42,YZ,60.01006968952248,
,,,,,,choice,9,3,1,679,9,F,0,right,0.0,1,0,,,,,,,,,,,,,,,,,,,,,1,,,,,,,,,,,,,,,,,,,,,,,,,,,,,,,,,,,,,,,,,,999,26,Female,1,2024/05/15_09:22:42,YZ,60.01006968952248,
,,,,,,choice,9,3,1,679,10,C,0,left,0.0,0,0,,,,,,,,,,,,,,,,,,,,,1,,,,,,,,,,,,,,,,,,,,,,,,,,,,,,,,,,,,,,,,,,999,26,Female,1,2024/05/15_09:22:42,YZ,60.01006968952248,
,,,,,,choice,9,3,1,679,11,C,1,right,0.0,0,0,,,,,,,,,,,,,,,,,,,,,1,,,,,,,,,,,,,,,,,,,,,,,,,,,,,,,,,,,,,,,,,,999,26,Female,1,2024/05/15_09:22:42,YZ,60.01006968952248,
,,,,,,choice,9,3,1,679,12,J,0,left,0.0,0,0,,,,,,,,,,,,,,,,,,,,,1,,,,,,,,,,,,,,,,,,,,,,,,,,,,,,,,,,,,,,,,,,999,26,Female,1,2024/05/15_09:22:42,YZ,60.01006968952248,
,,,,,,choice,9,3,1,679,13,F,0,right,0.021771100000478327,1,0,,,,,,,,,,,,,,,,,,,,,1,,,,,,,,,,,,,,,,,,,,,,,,,,,,,,,,,,,,,,,,,,999,26,Female,1,2024/05/15_09:22:42,YZ,60.01006968952248,
,,,,,,choice,9,3,1,679,14,F,1,left,0.26356140000279993,1,0,,,,,,,,,,,,,,,,,,,,,1,,,,,,,,,,,,,,,,,,,,,,,,,,,,,,,,,,,,,,,,,,999,26,Female,1,2024/05/15_09:22:42,YZ,60.01006968952248,
,,,,,,Choice,9,3,1,679,,,,,,,,0.029166666666666646,0.25,0.3,0.7,0.0,0.7,0.06747497857161631,1,3,0,0,0,7,8,4,10,0,,,,1,,,,,,,,,,,,,,,,,,,,,,,,,,,,,,,,,,,,,,,,,,999,26,Female,1,2024/05/15_09:22:42,YZ,60.01006968952248,
,,,,,240515_092920,TrueCHOICE,9,3.0,1,679,,,,,,,,,,,,,,,,,,,,,,,,,,,,1,,4,3,,,A,377.1843058000013,,,,,,,,,True,cue2.png,Hard,cue1.png,Easy,Right,Easy,Easy,0.005135799998242874,0,377.1846344000005,,,,,,,,,,,,,,,,999,26,Female,1,2024/05/15_09:22:42,YZ,60.01006968952248,
1,.\instructions\inst_offline_rating_2\Slide1.png,right,1.3964770999955363,391.65294390000054,393.0494209999961,,,,,,,,,,,,,,,,,,,,,,,,,,,,,,,,,1,,,,,,,,,,,,,,,,,,,,,,,,,,,,,,,,,,,,,,,,,,999,26,Female,1,2024/05/15_09:22:42,YZ,60.01006968952248,
2,.\instructions\inst_offline_rating_2\Slide2.png,right,0.2001001999960863,393.08414130000165,393.28424149999773,,,,,,,,,,,,,,,,,,,,,,,,,,,,,,,,,1,,,,,,,,,,,,,,,,,,,,,,,,,,,,,,,,,,,,,,,,,,999,26,Female,1,2024/05/15_09:22:42,YZ,60.01006968952248,
3,.\instructions\inst_offline_rating_2\Slide3.png,right,1.5688541999988956,393.3151482999965,394.8840024999954,,,,,,,,,,,,,,,,,,,,,,,,,,,,,,,,,1,,,,,,,,,,,,,,,,,,,,,,,,,,,,,,,,,,,,,,,,,,999,26,Female,1,2024/05/15_09:22:42,YZ,60.01006968952248,
,,,,,240515_092932,OFFLINERATING,9,,1.0,,,,,,,,,,,,,,,,,,,,,,,,,,,,,1,,,,,,,,T2,1.0,cue1.png,Easy,56,2.2079149999990477,399.46623259999615,401.7107781999948,,,,,,,,,,,,,,,,,,,,,,,,,,,999,26,Female,1,2024/05/15_09:22:42,YZ,60.01006968952248,
,,,,,240515_092937,OFFLINERATING,9,,3.0,,,,,,,,,,,,,,,,,,,,,,,,,,,,,1,,,,,,,,T2,2.0,cue2.png,Hard,18,0.8287037999980384,406.28610800000024,407.1358149000007,,,,,,,,,,,,,,,,,,,,,,,,,,,999,26,Female,1,2024/05/15_09:22:42,YZ,60.01006968952248,
1,.\instructions\inst_learning_check\Slide1.png,right,3.0515448000005563,410.1947407999978,413.2462855999984,,,,,,,,,,,,,,,,,,,,,,,,,,,,,,,,,1,,,,,,,,,,,,,,,,,,,,,,,,,,,,,,,,,,,,,,,,,,999,26,Female,1,2024/05/15_09:22:42,YZ,60.01006968952248,
,,,,,240515_093002,LEARNINGCHECK,9,1,,,,,,,,,,,,,,,,,,,,,,,,,,,,,,1,1.0,2,1,,,A,429.4379345999987,,,,,,,,,,,,,,,,,,,,cue1.png,Easy,Left,Left,Easy,0.0014225999984773807,1,0,429.4381192000001,,,,,,,999,26,Female,1,2024/05/15_09:22:42,YZ,60.01006968952248,
,,,,,240515_093007,LEARNINGCHECK,9,2,,,,,,,,,,,,,,,,,,,,,,,,,,,,,,1,2.0,3,2,,,A,434.4203703999956,,,,,,,,,,,,,,,,,,,,cue2.png,Hard,Right,Right,Hard,0.001426700000592973,1,0,434.4205615999963,,,,,,,999,26,Female,1,2024/05/15_09:22:42,YZ,60.01006968952248,
1,.\instructions\inst_choice_false\Slide1.png,right,3.1517645999992965,437.97985479999625,441.13161939999554,,,,,,,,,,,,,,,,,,,,,,,,,,,,,,,,,1,,,,,,,,,,,,,,,,,,,,,,,,,,,,,,,,,,,,,,,,,,999,26,Female,1,2024/05/15_09:22:42,YZ,60.01006968952248,
2,.\instructions\inst_choice_false\Slide2.png,right,0.9492708000034327,441.1663283999951,442.11559919999854,,,,,,,,,,,,,,,,,,,,,,,,,,,,,,,,,1,,,,,,,,,,,,,,,,,,,,,,,,,,,,,,,,,,,,,,,,,,999,26,Female,1,2024/05/15_09:22:42,YZ,60.01006968952248,
3,.\instructions\inst_choice_false\Slide3.png,right,3.7551089999979013,442.1463300999967,445.9014390999946,,,,,,,,,,,,,,,,,,,,,,,,,,,,,,,,,1,,,,,,,,,,,,,,,,,,,,,,,,,,,,,,,,,,,,,,,,,,999,26,Female,1,2024/05/15_09:22:42,YZ,60.01006968952248,
,,,,,,choice,9,1,2,679,1,S,0,right,0.39281270000356017,1,0,,,,,,,,,,,,,,,,,,,,,1,,,,,,,,,,,,,,,,,,,,,,,,,,,,,,,,,,,,,,,,,,999,26,Female,1,2024/05/15_09:22:42,YZ,60.01006968952248,
,,,,,,choice,9,1,2,679,2,S,0,right,0.0,1,0,,,,,,,,,,,,,,,,,,,,,1,,,,,,,,,,,,,,,,,,,,,,,,,,,,,,,,,,,,,,,,,,999,26,Female,1,2024/05/15_09:22:42,YZ,60.01006968952248,
,,,,,,choice,9,1,2,679,3,F,0,left,0.00865920000069309,0,0,,,,,,,,,,,,,,,,,,,,,1,,,,,,,,,,,,,,,,,,,,,,,,,,,,,,,,,,,,,,,,,,999,26,Female,1,2024/05/15_09:22:42,YZ,60.01006968952248,
,,,,,,choice,9,1,2,679,4,J,0,right,0.042961200000718236,1,0,,,,,,,,,,,,,,,,,,,,,1,,,,,,,,,,,,,,,,,,,,,,,,,,,,,,,,,,,,,,,,,,999,26,Female,1,2024/05/15_09:22:42,YZ,60.01006968952248,
,,,,,,choice,9,1,2,679,5,Q,0,left,0.0,0,0,,,,,,,,,,,,,,,,,,,,,1,,,,,,,,,,,,,,,,,,,,,,,,,,,,,,,,,,,,,,,,,,999,26,Female,1,2024/05/15_09:22:42,YZ,60.01006968952248,
,,,,,,choice,9,1,2,679,6,N,0,left,0.15158289999817498,0,0,,,,,,,,,,,,,,,,,,,,,1,,,,,,,,,,,,,,,,,,,,,,,,,,,,,,,,,,,,,,,,,,999,26,Female,1,2024/05/15_09:22:42,YZ,60.01006968952248,
,,,,,,choice,9,1,2,679,7,Q,1,right,0.0,0,0,,,,,,,,,,,,,,,,,,,,,1,,,,,,,,,,,,,,,,,,,,,,,,,,,,,,,,,,,,,,,,,,999,26,Female,1,2024/05/15_09:22:42,YZ,60.01006968952248,
,,,,,,choice,9,1,2,679,8,N,1,left,0.0,1,0,,,,,,,,,,,,,,,,,,,,,1,,,,,,,,,,,,,,,,,,,,,,,,,,,,,,,,,,,,,,,,,,999,26,Female,1,2024/05/15_09:22:42,YZ,60.01006968952248,
,,,,,,choice,9,1,2,679,9,V,0,right,0.32633419999910984,1,0,,,,,,,,,,,,,,,,,,,,,1,,,,,,,,,,,,,,,,,,,,,,,,,,,,,,,,,,,,,,,,,,999,26,Female,1,2024/05/15_09:22:42,YZ,60.01006968952248,
,,,,,,choice,9,1,2,679,10,N,1,left,0.0,1,0,,,,,,,,,,,,,,,,,,,,,1,,,,,,,,,,,,,,,,,,,,,,,,,,,,,,,,,,,,,,,,,,999,26,Female,1,2024/05/15_09:22:42,YZ,60.01006968952248,
,,,,,,choice,9,1,2,679,11,C,0,right,0.0,1,0,,,,,,,,,,,,,,,,,,,,,1,,,,,,,,,,,,,,,,,,,,,,,,,,,,,,,,,,,,,,,,,,999,26,Female,1,2024/05/15_09:22:42,YZ,60.01006968952248,
,,,,,,choice,9,1,2,679,12,F,0,left,0.0,0,0,,,,,,,,,,,,,,,,,,,,,1,,,,,,,,,,,,,,,,,,,,,,,,,,,,,,,,,,,,,,,,,,999,26,Female,1,2024/05/15_09:22:42,YZ,60.01006968952248,
,,,,,,choice,9,1,2,679,13,C,1,right,0.0,0,0,,,,,,,,,,,,,,,,,,,,,1,,,,,,,,,,,,,,,,,,,,,,,,,,,,,,,,,,,,,,,,,,999,26,Female,1,2024/05/15_09:22:42,YZ,60.01006968952248,
,,,,,,choice,9,1,2,679,14,J,0,left,0.0,0,0,,,,,,,,,,,,,,,,,,,,,1,,,,,,,,,,,,,,,,,,,,,,,,,,,,,,,,,,,,,,,,,,999,26,Female,1,2024/05/15_09:22:42,YZ,60.01006968952248,
,,,,,,Choice,9,1,2,679,,,,,,,,0.725,0.5,0.2,0.5,0.0,0.8,0.0658821571430183,2,2,0,0,0,5,7,4,10,0,,,,1,,,,,,,,,,,,,,,,,,,,,,,,,,,,,,,,,,,,,,,,,,999,26,Female,1,2024/05/15_09:22:42,YZ,60.01006968952248,
,,,,,240515_093034,FalseCHOICE,9,1.0,2,679,,,,,,,,,,,,,,,,,,,,,,,,,,,,1,,1,1,,,A,450.78491609999764,,,,,,,,,False,cue1.png,Easy,cue2.png,Hard,Left,Easy,Mid,0.0032735000058892183,0,450.78525489999447,,,,,,,,,,,,,,,,999,26,Female,1,2024/05/15_09:22:42,YZ,60.01006968952248,
,,,,,,choice,9,2,2,679,1,N,0,right,0.19371830000454793,1,0,,,,,,,,,,,,,,,,,,,,,1,,,,,,,,,,,,,,,,,,,,,,,,,,,,,,,,,,,,,,,,,,999,26,Female,1,2024/05/15_09:22:42,YZ,60.01006968952248,
,,,,,,choice,9,2,2,679,2,N,0,right,0.08075739999912912,1,0,,,,,,,,,,,,,,,,,,,,,1,,,,,,,,,,,,,,,,,,,,,,,,,,,,,,,,,,,,,,,,,,999,26,Female,1,2024/05/15_09:22:42,YZ,60.01006968952248,
,,,,,,choice,9,2,2,679,3,C,0,left,0.09295009999914328,0,0,,,,,,,,,,,,,,,,,,,,,1,,,,,,,,,,,,,,,,,,,,,,,,,,,,,,,,,,,,,,,,,,999,26,Female,1,2024/05/15_09:22:42,YZ,60.01006968952248,
,,,,,,choice,9,2,2,679,4,V,0,right,0.12897659999725875,1,0,,,,,,,,,,,,,,,,,,,,,1,,,,,,,,,,,,,,,,,,,,,,,,,,,,,,,,,,,,,,,,,,999,26,Female,1,2024/05/15_09:22:42,YZ,60.01006968952248,
,,,,,,choice,9,2,2,679,5,C,1,left,0.0,1,0,,,,,,,,,,,,,,,,,,,,,1,,,,,,,,,,,,,,,,,,,,,,,,,,,,,,,,,,,,,,,,,,999,26,Female,1,2024/05/15_09:22:42,YZ,60.01006968952248,
,,,,,,choice,9,2,2,679,6,V,1,right,0.024641700001666322,0,0,,,,,,,,,,,,,,,,,,,,,1,,,,,,,,,,,,,,,,,,,,,,,,,,,,,,,,,,,,,,,,,,999,26,Female,1,2024/05/15_09:22:42,YZ,60.01006968952248,
,,,,,,choice,9,2,2,679,7,N,0,left,0.0,0,0,,,,,,,,,,,,,,,,,,,,,1,,,,,,,,,,,,,,,,,,,,,,,,,,,,,,,,,,,,,,,,,,999,26,Female,1,2024/05/15_09:22:42,YZ,60.01006968952248,
,,,,,,choice,9,2,2,679,8,F,0,left,0.14128250000067055,0,0,,,,,,,,,,,,,,,,,,,,,1,,,,,,,,,,,,,,,,,,,,,,,,,,,,,,,,,,,,,,,,,,999,26,Female,1,2024/05/15_09:22:42,YZ,60.01006968952248,
,,,,,,choice,9,2,2,679,9,N,1,right,0.0,0,0,,,,,,,,,,,,,,,,,,,,,1,,,,,,,,,,,,,,,,,,,,,,,,,,,,,,,,,,,,,,,,,,999,26,Female,1,2024/05/15_09:22:42,YZ,60.01006968952248,
,,,,,,choice,9,2,2,679,10,V,0,right,0.020799599995370954,1,0,,,,,,,,,,,,,,,,,,,,,1,,,,,,,,,,,,,,,,,,,,,,,,,,,,,,,,,,,,,,,,,,999,26,Female,1,2024/05/15_09:22:42,YZ,60.01006968952248,
,,,,,,choice,9,2,2,679,11,N,1,right,0.0,0,0,,,,,,,,,,,,,,,,,,,,,1,,,,,,,,,,,,,,,,,,,,,,,,,,,,,,,,,,,,,,,,,,999,26,Female,1,2024/05/15_09:22:42,YZ,60.01006968952248,
,,,,,,choice,9,2,2,679,12,X,0,left,0.0,0,0,,,,,,,,,,,,,,,,,,,,,1,,,,,,,,,,,,,,,,,,,,,,,,,,,,,,,,,,,,,,,,,,999,26,Female,1,2024/05/15_09:22:42,YZ,60.01006968952248,
,,,,,,choice,9,2,2,679,13,Q,0,right,0.0,1,0,,,,,,,,,,,,,,,,,,,,,1,,,,,,,,,,,,,,,,,,,,,,,,,,,,,,,,,,,,,,,,,,999,26,Female,1,2024/05/15_09:22:42,YZ,60.01006968952248,
,,,,,,choice,9,2,2,679,14,C,0,right,0.27004999999917345,1,0,,,,,,,,,,,,,,,,,,,,,1,,,,,,,,,,,,,,,,,,,,,,,,,,,,,,,,,,,,,,,,,,999,26,Female,1,2024/05/15_09:22:42,YZ,60.01006968952248,
,,,,,,Choice,9,2,2,679,,,,,,,,0.029166666666666646,0.25,0.3,0.6,0.0,0.7,0.06808401428549717,1,3,0,0,0,6,7,4,10,0,,,,1,,,,,,,,,,,,,,,,,,,,,,,,,,,,,,,,,,,,,,,,,,999,26,Female,1,2024/05/15_09:22:42,YZ,60.01006968952248,
,,,,,240515_093051,FalseCHOICE,9,2.0,2,679,,,,,,,,,,,,,,,,,,,,,,,,,,,,1,,2,2,,,A,468.16114709999965,,,,,,,,,False,cue2.png,Hard,cue1.png,Easy,Left,Hard,Mid,0.005526200002350379,0,468.1613776999948,,,,,,,,,,,,,,,,999,26,Female,1,2024/05/15_09:22:42,YZ,60.01006968952248,
,,,,,,choice,9,3,2,679,1,F,0,right,0.30168850000336533,1,0,,,,,,,,,,,,,,,,,,,,,1,,,,,,,,,,,,,,,,,,,,,,,,,,,,,,,,,,,,,,,,,,999,26,Female,1,2024/05/15_09:22:42,YZ,60.01006968952248,
,,,,,,choice,9,3,2,679,2,Q,0,right,0.3672950000036508,1,0,,,,,,,,,,,,,,,,,,,,,1,,,,,,,,,,,,,,,,,,,,,,,,,,,,,,,,,,,,,,,,,,999,26,Female,1,2024/05/15_09:22:42,YZ,60.01006968952248,
,,,,,,choice,9,3,2,679,3,C,0,left,0.0,0,0,,,,,,,,,,,,,,,,,,,,,1,,,,,,,,,,,,,,,,,,,,,,,,,,,,,,,,,,,,,,,,,,999,26,Female,1,2024/05/15_09:22:42,YZ,60.01006968952248,
,,,,,,choice,9,3,2,679,4,Q,1,right,0.007561200000054669,0,0,,,,,,,,,,,,,,,,,,,,,1,,,,,,,,,,,,,,,,,,,,,,,,,,,,,,,,,,,,,,,,,,999,26,Female,1,2024/05/15_09:22:42,YZ,60.01006968952248,
,,,,,,choice,9,3,2,679,5,F,0,left,0.0,0,0,,,,,,,,,,,,,,,,,,,,,1,,,,,,,,,,,,,,,,,,,,,,,,,,,,,,,,,,,,,,,,,,999,26,Female,1,2024/05/15_09:22:42,YZ,60.01006968952248,
,,,,,,choice,9,3,2,679,6,C,0,right,0.0,1,0,,,,,,,,,,,,,,,,,,,,,1,,,,,,,,,,,,,,,,,,,,,,,,,,,,,,,,,,,,,,,,,,999,26,Female,1,2024/05/15_09:22:42,YZ,60.01006968952248,
,,,,,,choice,9,3,2,679,7,F,1,right,0.0,0,0,,,,,,,,,,,,,,,,,,,,,1,,,,,,,,,,,,,,,,,,,,,,,,,,,,,,,,,,,,,,,,,,999,26,Female,1,2024/05/15_09:22:42,YZ,60.01006968952248,
,,,,,,choice,9,3,2,679,8,C,1,right,0.14386609999928623,0,0,,,,,,,,,,,,,,,,,,,,,1,,,,,,,,,,,,,,,,,,,,,,,,,,,,,,,,,,,,,,,,,,999,26,Female,1,2024/05/15_09:22:42,YZ,60.01006968952248,
,,,,,,choice,9,3,2,679,9,X,0,left,0.0,0,0,,,,,,,,,,,,,,,,,,,,,1,,,,,,,,,,,,,,,,,,,,,,,,,,,,,,,,,,,,,,,,,,999,26,Female,1,2024/05/15_09:22:42,YZ,60.01006968952248,
,,,,,,choice,9,3,2,679,10,N,0,right,0.0,1,0,,,,,,,,,,,,,,,,,,,,,1,,,,,,,,,,,,,,,,,,,,,,,,,,,,,,,,,,,,,,,,,,999,26,Female,1,2024/05/15_09:22:42,YZ,60.01006968952248,
,,,,,,choice,9,3,2,679,11,V,0,right,0.00961269999970682,1,0,,,,,,,,,,,,,,,,,,,,,1,,,,,,,,,,,,,,,,,,,,,,,,,,,,,,,,,,,,,,,,,,999,26,Female,1,2024/05/15_09:22:42,YZ,60.01006968952248,
,,,,,,choice,9,3,2,679,12,C,0,right,0.3723364999968908,1,0,,,,,,,,,,,,,,,,,,,,,1,,,,,,,,,,,,,,,,,,,,,,,,,,,,,,,,,,,,,,,,,,999,26,Female,1,2024/05/15_09:22:42,YZ,60.01006968952248,
,,,,,,choice,9,3,2,679,13,J,0,left,0.32531330000347225,0,0,,,,,,,,,,,,,,,,,,,,,1,,,,,,,,,,,,,,,,,,,,,,,,,,,,,,,,,,,,,,,,,,999,26,Female,1,2024/05/15_09:22:42,YZ,60.01006968952248,
,,,,,,choice,9,3,2,679,14,C,1,right,0.04267180000169901,0,0,,,,,,,,,,,,,,,,,,,,,1,,,,,,,,,,,,,,,,,,,,,,,,,,,,,,,,,,,,,,,,,,999,26,Female,1,2024/05/15_09:22:42,YZ,60.01006968952248,
,,,,,,Choice,9,3,2,679,,,,,,,,0.15,0.0,0.4,0.6,0.0,0.6,0.11216750714343757,0,4,0,0,0,6,6,4,10,0,,,,1,,,,,,,,,,,,,,,,,,,,,,,,,,,,,,,,,,,,,,,,,,999,26,Female,1,2024/05/15_09:22:42,YZ,60.01006968952248,
,,,,,240515_093108,FalseCHOICE,9,3.0,2,679,,,,,,,,,,,,,,,,,,,,,,,,,,,,1,,3,3,,,A,483.9219382999945,,,,,,,,,False,cue2.png,Hard,cue1.png,Easy,Right,Easy,Mid,0.0058363999996799976,0,483.92216929999995,,,,,,,,,,,,,,,,999,26,Female,1,2024/05/15_09:22:42,YZ,60.01006968952248,
1,.\instructions\inst_offline_rating_3\Slide1.png,right,1.4738940999959596,499.0474638000014,500.5213578999974,,,,,,,,,,,,,,,,,,,,,,,,,,,,,,,,,1,,,,,,,,,,,,,,,,,,,,,,,,,,,,,,,,,,,,,,,,,,999,26,Female,1,2024/05/15_09:22:42,YZ,60.01006968952248,
2,.\instructions\inst_offline_rating_3\Slide2.png,right,0.592169899995497,500.55604519999906,501.14821509999456,,,,,,,,,,,,,,,,,,,,,,,,,,,,,,,,,1,,,,,,,,,,,,,,,,,,,,,,,,,,,,,,,,,,,,,,,,,,999,26,Female,1,2024/05/15_09:22:42,YZ,60.01006968952248,
3,.\instructions\inst_offline_rating_3\Slide3.png,right,0.5596525000000838,501.17916010000044,501.73881260000053,,,,,,,,,,,,,,,,,,,,,,,,,,,,,,,,,1,,,,,,,,,,,,,,,,,,,,,,,,,,,,,,,,,,,,,,,,,,999,26,Female,1,2024/05/15_09:22:42,YZ,60.01006968952248,
,,,,,240515_093118,OFFLINERATING,9,,1.0,,,,,,,,,,,,,,,,,,,,,,,,,,,,,1,,,,,,,,T3,1.0,cue1.png,Easy,76,1.1503398999993806,506.30300899999565,507.4816079999946,,,,,,,,,,,,,,,,,,,,,,,,,,,999,26,Female,1,2024/05/15_09:22:42,YZ,60.01006968952248,
,,,,,240515_093124,OFFLINERATING,9,,3.0,,,,,,,,,,,,,,,,,,,,,,,,,,,,,1,,,,,,,,T3,2.0,cue2.png,Hard,54,1.9691319999983534,512.0576045999987,514.0668841000006,,,,,,,,,,,,,,,,,,,,,,,,,,,999,26,Female,1,2024/05/15_09:22:42,YZ,60.01006968952248,
1,.\instructions\inst_learning_check\Slide1.png,right,1.0817381000015303,517.1348045999985,518.2165427,,,,,,,,,,,,,,,,,,,,,,,,,,,,,,,,,1,,,,,,,,,,,,,,,,,,,,,,,,,,,,,,,,,,,,,,,,,,999,26,Female,1,2024/05/15_09:22:42,YZ,60.01006968952248,
,,,,,240515_093136,LEARNINGCHECK,9,1,,,,,,,,,,,,,,,,,,,,,,,,,,,,,,1,1.0,1,1,,,A,523.4573181000014,,,,,,,,,,,,,,,,,,,,cue1.png,Easy,Middle,Middle,Mid,0.001583100005518645,1,0,523.4575065999961,,,,,,,999,26,Female,1,2024/05/15_09:22:42,YZ,60.01006968952248,
,,,,,240515_093140,LEARNINGCHECK,9,2,,,,,,,,,,,,,,,,,,,,,,,,,,,,,,1,2.0,2,2,,,A,527.819697699997,,,,,,,,,,,,,,,,,,,,cue2.png,Hard,Middle,Middle,Mid,0.001586200000019744,1,0,527.8198847999956,,,,,,,999,26,Female,1,2024/05/15_09:22:42,YZ,60.01006968952248,
1,.\instructions\inst_demand_rating\Slide1.png,right,1.3887783999962267,531.3874890000006,532.7762673999969,,,,,,,,,,,,,,,,,,,,,,,,,,,,,,,,,1,,,,,,,,,,,,,,,,,,,,,,,,,,,,,,,,,,,,,,,,,,999,26,Female,1,2024/05/15_09:22:42,YZ,60.01006968952248,
,,,,,240515_093147,DEMANDRATING,9,,,,,,,,,,,,,,,,,,,,,,,,,,,,,,,1,,,,,,,,,,,,,,,,,,,,,,,,,,,,,,,,,,,,1,MentalDemand,1,45,2.6569178999998257,536.9966801999981,999,26,Female,1,2024/05/15_09:22:42,YZ,60.01006968952248,
,,,,,240515_093149,DEMANDRATING,9,,,,,,,,,,,,,,,,,,,,,,,,,,,,,,,1,,,,,,,,,,,,,,,,,,,,,,,,,,,,,,,,,,,,2,Effort,1,42,0.4718989999964833,538.998070099995,999,26,Female,1,2024/05/15_09:22:42,YZ,60.01006968952248,
,,,,,240515_093151,DEMANDRATING,9,,,,,,,,,,,,,,,,,,,,,,,,,,,,,,,1,,,,,,,,,,,,,,,,,,,,,,,,,,,,,,,,,,,,3,Frustration,1,43,0.3893908000027295,540.9160959000001,999,26,Female,1,2024/05/15_09:22:42,YZ,60.01006968952248,
,,,,,240515_093154,DEMANDRATING,9,,,,,,,,,,,,,,,,,,,,,,,,,,,,,,,1,,,,,,,,,,,,,,,,,,,,,,,,,,,,,,,,,,,,4,MentalDemand,2,60,0.6864230999999563,543.1343373999989,999,26,Female,1,2024/05/15_09:22:42,YZ,60.01006968952248,
,,,,,240515_093155,DEMANDRATING,9,,,,,,,,,,,,,,,,,,,,,,,,,,,,,,,1,,,,,,,,,,,,,,,,,,,,,,,,,,,,,,,,,,,,5,Effort,2,60,0.3732617999994545,545.0522223000007,999,26,Female,1,2024/05/15_09:22:42,YZ,60.01006968952248,
,,,,,240515_093157,DEMANDRATING,9,,,,,,,,,,,,,,,,,,,,,,,,,,,,,,,1,,,,,,,,,,,,,,,,,,,,,,,,,,,,,,,,,,,,6,Frustration,2,60,0.4473574000003282,547.0202856999967,999,26,Female,1,2024/05/15_09:22:42,YZ,60.01006968952248,
,,,,,240515_093159,DEMANDRATING,9,,,,,,,,,,,,,,,,,,,,,,,,,,,,,,,1,,,,,,,,,,,,,,,,,,,,,,,,,,,,,,,,,,,,7,MentalDemand,3,73,0.3837667000043439,548.9379649999973,999,26,Female,1,2024/05/15_09:22:42,YZ,60.01006968952248,
,,,,,240515_093201,DEMANDRATING,9,,,,,,,,,,,,,,,,,,,,,,,,,,,,,,,1,,,,,,,,,,,,,,,,,,,,,,,,,,,,,,,,,,,,8,Effort,3,74,0.37657970000145724,550.8393929999947,999,26,Female,1,2024/05/15_09:22:42,YZ,60.01006968952248,
,,,,,240515_093203,DEMANDRATING,9,,,,,,,,,,,,,,,,,,,,,,,,,,,,,,,1,,,,,,,,,,,,,,,,,,,,,,,,,,,,,,,,,,,,9,Frustration,3,75,0.3261309999943478,552.7073148999989,999,26,Female,1,2024/05/15_09:22:42,YZ,60.01006968952248,
1,.\instructions\inst_end\Slide1.png,right,0.926162599993404,555.7661278000014,556.6922903999948,,,,,,,,,,,,,,,,,,,,,,,,,,,,,,,,,1,,,,,,,,,,,,,,,,,,,,,,,,,,,,,,,,,,,,,,,,,,999,26,Female,1,2024/05/15_09:22:42,YZ,60.01006968952248,
