Instruction,Stimulus,Key,RT,START,END,Phase,Block,TrialN,NbackLevel,ISI,LetterN,Letter,Letter_isSame,Letter_Resp,Letter_RT,Letter_Accuracy,Letter_Timeout,Trial_A_measure,Trial_HR,Trial_FAR,Trial_CDR,Trial_MSR,Trial_ACC,Trial_RT,Trial_HitsCount,Trial_FAsCount,Trial_SameNoRespCount,Trial_DiffNoRespCount,Trial_NoRespCount,Trial_CDsCount,Trial_CorrectRespCount,Trial_SameLetterCount,Trial_DiffLetterCount,Trial_InvalidLetterCount,TrialCountCali,CaliEnd_A_measure,ISI_calibrated,Run,TrialIndex,TrialNumber_total,TrialNumber_valid,CueLearning,TrialDemandLearning,CueMapping,OnlineRating,OnlineRatingRT,OnlineRatingTimeOut,CueSTART,RatingSTART,OfflineRatingTimePoint,OfflineRatingQuesIndex,CueFigure,TrialDemand,OfflineRating,OfflineRatingRT,CueStart,OfflineRatingStart,PhaseType,CueLeft,CueDemandLeft,CueRight,CueDemandRight,Choice,ChoiceDemand,TaskDemand,ChoiceRT,ChoiceTimeOut,ChoiceSTART,CueCheck,CueDemandCheck,CorrectAnswer,Answer,AnswerDemand,AnswerRT,AnswerACC,AnswerTimeOut,CheckSTART,DemandRatingQuesIndex,QuesTLX,DemandLevel,DemandRating,DemandRatingRT,QuesStart,PID,SONA,Age,Gender,Run,TIME,EXPERIMENTER,frameRate,
1,./instructions/inst_begin/Slide2.png,right,20.279256173991598,0.11030702601419762,20.389563200005796,,,,,,,,,,,,,,,,,,,,,,,,,,,,,,,,,1,,,,,,,,,,,,,,,,,,,,,,,,,,,,,,,,,,,,,,,,,,,,,,100,148360,21,Female,1,2024/03/18_16:40:46,YZ,None,
2,./instructions/inst_begin/Slide3.png,right,7.539807812980143,20.41769413201837,27.957501944998512,,,,,,,,,,,,,,,,,,,,,,,,,,,,,,,,,1,,,,,,,,,,,,,,,,,,,,,,,,,,,,,,,,,,,,,,,,,,,,,,100,148360,21,Female,1,2024/03/18_16:40:46,YZ,None,
3,./instructions/inst_begin/Slide4.png,right,5.266169911017641,27.987275624996983,33.253445536014624,,,,,,,,,,,,,,,,,,,,,,,,,,,,,,,,,1,,,,,,,,,,,,,,,,,,,,,,,,,,,,,,,,,,,,,,,,,,,,,,100,148360,21,Female,1,2024/03/18_16:40:46,YZ,None,
1,./instructions/inst_prac_2/Slide6.png,right,13.941850167990196,33.28765577301965,47.22950594100985,,,,,,,,,,,,,,,,,,,,,,,,,,,,,,,,,1,,,,,,,,,,,,,,,,,,,,,,,,,,,,,,,,,,,,,,,,,,,,,,100,148360,21,Female,1,2024/03/18_16:40:46,YZ,None,
2,./instructions/inst_prac_2/Slide7.png,right,6.421936229016865,47.25562887999695,53.67756510901381,,,,,,,,,,,,,,,,,,,,,,,,,,,,,,,,,1,,,,,,,,,,,,,,,,,,,,,,,,,,,,,,,,,,,,,,,,,,,,,,100,148360,21,Female,1,2024/03/18_16:40:46,YZ,None,
3,./instructions/inst_prac_2/Slide8.png,right,8.274886733997846,53.70665375201497,61.98154048601282,,,,,,,,,,,,,,,,,,,,,,,,,,,,,,,,,1,,,,,,,,,,,,,,,,,,,,,,,,,,,,,,,,,,,,,,,,,,,,,,100,148360,21,Female,1,2024/03/18_16:40:46,YZ,None,
4,./instructions/inst_prac_2/Slide9.png,right,3.338505053980043,62.0109349010163,65.34943995499634,,,,,,,,,,,,,,,,,,,,,,,,,,,,,,,,,1,,,,,,,,,,,,,,,,,,,,,,,,,,,,,,,,,,,,,,,,,,,,,,100,148360,21,Female,1,2024/03/18_16:40:46,YZ,None,
5,./instructions/inst_prac_2/Slide10.png,right,1.2186586750030983,65.37872714799596,66.59738582299906,,,,,,,,,,,,,,,,,,,,,,,,,,,,,,,,,1,,,,,,,,,,,,,,,,,,,,,,,,,,,,,,,,,,,,,,,,,,,,,,100,148360,21,Female,1,2024/03/18_16:40:46,YZ,None,
6,./instructions/inst_prac_2/Slide11.png,right,1.8191752759739757,66.62630050702137,68.44547578299535,,,,,,,,,,,,,,,,,,,,,,,,,,,,,,,,,1,,,,,,,,,,,,,,,,,,,,,,,,,,,,,,,,,,,,,,,,,,,,,,100,148360,21,Female,1,2024/03/18_16:40:46,YZ,None,
7,./instructions/inst_prac_2/Slide12.png,right,0.9230914769868832,68.47443502501119,69.39752650199807,,,,,,,,,,,,,,,,,,,,,,,,,,,,,,,,,1,,,,,,,,,,,,,,,,,,,,,,,,,,,,,,,,,,,,,,,,,,,,,,100,148360,21,Female,1,2024/03/18_16:40:46,YZ,None,
8,./instructions/inst_prac_2/Slide13.png,right,1.026346560975071,69.42715653902269,70.45350309999776,,,,,,,,,,,,,,,,,,,,,,,,,,,,,,,,,1,,,,,,,,,,,,,,,,,,,,,,,,,,,,,,,,,,,,,,,,,,,,,,100,148360,21,Female,1,2024/03/18_16:40:46,YZ,None,
9,./instructions/inst_prac_2/Slide14.png,right,11.45881534300861,70.48280797200277,81.94162331501138,,,,,,,,,,,,,,,,,,,,,,,,,,,,,,,,,1,,,,,,,,,,,,,,,,,,,,,,,,,,,,,,,,,,,,,,,,,,,,,,100,148360,21,Female,1,2024/03/18_16:40:46,YZ,None,
10,./instructions/inst_prac_2/Slide15.png,right,9.010221234988421,81.97123204101808,90.9814532760065,,,,,,,,,,,,,,,,,,,,,,,,,,,,,,,,,1,,,,,,,,,,,,,,,,,,,,,,,,,,,,,,,,,,,,,,,,,,,,,,100,148360,21,Female,1,2024/03/18_16:40:46,YZ,None,
,,,,,,practice,0,30,2,2583,1,N,0,right,1.2815949050127529,1,0,,,,,,,,,,,,,,,,,,,,,1,,,,,,,,,,,,,,,,,,,,,,,,,,,,,,,,,,,,,,,,,,,,,,100,148360,21,Female,1,2024/03/18_16:40:46,YZ,None,
,,,,,,practice,0,30,2,2583,2,N,0,right,0.6897554490133189,1,0,,,,,,,,,,,,,,,,,,,,,1,,,,,,,,,,,,,,,,,,,,,,,,,,,,,,,,,,,,,,,,,,,,,,100,148360,21,Female,1,2024/03/18_16:40:46,YZ,None,
,,,,,,practice,0,30,2,2583,3,N,1,left,0.5589824760099873,1,0,,,,,,,,,,,,,,,,,,,,,1,,,,,,,,,,,,,,,,,,,,,,,,,,,,,,,,,,,,,,,,,,,,,,100,148360,21,Female,1,2024/03/18_16:40:46,YZ,None,
,,,,,,practice,0,30,2,2583,4,Q,0,right,0.6353657619911246,1,0,,,,,,,,,,,,,,,,,,,,,1,,,,,,,,,,,,,,,,,,,,,,,,,,,,,,,,,,,,,,,,,,,,,,100,148360,21,Female,1,2024/03/18_16:40:46,YZ,None,
,,,,,,practice,0,30,2,2583,5,N,1,left,0.5879777499940246,1,0,,,,,,,,,,,,,,,,,,,,,1,,,,,,,,,,,,,,,,,,,,,,,,,,,,,,,,,,,,,,,,,,,,,,100,148360,21,Female,1,2024/03/18_16:40:46,YZ,None,
,,,,,,practice,0,30,2,2583,6,J,0,right,0.4722807859943714,1,0,,,,,,,,,,,,,,,,,,,,,1,,,,,,,,,,,,,,,,,,,,,,,,,,,,,,,,,,,,,,,,,,,,,,100,148360,21,Female,1,2024/03/18_16:40:46,YZ,None,
,,,,,,practice,0,30,2,2583,,,,,,,,1.0,1.0,0.0,1.0,0.0,1.0,0.7043261880025966,2,0,0,0,0,4,6,2,4,0,,,,1,,,,,,,,,,,,,,,,,,,,,,,,,,,,,,,,,,,,,,,,,,,,,,100,148360,21,Female,1,2024/03/18_16:40:46,YZ,None,
1,./instructions/inst_to_cali/Slide20.png,right,2.700060012022732,101.56148178500007,104.2615417970228,,,,,,,,,,,,,,,,,,,,,,,,,,,,,,,,,1,,,,,,,,,,,,,,,,,,,,,,,,,,,,,,,,,,,,,,,,,,,,,,100,148360,21,Female,1,2024/03/18_16:40:46,YZ,None,
1,./instructions/inst_cali/Slide22.png,right,1.4545521549880505,104.29491369202151,105.74946584700956,,,,,,,,,,,,,,,,,,,,,,,,,,,,,,,,,1,,,,,,,,,,,,,,,,,,,,,,,,,,,,,,,,,,,,,,,,,,,,,,100,148360,21,Female,1,2024/03/18_16:40:46,YZ,None,
,,,,,,calibration,0,18,2,583,1,X,0,right,0.2989702859777026,1,0,,,,,,,,,,,,,,,,,,,,,1,,,,,,,,,,,,,,,,,,,,,,,,,,,,,,,,,,,,,,,,,,,,,,100,148360,21,Female,1,2024/03/18_16:40:46,YZ,None,
,,,,,,calibration,0,18,2,583,2,C,0,right,0.388176050997572,1,0,,,,,,,,,,,,,,,,,,,,,1,,,,,,,,,,,,,,,,,,,,,,,,,,,,,,,,,,,,,,,,,,,,,,100,148360,21,Female,1,2024/03/18_16:40:46,YZ,None,
,,,,,,calibration,0,18,2,583,3,S,0,right,0.3792757010087371,1,0,,,,,,,,,,,,,,,,,,,,,1,,,,,,,,,,,,,,,,,,,,,,,,,,,,,,,,,,,,,,,,,,,,,,100,148360,21,Female,1,2024/03/18_16:40:46,YZ,None,
,,,,,,calibration,0,18,2,583,4,V,0,right,0.3881245910015423,1,0,,,,,,,,,,,,,,,,,,,,,1,,,,,,,,,,,,,,,,,,,,,,,,,,,,,,,,,,,,,,,,,,,,,,100,148360,21,Female,1,2024/03/18_16:40:46,YZ,None,
,,,,,,calibration,0,18,2,583,5,X,0,left,0.732644456991693,0,0,,,,,,,,,,,,,,,,,,,,,1,,,,,,,,,,,,,,,,,,,,,,,,,,,,,,,,,,,,,,,,,,,,,,100,148360,21,Female,1,2024/03/18_16:40:46,YZ,None,
,,,,,,calibration,0,18,2,583,6,J,0,right,0.6323645340162329,1,0,,,,,,,,,,,,,,,,,,,,,1,,,,,,,,,,,,,,,,,,,,,,,,,,,,,,,,,,,,,,,,,,,,,,100,148360,21,Female,1,2024/03/18_16:40:46,YZ,None,
,,,,,,calibration,0,18,2,583,7,X,1,right,0.30818304198328406,0,0,,,,,,,,,,,,,,,,,,,,,1,,,,,,,,,,,,,,,,,,,,,,,,,,,,,,,,,,,,,,,,,,,,,,100,148360,21,Female,1,2024/03/18_16:40:46,YZ,None,
,,,,,,calibration,0,18,2,583,8,J,1,right,0.42601496999850497,0,0,,,,,,,,,,,,,,,,,,,,,1,,,,,,,,,,,,,,,,,,,,,,,,,,,,,,,,,,,,,,,,,,,,,,100,148360,21,Female,1,2024/03/18_16:40:46,YZ,None,
,,,,,,calibration,0,18,2,583,9,V,0,right,0.6915928809903562,1,0,,,,,,,,,,,,,,,,,,,,,1,,,,,,,,,,,,,,,,,,,,,,,,,,,,,,,,,,,,,,,,,,,,,,100,148360,21,Female,1,2024/03/18_16:40:46,YZ,None,
,,,,,,calibration,0,18,2,583,10,J,1,right,0.39827844098908827,0,0,,,,,,,,,,,,,,,,,,,,,1,,,,,,,,,,,,,,,,,,,,,,,,,,,,,,,,,,,,,,,,,,,,,,100,148360,21,Female,1,2024/03/18_16:40:46,YZ,None,
,,,,,,calibration,0,18,2,583,11,Q,0,right,0.8125869999930728,1,0,,,,,,,,,,,,,,,,,,,,,1,,,,,,,,,,,,,,,,,,,,,,,,,,,,,,,,,,,,,,,,,,,,,,100,148360,21,Female,1,2024/03/18_16:40:46,YZ,None,
,,,,,,calibration,0,18,2,583,12,F,0,left,0.4615797830047086,0,0,,,,,,,,,,,,,,,,,,,,,1,,,,,,,,,,,,,,,,,,,,,,,,,,,,,,,,,,,,,,,,,,,,,,100,148360,21,Female,1,2024/03/18_16:40:46,YZ,None,
,,,,,,calibration,0,18,2,583,13,Q,1,left,0.7006021029956173,1,0,,,,,,,,,,,,,,,,,,,,,1,,,,,,,,,,,,,,,,,,,,,,,,,,,,,,,,,,,,,,,,,,,,,,100,148360,21,Female,1,2024/03/18_16:40:46,YZ,None,
,,,,,,calibration,0,18,2,583,14,N,0,left,nan,0,1,,,,,,,,,,,,,,,,,,,,,1,,,,,,,,,,,,,,,,,,,,,,,,,,,,,,,,,,,,,,,,,,,,,,100,148360,21,Female,1,2024/03/18_16:40:46,YZ,None,
,,,,,,calibration,0,18,2,583,15,J,0,right,0.5417477489972953,1,0,,,,,,,,,,,,,,,,,,,,,1,,,,,,,,,,,,,,,,,,,,,,,,,,,,,,,,,,,,,,,,,,,,,,100,148360,21,Female,1,2024/03/18_16:40:46,YZ,None,
,,,,,,calibration,0,18,2,583,,,,,,,,0.5852272727272727,0.25,0.18181818181818182,0.8,0.06666666666666667,0.7515151515151515,0.5114386849246719,1,2,0,1,1,8,9,4,11,0,,,,1,,,,,,,,,,,,,,,,,,,,,,,,,,,,,,,,,,,,,,,,,,,,,,100,148360,21,Female,1,2024/03/18_16:40:46,YZ,None,
,,,,,,Calibration,0,,2,583,,,,,,,,,,,,,,,,,,,,,,,,,1,,,1,,,,,,,,,,,,,,,,,,,,,,,,,,,,,,,,,,,,,,,,,,,,,,100,148360,21,Female,1,2024/03/18_16:40:46,YZ,None,
,,,,,,calibration,0,19,2,679,1,V,0,right,1.7923364150046837,1,0,,,,,,,,,,,,,,,,,,,,,1,,,,,,,,,,,,,,,,,,,,,,,,,,,,,,,,,,,,,,,,,,,,,,100,148360,21,Female,1,2024/03/18_16:40:46,YZ,None,
,,,,,,calibration,0,19,2,679,2,C,0,right,0.601440874976106,1,0,,,,,,,,,,,,,,,,,,,,,1,,,,,,,,,,,,,,,,,,,,,,,,,,,,,,,,,,,,,,,,,,,,,,100,148360,21,Female,1,2024/03/18_16:40:46,YZ,None,
,,,,,,calibration,0,19,2,679,3,V,1,left,0.5124695769918617,1,0,,,,,,,,,,,,,,,,,,,,,1,,,,,,,,,,,,,,,,,,,,,,,,,,,,,,,,,,,,,,,,,,,,,,100,148360,21,Female,1,2024/03/18_16:40:46,YZ,None,
,,,,,,calibration,0,19,2,679,4,N,0,right,0.5239847260236274,1,0,,,,,,,,,,,,,,,,,,,,,1,,,,,,,,,,,,,,,,,,,,,,,,,,,,,,,,,,,,,,,,,,,,,,100,148360,21,Female,1,2024/03/18_16:40:46,YZ,None,
,,,,,,calibration,0,19,2,679,5,V,1,left,0.4212093220266979,1,0,,,,,,,,,,,,,,,,,,,,,1,,,,,,,,,,,,,,,,,,,,,,,,,,,,,,,,,,,,,,,,,,,,,,100,148360,21,Female,1,2024/03/18_16:40:46,YZ,None,
,,,,,,calibration,0,19,2,679,6,Q,0,right,0.664710251003271,1,0,,,,,,,,,,,,,,,,,,,,,1,,,,,,,,,,,,,,,,,,,,,,,,,,,,,,,,,,,,,,,,,,,,,,100,148360,21,Female,1,2024/03/18_16:40:46,YZ,None,
,,,,,,calibration,0,19,2,679,7,N,0,left,0.6643966539995745,0,0,,,,,,,,,,,,,,,,,,,,,1,,,,,,,,,,,,,,,,,,,,,,,,,,,,,,,,,,,,,,,,,,,,,,100,148360,21,Female,1,2024/03/18_16:40:46,YZ,None,
,,,,,,calibration,0,19,2,679,8,F,0,right,0.3986227129935287,1,0,,,,,,,,,,,,,,,,,,,,,1,,,,,,,,,,,,,,,,,,,,,,,,,,,,,,,,,,,,,,,,,,,,,,100,148360,21,Female,1,2024/03/18_16:40:46,YZ,None,
,,,,,,calibration,0,19,2,679,9,Q,0,left,0.4649135590007063,0,0,,,,,,,,,,,,,,,,,,,,,1,,,,,,,,,,,,,,,,,,,,,,,,,,,,,,,,,,,,,,,,,,,,,,100,148360,21,Female,1,2024/03/18_16:40:46,YZ,None,
,,,,,,calibration,0,19,2,679,10,X,0,left,0.6824446599930525,0,0,,,,,,,,,,,,,,,,,,,,,1,,,,,,,,,,,,,,,,,,,,,,,,,,,,,,,,,,,,,,,,,,,,,,100,148360,21,Female,1,2024/03/18_16:40:46,YZ,None,
,,,,,,calibration,0,19,2,679,11,J,0,right,0.5745352869853377,1,0,,,,,,,,,,,,,,,,,,,,,1,,,,,,,,,,,,,,,,,,,,,,,,,,,,,,,,,,,,,,,,,,,,,,100,148360,21,Female,1,2024/03/18_16:40:46,YZ,None,
,,,,,,calibration,0,19,2,679,12,X,1,left,0.5125462989963125,1,0,,,,,,,,,,,,,,,,,,,,,1,,,,,,,,,,,,,,,,,,,,,,,,,,,,,,,,,,,,,,,,,,,,,,100,148360,21,Female,1,2024/03/18_16:40:46,YZ,None,
,,,,,,calibration,0,19,2,679,13,S,0,right,0.4314825219917111,1,0,,,,,,,,,,,,,,,,,,,,,1,,,,,,,,,,,,,,,,,,,,,,,,,,,,,,,,,,,,,,,,,,,,,,100,148360,21,Female,1,2024/03/18_16:40:46,YZ,None,
,,,,,,calibration,0,19,2,679,14,X,1,left,0.5359135570179205,1,0,,,,,,,,,,,,,,,,,,,,,1,,,,,,,,,,,,,,,,,,,,,,,,,,,,,,,,,,,,,,,,,,,,,,100,148360,21,Female,1,2024/03/18_16:40:46,YZ,None,
,,,,,,calibration,0,19,2,679,,,,,,,,0.925,1.0,0.3,0.7,0.0,0.7,0.6272147440717423,4,3,0,0,0,7,11,4,10,0,,,,1,,,,,,,,,,,,,,,,,,,,,,,,,,,,,,,,,,,,,,,,,,,,,,100,148360,21,Female,1,2024/03/18_16:40:46,YZ,None,
,,,,,,Calibration,0,,2,679,,,,,,,,,,,,,,,,,,,,,,,,,2,,,1,,,,,,,,,,,,,,,,,,,,,,,,,,,,,,,,,,,,,,,,,,,,,,100,148360,21,Female,1,2024/03/18_16:40:46,YZ,None,
,,,,,,calibration,0,33,2,583,1,V,0,right,0.6646133990143426,1,0,,,,,,,,,,,,,,,,,,,,,1,,,,,,,,,,,,,,,,,,,,,,,,,,,,,,,,,,,,,,,,,,,,,,100,148360,21,Female,1,2024/03/18_16:40:46,YZ,None,
,,,,,,calibration,0,33,2,583,2,Q,0,right,0.4053498700086493,1,0,,,,,,,,,,,,,,,,,,,,,1,,,,,,,,,,,,,,,,,,,,,,,,,,,,,,,,,,,,,,,,,,,,,,100,148360,21,Female,1,2024/03/18_16:40:46,YZ,None,
,,,,,,calibration,0,33,2,583,3,C,0,left,0.4325901299889665,0,0,,,,,,,,,,,,,,,,,,,,,1,,,,,,,,,,,,,,,,,,,,,,,,,,,,,,,,,,,,,,,,,,,,,,100,148360,21,Female,1,2024/03/18_16:40:46,YZ,None,
,,,,,,calibration,0,33,2,583,4,Q,1,right,0.00043204601388424635,0,0,,,,,,,,,,,,,,,,,,,,,1,,,,,,,,,,,,,,,,,,,,,,,,,,,,,,,,,,,,,,,,,,,,,,100,148360,21,Female,1,2024/03/18_16:40:46,YZ,None,
,,,,,,calibration,0,33,2,583,5,F,0,right,1.556390445010038,1,0,,,,,,,,,,,,,,,,,,,,,1,,,,,,,,,,,,,,,,,,,,,,,,,,,,,,,,,,,,,,,,,,,,,,100,148360,21,Female,1,2024/03/18_16:40:46,YZ,None,
,,,,,,calibration,0,33,2,583,6,X,0,right,1.509413913008757,1,0,,,,,,,,,,,,,,,,,,,,,1,,,,,,,,,,,,,,,,,,,,,,,,,,,,,,,,,,,,,,,,,,,,,,100,148360,21,Female,1,2024/03/18_16:40:46,YZ,None,
,,,,,,calibration,0,33,2,583,7,F,1,right,0.7075184669811279,0,0,,,,,,,,,,,,,,,,,,,,,1,,,,,,,,,,,,,,,,,,,,,,,,,,,,,,,,,,,,,,,,,,,,,,100,148360,21,Female,1,2024/03/18_16:40:46,YZ,None,
,,,,,,calibration,0,33,2,583,8,C,0,right,0.6982609429978766,1,0,,,,,,,,,,,,,,,,,,,,,1,,,,,,,,,,,,,,,,,,,,,,,,,,,,,,,,,,,,,,,,,,,,,,100,148360,21,Female,1,2024/03/18_16:40:46,YZ,None,
,,,,,,calibration,0,33,2,583,9,X,0,right,0.647529502020916,1,0,,,,,,,,,,,,,,,,,,,,,1,,,,,,,,,,,,,,,,,,,,,,,,,,,,,,,,,,,,,,,,,,,,,,100,148360,21,Female,1,2024/03/18_16:40:46,YZ,None,
,,,,,,calibration,0,33,2,583,10,Q,0,right,0.6822848260053433,1,0,,,,,,,,,,,,,,,,,,,,,1,,,,,,,,,,,,,,,,,,,,,,,,,,,,,,,,,,,,,,,,,,,,,,100,148360,21,Female,1,2024/03/18_16:40:46,YZ,None,
,,,,,,calibration,0,33,2,583,11,V,0,right,0.6317213159927633,1,0,,,,,,,,,,,,,,,,,,,,,1,,,,,,,,,,,,,,,,,,,,,,,,,,,,,,,,,,,,,,,,,,,,,,100,148360,21,Female,1,2024/03/18_16:40:46,YZ,None,
,,,,,,calibration,0,33,2,583,12,F,0,right,0.5582195020106155,1,0,,,,,,,,,,,,,,,,,,,,,1,,,,,,,,,,,,,,,,,,,,,,,,,,,,,,,,,,,,,,,,,,,,,,100,148360,21,Female,1,2024/03/18_16:40:46,YZ,None,
,,,,,,calibration,0,33,2,583,13,V,1,left,0.5951624499866739,1,0,,,,,,,,,,,,,,,,,,,,,1,,,,,,,,,,,,,,,,,,,,,,,,,,,,,,,,,,,,,,,,,,,,,,100,148360,21,Female,1,2024/03/18_16:40:46,YZ,None,
,,,,,,calibration,0,33,2,583,14,J,0,right,0.45045790399308316,1,0,,,,,,,,,,,,,,,,,,,,,1,,,,,,,,,,,,,,,,,,,,,,,,,,,,,,,,,,,,,,,,,,,,,,100,148360,21,Female,1,2024/03/18_16:40:46,YZ,None,
,,,,,,calibration,0,33,2,583,15,V,1,left,0.4420157870044932,1,0,,,,,,,,,,,,,,,,,,,,,1,,,,,,,,,,,,,,,,,,,,,,,,,,,,,,,,,,,,,,,,,,,,,,100,148360,21,Female,1,2024/03/18_16:40:46,YZ,None,
,,,,,,calibration,0,33,2,583,,,,,,,,0.8068181818181819,0.5,0.09090909090909091,0.9090909090909091,0.0,0.9090909090909091,0.6654640333358354,2,1,0,0,0,10,12,4,11,0,,,,1,,,,,,,,,,,,,,,,,,,,,,,,,,,,,,,,,,,,,,,,,,,,,,100,148360,21,Female,1,2024/03/18_16:40:46,YZ,None,
,,,,,,Calibration,0,,2,583,,,,,,,,,,,,,,,,,,,,,,,,,3,,,1,,,,,,,,,,,,,,,,,,,,,,,,,,,,,,,,,,,,,,,,,,,,,,100,148360,21,Female,1,2024/03/18_16:40:46,YZ,None,
,,,,,,calibration,0,25,2,583,1,N,0,right,0.6450480920029804,1,0,,,,,,,,,,,,,,,,,,,,,1,,,,,,,,,,,,,,,,,,,,,,,,,,,,,,,,,,,,,,,,,,,,,,100,148360,21,Female,1,2024/03/18_16:40:46,YZ,None,
,,,,,,calibration,0,25,2,583,2,X,0,right,0.30042277200846,1,0,,,,,,,,,,,,,,,,,,,,,1,,,,,,,,,,,,,,,,,,,,,,,,,,,,,,,,,,,,,,,,,,,,,,100,148360,21,Female,1,2024/03/18_16:40:46,YZ,None,
,,,,,,calibration,0,25,2,583,3,S,0,right,0.5644134549947921,1,0,,,,,,,,,,,,,,,,,,,,,1,,,,,,,,,,,,,,,,,,,,,,,,,,,,,,,,,,,,,,,,,,,,,,100,148360,21,Female,1,2024/03/18_16:40:46,YZ,None,
,,,,,,calibration,0,25,2,583,4,V,0,right,0.8688481310091447,1,0,,,,,,,,,,,,,,,,,,,,,1,,,,,,,,,,,,,,,,,,,,,,,,,,,,,,,,,,,,,,,,,,,,,,100,148360,21,Female,1,2024/03/18_16:40:46,YZ,None,
,,,,,,calibration,0,25,2,583,5,C,0,right,0.6592358019843232,1,0,,,,,,,,,,,,,,,,,,,,,1,,,,,,,,,,,,,,,,,,,,,,,,,,,,,,,,,,,,,,,,,,,,,,100,148360,21,Female,1,2024/03/18_16:40:46,YZ,None,
,,,,,,calibration,0,25,2,583,6,X,0,left,0.5803444490011316,0,0,,,,,,,,,,,,,,,,,,,,,1,,,,,,,,,,,,,,,,,,,,,,,,,,,,,,,,,,,,,,,,,,,,,,100,148360,21,Female,1,2024/03/18_16:40:46,YZ,None,
,,,,,,calibration,0,25,2,583,7,F,0,right,0.44674544798908755,1,0,,,,,,,,,,,,,,,,,,,,,1,,,,,,,,,,,,,,,,,,,,,,,,,,,,,,,,,,,,,,,,,,,,,,100,148360,21,Female,1,2024/03/18_16:40:46,YZ,None,
,,,,,,calibration,0,25,2,583,8,V,0,right,0.604328640998574,1,0,,,,,,,,,,,,,,,,,,,,,1,,,,,,,,,,,,,,,,,,,,,,,,,,,,,,,,,,,,,,,,,,,,,,100,148360,21,Female,1,2024/03/18_16:40:46,YZ,None,
,,,,,,calibration,0,25,2,583,9,J,0,right,0.4863525300170295,1,0,,,,,,,,,,,,,,,,,,,,,1,,,,,,,,,,,,,,,,,,,,,,,,,,,,,,,,,,,,,,,,,,,,,,100,148360,21,Female,1,2024/03/18_16:40:46,YZ,None,
,,,,,,calibration,0,25,2,583,10,Q,0,right,0.6153930110158399,1,0,,,,,,,,,,,,,,,,,,,,,1,,,,,,,,,,,,,,,,,,,,,,,,,,,,,,,,,,,,,,,,,,,,,,100,148360,21,Female,1,2024/03/18_16:40:46,YZ,None,
,,,,,,calibration,0,25,2,583,11,J,1,left,0.5756317939958535,1,0,,,,,,,,,,,,,,,,,,,,,1,,,,,,,,,,,,,,,,,,,,,,,,,,,,,,,,,,,,,,,,,,,,,,100,148360,21,Female,1,2024/03/18_16:40:46,YZ,None,
,,,,,,calibration,0,25,2,583,12,Q,1,right,0.47795886697713286,0,0,,,,,,,,,,,,,,,,,,,,,1,,,,,,,,,,,,,,,,,,,,,,,,,,,,,,,,,,,,,,,,,,,,,,100,148360,21,Female,1,2024/03/18_16:40:46,YZ,None,
,,,,,,calibration,0,25,2,583,13,X,0,right,0.6631109239824582,1,0,,,,,,,,,,,,,,,,,,,,,1,,,,,,,,,,,,,,,,,,,,,,,,,,,,,,,,,,,,,,,,,,,,,,100,148360,21,Female,1,2024/03/18_16:40:46,YZ,None,
,,,,,,calibration,0,25,2,583,14,Q,1,left,0.44805507399723865,1,0,,,,,,,,,,,,,,,,,,,,,1,,,,,,,,,,,,,,,,,,,,,,,,,,,,,,,,,,,,,,,,,,,,,,100,148360,21,Female,1,2024/03/18_16:40:46,YZ,None,
,,,,,,calibration,0,25,2,583,15,X,1,left,0.6285676250117831,1,0,,,,,,,,,,,,,,,,,,,,,1,,,,,,,,,,,,,,,,,,,,,,,,,,,,,,,,,,,,,,,,,,,,,,100,148360,21,Female,1,2024/03/18_16:40:46,YZ,None,
,,,,,,calibration,0,25,2,583,,,,,,,,0.8920454545454546,0.75,0.09090909090909091,0.9090909090909091,0.0,0.9090909090909091,0.5709637743323887,3,1,0,0,0,10,13,4,11,0,,,,1,,,,,,,,,,,,,,,,,,,,,,,,,,,,,,,,,,,,,,,,,,,,,,100,148360,21,Female,1,2024/03/18_16:40:46,YZ,None,
,,,,,,Calibration,0,,2,583,,,,,,,,,,,,,,,,,,,,,,,,,4,,,1,,,,,,,,,,,,,,,,,,,,,,,,,,,,,,,,,,,,,,,,,,,,,,100,148360,21,Female,1,2024/03/18_16:40:46,YZ,None,
,,,,,,calibration,0,22,2,500,1,X,0,right,0.7602318309945986,1,0,,,,,,,,,,,,,,,,,,,,,1,,,,,,,,,,,,,,,,,,,,,,,,,,,,,,,,,,,,,,,,,,,,,,100,148360,21,Female,1,2024/03/18_16:40:46,YZ,None,
,,,,,,calibration,0,22,2,500,2,N,0,right,0.4202388279954903,1,0,,,,,,,,,,,,,,,,,,,,,1,,,,,,,,,,,,,,,,,,,,,,,,,,,,,,,,,,,,,,,,,,,,,,100,148360,21,Female,1,2024/03/18_16:40:46,YZ,None,
,,,,,,calibration,0,22,2,500,3,X,1,left,0.48162532501737587,1,0,,,,,,,,,,,,,,,,,,,,,1,,,,,,,,,,,,,,,,,,,,,,,,,,,,,,,,,,,,,,,,,,,,,,100,148360,21,Female,1,2024/03/18_16:40:46,YZ,None,
,,,,,,calibration,0,22,2,500,4,N,1,left,0.362377112993272,1,0,,,,,,,,,,,,,,,,,,,,,1,,,,,,,,,,,,,,,,,,,,,,,,,,,,,,,,,,,,,,,,,,,,,,100,148360,21,Female,1,2024/03/18_16:40:46,YZ,None,
,,,,,,calibration,0,22,2,500,5,C,0,right,0.3994822819950059,1,0,,,,,,,,,,,,,,,,,,,,,1,,,,,,,,,,,,,,,,,,,,,,,,,,,,,,,,,,,,,,,,,,,,,,100,148360,21,Female,1,2024/03/18_16:40:46,YZ,None,
,,,,,,calibration,0,22,2,500,6,S,0,right,0.4924881510087289,1,0,,,,,,,,,,,,,,,,,,,,,1,,,,,,,,,,,,,,,,,,,,,,,,,,,,,,,,,,,,,,,,,,,,,,100,148360,21,Female,1,2024/03/18_16:40:46,YZ,None,
,,,,,,calibration,0,22,2,500,7,J,0,right,0.573181393003324,1,0,,,,,,,,,,,,,,,,,,,,,1,,,,,,,,,,,,,,,,,,,,,,,,,,,,,,,,,,,,,,,,,,,,,,100,148360,21,Female,1,2024/03/18_16:40:46,YZ,None,
,,,,,,calibration,0,22,2,500,8,S,1,left,0.48683916399022564,1,0,,,,,,,,,,,,,,,,,,,,,1,,,,,,,,,,,,,,,,,,,,,,,,,,,,,,,,,,,,,,,,,,,,,,100,148360,21,Female,1,2024/03/18_16:40:46,YZ,None,
,,,,,,calibration,0,22,2,500,9,Q,0,right,0.48878444099682383,1,0,,,,,,,,,,,,,,,,,,,,,1,,,,,,,,,,,,,,,,,,,,,,,,,,,,,,,,,,,,,,,,,,,,,,100,148360,21,Female,1,2024/03/18_16:40:46,YZ,None,
,,,,,,calibration,0,22,2,500,10,F,0,right,0.6162953400053084,1,0,,,,,,,,,,,,,,,,,,,,,1,,,,,,,,,,,,,,,,,,,,,,,,,,,,,,,,,,,,,,,,,,,,,,100,148360,21,Female,1,2024/03/18_16:40:46,YZ,None,
,,,,,,calibration,0,22,2,500,11,S,0,left,0.47183843099628575,0,0,,,,,,,,,,,,,,,,,,,,,1,,,,,,,,,,,,,,,,,,,,,,,,,,,,,,,,,,,,,,,,,,,,,,100,148360,21,Female,1,2024/03/18_16:40:46,YZ,None,
,,,,,,calibration,0,22,2,500,12,C,0,right,0.4320949010143522,1,0,,,,,,,,,,,,,,,,,,,,,1,,,,,,,,,,,,,,,,,,,,,,,,,,,,,,,,,,,,,,,,,,,,,,100,148360,21,Female,1,2024/03/18_16:40:46,YZ,None,
,,,,,,calibration,0,22,2,500,13,N,0,right,0.4988524399814196,1,0,,,,,,,,,,,,,,,,,,,,,1,,,,,,,,,,,,,,,,,,,,,,,,,,,,,,,,,,,,,,,,,,,,,,100,148360,21,Female,1,2024/03/18_16:40:46,YZ,None,
,,,,,,calibration,0,22,2,500,14,C,1,left,0.5839710269938223,1,0,,,,,,,,,,,,,,,,,,,,,1,,,,,,,,,,,,,,,,,,,,,,,,,,,,,,,,,,,,,,,,,,,,,,100,148360,21,Female,1,2024/03/18_16:40:46,YZ,None,
,,,,,,calibration,0,22,2,500,15,Q,0,right,0.56435380000039,1,0,,,,,,,,,,,,,,,,,,,,,1,,,,,,,,,,,,,,,,,,,,,,,,,,,,,,,,,,,,,,,,,,,,,,100,148360,21,Female,1,2024/03/18_16:40:46,YZ,None,
,,,,,,calibration,0,22,2,500,16,F,0,right,0.4590661140100565,1,0,,,,,,,,,,,,,,,,,,,,,1,,,,,,,,,,,,,,,,,,,,,,,,,,,,,,,,,,,,,,,,,,,,,,100,148360,21,Female,1,2024/03/18_16:40:46,YZ,None,
,,,,,,calibration,0,22,2,500,,,,,,,,0.9791666666666666,1.0,0.08333333333333333,0.9166666666666666,0.0,0.9166666666666666,0.50573253631228,4,1,0,0,0,11,15,4,12,0,,,,1,,,,,,,,,,,,,,,,,,,,,,,,,,,,,,,,,,,,,,,,,,,,,,100,148360,21,Female,1,2024/03/18_16:40:46,YZ,None,
,,,,,,Calibration,0,,2,500,,,,,,,,,,,,,,,,,,,,,,,,,5,,,1,,,,,,,,,,,,,,,,,,,,,,,,,,,,,,,,,,,,,,,,,,,,,,100,148360,21,Female,1,2024/03/18_16:40:46,YZ,None,
,,,,,,calibration,0,23,2,426,1,S,0,right,0.33697406100691296,1,0,,,,,,,,,,,,,,,,,,,,,1,,,,,,,,,,,,,,,,,,,,,,,,,,,,,,,,,,,,,,,,,,,,,,100,148360,21,Female,1,2024/03/18_16:40:46,YZ,None,
,,,,,,calibration,0,23,2,426,2,S,0,right,0.39306735998252407,1,0,,,,,,,,,,,,,,,,,,,,,1,,,,,,,,,,,,,,,,,,,,,,,,,,,,,,,,,,,,,,,,,,,,,,100,148360,21,Female,1,2024/03/18_16:40:46,YZ,None,
,,,,,,calibration,0,23,2,426,3,Q,0,right,0.5118786040111445,1,0,,,,,,,,,,,,,,,,,,,,,1,,,,,,,,,,,,,,,,,,,,,,,,,,,,,,,,,,,,,,,,,,,,,,100,148360,21,Female,1,2024/03/18_16:40:46,YZ,None,
,,,,,,calibration,0,23,2,426,4,F,0,right,0.5127766490040813,1,0,,,,,,,,,,,,,,,,,,,,,1,,,,,,,,,,,,,,,,,,,,,,,,,,,,,,,,,,,,,,,,,,,,,,100,148360,21,Female,1,2024/03/18_16:40:46,YZ,None,
,,,,,,calibration,0,23,2,426,5,Q,1,left,0.38984671799698845,1,0,,,,,,,,,,,,,,,,,,,,,1,,,,,,,,,,,,,,,,,,,,,,,,,,,,,,,,,,,,,,,,,,,,,,100,148360,21,Female,1,2024/03/18_16:40:46,YZ,None,
,,,,,,calibration,0,23,2,426,6,F,1,left,0.5585496139829047,1,0,,,,,,,,,,,,,,,,,,,,,1,,,,,,,,,,,,,,,,,,,,,,,,,,,,,,,,,,,,,,,,,,,,,,100,148360,21,Female,1,2024/03/18_16:40:46,YZ,None,
,,,,,,calibration,0,23,2,426,7,N,0,right,0.471528613998089,1,0,,,,,,,,,,,,,,,,,,,,,1,,,,,,,,,,,,,,,,,,,,,,,,,,,,,,,,,,,,,,,,,,,,,,100,148360,21,Female,1,2024/03/18_16:40:46,YZ,None,
,,,,,,calibration,0,23,2,426,8,F,1,right,0.6083216909901239,0,0,,,,,,,,,,,,,,,,,,,,,1,,,,,,,,,,,,,,,,,,,,,,,,,,,,,,,,,,,,,,,,,,,,,,100,148360,21,Female,1,2024/03/18_16:40:46,YZ,None,
,,,,,,calibration,0,23,2,426,9,N,1,right,0.6236222909938078,0,0,,,,,,,,,,,,,,,,,,,,,1,,,,,,,,,,,,,,,,,,,,,,,,,,,,,,,,,,,,,,,,,,,,,,100,148360,21,Female,1,2024/03/18_16:40:46,YZ,None,
,,,,,,calibration,0,23,2,426,10,C,0,right,0.6285540899843909,1,0,,,,,,,,,,,,,,,,,,,,,1,,,,,,,,,,,,,,,,,,,,,,,,,,,,,,,,,,,,,,,,,,,,,,100,148360,21,Female,1,2024/03/18_16:40:46,YZ,None,
,,,,,,calibration,0,23,2,426,11,J,0,right,0.6412212010181975,1,0,,,,,,,,,,,,,,,,,,,,,1,,,,,,,,,,,,,,,,,,,,,,,,,,,,,,,,,,,,,,,,,,,,,,100,148360,21,Female,1,2024/03/18_16:40:46,YZ,None,
,,,,,,calibration,0,23,2,426,12,N,0,left,0.4520090150181204,0,0,,,,,,,,,,,,,,,,,,,,,1,,,,,,,,,,,,,,,,,,,,,,,,,,,,,,,,,,,,,,,,,,,,,,100,148360,21,Female,1,2024/03/18_16:40:46,YZ,None,
,,,,,,calibration,0,23,2,426,13,S,0,right,0.49707946498529054,1,0,,,,,,,,,,,,,,,,,,,,,1,,,,,,,,,,,,,,,,,,,,,,,,,,,,,,,,,,,,,,,,,,,,,,100,148360,21,Female,1,2024/03/18_16:40:46,YZ,None,
,,,,,,calibration,0,23,2,426,14,F,0,right,0.5902244430035353,1,0,,,,,,,,,,,,,,,,,,,,,1,,,,,,,,,,,,,,,,,,,,,,,,,,,,,,,,,,,,,,,,,,,,,,100,148360,21,Female,1,2024/03/18_16:40:46,YZ,None,
,,,,,,calibration,0,23,2,426,15,S,1,left,0.512328687007539,1,0,,,,,,,,,,,,,,,,,,,,,1,,,,,,,,,,,,,,,,,,,,,,,,,,,,,,,,,,,,,,,,,,,,,,100,148360,21,Female,1,2024/03/18_16:40:46,YZ,None,
,,,,,,calibration,0,23,2,426,16,J,0,right,0.45413706498220563,1,0,,,,,,,,,,,,,,,,,,,,,1,,,,,,,,,,,,,,,,,,,,,,,,,,,,,,,,,,,,,,,,,,,,,,100,148360,21,Female,1,2024/03/18_16:40:46,YZ,None,
,,,,,,calibration,0,23,2,426,17,C,0,left,0.479458858986618,0,0,,,,,,,,,,,,,,,,,,,,,1,,,,,,,,,,,,,,,,,,,,,,,,,,,,,,,,,,,,,,,,,,,,,,100,148360,21,Female,1,2024/03/18_16:40:46,YZ,None,
,,,,,,calibration,0,23,2,426,,,,,,,,0.7916666666666667,0.6,0.16666666666666666,0.8333333333333334,0.0,0.8333333333333334,0.5095046133501455,3,2,0,0,0,10,13,5,12,0,,,,1,,,,,,,,,,,,,,,,,,,,,,,,,,,,,,,,,,,,,,,,,,,,,,100,148360,21,Female,1,2024/03/18_16:40:46,YZ,None,
,,,,,,Calibration,0,,2,426,,,,,,,,,,,,,,,,,,,,,,,,,6,,,1,,,,,,,,,,,,,,,,,,,,,,,,,,,,,,,,,,,,,,,,,,,,,,100,148360,21,Female,1,2024/03/18_16:40:46,YZ,None,
,,,,,,calibration,0,14,2,426,1,F,0,right,0.543423947005067,1,0,,,,,,,,,,,,,,,,,,,,,1,,,,,,,,,,,,,,,,,,,,,,,,,,,,,,,,,,,,,,,,,,,,,,100,148360,21,Female,1,2024/03/18_16:40:46,YZ,None,
,,,,,,calibration,0,14,2,426,2,C,0,right,0.4453532419865951,1,0,,,,,,,,,,,,,,,,,,,,,1,,,,,,,,,,,,,,,,,,,,,,,,,,,,,,,,,,,,,,,,,,,,,,100,148360,21,Female,1,2024/03/18_16:40:46,YZ,None,
,,,,,,calibration,0,14,2,426,3,X,0,right,0.49597572899074294,1,0,,,,,,,,,,,,,,,,,,,,,1,,,,,,,,,,,,,,,,,,,,,,,,,,,,,,,,,,,,,,,,,,,,,,100,148360,21,Female,1,2024/03/18_16:40:46,YZ,None,
,,,,,,calibration,0,14,2,426,4,C,1,left,0.5986883240111638,1,0,,,,,,,,,,,,,,,,,,,,,1,,,,,,,,,,,,,,,,,,,,,,,,,,,,,,,,,,,,,,,,,,,,,,100,148360,21,Female,1,2024/03/18_16:40:46,YZ,None,
,,,,,,calibration,0,14,2,426,5,F,0,left,0.7082170950016007,0,0,,,,,,,,,,,,,,,,,,,,,1,,,,,,,,,,,,,,,,,,,,,,,,,,,,,,,,,,,,,,,,,,,,,,100,148360,21,Female,1,2024/03/18_16:40:46,YZ,None,
,,,,,,calibration,0,14,2,426,6,C,1,left,0.6755026659811847,1,0,,,,,,,,,,,,,,,,,,,,,1,,,,,,,,,,,,,,,,,,,,,,,,,,,,,,,,,,,,,,,,,,,,,,100,148360,21,Female,1,2024/03/18_16:40:46,YZ,None,
,,,,,,calibration,0,14,2,426,7,N,0,right,0.4871631139831152,1,0,,,,,,,,,,,,,,,,,,,,,1,,,,,,,,,,,,,,,,,,,,,,,,,,,,,,,,,,,,,,,,,,,,,,100,148360,21,Female,1,2024/03/18_16:40:46,YZ,None,
,,,,,,calibration,0,14,2,426,8,C,1,left,0.51217420399189,1,0,,,,,,,,,,,,,,,,,,,,,1,,,,,,,,,,,,,,,,,,,,,,,,,,,,,,,,,,,,,,,,,,,,,,100,148360,21,Female,1,2024/03/18_16:40:46,YZ,None,
,,,,,,calibration,0,14,2,426,9,F,0,right,0.45954027998959646,1,0,,,,,,,,,,,,,,,,,,,,,1,,,,,,,,,,,,,,,,,,,,,,,,,,,,,,,,,,,,,,,,,,,,,,100,148360,21,Female,1,2024/03/18_16:40:46,YZ,None,
,,,,,,calibration,0,14,2,426,10,V,0,right,0.9241718430130277,1,0,,,,,,,,,,,,,,,,,,,,,1,,,,,,,,,,,,,,,,,,,,,,,,,,,,,,,,,,,,,,,,,,,,,,100,148360,21,Female,1,2024/03/18_16:40:46,YZ,None,
,,,,,,calibration,0,14,2,426,11,J,0,right,0.6193385180085897,1,0,,,,,,,,,,,,,,,,,,,,,1,,,,,,,,,,,,,,,,,,,,,,,,,,,,,,,,,,,,,,,,,,,,,,100,148360,21,Female,1,2024/03/18_16:40:46,YZ,None,
,,,,,,calibration,0,14,2,426,12,V,1,left,0.5128047179896384,1,0,,,,,,,,,,,,,,,,,,,,,1,,,,,,,,,,,,,,,,,,,,,,,,,,,,,,,,,,,,,,,,,,,,,,100,148360,21,Female,1,2024/03/18_16:40:46,YZ,None,
,,,,,,calibration,0,14,2,426,13,J,1,left,0.5757352549990173,1,0,,,,,,,,,,,,,,,,,,,,,1,,,,,,,,,,,,,,,,,,,,,,,,,,,,,,,,,,,,,,,,,,,,,,100,148360,21,Female,1,2024/03/18_16:40:46,YZ,None,
,,,,,,calibration,0,14,2,426,14,X,0,right,0.4834382289845962,1,0,,,,,,,,,,,,,,,,,,,,,1,,,,,,,,,,,,,,,,,,,,,,,,,,,,,,,,,,,,,,,,,,,,,,100,148360,21,Female,1,2024/03/18_16:40:46,YZ,None,
,,,,,,calibration,0,14,2,426,15,S,0,right,0.591607997979736,1,0,,,,,,,,,,,,,,,,,,,,,1,,,,,,,,,,,,,,,,,,,,,,,,,,,,,,,,,,,,,,,,,,,,,,100,148360,21,Female,1,2024/03/18_16:40:46,YZ,None,
,,,,,,calibration,0,14,2,426,16,J,0,right,0.7029520770011004,1,0,,,,,,,,,,,,,,,,,,,,,1,,,,,,,,,,,,,,,,,,,,,,,,,,,,,,,,,,,,,,,,,,,,,,100,148360,21,Female,1,2024/03/18_16:40:46,YZ,None,
,,,,,,calibration,0,14,2,426,17,C,0,left,0.4543708059936762,0,0,,,,,,,,,,,,,,,,,,,,,1,,,,,,,,,,,,,,,,,,,,,,,,,,,,,,,,,,,,,,,,,,,,,,100,148360,21,Female,1,2024/03/18_16:40:46,YZ,None,
,,,,,,calibration,0,14,2,426,,,,,,,,0.9583333333333334,1.0,0.16666666666666666,0.8333333333333334,0.0,0.8333333333333334,0.5759092967594316,5,2,0,0,0,10,15,5,12,0,,,,1,,,,,,,,,,,,,,,,,,,,,,,,,,,,,,,,,,,,,,,,,,,,,,100,148360,21,Female,1,2024/03/18_16:40:46,YZ,None,
,,,,,,Calibration,0,,2,426,,,,,,,,,,,,,,,,,,,,,,,,,7,,,1,,,,,,,,,,,,,,,,,,,,,,,,,,,,,,,,,,,,,,,,,,,,,,100,148360,21,Female,1,2024/03/18_16:40:46,YZ,None,
,,,,,,calibration,0,16,2,361,1,X,0,right,0.4780911499983631,1,0,,,,,,,,,,,,,,,,,,,,,1,,,,,,,,,,,,,,,,,,,,,,,,,,,,,,,,,,,,,,,,,,,,,,100,148360,21,Female,1,2024/03/18_16:40:46,YZ,None,
,,,,,,calibration,0,16,2,361,2,V,0,right,0.5808188119844999,1,0,,,,,,,,,,,,,,,,,,,,,1,,,,,,,,,,,,,,,,,,,,,,,,,,,,,,,,,,,,,,,,,,,,,,100,148360,21,Female,1,2024/03/18_16:40:46,YZ,None,
,,,,,,calibration,0,16,2,361,3,X,1,left,0.49102633600705303,1,0,,,,,,,,,,,,,,,,,,,,,1,,,,,,,,,,,,,,,,,,,,,,,,,,,,,,,,,,,,,,,,,,,,,,100,148360,21,Female,1,2024/03/18_16:40:46,YZ,None,
,,,,,,calibration,0,16,2,361,4,S,0,right,0.4651852330134716,1,0,,,,,,,,,,,,,,,,,,,,,1,,,,,,,,,,,,,,,,,,,,,,,,,,,,,,,,,,,,,,,,,,,,,,100,148360,21,Female,1,2024/03/18_16:40:46,YZ,None,
,,,,,,calibration,0,16,2,361,5,X,1,left,0.5252289019990712,1,0,,,,,,,,,,,,,,,,,,,,,1,,,,,,,,,,,,,,,,,,,,,,,,,,,,,,,,,,,,,,,,,,,,,,100,148360,21,Female,1,2024/03/18_16:40:46,YZ,None,
,,,,,,calibration,0,16,2,361,6,J,0,right,0.486022316996241,1,0,,,,,,,,,,,,,,,,,,,,,1,,,,,,,,,,,,,,,,,,,,,,,,,,,,,,,,,,,,,,,,,,,,,,100,148360,21,Female,1,2024/03/18_16:40:46,YZ,None,
,,,,,,calibration,0,16,2,361,7,C,0,right,0.47178462499869056,1,0,,,,,,,,,,,,,,,,,,,,,1,,,,,,,,,,,,,,,,,,,,,,,,,,,,,,,,,,,,,,,,,,,,,,100,148360,21,Female,1,2024/03/18_16:40:46,YZ,None,
,,,,,,calibration,0,16,2,361,8,V,0,left,0.6857447549991775,0,0,,,,,,,,,,,,,,,,,,,,,1,,,,,,,,,,,,,,,,,,,,,,,,,,,,,,,,,,,,,,,,,,,,,,100,148360,21,Female,1,2024/03/18_16:40:46,YZ,None,
,,,,,,calibration,0,16,2,361,9,S,0,left,0.5980515510018449,0,0,,,,,,,,,,,,,,,,,,,,,1,,,,,,,,,,,,,,,,,,,,,,,,,,,,,,,,,,,,,,,,,,,,,,100,148360,21,Female,1,2024/03/18_16:40:46,YZ,None,
,,,,,,calibration,0,16,2,361,10,C,0,left,0.5572326940018684,0,0,,,,,,,,,,,,,,,,,,,,,1,,,,,,,,,,,,,,,,,,,,,,,,,,,,,,,,,,,,,,,,,,,,,,100,148360,21,Female,1,2024/03/18_16:40:46,YZ,None,
,,,,,,calibration,0,16,2,361,11,S,1,left,0.5002474840148352,1,0,,,,,,,,,,,,,,,,,,,,,1,,,,,,,,,,,,,,,,,,,,,,,,,,,,,,,,,,,,,,,,,,,,,,100,148360,21,Female,1,2024/03/18_16:40:46,YZ,None,
,,,,,,calibration,0,16,2,361,12,V,0,right,0.7611177640210371,1,0,,,,,,,,,,,,,,,,,,,,,1,,,,,,,,,,,,,,,,,,,,,,,,,,,,,,,,,,,,,,,,,,,,,,100,148360,21,Female,1,2024/03/18_16:40:46,YZ,None,
,,,,,,calibration,0,16,2,361,13,S,1,left,0.6345146489911713,1,0,,,,,,,,,,,,,,,,,,,,,1,,,,,,,,,,,,,,,,,,,,,,,,,,,,,,,,,,,,,,,,,,,,,,100,148360,21,Female,1,2024/03/18_16:40:46,YZ,None,
,,,,,,calibration,0,16,2,361,14,V,1,left,0.8267250449862331,1,0,,,,,,,,,,,,,,,,,,,,,1,,,,,,,,,,,,,,,,,,,,,,,,,,,,,,,,,,,,,,,,,,,,,,100,148360,21,Female,1,2024/03/18_16:40:46,YZ,None,
,,,,,,calibration,0,16,2,361,15,C,0,right,0.6905151670216583,1,0,,,,,,,,,,,,,,,,,,,,,1,,,,,,,,,,,,,,,,,,,,,,,,,,,,,,,,,,,,,,,,,,,,,,100,148360,21,Female,1,2024/03/18_16:40:46,YZ,None,
,,,,,,calibration,0,16,2,361,16,X,0,right,0.8469328890205361,1,0,,,,,,,,,,,,,,,,,,,,,1,,,,,,,,,,,,,,,,,,,,,,,,,,,,,,,,,,,,,,,,,,,,,,100,148360,21,Female,1,2024/03/18_16:40:46,YZ,None,
,,,,,,calibration,0,16,2,361,17,N,0,right,0.5581282069906592,1,0,,,,,,,,,,,,,,,,,,,,,1,,,,,,,,,,,,,,,,,,,,,,,,,,,,,,,,,,,,,,,,,,,,,,100,148360,21,Female,1,2024/03/18_16:40:46,YZ,None,
,,,,,,calibration,0,16,2,361,18,V,0,left,0.5200577100040391,0,0,,,,,,,,,,,,,,,,,,,,,1,,,,,,,,,,,,,,,,,,,,,,,,,,,,,,,,,,,,,,,,,,,,,,100,148360,21,Female,1,2024/03/18_16:40:46,YZ,None,
,,,,,,calibration,0,16,2,361,,,,,,,,0.9230769230769231,1.0,0.3076923076923077,0.6923076923076923,0.0,0.6923076923076923,0.5931902938916918,5,4,0,0,0,9,14,5,13,0,,,,1,,,,,,,,,,,,,,,,,,,,,,,,,,,,,,,,,,,,,,,,,,,,,,100,148360,21,Female,1,2024/03/18_16:40:46,YZ,None,
,,,,,,Calibration,0,,2,361,,,,,,,,,,,,,,,,,,,,,,,,,8,,,1,,,,,,,,,,,,,,,,,,,,,,,,,,,,,,,,,,,,,,,,,,,,,,100,148360,21,Female,1,2024/03/18_16:40:46,YZ,None,
,,,,,,calibration,0,17,2,303,1,C,0,right,0.43914100498659536,1,0,,,,,,,,,,,,,,,,,,,,,1,,,,,,,,,,,,,,,,,,,,,,,,,,,,,,,,,,,,,,,,,,,,,,100,148360,21,Female,1,2024/03/18_16:40:46,YZ,None,
,,,,,,calibration,0,17,2,303,2,X,0,right,0.6373314959928393,1,0,,,,,,,,,,,,,,,,,,,,,1,,,,,,,,,,,,,,,,,,,,,,,,,,,,,,,,,,,,,,,,,,,,,,100,148360,21,Female,1,2024/03/18_16:40:46,YZ,None,
,,,,,,calibration,0,17,2,303,3,N,0,right,0.4270515929965768,1,0,,,,,,,,,,,,,,,,,,,,,1,,,,,,,,,,,,,,,,,,,,,,,,,,,,,,,,,,,,,,,,,,,,,,100,148360,21,Female,1,2024/03/18_16:40:46,YZ,None,
,,,,,,calibration,0,17,2,303,4,C,0,left,0.5130285280174576,0,0,,,,,,,,,,,,,,,,,,,,,1,,,,,,,,,,,,,,,,,,,,,,,,,,,,,,,,,,,,,,,,,,,,,,100,148360,21,Female,1,2024/03/18_16:40:46,YZ,None,
,,,,,,calibration,0,17,2,303,5,J,0,right,0.4489471469714772,1,0,,,,,,,,,,,,,,,,,,,,,1,,,,,,,,,,,,,,,,,,,,,,,,,,,,,,,,,,,,,,,,,,,,,,100,148360,21,Female,1,2024/03/18_16:40:46,YZ,None,
,,,,,,calibration,0,17,2,303,6,F,0,right,0.3926606180029921,1,0,,,,,,,,,,,,,,,,,,,,,1,,,,,,,,,,,,,,,,,,,,,,,,,,,,,,,,,,,,,,,,,,,,,,100,148360,21,Female,1,2024/03/18_16:40:46,YZ,None,
,,,,,,calibration,0,17,2,303,7,Q,0,right,0.47174930598703213,1,0,,,,,,,,,,,,,,,,,,,,,1,,,,,,,,,,,,,,,,,,,,,,,,,,,,,,,,,,,,,,,,,,,,,,100,148360,21,Female,1,2024/03/18_16:40:46,YZ,None,
,,,,,,calibration,0,17,2,303,8,F,1,left,0.5125408390013035,1,0,,,,,,,,,,,,,,,,,,,,,1,,,,,,,,,,,,,,,,,,,,,,,,,,,,,,,,,,,,,,,,,,,,,,100,148360,21,Female,1,2024/03/18_16:40:46,YZ,None,
,,,,,,calibration,0,17,2,303,9,Q,1,left,0.5653655440255534,1,0,,,,,,,,,,,,,,,,,,,,,1,,,,,,,,,,,,,,,,,,,,,,,,,,,,,,,,,,,,,,,,,,,,,,100,148360,21,Female,1,2024/03/18_16:40:46,YZ,None,
,,,,,,calibration,0,17,2,303,10,X,0,right,0.3238861919962801,1,0,,,,,,,,,,,,,,,,,,,,,1,,,,,,,,,,,,,,,,,,,,,,,,,,,,,,,,,,,,,,,,,,,,,,100,148360,21,Female,1,2024/03/18_16:40:46,YZ,None,
,,,,,,calibration,0,17,2,303,11,F,0,left,0.4971991589991376,0,0,,,,,,,,,,,,,,,,,,,,,1,,,,,,,,,,,,,,,,,,,,,,,,,,,,,,,,,,,,,,,,,,,,,,100,148360,21,Female,1,2024/03/18_16:40:46,YZ,None,
,,,,,,calibration,0,17,2,303,12,C,0,right,0.6534537989937235,1,0,,,,,,,,,,,,,,,,,,,,,1,,,,,,,,,,,,,,,,,,,,,,,,,,,,,,,,,,,,,,,,,,,,,,100,148360,21,Female,1,2024/03/18_16:40:46,YZ,None,
,,,,,,calibration,0,17,2,303,13,X,0,right,0.8717540279903915,1,0,,,,,,,,,,,,,,,,,,,,,1,,,,,,,,,,,,,,,,,,,,,,,,,,,,,,,,,,,,,,,,,,,,,,100,148360,21,Female,1,2024/03/18_16:40:46,YZ,None,
,,,,,,calibration,0,17,2,303,14,C,1,left,0.5303869390045293,1,0,,,,,,,,,,,,,,,,,,,,,1,,,,,,,,,,,,,,,,,,,,,,,,,,,,,,,,,,,,,,,,,,,,,,100,148360,21,Female,1,2024/03/18_16:40:46,YZ,None,
,,,,,,calibration,0,17,2,303,15,X,1,left,0.6415333400072996,1,0,,,,,,,,,,,,,,,,,,,,,1,,,,,,,,,,,,,,,,,,,,,,,,,,,,,,,,,,,,,,,,,,,,,,100,148360,21,Female,1,2024/03/18_16:40:46,YZ,None,
,,,,,,calibration,0,17,2,303,16,N,0,right,0.4883378070080653,1,0,,,,,,,,,,,,,,,,,,,,,1,,,,,,,,,,,,,,,,,,,,,,,,,,,,,,,,,,,,,,,,,,,,,,100,148360,21,Female,1,2024/03/18_16:40:46,YZ,None,
,,,,,,calibration,0,17,2,303,17,X,1,right,0.5804135699872859,0,0,,,,,,,,,,,,,,,,,,,,,1,,,,,,,,,,,,,,,,,,,,,,,,,,,,,,,,,,,,,,,,,,,,,,100,148360,21,Female,1,2024/03/18_16:40:46,YZ,None,
,,,,,,calibration,0,17,2,303,18,N,1,right,0.6070493150036782,0,0,,,,,,,,,,,,,,,,,,,,,1,,,,,,,,,,,,,,,,,,,,,,,,,,,,,,,,,,,,,,,,,,,,,,100,148360,21,Female,1,2024/03/18_16:40:46,YZ,None,
,,,,,,calibration,0,17,2,303,19,S,0,right,0.7731194740044884,1,0,,,,,,,,,,,,,,,,,,,,,1,,,,,,,,,,,,,,,,,,,,,,,,,,,,,,,,,,,,,,,,,,,,,,100,148360,21,Female,1,2024/03/18_16:40:46,YZ,None,
,,,,,,calibration,0,17,2,303,,,,,,,,0.8269230769230769,0.6666666666666666,0.15384615384615385,0.8461538461538461,0.0,0.8461538461538461,0.5460499841566687,4,2,0,0,0,11,15,6,13,0,,,,1,,,,,,,,,,,,,,,,,,,,,,,,,,,,,,,,,,,,,,,,,,,,,,100,148360,21,Female,1,2024/03/18_16:40:46,YZ,None,
,,,,,,Calibration,0,,2,303,,,,,,,,,,,,,,,,,,,,,,,,,9,,,1,,,,,,,,,,,,,,,,,,,,,,,,,,,,,,,,,,,,,,,,,,,,,,100,148360,21,Female,1,2024/03/18_16:40:46,YZ,None,
,,,,,,calibration,0,3,2,303,1,Q,0,right,0.5569244819926098,1,0,,,,,,,,,,,,,,,,,,,,,1,,,,,,,,,,,,,,,,,,,,,,,,,,,,,,,,,,,,,,,,,,,,,,100,148360,21,Female,1,2024/03/18_16:40:46,YZ,None,
,,,,,,calibration,0,3,2,303,2,N,0,right,0.3399722269969061,1,0,,,,,,,,,,,,,,,,,,,,,1,,,,,,,,,,,,,,,,,,,,,,,,,,,,,,,,,,,,,,,,,,,,,,100,148360,21,Female,1,2024/03/18_16:40:46,YZ,None,
,,,,,,calibration,0,3,2,303,3,J,0,right,0.5484691839956213,1,0,,,,,,,,,,,,,,,,,,,,,1,,,,,,,,,,,,,,,,,,,,,,,,,,,,,,,,,,,,,,,,,,,,,,100,148360,21,Female,1,2024/03/18_16:40:46,YZ,None,
,,,,,,calibration,0,3,2,303,4,S,0,right,0.8647503769898321,1,0,,,,,,,,,,,,,,,,,,,,,1,,,,,,,,,,,,,,,,,,,,,,,,,,,,,,,,,,,,,,,,,,,,,,100,148360,21,Female,1,2024/03/18_16:40:46,YZ,None,
,,,,,,calibration,0,3,2,303,5,N,0,right,nan,0,1,,,,,,,,,,,,,,,,,,,,,1,,,,,,,,,,,,,,,,,,,,,,,,,,,,,,,,,,,,,,,,,,,,,,100,148360,21,Female,1,2024/03/18_16:40:46,YZ,None,
,,,,,,calibration,0,3,2,303,6,C,0,right,0.5119856770033948,1,0,,,,,,,,,,,,,,,,,,,,,1,,,,,,,,,,,,,,,,,,,,,,,,,,,,,,,,,,,,,,,,,,,,,,100,148360,21,Female,1,2024/03/18_16:40:46,YZ,None,
,,,,,,calibration,0,3,2,303,7,N,1,left,0.6588278400013223,1,0,,,,,,,,,,,,,,,,,,,,,1,,,,,,,,,,,,,,,,,,,,,,,,,,,,,,,,,,,,,,,,,,,,,,100,148360,21,Female,1,2024/03/18_16:40:46,YZ,None,
,,,,,,calibration,0,3,2,303,8,C,1,left,0.5345132910006214,1,0,,,,,,,,,,,,,,,,,,,,,1,,,,,,,,,,,,,,,,,,,,,,,,,,,,,,,,,,,,,,,,,,,,,,100,148360,21,Female,1,2024/03/18_16:40:46,YZ,None,
,,,,,,calibration,0,3,2,303,9,F,0,right,0.3724746399966534,1,0,,,,,,,,,,,,,,,,,,,,,1,,,,,,,,,,,,,,,,,,,,,,,,,,,,,,,,,,,,,,,,,,,,,,100,148360,21,Female,1,2024/03/18_16:40:46,YZ,None,
,,,,,,calibration,0,3,2,303,10,C,1,right,0.6977741979935672,0,0,,,,,,,,,,,,,,,,,,,,,1,,,,,,,,,,,,,,,,,,,,,,,,,,,,,,,,,,,,,,,,,,,,,,100,148360,21,Female,1,2024/03/18_16:40:46,YZ,None,
,,,,,,calibration,0,3,2,303,11,F,1,right,0.7316129240207374,0,0,,,,,,,,,,,,,,,,,,,,,1,,,,,,,,,,,,,,,,,,,,,,,,,,,,,,,,,,,,,,,,,,,,,,100,148360,21,Female,1,2024/03/18_16:40:46,YZ,None,
,,,,,,calibration,0,3,2,303,12,N,0,right,0.9581431970000267,1,0,,,,,,,,,,,,,,,,,,,,,1,,,,,,,,,,,,,,,,,,,,,,,,,,,,,,,,,,,,,,,,,,,,,,100,148360,21,Female,1,2024/03/18_16:40:46,YZ,None,
,,,,,,calibration,0,3,2,303,13,C,0,left,0.9097203220007941,0,0,,,,,,,,,,,,,,,,,,,,,1,,,,,,,,,,,,,,,,,,,,,,,,,,,,,,,,,,,,,,,,,,,,,,100,148360,21,Female,1,2024/03/18_16:40:46,YZ,None,
,,,,,,calibration,0,3,2,303,14,N,1,left,0.6822722629876807,1,0,,,,,,,,,,,,,,,,,,,,,1,,,,,,,,,,,,,,,,,,,,,,,,,,,,,,,,,,,,,,,,,,,,,,100,148360,21,Female,1,2024/03/18_16:40:46,YZ,None,
,,,,,,calibration,0,3,2,303,15,S,0,right,0.4294940220133867,1,0,,,,,,,,,,,,,,,,,,,,,1,,,,,,,,,,,,,,,,,,,,,,,,,,,,,,,,,,,,,,,,,,,,,,100,148360,21,Female,1,2024/03/18_16:40:46,YZ,None,
,,,,,,calibration,0,3,2,303,16,C,0,left,0.6460063720005564,0,0,,,,,,,,,,,,,,,,,,,,,1,,,,,,,,,,,,,,,,,,,,,,,,,,,,,,,,,,,,,,,,,,,,,,100,148360,21,Female,1,2024/03/18_16:40:46,YZ,None,
,,,,,,calibration,0,3,2,303,17,F,0,right,0.6077446109848097,1,0,,,,,,,,,,,,,,,,,,,,,1,,,,,,,,,,,,,,,,,,,,,,,,,,,,,,,,,,,,,,,,,,,,,,100,148360,21,Female,1,2024/03/18_16:40:46,YZ,None,
,,,,,,calibration,0,3,2,303,18,N,0,left,0.5604975139722228,0,0,,,,,,,,,,,,,,,,,,,,,1,,,,,,,,,,,,,,,,,,,,,,,,,,,,,,,,,,,,,,,,,,,,,,100,148360,21,Female,1,2024/03/18_16:40:46,YZ,None,
,,,,,,calibration,0,3,2,303,19,C,0,left,0.7591592520184349,0,0,,,,,,,,,,,,,,,,,,,,,1,,,,,,,,,,,,,,,,,,,,,,,,,,,,,,,,,,,,,,,,,,,,,,100,148360,21,Female,1,2024/03/18_16:40:46,YZ,None,
,,,,,,calibration,0,3,2,303,,,,,,,,0.7142857142857142,0.6,0.2857142857142857,0.6923076923076923,0.05263157894736842,0.6616541353383458,0.6316856884982877,3,4,0,1,1,9,12,5,14,0,,,,1,,,,,,,,,,,,,,,,,,,,,,,,,,,,,,,,,,,,,,,,,,,,,,100,148360,21,Female,1,2024/03/18_16:40:46,YZ,None,
,,,,,,Calibration,0,,2,303,,,,,,,,,,,,,,,,,,,,,,,,,10,,,1,,,,,,,,,,,,,,,,,,,,,,,,,,,,,,,,,,,,,,,,,,,,,,100,148360,21,Female,1,2024/03/18_16:40:46,YZ,None,
,,,,,,calibration,0,22,2,361,1,C,0,right,0.47951634900528006,1,0,,,,,,,,,,,,,,,,,,,,,1,,,,,,,,,,,,,,,,,,,,,,,,,,,,,,,,,,,,,,,,,,,,,,100,148360,21,Female,1,2024/03/18_16:40:46,YZ,None,
,,,,,,calibration,0,22,2,361,2,J,0,right,0.41939538999577053,1,0,,,,,,,,,,,,,,,,,,,,,1,,,,,,,,,,,,,,,,,,,,,,,,,,,,,,,,,,,,,,,,,,,,,,100,148360,21,Female,1,2024/03/18_16:40:46,YZ,None,
,,,,,,calibration,0,22,2,361,3,C,1,left,0.5822005069931038,1,0,,,,,,,,,,,,,,,,,,,,,1,,,,,,,,,,,,,,,,,,,,,,,,,,,,,,,,,,,,,,,,,,,,,,100,148360,21,Female,1,2024/03/18_16:40:46,YZ,None,
,,,,,,calibration,0,22,2,361,4,J,1,left,0.5744518510182388,1,0,,,,,,,,,,,,,,,,,,,,,1,,,,,,,,,,,,,,,,,,,,,,,,,,,,,,,,,,,,,,,,,,,,,,100,148360,21,Female,1,2024/03/18_16:40:46,YZ,None,
,,,,,,calibration,0,22,2,361,5,X,0,right,0.4288733520079404,1,0,,,,,,,,,,,,,,,,,,,,,1,,,,,,,,,,,,,,,,,,,,,,,,,,,,,,,,,,,,,,,,,,,,,,100,148360,21,Female,1,2024/03/18_16:40:46,YZ,None,
,,,,,,calibration,0,22,2,361,6,J,1,left,0.651659497001674,1,0,,,,,,,,,,,,,,,,,,,,,1,,,,,,,,,,,,,,,,,,,,,,,,,,,,,,,,,,,,,,,,,,,,,,100,148360,21,Female,1,2024/03/18_16:40:46,YZ,None,
,,,,,,calibration,0,22,2,361,7,S,0,right,0.47075186800793745,1,0,,,,,,,,,,,,,,,,,,,,,1,,,,,,,,,,,,,,,,,,,,,,,,,,,,,,,,,,,,,,,,,,,,,,100,148360,21,Female,1,2024/03/18_16:40:46,YZ,None,
,,,,,,calibration,0,22,2,361,8,Q,0,right,0.46413455801666714,1,0,,,,,,,,,,,,,,,,,,,,,1,,,,,,,,,,,,,,,,,,,,,,,,,,,,,,,,,,,,,,,,,,,,,,100,148360,21,Female,1,2024/03/18_16:40:46,YZ,None,
,,,,,,calibration,0,22,2,361,9,S,1,right,0.49253430200042203,0,0,,,,,,,,,,,,,,,,,,,,,1,,,,,,,,,,,,,,,,,,,,,,,,,,,,,,,,,,,,,,,,,,,,,,100,148360,21,Female,1,2024/03/18_16:40:46,YZ,None,
,,,,,,calibration,0,22,2,361,10,F,0,right,0.4917187169776298,1,0,,,,,,,,,,,,,,,,,,,,,1,,,,,,,,,,,,,,,,,,,,,,,,,,,,,,,,,,,,,,,,,,,,,,100,148360,21,Female,1,2024/03/18_16:40:46,YZ,None,
,,,,,,calibration,0,22,2,361,11,J,0,right,0.4687783359840978,1,0,,,,,,,,,,,,,,,,,,,,,1,,,,,,,,,,,,,,,,,,,,,,,,,,,,,,,,,,,,,,,,,,,,,,100,148360,21,Female,1,2024/03/18_16:40:46,YZ,None,
,,,,,,calibration,0,22,2,361,12,V,0,right,0.5122351919999346,1,0,,,,,,,,,,,,,,,,,,,,,1,,,,,,,,,,,,,,,,,,,,,,,,,,,,,,,,,,,,,,,,,,,,,,100,148360,21,Female,1,2024/03/18_16:40:46,YZ,None,
,,,,,,calibration,0,22,2,361,13,J,1,left,0.5599606129981112,1,0,,,,,,,,,,,,,,,,,,,,,1,,,,,,,,,,,,,,,,,,,,,,,,,,,,,,,,,,,,,,,,,,,,,,100,148360,21,Female,1,2024/03/18_16:40:46,YZ,None,
,,,,,,calibration,0,22,2,361,14,F,0,right,0.42264833400258794,1,0,,,,,,,,,,,,,,,,,,,,,1,,,,,,,,,,,,,,,,,,,,,,,,,,,,,,,,,,,,,,,,,,,,,,100,148360,21,Female,1,2024/03/18_16:40:46,YZ,None,
,,,,,,calibration,0,22,2,361,15,Q,0,right,0.6062955920060631,1,0,,,,,,,,,,,,,,,,,,,,,1,,,,,,,,,,,,,,,,,,,,,,,,,,,,,,,,,,,,,,,,,,,,,,100,148360,21,Female,1,2024/03/18_16:40:46,YZ,None,
,,,,,,calibration,0,22,2,361,16,V,0,right,0.4855719930201303,1,0,,,,,,,,,,,,,,,,,,,,,1,,,,,,,,,,,,,,,,,,,,,,,,,,,,,,,,,,,,,,,,,,,,,,100,148360,21,Female,1,2024/03/18_16:40:46,YZ,None,
,,,,,,calibration,0,22,2,361,17,J,0,right,0.47968505398603156,1,0,,,,,,,,,,,,,,,,,,,,,1,,,,,,,,,,,,,,,,,,,,,,,,,,,,,,,,,,,,,,,,,,,,,,100,148360,21,Female,1,2024/03/18_16:40:46,YZ,None,
,,,,,,calibration,0,22,2,361,18,F,0,right,0.790593457990326,1,0,,,,,,,,,,,,,,,,,,,,,1,,,,,,,,,,,,,,,,,,,,,,,,,,,,,,,,,,,,,,,,,,,,,,100,148360,21,Female,1,2024/03/18_16:40:46,YZ,None,
,,,,,,calibration,0,22,2,361,,,,,,,,0.95,0.8,0.0,1.0,0.0,1.0,0.5211669423895526,4,0,0,0,0,13,17,5,13,0,,,,1,,,,,,,,,,,,,,,,,,,,,,,,,,,,,,,,,,,,,,,,,,,,,,100,148360,21,Female,1,2024/03/18_16:40:46,YZ,None,
,,,,,,Calibration,0,,2,361,,,,,,,,,,,,,,,,,,,,,,,,,11,,,1,,,,,,,,,,,,,,,,,,,,,,,,,,,,,,,,,,,,,,,,,,,,,,100,148360,21,Female,1,2024/03/18_16:40:46,YZ,None,
,,,,,,calibration,0,10,2,303,1,C,0,right,0.5241128760098945,1,0,,,,,,,,,,,,,,,,,,,,,1,,,,,,,,,,,,,,,,,,,,,,,,,,,,,,,,,,,,,,,,,,,,,,100,148360,21,Female,1,2024/03/18_16:40:46,YZ,None,
,,,,,,calibration,0,10,2,303,2,Q,0,right,0.5123634199844673,1,0,,,,,,,,,,,,,,,,,,,,,1,,,,,,,,,,,,,,,,,,,,,,,,,,,,,,,,,,,,,,,,,,,,,,100,148360,21,Female,1,2024/03/18_16:40:46,YZ,None,
,,,,,,calibration,0,10,2,303,3,C,1,left,0.5004910290008411,1,0,,,,,,,,,,,,,,,,,,,,,1,,,,,,,,,,,,,,,,,,,,,,,,,,,,,,,,,,,,,,,,,,,,,,100,148360,21,Female,1,2024/03/18_16:40:46,YZ,None,
,,,,,,calibration,0,10,2,303,4,Q,1,left,0.4041106949734967,1,0,,,,,,,,,,,,,,,,,,,,,1,,,,,,,,,,,,,,,,,,,,,,,,,,,,,,,,,,,,,,,,,,,,,,100,148360,21,Female,1,2024/03/18_16:40:46,YZ,None,
,,,,,,calibration,0,10,2,303,5,F,0,right,0.5120421059837099,1,0,,,,,,,,,,,,,,,,,,,,,1,,,,,,,,,,,,,,,,,,,,,,,,,,,,,,,,,,,,,,,,,,,,,,100,148360,21,Female,1,2024/03/18_16:40:46,YZ,None,
,,,,,,calibration,0,10,2,303,6,Q,1,left,0.5604323449952062,1,0,,,,,,,,,,,,,,,,,,,,,1,,,,,,,,,,,,,,,,,,,,,,,,,,,,,,,,,,,,,,,,,,,,,,100,148360,21,Female,1,2024/03/18_16:40:46,YZ,None,
,,,,,,calibration,0,10,2,303,7,F,1,left,0.625441399984993,1,0,,,,,,,,,,,,,,,,,,,,,1,,,,,,,,,,,,,,,,,,,,,,,,,,,,,,,,,,,,,,,,,,,,,,100,148360,21,Female,1,2024/03/18_16:40:46,YZ,None,
,,,,,,calibration,0,10,2,303,8,X,0,right,0.4526987600256689,1,0,,,,,,,,,,,,,,,,,,,,,1,,,,,,,,,,,,,,,,,,,,,,,,,,,,,,,,,,,,,,,,,,,,,,100,148360,21,Female,1,2024/03/18_16:40:46,YZ,None,
,,,,,,calibration,0,10,2,303,9,J,0,right,0.5446201140002813,1,0,,,,,,,,,,,,,,,,,,,,,1,,,,,,,,,,,,,,,,,,,,,,,,,,,,,,,,,,,,,,,,,,,,,,100,148360,21,Female,1,2024/03/18_16:40:46,YZ,None,
,,,,,,calibration,0,10,2,303,10,F,0,right,0.6899720770015847,1,0,,,,,,,,,,,,,,,,,,,,,1,,,,,,,,,,,,,,,,,,,,,,,,,,,,,,,,,,,,,,,,,,,,,,100,148360,21,Female,1,2024/03/18_16:40:46,YZ,None,
,,,,,,calibration,0,10,2,303,11,J,1,left,0.7857679890003055,1,0,,,,,,,,,,,,,,,,,,,,,1,,,,,,,,,,,,,,,,,,,,,,,,,,,,,,,,,,,,,,,,,,,,,,100,148360,21,Female,1,2024/03/18_16:40:46,YZ,None,
,,,,,,calibration,0,10,2,303,12,N,0,right,0.45974199401098303,1,0,,,,,,,,,,,,,,,,,,,,,1,,,,,,,,,,,,,,,,,,,,,,,,,,,,,,,,,,,,,,,,,,,,,,100,148360,21,Female,1,2024/03/18_16:40:46,YZ,None,
,,,,,,calibration,0,10,2,303,13,C,0,right,0.5988447589916177,1,0,,,,,,,,,,,,,,,,,,,,,1,,,,,,,,,,,,,,,,,,,,,,,,,,,,,,,,,,,,,,,,,,,,,,100,148360,21,Female,1,2024/03/18_16:40:46,YZ,None,
,,,,,,calibration,0,10,2,303,14,S,0,right,0.46557200999814086,1,0,,,,,,,,,,,,,,,,,,,,,1,,,,,,,,,,,,,,,,,,,,,,,,,,,,,,,,,,,,,,,,,,,,,,100,148360,21,Female,1,2024/03/18_16:40:46,YZ,None,
,,,,,,calibration,0,10,2,303,15,C,1,right,0.7800528669904452,0,0,,,,,,,,,,,,,,,,,,,,,1,,,,,,,,,,,,,,,,,,,,,,,,,,,,,,,,,,,,,,,,,,,,,,100,148360,21,Female,1,2024/03/18_16:40:46,YZ,None,
,,,,,,calibration,0,10,2,303,16,V,0,right,0.7690430530055892,1,0,,,,,,,,,,,,,,,,,,,,,1,,,,,,,,,,,,,,,,,,,,,,,,,,,,,,,,,,,,,,,,,,,,,,100,148360,21,Female,1,2024/03/18_16:40:46,YZ,None,
,,,,,,calibration,0,10,2,303,17,S,0,right,0.7423488500062376,1,0,,,,,,,,,,,,,,,,,,,,,1,,,,,,,,,,,,,,,,,,,,,,,,,,,,,,,,,,,,,,,,,,,,,,100,148360,21,Female,1,2024/03/18_16:40:46,YZ,None,
,,,,,,calibration,0,10,2,303,18,F,0,left,0.6568393690104131,0,0,,,,,,,,,,,,,,,,,,,,,1,,,,,,,,,,,,,,,,,,,,,,,,,,,,,,,,,,,,,,,,,,,,,,100,148360,21,Female,1,2024/03/18_16:40:46,YZ,None,
,,,,,,calibration,0,10,2,303,19,X,0,right,0.7474924540147185,1,0,,,,,,,,,,,,,,,,,,,,,1,,,,,,,,,,,,,,,,,,,,,,,,,,,,,,,,,,,,,,,,,,,,,,100,148360,21,Female,1,2024/03/18_16:40:46,YZ,None,
,,,,,,calibration,0,10,2,303,,,,,,,,0.9262820512820513,0.8333333333333334,0.07692307692307693,0.9230769230769231,0.0,0.9230769230769231,0.596420429841505,5,1,0,0,0,12,17,6,13,0,,,,1,,,,,,,,,,,,,,,,,,,,,,,,,,,,,,,,,,,,,,,,,,,,,,100,148360,21,Female,1,2024/03/18_16:40:46,YZ,None,
,,,,,,Calibration,0,,2,303,,,,,,,,,,,,,,,,,,,,,,,,,12,,,1,,,,,,,,,,,,,,,,,,,,,,,,,,,,,,,,,,,,,,,,,,,,,,100,148360,21,Female,1,2024/03/18_16:40:46,YZ,None,
,,,,,,calibration,0,19,2,250,1,V,0,right,0.3449449299951084,1,0,,,,,,,,,,,,,,,,,,,,,1,,,,,,,,,,,,,,,,,,,,,,,,,,,,,,,,,,,,,,,,,,,,,,100,148360,21,Female,1,2024/03/18_16:40:46,YZ,None,
,,,,,,calibration,0,19,2,250,2,C,0,right,0.3083294649841264,1,0,,,,,,,,,,,,,,,,,,,,,1,,,,,,,,,,,,,,,,,,,,,,,,,,,,,,,,,,,,,,,,,,,,,,100,148360,21,Female,1,2024/03/18_16:40:46,YZ,None,
,,,,,,calibration,0,19,2,250,3,N,0,right,0.47692732998984866,1,0,,,,,,,,,,,,,,,,,,,,,1,,,,,,,,,,,,,,,,,,,,,,,,,,,,,,,,,,,,,,,,,,,,,,100,148360,21,Female,1,2024/03/18_16:40:46,YZ,None,
,,,,,,calibration,0,19,2,250,4,Q,0,right,0.4764773079950828,1,0,,,,,,,,,,,,,,,,,,,,,1,,,,,,,,,,,,,,,,,,,,,,,,,,,,,,,,,,,,,,,,,,,,,,100,148360,21,Female,1,2024/03/18_16:40:46,YZ,None,
,,,,,,calibration,0,19,2,250,5,X,0,right,0.5933535489893984,1,0,,,,,,,,,,,,,,,,,,,,,1,,,,,,,,,,,,,,,,,,,,,,,,,,,,,,,,,,,,,,,,,,,,,,100,148360,21,Female,1,2024/03/18_16:40:46,YZ,None,
,,,,,,calibration,0,19,2,250,6,Q,1,left,0.4987532499944791,1,0,,,,,,,,,,,,,,,,,,,,,1,,,,,,,,,,,,,,,,,,,,,,,,,,,,,,,,,,,,,,,,,,,,,,100,148360,21,Female,1,2024/03/18_16:40:46,YZ,None,
,,,,,,calibration,0,19,2,250,7,C,0,right,0.49575463199289516,1,0,,,,,,,,,,,,,,,,,,,,,1,,,,,,,,,,,,,,,,,,,,,,,,,,,,,,,,,,,,,,,,,,,,,,100,148360,21,Female,1,2024/03/18_16:40:46,YZ,None,
,,,,,,calibration,0,19,2,250,8,Q,1,left,0.6746600189944729,1,0,,,,,,,,,,,,,,,,,,,,,1,,,,,,,,,,,,,,,,,,,,,,,,,,,,,,,,,,,,,,,,,,,,,,100,148360,21,Female,1,2024/03/18_16:40:46,YZ,None,
,,,,,,calibration,0,19,2,250,9,C,1,left,0.6190256889967714,1,0,,,,,,,,,,,,,,,,,,,,,1,,,,,,,,,,,,,,,,,,,,,,,,,,,,,,,,,,,,,,,,,,,,,,100,148360,21,Female,1,2024/03/18_16:40:46,YZ,None,
,,,,,,calibration,0,19,2,250,10,V,0,right,0.512163793988293,1,0,,,,,,,,,,,,,,,,,,,,,1,,,,,,,,,,,,,,,,,,,,,,,,,,,,,,,,,,,,,,,,,,,,,,100,148360,21,Female,1,2024/03/18_16:40:46,YZ,None,
,,,,,,calibration,0,19,2,250,11,F,0,right,0.682936619996326,1,0,,,,,,,,,,,,,,,,,,,,,1,,,,,,,,,,,,,,,,,,,,,,,,,,,,,,,,,,,,,,,,,,,,,,100,148360,21,Female,1,2024/03/18_16:40:46,YZ,None,
,,,,,,calibration,0,19,2,250,12,S,0,right,0.8313488529820461,1,0,,,,,,,,,,,,,,,,,,,,,1,,,,,,,,,,,,,,,,,,,,,,,,,,,,,,,,,,,,,,,,,,,,,,100,148360,21,Female,1,2024/03/18_16:40:46,YZ,None,
,,,,,,calibration,0,19,2,250,13,F,1,left,0.6312091769941617,1,0,,,,,,,,,,,,,,,,,,,,,1,,,,,,,,,,,,,,,,,,,,,,,,,,,,,,,,,,,,,,,,,,,,,,100,148360,21,Female,1,2024/03/18_16:40:46,YZ,None,
,,,,,,calibration,0,19,2,250,14,C,0,right,0.4783752179937437,1,0,,,,,,,,,,,,,,,,,,,,,1,,,,,,,,,,,,,,,,,,,,,,,,,,,,,,,,,,,,,,,,,,,,,,100,148360,21,Female,1,2024/03/18_16:40:46,YZ,None,
,,,,,,calibration,0,19,2,250,15,N,0,right,0.6792979369929526,1,0,,,,,,,,,,,,,,,,,,,,,1,,,,,,,,,,,,,,,,,,,,,,,,,,,,,,,,,,,,,,,,,,,,,,100,148360,21,Female,1,2024/03/18_16:40:46,YZ,None,
,,,,,,calibration,0,19,2,250,16,C,1,left,0.5588886409823317,1,0,,,,,,,,,,,,,,,,,,,,,1,,,,,,,,,,,,,,,,,,,,,,,,,,,,,,,,,,,,,,,,,,,,,,100,148360,21,Female,1,2024/03/18_16:40:46,YZ,None,
,,,,,,calibration,0,19,2,250,17,V,0,right,0.6530126539873891,1,0,,,,,,,,,,,,,,,,,,,,,1,,,,,,,,,,,,,,,,,,,,,,,,,,,,,,,,,,,,,,,,,,,,,,100,148360,21,Female,1,2024/03/18_16:40:46,YZ,None,
,,,,,,calibration,0,19,2,250,18,J,0,right,0.7180610409996007,1,0,,,,,,,,,,,,,,,,,,,,,1,,,,,,,,,,,,,,,,,,,,,,,,,,,,,,,,,,,,,,,,,,,,,,100,148360,21,Female,1,2024/03/18_16:40:46,YZ,None,
,,,,,,calibration,0,19,2,250,19,X,0,right,0.621525180991739,1,0,,,,,,,,,,,,,,,,,,,,,1,,,,,,,,,,,,,,,,,,,,,,,,,,,,,,,,,,,,,,,,,,,,,,100,148360,21,Female,1,2024/03/18_16:40:46,YZ,None,
,,,,,,calibration,0,19,2,250,20,C,0,right,0.923186797008384,1,0,,,,,,,,,,,,,,,,,,,,,1,,,,,,,,,,,,,,,,,,,,,,,,,,,,,,,,,,,,,,,,,,,,,,100,148360,21,Female,1,2024/03/18_16:40:46,YZ,None,
,,,,,,calibration,0,19,2,250,,,,,,,,1.0,1.0,0.0,1.0,0.0,1.0,0.5889116042424576,5,0,0,0,0,15,20,5,15,0,,,,1,,,,,,,,,,,,,,,,,,,,,,,,,,,,,,,,,,,,,,,,,,,,,,100,148360,21,Female,1,2024/03/18_16:40:46,YZ,None,
,,,,,,Calibration,0,,2,250,,,,,,,,,,,,,,,,,,,,,,,,,13,,,1,,,,,,,,,,,,,,,,,,,,,,,,,,,,,,,,,,,,,,,,,,,,,,100,148360,21,Female,1,2024/03/18_16:40:46,YZ,None,
,,,,,,calibration,0,35,2,202,1,F,0,right,0.4669330949836876,1,0,,,,,,,,,,,,,,,,,,,,,1,,,,,,,,,,,,,,,,,,,,,,,,,,,,,,,,,,,,,,,,,,,,,,100,148360,21,Female,1,2024/03/18_16:40:46,YZ,None,
,,,,,,calibration,0,35,2,202,2,J,0,right,0.47983521700371057,1,0,,,,,,,,,,,,,,,,,,,,,1,,,,,,,,,,,,,,,,,,,,,,,,,,,,,,,,,,,,,,,,,,,,,,100,148360,21,Female,1,2024/03/18_16:40:46,YZ,None,
,,,,,,calibration,0,35,2,202,3,V,0,right,0.4899255079799332,1,0,,,,,,,,,,,,,,,,,,,,,1,,,,,,,,,,,,,,,,,,,,,,,,,,,,,,,,,,,,,,,,,,,,,,100,148360,21,Female,1,2024/03/18_16:40:46,YZ,None,
,,,,,,calibration,0,35,2,202,4,J,1,left,0.4890259289823007,1,0,,,,,,,,,,,,,,,,,,,,,1,,,,,,,,,,,,,,,,,,,,,,,,,,,,,,,,,,,,,,,,,,,,,,100,148360,21,Female,1,2024/03/18_16:40:46,YZ,None,
,,,,,,calibration,0,35,2,202,5,Q,0,right,0.464628907997394,1,0,,,,,,,,,,,,,,,,,,,,,1,,,,,,,,,,,,,,,,,,,,,,,,,,,,,,,,,,,,,,,,,,,,,,100,148360,21,Female,1,2024/03/18_16:40:46,YZ,None,
,,,,,,calibration,0,35,2,202,6,C,0,right,0.6715949019999243,1,0,,,,,,,,,,,,,,,,,,,,,1,,,,,,,,,,,,,,,,,,,,,,,,,,,,,,,,,,,,,,,,,,,,,,100,148360,21,Female,1,2024/03/18_16:40:46,YZ,None,
,,,,,,calibration,0,35,2,202,7,Q,1,left,0.6573116369836498,1,0,,,,,,,,,,,,,,,,,,,,,1,,,,,,,,,,,,,,,,,,,,,,,,,,,,,,,,,,,,,,,,,,,,,,100,148360,21,Female,1,2024/03/18_16:40:46,YZ,None,
,,,,,,calibration,0,35,2,202,8,C,1,left,0.568992291984614,1,0,,,,,,,,,,,,,,,,,,,,,1,,,,,,,,,,,,,,,,,,,,,,,,,,,,,,,,,,,,,,,,,,,,,,100,148360,21,Female,1,2024/03/18_16:40:46,YZ,None,
,,,,,,calibration,0,35,2,202,9,X,0,right,0.5198011470201891,1,0,,,,,,,,,,,,,,,,,,,,,1,,,,,,,,,,,,,,,,,,,,,,,,,,,,,,,,,,,,,,,,,,,,,,100,148360,21,Female,1,2024/03/18_16:40:46,YZ,None,
,,,,,,calibration,0,35,2,202,10,N,0,right,0.6981957490206696,1,0,,,,,,,,,,,,,,,,,,,,,1,,,,,,,,,,,,,,,,,,,,,,,,,,,,,,,,,,,,,,,,,,,,,,100,148360,21,Female,1,2024/03/18_16:40:46,YZ,None,
,,,,,,calibration,0,35,2,202,11,X,1,left,0.6822595259873196,1,0,,,,,,,,,,,,,,,,,,,,,1,,,,,,,,,,,,,,,,,,,,,,,,,,,,,,,,,,,,,,,,,,,,,,100,148360,21,Female,1,2024/03/18_16:40:46,YZ,None,
,,,,,,calibration,0,35,2,202,12,Q,0,right,0.5982080199755728,1,0,,,,,,,,,,,,,,,,,,,,,1,,,,,,,,,,,,,,,,,,,,,,,,,,,,,,,,,,,,,,,,,,,,,,100,148360,21,Female,1,2024/03/18_16:40:46,YZ,None,
,,,,,,calibration,0,35,2,202,13,X,1,left,0.6477758959808853,1,0,,,,,,,,,,,,,,,,,,,,,1,,,,,,,,,,,,,,,,,,,,,,,,,,,,,,,,,,,,,,,,,,,,,,100,148360,21,Female,1,2024/03/18_16:40:46,YZ,None,
,,,,,,calibration,0,35,2,202,14,S,0,right,0.5572023289860226,1,0,,,,,,,,,,,,,,,,,,,,,1,,,,,,,,,,,,,,,,,,,,,,,,,,,,,,,,,,,,,,,,,,,,,,100,148360,21,Female,1,2024/03/18_16:40:46,YZ,None,
,,,,,,calibration,0,35,2,202,15,X,1,right,0.6067708949849475,0,0,,,,,,,,,,,,,,,,,,,,,1,,,,,,,,,,,,,,,,,,,,,,,,,,,,,,,,,,,,,,,,,,,,,,100,148360,21,Female,1,2024/03/18_16:40:46,YZ,None,
,,,,,,calibration,0,35,2,202,16,V,0,right,nan,0,1,,,,,,,,,,,,,,,,,,,,,1,,,,,,,,,,,,,,,,,,,,,,,,,,,,,,,,,,,,,,,,,,,,,,100,148360,21,Female,1,2024/03/18_16:40:46,YZ,None,
,,,,,,calibration,0,35,2,202,17,Q,0,right,0.9574921730090864,1,0,,,,,,,,,,,,,,,,,,,,,1,,,,,,,,,,,,,,,,,,,,,,,,,,,,,,,,,,,,,,,,,,,,,,100,148360,21,Female,1,2024/03/18_16:40:46,YZ,None,
,,,,,,calibration,0,35,2,202,18,N,0,right,0.7436740249977447,1,0,,,,,,,,,,,,,,,,,,,,,1,,,,,,,,,,,,,,,,,,,,,,,,,,,,,,,,,,,,,,,,,,,,,,100,148360,21,Female,1,2024/03/18_16:40:46,YZ,None,
,,,,,,calibration,0,35,2,202,19,F,0,right,0.7157457899884321,1,0,,,,,,,,,,,,,,,,,,,,,1,,,,,,,,,,,,,,,,,,,,,,,,,,,,,,,,,,,,,,,,,,,,,,100,148360,21,Female,1,2024/03/18_16:40:46,YZ,None,
,,,,,,calibration,0,35,2,202,20,Q,0,right,0.6258560819842387,1,0,,,,,,,,,,,,,,,,,,,,,1,,,,,,,,,,,,,,,,,,,,,,,,,,,,,,,,,,,,,,,,,,,,,,100,148360,21,Female,1,2024/03/18_16:40:46,YZ,None,
,,,,,,calibration,0,35,2,202,21,C,0,right,0.7925615990243386,1,0,,,,,,,,,,,,,,,,,,,,,1,,,,,,,,,,,,,,,,,,,,,,,,,,,,,,,,,,,,,,,,,,,,,,100,148360,21,Female,1,2024/03/18_16:40:46,YZ,None,
,,,,,,calibration,0,35,2,202,,,,,,,,0.9583333333333334,0.8333333333333334,0.0,1.0,0.047619047619047616,0.9523809523809523,0.6216895359437331,5,0,0,1,1,14,19,6,15,0,,,,1,,,,,,,,,,,,,,,,,,,,,,,,,,,,,,,,,,,,,,,,,,,,,,100,148360,21,Female,1,2024/03/18_16:40:46,YZ,None,
,,,,,,Calibration,0,,2,202,,,,,,,,,,,,,,,,,,,,,,,,,14,,,1,,,,,,,,,,,,,,,,,,,,,,,,,,,,,,,,,,,,,,,,,,,,,,100,148360,21,Female,1,2024/03/18_16:40:46,YZ,None,
,,,,,,calibration,0,27,2,159,1,V,0,right,0.4735408390115481,1,0,,,,,,,,,,,,,,,,,,,,,1,,,,,,,,,,,,,,,,,,,,,,,,,,,,,,,,,,,,,,,,,,,,,,100,148360,21,Female,1,2024/03/18_16:40:46,YZ,None,
,,,,,,calibration,0,27,2,159,2,Q,0,right,0.5688460640085395,1,0,,,,,,,,,,,,,,,,,,,,,1,,,,,,,,,,,,,,,,,,,,,,,,,,,,,,,,,,,,,,,,,,,,,,100,148360,21,Female,1,2024/03/18_16:40:46,YZ,None,
,,,,,,calibration,0,27,2,159,3,V,1,left,0.914285287988605,1,0,,,,,,,,,,,,,,,,,,,,,1,,,,,,,,,,,,,,,,,,,,,,,,,,,,,,,,,,,,,,,,,,,,,,100,148360,21,Female,1,2024/03/18_16:40:46,YZ,None,
,,,,,,calibration,0,27,2,159,4,J,0,right,0.5419741589867044,1,0,,,,,,,,,,,,,,,,,,,,,1,,,,,,,,,,,,,,,,,,,,,,,,,,,,,,,,,,,,,,,,,,,,,,100,148360,21,Female,1,2024/03/18_16:40:46,YZ,None,
,,,,,,calibration,0,27,2,159,5,F,0,right,0.7583319249970373,1,0,,,,,,,,,,,,,,,,,,,,,1,,,,,,,,,,,,,,,,,,,,,,,,,,,,,,,,,,,,,,,,,,,,,,100,148360,21,Female,1,2024/03/18_16:40:46,YZ,None,
,,,,,,calibration,0,27,2,159,6,X,0,right,0.5811968019988853,1,0,,,,,,,,,,,,,,,,,,,,,1,,,,,,,,,,,,,,,,,,,,,,,,,,,,,,,,,,,,,,,,,,,,,,100,148360,21,Female,1,2024/03/18_16:40:46,YZ,None,
,,,,,,calibration,0,27,2,159,7,Q,0,right,0.6906897830194794,1,0,,,,,,,,,,,,,,,,,,,,,1,,,,,,,,,,,,,,,,,,,,,,,,,,,,,,,,,,,,,,,,,,,,,,100,148360,21,Female,1,2024/03/18_16:40:46,YZ,None,
,,,,,,calibration,0,27,2,159,8,X,1,left,0.5734833530150354,1,0,,,,,,,,,,,,,,,,,,,,,1,,,,,,,,,,,,,,,,,,,,,,,,,,,,,,,,,,,,,,,,,,,,,,100,148360,21,Female,1,2024/03/18_16:40:46,YZ,None,
,,,,,,calibration,0,27,2,159,9,Q,1,left,0.6683164550049696,1,0,,,,,,,,,,,,,,,,,,,,,1,,,,,,,,,,,,,,,,,,,,,,,,,,,,,,,,,,,,,,,,,,,,,,100,148360,21,Female,1,2024/03/18_16:40:46,YZ,None,
,,,,,,calibration,0,27,2,159,10,F,0,right,0.5685389710124582,1,0,,,,,,,,,,,,,,,,,,,,,1,,,,,,,,,,,,,,,,,,,,,,,,,,,,,,,,,,,,,,,,,,,,,,100,148360,21,Female,1,2024/03/18_16:40:46,YZ,None,
,,,,,,calibration,0,27,2,159,11,X,0,right,0.7939613920170814,1,0,,,,,,,,,,,,,,,,,,,,,1,,,,,,,,,,,,,,,,,,,,,,,,,,,,,,,,,,,,,,,,,,,,,,100,148360,21,Female,1,2024/03/18_16:40:46,YZ,None,
,,,,,,calibration,0,27,2,159,12,F,1,right,nan,0,1,,,,,,,,,,,,,,,,,,,,,1,,,,,,,,,,,,,,,,,,,,,,,,,,,,,,,,,,,,,,,,,,,,,,100,148360,21,Female,1,2024/03/18_16:40:46,YZ,None,
,,,,,,calibration,0,27,2,159,13,S,0,right,nan,0,1,,,,,,,,,,,,,,,,,,,,,1,,,,,,,,,,,,,,,,,,,,,,,,,,,,,,,,,,,,,,,,,,,,,,100,148360,21,Female,1,2024/03/18_16:40:46,YZ,None,
,,,,,,calibration,0,27,2,159,14,X,0,right,0.8080932250013575,1,0,,,,,,,,,,,,,,,,,,,,,1,,,,,,,,,,,,,,,,,,,,,,,,,,,,,,,,,,,,,,,,,,,,,,100,148360,21,Female,1,2024/03/18_16:40:46,YZ,None,
,,,,,,calibration,0,27,2,159,15,Q,0,right,0.7585624110070057,1,0,,,,,,,,,,,,,,,,,,,,,1,,,,,,,,,,,,,,,,,,,,,,,,,,,,,,,,,,,,,,,,,,,,,,100,148360,21,Female,1,2024/03/18_16:40:46,YZ,None,
,,,,,,calibration,0,27,2,159,16,J,0,right,0.5424144139979035,1,0,,,,,,,,,,,,,,,,,,,,,1,,,,,,,,,,,,,,,,,,,,,,,,,,,,,,,,,,,,,,,,,,,,,,100,148360,21,Female,1,2024/03/18_16:40:46,YZ,None,
,,,,,,calibration,0,27,2,159,17,C,0,right,0.5344874860020354,1,0,,,,,,,,,,,,,,,,,,,,,1,,,,,,,,,,,,,,,,,,,,,,,,,,,,,,,,,,,,,,,,,,,,,,100,148360,21,Female,1,2024/03/18_16:40:46,YZ,None,
,,,,,,calibration,0,27,2,159,18,Q,0,left,0.6584922980109695,0,0,,,,,,,,,,,,,,,,,,,,,1,,,,,,,,,,,,,,,,,,,,,,,,,,,,,,,,,,,,,,,,,,,,,,100,148360,21,Female,1,2024/03/18_16:40:46,YZ,None,
,,,,,,calibration,0,27,2,159,19,C,1,left,0.5640564160130452,1,0,,,,,,,,,,,,,,,,,,,,,1,,,,,,,,,,,,,,,,,,,,,,,,,,,,,,,,,,,,,,,,,,,,,,100,148360,21,Female,1,2024/03/18_16:40:46,YZ,None,
,,,,,,calibration,0,27,2,159,20,N,0,right,0.49437205199501477,1,0,,,,,,,,,,,,,,,,,,,,,1,,,,,,,,,,,,,,,,,,,,,,,,,,,,,,,,,,,,,,,,,,,,,,100,148360,21,Female,1,2024/03/18_16:40:46,YZ,None,
,,,,,,calibration,0,27,2,159,21,C,1,right,0.6651286779961083,0,0,,,,,,,,,,,,,,,,,,,,,1,,,,,,,,,,,,,,,,,,,,,,,,,,,,,,,,,,,,,,,,,,,,,,100,148360,21,Female,1,2024/03/18_16:40:46,YZ,None,
,,,,,,calibration,0,27,2,159,22,N,1,left,0.7747565319878049,1,0,,,,,,,,,,,,,,,,,,,,,1,,,,,,,,,,,,,,,,,,,,,,,,,,,,,,,,,,,,,,,,,,,,,,100,148360,21,Female,1,2024/03/18_16:40:46,YZ,None,
,,,,,,calibration,0,27,2,159,,,,,,,,0.8928571428571428,0.7142857142857143,0.06666666666666667,0.9285714285714286,0.09090909090909091,0.8424242424242424,0.6466764271535794,5,1,1,1,2,13,18,7,15,0,,,,1,,,,,,,,,,,,,,,,,,,,,,,,,,,,,,,,,,,,,,,,,,,,,,100,148360,21,Female,1,2024/03/18_16:40:46,YZ,None,
,,,,,,Calibration,0,,2,159,,,,,,,,,,,,,,,,,,,,,,,,,15,,,1,,,,,,,,,,,,,,,,,,,,,,,,,,,,,,,,,,,,,,,,,,,,,,100,148360,21,Female,1,2024/03/18_16:40:46,YZ,None,
,,,,,,CALIBRATION,0,,,,,,,,,,,,,,,,,,,,,,,,,,,,15,0.8928571428571428,159,1,,,,,,,,,,,,,,,,,,,,,,,,,,,,,,,,,,,,,,,,,,,,,,100,148360,21,Female,1,2024/03/18_16:40:46,YZ,None,
1,./instructions/inst_prac_1/Slide24.png,right,5.702396974986186,443.7430566220137,449.44545359699987,,,,,,,,,,,,,,,,,,,,,,,,,,,,,,,,,1,,,,,,,,,,,,,,,,,,,,,,,,,,,,,,,,,,,,,,,,,,,,,,100,148360,21,Female,1,2024/03/18_16:40:46,YZ,None,
2,./instructions/inst_prac_1/Slide25.png,right,1.4344928140053526,449.4749115410086,450.909404355014,,,,,,,,,,,,,,,,,,,,,,,,,,,,,,,,,1,,,,,,,,,,,,,,,,,,,,,,,,,,,,,,,,,,,,,,,,,,,,,,100,148360,21,Female,1,2024/03/18_16:40:46,YZ,None,
3,./instructions/inst_prac_1/Slide26.png,right,1.1229402140015736,450.9385708180198,452.0615110320214,,,,,,,,,,,,,,,,,,,,,,,,,,,,,,,,,1,,,,,,,,,,,,,,,,,,,,,,,,,,,,,,,,,,,,,,,,,,,,,,100,148360,21,Female,1,2024/03/18_16:40:46,YZ,None,
4,./instructions/inst_prac_1/Slide27.png,right,0.9310918819974177,452.0904475870193,453.0215394690167,,,,,,,,,,,,,,,,,,,,,,,,,,,,,,,,,1,,,,,,,,,,,,,,,,,,,,,,,,,,,,,,,,,,,,,,,,,,,,,,100,148360,21,Female,1,2024/03/18_16:40:46,YZ,None,
5,./instructions/inst_prac_1/Slide28.png,right,1.2121940999932121,453.0493485800107,454.2615426800039,,,,,,,,,,,,,,,,,,,,,,,,,,,,,,,,,1,,,,,,,,,,,,,,,,,,,,,,,,,,,,,,,,,,,,,,,,,,,,,,100,148360,21,Female,1,2024/03/18_16:40:46,YZ,None,
6,./instructions/inst_prac_1/Slide29.png,right,3.018952607992105,454.2905759900168,457.3095285980089,,,,,,,,,,,,,,,,,,,,,,,,,,,,,,,,,1,,,,,,,,,,,,,,,,,,,,,,,,,,,,,,,,,,,,,,,,,,,,,,100,148360,21,Female,1,2024/03/18_16:40:46,YZ,None,
7,./instructions/inst_prac_1/Slide30.png,right,1.4292975059943274,457.3361541920167,458.765451698011,,,,,,,,,,,,,,,,,,,,,,,,,,,,,,,,,1,,,,,,,,,,,,,,,,,,,,,,,,,,,,,,,,,,,,,,,,,,,,,,100,148360,21,Female,1,2024/03/18_16:40:46,YZ,None,
,,,,,,practice,0,18,1,1250,1,X,0,right,2.1301878159865737,1,0,,,,,,,,,,,,,,,,,,,,,1,,,,,,,,,,,,,,,,,,,,,,,,,,,,,,,,,,,,,,,,,,,,,,100,148360,21,Female,1,2024/03/18_16:40:46,YZ,None,
,,,,,,practice,0,18,1,1250,2,X,1,left,0.7086716290214099,1,0,,,,,,,,,,,,,,,,,,,,,1,,,,,,,,,,,,,,,,,,,,,,,,,,,,,,,,,,,,,,,,,,,,,,100,148360,21,Female,1,2024/03/18_16:40:46,YZ,None,
,,,,,,practice,0,18,1,1250,3,F,0,right,0.6548481300123967,1,0,,,,,,,,,,,,,,,,,,,,,1,,,,,,,,,,,,,,,,,,,,,,,,,,,,,,,,,,,,,,,,,,,,,,100,148360,21,Female,1,2024/03/18_16:40:46,YZ,None,
,,,,,,practice,0,18,1,1250,4,N,0,right,0.793050112988567,1,0,,,,,,,,,,,,,,,,,,,,,1,,,,,,,,,,,,,,,,,,,,,,,,,,,,,,,,,,,,,,,,,,,,,,100,148360,21,Female,1,2024/03/18_16:40:46,YZ,None,
,,,,,,practice,0,18,1,1250,5,F,0,right,0.7962934550014324,1,0,,,,,,,,,,,,,,,,,,,,,1,,,,,,,,,,,,,,,,,,,,,,,,,,,,,,,,,,,,,,,,,,,,,,100,148360,21,Female,1,2024/03/18_16:40:46,YZ,None,
,,,,,,practice,0,18,1,1250,6,Q,0,right,0.45458340100594796,1,0,,,,,,,,,,,,,,,,,,,,,1,,,,,,,,,,,,,,,,,,,,,,,,,,,,,,,,,,,,,,,,,,,,,,100,148360,21,Female,1,2024/03/18_16:40:46,YZ,None,
,,,,,,practice,0,18,1,1250,7,Q,1,left,0.6926662079931702,1,0,,,,,,,,,,,,,,,,,,,,,1,,,,,,,,,,,,,,,,,,,,,,,,,,,,,,,,,,,,,,,,,,,,,,100,148360,21,Female,1,2024/03/18_16:40:46,YZ,None,
,,,,,,practice,0,18,1,1250,8,V,0,right,0.4550453879928682,1,0,,,,,,,,,,,,,,,,,,,,,1,,,,,,,,,,,,,,,,,,,,,,,,,,,,,,,,,,,,,,,,,,,,,,100,148360,21,Female,1,2024/03/18_16:40:46,YZ,None,
,,,,,,practice,0,18,1,1250,9,F,0,right,0.47361970599740744,1,0,,,,,,,,,,,,,,,,,,,,,1,,,,,,,,,,,,,,,,,,,,,,,,,,,,,,,,,,,,,,,,,,,,,,100,148360,21,Female,1,2024/03/18_16:40:46,YZ,None,
,,,,,,practice,0,18,1,1250,10,F,1,left,0.6391190079739317,1,0,,,,,,,,,,,,,,,,,,,,,1,,,,,,,,,,,,,,,,,,,,,,,,,,,,,,,,,,,,,,,,,,,,,,100,148360,21,Female,1,2024/03/18_16:40:46,YZ,None,
,,,,,,practice,0,18,1,1250,,,,,,,,1.0,1.0,0.0,1.0,0.0,1.0,0.7798084853973706,3,0,0,0,0,7,10,3,7,0,,,,1,,,,,,,,,,,,,,,,,,,,,,,,,,,,,,,,,,,,,,,,,,,,,,100,148360,21,Female,1,2024/03/18_16:40:46,YZ,None,
1,./instructions/inst_prac_1_next/Slide35.png,right,0.9365572999813594,477.092825610016,478.02938290999737,,,,,,,,,,,,,,,,,,,,,,,,,,,,,,,,,1,,,,,,,,,,,,,,,,,,,,,,,,,,,,,,,,,,,,,,,,,,,,,,100,148360,21,Female,1,2024/03/18_16:40:46,YZ,None,
,,,,,,practice,0,7,1,159,1,J,0,right,0.7496614819974639,1,0,,,,,,,,,,,,,,,,,,,,,1,,,,,,,,,,,,,,,,,,,,,,,,,,,,,,,,,,,,,,,,,,,,,,100,148360,21,Female,1,2024/03/18_16:40:46,YZ,None,
,,,,,,practice,0,7,1,159,2,J,1,left,0.47969146599643864,1,0,,,,,,,,,,,,,,,,,,,,,1,,,,,,,,,,,,,,,,,,,,,,,,,,,,,,,,,,,,,,,,,,,,,,100,148360,21,Female,1,2024/03/18_16:40:46,YZ,None,
,,,,,,practice,0,7,1,159,3,V,0,right,0.4525137890013866,1,0,,,,,,,,,,,,,,,,,,,,,1,,,,,,,,,,,,,,,,,,,,,,,,,,,,,,,,,,,,,,,,,,,,,,100,148360,21,Female,1,2024/03/18_16:40:46,YZ,None,
,,,,,,practice,0,7,1,159,4,F,0,right,0.4645017629954964,1,0,,,,,,,,,,,,,,,,,,,,,1,,,,,,,,,,,,,,,,,,,,,,,,,,,,,,,,,,,,,,,,,,,,,,100,148360,21,Female,1,2024/03/18_16:40:46,YZ,None,
,,,,,,practice,0,7,1,159,5,N,0,right,0.6371471449965611,1,0,,,,,,,,,,,,,,,,,,,,,1,,,,,,,,,,,,,,,,,,,,,,,,,,,,,,,,,,,,,,,,,,,,,,100,148360,21,Female,1,2024/03/18_16:40:46,YZ,None,
,,,,,,practice,0,7,1,159,6,N,1,left,0.4956051629851572,1,0,,,,,,,,,,,,,,,,,,,,,1,,,,,,,,,,,,,,,,,,,,,,,,,,,,,,,,,,,,,,,,,,,,,,100,148360,21,Female,1,2024/03/18_16:40:46,YZ,None,
,,,,,,practice,0,7,1,159,7,C,0,right,0.4046414259937592,1,0,,,,,,,,,,,,,,,,,,,,,1,,,,,,,,,,,,,,,,,,,,,,,,,,,,,,,,,,,,,,,,,,,,,,100,148360,21,Female,1,2024/03/18_16:40:46,YZ,None,
,,,,,,practice,0,7,1,159,8,C,1,left,0.6077024289988913,1,0,,,,,,,,,,,,,,,,,,,,,1,,,,,,,,,,,,,,,,,,,,,,,,,,,,,,,,,,,,,,,,,,,,,,100,148360,21,Female,1,2024/03/18_16:40:46,YZ,None,
,,,,,,practice,0,7,1,159,9,S,0,right,0.4640575950033963,1,0,,,,,,,,,,,,,,,,,,,,,1,,,,,,,,,,,,,,,,,,,,,,,,,,,,,,,,,,,,,,,,,,,,,,100,148360,21,Female,1,2024/03/18_16:40:46,YZ,None,
,,,,,,practice,0,7,1,159,10,F,0,right,0.434928211994702,1,0,,,,,,,,,,,,,,,,,,,,,1,,,,,,,,,,,,,,,,,,,,,,,,,,,,,,,,,,,,,,,,,,,,,,100,148360,21,Female,1,2024/03/18_16:40:46,YZ,None,
,,,,,,practice,0,7,1,159,11,F,1,left,0.4887004290067125,1,0,,,,,,,,,,,,,,,,,,,,,1,,,,,,,,,,,,,,,,,,,,,,,,,,,,,,,,,,,,,,,,,,,,,,100,148360,21,Female,1,2024/03/18_16:40:46,YZ,None,
,,,,,,practice,0,7,1,159,12,Q,0,right,0.408578309987206,1,0,,,,,,,,,,,,,,,,,,,,,1,,,,,,,,,,,,,,,,,,,,,,,,,,,,,,,,,,,,,,,,,,,,,,100,148360,21,Female,1,2024/03/18_16:40:46,YZ,None,
,,,,,,practice,0,7,1,159,13,C,0,right,0.47280947500257753,1,0,,,,,,,,,,,,,,,,,,,,,1,,,,,,,,,,,,,,,,,,,,,,,,,,,,,,,,,,,,,,,,,,,,,,100,148360,21,Female,1,2024/03/18_16:40:46,YZ,None,
,,,,,,practice,0,7,1,159,14,S,0,right,0.5854863399872556,1,0,,,,,,,,,,,,,,,,,,,,,1,,,,,,,,,,,,,,,,,,,,,,,,,,,,,,,,,,,,,,,,,,,,,,100,148360,21,Female,1,2024/03/18_16:40:46,YZ,None,
,,,,,,practice,0,7,1,159,15,S,1,left,0.38413210402359255,1,0,,,,,,,,,,,,,,,,,,,,,1,,,,,,,,,,,,,,,,,,,,,,,,,,,,,,,,,,,,,,,,,,,,,,100,148360,21,Female,1,2024/03/18_16:40:46,YZ,None,
,,,,,,practice,0,7,1,159,16,F,0,right,0.38035062901326455,1,0,,,,,,,,,,,,,,,,,,,,,1,,,,,,,,,,,,,,,,,,,,,,,,,,,,,,,,,,,,,,,,,,,,,,100,148360,21,Female,1,2024/03/18_16:40:46,YZ,None,
,,,,,,practice,0,7,1,159,17,F,1,right,0.33717249397886917,0,0,,,,,,,,,,,,,,,,,,,,,1,,,,,,,,,,,,,,,,,,,,,,,,,,,,,,,,,,,,,,,,,,,,,,100,148360,21,Female,1,2024/03/18_16:40:46,YZ,None,
,,,,,,practice,0,7,1,159,18,X,0,right,0.5003951390099246,1,0,,,,,,,,,,,,,,,,,,,,,1,,,,,,,,,,,,,,,,,,,,,,,,,,,,,,,,,,,,,,,,,,,,,,100,148360,21,Female,1,2024/03/18_16:40:46,YZ,None,
,,,,,,practice,0,7,1,159,19,V,0,right,0.5037510260008276,1,0,,,,,,,,,,,,,,,,,,,,,1,,,,,,,,,,,,,,,,,,,,,,,,,,,,,,,,,,,,,,,,,,,,,,100,148360,21,Female,1,2024/03/18_16:40:46,YZ,None,
,,,,,,practice,0,7,1,159,20,S,0,right,0.8340281849959865,1,0,,,,,,,,,,,,,,,,,,,,,1,,,,,,,,,,,,,,,,,,,,,,,,,,,,,,,,,,,,,,,,,,,,,,100,148360,21,Female,1,2024/03/18_16:40:46,YZ,None,
,,,,,,practice,0,7,1,159,21,N,0,right,0.4043299220211338,1,0,,,,,,,,,,,,,,,,,,,,,1,,,,,,,,,,,,,,,,,,,,,,,,,,,,,,,,,,,,,,,,,,,,,,100,148360,21,Female,1,2024/03/18_16:40:46,YZ,None,
,,,,,,practice,0,7,1,159,22,N,1,left,0.4645557640178595,1,0,,,,,,,,,,,,,,,,,,,,,1,,,,,,,,,,,,,,,,,,,,,,,,,,,,,,,,,,,,,,,,,,,,,,100,148360,21,Female,1,2024/03/18_16:40:46,YZ,None,
,,,,,,practice,0,7,1,159,,,,,,,,0.9642857142857143,0.8571428571428571,0.0,1.0,0.0,1.0,0.4979427403185665,6,0,0,0,0,15,21,7,15,0,,,,1,,,,,,,,,,,,,,,,,,,,,,,,,,,,,,,,,,,,,,,,,,,,,,100,148360,21,Female,1,2024/03/18_16:40:46,YZ,None,
,,,,,,practice,0,13,1,159,1,J,0,right,0.48003079000045545,1,0,,,,,,,,,,,,,,,,,,,,,1,,,,,,,,,,,,,,,,,,,,,,,,,,,,,,,,,,,,,,,,,,,,,,100,148360,21,Female,1,2024/03/18_16:40:46,YZ,None,
,,,,,,practice,0,13,1,159,2,F,0,right,0.5969443759822752,1,0,,,,,,,,,,,,,,,,,,,,,1,,,,,,,,,,,,,,,,,,,,,,,,,,,,,,,,,,,,,,,,,,,,,,100,148360,21,Female,1,2024/03/18_16:40:46,YZ,None,
,,,,,,practice,0,13,1,159,3,N,0,right,0.4104505400173366,1,0,,,,,,,,,,,,,,,,,,,,,1,,,,,,,,,,,,,,,,,,,,,,,,,,,,,,,,,,,,,,,,,,,,,,100,148360,21,Female,1,2024/03/18_16:40:46,YZ,None,
,,,,,,practice,0,13,1,159,4,C,0,right,0.464457408990711,1,0,,,,,,,,,,,,,,,,,,,,,1,,,,,,,,,,,,,,,,,,,,,,,,,,,,,,,,,,,,,,,,,,,,,,100,148360,21,Female,1,2024/03/18_16:40:46,YZ,None,
,,,,,,practice,0,13,1,159,5,N,0,left,0.4901051360066049,0,0,,,,,,,,,,,,,,,,,,,,,1,,,,,,,,,,,,,,,,,,,,,,,,,,,,,,,,,,,,,,,,,,,,,,100,148360,21,Female,1,2024/03/18_16:40:46,YZ,None,
,,,,,,practice,0,13,1,159,6,C,0,left,0.0,0,0,,,,,,,,,,,,,,,,,,,,,1,,,,,,,,,,,,,,,,,,,,,,,,,,,,,,,,,,,,,,,,,,,,,,100,148360,21,Female,1,2024/03/18_16:40:46,YZ,None,
,,,,,,practice,0,13,1,159,7,C,1,left,0.7696306349826045,1,0,,,,,,,,,,,,,,,,,,,,,1,,,,,,,,,,,,,,,,,,,,,,,,,,,,,,,,,,,,,,,,,,,,,,100,148360,21,Female,1,2024/03/18_16:40:46,YZ,None,
,,,,,,practice,0,13,1,159,8,Q,0,right,0.6039000540040433,1,0,,,,,,,,,,,,,,,,,,,,,1,,,,,,,,,,,,,,,,,,,,,,,,,,,,,,,,,,,,,,,,,,,,,,100,148360,21,Female,1,2024/03/18_16:40:46,YZ,None,
,,,,,,practice,0,13,1,159,9,Q,1,left,0.6021518119960092,1,0,,,,,,,,,,,,,,,,,,,,,1,,,,,,,,,,,,,,,,,,,,,,,,,,,,,,,,,,,,,,,,,,,,,,100,148360,21,Female,1,2024/03/18_16:40:46,YZ,None,
,,,,,,practice,0,13,1,159,10,V,0,right,0.4794597619911656,1,0,,,,,,,,,,,,,,,,,,,,,1,,,,,,,,,,,,,,,,,,,,,,,,,,,,,,,,,,,,,,,,,,,,,,100,148360,21,Female,1,2024/03/18_16:40:46,YZ,None,
,,,,,,practice,0,13,1,159,11,V,1,left,0.4741475849878043,1,0,,,,,,,,,,,,,,,,,,,,,1,,,,,,,,,,,,,,,,,,,,,,,,,,,,,,,,,,,,,,,,,,,,,,100,148360,21,Female,1,2024/03/18_16:40:46,YZ,None,
,,,,,,practice,0,13,1,159,12,J,0,right,0.4732450589945074,1,0,,,,,,,,,,,,,,,,,,,,,1,,,,,,,,,,,,,,,,,,,,,,,,,,,,,,,,,,,,,,,,,,,,,,100,148360,21,Female,1,2024/03/18_16:40:46,YZ,None,
,,,,,,practice,0,13,1,159,13,J,1,left,0.5288515170104802,1,0,,,,,,,,,,,,,,,,,,,,,1,,,,,,,,,,,,,,,,,,,,,,,,,,,,,,,,,,,,,,,,,,,,,,100,148360,21,Female,1,2024/03/18_16:40:46,YZ,None,
,,,,,,practice,0,13,1,159,14,V,0,right,0.5245739210222382,1,0,,,,,,,,,,,,,,,,,,,,,1,,,,,,,,,,,,,,,,,,,,,,,,,,,,,,,,,,,,,,,,,,,,,,100,148360,21,Female,1,2024/03/18_16:40:46,YZ,None,
,,,,,,practice,0,13,1,159,15,Q,0,right,0.39630172098986804,1,0,,,,,,,,,,,,,,,,,,,,,1,,,,,,,,,,,,,,,,,,,,,,,,,,,,,,,,,,,,,,,,,,,,,,100,148360,21,Female,1,2024/03/18_16:40:46,YZ,None,
,,,,,,practice,0,13,1,159,16,Q,1,left,0.5646501260052901,1,0,,,,,,,,,,,,,,,,,,,,,1,,,,,,,,,,,,,,,,,,,,,,,,,,,,,,,,,,,,,,,,,,,,,,100,148360,21,Female,1,2024/03/18_16:40:46,YZ,None,
,,,,,,practice,0,13,1,159,17,V,0,right,0.4656733150186483,1,0,,,,,,,,,,,,,,,,,,,,,1,,,,,,,,,,,,,,,,,,,,,,,,,,,,,,,,,,,,,,,,,,,,,,100,148360,21,Female,1,2024/03/18_16:40:46,YZ,None,
,,,,,,practice,0,13,1,159,18,V,1,left,0.6092492399911862,1,0,,,,,,,,,,,,,,,,,,,,,1,,,,,,,,,,,,,,,,,,,,,,,,,,,,,,,,,,,,,,,,,,,,,,100,148360,21,Female,1,2024/03/18_16:40:46,YZ,None,
,,,,,,practice,0,13,1,159,19,F,0,right,0.35625662497477606,1,0,,,,,,,,,,,,,,,,,,,,,1,,,,,,,,,,,,,,,,,,,,,,,,,,,,,,,,,,,,,,,,,,,,,,100,148360,21,Female,1,2024/03/18_16:40:46,YZ,None,
,,,,,,practice,0,13,1,159,20,F,1,right,0.3842631099978462,0,0,,,,,,,,,,,,,,,,,,,,,1,,,,,,,,,,,,,,,,,,,,,,,,,,,,,,,,,,,,,,,,,,,,,,100,148360,21,Female,1,2024/03/18_16:40:46,YZ,None,
,,,,,,practice,0,13,1,159,21,C,0,right,0.6251460509956814,1,0,,,,,,,,,,,,,,,,,,,,,1,,,,,,,,,,,,,,,,,,,,,,,,,,,,,,,,,,,,,,,,,,,,,,100,148360,21,Female,1,2024/03/18_16:40:46,YZ,None,
,,,,,,practice,0,13,1,159,22,J,0,right,0.3759521099855192,1,0,,,,,,,,,,,,,,,,,,,,,1,,,,,,,,,,,,,,,,,,,,,,,,,,,,,,,,,,,,,,,,,,,,,,100,148360,21,Female,1,2024/03/18_16:40:46,YZ,None,
,,,,,,practice,0,13,1,159,,,,,,,,0.9119047619047619,0.8571428571428571,0.13333333333333333,0.8666666666666667,0.0,0.8666666666666667,0.4852473133611387,6,2,0,0,0,13,19,7,15,0,,,,1,,,,,,,,,,,,,,,,,,,,,,,,,,,,,,,,,,,,,,,,,,,,,,100,148360,21,Female,1,2024/03/18_16:40:46,YZ,None,
1,./instructions/inst_prac_3/Slide37.png,right,4.784788571007084,526.8847508970066,531.6695394680137,,,,,,,,,,,,,,,,,,,,,,,,,,,,,,,,,1,,,,,,,,,,,,,,,,,,,,,,,,,,,,,,,,,,,,,,,,,,,,,,100,148360,21,Female,1,2024/03/18_16:40:46,YZ,None,
2,./instructions/inst_prac_3/Slide38.png,right,0.9379701669968199,531.6994513200189,532.6374214870157,,,,,,,,,,,,,,,,,,,,,,,,,,,,,,,,,1,,,,,,,,,,,,,,,,,,,,,,,,,,,,,,,,,,,,,,,,,,,,,,100,148360,21,Female,1,2024/03/18_16:40:46,YZ,None,
3,./instructions/inst_prac_3/Slide39.png,right,0.6031103930145036,532.6663749639993,533.2694853570138,,,,,,,,,,,,,,,,,,,,,,,,,,,,,,,,,1,,,,,,,,,,,,,,,,,,,,,,,,,,,,,,,,,,,,,,,,,,,,,,100,148360,21,Female,1,2024/03/18_16:40:46,YZ,None,
4,./instructions/inst_prac_3/Slide40.png,right,0.6666609020030592,533.2986638160073,533.9653247180104,,,,,,,,,,,,,,,,,,,,,,,,,,,,,,,,,1,,,,,,,,,,,,,,,,,,,,,,,,,,,,,,,,,,,,,,,,,,,,,,100,148360,21,Female,1,2024/03/18_16:40:46,YZ,None,
5,./instructions/inst_prac_3/Slide41.png,right,1.013561141997343,533.9918592320173,535.0054203740146,,,,,,,,,,,,,,,,,,,,,,,,,,,,,,,,,1,,,,,,,,,,,,,,,,,,,,,,,,,,,,,,,,,,,,,,,,,,,,,,100,148360,21,Female,1,2024/03/18_16:40:46,YZ,None,
6,./instructions/inst_prac_3/Slide42.png,right,1.4028766289993655,535.0346298690129,536.4375064980122,,,,,,,,,,,,,,,,,,,,,,,,,,,,,,,,,1,,,,,,,,,,,,,,,,,,,,,,,,,,,,,,,,,,,,,,,,,,,,,,100,148360,21,Female,1,2024/03/18_16:40:46,YZ,None,
7,./instructions/inst_prac_3/Slide43.png,right,0.7468106610176619,536.4666828479967,537.2134935090144,,,,,,,,,,,,,,,,,,,,,,,,,,,,,,,,,1,,,,,,,,,,,,,,,,,,,,,,,,,,,,,,,,,,,,,,,,,,,,,,100,148360,21,Female,1,2024/03/18_16:40:46,YZ,None,
8,./instructions/inst_prac_3/Slide44.png,right,1.0348544419975951,537.242612941016,538.2774673830136,,,,,,,,,,,,,,,,,,,,,,,,,,,,,,,,,1,,,,,,,,,,,,,,,,,,,,,,,,,,,,,,,,,,,,,,,,,,,,,,100,148360,21,Female,1,2024/03/18_16:40:46,YZ,None,
,,,,,,practice,0,28,3,788,1,C,0,right,0.8595003119844478,1,0,,,,,,,,,,,,,,,,,,,,,1,,,,,,,,,,,,,,,,,,,,,,,,,,,,,,,,,,,,,,,,,,,,,,100,148360,21,Female,1,2024/03/18_16:40:46,YZ,None,
,,,,,,practice,0,28,3,788,2,J,0,right,0.2363277999975253,1,0,,,,,,,,,,,,,,,,,,,,,1,,,,,,,,,,,,,,,,,,,,,,,,,,,,,,,,,,,,,,,,,,,,,,100,148360,21,Female,1,2024/03/18_16:40:46,YZ,None,
,,,,,,practice,0,28,3,788,3,C,0,right,0.3001312509877607,1,0,,,,,,,,,,,,,,,,,,,,,1,,,,,,,,,,,,,,,,,,,,,,,,,,,,,,,,,,,,,,,,,,,,,,100,148360,21,Female,1,2024/03/18_16:40:46,YZ,None,
,,,,,,practice,0,28,3,788,4,C,1,left,0.485316069010878,1,0,,,,,,,,,,,,,,,,,,,,,1,,,,,,,,,,,,,,,,,,,,,,,,,,,,,,,,,,,,,,,,,,,,,,100,148360,21,Female,1,2024/03/18_16:40:46,YZ,None,
,,,,,,practice,0,28,3,788,5,S,0,right,0.7970642140135169,1,0,,,,,,,,,,,,,,,,,,,,,1,,,,,,,,,,,,,,,,,,,,,,,,,,,,,,,,,,,,,,,,,,,,,,100,148360,21,Female,1,2024/03/18_16:40:46,YZ,None,
,,,,,,practice,0,28,3,788,6,C,1,left,0.6760971079929732,1,0,,,,,,,,,,,,,,,,,,,,,1,,,,,,,,,,,,,,,,,,,,,,,,,,,,,,,,,,,,,,,,,,,,,,100,148360,21,Female,1,2024/03/18_16:40:46,YZ,None,
,,,,,,practice,0,28,3,788,7,S,0,right,0.7903291010006797,1,0,,,,,,,,,,,,,,,,,,,,,1,,,,,,,,,,,,,,,,,,,,,,,,,,,,,,,,,,,,,,,,,,,,,,100,148360,21,Female,1,2024/03/18_16:40:46,YZ,None,
,,,,,,practice,0,28,3,788,8,X,0,right,0.5159250109863933,1,0,,,,,,,,,,,,,,,,,,,,,1,,,,,,,,,,,,,,,,,,,,,,,,,,,,,,,,,,,,,,,,,,,,,,100,148360,21,Female,1,2024/03/18_16:40:46,YZ,None,
,,,,,,practice,0,28,3,788,9,C,1,left,0.5328271120088175,1,0,,,,,,,,,,,,,,,,,,,,,1,,,,,,,,,,,,,,,,,,,,,,,,,,,,,,,,,,,,,,,,,,,,,,100,148360,21,Female,1,2024/03/18_16:40:46,YZ,None,
,,,,,,practice,0,28,3,788,10,F,0,right,0.5562748679949436,1,0,,,,,,,,,,,,,,,,,,,,,1,,,,,,,,,,,,,,,,,,,,,,,,,,,,,,,,,,,,,,,,,,,,,,100,148360,21,Female,1,2024/03/18_16:40:46,YZ,None,
,,,,,,practice,0,28,3,788,11,N,0,right,0.565903102979064,1,0,,,,,,,,,,,,,,,,,,,,,1,,,,,,,,,,,,,,,,,,,,,,,,,,,,,,,,,,,,,,,,,,,,,,100,148360,21,Female,1,2024/03/18_16:40:46,YZ,None,
,,,,,,practice,0,28,3,788,12,C,1,left,0.5807693709793966,1,0,,,,,,,,,,,,,,,,,,,,,1,,,,,,,,,,,,,,,,,,,,,,,,,,,,,,,,,,,,,,,,,,,,,,100,148360,21,Female,1,2024/03/18_16:40:46,YZ,None,
,,,,,,practice,0,28,3,788,13,V,0,right,0.47538796497974545,1,0,,,,,,,,,,,,,,,,,,,,,1,,,,,,,,,,,,,,,,,,,,,,,,,,,,,,,,,,,,,,,,,,,,,,100,148360,21,Female,1,2024/03/18_16:40:46,YZ,None,
,,,,,,practice,0,28,3,788,,,,,,,,1.0,1.0,0.0,1.0,0.0,1.0,0.5670656373012417,4,0,0,0,0,9,13,4,9,0,,,,1,,,,,,,,,,,,,,,,,,,,,,,,,,,,,,,,,,,,,,,,,,,,,,100,148360,21,Female,1,2024/03/18_16:40:46,YZ,None,
1,./instructions/inst_prac_3_next/Slide49.png,right,2.9084192030131817,559.3449889479962,562.2534081510094,,,,,,,,,,,,,,,,,,,,,,,,,,,,,,,,,1,,,,,,,,,,,,,,,,,,,,,,,,,,,,,,,,,,,,,,,,,,,,,,100,148360,21,Female,1,2024/03/18_16:40:46,YZ,None,
,,,,,,practice,0,34,3,159,1,F,0,right,0.5433588750020135,1,0,,,,,,,,,,,,,,,,,,,,,1,,,,,,,,,,,,,,,,,,,,,,,,,,,,,,,,,,,,,,,,,,,,,,100,148360,21,Female,1,2024/03/18_16:40:46,YZ,None,
,,,,,,practice,0,34,3,159,2,C,0,right,0.532712914980948,1,0,,,,,,,,,,,,,,,,,,,,,1,,,,,,,,,,,,,,,,,,,,,,,,,,,,,,,,,,,,,,,,,,,,,,100,148360,21,Female,1,2024/03/18_16:40:46,YZ,None,
,,,,,,practice,0,34,3,159,3,F,0,right,0.554544792015804,1,0,,,,,,,,,,,,,,,,,,,,,1,,,,,,,,,,,,,,,,,,,,,,,,,,,,,,,,,,,,,,,,,,,,,,100,148360,21,Female,1,2024/03/18_16:40:46,YZ,None,
,,,,,,practice,0,34,3,159,4,V,0,right,0.4764375689846929,1,0,,,,,,,,,,,,,,,,,,,,,1,,,,,,,,,,,,,,,,,,,,,,,,,,,,,,,,,,,,,,,,,,,,,,100,148360,21,Female,1,2024/03/18_16:40:46,YZ,None,
,,,,,,practice,0,34,3,159,5,V,0,right,0.6931954890023917,1,0,,,,,,,,,,,,,,,,,,,,,1,,,,,,,,,,,,,,,,,,,,,,,,,,,,,,,,,,,,,,,,,,,,,,100,148360,21,Female,1,2024/03/18_16:40:46,YZ,None,
,,,,,,practice,0,34,3,159,6,F,1,left,0.7883607510011643,1,0,,,,,,,,,,,,,,,,,,,,,1,,,,,,,,,,,,,,,,,,,,,,,,,,,,,,,,,,,,,,,,,,,,,,100,148360,21,Female,1,2024/03/18_16:40:46,YZ,None,
,,,,,,practice,0,34,3,159,7,S,0,right,0.5754237600194756,1,0,,,,,,,,,,,,,,,,,,,,,1,,,,,,,,,,,,,,,,,,,,,,,,,,,,,,,,,,,,,,,,,,,,,,100,148360,21,Female,1,2024/03/18_16:40:46,YZ,None,
,,,,,,practice,0,34,3,159,8,V,1,left,0.5523257369932253,1,0,,,,,,,,,,,,,,,,,,,,,1,,,,,,,,,,,,,,,,,,,,,,,,,,,,,,,,,,,,,,,,,,,,,,100,148360,21,Female,1,2024/03/18_16:40:46,YZ,None,
,,,,,,practice,0,34,3,159,9,S,0,right,0.5195217040018179,1,0,,,,,,,,,,,,,,,,,,,,,1,,,,,,,,,,,,,,,,,,,,,,,,,,,,,,,,,,,,,,,,,,,,,,100,148360,21,Female,1,2024/03/18_16:40:46,YZ,None,
,,,,,,practice,0,34,3,159,10,S,1,left,0.7613344190176576,1,0,,,,,,,,,,,,,,,,,,,,,1,,,,,,,,,,,,,,,,,,,,,,,,,,,,,,,,,,,,,,,,,,,,,,100,148360,21,Female,1,2024/03/18_16:40:46,YZ,None,
,,,,,,practice,0,34,3,159,11,V,1,left,1.2001201369857881,1,0,,,,,,,,,,,,,,,,,,,,,1,,,,,,,,,,,,,,,,,,,,,,,,,,,,,,,,,,,,,,,,,,,,,,100,148360,21,Female,1,2024/03/18_16:40:46,YZ,None,
,,,,,,practice,0,34,3,159,12,J,0,right,0.5568184419826139,1,0,,,,,,,,,,,,,,,,,,,,,1,,,,,,,,,,,,,,,,,,,,,,,,,,,,,,,,,,,,,,,,,,,,,,100,148360,21,Female,1,2024/03/18_16:40:46,YZ,None,
,,,,,,practice,0,34,3,159,13,Q,0,right,0.7299881179933436,1,0,,,,,,,,,,,,,,,,,,,,,1,,,,,,,,,,,,,,,,,,,,,,,,,,,,,,,,,,,,,,,,,,,,,,100,148360,21,Female,1,2024/03/18_16:40:46,YZ,None,
,,,,,,practice,0,34,3,159,14,C,0,right,0.7887962039967533,1,0,,,,,,,,,,,,,,,,,,,,,1,,,,,,,,,,,,,,,,,,,,,,,,,,,,,,,,,,,,,,,,,,,,,,100,148360,21,Female,1,2024/03/18_16:40:46,YZ,None,
,,,,,,practice,0,34,3,159,15,V,0,right,0.8656110070005525,1,0,,,,,,,,,,,,,,,,,,,,,1,,,,,,,,,,,,,,,,,,,,,,,,,,,,,,,,,,,,,,,,,,,,,,100,148360,21,Female,1,2024/03/18_16:40:46,YZ,None,
,,,,,,practice,0,34,3,159,16,Q,1,left,0.6739067450107541,1,0,,,,,,,,,,,,,,,,,,,,,1,,,,,,,,,,,,,,,,,,,,,,,,,,,,,,,,,,,,,,,,,,,,,,100,148360,21,Female,1,2024/03/18_16:40:46,YZ,None,
,,,,,,practice,0,34,3,159,17,V,0,left,1.0849997159966733,0,0,,,,,,,,,,,,,,,,,,,,,1,,,,,,,,,,,,,,,,,,,,,,,,,,,,,,,,,,,,,,,,,,,,,,100,148360,21,Female,1,2024/03/18_16:40:46,YZ,None,
,,,,,,practice,0,34,3,159,18,N,0,right,0.5257510659866966,1,0,,,,,,,,,,,,,,,,,,,,,1,,,,,,,,,,,,,,,,,,,,,,,,,,,,,,,,,,,,,,,,,,,,,,100,148360,21,Female,1,2024/03/18_16:40:46,YZ,None,
,,,,,,practice,0,34,3,159,19,J,0,left,0.7516634589992464,0,0,,,,,,,,,,,,,,,,,,,,,1,,,,,,,,,,,,,,,,,,,,,,,,,,,,,,,,,,,,,,,,,,,,,,100,148360,21,Female,1,2024/03/18_16:40:46,YZ,None,
,,,,,,practice,0,34,3,159,20,Q,0,left,1.0493040379951708,0,0,,,,,,,,,,,,,,,,,,,,,1,,,,,,,,,,,,,,,,,,,,,,,,,,,,,,,,,,,,,,,,,,,,,,100,148360,21,Female,1,2024/03/18_16:40:46,YZ,None,
,,,,,,practice,0,34,3,159,21,F,0,right,0.6606296990066767,1,0,,,,,,,,,,,,,,,,,,,,,1,,,,,,,,,,,,,,,,,,,,,,,,,,,,,,,,,,,,,,,,,,,,,,100,148360,21,Female,1,2024/03/18_16:40:46,YZ,None,
,,,,,,practice,0,34,3,159,22,J,1,left,0.8647262029990088,1,0,,,,,,,,,,,,,,,,,,,,,1,,,,,,,,,,,,,,,,,,,,,,,,,,,,,,,,,,,,,,,,,,,,,,100,148360,21,Female,1,2024/03/18_16:40:46,YZ,None,
,,,,,,practice,0,34,3,159,,,,,,,,0.953125,1.0,0.1875,0.8125,0.0,0.8125,0.7158877656805668,6,3,0,0,0,13,19,6,16,0,,,,1,,,,,,,,,,,,,,,,,,,,,,,,,,,,,,,,,,,,,,,,,,,,,,100,148360,21,Female,1,2024/03/18_16:40:46,YZ,None,
,,,,,,practice,0,11,3,159,1,J,0,right,0.8880767019873019,1,0,,,,,,,,,,,,,,,,,,,,,1,,,,,,,,,,,,,,,,,,,,,,,,,,,,,,,,,,,,,,,,,,,,,,100,148360,21,Female,1,2024/03/18_16:40:46,YZ,None,
,,,,,,practice,0,11,3,159,2,F,0,right,0.47950829297769815,1,0,,,,,,,,,,,,,,,,,,,,,1,,,,,,,,,,,,,,,,,,,,,,,,,,,,,,,,,,,,,,,,,,,,,,100,148360,21,Female,1,2024/03/18_16:40:46,YZ,None,
,,,,,,practice,0,11,3,159,3,Q,0,right,0.4049547179893125,1,0,,,,,,,,,,,,,,,,,,,,,1,,,,,,,,,,,,,,,,,,,,,,,,,,,,,,,,,,,,,,,,,,,,,,100,148360,21,Female,1,2024/03/18_16:40:46,YZ,None,
,,,,,,practice,0,11,3,159,4,J,1,left,0.5131450329790823,1,0,,,,,,,,,,,,,,,,,,,,,1,,,,,,,,,,,,,,,,,,,,,,,,,,,,,,,,,,,,,,,,,,,,,,100,148360,21,Female,1,2024/03/18_16:40:46,YZ,None,
,,,,,,practice,0,11,3,159,5,V,0,right,0.524082215008093,1,0,,,,,,,,,,,,,,,,,,,,,1,,,,,,,,,,,,,,,,,,,,,,,,,,,,,,,,,,,,,,,,,,,,,,100,148360,21,Female,1,2024/03/18_16:40:46,YZ,None,
,,,,,,practice,0,11,3,159,6,Q,1,left,0.4929569440137129,1,0,,,,,,,,,,,,,,,,,,,,,1,,,,,,,,,,,,,,,,,,,,,,,,,,,,,,,,,,,,,,,,,,,,,,100,148360,21,Female,1,2024/03/18_16:40:46,YZ,None,
,,,,,,practice,0,11,3,159,7,S,0,right,1.7488768349867314,1,0,,,,,,,,,,,,,,,,,,,,,1,,,,,,,,,,,,,,,,,,,,,,,,,,,,,,,,,,,,,,,,,,,,,,100,148360,21,Female,1,2024/03/18_16:40:46,YZ,None,
,,,,,,practice,0,11,3,159,8,S,0,right,0.7007609129941557,1,0,,,,,,,,,,,,,,,,,,,,,1,,,,,,,,,,,,,,,,,,,,,,,,,,,,,,,,,,,,,,,,,,,,,,100,148360,21,Female,1,2024/03/18_16:40:46,YZ,None,
,,,,,,practice,0,11,3,159,9,J,0,left,1.159320889011724,0,0,,,,,,,,,,,,,,,,,,,,,1,,,,,,,,,,,,,,,,,,,,,,,,,,,,,,,,,,,,,,,,,,,,,,100,148360,21,Female,1,2024/03/18_16:40:46,YZ,None,
,,,,,,practice,0,11,3,159,10,S,1,left,1.2530192699923646,1,0,,,,,,,,,,,,,,,,,,,,,1,,,,,,,,,,,,,,,,,,,,,,,,,,,,,,,,,,,,,,,,,,,,,,100,148360,21,Female,1,2024/03/18_16:40:46,YZ,None,
,,,,,,practice,0,11,3,159,11,X,0,right,0.8045666689868085,1,0,,,,,,,,,,,,,,,,,,,,,1,,,,,,,,,,,,,,,,,,,,,,,,,,,,,,,,,,,,,,,,,,,,,,100,148360,21,Female,1,2024/03/18_16:40:46,YZ,None,
,,,,,,practice,0,11,3,159,12,C,0,right,1.529263231990626,1,0,,,,,,,,,,,,,,,,,,,,,1,,,,,,,,,,,,,,,,,,,,,,,,,,,,,,,,,,,,,,,,,,,,,,100,148360,21,Female,1,2024/03/18_16:40:46,YZ,None,
,,,,,,practice,0,11,3,159,13,F,0,right,1.2843195699970238,1,0,,,,,,,,,,,,,,,,,,,,,1,,,,,,,,,,,,,,,,,,,,,,,,,,,,,,,,,,,,,,,,,,,,,,100,148360,21,Female,1,2024/03/18_16:40:46,YZ,None,
,,,,,,practice,0,11,3,159,14,X,1,right,0.6234782469982747,0,0,,,,,,,,,,,,,,,,,,,,,1,,,,,,,,,,,,,,,,,,,,,,,,,,,,,,,,,,,,,,,,,,,,,,100,148360,21,Female,1,2024/03/18_16:40:46,YZ,None,
,,,,,,practice,0,11,3,159,15,S,0,right,1.2654522949887905,1,0,,,,,,,,,,,,,,,,,,,,,1,,,,,,,,,,,,,,,,,,,,,,,,,,,,,,,,,,,,,,,,,,,,,,100,148360,21,Female,1,2024/03/18_16:40:46,YZ,None,
,,,,,,practice,0,11,3,159,16,N,0,right,0.5162664410017896,1,0,,,,,,,,,,,,,,,,,,,,,1,,,,,,,,,,,,,,,,,,,,,,,,,,,,,,,,,,,,,,,,,,,,,,100,148360,21,Female,1,2024/03/18_16:40:46,YZ,None,
,,,,,,practice,0,11,3,159,17,X,1,left,0.5779579709924292,1,0,,,,,,,,,,,,,,,,,,,,,1,,,,,,,,,,,,,,,,,,,,,,,,,,,,,,,,,,,,,,,,,,,,,,100,148360,21,Female,1,2024/03/18_16:40:46,YZ,None,
,,,,,,practice,0,11,3,159,18,N,0,right,0.6712619049940258,1,0,,,,,,,,,,,,,,,,,,,,,1,,,,,,,,,,,,,,,,,,,,,,,,,,,,,,,,,,,,,,,,,,,,,,100,148360,21,Female,1,2024/03/18_16:40:46,YZ,None,
,,,,,,practice,0,11,3,159,19,V,0,right,0.7516949849959929,1,0,,,,,,,,,,,,,,,,,,,,,1,,,,,,,,,,,,,,,,,,,,,,,,,,,,,,,,,,,,,,,,,,,,,,100,148360,21,Female,1,2024/03/18_16:40:46,YZ,None,
,,,,,,practice,0,11,3,159,20,X,1,right,0.6920658720191568,0,0,,,,,,,,,,,,,,,,,,,,,1,,,,,,,,,,,,,,,,,,,,,,,,,,,,,,,,,,,,,,,,,,,,,,100,148360,21,Female,1,2024/03/18_16:40:46,YZ,None,
,,,,,,practice,0,11,3,159,21,Q,0,right,0.5962223649839871,1,0,,,,,,,,,,,,,,,,,,,,,1,,,,,,,,,,,,,,,,,,,,,,,,,,,,,,,,,,,,,,,,,,,,,,100,148360,21,Female,1,2024/03/18_16:40:46,YZ,None,
,,,,,,practice,0,11,3,159,22,F,0,right,0.9062465710157994,1,0,,,,,,,,,,,,,,,,,,,,,1,,,,,,,,,,,,,,,,,,,,,,,,,,,,,,,,,,,,,,,,,,,,,,100,148360,21,Female,1,2024/03/18_16:40:46,YZ,None,
,,,,,,practice,0,11,3,159,,,,,,,,0.8802083333333333,0.6666666666666666,0.0625,0.9375,0.0,0.9375,0.8356135424956764,4,1,0,0,0,15,19,6,16,0,,,,1,,,,,,,,,,,,,,,,,,,,,,,,,,,,,,,,,,,,,,,,,,,,,,100,148360,21,Female,1,2024/03/18_16:40:46,YZ,None,
1,./instructions/inst_prac_main/Slide51.png,right,2.278894197981572,623.5745635130152,625.8534577109967,,,,,,,,,,,,,,,,,,,,,,,,,,,,,,,,,1,,,,,,,,,,,,,,,,,,,,,,,,,,,,,,,,,,,,,,,,,,,,,,100,148360,21,Female,1,2024/03/18_16:40:46,YZ,None,
2,./instructions/inst_prac_main/Slide52.png,right,5.386882121994859,625.8825995240186,631.2694816460134,,,,,,,,,,,,,,,,,,,,,,,,,,,,,,,,,1,,,,,,,,,,,,,,,,,,,,,,,,,,,,,,,,,,,,,,,,,,,,,,100,148360,21,Female,1,2024/03/18_16:40:46,YZ,None,
3,./instructions/inst_prac_main/Slide53.png,right,2.1494830809824634,631.2959826780134,633.4454657589959,,,,,,,,,,,,,,,,,,,,,,,,,,,,,,,,,1,,,,,,,,,,,,,,,,,,,,,,,,,,,,,,,,,,,,,,,,,,,,,,100,148360,21,Female,1,2024/03/18_16:40:46,YZ,None,
4,./instructions/inst_prac_main/Slide54.png,right,5.770834813010879,633.4747159300023,639.2455507430132,,,,,,,,,,,,,,,,,,,,,,,,,,,,,,,,,1,,,,,,,,,,,,,,,,,,,,,,,,,,,,,,,,,,,,,,,,,,,,,,100,148360,21,Female,1,2024/03/18_16:40:46,YZ,None,
,,,,,,practice_main,0,1,1,159,1,X,0,right,0.5003545159997884,1,0,,,,,,,,,,,,,,,,,,,,,1,,,,,,,,,,,,,,,,,,,,,,,,,,,,,,,,,,,,,,,,,,,,,,100,148360,21,Female,1,2024/03/18_16:40:46,YZ,None,
,,,,,,practice_main,0,1,1,159,2,C,0,right,0.48107564699603245,1,0,,,,,,,,,,,,,,,,,,,,,1,,,,,,,,,,,,,,,,,,,,,,,,,,,,,,,,,,,,,,,,,,,,,,100,148360,21,Female,1,2024/03/18_16:40:46,YZ,None,
,,,,,,practice_main,0,1,1,159,3,J,0,right,0.4173548609833233,1,0,,,,,,,,,,,,,,,,,,,,,1,,,,,,,,,,,,,,,,,,,,,,,,,,,,,,,,,,,,,,,,,,,,,,100,148360,21,Female,1,2024/03/18_16:40:46,YZ,None,
,,,,,,practice_main,0,1,1,159,4,J,1,left,0.425513119000243,1,0,,,,,,,,,,,,,,,,,,,,,1,,,,,,,,,,,,,,,,,,,,,,,,,,,,,,,,,,,,,,,,,,,,,,100,148360,21,Female,1,2024/03/18_16:40:46,YZ,None,
,,,,,,practice_main,0,1,1,159,5,F,0,right,0.4916052229818888,1,0,,,,,,,,,,,,,,,,,,,,,1,,,,,,,,,,,,,,,,,,,,,,,,,,,,,,,,,,,,,,,,,,,,,,100,148360,21,Female,1,2024/03/18_16:40:46,YZ,None,
,,,,,,practice_main,0,1,1,159,6,F,1,left,0.5241483149875421,1,0,,,,,,,,,,,,,,,,,,,,,1,,,,,,,,,,,,,,,,,,,,,,,,,,,,,,,,,,,,,,,,,,,,,,100,148360,21,Female,1,2024/03/18_16:40:46,YZ,None,
,,,,,,practice_main,0,1,1,159,7,S,0,right,0.5376652929990087,1,0,,,,,,,,,,,,,,,,,,,,,1,,,,,,,,,,,,,,,,,,,,,,,,,,,,,,,,,,,,,,,,,,,,,,100,148360,21,Female,1,2024/03/18_16:40:46,YZ,None,
,,,,,,practice_main,0,1,1,159,8,Q,0,right,0.5266128590155859,1,0,,,,,,,,,,,,,,,,,,,,,1,,,,,,,,,,,,,,,,,,,,,,,,,,,,,,,,,,,,,,,,,,,,,,100,148360,21,Female,1,2024/03/18_16:40:46,YZ,None,
,,,,,,practice_main,0,1,1,159,9,S,0,right,0.6078967580106109,1,0,,,,,,,,,,,,,,,,,,,,,1,,,,,,,,,,,,,,,,,,,,,,,,,,,,,,,,,,,,,,,,,,,,,,100,148360,21,Female,1,2024/03/18_16:40:46,YZ,None,
,,,,,,practice_main,0,1,1,159,10,S,1,left,0.5709306400094647,1,0,,,,,,,,,,,,,,,,,,,,,1,,,,,,,,,,,,,,,,,,,,,,,,,,,,,,,,,,,,,,,,,,,,,,100,148360,21,Female,1,2024/03/18_16:40:46,YZ,None,
,,,,,,practice_main,0,1,1,159,11,V,0,right,0.43918354401830584,1,0,,,,,,,,,,,,,,,,,,,,,1,,,,,,,,,,,,,,,,,,,,,,,,,,,,,,,,,,,,,,,,,,,,,,100,148360,21,Female,1,2024/03/18_16:40:46,YZ,None,
,,,,,,practice_main,0,1,1,159,12,F,0,right,0.42861139797605574,1,0,,,,,,,,,,,,,,,,,,,,,1,,,,,,,,,,,,,,,,,,,,,,,,,,,,,,,,,,,,,,,,,,,,,,100,148360,21,Female,1,2024/03/18_16:40:46,YZ,None,
,,,,,,practice_main,0,1,1,159,13,V,0,right,0.606322845997056,1,0,,,,,,,,,,,,,,,,,,,,,1,,,,,,,,,,,,,,,,,,,,,,,,,,,,,,,,,,,,,,,,,,,,,,100,148360,21,Female,1,2024/03/18_16:40:46,YZ,None,
,,,,,,practice_main,0,1,1,159,14,V,1,left,0.5848922879958991,1,0,,,,,,,,,,,,,,,,,,,,,1,,,,,,,,,,,,,,,,,,,,,,,,,,,,,,,,,,,,,,,,,,,,,,100,148360,21,Female,1,2024/03/18_16:40:46,YZ,None,
,,,,,,practice_main,0,1,1,159,15,N,0,right,0.4214051539893262,1,0,,,,,,,,,,,,,,,,,,,,,1,,,,,,,,,,,,,,,,,,,,,,,,,,,,,,,,,,,,,,,,,,,,,,100,148360,21,Female,1,2024/03/18_16:40:46,YZ,None,
,,,,,,practice_main,0,1,1,159,16,N,1,left,0.5406556320085656,1,0,,,,,,,,,,,,,,,,,,,,,1,,,,,,,,,,,,,,,,,,,,,,,,,,,,,,,,,,,,,,,,,,,,,,100,148360,21,Female,1,2024/03/18_16:40:46,YZ,None,
,,,,,,practice_main,0,1,1,159,17,C,0,right,0.4146876369777601,1,0,,,,,,,,,,,,,,,,,,,,,1,,,,,,,,,,,,,,,,,,,,,,,,,,,,,,,,,,,,,,,,,,,,,,100,148360,21,Female,1,2024/03/18_16:40:46,YZ,None,
,,,,,,practice_main,0,1,1,159,18,F,0,right,0.5702372999803629,1,0,,,,,,,,,,,,,,,,,,,,,1,,,,,,,,,,,,,,,,,,,,,,,,,,,,,,,,,,,,,,,,,,,,,,100,148360,21,Female,1,2024/03/18_16:40:46,YZ,None,
,,,,,,practice_main,0,1,1,159,19,J,0,right,0.4451535969856195,1,0,,,,,,,,,,,,,,,,,,,,,1,,,,,,,,,,,,,,,,,,,,,,,,,,,,,,,,,,,,,,,,,,,,,,100,148360,21,Female,1,2024/03/18_16:40:46,YZ,None,
,,,,,,practice_main,0,1,1,159,20,J,1,left,0.4930223489936907,1,0,,,,,,,,,,,,,,,,,,,,,1,,,,,,,,,,,,,,,,,,,,,,,,,,,,,,,,,,,,,,,,,,,,,,100,148360,21,Female,1,2024/03/18_16:40:46,YZ,None,
,,,,,,practice_main,0,1,1,159,21,V,0,right,0.42896173099870794,1,0,,,,,,,,,,,,,,,,,,,,,1,,,,,,,,,,,,,,,,,,,,,,,,,,,,,,,,,,,,,,,,,,,,,,100,148360,21,Female,1,2024/03/18_16:40:46,YZ,None,
,,,,,,practice_main,0,1,1,159,22,V,1,left,0.38194659299915656,1,0,,,,,,,,,,,,,,,,,,,,,1,,,,,,,,,,,,,,,,,,,,,,,,,,,,,,,,,,,,,,,,,,,,,,100,148360,21,Female,1,2024/03/18_16:40:46,YZ,None,
,,,,,,practice_main,0,1,1,159,,,,,,,,1.0,1.0,0.0,1.0,0.0,1.0,0.49264714999563614,7,0,0,0,0,15,22,7,15,0,,,,1,,,,,,,,,,,,,,,,,,,,,,,,,,,,,,,,,,,,,,,,,,,,,,100,148360,21,Female,1,2024/03/18_16:40:46,YZ,None,
,,,,,240318_165447,PRACTICE,0,1,1,159,,,,,,,,,,,,,,,,,,,,,,,,,,,,1,8,1,1,cue2.png,easy,B,29,1.9477676739916205,0,642.3070119640033,644.2812442030117,,,,,,,,,,,,,,,,,,,,,,,,,,,,,,,,,,,100,148360,21,Female,1,2024/03/18_16:40:46,YZ,None,
,,,,,,practice_main,0,2,1,159,1,S,0,right,0.5649124039919116,1,0,,,,,,,,,,,,,,,,,,,,,1,,,,,,,,,,,,,,,,,,,,,,,,,,,,,,,,,,,,,,,,,,,,,,100,148360,21,Female,1,2024/03/18_16:40:46,YZ,None,
,,,,,,practice_main,0,2,1,159,2,S,1,left,0.37757752600009553,1,0,,,,,,,,,,,,,,,,,,,,,1,,,,,,,,,,,,,,,,,,,,,,,,,,,,,,,,,,,,,,,,,,,,,,100,148360,21,Female,1,2024/03/18_16:40:46,YZ,None,
,,,,,,practice_main,0,2,1,159,3,F,0,right,0.44505197400576435,1,0,,,,,,,,,,,,,,,,,,,,,1,,,,,,,,,,,,,,,,,,,,,,,,,,,,,,,,,,,,,,,,,,,,,,100,148360,21,Female,1,2024/03/18_16:40:46,YZ,None,
,,,,,,practice_main,0,2,1,159,4,V,0,right,0.444419591978658,1,0,,,,,,,,,,,,,,,,,,,,,1,,,,,,,,,,,,,,,,,,,,,,,,,,,,,,,,,,,,,,,,,,,,,,100,148360,21,Female,1,2024/03/18_16:40:46,YZ,None,
,,,,,,practice_main,0,2,1,159,5,S,0,right,0.5736598410003353,1,0,,,,,,,,,,,,,,,,,,,,,1,,,,,,,,,,,,,,,,,,,,,,,,,,,,,,,,,,,,,,,,,,,,,,100,148360,21,Female,1,2024/03/18_16:40:46,YZ,None,
,,,,,,practice_main,0,2,1,159,6,N,0,right,0.5698769669979811,1,0,,,,,,,,,,,,,,,,,,,,,1,,,,,,,,,,,,,,,,,,,,,,,,,,,,,,,,,,,,,,,,,,,,,,100,148360,21,Female,1,2024/03/18_16:40:46,YZ,None,
,,,,,,practice_main,0,2,1,159,7,N,1,left,0.4106306830071844,1,0,,,,,,,,,,,,,,,,,,,,,1,,,,,,,,,,,,,,,,,,,,,,,,,,,,,,,,,,,,,,,,,,,,,,100,148360,21,Female,1,2024/03/18_16:40:46,YZ,None,
,,,,,,practice_main,0,2,1,159,8,Q,0,right,0.6128358310088515,1,0,,,,,,,,,,,,,,,,,,,,,1,,,,,,,,,,,,,,,,,,,,,,,,,,,,,,,,,,,,,,,,,,,,,,100,148360,21,Female,1,2024/03/18_16:40:46,YZ,None,
,,,,,,practice_main,0,2,1,159,9,S,0,right,0.5748562660010066,1,0,,,,,,,,,,,,,,,,,,,,,1,,,,,,,,,,,,,,,,,,,,,,,,,,,,,,,,,,,,,,,,,,,,,,100,148360,21,Female,1,2024/03/18_16:40:46,YZ,None,
,,,,,,practice_main,0,2,1,159,10,S,1,left,0.3752866900176741,1,0,,,,,,,,,,,,,,,,,,,,,1,,,,,,,,,,,,,,,,,,,,,,,,,,,,,,,,,,,,,,,,,,,,,,100,148360,21,Female,1,2024/03/18_16:40:46,YZ,None,
,,,,,,practice_main,0,2,1,159,11,F,0,right,0.39687841598060913,1,0,,,,,,,,,,,,,,,,,,,,,1,,,,,,,,,,,,,,,,,,,,,,,,,,,,,,,,,,,,,,,,,,,,,,100,148360,21,Female,1,2024/03/18_16:40:46,YZ,None,
,,,,,,practice_main,0,2,1,159,12,N,0,right,0.4184382540115621,1,0,,,,,,,,,,,,,,,,,,,,,1,,,,,,,,,,,,,,,,,,,,,,,,,,,,,,,,,,,,,,,,,,,,,,100,148360,21,Female,1,2024/03/18_16:40:46,YZ,None,
,,,,,,practice_main,0,2,1,159,13,C,0,right,0.37019494199194014,1,0,,,,,,,,,,,,,,,,,,,,,1,,,,,,,,,,,,,,,,,,,,,,,,,,,,,,,,,,,,,,,,,,,,,,100,148360,21,Female,1,2024/03/18_16:40:46,YZ,None,
,,,,,,practice_main,0,2,1,159,14,C,1,left,0.4639209140150342,1,0,,,,,,,,,,,,,,,,,,,,,1,,,,,,,,,,,,,,,,,,,,,,,,,,,,,,,,,,,,,,,,,,,,,,100,148360,21,Female,1,2024/03/18_16:40:46,YZ,None,
,,,,,,practice_main,0,2,1,159,15,S,0,right,0.3649178479972761,1,0,,,,,,,,,,,,,,,,,,,,,1,,,,,,,,,,,,,,,,,,,,,,,,,,,,,,,,,,,,,,,,,,,,,,100,148360,21,Female,1,2024/03/18_16:40:46,YZ,None,
,,,,,,practice_main,0,2,1,159,16,C,0,right,0.44177511299494654,1,0,,,,,,,,,,,,,,,,,,,,,1,,,,,,,,,,,,,,,,,,,,,,,,,,,,,,,,,,,,,,,,,,,,,,100,148360,21,Female,1,2024/03/18_16:40:46,YZ,None,
,,,,,,practice_main,0,2,1,159,17,C,1,left,0.49719174299389124,1,0,,,,,,,,,,,,,,,,,,,,,1,,,,,,,,,,,,,,,,,,,,,,,,,,,,,,,,,,,,,,,,,,,,,,100,148360,21,Female,1,2024/03/18_16:40:46,YZ,None,
,,,,,,practice_main,0,2,1,159,18,Q,0,right,0.39271315798396245,1,0,,,,,,,,,,,,,,,,,,,,,1,,,,,,,,,,,,,,,,,,,,,,,,,,,,,,,,,,,,,,,,,,,,,,100,148360,21,Female,1,2024/03/18_16:40:46,YZ,None,
,,,,,,practice_main,0,2,1,159,19,X,0,right,0.41274894200614654,1,0,,,,,,,,,,,,,,,,,,,,,1,,,,,,,,,,,,,,,,,,,,,,,,,,,,,,,,,,,,,,,,,,,,,,100,148360,21,Female,1,2024/03/18_16:40:46,YZ,None,
,,,,,,practice_main,0,2,1,159,20,V,0,right,0.41275330598000437,1,0,,,,,,,,,,,,,,,,,,,,,1,,,,,,,,,,,,,,,,,,,,,,,,,,,,,,,,,,,,,,,,,,,,,,100,148360,21,Female,1,2024/03/18_16:40:46,YZ,None,
,,,,,,practice_main,0,2,1,159,21,F,0,right,0.3966122280107811,1,0,,,,,,,,,,,,,,,,,,,,,1,,,,,,,,,,,,,,,,,,,,,,,,,,,,,,,,,,,,,,,,,,,,,,100,148360,21,Female,1,2024/03/18_16:40:46,YZ,None,
,,,,,,practice_main,0,2,1,159,22,F,1,left,0.4175432100018952,1,0,,,,,,,,,,,,,,,,,,,,,1,,,,,,,,,,,,,,,,,,,,,,,,,,,,,,,,,,,,,,,,,,,,,,100,148360,21,Female,1,2024/03/18_16:40:46,YZ,None,
,,,,,,practice_main,0,2,1,159,,,,,,,,1.0,1.0,0.0,1.0,0.0,1.0,0.45158162945352326,6,0,0,0,0,16,22,6,16,0,,,,1,,,,,,,,,,,,,,,,,,,,,,,,,,,,,,,,,,,,,,,,,,,,,,100,148360,21,Female,1,2024/03/18_16:40:46,YZ,None,
,,,,,240318_165520,PRACTICE,0,2,1,159,,,,,,,,,,,,,,,,,,,,,,,,,,,,1,46,2,2,cue2.png,easy,B,37,2.9517274030076806,0,675.8156597120105,678.7832280730072,,,,,,,,,,,,,,,,,,,,,,,,,,,,,,,,,,,100,148360,21,Female,1,2024/03/18_16:40:46,YZ,None,
,,,,,,practice_main,0,3,3,159,1,N,0,right,0.8257726089796051,1,0,,,,,,,,,,,,,,,,,,,,,1,,,,,,,,,,,,,,,,,,,,,,,,,,,,,,,,,,,,,,,,,,,,,,100,148360,21,Female,1,2024/03/18_16:40:46,YZ,None,
,,,,,,practice_main,0,3,3,159,2,X,0,right,0.43912937500863336,1,0,,,,,,,,,,,,,,,,,,,,,1,,,,,,,,,,,,,,,,,,,,,,,,,,,,,,,,,,,,,,,,,,,,,,100,148360,21,Female,1,2024/03/18_16:40:46,YZ,None,
,,,,,,practice_main,0,3,3,159,3,C,0,right,0.4102348060114309,1,0,,,,,,,,,,,,,,,,,,,,,1,,,,,,,,,,,,,,,,,,,,,,,,,,,,,,,,,,,,,,,,,,,,,,100,148360,21,Female,1,2024/03/18_16:40:46,YZ,None,
,,,,,,practice_main,0,3,3,159,4,N,1,left,0.39683787600370124,1,0,,,,,,,,,,,,,,,,,,,,,1,,,,,,,,,,,,,,,,,,,,,,,,,,,,,,,,,,,,,,,,,,,,,,100,148360,21,Female,1,2024/03/18_16:40:46,YZ,None,
,,,,,,practice_main,0,3,3,159,5,Q,0,right,0.45291792598436587,1,0,,,,,,,,,,,,,,,,,,,,,1,,,,,,,,,,,,,,,,,,,,,,,,,,,,,,,,,,,,,,,,,,,,,,100,148360,21,Female,1,2024/03/18_16:40:46,YZ,None,
,,,,,,practice_main,0,3,3,159,6,S,0,right,0.5123312709911261,1,0,,,,,,,,,,,,,,,,,,,,,1,,,,,,,,,,,,,,,,,,,,,,,,,,,,,,,,,,,,,,,,,,,,,,100,148360,21,Female,1,2024/03/18_16:40:46,YZ,None,
,,,,,,practice_main,0,3,3,159,7,V,0,right,0.5419928540068213,1,0,,,,,,,,,,,,,,,,,,,,,1,,,,,,,,,,,,,,,,,,,,,,,,,,,,,,,,,,,,,,,,,,,,,,100,148360,21,Female,1,2024/03/18_16:40:46,YZ,None,
,,,,,,practice_main,0,3,3,159,8,F,0,right,0.6350368630082812,1,0,,,,,,,,,,,,,,,,,,,,,1,,,,,,,,,,,,,,,,,,,,,,,,,,,,,,,,,,,,,,,,,,,,,,100,148360,21,Female,1,2024/03/18_16:40:46,YZ,None,
,,,,,,practice_main,0,3,3,159,9,X,0,left,0.5620243040029891,0,0,,,,,,,,,,,,,,,,,,,,,1,,,,,,,,,,,,,,,,,,,,,,,,,,,,,,,,,,,,,,,,,,,,,,100,148360,21,Female,1,2024/03/18_16:40:46,YZ,None,
,,,,,,practice_main,0,3,3,159,10,N,0,right,0.5657172229839489,1,0,,,,,,,,,,,,,,,,,,,,,1,,,,,,,,,,,,,,,,,,,,,,,,,,,,,,,,,,,,,,,,,,,,,,100,148360,21,Female,1,2024/03/18_16:40:46,YZ,None,
,,,,,,practice_main,0,3,3,159,11,F,1,left,0.9584450649854261,1,0,,,,,,,,,,,,,,,,,,,,,1,,,,,,,,,,,,,,,,,,,,,,,,,,,,,,,,,,,,,,,,,,,,,,100,148360,21,Female,1,2024/03/18_16:40:46,YZ,None,
,,,,,,practice_main,0,3,3,159,12,V,0,right,0.6090959440043662,1,0,,,,,,,,,,,,,,,,,,,,,1,,,,,,,,,,,,,,,,,,,,,,,,,,,,,,,,,,,,,,,,,,,,,,100,148360,21,Female,1,2024/03/18_16:40:46,YZ,None,
,,,,,,practice_main,0,3,3,159,13,N,1,right,0.6574503360025119,0,0,,,,,,,,,,,,,,,,,,,,,1,,,,,,,,,,,,,,,,,,,,,,,,,,,,,,,,,,,,,,,,,,,,,,100,148360,21,Female,1,2024/03/18_16:40:46,YZ,None,
,,,,,,practice_main,0,3,3,159,14,F,1,left,0.6904280569870025,1,0,,,,,,,,,,,,,,,,,,,,,1,,,,,,,,,,,,,,,,,,,,,,,,,,,,,,,,,,,,,,,,,,,,,,100,148360,21,Female,1,2024/03/18_16:40:46,YZ,None,
,,,,,,practice_main,0,3,3,159,15,N,0,right,0.7146944249980152,1,0,,,,,,,,,,,,,,,,,,,,,1,,,,,,,,,,,,,,,,,,,,,,,,,,,,,,,,,,,,,,,,,,,,,,100,148360,21,Female,1,2024/03/18_16:40:46,YZ,None,
,,,,,,practice_main,0,3,3,159,16,N,1,left,0.6479976720002014,1,0,,,,,,,,,,,,,,,,,,,,,1,,,,,,,,,,,,,,,,,,,,,,,,,,,,,,,,,,,,,,,,,,,,,,100,148360,21,Female,1,2024/03/18_16:40:46,YZ,None,
,,,,,,practice_main,0,3,3,159,17,F,1,left,0.7909495980129577,1,0,,,,,,,,,,,,,,,,,,,,,1,,,,,,,,,,,,,,,,,,,,,,,,,,,,,,,,,,,,,,,,,,,,,,100,148360,21,Female,1,2024/03/18_16:40:46,YZ,None,
,,,,,,practice_main,0,3,3,159,18,F,0,right,0.7134750040131621,1,0,,,,,,,,,,,,,,,,,,,,,1,,,,,,,,,,,,,,,,,,,,,,,,,,,,,,,,,,,,,,,,,,,,,,100,148360,21,Female,1,2024/03/18_16:40:46,YZ,None,
,,,,,,practice_main,0,3,3,159,19,Q,0,right,0.6814256840152666,1,0,,,,,,,,,,,,,,,,,,,,,1,,,,,,,,,,,,,,,,,,,,,,,,,,,,,,,,,,,,,,,,,,,,,,100,148360,21,Female,1,2024/03/18_16:40:46,YZ,None,
,,,,,,practice_main,0,3,3,159,20,X,0,left,0.8411304889887106,0,0,,,,,,,,,,,,,,,,,,,,,1,,,,,,,,,,,,,,,,,,,,,,,,,,,,,,,,,,,,,,,,,,,,,,100,148360,21,Female,1,2024/03/18_16:40:46,YZ,None,
,,,,,,practice_main,0,3,3,159,21,F,1,left,0.8054373020131607,1,0,,,,,,,,,,,,,,,,,,,,,1,,,,,,,,,,,,,,,,,,,,,,,,,,,,,,,,,,,,,,,,,,,,,,100,148360,21,Female,1,2024/03/18_16:40:46,YZ,None,
,,,,,,practice_main,0,3,3,159,22,J,0,right,0.4450767119997181,1,0,,,,,,,,,,,,,,,,,,,,,1,,,,,,,,,,,,,,,,,,,,,,,,,,,,,,,,,,,,,,,,,,,,,,100,148360,21,Female,1,2024/03/18_16:40:46,YZ,None,
