Instruction,Stimulus,Key,RT,START,END,Phase,Block,TrialN,NbackLevel,ISI,LetterN,Letter,Letter_isSame,Letter_Resp,Letter_RT,Letter_Accuracy,Letter_Timeout,Trial_A_measure,Trial_HR,Trial_FAR,Trial_CDR,Trial_MSR,Trial_ACC,Trial_RT,Trial_HitsCount,Trial_FAsCount,Trial_SameNoRespCount,Trial_DiffNoRespCount,Trial_NoRespCount,Trial_CDsCount,Trial_CorrectRespCount,Trial_SameLetterCount,Trial_DiffLetterCount,Trial_InvalidLetterCount,TrialCountCali,CaliEnd_A_measure,ISI_calibrated,Run,TrialIndex,TrialNumber_total,TrialNumber_valid,CueLearning,TrialDemandLearning,CueMapping,OnlineRating,OnlineRatingRT,OnlineRatingTimeOut,CueSTART,RatingSTART,OfflineRatingTimePoint,OfflineRatingQuesIndex,CueFigure,TrialDemand,OfflineRating,OfflineRatingRT,CueStart,OfflineRatingStart,PhaseType,CueLeft,CueDemandLeft,CueRight,CueDemandRight,Choice,ChoiceDemand,TaskDemand,ChoiceRT,ChoiceTimeOut,ChoiceSTART,CueCheck,CueDemandCheck,CorrectAnswer,Answer,AnswerDemand,AnswerRT,AnswerACC,AnswerTimeOut,CheckSTART,DemandRatingQuesIndex,QuesTLX,DemandLevel,DemandRating,DemandRatingRT,QuesStart,PID,SONA,Age,Gender,Run,TIME,EXPERIMENTER,frameRate
-1,./instructions/inst_begin/Slide2.png,left,25.55809996,0.123522008,25.68162197,,,,,,,,,,,,,,,,,,,,,,,,,,,,,,,,,1,,,,,,,,,,,,,,,,,,,,,,,,,,,,,,,,,,,,,,,,,,,,,,75,152824,21,Female,1,2024/02/22_09:55:42,YZ,None
-2,./instructions/inst_begin/Slide4.png,left,8.762315919,25.7113612,34.47367712,,,,,,,,,,,,,,,,,,,,,,,,,,,,,,,,,1,,,,,,,,,,,,,,,,,,,,,,,,,,,,,,,,,,,,,,,,,,,,,,75,152824,21,Female,1,2024/02/22_09:55:42,YZ,None
-3,./instructions/inst_begin/Slide3.png,left,9.343284449,34.49828179,43.84156624,,,,,,,,,,,,,,,,,,,,,,,,,,,,,,,,,1,,,,,,,,,,,,,,,,,,,,,,,,,,,,,,,,,,,,,,,,,,,,,,75,152824,21,Female,1,2024/02/22_09:55:42,YZ,None
-1,./instructions/inst_prac_2/Slide6.png,left,8.940748285,43.86874142,52.80948971,,,,,,,,,,,,,,,,,,,,,,,,,,,,,,,,,1,,,,,,,,,,,,,,,,,,,,,,,,,,,,,,,,,,,,,,,,,,,,,,75,152824,21,Female,1,2024/02/22_09:55:42,YZ,None
-2,./instructions/inst_prac_2/Slide15.png,left,21.02538059,52.8322221,73.85760269,,,,,,,,,,,,,,,,,,,,,,,,,,,,,,,,,1,,,,,,,,,,,,,,,,,,,,,,,,,,,,,,,,,,,,,,,,,,,,,,75,152824,21,Female,1,2024/02/22_09:55:42,YZ,None
-3,./instructions/inst_prac_2/Slide14.png,left,2.444469876,73.88505617,76.32952605,,,,,,,,,,,,,,,,,,,,,,,,,,,,,,,,,1,,,,,,,,,,,,,,,,,,,,,,,,,,,,,,,,,,,,,,,,,,,,,,75,152824,21,Female,1,2024/02/22_09:55:42,YZ,None
-2,./instructions/inst_prac_2/Slide13.png,right,4.329249619,76.35218371,80.68143332,,,,,,,,,,,,,,,,,,,,,,,,,,,,,,,,,1,,,,,,,,,,,,,,,,,,,,,,,,,,,,,,,,,,,,,,,,,,,,,,75,152824,21,Female,1,2024/02/22_09:55:42,YZ,None
-3,./instructions/inst_prac_2/Slide14.png,left,6.110284709,80.70735843,86.81764314,,,,,,,,,,,,,,,,,,,,,,,,,,,,,,,,,1,,,,,,,,,,,,,,,,,,,,,,,,,,,,,,,,,,,,,,,,,,,,,,75,152824,21,Female,1,2024/02/22_09:55:42,YZ,None
-2,./instructions/inst_prac_2/Slide13.png,right,1.693244014,86.84411,88.53735402,,,,,,,,,,,,,,,,,,,,,,,,,,,,,,,,,1,,,,,,,,,,,,,,,,,,,,,,,,,,,,,,,,,,,,,,,,,,,,,,75,152824,21,Female,1,2024/02/22_09:55:42,YZ,None
-1,./instructions/inst_prac_2/Slide14.png,right,1.582573658,88.56291174,90.1454854,,,,,,,,,,,,,,,,,,,,,,,,,,,,,,,,,1,,,,,,,,,,,,,,,,,,,,,,,,,,,,,,,,,,,,,,,,,,,,,,75,152824,21,Female,1,2024/02/22_09:55:42,YZ,None
-2,./instructions/inst_prac_2/Slide15.png,left,3.914799586,90.17464376,94.08944335,,,,,,,,,,,,,,,,,,,,,,,,,,,,,,,,,1,,,,,,,,,,,,,,,,,,,,,,,,,,,,,,,,,,,,,,,,,,,,,,75,152824,21,Female,1,2024/02/22_09:55:42,YZ,None
-3,./instructions/inst_prac_2/Slide14.png,left,2.385552744,94.11211536,96.4976681,,,,,,,,,,,,,,,,,,,,,,,,,,,,,,,,,1,,,,,,,,,,,,,,,,,,,,,,,,,,,,,,,,,,,,,,,,,,,,,,75,152824,21,Female,1,2024/02/22_09:55:42,YZ,None
-4,./instructions/inst_prac_2/Slide13.png,left,4.281310651,96.52008844,100.8013991,,,,,,,,,,,,,,,,,,,,,,,,,,,,,,,,,1,,,,,,,,,,,,,,,,,,,,,,,,,,,,,,,,,,,,,,,,,,,,,,75,152824,21,Female,1,2024/02/22_09:55:42,YZ,None
-5,./instructions/inst_prac_2/Slide12.png,left,1.697016261,100.8245271,102.5215434,,,,,,,,,,,,,,,,,,,,,,,,,,,,,,,,,1,,,,,,,,,,,,,,,,,,,,,,,,,,,,,,,,,,,,,,,,,,,,,,75,152824,21,Female,1,2024/02/22_09:55:42,YZ,None
-6,./instructions/inst_prac_2/Slide11.png,left,1.106155389,102.5434823,103.6496377,,,,,,,,,,,,,,,,,,,,,,,,,,,,,,,,,1,,,,,,,,,,,,,,,,,,,,,,,,,,,,,,,,,,,,,,,,,,,,,,75,152824,21,Female,1,2024/02/22_09:55:42,YZ,None
-7,./instructions/inst_prac_2/Slide10.png,left,1.609025989,103.6723431,105.281369,,,,,,,,,,,,,,,,,,,,,,,,,,,,,,,,,1,,,,,,,,,,,,,,,,,,,,,,,,,,,,,,,,,,,,,,,,,,,,,,75,152824,21,Female,1,2024/02/22_09:55:42,YZ,None
-8,./instructions/inst_prac_2/Slide9.png,left,6.049904902,105.3037037,111.3536086,,,,,,,,,,,,,,,,,,,,,,,,,,,,,,,,,1,,,,,,,,,,,,,,,,,,,,,,,,,,,,,,,,,,,,,,,,,,,,,,75,152824,21,Female,1,2024/02/22_09:55:42,YZ,None
-9,./instructions/inst_prac_2/Slide8.png,left,21.80930291,111.3763012,133.1856042,,,,,,,,,,,,,,,,,,,,,,,,,,,,,,,,,1,,,,,,,,,,,,,,,,,,,,,,,,,,,,,,,,,,,,,,,,,,,,,,75,152824,21,Female,1,2024/02/22_09:55:42,YZ,None
-10,./instructions/inst_prac_2/Slide7.png,left,12.98183512,133.211838,146.1936731,,,,,,,,,,,,,,,,,,,,,,,,,,,,,,,,,1,,,,,,,,,,,,,,,,,,,,,,,,,,,,,,,,,,,,,,,,,,,,,,75,152824,21,Female,1,2024/02/22_09:55:42,YZ,None
,,,,,,practice,0,19,2,2583,1,C,0,left,6.522001973,0,0,,,,,,,,,,,,,,,,,,,,,1,,,,,,,,,,,,,,,,,,,,,,,,,,,,,,,,,,,,,,,,,,,,,,75,152824,21,Female,1,2024/02/22_09:55:42,YZ,None
,,,,,,practice,0,19,2,2583,2,N,0,right,1.867496826,1,0,,,,,,,,,,,,,,,,,,,,,1,,,,,,,,,,,,,,,,,,,,,,,,,,,,,,,,,,,,,,,,,,,,,,75,152824,21,Female,1,2024/02/22_09:55:42,YZ,None
,,,,,,practice,0,19,2,2583,3,C,1,left,1.372041542,1,0,,,,,,,,,,,,,,,,,,,,,1,,,,,,,,,,,,,,,,,,,,,,,,,,,,,,,,,,,,,,,,,,,,,,75,152824,21,Female,1,2024/02/22_09:55:42,YZ,None
,,,,,,practice,0,19,2,2583,4,N,1,right,2.00791886,0,0,,,,,,,,,,,,,,,,,,,,,1,,,,,,,,,,,,,,,,,,,,,,,,,,,,,,,,,,,,,,,,,,,,,,75,152824,21,Female,1,2024/02/22_09:55:42,YZ,None
,,,,,,practice,0,19,2,2583,5,S,0,left,2.790062599,0,0,,,,,,,,,,,,,,,,,,,,,1,,,,,,,,,,,,,,,,,,,,,,,,,,,,,,,,,,,,,,,,,,,,,,75,152824,21,Female,1,2024/02/22_09:55:42,YZ,None
,,,,,,practice,0,19,2,2583,6,Q,0,left,1.130093127,0,0,,,,,,,,,,,,,,,,,,,,,1,,,,,,,,,,,,,,,,,,,,,,,,,,,,,,,,,,,,,,,,,,,,,,75,152824,21,Female,1,2024/02/22_09:55:42,YZ,None
,,,,,,practice,0,19,2,2583,,,,,,,,0.0625,0.5,0.75,0.25,0,0.25,2.614935821,1,3,0,0,0,1,2,2,4,0,,,,1,,,,,,,,,,,,,,,,,,,,,,,,,,,,,,,,,,,,,,,,,,,,,,75,152824,21,Female,1,2024/02/22_09:55:42,YZ,None
-1,./instructions/inst_redo_2/Slide18.png,left,16.93202084,170.3095648,187.2415856,,,,,,,,,,,,,,,,,,,,,,,,,,,,,,,,,1,,,,,,,,,,,,,,,,,,,,,,,,,,,,,,,,,,,,,,,,,,,,,,75,152824,21,Female,1,2024/02/22_09:55:42,YZ,None
,,,,,,practice,0,4,2,2583,1,J,0,right,2.582385723,1,0,,,,,,,,,,,,,,,,,,,,,1,,,,,,,,,,,,,,,,,,,,,,,,,,,,,,,,,,,,,,,,,,,,,,75,152824,21,Female,1,2024/02/22_09:55:42,YZ,None
,,,,,,practice,0,4,2,2583,2,C,0,left,1.557573132,0,0,,,,,,,,,,,,,,,,,,,,,1,,,,,,,,,,,,,,,,,,,,,,,,,,,,,,,,,,,,,,,,,,,,,,75,152824,21,Female,1,2024/02/22_09:55:42,YZ,None
,,,,,,practice,0,4,2,2583,3,J,1,left,1.660316753,1,0,,,,,,,,,,,,,,,,,,,,,1,,,,,,,,,,,,,,,,,,,,,,,,,,,,,,,,,,,,,,,,,,,,,,75,152824,21,Female,1,2024/02/22_09:55:42,YZ,None
,,,,,,practice,0,4,2,2583,4,C,1,right,1.936656104,0,0,,,,,,,,,,,,,,,,,,,,,1,,,,,,,,,,,,,,,,,,,,,,,,,,,,,,,,,,,,,,,,,,,,,,75,152824,21,Female,1,2024/02/22_09:55:42,YZ,None
,,,,,,practice,0,4,2,2583,5,X,0,left,1.274448229,0,0,,,,,,,,,,,,,,,,,,,,,1,,,,,,,,,,,,,,,,,,,,,,,,,,,,,,,,,,,,,,,,,,,,,,75,152824,21,Female,1,2024/02/22_09:55:42,YZ,None
,,,,,,practice,0,4,2,2583,6,S,0,left,1.231037204,0,0,,,,,,,,,,,,,,,,,,,,,1,,,,,,,,,,,,,,,,,,,,,,,,,,,,,,,,,,,,,,,,,,,,,,75,152824,21,Female,1,2024/02/22_09:55:42,YZ,None
,,,,,,practice,0,4,2,2583,,,,,,,,0.0625,0.5,0.75,0.25,0,0.25,1.707069524,1,3,0,0,0,1,2,2,4,0,,,,1,,,,,,,,,,,,,,,,,,,,,,,,,,,,,,,,,,,,,,,,,,,,,,75,152824,21,Female,1,2024/02/22_09:55:42,YZ,None
-1,./instructions/inst_redo_2/Slide18.png,left,6.764975031,206.8847337,213.6497088,,,,,,,,,,,,,,,,,,,,,,,,,,,,,,,,,1,,,,,,,,,,,,,,,,,,,,,,,,,,,,,,,,,,,,,,,,,,,,,,75,152824,21,Female,1,2024/02/22_09:55:42,YZ,None
,,,,,,practice,0,35,2,2583,1,F,0,right,1.247987035,1,0,,,,,,,,,,,,,,,,,,,,,1,,,,,,,,,,,,,,,,,,,,,,,,,,,,,,,,,,,,,,,,,,,,,,75,152824,21,Female,1,2024/02/22_09:55:42,YZ,None
,,,,,,practice,0,35,2,2583,2,V,0,right,1.028516593,1,0,,,,,,,,,,,,,,,,,,,,,1,,,,,,,,,,,,,,,,,,,,,,,,,,,,,,,,,,,,,,,,,,,,,,75,152824,21,Female,1,2024/02/22_09:55:42,YZ,None
,,,,,,practice,0,35,2,2583,3,F,1,left,1.806205186,1,0,,,,,,,,,,,,,,,,,,,,,1,,,,,,,,,,,,,,,,,,,,,,,,,,,,,,,,,,,,,,,,,,,,,,75,152824,21,Female,1,2024/02/22_09:55:42,YZ,None
,,,,,,practice,0,35,2,2583,4,J,0,left,1.652282177,0,0,,,,,,,,,,,,,,,,,,,,,1,,,,,,,,,,,,,,,,,,,,,,,,,,,,,,,,,,,,,,,,,,,,,,75,152824,21,Female,1,2024/02/22_09:55:42,YZ,None
,,,,,,practice,0,35,2,2583,5,C,0,left,1.443770819,0,0,,,,,,,,,,,,,,,,,,,,,1,,,,,,,,,,,,,,,,,,,,,,,,,,,,,,,,,,,,,,,,,,,,,,75,152824,21,Female,1,2024/02/22_09:55:42,YZ,None
,,,,,,practice,0,35,2,2583,6,J,1,right,1.986865153,0,0,,,,,,,,,,,,,,,,,,,,,1,,,,,,,,,,,,,,,,,,,,,,,,,,,,,,,,,,,,,,,,,,,,,,75,152824,21,Female,1,2024/02/22_09:55:42,YZ,None
,,,,,,practice,0,35,2,2583,,,,,,,,0.5,0.5,0.5,0.5,0,0.5,1.527604494,1,2,0,0,0,2,3,2,4,0,,,,1,,,,,,,,,,,,,,,,,,,,,,,,,,,,,,,,,,,,,,,,,,,,,,75,152824,21,Female,1,2024/02/22_09:55:42,YZ,None
-1,./instructions/inst_redo_2/Slide18.png,left,8.217018412,231.704384,239.9214025,,,,,,,,,,,,,,,,,,,,,,,,,,,,,,,,,1,,,,,,,,,,,,,,,,,,,,,,,,,,,,,,,,,,,,,,,,,,,,,,75,152824,21,Female,1,2024/02/22_09:55:42,YZ,None
,,,,,,practice,0,17,2,2583,1,C,0,right,2.890388006,1,0,,,,,,,,,,,,,,,,,,,,,1,,,,,,,,,,,,,,,,,,,,,,,,,,,,,,,,,,,,,,,,,,,,,,75,152824,21,Female,1,2024/02/22_09:55:42,YZ,None
,,,,,,practice,0,17,2,2583,2,N,0,right,2.838168837,1,0,,,,,,,,,,,,,,,,,,,,,1,,,,,,,,,,,,,,,,,,,,,,,,,,,,,,,,,,,,,,,,,,,,,,75,152824,21,Female,1,2024/02/22_09:55:42,YZ,None
,,,,,,practice,0,17,2,2583,3,S,0,left,1.26269352,0,0,,,,,,,,,,,,,,,,,,,,,1,,,,,,,,,,,,,,,,,,,,,,,,,,,,,,,,,,,,,,,,,,,,,,75,152824,21,Female,1,2024/02/22_09:55:42,YZ,None
,,,,,,practice,0,17,2,2583,4,X,0,left,1.444554461,0,0,,,,,,,,,,,,,,,,,,,,,1,,,,,,,,,,,,,,,,,,,,,,,,,,,,,,,,,,,,,,,,,,,,,,75,152824,21,Female,1,2024/02/22_09:55:42,YZ,None
,,,,,,practice,0,17,2,2583,5,S,1,right,1.514646785,0,0,,,,,,,,,,,,,,,,,,,,,1,,,,,,,,,,,,,,,,,,,,,,,,,,,,,,,,,,,,,,,,,,,,,,75,152824,21,Female,1,2024/02/22_09:55:42,YZ,None
,,,,,,practice,0,17,2,2583,6,X,1,right,2.596126921,0,0,,,,,,,,,,,,,,,,,,,,,1,,,,,,,,,,,,,,,,,,,,,,,,,,,,,,,,,,,,,,,,,,,,,,75,152824,21,Female,1,2024/02/22_09:55:42,YZ,None
,,,,,,practice,0,17,2,2583,,,,,,,,0.125,0,0.5,0.5,0,0.5,2.091096422,0,2,0,0,0,2,2,2,4,0,,,,1,,,,,,,,,,,,,,,,,,,,,,,,,,,,,,,,,,,,,,,,,,,,,,75,152824,21,Female,1,2024/02/22_09:55:42,YZ,None
-1,./instructions/inst_redo_2/Slide18.png,left,46.74695791,261.8703719,308.6173298,,,,,,,,,,,,,,,,,,,,,,,,,,,,,,,,,1,,,,,,,,,,,,,,,,,,,,,,,,,,,,,,,,,,,,,,,,,,,,,,75,152824,21,Female,1,2024/02/22_09:55:42,YZ,None
,,,,,,practice,0,10,2,2583,1,Q,0,right,2.529342158,1,0,,,,,,,,,,,,,,,,,,,,,1,,,,,,,,,,,,,,,,,,,,,,,,,,,,,,,,,,,,,,,,,,,,,,75,152824,21,Female,1,2024/02/22_09:55:42,YZ,None
,,,,,,practice,0,10,2,2583,2,C,0,right,1.668620838,1,0,,,,,,,,,,,,,,,,,,,,,1,,,,,,,,,,,,,,,,,,,,,,,,,,,,,,,,,,,,,,,,,,,,,,75,152824,21,Female,1,2024/02/22_09:55:42,YZ,None
,,,,,,practice,0,10,2,2583,3,J,0,left,1.979847548,0,0,,,,,,,,,,,,,,,,,,,,,1,,,,,,,,,,,,,,,,,,,,,,,,,,,,,,,,,,,,,,,,,,,,,,75,152824,21,Female,1,2024/02/22_09:55:42,YZ,None
,,,,,,practice,0,10,2,2583,4,C,1,left,1.437309792,1,0,,,,,,,,,,,,,,,,,,,,,1,,,,,,,,,,,,,,,,,,,,,,,,,,,,,,,,,,,,,,,,,,,,,,75,152824,21,Female,1,2024/02/22_09:55:42,YZ,None
,,,,,,practice,0,10,2,2583,5,S,0,right,1.968774155,1,0,,,,,,,,,,,,,,,,,,,,,1,,,,,,,,,,,,,,,,,,,,,,,,,,,,,,,,,,,,,,,,,,,,,,75,152824,21,Female,1,2024/02/22_09:55:42,YZ,None
,,,,,,practice,0,10,2,2583,6,C,1,left,1.366035629,1,0,,,,,,,,,,,,,,,,,,,,,1,,,,,,,,,,,,,,,,,,,,,,,,,,,,,,,,,,,,,,,,,,,,,,75,152824,21,Female,1,2024/02/22_09:55:42,YZ,None
,,,,,,practice,0,10,2,2583,,,,,,,,0.9375,1,0.25,0.75,0,0.75,1.824988353,2,1,0,0,0,3,5,2,4,0,,,,1,,,,,,,,,,,,,,,,,,,,,,,,,,,,,,,,,,,,,,,,,,,,,,75,152824,21,Female,1,2024/02/22_09:55:42,YZ,None
-1,./instructions/inst_to_cali/Slide20.png,left,4.78257457,327.4351494,332.217724,,,,,,,,,,,,,,,,,,,,,,,,,,,,,,,,,1,,,,,,,,,,,,,,,,,,,,,,,,,,,,,,,,,,,,,,,,,,,,,,75,152824,21,Female,1,2024/02/22_09:55:42,YZ,None
,,,,,,practice,0,17,2,2583,1,C,0,right,4.689173203,1,0,,,,,,,,,,,,,,,,,,,,,1,,,,,,,,,,,,,,,,,,,,,,,,,,,,,,,,,,,,,,,,,,,,,,75,152824,21,Female,1,2024/02/22_09:55:42,YZ,None
,,,,,,practice,0,17,2,2583,2,N,0,right,2.365071207,1,0,,,,,,,,,,,,,,,,,,,,,1,,,,,,,,,,,,,,,,,,,,,,,,,,,,,,,,,,,,,,,,,,,,,,75,152824,21,Female,1,2024/02/22_09:55:42,YZ,None
,,,,,,practice,0,17,2,2583,3,S,0,left,0.973004088,0,0,,,,,,,,,,,,,,,,,,,,,1,,,,,,,,,,,,,,,,,,,,,,,,,,,,,,,,,,,,,,,,,,,,,,75,152824,21,Female,1,2024/02/22_09:55:42,YZ,None
,,,,,,practice,0,17,2,2583,4,X,0,left,1.472393988,0,0,,,,,,,,,,,,,,,,,,,,,1,,,,,,,,,,,,,,,,,,,,,,,,,,,,,,,,,,,,,,,,,,,,,,75,152824,21,Female,1,2024/02/22_09:55:42,YZ,None
,,,,,,practice,0,17,2,2583,5,S,1,right,1.612913332,0,0,,,,,,,,,,,,,,,,,,,,,1,,,,,,,,,,,,,,,,,,,,,,,,,,,,,,,,,,,,,,,,,,,,,,75,152824,21,Female,1,2024/02/22_09:55:42,YZ,None
,,,,,,practice,0,17,2,2583,6,X,1,left,2.173240682,1,0,,,,,,,,,,,,,,,,,,,,,1,,,,,,,,,,,,,,,,,,,,,,,,,,,,,,,,,,,,,,,,,,,,,,75,152824,21,Female,1,2024/02/22_09:55:42,YZ,None
,,,,,,practice,0,17,2,2583,,,,,,,,0.5,0.5,0.5,0.5,0,0.5,2.214299417,1,2,0,0,0,2,3,2,4,0,,,,1,,,,,,,,,,,,,,,,,,,,,,,,,,,,,,,,,,,,,,,,,,,,,,75,152824,21,Female,1,2024/02/22_09:55:42,YZ,None
-1,./instructions/inst_redo_2/Slide18.png,left,3.595682598,354.3898933,357.9855759,,,,,,,,,,,,,,,,,,,,,,,,,,,,,,,,,1,,,,,,,,,,,,,,,,,,,,,,,,,,,,,,,,,,,,,,,,,,,,,,75,152824,21,Female,1,2024/02/22_09:55:42,YZ,None
,,,,,,practice,0,9,2,2583,1,C,0,right,1.217175571,1,0,,,,,,,,,,,,,,,,,,,,,1,,,,,,,,,,,,,,,,,,,,,,,,,,,,,,,,,,,,,,,,,,,,,,75,152824,21,Female,1,2024/02/22_09:55:42,YZ,None
,,,,,,practice,0,9,2,2583,2,F,0,right,1.181446751,1,0,,,,,,,,,,,,,,,,,,,,,1,,,,,,,,,,,,,,,,,,,,,,,,,,,,,,,,,,,,,,,,,,,,,,75,152824,21,Female,1,2024/02/22_09:55:42,YZ,None
,,,,,,practice,0,9,2,2583,3,C,1,left,1.612873048,1,0,,,,,,,,,,,,,,,,,,,,,1,,,,,,,,,,,,,,,,,,,,,,,,,,,,,,,,,,,,,,,,,,,,,,75,152824,21,Female,1,2024/02/22_09:55:42,YZ,None
,,,,,,practice,0,9,2,2583,4,Q,0,right,1.742407837,1,0,,,,,,,,,,,,,,,,,,,,,1,,,,,,,,,,,,,,,,,,,,,,,,,,,,,,,,,,,,,,,,,,,,,,75,152824,21,Female,1,2024/02/22_09:55:42,YZ,None
,,,,,,practice,0,9,2,2583,5,N,0,left,1.365130043,0,0,,,,,,,,,,,,,,,,,,,,,1,,,,,,,,,,,,,,,,,,,,,,,,,,,,,,,,,,,,,,,,,,,,,,75,152824,21,Female,1,2024/02/22_09:55:42,YZ,None
,,,,,,practice,0,9,2,2583,6,Q,1,right,1.414069614,0,0,,,,,,,,,,,,,,,,,,,,,1,,,,,,,,,,,,,,,,,,,,,,,,,,,,,,,,,,,,,,,,,,,,,,75,152824,21,Female,1,2024/02/22_09:55:42,YZ,None
,,,,,,practice,0,9,2,2583,,,,,,,,0.6875,0.5,0.25,0.75,0,0.75,1.422183811,1,1,0,0,0,3,4,2,4,0,,,,1,,,,,,,,,,,,,,,,,,,,,,,,,,,,,,,,,,,,,,,,,,,,,,75,152824,21,Female,1,2024/02/22_09:55:42,YZ,None
-1,./instructions/inst_redo_2/Slide18.png,left,4.414894727,374.8905083,379.3054031,,,,,,,,,,,,,,,,,,,,,,,,,,,,,,,,,1,,,,,,,,,,,,,,,,,,,,,,,,,,,,,,,,,,,,,,,,,,,,,,75,152824,21,Female,1,2024/02/22_09:55:42,YZ,None
,,,,,,practice,0,21,2,2583,1,S,0,right,2.785742837,1,0,,,,,,,,,,,,,,,,,,,,,1,,,,,,,,,,,,,,,,,,,,,,,,,,,,,,,,,,,,,,,,,,,,,,75,152824,21,Female,1,2024/02/22_09:55:42,YZ,None
,,,,,,practice,0,21,2,2583,2,V,0,right,0.781537525,1,0,,,,,,,,,,,,,,,,,,,,,1,,,,,,,,,,,,,,,,,,,,,,,,,,,,,,,,,,,,,,,,,,,,,,75,152824,21,Female,1,2024/02/22_09:55:42,YZ,None
,,,,,,practice,0,21,2,2583,3,N,0,left,1.067746283,0,0,,,,,,,,,,,,,,,,,,,,,1,,,,,,,,,,,,,,,,,,,,,,,,,,,,,,,,,,,,,,,,,,,,,,75,152824,21,Female,1,2024/02/22_09:55:42,YZ,None
,,,,,,practice,0,21,2,2583,4,V,1,right,4.580778376,0,0,,,,,,,,,,,,,,,,,,,,,1,,,,,,,,,,,,,,,,,,,,,,,,,,,,,,,,,,,,,,,,,,,,,,75,152824,21,Female,1,2024/02/22_09:55:42,YZ,None
,,,,,,practice,0,21,2,2583,5,N,1,right,1.306856367,0,0,,,,,,,,,,,,,,,,,,,,,1,,,,,,,,,,,,,,,,,,,,,,,,,,,,,,,,,,,,,,,,,,,,,,75,152824,21,Female,1,2024/02/22_09:55:42,YZ,None
,,,,,,practice,0,21,2,2583,6,S,0,left,1.192225721,0,0,,,,,,,,,,,,,,,,,,,,,1,,,,,,,,,,,,,,,,,,,,,,,,,,,,,,,,,,,,,,,,,,,,,,75,152824,21,Female,1,2024/02/22_09:55:42,YZ,None
,,,,,,practice,0,21,2,2583,,,,,,,,0.125,0,0.5,0.5,0,0.5,1.952481185,0,2,0,0,0,2,2,2,4,0,,,,1,,,,,,,,,,,,,,,,,,,,,,,,,,,,,,,,,,,,,,,,,,,,,,75,152824,21,Female,1,2024/02/22_09:55:42,YZ,None
-1,./instructions/inst_redo_2/Slide18.png,left,3.793958876,400.4157372,404.2096961,,,,,,,,,,,,,,,,,,,,,,,,,,,,,,,,,1,,,,,,,,,,,,,,,,,,,,,,,,,,,,,,,,,,,,,,,,,,,,,,75,152824,21,Female,1,2024/02/22_09:55:42,YZ,None
,,,,,,practice,0,26,2,2583,1,X,0,right,1.083739195,1,0,,,,,,,,,,,,,,,,,,,,,1,,,,,,,,,,,,,,,,,,,,,,,,,,,,,,,,,,,,,,,,,,,,,,75,152824,21,Female,1,2024/02/22_09:55:42,YZ,None
,,,,,,practice,0,26,2,2583,2,V,0,left,1.069689312,0,0,,,,,,,,,,,,,,,,,,,,,1,,,,,,,,,,,,,,,,,,,,,,,,,,,,,,,,,,,,,,,,,,,,,,75,152824,21,Female,1,2024/02/22_09:55:42,YZ,None
,,,,,,practice,0,26,2,2583,3,X,1,left,2.689922147,1,0,,,,,,,,,,,,,,,,,,,,,1,,,,,,,,,,,,,,,,,,,,,,,,,,,,,,,,,,,,,,,,,,,,,,75,152824,21,Female,1,2024/02/22_09:55:42,YZ,None
,,,,,,practice,0,26,2,2583,4,C,0,right,0.949024956,1,0,,,,,,,,,,,,,,,,,,,,,1,,,,,,,,,,,,,,,,,,,,,,,,,,,,,,,,,,,,,,,,,,,,,,75,152824,21,Female,1,2024/02/22_09:55:42,YZ,None
,,,,,,practice,0,26,2,2583,5,X,1,left,1.048312954,1,0,,,,,,,,,,,,,,,,,,,,,1,,,,,,,,,,,,,,,,,,,,,,,,,,,,,,,,,,,,,,,,,,,,,,75,152824,21,Female,1,2024/02/22_09:55:42,YZ,None
,,,,,,practice,0,26,2,2583,6,V,0,left,0.980883745,0,0,,,,,,,,,,,,,,,,,,,,,1,,,,,,,,,,,,,,,,,,,,,,,,,,,,,,,,,,,,,,,,,,,,,,75,152824,21,Female,1,2024/02/22_09:55:42,YZ,None
,,,,,,practice,0,26,2,2583,,,,,,,,0.875,1,0.5,0.5,0,0.5,1.303595385,2,2,0,0,0,2,4,2,4,0,,,,1,,,,,,,,,,,,,,,,,,,,,,,,,,,,,,,,,,,,,,,,,,,,,,75,152824,21,Female,1,2024/02/22_09:55:42,YZ,None
-1,./instructions/inst_to_cali/Slide20.png,left,6.516384254,420.4051532,426.9215375,,,,,,,,,,,,,,,,,,,,,,,,,,,,,,,,,1,,,,,,,,,,,,,,,,,,,,,,,,,,,,,,,,,,,,,,,,,,,,,,75,152824,21,Female,1,2024/02/22_09:55:42,YZ,None
,,,,,,practice,0,28,2,2583,1,S,0,right,6.185027253,1,0,,,,,,,,,,,,,,,,,,,,,1,,,,,,,,,,,,,,,,,,,,,,,,,,,,,,,,,,,,,,,,,,,,,,75,152824,21,Female,1,2024/02/22_09:55:42,YZ,None
,,,,,,practice,0,28,2,2583,2,F,0,right,2.708705654,1,0,,,,,,,,,,,,,,,,,,,,,1,,,,,,,,,,,,,,,,,,,,,,,,,,,,,,,,,,,,,,,,,,,,,,75,152824,21,Female,1,2024/02/22_09:55:42,YZ,None
,,,,,,practice,0,28,2,2583,3,S,1,left,1.064004695,1,0,,,,,,,,,,,,,,,,,,,,,1,,,,,,,,,,,,,,,,,,,,,,,,,,,,,,,,,,,,,,,,,,,,,,75,152824,21,Female,1,2024/02/22_09:55:42,YZ,None
,,,,,,practice,0,28,2,2583,4,Q,0,right,1.468509524,1,0,,,,,,,,,,,,,,,,,,,,,1,,,,,,,,,,,,,,,,,,,,,,,,,,,,,,,,,,,,,,,,,,,,,,75,152824,21,Female,1,2024/02/22_09:55:42,YZ,None
,,,,,,practice,0,28,2,2583,5,X,0,left,1.428507928,0,0,,,,,,,,,,,,,,,,,,,,,1,,,,,,,,,,,,,,,,,,,,,,,,,,,,,,,,,,,,,,,,,,,,,,75,152824,21,Female,1,2024/02/22_09:55:42,YZ,None
,,,,,,practice,0,28,2,2583,6,Q,1,right,1.557417872,0,0,,,,,,,,,,,,,,,,,,,,,1,,,,,,,,,,,,,,,,,,,,,,,,,,,,,,,,,,,,,,,,,,,,,,75,152824,21,Female,1,2024/02/22_09:55:42,YZ,None
,,,,,,practice,0,28,2,2583,,,,,,,,0.6875,0.5,0.25,0.75,0,0.75,2.402028821,1,1,0,0,0,3,4,2,4,0,,,,1,,,,,,,,,,,,,,,,,,,,,,,,,,,,,,,,,,,,,,,,,,,,,,75,152824,21,Female,1,2024/02/22_09:55:42,YZ,None
-1,./instructions/inst_redo_2/Slide18.png,left,3.125796249,449.7077066,452.8335028,,,,,,,,,,,,,,,,,,,,,,,,,,,,,,,,,1,,,,,,,,,,,,,,,,,,,,,,,,,,,,,,,,,,,,,,,,,,,,,,75,152824,21,Female,1,2024/02/22_09:55:42,YZ,None
,,,,,,practice,0,8,2,2583,1,X,0,right,1.386666621,1,0,,,,,,,,,,,,,,,,,,,,,1,,,,,,,,,,,,,,,,,,,,,,,,,,,,,,,,,,,,,,,,,,,,,,75,152824,21,Female,1,2024/02/22_09:55:42,YZ,None
,,,,,,practice,0,8,2,2583,2,C,0,left,3.405986093,0,0,,,,,,,,,,,,,,,,,,,,,1,,,,,,,,,,,,,,,,,,,,,,,,,,,,,,,,,,,,,,,,,,,,,,75,152824,21,Female,1,2024/02/22_09:55:42,YZ,None
,,,,,,practice,0,8,2,2583,3,X,1,right,1.29137711,0,0,,,,,,,,,,,,,,,,,,,,,1,,,,,,,,,,,,,,,,,,,,,,,,,,,,,,,,,,,,,,,,,,,,,,75,152824,21,Female,1,2024/02/22_09:55:42,YZ,None
,,,,,,practice,0,8,2,2583,4,C,1,left,1.083796108,1,0,,,,,,,,,,,,,,,,,,,,,1,,,,,,,,,,,,,,,,,,,,,,,,,,,,,,,,,,,,,,,,,,,,,,75,152824,21,Female,1,2024/02/22_09:55:42,YZ,None
,,,,,,practice,0,8,2,2583,5,Q,0,left,0.820413394,0,0,,,,,,,,,,,,,,,,,,,,,1,,,,,,,,,,,,,,,,,,,,,,,,,,,,,,,,,,,,,,,,,,,,,,75,152824,21,Female,1,2024/02/22_09:55:42,YZ,None
,,,,,,practice,0,8,2,2583,6,V,0,left,0.756606485,0,0,,,,,,,,,,,,,,,,,,,,,1,,,,,,,,,,,,,,,,,,,,,,,,,,,,,,,,,,,,,,,,,,,,,,75,152824,21,Female,1,2024/02/22_09:55:42,YZ,None
,,,,,,practice,0,8,2,2583,,,,,,,,0.0625,0.5,0.75,0.25,0,0.25,1.457474302,1,3,0,0,0,1,2,2,4,0,,,,1,,,,,,,,,,,,,,,,,,,,,,,,,,,,,,,,,,,,,,,,,,,,,,75,152824,21,Female,1,2024/02/22_09:55:42,YZ,None
-1,./instructions/inst_redo_2/Slide18.png,left,1.958535445,470.9789097,472.9374452,,,,,,,,,,,,,,,,,,,,,,,,,,,,,,,,,1,,,,,,,,,,,,,,,,,,,,,,,,,,,,,,,,,,,,,,,,,,,,,,75,152824,21,Female,1,2024/02/22_09:55:42,YZ,None
,,,,,,practice,0,5,2,2583,1,J,0,right,4.019447637,1,0,,,,,,,,,,,,,,,,,,,,,1,,,,,,,,,,,,,,,,,,,,,,,,,,,,,,,,,,,,,,,,,,,,,,75,152824,21,Female,1,2024/02/22_09:55:42,YZ,None
,,,,,,practice,0,5,2,2583,2,J,0,right,0.974093764,1,0,,,,,,,,,,,,,,,,,,,,,1,,,,,,,,,,,,,,,,,,,,,,,,,,,,,,,,,,,,,,,,,,,,,,75,152824,21,Female,1,2024/02/22_09:55:42,YZ,None
,,,,,,practice,0,5,2,2583,3,C,0,left,1.286211326,0,0,,,,,,,,,,,,,,,,,,,,,1,,,,,,,,,,,,,,,,,,,,,,,,,,,,,,,,,,,,,,,,,,,,,,75,152824,21,Female,1,2024/02/22_09:55:42,YZ,None
,,,,,,practice,0,5,2,2583,4,J,1,left,1.796826017,1,0,,,,,,,,,,,,,,,,,,,,,1,,,,,,,,,,,,,,,,,,,,,,,,,,,,,,,,,,,,,,,,,,,,,,75,152824,21,Female,1,2024/02/22_09:55:42,YZ,None
,,,,,,practice,0,5,2,2583,5,C,1,left,1.388288275,1,0,,,,,,,,,,,,,,,,,,,,,1,,,,,,,,,,,,,,,,,,,,,,,,,,,,,,,,,,,,,,,,,,,,,,75,152824,21,Female,1,2024/02/22_09:55:42,YZ,None
,,,,,,practice,0,5,2,2583,6,V,0,left,1.700517227,0,0,,,,,,,,,,,,,,,,,,,,,1,,,,,,,,,,,,,,,,,,,,,,,,,,,,,,,,,,,,,,,,,,,,,,75,152824,21,Female,1,2024/02/22_09:55:42,YZ,None
,,,,,,practice,0,5,2,2583,,,,,,,,0.875,1,0.5,0.5,0,0.5,1.860897374,2,2,0,0,0,2,4,2,4,0,,,,1,,,,,,,,,,,,,,,,,,,,,,,,,,,,,,,,,,,,,,,,,,,,,,75,152824,21,Female,1,2024/02/22_09:55:42,YZ,None
-1,./instructions/inst_to_cali/Slide20.png,left,23.3575255,492.4760393,515.8335648,,,,,,,,,,,,,,,,,,,,,,,,,,,,,,,,,1,,,,,,,,,,,,,,,,,,,,,,,,,,,,,,,,,,,,,,,,,,,,,,75,152824,21,Female,1,2024/02/22_09:55:42,YZ,None
,,,,,,practice,0,21,2,2583,1,S,0,right,2.313240422,1,0,,,,,,,,,,,,,,,,,,,,,1,,,,,,,,,,,,,,,,,,,,,,,,,,,,,,,,,,,,,,,,,,,,,,75,152824,21,Female,1,2024/02/22_09:55:42,YZ,None
,,,,,,practice,0,21,2,2583,2,V,0,right,1.549048478,1,0,,,,,,,,,,,,,,,,,,,,,1,,,,,,,,,,,,,,,,,,,,,,,,,,,,,,,,,,,,,,,,,,,,,,75,152824,21,Female,1,2024/02/22_09:55:42,YZ,None
,,,,,,practice,0,21,2,2583,3,N,0,left,1.206408478,0,0,,,,,,,,,,,,,,,,,,,,,1,,,,,,,,,,,,,,,,,,,,,,,,,,,,,,,,,,,,,,,,,,,,,,75,152824,21,Female,1,2024/02/22_09:55:42,YZ,None
,,,,,,practice,0,21,2,2583,4,V,1,left,0.736802895,1,0,,,,,,,,,,,,,,,,,,,,,1,,,,,,,,,,,,,,,,,,,,,,,,,,,,,,,,,,,,,,,,,,,,,,75,152824,21,Female,1,2024/02/22_09:55:42,YZ,None
,,,,,,practice,0,21,2,2583,5,N,1,right,1.288937023,0,0,,,,,,,,,,,,,,,,,,,,,1,,,,,,,,,,,,,,,,,,,,,,,,,,,,,,,,,,,,,,,,,,,,,,75,152824,21,Female,1,2024/02/22_09:55:42,YZ,None
,,,,,,practice,0,21,2,2583,6,S,0,left,1.158200137,0,0,,,,,,,,,,,,,,,,,,,,,1,,,,,,,,,,,,,,,,,,,,,,,,,,,,,,,,,,,,,,,,,,,,,,75,152824,21,Female,1,2024/02/22_09:55:42,YZ,None
,,,,,,practice,0,21,2,2583,,,,,,,,0.5,0.5,0.5,0.5,0,0.5,1.375439572,1,2,0,0,0,2,3,2,4,0,,,,1,,,,,,,,,,,,,,,,,,,,,,,,,,,,,,,,,,,,,,,,,,,,,,75,152824,21,Female,1,2024/02/22_09:55:42,YZ,None
-1,./instructions/inst_redo_2/Slide18.png,left,1.752636769,532.9608181,534.7134548,,,,,,,,,,,,,,,,,,,,,,,,,,,,,,,,,1,,,,,,,,,,,,,,,,,,,,,,,,,,,,,,,,,,,,,,,,,,,,,,75,152824,21,Female,1,2024/02/22_09:55:42,YZ,None
,,,,,,practice,0,16,2,2583,1,S,0,right,2.953571674,1,0,,,,,,,,,,,,,,,,,,,,,1,,,,,,,,,,,,,,,,,,,,,,,,,,,,,,,,,,,,,,,,,,,,,,75,152824,21,Female,1,2024/02/22_09:55:42,YZ,None
,,,,,,practice,0,16,2,2583,2,Q,0,right,0.779979785,1,0,,,,,,,,,,,,,,,,,,,,,1,,,,,,,,,,,,,,,,,,,,,,,,,,,,,,,,,,,,,,,,,,,,,,75,152824,21,Female,1,2024/02/22_09:55:42,YZ,None
,,,,,,practice,0,16,2,2583,3,X,0,right,1.308565699,1,0,,,,,,,,,,,,,,,,,,,,,1,,,,,,,,,,,,,,,,,,,,,,,,,,,,,,,,,,,,,,,,,,,,,,75,152824,21,Female,1,2024/02/22_09:55:42,YZ,None
,,,,,,practice,0,16,2,2583,4,Q,1,right,1.263188322,0,0,,,,,,,,,,,,,,,,,,,,,1,,,,,,,,,,,,,,,,,,,,,,,,,,,,,,,,,,,,,,,,,,,,,,75,152824,21,Female,1,2024/02/22_09:55:42,YZ,None
,,,,,,practice,0,16,2,2583,5,V,0,right,1.611196588,1,0,,,,,,,,,,,,,,,,,,,,,1,,,,,,,,,,,,,,,,,,,,,,,,,,,,,,,,,,,,,,,,,,,,,,75,152824,21,Female,1,2024/02/22_09:55:42,YZ,None
,,,,,,practice,0,16,2,2583,6,Q,1,left,1.071546473,1,0,,,,,,,,,,,,,,,,,,,,,1,,,,,,,,,,,,,,,,,,,,,,,,,,,,,,,,,,,,,,,,,,,,,,75,152824,21,Female,1,2024/02/22_09:55:42,YZ,None
,,,,,,practice,0,16,2,2583,,,,,,,,0.875,0.5,0,1,0,1,1.49800809,1,0,0,0,0,4,5,2,4,0,,,,1,,,,,,,,,,,,,,,,,,,,,,,,,,,,,,,,,,,,,,,,,,,,,,75,152824,21,Female,1,2024/02/22_09:55:42,YZ,None
-1,./instructions/inst_to_cali/Slide20.png,left,42.42052002,551.5650993,593.9856193,,,,,,,,,,,,,,,,,,,,,,,,,,,,,,,,,1,,,,,,,,,,,,,,,,,,,,,,,,,,,,,,,,,,,,,,,,,,,,,,75,152824,21,Female,1,2024/02/22_09:55:42,YZ,None
,,,,,,practice,0,28,2,2583,1,S,0,right,7.081474526,1,0,,,,,,,,,,,,,,,,,,,,,1,,,,,,,,,,,,,,,,,,,,,,,,,,,,,,,,,,,,,,,,,,,,,,75,152824,21,Female,1,2024/02/22_09:55:42,YZ,None
,,,,,,practice,0,28,2,2583,2,F,0,left,5.085562425,0,0,,,,,,,,,,,,,,,,,,,,,1,,,,,,,,,,,,,,,,,,,,,,,,,,,,,,,,,,,,,,,,,,,,,,75,152824,21,Female,1,2024/02/22_09:55:42,YZ,None
,,,,,,practice,0,28,2,2583,3,S,1,left,2.107428331,1,0,,,,,,,,,,,,,,,,,,,,,1,,,,,,,,,,,,,,,,,,,,,,,,,,,,,,,,,,,,,,,,,,,,,,75,152824,21,Female,1,2024/02/22_09:55:42,YZ,None
,,,,,,practice,0,28,2,2583,4,Q,0,right,0.950299982,1,0,,,,,,,,,,,,,,,,,,,,,1,,,,,,,,,,,,,,,,,,,,,,,,,,,,,,,,,,,,,,,,,,,,,,75,152824,21,Female,1,2024/02/22_09:55:42,YZ,None
,,,,,,practice,0,28,2,2583,5,X,0,left,0.902074209,0,0,,,,,,,,,,,,,,,,,,,,,1,,,,,,,,,,,,,,,,,,,,,,,,,,,,,,,,,,,,,,,,,,,,,,75,152824,21,Female,1,2024/02/22_09:55:42,YZ,None
,,,,,,practice,0,28,2,2583,6,Q,1,left,1.176239422,1,0,,,,,,,,,,,,,,,,,,,,,1,,,,,,,,,,,,,,,,,,,,,,,,,,,,,,,,,,,,,,,,,,,,,,75,152824,21,Female,1,2024/02/22_09:55:42,YZ,None
,,,,,,practice,0,28,2,2583,,,,,,,,0.875,1,0.5,0.5,0,0.5,2.883846482,2,2,0,0,0,2,4,2,4,0,,,,1,,,,,,,,,,,,,,,,,,,,,,,,,,,,,,,,,,,,,,,,,,,,,,75,152824,21,Female,1,2024/02/22_09:55:42,YZ,None
-1,./instructions/inst_to_cali/Slide20.png,left,2.409738,619.6718867,622.0816247,,,,,,,,,,,,,,,,,,,,,,,,,,,,,,,,,1,,,,,,,,,,,,,,,,,,,,,,,,,,,,,,,,,,,,,,,,,,,,,,75,152824,21,Female,1,2024/02/22_09:55:42,YZ,None
,,,,,,practice,0,2,2,2583,1,F,0,right,0.913424017,1,0,,,,,,,,,,,,,,,,,,,,,1,,,,,,,,,,,,,,,,,,,,,,,,,,,,,,,,,,,,,,,,,,,,,,75,152824,21,Female,1,2024/02/22_09:55:42,YZ,None
,,,,,,practice,0,2,2,2583,2,N,0,right,0.59733758,1,0,,,,,,,,,,,,,,,,,,,,,1,,,,,,,,,,,,,,,,,,,,,,,,,,,,,,,,,,,,,,,,,,,,,,75,152824,21,Female,1,2024/02/22_09:55:42,YZ,None
,,,,,,practice,0,2,2,2583,3,J,0,right,0.965350838,1,0,,,,,,,,,,,,,,,,,,,,,1,,,,,,,,,,,,,,,,,,,,,,,,,,,,,,,,,,,,,,,,,,,,,,75,152824,21,Female,1,2024/02/22_09:55:42,YZ,None
,,,,,,practice,0,2,2,2583,4,S,0,right,1.361677988,1,0,,,,,,,,,,,,,,,,,,,,,1,,,,,,,,,,,,,,,,,,,,,,,,,,,,,,,,,,,,,,,,,,,,,,75,152824,21,Female,1,2024/02/22_09:55:42,YZ,None
,,,,,,practice,0,2,2,2583,5,J,1,left,1.329780052,1,0,,,,,,,,,,,,,,,,,,,,,1,,,,,,,,,,,,,,,,,,,,,,,,,,,,,,,,,,,,,,,,,,,,,,75,152824,21,Female,1,2024/02/22_09:55:42,YZ,None
,,,,,,practice,0,2,2,2583,6,S,1,left,1.348483075,1,0,,,,,,,,,,,,,,,,,,,,,1,,,,,,,,,,,,,,,,,,,,,,,,,,,,,,,,,,,,,,,,,,,,,,75,152824,21,Female,1,2024/02/22_09:55:42,YZ,None
,,,,,,practice,0,2,2,2583,,,,,,,,1,1,0,1,0,1,1.086008925,2,0,0,0,0,4,6,2,4,0,,,,1,,,,,,,,,,,,,,,,,,,,,,,,,,,,,,,,,,,,,,,,,,,,,,75,152824,21,Female,1,2024/02/22_09:55:42,YZ,None
-1,./instructions/inst_to_cali/Slide20.png,left,1.753294213,635.9361527,637.6894469,,,,,,,,,,,,,,,,,,,,,,,,,,,,,,,,,1,,,,,,,,,,,,,,,,,,,,,,,,,,,,,,,,,,,,,,,,,,,,,,75,152824,21,Female,1,2024/02/22_09:55:42,YZ,None
,,,,,,practice,0,31,2,2583,1,J,0,right,1.904676584,1,0,,,,,,,,,,,,,,,,,,,,,1,,,,,,,,,,,,,,,,,,,,,,,,,,,,,,,,,,,,,,,,,,,,,,75,152824,21,Female,1,2024/02/22_09:55:42,YZ,None
,,,,,,practice,0,31,2,2583,2,S,0,right,0.845219119,1,0,,,,,,,,,,,,,,,,,,,,,1,,,,,,,,,,,,,,,,,,,,,,,,,,,,,,,,,,,,,,,,,,,,,,75,152824,21,Female,1,2024/02/22_09:55:42,YZ,None
,,,,,,practice,0,31,2,2583,3,X,0,left,0.861035679,0,0,,,,,,,,,,,,,,,,,,,,,1,,,,,,,,,,,,,,,,,,,,,,,,,,,,,,,,,,,,,,,,,,,,,,75,152824,21,Female,1,2024/02/22_09:55:42,YZ,None
,,,,,,practice,0,31,2,2583,4,J,0,left,1.14084669,0,0,,,,,,,,,,,,,,,,,,,,,1,,,,,,,,,,,,,,,,,,,,,,,,,,,,,,,,,,,,,,,,,,,,,,75,152824,21,Female,1,2024/02/22_09:55:42,YZ,None
,,,,,,practice,0,31,2,2583,5,X,1,right,1.294544631,0,0,,,,,,,,,,,,,,,,,,,,,1,,,,,,,,,,,,,,,,,,,,,,,,,,,,,,,,,,,,,,,,,,,,,,75,152824,21,Female,1,2024/02/22_09:55:42,YZ,None
,,,,,,practice,0,31,2,2583,6,J,1,right,0.781907514,0,0,,,,,,,,,,,,,,,,,,,,,1,,,,,,,,,,,,,,,,,,,,,,,,,,,,,,,,,,,,,,,,,,,,,,75,152824,21,Female,1,2024/02/22_09:55:42,YZ,None
,,,,,,practice,0,31,2,2583,,,,,,,,0.125,0,0.5,0.5,0,0.5,1.13803837,0,2,0,0,0,2,2,2,4,0,,,,1,,,,,,,,,,,,,,,,,,,,,,,,,,,,,,,,,,,,,,,,,,,,,,75,152824,21,Female,1,2024/02/22_09:55:42,YZ,None
-1,./instructions/inst_redo_2/Slide18.png,left,21.15400628,653.9115628,675.0655691,,,,,,,,,,,,,,,,,,,,,,,,,,,,,,,,,1,,,,,,,,,,,,,,,,,,,,,,,,,,,,,,,,,,,,,,,,,,,,,,75,152824,21,Female,1,2024/02/22_09:55:42,YZ,None
,,,,,,practice,0,5,2,2583,1,J,0,right,0.690150051,1,0,,,,,,,,,,,,,,,,,,,,,1,,,,,,,,,,,,,,,,,,,,,,,,,,,,,,,,,,,,,,,,,,,,,,75,152824,21,Female,1,2024/02/22_09:55:42,YZ,None
,,,,,,practice,0,5,2,2583,2,J,0,right,2.090024838,1,0,,,,,,,,,,,,,,,,,,,,,1,,,,,,,,,,,,,,,,,,,,,,,,,,,,,,,,,,,,,,,,,,,,,,75,152824,21,Female,1,2024/02/22_09:55:42,YZ,None
,,,,,,practice,0,5,2,2583,3,C,0,left,2.206246222,0,0,,,,,,,,,,,,,,,,,,,,,1,,,,,,,,,,,,,,,,,,,,,,,,,,,,,,,,,,,,,,,,,,,,,,75,152824,21,Female,1,2024/02/22_09:55:42,YZ,None
,,,,,,practice,0,5,2,2583,4,J,1,left,1.628012823,1,0,,,,,,,,,,,,,,,,,,,,,1,,,,,,,,,,,,,,,,,,,,,,,,,,,,,,,,,,,,,,,,,,,,,,75,152824,21,Female,1,2024/02/22_09:55:42,YZ,None
,,,,,,practice,0,5,2,2583,5,C,1,right,2.116080833,0,0,,,,,,,,,,,,,,,,,,,,,1,,,,,,,,,,,,,,,,,,,,,,,,,,,,,,,,,,,,,,,,,,,,,,75,152824,21,Female,1,2024/02/22_09:55:42,YZ,None
,,,,,,practice,0,5,2,2583,6,V,0,left,1.414411778,0,0,,,,,,,,,,,,,,,,,,,,,1,,,,,,,,,,,,,,,,,,,,,,,,,,,,,,,,,,,,,,,,,,,,,,75,152824,21,Female,1,2024/02/22_09:55:42,YZ,None
,,,,,,practice,0,5,2,2583,,,,,,,,0.5,0.5,0.5,0.5,0,0.5,1.690821091,1,2,0,0,0,2,3,2,4,0,,,,1,,,,,,,,,,,,,,,,,,,,,,,,,,,,,,,,,,,,,,,,,,,,,,75,152824,21,Female,1,2024/02/22_09:55:42,YZ,None
-1,./instructions/inst_redo_2/Slide18.png,left,2.071308057,694.0902208,696.1615289,,,,,,,,,,,,,,,,,,,,,,,,,,,,,,,,,1,,,,,,,,,,,,,,,,,,,,,,,,,,,,,,,,,,,,,,,,,,,,,,75,152824,21,Female,1,2024/02/22_09:55:42,YZ,None
,,,,,,practice,0,16,2,2583,1,S,0,right,17.75349557,1,0,,,,,,,,,,,,,,,,,,,,,1,,,,,,,,,,,,,,,,,,,,,,,,,,,,,,,,,,,,,,,,,,,,,,75,152824,21,Female,1,2024/02/22_09:55:42,YZ,None
,,,,,,practice,0,16,2,2583,2,Q,0,right,0.932844182,1,0,,,,,,,,,,,,,,,,,,,,,1,,,,,,,,,,,,,,,,,,,,,,,,,,,,,,,,,,,,,,,,,,,,,,75,152824,21,Female,1,2024/02/22_09:55:42,YZ,None
,,,,,,practice,0,16,2,2583,3,X,0,left,0.852800743,0,0,,,,,,,,,,,,,,,,,,,,,1,,,,,,,,,,,,,,,,,,,,,,,,,,,,,,,,,,,,,,,,,,,,,,75,152824,21,Female,1,2024/02/22_09:55:42,YZ,None
,,,,,,practice,0,16,2,2583,4,Q,1,left,0.940179452,1,0,,,,,,,,,,,,,,,,,,,,,1,,,,,,,,,,,,,,,,,,,,,,,,,,,,,,,,,,,,,,,,,,,,,,75,152824,21,Female,1,2024/02/22_09:55:42,YZ,None
,,,,,,practice,0,16,2,2583,5,V,0,right,0.96818891,1,0,,,,,,,,,,,,,,,,,,,,,1,,,,,,,,,,,,,,,,,,,,,,,,,,,,,,,,,,,,,,,,,,,,,,75,152824,21,Female,1,2024/02/22_09:55:42,YZ,None
,,,,,,practice,0,16,2,2583,6,Q,1,left,1.254656921,1,0,,,,,,,,,,,,,,,,,,,,,1,,,,,,,,,,,,,,,,,,,,,,,,,,,,,,,,,,,,,,,,,,,,,,75,152824,21,Female,1,2024/02/22_09:55:42,YZ,None
,,,,,,practice,0,16,2,2583,,,,,,,,0.9375,1,0.25,0.75,0,0.75,3.783694295,2,1,0,0,0,3,5,2,4,0,,,,1,,,,,,,,,,,,,,,,,,,,,,,,,,,,,,,,,,,,,,,,,,,,,,75,152824,21,Female,1,2024/02/22_09:55:42,YZ,None
-1,./instructions/inst_to_cali/Slide20.png,left,2.139507705,726.7259166,728.8654243,,,,,,,,,,,,,,,,,,,,,,,,,,,,,,,,,1,,,,,,,,,,,,,,,,,,,,,,,,,,,,,,,,,,,,,,,,,,,,,,75,152824,21,Female,1,2024/02/22_09:55:42,YZ,None
,,,,,,practice,0,32,2,2583,1,X,0,right,0.958895059,1,0,,,,,,,,,,,,,,,,,,,,,1,,,,,,,,,,,,,,,,,,,,,,,,,,,,,,,,,,,,,,,,,,,,,,75,152824,21,Female,1,2024/02/22_09:55:42,YZ,None
,,,,,,practice,0,32,2,2583,2,J,0,right,0.877233495,1,0,,,,,,,,,,,,,,,,,,,,,1,,,,,,,,,,,,,,,,,,,,,,,,,,,,,,,,,,,,,,,,,,,,,,75,152824,21,Female,1,2024/02/22_09:55:42,YZ,None
,,,,,,practice,0,32,2,2583,3,V,0,right,0.843068588,1,0,,,,,,,,,,,,,,,,,,,,,1,,,,,,,,,,,,,,,,,,,,,,,,,,,,,,,,,,,,,,,,,,,,,,75,152824,21,Female,1,2024/02/22_09:55:42,YZ,None
,,,,,,practice,0,32,2,2583,4,J,1,left,0.772805487,1,0,,,,,,,,,,,,,,,,,,,,,1,,,,,,,,,,,,,,,,,,,,,,,,,,,,,,,,,,,,,,,,,,,,,,75,152824,21,Female,1,2024/02/22_09:55:42,YZ,None
,,,,,,practice,0,32,2,2583,5,Q,0,right,1.911923737,1,0,,,,,,,,,,,,,,,,,,,,,1,,,,,,,,,,,,,,,,,,,,,,,,,,,,,,,,,,,,,,,,,,,,,,75,152824,21,Female,1,2024/02/22_09:55:42,YZ,None
,,,,,,practice,0,32,2,2583,6,J,1,right,1.828807299,0,0,,,,,,,,,,,,,,,,,,,,,1,,,,,,,,,,,,,,,,,,,,,,,,,,,,,,,,,,,,,,,,,,,,,,75,152824,21,Female,1,2024/02/22_09:55:42,YZ,None
,,,,,,practice,0,32,2,2583,,,,,,,,0.875,0.5,0,1,0,1,1.198788944,1,0,0,0,0,4,5,2,4,0,,,,1,,,,,,,,,,,,,,,,,,,,,,,,,,,,,,,,,,,,,,,,,,,,,,75,152824,21,Female,1,2024/02/22_09:55:42,YZ,None
-1,./instructions/inst_to_cali/Slide20.png,left,1.200460593,743.897325,745.0977856,,,,,,,,,,,,,,,,,,,,,,,,,,,,,,,,,1,,,,,,,,,,,,,,,,,,,,,,,,,,,,,,,,,,,,,,,,,,,,,,75,152824,21,Female,1,2024/02/22_09:55:42,YZ,None
,,,,,,practice,0,1,2,2583,1,Q,0,right,2.194347399,1,0,,,,,,,,,,,,,,,,,,,,,1,,,,,,,,,,,,,,,,,,,,,,,,,,,,,,,,,,,,,,,,,,,,,,75,152824,21,Female,1,2024/02/22_09:55:42,YZ,None
,,,,,,practice,0,1,2,2583,2,S,0,right,0.982548005,1,0,,,,,,,,,,,,,,,,,,,,,1,,,,,,,,,,,,,,,,,,,,,,,,,,,,,,,,,,,,,,,,,,,,,,75,152824,21,Female,1,2024/02/22_09:55:42,YZ,None
,,,,,,practice,0,1,2,2583,3,X,0,right,1.676514413,1,0,,,,,,,,,,,,,,,,,,,,,1,,,,,,,,,,,,,,,,,,,,,,,,,,,,,,,,,,,,,,,,,,,,,,75,152824,21,Female,1,2024/02/22_09:55:42,YZ,None
,,,,,,practice,0,1,2,2583,4,S,1,left,0.895464152,1,0,,,,,,,,,,,,,,,,,,,,,1,,,,,,,,,,,,,,,,,,,,,,,,,,,,,,,,,,,,,,,,,,,,,,75,152824,21,Female,1,2024/02/22_09:55:42,YZ,None
,,,,,,practice,0,1,2,2583,5,C,0,right,0.882587682,1,0,,,,,,,,,,,,,,,,,,,,,1,,,,,,,,,,,,,,,,,,,,,,,,,,,,,,,,,,,,,,,,,,,,,,75,152824,21,Female,1,2024/02/22_09:55:42,YZ,None
,,,,,,practice,0,1,2,2583,6,S,1,right,1.181088891,0,0,,,,,,,,,,,,,,,,,,,,,1,,,,,,,,,,,,,,,,,,,,,,,,,,,,,,,,,,,,,,,,,,,,,,75,152824,21,Female,1,2024/02/22_09:55:42,YZ,None
,,,,,,practice,0,1,2,2583,,,,,,,,0.875,0.5,0,1,0,1,1.302091757,1,0,0,0,0,4,5,2,4,0,,,,1,,,,,,,,,,,,,,,,,,,,,,,,,,,,,,,,,,,,,,,,,,,,,,75,152824,21,Female,1,2024/02/22_09:55:42,YZ,None
-1,./instructions/inst_to_cali/Slide20.png,left,1.801156507,760.76056,762.5617165,,,,,,,,,,,,,,,,,,,,,,,,,,,,,,,,,1,,,,,,,,,,,,,,,,,,,,,,,,,,,,,,,,,,,,,,,,,,,,,,75,152824,21,Female,1,2024/02/22_09:55:42,YZ,None
,,,,,,practice,0,1,2,2583,1,Q,0,right,2.264236594,1,0,,,,,,,,,,,,,,,,,,,,,1,,,,,,,,,,,,,,,,,,,,,,,,,,,,,,,,,,,,,,,,,,,,,,75,152824,21,Female,1,2024/02/22_09:55:42,YZ,None
,,,,,,practice,0,1,2,2583,2,S,0,left,0.679097867,0,0,,,,,,,,,,,,,,,,,,,,,1,,,,,,,,,,,,,,,,,,,,,,,,,,,,,,,,,,,,,,,,,,,,,,75,152824,21,Female,1,2024/02/22_09:55:42,YZ,None
,,,,,,practice,0,1,2,2583,3,X,0,right,1.060936601,1,0,,,,,,,,,,,,,,,,,,,,,1,,,,,,,,,,,,,,,,,,,,,,,,,,,,,,,,,,,,,,,,,,,,,,75,152824,21,Female,1,2024/02/22_09:55:42,YZ,None
,,,,,,practice,0,1,2,2583,4,S,1,right,3.703281929,0,0,,,,,,,,,,,,,,,,,,,,,1,,,,,,,,,,,,,,,,,,,,,,,,,,,,,,,,,,,,,,,,,,,,,,75,152824,21,Female,1,2024/02/22_09:55:42,YZ,None
,,,,,,practice,0,1,2,2583,5,C,0,left,4.570063123,0,0,,,,,,,,,,,,,,,,,,,,,1,,,,,,,,,,,,,,,,,,,,,,,,,,,,,,,,,,,,,,,,,,,,,,75,152824,21,Female,1,2024/02/22_09:55:42,YZ,None
,,,,,,practice,0,1,2,2583,6,S,1,right,2.011191669,0,0,,,,,,,,,,,,,,,,,,,,,1,,,,,,,,,,,,,,,,,,,,,,,,,,,,,,,,,,,,,,,,,,,,,,75,152824,21,Female,1,2024/02/22_09:55:42,YZ,None
,,,,,,practice,0,1,2,2583,,,,,,,,0.125,0,0.5,0.5,0,0.5,2.381467964,0,2,0,0,0,2,2,2,4,0,,,,1,,,,,,,,,,,,,,,,,,,,,,,,,,,,,,,,,,,,,,,,,,,,,,75,152824,21,Female,1,2024/02/22_09:55:42,YZ,None
-1,./instructions/inst_redo_2/Slide18.png,left,3.092142195,786.2534844,789.3456266,,,,,,,,,,,,,,,,,,,,,,,,,,,,,,,,,1,,,,,,,,,,,,,,,,,,,,,,,,,,,,,,,,,,,,,,,,,,,,,,75,152824,21,Female,1,2024/02/22_09:55:42,YZ,None
,,,,,,practice,0,33,2,2583,1,F,0,right,1.039776812,1,0,,,,,,,,,,,,,,,,,,,,,1,,,,,,,,,,,,,,,,,,,,,,,,,,,,,,,,,,,,,,,,,,,,,,75,152824,21,Female,1,2024/02/22_09:55:42,YZ,None
,,,,,,practice,0,33,2,2583,2,F,0,right,0.644810167,1,0,,,,,,,,,,,,,,,,,,,,,1,,,,,,,,,,,,,,,,,,,,,,,,,,,,,,,,,,,,,,,,,,,,,,75,152824,21,Female,1,2024/02/22_09:55:42,YZ,None
,,,,,,practice,0,33,2,2583,3,C,0,left,1.036661846,0,0,,,,,,,,,,,,,,,,,,,,,1,,,,,,,,,,,,,,,,,,,,,,,,,,,,,,,,,,,,,,,,,,,,,,75,152824,21,Female,1,2024/02/22_09:55:42,YZ,None
,,,,,,practice,0,33,2,2583,4,F,1,left,2.947060659,1,0,,,,,,,,,,,,,,,,,,,,,1,,,,,,,,,,,,,,,,,,,,,,,,,,,,,,,,,,,,,,,,,,,,,,75,152824,21,Female,1,2024/02/22_09:55:42,YZ,None
,,,,,,practice,0,33,2,2583,5,C,1,right,1.50131851,0,0,,,,,,,,,,,,,,,,,,,,,1,,,,,,,,,,,,,,,,,,,,,,,,,,,,,,,,,,,,,,,,,,,,,,75,152824,21,Female,1,2024/02/22_09:55:42,YZ,None
,,,,,,practice,0,33,2,2583,6,J,0,right,2.309372178,1,0,,,,,,,,,,,,,,,,,,,,,1,,,,,,,,,,,,,,,,,,,,,,,,,,,,,,,,,,,,,,,,,,,,,,75,152824,21,Female,1,2024/02/22_09:55:42,YZ,None
,,,,,,practice,0,33,2,2583,,,,,,,,0.6875,0.5,0.25,0.75,0,0.75,1.579833362,1,1,0,0,0,3,4,2,4,0,,,,1,,,,,,,,,,,,,,,,,,,,,,,,,,,,,,,,,,,,,,,,,,,,,,75,152824,21,Female,1,2024/02/22_09:55:42,YZ,None
-1,./instructions/inst_redo_2/Slide18.png,left,1.513298193,807.2081978,808.721496,,,,,,,,,,,,,,,,,,,,,,,,,,,,,,,,,1,,,,,,,,,,,,,,,,,,,,,,,,,,,,,,,,,,,,,,,,,,,,,,75,152824,21,Female,1,2024/02/22_09:55:42,YZ,None
,,,,,,practice,0,25,2,2583,1,F,0,left,1.46073442,0,0,,,,,,,,,,,,,,,,,,,,,1,,,,,,,,,,,,,,,,,,,,,,,,,,,,,,,,,,,,,,,,,,,,,,75,152824,21,Female,1,2024/02/22_09:55:42,YZ,None
,,,,,,practice,0,25,2,2583,2,C,0,right,1.361419455,1,0,,,,,,,,,,,,,,,,,,,,,1,,,,,,,,,,,,,,,,,,,,,,,,,,,,,,,,,,,,,,,,,,,,,,75,152824,21,Female,1,2024/02/22_09:55:42,YZ,None
,,,,,,practice,0,25,2,2583,3,N,1,right,1.012613485,0,0,,,,,,,,,,,,,,,,,,,,,1,,,,,,,,,,,,,,,,,,,,,,,,,,,,,,,,,,,,,,,,,,,,,,75,152824,21,Female,1,2024/02/22_09:55:42,YZ,None
,,,,,,practice,0,25,2,2583,4,S,0,right,0.718692005,1,0,,,,,,,,,,,,,,,,,,,,,1,,,,,,,,,,,,,,,,,,,,,,,,,,,,,,,,,,,,,,,,,,,,,,75,152824,21,Female,1,2024/02/22_09:55:42,YZ,None
,,,,,,practice,0,25,2,2583,5,N,1,right,1.457039769,0,0,,,,,,,,,,,,,,,,,,,,,1,,,,,,,,,,,,,,,,,,,,,,,,,,,,,,,,,,,,,,,,,,,,,,75,152824,21,Female,1,2024/02/22_09:55:42,YZ,None
,,,,,,practice,0,25,2,2583,6,S,0,left,1.104207892,0,0,,,,,,,,,,,,,,,,,,,,,1,,,,,,,,,,,,,,,,,,,,,,,,,,,,,,,,,,,,,,,,,,,,,,75,152824,21,Female,1,2024/02/22_09:55:42,YZ,None
,,,,,,practice,0,25,2,2583,,,,,,,,0.125,0,0.5,0.5,0,0.5,1.185784504,0,2,0,0,0,2,2,2,4,0,,,,1,,,,,,,,,,,,,,,,,,,,,,,,,,,,,,,,,,,,,,,,,,,,,,75,152824,21,Female,1,2024/02/22_09:55:42,YZ,None
-1,./instructions/inst_redo_2/Slide18.png,left,1.888892839,825.224704,827.1135969,,,,,,,,,,,,,,,,,,,,,,,,,,,,,,,,,1,,,,,,,,,,,,,,,,,,,,,,,,,,,,,,,,,,,,,,,,,,,,,,75,152824,21,Female,1,2024/02/22_09:55:42,YZ,None
,,,,,,practice,0,23,2,2583,1,S,0,right,0.880653138,1,0,,,,,,,,,,,,,,,,,,,,,1,,,,,,,,,,,,,,,,,,,,,,,,,,,,,,,,,,,,,,,,,,,,,,75,152824,21,Female,1,2024/02/22_09:55:42,YZ,None
,,,,,,practice,0,23,2,2583,2,J,0,left,0.973100036,0,0,,,,,,,,,,,,,,,,,,,,,1,,,,,,,,,,,,,,,,,,,,,,,,,,,,,,,,,,,,,,,,,,,,,,75,152824,21,Female,1,2024/02/22_09:55:42,YZ,None
,,,,,,practice,0,23,2,2583,3,S,1,left,11.73018054,1,0,,,,,,,,,,,,,,,,,,,,,1,,,,,,,,,,,,,,,,,,,,,,,,,,,,,,,,,,,,,,,,,,,,,,75,152824,21,Female,1,2024/02/22_09:55:42,YZ,None
,,,,,,practice,0,23,2,2583,4,X,0,right,0.917169351,1,0,,,,,,,,,,,,,,,,,,,,,1,,,,,,,,,,,,,,,,,,,,,,,,,,,,,,,,,,,,,,,,,,,,,,75,152824,21,Female,1,2024/02/22_09:55:42,YZ,None
,,,,,,practice,0,23,2,2583,5,Q,0,left,0.823437925,0,0,,,,,,,,,,,,,,,,,,,,,1,,,,,,,,,,,,,,,,,,,,,,,,,,,,,,,,,,,,,,,,,,,,,,75,152824,21,Female,1,2024/02/22_09:55:42,YZ,None
,,,,,,practice,0,23,2,2583,6,X,1,right,0.836548044,0,0,,,,,,,,,,,,,,,,,,,,,1,,,,,,,,,,,,,,,,,,,,,,,,,,,,,,,,,,,,,,,,,,,,,,75,152824,21,Female,1,2024/02/22_09:55:42,YZ,None
,,,,,,practice,0,23,2,2583,,,,,,,,0.5,0.5,0.5,0.5,0,0.5,2.693514839,1,2,0,0,0,2,3,2,4,0,,,,1,,,,,,,,,,,,,,,,,,,,,,,,,,,,,,,,,,,,,,,,,,,,,,75,152824,21,Female,1,2024/02/22_09:55:42,YZ,None
-1,./instructions/inst_redo_2/Slide18.png,left,2.037948952,852.1635623,854.2015112,,,,,,,,,,,,,,,,,,,,,,,,,,,,,,,,,1,,,,,,,,,,,,,,,,,,,,,,,,,,,,,,,,,,,,,,,,,,,,,,75,152824,21,Female,1,2024/02/22_09:55:42,YZ,None
,,,,,,practice,0,5,2,2583,1,J,0,right,5.753808284,1,0,,,,,,,,,,,,,,,,,,,,,1,,,,,,,,,,,,,,,,,,,,,,,,,,,,,,,,,,,,,,,,,,,,,,75,152824,21,Female,1,2024/02/22_09:55:42,YZ,None
,,,,,,practice,0,5,2,2583,2,J,0,right,0.749053757,1,0,,,,,,,,,,,,,,,,,,,,,1,,,,,,,,,,,,,,,,,,,,,,,,,,,,,,,,,,,,,,,,,,,,,,75,152824,21,Female,1,2024/02/22_09:55:42,YZ,None
,,,,,,practice,0,5,2,2583,3,C,0,left,1.196896036,0,0,,,,,,,,,,,,,,,,,,,,,1,,,,,,,,,,,,,,,,,,,,,,,,,,,,,,,,,,,,,,,,,,,,,,75,152824,21,Female,1,2024/02/22_09:55:42,YZ,None
,,,,,,practice,0,5,2,2583,4,J,1,left,1.015058893,1,0,,,,,,,,,,,,,,,,,,,,,1,,,,,,,,,,,,,,,,,,,,,,,,,,,,,,,,,,,,,,,,,,,,,,75,152824,21,Female,1,2024/02/22_09:55:42,YZ,None
,,,,,,practice,0,5,2,2583,5,C,1,right,2.223453943,0,0,,,,,,,,,,,,,,,,,,,,,1,,,,,,,,,,,,,,,,,,,,,,,,,,,,,,,,,,,,,,,,,,,,,,75,152824,21,Female,1,2024/02/22_09:55:42,YZ,None
,,,,,,practice,0,5,2,2583,6,V,0,right,3.229203919,1,0,,,,,,,,,,,,,,,,,,,,,1,,,,,,,,,,,,,,,,,,,,,,,,,,,,,,,,,,,,,,,,,,,,,,75,152824,21,Female,1,2024/02/22_09:55:42,YZ,None
,,,,,,practice,0,5,2,2583,,,,,,,,0.6875,0.5,0.25,0.75,0,0.75,2.361245805,1,1,0,0,0,3,4,2,4,0,,,,1,,,,,,,,,,,,,,,,,,,,,,,,,,,,,,,,,,,,,,,,,,,,,,75,152824,21,Female,1,2024/02/22_09:55:42,YZ,None
-1,./instructions/inst_redo_2/Slide18.png,left,1.543903909,876.7456527,878.2895566,,,,,,,,,,,,,,,,,,,,,,,,,,,,,,,,,1,,,,,,,,,,,,,,,,,,,,,,,,,,,,,,,,,,,,,,,,,,,,,,75,152824,21,Female,1,2024/02/22_09:55:42,YZ,None
,,,,,,practice,0,24,2,2583,1,N,0,right,0.909256435,1,0,,,,,,,,,,,,,,,,,,,,,1,,,,,,,,,,,,,,,,,,,,,,,,,,,,,,,,,,,,,,,,,,,,,,75,152824,21,Female,1,2024/02/22_09:55:42,YZ,None
,,,,,,practice,0,24,2,2583,2,J,0,right,1.886245002,1,0,,,,,,,,,,,,,,,,,,,,,1,,,,,,,,,,,,,,,,,,,,,,,,,,,,,,,,,,,,,,,,,,,,,,75,152824,21,Female,1,2024/02/22_09:55:42,YZ,None
,,,,,,practice,0,24,2,2583,3,N,1,right,2.372862979,0,0,,,,,,,,,,,,,,,,,,,,,1,,,,,,,,,,,,,,,,,,,,,,,,,,,,,,,,,,,,,,,,,,,,,,75,152824,21,Female,1,2024/02/22_09:55:42,YZ,None
,,,,,,practice,0,24,2,2583,4,Q,0,right,1.550214317,1,0,,,,,,,,,,,,,,,,,,,,,1,,,,,,,,,,,,,,,,,,,,,,,,,,,,,,,,,,,,,,,,,,,,,,75,152824,21,Female,1,2024/02/22_09:55:42,YZ,None
,,,,,,practice,0,24,2,2583,5,V,0,right,2.236418684,1,0,,,,,,,,,,,,,,,,,,,,,1,,,,,,,,,,,,,,,,,,,,,,,,,,,,,,,,,,,,,,,,,,,,,,75,152824,21,Female,1,2024/02/22_09:55:42,YZ,None
,,,,,,practice,0,24,2,2583,6,Q,1,left,3.117737581,1,0,,,,,,,,,,,,,,,,,,,,,1,,,,,,,,,,,,,,,,,,,,,,,,,,,,,,,,,,,,,,,,,,,,,,75,152824,21,Female,1,2024/02/22_09:55:42,YZ,None
,,,,,,practice,0,24,2,2583,,,,,,,,0.875,0.5,0,1,0,1,2.0121225,1,0,0,0,0,4,5,2,4,0,,,,1,,,,,,,,,,,,,,,,,,,,,,,,,,,,,,,,,,,,,,,,,,,,,,75,152824,21,Female,1,2024/02/22_09:55:42,YZ,None
-1,./instructions/inst_to_cali/Slide20.png,left,2.281624856,898.2238115,900.5054364,,,,,,,,,,,,,,,,,,,,,,,,,,,,,,,,,1,,,,,,,,,,,,,,,,,,,,,,,,,,,,,,,,,,,,,,,,,,,,,,75,152824,21,Female,1,2024/02/22_09:55:42,YZ,None
,,,,,,practice,0,26,2,2583,1,X,0,right,3.517222997,1,0,,,,,,,,,,,,,,,,,,,,,1,,,,,,,,,,,,,,,,,,,,,,,,,,,,,,,,,,,,,,,,,,,,,,75,152824,21,Female,1,2024/02/22_09:55:42,YZ,None
,,,,,,practice,0,26,2,2583,2,V,0,right,1.500459972,1,0,,,,,,,,,,,,,,,,,,,,,1,,,,,,,,,,,,,,,,,,,,,,,,,,,,,,,,,,,,,,,,,,,,,,75,152824,21,Female,1,2024/02/22_09:55:42,YZ,None
,,,,,,practice,0,26,2,2583,3,X,1,left,1.004638083,1,0,,,,,,,,,,,,,,,,,,,,,1,,,,,,,,,,,,,,,,,,,,,,,,,,,,,,,,,,,,,,,,,,,,,,75,152824,21,Female,1,2024/02/22_09:55:42,YZ,None
,,,,,,practice,0,26,2,2583,4,C,0,right,2.975891552,1,0,,,,,,,,,,,,,,,,,,,,,1,,,,,,,,,,,,,,,,,,,,,,,,,,,,,,,,,,,,,,,,,,,,,,75,152824,21,Female,1,2024/02/22_09:55:42,YZ,None
,,,,,,practice,0,26,2,2583,5,X,1,left,1.676736767,1,0,,,,,,,,,,,,,,,,,,,,,1,,,,,,,,,,,,,,,,,,,,,,,,,,,,,,,,,,,,,,,,,,,,,,75,152824,21,Female,1,2024/02/22_09:55:42,YZ,None
,,,,,,practice,0,26,2,2583,6,V,0,right,1.957360339,1,0,,,,,,,,,,,,,,,,,,,,,1,,,,,,,,,,,,,,,,,,,,,,,,,,,,,,,,,,,,,,,,,,,,,,75,152824,21,Female,1,2024/02/22_09:55:42,YZ,None
,,,,,,practice,0,26,2,2583,,,,,,,,1,1,0,1,0,1,2.105384952,2,0,0,0,0,4,6,2,4,0,,,,1,,,,,,,,,,,,,,,,,,,,,,,,,,,,,,,,,,,,,,,,,,,,,,75,152824,21,Female,1,2024/02/22_09:55:42,YZ,None
-1,./instructions/inst_to_cali/Slide20.png,left,1.652336102,920.4852277,922.1375638,,,,,,,,,,,,,,,,,,,,,,,,,,,,,,,,,1,,,,,,,,,,,,,,,,,,,,,,,,,,,,,,,,,,,,,,,,,,,,,,75,152824,21,Female,1,2024/02/22_09:55:42,YZ,None
,,,,,,practice,0,9,2,2583,1,C,0,right,0.87379683,1,0,,,,,,,,,,,,,,,,,,,,,1,,,,,,,,,,,,,,,,,,,,,,,,,,,,,,,,,,,,,,,,,,,,,,75,152824,21,Female,1,2024/02/22_09:55:42,YZ,None
,,,,,,practice,0,9,2,2583,2,F,0,right,1.605252726,1,0,,,,,,,,,,,,,,,,,,,,,1,,,,,,,,,,,,,,,,,,,,,,,,,,,,,,,,,,,,,,,,,,,,,,75,152824,21,Female,1,2024/02/22_09:55:42,YZ,None
,,,,,,practice,0,9,2,2583,3,C,1,left,0.916517871,1,0,,,,,,,,,,,,,,,,,,,,,1,,,,,,,,,,,,,,,,,,,,,,,,,,,,,,,,,,,,,,,,,,,,,,75,152824,21,Female,1,2024/02/22_09:55:42,YZ,None
,,,,,,practice,0,9,2,2583,4,Q,0,right,1.266792039,1,0,,,,,,,,,,,,,,,,,,,,,1,,,,,,,,,,,,,,,,,,,,,,,,,,,,,,,,,,,,,,,,,,,,,,75,152824,21,Female,1,2024/02/22_09:55:42,YZ,None
,,,,,,practice,0,9,2,2583,5,N,0,right,3.364322343,1,0,,,,,,,,,,,,,,,,,,,,,1,,,,,,,,,,,,,,,,,,,,,,,,,,,,,,,,,,,,,,,,,,,,,,75,152824,21,Female,1,2024/02/22_09:55:42,YZ,None
,,,,,,practice,0,9,2,2583,6,Q,1,left,1.78464861,1,0,,,,,,,,,,,,,,,,,,,,,1,,,,,,,,,,,,,,,,,,,,,,,,,,,,,,,,,,,,,,,,,,,,,,75,152824,21,Female,1,2024/02/22_09:55:42,YZ,None
,,,,,,practice,0,9,2,2583,,,,,,,,1,1,0,1,0,1,1.635221737,2,0,0,0,0,4,6,2,4,0,,,,1,,,,,,,,,,,,,,,,,,,,,,,,,,,,,,,,,,,,,,,,,,,,,,75,152824,21,Female,1,2024/02/22_09:55:42,YZ,None
-1,./instructions/inst_to_cali/Slide20.png,left,2.033041263,939.2964056,941.3294469,,,,,,,,,,,,,,,,,,,,,,,,,,,,,,,,,1,,,,,,,,,,,,,,,,,,,,,,,,,,,,,,,,,,,,,,,,,,,,,,75,152824,21,Female,1,2024/02/22_09:55:42,YZ,None
,,,,,,practice,0,4,2,2583,1,J,0,right,0.86630216,1,0,,,,,,,,,,,,,,,,,,,,,1,,,,,,,,,,,,,,,,,,,,,,,,,,,,,,,,,,,,,,,,,,,,,,75,152824,21,Female,1,2024/02/22_09:55:42,YZ,None
,,,,,,practice,0,4,2,2583,2,C,0,left,0.693248585,0,0,,,,,,,,,,,,,,,,,,,,,1,,,,,,,,,,,,,,,,,,,,,,,,,,,,,,,,,,,,,,,,,,,,,,75,152824,21,Female,1,2024/02/22_09:55:42,YZ,None
,,,,,,practice,0,4,2,2583,3,J,1,left,1.350168176,1,0,,,,,,,,,,,,,,,,,,,,,1,,,,,,,,,,,,,,,,,,,,,,,,,,,,,,,,,,,,,,,,,,,,,,75,152824,21,Female,1,2024/02/22_09:55:42,YZ,None
,,,,,,practice,0,4,2,2583,4,C,1,left,2.462053524,1,0,,,,,,,,,,,,,,,,,,,,,1,,,,,,,,,,,,,,,,,,,,,,,,,,,,,,,,,,,,,,,,,,,,,,75,152824,21,Female,1,2024/02/22_09:55:42,YZ,None
,,,,,,practice,0,4,2,2583,5,X,0,right,0.908050596,1,0,,,,,,,,,,,,,,,,,,,,,1,,,,,,,,,,,,,,,,,,,,,,,,,,,,,,,,,,,,,,,,,,,,,,75,152824,21,Female,1,2024/02/22_09:55:42,YZ,None
,,,,,,practice,0,4,2,2583,6,S,0,right,4.17395343,1,0,,,,,,,,,,,,,,,,,,,,,1,,,,,,,,,,,,,,,,,,,,,,,,,,,,,,,,,,,,,,,,,,,,,,75,152824,21,Female,1,2024/02/22_09:55:42,YZ,None
,,,,,,practice,0,4,2,2583,,,,,,,,0.9375,1,0.25,0.75,0,0.75,1.742296078,2,1,0,0,0,3,5,2,4,0,,,,1,,,,,,,,,,,,,,,,,,,,,,,,,,,,,,,,,,,,,,,,,,,,,,75,152824,21,Female,1,2024/02/22_09:55:42,YZ,None
-1,./instructions/inst_to_cali/Slide20.png,left,1.803951814,959.6455033,961.4494551,,,,,,,,,,,,,,,,,,,,,,,,,,,,,,,,,1,,,,,,,,,,,,,,,,,,,,,,,,,,,,,,,,,,,,,,,,,,,,,,75,152824,21,Female,1,2024/02/22_09:55:42,YZ,None
,,,,,,practice,0,28,2,2583,1,S,0,right,0.86878301,1,0,,,,,,,,,,,,,,,,,,,,,1,,,,,,,,,,,,,,,,,,,,,,,,,,,,,,,,,,,,,,,,,,,,,,75,152824,21,Female,1,2024/02/22_09:55:42,YZ,None
,,,,,,practice,0,28,2,2583,2,F,0,right,0.983551301,1,0,,,,,,,,,,,,,,,,,,,,,1,,,,,,,,,,,,,,,,,,,,,,,,,,,,,,,,,,,,,,,,,,,,,,75,152824,21,Female,1,2024/02/22_09:55:42,YZ,None
,,,,,,practice,0,28,2,2583,3,S,1,left,1.047152178,1,0,,,,,,,,,,,,,,,,,,,,,1,,,,,,,,,,,,,,,,,,,,,,,,,,,,,,,,,,,,,,,,,,,,,,75,152824,21,Female,1,2024/02/22_09:55:42,YZ,None
,,,,,,practice,0,28,2,2583,4,Q,0,right,1.414475682,1,0,,,,,,,,,,,,,,,,,,,,,1,,,,,,,,,,,,,,,,,,,,,,,,,,,,,,,,,,,,,,,,,,,,,,75,152824,21,Female,1,2024/02/22_09:55:42,YZ,None
,,,,,,practice,0,28,2,2583,5,X,0,right,1.102204994,1,0,,,,,,,,,,,,,,,,,,,,,1,,,,,,,,,,,,,,,,,,,,,,,,,,,,,,,,,,,,,,,,,,,,,,75,152824,21,Female,1,2024/02/22_09:55:42,YZ,None
,,,,,,practice,0,28,2,2583,6,Q,1,left,1.382673829,1,0,,,,,,,,,,,,,,,,,,,,,1,,,,,,,,,,,,,,,,,,,,,,,,,,,,,,,,,,,,,,,,,,,,,,75,152824,21,Female,1,2024/02/22_09:55:42,YZ,None
,,,,,,practice,0,28,2,2583,,,,,,,,1,1,0,1,0,1,1.133140166,2,0,0,0,0,4,6,2,4,0,,,,1,,,,,,,,,,,,,,,,,,,,,,,,,,,,,,,,,,,,,,,,,,,,,,75,152824,21,Female,1,2024/02/22_09:55:42,YZ,None
-1,./instructions/inst_to_cali/Slide20.png,left,1.594955424,975.5905553,977.1855108,,,,,,,,,,,,,,,,,,,,,,,,,,,,,,,,,1,,,,,,,,,,,,,,,,,,,,,,,,,,,,,,,,,,,,,,,,,,,,,,75,152824,21,Female,1,2024/02/22_09:55:42,YZ,None
,,,,,,practice,0,34,2,2583,1,J,0,right,1.201510649,1,0,,,,,,,,,,,,,,,,,,,,,1,,,,,,,,,,,,,,,,,,,,,,,,,,,,,,,,,,,,,,,,,,,,,,75,152824,21,Female,1,2024/02/22_09:55:42,YZ,None
,,,,,,practice,0,34,2,2583,2,C,0,right,0.81402579,1,0,,,,,,,,,,,,,,,,,,,,,1,,,,,,,,,,,,,,,,,,,,,,,,,,,,,,,,,,,,,,,,,,,,,,75,152824,21,Female,1,2024/02/22_09:55:42,YZ,None
,,,,,,practice,0,34,2,2583,3,J,1,left,0.915729926,1,0,,,,,,,,,,,,,,,,,,,,,1,,,,,,,,,,,,,,,,,,,,,,,,,,,,,,,,,,,,,,,,,,,,,,75,152824,21,Female,1,2024/02/22_09:55:42,YZ,None
,,,,,,practice,0,34,2,2583,4,V,0,right,1.580686561,1,0,,,,,,,,,,,,,,,,,,,,,1,,,,,,,,,,,,,,,,,,,,,,,,,,,,,,,,,,,,,,,,,,,,,,75,152824,21,Female,1,2024/02/22_09:55:42,YZ,None
,,,,,,practice,0,34,2,2583,5,Q,0,right,1.244299578,1,0,,,,,,,,,,,,,,,,,,,,,1,,,,,,,,,,,,,,,,,,,,,,,,,,,,,,,,,,,,,,,,,,,,,,75,152824,21,Female,1,2024/02/22_09:55:42,YZ,None
,,,,,,practice,0,34,2,2583,6,V,1,left,1.032044795,1,0,,,,,,,,,,,,,,,,,,,,,1,,,,,,,,,,,,,,,,,,,,,,,,,,,,,,,,,,,,,,,,,,,,,,75,152824,21,Female,1,2024/02/22_09:55:42,YZ,None
,,,,,,practice,0,34,2,2583,,,,,,,,1,1,0,1,0,1,1.131382883,2,0,0,0,0,4,6,2,4,0,,,,1,,,,,,,,,,,,,,,,,,,,,,,,,,,,,,,,,,,,,,,,,,,,,,75,152824,21,Female,1,2024/02/22_09:55:42,YZ,None
-1,./instructions/inst_to_cali/Slide20.png,left,1.642766423,991.3186109,992.9613774,,,,,,,,,,,,,,,,,,,,,,,,,,,,,,,,,1,,,,,,,,,,,,,,,,,,,,,,,,,,,,,,,,,,,,,,,,,,,,,,75,152824,21,Female,1,2024/02/22_09:55:42,YZ,None
,,,,,,practice,0,29,2,2583,1,F,0,right,0.634220574,1,0,,,,,,,,,,,,,,,,,,,,,1,,,,,,,,,,,,,,,,,,,,,,,,,,,,,,,,,,,,,,,,,,,,,,75,152824,21,Female,1,2024/02/22_09:55:42,YZ,None
,,,,,,practice,0,29,2,2583,2,J,0,right,1.404283069,1,0,,,,,,,,,,,,,,,,,,,,,1,,,,,,,,,,,,,,,,,,,,,,,,,,,,,,,,,,,,,,,,,,,,,,75,152824,21,Female,1,2024/02/22_09:55:42,YZ,None
,,,,,,practice,0,29,2,2583,3,N,0,right,1.404513925,1,0,,,,,,,,,,,,,,,,,,,,,1,,,,,,,,,,,,,,,,,,,,,,,,,,,,,,,,,,,,,,,,,,,,,,75,152824,21,Female,1,2024/02/22_09:55:42,YZ,None
,,,,,,practice,0,29,2,2583,4,J,1,left,1.078678539,1,0,,,,,,,,,,,,,,,,,,,,,1,,,,,,,,,,,,,,,,,,,,,,,,,,,,,,,,,,,,,,,,,,,,,,75,152824,21,Female,1,2024/02/22_09:55:42,YZ,None
,,,,,,practice,0,29,2,2583,5,F,0,right,1.25240151,1,0,,,,,,,,,,,,,,,,,,,,,1,,,,,,,,,,,,,,,,,,,,,,,,,,,,,,,,,,,,,,,,,,,,,,75,152824,21,Female,1,2024/02/22_09:55:42,YZ,None
,,,,,,practice,0,29,2,2583,6,J,1,left,1.332228758,1,0,,,,,,,,,,,,,,,,,,,,,1,,,,,,,,,,,,,,,,,,,,,,,,,,,,,,,,,,,,,,,,,,,,,,75,152824,21,Female,1,2024/02/22_09:55:42,YZ,None
,,,,,,practice,0,29,2,2583,,,,,,,,1,1,0,1,0,1,1.184387729,2,0,0,0,0,4,6,2,4,0,,,,1,,,,,,,,,,,,,,,,,,,,,,,,,,,,,,,,,,,,,,,,,,,,,,75,152824,21,Female,1,2024/02/22_09:55:42,YZ,None
-1,./instructions/inst_to_cali/Slide20.png,left,2.113713281,1007.423848,1009.537562,,,,,,,,,,,,,,,,,,,,,,,,,,,,,,,,,1,,,,,,,,,,,,,,,,,,,,,,,,,,,,,,,,,,,,,,,,,,,,,,75,152824,21,Female,1,2024/02/22_09:55:42,YZ,None
,,,,,,practice,0,5,2,2583,1,J,0,right,1.075237553,1,0,,,,,,,,,,,,,,,,,,,,,1,,,,,,,,,,,,,,,,,,,,,,,,,,,,,,,,,,,,,,,,,,,,,,75,152824,21,Female,1,2024/02/22_09:55:42,YZ,None
,,,,,,practice,0,5,2,2583,2,J,0,left,1.012582218,0,0,,,,,,,,,,,,,,,,,,,,,1,,,,,,,,,,,,,,,,,,,,,,,,,,,,,,,,,,,,,,,,,,,,,,75,152824,21,Female,1,2024/02/22_09:55:42,YZ,None
,,,,,,practice,0,5,2,2583,3,C,0,right,3.4610073,1,0,,,,,,,,,,,,,,,,,,,,,1,,,,,,,,,,,,,,,,,,,,,,,,,,,,,,,,,,,,,,,,,,,,,,75,152824,21,Female,1,2024/02/22_09:55:42,YZ,None
,,,,,,practice,0,5,2,2583,4,J,1,left,1.973023307,1,0,,,,,,,,,,,,,,,,,,,,,1,,,,,,,,,,,,,,,,,,,,,,,,,,,,,,,,,,,,,,,,,,,,,,75,152824,21,Female,1,2024/02/22_09:55:42,YZ,None
,,,,,,practice,0,5,2,2583,5,C,1,left,1.417333798,1,0,,,,,,,,,,,,,,,,,,,,,1,,,,,,,,,,,,,,,,,,,,,,,,,,,,,,,,,,,,,,,,,,,,,,75,152824,21,Female,1,2024/02/22_09:55:42,YZ,None
,,,,,,practice,0,5,2,2583,6,V,0,right,1.005428737,1,0,,,,,,,,,,,,,,,,,,,,,1,,,,,,,,,,,,,,,,,,,,,,,,,,,,,,,,,,,,,,,,,,,,,,75,152824,21,Female,1,2024/02/22_09:55:42,YZ,None
,,,,,,practice,0,5,2,2583,,,,,,,,0.9375,1,0.25,0.75,0,0.75,1.657435486,2,1,0,0,0,3,5,2,4,0,,,,1,,,,,,,,,,,,,,,,,,,,,,,,,,,,,,,,,,,,,,,,,,,,,,75,152824,21,Female,1,2024/02/22_09:55:42,YZ,None
-1,./instructions/inst_to_cali/Slide20.png,left,1.449727627,1027.343832,1028.793559,,,,,,,,,,,,,,,,,,,,,,,,,,,,,,,,,1,,,,,,,,,,,,,,,,,,,,,,,,,,,,,,,,,,,,,,,,,,,,,,75,152824,21,Female,1,2024/02/22_09:55:42,YZ,None
,,,,,,practice,0,21,2,2583,1,S,0,right,8.737415784,1,0,,,,,,,,,,,,,,,,,,,,,1,,,,,,,,,,,,,,,,,,,,,,,,,,,,,,,,,,,,,,,,,,,,,,75,152824,21,Female,1,2024/02/22_09:55:42,YZ,None
,,,,,,practice,0,21,2,2583,2,V,0,right,1.053523979,1,0,,,,,,,,,,,,,,,,,,,,,1,,,,,,,,,,,,,,,,,,,,,,,,,,,,,,,,,,,,,,,,,,,,,,75,152824,21,Female,1,2024/02/22_09:55:42,YZ,None
,,,,,,practice,0,21,2,2583,3,N,0,right,1.365642784,1,0,,,,,,,,,,,,,,,,,,,,,1,,,,,,,,,,,,,,,,,,,,,,,,,,,,,,,,,,,,,,,,,,,,,,75,152824,21,Female,1,2024/02/22_09:55:42,YZ,None
,,,,,,practice,0,21,2,2583,4,V,1,left,0.996779261,1,0,,,,,,,,,,,,,,,,,,,,,1,,,,,,,,,,,,,,,,,,,,,,,,,,,,,,,,,,,,,,,,,,,,,,75,152824,21,Female,1,2024/02/22_09:55:42,YZ,None
,,,,,,practice,0,21,2,2583,5,N,1,left,1.87642791,1,0,,,,,,,,,,,,,,,,,,,,,1,,,,,,,,,,,,,,,,,,,,,,,,,,,,,,,,,,,,,,,,,,,,,,75,152824,21,Female,1,2024/02/22_09:55:42,YZ,None
,,,,,,practice,0,21,2,2583,6,S,0,right,1.551522051,1,0,,,,,,,,,,,,,,,,,,,,,1,,,,,,,,,,,,,,,,,,,,,,,,,,,,,,,,,,,,,,,,,,,,,,75,152824,21,Female,1,2024/02/22_09:55:42,YZ,None
,,,,,,practice,0,21,2,2583,,,,,,,,1,1,0,1,0,1,2.596885295,2,0,0,0,0,4,6,2,4,0,,,,1,,,,,,,,,,,,,,,,,,,,,,,,,,,,,,,,,,,,,,,,,,,,,,75,152824,21,Female,1,2024/02/22_09:55:42,YZ,None
-1,./instructions/inst_to_cali/Slide20.png,left,1.377854582,1051.727526,1053.105381,,,,,,,,,,,,,,,,,,,,,,,,,,,,,,,,,1,,,,,,,,,,,,,,,,,,,,,,,,,,,,,,,,,,,,,,,,,,,,,,75,152824,21,Female,1,2024/02/22_09:55:42,YZ,None
,,,,,,practice,0,22,2,2583,1,J,0,right,0.675156352,1,0,,,,,,,,,,,,,,,,,,,,,1,,,,,,,,,,,,,,,,,,,,,,,,,,,,,,,,,,,,,,,,,,,,,,75,152824,21,Female,1,2024/02/22_09:55:42,YZ,None
,,,,,,practice,0,22,2,2583,2,Q,0,right,1.657244499,1,0,,,,,,,,,,,,,,,,,,,,,1,,,,,,,,,,,,,,,,,,,,,,,,,,,,,,,,,,,,,,,,,,,,,,75,152824,21,Female,1,2024/02/22_09:55:42,YZ,None
,,,,,,practice,0,22,2,2583,3,J,1,left,1.198073513,1,0,,,,,,,,,,,,,,,,,,,,,1,,,,,,,,,,,,,,,,,,,,,,,,,,,,,,,,,,,,,,,,,,,,,,75,152824,21,Female,1,2024/02/22_09:55:42,YZ,None
,,,,,,practice,0,22,2,2583,4,X,0,right,1.117119323,1,0,,,,,,,,,,,,,,,,,,,,,1,,,,,,,,,,,,,,,,,,,,,,,,,,,,,,,,,,,,,,,,,,,,,,75,152824,21,Female,1,2024/02/22_09:55:42,YZ,None
,,,,,,practice,0,22,2,2583,5,C,0,right,0.883939995,1,0,,,,,,,,,,,,,,,,,,,,,1,,,,,,,,,,,,,,,,,,,,,,,,,,,,,,,,,,,,,,,,,,,,,,75,152824,21,Female,1,2024/02/22_09:55:42,YZ,None
,,,,,,practice,0,22,2,2583,6,X,1,left,1.229485383,1,0,,,,,,,,,,,,,,,,,,,,,1,,,,,,,,,,,,,,,,,,,,,,,,,,,,,,,,,,,,,,,,,,,,,,75,152824,21,Female,1,2024/02/22_09:55:42,YZ,None
,,,,,,practice,0,22,2,2583,,,,,,,,1,1,0,1,0,1,1.126836511,2,0,0,0,0,4,6,2,4,0,,,,1,,,,,,,,,,,,,,,,,,,,,,,,,,,,,,,,,,,,,,,,,,,,,,75,152824,21,Female,1,2024/02/22_09:55:42,YZ,None
-1,./instructions/inst_to_cali/Slide20.png,left,1.961664469,1067.215758,1069.177422,,,,,,,,,,,,,,,,,,,,,,,,,,,,,,,,,1,,,,,,,,,,,,,,,,,,,,,,,,,,,,,,,,,,,,,,,,,,,,,,75,152824,21,Female,1,2024/02/22_09:55:42,YZ,None
,,,,,,practice,0,15,2,2583,1,F,0,right,0.69215179,1,0,,,,,,,,,,,,,,,,,,,,,1,,,,,,,,,,,,,,,,,,,,,,,,,,,,,,,,,,,,,,,,,,,,,,75,152824,21,Female,1,2024/02/22_09:55:42,YZ,None
,,,,,,practice,0,15,2,2583,2,N,0,right,0.677486935,1,0,,,,,,,,,,,,,,,,,,,,,1,,,,,,,,,,,,,,,,,,,,,,,,,,,,,,,,,,,,,,,,,,,,,,75,152824,21,Female,1,2024/02/22_09:55:42,YZ,None
,,,,,,practice,0,15,2,2583,3,V,0,right,0.81965245,1,0,,,,,,,,,,,,,,,,,,,,,1,,,,,,,,,,,,,,,,,,,,,,,,,,,,,,,,,,,,,,,,,,,,,,75,152824,21,Female,1,2024/02/22_09:55:42,YZ,None
,,,,,,practice,0,15,2,2583,4,N,1,left,1.023422904,1,0,,,,,,,,,,,,,,,,,,,,,1,,,,,,,,,,,,,,,,,,,,,,,,,,,,,,,,,,,,,,,,,,,,,,75,152824,21,Female,1,2024/02/22_09:55:42,YZ,None
,,,,,,practice,0,15,2,2583,5,C,0,right,1.060154848,1,0,,,,,,,,,,,,,,,,,,,,,1,,,,,,,,,,,,,,,,,,,,,,,,,,,,,,,,,,,,,,,,,,,,,,75,152824,21,Female,1,2024/02/22_09:55:42,YZ,None
,,,,,,practice,0,15,2,2583,6,N,1,left,1.193166635,1,0,,,,,,,,,,,,,,,,,,,,,1,,,,,,,,,,,,,,,,,,,,,,,,,,,,,,,,,,,,,,,,,,,,,,75,152824,21,Female,1,2024/02/22_09:55:42,YZ,None
,,,,,,practice,0,15,2,2583,,,,,,,,1,1,0,1,0,1,0.911005927,2,0,0,0,0,4,6,2,4,0,,,,1,,,,,,,,,,,,,,,,,,,,,,,,,,,,,,,,,,,,,,,,,,,,,,75,152824,21,Female,1,2024/02/22_09:55:42,YZ,None
-1,./instructions/inst_to_cali/Slide20.png,left,7.433263157,1081.976036,1089.409299,,,,,,,,,,,,,,,,,,,,,,,,,,,,,,,,,1,,,,,,,,,,,,,,,,,,,,,,,,,,,,,,,,,,,,,,,,,,,,,,75,152824,21,Female,1,2024/02/22_09:55:42,YZ,None
,,,,,,practice,0,17,2,2583,1,C,0,right,0.956656537,1,0,,,,,,,,,,,,,,,,,,,,,1,,,,,,,,,,,,,,,,,,,,,,,,,,,,,,,,,,,,,,,,,,,,,,75,152824,21,Female,1,2024/02/22_09:55:42,YZ,None
,,,,,,practice,0,17,2,2583,2,N,0,right,1.174925802,1,0,,,,,,,,,,,,,,,,,,,,,1,,,,,,,,,,,,,,,,,,,,,,,,,,,,,,,,,,,,,,,,,,,,,,75,152824,21,Female,1,2024/02/22_09:55:42,YZ,None
,,,,,,practice,0,17,2,2583,3,S,0,right,1.163835079,1,0,,,,,,,,,,,,,,,,,,,,,1,,,,,,,,,,,,,,,,,,,,,,,,,,,,,,,,,,,,,,,,,,,,,,75,152824,21,Female,1,2024/02/22_09:55:42,YZ,None
,,,,,,practice,0,17,2,2583,4,X,0,right,0.940395652,1,0,,,,,,,,,,,,,,,,,,,,,1,,,,,,,,,,,,,,,,,,,,,,,,,,,,,,,,,,,,,,,,,,,,,,75,152824,21,Female,1,2024/02/22_09:55:42,YZ,None
,,,,,,practice,0,17,2,2583,5,S,1,left,1.029970491,1,0,,,,,,,,,,,,,,,,,,,,,1,,,,,,,,,,,,,,,,,,,,,,,,,,,,,,,,,,,,,,,,,,,,,,75,152824,21,Female,1,2024/02/22_09:55:42,YZ,None
,,,,,,practice,0,17,2,2583,6,X,1,left,2.892129188,1,0,,,,,,,,,,,,,,,,,,,,,1,,,,,,,,,,,,,,,,,,,,,,,,,,,,,,,,,,,,,,,,,,,,,,75,152824,21,Female,1,2024/02/22_09:55:42,YZ,None
,,,,,,practice,0,17,2,2583,,,,,,,,1,1,0,1,0,1,1.359652125,2,0,0,0,0,4,6,2,4,0,,,,1,,,,,,,,,,,,,,,,,,,,,,,,,,,,,,,,,,,,,,,,,,,,,,75,152824,21,Female,1,2024/02/22_09:55:42,YZ,None
-1,./instructions/inst_to_cali/Slide20.png,left,1.539652191,1104.917881,1106.457533,,,,,,,,,,,,,,,,,,,,,,,,,,,,,,,,,1,,,,,,,,,,,,,,,,,,,,,,,,,,,,,,,,,,,,,,,,,,,,,,75,152824,21,Female,1,2024/02/22_09:55:42,YZ,None
,,,,,,practice,0,3,2,2583,1,N,0,right,0.64341752,1,0,,,,,,,,,,,,,,,,,,,,,1,,,,,,,,,,,,,,,,,,,,,,,,,,,,,,,,,,,,,,,,,,,,,,75,152824,21,Female,1,2024/02/22_09:55:42,YZ,None
,,,,,,practice,0,3,2,2583,2,Q,0,right,0.737167925,1,0,,,,,,,,,,,,,,,,,,,,,1,,,,,,,,,,,,,,,,,,,,,,,,,,,,,,,,,,,,,,,,,,,,,,75,152824,21,Female,1,2024/02/22_09:55:42,YZ,None
,,,,,,practice,0,3,2,2583,3,S,0,right,0.689398966,1,0,,,,,,,,,,,,,,,,,,,,,1,,,,,,,,,,,,,,,,,,,,,,,,,,,,,,,,,,,,,,,,,,,,,,75,152824,21,Female,1,2024/02/22_09:55:42,YZ,None
,,,,,,practice,0,3,2,2583,4,F,0,right,1.043122593,1,0,,,,,,,,,,,,,,,,,,,,,1,,,,,,,,,,,,,,,,,,,,,,,,,,,,,,,,,,,,,,,,,,,,,,75,152824,21,Female,1,2024/02/22_09:55:42,YZ,None
,,,,,,practice,0,3,2,2583,5,S,1,left,0.910684279,1,0,,,,,,,,,,,,,,,,,,,,,1,,,,,,,,,,,,,,,,,,,,,,,,,,,,,,,,,,,,,,,,,,,,,,75,152824,21,Female,1,2024/02/22_09:55:42,YZ,None
,,,,,,practice,0,3,2,2583,6,F,1,left,1.492688628,1,0,,,,,,,,,,,,,,,,,,,,,1,,,,,,,,,,,,,,,,,,,,,,,,,,,,,,,,,,,,,,,,,,,,,,75,152824,21,Female,1,2024/02/22_09:55:42,YZ,None
,,,,,,practice,0,3,2,2583,,,,,,,,1,1,0,1,0,1,0.919413319,2,0,0,0,0,4,6,2,4,0,,,,1,,,,,,,,,,,,,,,,,,,,,,,,,,,,,,,,,,,,,,,,,,,,,,75,152824,21,Female,1,2024/02/22_09:55:42,YZ,None
-1,./instructions/inst_to_cali/Slide20.png,left,1.570971769,1119.310678,1120.88165,,,,,,,,,,,,,,,,,,,,,,,,,,,,,,,,,1,,,,,,,,,,,,,,,,,,,,,,,,,,,,,,,,,,,,,,,,,,,,,,75,152824,21,Female,1,2024/02/22_09:55:42,YZ,None
,,,,,,practice,0,19,2,2583,1,C,0,right,1.195925029,1,0,,,,,,,,,,,,,,,,,,,,,1,,,,,,,,,,,,,,,,,,,,,,,,,,,,,,,,,,,,,,,,,,,,,,75,152824,21,Female,1,2024/02/22_09:55:42,YZ,None
,,,,,,practice,0,19,2,2583,2,N,0,right,0.916333714,1,0,,,,,,,,,,,,,,,,,,,,,1,,,,,,,,,,,,,,,,,,,,,,,,,,,,,,,,,,,,,,,,,,,,,,75,152824,21,Female,1,2024/02/22_09:55:42,YZ,None
,,,,,,practice,0,19,2,2583,3,C,1,left,0.725828431,1,0,,,,,,,,,,,,,,,,,,,,,1,,,,,,,,,,,,,,,,,,,,,,,,,,,,,,,,,,,,,,,,,,,,,,75,152824,21,Female,1,2024/02/22_09:55:42,YZ,None
,,,,,,practice,0,19,2,2583,4,N,1,left,1.089012711,1,0,,,,,,,,,,,,,,,,,,,,,1,,,,,,,,,,,,,,,,,,,,,,,,,,,,,,,,,,,,,,,,,,,,,,75,152824,21,Female,1,2024/02/22_09:55:42,YZ,None
,,,,,,practice,0,19,2,2583,5,S,0,right,1.281305461,1,0,,,,,,,,,,,,,,,,,,,,,1,,,,,,,,,,,,,,,,,,,,,,,,,,,,,,,,,,,,,,,,,,,,,,75,152824,21,Female,1,2024/02/22_09:55:42,YZ,None
,,,,,,practice,0,19,2,2583,6,Q,0,right,4.413025415,1,0,,,,,,,,,,,,,,,,,,,,,1,,,,,,,,,,,,,,,,,,,,,,,,,,,,,,,,,,,,,,,,,,,,,,75,152824,21,Female,1,2024/02/22_09:55:42,YZ,None
,,,,,,practice,0,19,2,2583,,,,,,,,1,1,0,1,0,1,1.603571793,2,0,0,0,0,4,6,2,4,0,,,,1,,,,,,,,,,,,,,,,,,,,,,,,,,,,,,,,,,,,,,,,,,,,,,75,152824,21,Female,1,2024/02/22_09:55:42,YZ,None
-1,./instructions/inst_to_cali/Slide20.png,left,1.809898308,1137.847791,1139.657689,,,,,,,,,,,,,,,,,,,,,,,,,,,,,,,,,1,,,,,,,,,,,,,,,,,,,,,,,,,,,,,,,,,,,,,,,,,,,,,,75,152824,21,Female,1,2024/02/22_09:55:42,YZ,None
,,,,,,practice,0,2,2,2583,1,F,0,right,0.872412183,1,0,,,,,,,,,,,,,,,,,,,,,1,,,,,,,,,,,,,,,,,,,,,,,,,,,,,,,,,,,,,,,,,,,,,,75,152824,21,Female,1,2024/02/22_09:55:42,YZ,None
,,,,,,practice,0,2,2,2583,2,N,0,right,0.794050171,1,0,,,,,,,,,,,,,,,,,,,,,1,,,,,,,,,,,,,,,,,,,,,,,,,,,,,,,,,,,,,,,,,,,,,,75,152824,21,Female,1,2024/02/22_09:55:42,YZ,None
,,,,,,practice,0,2,2,2583,3,J,0,right,0.884262738,1,0,,,,,,,,,,,,,,,,,,,,,1,,,,,,,,,,,,,,,,,,,,,,,,,,,,,,,,,,,,,,,,,,,,,,75,152824,21,Female,1,2024/02/22_09:55:42,YZ,None
,,,,,,practice,0,2,2,2583,4,S,0,right,0.78068173,1,0,,,,,,,,,,,,,,,,,,,,,1,,,,,,,,,,,,,,,,,,,,,,,,,,,,,,,,,,,,,,,,,,,,,,75,152824,21,Female,1,2024/02/22_09:55:42,YZ,None
,,,,,,practice,0,2,2,2583,5,J,1,left,0.751158604,1,0,,,,,,,,,,,,,,,,,,,,,1,,,,,,,,,,,,,,,,,,,,,,,,,,,,,,,,,,,,,,,,,,,,,,75,152824,21,Female,1,2024/02/22_09:55:42,YZ,None
,,,,,,practice,0,2,2,2583,6,S,1,left,0.785577293,1,0,,,,,,,,,,,,,,,,,,,,,1,,,,,,,,,,,,,,,,,,,,,,,,,,,,,,,,,,,,,,,,,,,,,,75,152824,21,Female,1,2024/02/22_09:55:42,YZ,None
,,,,,,practice,0,2,2,2583,,,,,,,,1,1,0,1,0,1,0.81135712,2,0,0,0,0,4,6,2,4,0,,,,1,,,,,,,,,,,,,,,,,,,,,,,,,,,,,,,,,,,,,,,,,,,,,,75,152824,21,Female,1,2024/02/22_09:55:42,YZ,None
-1,./instructions/inst_to_cali/Slide20.png,left,1.460774998,1151.869038,1153.329813,,,,,,,,,,,,,,,,,,,,,,,,,,,,,,,,,1,,,,,,,,,,,,,,,,,,,,,,,,,,,,,,,,,,,,,,,,,,,,,,75,152824,21,Female,1,2024/02/22_09:55:42,YZ,None
,,,,,,practice,0,32,2,2583,1,X,0,right,0.880470342,1,0,,,,,,,,,,,,,,,,,,,,,1,,,,,,,,,,,,,,,,,,,,,,,,,,,,,,,,,,,,,,,,,,,,,,75,152824,21,Female,1,2024/02/22_09:55:42,YZ,None
,,,,,,practice,0,32,2,2583,2,J,0,right,0.7974743,1,0,,,,,,,,,,,,,,,,,,,,,1,,,,,,,,,,,,,,,,,,,,,,,,,,,,,,,,,,,,,,,,,,,,,,75,152824,21,Female,1,2024/02/22_09:55:42,YZ,None
,,,,,,practice,0,32,2,2583,3,V,0,right,0.873841605,1,0,,,,,,,,,,,,,,,,,,,,,1,,,,,,,,,,,,,,,,,,,,,,,,,,,,,,,,,,,,,,,,,,,,,,75,152824,21,Female,1,2024/02/22_09:55:42,YZ,None
,,,,,,practice,0,32,2,2583,4,J,1,left,1.655505023,1,0,,,,,,,,,,,,,,,,,,,,,1,,,,,,,,,,,,,,,,,,,,,,,,,,,,,,,,,,,,,,,,,,,,,,75,152824,21,Female,1,2024/02/22_09:55:42,YZ,None
,,,,,,practice,0,32,2,2583,5,Q,0,right,0.868065199,1,0,,,,,,,,,,,,,,,,,,,,,1,,,,,,,,,,,,,,,,,,,,,,,,,,,,,,,,,,,,,,,,,,,,,,75,152824,21,Female,1,2024/02/22_09:55:42,YZ,None
,,,,,,practice,0,32,2,2583,6,J,1,left,0.603854148,1,0,,,,,,,,,,,,,,,,,,,,,1,,,,,,,,,,,,,,,,,,,,,,,,,,,,,,,,,,,,,,,,,,,,,,75,152824,21,Female,1,2024/02/22_09:55:42,YZ,None
,,,,,,practice,0,32,2,2583,,,,,,,,1,1,0,1,0,1,0.946535103,2,0,0,0,0,4,6,2,4,0,,,,1,,,,,,,,,,,,,,,,,,,,,,,,,,,,,,,,,,,,,,,,,,,,,,75,152824,21,Female,1,2024/02/22_09:55:42,YZ,None
-1,./instructions/inst_to_cali/Slide20.png,left,1.738044,1166.359564,1168.097608,,,,,,,,,,,,,,,,,,,,,,,,,,,,,,,,,1,,,,,,,,,,,,,,,,,,,,,,,,,,,,,,,,,,,,,,,,,,,,,,75,152824,21,Female,1,2024/02/22_09:55:42,YZ,None
,,,,,,practice,0,13,2,2583,1,J,0,right,1.010933454,1,0,,,,,,,,,,,,,,,,,,,,,1,,,,,,,,,,,,,,,,,,,,,,,,,,,,,,,,,,,,,,,,,,,,,,75,152824,21,Female,1,2024/02/22_09:55:42,YZ,None
,,,,,,practice,0,13,2,2583,2,V,0,right,0.732247798,1,0,,,,,,,,,,,,,,,,,,,,,1,,,,,,,,,,,,,,,,,,,,,,,,,,,,,,,,,,,,,,,,,,,,,,75,152824,21,Female,1,2024/02/22_09:55:42,YZ,None
,,,,,,practice,0,13,2,2583,3,J,1,left,0.642241841,1,0,,,,,,,,,,,,,,,,,,,,,1,,,,,,,,,,,,,,,,,,,,,,,,,,,,,,,,,,,,,,,,,,,,,,75,152824,21,Female,1,2024/02/22_09:55:42,YZ,None
,,,,,,practice,0,13,2,2583,4,V,1,left,0.94040175,1,0,,,,,,,,,,,,,,,,,,,,,1,,,,,,,,,,,,,,,,,,,,,,,,,,,,,,,,,,,,,,,,,,,,,,75,152824,21,Female,1,2024/02/22_09:55:42,YZ,None
,,,,,,practice,0,13,2,2583,5,S,0,right,1.000418844,1,0,,,,,,,,,,,,,,,,,,,,,1,,,,,,,,,,,,,,,,,,,,,,,,,,,,,,,,,,,,,,,,,,,,,,75,152824,21,Female,1,2024/02/22_09:55:42,YZ,None
,,,,,,practice,0,13,2,2583,6,N,0,right,1.205236238,1,0,,,,,,,,,,,,,,,,,,,,,1,,,,,,,,,,,,,,,,,,,,,,,,,,,,,,,,,,,,,,,,,,,,,,75,152824,21,Female,1,2024/02/22_09:55:42,YZ,None
,,,,,,practice,0,13,2,2583,,,,,,,,1,1,0,1,0,1,0.921913321,2,0,0,0,0,4,6,2,4,0,,,,1,,,,,,,,,,,,,,,,,,,,,,,,,,,,,,,,,,,,,,,,,,,,,,75,152824,21,Female,1,2024/02/22_09:55:42,YZ,None
-1,./instructions/inst_to_cali/Slide20.png,left,1.708716364,1180.973232,1182.681949,,,,,,,,,,,,,,,,,,,,,,,,,,,,,,,,,1,,,,,,,,,,,,,,,,,,,,,,,,,,,,,,,,,,,,,,,,,,,,,,75,152824,21,Female,1,2024/02/22_09:55:42,YZ,None
,,,,,,practice,0,8,2,2583,1,X,0,right,0.7055496,1,0,,,,,,,,,,,,,,,,,,,,,1,,,,,,,,,,,,,,,,,,,,,,,,,,,,,,,,,,,,,,,,,,,,,,75,152824,21,Female,1,2024/02/22_09:55:42,YZ,None
,,,,,,practice,0,8,2,2583,2,C,0,right,0.906458555,1,0,,,,,,,,,,,,,,,,,,,,,1,,,,,,,,,,,,,,,,,,,,,,,,,,,,,,,,,,,,,,,,,,,,,,75,152824,21,Female,1,2024/02/22_09:55:42,YZ,None
,,,,,,practice,0,8,2,2583,3,X,1,left,0.676665105,1,0,,,,,,,,,,,,,,,,,,,,,1,,,,,,,,,,,,,,,,,,,,,,,,,,,,,,,,,,,,,,,,,,,,,,75,152824,21,Female,1,2024/02/22_09:55:42,YZ,None
,,,,,,practice,0,8,2,2583,4,C,1,left,0.808736514,1,0,,,,,,,,,,,,,,,,,,,,,1,,,,,,,,,,,,,,,,,,,,,,,,,,,,,,,,,,,,,,,,,,,,,,75,152824,21,Female,1,2024/02/22_09:55:42,YZ,None
,,,,,,practice,0,8,2,2583,5,Q,0,right,0.820192765,1,0,,,,,,,,,,,,,,,,,,,,,1,,,,,,,,,,,,,,,,,,,,,,,,,,,,,,,,,,,,,,,,,,,,,,75,152824,21,Female,1,2024/02/22_09:55:42,YZ,None
,,,,,,practice,0,8,2,2583,6,V,0,right,1.981184772,1,0,,,,,,,,,,,,,,,,,,,,,1,,,,,,,,,,,,,,,,,,,,,,,,,,,,,,,,,,,,,,,,,,,,,,75,152824,21,Female,1,2024/02/22_09:55:42,YZ,None
,,,,,,practice,0,8,2,2583,,,,,,,,1,1,0,1,0,1,0.983131218,2,0,0,0,0,4,6,2,4,0,,,,1,,,,,,,,,,,,,,,,,,,,,,,,,,,,,,,,,,,,,,,,,,,,,,75,152824,21,Female,1,2024/02/22_09:55:42,YZ,None
-1,./instructions/inst_to_cali/Slide20.png,left,2.081547516,1195.928032,1198.00958,,,,,,,,,,,,,,,,,,,,,,,,,,,,,,,,,1,,,,,,,,,,,,,,,,,,,,,,,,,,,,,,,,,,,,,,,,,,,,,,75,152824,21,Female,1,2024/02/22_09:55:42,YZ,None
,,,,,,practice,0,11,2,2583,1,S,0,right,0.546983823,1,0,,,,,,,,,,,,,,,,,,,,,1,,,,,,,,,,,,,,,,,,,,,,,,,,,,,,,,,,,,,,,,,,,,,,75,152824,21,Female,1,2024/02/22_09:55:42,YZ,None
,,,,,,practice,0,11,2,2583,2,N,0,right,0.770400923,1,0,,,,,,,,,,,,,,,,,,,,,1,,,,,,,,,,,,,,,,,,,,,,,,,,,,,,,,,,,,,,,,,,,,,,75,152824,21,Female,1,2024/02/22_09:55:42,YZ,None
,,,,,,practice,0,11,2,2583,3,S,1,left,0.734496898,1,0,,,,,,,,,,,,,,,,,,,,,1,,,,,,,,,,,,,,,,,,,,,,,,,,,,,,,,,,,,,,,,,,,,,,75,152824,21,Female,1,2024/02/22_09:55:42,YZ,None
,,,,,,practice,0,11,2,2583,4,Q,0,right,1.142172358,1,0,,,,,,,,,,,,,,,,,,,,,1,,,,,,,,,,,,,,,,,,,,,,,,,,,,,,,,,,,,,,,,,,,,,,75,152824,21,Female,1,2024/02/22_09:55:42,YZ,None
,,,,,,practice,0,11,2,2583,5,S,1,left,0.998108106,1,0,,,,,,,,,,,,,,,,,,,,,1,,,,,,,,,,,,,,,,,,,,,,,,,,,,,,,,,,,,,,,,,,,,,,75,152824,21,Female,1,2024/02/22_09:55:42,YZ,None
,,,,,,practice,0,11,2,2583,6,N,0,right,0.809356482,1,0,,,,,,,,,,,,,,,,,,,,,1,,,,,,,,,,,,,,,,,,,,,,,,,,,,,,,,,,,,,,,,,,,,,,75,152824,21,Female,1,2024/02/22_09:55:42,YZ,None
,,,,,,practice,0,11,2,2583,,,,,,,,1,1,0,1,0,1,0.833586432,2,0,0,0,0,4,6,2,4,0,,,,1,,,,,,,,,,,,,,,,,,,,,,,,,,,,,,,,,,,,,,,,,,,,,,75,152824,21,Female,1,2024/02/22_09:55:42,YZ,None
-1,./instructions/inst_to_cali/Slide20.png,left,1.616720751,1210.344845,1211.961566,,,,,,,,,,,,,,,,,,,,,,,,,,,,,,,,,1,,,,,,,,,,,,,,,,,,,,,,,,,,,,,,,,,,,,,,,,,,,,,,75,152824,21,Female,1,2024/02/22_09:55:42,YZ,None
,,,,,,practice,0,7,2,2583,1,J,0,right,0.545305759,1,0,,,,,,,,,,,,,,,,,,,,,1,,,,,,,,,,,,,,,,,,,,,,,,,,,,,,,,,,,,,,,,,,,,,,75,152824,21,Female,1,2024/02/22_09:55:42,YZ,None
,,,,,,practice,0,7,2,2583,2,J,0,right,0.796485751,1,0,,,,,,,,,,,,,,,,,,,,,1,,,,,,,,,,,,,,,,,,,,,,,,,,,,,,,,,,,,,,,,,,,,,,75,152824,21,Female,1,2024/02/22_09:55:42,YZ,None
,,,,,,practice,0,7,2,2583,3,J,1,left,0.613795273,1,0,,,,,,,,,,,,,,,,,,,,,1,,,,,,,,,,,,,,,,,,,,,,,,,,,,,,,,,,,,,,,,,,,,,,75,152824,21,Female,1,2024/02/22_09:55:42,YZ,None
,,,,,,practice,0,7,2,2583,4,J,1,left,1.749180308,1,0,,,,,,,,,,,,,,,,,,,,,1,,,,,,,,,,,,,,,,,,,,,,,,,,,,,,,,,,,,,,,,,,,,,,75,152824,21,Female,1,2024/02/22_09:55:42,YZ,None
,,,,,,practice,0,7,2,2583,5,S,0,right,4.773096877,1,0,,,,,,,,,,,,,,,,,,,,,1,,,,,,,,,,,,,,,,,,,,,,,,,,,,,,,,,,,,,,,,,,,,,,75,152824,21,Female,1,2024/02/22_09:55:42,YZ,None
,,,,,,practice,0,7,2,2583,6,V,0,right,4.148069754,1,0,,,,,,,,,,,,,,,,,,,,,1,,,,,,,,,,,,,,,,,,,,,,,,,,,,,,,,,,,,,,,,,,,,,,75,152824,21,Female,1,2024/02/22_09:55:42,YZ,None
,,,,,,practice,0,7,2,2583,,,,,,,,1,1,0,1,0,1,2.104322287,2,0,0,0,0,4,6,2,4,0,,,,1,,,,,,,,,,,,,,,,,,,,,,,,,,,,,,,,,,,,,,,,,,,,,,75,152824,21,Female,1,2024/02/22_09:55:42,YZ,None
-1,./instructions/inst_to_cali/Slide20.png,left,2.737830066,1231.936002,1234.673832,,,,,,,,,,,,,,,,,,,,,,,,,,,,,,,,,1,,,,,,,,,,,,,,,,,,,,,,,,,,,,,,,,,,,,,,,,,,,,,,75,152824,21,Female,1,2024/02/22_09:55:42,YZ,None
,,,,,,practice,0,31,2,2583,1,J,0,right,0.377497352,1,0,,,,,,,,,,,,,,,,,,,,,1,,,,,,,,,,,,,,,,,,,,,,,,,,,,,,,,,,,,,,,,,,,,,,75,152824,21,Female,1,2024/02/22_09:55:42,YZ,None
,,,,,,practice,0,31,2,2583,2,S,0,right,0.755164627,1,0,,,,,,,,,,,,,,,,,,,,,1,,,,,,,,,,,,,,,,,,,,,,,,,,,,,,,,,,,,,,,,,,,,,,75,152824,21,Female,1,2024/02/22_09:55:42,YZ,None
,,,,,,practice,0,31,2,2583,3,X,0,right,0.946249986,1,0,,,,,,,,,,,,,,,,,,,,,1,,,,,,,,,,,,,,,,,,,,,,,,,,,,,,,,,,,,,,,,,,,,,,75,152824,21,Female,1,2024/02/22_09:55:42,YZ,None
,,,,,,practice,0,31,2,2583,4,J,0,right,1.732564909,1,0,,,,,,,,,,,,,,,,,,,,,1,,,,,,,,,,,,,,,,,,,,,,,,,,,,,,,,,,,,,,,,,,,,,,75,152824,21,Female,1,2024/02/22_09:55:42,YZ,None
,,,,,,practice,0,31,2,2583,5,X,1,left,1.060185818,1,0,,,,,,,,,,,,,,,,,,,,,1,,,,,,,,,,,,,,,,,,,,,,,,,,,,,,,,,,,,,,,,,,,,,,75,152824,21,Female,1,2024/02/22_09:55:42,YZ,None
,,,,,,practice,0,31,2,2583,6,J,1,left,1.105437625,1,0,,,,,,,,,,,,,,,,,,,,,1,,,,,,,,,,,,,,,,,,,,,,,,,,,,,,,,,,,,,,,,,,,,,,75,152824,21,Female,1,2024/02/22_09:55:42,YZ,None
,,,,,,practice,0,31,2,2583,,,,,,,,1,1,0,1,0,1,0.996183386,2,0,0,0,0,4,6,2,4,0,,,,1,,,,,,,,,,,,,,,,,,,,,,,,,,,,,,,,,,,,,,,,,,,,,,75,152824,21,Female,1,2024/02/22_09:55:42,YZ,None
-1,./instructions/inst_to_cali/Slide20.png,left,1.692389801,1247.989034,1249.681424,,,,,,,,,,,,,,,,,,,,,,,,,,,,,,,,,1,,,,,,,,,,,,,,,,,,,,,,,,,,,,,,,,,,,,,,,,,,,,,,75,152824,21,Female,1,2024/02/22_09:55:42,YZ,None
,,,,,,practice,0,8,2,2583,1,X,0,right,0.391772306,1,0,,,,,,,,,,,,,,,,,,,,,1,,,,,,,,,,,,,,,,,,,,,,,,,,,,,,,,,,,,,,,,,,,,,,75,152824,21,Female,1,2024/02/22_09:55:42,YZ,None
,,,,,,practice,0,8,2,2583,2,C,0,right,0.491380007,1,0,,,,,,,,,,,,,,,,,,,,,1,,,,,,,,,,,,,,,,,,,,,,,,,,,,,,,,,,,,,,,,,,,,,,75,152824,21,Female,1,2024/02/22_09:55:42,YZ,None
,,,,,,practice,0,8,2,2583,3,X,1,left,0.883498275,1,0,,,,,,,,,,,,,,,,,,,,,1,,,,,,,,,,,,,,,,,,,,,,,,,,,,,,,,,,,,,,,,,,,,,,75,152824,21,Female,1,2024/02/22_09:55:42,YZ,None
,,,,,,practice,0,8,2,2583,4,C,1,left,1.564497321,1,0,,,,,,,,,,,,,,,,,,,,,1,,,,,,,,,,,,,,,,,,,,,,,,,,,,,,,,,,,,,,,,,,,,,,75,152824,21,Female,1,2024/02/22_09:55:42,YZ,None
,,,,,,practice,0,8,2,2583,5,Q,0,right,0.725104689,1,0,,,,,,,,,,,,,,,,,,,,,1,,,,,,,,,,,,,,,,,,,,,,,,,,,,,,,,,,,,,,,,,,,,,,75,152824,21,Female,1,2024/02/22_09:55:42,YZ,None
,,,,,,practice,0,8,2,2583,6,V,0,left,1.233660241,0,0,,,,,,,,,,,,,,,,,,,,,1,,,,,,,,,,,,,,,,,,,,,,,,,,,,,,,,,,,,,,,,,,,,,,75,152824,21,Female,1,2024/02/22_09:55:42,YZ,None
,,,,,,practice,0,8,2,2583,,,,,,,,0.9375,1,0.25,0.75,0,0.75,0.88165214,2,1,0,0,0,3,5,2,4,0,,,,1,,,,,,,,,,,,,,,,,,,,,,,,,,,,,,,,,,,,,,,,,,,,,,75,152824,21,Female,1,2024/02/22_09:55:42,YZ,None
-1,./instructions/inst_to_cali/Slide20.png,left,1.877312493,1262.820299,1264.697612,,,,,,,,,,,,,,,,,,,,,,,,,,,,,,,,,1,,,,,,,,,,,,,,,,,,,,,,,,,,,,,,,,,,,,,,,,,,,,,,75,152824,21,Female,1,2024/02/22_09:55:42,YZ,None
,,,,,,practice,0,18,2,2583,1,V,0,right,0.587474501,1,0,,,,,,,,,,,,,,,,,,,,,1,,,,,,,,,,,,,,,,,,,,,,,,,,,,,,,,,,,,,,,,,,,,,,75,152824,21,Female,1,2024/02/22_09:55:42,YZ,None
,,,,,,practice,0,18,2,2583,2,J,0,right,0.922216247,1,0,,,,,,,,,,,,,,,,,,,,,1,,,,,,,,,,,,,,,,,,,,,,,,,,,,,,,,,,,,,,,,,,,,,,75,152824,21,Female,1,2024/02/22_09:55:42,YZ,None
,,,,,,practice,0,18,2,2583,3,V,1,left,0.677072187,1,0,,,,,,,,,,,,,,,,,,,,,1,,,,,,,,,,,,,,,,,,,,,,,,,,,,,,,,,,,,,,,,,,,,,,75,152824,21,Female,1,2024/02/22_09:55:42,YZ,None
,,,,,,practice,0,18,2,2583,4,F,0,right,0.900374605,1,0,,,,,,,,,,,,,,,,,,,,,1,,,,,,,,,,,,,,,,,,,,,,,,,,,,,,,,,,,,,,,,,,,,,,75,152824,21,Female,1,2024/02/22_09:55:42,YZ,None
,,,,,,practice,0,18,2,2583,5,V,1,left,2.061172384,1,0,,,,,,,,,,,,,,,,,,,,,1,,,,,,,,,,,,,,,,,,,,,,,,,,,,,,,,,,,,,,,,,,,,,,75,152824,21,Female,1,2024/02/22_09:55:42,YZ,None
,,,,,,practice,0,18,2,2583,6,X,0,right,1.1201641,1,0,,,,,,,,,,,,,,,,,,,,,1,,,,,,,,,,,,,,,,,,,,,,,,,,,,,,,,,,,,,,,,,,,,,,75,152824,21,Female,1,2024/02/22_09:55:42,YZ,None
,,,,,,practice,0,18,2,2583,,,,,,,,1,1,0,1,0,1,1.044745671,2,0,0,0,0,4,6,2,4,0,,,,1,,,,,,,,,,,,,,,,,,,,,,,,,,,,,,,,,,,,,,,,,,,,,,75,152824,21,Female,1,2024/02/22_09:55:42,YZ,None
-1,./instructions/inst_to_cali/Slide20.png,left,1.771401656,1278.310017,1280.081419,,,,,,,,,,,,,,,,,,,,,,,,,,,,,,,,,1,,,,,,,,,,,,,,,,,,,,,,,,,,,,,,,,,,,,,,,,,,,,,,75,152824,21,Female,1,2024/02/22_09:55:42,YZ,None
,,,,,,practice,0,21,2,2583,1,S,0,right,5.621229594,1,0,,,,,,,,,,,,,,,,,,,,,1,,,,,,,,,,,,,,,,,,,,,,,,,,,,,,,,,,,,,,,,,,,,,,75,152824,21,Female,1,2024/02/22_09:55:42,YZ,None
,,,,,,practice,0,21,2,2583,2,V,0,right,0.453935821,1,0,,,,,,,,,,,,,,,,,,,,,1,,,,,,,,,,,,,,,,,,,,,,,,,,,,,,,,,,,,,,,,,,,,,,75,152824,21,Female,1,2024/02/22_09:55:42,YZ,None
,,,,,,practice,0,21,2,2583,3,N,0,right,5.387239269,1,0,,,,,,,,,,,,,,,,,,,,,1,,,,,,,,,,,,,,,,,,,,,,,,,,,,,,,,,,,,,,,,,,,,,,75,152824,21,Female,1,2024/02/22_09:55:42,YZ,None
,,,,,,practice,0,21,2,2583,4,V,1,left,1.203764623,1,0,,,,,,,,,,,,,,,,,,,,,1,,,,,,,,,,,,,,,,,,,,,,,,,,,,,,,,,,,,,,,,,,,,,,75,152824,21,Female,1,2024/02/22_09:55:42,YZ,None
,,,,,,practice,0,21,2,2583,5,N,1,left,1.054660972,1,0,,,,,,,,,,,,,,,,,,,,,1,,,,,,,,,,,,,,,,,,,,,,,,,,,,,,,,,,,,,,,,,,,,,,75,152824,21,Female,1,2024/02/22_09:55:42,YZ,None
,,,,,,practice,0,21,2,2583,6,S,0,right,0.848979289,1,0,,,,,,,,,,,,,,,,,,,,,1,,,,,,,,,,,,,,,,,,,,,,,,,,,,,,,,,,,,,,,,,,,,,,75,152824,21,Female,1,2024/02/22_09:55:42,YZ,None
,,,,,,practice,0,21,2,2583,,,,,,,,1,1,0,1,0,1,2.428301595,2,0,0,0,0,4,6,2,4,0,,,,1,,,,,,,,,,,,,,,,,,,,,,,,,,,,,,,,,,,,,,,,,,,,,,75,152824,21,Female,1,2024/02/22_09:55:42,YZ,None
-1,./instructions/inst_to_cali/Slide20.png,left,1.641347921,1301.992245,1303.633593,,,,,,,,,,,,,,,,,,,,,,,,,,,,,,,,,1,,,,,,,,,,,,,,,,,,,,,,,,,,,,,,,,,,,,,,,,,,,,,,75,152824,21,Female,1,2024/02/22_09:55:42,YZ,None
,,,,,,practice,0,14,2,2583,1,J,0,right,5.563207389,1,0,,,,,,,,,,,,,,,,,,,,,1,,,,,,,,,,,,,,,,,,,,,,,,,,,,,,,,,,,,,,,,,,,,,,75,152824,21,Female,1,2024/02/22_09:55:42,YZ,None
,,,,,,practice,0,14,2,2583,2,C,0,right,0.707993948,1,0,,,,,,,,,,,,,,,,,,,,,1,,,,,,,,,,,,,,,,,,,,,,,,,,,,,,,,,,,,,,,,,,,,,,75,152824,21,Female,1,2024/02/22_09:55:42,YZ,None
,,,,,,practice,0,14,2,2583,3,J,1,left,0.602464158,1,0,,,,,,,,,,,,,,,,,,,,,1,,,,,,,,,,,,,,,,,,,,,,,,,,,,,,,,,,,,,,,,,,,,,,75,152824,21,Female,1,2024/02/22_09:55:42,YZ,None
,,,,,,practice,0,14,2,2583,4,C,1,left,0.911138995,1,0,,,,,,,,,,,,,,,,,,,,,1,,,,,,,,,,,,,,,,,,,,,,,,,,,,,,,,,,,,,,,,,,,,,,75,152824,21,Female,1,2024/02/22_09:55:42,YZ,None
,,,,,,practice,0,14,2,2583,5,S,0,right,0.844358145,1,0,,,,,,,,,,,,,,,,,,,,,1,,,,,,,,,,,,,,,,,,,,,,,,,,,,,,,,,,,,,,,,,,,,,,75,152824,21,Female,1,2024/02/22_09:55:42,YZ,None
,,,,,,practice,0,14,2,2583,6,F,0,left,1.993653202,0,0,,,,,,,,,,,,,,,,,,,,,1,,,,,,,,,,,,,,,,,,,,,,,,,,,,,,,,,,,,,,,,,,,,,,75,152824,21,Female,1,2024/02/22_09:55:42,YZ,None
,,,,,,practice,0,14,2,2583,,,,,,,,0.9375,1,0.25,0.75,0,0.75,1.770469306,2,1,0,0,0,3,5,2,4,0,,,,1,,,,,,,,,,,,,,,,,,,,,,,,,,,,,,,,,,,,,,,,,,,,,,75,152824,21,Female,1,2024/02/22_09:55:42,YZ,None
-1,./instructions/inst_to_cali/Slide20.png,left,2.007145316,1322.106422,1324.113567,,,,,,,,,,,,,,,,,,,,,,,,,,,,,,,,,1,,,,,,,,,,,,,,,,,,,,,,,,,,,,,,,,,,,,,,,,,,,,,,75,152824,21,Female,1,2024/02/22_09:55:42,YZ,None
,,,,,,practice,0,22,2,2583,1,J,0,right,0.509056914,1,0,,,,,,,,,,,,,,,,,,,,,1,,,,,,,,,,,,,,,,,,,,,,,,,,,,,,,,,,,,,,,,,,,,,,75,152824,21,Female,1,2024/02/22_09:55:42,YZ,None
,,,,,,practice,0,22,2,2583,2,Q,0,right,0.60990492,1,0,,,,,,,,,,,,,,,,,,,,,1,,,,,,,,,,,,,,,,,,,,,,,,,,,,,,,,,,,,,,,,,,,,,,75,152824,21,Female,1,2024/02/22_09:55:42,YZ,None
,,,,,,practice,0,22,2,2583,3,J,1,left,1.049577695,1,0,,,,,,,,,,,,,,,,,,,,,1,,,,,,,,,,,,,,,,,,,,,,,,,,,,,,,,,,,,,,,,,,,,,,75,152824,21,Female,1,2024/02/22_09:55:42,YZ,None
,,,,,,practice,0,22,2,2583,4,X,0,right,0.774298977,1,0,,,,,,,,,,,,,,,,,,,,,1,,,,,,,,,,,,,,,,,,,,,,,,,,,,,,,,,,,,,,,,,,,,,,75,152824,21,Female,1,2024/02/22_09:55:42,YZ,None
,,,,,,practice,0,22,2,2583,5,C,0,right,2.507776266,1,0,,,,,,,,,,,,,,,,,,,,,1,,,,,,,,,,,,,,,,,,,,,,,,,,,,,,,,,,,,,,,,,,,,,,75,152824,21,Female,1,2024/02/22_09:55:42,YZ,None
,,,,,,practice,0,22,2,2583,6,X,1,left,0.810086912,1,0,,,,,,,,,,,,,,,,,,,,,1,,,,,,,,,,,,,,,,,,,,,,,,,,,,,,,,,,,,,,,,,,,,,,75,152824,21,Female,1,2024/02/22_09:55:42,YZ,None
,,,,,,practice,0,22,2,2583,,,,,,,,1,1,0,1,0,1,1.043450281,2,0,0,0,0,4,6,2,4,0,,,,1,,,,,,,,,,,,,,,,,,,,,,,,,,,,,,,,,,,,,,,,,,,,,,75,152824,21,Female,1,2024/02/22_09:55:42,YZ,None
-1,./instructions/inst_to_cali/Slide20.png,left,1.873293022,1337.712368,1339.585661,,,,,,,,,,,,,,,,,,,,,,,,,,,,,,,,,1,,,,,,,,,,,,,,,,,,,,,,,,,,,,,,,,,,,,,,,,,,,,,,75,152824,21,Female,1,2024/02/22_09:55:42,YZ,None
,,,,,,practice,0,33,2,2583,1,F,0,right,0.681954336,1,0,,,,,,,,,,,,,,,,,,,,,1,,,,,,,,,,,,,,,,,,,,,,,,,,,,,,,,,,,,,,,,,,,,,,75,152824,21,Female,1,2024/02/22_09:55:42,YZ,None
,,,,,,practice,0,33,2,2583,2,F,0,right,0.873736587,1,0,,,,,,,,,,,,,,,,,,,,,1,,,,,,,,,,,,,,,,,,,,,,,,,,,,,,,,,,,,,,,,,,,,,,75,152824,21,Female,1,2024/02/22_09:55:42,YZ,None
,,,,,,practice,0,33,2,2583,3,C,0,right,2.427872196,1,0,,,,,,,,,,,,,,,,,,,,,1,,,,,,,,,,,,,,,,,,,,,,,,,,,,,,,,,,,,,,,,,,,,,,75,152824,21,Female,1,2024/02/22_09:55:42,YZ,None
,,,,,,practice,0,33,2,2583,4,F,1,left,0.837650771,1,0,,,,,,,,,,,,,,,,,,,,,1,,,,,,,,,,,,,,,,,,,,,,,,,,,,,,,,,,,,,,,,,,,,,,75,152824,21,Female,1,2024/02/22_09:55:42,YZ,None
,,,,,,practice,0,33,2,2583,5,C,1,left,1.204471613,1,0,,,,,,,,,,,,,,,,,,,,,1,,,,,,,,,,,,,,,,,,,,,,,,,,,,,,,,,,,,,,,,,,,,,,75,152824,21,Female,1,2024/02/22_09:55:42,YZ,None
,,,,,,practice,0,33,2,2583,6,J,0,right,2.381661281,1,0,,,,,,,,,,,,,,,,,,,,,1,,,,,,,,,,,,,,,,,,,,,,,,,,,,,,,,,,,,,,,,,,,,,,75,152824,21,Female,1,2024/02/22_09:55:42,YZ,None
,,,,,,practice,0,33,2,2583,,,,,,,,1,1,0,1,0,1,1.401224464,2,0,0,0,0,4,6,2,4,0,,,,1,,,,,,,,,,,,,,,,,,,,,,,,,,,,,,,,,,,,,,,,,,,,,,75,152824,21,Female,1,2024/02/22_09:55:42,YZ,None
-1,./instructions/inst_to_cali/Slide20.png,left,2.537563167,1355.344141,1357.881704,,,,,,,,,,,,,,,,,,,,,,,,,,,,,,,,,1,,,,,,,,,,,,,,,,,,,,,,,,,,,,,,,,,,,,,,,,,,,,,,75,152824,21,Female,1,2024/02/22_09:55:42,YZ,None
,,,,,,practice,0,21,2,2583,1,S,0,right,1.256462988,1,0,,,,,,,,,,,,,,,,,,,,,1,,,,,,,,,,,,,,,,,,,,,,,,,,,,,,,,,,,,,,,,,,,,,,75,152824,21,Female,1,2024/02/22_09:55:42,YZ,None
,,,,,,practice,0,21,2,2583,2,V,0,right,0.720930661,1,0,,,,,,,,,,,,,,,,,,,,,1,,,,,,,,,,,,,,,,,,,,,,,,,,,,,,,,,,,,,,,,,,,,,,75,152824,21,Female,1,2024/02/22_09:55:42,YZ,None
,,,,,,practice,0,21,2,2583,3,N,0,right,0.865213534,1,0,,,,,,,,,,,,,,,,,,,,,1,,,,,,,,,,,,,,,,,,,,,,,,,,,,,,,,,,,,,,,,,,,,,,75,152824,21,Female,1,2024/02/22_09:55:42,YZ,None
,,,,,,practice,0,21,2,2583,4,V,1,left,1.012263887,1,0,,,,,,,,,,,,,,,,,,,,,1,,,,,,,,,,,,,,,,,,,,,,,,,,,,,,,,,,,,,,,,,,,,,,75,152824,21,Female,1,2024/02/22_09:55:42,YZ,None
,,,,,,practice,0,21,2,2583,5,N,1,left,0.845037231,1,0,,,,,,,,,,,,,,,,,,,,,1,,,,,,,,,,,,,,,,,,,,,,,,,,,,,,,,,,,,,,,,,,,,,,75,152824,21,Female,1,2024/02/22_09:55:42,YZ,None
,,,,,,practice,0,21,2,2583,6,S,0,right,0.861898685,1,0,,,,,,,,,,,,,,,,,,,,,1,,,,,,,,,,,,,,,,,,,,,,,,,,,,,,,,,,,,,,,,,,,,,,75,152824,21,Female,1,2024/02/22_09:55:42,YZ,None
,,,,,,practice,0,21,2,2583,,,,,,,,1,1,0,1,0,1,0.926967831,2,0,0,0,0,4,6,2,4,0,,,,1,,,,,,,,,,,,,,,,,,,,,,,,,,,,,,,,,,,,,,,,,,,,,,75,152824,21,Female,1,2024/02/22_09:55:42,YZ,None
-1,./instructions/inst_to_cali/Slide20.png,left,1.465915065,1370.791708,1372.257623,,,,,,,,,,,,,,,,,,,,,,,,,,,,,,,,,1,,,,,,,,,,,,,,,,,,,,,,,,,,,,,,,,,,,,,,,,,,,,,,75,152824,21,Female,1,2024/02/22_09:55:42,YZ,None
,,,,,,practice,0,36,2,2583,1,X,0,right,2.257531257,1,0,,,,,,,,,,,,,,,,,,,,,1,,,,,,,,,,,,,,,,,,,,,,,,,,,,,,,,,,,,,,,,,,,,,,75,152824,21,Female,1,2024/02/22_09:55:42,YZ,None
,,,,,,practice,0,36,2,2583,2,V,0,right,1.10337597,1,0,,,,,,,,,,,,,,,,,,,,,1,,,,,,,,,,,,,,,,,,,,,,,,,,,,,,,,,,,,,,,,,,,,,,75,152824,21,Female,1,2024/02/22_09:55:42,YZ,None
,,,,,,practice,0,36,2,2583,3,X,1,left,1.199807741,1,0,,,,,,,,,,,,,,,,,,,,,1,,,,,,,,,,,,,,,,,,,,,,,,,,,,,,,,,,,,,,,,,,,,,,75,152824,21,Female,1,2024/02/22_09:55:42,YZ,None
,,,,,,practice,0,36,2,2583,4,V,1,left,1.077012747,1,0,,,,,,,,,,,,,,,,,,,,,1,,,,,,,,,,,,,,,,,,,,,,,,,,,,,,,,,,,,,,,,,,,,,,75,152824,21,Female,1,2024/02/22_09:55:42,YZ,None
,,,,,,practice,0,36,2,2583,5,N,0,right,0.933053899,1,0,,,,,,,,,,,,,,,,,,,,,1,,,,,,,,,,,,,,,,,,,,,,,,,,,,,,,,,,,,,,,,,,,,,,75,152824,21,Female,1,2024/02/22_09:55:42,YZ,None
,,,,,,practice,0,36,2,2583,6,F,0,right,1.384447911,1,0,,,,,,,,,,,,,,,,,,,,,1,,,,,,,,,,,,,,,,,,,,,,,,,,,,,,,,,,,,,,,,,,,,,,75,152824,21,Female,1,2024/02/22_09:55:42,YZ,None
,,,,,,practice,0,36,2,2583,,,,,,,,1,1,0,1,0,1,1.325871587,2,0,0,0,0,4,6,2,4,0,,,,1,,,,,,,,,,,,,,,,,,,,,,,,,,,,,,,,,,,,,,,,,,,,,,75,152824,21,Female,1,2024/02/22_09:55:42,YZ,None
-1,./instructions/inst_to_cali/Slide20.png,left,15.44473536,1387.556938,1403.001674,,,,,,,,,,,,,,,,,,,,,,,,,,,,,,,,,1,,,,,,,,,,,,,,,,,,,,,,,,,,,,,,,,,,,,,,,,,,,,,,75,152824,21,Female,1,2024/02/22_09:55:42,YZ,None
,,,,,,practice,0,15,2,2583,1,F,0,right,2.274184469,1,0,,,,,,,,,,,,,,,,,,,,,1,,,,,,,,,,,,,,,,,,,,,,,,,,,,,,,,,,,,,,,,,,,,,,75,152824,21,Female,1,2024/02/22_09:55:42,YZ,None
,,,,,,practice,0,15,2,2583,2,N,0,right,0.742795093,1,0,,,,,,,,,,,,,,,,,,,,,1,,,,,,,,,,,,,,,,,,,,,,,,,,,,,,,,,,,,,,,,,,,,,,75,152824,21,Female,1,2024/02/22_09:55:42,YZ,None
,,,,,,practice,0,15,2,2583,3,V,0,right,0.641419916,1,0,,,,,,,,,,,,,,,,,,,,,1,,,,,,,,,,,,,,,,,,,,,,,,,,,,,,,,,,,,,,,,,,,,,,75,152824,21,Female,1,2024/02/22_09:55:42,YZ,None
,,,,,,practice,0,15,2,2583,4,N,1,left,0.885811149,1,0,,,,,,,,,,,,,,,,,,,,,1,,,,,,,,,,,,,,,,,,,,,,,,,,,,,,,,,,,,,,,,,,,,,,75,152824,21,Female,1,2024/02/22_09:55:42,YZ,None
,,,,,,practice,0,15,2,2583,5,C,0,right,0.838767377,1,0,,,,,,,,,,,,,,,,,,,,,1,,,,,,,,,,,,,,,,,,,,,,,,,,,,,,,,,,,,,,,,,,,,,,75,152824,21,Female,1,2024/02/22_09:55:42,YZ,None
,,,,,,practice,0,15,2,2583,6,N,1,left,0.902020717,1,0,,,,,,,,,,,,,,,,,,,,,1,,,,,,,,,,,,,,,,,,,,,,,,,,,,,,,,,,,,,,,,,,,,,,75,152824,21,Female,1,2024/02/22_09:55:42,YZ,None
,,,,,,practice,0,15,2,2583,,,,,,,,1,1,0,1,0,1,1.047499787,2,0,0,0,0,4,6,2,4,0,,,,1,,,,,,,,,,,,,,,,,,,,,,,,,,,,,,,,,,,,,,,,,,,,,,75,152824,21,Female,1,2024/02/22_09:55:42,YZ,None
-1,./instructions/inst_to_cali/Slide20.png,left,1.447702623,1416.633771,1418.081473,,,,,,,,,,,,,,,,,,,,,,,,,,,,,,,,,1,,,,,,,,,,,,,,,,,,,,,,,,,,,,,,,,,,,,,,,,,,,,,,75,152824,21,Female,1,2024/02/22_09:55:42,YZ,None
,,,,,,practice,0,33,2,2583,1,F,0,right,2.300530646,1,0,,,,,,,,,,,,,,,,,,,,,1,,,,,,,,,,,,,,,,,,,,,,,,,,,,,,,,,,,,,,,,,,,,,,75,152824,21,Female,1,2024/02/22_09:55:42,YZ,None
,,,,,,practice,0,33,2,2583,2,F,0,right,1.052642597,1,0,,,,,,,,,,,,,,,,,,,,,1,,,,,,,,,,,,,,,,,,,,,,,,,,,,,,,,,,,,,,,,,,,,,,75,152824,21,Female,1,2024/02/22_09:55:42,YZ,None
,,,,,,practice,0,33,2,2583,3,C,0,right,1.31047581,1,0,,,,,,,,,,,,,,,,,,,,,1,,,,,,,,,,,,,,,,,,,,,,,,,,,,,,,,,,,,,,,,,,,,,,75,152824,21,Female,1,2024/02/22_09:55:42,YZ,None
,,,,,,practice,0,33,2,2583,4,F,1,left,0.780901864,1,0,,,,,,,,,,,,,,,,,,,,,1,,,,,,,,,,,,,,,,,,,,,,,,,,,,,,,,,,,,,,,,,,,,,,75,152824,21,Female,1,2024/02/22_09:55:42,YZ,None
,,,,,,practice,0,33,2,2583,5,C,1,left,5.644784047,1,0,,,,,,,,,,,,,,,,,,,,,1,,,,,,,,,,,,,,,,,,,,,,,,,,,,,,,,,,,,,,,,,,,,,,75,152824,21,Female,1,2024/02/22_09:55:42,YZ,None
,,,,,,practice,0,33,2,2583,6,J,0,right,0.828428209,1,0,,,,,,,,,,,,,,,,,,,,,1,,,,,,,,,,,,,,,,,,,,,,,,,,,,,,,,,,,,,,,,,,,,,,75,152824,21,Female,1,2024/02/22_09:55:42,YZ,None
,,,,,,practice,0,33,2,2583,,,,,,,,1,1,0,1,0,1,1.986293862,2,0,0,0,0,4,6,2,4,0,,,,1,,,,,,,,,,,,,,,,,,,,,,,,,,,,,,,,,,,,,,,,,,,,,,75,152824,21,Female,1,2024/02/22_09:55:42,YZ,None
-1,./instructions/inst_to_cali/Slide20.png,left,1.553202608,1437.352139,1438.905342,,,,,,,,,,,,,,,,,,,,,,,,,,,,,,,,,1,,,,,,,,,,,,,,,,,,,,,,,,,,,,,,,,,,,,,,,,,,,,,,75,152824,21,Female,1,2024/02/22_09:55:42,YZ,None
,,,,,,practice,0,7,2,2583,1,J,0,right,1.241203323,1,0,,,,,,,,,,,,,,,,,,,,,1,,,,,,,,,,,,,,,,,,,,,,,,,,,,,,,,,,,,,,,,,,,,,,75,152824,21,Female,1,2024/02/22_09:55:42,YZ,None
,,,,,,practice,0,7,2,2583,2,J,0,right,0.496293461,1,0,,,,,,,,,,,,,,,,,,,,,1,,,,,,,,,,,,,,,,,,,,,,,,,,,,,,,,,,,,,,,,,,,,,,75,152824,21,Female,1,2024/02/22_09:55:42,YZ,None
,,,,,,practice,0,7,2,2583,3,J,1,left,0.833119236,1,0,,,,,,,,,,,,,,,,,,,,,1,,,,,,,,,,,,,,,,,,,,,,,,,,,,,,,,,,,,,,,,,,,,,,75,152824,21,Female,1,2024/02/22_09:55:42,YZ,None
,,,,,,practice,0,7,2,2583,4,J,1,left,0.974572423,1,0,,,,,,,,,,,,,,,,,,,,,1,,,,,,,,,,,,,,,,,,,,,,,,,,,,,,,,,,,,,,,,,,,,,,75,152824,21,Female,1,2024/02/22_09:55:42,YZ,None
,,,,,,practice,0,7,2,2583,5,S,0,right,1.057654721,1,0,,,,,,,,,,,,,,,,,,,,,1,,,,,,,,,,,,,,,,,,,,,,,,,,,,,,,,,,,,,,,,,,,,,,75,152824,21,Female,1,2024/02/22_09:55:42,YZ,None
,,,,,,practice,0,7,2,2583,6,V,0,right,0.853609722,1,0,,,,,,,,,,,,,,,,,,,,,1,,,,,,,,,,,,,,,,,,,,,,,,,,,,,,,,,,,,,,,,,,,,,,75,152824,21,Female,1,2024/02/22_09:55:42,YZ,None
,,,,,,practice,0,7,2,2583,,,,,,,,1,1,0,1,0,1,0.909408814,2,0,0,0,0,4,6,2,4,0,,,,1,,,,,,,,,,,,,,,,,,,,,,,,,,,,,,,,,,,,,,,,,,,,,,75,152824,21,Female,1,2024/02/22_09:55:42,YZ,None
-1,./instructions/inst_to_cali/Slide20.png,left,1.488984374,1451.712532,1453.201517,,,,,,,,,,,,,,,,,,,,,,,,,,,,,,,,,1,,,,,,,,,,,,,,,,,,,,,,,,,,,,,,,,,,,,,,,,,,,,,,75,152824,21,Female,1,2024/02/22_09:55:42,YZ,None
,,,,,,practice,0,4,2,2583,1,J,0,right,0.992445433,1,0,,,,,,,,,,,,,,,,,,,,,1,,,,,,,,,,,,,,,,,,,,,,,,,,,,,,,,,,,,,,,,,,,,,,75,152824,21,Female,1,2024/02/22_09:55:42,YZ,None
,,,,,,practice,0,4,2,2583,2,C,0,right,0.684880526,1,0,,,,,,,,,,,,,,,,,,,,,1,,,,,,,,,,,,,,,,,,,,,,,,,,,,,,,,,,,,,,,,,,,,,,75,152824,21,Female,1,2024/02/22_09:55:42,YZ,None
,,,,,,practice,0,4,2,2583,3,J,1,left,1.410131013,1,0,,,,,,,,,,,,,,,,,,,,,1,,,,,,,,,,,,,,,,,,,,,,,,,,,,,,,,,,,,,,,,,,,,,,75,152824,21,Female,1,2024/02/22_09:55:42,YZ,None
,,,,,,practice,0,4,2,2583,4,C,1,left,0.996868888,1,0,,,,,,,,,,,,,,,,,,,,,1,,,,,,,,,,,,,,,,,,,,,,,,,,,,,,,,,,,,,,,,,,,,,,75,152824,21,Female,1,2024/02/22_09:55:42,YZ,None
,,,,,,practice,0,4,2,2583,5,X,0,right,0.675727408,1,0,,,,,,,,,,,,,,,,,,,,,1,,,,,,,,,,,,,,,,,,,,,,,,,,,,,,,,,,,,,,,,,,,,,,75,152824,21,Female,1,2024/02/22_09:55:42,YZ,None
,,,,,,practice,0,4,2,2583,6,S,0,right,1.139001263,1,0,,,,,,,,,,,,,,,,,,,,,1,,,,,,,,,,,,,,,,,,,,,,,,,,,,,,,,,,,,,,,,,,,,,,75,152824,21,Female,1,2024/02/22_09:55:42,YZ,None
,,,,,,practice,0,4,2,2583,,,,,,,,1,1,0,1,0,1,0.983175755,2,0,0,0,0,4,6,2,4,0,,,,1,,,,,,,,,,,,,,,,,,,,,,,,,,,,,,,,,,,,,,,,,,,,,,75,152824,21,Female,1,2024/02/22_09:55:42,YZ,None
-1,./instructions/inst_to_cali/Slide20.png,left,1.45024529,1466.447243,1467.897488,,,,,,,,,,,,,,,,,,,,,,,,,,,,,,,,,1,,,,,,,,,,,,,,,,,,,,,,,,,,,,,,,,,,,,,,,,,,,,,,75,152824,21,Female,1,2024/02/22_09:55:42,YZ,None
,,,,,,practice,0,26,2,2583,1,X,0,right,0.866246906,1,0,,,,,,,,,,,,,,,,,,,,,1,,,,,,,,,,,,,,,,,,,,,,,,,,,,,,,,,,,,,,,,,,,,,,75,152824,21,Female,1,2024/02/22_09:55:42,YZ,None
,,,,,,practice,0,26,2,2583,2,V,0,right,0.547677971,1,0,,,,,,,,,,,,,,,,,,,,,1,,,,,,,,,,,,,,,,,,,,,,,,,,,,,,,,,,,,,,,,,,,,,,75,152824,21,Female,1,2024/02/22_09:55:42,YZ,None
,,,,,,practice,0,26,2,2583,3,X,1,left,1.153476796,1,0,,,,,,,,,,,,,,,,,,,,,1,,,,,,,,,,,,,,,,,,,,,,,,,,,,,,,,,,,,,,,,,,,,,,75,152824,21,Female,1,2024/02/22_09:55:42,YZ,None
,,,,,,practice,0,26,2,2583,4,C,0,right,0.828808815,1,0,,,,,,,,,,,,,,,,,,,,,1,,,,,,,,,,,,,,,,,,,,,,,,,,,,,,,,,,,,,,,,,,,,,,75,152824,21,Female,1,2024/02/22_09:55:42,YZ,None
,,,,,,practice,0,26,2,2583,5,X,1,left,1.341155442,1,0,,,,,,,,,,,,,,,,,,,,,1,,,,,,,,,,,,,,,,,,,,,,,,,,,,,,,,,,,,,,,,,,,,,,75,152824,21,Female,1,2024/02/22_09:55:42,YZ,None
,,,,,,practice,0,26,2,2583,6,V,0,right,0.915082381,1,0,,,,,,,,,,,,,,,,,,,,,1,,,,,,,,,,,,,,,,,,,,,,,,,,,,,,,,,,,,,,,,,,,,,,75,152824,21,Female,1,2024/02/22_09:55:42,YZ,None
,,,,,,practice,0,26,2,2583,,,,,,,,1,1,0,1,0,1,0.942074718,2,0,0,0,0,4,6,2,4,0,,,,1,,,,,,,,,,,,,,,,,,,,,,,,,,,,,,,,,,,,,,,,,,,,,,75,152824,21,Female,1,2024/02/22_09:55:42,YZ,None
-1,./instructions/inst_to_cali/Slide20.png,left,1.769340106,1480.904172,1482.673512,,,,,,,,,,,,,,,,,,,,,,,,,,,,,,,,,1,,,,,,,,,,,,,,,,,,,,,,,,,,,,,,,,,,,,,,,,,,,,,,75,152824,21,Female,1,2024/02/22_09:55:42,YZ,None
,,,,,,practice,0,24,2,2583,1,N,0,right,0.585801127,1,0,,,,,,,,,,,,,,,,,,,,,1,,,,,,,,,,,,,,,,,,,,,,,,,,,,,,,,,,,,,,,,,,,,,,75,152824,21,Female,1,2024/02/22_09:55:42,YZ,None
,,,,,,practice,0,24,2,2583,2,J,0,right,1.723206055,1,0,,,,,,,,,,,,,,,,,,,,,1,,,,,,,,,,,,,,,,,,,,,,,,,,,,,,,,,,,,,,,,,,,,,,75,152824,21,Female,1,2024/02/22_09:55:42,YZ,None
,,,,,,practice,0,24,2,2583,3,N,1,left,0.845165281,1,0,,,,,,,,,,,,,,,,,,,,,1,,,,,,,,,,,,,,,,,,,,,,,,,,,,,,,,,,,,,,,,,,,,,,75,152824,21,Female,1,2024/02/22_09:55:42,YZ,None
,,,,,,practice,0,24,2,2583,4,Q,0,right,0.933233739,1,0,,,,,,,,,,,,,,,,,,,,,1,,,,,,,,,,,,,,,,,,,,,,,,,,,,,,,,,,,,,,,,,,,,,,75,152824,21,Female,1,2024/02/22_09:55:42,YZ,None
,,,,,,practice,0,24,2,2583,5,V,0,right,0.853000265,1,0,,,,,,,,,,,,,,,,,,,,,1,,,,,,,,,,,,,,,,,,,,,,,,,,,,,,,,,,,,,,,,,,,,,,75,152824,21,Female,1,2024/02/22_09:55:42,YZ,None
,,,,,,practice,0,24,2,2583,6,Q,1,left,0.981053347,1,0,,,,,,,,,,,,,,,,,,,,,1,,,,,,,,,,,,,,,,,,,,,,,,,,,,,,,,,,,,,,,,,,,,,,75,152824,21,Female,1,2024/02/22_09:55:42,YZ,None
,,,,,,practice,0,24,2,2583,,,,,,,,1,1,0,1,0,1,0.986909969,2,0,0,0,0,4,6,2,4,0,,,,1,,,,,,,,,,,,,,,,,,,,,,,,,,,,,,,,,,,,,,,,,,,,,,75,152824,21,Female,1,2024/02/22_09:55:42,YZ,None
-1,./instructions/inst_to_cali/Slide20.png,left,1.657334818,1495.944142,1497.601477,,,,,,,,,,,,,,,,,,,,,,,,,,,,,,,,,1,,,,,,,,,,,,,,,,,,,,,,,,,,,,,,,,,,,,,,,,,,,,,,75,152824,21,Female,1,2024/02/22_09:55:42,YZ,None
,,,,,,practice,0,28,2,2583,1,S,0,right,0.520716687,1,0,,,,,,,,,,,,,,,,,,,,,1,,,,,,,,,,,,,,,,,,,,,,,,,,,,,,,,,,,,,,,,,,,,,,75,152824,21,Female,1,2024/02/22_09:55:42,YZ,None
,,,,,,practice,0,28,2,2583,2,F,0,right,0.513814694,1,0,,,,,,,,,,,,,,,,,,,,,1,,,,,,,,,,,,,,,,,,,,,,,,,,,,,,,,,,,,,,,,,,,,,,75,152824,21,Female,1,2024/02/22_09:55:42,YZ,None
,,,,,,practice,0,28,2,2583,3,S,1,left,0.699965961,1,0,,,,,,,,,,,,,,,,,,,,,1,,,,,,,,,,,,,,,,,,,,,,,,,,,,,,,,,,,,,,,,,,,,,,75,152824,21,Female,1,2024/02/22_09:55:42,YZ,None
,,,,,,practice,0,28,2,2583,4,Q,0,right,0.742334779,1,0,,,,,,,,,,,,,,,,,,,,,1,,,,,,,,,,,,,,,,,,,,,,,,,,,,,,,,,,,,,,,,,,,,,,75,152824,21,Female,1,2024/02/22_09:55:42,YZ,None
,,,,,,practice,0,28,2,2583,5,X,0,right,2.89251346,1,0,,,,,,,,,,,,,,,,,,,,,1,,,,,,,,,,,,,,,,,,,,,,,,,,,,,,,,,,,,,,,,,,,,,,75,152824,21,Female,1,2024/02/22_09:55:42,YZ,None
,,,,,,practice,0,28,2,2583,6,Q,1,left,0.789928874,1,0,,,,,,,,,,,,,,,,,,,,,1,,,,,,,,,,,,,,,,,,,,,,,,,,,,,,,,,,,,,,,,,,,,,,75,152824,21,Female,1,2024/02/22_09:55:42,YZ,None
,,,,,,practice,0,28,2,2583,,,,,,,,1,1,0,1,0,1,1.026545742,2,0,0,0,0,4,6,2,4,0,,,,1,,,,,,,,,,,,,,,,,,,,,,,,,,,,,,,,,,,,,,,,,,,,,,75,152824,21,Female,1,2024/02/22_09:55:42,YZ,None
-1,./instructions/inst_to_cali/Slide20.png,left,2.121144079,1511.096324,1513.217468,,,,,,,,,,,,,,,,,,,,,,,,,,,,,,,,,1,,,,,,,,,,,,,,,,,,,,,,,,,,,,,,,,,,,,,,,,,,,,,,75,152824,21,Female,1,2024/02/22_09:55:42,YZ,None
,,,,,,practice,0,36,2,2583,1,X,0,right,1.684505081,1,0,,,,,,,,,,,,,,,,,,,,,1,,,,,,,,,,,,,,,,,,,,,,,,,,,,,,,,,,,,,,,,,,,,,,75,152824,21,Female,1,2024/02/22_09:55:42,YZ,None
,,,,,,practice,0,36,2,2583,2,V,0,right,0.933543017,1,0,,,,,,,,,,,,,,,,,,,,,1,,,,,,,,,,,,,,,,,,,,,,,,,,,,,,,,,,,,,,,,,,,,,,75,152824,21,Female,1,2024/02/22_09:55:42,YZ,None
,,,,,,practice,0,36,2,2583,3,X,1,left,0.677163859,1,0,,,,,,,,,,,,,,,,,,,,,1,,,,,,,,,,,,,,,,,,,,,,,,,,,,,,,,,,,,,,,,,,,,,,75,152824,21,Female,1,2024/02/22_09:55:42,YZ,None
,,,,,,practice,0,36,2,2583,4,V,1,left,0.982021882,1,0,,,,,,,,,,,,,,,,,,,,,1,,,,,,,,,,,,,,,,,,,,,,,,,,,,,,,,,,,,,,,,,,,,,,75,152824,21,Female,1,2024/02/22_09:55:42,YZ,None
,,,,,,practice,0,36,2,2583,5,N,0,right,1.383374109,1,0,,,,,,,,,,,,,,,,,,,,,1,,,,,,,,,,,,,,,,,,,,,,,,,,,,,,,,,,,,,,,,,,,,,,75,152824,21,Female,1,2024/02/22_09:55:42,YZ,None
,,,,,,practice,0,36,2,2583,6,F,0,right,0.776619851,1,0,,,,,,,,,,,,,,,,,,,,,1,,,,,,,,,,,,,,,,,,,,,,,,,,,,,,,,,,,,,,,,,,,,,,75,152824,21,Female,1,2024/02/22_09:55:42,YZ,None
,,,,,,practice,0,36,2,2583,,,,,,,,1,1,0,1,0,1,1.0728713,2,0,0,0,0,4,6,2,4,0,,,,1,,,,,,,,,,,,,,,,,,,,,,,,,,,,,,,,,,,,,,,,,,,,,,75,152824,21,Female,1,2024/02/22_09:55:42,YZ,None
-1,./instructions/inst_to_cali/Slide20.png,left,1.905678746,1526.999789,1528.905468,,,,,,,,,,,,,,,,,,,,,,,,,,,,,,,,,1,,,,,,,,,,,,,,,,,,,,,,,,,,,,,,,,,,,,,,,,,,,,,,75,152824,21,Female,1,2024/02/22_09:55:42,YZ,None
,,,,,,practice,0,19,2,2583,1,C,0,right,1.095180608,1,0,,,,,,,,,,,,,,,,,,,,,1,,,,,,,,,,,,,,,,,,,,,,,,,,,,,,,,,,,,,,,,,,,,,,75,152824,21,Female,1,2024/02/22_09:55:42,YZ,None
,,,,,,practice,0,19,2,2583,2,N,0,right,1.038197392,1,0,,,,,,,,,,,,,,,,,,,,,1,,,,,,,,,,,,,,,,,,,,,,,,,,,,,,,,,,,,,,,,,,,,,,75,152824,21,Female,1,2024/02/22_09:55:42,YZ,None
,,,,,,practice,0,19,2,2583,3,C,1,left,0.547946894,1,0,,,,,,,,,,,,,,,,,,,,,1,,,,,,,,,,,,,,,,,,,,,,,,,,,,,,,,,,,,,,,,,,,,,,75,152824,21,Female,1,2024/02/22_09:55:42,YZ,None
,,,,,,practice,0,19,2,2583,4,N,1,left,1.134300177,1,0,,,,,,,,,,,,,,,,,,,,,1,,,,,,,,,,,,,,,,,,,,,,,,,,,,,,,,,,,,,,,,,,,,,,75,152824,21,Female,1,2024/02/22_09:55:42,YZ,None
,,,,,,practice,0,19,2,2583,5,S,0,right,1.131806681,1,0,,,,,,,,,,,,,,,,,,,,,1,,,,,,,,,,,,,,,,,,,,,,,,,,,,,,,,,,,,,,,,,,,,,,75,152824,21,Female,1,2024/02/22_09:55:42,YZ,None
,,,,,,practice,0,19,2,2583,6,Q,0,right,1.588734876,1,0,,,,,,,,,,,,,,,,,,,,,1,,,,,,,,,,,,,,,,,,,,,,,,,,,,,,,,,,,,,,,,,,,,,,75,152824,21,Female,1,2024/02/22_09:55:42,YZ,None
,,,,,,practice,0,19,2,2583,,,,,,,,1,1,0,1,0,1,1.089361105,2,0,0,0,0,4,6,2,4,0,,,,1,,,,,,,,,,,,,,,,,,,,,,,,,,,,,,,,,,,,,,,,,,,,,,75,152824,21,Female,1,2024/02/22_09:55:42,YZ,None
-1,./instructions/inst_to_cali/Slide20.png,left,5.913575134,1542.80016,1548.713735,,,,,,,,,,,,,,,,,,,,,,,,,,,,,,,,,1,,,,,,,,,,,,,,,,,,,,,,,,,,,,,,,,,,,,,,,,,,,,,,75,152824,21,Female,1,2024/02/22_09:55:42,YZ,None
,,,,,,practice,0,22,2,2583,1,J,0,right,2.489075684,1,0,,,,,,,,,,,,,,,,,,,,,1,,,,,,,,,,,,,,,,,,,,,,,,,,,,,,,,,,,,,,,,,,,,,,75,152824,21,Female,1,2024/02/22_09:55:42,YZ,None
,,,,,,practice,0,22,2,2583,2,Q,0,right,0.564831605,1,0,,,,,,,,,,,,,,,,,,,,,1,,,,,,,,,,,,,,,,,,,,,,,,,,,,,,,,,,,,,,,,,,,,,,75,152824,21,Female,1,2024/02/22_09:55:42,YZ,None
,,,,,,practice,0,22,2,2583,3,J,1,left,0.526120546,1,0,,,,,,,,,,,,,,,,,,,,,1,,,,,,,,,,,,,,,,,,,,,,,,,,,,,,,,,,,,,,,,,,,,,,75,152824,21,Female,1,2024/02/22_09:55:42,YZ,None
,,,,,,practice,0,22,2,2583,4,X,0,right,4.98021435,1,0,,,,,,,,,,,,,,,,,,,,,1,,,,,,,,,,,,,,,,,,,,,,,,,,,,,,,,,,,,,,,,,,,,,,75,152824,21,Female,1,2024/02/22_09:55:42,YZ,None
,,,,,,practice,0,22,2,2583,5,C,0,right,1.000443609,1,0,,,,,,,,,,,,,,,,,,,,,1,,,,,,,,,,,,,,,,,,,,,,,,,,,,,,,,,,,,,,,,,,,,,,75,152824,21,Female,1,2024/02/22_09:55:42,YZ,None
,,,,,,practice,0,22,2,2583,6,X,1,left,0.93433405,1,0,,,,,,,,,,,,,,,,,,,,,1,,,,,,,,,,,,,,,,,,,,,,,,,,,,,,,,,,,,,,,,,,,,,,75,152824,21,Female,1,2024/02/22_09:55:42,YZ,None
,,,,,,practice,0,22,2,2583,,,,,,,,1,1,0,1,0,1,1.749169974,2,0,0,0,0,4,6,2,4,0,,,,1,,,,,,,,,,,,,,,,,,,,,,,,,,,,,,,,,,,,,,,,,,,,,,75,152824,21,Female,1,2024/02/22_09:55:42,YZ,None
-1,./instructions/inst_to_cali/Slide20.png,left,1.873029568,1566.55269,1568.425719,,,,,,,,,,,,,,,,,,,,,,,,,,,,,,,,,1,,,,,,,,,,,,,,,,,,,,,,,,,,,,,,,,,,,,,,,,,,,,,,75,152824,21,Female,1,2024/02/22_09:55:42,YZ,None
,,,,,,practice,0,11,2,2583,1,S,0,right,1.053491246,1,0,,,,,,,,,,,,,,,,,,,,,1,,,,,,,,,,,,,,,,,,,,,,,,,,,,,,,,,,,,,,,,,,,,,,75,152824,21,Female,1,2024/02/22_09:55:42,YZ,None
,,,,,,practice,0,11,2,2583,2,N,0,right,0.589372545,1,0,,,,,,,,,,,,,,,,,,,,,1,,,,,,,,,,,,,,,,,,,,,,,,,,,,,,,,,,,,,,,,,,,,,,75,152824,21,Female,1,2024/02/22_09:55:42,YZ,None
,,,,,,practice,0,11,2,2583,3,S,1,left,2.140074768,1,0,,,,,,,,,,,,,,,,,,,,,1,,,,,,,,,,,,,,,,,,,,,,,,,,,,,,,,,,,,,,,,,,,,,,75,152824,21,Female,1,2024/02/22_09:55:42,YZ,None
,,,,,,practice,0,11,2,2583,4,Q,0,right,0.845065508,1,0,,,,,,,,,,,,,,,,,,,,,1,,,,,,,,,,,,,,,,,,,,,,,,,,,,,,,,,,,,,,,,,,,,,,75,152824,21,Female,1,2024/02/22_09:55:42,YZ,None
,,,,,,practice,0,11,2,2583,5,S,1,left,1.139976783,1,0,,,,,,,,,,,,,,,,,,,,,1,,,,,,,,,,,,,,,,,,,,,,,,,,,,,,,,,,,,,,,,,,,,,,75,152824,21,Female,1,2024/02/22_09:55:42,YZ,None
,,,,,,practice,0,11,2,2583,6,N,0,right,5.733746648,1,0,,,,,,,,,,,,,,,,,,,,,1,,,,,,,,,,,,,,,,,,,,,,,,,,,,,,,,,,,,,,,,,,,,,,75,152824,21,Female,1,2024/02/22_09:55:42,YZ,None
,,,,,,practice,0,11,2,2583,,,,,,,,1,1,0,1,0,1,1.916954583,2,0,0,0,0,4,6,2,4,0,,,,1,,,,,,,,,,,,,,,,,,,,,,,,,,,,,,,,,,,,,,,,,,,,,,75,152824,21,Female,1,2024/02/22_09:55:42,YZ,None
-1,./instructions/inst_to_cali/Slide20.png,left,2.552863868,1587.280509,1589.833373,,,,,,,,,,,,,,,,,,,,,,,,,,,,,,,,,1,,,,,,,,,,,,,,,,,,,,,,,,,,,,,,,,,,,,,,,,,,,,,,75,152824,21,Female,1,2024/02/22_09:55:42,YZ,None
,,,,,,practice,0,25,2,2583,1,F,0,right,2.729184657,1,0,,,,,,,,,,,,,,,,,,,,,1,,,,,,,,,,,,,,,,,,,,,,,,,,,,,,,,,,,,,,,,,,,,,,75,152824,21,Female,1,2024/02/22_09:55:42,YZ,None
,,,,,,practice,0,25,2,2583,2,C,0,right,0.44038939,1,0,,,,,,,,,,,,,,,,,,,,,1,,,,,,,,,,,,,,,,,,,,,,,,,,,,,,,,,,,,,,,,,,,,,,75,152824,21,Female,1,2024/02/22_09:55:42,YZ,None
,,,,,,practice,0,25,2,2583,3,N,1,right,0.641263523,0,0,,,,,,,,,,,,,,,,,,,,,1,,,,,,,,,,,,,,,,,,,,,,,,,,,,,,,,,,,,,,,,,,,,,,75,152824,21,Female,1,2024/02/22_09:55:42,YZ,None
,,,,,,practice,0,25,2,2583,4,S,0,right,2.187320435,1,0,,,,,,,,,,,,,,,,,,,,,1,,,,,,,,,,,,,,,,,,,,,,,,,,,,,,,,,,,,,,,,,,,,,,75,152824,21,Female,1,2024/02/22_09:55:42,YZ,None
,,,,,,practice,0,25,2,2583,5,N,1,left,0.719201027,1,0,,,,,,,,,,,,,,,,,,,,,1,,,,,,,,,,,,,,,,,,,,,,,,,,,,,,,,,,,,,,,,,,,,,,75,152824,21,Female,1,2024/02/22_09:55:42,YZ,None
