Instruction,Stimulus,Key,RT,START,END,Phase,Block,TrialN,NbackLevel,ISI,LetterN,Letter,Letter_isSame,Letter_Resp,Letter_RT,Letter_Accuracy,Letter_Timeout,Trial_A_measure,Trial_HR,Trial_FAR,Trial_CDR,Trial_MSR,Trial_ACC,Trial_RT,Trial_HitsCount,Trial_FAsCount,Trial_SameNoRespCount,Trial_DiffNoRespCount,Trial_NoRespCount,Trial_CDsCount,Trial_CorrectRespCount,Trial_SameLetterCount,Trial_DiffLetterCount,Trial_InvalidLetterCount,TrialCountCali,CaliEnd_A_measure,ISI_calibrated,Run,TrialIndex,TrialNumber_total,TrialNumber_valid,CueLearning,TrialDemandLearning,CueMapping,OnlineRating,OnlineRatingRT,OnlineRatingTimeOut,CueSTART,RatingSTART,OfflineRatingTimePoint,OfflineRatingQuesIndex,CueFigure,TrialDemand,OfflineRating,OfflineRatingRT,CueStart,OfflineRatingStart,PhaseType,CueLeft,CueDemandLeft,CueRight,CueDemandRight,Choice,ChoiceDemand,TaskDemand,ChoiceRT,ChoiceTimeOut,ChoiceSTART,CueCheck,CueDemandCheck,CorrectAnswer,Answer,AnswerDemand,AnswerRT,AnswerACC,AnswerTimeOut,CheckSTART,DemandRatingQuesIndex,QuesTLX,DemandLevel,DemandRating,DemandRatingRT,QuesStart,PID,SONA,Age,Gender,Run,TIME,EXPERIMENTER,frameRate,
1,./instructions/inst_begin/Slide2.png,right,16.700890256999628,0.1322028329996101,16.833093089999238,,,,,,,,,,,,,,,,,,,,,,,,,,,,,,,,,1,,,,,,,,,,,,,,,,,,,,,,,,,,,,,,,,,,,,,,,,,,,,,,58,153550,20,Female,1,2024/02/15_10:22:25,YZ,None,
2,./instructions/inst_begin/Slide3.png,right,5.814174750999882,16.866851183998733,22.681025934998615,,,,,,,,,,,,,,,,,,,,,,,,,,,,,,,,,1,,,,,,,,,,,,,,,,,,,,,,,,,,,,,,,,,,,,,,,,,,,,,,58,153550,20,Female,1,2024/02/15_10:22:25,YZ,None,
3,./instructions/inst_begin/Slide4.png,right,3.7984647780012892,22.71445539999877,26.51292017800006,,,,,,,,,,,,,,,,,,,,,,,,,,,,,,,,,1,,,,,,,,,,,,,,,,,,,,,,,,,,,,,,,,,,,,,,,,,,,,,,58,153550,20,Female,1,2024/02/15_10:22:25,YZ,None,
1,./instructions/inst_prac_2/Slide6.png,right,8.001558377000038,26.551425214998744,34.55298359199878,,,,,,,,,,,,,,,,,,,,,,,,,,,,,,,,,1,,,,,,,,,,,,,,,,,,,,,,,,,,,,,,,,,,,,,,,,,,,,,,58,153550,20,Female,1,2024/02/15_10:22:25,YZ,None,
2,./instructions/inst_prac_2/Slide7.png,right,6.489042373999837,34.58383369999865,41.072876073998486,,,,,,,,,,,,,,,,,,,,,,,,,,,,,,,,,1,,,,,,,,,,,,,,,,,,,,,,,,,,,,,,,,,,,,,,,,,,,,,,58,153550,20,Female,1,2024/02/15_10:22:25,YZ,None,
3,./instructions/inst_prac_2/Slide8.png,right,7.984511822000059,41.104556394999236,49.089068216999294,,,,,,,,,,,,,,,,,,,,,,,,,,,,,,,,,1,,,,,,,,,,,,,,,,,,,,,,,,,,,,,,,,,,,,,,,,,,,,,,58,153550,20,Female,1,2024/02/15_10:22:25,YZ,None,
4,./instructions/inst_prac_2/Slide9.png,right,5.046370670001124,49.12267377099852,54.16904444099964,,,,,,,,,,,,,,,,,,,,,,,,,,,,,,,,,1,,,,,,,,,,,,,,,,,,,,,,,,,,,,,,,,,,,,,,,,,,,,,,58,153550,20,Female,1,2024/02/15_10:22:25,YZ,None,
5,./instructions/inst_prac_2/Slide10.png,right,1.3421956099991803,54.20266396599982,55.544859575999,,,,,,,,,,,,,,,,,,,,,,,,,,,,,,,,,1,,,,,,,,,,,,,,,,,,,,,,,,,,,,,,,,,,,,,,,,,,,,,,58,153550,20,Female,1,2024/02/15_10:22:25,YZ,None,
6,./instructions/inst_prac_2/Slide11.png,right,0.9828673230003915,55.5780722569998,56.560939580000195,,,,,,,,,,,,,,,,,,,,,,,,,,,,,,,,,1,,,,,,,,,,,,,,,,,,,,,,,,,,,,,,,,,,,,,,,,,,,,,,58,153550,20,Female,1,2024/02/15_10:22:25,YZ,None,
7,./instructions/inst_prac_2/Slide12.png,right,0.8386293690000457,56.59436077600003,57.432990145000076,,,,,,,,,,,,,,,,,,,,,,,,,,,,,,,,,1,,,,,,,,,,,,,,,,,,,,,,,,,,,,,,,,,,,,,,,,,,,,,,58,153550,20,Female,1,2024/02/15_10:22:25,YZ,None,
8,./instructions/inst_prac_2/Slide13.png,right,3.167334777001088,57.46567996199883,60.63301473899992,,,,,,,,,,,,,,,,,,,,,,,,,,,,,,,,,1,,,,,,,,,,,,,,,,,,,,,,,,,,,,,,,,,,,,,,,,,,,,,,58,153550,20,Female,1,2024/02/15_10:22:25,YZ,None,
9,./instructions/inst_prac_2/Slide14.png,right,6.414668151999649,60.666388624998945,67.0810567769986,,,,,,,,,,,,,,,,,,,,,,,,,,,,,,,,,1,,,,,,,,,,,,,,,,,,,,,,,,,,,,,,,,,,,,,,,,,,,,,,58,153550,20,Female,1,2024/02/15_10:22:25,YZ,None,
10,./instructions/inst_prac_2/Slide15.png,right,8.557981863999885,67.1150965959987,75.67307845999858,,,,,,,,,,,,,,,,,,,,,,,,,,,,,,,,,1,,,,,,,,,,,,,,,,,,,,,,,,,,,,,,,,,,,,,,,,,,,,,,58,153550,20,Female,1,2024/02/15_10:22:25,YZ,None,
,,,,,,practice,0,19,2,2583,1,C,0,right,2.9358145059995877,1,0,,,,,,,,,,,,,,,,,,,,,1,,,,,,,,,,,,,,,,,,,,,,,,,,,,,,,,,,,,,,,,,,,,,,58,153550,20,Female,1,2024/02/15_10:22:25,YZ,None,
,,,,,,practice,0,19,2,2583,2,N,0,right,1.026598157999615,1,0,,,,,,,,,,,,,,,,,,,,,1,,,,,,,,,,,,,,,,,,,,,,,,,,,,,,,,,,,,,,,,,,,,,,58,153550,20,Female,1,2024/02/15_10:22:25,YZ,None,
,,,,,,practice,0,19,2,2583,3,C,1,left,0.6924908940000023,1,0,,,,,,,,,,,,,,,,,,,,,1,,,,,,,,,,,,,,,,,,,,,,,,,,,,,,,,,,,,,,,,,,,,,,58,153550,20,Female,1,2024/02/15_10:22:25,YZ,None,
,,,,,,practice,0,19,2,2583,4,N,1,left,0.9514745769993169,1,0,,,,,,,,,,,,,,,,,,,,,1,,,,,,,,,,,,,,,,,,,,,,,,,,,,,,,,,,,,,,,,,,,,,,58,153550,20,Female,1,2024/02/15_10:22:25,YZ,None,
,,,,,,practice,0,19,2,2583,5,S,0,right,0.9019504150001012,1,0,,,,,,,,,,,,,,,,,,,,,1,,,,,,,,,,,,,,,,,,,,,,,,,,,,,,,,,,,,,,,,,,,,,,58,153550,20,Female,1,2024/02/15_10:22:25,YZ,None,
,,,,,,practice,0,19,2,2583,6,Q,0,right,0.8223632399985945,1,0,,,,,,,,,,,,,,,,,,,,,1,,,,,,,,,,,,,,,,,,,,,,,,,,,,,,,,,,,,,,,,,,,,,,58,153550,20,Female,1,2024/02/15_10:22:25,YZ,None,
,,,,,,practice,0,19,2,2583,,,,,,,,1.0,1.0,0.0,1.0,0.0,1.0,1.2217819649995363,2,0,0,0,0,4,6,2,4,0,,,,1,,,,,,,,,,,,,,,,,,,,,,,,,,,,,,,,,,,,,,,,,,,,,,58,153550,20,Female,1,2024/02/15_10:22:25,YZ,None,
1,./instructions/inst_to_cali/Slide20.png,right,3.6357246569987183,89.36511844699999,93.0008431039987,,,,,,,,,,,,,,,,,,,,,,,,,,,,,,,,,1,,,,,,,,,,,,,,,,,,,,,,,,,,,,,,,,,,,,,,,,,,,,,,58,153550,20,Female,1,2024/02/15_10:22:25,YZ,None,
1,./instructions/inst_cali/Slide22.png,right,5.5780897439999535,93.03894995500013,98.61703969900009,,,,,,,,,,,,,,,,,,,,,,,,,,,,,,,,,1,,,,,,,,,,,,,,,,,,,,,,,,,,,,,,,,,,,,,,,,,,,,,,58,153550,20,Female,1,2024/02/15_10:22:25,YZ,None,
,,,,,,calibration,0,15,2,583,1,N,0,right,0.877961738000522,1,0,,,,,,,,,,,,,,,,,,,,,1,,,,,,,,,,,,,,,,,,,,,,,,,,,,,,,,,,,,,,,,,,,,,,58,153550,20,Female,1,2024/02/15_10:22:25,YZ,None,
,,,,,,calibration,0,15,2,583,2,S,0,right,0.5575418449989229,1,0,,,,,,,,,,,,,,,,,,,,,1,,,,,,,,,,,,,,,,,,,,,,,,,,,,,,,,,,,,,,,,,,,,,,58,153550,20,Female,1,2024/02/15_10:22:25,YZ,None,
,,,,,,calibration,0,15,2,583,3,C,0,right,0.49108347199944546,1,0,,,,,,,,,,,,,,,,,,,,,1,,,,,,,,,,,,,,,,,,,,,,,,,,,,,,,,,,,,,,,,,,,,,,58,153550,20,Female,1,2024/02/15_10:22:25,YZ,None,
,,,,,,calibration,0,15,2,583,4,X,0,right,0.5421365179990971,1,0,,,,,,,,,,,,,,,,,,,,,1,,,,,,,,,,,,,,,,,,,,,,,,,,,,,,,,,,,,,,,,,,,,,,58,153550,20,Female,1,2024/02/15_10:22:25,YZ,None,
,,,,,,calibration,0,15,2,583,5,F,0,right,0.5246508009986428,1,0,,,,,,,,,,,,,,,,,,,,,1,,,,,,,,,,,,,,,,,,,,,,,,,,,,,,,,,,,,,,,,,,,,,,58,153550,20,Female,1,2024/02/15_10:22:25,YZ,None,
,,,,,,calibration,0,15,2,583,6,S,0,right,0.7255668280013197,1,0,,,,,,,,,,,,,,,,,,,,,1,,,,,,,,,,,,,,,,,,,,,,,,,,,,,,,,,,,,,,,,,,,,,,58,153550,20,Female,1,2024/02/15_10:22:25,YZ,None,
,,,,,,calibration,0,15,2,583,7,F,1,left,0.8016787849992397,1,0,,,,,,,,,,,,,,,,,,,,,1,,,,,,,,,,,,,,,,,,,,,,,,,,,,,,,,,,,,,,,,,,,,,,58,153550,20,Female,1,2024/02/15_10:22:25,YZ,None,
,,,,,,calibration,0,15,2,583,8,Q,0,right,0.6552573459994164,1,0,,,,,,,,,,,,,,,,,,,,,1,,,,,,,,,,,,,,,,,,,,,,,,,,,,,,,,,,,,,,,,,,,,,,58,153550,20,Female,1,2024/02/15_10:22:25,YZ,None,
,,,,,,calibration,0,15,2,583,9,F,1,left,1.7787712880017352,1,0,,,,,,,,,,,,,,,,,,,,,1,,,,,,,,,,,,,,,,,,,,,,,,,,,,,,,,,,,,,,,,,,,,,,58,153550,20,Female,1,2024/02/15_10:22:25,YZ,None,
,,,,,,calibration,0,15,2,583,10,C,0,right,0.5575745209989691,1,0,,,,,,,,,,,,,,,,,,,,,1,,,,,,,,,,,,,,,,,,,,,,,,,,,,,,,,,,,,,,,,,,,,,,58,153550,20,Female,1,2024/02/15_10:22:25,YZ,None,
,,,,,,calibration,0,15,2,583,11,F,1,right,0.7718409190001694,0,0,,,,,,,,,,,,,,,,,,,,,1,,,,,,,,,,,,,,,,,,,,,,,,,,,,,,,,,,,,,,,,,,,,,,58,153550,20,Female,1,2024/02/15_10:22:25,YZ,None,
,,,,,,calibration,0,15,2,583,12,C,1,left,0.5240753179987223,1,0,,,,,,,,,,,,,,,,,,,,,1,,,,,,,,,,,,,,,,,,,,,,,,,,,,,,,,,,,,,,,,,,,,,,58,153550,20,Female,1,2024/02/15_10:22:25,YZ,None,
,,,,,,calibration,0,15,2,583,13,S,0,right,0.6373233089998394,1,0,,,,,,,,,,,,,,,,,,,,,1,,,,,,,,,,,,,,,,,,,,,,,,,,,,,,,,,,,,,,,,,,,,,,58,153550,20,Female,1,2024/02/15_10:22:25,YZ,None,
,,,,,,calibration,0,15,2,583,14,X,0,right,0.8965405990002182,1,0,,,,,,,,,,,,,,,,,,,,,1,,,,,,,,,,,,,,,,,,,,,,,,,,,,,,,,,,,,,,,,,,,,,,58,153550,20,Female,1,2024/02/15_10:22:25,YZ,None,
,,,,,,calibration,0,15,2,583,15,Q,0,right,0.5575416350002342,1,0,,,,,,,,,,,,,,,,,,,,,1,,,,,,,,,,,,,,,,,,,,,,,,,,,,,,,,,,,,,,,,,,,,,,58,153550,20,Female,1,2024/02/15_10:22:25,YZ,None,
,,,,,,calibration,0,15,2,583,,,,,,,,0.9375,0.75,0.0,1.0,0.0,1.0,0.7266363281330996,3,0,0,0,0,11,14,4,11,0,,,,1,,,,,,,,,,,,,,,,,,,,,,,,,,,,,,,,,,,,,,,,,,,,,,58,153550,20,Female,1,2024/02/15_10:22:25,YZ,None,
,,,,,,Calibration,0,,2,583,,,,,,,,,,,,,,,,,,,,,,,,,1,,,1,,,,,,,,,,,,,,,,,,,,,,,,,,,,,,,,,,,,,,,,,,,,,,58,153550,20,Female,1,2024/02/15_10:22:25,YZ,None,
,,,,,,calibration,0,19,2,500,1,V,0,right,0.7264876530007314,1,0,,,,,,,,,,,,,,,,,,,,,1,,,,,,,,,,,,,,,,,,,,,,,,,,,,,,,,,,,,,,,,,,,,,,58,153550,20,Female,1,2024/02/15_10:22:25,YZ,None,
,,,,,,calibration,0,19,2,500,2,S,0,right,0.48015641200072423,1,0,,,,,,,,,,,,,,,,,,,,,1,,,,,,,,,,,,,,,,,,,,,,,,,,,,,,,,,,,,,,,,,,,,,,58,153550,20,Female,1,2024/02/15_10:22:25,YZ,None,
,,,,,,calibration,0,19,2,500,3,N,0,right,0.512352910998743,1,0,,,,,,,,,,,,,,,,,,,,,1,,,,,,,,,,,,,,,,,,,,,,,,,,,,,,,,,,,,,,,,,,,,,,58,153550,20,Female,1,2024/02/15_10:22:25,YZ,None,
,,,,,,calibration,0,19,2,500,4,S,1,left,0.5124736050001957,1,0,,,,,,,,,,,,,,,,,,,,,1,,,,,,,,,,,,,,,,,,,,,,,,,,,,,,,,,,,,,,,,,,,,,,58,153550,20,Female,1,2024/02/15_10:22:25,YZ,None,
,,,,,,calibration,0,19,2,500,5,N,1,left,0.6924823970002763,1,0,,,,,,,,,,,,,,,,,,,,,1,,,,,,,,,,,,,,,,,,,,,,,,,,,,,,,,,,,,,,,,,,,,,,58,153550,20,Female,1,2024/02/15_10:22:25,YZ,None,
,,,,,,calibration,0,19,2,500,6,C,0,right,0.4483701019998989,1,0,,,,,,,,,,,,,,,,,,,,,1,,,,,,,,,,,,,,,,,,,,,,,,,,,,,,,,,,,,,,,,,,,,,,58,153550,20,Female,1,2024/02/15_10:22:25,YZ,None,
,,,,,,calibration,0,19,2,500,7,Q,0,right,0.6659832929999538,1,0,,,,,,,,,,,,,,,,,,,,,1,,,,,,,,,,,,,,,,,,,,,,,,,,,,,,,,,,,,,,,,,,,,,,58,153550,20,Female,1,2024/02/15_10:22:25,YZ,None,
,,,,,,calibration,0,19,2,500,8,V,0,right,0.557630857998447,1,0,,,,,,,,,,,,,,,,,,,,,1,,,,,,,,,,,,,,,,,,,,,,,,,,,,,,,,,,,,,,,,,,,,,,58,153550,20,Female,1,2024/02/15_10:22:25,YZ,None,
,,,,,,calibration,0,19,2,500,9,Q,1,left,0.4305364039992128,1,0,,,,,,,,,,,,,,,,,,,,,1,,,,,,,,,,,,,,,,,,,,,,,,,,,,,,,,,,,,,,,,,,,,,,58,153550,20,Female,1,2024/02/15_10:22:25,YZ,None,
,,,,,,calibration,0,19,2,500,10,J,0,right,0.6638079710010061,1,0,,,,,,,,,,,,,,,,,,,,,1,,,,,,,,,,,,,,,,,,,,,,,,,,,,,,,,,,,,,,,,,,,,,,58,153550,20,Female,1,2024/02/15_10:22:25,YZ,None,
,,,,,,calibration,0,19,2,500,11,C,0,right,0.752463025999532,1,0,,,,,,,,,,,,,,,,,,,,,1,,,,,,,,,,,,,,,,,,,,,,,,,,,,,,,,,,,,,,,,,,,,,,58,153550,20,Female,1,2024/02/15_10:22:25,YZ,None,
,,,,,,calibration,0,19,2,500,12,J,1,left,0.48933384000156366,1,0,,,,,,,,,,,,,,,,,,,,,1,,,,,,,,,,,,,,,,,,,,,,,,,,,,,,,,,,,,,,,,,,,,,,58,153550,20,Female,1,2024/02/15_10:22:25,YZ,None,
,,,,,,calibration,0,19,2,500,13,S,0,right,0.6742645950016595,1,0,,,,,,,,,,,,,,,,,,,,,1,,,,,,,,,,,,,,,,,,,,,,,,,,,,,,,,,,,,,,,,,,,,,,58,153550,20,Female,1,2024/02/15_10:22:25,YZ,None,
,,,,,,calibration,0,19,2,500,14,C,0,right,0.7140733659998659,1,0,,,,,,,,,,,,,,,,,,,,,1,,,,,,,,,,,,,,,,,,,,,,,,,,,,,,,,,,,,,,,,,,,,,,58,153550,20,Female,1,2024/02/15_10:22:25,YZ,None,
,,,,,,calibration,0,19,2,500,15,J,0,left,0.43161218500063114,0,0,,,,,,,,,,,,,,,,,,,,,1,,,,,,,,,,,,,,,,,,,,,,,,,,,,,,,,,,,,,,,,,,,,,,58,153550,20,Female,1,2024/02/15_10:22:25,YZ,None,
,,,,,,calibration,0,19,2,500,16,N,0,right,0.4113178699990385,1,0,,,,,,,,,,,,,,,,,,,,,1,,,,,,,,,,,,,,,,,,,,,,,,,,,,,,,,,,,,,,,,,,,,,,58,153550,20,Female,1,2024/02/15_10:22:25,YZ,None,
,,,,,,calibration,0,19,2,500,,,,,,,,0.9791666666666666,1.0,0.08333333333333333,0.9166666666666666,0.0,0.9166666666666666,0.5727091555000925,4,1,0,0,0,11,15,4,12,0,,,,1,,,,,,,,,,,,,,,,,,,,,,,,,,,,,,,,,,,,,,,,,,,,,,58,153550,20,Female,1,2024/02/15_10:22:25,YZ,None,
,,,,,,Calibration,0,,2,500,,,,,,,,,,,,,,,,,,,,,,,,,2,,,1,,,,,,,,,,,,,,,,,,,,,,,,,,,,,,,,,,,,,,,,,,,,,,58,153550,20,Female,1,2024/02/15_10:22:25,YZ,None,
,,,,,,calibration,0,8,2,426,1,X,0,right,0.49763465999967593,1,0,,,,,,,,,,,,,,,,,,,,,1,,,,,,,,,,,,,,,,,,,,,,,,,,,,,,,,,,,,,,,,,,,,,,58,153550,20,Female,1,2024/02/15_10:22:25,YZ,None,
,,,,,,calibration,0,8,2,426,2,F,0,right,0.6594842269987566,1,0,,,,,,,,,,,,,,,,,,,,,1,,,,,,,,,,,,,,,,,,,,,,,,,,,,,,,,,,,,,,,,,,,,,,58,153550,20,Female,1,2024/02/15_10:22:25,YZ,None,
,,,,,,calibration,0,8,2,426,3,V,0,right,0.5121250940010214,1,0,,,,,,,,,,,,,,,,,,,,,1,,,,,,,,,,,,,,,,,,,,,,,,,,,,,,,,,,,,,,,,,,,,,,58,153550,20,Female,1,2024/02/15_10:22:25,YZ,None,
,,,,,,calibration,0,8,2,426,4,Q,0,right,0.7477556319990981,1,0,,,,,,,,,,,,,,,,,,,,,1,,,,,,,,,,,,,,,,,,,,,,,,,,,,,,,,,,,,,,,,,,,,,,58,153550,20,Female,1,2024/02/15_10:22:25,YZ,None,
,,,,,,calibration,0,8,2,426,5,C,0,right,0.6250315729994327,1,0,,,,,,,,,,,,,,,,,,,,,1,,,,,,,,,,,,,,,,,,,,,,,,,,,,,,,,,,,,,,,,,,,,,,58,153550,20,Female,1,2024/02/15_10:22:25,YZ,None,
,,,,,,calibration,0,8,2,426,6,V,0,left,0.619343245998607,0,0,,,,,,,,,,,,,,,,,,,,,1,,,,,,,,,,,,,,,,,,,,,,,,,,,,,,,,,,,,,,,,,,,,,,58,153550,20,Female,1,2024/02/15_10:22:25,YZ,None,
,,,,,,calibration,0,8,2,426,7,C,1,right,0.4551294839984621,0,0,,,,,,,,,,,,,,,,,,,,,1,,,,,,,,,,,,,,,,,,,,,,,,,,,,,,,,,,,,,,,,,,,,,,58,153550,20,Female,1,2024/02/15_10:22:25,YZ,None,
,,,,,,calibration,0,8,2,426,8,N,0,right,0.5400426879987208,1,0,,,,,,,,,,,,,,,,,,,,,1,,,,,,,,,,,,,,,,,,,,,,,,,,,,,,,,,,,,,,,,,,,,,,58,153550,20,Female,1,2024/02/15_10:22:25,YZ,None,
,,,,,,calibration,0,8,2,426,9,C,1,left,0.43935755099846574,1,0,,,,,,,,,,,,,,,,,,,,,1,,,,,,,,,,,,,,,,,,,,,,,,,,,,,,,,,,,,,,,,,,,,,,58,153550,20,Female,1,2024/02/15_10:22:25,YZ,None,
,,,,,,calibration,0,8,2,426,10,Q,0,right,0.47384947699902114,1,0,,,,,,,,,,,,,,,,,,,,,1,,,,,,,,,,,,,,,,,,,,,,,,,,,,,,,,,,,,,,,,,,,,,,58,153550,20,Female,1,2024/02/15_10:22:25,YZ,None,
,,,,,,calibration,0,8,2,426,11,C,1,left,0.7314670889991248,1,0,,,,,,,,,,,,,,,,,,,,,1,,,,,,,,,,,,,,,,,,,,,,,,,,,,,,,,,,,,,,,,,,,,,,58,153550,20,Female,1,2024/02/15_10:22:25,YZ,None,
,,,,,,calibration,0,8,2,426,12,F,0,right,0.557394548000957,1,0,,,,,,,,,,,,,,,,,,,,,1,,,,,,,,,,,,,,,,,,,,,,,,,,,,,,,,,,,,,,,,,,,,,,58,153550,20,Female,1,2024/02/15_10:22:25,YZ,None,
,,,,,,calibration,0,8,2,426,13,C,1,left,0.5547576810004102,1,0,,,,,,,,,,,,,,,,,,,,,1,,,,,,,,,,,,,,,,,,,,,,,,,,,,,,,,,,,,,,,,,,,,,,58,153550,20,Female,1,2024/02/15_10:22:25,YZ,None,
,,,,,,calibration,0,8,2,426,14,F,1,right,0.46790200299983553,0,0,,,,,,,,,,,,,,,,,,,,,1,,,,,,,,,,,,,,,,,,,,,,,,,,,,,,,,,,,,,,,,,,,,,,58,153550,20,Female,1,2024/02/15_10:22:25,YZ,None,
,,,,,,calibration,0,8,2,426,15,X,0,right,0.6117013779985427,1,0,,,,,,,,,,,,,,,,,,,,,1,,,,,,,,,,,,,,,,,,,,,,,,,,,,,,,,,,,,,,,,,,,,,,58,153550,20,Female,1,2024/02/15_10:22:25,YZ,None,
,,,,,,calibration,0,8,2,426,16,J,0,right,0.5854008040005283,1,0,,,,,,,,,,,,,,,,,,,,,1,,,,,,,,,,,,,,,,,,,,,,,,,,,,,,,,,,,,,,,,,,,,,,58,153550,20,Female,1,2024/02/15_10:22:25,YZ,None,
,,,,,,calibration,0,8,2,426,17,N,0,right,0.575902448999841,1,0,,,,,,,,,,,,,,,,,,,,,1,,,,,,,,,,,,,,,,,,,,,,,,,,,,,,,,,,,,,,,,,,,,,,58,153550,20,Female,1,2024/02/15_10:22:25,YZ,None,
,,,,,,calibration,0,8,2,426,,,,,,,,0.8458333333333333,0.6,0.08333333333333333,0.9166666666666666,0.0,0.9166666666666666,0.5678987990582648,3,1,0,0,0,11,14,5,12,0,,,,1,,,,,,,,,,,,,,,,,,,,,,,,,,,,,,,,,,,,,,,,,,,,,,58,153550,20,Female,1,2024/02/15_10:22:25,YZ,None,
,,,,,,Calibration,0,,2,426,,,,,,,,,,,,,,,,,,,,,,,,,3,,,1,,,,,,,,,,,,,,,,,,,,,,,,,,,,,,,,,,,,,,,,,,,,,,58,153550,20,Female,1,2024/02/15_10:22:25,YZ,None,
,,,,,,calibration,0,29,2,426,1,N,0,right,0.7869641819997923,1,0,,,,,,,,,,,,,,,,,,,,,1,,,,,,,,,,,,,,,,,,,,,,,,,,,,,,,,,,,,,,,,,,,,,,58,153550,20,Female,1,2024/02/15_10:22:25,YZ,None,
,,,,,,calibration,0,29,2,426,2,V,0,right,0.47047492599995167,1,0,,,,,,,,,,,,,,,,,,,,,1,,,,,,,,,,,,,,,,,,,,,,,,,,,,,,,,,,,,,,,,,,,,,,58,153550,20,Female,1,2024/02/15_10:22:25,YZ,None,
,,,,,,calibration,0,29,2,426,3,F,0,right,0.47159699900112173,1,0,,,,,,,,,,,,,,,,,,,,,1,,,,,,,,,,,,,,,,,,,,,,,,,,,,,,,,,,,,,,,,,,,,,,58,153550,20,Female,1,2024/02/15_10:22:25,YZ,None,
,,,,,,calibration,0,29,2,426,4,J,0,right,0.6435738740001398,1,0,,,,,,,,,,,,,,,,,,,,,1,,,,,,,,,,,,,,,,,,,,,,,,,,,,,,,,,,,,,,,,,,,,,,58,153550,20,Female,1,2024/02/15_10:22:25,YZ,None,
,,,,,,calibration,0,29,2,426,5,V,0,right,0.6358898809994571,1,0,,,,,,,,,,,,,,,,,,,,,1,,,,,,,,,,,,,,,,,,,,,,,,,,,,,,,,,,,,,,,,,,,,,,58,153550,20,Female,1,2024/02/15_10:22:25,YZ,None,
,,,,,,calibration,0,29,2,426,6,F,0,right,0.8037503760006075,1,0,,,,,,,,,,,,,,,,,,,,,1,,,,,,,,,,,,,,,,,,,,,,,,,,,,,,,,,,,,,,,,,,,,,,58,153550,20,Female,1,2024/02/15_10:22:25,YZ,None,
,,,,,,calibration,0,29,2,426,7,V,1,left,0.5775422839997191,1,0,,,,,,,,,,,,,,,,,,,,,1,,,,,,,,,,,,,,,,,,,,,,,,,,,,,,,,,,,,,,,,,,,,,,58,153550,20,Female,1,2024/02/15_10:22:25,YZ,None,
,,,,,,calibration,0,29,2,426,8,C,0,right,0.5124025959994469,1,0,,,,,,,,,,,,,,,,,,,,,1,,,,,,,,,,,,,,,,,,,,,,,,,,,,,,,,,,,,,,,,,,,,,,58,153550,20,Female,1,2024/02/15_10:22:25,YZ,None,
,,,,,,calibration,0,29,2,426,9,S,0,right,0.5308351060011773,1,0,,,,,,,,,,,,,,,,,,,,,1,,,,,,,,,,,,,,,,,,,,,,,,,,,,,,,,,,,,,,,,,,,,,,58,153550,20,Female,1,2024/02/15_10:22:25,YZ,None,
,,,,,,calibration,0,29,2,426,10,V,0,right,0.5302554219997546,1,0,,,,,,,,,,,,,,,,,,,,,1,,,,,,,,,,,,,,,,,,,,,,,,,,,,,,,,,,,,,,,,,,,,,,58,153550,20,Female,1,2024/02/15_10:22:25,YZ,None,
,,,,,,calibration,0,29,2,426,11,S,1,right,0.6144623260006483,0,0,,,,,,,,,,,,,,,,,,,,,1,,,,,,,,,,,,,,,,,,,,,,,,,,,,,,,,,,,,,,,,,,,,,,58,153550,20,Female,1,2024/02/15_10:22:25,YZ,None,
,,,,,,calibration,0,29,2,426,12,V,1,left,0.765498333999858,1,0,,,,,,,,,,,,,,,,,,,,,1,,,,,,,,,,,,,,,,,,,,,,,,,,,,,,,,,,,,,,,,,,,,,,58,153550,20,Female,1,2024/02/15_10:22:25,YZ,None,
,,,,,,calibration,0,29,2,426,13,C,0,left,0.7246857979989727,0,0,,,,,,,,,,,,,,,,,,,,,1,,,,,,,,,,,,,,,,,,,,,,,,,,,,,,,,,,,,,,,,,,,,,,58,153550,20,Female,1,2024/02/15_10:22:25,YZ,None,
,,,,,,calibration,0,29,2,426,14,X,0,right,0.4129097559998627,1,0,,,,,,,,,,,,,,,,,,,,,1,,,,,,,,,,,,,,,,,,,,,,,,,,,,,,,,,,,,,,,,,,,,,,58,153550,20,Female,1,2024/02/15_10:22:25,YZ,None,
,,,,,,calibration,0,29,2,426,15,C,1,left,0.5126995840000745,1,0,,,,,,,,,,,,,,,,,,,,,1,,,,,,,,,,,,,,,,,,,,,,,,,,,,,,,,,,,,,,,,,,,,,,58,153550,20,Female,1,2024/02/15_10:22:25,YZ,None,
,,,,,,calibration,0,29,2,426,16,V,0,right,0.4665617080008815,1,0,,,,,,,,,,,,,,,,,,,,,1,,,,,,,,,,,,,,,,,,,,,,,,,,,,,,,,,,,,,,,,,,,,,,58,153550,20,Female,1,2024/02/15_10:22:25,YZ,None,
,,,,,,calibration,0,29,2,426,17,C,1,right,0.5408618889996433,0,0,,,,,,,,,,,,,,,,,,,,,1,,,,,,,,,,,,,,,,,,,,,,,,,,,,,,,,,,,,,,,,,,,,,,58,153550,20,Female,1,2024/02/15_10:22:25,YZ,None,
,,,,,,calibration,0,29,2,426,,,,,,,,0.8458333333333333,0.6,0.08333333333333333,0.9166666666666666,0.0,0.9166666666666666,0.5882920612353594,3,1,0,0,0,11,14,5,12,0,,,,1,,,,,,,,,,,,,,,,,,,,,,,,,,,,,,,,,,,,,,,,,,,,,,58,153550,20,Female,1,2024/02/15_10:22:25,YZ,None,
,,,,,,Calibration,0,,2,426,,,,,,,,,,,,,,,,,,,,,,,,,4,,,1,,,,,,,,,,,,,,,,,,,,,,,,,,,,,,,,,,,,,,,,,,,,,,58,153550,20,Female,1,2024/02/15_10:22:25,YZ,None,
,,,,,,calibration,0,26,2,426,1,N,0,right,0.5262503049998486,1,0,,,,,,,,,,,,,,,,,,,,,1,,,,,,,,,,,,,,,,,,,,,,,,,,,,,,,,,,,,,,,,,,,,,,58,153550,20,Female,1,2024/02/15_10:22:25,YZ,None,
,,,,,,calibration,0,26,2,426,2,F,0,right,0.48289542000020447,1,0,,,,,,,,,,,,,,,,,,,,,1,,,,,,,,,,,,,,,,,,,,,,,,,,,,,,,,,,,,,,,,,,,,,,58,153550,20,Female,1,2024/02/15_10:22:25,YZ,None,
,,,,,,calibration,0,26,2,426,3,N,1,left,0.5558021710003231,1,0,,,,,,,,,,,,,,,,,,,,,1,,,,,,,,,,,,,,,,,,,,,,,,,,,,,,,,,,,,,,,,,,,,,,58,153550,20,Female,1,2024/02/15_10:22:25,YZ,None,
,,,,,,calibration,0,26,2,426,4,S,0,right,0.7162729229985416,1,0,,,,,,,,,,,,,,,,,,,,,1,,,,,,,,,,,,,,,,,,,,,,,,,,,,,,,,,,,,,,,,,,,,,,58,153550,20,Female,1,2024/02/15_10:22:25,YZ,None,
,,,,,,calibration,0,26,2,426,5,V,0,right,0.7586861260006117,1,0,,,,,,,,,,,,,,,,,,,,,1,,,,,,,,,,,,,,,,,,,,,,,,,,,,,,,,,,,,,,,,,,,,,,58,153550,20,Female,1,2024/02/15_10:22:25,YZ,None,
,,,,,,calibration,0,26,2,426,6,Q,0,right,0.6616452250000293,1,0,,,,,,,,,,,,,,,,,,,,,1,,,,,,,,,,,,,,,,,,,,,,,,,,,,,,,,,,,,,,,,,,,,,,58,153550,20,Female,1,2024/02/15_10:22:25,YZ,None,
,,,,,,calibration,0,26,2,426,7,V,1,left,0.5420696979999775,1,0,,,,,,,,,,,,,,,,,,,,,1,,,,,,,,,,,,,,,,,,,,,,,,,,,,,,,,,,,,,,,,,,,,,,58,153550,20,Female,1,2024/02/15_10:22:25,YZ,None,
,,,,,,calibration,0,26,2,426,8,Q,1,left,0.5905897989996447,1,0,,,,,,,,,,,,,,,,,,,,,1,,,,,,,,,,,,,,,,,,,,,,,,,,,,,,,,,,,,,,,,,,,,,,58,153550,20,Female,1,2024/02/15_10:22:25,YZ,None,
,,,,,,calibration,0,26,2,426,9,J,0,right,0.7909101999994164,1,0,,,,,,,,,,,,,,,,,,,,,1,,,,,,,,,,,,,,,,,,,,,,,,,,,,,,,,,,,,,,,,,,,,,,58,153550,20,Female,1,2024/02/15_10:22:25,YZ,None,
,,,,,,calibration,0,26,2,426,10,S,0,right,0.8114629000010609,1,0,,,,,,,,,,,,,,,,,,,,,1,,,,,,,,,,,,,,,,,,,,,,,,,,,,,,,,,,,,,,,,,,,,,,58,153550,20,Female,1,2024/02/15_10:22:25,YZ,None,
,,,,,,calibration,0,26,2,426,11,J,1,left,0.623826390999966,1,0,,,,,,,,,,,,,,,,,,,,,1,,,,,,,,,,,,,,,,,,,,,,,,,,,,,,,,,,,,,,,,,,,,,,58,153550,20,Female,1,2024/02/15_10:22:25,YZ,None,
,,,,,,calibration,0,26,2,426,12,V,0,right,0.5520571029992425,1,0,,,,,,,,,,,,,,,,,,,,,1,,,,,,,,,,,,,,,,,,,,,,,,,,,,,,,,,,,,,,,,,,,,,,58,153550,20,Female,1,2024/02/15_10:22:25,YZ,None,
,,,,,,calibration,0,26,2,426,13,X,0,right,0.8419297379987256,1,0,,,,,,,,,,,,,,,,,,,,,1,,,,,,,,,,,,,,,,,,,,,,,,,,,,,,,,,,,,,,,,,,,,,,58,153550,20,Female,1,2024/02/15_10:22:25,YZ,None,
,,,,,,calibration,0,26,2,426,14,V,1,right,0.6808269049997762,0,0,,,,,,,,,,,,,,,,,,,,,1,,,,,,,,,,,,,,,,,,,,,,,,,,,,,,,,,,,,,,,,,,,,,,58,153550,20,Female,1,2024/02/15_10:22:25,YZ,None,
,,,,,,calibration,0,26,2,426,15,F,0,right,0.7315867050001543,1,0,,,,,,,,,,,,,,,,,,,,,1,,,,,,,,,,,,,,,,,,,,,,,,,,,,,,,,,,,,,,,,,,,,,,58,153550,20,Female,1,2024/02/15_10:22:25,YZ,None,
,,,,,,calibration,0,26,2,426,16,S,0,right,0.7244001959988964,1,0,,,,,,,,,,,,,,,,,,,,,1,,,,,,,,,,,,,,,,,,,,,,,,,,,,,,,,,,,,,,,,,,,,,,58,153550,20,Female,1,2024/02/15_10:22:25,YZ,None,
,,,,,,calibration,0,26,2,426,17,J,0,right,0.7716804780011444,1,0,,,,,,,,,,,,,,,,,,,,,1,,,,,,,,,,,,,,,,,,,,,,,,,,,,,,,,,,,,,,,,,,,,,,58,153550,20,Female,1,2024/02/15_10:22:25,YZ,None,
,,,,,,calibration,0,26,2,426,,,,,,,,0.95,0.8,0.0,1.0,0.0,1.0,0.6684054284116214,4,0,0,0,0,12,16,5,12,0,,,,1,,,,,,,,,,,,,,,,,,,,,,,,,,,,,,,,,,,,,,,,,,,,,,58,153550,20,Female,1,2024/02/15_10:22:25,YZ,None,
,,,,,,Calibration,0,,2,426,,,,,,,,,,,,,,,,,,,,,,,,,5,,,1,,,,,,,,,,,,,,,,,,,,,,,,,,,,,,,,,,,,,,,,,,,,,,58,153550,20,Female,1,2024/02/15_10:22:25,YZ,None,
,,,,,,calibration,0,1,2,361,1,V,0,right,0.5499466319997737,1,0,,,,,,,,,,,,,,,,,,,,,1,,,,,,,,,,,,,,,,,,,,,,,,,,,,,,,,,,,,,,,,,,,,,,58,153550,20,Female,1,2024/02/15_10:22:25,YZ,None,
,,,,,,calibration,0,1,2,361,2,J,0,right,0.6573144400008459,1,0,,,,,,,,,,,,,,,,,,,,,1,,,,,,,,,,,,,,,,,,,,,,,,,,,,,,,,,,,,,,,,,,,,,,58,153550,20,Female,1,2024/02/15_10:22:25,YZ,None,
,,,,,,calibration,0,1,2,361,3,N,0,right,0.45679042099982325,1,0,,,,,,,,,,,,,,,,,,,,,1,,,,,,,,,,,,,,,,,,,,,,,,,,,,,,,,,,,,,,,,,,,,,,58,153550,20,Female,1,2024/02/15_10:22:25,YZ,None,
,,,,,,calibration,0,1,2,361,4,J,1,left,0.8503136859999358,1,0,,,,,,,,,,,,,,,,,,,,,1,,,,,,,,,,,,,,,,,,,,,,,,,,,,,,,,,,,,,,,,,,,,,,58,153550,20,Female,1,2024/02/15_10:22:25,YZ,None,
,,,,,,calibration,0,1,2,361,5,N,1,left,0.7978042049999203,1,0,,,,,,,,,,,,,,,,,,,,,1,,,,,,,,,,,,,,,,,,,,,,,,,,,,,,,,,,,,,,,,,,,,,,58,153550,20,Female,1,2024/02/15_10:22:25,YZ,None,
,,,,,,calibration,0,1,2,361,6,X,0,right,0.36444813199886994,1,0,,,,,,,,,,,,,,,,,,,,,1,,,,,,,,,,,,,,,,,,,,,,,,,,,,,,,,,,,,,,,,,,,,,,58,153550,20,Female,1,2024/02/15_10:22:25,YZ,None,
,,,,,,calibration,0,1,2,361,7,S,0,right,0.4823884719990019,1,0,,,,,,,,,,,,,,,,,,,,,1,,,,,,,,,,,,,,,,,,,,,,,,,,,,,,,,,,,,,,,,,,,,,,58,153550,20,Female,1,2024/02/15_10:22:25,YZ,None,
,,,,,,calibration,0,1,2,361,8,N,0,right,0.611759350000284,1,0,,,,,,,,,,,,,,,,,,,,,1,,,,,,,,,,,,,,,,,,,,,,,,,,,,,,,,,,,,,,,,,,,,,,58,153550,20,Female,1,2024/02/15_10:22:25,YZ,None,
,,,,,,calibration,0,1,2,361,9,V,0,right,0.6995003249994625,1,0,,,,,,,,,,,,,,,,,,,,,1,,,,,,,,,,,,,,,,,,,,,,,,,,,,,,,,,,,,,,,,,,,,,,58,153550,20,Female,1,2024/02/15_10:22:25,YZ,None,
,,,,,,calibration,0,1,2,361,10,N,1,left,0.8313573300001735,1,0,,,,,,,,,,,,,,,,,,,,,1,,,,,,,,,,,,,,,,,,,,,,,,,,,,,,,,,,,,,,,,,,,,,,58,153550,20,Female,1,2024/02/15_10:22:25,YZ,None,
,,,,,,calibration,0,1,2,361,11,V,1,left,0.7076896680009668,1,0,,,,,,,,,,,,,,,,,,,,,1,,,,,,,,,,,,,,,,,,,,,,,,,,,,,,,,,,,,,,,,,,,,,,58,153550,20,Female,1,2024/02/15_10:22:25,YZ,None,
,,,,,,calibration,0,1,2,361,12,F,0,right,0.6777699979993486,1,0,,,,,,,,,,,,,,,,,,,,,1,,,,,,,,,,,,,,,,,,,,,,,,,,,,,,,,,,,,,,,,,,,,,,58,153550,20,Female,1,2024/02/15_10:22:25,YZ,None,
,,,,,,calibration,0,1,2,361,13,V,1,left,0.6992999350004538,1,0,,,,,,,,,,,,,,,,,,,,,1,,,,,,,,,,,,,,,,,,,,,,,,,,,,,,,,,,,,,,,,,,,,,,58,153550,20,Female,1,2024/02/15_10:22:25,YZ,None,
,,,,,,calibration,0,1,2,361,14,C,0,right,0.5746089559997927,1,0,,,,,,,,,,,,,,,,,,,,,1,,,,,,,,,,,,,,,,,,,,,,,,,,,,,,,,,,,,,,,,,,,,,,58,153550,20,Female,1,2024/02/15_10:22:25,YZ,None,
,,,,,,calibration,0,1,2,361,15,V,1,right,0.5765596789988194,0,0,,,,,,,,,,,,,,,,,,,,,1,,,,,,,,,,,,,,,,,,,,,,,,,,,,,,,,,,,,,,,,,,,,,,58,153550,20,Female,1,2024/02/15_10:22:25,YZ,None,
,,,,,,calibration,0,1,2,361,16,S,0,right,0.6572853010002291,1,0,,,,,,,,,,,,,,,,,,,,,1,,,,,,,,,,,,,,,,,,,,,,,,,,,,,,,,,,,,,,,,,,,,,,58,153550,20,Female,1,2024/02/15_10:22:25,YZ,None,
,,,,,,calibration,0,1,2,361,17,N,0,right,0.5565240279993304,1,0,,,,,,,,,,,,,,,,,,,,,1,,,,,,,,,,,,,,,,,,,,,,,,,,,,,,,,,,,,,,,,,,,,,,58,153550,20,Female,1,2024/02/15_10:22:25,YZ,None,
,,,,,,calibration,0,1,2,361,18,J,0,right,0.6354857680016721,1,0,,,,,,,,,,,,,,,,,,,,,1,,,,,,,,,,,,,,,,,,,,,,,,,,,,,,,,,,,,,,,,,,,,,,58,153550,20,Female,1,2024/02/15_10:22:25,YZ,None,
,,,,,,calibration,0,1,2,361,,,,,,,,0.9583333333333334,0.8333333333333334,0.0,1.0,0.0,1.0,0.6326025736665947,5,0,0,0,0,12,17,6,12,0,,,,1,,,,,,,,,,,,,,,,,,,,,,,,,,,,,,,,,,,,,,,,,,,,,,58,153550,20,Female,1,2024/02/15_10:22:25,YZ,None,
,,,,,,Calibration,0,,2,361,,,,,,,,,,,,,,,,,,,,,,,,,6,,,1,,,,,,,,,,,,,,,,,,,,,,,,,,,,,,,,,,,,,,,,,,,,,,58,153550,20,Female,1,2024/02/15_10:22:25,YZ,None,
,,,,,,calibration,0,14,2,303,1,N,0,right,0.42874187599954894,1,0,,,,,,,,,,,,,,,,,,,,,1,,,,,,,,,,,,,,,,,,,,,,,,,,,,,,,,,,,,,,,,,,,,,,58,153550,20,Female,1,2024/02/15_10:22:25,YZ,None,
,,,,,,calibration,0,14,2,303,2,C,0,right,0.5420482319987059,1,0,,,,,,,,,,,,,,,,,,,,,1,,,,,,,,,,,,,,,,,,,,,,,,,,,,,,,,,,,,,,,,,,,,,,58,153550,20,Female,1,2024/02/15_10:22:25,YZ,None,
,,,,,,calibration,0,14,2,303,3,Q,0,right,0.49194482999882894,1,0,,,,,,,,,,,,,,,,,,,,,1,,,,,,,,,,,,,,,,,,,,,,,,,,,,,,,,,,,,,,,,,,,,,,58,153550,20,Female,1,2024/02/15_10:22:25,YZ,None,
,,,,,,calibration,0,14,2,303,4,F,0,right,0.7206110119986988,1,0,,,,,,,,,,,,,,,,,,,,,1,,,,,,,,,,,,,,,,,,,,,,,,,,,,,,,,,,,,,,,,,,,,,,58,153550,20,Female,1,2024/02/15_10:22:25,YZ,None,
,,,,,,calibration,0,14,2,303,5,Q,1,left,0.4587606950008194,1,0,,,,,,,,,,,,,,,,,,,,,1,,,,,,,,,,,,,,,,,,,,,,,,,,,,,,,,,,,,,,,,,,,,,,58,153550,20,Female,1,2024/02/15_10:22:25,YZ,None,
,,,,,,calibration,0,14,2,303,6,C,0,right,0.6486077950012259,1,0,,,,,,,,,,,,,,,,,,,,,1,,,,,,,,,,,,,,,,,,,,,,,,,,,,,,,,,,,,,,,,,,,,,,58,153550,20,Female,1,2024/02/15_10:22:25,YZ,None,
,,,,,,calibration,0,14,2,303,7,X,0,right,0.6241321210000024,1,0,,,,,,,,,,,,,,,,,,,,,1,,,,,,,,,,,,,,,,,,,,,,,,,,,,,,,,,,,,,,,,,,,,,,58,153550,20,Female,1,2024/02/15_10:22:25,YZ,None,
,,,,,,calibration,0,14,2,303,8,F,0,right,0.7727404709985422,1,0,,,,,,,,,,,,,,,,,,,,,1,,,,,,,,,,,,,,,,,,,,,,,,,,,,,,,,,,,,,,,,,,,,,,58,153550,20,Female,1,2024/02/15_10:22:25,YZ,None,
,,,,,,calibration,0,14,2,303,9,Q,0,right,0.7423601540012896,1,0,,,,,,,,,,,,,,,,,,,,,1,,,,,,,,,,,,,,,,,,,,,,,,,,,,,,,,,,,,,,,,,,,,,,58,153550,20,Female,1,2024/02/15_10:22:25,YZ,None,
,,,,,,calibration,0,14,2,303,10,S,0,right,0.7595353750002687,1,0,,,,,,,,,,,,,,,,,,,,,1,,,,,,,,,,,,,,,,,,,,,,,,,,,,,,,,,,,,,,,,,,,,,,58,153550,20,Female,1,2024/02/15_10:22:25,YZ,None,
,,,,,,calibration,0,14,2,303,11,X,0,right,0.6019171269999788,1,0,,,,,,,,,,,,,,,,,,,,,1,,,,,,,,,,,,,,,,,,,,,,,,,,,,,,,,,,,,,,,,,,,,,,58,153550,20,Female,1,2024/02/15_10:22:25,YZ,None,
,,,,,,calibration,0,14,2,303,12,S,1,left,0.48438022499976796,1,0,,,,,,,,,,,,,,,,,,,,,1,,,,,,,,,,,,,,,,,,,,,,,,,,,,,,,,,,,,,,,,,,,,,,58,153550,20,Female,1,2024/02/15_10:22:25,YZ,None,
,,,,,,calibration,0,14,2,303,13,J,0,right,0.5125943189996178,1,0,,,,,,,,,,,,,,,,,,,,,1,,,,,,,,,,,,,,,,,,,,,,,,,,,,,,,,,,,,,,,,,,,,,,58,153550,20,Female,1,2024/02/15_10:22:25,YZ,None,
,,,,,,calibration,0,14,2,303,14,S,1,left,0.7422750269997778,1,0,,,,,,,,,,,,,,,,,,,,,1,,,,,,,,,,,,,,,,,,,,,,,,,,,,,,,,,,,,,,,,,,,,,,58,153550,20,Female,1,2024/02/15_10:22:25,YZ,None,
,,,,,,calibration,0,14,2,303,15,C,0,right,0.6914293089994317,1,0,,,,,,,,,,,,,,,,,,,,,1,,,,,,,,,,,,,,,,,,,,,,,,,,,,,,,,,,,,,,,,,,,,,,58,153550,20,Female,1,2024/02/15_10:22:25,YZ,None,
,,,,,,calibration,0,14,2,303,16,S,1,right,0.7244302069993864,0,0,,,,,,,,,,,,,,,,,,,,,1,,,,,,,,,,,,,,,,,,,,,,,,,,,,,,,,,,,,,,,,,,,,,,58,153550,20,Female,1,2024/02/15_10:22:25,YZ,None,
,,,,,,calibration,0,14,2,303,17,Q,0,right,0.8763813269997627,1,0,,,,,,,,,,,,,,,,,,,,,1,,,,,,,,,,,,,,,,,,,,,,,,,,,,,,,,,,,,,,,,,,,,,,58,153550,20,Female,1,2024/02/15_10:22:25,YZ,None,
,,,,,,calibration,0,14,2,303,18,S,1,left,0.9255381429993577,1,0,,,,,,,,,,,,,,,,,,,,,1,,,,,,,,,,,,,,,,,,,,,,,,,,,,,,,,,,,,,,,,,,,,,,58,153550,20,Female,1,2024/02/15_10:22:25,YZ,None,
,,,,,,calibration,0,14,2,303,19,Q,1,right,0.42557327299982717,0,0,,,,,,,,,,,,,,,,,,,,,1,,,,,,,,,,,,,,,,,,,,,,,,,,,,,,,,,,,,,,,,,,,,,,58,153550,20,Female,1,2024/02/15_10:22:25,YZ,None,
,,,,,,calibration,0,14,2,303,,,,,,,,0.9166666666666666,0.6666666666666666,0.0,1.0,0.0,1.0,0.6407369219997283,4,0,0,0,0,13,17,6,13,0,,,,1,,,,,,,,,,,,,,,,,,,,,,,,,,,,,,,,,,,,,,,,,,,,,,58,153550,20,Female,1,2024/02/15_10:22:25,YZ,None,
,,,,,,Calibration,0,,2,303,,,,,,,,,,,,,,,,,,,,,,,,,7,,,1,,,,,,,,,,,,,,,,,,,,,,,,,,,,,,,,,,,,,,,,,,,,,,58,153550,20,Female,1,2024/02/15_10:22:25,YZ,None,
,,,,,,calibration,0,17,2,250,1,F,0,right,0.5492755000013858,1,0,,,,,,,,,,,,,,,,,,,,,1,,,,,,,,,,,,,,,,,,,,,,,,,,,,,,,,,,,,,,,,,,,,,,58,153550,20,Female,1,2024/02/15_10:22:25,YZ,None,
,,,,,,calibration,0,17,2,250,2,J,0,right,0.4134261859999242,1,0,,,,,,,,,,,,,,,,,,,,,1,,,,,,,,,,,,,,,,,,,,,,,,,,,,,,,,,,,,,,,,,,,,,,58,153550,20,Female,1,2024/02/15_10:22:25,YZ,None,
,,,,,,calibration,0,17,2,250,3,Q,0,right,0.5856260090004071,1,0,,,,,,,,,,,,,,,,,,,,,1,,,,,,,,,,,,,,,,,,,,,,,,,,,,,,,,,,,,,,,,,,,,,,58,153550,20,Female,1,2024/02/15_10:22:25,YZ,None,
,,,,,,calibration,0,17,2,250,4,J,1,right,0.5528439429999707,0,0,,,,,,,,,,,,,,,,,,,,,1,,,,,,,,,,,,,,,,,,,,,,,,,,,,,,,,,,,,,,,,,,,,,,58,153550,20,Female,1,2024/02/15_10:22:25,YZ,None,
,,,,,,calibration,0,17,2,250,5,F,0,right,0.6219064329998218,1,0,,,,,,,,,,,,,,,,,,,,,1,,,,,,,,,,,,,,,,,,,,,,,,,,,,,,,,,,,,,,,,,,,,,,58,153550,20,Female,1,2024/02/15_10:22:25,YZ,None,
,,,,,,calibration,0,17,2,250,6,J,1,left,0.48554241199963144,1,0,,,,,,,,,,,,,,,,,,,,,1,,,,,,,,,,,,,,,,,,,,,,,,,,,,,,,,,,,,,,,,,,,,,,58,153550,20,Female,1,2024/02/15_10:22:25,YZ,None,
,,,,,,calibration,0,17,2,250,7,F,1,left,0.6668923890010774,1,0,,,,,,,,,,,,,,,,,,,,,1,,,,,,,,,,,,,,,,,,,,,,,,,,,,,,,,,,,,,,,,,,,,,,58,153550,20,Female,1,2024/02/15_10:22:25,YZ,None,
,,,,,,calibration,0,17,2,250,8,X,0,right,0.4932164450001437,1,0,,,,,,,,,,,,,,,,,,,,,1,,,,,,,,,,,,,,,,,,,,,,,,,,,,,,,,,,,,,,,,,,,,,,58,153550,20,Female,1,2024/02/15_10:22:25,YZ,None,
,,,,,,calibration,0,17,2,250,9,F,1,left,0.5004741199991258,1,0,,,,,,,,,,,,,,,,,,,,,1,,,,,,,,,,,,,,,,,,,,,,,,,,,,,,,,,,,,,,,,,,,,,,58,153550,20,Female,1,2024/02/15_10:22:25,YZ,None,
,,,,,,calibration,0,17,2,250,10,C,0,right,0.5631788680002501,1,0,,,,,,,,,,,,,,,,,,,,,1,,,,,,,,,,,,,,,,,,,,,,,,,,,,,,,,,,,,,,,,,,,,,,58,153550,20,Female,1,2024/02/15_10:22:25,YZ,None,
,,,,,,calibration,0,17,2,250,11,X,0,right,0.6822510170004534,1,0,,,,,,,,,,,,,,,,,,,,,1,,,,,,,,,,,,,,,,,,,,,,,,,,,,,,,,,,,,,,,,,,,,,,58,153550,20,Female,1,2024/02/15_10:22:25,YZ,None,
,,,,,,calibration,0,17,2,250,12,N,0,right,0.8305941389990039,1,0,,,,,,,,,,,,,,,,,,,,,1,,,,,,,,,,,,,,,,,,,,,,,,,,,,,,,,,,,,,,,,,,,,,,58,153550,20,Female,1,2024/02/15_10:22:25,YZ,None,
,,,,,,calibration,0,17,2,250,13,F,0,right,0.5575050950010336,1,0,,,,,,,,,,,,,,,,,,,,,1,,,,,,,,,,,,,,,,,,,,,,,,,,,,,,,,,,,,,,,,,,,,,,58,153550,20,Female,1,2024/02/15_10:22:25,YZ,None,
,,,,,,calibration,0,17,2,250,14,C,0,right,0.8114556000000448,1,0,,,,,,,,,,,,,,,,,,,,,1,,,,,,,,,,,,,,,,,,,,,,,,,,,,,,,,,,,,,,,,,,,,,,58,153550,20,Female,1,2024/02/15_10:22:25,YZ,None,
,,,,,,calibration,0,17,2,250,15,F,1,left,0.5485334300010436,1,0,,,,,,,,,,,,,,,,,,,,,1,,,,,,,,,,,,,,,,,,,,,,,,,,,,,,,,,,,,,,,,,,,,,,58,153550,20,Female,1,2024/02/15_10:22:25,YZ,None,
,,,,,,calibration,0,17,2,250,16,X,0,right,0.44403130800128565,1,0,,,,,,,,,,,,,,,,,,,,,1,,,,,,,,,,,,,,,,,,,,,,,,,,,,,,,,,,,,,,,,,,,,,,58,153550,20,Female,1,2024/02/15_10:22:25,YZ,None,
,,,,,,calibration,0,17,2,250,17,V,0,right,0.757387801000732,1,0,,,,,,,,,,,,,,,,,,,,,1,,,,,,,,,,,,,,,,,,,,,,,,,,,,,,,,,,,,,,,,,,,,,,58,153550,20,Female,1,2024/02/15_10:22:25,YZ,None,
,,,,,,calibration,0,17,2,250,18,S,0,right,0.6118704630007414,1,0,,,,,,,,,,,,,,,,,,,,,1,,,,,,,,,,,,,,,,,,,,,,,,,,,,,,,,,,,,,,,,,,,,,,58,153550,20,Female,1,2024/02/15_10:22:25,YZ,None,
,,,,,,calibration,0,17,2,250,19,C,0,right,0.7098388569993404,1,0,,,,,,,,,,,,,,,,,,,,,1,,,,,,,,,,,,,,,,,,,,,,,,,,,,,,,,,,,,,,,,,,,,,,58,153550,20,Female,1,2024/02/15_10:22:25,YZ,None,
,,,,,,calibration,0,17,2,250,20,S,1,left,0.7533059139987017,1,0,,,,,,,,,,,,,,,,,,,,,1,,,,,,,,,,,,,,,,,,,,,,,,,,,,,,,,,,,,,,,,,,,,,,58,153550,20,Female,1,2024/02/15_10:22:25,YZ,None,
,,,,,,calibration,0,17,2,250,,,,,,,,0.9583333333333334,0.8333333333333334,0.0,1.0,0.0,1.0,0.606957796450206,5,0,0,0,0,14,19,6,14,0,,,,1,,,,,,,,,,,,,,,,,,,,,,,,,,,,,,,,,,,,,,,,,,,,,,58,153550,20,Female,1,2024/02/15_10:22:25,YZ,None,
,,,,,,Calibration,0,,2,250,,,,,,,,,,,,,,,,,,,,,,,,,8,,,1,,,,,,,,,,,,,,,,,,,,,,,,,,,,,,,,,,,,,,,,,,,,,,58,153550,20,Female,1,2024/02/15_10:22:25,YZ,None,
,,,,,,calibration,0,30,2,202,1,N,0,right,0.5653644899994106,1,0,,,,,,,,,,,,,,,,,,,,,1,,,,,,,,,,,,,,,,,,,,,,,,,,,,,,,,,,,,,,,,,,,,,,58,153550,20,Female,1,2024/02/15_10:22:25,YZ,None,
,,,,,,calibration,0,30,2,202,2,C,0,right,0.4634951789994375,1,0,,,,,,,,,,,,,,,,,,,,,1,,,,,,,,,,,,,,,,,,,,,,,,,,,,,,,,,,,,,,,,,,,,,,58,153550,20,Female,1,2024/02/15_10:22:25,YZ,None,
,,,,,,calibration,0,30,2,202,3,F,0,right,0.4595483550001518,1,0,,,,,,,,,,,,,,,,,,,,,1,,,,,,,,,,,,,,,,,,,,,,,,,,,,,,,,,,,,,,,,,,,,,,58,153550,20,Female,1,2024/02/15_10:22:25,YZ,None,
,,,,,,calibration,0,30,2,202,4,V,0,right,0.5928694959984568,1,0,,,,,,,,,,,,,,,,,,,,,1,,,,,,,,,,,,,,,,,,,,,,,,,,,,,,,,,,,,,,,,,,,,,,58,153550,20,Female,1,2024/02/15_10:22:25,YZ,None,
,,,,,,calibration,0,30,2,202,5,F,1,left,0.7135796629991091,1,0,,,,,,,,,,,,,,,,,,,,,1,,,,,,,,,,,,,,,,,,,,,,,,,,,,,,,,,,,,,,,,,,,,,,58,153550,20,Female,1,2024/02/15_10:22:25,YZ,None,
,,,,,,calibration,0,30,2,202,6,S,0,right,0.5983389530010754,1,0,,,,,,,,,,,,,,,,,,,,,1,,,,,,,,,,,,,,,,,,,,,,,,,,,,,,,,,,,,,,,,,,,,,,58,153550,20,Female,1,2024/02/15_10:22:25,YZ,None,
,,,,,,calibration,0,30,2,202,7,F,1,left,0.5978043729992351,1,0,,,,,,,,,,,,,,,,,,,,,1,,,,,,,,,,,,,,,,,,,,,,,,,,,,,,,,,,,,,,,,,,,,,,58,153550,20,Female,1,2024/02/15_10:22:25,YZ,None,
,,,,,,calibration,0,30,2,202,8,S,1,right,0.4339195140000811,0,0,,,,,,,,,,,,,,,,,,,,,1,,,,,,,,,,,,,,,,,,,,,,,,,,,,,,,,,,,,,,,,,,,,,,58,153550,20,Female,1,2024/02/15_10:22:25,YZ,None,
,,,,,,calibration,0,30,2,202,9,Q,0,right,0.9690232919983828,1,0,,,,,,,,,,,,,,,,,,,,,1,,,,,,,,,,,,,,,,,,,,,,,,,,,,,,,,,,,,,,,,,,,,,,58,153550,20,Female,1,2024/02/15_10:22:25,YZ,None,
,,,,,,calibration,0,30,2,202,10,X,0,right,0.5921902990012313,1,0,,,,,,,,,,,,,,,,,,,,,1,,,,,,,,,,,,,,,,,,,,,,,,,,,,,,,,,,,,,,,,,,,,,,58,153550,20,Female,1,2024/02/15_10:22:25,YZ,None,
,,,,,,calibration,0,30,2,202,11,Q,1,left,0.63665863100141,1,0,,,,,,,,,,,,,,,,,,,,,1,,,,,,,,,,,,,,,,,,,,,,,,,,,,,,,,,,,,,,,,,,,,,,58,153550,20,Female,1,2024/02/15_10:22:25,YZ,None,
,,,,,,calibration,0,30,2,202,12,N,0,right,0.5854713650005579,1,0,,,,,,,,,,,,,,,,,,,,,1,,,,,,,,,,,,,,,,,,,,,,,,,,,,,,,,,,,,,,,,,,,,,,58,153550,20,Female,1,2024/02/15_10:22:25,YZ,None,
,,,,,,calibration,0,30,2,202,13,X,0,right,0.6620490069999505,1,0,,,,,,,,,,,,,,,,,,,,,1,,,,,,,,,,,,,,,,,,,,,,,,,,,,,,,,,,,,,,,,,,,,,,58,153550,20,Female,1,2024/02/15_10:22:25,YZ,None,
,,,,,,calibration,0,30,2,202,14,V,0,left,0.5587857949994941,0,0,,,,,,,,,,,,,,,,,,,,,1,,,,,,,,,,,,,,,,,,,,,,,,,,,,,,,,,,,,,,,,,,,,,,58,153550,20,Female,1,2024/02/15_10:22:25,YZ,None,
,,,,,,calibration,0,30,2,202,15,X,1,left,0.6521153449994017,1,0,,,,,,,,,,,,,,,,,,,,,1,,,,,,,,,,,,,,,,,,,,,,,,,,,,,,,,,,,,,,,,,,,,,,58,153550,20,Female,1,2024/02/15_10:22:25,YZ,None,
,,,,,,calibration,0,30,2,202,16,V,1,left,0.5243795980004506,1,0,,,,,,,,,,,,,,,,,,,,,1,,,,,,,,,,,,,,,,,,,,,,,,,,,,,,,,,,,,,,,,,,,,,,58,153550,20,Female,1,2024/02/15_10:22:25,YZ,None,
,,,,,,calibration,0,30,2,202,17,N,0,right,0.5477168500001426,1,0,,,,,,,,,,,,,,,,,,,,,1,,,,,,,,,,,,,,,,,,,,,,,,,,,,,,,,,,,,,,,,,,,,,,58,153550,20,Female,1,2024/02/15_10:22:25,YZ,None,
,,,,,,calibration,0,30,2,202,18,F,0,right,0.5406585879991326,1,0,,,,,,,,,,,,,,,,,,,,,1,,,,,,,,,,,,,,,,,,,,,,,,,,,,,,,,,,,,,,,,,,,,,,58,153550,20,Female,1,2024/02/15_10:22:25,YZ,None,
,,,,,,calibration,0,30,2,202,19,C,0,right,0.5794589379984245,1,0,,,,,,,,,,,,,,,,,,,,,1,,,,,,,,,,,,,,,,,,,,,,,,,,,,,,,,,,,,,,,,,,,,,,58,153550,20,Female,1,2024/02/15_10:22:25,YZ,None,
,,,,,,calibration,0,30,2,202,20,F,1,left,0.42150430400033656,1,0,,,,,,,,,,,,,,,,,,,,,1,,,,,,,,,,,,,,,,,,,,,,,,,,,,,,,,,,,,,,,,,,,,,,58,153550,20,Female,1,2024/02/15_10:22:25,YZ,None,
,,,,,,calibration,0,30,2,202,21,N,0,left,nan,0,1,,,,,,,,,,,,,,,,,,,,,1,,,,,,,,,,,,,,,,,,,,,,,,,,,,,,,,,,,,,,,,,,,,,,58,153550,20,Female,1,2024/02/15_10:22:25,YZ,None,
,,,,,,calibration,0,30,2,202,,,,,,,,0.9362244897959183,0.8571428571428571,0.07142857142857142,0.9230769230769231,0.047619047619047616,0.8809523809523809,0.5847466017497936,6,1,0,1,1,12,18,7,14,0,,,,1,,,,,,,,,,,,,,,,,,,,,,,,,,,,,,,,,,,,,,,,,,,,,,58,153550,20,Female,1,2024/02/15_10:22:25,YZ,None,
,,,,,,Calibration,0,,2,202,,,,,,,,,,,,,,,,,,,,,,,,,9,,,1,,,,,,,,,,,,,,,,,,,,,,,,,,,,,,,,,,,,,,,,,,,,,,58,153550,20,Female,1,2024/02/15_10:22:25,YZ,None,
,,,,,,calibration,0,34,2,159,1,S,0,right,0.7465926210006728,1,0,,,,,,,,,,,,,,,,,,,,,1,,,,,,,,,,,,,,,,,,,,,,,,,,,,,,,,,,,,,,,,,,,,,,58,153550,20,Female,1,2024/02/15_10:22:25,YZ,None,
,,,,,,calibration,0,34,2,159,2,C,0,right,0.5122876019995601,1,0,,,,,,,,,,,,,,,,,,,,,1,,,,,,,,,,,,,,,,,,,,,,,,,,,,,,,,,,,,,,,,,,,,,,58,153550,20,Female,1,2024/02/15_10:22:25,YZ,None,
,,,,,,calibration,0,34,2,159,3,F,0,right,0.6215298459992482,1,0,,,,,,,,,,,,,,,,,,,,,1,,,,,,,,,,,,,,,,,,,,,,,,,,,,,,,,,,,,,,,,,,,,,,58,153550,20,Female,1,2024/02/15_10:22:25,YZ,None,
,,,,,,calibration,0,34,2,159,4,J,0,right,0.7060874569997395,1,0,,,,,,,,,,,,,,,,,,,,,1,,,,,,,,,,,,,,,,,,,,,,,,,,,,,,,,,,,,,,,,,,,,,,58,153550,20,Female,1,2024/02/15_10:22:25,YZ,None,
,,,,,,calibration,0,34,2,159,5,F,1,left,0.5692199840013927,1,0,,,,,,,,,,,,,,,,,,,,,1,,,,,,,,,,,,,,,,,,,,,,,,,,,,,,,,,,,,,,,,,,,,,,58,153550,20,Female,1,2024/02/15_10:22:25,YZ,None,
,,,,,,calibration,0,34,2,159,6,N,0,right,0.5262786189996405,1,0,,,,,,,,,,,,,,,,,,,,,1,,,,,,,,,,,,,,,,,,,,,,,,,,,,,,,,,,,,,,,,,,,,,,58,153550,20,Female,1,2024/02/15_10:22:25,YZ,None,
,,,,,,calibration,0,34,2,159,7,Q,0,right,0.5972635990001436,1,0,,,,,,,,,,,,,,,,,,,,,1,,,,,,,,,,,,,,,,,,,,,,,,,,,,,,,,,,,,,,,,,,,,,,58,153550,20,Female,1,2024/02/15_10:22:25,YZ,None,
,,,,,,calibration,0,34,2,159,8,N,1,right,0.6922495899998466,0,0,,,,,,,,,,,,,,,,,,,,,1,,,,,,,,,,,,,,,,,,,,,,,,,,,,,,,,,,,,,,,,,,,,,,58,153550,20,Female,1,2024/02/15_10:22:25,YZ,None,
,,,,,,calibration,0,34,2,159,9,Q,1,left,0.37154992000068887,1,0,,,,,,,,,,,,,,,,,,,,,1,,,,,,,,,,,,,,,,,,,,,,,,,,,,,,,,,,,,,,,,,,,,,,58,153550,20,Female,1,2024/02/15_10:22:25,YZ,None,
,,,,,,calibration,0,34,2,159,10,V,0,right,0.44565298599991365,1,0,,,,,,,,,,,,,,,,,,,,,1,,,,,,,,,,,,,,,,,,,,,,,,,,,,,,,,,,,,,,,,,,,,,,58,153550,20,Female,1,2024/02/15_10:22:25,YZ,None,
,,,,,,calibration,0,34,2,159,11,N,0,left,0.9296582770002715,0,0,,,,,,,,,,,,,,,,,,,,,1,,,,,,,,,,,,,,,,,,,,,,,,,,,,,,,,,,,,,,,,,,,,,,58,153550,20,Female,1,2024/02/15_10:22:25,YZ,None,
,,,,,,calibration,0,34,2,159,12,X,0,right,0.5243850730003032,1,0,,,,,,,,,,,,,,,,,,,,,1,,,,,,,,,,,,,,,,,,,,,,,,,,,,,,,,,,,,,,,,,,,,,,58,153550,20,Female,1,2024/02/15_10:22:25,YZ,None,
,,,,,,calibration,0,34,2,159,13,C,0,right,0.6128185149991623,1,0,,,,,,,,,,,,,,,,,,,,,1,,,,,,,,,,,,,,,,,,,,,,,,,,,,,,,,,,,,,,,,,,,,,,58,153550,20,Female,1,2024/02/15_10:22:25,YZ,None,
,,,,,,calibration,0,34,2,159,14,Q,0,right,0.7410482579998643,1,0,,,,,,,,,,,,,,,,,,,,,1,,,,,,,,,,,,,,,,,,,,,,,,,,,,,,,,,,,,,,,,,,,,,,58,153550,20,Female,1,2024/02/15_10:22:25,YZ,None,
,,,,,,calibration,0,34,2,159,15,V,0,right,0.5769207080011256,1,0,,,,,,,,,,,,,,,,,,,,,1,,,,,,,,,,,,,,,,,,,,,,,,,,,,,,,,,,,,,,,,,,,,,,58,153550,20,Female,1,2024/02/15_10:22:25,YZ,None,
,,,,,,calibration,0,34,2,159,16,Q,1,left,0.807613446000687,1,0,,,,,,,,,,,,,,,,,,,,,1,,,,,,,,,,,,,,,,,,,,,,,,,,,,,,,,,,,,,,,,,,,,,,58,153550,20,Female,1,2024/02/15_10:22:25,YZ,None,
,,,,,,calibration,0,34,2,159,17,X,0,right,0.44729464200099756,1,0,,,,,,,,,,,,,,,,,,,,,1,,,,,,,,,,,,,,,,,,,,,,,,,,,,,,,,,,,,,,,,,,,,,,58,153550,20,Female,1,2024/02/15_10:22:25,YZ,None,
,,,,,,calibration,0,34,2,159,18,Q,1,left,0.85014905800017,1,0,,,,,,,,,,,,,,,,,,,,,1,,,,,,,,,,,,,,,,,,,,,,,,,,,,,,,,,,,,,,,,,,,,,,58,153550,20,Female,1,2024/02/15_10:22:25,YZ,None,
,,,,,,calibration,0,34,2,159,19,J,0,right,0.5249836820003111,1,0,,,,,,,,,,,,,,,,,,,,,1,,,,,,,,,,,,,,,,,,,,,,,,,,,,,,,,,,,,,,,,,,,,,,58,153550,20,Female,1,2024/02/15_10:22:25,YZ,None,
,,,,,,calibration,0,34,2,159,20,Q,1,left,0.8302316519984743,1,0,,,,,,,,,,,,,,,,,,,,,1,,,,,,,,,,,,,,,,,,,,,,,,,,,,,,,,,,,,,,,,,,,,,,58,153550,20,Female,1,2024/02/15_10:22:25,YZ,None,
,,,,,,calibration,0,34,2,159,21,S,0,right,0.6091085520001798,1,0,,,,,,,,,,,,,,,,,,,,,1,,,,,,,,,,,,,,,,,,,,,,,,,,,,,,,,,,,,,,,,,,,,,,58,153550,20,Female,1,2024/02/15_10:22:25,YZ,None,
,,,,,,calibration,0,34,2,159,22,V,0,right,0.7010573370007478,1,0,,,,,,,,,,,,,,,,,,,,,1,,,,,,,,,,,,,,,,,,,,,,,,,,,,,,,,,,,,,,,,,,,,,,58,153550,20,Female,1,2024/02/15_10:22:25,YZ,None,
,,,,,,calibration,0,34,2,159,,,,,,,,0.9322916666666667,0.8333333333333334,0.0625,0.9375,0.0,0.9375,0.6338173374546883,5,1,0,0,0,15,20,6,16,0,,,,1,,,,,,,,,,,,,,,,,,,,,,,,,,,,,,,,,,,,,,,,,,,,,,58,153550,20,Female,1,2024/02/15_10:22:25,YZ,None,
,,,,,,Calibration,0,,2,159,,,,,,,,,,,,,,,,,,,,,,,,,10,,,1,,,,,,,,,,,,,,,,,,,,,,,,,,,,,,,,,,,,,,,,,,,,,,58,153550,20,Female,1,2024/02/15_10:22:25,YZ,None,
,,,,,,calibration,0,31,2,120,1,C,0,right,0.9922872890001599,1,0,,,,,,,,,,,,,,,,,,,,,1,,,,,,,,,,,,,,,,,,,,,,,,,,,,,,,,,,,,,,,,,,,,,,58,153550,20,Female,1,2024/02/15_10:22:25,YZ,None,
,,,,,,calibration,0,31,2,120,2,X,0,right,0.3865915619990119,1,0,,,,,,,,,,,,,,,,,,,,,1,,,,,,,,,,,,,,,,,,,,,,,,,,,,,,,,,,,,,,,,,,,,,,58,153550,20,Female,1,2024/02/15_10:22:25,YZ,None,
,,,,,,calibration,0,31,2,120,3,C,1,left,0.559367261999796,1,0,,,,,,,,,,,,,,,,,,,,,1,,,,,,,,,,,,,,,,,,,,,,,,,,,,,,,,,,,,,,,,,,,,,,58,153550,20,Female,1,2024/02/15_10:22:25,YZ,None,
,,,,,,calibration,0,31,2,120,4,Q,0,right,0.688439900000958,1,0,,,,,,,,,,,,,,,,,,,,,1,,,,,,,,,,,,,,,,,,,,,,,,,,,,,,,,,,,,,,,,,,,,,,58,153550,20,Female,1,2024/02/15_10:22:25,YZ,None,
,,,,,,calibration,0,31,2,120,5,J,0,right,0.5717799060003017,1,0,,,,,,,,,,,,,,,,,,,,,1,,,,,,,,,,,,,,,,,,,,,,,,,,,,,,,,,,,,,,,,,,,,,,58,153550,20,Female,1,2024/02/15_10:22:25,YZ,None,
,,,,,,calibration,0,31,2,120,6,C,0,right,0.47115700599897536,1,0,,,,,,,,,,,,,,,,,,,,,1,,,,,,,,,,,,,,,,,,,,,,,,,,,,,,,,,,,,,,,,,,,,,,58,153550,20,Female,1,2024/02/15_10:22:25,YZ,None,
,,,,,,calibration,0,31,2,120,7,J,1,left,0.858040932998847,1,0,,,,,,,,,,,,,,,,,,,,,1,,,,,,,,,,,,,,,,,,,,,,,,,,,,,,,,,,,,,,,,,,,,,,58,153550,20,Female,1,2024/02/15_10:22:25,YZ,None,
,,,,,,calibration,0,31,2,120,8,V,0,right,0.49894364299871086,1,0,,,,,,,,,,,,,,,,,,,,,1,,,,,,,,,,,,,,,,,,,,,,,,,,,,,,,,,,,,,,,,,,,,,,58,153550,20,Female,1,2024/02/15_10:22:25,YZ,None,
,,,,,,calibration,0,31,2,120,9,J,1,right,0.5446450540002843,0,0,,,,,,,,,,,,,,,,,,,,,1,,,,,,,,,,,,,,,,,,,,,,,,,,,,,,,,,,,,,,,,,,,,,,58,153550,20,Female,1,2024/02/15_10:22:25,YZ,None,
,,,,,,calibration,0,31,2,120,10,C,0,right,0.9485428829993907,1,0,,,,,,,,,,,,,,,,,,,,,1,,,,,,,,,,,,,,,,,,,,,,,,,,,,,,,,,,,,,,,,,,,,,,58,153550,20,Female,1,2024/02/15_10:22:25,YZ,None,
,,,,,,calibration,0,31,2,120,11,V,0,right,nan,0,1,,,,,,,,,,,,,,,,,,,,,1,,,,,,,,,,,,,,,,,,,,,,,,,,,,,,,,,,,,,,,,,,,,,,58,153550,20,Female,1,2024/02/15_10:22:25,YZ,None,
,,,,,,calibration,0,31,2,120,12,C,1,right,nan,0,1,,,,,,,,,,,,,,,,,,,,,1,,,,,,,,,,,,,,,,,,,,,,,,,,,,,,,,,,,,,,,,,,,,,,58,153550,20,Female,1,2024/02/15_10:22:25,YZ,None,
,,,,,,calibration,0,31,2,120,13,S,0,right,0.6257149539997044,1,0,,,,,,,,,,,,,,,,,,,,,1,,,,,,,,,,,,,,,,,,,,,,,,,,,,,,,,,,,,,,,,,,,,,,58,153550,20,Female,1,2024/02/15_10:22:25,YZ,None,
,,,,,,calibration,0,31,2,120,14,C,1,left,0.5749321309995139,1,0,,,,,,,,,,,,,,,,,,,,,1,,,,,,,,,,,,,,,,,,,,,,,,,,,,,,,,,,,,,,,,,,,,,,58,153550,20,Female,1,2024/02/15_10:22:25,YZ,None,
,,,,,,calibration,0,31,2,120,15,Q,0,right,0.658074109998779,1,0,,,,,,,,,,,,,,,,,,,,,1,,,,,,,,,,,,,,,,,,,,,,,,,,,,,,,,,,,,,,,,,,,,,,58,153550,20,Female,1,2024/02/15_10:22:25,YZ,None,
,,,,,,calibration,0,31,2,120,16,N,0,right,0.7186461929995858,1,0,,,,,,,,,,,,,,,,,,,,,1,,,,,,,,,,,,,,,,,,,,,,,,,,,,,,,,,,,,,,,,,,,,,,58,153550,20,Female,1,2024/02/15_10:22:25,YZ,None,
,,,,,,calibration,0,31,2,120,17,S,0,left,0.6214920069996879,0,0,,,,,,,,,,,,,,,,,,,,,1,,,,,,,,,,,,,,,,,,,,,,,,,,,,,,,,,,,,,,,,,,,,,,58,153550,20,Female,1,2024/02/15_10:22:25,YZ,None,
,,,,,,calibration,0,31,2,120,18,N,1,left,0.8903501210006652,1,0,,,,,,,,,,,,,,,,,,,,,1,,,,,,,,,,,,,,,,,,,,,,,,,,,,,,,,,,,,,,,,,,,,,,58,153550,20,Female,1,2024/02/15_10:22:25,YZ,None,
,,,,,,calibration,0,31,2,120,19,S,1,left,0.7598500069998408,1,0,,,,,,,,,,,,,,,,,,,,,1,,,,,,,,,,,,,,,,,,,,,,,,,,,,,,,,,,,,,,,,,,,,,,58,153550,20,Female,1,2024/02/15_10:22:25,YZ,None,
,,,,,,calibration,0,31,2,120,20,J,0,right,0.657807651999974,1,0,,,,,,,,,,,,,,,,,,,,,1,,,,,,,,,,,,,,,,,,,,,,,,,,,,,,,,,,,,,,,,,,,,,,58,153550,20,Female,1,2024/02/15_10:22:25,YZ,None,
,,,,,,calibration,0,31,2,120,21,Q,0,right,0.5430929759986611,1,0,,,,,,,,,,,,,,,,,,,,,1,,,,,,,,,,,,,,,,,,,,,,,,,,,,,,,,,,,,,,,,,,,,,,58,153550,20,Female,1,2024/02/15_10:22:25,YZ,None,
,,,,,,calibration,0,31,2,120,22,N,0,right,0.5731268529998488,1,0,,,,,,,,,,,,,,,,,,,,,1,,,,,,,,,,,,,,,,,,,,,,,,,,,,,,,,,,,,,,,,,,,,,,58,153550,20,Female,1,2024/02/15_10:22:25,YZ,None,
,,,,,,calibration,0,31,2,120,23,X,0,right,0.4847911130000284,1,0,,,,,,,,,,,,,,,,,,,,,1,,,,,,,,,,,,,,,,,,,,,,,,,,,,,,,,,,,,,,,,,,,,,,58,153550,20,Female,1,2024/02/15_10:22:25,YZ,None,
,,,,,,calibration,0,31,2,120,,,,,,,,0.8950892857142857,0.7142857142857143,0.0625,0.9333333333333333,0.08695652173913043,0.8505434782608696,0.6489368359520346,5,1,1,1,2,14,19,7,16,0,,,,1,,,,,,,,,,,,,,,,,,,,,,,,,,,,,,,,,,,,,,,,,,,,,,58,153550,20,Female,1,2024/02/15_10:22:25,YZ,None,
,,,,,,Calibration,0,,2,120,,,,,,,,,,,,,,,,,,,,,,,,,11,,,1,,,,,,,,,,,,,,,,,,,,,,,,,,,,,,,,,,,,,,,,,,,,,,58,153550,20,Female,1,2024/02/15_10:22:25,YZ,None,
,,,,,,calibration,0,32,2,83,1,V,0,right,0.5380371250012104,1,0,,,,,,,,,,,,,,,,,,,,,1,,,,,,,,,,,,,,,,,,,,,,,,,,,,,,,,,,,,,,,,,,,,,,58,153550,20,Female,1,2024/02/15_10:22:25,YZ,None,
,,,,,,calibration,0,32,2,83,2,F,0,right,0.3257001840011071,1,0,,,,,,,,,,,,,,,,,,,,,1,,,,,,,,,,,,,,,,,,,,,,,,,,,,,,,,,,,,,,,,,,,,,,58,153550,20,Female,1,2024/02/15_10:22:25,YZ,None,
,,,,,,calibration,0,32,2,83,3,V,1,left,0.6927247599996917,1,0,,,,,,,,,,,,,,,,,,,,,1,,,,,,,,,,,,,,,,,,,,,,,,,,,,,,,,,,,,,,,,,,,,,,58,153550,20,Female,1,2024/02/15_10:22:25,YZ,None,
,,,,,,calibration,0,32,2,83,4,F,1,left,0.4573991399993247,1,0,,,,,,,,,,,,,,,,,,,,,1,,,,,,,,,,,,,,,,,,,,,,,,,,,,,,,,,,,,,,,,,,,,,,58,153550,20,Female,1,2024/02/15_10:22:25,YZ,None,
,,,,,,calibration,0,32,2,83,5,S,0,right,0.8137253650002094,1,0,,,,,,,,,,,,,,,,,,,,,1,,,,,,,,,,,,,,,,,,,,,,,,,,,,,,,,,,,,,,,,,,,,,,58,153550,20,Female,1,2024/02/15_10:22:25,YZ,None,
,,,,,,calibration,0,32,2,83,6,J,0,right,0.5307873700003256,1,0,,,,,,,,,,,,,,,,,,,,,1,,,,,,,,,,,,,,,,,,,,,,,,,,,,,,,,,,,,,,,,,,,,,,58,153550,20,Female,1,2024/02/15_10:22:25,YZ,None,
,,,,,,calibration,0,32,2,83,7,C,0,right,0.6818860599996697,1,0,,,,,,,,,,,,,,,,,,,,,1,,,,,,,,,,,,,,,,,,,,,,,,,,,,,,,,,,,,,,,,,,,,,,58,153550,20,Female,1,2024/02/15_10:22:25,YZ,None,
,,,,,,calibration,0,32,2,83,8,V,0,right,nan,0,1,,,,,,,,,,,,,,,,,,,,,1,,,,,,,,,,,,,,,,,,,,,,,,,,,,,,,,,,,,,,,,,,,,,,58,153550,20,Female,1,2024/02/15_10:22:25,YZ,None,
,,,,,,calibration,0,32,2,83,9,X,0,right,0.9761974520006333,1,0,,,,,,,,,,,,,,,,,,,,,1,,,,,,,,,,,,,,,,,,,,,,,,,,,,,,,,,,,,,,,,,,,,,,58,153550,20,Female,1,2024/02/15_10:22:25,YZ,None,
,,,,,,calibration,0,32,2,83,10,J,0,left,0.8175539000003482,0,0,,,,,,,,,,,,,,,,,,,,,1,,,,,,,,,,,,,,,,,,,,,,,,,,,,,,,,,,,,,,,,,,,,,,58,153550,20,Female,1,2024/02/15_10:22:25,YZ,None,
,,,,,,calibration,0,32,2,83,11,F,0,right,0.42081873700044525,1,0,,,,,,,,,,,,,,,,,,,,,1,,,,,,,,,,,,,,,,,,,,,,,,,,,,,,,,,,,,,,,,,,,,,,58,153550,20,Female,1,2024/02/15_10:22:25,YZ,None,
,,,,,,calibration,0,32,2,83,12,J,1,right,0.541856617999656,0,0,,,,,,,,,,,,,,,,,,,,,1,,,,,,,,,,,,,,,,,,,,,,,,,,,,,,,,,,,,,,,,,,,,,,58,153550,20,Female,1,2024/02/15_10:22:25,YZ,None,
,,,,,,calibration,0,32,2,83,13,F,1,left,0.5385225549998722,1,0,,,,,,,,,,,,,,,,,,,,,1,,,,,,,,,,,,,,,,,,,,,,,,,,,,,,,,,,,,,,,,,,,,,,58,153550,20,Female,1,2024/02/15_10:22:25,YZ,None,
,,,,,,calibration,0,32,2,83,14,C,0,right,0.49115338699994027,1,0,,,,,,,,,,,,,,,,,,,,,1,,,,,,,,,,,,,,,,,,,,,,,,,,,,,,,,,,,,,,,,,,,,,,58,153550,20,Female,1,2024/02/15_10:22:25,YZ,None,
,,,,,,calibration,0,32,2,83,15,F,1,left,0.5422196280014759,1,0,,,,,,,,,,,,,,,,,,,,,1,,,,,,,,,,,,,,,,,,,,,,,,,,,,,,,,,,,,,,,,,,,,,,58,153550,20,Female,1,2024/02/15_10:22:25,YZ,None,
,,,,,,calibration,0,32,2,83,16,J,0,right,0.8689763460006361,1,0,,,,,,,,,,,,,,,,,,,,,1,,,,,,,,,,,,,,,,,,,,,,,,,,,,,,,,,,,,,,,,,,,,,,58,153550,20,Female,1,2024/02/15_10:22:25,YZ,None,
,,,,,,calibration,0,32,2,83,17,F,1,left,0.5123346499985928,1,0,,,,,,,,,,,,,,,,,,,,,1,,,,,,,,,,,,,,,,,,,,,,,,,,,,,,,,,,,,,,,,,,,,,,58,153550,20,Female,1,2024/02/15_10:22:25,YZ,None,
,,,,,,calibration,0,32,2,83,18,N,0,right,0.5492216410002584,1,0,,,,,,,,,,,,,,,,,,,,,1,,,,,,,,,,,,,,,,,,,,,,,,,,,,,,,,,,,,,,,,,,,,,,58,153550,20,Female,1,2024/02/15_10:22:25,YZ,None,
,,,,,,calibration,0,32,2,83,19,S,0,right,0.7477715549994173,1,0,,,,,,,,,,,,,,,,,,,,,1,,,,,,,,,,,,,,,,,,,,,,,,,,,,,,,,,,,,,,,,,,,,,,58,153550,20,Female,1,2024/02/15_10:22:25,YZ,None,
,,,,,,calibration,0,32,2,83,20,J,0,right,0.7247658590003994,1,0,,,,,,,,,,,,,,,,,,,,,1,,,,,,,,,,,,,,,,,,,,,,,,,,,,,,,,,,,,,,,,,,,,,,58,153550,20,Female,1,2024/02/15_10:22:25,YZ,None,
,,,,,,calibration,0,32,2,83,21,N,0,right,nan,0,1,,,,,,,,,,,,,,,,,,,,,1,,,,,,,,,,,,,,,,,,,,,,,,,,,,,,,,,,,,,,,,,,,,,,58,153550,20,Female,1,2024/02/15_10:22:25,YZ,None,
,,,,,,calibration,0,32,2,83,22,Q,0,right,nan,0,1,,,,,,,,,,,,,,,,,,,,,1,,,,,,,,,,,,,,,,,,,,,,,,,,,,,,,,,,,,,,,,,,,,,,58,153550,20,Female,1,2024/02/15_10:22:25,YZ,None,
,,,,,,calibration,0,32,2,83,23,N,1,right,nan,0,1,,,,,,,,,,,,,,,,,,,,,1,,,,,,,,,,,,,,,,,,,,,,,,,,,,,,,,,,,,,,,,,,,,,,58,153550,20,Female,1,2024/02/15_10:22:25,YZ,None,
,,,,,,calibration,0,32,2,83,24,F,0,left,0.6245003049989464,0,0,,,,,,,,,,,,,,,,,,,,,1,,,,,,,,,,,,,,,,,,,,,,,,,,,,,,,,,,,,,,,,,,,,,,58,153550,20,Female,1,2024/02/15_10:22:25,YZ,None,
,,,,,,calibration,0,32,2,83,,,,,,,,0.865546218487395,0.7142857142857143,0.11764705882352941,0.8571428571428571,0.16666666666666666,0.7156862745098039,0.619807631850108,5,2,1,3,4,12,17,7,17,0,,,,1,,,,,,,,,,,,,,,,,,,,,,,,,,,,,,,,,,,,,,,,,,,,,,58,153550,20,Female,1,2024/02/15_10:22:25,YZ,None,
,,,,,,Calibration,0,,2,83,,,,,,,,,,,,,,,,,,,,,,,,,12,,,1,,,,,,,,,,,,,,,,,,,,,,,,,,,,,,,,,,,,,,,,,,,,,,58,153550,20,Female,1,2024/02/15_10:22:25,YZ,None,
,,,,,,calibration,0,29,2,50,1,C,0,right,0.8509324709993962,1,0,,,,,,,,,,,,,,,,,,,,,1,,,,,,,,,,,,,,,,,,,,,,,,,,,,,,,,,,,,,,,,,,,,,,58,153550,20,Female,1,2024/02/15_10:22:25,YZ,None,
,,,,,,calibration,0,29,2,50,2,C,0,right,0.319937199999913,1,0,,,,,,,,,,,,,,,,,,,,,1,,,,,,,,,,,,,,,,,,,,,,,,,,,,,,,,,,,,,,,,,,,,,,58,153550,20,Female,1,2024/02/15_10:22:25,YZ,None,
,,,,,,calibration,0,29,2,50,3,S,0,right,0.816909842998939,1,0,,,,,,,,,,,,,,,,,,,,,1,,,,,,,,,,,,,,,,,,,,,,,,,,,,,,,,,,,,,,,,,,,,,,58,153550,20,Female,1,2024/02/15_10:22:25,YZ,None,
,,,,,,calibration,0,29,2,50,4,Q,0,right,0.8984044959997846,1,0,,,,,,,,,,,,,,,,,,,,,1,,,,,,,,,,,,,,,,,,,,,,,,,,,,,,,,,,,,,,,,,,,,,,58,153550,20,Female,1,2024/02/15_10:22:25,YZ,None,
,,,,,,calibration,0,29,2,50,5,J,0,right,nan,0,1,,,,,,,,,,,,,,,,,,,,,1,,,,,,,,,,,,,,,,,,,,,,,,,,,,,,,,,,,,,,,,,,,,,,58,153550,20,Female,1,2024/02/15_10:22:25,YZ,None,
,,,,,,calibration,0,29,2,50,6,Q,1,left,0.7411893749995215,1,0,,,,,,,,,,,,,,,,,,,,,1,,,,,,,,,,,,,,,,,,,,,,,,,,,,,,,,,,,,,,,,,,,,,,58,153550,20,Female,1,2024/02/15_10:22:25,YZ,None,
,,,,,,calibration,0,29,2,50,7,F,0,right,0.5901568469998892,1,0,,,,,,,,,,,,,,,,,,,,,1,,,,,,,,,,,,,,,,,,,,,,,,,,,,,,,,,,,,,,,,,,,,,,58,153550,20,Female,1,2024/02/15_10:22:25,YZ,None,
,,,,,,calibration,0,29,2,50,8,X,0,right,0.523246825001479,1,0,,,,,,,,,,,,,,,,,,,,,1,,,,,,,,,,,,,,,,,,,,,,,,,,,,,,,,,,,,,,,,,,,,,,58,153550,20,Female,1,2024/02/15_10:22:25,YZ,None,
,,,,,,calibration,0,29,2,50,9,S,0,right,0.7921817370006465,1,0,,,,,,,,,,,,,,,,,,,,,1,,,,,,,,,,,,,,,,,,,,,,,,,,,,,,,,,,,,,,,,,,,,,,58,153550,20,Female,1,2024/02/15_10:22:25,YZ,None,
,,,,,,calibration,0,29,2,50,10,J,0,right,0.892512264999823,1,0,,,,,,,,,,,,,,,,,,,,,1,,,,,,,,,,,,,,,,,,,,,,,,,,,,,,,,,,,,,,,,,,,,,,58,153550,20,Female,1,2024/02/15_10:22:25,YZ,None,
,,,,,,calibration,0,29,2,50,11,C,0,right,0.8727593450003042,1,0,,,,,,,,,,,,,,,,,,,,,1,,,,,,,,,,,,,,,,,,,,,,,,,,,,,,,,,,,,,,,,,,,,,,58,153550,20,Female,1,2024/02/15_10:22:25,YZ,None,
,,,,,,calibration,0,29,2,50,12,J,1,left,0.8749539660002483,1,0,,,,,,,,,,,,,,,,,,,,,1,,,,,,,,,,,,,,,,,,,,,,,,,,,,,,,,,,,,,,,,,,,,,,58,153550,20,Female,1,2024/02/15_10:22:25,YZ,None,
,,,,,,calibration,0,29,2,50,13,N,0,left,nan,0,1,,,,,,,,,,,,,,,,,,,,,1,,,,,,,,,,,,,,,,,,,,,,,,,,,,,,,,,,,,,,,,,,,,,,58,153550,20,Female,1,2024/02/15_10:22:25,YZ,None,
,,,,,,calibration,0,29,2,50,14,J,1,left,0.68036475199915,1,0,,,,,,,,,,,,,,,,,,,,,1,,,,,,,,,,,,,,,,,,,,,,,,,,,,,,,,,,,,,,,,,,,,,,58,153550,20,Female,1,2024/02/15_10:22:25,YZ,None,
,,,,,,calibration,0,29,2,50,15,N,1,left,0.7592056650009908,1,0,,,,,,,,,,,,,,,,,,,,,1,,,,,,,,,,,,,,,,,,,,,,,,,,,,,,,,,,,,,,,,,,,,,,58,153550,20,Female,1,2024/02/15_10:22:25,YZ,None,
,,,,,,calibration,0,29,2,50,16,C,0,right,0.5529318099997909,1,0,,,,,,,,,,,,,,,,,,,,,1,,,,,,,,,,,,,,,,,,,,,,,,,,,,,,,,,,,,,,,,,,,,,,58,153550,20,Female,1,2024/02/15_10:22:25,YZ,None,
,,,,,,calibration,0,29,2,50,17,F,0,right,0.6581642310011375,1,0,,,,,,,,,,,,,,,,,,,,,1,,,,,,,,,,,,,,,,,,,,,,,,,,,,,,,,,,,,,,,,,,,,,,58,153550,20,Female,1,2024/02/15_10:22:25,YZ,None,
,,,,,,calibration,0,29,2,50,18,Q,0,right,0.740693502000795,1,0,,,,,,,,,,,,,,,,,,,,,1,,,,,,,,,,,,,,,,,,,,,,,,,,,,,,,,,,,,,,,,,,,,,,58,153550,20,Female,1,2024/02/15_10:22:25,YZ,None,
,,,,,,calibration,0,29,2,50,19,N,0,left,0.9570026649998908,0,0,,,,,,,,,,,,,,,,,,,,,1,,,,,,,,,,,,,,,,,,,,,,,,,,,,,,,,,,,,,,,,,,,,,,58,153550,20,Female,1,2024/02/15_10:22:25,YZ,None,
,,,,,,calibration,0,29,2,50,20,C,0,right,0.5125672630001645,1,0,,,,,,,,,,,,,,,,,,,,,1,,,,,,,,,,,,,,,,,,,,,,,,,,,,,,,,,,,,,,,,,,,,,,58,153550,20,Female,1,2024/02/15_10:22:25,YZ,None,
,,,,,,calibration,0,29,2,50,21,N,1,left,0.6249102700003277,1,0,,,,,,,,,,,,,,,,,,,,,1,,,,,,,,,,,,,,,,,,,,,,,,,,,,,,,,,,,,,,,,,,,,,,58,153550,20,Female,1,2024/02/15_10:22:25,YZ,None,
,,,,,,calibration,0,29,2,50,22,C,1,left,0.5190730449994589,1,0,,,,,,,,,,,,,,,,,,,,,1,,,,,,,,,,,,,,,,,,,,,,,,,,,,,,,,,,,,,,,,,,,,,,58,153550,20,Female,1,2024/02/15_10:22:25,YZ,None,
,,,,,,calibration,0,29,2,50,23,J,0,left,0.5745187839984283,0,0,,,,,,,,,,,,,,,,,,,,,1,,,,,,,,,,,,,,,,,,,,,,,,,,,,,,,,,,,,,,,,,,,,,,58,153550,20,Female,1,2024/02/15_10:22:25,YZ,None,
,,,,,,calibration,0,29,2,50,24,F,0,right,0.45217448999937915,1,0,,,,,,,,,,,,,,,,,,,,,1,,,,,,,,,,,,,,,,,,,,,,,,,,,,,,,,,,,,,,,,,,,,,,58,153550,20,Female,1,2024/02/15_10:22:25,YZ,None,
,,,,,,calibration,0,29,2,50,25,V,0,right,0.46081770499949926,1,0,,,,,,,,,,,,,,,,,,,,,1,,,,,,,,,,,,,,,,,,,,,,,,,,,,,,,,,,,,,,,,,,,,,,58,153550,20,Female,1,2024/02/15_10:22:25,YZ,None,
,,,,,,calibration,0,29,2,50,,,,,,,,0.9736842105263158,1.0,0.10526315789473684,0.8823529411764706,0.08,0.8147368421052632,0.6811134153043025,6,2,0,2,2,15,21,6,19,0,,,,1,,,,,,,,,,,,,,,,,,,,,,,,,,,,,,,,,,,,,,,,,,,,,,58,153550,20,Female,1,2024/02/15_10:22:25,YZ,None,
,,,,,,Calibration,0,,2,50,,,,,,,,,,,,,,,,,,,,,,,,,13,,,1,,,,,,,,,,,,,,,,,,,,,,,,,,,,,,,,,,,,,,,,,,,,,,58,153550,20,Female,1,2024/02/15_10:22:25,YZ,None,
,,,,,,calibration,0,27,2,19,1,C,0,right,0.7138445380005578,1,0,,,,,,,,,,,,,,,,,,,,,1,,,,,,,,,,,,,,,,,,,,,,,,,,,,,,,,,,,,,,,,,,,,,,58,153550,20,Female,1,2024/02/15_10:22:25,YZ,None,
,,,,,,calibration,0,27,2,19,2,V,0,right,0.4033285640016402,1,0,,,,,,,,,,,,,,,,,,,,,1,,,,,,,,,,,,,,,,,,,,,,,,,,,,,,,,,,,,,,,,,,,,,,58,153550,20,Female,1,2024/02/15_10:22:25,YZ,None,
,,,,,,calibration,0,27,2,19,3,C,1,left,0.5126130239987106,1,0,,,,,,,,,,,,,,,,,,,,,1,,,,,,,,,,,,,,,,,,,,,,,,,,,,,,,,,,,,,,,,,,,,,,58,153550,20,Female,1,2024/02/15_10:22:25,YZ,None,
,,,,,,calibration,0,27,2,19,4,N,0,right,0.5738490860003367,1,0,,,,,,,,,,,,,,,,,,,,,1,,,,,,,,,,,,,,,,,,,,,,,,,,,,,,,,,,,,,,,,,,,,,,58,153550,20,Female,1,2024/02/15_10:22:25,YZ,None,
,,,,,,calibration,0,27,2,19,5,S,0,right,0.7965817130007053,1,0,,,,,,,,,,,,,,,,,,,,,1,,,,,,,,,,,,,,,,,,,,,,,,,,,,,,,,,,,,,,,,,,,,,,58,153550,20,Female,1,2024/02/15_10:22:25,YZ,None,
,,,,,,calibration,0,27,2,19,6,Q,0,right,0.9412475750013982,1,0,,,,,,,,,,,,,,,,,,,,,1,,,,,,,,,,,,,,,,,,,,,,,,,,,,,,,,,,,,,,,,,,,,,,58,153550,20,Female,1,2024/02/15_10:22:25,YZ,None,
,,,,,,calibration,0,27,2,19,7,F,0,right,nan,0,1,,,,,,,,,,,,,,,,,,,,,1,,,,,,,,,,,,,,,,,,,,,,,,,,,,,,,,,,,,,,,,,,,,,,58,153550,20,Female,1,2024/02/15_10:22:25,YZ,None,
,,,,,,calibration,0,27,2,19,8,V,0,right,0.8240149150005891,1,0,,,,,,,,,,,,,,,,,,,,,1,,,,,,,,,,,,,,,,,,,,,,,,,,,,,,,,,,,,,,,,,,,,,,58,153550,20,Female,1,2024/02/15_10:22:25,YZ,None,
,,,,,,calibration,0,27,2,19,9,F,1,right,0.939631160999852,0,0,,,,,,,,,,,,,,,,,,,,,1,,,,,,,,,,,,,,,,,,,,,,,,,,,,,,,,,,,,,,,,,,,,,,58,153550,20,Female,1,2024/02/15_10:22:25,YZ,None,
,,,,,,calibration,0,27,2,19,10,X,0,right,0.5182112970014714,1,0,,,,,,,,,,,,,,,,,,,,,1,,,,,,,,,,,,,,,,,,,,,,,,,,,,,,,,,,,,,,,,,,,,,,58,153550,20,Female,1,2024/02/15_10:22:25,YZ,None,
,,,,,,calibration,0,27,2,19,11,Q,0,right,0.6542317849998653,1,0,,,,,,,,,,,,,,,,,,,,,1,,,,,,,,,,,,,,,,,,,,,,,,,,,,,,,,,,,,,,,,,,,,,,58,153550,20,Female,1,2024/02/15_10:22:25,YZ,None,
,,,,,,calibration,0,27,2,19,12,X,1,left,0.6224181590005173,1,0,,,,,,,,,,,,,,,,,,,,,1,,,,,,,,,,,,,,,,,,,,,,,,,,,,,,,,,,,,,,,,,,,,,,58,153550,20,Female,1,2024/02/15_10:22:25,YZ,None,
,,,,,,calibration,0,27,2,19,13,Q,1,left,0.5294015729996318,1,0,,,,,,,,,,,,,,,,,,,,,1,,,,,,,,,,,,,,,,,,,,,,,,,,,,,,,,,,,,,,,,,,,,,,58,153550,20,Female,1,2024/02/15_10:22:25,YZ,None,
,,,,,,calibration,0,27,2,19,14,C,0,right,0.6081525999998121,1,0,,,,,,,,,,,,,,,,,,,,,1,,,,,,,,,,,,,,,,,,,,,,,,,,,,,,,,,,,,,,,,,,,,,,58,153550,20,Female,1,2024/02/15_10:22:25,YZ,None,
,,,,,,calibration,0,27,2,19,15,Q,1,left,0.8254573769991111,1,0,,,,,,,,,,,,,,,,,,,,,1,,,,,,,,,,,,,,,,,,,,,,,,,,,,,,,,,,,,,,,,,,,,,,58,153550,20,Female,1,2024/02/15_10:22:25,YZ,None,
,,,,,,calibration,0,27,2,19,16,J,0,right,0.4381427030002669,1,0,,,,,,,,,,,,,,,,,,,,,1,,,,,,,,,,,,,,,,,,,,,,,,,,,,,,,,,,,,,,,,,,,,,,58,153550,20,Female,1,2024/02/15_10:22:25,YZ,None,
,,,,,,calibration,0,27,2,19,17,N,0,right,0.48029983100059326,1,0,,,,,,,,,,,,,,,,,,,,,1,,,,,,,,,,,,,,,,,,,,,,,,,,,,,,,,,,,,,,,,,,,,,,58,153550,20,Female,1,2024/02/15_10:22:25,YZ,None,
,,,,,,calibration,0,27,2,19,18,J,1,left,0.6727183410002908,1,0,,,,,,,,,,,,,,,,,,,,,1,,,,,,,,,,,,,,,,,,,,,,,,,,,,,,,,,,,,,,,,,,,,,,58,153550,20,Female,1,2024/02/15_10:22:25,YZ,None,
,,,,,,calibration,0,27,2,19,19,Q,0,right,0.6599998780002352,1,0,,,,,,,,,,,,,,,,,,,,,1,,,,,,,,,,,,,,,,,,,,,,,,,,,,,,,,,,,,,,,,,,,,,,58,153550,20,Female,1,2024/02/15_10:22:25,YZ,None,
,,,,,,calibration,0,27,2,19,20,C,0,right,0.7574162620003335,1,0,,,,,,,,,,,,,,,,,,,,,1,,,,,,,,,,,,,,,,,,,,,,,,,,,,,,,,,,,,,,,,,,,,,,58,153550,20,Female,1,2024/02/15_10:22:25,YZ,None,
,,,,,,calibration,0,27,2,19,21,F,0,right,0.7930328980000922,1,0,,,,,,,,,,,,,,,,,,,,,1,,,,,,,,,,,,,,,,,,,,,,,,,,,,,,,,,,,,,,,,,,,,,,58,153550,20,Female,1,2024/02/15_10:22:25,YZ,None,
,,,,,,calibration,0,27,2,19,22,X,0,right,0.6822981410005013,1,0,,,,,,,,,,,,,,,,,,,,,1,,,,,,,,,,,,,,,,,,,,,,,,,,,,,,,,,,,,,,,,,,,,,,58,153550,20,Female,1,2024/02/15_10:22:25,YZ,None,
,,,,,,calibration,0,27,2,19,23,F,1,left,0.5918524859989702,1,0,,,,,,,,,,,,,,,,,,,,,1,,,,,,,,,,,,,,,,,,,,,,,,,,,,,,,,,,,,,,,,,,,,,,58,153550,20,Female,1,2024/02/15_10:22:25,YZ,None,
,,,,,,calibration,0,27,2,19,24,Q,0,right,0.5366164530005335,1,0,,,,,,,,,,,,,,,,,,,,,1,,,,,,,,,,,,,,,,,,,,,,,,,,,,,,,,,,,,,,,,,,,,,,58,153550,20,Female,1,2024/02/15_10:22:25,YZ,None,
,,,,,,calibration,0,27,2,19,25,V,0,right,0.5383173579994036,1,0,,,,,,,,,,,,,,,,,,,,,1,,,,,,,,,,,,,,,,,,,,,,,,,,,,,,,,,,,,,,,,,,,,,,58,153550,20,Female,1,2024/02/15_10:22:25,YZ,None,
,,,,,,calibration,0,27,2,19,26,J,0,right,0.6798103920009453,1,0,,,,,,,,,,,,,,,,,,,,,1,,,,,,,,,,,,,,,,,,,,,,,,,,,,,,,,,,,,,,,,,,,,,,58,153550,20,Female,1,2024/02/15_10:22:25,YZ,None,
,,,,,,calibration,0,27,2,19,,,,,,,,0.9642857142857143,0.8571428571428571,0.0,1.0,0.038461538461538464,0.9615384615384616,0.6517395244002546,6,0,0,1,1,18,24,7,19,0,,,,1,,,,,,,,,,,,,,,,,,,,,,,,,,,,,,,,,,,,,,,,,,,,,,58,153550,20,Female,1,2024/02/15_10:22:25,YZ,None,
,,,,,,Calibration,0,,2,19,,,,,,,,,,,,,,,,,,,,,,,,,14,,,1,,,,,,,,,,,,,,,,,,,,,,,,,,,,,,,,,,,,,,,,,,,,,,58,153550,20,Female,1,2024/02/15_10:22:25,YZ,None,
,,,,,,calibration,0,36,2,19,1,N,0,right,0.4961509750010009,1,0,,,,,,,,,,,,,,,,,,,,,1,,,,,,,,,,,,,,,,,,,,,,,,,,,,,,,,,,,,,,,,,,,,,,58,153550,20,Female,1,2024/02/15_10:22:25,YZ,None,
,,,,,,calibration,0,36,2,19,2,N,0,right,0.22387510900080088,1,0,,,,,,,,,,,,,,,,,,,,,1,,,,,,,,,,,,,,,,,,,,,,,,,,,,,,,,,,,,,,,,,,,,,,58,153550,20,Female,1,2024/02/15_10:22:25,YZ,None,
,,,,,,calibration,0,36,2,19,3,N,1,left,0.4523650989995076,1,0,,,,,,,,,,,,,,,,,,,,,1,,,,,,,,,,,,,,,,,,,,,,,,,,,,,,,,,,,,,,,,,,,,,,58,153550,20,Female,1,2024/02/15_10:22:25,YZ,None,
,,,,,,calibration,0,36,2,19,4,J,0,right,0.6356287969992991,1,0,,,,,,,,,,,,,,,,,,,,,1,,,,,,,,,,,,,,,,,,,,,,,,,,,,,,,,,,,,,,,,,,,,,,58,153550,20,Female,1,2024/02/15_10:22:25,YZ,None,
,,,,,,calibration,0,36,2,19,5,V,0,right,0.5639699950006616,1,0,,,,,,,,,,,,,,,,,,,,,1,,,,,,,,,,,,,,,,,,,,,,,,,,,,,,,,,,,,,,,,,,,,,,58,153550,20,Female,1,2024/02/15_10:22:25,YZ,None,
,,,,,,calibration,0,36,2,19,6,X,0,right,0.5238532080002187,1,0,,,,,,,,,,,,,,,,,,,,,1,,,,,,,,,,,,,,,,,,,,,,,,,,,,,,,,,,,,,,,,,,,,,,58,153550,20,Female,1,2024/02/15_10:22:25,YZ,None,
,,,,,,calibration,0,36,2,19,7,S,0,right,0.6811967159992491,1,0,,,,,,,,,,,,,,,,,,,,,1,,,,,,,,,,,,,,,,,,,,,,,,,,,,,,,,,,,,,,,,,,,,,,58,153550,20,Female,1,2024/02/15_10:22:25,YZ,None,
,,,,,,calibration,0,36,2,19,8,C,0,right,0.5911543060010445,1,0,,,,,,,,,,,,,,,,,,,,,1,,,,,,,,,,,,,,,,,,,,,,,,,,,,,,,,,,,,,,,,,,,,,,58,153550,20,Female,1,2024/02/15_10:22:25,YZ,None,
,,,,,,calibration,0,36,2,19,9,S,1,right,0.5867825750010525,0,0,,,,,,,,,,,,,,,,,,,,,1,,,,,,,,,,,,,,,,,,,,,,,,,,,,,,,,,,,,,,,,,,,,,,58,153550,20,Female,1,2024/02/15_10:22:25,YZ,None,
,,,,,,calibration,0,36,2,19,10,F,0,right,0.82171912999911,1,0,,,,,,,,,,,,,,,,,,,,,1,,,,,,,,,,,,,,,,,,,,,,,,,,,,,,,,,,,,,,,,,,,,,,58,153550,20,Female,1,2024/02/15_10:22:25,YZ,None,
,,,,,,calibration,0,36,2,19,11,N,0,right,0.7398755710000842,1,0,,,,,,,,,,,,,,,,,,,,,1,,,,,,,,,,,,,,,,,,,,,,,,,,,,,,,,,,,,,,,,,,,,,,58,153550,20,Female,1,2024/02/15_10:22:25,YZ,None,
,,,,,,calibration,0,36,2,19,12,F,1,left,0.6358016240010329,1,0,,,,,,,,,,,,,,,,,,,,,1,,,,,,,,,,,,,,,,,,,,,,,,,,,,,,,,,,,,,,,,,,,,,,58,153550,20,Female,1,2024/02/15_10:22:25,YZ,None,
,,,,,,calibration,0,36,2,19,13,C,0,right,0.835441549999814,1,0,,,,,,,,,,,,,,,,,,,,,1,,,,,,,,,,,,,,,,,,,,,,,,,,,,,,,,,,,,,,,,,,,,,,58,153550,20,Female,1,2024/02/15_10:22:25,YZ,None,
,,,,,,calibration,0,36,2,19,14,N,0,right,nan,0,1,,,,,,,,,,,,,,,,,,,,,1,,,,,,,,,,,,,,,,,,,,,,,,,,,,,,,,,,,,,,,,,,,,,,58,153550,20,Female,1,2024/02/15_10:22:25,YZ,None,
,,,,,,calibration,0,36,2,19,15,J,0,right,0.4232910130012897,1,0,,,,,,,,,,,,,,,,,,,,,1,,,,,,,,,,,,,,,,,,,,,,,,,,,,,,,,,,,,,,,,,,,,,,58,153550,20,Female,1,2024/02/15_10:22:25,YZ,None,
,,,,,,calibration,0,36,2,19,16,C,0,right,0.8816159739999421,1,0,,,,,,,,,,,,,,,,,,,,,1,,,,,,,,,,,,,,,,,,,,,,,,,,,,,,,,,,,,,,,,,,,,,,58,153550,20,Female,1,2024/02/15_10:22:25,YZ,None,
,,,,,,calibration,0,36,2,19,17,J,1,left,0.691077982999559,1,0,,,,,,,,,,,,,,,,,,,,,1,,,,,,,,,,,,,,,,,,,,,,,,,,,,,,,,,,,,,,,,,,,,,,58,153550,20,Female,1,2024/02/15_10:22:25,YZ,None,
,,,,,,calibration,0,36,2,19,18,Q,0,right,0.5704353850014741,1,0,,,,,,,,,,,,,,,,,,,,,1,,,,,,,,,,,,,,,,,,,,,,,,,,,,,,,,,,,,,,,,,,,,,,58,153550,20,Female,1,2024/02/15_10:22:25,YZ,None,
,,,,,,calibration,0,36,2,19,19,J,1,left,0.6468627979993471,1,0,,,,,,,,,,,,,,,,,,,,,1,,,,,,,,,,,,,,,,,,,,,,,,,,,,,,,,,,,,,,,,,,,,,,58,153550,20,Female,1,2024/02/15_10:22:25,YZ,None,
,,,,,,calibration,0,36,2,19,20,S,0,right,0.5123425159999897,1,0,,,,,,,,,,,,,,,,,,,,,1,,,,,,,,,,,,,,,,,,,,,,,,,,,,,,,,,,,,,,,,,,,,,,58,153550,20,Female,1,2024/02/15_10:22:25,YZ,None,
,,,,,,calibration,0,36,2,19,21,F,0,right,0.5772116930002085,1,0,,,,,,,,,,,,,,,,,,,,,1,,,,,,,,,,,,,,,,,,,,,,,,,,,,,,,,,,,,,,,,,,,,,,58,153550,20,Female,1,2024/02/15_10:22:25,YZ,None,
,,,,,,calibration,0,36,2,19,22,X,0,right,0.6205998069999623,1,0,,,,,,,,,,,,,,,,,,,,,1,,,,,,,,,,,,,,,,,,,,,,,,,,,,,,,,,,,,,,,,,,,,,,58,153550,20,Female,1,2024/02/15_10:22:25,YZ,None,
,,,,,,calibration,0,36,2,19,23,N,0,right,0.543917588000113,1,0,,,,,,,,,,,,,,,,,,,,,1,,,,,,,,,,,,,,,,,,,,,,,,,,,,,,,,,,,,,,,,,,,,,,58,153550,20,Female,1,2024/02/15_10:22:25,YZ,None,
,,,,,,calibration,0,36,2,19,24,X,1,right,nan,0,1,,,,,,,,,,,,,,,,,,,,,1,,,,,,,,,,,,,,,,,,,,,,,,,,,,,,,,,,,,,,,,,,,,,,58,153550,20,Female,1,2024/02/15_10:22:25,YZ,None,
,,,,,,calibration,0,36,2,19,25,N,1,right,nan,0,1,,,,,,,,,,,,,,,,,,,,,1,,,,,,,,,,,,,,,,,,,,,,,,,,,,,,,,,,,,,,,,,,,,,,58,153550,20,Female,1,2024/02/15_10:22:25,YZ,None,
,,,,,,calibration,0,36,2,19,26,S,0,right,0.5470505199991749,1,0,,,,,,,,,,,,,,,,,,,,,1,,,,,,,,,,,,,,,,,,,,,,,,,,,,,,,,,,,,,,,,,,,,,,58,153550,20,Female,1,2024/02/15_10:22:25,YZ,None,
,,,,,,calibration,0,36,2,19,,,,,,,,0.8928571428571428,0.5714285714285714,0.0,1.0,0.11538461538461539,0.8846153846153846,0.6000965187827798,4,0,2,1,3,18,22,7,19,0,,,,1,,,,,,,,,,,,,,,,,,,,,,,,,,,,,,,,,,,,,,,,,,,,,,58,153550,20,Female,1,2024/02/15_10:22:25,YZ,None,
,,,,,,Calibration,0,,2,19,,,,,,,,,,,,,,,,,,,,,,,,,15,,,1,,,,,,,,,,,,,,,,,,,,,,,,,,,,,,,,,,,,,,,,,,,,,,58,153550,20,Female,1,2024/02/15_10:22:25,YZ,None,
,,,,,,CALIBRATION,0,,,,,,,,,,,,,,,,,,,,,,,,,,,,15,0.8928571428571428,19,1,,,,,,,,,,,,,,,,,,,,,,,,,,,,,,,,,,,,,,,,,,,,,,58,153550,20,Female,1,2024/02/15_10:22:25,YZ,None,
1,./instructions/inst_prac_1/Slide24.png,right,6.5798727170003986,498.6211027929985,505.2009755099989,,,,,,,,,,,,,,,,,,,,,,,,,,,,,,,,,1,,,,,,,,,,,,,,,,,,,,,,,,,,,,,,,,,,,,,,,,,,,,,,58,153550,20,Female,1,2024/02/15_10:22:25,YZ,None,
2,./instructions/inst_prac_1/Slide25.png,right,2.926402662000328,505.2346106599998,508.16101332200014,,,,,,,,,,,,,,,,,,,,,,,,,,,,,,,,,1,,,,,,,,,,,,,,,,,,,,,,,,,,,,,,,,,,,,,,,,,,,,,,58,153550,20,Female,1,2024/02/15_10:22:25,YZ,None,
3,./instructions/inst_prac_1/Slide26.png,right,0.4549473639999633,508.1940608779987,508.6490082419987,,,,,,,,,,,,,,,,,,,,,,,,,,,,,,,,,1,,,,,,,,,,,,,,,,,,,,,,,,,,,,,,,,,,,,,,,,,,,,,,58,153550,20,Female,1,2024/02/15_10:22:25,YZ,None,
4,./instructions/inst_prac_1/Slide27.png,right,0.6813565299999027,508.6793830869992,509.3607396169991,,,,,,,,,,,,,,,,,,,,,,,,,,,,,,,,,1,,,,,,,,,,,,,,,,,,,,,,,,,,,,,,,,,,,,,,,,,,,,,,58,153550,20,Female,1,2024/02/15_10:22:25,YZ,None,
5,./instructions/inst_prac_1/Slide28.png,right,0.6624482970000827,509.39454922999903,510.0569975269991,,,,,,,,,,,,,,,,,,,,,,,,,,,,,,,,,1,,,,,,,,,,,,,,,,,,,,,,,,,,,,,,,,,,,,,,,,,,,,,,58,153550,20,Female,1,2024/02/15_10:22:25,YZ,None,
6,./instructions/inst_prac_1/Slide29.png,right,4.166616996000812,510.0903256719994,514.2569426680002,,,,,,,,,,,,,,,,,,,,,,,,,,,,,,,,,1,,,,,,,,,,,,,,,,,,,,,,,,,,,,,,,,,,,,,,,,,,,,,,58,153550,20,Female,1,2024/02/15_10:22:25,YZ,None,
7,./instructions/inst_prac_1/Slide30.png,right,3.4304580879997957,514.2904748009987,517.7209328889985,,,,,,,,,,,,,,,,,,,,,,,,,,,,,,,,,1,,,,,,,,,,,,,,,,,,,,,,,,,,,,,,,,,,,,,,,,,,,,,,58,153550,20,Female,1,2024/02/15_10:22:25,YZ,None,
,,,,,,practice,0,34,1,1250,1,F,0,right,1.2261919129996386,1,0,,,,,,,,,,,,,,,,,,,,,1,,,,,,,,,,,,,,,,,,,,,,,,,,,,,,,,,,,,,,,,,,,,,,58,153550,20,Female,1,2024/02/15_10:22:25,YZ,None,
,,,,,,practice,0,34,1,1250,2,F,1,left,0.7881658219994279,1,0,,,,,,,,,,,,,,,,,,,,,1,,,,,,,,,,,,,,,,,,,,,,,,,,,,,,,,,,,,,,,,,,,,,,58,153550,20,Female,1,2024/02/15_10:22:25,YZ,None,
,,,,,,practice,0,34,1,1250,3,C,0,right,0.7032668360006937,1,0,,,,,,,,,,,,,,,,,,,,,1,,,,,,,,,,,,,,,,,,,,,,,,,,,,,,,,,,,,,,,,,,,,,,58,153550,20,Female,1,2024/02/15_10:22:25,YZ,None,
,,,,,,practice,0,34,1,1250,4,F,0,right,0.8475498640000296,1,0,,,,,,,,,,,,,,,,,,,,,1,,,,,,,,,,,,,,,,,,,,,,,,,,,,,,,,,,,,,,,,,,,,,,58,153550,20,Female,1,2024/02/15_10:22:25,YZ,None,
,,,,,,practice,0,34,1,1250,5,C,0,right,0.8757375059994956,1,0,,,,,,,,,,,,,,,,,,,,,1,,,,,,,,,,,,,,,,,,,,,,,,,,,,,,,,,,,,,,,,,,,,,,58,153550,20,Female,1,2024/02/15_10:22:25,YZ,None,
,,,,,,practice,0,34,1,1250,6,C,1,left,0.748188604000461,1,0,,,,,,,,,,,,,,,,,,,,,1,,,,,,,,,,,,,,,,,,,,,,,,,,,,,,,,,,,,,,,,,,,,,,58,153550,20,Female,1,2024/02/15_10:22:25,YZ,None,
,,,,,,practice,0,34,1,1250,7,N,0,right,0.6989472109999042,1,0,,,,,,,,,,,,,,,,,,,,,1,,,,,,,,,,,,,,,,,,,,,,,,,,,,,,,,,,,,,,,,,,,,,,58,153550,20,Female,1,2024/02/15_10:22:25,YZ,None,
,,,,,,practice,0,34,1,1250,8,C,0,right,0.6981536349994713,1,0,,,,,,,,,,,,,,,,,,,,,1,,,,,,,,,,,,,,,,,,,,,,,,,,,,,,,,,,,,,,,,,,,,,,58,153550,20,Female,1,2024/02/15_10:22:25,YZ,None,
,,,,,,practice,0,34,1,1250,9,V,0,right,0.5624676499992347,1,0,,,,,,,,,,,,,,,,,,,,,1,,,,,,,,,,,,,,,,,,,,,,,,,,,,,,,,,,,,,,,,,,,,,,58,153550,20,Female,1,2024/02/15_10:22:25,YZ,None,
,,,,,,practice,0,34,1,1250,10,V,1,left,0.6890469030004169,1,0,,,,,,,,,,,,,,,,,,,,,1,,,,,,,,,,,,,,,,,,,,,,,,,,,,,,,,,,,,,,,,,,,,,,58,153550,20,Female,1,2024/02/15_10:22:25,YZ,None,
,,,,,,practice,0,34,1,1250,,,,,,,,1.0,1.0,0.0,1.0,0.0,1.0,0.7837715943998773,3,0,0,0,0,7,10,3,7,0,,,,1,,,,,,,,,,,,,,,,,,,,,,,,,,,,,,,,,,,,,,,,,,,,,,58,153550,20,Female,1,2024/02/15_10:22:25,YZ,None,
1,./instructions/inst_prac_1_next/Slide35.png,right,2.126833596999859,536.0820059599992,538.208839556999,,,,,,,,,,,,,,,,,,,,,,,,,,,,,,,,,1,,,,,,,,,,,,,,,,,,,,,,,,,,,,,,,,,,,,,,,,,,,,,,58,153550,20,Female,1,2024/02/15_10:22:25,YZ,None,
,,,,,,practice,0,35,1,19,1,Q,0,right,0.5904069339994749,1,0,,,,,,,,,,,,,,,,,,,,,1,,,,,,,,,,,,,,,,,,,,,,,,,,,,,,,,,,,,,,,,,,,,,,58,153550,20,Female,1,2024/02/15_10:22:25,YZ,None,
,,,,,,practice,0,35,1,19,2,Q,1,left,0.46023445499849913,1,0,,,,,,,,,,,,,,,,,,,,,1,,,,,,,,,,,,,,,,,,,,,,,,,,,,,,,,,,,,,,,,,,,,,,58,153550,20,Female,1,2024/02/15_10:22:25,YZ,None,
,,,,,,practice,0,35,1,19,3,F,0,right,0.4495208919997822,1,0,,,,,,,,,,,,,,,,,,,,,1,,,,,,,,,,,,,,,,,,,,,,,,,,,,,,,,,,,,,,,,,,,,,,58,153550,20,Female,1,2024/02/15_10:22:25,YZ,None,
,,,,,,practice,0,35,1,19,4,V,0,right,0.4178681540015532,1,0,,,,,,,,,,,,,,,,,,,,,1,,,,,,,,,,,,,,,,,,,,,,,,,,,,,,,,,,,,,,,,,,,,,,58,153550,20,Female,1,2024/02/15_10:22:25,YZ,None,
,,,,,,practice,0,35,1,19,5,V,1,left,0.5003107970005658,1,0,,,,,,,,,,,,,,,,,,,,,1,,,,,,,,,,,,,,,,,,,,,,,,,,,,,,,,,,,,,,,,,,,,,,58,153550,20,Female,1,2024/02/15_10:22:25,YZ,None,
,,,,,,practice,0,35,1,19,6,N,0,right,0.3920575390002341,1,0,,,,,,,,,,,,,,,,,,,,,1,,,,,,,,,,,,,,,,,,,,,,,,,,,,,,,,,,,,,,,,,,,,,,58,153550,20,Female,1,2024/02/15_10:22:25,YZ,None,
,,,,,,practice,0,35,1,19,7,J,0,right,0.4796691169995029,1,0,,,,,,,,,,,,,,,,,,,,,1,,,,,,,,,,,,,,,,,,,,,,,,,,,,,,,,,,,,,,,,,,,,,,58,153550,20,Female,1,2024/02/15_10:22:25,YZ,None,
,,,,,,practice,0,35,1,19,8,J,1,left,0.5399220630006312,1,0,,,,,,,,,,,,,,,,,,,,,1,,,,,,,,,,,,,,,,,,,,,,,,,,,,,,,,,,,,,,,,,,,,,,58,153550,20,Female,1,2024/02/15_10:22:25,YZ,None,
,,,,,,practice,0,35,1,19,9,X,0,right,0.4456681199990271,1,0,,,,,,,,,,,,,,,,,,,,,1,,,,,,,,,,,,,,,,,,,,,,,,,,,,,,,,,,,,,,,,,,,,,,58,153550,20,Female,1,2024/02/15_10:22:25,YZ,None,
,,,,,,practice,0,35,1,19,10,N,0,right,0.4564863920004427,1,0,,,,,,,,,,,,,,,,,,,,,1,,,,,,,,,,,,,,,,,,,,,,,,,,,,,,,,,,,,,,,,,,,,,,58,153550,20,Female,1,2024/02/15_10:22:25,YZ,None,
,,,,,,practice,0,35,1,19,11,N,1,left,0.41766248299973086,1,0,,,,,,,,,,,,,,,,,,,,,1,,,,,,,,,,,,,,,,,,,,,,,,,,,,,,,,,,,,,,,,,,,,,,58,153550,20,Female,1,2024/02/15_10:22:25,YZ,None,
,,,,,,practice,0,35,1,19,12,S,0,right,0.39960827700087975,1,0,,,,,,,,,,,,,,,,,,,,,1,,,,,,,,,,,,,,,,,,,,,,,,,,,,,,,,,,,,,,,,,,,,,,58,153550,20,Female,1,2024/02/15_10:22:25,YZ,None,
,,,,,,practice,0,35,1,19,13,S,1,left,0.45273611599986907,1,0,,,,,,,,,,,,,,,,,,,,,1,,,,,,,,,,,,,,,,,,,,,,,,,,,,,,,,,,,,,,,,,,,,,,58,153550,20,Female,1,2024/02/15_10:22:25,YZ,None,
,,,,,,practice,0,35,1,19,14,F,0,right,0.45485885800007964,1,0,,,,,,,,,,,,,,,,,,,,,1,,,,,,,,,,,,,,,,,,,,,,,,,,,,,,,,,,,,,,,,,,,,,,58,153550,20,Female,1,2024/02/15_10:22:25,YZ,None,
,,,,,,practice,0,35,1,19,15,J,0,right,0.6952361059993564,1,0,,,,,,,,,,,,,,,,,,,,,1,,,,,,,,,,,,,,,,,,,,,,,,,,,,,,,,,,,,,,,,,,,,,,58,153550,20,Female,1,2024/02/15_10:22:25,YZ,None,
,,,,,,practice,0,35,1,19,16,J,1,left,0.5488334349993238,1,0,,,,,,,,,,,,,,,,,,,,,1,,,,,,,,,,,,,,,,,,,,,,,,,,,,,,,,,,,,,,,,,,,,,,58,153550,20,Female,1,2024/02/15_10:22:25,YZ,None,
,,,,,,practice,0,35,1,19,17,C,0,right,0.4759489600000961,1,0,,,,,,,,,,,,,,,,,,,,,1,,,,,,,,,,,,,,,,,,,,,,,,,,,,,,,,,,,,,,,,,,,,,,58,153550,20,Female,1,2024/02/15_10:22:25,YZ,None,
,,,,,,practice,0,35,1,19,18,X,0,right,0.5325206720008282,1,0,,,,,,,,,,,,,,,,,,,,,1,,,,,,,,,,,,,,,,,,,,,,,,,,,,,,,,,,,,,,,,,,,,,,58,153550,20,Female,1,2024/02/15_10:22:25,YZ,None,
,,,,,,practice,0,35,1,19,19,X,1,left,0.7028053310004907,1,0,,,,,,,,,,,,,,,,,,,,,1,,,,,,,,,,,,,,,,,,,,,,,,,,,,,,,,,,,,,,,,,,,,,,58,153550,20,Female,1,2024/02/15_10:22:25,YZ,None,
,,,,,,practice,0,35,1,19,20,N,0,right,0.43842797800061817,1,0,,,,,,,,,,,,,,,,,,,,,1,,,,,,,,,,,,,,,,,,,,,,,,,,,,,,,,,,,,,,,,,,,,,,58,153550,20,Female,1,2024/02/15_10:22:25,YZ,None,
,,,,,,practice,0,35,1,19,21,S,0,right,0.5590750629999093,1,0,,,,,,,,,,,,,,,,,,,,,1,,,,,,,,,,,,,,,,,,,,,,,,,,,,,,,,,,,,,,,,,,,,,,58,153550,20,Female,1,2024/02/15_10:22:25,YZ,None,
,,,,,,practice,0,35,1,19,22,C,0,right,0.6690879110010428,1,0,,,,,,,,,,,,,,,,,,,,,1,,,,,,,,,,,,,,,,,,,,,,,,,,,,,,,,,,,,,,,,,,,,,,58,153550,20,Female,1,2024/02/15_10:22:25,YZ,None,
,,,,,,practice,0,35,1,19,23,V,0,right,0.5640824609999981,1,0,,,,,,,,,,,,,,,,,,,,,1,,,,,,,,,,,,,,,,,,,,,,,,,,,,,,,,,,,,,,,,,,,,,,58,153550,20,Female,1,2024/02/15_10:22:25,YZ,None,
,,,,,,practice,0,35,1,19,24,V,1,left,0.4252324999997654,1,0,,,,,,,,,,,,,,,,,,,,,1,,,,,,,,,,,,,,,,,,,,,,,,,,,,,,,,,,,,,,,,,,,,,,58,153550,20,Female,1,2024/02/15_10:22:25,YZ,None,
,,,,,,practice,0,35,1,19,25,Q,0,right,0.5804887499998586,1,0,,,,,,,,,,,,,,,,,,,,,1,,,,,,,,,,,,,,,,,,,,,,,,,,,,,,,,,,,,,,,,,,,,,,58,153550,20,Female,1,2024/02/15_10:22:25,YZ,None,
,,,,,,practice,0,35,1,19,26,S,0,right,0.3641658639990055,1,0,,,,,,,,,,,,,,,,,,,,,1,,,,,,,,,,,,,,,,,,,,,,,,,,,,,,,,,,,,,,,,,,,,,,58,153550,20,Female,1,2024/02/15_10:22:25,YZ,None,
,,,,,,practice,0,35,1,19,,,,,,,,1.0,1.0,0.0,1.0,0.0,1.0,0.5004967395384833,8,0,0,0,0,18,26,8,18,0,,,,1,,,,,,,,,,,,,,,,,,,,,,,,,,,,,,,,,,,,,,,,,,,,,,58,153550,20,Female,1,2024/02/15_10:22:25,YZ,None,
,,,,,,practice,0,27,1,19,1,V,0,right,0.6767198830002599,1,0,,,,,,,,,,,,,,,,,,,,,1,,,,,,,,,,,,,,,,,,,,,,,,,,,,,,,,,,,,,,,,,,,,,,58,153550,20,Female,1,2024/02/15_10:22:25,YZ,None,
,,,,,,practice,0,27,1,19,2,S,0,right,0.545663943999898,1,0,,,,,,,,,,,,,,,,,,,,,1,,,,,,,,,,,,,,,,,,,,,,,,,,,,,,,,,,,,,,,,,,,,,,58,153550,20,Female,1,2024/02/15_10:22:25,YZ,None,
,,,,,,practice,0,27,1,19,3,S,1,left,0.38036048299909453,1,0,,,,,,,,,,,,,,,,,,,,,1,,,,,,,,,,,,,,,,,,,,,,,,,,,,,,,,,,,,,,,,,,,,,,58,153550,20,Female,1,2024/02/15_10:22:25,YZ,None,
,,,,,,practice,0,27,1,19,4,V,0,right,0.39990614099951927,1,0,,,,,,,,,,,,,,,,,,,,,1,,,,,,,,,,,,,,,,,,,,,,,,,,,,,,,,,,,,,,,,,,,,,,58,153550,20,Female,1,2024/02/15_10:22:25,YZ,None,
,,,,,,practice,0,27,1,19,5,V,1,left,0.5483026230012911,1,0,,,,,,,,,,,,,,,,,,,,,1,,,,,,,,,,,,,,,,,,,,,,,,,,,,,,,,,,,,,,,,,,,,,,58,153550,20,Female,1,2024/02/15_10:22:25,YZ,None,
,,,,,,practice,0,27,1,19,6,J,0,right,0.49996642299993255,1,0,,,,,,,,,,,,,,,,,,,,,1,,,,,,,,,,,,,,,,,,,,,,,,,,,,,,,,,,,,,,,,,,,,,,58,153550,20,Female,1,2024/02/15_10:22:25,YZ,None,
,,,,,,practice,0,27,1,19,7,N,0,right,0.5414480690014898,1,0,,,,,,,,,,,,,,,,,,,,,1,,,,,,,,,,,,,,,,,,,,,,,,,,,,,,,,,,,,,,,,,,,,,,58,153550,20,Female,1,2024/02/15_10:22:25,YZ,None,
,,,,,,practice,0,27,1,19,8,F,0,right,0.38063329000033264,1,0,,,,,,,,,,,,,,,,,,,,,1,,,,,,,,,,,,,,,,,,,,,,,,,,,,,,,,,,,,,,,,,,,,,,58,153550,20,Female,1,2024/02/15_10:22:25,YZ,None,
,,,,,,practice,0,27,1,19,9,F,1,left,0.6575731320008344,1,0,,,,,,,,,,,,,,,,,,,,,1,,,,,,,,,,,,,,,,,,,,,,,,,,,,,,,,,,,,,,,,,,,,,,58,153550,20,Female,1,2024/02/15_10:22:25,YZ,None,
,,,,,,practice,0,27,1,19,10,X,0,right,0.3720456049995846,1,0,,,,,,,,,,,,,,,,,,,,,1,,,,,,,,,,,,,,,,,,,,,,,,,,,,,,,,,,,,,,,,,,,,,,58,153550,20,Female,1,2024/02/15_10:22:25,YZ,None,
,,,,,,practice,0,27,1,19,11,X,1,left,0.46836608800003887,1,0,,,,,,,,,,,,,,,,,,,,,1,,,,,,,,,,,,,,,,,,,,,,,,,,,,,,,,,,,,,,,,,,,,,,58,153550,20,Female,1,2024/02/15_10:22:25,YZ,None,
,,,,,,practice,0,27,1,19,12,N,0,right,0.4311694759999227,1,0,,,,,,,,,,,,,,,,,,,,,1,,,,,,,,,,,,,,,,,,,,,,,,,,,,,,,,,,,,,,,,,,,,,,58,153550,20,Female,1,2024/02/15_10:22:25,YZ,None,
,,,,,,practice,0,27,1,19,13,J,0,right,0.4207091270000092,1,0,,,,,,,,,,,,,,,,,,,,,1,,,,,,,,,,,,,,,,,,,,,,,,,,,,,,,,,,,,,,,,,,,,,,58,153550,20,Female,1,2024/02/15_10:22:25,YZ,None,
,,,,,,practice,0,27,1,19,14,N,0,right,0.5031806850001885,1,0,,,,,,,,,,,,,,,,,,,,,1,,,,,,,,,,,,,,,,,,,,,,,,,,,,,,,,,,,,,,,,,,,,,,58,153550,20,Female,1,2024/02/15_10:22:25,YZ,None,
,,,,,,practice,0,27,1,19,15,N,1,left,0.6127440820000629,1,0,,,,,,,,,,,,,,,,,,,,,1,,,,,,,,,,,,,,,,,,,,,,,,,,,,,,,,,,,,,,,,,,,,,,58,153550,20,Female,1,2024/02/15_10:22:25,YZ,None,
,,,,,,practice,0,27,1,19,16,C,0,right,0.4766019269991375,1,0,,,,,,,,,,,,,,,,,,,,,1,,,,,,,,,,,,,,,,,,,,,,,,,,,,,,,,,,,,,,,,,,,,,,58,153550,20,Female,1,2024/02/15_10:22:25,YZ,None,
,,,,,,practice,0,27,1,19,17,S,0,right,0.5246751930008031,1,0,,,,,,,,,,,,,,,,,,,,,1,,,,,,,,,,,,,,,,,,,,,,,,,,,,,,,,,,,,,,,,,,,,,,58,153550,20,Female,1,2024/02/15_10:22:25,YZ,None,
,,,,,,practice,0,27,1,19,18,J,0,right,0.7159883209988038,1,0,,,,,,,,,,,,,,,,,,,,,1,,,,,,,,,,,,,,,,,,,,,,,,,,,,,,,,,,,,,,,,,,,,,,58,153550,20,Female,1,2024/02/15_10:22:25,YZ,None,
,,,,,,practice,0,27,1,19,19,S,0,right,0.45241372900090937,1,0,,,,,,,,,,,,,,,,,,,,,1,,,,,,,,,,,,,,,,,,,,,,,,,,,,,,,,,,,,,,,,,,,,,,58,153550,20,Female,1,2024/02/15_10:22:25,YZ,None,
,,,,,,practice,0,27,1,19,20,X,0,right,0.5768087239994202,1,0,,,,,,,,,,,,,,,,,,,,,1,,,,,,,,,,,,,,,,,,,,,,,,,,,,,,,,,,,,,,,,,,,,,,58,153550,20,Female,1,2024/02/15_10:22:25,YZ,None,
,,,,,,practice,0,27,1,19,21,C,0,right,0.47614881899971806,1,0,,,,,,,,,,,,,,,,,,,,,1,,,,,,,,,,,,,,,,,,,,,,,,,,,,,,,,,,,,,,,,,,,,,,58,153550,20,Female,1,2024/02/15_10:22:25,YZ,None,
,,,,,,practice,0,27,1,19,22,S,0,right,0.5300336150012299,1,0,,,,,,,,,,,,,,,,,,,,,1,,,,,,,,,,,,,,,,,,,,,,,,,,,,,,,,,,,,,,,,,,,,,,58,153550,20,Female,1,2024/02/15_10:22:25,YZ,None,
,,,,,,practice,0,27,1,19,23,S,1,left,0.38829738099957467,1,0,,,,,,,,,,,,,,,,,,,,,1,,,,,,,,,,,,,,,,,,,,,,,,,,,,,,,,,,,,,,,,,,,,,,58,153550,20,Female,1,2024/02/15_10:22:25,YZ,None,
,,,,,,practice,0,27,1,19,24,C,0,right,0.48107533100119326,1,0,,,,,,,,,,,,,,,,,,,,,1,,,,,,,,,,,,,,,,,,,,,,,,,,,,,,,,,,,,,,,,,,,,,,58,153550,20,Female,1,2024/02/15_10:22:25,YZ,None,
,,,,,,practice,0,27,1,19,25,C,1,right,0.5063202620003722,0,0,,,,,,,,,,,,,,,,,,,,,1,,,,,,,,,,,,,,,,,,,,,,,,,,,,,,,,,,,,,,,,,,,,,,58,153550,20,Female,1,2024/02/15_10:22:25,YZ,None,
,,,,,,practice,0,27,1,19,26,N,0,right,0.9578969399990456,1,0,,,,,,,,,,,,,,,,,,,,,1,,,,,,,,,,,,,,,,,,,,,,,,,,,,,,,,,,,,,,,,,,,,,,58,153550,20,Female,1,2024/02/15_10:22:25,YZ,None,
,,,,,,practice,0,27,1,19,,,,,,,,0.9642857142857143,0.8571428571428571,0.0,1.0,0.0,1.0,0.5201942035770256,6,0,0,0,0,19,25,7,19,0,,,,1,,,,,,,,,,,,,,,,,,,,,,,,,,,,,,,,,,,,,,,,,,,,,,58,153550,20,Female,1,2024/02/15_10:22:25,YZ,None,
1,./instructions/inst_prac_3/Slide37.png,right,6.626203967000038,596.1267008639988,602.7529048309989,,,,,,,,,,,,,,,,,,,,,,,,,,,,,,,,,1,,,,,,,,,,,,,,,,,,,,,,,,,,,,,,,,,,,,,,,,,,,,,,58,153550,20,Female,1,2024/02/15_10:22:25,YZ,None,
2,./instructions/inst_prac_3/Slide38.png,right,1.7027624509992165,602.7861260999998,604.488888550999,,,,,,,,,,,,,,,,,,,,,,,,,,,,,,,,,1,,,,,,,,,,,,,,,,,,,,,,,,,,,,,,,,,,,,,,,,,,,,,,58,153550,20,Female,1,2024/02/15_10:22:25,YZ,None,
3,./instructions/inst_prac_3/Slide39.png,right,0.7590708160005306,604.5219001429996,605.2809709590001,,,,,,,,,,,,,,,,,,,,,,,,,,,,,,,,,1,,,,,,,,,,,,,,,,,,,,,,,,,,,,,,,,,,,,,,,,,,,,,,58,153550,20,Female,1,2024/02/15_10:22:25,YZ,None,
4,./instructions/inst_prac_3/Slide40.png,right,2.999047920000521,605.3140183529995,608.313066273,,,,,,,,,,,,,,,,,,,,,,,,,,,,,,,,,1,,,,,,,,,,,,,,,,,,,,,,,,,,,,,,,,,,,,,,,,,,,,,,58,153550,20,Female,1,2024/02/15_10:22:25,YZ,None,
5,./instructions/inst_prac_3/Slide41.png,right,2.470994610001071,608.3459969019987,610.8169915119997,,,,,,,,,,,,,,,,,,,,,,,,,,,,,,,,,1,,,,,,,,,,,,,,,,,,,,,,,,,,,,,,,,,,,,,,,,,,,,,,58,153550,20,Female,1,2024/02/15_10:22:25,YZ,None,
6,./instructions/inst_prac_3/Slide42.png,right,13.998937811998985,610.8498932120001,624.8488310239991,,,,,,,,,,,,,,,,,,,,,,,,,,,,,,,,,1,,,,,,,,,,,,,,,,,,,,,,,,,,,,,,,,,,,,,,,,,,,,,,58,153550,20,Female,1,2024/02/15_10:22:25,YZ,None,
7,./instructions/inst_prac_3/Slide43.png,right,2.7047650159984187,624.880303504,627.5850685199985,,,,,,,,,,,,,,,,,,,,,,,,,,,,,,,,,1,,,,,,,,,,,,,,,,,,,,,,,,,,,,,,,,,,,,,,,,,,,,,,58,153550,20,Female,1,2024/02/15_10:22:25,YZ,None,
8,./instructions/inst_prac_3/Slide44.png,right,2.21721640099895,627.6156397089999,629.8328561099988,,,,,,,,,,,,,,,,,,,,,,,,,,,,,,,,,1,,,,,,,,,,,,,,,,,,,,,,,,,,,,,,,,,,,,,,,,,,,,,,58,153550,20,Female,1,2024/02/15_10:22:25,YZ,None,
,,,,,,practice,0,14,3,788,1,V,0,right,0.9160047229997872,1,0,,,,,,,,,,,,,,,,,,,,,1,,,,,,,,,,,,,,,,,,,,,,,,,,,,,,,,,,,,,,,,,,,,,,58,153550,20,Female,1,2024/02/15_10:22:25,YZ,None,
,,,,,,practice,0,14,3,788,2,N,0,right,0.7403241499996511,1,0,,,,,,,,,,,,,,,,,,,,,1,,,,,,,,,,,,,,,,,,,,,,,,,,,,,,,,,,,,,,,,,,,,,,58,153550,20,Female,1,2024/02/15_10:22:25,YZ,None,
,,,,,,practice,0,14,3,788,3,X,0,right,0.8674277889986115,1,0,,,,,,,,,,,,,,,,,,,,,1,,,,,,,,,,,,,,,,,,,,,,,,,,,,,,,,,,,,,,,,,,,,,,58,153550,20,Female,1,2024/02/15_10:22:25,YZ,None,
,,,,,,practice,0,14,3,788,4,S,0,right,0.6372609340014606,1,0,,,,,,,,,,,,,,,,,,,,,1,,,,,,,,,,,,,,,,,,,,,,,,,,,,,,,,,,,,,,,,,,,,,,58,153550,20,Female,1,2024/02/15_10:22:25,YZ,None,
,,,,,,practice,0,14,3,788,5,S,0,right,1.6650182979992678,1,0,,,,,,,,,,,,,,,,,,,,,1,,,,,,,,,,,,,,,,,,,,,,,,,,,,,,,,,,,,,,,,,,,,,,58,153550,20,Female,1,2024/02/15_10:22:25,YZ,None,
,,,,,,practice,0,14,3,788,6,N,0,right,0.8834423710013652,1,0,,,,,,,,,,,,,,,,,,,,,1,,,,,,,,,,,,,,,,,,,,,,,,,,,,,,,,,,,,,,,,,,,,,,58,153550,20,Female,1,2024/02/15_10:22:25,YZ,None,
,,,,,,practice,0,14,3,788,7,N,0,right,1.0369656000002578,1,0,,,,,,,,,,,,,,,,,,,,,1,,,,,,,,,,,,,,,,,,,,,,,,,,,,,,,,,,,,,,,,,,,,,,58,153550,20,Female,1,2024/02/15_10:22:25,YZ,None,
,,,,,,practice,0,14,3,788,8,S,1,left,0.5745017520002875,1,0,,,,,,,,,,,,,,,,,,,,,1,,,,,,,,,,,,,,,,,,,,,,,,,,,,,,,,,,,,,,,,,,,,,,58,153550,20,Female,1,2024/02/15_10:22:25,YZ,None,
,,,,,,practice,0,14,3,788,9,N,1,left,1.003474234999885,1,0,,,,,,,,,,,,,,,,,,,,,1,,,,,,,,,,,,,,,,,,,,,,,,,,,,,,,,,,,,,,,,,,,,,,58,153550,20,Female,1,2024/02/15_10:22:25,YZ,None,
,,,,,,practice,0,14,3,788,10,S,0,right,1.4198250200006441,1,0,,,,,,,,,,,,,,,,,,,,,1,,,,,,,,,,,,,,,,,,,,,,,,,,,,,,,,,,,,,,,,,,,,,,58,153550,20,Female,1,2024/02/15_10:22:25,YZ,None,
,,,,,,practice,0,14,3,788,11,Q,0,right,0.7164904860001116,1,0,,,,,,,,,,,,,,,,,,,,,1,,,,,,,,,,,,,,,,,,,,,,,,,,,,,,,,,,,,,,,,,,,,,,58,153550,20,Female,1,2024/02/15_10:22:25,YZ,None,
,,,,,,practice,0,14,3,788,12,N,1,left,1.057393769000555,1,0,,,,,,,,,,,,,,,,,,,,,1,,,,,,,,,,,,,,,,,,,,,,,,,,,,,,,,,,,,,,,,,,,,,,58,153550,20,Female,1,2024/02/15_10:22:25,YZ,None,
,,,,,,practice,0,14,3,788,13,S,1,left,1.5426418320002995,1,0,,,,,,,,,,,,,,,,,,,,,1,,,,,,,,,,,,,,,,,,,,,,,,,,,,,,,,,,,,,,,,,,,,,,58,153550,20,Female,1,2024/02/15_10:22:25,YZ,None,
,,,,,,practice,0,14,3,788,,,,,,,,1.0,1.0,0.0,1.0,0.0,1.0,1.0046746891540141,4,0,0,0,0,9,13,4,9,0,,,,1,,,,,,,,,,,,,,,,,,,,,,,,,,,,,,,,,,,,,,,,,,,,,,58,153550,20,Female,1,2024/02/15_10:22:25,YZ,None,
1,./instructions/inst_prac_3_next/Slide49.png,right,17.53946617300062,656.5813991119994,674.120865285,,,,,,,,,,,,,,,,,,,,,,,,,,,,,,,,,1,,,,,,,,,,,,,,,,,,,,,,,,,,,,,,,,,,,,,,,,,,,,,,58,153550,20,Female,1,2024/02/15_10:22:25,YZ,None,
,,,,,,practice,0,20,3,19,1,F,0,right,0.8115826459998061,1,0,,,,,,,,,,,,,,,,,,,,,1,,,,,,,,,,,,,,,,,,,,,,,,,,,,,,,,,,,,,,,,,,,,,,58,153550,20,Female,1,2024/02/15_10:22:25,YZ,None,
,,,,,,practice,0,20,3,19,2,C,0,right,0.6364123870007461,1,0,,,,,,,,,,,,,,,,,,,,,1,,,,,,,,,,,,,,,,,,,,,,,,,,,,,,,,,,,,,,,,,,,,,,58,153550,20,Female,1,2024/02/15_10:22:25,YZ,None,
,,,,,,practice,0,20,3,19,3,J,0,right,0.9337333040002704,1,0,,,,,,,,,,,,,,,,,,,,,1,,,,,,,,,,,,,,,,,,,,,,,,,,,,,,,,,,,,,,,,,,,,,,58,153550,20,Female,1,2024/02/15_10:22:25,YZ,None,
,,,,,,practice,0,20,3,19,4,J,0,right,0.8590987779989518,1,0,,,,,,,,,,,,,,,,,,,,,1,,,,,,,,,,,,,,,,,,,,,,,,,,,,,,,,,,,,,,,,,,,,,,58,153550,20,Female,1,2024/02/15_10:22:25,YZ,None,
,,,,,,practice,0,20,3,19,5,X,0,right,1.0763036429998465,1,0,,,,,,,,,,,,,,,,,,,,,1,,,,,,,,,,,,,,,,,,,,,,,,,,,,,,,,,,,,,,,,,,,,,,58,153550,20,Female,1,2024/02/15_10:22:25,YZ,None,
,,,,,,practice,0,20,3,19,6,Q,0,right,0.8330059069994604,1,0,,,,,,,,,,,,,,,,,,,,,1,,,,,,,,,,,,,,,,,,,,,,,,,,,,,,,,,,,,,,,,,,,,,,58,153550,20,Female,1,2024/02/15_10:22:25,YZ,None,
,,,,,,practice,0,20,3,19,7,J,1,left,0.655938096000682,1,0,,,,,,,,,,,,,,,,,,,,,1,,,,,,,,,,,,,,,,,,,,,,,,,,,,,,,,,,,,,,,,,,,,,,58,153550,20,Female,1,2024/02/15_10:22:25,YZ,None,
,,,,,,practice,0,20,3,19,8,X,1,left,1.1880426770003396,1,0,,,,,,,,,,,,,,,,,,,,,1,,,,,,,,,,,,,,,,,,,,,,,,,,,,,,,,,,,,,,,,,,,,,,58,153550,20,Female,1,2024/02/15_10:22:25,YZ,None,
,,,,,,practice,0,20,3,19,9,C,0,right,0.8765741490005894,1,0,,,,,,,,,,,,,,,,,,,,,1,,,,,,,,,,,,,,,,,,,,,,,,,,,,,,,,,,,,,,,,,,,,,,58,153550,20,Female,1,2024/02/15_10:22:25,YZ,None,
,,,,,,practice,0,20,3,19,10,V,0,right,1.3807718339994608,1,0,,,,,,,,,,,,,,,,,,,,,1,,,,,,,,,,,,,,,,,,,,,,,,,,,,,,,,,,,,,,,,,,,,,,58,153550,20,Female,1,2024/02/15_10:22:25,YZ,None,
,,,,,,practice,0,20,3,19,11,F,0,right,1.1166392240011191,1,0,,,,,,,,,,,,,,,,,,,,,1,,,,,,,,,,,,,,,,,,,,,,,,,,,,,,,,,,,,,,,,,,,,,,58,153550,20,Female,1,2024/02/15_10:22:25,YZ,None,
,,,,,,practice,0,20,3,19,12,C,1,left,1.6157408240014774,1,0,,,,,,,,,,,,,,,,,,,,,1,,,,,,,,,,,,,,,,,,,,,,,,,,,,,,,,,,,,,,,,,,,,,,58,153550,20,Female,1,2024/02/15_10:22:25,YZ,None,
,,,,,,practice,0,20,3,19,13,Q,0,right,1.8284031839993986,1,0,,,,,,,,,,,,,,,,,,,,,1,,,,,,,,,,,,,,,,,,,,,,,,,,,,,,,,,,,,,,,,,,,,,,58,153550,20,Female,1,2024/02/15_10:22:25,YZ,None,
,,,,,,practice,0,20,3,19,14,N,0,right,1.6114475229987875,1,0,,,,,,,,,,,,,,,,,,,,,1,,,,,,,,,,,,,,,,,,,,,,,,,,,,,,,,,,,,,,,,,,,,,,58,153550,20,Female,1,2024/02/15_10:22:25,YZ,None,
,,,,,,practice,0,20,3,19,15,J,0,right,2.8522401430000173,1,0,,,,,,,,,,,,,,,,,,,,,1,,,,,,,,,,,,,,,,,,,,,,,,,,,,,,,,,,,,,,,,,,,,,,58,153550,20,Female,1,2024/02/15_10:22:25,YZ,None,
,,,,,,practice,0,20,3,19,16,Q,1,left,2.3193658319996757,1,0,,,,,,,,,,,,,,,,,,,,,1,,,,,,,,,,,,,,,,,,,,,,,,,,,,,,,,,,,,,,,,,,,,,,58,153550,20,Female,1,2024/02/15_10:22:25,YZ,None,
,,,,,,practice,0,20,3,19,17,F,0,right,1.6361656230001245,1,0,,,,,,,,,,,,,,,,,,,,,1,,,,,,,,,,,,,,,,,,,,,,,,,,,,,,,,,,,,,,,,,,,,,,58,153550,20,Female,1,2024/02/15_10:22:25,YZ,None,
,,,,,,practice,0,20,3,19,18,X,0,right,1.2318070080000325,1,0,,,,,,,,,,,,,,,,,,,,,1,,,,,,,,,,,,,,,,,,,,,,,,,,,,,,,,,,,,,,,,,,,,,,58,153550,20,Female,1,2024/02/15_10:22:25,YZ,None,
,,,,,,practice,0,20,3,19,19,X,0,right,1.8426979449995997,1,0,,,,,,,,,,,,,,,,,,,,,1,,,,,,,,,,,,,,,,,,,,,,,,,,,,,,,,,,,,,,,,,,,,,,58,153550,20,Female,1,2024/02/15_10:22:25,YZ,None,
,,,,,,practice,0,20,3,19,20,F,1,left,1.3389621269998315,1,0,,,,,,,,,,,,,,,,,,,,,1,,,,,,,,,,,,,,,,,,,,,,,,,,,,,,,,,,,,,,,,,,,,,,58,153550,20,Female,1,2024/02/15_10:22:25,YZ,None,
,,,,,,practice,0,20,3,19,21,Q,0,right,3.4600665960006154,1,0,,,,,,,,,,,,,,,,,,,,,1,,,,,,,,,,,,,,,,,,,,,,,,,,,,,,,,,,,,,,,,,,,,,,58,153550,20,Female,1,2024/02/15_10:22:25,YZ,None,
,,,,,,practice,0,20,3,19,22,X,1,left,1.0175505639999756,1,0,,,,,,,,,,,,,,,,,,,,,1,,,,,,,,,,,,,,,,,,,,,,,,,,,,,,,,,,,,,,,,,,,,,,58,153550,20,Female,1,2024/02/15_10:22:25,YZ,None,
,,,,,,practice,0,20,3,19,23,F,1,right,3.6236228979996667,0,0,,,,,,,,,,,,,,,,,,,,,1,,,,,,,,,,,,,,,,,,,,,,,,,,,,,,,,,,,,,,,,,,,,,,58,153550,20,Female,1,2024/02/15_10:22:25,YZ,None,
,,,,,,practice,0,20,3,19,24,X,0,left,2.8497958600000857,0,0,,,,,,,,,,,,,,,,,,,,,1,,,,,,,,,,,,,,,,,,,,,,,,,,,,,,,,,,,,,,,,,,,,,,58,153550,20,Female,1,2024/02/15_10:22:25,YZ,None,
,,,,,,practice,0,20,3,19,25,X,1,right,0.8882920779997221,0,0,,,,,,,,,,,,,,,,,,,,,1,,,,,,,,,,,,,,,,,,,,,,,,,,,,,,,,,,,,,,,,,,,,,,58,153550,20,Female,1,2024/02/15_10:22:25,YZ,None,
,,,,,,practice,0,20,3,19,26,N,0,right,2.37504078100028,1,0,,,,,,,,,,,,,,,,,,,,,1,,,,,,,,,,,,,,,,,,,,,,,,,,,,,,,,,,,,,,,,,,,,,,58,153550,20,Female,1,2024/02/15_10:22:25,YZ,None,
,,,,,,practice,0,20,3,19,,,,,,,,0.9097222222222223,0.75,0.05555555555555555,0.9444444444444444,0.0,0.9444444444444444,1.5715116011923294,6,1,0,0,0,17,23,8,18,0,,,,1,,,,,,,,,,,,,,,,,,,,,,,,,,,,,,,,,,,,,,,,,,,,,,58,153550,20,Female,1,2024/02/15_10:22:25,YZ,None,
,,,,,,practice,0,22,3,19,1,F,0,right,1.7886233039989747,1,0,,,,,,,,,,,,,,,,,,,,,1,,,,,,,,,,,,,,,,,,,,,,,,,,,,,,,,,,,,,,,,,,,,,,58,153550,20,Female,1,2024/02/15_10:22:25,YZ,None,
,,,,,,practice,0,22,3,19,2,F,0,right,0.38408423900000344,1,0,,,,,,,,,,,,,,,,,,,,,1,,,,,,,,,,,,,,,,,,,,,,,,,,,,,,,,,,,,,,,,,,,,,,58,153550,20,Female,1,2024/02/15_10:22:25,YZ,None,
,,,,,,practice,0,22,3,19,3,V,0,right,0.506798071999583,1,0,,,,,,,,,,,,,,,,,,,,,1,,,,,,,,,,,,,,,,,,,,,,,,,,,,,,,,,,,,,,,,,,,,,,58,153550,20,Female,1,2024/02/15_10:22:25,YZ,None,
,,,,,,practice,0,22,3,19,4,S,0,right,2.2835297980000178,1,0,,,,,,,,,,,,,,,,,,,,,1,,,,,,,,,,,,,,,,,,,,,,,,,,,,,,,,,,,,,,,,,,,,,,58,153550,20,Female,1,2024/02/15_10:22:25,YZ,None,
,,,,,,practice,0,22,3,19,5,C,0,right,3.8550703229993815,1,0,,,,,,,,,,,,,,,,,,,,,1,,,,,,,,,,,,,,,,,,,,,,,,,,,,,,,,,,,,,,,,,,,,,,58,153550,20,Female,1,2024/02/15_10:22:25,YZ,None,
,,,,,,practice,0,22,3,19,6,V,1,left,1.111833447999743,1,0,,,,,,,,,,,,,,,,,,,,,1,,,,,,,,,,,,,,,,,,,,,,,,,,,,,,,,,,,,,,,,,,,,,,58,153550,20,Female,1,2024/02/15_10:22:25,YZ,None,
,,,,,,practice,0,22,3,19,7,Q,0,right,2.575972558999638,1,0,,,,,,,,,,,,,,,,,,,,,1,,,,,,,,,,,,,,,,,,,,,,,,,,,,,,,,,,,,,,,,,,,,,,58,153550,20,Female,1,2024/02/15_10:22:25,YZ,None,
,,,,,,practice,0,22,3,19,8,C,1,right,4.368022854001538,0,0,,,,,,,,,,,,,,,,,,,,,1,,,,,,,,,,,,,,,,,,,,,,,,,,,,,,,,,,,,,,,,,,,,,,58,153550,20,Female,1,2024/02/15_10:22:25,YZ,None,
,,,,,,practice,0,22,3,19,9,X,0,right,1.928974623000613,1,0,,,,,,,,,,,,,,,,,,,,,1,,,,,,,,,,,,,,,,,,,,,,,,,,,,,,,,,,,,,,,,,,,,,,58,153550,20,Female,1,2024/02/15_10:22:25,YZ,None,
,,,,,,practice,0,22,3,19,10,N,0,right,7.015497807999054,1,0,,,,,,,,,,,,,,,,,,,,,1,,,,,,,,,,,,,,,,,,,,,,,,,,,,,,,,,,,,,,,,,,,,,,58,153550,20,Female,1,2024/02/15_10:22:25,YZ,None,
,,,,,,practice,0,22,3,19,11,Q,0,right,3.8248801299996558,1,0,,,,,,,,,,,,,,,,,,,,,1,,,,,,,,,,,,,,,,,,,,,,,,,,,,,,,,,,,,,,,,,,,,,,58,153550,20,Female,1,2024/02/15_10:22:25,YZ,None,
,,,,,,practice,0,22,3,19,12,X,1,left,1.2086790530011058,1,0,,,,,,,,,,,,,,,,,,,,,1,,,,,,,,,,,,,,,,,,,,,,,,,,,,,,,,,,,,,,,,,,,,,,58,153550,20,Female,1,2024/02/15_10:22:25,YZ,None,
,,,,,,practice,0,22,3,19,13,N,1,left,3.129748954999741,1,0,,,,,,,,,,,,,,,,,,,,,1,,,,,,,,,,,,,,,,,,,,,,,,,,,,,,,,,,,,,,,,,,,,,,58,153550,20,Female,1,2024/02/15_10:22:25,YZ,None,
,,,,,,practice,0,22,3,19,14,V,0,right,3.612121557998762,1,0,,,,,,,,,,,,,,,,,,,,,1,,,,,,,,,,,,,,,,,,,,,,,,,,,,,,,,,,,,,,,,,,,,,,58,153550,20,Female,1,2024/02/15_10:22:25,YZ,None,
,,,,,,practice,0,22,3,19,15,J,0,right,4.6282425049994345,1,0,,,,,,,,,,,,,,,,,,,,,1,,,,,,,,,,,,,,,,,,,,,,,,,,,,,,,,,,,,,,,,,,,,,,58,153550,20,Female,1,2024/02/15_10:22:25,YZ,None,
,,,,,,practice,0,22,3,19,16,N,1,left,0.6759264299998904,1,0,,,,,,,,,,,,,,,,,,,,,1,,,,,,,,,,,,,,,,,,,,,,,,,,,,,,,,,,,,,,,,,,,,,,58,153550,20,Female,1,2024/02/15_10:22:25,YZ,None,
,,,,,,practice,0,22,3,19,17,J,0,right,3.774555343999964,1,0,,,,,,,,,,,,,,,,,,,,,1,,,,,,,,,,,,,,,,,,,,,,,,,,,,,,,,,,,,,,,,,,,,,,58,153550,20,Female,1,2024/02/15_10:22:25,YZ,None,
,,,,,,practice,0,22,3,19,18,J,1,right,5.606767450000916,0,0,,,,,,,,,,,,,,,,,,,,,1,,,,,,,,,,,,,,,,,,,,,,,,,,,,,,,,,,,,,,,,,,,,,,58,153550,20,Female,1,2024/02/15_10:22:25,YZ,None,
,,,,,,practice,0,22,3,19,19,S,0,right,2.984083481000198,1,0,,,,,,,,,,,,,,,,,,,,,1,,,,,,,,,,,,,,,,,,,,,,,,,,,,,,,,,,,,,,,,,,,,,,58,153550,20,Female,1,2024/02/15_10:22:25,YZ,None,
,,,,,,practice,0,22,3,19,20,J,1,left,0.5089348669989704,1,0,,,,,,,,,,,,,,,,,,,,,1,,,,,,,,,,,,,,,,,,,,,,,,,,,,,,,,,,,,,,,,,,,,,,58,153550,20,Female,1,2024/02/15_10:22:25,YZ,None,
,,,,,,practice,0,22,3,19,21,V,0,right,2.0713635720003367,1,0,,,,,,,,,,,,,,,,,,,,,1,,,,,,,,,,,,,,,,,,,,,,,,,,,,,,,,,,,,,,,,,,,,,,58,153550,20,Female,1,2024/02/15_10:22:25,YZ,None,
,,,,,,practice,0,22,3,19,22,N,0,right,2.176145572000678,1,0,,,,,,,,,,,,,,,,,,,,,1,,,,,,,,,,,,,,,,,,,,,,,,,,,,,,,,,,,,,,,,,,,,,,58,153550,20,Female,1,2024/02/15_10:22:25,YZ,None,
,,,,,,practice,0,22,3,19,23,N,0,right,3.7735780000002705,1,0,,,,,,,,,,,,,,,,,,,,,1,,,,,,,,,,,,,,,,,,,,,,,,,,,,,,,,,,,,,,,,,,,,,,58,153550,20,Female,1,2024/02/15_10:22:25,YZ,None,
,,,,,,practice,0,22,3,19,24,C,0,right,1.3443756079996092,1,0,,,,,,,,,,,,,,,,,,,,,1,,,,,,,,,,,,,,,,,,,,,,,,,,,,,,,,,,,,,,,,,,,,,,58,153550,20,Female,1,2024/02/15_10:22:25,YZ,None,
,,,,,,practice,0,22,3,19,25,X,0,right,2.519333854999786,1,0,,,,,,,,,,,,,,,,,,,,,1,,,,,,,,,,,,,,,,,,,,,,,,,,,,,,,,,,,,,,,,,,,,,,58,153550,20,Female,1,2024/02/15_10:22:25,YZ,None,
,,,,,,practice,0,22,3,19,26,N,1,left,0.688889876999383,1,0,,,,,,,,,,,,,,,,,,,,,1,,,,,,,,,,,,,,,,,,,,,,,,,,,,,,,,,,,,,,,,,,,,,,58,153550,20,Female,1,2024/02/15_10:22:25,YZ,None,
,,,,,,practice,0,22,3,19,,,,,,,,0.9375,0.75,0.0,1.0,0.0,1.0,2.6286935878845097,6,0,0,0,0,18,24,8,18,0,,,,1,,,,,,,,,,,,,,,,,,,,,,,,,,,,,,,,,,,,,,,,,,,,,,58,153550,20,Female,1,2024/02/15_10:22:25,YZ,None,
1,./instructions/inst_prac_main/Slide51.png,right,1.8234803510003985,814.7613292859987,816.5848096369991,,,,,,,,,,,,,,,,,,,,,,,,,,,,,,,,,1,,,,,,,,,,,,,,,,,,,,,,,,,,,,,,,,,,,,,,,,,,,,,,58,153550,20,Female,1,2024/02/15_10:22:25,YZ,None,
2,./instructions/inst_prac_main/Slide52.png,right,5.454752314000871,816.618219951999,822.0729722659999,,,,,,,,,,,,,,,,,,,,,,,,,,,,,,,,,1,,,,,,,,,,,,,,,,,,,,,,,,,,,,,,,,,,,,,,,,,,,,,,58,153550,20,Female,1,2024/02/15_10:22:25,YZ,None,
1,./instructions/inst_prac_main/Slide53.png,left,5.247052213999268,822.1059566669992,827.3530088809985,,,,,,,,,,,,,,,,,,,,,,,,,,,,,,,,,1,,,,,,,,,,,,,,,,,,,,,,,,,,,,,,,,,,,,,,,,,,,,,,58,153550,20,Female,1,2024/02/15_10:22:25,YZ,None,
0,./instructions/inst_prac_main/Slide52.png,left,0.2006586689985852,827.3760984740002,827.5767571429988,,,,,,,,,,,,,,,,,,,,,,,,,,,,,,,,,1,,,,,,,,,,,,,,,,,,,,,,,,,,,,,,,,,,,,,,,,,,,,,,58,153550,20,Female,1,2024/02/15_10:22:25,YZ,None,
-1,./instructions/inst_prac_main/Slide51.png,left,0.20065568700010772,827.5957325519994,827.7963882389995,,,,,,,,,,,,,,,,,,,,,,,,,,,,,,,,,1,,,,,,,,,,,,,,,,,,,,,,,,,,,,,,,,,,,,,,,,,,,,,,58,153550,20,Female,1,2024/02/15_10:22:25,YZ,None,
-2,./instructions/inst_prac_main/Slide54.png,left,0.2004198449994874,827.8238784189998,828.0242982639993,,,,,,,,,,,,,,,,,,,,,,,,,,,,,,,,,1,,,,,,,,,,,,,,,,,,,,,,,,,,,,,,,,,,,,,,,,,,,,,,58,153550,20,Female,1,2024/02/15_10:22:25,YZ,None,
-3,./instructions/inst_prac_main/Slide53.png,left,0.2003232309998566,828.0470585059993,828.2473817369992,,,,,,,,,,,,,,,,,,,,,,,,,,,,,,,,,1,,,,,,,,,,,,,,,,,,,,,,,,,,,,,,,,,,,,,,,,,,,,,,58,153550,20,Female,1,2024/02/15_10:22:25,YZ,None,
-4,./instructions/inst_prac_main/Slide52.png,left,0.2004638349990273,828.2699517559995,828.4704155909985,,,,,,,,,,,,,,,,,,,,,,,,,,,,,,,,,1,,,,,,,,,,,,,,,,,,,,,,,,,,,,,,,,,,,,,,,,,,,,,,58,153550,20,Female,1,2024/02/15_10:22:25,YZ,None,
,,,,,,practice_main,0,1,1,19,1,F,0,None,nan,0,1,,,,,,,,,,,,,,,,,,,,,1,,,,,,,,,,,,,,,,,,,,,,,,,,,,,,,,,,,,,,,,,,,,,,58,153550,20,Female,1,2024/02/15_10:22:25,YZ,None,
,,,,,,practice_main,0,1,1,19,2,F,1,None,nan,0,1,,,,,,,,,,,,,,,,,,,,,1,,,,,,,,,,,,,,,,,,,,,,,,,,,,,,,,,,,,,,,,,,,,,,58,153550,20,Female,1,2024/02/15_10:22:25,YZ,None,
,,,,,,practice_main,0,1,1,19,3,V,0,right,0.5743135419997998,1,0,,,,,,,,,,,,,,,,,,,,,1,,,,,,,,,,,,,,,,,,,,,,,,,,,,,,,,,,,,,,,,,,,,,,58,153550,20,Female,1,2024/02/15_10:22:25,YZ,None,
,,,,,,practice_main,0,1,1,19,4,V,1,right,0.8057536200012692,0,0,,,,,,,,,,,,,,,,,,,,,1,,,,,,,,,,,,,,,,,,,,,,,,,,,,,,,,,,,,,,,,,,,,,,58,153550,20,Female,1,2024/02/15_10:22:25,YZ,None,
,,,,,,practice_main,0,1,1,19,5,X,0,right,0.5252627530007885,1,0,,,,,,,,,,,,,,,,,,,,,1,,,,,,,,,,,,,,,,,,,,,,,,,,,,,,,,,,,,,,,,,,,,,,58,153550,20,Female,1,2024/02/15_10:22:25,YZ,None,
,,,,,,practice_main,0,1,1,19,6,Q,0,right,0.4371435979992384,1,0,,,,,,,,,,,,,,,,,,,,,1,,,,,,,,,,,,,,,,,,,,,,,,,,,,,,,,,,,,,,,,,,,,,,58,153550,20,Female,1,2024/02/15_10:22:25,YZ,None,
,,,,,,practice_main,0,1,1,19,7,Q,1,left,0.626767703999576,1,0,,,,,,,,,,,,,,,,,,,,,1,,,,,,,,,,,,,,,,,,,,,,,,,,,,,,,,,,,,,,,,,,,,,,58,153550,20,Female,1,2024/02/15_10:22:25,YZ,None,
,,,,,,practice_main,0,1,1,19,8,F,0,right,0.6030581899995013,1,0,,,,,,,,,,,,,,,,,,,,,1,,,,,,,,,,,,,,,,,,,,,,,,,,,,,,,,,,,,,,,,,,,,,,58,153550,20,Female,1,2024/02/15_10:22:25,YZ,None,
,,,,,,practice_main,0,1,1,19,9,J,0,right,0.5396985820007103,1,0,,,,,,,,,,,,,,,,,,,,,1,,,,,,,,,,,,,,,,,,,,,,,,,,,,,,,,,,,,,,,,,,,,,,58,153550,20,Female,1,2024/02/15_10:22:25,YZ,None,
,,,,,,practice_main,0,1,1,19,10,J,1,left,0.4992725480005902,1,0,,,,,,,,,,,,,,,,,,,,,1,,,,,,,,,,,,,,,,,,,,,,,,,,,,,,,,,,,,,,,,,,,,,,58,153550,20,Female,1,2024/02/15_10:22:25,YZ,None,
,,,,,,practice_main,0,1,1,19,11,F,0,right,0.5580886839998129,1,0,,,,,,,,,,,,,,,,,,,,,1,,,,,,,,,,,,,,,,,,,,,,,,,,,,,,,,,,,,,,,,,,,,,,58,153550,20,Female,1,2024/02/15_10:22:25,YZ,None,
,,,,,,practice_main,0,1,1,19,12,F,1,left,0.5759335000002466,1,0,,,,,,,,,,,,,,,,,,,,,1,,,,,,,,,,,,,,,,,,,,,,,,,,,,,,,,,,,,,,,,,,,,,,58,153550,20,Female,1,2024/02/15_10:22:25,YZ,None,
,,,,,,practice_main,0,1,1,19,13,X,0,right,0.43397629500032053,1,0,,,,,,,,,,,,,,,,,,,,,1,,,,,,,,,,,,,,,,,,,,,,,,,,,,,,,,,,,,,,,,,,,,,,58,153550,20,Female,1,2024/02/15_10:22:25,YZ,None,
,,,,,,practice_main,0,1,1,19,14,N,0,right,0.5455111840001337,1,0,,,,,,,,,,,,,,,,,,,,,1,,,,,,,,,,,,,,,,,,,,,,,,,,,,,,,,,,,,,,,,,,,,,,58,153550,20,Female,1,2024/02/15_10:22:25,YZ,None,
