Instruction,Stimulus,Key,RT,START,END,Phase,Block,TrialN,NbackLevel,ISI,LetterN,Letter,Letter_isSame,Letter_Resp,Letter_RT,Letter_Accuracy,Letter_Timeout,Trial_A_measure,Trial_HR,Trial_FAR,Trial_CDR,Trial_MSR,Trial_ACC,Trial_RT,Trial_HitsCount,Trial_FAsCount,Trial_SameNoRespCount,Trial_DiffNoRespCount,Trial_NoRespCount,Trial_CDsCount,Trial_CorrectRespCount,Trial_SameLetterCount,Trial_DiffLetterCount,Trial_InvalidLetterCount,TrialCountCali,CaliEnd_A_measure,ISI_calibrated,Run,TrialIndex,TrialNumber_total,TrialNumber_valid,CueLearning,TrialDemandLearning,CueMapping,OnlineRating,OnlineRatingRT,OnlineRatingTimeOut,CueSTART,RatingSTART,OfflineRatingTimePoint,OfflineRatingQuesIndex,CueFigure,TrialDemand,OfflineRating,OfflineRatingRT,CueStart,OfflineRatingStart,PhaseType,CueLeft,CueDemandLeft,CueRight,CueDemandRight,Choice,ChoiceDemand,TaskDemand,ChoiceRT,ChoiceTimeOut,ChoiceSTART,CueCheck,CueDemandCheck,CorrectAnswer,Answer,AnswerDemand,AnswerRT,AnswerACC,AnswerTimeOut,CheckSTART,DemandRatingQuesIndex,QuesTLX,DemandLevel,DemandRating,DemandRatingRT,QuesStart,PID,SONA,Age,Gender,Run,TIME,EXPERIMENTER,frameRate,
1,./instructions/inst_begin/Slide2.png,right,15.879986300991732,0.1100485790084349,15.990034880000167,,,,,,,,,,,,,,,,,,,,,,,,,,,,,,,,,1,,,,,,,,,,,,,,,,,,,,,,,,,,,,,,,,,,,,,,,,,,,,,,106,158089,20,Female,1,2024/03/20_10:54:49,SD,None,
2,./instructions/inst_begin/Slide3.png,right,11.866791998007102,16.01931571100431,27.886107709011412,,,,,,,,,,,,,,,,,,,,,,,,,,,,,,,,,1,,,,,,,,,,,,,,,,,,,,,,,,,,,,,,,,,,,,,,,,,,,,,,106,158089,20,Female,1,2024/03/20_10:54:49,SD,None,
3,./instructions/inst_begin/Slide4.png,right,8.68507455100189,27.91302153300785,36.59809608400974,,,,,,,,,,,,,,,,,,,,,,,,,,,,,,,,,1,,,,,,,,,,,,,,,,,,,,,,,,,,,,,,,,,,,,,,,,,,,,,,106,158089,20,Female,1,2024/03/20_10:54:49,SD,None,
1,./instructions/inst_prac_2/Slide6.png,right,15.534580756997457,36.63154894200852,52.16612969900598,,,,,,,,,,,,,,,,,,,,,,,,,,,,,,,,,1,,,,,,,,,,,,,,,,,,,,,,,,,,,,,,,,,,,,,,,,,,,,,,106,158089,20,Female,1,2024/03/20_10:54:49,SD,None,
2,./instructions/inst_prac_2/Slide7.png,right,15.71475214799284,52.19530333801231,67.91005548600515,,,,,,,,,,,,,,,,,,,,,,,,,,,,,,,,,1,,,,,,,,,,,,,,,,,,,,,,,,,,,,,,,,,,,,,,,,,,,,,,106,158089,20,Female,1,2024/03/20_10:54:49,SD,None,
3,./instructions/inst_prac_2/Slide8.png,right,21.09007788800227,67.9401255010016,89.03020338900387,,,,,,,,,,,,,,,,,,,,,,,,,,,,,,,,,1,,,,,,,,,,,,,,,,,,,,,,,,,,,,,,,,,,,,,,,,,,,,,,106,158089,20,Female,1,2024/03/20_10:54:49,SD,None,
4,./instructions/inst_prac_2/Slide9.png,right,8.301069825000013,89.05712499900255,97.35819482400257,,,,,,,,,,,,,,,,,,,,,,,,,,,,,,,,,1,,,,,,,,,,,,,,,,,,,,,,,,,,,,,,,,,,,,,,,,,,,,,,106,158089,20,Female,1,2024/03/20_10:54:49,SD,None,
5,./instructions/inst_prac_2/Slide10.png,right,4.77119751299324,97.38683915500587,102.15803666799911,,,,,,,,,,,,,,,,,,,,,,,,,,,,,,,,,1,,,,,,,,,,,,,,,,,,,,,,,,,,,,,,,,,,,,,,,,,,,,,,106,158089,20,Female,1,2024/03/20_10:54:49,SD,None,
6,./instructions/inst_prac_2/Slide11.png,right,3.797819088998949,102.18405067700951,105.98186976600846,,,,,,,,,,,,,,,,,,,,,,,,,,,,,,,,,1,,,,,,,,,,,,,,,,,,,,,,,,,,,,,,,,,,,,,,,,,,,,,,106,158089,20,Female,1,2024/03/20_10:54:49,SD,None,
7,./instructions/inst_prac_2/Slide12.png,right,2.0275708160042996,106.01042312600475,108.03799394200905,,,,,,,,,,,,,,,,,,,,,,,,,,,,,,,,,1,,,,,,,,,,,,,,,,,,,,,,,,,,,,,,,,,,,,,,,,,,,,,,106,158089,20,Female,1,2024/03/20_10:54:49,SD,None,
8,./instructions/inst_prac_2/Slide13.png,right,2.0834590929880505,108.06664890301181,110.15010799599986,,,,,,,,,,,,,,,,,,,,,,,,,,,,,,,,,1,,,,,,,,,,,,,,,,,,,,,,,,,,,,,,,,,,,,,,,,,,,,,,106,158089,20,Female,1,2024/03/20_10:54:49,SD,None,
9,./instructions/inst_prac_2/Slide14.png,right,21.4033326300123,110.1788577260013,131.5821903560136,,,,,,,,,,,,,,,,,,,,,,,,,,,,,,,,,1,,,,,,,,,,,,,,,,,,,,,,,,,,,,,,,,,,,,,,,,,,,,,,106,158089,20,Female,1,2024/03/20_10:54:49,SD,None,
10,./instructions/inst_prac_2/Slide15.png,right,9.658891736005899,131.6110894970043,141.26998123301018,,,,,,,,,,,,,,,,,,,,,,,,,,,,,,,,,1,,,,,,,,,,,,,,,,,,,,,,,,,,,,,,,,,,,,,,,,,,,,,,106,158089,20,Female,1,2024/03/20_10:54:49,SD,None,
,,,,,,practice,0,21,2,2583,1,S,0,right,7.129721367004095,1,0,,,,,,,,,,,,,,,,,,,,,1,,,,,,,,,,,,,,,,,,,,,,,,,,,,,,,,,,,,,,,,,,,,,,106,158089,20,Female,1,2024/03/20_10:54:49,SD,None,
,,,,,,practice,0,21,2,2583,2,V,0,right,1.955699347992777,1,0,,,,,,,,,,,,,,,,,,,,,1,,,,,,,,,,,,,,,,,,,,,,,,,,,,,,,,,,,,,,,,,,,,,,106,158089,20,Female,1,2024/03/20_10:54:49,SD,None,
,,,,,,practice,0,21,2,2583,3,N,0,right,1.2432615710131358,1,0,,,,,,,,,,,,,,,,,,,,,1,,,,,,,,,,,,,,,,,,,,,,,,,,,,,,,,,,,,,,,,,,,,,,106,158089,20,Female,1,2024/03/20_10:54:49,SD,None,
,,,,,,practice,0,21,2,2583,4,V,1,left,0.9192383760091616,1,0,,,,,,,,,,,,,,,,,,,,,1,,,,,,,,,,,,,,,,,,,,,,,,,,,,,,,,,,,,,,,,,,,,,,106,158089,20,Female,1,2024/03/20_10:54:49,SD,None,
,,,,,,practice,0,21,2,2583,5,N,1,left,0.7594317519979086,1,0,,,,,,,,,,,,,,,,,,,,,1,,,,,,,,,,,,,,,,,,,,,,,,,,,,,,,,,,,,,,,,,,,,,,106,158089,20,Female,1,2024/03/20_10:54:49,SD,None,
,,,,,,practice,0,21,2,2583,6,S,0,right,0.8041924650024157,1,0,,,,,,,,,,,,,,,,,,,,,1,,,,,,,,,,,,,,,,,,,,,,,,,,,,,,,,,,,,,,,,,,,,,,106,158089,20,Female,1,2024/03/20_10:54:49,SD,None,
,,,,,,practice,0,21,2,2583,,,,,,,,1.0,1.0,0.0,1.0,0.0,1.0,2.135257479836582,2,0,0,0,0,4,6,2,4,0,,,,1,,,,,,,,,,,,,,,,,,,,,,,,,,,,,,,,,,,,,,,,,,,,,,106,158089,20,Female,1,2024/03/20_10:54:49,SD,None,
1,./instructions/inst_to_cali/Slide20.png,right,7.568964787002187,160.4369710010069,168.00593578800908,,,,,,,,,,,,,,,,,,,,,,,,,,,,,,,,,1,,,,,,,,,,,,,,,,,,,,,,,,,,,,,,,,,,,,,,,,,,,,,,106,158089,20,Female,1,2024/03/20_10:54:49,SD,None,
1,./instructions/inst_cali/Slide22.png,right,13.84648510099214,168.03974668901355,181.8862317900057,,,,,,,,,,,,,,,,,,,,,,,,,,,,,,,,,1,,,,,,,,,,,,,,,,,,,,,,,,,,,,,,,,,,,,,,,,,,,,,,106,158089,20,Female,1,2024/03/20_10:54:49,SD,None,
,,,,,,calibration,0,19,2,583,1,C,0,None,nan,0,1,,,,,,,,,,,,,,,,,,,,,1,,,,,,,,,,,,,,,,,,,,,,,,,,,,,,,,,,,,,,,,,,,,,,106,158089,20,Female,1,2024/03/20_10:54:49,SD,None,
,,,,,,calibration,0,19,2,583,2,F,0,right,0.5245536629954586,1,0,,,,,,,,,,,,,,,,,,,,,1,,,,,,,,,,,,,,,,,,,,,,,,,,,,,,,,,,,,,,,,,,,,,,106,158089,20,Female,1,2024/03/20_10:54:49,SD,None,
,,,,,,calibration,0,19,2,583,3,V,0,right,0.49369627400301397,1,0,,,,,,,,,,,,,,,,,,,,,1,,,,,,,,,,,,,,,,,,,,,,,,,,,,,,,,,,,,,,,,,,,,,,106,158089,20,Female,1,2024/03/20_10:54:49,SD,None,
,,,,,,calibration,0,19,2,583,4,N,0,right,0.6797110810002778,1,0,,,,,,,,,,,,,,,,,,,,,1,,,,,,,,,,,,,,,,,,,,,,,,,,,,,,,,,,,,,,,,,,,,,,106,158089,20,Female,1,2024/03/20_10:54:49,SD,None,
,,,,,,calibration,0,19,2,583,5,Q,0,right,0.5920034059963655,1,0,,,,,,,,,,,,,,,,,,,,,1,,,,,,,,,,,,,,,,,,,,,,,,,,,,,,,,,,,,,,,,,,,,,,106,158089,20,Female,1,2024/03/20_10:54:49,SD,None,
,,,,,,calibration,0,19,2,583,6,N,1,left,0.3797061380028026,1,0,,,,,,,,,,,,,,,,,,,,,1,,,,,,,,,,,,,,,,,,,,,,,,,,,,,,,,,,,,,,,,,,,,,,106,158089,20,Female,1,2024/03/20_10:54:49,SD,None,
,,,,,,calibration,0,19,2,583,7,Q,1,right,0.8039170919946628,0,0,,,,,,,,,,,,,,,,,,,,,1,,,,,,,,,,,,,,,,,,,,,,,,,,,,,,,,,,,,,,,,,,,,,,106,158089,20,Female,1,2024/03/20_10:54:49,SD,None,
,,,,,,calibration,0,19,2,583,8,S,0,right,0.607509763998678,1,0,,,,,,,,,,,,,,,,,,,,,1,,,,,,,,,,,,,,,,,,,,,,,,,,,,,,,,,,,,,,,,,,,,,,106,158089,20,Female,1,2024/03/20_10:54:49,SD,None,
,,,,,,calibration,0,19,2,583,9,X,0,right,0.6570857530023204,1,0,,,,,,,,,,,,,,,,,,,,,1,,,,,,,,,,,,,,,,,,,,,,,,,,,,,,,,,,,,,,,,,,,,,,106,158089,20,Female,1,2024/03/20_10:54:49,SD,None,
,,,,,,calibration,0,19,2,583,10,V,0,right,0.6189047349907923,1,0,,,,,,,,,,,,,,,,,,,,,1,,,,,,,,,,,,,,,,,,,,,,,,,,,,,,,,,,,,,,,,,,,,,,106,158089,20,Female,1,2024/03/20_10:54:49,SD,None,
,,,,,,calibration,0,19,2,583,11,F,0,right,0.9530086400045548,1,0,,,,,,,,,,,,,,,,,,,,,1,,,,,,,,,,,,,,,,,,,,,,,,,,,,,,,,,,,,,,,,,,,,,,106,158089,20,Female,1,2024/03/20_10:54:49,SD,None,
,,,,,,calibration,0,19,2,583,12,V,1,left,0.43875345900596585,1,0,,,,,,,,,,,,,,,,,,,,,1,,,,,,,,,,,,,,,,,,,,,,,,,,,,,,,,,,,,,,,,,,,,,,106,158089,20,Female,1,2024/03/20_10:54:49,SD,None,
,,,,,,calibration,0,19,2,583,13,C,0,right,0.6589778820052743,1,0,,,,,,,,,,,,,,,,,,,,,1,,,,,,,,,,,,,,,,,,,,,,,,,,,,,,,,,,,,,,,,,,,,,,106,158089,20,Female,1,2024/03/20_10:54:49,SD,None,
,,,,,,calibration,0,19,2,583,14,V,1,right,0.518424027992296,0,0,,,,,,,,,,,,,,,,,,,,,1,,,,,,,,,,,,,,,,,,,,,,,,,,,,,,,,,,,,,,,,,,,,,,106,158089,20,Female,1,2024/03/20_10:54:49,SD,None,
,,,,,,calibration,0,19,2,583,15,N,0,right,0.6219643269869266,1,0,,,,,,,,,,,,,,,,,,,,,1,,,,,,,,,,,,,,,,,,,,,,,,,,,,,,,,,,,,,,,,,,,,,,106,158089,20,Female,1,2024/03/20_10:54:49,SD,None,
,,,,,,calibration,0,19,2,583,,,,,,,,0.875,0.5,0.0,1.0,0.06666666666666667,0.9333333333333333,0.6105868744270992,2,0,0,1,1,10,12,4,11,0,,,,1,,,,,,,,,,,,,,,,,,,,,,,,,,,,,,,,,,,,,,,,,,,,,,106,158089,20,Female,1,2024/03/20_10:54:49,SD,None,
,,,,,,Calibration,0,,2,583,,,,,,,,,,,,,,,,,,,,,,,,,1,,,1,,,,,,,,,,,,,,,,,,,,,,,,,,,,,,,,,,,,,,,,,,,,,,106,158089,20,Female,1,2024/03/20_10:54:49,SD,None,
,,,,,,calibration,0,19,2,500,1,V,0,None,nan,0,1,,,,,,,,,,,,,,,,,,,,,1,,,,,,,,,,,,,,,,,,,,,,,,,,,,,,,,,,,,,,,,,,,,,,106,158089,20,Female,1,2024/03/20_10:54:49,SD,None,
,,,,,,calibration,0,19,2,500,2,S,0,None,nan,0,1,,,,,,,,,,,,,,,,,,,,,1,,,,,,,,,,,,,,,,,,,,,,,,,,,,,,,,,,,,,,,,,,,,,,106,158089,20,Female,1,2024/03/20_10:54:49,SD,None,
,,,,,,calibration,0,19,2,500,3,N,0,None,nan,0,1,,,,,,,,,,,,,,,,,,,,,1,,,,,,,,,,,,,,,,,,,,,,,,,,,,,,,,,,,,,,,,,,,,,,106,158089,20,Female,1,2024/03/20_10:54:49,SD,None,
,,,,,,calibration,0,19,2,500,4,S,1,None,nan,0,1,,,,,,,,,,,,,,,,,,,,,1,,,,,,,,,,,,,,,,,,,,,,,,,,,,,,,,,,,,,,,,,,,,,,106,158089,20,Female,1,2024/03/20_10:54:49,SD,None,
,,,,,,calibration,0,19,2,500,5,N,1,None,nan,0,1,,,,,,,,,,,,,,,,,,,,,1,,,,,,,,,,,,,,,,,,,,,,,,,,,,,,,,,,,,,,,,,,,,,,106,158089,20,Female,1,2024/03/20_10:54:49,SD,None,
,,,,,,calibration,0,19,2,500,6,C,0,None,nan,0,1,,,,,,,,,,,,,,,,,,,,,1,,,,,,,,,,,,,,,,,,,,,,,,,,,,,,,,,,,,,,,,,,,,,,106,158089,20,Female,1,2024/03/20_10:54:49,SD,None,
,,,,,,calibration,0,19,2,500,7,Q,0,None,nan,0,1,,,,,,,,,,,,,,,,,,,,,1,,,,,,,,,,,,,,,,,,,,,,,,,,,,,,,,,,,,,,,,,,,,,,106,158089,20,Female,1,2024/03/20_10:54:49,SD,None,
,,,,,,calibration,0,19,2,500,8,V,0,None,nan,0,1,,,,,,,,,,,,,,,,,,,,,1,,,,,,,,,,,,,,,,,,,,,,,,,,,,,,,,,,,,,,,,,,,,,,106,158089,20,Female,1,2024/03/20_10:54:49,SD,None,
,,,,,,calibration,0,19,2,500,9,Q,1,None,nan,0,1,,,,,,,,,,,,,,,,,,,,,1,,,,,,,,,,,,,,,,,,,,,,,,,,,,,,,,,,,,,,,,,,,,,,106,158089,20,Female,1,2024/03/20_10:54:49,SD,None,
,,,,,,calibration,0,19,2,500,10,J,0,None,nan,0,1,,,,,,,,,,,,,,,,,,,,,1,,,,,,,,,,,,,,,,,,,,,,,,,,,,,,,,,,,,,,,,,,,,,,106,158089,20,Female,1,2024/03/20_10:54:49,SD,None,
,,,,,,calibration,0,19,2,500,11,C,0,None,nan,0,1,,,,,,,,,,,,,,,,,,,,,1,,,,,,,,,,,,,,,,,,,,,,,,,,,,,,,,,,,,,,,,,,,,,,106,158089,20,Female,1,2024/03/20_10:54:49,SD,None,
,,,,,,calibration,0,19,2,500,12,J,1,None,nan,0,1,,,,,,,,,,,,,,,,,,,,,1,,,,,,,,,,,,,,,,,,,,,,,,,,,,,,,,,,,,,,,,,,,,,,106,158089,20,Female,1,2024/03/20_10:54:49,SD,None,
,,,,,,calibration,0,19,2,500,13,S,0,None,nan,0,1,,,,,,,,,,,,,,,,,,,,,1,,,,,,,,,,,,,,,,,,,,,,,,,,,,,,,,,,,,,,,,,,,,,,106,158089,20,Female,1,2024/03/20_10:54:49,SD,None,
,,,,,,calibration,0,19,2,500,14,C,0,None,nan,0,1,,,,,,,,,,,,,,,,,,,,,1,,,,,,,,,,,,,,,,,,,,,,,,,,,,,,,,,,,,,,,,,,,,,,106,158089,20,Female,1,2024/03/20_10:54:49,SD,None,
,,,,,,calibration,0,19,2,500,15,J,0,right,0.45521999700577,1,0,,,,,,,,,,,,,,,,,,,,,1,,,,,,,,,,,,,,,,,,,,,,,,,,,,,,,,,,,,,,,,,,,,,,106,158089,20,Female,1,2024/03/20_10:54:49,SD,None,
,,,,,,calibration,0,19,2,500,16,N,0,right,0.5654931460012449,1,0,,,,,,,,,,,,,,,,,,,,,1,,,,,,,,,,,,,,,,,,,,,,,,,,,,,,,,,,,,,,,,,,,,,,106,158089,20,Female,1,2024/03/20_10:54:49,SD,None,
,,,,,,calibration,0,19,2,500,,,,,,,,0.5,0.0,0.0,1.0,0.875,0.125,0.5103565715035074,0,0,4,10,14,2,2,4,12,0,,,,1,,,,,,,,,,,,,,,,,,,,,,,,,,,,,,,,,,,,,,,,,,,,,,106,158089,20,Female,1,2024/03/20_10:54:49,SD,None,
,,,,,,Calibration,0,,2,500,,,,,,,,,,,,,,,,,,,,,,,,,2,,,1,,,,,,,,,,,,,,,,,,,,,,,,,,,,,,,,,,,,,,,,,,,,,,106,158089,20,Female,1,2024/03/20_10:54:49,SD,None,
,,,,,,calibration,0,13,2,583,1,C,0,None,nan,0,1,,,,,,,,,,,,,,,,,,,,,1,,,,,,,,,,,,,,,,,,,,,,,,,,,,,,,,,,,,,,,,,,,,,,106,158089,20,Female,1,2024/03/20_10:54:49,SD,None,
,,,,,,calibration,0,13,2,583,2,S,0,None,nan,0,1,,,,,,,,,,,,,,,,,,,,,1,,,,,,,,,,,,,,,,,,,,,,,,,,,,,,,,,,,,,,,,,,,,,,106,158089,20,Female,1,2024/03/20_10:54:49,SD,None,
,,,,,,calibration,0,13,2,583,3,Q,0,right,0.06950625999888871,1,0,,,,,,,,,,,,,,,,,,,,,1,,,,,,,,,,,,,,,,,,,,,,,,,,,,,,,,,,,,,,,,,,,,,,106,158089,20,Female,1,2024/03/20_10:54:49,SD,None,
,,,,,,calibration,0,13,2,583,4,F,0,right,0.40053484099917114,1,0,,,,,,,,,,,,,,,,,,,,,1,,,,,,,,,,,,,,,,,,,,,,,,,,,,,,,,,,,,,,,,,,,,,,106,158089,20,Female,1,2024/03/20_10:54:49,SD,None,
,,,,,,calibration,0,13,2,583,5,Q,1,right,0.30730722000589594,0,0,,,,,,,,,,,,,,,,,,,,,1,,,,,,,,,,,,,,,,,,,,,,,,,,,,,,,,,,,,,,,,,,,,,,106,158089,20,Female,1,2024/03/20_10:54:49,SD,None,
,,,,,,calibration,0,13,2,583,6,X,0,right,0.4524346669932129,1,0,,,,,,,,,,,,,,,,,,,,,1,,,,,,,,,,,,,,,,,,,,,,,,,,,,,,,,,,,,,,,,,,,,,,106,158089,20,Female,1,2024/03/20_10:54:49,SD,None,
,,,,,,calibration,0,13,2,583,7,Q,1,right,0.6445953319926048,0,0,,,,,,,,,,,,,,,,,,,,,1,,,,,,,,,,,,,,,,,,,,,,,,,,,,,,,,,,,,,,,,,,,,,,106,158089,20,Female,1,2024/03/20_10:54:49,SD,None,
,,,,,,calibration,0,13,2,583,8,C,0,right,0.6188427250017412,1,0,,,,,,,,,,,,,,,,,,,,,1,,,,,,,,,,,,,,,,,,,,,,,,,,,,,,,,,,,,,,,,,,,,,,106,158089,20,Female,1,2024/03/20_10:54:49,SD,None,
,,,,,,calibration,0,13,2,583,9,Q,1,left,0.7440572429914027,1,0,,,,,,,,,,,,,,,,,,,,,1,,,,,,,,,,,,,,,,,,,,,,,,,,,,,,,,,,,,,,,,,,,,,,106,158089,20,Female,1,2024/03/20_10:54:49,SD,None,
,,,,,,calibration,0,13,2,583,10,X,0,right,0.4593254880019231,1,0,,,,,,,,,,,,,,,,,,,,,1,,,,,,,,,,,,,,,,,,,,,,,,,,,,,,,,,,,,,,,,,,,,,,106,158089,20,Female,1,2024/03/20_10:54:49,SD,None,
,,,,,,calibration,0,13,2,583,11,C,0,right,nan,0,1,,,,,,,,,,,,,,,,,,,,,1,,,,,,,,,,,,,,,,,,,,,,,,,,,,,,,,,,,,,,,,,,,,,,106,158089,20,Female,1,2024/03/20_10:54:49,SD,None,
,,,,,,calibration,0,13,2,583,12,X,1,right,0.47175117398728617,0,0,,,,,,,,,,,,,,,,,,,,,1,,,,,,,,,,,,,,,,,,,,,,,,,,,,,,,,,,,,,,,,,,,,,,106,158089,20,Female,1,2024/03/20_10:54:49,SD,None,
,,,,,,calibration,0,13,2,583,13,N,0,right,0.5309511790110264,1,0,,,,,,,,,,,,,,,,,,,,,1,,,,,,,,,,,,,,,,,,,,,,,,,,,,,,,,,,,,,,,,,,,,,,106,158089,20,Female,1,2024/03/20_10:54:49,SD,None,
,,,,,,calibration,0,13,2,583,14,X,1,left,0.36854087900428567,1,0,,,,,,,,,,,,,,,,,,,,,1,,,,,,,,,,,,,,,,,,,,,,,,,,,,,,,,,,,,,,,,,,,,,,106,158089,20,Female,1,2024/03/20_10:54:49,SD,None,
,,,,,,calibration,0,13,2,583,15,V,0,right,0.5530350969929714,1,0,,,,,,,,,,,,,,,,,,,,,1,,,,,,,,,,,,,,,,,,,,,,,,,,,,,,,,,,,,,,,,,,,,,,106,158089,20,Female,1,2024/03/20_10:54:49,SD,None,
,,,,,,calibration,0,13,2,583,,,,,,,,0.85,0.4,0.0,1.0,0.2,0.8,0.46840684208170086,2,0,0,3,3,7,9,5,10,0,,,,1,,,,,,,,,,,,,,,,,,,,,,,,,,,,,,,,,,,,,,,,,,,,,,106,158089,20,Female,1,2024/03/20_10:54:49,SD,None,
,,,,,,Calibration,0,,2,583,,,,,,,,,,,,,,,,,,,,,,,,,3,,,1,,,,,,,,,,,,,,,,,,,,,,,,,,,,,,,,,,,,,,,,,,,,,,106,158089,20,Female,1,2024/03/20_10:54:49,SD,None,
,,,,,,calibration,0,6,2,583,1,J,0,right,1.2645470049901633,1,0,,,,,,,,,,,,,,,,,,,,,1,,,,,,,,,,,,,,,,,,,,,,,,,,,,,,,,,,,,,,,,,,,,,,106,158089,20,Female,1,2024/03/20_10:54:49,SD,None,
,,,,,,calibration,0,6,2,583,2,S,0,right,0.3186127470107749,1,0,,,,,,,,,,,,,,,,,,,,,1,,,,,,,,,,,,,,,,,,,,,,,,,,,,,,,,,,,,,,,,,,,,,,106,158089,20,Female,1,2024/03/20_10:54:49,SD,None,
,,,,,,calibration,0,6,2,583,3,C,0,right,0.7021524290030356,1,0,,,,,,,,,,,,,,,,,,,,,1,,,,,,,,,,,,,,,,,,,,,,,,,,,,,,,,,,,,,,,,,,,,,,106,158089,20,Female,1,2024/03/20_10:54:49,SD,None,
,,,,,,calibration,0,6,2,583,4,J,0,right,0.41894317099649925,1,0,,,,,,,,,,,,,,,,,,,,,1,,,,,,,,,,,,,,,,,,,,,,,,,,,,,,,,,,,,,,,,,,,,,,106,158089,20,Female,1,2024/03/20_10:54:49,SD,None,
,,,,,,calibration,0,6,2,583,5,N,0,right,0.6779345009999815,1,0,,,,,,,,,,,,,,,,,,,,,1,,,,,,,,,,,,,,,,,,,,,,,,,,,,,,,,,,,,,,,,,,,,,,106,158089,20,Female,1,2024/03/20_10:54:49,SD,None,
,,,,,,calibration,0,6,2,583,6,J,1,left,0.6304232089896686,1,0,,,,,,,,,,,,,,,,,,,,,1,,,,,,,,,,,,,,,,,,,,,,,,,,,,,,,,,,,,,,,,,,,,,,106,158089,20,Female,1,2024/03/20_10:54:49,SD,None,
,,,,,,calibration,0,6,2,583,7,N,1,left,0.6253056879941141,1,0,,,,,,,,,,,,,,,,,,,,,1,,,,,,,,,,,,,,,,,,,,,,,,,,,,,,,,,,,,,,,,,,,,,,106,158089,20,Female,1,2024/03/20_10:54:49,SD,None,
,,,,,,calibration,0,6,2,583,8,V,0,left,0.4798560409981292,0,0,,,,,,,,,,,,,,,,,,,,,1,,,,,,,,,,,,,,,,,,,,,,,,,,,,,,,,,,,,,,,,,,,,,,106,158089,20,Female,1,2024/03/20_10:54:49,SD,None,
,,,,,,calibration,0,6,2,583,9,N,1,left,0.6017771129991161,1,0,,,,,,,,,,,,,,,,,,,,,1,,,,,,,,,,,,,,,,,,,,,,,,,,,,,,,,,,,,,,,,,,,,,,106,158089,20,Female,1,2024/03/20_10:54:49,SD,None,
,,,,,,calibration,0,6,2,583,10,F,0,right,0.48548517499875743,1,0,,,,,,,,,,,,,,,,,,,,,1,,,,,,,,,,,,,,,,,,,,,,,,,,,,,,,,,,,,,,,,,,,,,,106,158089,20,Female,1,2024/03/20_10:54:49,SD,None,
,,,,,,calibration,0,6,2,583,11,X,0,right,0.5118113909993554,1,0,,,,,,,,,,,,,,,,,,,,,1,,,,,,,,,,,,,,,,,,,,,,,,,,,,,,,,,,,,,,,,,,,,,,106,158089,20,Female,1,2024/03/20_10:54:49,SD,None,
,,,,,,calibration,0,6,2,583,12,J,0,right,0.6168286960019032,1,0,,,,,,,,,,,,,,,,,,,,,1,,,,,,,,,,,,,,,,,,,,,,,,,,,,,,,,,,,,,,,,,,,,,,106,158089,20,Female,1,2024/03/20_10:54:49,SD,None,
,,,,,,calibration,0,6,2,583,13,X,1,right,0.5241391669987934,0,0,,,,,,,,,,,,,,,,,,,,,1,,,,,,,,,,,,,,,,,,,,,,,,,,,,,,,,,,,,,,,,,,,,,,106,158089,20,Female,1,2024/03/20_10:54:49,SD,None,
,,,,,,calibration,0,6,2,583,14,J,1,right,0.4695047550048912,0,0,,,,,,,,,,,,,,,,,,,,,1,,,,,,,,,,,,,,,,,,,,,,,,,,,,,,,,,,,,,,,,,,,,,,106,158089,20,Female,1,2024/03/20_10:54:49,SD,None,
,,,,,,calibration,0,6,2,583,15,Q,0,right,0.6775009739940288,1,0,,,,,,,,,,,,,,,,,,,,,1,,,,,,,,,,,,,,,,,,,,,,,,,,,,,,,,,,,,,,,,,,,,,,106,158089,20,Female,1,2024/03/20_10:54:49,SD,None,
,,,,,,calibration,0,6,2,583,,,,,,,,0.835,0.6,0.1,0.9,0.0,0.9,0.6003214707986141,3,1,0,0,0,9,12,5,10,0,,,,1,,,,,,,,,,,,,,,,,,,,,,,,,,,,,,,,,,,,,,,,,,,,,,106,158089,20,Female,1,2024/03/20_10:54:49,SD,None,
,,,,,,Calibration,0,,2,583,,,,,,,,,,,,,,,,,,,,,,,,,4,,,1,,,,,,,,,,,,,,,,,,,,,,,,,,,,,,,,,,,,,,,,,,,,,,106,158089,20,Female,1,2024/03/20_10:54:49,SD,None,
,,,,,,calibration,0,17,2,583,1,J,0,right,1.790914442986832,1,0,,,,,,,,,,,,,,,,,,,,,1,,,,,,,,,,,,,,,,,,,,,,,,,,,,,,,,,,,,,,,,,,,,,,106,158089,20,Female,1,2024/03/20_10:54:49,SD,None,
,,,,,,calibration,0,17,2,583,2,C,0,right,0.431016078000539,1,0,,,,,,,,,,,,,,,,,,,,,1,,,,,,,,,,,,,,,,,,,,,,,,,,,,,,,,,,,,,,,,,,,,,,106,158089,20,Female,1,2024/03/20_10:54:49,SD,None,
,,,,,,calibration,0,17,2,583,3,J,1,left,0.33768419999978505,1,0,,,,,,,,,,,,,,,,,,,,,1,,,,,,,,,,,,,,,,,,,,,,,,,,,,,,,,,,,,,,,,,,,,,,106,158089,20,Female,1,2024/03/20_10:54:49,SD,None,
,,,,,,calibration,0,17,2,583,4,F,0,right,0.4841437290015165,1,0,,,,,,,,,,,,,,,,,,,,,1,,,,,,,,,,,,,,,,,,,,,,,,,,,,,,,,,,,,,,,,,,,,,,106,158089,20,Female,1,2024/03/20_10:54:49,SD,None,
,,,,,,calibration,0,17,2,583,5,N,0,right,0.7284987099992577,1,0,,,,,,,,,,,,,,,,,,,,,1,,,,,,,,,,,,,,,,,,,,,,,,,,,,,,,,,,,,,,,,,,,,,,106,158089,20,Female,1,2024/03/20_10:54:49,SD,None,
,,,,,,calibration,0,17,2,583,6,X,0,right,0.4619946100137895,1,0,,,,,,,,,,,,,,,,,,,,,1,,,,,,,,,,,,,,,,,,,,,,,,,,,,,,,,,,,,,,,,,,,,,,106,158089,20,Female,1,2024/03/20_10:54:49,SD,None,
,,,,,,calibration,0,17,2,583,7,N,1,left,0.5497834160050843,1,0,,,,,,,,,,,,,,,,,,,,,1,,,,,,,,,,,,,,,,,,,,,,,,,,,,,,,,,,,,,,,,,,,,,,106,158089,20,Female,1,2024/03/20_10:54:49,SD,None,
,,,,,,calibration,0,17,2,583,8,Q,0,right,0.5702456940052798,1,0,,,,,,,,,,,,,,,,,,,,,1,,,,,,,,,,,,,,,,,,,,,,,,,,,,,,,,,,,,,,,,,,,,,,106,158089,20,Female,1,2024/03/20_10:54:49,SD,None,
,,,,,,calibration,0,17,2,583,9,N,1,left,0.6026988239900675,1,0,,,,,,,,,,,,,,,,,,,,,1,,,,,,,,,,,,,,,,,,,,,,,,,,,,,,,,,,,,,,,,,,,,,,106,158089,20,Female,1,2024/03/20_10:54:49,SD,None,
,,,,,,calibration,0,17,2,583,10,S,0,right,0.5555833340040408,1,0,,,,,,,,,,,,,,,,,,,,,1,,,,,,,,,,,,,,,,,,,,,,,,,,,,,,,,,,,,,,,,,,,,,,106,158089,20,Female,1,2024/03/20_10:54:49,SD,None,
,,,,,,calibration,0,17,2,583,11,N,1,left,0.5409865779947722,1,0,,,,,,,,,,,,,,,,,,,,,1,,,,,,,,,,,,,,,,,,,,,,,,,,,,,,,,,,,,,,,,,,,,,,106,158089,20,Female,1,2024/03/20_10:54:49,SD,None,
,,,,,,calibration,0,17,2,583,12,V,0,right,0.43715940999391023,1,0,,,,,,,,,,,,,,,,,,,,,1,,,,,,,,,,,,,,,,,,,,,,,,,,,,,,,,,,,,,,,,,,,,,,106,158089,20,Female,1,2024/03/20_10:54:49,SD,None,
,,,,,,calibration,0,17,2,583,13,C,0,right,0.6652562279923586,1,0,,,,,,,,,,,,,,,,,,,,,1,,,,,,,,,,,,,,,,,,,,,,,,,,,,,,,,,,,,,,,,,,,,,,106,158089,20,Female,1,2024/03/20_10:54:49,SD,None,
,,,,,,calibration,0,17,2,583,14,F,0,right,0.6245438140031183,1,0,,,,,,,,,,,,,,,,,,,,,1,,,,,,,,,,,,,,,,,,,,,,,,,,,,,,,,,,,,,,,,,,,,,,106,158089,20,Female,1,2024/03/20_10:54:49,SD,None,
,,,,,,calibration,0,17,2,583,15,Q,0,left,0.6784150349994889,0,0,,,,,,,,,,,,,,,,,,,,,1,,,,,,,,,,,,,,,,,,,,,,,,,,,,,,,,,,,,,,,,,,,,,,106,158089,20,Female,1,2024/03/20_10:54:49,SD,None,
,,,,,,calibration,0,17,2,583,,,,,,,,0.9772727272727273,1.0,0.09090909090909091,0.9090909090909091,0.0,0.9090909090909091,0.6305949401993227,4,1,0,0,0,10,14,4,11,0,,,,1,,,,,,,,,,,,,,,,,,,,,,,,,,,,,,,,,,,,,,,,,,,,,,106,158089,20,Female,1,2024/03/20_10:54:49,SD,None,
,,,,,,Calibration,0,,2,583,,,,,,,,,,,,,,,,,,,,,,,,,5,,,1,,,,,,,,,,,,,,,,,,,,,,,,,,,,,,,,,,,,,,,,,,,,,,106,158089,20,Female,1,2024/03/20_10:54:49,SD,None,
,,,,,,calibration,0,26,2,500,1,Q,0,right,0.846461168010137,1,0,,,,,,,,,,,,,,,,,,,,,1,,,,,,,,,,,,,,,,,,,,,,,,,,,,,,,,,,,,,,,,,,,,,,106,158089,20,Female,1,2024/03/20_10:54:49,SD,None,
,,,,,,calibration,0,26,2,500,2,S,0,right,0.37799687100050505,1,0,,,,,,,,,,,,,,,,,,,,,1,,,,,,,,,,,,,,,,,,,,,,,,,,,,,,,,,,,,,,,,,,,,,,106,158089,20,Female,1,2024/03/20_10:54:49,SD,None,
,,,,,,calibration,0,26,2,500,3,N,0,right,0.4449049510003533,1,0,,,,,,,,,,,,,,,,,,,,,1,,,,,,,,,,,,,,,,,,,,,,,,,,,,,,,,,,,,,,,,,,,,,,106,158089,20,Female,1,2024/03/20_10:54:49,SD,None,
,,,,,,calibration,0,26,2,500,4,S,1,left,0.6042872609978076,1,0,,,,,,,,,,,,,,,,,,,,,1,,,,,,,,,,,,,,,,,,,,,,,,,,,,,,,,,,,,,,,,,,,,,,106,158089,20,Female,1,2024/03/20_10:54:49,SD,None,
,,,,,,calibration,0,26,2,500,5,C,0,left,0.854131187996245,0,0,,,,,,,,,,,,,,,,,,,,,1,,,,,,,,,,,,,,,,,,,,,,,,,,,,,,,,,,,,,,,,,,,,,,106,158089,20,Female,1,2024/03/20_10:54:49,SD,None,
,,,,,,calibration,0,26,2,500,6,S,1,left,0.7053666059946408,1,0,,,,,,,,,,,,,,,,,,,,,1,,,,,,,,,,,,,,,,,,,,,,,,,,,,,,,,,,,,,,,,,,,,,,106,158089,20,Female,1,2024/03/20_10:54:49,SD,None,
,,,,,,calibration,0,26,2,500,7,N,0,right,0.40543349299696274,1,0,,,,,,,,,,,,,,,,,,,,,1,,,,,,,,,,,,,,,,,,,,,,,,,,,,,,,,,,,,,,,,,,,,,,106,158089,20,Female,1,2024/03/20_10:54:49,SD,None,
,,,,,,calibration,0,26,2,500,8,C,0,left,0.6419805460027419,0,0,,,,,,,,,,,,,,,,,,,,,1,,,,,,,,,,,,,,,,,,,,,,,,,,,,,,,,,,,,,,,,,,,,,,106,158089,20,Female,1,2024/03/20_10:54:49,SD,None,
,,,,,,calibration,0,26,2,500,9,V,0,right,0.6214846989896614,1,0,,,,,,,,,,,,,,,,,,,,,1,,,,,,,,,,,,,,,,,,,,,,,,,,,,,,,,,,,,,,,,,,,,,,106,158089,20,Female,1,2024/03/20_10:54:49,SD,None,
,,,,,,calibration,0,26,2,500,10,C,1,left,0.588642251008423,1,0,,,,,,,,,,,,,,,,,,,,,1,,,,,,,,,,,,,,,,,,,,,,,,,,,,,,,,,,,,,,,,,,,,,,106,158089,20,Female,1,2024/03/20_10:54:49,SD,None,
,,,,,,calibration,0,26,2,500,11,S,0,left,0.571157395010232,0,0,,,,,,,,,,,,,,,,,,,,,1,,,,,,,,,,,,,,,,,,,,,,,,,,,,,,,,,,,,,,,,,,,,,,106,158089,20,Female,1,2024/03/20_10:54:49,SD,None,
,,,,,,calibration,0,26,2,500,12,C,1,right,0.5744957239949144,0,0,,,,,,,,,,,,,,,,,,,,,1,,,,,,,,,,,,,,,,,,,,,,,,,,,,,,,,,,,,,,,,,,,,,,106,158089,20,Female,1,2024/03/20_10:54:49,SD,None,
,,,,,,calibration,0,26,2,500,13,F,0,right,0.8751916969922604,1,0,,,,,,,,,,,,,,,,,,,,,1,,,,,,,,,,,,,,,,,,,,,,,,,,,,,,,,,,,,,,,,,,,,,,106,158089,20,Female,1,2024/03/20_10:54:49,SD,None,
,,,,,,calibration,0,26,2,500,14,N,0,left,0.4498980880016461,0,0,,,,,,,,,,,,,,,,,,,,,1,,,,,,,,,,,,,,,,,,,,,,,,,,,,,,,,,,,,,,,,,,,,,,106,158089,20,Female,1,2024/03/20_10:54:49,SD,None,
,,,,,,calibration,0,26,2,500,15,J,0,right,0.4564099049894139,1,0,,,,,,,,,,,,,,,,,,,,,1,,,,,,,,,,,,,,,,,,,,,,,,,,,,,,,,,,,,,,,,,,,,,,106,158089,20,Female,1,2024/03/20_10:54:49,SD,None,
,,,,,,calibration,0,26,2,500,16,Q,0,left,0.40884217199345585,0,0,,,,,,,,,,,,,,,,,,,,,1,,,,,,,,,,,,,,,,,,,,,,,,,,,,,,,,,,,,,,,,,,,,,,106,158089,20,Female,1,2024/03/20_10:54:49,SD,None,
,,,,,,calibration,0,26,2,500,,,,,,,,0.7291666666666667,0.75,0.4166666666666667,0.5833333333333334,0.0,0.5833333333333333,0.5891677509362125,3,5,0,0,0,7,10,4,12,0,,,,1,,,,,,,,,,,,,,,,,,,,,,,,,,,,,,,,,,,,,,,,,,,,,,106,158089,20,Female,1,2024/03/20_10:54:49,SD,None,
,,,,,,Calibration,0,,2,500,,,,,,,,,,,,,,,,,,,,,,,,,6,,,1,,,,,,,,,,,,,,,,,,,,,,,,,,,,,,,,,,,,,,,,,,,,,,106,158089,20,Female,1,2024/03/20_10:54:49,SD,None,
,,,,,,calibration,0,36,2,583,1,S,0,right,1.245208670006832,1,0,,,,,,,,,,,,,,,,,,,,,1,,,,,,,,,,,,,,,,,,,,,,,,,,,,,,,,,,,,,,,,,,,,,,106,158089,20,Female,1,2024/03/20_10:54:49,SD,None,
,,,,,,calibration,0,36,2,583,2,Q,0,right,0.44527297500462737,1,0,,,,,,,,,,,,,,,,,,,,,1,,,,,,,,,,,,,,,,,,,,,,,,,,,,,,,,,,,,,,,,,,,,,,106,158089,20,Female,1,2024/03/20_10:54:49,SD,None,
,,,,,,calibration,0,36,2,583,3,C,0,right,0.4530670720123453,1,0,,,,,,,,,,,,,,,,,,,,,1,,,,,,,,,,,,,,,,,,,,,,,,,,,,,,,,,,,,,,,,,,,,,,106,158089,20,Female,1,2024/03/20_10:54:49,SD,None,
,,,,,,calibration,0,36,2,583,4,Q,1,left,0.5600244880042737,1,0,,,,,,,,,,,,,,,,,,,,,1,,,,,,,,,,,,,,,,,,,,,,,,,,,,,,,,,,,,,,,,,,,,,,106,158089,20,Female,1,2024/03/20_10:54:49,SD,None,
,,,,,,calibration,0,36,2,583,5,N,0,left,0.4856153889995767,0,0,,,,,,,,,,,,,,,,,,,,,1,,,,,,,,,,,,,,,,,,,,,,,,,,,,,,,,,,,,,,,,,,,,,,106,158089,20,Female,1,2024/03/20_10:54:49,SD,None,
,,,,,,calibration,0,36,2,583,6,X,0,right,0.48825664099422283,1,0,,,,,,,,,,,,,,,,,,,,,1,,,,,,,,,,,,,,,,,,,,,,,,,,,,,,,,,,,,,,,,,,,,,,106,158089,20,Female,1,2024/03/20_10:54:49,SD,None,
,,,,,,calibration,0,36,2,583,7,F,0,right,0.5250626289926004,1,0,,,,,,,,,,,,,,,,,,,,,1,,,,,,,,,,,,,,,,,,,,,,,,,,,,,,,,,,,,,,,,,,,,,,106,158089,20,Female,1,2024/03/20_10:54:49,SD,None,
,,,,,,calibration,0,36,2,583,8,S,0,left,0.4528814769873861,0,0,,,,,,,,,,,,,,,,,,,,,1,,,,,,,,,,,,,,,,,,,,,,,,,,,,,,,,,,,,,,,,,,,,,,106,158089,20,Female,1,2024/03/20_10:54:49,SD,None,
,,,,,,calibration,0,36,2,583,9,F,1,right,0.4150630780059146,0,0,,,,,,,,,,,,,,,,,,,,,1,,,,,,,,,,,,,,,,,,,,,,,,,,,,,,,,,,,,,,,,,,,,,,106,158089,20,Female,1,2024/03/20_10:54:49,SD,None,
,,,,,,calibration,0,36,2,583,10,V,0,right,0.476706422996358,1,0,,,,,,,,,,,,,,,,,,,,,1,,,,,,,,,,,,,,,,,,,,,,,,,,,,,,,,,,,,,,,,,,,,,,106,158089,20,Female,1,2024/03/20_10:54:49,SD,None,
,,,,,,calibration,0,36,2,583,11,C,0,left,0.4208070369932102,0,0,,,,,,,,,,,,,,,,,,,,,1,,,,,,,,,,,,,,,,,,,,,,,,,,,,,,,,,,,,,,,,,,,,,,106,158089,20,Female,1,2024/03/20_10:54:49,SD,None,
,,,,,,calibration,0,36,2,583,12,V,1,right,0.6339281520049553,0,0,,,,,,,,,,,,,,,,,,,,,1,,,,,,,,,,,,,,,,,,,,,,,,,,,,,,,,,,,,,,,,,,,,,,106,158089,20,Female,1,2024/03/20_10:54:49,SD,None,
,,,,,,calibration,0,36,2,583,13,C,1,right,0.524121403999743,0,0,,,,,,,,,,,,,,,,,,,,,1,,,,,,,,,,,,,,,,,,,,,,,,,,,,,,,,,,,,,,,,,,,,,,106,158089,20,Female,1,2024/03/20_10:54:49,SD,None,
,,,,,,calibration,0,36,2,583,14,F,0,right,0.4817344350012718,1,0,,,,,,,,,,,,,,,,,,,,,1,,,,,,,,,,,,,,,,,,,,,,,,,,,,,,,,,,,,,,,,,,,,,,106,158089,20,Female,1,2024/03/20_10:54:49,SD,None,
,,,,,,calibration,0,36,2,583,15,C,1,right,0.5369109039893374,0,0,,,,,,,,,,,,,,,,,,,,,1,,,,,,,,,,,,,,,,,,,,,,,,,,,,,,,,,,,,,,,,,,,,,,106,158089,20,Female,1,2024/03/20_10:54:49,SD,None,
,,,,,,calibration,0,36,2,583,,,,,,,,0.05833333333333332,0.2,0.3,0.7,0.0,0.7,0.5429773849328436,1,3,0,0,0,7,8,5,10,0,,,,1,,,,,,,,,,,,,,,,,,,,,,,,,,,,,,,,,,,,,,,,,,,,,,106,158089,20,Female,1,2024/03/20_10:54:49,SD,None,
,,,,,,Calibration,0,,2,583,,,,,,,,,,,,,,,,,,,,,,,,,7,,,1,,,,,,,,,,,,,,,,,,,,,,,,,,,,,,,,,,,,,,,,,,,,,,106,158089,20,Female,1,2024/03/20_10:54:49,SD,None,
,,,,,,calibration,0,8,2,679,1,J,0,right,0.5807786819932517,1,0,,,,,,,,,,,,,,,,,,,,,1,,,,,,,,,,,,,,,,,,,,,,,,,,,,,,,,,,,,,,,,,,,,,,106,158089,20,Female,1,2024/03/20_10:54:49,SD,None,
,,,,,,calibration,0,8,2,679,2,C,0,right,0.3919499150069896,1,0,,,,,,,,,,,,,,,,,,,,,1,,,,,,,,,,,,,,,,,,,,,,,,,,,,,,,,,,,,,,,,,,,,,,106,158089,20,Female,1,2024/03/20_10:54:49,SD,None,
,,,,,,calibration,0,8,2,679,3,J,1,left,0.30832100700354204,1,0,,,,,,,,,,,,,,,,,,,,,1,,,,,,,,,,,,,,,,,,,,,,,,,,,,,,,,,,,,,,,,,,,,,,106,158089,20,Female,1,2024/03/20_10:54:49,SD,None,
,,,,,,calibration,0,8,2,679,4,S,0,right,0.5002647189976415,1,0,,,,,,,,,,,,,,,,,,,,,1,,,,,,,,,,,,,,,,,,,,,,,,,,,,,,,,,,,,,,,,,,,,,,106,158089,20,Female,1,2024/03/20_10:54:49,SD,None,
,,,,,,calibration,0,8,2,679,5,J,1,left,0.5884904220001772,1,0,,,,,,,,,,,,,,,,,,,,,1,,,,,,,,,,,,,,,,,,,,,,,,,,,,,,,,,,,,,,,,,,,,,,106,158089,20,Female,1,2024/03/20_10:54:49,SD,None,
,,,,,,calibration,0,8,2,679,6,N,0,right,0.3163847700052429,1,0,,,,,,,,,,,,,,,,,,,,,1,,,,,,,,,,,,,,,,,,,,,,,,,,,,,,,,,,,,,,,,,,,,,,106,158089,20,Female,1,2024/03/20_10:54:49,SD,None,
,,,,,,calibration,0,8,2,679,7,V,0,right,0.5482047339901328,1,0,,,,,,,,,,,,,,,,,,,,,1,,,,,,,,,,,,,,,,,,,,,,,,,,,,,,,,,,,,,,,,,,,,,,106,158089,20,Female,1,2024/03/20_10:54:49,SD,None,
,,,,,,calibration,0,8,2,679,8,F,0,right,0.5442169840098359,1,0,,,,,,,,,,,,,,,,,,,,,1,,,,,,,,,,,,,,,,,,,,,,,,,,,,,,,,,,,,,,,,,,,,,,106,158089,20,Female,1,2024/03/20_10:54:49,SD,None,
,,,,,,calibration,0,8,2,679,9,C,0,right,0.6756374319957104,1,0,,,,,,,,,,,,,,,,,,,,,1,,,,,,,,,,,,,,,,,,,,,,,,,,,,,,,,,,,,,,,,,,,,,,106,158089,20,Female,1,2024/03/20_10:54:49,SD,None,
,,,,,,calibration,0,8,2,679,10,X,0,left,0.2592041890020482,0,0,,,,,,,,,,,,,,,,,,,,,1,,,,,,,,,,,,,,,,,,,,,,,,,,,,,,,,,,,,,,,,,,,,,,106,158089,20,Female,1,2024/03/20_10:54:49,SD,None,
,,,,,,calibration,0,8,2,679,11,C,1,right,0.4166951869992772,0,0,,,,,,,,,,,,,,,,,,,,,1,,,,,,,,,,,,,,,,,,,,,,,,,,,,,,,,,,,,,,,,,,,,,,106,158089,20,Female,1,2024/03/20_10:54:49,SD,None,
,,,,,,calibration,0,8,2,679,12,N,0,left,0.6906708749884274,0,0,,,,,,,,,,,,,,,,,,,,,1,,,,,,,,,,,,,,,,,,,,,,,,,,,,,,,,,,,,,,,,,,,,,,106,158089,20,Female,1,2024/03/20_10:54:49,SD,None,
,,,,,,calibration,0,8,2,679,13,X,0,left,0.4229006610112265,0,0,,,,,,,,,,,,,,,,,,,,,1,,,,,,,,,,,,,,,,,,,,,,,,,,,,,,,,,,,,,,,,,,,,,,106,158089,20,Female,1,2024/03/20_10:54:49,SD,None,
,,,,,,calibration,0,8,2,679,14,N,1,left,0.5647207949950825,1,0,,,,,,,,,,,,,,,,,,,,,1,,,,,,,,,,,,,,,,,,,,,,,,,,,,,,,,,,,,,,,,,,,,,,106,158089,20,Female,1,2024/03/20_10:54:49,SD,None,
,,,,,,calibration,0,8,2,679,,,,,,,,0.7875000000000001,0.75,0.3,0.7,0.0,0.7,0.4863171694284704,3,3,0,0,0,7,10,4,10,0,,,,1,,,,,,,,,,,,,,,,,,,,,,,,,,,,,,,,,,,,,,,,,,,,,,106,158089,20,Female,1,2024/03/20_10:54:49,SD,None,
,,,,,,Calibration,0,,2,679,,,,,,,,,,,,,,,,,,,,,,,,,8,,,1,,,,,,,,,,,,,,,,,,,,,,,,,,,,,,,,,,,,,,,,,,,,,,106,158089,20,Female,1,2024/03/20_10:54:49,SD,None,
,,,,,,calibration,0,9,2,679,1,X,0,right,0.5532677339942893,1,0,,,,,,,,,,,,,,,,,,,,,1,,,,,,,,,,,,,,,,,,,,,,,,,,,,,,,,,,,,,,,,,,,,,,106,158089,20,Female,1,2024/03/20_10:54:49,SD,None,
,,,,,,calibration,0,9,2,679,2,J,0,right,0.41848292599024717,1,0,,,,,,,,,,,,,,,,,,,,,1,,,,,,,,,,,,,,,,,,,,,,,,,,,,,,,,,,,,,,,,,,,,,,106,158089,20,Female,1,2024/03/20_10:54:49,SD,None,
,,,,,,calibration,0,9,2,679,3,X,1,left,0.29582012399623636,1,0,,,,,,,,,,,,,,,,,,,,,1,,,,,,,,,,,,,,,,,,,,,,,,,,,,,,,,,,,,,,,,,,,,,,106,158089,20,Female,1,2024/03/20_10:54:49,SD,None,
,,,,,,calibration,0,9,2,679,4,F,0,right,0.42594181299500633,1,0,,,,,,,,,,,,,,,,,,,,,1,,,,,,,,,,,,,,,,,,,,,,,,,,,,,,,,,,,,,,,,,,,,,,106,158089,20,Female,1,2024/03/20_10:54:49,SD,None,
,,,,,,calibration,0,9,2,679,5,X,1,left,0.524647661994095,1,0,,,,,,,,,,,,,,,,,,,,,1,,,,,,,,,,,,,,,,,,,,,,,,,,,,,,,,,,,,,,,,,,,,,,106,158089,20,Female,1,2024/03/20_10:54:49,SD,None,
,,,,,,calibration,0,9,2,679,6,F,1,left,0.5409830270073144,1,0,,,,,,,,,,,,,,,,,,,,,1,,,,,,,,,,,,,,,,,,,,,,,,,,,,,,,,,,,,,,,,,,,,,,106,158089,20,Female,1,2024/03/20_10:54:49,SD,None,
,,,,,,calibration,0,9,2,679,7,Q,0,left,0.5639947820018278,0,0,,,,,,,,,,,,,,,,,,,,,1,,,,,,,,,,,,,,,,,,,,,,,,,,,,,,,,,,,,,,,,,,,,,,106,158089,20,Female,1,2024/03/20_10:54:49,SD,None,
,,,,,,calibration,0,9,2,679,8,S,0,right,0.5979077689989936,1,0,,,,,,,,,,,,,,,,,,,,,1,,,,,,,,,,,,,,,,,,,,,,,,,,,,,,,,,,,,,,,,,,,,,,106,158089,20,Female,1,2024/03/20_10:54:49,SD,None,
,,,,,,calibration,0,9,2,679,9,F,0,left,0.5239879779983312,0,0,,,,,,,,,,,,,,,,,,,,,1,,,,,,,,,,,,,,,,,,,,,,,,,,,,,,,,,,,,,,,,,,,,,,106,158089,20,Female,1,2024/03/20_10:54:49,SD,None,
,,,,,,calibration,0,9,2,679,10,S,1,right,0.38921805599238724,0,0,,,,,,,,,,,,,,,,,,,,,1,,,,,,,,,,,,,,,,,,,,,,,,,,,,,,,,,,,,,,,,,,,,,,106,158089,20,Female,1,2024/03/20_10:54:49,SD,None,
,,,,,,calibration,0,9,2,679,11,N,0,left,0.6904137420060579,0,0,,,,,,,,,,,,,,,,,,,,,1,,,,,,,,,,,,,,,,,,,,,,,,,,,,,,,,,,,,,,,,,,,,,,106,158089,20,Female,1,2024/03/20_10:54:49,SD,None,
,,,,,,calibration,0,9,2,679,12,C,0,left,0.5412910779996309,0,0,,,,,,,,,,,,,,,,,,,,,1,,,,,,,,,,,,,,,,,,,,,,,,,,,,,,,,,,,,,,,,,,,,,,106,158089,20,Female,1,2024/03/20_10:54:49,SD,None,
,,,,,,calibration,0,9,2,679,13,S,0,left,0.5362328390037874,0,0,,,,,,,,,,,,,,,,,,,,,1,,,,,,,,,,,,,,,,,,,,,,,,,,,,,,,,,,,,,,,,,,,,,,106,158089,20,Female,1,2024/03/20_10:54:49,SD,None,
,,,,,,calibration,0,9,2,679,14,X,0,right,0.43670623100479133,1,0,,,,,,,,,,,,,,,,,,,,,1,,,,,,,,,,,,,,,,,,,,,,,,,,,,,,,,,,,,,,,,,,,,,,106,158089,20,Female,1,2024/03/20_10:54:49,SD,None,
,,,,,,calibration,0,9,2,679,,,,,,,,0.6875,0.75,0.5,0.5,0.0,0.5,0.5027782686416425,3,5,0,0,0,5,8,4,10,0,,,,1,,,,,,,,,,,,,,,,,,,,,,,,,,,,,,,,,,,,,,,,,,,,,,106,158089,20,Female,1,2024/03/20_10:54:49,SD,None,
,,,,,,Calibration,0,,2,679,,,,,,,,,,,,,,,,,,,,,,,,,9,,,1,,,,,,,,,,,,,,,,,,,,,,,,,,,,,,,,,,,,,,,,,,,,,,106,158089,20,Female,1,2024/03/20_10:54:49,SD,None,
,,,,,,calibration,0,35,2,788,1,C,0,None,nan,0,1,,,,,,,,,,,,,,,,,,,,,1,,,,,,,,,,,,,,,,,,,,,,,,,,,,,,,,,,,,,,,,,,,,,,106,158089,20,Female,1,2024/03/20_10:54:49,SD,None,
,,,,,,calibration,0,35,2,788,2,X,0,right,1.020063559000846,1,0,,,,,,,,,,,,,,,,,,,,,1,,,,,,,,,,,,,,,,,,,,,,,,,,,,,,,,,,,,,,,,,,,,,,106,158089,20,Female,1,2024/03/20_10:54:49,SD,None,
,,,,,,calibration,0,35,2,788,3,S,0,right,0.2911051709961612,1,0,,,,,,,,,,,,,,,,,,,,,1,,,,,,,,,,,,,,,,,,,,,,,,,,,,,,,,,,,,,,,,,,,,,,106,158089,20,Female,1,2024/03/20_10:54:49,SD,None,
,,,,,,calibration,0,35,2,788,4,C,0,left,0.5245938809966901,0,0,,,,,,,,,,,,,,,,,,,,,1,,,,,,,,,,,,,,,,,,,,,,,,,,,,,,,,,,,,,,,,,,,,,,106,158089,20,Female,1,2024/03/20_10:54:49,SD,None,
,,,,,,calibration,0,35,2,788,5,S,1,right,0.9073413549922407,0,0,,,,,,,,,,,,,,,,,,,,,1,,,,,,,,,,,,,,,,,,,,,,,,,,,,,,,,,,,,,,,,,,,,,,106,158089,20,Female,1,2024/03/20_10:54:49,SD,None,
,,,,,,calibration,0,35,2,788,6,N,0,right,nan,0,1,,,,,,,,,,,,,,,,,,,,,1,,,,,,,,,,,,,,,,,,,,,,,,,,,,,,,,,,,,,,,,,,,,,,106,158089,20,Female,1,2024/03/20_10:54:49,SD,None,
,,,,,,calibration,0,35,2,788,7,X,0,right,0.3191839110077126,1,0,,,,,,,,,,,,,,,,,,,,,1,,,,,,,,,,,,,,,,,,,,,,,,,,,,,,,,,,,,,,,,,,,,,,106,158089,20,Female,1,2024/03/20_10:54:49,SD,None,
,,,,,,calibration,0,35,2,788,8,F,0,right,0.3922686770092696,1,0,,,,,,,,,,,,,,,,,,,,,1,,,,,,,,,,,,,,,,,,,,,,,,,,,,,,,,,,,,,,,,,,,,,,106,158089,20,Female,1,2024/03/20_10:54:49,SD,None,
,,,,,,calibration,0,35,2,788,9,V,0,right,0.43266291500185616,1,0,,,,,,,,,,,,,,,,,,,,,1,,,,,,,,,,,,,,,,,,,,,,,,,,,,,,,,,,,,,,,,,,,,,,106,158089,20,Female,1,2024/03/20_10:54:49,SD,None,
,,,,,,calibration,0,35,2,788,10,F,1,right,0.49814305499603506,0,0,,,,,,,,,,,,,,,,,,,,,1,,,,,,,,,,,,,,,,,,,,,,,,,,,,,,,,,,,,,,,,,,,,,,106,158089,20,Female,1,2024/03/20_10:54:49,SD,None,
,,,,,,calibration,0,35,2,788,11,V,1,left,0.32849330200406257,1,0,,,,,,,,,,,,,,,,,,,,,1,,,,,,,,,,,,,,,,,,,,,,,,,,,,,,,,,,,,,,,,,,,,,,106,158089,20,Female,1,2024/03/20_10:54:49,SD,None,
,,,,,,calibration,0,35,2,788,12,X,0,right,0.3324079430021811,1,0,,,,,,,,,,,,,,,,,,,,,1,,,,,,,,,,,,,,,,,,,,,,,,,,,,,,,,,,,,,,,,,,,,,,106,158089,20,Female,1,2024/03/20_10:54:49,SD,None,
,,,,,,calibration,0,35,2,788,13,V,1,left,0.33714650399633683,1,0,,,,,,,,,,,,,,,,,,,,,1,,,,,,,,,,,,,,,,,,,,,,,,,,,,,,,,,,,,,,,,,,,,,,106,158089,20,Female,1,2024/03/20_10:54:49,SD,None,
,,,,,,calibration,0,35,2,788,,,,,,,,0.7916666666666666,0.5,0.1111111111111111,0.8571428571428571,0.15384615384615385,0.735042735042735,0.48940093390939926,2,1,0,2,2,6,8,4,9,0,,,,1,,,,,,,,,,,,,,,,,,,,,,,,,,,,,,,,,,,,,,,,,,,,,,106,158089,20,Female,1,2024/03/20_10:54:49,SD,None,
,,,,,,Calibration,0,,2,788,,,,,,,,,,,,,,,,,,,,,,,,,10,,,1,,,,,,,,,,,,,,,,,,,,,,,,,,,,,,,,,,,,,,,,,,,,,,106,158089,20,Female,1,2024/03/20_10:54:49,SD,None,
,,,,,,calibration,0,36,2,788,1,J,0,right,0.560622897988651,1,0,,,,,,,,,,,,,,,,,,,,,1,,,,,,,,,,,,,,,,,,,,,,,,,,,,,,,,,,,,,,,,,,,,,,106,158089,20,Female,1,2024/03/20_10:54:49,SD,None,
,,,,,,calibration,0,36,2,788,2,Q,0,right,0.28492312799789943,1,0,,,,,,,,,,,,,,,,,,,,,1,,,,,,,,,,,,,,,,,,,,,,,,,,,,,,,,,,,,,,,,,,,,,,106,158089,20,Female,1,2024/03/20_10:54:49,SD,None,
,,,,,,calibration,0,36,2,788,3,C,0,right,0.48155303100065794,1,0,,,,,,,,,,,,,,,,,,,,,1,,,,,,,,,,,,,,,,,,,,,,,,,,,,,,,,,,,,,,,,,,,,,,106,158089,20,Female,1,2024/03/20_10:54:49,SD,None,
,,,,,,calibration,0,36,2,788,4,S,0,right,0.556780112994602,1,0,,,,,,,,,,,,,,,,,,,,,1,,,,,,,,,,,,,,,,,,,,,,,,,,,,,,,,,,,,,,,,,,,,,,106,158089,20,Female,1,2024/03/20_10:54:49,SD,None,
,,,,,,calibration,0,36,2,788,5,C,1,left,0.48423882099450566,1,0,,,,,,,,,,,,,,,,,,,,,1,,,,,,,,,,,,,,,,,,,,,,,,,,,,,,,,,,,,,,,,,,,,,,106,158089,20,Female,1,2024/03/20_10:54:49,SD,None,
,,,,,,calibration,0,36,2,788,6,S,1,left,0.6650848579884041,1,0,,,,,,,,,,,,,,,,,,,,,1,,,,,,,,,,,,,,,,,,,,,,,,,,,,,,,,,,,,,,,,,,,,,,106,158089,20,Female,1,2024/03/20_10:54:49,SD,None,
,,,,,,calibration,0,36,2,788,7,N,0,left,0.5747205990046496,0,0,,,,,,,,,,,,,,,,,,,,,1,,,,,,,,,,,,,,,,,,,,,,,,,,,,,,,,,,,,,,,,,,,,,,106,158089,20,Female,1,2024/03/20_10:54:49,SD,None,
,,,,,,calibration,0,36,2,788,8,X,0,right,0.4769050629984122,1,0,,,,,,,,,,,,,,,,,,,,,1,,,,,,,,,,,,,,,,,,,,,,,,,,,,,,,,,,,,,,,,,,,,,,106,158089,20,Female,1,2024/03/20_10:54:49,SD,None,
,,,,,,calibration,0,36,2,788,9,C,0,right,0.6307798229972832,1,0,,,,,,,,,,,,,,,,,,,,,1,,,,,,,,,,,,,,,,,,,,,,,,,,,,,,,,,,,,,,,,,,,,,,106,158089,20,Female,1,2024/03/20_10:54:49,SD,None,
,,,,,,calibration,0,36,2,788,10,X,1,left,0.4610469540057238,1,0,,,,,,,,,,,,,,,,,,,,,1,,,,,,,,,,,,,,,,,,,,,,,,,,,,,,,,,,,,,,,,,,,,,,106,158089,20,Female,1,2024/03/20_10:54:49,SD,None,
,,,,,,calibration,0,36,2,788,11,C,1,right,0.47585545299807563,0,0,,,,,,,,,,,,,,,,,,,,,1,,,,,,,,,,,,,,,,,,,,,,,,,,,,,,,,,,,,,,,,,,,,,,106,158089,20,Female,1,2024/03/20_10:54:49,SD,None,
,,,,,,calibration,0,36,2,788,12,V,0,right,0.8158647130039753,1,0,,,,,,,,,,,,,,,,,,,,,1,,,,,,,,,,,,,,,,,,,,,,,,,,,,,,,,,,,,,,,,,,,,,,106,158089,20,Female,1,2024/03/20_10:54:49,SD,None,
,,,,,,calibration,0,36,2,788,13,S,0,left,0.4496755519940052,0,0,,,,,,,,,,,,,,,,,,,,,1,,,,,,,,,,,,,,,,,,,,,,,,,,,,,,,,,,,,,,,,,,,,,,106,158089,20,Female,1,2024/03/20_10:54:49,SD,None,
,,,,,,calibration,0,36,2,788,,,,,,,,0.8263888888888888,0.75,0.2222222222222222,0.7777777777777778,0.0,0.7777777777777778,0.5321577696897573,3,2,0,0,0,7,10,4,9,0,,,,1,,,,,,,,,,,,,,,,,,,,,,,,,,,,,,,,,,,,,,,,,,,,,,106,158089,20,Female,1,2024/03/20_10:54:49,SD,None,
,,,,,,Calibration,0,,2,788,,,,,,,,,,,,,,,,,,,,,,,,,11,,,1,,,,,,,,,,,,,,,,,,,,,,,,,,,,,,,,,,,,,,,,,,,,,,106,158089,20,Female,1,2024/03/20_10:54:49,SD,None,
,,,,,,calibration,0,21,2,788,1,N,0,right,0.5768649669917068,1,0,,,,,,,,,,,,,,,,,,,,,1,,,,,,,,,,,,,,,,,,,,,,,,,,,,,,,,,,,,,,,,,,,,,,106,158089,20,Female,1,2024/03/20_10:54:49,SD,None,
,,,,,,calibration,0,21,2,788,2,X,0,right,0.35928017999685835,1,0,,,,,,,,,,,,,,,,,,,,,1,,,,,,,,,,,,,,,,,,,,,,,,,,,,,,,,,,,,,,,,,,,,,,106,158089,20,Female,1,2024/03/20_10:54:49,SD,None,
,,,,,,calibration,0,21,2,788,3,N,1,left,0.5740669370134128,1,0,,,,,,,,,,,,,,,,,,,,,1,,,,,,,,,,,,,,,,,,,,,,,,,,,,,,,,,,,,,,,,,,,,,,106,158089,20,Female,1,2024/03/20_10:54:49,SD,None,
,,,,,,calibration,0,21,2,788,4,V,0,left,0.47925737900368404,0,0,,,,,,,,,,,,,,,,,,,,,1,,,,,,,,,,,,,,,,,,,,,,,,,,,,,,,,,,,,,,,,,,,,,,106,158089,20,Female,1,2024/03/20_10:54:49,SD,None,
,,,,,,calibration,0,21,2,788,5,N,1,left,0.5183604140038369,1,0,,,,,,,,,,,,,,,,,,,,,1,,,,,,,,,,,,,,,,,,,,,,,,,,,,,,,,,,,,,,,,,,,,,,106,158089,20,Female,1,2024/03/20_10:54:49,SD,None,
,,,,,,calibration,0,21,2,788,6,X,0,left,0.5291926029894967,0,0,,,,,,,,,,,,,,,,,,,,,1,,,,,,,,,,,,,,,,,,,,,,,,,,,,,,,,,,,,,,,,,,,,,,106,158089,20,Female,1,2024/03/20_10:54:49,SD,None,
,,,,,,calibration,0,21,2,788,7,V,0,right,0.2662903319869656,1,0,,,,,,,,,,,,,,,,,,,,,1,,,,,,,,,,,,,,,,,,,,,,,,,,,,,,,,,,,,,,,,,,,,,,106,158089,20,Female,1,2024/03/20_10:54:49,SD,None,
,,,,,,calibration,0,21,2,788,8,X,1,left,0.6497543800069252,1,0,,,,,,,,,,,,,,,,,,,,,1,,,,,,,,,,,,,,,,,,,,,,,,,,,,,,,,,,,,,,,,,,,,,,106,158089,20,Female,1,2024/03/20_10:54:49,SD,None,
,,,,,,calibration,0,21,2,788,9,F,0,right,0.35246144999109674,1,0,,,,,,,,,,,,,,,,,,,,,1,,,,,,,,,,,,,,,,,,,,,,,,,,,,,,,,,,,,,,,,,,,,,,106,158089,20,Female,1,2024/03/20_10:54:49,SD,None,
,,,,,,calibration,0,21,2,788,10,J,0,left,0.560251717994106,0,0,,,,,,,,,,,,,,,,,,,,,1,,,,,,,,,,,,,,,,,,,,,,,,,,,,,,,,,,,,,,,,,,,,,,106,158089,20,Female,1,2024/03/20_10:54:49,SD,None,
,,,,,,calibration,0,21,2,788,11,C,0,right,0.4918228010064922,1,0,,,,,,,,,,,,,,,,,,,,,1,,,,,,,,,,,,,,,,,,,,,,,,,,,,,,,,,,,,,,,,,,,,,,106,158089,20,Female,1,2024/03/20_10:54:49,SD,None,
,,,,,,calibration,0,21,2,788,12,J,1,right,0.4459599120018538,0,0,,,,,,,,,,,,,,,,,,,,,1,,,,,,,,,,,,,,,,,,,,,,,,,,,,,,,,,,,,,,,,,,,,,,106,158089,20,Female,1,2024/03/20_10:54:49,SD,None,
,,,,,,calibration,0,21,2,788,13,S,0,right,0.617867124004988,1,0,,,,,,,,,,,,,,,,,,,,,1,,,,,,,,,,,,,,,,,,,,,,,,,,,,,,,,,,,,,,,,,,,,,,106,158089,20,Female,1,2024/03/20_10:54:49,SD,None,
,,,,,,calibration,0,21,2,788,,,,,,,,0.7708333333333333,0.75,0.3333333333333333,0.6666666666666666,0.0,0.6666666666666667,0.49395616899934025,3,3,0,0,0,6,9,4,9,0,,,,1,,,,,,,,,,,,,,,,,,,,,,,,,,,,,,,,,,,,,,,,,,,,,,106,158089,20,Female,1,2024/03/20_10:54:49,SD,None,
,,,,,,Calibration,0,,2,788,,,,,,,,,,,,,,,,,,,,,,,,,12,,,1,,,,,,,,,,,,,,,,,,,,,,,,,,,,,,,,,,,,,,,,,,,,,,106,158089,20,Female,1,2024/03/20_10:54:49,SD,None,
,,,,,,calibration,0,30,2,788,1,Q,0,right,1.4439801989938132,1,0,,,,,,,,,,,,,,,,,,,,,1,,,,,,,,,,,,,,,,,,,,,,,,,,,,,,,,,,,,,,,,,,,,,,106,158089,20,Female,1,2024/03/20_10:54:49,SD,None,
,,,,,,calibration,0,30,2,788,2,S,0,right,0.359514499999932,1,0,,,,,,,,,,,,,,,,,,,,,1,,,,,,,,,,,,,,,,,,,,,,,,,,,,,,,,,,,,,,,,,,,,,,106,158089,20,Female,1,2024/03/20_10:54:49,SD,None,
,,,,,,calibration,0,30,2,788,3,F,0,right,0.4526728299970273,1,0,,,,,,,,,,,,,,,,,,,,,1,,,,,,,,,,,,,,,,,,,,,,,,,,,,,,,,,,,,,,,,,,,,,,106,158089,20,Female,1,2024/03/20_10:54:49,SD,None,
,,,,,,calibration,0,30,2,788,4,S,1,left,0.34465790700051,1,0,,,,,,,,,,,,,,,,,,,,,1,,,,,,,,,,,,,,,,,,,,,,,,,,,,,,,,,,,,,,,,,,,,,,106,158089,20,Female,1,2024/03/20_10:54:49,SD,None,
,,,,,,calibration,0,30,2,788,5,J,0,right,0.5995216430019354,1,0,,,,,,,,,,,,,,,,,,,,,1,,,,,,,,,,,,,,,,,,,,,,,,,,,,,,,,,,,,,,,,,,,,,,106,158089,20,Female,1,2024/03/20_10:54:49,SD,None,
,,,,,,calibration,0,30,2,788,6,S,1,left,0.45390861500345636,1,0,,,,,,,,,,,,,,,,,,,,,1,,,,,,,,,,,,,,,,,,,,,,,,,,,,,,,,,,,,,,,,,,,,,,106,158089,20,Female,1,2024/03/20_10:54:49,SD,None,
,,,,,,calibration,0,30,2,788,7,V,0,right,0.543249337002635,1,0,,,,,,,,,,,,,,,,,,,,,1,,,,,,,,,,,,,,,,,,,,,,,,,,,,,,,,,,,,,,,,,,,,,,106,158089,20,Female,1,2024/03/20_10:54:49,SD,None,
,,,,,,calibration,0,30,2,788,8,S,1,right,0.49763892400369514,0,0,,,,,,,,,,,,,,,,,,,,,1,,,,,,,,,,,,,,,,,,,,,,,,,,,,,,,,,,,,,,,,,,,,,,106,158089,20,Female,1,2024/03/20_10:54:49,SD,None,
,,,,,,calibration,0,30,2,788,9,J,0,right,0.9708323219965678,1,0,,,,,,,,,,,,,,,,,,,,,1,,,,,,,,,,,,,,,,,,,,,,,,,,,,,,,,,,,,,,,,,,,,,,106,158089,20,Female,1,2024/03/20_10:54:49,SD,None,
,,,,,,calibration,0,30,2,788,10,F,0,right,0.5858674229966709,1,0,,,,,,,,,,,,,,,,,,,,,1,,,,,,,,,,,,,,,,,,,,,,,,,,,,,,,,,,,,,,,,,,,,,,106,158089,20,Female,1,2024/03/20_10:54:49,SD,None,
,,,,,,calibration,0,30,2,788,11,J,1,right,0.6222706920088967,0,0,,,,,,,,,,,,,,,,,,,,,1,,,,,,,,,,,,,,,,,,,,,,,,,,,,,,,,,,,,,,,,,,,,,,106,158089,20,Female,1,2024/03/20_10:54:49,SD,None,
,,,,,,calibration,0,30,2,788,12,Q,0,right,0.7227733740000986,1,0,,,,,,,,,,,,,,,,,,,,,1,,,,,,,,,,,,,,,,,,,,,,,,,,,,,,,,,,,,,,,,,,,,,,106,158089,20,Female,1,2024/03/20_10:54:49,SD,None,
,,,,,,calibration,0,30,2,788,13,F,0,left,0.4914760289975675,0,0,,,,,,,,,,,,,,,,,,,,,1,,,,,,,,,,,,,,,,,,,,,,,,,,,,,,,,,,,,,,,,,,,,,,106,158089,20,Female,1,2024/03/20_10:54:49,SD,None,
,,,,,,calibration,0,30,2,788,,,,,,,,0.7916666666666666,0.5,0.1111111111111111,0.8888888888888888,0.0,0.8888888888888888,0.6221818303848312,2,1,0,0,0,8,10,4,9,0,,,,1,,,,,,,,,,,,,,,,,,,,,,,,,,,,,,,,,,,,,,,,,,,,,,106,158089,20,Female,1,2024/03/20_10:54:49,SD,None,
,,,,,,Calibration,0,,2,788,,,,,,,,,,,,,,,,,,,,,,,,,13,,,1,,,,,,,,,,,,,,,,,,,,,,,,,,,,,,,,,,,,,,,,,,,,,,106,158089,20,Female,1,2024/03/20_10:54:49,SD,None,
,,,,,,calibration,0,28,2,788,1,V,0,right,0.4084369850024814,1,0,,,,,,,,,,,,,,,,,,,,,1,,,,,,,,,,,,,,,,,,,,,,,,,,,,,,,,,,,,,,,,,,,,,,106,158089,20,Female,1,2024/03/20_10:54:49,SD,None,
,,,,,,calibration,0,28,2,788,2,V,0,right,0.5252526359981857,1,0,,,,,,,,,,,,,,,,,,,,,1,,,,,,,,,,,,,,,,,,,,,,,,,,,,,,,,,,,,,,,,,,,,,,106,158089,20,Female,1,2024/03/20_10:54:49,SD,None,
,,,,,,calibration,0,28,2,788,3,F,0,right,0.582532546002767,1,0,,,,,,,,,,,,,,,,,,,,,1,,,,,,,,,,,,,,,,,,,,,,,,,,,,,,,,,,,,,,,,,,,,,,106,158089,20,Female,1,2024/03/20_10:54:49,SD,None,
,,,,,,calibration,0,28,2,788,4,X,0,left,0.6480966629897011,0,0,,,,,,,,,,,,,,,,,,,,,1,,,,,,,,,,,,,,,,,,,,,,,,,,,,,,,,,,,,,,,,,,,,,,106,158089,20,Female,1,2024/03/20_10:54:49,SD,None,
,,,,,,calibration,0,28,2,788,5,F,1,right,0.7244083789992146,0,0,,,,,,,,,,,,,,,,,,,,,1,,,,,,,,,,,,,,,,,,,,,,,,,,,,,,,,,,,,,,,,,,,,,,106,158089,20,Female,1,2024/03/20_10:54:49,SD,None,
,,,,,,calibration,0,28,2,788,6,V,0,left,0.3850870030000806,0,0,,,,,,,,,,,,,,,,,,,,,1,,,,,,,,,,,,,,,,,,,,,,,,,,,,,,,,,,,,,,,,,,,,,,106,158089,20,Female,1,2024/03/20_10:54:49,SD,None,
,,,,,,calibration,0,28,2,788,7,F,1,right,0.4315958170045633,0,0,,,,,,,,,,,,,,,,,,,,,1,,,,,,,,,,,,,,,,,,,,,,,,,,,,,,,,,,,,,,,,,,,,,,106,158089,20,Female,1,2024/03/20_10:54:49,SD,None,
,,,,,,calibration,0,28,2,788,8,Q,0,left,0.3807773730077315,0,0,,,,,,,,,,,,,,,,,,,,,1,,,,,,,,,,,,,,,,,,,,,,,,,,,,,,,,,,,,,,,,,,,,,,106,158089,20,Female,1,2024/03/20_10:54:49,SD,None,
,,,,,,calibration,0,28,2,788,9,S,0,right,0.47443989700695965,1,0,,,,,,,,,,,,,,,,,,,,,1,,,,,,,,,,,,,,,,,,,,,,,,,,,,,,,,,,,,,,,,,,,,,,106,158089,20,Female,1,2024/03/20_10:54:49,SD,None,
,,,,,,calibration,0,28,2,788,10,Q,1,right,0.5706748850061558,0,0,,,,,,,,,,,,,,,,,,,,,1,,,,,,,,,,,,,,,,,,,,,,,,,,,,,,,,,,,,,,,,,,,,,,106,158089,20,Female,1,2024/03/20_10:54:49,SD,None,
,,,,,,calibration,0,28,2,788,11,F,0,left,0.38550386199494824,0,0,,,,,,,,,,,,,,,,,,,,,1,,,,,,,,,,,,,,,,,,,,,,,,,,,,,,,,,,,,,,,,,,,,,,106,158089,20,Female,1,2024/03/20_10:54:49,SD,None,
,,,,,,calibration,0,28,2,788,12,Q,1,right,0.5315029119956307,0,0,,,,,,,,,,,,,,,,,,,,,1,,,,,,,,,,,,,,,,,,,,,,,,,,,,,,,,,,,,,,,,,,,,,,106,158089,20,Female,1,2024/03/20_10:54:49,SD,None,
,,,,,,calibration,0,28,2,788,13,J,0,right,0.5581323929945938,1,0,,,,,,,,,,,,,,,,,,,,,1,,,,,,,,,,,,,,,,,,,,,,,,,,,,,,,,,,,,,,,,,,,,,,106,158089,20,Female,1,2024/03/20_10:54:49,SD,None,
,,,,,,calibration,0,28,2,788,,,,,,,,0.1388888888888889,0.0,0.4444444444444444,0.5555555555555556,0.0,0.5555555555555556,0.5081877962310011,0,4,0,0,0,5,5,4,9,0,,,,1,,,,,,,,,,,,,,,,,,,,,,,,,,,,,,,,,,,,,,,,,,,,,,106,158089,20,Female,1,2024/03/20_10:54:49,SD,None,
,,,,,,Calibration,0,,2,788,,,,,,,,,,,,,,,,,,,,,,,,,14,,,1,,,,,,,,,,,,,,,,,,,,,,,,,,,,,,,,,,,,,,,,,,,,,,106,158089,20,Female,1,2024/03/20_10:54:49,SD,None,
,,,,,,calibration,0,26,2,917,1,C,0,right,0.4804224300023634,1,0,,,,,,,,,,,,,,,,,,,,,1,,,,,,,,,,,,,,,,,,,,,,,,,,,,,,,,,,,,,,,,,,,,,,106,158089,20,Female,1,2024/03/20_10:54:49,SD,None,
,,,,,,calibration,0,26,2,917,2,C,0,right,0.49232532700989395,1,0,,,,,,,,,,,,,,,,,,,,,1,,,,,,,,,,,,,,,,,,,,,,,,,,,,,,,,,,,,,,,,,,,,,,106,158089,20,Female,1,2024/03/20_10:54:49,SD,None,
,,,,,,calibration,0,26,2,917,3,J,0,right,0.5747506589978002,1,0,,,,,,,,,,,,,,,,,,,,,1,,,,,,,,,,,,,,,,,,,,,,,,,,,,,,,,,,,,,,,,,,,,,,106,158089,20,Female,1,2024/03/20_10:54:49,SD,None,
,,,,,,calibration,0,26,2,917,4,F,0,right,0.6051590320130344,1,0,,,,,,,,,,,,,,,,,,,,,1,,,,,,,,,,,,,,,,,,,,,,,,,,,,,,,,,,,,,,,,,,,,,,106,158089,20,Female,1,2024/03/20_10:54:49,SD,None,
,,,,,,calibration,0,26,2,917,5,J,1,left,0.3593628289963817,1,0,,,,,,,,,,,,,,,,,,,,,1,,,,,,,,,,,,,,,,,,,,,,,,,,,,,,,,,,,,,,,,,,,,,,106,158089,20,Female,1,2024/03/20_10:54:49,SD,None,
,,,,,,calibration,0,26,2,917,6,N,0,right,0.46024433699494693,1,0,,,,,,,,,,,,,,,,,,,,,1,,,,,,,,,,,,,,,,,,,,,,,,,,,,,,,,,,,,,,,,,,,,,,106,158089,20,Female,1,2024/03/20_10:54:49,SD,None,
,,,,,,calibration,0,26,2,917,7,X,0,right,0.7414617739996174,1,0,,,,,,,,,,,,,,,,,,,,,1,,,,,,,,,,,,,,,,,,,,,,,,,,,,,,,,,,,,,,,,,,,,,,106,158089,20,Female,1,2024/03/20_10:54:49,SD,None,
,,,,,,calibration,0,26,2,917,8,S,0,left,0.6087115179980174,0,0,,,,,,,,,,,,,,,,,,,,,1,,,,,,,,,,,,,,,,,,,,,,,,,,,,,,,,,,,,,,,,,,,,,,106,158089,20,Female,1,2024/03/20_10:54:49,SD,None,
,,,,,,calibration,0,26,2,917,9,Q,0,right,0.37921556099900045,1,0,,,,,,,,,,,,,,,,,,,,,1,,,,,,,,,,,,,,,,,,,,,,,,,,,,,,,,,,,,,,,,,,,,,,106,158089,20,Female,1,2024/03/20_10:54:49,SD,None,
,,,,,,calibration,0,26,2,917,10,C,0,right,0.3408348500088323,1,0,,,,,,,,,,,,,,,,,,,,,1,,,,,,,,,,,,,,,,,,,,,,,,,,,,,,,,,,,,,,,,,,,,,,106,158089,20,Female,1,2024/03/20_10:54:49,SD,None,
,,,,,,calibration,0,26,2,917,11,Q,1,left,0.6747524020029232,1,0,,,,,,,,,,,,,,,,,,,,,1,,,,,,,,,,,,,,,,,,,,,,,,,,,,,,,,,,,,,,,,,,,,,,106,158089,20,Female,1,2024/03/20_10:54:49,SD,None,
,,,,,,calibration,0,26,2,917,12,C,1,right,0.23713474499527365,0,0,,,,,,,,,,,,,,,,,,,,,1,,,,,,,,,,,,,,,,,,,,,,,,,,,,,,,,,,,,,,,,,,,,,,106,158089,20,Female,1,2024/03/20_10:54:49,SD,None,
,,,,,,calibration,0,26,2,917,,,,,,,,0.8518518518518517,0.6666666666666666,0.1111111111111111,0.8888888888888888,0.0,0.8888888888888888,0.4961979553348404,2,1,0,0,0,8,10,3,9,0,,,,1,,,,,,,,,,,,,,,,,,,,,,,,,,,,,,,,,,,,,,,,,,,,,,106,158089,20,Female,1,2024/03/20_10:54:49,SD,None,
,,,,,,Calibration,0,,2,917,,,,,,,,,,,,,,,,,,,,,,,,,15,,,1,,,,,,,,,,,,,,,,,,,,,,,,,,,,,,,,,,,,,,,,,,,,,,106,158089,20,Female,1,2024/03/20_10:54:49,SD,None,
,,,,,,CALIBRATION,0,,,,,,,,,,,,,,,,,,,,,,,,,,,,15,0.8518518518518517,917,1,,,,,,,,,,,,,,,,,,,,,,,,,,,,,,,,,,,,,,,,,,,,,,106,158089,20,Female,1,2024/03/20_10:54:49,SD,None,
1,./instructions/inst_prac_1/Slide24.png,right,21.3404965630034,464.561617408006,485.9021139710094,,,,,,,,,,,,,,,,,,,,,,,,,,,,,,,,,1,,,,,,,,,,,,,,,,,,,,,,,,,,,,,,,,,,,,,,,,,,,,,,106,158089,20,Female,1,2024/03/20_10:54:49,SD,None,
2,./instructions/inst_prac_1/Slide25.png,right,3.052998100989498,485.9290808010119,488.9820789020014,,,,,,,,,,,,,,,,,,,,,,,,,,,,,,,,,1,,,,,,,,,,,,,,,,,,,,,,,,,,,,,,,,,,,,,,,,,,,,,,106,158089,20,Female,1,2024/03/20_10:54:49,SD,None,
3,./instructions/inst_prac_1/Slide26.png,right,1.1791357369947946,489.01087226001255,490.19000799700734,,,,,,,,,,,,,,,,,,,,,,,,,,,,,,,,,1,,,,,,,,,,,,,,,,,,,,,,,,,,,,,,,,,,,,,,,,,,,,,,106,158089,20,Female,1,2024/03/20_10:54:49,SD,None,
4,./instructions/inst_prac_1/Slide27.png,right,1.7420579330064356,490.21604598200065,491.9581039150071,,,,,,,,,,,,,,,,,,,,,,,,,,,,,,,,,1,,,,,,,,,,,,,,,,,,,,,,,,,,,,,,,,,,,,,,,,,,,,,,106,158089,20,Female,1,2024/03/20_10:54:49,SD,None,
3,./instructions/inst_prac_1/Slide28.png,left,0.48588860900781583,491.98424680800235,492.47013541701017,,,,,,,,,,,,,,,,,,,,,,,,,,,,,,,,,1,,,,,,,,,,,,,,,,,,,,,,,,,,,,,,,,,,,,,,,,,,,,,,106,158089,20,Female,1,2024/03/20_10:54:49,SD,None,
4,./instructions/inst_prac_1/Slide27.png,right,2.9712975489965174,492.4989304010087,495.4702279500052,,,,,,,,,,,,,,,,,,,,,,,,,,,,,,,,,1,,,,,,,,,,,,,,,,,,,,,,,,,,,,,,,,,,,,,,,,,,,,,,106,158089,20,Female,1,2024/03/20_10:54:49,SD,None,
5,./instructions/inst_prac_1/Slide28.png,right,2.395338582995464,495.49872207600856,497.894060659004,,,,,,,,,,,,,,,,,,,,,,,,,,,,,,,,,1,,,,,,,,,,,,,,,,,,,,,,,,,,,,,,,,,,,,,,,,,,,,,,106,158089,20,Female,1,2024/03/20_10:54:49,SD,None,
6,./instructions/inst_prac_1/Slide29.png,right,6.476973975994042,497.9212125940103,504.3981865700043,,,,,,,,,,,,,,,,,,,,,,,,,,,,,,,,,1,,,,,,,,,,,,,,,,,,,,,,,,,,,,,,,,,,,,,,,,,,,,,,106,158089,20,Female,1,2024/03/20_10:54:49,SD,None,
7,./instructions/inst_prac_1/Slide30.png,right,4.388467255994328,504.4255406630109,508.81400791900523,,,,,,,,,,,,,,,,,,,,,,,,,,,,,,,,,1,,,,,,,,,,,,,,,,,,,,,,,,,,,,,,,,,,,,,,,,,,,,,,106,158089,20,Female,1,2024/03/20_10:54:49,SD,None,
,,,,,,practice,0,35,1,1250,1,X,0,right,2.765453061001608,1,0,,,,,,,,,,,,,,,,,,,,,1,,,,,,,,,,,,,,,,,,,,,,,,,,,,,,,,,,,,,,,,,,,,,,106,158089,20,Female,1,2024/03/20_10:54:49,SD,None,
,,,,,,practice,0,35,1,1250,2,C,0,right,2.9806131070072297,1,0,,,,,,,,,,,,,,,,,,,,,1,,,,,,,,,,,,,,,,,,,,,,,,,,,,,,,,,,,,,,,,,,,,,,106,158089,20,Female,1,2024/03/20_10:54:49,SD,None,
,,,,,,practice,0,35,1,1250,3,C,1,left,2.0539211759896716,1,0,,,,,,,,,,,,,,,,,,,,,1,,,,,,,,,,,,,,,,,,,,,,,,,,,,,,,,,,,,,,,,,,,,,,106,158089,20,Female,1,2024/03/20_10:54:49,SD,None,
,,,,,,practice,0,35,1,1250,4,S,0,right,1.236132156001986,1,0,,,,,,,,,,,,,,,,,,,,,1,,,,,,,,,,,,,,,,,,,,,,,,,,,,,,,,,,,,,,,,,,,,,,106,158089,20,Female,1,2024/03/20_10:54:49,SD,None,
,,,,,,practice,0,35,1,1250,5,J,0,right,0.7722832879953785,1,0,,,,,,,,,,,,,,,,,,,,,1,,,,,,,,,,,,,,,,,,,,,,,,,,,,,,,,,,,,,,,,,,,,,,106,158089,20,Female,1,2024/03/20_10:54:49,SD,None,
,,,,,,practice,0,35,1,1250,6,F,0,right,0.560845653002616,1,0,,,,,,,,,,,,,,,,,,,,,1,,,,,,,,,,,,,,,,,,,,,,,,,,,,,,,,,,,,,,,,,,,,,,106,158089,20,Female,1,2024/03/20_10:54:49,SD,None,
,,,,,,practice,0,35,1,1250,7,N,0,right,0.5332433889998356,1,0,,,,,,,,,,,,,,,,,,,,,1,,,,,,,,,,,,,,,,,,,,,,,,,,,,,,,,,,,,,,,,,,,,,,106,158089,20,Female,1,2024/03/20_10:54:49,SD,None,
,,,,,,practice,0,35,1,1250,8,N,1,left,0.708429292004439,1,0,,,,,,,,,,,,,,,,,,,,,1,,,,,,,,,,,,,,,,,,,,,,,,,,,,,,,,,,,,,,,,,,,,,,106,158089,20,Female,1,2024/03/20_10:54:49,SD,None,
,,,,,,practice,0,35,1,1250,9,X,0,right,0.6634947639977327,1,0,,,,,,,,,,,,,,,,,,,,,1,,,,,,,,,,,,,,,,,,,,,,,,,,,,,,,,,,,,,,,,,,,,,,106,158089,20,Female,1,2024/03/20_10:54:49,SD,None,
,,,,,,practice,0,35,1,1250,10,X,1,left,0.5567150490096537,1,0,,,,,,,,,,,,,,,,,,,,,1,,,,,,,,,,,,,,,,,,,,,,,,,,,,,,,,,,,,,,,,,,,,,,106,158089,20,Female,1,2024/03/20_10:54:49,SD,None,
,,,,,,practice,0,35,1,1250,,,,,,,,1.0,1.0,0.0,1.0,0.0,1.0,1.283113093501015,3,0,0,0,0,7,10,3,7,0,,,,1,,,,,,,,,,,,,,,,,,,,,,,,,,,,,,,,,,,,,,,,,,,,,,106,158089,20,Female,1,2024/03/20_10:54:49,SD,None,
1,./instructions/inst_prac_1_next/Slide35.png,right,1.8913905509980395,532.1787396920117,534.0701302430098,,,,,,,,,,,,,,,,,,,,,,,,,,,,,,,,,1,,,,,,,,,,,,,,,,,,,,,,,,,,,,,,,,,,,,,,,,,,,,,,106,158089,20,Female,1,2024/03/20_10:54:49,SD,None,
,,,,,,practice,0,10,1,917,1,N,0,right,1.1243973250093404,1,0,,,,,,,,,,,,,,,,,,,,,1,,,,,,,,,,,,,,,,,,,,,,,,,,,,,,,,,,,,,,,,,,,,,,106,158089,20,Female,1,2024/03/20_10:54:49,SD,None,
,,,,,,practice,0,10,1,917,2,C,0,right,0.46528118499554694,1,0,,,,,,,,,,,,,,,,,,,,,1,,,,,,,,,,,,,,,,,,,,,,,,,,,,,,,,,,,,,,,,,,,,,,106,158089,20,Female,1,2024/03/20_10:54:49,SD,None,
,,,,,,practice,0,10,1,917,3,C,1,left,0.37802803800150286,1,0,,,,,,,,,,,,,,,,,,,,,1,,,,,,,,,,,,,,,,,,,,,,,,,,,,,,,,,,,,,,,,,,,,,,106,158089,20,Female,1,2024/03/20_10:54:49,SD,None,
,,,,,,practice,0,10,1,917,4,S,0,right,0.7918507790018339,1,0,,,,,,,,,,,,,,,,,,,,,1,,,,,,,,,,,,,,,,,,,,,,,,,,,,,,,,,,,,,,,,,,,,,,106,158089,20,Female,1,2024/03/20_10:54:49,SD,None,
,,,,,,practice,0,10,1,917,5,N,0,right,0.7763175240106648,1,0,,,,,,,,,,,,,,,,,,,,,1,,,,,,,,,,,,,,,,,,,,,,,,,,,,,,,,,,,,,,,,,,,,,,106,158089,20,Female,1,2024/03/20_10:54:49,SD,None,
,,,,,,practice,0,10,1,917,6,V,0,right,0.6014535810099915,1,0,,,,,,,,,,,,,,,,,,,,,1,,,,,,,,,,,,,,,,,,,,,,,,,,,,,,,,,,,,,,,,,,,,,,106,158089,20,Female,1,2024/03/20_10:54:49,SD,None,
,,,,,,practice,0,10,1,917,7,V,1,left,0.4557976710057119,1,0,,,,,,,,,,,,,,,,,,,,,1,,,,,,,,,,,,,,,,,,,,,,,,,,,,,,,,,,,,,,,,,,,,,,106,158089,20,Female,1,2024/03/20_10:54:49,SD,None,
,,,,,,practice,0,10,1,917,8,S,0,right,0.6311908750067232,1,0,,,,,,,,,,,,,,,,,,,,,1,,,,,,,,,,,,,,,,,,,,,,,,,,,,,,,,,,,,,,,,,,,,,,106,158089,20,Female,1,2024/03/20_10:54:49,SD,None,
,,,,,,practice,0,10,1,917,9,X,0,left,0.44527334898884874,0,0,,,,,,,,,,,,,,,,,,,,,1,,,,,,,,,,,,,,,,,,,,,,,,,,,,,,,,,,,,,,,,,,,,,,106,158089,20,Female,1,2024/03/20_10:54:49,SD,None,
,,,,,,practice,0,10,1,917,10,X,1,left,0.6850944619945949,1,0,,,,,,,,,,,,,,,,,,,,,1,,,,,,,,,,,,,,,,,,,,,,,,,,,,,,,,,,,,,,,,,,,,,,106,158089,20,Female,1,2024/03/20_10:54:49,SD,None,
,,,,,,practice,0,10,1,917,11,S,0,right,0.6236290359956911,1,0,,,,,,,,,,,,,,,,,,,,,1,,,,,,,,,,,,,,,,,,,,,,,,,,,,,,,,,,,,,,,,,,,,,,106,158089,20,Female,1,2024/03/20_10:54:49,SD,None,
,,,,,,practice,0,10,1,917,12,V,0,left,0.624294203997124,0,0,,,,,,,,,,,,,,,,,,,,,1,,,,,,,,,,,,,,,,,,,,,,,,,,,,,,,,,,,,,,,,,,,,,,106,158089,20,Female,1,2024/03/20_10:54:49,SD,None,
,,,,,,practice,0,10,1,917,,,,,,,,0.9444444444444444,1.0,0.2222222222222222,0.7777777777777778,0.0,0.7777777777777778,0.6335506690847978,3,2,0,0,0,7,10,3,9,0,,,,1,,,,,,,,,,,,,,,,,,,,,,,,,,,,,,,,,,,,,,,,,,,,,,106,158089,20,Female,1,2024/03/20_10:54:49,SD,None,
,,,,,,practice,0,24,1,917,1,F,0,right,0.8674224589922233,1,0,,,,,,,,,,,,,,,,,,,,,1,,,,,,,,,,,,,,,,,,,,,,,,,,,,,,,,,,,,,,,,,,,,,,106,158089,20,Female,1,2024/03/20_10:54:49,SD,None,
,,,,,,practice,0,24,1,917,2,F,1,left,0.6985209209960885,1,0,,,,,,,,,,,,,,,,,,,,,1,,,,,,,,,,,,,,,,,,,,,,,,,,,,,,,,,,,,,,,,,,,,,,106,158089,20,Female,1,2024/03/20_10:54:49,SD,None,
,,,,,,practice,0,24,1,917,3,C,0,right,0.7116150649962947,1,0,,,,,,,,,,,,,,,,,,,,,1,,,,,,,,,,,,,,,,,,,,,,,,,,,,,,,,,,,,,,,,,,,,,,106,158089,20,Female,1,2024/03/20_10:54:49,SD,None,
,,,,,,practice,0,24,1,917,4,S,0,right,0.6162760750012239,1,0,,,,,,,,,,,,,,,,,,,,,1,,,,,,,,,,,,,,,,,,,,,,,,,,,,,,,,,,,,,,,,,,,,,,106,158089,20,Female,1,2024/03/20_10:54:49,SD,None,
,,,,,,practice,0,24,1,917,5,S,1,left,0.7167747229977977,1,0,,,,,,,,,,,,,,,,,,,,,1,,,,,,,,,,,,,,,,,,,,,,,,,,,,,,,,,,,,,,,,,,,,,,106,158089,20,Female,1,2024/03/20_10:54:49,SD,None,
,,,,,,practice,0,24,1,917,6,V,0,right,0.5283132850017864,1,0,,,,,,,,,,,,,,,,,,,,,1,,,,,,,,,,,,,,,,,,,,,,,,,,,,,,,,,,,,,,,,,,,,,,106,158089,20,Female,1,2024/03/20_10:54:49,SD,None,
,,,,,,practice,0,24,1,917,7,J,0,right,0.5845567890064558,1,0,,,,,,,,,,,,,,,,,,,,,1,,,,,,,,,,,,,,,,,,,,,,,,,,,,,,,,,,,,,,,,,,,,,,106,158089,20,Female,1,2024/03/20_10:54:49,SD,None,
,,,,,,practice,0,24,1,917,8,F,0,right,0.5919794280052884,1,0,,,,,,,,,,,,,,,,,,,,,1,,,,,,,,,,,,,,,,,,,,,,,,,,,,,,,,,,,,,,,,,,,,,,106,158089,20,Female,1,2024/03/20_10:54:49,SD,None,
,,,,,,practice,0,24,1,917,9,F,1,left,0.3375753989967052,1,0,,,,,,,,,,,,,,,,,,,,,1,,,,,,,,,,,,,,,,,,,,,,,,,,,,,,,,,,,,,,,,,,,,,,106,158089,20,Female,1,2024/03/20_10:54:49,SD,None,
,,,,,,practice,0,24,1,917,10,X,0,right,0.5938893519924022,1,0,,,,,,,,,,,,,,,,,,,,,1,,,,,,,,,,,,,,,,,,,,,,,,,,,,,,,,,,,,,,,,,,,,,,106,158089,20,Female,1,2024/03/20_10:54:49,SD,None,
,,,,,,practice,0,24,1,917,11,F,0,right,0.6560637570073595,1,0,,,,,,,,,,,,,,,,,,,,,1,,,,,,,,,,,,,,,,,,,,,,,,,,,,,,,,,,,,,,,,,,,,,,106,158089,20,Female,1,2024/03/20_10:54:49,SD,None,
,,,,,,practice,0,24,1,917,12,F,1,left,0.6639981290063588,1,0,,,,,,,,,,,,,,,,,,,,,1,,,,,,,,,,,,,,,,,,,,,,,,,,,,,,,,,,,,,,,,,,,,,,106,158089,20,Female,1,2024/03/20_10:54:49,SD,None,
,,,,,,practice,0,24,1,917,,,,,,,,1.0,1.0,0.0,1.0,0.0,1.0,0.6305821151666654,4,0,0,0,0,8,12,4,8,0,,,,1,,,,,,,,,,,,,,,,,,,,,,,,,,,,,,,,,,,,,,,,,,,,,,106,158089,20,Female,1,2024/03/20_10:54:49,SD,None,
1,./instructions/inst_prac_3/Slide37.png,right,4.084561986994231,565.9535457980091,570.0381077850034,,,,,,,,,,,,,,,,,,,,,,,,,,,,,,,,,1,,,,,,,,,,,,,,,,,,,,,,,,,,,,,,,,,,,,,,,,,,,,,,106,158089,20,Female,1,2024/03/20_10:54:49,SD,None,
2,./instructions/inst_prac_3/Slide38.png,right,8.451093404000858,570.0670426580036,578.5181360620045,,,,,,,,,,,,,,,,,,,,,,,,,,,,,,,,,1,,,,,,,,,,,,,,,,,,,,,,,,,,,,,,,,,,,,,,,,,,,,,,106,158089,20,Female,1,2024/03/20_10:54:49,SD,None,
3,./instructions/inst_prac_3/Slide39.png,right,0.9239830779988552,578.5460737890098,579.4700568670087,,,,,,,,,,,,,,,,,,,,,,,,,,,,,,,,,1,,,,,,,,,,,,,,,,,,,,,,,,,,,,,,,,,,,,,,,,,,,,,,106,158089,20,Female,1,2024/03/20_10:54:49,SD,None,
4,./instructions/inst_prac_3/Slide40.png,right,1.365040142001817,579.4970540610084,580.8620942030102,,,,,,,,,,,,,,,,,,,,,,,,,,,,,,,,,1,,,,,,,,,,,,,,,,,,,,,,,,,,,,,,,,,,,,,,,,,,,,,,106,158089,20,Female,1,2024/03/20_10:54:49,SD,None,
5,./instructions/inst_prac_3/Slide41.png,right,1.1629783459939063,580.8910605530109,582.0540388990048,,,,,,,,,,,,,,,,,,,,,,,,,,,,,,,,,1,,,,,,,,,,,,,,,,,,,,,,,,,,,,,,,,,,,,,,,,,,,,,,106,158089,20,Female,1,2024/03/20_10:54:49,SD,None,
6,./instructions/inst_prac_3/Slide42.png,right,1.7241717660072027,582.0818174760061,583.8059892420133,,,,,,,,,,,,,,,,,,,,,,,,,,,,,,,,,1,,,,,,,,,,,,,,,,,,,,,,,,,,,,,,,,,,,,,,,,,,,,,,106,158089,20,Female,1,2024/03/20_10:54:49,SD,None,
7,./instructions/inst_prac_3/Slide43.png,right,0.9966252839949448,583.833504951006,584.830130235001,,,,,,,,,,,,,,,,,,,,,,,,,,,,,,,,,1,,,,,,,,,,,,,,,,,,,,,,,,,,,,,,,,,,,,,,,,,,,,,,106,158089,20,Female,1,2024/03/20_10:54:49,SD,None,
8,./instructions/inst_prac_3/Slide44.png,right,3.642404701997293,584.8596242300118,588.5020289320091,,,,,,,,,,,,,,,,,,,,,,,,,,,,,,,,,1,,,,,,,,,,,,,,,,,,,,,,,,,,,,,,,,,,,,,,,,,,,,,,106,158089,20,Female,1,2024/03/20_10:54:49,SD,None,
,,,,,,practice,0,22,3,788,1,X,0,right,1.1790964719984913,1,0,,,,,,,,,,,,,,,,,,,,,1,,,,,,,,,,,,,,,,,,,,,,,,,,,,,,,,,,,,,,,,,,,,,,106,158089,20,Female,1,2024/03/20_10:54:49,SD,None,
,,,,,,practice,0,22,3,788,2,F,0,right,0.8519805240066489,1,0,,,,,,,,,,,,,,,,,,,,,1,,,,,,,,,,,,,,,,,,,,,,,,,,,,,,,,,,,,,,,,,,,,,,106,158089,20,Female,1,2024/03/20_10:54:49,SD,None,
,,,,,,practice,0,22,3,788,3,S,0,right,0.5051748910045717,1,0,,,,,,,,,,,,,,,,,,,,,1,,,,,,,,,,,,,,,,,,,,,,,,,,,,,,,,,,,,,,,,,,,,,,106,158089,20,Female,1,2024/03/20_10:54:49,SD,None,
,,,,,,practice,0,22,3,788,4,Q,0,right,0.9400762349978322,1,0,,,,,,,,,,,,,,,,,,,,,1,,,,,,,,,,,,,,,,,,,,,,,,,,,,,,,,,,,,,,,,,,,,,,106,158089,20,Female,1,2024/03/20_10:54:49,SD,None,
,,,,,,practice,0,22,3,788,5,F,1,left,0.6864938179933233,1,0,,,,,,,,,,,,,,,,,,,,,1,,,,,,,,,,,,,,,,,,,,,,,,,,,,,,,,,,,,,,,,,,,,,,106,158089,20,Female,1,2024/03/20_10:54:49,SD,None,
,,,,,,practice,0,22,3,788,6,Q,0,right,0.9752947530068923,1,0,,,,,,,,,,,,,,,,,,,,,1,,,,,,,,,,,,,,,,,,,,,,,,,,,,,,,,,,,,,,,,,,,,,,106,158089,20,Female,1,2024/03/20_10:54:49,SD,None,
,,,,,,practice,0,22,3,788,7,N,0,right,0.7968642219930189,1,0,,,,,,,,,,,,,,,,,,,,,1,,,,,,,,,,,,,,,,,,,,,,,,,,,,,,,,,,,,,,,,,,,,,,106,158089,20,Female,1,2024/03/20_10:54:49,SD,None,
,,,,,,practice,0,22,3,788,8,F,1,left,0.70223561101011,1,0,,,,,,,,,,,,,,,,,,,,,1,,,,,,,,,,,,,,,,,,,,,,,,,,,,,,,,,,,,,,,,,,,,,,106,158089,20,Female,1,2024/03/20_10:54:49,SD,None,
,,,,,,practice,0,22,3,788,9,J,0,right,0.7170060859934893,1,0,,,,,,,,,,,,,,,,,,,,,1,,,,,,,,,,,,,,,,,,,,,,,,,,,,,,,,,,,,,,,,,,,,,,106,158089,20,Female,1,2024/03/20_10:54:49,SD,None,
,,,,,,practice,0,22,3,788,10,N,1,left,0.7247694560064701,1,0,,,,,,,,,,,,,,,,,,,,,1,,,,,,,,,,,,,,,,,,,,,,,,,,,,,,,,,,,,,,,,,,,,,,106,158089,20,Female,1,2024/03/20_10:54:49,SD,None,
,,,,,,practice,0,22,3,788,11,V,0,right,0.9988612970046233,1,0,,,,,,,,,,,,,,,,,,,,,1,,,,,,,,,,,,,,,,,,,,,,,,,,,,,,,,,,,,,,,,,,,,,,106,158089,20,Female,1,2024/03/20_10:54:49,SD,None,
,,,,,,practice,0,22,3,788,12,J,1,left,0.8684076850040583,1,0,,,,,,,,,,,,,,,,,,,,,1,,,,,,,,,,,,,,,,,,,,,,,,,,,,,,,,,,,,,,,,,,,,,,106,158089,20,Female,1,2024/03/20_10:54:49,SD,None,
,,,,,,practice,0,22,3,788,13,Q,0,right,0.8530538640043233,1,0,,,,,,,,,,,,,,,,,,,,,1,,,,,,,,,,,,,,,,,,,,,,,,,,,,,,,,,,,,,,,,,,,,,,106,158089,20,Female,1,2024/03/20_10:54:49,SD,None,
,,,,,,practice,0,22,3,788,,,,,,,,1.0,1.0,0.0,1.0,0.0,1.0,0.8307165318479887,4,0,0,0,0,9,13,4,9,0,,,,1,,,,,,,,,,,,,,,,,,,,,,,,,,,,,,,,,,,,,,,,,,,,,,106,158089,20,Female,1,2024/03/20_10:54:49,SD,None,
1,./instructions/inst_prac_3_next/Slide49.png,right,1.28291424800409,612.9871854780067,614.2700997260108,,,,,,,,,,,,,,,,,,,,,,,,,,,,,,,,,1,,,,,,,,,,,,,,,,,,,,,,,,,,,,,,,,,,,,,,,,,,,,,,106,158089,20,Female,1,2024/03/20_10:54:49,SD,None,
,,,,,,practice,0,9,3,917,1,Q,0,right,0.7872547790029785,1,0,,,,,,,,,,,,,,,,,,,,,1,,,,,,,,,,,,,,,,,,,,,,,,,,,,,,,,,,,,,,,,,,,,,,106,158089,20,Female,1,2024/03/20_10:54:49,SD,None,
,,,,,,practice,0,9,3,917,2,J,0,right,0.33220913300465327,1,0,,,,,,,,,,,,,,,,,,,,,1,,,,,,,,,,,,,,,,,,,,,,,,,,,,,,,,,,,,,,,,,,,,,,106,158089,20,Female,1,2024/03/20_10:54:49,SD,None,
,,,,,,practice,0,9,3,917,3,Q,0,right,0.0,1,0,,,,,,,,,,,,,,,,,,,,,1,,,,,,,,,,,,,,,,,,,,,,,,,,,,,,,,,,,,,,,,,,,,,,106,158089,20,Female,1,2024/03/20_10:54:49,SD,None,
,,,,,,practice,0,9,3,917,4,V,0,left,0.1021100999932969,0,0,,,,,,,,,,,,,,,,,,,,,1,,,,,,,,,,,,,,,,,,,,,,,,,,,,,,,,,,,,,,,,,,,,,,106,158089,20,Female,1,2024/03/20_10:54:49,SD,None,
,,,,,,practice,0,9,3,917,5,X,0,right,0.24832727300236002,1,0,,,,,,,,,,,,,,,,,,,,,1,,,,,,,,,,,,,,,,,,,,,,,,,,,,,,,,,,,,,,,,,,,,,,106,158089,20,Female,1,2024/03/20_10:54:49,SD,None,
,,,,,,practice,0,9,3,917,6,Q,1,right,0.29993512900546193,0,0,,,,,,,,,,,,,,,,,,,,,1,,,,,,,,,,,,,,,,,,,,,,,,,,,,,,,,,,,,,,,,,,,,,,106,158089,20,Female,1,2024/03/20_10:54:49,SD,None,
,,,,,,practice,0,9,3,917,7,J,0,right,0.36017727899888996,1,0,,,,,,,,,,,,,,,,,,,,,1,,,,,,,,,,,,,,,,,,,,,,,,,,,,,,,,,,,,,,,,,,,,,,106,158089,20,Female,1,2024/03/20_10:54:49,SD,None,
,,,,,,practice,0,9,3,917,8,X,1,left,0.20096019501215778,1,0,,,,,,,,,,,,,,,,,,,,,1,,,,,,,,,,,,,,,,,,,,,,,,,,,,,,,,,,,,,,,,,,,,,,106,158089,20,Female,1,2024/03/20_10:54:49,SD,None,
,,,,,,practice,0,9,3,917,9,C,0,right,0.19324443500954658,1,0,,,,,,,,,,,,,,,,,,,,,1,,,,,,,,,,,,,,,,,,,,,,,,,,,,,,,,,,,,,,,,,,,,,,106,158089,20,Female,1,2024/03/20_10:54:49,SD,None,
,,,,,,practice,0,9,3,917,10,V,0,right,0.2406364950002171,1,0,,,,,,,,,,,,,,,,,,,,,1,,,,,,,,,,,,,,,,,,,,,,,,,,,,,,,,,,,,,,,,,,,,,,106,158089,20,Female,1,2024/03/20_10:54:49,SD,None,
,,,,,,practice,0,9,3,917,11,X,1,right,0.2877926859946456,0,0,,,,,,,,,,,,,,,,,,,,,1,,,,,,,,,,,,,,,,,,,,,,,,,,,,,,,,,,,,,,,,,,,,,,106,158089,20,Female,1,2024/03/20_10:54:49,SD,None,
,,,,,,practice,0,9,3,917,12,S,0,left,0.25629834400024265,0,0,,,,,,,,,,,,,,,,,,,,,1,,,,,,,,,,,,,,,,,,,,,,,,,,,,,,,,,,,,,,,,,,,,,,106,158089,20,Female,1,2024/03/20_10:54:49,SD,None,
,,,,,,practice,0,9,3,917,,,,,,,,0.6111111111111112,0.3333333333333333,0.2222222222222222,0.7777777777777778,0.0,0.7777777777777778,0.27574548733537085,1,2,0,0,0,7,8,3,9,0,,,,1,,,,,,,,,,,,,,,,,,,,,,,,,,,,,,,,,,,,,,,,,,,,,,106,158089,20,Female,1,2024/03/20_10:54:49,SD,None,
,,,,,,practice,0,22,3,917,1,V,0,right,0.5646494450047612,1,0,,,,,,,,,,,,,,,,,,,,,1,,,,,,,,,,,,,,,,,,,,,,,,,,,,,,,,,,,,,,,,,,,,,,106,158089,20,Female,1,2024/03/20_10:54:49,SD,None,
,,,,,,practice,0,22,3,917,2,S,0,right,0.16208393199485727,1,0,,,,,,,,,,,,,,,,,,,,,1,,,,,,,,,,,,,,,,,,,,,,,,,,,,,,,,,,,,,,,,,,,,,,106,158089,20,Female,1,2024/03/20_10:54:49,SD,None,
,,,,,,practice,0,22,3,917,3,C,0,right,0.3006558599881828,1,0,,,,,,,,,,,,,,,,,,,,,1,,,,,,,,,,,,,,,,,,,,,,,,,,,,,,,,,,,,,,,,,,,,,,106,158089,20,Female,1,2024/03/20_10:54:49,SD,None,
,,,,,,practice,0,22,3,917,4,C,0,left,0.30428715200105216,0,0,,,,,,,,,,,,,,,,,,,,,1,,,,,,,,,,,,,,,,,,,,,,,,,,,,,,,,,,,,,,,,,,,,,,106,158089,20,Female,1,2024/03/20_10:54:49,SD,None,
,,,,,,practice,0,22,3,917,5,S,1,right,0.0,0,0,,,,,,,,,,,,,,,,,,,,,1,,,,,,,,,,,,,,,,,,,,,,,,,,,,,,,,,,,,,,,,,,,,,,106,158089,20,Female,1,2024/03/20_10:54:49,SD,None,
,,,,,,practice,0,22,3,917,6,S,0,right,0.16738122000242583,1,0,,,,,,,,,,,,,,,,,,,,,1,,,,,,,,,,,,,,,,,,,,,,,,,,,,,,,,,,,,,,,,,,,,,,106,158089,20,Female,1,2024/03/20_10:54:49,SD,None,
,,,,,,practice,0,22,3,917,7,C,1,right,0.7002015510079218,0,0,,,,,,,,,,,,,,,,,,,,,1,,,,,,,,,,,,,,,,,,,,,,,,,,,,,,,,,,,,,,,,,,,,,,106,158089,20,Female,1,2024/03/20_10:54:49,SD,None,
,,,,,,practice,0,22,3,917,8,J,0,left,0.7608634409989463,0,0,,,,,,,,,,,,,,,,,,,,,1,,,,,,,,,,,,,,,,,,,,,,,,,,,,,,,,,,,,,,,,,,,,,,106,158089,20,Female,1,2024/03/20_10:54:49,SD,None,
,,,,,,practice,0,22,3,917,9,J,0,right,0.3964137059956556,1,0,,,,,,,,,,,,,,,,,,,,,1,,,,,,,,,,,,,,,,,,,,,,,,,,,,,,,,,,,,,,,,,,,,,,106,158089,20,Female,1,2024/03/20_10:54:49,SD,None,
,,,,,,practice,0,22,3,917,10,F,0,left,0.0,0,0,,,,,,,,,,,,,,,,,,,,,1,,,,,,,,,,,,,,,,,,,,,,,,,,,,,,,,,,,,,,,,,,,,,,106,158089,20,Female,1,2024/03/20_10:54:49,SD,None,
,,,,,,practice,0,22,3,917,11,J,1,right,0.6844319310039282,0,0,,,,,,,,,,,,,,,,,,,,,1,,,,,,,,,,,,,,,,,,,,,,,,,,,,,,,,,,,,,,,,,,,,,,106,158089,20,Female,1,2024/03/20_10:54:49,SD,None,
,,,,,,practice,0,22,3,917,12,S,0,right,1.132181071996456,1,0,,,,,,,,,,,,,,,,,,,,,1,,,,,,,,,,,,,,,,,,,,,,,,,,,,,,,,,,,,,,,,,,,,,,106,158089,20,Female,1,2024/03/20_10:54:49,SD,None,
,,,,,,practice,0,22,3,917,,,,,,,,0.16666666666666669,0.0,0.3333333333333333,0.6666666666666666,0.0,0.6666666666666667,0.4310957758328489,0,3,0,0,0,6,6,3,9,0,,,,1,,,,,,,,,,,,,,,,,,,,,,,,,,,,,,,,,,,,,,,,,,,,,,106,158089,20,Female,1,2024/03/20_10:54:49,SD,None,
1,./instructions/inst_redo_3/Slide47.png,right,7.767768546007574,638.2063112250034,645.974079771011,,,,,,,,,,,,,,,,,,,,,,,,,,,,,,,,,1,,,,,,,,,,,,,,,,,,,,,,,,,,,,,,,,,,,,,,,,,,,,,,106,158089,20,Female,1,2024/03/20_10:54:49,SD,None,
,,,,,,practice,0,34,3,917,1,C,0,right,1.040777791000437,1,0,,,,,,,,,,,,,,,,,,,,,1,,,,,,,,,,,,,,,,,,,,,,,,,,,,,,,,,,,,,,,,,,,,,,106,158089,20,Female,1,2024/03/20_10:54:49,SD,None,
,,,,,,practice,0,34,3,917,2,C,0,right,1.0727932209993014,1,0,,,,,,,,,,,,,,,,,,,,,1,,,,,,,,,,,,,,,,,,,,,,,,,,,,,,,,,,,,,,,,,,,,,,106,158089,20,Female,1,2024/03/20_10:54:49,SD,None,
,,,,,,practice,0,34,3,917,3,N,0,right,5.696604853990721,1,0,,,,,,,,,,,,,,,,,,,,,1,,,,,,,,,,,,,,,,,,,,,,,,,,,,,,,,,,,,,,,,,,,,,,106,158089,20,Female,1,2024/03/20_10:54:49,SD,None,
,,,,,,practice,0,34,3,917,4,S,0,right,0.6478119980019983,1,0,,,,,,,,,,,,,,,,,,,,,1,,,,,,,,,,,,,,,,,,,,,,,,,,,,,,,,,,,,,,,,,,,,,,106,158089,20,Female,1,2024/03/20_10:54:49,SD,None,
,,,,,,practice,0,34,3,917,5,C,1,left,1.7086242679943098,1,0,,,,,,,,,,,,,,,,,,,,,1,,,,,,,,,,,,,,,,,,,,,,,,,,,,,,,,,,,,,,,,,,,,,,106,158089,20,Female,1,2024/03/20_10:54:49,SD,None,
,,,,,,practice,0,34,3,917,6,N,1,right,0.801195333013311,0,0,,,,,,,,,,,,,,,,,,,,,1,,,,,,,,,,,,,,,,,,,,,,,,,,,,,,,,,,,,,,,,,,,,,,106,158089,20,Female,1,2024/03/20_10:54:49,SD,None,
,,,,,,practice,0,34,3,917,7,N,0,left,0.6562129840021953,0,0,,,,,,,,,,,,,,,,,,,,,1,,,,,,,,,,,,,,,,,,,,,,,,,,,,,,,,,,,,,,,,,,,,,,106,158089,20,Female,1,2024/03/20_10:54:49,SD,None,
,,,,,,practice,0,34,3,917,8,F,0,right,0.6489262679970125,1,0,,,,,,,,,,,,,,,,,,,,,1,,,,,,,,,,,,,,,,,,,,,,,,,,,,,,,,,,,,,,,,,,,,,,106,158089,20,Female,1,2024/03/20_10:54:49,SD,None,
,,,,,,practice,0,34,3,917,9,N,1,left,1.2008572510094382,1,0,,,,,,,,,,,,,,,,,,,,,1,,,,,,,,,,,,,,,,,,,,,,,,,,,,,,,,,,,,,,,,,,,,,,106,158089,20,Female,1,2024/03/20_10:54:49,SD,None,
,,,,,,practice,0,34,3,917,10,N,1,right,1.316967705002753,0,0,,,,,,,,,,,,,,,,,,,,,1,,,,,,,,,,,,,,,,,,,,,,,,,,,,,,,,,,,,,,,,,,,,,,106,158089,20,Female,1,2024/03/20_10:54:49,SD,None,
,,,,,,practice,0,34,3,917,11,C,0,right,0.5521779029950267,1,0,,,,,,,,,,,,,,,,,,,,,1,,,,,,,,,,,,,,,,,,,,,,,,,,,,,,,,,,,,,,,,,,,,,,106,158089,20,Female,1,2024/03/20_10:54:49,SD,None,
,,,,,,practice,0,34,3,917,12,X,0,left,0.6288570680044359,0,0,,,,,,,,,,,,,,,,,,,,,1,,,,,,,,,,,,,,,,,,,,,,,,,,,,,,,,,,,,,,,,,,,,,,106,158089,20,Female,1,2024/03/20_10:54:49,SD,None,
,,,,,,practice,0,34,3,917,,,,,,,,0.6875,0.5,0.25,0.75,0.0,0.75,1.3309838870009116,2,2,0,0,0,6,8,4,8,0,,,,1,,,,,,,,,,,,,,,,,,,,,,,,,,,,,,,,,,,,,,,,,,,,,,106,158089,20,Female,1,2024/03/20_10:54:49,SD,None,
1,./instructions/inst_redo_3/Slide47.png,right,27.41317096100829,669.3051790530008,696.718350014009,,,,,,,,,,,,,,,,,,,,,,,,,,,,,,,,,1,,,,,,,,,,,,,,,,,,,,,,,,,,,,,,,,,,,,,,,,,,,,,,106,158089,20,Female,1,2024/03/20_10:54:49,SD,None,
,,,,,,practice,0,21,3,917,1,X,0,right,1.8587373629998183,1,0,,,,,,,,,,,,,,,,,,,,,1,,,,,,,,,,,,,,,,,,,,,,,,,,,,,,,,,,,,,,,,,,,,,,106,158089,20,Female,1,2024/03/20_10:54:49,SD,None,
,,,,,,practice,0,21,3,917,2,S,0,right,1.4249102169997059,1,0,,,,,,,,,,,,,,,,,,,,,1,,,,,,,,,,,,,,,,,,,,,,,,,,,,,,,,,,,,,,,,,,,,,,106,158089,20,Female,1,2024/03/20_10:54:49,SD,None,
,,,,,,practice,0,21,3,917,3,N,0,right,0.7606713179993676,1,0,,,,,,,,,,,,,,,,,,,,,1,,,,,,,,,,,,,,,,,,,,,,,,,,,,,,,,,,,,,,,,,,,,,,106,158089,20,Female,1,2024/03/20_10:54:49,SD,None,
,,,,,,practice,0,21,3,917,4,F,0,right,2.2444284459925257,1,0,,,,,,,,,,,,,,,,,,,,,1,,,,,,,,,,,,,,,,,,,,,,,,,,,,,,,,,,,,,,,,,,,,,,106,158089,20,Female,1,2024/03/20_10:54:49,SD,None,
,,,,,,practice,0,21,3,917,5,S,1,left,1.0206610989989713,1,0,,,,,,,,,,,,,,,,,,,,,1,,,,,,,,,,,,,,,,,,,,,,,,,,,,,,,,,,,,,,,,,,,,,,106,158089,20,Female,1,2024/03/20_10:54:49,SD,None,
,,,,,,practice,0,21,3,917,6,N,1,left,0.9687185099901399,1,0,,,,,,,,,,,,,,,,,,,,,1,,,,,,,,,,,,,,,,,,,,,,,,,,,,,,,,,,,,,,,,,,,,,,106,158089,20,Female,1,2024/03/20_10:54:49,SD,None,
,,,,,,practice,0,21,3,917,7,S,0,right,0.8890739929920528,1,0,,,,,,,,,,,,,,,,,,,,,1,,,,,,,,,,,,,,,,,,,,,,,,,,,,,,,,,,,,,,,,,,,,,,106,158089,20,Female,1,2024/03/20_10:54:49,SD,None,
,,,,,,practice,0,21,3,917,8,F,0,left,1.1434447780047776,0,0,,,,,,,,,,,,,,,,,,,,,1,,,,,,,,,,,,,,,,,,,,,,,,,,,,,,,,,,,,,,,,,,,,,,106,158089,20,Female,1,2024/03/20_10:54:49,SD,None,
,,,,,,practice,0,21,3,917,9,J,0,right,0.964363205988775,1,0,,,,,,,,,,,,,,,,,,,,,1,,,,,,,,,,,,,,,,,,,,,,,,,,,,,,,,,,,,,,,,,,,,,,106,158089,20,Female,1,2024/03/20_10:54:49,SD,None,
,,,,,,practice,0,21,3,917,10,N,0,right,1.148884973998065,1,0,,,,,,,,,,,,,,,,,,,,,1,,,,,,,,,,,,,,,,,,,,,,,,,,,,,,,,,,,,,,,,,,,,,,106,158089,20,Female,1,2024/03/20_10:54:49,SD,None,
,,,,,,practice,0,21,3,917,11,F,1,left,0.8340343509917147,1,0,,,,,,,,,,,,,,,,,,,,,1,,,,,,,,,,,,,,,,,,,,,,,,,,,,,,,,,,,,,,,,,,,,,,106,158089,20,Female,1,2024/03/20_10:54:49,SD,None,
,,,,,,practice,0,21,3,917,12,C,0,right,0.8840654410014395,1,0,,,,,,,,,,,,,,,,,,,,,1,,,,,,,,,,,,,,,,,,,,,,,,,,,,,,,,,,,,,,,,,,,,,,106,158089,20,Female,1,2024/03/20_10:54:49,SD,None,
,,,,,,practice,0,21,3,917,,,,,,,,0.9722222222222222,1.0,0.1111111111111111,0.8888888888888888,0.0,0.8888888888888888,1.1784994746631128,3,1,0,0,0,8,11,3,9,0,,,,1,,,,,,,,,,,,,,,,,,,,,,,,,,,,,,,,,,,,,,,,,,,,,,106,158089,20,Female,1,2024/03/20_10:54:49,SD,None,
1,./instructions/inst_prac_main/Slide51.png,right,4.080497833987465,719.7176289840136,723.798126818001,,,,,,,,,,,,,,,,,,,,,,,,,,,,,,,,,1,,,,,,,,,,,,,,,,,,,,,,,,,,,,,,,,,,,,,,,,,,,,,,106,158089,20,Female,1,2024/03/20_10:54:49,SD,None,
2,./instructions/inst_prac_main/Slide52.png,right,17.091440872987732,723.8267572020122,740.918198075,,,,,,,,,,,,,,,,,,,,,,,,,,,,,,,,,1,,,,,,,,,,,,,,,,,,,,,,,,,,,,,,,,,,,,,,,,,,,,,,106,158089,20,Female,1,2024/03/20_10:54:49,SD,None,
1,./instructions/inst_prac_main/Slide53.png,left,2.7441711940045934,740.9419380690088,743.6861092630133,,,,,,,,,,,,,,,,,,,,,,,,,,,,,,,,,1,,,,,,,,,,,,,,,,,,,,,,,,,,,,,,,,,,,,,,,,,,,,,,106,158089,20,Female,1,2024/03/20_10:54:49,SD,None,
2,./instructions/inst_prac_main/Slide52.png,right,4.6251660590060055,743.7089170950057,748.3340831540118,,,,,,,,,,,,,,,,,,,,,,,,,,,,,,,,,1,,,,,,,,,,,,,,,,,,,,,,,,,,,,,,,,,,,,,,,,,,,,,,106,158089,20,Female,1,2024/03/20_10:54:49,SD,None,
3,./instructions/inst_prac_main/Slide53.png,right,4.547026676998939,748.3628404730116,752.9098671500105,,,,,,,,,,,,,,,,,,,,,,,,,,,,,,,,,1,,,,,,,,,,,,,,,,,,,,,,,,,,,,,,,,,,,,,,,,,,,,,,106,158089,20,Female,1,2024/03/20_10:54:49,SD,None,
4,./instructions/inst_prac_main/Slide54.png,right,18.611390410995227,752.9388671760098,771.550257587005,,,,,,,,,,,,,,,,,,,,,,,,,,,,,,,,,1,,,,,,,,,,,,,,,,,,,,,,,,,,,,,,,,,,,,,,,,,,,,,,106,158089,20,Female,1,2024/03/20_10:54:49,SD,None,
,,,,,,practice_main,0,1,1,917,1,V,0,right,1.027670430004946,1,0,,,,,,,,,,,,,,,,,,,,,1,,,,,,,,,,,,,,,,,,,,,,,,,,,,,,,,,,,,,,,,,,,,,,106,158089,20,Female,1,2024/03/20_10:54:49,SD,None,
,,,,,,practice_main,0,1,1,917,2,V,1,left,0.7754711099987617,1,0,,,,,,,,,,,,,,,,,,,,,1,,,,,,,,,,,,,,,,,,,,,,,,,,,,,,,,,,,,,,,,,,,,,,106,158089,20,Female,1,2024/03/20_10:54:49,SD,None,
,,,,,,practice_main,0,1,1,917,3,F,0,right,0.5239572319987928,1,0,,,,,,,,,,,,,,,,,,,,,1,,,,,,,,,,,,,,,,,,,,,,,,,,,,,,,,,,,,,,,,,,,,,,106,158089,20,Female,1,2024/03/20_10:54:49,SD,None,
,,,,,,practice_main,0,1,1,917,4,V,0,right,1.2319419279956492,1,0,,,,,,,,,,,,,,,,,,,,,1,,,,,,,,,,,,,,,,,,,,,,,,,,,,,,,,,,,,,,,,,,,,,,106,158089,20,Female,1,2024/03/20_10:54:49,SD,None,
,,,,,,practice_main,0,1,1,917,5,X,0,right,0.5122403099958319,1,0,,,,,,,,,,,,,,,,,,,,,1,,,,,,,,,,,,,,,,,,,,,,,,,,,,,,,,,,,,,,,,,,,,,,106,158089,20,Female,1,2024/03/20_10:54:49,SD,None,
,,,,,,practice_main,0,1,1,917,6,X,1,left,0.451988488988718,1,0,,,,,,,,,,,,,,,,,,,,,1,,,,,,,,,,,,,,,,,,,,,,,,,,,,,,,,,,,,,,,,,,,,,,106,158089,20,Female,1,2024/03/20_10:54:49,SD,None,
,,,,,,practice_main,0,1,1,917,7,N,0,right,0.7451275430066744,1,0,,,,,,,,,,,,,,,,,,,,,1,,,,,,,,,,,,,,,,,,,,,,,,,,,,,,,,,,,,,,,,,,,,,,106,158089,20,Female,1,2024/03/20_10:54:49,SD,None,
,,,,,,practice_main,0,1,1,917,8,N,1,left,0.4103442740015453,1,0,,,,,,,,,,,,,,,,,,,,,1,,,,,,,,,,,,,,,,,,,,,,,,,,,,,,,,,,,,,,,,,,,,,,106,158089,20,Female,1,2024/03/20_10:54:49,SD,None,
,,,,,,practice_main,0,1,1,917,9,V,0,right,0.5243882880022284,1,0,,,,,,,,,,,,,,,,,,,,,1,,,,,,,,,,,,,,,,,,,,,,,,,,,,,,,,,,,,,,,,,,,,,,106,158089,20,Female,1,2024/03/20_10:54:49,SD,None,
,,,,,,practice_main,0,1,1,917,10,S,0,right,0.47866141800477635,1,0,,,,,,,,,,,,,,,,,,,,,1,,,,,,,,,,,,,,,,,,,,,,,,,,,,,,,,,,,,,,,,,,,,,,106,158089,20,Female,1,2024/03/20_10:54:49,SD,None,
,,,,,,practice_main,0,1,1,917,11,N,0,right,0.4443021180049982,1,0,,,,,,,,,,,,,,,,,,,,,1,,,,,,,,,,,,,,,,,,,,,,,,,,,,,,,,,,,,,,,,,,,,,,106,158089,20,Female,1,2024/03/20_10:54:49,SD,None,
,,,,,,practice_main,0,1,1,917,12,X,0,right,0.567852602005587,1,0,,,,,,,,,,,,,,,,,,,,,1,,,,,,,,,,,,,,,,,,,,,,,,,,,,,,,,,,,,,,,,,,,,,,106,158089,20,Female,1,2024/03/20_10:54:49,SD,None,
,,,,,,practice_main,0,1,1,917,,,,,,,,1.0,1.0,0.0,1.0,0.0,1.0,0.6411621451673758,3,0,0,0,0,9,12,3,9,0,,,,1,,,,,,,,,,,,,,,,,,,,,,,,,,,,,,,,,,,,,,,,,,,,,,106,158089,20,Female,1,2024/03/20_10:54:49,SD,None,
,,,,,240320_111103,PRACTICE,0,1,1,917,,,,,,,,,,,,,,,,,,,,,,,,,,,,1,10,2,1,cue2.png,easy,B,38,1.2863722290057922,0,782.6886814750032,783.9895960569993,,,,,,,,,,,,,,,,,,,,,,,,,,,,,,,,,,,106,158089,20,Female,1,2024/03/20_10:54:49,SD,None,
,,,,,,practice_main,0,2,3,917,1,X,0,right,0.8076333219942171,1,0,,,,,,,,,,,,,,,,,,,,,1,,,,,,,,,,,,,,,,,,,,,,,,,,,,,,,,,,,,,,,,,,,,,,106,158089,20,Female,1,2024/03/20_10:54:49,SD,None,
,,,,,,practice_main,0,2,3,917,2,X,0,right,0.2677485960011836,1,0,,,,,,,,,,,,,,,,,,,,,1,,,,,,,,,,,,,,,,,,,,,,,,,,,,,,,,,,,,,,,,,,,,,,106,158089,20,Female,1,2024/03/20_10:54:49,SD,None,
,,,,,,practice_main,0,2,3,917,3,F,0,right,0.524853502996848,1,0,,,,,,,,,,,,,,,,,,,,,1,,,,,,,,,,,,,,,,,,,,,,,,,,,,,,,,,,,,,,,,,,,,,,106,158089,20,Female,1,2024/03/20_10:54:49,SD,None,
,,,,,,practice_main,0,2,3,917,4,J,0,right,0.4969655059976503,1,0,,,,,,,,,,,,,,,,,,,,,1,,,,,,,,,,,,,,,,,,,,,,,,,,,,,,,,,,,,,,,,,,,,,,106,158089,20,Female,1,2024/03/20_10:54:49,SD,None,
,,,,,,practice_main,0,2,3,917,5,F,0,right,0.7020152119948762,1,0,,,,,,,,,,,,,,,,,,,,,1,,,,,,,,,,,,,,,,,,,,,,,,,,,,,,,,,,,,,,,,,,,,,,106,158089,20,Female,1,2024/03/20_10:54:49,SD,None,
,,,,,,practice_main,0,2,3,917,6,J,0,right,0.9150720780016854,1,0,,,,,,,,,,,,,,,,,,,,,1,,,,,,,,,,,,,,,,,,,,,,,,,,,,,,,,,,,,,,,,,,,,,,106,158089,20,Female,1,2024/03/20_10:54:49,SD,None,
,,,,,,practice_main,0,2,3,917,7,C,0,right,0.6742099969997071,1,0,,,,,,,,,,,,,,,,,,,,,1,,,,,,,,,,,,,,,,,,,,,,,,,,,,,,,,,,,,,,,,,,,,,,106,158089,20,Female,1,2024/03/20_10:54:49,SD,None,
,,,,,,practice_main,0,2,3,917,8,F,1,left,0.557151551998686,1,0,,,,,,,,,,,,,,,,,,,,,1,,,,,,,,,,,,,,,,,,,,,,,,,,,,,,,,,,,,,,,,,,,,,,106,158089,20,Female,1,2024/03/20_10:54:49,SD,None,
,,,,,,practice_main,0,2,3,917,9,X,0,right,0.5186931109928992,1,0,,,,,,,,,,,,,,,,,,,,,1,,,,,,,,,,,,,,,,,,,,,,,,,,,,,,,,,,,,,,,,,,,,,,106,158089,20,Female,1,2024/03/20_10:54:49,SD,None,
,,,,,,practice_main,0,2,3,917,10,X,0,right,0.7563765669910936,1,0,,,,,,,,,,,,,,,,,,,,,1,,,,,,,,,,,,,,,,,,,,,,,,,,,,,,,,,,,,,,,,,,,,,,106,158089,20,Female,1,2024/03/20_10:54:49,SD,None,
,,,,,,practice_main,0,2,3,917,11,F,1,left,0.5619158859917661,1,0,,,,,,,,,,,,,,,,,,,,,1,,,,,,,,,,,,,,,,,,,,,,,,,,,,,,,,,,,,,,,,,,,,,,106,158089,20,Female,1,2024/03/20_10:54:49,SD,None,
,,,,,,practice_main,0,2,3,917,12,X,1,left,0.7596331819950137,1,0,,,,,,,,,,,,,,,,,,,,,1,,,,,,,,,,,,,,,,,,,,,,,,,,,,,,,,,,,,,,,,,,,,,,106,158089,20,Female,1,2024/03/20_10:54:49,SD,None,
,,,,,,practice_main,0,2,3,917,,,,,,,,1.0,1.0,0.0,1.0,0.0,1.0,0.6285223759963022,3,0,0,0,0,9,12,3,9,0,,,,1,,,,,,,,,,,,,,,,,,,,,,,,,,,,,,,,,,,,,,,,,,,,,,106,158089,20,Female,1,2024/03/20_10:54:49,SD,None,
,,,,,240320_111128,PRACTICE,0,2,3,917,,,,,,,,,,,,,,,,,,,,,,,,,,,,1,35,3,2,cue1.png,hard,B,41,2.3967961050075246,0,807.1402361140063,809.5561019920133,,,,,,,,,,,,,,,,,,,,,,,,,,,,,,,,,,,106,158089,20,Female,1,2024/03/20_10:54:49,SD,None,
,,,,,,practice_main,0,3,1,917,1,N,0,right,0.7679324209893821,1,0,,,,,,,,,,,,,,,,,,,,,1,,,,,,,,,,,,,,,,,,,,,,,,,,,,,,,,,,,,,,,,,,,,,,106,158089,20,Female,1,2024/03/20_10:54:49,SD,None,
,,,,,,practice_main,0,3,1,917,2,C,0,right,0.3738971569982823,1,0,,,,,,,,,,,,,,,,,,,,,1,,,,,,,,,,,,,,,,,,,,,,,,,,,,,,,,,,,,,,,,,,,,,,106,158089,20,Female,1,2024/03/20_10:54:49,SD,None,
,,,,,,practice_main,0,3,1,917,3,C,1,left,0.3696573319903109,1,0,,,,,,,,,,,,,,,,,,,,,1,,,,,,,,,,,,,,,,,,,,,,,,,,,,,,,,,,,,,,,,,,,,,,106,158089,20,Female,1,2024/03/20_10:54:49,SD,None,
,,,,,,practice_main,0,3,1,917,4,J,0,right,0.4157944290054729,1,0,,,,,,,,,,,,,,,,,,,,,1,,,,,,,,,,,,,,,,,,,,,,,,,,,,,,,,,,,,,,,,,,,,,,106,158089,20,Female,1,2024/03/20_10:54:49,SD,None,
,,,,,,practice_main,0,3,1,917,5,J,1,left,0.6397104289935669,1,0,,,,,,,,,,,,,,,,,,,,,1,,,,,,,,,,,,,,,,,,,,,,,,,,,,,,,,,,,,,,,,,,,,,,106,158089,20,Female,1,2024/03/20_10:54:49,SD,None,
,,,,,,practice_main,0,3,1,917,6,S,0,right,0.6575942670024233,1,0,,,,,,,,,,,,,,,,,,,,,1,,,,,,,,,,,,,,,,,,,,,,,,,,,,,,,,,,,,,,,,,,,,,,106,158089,20,Female,1,2024/03/20_10:54:49,SD,None,
,,,,,,practice_main,0,3,1,917,7,S,1,left,0.4785630010010209,1,0,,,,,,,,,,,,,,,,,,,,,1,,,,,,,,,,,,,,,,,,,,,,,,,,,,,,,,,,,,,,,,,,,,,,106,158089,20,Female,1,2024/03/20_10:54:49,SD,None,
,,,,,,practice_main,0,3,1,917,8,C,0,right,0.45284218499728013,1,0,,,,,,,,,,,,,,,,,,,,,1,,,,,,,,,,,,,,,,,,,,,,,,,,,,,,,,,,,,,,,,,,,,,,106,158089,20,Female,1,2024/03/20_10:54:49,SD,None,
,,,,,,practice_main,0,3,1,917,9,Q,0,right,0.531081124994671,1,0,,,,,,,,,,,,,,,,,,,,,1,,,,,,,,,,,,,,,,,,,,,,,,,,,,,,,,,,,,,,,,,,,,,,106,158089,20,Female,1,2024/03/20_10:54:49,SD,None,
,,,,,,practice_main,0,3,1,917,10,S,0,right,0.8741684039996471,1,0,,,,,,,,,,,,,,,,,,,,,1,,,,,,,,,,,,,,,,,,,,,,,,,,,,,,,,,,,,,,,,,,,,,,106,158089,20,Female,1,2024/03/20_10:54:49,SD,None,
,,,,,,practice_main,0,3,1,917,11,F,0,right,0.4140394869900774,1,0,,,,,,,,,,,,,,,,,,,,,1,,,,,,,,,,,,,,,,,,,,,,,,,,,,,,,,,,,,,,,,,,,,,,106,158089,20,Female,1,2024/03/20_10:54:49,SD,None,
,,,,,,practice_main,0,3,1,917,12,C,0,right,0.480379864005954,1,0,,,,,,,,,,,,,,,,,,,,,1,,,,,,,,,,,,,,,,,,,,,,,,,,,,,,,,,,,,,,,,,,,,,,106,158089,20,Female,1,2024/03/20_10:54:49,SD,None,
,,,,,,practice_main,0,3,1,917,,,,,,,,1.0,1.0,0.0,1.0,0.0,1.0,0.5379716750806741,3,0,0,0,0,9,12,3,9,0,,,,1,,,,,,,,,,,,,,,,,,,,,,,,,,,,,,,,,,,,,,,,,,,,,,106,158089,20,Female,1,2024/03/20_10:54:49,SD,None,
,,,,,240320_111159,PRACTICE,0,3,1,917,,,,,,,,,,,,,,,,,,,,,,,,,,,,1,12,5,3,cue2.png,easy,B,21,1.2862100460042711,0,840.5984556800104,841.899384357006,,,,,,,,,,,,,,,,,,,,,,,,,,,,,,,,,,,106,158089,20,Female,1,2024/03/20_10:54:49,SD,None,
1,./instructions/inst_prac_end/Slide56.png,right,39.39968137899996,862.32650517,901.726186549,,,,,,,,,,,,,,,,,,,,,,,,,,,,,,,,,1,,,,,,,,,,,,,,,,,,,,,,,,,,,,,,,,,,,,,,,,,,,,,,106,158089,20,Female,1,2024/03/20_10:54:49,SD,None,
1,./instructions/inst_test/Slide57.png,right,10.398986883999896,901.7590795870055,912.1580664710054,,,,,,,,,,,,,,,,,,,,,,,,,,,,,,,,,1,,,,,,,,,,,,,,,,,,,,,,,,,,,,,,,,,,,,,,,,,,,,,,106,158089,20,Female,1,2024/03/20_10:54:49,SD,None,
,,,,,,test,1,1,1,917,1,N,0,right,0.5121362920035608,1,0,,,,,,,,,,,,,,,,,,,,,1,,,,,,,,,,,,,,,,,,,,,,,,,,,,,,,,,,,,,,,,,,,,,,106,158089,20,Female,1,2024/03/20_10:54:49,SD,None,
,,,,,,test,1,1,1,917,2,V,0,right,0.35806972898717504,1,0,,,,,,,,,,,,,,,,,,,,,1,,,,,,,,,,,,,,,,,,,,,,,,,,,,,,,,,,,,,,,,,,,,,,106,158089,20,Female,1,2024/03/20_10:54:49,SD,None,
,,,,,,test,1,1,1,917,3,V,1,left,0.33018272199842613,1,0,,,,,,,,,,,,,,,,,,,,,1,,,,,,,,,,,,,,,,,,,,,,,,,,,,,,,,,,,,,,,,,,,,,,106,158089,20,Female,1,2024/03/20_10:54:49,SD,None,
,,,,,,test,1,1,1,917,4,F,0,right,0.3939023239945527,1,0,,,,,,,,,,,,,,,,,,,,,1,,,,,,,,,,,,,,,,,,,,,,,,,,,,,,,,,,,,,,,,,,,,,,106,158089,20,Female,1,2024/03/20_10:54:49,SD,None,
,,,,,,test,1,1,1,917,5,Q,0,left,0.38972338900202885,0,0,,,,,,,,,,,,,,,,,,,,,1,,,,,,,,,,,,,,,,,,,,,,,,,,,,,,,,,,,,,,,,,,,,,,106,158089,20,Female,1,2024/03/20_10:54:49,SD,None,
,,,,,,test,1,1,1,917,6,N,0,right,0.8128084500058321,1,0,,,,,,,,,,,,,,,,,,,,,1,,,,,,,,,,,,,,,,,,,,,,,,,,,,,,,,,,,,,,,,,,,,,,106,158089,20,Female,1,2024/03/20_10:54:49,SD,None,
,,,,,,test,1,1,1,917,7,C,0,right,0.35172683699056506,1,0,,,,,,,,,,,,,,,,,,,,,1,,,,,,,,,,,,,,,,,,,,,,,,,,,,,,,,,,,,,,,,,,,,,,106,158089,20,Female,1,2024/03/20_10:54:49,SD,None,
,,,,,,test,1,1,1,917,8,C,1,left,0.5648521900002379,1,0,,,,,,,,,,,,,,,,,,,,,1,,,,,,,,,,,,,,,,,,,,,,,,,,,,,,,,,,,,,,,,,,,,,,106,158089,20,Female,1,2024/03/20_10:54:49,SD,None,
,,,,,,test,1,1,1,917,9,F,0,right,0.42919128500216175,1,0,,,,,,,,,,,,,,,,,,,,,1,,,,,,,,,,,,,,,,,,,,,,,,,,,,,,,,,,,,,,,,,,,,,,106,158089,20,Female,1,2024/03/20_10:54:49,SD,None,
,,,,,,test,1,1,1,917,10,N,0,right,0.44470285800343845,1,0,,,,,,,,,,,,,,,,,,,,,1,,,,,,,,,,,,,,,,,,,,,,,,,,,,,,,,,,,,,,,,,,,,,,106,158089,20,Female,1,2024/03/20_10:54:49,SD,None,
,,,,,,test,1,1,1,917,11,Q,0,right,0.4287337470013881,1,0,,,,,,,,,,,,,,,,,,,,,1,,,,,,,,,,,,,,,,,,,,,,,,,,,,,,,,,,,,,,,,,,,,,,106,158089,20,Female,1,2024/03/20_10:54:49,SD,None,
,,,,,,test,1,1,1,917,12,Q,1,left,0.3224353690020507,1,0,,,,,,,,,,,,,,,,,,,,,1,,,,,,,,,,,,,,,,,,,,,,,,,,,,,,,,,,,,,,,,,,,,,,106,158089,20,Female,1,2024/03/20_10:54:49,SD,None,
,,,,,,Test,1,1,1,917,,,,,,,,0.9722222222222222,1.0,0.1111111111111111,0.8888888888888888,0.0,0.8888888888888888,0.4448720993326181,3,1,0,0,0,8,11,3,9,0,,,,1,,,,,,,,,,,,,,,,,,,,,,,,,,,,,,,,,,,,,,,,,,,,,,106,158089,20,Female,1,2024/03/20_10:54:49,SD,None,
,,,,,240320_111315,TEST,1,1,1,917,,,,,,,,,,,,,,,,,,,,,,,,,,,,1,1,1,1,cue2.png,easy,B,59,1.5942594319931231,0,917.2137412900047,918.8216015670041,,,,,,,,,,,,,,,,,,,,,,,,,,,,,,,,,,,106,158089,20,Female,1,2024/03/20_10:54:49,SD,None,
,,,,,,test,1,2,3,917,1,X,0,right,0.5253967590106186,1,0,,,,,,,,,,,,,,,,,,,,,1,,,,,,,,,,,,,,,,,,,,,,,,,,,,,,,,,,,,,,,,,,,,,,106,158089,20,Female,1,2024/03/20_10:54:49,SD,None,
,,,,,,test,1,2,3,917,2,X,0,right,0.24610883901186753,1,0,,,,,,,,,,,,,,,,,,,,,1,,,,,,,,,,,,,,,,,,,,,,,,,,,,,,,,,,,,,,,,,,,,,,106,158089,20,Female,1,2024/03/20_10:54:49,SD,None,
,,,,,,test,1,2,3,917,3,F,0,right,0.5002522560098441,1,0,,,,,,,,,,,,,,,,,,,,,1,,,,,,,,,,,,,,,,,,,,,,,,,,,,,,,,,,,,,,,,,,,,,,106,158089,20,Female,1,2024/03/20_10:54:49,SD,None,
,,,,,,test,1,2,3,917,4,J,0,right,0.46319975799997337,1,0,,,,,,,,,,,,,,,,,,,,,1,,,,,,,,,,,,,,,,,,,,,,,,,,,,,,,,,,,,,,,,,,,,,,106,158089,20,Female,1,2024/03/20_10:54:49,SD,None,
,,,,,,test,1,2,3,917,5,F,0,right,1.0096200069965562,1,0,,,,,,,,,,,,,,,,,,,,,1,,,,,,,,,,,,,,,,,,,,,,,,,,,,,,,,,,,,,,,,,,,,,,106,158089,20,Female,1,2024/03/20_10:54:49,SD,None,
,,,,,,test,1,2,3,917,6,J,0,right,0.51214077899931,1,0,,,,,,,,,,,,,,,,,,,,,1,,,,,,,,,,,,,,,,,,,,,,,,,,,,,,,,,,,,,,,,,,,,,,106,158089,20,Female,1,2024/03/20_10:54:49,SD,None,
,,,,,,test,1,2,3,917,7,C,0,right,0.8005455920065288,1,0,,,,,,,,,,,,,,,,,,,,,1,,,,,,,,,,,,,,,,,,,,,,,,,,,,,,,,,,,,,,,,,,,,,,106,158089,20,Female,1,2024/03/20_10:54:49,SD,None,
,,,,,,test,1,2,3,917,8,F,1,left,0.7985805729986168,1,0,,,,,,,,,,,,,,,,,,,,,1,,,,,,,,,,,,,,,,,,,,,,,,,,,,,,,,,,,,,,,,,,,,,,106,158089,20,Female,1,2024/03/20_10:54:49,SD,None,
,,,,,,test,1,2,3,917,9,X,0,left,0.6982505199994193,0,0,,,,,,,,,,,,,,,,,,,,,1,,,,,,,,,,,,,,,,,,,,,,,,,,,,,,,,,,,,,,,,,,,,,,106,158089,20,Female,1,2024/03/20_10:54:49,SD,None,
,,,,,,test,1,2,3,917,10,X,0,right,0.9082304170005955,1,0,,,,,,,,,,,,,,,,,,,,,1,,,,,,,,,,,,,,,,,,,,,,,,,,,,,,,,,,,,,,,,,,,,,,106,158089,20,Female,1,2024/03/20_10:54:49,SD,None,
,,,,,,test,1,2,3,917,11,F,1,left,0.6406705419940408,1,0,,,,,,,,,,,,,,,,,,,,,1,,,,,,,,,,,,,,,,,,,,,,,,,,,,,,,,,,,,,,,,,,,,,,106,158089,20,Female,1,2024/03/20_10:54:49,SD,None,
,,,,,,test,1,2,3,917,12,X,1,right,0.6549050670000724,0,0,,,,,,,,,,,,,,,,,,,,,1,,,,,,,,,,,,,,,,,,,,,,,,,,,,,,,,,,,,,,,,,,,,,,106,158089,20,Female,1,2024/03/20_10:54:49,SD,None,
,,,,,,Test,1,2,3,917,,,,,,,,0.8518518518518517,0.6666666666666666,0.1111111111111111,0.8888888888888888,0.0,0.8888888888888888,0.6464917590856203,2,1,0,0,0,8,10,3,9,0,,,,1,,,,,,,,,,,,,,,,,,,,,,,,,,,,,,,,,,,,,,,,,,,,,,106,158089,20,Female,1,2024/03/20_10:54:49,SD,None,
,,,,,240320_111340,TEST,1,2,3,917,,,,,,,,,,,,,,,,,,,,,,,,,,,,1,2,2,2,cue1.png,hard,B,36,1.2541240149876103,0,939.586067797005,940.855093205013,,,,,,,,,,,,,,,,,,,,,,,,,,,,,,,,,,,106,158089,20,Female,1,2024/03/20_10:54:49,SD,None,
,,,,,,test,1,3,3,917,1,C,0,right,0.4533555029920535,1,0,,,,,,,,,,,,,,,,,,,,,1,,,,,,,,,,,,,,,,,,,,,,,,,,,,,,,,,,,,,,,,,,,,,,106,158089,20,Female,1,2024/03/20_10:54:49,SD,None,
,,,,,,test,1,3,3,917,2,C,0,right,0.5691349409898976,1,0,,,,,,,,,,,,,,,,,,,,,1,,,,,,,,,,,,,,,,,,,,,,,,,,,,,,,,,,,,,,,,,,,,,,106,158089,20,Female,1,2024/03/20_10:54:49,SD,None,
,,,,,,test,1,3,3,917,3,S,0,right,0.4607607240031939,1,0,,,,,,,,,,,,,,,,,,,,,1,,,,,,,,,,,,,,,,,,,,,,,,,,,,,,,,,,,,,,,,,,,,,,106,158089,20,Female,1,2024/03/20_10:54:49,SD,None,
,,,,,,test,1,3,3,917,4,C,1,left,0.6063925990019925,1,0,,,,,,,,,,,,,,,,,,,,,1,,,,,,,,,,,,,,,,,,,,,,,,,,,,,,,,,,,,,,,,,,,,,,106,158089,20,Female,1,2024/03/20_10:54:49,SD,None,
,,,,,,test,1,3,3,917,5,Q,0,right,0.5768220070021925,1,0,,,,,,,,,,,,,,,,,,,,,1,,,,,,,,,,,,,,,,,,,,,,,,,,,,,,,,,,,,,,,,,,,,,,106,158089,20,Female,1,2024/03/20_10:54:49,SD,None,
,,,,,,test,1,3,3,917,6,X,0,right,0.5242237990023568,1,0,,,,,,,,,,,,,,,,,,,,,1,,,,,,,,,,,,,,,,,,,,,,,,,,,,,,,,,,,,,,,,,,,,,,106,158089,20,Female,1,2024/03/20_10:54:49,SD,None,
,,,,,,test,1,3,3,917,7,C,1,left,0.5122546940110624,1,0,,,,,,,,,,,,,,,,,,,,,1,,,,,,,,,,,,,,,,,,,,,,,,,,,,,,,,,,,,,,,,,,,,,,106,158089,20,Female,1,2024/03/20_10:54:49,SD,None,
,,,,,,test,1,3,3,917,8,Q,1,right,0.5772683739924105,0,0,,,,,,,,,,,,,,,,,,,,,1,,,,,,,,,,,,,,,,,,,,,,,,,,,,,,,,,,,,,,,,,,,,,,106,158089,20,Female,1,2024/03/20_10:54:49,SD,None,
,,,,,,test,1,3,3,917,9,Q,0,left,0.6185142009926494,0,0,,,,,,,,,,,,,,,,,,,,,1,,,,,,,,,,,,,,,,,,,,,,,,,,,,,,,,,,,,,,,,,,,,,,106,158089,20,Female,1,2024/03/20_10:54:49,SD,None,
,,,,,,test,1,3,3,917,10,V,0,right,0.47731376299634576,1,0,,,,,,,,,,,,,,,,,,,,,1,,,,,,,,,,,,,,,,,,,,,,,,,,,,,,,,,,,,,,,,,,,,,,106,158089,20,Female,1,2024/03/20_10:54:49,SD,None,
,,,,,,test,1,3,3,917,11,S,0,left,0.6494017310033087,0,0,,,,,,,,,,,,,,,,,,,,,1,,,,,,,,,,,,,,,,,,,,,,,,,,,,,,,,,,,,,,,,,,,,,,106,158089,20,Female,1,2024/03/20_10:54:49,SD,None,
,,,,,,test,1,3,3,917,12,S,0,right,0.6644537230022252,1,0,,,,,,,,,,,,,,,,,,,,,1,,,,,,,,,,,,,,,,,,,,,,,,,,,,,,,,,,,,,,,,,,,,,,106,158089,20,Female,1,2024/03/20_10:54:49,SD,None,
,,,,,,Test,1,3,3,917,,,,,,,,0.7870370370370371,0.6666666666666666,0.2222222222222222,0.7777777777777778,0.0,0.7777777777777778,0.5574913382491408,2,2,0,0,0,7,9,3,9,0,,,,1,,,,,,,,,,,,,,,,,,,,,,,,,,,,,,,,,,,,,,,,,,,,,,106,158089,20,Female,1,2024/03/20_10:54:49,SD,None,
,,,,,240320_111404,TEST,1,3,3,917,,,,,,,,,,,,,,,,,,,,,,,,,,,,1,3,3,3,cue1.png,hard,B,28,1.8319846249942202,0,964.0639644100011,965.921478660006,,,,,,,,,,,,,,,,,,,,,,,,,,,,,,,,,,,106,158089,20,Female,1,2024/03/20_10:54:49,SD,None,
,,,,,,test,1,4,3,917,1,N,0,right,0.5386451259983005,1,0,,,,,,,,,,,,,,,,,,,,,1,,,,,,,,,,,,,,,,,,,,,,,,,,,,,,,,,,,,,,,,,,,,,,106,158089,20,Female,1,2024/03/20_10:54:49,SD,None,
,,,,,,test,1,4,3,917,2,F,0,right,0.25227322400314733,1,0,,,,,,,,,,,,,,,,,,,,,1,,,,,,,,,,,,,,,,,,,,,,,,,,,,,,,,,,,,,,,,,,,,,,106,158089,20,Female,1,2024/03/20_10:54:49,SD,None,
,,,,,,test,1,4,3,917,3,C,0,right,0.39224968299095053,1,0,,,,,,,,,,,,,,,,,,,,,1,,,,,,,,,,,,,,,,,,,,,,,,,,,,,,,,,,,,,,,,,,,,,,106,158089,20,Female,1,2024/03/20_10:54:49,SD,None,
,,,,,,test,1,4,3,917,4,X,0,left,0.6773622519976925,0,0,,,,,,,,,,,,,,,,,,,,,1,,,,,,,,,,,,,,,,,,,,,,,,,,,,,,,,,,,,,,,,,,,,,,106,158089,20,Female,1,2024/03/20_10:54:49,SD,None,
,,,,,,test,1,4,3,917,5,F,1,left,0.6277402059931774,1,0,,,,,,,,,,,,,,,,,,,,,1,,,,,,,,,,,,,,,,,,,,,,,,,,,,,,,,,,,,,,,,,,,,,,106,158089,20,Female,1,2024/03/20_10:54:49,SD,None,
,,,,,,test,1,4,3,917,6,Q,0,right,0.3028227340109879,1,0,,,,,,,,,,,,,,,,,,,,,1,,,,,,,,,,,,,,,,,,,,,,,,,,,,,,,,,,,,,,,,,,,,,,106,158089,20,Female,1,2024/03/20_10:54:49,SD,None,
,,,,,,test,1,4,3,917,7,X,1,right,0.5256375919998391,0,0,,,,,,,,,,,,,,,,,,,,,1,,,,,,,,,,,,,,,,,,,,,,,,,,,,,,,,,,,,,,,,,,,,,,106,158089,20,Female,1,2024/03/20_10:54:49,SD,None,
,,,,,,test,1,4,3,917,8,F,1,left,0.4678157620073762,1,0,,,,,,,,,,,,,,,,,,,,,1,,,,,,,,,,,,,,,,,,,,,,,,,,,,,,,,,,,,,,,,,,,,,,106,158089,20,Female,1,2024/03/20_10:54:49,SD,None,
,,,,,,test,1,4,3,917,9,C,0,right,0.900703983992571,1,0,,,,,,,,,,,,,,,,,,,,,1,,,,,,,,,,,,,,,,,,,,,,,,,,,,,,,,,,,,,,,,,,,,,,106,158089,20,Female,1,2024/03/20_10:54:49,SD,None,
,,,,,,test,1,4,3,917,10,N,0,left,0.4897308539948426,0,0,,,,,,,,,,,,,,,,,,,,,1,,,,,,,,,,,,,,,,,,,,,,,,,,,,,,,,,,,,,,,,,,,,,,106,158089,20,Female,1,2024/03/20_10:54:49,SD,None,
,,,,,,test,1,4,3,917,11,Q,0,right,0.8064395010005683,1,0,,,,,,,,,,,,,,,,,,,,,1,,,,,,,,,,,,,,,,,,,,,,,,,,,,,,,,,,,,,,,,,,,,,,106,158089,20,Female,1,2024/03/20_10:54:49,SD,None,
,,,,,,test,1,4,3,917,12,N,0,right,0.4294815690082032,1,0,,,,,,,,,,,,,,,,,,,,,1,,,,,,,,,,,,,,,,,,,,,,,,,,,,,,,,,,,,,,,,,,,,,,106,158089,20,Female,1,2024/03/20_10:54:49,SD,None,
,,,,,,Test,1,4,3,917,,,,,,,,0.7870370370370371,0.6666666666666666,0.2222222222222222,0.7777777777777778,0.0,0.7777777777777778,0.5342418739164714,2,2,0,0,0,7,9,3,9,0,,,,1,,,,,,,,,,,,,,,,,,,,,,,,,,,,,,,,,,,,,,,,,,,,,,106,158089,20,Female,1,2024/03/20_10:54:49,SD,None,
,,,,,240320_111428,TEST,1,4,3,917,,,,,,,,,,,,,,,,,,,,,,,,,,,,1,4,4,4,cue1.png,hard,B,31,2.314271577997715,0,988.0649623550125,990.3917991190101,,,,,,,,,,,,,,,,,,,,,,,,,,,,,,,,,,,106,158089,20,Female,1,2024/03/20_10:54:49,SD,None,
,,,,,,test,1,5,1,917,1,F,0,right,0.5926602859981358,1,0,,,,,,,,,,,,,,,,,,,,,1,,,,,,,,,,,,,,,,,,,,,,,,,,,,,,,,,,,,,,,,,,,,,,106,158089,20,Female,1,2024/03/20_10:54:49,SD,None,
,,,,,,test,1,5,1,917,2,J,0,right,0.41909301799023524,1,0,,,,,,,,,,,,,,,,,,,,,1,,,,,,,,,,,,,,,,,,,,,,,,,,,,,,,,,,,,,,,,,,,,,,106,158089,20,Female,1,2024/03/20_10:54:49,SD,None,
,,,,,,test,1,5,1,917,3,N,0,right,0.466790285994648,1,0,,,,,,,,,,,,,,,,,,,,,1,,,,,,,,,,,,,,,,,,,,,,,,,,,,,,,,,,,,,,,,,,,,,,106,158089,20,Female,1,2024/03/20_10:54:49,SD,None,
,,,,,,test,1,5,1,917,4,X,0,right,0.4492334109963849,1,0,,,,,,,,,,,,,,,,,,,,,1,,,,,,,,,,,,,,,,,,,,,,,,,,,,,,,,,,,,,,,,,,,,,,106,158089,20,Female,1,2024/03/20_10:54:49,SD,None,
,,,,,,test,1,5,1,917,5,X,1,left,0.3162443220062414,1,0,,,,,,,,,,,,,,,,,,,,,1,,,,,,,,,,,,,,,,,,,,,,,,,,,,,,,,,,,,,,,,,,,,,,106,158089,20,Female,1,2024/03/20_10:54:49,SD,None,
,,,,,,test,1,5,1,917,6,F,0,right,0.42668556699936744,1,0,,,,,,,,,,,,,,,,,,,,,1,,,,,,,,,,,,,,,,,,,,,,,,,,,,,,,,,,,,,,,,,,,,,,106,158089,20,Female,1,2024/03/20_10:54:49,SD,None,
,,,,,,test,1,5,1,917,7,C,0,right,0.6006111620081356,1,0,,,,,,,,,,,,,,,,,,,,,1,,,,,,,,,,,,,,,,,,,,,,,,,,,,,,,,,,,,,,,,,,,,,,106,158089,20,Female,1,2024/03/20_10:54:49,SD,None,
,,,,,,test,1,5,1,917,8,S,0,right,0.47175725499982946,1,0,,,,,,,,,,,,,,,,,,,,,1,,,,,,,,,,,,,,,,,,,,,,,,,,,,,,,,,,,,,,,,,,,,,,106,158089,20,Female,1,2024/03/20_10:54:49,SD,None,
,,,,,,test,1,5,1,917,9,S,1,left,0.3226432850060519,1,0,,,,,,,,,,,,,,,,,,,,,1,,,,,,,,,,,,,,,,,,,,,,,,,,,,,,,,,,,,,,,,,,,,,,106,158089,20,Female,1,2024/03/20_10:54:49,SD,None,
,,,,,,test,1,5,1,917,10,X,0,right,0.38454714299587067,1,0,,,,,,,,,,,,,,,,,,,,,1,,,,,,,,,,,,,,,,,,,,,,,,,,,,,,,,,,,,,,,,,,,,,,106,158089,20,Female,1,2024/03/20_10:54:49,SD,None,
,,,,,,test,1,5,1,917,11,X,1,left,0.4736210280098021,1,0,,,,,,,,,,,,,,,,,,,,,1,,,,,,,,,,,,,,,,,,,,,,,,,,,,,,,,,,,,,,,,,,,,,,106,158089,20,Female,1,2024/03/20_10:54:49,SD,None,
,,,,,,test,1,5,1,917,12,S,0,right,0.4165385569940554,1,0,,,,,,,,,,,,,,,,,,,,,1,,,,,,,,,,,,,,,,,,,,,,,,,,,,,,,,,,,,,,,,,,,,,,106,158089,20,Female,1,2024/03/20_10:54:49,SD,None,
,,,,,,Test,1,5,1,917,,,,,,,,1.0,1.0,0.0,1.0,0.0,1.0,0.4450354433332298,3,0,0,0,0,9,12,3,9,0,,,,1,,,,,,,,,,,,,,,,,,,,,,,,,,,,,,,,,,,,,,,,,,,,,,106,158089,20,Female,1,2024/03/20_10:54:49,SD,None,
,,,,,240320_111450,TEST,1,5,1,917,,,,,,,,,,,,,,,,,,,,,,,,,,,,1,5,5,5,cue2.png,easy,B,44,1.3724148620094638,0,1012.2328820850089,1013.621903872001,,,,,,,,,,,,,,,,,,,,,,,,,,,,,,,,,,,106,158089,20,Female,1,2024/03/20_10:54:49,SD,None,
,,,,,,test,1,6,3,917,1,Q,0,right,0.5762509780033724,1,0,,,,,,,,,,,,,,,,,,,,,1,,,,,,,,,,,,,,,,,,,,,,,,,,,,,,,,,,,,,,,,,,,,,,106,158089,20,Female,1,2024/03/20_10:54:49,SD,None,
,,,,,,test,1,6,3,917,2,N,0,right,0.2659986250073416,1,0,,,,,,,,,,,,,,,,,,,,,1,,,,,,,,,,,,,,,,,,,,,,,,,,,,,,,,,,,,,,,,,,,,,,106,158089,20,Female,1,2024/03/20_10:54:49,SD,None,
,,,,,,test,1,6,3,917,3,S,0,right,0.40862687199842185,1,0,,,,,,,,,,,,,,,,,,,,,1,,,,,,,,,,,,,,,,,,,,,,,,,,,,,,,,,,,,,,,,,,,,,,106,158089,20,Female,1,2024/03/20_10:54:49,SD,None,
,,,,,,test,1,6,3,917,4,Q,1,left,0.5458208799973363,1,0,,,,,,,,,,,,,,,,,,,,,1,,,,,,,,,,,,,,,,,,,,,,,,,,,,,,,,,,,,,,,,,,,,,,106,158089,20,Female,1,2024/03/20_10:54:49,SD,None,
,,,,,,test,1,6,3,917,5,S,0,right,0.4829845610074699,1,0,,,,,,,,,,,,,,,,,,,,,1,,,,,,,,,,,,,,,,,,,,,,,,,,,,,,,,,,,,,,,,,,,,,,106,158089,20,Female,1,2024/03/20_10:54:49,SD,None,
,,,,,,test,1,6,3,917,6,S,1,left,0.40967254400311504,1,0,,,,,,,,,,,,,,,,,,,,,1,,,,,,,,,,,,,,,,,,,,,,,,,,,,,,,,,,,,,,,,,,,,,,106,158089,20,Female,1,2024/03/20_10:54:49,SD,None,
,,,,,,test,1,6,3,917,7,Q,1,right,0.4739564339979552,0,0,,,,,,,,,,,,,,,,,,,,,1,,,,,,,,,,,,,,,,,,,,,,,,,,,,,,,,,,,,,,,,,,,,,,106,158089,20,Female,1,2024/03/20_10:54:49,SD,None,
,,,,,,test,1,6,3,917,8,Q,0,right,0.5125156739959493,1,0,,,,,,,,,,,,,,,,,,,,,1,,,,,,,,,,,,,,,,,,,,,,,,,,,,,,,,,,,,,,,,,,,,,,106,158089,20,Female,1,2024/03/20_10:54:49,SD,None,
,,,,,,test,1,6,3,917,9,V,0,right,0.9488698930072132,1,0,,,,,,,,,,,,,,,,,,,,,1,,,,,,,,,,,,,,,,,,,,,,,,,,,,,,,,,,,,,,,,,,,,,,106,158089,20,Female,1,2024/03/20_10:54:49,SD,None,
,,,,,,test,1,6,3,917,10,Q,1,left,0.4982185760018183,1,0,,,,,,,,,,,,,,,,,,,,,1,,,,,,,,,,,,,,,,,,,,,,,,,,,,,,,,,,,,,,,,,,,,,,106,158089,20,Female,1,2024/03/20_10:54:49,SD,None,
,,,,,,test,1,6,3,917,11,F,0,right,0.5513816259917803,1,0,,,,,,,,,,,,,,,,,,,,,1,,,,,,,,,,,,,,,,,,,,,,,,,,,,,,,,,,,,,,,,,,,,,,106,158089,20,Female,1,2024/03/20_10:54:49,SD,None,
,,,,,,test,1,6,3,917,12,J,0,right,0.680149366002297,1,0,,,,,,,,,,,,,,,,,,,,,1,,,,,,,,,,,,,,,,,,,,,,,,,,,,,,,,,,,,,,,,,,,,,,106,158089,20,Female,1,2024/03/20_10:54:49,SD,None,
,,,,,,Test,1,6,3,917,,,,,,,,0.9375,0.75,0.0,1.0,0.0,1.0,0.5295371690845059,3,0,0,0,0,8,11,4,8,0,,,,1,,,,,,,,,,,,,,,,,,,,,,,,,,,,,,,,,,,,,,,,,,,,,,106,158089,20,Female,1,2024/03/20_10:54:49,SD,None,
,,,,,240320_111514,TEST,1,6,3,917,,,,,,,,,,,,,,,,,,,,,,,,,,,,1,6,6,6,cue1.png,hard,B,38,2.014108215997112,0,1034.354754468004,1036.3885995320015,,,,,,,,,,,,,,,,,,,,,,,,,,,,,,,,,,,106,158089,20,Female,1,2024/03/20_10:54:49,SD,None,
,,,,,,test,1,7,3,917,1,S,0,right,0.3762731199967675,1,0,,,,,,,,,,,,,,,,,,,,,1,,,,,,,,,,,,,,,,,,,,,,,,,,,,,,,,,,,,,,,,,,,,,,106,158089,20,Female,1,2024/03/20_10:54:49,SD,None,
,,,,,,test,1,7,3,917,2,V,0,right,0.27370674499252345,1,0,,,,,,,,,,,,,,,,,,,,,1,,,,,,,,,,,,,,,,,,,,,,,,,,,,,,,,,,,,,,,,,,,,,,106,158089,20,Female,1,2024/03/20_10:54:49,SD,None,
