Instruction,Stimulus,Key,RT,START,END,Phase,Block,TrialN,NbackLevel,ISI,LetterN,Letter,Letter_isSame,Letter_Resp,Letter_RT,Letter_Accuracy,Letter_Timeout,Trial_A_measure,Trial_HR,Trial_FAR,Trial_CDR,Trial_MSR,Trial_ACC,Trial_RT,Trial_HitsCount,Trial_FAsCount,Trial_SameNoRespCount,Trial_DiffNoRespCount,Trial_NoRespCount,Trial_CDsCount,Trial_CorrectRespCount,Trial_SameLetterCount,Trial_DiffLetterCount,Trial_InvalidLetterCount,TrialCountCali,CaliEnd_A_measure,ISI_calibrated,Run,TrialIndex,TrialNumber_total,TrialNumber_valid,CueLearning,TrialDemandLearning,CueMapping,OnlineRating,OnlineRatingRT,OnlineRatingTimeOut,CueSTART,RatingSTART,OfflineRatingTimePoint,OfflineRatingQuesIndex,CueFigure,TrialDemand,OfflineRating,OfflineRatingRT,CueStart,OfflineRatingStart,PhaseType,CueLeft,CueDemandLeft,CueRight,CueDemandRight,Choice,ChoiceDemand,TaskDemand,ChoiceRT,ChoiceTimeOut,ChoiceSTART,CueCheck,CueDemandCheck,CorrectAnswer,Answer,AnswerDemand,AnswerRT,AnswerACC,AnswerTimeOut,CheckSTART,DemandRatingQuesIndex,QuesTLX,DemandLevel,DemandRating,DemandRatingRT,QuesStart,PID,SONA,Age,Gender,Run,TIME,EXPERIMENTER,frameRate,
-1,./instructions/inst_begin/Slide2.png,left,17.892233507998753,0.11133470099593978,18.003568208994693,,,,,,,,,,,,,,,,,,,,,,,,,,,,,,,,,1,,,,,,,,,,,,,,,,,,,,,,,,,,,,,,,,,,,,,,,,,,,,,,107,147358,21,Female,1,2024/03/20_14:01:40,YZ,None,
0,./instructions/inst_begin/Slide4.png,right,8.66443550400436,18.026997590990504,26.691433094994863,,,,,,,,,,,,,,,,,,,,,,,,,,,,,,,,,1,,,,,,,,,,,,,,,,,,,,,,,,,,,,,,,,,,,,,,,,,,,,,,107,147358,21,Female,1,2024/03/20_14:01:40,YZ,None,
1,./instructions/inst_begin/Slide2.png,right,4.058607017999748,26.720685627995408,30.779292645995156,,,,,,,,,,,,,,,,,,,,,,,,,,,,,,,,,1,,,,,,,,,,,,,,,,,,,,,,,,,,,,,,,,,,,,,,,,,,,,,,107,147358,21,Female,1,2024/03/20_14:01:40,YZ,None,
2,./instructions/inst_begin/Slide3.png,right,12.555158739007311,30.808260142992367,43.36341888199968,,,,,,,,,,,,,,,,,,,,,,,,,,,,,,,,,1,,,,,,,,,,,,,,,,,,,,,,,,,,,,,,,,,,,,,,,,,,,,,,107,147358,21,Female,1,2024/03/20_14:01:40,YZ,None,
3,./instructions/inst_begin/Slide4.png,right,6.499085996998474,43.39237589199911,49.89146188899758,,,,,,,,,,,,,,,,,,,,,,,,,,,,,,,,,1,,,,,,,,,,,,,,,,,,,,,,,,,,,,,,,,,,,,,,,,,,,,,,107,147358,21,Female,1,2024/03/20_14:01:40,YZ,None,
1,./instructions/inst_prac_2/Slide6.png,right,23.960888378001982,49.922530990996165,73.88341936899815,,,,,,,,,,,,,,,,,,,,,,,,,,,,,,,,,1,,,,,,,,,,,,,,,,,,,,,,,,,,,,,,,,,,,,,,,,,,,,,,107,147358,21,Female,1,2024/03/20_14:01:40,YZ,None,
2,./instructions/inst_prac_2/Slide7.png,right,16.706257745012408,73.91300390099059,90.619261646003,,,,,,,,,,,,,,,,,,,,,,,,,,,,,,,,,1,,,,,,,,,,,,,,,,,,,,,,,,,,,,,,,,,,,,,,,,,,,,,,107,147358,21,Female,1,2024/03/20_14:01:40,YZ,None,
3,./instructions/inst_prac_2/Slide8.png,right,12.435062125994591,90.64831221300119,103.08337433899578,,,,,,,,,,,,,,,,,,,,,,,,,,,,,,,,,1,,,,,,,,,,,,,,,,,,,,,,,,,,,,,,,,,,,,,,,,,,,,,,107,147358,21,Female,1,2024/03/20_14:01:40,YZ,None,
4,./instructions/inst_prac_2/Slide9.png,right,9.87620769100613,103.11122385699127,112.9874315479974,,,,,,,,,,,,,,,,,,,,,,,,,,,,,,,,,1,,,,,,,,,,,,,,,,,,,,,,,,,,,,,,,,,,,,,,,,,,,,,,107,147358,21,Female,1,2024/03/20_14:01:40,YZ,None,
5,./instructions/inst_prac_2/Slide10.png,right,3.9706930959946476,113.01663224599906,116.98732534199371,,,,,,,,,,,,,,,,,,,,,,,,,,,,,,,,,1,,,,,,,,,,,,,,,,,,,,,,,,,,,,,,,,,,,,,,,,,,,,,,107,147358,21,Female,1,2024/03/20_14:01:40,YZ,None,
6,./instructions/inst_prac_2/Slide11.png,right,2.2910352900071302,117.01627003299654,119.30730532300367,,,,,,,,,,,,,,,,,,,,,,,,,,,,,,,,,1,,,,,,,,,,,,,,,,,,,,,,,,,,,,,,,,,,,,,,,,,,,,,,107,147358,21,Female,1,2024/03/20_14:01:40,YZ,None,
7,./instructions/inst_prac_2/Slide12.png,right,1.1154110630013747,119.33587075000105,120.45128181300242,,,,,,,,,,,,,,,,,,,,,,,,,,,,,,,,,1,,,,,,,,,,,,,,,,,,,,,,,,,,,,,,,,,,,,,,,,,,,,,,107,147358,21,Female,1,2024/03/20_14:01:40,YZ,None,
8,./instructions/inst_prac_2/Slide13.png,right,2.5387827740050852,120.48043074399175,123.01921351799683,,,,,,,,,,,,,,,,,,,,,,,,,,,,,,,,,1,,,,,,,,,,,,,,,,,,,,,,,,,,,,,,,,,,,,,,,,,,,,,,107,147358,21,Female,1,2024/03/20_14:01:40,YZ,None,
9,./instructions/inst_prac_2/Slide14.png,right,13.354925912004546,123.04855177899299,136.40347769099753,,,,,,,,,,,,,,,,,,,,,,,,,,,,,,,,,1,,,,,,,,,,,,,,,,,,,,,,,,,,,,,,,,,,,,,,,,,,,,,,107,147358,21,Female,1,2024/03/20_14:01:40,YZ,None,
10,./instructions/inst_prac_2/Slide15.png,right,21.714781670001685,136.4327070839936,158.14748875399528,,,,,,,,,,,,,,,,,,,,,,,,,,,,,,,,,1,,,,,,,,,,,,,,,,,,,,,,,,,,,,,,,,,,,,,,,,,,,,,,107,147358,21,Female,1,2024/03/20_14:01:40,YZ,None,
,,,,,,practice,0,23,2,2583,1,S,0,right,1.5624992630037013,1,0,,,,,,,,,,,,,,,,,,,,,1,,,,,,,,,,,,,,,,,,,,,,,,,,,,,,,,,,,,,,,,,,,,,,107,147358,21,Female,1,2024/03/20_14:01:40,YZ,None,
,,,,,,practice,0,23,2,2583,2,J,0,right,0.8014960719883675,1,0,,,,,,,,,,,,,,,,,,,,,1,,,,,,,,,,,,,,,,,,,,,,,,,,,,,,,,,,,,,,,,,,,,,,107,147358,21,Female,1,2024/03/20_14:01:40,YZ,None,
,,,,,,practice,0,23,2,2583,3,S,1,left,0.6205757110001286,1,0,,,,,,,,,,,,,,,,,,,,,1,,,,,,,,,,,,,,,,,,,,,,,,,,,,,,,,,,,,,,,,,,,,,,107,147358,21,Female,1,2024/03/20_14:01:40,YZ,None,
,,,,,,practice,0,23,2,2583,4,X,0,right,0.757690789992921,1,0,,,,,,,,,,,,,,,,,,,,,1,,,,,,,,,,,,,,,,,,,,,,,,,,,,,,,,,,,,,,,,,,,,,,107,147358,21,Female,1,2024/03/20_14:01:40,YZ,None,
,,,,,,practice,0,23,2,2583,5,Q,0,right,0.6919013339938829,1,0,,,,,,,,,,,,,,,,,,,,,1,,,,,,,,,,,,,,,,,,,,,,,,,,,,,,,,,,,,,,,,,,,,,,107,147358,21,Female,1,2024/03/20_14:01:40,YZ,None,
,,,,,,practice,0,23,2,2583,6,X,1,left,0.7249947910022456,1,0,,,,,,,,,,,,,,,,,,,,,1,,,,,,,,,,,,,,,,,,,,,,,,,,,,,,,,,,,,,,,,,,,,,,107,147358,21,Female,1,2024/03/20_14:01:40,YZ,None,
,,,,,,practice,0,23,2,2583,,,,,,,,1.0,1.0,0.0,1.0,0.0,1.0,0.8598596601635412,2,0,0,0,0,4,6,2,4,0,,,,1,,,,,,,,,,,,,,,,,,,,,,,,,,,,,,,,,,,,,,,,,,,,,,107,147358,21,Female,1,2024/03/20_14:01:40,YZ,None,
1,./instructions/inst_to_cali/Slide20.png,right,5.5924724049982615,169.66684483899735,175.2593172439956,,,,,,,,,,,,,,,,,,,,,,,,,,,,,,,,,1,,,,,,,,,,,,,,,,,,,,,,,,,,,,,,,,,,,,,,,,,,,,,,107,147358,21,Female,1,2024/03/20_14:01:40,YZ,None,
1,./instructions/inst_cali/Slide22.png,right,18.85458745600772,175.29270875599468,194.1472962120024,,,,,,,,,,,,,,,,,,,,,,,,,,,,,,,,,1,,,,,,,,,,,,,,,,,,,,,,,,,,,,,,,,,,,,,,,,,,,,,,107,147358,21,Female,1,2024/03/20_14:01:40,YZ,None,
,,,,,,calibration,0,13,2,583,1,C,0,right,0.42694875699817203,1,0,,,,,,,,,,,,,,,,,,,,,1,,,,,,,,,,,,,,,,,,,,,,,,,,,,,,,,,,,,,,,,,,,,,,107,147358,21,Female,1,2024/03/20_14:01:40,YZ,None,
,,,,,,calibration,0,13,2,583,2,S,0,right,0.5432680039957631,1,0,,,,,,,,,,,,,,,,,,,,,1,,,,,,,,,,,,,,,,,,,,,,,,,,,,,,,,,,,,,,,,,,,,,,107,147358,21,Female,1,2024/03/20_14:01:40,YZ,None,
,,,,,,calibration,0,13,2,583,3,Q,0,right,0.49442037899279967,1,0,,,,,,,,,,,,,,,,,,,,,1,,,,,,,,,,,,,,,,,,,,,,,,,,,,,,,,,,,,,,,,,,,,,,107,147358,21,Female,1,2024/03/20_14:01:40,YZ,None,
,,,,,,calibration,0,13,2,583,4,F,0,right,0.5254064769978868,1,0,,,,,,,,,,,,,,,,,,,,,1,,,,,,,,,,,,,,,,,,,,,,,,,,,,,,,,,,,,,,,,,,,,,,107,147358,21,Female,1,2024/03/20_14:01:40,YZ,None,
,,,,,,calibration,0,13,2,583,5,Q,1,right,0.8140415320085594,0,0,,,,,,,,,,,,,,,,,,,,,1,,,,,,,,,,,,,,,,,,,,,,,,,,,,,,,,,,,,,,,,,,,,,,107,147358,21,Female,1,2024/03/20_14:01:40,YZ,None,
,,,,,,calibration,0,13,2,583,6,X,0,right,0.5405376039998373,1,0,,,,,,,,,,,,,,,,,,,,,1,,,,,,,,,,,,,,,,,,,,,,,,,,,,,,,,,,,,,,,,,,,,,,107,147358,21,Female,1,2024/03/20_14:01:40,YZ,None,
,,,,,,calibration,0,13,2,583,7,Q,1,left,0.5807486489939038,1,0,,,,,,,,,,,,,,,,,,,,,1,,,,,,,,,,,,,,,,,,,,,,,,,,,,,,,,,,,,,,,,,,,,,,107,147358,21,Female,1,2024/03/20_14:01:40,YZ,None,
,,,,,,calibration,0,13,2,583,8,C,0,right,0.3063704819942359,1,0,,,,,,,,,,,,,,,,,,,,,1,,,,,,,,,,,,,,,,,,,,,,,,,,,,,,,,,,,,,,,,,,,,,,107,147358,21,Female,1,2024/03/20_14:01:40,YZ,None,
,,,,,,calibration,0,13,2,583,9,Q,1,right,0.7051626140018925,0,0,,,,,,,,,,,,,,,,,,,,,1,,,,,,,,,,,,,,,,,,,,,,,,,,,,,,,,,,,,,,,,,,,,,,107,147358,21,Female,1,2024/03/20_14:01:40,YZ,None,
,,,,,,calibration,0,13,2,583,10,X,0,right,0.8710371449997183,1,0,,,,,,,,,,,,,,,,,,,,,1,,,,,,,,,,,,,,,,,,,,,,,,,,,,,,,,,,,,,,,,,,,,,,107,147358,21,Female,1,2024/03/20_14:01:40,YZ,None,
,,,,,,calibration,0,13,2,583,11,C,0,left,0.9138076980016194,0,0,,,,,,,,,,,,,,,,,,,,,1,,,,,,,,,,,,,,,,,,,,,,,,,,,,,,,,,,,,,,,,,,,,,,107,147358,21,Female,1,2024/03/20_14:01:40,YZ,None,
,,,,,,calibration,0,13,2,583,12,X,1,right,0.47444622400507797,0,0,,,,,,,,,,,,,,,,,,,,,1,,,,,,,,,,,,,,,,,,,,,,,,,,,,,,,,,,,,,,,,,,,,,,107,147358,21,Female,1,2024/03/20_14:01:40,YZ,None,
,,,,,,calibration,0,13,2,583,13,N,0,left,0.8680767040059436,0,0,,,,,,,,,,,,,,,,,,,,,1,,,,,,,,,,,,,,,,,,,,,,,,,,,,,,,,,,,,,,,,,,,,,,107,147358,21,Female,1,2024/03/20_14:01:40,YZ,None,
,,,,,,calibration,0,13,2,583,14,X,1,right,0.525986502005253,0,0,,,,,,,,,,,,,,,,,,,,,1,,,,,,,,,,,,,,,,,,,,,,,,,,,,,,,,,,,,,,,,,,,,,,107,147358,21,Female,1,2024/03/20_14:01:40,YZ,None,
,,,,,,calibration,0,13,2,583,15,V,0,right,0.8152872860082425,1,0,,,,,,,,,,,,,,,,,,,,,1,,,,,,,,,,,,,,,,,,,,,,,,,,,,,,,,,,,,,,,,,,,,,,107,147358,21,Female,1,2024/03/20_14:01:40,YZ,None,
,,,,,,calibration,0,13,2,583,,,,,,,,0.5,0.2,0.2,0.8,0.0,0.8,0.6270364038005937,1,2,0,0,0,8,9,5,10,0,,,,1,,,,,,,,,,,,,,,,,,,,,,,,,,,,,,,,,,,,,,,,,,,,,,107,147358,21,Female,1,2024/03/20_14:01:40,YZ,None,
,,,,,,Calibration,0,,2,583,,,,,,,,,,,,,,,,,,,,,,,,,1,,,1,,,,,,,,,,,,,,,,,,,,,,,,,,,,,,,,,,,,,,,,,,,,,,107,147358,21,Female,1,2024/03/20_14:01:40,YZ,None,
,,,,,,calibration,0,12,2,679,1,V,0,right,0.652397343001212,1,0,,,,,,,,,,,,,,,,,,,,,1,,,,,,,,,,,,,,,,,,,,,,,,,,,,,,,,,,,,,,,,,,,,,,107,147358,21,Female,1,2024/03/20_14:01:40,YZ,None,
,,,,,,calibration,0,12,2,679,2,N,0,right,0.38948745401285123,1,0,,,,,,,,,,,,,,,,,,,,,1,,,,,,,,,,,,,,,,,,,,,,,,,,,,,,,,,,,,,,,,,,,,,,107,147358,21,Female,1,2024/03/20_14:01:40,YZ,None,
,,,,,,calibration,0,12,2,679,3,V,1,left,0.3519775769964326,1,0,,,,,,,,,,,,,,,,,,,,,1,,,,,,,,,,,,,,,,,,,,,,,,,,,,,,,,,,,,,,,,,,,,,,107,147358,21,Female,1,2024/03/20_14:01:40,YZ,None,
,,,,,,calibration,0,12,2,679,4,Q,0,right,0.23127209200174548,1,0,,,,,,,,,,,,,,,,,,,,,1,,,,,,,,,,,,,,,,,,,,,,,,,,,,,,,,,,,,,,,,,,,,,,107,147358,21,Female,1,2024/03/20_14:01:40,YZ,None,
,,,,,,calibration,0,12,2,679,5,F,0,right,0.6575782389991218,1,0,,,,,,,,,,,,,,,,,,,,,1,,,,,,,,,,,,,,,,,,,,,,,,,,,,,,,,,,,,,,,,,,,,,,107,147358,21,Female,1,2024/03/20_14:01:40,YZ,None,
,,,,,,calibration,0,12,2,679,6,Q,1,left,0.7852087909996044,1,0,,,,,,,,,,,,,,,,,,,,,1,,,,,,,,,,,,,,,,,,,,,,,,,,,,,,,,,,,,,,,,,,,,,,107,147358,21,Female,1,2024/03/20_14:01:40,YZ,None,
,,,,,,calibration,0,12,2,679,7,N,0,right,0.5124718440056313,1,0,,,,,,,,,,,,,,,,,,,,,1,,,,,,,,,,,,,,,,,,,,,,,,,,,,,,,,,,,,,,,,,,,,,,107,147358,21,Female,1,2024/03/20_14:01:40,YZ,None,
,,,,,,calibration,0,12,2,679,8,S,0,right,0.7819267029990442,1,0,,,,,,,,,,,,,,,,,,,,,1,,,,,,,,,,,,,,,,,,,,,,,,,,,,,,,,,,,,,,,,,,,,,,107,147358,21,Female,1,2024/03/20_14:01:40,YZ,None,
,,,,,,calibration,0,12,2,679,9,Q,0,right,0.5120672469929559,1,0,,,,,,,,,,,,,,,,,,,,,1,,,,,,,,,,,,,,,,,,,,,,,,,,,,,,,,,,,,,,,,,,,,,,107,147358,21,Female,1,2024/03/20_14:01:40,YZ,None,
,,,,,,calibration,0,12,2,679,10,X,0,right,0.5404976280115079,1,0,,,,,,,,,,,,,,,,,,,,,1,,,,,,,,,,,,,,,,,,,,,,,,,,,,,,,,,,,,,,,,,,,,,,107,147358,21,Female,1,2024/03/20_14:01:40,YZ,None,
,,,,,,calibration,0,12,2,679,11,J,0,right,0.4867832570016617,1,0,,,,,,,,,,,,,,,,,,,,,1,,,,,,,,,,,,,,,,,,,,,,,,,,,,,,,,,,,,,,,,,,,,,,107,147358,21,Female,1,2024/03/20_14:01:40,YZ,None,
,,,,,,calibration,0,12,2,679,12,X,1,right,0.7766029400081607,0,0,,,,,,,,,,,,,,,,,,,,,1,,,,,,,,,,,,,,,,,,,,,,,,,,,,,,,,,,,,,,,,,,,,,,107,147358,21,Female,1,2024/03/20_14:01:40,YZ,None,
,,,,,,calibration,0,12,2,679,13,C,0,right,0.6093440330005251,1,0,,,,,,,,,,,,,,,,,,,,,1,,,,,,,,,,,,,,,,,,,,,,,,,,,,,,,,,,,,,,,,,,,,,,107,147358,21,Female,1,2024/03/20_14:01:40,YZ,None,
,,,,,,calibration,0,12,2,679,14,X,1,left,0.5240683349984465,1,0,,,,,,,,,,,,,,,,,,,,,1,,,,,,,,,,,,,,,,,,,,,,,,,,,,,,,,,,,,,,,,,,,,,,107,147358,21,Female,1,2024/03/20_14:01:40,YZ,None,
,,,,,,calibration,0,12,2,679,,,,,,,,0.9375,0.75,0.0,1.0,0.0,1.0,0.5579773916449214,3,0,0,0,0,10,13,4,10,0,,,,1,,,,,,,,,,,,,,,,,,,,,,,,,,,,,,,,,,,,,,,,,,,,,,107,147358,21,Female,1,2024/03/20_14:01:40,YZ,None,
,,,,,,Calibration,0,,2,679,,,,,,,,,,,,,,,,,,,,,,,,,2,,,1,,,,,,,,,,,,,,,,,,,,,,,,,,,,,,,,,,,,,,,,,,,,,,107,147358,21,Female,1,2024/03/20_14:01:40,YZ,None,
,,,,,,calibration,0,15,2,583,1,N,0,right,0.7337859099934576,1,0,,,,,,,,,,,,,,,,,,,,,1,,,,,,,,,,,,,,,,,,,,,,,,,,,,,,,,,,,,,,,,,,,,,,107,147358,21,Female,1,2024/03/20_14:01:40,YZ,None,
,,,,,,calibration,0,15,2,583,2,S,0,right,0.30974552799307276,1,0,,,,,,,,,,,,,,,,,,,,,1,,,,,,,,,,,,,,,,,,,,,,,,,,,,,,,,,,,,,,,,,,,,,,107,147358,21,Female,1,2024/03/20_14:01:40,YZ,None,
,,,,,,calibration,0,15,2,583,3,C,0,right,0.4285485190048348,1,0,,,,,,,,,,,,,,,,,,,,,1,,,,,,,,,,,,,,,,,,,,,,,,,,,,,,,,,,,,,,,,,,,,,,107,147358,21,Female,1,2024/03/20_14:01:40,YZ,None,
,,,,,,calibration,0,15,2,583,4,X,0,right,0.47570084799372125,1,0,,,,,,,,,,,,,,,,,,,,,1,,,,,,,,,,,,,,,,,,,,,,,,,,,,,,,,,,,,,,,,,,,,,,107,147358,21,Female,1,2024/03/20_14:01:40,YZ,None,
,,,,,,calibration,0,15,2,583,5,F,0,right,0.4444545209989883,1,0,,,,,,,,,,,,,,,,,,,,,1,,,,,,,,,,,,,,,,,,,,,,,,,,,,,,,,,,,,,,,,,,,,,,107,147358,21,Female,1,2024/03/20_14:01:40,YZ,None,
,,,,,,calibration,0,15,2,583,6,S,0,right,0.7404689239920117,1,0,,,,,,,,,,,,,,,,,,,,,1,,,,,,,,,,,,,,,,,,,,,,,,,,,,,,,,,,,,,,,,,,,,,,107,147358,21,Female,1,2024/03/20_14:01:40,YZ,None,
,,,,,,calibration,0,15,2,583,7,F,1,right,0.4601717259938596,0,0,,,,,,,,,,,,,,,,,,,,,1,,,,,,,,,,,,,,,,,,,,,,,,,,,,,,,,,,,,,,,,,,,,,,107,147358,21,Female,1,2024/03/20_14:01:40,YZ,None,
,,,,,,calibration,0,15,2,583,8,Q,0,right,0.7726519409916364,1,0,,,,,,,,,,,,,,,,,,,,,1,,,,,,,,,,,,,,,,,,,,,,,,,,,,,,,,,,,,,,,,,,,,,,107,147358,21,Female,1,2024/03/20_14:01:40,YZ,None,
,,,,,,calibration,0,15,2,583,9,F,1,right,0.6659000899962848,0,0,,,,,,,,,,,,,,,,,,,,,1,,,,,,,,,,,,,,,,,,,,,,,,,,,,,,,,,,,,,,,,,,,,,,107,147358,21,Female,1,2024/03/20_14:01:40,YZ,None,
,,,,,,calibration,0,15,2,583,10,C,0,left,0.7820260490116198,0,0,,,,,,,,,,,,,,,,,,,,,1,,,,,,,,,,,,,,,,,,,,,,,,,,,,,,,,,,,,,,,,,,,,,,107,147358,21,Female,1,2024/03/20_14:01:40,YZ,None,
,,,,,,calibration,0,15,2,583,11,F,1,right,0.5746107849990949,0,0,,,,,,,,,,,,,,,,,,,,,1,,,,,,,,,,,,,,,,,,,,,,,,,,,,,,,,,,,,,,,,,,,,,,107,147358,21,Female,1,2024/03/20_14:01:40,YZ,None,
,,,,,,calibration,0,15,2,583,12,C,1,right,0.3493893099948764,0,0,,,,,,,,,,,,,,,,,,,,,1,,,,,,,,,,,,,,,,,,,,,,,,,,,,,,,,,,,,,,,,,,,,,,107,147358,21,Female,1,2024/03/20_14:01:40,YZ,None,
,,,,,,calibration,0,15,2,583,13,S,0,right,0.6608298849896528,1,0,,,,,,,,,,,,,,,,,,,,,1,,,,,,,,,,,,,,,,,,,,,,,,,,,,,,,,,,,,,,,,,,,,,,107,147358,21,Female,1,2024/03/20_14:01:40,YZ,None,
,,,,,,calibration,0,15,2,583,14,X,0,right,0.22606688700034283,1,0,,,,,,,,,,,,,,,,,,,,,1,,,,,,,,,,,,,,,,,,,,,,,,,,,,,,,,,,,,,,,,,,,,,,107,147358,21,Female,1,2024/03/20_14:01:40,YZ,None,
,,,,,,calibration,0,15,2,583,15,Q,0,right,0.8730969720054418,1,0,,,,,,,,,,,,,,,,,,,,,1,,,,,,,,,,,,,,,,,,,,,,,,,,,,,,,,,,,,,,,,,,,,,,107,147358,21,Female,1,2024/03/20_14:01:40,YZ,None,
,,,,,,calibration,0,15,2,583,,,,,,,,0.22727272727272727,0.0,0.09090909090909091,0.9090909090909091,0.0,0.9090909090909091,0.566496526330593,0,1,0,0,0,10,10,4,11,0,,,,1,,,,,,,,,,,,,,,,,,,,,,,,,,,,,,,,,,,,,,,,,,,,,,107,147358,21,Female,1,2024/03/20_14:01:40,YZ,None,
,,,,,,Calibration,0,,2,583,,,,,,,,,,,,,,,,,,,,,,,,,3,,,1,,,,,,,,,,,,,,,,,,,,,,,,,,,,,,,,,,,,,,,,,,,,,,107,147358,21,Female,1,2024/03/20_14:01:40,YZ,None,
,,,,,,calibration,0,15,2,679,1,C,0,right,0.3657791260047816,1,0,,,,,,,,,,,,,,,,,,,,,1,,,,,,,,,,,,,,,,,,,,,,,,,,,,,,,,,,,,,,,,,,,,,,107,147358,21,Female,1,2024/03/20_14:01:40,YZ,None,
,,,,,,calibration,0,15,2,679,2,S,0,right,0.3372612359962659,1,0,,,,,,,,,,,,,,,,,,,,,1,,,,,,,,,,,,,,,,,,,,,,,,,,,,,,,,,,,,,,,,,,,,,,107,147358,21,Female,1,2024/03/20_14:01:40,YZ,None,
,,,,,,calibration,0,15,2,679,3,X,0,right,0.46820378900156356,1,0,,,,,,,,,,,,,,,,,,,,,1,,,,,,,,,,,,,,,,,,,,,,,,,,,,,,,,,,,,,,,,,,,,,,107,147358,21,Female,1,2024/03/20_14:01:40,YZ,None,
,,,,,,calibration,0,15,2,679,4,S,1,left,0.5592630000028294,1,0,,,,,,,,,,,,,,,,,,,,,1,,,,,,,,,,,,,,,,,,,,,,,,,,,,,,,,,,,,,,,,,,,,,,107,147358,21,Female,1,2024/03/20_14:01:40,YZ,None,
,,,,,,calibration,0,15,2,679,5,V,0,right,0.22201654899981804,1,0,,,,,,,,,,,,,,,,,,,,,1,,,,,,,,,,,,,,,,,,,,,,,,,,,,,,,,,,,,,,,,,,,,,,107,147358,21,Female,1,2024/03/20_14:01:40,YZ,None,
,,,,,,calibration,0,15,2,679,6,F,0,right,0.6334225479949964,1,0,,,,,,,,,,,,,,,,,,,,,1,,,,,,,,,,,,,,,,,,,,,,,,,,,,,,,,,,,,,,,,,,,,,,107,147358,21,Female,1,2024/03/20_14:01:40,YZ,None,
,,,,,,calibration,0,15,2,679,7,C,0,right,0.6650689749949379,1,0,,,,,,,,,,,,,,,,,,,,,1,,,,,,,,,,,,,,,,,,,,,,,,,,,,,,,,,,,,,,,,,,,,,,107,147358,21,Female,1,2024/03/20_14:01:40,YZ,None,
,,,,,,calibration,0,15,2,679,8,Q,0,right,0.5745122239895863,1,0,,,,,,,,,,,,,,,,,,,,,1,,,,,,,,,,,,,,,,,,,,,,,,,,,,,,,,,,,,,,,,,,,,,,107,147358,21,Female,1,2024/03/20_14:01:40,YZ,None,
,,,,,,calibration,0,15,2,679,9,C,1,left,0.4329005909967236,1,0,,,,,,,,,,,,,,,,,,,,,1,,,,,,,,,,,,,,,,,,,,,,,,,,,,,,,,,,,,,,,,,,,,,,107,147358,21,Female,1,2024/03/20_14:01:40,YZ,None,
,,,,,,calibration,0,15,2,679,10,F,0,right,0.2561199260089779,1,0,,,,,,,,,,,,,,,,,,,,,1,,,,,,,,,,,,,,,,,,,,,,,,,,,,,,,,,,,,,,,,,,,,,,107,147358,21,Female,1,2024/03/20_14:01:40,YZ,None,
,,,,,,calibration,0,15,2,679,11,C,1,left,0.5508821529947454,1,0,,,,,,,,,,,,,,,,,,,,,1,,,,,,,,,,,,,,,,,,,,,,,,,,,,,,,,,,,,,,,,,,,,,,107,147358,21,Female,1,2024/03/20_14:01:40,YZ,None,
,,,,,,calibration,0,15,2,679,12,F,1,right,0.186451694011339,0,0,,,,,,,,,,,,,,,,,,,,,1,,,,,,,,,,,,,,,,,,,,,,,,,,,,,,,,,,,,,,,,,,,,,,107,147358,21,Female,1,2024/03/20_14:01:40,YZ,None,
,,,,,,calibration,0,15,2,679,13,Q,0,right,0.4561154980037827,1,0,,,,,,,,,,,,,,,,,,,,,1,,,,,,,,,,,,,,,,,,,,,,,,,,,,,,,,,,,,,,,,,,,,,,107,147358,21,Female,1,2024/03/20_14:01:40,YZ,None,
,,,,,,calibration,0,15,2,679,14,V,0,right,0.4713264449965209,1,0,,,,,,,,,,,,,,,,,,,,,1,,,,,,,,,,,,,,,,,,,,,,,,,,,,,,,,,,,,,,,,,,,,,,107,147358,21,Female,1,2024/03/20_14:01:40,YZ,None,
,,,,,,calibration,0,15,2,679,,,,,,,,0.9375,0.75,0.0,1.0,0.0,1.0,0.4413802681426335,3,0,0,0,0,10,13,4,10,0,,,,1,,,,,,,,,,,,,,,,,,,,,,,,,,,,,,,,,,,,,,,,,,,,,,107,147358,21,Female,1,2024/03/20_14:01:40,YZ,None,
,,,,,,Calibration,0,,2,679,,,,,,,,,,,,,,,,,,,,,,,,,4,,,1,,,,,,,,,,,,,,,,,,,,,,,,,,,,,,,,,,,,,,,,,,,,,,107,147358,21,Female,1,2024/03/20_14:01:40,YZ,None,
,,,,,,calibration,0,22,2,583,1,F,0,right,0.472201770011452,1,0,,,,,,,,,,,,,,,,,,,,,1,,,,,,,,,,,,,,,,,,,,,,,,,,,,,,,,,,,,,,,,,,,,,,107,147358,21,Female,1,2024/03/20_14:01:40,YZ,None,
,,,,,,calibration,0,22,2,583,2,F,0,right,0.7299061669909861,1,0,,,,,,,,,,,,,,,,,,,,,1,,,,,,,,,,,,,,,,,,,,,,,,,,,,,,,,,,,,,,,,,,,,,,107,147358,21,Female,1,2024/03/20_14:01:40,YZ,None,
,,,,,,calibration,0,22,2,583,3,F,1,left,0.41006544600531925,1,0,,,,,,,,,,,,,,,,,,,,,1,,,,,,,,,,,,,,,,,,,,,,,,,,,,,,,,,,,,,,,,,,,,,,107,147358,21,Female,1,2024/03/20_14:01:40,YZ,None,
,,,,,,calibration,0,22,2,583,4,F,1,left,0.8658448320056777,1,0,,,,,,,,,,,,,,,,,,,,,1,,,,,,,,,,,,,,,,,,,,,,,,,,,,,,,,,,,,,,,,,,,,,,107,147358,21,Female,1,2024/03/20_14:01:40,YZ,None,
,,,,,,calibration,0,22,2,583,5,X,0,right,0.4905843949964037,1,0,,,,,,,,,,,,,,,,,,,,,1,,,,,,,,,,,,,,,,,,,,,,,,,,,,,,,,,,,,,,,,,,,,,,107,147358,21,Female,1,2024/03/20_14:01:40,YZ,None,
,,,,,,calibration,0,22,2,583,6,F,1,left,0.7250554339989321,1,0,,,,,,,,,,,,,,,,,,,,,1,,,,,,,,,,,,,,,,,,,,,,,,,,,,,,,,,,,,,,,,,,,,,,107,147358,21,Female,1,2024/03/20_14:01:40,YZ,None,
,,,,,,calibration,0,22,2,583,7,N,0,right,0.42681462499604095,1,0,,,,,,,,,,,,,,,,,,,,,1,,,,,,,,,,,,,,,,,,,,,,,,,,,,,,,,,,,,,,,,,,,,,,107,147358,21,Female,1,2024/03/20_14:01:40,YZ,None,
,,,,,,calibration,0,22,2,583,8,S,0,right,0.6344720470078755,1,0,,,,,,,,,,,,,,,,,,,,,1,,,,,,,,,,,,,,,,,,,,,,,,,,,,,,,,,,,,,,,,,,,,,,107,147358,21,Female,1,2024/03/20_14:01:40,YZ,None,
,,,,,,calibration,0,22,2,583,9,X,0,right,0.5561791799991624,1,0,,,,,,,,,,,,,,,,,,,,,1,,,,,,,,,,,,,,,,,,,,,,,,,,,,,,,,,,,,,,,,,,,,,,107,147358,21,Female,1,2024/03/20_14:01:40,YZ,None,
,,,,,,calibration,0,22,2,583,10,S,1,right,0.42875664299936034,0,0,,,,,,,,,,,,,,,,,,,,,1,,,,,,,,,,,,,,,,,,,,,,,,,,,,,,,,,,,,,,,,,,,,,,107,147358,21,Female,1,2024/03/20_14:01:40,YZ,None,
,,,,,,calibration,0,22,2,583,11,X,1,left,0.3684306499926606,1,0,,,,,,,,,,,,,,,,,,,,,1,,,,,,,,,,,,,,,,,,,,,,,,,,,,,,,,,,,,,,,,,,,,,,107,147358,21,Female,1,2024/03/20_14:01:40,YZ,None,
,,,,,,calibration,0,22,2,583,12,J,0,right,0.29782155400607735,1,0,,,,,,,,,,,,,,,,,,,,,1,,,,,,,,,,,,,,,,,,,,,,,,,,,,,,,,,,,,,,,,,,,,,,107,147358,21,Female,1,2024/03/20_14:01:40,YZ,None,
,,,,,,calibration,0,22,2,583,13,N,0,right,0.4726063439884456,1,0,,,,,,,,,,,,,,,,,,,,,1,,,,,,,,,,,,,,,,,,,,,,,,,,,,,,,,,,,,,,,,,,,,,,107,147358,21,Female,1,2024/03/20_14:01:40,YZ,None,
,,,,,,calibration,0,22,2,583,14,X,0,right,0.576953259005677,1,0,,,,,,,,,,,,,,,,,,,,,1,,,,,,,,,,,,,,,,,,,,,,,,,,,,,,,,,,,,,,,,,,,,,,107,147358,21,Female,1,2024/03/20_14:01:40,YZ,None,
,,,,,,calibration,0,22,2,583,15,J,0,right,0.4495990760042332,1,0,,,,,,,,,,,,,,,,,,,,,1,,,,,,,,,,,,,,,,,,,,,,,,,,,,,,,,,,,,,,,,,,,,,,107,147358,21,Female,1,2024/03/20_14:01:40,YZ,None,
,,,,,,calibration,0,22,2,583,,,,,,,,0.95,0.8,0.0,1.0,0.0,1.0,0.5270194281338869,4,0,0,0,0,10,14,5,10,0,,,,1,,,,,,,,,,,,,,,,,,,,,,,,,,,,,,,,,,,,,,,,,,,,,,107,147358,21,Female,1,2024/03/20_14:01:40,YZ,None,
,,,,,,Calibration,0,,2,583,,,,,,,,,,,,,,,,,,,,,,,,,5,,,1,,,,,,,,,,,,,,,,,,,,,,,,,,,,,,,,,,,,,,,,,,,,,,107,147358,21,Female,1,2024/03/20_14:01:40,YZ,None,
,,,,,,calibration,0,7,2,500,1,N,0,right,0.38378904199635144,1,0,,,,,,,,,,,,,,,,,,,,,1,,,,,,,,,,,,,,,,,,,,,,,,,,,,,,,,,,,,,,,,,,,,,,107,147358,21,Female,1,2024/03/20_14:01:40,YZ,None,
,,,,,,calibration,0,7,2,500,2,C,0,right,0.2683177639992209,1,0,,,,,,,,,,,,,,,,,,,,,1,,,,,,,,,,,,,,,,,,,,,,,,,,,,,,,,,,,,,,,,,,,,,,107,147358,21,Female,1,2024/03/20_14:01:40,YZ,None,
,,,,,,calibration,0,7,2,500,3,V,0,right,0.4563581379916286,1,0,,,,,,,,,,,,,,,,,,,,,1,,,,,,,,,,,,,,,,,,,,,,,,,,,,,,,,,,,,,,,,,,,,,,107,147358,21,Female,1,2024/03/20_14:01:40,YZ,None,
,,,,,,calibration,0,7,2,500,4,F,0,right,0.48063282000657637,1,0,,,,,,,,,,,,,,,,,,,,,1,,,,,,,,,,,,,,,,,,,,,,,,,,,,,,,,,,,,,,,,,,,,,,107,147358,21,Female,1,2024/03/20_14:01:40,YZ,None,
,,,,,,calibration,0,7,2,500,5,V,1,left,0.591698667005403,1,0,,,,,,,,,,,,,,,,,,,,,1,,,,,,,,,,,,,,,,,,,,,,,,,,,,,,,,,,,,,,,,,,,,,,107,147358,21,Female,1,2024/03/20_14:01:40,YZ,None,
,,,,,,calibration,0,7,2,500,6,J,0,right,0.2414442000008421,1,0,,,,,,,,,,,,,,,,,,,,,1,,,,,,,,,,,,,,,,,,,,,,,,,,,,,,,,,,,,,,,,,,,,,,107,147358,21,Female,1,2024/03/20_14:01:40,YZ,None,
,,,,,,calibration,0,7,2,500,7,N,0,right,0.33953086199471727,1,0,,,,,,,,,,,,,,,,,,,,,1,,,,,,,,,,,,,,,,,,,,,,,,,,,,,,,,,,,,,,,,,,,,,,107,147358,21,Female,1,2024/03/20_14:01:40,YZ,None,
,,,,,,calibration,0,7,2,500,8,J,1,left,0.34089984399906825,1,0,,,,,,,,,,,,,,,,,,,,,1,,,,,,,,,,,,,,,,,,,,,,,,,,,,,,,,,,,,,,,,,,,,,,107,147358,21,Female,1,2024/03/20_14:01:40,YZ,None,
,,,,,,calibration,0,7,2,500,9,N,1,right,0.21677214599912986,0,0,,,,,,,,,,,,,,,,,,,,,1,,,,,,,,,,,,,,,,,,,,,,,,,,,,,,,,,,,,,,,,,,,,,,107,147358,21,Female,1,2024/03/20_14:01:40,YZ,None,
,,,,,,calibration,0,7,2,500,10,Q,0,right,0.7636394130095141,1,0,,,,,,,,,,,,,,,,,,,,,1,,,,,,,,,,,,,,,,,,,,,,,,,,,,,,,,,,,,,,,,,,,,,,107,147358,21,Female,1,2024/03/20_14:01:40,YZ,None,
,,,,,,calibration,0,7,2,500,11,V,0,right,0.44239901400578674,1,0,,,,,,,,,,,,,,,,,,,,,1,,,,,,,,,,,,,,,,,,,,,,,,,,,,,,,,,,,,,,,,,,,,,,107,147358,21,Female,1,2024/03/20_14:01:40,YZ,None,
,,,,,,calibration,0,7,2,500,12,Q,1,left,0.6636028489883756,1,0,,,,,,,,,,,,,,,,,,,,,1,,,,,,,,,,,,,,,,,,,,,,,,,,,,,,,,,,,,,,,,,,,,,,107,147358,21,Female,1,2024/03/20_14:01:40,YZ,None,
,,,,,,calibration,0,7,2,500,13,N,0,right,0.2615513299970189,1,0,,,,,,,,,,,,,,,,,,,,,1,,,,,,,,,,,,,,,,,,,,,,,,,,,,,,,,,,,,,,,,,,,,,,107,147358,21,Female,1,2024/03/20_14:01:40,YZ,None,
,,,,,,calibration,0,7,2,500,14,Q,1,right,0.8736140200053342,0,0,,,,,,,,,,,,,,,,,,,,,1,,,,,,,,,,,,,,,,,,,,,,,,,,,,,,,,,,,,,,,,,,,,,,107,147358,21,Female,1,2024/03/20_14:01:40,YZ,None,
,,,,,,calibration,0,7,2,500,15,J,0,right,0.5874864170036744,1,0,,,,,,,,,,,,,,,,,,,,,1,,,,,,,,,,,,,,,,,,,,,,,,,,,,,,,,,,,,,,,,,,,,,,107,147358,21,Female,1,2024/03/20_14:01:40,YZ,None,
,,,,,,calibration,0,7,2,500,16,S,0,right,0.4737101659993641,1,0,,,,,,,,,,,,,,,,,,,,,1,,,,,,,,,,,,,,,,,,,,,,,,,,,,,,,,,,,,,,,,,,,,,,107,147358,21,Female,1,2024/03/20_14:01:40,YZ,None,
,,,,,,calibration,0,7,2,500,,,,,,,,0.9,0.6,0.0,1.0,0.0,1.0,0.46159041825012537,3,0,0,0,0,11,14,5,11,0,,,,1,,,,,,,,,,,,,,,,,,,,,,,,,,,,,,,,,,,,,,,,,,,,,,107,147358,21,Female,1,2024/03/20_14:01:40,YZ,None,
,,,,,,Calibration,0,,2,500,,,,,,,,,,,,,,,,,,,,,,,,,6,,,1,,,,,,,,,,,,,,,,,,,,,,,,,,,,,,,,,,,,,,,,,,,,,,107,147358,21,Female,1,2024/03/20_14:01:40,YZ,None,
,,,,,,calibration,0,3,2,426,1,N,0,right,0.4727367209998192,1,0,,,,,,,,,,,,,,,,,,,,,1,,,,,,,,,,,,,,,,,,,,,,,,,,,,,,,,,,,,,,,,,,,,,,107,147358,21,Female,1,2024/03/20_14:01:40,YZ,None,
,,,,,,calibration,0,3,2,426,2,Q,0,right,0.5248728599981405,1,0,,,,,,,,,,,,,,,,,,,,,1,,,,,,,,,,,,,,,,,,,,,,,,,,,,,,,,,,,,,,,,,,,,,,107,147358,21,Female,1,2024/03/20_14:01:40,YZ,None,
,,,,,,calibration,0,3,2,426,3,V,0,right,0.39519570099946577,1,0,,,,,,,,,,,,,,,,,,,,,1,,,,,,,,,,,,,,,,,,,,,,,,,,,,,,,,,,,,,,,,,,,,,,107,147358,21,Female,1,2024/03/20_14:01:40,YZ,None,
,,,,,,calibration,0,3,2,426,4,Q,1,left,0.4203273869934492,1,0,,,,,,,,,,,,,,,,,,,,,1,,,,,,,,,,,,,,,,,,,,,,,,,,,,,,,,,,,,,,,,,,,,,,107,147358,21,Female,1,2024/03/20_14:01:40,YZ,None,
,,,,,,calibration,0,3,2,426,5,V,1,left,0.6834447319997707,1,0,,,,,,,,,,,,,,,,,,,,,1,,,,,,,,,,,,,,,,,,,,,,,,,,,,,,,,,,,,,,,,,,,,,,107,147358,21,Female,1,2024/03/20_14:01:40,YZ,None,
,,,,,,calibration,0,3,2,426,6,J,0,left,nan,0,1,,,,,,,,,,,,,,,,,,,,,1,,,,,,,,,,,,,,,,,,,,,,,,,,,,,,,,,,,,,,,,,,,,,,107,147358,21,Female,1,2024/03/20_14:01:40,YZ,None,
,,,,,,calibration,0,3,2,426,7,V,1,right,0.23189072200329974,0,0,,,,,,,,,,,,,,,,,,,,,1,,,,,,,,,,,,,,,,,,,,,,,,,,,,,,,,,,,,,,,,,,,,,,107,147358,21,Female,1,2024/03/20_14:01:40,YZ,None,
,,,,,,calibration,0,3,2,426,8,F,0,right,0.6073168139992049,1,0,,,,,,,,,,,,,,,,,,,,,1,,,,,,,,,,,,,,,,,,,,,,,,,,,,,,,,,,,,,,,,,,,,,,107,147358,21,Female,1,2024/03/20_14:01:40,YZ,None,
,,,,,,calibration,0,3,2,426,9,X,0,right,0.7747214830014855,1,0,,,,,,,,,,,,,,,,,,,,,1,,,,,,,,,,,,,,,,,,,,,,,,,,,,,,,,,,,,,,,,,,,,,,107,147358,21,Female,1,2024/03/20_14:01:40,YZ,None,
,,,,,,calibration,0,3,2,426,10,C,0,right,0.4161600439983886,1,0,,,,,,,,,,,,,,,,,,,,,1,,,,,,,,,,,,,,,,,,,,,,,,,,,,,,,,,,,,,,,,,,,,,,107,147358,21,Female,1,2024/03/20_14:01:40,YZ,None,
,,,,,,calibration,0,3,2,426,11,F,0,right,0.6755441559944302,1,0,,,,,,,,,,,,,,,,,,,,,1,,,,,,,,,,,,,,,,,,,,,,,,,,,,,,,,,,,,,,,,,,,,,,107,147358,21,Female,1,2024/03/20_14:01:40,YZ,None,
,,,,,,calibration,0,3,2,426,12,J,0,right,0.7230820279946784,1,0,,,,,,,,,,,,,,,,,,,,,1,,,,,,,,,,,,,,,,,,,,,,,,,,,,,,,,,,,,,,,,,,,,,,107,147358,21,Female,1,2024/03/20_14:01:40,YZ,None,
,,,,,,calibration,0,3,2,426,13,F,1,right,0.4522378979891073,0,0,,,,,,,,,,,,,,,,,,,,,1,,,,,,,,,,,,,,,,,,,,,,,,,,,,,,,,,,,,,,,,,,,,,,107,147358,21,Female,1,2024/03/20_14:01:40,YZ,None,
,,,,,,calibration,0,3,2,426,14,N,0,right,0.6641606969933491,1,0,,,,,,,,,,,,,,,,,,,,,1,,,,,,,,,,,,,,,,,,,,,,,,,,,,,,,,,,,,,,,,,,,,,,107,147358,21,Female,1,2024/03/20_14:01:40,YZ,None,
,,,,,,calibration,0,3,2,426,15,F,1,left,0.38604832300916314,1,0,,,,,,,,,,,,,,,,,,,,,1,,,,,,,,,,,,,,,,,,,,,,,,,,,,,,,,,,,,,,,,,,,,,,107,147358,21,Female,1,2024/03/20_14:01:40,YZ,None,
,,,,,,calibration,0,3,2,426,16,X,0,right,0.4312576100055594,1,0,,,,,,,,,,,,,,,,,,,,,1,,,,,,,,,,,,,,,,,,,,,,,,,,,,,,,,,,,,,,,,,,,,,,107,147358,21,Female,1,2024/03/20_14:01:40,YZ,None,
,,,,,,calibration,0,3,2,426,17,J,0,right,0.8635049010044895,1,0,,,,,,,,,,,,,,,,,,,,,1,,,,,,,,,,,,,,,,,,,,,,,,,,,,,,,,,,,,,,,,,,,,,,107,147358,21,Female,1,2024/03/20_14:01:40,YZ,None,
,,,,,,calibration,0,3,2,426,,,,,,,,0.9,0.6,0.0,1.0,0.058823529411764705,0.9411764705882353,0.5451563798114876,3,0,0,1,1,11,14,5,12,0,,,,1,,,,,,,,,,,,,,,,,,,,,,,,,,,,,,,,,,,,,,,,,,,,,,107,147358,21,Female,1,2024/03/20_14:01:40,YZ,None,
,,,,,,Calibration,0,,2,426,,,,,,,,,,,,,,,,,,,,,,,,,7,,,1,,,,,,,,,,,,,,,,,,,,,,,,,,,,,,,,,,,,,,,,,,,,,,107,147358,21,Female,1,2024/03/20_14:01:40,YZ,None,
,,,,,,calibration,0,30,2,361,1,N,0,right,0.4827184799942188,1,0,,,,,,,,,,,,,,,,,,,,,1,,,,,,,,,,,,,,,,,,,,,,,,,,,,,,,,,,,,,,,,,,,,,,107,147358,21,Female,1,2024/03/20_14:01:40,YZ,None,
,,,,,,calibration,0,30,2,361,2,X,0,right,0.7645717989944387,1,0,,,,,,,,,,,,,,,,,,,,,1,,,,,,,,,,,,,,,,,,,,,,,,,,,,,,,,,,,,,,,,,,,,,,107,147358,21,Female,1,2024/03/20_14:01:40,YZ,None,
,,,,,,calibration,0,30,2,361,3,N,1,right,0.44784564898873214,0,0,,,,,,,,,,,,,,,,,,,,,1,,,,,,,,,,,,,,,,,,,,,,,,,,,,,,,,,,,,,,,,,,,,,,107,147358,21,Female,1,2024/03/20_14:01:40,YZ,None,
,,,,,,calibration,0,30,2,361,4,F,0,left,0.5123738880065503,0,0,,,,,,,,,,,,,,,,,,,,,1,,,,,,,,,,,,,,,,,,,,,,,,,,,,,,,,,,,,,,,,,,,,,,107,147358,21,Female,1,2024/03/20_14:01:40,YZ,None,
,,,,,,calibration,0,30,2,361,5,X,0,right,0.577277314994717,1,0,,,,,,,,,,,,,,,,,,,,,1,,,,,,,,,,,,,,,,,,,,,,,,,,,,,,,,,,,,,,,,,,,,,,107,147358,21,Female,1,2024/03/20_14:01:40,YZ,None,
,,,,,,calibration,0,30,2,361,6,S,0,right,0.855779124001856,1,0,,,,,,,,,,,,,,,,,,,,,1,,,,,,,,,,,,,,,,,,,,,,,,,,,,,,,,,,,,,,,,,,,,,,107,147358,21,Female,1,2024/03/20_14:01:40,YZ,None,
,,,,,,calibration,0,30,2,361,7,V,0,right,0.8924946090119192,1,0,,,,,,,,,,,,,,,,,,,,,1,,,,,,,,,,,,,,,,,,,,,,,,,,,,,,,,,,,,,,,,,,,,,,107,147358,21,Female,1,2024/03/20_14:01:40,YZ,None,
,,,,,,calibration,0,30,2,361,8,Q,0,right,0.43026571899827104,1,0,,,,,,,,,,,,,,,,,,,,,1,,,,,,,,,,,,,,,,,,,,,,,,,,,,,,,,,,,,,,,,,,,,,,107,147358,21,Female,1,2024/03/20_14:01:40,YZ,None,
,,,,,,calibration,0,30,2,361,9,V,1,right,0.44215713399171364,0,0,,,,,,,,,,,,,,,,,,,,,1,,,,,,,,,,,,,,,,,,,,,,,,,,,,,,,,,,,,,,,,,,,,,,107,147358,21,Female,1,2024/03/20_14:01:40,YZ,None,
,,,,,,calibration,0,30,2,361,10,Q,1,left,0.32175429099879693,1,0,,,,,,,,,,,,,,,,,,,,,1,,,,,,,,,,,,,,,,,,,,,,,,,,,,,,,,,,,,,,,,,,,,,,107,147358,21,Female,1,2024/03/20_14:01:40,YZ,None,
,,,,,,calibration,0,30,2,361,11,N,0,right,0.31628970299789216,1,0,,,,,,,,,,,,,,,,,,,,,1,,,,,,,,,,,,,,,,,,,,,,,,,,,,,,,,,,,,,,,,,,,,,,107,147358,21,Female,1,2024/03/20_14:01:40,YZ,None,
,,,,,,calibration,0,30,2,361,12,J,0,right,0.7626304000004893,1,0,,,,,,,,,,,,,,,,,,,,,1,,,,,,,,,,,,,,,,,,,,,,,,,,,,,,,,,,,,,,,,,,,,,,107,147358,21,Female,1,2024/03/20_14:01:40,YZ,None,
,,,,,,calibration,0,30,2,361,13,N,1,right,0.5580408050009282,0,0,,,,,,,,,,,,,,,,,,,,,1,,,,,,,,,,,,,,,,,,,,,,,,,,,,,,,,,,,,,,,,,,,,,,107,147358,21,Female,1,2024/03/20_14:01:40,YZ,None,
,,,,,,calibration,0,30,2,361,14,F,0,right,0.512394988007145,1,0,,,,,,,,,,,,,,,,,,,,,1,,,,,,,,,,,,,,,,,,,,,,,,,,,,,,,,,,,,,,,,,,,,,,107,147358,21,Female,1,2024/03/20_14:01:40,YZ,None,
,,,,,,calibration,0,30,2,361,15,J,0,left,0.48793026799103245,0,0,,,,,,,,,,,,,,,,,,,,,1,,,,,,,,,,,,,,,,,,,,,,,,,,,,,,,,,,,,,,,,,,,,,,107,147358,21,Female,1,2024/03/20_14:01:40,YZ,None,
,,,,,,calibration,0,30,2,361,16,F,1,right,0.5126651180034969,0,0,,,,,,,,,,,,,,,,,,,,,1,,,,,,,,,,,,,,,,,,,,,,,,,,,,,,,,,,,,,,,,,,,,,,107,147358,21,Female,1,2024/03/20_14:01:40,YZ,None,
,,,,,,calibration,0,30,2,361,17,V,0,right,0.7248233330028597,1,0,,,,,,,,,,,,,,,,,,,,,1,,,,,,,,,,,,,,,,,,,,,,,,,,,,,,,,,,,,,,,,,,,,,,107,147358,21,Female,1,2024/03/20_14:01:40,YZ,None,
,,,,,,calibration,0,30,2,361,18,F,1,right,0.6355147329886677,0,0,,,,,,,,,,,,,,,,,,,,,1,,,,,,,,,,,,,,,,,,,,,,,,,,,,,,,,,,,,,,,,,,,,,,107,147358,21,Female,1,2024/03/20_14:01:40,YZ,None,
,,,,,,calibration,0,30,2,361,,,,,,,,0.5,0.16666666666666666,0.16666666666666666,0.8333333333333334,0.0,0.8333333333333334,0.5687515197763181,1,2,0,0,0,10,11,6,12,0,,,,1,,,,,,,,,,,,,,,,,,,,,,,,,,,,,,,,,,,,,,,,,,,,,,107,147358,21,Female,1,2024/03/20_14:01:40,YZ,None,
,,,,,,Calibration,0,,2,361,,,,,,,,,,,,,,,,,,,,,,,,,8,,,1,,,,,,,,,,,,,,,,,,,,,,,,,,,,,,,,,,,,,,,,,,,,,,107,147358,21,Female,1,2024/03/20_14:01:40,YZ,None,
,,,,,,calibration,0,20,2,426,1,C,0,right,0.4029027250071522,1,0,,,,,,,,,,,,,,,,,,,,,1,,,,,,,,,,,,,,,,,,,,,,,,,,,,,,,,,,,,,,,,,,,,,,107,147358,21,Female,1,2024/03/20_14:01:40,YZ,None,
,,,,,,calibration,0,20,2,426,2,X,0,right,nan,0,1,,,,,,,,,,,,,,,,,,,,,1,,,,,,,,,,,,,,,,,,,,,,,,,,,,,,,,,,,,,,,,,,,,,,107,147358,21,Female,1,2024/03/20_14:01:40,YZ,None,
,,,,,,calibration,0,20,2,426,3,V,0,right,0.0,1,0,,,,,,,,,,,,,,,,,,,,,1,,,,,,,,,,,,,,,,,,,,,,,,,,,,,,,,,,,,,,,,,,,,,,107,147358,21,Female,1,2024/03/20_14:01:40,YZ,None,
,,,,,,calibration,0,20,2,426,4,X,1,right,nan,0,1,,,,,,,,,,,,,,,,,,,,,1,,,,,,,,,,,,,,,,,,,,,,,,,,,,,,,,,,,,,,,,,,,,,,107,147358,21,Female,1,2024/03/20_14:01:40,YZ,None,
,,,,,,calibration,0,20,2,426,5,F,0,right,0.3064217999926768,1,0,,,,,,,,,,,,,,,,,,,,,1,,,,,,,,,,,,,,,,,,,,,,,,,,,,,,,,,,,,,,,,,,,,,,107,147358,21,Female,1,2024/03/20_14:01:40,YZ,None,
,,,,,,calibration,0,20,2,426,6,X,1,right,0.581602466001641,0,0,,,,,,,,,,,,,,,,,,,,,1,,,,,,,,,,,,,,,,,,,,,,,,,,,,,,,,,,,,,,,,,,,,,,107,147358,21,Female,1,2024/03/20_14:01:40,YZ,None,
,,,,,,calibration,0,20,2,426,7,J,0,right,0.41044131899252534,1,0,,,,,,,,,,,,,,,,,,,,,1,,,,,,,,,,,,,,,,,,,,,,,,,,,,,,,,,,,,,,,,,,,,,,107,147358,21,Female,1,2024/03/20_14:01:40,YZ,None,
,,,,,,calibration,0,20,2,426,8,X,1,left,0.33309605000249576,1,0,,,,,,,,,,,,,,,,,,,,,1,,,,,,,,,,,,,,,,,,,,,,,,,,,,,,,,,,,,,,,,,,,,,,107,147358,21,Female,1,2024/03/20_14:01:40,YZ,None,
,,,,,,calibration,0,20,2,426,9,F,0,right,0.7725470019940985,1,0,,,,,,,,,,,,,,,,,,,,,1,,,,,,,,,,,,,,,,,,,,,,,,,,,,,,,,,,,,,,,,,,,,,,107,147358,21,Female,1,2024/03/20_14:01:40,YZ,None,
,,,,,,calibration,0,20,2,426,10,J,0,right,0.7582452149945311,1,0,,,,,,,,,,,,,,,,,,,,,1,,,,,,,,,,,,,,,,,,,,,,,,,,,,,,,,,,,,,,,,,,,,,,107,147358,21,Female,1,2024/03/20_14:01:40,YZ,None,
,,,,,,calibration,0,20,2,426,11,Q,0,right,0.8365811620024033,1,0,,,,,,,,,,,,,,,,,,,,,1,,,,,,,,,,,,,,,,,,,,,,,,,,,,,,,,,,,,,,,,,,,,,,107,147358,21,Female,1,2024/03/20_14:01:40,YZ,None,
,,,,,,calibration,0,20,2,426,12,X,0,right,0.38687339700118173,1,0,,,,,,,,,,,,,,,,,,,,,1,,,,,,,,,,,,,,,,,,,,,,,,,,,,,,,,,,,,,,,,,,,,,,107,147358,21,Female,1,2024/03/20_14:01:40,YZ,None,
,,,,,,calibration,0,20,2,426,13,Q,1,left,0.40482327599602286,1,0,,,,,,,,,,,,,,,,,,,,,1,,,,,,,,,,,,,,,,,,,,,,,,,,,,,,,,,,,,,,,,,,,,,,107,147358,21,Female,1,2024/03/20_14:01:40,YZ,None,
,,,,,,calibration,0,20,2,426,14,X,1,right,0.5672383010096382,0,0,,,,,,,,,,,,,,,,,,,,,1,,,,,,,,,,,,,,,,,,,,,,,,,,,,,,,,,,,,,,,,,,,,,,107,147358,21,Female,1,2024/03/20_14:01:40,YZ,None,
,,,,,,calibration,0,20,2,426,15,F,0,right,0.4779115749988705,1,0,,,,,,,,,,,,,,,,,,,,,1,,,,,,,,,,,,,,,,,,,,,,,,,,,,,,,,,,,,,,,,,,,,,,107,147358,21,Female,1,2024/03/20_14:01:40,YZ,None,
,,,,,,calibration,0,20,2,426,16,Q,0,right,nan,0,1,,,,,,,,,,,,,,,,,,,,,1,,,,,,,,,,,,,,,,,,,,,,,,,,,,,,,,,,,,,,,,,,,,,,107,147358,21,Female,1,2024/03/20_14:01:40,YZ,None,
,,,,,,calibration,0,20,2,426,17,N,0,right,0.5310868140077218,1,0,,,,,,,,,,,,,,,,,,,,,1,,,,,,,,,,,,,,,,,,,,,,,,,,,,,,,,,,,,,,,,,,,,,,107,147358,21,Female,1,2024/03/20_14:01:40,YZ,None,
,,,,,,calibration,0,20,2,426,,,,,,,,0.85,0.4,0.0,1.0,0.17647058823529413,0.8235294117647058,0.4835550787143542,2,0,1,2,3,10,12,5,12,0,,,,1,,,,,,,,,,,,,,,,,,,,,,,,,,,,,,,,,,,,,,,,,,,,,,107,147358,21,Female,1,2024/03/20_14:01:40,YZ,None,
,,,,,,Calibration,0,,2,426,,,,,,,,,,,,,,,,,,,,,,,,,9,,,1,,,,,,,,,,,,,,,,,,,,,,,,,,,,,,,,,,,,,,,,,,,,,,107,147358,21,Female,1,2024/03/20_14:01:40,YZ,None,
,,,,,,calibration,0,35,2,426,1,V,0,right,0.3246039209916489,1,0,,,,,,,,,,,,,,,,,,,,,1,,,,,,,,,,,,,,,,,,,,,,,,,,,,,,,,,,,,,,,,,,,,,,107,147358,21,Female,1,2024/03/20_14:01:40,YZ,None,
,,,,,,calibration,0,35,2,426,2,S,0,right,0.4076879459898919,1,0,,,,,,,,,,,,,,,,,,,,,1,,,,,,,,,,,,,,,,,,,,,,,,,,,,,,,,,,,,,,,,,,,,,,107,147358,21,Female,1,2024/03/20_14:01:40,YZ,None,
,,,,,,calibration,0,35,2,426,3,V,1,left,0.33582716900855303,1,0,,,,,,,,,,,,,,,,,,,,,1,,,,,,,,,,,,,,,,,,,,,,,,,,,,,,,,,,,,,,,,,,,,,,107,147358,21,Female,1,2024/03/20_14:01:40,YZ,None,
,,,,,,calibration,0,35,2,426,4,S,1,right,0.3905968990002293,0,0,,,,,,,,,,,,,,,,,,,,,1,,,,,,,,,,,,,,,,,,,,,,,,,,,,,,,,,,,,,,,,,,,,,,107,147358,21,Female,1,2024/03/20_14:01:40,YZ,None,
,,,,,,calibration,0,35,2,426,5,Q,0,right,0.5317855570028769,1,0,,,,,,,,,,,,,,,,,,,,,1,,,,,,,,,,,,,,,,,,,,,,,,,,,,,,,,,,,,,,,,,,,,,,107,147358,21,Female,1,2024/03/20_14:01:40,YZ,None,
,,,,,,calibration,0,35,2,426,6,S,1,left,0.5580002979986602,1,0,,,,,,,,,,,,,,,,,,,,,1,,,,,,,,,,,,,,,,,,,,,,,,,,,,,,,,,,,,,,,,,,,,,,107,147358,21,Female,1,2024/03/20_14:01:40,YZ,None,
,,,,,,calibration,0,35,2,426,7,N,0,right,0.20881729600660037,1,0,,,,,,,,,,,,,,,,,,,,,1,,,,,,,,,,,,,,,,,,,,,,,,,,,,,,,,,,,,,,,,,,,,,,107,147358,21,Female,1,2024/03/20_14:01:40,YZ,None,
,,,,,,calibration,0,35,2,426,8,V,0,right,0.4982263530109776,1,0,,,,,,,,,,,,,,,,,,,,,1,,,,,,,,,,,,,,,,,,,,,,,,,,,,,,,,,,,,,,,,,,,,,,107,147358,21,Female,1,2024/03/20_14:01:40,YZ,None,
,,,,,,calibration,0,35,2,426,9,N,1,left,0.4880267340049613,1,0,,,,,,,,,,,,,,,,,,,,,1,,,,,,,,,,,,,,,,,,,,,,,,,,,,,,,,,,,,,,,,,,,,,,107,147358,21,Female,1,2024/03/20_14:01:40,YZ,None,
,,,,,,calibration,0,35,2,426,10,C,0,right,0.4804343139985576,1,0,,,,,,,,,,,,,,,,,,,,,1,,,,,,,,,,,,,,,,,,,,,,,,,,,,,,,,,,,,,,,,,,,,,,107,147358,21,Female,1,2024/03/20_14:01:40,YZ,None,
,,,,,,calibration,0,35,2,426,11,Q,0,right,0.8153716300002998,1,0,,,,,,,,,,,,,,,,,,,,,1,,,,,,,,,,,,,,,,,,,,,,,,,,,,,,,,,,,,,,,,,,,,,,107,147358,21,Female,1,2024/03/20_14:01:40,YZ,None,
,,,,,,calibration,0,35,2,426,12,J,0,right,0.5306388879980659,1,0,,,,,,,,,,,,,,,,,,,,,1,,,,,,,,,,,,,,,,,,,,,,,,,,,,,,,,,,,,,,,,,,,,,,107,147358,21,Female,1,2024/03/20_14:01:40,YZ,None,
,,,,,,calibration,0,35,2,426,13,C,0,right,0.4174509229924297,1,0,,,,,,,,,,,,,,,,,,,,,1,,,,,,,,,,,,,,,,,,,,,,,,,,,,,,,,,,,,,,,,,,,,,,107,147358,21,Female,1,2024/03/20_14:01:40,YZ,None,
,,,,,,calibration,0,35,2,426,14,J,1,left,0.35982981500274036,1,0,,,,,,,,,,,,,,,,,,,,,1,,,,,,,,,,,,,,,,,,,,,,,,,,,,,,,,,,,,,,,,,,,,,,107,147358,21,Female,1,2024/03/20_14:01:40,YZ,None,
,,,,,,calibration,0,35,2,426,15,V,0,right,0.7932054570119362,1,0,,,,,,,,,,,,,,,,,,,,,1,,,,,,,,,,,,,,,,,,,,,,,,,,,,,,,,,,,,,,,,,,,,,,107,147358,21,Female,1,2024/03/20_14:01:40,YZ,None,
,,,,,,calibration,0,35,2,426,16,X,0,right,0.686055653000949,1,0,,,,,,,,,,,,,,,,,,,,,1,,,,,,,,,,,,,,,,,,,,,,,,,,,,,,,,,,,,,,,,,,,,,,107,147358,21,Female,1,2024/03/20_14:01:40,YZ,None,
,,,,,,calibration,0,35,2,426,17,N,0,right,0.8351091730000917,1,0,,,,,,,,,,,,,,,,,,,,,1,,,,,,,,,,,,,,,,,,,,,,,,,,,,,,,,,,,,,,,,,,,,,,107,147358,21,Female,1,2024/03/20_14:01:40,YZ,None,
,,,,,,calibration,0,35,2,426,,,,,,,,0.95,0.8,0.0,1.0,0.0,1.0,0.5095098838834983,4,0,0,0,0,12,16,5,12,0,,,,1,,,,,,,,,,,,,,,,,,,,,,,,,,,,,,,,,,,,,,,,,,,,,,107,147358,21,Female,1,2024/03/20_14:01:40,YZ,None,
,,,,,,Calibration,0,,2,426,,,,,,,,,,,,,,,,,,,,,,,,,10,,,1,,,,,,,,,,,,,,,,,,,,,,,,,,,,,,,,,,,,,,,,,,,,,,107,147358,21,Female,1,2024/03/20_14:01:40,YZ,None,
,,,,,,calibration,0,18,2,361,1,X,0,right,0.34672083499026485,1,0,,,,,,,,,,,,,,,,,,,,,1,,,,,,,,,,,,,,,,,,,,,,,,,,,,,,,,,,,,,,,,,,,,,,107,147358,21,Female,1,2024/03/20_14:01:40,YZ,None,
,,,,,,calibration,0,18,2,361,2,X,0,right,0.5559788020036649,1,0,,,,,,,,,,,,,,,,,,,,,1,,,,,,,,,,,,,,,,,,,,,,,,,,,,,,,,,,,,,,,,,,,,,,107,147358,21,Female,1,2024/03/20_14:01:40,YZ,None,
,,,,,,calibration,0,18,2,361,3,C,0,right,0.6063628940028138,1,0,,,,,,,,,,,,,,,,,,,,,1,,,,,,,,,,,,,,,,,,,,,,,,,,,,,,,,,,,,,,,,,,,,,,107,147358,21,Female,1,2024/03/20_14:01:40,YZ,None,
,,,,,,calibration,0,18,2,361,4,N,0,right,0.5122482430015225,1,0,,,,,,,,,,,,,,,,,,,,,1,,,,,,,,,,,,,,,,,,,,,,,,,,,,,,,,,,,,,,,,,,,,,,107,147358,21,Female,1,2024/03/20_14:01:40,YZ,None,
,,,,,,calibration,0,18,2,361,5,F,0,right,0.45657941499666777,1,0,,,,,,,,,,,,,,,,,,,,,1,,,,,,,,,,,,,,,,,,,,,,,,,,,,,,,,,,,,,,,,,,,,,,107,147358,21,Female,1,2024/03/20_14:01:40,YZ,None,
,,,,,,calibration,0,18,2,361,6,N,1,right,nan,0,1,,,,,,,,,,,,,,,,,,,,,1,,,,,,,,,,,,,,,,,,,,,,,,,,,,,,,,,,,,,,,,,,,,,,107,147358,21,Female,1,2024/03/20_14:01:40,YZ,None,
,,,,,,calibration,0,18,2,361,7,F,1,right,0.49038353000651114,0,0,,,,,,,,,,,,,,,,,,,,,1,,,,,,,,,,,,,,,,,,,,,,,,,,,,,,,,,,,,,,,,,,,,,,107,147358,21,Female,1,2024/03/20_14:01:40,YZ,None,
,,,,,,calibration,0,18,2,361,8,X,0,right,0.46456357699935324,1,0,,,,,,,,,,,,,,,,,,,,,1,,,,,,,,,,,,,,,,,,,,,,,,,,,,,,,,,,,,,,,,,,,,,,107,147358,21,Female,1,2024/03/20_14:01:40,YZ,None,
,,,,,,calibration,0,18,2,361,9,F,1,left,0.8187684599979548,1,0,,,,,,,,,,,,,,,,,,,,,1,,,,,,,,,,,,,,,,,,,,,,,,,,,,,,,,,,,,,,,,,,,,,,107,147358,21,Female,1,2024/03/20_14:01:40,YZ,None,
,,,,,,calibration,0,18,2,361,10,N,0,right,0.39749076499720104,1,0,,,,,,,,,,,,,,,,,,,,,1,,,,,,,,,,,,,,,,,,,,,,,,,,,,,,,,,,,,,,,,,,,,,,107,147358,21,Female,1,2024/03/20_14:01:40,YZ,None,
,,,,,,calibration,0,18,2,361,11,V,0,right,0.5682700309989741,1,0,,,,,,,,,,,,,,,,,,,,,1,,,,,,,,,,,,,,,,,,,,,,,,,,,,,,,,,,,,,,,,,,,,,,107,147358,21,Female,1,2024/03/20_14:01:40,YZ,None,
,,,,,,calibration,0,18,2,361,12,N,1,right,0.7924816909944639,0,0,,,,,,,,,,,,,,,,,,,,,1,,,,,,,,,,,,,,,,,,,,,,,,,,,,,,,,,,,,,,,,,,,,,,107,147358,21,Female,1,2024/03/20_14:01:40,YZ,None,
,,,,,,calibration,0,18,2,361,13,V,1,left,0.49136637200717814,1,0,,,,,,,,,,,,,,,,,,,,,1,,,,,,,,,,,,,,,,,,,,,,,,,,,,,,,,,,,,,,,,,,,,,,107,147358,21,Female,1,2024/03/20_14:01:40,YZ,None,
,,,,,,calibration,0,18,2,361,14,X,0,right,0.5367429079924477,1,0,,,,,,,,,,,,,,,,,,,,,1,,,,,,,,,,,,,,,,,,,,,,,,,,,,,,,,,,,,,,,,,,,,,,107,147358,21,Female,1,2024/03/20_14:01:40,YZ,None,
,,,,,,calibration,0,18,2,361,15,V,1,right,0.5192031280021183,0,0,,,,,,,,,,,,,,,,,,,,,1,,,,,,,,,,,,,,,,,,,,,,,,,,,,,,,,,,,,,,,,,,,,,,107,147358,21,Female,1,2024/03/20_14:01:40,YZ,None,
,,,,,,calibration,0,18,2,361,16,N,0,right,0.5122818899981212,1,0,,,,,,,,,,,,,,,,,,,,,1,,,,,,,,,,,,,,,,,,,,,,,,,,,,,,,,,,,,,,,,,,,,,,107,147358,21,Female,1,2024/03/20_14:01:40,YZ,None,
,,,,,,calibration,0,18,2,361,17,S,0,right,0.4950210559909465,1,0,,,,,,,,,,,,,,,,,,,,,1,,,,,,,,,,,,,,,,,,,,,,,,,,,,,,,,,,,,,,,,,,,,,,107,147358,21,Female,1,2024/03/20_14:01:40,YZ,None,
,,,,,,calibration,0,18,2,361,18,F,0,right,0.6645770930044819,1,0,,,,,,,,,,,,,,,,,,,,,1,,,,,,,,,,,,,,,,,,,,,,,,,,,,,,,,,,,,,,,,,,,,,,107,147358,21,Female,1,2024/03/20_14:01:40,YZ,None,
,,,,,,calibration,0,18,2,361,,,,,,,,0.8333333333333334,0.3333333333333333,0.0,1.0,0.05555555555555555,0.9444444444444444,0.5428847464696874,2,0,1,0,1,12,14,6,12,0,,,,1,,,,,,,,,,,,,,,,,,,,,,,,,,,,,,,,,,,,,,,,,,,,,,107,147358,21,Female,1,2024/03/20_14:01:40,YZ,None,
,,,,,,Calibration,0,,2,361,,,,,,,,,,,,,,,,,,,,,,,,,11,,,1,,,,,,,,,,,,,,,,,,,,,,,,,,,,,,,,,,,,,,,,,,,,,,107,147358,21,Female,1,2024/03/20_14:01:40,YZ,None,
,,,,,,calibration,0,23,2,361,1,Q,0,right,0.34761477100255433,1,0,,,,,,,,,,,,,,,,,,,,,1,,,,,,,,,,,,,,,,,,,,,,,,,,,,,,,,,,,,,,,,,,,,,,107,147358,21,Female,1,2024/03/20_14:01:40,YZ,None,
,,,,,,calibration,0,23,2,361,2,V,0,right,0.5238850900059333,1,0,,,,,,,,,,,,,,,,,,,,,1,,,,,,,,,,,,,,,,,,,,,,,,,,,,,,,,,,,,,,,,,,,,,,107,147358,21,Female,1,2024/03/20_14:01:40,YZ,None,
,,,,,,calibration,0,23,2,361,3,F,0,right,0.42158883599040564,1,0,,,,,,,,,,,,,,,,,,,,,1,,,,,,,,,,,,,,,,,,,,,,,,,,,,,,,,,,,,,,,,,,,,,,107,147358,21,Female,1,2024/03/20_14:01:40,YZ,None,
,,,,,,calibration,0,23,2,361,4,N,0,right,0.44860555601189844,1,0,,,,,,,,,,,,,,,,,,,,,1,,,,,,,,,,,,,,,,,,,,,,,,,,,,,,,,,,,,,,,,,,,,,,107,147358,21,Female,1,2024/03/20_14:01:40,YZ,None,
,,,,,,calibration,0,23,2,361,5,X,0,right,0.5565107989968965,1,0,,,,,,,,,,,,,,,,,,,,,1,,,,,,,,,,,,,,,,,,,,,,,,,,,,,,,,,,,,,,,,,,,,,,107,147358,21,Female,1,2024/03/20_14:01:40,YZ,None,
,,,,,,calibration,0,23,2,361,6,N,1,right,0.4526766029885039,0,0,,,,,,,,,,,,,,,,,,,,,1,,,,,,,,,,,,,,,,,,,,,,,,,,,,,,,,,,,,,,,,,,,,,,107,147358,21,Female,1,2024/03/20_14:01:40,YZ,None,
,,,,,,calibration,0,23,2,361,7,S,0,right,0.43927706200338434,1,0,,,,,,,,,,,,,,,,,,,,,1,,,,,,,,,,,,,,,,,,,,,,,,,,,,,,,,,,,,,,,,,,,,,,107,147358,21,Female,1,2024/03/20_14:01:40,YZ,None,
,,,,,,calibration,0,23,2,361,8,X,0,right,0.5123862930049654,1,0,,,,,,,,,,,,,,,,,,,,,1,,,,,,,,,,,,,,,,,,,,,,,,,,,,,,,,,,,,,,,,,,,,,,107,147358,21,Female,1,2024/03/20_14:01:40,YZ,None,
,,,,,,calibration,0,23,2,361,9,S,1,left,0.3472003499919083,1,0,,,,,,,,,,,,,,,,,,,,,1,,,,,,,,,,,,,,,,,,,,,,,,,,,,,,,,,,,,,,,,,,,,,,107,147358,21,Female,1,2024/03/20_14:01:40,YZ,None,
,,,,,,calibration,0,23,2,361,10,X,1,right,0.3325206620065728,0,0,,,,,,,,,,,,,,,,,,,,,1,,,,,,,,,,,,,,,,,,,,,,,,,,,,,,,,,,,,,,,,,,,,,,107,147358,21,Female,1,2024/03/20_14:01:40,YZ,None,
,,,,,,calibration,0,23,2,361,11,N,0,right,0.45617479900829494,1,0,,,,,,,,,,,,,,,,,,,,,1,,,,,,,,,,,,,,,,,,,,,,,,,,,,,,,,,,,,,,,,,,,,,,107,147358,21,Female,1,2024/03/20_14:01:40,YZ,None,
,,,,,,calibration,0,23,2,361,12,X,1,right,0.730439128994476,0,0,,,,,,,,,,,,,,,,,,,,,1,,,,,,,,,,,,,,,,,,,,,,,,,,,,,,,,,,,,,,,,,,,,,,107,147358,21,Female,1,2024/03/20_14:01:40,YZ,None,
,,,,,,calibration,0,23,2,361,13,J,0,right,0.5599891930032754,1,0,,,,,,,,,,,,,,,,,,,,,1,,,,,,,,,,,,,,,,,,,,,,,,,,,,,,,,,,,,,,,,,,,,,,107,147358,21,Female,1,2024/03/20_14:01:40,YZ,None,
,,,,,,calibration,0,23,2,361,14,N,0,right,0.6140551349963062,1,0,,,,,,,,,,,,,,,,,,,,,1,,,,,,,,,,,,,,,,,,,,,,,,,,,,,,,,,,,,,,,,,,,,,,107,147358,21,Female,1,2024/03/20_14:01:40,YZ,None,
,,,,,,calibration,0,23,2,361,15,J,1,left,0.47732639200694393,1,0,,,,,,,,,,,,,,,,,,,,,1,,,,,,,,,,,,,,,,,,,,,,,,,,,,,,,,,,,,,,,,,,,,,,107,147358,21,Female,1,2024/03/20_14:01:40,YZ,None,
,,,,,,calibration,0,23,2,361,16,X,0,right,0.8139068409946049,1,0,,,,,,,,,,,,,,,,,,,,,1,,,,,,,,,,,,,,,,,,,,,,,,,,,,,,,,,,,,,,,,,,,,,,107,147358,21,Female,1,2024/03/20_14:01:40,YZ,None,
,,,,,,calibration,0,23,2,361,17,S,0,right,0.6744907090032939,1,0,,,,,,,,,,,,,,,,,,,,,1,,,,,,,,,,,,,,,,,,,,,,,,,,,,,,,,,,,,,,,,,,,,,,107,147358,21,Female,1,2024/03/20_14:01:40,YZ,None,
,,,,,,calibration,0,23,2,361,18,X,1,right,0.5125303120003082,0,0,,,,,,,,,,,,,,,,,,,,,1,,,,,,,,,,,,,,,,,,,,,,,,,,,,,,,,,,,,,,,,,,,,,,107,147358,21,Female,1,2024/03/20_14:01:40,YZ,None,
,,,,,,calibration,0,23,2,361,,,,,,,,0.8333333333333334,0.3333333333333333,0.0,1.0,0.0,1.0,0.512287696222807,2,0,0,0,0,12,14,6,12,0,,,,1,,,,,,,,,,,,,,,,,,,,,,,,,,,,,,,,,,,,,,,,,,,,,,107,147358,21,Female,1,2024/03/20_14:01:40,YZ,None,
,,,,,,Calibration,0,,2,361,,,,,,,,,,,,,,,,,,,,,,,,,12,,,1,,,,,,,,,,,,,,,,,,,,,,,,,,,,,,,,,,,,,,,,,,,,,,107,147358,21,Female,1,2024/03/20_14:01:40,YZ,None,
,,,,,,calibration,0,34,2,361,1,F,0,right,0.30436392000410706,1,0,,,,,,,,,,,,,,,,,,,,,1,,,,,,,,,,,,,,,,,,,,,,,,,,,,,,,,,,,,,,,,,,,,,,107,147358,21,Female,1,2024/03/20_14:01:40,YZ,None,
,,,,,,calibration,0,34,2,361,2,C,0,right,0.39287770600640215,1,0,,,,,,,,,,,,,,,,,,,,,1,,,,,,,,,,,,,,,,,,,,,,,,,,,,,,,,,,,,,,,,,,,,,,107,147358,21,Female,1,2024/03/20_14:01:40,YZ,None,
,,,,,,calibration,0,34,2,361,3,V,0,right,0.37539852400368545,1,0,,,,,,,,,,,,,,,,,,,,,1,,,,,,,,,,,,,,,,,,,,,,,,,,,,,,,,,,,,,,,,,,,,,,107,147358,21,Female,1,2024/03/20_14:01:40,YZ,None,
,,,,,,calibration,0,34,2,361,4,X,0,right,0.7328832240018528,1,0,,,,,,,,,,,,,,,,,,,,,1,,,,,,,,,,,,,,,,,,,,,,,,,,,,,,,,,,,,,,,,,,,,,,107,147358,21,Female,1,2024/03/20_14:01:40,YZ,None,
,,,,,,calibration,0,34,2,361,5,V,1,right,0.8753610639978433,0,0,,,,,,,,,,,,,,,,,,,,,1,,,,,,,,,,,,,,,,,,,,,,,,,,,,,,,,,,,,,,,,,,,,,,107,147358,21,Female,1,2024/03/20_14:01:40,YZ,None,
,,,,,,calibration,0,34,2,361,6,N,0,right,0.45098778599640355,1,0,,,,,,,,,,,,,,,,,,,,,1,,,,,,,,,,,,,,,,,,,,,,,,,,,,,,,,,,,,,,,,,,,,,,107,147358,21,Female,1,2024/03/20_14:01:40,YZ,None,
,,,,,,calibration,0,34,2,361,7,V,1,left,0.34644126100465655,1,0,,,,,,,,,,,,,,,,,,,,,1,,,,,,,,,,,,,,,,,,,,,,,,,,,,,,,,,,,,,,,,,,,,,,107,147358,21,Female,1,2024/03/20_14:01:40,YZ,None,
,,,,,,calibration,0,34,2,361,8,N,1,right,0.3323217519937316,0,0,,,,,,,,,,,,,,,,,,,,,1,,,,,,,,,,,,,,,,,,,,,,,,,,,,,,,,,,,,,,,,,,,,,,107,147358,21,Female,1,2024/03/20_14:01:40,YZ,None,
,,,,,,calibration,0,34,2,361,9,J,0,right,0.5541467939910945,1,0,,,,,,,,,,,,,,,,,,,,,1,,,,,,,,,,,,,,,,,,,,,,,,,,,,,,,,,,,,,,,,,,,,,,107,147358,21,Female,1,2024/03/20_14:01:40,YZ,None,
,,,,,,calibration,0,34,2,361,10,V,0,left,0.6079714039951796,0,0,,,,,,,,,,,,,,,,,,,,,1,,,,,,,,,,,,,,,,,,,,,,,,,,,,,,,,,,,,,,,,,,,,,,107,147358,21,Female,1,2024/03/20_14:01:40,YZ,None,
,,,,,,calibration,0,34,2,361,11,C,0,right,0.37117810499330517,1,0,,,,,,,,,,,,,,,,,,,,,1,,,,,,,,,,,,,,,,,,,,,,,,,,,,,,,,,,,,,,,,,,,,,,107,147358,21,Female,1,2024/03/20_14:01:40,YZ,None,
,,,,,,calibration,0,34,2,361,12,V,1,left,0.5577033610024955,1,0,,,,,,,,,,,,,,,,,,,,,1,,,,,,,,,,,,,,,,,,,,,,,,,,,,,,,,,,,,,,,,,,,,,,107,147358,21,Female,1,2024/03/20_14:01:40,YZ,None,
,,,,,,calibration,0,34,2,361,13,J,0,right,0.3305331770097837,1,0,,,,,,,,,,,,,,,,,,,,,1,,,,,,,,,,,,,,,,,,,,,,,,,,,,,,,,,,,,,,,,,,,,,,107,147358,21,Female,1,2024/03/20_14:01:40,YZ,None,
,,,,,,calibration,0,34,2,361,14,S,0,right,0.702213729993673,1,0,,,,,,,,,,,,,,,,,,,,,1,,,,,,,,,,,,,,,,,,,,,,,,,,,,,,,,,,,,,,,,,,,,,,107,147358,21,Female,1,2024/03/20_14:01:40,YZ,None,
,,,,,,calibration,0,34,2,361,15,J,1,left,0.41036452099797316,1,0,,,,,,,,,,,,,,,,,,,,,1,,,,,,,,,,,,,,,,,,,,,,,,,,,,,,,,,,,,,,,,,,,,,,107,147358,21,Female,1,2024/03/20_14:01:40,YZ,None,
,,,,,,calibration,0,34,2,361,16,V,0,right,0.46038719998614397,1,0,,,,,,,,,,,,,,,,,,,,,1,,,,,,,,,,,,,,,,,,,,,,,,,,,,,,,,,,,,,,,,,,,,,,107,147358,21,Female,1,2024/03/20_14:01:40,YZ,None,
,,,,,,calibration,0,34,2,361,17,F,0,right,0.6407101189979585,1,0,,,,,,,,,,,,,,,,,,,,,1,,,,,,,,,,,,,,,,,,,,,,,,,,,,,,,,,,,,,,,,,,,,,,107,147358,21,Female,1,2024/03/20_14:01:40,YZ,None,
,,,,,,calibration,0,34,2,361,18,S,0,right,0.48151892799069174,1,0,,,,,,,,,,,,,,,,,,,,,1,,,,,,,,,,,,,,,,,,,,,,,,,,,,,,,,,,,,,,,,,,,,,,107,147358,21,Female,1,2024/03/20_14:01:40,YZ,None,
,,,,,,calibration,0,34,2,361,,,,,,,,0.85,0.6,0.07692307692307693,0.9230769230769231,0.0,0.9230769230769231,0.4959645875537212,3,1,0,0,0,12,15,5,13,0,,,,1,,,,,,,,,,,,,,,,,,,,,,,,,,,,,,,,,,,,,,,,,,,,,,107,147358,21,Female,1,2024/03/20_14:01:40,YZ,None,
,,,,,,Calibration,0,,2,361,,,,,,,,,,,,,,,,,,,,,,,,,13,,,1,,,,,,,,,,,,,,,,,,,,,,,,,,,,,,,,,,,,,,,,,,,,,,107,147358,21,Female,1,2024/03/20_14:01:40,YZ,None,
,,,,,,calibration,0,3,2,361,1,S,0,right,0.2508017029904295,1,0,,,,,,,,,,,,,,,,,,,,,1,,,,,,,,,,,,,,,,,,,,,,,,,,,,,,,,,,,,,,,,,,,,,,107,147358,21,Female,1,2024/03/20_14:01:40,YZ,None,
,,,,,,calibration,0,3,2,361,2,F,0,right,0.4081955760048004,1,0,,,,,,,,,,,,,,,,,,,,,1,,,,,,,,,,,,,,,,,,,,,,,,,,,,,,,,,,,,,,,,,,,,,,107,147358,21,Female,1,2024/03/20_14:01:40,YZ,None,
,,,,,,calibration,0,3,2,361,3,S,1,left,0.3048821659904206,1,0,,,,,,,,,,,,,,,,,,,,,1,,,,,,,,,,,,,,,,,,,,,,,,,,,,,,,,,,,,,,,,,,,,,,107,147358,21,Female,1,2024/03/20_14:01:40,YZ,None,
,,,,,,calibration,0,3,2,361,4,C,0,right,0.35161914100172,1,0,,,,,,,,,,,,,,,,,,,,,1,,,,,,,,,,,,,,,,,,,,,,,,,,,,,,,,,,,,,,,,,,,,,,107,147358,21,Female,1,2024/03/20_14:01:40,YZ,None,
,,,,,,calibration,0,3,2,361,5,S,1,left,0.44147426800918765,1,0,,,,,,,,,,,,,,,,,,,,,1,,,,,,,,,,,,,,,,,,,,,,,,,,,,,,,,,,,,,,,,,,,,,,107,147358,21,Female,1,2024/03/20_14:01:40,YZ,None,
,,,,,,calibration,0,3,2,361,6,N,0,right,0.2958702049945714,1,0,,,,,,,,,,,,,,,,,,,,,1,,,,,,,,,,,,,,,,,,,,,,,,,,,,,,,,,,,,,,,,,,,,,,107,147358,21,Female,1,2024/03/20_14:01:40,YZ,None,
,,,,,,calibration,0,3,2,361,7,S,1,right,0.8658506700012367,0,0,,,,,,,,,,,,,,,,,,,,,1,,,,,,,,,,,,,,,,,,,,,,,,,,,,,,,,,,,,,,,,,,,,,,107,147358,21,Female,1,2024/03/20_14:01:40,YZ,None,
,,,,,,calibration,0,3,2,361,8,C,0,left,0.3682779450027738,0,0,,,,,,,,,,,,,,,,,,,,,1,,,,,,,,,,,,,,,,,,,,,,,,,,,,,,,,,,,,,,,,,,,,,,107,147358,21,Female,1,2024/03/20_14:01:40,YZ,None,
,,,,,,calibration,0,3,2,361,9,S,1,right,0.6463408169947797,0,0,,,,,,,,,,,,,,,,,,,,,1,,,,,,,,,,,,,,,,,,,,,,,,,,,,,,,,,,,,,,,,,,,,,,107,147358,21,Female,1,2024/03/20_14:01:40,YZ,None,
,,,,,,calibration,0,3,2,361,10,N,0,right,0.7856170360028045,1,0,,,,,,,,,,,,,,,,,,,,,1,,,,,,,,,,,,,,,,,,,,,,,,,,,,,,,,,,,,,,,,,,,,,,107,147358,21,Female,1,2024/03/20_14:01:40,YZ,None,
,,,,,,calibration,0,3,2,361,11,X,0,right,0.553348042012658,1,0,,,,,,,,,,,,,,,,,,,,,1,,,,,,,,,,,,,,,,,,,,,,,,,,,,,,,,,,,,,,,,,,,,,,107,147358,21,Female,1,2024/03/20_14:01:40,YZ,None,
,,,,,,calibration,0,3,2,361,12,J,0,right,0.6624088490061695,1,0,,,,,,,,,,,,,,,,,,,,,1,,,,,,,,,,,,,,,,,,,,,,,,,,,,,,,,,,,,,,,,,,,,,,107,147358,21,Female,1,2024/03/20_14:01:40,YZ,None,
,,,,,,calibration,0,3,2,361,13,V,0,right,0.48857266100822017,1,0,,,,,,,,,,,,,,,,,,,,,1,,,,,,,,,,,,,,,,,,,,,,,,,,,,,,,,,,,,,,,,,,,,,,107,147358,21,Female,1,2024/03/20_14:01:40,YZ,None,
,,,,,,calibration,0,3,2,361,14,C,0,right,0.6322987860039575,1,0,,,,,,,,,,,,,,,,,,,,,1,,,,,,,,,,,,,,,,,,,,,,,,,,,,,,,,,,,,,,,,,,,,,,107,147358,21,Female,1,2024/03/20_14:01:40,YZ,None,
,,,,,,calibration,0,3,2,361,15,F,0,right,0.5120354109967593,1,0,,,,,,,,,,,,,,,,,,,,,1,,,,,,,,,,,,,,,,,,,,,,,,,,,,,,,,,,,,,,,,,,,,,,107,147358,21,Female,1,2024/03/20_14:01:40,YZ,None,
,,,,,,calibration,0,3,2,361,16,N,0,right,0.4853357530082576,1,0,,,,,,,,,,,,,,,,,,,,,1,,,,,,,,,,,,,,,,,,,,,,,,,,,,,,,,,,,,,,,,,,,,,,107,147358,21,Female,1,2024/03/20_14:01:40,YZ,None,
,,,,,,calibration,0,3,2,361,17,F,1,right,0.6609985929972026,0,0,,,,,,,,,,,,,,,,,,,,,1,,,,,,,,,,,,,,,,,,,,,,,,,,,,,,,,,,,,,,,,,,,,,,107,147358,21,Female,1,2024/03/20_14:01:40,YZ,None,
,,,,,,calibration,0,3,2,361,18,V,0,right,0.5894210690021282,1,0,,,,,,,,,,,,,,,,,,,,,1,,,,,,,,,,,,,,,,,,,,,,,,,,,,,,,,,,,,,,,,,,,,,,107,147358,21,Female,1,2024/03/20_14:01:40,YZ,None,
,,,,,,calibration,0,3,2,361,,,,,,,,0.7826923076923077,0.4,0.07692307692307693,0.9230769230769231,0.0,0.9230769230769231,0.5168527050571154,2,1,0,0,0,12,14,5,13,0,,,,1,,,,,,,,,,,,,,,,,,,,,,,,,,,,,,,,,,,,,,,,,,,,,,107,147358,21,Female,1,2024/03/20_14:01:40,YZ,None,
,,,,,,Calibration,0,,2,361,,,,,,,,,,,,,,,,,,,,,,,,,14,,,1,,,,,,,,,,,,,,,,,,,,,,,,,,,,,,,,,,,,,,,,,,,,,,107,147358,21,Female,1,2024/03/20_14:01:40,YZ,None,
,,,,,,calibration,0,30,2,361,1,N,0,right,0.23822408700652886,1,0,,,,,,,,,,,,,,,,,,,,,1,,,,,,,,,,,,,,,,,,,,,,,,,,,,,,,,,,,,,,,,,,,,,,107,147358,21,Female,1,2024/03/20_14:01:40,YZ,None,
,,,,,,calibration,0,30,2,361,2,X,0,right,0.4729103510035202,1,0,,,,,,,,,,,,,,,,,,,,,1,,,,,,,,,,,,,,,,,,,,,,,,,,,,,,,,,,,,,,,,,,,,,,107,147358,21,Female,1,2024/03/20_14:01:40,YZ,None,
,,,,,,calibration,0,30,2,361,3,N,1,right,0.3927674839942483,0,0,,,,,,,,,,,,,,,,,,,,,1,,,,,,,,,,,,,,,,,,,,,,,,,,,,,,,,,,,,,,,,,,,,,,107,147358,21,Female,1,2024/03/20_14:01:40,YZ,None,
,,,,,,calibration,0,30,2,361,4,F,0,right,0.41772538199438713,1,0,,,,,,,,,,,,,,,,,,,,,1,,,,,,,,,,,,,,,,,,,,,,,,,,,,,,,,,,,,,,,,,,,,,,107,147358,21,Female,1,2024/03/20_14:01:40,YZ,None,
,,,,,,calibration,0,30,2,361,5,X,0,right,0.4476502420002362,1,0,,,,,,,,,,,,,,,,,,,,,1,,,,,,,,,,,,,,,,,,,,,,,,,,,,,,,,,,,,,,,,,,,,,,107,147358,21,Female,1,2024/03/20_14:01:40,YZ,None,
,,,,,,calibration,0,30,2,361,6,S,0,right,0.4767924689949723,1,0,,,,,,,,,,,,,,,,,,,,,1,,,,,,,,,,,,,,,,,,,,,,,,,,,,,,,,,,,,,,,,,,,,,,107,147358,21,Female,1,2024/03/20_14:01:40,YZ,None,
,,,,,,calibration,0,30,2,361,7,V,0,right,0.41276822800864466,1,0,,,,,,,,,,,,,,,,,,,,,1,,,,,,,,,,,,,,,,,,,,,,,,,,,,,,,,,,,,,,,,,,,,,,107,147358,21,Female,1,2024/03/20_14:01:40,YZ,None,
,,,,,,calibration,0,30,2,361,8,Q,0,right,0.33977978299662936,1,0,,,,,,,,,,,,,,,,,,,,,1,,,,,,,,,,,,,,,,,,,,,,,,,,,,,,,,,,,,,,,,,,,,,,107,147358,21,Female,1,2024/03/20_14:01:40,YZ,None,
,,,,,,calibration,0,30,2,361,9,V,1,right,0.361430527002085,0,0,,,,,,,,,,,,,,,,,,,,,1,,,,,,,,,,,,,,,,,,,,,,,,,,,,,,,,,,,,,,,,,,,,,,107,147358,21,Female,1,2024/03/20_14:01:40,YZ,None,
,,,,,,calibration,0,30,2,361,10,Q,1,right,0.4526467599935131,0,0,,,,,,,,,,,,,,,,,,,,,1,,,,,,,,,,,,,,,,,,,,,,,,,,,,,,,,,,,,,,,,,,,,,,107,147358,21,Female,1,2024/03/20_14:01:40,YZ,None,
,,,,,,calibration,0,30,2,361,11,N,0,right,0.5496020130085526,1,0,,,,,,,,,,,,,,,,,,,,,1,,,,,,,,,,,,,,,,,,,,,,,,,,,,,,,,,,,,,,,,,,,,,,107,147358,21,Female,1,2024/03/20_14:01:40,YZ,None,
,,,,,,calibration,0,30,2,361,12,J,0,right,0.4733879720006371,1,0,,,,,,,,,,,,,,,,,,,,,1,,,,,,,,,,,,,,,,,,,,,,,,,,,,,,,,,,,,,,,,,,,,,,107,147358,21,Female,1,2024/03/20_14:01:40,YZ,None,
,,,,,,calibration,0,30,2,361,13,N,1,right,0.5490982719929889,0,0,,,,,,,,,,,,,,,,,,,,,1,,,,,,,,,,,,,,,,,,,,,,,,,,,,,,,,,,,,,,,,,,,,,,107,147358,21,Female,1,2024/03/20_14:01:40,YZ,None,
,,,,,,calibration,0,30,2,361,14,F,0,right,0.42029501700017136,1,0,,,,,,,,,,,,,,,,,,,,,1,,,,,,,,,,,,,,,,,,,,,,,,,,,,,,,,,,,,,,,,,,,,,,107,147358,21,Female,1,2024/03/20_14:01:40,YZ,None,
,,,,,,calibration,0,30,2,361,15,J,0,right,0.3512389449897455,1,0,,,,,,,,,,,,,,,,,,,,,1,,,,,,,,,,,,,,,,,,,,,,,,,,,,,,,,,,,,,,,,,,,,,,107,147358,21,Female,1,2024/03/20_14:01:40,YZ,None,
,,,,,,calibration,0,30,2,361,16,F,1,left,0.3766752060037106,1,0,,,,,,,,,,,,,,,,,,,,,1,,,,,,,,,,,,,,,,,,,,,,,,,,,,,,,,,,,,,,,,,,,,,,107,147358,21,Female,1,2024/03/20_14:01:40,YZ,None,
,,,,,,calibration,0,30,2,361,17,V,0,right,0.25644527000258677,1,0,,,,,,,,,,,,,,,,,,,,,1,,,,,,,,,,,,,,,,,,,,,,,,,,,,,,,,,,,,,,,,,,,,,,107,147358,21,Female,1,2024/03/20_14:01:40,YZ,None,
,,,,,,calibration,0,30,2,361,18,F,1,left,0.651699928988819,1,0,,,,,,,,,,,,,,,,,,,,,1,,,,,,,,,,,,,,,,,,,,,,,,,,,,,,,,,,,,,,,,,,,,,,107,147358,21,Female,1,2024/03/20_14:01:40,YZ,None,
,,,,,,calibration,0,30,2,361,,,,,,,,0.8333333333333334,0.3333333333333333,0.0,1.0,0.0,1.0,0.4245076631656654,2,0,0,0,0,12,14,6,12,0,,,,1,,,,,,,,,,,,,,,,,,,,,,,,,,,,,,,,,,,,,,,,,,,,,,107,147358,21,Female,1,2024/03/20_14:01:40,YZ,None,
,,,,,,Calibration,0,,2,361,,,,,,,,,,,,,,,,,,,,,,,,,15,,,1,,,,,,,,,,,,,,,,,,,,,,,,,,,,,,,,,,,,,,,,,,,,,,107,147358,21,Female,1,2024/03/20_14:01:40,YZ,None,
,,,,,,CALIBRATION,0,,,,,,,,,,,,,,,,,,,,,,,,,,,,15,0.8333333333333334,361,1,,,,,,,,,,,,,,,,,,,,,,,,,,,,,,,,,,,,,,,,,,,,,,107,147358,21,Female,1,2024/03/20_14:01:40,YZ,None,
1,./instructions/inst_prac_1/Slide24.png,right,19.582174693990964,496.41303518500354,515.9952098789945,,,,,,,,,,,,,,,,,,,,,,,,,,,,,,,,,1,,,,,,,,,,,,,,,,,,,,,,,,,,,,,,,,,,,,,,,,,,,,,,107,147358,21,Female,1,2024/03/20_14:01:40,YZ,None,
2,./instructions/inst_prac_1/Slide25.png,right,1.362576297004125,516.024622248995,517.3871985459991,,,,,,,,,,,,,,,,,,,,,,,,,,,,,,,,,1,,,,,,,,,,,,,,,,,,,,,,,,,,,,,,,,,,,,,,,,,,,,,,107,147358,21,Female,1,2024/03/20_14:01:40,YZ,None,
3,./instructions/inst_prac_1/Slide26.png,right,1.1016358490014682,517.4136785279989,518.5153143770003,,,,,,,,,,,,,,,,,,,,,,,,,,,,,,,,,1,,,,,,,,,,,,,,,,,,,,,,,,,,,,,,,,,,,,,,,,,,,,,,107,147358,21,Female,1,2024/03/20_14:01:40,YZ,None,
4,./instructions/inst_prac_1/Slide27.png,right,0.9390164840006037,518.5442956059997,519.4833120900003,,,,,,,,,,,,,,,,,,,,,,,,,,,,,,,,,1,,,,,,,,,,,,,,,,,,,,,,,,,,,,,,,,,,,,,,,,,,,,,,107,147358,21,Female,1,2024/03/20_14:01:40,YZ,None,
5,./instructions/inst_prac_1/Slide28.png,right,1.1146094319992699,519.512648923992,520.6272583559912,,,,,,,,,,,,,,,,,,,,,,,,,,,,,,,,,1,,,,,,,,,,,,,,,,,,,,,,,,,,,,,,,,,,,,,,,,,,,,,,107,147358,21,Female,1,2024/03/20_14:01:40,YZ,None,
6,./instructions/inst_prac_1/Slide29.png,right,5.938761026001885,520.6566052970011,526.595366323003,,,,,,,,,,,,,,,,,,,,,,,,,,,,,,,,,1,,,,,,,,,,,,,,,,,,,,,,,,,,,,,,,,,,,,,,,,,,,,,,107,147358,21,Female,1,2024/03/20_14:01:40,YZ,None,
7,./instructions/inst_prac_1/Slide30.png,right,2.7018615410052007,526.6212637809949,529.3231253220001,,,,,,,,,,,,,,,,,,,,,,,,,,,,,,,,,1,,,,,,,,,,,,,,,,,,,,,,,,,,,,,,,,,,,,,,,,,,,,,,107,147358,21,Female,1,2024/03/20_14:01:40,YZ,None,
,,,,,,practice,0,28,1,1250,1,N,0,right,2.7626172930031316,1,0,,,,,,,,,,,,,,,,,,,,,1,,,,,,,,,,,,,,,,,,,,,,,,,,,,,,,,,,,,,,,,,,,,,,107,147358,21,Female,1,2024/03/20_14:01:40,YZ,None,
,,,,,,practice,0,28,1,1250,2,X,0,right,0.6204484039917588,1,0,,,,,,,,,,,,,,,,,,,,,1,,,,,,,,,,,,,,,,,,,,,,,,,,,,,,,,,,,,,,,,,,,,,,107,147358,21,Female,1,2024/03/20_14:01:40,YZ,None,
,,,,,,practice,0,28,1,1250,3,C,0,right,0.430594300996745,1,0,,,,,,,,,,,,,,,,,,,,,1,,,,,,,,,,,,,,,,,,,,,,,,,,,,,,,,,,,,,,,,,,,,,,107,147358,21,Female,1,2024/03/20_14:01:40,YZ,None,
,,,,,,practice,0,28,1,1250,4,F,0,right,0.4280307029985124,1,0,,,,,,,,,,,,,,,,,,,,,1,,,,,,,,,,,,,,,,,,,,,,,,,,,,,,,,,,,,,,,,,,,,,,107,147358,21,Female,1,2024/03/20_14:01:40,YZ,None,
,,,,,,practice,0,28,1,1250,5,F,1,left,0.5490258270001505,1,0,,,,,,,,,,,,,,,,,,,,,1,,,,,,,,,,,,,,,,,,,,,,,,,,,,,,,,,,,,,,,,,,,,,,107,147358,21,Female,1,2024/03/20_14:01:40,YZ,None,
,,,,,,practice,0,28,1,1250,6,N,0,right,0.6516701390064554,1,0,,,,,,,,,,,,,,,,,,,,,1,,,,,,,,,,,,,,,,,,,,,,,,,,,,,,,,,,,,,,,,,,,,,,107,147358,21,Female,1,2024/03/20_14:01:40,YZ,None,
,,,,,,practice,0,28,1,1250,7,N,1,left,0.6283182500046678,1,0,,,,,,,,,,,,,,,,,,,,,1,,,,,,,,,,,,,,,,,,,,,,,,,,,,,,,,,,,,,,,,,,,,,,107,147358,21,Female,1,2024/03/20_14:01:40,YZ,None,
,,,,,,practice,0,28,1,1250,8,S,0,right,0.4550347119948128,1,0,,,,,,,,,,,,,,,,,,,,,1,,,,,,,,,,,,,,,,,,,,,,,,,,,,,,,,,,,,,,,,,,,,,,107,147358,21,Female,1,2024/03/20_14:01:40,YZ,None,
,,,,,,practice,0,28,1,1250,9,X,0,right,0.7720865820010658,1,0,,,,,,,,,,,,,,,,,,,,,1,,,,,,,,,,,,,,,,,,,,,,,,,,,,,,,,,,,,,,,,,,,,,,107,147358,21,Female,1,2024/03/20_14:01:40,YZ,None,
,,,,,,practice,0,28,1,1250,10,X,1,left,0.5482079119974514,1,0,,,,,,,,,,,,,,,,,,,,,1,,,,,,,,,,,,,,,,,,,,,,,,,,,,,,,,,,,,,,,,,,,,,,107,147358,21,Female,1,2024/03/20_14:01:40,YZ,None,
,,,,,,practice,0,28,1,1250,,,,,,,,1.0,1.0,0.0,1.0,0.0,1.0,0.7846034122994752,3,0,0,0,0,7,10,3,7,0,,,,1,,,,,,,,,,,,,,,,,,,,,,,,,,,,,,,,,,,,,,,,,,,,,,107,147358,21,Female,1,2024/03/20_14:01:40,YZ,None,
1,./instructions/inst_prac_1_next/Slide35.png,right,0.8639633069979027,547.7153859029931,548.579349209991,,,,,,,,,,,,,,,,,,,,,,,,,,,,,,,,,1,,,,,,,,,,,,,,,,,,,,,,,,,,,,,,,,,,,,,,,,,,,,,,107,147358,21,Female,1,2024/03/20_14:01:40,YZ,None,
,,,,,,practice,0,27,1,361,1,N,0,right,0.8469744290050585,1,0,,,,,,,,,,,,,,,,,,,,,1,,,,,,,,,,,,,,,,,,,,,,,,,,,,,,,,,,,,,,,,,,,,,,107,147358,21,Female,1,2024/03/20_14:01:40,YZ,None,
,,,,,,practice,0,27,1,361,2,J,0,right,0.7293013879971113,1,0,,,,,,,,,,,,,,,,,,,,,1,,,,,,,,,,,,,,,,,,,,,,,,,,,,,,,,,,,,,,,,,,,,,,107,147358,21,Female,1,2024/03/20_14:01:40,YZ,None,
,,,,,,practice,0,27,1,361,3,X,0,right,0.7354734109976562,1,0,,,,,,,,,,,,,,,,,,,,,1,,,,,,,,,,,,,,,,,,,,,,,,,,,,,,,,,,,,,,,,,,,,,,107,147358,21,Female,1,2024/03/20_14:01:40,YZ,None,
,,,,,,practice,0,27,1,361,4,X,1,left,0.43363676000444684,1,0,,,,,,,,,,,,,,,,,,,,,1,,,,,,,,,,,,,,,,,,,,,,,,,,,,,,,,,,,,,,,,,,,,,,107,147358,21,Female,1,2024/03/20_14:01:40,YZ,None,
,,,,,,practice,0,27,1,361,5,V,0,right,0.5380403930030297,1,0,,,,,,,,,,,,,,,,,,,,,1,,,,,,,,,,,,,,,,,,,,,,,,,,,,,,,,,,,,,,,,,,,,,,107,147358,21,Female,1,2024/03/20_14:01:40,YZ,None,
,,,,,,practice,0,27,1,361,6,V,1,left,0.5045990650105523,1,0,,,,,,,,,,,,,,,,,,,,,1,,,,,,,,,,,,,,,,,,,,,,,,,,,,,,,,,,,,,,,,,,,,,,107,147358,21,Female,1,2024/03/20_14:01:40,YZ,None,
,,,,,,practice,0,27,1,361,7,N,0,right,0.4153071449982235,1,0,,,,,,,,,,,,,,,,,,,,,1,,,,,,,,,,,,,,,,,,,,,,,,,,,,,,,,,,,,,,,,,,,,,,107,147358,21,Female,1,2024/03/20_14:01:40,YZ,None,
,,,,,,practice,0,27,1,361,8,N,1,left,0.5728154399985215,1,0,,,,,,,,,,,,,,,,,,,,,1,,,,,,,,,,,,,,,,,,,,,,,,,,,,,,,,,,,,,,,,,,,,,,107,147358,21,Female,1,2024/03/20_14:01:40,YZ,None,
,,,,,,practice,0,27,1,361,9,X,0,right,0.5459109819930745,1,0,,,,,,,,,,,,,,,,,,,,,1,,,,,,,,,,,,,,,,,,,,,,,,,,,,,,,,,,,,,,,,,,,,,,107,147358,21,Female,1,2024/03/20_14:01:40,YZ,None,
,,,,,,practice,0,27,1,361,10,N,0,right,0.6680283669993514,1,0,,,,,,,,,,,,,,,,,,,,,1,,,,,,,,,,,,,,,,,,,,,,,,,,,,,,,,,,,,,,,,,,,,,,107,147358,21,Female,1,2024/03/20_14:01:40,YZ,None,
,,,,,,practice,0,27,1,361,11,X,0,right,0.7916395579959499,1,0,,,,,,,,,,,,,,,,,,,,,1,,,,,,,,,,,,,,,,,,,,,,,,,,,,,,,,,,,,,,,,,,,,,,107,147358,21,Female,1,2024/03/20_14:01:40,YZ,None,
,,,,,,practice,0,27,1,361,12,X,1,left,0.5605999799881829,1,0,,,,,,,,,,,,,,,,,,,,,1,,,,,,,,,,,,,,,,,,,,,,,,,,,,,,,,,,,,,,,,,,,,,,107,147358,21,Female,1,2024/03/20_14:01:40,YZ,None,
,,,,,,practice,0,27,1,361,13,S,0,right,0.4442932210076833,1,0,,,,,,,,,,,,,,,,,,,,,1,,,,,,,,,,,,,,,,,,,,,,,,,,,,,,,,,,,,,,,,,,,,,,107,147358,21,Female,1,2024/03/20_14:01:40,YZ,None,
,,,,,,practice,0,27,1,361,14,S,1,left,0.42056254600174725,1,0,,,,,,,,,,,,,,,,,,,,,1,,,,,,,,,,,,,,,,,,,,,,,,,,,,,,,,,,,,,,,,,,,,,,107,147358,21,Female,1,2024/03/20_14:01:40,YZ,None,
,,,,,,practice,0,27,1,361,15,F,0,right,0.5120804670004873,1,0,,,,,,,,,,,,,,,,,,,,,1,,,,,,,,,,,,,,,,,,,,,,,,,,,,,,,,,,,,,,,,,,,,,,107,147358,21,Female,1,2024/03/20_14:01:40,YZ,None,
,,,,,,practice,0,27,1,361,16,Q,0,right,0.5810918159986613,1,0,,,,,,,,,,,,,,,,,,,,,1,,,,,,,,,,,,,,,,,,,,,,,,,,,,,,,,,,,,,,,,,,,,,,107,147358,21,Female,1,2024/03/20_14:01:40,YZ,None,
,,,,,,practice,0,27,1,361,17,N,0,right,0.498971873006667,1,0,,,,,,,,,,,,,,,,,,,,,1,,,,,,,,,,,,,,,,,,,,,,,,,,,,,,,,,,,,,,,,,,,,,,107,147358,21,Female,1,2024/03/20_14:01:40,YZ,None,
,,,,,,practice,0,27,1,361,18,N,1,left,0.5433245440071914,1,0,,,,,,,,,,,,,,,,,,,,,1,,,,,,,,,,,,,,,,,,,,,,,,,,,,,,,,,,,,,,,,,,,,,,107,147358,21,Female,1,2024/03/20_14:01:40,YZ,None,
,,,,,,practice,0,27,1,361,,,,,,,,1.0,1.0,0.0,1.0,0.0,1.0,0.5745917436118665,6,0,0,0,0,12,18,6,12,0,,,,1,,,,,,,,,,,,,,,,,,,,,,,,,,,,,,,,,,,,,,,,,,,,,,107,147358,21,Female,1,2024/03/20_14:01:40,YZ,None,
,,,,,,practice,0,3,1,361,1,N,0,right,0.6793473949946929,1,0,,,,,,,,,,,,,,,,,,,,,1,,,,,,,,,,,,,,,,,,,,,,,,,,,,,,,,,,,,,,,,,,,,,,107,147358,21,Female,1,2024/03/20_14:01:40,YZ,None,
,,,,,,practice,0,3,1,361,2,F,0,right,0.5169009870005539,1,0,,,,,,,,,,,,,,,,,,,,,1,,,,,,,,,,,,,,,,,,,,,,,,,,,,,,,,,,,,,,,,,,,,,,107,147358,21,Female,1,2024/03/20_14:01:40,YZ,None,
,,,,,,practice,0,3,1,361,3,V,0,right,0.43412127599003725,1,0,,,,,,,,,,,,,,,,,,,,,1,,,,,,,,,,,,,,,,,,,,,,,,,,,,,,,,,,,,,,,,,,,,,,107,147358,21,Female,1,2024/03/20_14:01:40,YZ,None,
,,,,,,practice,0,3,1,361,4,F,0,right,0.7618097439990379,1,0,,,,,,,,,,,,,,,,,,,,,1,,,,,,,,,,,,,,,,,,,,,,,,,,,,,,,,,,,,,,,,,,,,,,107,147358,21,Female,1,2024/03/20_14:01:40,YZ,None,
,,,,,,practice,0,3,1,361,5,F,1,left,0.5565204360027565,1,0,,,,,,,,,,,,,,,,,,,,,1,,,,,,,,,,,,,,,,,,,,,,,,,,,,,,,,,,,,,,,,,,,,,,107,147358,21,Female,1,2024/03/20_14:01:40,YZ,None,
,,,,,,practice,0,3,1,361,6,S,0,right,0.5402906629897188,1,0,,,,,,,,,,,,,,,,,,,,,1,,,,,,,,,,,,,,,,,,,,,,,,,,,,,,,,,,,,,,,,,,,,,,107,147358,21,Female,1,2024/03/20_14:01:40,YZ,None,
,,,,,,practice,0,3,1,361,7,J,0,right,0.5994739269954152,1,0,,,,,,,,,,,,,,,,,,,,,1,,,,,,,,,,,,,,,,,,,,,,,,,,,,,,,,,,,,,,,,,,,,,,107,147358,21,Female,1,2024/03/20_14:01:40,YZ,None,
,,,,,,practice,0,3,1,361,8,J,1,left,0.8045581379992655,1,0,,,,,,,,,,,,,,,,,,,,,1,,,,,,,,,,,,,,,,,,,,,,,,,,,,,,,,,,,,,,,,,,,,,,107,147358,21,Female,1,2024/03/20_14:01:40,YZ,None,
,,,,,,practice,0,3,1,361,9,Q,0,right,0.42628082299779635,1,0,,,,,,,,,,,,,,,,,,,,,1,,,,,,,,,,,,,,,,,,,,,,,,,,,,,,,,,,,,,,,,,,,,,,107,147358,21,Female,1,2024/03/20_14:01:40,YZ,None,
,,,,,,practice,0,3,1,361,10,Q,1,left,0.45096258899138775,1,0,,,,,,,,,,,,,,,,,,,,,1,,,,,,,,,,,,,,,,,,,,,,,,,,,,,,,,,,,,,,,,,,,,,,107,147358,21,Female,1,2024/03/20_14:01:40,YZ,None,
,,,,,,practice,0,3,1,361,11,J,0,right,0.5597141009930056,1,0,,,,,,,,,,,,,,,,,,,,,1,,,,,,,,,,,,,,,,,,,,,,,,,,,,,,,,,,,,,,,,,,,,,,107,147358,21,Female,1,2024/03/20_14:01:40,YZ,None,
,,,,,,practice,0,3,1,361,12,S,0,right,0.4966955889976816,1,0,,,,,,,,,,,,,,,,,,,,,1,,,,,,,,,,,,,,,,,,,,,,,,,,,,,,,,,,,,,,,,,,,,,,107,147358,21,Female,1,2024/03/20_14:01:40,YZ,None,
,,,,,,practice,0,3,1,361,13,Q,0,right,0.4764886729972204,1,0,,,,,,,,,,,,,,,,,,,,,1,,,,,,,,,,,,,,,,,,,,,,,,,,,,,,,,,,,,,,,,,,,,,,107,147358,21,Female,1,2024/03/20_14:01:40,YZ,None,
,,,,,,practice,0,3,1,361,14,Q,1,left,0.35631857300177217,1,0,,,,,,,,,,,,,,,,,,,,,1,,,,,,,,,,,,,,,,,,,,,,,,,,,,,,,,,,,,,,,,,,,,,,107,147358,21,Female,1,2024/03/20_14:01:40,YZ,None,
,,,,,,practice,0,3,1,361,15,S,0,right,0.5131261839997023,1,0,,,,,,,,,,,,,,,,,,,,,1,,,,,,,,,,,,,,,,,,,,,,,,,,,,,,,,,,,,,,,,,,,,,,107,147358,21,Female,1,2024/03/20_14:01:40,YZ,None,
,,,,,,practice,0,3,1,361,16,S,1,left,0.4765746479970403,1,0,,,,,,,,,,,,,,,,,,,,,1,,,,,,,,,,,,,,,,,,,,,,,,,,,,,,,,,,,,,,,,,,,,,,107,147358,21,Female,1,2024/03/20_14:01:40,YZ,None,
,,,,,,practice,0,3,1,361,17,C,0,right,0.4520980709930882,1,0,,,,,,,,,,,,,,,,,,,,,1,,,,,,,,,,,,,,,,,,,,,,,,,,,,,,,,,,,,,,,,,,,,,,107,147358,21,Female,1,2024/03/20_14:01:40,YZ,None,
,,,,,,practice,0,3,1,361,18,X,0,right,0.5919917849969352,1,0,,,,,,,,,,,,,,,,,,,,,1,,,,,,,,,,,,,,,,,,,,,,,,,,,,,,,,,,,,,,,,,,,,,,107,147358,21,Female,1,2024/03/20_14:01:40,YZ,None,
,,,,,,practice,0,3,1,361,,,,,,,,1.0,1.0,0.0,1.0,0.0,1.0,0.5385152001076171,5,0,0,0,0,13,18,5,13,0,,,,1,,,,,,,,,,,,,,,,,,,,,,,,,,,,,,,,,,,,,,,,,,,,,,107,147358,21,Female,1,2024/03/20_14:01:40,YZ,None,
1,./instructions/inst_prac_3/Slide37.png,right,23.099160519996076,591.6160816079937,614.7152421279898,,,,,,,,,,,,,,,,,,,,,,,,,,,,,,,,,1,,,,,,,,,,,,,,,,,,,,,,,,,,,,,,,,,,,,,,,,,,,,,,107,147358,21,Female,1,2024/03/20_14:01:40,YZ,None,
2,./instructions/inst_prac_3/Slide38.png,right,1.3146855950035388,614.744689952,616.0593755470036,,,,,,,,,,,,,,,,,,,,,,,,,,,,,,,,,1,,,,,,,,,,,,,,,,,,,,,,,,,,,,,,,,,,,,,,,,,,,,,,107,147358,21,Female,1,2024/03/20_14:01:40,YZ,None,
3,./instructions/inst_prac_3/Slide39.png,right,0.5978401649917942,616.0855645679985,616.6834047329903,,,,,,,,,,,,,,,,,,,,,,,,,,,,,,,,,1,,,,,,,,,,,,,,,,,,,,,,,,,,,,,,,,,,,,,,,,,,,,,,107,147358,21,Female,1,2024/03/20_14:01:40,YZ,None,
4,./instructions/inst_prac_3/Slide40.png,right,1.7550074249884347,616.7123281340027,618.4673355589912,,,,,,,,,,,,,,,,,,,,,,,,,,,,,,,,,1,,,,,,,,,,,,,,,,,,,,,,,,,,,,,,,,,,,,,,,,,,,,,,107,147358,21,Female,1,2024/03/20_14:01:40,YZ,None,
5,./instructions/inst_prac_3/Slide41.png,right,3.0992802230030065,618.4960573919961,621.5953376149992,,,,,,,,,,,,,,,,,,,,,,,,,,,,,,,,,1,,,,,,,,,,,,,,,,,,,,,,,,,,,,,,,,,,,,,,,,,,,,,,107,147358,21,Female,1,2024/03/20_14:01:40,YZ,None,
4,./instructions/inst_prac_3/Slide42.png,left,1.309143051999854,621.6223243449931,622.931467396993,,,,,,,,,,,,,,,,,,,,,,,,,,,,,,,,,1,,,,,,,,,,,,,,,,,,,,,,,,,,,,,,,,,,,,,,,,,,,,,,107,147358,21,Female,1,2024/03/20_14:01:40,YZ,None,
5,./instructions/inst_prac_3/Slide41.png,right,1.4491063719906379,622.9543498690036,624.4034562409943,,,,,,,,,,,,,,,,,,,,,,,,,,,,,,,,,1,,,,,,,,,,,,,,,,,,,,,,,,,,,,,,,,,,,,,,,,,,,,,,107,147358,21,Female,1,2024/03/20_14:01:40,YZ,None,
4,./instructions/inst_prac_3/Slide42.png,left,1.027241051007877,624.4322656439908,625.4595066949987,,,,,,,,,,,,,,,,,,,,,,,,,,,,,,,,,1,,,,,,,,,,,,,,,,,,,,,,,,,,,,,,,,,,,,,,,,,,,,,,107,147358,21,Female,1,2024/03/20_14:01:40,YZ,None,
5,./instructions/inst_prac_3/Slide41.png,right,3.0905569120077416,625.4888629439956,628.5794198560034,,,,,,,,,,,,,,,,,,,,,,,,,,,,,,,,,1,,,,,,,,,,,,,,,,,,,,,,,,,,,,,,,,,,,,,,,,,,,,,,107,147358,21,Female,1,2024/03/20_14:01:40,YZ,None,
6,./instructions/inst_prac_3/Slide42.png,right,1.2588266079983441,628.6085298309918,629.8673564389901,,,,,,,,,,,,,,,,,,,,,,,,,,,,,,,,,1,,,,,,,,,,,,,,,,,,,,,,,,,,,,,,,,,,,,,,,,,,,,,,107,147358,21,Female,1,2024/03/20_14:01:40,YZ,None,
7,./instructions/inst_prac_3/Slide43.png,right,4.988474993995624,629.894835981002,634.8833109749976,,,,,,,,,,,,,,,,,,,,,,,,,,,,,,,,,1,,,,,,,,,,,,,,,,,,,,,,,,,,,,,,,,,,,,,,,,,,,,,,107,147358,21,Female,1,2024/03/20_14:01:40,YZ,None,
8,./instructions/inst_prac_3/Slide44.png,right,6.586925559997326,634.9125560249959,641.4994815849932,,,,,,,,,,,,,,,,,,,,,,,,,,,,,,,,,1,,,,,,,,,,,,,,,,,,,,,,,,,,,,,,,,,,,,,,,,,,,,,,107,147358,21,Female,1,2024/03/20_14:01:40,YZ,None,
,,,,,,practice,0,16,3,788,1,F,0,right,1.1858287609938998,1,0,,,,,,,,,,,,,,,,,,,,,1,,,,,,,,,,,,,,,,,,,,,,,,,,,,,,,,,,,,,,,,,,,,,,107,147358,21,Female,1,2024/03/20_14:01:40,YZ,None,
,,,,,,practice,0,16,3,788,2,C,0,right,0.485267677999218,1,0,,,,,,,,,,,,,,,,,,,,,1,,,,,,,,,,,,,,,,,,,,,,,,,,,,,,,,,,,,,,,,,,,,,,107,147358,21,Female,1,2024/03/20_14:01:40,YZ,None,
,,,,,,practice,0,16,3,788,3,C,0,right,0.2868554779997794,1,0,,,,,,,,,,,,,,,,,,,,,1,,,,,,,,,,,,,,,,,,,,,,,,,,,,,,,,,,,,,,,,,,,,,,107,147358,21,Female,1,2024/03/20_14:01:40,YZ,None,
,,,,,,practice,0,16,3,788,4,F,1,left,0.33623904299747664,1,0,,,,,,,,,,,,,,,,,,,,,1,,,,,,,,,,,,,,,,,,,,,,,,,,,,,,,,,,,,,,,,,,,,,,107,147358,21,Female,1,2024/03/20_14:01:40,YZ,None,
,,,,,,practice,0,16,3,788,5,C,1,left,1.1757143629947677,1,0,,,,,,,,,,,,,,,,,,,,,1,,,,,,,,,,,,,,,,,,,,,,,,,,,,,,,,,,,,,,,,,,,,,,107,147358,21,Female,1,2024/03/20_14:01:40,YZ,None,
,,,,,,practice,0,16,3,788,6,N,0,right,0.6851414160046261,1,0,,,,,,,,,,,,,,,,,,,,,1,,,,,,,,,,,,,,,,,,,,,,,,,,,,,,,,,,,,,,,,,,,,,,107,147358,21,Female,1,2024/03/20_14:01:40,YZ,None,
,,,,,,practice,0,16,3,788,7,J,0,right,0.6312638230010634,1,0,,,,,,,,,,,,,,,,,,,,,1,,,,,,,,,,,,,,,,,,,,,,,,,,,,,,,,,,,,,,,,,,,,,,107,147358,21,Female,1,2024/03/20_14:01:40,YZ,None,
,,,,,,practice,0,16,3,788,8,F,0,right,0.7080355280049844,1,0,,,,,,,,,,,,,,,,,,,,,1,,,,,,,,,,,,,,,,,,,,,,,,,,,,,,,,,,,,,,,,,,,,,,107,147358,21,Female,1,2024/03/20_14:01:40,YZ,None,
,,,,,,practice,0,16,3,788,9,J,0,right,0.7504019280022476,1,0,,,,,,,,,,,,,,,,,,,,,1,,,,,,,,,,,,,,,,,,,,,,,,,,,,,,,,,,,,,,,,,,,,,,107,147358,21,Female,1,2024/03/20_14:01:40,YZ,None,
,,,,,,practice,0,16,3,788,10,J,1,left,0.5776047110120999,1,0,,,,,,,,,,,,,,,,,,,,,1,,,,,,,,,,,,,,,,,,,,,,,,,,,,,,,,,,,,,,,,,,,,,,107,147358,21,Female,1,2024/03/20_14:01:40,YZ,None,
,,,,,,practice,0,16,3,788,11,Q,0,right,0.8197216900007334,1,0,,,,,,,,,,,,,,,,,,,,,1,,,,,,,,,,,,,,,,,,,,,,,,,,,,,,,,,,,,,,,,,,,,,,107,147358,21,Female,1,2024/03/20_14:01:40,YZ,None,
,,,,,,practice,0,16,3,788,12,J,1,left,0.5492225880007027,1,0,,,,,,,,,,,,,,,,,,,,,1,,,,,,,,,,,,,,,,,,,,,,,,,,,,,,,,,,,,,,,,,,,,,,107,147358,21,Female,1,2024/03/20_14:01:40,YZ,None,
,,,,,,practice,0,16,3,788,13,S,0,right,0.5175692490010988,1,0,,,,,,,,,,,,,,,,,,,,,1,,,,,,,,,,,,,,,,,,,,,,,,,,,,,,,,,,,,,,,,,,,,,,107,147358,21,Female,1,2024/03/20_14:01:40,YZ,None,
,,,,,,practice,0,16,3,788,,,,,,,,1.0,1.0,0.0,1.0,0.0,1.0,0.6699127889240537,4,0,0,0,0,9,13,4,9,0,,,,1,,,,,,,,,,,,,,,,,,,,,,,,,,,,,,,,,,,,,,,,,,,,,,107,147358,21,Female,1,2024/03/20_14:01:40,YZ,None,
1,./instructions/inst_prac_3_next/Slide49.png,right,3.1287679029919673,663.8824896180013,667.0112575209932,,,,,,,,,,,,,,,,,,,,,,,,,,,,,,,,,1,,,,,,,,,,,,,,,,,,,,,,,,,,,,,,,,,,,,,,,,,,,,,,107,147358,21,Female,1,2024/03/20_14:01:40,YZ,None,
,,,,,,practice,0,19,3,361,1,X,0,right,0.4679348880017642,1,0,,,,,,,,,,,,,,,,,,,,,1,,,,,,,,,,,,,,,,,,,,,,,,,,,,,,,,,,,,,,,,,,,,,,107,147358,21,Female,1,2024/03/20_14:01:40,YZ,None,
,,,,,,practice,0,19,3,361,2,N,0,right,0.43159034400014207,1,0,,,,,,,,,,,,,,,,,,,,,1,,,,,,,,,,,,,,,,,,,,,,,,,,,,,,,,,,,,,,,,,,,,,,107,147358,21,Female,1,2024/03/20_14:01:40,YZ,None,
,,,,,,practice,0,19,3,361,3,Q,0,right,0.47660043500945903,1,0,,,,,,,,,,,,,,,,,,,,,1,,,,,,,,,,,,,,,,,,,,,,,,,,,,,,,,,,,,,,,,,,,,,,107,147358,21,Female,1,2024/03/20_14:01:40,YZ,None,
,,,,,,practice,0,19,3,361,4,X,1,left,0.4207216460054042,1,0,,,,,,,,,,,,,,,,,,,,,1,,,,,,,,,,,,,,,,,,,,,,,,,,,,,,,,,,,,,,,,,,,,,,107,147358,21,Female,1,2024/03/20_14:01:40,YZ,None,
,,,,,,practice,0,19,3,361,5,J,0,right,0.7671447760076262,1,0,,,,,,,,,,,,,,,,,,,,,1,,,,,,,,,,,,,,,,,,,,,,,,,,,,,,,,,,,,,,,,,,,,,,107,147358,21,Female,1,2024/03/20_14:01:40,YZ,None,
,,,,,,practice,0,19,3,361,6,S,0,right,0.6805545999959577,1,0,,,,,,,,,,,,,,,,,,,,,1,,,,,,,,,,,,,,,,,,,,,,,,,,,,,,,,,,,,,,,,,,,,,,107,147358,21,Female,1,2024/03/20_14:01:40,YZ,None,
,,,,,,practice,0,19,3,361,7,F,0,right,1.800772432005033,1,0,,,,,,,,,,,,,,,,,,,,,1,,,,,,,,,,,,,,,,,,,,,,,,,,,,,,,,,,,,,,,,,,,,,,107,147358,21,Female,1,2024/03/20_14:01:40,YZ,None,
,,,,,,practice,0,19,3,361,8,J,1,right,1.3755244039930403,0,0,,,,,,,,,,,,,,,,,,,,,1,,,,,,,,,,,,,,,,,,,,,,,,,,,,,,,,,,,,,,,,,,,,,,107,147358,21,Female,1,2024/03/20_14:01:40,YZ,None,
,,,,,,practice,0,19,3,361,9,S,1,right,1.7121334060066147,0,0,,,,,,,,,,,,,,,,,,,,,1,,,,,,,,,,,,,,,,,,,,,,,,,,,,,,,,,,,,,,,,,,,,,,107,147358,21,Female,1,2024/03/20_14:01:40,YZ,None,
,,,,,,practice,0,19,3,361,10,X,0,left,0.8847642809996614,0,0,,,,,,,,,,,,,,,,,,,,,1,,,,,,,,,,,,,,,,,,,,,,,,,,,,,,,,,,,,,,,,,,,,,,107,147358,21,Female,1,2024/03/20_14:01:40,YZ,None,
,,,,,,practice,0,19,3,361,11,J,1,right,0.6362009099975694,0,0,,,,,,,,,,,,,,,,,,,,,1,,,,,,,,,,,,,,,,,,,,,,,,,,,,,,,,,,,,,,,,,,,,,,107,147358,21,Female,1,2024/03/20_14:01:40,YZ,None,
,,,,,,practice,0,19,3,361,12,C,0,right,0.6848590479930863,1,0,,,,,,,,,,,,,,,,,,,,,1,,,,,,,,,,,,,,,,,,,,,,,,,,,,,,,,,,,,,,,,,,,,,,107,147358,21,Female,1,2024/03/20_14:01:40,YZ,None,
,,,,,,practice,0,19,3,361,13,N,0,right,0.36488764399837237,1,0,,,,,,,,,,,,,,,,,,,,,1,,,,,,,,,,,,,,,,,,,,,,,,,,,,,,,,,,,,,,,,,,,,,,107,147358,21,Female,1,2024/03/20_14:01:40,YZ,None,
,,,,,,practice,0,19,3,361,14,C,0,right,1.7521647369867424,1,0,,,,,,,,,,,,,,,,,,,,,1,,,,,,,,,,,,,,,,,,,,,,,,,,,,,,,,,,,,,,,,,,,,,,107,147358,21,Female,1,2024/03/20_14:01:40,YZ,None,
,,,,,,practice,0,19,3,361,15,C,1,left,2.652051066994318,1,0,,,,,,,,,,,,,,,,,,,,,1,,,,,,,,,,,,,,,,,,,,,,,,,,,,,,,,,,,,,,,,,,,,,,107,147358,21,Female,1,2024/03/20_14:01:40,YZ,None,
,,,,,,practice,0,19,3,361,16,Q,0,right,1.009717848006403,1,0,,,,,,,,,,,,,,,,,,,,,1,,,,,,,,,,,,,,,,,,,,,,,,,,,,,,,,,,,,,,,,,,,,,,107,147358,21,Female,1,2024/03/20_14:01:40,YZ,None,
,,,,,,practice,0,19,3,361,17,S,0,right,0.3724179080018075,1,0,,,,,,,,,,,,,,,,,,,,,1,,,,,,,,,,,,,,,,,,,,,,,,,,,,,,,,,,,,,,,,,,,,,,107,147358,21,Female,1,2024/03/20_14:01:40,YZ,None,
,,,,,,practice,0,19,3,361,18,S,0,right,0.8094868960033637,1,0,,,,,,,,,,,,,,,,,,,,,1,,,,,,,,,,,,,,,,,,,,,,,,,,,,,,,,,,,,,,,,,,,,,,107,147358,21,Female,1,2024/03/20_14:01:40,YZ,None,
,,,,,,practice,0,19,3,361,,,,,,,,0.7826923076923077,0.4,0.07692307692307693,0.9230769230769231,0.0,0.9230769230769231,0.9610848483336869,2,1,0,0,0,12,14,5,13,0,,,,1,,,,,,,,,,,,,,,,,,,,,,,,,,,,,,,,,,,,,,,,,,,,,,107,147358,21,Female,1,2024/03/20_14:01:40,YZ,None,
,,,,,,practice,0,29,3,361,1,N,0,right,0.8372503150021657,1,0,,,,,,,,,,,,,,,,,,,,,1,,,,,,,,,,,,,,,,,,,,,,,,,,,,,,,,,,,,,,,,,,,,,,107,147358,21,Female,1,2024/03/20_14:01:40,YZ,None,
,,,,,,practice,0,29,3,361,2,X,0,right,0.879505288990913,1,0,,,,,,,,,,,,,,,,,,,,,1,,,,,,,,,,,,,,,,,,,,,,,,,,,,,,,,,,,,,,,,,,,,,,107,147358,21,Female,1,2024/03/20_14:01:40,YZ,None,
,,,,,,practice,0,29,3,361,3,F,0,right,0.8205400459992234,1,0,,,,,,,,,,,,,,,,,,,,,1,,,,,,,,,,,,,,,,,,,,,,,,,,,,,,,,,,,,,,,,,,,,,,107,147358,21,Female,1,2024/03/20_14:01:40,YZ,None,
,,,,,,practice,0,29,3,361,4,N,1,left,0.9039826369989896,1,0,,,,,,,,,,,,,,,,,,,,,1,,,,,,,,,,,,,,,,,,,,,,,,,,,,,,,,,,,,,,,,,,,,,,107,147358,21,Female,1,2024/03/20_14:01:40,YZ,None,
,,,,,,practice,0,29,3,361,5,X,1,right,2.593091931004892,0,0,,,,,,,,,,,,,,,,,,,,,1,,,,,,,,,,,,,,,,,,,,,,,,,,,,,,,,,,,,,,,,,,,,,,107,147358,21,Female,1,2024/03/20_14:01:40,YZ,None,
,,,,,,practice,0,29,3,361,6,Q,0,right,1.3083836500009056,1,0,,,,,,,,,,,,,,,,,,,,,1,,,,,,,,,,,,,,,,,,,,,,,,,,,,,,,,,,,,,,,,,,,,,,107,147358,21,Female,1,2024/03/20_14:01:40,YZ,None,
,,,,,,practice,0,29,3,361,7,S,0,right,0.9620687429996906,1,0,,,,,,,,,,,,,,,,,,,,,1,,,,,,,,,,,,,,,,,,,,,,,,,,,,,,,,,,,,,,,,,,,,,,107,147358,21,Female,1,2024/03/20_14:01:40,YZ,None,
,,,,,,practice,0,29,3,361,8,X,1,right,1.3879616019985406,0,0,,,,,,,,,,,,,,,,,,,,,1,,,,,,,,,,,,,,,,,,,,,,,,,,,,,,,,,,,,,,,,,,,,,,107,147358,21,Female,1,2024/03/20_14:01:40,YZ,None,
,,,,,,practice,0,29,3,361,9,X,0,right,1.3296956900012447,1,0,,,,,,,,,,,,,,,,,,,,,1,,,,,,,,,,,,,,,,,,,,,,,,,,,,,,,,,,,,,,,,,,,,,,107,147358,21,Female,1,2024/03/20_14:01:40,YZ,None,
,,,,,,practice,0,29,3,361,10,C,0,right,1.1645529939996777,1,0,,,,,,,,,,,,,,,,,,,,,1,,,,,,,,,,,,,,,,,,,,,,,,,,,,,,,,,,,,,,,,,,,,,,107,147358,21,Female,1,2024/03/20_14:01:40,YZ,None,
,,,,,,practice,0,29,3,361,11,X,1,left,0.9625852419994771,1,0,,,,,,,,,,,,,,,,,,,,,1,,,,,,,,,,,,,,,,,,,,,,,,,,,,,,,,,,,,,,,,,,,,,,107,147358,21,Female,1,2024/03/20_14:01:40,YZ,None,
,,,,,,practice,0,29,3,361,12,N,0,right,1.0815240350057138,1,0,,,,,,,,,,,,,,,,,,,,,1,,,,,,,,,,,,,,,,,,,,,,,,,,,,,,,,,,,,,,,,,,,,,,107,147358,21,Female,1,2024/03/20_14:01:40,YZ,None,
,,,,,,practice,0,29,3,361,13,C,1,right,0.720163351012161,0,0,,,,,,,,,,,,,,,,,,,,,1,,,,,,,,,,,,,,,,,,,,,,,,,,,,,,,,,,,,,,,,,,,,,,107,147358,21,Female,1,2024/03/20_14:01:40,YZ,None,
,,,,,,practice,0,29,3,361,14,Q,0,right,0.7856821059976937,1,0,,,,,,,,,,,,,,,,,,,,,1,,,,,,,,,,,,,,,,,,,,,,,,,,,,,,,,,,,,,,,,,,,,,,107,147358,21,Female,1,2024/03/20_14:01:40,YZ,None,
,,,,,,practice,0,29,3,361,15,Q,0,right,1.177705652997247,1,0,,,,,,,,,,,,,,,,,,,,,1,,,,,,,,,,,,,,,,,,,,,,,,,,,,,,,,,,,,,,,,,,,,,,107,147358,21,Female,1,2024/03/20_14:01:40,YZ,None,
,,,,,,practice,0,29,3,361,16,C,1,left,1.10058559999743,1,0,,,,,,,,,,,,,,,,,,,,,1,,,,,,,,,,,,,,,,,,,,,,,,,,,,,,,,,,,,,,,,,,,,,,107,147358,21,Female,1,2024/03/20_14:01:40,YZ,None,
,,,,,,practice,0,29,3,361,17,X,0,right,1.3131123580096755,1,0,,,,,,,,,,,,,,,,,,,,,1,,,,,,,,,,,,,,,,,,,,,,,,,,,,,,,,,,,,,,,,,,,,,,107,147358,21,Female,1,2024/03/20_14:01:40,YZ,None,
,,,,,,practice,0,29,3,361,18,V,0,right,0.8740313729940681,1,0,,,,,,,,,,,,,,,,,,,,,1,,,,,,,,,,,,,,,,,,,,,,,,,,,,,,,,,,,,,,,,,,,,,,107,147358,21,Female,1,2024/03/20_14:01:40,YZ,None,
,,,,,,practice,0,29,3,361,,,,,,,,0.875,0.5,0.0,1.0,0.0,1.0,1.1223568119449838,3,0,0,0,0,12,15,6,12,0,,,,1,,,,,,,,,,,,,,,,,,,,,,,,,,,,,,,,,,,,,,,,,,,,,,107,147358,21,Female,1,2024/03/20_14:01:40,YZ,None,
1,./instructions/inst_prac_main/Slide51.png,right,2.5274624050070997,727.483820975991,730.0112833809981,,,,,,,,,,,,,,,,,,,,,,,,,,,,,,,,,1,,,,,,,,,,,,,,,,,,,,,,,,,,,,,,,,,,,,,,,,,,,,,,107,147358,21,Female,1,2024/03/20_14:01:40,YZ,None,
2,./instructions/inst_prac_main/Slide52.png,right,12.034482396004023,730.0409380649944,742.0754204609984,,,,,,,,,,,,,,,,,,,,,,,,,,,,,,,,,1,,,,,,,,,,,,,,,,,,,,,,,,,,,,,,,,,,,,,,,,,,,,,,107,147358,21,Female,1,2024/03/20_14:01:40,YZ,None,
3,./instructions/inst_prac_main/Slide53.png,right,9.618787008002982,742.1048052599945,751.7235922679974,,,,,,,,,,,,,,,,,,,,,,,,,,,,,,,,,1,,,,,,,,,,,,,,,,,,,,,,,,,,,,,,,,,,,,,,,,,,,,,,107,147358,21,Female,1,2024/03/20_14:01:40,YZ,None,
4,./instructions/inst_prac_main/Slide54.png,right,9.836425971006975,751.7511023349944,761.5875283060013,,,,,,,,,,,,,,,,,,,,,,,,,,,,,,,,,1,,,,,,,,,,,,,,,,,,,,,,,,,,,,,,,,,,,,,,,,,,,,,,107,147358,21,Female,1,2024/03/20_14:01:40,YZ,None,
,,,,,,practice_main,0,1,1,361,1,J,0,right,0.861386375996517,1,0,,,,,,,,,,,,,,,,,,,,,1,,,,,,,,,,,,,,,,,,,,,,,,,,,,,,,,,,,,,,,,,,,,,,107,147358,21,Female,1,2024/03/20_14:01:40,YZ,None,
,,,,,,practice_main,0,1,1,361,2,J,1,left,0.46614034099911805,1,0,,,,,,,,,,,,,,,,,,,,,1,,,,,,,,,,,,,,,,,,,,,,,,,,,,,,,,,,,,,,,,,,,,,,107,147358,21,Female,1,2024/03/20_14:01:40,YZ,None,
,,,,,,practice_main,0,1,1,361,3,S,0,right,0.5989132249960676,1,0,,,,,,,,,,,,,,,,,,,,,1,,,,,,,,,,,,,,,,,,,,,,,,,,,,,,,,,,,,,,,,,,,,,,107,147358,21,Female,1,2024/03/20_14:01:40,YZ,None,
,,,,,,practice_main,0,1,1,361,4,Q,0,right,0.4009596209943993,1,0,,,,,,,,,,,,,,,,,,,,,1,,,,,,,,,,,,,,,,,,,,,,,,,,,,,,,,,,,,,,,,,,,,,,107,147358,21,Female,1,2024/03/20_14:01:40,YZ,None,
,,,,,,practice_main,0,1,1,361,5,N,0,right,0.38309436799318064,1,0,,,,,,,,,,,,,,,,,,,,,1,,,,,,,,,,,,,,,,,,,,,,,,,,,,,,,,,,,,,,,,,,,,,,107,147358,21,Female,1,2024/03/20_14:01:40,YZ,None,
,,,,,,practice_main,0,1,1,361,6,N,1,left,0.4530899119999958,1,0,,,,,,,,,,,,,,,,,,,,,1,,,,,,,,,,,,,,,,,,,,,,,,,,,,,,,,,,,,,,,,,,,,,,107,147358,21,Female,1,2024/03/20_14:01:40,YZ,None,
,,,,,,practice_main,0,1,1,361,7,C,0,right,0.3680953630100703,1,0,,,,,,,,,,,,,,,,,,,,,1,,,,,,,,,,,,,,,,,,,,,,,,,,,,,,,,,,,,,,,,,,,,,,107,147358,21,Female,1,2024/03/20_14:01:40,YZ,None,
,,,,,,practice_main,0,1,1,361,8,X,0,right,0.6544021199952113,1,0,,,,,,,,,,,,,,,,,,,,,1,,,,,,,,,,,,,,,,,,,,,,,,,,,,,,,,,,,,,,,,,,,,,,107,147358,21,Female,1,2024/03/20_14:01:40,YZ,None,
,,,,,,practice_main,0,1,1,361,9,F,0,right,0.49062742199748755,1,0,,,,,,,,,,,,,,,,,,,,,1,,,,,,,,,,,,,,,,,,,,,,,,,,,,,,,,,,,,,,,,,,,,,,107,147358,21,Female,1,2024/03/20_14:01:40,YZ,None,
,,,,,,practice_main,0,1,1,361,10,C,0,right,0.38477767500444315,1,0,,,,,,,,,,,,,,,,,,,,,1,,,,,,,,,,,,,,,,,,,,,,,,,,,,,,,,,,,,,,,,,,,,,,107,147358,21,Female,1,2024/03/20_14:01:40,YZ,None,
,,,,,,practice_main,0,1,1,361,11,C,1,left,0.3596201290056342,1,0,,,,,,,,,,,,,,,,,,,,,1,,,,,,,,,,,,,,,,,,,,,,,,,,,,,,,,,,,,,,,,,,,,,,107,147358,21,Female,1,2024/03/20_14:01:40,YZ,None,
,,,,,,practice_main,0,1,1,361,12,F,0,right,0.416655819004518,1,0,,,,,,,,,,,,,,,,,,,,,1,,,,,,,,,,,,,,,,,,,,,,,,,,,,,,,,,,,,,,,,,,,,,,107,147358,21,Female,1,2024/03/20_14:01:40,YZ,None,
,,,,,,practice_main,0,1,1,361,13,F,1,left,0.4349836869951105,1,0,,,,,,,,,,,,,,,,,,,,,1,,,,,,,,,,,,,,,,,,,,,,,,,,,,,,,,,,,,,,,,,,,,,,107,147358,21,Female,1,2024/03/20_14:01:40,YZ,None,
,,,,,,practice_main,0,1,1,361,14,S,0,right,0.34553349899942987,1,0,,,,,,,,,,,,,,,,,,,,,1,,,,,,,,,,,,,,,,,,,,,,,,,,,,,,,,,,,,,,,,,,,,,,107,147358,21,Female,1,2024/03/20_14:01:40,YZ,None,
,,,,,,practice_main,0,1,1,361,15,N,0,right,0.3080062819935847,1,0,,,,,,,,,,,,,,,,,,,,,1,,,,,,,,,,,,,,,,,,,,,,,,,,,,,,,,,,,,,,,,,,,,,,107,147358,21,Female,1,2024/03/20_14:01:40,YZ,None,
,,,,,,practice_main,0,1,1,361,16,X,0,right,0.36446650500874966,1,0,,,,,,,,,,,,,,,,,,,,,1,,,,,,,,,,,,,,,,,,,,,,,,,,,,,,,,,,,,,,,,,,,,,,107,147358,21,Female,1,2024/03/20_14:01:40,YZ,None,
,,,,,,practice_main,0,1,1,361,17,J,0,right,0.37053794000530615,1,0,,,,,,,,,,,,,,,,,,,,,1,,,,,,,,,,,,,,,,,,,,,,,,,,,,,,,,,,,,,,,,,,,,,,107,147358,21,Female,1,2024/03/20_14:01:40,YZ,None,
,,,,,,practice_main,0,1,1,361,18,J,1,left,0.4927256780065363,1,0,,,,,,,,,,,,,,,,,,,,,1,,,,,,,,,,,,,,,,,,,,,,,,,,,,,,,,,,,,,,,,,,,,,,107,147358,21,Female,1,2024/03/20_14:01:40,YZ,None,
,,,,,,practice_main,0,1,1,361,,,,,,,,1.0,1.0,0.0,1.0,0.0,1.0,0.45300088677807554,5,0,0,0,0,13,18,5,13,0,,,,1,,,,,,,,,,,,,,,,,,,,,,,,,,,,,,,,,,,,,,,,,,,,,,107,147358,21,Female,1,2024/03/20_14:01:40,YZ,None,
,,,,,240320_142049,PRACTICE,0,1,1,361,,,,,,,,,,,,,,,,,,,,,,,,,,,,1,27,1,1,cue1.png,easy,A,9,1.4684679259953555,0,764.6473921589932,766.1382615269977,,,,,,,,,,,,,,,,,,,,,,,,,,,,,,,,,,,107,147358,21,Female,1,2024/03/20_14:01:40,YZ,None,
,,,,,,practice_main,0,2,3,361,1,V,0,right,0.6461411330092233,1,0,,,,,,,,,,,,,,,,,,,,,1,,,,,,,,,,,,,,,,,,,,,,,,,,,,,,,,,,,,,,,,,,,,,,107,147358,21,Female,1,2024/03/20_14:01:40,YZ,None,
,,,,,,practice_main,0,2,3,361,2,F,0,right,0.3555503280076664,1,0,,,,,,,,,,,,,,,,,,,,,1,,,,,,,,,,,,,,,,,,,,,,,,,,,,,,,,,,,,,,,,,,,,,,107,147358,21,Female,1,2024/03/20_14:01:40,YZ,None,
,,,,,,practice_main,0,2,3,361,3,V,0,right,0.84160406900628,1,0,,,,,,,,,,,,,,,,,,,,,1,,,,,,,,,,,,,,,,,,,,,,,,,,,,,,,,,,,,,,,,,,,,,,107,147358,21,Female,1,2024/03/20_14:01:40,YZ,None,
,,,,,,practice_main,0,2,3,361,4,Q,0,right,0.5359824800107162,1,0,,,,,,,,,,,,,,,,,,,,,1,,,,,,,,,,,,,,,,,,,,,,,,,,,,,,,,,,,,,,,,,,,,,,107,147358,21,Female,1,2024/03/20_14:01:40,YZ,None,
,,,,,,practice_main,0,2,3,361,5,F,1,left,0.5748700230033137,1,0,,,,,,,,,,,,,,,,,,,,,1,,,,,,,,,,,,,,,,,,,,,,,,,,,,,,,,,,,,,,,,,,,,,,107,147358,21,Female,1,2024/03/20_14:01:40,YZ,None,
,,,,,,practice_main,0,2,3,361,6,V,1,left,nan,0,1,,,,,,,,,,,,,,,,,,,,,1,,,,,,,,,,,,,,,,,,,,,,,,,,,,,,,,,,,,,,,,,,,,,,107,147358,21,Female,1,2024/03/20_14:01:40,YZ,None,
,,,,,,practice_main,0,2,3,361,7,N,0,right,0.46743876399705186,1,0,,,,,,,,,,,,,,,,,,,,,1,,,,,,,,,,,,,,,,,,,,,,,,,,,,,,,,,,,,,,,,,,,,,,107,147358,21,Female,1,2024/03/20_14:01:40,YZ,None,
,,,,,,practice_main,0,2,3,361,8,S,0,right,0.9979071499983547,1,0,,,,,,,,,,,,,,,,,,,,,1,,,,,,,,,,,,,,,,,,,,,,,,,,,,,,,,,,,,,,,,,,,,,,107,147358,21,Female,1,2024/03/20_14:01:40,YZ,None,
,,,,,,practice_main,0,2,3,361,9,X,0,right,0.718835781008238,1,0,,,,,,,,,,,,,,,,,,,,,1,,,,,,,,,,,,,,,,,,,,,,,,,,,,,,,,,,,,,,,,,,,,,,107,147358,21,Female,1,2024/03/20_14:01:40,YZ,None,
,,,,,,practice_main,0,2,3,361,10,S,0,right,0.8207850990002044,1,0,,,,,,,,,,,,,,,,,,,,,1,,,,,,,,,,,,,,,,,,,,,,,,,,,,,,,,,,,,,,,,,,,,,,107,147358,21,Female,1,2024/03/20_14:01:40,YZ,None,
,,,,,,practice_main,0,2,3,361,11,S,1,right,0.6903294900112087,0,0,,,,,,,,,,,,,,,,,,,,,1,,,,,,,,,,,,,,,,,,,,,,,,,,,,,,,,,,,,,,,,,,,,,,107,147358,21,Female,1,2024/03/20_14:01:40,YZ,None,
,,,,,,practice_main,0,2,3,361,12,X,1,right,nan,0,1,,,,,,,,,,,,,,,,,,,,,1,,,,,,,,,,,,,,,,,,,,,,,,,,,,,,,,,,,,,,,,,,,,,,107,147358,21,Female,1,2024/03/20_14:01:40,YZ,None,
,,,,,,practice_main,0,2,3,361,13,Q,0,left,0.6647005949926097,0,0,,,,,,,,,,,,,,,,,,,,,1,,,,,,,,,,,,,,,,,,,,,,,,,,,,,,,,,,,,,,,,,,,,,,107,147358,21,Female,1,2024/03/20_14:01:40,YZ,None,
,,,,,,practice_main,0,2,3,361,14,S,1,right,0.6575823169987416,0,0,,,,,,,,,,,,,,,,,,,,,1,,,,,,,,,,,,,,,,,,,,,,,,,,,,,,,,,,,,,,,,,,,,,,107,147358,21,Female,1,2024/03/20_14:01:40,YZ,None,
,,,,,,practice_main,0,2,3,361,15,X,1,right,0.6294390029943315,0,0,,,,,,,,,,,,,,,,,,,,,1,,,,,,,,,,,,,,,,,,,,,,,,,,,,,,,,,,,,,,,,,,,,,,107,147358,21,Female,1,2024/03/20_14:01:40,YZ,None,
,,,,,,practice_main,0,2,3,361,16,N,0,right,0.5746489179873606,1,0,,,,,,,,,,,,,,,,,,,,,1,,,,,,,,,,,,,,,,,,,,,,,,,,,,,,,,,,,,,,,,,,,,,,107,147358,21,Female,1,2024/03/20_14:01:40,YZ,None,
,,,,,,practice_main,0,2,3,361,17,Q,0,right,0.6107765399938216,1,0,,,,,,,,,,,,,,,,,,,,,1,,,,,,,,,,,,,,,,,,,,,,,,,,,,,,,,,,,,,,,,,,,,,,107,147358,21,Female,1,2024/03/20_14:01:40,YZ,None,
,,,,,,practice_main,0,2,3,361,18,F,0,right,0.7743002350034658,1,0,,,,,,,,,,,,,,,,,,,,,1,,,,,,,,,,,,,,,,,,,,,,,,,,,,,,,,,,,,,,,,,,,,,,107,147358,21,Female,1,2024/03/20_14:01:40,YZ,None,
,,,,,,practice_main,0,2,3,361,,,,,,,,0.6458333333333334,0.16666666666666666,0.08333333333333333,0.9166666666666666,0.1111111111111111,0.8055555555555556,0.6600557453139118,1,1,2,0,2,11,12,6,12,0,,,,1,,,,,,,,,,,,,,,,,,,,,,,,,,,,,,,,,,,,,,,,,,,,,,107,147358,21,Female,1,2024/03/20_14:01:40,YZ,None,
,,,,,240320_142121,PRACTICE,0,2,3,361,,,,,,,,,,,,,,,,,,,,,,,,,,,,1,2,2,2,cue2.png,hard,A,6,1.047342011006549,0,792.8669052009936,793.9259555649915,,,,,,,,,,,,,,,,,,,,,,,,,,,,,,,,,,,107,147358,21,Female,1,2024/03/20_14:01:40,YZ,None,
,,,,,,practice_main,0,3,3,361,1,S,0,right,0.48856071900809184,1,0,,,,,,,,,,,,,,,,,,,,,1,,,,,,,,,,,,,,,,,,,,,,,,,,,,,,,,,,,,,,,,,,,,,,107,147358,21,Female,1,2024/03/20_14:01:40,YZ,None,
,,,,,,practice_main,0,3,3,361,2,X,0,right,0.484765254004742,1,0,,,,,,,,,,,,,,,,,,,,,1,,,,,,,,,,,,,,,,,,,,,,,,,,,,,,,,,,,,,,,,,,,,,,107,147358,21,Female,1,2024/03/20_14:01:40,YZ,None,
,,,,,,practice_main,0,3,3,361,3,C,0,right,0.39226137900550384,1,0,,,,,,,,,,,,,,,,,,,,,1,,,,,,,,,,,,,,,,,,,,,,,,,,,,,,,,,,,,,,,,,,,,,,107,147358,21,Female,1,2024/03/20_14:01:40,YZ,None,
,,,,,,practice_main,0,3,3,361,4,S,1,left,0.6157008790032705,1,0,,,,,,,,,,,,,,,,,,,,,1,,,,,,,,,,,,,,,,,,,,,,,,,,,,,,,,,,,,,,,,,,,,,,107,147358,21,Female,1,2024/03/20_14:01:40,YZ,None,
,,,,,,practice_main,0,3,3,361,5,C,0,left,nan,0,1,,,,,,,,,,,,,,,,,,,,,1,,,,,,,,,,,,,,,,,,,,,,,,,,,,,,,,,,,,,,,,,,,,,,107,147358,21,Female,1,2024/03/20_14:01:40,YZ,None,
,,,,,,practice_main,0,3,3,361,6,F,0,right,0.257074711000314,1,0,,,,,,,,,,,,,,,,,,,,,1,,,,,,,,,,,,,,,,,,,,,,,,,,,,,,,,,,,,,,,,,,,,,,107,147358,21,Female,1,2024/03/20_14:01:40,YZ,None,
,,,,,,practice_main,0,3,3,361,7,Q,0,right,0.15334445200278424,1,0,,,,,,,,,,,,,,,,,,,,,1,,,,,,,,,,,,,,,,,,,,,,,,,,,,,,,,,,,,,,,,,,,,,,107,147358,21,Female,1,2024/03/20_14:01:40,YZ,None,
,,,,,,practice_main,0,3,3,361,8,C,1,right,0.8181113030004781,0,0,,,,,,,,,,,,,,,,,,,,,1,,,,,,,,,,,,,,,,,,,,,,,,,,,,,,,,,,,,,,,,,,,,,,107,147358,21,Female,1,2024/03/20_14:01:40,YZ,None,
,,,,,,practice_main,0,3,3,361,9,S,0,right,0.992680395997013,1,0,,,,,,,,,,,,,,,,,,,,,1,,,,,,,,,,,,,,,,,,,,,,,,,,,,,,,,,,,,,,,,,,,,,,107,147358,21,Female,1,2024/03/20_14:01:40,YZ,None,
,,,,,,practice_main,0,3,3,361,10,F,0,left,0.8023636860016268,0,0,,,,,,,,,,,,,,,,,,,,,1,,,,,,,,,,,,,,,,,,,,,,,,,,,,,,,,,,,,,,,,,,,,,,107,147358,21,Female,1,2024/03/20_14:01:40,YZ,None,
,,,,,,practice_main,0,3,3,361,11,S,0,right,0.5550410370051395,1,0,,,,,,,,,,,,,,,,,,,,,1,,,,,,,,,,,,,,,,,,,,,,,,,,,,,,,,,,,,,,,,,,,,,,107,147358,21,Female,1,2024/03/20_14:01:40,YZ,None,
,,,,,,practice_main,0,3,3,361,12,S,1,right,0.611652890991536,0,0,,,,,,,,,,,,,,,,,,,,,1,,,,,,,,,,,,,,,,,,,,,,,,,,,,,,,,,,,,,,,,,,,,,,107,147358,21,Female,1,2024/03/20_14:01:40,YZ,None,
,,,,,,practice_main,0,3,3,361,13,V,0,right,0.5405073860019911,1,0,,,,,,,,,,,,,,,,,,,,,1,,,,,,,,,,,,,,,,,,,,,,,,,,,,,,,,,,,,,,,,,,,,,,107,147358,21,Female,1,2024/03/20_14:01:40,YZ,None,
,,,,,,practice_main,0,3,3,361,14,S,1,left,0.5911966630083043,1,0,,,,,,,,,,,,,,,,,,,,,1,,,,,,,,,,,,,,,,,,,,,,,,,,,,,,,,,,,,,,,,,,,,,,107,147358,21,Female,1,2024/03/20_14:01:40,YZ,None,
,,,,,,practice_main,0,3,3,361,15,V,0,right,0.3839895620039897,1,0,,,,,,,,,,,,,,,,,,,,,1,,,,,,,,,,,,,,,,,,,,,,,,,,,,,,,,,,,,,,,,,,,,,,107,147358,21,Female,1,2024/03/20_14:01:40,YZ,None,
,,,,,,practice_main,0,3,3,361,16,V,1,right,0.5647797869896749,0,0,,,,,,,,,,,,,,,,,,,,,1,,,,,,,,,,,,,,,,,,,,,,,,,,,,,,,,,,,,,,,,,,,,,,107,147358,21,Female,1,2024/03/20_14:01:40,YZ,None,
,,,,,,practice_main,0,3,3,361,17,J,0,right,0.6909211990132462,1,0,,,,,,,,,,,,,,,,,,,,,1,,,,,,,,,,,,,,,,,,,,,,,,,,,,,,,,,,,,,,,,,,,,,,107,147358,21,Female,1,2024/03/20_14:01:40,YZ,None,
,,,,,,practice_main,0,3,3,361,18,J,0,right,0.5414699130051304,1,0,,,,,,,,,,,,,,,,,,,,,1,,,,,,,,,,,,,,,,,,,,,,,,,,,,,,,,,,,,,,,,,,,,,,107,147358,21,Female,1,2024/03/20_14:01:40,YZ,None,
,,,,,,practice_main,0,3,3,361,,,,,,,,0.7826923076923077,0.4,0.07692307692307693,0.9166666666666666,0.05555555555555555,0.8675213675213675,0.5579071304142845,2,1,0,1,1,11,13,5,13,0,,,,1,,,,,,,,,,,,,,,,,,,,,,,,,,,,,,,,,,,,,,,,,,,,,,107,147358,21,Female,1,2024/03/20_14:01:40,YZ,None,
,,,,,240320_142152,PRACTICE,0,3,3,361,,,,,,,,,,,,,,,,,,,,,,,,,,,,1,25,3,3,cue2.png,hard,A,4,1.5951117369986605,0,825.1412419729895,826.7489920770022,,,,,,,,,,,,,,,,,,,,,,,,,,,,,,,,,,,107,147358,21,Female,1,2024/03/20_14:01:40,YZ,None,
1,./instructions/inst_prac_end/Slide56.png,right,21.005935388995567,854.3893627159996,875.3952981049952,,,,,,,,,,,,,,,,,,,,,,,,,,,,,,,,,1,,,,,,,,,,,,,,,,,,,,,,,,,,,,,,,,,,,,,,,,,,,,,,107,147358,21,Female,1,2024/03/20_14:01:40,YZ,None,
1,./instructions/inst_test/Slide57.png,right,209.52171609699144,875.425547648003,1084.9472637449944,,,,,,,,,,,,,,,,,,,,,,,,,,,,,,,,,1,,,,,,,,,,,,,,,,,,,,,,,,,,,,,,,,,,,,,,,,,,,,,,107,147358,21,Female,1,2024/03/20_14:01:40,YZ,None,
,,,,,,test,1,1,1,361,1,X,0,right,0.7945569889998296,1,0,,,,,,,,,,,,,,,,,,,,,1,,,,,,,,,,,,,,,,,,,,,,,,,,,,,,,,,,,,,,,,,,,,,,107,147358,21,Female,1,2024/03/20_14:01:40,YZ,None,
,,,,,,test,1,1,1,361,2,X,1,left,0.4975033159862505,1,0,,,,,,,,,,,,,,,,,,,,,1,,,,,,,,,,,,,,,,,,,,,,,,,,,,,,,,,,,,,,,,,,,,,,107,147358,21,Female,1,2024/03/20_14:01:40,YZ,None,
,,,,,,test,1,1,1,361,3,Q,0,right,0.4002822300099069,1,0,,,,,,,,,,,,,,,,,,,,,1,,,,,,,,,,,,,,,,,,,,,,,,,,,,,,,,,,,,,,,,,,,,,,107,147358,21,Female,1,2024/03/20_14:01:40,YZ,None,
,,,,,,test,1,1,1,361,4,Q,1,left,0.4247691900091013,1,0,,,,,,,,,,,,,,,,,,,,,1,,,,,,,,,,,,,,,,,,,,,,,,,,,,,,,,,,,,,,,,,,,,,,107,147358,21,Female,1,2024/03/20_14:01:40,YZ,None,
,,,,,,test,1,1,1,361,5,V,0,right,0.3669463509868365,1,0,,,,,,,,,,,,,,,,,,,,,1,,,,,,,,,,,,,,,,,,,,,,,,,,,,,,,,,,,,,,,,,,,,,,107,147358,21,Female,1,2024/03/20_14:01:40,YZ,None,
,,,,,,test,1,1,1,361,6,N,0,right,0.38008707501285244,1,0,,,,,,,,,,,,,,,,,,,,,1,,,,,,,,,,,,,,,,,,,,,,,,,,,,,,,,,,,,,,,,,,,,,,107,147358,21,Female,1,2024/03/20_14:01:40,YZ,None,
,,,,,,test,1,1,1,361,7,N,1,left,0.4650801080133533,1,0,,,,,,,,,,,,,,,,,,,,,1,,,,,,,,,,,,,,,,,,,,,,,,,,,,,,,,,,,,,,,,,,,,,,107,147358,21,Female,1,2024/03/20_14:01:40,YZ,None,
,,,,,,test,1,1,1,361,8,V,0,right,0.6146241660026135,1,0,,,,,,,,,,,,,,,,,,,,,1,,,,,,,,,,,,,,,,,,,,,,,,,,,,,,,,,,,,,,,,,,,,,,107,147358,21,Female,1,2024/03/20_14:01:40,YZ,None,
,,,,,,test,1,1,1,361,9,X,0,right,0.49797204601054545,1,0,,,,,,,,,,,,,,,,,,,,,1,,,,,,,,,,,,,,,,,,,,,,,,,,,,,,,,,,,,,,,,,,,,,,107,147358,21,Female,1,2024/03/20_14:01:40,YZ,None,
,,,,,,test,1,1,1,361,10,F,0,right,0.48876778200792614,1,0,,,,,,,,,,,,,,,,,,,,,1,,,,,,,,,,,,,,,,,,,,,,,,,,,,,,,,,,,,,,,,,,,,,,107,147358,21,Female,1,2024/03/20_14:01:40,YZ,None,
,,,,,,test,1,1,1,361,11,Q,0,right,0.45938792600645684,1,0,,,,,,,,,,,,,,,,,,,,,1,,,,,,,,,,,,,,,,,,,,,,,,,,,,,,,,,,,,,,,,,,,,,,107,147358,21,Female,1,2024/03/20_14:01:40,YZ,None,
,,,,,,test,1,1,1,361,12,Q,1,left,0.46787659599795006,1,0,,,,,,,,,,,,,,,,,,,,,1,,,,,,,,,,,,,,,,,,,,,,,,,,,,,,,,,,,,,,,,,,,,,,107,147358,21,Female,1,2024/03/20_14:01:40,YZ,None,
,,,,,,test,1,1,1,361,13,N,0,right,0.35191619499528315,1,0,,,,,,,,,,,,,,,,,,,,,1,,,,,,,,,,,,,,,,,,,,,,,,,,,,,,,,,,,,,,,,,,,,,,107,147358,21,Female,1,2024/03/20_14:01:40,YZ,None,
,,,,,,test,1,1,1,361,14,S,0,right,0.38446604400814977,1,0,,,,,,,,,,,,,,,,,,,,,1,,,,,,,,,,,,,,,,,,,,,,,,,,,,,,,,,,,,,,,,,,,,,,107,147358,21,Female,1,2024/03/20_14:01:40,YZ,None,
,,,,,,test,1,1,1,361,15,S,1,left,0.47676335398864467,1,0,,,,,,,,,,,,,,,,,,,,,1,,,,,,,,,,,,,,,,,,,,,,,,,,,,,,,,,,,,,,,,,,,,,,107,147358,21,Female,1,2024/03/20_14:01:40,YZ,None,
,,,,,,test,1,1,1,361,16,V,0,right,0.4044840910064522,1,0,,,,,,,,,,,,,,,,,,,,,1,,,,,,,,,,,,,,,,,,,,,,,,,,,,,,,,,,,,,,,,,,,,,,107,147358,21,Female,1,2024/03/20_14:01:40,YZ,None,
,,,,,,test,1,1,1,361,17,C,0,right,0.40035088500007987,1,0,,,,,,,,,,,,,,,,,,,,,1,,,,,,,,,,,,,,,,,,,,,,,,,,,,,,,,,,,,,,,,,,,,,,107,147358,21,Female,1,2024/03/20_14:01:40,YZ,None,
,,,,,,test,1,1,1,361,18,C,1,right,nan,0,1,,,,,,,,,,,,,,,,,,,,,1,,,,,,,,,,,,,,,,,,,,,,,,,,,,,,,,,,,,,,,,,,,,,,107,147358,21,Female,1,2024/03/20_14:01:40,YZ,None,
,,,,,,Test,1,1,1,361,,,,,,,,0.9583333333333334,0.8333333333333334,0.0,1.0,0.05555555555555555,0.9444444444444444,0.4632843731789548,5,0,1,0,1,12,17,6,12,0,,,,1,,,,,,,,,,,,,,,,,,,,,,,,,,,,,,,,,,,,,,,,,,,,,,107,147358,21,Female,1,2024/03/20_14:01:40,YZ,None,
,,,,,240320_142614,TEST,1,1,1,361,,,,,,,,,,,,,,,,,,,,,,,,,,,,1,1,1,1,cue1.png,easy,A,16,1.0844345150107983,0,1090.007916550996,1091.1086285159981,,,,,,,,,,,,,,,,,,,,,,,,,,,,,,,,,,,107,147358,21,Female,1,2024/03/20_14:01:40,YZ,None,
,,,,,,test,1,2,3,361,1,C,0,right,0.49668370399740525,1,0,,,,,,,,,,,,,,,,,,,,,1,,,,,,,,,,,,,,,,,,,,,,,,,,,,,,,,,,,,,,,,,,,,,,107,147358,21,Female,1,2024/03/20_14:01:40,YZ,None,
,,,,,,test,1,2,3,361,2,F,0,right,0.3842771860072389,1,0,,,,,,,,,,,,,,,,,,,,,1,,,,,,,,,,,,,,,,,,,,,,,,,,,,,,,,,,,,,,,,,,,,,,107,147358,21,Female,1,2024/03/20_14:01:40,YZ,None,
,,,,,,test,1,2,3,361,3,V,0,right,0.40172324900049716,1,0,,,,,,,,,,,,,,,,,,,,,1,,,,,,,,,,,,,,,,,,,,,,,,,,,,,,,,,,,,,,,,,,,,,,107,147358,21,Female,1,2024/03/20_14:01:40,YZ,None,
,,,,,,test,1,2,3,361,4,Q,0,right,0.724750376000884,1,0,,,,,,,,,,,,,,,,,,,,,1,,,,,,,,,,,,,,,,,,,,,,,,,,,,,,,,,,,,,,,,,,,,,,107,147358,21,Female,1,2024/03/20_14:01:40,YZ,None,
,,,,,,test,1,2,3,361,5,F,1,left,0.7268709630006924,1,0,,,,,,,,,,,,,,,,,,,,,1,,,,,,,,,,,,,,,,,,,,,,,,,,,,,,,,,,,,,,,,,,,,,,107,147358,21,Female,1,2024/03/20_14:01:40,YZ,None,
,,,,,,test,1,2,3,361,6,S,0,right,0.5639623760071117,1,0,,,,,,,,,,,,,,,,,,,,,1,,,,,,,,,,,,,,,,,,,,,,,,,,,,,,,,,,,,,,,,,,,,,,107,147358,21,Female,1,2024/03/20_14:01:40,YZ,None,
,,,,,,test,1,2,3,361,7,V,0,right,0.8490145509858849,1,0,,,,,,,,,,,,,,,,,,,,,1,,,,,,,,,,,,,,,,,,,,,,,,,,,,,,,,,,,,,,,,,,,,,,107,147358,21,Female,1,2024/03/20_14:01:40,YZ,None,
,,,,,,test,1,2,3,361,8,X,0,right,0.6749644520023139,1,0,,,,,,,,,,,,,,,,,,,,,1,,,,,,,,,,,,,,,,,,,,,,,,,,,,,,,,,,,,,,,,,,,,,,107,147358,21,Female,1,2024/03/20_14:01:40,YZ,None,
,,,,,,test,1,2,3,361,9,S,1,right,0.4549789239972597,0,0,,,,,,,,,,,,,,,,,,,,,1,,,,,,,,,,,,,,,,,,,,,,,,,,,,,,,,,,,,,,,,,,,,,,107,147358,21,Female,1,2024/03/20_14:01:40,YZ,None,
,,,,,,test,1,2,3,361,10,F,0,right,0.7824093300005188,1,0,,,,,,,,,,,,,,,,,,,,,1,,,,,,,,,,,,,,,,,,,,,,,,,,,,,,,,,,,,,,,,,,,,,,107,147358,21,Female,1,2024/03/20_14:01:40,YZ,None,
,,,,,,test,1,2,3,361,11,X,1,left,0.7589167919941247,1,0,,,,,,,,,,,,,,,,,,,,,1,,,,,,,,,,,,,,,,,,,,,,,,,,,,,,,,,,,,,,,,,,,,,,107,147358,21,Female,1,2024/03/20_14:01:40,YZ,None,
,,,,,,test,1,2,3,361,12,S,1,right,0.4138658129959367,0,0,,,,,,,,,,,,,,,,,,,,,1,,,,,,,,,,,,,,,,,,,,,,,,,,,,,,,,,,,,,,,,,,,,,,107,147358,21,Female,1,2024/03/20_14:01:40,YZ,None,
,,,,,,test,1,2,3,361,13,X,0,right,0.7597950250055874,1,0,,,,,,,,,,,,,,,,,,,,,1,,,,,,,,,,,,,,,,,,,,,,,,,,,,,,,,,,,,,,,,,,,,,,107,147358,21,Female,1,2024/03/20_14:01:40,YZ,None,
,,,,,,test,1,2,3,361,14,V,0,right,nan,0,1,,,,,,,,,,,,,,,,,,,,,1,,,,,,,,,,,,,,,,,,,,,,,,,,,,,,,,,,,,,,,,,,,,,,107,147358,21,Female,1,2024/03/20_14:01:40,YZ,None,
