Instruction,Stimulus,Key,RT,START,END,Phase,Block,TrialN,NbackLevel,ISI,LetterN,Letter,Letter_isSame,Letter_Resp,Letter_RT,Letter_Accuracy,Letter_Timeout,Trial_A_measure,Trial_HR,Trial_FAR,Trial_CDR,Trial_MSR,Trial_ACC,Trial_RT,Trial_HitsCount,Trial_FAsCount,Trial_SameNoRespCount,Trial_DiffNoRespCount,Trial_NoRespCount,Trial_CDsCount,Trial_CorrectRespCount,Trial_SameLetterCount,Trial_DiffLetterCount,Trial_InvalidLetterCount,TrialCountCali,CaliEnd_A_measure,ISI_calibrated,Run,TrialIndex,TrialNumber_total,TrialNumber_valid,CueLearning,TrialDemandLearning,CueMapping,OnlineRating,OnlineRatingRT,OnlineRatingTimeOut,CueSTART,RatingSTART,OfflineRatingTimePoint,OfflineRatingQuesIndex,CueFigure,TrialDemand,OfflineRating,OfflineRatingRT,CueStart,OfflineRatingStart,PhaseType,CueLeft,CueDemandLeft,CueRight,CueDemandRight,Choice,ChoiceDemand,TaskDemand,ChoiceRT,ChoiceTimeOut,ChoiceSTART,CueCheck,CueDemandCheck,CorrectAnswer,Answer,AnswerDemand,AnswerRT,AnswerACC,AnswerTimeOut,CheckSTART,DemandRatingQuesIndex,QuesTLX,DemandLevel,DemandRating,DemandRatingRT,QuesStart,PID,SONA,Age,Gender,Run,TIME,EXPERIMENTER,frameRate,
1,./instructions/inst_begin/Slide2.png,right,16.47944023400123,0.10761651299981168,16.587056747001043,,,,,,,,,,,,,,,,,,,,,,,,,,,,,,,,,1,,,,,,,,,,,,,,,,,,,,,,,,,,,,,,,,,,,,,,,,,,,,,,112,148264,20,Female,1,2024/03/21_15:54:18,YZ,None,
2,./instructions/inst_begin/Slide3.png,right,13.565649085998302,16.61372926200056,30.179378347998863,,,,,,,,,,,,,,,,,,,,,,,,,,,,,,,,,1,,,,,,,,,,,,,,,,,,,,,,,,,,,,,,,,,,,,,,,,,,,,,,112,148264,20,Female,1,2024/03/21_15:54:18,YZ,None,
3,./instructions/inst_begin/Slide4.png,right,8.237340600997413,30.205915547001496,38.44325614799891,,,,,,,,,,,,,,,,,,,,,,,,,,,,,,,,,1,,,,,,,,,,,,,,,,,,,,,,,,,,,,,,,,,,,,,,,,,,,,,,112,148264,20,Female,1,2024/03/21_15:54:18,YZ,None,
1,./instructions/inst_prac_2/Slide6.png,right,23.39069199000005,38.47659817300155,61.8672901630016,,,,,,,,,,,,,,,,,,,,,,,,,,,,,,,,,1,,,,,,,,,,,,,,,,,,,,,,,,,,,,,,,,,,,,,,,,,,,,,,112,148264,20,Female,1,2024/03/21_15:54:18,YZ,None,
2,./instructions/inst_prac_2/Slide7.png,right,20.580236540998158,61.89500179600145,82.47523833699961,,,,,,,,,,,,,,,,,,,,,,,,,,,,,,,,,1,,,,,,,,,,,,,,,,,,,,,,,,,,,,,,,,,,,,,,,,,,,,,,112,148264,20,Female,1,2024/03/21_15:54:18,YZ,None,
3,./instructions/inst_prac_2/Slide8.png,right,20.954701121001563,82.5045938330004,103.45929495400196,,,,,,,,,,,,,,,,,,,,,,,,,,,,,,,,,1,,,,,,,,,,,,,,,,,,,,,,,,,,,,,,,,,,,,,,,,,,,,,,112,148264,20,Female,1,2024/03/21_15:54:18,YZ,None,
4,./instructions/inst_prac_2/Slide9.png,right,4.634808345999772,103.4882941270007,108.12310247300047,,,,,,,,,,,,,,,,,,,,,,,,,,,,,,,,,1,,,,,,,,,,,,,,,,,,,,,,,,,,,,,,,,,,,,,,,,,,,,,,112,148264,20,Female,1,2024/03/21_15:54:18,YZ,None,
5,./instructions/inst_prac_2/Slide10.png,right,3.0111208020025515,108.15202708799916,111.16314789000171,,,,,,,,,,,,,,,,,,,,,,,,,,,,,,,,,1,,,,,,,,,,,,,,,,,,,,,,,,,,,,,,,,,,,,,,,,,,,,,,112,148264,20,Female,1,2024/03/21_15:54:18,YZ,None,
6,./instructions/inst_prac_2/Slide11.png,right,1.2993610829980753,111.19166769900039,112.49102878199847,,,,,,,,,,,,,,,,,,,,,,,,,,,,,,,,,1,,,,,,,,,,,,,,,,,,,,,,,,,,,,,,,,,,,,,,,,,,,,,,112,148264,20,Female,1,2024/03/21_15:54:18,YZ,None,
7,./instructions/inst_prac_2/Slide12.png,right,0.7028516040008981,112.51630152500002,113.21915312900092,,,,,,,,,,,,,,,,,,,,,,,,,,,,,,,,,1,,,,,,,,,,,,,,,,,,,,,,,,,,,,,,,,,,,,,,,,,,,,,,112,148264,20,Female,1,2024/03/21_15:54:18,YZ,None,
8,./instructions/inst_prac_2/Slide13.png,right,1.0031746570020914,113.24793541799954,114.25111007500163,,,,,,,,,,,,,,,,,,,,,,,,,,,,,,,,,1,,,,,,,,,,,,,,,,,,,,,,,,,,,,,,,,,,,,,,,,,,,,,,112,148264,20,Female,1,2024/03/21_15:54:18,YZ,None,
9,./instructions/inst_prac_2/Slide14.png,right,10.531285943001421,114.2798266739992,124.81111261700062,,,,,,,,,,,,,,,,,,,,,,,,,,,,,,,,,1,,,,,,,,,,,,,,,,,,,,,,,,,,,,,,,,,,,,,,,,,,,,,,112,148264,20,Female,1,2024/03/21_15:54:18,YZ,None,
10,./instructions/inst_prac_2/Slide15.png,right,17.978903948998777,124.84028367300198,142.81918762200075,,,,,,,,,,,,,,,,,,,,,,,,,,,,,,,,,1,,,,,,,,,,,,,,,,,,,,,,,,,,,,,,,,,,,,,,,,,,,,,,112,148264,20,Female,1,2024/03/21_15:54:18,YZ,None,
,,,,,,practice,0,31,2,2583,1,J,0,right,3.4192129149996617,1,0,,,,,,,,,,,,,,,,,,,,,1,,,,,,,,,,,,,,,,,,,,,,,,,,,,,,,,,,,,,,,,,,,,,,112,148264,20,Female,1,2024/03/21_15:54:18,YZ,None,
,,,,,,practice,0,31,2,2583,2,S,0,left,3.180452726999647,0,0,,,,,,,,,,,,,,,,,,,,,1,,,,,,,,,,,,,,,,,,,,,,,,,,,,,,,,,,,,,,,,,,,,,,112,148264,20,Female,1,2024/03/21_15:54:18,YZ,None,
,,,,,,practice,0,31,2,2583,3,X,0,left,2.5153132660016126,0,0,,,,,,,,,,,,,,,,,,,,,1,,,,,,,,,,,,,,,,,,,,,,,,,,,,,,,,,,,,,,,,,,,,,,112,148264,20,Female,1,2024/03/21_15:54:18,YZ,None,
,,,,,,practice,0,31,2,2583,4,J,0,left,6.701283147001959,0,0,,,,,,,,,,,,,,,,,,,,,1,,,,,,,,,,,,,,,,,,,,,,,,,,,,,,,,,,,,,,,,,,,,,,112,148264,20,Female,1,2024/03/21_15:54:18,YZ,None,
,,,,,,practice,0,31,2,2583,5,X,1,right,0.7154801769975165,0,0,,,,,,,,,,,,,,,,,,,,,1,,,,,,,,,,,,,,,,,,,,,,,,,,,,,,,,,,,,,,,,,,,,,,112,148264,20,Female,1,2024/03/21_15:54:18,YZ,None,
,,,,,,practice,0,31,2,2583,6,J,1,right,1.7763775499988697,0,0,,,,,,,,,,,,,,,,,,,,,1,,,,,,,,,,,,,,,,,,,,,,,,,,,,,,,,,,,,,,,,,,,,,,112,148264,20,Female,1,2024/03/21_15:54:18,YZ,None,
,,,,,,practice,0,31,2,2583,,,,,,,,0.0625,0.0,0.75,0.25,0.0,0.25,3.051353296999878,0,3,0,0,0,1,1,2,4,0,,,,1,,,,,,,,,,,,,,,,,,,,,,,,,,,,,,,,,,,,,,,,,,,,,,112,148264,20,Female,1,2024/03/21_15:54:18,YZ,None,
1,./instructions/inst_redo_2/Slide18.png,right,18.882626891001564,170.02451116199882,188.90713805300038,,,,,,,,,,,,,,,,,,,,,,,,,,,,,,,,,1,,,,,,,,,,,,,,,,,,,,,,,,,,,,,,,,,,,,,,,,,,,,,,112,148264,20,Female,1,2024/03/21_15:54:18,YZ,None,
,,,,,,practice,0,7,2,2583,1,J,0,right,1.1065095890007797,1,0,,,,,,,,,,,,,,,,,,,,,1,,,,,,,,,,,,,,,,,,,,,,,,,,,,,,,,,,,,,,,,,,,,,,112,148264,20,Female,1,2024/03/21_15:54:18,YZ,None,
,,,,,,practice,0,7,2,2583,2,J,0,left,2.7491696280012548,0,0,,,,,,,,,,,,,,,,,,,,,1,,,,,,,,,,,,,,,,,,,,,,,,,,,,,,,,,,,,,,,,,,,,,,112,148264,20,Female,1,2024/03/21_15:54:18,YZ,None,
,,,,,,practice,0,7,2,2583,3,J,1,left,1.8968083879990445,1,0,,,,,,,,,,,,,,,,,,,,,1,,,,,,,,,,,,,,,,,,,,,,,,,,,,,,,,,,,,,,,,,,,,,,112,148264,20,Female,1,2024/03/21_15:54:18,YZ,None,
,,,,,,practice,0,7,2,2583,4,J,1,left,3.930794275998778,1,0,,,,,,,,,,,,,,,,,,,,,1,,,,,,,,,,,,,,,,,,,,,,,,,,,,,,,,,,,,,,,,,,,,,,112,148264,20,Female,1,2024/03/21_15:54:18,YZ,None,
,,,,,,practice,0,7,2,2583,5,S,0,right,2.4894340699975146,1,0,,,,,,,,,,,,,,,,,,,,,1,,,,,,,,,,,,,,,,,,,,,,,,,,,,,,,,,,,,,,,,,,,,,,112,148264,20,Female,1,2024/03/21_15:54:18,YZ,None,
,,,,,,practice,0,7,2,2583,6,V,0,right,2.50851638200038,1,0,,,,,,,,,,,,,,,,,,,,,1,,,,,,,,,,,,,,,,,,,,,,,,,,,,,,,,,,,,,,,,,,,,,,112,148264,20,Female,1,2024/03/21_15:54:18,YZ,None,
,,,,,,practice,0,7,2,2583,,,,,,,,0.9375,1.0,0.25,0.75,0.0,0.75,2.4468720554996253,2,1,0,0,0,3,5,2,4,0,,,,1,,,,,,,,,,,,,,,,,,,,,,,,,,,,,,,,,,,,,,,,,,,,,,112,148264,20,Female,1,2024/03/21_15:54:18,YZ,None,
1,./instructions/inst_to_cali/Slide20.png,right,6.452094444000977,211.4390271359989,217.8911215799999,,,,,,,,,,,,,,,,,,,,,,,,,,,,,,,,,1,,,,,,,,,,,,,,,,,,,,,,,,,,,,,,,,,,,,,,,,,,,,,,112,148264,20,Female,1,2024/03/21_15:54:18,YZ,None,
1,./instructions/inst_cali/Slide22.png,right,10.5591616290003,217.92400547299985,228.48316710200015,,,,,,,,,,,,,,,,,,,,,,,,,,,,,,,,,1,,,,,,,,,,,,,,,,,,,,,,,,,,,,,,,,,,,,,,,,,,,,,,112,148264,20,Female,1,2024/03/21_15:54:18,YZ,None,
,,,,,,calibration,0,26,2,583,1,C,0,None,nan,0,1,,,,,,,,,,,,,,,,,,,,,1,,,,,,,,,,,,,,,,,,,,,,,,,,,,,,,,,,,,,,,,,,,,,,112,148264,20,Female,1,2024/03/21_15:54:18,YZ,None,
,,,,,,calibration,0,26,2,583,2,J,0,None,nan,0,1,,,,,,,,,,,,,,,,,,,,,1,,,,,,,,,,,,,,,,,,,,,,,,,,,,,,,,,,,,,,,,,,,,,,112,148264,20,Female,1,2024/03/21_15:54:18,YZ,None,
,,,,,,calibration,0,26,2,583,3,Q,0,right,1.2308812579976802,1,0,,,,,,,,,,,,,,,,,,,,,1,,,,,,,,,,,,,,,,,,,,,,,,,,,,,,,,,,,,,,,,,,,,,,112,148264,20,Female,1,2024/03/21_15:54:18,YZ,None,
,,,,,,calibration,0,26,2,583,4,V,0,right,nan,0,1,,,,,,,,,,,,,,,,,,,,,1,,,,,,,,,,,,,,,,,,,,,,,,,,,,,,,,,,,,,,,,,,,,,,112,148264,20,Female,1,2024/03/21_15:54:18,YZ,None,
,,,,,,calibration,0,26,2,583,5,N,0,left,0.993174215000181,0,0,,,,,,,,,,,,,,,,,,,,,1,,,,,,,,,,,,,,,,,,,,,,,,,,,,,,,,,,,,,,,,,,,,,,112,148264,20,Female,1,2024/03/21_15:54:18,YZ,None,
,,,,,,calibration,0,26,2,583,6,V,1,left,1.3386231219992624,1,0,,,,,,,,,,,,,,,,,,,,,1,,,,,,,,,,,,,,,,,,,,,,,,,,,,,,,,,,,,,,,,,,,,,,112,148264,20,Female,1,2024/03/21_15:54:18,YZ,None,
,,,,,,calibration,0,26,2,583,7,N,1,left,1.1978941410015977,1,0,,,,,,,,,,,,,,,,,,,,,1,,,,,,,,,,,,,,,,,,,,,,,,,,,,,,,,,,,,,,,,,,,,,,112,148264,20,Female,1,2024/03/21_15:54:18,YZ,None,
,,,,,,calibration,0,26,2,583,8,J,0,right,1.0981579939980293,1,0,,,,,,,,,,,,,,,,,,,,,1,,,,,,,,,,,,,,,,,,,,,,,,,,,,,,,,,,,,,,,,,,,,,,112,148264,20,Female,1,2024/03/21_15:54:18,YZ,None,
,,,,,,calibration,0,26,2,583,9,N,1,left,0.6972851350001292,1,0,,,,,,,,,,,,,,,,,,,,,1,,,,,,,,,,,,,,,,,,,,,,,,,,,,,,,,,,,,,,,,,,,,,,112,148264,20,Female,1,2024/03/21_15:54:18,YZ,None,
,,,,,,calibration,0,26,2,583,10,C,0,left,nan,0,1,,,,,,,,,,,,,,,,,,,,,1,,,,,,,,,,,,,,,,,,,,,,,,,,,,,,,,,,,,,,,,,,,,,,112,148264,20,Female,1,2024/03/21_15:54:18,YZ,None,
,,,,,,calibration,0,26,2,583,11,J,0,left,nan,0,1,,,,,,,,,,,,,,,,,,,,,1,,,,,,,,,,,,,,,,,,,,,,,,,,,,,,,,,,,,,,,,,,,,,,112,148264,20,Female,1,2024/03/21_15:54:18,YZ,None,
,,,,,,calibration,0,26,2,583,12,X,0,left,nan,0,1,,,,,,,,,,,,,,,,,,,,,1,,,,,,,,,,,,,,,,,,,,,,,,,,,,,,,,,,,,,,,,,,,,,,112,148264,20,Female,1,2024/03/21_15:54:18,YZ,None,
,,,,,,calibration,0,26,2,583,13,Q,0,left,0.4134773350015166,0,0,,,,,,,,,,,,,,,,,,,,,1,,,,,,,,,,,,,,,,,,,,,,,,,,,,,,,,,,,,,,,,,,,,,,112,148264,20,Female,1,2024/03/21_15:54:18,YZ,None,
,,,,,,calibration,0,26,2,583,14,X,1,right,1.1433244820000255,0,0,,,,,,,,,,,,,,,,,,,,,1,,,,,,,,,,,,,,,,,,,,,,,,,,,,,,,,,,,,,,,,,,,,,,112,148264,20,Female,1,2024/03/21_15:54:18,YZ,None,
,,,,,,calibration,0,26,2,583,15,J,0,left,0.7486468530005368,0,0,,,,,,,,,,,,,,,,,,,,,1,,,,,,,,,,,,,,,,,,,,,,,,,,,,,,,,,,,,,,,,,,,,,,112,148264,20,Female,1,2024/03/21_15:54:18,YZ,None,
,,,,,,calibration,0,26,2,583,,,,,,,,0.8011363636363638,0.75,0.2727272727272727,0.4,0.4,0.32727272727272727,0.9846071705554399,3,3,0,6,6,2,5,4,11,0,,,,1,,,,,,,,,,,,,,,,,,,,,,,,,,,,,,,,,,,,,,,,,,,,,,112,148264,20,Female,1,2024/03/21_15:54:18,YZ,None,
,,,,,,Calibration,0,,2,583,,,,,,,,,,,,,,,,,,,,,,,,,1,,,1,,,,,,,,,,,,,,,,,,,,,,,,,,,,,,,,,,,,,,,,,,,,,,112,148264,20,Female,1,2024/03/21_15:54:18,YZ,None,
,,,,,,calibration,0,3,2,583,1,F,0,None,nan,0,1,,,,,,,,,,,,,,,,,,,,,1,,,,,,,,,,,,,,,,,,,,,,,,,,,,,,,,,,,,,,,,,,,,,,112,148264,20,Female,1,2024/03/21_15:54:18,YZ,None,
,,,,,,calibration,0,3,2,583,2,S,0,None,nan,0,1,,,,,,,,,,,,,,,,,,,,,1,,,,,,,,,,,,,,,,,,,,,,,,,,,,,,,,,,,,,,,,,,,,,,112,148264,20,Female,1,2024/03/21_15:54:18,YZ,None,
,,,,,,calibration,0,3,2,583,3,V,0,right,0.354556254002091,1,0,,,,,,,,,,,,,,,,,,,,,1,,,,,,,,,,,,,,,,,,,,,,,,,,,,,,,,,,,,,,,,,,,,,,112,148264,20,Female,1,2024/03/21_15:54:18,YZ,None,
,,,,,,calibration,0,3,2,583,4,S,1,right,nan,0,1,,,,,,,,,,,,,,,,,,,,,1,,,,,,,,,,,,,,,,,,,,,,,,,,,,,,,,,,,,,,,,,,,,,,112,148264,20,Female,1,2024/03/21_15:54:18,YZ,None,
,,,,,,calibration,0,3,2,583,5,F,0,left,0.4096757789993717,0,0,,,,,,,,,,,,,,,,,,,,,1,,,,,,,,,,,,,,,,,,,,,,,,,,,,,,,,,,,,,,,,,,,,,,112,148264,20,Female,1,2024/03/21_15:54:18,YZ,None,
,,,,,,calibration,0,3,2,583,6,C,0,left,nan,0,1,,,,,,,,,,,,,,,,,,,,,1,,,,,,,,,,,,,,,,,,,,,,,,,,,,,,,,,,,,,,,,,,,,,,112,148264,20,Female,1,2024/03/21_15:54:18,YZ,None,
,,,,,,calibration,0,3,2,583,7,Q,0,left,nan,0,1,,,,,,,,,,,,,,,,,,,,,1,,,,,,,,,,,,,,,,,,,,,,,,,,,,,,,,,,,,,,,,,,,,,,112,148264,20,Female,1,2024/03/21_15:54:18,YZ,None,
,,,,,,calibration,0,3,2,583,8,C,1,right,1.024340232997929,0,0,,,,,,,,,,,,,,,,,,,,,1,,,,,,,,,,,,,,,,,,,,,,,,,,,,,,,,,,,,,,,,,,,,,,112,148264,20,Female,1,2024/03/21_15:54:18,YZ,None,
,,,,,,calibration,0,3,2,583,9,V,0,right,nan,0,1,,,,,,,,,,,,,,,,,,,,,1,,,,,,,,,,,,,,,,,,,,,,,,,,,,,,,,,,,,,,,,,,,,,,112,148264,20,Female,1,2024/03/21_15:54:18,YZ,None,
,,,,,,calibration,0,3,2,583,10,C,1,left,0.7809904509995249,1,0,,,,,,,,,,,,,,,,,,,,,1,,,,,,,,,,,,,,,,,,,,,,,,,,,,,,,,,,,,,,,,,,,,,,112,148264,20,Female,1,2024/03/21_15:54:18,YZ,None,
,,,,,,calibration,0,3,2,583,11,V,1,left,0.8077279560020543,1,0,,,,,,,,,,,,,,,,,,,,,1,,,,,,,,,,,,,,,,,,,,,,,,,,,,,,,,,,,,,,,,,,,,,,112,148264,20,Female,1,2024/03/21_15:54:18,YZ,None,
,,,,,,calibration,0,3,2,583,12,J,0,left,nan,0,1,,,,,,,,,,,,,,,,,,,,,1,,,,,,,,,,,,,,,,,,,,,,,,,,,,,,,,,,,,,,,,,,,,,,112,148264,20,Female,1,2024/03/21_15:54:18,YZ,None,
,,,,,,calibration,0,3,2,583,13,Q,0,left,nan,0,1,,,,,,,,,,,,,,,,,,,,,1,,,,,,,,,,,,,,,,,,,,,,,,,,,,,,,,,,,,,,,,,,,,,,112,148264,20,Female,1,2024/03/21_15:54:18,YZ,None,
,,,,,,calibration,0,3,2,583,14,F,0,left,1.2926662339996255,0,0,,,,,,,,,,,,,,,,,,,,,1,,,,,,,,,,,,,,,,,,,,,,,,,,,,,,,,,,,,,,,,,,,,,,112,148264,20,Female,1,2024/03/21_15:54:18,YZ,None,
,,,,,,calibration,0,3,2,583,15,C,0,left,nan,0,1,,,,,,,,,,,,,,,,,,,,,1,,,,,,,,,,,,,,,,,,,,,,,,,,,,,,,,,,,,,,,,,,,,,,112,148264,20,Female,1,2024/03/21_15:54:18,YZ,None,
,,,,,,calibration,0,3,2,583,,,,,,,,0.7386363636363636,0.5,0.18181818181818182,0.3333333333333333,0.6,0.21818181818181814,0.7783261511667661,2,2,1,8,9,1,3,4,11,0,,,,1,,,,,,,,,,,,,,,,,,,,,,,,,,,,,,,,,,,,,,,,,,,,,,112,148264,20,Female,1,2024/03/21_15:54:18,YZ,None,
,,,,,,Calibration,0,,2,583,,,,,,,,,,,,,,,,,,,,,,,,,2,,,1,,,,,,,,,,,,,,,,,,,,,,,,,,,,,,,,,,,,,,,,,,,,,,112,148264,20,Female,1,2024/03/21_15:54:18,YZ,None,
,,,,,,calibration,0,32,2,679,1,N,0,right,0.5700395720014058,1,0,,,,,,,,,,,,,,,,,,,,,1,,,,,,,,,,,,,,,,,,,,,,,,,,,,,,,,,,,,,,,,,,,,,,112,148264,20,Female,1,2024/03/21_15:54:18,YZ,None,
,,,,,,calibration,0,32,2,679,2,N,0,right,nan,0,1,,,,,,,,,,,,,,,,,,,,,1,,,,,,,,,,,,,,,,,,,,,,,,,,,,,,,,,,,,,,,,,,,,,,112,148264,20,Female,1,2024/03/21_15:54:18,YZ,None,
,,,,,,calibration,0,32,2,679,3,C,0,right,nan,0,1,,,,,,,,,,,,,,,,,,,,,1,,,,,,,,,,,,,,,,,,,,,,,,,,,,,,,,,,,,,,,,,,,,,,112,148264,20,Female,1,2024/03/21_15:54:18,YZ,None,
,,,,,,calibration,0,32,2,679,4,N,1,left,0.2789178780003567,1,0,,,,,,,,,,,,,,,,,,,,,1,,,,,,,,,,,,,,,,,,,,,,,,,,,,,,,,,,,,,,,,,,,,,,112,148264,20,Female,1,2024/03/21_15:54:18,YZ,None,
,,,,,,calibration,0,32,2,679,5,F,0,left,nan,0,1,,,,,,,,,,,,,,,,,,,,,1,,,,,,,,,,,,,,,,,,,,,,,,,,,,,,,,,,,,,,,,,,,,,,112,148264,20,Female,1,2024/03/21_15:54:18,YZ,None,
,,,,,,calibration,0,32,2,679,6,N,1,left,0.5583654380025109,1,0,,,,,,,,,,,,,,,,,,,,,1,,,,,,,,,,,,,,,,,,,,,,,,,,,,,,,,,,,,,,,,,,,,,,112,148264,20,Female,1,2024/03/21_15:54:18,YZ,None,
,,,,,,calibration,0,32,2,679,7,F,1,right,0.668781755000964,0,0,,,,,,,,,,,,,,,,,,,,,1,,,,,,,,,,,,,,,,,,,,,,,,,,,,,,,,,,,,,,,,,,,,,,112,148264,20,Female,1,2024/03/21_15:54:18,YZ,None,
,,,,,,calibration,0,32,2,679,8,J,0,right,nan,0,1,,,,,,,,,,,,,,,,,,,,,1,,,,,,,,,,,,,,,,,,,,,,,,,,,,,,,,,,,,,,,,,,,,,,112,148264,20,Female,1,2024/03/21_15:54:18,YZ,None,
,,,,,,calibration,0,32,2,679,9,F,1,left,0.6081493169986061,1,0,,,,,,,,,,,,,,,,,,,,,1,,,,,,,,,,,,,,,,,,,,,,,,,,,,,,,,,,,,,,,,,,,,,,112,148264,20,Female,1,2024/03/21_15:54:18,YZ,None,
,,,,,,calibration,0,32,2,679,10,S,0,left,nan,0,1,,,,,,,,,,,,,,,,,,,,,1,,,,,,,,,,,,,,,,,,,,,,,,,,,,,,,,,,,,,,,,,,,,,,112,148264,20,Female,1,2024/03/21_15:54:18,YZ,None,
,,,,,,calibration,0,32,2,679,11,Q,0,left,nan,0,1,,,,,,,,,,,,,,,,,,,,,1,,,,,,,,,,,,,,,,,,,,,,,,,,,,,,,,,,,,,,,,,,,,,,112,148264,20,Female,1,2024/03/21_15:54:18,YZ,None,
,,,,,,calibration,0,32,2,679,12,F,0,left,0.46260166599677177,0,0,,,,,,,,,,,,,,,,,,,,,1,,,,,,,,,,,,,,,,,,,,,,,,,,,,,,,,,,,,,,,,,,,,,,112,148264,20,Female,1,2024/03/21_15:54:18,YZ,None,
,,,,,,calibration,0,32,2,679,13,V,0,left,nan,0,1,,,,,,,,,,,,,,,,,,,,,1,,,,,,,,,,,,,,,,,,,,,,,,,,,,,,,,,,,,,,,,,,,,,,112,148264,20,Female,1,2024/03/21_15:54:18,YZ,None,
,,,,,,calibration,0,32,2,679,14,J,0,left,nan,0,1,,,,,,,,,,,,,,,,,,,,,1,,,,,,,,,,,,,,,,,,,,,,,,,,,,,,,,,,,,,,,,,,,,,,112,148264,20,Female,1,2024/03/21_15:54:18,YZ,None,
,,,,,,calibration,0,32,2,679,,,,,,,,0.8875,0.75,0.1,0.5,0.5714285714285714,0.3285714285714286,0.5244759376667693,3,1,0,8,8,1,4,4,10,0,,,,1,,,,,,,,,,,,,,,,,,,,,,,,,,,,,,,,,,,,,,,,,,,,,,112,148264,20,Female,1,2024/03/21_15:54:18,YZ,None,
,,,,,,Calibration,0,,2,679,,,,,,,,,,,,,,,,,,,,,,,,,3,,,1,,,,,,,,,,,,,,,,,,,,,,,,,,,,,,,,,,,,,,,,,,,,,,112,148264,20,Female,1,2024/03/21_15:54:18,YZ,None,
,,,,,,calibration,0,23,2,583,1,X,0,None,nan,0,1,,,,,,,,,,,,,,,,,,,,,1,,,,,,,,,,,,,,,,,,,,,,,,,,,,,,,,,,,,,,,,,,,,,,112,148264,20,Female,1,2024/03/21_15:54:18,YZ,None,
,,,,,,calibration,0,23,2,583,2,Q,0,right,0.8699238920016796,1,0,,,,,,,,,,,,,,,,,,,,,1,,,,,,,,,,,,,,,,,,,,,,,,,,,,,,,,,,,,,,,,,,,,,,112,148264,20,Female,1,2024/03/21_15:54:18,YZ,None,
,,,,,,calibration,0,23,2,583,3,S,0,left,0.38495513400266645,0,0,,,,,,,,,,,,,,,,,,,,,1,,,,,,,,,,,,,,,,,,,,,,,,,,,,,,,,,,,,,,,,,,,,,,112,148264,20,Female,1,2024/03/21_15:54:18,YZ,None,
,,,,,,calibration,0,23,2,583,4,F,0,right,1.0526413070001581,1,0,,,,,,,,,,,,,,,,,,,,,1,,,,,,,,,,,,,,,,,,,,,,,,,,,,,,,,,,,,,,,,,,,,,,112,148264,20,Female,1,2024/03/21_15:54:18,YZ,None,
,,,,,,calibration,0,23,2,583,5,Q,0,right,1.0649176010010706,1,0,,,,,,,,,,,,,,,,,,,,,1,,,,,,,,,,,,,,,,,,,,,,,,,,,,,,,,,,,,,,,,,,,,,,112,148264,20,Female,1,2024/03/21_15:54:18,YZ,None,
,,,,,,calibration,0,23,2,583,6,S,0,left,0.6576305429989588,0,0,,,,,,,,,,,,,,,,,,,,,1,,,,,,,,,,,,,,,,,,,,,,,,,,,,,,,,,,,,,,,,,,,,,,112,148264,20,Female,1,2024/03/21_15:54:18,YZ,None,
,,,,,,calibration,0,23,2,583,7,Q,1,right,0.6132740040011413,0,0,,,,,,,,,,,,,,,,,,,,,1,,,,,,,,,,,,,,,,,,,,,,,,,,,,,,,,,,,,,,,,,,,,,,112,148264,20,Female,1,2024/03/21_15:54:18,YZ,None,
,,,,,,calibration,0,23,2,583,8,S,1,left,0.5916685199990752,1,0,,,,,,,,,,,,,,,,,,,,,1,,,,,,,,,,,,,,,,,,,,,,,,,,,,,,,,,,,,,,,,,,,,,,112,148264,20,Female,1,2024/03/21_15:54:18,YZ,None,
,,,,,,calibration,0,23,2,583,9,C,0,left,1.7527672209980665,0,0,,,,,,,,,,,,,,,,,,,,,1,,,,,,,,,,,,,,,,,,,,,,,,,,,,,,,,,,,,,,,,,,,,,,112,148264,20,Female,1,2024/03/21_15:54:18,YZ,None,
,,,,,,calibration,0,23,2,583,10,N,0,left,nan,0,1,,,,,,,,,,,,,,,,,,,,,1,,,,,,,,,,,,,,,,,,,,,,,,,,,,,,,,,,,,,,,,,,,,,,112,148264,20,Female,1,2024/03/21_15:54:18,YZ,None,
,,,,,,calibration,0,23,2,583,11,J,0,left,nan,0,1,,,,,,,,,,,,,,,,,,,,,1,,,,,,,,,,,,,,,,,,,,,,,,,,,,,,,,,,,,,,,,,,,,,,112,148264,20,Female,1,2024/03/21_15:54:18,YZ,None,
,,,,,,calibration,0,23,2,583,12,C,0,left,nan,0,1,,,,,,,,,,,,,,,,,,,,,1,,,,,,,,,,,,,,,,,,,,,,,,,,,,,,,,,,,,,,,,,,,,,,112,148264,20,Female,1,2024/03/21_15:54:18,YZ,None,
,,,,,,calibration,0,23,2,583,13,J,1,left,0.24257429200224578,1,0,,,,,,,,,,,,,,,,,,,,,1,,,,,,,,,,,,,,,,,,,,,,,,,,,,,,,,,,,,,,,,,,,,,,112,148264,20,Female,1,2024/03/21_15:54:18,YZ,None,
,,,,,,calibration,0,23,2,583,14,C,1,right,0.4921741469988774,0,0,,,,,,,,,,,,,,,,,,,,,1,,,,,,,,,,,,,,,,,,,,,,,,,,,,,,,,,,,,,,,,,,,,,,112,148264,20,Female,1,2024/03/21_15:54:18,YZ,None,
,,,,,,calibration,0,23,2,583,15,X,0,left,0.34606538899970474,0,0,,,,,,,,,,,,,,,,,,,,,1,,,,,,,,,,,,,,,,,,,,,,,,,,,,,,,,,,,,,,,,,,,,,,112,148264,20,Female,1,2024/03/21_15:54:18,YZ,None,
,,,,,,calibration,0,23,2,583,,,,,,,,0.6022727272727273,0.5,0.36363636363636365,0.42857142857142855,0.26666666666666666,0.3696969696969697,0.7335083681821495,2,4,0,4,4,3,5,4,11,0,,,,1,,,,,,,,,,,,,,,,,,,,,,,,,,,,,,,,,,,,,,,,,,,,,,112,148264,20,Female,1,2024/03/21_15:54:18,YZ,None,
,,,,,,Calibration,0,,2,583,,,,,,,,,,,,,,,,,,,,,,,,,4,,,1,,,,,,,,,,,,,,,,,,,,,,,,,,,,,,,,,,,,,,,,,,,,,,112,148264,20,Female,1,2024/03/21_15:54:18,YZ,None,
,,,,,,calibration,0,31,2,679,1,C,0,left,0.7168072650019894,0,0,,,,,,,,,,,,,,,,,,,,,1,,,,,,,,,,,,,,,,,,,,,,,,,,,,,,,,,,,,,,,,,,,,,,112,148264,20,Female,1,2024/03/21_15:54:18,YZ,None,
,,,,,,calibration,0,31,2,679,2,Q,0,left,nan,0,1,,,,,,,,,,,,,,,,,,,,,1,,,,,,,,,,,,,,,,,,,,,,,,,,,,,,,,,,,,,,,,,,,,,,112,148264,20,Female,1,2024/03/21_15:54:18,YZ,None,
,,,,,,calibration,0,31,2,679,3,S,0,right,1.0818509630007611,1,0,,,,,,,,,,,,,,,,,,,,,1,,,,,,,,,,,,,,,,,,,,,,,,,,,,,,,,,,,,,,,,,,,,,,112,148264,20,Female,1,2024/03/21_15:54:18,YZ,None,
,,,,,,calibration,0,31,2,679,4,Q,1,left,0.22793817799902172,1,0,,,,,,,,,,,,,,,,,,,,,1,,,,,,,,,,,,,,,,,,,,,,,,,,,,,,,,,,,,,,,,,,,,,,112,148264,20,Female,1,2024/03/21_15:54:18,YZ,None,
,,,,,,calibration,0,31,2,679,5,J,0,left,0.3246626930013008,0,0,,,,,,,,,,,,,,,,,,,,,1,,,,,,,,,,,,,,,,,,,,,,,,,,,,,,,,,,,,,,,,,,,,,,112,148264,20,Female,1,2024/03/21_15:54:18,YZ,None,
,,,,,,calibration,0,31,2,679,6,N,0,right,0.2846875799987174,1,0,,,,,,,,,,,,,,,,,,,,,1,,,,,,,,,,,,,,,,,,,,,,,,,,,,,,,,,,,,,,,,,,,,,,112,148264,20,Female,1,2024/03/21_15:54:18,YZ,None,
,,,,,,calibration,0,31,2,679,7,J,1,right,0.3610797389992513,0,0,,,,,,,,,,,,,,,,,,,,,1,,,,,,,,,,,,,,,,,,,,,,,,,,,,,,,,,,,,,,,,,,,,,,112,148264,20,Female,1,2024/03/21_15:54:18,YZ,None,
,,,,,,calibration,0,31,2,679,8,C,0,right,0.5844515390017477,1,0,,,,,,,,,,,,,,,,,,,,,1,,,,,,,,,,,,,,,,,,,,,,,,,,,,,,,,,,,,,,,,,,,,,,112,148264,20,Female,1,2024/03/21_15:54:18,YZ,None,
,,,,,,calibration,0,31,2,679,9,V,0,right,0.657847808997758,1,0,,,,,,,,,,,,,,,,,,,,,1,,,,,,,,,,,,,,,,,,,,,,,,,,,,,,,,,,,,,,,,,,,,,,112,148264,20,Female,1,2024/03/21_15:54:18,YZ,None,
,,,,,,calibration,0,31,2,679,10,C,1,left,0.05273209100050735,1,0,,,,,,,,,,,,,,,,,,,,,1,,,,,,,,,,,,,,,,,,,,,,,,,,,,,,,,,,,,,,,,,,,,,,112,148264,20,Female,1,2024/03/21_15:54:18,YZ,None,
,,,,,,calibration,0,31,2,679,11,N,0,left,0.2972317669991753,0,0,,,,,,,,,,,,,,,,,,,,,1,,,,,,,,,,,,,,,,,,,,,,,,,,,,,,,,,,,,,,,,,,,,,,112,148264,20,Female,1,2024/03/21_15:54:18,YZ,None,
,,,,,,calibration,0,31,2,679,12,C,1,left,0.4925827430015488,1,0,,,,,,,,,,,,,,,,,,,,,1,,,,,,,,,,,,,,,,,,,,,,,,,,,,,,,,,,,,,,,,,,,,,,112,148264,20,Female,1,2024/03/21_15:54:18,YZ,None,
,,,,,,calibration,0,31,2,679,13,V,0,left,nan,0,1,,,,,,,,,,,,,,,,,,,,,1,,,,,,,,,,,,,,,,,,,,,,,,,,,,,,,,,,,,,,,,,,,,,,112,148264,20,Female,1,2024/03/21_15:54:18,YZ,None,
,,,,,,calibration,0,31,2,679,14,N,0,right,1.0245148469984997,1,0,,,,,,,,,,,,,,,,,,,,,1,,,,,,,,,,,,,,,,,,,,,,,,,,,,,,,,,,,,,,,,,,,,,,112,148264,20,Female,1,2024/03/21_15:54:18,YZ,None,
,,,,,,calibration,0,31,2,679,,,,,,,,0.7875000000000001,0.75,0.3,0.625,0.14285714285714285,0.5571428571428572,0.5088656011666899,3,3,0,2,2,5,8,4,10,0,,,,1,,,,,,,,,,,,,,,,,,,,,,,,,,,,,,,,,,,,,,,,,,,,,,112,148264,20,Female,1,2024/03/21_15:54:18,YZ,None,
,,,,,,Calibration,0,,2,679,,,,,,,,,,,,,,,,,,,,,,,,,5,,,1,,,,,,,,,,,,,,,,,,,,,,,,,,,,,,,,,,,,,,,,,,,,,,112,148264,20,Female,1,2024/03/21_15:54:18,YZ,None,
,,,,,,calibration,0,25,2,679,1,F,0,right,0.642802534999646,1,0,,,,,,,,,,,,,,,,,,,,,1,,,,,,,,,,,,,,,,,,,,,,,,,,,,,,,,,,,,,,,,,,,,,,112,148264,20,Female,1,2024/03/21_15:54:18,YZ,None,
,,,,,,calibration,0,25,2,679,2,V,0,left,0.4121266590009327,0,0,,,,,,,,,,,,,,,,,,,,,1,,,,,,,,,,,,,,,,,,,,,,,,,,,,,,,,,,,,,,,,,,,,,,112,148264,20,Female,1,2024/03/21_15:54:18,YZ,None,
,,,,,,calibration,0,25,2,679,3,F,1,right,0.5401296380005078,0,0,,,,,,,,,,,,,,,,,,,,,1,,,,,,,,,,,,,,,,,,,,,,,,,,,,,,,,,,,,,,,,,,,,,,112,148264,20,Female,1,2024/03/21_15:54:18,YZ,None,
,,,,,,calibration,0,25,2,679,4,C,0,left,0.6246662779994949,0,0,,,,,,,,,,,,,,,,,,,,,1,,,,,,,,,,,,,,,,,,,,,,,,,,,,,,,,,,,,,,,,,,,,,,112,148264,20,Female,1,2024/03/21_15:54:18,YZ,None,
,,,,,,calibration,0,25,2,679,5,V,0,left,0.571109696997155,0,0,,,,,,,,,,,,,,,,,,,,,1,,,,,,,,,,,,,,,,,,,,,,,,,,,,,,,,,,,,,,,,,,,,,,112,148264,20,Female,1,2024/03/21_15:54:18,YZ,None,
,,,,,,calibration,0,25,2,679,6,J,0,left,nan,0,1,,,,,,,,,,,,,,,,,,,,,1,,,,,,,,,,,,,,,,,,,,,,,,,,,,,,,,,,,,,,,,,,,,,,112,148264,20,Female,1,2024/03/21_15:54:18,YZ,None,
,,,,,,calibration,0,25,2,679,7,S,0,left,nan,0,1,,,,,,,,,,,,,,,,,,,,,1,,,,,,,,,,,,,,,,,,,,,,,,,,,,,,,,,,,,,,,,,,,,,,112,148264,20,Female,1,2024/03/21_15:54:18,YZ,None,
,,,,,,calibration,0,25,2,679,8,J,1,left,nan,0,1,,,,,,,,,,,,,,,,,,,,,1,,,,,,,,,,,,,,,,,,,,,,,,,,,,,,,,,,,,,,,,,,,,,,112,148264,20,Female,1,2024/03/21_15:54:18,YZ,None,
,,,,,,calibration,0,25,2,679,9,S,1,left,0.49161268200259656,1,0,,,,,,,,,,,,,,,,,,,,,1,,,,,,,,,,,,,,,,,,,,,,,,,,,,,,,,,,,,,,,,,,,,,,112,148264,20,Female,1,2024/03/21_15:54:18,YZ,None,
,,,,,,calibration,0,25,2,679,10,N,0,right,0.7411909460024617,1,0,,,,,,,,,,,,,,,,,,,,,1,,,,,,,,,,,,,,,,,,,,,,,,,,,,,,,,,,,,,,,,,,,,,,112,148264,20,Female,1,2024/03/21_15:54:18,YZ,None,
,,,,,,calibration,0,25,2,679,11,V,0,right,0.4897691019978083,1,0,,,,,,,,,,,,,,,,,,,,,1,,,,,,,,,,,,,,,,,,,,,,,,,,,,,,,,,,,,,,,,,,,,,,112,148264,20,Female,1,2024/03/21_15:54:18,YZ,None,
,,,,,,calibration,0,25,2,679,12,C,0,left,0.6393486439992557,0,0,,,,,,,,,,,,,,,,,,,,,1,,,,,,,,,,,,,,,,,,,,,,,,,,,,,,,,,,,,,,,,,,,,,,112,148264,20,Female,1,2024/03/21_15:54:18,YZ,None,
,,,,,,calibration,0,25,2,679,13,V,1,left,0.522862729998451,1,0,,,,,,,,,,,,,,,,,,,,,1,,,,,,,,,,,,,,,,,,,,,,,,,,,,,,,,,,,,,,,,,,,,,,112,148264,20,Female,1,2024/03/21_15:54:18,YZ,None,
,,,,,,calibration,0,25,2,679,14,N,0,left,0.5631027639974491,0,0,,,,,,,,,,,,,,,,,,,,,1,,,,,,,,,,,,,,,,,,,,,,,,,,,,,,,,,,,,,,,,,,,,,,112,148264,20,Female,1,2024/03/21_15:54:18,YZ,None,
,,,,,,calibration,0,25,2,679,,,,,,,,0.5,0.5,0.5,0.375,0.21428571428571427,0.2857142857142857,0.5671565159087053,2,5,1,2,3,3,5,4,10,0,,,,1,,,,,,,,,,,,,,,,,,,,,,,,,,,,,,,,,,,,,,,,,,,,,,112,148264,20,Female,1,2024/03/21_15:54:18,YZ,None,
,,,,,,Calibration,0,,2,679,,,,,,,,,,,,,,,,,,,,,,,,,6,,,1,,,,,,,,,,,,,,,,,,,,,,,,,,,,,,,,,,,,,,,,,,,,,,112,148264,20,Female,1,2024/03/21_15:54:18,YZ,None,
,,,,,,calibration,0,27,2,788,1,N,0,right,0.9372093210004095,1,0,,,,,,,,,,,,,,,,,,,,,1,,,,,,,,,,,,,,,,,,,,,,,,,,,,,,,,,,,,,,,,,,,,,,112,148264,20,Female,1,2024/03/21_15:54:18,YZ,None,
,,,,,,calibration,0,27,2,788,2,C,0,right,0.6583183800030383,1,0,,,,,,,,,,,,,,,,,,,,,1,,,,,,,,,,,,,,,,,,,,,,,,,,,,,,,,,,,,,,,,,,,,,,112,148264,20,Female,1,2024/03/21_15:54:18,YZ,None,
,,,,,,calibration,0,27,2,788,3,S,0,right,0.5358272589983244,1,0,,,,,,,,,,,,,,,,,,,,,1,,,,,,,,,,,,,,,,,,,,,,,,,,,,,,,,,,,,,,,,,,,,,,112,148264,20,Female,1,2024/03/21_15:54:18,YZ,None,
,,,,,,calibration,0,27,2,788,4,C,1,left,0.5383908500007237,1,0,,,,,,,,,,,,,,,,,,,,,1,,,,,,,,,,,,,,,,,,,,,,,,,,,,,,,,,,,,,,,,,,,,,,112,148264,20,Female,1,2024/03/21_15:54:18,YZ,None,
,,,,,,calibration,0,27,2,788,5,J,0,right,0.6564804869994987,1,0,,,,,,,,,,,,,,,,,,,,,1,,,,,,,,,,,,,,,,,,,,,,,,,,,,,,,,,,,,,,,,,,,,,,112,148264,20,Female,1,2024/03/21_15:54:18,YZ,None,
,,,,,,calibration,0,27,2,788,6,X,0,left,0.42285210599948186,0,0,,,,,,,,,,,,,,,,,,,,,1,,,,,,,,,,,,,,,,,,,,,,,,,,,,,,,,,,,,,,,,,,,,,,112,148264,20,Female,1,2024/03/21_15:54:18,YZ,None,
,,,,,,calibration,0,27,2,788,7,J,1,left,0.5294947130023502,1,0,,,,,,,,,,,,,,,,,,,,,1,,,,,,,,,,,,,,,,,,,,,,,,,,,,,,,,,,,,,,,,,,,,,,112,148264,20,Female,1,2024/03/21_15:54:18,YZ,None,
,,,,,,calibration,0,27,2,788,8,N,0,left,0.5433849139990343,0,0,,,,,,,,,,,,,,,,,,,,,1,,,,,,,,,,,,,,,,,,,,,,,,,,,,,,,,,,,,,,,,,,,,,,112,148264,20,Female,1,2024/03/21_15:54:18,YZ,None,
,,,,,,calibration,0,27,2,788,9,J,1,left,0.5195214519990259,1,0,,,,,,,,,,,,,,,,,,,,,1,,,,,,,,,,,,,,,,,,,,,,,,,,,,,,,,,,,,,,,,,,,,,,112,148264,20,Female,1,2024/03/21_15:54:18,YZ,None,
,,,,,,calibration,0,27,2,788,10,N,1,left,0.5651406600009068,1,0,,,,,,,,,,,,,,,,,,,,,1,,,,,,,,,,,,,,,,,,,,,,,,,,,,,,,,,,,,,,,,,,,,,,112,148264,20,Female,1,2024/03/21_15:54:18,YZ,None,
,,,,,,calibration,0,27,2,788,11,F,0,right,0.54148826799792,1,0,,,,,,,,,,,,,,,,,,,,,1,,,,,,,,,,,,,,,,,,,,,,,,,,,,,,,,,,,,,,,,,,,,,,112,148264,20,Female,1,2024/03/21_15:54:18,YZ,None,
,,,,,,calibration,0,27,2,788,12,Q,0,right,0.47340386000360013,1,0,,,,,,,,,,,,,,,,,,,,,1,,,,,,,,,,,,,,,,,,,,,,,,,,,,,,,,,,,,,,,,,,,,,,112,148264,20,Female,1,2024/03/21_15:54:18,YZ,None,
,,,,,,calibration,0,27,2,788,13,C,0,right,0.6087782469985541,1,0,,,,,,,,,,,,,,,,,,,,,1,,,,,,,,,,,,,,,,,,,,,,,,,,,,,,,,,,,,,,,,,,,,,,112,148264,20,Female,1,2024/03/21_15:54:18,YZ,None,
,,,,,,calibration,0,27,2,788,,,,,,,,0.9444444444444444,1.0,0.2222222222222222,0.7777777777777778,0.0,0.7777777777777778,0.5792531166925283,4,2,0,0,0,7,11,4,9,0,,,,1,,,,,,,,,,,,,,,,,,,,,,,,,,,,,,,,,,,,,,,,,,,,,,112,148264,20,Female,1,2024/03/21_15:54:18,YZ,None,
,,,,,,Calibration,0,,2,788,,,,,,,,,,,,,,,,,,,,,,,,,7,,,1,,,,,,,,,,,,,,,,,,,,,,,,,,,,,,,,,,,,,,,,,,,,,,112,148264,20,Female,1,2024/03/21_15:54:18,YZ,None,
,,,,,,calibration,0,32,2,679,1,N,0,left,0.5933096129992919,0,0,,,,,,,,,,,,,,,,,,,,,1,,,,,,,,,,,,,,,,,,,,,,,,,,,,,,,,,,,,,,,,,,,,,,112,148264,20,Female,1,2024/03/21_15:54:18,YZ,None,
,,,,,,calibration,0,32,2,679,2,N,0,left,0.5125742060008633,0,0,,,,,,,,,,,,,,,,,,,,,1,,,,,,,,,,,,,,,,,,,,,,,,,,,,,,,,,,,,,,,,,,,,,,112,148264,20,Female,1,2024/03/21_15:54:18,YZ,None,
,,,,,,calibration,0,32,2,679,3,C,0,right,0.5585060349985724,1,0,,,,,,,,,,,,,,,,,,,,,1,,,,,,,,,,,,,,,,,,,,,,,,,,,,,,,,,,,,,,,,,,,,,,112,148264,20,Female,1,2024/03/21_15:54:18,YZ,None,
,,,,,,calibration,0,32,2,679,4,N,1,left,0.3522352289983246,1,0,,,,,,,,,,,,,,,,,,,,,1,,,,,,,,,,,,,,,,,,,,,,,,,,,,,,,,,,,,,,,,,,,,,,112,148264,20,Female,1,2024/03/21_15:54:18,YZ,None,
,,,,,,calibration,0,32,2,679,5,F,0,right,0.6349850070000684,1,0,,,,,,,,,,,,,,,,,,,,,1,,,,,,,,,,,,,,,,,,,,,,,,,,,,,,,,,,,,,,,,,,,,,,112,148264,20,Female,1,2024/03/21_15:54:18,YZ,None,
,,,,,,calibration,0,32,2,679,6,N,1,left,0.46100357300019823,1,0,,,,,,,,,,,,,,,,,,,,,1,,,,,,,,,,,,,,,,,,,,,,,,,,,,,,,,,,,,,,,,,,,,,,112,148264,20,Female,1,2024/03/21_15:54:18,YZ,None,
,,,,,,calibration,0,32,2,679,7,F,1,left,0.6967791480019514,1,0,,,,,,,,,,,,,,,,,,,,,1,,,,,,,,,,,,,,,,,,,,,,,,,,,,,,,,,,,,,,,,,,,,,,112,148264,20,Female,1,2024/03/21_15:54:18,YZ,None,
,,,,,,calibration,0,32,2,679,8,J,0,right,0.47486230799768236,1,0,,,,,,,,,,,,,,,,,,,,,1,,,,,,,,,,,,,,,,,,,,,,,,,,,,,,,,,,,,,,,,,,,,,,112,148264,20,Female,1,2024/03/21_15:54:18,YZ,None,
,,,,,,calibration,0,32,2,679,9,F,1,left,0.4259301409983891,1,0,,,,,,,,,,,,,,,,,,,,,1,,,,,,,,,,,,,,,,,,,,,,,,,,,,,,,,,,,,,,,,,,,,,,112,148264,20,Female,1,2024/03/21_15:54:18,YZ,None,
,,,,,,calibration,0,32,2,679,10,S,0,right,0.4758052149991272,1,0,,,,,,,,,,,,,,,,,,,,,1,,,,,,,,,,,,,,,,,,,,,,,,,,,,,,,,,,,,,,,,,,,,,,112,148264,20,Female,1,2024/03/21_15:54:18,YZ,None,
,,,,,,calibration,0,32,2,679,11,Q,0,right,0.5235957129989401,1,0,,,,,,,,,,,,,,,,,,,,,1,,,,,,,,,,,,,,,,,,,,,,,,,,,,,,,,,,,,,,,,,,,,,,112,148264,20,Female,1,2024/03/21_15:54:18,YZ,None,
,,,,,,calibration,0,32,2,679,12,F,0,right,0.43734980699809967,1,0,,,,,,,,,,,,,,,,,,,,,1,,,,,,,,,,,,,,,,,,,,,,,,,,,,,,,,,,,,,,,,,,,,,,112,148264,20,Female,1,2024/03/21_15:54:18,YZ,None,
,,,,,,calibration,0,32,2,679,13,V,0,right,0.47278002399980323,1,0,,,,,,,,,,,,,,,,,,,,,1,,,,,,,,,,,,,,,,,,,,,,,,,,,,,,,,,,,,,,,,,,,,,,112,148264,20,Female,1,2024/03/21_15:54:18,YZ,None,
,,,,,,calibration,0,32,2,679,14,J,0,right,0.4321847360006359,1,0,,,,,,,,,,,,,,,,,,,,,1,,,,,,,,,,,,,,,,,,,,,,,,,,,,,,,,,,,,,,,,,,,,,,112,148264,20,Female,1,2024/03/21_15:54:18,YZ,None,
,,,,,,calibration,0,32,2,679,,,,,,,,0.95,1.0,0.2,0.8,0.0,0.8,0.5037071967851391,4,2,0,0,0,8,12,4,10,0,,,,1,,,,,,,,,,,,,,,,,,,,,,,,,,,,,,,,,,,,,,,,,,,,,,112,148264,20,Female,1,2024/03/21_15:54:18,YZ,None,
,,,,,,Calibration,0,,2,679,,,,,,,,,,,,,,,,,,,,,,,,,8,,,1,,,,,,,,,,,,,,,,,,,,,,,,,,,,,,,,,,,,,,,,,,,,,,112,148264,20,Female,1,2024/03/21_15:54:18,YZ,None,
,,,,,,calibration,0,22,2,583,1,F,0,right,0.6311383400025079,1,0,,,,,,,,,,,,,,,,,,,,,1,,,,,,,,,,,,,,,,,,,,,,,,,,,,,,,,,,,,,,,,,,,,,,112,148264,20,Female,1,2024/03/21_15:54:18,YZ,None,
,,,,,,calibration,0,22,2,583,2,F,0,right,0.7088406829971063,1,0,,,,,,,,,,,,,,,,,,,,,1,,,,,,,,,,,,,,,,,,,,,,,,,,,,,,,,,,,,,,,,,,,,,,112,148264,20,Female,1,2024/03/21_15:54:18,YZ,None,
,,,,,,calibration,0,22,2,583,3,F,1,left,0.3692649460026587,1,0,,,,,,,,,,,,,,,,,,,,,1,,,,,,,,,,,,,,,,,,,,,,,,,,,,,,,,,,,,,,,,,,,,,,112,148264,20,Female,1,2024/03/21_15:54:18,YZ,None,
,,,,,,calibration,0,22,2,583,4,F,1,left,0.4693911560025299,1,0,,,,,,,,,,,,,,,,,,,,,1,,,,,,,,,,,,,,,,,,,,,,,,,,,,,,,,,,,,,,,,,,,,,,112,148264,20,Female,1,2024/03/21_15:54:18,YZ,None,
,,,,,,calibration,0,22,2,583,5,X,0,right,0.46383750599852647,1,0,,,,,,,,,,,,,,,,,,,,,1,,,,,,,,,,,,,,,,,,,,,,,,,,,,,,,,,,,,,,,,,,,,,,112,148264,20,Female,1,2024/03/21_15:54:18,YZ,None,
,,,,,,calibration,0,22,2,583,6,F,1,left,0.457855724998808,1,0,,,,,,,,,,,,,,,,,,,,,1,,,,,,,,,,,,,,,,,,,,,,,,,,,,,,,,,,,,,,,,,,,,,,112,148264,20,Female,1,2024/03/21_15:54:18,YZ,None,
,,,,,,calibration,0,22,2,583,7,N,0,right,0.4100843599990185,1,0,,,,,,,,,,,,,,,,,,,,,1,,,,,,,,,,,,,,,,,,,,,,,,,,,,,,,,,,,,,,,,,,,,,,112,148264,20,Female,1,2024/03/21_15:54:18,YZ,None,
,,,,,,calibration,0,22,2,583,8,S,0,right,0.6313213479988917,1,0,,,,,,,,,,,,,,,,,,,,,1,,,,,,,,,,,,,,,,,,,,,,,,,,,,,,,,,,,,,,,,,,,,,,112,148264,20,Female,1,2024/03/21_15:54:18,YZ,None,
,,,,,,calibration,0,22,2,583,9,X,0,left,0.42938041299930774,0,0,,,,,,,,,,,,,,,,,,,,,1,,,,,,,,,,,,,,,,,,,,,,,,,,,,,,,,,,,,,,,,,,,,,,112,148264,20,Female,1,2024/03/21_15:54:18,YZ,None,
,,,,,,calibration,0,22,2,583,10,S,1,left,0.5260081300002639,1,0,,,,,,,,,,,,,,,,,,,,,1,,,,,,,,,,,,,,,,,,,,,,,,,,,,,,,,,,,,,,,,,,,,,,112,148264,20,Female,1,2024/03/21_15:54:18,YZ,None,
,,,,,,calibration,0,22,2,583,11,X,1,left,0.4752074399984849,1,0,,,,,,,,,,,,,,,,,,,,,1,,,,,,,,,,,,,,,,,,,,,,,,,,,,,,,,,,,,,,,,,,,,,,112,148264,20,Female,1,2024/03/21_15:54:18,YZ,None,
,,,,,,calibration,0,22,2,583,12,J,0,right,0.47339573499994003,1,0,,,,,,,,,,,,,,,,,,,,,1,,,,,,,,,,,,,,,,,,,,,,,,,,,,,,,,,,,,,,,,,,,,,,112,148264,20,Female,1,2024/03/21_15:54:18,YZ,None,
,,,,,,calibration,0,22,2,583,13,N,0,right,1.3423112080017745,1,0,,,,,,,,,,,,,,,,,,,,,1,,,,,,,,,,,,,,,,,,,,,,,,,,,,,,,,,,,,,,,,,,,,,,112,148264,20,Female,1,2024/03/21_15:54:18,YZ,None,
,,,,,,calibration,0,22,2,583,14,X,0,right,nan,0,1,,,,,,,,,,,,,,,,,,,,,1,,,,,,,,,,,,,,,,,,,,,,,,,,,,,,,,,,,,,,,,,,,,,,112,148264,20,Female,1,2024/03/21_15:54:18,YZ,None,
,,,,,,calibration,0,22,2,583,15,J,0,left,0.7480733299998974,0,0,,,,,,,,,,,,,,,,,,,,,1,,,,,,,,,,,,,,,,,,,,,,,,,,,,,,,,,,,,,,,,,,,,,,112,148264,20,Female,1,2024/03/21_15:54:18,YZ,None,
,,,,,,calibration,0,22,2,583,,,,,,,,0.95,1.0,0.2,0.7777777777777778,0.06666666666666667,0.7333333333333334,0.5811507371428368,5,2,0,1,1,7,12,5,10,0,,,,1,,,,,,,,,,,,,,,,,,,,,,,,,,,,,,,,,,,,,,,,,,,,,,112,148264,20,Female,1,2024/03/21_15:54:18,YZ,None,
,,,,,,Calibration,0,,2,583,,,,,,,,,,,,,,,,,,,,,,,,,9,,,1,,,,,,,,,,,,,,,,,,,,,,,,,,,,,,,,,,,,,,,,,,,,,,112,148264,20,Female,1,2024/03/21_15:54:18,YZ,None,
,,,,,,calibration,0,35,2,500,1,X,0,right,0.702781520998542,1,0,,,,,,,,,,,,,,,,,,,,,1,,,,,,,,,,,,,,,,,,,,,,,,,,,,,,,,,,,,,,,,,,,,,,112,148264,20,Female,1,2024/03/21_15:54:18,YZ,None,
,,,,,,calibration,0,35,2,500,2,N,0,right,0.5249810200002685,1,0,,,,,,,,,,,,,,,,,,,,,1,,,,,,,,,,,,,,,,,,,,,,,,,,,,,,,,,,,,,,,,,,,,,,112,148264,20,Female,1,2024/03/21_15:54:18,YZ,None,
,,,,,,calibration,0,35,2,500,3,C,0,right,0.5236792119976599,1,0,,,,,,,,,,,,,,,,,,,,,1,,,,,,,,,,,,,,,,,,,,,,,,,,,,,,,,,,,,,,,,,,,,,,112,148264,20,Female,1,2024/03/21_15:54:18,YZ,None,
,,,,,,calibration,0,35,2,500,4,N,1,left,0.5265629669993359,1,0,,,,,,,,,,,,,,,,,,,,,1,,,,,,,,,,,,,,,,,,,,,,,,,,,,,,,,,,,,,,,,,,,,,,112,148264,20,Female,1,2024/03/21_15:54:18,YZ,None,
,,,,,,calibration,0,35,2,500,5,S,0,right,0.5406137399986619,1,0,,,,,,,,,,,,,,,,,,,,,1,,,,,,,,,,,,,,,,,,,,,,,,,,,,,,,,,,,,,,,,,,,,,,112,148264,20,Female,1,2024/03/21_15:54:18,YZ,None,
,,,,,,calibration,0,35,2,500,6,C,0,left,0.690450394002255,0,0,,,,,,,,,,,,,,,,,,,,,1,,,,,,,,,,,,,,,,,,,,,,,,,,,,,,,,,,,,,,,,,,,,,,112,148264,20,Female,1,2024/03/21_15:54:18,YZ,None,
,,,,,,calibration,0,35,2,500,7,N,0,left,0.4336679450025258,0,0,,,,,,,,,,,,,,,,,,,,,1,,,,,,,,,,,,,,,,,,,,,,,,,,,,,,,,,,,,,,,,,,,,,,112,148264,20,Female,1,2024/03/21_15:54:18,YZ,None,
,,,,,,calibration,0,35,2,500,8,C,1,left,0.5300448519992642,1,0,,,,,,,,,,,,,,,,,,,,,1,,,,,,,,,,,,,,,,,,,,,,,,,,,,,,,,,,,,,,,,,,,,,,112,148264,20,Female,1,2024/03/21_15:54:18,YZ,None,
,,,,,,calibration,0,35,2,500,9,Q,0,right,0.4189597490003507,1,0,,,,,,,,,,,,,,,,,,,,,1,,,,,,,,,,,,,,,,,,,,,,,,,,,,,,,,,,,,,,,,,,,,,,112,148264,20,Female,1,2024/03/21_15:54:18,YZ,None,
,,,,,,calibration,0,35,2,500,10,C,1,left,0.6477187070013315,1,0,,,,,,,,,,,,,,,,,,,,,1,,,,,,,,,,,,,,,,,,,,,,,,,,,,,,,,,,,,,,,,,,,,,,112,148264,20,Female,1,2024/03/21_15:54:18,YZ,None,
,,,,,,calibration,0,35,2,500,11,N,0,left,0.5243768010004715,0,0,,,,,,,,,,,,,,,,,,,,,1,,,,,,,,,,,,,,,,,,,,,,,,,,,,,,,,,,,,,,,,,,,,,,112,148264,20,Female,1,2024/03/21_15:54:18,YZ,None,
,,,,,,calibration,0,35,2,500,12,C,1,right,0.4751437029990484,0,0,,,,,,,,,,,,,,,,,,,,,1,,,,,,,,,,,,,,,,,,,,,,,,,,,,,,,,,,,,,,,,,,,,,,112,148264,20,Female,1,2024/03/21_15:54:18,YZ,None,
,,,,,,calibration,0,35,2,500,13,N,1,left,0.4765167730001849,1,0,,,,,,,,,,,,,,,,,,,,,1,,,,,,,,,,,,,,,,,,,,,,,,,,,,,,,,,,,,,,,,,,,,,,112,148264,20,Female,1,2024/03/21_15:54:18,YZ,None,
,,,,,,calibration,0,35,2,500,14,V,0,right,0.6468757740003639,1,0,,,,,,,,,,,,,,,,,,,,,1,,,,,,,,,,,,,,,,,,,,,,,,,,,,,,,,,,,,,,,,,,,,,,112,148264,20,Female,1,2024/03/21_15:54:18,YZ,None,
,,,,,,calibration,0,35,2,500,15,J,0,right,0.5902139970021381,1,0,,,,,,,,,,,,,,,,,,,,,1,,,,,,,,,,,,,,,,,,,,,,,,,,,,,,,,,,,,,,,,,,,,,,112,148264,20,Female,1,2024/03/21_15:54:18,YZ,None,
,,,,,,calibration,0,35,2,500,16,S,0,right,0.5240083420030714,1,0,,,,,,,,,,,,,,,,,,,,,1,,,,,,,,,,,,,,,,,,,,,,,,,,,,,,,,,,,,,,,,,,,,,,112,148264,20,Female,1,2024/03/21_15:54:18,YZ,None,
,,,,,,calibration,0,35,2,500,,,,,,,,0.8272727272727273,0.8,0.2727272727272727,0.7272727272727273,0.0,0.7272727272727273,0.5485372185628421,4,3,0,0,0,8,12,5,11,0,,,,1,,,,,,,,,,,,,,,,,,,,,,,,,,,,,,,,,,,,,,,,,,,,,,112,148264,20,Female,1,2024/03/21_15:54:18,YZ,None,
,,,,,,Calibration,0,,2,500,,,,,,,,,,,,,,,,,,,,,,,,,10,,,1,,,,,,,,,,,,,,,,,,,,,,,,,,,,,,,,,,,,,,,,,,,,,,112,148264,20,Female,1,2024/03/21_15:54:18,YZ,None,
,,,,,,calibration,0,2,2,500,1,N,0,right,0.44504783699812833,1,0,,,,,,,,,,,,,,,,,,,,,1,,,,,,,,,,,,,,,,,,,,,,,,,,,,,,,,,,,,,,,,,,,,,,112,148264,20,Female,1,2024/03/21_15:54:18,YZ,None,
,,,,,,calibration,0,2,2,500,2,V,0,right,0.4366671719981241,1,0,,,,,,,,,,,,,,,,,,,,,1,,,,,,,,,,,,,,,,,,,,,,,,,,,,,,,,,,,,,,,,,,,,,,112,148264,20,Female,1,2024/03/21_15:54:18,YZ,None,
,,,,,,calibration,0,2,2,500,3,S,0,right,0.524884757000109,1,0,,,,,,,,,,,,,,,,,,,,,1,,,,,,,,,,,,,,,,,,,,,,,,,,,,,,,,,,,,,,,,,,,,,,112,148264,20,Female,1,2024/03/21_15:54:18,YZ,None,
,,,,,,calibration,0,2,2,500,4,F,0,right,0.490864995001175,1,0,,,,,,,,,,,,,,,,,,,,,1,,,,,,,,,,,,,,,,,,,,,,,,,,,,,,,,,,,,,,,,,,,,,,112,148264,20,Female,1,2024/03/21_15:54:18,YZ,None,
,,,,,,calibration,0,2,2,500,5,X,0,right,0.5426230910015875,1,0,,,,,,,,,,,,,,,,,,,,,1,,,,,,,,,,,,,,,,,,,,,,,,,,,,,,,,,,,,,,,,,,,,,,112,148264,20,Female,1,2024/03/21_15:54:18,YZ,None,
,,,,,,calibration,0,2,2,500,6,F,1,left,0.5204941529991629,1,0,,,,,,,,,,,,,,,,,,,,,1,,,,,,,,,,,,,,,,,,,,,,,,,,,,,,,,,,,,,,,,,,,,,,112,148264,20,Female,1,2024/03/21_15:54:18,YZ,None,
,,,,,,calibration,0,2,2,500,7,X,1,right,0.46978452800249215,0,0,,,,,,,,,,,,,,,,,,,,,1,,,,,,,,,,,,,,,,,,,,,,,,,,,,,,,,,,,,,,,,,,,,,,112,148264,20,Female,1,2024/03/21_15:54:18,YZ,None,
,,,,,,calibration,0,2,2,500,8,N,0,left,0.4721039709984325,0,0,,,,,,,,,,,,,,,,,,,,,1,,,,,,,,,,,,,,,,,,,,,,,,,,,,,,,,,,,,,,,,,,,,,,112,148264,20,Female,1,2024/03/21_15:54:18,YZ,None,
,,,,,,calibration,0,2,2,500,9,X,1,left,0.4873443610013055,1,0,,,,,,,,,,,,,,,,,,,,,1,,,,,,,,,,,,,,,,,,,,,,,,,,,,,,,,,,,,,,,,,,,,,,112,148264,20,Female,1,2024/03/21_15:54:18,YZ,None,
,,,,,,calibration,0,2,2,500,10,V,0,right,0.39309764599966,1,0,,,,,,,,,,,,,,,,,,,,,1,,,,,,,,,,,,,,,,,,,,,,,,,,,,,,,,,,,,,,,,,,,,,,112,148264,20,Female,1,2024/03/21_15:54:18,YZ,None,
,,,,,,calibration,0,2,2,500,11,J,0,right,0.6111376269982429,1,0,,,,,,,,,,,,,,,,,,,,,1,,,,,,,,,,,,,,,,,,,,,,,,,,,,,,,,,,,,,,,,,,,,,,112,148264,20,Female,1,2024/03/21_15:54:18,YZ,None,
,,,,,,calibration,0,2,2,500,12,F,0,left,0.4205752189991472,0,0,,,,,,,,,,,,,,,,,,,,,1,,,,,,,,,,,,,,,,,,,,,,,,,,,,,,,,,,,,,,,,,,,,,,112,148264,20,Female,1,2024/03/21_15:54:18,YZ,None,
,,,,,,calibration,0,2,2,500,13,S,0,right,0.4232175629986159,1,0,,,,,,,,,,,,,,,,,,,,,1,,,,,,,,,,,,,,,,,,,,,,,,,,,,,,,,,,,,,,,,,,,,,,112,148264,20,Female,1,2024/03/21_15:54:18,YZ,None,
,,,,,,calibration,0,2,2,500,14,F,1,right,0.5916424450006161,0,0,,,,,,,,,,,,,,,,,,,,,1,,,,,,,,,,,,,,,,,,,,,,,,,,,,,,,,,,,,,,,,,,,,,,112,148264,20,Female,1,2024/03/21_15:54:18,YZ,None,
,,,,,,calibration,0,2,2,500,15,V,0,left,0.5358108510008606,0,0,,,,,,,,,,,,,,,,,,,,,1,,,,,,,,,,,,,,,,,,,,,,,,,,,,,,,,,,,,,,,,,,,,,,112,148264,20,Female,1,2024/03/21_15:54:18,YZ,None,
,,,,,,calibration,0,2,2,500,16,N,0,left,0.4136286770008155,0,0,,,,,,,,,,,,,,,,,,,,,1,,,,,,,,,,,,,,,,,,,,,,,,,,,,,,,,,,,,,,,,,,,,,,112,148264,20,Female,1,2024/03/21_15:54:18,YZ,None,
,,,,,,calibration,0,2,2,500,,,,,,,,0.625,0.5,0.3333333333333333,0.6666666666666666,0.0,0.6666666666666667,0.4861828058124047,2,4,0,0,0,8,10,4,12,0,,,,1,,,,,,,,,,,,,,,,,,,,,,,,,,,,,,,,,,,,,,,,,,,,,,112,148264,20,Female,1,2024/03/21_15:54:18,YZ,None,
,,,,,,Calibration,0,,2,500,,,,,,,,,,,,,,,,,,,,,,,,,11,,,1,,,,,,,,,,,,,,,,,,,,,,,,,,,,,,,,,,,,,,,,,,,,,,112,148264,20,Female,1,2024/03/21_15:54:18,YZ,None,
,,,,,,calibration,0,4,2,583,1,F,0,right,0.44315346499934094,1,0,,,,,,,,,,,,,,,,,,,,,1,,,,,,,,,,,,,,,,,,,,,,,,,,,,,,,,,,,,,,,,,,,,,,112,148264,20,Female,1,2024/03/21_15:54:18,YZ,None,
,,,,,,calibration,0,4,2,583,2,N,0,right,0.5246180499998445,1,0,,,,,,,,,,,,,,,,,,,,,1,,,,,,,,,,,,,,,,,,,,,,,,,,,,,,,,,,,,,,,,,,,,,,112,148264,20,Female,1,2024/03/21_15:54:18,YZ,None,
,,,,,,calibration,0,4,2,583,3,S,0,right,0.49601847699887003,1,0,,,,,,,,,,,,,,,,,,,,,1,,,,,,,,,,,,,,,,,,,,,,,,,,,,,,,,,,,,,,,,,,,,,,112,148264,20,Female,1,2024/03/21_15:54:18,YZ,None,
,,,,,,calibration,0,4,2,583,4,N,1,right,0.3244254139972327,0,0,,,,,,,,,,,,,,,,,,,,,1,,,,,,,,,,,,,,,,,,,,,,,,,,,,,,,,,,,,,,,,,,,,,,112,148264,20,Female,1,2024/03/21_15:54:18,YZ,None,
,,,,,,calibration,0,4,2,583,5,C,0,right,0.4201205419994949,1,0,,,,,,,,,,,,,,,,,,,,,1,,,,,,,,,,,,,,,,,,,,,,,,,,,,,,,,,,,,,,,,,,,,,,112,148264,20,Female,1,2024/03/21_15:54:18,YZ,None,
,,,,,,calibration,0,4,2,583,6,N,1,left,0.40761894100069185,1,0,,,,,,,,,,,,,,,,,,,,,1,,,,,,,,,,,,,,,,,,,,,,,,,,,,,,,,,,,,,,,,,,,,,,112,148264,20,Female,1,2024/03/21_15:54:18,YZ,None,
,,,,,,calibration,0,4,2,583,7,S,0,right,0.5124183429979894,1,0,,,,,,,,,,,,,,,,,,,,,1,,,,,,,,,,,,,,,,,,,,,,,,,,,,,,,,,,,,,,,,,,,,,,112,148264,20,Female,1,2024/03/21_15:54:18,YZ,None,
,,,,,,calibration,0,4,2,583,8,V,0,right,0.7822843890025979,1,0,,,,,,,,,,,,,,,,,,,,,1,,,,,,,,,,,,,,,,,,,,,,,,,,,,,,,,,,,,,,,,,,,,,,112,148264,20,Female,1,2024/03/21_15:54:18,YZ,None,
,,,,,,calibration,0,4,2,583,9,Q,0,right,0.4559708810011216,1,0,,,,,,,,,,,,,,,,,,,,,1,,,,,,,,,,,,,,,,,,,,,,,,,,,,,,,,,,,,,,,,,,,,,,112,148264,20,Female,1,2024/03/21_15:54:18,YZ,None,
,,,,,,calibration,0,4,2,583,10,V,1,left,0.5246061099969666,1,0,,,,,,,,,,,,,,,,,,,,,1,,,,,,,,,,,,,,,,,,,,,,,,,,,,,,,,,,,,,,,,,,,,,,112,148264,20,Female,1,2024/03/21_15:54:18,YZ,None,
,,,,,,calibration,0,4,2,583,11,S,0,right,0.46868382100001327,1,0,,,,,,,,,,,,,,,,,,,,,1,,,,,,,,,,,,,,,,,,,,,,,,,,,,,,,,,,,,,,,,,,,,,,112,148264,20,Female,1,2024/03/21_15:54:18,YZ,None,
,,,,,,calibration,0,4,2,583,12,Q,0,left,0.3215112420002697,0,0,,,,,,,,,,,,,,,,,,,,,1,,,,,,,,,,,,,,,,,,,,,,,,,,,,,,,,,,,,,,,,,,,,,,112,148264,20,Female,1,2024/03/21_15:54:18,YZ,None,
,,,,,,calibration,0,4,2,583,13,X,0,left,0.3697846609975386,0,0,,,,,,,,,,,,,,,,,,,,,1,,,,,,,,,,,,,,,,,,,,,,,,,,,,,,,,,,,,,,,,,,,,,,112,148264,20,Female,1,2024/03/21_15:54:18,YZ,None,
,,,,,,calibration,0,4,2,583,14,Q,1,left,0.47226099700128543,1,0,,,,,,,,,,,,,,,,,,,,,1,,,,,,,,,,,,,,,,,,,,,,,,,,,,,,,,,,,,,,,,,,,,,,112,148264,20,Female,1,2024/03/21_15:54:18,YZ,None,
,,,,,,calibration,0,4,2,583,15,S,0,right,0.5121212280027976,1,0,,,,,,,,,,,,,,,,,,,,,1,,,,,,,,,,,,,,,,,,,,,,,,,,,,,,,,,,,,,,,,,,,,,,112,148264,20,Female,1,2024/03/21_15:54:18,YZ,None,
,,,,,,calibration,0,4,2,583,,,,,,,,0.8465909090909092,0.75,0.18181818181818182,0.8181818181818182,0.0,0.8181818181818181,0.46903977073307035,3,2,0,0,0,9,12,4,11,0,,,,1,,,,,,,,,,,,,,,,,,,,,,,,,,,,,,,,,,,,,,,,,,,,,,112,148264,20,Female,1,2024/03/21_15:54:18,YZ,None,
,,,,,,Calibration,0,,2,583,,,,,,,,,,,,,,,,,,,,,,,,,12,,,1,,,,,,,,,,,,,,,,,,,,,,,,,,,,,,,,,,,,,,,,,,,,,,112,148264,20,Female,1,2024/03/21_15:54:18,YZ,None,
,,,,,,calibration,0,5,2,583,1,V,0,right,0.6669732359987393,1,0,,,,,,,,,,,,,,,,,,,,,1,,,,,,,,,,,,,,,,,,,,,,,,,,,,,,,,,,,,,,,,,,,,,,112,148264,20,Female,1,2024/03/21_15:54:18,YZ,None,
,,,,,,calibration,0,5,2,583,2,S,0,right,0.40444427499824087,1,0,,,,,,,,,,,,,,,,,,,,,1,,,,,,,,,,,,,,,,,,,,,,,,,,,,,,,,,,,,,,,,,,,,,,112,148264,20,Female,1,2024/03/21_15:54:18,YZ,None,
,,,,,,calibration,0,5,2,583,3,V,1,left,0.3004255079977156,1,0,,,,,,,,,,,,,,,,,,,,,1,,,,,,,,,,,,,,,,,,,,,,,,,,,,,,,,,,,,,,,,,,,,,,112,148264,20,Female,1,2024/03/21_15:54:18,YZ,None,
,,,,,,calibration,0,5,2,583,4,X,0,right,0.5368571399994835,1,0,,,,,,,,,,,,,,,,,,,,,1,,,,,,,,,,,,,,,,,,,,,,,,,,,,,,,,,,,,,,,,,,,,,,112,148264,20,Female,1,2024/03/21_15:54:18,YZ,None,
,,,,,,calibration,0,5,2,583,5,J,0,left,0.3187067830003798,0,0,,,,,,,,,,,,,,,,,,,,,1,,,,,,,,,,,,,,,,,,,,,,,,,,,,,,,,,,,,,,,,,,,,,,112,148264,20,Female,1,2024/03/21_15:54:18,YZ,None,
,,,,,,calibration,0,5,2,583,6,X,1,left,0.4327127929973358,1,0,,,,,,,,,,,,,,,,,,,,,1,,,,,,,,,,,,,,,,,,,,,,,,,,,,,,,,,,,,,,,,,,,,,,112,148264,20,Female,1,2024/03/21_15:54:18,YZ,None,
,,,,,,calibration,0,5,2,583,7,Q,0,left,0.37997629399978905,0,0,,,,,,,,,,,,,,,,,,,,,1,,,,,,,,,,,,,,,,,,,,,,,,,,,,,,,,,,,,,,,,,,,,,,112,148264,20,Female,1,2024/03/21_15:54:18,YZ,None,
,,,,,,calibration,0,5,2,583,8,X,1,left,0.28195581399995717,1,0,,,,,,,,,,,,,,,,,,,,,1,,,,,,,,,,,,,,,,,,,,,,,,,,,,,,,,,,,,,,,,,,,,,,112,148264,20,Female,1,2024/03/21_15:54:18,YZ,None,
,,,,,,calibration,0,5,2,583,9,C,0,left,0.3531274199995096,0,0,,,,,,,,,,,,,,,,,,,,,1,,,,,,,,,,,,,,,,,,,,,,,,,,,,,,,,,,,,,,,,,,,,,,112,148264,20,Female,1,2024/03/21_15:54:18,YZ,None,
,,,,,,calibration,0,5,2,583,10,X,1,left,0.4487368029986101,1,0,,,,,,,,,,,,,,,,,,,,,1,,,,,,,,,,,,,,,,,,,,,,,,,,,,,,,,,,,,,,,,,,,,,,112,148264,20,Female,1,2024/03/21_15:54:18,YZ,None,
,,,,,,calibration,0,5,2,583,11,C,1,left,0.3729689200008579,1,0,,,,,,,,,,,,,,,,,,,,,1,,,,,,,,,,,,,,,,,,,,,,,,,,,,,,,,,,,,,,,,,,,,,,112,148264,20,Female,1,2024/03/21_15:54:18,YZ,None,
,,,,,,calibration,0,5,2,583,12,Q,0,right,0.46368141600032686,1,0,,,,,,,,,,,,,,,,,,,,,1,,,,,,,,,,,,,,,,,,,,,,,,,,,,,,,,,,,,,,,,,,,,,,112,148264,20,Female,1,2024/03/21_15:54:18,YZ,None,
,,,,,,calibration,0,5,2,583,13,J,0,right,0.5729114400019171,1,0,,,,,,,,,,,,,,,,,,,,,1,,,,,,,,,,,,,,,,,,,,,,,,,,,,,,,,,,,,,,,,,,,,,,112,148264,20,Female,1,2024/03/21_15:54:18,YZ,None,
,,,,,,calibration,0,5,2,583,14,S,0,right,0.3999330900005589,1,0,,,,,,,,,,,,,,,,,,,,,1,,,,,,,,,,,,,,,,,,,,,,,,,,,,,,,,,,,,,,,,,,,,,,112,148264,20,Female,1,2024/03/21_15:54:18,YZ,None,
,,,,,,calibration,0,5,2,583,15,Q,0,left,0.5336162150015298,0,0,,,,,,,,,,,,,,,,,,,,,1,,,,,,,,,,,,,,,,,,,,,,,,,,,,,,,,,,,,,,,,,,,,,,112,148264,20,Female,1,2024/03/21_15:54:18,YZ,None,
,,,,,,calibration,0,5,2,583,,,,,,,,0.9,1.0,0.4,0.6,0.0,0.6,0.4311351431329967,5,4,0,0,0,6,11,5,10,0,,,,1,,,,,,,,,,,,,,,,,,,,,,,,,,,,,,,,,,,,,,,,,,,,,,112,148264,20,Female,1,2024/03/21_15:54:18,YZ,None,
,,,,,,Calibration,0,,2,583,,,,,,,,,,,,,,,,,,,,,,,,,13,,,1,,,,,,,,,,,,,,,,,,,,,,,,,,,,,,,,,,,,,,,,,,,,,,112,148264,20,Female,1,2024/03/21_15:54:18,YZ,None,
,,,,,,calibration,0,14,2,500,1,Q,0,right,0.41536012000142364,1,0,,,,,,,,,,,,,,,,,,,,,1,,,,,,,,,,,,,,,,,,,,,,,,,,,,,,,,,,,,,,,,,,,,,,112,148264,20,Female,1,2024/03/21_15:54:18,YZ,None,
,,,,,,calibration,0,14,2,500,2,C,0,right,0.49355231700246804,1,0,,,,,,,,,,,,,,,,,,,,,1,,,,,,,,,,,,,,,,,,,,,,,,,,,,,,,,,,,,,,,,,,,,,,112,148264,20,Female,1,2024/03/21_15:54:18,YZ,None,
,,,,,,calibration,0,14,2,500,3,F,0,right,0.4577930980012752,1,0,,,,,,,,,,,,,,,,,,,,,1,,,,,,,,,,,,,,,,,,,,,,,,,,,,,,,,,,,,,,,,,,,,,,112,148264,20,Female,1,2024/03/21_15:54:18,YZ,None,
,,,,,,calibration,0,14,2,500,4,C,1,right,0.2903117120004026,0,0,,,,,,,,,,,,,,,,,,,,,1,,,,,,,,,,,,,,,,,,,,,,,,,,,,,,,,,,,,,,,,,,,,,,112,148264,20,Female,1,2024/03/21_15:54:18,YZ,None,
,,,,,,calibration,0,14,2,500,5,N,0,left,0.6583836979989428,0,0,,,,,,,,,,,,,,,,,,,,,1,,,,,,,,,,,,,,,,,,,,,,,,,,,,,,,,,,,,,,,,,,,,,,112,148264,20,Female,1,2024/03/21_15:54:18,YZ,None,
,,,,,,calibration,0,14,2,500,6,J,0,right,0.3585700799994811,1,0,,,,,,,,,,,,,,,,,,,,,1,,,,,,,,,,,,,,,,,,,,,,,,,,,,,,,,,,,,,,,,,,,,,,112,148264,20,Female,1,2024/03/21_15:54:18,YZ,None,
,,,,,,calibration,0,14,2,500,7,N,1,left,0.37265748899881146,1,0,,,,,,,,,,,,,,,,,,,,,1,,,,,,,,,,,,,,,,,,,,,,,,,,,,,,,,,,,,,,,,,,,,,,112,148264,20,Female,1,2024/03/21_15:54:18,YZ,None,
,,,,,,calibration,0,14,2,500,8,S,0,right,0.4404976619989611,1,0,,,,,,,,,,,,,,,,,,,,,1,,,,,,,,,,,,,,,,,,,,,,,,,,,,,,,,,,,,,,,,,,,,,,112,148264,20,Female,1,2024/03/21_15:54:18,YZ,None,
,,,,,,calibration,0,14,2,500,9,X,0,right,0.4979276150006626,1,0,,,,,,,,,,,,,,,,,,,,,1,,,,,,,,,,,,,,,,,,,,,,,,,,,,,,,,,,,,,,,,,,,,,,112,148264,20,Female,1,2024/03/21_15:54:18,YZ,None,
,,,,,,calibration,0,14,2,500,10,J,0,right,0.4595446829989669,1,0,,,,,,,,,,,,,,,,,,,,,1,,,,,,,,,,,,,,,,,,,,,,,,,,,,,,,,,,,,,,,,,,,,,,112,148264,20,Female,1,2024/03/21_15:54:18,YZ,None,
,,,,,,calibration,0,14,2,500,11,F,0,right,0.9194283819997509,1,0,,,,,,,,,,,,,,,,,,,,,1,,,,,,,,,,,,,,,,,,,,,,,,,,,,,,,,,,,,,,,,,,,,,,112,148264,20,Female,1,2024/03/21_15:54:18,YZ,None,
,,,,,,calibration,0,14,2,500,12,J,1,right,0.7222215459987638,0,0,,,,,,,,,,,,,,,,,,,,,1,,,,,,,,,,,,,,,,,,,,,,,,,,,,,,,,,,,,,,,,,,,,,,112,148264,20,Female,1,2024/03/21_15:54:18,YZ,None,
,,,,,,calibration,0,14,2,500,13,S,0,right,0.3913504410011228,1,0,,,,,,,,,,,,,,,,,,,,,1,,,,,,,,,,,,,,,,,,,,,,,,,,,,,,,,,,,,,,,,,,,,,,112,148264,20,Female,1,2024/03/21_15:54:18,YZ,None,
,,,,,,calibration,0,14,2,500,14,V,0,right,0.632485160997021,1,0,,,,,,,,,,,,,,,,,,,,,1,,,,,,,,,,,,,,,,,,,,,,,,,,,,,,,,,,,,,,,,,,,,,,112,148264,20,Female,1,2024/03/21_15:54:18,YZ,None,
,,,,,,calibration,0,14,2,500,15,S,1,right,0.3005824860010762,0,0,,,,,,,,,,,,,,,,,,,,,1,,,,,,,,,,,,,,,,,,,,,,,,,,,,,,,,,,,,,,,,,,,,,,112,148264,20,Female,1,2024/03/21_15:54:18,YZ,None,
,,,,,,calibration,0,14,2,500,16,C,0,right,0.5162185570006841,1,0,,,,,,,,,,,,,,,,,,,,,1,,,,,,,,,,,,,,,,,,,,,,,,,,,,,,,,,,,,,,,,,,,,,,112,148264,20,Female,1,2024/03/21_15:54:18,YZ,None,
,,,,,,calibration,0,14,2,500,,,,,,,,0.7083333333333333,0.25,0.08333333333333333,0.9166666666666666,0.0,0.9166666666666666,0.4954303154374884,1,1,0,0,0,11,12,4,12,0,,,,1,,,,,,,,,,,,,,,,,,,,,,,,,,,,,,,,,,,,,,,,,,,,,,112,148264,20,Female,1,2024/03/21_15:54:18,YZ,None,
,,,,,,Calibration,0,,2,500,,,,,,,,,,,,,,,,,,,,,,,,,14,,,1,,,,,,,,,,,,,,,,,,,,,,,,,,,,,,,,,,,,,,,,,,,,,,112,148264,20,Female,1,2024/03/21_15:54:18,YZ,None,
,,,,,,calibration,0,13,2,583,1,C,0,right,0.429591137002717,1,0,,,,,,,,,,,,,,,,,,,,,1,,,,,,,,,,,,,,,,,,,,,,,,,,,,,,,,,,,,,,,,,,,,,,112,148264,20,Female,1,2024/03/21_15:54:18,YZ,None,
,,,,,,calibration,0,13,2,583,2,S,0,right,0.529765449999104,1,0,,,,,,,,,,,,,,,,,,,,,1,,,,,,,,,,,,,,,,,,,,,,,,,,,,,,,,,,,,,,,,,,,,,,112,148264,20,Female,1,2024/03/21_15:54:18,YZ,None,
,,,,,,calibration,0,13,2,583,3,Q,0,right,0.5805306089969235,1,0,,,,,,,,,,,,,,,,,,,,,1,,,,,,,,,,,,,,,,,,,,,,,,,,,,,,,,,,,,,,,,,,,,,,112,148264,20,Female,1,2024/03/21_15:54:18,YZ,None,
,,,,,,calibration,0,13,2,583,4,F,0,right,0.46496966700215125,1,0,,,,,,,,,,,,,,,,,,,,,1,,,,,,,,,,,,,,,,,,,,,,,,,,,,,,,,,,,,,,,,,,,,,,112,148264,20,Female,1,2024/03/21_15:54:18,YZ,None,
,,,,,,calibration,0,13,2,583,5,Q,1,left,0.4257399289999739,1,0,,,,,,,,,,,,,,,,,,,,,1,,,,,,,,,,,,,,,,,,,,,,,,,,,,,,,,,,,,,,,,,,,,,,112,148264,20,Female,1,2024/03/21_15:54:18,YZ,None,
,,,,,,calibration,0,13,2,583,6,X,0,right,0.3684975639989716,1,0,,,,,,,,,,,,,,,,,,,,,1,,,,,,,,,,,,,,,,,,,,,,,,,,,,,,,,,,,,,,,,,,,,,,112,148264,20,Female,1,2024/03/21_15:54:18,YZ,None,
,,,,,,calibration,0,13,2,583,7,Q,1,right,0.34937598199758213,0,0,,,,,,,,,,,,,,,,,,,,,1,,,,,,,,,,,,,,,,,,,,,,,,,,,,,,,,,,,,,,,,,,,,,,112,148264,20,Female,1,2024/03/21_15:54:18,YZ,None,
,,,,,,calibration,0,13,2,583,8,C,0,right,0.488245818996802,1,0,,,,,,,,,,,,,,,,,,,,,1,,,,,,,,,,,,,,,,,,,,,,,,,,,,,,,,,,,,,,,,,,,,,,112,148264,20,Female,1,2024/03/21_15:54:18,YZ,None,
,,,,,,calibration,0,13,2,583,9,Q,1,left,0.6061159490018326,1,0,,,,,,,,,,,,,,,,,,,,,1,,,,,,,,,,,,,,,,,,,,,,,,,,,,,,,,,,,,,,,,,,,,,,112,148264,20,Female,1,2024/03/21_15:54:18,YZ,None,
,,,,,,calibration,0,13,2,583,10,X,0,right,0.2583112210013496,1,0,,,,,,,,,,,,,,,,,,,,,1,,,,,,,,,,,,,,,,,,,,,,,,,,,,,,,,,,,,,,,,,,,,,,112,148264,20,Female,1,2024/03/21_15:54:18,YZ,None,
,,,,,,calibration,0,13,2,583,11,C,0,left,0.523685830001341,0,0,,,,,,,,,,,,,,,,,,,,,1,,,,,,,,,,,,,,,,,,,,,,,,,,,,,,,,,,,,,,,,,,,,,,112,148264,20,Female,1,2024/03/21_15:54:18,YZ,None,
,,,,,,calibration,0,13,2,583,12,X,1,right,0.2362388830006239,0,0,,,,,,,,,,,,,,,,,,,,,1,,,,,,,,,,,,,,,,,,,,,,,,,,,,,,,,,,,,,,,,,,,,,,112,148264,20,Female,1,2024/03/21_15:54:18,YZ,None,
,,,,,,calibration,0,13,2,583,13,N,0,left,0.2974758780001139,0,0,,,,,,,,,,,,,,,,,,,,,1,,,,,,,,,,,,,,,,,,,,,,,,,,,,,,,,,,,,,,,,,,,,,,112,148264,20,Female,1,2024/03/21_15:54:18,YZ,None,
,,,,,,calibration,0,13,2,583,14,X,1,left,0.538377548000426,1,0,,,,,,,,,,,,,,,,,,,,,1,,,,,,,,,,,,,,,,,,,,,,,,,,,,,,,,,,,,,,,,,,,,,,112,148264,20,Female,1,2024/03/21_15:54:18,YZ,None,
,,,,,,calibration,0,13,2,583,15,V,0,right,0.4580285720003303,1,0,,,,,,,,,,,,,,,,,,,,,1,,,,,,,,,,,,,,,,,,,,,,,,,,,,,,,,,,,,,,,,,,,,,,112,148264,20,Female,1,2024/03/21_15:54:18,YZ,None,
,,,,,,calibration,0,13,2,583,,,,,,,,0.77,0.6,0.2,0.8,0.0,0.8,0.4369966692000162,3,2,0,0,0,8,11,5,10,0,,,,1,,,,,,,,,,,,,,,,,,,,,,,,,,,,,,,,,,,,,,,,,,,,,,112,148264,20,Female,1,2024/03/21_15:54:18,YZ,None,
,,,,,,Calibration,0,,2,583,,,,,,,,,,,,,,,,,,,,,,,,,15,,,1,,,,,,,,,,,,,,,,,,,,,,,,,,,,,,,,,,,,,,,,,,,,,,112,148264,20,Female,1,2024/03/21_15:54:18,YZ,None,
,,,,,,CALIBRATION,0,,,,,,,,,,,,,,,,,,,,,,,,,,,,15,0.77,583,1,,,,,,,,,,,,,,,,,,,,,,,,,,,,,,,,,,,,,,,,,,,,,,112,148264,20,Female,1,2024/03/21_15:54:18,YZ,None,
1,./instructions/inst_prac_1/Slide24.png,right,10.301442445001157,556.4697275760009,566.771170021002,,,,,,,,,,,,,,,,,,,,,,,,,,,,,,,,,1,,,,,,,,,,,,,,,,,,,,,,,,,,,,,,,,,,,,,,,,,,,,,,112,148264,20,Female,1,2024/03/21_15:54:18,YZ,None,
2,./instructions/inst_prac_1/Slide25.png,right,3.6619285499982652,566.7971971350016,570.4591256849999,,,,,,,,,,,,,,,,,,,,,,,,,,,,,,,,,1,,,,,,,,,,,,,,,,,,,,,,,,,,,,,,,,,,,,,,,,,,,,,,112,148264,20,Female,1,2024/03/21_15:54:18,YZ,None,
3,./instructions/inst_prac_1/Slide26.png,right,2.4390240699976857,570.4840181930012,572.9230422629989,,,,,,,,,,,,,,,,,,,,,,,,,,,,,,,,,1,,,,,,,,,,,,,,,,,,,,,,,,,,,,,,,,,,,,,,,,,,,,,,112,148264,20,Female,1,2024/03/21_15:54:18,YZ,None,
4,./instructions/inst_prac_1/Slide27.png,right,0.5807954260017141,572.9502678499994,573.5310632760011,,,,,,,,,,,,,,,,,,,,,,,,,,,,,,,,,1,,,,,,,,,,,,,,,,,,,,,,,,,,,,,,,,,,,,,,,,,,,,,,112,148264,20,Female,1,2024/03/21_15:54:18,YZ,None,
5,./instructions/inst_prac_1/Slide28.png,right,0.4674852149983053,573.5595851370017,574.027070352,,,,,,,,,,,,,,,,,,,,,,,,,,,,,,,,,1,,,,,,,,,,,,,,,,,,,,,,,,,,,,,,,,,,,,,,,,,,,,,,112,148264,20,Female,1,2024/03/21_15:54:18,YZ,None,
6,./instructions/inst_prac_1/Slide29.png,right,4.766696585000318,574.0525096689998,578.8192062540002,,,,,,,,,,,,,,,,,,,,,,,,,,,,,,,,,1,,,,,,,,,,,,,,,,,,,,,,,,,,,,,,,,,,,,,,,,,,,,,,112,148264,20,Female,1,2024/03/21_15:54:18,YZ,None,
7,./instructions/inst_prac_1/Slide30.png,right,1.5930405590006558,578.8501104259994,580.4431509850001,,,,,,,,,,,,,,,,,,,,,,,,,,,,,,,,,1,,,,,,,,,,,,,,,,,,,,,,,,,,,,,,,,,,,,,,,,,,,,,,112,148264,20,Female,1,2024/03/21_15:54:18,YZ,None,
,,,,,,practice,0,8,1,1250,1,F,0,left,2.4679069029989478,0,0,,,,,,,,,,,,,,,,,,,,,1,,,,,,,,,,,,,,,,,,,,,,,,,,,,,,,,,,,,,,,,,,,,,,112,148264,20,Female,1,2024/03/21_15:54:18,YZ,None,
,,,,,,practice,0,8,1,1250,2,J,0,right,11.623751929000719,1,0,,,,,,,,,,,,,,,,,,,,,1,,,,,,,,,,,,,,,,,,,,,,,,,,,,,,,,,,,,,,,,,,,,,,112,148264,20,Female,1,2024/03/21_15:54:18,YZ,None,
,,,,,,practice,0,8,1,1250,3,J,1,left,3.3874426430011226,1,0,,,,,,,,,,,,,,,,,,,,,1,,,,,,,,,,,,,,,,,,,,,,,,,,,,,,,,,,,,,,,,,,,,,,112,148264,20,Female,1,2024/03/21_15:54:18,YZ,None,
,,,,,,practice,0,8,1,1250,4,X,0,right,3.6599691400006122,1,0,,,,,,,,,,,,,,,,,,,,,1,,,,,,,,,,,,,,,,,,,,,,,,,,,,,,,,,,,,,,,,,,,,,,112,148264,20,Female,1,2024/03/21_15:54:18,YZ,None,
,,,,,,practice,0,8,1,1250,5,X,1,left,1.2930369899986545,1,0,,,,,,,,,,,,,,,,,,,,,1,,,,,,,,,,,,,,,,,,,,,,,,,,,,,,,,,,,,,,,,,,,,,,112,148264,20,Female,1,2024/03/21_15:54:18,YZ,None,
,,,,,,practice,0,8,1,1250,6,S,0,right,12.41764111899829,1,0,,,,,,,,,,,,,,,,,,,,,1,,,,,,,,,,,,,,,,,,,,,,,,,,,,,,,,,,,,,,,,,,,,,,112,148264,20,Female,1,2024/03/21_15:54:18,YZ,None,
,,,,,,practice,0,8,1,1250,7,V,0,right,1.2721617089991923,1,0,,,,,,,,,,,,,,,,,,,,,1,,,,,,,,,,,,,,,,,,,,,,,,,,,,,,,,,,,,,,,,,,,,,,112,148264,20,Female,1,2024/03/21_15:54:18,YZ,None,
,,,,,,practice,0,8,1,1250,8,N,0,right,0.6619950570020592,1,0,,,,,,,,,,,,,,,,,,,,,1,,,,,,,,,,,,,,,,,,,,,,,,,,,,,,,,,,,,,,,,,,,,,,112,148264,20,Female,1,2024/03/21_15:54:18,YZ,None,
,,,,,,practice,0,8,1,1250,9,N,1,left,0.5007167020012275,1,0,,,,,,,,,,,,,,,,,,,,,1,,,,,,,,,,,,,,,,,,,,,,,,,,,,,,,,,,,,,,,,,,,,,,112,148264,20,Female,1,2024/03/21_15:54:18,YZ,None,
,,,,,,practice,0,8,1,1250,10,V,0,right,0.6131700299993099,1,0,,,,,,,,,,,,,,,,,,,,,1,,,,,,,,,,,,,,,,,,,,,,,,,,,,,,,,,,,,,,,,,,,,,,112,148264,20,Female,1,2024/03/21_15:54:18,YZ,None,
,,,,,,practice,0,8,1,1250,,,,,,,,0.9642857142857143,1.0,0.14285714285714285,0.8571428571428571,0.0,0.8571428571428572,3.7897792222000133,3,1,0,0,0,6,9,3,7,0,,,,1,,,,,,,,,,,,,,,,,,,,,,,,,,,,,,,,,,,,,,,,,,,,,,112,148264,20,Female,1,2024/03/21_15:54:18,YZ,None,
1,./instructions/inst_prac_1_next/Slide35.png,right,1.0328937109989056,629.3862255280001,630.419119238999,,,,,,,,,,,,,,,,,,,,,,,,,,,,,,,,,1,,,,,,,,,,,,,,,,,,,,,,,,,,,,,,,,,,,,,,,,,,,,,,112,148264,20,Female,1,2024/03/21_15:54:18,YZ,None,
,,,,,,practice,0,2,1,583,1,F,0,left,0.8069090690005396,0,0,,,,,,,,,,,,,,,,,,,,,1,,,,,,,,,,,,,,,,,,,,,,,,,,,,,,,,,,,,,,,,,,,,,,112,148264,20,Female,1,2024/03/21_15:54:18,YZ,None,
,,,,,,practice,0,2,1,583,2,F,1,right,1.1934834150015377,0,0,,,,,,,,,,,,,,,,,,,,,1,,,,,,,,,,,,,,,,,,,,,,,,,,,,,,,,,,,,,,,,,,,,,,112,148264,20,Female,1,2024/03/21_15:54:18,YZ,None,
,,,,,,practice,0,2,1,583,3,Q,0,left,1.6926737940011662,0,0,,,,,,,,,,,,,,,,,,,,,1,,,,,,,,,,,,,,,,,,,,,,,,,,,,,,,,,,,,,,,,,,,,,,112,148264,20,Female,1,2024/03/21_15:54:18,YZ,None,
,,,,,,practice,0,2,1,583,4,C,0,left,0.7405034250004974,0,0,,,,,,,,,,,,,,,,,,,,,1,,,,,,,,,,,,,,,,,,,,,,,,,,,,,,,,,,,,,,,,,,,,,,112,148264,20,Female,1,2024/03/21_15:54:18,YZ,None,
,,,,,,practice,0,2,1,583,5,J,0,left,0.5197013520009932,0,0,,,,,,,,,,,,,,,,,,,,,1,,,,,,,,,,,,,,,,,,,,,,,,,,,,,,,,,,,,,,,,,,,,,,112,148264,20,Female,1,2024/03/21_15:54:18,YZ,None,
,,,,,,practice,0,2,1,583,6,N,0,left,0.44955107900022995,0,0,,,,,,,,,,,,,,,,,,,,,1,,,,,,,,,,,,,,,,,,,,,,,,,,,,,,,,,,,,,,,,,,,,,,112,148264,20,Female,1,2024/03/21_15:54:18,YZ,None,
,,,,,,practice,0,2,1,583,7,N,1,right,0.5122835920010402,0,0,,,,,,,,,,,,,,,,,,,,,1,,,,,,,,,,,,,,,,,,,,,,,,,,,,,,,,,,,,,,,,,,,,,,112,148264,20,Female,1,2024/03/21_15:54:18,YZ,None,
,,,,,,practice,0,2,1,583,8,F,0,left,0.5876029170030961,0,0,,,,,,,,,,,,,,,,,,,,,1,,,,,,,,,,,,,,,,,,,,,,,,,,,,,,,,,,,,,,,,,,,,,,112,148264,20,Female,1,2024/03/21_15:54:18,YZ,None,
,,,,,,practice,0,2,1,583,9,J,0,left,0.5204550130001735,0,0,,,,,,,,,,,,,,,,,,,,,1,,,,,,,,,,,,,,,,,,,,,,,,,,,,,,,,,,,,,,,,,,,,,,112,148264,20,Female,1,2024/03/21_15:54:18,YZ,None,
,,,,,,practice,0,2,1,583,10,J,1,right,0.6879548750002868,0,0,,,,,,,,,,,,,,,,,,,,,1,,,,,,,,,,,,,,,,,,,,,,,,,,,,,,,,,,,,,,,,,,,,,,112,148264,20,Female,1,2024/03/21_15:54:18,YZ,None,
,,,,,,practice,0,2,1,583,11,C,0,left,0.5856093020011031,0,0,,,,,,,,,,,,,,,,,,,,,1,,,,,,,,,,,,,,,,,,,,,,,,,,,,,,,,,,,,,,,,,,,,,,112,148264,20,Female,1,2024/03/21_15:54:18,YZ,None,
,,,,,,practice,0,2,1,583,12,C,1,right,0.40452276399810216,0,0,,,,,,,,,,,,,,,,,,,,,1,,,,,,,,,,,,,,,,,,,,,,,,,,,,,,,,,,,,,,,,,,,,,,112,148264,20,Female,1,2024/03/21_15:54:18,YZ,None,
,,,,,,practice,0,2,1,583,13,X,0,left,0.559663718999218,0,0,,,,,,,,,,,,,,,,,,,,,1,,,,,,,,,,,,,,,,,,,,,,,,,,,,,,,,,,,,,,,,,,,,,,112,148264,20,Female,1,2024/03/21_15:54:18,YZ,None,
,,,,,,practice,0,2,1,583,14,X,1,right,0.4252135070018994,0,0,,,,,,,,,,,,,,,,,,,,,1,,,,,,,,,,,,,,,,,,,,,,,,,,,,,,,,,,,,,,,,,,,,,,112,148264,20,Female,1,2024/03/21_15:54:18,YZ,None,
,,,,,,practice,0,2,1,583,15,S,0,left,0.40216055099881487,0,0,,,,,,,,,,,,,,,,,,,,,1,,,,,,,,,,,,,,,,,,,,,,,,,,,,,,,,,,,,,,,,,,,,,,112,148264,20,Female,1,2024/03/21_15:54:18,YZ,None,
,,,,,,practice,0,2,1,583,,,,,,,,0.0,0.0,1.0,0.0,0.0,0.0,0.6725525582672466,0,10,0,0,0,0,0,5,10,0,,,,1,,,,,,,,,,,,,,,,,,,,,,,,,,,,,,,,,,,,,,,,,,,,,,112,148264,20,Female,1,2024/03/21_15:54:18,YZ,None,
,,,,,,practice,0,35,1,583,1,Q,0,right,11.828967110999656,1,0,,,,,,,,,,,,,,,,,,,,,1,,,,,,,,,,,,,,,,,,,,,,,,,,,,,,,,,,,,,,,,,,,,,,112,148264,20,Female,1,2024/03/21_15:54:18,YZ,None,
,,,,,,practice,0,35,1,583,2,N,0,right,1.1123996269998315,1,0,,,,,,,,,,,,,,,,,,,,,1,,,,,,,,,,,,,,,,,,,,,,,,,,,,,,,,,,,,,,,,,,,,,,112,148264,20,Female,1,2024/03/21_15:54:18,YZ,None,
,,,,,,practice,0,35,1,583,3,N,1,left,1.1353073350001068,1,0,,,,,,,,,,,,,,,,,,,,,1,,,,,,,,,,,,,,,,,,,,,,,,,,,,,,,,,,,,,,,,,,,,,,112,148264,20,Female,1,2024/03/21_15:54:18,YZ,None,
,,,,,,practice,0,35,1,583,4,V,0,right,0.49664942800154677,1,0,,,,,,,,,,,,,,,,,,,,,1,,,,,,,,,,,,,,,,,,,,,,,,,,,,,,,,,,,,,,,,,,,,,,112,148264,20,Female,1,2024/03/21_15:54:18,YZ,None,
,,,,,,practice,0,35,1,583,5,S,0,right,0.9452697809974779,1,0,,,,,,,,,,,,,,,,,,,,,1,,,,,,,,,,,,,,,,,,,,,,,,,,,,,,,,,,,,,,,,,,,,,,112,148264,20,Female,1,2024/03/21_15:54:18,YZ,None,
,,,,,,practice,0,35,1,583,6,F,0,right,0.8876582769989909,1,0,,,,,,,,,,,,,,,,,,,,,1,,,,,,,,,,,,,,,,,,,,,,,,,,,,,,,,,,,,,,,,,,,,,,112,148264,20,Female,1,2024/03/21_15:54:18,YZ,None,
,,,,,,practice,0,35,1,583,7,C,0,right,0.6955919949978124,1,0,,,,,,,,,,,,,,,,,,,,,1,,,,,,,,,,,,,,,,,,,,,,,,,,,,,,,,,,,,,,,,,,,,,,112,148264,20,Female,1,2024/03/21_15:54:18,YZ,None,
,,,,,,practice,0,35,1,583,8,V,0,right,0.6893094170009135,1,0,,,,,,,,,,,,,,,,,,,,,1,,,,,,,,,,,,,,,,,,,,,,,,,,,,,,,,,,,,,,,,,,,,,,112,148264,20,Female,1,2024/03/21_15:54:18,YZ,None,
,,,,,,practice,0,35,1,583,9,C,0,right,0.57591137000054,1,0,,,,,,,,,,,,,,,,,,,,,1,,,,,,,,,,,,,,,,,,,,,,,,,,,,,,,,,,,,,,,,,,,,,,112,148264,20,Female,1,2024/03/21_15:54:18,YZ,None,
,,,,,,practice,0,35,1,583,10,C,1,left,0.4449446729995543,1,0,,,,,,,,,,,,,,,,,,,,,1,,,,,,,,,,,,,,,,,,,,,,,,,,,,,,,,,,,,,,,,,,,,,,112,148264,20,Female,1,2024/03/21_15:54:18,YZ,None,
,,,,,,practice,0,35,1,583,11,J,0,right,0.36426649399800226,1,0,,,,,,,,,,,,,,,,,,,,,1,,,,,,,,,,,,,,,,,,,,,,,,,,,,,,,,,,,,,,,,,,,,,,112,148264,20,Female,1,2024/03/21_15:54:18,YZ,None,
,,,,,,practice,0,35,1,583,12,J,1,left,0.4607830089989875,1,0,,,,,,,,,,,,,,,,,,,,,1,,,,,,,,,,,,,,,,,,,,,,,,,,,,,,,,,,,,,,,,,,,,,,112,148264,20,Female,1,2024/03/21_15:54:18,YZ,None,
,,,,,,practice,0,35,1,583,13,C,0,right,0.8190530419997231,1,0,,,,,,,,,,,,,,,,,,,,,1,,,,,,,,,,,,,,,,,,,,,,,,,,,,,,,,,,,,,,,,,,,,,,112,148264,20,Female,1,2024/03/21_15:54:18,YZ,None,
,,,,,,practice,0,35,1,583,14,C,1,left,1.0086897039982432,1,0,,,,,,,,,,,,,,,,,,,,,1,,,,,,,,,,,,,,,,,,,,,,,,,,,,,,,,,,,,,,,,,,,,,,112,148264,20,Female,1,2024/03/21_15:54:18,YZ,None,
,,,,,,practice,0,35,1,583,15,V,0,right,0.804705432998162,1,0,,,,,,,,,,,,,,,,,,,,,1,,,,,,,,,,,,,,,,,,,,,,,,,,,,,,,,,,,,,,,,,,,,,,112,148264,20,Female,1,2024/03/21_15:54:18,YZ,None,
,,,,,,practice,0,35,1,583,,,,,,,,1.0,1.0,0.0,1.0,0.0,1.0,1.4846337797326365,4,0,0,0,0,11,15,4,11,0,,,,1,,,,,,,,,,,,,,,,,,,,,,,,,,,,,,,,,,,,,,,,,,,,,,112,148264,20,Female,1,2024/03/21_15:54:18,YZ,None,
1,./instructions/inst_prac_3/Slide37.png,right,2.7130972980012302,682.6260695009987,685.3391667989999,,,,,,,,,,,,,,,,,,,,,,,,,,,,,,,,,1,,,,,,,,,,,,,,,,,,,,,,,,,,,,,,,,,,,,,,,,,,,,,,112,148264,20,Female,1,2024/03/21_15:54:18,YZ,None,
2,./instructions/inst_prac_3/Slide38.png,right,1.364971841001534,685.3660906240002,686.7310624650017,,,,,,,,,,,,,,,,,,,,,,,,,,,,,,,,,1,,,,,,,,,,,,,,,,,,,,,,,,,,,,,,,,,,,,,,,,,,,,,,112,148264,20,Female,1,2024/03/21_15:54:18,YZ,None,
3,./instructions/inst_prac_3/Slide39.png,right,1.058899220002786,686.7602354859991,687.8191347060019,,,,,,,,,,,,,,,,,,,,,,,,,,,,,,,,,1,,,,,,,,,,,,,,,,,,,,,,,,,,,,,,,,,,,,,,,,,,,,,,112,148264,20,Female,1,2024/03/21_15:54:18,YZ,None,
4,./instructions/inst_prac_3/Slide40.png,right,1.059317317998648,687.8477624000006,688.9070797179993,,,,,,,,,,,,,,,,,,,,,,,,,,,,,,,,,1,,,,,,,,,,,,,,,,,,,,,,,,,,,,,,,,,,,,,,,,,,,,,,112,148264,20,Female,1,2024/03/21_15:54:18,YZ,None,
5,./instructions/inst_prac_3/Slide41.png,right,2.676545785001508,688.9346473699989,691.6111931550004,,,,,,,,,,,,,,,,,,,,,,,,,,,,,,,,,1,,,,,,,,,,,,,,,,,,,,,,,,,,,,,,,,,,,,,,,,,,,,,,112,148264,20,Female,1,2024/03/21_15:54:18,YZ,None,
6,./instructions/inst_prac_3/Slide42.png,right,1.1817255489986564,691.637342897,692.8190684459987,,,,,,,,,,,,,,,,,,,,,,,,,,,,,,,,,1,,,,,,,,,,,,,,,,,,,,,,,,,,,,,,,,,,,,,,,,,,,,,,112,148264,20,Female,1,2024/03/21_15:54:18,YZ,None,
7,./instructions/inst_prac_3/Slide43.png,right,1.4114167299994733,692.8477023220003,694.2591190519997,,,,,,,,,,,,,,,,,,,,,,,,,,,,,,,,,1,,,,,,,,,,,,,,,,,,,,,,,,,,,,,,,,,,,,,,,,,,,,,,112,148264,20,Female,1,2024/03/21_15:54:18,YZ,None,
8,./instructions/inst_prac_3/Slide44.png,right,3.1469316330003494,694.2883020439986,697.4352336769989,,,,,,,,,,,,,,,,,,,,,,,,,,,,,,,,,1,,,,,,,,,,,,,,,,,,,,,,,,,,,,,,,,,,,,,,,,,,,,,,112,148264,20,Female,1,2024/03/21_15:54:18,YZ,None,
,,,,,,practice,0,18,3,788,1,S,0,right,3.817672640001547,1,0,,,,,,,,,,,,,,,,,,,,,1,,,,,,,,,,,,,,,,,,,,,,,,,,,,,,,,,,,,,,,,,,,,,,112,148264,20,Female,1,2024/03/21_15:54:18,YZ,None,
,,,,,,practice,0,18,3,788,2,Q,0,right,0.5487274580009398,1,0,,,,,,,,,,,,,,,,,,,,,1,,,,,,,,,,,,,,,,,,,,,,,,,,,,,,,,,,,,,,,,,,,,,,112,148264,20,Female,1,2024/03/21_15:54:18,YZ,None,
,,,,,,practice,0,18,3,788,3,S,0,right,0.7645286619990657,1,0,,,,,,,,,,,,,,,,,,,,,1,,,,,,,,,,,,,,,,,,,,,,,,,,,,,,,,,,,,,,,,,,,,,,112,148264,20,Female,1,2024/03/21_15:54:18,YZ,None,
,,,,,,practice,0,18,3,788,4,S,1,left,0.8008450740016997,1,0,,,,,,,,,,,,,,,,,,,,,1,,,,,,,,,,,,,,,,,,,,,,,,,,,,,,,,,,,,,,,,,,,,,,112,148264,20,Female,1,2024/03/21_15:54:18,YZ,None,
,,,,,,practice,0,18,3,788,5,Q,1,right,6.2298422119965835,0,0,,,,,,,,,,,,,,,,,,,,,1,,,,,,,,,,,,,,,,,,,,,,,,,,,,,,,,,,,,,,,,,,,,,,112,148264,20,Female,1,2024/03/21_15:54:18,YZ,None,
,,,,,,practice,0,18,3,788,6,J,0,right,1.980550011001469,1,0,,,,,,,,,,,,,,,,,,,,,1,,,,,,,,,,,,,,,,,,,,,,,,,,,,,,,,,,,,,,,,,,,,,,112,148264,20,Female,1,2024/03/21_15:54:18,YZ,None,
,,,,,,practice,0,18,3,788,7,S,1,left,1.001437832001102,1,0,,,,,,,,,,,,,,,,,,,,,1,,,,,,,,,,,,,,,,,,,,,,,,,,,,,,,,,,,,,,,,,,,,,,112,148264,20,Female,1,2024/03/21_15:54:18,YZ,None,
,,,,,,practice,0,18,3,788,8,S,0,right,0.7212054390001867,1,0,,,,,,,,,,,,,,,,,,,,,1,,,,,,,,,,,,,,,,,,,,,,,,,,,,,,,,,,,,,,,,,,,,,,112,148264,20,Female,1,2024/03/21_15:54:18,YZ,None,
,,,,,,practice,0,18,3,788,9,J,1,left,0.6783482989994809,1,0,,,,,,,,,,,,,,,,,,,,,1,,,,,,,,,,,,,,,,,,,,,,,,,,,,,,,,,,,,,,,,,,,,,,112,148264,20,Female,1,2024/03/21_15:54:18,YZ,None,
,,,,,,practice,0,18,3,788,10,J,0,right,0.8519184610013326,1,0,,,,,,,,,,,,,,,,,,,,,1,,,,,,,,,,,,,,,,,,,,,,,,,,,,,,,,,,,,,,,,,,,,,,112,148264,20,Female,1,2024/03/21_15:54:18,YZ,None,
,,,,,,practice,0,18,3,788,11,F,0,right,0.6205430620029802,1,0,,,,,,,,,,,,,,,,,,,,,1,,,,,,,,,,,,,,,,,,,,,,,,,,,,,,,,,,,,,,,,,,,,,,112,148264,20,Female,1,2024/03/21_15:54:18,YZ,None,
,,,,,,practice,0,18,3,788,12,F,0,right,0.8943934550006816,1,0,,,,,,,,,,,,,,,,,,,,,1,,,,,,,,,,,,,,,,,,,,,,,,,,,,,,,,,,,,,,,,,,,,,,112,148264,20,Female,1,2024/03/21_15:54:18,YZ,None,
,,,,,,practice,0,18,3,788,13,S,0,right,0.6362260159985453,1,0,,,,,,,,,,,,,,,,,,,,,1,,,,,,,,,,,,,,,,,,,,,,,,,,,,,,,,,,,,,,,,,,,,,,112,148264,20,Female,1,2024/03/21_15:54:18,YZ,None,
,,,,,,practice,0,18,3,788,,,,,,,,0.9375,0.75,0.0,1.0,0.0,1.0,1.5035568170004319,3,0,0,0,0,9,12,4,9,0,,,,1,,,,,,,,,,,,,,,,,,,,,,,,,,,,,,,,,,,,,,,,,,,,,,112,148264,20,Female,1,2024/03/21_15:54:18,YZ,None,
1,./instructions/inst_prac_3_next/Slide49.png,right,0.8576496199966641,731.1773962680018,732.0350458879984,,,,,,,,,,,,,,,,,,,,,,,,,,,,,,,,,1,,,,,,,,,,,,,,,,,,,,,,,,,,,,,,,,,,,,,,,,,,,,,,112,148264,20,Female,1,2024/03/21_15:54:18,YZ,None,
,,,,,,practice,0,7,3,583,1,N,0,right,2.6199323829969217,1,0,,,,,,,,,,,,,,,,,,,,,1,,,,,,,,,,,,,,,,,,,,,,,,,,,,,,,,,,,,,,,,,,,,,,112,148264,20,Female,1,2024/03/21_15:54:18,YZ,None,
,,,,,,practice,0,7,3,583,2,V,0,right,2.945818241001689,1,0,,,,,,,,,,,,,,,,,,,,,1,,,,,,,,,,,,,,,,,,,,,,,,,,,,,,,,,,,,,,,,,,,,,,112,148264,20,Female,1,2024/03/21_15:54:18,YZ,None,
,,,,,,practice,0,7,3,583,3,C,0,right,0.5752456240006723,1,0,,,,,,,,,,,,,,,,,,,,,1,,,,,,,,,,,,,,,,,,,,,,,,,,,,,,,,,,,,,,,,,,,,,,112,148264,20,Female,1,2024/03/21_15:54:18,YZ,None,
,,,,,,practice,0,7,3,583,4,V,0,right,1.9200197860009212,1,0,,,,,,,,,,,,,,,,,,,,,1,,,,,,,,,,,,,,,,,,,,,,,,,,,,,,,,,,,,,,,,,,,,,,112,148264,20,Female,1,2024/03/21_15:54:18,YZ,None,
,,,,,,practice,0,7,3,583,5,V,1,right,5.5532794460013974,0,0,,,,,,,,,,,,,,,,,,,,,1,,,,,,,,,,,,,,,,,,,,,,,,,,,,,,,,,,,,,,,,,,,,,,112,148264,20,Female,1,2024/03/21_15:54:18,YZ,None,
,,,,,,practice,0,7,3,583,6,N,0,left,0.8872017219982808,0,0,,,,,,,,,,,,,,,,,,,,,1,,,,,,,,,,,,,,,,,,,,,,,,,,,,,,,,,,,,,,,,,,,,,,112,148264,20,Female,1,2024/03/21_15:54:18,YZ,None,
,,,,,,practice,0,7,3,583,7,V,1,left,4.01001381199967,1,0,,,,,,,,,,,,,,,,,,,,,1,,,,,,,,,,,,,,,,,,,,,,,,,,,,,,,,,,,,,,,,,,,,,,112,148264,20,Female,1,2024/03/21_15:54:18,YZ,None,
,,,,,,practice,0,7,3,583,8,V,1,left,0.561387609999656,1,0,,,,,,,,,,,,,,,,,,,,,1,,,,,,,,,,,,,,,,,,,,,,,,,,,,,,,,,,,,,,,,,,,,,,112,148264,20,Female,1,2024/03/21_15:54:18,YZ,None,
,,,,,,practice,0,7,3,583,9,Q,0,right,0.3962517569998454,1,0,,,,,,,,,,,,,,,,,,,,,1,,,,,,,,,,,,,,,,,,,,,,,,,,,,,,,,,,,,,,,,,,,,,,112,148264,20,Female,1,2024/03/21_15:54:18,YZ,None,
,,,,,,practice,0,7,3,583,10,V,1,left,0.5701233549989411,1,0,,,,,,,,,,,,,,,,,,,,,1,,,,,,,,,,,,,,,,,,,,,,,,,,,,,,,,,,,,,,,,,,,,,,112,148264,20,Female,1,2024/03/21_15:54:18,YZ,None,
,,,,,,practice,0,7,3,583,11,V,1,left,0.6363707290001912,1,0,,,,,,,,,,,,,,,,,,,,,1,,,,,,,,,,,,,,,,,,,,,,,,,,,,,,,,,,,,,,,,,,,,,,112,148264,20,Female,1,2024/03/21_15:54:18,YZ,None,
,,,,,,practice,0,7,3,583,12,F,0,right,0.534700973003055,1,0,,,,,,,,,,,,,,,,,,,,,1,,,,,,,,,,,,,,,,,,,,,,,,,,,,,,,,,,,,,,,,,,,,,,112,148264,20,Female,1,2024/03/21_15:54:18,YZ,None,
,,,,,,practice,0,7,3,583,13,X,0,right,0.5056913250009529,1,0,,,,,,,,,,,,,,,,,,,,,1,,,,,,,,,,,,,,,,,,,,,,,,,,,,,,,,,,,,,,,,,,,,,,112,148264,20,Female,1,2024/03/21_15:54:18,YZ,None,
,,,,,,practice,0,7,3,583,14,S,0,left,0.5721232969990524,0,0,,,,,,,,,,,,,,,,,,,,,1,,,,,,,,,,,,,,,,,,,,,,,,,,,,,,,,,,,,,,,,,,,,,,112,148264,20,Female,1,2024/03/21_15:54:18,YZ,None,
,,,,,,practice,0,7,3,583,15,J,0,right,0.34611543800201616,1,0,,,,,,,,,,,,,,,,,,,,,1,,,,,,,,,,,,,,,,,,,,,,,,,,,,,,,,,,,,,,,,,,,,,,112,148264,20,Female,1,2024/03/21_15:54:18,YZ,None,
,,,,,,practice,0,7,3,583,,,,,,,,0.86,0.8,0.2,0.8,0.0,0.8,1.5089516998668842,4,2,0,0,0,8,12,5,10,0,,,,1,,,,,,,,,,,,,,,,,,,,,,,,,,,,,,,,,,,,,,,,,,,,,,112,148264,20,Female,1,2024/03/21_15:54:18,YZ,None,
,,,,,,practice,0,29,3,583,1,S,0,right,2.255917988000874,1,0,,,,,,,,,,,,,,,,,,,,,1,,,,,,,,,,,,,,,,,,,,,,,,,,,,,,,,,,,,,,,,,,,,,,112,148264,20,Female,1,2024/03/21_15:54:18,YZ,None,
,,,,,,practice,0,29,3,583,2,N,0,right,1.1769246059993748,1,0,,,,,,,,,,,,,,,,,,,,,1,,,,,,,,,,,,,,,,,,,,,,,,,,,,,,,,,,,,,,,,,,,,,,112,148264,20,Female,1,2024/03/21_15:54:18,YZ,None,
,,,,,,practice,0,29,3,583,3,N,0,right,1.7618169970010058,1,0,,,,,,,,,,,,,,,,,,,,,1,,,,,,,,,,,,,,,,,,,,,,,,,,,,,,,,,,,,,,,,,,,,,,112,148264,20,Female,1,2024/03/21_15:54:18,YZ,None,
,,,,,,practice,0,29,3,583,4,J,0,right,1.5400711170004797,1,0,,,,,,,,,,,,,,,,,,,,,1,,,,,,,,,,,,,,,,,,,,,,,,,,,,,,,,,,,,,,,,,,,,,,112,148264,20,Female,1,2024/03/21_15:54:18,YZ,None,
,,,,,,practice,0,29,3,583,5,N,1,left,4.081025000003137,1,0,,,,,,,,,,,,,,,,,,,,,1,,,,,,,,,,,,,,,,,,,,,,,,,,,,,,,,,,,,,,,,,,,,,,112,148264,20,Female,1,2024/03/21_15:54:18,YZ,None,
,,,,,,practice,0,29,3,583,6,N,1,left,0.42822687099760515,1,0,,,,,,,,,,,,,,,,,,,,,1,,,,,,,,,,,,,,,,,,,,,,,,,,,,,,,,,,,,,,,,,,,,,,112,148264,20,Female,1,2024/03/21_15:54:18,YZ,None,
,,,,,,practice,0,29,3,583,7,X,0,right,0.5720234699983848,1,0,,,,,,,,,,,,,,,,,,,,,1,,,,,,,,,,,,,,,,,,,,,,,,,,,,,,,,,,,,,,,,,,,,,,112,148264,20,Female,1,2024/03/21_15:54:18,YZ,None,
,,,,,,practice,0,29,3,583,8,X,0,right,0.45040813500236254,1,0,,,,,,,,,,,,,,,,,,,,,1,,,,,,,,,,,,,,,,,,,,,,,,,,,,,,,,,,,,,,,,,,,,,,112,148264,20,Female,1,2024/03/21_15:54:18,YZ,None,
,,,,,,practice,0,29,3,583,9,N,1,left,0.7684917949991359,1,0,,,,,,,,,,,,,,,,,,,,,1,,,,,,,,,,,,,,,,,,,,,,,,,,,,,,,,,,,,,,,,,,,,,,112,148264,20,Female,1,2024/03/21_15:54:18,YZ,None,
,,,,,,practice,0,29,3,583,10,Q,0,right,1.324189857001329,1,0,,,,,,,,,,,,,,,,,,,,,1,,,,,,,,,,,,,,,,,,,,,,,,,,,,,,,,,,,,,,,,,,,,,,112,148264,20,Female,1,2024/03/21_15:54:18,YZ,None,
,,,,,,practice,0,29,3,583,11,Q,0,right,1.1244585310014372,1,0,,,,,,,,,,,,,,,,,,,,,1,,,,,,,,,,,,,,,,,,,,,,,,,,,,,,,,,,,,,,,,,,,,,,112,148264,20,Female,1,2024/03/21_15:54:18,YZ,None,
,,,,,,practice,0,29,3,583,12,F,0,left,1.6732161689978966,0,0,,,,,,,,,,,,,,,,,,,,,1,,,,,,,,,,,,,,,,,,,,,,,,,,,,,,,,,,,,,,,,,,,,,,112,148264,20,Female,1,2024/03/21_15:54:18,YZ,None,
,,,,,,practice,0,29,3,583,13,N,0,left,1.6888651400004164,0,0,,,,,,,,,,,,,,,,,,,,,1,,,,,,,,,,,,,,,,,,,,,,,,,,,,,,,,,,,,,,,,,,,,,,112,148264,20,Female,1,2024/03/21_15:54:18,YZ,None,
,,,,,,practice,0,29,3,583,14,N,0,left,2.460117368002102,0,0,,,,,,,,,,,,,,,,,,,,,1,,,,,,,,,,,,,,,,,,,,,,,,,,,,,,,,,,,,,,,,,,,,,,112,148264,20,Female,1,2024/03/21_15:54:18,YZ,None,
,,,,,,practice,0,29,3,583,15,F,1,right,0.676697470000363,0,0,,,,,,,,,,,,,,,,,,,,,1,,,,,,,,,,,,,,,,,,,,,,,,,,,,,,,,,,,,,,,,,,,,,,112,148264,20,Female,1,2024/03/21_15:54:18,YZ,None,
,,,,,,practice,0,29,3,583,,,,,,,,0.8011363636363638,0.75,0.2727272727272727,0.7272727272727273,0.0,0.7272727272727273,1.465496700933727,3,3,0,0,0,8,11,4,11,0,,,,1,,,,,,,,,,,,,,,,,,,,,,,,,,,,,,,,,,,,,,,,,,,,,,112,148264,20,Female,1,2024/03/21_15:54:18,YZ,None,
1,./instructions/inst_prac_main/Slide51.png,right,3.4948232550013927,796.4762173759991,799.9710406310005,,,,,,,,,,,,,,,,,,,,,,,,,,,,,,,,,1,,,,,,,,,,,,,,,,,,,,,,,,,,,,,,,,,,,,,,,,,,,,,,112,148264,20,Female,1,2024/03/21_15:54:18,YZ,None,
2,./instructions/inst_prac_main/Slide52.png,right,11.36400087400034,799.9990442880007,811.3630451620011,,,,,,,,,,,,,,,,,,,,,,,,,,,,,,,,,1,,,,,,,,,,,,,,,,,,,,,,,,,,,,,,,,,,,,,,,,,,,,,,112,148264,20,Female,1,2024/03/21_15:54:18,YZ,None,
3,./instructions/inst_prac_main/Slide53.png,right,7.740539569000248,811.3906139999999,819.1311535690002,,,,,,,,,,,,,,,,,,,,,,,,,,,,,,,,,1,,,,,,,,,,,,,,,,,,,,,,,,,,,,,,,,,,,,,,,,,,,,,,112,148264,20,Female,1,2024/03/21_15:54:18,YZ,None,
4,./instructions/inst_prac_main/Slide54.png,right,15.018859768999391,819.1602687960003,834.1791285649997,,,,,,,,,,,,,,,,,,,,,,,,,,,,,,,,,1,,,,,,,,,,,,,,,,,,,,,,,,,,,,,,,,,,,,,,,,,,,,,,112,148264,20,Female,1,2024/03/21_15:54:18,YZ,None,
,,,,,,practice_main,0,1,1,583,1,C,0,right,1.1425851160020102,1,0,,,,,,,,,,,,,,,,,,,,,1,,,,,,,,,,,,,,,,,,,,,,,,,,,,,,,,,,,,,,,,,,,,,,112,148264,20,Female,1,2024/03/21_15:54:18,YZ,None,
,,,,,,practice_main,0,1,1,583,2,J,0,right,nan,0,1,,,,,,,,,,,,,,,,,,,,,1,,,,,,,,,,,,,,,,,,,,,,,,,,,,,,,,,,,,,,,,,,,,,,112,148264,20,Female,1,2024/03/21_15:54:18,YZ,None,
,,,,,,practice_main,0,1,1,583,3,J,1,left,0.5741100020022714,1,0,,,,,,,,,,,,,,,,,,,,,1,,,,,,,,,,,,,,,,,,,,,,,,,,,,,,,,,,,,,,,,,,,,,,112,148264,20,Female,1,2024/03/21_15:54:18,YZ,None,
,,,,,,practice_main,0,1,1,583,4,N,0,right,0.5726007449993631,1,0,,,,,,,,,,,,,,,,,,,,,1,,,,,,,,,,,,,,,,,,,,,,,,,,,,,,,,,,,,,,,,,,,,,,112,148264,20,Female,1,2024/03/21_15:54:18,YZ,None,
,,,,,,practice_main,0,1,1,583,5,N,1,left,0.4204523309999786,1,0,,,,,,,,,,,,,,,,,,,,,1,,,,,,,,,,,,,,,,,,,,,,,,,,,,,,,,,,,,,,,,,,,,,,112,148264,20,Female,1,2024/03/21_15:54:18,YZ,None,
,,,,,,practice_main,0,1,1,583,6,X,0,right,0.5803651099995477,1,0,,,,,,,,,,,,,,,,,,,,,1,,,,,,,,,,,,,,,,,,,,,,,,,,,,,,,,,,,,,,,,,,,,,,112,148264,20,Female,1,2024/03/21_15:54:18,YZ,None,
,,,,,,practice_main,0,1,1,583,7,F,0,right,0.5808451040029468,1,0,,,,,,,,,,,,,,,,,,,,,1,,,,,,,,,,,,,,,,,,,,,,,,,,,,,,,,,,,,,,,,,,,,,,112,148264,20,Female,1,2024/03/21_15:54:18,YZ,None,
,,,,,,practice_main,0,1,1,583,8,Q,0,right,0.4892845119975391,1,0,,,,,,,,,,,,,,,,,,,,,1,,,,,,,,,,,,,,,,,,,,,,,,,,,,,,,,,,,,,,,,,,,,,,112,148264,20,Female,1,2024/03/21_15:54:18,YZ,None,
,,,,,,practice_main,0,1,1,583,9,J,0,left,0.5125947170017753,0,0,,,,,,,,,,,,,,,,,,,,,1,,,,,,,,,,,,,,,,,,,,,,,,,,,,,,,,,,,,,,,,,,,,,,112,148264,20,Female,1,2024/03/21_15:54:18,YZ,None,
,,,,,,practice_main,0,1,1,583,10,J,1,left,0.36603961900254944,1,0,,,,,,,,,,,,,,,,,,,,,1,,,,,,,,,,,,,,,,,,,,,,,,,,,,,,,,,,,,,,,,,,,,,,112,148264,20,Female,1,2024/03/21_15:54:18,YZ,None,
,,,,,,practice_main,0,1,1,583,11,F,0,right,0.45063965700319386,1,0,,,,,,,,,,,,,,,,,,,,,1,,,,,,,,,,,,,,,,,,,,,,,,,,,,,,,,,,,,,,,,,,,,,,112,148264,20,Female,1,2024/03/21_15:54:18,YZ,None,
,,,,,,practice_main,0,1,1,583,12,F,1,left,0.40170515200225054,1,0,,,,,,,,,,,,,,,,,,,,,1,,,,,,,,,,,,,,,,,,,,,,,,,,,,,,,,,,,,,,,,,,,,,,112,148264,20,Female,1,2024/03/21_15:54:18,YZ,None,
,,,,,,practice_main,0,1,1,583,13,X,0,right,0.6445999559982738,1,0,,,,,,,,,,,,,,,,,,,,,1,,,,,,,,,,,,,,,,,,,,,,,,,,,,,,,,,,,,,,,,,,,,,,112,148264,20,Female,1,2024/03/21_15:54:18,YZ,None,
,,,,,,practice_main,0,1,1,583,14,F,0,left,0.5241042749985354,0,0,,,,,,,,,,,,,,,,,,,,,1,,,,,,,,,,,,,,,,,,,,,,,,,,,,,,,,,,,,,,,,,,,,,,112,148264,20,Female,1,2024/03/21_15:54:18,YZ,None,
,,,,,,practice_main,0,1,1,583,15,Q,0,right,0.4228356439998606,1,0,,,,,,,,,,,,,,,,,,,,,1,,,,,,,,,,,,,,,,,,,,,,,,,,,,,,,,,,,,,,,,,,,,,,112,148264,20,Female,1,2024/03/21_15:54:18,YZ,None,
,,,,,,practice_main,0,1,1,583,,,,,,,,0.9545454545454546,1.0,0.18181818181818182,0.8,0.06666666666666667,0.7515151515151515,0.5487687100007211,4,2,0,1,1,8,12,4,11,0,,,,1,,,,,,,,,,,,,,,,,,,,,,,,,,,,,,,,,,,,,,,,,,,,,,112,148264,20,Female,1,2024/03/21_15:54:18,YZ,None,
,,,,,240321_161354,PRACTICE,0,1,1,583,,,,,,,,,,,,,,,,,,,,,,,,,,,,1,34,2,1,cue2.png,easy,B,59,0.7322318049991736,0,845.2864313909995,846.0344533099997,,,,,,,,,,,,,,,,,,,,,,,,,,,,,,,,,,,112,148264,20,Female,1,2024/03/21_15:54:18,YZ,None,
,,,,,,practice_main,0,2,3,583,1,J,0,None,nan,0,1,,,,,,,,,,,,,,,,,,,,,1,,,,,,,,,,,,,,,,,,,,,,,,,,,,,,,,,,,,,,,,,,,,,,112,148264,20,Female,1,2024/03/21_15:54:18,YZ,None,
,,,,,,practice_main,0,2,3,583,2,X,0,right,1.011675831003231,1,0,,,,,,,,,,,,,,,,,,,,,1,,,,,,,,,,,,,,,,,,,,,,,,,,,,,,,,,,,,,,,,,,,,,,112,148264,20,Female,1,2024/03/21_15:54:18,YZ,None,
,,,,,,practice_main,0,2,3,583,3,N,0,right,0.19016225099767325,1,0,,,,,,,,,,,,,,,,,,,,,1,,,,,,,,,,,,,,,,,,,,,,,,,,,,,,,,,,,,,,,,,,,,,,112,148264,20,Female,1,2024/03/21_15:54:18,YZ,None,
,,,,,,practice_main,0,2,3,583,4,Q,0,right,0.7481316179982969,1,0,,,,,,,,,,,,,,,,,,,,,1,,,,,,,,,,,,,,,,,,,,,,,,,,,,,,,,,,,,,,,,,,,,,,112,148264,20,Female,1,2024/03/21_15:54:18,YZ,None,
,,,,,,practice_main,0,2,3,583,5,V,0,left,0.5123667919979198,0,0,,,,,,,,,,,,,,,,,,,,,1,,,,,,,,,,,,,,,,,,,,,,,,,,,,,,,,,,,,,,,,,,,,,,112,148264,20,Female,1,2024/03/21_15:54:18,YZ,None,
,,,,,,practice_main,0,2,3,583,6,N,1,right,0.16221813700030907,0,0,,,,,,,,,,,,,,,,,,,,,1,,,,,,,,,,,,,,,,,,,,,,,,,,,,,,,,,,,,,,,,,,,,,,112,148264,20,Female,1,2024/03/21_15:54:18,YZ,None,
,,,,,,practice_main,0,2,3,583,7,F,0,right,0.3882937349990243,1,0,,,,,,,,,,,,,,,,,,,,,1,,,,,,,,,,,,,,,,,,,,,,,,,,,,,,,,,,,,,,,,,,,,,,112,148264,20,Female,1,2024/03/21_15:54:18,YZ,None,
,,,,,,practice_main,0,2,3,583,8,Q,0,right,0.41727807000279427,1,0,,,,,,,,,,,,,,,,,,,,,1,,,,,,,,,,,,,,,,,,,,,,,,,,,,,,,,,,,,,,,,,,,,,,112,148264,20,Female,1,2024/03/21_15:54:18,YZ,None,
,,,,,,practice_main,0,2,3,583,9,V,0,right,0.3758712700000615,1,0,,,,,,,,,,,,,,,,,,,,,1,,,,,,,,,,,,,,,,,,,,,,,,,,,,,,,,,,,,,,,,,,,,,,112,148264,20,Female,1,2024/03/21_15:54:18,YZ,None,
,,,,,,practice_main,0,2,3,583,10,F,1,left,0.23208104299919796,1,0,,,,,,,,,,,,,,,,,,,,,1,,,,,,,,,,,,,,,,,,,,,,,,,,,,,,,,,,,,,,,,,,,,,,112,148264,20,Female,1,2024/03/21_15:54:18,YZ,None,
,,,,,,practice_main,0,2,3,583,11,Q,1,right,0.5390013739997812,0,0,,,,,,,,,,,,,,,,,,,,,1,,,,,,,,,,,,,,,,,,,,,,,,,,,,,,,,,,,,,,,,,,,,,,112,148264,20,Female,1,2024/03/21_15:54:18,YZ,None,
,,,,,,practice_main,0,2,3,583,12,J,0,left,0.3288436000002548,0,0,,,,,,,,,,,,,,,,,,,,,1,,,,,,,,,,,,,,,,,,,,,,,,,,,,,,,,,,,,,,,,,,,,,,112,148264,20,Female,1,2024/03/21_15:54:18,YZ,None,
,,,,,,practice_main,0,2,3,583,13,S,0,right,0.4241741810001258,1,0,,,,,,,,,,,,,,,,,,,,,1,,,,,,,,,,,,,,,,,,,,,,,,,,,,,,,,,,,,,,,,,,,,,,112,148264,20,Female,1,2024/03/21_15:54:18,YZ,None,
,,,,,,practice_main,0,2,3,583,14,J,0,left,0.6325303879966668,0,0,,,,,,,,,,,,,,,,,,,,,1,,,,,,,,,,,,,,,,,,,,,,,,,,,,,,,,,,,,,,,,,,,,,,112,148264,20,Female,1,2024/03/21_15:54:18,YZ,None,
,,,,,,practice_main,0,2,3,583,15,J,1,left,0.34319187300206977,1,0,,,,,,,,,,,,,,,,,,,,,1,,,,,,,,,,,,,,,,,,,,,,,,,,,,,,,,,,,,,,,,,,,,,,112,148264,20,Female,1,2024/03/21_15:54:18,YZ,None,
,,,,,,practice_main,0,2,3,583,,,,,,,,0.6704545454545455,0.5,0.2727272727272727,0.7,0.06666666666666667,0.6606060606060606,0.4504157259283862,2,3,0,1,1,7,9,4,11,0,,,,1,,,,,,,,,,,,,,,,,,,,,,,,,,,,,,,,,,,,,,,,,,,,,,112,148264,20,Female,1,2024/03/21_15:54:18,YZ,None,
,,,,,240321_161420,PRACTICE,0,2,3,583,,,,,,,,,,,,,,,,,,,,,,,,,,,,1,46,3,2,cue1.png,hard,B,55,0.881145737002953,0,872.7558076780006,873.6536236680004,,,,,,,,,,,,,,,,,,,,,,,,,,,,,,,,,,,112,148264,20,Female,1,2024/03/21_15:54:18,YZ,None,
,,,,,,practice_main,0,3,1,583,1,V,0,right,1.4312568009991082,1,0,,,,,,,,,,,,,,,,,,,,,1,,,,,,,,,,,,,,,,,,,,,,,,,,,,,,,,,,,,,,,,,,,,,,112,148264,20,Female,1,2024/03/21_15:54:18,YZ,None,
,,,,,,practice_main,0,3,1,583,2,J,0,right,0.913785493998148,1,0,,,,,,,,,,,,,,,,,,,,,1,,,,,,,,,,,,,,,,,,,,,,,,,,,,,,,,,,,,,,,,,,,,,,112,148264,20,Female,1,2024/03/21_15:54:18,YZ,None,
,,,,,,practice_main,0,3,1,583,3,Q,0,right,0.6579969949998485,1,0,,,,,,,,,,,,,,,,,,,,,1,,,,,,,,,,,,,,,,,,,,,,,,,,,,,,,,,,,,,,,,,,,,,,112,148264,20,Female,1,2024/03/21_15:54:18,YZ,None,
,,,,,,practice_main,0,3,1,583,4,Q,1,left,0.42458021200218354,1,0,,,,,,,,,,,,,,,,,,,,,1,,,,,,,,,,,,,,,,,,,,,,,,,,,,,,,,,,,,,,,,,,,,,,112,148264,20,Female,1,2024/03/21_15:54:18,YZ,None,
,,,,,,practice_main,0,3,1,583,5,S,0,right,0.4049241840002651,1,0,,,,,,,,,,,,,,,,,,,,,1,,,,,,,,,,,,,,,,,,,,,,,,,,,,,,,,,,,,,,,,,,,,,,112,148264,20,Female,1,2024/03/21_15:54:18,YZ,None,
,,,,,,practice_main,0,3,1,583,6,C,0,right,0.5923772520000057,1,0,,,,,,,,,,,,,,,,,,,,,1,,,,,,,,,,,,,,,,,,,,,,,,,,,,,,,,,,,,,,,,,,,,,,112,148264,20,Female,1,2024/03/21_15:54:18,YZ,None,
,,,,,,practice_main,0,3,1,583,7,V,0,right,0.38796777600146015,1,0,,,,,,,,,,,,,,,,,,,,,1,,,,,,,,,,,,,,,,,,,,,,,,,,,,,,,,,,,,,,,,,,,,,,112,148264,20,Female,1,2024/03/21_15:54:18,YZ,None,
,,,,,,practice_main,0,3,1,583,8,C,0,right,0.6476934250022168,1,0,,,,,,,,,,,,,,,,,,,,,1,,,,,,,,,,,,,,,,,,,,,,,,,,,,,,,,,,,,,,,,,,,,,,112,148264,20,Female,1,2024/03/21_15:54:18,YZ,None,
,,,,,,practice_main,0,3,1,583,9,C,1,left,0.47666755899990676,1,0,,,,,,,,,,,,,,,,,,,,,1,,,,,,,,,,,,,,,,,,,,,,,,,,,,,,,,,,,,,,,,,,,,,,112,148264,20,Female,1,2024/03/21_15:54:18,YZ,None,
,,,,,,practice_main,0,3,1,583,10,F,0,right,0.9148126239997509,1,0,,,,,,,,,,,,,,,,,,,,,1,,,,,,,,,,,,,,,,,,,,,,,,,,,,,,,,,,,,,,,,,,,,,,112,148264,20,Female,1,2024/03/21_15:54:18,YZ,None,
,,,,,,practice_main,0,3,1,583,11,S,0,right,0.5488024320002296,1,0,,,,,,,,,,,,,,,,,,,,,1,,,,,,,,,,,,,,,,,,,,,,,,,,,,,,,,,,,,,,,,,,,,,,112,148264,20,Female,1,2024/03/21_15:54:18,YZ,None,
,,,,,,practice_main,0,3,1,583,12,C,0,right,0.40462819499953184,1,0,,,,,,,,,,,,,,,,,,,,,1,,,,,,,,,,,,,,,,,,,,,,,,,,,,,,,,,,,,,,,,,,,,,,112,148264,20,Female,1,2024/03/21_15:54:18,YZ,None,
,,,,,,practice_main,0,3,1,583,13,C,1,left,0.37618987600217224,1,0,,,,,,,,,,,,,,,,,,,,,1,,,,,,,,,,,,,,,,,,,,,,,,,,,,,,,,,,,,,,,,,,,,,,112,148264,20,Female,1,2024/03/21_15:54:18,YZ,None,
,,,,,,practice_main,0,3,1,583,14,X,0,right,0.4255329170009645,1,0,,,,,,,,,,,,,,,,,,,,,1,,,,,,,,,,,,,,,,,,,,,,,,,,,,,,,,,,,,,,,,,,,,,,112,148264,20,Female,1,2024/03/21_15:54:18,YZ,None,
,,,,,,practice_main,0,3,1,583,15,X,1,left,0.4527036500003305,1,0,,,,,,,,,,,,,,,,,,,,,1,,,,,,,,,,,,,,,,,,,,,,,,,,,,,,,,,,,,,,,,,,,,,,112,148264,20,Female,1,2024/03/21_15:54:18,YZ,None,
,,,,,,practice_main,0,3,1,583,,,,,,,,1.0,1.0,0.0,1.0,0.0,1.0,0.6039946261337416,4,0,0,0,0,11,15,4,11,0,,,,1,,,,,,,,,,,,,,,,,,,,,,,,,,,,,,,,,,,,,,,,,,,,,,112,148264,20,Female,1,2024/03/21_15:54:18,YZ,None,
,,,,,240321_161447,PRACTICE,0,3,1,583,,,,,,,,,,,,,,,,,,,,,,,,,,,,1,37,4,3,cue2.png,easy,B,49,0.9281020080015878,0,898.9761696239984,899.9169623890011,,,,,,,,,,,,,,,,,,,,,,,,,,,,,,,,,,,112,148264,20,Female,1,2024/03/21_15:54:18,YZ,None,
1,./instructions/inst_prac_end/Slide56.png,right,77.92163342200001,924.5214560259992,1002.4430894479992,,,,,,,,,,,,,,,,,,,,,,,,,,,,,,,,,1,,,,,,,,,,,,,,,,,,,,,,,,,,,,,,,,,,,,,,,,,,,,,,112,148264,20,Female,1,2024/03/21_15:54:18,YZ,None,
1,./instructions/inst_test/Slide57.png,right,41.35085218099994,1002.4762436749988,1043.8270958559988,,,,,,,,,,,,,,,,,,,,,,,,,,,,,,,,,1,,,,,,,,,,,,,,,,,,,,,,,,,,,,,,,,,,,,,,,,,,,,,,112,148264,20,Female,1,2024/03/21_15:54:18,YZ,None,
,,,,,,test,1,1,1,583,1,X,0,right,0.4230093689984642,1,0,,,,,,,,,,,,,,,,,,,,,1,,,,,,,,,,,,,,,,,,,,,,,,,,,,,,,,,,,,,,,,,,,,,,112,148264,20,Female,1,2024/03/21_15:54:18,YZ,None,
,,,,,,test,1,1,1,583,2,X,1,left,0.5807670220019645,1,0,,,,,,,,,,,,,,,,,,,,,1,,,,,,,,,,,,,,,,,,,,,,,,,,,,,,,,,,,,,,,,,,,,,,112,148264,20,Female,1,2024/03/21_15:54:18,YZ,None,
,,,,,,test,1,1,1,583,3,J,0,right,0.4114252520012087,1,0,,,,,,,,,,,,,,,,,,,,,1,,,,,,,,,,,,,,,,,,,,,,,,,,,,,,,,,,,,,,,,,,,,,,112,148264,20,Female,1,2024/03/21_15:54:18,YZ,None,
,,,,,,test,1,1,1,583,4,X,0,left,0.4045105439981853,0,0,,,,,,,,,,,,,,,,,,,,,1,,,,,,,,,,,,,,,,,,,,,,,,,,,,,,,,,,,,,,,,,,,,,,112,148264,20,Female,1,2024/03/21_15:54:18,YZ,None,
,,,,,,test,1,1,1,583,5,Q,0,right,0.5581448309967527,1,0,,,,,,,,,,,,,,,,,,,,,1,,,,,,,,,,,,,,,,,,,,,,,,,,,,,,,,,,,,,,,,,,,,,,112,148264,20,Female,1,2024/03/21_15:54:18,YZ,None,
,,,,,,test,1,1,1,583,6,Q,1,left,0.4488713629980339,1,0,,,,,,,,,,,,,,,,,,,,,1,,,,,,,,,,,,,,,,,,,,,,,,,,,,,,,,,,,,,,,,,,,,,,112,148264,20,Female,1,2024/03/21_15:54:18,YZ,None,
,,,,,,test,1,1,1,583,7,N,0,right,0.43870595499902265,1,0,,,,,,,,,,,,,,,,,,,,,1,,,,,,,,,,,,,,,,,,,,,,,,,,,,,,,,,,,,,,,,,,,,,,112,148264,20,Female,1,2024/03/21_15:54:18,YZ,None,
,,,,,,test,1,1,1,583,8,S,0,right,0.4399420369991276,1,0,,,,,,,,,,,,,,,,,,,,,1,,,,,,,,,,,,,,,,,,,,,,,,,,,,,,,,,,,,,,,,,,,,,,112,148264,20,Female,1,2024/03/21_15:54:18,YZ,None,
,,,,,,test,1,1,1,583,9,N,0,left,0.5457391070012818,0,0,,,,,,,,,,,,,,,,,,,,,1,,,,,,,,,,,,,,,,,,,,,,,,,,,,,,,,,,,,,,,,,,,,,,112,148264,20,Female,1,2024/03/21_15:54:18,YZ,None,
,,,,,,test,1,1,1,583,10,S,0,right,0.43553219500245177,1,0,,,,,,,,,,,,,,,,,,,,,1,,,,,,,,,,,,,,,,,,,,,,,,,,,,,,,,,,,,,,,,,,,,,,112,148264,20,Female,1,2024/03/21_15:54:18,YZ,None,
,,,,,,test,1,1,1,583,11,S,1,left,0.3534609119997185,1,0,,,,,,,,,,,,,,,,,,,,,1,,,,,,,,,,,,,,,,,,,,,,,,,,,,,,,,,,,,,,,,,,,,,,112,148264,20,Female,1,2024/03/21_15:54:18,YZ,None,
,,,,,,test,1,1,1,583,12,Q,0,right,0.40760688099908293,1,0,,,,,,,,,,,,,,,,,,,,,1,,,,,,,,,,,,,,,,,,,,,,,,,,,,,,,,,,,,,,,,,,,,,,112,148264,20,Female,1,2024/03/21_15:54:18,YZ,None,
,,,,,,test,1,1,1,583,13,F,0,right,0.3679045530006988,1,0,,,,,,,,,,,,,,,,,,,,,1,,,,,,,,,,,,,,,,,,,,,,,,,,,,,,,,,,,,,,,,,,,,,,112,148264,20,Female,1,2024/03/21_15:54:18,YZ,None,
,,,,,,test,1,1,1,583,14,C,0,right,0.4310971769991738,1,0,,,,,,,,,,,,,,,,,,,,,1,,,,,,,,,,,,,,,,,,,,,,,,,,,,,,,,,,,,,,,,,,,,,,112,148264,20,Female,1,2024/03/21_15:54:18,YZ,None,
,,,,,,test,1,1,1,583,15,C,1,left,0.5413516340013302,1,0,,,,,,,,,,,,,,,,,,,,,1,,,,,,,,,,,,,,,,,,,,,,,,,,,,,,,,,,,,,,,,,,,,,,112,148264,20,Female,1,2024/03/21_15:54:18,YZ,None,
,,,,,,Test,1,1,1,583,,,,,,,,0.9545454545454546,1.0,0.18181818181818182,0.8181818181818182,0.0,0.8181818181818181,0.45253792213309985,4,2,0,0,0,9,13,4,11,0,,,,1,,,,,,,,,,,,,,,,,,,,,,,,,,,,,,,,,,,,,,,,,,,,,,112,148264,20,Female,1,2024/03/21_15:54:18,YZ,None,
,,,,,240321_161714,TEST,1,1,1,583,,,,,,,,,,,,,,,,,,,,,,,,,,,,1,1,1,1,cue2.png,easy,B,37,0.9898785269979271,0,1048.8731285520007,1049.8837111710018,,,,,,,,,,,,,,,,,,,,,,,,,,,,,,,,,,,112,148264,20,Female,1,2024/03/21_15:54:18,YZ,None,
,,,,,,test,1,2,3,583,1,V,0,right,0.22854303999702097,1,0,,,,,,,,,,,,,,,,,,,,,1,,,,,,,,,,,,,,,,,,,,,,,,,,,,,,,,,,,,,,,,,,,,,,112,148264,20,Female,1,2024/03/21_15:54:18,YZ,None,
,,,,,,test,1,2,3,583,2,V,0,right,0.36447515200052294,1,0,,,,,,,,,,,,,,,,,,,,,1,,,,,,,,,,,,,,,,,,,,,,,,,,,,,,,,,,,,,,,,,,,,,,112,148264,20,Female,1,2024/03/21_15:54:18,YZ,None,
,,,,,,test,1,2,3,583,3,J,0,right,0.38502592100121547,1,0,,,,,,,,,,,,,,,,,,,,,1,,,,,,,,,,,,,,,,,,,,,,,,,,,,,,,,,,,,,,,,,,,,,,112,148264,20,Female,1,2024/03/21_15:54:18,YZ,None,
,,,,,,test,1,2,3,583,4,V,1,left,0.3479867319983896,1,0,,,,,,,,,,,,,,,,,,,,,1,,,,,,,,,,,,,,,,,,,,,,,,,,,,,,,,,,,,,,,,,,,,,,112,148264,20,Female,1,2024/03/21_15:54:18,YZ,None,
,,,,,,test,1,2,3,583,5,X,0,right,0.3617359880008735,1,0,,,,,,,,,,,,,,,,,,,,,1,,,,,,,,,,,,,,,,,,,,,,,,,,,,,,,,,,,,,,,,,,,,,,112,148264,20,Female,1,2024/03/21_15:54:18,YZ,None,
,,,,,,test,1,2,3,583,6,S,0,right,0.44060591800007387,1,0,,,,,,,,,,,,,,,,,,,,,1,,,,,,,,,,,,,,,,,,,,,,,,,,,,,,,,,,,,,,,,,,,,,,112,148264,20,Female,1,2024/03/21_15:54:18,YZ,None,
,,,,,,test,1,2,3,583,7,F,0,right,0.4715010149993759,1,0,,,,,,,,,,,,,,,,,,,,,1,,,,,,,,,,,,,,,,,,,,,,,,,,,,,,,,,,,,,,,,,,,,,,112,148264,20,Female,1,2024/03/21_15:54:18,YZ,None,
,,,,,,test,1,2,3,583,8,X,1,right,0.5778986559998884,0,0,,,,,,,,,,,,,,,,,,,,,1,,,,,,,,,,,,,,,,,,,,,,,,,,,,,,,,,,,,,,,,,,,,,,112,148264,20,Female,1,2024/03/21_15:54:18,YZ,None,
,,,,,,test,1,2,3,583,9,S,1,left,0.5419999440018728,1,0,,,,,,,,,,,,,,,,,,,,,1,,,,,,,,,,,,,,,,,,,,,,,,,,,,,,,,,,,,,,,,,,,,,,112,148264,20,Female,1,2024/03/21_15:54:18,YZ,None,
,,,,,,test,1,2,3,583,10,S,0,left,0.4624653329992725,0,0,,,,,,,,,,,,,,,,,,,,,1,,,,,,,,,,,,,,,,,,,,,,,,,,,,,,,,,,,,,,,,,,,,,,112,148264,20,Female,1,2024/03/21_15:54:18,YZ,None,
,,,,,,test,1,2,3,583,11,X,1,left,0.44107121199704125,1,0,,,,,,,,,,,,,,,,,,,,,1,,,,,,,,,,,,,,,,,,,,,,,,,,,,,,,,,,,,,,,,,,,,,,112,148264,20,Female,1,2024/03/21_15:54:18,YZ,None,
,,,,,,test,1,2,3,583,12,C,0,right,0.3358639920006681,1,0,,,,,,,,,,,,,,,,,,,,,1,,,,,,,,,,,,,,,,,,,,,,,,,,,,,,,,,,,,,,,,,,,,,,112,148264,20,Female,1,2024/03/21_15:54:18,YZ,None,
,,,,,,test,1,2,3,583,13,V,0,right,0.3693495469997288,1,0,,,,,,,,,,,,,,,,,,,,,1,,,,,,,,,,,,,,,,,,,,,,,,,,,,,,,,,,,,,,,,,,,,,,112,148264,20,Female,1,2024/03/21_15:54:18,YZ,None,
,,,,,,test,1,2,3,583,14,C,0,right,0.30112007400020957,1,0,,,,,,,,,,,,,,,,,,,,,1,,,,,,,,,,,,,,,,,,,,,,,,,,,,,,,,,,,,,,,,,,,,,,112,148264,20,Female,1,2024/03/21_15:54:18,YZ,None,
,,,,,,test,1,2,3,583,15,J,0,right,0.4486411119978584,1,0,,,,,,,,,,,,,,,,,,,,,1,,,,,,,,,,,,,,,,,,,,,,,,,,,,,,,,,,,,,,,,,,,,,,112,148264,20,Female,1,2024/03/21_15:54:18,YZ,None,
,,,,,,Test,1,2,3,583,,,,,,,,0.8920454545454546,0.75,0.09090909090909091,0.9090909090909091,0.0,0.9090909090909091,0.40521890906626745,3,1,0,0,0,10,13,4,11,0,,,,1,,,,,,,,,,,,,,,,,,,,,,,,,,,,,,,,,,,,,,,,,,,,,,112,148264,20,Female,1,2024/03/21_15:54:18,YZ,None,
,,,,,240321_161738,TEST,1,2,3,583,,,,,,,,,,,,,,,,,,,,,,,,,,,,1,2,2,2,cue1.png,hard,B,34,0.6221499450002739,0,1073.691306883,1074.3344503980006,,,,,,,,,,,,,,,,,,,,,,,,,,,,,,,,,,,112,148264,20,Female,1,2024/03/21_15:54:18,YZ,None,
,,,,,,test,1,3,3,583,1,N,0,right,0.49117527099951985,1,0,,,,,,,,,,,,,,,,,,,,,1,,,,,,,,,,,,,,,,,,,,,,,,,,,,,,,,,,,,,,,,,,,,,,112,148264,20,Female,1,2024/03/21_15:54:18,YZ,None,
,,,,,,test,1,3,3,583,2,X,0,right,0.3698583219993452,1,0,,,,,,,,,,,,,,,,,,,,,1,,,,,,,,,,,,,,,,,,,,,,,,,,,,,,,,,,,,,,,,,,,,,,112,148264,20,Female,1,2024/03/21_15:54:18,YZ,None,
,,,,,,test,1,3,3,583,3,C,0,right,0.4795893949994934,1,0,,,,,,,,,,,,,,,,,,,,,1,,,,,,,,,,,,,,,,,,,,,,,,,,,,,,,,,,,,,,,,,,,,,,112,148264,20,Female,1,2024/03/21_15:54:18,YZ,None,
,,,,,,test,1,3,3,583,4,V,0,right,0.37262274699969566,1,0,,,,,,,,,,,,,,,,,,,,,1,,,,,,,,,,,,,,,,,,,,,,,,,,,,,,,,,,,,,,,,,,,,,,112,148264,20,Female,1,2024/03/21_15:54:18,YZ,None,
,,,,,,test,1,3,3,583,5,S,0,right,0.44008828699952574,1,0,,,,,,,,,,,,,,,,,,,,,1,,,,,,,,,,,,,,,,,,,,,,,,,,,,,,,,,,,,,,,,,,,,,,112,148264,20,Female,1,2024/03/21_15:54:18,YZ,None,
,,,,,,test,1,3,3,583,6,C,1,left,0.5646997960029694,1,0,,,,,,,,,,,,,,,,,,,,,1,,,,,,,,,,,,,,,,,,,,,,,,,,,,,,,,,,,,,,,,,,,,,,112,148264,20,Female,1,2024/03/21_15:54:18,YZ,None,
,,,,,,test,1,3,3,583,7,V,1,left,0.44388682399949175,1,0,,,,,,,,,,,,,,,,,,,,,1,,,,,,,,,,,,,,,,,,,,,,,,,,,,,,,,,,,,,,,,,,,,,,112,148264,20,Female,1,2024/03/21_15:54:18,YZ,None,
,,,,,,test,1,3,3,583,8,V,0,left,0.4534686170009081,0,0,,,,,,,,,,,,,,,,,,,,,1,,,,,,,,,,,,,,,,,,,,,,,,,,,,,,,,,,,,,,,,,,,,,,112,148264,20,Female,1,2024/03/21_15:54:18,YZ,None,
,,,,,,test,1,3,3,583,9,F,0,right,0.37786495800173725,1,0,,,,,,,,,,,,,,,,,,,,,1,,,,,,,,,,,,,,,,,,,,,,,,,,,,,,,,,,,,,,,,,,,,,,112,148264,20,Female,1,2024/03/21_15:54:18,YZ,None,
,,,,,,test,1,3,3,583,10,V,1,left,0.4805253519989492,1,0,,,,,,,,,,,,,,,,,,,,,1,,,,,,,,,,,,,,,,,,,,,,,,,,,,,,,,,,,,,,,,,,,,,,112,148264,20,Female,1,2024/03/21_15:54:18,YZ,None,
,,,,,,test,1,3,3,583,11,V,1,left,0.4366421470003843,1,0,,,,,,,,,,,,,,,,,,,,,1,,,,,,,,,,,,,,,,,,,,,,,,,,,,,,,,,,,,,,,,,,,,,,112,148264,20,Female,1,2024/03/21_15:54:18,YZ,None,
,,,,,,test,1,3,3,583,12,Q,0,right,0.3361859549986548,1,0,,,,,,,,,,,,,,,,,,,,,1,,,,,,,,,,,,,,,,,,,,,,,,,,,,,,,,,,,,,,,,,,,,,,112,148264,20,Female,1,2024/03/21_15:54:18,YZ,None,
,,,,,,test,1,3,3,583,13,F,0,left,0.3218805309988966,0,0,,,,,,,,,,,,,,,,,,,,,1,,,,,,,,,,,,,,,,,,,,,,,,,,,,,,,,,,,,,,,,,,,,,,112,148264,20,Female,1,2024/03/21_15:54:18,YZ,None,
,,,,,,test,1,3,3,583,14,J,0,right,0.3204921020005713,1,0,,,,,,,,,,,,,,,,,,,,,1,,,,,,,,,,,,,,,,,,,,,,,,,,,,,,,,,,,,,,,,,,,,,,112,148264,20,Female,1,2024/03/21_15:54:18,YZ,None,
,,,,,,test,1,3,3,583,15,J,0,left,0.41079030400214833,0,0,,,,,,,,,,,,,,,,,,,,,1,,,,,,,,,,,,,,,,,,,,,,,,,,,,,,,,,,,,,,,,,,,,,,112,148264,20,Female,1,2024/03/21_15:54:18,YZ,None,
,,,,,,Test,1,3,3,583,,,,,,,,0.9318181818181819,1.0,0.2727272727272727,0.7272727272727273,0.0,0.7272727272727273,0.41998470720015274,4,3,0,0,0,8,12,4,11,0,,,,1,,,,,,,,,,,,,,,,,,,,,,,,,,,,,,,,,,,,,,,,,,,,,,112,148264,20,Female,1,2024/03/21_15:54:18,YZ,None,
,,,,,240321_161802,TEST,1,3,3,583,,,,,,,,,,,,,,,,,,,,,,,,,,,,1,3,3,3,cue1.png,hard,B,35,0.5451052919997892,0,1097.3922795860017,1097.9572309959985,,,,,,,,,,,,,,,,,,,,,,,,,,,,,,,,,,,112,148264,20,Female,1,2024/03/21_15:54:18,YZ,None,
,,,,,,test,1,4,3,583,1,X,0,right,0.380856178002432,1,0,,,,,,,,,,,,,,,,,,,,,1,,,,,,,,,,,,,,,,,,,,,,,,,,,,,,,,,,,,,,,,,,,,,,112,148264,20,Female,1,2024/03/21_15:54:18,YZ,None,
,,,,,,test,1,4,3,583,2,C,0,right,0.31642572400232893,1,0,,,,,,,,,,,,,,,,,,,,,1,,,,,,,,,,,,,,,,,,,,,,,,,,,,,,,,,,,,,,,,,,,,,,112,148264,20,Female,1,2024/03/21_15:54:18,YZ,None,
,,,,,,test,1,4,3,583,3,J,0,right,0.29741049199947156,1,0,,,,,,,,,,,,,,,,,,,,,1,,,,,,,,,,,,,,,,,,,,,,,,,,,,,,,,,,,,,,,,,,,,,,112,148264,20,Female,1,2024/03/21_15:54:18,YZ,None,
,,,,,,test,1,4,3,583,4,C,0,left,0.32466756199937663,0,0,,,,,,,,,,,,,,,,,,,,,1,,,,,,,,,,,,,,,,,,,,,,,,,,,,,,,,,,,,,,,,,,,,,,112,148264,20,Female,1,2024/03/21_15:54:18,YZ,None,
,,,,,,test,1,4,3,583,5,C,1,left,0.41672662400014815,1,0,,,,,,,,,,,,,,,,,,,,,1,,,,,,,,,,,,,,,,,,,,,,,,,,,,,,,,,,,,,,,,,,,,,,112,148264,20,Female,1,2024/03/21_15:54:18,YZ,None,
,,,,,,test,1,4,3,583,6,S,0,right,0.33641235400136793,1,0,,,,,,,,,,,,,,,,,,,,,1,,,,,,,,,,,,,,,,,,,,,,,,,,,,,,,,,,,,,,,,,,,,,,112,148264,20,Female,1,2024/03/21_15:54:18,YZ,None,
,,,,,,test,1,4,3,583,7,X,0,left,0.4047132009982306,0,0,,,,,,,,,,,,,,,,,,,,,1,,,,,,,,,,,,,,,,,,,,,,,,,,,,,,,,,,,,,,,,,,,,,,112,148264,20,Female,1,2024/03/21_15:54:18,YZ,None,
,,,,,,test,1,4,3,583,8,C,1,right,0.40939501500179176,0,0,,,,,,,,,,,,,,,,,,,,,1,,,,,,,,,,,,,,,,,,,,,,,,,,,,,,,,,,,,,,,,,,,,,,112,148264,20,Female,1,2024/03/21_15:54:18,YZ,None,
,,,,,,test,1,4,3,583,9,S,1,right,0.29323156800091965,0,0,,,,,,,,,,,,,,,,,,,,,1,,,,,,,,,,,,,,,,,,,,,,,,,,,,,,,,,,,,,,,,,,,,,,112,148264,20,Female,1,2024/03/21_15:54:18,YZ,None,
,,,,,,test,1,4,3,583,10,F,0,left,0.3381240839989914,0,0,,,,,,,,,,,,,,,,,,,,,1,,,,,,,,,,,,,,,,,,,,,,,,,,,,,,,,,,,,,,,,,,,,,,112,148264,20,Female,1,2024/03/21_15:54:18,YZ,None,
,,,,,,test,1,4,3,583,11,F,0,left,0.3274108879995765,0,0,,,,,,,,,,,,,,,,,,,,,1,,,,,,,,,,,,,,,,,,,,,,,,,,,,,,,,,,,,,,,,,,,,,,112,148264,20,Female,1,2024/03/21_15:54:18,YZ,None,
,,,,,,test,1,4,3,583,12,C,0,right,0.42843895300029544,1,0,,,,,,,,,,,,,,,,,,,,,1,,,,,,,,,,,,,,,,,,,,,,,,,,,,,,,,,,,,,,,,,,,,,,112,148264,20,Female,1,2024/03/21_15:54:18,YZ,None,
,,,,,,test,1,4,3,583,13,F,1,left,0.2764030920006917,1,0,,,,,,,,,,,,,,,,,,,,,1,,,,,,,,,,,,,,,,,,,,,,,,,,,,,,,,,,,,,,,,,,,,,,112,148264,20,Female,1,2024/03/21_15:54:18,YZ,None,
,,,,,,test,1,4,3,583,14,C,0,left,0.46038816700092866,0,0,,,,,,,,,,,,,,,,,,,,,1,,,,,,,,,,,,,,,,,,,,,,,,,,,,,,,,,,,,,,,,,,,,,,112,148264,20,Female,1,2024/03/21_15:54:18,YZ,None,
,,,,,,test,1,4,3,583,15,S,0,right,0.5410325800003193,1,0,,,,,,,,,,,,,,,,,,,,,1,,,,,,,,,,,,,,,,,,,,,,,,,,,,,,,,,,,,,,,,,,,,,,112,148264,20,Female,1,2024/03/21_15:54:18,YZ,None,
,,,,,,Test,1,4,3,583,,,,,,,,0.5340909090909091,0.5,0.45454545454545453,0.5454545454545454,0.0,0.5454545454545454,0.370109098800458,2,5,0,0,0,6,8,4,11,0,,,,1,,,,,,,,,,,,,,,,,,,,,,,,,,,,,,,,,,,,,,,,,,,,,,112,148264,20,Female,1,2024/03/21_15:54:18,YZ,None,
,,,,,240321_161826,TEST,1,4,3,583,,,,,,,,,,,,,,,,,,,,,,,,,,,,1,4,4,4,cue1.png,hard,B,29,1.855295991001185,0,1121.2372324770004,1123.1095199769989,,,,,,,,,,,,,,,,,,,,,,,,,,,,,,,,,,,112,148264,20,Female,1,2024/03/21_15:54:18,YZ,None,
,,,,,,test,1,5,1,583,1,X,0,right,0.575868908999837,1,0,,,,,,,,,,,,,,,,,,,,,1,,,,,,,,,,,,,,,,,,,,,,,,,,,,,,,,,,,,,,,,,,,,,,112,148264,20,Female,1,2024/03/21_15:54:18,YZ,None,
,,,,,,test,1,5,1,583,2,V,0,right,0.3842608810009551,1,0,,,,,,,,,,,,,,,,,,,,,1,,,,,,,,,,,,,,,,,,,,,,,,,,,,,,,,,,,,,,,,,,,,,,112,148264,20,Female,1,2024/03/21_15:54:18,YZ,None,
,,,,,,test,1,5,1,583,3,F,0,right,0.44958778100044583,1,0,,,,,,,,,,,,,,,,,,,,,1,,,,,,,,,,,,,,,,,,,,,,,,,,,,,,,,,,,,,,,,,,,,,,112,148264,20,Female,1,2024/03/21_15:54:18,YZ,None,
,,,,,,test,1,5,1,583,4,F,1,left,0.3123229390002962,1,0,,,,,,,,,,,,,,,,,,,,,1,,,,,,,,,,,,,,,,,,,,,,,,,,,,,,,,,,,,,,,,,,,,,,112,148264,20,Female,1,2024/03/21_15:54:18,YZ,None,
,,,,,,test,1,5,1,583,5,S,0,right,0.3206994850006595,1,0,,,,,,,,,,,,,,,,,,,,,1,,,,,,,,,,,,,,,,,,,,,,,,,,,,,,,,,,,,,,,,,,,,,,112,148264,20,Female,1,2024/03/21_15:54:18,YZ,None,
,,,,,,test,1,5,1,583,6,Q,0,right,0.3837817969979369,1,0,,,,,,,,,,,,,,,,,,,,,1,,,,,,,,,,,,,,,,,,,,,,,,,,,,,,,,,,,,,,,,,,,,,,112,148264,20,Female,1,2024/03/21_15:54:18,YZ,None,
,,,,,,test,1,5,1,583,7,Q,1,left,0.5178998219998903,1,0,,,,,,,,,,,,,,,,,,,,,1,,,,,,,,,,,,,,,,,,,,,,,,,,,,,,,,,,,,,,,,,,,,,,112,148264,20,Female,1,2024/03/21_15:54:18,YZ,None,
,,,,,,test,1,5,1,583,8,X,0,right,0.4086256829978083,1,0,,,,,,,,,,,,,,,,,,,,,1,,,,,,,,,,,,,,,,,,,,,,,,,,,,,,,,,,,,,,,,,,,,,,112,148264,20,Female,1,2024/03/21_15:54:18,YZ,None,
,,,,,,test,1,5,1,583,9,F,0,right,0.46585951700035366,1,0,,,,,,,,,,,,,,,,,,,,,1,,,,,,,,,,,,,,,,,,,,,,,,,,,,,,,,,,,,,,,,,,,,,,112,148264,20,Female,1,2024/03/21_15:54:18,YZ,None,
,,,,,,test,1,5,1,583,10,F,1,left,0.37629648800066207,1,0,,,,,,,,,,,,,,,,,,,,,1,,,,,,,,,,,,,,,,,,,,,,,,,,,,,,,,,,,,,,,,,,,,,,112,148264,20,Female,1,2024/03/21_15:54:18,YZ,None,
,,,,,,test,1,5,1,583,11,X,0,left,0.4364585849980358,0,0,,,,,,,,,,,,,,,,,,,,,1,,,,,,,,,,,,,,,,,,,,,,,,,,,,,,,,,,,,,,,,,,,,,,112,148264,20,Female,1,2024/03/21_15:54:18,YZ,None,
,,,,,,test,1,5,1,583,12,X,1,left,0.4477748520002933,1,0,,,,,,,,,,,,,,,,,,,,,1,,,,,,,,,,,,,,,,,,,,,,,,,,,,,,,,,,,,,,,,,,,,,,112,148264,20,Female,1,2024/03/21_15:54:18,YZ,None,
,,,,,,test,1,5,1,583,13,V,0,right,0.4128044030003366,1,0,,,,,,,,,,,,,,,,,,,,,1,,,,,,,,,,,,,,,,,,,,,,,,,,,,,,,,,,,,,,,,,,,,,,112,148264,20,Female,1,2024/03/21_15:54:18,YZ,None,
,,,,,,test,1,5,1,583,14,J,0,right,0.388939462001872,1,0,,,,,,,,,,,,,,,,,,,,,1,,,,,,,,,,,,,,,,,,,,,,,,,,,,,,,,,,,,,,,,,,,,,,112,148264,20,Female,1,2024/03/21_15:54:18,YZ,None,
