Instruction,Stimulus,Key,RT,START,END,Phase,Block,TrialN,NbackLevel,ISI,LetterN,Letter,Letter_isSame,Letter_Resp,Letter_RT,Letter_Accuracy,Letter_Timeout,Trial_A_measure,Trial_HR,Trial_FAR,Trial_CDR,Trial_MSR,Trial_ACC,Trial_RT,Trial_HitsCount,Trial_FAsCount,Trial_SameNoRespCount,Trial_DiffNoRespCount,Trial_NoRespCount,Trial_CDsCount,Trial_CorrectRespCount,Trial_SameLetterCount,Trial_DiffLetterCount,Trial_InvalidLetterCount,TrialCountCali,CaliEnd_A_measure,ISI_calibrated,Run,TrialIndex,TrialNumber_total,TrialNumber_valid,CueLearning,TrialDemandLearning,CueMapping,OnlineRating,OnlineRatingRT,OnlineRatingTimeOut,CueSTART,RatingSTART,OfflineRatingTimePoint,OfflineRatingQuesIndex,CueFigure,TrialDemand,OfflineRating,OfflineRatingRT,CueStart,OfflineRatingStart,PhaseType,CueLeft,CueDemandLeft,CueRight,CueDemandRight,Choice,ChoiceDemand,TaskDemand,ChoiceRT,ChoiceTimeOut,ChoiceSTART,CueCheck,CueDemandCheck,CorrectAnswer,Answer,AnswerDemand,AnswerRT,AnswerACC,AnswerTimeOut,CheckSTART,DemandRatingQuesIndex,QuesTLX,DemandLevel,DemandRating,DemandRatingRT,QuesStart,PID,SONA,Age,Gender,Run,TIME,EXPERIMENTER,frameRate,
1,./instructions/inst_begin/Slide2.png,right,22.354654636001214,0.11414811399299651,22.46880274999421,,,,,,,,,,,,,,,,,,,,,,,,,,,,,,,,,1,,,,,,,,,,,,,,,,,,,,,,,,,,,,,,,,,,,,,,,,,,,,,,67,147346,20,Female,1,2024/02/19_16:23:49,YZ,None,
2,./instructions/inst_begin/Slide3.png,right,11.074631502007833,22.498323557985714,33.57295505999355,,,,,,,,,,,,,,,,,,,,,,,,,,,,,,,,,1,,,,,,,,,,,,,,,,,,,,,,,,,,,,,,,,,,,,,,,,,,,,,,67,147346,20,Female,1,2024/02/19_16:23:49,YZ,None,
3,./instructions/inst_begin/Slide4.png,right,5.244313695002347,33.600490827986505,38.84480452298885,,,,,,,,,,,,,,,,,,,,,,,,,,,,,,,,,1,,,,,,,,,,,,,,,,,,,,,,,,,,,,,,,,,,,,,,,,,,,,,,67,147346,20,Female,1,2024/02/19_16:23:49,YZ,None,
1,./instructions/inst_prac_2/Slide6.png,right,14.470625129994005,38.87822011299431,53.34884524298832,,,,,,,,,,,,,,,,,,,,,,,,,,,,,,,,,1,,,,,,,,,,,,,,,,,,,,,,,,,,,,,,,,,,,,,,,,,,,,,,67,147346,20,Female,1,2024/02/19_16:23:49,YZ,None,
2,./instructions/inst_prac_2/Slide7.png,right,10.218994183000177,53.37779722100822,63.5967914040084,,,,,,,,,,,,,,,,,,,,,,,,,,,,,,,,,1,,,,,,,,,,,,,,,,,,,,,,,,,,,,,,,,,,,,,,,,,,,,,,67,147346,20,Female,1,2024/02/19_16:23:49,YZ,None,
3,./instructions/inst_prac_2/Slide8.png,right,7.7177925709984265,63.62314952298766,71.34094209398609,,,,,,,,,,,,,,,,,,,,,,,,,,,,,,,,,1,,,,,,,,,,,,,,,,,,,,,,,,,,,,,,,,,,,,,,,,,,,,,,67,147346,20,Female,1,2024/02/19_16:23:49,YZ,None,
4,./instructions/inst_prac_2/Slide9.png,right,2.355300507013453,71.36938691799878,73.72468742501223,,,,,,,,,,,,,,,,,,,,,,,,,,,,,,,,,1,,,,,,,,,,,,,,,,,,,,,,,,,,,,,,,,,,,,,,,,,,,,,,67,147346,20,Female,1,2024/02/19_16:23:49,YZ,None,
5,./instructions/inst_prac_2/Slide10.png,right,1.3393074909981806,73.7535667020129,75.09287419301108,,,,,,,,,,,,,,,,,,,,,,,,,,,,,,,,,1,,,,,,,,,,,,,,,,,,,,,,,,,,,,,,,,,,,,,,,,,,,,,,67,147346,20,Female,1,2024/02/19_16:23:49,YZ,None,
6,./instructions/inst_prac_2/Slide11.png,right,2.0595083980006166,75.12133436699514,77.18084276499576,,,,,,,,,,,,,,,,,,,,,,,,,,,,,,,,,1,,,,,,,,,,,,,,,,,,,,,,,,,,,,,,,,,,,,,,,,,,,,,,67,147346,20,Female,1,2024/02/19_16:23:49,YZ,None,
7,./instructions/inst_prac_2/Slide12.png,right,0.8912662189977709,77.20950107899262,78.10076729799039,,,,,,,,,,,,,,,,,,,,,,,,,,,,,,,,,1,,,,,,,,,,,,,,,,,,,,,,,,,,,,,,,,,,,,,,,,,,,,,,67,147346,20,Female,1,2024/02/19_16:23:49,YZ,None,
8,./instructions/inst_prac_2/Slide13.png,right,1.5235689469845966,78.12927991501056,79.65284886199515,,,,,,,,,,,,,,,,,,,,,,,,,,,,,,,,,1,,,,,,,,,,,,,,,,,,,,,,,,,,,,,,,,,,,,,,,,,,,,,,67,147346,20,Female,1,2024/02/19_16:23:49,YZ,None,
9,./instructions/inst_prac_2/Slide14.png,right,9.746997612004634,79.6818882219959,89.42888583400054,,,,,,,,,,,,,,,,,,,,,,,,,,,,,,,,,1,,,,,,,,,,,,,,,,,,,,,,,,,,,,,,,,,,,,,,,,,,,,,,67,147346,20,Female,1,2024/02/19_16:23:49,YZ,None,
10,./instructions/inst_prac_2/Slide15.png,right,14.611569847998908,89.4573394159961,104.06890926399501,,,,,,,,,,,,,,,,,,,,,,,,,,,,,,,,,1,,,,,,,,,,,,,,,,,,,,,,,,,,,,,,,,,,,,,,,,,,,,,,67,147346,20,Female,1,2024/02/19_16:23:49,YZ,None,
,,,,,,practice,0,20,2,2583,1,S,0,right,1.7720892080105841,1,0,,,,,,,,,,,,,,,,,,,,,1,,,,,,,,,,,,,,,,,,,,,,,,,,,,,,,,,,,,,,,,,,,,,,67,147346,20,Female,1,2024/02/19_16:23:49,YZ,None,
,,,,,,practice,0,20,2,2583,2,F,0,right,0.7650675129843876,1,0,,,,,,,,,,,,,,,,,,,,,1,,,,,,,,,,,,,,,,,,,,,,,,,,,,,,,,,,,,,,,,,,,,,,67,147346,20,Female,1,2024/02/19_16:23:49,YZ,None,
,,,,,,practice,0,20,2,2583,3,S,1,left,0.7365988839883357,1,0,,,,,,,,,,,,,,,,,,,,,1,,,,,,,,,,,,,,,,,,,,,,,,,,,,,,,,,,,,,,,,,,,,,,67,147346,20,Female,1,2024/02/19_16:23:49,YZ,None,
,,,,,,practice,0,20,2,2583,4,N,0,right,1.278861730999779,1,0,,,,,,,,,,,,,,,,,,,,,1,,,,,,,,,,,,,,,,,,,,,,,,,,,,,,,,,,,,,,,,,,,,,,67,147346,20,Female,1,2024/02/19_16:23:49,YZ,None,
,,,,,,practice,0,20,2,2583,5,S,1,left,1.4645398489956278,1,0,,,,,,,,,,,,,,,,,,,,,1,,,,,,,,,,,,,,,,,,,,,,,,,,,,,,,,,,,,,,,,,,,,,,67,147346,20,Female,1,2024/02/19_16:23:49,YZ,None,
,,,,,,practice,0,20,2,2583,6,C,0,right,0.852974086010363,1,0,,,,,,,,,,,,,,,,,,,,,1,,,,,,,,,,,,,,,,,,,,,,,,,,,,,,,,,,,,,,,,,,,,,,67,147346,20,Female,1,2024/02/19_16:23:49,YZ,None,
,,,,,,practice,0,20,2,2583,,,,,,,,1.0,1.0,0.0,1.0,0.0,1.0,1.1450218784981796,2,0,0,0,0,4,6,2,4,0,,,,1,,,,,,,,,,,,,,,,,,,,,,,,,,,,,,,,,,,,,,,,,,,,,,67,147346,20,Female,1,2024/02/19_16:23:49,YZ,None,
1,./instructions/inst_to_cali/Slide20.png,right,4.977278687001672,117.27563525599544,122.25291394299711,,,,,,,,,,,,,,,,,,,,,,,,,,,,,,,,,1,,,,,,,,,,,,,,,,,,,,,,,,,,,,,,,,,,,,,,,,,,,,,,67,147346,20,Female,1,2024/02/19_16:23:49,YZ,None,
1,./instructions/inst_cali/Slide22.png,right,2.7939405610086396,122.28276639498654,125.07670695599518,,,,,,,,,,,,,,,,,,,,,,,,,,,,,,,,,1,,,,,,,,,,,,,,,,,,,,,,,,,,,,,,,,,,,,,,,,,,,,,,67,147346,20,Female,1,2024/02/19_16:23:49,YZ,None,
,,,,,,calibration,0,14,2,583,1,X,0,right,0.8950856139999814,1,0,,,,,,,,,,,,,,,,,,,,,1,,,,,,,,,,,,,,,,,,,,,,,,,,,,,,,,,,,,,,,,,,,,,,67,147346,20,Female,1,2024/02/19_16:23:49,YZ,None,
,,,,,,calibration,0,14,2,583,2,Q,0,right,0.9241403780179098,1,0,,,,,,,,,,,,,,,,,,,,,1,,,,,,,,,,,,,,,,,,,,,,,,,,,,,,,,,,,,,,,,,,,,,,67,147346,20,Female,1,2024/02/19_16:23:49,YZ,None,
,,,,,,calibration,0,14,2,583,3,S,0,right,0.8406323879898991,1,0,,,,,,,,,,,,,,,,,,,,,1,,,,,,,,,,,,,,,,,,,,,,,,,,,,,,,,,,,,,,,,,,,,,,67,147346,20,Female,1,2024/02/19_16:23:49,YZ,None,
,,,,,,calibration,0,14,2,583,4,Q,1,left,0.671989566006232,1,0,,,,,,,,,,,,,,,,,,,,,1,,,,,,,,,,,,,,,,,,,,,,,,,,,,,,,,,,,,,,,,,,,,,,67,147346,20,Female,1,2024/02/19_16:23:49,YZ,None,
,,,,,,calibration,0,14,2,583,5,V,0,right,0.7854039900121279,1,0,,,,,,,,,,,,,,,,,,,,,1,,,,,,,,,,,,,,,,,,,,,,,,,,,,,,,,,,,,,,,,,,,,,,67,147346,20,Female,1,2024/02/19_16:23:49,YZ,None,
,,,,,,calibration,0,14,2,583,6,Q,1,left,0.8244343190162908,1,0,,,,,,,,,,,,,,,,,,,,,1,,,,,,,,,,,,,,,,,,,,,,,,,,,,,,,,,,,,,,,,,,,,,,67,147346,20,Female,1,2024/02/19_16:23:49,YZ,None,
,,,,,,calibration,0,14,2,583,7,C,0,right,0.7623523899819702,1,0,,,,,,,,,,,,,,,,,,,,,1,,,,,,,,,,,,,,,,,,,,,,,,,,,,,,,,,,,,,,,,,,,,,,67,147346,20,Female,1,2024/02/19_16:23:49,YZ,None,
,,,,,,calibration,0,14,2,583,8,Q,1,right,0.7921549349848647,0,0,,,,,,,,,,,,,,,,,,,,,1,,,,,,,,,,,,,,,,,,,,,,,,,,,,,,,,,,,,,,,,,,,,,,67,147346,20,Female,1,2024/02/19_16:23:49,YZ,None,
,,,,,,calibration,0,14,2,583,9,V,0,right,0.8051776789943688,1,0,,,,,,,,,,,,,,,,,,,,,1,,,,,,,,,,,,,,,,,,,,,,,,,,,,,,,,,,,,,,,,,,,,,,67,147346,20,Female,1,2024/02/19_16:23:49,YZ,None,
,,,,,,calibration,0,14,2,583,10,Q,1,left,0.6314919199794531,1,0,,,,,,,,,,,,,,,,,,,,,1,,,,,,,,,,,,,,,,,,,,,,,,,,,,,,,,,,,,,,,,,,,,,,67,147346,20,Female,1,2024/02/19_16:23:49,YZ,None,
,,,,,,calibration,0,14,2,583,11,V,1,left,0.6152245900011621,1,0,,,,,,,,,,,,,,,,,,,,,1,,,,,,,,,,,,,,,,,,,,,,,,,,,,,,,,,,,,,,,,,,,,,,67,147346,20,Female,1,2024/02/19_16:23:49,YZ,None,
,,,,,,calibration,0,14,2,583,12,S,0,right,0.7586176590120886,1,0,,,,,,,,,,,,,,,,,,,,,1,,,,,,,,,,,,,,,,,,,,,,,,,,,,,,,,,,,,,,,,,,,,,,67,147346,20,Female,1,2024/02/19_16:23:49,YZ,None,
,,,,,,calibration,0,14,2,583,13,Q,0,right,0.8785235669929534,1,0,,,,,,,,,,,,,,,,,,,,,1,,,,,,,,,,,,,,,,,,,,,,,,,,,,,,,,,,,,,,,,,,,,,,67,147346,20,Female,1,2024/02/19_16:23:49,YZ,None,
,,,,,,calibration,0,14,2,583,14,J,0,right,0.7925808409927413,1,0,,,,,,,,,,,,,,,,,,,,,1,,,,,,,,,,,,,,,,,,,,,,,,,,,,,,,,,,,,,,,,,,,,,,67,147346,20,Female,1,2024/02/19_16:23:49,YZ,None,
,,,,,,calibration,0,14,2,583,15,V,0,right,0.7421601039823145,1,0,,,,,,,,,,,,,,,,,,,,,1,,,,,,,,,,,,,,,,,,,,,,,,,,,,,,,,,,,,,,,,,,,,,,67,147346,20,Female,1,2024/02/19_16:23:49,YZ,None,
,,,,,,calibration,0,14,2,583,,,,,,,,0.95,0.8,0.0,1.0,0.0,1.0,0.7813313293309572,4,0,0,0,0,10,14,5,10,0,,,,1,,,,,,,,,,,,,,,,,,,,,,,,,,,,,,,,,,,,,,,,,,,,,,67,147346,20,Female,1,2024/02/19_16:23:49,YZ,None,
,,,,,,Calibration,0,,2,583,,,,,,,,,,,,,,,,,,,,,,,,,1,,,1,,,,,,,,,,,,,,,,,,,,,,,,,,,,,,,,,,,,,,,,,,,,,,67,147346,20,Female,1,2024/02/19_16:23:49,YZ,None,
,,,,,,calibration,0,9,2,500,1,J,0,right,0.5985685710038524,1,0,,,,,,,,,,,,,,,,,,,,,1,,,,,,,,,,,,,,,,,,,,,,,,,,,,,,,,,,,,,,,,,,,,,,67,147346,20,Female,1,2024/02/19_16:23:49,YZ,None,
,,,,,,calibration,0,9,2,500,2,N,0,right,0.6772448440024164,1,0,,,,,,,,,,,,,,,,,,,,,1,,,,,,,,,,,,,,,,,,,,,,,,,,,,,,,,,,,,,,,,,,,,,,67,147346,20,Female,1,2024/02/19_16:23:49,YZ,None,
,,,,,,calibration,0,9,2,500,3,J,1,left,0.5419120489968918,1,0,,,,,,,,,,,,,,,,,,,,,1,,,,,,,,,,,,,,,,,,,,,,,,,,,,,,,,,,,,,,,,,,,,,,67,147346,20,Female,1,2024/02/19_16:23:49,YZ,None,
,,,,,,calibration,0,9,2,500,4,F,0,right,0.7948608819860965,1,0,,,,,,,,,,,,,,,,,,,,,1,,,,,,,,,,,,,,,,,,,,,,,,,,,,,,,,,,,,,,,,,,,,,,67,147346,20,Female,1,2024/02/19_16:23:49,YZ,None,
,,,,,,calibration,0,9,2,500,5,C,0,right,0.6492163040093146,1,0,,,,,,,,,,,,,,,,,,,,,1,,,,,,,,,,,,,,,,,,,,,,,,,,,,,,,,,,,,,,,,,,,,,,67,147346,20,Female,1,2024/02/19_16:23:49,YZ,None,
,,,,,,calibration,0,9,2,500,6,F,1,left,0.5915116629912518,1,0,,,,,,,,,,,,,,,,,,,,,1,,,,,,,,,,,,,,,,,,,,,,,,,,,,,,,,,,,,,,,,,,,,,,67,147346,20,Female,1,2024/02/19_16:23:49,YZ,None,
,,,,,,calibration,0,9,2,500,7,X,0,right,0.5532596789998934,1,0,,,,,,,,,,,,,,,,,,,,,1,,,,,,,,,,,,,,,,,,,,,,,,,,,,,,,,,,,,,,,,,,,,,,67,147346,20,Female,1,2024/02/19_16:23:49,YZ,None,
,,,,,,calibration,0,9,2,500,8,J,0,right,0.7552597459871322,1,0,,,,,,,,,,,,,,,,,,,,,1,,,,,,,,,,,,,,,,,,,,,,,,,,,,,,,,,,,,,,,,,,,,,,67,147346,20,Female,1,2024/02/19_16:23:49,YZ,None,
,,,,,,calibration,0,9,2,500,9,Q,0,right,0.6391243329853751,1,0,,,,,,,,,,,,,,,,,,,,,1,,,,,,,,,,,,,,,,,,,,,,,,,,,,,,,,,,,,,,,,,,,,,,67,147346,20,Female,1,2024/02/19_16:23:49,YZ,None,
,,,,,,calibration,0,9,2,500,10,J,1,left,0.42290802602656186,1,0,,,,,,,,,,,,,,,,,,,,,1,,,,,,,,,,,,,,,,,,,,,,,,,,,,,,,,,,,,,,,,,,,,,,67,147346,20,Female,1,2024/02/19_16:23:49,YZ,None,
,,,,,,calibration,0,9,2,500,11,F,0,right,0.6151347509876359,1,0,,,,,,,,,,,,,,,,,,,,,1,,,,,,,,,,,,,,,,,,,,,,,,,,,,,,,,,,,,,,,,,,,,,,67,147346,20,Female,1,2024/02/19_16:23:49,YZ,None,
,,,,,,calibration,0,9,2,500,12,J,1,right,0.6483263219997752,0,0,,,,,,,,,,,,,,,,,,,,,1,,,,,,,,,,,,,,,,,,,,,,,,,,,,,,,,,,,,,,,,,,,,,,67,147346,20,Female,1,2024/02/19_16:23:49,YZ,None,
,,,,,,calibration,0,9,2,500,13,F,1,left,0.6074336709862109,1,0,,,,,,,,,,,,,,,,,,,,,1,,,,,,,,,,,,,,,,,,,,,,,,,,,,,,,,,,,,,,,,,,,,,,67,147346,20,Female,1,2024/02/19_16:23:49,YZ,None,
,,,,,,calibration,0,9,2,500,14,X,0,right,0.5651999859837815,1,0,,,,,,,,,,,,,,,,,,,,,1,,,,,,,,,,,,,,,,,,,,,,,,,,,,,,,,,,,,,,,,,,,,,,67,147346,20,Female,1,2024/02/19_16:23:49,YZ,None,
,,,,,,calibration,0,9,2,500,15,V,0,right,0.6506924759887625,1,0,,,,,,,,,,,,,,,,,,,,,1,,,,,,,,,,,,,,,,,,,,,,,,,,,,,,,,,,,,,,,,,,,,,,67,147346,20,Female,1,2024/02/19_16:23:49,YZ,None,
,,,,,,calibration,0,9,2,500,16,C,0,right,0.5751083709765226,1,0,,,,,,,,,,,,,,,,,,,,,1,,,,,,,,,,,,,,,,,,,,,,,,,,,,,,,,,,,,,,,,,,,,,,67,147346,20,Female,1,2024/02/19_16:23:49,YZ,None,
,,,,,,calibration,0,9,2,500,,,,,,,,0.95,0.8,0.0,1.0,0.0,1.0,0.6178601046194672,4,0,0,0,0,11,15,5,11,0,,,,1,,,,,,,,,,,,,,,,,,,,,,,,,,,,,,,,,,,,,,,,,,,,,,67,147346,20,Female,1,2024/02/19_16:23:49,YZ,None,
,,,,,,Calibration,0,,2,500,,,,,,,,,,,,,,,,,,,,,,,,,2,,,1,,,,,,,,,,,,,,,,,,,,,,,,,,,,,,,,,,,,,,,,,,,,,,67,147346,20,Female,1,2024/02/19_16:23:49,YZ,None,
,,,,,,calibration,0,18,2,426,1,S,0,right,0.5104454699903727,1,0,,,,,,,,,,,,,,,,,,,,,1,,,,,,,,,,,,,,,,,,,,,,,,,,,,,,,,,,,,,,,,,,,,,,67,147346,20,Female,1,2024/02/19_16:23:49,YZ,None,
,,,,,,calibration,0,18,2,426,2,N,0,right,0.4514835250156466,1,0,,,,,,,,,,,,,,,,,,,,,1,,,,,,,,,,,,,,,,,,,,,,,,,,,,,,,,,,,,,,,,,,,,,,67,147346,20,Female,1,2024/02/19_16:23:49,YZ,None,
,,,,,,calibration,0,18,2,426,3,F,0,right,0.44203335998463444,1,0,,,,,,,,,,,,,,,,,,,,,1,,,,,,,,,,,,,,,,,,,,,,,,,,,,,,,,,,,,,,,,,,,,,,67,147346,20,Female,1,2024/02/19_16:23:49,YZ,None,
,,,,,,calibration,0,18,2,426,4,N,1,left,0.4657565309898928,1,0,,,,,,,,,,,,,,,,,,,,,1,,,,,,,,,,,,,,,,,,,,,,,,,,,,,,,,,,,,,,,,,,,,,,67,147346,20,Female,1,2024/02/19_16:23:49,YZ,None,
,,,,,,calibration,0,18,2,426,5,J,0,right,0.41779587598284706,1,0,,,,,,,,,,,,,,,,,,,,,1,,,,,,,,,,,,,,,,,,,,,,,,,,,,,,,,,,,,,,,,,,,,,,67,147346,20,Female,1,2024/02/19_16:23:49,YZ,None,
,,,,,,calibration,0,18,2,426,6,N,1,left,0.5826307649840601,1,0,,,,,,,,,,,,,,,,,,,,,1,,,,,,,,,,,,,,,,,,,,,,,,,,,,,,,,,,,,,,,,,,,,,,67,147346,20,Female,1,2024/02/19_16:23:49,YZ,None,
,,,,,,calibration,0,18,2,426,7,C,0,right,0.32241525399149396,1,0,,,,,,,,,,,,,,,,,,,,,1,,,,,,,,,,,,,,,,,,,,,,,,,,,,,,,,,,,,,,,,,,,,,,67,147346,20,Female,1,2024/02/19_16:23:49,YZ,None,
,,,,,,calibration,0,18,2,426,8,J,0,right,0.5474132200179156,1,0,,,,,,,,,,,,,,,,,,,,,1,,,,,,,,,,,,,,,,,,,,,,,,,,,,,,,,,,,,,,,,,,,,,,67,147346,20,Female,1,2024/02/19_16:23:49,YZ,None,
,,,,,,calibration,0,18,2,426,9,C,1,left,0.5118521010153927,1,0,,,,,,,,,,,,,,,,,,,,,1,,,,,,,,,,,,,,,,,,,,,,,,,,,,,,,,,,,,,,,,,,,,,,67,147346,20,Female,1,2024/02/19_16:23:49,YZ,None,
,,,,,,calibration,0,18,2,426,10,S,0,right,0.4444675180129707,1,0,,,,,,,,,,,,,,,,,,,,,1,,,,,,,,,,,,,,,,,,,,,,,,,,,,,,,,,,,,,,,,,,,,,,67,147346,20,Female,1,2024/02/19_16:23:49,YZ,None,
,,,,,,calibration,0,18,2,426,11,N,0,right,0.5120361910085194,1,0,,,,,,,,,,,,,,,,,,,,,1,,,,,,,,,,,,,,,,,,,,,,,,,,,,,,,,,,,,,,,,,,,,,,67,147346,20,Female,1,2024/02/19_16:23:49,YZ,None,
,,,,,,calibration,0,18,2,426,12,X,0,right,0.49041278898948804,1,0,,,,,,,,,,,,,,,,,,,,,1,,,,,,,,,,,,,,,,,,,,,,,,,,,,,,,,,,,,,,,,,,,,,,67,147346,20,Female,1,2024/02/19_16:23:49,YZ,None,
,,,,,,calibration,0,18,2,426,13,Q,0,right,0.49795107197132893,1,0,,,,,,,,,,,,,,,,,,,,,1,,,,,,,,,,,,,,,,,,,,,,,,,,,,,,,,,,,,,,,,,,,,,,67,147346,20,Female,1,2024/02/19_16:23:49,YZ,None,
,,,,,,calibration,0,18,2,426,14,X,1,right,0.5455027999996673,0,0,,,,,,,,,,,,,,,,,,,,,1,,,,,,,,,,,,,,,,,,,,,,,,,,,,,,,,,,,,,,,,,,,,,,67,147346,20,Female,1,2024/02/19_16:23:49,YZ,None,
,,,,,,calibration,0,18,2,426,15,J,0,right,0.41113786899950355,1,0,,,,,,,,,,,,,,,,,,,,,1,,,,,,,,,,,,,,,,,,,,,,,,,,,,,,,,,,,,,,,,,,,,,,67,147346,20,Female,1,2024/02/19_16:23:49,YZ,None,
,,,,,,calibration,0,18,2,426,16,X,1,left,0.4287667899916414,1,0,,,,,,,,,,,,,,,,,,,,,1,,,,,,,,,,,,,,,,,,,,,,,,,,,,,,,,,,,,,,,,,,,,,,67,147346,20,Female,1,2024/02/19_16:23:49,YZ,None,
,,,,,,calibration,0,18,2,426,17,S,0,right,0.4286273560137488,1,0,,,,,,,,,,,,,,,,,,,,,1,,,,,,,,,,,,,,,,,,,,,,,,,,,,,,,,,,,,,,,,,,,,,,67,147346,20,Female,1,2024/02/19_16:23:49,YZ,None,
,,,,,,calibration,0,18,2,426,,,,,,,,0.95,0.8,0.0,1.0,0.0,1.0,0.4712193227623014,4,0,0,0,0,12,16,5,12,0,,,,1,,,,,,,,,,,,,,,,,,,,,,,,,,,,,,,,,,,,,,,,,,,,,,67,147346,20,Female,1,2024/02/19_16:23:49,YZ,None,
,,,,,,Calibration,0,,2,426,,,,,,,,,,,,,,,,,,,,,,,,,3,,,1,,,,,,,,,,,,,,,,,,,,,,,,,,,,,,,,,,,,,,,,,,,,,,67,147346,20,Female,1,2024/02/19_16:23:49,YZ,None,
,,,,,,calibration,0,26,2,361,1,Q,0,right,0.4561746029939968,1,0,,,,,,,,,,,,,,,,,,,,,1,,,,,,,,,,,,,,,,,,,,,,,,,,,,,,,,,,,,,,,,,,,,,,67,147346,20,Female,1,2024/02/19_16:23:49,YZ,None,
,,,,,,calibration,0,26,2,361,2,Q,0,right,0.36853705599787645,1,0,,,,,,,,,,,,,,,,,,,,,1,,,,,,,,,,,,,,,,,,,,,,,,,,,,,,,,,,,,,,,,,,,,,,67,147346,20,Female,1,2024/02/19_16:23:49,YZ,None,
,,,,,,calibration,0,26,2,361,3,Q,1,right,0.669813859014539,0,0,,,,,,,,,,,,,,,,,,,,,1,,,,,,,,,,,,,,,,,,,,,,,,,,,,,,,,,,,,,,,,,,,,,,67,147346,20,Female,1,2024/02/19_16:23:49,YZ,None,
,,,,,,calibration,0,26,2,361,4,J,0,right,nan,0,1,,,,,,,,,,,,,,,,,,,,,1,,,,,,,,,,,,,,,,,,,,,,,,,,,,,,,,,,,,,,,,,,,,,,67,147346,20,Female,1,2024/02/19_16:23:49,YZ,None,
,,,,,,calibration,0,26,2,361,5,X,0,right,0.404415776982205,1,0,,,,,,,,,,,,,,,,,,,,,1,,,,,,,,,,,,,,,,,,,,,,,,,,,,,,,,,,,,,,,,,,,,,,67,147346,20,Female,1,2024/02/19_16:23:49,YZ,None,
,,,,,,calibration,0,26,2,361,6,F,0,right,0.5440915389917791,1,0,,,,,,,,,,,,,,,,,,,,,1,,,,,,,,,,,,,,,,,,,,,,,,,,,,,,,,,,,,,,,,,,,,,,67,147346,20,Female,1,2024/02/19_16:23:49,YZ,None,
,,,,,,calibration,0,26,2,361,7,Q,0,right,0.4365477270039264,1,0,,,,,,,,,,,,,,,,,,,,,1,,,,,,,,,,,,,,,,,,,,,,,,,,,,,,,,,,,,,,,,,,,,,,67,147346,20,Female,1,2024/02/19_16:23:49,YZ,None,
,,,,,,calibration,0,26,2,361,8,J,0,right,0.5118430959992111,1,0,,,,,,,,,,,,,,,,,,,,,1,,,,,,,,,,,,,,,,,,,,,,,,,,,,,,,,,,,,,,,,,,,,,,67,147346,20,Female,1,2024/02/19_16:23:49,YZ,None,
,,,,,,calibration,0,26,2,361,9,C,0,right,0.49843293501180597,1,0,,,,,,,,,,,,,,,,,,,,,1,,,,,,,,,,,,,,,,,,,,,,,,,,,,,,,,,,,,,,,,,,,,,,67,147346,20,Female,1,2024/02/19_16:23:49,YZ,None,
,,,,,,calibration,0,26,2,361,10,F,0,right,0.5970983649895061,1,0,,,,,,,,,,,,,,,,,,,,,1,,,,,,,,,,,,,,,,,,,,,,,,,,,,,,,,,,,,,,,,,,,,,,67,147346,20,Female,1,2024/02/19_16:23:49,YZ,None,
,,,,,,calibration,0,26,2,361,11,J,0,right,0.7523007619893178,1,0,,,,,,,,,,,,,,,,,,,,,1,,,,,,,,,,,,,,,,,,,,,,,,,,,,,,,,,,,,,,,,,,,,,,67,147346,20,Female,1,2024/02/19_16:23:49,YZ,None,
,,,,,,calibration,0,26,2,361,12,V,0,right,0.4559479960007593,1,0,,,,,,,,,,,,,,,,,,,,,1,,,,,,,,,,,,,,,,,,,,,,,,,,,,,,,,,,,,,,,,,,,,,,67,147346,20,Female,1,2024/02/19_16:23:49,YZ,None,
,,,,,,calibration,0,26,2,361,13,J,1,left,0.4211763269850053,1,0,,,,,,,,,,,,,,,,,,,,,1,,,,,,,,,,,,,,,,,,,,,,,,,,,,,,,,,,,,,,,,,,,,,,67,147346,20,Female,1,2024/02/19_16:23:49,YZ,None,
,,,,,,calibration,0,26,2,361,14,X,0,right,0.5247769249835983,1,0,,,,,,,,,,,,,,,,,,,,,1,,,,,,,,,,,,,,,,,,,,,,,,,,,,,,,,,,,,,,,,,,,,,,67,147346,20,Female,1,2024/02/19_16:23:49,YZ,None,
,,,,,,calibration,0,26,2,361,15,J,1,right,0.5763424249889795,0,0,,,,,,,,,,,,,,,,,,,,,1,,,,,,,,,,,,,,,,,,,,,,,,,,,,,,,,,,,,,,,,,,,,,,67,147346,20,Female,1,2024/02/19_16:23:49,YZ,None,
,,,,,,calibration,0,26,2,361,16,V,0,left,0.6266175500059035,0,0,,,,,,,,,,,,,,,,,,,,,1,,,,,,,,,,,,,,,,,,,,,,,,,,,,,,,,,,,,,,,,,,,,,,67,147346,20,Female,1,2024/02/19_16:23:49,YZ,None,
,,,,,,calibration,0,26,2,361,17,J,1,right,0.22325335099594668,0,0,,,,,,,,,,,,,,,,,,,,,1,,,,,,,,,,,,,,,,,,,,,,,,,,,,,,,,,,,,,,,,,,,,,,67,147346,20,Female,1,2024/02/19_16:23:49,YZ,None,
,,,,,,calibration,0,26,2,361,18,V,1,left,0.5929568800202105,1,0,,,,,,,,,,,,,,,,,,,,,1,,,,,,,,,,,,,,,,,,,,,,,,,,,,,,,,,,,,,,,,,,,,,,67,147346,20,Female,1,2024/02/19_16:23:49,YZ,None,
,,,,,,calibration,0,26,2,361,,,,,,,,0.7826923076923077,0.4,0.07692307692307693,0.9166666666666666,0.05555555555555555,0.8675213675213675,0.509431010173798,2,1,0,1,1,11,13,5,13,0,,,,1,,,,,,,,,,,,,,,,,,,,,,,,,,,,,,,,,,,,,,,,,,,,,,67,147346,20,Female,1,2024/02/19_16:23:49,YZ,None,
,,,,,,Calibration,0,,2,361,,,,,,,,,,,,,,,,,,,,,,,,,4,,,1,,,,,,,,,,,,,,,,,,,,,,,,,,,,,,,,,,,,,,,,,,,,,,67,147346,20,Female,1,2024/02/19_16:23:49,YZ,None,
,,,,,,calibration,0,16,2,361,1,X,0,right,0.6441775799903553,1,0,,,,,,,,,,,,,,,,,,,,,1,,,,,,,,,,,,,,,,,,,,,,,,,,,,,,,,,,,,,,,,,,,,,,67,147346,20,Female,1,2024/02/19_16:23:49,YZ,None,
,,,,,,calibration,0,16,2,361,2,V,0,right,0.4719272489892319,1,0,,,,,,,,,,,,,,,,,,,,,1,,,,,,,,,,,,,,,,,,,,,,,,,,,,,,,,,,,,,,,,,,,,,,67,147346,20,Female,1,2024/02/19_16:23:49,YZ,None,
,,,,,,calibration,0,16,2,361,3,X,1,left,0.42142261200933717,1,0,,,,,,,,,,,,,,,,,,,,,1,,,,,,,,,,,,,,,,,,,,,,,,,,,,,,,,,,,,,,,,,,,,,,67,147346,20,Female,1,2024/02/19_16:23:49,YZ,None,
,,,,,,calibration,0,16,2,361,4,S,0,right,0.5122674390149768,1,0,,,,,,,,,,,,,,,,,,,,,1,,,,,,,,,,,,,,,,,,,,,,,,,,,,,,,,,,,,,,,,,,,,,,67,147346,20,Female,1,2024/02/19_16:23:49,YZ,None,
,,,,,,calibration,0,16,2,361,5,X,1,left,0.5442394890123978,1,0,,,,,,,,,,,,,,,,,,,,,1,,,,,,,,,,,,,,,,,,,,,,,,,,,,,,,,,,,,,,,,,,,,,,67,147346,20,Female,1,2024/02/19_16:23:49,YZ,None,
,,,,,,calibration,0,16,2,361,6,J,0,right,0.4035655809857417,1,0,,,,,,,,,,,,,,,,,,,,,1,,,,,,,,,,,,,,,,,,,,,,,,,,,,,,,,,,,,,,,,,,,,,,67,147346,20,Female,1,2024/02/19_16:23:49,YZ,None,
,,,,,,calibration,0,16,2,361,7,C,0,left,0.5592024019861128,0,0,,,,,,,,,,,,,,,,,,,,,1,,,,,,,,,,,,,,,,,,,,,,,,,,,,,,,,,,,,,,,,,,,,,,67,147346,20,Female,1,2024/02/19_16:23:49,YZ,None,
,,,,,,calibration,0,16,2,361,8,V,0,right,0.37120557398884557,1,0,,,,,,,,,,,,,,,,,,,,,1,,,,,,,,,,,,,,,,,,,,,,,,,,,,,,,,,,,,,,,,,,,,,,67,147346,20,Female,1,2024/02/19_16:23:49,YZ,None,
,,,,,,calibration,0,16,2,361,9,S,0,right,nan,0,1,,,,,,,,,,,,,,,,,,,,,1,,,,,,,,,,,,,,,,,,,,,,,,,,,,,,,,,,,,,,,,,,,,,,67,147346,20,Female,1,2024/02/19_16:23:49,YZ,None,
,,,,,,calibration,0,16,2,361,10,C,0,right,nan,0,1,,,,,,,,,,,,,,,,,,,,,1,,,,,,,,,,,,,,,,,,,,,,,,,,,,,,,,,,,,,,,,,,,,,,67,147346,20,Female,1,2024/02/19_16:23:49,YZ,None,
,,,,,,calibration,0,16,2,361,11,S,1,left,0.7749522869999055,1,0,,,,,,,,,,,,,,,,,,,,,1,,,,,,,,,,,,,,,,,,,,,,,,,,,,,,,,,,,,,,,,,,,,,,67,147346,20,Female,1,2024/02/19_16:23:49,YZ,None,
,,,,,,calibration,0,16,2,361,12,V,0,right,0.46790213498752564,1,0,,,,,,,,,,,,,,,,,,,,,1,,,,,,,,,,,,,,,,,,,,,,,,,,,,,,,,,,,,,,,,,,,,,,67,147346,20,Female,1,2024/02/19_16:23:49,YZ,None,
,,,,,,calibration,0,16,2,361,13,S,1,left,0.3926287600188516,1,0,,,,,,,,,,,,,,,,,,,,,1,,,,,,,,,,,,,,,,,,,,,,,,,,,,,,,,,,,,,,,,,,,,,,67,147346,20,Female,1,2024/02/19_16:23:49,YZ,None,
,,,,,,calibration,0,16,2,361,14,V,1,left,0.5247130760108121,1,0,,,,,,,,,,,,,,,,,,,,,1,,,,,,,,,,,,,,,,,,,,,,,,,,,,,,,,,,,,,,,,,,,,,,67,147346,20,Female,1,2024/02/19_16:23:49,YZ,None,
,,,,,,calibration,0,16,2,361,15,C,0,right,0.5985783540236298,1,0,,,,,,,,,,,,,,,,,,,,,1,,,,,,,,,,,,,,,,,,,,,,,,,,,,,,,,,,,,,,,,,,,,,,67,147346,20,Female,1,2024/02/19_16:23:49,YZ,None,
,,,,,,calibration,0,16,2,361,16,X,0,right,0.5626027440011967,1,0,,,,,,,,,,,,,,,,,,,,,1,,,,,,,,,,,,,,,,,,,,,,,,,,,,,,,,,,,,,,,,,,,,,,67,147346,20,Female,1,2024/02/19_16:23:49,YZ,None,
,,,,,,calibration,0,16,2,361,17,N,0,right,0.5228905310214031,1,0,,,,,,,,,,,,,,,,,,,,,1,,,,,,,,,,,,,,,,,,,,,,,,,,,,,,,,,,,,,,,,,,,,,,67,147346,20,Female,1,2024/02/19_16:23:49,YZ,None,
,,,,,,calibration,0,16,2,361,18,V,0,right,0.5888596849981695,1,0,,,,,,,,,,,,,,,,,,,,,1,,,,,,,,,,,,,,,,,,,,,,,,,,,,,,,,,,,,,,,,,,,,,,67,147346,20,Female,1,2024/02/19_16:23:49,YZ,None,
,,,,,,calibration,0,16,2,361,,,,,,,,0.9807692307692308,1.0,0.07692307692307693,0.9090909090909091,0.1111111111111111,0.811965811965812,0.5225709686274058,5,1,0,2,2,10,15,5,13,0,,,,1,,,,,,,,,,,,,,,,,,,,,,,,,,,,,,,,,,,,,,,,,,,,,,67,147346,20,Female,1,2024/02/19_16:23:49,YZ,None,
,,,,,,Calibration,0,,2,361,,,,,,,,,,,,,,,,,,,,,,,,,5,,,1,,,,,,,,,,,,,,,,,,,,,,,,,,,,,,,,,,,,,,,,,,,,,,67,147346,20,Female,1,2024/02/19_16:23:49,YZ,None,
,,,,,,calibration,0,25,2,303,1,C,0,right,0.42003720099455677,1,0,,,,,,,,,,,,,,,,,,,,,1,,,,,,,,,,,,,,,,,,,,,,,,,,,,,,,,,,,,,,,,,,,,,,67,147346,20,Female,1,2024/02/19_16:23:49,YZ,None,
,,,,,,calibration,0,25,2,303,2,C,0,right,0.3849539080110844,1,0,,,,,,,,,,,,,,,,,,,,,1,,,,,,,,,,,,,,,,,,,,,,,,,,,,,,,,,,,,,,,,,,,,,,67,147346,20,Female,1,2024/02/19_16:23:49,YZ,None,
,,,,,,calibration,0,25,2,303,3,F,0,right,0.41890635999152437,1,0,,,,,,,,,,,,,,,,,,,,,1,,,,,,,,,,,,,,,,,,,,,,,,,,,,,,,,,,,,,,,,,,,,,,67,147346,20,Female,1,2024/02/19_16:23:49,YZ,None,
,,,,,,calibration,0,25,2,303,4,Q,0,right,0.5647560019860975,1,0,,,,,,,,,,,,,,,,,,,,,1,,,,,,,,,,,,,,,,,,,,,,,,,,,,,,,,,,,,,,,,,,,,,,67,147346,20,Female,1,2024/02/19_16:23:49,YZ,None,
,,,,,,calibration,0,25,2,303,5,F,1,left,0.4446451739931945,1,0,,,,,,,,,,,,,,,,,,,,,1,,,,,,,,,,,,,,,,,,,,,,,,,,,,,,,,,,,,,,,,,,,,,,67,147346,20,Female,1,2024/02/19_16:23:49,YZ,None,
,,,,,,calibration,0,25,2,303,6,V,0,right,0.5235330399882514,1,0,,,,,,,,,,,,,,,,,,,,,1,,,,,,,,,,,,,,,,,,,,,,,,,,,,,,,,,,,,,,,,,,,,,,67,147346,20,Female,1,2024/02/19_16:23:49,YZ,None,
,,,,,,calibration,0,25,2,303,7,X,0,right,0.5644513769948389,1,0,,,,,,,,,,,,,,,,,,,,,1,,,,,,,,,,,,,,,,,,,,,,,,,,,,,,,,,,,,,,,,,,,,,,67,147346,20,Female,1,2024/02/19_16:23:49,YZ,None,
,,,,,,calibration,0,25,2,303,8,V,1,right,0.5301171689934563,0,0,,,,,,,,,,,,,,,,,,,,,1,,,,,,,,,,,,,,,,,,,,,,,,,,,,,,,,,,,,,,,,,,,,,,67,147346,20,Female,1,2024/02/19_16:23:49,YZ,None,
,,,,,,calibration,0,25,2,303,9,X,1,left,0.608485718985321,1,0,,,,,,,,,,,,,,,,,,,,,1,,,,,,,,,,,,,,,,,,,,,,,,,,,,,,,,,,,,,,,,,,,,,,67,147346,20,Female,1,2024/02/19_16:23:49,YZ,None,
,,,,,,calibration,0,25,2,303,10,F,0,right,0.32139980801730417,1,0,,,,,,,,,,,,,,,,,,,,,1,,,,,,,,,,,,,,,,,,,,,,,,,,,,,,,,,,,,,,,,,,,,,,67,147346,20,Female,1,2024/02/19_16:23:49,YZ,None,
,,,,,,calibration,0,25,2,303,11,X,1,left,0.4417095349926967,1,0,,,,,,,,,,,,,,,,,,,,,1,,,,,,,,,,,,,,,,,,,,,,,,,,,,,,,,,,,,,,,,,,,,,,67,147346,20,Female,1,2024/02/19_16:23:49,YZ,None,
,,,,,,calibration,0,25,2,303,12,Q,0,right,0.37764355799299665,1,0,,,,,,,,,,,,,,,,,,,,,1,,,,,,,,,,,,,,,,,,,,,,,,,,,,,,,,,,,,,,,,,,,,,,67,147346,20,Female,1,2024/02/19_16:23:49,YZ,None,
,,,,,,calibration,0,25,2,303,13,J,0,right,0.5915327099792194,1,0,,,,,,,,,,,,,,,,,,,,,1,,,,,,,,,,,,,,,,,,,,,,,,,,,,,,,,,,,,,,,,,,,,,,67,147346,20,Female,1,2024/02/19_16:23:49,YZ,None,
,,,,,,calibration,0,25,2,303,14,X,0,right,0.43742914000176825,1,0,,,,,,,,,,,,,,,,,,,,,1,,,,,,,,,,,,,,,,,,,,,,,,,,,,,,,,,,,,,,,,,,,,,,67,147346,20,Female,1,2024/02/19_16:23:49,YZ,None,
,,,,,,calibration,0,25,2,303,15,F,0,right,0.6427003260178026,1,0,,,,,,,,,,,,,,,,,,,,,1,,,,,,,,,,,,,,,,,,,,,,,,,,,,,,,,,,,,,,,,,,,,,,67,147346,20,Female,1,2024/02/19_16:23:49,YZ,None,
,,,,,,calibration,0,25,2,303,16,J,0,right,0.6241440140001941,1,0,,,,,,,,,,,,,,,,,,,,,1,,,,,,,,,,,,,,,,,,,,,,,,,,,,,,,,,,,,,,,,,,,,,,67,147346,20,Female,1,2024/02/19_16:23:49,YZ,None,
,,,,,,calibration,0,25,2,303,17,F,1,left,0.5858145009842701,1,0,,,,,,,,,,,,,,,,,,,,,1,,,,,,,,,,,,,,,,,,,,,,,,,,,,,,,,,,,,,,,,,,,,,,67,147346,20,Female,1,2024/02/19_16:23:49,YZ,None,
,,,,,,calibration,0,25,2,303,18,J,1,right,0.3514805360173341,0,0,,,,,,,,,,,,,,,,,,,,,1,,,,,,,,,,,,,,,,,,,,,,,,,,,,,,,,,,,,,,,,,,,,,,67,147346,20,Female,1,2024/02/19_16:23:49,YZ,None,
,,,,,,calibration,0,25,2,303,19,V,0,right,0.44219068699749187,1,0,,,,,,,,,,,,,,,,,,,,,1,,,,,,,,,,,,,,,,,,,,,,,,,,,,,,,,,,,,,,,,,,,,,,67,147346,20,Female,1,2024/02/19_16:23:49,YZ,None,
,,,,,,calibration,0,25,2,303,,,,,,,,0.9166666666666666,0.6666666666666666,0.0,1.0,0.0,1.0,0.48820688236523174,4,0,0,0,0,13,17,6,13,0,,,,1,,,,,,,,,,,,,,,,,,,,,,,,,,,,,,,,,,,,,,,,,,,,,,67,147346,20,Female,1,2024/02/19_16:23:49,YZ,None,
,,,,,,Calibration,0,,2,303,,,,,,,,,,,,,,,,,,,,,,,,,6,,,1,,,,,,,,,,,,,,,,,,,,,,,,,,,,,,,,,,,,,,,,,,,,,,67,147346,20,Female,1,2024/02/19_16:23:49,YZ,None,
,,,,,,calibration,0,29,2,250,1,V,0,right,0.4088073300081305,1,0,,,,,,,,,,,,,,,,,,,,,1,,,,,,,,,,,,,,,,,,,,,,,,,,,,,,,,,,,,,,,,,,,,,,67,147346,20,Female,1,2024/02/19_16:23:49,YZ,None,
,,,,,,calibration,0,29,2,250,2,S,0,right,0.45640646398533136,1,0,,,,,,,,,,,,,,,,,,,,,1,,,,,,,,,,,,,,,,,,,,,,,,,,,,,,,,,,,,,,,,,,,,,,67,147346,20,Female,1,2024/02/19_16:23:49,YZ,None,
,,,,,,calibration,0,29,2,250,3,C,0,right,0.44034124197787605,1,0,,,,,,,,,,,,,,,,,,,,,1,,,,,,,,,,,,,,,,,,,,,,,,,,,,,,,,,,,,,,,,,,,,,,67,147346,20,Female,1,2024/02/19_16:23:49,YZ,None,
,,,,,,calibration,0,29,2,250,4,S,1,left,0.5776582319813315,1,0,,,,,,,,,,,,,,,,,,,,,1,,,,,,,,,,,,,,,,,,,,,,,,,,,,,,,,,,,,,,,,,,,,,,67,147346,20,Female,1,2024/02/19_16:23:49,YZ,None,
,,,,,,calibration,0,29,2,250,5,C,1,right,0.398700502992142,0,0,,,,,,,,,,,,,,,,,,,,,1,,,,,,,,,,,,,,,,,,,,,,,,,,,,,,,,,,,,,,,,,,,,,,67,147346,20,Female,1,2024/02/19_16:23:49,YZ,None,
,,,,,,calibration,0,29,2,250,6,F,0,right,0.4589292950113304,1,0,,,,,,,,,,,,,,,,,,,,,1,,,,,,,,,,,,,,,,,,,,,,,,,,,,,,,,,,,,,,,,,,,,,,67,147346,20,Female,1,2024/02/19_16:23:49,YZ,None,
,,,,,,calibration,0,29,2,250,7,Q,0,right,0.5338388149975799,1,0,,,,,,,,,,,,,,,,,,,,,1,,,,,,,,,,,,,,,,,,,,,,,,,,,,,,,,,,,,,,,,,,,,,,67,147346,20,Female,1,2024/02/19_16:23:49,YZ,None,
,,,,,,calibration,0,29,2,250,8,N,0,right,0.46694646202377044,1,0,,,,,,,,,,,,,,,,,,,,,1,,,,,,,,,,,,,,,,,,,,,,,,,,,,,,,,,,,,,,,,,,,,,,67,147346,20,Female,1,2024/02/19_16:23:49,YZ,None,
,,,,,,calibration,0,29,2,250,9,Q,1,left,0.4321161030093208,1,0,,,,,,,,,,,,,,,,,,,,,1,,,,,,,,,,,,,,,,,,,,,,,,,,,,,,,,,,,,,,,,,,,,,,67,147346,20,Female,1,2024/02/19_16:23:49,YZ,None,
,,,,,,calibration,0,29,2,250,10,X,0,right,0.45181351801147684,1,0,,,,,,,,,,,,,,,,,,,,,1,,,,,,,,,,,,,,,,,,,,,,,,,,,,,,,,,,,,,,,,,,,,,,67,147346,20,Female,1,2024/02/19_16:23:49,YZ,None,
,,,,,,calibration,0,29,2,250,11,J,0,right,0.5587033669871744,1,0,,,,,,,,,,,,,,,,,,,,,1,,,,,,,,,,,,,,,,,,,,,,,,,,,,,,,,,,,,,,,,,,,,,,67,147346,20,Female,1,2024/02/19_16:23:49,YZ,None,
,,,,,,calibration,0,29,2,250,12,F,0,right,0.5717911169922445,1,0,,,,,,,,,,,,,,,,,,,,,1,,,,,,,,,,,,,,,,,,,,,,,,,,,,,,,,,,,,,,,,,,,,,,67,147346,20,Female,1,2024/02/19_16:23:49,YZ,None,
,,,,,,calibration,0,29,2,250,13,N,0,left,0.6203436949872412,0,0,,,,,,,,,,,,,,,,,,,,,1,,,,,,,,,,,,,,,,,,,,,,,,,,,,,,,,,,,,,,,,,,,,,,67,147346,20,Female,1,2024/02/19_16:23:49,YZ,None,
,,,,,,calibration,0,29,2,250,14,V,0,right,0.22225693601649255,1,0,,,,,,,,,,,,,,,,,,,,,1,,,,,,,,,,,,,,,,,,,,,,,,,,,,,,,,,,,,,,,,,,,,,,67,147346,20,Female,1,2024/02/19_16:23:49,YZ,None,
,,,,,,calibration,0,29,2,250,15,N,1,right,0.32962548299110495,0,0,,,,,,,,,,,,,,,,,,,,,1,,,,,,,,,,,,,,,,,,,,,,,,,,,,,,,,,,,,,,,,,,,,,,67,147346,20,Female,1,2024/02/19_16:23:49,YZ,None,
,,,,,,calibration,0,29,2,250,16,X,0,right,0.44528686499688774,1,0,,,,,,,,,,,,,,,,,,,,,1,,,,,,,,,,,,,,,,,,,,,,,,,,,,,,,,,,,,,,,,,,,,,,67,147346,20,Female,1,2024/02/19_16:23:49,YZ,None,
,,,,,,calibration,0,29,2,250,17,J,0,right,0.46913232700899243,1,0,,,,,,,,,,,,,,,,,,,,,1,,,,,,,,,,,,,,,,,,,,,,,,,,,,,,,,,,,,,,,,,,,,,,67,147346,20,Female,1,2024/02/19_16:23:49,YZ,None,
,,,,,,calibration,0,29,2,250,18,V,0,right,0.5598632639739662,1,0,,,,,,,,,,,,,,,,,,,,,1,,,,,,,,,,,,,,,,,,,,,,,,,,,,,,,,,,,,,,,,,,,,,,67,147346,20,Female,1,2024/02/19_16:23:49,YZ,None,
,,,,,,calibration,0,29,2,250,19,J,1,right,0.49696253999718465,0,0,,,,,,,,,,,,,,,,,,,,,1,,,,,,,,,,,,,,,,,,,,,,,,,,,,,,,,,,,,,,,,,,,,,,67,147346,20,Female,1,2024/02/19_16:23:49,YZ,None,
,,,,,,calibration,0,29,2,250,20,C,0,right,0.4909432379936334,1,0,,,,,,,,,,,,,,,,,,,,,1,,,,,,,,,,,,,,,,,,,,,,,,,,,,,,,,,,,,,,,,,,,,,,67,147346,20,Female,1,2024/02/19_16:23:49,YZ,None,
,,,,,,calibration,0,29,2,250,,,,,,,,0.7916666666666667,0.4,0.06666666666666667,0.9333333333333333,0.0,0.9333333333333333,0.4695233397971606,2,1,0,0,0,14,16,5,15,0,,,,1,,,,,,,,,,,,,,,,,,,,,,,,,,,,,,,,,,,,,,,,,,,,,,67,147346,20,Female,1,2024/02/19_16:23:49,YZ,None,
,,,,,,Calibration,0,,2,250,,,,,,,,,,,,,,,,,,,,,,,,,7,,,1,,,,,,,,,,,,,,,,,,,,,,,,,,,,,,,,,,,,,,,,,,,,,,67,147346,20,Female,1,2024/02/19_16:23:49,YZ,None,
,,,,,,calibration,0,13,2,250,1,V,0,right,0.35232287700637244,1,0,,,,,,,,,,,,,,,,,,,,,1,,,,,,,,,,,,,,,,,,,,,,,,,,,,,,,,,,,,,,,,,,,,,,67,147346,20,Female,1,2024/02/19_16:23:49,YZ,None,
,,,,,,calibration,0,13,2,250,2,Q,0,right,0.3202484300127253,1,0,,,,,,,,,,,,,,,,,,,,,1,,,,,,,,,,,,,,,,,,,,,,,,,,,,,,,,,,,,,,,,,,,,,,67,147346,20,Female,1,2024/02/19_16:23:49,YZ,None,
,,,,,,calibration,0,13,2,250,3,F,0,right,0.4574046389898285,1,0,,,,,,,,,,,,,,,,,,,,,1,,,,,,,,,,,,,,,,,,,,,,,,,,,,,,,,,,,,,,,,,,,,,,67,147346,20,Female,1,2024/02/19_16:23:49,YZ,None,
,,,,,,calibration,0,13,2,250,4,Q,1,left,0.6664026330108754,1,0,,,,,,,,,,,,,,,,,,,,,1,,,,,,,,,,,,,,,,,,,,,,,,,,,,,,,,,,,,,,,,,,,,,,67,147346,20,Female,1,2024/02/19_16:23:49,YZ,None,
,,,,,,calibration,0,13,2,250,5,S,0,right,0.42026040799100883,1,0,,,,,,,,,,,,,,,,,,,,,1,,,,,,,,,,,,,,,,,,,,,,,,,,,,,,,,,,,,,,,,,,,,,,67,147346,20,Female,1,2024/02/19_16:23:49,YZ,None,
,,,,,,calibration,0,13,2,250,6,Q,1,right,0.36271540899178945,0,0,,,,,,,,,,,,,,,,,,,,,1,,,,,,,,,,,,,,,,,,,,,,,,,,,,,,,,,,,,,,,,,,,,,,67,147346,20,Female,1,2024/02/19_16:23:49,YZ,None,
,,,,,,calibration,0,13,2,250,7,N,0,right,0.6060356480011251,1,0,,,,,,,,,,,,,,,,,,,,,1,,,,,,,,,,,,,,,,,,,,,,,,,,,,,,,,,,,,,,,,,,,,,,67,147346,20,Female,1,2024/02/19_16:23:49,YZ,None,
,,,,,,calibration,0,13,2,250,8,X,0,right,0.39925338100874797,1,0,,,,,,,,,,,,,,,,,,,,,1,,,,,,,,,,,,,,,,,,,,,,,,,,,,,,,,,,,,,,,,,,,,,,67,147346,20,Female,1,2024/02/19_16:23:49,YZ,None,
,,,,,,calibration,0,13,2,250,9,N,1,right,0.5312035880051553,0,0,,,,,,,,,,,,,,,,,,,,,1,,,,,,,,,,,,,,,,,,,,,,,,,,,,,,,,,,,,,,,,,,,,,,67,147346,20,Female,1,2024/02/19_16:23:49,YZ,None,
,,,,,,calibration,0,13,2,250,10,V,0,right,0.3141260929987766,1,0,,,,,,,,,,,,,,,,,,,,,1,,,,,,,,,,,,,,,,,,,,,,,,,,,,,,,,,,,,,,,,,,,,,,67,147346,20,Female,1,2024/02/19_16:23:49,YZ,None,
,,,,,,calibration,0,13,2,250,11,X,0,right,0.6436932839860674,1,0,,,,,,,,,,,,,,,,,,,,,1,,,,,,,,,,,,,,,,,,,,,,,,,,,,,,,,,,,,,,,,,,,,,,67,147346,20,Female,1,2024/02/19_16:23:49,YZ,None,
,,,,,,calibration,0,13,2,250,12,Q,0,right,0.41236656400724314,1,0,,,,,,,,,,,,,,,,,,,,,1,,,,,,,,,,,,,,,,,,,,,,,,,,,,,,,,,,,,,,,,,,,,,,67,147346,20,Female,1,2024/02/19_16:23:49,YZ,None,
,,,,,,calibration,0,13,2,250,13,F,0,right,0.3972477159986738,1,0,,,,,,,,,,,,,,,,,,,,,1,,,,,,,,,,,,,,,,,,,,,,,,,,,,,,,,,,,,,,,,,,,,,,67,147346,20,Female,1,2024/02/19_16:23:49,YZ,None,
,,,,,,calibration,0,13,2,250,14,J,0,right,0.4967323489836417,1,0,,,,,,,,,,,,,,,,,,,,,1,,,,,,,,,,,,,,,,,,,,,,,,,,,,,,,,,,,,,,,,,,,,,,67,147346,20,Female,1,2024/02/19_16:23:49,YZ,None,
,,,,,,calibration,0,13,2,250,15,S,0,right,0.48192010799539275,1,0,,,,,,,,,,,,,,,,,,,,,1,,,,,,,,,,,,,,,,,,,,,,,,,,,,,,,,,,,,,,,,,,,,,,67,147346,20,Female,1,2024/02/19_16:23:49,YZ,None,
,,,,,,calibration,0,13,2,250,16,X,0,left,0.6030491060228087,0,0,,,,,,,,,,,,,,,,,,,,,1,,,,,,,,,,,,,,,,,,,,,,,,,,,,,,,,,,,,,,,,,,,,,,67,147346,20,Female,1,2024/02/19_16:23:49,YZ,None,
,,,,,,calibration,0,13,2,250,17,Q,0,right,0.16811554599553347,1,0,,,,,,,,,,,,,,,,,,,,,1,,,,,,,,,,,,,,,,,,,,,,,,,,,,,,,,,,,,,,,,,,,,,,67,147346,20,Female,1,2024/02/19_16:23:49,YZ,None,
,,,,,,calibration,0,13,2,250,18,X,1,right,0.31481106000137515,0,0,,,,,,,,,,,,,,,,,,,,,1,,,,,,,,,,,,,,,,,,,,,,,,,,,,,,,,,,,,,,,,,,,,,,67,147346,20,Female,1,2024/02/19_16:23:49,YZ,None,
,,,,,,calibration,0,13,2,250,19,Q,1,left,0.49076972898910753,1,0,,,,,,,,,,,,,,,,,,,,,1,,,,,,,,,,,,,,,,,,,,,,,,,,,,,,,,,,,,,,,,,,,,,,67,147346,20,Female,1,2024/02/19_16:23:49,YZ,None,
,,,,,,calibration,0,13,2,250,20,J,0,right,0.3137502550089266,1,0,,,,,,,,,,,,,,,,,,,,,1,,,,,,,,,,,,,,,,,,,,,,,,,,,,,,,,,,,,,,,,,,,,,,67,147346,20,Female,1,2024/02/19_16:23:49,YZ,None,
,,,,,,calibration,0,13,2,250,,,,,,,,0.7916666666666667,0.4,0.06666666666666667,0.9333333333333333,0.0,0.9333333333333333,0.43762144115025875,2,1,0,0,0,14,16,5,15,0,,,,1,,,,,,,,,,,,,,,,,,,,,,,,,,,,,,,,,,,,,,,,,,,,,,67,147346,20,Female,1,2024/02/19_16:23:49,YZ,None,
,,,,,,Calibration,0,,2,250,,,,,,,,,,,,,,,,,,,,,,,,,8,,,1,,,,,,,,,,,,,,,,,,,,,,,,,,,,,,,,,,,,,,,,,,,,,,67,147346,20,Female,1,2024/02/19_16:23:49,YZ,None,
,,,,,,calibration,0,4,2,250,1,S,0,right,0.2970840010093525,1,0,,,,,,,,,,,,,,,,,,,,,1,,,,,,,,,,,,,,,,,,,,,,,,,,,,,,,,,,,,,,,,,,,,,,67,147346,20,Female,1,2024/02/19_16:23:49,YZ,None,
,,,,,,calibration,0,4,2,250,2,J,0,right,0.31702971999766305,1,0,,,,,,,,,,,,,,,,,,,,,1,,,,,,,,,,,,,,,,,,,,,,,,,,,,,,,,,,,,,,,,,,,,,,67,147346,20,Female,1,2024/02/19_16:23:49,YZ,None,
,,,,,,calibration,0,4,2,250,3,N,0,right,0.3373369330074638,1,0,,,,,,,,,,,,,,,,,,,,,1,,,,,,,,,,,,,,,,,,,,,,,,,,,,,,,,,,,,,,,,,,,,,,67,147346,20,Female,1,2024/02/19_16:23:49,YZ,None,
,,,,,,calibration,0,4,2,250,4,J,1,right,0.7841343279869761,0,0,,,,,,,,,,,,,,,,,,,,,1,,,,,,,,,,,,,,,,,,,,,,,,,,,,,,,,,,,,,,,,,,,,,,67,147346,20,Female,1,2024/02/19_16:23:49,YZ,None,
,,,,,,calibration,0,4,2,250,5,S,0,right,nan,0,1,,,,,,,,,,,,,,,,,,,,,1,,,,,,,,,,,,,,,,,,,,,,,,,,,,,,,,,,,,,,,,,,,,,,67,147346,20,Female,1,2024/02/19_16:23:49,YZ,None,
,,,,,,calibration,0,4,2,250,6,J,1,right,0.31005243500112556,0,0,,,,,,,,,,,,,,,,,,,,,1,,,,,,,,,,,,,,,,,,,,,,,,,,,,,,,,,,,,,,,,,,,,,,67,147346,20,Female,1,2024/02/19_16:23:49,YZ,None,
,,,,,,calibration,0,4,2,250,7,S,1,right,0.3415093930088915,0,0,,,,,,,,,,,,,,,,,,,,,1,,,,,,,,,,,,,,,,,,,,,,,,,,,,,,,,,,,,,,,,,,,,,,67,147346,20,Female,1,2024/02/19_16:23:49,YZ,None,
,,,,,,calibration,0,4,2,250,8,C,0,right,nan,0,1,,,,,,,,,,,,,,,,,,,,,1,,,,,,,,,,,,,,,,,,,,,,,,,,,,,,,,,,,,,,,,,,,,,,67,147346,20,Female,1,2024/02/19_16:23:49,YZ,None,
,,,,,,calibration,0,4,2,250,9,X,0,right,0.19481248600641266,1,0,,,,,,,,,,,,,,,,,,,,,1,,,,,,,,,,,,,,,,,,,,,,,,,,,,,,,,,,,,,,,,,,,,,,67,147346,20,Female,1,2024/02/19_16:23:49,YZ,None,
,,,,,,calibration,0,4,2,250,10,F,0,right,0.35649302299134433,1,0,,,,,,,,,,,,,,,,,,,,,1,,,,,,,,,,,,,,,,,,,,,,,,,,,,,,,,,,,,,,,,,,,,,,67,147346,20,Female,1,2024/02/19_16:23:49,YZ,None,
,,,,,,calibration,0,4,2,250,11,S,0,right,0.40954334498383105,1,0,,,,,,,,,,,,,,,,,,,,,1,,,,,,,,,,,,,,,,,,,,,,,,,,,,,,,,,,,,,,,,,,,,,,67,147346,20,Female,1,2024/02/19_16:23:49,YZ,None,
,,,,,,calibration,0,4,2,250,12,F,1,left,0.5120116290054284,1,0,,,,,,,,,,,,,,,,,,,,,1,,,,,,,,,,,,,,,,,,,,,,,,,,,,,,,,,,,,,,,,,,,,,,67,147346,20,Female,1,2024/02/19_16:23:49,YZ,None,
,,,,,,calibration,0,4,2,250,13,S,1,right,0.34637275099521503,0,0,,,,,,,,,,,,,,,,,,,,,1,,,,,,,,,,,,,,,,,,,,,,,,,,,,,,,,,,,,,,,,,,,,,,67,147346,20,Female,1,2024/02/19_16:23:49,YZ,None,
,,,,,,calibration,0,4,2,250,14,N,0,right,0.30927980298292823,1,0,,,,,,,,,,,,,,,,,,,,,1,,,,,,,,,,,,,,,,,,,,,,,,,,,,,,,,,,,,,,,,,,,,,,67,147346,20,Female,1,2024/02/19_16:23:49,YZ,None,
,,,,,,calibration,0,4,2,250,15,X,0,right,0.4613112479855772,1,0,,,,,,,,,,,,,,,,,,,,,1,,,,,,,,,,,,,,,,,,,,,,,,,,,,,,,,,,,,,,,,,,,,,,67,147346,20,Female,1,2024/02/19_16:23:49,YZ,None,
,,,,,,calibration,0,4,2,250,16,V,0,right,0.5308082969859242,1,0,,,,,,,,,,,,,,,,,,,,,1,,,,,,,,,,,,,,,,,,,,,,,,,,,,,,,,,,,,,,,,,,,,,,67,147346,20,Female,1,2024/02/19_16:23:49,YZ,None,
,,,,,,calibration,0,4,2,250,17,S,0,right,0.5420323680154979,1,0,,,,,,,,,,,,,,,,,,,,,1,,,,,,,,,,,,,,,,,,,,,,,,,,,,,,,,,,,,,,,,,,,,,,67,147346,20,Female,1,2024/02/19_16:23:49,YZ,None,
,,,,,,calibration,0,4,2,250,18,X,0,right,0.3825057869835291,1,0,,,,,,,,,,,,,,,,,,,,,1,,,,,,,,,,,,,,,,,,,,,,,,,,,,,,,,,,,,,,,,,,,,,,67,147346,20,Female,1,2024/02/19_16:23:49,YZ,None,
,,,,,,calibration,0,4,2,250,19,Q,0,right,0.36864426199463196,1,0,,,,,,,,,,,,,,,,,,,,,1,,,,,,,,,,,,,,,,,,,,,,,,,,,,,,,,,,,,,,,,,,,,,,67,147346,20,Female,1,2024/02/19_16:23:49,YZ,None,
,,,,,,calibration,0,4,2,250,20,C,0,right,nan,0,1,,,,,,,,,,,,,,,,,,,,,1,,,,,,,,,,,,,,,,,,,,,,,,,,,,,,,,,,,,,,,,,,,,,,67,147346,20,Female,1,2024/02/19_16:23:49,YZ,None,
,,,,,,calibration,0,4,2,250,,,,,,,,0.8,0.2,0.0,1.0,0.15,0.85,0.40005657699657604,1,0,0,3,3,12,13,5,15,0,,,,1,,,,,,,,,,,,,,,,,,,,,,,,,,,,,,,,,,,,,,,,,,,,,,67,147346,20,Female,1,2024/02/19_16:23:49,YZ,None,
,,,,,,Calibration,0,,2,250,,,,,,,,,,,,,,,,,,,,,,,,,9,,,1,,,,,,,,,,,,,,,,,,,,,,,,,,,,,,,,,,,,,,,,,,,,,,67,147346,20,Female,1,2024/02/19_16:23:49,YZ,None,
,,,,,,calibration,0,11,2,250,1,C,0,right,0.2853996490011923,1,0,,,,,,,,,,,,,,,,,,,,,1,,,,,,,,,,,,,,,,,,,,,,,,,,,,,,,,,,,,,,,,,,,,,,67,147346,20,Female,1,2024/02/19_16:23:49,YZ,None,
,,,,,,calibration,0,11,2,250,2,S,0,right,0.28796411299845204,1,0,,,,,,,,,,,,,,,,,,,,,1,,,,,,,,,,,,,,,,,,,,,,,,,,,,,,,,,,,,,,,,,,,,,,67,147346,20,Female,1,2024/02/19_16:23:49,YZ,None,
,,,,,,calibration,0,11,2,250,3,F,0,right,0.3607348609948531,1,0,,,,,,,,,,,,,,,,,,,,,1,,,,,,,,,,,,,,,,,,,,,,,,,,,,,,,,,,,,,,,,,,,,,,67,147346,20,Female,1,2024/02/19_16:23:49,YZ,None,
,,,,,,calibration,0,11,2,250,4,Q,0,right,0.48046185600105673,1,0,,,,,,,,,,,,,,,,,,,,,1,,,,,,,,,,,,,,,,,,,,,,,,,,,,,,,,,,,,,,,,,,,,,,67,147346,20,Female,1,2024/02/19_16:23:49,YZ,None,
,,,,,,calibration,0,11,2,250,5,F,1,left,0.4610304969828576,1,0,,,,,,,,,,,,,,,,,,,,,1,,,,,,,,,,,,,,,,,,,,,,,,,,,,,,,,,,,,,,,,,,,,,,67,147346,20,Female,1,2024/02/19_16:23:49,YZ,None,
,,,,,,calibration,0,11,2,250,6,V,0,right,0.4287789069931023,1,0,,,,,,,,,,,,,,,,,,,,,1,,,,,,,,,,,,,,,,,,,,,,,,,,,,,,,,,,,,,,,,,,,,,,67,147346,20,Female,1,2024/02/19_16:23:49,YZ,None,
,,,,,,calibration,0,11,2,250,7,C,0,right,0.49290517301415093,1,0,,,,,,,,,,,,,,,,,,,,,1,,,,,,,,,,,,,,,,,,,,,,,,,,,,,,,,,,,,,,,,,,,,,,67,147346,20,Female,1,2024/02/19_16:23:49,YZ,None,
,,,,,,calibration,0,11,2,250,8,F,0,right,0.5912972719816025,1,0,,,,,,,,,,,,,,,,,,,,,1,,,,,,,,,,,,,,,,,,,,,,,,,,,,,,,,,,,,,,,,,,,,,,67,147346,20,Female,1,2024/02/19_16:23:49,YZ,None,
,,,,,,calibration,0,11,2,250,9,S,0,right,0.4986577599775046,1,0,,,,,,,,,,,,,,,,,,,,,1,,,,,,,,,,,,,,,,,,,,,,,,,,,,,,,,,,,,,,,,,,,,,,67,147346,20,Female,1,2024/02/19_16:23:49,YZ,None,
,,,,,,calibration,0,11,2,250,10,C,0,right,0.48037437701714225,1,0,,,,,,,,,,,,,,,,,,,,,1,,,,,,,,,,,,,,,,,,,,,,,,,,,,,,,,,,,,,,,,,,,,,,67,147346,20,Female,1,2024/02/19_16:23:49,YZ,None,
,,,,,,calibration,0,11,2,250,11,X,0,right,0.5004629860050045,1,0,,,,,,,,,,,,,,,,,,,,,1,,,,,,,,,,,,,,,,,,,,,,,,,,,,,,,,,,,,,,,,,,,,,,67,147346,20,Female,1,2024/02/19_16:23:49,YZ,None,
,,,,,,calibration,0,11,2,250,12,C,1,left,0.6287204590043984,1,0,,,,,,,,,,,,,,,,,,,,,1,,,,,,,,,,,,,,,,,,,,,,,,,,,,,,,,,,,,,,,,,,,,,,67,147346,20,Female,1,2024/02/19_16:23:49,YZ,None,
,,,,,,calibration,0,11,2,250,13,S,0,right,0.45933054698980413,1,0,,,,,,,,,,,,,,,,,,,,,1,,,,,,,,,,,,,,,,,,,,,,,,,,,,,,,,,,,,,,,,,,,,,,67,147346,20,Female,1,2024/02/19_16:23:49,YZ,None,
,,,,,,calibration,0,11,2,250,14,J,0,right,0.5584155999822542,1,0,,,,,,,,,,,,,,,,,,,,,1,,,,,,,,,,,,,,,,,,,,,,,,,,,,,,,,,,,,,,,,,,,,,,67,147346,20,Female,1,2024/02/19_16:23:49,YZ,None,
,,,,,,calibration,0,11,2,250,15,S,1,right,0.5449373679875862,0,0,,,,,,,,,,,,,,,,,,,,,1,,,,,,,,,,,,,,,,,,,,,,,,,,,,,,,,,,,,,,,,,,,,,,67,147346,20,Female,1,2024/02/19_16:23:49,YZ,None,
,,,,,,calibration,0,11,2,250,16,N,0,right,0.30888553799013607,1,0,,,,,,,,,,,,,,,,,,,,,1,,,,,,,,,,,,,,,,,,,,,,,,,,,,,,,,,,,,,,,,,,,,,,67,147346,20,Female,1,2024/02/19_16:23:49,YZ,None,
,,,,,,calibration,0,11,2,250,17,F,0,right,0.5406663780158851,1,0,,,,,,,,,,,,,,,,,,,,,1,,,,,,,,,,,,,,,,,,,,,,,,,,,,,,,,,,,,,,,,,,,,,,67,147346,20,Female,1,2024/02/19_16:23:49,YZ,None,
,,,,,,calibration,0,11,2,250,18,V,0,right,0.45434468498569913,1,0,,,,,,,,,,,,,,,,,,,,,1,,,,,,,,,,,,,,,,,,,,,,,,,,,,,,,,,,,,,,,,,,,,,,67,147346,20,Female,1,2024/02/19_16:23:49,YZ,None,
,,,,,,calibration,0,11,2,250,19,F,1,left,0.42452180600957945,1,0,,,,,,,,,,,,,,,,,,,,,1,,,,,,,,,,,,,,,,,,,,,,,,,,,,,,,,,,,,,,,,,,,,,,67,147346,20,Female,1,2024/02/19_16:23:49,YZ,None,
,,,,,,calibration,0,11,2,250,20,V,1,left,0.710090400010813,1,0,,,,,,,,,,,,,,,,,,,,,1,,,,,,,,,,,,,,,,,,,,,,,,,,,,,,,,,,,,,,,,,,,,,,67,147346,20,Female,1,2024/02/19_16:23:49,YZ,None,
,,,,,,calibration,0,11,2,250,,,,,,,,0.95,0.8,0.0,1.0,0.0,1.0,0.47489901159715375,4,0,0,0,0,15,19,5,15,0,,,,1,,,,,,,,,,,,,,,,,,,,,,,,,,,,,,,,,,,,,,,,,,,,,,67,147346,20,Female,1,2024/02/19_16:23:49,YZ,None,
,,,,,,Calibration,0,,2,250,,,,,,,,,,,,,,,,,,,,,,,,,10,,,1,,,,,,,,,,,,,,,,,,,,,,,,,,,,,,,,,,,,,,,,,,,,,,67,147346,20,Female,1,2024/02/19_16:23:49,YZ,None,
,,,,,,calibration,0,20,2,202,1,F,0,right,0.3980015460110735,1,0,,,,,,,,,,,,,,,,,,,,,1,,,,,,,,,,,,,,,,,,,,,,,,,,,,,,,,,,,,,,,,,,,,,,67,147346,20,Female,1,2024/02/19_16:23:49,YZ,None,
,,,,,,calibration,0,20,2,202,2,S,0,right,0.28309725399594754,1,0,,,,,,,,,,,,,,,,,,,,,1,,,,,,,,,,,,,,,,,,,,,,,,,,,,,,,,,,,,,,,,,,,,,,67,147346,20,Female,1,2024/02/19_16:23:49,YZ,None,
,,,,,,calibration,0,20,2,202,3,C,0,right,0.3731216290034354,1,0,,,,,,,,,,,,,,,,,,,,,1,,,,,,,,,,,,,,,,,,,,,,,,,,,,,,,,,,,,,,,,,,,,,,67,147346,20,Female,1,2024/02/19_16:23:49,YZ,None,
,,,,,,calibration,0,20,2,202,4,Q,0,right,0.5120511460117996,1,0,,,,,,,,,,,,,,,,,,,,,1,,,,,,,,,,,,,,,,,,,,,,,,,,,,,,,,,,,,,,,,,,,,,,67,147346,20,Female,1,2024/02/19_16:23:49,YZ,None,
,,,,,,calibration,0,20,2,202,5,J,0,right,0.434109542024089,1,0,,,,,,,,,,,,,,,,,,,,,1,,,,,,,,,,,,,,,,,,,,,,,,,,,,,,,,,,,,,,,,,,,,,,67,147346,20,Female,1,2024/02/19_16:23:49,YZ,None,
,,,,,,calibration,0,20,2,202,6,F,0,right,0.4170375519897789,1,0,,,,,,,,,,,,,,,,,,,,,1,,,,,,,,,,,,,,,,,,,,,,,,,,,,,,,,,,,,,,,,,,,,,,67,147346,20,Female,1,2024/02/19_16:23:49,YZ,None,
,,,,,,calibration,0,20,2,202,7,J,1,left,0.45304436498554423,1,0,,,,,,,,,,,,,,,,,,,,,1,,,,,,,,,,,,,,,,,,,,,,,,,,,,,,,,,,,,,,,,,,,,,,67,147346,20,Female,1,2024/02/19_16:23:49,YZ,None,
,,,,,,calibration,0,20,2,202,8,C,0,right,0.5293474830104969,1,0,,,,,,,,,,,,,,,,,,,,,1,,,,,,,,,,,,,,,,,,,,,,,,,,,,,,,,,,,,,,,,,,,,,,67,147346,20,Female,1,2024/02/19_16:23:49,YZ,None,
,,,,,,calibration,0,20,2,202,9,Q,0,right,0.47100990000762977,1,0,,,,,,,,,,,,,,,,,,,,,1,,,,,,,,,,,,,,,,,,,,,,,,,,,,,,,,,,,,,,,,,,,,,,67,147346,20,Female,1,2024/02/19_16:23:49,YZ,None,
,,,,,,calibration,0,20,2,202,10,F,0,right,0.4171524900011718,1,0,,,,,,,,,,,,,,,,,,,,,1,,,,,,,,,,,,,,,,,,,,,,,,,,,,,,,,,,,,,,,,,,,,,,67,147346,20,Female,1,2024/02/19_16:23:49,YZ,None,
,,,,,,calibration,0,20,2,202,11,Q,1,left,0.5395497209974565,1,0,,,,,,,,,,,,,,,,,,,,,1,,,,,,,,,,,,,,,,,,,,,,,,,,,,,,,,,,,,,,,,,,,,,,67,147346,20,Female,1,2024/02/19_16:23:49,YZ,None,
,,,,,,calibration,0,20,2,202,12,F,1,right,0.3669119790138211,0,0,,,,,,,,,,,,,,,,,,,,,1,,,,,,,,,,,,,,,,,,,,,,,,,,,,,,,,,,,,,,,,,,,,,,67,147346,20,Female,1,2024/02/19_16:23:49,YZ,None,
,,,,,,calibration,0,20,2,202,13,X,0,right,0.4730704100220464,1,0,,,,,,,,,,,,,,,,,,,,,1,,,,,,,,,,,,,,,,,,,,,,,,,,,,,,,,,,,,,,,,,,,,,,67,147346,20,Female,1,2024/02/19_16:23:49,YZ,None,
,,,,,,calibration,0,20,2,202,14,F,1,left,0.5188082510139793,1,0,,,,,,,,,,,,,,,,,,,,,1,,,,,,,,,,,,,,,,,,,,,,,,,,,,,,,,,,,,,,,,,,,,,,67,147346,20,Female,1,2024/02/19_16:23:49,YZ,None,
,,,,,,calibration,0,20,2,202,15,J,0,right,0.31875361400307156,1,0,,,,,,,,,,,,,,,,,,,,,1,,,,,,,,,,,,,,,,,,,,,,,,,,,,,,,,,,,,,,,,,,,,,,67,147346,20,Female,1,2024/02/19_16:23:49,YZ,None,
,,,,,,calibration,0,20,2,202,16,F,1,right,0.6037387709948234,0,0,,,,,,,,,,,,,,,,,,,,,1,,,,,,,,,,,,,,,,,,,,,,,,,,,,,,,,,,,,,,,,,,,,,,67,147346,20,Female,1,2024/02/19_16:23:49,YZ,None,
,,,,,,calibration,0,20,2,202,17,J,1,right,nan,0,1,,,,,,,,,,,,,,,,,,,,,1,,,,,,,,,,,,,,,,,,,,,,,,,,,,,,,,,,,,,,,,,,,,,,67,147346,20,Female,1,2024/02/19_16:23:49,YZ,None,
,,,,,,calibration,0,20,2,202,18,N,0,right,0.6635720529884566,1,0,,,,,,,,,,,,,,,,,,,,,1,,,,,,,,,,,,,,,,,,,,,,,,,,,,,,,,,,,,,,,,,,,,,,67,147346,20,Female,1,2024/02/19_16:23:49,YZ,None,
,,,,,,calibration,0,20,2,202,19,J,1,right,0.492448928009253,0,0,,,,,,,,,,,,,,,,,,,,,1,,,,,,,,,,,,,,,,,,,,,,,,,,,,,,,,,,,,,,,,,,,,,,67,147346,20,Female,1,2024/02/19_16:23:49,YZ,None,
,,,,,,calibration,0,20,2,202,20,S,0,left,0.6493973430187907,0,0,,,,,,,,,,,,,,,,,,,,,1,,,,,,,,,,,,,,,,,,,,,,,,,,,,,,,,,,,,,,,,,,,,,,67,147346,20,Female,1,2024/02/19_16:23:49,YZ,None,
,,,,,,calibration,0,20,2,202,21,Q,0,right,0.3737438050156925,1,0,,,,,,,,,,,,,,,,,,,,,1,,,,,,,,,,,,,,,,,,,,,,,,,,,,,,,,,,,,,,,,,,,,,,67,147346,20,Female,1,2024/02/19_16:23:49,YZ,None,
,,,,,,calibration,0,20,2,202,,,,,,,,0.7976190476190477,0.42857142857142855,0.07142857142857142,0.9285714285714286,0.047619047619047616,0.8809523809523809,0.4643983891059179,3,1,1,0,1,13,16,7,14,0,,,,1,,,,,,,,,,,,,,,,,,,,,,,,,,,,,,,,,,,,,,,,,,,,,,67,147346,20,Female,1,2024/02/19_16:23:49,YZ,None,
,,,,,,Calibration,0,,2,202,,,,,,,,,,,,,,,,,,,,,,,,,11,,,1,,,,,,,,,,,,,,,,,,,,,,,,,,,,,,,,,,,,,,,,,,,,,,67,147346,20,Female,1,2024/02/19_16:23:49,YZ,None,
,,,,,,calibration,0,2,2,202,1,C,0,right,0.3763025979860686,1,0,,,,,,,,,,,,,,,,,,,,,1,,,,,,,,,,,,,,,,,,,,,,,,,,,,,,,,,,,,,,,,,,,,,,67,147346,20,Female,1,2024/02/19_16:23:49,YZ,None,
,,,,,,calibration,0,2,2,202,2,Q,0,right,0.31363968798541464,1,0,,,,,,,,,,,,,,,,,,,,,1,,,,,,,,,,,,,,,,,,,,,,,,,,,,,,,,,,,,,,,,,,,,,,67,147346,20,Female,1,2024/02/19_16:23:49,YZ,None,
,,,,,,calibration,0,2,2,202,3,C,1,left,0.44511234902893193,1,0,,,,,,,,,,,,,,,,,,,,,1,,,,,,,,,,,,,,,,,,,,,,,,,,,,,,,,,,,,,,,,,,,,,,67,147346,20,Female,1,2024/02/19_16:23:49,YZ,None,
,,,,,,calibration,0,2,2,202,4,X,0,right,0.43692134000593796,1,0,,,,,,,,,,,,,,,,,,,,,1,,,,,,,,,,,,,,,,,,,,,,,,,,,,,,,,,,,,,,,,,,,,,,67,147346,20,Female,1,2024/02/19_16:23:49,YZ,None,
,,,,,,calibration,0,2,2,202,5,C,1,right,nan,0,1,,,,,,,,,,,,,,,,,,,,,1,,,,,,,,,,,,,,,,,,,,,,,,,,,,,,,,,,,,,,,,,,,,,,67,147346,20,Female,1,2024/02/19_16:23:49,YZ,None,
,,,,,,calibration,0,2,2,202,6,Q,0,right,0.5121391970023979,1,0,,,,,,,,,,,,,,,,,,,,,1,,,,,,,,,,,,,,,,,,,,,,,,,,,,,,,,,,,,,,,,,,,,,,67,147346,20,Female,1,2024/02/19_16:23:49,YZ,None,
,,,,,,calibration,0,2,2,202,7,X,0,right,0.6650638630089816,1,0,,,,,,,,,,,,,,,,,,,,,1,,,,,,,,,,,,,,,,,,,,,,,,,,,,,,,,,,,,,,,,,,,,,,67,147346,20,Female,1,2024/02/19_16:23:49,YZ,None,
,,,,,,calibration,0,2,2,202,8,S,0,right,0.5658409250027034,1,0,,,,,,,,,,,,,,,,,,,,,1,,,,,,,,,,,,,,,,,,,,,,,,,,,,,,,,,,,,,,,,,,,,,,67,147346,20,Female,1,2024/02/19_16:23:49,YZ,None,
,,,,,,calibration,0,2,2,202,9,C,0,right,nan,0,1,,,,,,,,,,,,,,,,,,,,,1,,,,,,,,,,,,,,,,,,,,,,,,,,,,,,,,,,,,,,,,,,,,,,67,147346,20,Female,1,2024/02/19_16:23:49,YZ,None,
,,,,,,calibration,0,2,2,202,10,Q,0,right,0.3042589569813572,1,0,,,,,,,,,,,,,,,,,,,,,1,,,,,,,,,,,,,,,,,,,,,,,,,,,,,,,,,,,,,,,,,,,,,,67,147346,20,Female,1,2024/02/19_16:23:49,YZ,None,
,,,,,,calibration,0,2,2,202,11,X,0,right,0.4487725390063133,1,0,,,,,,,,,,,,,,,,,,,,,1,,,,,,,,,,,,,,,,,,,,,,,,,,,,,,,,,,,,,,,,,,,,,,67,147346,20,Female,1,2024/02/19_16:23:49,YZ,None,
,,,,,,calibration,0,2,2,202,12,C,0,right,0.5403270670212805,1,0,,,,,,,,,,,,,,,,,,,,,1,,,,,,,,,,,,,,,,,,,,,,,,,,,,,,,,,,,,,,,,,,,,,,67,147346,20,Female,1,2024/02/19_16:23:49,YZ,None,
,,,,,,calibration,0,2,2,202,13,Q,0,left,0.5554384060087614,0,0,,,,,,,,,,,,,,,,,,,,,1,,,,,,,,,,,,,,,,,,,,,,,,,,,,,,,,,,,,,,,,,,,,,,67,147346,20,Female,1,2024/02/19_16:23:49,YZ,None,
,,,,,,calibration,0,2,2,202,14,C,1,right,0.3403728170087561,0,0,,,,,,,,,,,,,,,,,,,,,1,,,,,,,,,,,,,,,,,,,,,,,,,,,,,,,,,,,,,,,,,,,,,,67,147346,20,Female,1,2024/02/19_16:23:49,YZ,None,
,,,,,,calibration,0,2,2,202,15,J,0,right,nan,0,1,,,,,,,,,,,,,,,,,,,,,1,,,,,,,,,,,,,,,,,,,,,,,,,,,,,,,,,,,,,,,,,,,,,,67,147346,20,Female,1,2024/02/19_16:23:49,YZ,None,
,,,,,,calibration,0,2,2,202,16,N,0,right,0.6315307680051774,1,0,,,,,,,,,,,,,,,,,,,,,1,,,,,,,,,,,,,,,,,,,,,,,,,,,,,,,,,,,,,,,,,,,,,,67,147346,20,Female,1,2024/02/19_16:23:49,YZ,None,
,,,,,,calibration,0,2,2,202,17,J,1,right,0.40546219900716096,0,0,,,,,,,,,,,,,,,,,,,,,1,,,,,,,,,,,,,,,,,,,,,,,,,,,,,,,,,,,,,,,,,,,,,,67,147346,20,Female,1,2024/02/19_16:23:49,YZ,None,
,,,,,,calibration,0,2,2,202,18,C,0,right,0.5430089260044042,1,0,,,,,,,,,,,,,,,,,,,,,1,,,,,,,,,,,,,,,,,,,,,,,,,,,,,,,,,,,,,,,,,,,,,,67,147346,20,Female,1,2024/02/19_16:23:49,YZ,None,
,,,,,,calibration,0,2,2,202,19,V,0,right,nan,0,1,,,,,,,,,,,,,,,,,,,,,1,,,,,,,,,,,,,,,,,,,,,,,,,,,,,,,,,,,,,,,,,,,,,,67,147346,20,Female,1,2024/02/19_16:23:49,YZ,None,
,,,,,,calibration,0,2,2,202,20,C,1,left,0.40541897699586116,1,0,,,,,,,,,,,,,,,,,,,,,1,,,,,,,,,,,,,,,,,,,,,,,,,,,,,,,,,,,,,,,,,,,,,,67,147346,20,Female,1,2024/02/19_16:23:49,YZ,None,
,,,,,,calibration,0,2,2,202,21,V,1,left,0.6498486159835011,1,0,,,,,,,,,,,,,,,,,,,,,1,,,,,,,,,,,,,,,,,,,,,,,,,,,,,,,,,,,,,,,,,,,,,,67,147346,20,Female,1,2024/02/19_16:23:49,YZ,None,
,,,,,,calibration,0,2,2,202,,,,,,,,0.8250000000000001,0.5,0.06666666666666667,0.9166666666666666,0.19047619047619047,0.7428571428571429,0.4787917195319417,3,1,1,3,4,11,14,6,15,0,,,,1,,,,,,,,,,,,,,,,,,,,,,,,,,,,,,,,,,,,,,,,,,,,,,67,147346,20,Female,1,2024/02/19_16:23:49,YZ,None,
,,,,,,Calibration,0,,2,202,,,,,,,,,,,,,,,,,,,,,,,,,12,,,1,,,,,,,,,,,,,,,,,,,,,,,,,,,,,,,,,,,,,,,,,,,,,,67,147346,20,Female,1,2024/02/19_16:23:49,YZ,None,
,,,,,,calibration,0,25,2,202,1,J,0,right,0.39024902498931624,1,0,,,,,,,,,,,,,,,,,,,,,1,,,,,,,,,,,,,,,,,,,,,,,,,,,,,,,,,,,,,,,,,,,,,,67,147346,20,Female,1,2024/02/19_16:23:49,YZ,None,
,,,,,,calibration,0,25,2,202,2,V,0,right,0.43295902298996225,1,0,,,,,,,,,,,,,,,,,,,,,1,,,,,,,,,,,,,,,,,,,,,,,,,,,,,,,,,,,,,,,,,,,,,,67,147346,20,Female,1,2024/02/19_16:23:49,YZ,None,
,,,,,,calibration,0,25,2,202,3,N,0,right,0.42020501699880697,1,0,,,,,,,,,,,,,,,,,,,,,1,,,,,,,,,,,,,,,,,,,,,,,,,,,,,,,,,,,,,,,,,,,,,,67,147346,20,Female,1,2024/02/19_16:23:49,YZ,None,
,,,,,,calibration,0,25,2,202,4,S,0,right,0.5440772709844168,1,0,,,,,,,,,,,,,,,,,,,,,1,,,,,,,,,,,,,,,,,,,,,,,,,,,,,,,,,,,,,,,,,,,,,,67,147346,20,Female,1,2024/02/19_16:23:49,YZ,None,
,,,,,,calibration,0,25,2,202,5,C,0,right,0.4975276539917104,1,0,,,,,,,,,,,,,,,,,,,,,1,,,,,,,,,,,,,,,,,,,,,,,,,,,,,,,,,,,,,,,,,,,,,,67,147346,20,Female,1,2024/02/19_16:23:49,YZ,None,
,,,,,,calibration,0,25,2,202,6,Q,0,right,0.6045707309967838,1,0,,,,,,,,,,,,,,,,,,,,,1,,,,,,,,,,,,,,,,,,,,,,,,,,,,,,,,,,,,,,,,,,,,,,67,147346,20,Female,1,2024/02/19_16:23:49,YZ,None,
,,,,,,calibration,0,25,2,202,7,N,0,right,nan,0,1,,,,,,,,,,,,,,,,,,,,,1,,,,,,,,,,,,,,,,,,,,,,,,,,,,,,,,,,,,,,,,,,,,,,67,147346,20,Female,1,2024/02/19_16:23:49,YZ,None,
,,,,,,calibration,0,25,2,202,8,Q,1,right,0.5473532330070157,0,0,,,,,,,,,,,,,,,,,,,,,1,,,,,,,,,,,,,,,,,,,,,,,,,,,,,,,,,,,,,,,,,,,,,,67,147346,20,Female,1,2024/02/19_16:23:49,YZ,None,
,,,,,,calibration,0,25,2,202,9,N,1,left,0.3513114290253725,1,0,,,,,,,,,,,,,,,,,,,,,1,,,,,,,,,,,,,,,,,,,,,,,,,,,,,,,,,,,,,,,,,,,,,,67,147346,20,Female,1,2024/02/19_16:23:49,YZ,None,
,,,,,,calibration,0,25,2,202,10,S,0,right,0.6805455180001445,1,0,,,,,,,,,,,,,,,,,,,,,1,,,,,,,,,,,,,,,,,,,,,,,,,,,,,,,,,,,,,,,,,,,,,,67,147346,20,Female,1,2024/02/19_16:23:49,YZ,None,
,,,,,,calibration,0,25,2,202,11,X,0,right,0.6699860029912088,1,0,,,,,,,,,,,,,,,,,,,,,1,,,,,,,,,,,,,,,,,,,,,,,,,,,,,,,,,,,,,,,,,,,,,,67,147346,20,Female,1,2024/02/19_16:23:49,YZ,None,
,,,,,,calibration,0,25,2,202,12,S,1,right,0.6730406990100164,0,0,,,,,,,,,,,,,,,,,,,,,1,,,,,,,,,,,,,,,,,,,,,,,,,,,,,,,,,,,,,,,,,,,,,,67,147346,20,Female,1,2024/02/19_16:23:49,YZ,None,
,,,,,,calibration,0,25,2,202,13,X,1,right,0.6274748239957262,0,0,,,,,,,,,,,,,,,,,,,,,1,,,,,,,,,,,,,,,,,,,,,,,,,,,,,,,,,,,,,,,,,,,,,,67,147346,20,Female,1,2024/02/19_16:23:49,YZ,None,
,,,,,,calibration,0,25,2,202,14,V,0,right,0.6260909709963016,1,0,,,,,,,,,,,,,,,,,,,,,1,,,,,,,,,,,,,,,,,,,,,,,,,,,,,,,,,,,,,,,,,,,,,,67,147346,20,Female,1,2024/02/19_16:23:49,YZ,None,
,,,,,,calibration,0,25,2,202,15,S,0,right,0.40716400000383146,1,0,,,,,,,,,,,,,,,,,,,,,1,,,,,,,,,,,,,,,,,,,,,,,,,,,,,,,,,,,,,,,,,,,,,,67,147346,20,Female,1,2024/02/19_16:23:49,YZ,None,
,,,,,,calibration,0,25,2,202,16,N,0,right,0.50046347497846,1,0,,,,,,,,,,,,,,,,,,,,,1,,,,,,,,,,,,,,,,,,,,,,,,,,,,,,,,,,,,,,,,,,,,,,67,147346,20,Female,1,2024/02/19_16:23:49,YZ,None,
,,,,,,calibration,0,25,2,202,17,J,0,right,0.5424541349930223,1,0,,,,,,,,,,,,,,,,,,,,,1,,,,,,,,,,,,,,,,,,,,,,,,,,,,,,,,,,,,,,,,,,,,,,67,147346,20,Female,1,2024/02/19_16:23:49,YZ,None,
,,,,,,calibration,0,25,2,202,18,C,0,right,0.4588008310238365,1,0,,,,,,,,,,,,,,,,,,,,,1,,,,,,,,,,,,,,,,,,,,,,,,,,,,,,,,,,,,,,,,,,,,,,67,147346,20,Female,1,2024/02/19_16:23:49,YZ,None,
,,,,,,calibration,0,25,2,202,19,V,0,right,0.5227584929962177,1,0,,,,,,,,,,,,,,,,,,,,,1,,,,,,,,,,,,,,,,,,,,,,,,,,,,,,,,,,,,,,,,,,,,,,67,147346,20,Female,1,2024/02/19_16:23:49,YZ,None,
,,,,,,calibration,0,25,2,202,20,C,1,left,0.6900891849945765,1,0,,,,,,,,,,,,,,,,,,,,,1,,,,,,,,,,,,,,,,,,,,,,,,,,,,,,,,,,,,,,,,,,,,,,67,147346,20,Female,1,2024/02/19_16:23:49,YZ,None,
,,,,,,calibration,0,25,2,202,21,V,1,left,0.5443575920071453,1,0,,,,,,,,,,,,,,,,,,,,,1,,,,,,,,,,,,,,,,,,,,,,,,,,,,,,,,,,,,,,,,,,,,,,67,147346,20,Female,1,2024/02/19_16:23:49,YZ,None,
,,,,,,calibration,0,25,2,202,,,,,,,,0.875,0.5,0.0,1.0,0.047619047619047616,0.9523809523809523,0.5365739554486936,3,0,0,1,1,14,17,6,15,0,,,,1,,,,,,,,,,,,,,,,,,,,,,,,,,,,,,,,,,,,,,,,,,,,,,67,147346,20,Female,1,2024/02/19_16:23:49,YZ,None,
,,,,,,Calibration,0,,2,202,,,,,,,,,,,,,,,,,,,,,,,,,13,,,1,,,,,,,,,,,,,,,,,,,,,,,,,,,,,,,,,,,,,,,,,,,,,,67,147346,20,Female,1,2024/02/19_16:23:49,YZ,None,
,,,,,,calibration,0,19,2,159,1,F,0,right,0.41627322300337255,1,0,,,,,,,,,,,,,,,,,,,,,1,,,,,,,,,,,,,,,,,,,,,,,,,,,,,,,,,,,,,,,,,,,,,,67,147346,20,Female,1,2024/02/19_16:23:49,YZ,None,
,,,,,,calibration,0,19,2,159,2,N,0,right,0.433352444000775,1,0,,,,,,,,,,,,,,,,,,,,,1,,,,,,,,,,,,,,,,,,,,,,,,,,,,,,,,,,,,,,,,,,,,,,67,147346,20,Female,1,2024/02/19_16:23:49,YZ,None,
,,,,,,calibration,0,19,2,159,3,V,0,right,0.5120001210016198,1,0,,,,,,,,,,,,,,,,,,,,,1,,,,,,,,,,,,,,,,,,,,,,,,,,,,,,,,,,,,,,,,,,,,,,67,147346,20,Female,1,2024/02/19_16:23:49,YZ,None,
,,,,,,calibration,0,19,2,159,4,X,0,right,0.5638448829995468,1,0,,,,,,,,,,,,,,,,,,,,,1,,,,,,,,,,,,,,,,,,,,,,,,,,,,,,,,,,,,,,,,,,,,,,67,147346,20,Female,1,2024/02/19_16:23:49,YZ,None,
,,,,,,calibration,0,19,2,159,5,V,1,left,0.46601048699812964,1,0,,,,,,,,,,,,,,,,,,,,,1,,,,,,,,,,,,,,,,,,,,,,,,,,,,,,,,,,,,,,,,,,,,,,67,147346,20,Female,1,2024/02/19_16:23:49,YZ,None,
,,,,,,calibration,0,19,2,159,6,X,1,right,0.552933289000066,0,0,,,,,,,,,,,,,,,,,,,,,1,,,,,,,,,,,,,,,,,,,,,,,,,,,,,,,,,,,,,,,,,,,,,,67,147346,20,Female,1,2024/02/19_16:23:49,YZ,None,
,,,,,,calibration,0,19,2,159,7,N,0,right,nan,0,1,,,,,,,,,,,,,,,,,,,,,1,,,,,,,,,,,,,,,,,,,,,,,,,,,,,,,,,,,,,,,,,,,,,,67,147346,20,Female,1,2024/02/19_16:23:49,YZ,None,
,,,,,,calibration,0,19,2,159,8,C,0,right,0.7079870159795973,1,0,,,,,,,,,,,,,,,,,,,,,1,,,,,,,,,,,,,,,,,,,,,,,,,,,,,,,,,,,,,,,,,,,,,,67,147346,20,Female,1,2024/02/19_16:23:49,YZ,None,
,,,,,,calibration,0,19,2,159,9,F,0,right,0.41249583702301607,1,0,,,,,,,,,,,,,,,,,,,,,1,,,,,,,,,,,,,,,,,,,,,,,,,,,,,,,,,,,,,,,,,,,,,,67,147346,20,Female,1,2024/02/19_16:23:49,YZ,None,
,,,,,,calibration,0,19,2,159,10,C,1,right,0.48336161399492994,0,0,,,,,,,,,,,,,,,,,,,,,1,,,,,,,,,,,,,,,,,,,,,,,,,,,,,,,,,,,,,,,,,,,,,,67,147346,20,Female,1,2024/02/19_16:23:49,YZ,None,
,,,,,,calibration,0,19,2,159,11,J,0,right,0.6935641389864031,1,0,,,,,,,,,,,,,,,,,,,,,1,,,,,,,,,,,,,,,,,,,,,,,,,,,,,,,,,,,,,,,,,,,,,,67,147346,20,Female,1,2024/02/19_16:23:49,YZ,None,
,,,,,,calibration,0,19,2,159,12,S,0,right,nan,0,1,,,,,,,,,,,,,,,,,,,,,1,,,,,,,,,,,,,,,,,,,,,,,,,,,,,,,,,,,,,,,,,,,,,,67,147346,20,Female,1,2024/02/19_16:23:49,YZ,None,
,,,,,,calibration,0,19,2,159,13,Q,0,right,0.015968095016432926,1,0,,,,,,,,,,,,,,,,,,,,,1,,,,,,,,,,,,,,,,,,,,,,,,,,,,,,,,,,,,,,,,,,,,,,67,147346,20,Female,1,2024/02/19_16:23:49,YZ,None,
,,,,,,calibration,0,19,2,159,14,V,0,right,0.29915449500549585,1,0,,,,,,,,,,,,,,,,,,,,,1,,,,,,,,,,,,,,,,,,,,,,,,,,,,,,,,,,,,,,,,,,,,,,67,147346,20,Female,1,2024/02/19_16:23:49,YZ,None,
,,,,,,calibration,0,19,2,159,15,J,0,right,0.42488223299733363,1,0,,,,,,,,,,,,,,,,,,,,,1,,,,,,,,,,,,,,,,,,,,,,,,,,,,,,,,,,,,,,,,,,,,,,67,147346,20,Female,1,2024/02/19_16:23:49,YZ,None,
,,,,,,calibration,0,19,2,159,16,V,1,left,0.42452833798597567,1,0,,,,,,,,,,,,,,,,,,,,,1,,,,,,,,,,,,,,,,,,,,,,,,,,,,,,,,,,,,,,,,,,,,,,67,147346,20,Female,1,2024/02/19_16:23:49,YZ,None,
,,,,,,calibration,0,19,2,159,17,J,1,left,0.4977850059804041,1,0,,,,,,,,,,,,,,,,,,,,,1,,,,,,,,,,,,,,,,,,,,,,,,,,,,,,,,,,,,,,,,,,,,,,67,147346,20,Female,1,2024/02/19_16:23:49,YZ,None,
,,,,,,calibration,0,19,2,159,18,C,0,right,0.6853757409844548,1,0,,,,,,,,,,,,,,,,,,,,,1,,,,,,,,,,,,,,,,,,,,,,,,,,,,,,,,,,,,,,,,,,,,,,67,147346,20,Female,1,2024/02/19_16:23:49,YZ,None,
,,,,,,calibration,0,19,2,159,19,Q,0,right,0.9242716239823494,1,0,,,,,,,,,,,,,,,,,,,,,1,,,,,,,,,,,,,,,,,,,,,,,,,,,,,,,,,,,,,,,,,,,,,,67,147346,20,Female,1,2024/02/19_16:23:49,YZ,None,
,,,,,,calibration,0,19,2,159,20,S,0,right,0.5540640469989739,1,0,,,,,,,,,,,,,,,,,,,,,1,,,,,,,,,,,,,,,,,,,,,,,,,,,,,,,,,,,,,,,,,,,,,,67,147346,20,Female,1,2024/02/19_16:23:49,YZ,None,
,,,,,,calibration,0,19,2,159,21,Q,1,left,0.6726445110107306,1,0,,,,,,,,,,,,,,,,,,,,,1,,,,,,,,,,,,,,,,,,,,,,,,,,,,,,,,,,,,,,,,,,,,,,67,147346,20,Female,1,2024/02/19_16:23:49,YZ,None,
,,,,,,calibration,0,19,2,159,22,F,0,right,0.41222362098051235,1,0,,,,,,,,,,,,,,,,,,,,,1,,,,,,,,,,,,,,,,,,,,,,,,,,,,,,,,,,,,,,,,,,,,,,67,147346,20,Female,1,2024/02/19_16:23:49,YZ,None,
,,,,,,calibration,0,19,2,159,,,,,,,,0.9166666666666666,0.6666666666666666,0.0,1.0,0.09090909090909091,0.9090909090909091,0.5076360381965059,4,0,0,2,2,14,18,6,16,0,,,,1,,,,,,,,,,,,,,,,,,,,,,,,,,,,,,,,,,,,,,,,,,,,,,67,147346,20,Female,1,2024/02/19_16:23:49,YZ,None,
,,,,,,Calibration,0,,2,159,,,,,,,,,,,,,,,,,,,,,,,,,14,,,1,,,,,,,,,,,,,,,,,,,,,,,,,,,,,,,,,,,,,,,,,,,,,,67,147346,20,Female,1,2024/02/19_16:23:49,YZ,None,
,,,,,,calibration,0,26,2,120,1,X,0,right,0.33735921600600705,1,0,,,,,,,,,,,,,,,,,,,,,1,,,,,,,,,,,,,,,,,,,,,,,,,,,,,,,,,,,,,,,,,,,,,,67,147346,20,Female,1,2024/02/19_16:23:49,YZ,None,
,,,,,,calibration,0,26,2,120,2,X,0,right,0.32820671499939635,1,0,,,,,,,,,,,,,,,,,,,,,1,,,,,,,,,,,,,,,,,,,,,,,,,,,,,,,,,,,,,,,,,,,,,,67,147346,20,Female,1,2024/02/19_16:23:49,YZ,None,
,,,,,,calibration,0,26,2,120,3,J,0,right,0.476987364992965,1,0,,,,,,,,,,,,,,,,,,,,,1,,,,,,,,,,,,,,,,,,,,,,,,,,,,,,,,,,,,,,,,,,,,,,67,147346,20,Female,1,2024/02/19_16:23:49,YZ,None,
,,,,,,calibration,0,26,2,120,4,X,1,left,0.47440133400959894,1,0,,,,,,,,,,,,,,,,,,,,,1,,,,,,,,,,,,,,,,,,,,,,,,,,,,,,,,,,,,,,,,,,,,,,67,147346,20,Female,1,2024/02/19_16:23:49,YZ,None,
,,,,,,calibration,0,26,2,120,5,J,1,left,0.4660922240000218,1,0,,,,,,,,,,,,,,,,,,,,,1,,,,,,,,,,,,,,,,,,,,,,,,,,,,,,,,,,,,,,,,,,,,,,67,147346,20,Female,1,2024/02/19_16:23:49,YZ,None,
,,,,,,calibration,0,26,2,120,6,C,0,right,0.6059958009864204,1,0,,,,,,,,,,,,,,,,,,,,,1,,,,,,,,,,,,,,,,,,,,,,,,,,,,,,,,,,,,,,,,,,,,,,67,147346,20,Female,1,2024/02/19_16:23:49,YZ,None,
,,,,,,calibration,0,26,2,120,7,V,0,right,0.5478078430169262,1,0,,,,,,,,,,,,,,,,,,,,,1,,,,,,,,,,,,,,,,,,,,,,,,,,,,,,,,,,,,,,,,,,,,,,67,147346,20,Female,1,2024/02/19_16:23:49,YZ,None,
,,,,,,calibration,0,26,2,120,8,X,0,right,0.66388963200734,1,0,,,,,,,,,,,,,,,,,,,,,1,,,,,,,,,,,,,,,,,,,,,,,,,,,,,,,,,,,,,,,,,,,,,,67,147346,20,Female,1,2024/02/19_16:23:49,YZ,None,
,,,,,,calibration,0,26,2,120,9,J,0,right,0.9988023350015283,1,0,,,,,,,,,,,,,,,,,,,,,1,,,,,,,,,,,,,,,,,,,,,,,,,,,,,,,,,,,,,,,,,,,,,,67,147346,20,Female,1,2024/02/19_16:23:49,YZ,None,
,,,,,,calibration,0,26,2,120,10,V,0,right,0.5120975349855144,1,0,,,,,,,,,,,,,,,,,,,,,1,,,,,,,,,,,,,,,,,,,,,,,,,,,,,,,,,,,,,,,,,,,,,,67,147346,20,Female,1,2024/02/19_16:23:49,YZ,None,
,,,,,,calibration,0,26,2,120,11,J,1,left,0.6254445949743968,1,0,,,,,,,,,,,,,,,,,,,,,1,,,,,,,,,,,,,,,,,,,,,,,,,,,,,,,,,,,,,,,,,,,,,,67,147346,20,Female,1,2024/02/19_16:23:49,YZ,None,
,,,,,,calibration,0,26,2,120,12,N,0,right,0.4523905440000817,1,0,,,,,,,,,,,,,,,,,,,,,1,,,,,,,,,,,,,,,,,,,,,,,,,,,,,,,,,,,,,,,,,,,,,,67,147346,20,Female,1,2024/02/19_16:23:49,YZ,None,
,,,,,,calibration,0,26,2,120,13,Q,0,right,0.4484444900008384,1,0,,,,,,,,,,,,,,,,,,,,,1,,,,,,,,,,,,,,,,,,,,,,,,,,,,,,,,,,,,,,,,,,,,,,67,147346,20,Female,1,2024/02/19_16:23:49,YZ,None,
,,,,,,calibration,0,26,2,120,14,J,0,right,0.7575254100083839,1,0,,,,,,,,,,,,,,,,,,,,,1,,,,,,,,,,,,,,,,,,,,,,,,,,,,,,,,,,,,,,,,,,,,,,67,147346,20,Female,1,2024/02/19_16:23:49,YZ,None,
,,,,,,calibration,0,26,2,120,15,N,0,right,0.6562413240026217,1,0,,,,,,,,,,,,,,,,,,,,,1,,,,,,,,,,,,,,,,,,,,,,,,,,,,,,,,,,,,,,,,,,,,,,67,147346,20,Female,1,2024/02/19_16:23:49,YZ,None,
,,,,,,calibration,0,26,2,120,16,J,1,left,0.9308093629952054,1,0,,,,,,,,,,,,,,,,,,,,,1,,,,,,,,,,,,,,,,,,,,,,,,,,,,,,,,,,,,,,,,,,,,,,67,147346,20,Female,1,2024/02/19_16:23:49,YZ,None,
,,,,,,calibration,0,26,2,120,17,N,1,left,0.7094430850120261,1,0,,,,,,,,,,,,,,,,,,,,,1,,,,,,,,,,,,,,,,,,,,,,,,,,,,,,,,,,,,,,,,,,,,,,67,147346,20,Female,1,2024/02/19_16:23:49,YZ,None,
,,,,,,calibration,0,26,2,120,18,S,0,right,0.4873813529848121,1,0,,,,,,,,,,,,,,,,,,,,,1,,,,,,,,,,,,,,,,,,,,,,,,,,,,,,,,,,,,,,,,,,,,,,67,147346,20,Female,1,2024/02/19_16:23:49,YZ,None,
,,,,,,calibration,0,26,2,120,19,C,0,right,0.4982307020109147,1,0,,,,,,,,,,,,,,,,,,,,,1,,,,,,,,,,,,,,,,,,,,,,,,,,,,,,,,,,,,,,,,,,,,,,67,147346,20,Female,1,2024/02/19_16:23:49,YZ,None,
,,,,,,calibration,0,26,2,120,20,V,0,right,0.7717316650087014,1,0,,,,,,,,,,,,,,,,,,,,,1,,,,,,,,,,,,,,,,,,,,,,,,,,,,,,,,,,,,,,,,,,,,,,67,147346,20,Female,1,2024/02/19_16:23:49,YZ,None,
,,,,,,calibration,0,26,2,120,21,N,0,right,0.7479994719906244,1,0,,,,,,,,,,,,,,,,,,,,,1,,,,,,,,,,,,,,,,,,,,,,,,,,,,,,,,,,,,,,,,,,,,,,67,147346,20,Female,1,2024/02/19_16:23:49,YZ,None,
,,,,,,calibration,0,26,2,120,22,S,0,right,0.7483033469761722,1,0,,,,,,,,,,,,,,,,,,,,,1,,,,,,,,,,,,,,,,,,,,,,,,,,,,,,,,,,,,,,,,,,,,,,67,147346,20,Female,1,2024/02/19_16:23:49,YZ,None,
,,,,,,calibration,0,26,2,120,23,N,1,right,0.49947934498777613,0,0,,,,,,,,,,,,,,,,,,,,,1,,,,,,,,,,,,,,,,,,,,,,,,,,,,,,,,,,,,,,,,,,,,,,67,147346,20,Female,1,2024/02/19_16:23:49,YZ,None,
,,,,,,calibration,0,26,2,120,,,,,,,,0.9583333333333334,0.8333333333333334,0.0,1.0,0.0,1.0,0.5976115084764466,5,0,0,0,0,17,22,6,17,0,,,,1,,,,,,,,,,,,,,,,,,,,,,,,,,,,,,,,,,,,,,,,,,,,,,67,147346,20,Female,1,2024/02/19_16:23:49,YZ,None,
,,,,,,Calibration,0,,2,120,,,,,,,,,,,,,,,,,,,,,,,,,15,,,1,,,,,,,,,,,,,,,,,,,,,,,,,,,,,,,,,,,,,,,,,,,,,,67,147346,20,Female,1,2024/02/19_16:23:49,YZ,None,
,,,,,,CALIBRATION,0,,,,,,,,,,,,,,,,,,,,,,,,,,,,15,0.9583333333333334,120,1,,,,,,,,,,,,,,,,,,,,,,,,,,,,,,,,,,,,,,,,,,,,,,67,147346,20,Female,1,2024/02/19_16:23:49,YZ,None,
1,./instructions/inst_prac_1/Slide24.png,right,9.30672453000443,475.3781851280073,484.68490965801175,,,,,,,,,,,,,,,,,,,,,,,,,,,,,,,,,1,,,,,,,,,,,,,,,,,,,,,,,,,,,,,,,,,,,,,,,,,,,,,,67,147346,20,Female,1,2024/02/19_16:23:49,YZ,None,
2,./instructions/inst_prac_1/Slide25.png,right,1.0130586699815467,484.7117406190082,485.72479928898974,,,,,,,,,,,,,,,,,,,,,,,,,,,,,,,,,1,,,,,,,,,,,,,,,,,,,,,,,,,,,,,,,,,,,,,,,,,,,,,,67,147346,20,Female,1,2024/02/19_16:23:49,YZ,None,
3,./instructions/inst_prac_1/Slide26.png,right,0.763441351999063,485.75329863699153,486.5167399889906,,,,,,,,,,,,,,,,,,,,,,,,,,,,,,,,,1,,,,,,,,,,,,,,,,,,,,,,,,,,,,,,,,,,,,,,,,,,,,,,67,147346,20,Female,1,2024/02/19_16:23:49,YZ,None,
4,./instructions/inst_prac_1/Slide27.png,right,0.5475408700003754,486.54518671298865,487.092727582989,,,,,,,,,,,,,,,,,,,,,,,,,,,,,,,,,1,,,,,,,,,,,,,,,,,,,,,,,,,,,,,,,,,,,,,,,,,,,,,,67,147346,20,Female,1,2024/02/19_16:23:49,YZ,None,
5,./instructions/inst_prac_1/Slide28.png,right,0.723189119977178,487.12146415701136,487.84465327698854,,,,,,,,,,,,,,,,,,,,,,,,,,,,,,,,,1,,,,,,,,,,,,,,,,,,,,,,,,,,,,,,,,,,,,,,,,,,,,,,67,147346,20,Female,1,2024/02/19_16:23:49,YZ,None,
6,./instructions/inst_prac_1/Slide29.png,right,1.6036388369975612,487.8730965979921,489.4767354349897,,,,,,,,,,,,,,,,,,,,,,,,,,,,,,,,,1,,,,,,,,,,,,,,,,,,,,,,,,,,,,,,,,,,,,,,,,,,,,,,67,147346,20,Female,1,2024/02/19_16:23:49,YZ,None,
7,./instructions/inst_prac_1/Slide30.png,right,1.4029674589983188,489.5056919560011,490.9086594149994,,,,,,,,,,,,,,,,,,,,,,,,,,,,,,,,,1,,,,,,,,,,,,,,,,,,,,,,,,,,,,,,,,,,,,,,,,,,,,,,67,147346,20,Female,1,2024/02/19_16:23:49,YZ,None,
,,,,,,practice,0,19,1,1250,1,Q,0,right,1.715184800006682,1,0,,,,,,,,,,,,,,,,,,,,,1,,,,,,,,,,,,,,,,,,,,,,,,,,,,,,,,,,,,,,,,,,,,,,67,147346,20,Female,1,2024/02/19_16:23:49,YZ,None,
,,,,,,practice,0,19,1,1250,2,Q,1,left,0.8783473380026408,1,0,,,,,,,,,,,,,,,,,,,,,1,,,,,,,,,,,,,,,,,,,,,,,,,,,,,,,,,,,,,,,,,,,,,,67,147346,20,Female,1,2024/02/19_16:23:49,YZ,None,
,,,,,,practice,0,19,1,1250,3,V,0,right,0.718595104990527,1,0,,,,,,,,,,,,,,,,,,,,,1,,,,,,,,,,,,,,,,,,,,,,,,,,,,,,,,,,,,,,,,,,,,,,67,147346,20,Female,1,2024/02/19_16:23:49,YZ,None,
,,,,,,practice,0,19,1,1250,4,F,0,right,0.7347551290004048,1,0,,,,,,,,,,,,,,,,,,,,,1,,,,,,,,,,,,,,,,,,,,,,,,,,,,,,,,,,,,,,,,,,,,,,67,147346,20,Female,1,2024/02/19_16:23:49,YZ,None,
,,,,,,practice,0,19,1,1250,5,F,1,left,0.5420800179999787,1,0,,,,,,,,,,,,,,,,,,,,,1,,,,,,,,,,,,,,,,,,,,,,,,,,,,,,,,,,,,,,,,,,,,,,67,147346,20,Female,1,2024/02/19_16:23:49,YZ,None,
,,,,,,practice,0,19,1,1250,6,C,0,right,0.47877665801206604,1,0,,,,,,,,,,,,,,,,,,,,,1,,,,,,,,,,,,,,,,,,,,,,,,,,,,,,,,,,,,,,,,,,,,,,67,147346,20,Female,1,2024/02/19_16:23:49,YZ,None,
,,,,,,practice,0,19,1,1250,7,N,0,right,0.7033001050003804,1,0,,,,,,,,,,,,,,,,,,,,,1,,,,,,,,,,,,,,,,,,,,,,,,,,,,,,,,,,,,,,,,,,,,,,67,147346,20,Female,1,2024/02/19_16:23:49,YZ,None,
,,,,,,practice,0,19,1,1250,8,F,0,right,0.5755322879995219,1,0,,,,,,,,,,,,,,,,,,,,,1,,,,,,,,,,,,,,,,,,,,,,,,,,,,,,,,,,,,,,,,,,,,,,67,147346,20,Female,1,2024/02/19_16:23:49,YZ,None,
,,,,,,practice,0,19,1,1250,9,F,1,left,0.6235998239717446,1,0,,,,,,,,,,,,,,,,,,,,,1,,,,,,,,,,,,,,,,,,,,,,,,,,,,,,,,,,,,,,,,,,,,,,67,147346,20,Female,1,2024/02/19_16:23:49,YZ,None,
,,,,,,practice,0,19,1,1250,10,J,0,right,0.622629493009299,1,0,,,,,,,,,,,,,,,,,,,,,1,,,,,,,,,,,,,,,,,,,,,,,,,,,,,,,,,,,,,,,,,,,,,,67,147346,20,Female,1,2024/02/19_16:23:49,YZ,None,
,,,,,,practice,0,19,1,1250,,,,,,,,1.0,1.0,0.0,1.0,0.0,1.0,0.7592800757993245,3,0,0,0,0,7,10,3,7,0,,,,1,,,,,,,,,,,,,,,,,,,,,,,,,,,,,,,,,,,,,,,,,,,,,,67,147346,20,Female,1,2024/02/19_16:23:49,YZ,None,
1,./instructions/inst_prac_1_next/Slide35.png,right,2.425409309013048,509.0273626279959,511.45277193700895,,,,,,,,,,,,,,,,,,,,,,,,,,,,,,,,,1,,,,,,,,,,,,,,,,,,,,,,,,,,,,,,,,,,,,,,,,,,,,,,67,147346,20,Female,1,2024/02/19_16:23:49,YZ,None,
,,,,,,practice,0,7,1,120,1,S,0,right,0.5572176389978267,1,0,,,,,,,,,,,,,,,,,,,,,1,,,,,,,,,,,,,,,,,,,,,,,,,,,,,,,,,,,,,,,,,,,,,,67,147346,20,Female,1,2024/02/19_16:23:49,YZ,None,
,,,,,,practice,0,7,1,120,2,V,0,right,0.49708858798840083,1,0,,,,,,,,,,,,,,,,,,,,,1,,,,,,,,,,,,,,,,,,,,,,,,,,,,,,,,,,,,,,,,,,,,,,67,147346,20,Female,1,2024/02/19_16:23:49,YZ,None,
,,,,,,practice,0,7,1,120,3,S,0,right,0.49309171602362767,1,0,,,,,,,,,,,,,,,,,,,,,1,,,,,,,,,,,,,,,,,,,,,,,,,,,,,,,,,,,,,,,,,,,,,,67,147346,20,Female,1,2024/02/19_16:23:49,YZ,None,
,,,,,,practice,0,7,1,120,4,F,0,right,0.4771230629994534,1,0,,,,,,,,,,,,,,,,,,,,,1,,,,,,,,,,,,,,,,,,,,,,,,,,,,,,,,,,,,,,,,,,,,,,67,147346,20,Female,1,2024/02/19_16:23:49,YZ,None,
,,,,,,practice,0,7,1,120,5,V,0,right,0.4211833119916264,1,0,,,,,,,,,,,,,,,,,,,,,1,,,,,,,,,,,,,,,,,,,,,,,,,,,,,,,,,,,,,,,,,,,,,,67,147346,20,Female,1,2024/02/19_16:23:49,YZ,None,
,,,,,,practice,0,7,1,120,6,N,0,right,0.41536195899243467,1,0,,,,,,,,,,,,,,,,,,,,,1,,,,,,,,,,,,,,,,,,,,,,,,,,,,,,,,,,,,,,,,,,,,,,67,147346,20,Female,1,2024/02/19_16:23:49,YZ,None,
,,,,,,practice,0,7,1,120,7,N,1,left,0.4209231099812314,1,0,,,,,,,,,,,,,,,,,,,,,1,,,,,,,,,,,,,,,,,,,,,,,,,,,,,,,,,,,,,,,,,,,,,,67,147346,20,Female,1,2024/02/19_16:23:49,YZ,None,
,,,,,,practice,0,7,1,120,8,Q,0,right,0.4650839699897915,1,0,,,,,,,,,,,,,,,,,,,,,1,,,,,,,,,,,,,,,,,,,,,,,,,,,,,,,,,,,,,,,,,,,,,,67,147346,20,Female,1,2024/02/19_16:23:49,YZ,None,
,,,,,,practice,0,7,1,120,9,N,0,left,0.6032231300196145,0,0,,,,,,,,,,,,,,,,,,,,,1,,,,,,,,,,,,,,,,,,,,,,,,,,,,,,,,,,,,,,,,,,,,,,67,147346,20,Female,1,2024/02/19_16:23:49,YZ,None,
,,,,,,practice,0,7,1,120,10,N,1,right,0.6930729879823048,0,0,,,,,,,,,,,,,,,,,,,,,1,,,,,,,,,,,,,,,,,,,,,,,,,,,,,,,,,,,,,,,,,,,,,,67,147346,20,Female,1,2024/02/19_16:23:49,YZ,None,
,,,,,,practice,0,7,1,120,11,X,0,right,0.4732865339901764,1,0,,,,,,,,,,,,,,,,,,,,,1,,,,,,,,,,,,,,,,,,,,,,,,,,,,,,,,,,,,,,,,,,,,,,67,147346,20,Female,1,2024/02/19_16:23:49,YZ,None,
,,,,,,practice,0,7,1,120,12,X,1,right,0.5538748179969843,0,0,,,,,,,,,,,,,,,,,,,,,1,,,,,,,,,,,,,,,,,,,,,,,,,,,,,,,,,,,,,,,,,,,,,,67,147346,20,Female,1,2024/02/19_16:23:49,YZ,None,
,,,,,,practice,0,7,1,120,13,C,0,right,0.6319411720032804,1,0,,,,,,,,,,,,,,,,,,,,,1,,,,,,,,,,,,,,,,,,,,,,,,,,,,,,,,,,,,,,,,,,,,,,67,147346,20,Female,1,2024/02/19_16:23:49,YZ,None,
,,,,,,practice,0,7,1,120,14,V,0,right,0.46877743100048974,1,0,,,,,,,,,,,,,,,,,,,,,1,,,,,,,,,,,,,,,,,,,,,,,,,,,,,,,,,,,,,,,,,,,,,,67,147346,20,Female,1,2024/02/19_16:23:49,YZ,None,
,,,,,,practice,0,7,1,120,15,F,0,right,0.5609325690020341,1,0,,,,,,,,,,,,,,,,,,,,,1,,,,,,,,,,,,,,,,,,,,,,,,,,,,,,,,,,,,,,,,,,,,,,67,147346,20,Female,1,2024/02/19_16:23:49,YZ,None,
,,,,,,practice,0,7,1,120,16,F,1,left,0.5217902029980905,1,0,,,,,,,,,,,,,,,,,,,,,1,,,,,,,,,,,,,,,,,,,,,,,,,,,,,,,,,,,,,,,,,,,,,,67,147346,20,Female,1,2024/02/19_16:23:49,YZ,None,
,,,,,,practice,0,7,1,120,17,N,0,right,0.5758483160170726,1,0,,,,,,,,,,,,,,,,,,,,,1,,,,,,,,,,,,,,,,,,,,,,,,,,,,,,,,,,,,,,,,,,,,,,67,147346,20,Female,1,2024/02/19_16:23:49,YZ,None,
,,,,,,practice,0,7,1,120,18,N,1,left,0.6330633800243959,1,0,,,,,,,,,,,,,,,,,,,,,1,,,,,,,,,,,,,,,,,,,,,,,,,,,,,,,,,,,,,,,,,,,,,,67,147346,20,Female,1,2024/02/19_16:23:49,YZ,None,
,,,,,,practice,0,7,1,120,19,J,0,right,0.5053058199991938,1,0,,,,,,,,,,,,,,,,,,,,,1,,,,,,,,,,,,,,,,,,,,,,,,,,,,,,,,,,,,,,,,,,,,,,67,147346,20,Female,1,2024/02/19_16:23:49,YZ,None,
,,,,,,practice,0,7,1,120,20,F,0,right,0.4852956809918396,1,0,,,,,,,,,,,,,,,,,,,,,1,,,,,,,,,,,,,,,,,,,,,,,,,,,,,,,,,,,,,,,,,,,,,,67,147346,20,Female,1,2024/02/19_16:23:49,YZ,None,
,,,,,,practice,0,7,1,120,21,F,1,left,0.6164231150178239,1,0,,,,,,,,,,,,,,,,,,,,,1,,,,,,,,,,,,,,,,,,,,,,,,,,,,,,,,,,,,,,,,,,,,,,67,147346,20,Female,1,2024/02/19_16:23:49,YZ,None,
,,,,,,practice,0,7,1,120,22,N,0,right,0.4209887199976947,1,0,,,,,,,,,,,,,,,,,,,,,1,,,,,,,,,,,,,,,,,,,,,,,,,,,,,,,,,,,,,,,,,,,,,,67,147346,20,Female,1,2024/02/19_16:23:49,YZ,None,
,,,,,,practice,0,7,1,120,23,S,0,right,0.5057282469933853,1,0,,,,,,,,,,,,,,,,,,,,,1,,,,,,,,,,,,,,,,,,,,,,,,,,,,,,,,,,,,,,,,,,,,,,67,147346,20,Female,1,2024/02/19_16:23:49,YZ,None,
,,,,,,practice,0,7,1,120,,,,,,,,0.8823529411764706,0.6666666666666666,0.058823529411764705,0.9411764705882353,0.0,0.9411764705882353,0.521592412217338,4,1,0,0,0,16,20,6,17,0,,,,1,,,,,,,,,,,,,,,,,,,,,,,,,,,,,,,,,,,,,,,,,,,,,,67,147346,20,Female,1,2024/02/19_16:23:49,YZ,None,
,,,,,,practice,0,6,1,120,1,X,0,right,0.3817199899931438,1,0,,,,,,,,,,,,,,,,,,,,,1,,,,,,,,,,,,,,,,,,,,,,,,,,,,,,,,,,,,,,,,,,,,,,67,147346,20,Female,1,2024/02/19_16:23:49,YZ,None,
,,,,,,practice,0,6,1,120,2,Q,0,right,0.46119157498469576,1,0,,,,,,,,,,,,,,,,,,,,,1,,,,,,,,,,,,,,,,,,,,,,,,,,,,,,,,,,,,,,,,,,,,,,67,147346,20,Female,1,2024/02/19_16:23:49,YZ,None,
,,,,,,practice,0,6,1,120,3,Q,1,left,0.5892094730224926,1,0,,,,,,,,,,,,,,,,,,,,,1,,,,,,,,,,,,,,,,,,,,,,,,,,,,,,,,,,,,,,,,,,,,,,67,147346,20,Female,1,2024/02/19_16:23:49,YZ,None,
,,,,,,practice,0,6,1,120,4,S,0,right,0.4653532210213598,1,0,,,,,,,,,,,,,,,,,,,,,1,,,,,,,,,,,,,,,,,,,,,,,,,,,,,,,,,,,,,,,,,,,,,,67,147346,20,Female,1,2024/02/19_16:23:49,YZ,None,
,,,,,,practice,0,6,1,120,5,F,0,right,0.4209863189898897,1,0,,,,,,,,,,,,,,,,,,,,,1,,,,,,,,,,,,,,,,,,,,,,,,,,,,,,,,,,,,,,,,,,,,,,67,147346,20,Female,1,2024/02/19_16:23:49,YZ,None,
,,,,,,practice,0,6,1,120,6,J,0,right,0.6892838640196715,1,0,,,,,,,,,,,,,,,,,,,,,1,,,,,,,,,,,,,,,,,,,,,,,,,,,,,,,,,,,,,,,,,,,,,,67,147346,20,Female,1,2024/02/19_16:23:49,YZ,None,
,,,,,,practice,0,6,1,120,7,J,1,left,0.6239818180038128,1,0,,,,,,,,,,,,,,,,,,,,,1,,,,,,,,,,,,,,,,,,,,,,,,,,,,,,,,,,,,,,,,,,,,,,67,147346,20,Female,1,2024/02/19_16:23:49,YZ,None,
,,,,,,practice,0,6,1,120,8,F,0,right,0.4320079689787235,1,0,,,,,,,,,,,,,,,,,,,,,1,,,,,,,,,,,,,,,,,,,,,,,,,,,,,,,,,,,,,,,,,,,,,,67,147346,20,Female,1,2024/02/19_16:23:49,YZ,None,
,,,,,,practice,0,6,1,120,9,X,0,right,0.6822356320044491,1,0,,,,,,,,,,,,,,,,,,,,,1,,,,,,,,,,,,,,,,,,,,,,,,,,,,,,,,,,,,,,,,,,,,,,67,147346,20,Female,1,2024/02/19_16:23:49,YZ,None,
,,,,,,practice,0,6,1,120,10,S,0,right,0.5219869040010963,1,0,,,,,,,,,,,,,,,,,,,,,1,,,,,,,,,,,,,,,,,,,,,,,,,,,,,,,,,,,,,,,,,,,,,,67,147346,20,Female,1,2024/02/19_16:23:49,YZ,None,
,,,,,,practice,0,6,1,120,11,N,0,right,0.47207761398749426,1,0,,,,,,,,,,,,,,,,,,,,,1,,,,,,,,,,,,,,,,,,,,,,,,,,,,,,,,,,,,,,,,,,,,,,67,147346,20,Female,1,2024/02/19_16:23:49,YZ,None,
,,,,,,practice,0,6,1,120,12,N,1,left,0.528946067992365,1,0,,,,,,,,,,,,,,,,,,,,,1,,,,,,,,,,,,,,,,,,,,,,,,,,,,,,,,,,,,,,,,,,,,,,67,147346,20,Female,1,2024/02/19_16:23:49,YZ,None,
,,,,,,practice,0,6,1,120,13,X,0,right,0.47389356800704263,1,0,,,,,,,,,,,,,,,,,,,,,1,,,,,,,,,,,,,,,,,,,,,,,,,,,,,,,,,,,,,,,,,,,,,,67,147346,20,Female,1,2024/02/19_16:23:49,YZ,None,
,,,,,,practice,0,6,1,120,14,J,0,right,0.49763887701556087,1,0,,,,,,,,,,,,,,,,,,,,,1,,,,,,,,,,,,,,,,,,,,,,,,,,,,,,,,,,,,,,,,,,,,,,67,147346,20,Female,1,2024/02/19_16:23:49,YZ,None,
,,,,,,practice,0,6,1,120,15,J,1,left,0.6997841739794239,1,0,,,,,,,,,,,,,,,,,,,,,1,,,,,,,,,,,,,,,,,,,,,,,,,,,,,,,,,,,,,,,,,,,,,,67,147346,20,Female,1,2024/02/19_16:23:49,YZ,None,
,,,,,,practice,0,6,1,120,16,X,0,right,0.5836839230032638,1,0,,,,,,,,,,,,,,,,,,,,,1,,,,,,,,,,,,,,,,,,,,,,,,,,,,,,,,,,,,,,,,,,,,,,67,147346,20,Female,1,2024/02/19_16:23:49,YZ,None,
,,,,,,practice,0,6,1,120,17,J,0,right,0.6902410429902375,1,0,,,,,,,,,,,,,,,,,,,,,1,,,,,,,,,,,,,,,,,,,,,,,,,,,,,,,,,,,,,,,,,,,,,,67,147346,20,Female,1,2024/02/19_16:23:49,YZ,None,
,,,,,,practice,0,6,1,120,18,X,0,right,0.6612947149842512,1,0,,,,,,,,,,,,,,,,,,,,,1,,,,,,,,,,,,,,,,,,,,,,,,,,,,,,,,,,,,,,,,,,,,,,67,147346,20,Female,1,2024/02/19_16:23:49,YZ,None,
,,,,,,practice,0,6,1,120,19,V,0,right,0.5332886179967318,1,0,,,,,,,,,,,,,,,,,,,,,1,,,,,,,,,,,,,,,,,,,,,,,,,,,,,,,,,,,,,,,,,,,,,,67,147346,20,Female,1,2024/02/19_16:23:49,YZ,None,
,,,,,,practice,0,6,1,120,20,V,1,left,0.5608620390121359,1,0,,,,,,,,,,,,,,,,,,,,,1,,,,,,,,,,,,,,,,,,,,,,,,,,,,,,,,,,,,,,,,,,,,,,67,147346,20,Female,1,2024/02/19_16:23:49,YZ,None,
,,,,,,practice,0,6,1,120,21,S,0,right,0.4893299189861864,1,0,,,,,,,,,,,,,,,,,,,,,1,,,,,,,,,,,,,,,,,,,,,,,,,,,,,,,,,,,,,,,,,,,,,,67,147346,20,Female,1,2024/02/19_16:23:49,YZ,None,
,,,,,,practice,0,6,1,120,22,J,0,right,0.40777083198190667,1,0,,,,,,,,,,,,,,,,,,,,,1,,,,,,,,,,,,,,,,,,,,,,,,,,,,,,,,,,,,,,,,,,,,,,67,147346,20,Female,1,2024/02/19_16:23:49,YZ,None,
,,,,,,practice,0,6,1,120,23,J,1,left,0.5297305319982115,1,0,,,,,,,,,,,,,,,,,,,,,1,,,,,,,,,,,,,,,,,,,,,,,,,,,,,,,,,,,,,,,,,,,,,,67,147346,20,Female,1,2024/02/19_16:23:49,YZ,None,
,,,,,,practice,0,6,1,120,,,,,,,,1.0,1.0,0.0,1.0,0.0,1.0,0.538978203780615,6,0,0,0,0,17,23,6,17,0,,,,1,,,,,,,,,,,,,,,,,,,,,,,,,,,,,,,,,,,,,,,,,,,,,,67,147346,20,Female,1,2024/02/19_16:23:49,YZ,None,
1,./instructions/inst_prac_3/Slide37.png,right,11.585196288011502,564.1076923020009,575.6928885900124,,,,,,,,,,,,,,,,,,,,,,,,,,,,,,,,,1,,,,,,,,,,,,,,,,,,,,,,,,,,,,,,,,,,,,,,,,,,,,,,67,147346,20,Female,1,2024/02/19_16:23:49,YZ,None,
2,./instructions/inst_prac_3/Slide38.png,right,0.7390624709951226,575.7216769669903,576.4607394379855,,,,,,,,,,,,,,,,,,,,,,,,,,,,,,,,,1,,,,,,,,,,,,,,,,,,,,,,,,,,,,,,,,,,,,,,,,,,,,,,67,147346,20,Female,1,2024/02/19_16:23:49,YZ,None,
3,./instructions/inst_prac_3/Slide39.png,right,0.8756692319875583,576.4891653470113,577.3648345789989,,,,,,,,,,,,,,,,,,,,,,,,,,,,,,,,,1,,,,,,,,,,,,,,,,,,,,,,,,,,,,,,,,,,,,,,,,,,,,,,67,147346,20,Female,1,2024/02/19_16:23:49,YZ,None,
4,./instructions/inst_prac_3/Slide40.png,right,1.267396397975972,577.393494287011,578.660890684987,,,,,,,,,,,,,,,,,,,,,,,,,,,,,,,,,1,,,,,,,,,,,,,,,,,,,,,,,,,,,,,,,,,,,,,,,,,,,,,,67,147346,20,Female,1,2024/02/19_16:23:49,YZ,None,
5,./instructions/inst_prac_3/Slide41.png,right,2.1066730190068483,578.690137077996,580.7968100970029,,,,,,,,,,,,,,,,,,,,,,,,,,,,,,,,,1,,,,,,,,,,,,,,,,,,,,,,,,,,,,,,,,,,,,,,,,,,,,,,67,147346,20,Female,1,2024/02/19_16:23:49,YZ,None,
6,./instructions/inst_prac_3/Slide42.png,right,0.8995537929877173,580.8252038240025,581.7247576169902,,,,,,,,,,,,,,,,,,,,,,,,,,,,,,,,,1,,,,,,,,,,,,,,,,,,,,,,,,,,,,,,,,,,,,,,,,,,,,,,67,147346,20,Female,1,2024/02/19_16:23:49,YZ,None,
7,./instructions/inst_prac_3/Slide43.png,right,2.262573751999298,581.7501659730042,584.0127397250035,,,,,,,,,,,,,,,,,,,,,,,,,,,,,,,,,1,,,,,,,,,,,,,,,,,,,,,,,,,,,,,,,,,,,,,,,,,,,,,,67,147346,20,Female,1,2024/02/19_16:23:49,YZ,None,
8,./instructions/inst_prac_3/Slide44.png,right,1.355419842991978,584.0414853419934,585.3969051849854,,,,,,,,,,,,,,,,,,,,,,,,,,,,,,,,,1,,,,,,,,,,,,,,,,,,,,,,,,,,,,,,,,,,,,,,,,,,,,,,67,147346,20,Female,1,2024/02/19_16:23:49,YZ,None,
,,,,,,practice,0,26,3,788,1,Q,0,right,0.8593437680101488,1,0,,,,,,,,,,,,,,,,,,,,,1,,,,,,,,,,,,,,,,,,,,,,,,,,,,,,,,,,,,,,,,,,,,,,67,147346,20,Female,1,2024/02/19_16:23:49,YZ,None,
,,,,,,practice,0,26,3,788,2,N,0,right,0.5379996320116334,1,0,,,,,,,,,,,,,,,,,,,,,1,,,,,,,,,,,,,,,,,,,,,,,,,,,,,,,,,,,,,,,,,,,,,,67,147346,20,Female,1,2024/02/19_16:23:49,YZ,None,
,,,,,,practice,0,26,3,788,3,Q,0,right,0.6657428789767437,1,0,,,,,,,,,,,,,,,,,,,,,1,,,,,,,,,,,,,,,,,,,,,,,,,,,,,,,,,,,,,,,,,,,,,,67,147346,20,Female,1,2024/02/19_16:23:49,YZ,None,
,,,,,,practice,0,26,3,788,4,Q,1,left,0.6380254630057607,1,0,,,,,,,,,,,,,,,,,,,,,1,,,,,,,,,,,,,,,,,,,,,,,,,,,,,,,,,,,,,,,,,,,,,,67,147346,20,Female,1,2024/02/19_16:23:49,YZ,None,
,,,,,,practice,0,26,3,788,5,V,0,right,2.9836386569950264,1,0,,,,,,,,,,,,,,,,,,,,,1,,,,,,,,,,,,,,,,,,,,,,,,,,,,,,,,,,,,,,,,,,,,,,67,147346,20,Female,1,2024/02/19_16:23:49,YZ,None,
,,,,,,practice,0,26,3,788,6,Q,1,left,0.8228031100006774,1,0,,,,,,,,,,,,,,,,,,,,,1,,,,,,,,,,,,,,,,,,,,,,,,,,,,,,,,,,,,,,,,,,,,,,67,147346,20,Female,1,2024/02/19_16:23:49,YZ,None,
,,,,,,practice,0,26,3,788,7,Q,1,left,0.9756942809908651,1,0,,,,,,,,,,,,,,,,,,,,,1,,,,,,,,,,,,,,,,,,,,,,,,,,,,,,,,,,,,,,,,,,,,,,67,147346,20,Female,1,2024/02/19_16:23:49,YZ,None,
,,,,,,practice,0,26,3,788,8,C,0,right,0.7508808570273686,1,0,,,,,,,,,,,,,,,,,,,,,1,,,,,,,,,,,,,,,,,,,,,,,,,,,,,,,,,,,,,,,,,,,,,,67,147346,20,Female,1,2024/02/19_16:23:49,YZ,None,
,,,,,,practice,0,26,3,788,9,J,0,right,0.8956138460198417,1,0,,,,,,,,,,,,,,,,,,,,,1,,,,,,,,,,,,,,,,,,,,,,,,,,,,,,,,,,,,,,,,,,,,,,67,147346,20,Female,1,2024/02/19_16:23:49,YZ,None,
,,,,,,practice,0,26,3,788,10,J,0,right,1.0627443359990139,1,0,,,,,,,,,,,,,,,,,,,,,1,,,,,,,,,,,,,,,,,,,,,,,,,,,,,,,,,,,,,,,,,,,,,,67,147346,20,Female,1,2024/02/19_16:23:49,YZ,None,
,,,,,,practice,0,26,3,788,11,V,0,right,0.602884144987911,1,0,,,,,,,,,,,,,,,,,,,,,1,,,,,,,,,,,,,,,,,,,,,,,,,,,,,,,,,,,,,,,,,,,,,,67,147346,20,Female,1,2024/02/19_16:23:49,YZ,None,
,,,,,,practice,0,26,3,788,12,J,1,left,0.751720183994621,1,0,,,,,,,,,,,,,,,,,,,,,1,,,,,,,,,,,,,,,,,,,,,,,,,,,,,,,,,,,,,,,,,,,,,,67,147346,20,Female,1,2024/02/19_16:23:49,YZ,None,
,,,,,,practice,0,26,3,788,13,V,0,right,1.038251368998317,1,0,,,,,,,,,,,,,,,,,,,,,1,,,,,,,,,,,,,,,,,,,,,,,,,,,,,,,,,,,,,,,,,,,,,,67,147346,20,Female,1,2024/02/19_16:23:49,YZ,None,
,,,,,,practice,0,26,3,788,,,,,,,,1.0,1.0,0.0,1.0,0.0,1.0,0.9681032713090715,4,0,0,0,0,9,13,4,9,0,,,,1,,,,,,,,,,,,,,,,,,,,,,,,,,,,,,,,,,,,,,,,,,,,,,67,147346,20,Female,1,2024/02/19_16:23:49,YZ,None,
1,./instructions/inst_prac_3_next/Slide49.png,right,7.065396728983615,611.643344793003,618.7087415219867,,,,,,,,,,,,,,,,,,,,,,,,,,,,,,,,,1,,,,,,,,,,,,,,,,,,,,,,,,,,,,,,,,,,,,,,,,,,,,,,67,147346,20,Female,1,2024/02/19_16:23:49,YZ,None,
,,,,,,practice,0,9,3,120,1,N,0,right,0.5728064319991972,1,0,,,,,,,,,,,,,,,,,,,,,1,,,,,,,,,,,,,,,,,,,,,,,,,,,,,,,,,,,,,,,,,,,,,,67,147346,20,Female,1,2024/02/19_16:23:49,YZ,None,
,,,,,,practice,0,9,3,120,2,X,0,right,0.4983376630116254,1,0,,,,,,,,,,,,,,,,,,,,,1,,,,,,,,,,,,,,,,,,,,,,,,,,,,,,,,,,,,,,,,,,,,,,67,147346,20,Female,1,2024/02/19_16:23:49,YZ,None,
,,,,,,practice,0,9,3,120,3,S,0,right,0.3785011229920201,1,0,,,,,,,,,,,,,,,,,,,,,1,,,,,,,,,,,,,,,,,,,,,,,,,,,,,,,,,,,,,,,,,,,,,,67,147346,20,Female,1,2024/02/19_16:23:49,YZ,None,
,,,,,,practice,0,9,3,120,4,F,0,right,0.4333330460067373,1,0,,,,,,,,,,,,,,,,,,,,,1,,,,,,,,,,,,,,,,,,,,,,,,,,,,,,,,,,,,,,,,,,,,,,67,147346,20,Female,1,2024/02/19_16:23:49,YZ,None,
,,,,,,practice,0,9,3,120,5,N,0,right,0.8927175239950884,1,0,,,,,,,,,,,,,,,,,,,,,1,,,,,,,,,,,,,,,,,,,,,,,,,,,,,,,,,,,,,,,,,,,,,,67,147346,20,Female,1,2024/02/19_16:23:49,YZ,None,
,,,,,,practice,0,9,3,120,6,F,0,right,0.8126953079772647,1,0,,,,,,,,,,,,,,,,,,,,,1,,,,,,,,,,,,,,,,,,,,,,,,,,,,,,,,,,,,,,,,,,,,,,67,147346,20,Female,1,2024/02/19_16:23:49,YZ,None,
,,,,,,practice,0,9,3,120,7,Q,0,right,0.7646929630136583,1,0,,,,,,,,,,,,,,,,,,,,,1,,,,,,,,,,,,,,,,,,,,,,,,,,,,,,,,,,,,,,,,,,,,,,67,147346,20,Female,1,2024/02/19_16:23:49,YZ,None,
,,,,,,practice,0,9,3,120,8,N,1,right,0.7778934850066435,0,0,,,,,,,,,,,,,,,,,,,,,1,,,,,,,,,,,,,,,,,,,,,,,,,,,,,,,,,,,,,,,,,,,,,,67,147346,20,Female,1,2024/02/19_16:23:49,YZ,None,
,,,,,,practice,0,9,3,120,9,J,0,right,0.6798480289871804,1,0,,,,,,,,,,,,,,,,,,,,,1,,,,,,,,,,,,,,,,,,,,,,,,,,,,,,,,,,,,,,,,,,,,,,67,147346,20,Female,1,2024/02/19_16:23:49,YZ,None,
,,,,,,practice,0,9,3,120,10,X,0,right,0.5550628930213861,1,0,,,,,,,,,,,,,,,,,,,,,1,,,,,,,,,,,,,,,,,,,,,,,,,,,,,,,,,,,,,,,,,,,,,,67,147346,20,Female,1,2024/02/19_16:23:49,YZ,None,
,,,,,,practice,0,9,3,120,11,N,1,right,0.448477300000377,0,0,,,,,,,,,,,,,,,,,,,,,1,,,,,,,,,,,,,,,,,,,,,,,,,,,,,,,,,,,,,,,,,,,,,,67,147346,20,Female,1,2024/02/19_16:23:49,YZ,None,
,,,,,,practice,0,9,3,120,12,N,0,left,0.5732296200003475,0,0,,,,,,,,,,,,,,,,,,,,,1,,,,,,,,,,,,,,,,,,,,,,,,,,,,,,,,,,,,,,,,,,,,,,67,147346,20,Female,1,2024/02/19_16:23:49,YZ,None,
,,,,,,practice,0,9,3,120,13,S,0,right,0.53831382500357,1,0,,,,,,,,,,,,,,,,,,,,,1,,,,,,,,,,,,,,,,,,,,,,,,,,,,,,,,,,,,,,,,,,,,,,67,147346,20,Female,1,2024/02/19_16:23:49,YZ,None,
,,,,,,practice,0,9,3,120,14,N,1,right,1.8403398689988535,0,0,,,,,,,,,,,,,,,,,,,,,1,,,,,,,,,,,,,,,,,,,,,,,,,,,,,,,,,,,,,,,,,,,,,,67,147346,20,Female,1,2024/02/19_16:23:49,YZ,None,
,,,,,,practice,0,9,3,120,15,Q,0,right,1.1283079629938584,1,0,,,,,,,,,,,,,,,,,,,,,1,,,,,,,,,,,,,,,,,,,,,,,,,,,,,,,,,,,,,,,,,,,,,,67,147346,20,Female,1,2024/02/19_16:23:49,YZ,None,
,,,,,,practice,0,9,3,120,16,J,0,right,0.7809059929859359,1,0,,,,,,,,,,,,,,,,,,,,,1,,,,,,,,,,,,,,,,,,,,,,,,,,,,,,,,,,,,,,,,,,,,,,67,147346,20,Female,1,2024/02/19_16:23:49,YZ,None,
,,,,,,practice,0,9,3,120,17,N,1,left,0.6217061759962235,1,0,,,,,,,,,,,,,,,,,,,,,1,,,,,,,,,,,,,,,,,,,,,,,,,,,,,,,,,,,,,,,,,,,,,,67,147346,20,Female,1,2024/02/19_16:23:49,YZ,None,
,,,,,,practice,0,9,3,120,18,J,0,left,1.3053667650092393,0,0,,,,,,,,,,,,,,,,,,,,,1,,,,,,,,,,,,,,,,,,,,,,,,,,,,,,,,,,,,,,,,,,,,,,67,147346,20,Female,1,2024/02/19_16:23:49,YZ,None,
,,,,,,practice,0,9,3,120,19,F,0,right,0.6481899500067811,1,0,,,,,,,,,,,,,,,,,,,,,1,,,,,,,,,,,,,,,,,,,,,,,,,,,,,,,,,,,,,,,,,,,,,,67,147346,20,Female,1,2024/02/19_16:23:49,YZ,None,
,,,,,,practice,0,9,3,120,20,V,0,right,0.7773411239904817,1,0,,,,,,,,,,,,,,,,,,,,,1,,,,,,,,,,,,,,,,,,,,,,,,,,,,,,,,,,,,,,,,,,,,,,67,147346,20,Female,1,2024/02/19_16:23:49,YZ,None,
,,,,,,practice,0,9,3,120,21,J,1,right,0.5854232020210475,0,0,,,,,,,,,,,,,,,,,,,,,1,,,,,,,,,,,,,,,,,,,,,,,,,,,,,,,,,,,,,,,,,,,,,,67,147346,20,Female,1,2024/02/19_16:23:49,YZ,None,
,,,,,,practice,0,9,3,120,22,S,0,right,0.5769607449765317,1,0,,,,,,,,,,,,,,,,,,,,,1,,,,,,,,,,,,,,,,,,,,,,,,,,,,,,,,,,,,,,,,,,,,,,67,147346,20,Female,1,2024/02/19_16:23:49,YZ,None,
,,,,,,practice,0,9,3,120,23,V,1,left,2.432053784985328,1,0,,,,,,,,,,,,,,,,,,,,,1,,,,,,,,,,,,,,,,,,,,,,,,,,,,,,,,,,,,,,,,,,,,,,67,147346,20,Female,1,2024/02/19_16:23:49,YZ,None,
,,,,,,practice,0,9,3,120,,,,,,,,0.7156862745098039,0.3333333333333333,0.11764705882352941,0.8823529411764706,0.0,0.8823529411764706,0.8096741209991033,2,2,0,0,0,15,17,6,17,0,,,,1,,,,,,,,,,,,,,,,,,,,,,,,,,,,,,,,,,,,,,,,,,,,,,67,147346,20,Female,1,2024/02/19_16:23:49,YZ,None,
,,,,,,practice,0,24,3,120,1,S,0,right,0.44841379500576295,1,0,,,,,,,,,,,,,,,,,,,,,1,,,,,,,,,,,,,,,,,,,,,,,,,,,,,,,,,,,,,,,,,,,,,,67,147346,20,Female,1,2024/02/19_16:23:49,YZ,None,
,,,,,,practice,0,24,3,120,2,S,0,right,0.39658296000561677,1,0,,,,,,,,,,,,,,,,,,,,,1,,,,,,,,,,,,,,,,,,,,,,,,,,,,,,,,,,,,,,,,,,,,,,67,147346,20,Female,1,2024/02/19_16:23:49,YZ,None,
,,,,,,practice,0,24,3,120,3,C,0,right,0.4174739620066248,1,0,,,,,,,,,,,,,,,,,,,,,1,,,,,,,,,,,,,,,,,,,,,,,,,,,,,,,,,,,,,,,,,,,,,,67,147346,20,Female,1,2024/02/19_16:23:49,YZ,None,
,,,,,,practice,0,24,3,120,4,V,0,right,0.6524080410017632,1,0,,,,,,,,,,,,,,,,,,,,,1,,,,,,,,,,,,,,,,,,,,,,,,,,,,,,,,,,,,,,,,,,,,,,67,147346,20,Female,1,2024/02/19_16:23:49,YZ,None,
,,,,,,practice,0,24,3,120,5,V,0,right,0.9283301100076642,1,0,,,,,,,,,,,,,,,,,,,,,1,,,,,,,,,,,,,,,,,,,,,,,,,,,,,,,,,,,,,,,,,,,,,,67,147346,20,Female,1,2024/02/19_16:23:49,YZ,None,
,,,,,,practice,0,24,3,120,6,X,0,right,0.8814459679997526,1,0,,,,,,,,,,,,,,,,,,,,,1,,,,,,,,,,,,,,,,,,,,,,,,,,,,,,,,,,,,,,,,,,,,,,67,147346,20,Female,1,2024/02/19_16:23:49,YZ,None,
,,,,,,practice,0,24,3,120,7,C,0,left,1.0530914989940356,0,0,,,,,,,,,,,,,,,,,,,,,1,,,,,,,,,,,,,,,,,,,,,,,,,,,,,,,,,,,,,,,,,,,,,,67,147346,20,Female,1,2024/02/19_16:23:49,YZ,None,
,,,,,,practice,0,24,3,120,8,F,0,right,0.8052077809988987,1,0,,,,,,,,,,,,,,,,,,,,,1,,,,,,,,,,,,,,,,,,,,,,,,,,,,,,,,,,,,,,,,,,,,,,67,147346,20,Female,1,2024/02/19_16:23:49,YZ,None,
,,,,,,practice,0,24,3,120,9,X,1,right,0.5221688099845778,0,0,,,,,,,,,,,,,,,,,,,,,1,,,,,,,,,,,,,,,,,,,,,,,,,,,,,,,,,,,,,,,,,,,,,,67,147346,20,Female,1,2024/02/19_16:23:49,YZ,None,
,,,,,,practice,0,24,3,120,10,C,1,left,1.1411277749866713,1,0,,,,,,,,,,,,,,,,,,,,,1,,,,,,,,,,,,,,,,,,,,,,,,,,,,,,,,,,,,,,,,,,,,,,67,147346,20,Female,1,2024/02/19_16:23:49,YZ,None,
,,,,,,practice,0,24,3,120,11,N,0,right,0.589204941992648,1,0,,,,,,,,,,,,,,,,,,,,,1,,,,,,,,,,,,,,,,,,,,,,,,,,,,,,,,,,,,,,,,,,,,,,67,147346,20,Female,1,2024/02/19_16:23:49,YZ,None,
,,,,,,practice,0,24,3,120,12,X,1,right,0.712106598977698,0,0,,,,,,,,,,,,,,,,,,,,,1,,,,,,,,,,,,,,,,,,,,,,,,,,,,,,,,,,,,,,,,,,,,,,67,147346,20,Female,1,2024/02/19_16:23:49,YZ,None,
,,,,,,practice,0,24,3,120,13,C,1,left,2.300925710995216,1,0,,,,,,,,,,,,,,,,,,,,,1,,,,,,,,,,,,,,,,,,,,,,,,,,,,,,,,,,,,,,,,,,,,,,67,147346,20,Female,1,2024/02/19_16:23:49,YZ,None,
,,,,,,practice,0,24,3,120,14,F,0,right,0.7216998770018108,1,0,,,,,,,,,,,,,,,,,,,,,1,,,,,,,,,,,,,,,,,,,,,,,,,,,,,,,,,,,,,,,,,,,,,,67,147346,20,Female,1,2024/02/19_16:23:49,YZ,None,
,,,,,,practice,0,24,3,120,15,J,0,right,0.7997795199917164,1,0,,,,,,,,,,,,,,,,,,,,,1,,,,,,,,,,,,,,,,,,,,,,,,,,,,,,,,,,,,,,,,,,,,,,67,147346,20,Female,1,2024/02/19_16:23:49,YZ,None,
,,,,,,practice,0,24,3,120,16,X,0,right,0.8426054189912975,1,0,,,,,,,,,,,,,,,,,,,,,1,,,,,,,,,,,,,,,,,,,,,,,,,,,,,,,,,,,,,,,,,,,,,,67,147346,20,Female,1,2024/02/19_16:23:49,YZ,None,
,,,,,,practice,0,24,3,120,17,C,0,right,1.0679189980146475,1,0,,,,,,,,,,,,,,,,,,,,,1,,,,,,,,,,,,,,,,,,,,,,,,,,,,,,,,,,,,,,,,,,,,,,67,147346,20,Female,1,2024/02/19_16:23:49,YZ,None,
,,,,,,practice,0,24,3,120,18,Q,0,right,0.6815689700015355,1,0,,,,,,,,,,,,,,,,,,,,,1,,,,,,,,,,,,,,,,,,,,,,,,,,,,,,,,,,,,,,,,,,,,,,67,147346,20,Female,1,2024/02/19_16:23:49,YZ,None,
,,,,,,practice,0,24,3,120,19,X,1,left,1.0045424290001392,1,0,,,,,,,,,,,,,,,,,,,,,1,,,,,,,,,,,,,,,,,,,,,,,,,,,,,,,,,,,,,,,,,,,,,,67,147346,20,Female,1,2024/02/19_16:23:49,YZ,None,
,,,,,,practice,0,24,3,120,20,S,0,right,0.6607337220048066,1,0,,,,,,,,,,,,,,,,,,,,,1,,,,,,,,,,,,,,,,,,,,,,,,,,,,,,,,,,,,,,,,,,,,,,67,147346,20,Female,1,2024/02/19_16:23:49,YZ,None,
,,,,,,practice,0,24,3,120,21,S,0,right,1.1216865759924985,1,0,,,,,,,,,,,,,,,,,,,,,1,,,,,,,,,,,,,,,,,,,,,,,,,,,,,,,,,,,,,,,,,,,,,,67,147346,20,Female,1,2024/02/19_16:23:49,YZ,None,
,,,,,,practice,0,24,3,120,22,X,1,right,0.45536671800073236,0,0,,,,,,,,,,,,,,,,,,,,,1,,,,,,,,,,,,,,,,,,,,,,,,,,,,,,,,,,,,,,,,,,,,,,67,147346,20,Female,1,2024/02/19_16:23:49,YZ,None,
,,,,,,practice,0,24,3,120,23,N,0,right,0.9244289959897287,1,0,,,,,,,,,,,,,,,,,,,,,1,,,,,,,,,,,,,,,,,,,,,,,,,,,,,,,,,,,,,,,,,,,,,,67,147346,20,Female,1,2024/02/19_16:23:49,YZ,None,
,,,,,,practice,0,24,3,120,,,,,,,,0.8308823529411765,0.5,0.058823529411764705,0.9411764705882353,0.0,0.9411764705882353,0.8316877903454715,3,1,0,0,0,16,19,6,17,0,,,,1,,,,,,,,,,,,,,,,,,,,,,,,,,,,,,,,,,,,,,,,,,,,,,67,147346,20,Female,1,2024/02/19_16:23:49,YZ,None,
1,./instructions/inst_prac_main/Slide51.png,right,2.0500435320136603,684.6668277489953,686.7168712810089,,,,,,,,,,,,,,,,,,,,,,,,,,,,,,,,,1,,,,,,,,,,,,,,,,,,,,,,,,,,,,,,,,,,,,,,,,,,,,,,67,147346,20,Female,1,2024/02/19_16:23:49,YZ,None,
2,./instructions/inst_prac_main/Slide52.png,right,14.294424074993003,686.7424254560028,701.0368495309958,,,,,,,,,,,,,,,,,,,,,,,,,,,,,,,,,1,,,,,,,,,,,,,,,,,,,,,,,,,,,,,,,,,,,,,,,,,,,,,,67,147346,20,Female,1,2024/02/19_16:23:49,YZ,None,
3,./instructions/inst_prac_main/Slide53.png,right,3.027251735999016,701.0657338449964,704.0929855809954,,,,,,,,,,,,,,,,,,,,,,,,,,,,,,,,,1,,,,,,,,,,,,,,,,,,,,,,,,,,,,,,,,,,,,,,,,,,,,,,67,147346,20,Female,1,2024/02/19_16:23:49,YZ,None,
4,./instructions/inst_prac_main/Slide54.png,right,8.676326273009181,704.1205428050016,712.7968690780108,,,,,,,,,,,,,,,,,,,,,,,,,,,,,,,,,1,,,,,,,,,,,,,,,,,,,,,,,,,,,,,,,,,,,,,,,,,,,,,,67,147346,20,Female,1,2024/02/19_16:23:49,YZ,None,
,,,,,,practice_main,0,1,3,120,1,S,0,None,nan,0,1,,,,,,,,,,,,,,,,,,,,,1,,,,,,,,,,,,,,,,,,,,,,,,,,,,,,,,,,,,,,,,,,,,,,67,147346,20,Female,1,2024/02/19_16:23:49,YZ,None,
,,,,,,practice_main,0,1,3,120,2,S,0,right,0.07049067199113779,1,0,,,,,,,,,,,,,,,,,,,,,1,,,,,,,,,,,,,,,,,,,,,,,,,,,,,,,,,,,,,,,,,,,,,,67,147346,20,Female,1,2024/02/19_16:23:49,YZ,None,
,,,,,,practice_main,0,1,3,120,3,N,0,right,0.07358805899275467,1,0,,,,,,,,,,,,,,,,,,,,,1,,,,,,,,,,,,,,,,,,,,,,,,,,,,,,,,,,,,,,,,,,,,,,67,147346,20,Female,1,2024/02/19_16:23:49,YZ,None,
,,,,,,practice_main,0,1,3,120,4,J,0,right,0.25620053699822165,1,0,,,,,,,,,,,,,,,,,,,,,1,,,,,,,,,,,,,,,,,,,,,,,,,,,,,,,,,,,,,,,,,,,,,,67,147346,20,Female,1,2024/02/19_16:23:49,YZ,None,
,,,,,,practice_main,0,1,3,120,5,F,0,right,0.3922494330035988,1,0,,,,,,,,,,,,,,,,,,,,,1,,,,,,,,,,,,,,,,,,,,,,,,,,,,,,,,,,,,,,,,,,,,,,67,147346,20,Female,1,2024/02/19_16:23:49,YZ,None,
,,,,,,practice_main,0,1,3,120,6,N,1,right,0.4822941099992022,0,0,,,,,,,,,,,,,,,,,,,,,1,,,,,,,,,,,,,,,,,,,,,,,,,,,,,,,,,,,,,,,,,,,,,,67,147346,20,Female,1,2024/02/19_16:23:49,YZ,None,
,,,,,,practice_main,0,1,3,120,7,N,0,right,0.6340533079928719,1,0,,,,,,,,,,,,,,,,,,,,,1,,,,,,,,,,,,,,,,,,,,,,,,,,,,,,,,,,,,,,,,,,,,,,67,147346,20,Female,1,2024/02/19_16:23:49,YZ,None,
,,,,,,practice_main,0,1,3,120,8,F,1,right,0.48104481998598203,0,0,,,,,,,,,,,,,,,,,,,,,1,,,,,,,,,,,,,,,,,,,,,,,,,,,,,,,,,,,,,,,,,,,,,,67,147346,20,Female,1,2024/02/19_16:23:49,YZ,None,
,,,,,,practice_main,0,1,3,120,9,C,0,right,0.47294869701727293,1,0,,,,,,,,,,,,,,,,,,,,,1,,,,,,,,,,,,,,,,,,,,,,,,,,,,,,,,,,,,,,,,,,,,,,67,147346,20,Female,1,2024/02/19_16:23:49,YZ,None,
,,,,,,practice_main,0,1,3,120,10,C,0,right,0.6925101880042348,1,0,,,,,,,,,,,,,,,,,,,,,1,,,,,,,,,,,,,,,,,,,,,,,,,,,,,,,,,,,,,,,,,,,,,,67,147346,20,Female,1,2024/02/19_16:23:49,YZ,None,
,,,,,,practice_main,0,1,3,120,11,X,0,right,0.5439638200041372,1,0,,,,,,,,,,,,,,,,,,,,,1,,,,,,,,,,,,,,,,,,,,,,,,,,,,,,,,,,,,,,,,,,,,,,67,147346,20,Female,1,2024/02/19_16:23:49,YZ,None,
,,,,,,practice_main,0,1,3,120,12,N,0,right,0.9384618960029911,1,0,,,,,,,,,,,,,,,,,,,,,1,,,,,,,,,,,,,,,,,,,,,,,,,,,,,,,,,,,,,,,,,,,,,,67,147346,20,Female,1,2024/02/19_16:23:49,YZ,None,
,,,,,,practice_main,0,1,3,120,13,Q,0,right,0.49484662199392915,1,0,,,,,,,,,,,,,,,,,,,,,1,,,,,,,,,,,,,,,,,,,,,,,,,,,,,,,,,,,,,,,,,,,,,,67,147346,20,Female,1,2024/02/19_16:23:49,YZ,None,
,,,,,,practice_main,0,1,3,120,14,X,1,right,0.6574020850239322,0,0,,,,,,,,,,,,,,,,,,,,,1,,,,,,,,,,,,,,,,,,,,,,,,,,,,,,,,,,,,,,,,,,,,,,67,147346,20,Female,1,2024/02/19_16:23:49,YZ,None,
,,,,,,practice_main,0,1,3,120,15,N,1,right,0.4993720139900688,0,0,,,,,,,,,,,,,,,,,,,,,1,,,,,,,,,,,,,,,,,,,,,,,,,,,,,,,,,,,,,,,,,,,,,,67,147346,20,Female,1,2024/02/19_16:23:49,YZ,None,
,,,,,,practice_main,0,1,3,120,16,J,0,right,0.5525657539837994,1,0,,,,,,,,,,,,,,,,,,,,,1,,,,,,,,,,,,,,,,,,,,,,,,,,,,,,,,,,,,,,,,,,,,,,67,147346,20,Female,1,2024/02/19_16:23:49,YZ,None,
,,,,,,practice_main,0,1,3,120,17,V,0,right,0.3677086500101723,1,0,,,,,,,,,,,,,,,,,,,,,1,,,,,,,,,,,,,,,,,,,,,,,,,,,,,,,,,,,,,,,,,,,,,,67,147346,20,Female,1,2024/02/19_16:23:49,YZ,None,
,,,,,,practice_main,0,1,3,120,18,X,0,right,0.37649047101149336,1,0,,,,,,,,,,,,,,,,,,,,,1,,,,,,,,,,,,,,,,,,,,,,,,,,,,,,,,,,,,,,,,,,,,,,67,147346,20,Female,1,2024/02/19_16:23:49,YZ,None,
,,,,,,practice_main,0,1,3,120,19,J,1,right,0.2167641420091968,0,0,,,,,,,,,,,,,,,,,,,,,1,,,,,,,,,,,,,,,,,,,,,,,,,,,,,,,,,,,,,,,,,,,,,,67,147346,20,Female,1,2024/02/19_16:23:49,YZ,None,
,,,,,,practice_main,0,1,3,120,20,J,0,right,0.1069264379912056,1,0,,,,,,,,,,,,,,,,,,,,,1,,,,,,,,,,,,,,,,,,,,,,,,,,,,,,,,,,,,,,,,,,,,,,67,147346,20,Female,1,2024/02/19_16:23:49,YZ,None,
,,,,,,practice_main,0,1,3,120,21,F,0,right,nan,0,1,,,,,,,,,,,,,,,,,,,,,1,,,,,,,,,,,,,,,,,,,,,,,,,,,,,,,,,,,,,,,,,,,,,,67,147346,20,Female,1,2024/02/19_16:23:49,YZ,None,
,,,,,,practice_main,0,1,3,120,22,J,1,right,0.3606326409790199,0,0,,,,,,,,,,,,,,,,,,,,,1,,,,,,,,,,,,,,,,,,,,,,,,,,,,,,,,,,,,,,,,,,,,,,67,147346,20,Female,1,2024/02/19_16:23:49,YZ,None,
,,,,,,practice_main,0,1,3,120,23,V,0,right,0.7993780120159499,1,0,,,,,,,,,,,,,,,,,,,,,1,,,,,,,,,,,,,,,,,,,,,,,,,,,,,,,,,,,,,,,,,,,,,,67,147346,20,Female,1,2024/02/19_16:23:49,YZ,None,
,,,,,,practice_main,0,1,3,120,,,,,,,,0.5,0.0,0.0,1.0,0.08695652173913043,0.9130434782608696,0.4509472556667225,0,0,0,2,2,15,15,6,17,0,,,,1,,,,,,,,,,,,,,,,,,,,,,,,,,,,,,,,,,,,,,,,,,,,,,67,147346,20,Female,1,2024/02/19_16:23:49,YZ,None,
,,,,,240219_164042,PRACTICE,0,1,3,120,,,,,,,,,,,,,,,,,,,,,,,,,,,,1,11,2,1,cue2.png,hard,A,50,1.5023420940269716,0,723.9053843579895,725.4317123559886,,,,,,,,,,,,,,,,,,,,,,,,,,,,,,,,,,,67,147346,20,Female,1,2024/02/19_16:23:49,YZ,None,
,,,,,,practice_main,0,2,3,120,1,Q,0,right,0.5496333809860516,1,0,,,,,,,,,,,,,,,,,,,,,1,,,,,,,,,,,,,,,,,,,,,,,,,,,,,,,,,,,,,,,,,,,,,,67,147346,20,Female,1,2024/02/19_16:23:49,YZ,None,
,,,,,,practice_main,0,2,3,120,2,C,0,right,0.359099146007793,1,0,,,,,,,,,,,,,,,,,,,,,1,,,,,,,,,,,,,,,,,,,,,,,,,,,,,,,,,,,,,,,,,,,,,,67,147346,20,Female,1,2024/02/19_16:23:49,YZ,None,
,,,,,,practice_main,0,2,3,120,3,S,0,right,0.37839193901163526,1,0,,,,,,,,,,,,,,,,,,,,,1,,,,,,,,,,,,,,,,,,,,,,,,,,,,,,,,,,,,,,,,,,,,,,67,147346,20,Female,1,2024/02/19_16:23:49,YZ,None,
,,,,,,practice_main,0,2,3,120,4,V,0,right,0.5392288079892751,1,0,,,,,,,,,,,,,,,,,,,,,1,,,,,,,,,,,,,,,,,,,,,,,,,,,,,,,,,,,,,,,,,,,,,,67,147346,20,Female,1,2024/02/19_16:23:49,YZ,None,
,,,,,,practice_main,0,2,3,120,5,Q,0,right,0.5743153149960563,1,0,,,,,,,,,,,,,,,,,,,,,1,,,,,,,,,,,,,,,,,,,,,,,,,,,,,,,,,,,,,,,,,,,,,,67,147346,20,Female,1,2024/02/19_16:23:49,YZ,None,
,,,,,,practice_main,0,2,3,120,6,S,1,right,nan,0,1,,,,,,,,,,,,,,,,,,,,,1,,,,,,,,,,,,,,,,,,,,,,,,,,,,,,,,,,,,,,,,,,,,,,67,147346,20,Female,1,2024/02/19_16:23:49,YZ,None,
,,,,,,practice_main,0,2,3,120,7,V,1,right,0.5479076229967177,0,0,,,,,,,,,,,,,,,,,,,,,1,,,,,,,,,,,,,,,,,,,,,,,,,,,,,,,,,,,,,,,,,,,,,,67,147346,20,Female,1,2024/02/19_16:23:49,YZ,None,
,,,,,,practice_main,0,2,3,120,8,N,0,right,0.6144430759886745,1,0,,,,,,,,,,,,,,,,,,,,,1,,,,,,,,,,,,,,,,,,,,,,,,,,,,,,,,,,,,,,,,,,,,,,67,147346,20,Female,1,2024/02/19_16:23:49,YZ,None,
,,,,,,practice_main,0,2,3,120,9,V,0,right,0.559322464017896,1,0,,,,,,,,,,,,,,,,,,,,,1,,,,,,,,,,,,,,,,,,,,,,,,,,,,,,,,,,,,,,,,,,,,,,67,147346,20,Female,1,2024/02/19_16:23:49,YZ,None,
,,,,,,practice_main,0,2,3,120,10,N,0,left,0.49332037899876013,0,0,,,,,,,,,,,,,,,,,,,,,1,,,,,,,,,,,,,,,,,,,,,,,,,,,,,,,,,,,,,,,,,,,,,,67,147346,20,Female,1,2024/02/19_16:23:49,YZ,None,
,,,,,,practice_main,0,2,3,120,11,F,0,right,0.5121073749905918,1,0,,,,,,,,,,,,,,,,,,,,,1,,,,,,,,,,,,,,,,,,,,,,,,,,,,,,,,,,,,,,,,,,,,,,67,147346,20,Female,1,2024/02/19_16:23:49,YZ,None,
,,,,,,practice_main,0,2,3,120,12,V,1,right,0.564764409995405,0,0,,,,,,,,,,,,,,,,,,,,,1,,,,,,,,,,,,,,,,,,,,,,,,,,,,,,,,,,,,,,,,,,,,,,67,147346,20,Female,1,2024/02/19_16:23:49,YZ,None,
,,,,,,practice_main,0,2,3,120,13,S,0,right,0.6136328600114211,1,0,,,,,,,,,,,,,,,,,,,,,1,,,,,,,,,,,,,,,,,,,,,,,,,,,,,,,,,,,,,,,,,,,,,,67,147346,20,Female,1,2024/02/19_16:23:49,YZ,None,
,,,,,,practice_main,0,2,3,120,14,F,1,left,0.5647977500048,1,0,,,,,,,,,,,,,,,,,,,,,1,,,,,,,,,,,,,,,,,,,,,,,,,,,,,,,,,,,,,,,,,,,,,,67,147346,20,Female,1,2024/02/19_16:23:49,YZ,None,
,,,,,,practice_main,0,2,3,120,15,N,0,right,0.3881503409938887,1,0,,,,,,,,,,,,,,,,,,,,,1,,,,,,,,,,,,,,,,,,,,,,,,,,,,,,,,,,,,,,,,,,,,,,67,147346,20,Female,1,2024/02/19_16:23:49,YZ,None,
,,,,,,practice_main,0,2,3,120,16,X,0,right,0.5120164870168082,1,0,,,,,,,,,,,,,,,,,,,,,1,,,,,,,,,,,,,,,,,,,,,,,,,,,,,,,,,,,,,,,,,,,,,,67,147346,20,Female,1,2024/02/19_16:23:49,YZ,None,
,,,,,,practice_main,0,2,3,120,17,X,0,right,0.9258537389978301,1,0,,,,,,,,,,,,,,,,,,,,,1,,,,,,,,,,,,,,,,,,,,,,,,,,,,,,,,,,,,,,,,,,,,,,67,147346,20,Female,1,2024/02/19_16:23:49,YZ,None,
,,,,,,practice_main,0,2,3,120,18,C,0,right,0.5409880439983681,1,0,,,,,,,,,,,,,,,,,,,,,1,,,,,,,,,,,,,,,,,,,,,,,,,,,,,,,,,,,,,,,,,,,,,,67,147346,20,Female,1,2024/02/19_16:23:49,YZ,None,
,,,,,,practice_main,0,2,3,120,19,X,1,right,0.722172170993872,0,0,,,,,,,,,,,,,,,,,,,,,1,,,,,,,,,,,,,,,,,,,,,,,,,,,,,,,,,,,,,,,,,,,,,,67,147346,20,Female,1,2024/02/19_16:23:49,YZ,None,
