Instruction,Stimulus,Key,RT,START,END,Phase,Block,TrialN,NbackLevel,ISI,LetterN,Letter,Letter_isSame,Letter_Resp,Letter_RT,Letter_Accuracy,Letter_Timeout,Trial_A_measure,Trial_HR,Trial_FAR,Trial_CDR,Trial_MSR,Trial_ACC,Trial_RT,Trial_HitsCount,Trial_FAsCount,Trial_SameNoRespCount,Trial_DiffNoRespCount,Trial_NoRespCount,Trial_CDsCount,Trial_CorrectRespCount,Trial_SameLetterCount,Trial_DiffLetterCount,Trial_InvalidLetterCount,TrialCountCali,CaliEnd_A_measure,ISI_calibrated,Run,TrialIndex,TrialNumber_total,TrialNumber_valid,CueLearning,TrialDemandLearning,CueMapping,OnlineRating,OnlineRatingRT,OnlineRatingTimeOut,CueSTART,RatingSTART,OfflineRatingTimePoint,OfflineRatingQuesIndex,CueFigure,TrialDemand,OfflineRating,OfflineRatingRT,CueStart,OfflineRatingStart,PhaseType,CueLeft,CueDemandLeft,CueRight,CueDemandRight,Choice,ChoiceDemand,TaskDemand,ChoiceRT,ChoiceTimeOut,ChoiceSTART,CueCheck,CueDemandCheck,CorrectAnswer,Answer,AnswerDemand,AnswerRT,AnswerACC,AnswerTimeOut,CheckSTART,DemandRatingQuesIndex,QuesTLX,DemandLevel,DemandRating,DemandRatingRT,QuesStart,PID,SONA,Age,Gender,Run,TIME,EXPERIMENTER,frameRate,
1,./instructions/inst_begin/Slide2.png,right,15.032897127006436,0.12234451599942986,15.155241643005866,,,,,,,,,,,,,,,,,,,,,,,,,,,,,,,,,1,,,,,,,,,,,,,,,,,,,,,,,,,,,,,,,,,,,,,,,,,,,,,,108,141802,21,Female,1,2024/03/20_15:38:18,YZ,None,
2,./instructions/inst_begin/Slide3.png,right,20.490234872006113,15.18501006999577,35.67524494200188,,,,,,,,,,,,,,,,,,,,,,,,,,,,,,,,,1,,,,,,,,,,,,,,,,,,,,,,,,,,,,,,,,,,,,,,,,,,,,,,108,141802,21,Female,1,2024/03/20_15:38:18,YZ,None,
3,./instructions/inst_begin/Slide4.png,right,11.754691301001003,35.70479447899561,47.45948577999661,,,,,,,,,,,,,,,,,,,,,,,,,,,,,,,,,1,,,,,,,,,,,,,,,,,,,,,,,,,,,,,,,,,,,,,,,,,,,,,,108,141802,21,Female,1,2024/03/20_15:38:18,YZ,None,
1,./instructions/inst_prac_2/Slide6.png,right,16.2700417899905,47.493349405005574,63.763391194996075,,,,,,,,,,,,,,,,,,,,,,,,,,,,,,,,,1,,,,,,,,,,,,,,,,,,,,,,,,,,,,,,,,,,,,,,,,,,,,,,108,141802,21,Female,1,2024/03/20_15:38:18,YZ,None,
2,./instructions/inst_prac_2/Slide7.png,right,54.48298336399603,63.79234467999777,118.2753280439938,,,,,,,,,,,,,,,,,,,,,,,,,,,,,,,,,1,,,,,,,,,,,,,,,,,,,,,,,,,,,,,,,,,,,,,,,,,,,,,,108,141802,21,Female,1,2024/03/20_15:38:18,YZ,None,
3,./instructions/inst_prac_2/Slide8.png,right,9.740833977994043,118.30237678000412,128.04321075799817,,,,,,,,,,,,,,,,,,,,,,,,,,,,,,,,,1,,,,,,,,,,,,,,,,,,,,,,,,,,,,,,,,,,,,,,,,,,,,,,108,141802,21,Female,1,2024/03/20_15:38:18,YZ,None,
4,./instructions/inst_prac_2/Slide9.png,right,6.403119121998316,128.07230592900305,134.47542505100137,,,,,,,,,,,,,,,,,,,,,,,,,,,,,,,,,1,,,,,,,,,,,,,,,,,,,,,,,,,,,,,,,,,,,,,,,,,,,,,,108,141802,21,Female,1,2024/03/20_15:38:18,YZ,None,
5,./instructions/inst_prac_2/Slide10.png,right,1.4833082560071489,134.5040869469958,135.98739520300296,,,,,,,,,,,,,,,,,,,,,,,,,,,,,,,,,1,,,,,,,,,,,,,,,,,,,,,,,,,,,,,,,,,,,,,,,,,,,,,,108,141802,21,Female,1,2024/03/20_15:38:18,YZ,None,
6,./instructions/inst_prac_2/Slide11.png,right,1.2365877300035208,136.01492265699198,137.2515103869955,,,,,,,,,,,,,,,,,,,,,,,,,,,,,,,,,1,,,,,,,,,,,,,,,,,,,,,,,,,,,,,,,,,,,,,,,,,,,,,,108,141802,21,Female,1,2024/03/20_15:38:18,YZ,None,
7,./instructions/inst_prac_2/Slide12.png,right,1.2031164900108706,137.28020681899216,138.48332330900303,,,,,,,,,,,,,,,,,,,,,,,,,,,,,,,,,1,,,,,,,,,,,,,,,,,,,,,,,,,,,,,,,,,,,,,,,,,,,,,,108,141802,21,Female,1,2024/03/20_15:38:18,YZ,None,
6,./instructions/inst_prac_2/Slide13.png,left,1.467317139991792,138.51220375900448,139.97952089899627,,,,,,,,,,,,,,,,,,,,,,,,,,,,,,,,,1,,,,,,,,,,,,,,,,,,,,,,,,,,,,,,,,,,,,,,,,,,,,,,108,141802,21,Female,1,2024/03/20_15:38:18,YZ,None,
7,./instructions/inst_prac_2/Slide12.png,right,0.8975850499991793,140.00173955300124,140.89932460300042,,,,,,,,,,,,,,,,,,,,,,,,,,,,,,,,,1,,,,,,,,,,,,,,,,,,,,,,,,,,,,,,,,,,,,,,,,,,,,,,108,141802,21,Female,1,2024/03/20_15:38:18,YZ,None,
8,./instructions/inst_prac_2/Slide13.png,right,0.4273758199997246,140.92790752000292,141.35528334000264,,,,,,,,,,,,,,,,,,,,,,,,,,,,,,,,,1,,,,,,,,,,,,,,,,,,,,,,,,,,,,,,,,,,,,,,,,,,,,,,108,141802,21,Female,1,2024/03/20_15:38:18,YZ,None,
9,./instructions/inst_prac_2/Slide14.png,right,35.27506428900233,141.38431528399815,176.65937957300048,,,,,,,,,,,,,,,,,,,,,,,,,,,,,,,,,1,,,,,,,,,,,,,,,,,,,,,,,,,,,,,,,,,,,,,,,,,,,,,,108,141802,21,Female,1,2024/03/20_15:38:18,YZ,None,
10,./instructions/inst_prac_2/Slide15.png,right,19.48269016199629,176.688883306997,196.1715734689933,,,,,,,,,,,,,,,,,,,,,,,,,,,,,,,,,1,,,,,,,,,,,,,,,,,,,,,,,,,,,,,,,,,,,,,,,,,,,,,,108,141802,21,Female,1,2024/03/20_15:38:18,YZ,None,
,,,,,,practice,0,18,2,2583,1,V,0,right,3.2822304050059756,1,0,,,,,,,,,,,,,,,,,,,,,1,,,,,,,,,,,,,,,,,,,,,,,,,,,,,,,,,,,,,,,,,,,,,,108,141802,21,Female,1,2024/03/20_15:38:18,YZ,None,
,,,,,,practice,0,18,2,2583,2,J,0,right,2.266710765994503,1,0,,,,,,,,,,,,,,,,,,,,,1,,,,,,,,,,,,,,,,,,,,,,,,,,,,,,,,,,,,,,,,,,,,,,108,141802,21,Female,1,2024/03/20_15:38:18,YZ,None,
,,,,,,practice,0,18,2,2583,3,V,1,left,1.7581123830022989,1,0,,,,,,,,,,,,,,,,,,,,,1,,,,,,,,,,,,,,,,,,,,,,,,,,,,,,,,,,,,,,,,,,,,,,108,141802,21,Female,1,2024/03/20_15:38:18,YZ,None,
,,,,,,practice,0,18,2,2583,4,F,0,right,2.3660822219972033,1,0,,,,,,,,,,,,,,,,,,,,,1,,,,,,,,,,,,,,,,,,,,,,,,,,,,,,,,,,,,,,,,,,,,,,108,141802,21,Female,1,2024/03/20_15:38:18,YZ,None,
,,,,,,practice,0,18,2,2583,5,V,1,left,1.541311487002531,1,0,,,,,,,,,,,,,,,,,,,,,1,,,,,,,,,,,,,,,,,,,,,,,,,,,,,,,,,,,,,,,,,,,,,,108,141802,21,Female,1,2024/03/20_15:38:18,YZ,None,
,,,,,,practice,0,18,2,2583,6,X,0,right,2.649632048996864,1,0,,,,,,,,,,,,,,,,,,,,,1,,,,,,,,,,,,,,,,,,,,,,,,,,,,,,,,,,,,,,,,,,,,,,108,141802,21,Female,1,2024/03/20_15:38:18,YZ,None,
,,,,,,practice,0,18,2,2583,,,,,,,,1.0,1.0,0.0,1.0,0.0,1.0,2.3106798853332293,2,0,0,0,0,4,6,2,4,0,,,,1,,,,,,,,,,,,,,,,,,,,,,,,,,,,,,,,,,,,,,,,,,,,,,108,141802,21,Female,1,2024/03/20_15:38:18,YZ,None,
1,./instructions/inst_to_cali/Slide20.png,right,4.825042202995974,216.3863895270042,221.21143173000019,,,,,,,,,,,,,,,,,,,,,,,,,,,,,,,,,1,,,,,,,,,,,,,,,,,,,,,,,,,,,,,,,,,,,,,,,,,,,,,,108,141802,21,Female,1,2024/03/20_15:38:18,YZ,None,
1,./instructions/inst_cali/Slide22.png,right,22.30361815598735,221.24371227700613,243.54733043299348,,,,,,,,,,,,,,,,,,,,,,,,,,,,,,,,,1,,,,,,,,,,,,,,,,,,,,,,,,,,,,,,,,,,,,,,,,,,,,,,108,141802,21,Female,1,2024/03/20_15:38:18,YZ,None,
,,,,,,calibration,0,3,2,583,1,F,0,right,0.7778002510021906,1,0,,,,,,,,,,,,,,,,,,,,,1,,,,,,,,,,,,,,,,,,,,,,,,,,,,,,,,,,,,,,,,,,,,,,108,141802,21,Female,1,2024/03/20_15:38:18,YZ,None,
,,,,,,calibration,0,3,2,583,2,S,0,right,0.5002494939981261,1,0,,,,,,,,,,,,,,,,,,,,,1,,,,,,,,,,,,,,,,,,,,,,,,,,,,,,,,,,,,,,,,,,,,,,108,141802,21,Female,1,2024/03/20_15:38:18,YZ,None,
,,,,,,calibration,0,3,2,583,3,V,0,right,0.5500569769938011,1,0,,,,,,,,,,,,,,,,,,,,,1,,,,,,,,,,,,,,,,,,,,,,,,,,,,,,,,,,,,,,,,,,,,,,108,141802,21,Female,1,2024/03/20_15:38:18,YZ,None,
,,,,,,calibration,0,3,2,583,4,S,1,right,0.8050338159955572,0,0,,,,,,,,,,,,,,,,,,,,,1,,,,,,,,,,,,,,,,,,,,,,,,,,,,,,,,,,,,,,,,,,,,,,108,141802,21,Female,1,2024/03/20_15:38:18,YZ,None,
,,,,,,calibration,0,3,2,583,5,F,0,left,0.6734786960005295,0,0,,,,,,,,,,,,,,,,,,,,,1,,,,,,,,,,,,,,,,,,,,,,,,,,,,,,,,,,,,,,,,,,,,,,108,141802,21,Female,1,2024/03/20_15:38:18,YZ,None,
,,,,,,calibration,0,3,2,583,6,C,0,left,0.6246820929954993,0,0,,,,,,,,,,,,,,,,,,,,,1,,,,,,,,,,,,,,,,,,,,,,,,,,,,,,,,,,,,,,,,,,,,,,108,141802,21,Female,1,2024/03/20_15:38:18,YZ,None,
,,,,,,calibration,0,3,2,583,7,Q,0,right,0.5461673550016712,1,0,,,,,,,,,,,,,,,,,,,,,1,,,,,,,,,,,,,,,,,,,,,,,,,,,,,,,,,,,,,,,,,,,,,,108,141802,21,Female,1,2024/03/20_15:38:18,YZ,None,
,,,,,,calibration,0,3,2,583,8,C,1,right,0.40434709198598284,0,0,,,,,,,,,,,,,,,,,,,,,1,,,,,,,,,,,,,,,,,,,,,,,,,,,,,,,,,,,,,,,,,,,,,,108,141802,21,Female,1,2024/03/20_15:38:18,YZ,None,
,,,,,,calibration,0,3,2,583,9,V,0,right,0.45634498599974904,1,0,,,,,,,,,,,,,,,,,,,,,1,,,,,,,,,,,,,,,,,,,,,,,,,,,,,,,,,,,,,,,,,,,,,,108,141802,21,Female,1,2024/03/20_15:38:18,YZ,None,
,,,,,,calibration,0,3,2,583,10,C,1,right,0.7151859529985813,0,0,,,,,,,,,,,,,,,,,,,,,1,,,,,,,,,,,,,,,,,,,,,,,,,,,,,,,,,,,,,,,,,,,,,,108,141802,21,Female,1,2024/03/20_15:38:18,YZ,None,
,,,,,,calibration,0,3,2,583,11,V,1,left,0.5645565199956764,1,0,,,,,,,,,,,,,,,,,,,,,1,,,,,,,,,,,,,,,,,,,,,,,,,,,,,,,,,,,,,,,,,,,,,,108,141802,21,Female,1,2024/03/20_15:38:18,YZ,None,
,,,,,,calibration,0,3,2,583,12,J,0,right,0.4308397199929459,1,0,,,,,,,,,,,,,,,,,,,,,1,,,,,,,,,,,,,,,,,,,,,,,,,,,,,,,,,,,,,,,,,,,,,,108,141802,21,Female,1,2024/03/20_15:38:18,YZ,None,
,,,,,,calibration,0,3,2,583,13,Q,0,right,0.43706531400675885,1,0,,,,,,,,,,,,,,,,,,,,,1,,,,,,,,,,,,,,,,,,,,,,,,,,,,,,,,,,,,,,,,,,,,,,108,141802,21,Female,1,2024/03/20_15:38:18,YZ,None,
,,,,,,calibration,0,3,2,583,14,F,0,right,0.5300135730067268,1,0,,,,,,,,,,,,,,,,,,,,,1,,,,,,,,,,,,,,,,,,,,,,,,,,,,,,,,,,,,,,,,,,,,,,108,141802,21,Female,1,2024/03/20_15:38:18,YZ,None,
,,,,,,calibration,0,3,2,583,15,C,0,right,0.36540315599995665,1,0,,,,,,,,,,,,,,,,,,,,,1,,,,,,,,,,,,,,,,,,,,,,,,,,,,,,,,,,,,,,,,,,,,,,108,141802,21,Female,1,2024/03/20_15:38:18,YZ,None,
,,,,,,calibration,0,3,2,583,,,,,,,,0.5852272727272727,0.25,0.18181818181818182,0.8181818181818182,0.0,0.8181818181818181,0.5587483330649169,1,2,0,0,0,9,10,4,11,0,,,,1,,,,,,,,,,,,,,,,,,,,,,,,,,,,,,,,,,,,,,,,,,,,,,108,141802,21,Female,1,2024/03/20_15:38:18,YZ,None,
,,,,,,Calibration,0,,2,583,,,,,,,,,,,,,,,,,,,,,,,,,1,,,1,,,,,,,,,,,,,,,,,,,,,,,,,,,,,,,,,,,,,,,,,,,,,,108,141802,21,Female,1,2024/03/20_15:38:18,YZ,None,
,,,,,,calibration,0,8,2,679,1,J,0,right,0.5174797969957581,1,0,,,,,,,,,,,,,,,,,,,,,1,,,,,,,,,,,,,,,,,,,,,,,,,,,,,,,,,,,,,,,,,,,,,,108,141802,21,Female,1,2024/03/20_15:38:18,YZ,None,
,,,,,,calibration,0,8,2,679,2,C,0,right,0.36732969399599824,1,0,,,,,,,,,,,,,,,,,,,,,1,,,,,,,,,,,,,,,,,,,,,,,,,,,,,,,,,,,,,,,,,,,,,,108,141802,21,Female,1,2024/03/20_15:38:18,YZ,None,
,,,,,,calibration,0,8,2,679,3,J,1,left,0.6498907049972331,1,0,,,,,,,,,,,,,,,,,,,,,1,,,,,,,,,,,,,,,,,,,,,,,,,,,,,,,,,,,,,,,,,,,,,,108,141802,21,Female,1,2024/03/20_15:38:18,YZ,None,
,,,,,,calibration,0,8,2,679,4,S,0,right,0.26445329500711523,1,0,,,,,,,,,,,,,,,,,,,,,1,,,,,,,,,,,,,,,,,,,,,,,,,,,,,,,,,,,,,,,,,,,,,,108,141802,21,Female,1,2024/03/20_15:38:18,YZ,None,
,,,,,,calibration,0,8,2,679,5,J,1,left,0.40169719299592543,1,0,,,,,,,,,,,,,,,,,,,,,1,,,,,,,,,,,,,,,,,,,,,,,,,,,,,,,,,,,,,,,,,,,,,,108,141802,21,Female,1,2024/03/20_15:38:18,YZ,None,
,,,,,,calibration,0,8,2,679,6,N,0,left,0.5406303480122006,0,0,,,,,,,,,,,,,,,,,,,,,1,,,,,,,,,,,,,,,,,,,,,,,,,,,,,,,,,,,,,,,,,,,,,,108,141802,21,Female,1,2024/03/20_15:38:18,YZ,None,
,,,,,,calibration,0,8,2,679,7,V,0,right,0.3854201020003529,1,0,,,,,,,,,,,,,,,,,,,,,1,,,,,,,,,,,,,,,,,,,,,,,,,,,,,,,,,,,,,,,,,,,,,,108,141802,21,Female,1,2024/03/20_15:38:18,YZ,None,
,,,,,,calibration,0,8,2,679,8,F,0,right,0.29754861000401434,1,0,,,,,,,,,,,,,,,,,,,,,1,,,,,,,,,,,,,,,,,,,,,,,,,,,,,,,,,,,,,,,,,,,,,,108,141802,21,Female,1,2024/03/20_15:38:18,YZ,None,
,,,,,,calibration,0,8,2,679,9,C,0,right,0.37084194899944123,1,0,,,,,,,,,,,,,,,,,,,,,1,,,,,,,,,,,,,,,,,,,,,,,,,,,,,,,,,,,,,,,,,,,,,,108,141802,21,Female,1,2024/03/20_15:38:18,YZ,None,
,,,,,,calibration,0,8,2,679,10,X,0,right,0.3604290020011831,1,0,,,,,,,,,,,,,,,,,,,,,1,,,,,,,,,,,,,,,,,,,,,,,,,,,,,,,,,,,,,,,,,,,,,,108,141802,21,Female,1,2024/03/20_15:38:18,YZ,None,
,,,,,,calibration,0,8,2,679,11,C,1,left,0.47450749498966616,1,0,,,,,,,,,,,,,,,,,,,,,1,,,,,,,,,,,,,,,,,,,,,,,,,,,,,,,,,,,,,,,,,,,,,,108,141802,21,Female,1,2024/03/20_15:38:18,YZ,None,
,,,,,,calibration,0,8,2,679,12,N,0,right,0.2976776739960769,1,0,,,,,,,,,,,,,,,,,,,,,1,,,,,,,,,,,,,,,,,,,,,,,,,,,,,,,,,,,,,,,,,,,,,,108,141802,21,Female,1,2024/03/20_15:38:18,YZ,None,
,,,,,,calibration,0,8,2,679,13,X,0,right,0.33270376500149723,1,0,,,,,,,,,,,,,,,,,,,,,1,,,,,,,,,,,,,,,,,,,,,,,,,,,,,,,,,,,,,,,,,,,,,,108,141802,21,Female,1,2024/03/20_15:38:18,YZ,None,
,,,,,,calibration,0,8,2,679,14,N,1,right,0.2970994679926662,0,0,,,,,,,,,,,,,,,,,,,,,1,,,,,,,,,,,,,,,,,,,,,,,,,,,,,,,,,,,,,,,,,,,,,,108,141802,21,Female,1,2024/03/20_15:38:18,YZ,None,
,,,,,,calibration,0,8,2,679,,,,,,,,0.8875,0.75,0.1,0.9,0.0,0.9,0.3969792212135092,3,1,0,0,0,9,12,4,10,0,,,,1,,,,,,,,,,,,,,,,,,,,,,,,,,,,,,,,,,,,,,,,,,,,,,108,141802,21,Female,1,2024/03/20_15:38:18,YZ,None,
,,,,,,Calibration,0,,2,679,,,,,,,,,,,,,,,,,,,,,,,,,2,,,1,,,,,,,,,,,,,,,,,,,,,,,,,,,,,,,,,,,,,,,,,,,,,,108,141802,21,Female,1,2024/03/20_15:38:18,YZ,None,
,,,,,,calibration,0,12,2,583,1,F,0,right,0.22731300198938698,1,0,,,,,,,,,,,,,,,,,,,,,1,,,,,,,,,,,,,,,,,,,,,,,,,,,,,,,,,,,,,,,,,,,,,,108,141802,21,Female,1,2024/03/20_15:38:18,YZ,None,
,,,,,,calibration,0,12,2,583,2,X,0,right,0.24796671699732542,1,0,,,,,,,,,,,,,,,,,,,,,1,,,,,,,,,,,,,,,,,,,,,,,,,,,,,,,,,,,,,,,,,,,,,,108,141802,21,Female,1,2024/03/20_15:38:18,YZ,None,
,,,,,,calibration,0,12,2,583,3,F,1,right,0.24503980099689215,0,0,,,,,,,,,,,,,,,,,,,,,1,,,,,,,,,,,,,,,,,,,,,,,,,,,,,,,,,,,,,,,,,,,,,,108,141802,21,Female,1,2024/03/20_15:38:18,YZ,None,
,,,,,,calibration,0,12,2,583,4,X,1,right,0.42096380700240843,0,0,,,,,,,,,,,,,,,,,,,,,1,,,,,,,,,,,,,,,,,,,,,,,,,,,,,,,,,,,,,,,,,,,,,,108,141802,21,Female,1,2024/03/20_15:38:18,YZ,None,
,,,,,,calibration,0,12,2,583,5,S,0,right,0.0009230720024788752,1,0,,,,,,,,,,,,,,,,,,,,,1,,,,,,,,,,,,,,,,,,,,,,,,,,,,,,,,,,,,,,,,,,,,,,108,141802,21,Female,1,2024/03/20_15:38:18,YZ,None,
,,,,,,calibration,0,12,2,583,6,X,1,left,0.3774903000012273,1,0,,,,,,,,,,,,,,,,,,,,,1,,,,,,,,,,,,,,,,,,,,,,,,,,,,,,,,,,,,,,,,,,,,,,108,141802,21,Female,1,2024/03/20_15:38:18,YZ,None,
,,,,,,calibration,0,12,2,583,7,V,0,right,0.2164554819901241,1,0,,,,,,,,,,,,,,,,,,,,,1,,,,,,,,,,,,,,,,,,,,,,,,,,,,,,,,,,,,,,,,,,,,,,108,141802,21,Female,1,2024/03/20_15:38:18,YZ,None,
,,,,,,calibration,0,12,2,583,8,X,1,right,0.1018987690040376,0,0,,,,,,,,,,,,,,,,,,,,,1,,,,,,,,,,,,,,,,,,,,,,,,,,,,,,,,,,,,,,,,,,,,,,108,141802,21,Female,1,2024/03/20_15:38:18,YZ,None,
,,,,,,calibration,0,12,2,583,9,S,0,right,0.27264025500335265,1,0,,,,,,,,,,,,,,,,,,,,,1,,,,,,,,,,,,,,,,,,,,,,,,,,,,,,,,,,,,,,,,,,,,,,108,141802,21,Female,1,2024/03/20_15:38:18,YZ,None,
,,,,,,calibration,0,12,2,583,10,C,0,right,0.24057544200331904,1,0,,,,,,,,,,,,,,,,,,,,,1,,,,,,,,,,,,,,,,,,,,,,,,,,,,,,,,,,,,,,,,,,,,,,108,141802,21,Female,1,2024/03/20_15:38:18,YZ,None,
,,,,,,calibration,0,12,2,583,11,S,1,right,0.2889698990038596,0,0,,,,,,,,,,,,,,,,,,,,,1,,,,,,,,,,,,,,,,,,,,,,,,,,,,,,,,,,,,,,,,,,,,,,108,141802,21,Female,1,2024/03/20_15:38:18,YZ,None,
,,,,,,calibration,0,12,2,583,12,N,0,right,0.5443542899884051,1,0,,,,,,,,,,,,,,,,,,,,,1,,,,,,,,,,,,,,,,,,,,,,,,,,,,,,,,,,,,,,,,,,,,,,108,141802,21,Female,1,2024/03/20_15:38:18,YZ,None,
,,,,,,calibration,0,12,2,583,13,X,0,left,0.44849224800418597,0,0,,,,,,,,,,,,,,,,,,,,,1,,,,,,,,,,,,,,,,,,,,,,,,,,,,,,,,,,,,,,,,,,,,,,108,141802,21,Female,1,2024/03/20_15:38:18,YZ,None,
,,,,,,calibration,0,12,2,583,14,Q,0,right,0.09795595800096635,1,0,,,,,,,,,,,,,,,,,,,,,1,,,,,,,,,,,,,,,,,,,,,,,,,,,,,,,,,,,,,,,,,,,,,,108,141802,21,Female,1,2024/03/20_15:38:18,YZ,None,
,,,,,,calibration,0,12,2,583,15,V,0,right,0.2896635420038365,1,0,,,,,,,,,,,,,,,,,,,,,1,,,,,,,,,,,,,,,,,,,,,,,,,,,,,,,,,,,,,,,,,,,,,,108,141802,21,Female,1,2024/03/20_15:38:18,YZ,None,
,,,,,,calibration,0,12,2,583,,,,,,,,0.65,0.2,0.1,0.9,0.0,0.9,0.2680468389327871,1,1,0,0,0,9,10,5,10,0,,,,1,,,,,,,,,,,,,,,,,,,,,,,,,,,,,,,,,,,,,,,,,,,,,,108,141802,21,Female,1,2024/03/20_15:38:18,YZ,None,
,,,,,,Calibration,0,,2,583,,,,,,,,,,,,,,,,,,,,,,,,,3,,,1,,,,,,,,,,,,,,,,,,,,,,,,,,,,,,,,,,,,,,,,,,,,,,108,141802,21,Female,1,2024/03/20_15:38:18,YZ,None,
,,,,,,calibration,0,23,2,679,1,J,0,right,0.04896225899574347,1,0,,,,,,,,,,,,,,,,,,,,,1,,,,,,,,,,,,,,,,,,,,,,,,,,,,,,,,,,,,,,,,,,,,,,108,141802,21,Female,1,2024/03/20_15:38:18,YZ,None,
,,,,,,calibration,0,23,2,679,2,S,0,right,0.1862480759882601,1,0,,,,,,,,,,,,,,,,,,,,,1,,,,,,,,,,,,,,,,,,,,,,,,,,,,,,,,,,,,,,,,,,,,,,108,141802,21,Female,1,2024/03/20_15:38:18,YZ,None,
,,,,,,calibration,0,23,2,679,3,F,0,right,0.24871754000196233,1,0,,,,,,,,,,,,,,,,,,,,,1,,,,,,,,,,,,,,,,,,,,,,,,,,,,,,,,,,,,,,,,,,,,,,108,141802,21,Female,1,2024/03/20_15:38:18,YZ,None,
,,,,,,calibration,0,23,2,679,4,S,1,left,0.41302309300226625,1,0,,,,,,,,,,,,,,,,,,,,,1,,,,,,,,,,,,,,,,,,,,,,,,,,,,,,,,,,,,,,,,,,,,,,108,141802,21,Female,1,2024/03/20_15:38:18,YZ,None,
,,,,,,calibration,0,23,2,679,5,Q,0,right,0.21312793999095447,1,0,,,,,,,,,,,,,,,,,,,,,1,,,,,,,,,,,,,,,,,,,,,,,,,,,,,,,,,,,,,,,,,,,,,,108,141802,21,Female,1,2024/03/20_15:38:18,YZ,None,
,,,,,,calibration,0,23,2,679,6,C,0,right,0.08318291300383862,1,0,,,,,,,,,,,,,,,,,,,,,1,,,,,,,,,,,,,,,,,,,,,,,,,,,,,,,,,,,,,,,,,,,,,,108,141802,21,Female,1,2024/03/20_15:38:18,YZ,None,
,,,,,,calibration,0,23,2,679,7,S,0,right,0.11384661799820606,1,0,,,,,,,,,,,,,,,,,,,,,1,,,,,,,,,,,,,,,,,,,,,,,,,,,,,,,,,,,,,,,,,,,,,,108,141802,21,Female,1,2024/03/20_15:38:18,YZ,None,
,,,,,,calibration,0,23,2,679,8,X,0,right,0.40516280799056403,1,0,,,,,,,,,,,,,,,,,,,,,1,,,,,,,,,,,,,,,,,,,,,,,,,,,,,,,,,,,,,,,,,,,,,,108,141802,21,Female,1,2024/03/20_15:38:18,YZ,None,
,,,,,,calibration,0,23,2,679,9,S,1,right,0.257945738005219,0,0,,,,,,,,,,,,,,,,,,,,,1,,,,,,,,,,,,,,,,,,,,,,,,,,,,,,,,,,,,,,,,,,,,,,108,141802,21,Female,1,2024/03/20_15:38:18,YZ,None,
,,,,,,calibration,0,23,2,679,10,C,0,left,0.3782003530068323,0,0,,,,,,,,,,,,,,,,,,,,,1,,,,,,,,,,,,,,,,,,,,,,,,,,,,,,,,,,,,,,,,,,,,,,108,141802,21,Female,1,2024/03/20_15:38:18,YZ,None,
,,,,,,calibration,0,23,2,679,11,N,0,right,0.053141073003644124,1,0,,,,,,,,,,,,,,,,,,,,,1,,,,,,,,,,,,,,,,,,,,,,,,,,,,,,,,,,,,,,,,,,,,,,108,141802,21,Female,1,2024/03/20_15:38:18,YZ,None,
,,,,,,calibration,0,23,2,679,12,C,1,right,0.10587021701212507,0,0,,,,,,,,,,,,,,,,,,,,,1,,,,,,,,,,,,,,,,,,,,,,,,,,,,,,,,,,,,,,,,,,,,,,108,141802,21,Female,1,2024/03/20_15:38:18,YZ,None,
,,,,,,calibration,0,23,2,679,13,S,0,left,0.3772616159985773,0,0,,,,,,,,,,,,,,,,,,,,,1,,,,,,,,,,,,,,,,,,,,,,,,,,,,,,,,,,,,,,,,,,,,,,108,141802,21,Female,1,2024/03/20_15:38:18,YZ,None,
,,,,,,calibration,0,23,2,679,14,C,1,left,0.0802018090034835,1,0,,,,,,,,,,,,,,,,,,,,,1,,,,,,,,,,,,,,,,,,,,,,,,,,,,,,,,,,,,,,,,,,,,,,108,141802,21,Female,1,2024/03/20_15:38:18,YZ,None,
,,,,,,calibration,0,23,2,679,,,,,,,,0.725,0.5,0.2,0.8,0.0,0.8,0.21177800378583406,2,2,0,0,0,8,10,4,10,0,,,,1,,,,,,,,,,,,,,,,,,,,,,,,,,,,,,,,,,,,,,,,,,,,,,108,141802,21,Female,1,2024/03/20_15:38:18,YZ,None,
,,,,,,Calibration,0,,2,679,,,,,,,,,,,,,,,,,,,,,,,,,4,,,1,,,,,,,,,,,,,,,,,,,,,,,,,,,,,,,,,,,,,,,,,,,,,,108,141802,21,Female,1,2024/03/20_15:38:18,YZ,None,
,,,,,,calibration,0,23,2,788,1,J,0,right,0.021212289997492917,1,0,,,,,,,,,,,,,,,,,,,,,1,,,,,,,,,,,,,,,,,,,,,,,,,,,,,,,,,,,,,,,,,,,,,,108,141802,21,Female,1,2024/03/20_15:38:18,YZ,None,
,,,,,,calibration,0,23,2,788,2,S,0,right,0.07587478999630548,1,0,,,,,,,,,,,,,,,,,,,,,1,,,,,,,,,,,,,,,,,,,,,,,,,,,,,,,,,,,,,,,,,,,,,,108,141802,21,Female,1,2024/03/20_15:38:18,YZ,None,
,,,,,,calibration,0,23,2,788,3,J,1,left,0.3415307830000529,1,0,,,,,,,,,,,,,,,,,,,,,1,,,,,,,,,,,,,,,,,,,,,,,,,,,,,,,,,,,,,,,,,,,,,,108,141802,21,Female,1,2024/03/20_15:38:18,YZ,None,
,,,,,,calibration,0,23,2,788,4,N,0,right,0.11742259000311606,1,0,,,,,,,,,,,,,,,,,,,,,1,,,,,,,,,,,,,,,,,,,,,,,,,,,,,,,,,,,,,,,,,,,,,,108,141802,21,Female,1,2024/03/20_15:38:18,YZ,None,
,,,,,,calibration,0,23,2,788,5,V,0,right,0.09838496800512075,1,0,,,,,,,,,,,,,,,,,,,,,1,,,,,,,,,,,,,,,,,,,,,,,,,,,,,,,,,,,,,,,,,,,,,,108,141802,21,Female,1,2024/03/20_15:38:18,YZ,None,
,,,,,,calibration,0,23,2,788,6,C,0,right,0.20943765400443226,1,0,,,,,,,,,,,,,,,,,,,,,1,,,,,,,,,,,,,,,,,,,,,,,,,,,,,,,,,,,,,,,,,,,,,,108,141802,21,Female,1,2024/03/20_15:38:18,YZ,None,
,,,,,,calibration,0,23,2,788,7,V,1,left,0.38180149500840344,1,0,,,,,,,,,,,,,,,,,,,,,1,,,,,,,,,,,,,,,,,,,,,,,,,,,,,,,,,,,,,,,,,,,,,,108,141802,21,Female,1,2024/03/20_15:38:18,YZ,None,
,,,,,,calibration,0,23,2,788,8,N,0,right,0.12551576700934675,1,0,,,,,,,,,,,,,,,,,,,,,1,,,,,,,,,,,,,,,,,,,,,,,,,,,,,,,,,,,,,,,,,,,,,,108,141802,21,Female,1,2024/03/20_15:38:18,YZ,None,
,,,,,,calibration,0,23,2,788,9,V,1,right,0.2135356939979829,0,0,,,,,,,,,,,,,,,,,,,,,1,,,,,,,,,,,,,,,,,,,,,,,,,,,,,,,,,,,,,,,,,,,,,,108,141802,21,Female,1,2024/03/20_15:38:18,YZ,None,
,,,,,,calibration,0,23,2,788,10,S,0,right,0.20519824400253128,1,0,,,,,,,,,,,,,,,,,,,,,1,,,,,,,,,,,,,,,,,,,,,,,,,,,,,,,,,,,,,,,,,,,,,,108,141802,21,Female,1,2024/03/20_15:38:18,YZ,None,
,,,,,,calibration,0,23,2,788,11,V,1,right,0.3135391010000603,0,0,,,,,,,,,,,,,,,,,,,,,1,,,,,,,,,,,,,,,,,,,,,,,,,,,,,,,,,,,,,,,,,,,,,,108,141802,21,Female,1,2024/03/20_15:38:18,YZ,None,
,,,,,,calibration,0,23,2,788,12,X,0,right,0.26122774499526713,1,0,,,,,,,,,,,,,,,,,,,,,1,,,,,,,,,,,,,,,,,,,,,,,,,,,,,,,,,,,,,,,,,,,,,,108,141802,21,Female,1,2024/03/20_15:38:18,YZ,None,
,,,,,,calibration,0,23,2,788,13,C,0,right,0.29333506200055126,1,0,,,,,,,,,,,,,,,,,,,,,1,,,,,,,,,,,,,,,,,,,,,,,,,,,,,,,,,,,,,,,,,,,,,,108,141802,21,Female,1,2024/03/20_15:38:18,YZ,None,
,,,,,,calibration,0,23,2,788,,,,,,,,0.875,0.5,0.0,1.0,0.0,1.0,0.2044627833092818,2,0,0,0,0,9,11,4,9,0,,,,1,,,,,,,,,,,,,,,,,,,,,,,,,,,,,,,,,,,,,,,,,,,,,,108,141802,21,Female,1,2024/03/20_15:38:18,YZ,None,
,,,,,,Calibration,0,,2,788,,,,,,,,,,,,,,,,,,,,,,,,,5,,,1,,,,,,,,,,,,,,,,,,,,,,,,,,,,,,,,,,,,,,,,,,,,,,108,141802,21,Female,1,2024/03/20_15:38:18,YZ,None,
,,,,,,calibration,0,13,2,679,1,N,0,right,0.2763508940115571,1,0,,,,,,,,,,,,,,,,,,,,,1,,,,,,,,,,,,,,,,,,,,,,,,,,,,,,,,,,,,,,,,,,,,,,108,141802,21,Female,1,2024/03/20_15:38:18,YZ,None,
,,,,,,calibration,0,13,2,679,2,Q,0,right,0.3210203289927449,1,0,,,,,,,,,,,,,,,,,,,,,1,,,,,,,,,,,,,,,,,,,,,,,,,,,,,,,,,,,,,,,,,,,,,,108,141802,21,Female,1,2024/03/20_15:38:18,YZ,None,
,,,,,,calibration,0,13,2,679,3,N,1,right,0.24923296899942216,0,0,,,,,,,,,,,,,,,,,,,,,1,,,,,,,,,,,,,,,,,,,,,,,,,,,,,,,,,,,,,,,,,,,,,,108,141802,21,Female,1,2024/03/20_15:38:18,YZ,None,
,,,,,,calibration,0,13,2,679,4,Q,1,left,0.14131182299752254,1,0,,,,,,,,,,,,,,,,,,,,,1,,,,,,,,,,,,,,,,,,,,,,,,,,,,,,,,,,,,,,,,,,,,,,108,141802,21,Female,1,2024/03/20_15:38:18,YZ,None,
,,,,,,calibration,0,13,2,679,5,S,0,left,0.09802090600715019,0,0,,,,,,,,,,,,,,,,,,,,,1,,,,,,,,,,,,,,,,,,,,,,,,,,,,,,,,,,,,,,,,,,,,,,108,141802,21,Female,1,2024/03/20_15:38:18,YZ,None,
,,,,,,calibration,0,13,2,679,6,Q,1,right,0.005149342003278434,0,0,,,,,,,,,,,,,,,,,,,,,1,,,,,,,,,,,,,,,,,,,,,,,,,,,,,,,,,,,,,,,,,,,,,,108,141802,21,Female,1,2024/03/20_15:38:18,YZ,None,
,,,,,,calibration,0,13,2,679,7,V,0,right,0.20195787600823678,1,0,,,,,,,,,,,,,,,,,,,,,1,,,,,,,,,,,,,,,,,,,,,,,,,,,,,,,,,,,,,,,,,,,,,,108,141802,21,Female,1,2024/03/20_15:38:18,YZ,None,
,,,,,,calibration,0,13,2,679,8,J,0,left,0.013866672001313418,0,0,,,,,,,,,,,,,,,,,,,,,1,,,,,,,,,,,,,,,,,,,,,,,,,,,,,,,,,,,,,,,,,,,,,,108,141802,21,Female,1,2024/03/20_15:38:18,YZ,None,
,,,,,,calibration,0,13,2,679,9,X,0,left,0.1011185800016392,0,0,,,,,,,,,,,,,,,,,,,,,1,,,,,,,,,,,,,,,,,,,,,,,,,,,,,,,,,,,,,,,,,,,,,,108,141802,21,Female,1,2024/03/20_15:38:18,YZ,None,
,,,,,,calibration,0,13,2,679,10,F,0,left,0.20922946599603165,0,0,,,,,,,,,,,,,,,,,,,,,1,,,,,,,,,,,,,,,,,,,,,,,,,,,,,,,,,,,,,,,,,,,,,,108,141802,21,Female,1,2024/03/20_15:38:18,YZ,None,
,,,,,,calibration,0,13,2,679,11,C,0,right,0.08932177298993338,1,0,,,,,,,,,,,,,,,,,,,,,1,,,,,,,,,,,,,,,,,,,,,,,,,,,,,,,,,,,,,,,,,,,,,,108,141802,21,Female,1,2024/03/20_15:38:18,YZ,None,
,,,,,,calibration,0,13,2,679,12,F,1,right,0.07188900299661327,0,0,,,,,,,,,,,,,,,,,,,,,1,,,,,,,,,,,,,,,,,,,,,,,,,,,,,,,,,,,,,,,,,,,,,,108,141802,21,Female,1,2024/03/20_15:38:18,YZ,None,
,,,,,,calibration,0,13,2,679,13,N,0,left,0.38430534600047395,0,0,,,,,,,,,,,,,,,,,,,,,1,,,,,,,,,,,,,,,,,,,,,,,,,,,,,,,,,,,,,,,,,,,,,,108,141802,21,Female,1,2024/03/20_15:38:18,YZ,None,
,,,,,,calibration,0,13,2,679,14,X,0,left,0.17083231300057378,0,0,,,,,,,,,,,,,,,,,,,,,1,,,,,,,,,,,,,,,,,,,,,,,,,,,,,,,,,,,,,,,,,,,,,,108,141802,21,Female,1,2024/03/20_15:38:18,YZ,None,
,,,,,,calibration,0,13,2,679,,,,,,,,0.0625,0.25,0.6,0.4,0.0,0.4,0.16668623514332076,1,6,0,0,0,4,5,4,10,0,,,,1,,,,,,,,,,,,,,,,,,,,,,,,,,,,,,,,,,,,,,,,,,,,,,108,141802,21,Female,1,2024/03/20_15:38:18,YZ,None,
,,,,,,Calibration,0,,2,679,,,,,,,,,,,,,,,,,,,,,,,,,6,,,1,,,,,,,,,,,,,,,,,,,,,,,,,,,,,,,,,,,,,,,,,,,,,,108,141802,21,Female,1,2024/03/20_15:38:18,YZ,None,
,,,,,,calibration,0,27,2,788,1,N,0,right,0.616055881997454,1,0,,,,,,,,,,,,,,,,,,,,,1,,,,,,,,,,,,,,,,,,,,,,,,,,,,,,,,,,,,,,,,,,,,,,108,141802,21,Female,1,2024/03/20_15:38:18,YZ,None,
,,,,,,calibration,0,27,2,788,2,C,0,right,0.036554353006067686,1,0,,,,,,,,,,,,,,,,,,,,,1,,,,,,,,,,,,,,,,,,,,,,,,,,,,,,,,,,,,,,,,,,,,,,108,141802,21,Female,1,2024/03/20_15:38:18,YZ,None,
,,,,,,calibration,0,27,2,788,3,S,0,right,0.23325472699070815,1,0,,,,,,,,,,,,,,,,,,,,,1,,,,,,,,,,,,,,,,,,,,,,,,,,,,,,,,,,,,,,,,,,,,,,108,141802,21,Female,1,2024/03/20_15:38:18,YZ,None,
,,,,,,calibration,0,27,2,788,4,C,1,right,0.2744399220100604,0,0,,,,,,,,,,,,,,,,,,,,,1,,,,,,,,,,,,,,,,,,,,,,,,,,,,,,,,,,,,,,,,,,,,,,108,141802,21,Female,1,2024/03/20_15:38:18,YZ,None,
,,,,,,calibration,0,27,2,788,5,J,0,left,0.2693515760038281,0,0,,,,,,,,,,,,,,,,,,,,,1,,,,,,,,,,,,,,,,,,,,,,,,,,,,,,,,,,,,,,,,,,,,,,108,141802,21,Female,1,2024/03/20_15:38:18,YZ,None,
,,,,,,calibration,0,27,2,788,6,X,0,left,0.1458114519919036,0,0,,,,,,,,,,,,,,,,,,,,,1,,,,,,,,,,,,,,,,,,,,,,,,,,,,,,,,,,,,,,,,,,,,,,108,141802,21,Female,1,2024/03/20_15:38:18,YZ,None,
,,,,,,calibration,0,27,2,788,7,J,1,left,0.18930496800749097,1,0,,,,,,,,,,,,,,,,,,,,,1,,,,,,,,,,,,,,,,,,,,,,,,,,,,,,,,,,,,,,,,,,,,,,108,141802,21,Female,1,2024/03/20_15:38:18,YZ,None,
,,,,,,calibration,0,27,2,788,8,N,0,right,0.048298084002453834,1,0,,,,,,,,,,,,,,,,,,,,,1,,,,,,,,,,,,,,,,,,,,,,,,,,,,,,,,,,,,,,,,,,,,,,108,141802,21,Female,1,2024/03/20_15:38:18,YZ,None,
,,,,,,calibration,0,27,2,788,9,J,1,right,0.26084627299860585,0,0,,,,,,,,,,,,,,,,,,,,,1,,,,,,,,,,,,,,,,,,,,,,,,,,,,,,,,,,,,,,,,,,,,,,108,141802,21,Female,1,2024/03/20_15:38:18,YZ,None,
,,,,,,calibration,0,27,2,788,10,N,1,right,0.42870316198968794,0,0,,,,,,,,,,,,,,,,,,,,,1,,,,,,,,,,,,,,,,,,,,,,,,,,,,,,,,,,,,,,,,,,,,,,108,141802,21,Female,1,2024/03/20_15:38:18,YZ,None,
,,,,,,calibration,0,27,2,788,11,F,0,right,0.5354630869987886,1,0,,,,,,,,,,,,,,,,,,,,,1,,,,,,,,,,,,,,,,,,,,,,,,,,,,,,,,,,,,,,,,,,,,,,108,141802,21,Female,1,2024/03/20_15:38:18,YZ,None,
,,,,,,calibration,0,27,2,788,12,Q,0,right,0.5580615340004442,1,0,,,,,,,,,,,,,,,,,,,,,1,,,,,,,,,,,,,,,,,,,,,,,,,,,,,,,,,,,,,,,,,,,,,,108,141802,21,Female,1,2024/03/20_15:38:18,YZ,None,
,,,,,,calibration,0,27,2,788,13,C,0,right,0.3951999499986414,1,0,,,,,,,,,,,,,,,,,,,,,1,,,,,,,,,,,,,,,,,,,,,,,,,,,,,,,,,,,,,,,,,,,,,,108,141802,21,Female,1,2024/03/20_15:38:18,YZ,None,
,,,,,,calibration,0,27,2,788,,,,,,,,0.5347222222222222,0.25,0.2222222222222222,0.7777777777777778,0.0,0.7777777777777778,0.3070265361535488,1,2,0,0,0,7,8,4,9,0,,,,1,,,,,,,,,,,,,,,,,,,,,,,,,,,,,,,,,,,,,,,,,,,,,,108,141802,21,Female,1,2024/03/20_15:38:18,YZ,None,
,,,,,,Calibration,0,,2,788,,,,,,,,,,,,,,,,,,,,,,,,,7,,,1,,,,,,,,,,,,,,,,,,,,,,,,,,,,,,,,,,,,,,,,,,,,,,108,141802,21,Female,1,2024/03/20_15:38:18,YZ,None,
,,,,,,calibration,0,28,2,917,1,X,0,right,0.3882211440068204,1,0,,,,,,,,,,,,,,,,,,,,,1,,,,,,,,,,,,,,,,,,,,,,,,,,,,,,,,,,,,,,,,,,,,,,108,141802,21,Female,1,2024/03/20_15:38:18,YZ,None,
,,,,,,calibration,0,28,2,917,2,J,0,right,0.1869900829915423,1,0,,,,,,,,,,,,,,,,,,,,,1,,,,,,,,,,,,,,,,,,,,,,,,,,,,,,,,,,,,,,,,,,,,,,108,141802,21,Female,1,2024/03/20_15:38:18,YZ,None,
,,,,,,calibration,0,28,2,917,3,S,0,left,0.48521610599709675,0,0,,,,,,,,,,,,,,,,,,,,,1,,,,,,,,,,,,,,,,,,,,,,,,,,,,,,,,,,,,,,,,,,,,,,108,141802,21,Female,1,2024/03/20_15:38:18,YZ,None,
,,,,,,calibration,0,28,2,917,4,J,1,right,0.2491789099876769,0,0,,,,,,,,,,,,,,,,,,,,,1,,,,,,,,,,,,,,,,,,,,,,,,,,,,,,,,,,,,,,,,,,,,,,108,141802,21,Female,1,2024/03/20_15:38:18,YZ,None,
,,,,,,calibration,0,28,2,917,5,C,0,right,0.23538125099730678,1,0,,,,,,,,,,,,,,,,,,,,,1,,,,,,,,,,,,,,,,,,,,,,,,,,,,,,,,,,,,,,,,,,,,,,108,141802,21,Female,1,2024/03/20_15:38:18,YZ,None,
,,,,,,calibration,0,28,2,917,6,J,1,right,0.23235712699533906,0,0,,,,,,,,,,,,,,,,,,,,,1,,,,,,,,,,,,,,,,,,,,,,,,,,,,,,,,,,,,,,,,,,,,,,108,141802,21,Female,1,2024/03/20_15:38:18,YZ,None,
,,,,,,calibration,0,28,2,917,7,Q,0,right,0.5123938600008842,1,0,,,,,,,,,,,,,,,,,,,,,1,,,,,,,,,,,,,,,,,,,,,,,,,,,,,,,,,,,,,,,,,,,,,,108,141802,21,Female,1,2024/03/20_15:38:18,YZ,None,
,,,,,,calibration,0,28,2,917,8,F,0,right,0.2513742509909207,1,0,,,,,,,,,,,,,,,,,,,,,1,,,,,,,,,,,,,,,,,,,,,,,,,,,,,,,,,,,,,,,,,,,,,,108,141802,21,Female,1,2024/03/20_15:38:18,YZ,None,
,,,,,,calibration,0,28,2,917,9,Q,1,left,0.48085507699579466,1,0,,,,,,,,,,,,,,,,,,,,,1,,,,,,,,,,,,,,,,,,,,,,,,,,,,,,,,,,,,,,,,,,,,,,108,141802,21,Female,1,2024/03/20_15:38:18,YZ,None,
,,,,,,calibration,0,28,2,917,10,N,0,right,0.2272222729952773,1,0,,,,,,,,,,,,,,,,,,,,,1,,,,,,,,,,,,,,,,,,,,,,,,,,,,,,,,,,,,,,,,,,,,,,108,141802,21,Female,1,2024/03/20_15:38:18,YZ,None,
,,,,,,calibration,0,28,2,917,11,S,0,right,0.26158480100275483,1,0,,,,,,,,,,,,,,,,,,,,,1,,,,,,,,,,,,,,,,,,,,,,,,,,,,,,,,,,,,,,,,,,,,,,108,141802,21,Female,1,2024/03/20_15:38:18,YZ,None,
,,,,,,calibration,0,28,2,917,12,F,0,right,0.41294323100009933,1,0,,,,,,,,,,,,,,,,,,,,,1,,,,,,,,,,,,,,,,,,,,,,,,,,,,,,,,,,,,,,,,,,,,,,108,141802,21,Female,1,2024/03/20_15:38:18,YZ,None,
,,,,,,calibration,0,28,2,917,,,,,,,,0.7222222222222222,0.3333333333333333,0.1111111111111111,0.8888888888888888,0.0,0.8888888888888888,0.32697650949679274,1,1,0,0,0,8,9,3,9,0,,,,1,,,,,,,,,,,,,,,,,,,,,,,,,,,,,,,,,,,,,,,,,,,,,,108,141802,21,Female,1,2024/03/20_15:38:18,YZ,None,
,,,,,,Calibration,0,,2,917,,,,,,,,,,,,,,,,,,,,,,,,,8,,,1,,,,,,,,,,,,,,,,,,,,,,,,,,,,,,,,,,,,,,,,,,,,,,108,141802,21,Female,1,2024/03/20_15:38:18,YZ,None,
,,,,,,calibration,0,13,2,1068,1,V,0,right,0.45654094699420966,1,0,,,,,,,,,,,,,,,,,,,,,1,,,,,,,,,,,,,,,,,,,,,,,,,,,,,,,,,,,,,,,,,,,,,,108,141802,21,Female,1,2024/03/20_15:38:18,YZ,None,
,,,,,,calibration,0,13,2,1068,2,N,0,right,0.10455501399701461,1,0,,,,,,,,,,,,,,,,,,,,,1,,,,,,,,,,,,,,,,,,,,,,,,,,,,,,,,,,,,,,,,,,,,,,108,141802,21,Female,1,2024/03/20_15:38:18,YZ,None,
,,,,,,calibration,0,13,2,1068,3,V,1,left,0.3211099199979799,1,0,,,,,,,,,,,,,,,,,,,,,1,,,,,,,,,,,,,,,,,,,,,,,,,,,,,,,,,,,,,,,,,,,,,,108,141802,21,Female,1,2024/03/20_15:38:18,YZ,None,
,,,,,,calibration,0,13,2,1068,4,Q,0,right,0.19377512999926694,1,0,,,,,,,,,,,,,,,,,,,,,1,,,,,,,,,,,,,,,,,,,,,,,,,,,,,,,,,,,,,,,,,,,,,,108,141802,21,Female,1,2024/03/20_15:38:18,YZ,None,
,,,,,,calibration,0,13,2,1068,5,F,0,right,0.3848338809912093,1,0,,,,,,,,,,,,,,,,,,,,,1,,,,,,,,,,,,,,,,,,,,,,,,,,,,,,,,,,,,,,,,,,,,,,108,141802,21,Female,1,2024/03/20_15:38:18,YZ,None,
,,,,,,calibration,0,13,2,1068,6,Q,1,right,0.33306933200219646,0,0,,,,,,,,,,,,,,,,,,,,,1,,,,,,,,,,,,,,,,,,,,,,,,,,,,,,,,,,,,,,,,,,,,,,108,141802,21,Female,1,2024/03/20_15:38:18,YZ,None,
,,,,,,calibration,0,13,2,1068,7,J,0,right,0.5252555980114266,1,0,,,,,,,,,,,,,,,,,,,,,1,,,,,,,,,,,,,,,,,,,,,,,,,,,,,,,,,,,,,,,,,,,,,,108,141802,21,Female,1,2024/03/20_15:38:18,YZ,None,
,,,,,,calibration,0,13,2,1068,8,Q,1,left,0.4809980300051393,1,0,,,,,,,,,,,,,,,,,,,,,1,,,,,,,,,,,,,,,,,,,,,,,,,,,,,,,,,,,,,,,,,,,,,,108,141802,21,Female,1,2024/03/20_15:38:18,YZ,None,
,,,,,,calibration,0,13,2,1068,9,F,0,right,0.3695218869979726,1,0,,,,,,,,,,,,,,,,,,,,,1,,,,,,,,,,,,,,,,,,,,,,,,,,,,,,,,,,,,,,,,,,,,,,108,141802,21,Female,1,2024/03/20_15:38:18,YZ,None,
,,,,,,calibration,0,13,2,1068,10,X,0,right,0.23349966999376193,1,0,,,,,,,,,,,,,,,,,,,,,1,,,,,,,,,,,,,,,,,,,,,,,,,,,,,,,,,,,,,,,,,,,,,,108,141802,21,Female,1,2024/03/20_15:38:18,YZ,None,
,,,,,,calibration,0,13,2,1068,11,C,0,right,0.20521221299713943,1,0,,,,,,,,,,,,,,,,,,,,,1,,,,,,,,,,,,,,,,,,,,,,,,,,,,,,,,,,,,,,,,,,,,,,108,141802,21,Female,1,2024/03/20_15:38:18,YZ,None,
,,,,,,calibration,0,13,2,1068,,,,,,,,0.9166666666666666,0.6666666666666666,0.0,1.0,0.0,1.0,0.3280337838170288,2,0,0,0,0,8,10,3,8,0,,,,1,,,,,,,,,,,,,,,,,,,,,,,,,,,,,,,,,,,,,,,,,,,,,,108,141802,21,Female,1,2024/03/20_15:38:18,YZ,None,
,,,,,,Calibration,0,,2,1068,,,,,,,,,,,,,,,,,,,,,,,,,9,,,1,,,,,,,,,,,,,,,,,,,,,,,,,,,,,,,,,,,,,,,,,,,,,,108,141802,21,Female,1,2024/03/20_15:38:18,YZ,None,
,,,,,,calibration,0,31,2,917,1,S,0,right,0.2019747829908738,1,0,,,,,,,,,,,,,,,,,,,,,1,,,,,,,,,,,,,,,,,,,,,,,,,,,,,,,,,,,,,,,,,,,,,,108,141802,21,Female,1,2024/03/20_15:38:18,YZ,None,
,,,,,,calibration,0,31,2,917,2,Q,0,right,0.15565933199832216,1,0,,,,,,,,,,,,,,,,,,,,,1,,,,,,,,,,,,,,,,,,,,,,,,,,,,,,,,,,,,,,,,,,,,,,108,141802,21,Female,1,2024/03/20_15:38:18,YZ,None,
,,,,,,calibration,0,31,2,917,3,F,0,right,0.26492462200985756,1,0,,,,,,,,,,,,,,,,,,,,,1,,,,,,,,,,,,,,,,,,,,,,,,,,,,,,,,,,,,,,,,,,,,,,108,141802,21,Female,1,2024/03/20_15:38:18,YZ,None,
,,,,,,calibration,0,31,2,917,4,N,0,right,0.36583910600165837,1,0,,,,,,,,,,,,,,,,,,,,,1,,,,,,,,,,,,,,,,,,,,,,,,,,,,,,,,,,,,,,,,,,,,,,108,141802,21,Female,1,2024/03/20_15:38:18,YZ,None,
,,,,,,calibration,0,31,2,917,5,F,1,right,0.2893129229923943,0,0,,,,,,,,,,,,,,,,,,,,,1,,,,,,,,,,,,,,,,,,,,,,,,,,,,,,,,,,,,,,,,,,,,,,108,141802,21,Female,1,2024/03/20_15:38:18,YZ,None,
,,,,,,calibration,0,31,2,917,6,N,1,right,0.2969789119961206,0,0,,,,,,,,,,,,,,,,,,,,,1,,,,,,,,,,,,,,,,,,,,,,,,,,,,,,,,,,,,,,,,,,,,,,108,141802,21,Female,1,2024/03/20_15:38:18,YZ,None,
,,,,,,calibration,0,31,2,917,7,X,0,left,0.0,0,0,,,,,,,,,,,,,,,,,,,,,1,,,,,,,,,,,,,,,,,,,,,,,,,,,,,,,,,,,,,,,,,,,,,,108,141802,21,Female,1,2024/03/20_15:38:18,YZ,None,
,,,,,,calibration,0,31,2,917,8,V,0,right,0.13142128600156866,1,0,,,,,,,,,,,,,,,,,,,,,1,,,,,,,,,,,,,,,,,,,,,,,,,,,,,,,,,,,,,,,,,,,,,,108,141802,21,Female,1,2024/03/20_15:38:18,YZ,None,
,,,,,,calibration,0,31,2,917,9,X,1,left,0.31366086700290907,1,0,,,,,,,,,,,,,,,,,,,,,1,,,,,,,,,,,,,,,,,,,,,,,,,,,,,,,,,,,,,,,,,,,,,,108,141802,21,Female,1,2024/03/20_15:38:18,YZ,None,
,,,,,,calibration,0,31,2,917,10,S,0,right,0.5391990330099361,1,0,,,,,,,,,,,,,,,,,,,,,1,,,,,,,,,,,,,,,,,,,,,,,,,,,,,,,,,,,,,,,,,,,,,,108,141802,21,Female,1,2024/03/20_15:38:18,YZ,None,
,,,,,,calibration,0,31,2,917,11,C,0,right,0.4306068229925586,1,0,,,,,,,,,,,,,,,,,,,,,1,,,,,,,,,,,,,,,,,,,,,,,,,,,,,,,,,,,,,,,,,,,,,,108,141802,21,Female,1,2024/03/20_15:38:18,YZ,None,
,,,,,,calibration,0,31,2,917,12,S,1,left,0.4936387769994326,1,0,,,,,,,,,,,,,,,,,,,,,1,,,,,,,,,,,,,,,,,,,,,,,,,,,,,,,,,,,,,,,,,,,,,,108,141802,21,Female,1,2024/03/20_15:38:18,YZ,None,
,,,,,,calibration,0,31,2,917,,,,,,,,0.78125,0.5,0.125,0.875,0.0,0.875,0.29026803866630263,2,1,0,0,0,7,9,4,8,0,,,,1,,,,,,,,,,,,,,,,,,,,,,,,,,,,,,,,,,,,,,,,,,,,,,108,141802,21,Female,1,2024/03/20_15:38:18,YZ,None,
,,,,,,Calibration,0,,2,917,,,,,,,,,,,,,,,,,,,,,,,,,10,,,1,,,,,,,,,,,,,,,,,,,,,,,,,,,,,,,,,,,,,,,,,,,,,,108,141802,21,Female,1,2024/03/20_15:38:18,YZ,None,
,,,,,,calibration,0,20,2,917,1,V,0,right,0.47468862700043246,1,0,,,,,,,,,,,,,,,,,,,,,1,,,,,,,,,,,,,,,,,,,,,,,,,,,,,,,,,,,,,,,,,,,,,,108,141802,21,Female,1,2024/03/20_15:38:18,YZ,None,
,,,,,,calibration,0,20,2,917,2,S,0,right,0.2811924980051117,1,0,,,,,,,,,,,,,,,,,,,,,1,,,,,,,,,,,,,,,,,,,,,,,,,,,,,,,,,,,,,,,,,,,,,,108,141802,21,Female,1,2024/03/20_15:38:18,YZ,None,
,,,,,,calibration,0,20,2,917,3,V,1,left,0.4188963549968321,1,0,,,,,,,,,,,,,,,,,,,,,1,,,,,,,,,,,,,,,,,,,,,,,,,,,,,,,,,,,,,,,,,,,,,,108,141802,21,Female,1,2024/03/20_15:38:18,YZ,None,
,,,,,,calibration,0,20,2,917,4,X,0,right,0.2165266030060593,1,0,,,,,,,,,,,,,,,,,,,,,1,,,,,,,,,,,,,,,,,,,,,,,,,,,,,,,,,,,,,,,,,,,,,,108,141802,21,Female,1,2024/03/20_15:38:18,YZ,None,
,,,,,,calibration,0,20,2,917,5,F,0,right,0.42131998599506915,1,0,,,,,,,,,,,,,,,,,,,,,1,,,,,,,,,,,,,,,,,,,,,,,,,,,,,,,,,,,,,,,,,,,,,,108,141802,21,Female,1,2024/03/20_15:38:18,YZ,None,
,,,,,,calibration,0,20,2,917,6,J,0,right,0.5243584989948431,1,0,,,,,,,,,,,,,,,,,,,,,1,,,,,,,,,,,,,,,,,,,,,,,,,,,,,,,,,,,,,,,,,,,,,,108,141802,21,Female,1,2024/03/20_15:38:18,YZ,None,
,,,,,,calibration,0,20,2,917,7,V,0,right,0.6453202160046203,1,0,,,,,,,,,,,,,,,,,,,,,1,,,,,,,,,,,,,,,,,,,,,,,,,,,,,,,,,,,,,,,,,,,,,,108,141802,21,Female,1,2024/03/20_15:38:18,YZ,None,
,,,,,,calibration,0,20,2,917,8,N,0,right,0.35691794600279536,1,0,,,,,,,,,,,,,,,,,,,,,1,,,,,,,,,,,,,,,,,,,,,,,,,,,,,,,,,,,,,,,,,,,,,,108,141802,21,Female,1,2024/03/20_15:38:18,YZ,None,
,,,,,,calibration,0,20,2,917,9,F,0,right,0.5477901400008705,1,0,,,,,,,,,,,,,,,,,,,,,1,,,,,,,,,,,,,,,,,,,,,,,,,,,,,,,,,,,,,,,,,,,,,,108,141802,21,Female,1,2024/03/20_15:38:18,YZ,None,
,,,,,,calibration,0,20,2,917,10,N,1,right,0.453831929989974,0,0,,,,,,,,,,,,,,,,,,,,,1,,,,,,,,,,,,,,,,,,,,,,,,,,,,,,,,,,,,,,,,,,,,,,108,141802,21,Female,1,2024/03/20_15:38:18,YZ,None,
,,,,,,calibration,0,20,2,917,11,F,1,left,0.3857254720060155,1,0,,,,,,,,,,,,,,,,,,,,,1,,,,,,,,,,,,,,,,,,,,,,,,,,,,,,,,,,,,,,,,,,,,,,108,141802,21,Female,1,2024/03/20_15:38:18,YZ,None,
,,,,,,calibration,0,20,2,917,12,V,0,right,0.3235011459910311,1,0,,,,,,,,,,,,,,,,,,,,,1,,,,,,,,,,,,,,,,,,,,,,,,,,,,,,,,,,,,,,,,,,,,,,108,141802,21,Female,1,2024/03/20_15:38:18,YZ,None,
,,,,,,calibration,0,20,2,917,,,,,,,,0.9166666666666666,0.6666666666666666,0.0,1.0,0.0,1.0,0.4208391181661379,2,0,0,0,0,9,11,3,9,0,,,,1,,,,,,,,,,,,,,,,,,,,,,,,,,,,,,,,,,,,,,,,,,,,,,108,141802,21,Female,1,2024/03/20_15:38:18,YZ,None,
,,,,,,Calibration,0,,2,917,,,,,,,,,,,,,,,,,,,,,,,,,11,,,1,,,,,,,,,,,,,,,,,,,,,,,,,,,,,,,,,,,,,,,,,,,,,,108,141802,21,Female,1,2024/03/20_15:38:18,YZ,None,
,,,,,,calibration,0,30,2,788,1,Q,0,right,0.36120027500146534,1,0,,,,,,,,,,,,,,,,,,,,,1,,,,,,,,,,,,,,,,,,,,,,,,,,,,,,,,,,,,,,,,,,,,,,108,141802,21,Female,1,2024/03/20_15:38:18,YZ,None,
,,,,,,calibration,0,30,2,788,2,S,0,right,0.2509731140016811,1,0,,,,,,,,,,,,,,,,,,,,,1,,,,,,,,,,,,,,,,,,,,,,,,,,,,,,,,,,,,,,,,,,,,,,108,141802,21,Female,1,2024/03/20_15:38:18,YZ,None,
,,,,,,calibration,0,30,2,788,3,F,0,right,0.360621155006811,1,0,,,,,,,,,,,,,,,,,,,,,1,,,,,,,,,,,,,,,,,,,,,,,,,,,,,,,,,,,,,,,,,,,,,,108,141802,21,Female,1,2024/03/20_15:38:18,YZ,None,
,,,,,,calibration,0,30,2,788,4,S,1,left,0.42481451299681794,1,0,,,,,,,,,,,,,,,,,,,,,1,,,,,,,,,,,,,,,,,,,,,,,,,,,,,,,,,,,,,,,,,,,,,,108,141802,21,Female,1,2024/03/20_15:38:18,YZ,None,
,,,,,,calibration,0,30,2,788,5,J,0,right,0.3057637519959826,1,0,,,,,,,,,,,,,,,,,,,,,1,,,,,,,,,,,,,,,,,,,,,,,,,,,,,,,,,,,,,,,,,,,,,,108,141802,21,Female,1,2024/03/20_15:38:18,YZ,None,
,,,,,,calibration,0,30,2,788,6,S,1,right,0.46474265499273315,0,0,,,,,,,,,,,,,,,,,,,,,1,,,,,,,,,,,,,,,,,,,,,,,,,,,,,,,,,,,,,,,,,,,,,,108,141802,21,Female,1,2024/03/20_15:38:18,YZ,None,
,,,,,,calibration,0,30,2,788,7,V,0,left,0.5618993550015148,0,0,,,,,,,,,,,,,,,,,,,,,1,,,,,,,,,,,,,,,,,,,,,,,,,,,,,,,,,,,,,,,,,,,,,,108,141802,21,Female,1,2024/03/20_15:38:18,YZ,None,
,,,,,,calibration,0,30,2,788,8,S,1,right,0.11395120099768974,0,0,,,,,,,,,,,,,,,,,,,,,1,,,,,,,,,,,,,,,,,,,,,,,,,,,,,,,,,,,,,,,,,,,,,,108,141802,21,Female,1,2024/03/20_15:38:18,YZ,None,
,,,,,,calibration,0,30,2,788,9,J,0,right,0.5896140640106751,1,0,,,,,,,,,,,,,,,,,,,,,1,,,,,,,,,,,,,,,,,,,,,,,,,,,,,,,,,,,,,,,,,,,,,,108,141802,21,Female,1,2024/03/20_15:38:18,YZ,None,
,,,,,,calibration,0,30,2,788,10,F,0,right,0.48136099499242846,1,0,,,,,,,,,,,,,,,,,,,,,1,,,,,,,,,,,,,,,,,,,,,,,,,,,,,,,,,,,,,,,,,,,,,,108,141802,21,Female,1,2024/03/20_15:38:18,YZ,None,
,,,,,,calibration,0,30,2,788,11,J,1,right,0.377850202989066,0,0,,,,,,,,,,,,,,,,,,,,,1,,,,,,,,,,,,,,,,,,,,,,,,,,,,,,,,,,,,,,,,,,,,,,108,141802,21,Female,1,2024/03/20_15:38:18,YZ,None,
,,,,,,calibration,0,30,2,788,12,Q,0,right,0.4406114459998207,1,0,,,,,,,,,,,,,,,,,,,,,1,,,,,,,,,,,,,,,,,,,,,,,,,,,,,,,,,,,,,,,,,,,,,,108,141802,21,Female,1,2024/03/20_15:38:18,YZ,None,
,,,,,,calibration,0,30,2,788,13,F,0,right,0.44898695999290794,1,0,,,,,,,,,,,,,,,,,,,,,1,,,,,,,,,,,,,,,,,,,,,,,,,,,,,,,,,,,,,,,,,,,,,,108,141802,21,Female,1,2024/03/20_15:38:18,YZ,None,
,,,,,,calibration,0,30,2,788,,,,,,,,0.6736111111111112,0.25,0.1111111111111111,0.8888888888888888,0.0,0.8888888888888888,0.3986453606138149,1,1,0,0,0,8,9,4,9,0,,,,1,,,,,,,,,,,,,,,,,,,,,,,,,,,,,,,,,,,,,,,,,,,,,,108,141802,21,Female,1,2024/03/20_15:38:18,YZ,None,
,,,,,,Calibration,0,,2,788,,,,,,,,,,,,,,,,,,,,,,,,,12,,,1,,,,,,,,,,,,,,,,,,,,,,,,,,,,,,,,,,,,,,,,,,,,,,108,141802,21,Female,1,2024/03/20_15:38:18,YZ,None,
,,,,,,calibration,0,10,2,917,1,C,0,right,0.22800308500882238,1,0,,,,,,,,,,,,,,,,,,,,,1,,,,,,,,,,,,,,,,,,,,,,,,,,,,,,,,,,,,,,,,,,,,,,108,141802,21,Female,1,2024/03/20_15:38:18,YZ,None,
,,,,,,calibration,0,10,2,917,2,J,0,right,0.1525110799993854,1,0,,,,,,,,,,,,,,,,,,,,,1,,,,,,,,,,,,,,,,,,,,,,,,,,,,,,,,,,,,,,,,,,,,,,108,141802,21,Female,1,2024/03/20_15:38:18,YZ,None,
,,,,,,calibration,0,10,2,917,3,X,0,right,0.29723436800122727,1,0,,,,,,,,,,,,,,,,,,,,,1,,,,,,,,,,,,,,,,,,,,,,,,,,,,,,,,,,,,,,,,,,,,,,108,141802,21,Female,1,2024/03/20_15:38:18,YZ,None,
,,,,,,calibration,0,10,2,917,4,N,0,right,0.3305615860008402,1,0,,,,,,,,,,,,,,,,,,,,,1,,,,,,,,,,,,,,,,,,,,,,,,,,,,,,,,,,,,,,,,,,,,,,108,141802,21,Female,1,2024/03/20_15:38:18,YZ,None,
,,,,,,calibration,0,10,2,917,5,C,0,left,0.5889253120112699,0,0,,,,,,,,,,,,,,,,,,,,,1,,,,,,,,,,,,,,,,,,,,,,,,,,,,,,,,,,,,,,,,,,,,,,108,141802,21,Female,1,2024/03/20_15:38:18,YZ,None,
,,,,,,calibration,0,10,2,917,6,N,1,right,0.4669641899963608,0,0,,,,,,,,,,,,,,,,,,,,,1,,,,,,,,,,,,,,,,,,,,,,,,,,,,,,,,,,,,,,,,,,,,,,108,141802,21,Female,1,2024/03/20_15:38:18,YZ,None,
,,,,,,calibration,0,10,2,917,7,Q,0,right,0.5118377759936266,1,0,,,,,,,,,,,,,,,,,,,,,1,,,,,,,,,,,,,,,,,,,,,,,,,,,,,,,,,,,,,,,,,,,,,,108,141802,21,Female,1,2024/03/20_15:38:18,YZ,None,
,,,,,,calibration,0,10,2,917,8,V,0,right,0.46612961500068195,1,0,,,,,,,,,,,,,,,,,,,,,1,,,,,,,,,,,,,,,,,,,,,,,,,,,,,,,,,,,,,,,,,,,,,,108,141802,21,Female,1,2024/03/20_15:38:18,YZ,None,
,,,,,,calibration,0,10,2,917,9,J,0,right,0.49383126199245453,1,0,,,,,,,,,,,,,,,,,,,,,1,,,,,,,,,,,,,,,,,,,,,,,,,,,,,,,,,,,,,,,,,,,,,,108,141802,21,Female,1,2024/03/20_15:38:18,YZ,None,
,,,,,,calibration,0,10,2,917,10,X,0,right,0.6458179199980805,1,0,,,,,,,,,,,,,,,,,,,,,1,,,,,,,,,,,,,,,,,,,,,,,,,,,,,,,,,,,,,,,,,,,,,,108,141802,21,Female,1,2024/03/20_15:38:18,YZ,None,
,,,,,,calibration,0,10,2,917,11,J,1,right,0.45474685200315434,0,0,,,,,,,,,,,,,,,,,,,,,1,,,,,,,,,,,,,,,,,,,,,,,,,,,,,,,,,,,,,,,,,,,,,,108,141802,21,Female,1,2024/03/20_15:38:18,YZ,None,
,,,,,,calibration,0,10,2,917,12,X,1,left,0.7268336030101636,1,0,,,,,,,,,,,,,,,,,,,,,1,,,,,,,,,,,,,,,,,,,,,,,,,,,,,,,,,,,,,,,,,,,,,,108,141802,21,Female,1,2024/03/20_15:38:18,YZ,None,
,,,,,,calibration,0,10,2,917,,,,,,,,0.7222222222222222,0.3333333333333333,0.1111111111111111,0.8888888888888888,0.0,0.8888888888888888,0.44694972075133893,1,1,0,0,0,8,9,3,9,0,,,,1,,,,,,,,,,,,,,,,,,,,,,,,,,,,,,,,,,,,,,,,,,,,,,108,141802,21,Female,1,2024/03/20_15:38:18,YZ,None,
,,,,,,Calibration,0,,2,917,,,,,,,,,,,,,,,,,,,,,,,,,13,,,1,,,,,,,,,,,,,,,,,,,,,,,,,,,,,,,,,,,,,,,,,,,,,,108,141802,21,Female,1,2024/03/20_15:38:18,YZ,None,
,,,,,,calibration,0,30,2,1068,1,J,0,right,0.33235083299223334,1,0,,,,,,,,,,,,,,,,,,,,,1,,,,,,,,,,,,,,,,,,,,,,,,,,,,,,,,,,,,,,,,,,,,,,108,141802,21,Female,1,2024/03/20_15:38:18,YZ,None,
,,,,,,calibration,0,30,2,1068,2,Q,0,right,0.2095196910086088,1,0,,,,,,,,,,,,,,,,,,,,,1,,,,,,,,,,,,,,,,,,,,,,,,,,,,,,,,,,,,,,,,,,,,,,108,141802,21,Female,1,2024/03/20_15:38:18,YZ,None,
,,,,,,calibration,0,30,2,1068,3,V,0,left,0.41951674201118294,0,0,,,,,,,,,,,,,,,,,,,,,1,,,,,,,,,,,,,,,,,,,,,,,,,,,,,,,,,,,,,,,,,,,,,,108,141802,21,Female,1,2024/03/20_15:38:18,YZ,None,
,,,,,,calibration,0,30,2,1068,4,X,0,right,0.1778768889926141,1,0,,,,,,,,,,,,,,,,,,,,,1,,,,,,,,,,,,,,,,,,,,,,,,,,,,,,,,,,,,,,,,,,,,,,108,141802,21,Female,1,2024/03/20_15:38:18,YZ,None,
,,,,,,calibration,0,30,2,1068,5,S,0,right,0.23384318299940787,1,0,,,,,,,,,,,,,,,,,,,,,1,,,,,,,,,,,,,,,,,,,,,,,,,,,,,,,,,,,,,,,,,,,,,,108,141802,21,Female,1,2024/03/20_15:38:18,YZ,None,
,,,,,,calibration,0,30,2,1068,6,X,1,right,0.24325772900192533,0,0,,,,,,,,,,,,,,,,,,,,,1,,,,,,,,,,,,,,,,,,,,,,,,,,,,,,,,,,,,,,,,,,,,,,108,141802,21,Female,1,2024/03/20_15:38:18,YZ,None,
,,,,,,calibration,0,30,2,1068,7,S,1,left,0.2668017909891205,1,0,,,,,,,,,,,,,,,,,,,,,1,,,,,,,,,,,,,,,,,,,,,,,,,,,,,,,,,,,,,,,,,,,,,,108,141802,21,Female,1,2024/03/20_15:38:18,YZ,None,
,,,,,,calibration,0,30,2,1068,8,N,0,left,0.2986000209930353,0,0,,,,,,,,,,,,,,,,,,,,,1,,,,,,,,,,,,,,,,,,,,,,,,,,,,,,,,,,,,,,,,,,,,,,108,141802,21,Female,1,2024/03/20_15:38:18,YZ,None,
,,,,,,calibration,0,30,2,1068,9,S,1,left,0.454567605003831,1,0,,,,,,,,,,,,,,,,,,,,,1,,,,,,,,,,,,,,,,,,,,,,,,,,,,,,,,,,,,,,,,,,,,,,108,141802,21,Female,1,2024/03/20_15:38:18,YZ,None,
,,,,,,calibration,0,30,2,1068,10,F,0,right,0.4012932960031321,1,0,,,,,,,,,,,,,,,,,,,,,1,,,,,,,,,,,,,,,,,,,,,,,,,,,,,,,,,,,,,,,,,,,,,,108,141802,21,Female,1,2024/03/20_15:38:18,YZ,None,
,,,,,,calibration,0,30,2,1068,11,C,0,right,0.2654667960014194,1,0,,,,,,,,,,,,,,,,,,,,,1,,,,,,,,,,,,,,,,,,,,,,,,,,,,,,,,,,,,,,,,,,,,,,108,141802,21,Female,1,2024/03/20_15:38:18,YZ,None,
,,,,,,calibration,0,30,2,1068,,,,,,,,0.7708333333333333,0.6666666666666666,0.25,0.75,0.0,0.75,0.30028132509059186,2,2,0,0,0,6,8,3,8,0,,,,1,,,,,,,,,,,,,,,,,,,,,,,,,,,,,,,,,,,,,,,,,,,,,,108,141802,21,Female,1,2024/03/20_15:38:18,YZ,None,
,,,,,,Calibration,0,,2,1068,,,,,,,,,,,,,,,,,,,,,,,,,14,,,1,,,,,,,,,,,,,,,,,,,,,,,,,,,,,,,,,,,,,,,,,,,,,,108,141802,21,Female,1,2024/03/20_15:38:18,YZ,None,
,,,,,,calibration,0,19,2,1068,1,S,0,right,0.47023675599484704,1,0,,,,,,,,,,,,,,,,,,,,,1,,,,,,,,,,,,,,,,,,,,,,,,,,,,,,,,,,,,,,,,,,,,,,108,141802,21,Female,1,2024/03/20_15:38:18,YZ,None,
,,,,,,calibration,0,19,2,1068,2,X,0,right,0.30119156900036614,1,0,,,,,,,,,,,,,,,,,,,,,1,,,,,,,,,,,,,,,,,,,,,,,,,,,,,,,,,,,,,,,,,,,,,,108,141802,21,Female,1,2024/03/20_15:38:18,YZ,None,
,,,,,,calibration,0,19,2,1068,3,C,0,right,0.41943075000017416,1,0,,,,,,,,,,,,,,,,,,,,,1,,,,,,,,,,,,,,,,,,,,,,,,,,,,,,,,,,,,,,,,,,,,,,108,141802,21,Female,1,2024/03/20_15:38:18,YZ,None,
,,,,,,calibration,0,19,2,1068,4,X,1,left,0.44594694300030824,1,0,,,,,,,,,,,,,,,,,,,,,1,,,,,,,,,,,,,,,,,,,,,,,,,,,,,,,,,,,,,,,,,,,,,,108,141802,21,Female,1,2024/03/20_15:38:18,YZ,None,
,,,,,,calibration,0,19,2,1068,5,S,0,left,0.647798744001193,0,0,,,,,,,,,,,,,,,,,,,,,1,,,,,,,,,,,,,,,,,,,,,,,,,,,,,,,,,,,,,,,,,,,,,,108,141802,21,Female,1,2024/03/20_15:38:18,YZ,None,
,,,,,,calibration,0,19,2,1068,6,V,0,right,0.46051767100289,1,0,,,,,,,,,,,,,,,,,,,,,1,,,,,,,,,,,,,,,,,,,,,,,,,,,,,,,,,,,,,,,,,,,,,,108,141802,21,Female,1,2024/03/20_15:38:18,YZ,None,
,,,,,,calibration,0,19,2,1068,7,N,0,left,0.7107127339986619,0,0,,,,,,,,,,,,,,,,,,,,,1,,,,,,,,,,,,,,,,,,,,,,,,,,,,,,,,,,,,,,,,,,,,,,108,141802,21,Female,1,2024/03/20_15:38:18,YZ,None,
,,,,,,calibration,0,19,2,1068,8,F,0,right,0.3920411779981805,1,0,,,,,,,,,,,,,,,,,,,,,1,,,,,,,,,,,,,,,,,,,,,,,,,,,,,,,,,,,,,,,,,,,,,,108,141802,21,Female,1,2024/03/20_15:38:18,YZ,None,
,,,,,,calibration,0,19,2,1068,9,S,0,right,0.4295074840047164,1,0,,,,,,,,,,,,,,,,,,,,,1,,,,,,,,,,,,,,,,,,,,,,,,,,,,,,,,,,,,,,,,,,,,,,108,141802,21,Female,1,2024/03/20_15:38:18,YZ,None,
,,,,,,calibration,0,19,2,1068,10,F,1,right,0.5233737220114563,0,0,,,,,,,,,,,,,,,,,,,,,1,,,,,,,,,,,,,,,,,,,,,,,,,,,,,,,,,,,,,,,,,,,,,,108,141802,21,Female,1,2024/03/20_15:38:18,YZ,None,
,,,,,,calibration,0,19,2,1068,11,S,1,right,0.5118970769981388,0,0,,,,,,,,,,,,,,,,,,,,,1,,,,,,,,,,,,,,,,,,,,,,,,,,,,,,,,,,,,,,,,,,,,,,108,141802,21,Female,1,2024/03/20_15:38:18,YZ,None,
,,,,,,calibration,0,19,2,1068,,,,,,,,0.5833333333333334,0.3333333333333333,0.25,0.75,0.0,0.75,0.4829686025464484,1,2,0,0,0,6,7,3,8,0,,,,1,,,,,,,,,,,,,,,,,,,,,,,,,,,,,,,,,,,,,,,,,,,,,,108,141802,21,Female,1,2024/03/20_15:38:18,YZ,None,
,,,,,,Calibration,0,,2,1068,,,,,,,,,,,,,,,,,,,,,,,,,15,,,1,,,,,,,,,,,,,,,,,,,,,,,,,,,,,,,,,,,,,,,,,,,,,,108,141802,21,Female,1,2024/03/20_15:38:18,YZ,None,
,,,,,,calibration,0,14,2,1250,1,Q,0,right,0.4097450730041601,1,0,,,,,,,,,,,,,,,,,,,,,1,,,,,,,,,,,,,,,,,,,,,,,,,,,,,,,,,,,,,,,,,,,,,,108,141802,21,Female,1,2024/03/20_15:38:18,YZ,None,
,,,,,,calibration,0,14,2,1250,2,F,0,right,0.40925592499843333,1,0,,,,,,,,,,,,,,,,,,,,,1,,,,,,,,,,,,,,,,,,,,,,,,,,,,,,,,,,,,,,,,,,,,,,108,141802,21,Female,1,2024/03/20_15:38:18,YZ,None,
,,,,,,calibration,0,14,2,1250,3,N,0,right,0.433682211994892,1,0,,,,,,,,,,,,,,,,,,,,,1,,,,,,,,,,,,,,,,,,,,,,,,,,,,,,,,,,,,,,,,,,,,,,108,141802,21,Female,1,2024/03/20_15:38:18,YZ,None,
,,,,,,calibration,0,14,2,1250,4,F,1,right,0.40532500100380275,0,0,,,,,,,,,,,,,,,,,,,,,1,,,,,,,,,,,,,,,,,,,,,,,,,,,,,,,,,,,,,,,,,,,,,,108,141802,21,Female,1,2024/03/20_15:38:18,YZ,None,
,,,,,,calibration,0,14,2,1250,5,S,0,right,0.3694622850016458,1,0,,,,,,,,,,,,,,,,,,,,,1,,,,,,,,,,,,,,,,,,,,,,,,,,,,,,,,,,,,,,,,,,,,,,108,141802,21,Female,1,2024/03/20_15:38:18,YZ,None,
,,,,,,calibration,0,14,2,1250,6,F,1,left,0.7303115070099011,1,0,,,,,,,,,,,,,,,,,,,,,1,,,,,,,,,,,,,,,,,,,,,,,,,,,,,,,,,,,,,,,,,,,,,,108,141802,21,Female,1,2024/03/20_15:38:18,YZ,None,
,,,,,,calibration,0,14,2,1250,7,S,1,left,0.487391179005499,1,0,,,,,,,,,,,,,,,,,,,,,1,,,,,,,,,,,,,,,,,,,,,,,,,,,,,,,,,,,,,,,,,,,,,,108,141802,21,Female,1,2024/03/20_15:38:18,YZ,None,
,,,,,,calibration,0,14,2,1250,8,J,0,right,0.5118149100017035,1,0,,,,,,,,,,,,,,,,,,,,,1,,,,,,,,,,,,,,,,,,,,,,,,,,,,,,,,,,,,,,,,,,,,,,108,141802,21,Female,1,2024/03/20_15:38:18,YZ,None,
,,,,,,calibration,0,14,2,1250,9,Q,0,right,0.632646318001207,1,0,,,,,,,,,,,,,,,,,,,,,1,,,,,,,,,,,,,,,,,,,,,,,,,,,,,,,,,,,,,,,,,,,,,,108,141802,21,Female,1,2024/03/20_15:38:18,YZ,None,
,,,,,,calibration,0,14,2,1250,10,N,0,right,0.7916167910007061,1,0,,,,,,,,,,,,,,,,,,,,,1,,,,,,,,,,,,,,,,,,,,,,,,,,,,,,,,,,,,,,,,,,,,,,108,141802,21,Female,1,2024/03/20_15:38:18,YZ,None,
,,,,,,calibration,0,14,2,1250,,,,,,,,0.9166666666666666,0.6666666666666666,0.0,1.0,0.0,1.0,0.518125120102195,2,0,0,0,0,7,9,3,7,0,,,,1,,,,,,,,,,,,,,,,,,,,,,,,,,,,,,,,,,,,,,,,,,,,,,108,141802,21,Female,1,2024/03/20_15:38:18,YZ,None,
,,,,,,Calibration,0,,2,1250,,,,,,,,,,,,,,,,,,,,,,,,,16,,,1,,,,,,,,,,,,,,,,,,,,,,,,,,,,,,,,,,,,,,,,,,,,,,108,141802,21,Female,1,2024/03/20_15:38:18,YZ,None,
,,,,,,CALIBRATION,0,,,,,,,,,,,,,,,,,,,,,,,,,,,,16,0.9166666666666666,1250,1,,,,,,,,,,,,,,,,,,,,,,,,,,,,,,,,,,,,,,,,,,,,,,108,141802,21,Female,1,2024/03/20_15:38:18,YZ,None,
1,./instructions/inst_prac_1/Slide24.png,right,66.1518527839944,462.63552606099984,528.7873788449942,,,,,,,,,,,,,,,,,,,,,,,,,,,,,,,,,1,,,,,,,,,,,,,,,,,,,,,,,,,,,,,,,,,,,,,,,,,,,,,,108,141802,21,Female,1,2024/03/20_15:38:18,YZ,None,
2,./instructions/inst_prac_1/Slide25.png,right,2.0751734570076223,528.8162499829923,530.8914234399999,,,,,,,,,,,,,,,,,,,,,,,,,,,,,,,,,1,,,,,,,,,,,,,,,,,,,,,,,,,,,,,,,,,,,,,,,,,,,,,,108,141802,21,Female,1,2024/03/20_15:38:18,YZ,None,
3,./instructions/inst_prac_1/Slide26.png,right,1.1561506849975558,530.9192411910044,532.075391876002,,,,,,,,,,,,,,,,,,,,,,,,,,,,,,,,,1,,,,,,,,,,,,,,,,,,,,,,,,,,,,,,,,,,,,,,,,,,,,,,108,141802,21,Female,1,2024/03/20_15:38:18,YZ,None,
4,./instructions/inst_prac_1/Slide27.png,right,0.8518487230030587,532.1034649450012,532.9553136680042,,,,,,,,,,,,,,,,,,,,,,,,,,,,,,,,,1,,,,,,,,,,,,,,,,,,,,,,,,,,,,,,,,,,,,,,,,,,,,,,108,141802,21,Female,1,2024/03/20_15:38:18,YZ,None,
3,./instructions/inst_prac_1/Slide28.png,left,0.515889423986664,532.9836293450062,533.4995187689929,,,,,,,,,,,,,,,,,,,,,,,,,,,,,,,,,1,,,,,,,,,,,,,,,,,,,,,,,,,,,,,,,,,,,,,,,,,,,,,,108,141802,21,Female,1,2024/03/20_15:38:18,YZ,None,
4,./instructions/inst_prac_1/Slide27.png,right,2.563603646005504,533.5277953019977,536.0913989480032,,,,,,,,,,,,,,,,,,,,,,,,,,,,,,,,,1,,,,,,,,,,,,,,,,,,,,,,,,,,,,,,,,,,,,,,,,,,,,,,108,141802,21,Female,1,2024/03/20_15:38:18,YZ,None,
5,./instructions/inst_prac_1/Slide28.png,right,0.4196602619922487,536.1196931570012,536.5393534189934,,,,,,,,,,,,,,,,,,,,,,,,,,,,,,,,,1,,,,,,,,,,,,,,,,,,,,,,,,,,,,,,,,,,,,,,,,,,,,,,108,141802,21,Female,1,2024/03/20_15:38:18,YZ,None,
6,./instructions/inst_prac_1/Slide29.png,right,2.187650471998495,536.5676349910063,538.7552854630048,,,,,,,,,,,,,,,,,,,,,,,,,,,,,,,,,1,,,,,,,,,,,,,,,,,,,,,,,,,,,,,,,,,,,,,,,,,,,,,,108,141802,21,Female,1,2024/03/20_15:38:18,YZ,None,
7,./instructions/inst_prac_1/Slide30.png,right,7.235424861006322,538.7841485190002,546.0195733800065,,,,,,,,,,,,,,,,,,,,,,,,,,,,,,,,,1,,,,,,,,,,,,,,,,,,,,,,,,,,,,,,,,,,,,,,,,,,,,,,108,141802,21,Female,1,2024/03/20_15:38:18,YZ,None,
,,,,,,practice,0,34,1,1250,1,F,0,right,1.0617178730026353,1,0,,,,,,,,,,,,,,,,,,,,,1,,,,,,,,,,,,,,,,,,,,,,,,,,,,,,,,,,,,,,,,,,,,,,108,141802,21,Female,1,2024/03/20_15:38:18,YZ,None,
,,,,,,practice,0,34,1,1250,2,F,1,left,0.8534257370047271,1,0,,,,,,,,,,,,,,,,,,,,,1,,,,,,,,,,,,,,,,,,,,,,,,,,,,,,,,,,,,,,,,,,,,,,108,141802,21,Female,1,2024/03/20_15:38:18,YZ,None,
,,,,,,practice,0,34,1,1250,3,C,0,right,0.8469566340063466,1,0,,,,,,,,,,,,,,,,,,,,,1,,,,,,,,,,,,,,,,,,,,,,,,,,,,,,,,,,,,,,,,,,,,,,108,141802,21,Female,1,2024/03/20_15:38:18,YZ,None,
,,,,,,practice,0,34,1,1250,4,F,0,right,1.2933649259939557,1,0,,,,,,,,,,,,,,,,,,,,,1,,,,,,,,,,,,,,,,,,,,,,,,,,,,,,,,,,,,,,,,,,,,,,108,141802,21,Female,1,2024/03/20_15:38:18,YZ,None,
,,,,,,practice,0,34,1,1250,5,C,0,right,1.9215860900003463,1,0,,,,,,,,,,,,,,,,,,,,,1,,,,,,,,,,,,,,,,,,,,,,,,,,,,,,,,,,,,,,,,,,,,,,108,141802,21,Female,1,2024/03/20_15:38:18,YZ,None,
,,,,,,practice,0,34,1,1250,6,C,1,left,0.768996711994987,1,0,,,,,,,,,,,,,,,,,,,,,1,,,,,,,,,,,,,,,,,,,,,,,,,,,,,,,,,,,,,,,,,,,,,,108,141802,21,Female,1,2024/03/20_15:38:18,YZ,None,
,,,,,,practice,0,34,1,1250,7,N,0,right,0.7911444630008191,1,0,,,,,,,,,,,,,,,,,,,,,1,,,,,,,,,,,,,,,,,,,,,,,,,,,,,,,,,,,,,,,,,,,,,,108,141802,21,Female,1,2024/03/20_15:38:18,YZ,None,
,,,,,,practice,0,34,1,1250,8,C,0,right,1.7759753959981026,1,0,,,,,,,,,,,,,,,,,,,,,1,,,,,,,,,,,,,,,,,,,,,,,,,,,,,,,,,,,,,,,,,,,,,,108,141802,21,Female,1,2024/03/20_15:38:18,YZ,None,
,,,,,,practice,0,34,1,1250,9,V,0,right,0.7100466239935486,1,0,,,,,,,,,,,,,,,,,,,,,1,,,,,,,,,,,,,,,,,,,,,,,,,,,,,,,,,,,,,,,,,,,,,,108,141802,21,Female,1,2024/03/20_15:38:18,YZ,None,
,,,,,,practice,0,34,1,1250,10,V,1,left,0.7373338680044981,1,0,,,,,,,,,,,,,,,,,,,,,1,,,,,,,,,,,,,,,,,,,,,,,,,,,,,,,,,,,,,,,,,,,,,,108,141802,21,Female,1,2024/03/20_15:38:18,YZ,None,
,,,,,,practice,0,34,1,1250,,,,,,,,1.0,1.0,0.0,1.0,0.0,1.0,1.0760548322999965,3,0,0,0,0,7,10,3,7,0,,,,1,,,,,,,,,,,,,,,,,,,,,,,,,,,,,,,,,,,,,,,,,,,,,,108,141802,21,Female,1,2024/03/20_15:38:18,YZ,None,
1,./instructions/inst_prac_1_next/Slide35.png,right,2.2435975429980317,567.2957575570035,569.5393551000016,,,,,,,,,,,,,,,,,,,,,,,,,,,,,,,,,1,,,,,,,,,,,,,,,,,,,,,,,,,,,,,,,,,,,,,,,,,,,,,,108,141802,21,Female,1,2024/03/20_15:38:18,YZ,None,
,,,,,,practice,0,32,1,1250,1,J,0,right,1.112131888003205,1,0,,,,,,,,,,,,,,,,,,,,,1,,,,,,,,,,,,,,,,,,,,,,,,,,,,,,,,,,,,,,,,,,,,,,108,141802,21,Female,1,2024/03/20_15:38:18,YZ,None,
,,,,,,practice,0,32,1,1250,2,J,1,left,0.8372254630085081,1,0,,,,,,,,,,,,,,,,,,,,,1,,,,,,,,,,,,,,,,,,,,,,,,,,,,,,,,,,,,,,,,,,,,,,108,141802,21,Female,1,2024/03/20_15:38:18,YZ,None,
,,,,,,practice,0,32,1,1250,3,V,0,right,0.5688771400018595,1,0,,,,,,,,,,,,,,,,,,,,,1,,,,,,,,,,,,,,,,,,,,,,,,,,,,,,,,,,,,,,,,,,,,,,108,141802,21,Female,1,2024/03/20_15:38:18,YZ,None,
,,,,,,practice,0,32,1,1250,4,V,1,left,0.9011857279983815,1,0,,,,,,,,,,,,,,,,,,,,,1,,,,,,,,,,,,,,,,,,,,,,,,,,,,,,,,,,,,,,,,,,,,,,108,141802,21,Female,1,2024/03/20_15:38:18,YZ,None,
,,,,,,practice,0,32,1,1250,5,Q,0,right,0.4560102910036221,1,0,,,,,,,,,,,,,,,,,,,,,1,,,,,,,,,,,,,,,,,,,,,,,,,,,,,,,,,,,,,,,,,,,,,,108,141802,21,Female,1,2024/03/20_15:38:18,YZ,None,
,,,,,,practice,0,32,1,1250,6,V,0,left,0.5205482040037168,0,0,,,,,,,,,,,,,,,,,,,,,1,,,,,,,,,,,,,,,,,,,,,,,,,,,,,,,,,,,,,,,,,,,,,,108,141802,21,Female,1,2024/03/20_15:38:18,YZ,None,
,,,,,,practice,0,32,1,1250,7,S,0,right,0.6806174279918196,1,0,,,,,,,,,,,,,,,,,,,,,1,,,,,,,,,,,,,,,,,,,,,,,,,,,,,,,,,,,,,,,,,,,,,,108,141802,21,Female,1,2024/03/20_15:38:18,YZ,None,
,,,,,,practice,0,32,1,1250,8,F,0,right,0.4366882359900046,1,0,,,,,,,,,,,,,,,,,,,,,1,,,,,,,,,,,,,,,,,,,,,,,,,,,,,,,,,,,,,,,,,,,,,,108,141802,21,Female,1,2024/03/20_15:38:18,YZ,None,
,,,,,,practice,0,32,1,1250,9,F,1,left,0.608497888999409,1,0,,,,,,,,,,,,,,,,,,,,,1,,,,,,,,,,,,,,,,,,,,,,,,,,,,,,,,,,,,,,,,,,,,,,108,141802,21,Female,1,2024/03/20_15:38:18,YZ,None,
,,,,,,practice,0,32,1,1250,10,S,0,right,0.5534869740076829,1,0,,,,,,,,,,,,,,,,,,,,,1,,,,,,,,,,,,,,,,,,,,,,,,,,,,,,,,,,,,,,,,,,,,,,108,141802,21,Female,1,2024/03/20_15:38:18,YZ,None,
,,,,,,practice,0,32,1,1250,,,,,,,,0.9642857142857143,1.0,0.14285714285714285,0.8571428571428571,0.0,0.8571428571428572,0.6675269241008209,3,1,0,0,0,6,9,3,7,0,,,,1,,,,,,,,,,,,,,,,,,,,,,,,,,,,,,,,,,,,,,,,,,,,,,108,141802,21,Female,1,2024/03/20_15:38:18,YZ,None,
,,,,,,practice,0,36,1,1250,1,C,0,right,0.6887466960033635,1,0,,,,,,,,,,,,,,,,,,,,,1,,,,,,,,,,,,,,,,,,,,,,,,,,,,,,,,,,,,,,,,,,,,,,108,141802,21,Female,1,2024/03/20_15:38:18,YZ,None,
,,,,,,practice,0,36,1,1250,2,F,0,right,0.48231576998659875,1,0,,,,,,,,,,,,,,,,,,,,,1,,,,,,,,,,,,,,,,,,,,,,,,,,,,,,,,,,,,,,,,,,,,,,108,141802,21,Female,1,2024/03/20_15:38:18,YZ,None,
,,,,,,practice,0,36,1,1250,3,F,1,left,0.5636980449926341,1,0,,,,,,,,,,,,,,,,,,,,,1,,,,,,,,,,,,,,,,,,,,,,,,,,,,,,,,,,,,,,,,,,,,,,108,141802,21,Female,1,2024/03/20_15:38:18,YZ,None,
,,,,,,practice,0,36,1,1250,4,Q,0,right,0.4005684080038918,1,0,,,,,,,,,,,,,,,,,,,,,1,,,,,,,,,,,,,,,,,,,,,,,,,,,,,,,,,,,,,,,,,,,,,,108,141802,21,Female,1,2024/03/20_15:38:18,YZ,None,
,,,,,,practice,0,36,1,1250,5,Q,1,right,0.6934206580044702,0,0,,,,,,,,,,,,,,,,,,,,,1,,,,,,,,,,,,,,,,,,,,,,,,,,,,,,,,,,,,,,,,,,,,,,108,141802,21,Female,1,2024/03/20_15:38:18,YZ,None,
,,,,,,practice,0,36,1,1250,6,X,0,right,0.5340900620067259,1,0,,,,,,,,,,,,,,,,,,,,,1,,,,,,,,,,,,,,,,,,,,,,,,,,,,,,,,,,,,,,,,,,,,,,108,141802,21,Female,1,2024/03/20_15:38:18,YZ,None,
,,,,,,practice,0,36,1,1250,7,V,0,right,0.5220643859938718,1,0,,,,,,,,,,,,,,,,,,,,,1,,,,,,,,,,,,,,,,,,,,,,,,,,,,,,,,,,,,,,,,,,,,,,108,141802,21,Female,1,2024/03/20_15:38:18,YZ,None,
,,,,,,practice,0,36,1,1250,8,V,1,left,0.5092988469987176,1,0,,,,,,,,,,,,,,,,,,,,,1,,,,,,,,,,,,,,,,,,,,,,,,,,,,,,,,,,,,,,,,,,,,,,108,141802,21,Female,1,2024/03/20_15:38:18,YZ,None,
,,,,,,practice,0,36,1,1250,9,X,0,right,0.43724110499897506,1,0,,,,,,,,,,,,,,,,,,,,,1,,,,,,,,,,,,,,,,,,,,,,,,,,,,,,,,,,,,,,,,,,,,,,108,141802,21,Female,1,2024/03/20_15:38:18,YZ,None,
,,,,,,practice,0,36,1,1250,10,V,0,right,0.4883639579929877,1,0,,,,,,,,,,,,,,,,,,,,,1,,,,,,,,,,,,,,,,,,,,,,,,,,,,,,,,,,,,,,,,,,,,,,108,141802,21,Female,1,2024/03/20_15:38:18,YZ,None,
,,,,,,practice,0,36,1,1250,,,,,,,,0.9166666666666666,0.6666666666666666,0.0,1.0,0.0,1.0,0.5319807934982237,2,0,0,0,0,7,9,3,7,0,,,,1,,,,,,,,,,,,,,,,,,,,,,,,,,,,,,,,,,,,,,,,,,,,,,108,141802,21,Female,1,2024/03/20_15:38:18,YZ,None,
1,./instructions/inst_prac_3/Slide37.png,right,24.73821922899515,596.1132386130048,620.851457842,,,,,,,,,,,,,,,,,,,,,,,,,,,,,,,,,1,,,,,,,,,,,,,,,,,,,,,,,,,,,,,,,,,,,,,,,,,,,,,,108,141802,21,Female,1,2024/03/20_15:38:18,YZ,None,
2,./instructions/inst_prac_3/Slide38.png,right,1.7871285129949683,620.8802022059972,622.6673307189922,,,,,,,,,,,,,,,,,,,,,,,,,,,,,,,,,1,,,,,,,,,,,,,,,,,,,,,,,,,,,,,,,,,,,,,,,,,,,,,,108,141802,21,Female,1,2024/03/20_15:38:18,YZ,None,
3,./instructions/inst_prac_3/Slide39.png,right,0.4032572879950749,622.6960419560055,623.0992992440006,,,,,,,,,,,,,,,,,,,,,,,,,,,,,,,,,1,,,,,,,,,,,,,,,,,,,,,,,,,,,,,,,,,,,,,,,,,,,,,,108,141802,21,Female,1,2024/03/20_15:38:18,YZ,None,
4,./instructions/inst_prac_3/Slide40.png,right,0.491571954000392,623.1278039229946,623.619375876995,,,,,,,,,,,,,,,,,,,,,,,,,,,,,,,,,1,,,,,,,,,,,,,,,,,,,,,,,,,,,,,,,,,,,,,,,,,,,,,,108,141802,21,Female,1,2024/03/20_15:38:18,YZ,None,
5,./instructions/inst_prac_3/Slide41.png,right,0.8836842649907339,623.6477018190053,624.531386083996,,,,,,,,,,,,,,,,,,,,,,,,,,,,,,,,,1,,,,,,,,,,,,,,,,,,,,,,,,,,,,,,,,,,,,,,,,,,,,,,108,141802,21,Female,1,2024/03/20_15:38:18,YZ,None,
6,./instructions/inst_prac_3/Slide42.png,right,0.45143087999895215,624.5599102749984,625.0113411549974,,,,,,,,,,,,,,,,,,,,,,,,,,,,,,,,,1,,,,,,,,,,,,,,,,,,,,,,,,,,,,,,,,,,,,,,,,,,,,,,108,141802,21,Female,1,2024/03/20_15:38:18,YZ,None,
7,./instructions/inst_prac_3/Slide43.png,right,3.4212533829995664,625.0380720950052,628.4593254780048,,,,,,,,,,,,,,,,,,,,,,,,,,,,,,,,,1,,,,,,,,,,,,,,,,,,,,,,,,,,,,,,,,,,,,,,,,,,,,,,108,141802,21,Female,1,2024/03/20_15:38:18,YZ,None,
8,./instructions/inst_prac_3/Slide44.png,right,2.1074371750000864,628.4879611539945,630.5953983289946,,,,,,,,,,,,,,,,,,,,,,,,,,,,,,,,,1,,,,,,,,,,,,,,,,,,,,,,,,,,,,,,,,,,,,,,,,,,,,,,108,141802,21,Female,1,2024/03/20_15:38:18,YZ,None,
,,,,,,practice,0,25,3,788,1,C,0,right,0.8513678180024726,1,0,,,,,,,,,,,,,,,,,,,,,1,,,,,,,,,,,,,,,,,,,,,,,,,,,,,,,,,,,,,,,,,,,,,,108,141802,21,Female,1,2024/03/20_15:38:18,YZ,None,
,,,,,,practice,0,25,3,788,2,Q,0,right,0.5699070389964618,1,0,,,,,,,,,,,,,,,,,,,,,1,,,,,,,,,,,,,,,,,,,,,,,,,,,,,,,,,,,,,,,,,,,,,,108,141802,21,Female,1,2024/03/20_15:38:18,YZ,None,
,,,,,,practice,0,25,3,788,3,S,0,right,0.7524107709905365,1,0,,,,,,,,,,,,,,,,,,,,,1,,,,,,,,,,,,,,,,,,,,,,,,,,,,,,,,,,,,,,,,,,,,,,108,141802,21,Female,1,2024/03/20_15:38:18,YZ,None,
,,,,,,practice,0,25,3,788,4,F,0,right,0.495114999008365,1,0,,,,,,,,,,,,,,,,,,,,,1,,,,,,,,,,,,,,,,,,,,,,,,,,,,,,,,,,,,,,,,,,,,,,108,141802,21,Female,1,2024/03/20_15:38:18,YZ,None,
,,,,,,practice,0,25,3,788,5,Q,1,left,0.9575947489938699,1,0,,,,,,,,,,,,,,,,,,,,,1,,,,,,,,,,,,,,,,,,,,,,,,,,,,,,,,,,,,,,,,,,,,,,108,141802,21,Female,1,2024/03/20_15:38:18,YZ,None,
,,,,,,practice,0,25,3,788,6,S,1,left,0.8548838749993593,1,0,,,,,,,,,,,,,,,,,,,,,1,,,,,,,,,,,,,,,,,,,,,,,,,,,,,,,,,,,,,,,,,,,,,,108,141802,21,Female,1,2024/03/20_15:38:18,YZ,None,
,,,,,,practice,0,25,3,788,7,J,0,right,0.6406670750002377,1,0,,,,,,,,,,,,,,,,,,,,,1,,,,,,,,,,,,,,,,,,,,,,,,,,,,,,,,,,,,,,,,,,,,,,108,141802,21,Female,1,2024/03/20_15:38:18,YZ,None,
,,,,,,practice,0,25,3,788,8,Q,1,left,0.806447141992976,1,0,,,,,,,,,,,,,,,,,,,,,1,,,,,,,,,,,,,,,,,,,,,,,,,,,,,,,,,,,,,,,,,,,,,,108,141802,21,Female,1,2024/03/20_15:38:18,YZ,None,
,,,,,,practice,0,25,3,788,9,X,0,right,0.9257222879969049,1,0,,,,,,,,,,,,,,,,,,,,,1,,,,,,,,,,,,,,,,,,,,,,,,,,,,,,,,,,,,,,,,,,,,,,108,141802,21,Female,1,2024/03/20_15:38:18,YZ,None,
,,,,,,practice,0,25,3,788,10,J,1,right,0.8884079330018722,0,0,,,,,,,,,,,,,,,,,,,,,1,,,,,,,,,,,,,,,,,,,,,,,,,,,,,,,,,,,,,,,,,,,,,,108,141802,21,Female,1,2024/03/20_15:38:18,YZ,None,
,,,,,,practice,0,25,3,788,11,S,0,right,0.9247541829972761,1,0,,,,,,,,,,,,,,,,,,,,,1,,,,,,,,,,,,,,,,,,,,,,,,,,,,,,,,,,,,,,,,,,,,,,108,141802,21,Female,1,2024/03/20_15:38:18,YZ,None,
,,,,,,practice,0,25,3,788,12,V,0,right,0.668159958004253,1,0,,,,,,,,,,,,,,,,,,,,,1,,,,,,,,,,,,,,,,,,,,,,,,,,,,,,,,,,,,,,,,,,,,,,108,141802,21,Female,1,2024/03/20_15:38:18,YZ,None,
,,,,,,practice,0,25,3,788,13,V,0,right,0.7823582370037911,1,0,,,,,,,,,,,,,,,,,,,,,1,,,,,,,,,,,,,,,,,,,,,,,,,,,,,,,,,,,,,,,,,,,,,,108,141802,21,Female,1,2024/03/20_15:38:18,YZ,None,
,,,,,,practice,0,25,3,788,,,,,,,,0.9375,0.75,0.0,1.0,0.0,1.0,0.778292005152952,3,0,0,0,0,9,12,4,9,0,,,,1,,,,,,,,,,,,,,,,,,,,,,,,,,,,,,,,,,,,,,,,,,,,,,108,141802,21,Female,1,2024/03/20_15:38:18,YZ,None,
-1,./instructions/inst_prac_3_next/Slide49.png,left,4.042196817987133,654.889101534005,658.9312983519922,,,,,,,,,,,,,,,,,,,,,,,,,,,,,,,,,1,,,,,,,,,,,,,,,,,,,,,,,,,,,,,,,,,,,,,,,,,,,,,,108,141802,21,Female,1,2024/03/20_15:38:18,YZ,None,
,,,,,,practice,0,36,3,1250,1,F,0,right,1.1569291949999752,1,0,,,,,,,,,,,,,,,,,,,,,1,,,,,,,,,,,,,,,,,,,,,,,,,,,,,,,,,,,,,,,,,,,,,,108,141802,21,Female,1,2024/03/20_15:38:18,YZ,None,
,,,,,,practice,0,36,3,1250,2,V,0,right,0.6873245009919629,1,0,,,,,,,,,,,,,,,,,,,,,1,,,,,,,,,,,,,,,,,,,,,,,,,,,,,,,,,,,,,,,,,,,,,,108,141802,21,Female,1,2024/03/20_15:38:18,YZ,None,
,,,,,,practice,0,36,3,1250,3,X,0,right,0.5443355750030605,1,0,,,,,,,,,,,,,,,,,,,,,1,,,,,,,,,,,,,,,,,,,,,,,,,,,,,,,,,,,,,,,,,,,,,,108,141802,21,Female,1,2024/03/20_15:38:18,YZ,None,
,,,,,,practice,0,36,3,1250,4,V,0,right,0.5260043770103948,1,0,,,,,,,,,,,,,,,,,,,,,1,,,,,,,,,,,,,,,,,,,,,,,,,,,,,,,,,,,,,,,,,,,,,,108,141802,21,Female,1,2024/03/20_15:38:18,YZ,None,
,,,,,,practice,0,36,3,1250,5,V,1,left,0.7112456539907726,1,0,,,,,,,,,,,,,,,,,,,,,1,,,,,,,,,,,,,,,,,,,,,,,,,,,,,,,,,,,,,,,,,,,,,,108,141802,21,Female,1,2024/03/20_15:38:18,YZ,None,
,,,,,,practice,0,36,3,1250,6,S,0,right,1.2779030870005954,1,0,,,,,,,,,,,,,,,,,,,,,1,,,,,,,,,,,,,,,,,,,,,,,,,,,,,,,,,,,,,,,,,,,,,,108,141802,21,Female,1,2024/03/20_15:38:18,YZ,None,
,,,,,,practice,0,36,3,1250,7,V,1,left,0.6708197219995782,1,0,,,,,,,,,,,,,,,,,,,,,1,,,,,,,,,,,,,,,,,,,,,,,,,,,,,,,,,,,,,,,,,,,,,,108,141802,21,Female,1,2024/03/20_15:38:18,YZ,None,
,,,,,,practice,0,36,3,1250,8,X,0,right,0.7577412109967554,1,0,,,,,,,,,,,,,,,,,,,,,1,,,,,,,,,,,,,,,,,,,,,,,,,,,,,,,,,,,,,,,,,,,,,,108,141802,21,Female,1,2024/03/20_15:38:18,YZ,None,
,,,,,,practice,0,36,3,1250,9,S,1,left,0.6698456410085782,1,0,,,,,,,,,,,,,,,,,,,,,1,,,,,,,,,,,,,,,,,,,,,,,,,,,,,,,,,,,,,,,,,,,,,,108,141802,21,Female,1,2024/03/20_15:38:18,YZ,None,
,,,,,,practice,0,36,3,1250,10,S,0,right,1.0716180190065643,1,0,,,,,,,,,,,,,,,,,,,,,1,,,,,,,,,,,,,,,,,,,,,,,,,,,,,,,,,,,,,,,,,,,,,,108,141802,21,Female,1,2024/03/20_15:38:18,YZ,None,
,,,,,,practice,0,36,3,1250,,,,,,,,1.0,1.0,0.0,1.0,0.0,1.0,0.8073766982008237,3,0,0,0,0,7,10,3,7,0,,,,1,,,,,,,,,,,,,,,,,,,,,,,,,,,,,,,,,,,,,,,,,,,,,,108,141802,21,Female,1,2024/03/20_15:38:18,YZ,None,
1,./instructions/inst_prac_3_next/Slide49.png,right,20.33968399000878,678.5435283849947,698.8832123750035,,,,,,,,,,,,,,,,,,,,,,,,,,,,,,,,,1,,,,,,,,,,,,,,,,,,,,,,,,,,,,,,,,,,,,,,,,,,,,,,108,141802,21,Female,1,2024/03/20_15:38:18,YZ,None,
,,,,,,practice,0,33,3,1250,1,J,0,right,0.6636820910061942,1,0,,,,,,,,,,,,,,,,,,,,,1,,,,,,,,,,,,,,,,,,,,,,,,,,,,,,,,,,,,,,,,,,,,,,108,141802,21,Female,1,2024/03/20_15:38:18,YZ,None,
,,,,,,practice,0,33,3,1250,2,C,0,right,0.5165866850002203,1,0,,,,,,,,,,,,,,,,,,,,,1,,,,,,,,,,,,,,,,,,,,,,,,,,,,,,,,,,,,,,,,,,,,,,108,141802,21,Female,1,2024/03/20_15:38:18,YZ,None,
,,,,,,practice,0,33,3,1250,3,F,0,right,0.5055122040066635,1,0,,,,,,,,,,,,,,,,,,,,,1,,,,,,,,,,,,,,,,,,,,,,,,,,,,,,,,,,,,,,,,,,,,,,108,141802,21,Female,1,2024/03/20_15:38:18,YZ,None,
,,,,,,practice,0,33,3,1250,4,J,1,left,0.45084009000856895,1,0,,,,,,,,,,,,,,,,,,,,,1,,,,,,,,,,,,,,,,,,,,,,,,,,,,,,,,,,,,,,,,,,,,,,108,141802,21,Female,1,2024/03/20_15:38:18,YZ,None,
,,,,,,practice,0,33,3,1250,5,X,0,right,0.4340556139941327,1,0,,,,,,,,,,,,,,,,,,,,,1,,,,,,,,,,,,,,,,,,,,,,,,,,,,,,,,,,,,,,,,,,,,,,108,141802,21,Female,1,2024/03/20_15:38:18,YZ,None,
,,,,,,practice,0,33,3,1250,6,F,1,right,0.4959369569987757,0,0,,,,,,,,,,,,,,,,,,,,,1,,,,,,,,,,,,,,,,,,,,,,,,,,,,,,,,,,,,,,,,,,,,,,108,141802,21,Female,1,2024/03/20_15:38:18,YZ,None,
,,,,,,practice,0,33,3,1250,7,X,0,right,0.7615351470012683,1,0,,,,,,,,,,,,,,,,,,,,,1,,,,,,,,,,,,,,,,,,,,,,,,,,,,,,,,,,,,,,,,,,,,,,108,141802,21,Female,1,2024/03/20_15:38:18,YZ,None,
,,,,,,practice,0,33,3,1250,8,Q,0,left,0.7094928250007797,0,0,,,,,,,,,,,,,,,,,,,,,1,,,,,,,,,,,,,,,,,,,,,,,,,,,,,,,,,,,,,,,,,,,,,,108,141802,21,Female,1,2024/03/20_15:38:18,YZ,None,
,,,,,,practice,0,33,3,1250,9,F,1,right,0.0,0,0,,,,,,,,,,,,,,,,,,,,,1,,,,,,,,,,,,,,,,,,,,,,,,,,,,,,,,,,,,,,,,,,,,,,108,141802,21,Female,1,2024/03/20_15:38:18,YZ,None,
,,,,,,practice,0,33,3,1250,10,N,0,right,0.8090632579987869,1,0,,,,,,,,,,,,,,,,,,,,,1,,,,,,,,,,,,,,,,,,,,,,,,,,,,,,,,,,,,,,,,,,,,,,108,141802,21,Female,1,2024/03/20_15:38:18,YZ,None,
,,,,,,practice,0,33,3,1250,,,,,,,,0.6904761904761906,0.3333333333333333,0.14285714285714285,0.8571428571428571,0.0,0.8571428571428572,0.5346704871015391,1,1,0,0,0,6,7,3,7,0,,,,1,,,,,,,,,,,,,,,,,,,,,,,,,,,,,,,,,,,,,,,,,,,,,,108,141802,21,Female,1,2024/03/20_15:38:18,YZ,None,
,,,,,,practice,0,12,3,1250,1,J,0,right,0.6084551160020055,1,0,,,,,,,,,,,,,,,,,,,,,1,,,,,,,,,,,,,,,,,,,,,,,,,,,,,,,,,,,,,,,,,,,,,,108,141802,21,Female,1,2024/03/20_15:38:18,YZ,None,
,,,,,,practice,0,12,3,1250,2,N,0,right,0.4772849680011859,1,0,,,,,,,,,,,,,,,,,,,,,1,,,,,,,,,,,,,,,,,,,,,,,,,,,,,,,,,,,,,,,,,,,,,,108,141802,21,Female,1,2024/03/20_15:38:18,YZ,None,
,,,,,,practice,0,12,3,1250,3,Q,0,right,0.4105845370067982,1,0,,,,,,,,,,,,,,,,,,,,,1,,,,,,,,,,,,,,,,,,,,,,,,,,,,,,,,,,,,,,,,,,,,,,108,141802,21,Female,1,2024/03/20_15:38:18,YZ,None,
,,,,,,practice,0,12,3,1250,4,V,0,right,0.4690644410002278,1,0,,,,,,,,,,,,,,,,,,,,,1,,,,,,,,,,,,,,,,,,,,,,,,,,,,,,,,,,,,,,,,,,,,,,108,141802,21,Female,1,2024/03/20_15:38:18,YZ,None,
,,,,,,practice,0,12,3,1250,5,J,0,left,0.6164727510040393,0,0,,,,,,,,,,,,,,,,,,,,,1,,,,,,,,,,,,,,,,,,,,,,,,,,,,,,,,,,,,,,,,,,,,,,108,141802,21,Female,1,2024/03/20_15:38:18,YZ,None,
,,,,,,practice,0,12,3,1250,6,Q,1,right,0.45379999600118026,0,0,,,,,,,,,,,,,,,,,,,,,1,,,,,,,,,,,,,,,,,,,,,,,,,,,,,,,,,,,,,,,,,,,,,,108,141802,21,Female,1,2024/03/20_15:38:18,YZ,None,
,,,,,,practice,0,12,3,1250,7,J,0,left,0.6243120349972742,0,0,,,,,,,,,,,,,,,,,,,,,1,,,,,,,,,,,,,,,,,,,,,,,,,,,,,,,,,,,,,,,,,,,,,,108,141802,21,Female,1,2024/03/20_15:38:18,YZ,None,
,,,,,,practice,0,12,3,1250,8,C,0,right,0.48053950899338815,1,0,,,,,,,,,,,,,,,,,,,,,1,,,,,,,,,,,,,,,,,,,,,,,,,,,,,,,,,,,,,,,,,,,,,,108,141802,21,Female,1,2024/03/20_15:38:18,YZ,None,
,,,,,,practice,0,12,3,1250,9,Q,1,left,0.7970671340008266,1,0,,,,,,,,,,,,,,,,,,,,,1,,,,,,,,,,,,,,,,,,,,,,,,,,,,,,,,,,,,,,,,,,,,,,108,141802,21,Female,1,2024/03/20_15:38:18,YZ,None,
,,,,,,practice,0,12,3,1250,10,J,1,right,0.38723180298984516,0,0,,,,,,,,,,,,,,,,,,,,,1,,,,,,,,,,,,,,,,,,,,,,,,,,,,,,,,,,,,,,,,,,,,,,108,141802,21,Female,1,2024/03/20_15:38:18,YZ,None,
,,,,,,practice,0,12,3,1250,,,,,,,,0.5476190476190476,0.3333333333333333,0.2857142857142857,0.7142857142857143,0.0,0.7142857142857143,0.5324812289996771,1,2,0,0,0,5,6,3,7,0,,,,1,,,,,,,,,,,,,,,,,,,,,,,,,,,,,,,,,,,,,,,,,,,,,,108,141802,21,Female,1,2024/03/20_15:38:18,YZ,None,
1,./instructions/inst_redo_3/Slide47.png,right,8.852088448998984,722.615295088006,731.4673835370049,,,,,,,,,,,,,,,,,,,,,,,,,,,,,,,,,1,,,,,,,,,,,,,,,,,,,,,,,,,,,,,,,,,,,,,,,,,,,,,,108,141802,21,Female,1,2024/03/20_15:38:18,YZ,None,
,,,,,,practice,0,24,3,1250,1,C,0,right,0.49915567100106273,1,0,,,,,,,,,,,,,,,,,,,,,1,,,,,,,,,,,,,,,,,,,,,,,,,,,,,,,,,,,,,,,,,,,,,,108,141802,21,Female,1,2024/03/20_15:38:18,YZ,None,
,,,,,,practice,0,24,3,1250,2,C,0,right,0.5091163610049989,1,0,,,,,,,,,,,,,,,,,,,,,1,,,,,,,,,,,,,,,,,,,,,,,,,,,,,,,,,,,,,,,,,,,,,,108,141802,21,Female,1,2024/03/20_15:38:18,YZ,None,
,,,,,,practice,0,24,3,1250,3,X,0,right,0.5163118609925732,1,0,,,,,,,,,,,,,,,,,,,,,1,,,,,,,,,,,,,,,,,,,,,,,,,,,,,,,,,,,,,,,,,,,,,,108,141802,21,Female,1,2024/03/20_15:38:18,YZ,None,
,,,,,,practice,0,24,3,1250,4,Q,0,right,0.5056888909894042,1,0,,,,,,,,,,,,,,,,,,,,,1,,,,,,,,,,,,,,,,,,,,,,,,,,,,,,,,,,,,,,,,,,,,,,108,141802,21,Female,1,2024/03/20_15:38:18,YZ,None,
,,,,,,practice,0,24,3,1250,5,F,0,right,0.612065009001526,1,0,,,,,,,,,,,,,,,,,,,,,1,,,,,,,,,,,,,,,,,,,,,,,,,,,,,,,,,,,,,,,,,,,,,,108,141802,21,Female,1,2024/03/20_15:38:18,YZ,None,
,,,,,,practice,0,24,3,1250,6,X,1,left,1.0661283210065449,1,0,,,,,,,,,,,,,,,,,,,,,1,,,,,,,,,,,,,,,,,,,,,,,,,,,,,,,,,,,,,,,,,,,,,,108,141802,21,Female,1,2024/03/20_15:38:18,YZ,None,
,,,,,,practice,0,24,3,1250,7,V,0,right,0.36528699299378786,1,0,,,,,,,,,,,,,,,,,,,,,1,,,,,,,,,,,,,,,,,,,,,,,,,,,,,,,,,,,,,,,,,,,,,,108,141802,21,Female,1,2024/03/20_15:38:18,YZ,None,
,,,,,,practice,0,24,3,1250,8,F,1,right,0.6690547479956876,0,0,,,,,,,,,,,,,,,,,,,,,1,,,,,,,,,,,,,,,,,,,,,,,,,,,,,,,,,,,,,,,,,,,,,,108,141802,21,Female,1,2024/03/20_15:38:18,YZ,None,
,,,,,,practice,0,24,3,1250,9,X,1,right,0.6321078260079958,0,0,,,,,,,,,,,,,,,,,,,,,1,,,,,,,,,,,,,,,,,,,,,,,,,,,,,,,,,,,,,,,,,,,,,,108,141802,21,Female,1,2024/03/20_15:38:18,YZ,None,
,,,,,,practice,0,24,3,1250,10,X,0,left,0.6610176459944341,0,0,,,,,,,,,,,,,,,,,,,,,1,,,,,,,,,,,,,,,,,,,,,,,,,,,,,,,,,,,,,,,,,,,,,,108,141802,21,Female,1,2024/03/20_15:38:18,YZ,None,
,,,,,,practice,0,24,3,1250,,,,,,,,0.6904761904761906,0.3333333333333333,0.14285714285714285,0.8571428571428571,0.0,0.8571428571428572,0.6035933326988016,1,1,0,0,0,6,7,3,7,0,,,,1,,,,,,,,,,,,,,,,,,,,,,,,,,,,,,,,,,,,,,,,,,,,,,108,141802,21,Female,1,2024/03/20_15:38:18,YZ,None,
1,./instructions/inst_redo_3/Slide47.png,right,6.692077159998007,743.7992672929977,750.4913444529957,,,,,,,,,,,,,,,,,,,,,,,,,,,,,,,,,1,,,,,,,,,,,,,,,,,,,,,,,,,,,,,,,,,,,,,,,,,,,,,,108,141802,21,Female,1,2024/03/20_15:38:18,YZ,None,
,,,,,,practice,0,33,3,1250,1,J,0,right,0.3919652679905994,1,0,,,,,,,,,,,,,,,,,,,,,1,,,,,,,,,,,,,,,,,,,,,,,,,,,,,,,,,,,,,,,,,,,,,,108,141802,21,Female,1,2024/03/20_15:38:18,YZ,None,
,,,,,,practice,0,33,3,1250,2,C,0,right,0.5723631260043476,1,0,,,,,,,,,,,,,,,,,,,,,1,,,,,,,,,,,,,,,,,,,,,,,,,,,,,,,,,,,,,,,,,,,,,,108,141802,21,Female,1,2024/03/20_15:38:18,YZ,None,
,,,,,,practice,0,33,3,1250,3,F,0,right,0.44161401499877684,1,0,,,,,,,,,,,,,,,,,,,,,1,,,,,,,,,,,,,,,,,,,,,,,,,,,,,,,,,,,,,,,,,,,,,,108,141802,21,Female,1,2024/03/20_15:38:18,YZ,None,
,,,,,,practice,0,33,3,1250,4,J,1,left,0.666430405995925,1,0,,,,,,,,,,,,,,,,,,,,,1,,,,,,,,,,,,,,,,,,,,,,,,,,,,,,,,,,,,,,,,,,,,,,108,141802,21,Female,1,2024/03/20_15:38:18,YZ,None,
,,,,,,practice,0,33,3,1250,5,X,0,right,0.7806056510016788,1,0,,,,,,,,,,,,,,,,,,,,,1,,,,,,,,,,,,,,,,,,,,,,,,,,,,,,,,,,,,,,,,,,,,,,108,141802,21,Female,1,2024/03/20_15:38:18,YZ,None,
,,,,,,practice,0,33,3,1250,6,F,1,left,1.0730361030000495,1,0,,,,,,,,,,,,,,,,,,,,,1,,,,,,,,,,,,,,,,,,,,,,,,,,,,,,,,,,,,,,,,,,,,,,108,141802,21,Female,1,2024/03/20_15:38:18,YZ,None,
,,,,,,practice,0,33,3,1250,7,X,0,right,0.8899152939993655,1,0,,,,,,,,,,,,,,,,,,,,,1,,,,,,,,,,,,,,,,,,,,,,,,,,,,,,,,,,,,,,,,,,,,,,108,141802,21,Female,1,2024/03/20_15:38:18,YZ,None,
,,,,,,practice,0,33,3,1250,8,Q,0,right,1.2982195999938995,1,0,,,,,,,,,,,,,,,,,,,,,1,,,,,,,,,,,,,,,,,,,,,,,,,,,,,,,,,,,,,,,,,,,,,,108,141802,21,Female,1,2024/03/20_15:38:18,YZ,None,
,,,,,,practice,0,33,3,1250,9,F,1,right,1.5489587529882556,0,0,,,,,,,,,,,,,,,,,,,,,1,,,,,,,,,,,,,,,,,,,,,,,,,,,,,,,,,,,,,,,,,,,,,,108,141802,21,Female,1,2024/03/20_15:38:18,YZ,None,
,,,,,,practice,0,33,3,1250,10,N,0,right,0.7870083829911891,1,0,,,,,,,,,,,,,,,,,,,,,1,,,,,,,,,,,,,,,,,,,,,,,,,,,,,,,,,,,,,,,,,,,,,,108,141802,21,Female,1,2024/03/20_15:38:18,YZ,None,
,,,,,,practice,0,33,3,1250,,,,,,,,0.9166666666666666,0.6666666666666666,0.0,1.0,0.0,1.0,0.8450116598964087,2,0,0,0,0,7,9,3,7,0,,,,1,,,,,,,,,,,,,,,,,,,,,,,,,,,,,,,,,,,,,,,,,,,,,,108,141802,21,Female,1,2024/03/20_15:38:18,YZ,None,
1,./instructions/inst_prac_main/Slide51.png,right,3.5822509930003434,766.7411224620009,770.3233734550013,,,,,,,,,,,,,,,,,,,,,,,,,,,,,,,,,1,,,,,,,,,,,,,,,,,,,,,,,,,,,,,,,,,,,,,,,,,,,,,,108,141802,21,Female,1,2024/03/20_15:38:18,YZ,None,
2,./instructions/inst_prac_main/Slide52.png,right,10.819591514999047,770.3517459930008,781.1713375079999,,,,,,,,,,,,,,,,,,,,,,,,,,,,,,,,,1,,,,,,,,,,,,,,,,,,,,,,,,,,,,,,,,,,,,,,,,,,,,,,108,141802,21,Female,1,2024/03/20_15:38:18,YZ,None,
1,./instructions/inst_prac_main/Slide53.png,left,3.795425582997268,781.2000654709991,784.9954910539964,,,,,,,,,,,,,,,,,,,,,,,,,,,,,,,,,1,,,,,,,,,,,,,,,,,,,,,,,,,,,,,,,,,,,,,,,,,,,,,,108,141802,21,Female,1,2024/03/20_15:38:18,YZ,None,
0,./instructions/inst_prac_main/Slide52.png,left,0.20057296501181554,785.018783388994,785.2193563540059,,,,,,,,,,,,,,,,,,,,,,,,,,,,,,,,,1,,,,,,,,,,,,,,,,,,,,,,,,,,,,,,,,,,,,,,,,,,,,,,108,141802,21,Female,1,2024/03/20_15:38:18,YZ,None,
-1,./instructions/inst_prac_main/Slide51.png,left,0.20034327800385654,785.2378129900026,785.4381562680064,,,,,,,,,,,,,,,,,,,,,,,,,,,,,,,,,1,,,,,,,,,,,,,,,,,,,,,,,,,,,,,,,,,,,,,,,,,,,,,,108,141802,21,Female,1,2024/03/20_15:38:18,YZ,None,
-2,./instructions/inst_prac_main/Slide54.png,left,0.20036976000119466,785.4601433560019,785.6605131160031,,,,,,,,,,,,,,,,,,,,,,,,,,,,,,,,,1,,,,,,,,,,,,,,,,,,,,,,,,,,,,,,,,,,,,,,,,,,,,,,108,141802,21,Female,1,2024/03/20_15:38:18,YZ,None,
-3,./instructions/inst_prac_main/Slide53.png,left,0.20039493100193795,785.6829299279925,785.8833248589945,,,,,,,,,,,,,,,,,,,,,,,,,,,,,,,,,1,,,,,,,,,,,,,,,,,,,,,,,,,,,,,,,,,,,,,,,,,,,,,,108,141802,21,Female,1,2024/03/20_15:38:18,YZ,None,
-4,./instructions/inst_prac_main/Slide52.png,left,0.20037712999328505,785.9057741680008,786.1061512979941,,,,,,,,,,,,,,,,,,,,,,,,,,,,,,,,,1,,,,,,,,,,,,,,,,,,,,,,,,,,,,,,,,,,,,,,,,,,,,,,108,141802,21,Female,1,2024/03/20_15:38:18,YZ,None,
,,,,,,practice_main,0,1,1,1250,1,F,0,right,1.7787916300003417,1,0,,,,,,,,,,,,,,,,,,,,,1,,,,,,,,,,,,,,,,,,,,,,,,,,,,,,,,,,,,,,,,,,,,,,108,141802,21,Female,1,2024/03/20_15:38:18,YZ,None,
,,,,,,practice_main,0,1,1,1250,2,F,1,left,0.5440911790065002,1,0,,,,,,,,,,,,,,,,,,,,,1,,,,,,,,,,,,,,,,,,,,,,,,,,,,,,,,,,,,,,,,,,,,,,108,141802,21,Female,1,2024/03/20_15:38:18,YZ,None,
,,,,,,practice_main,0,1,1,1250,3,Q,0,right,0.3915856880048523,1,0,,,,,,,,,,,,,,,,,,,,,1,,,,,,,,,,,,,,,,,,,,,,,,,,,,,,,,,,,,,,,,,,,,,,108,141802,21,Female,1,2024/03/20_15:38:18,YZ,None,
,,,,,,practice_main,0,1,1,1250,4,Q,1,right,0.6583114370005205,0,0,,,,,,,,,,,,,,,,,,,,,1,,,,,,,,,,,,,,,,,,,,,,,,,,,,,,,,,,,,,,,,,,,,,,108,141802,21,Female,1,2024/03/20_15:38:18,YZ,None,
,,,,,,practice_main,0,1,1,1250,5,F,0,left,0.5472513170097955,0,0,,,,,,,,,,,,,,,,,,,,,1,,,,,,,,,,,,,,,,,,,,,,,,,,,,,,,,,,,,,,,,,,,,,,108,141802,21,Female,1,2024/03/20_15:38:18,YZ,None,
,,,,,,practice_main,0,1,1,1250,6,S,0,right,0.34993307599506807,1,0,,,,,,,,,,,,,,,,,,,,,1,,,,,,,,,,,,,,,,,,,,,,,,,,,,,,,,,,,,,,,,,,,,,,108,141802,21,Female,1,2024/03/20_15:38:18,YZ,None,
,,,,,,practice_main,0,1,1,1250,7,S,1,left,0.6221129659970757,1,0,,,,,,,,,,,,,,,,,,,,,1,,,,,,,,,,,,,,,,,,,,,,,,,,,,,,,,,,,,,,,,,,,,,,108,141802,21,Female,1,2024/03/20_15:38:18,YZ,None,
,,,,,,practice_main,0,1,1,1250,8,C,0,right,0.42679450899595395,1,0,,,,,,,,,,,,,,,,,,,,,1,,,,,,,,,,,,,,,,,,,,,,,,,,,,,,,,,,,,,,,,,,,,,,108,141802,21,Female,1,2024/03/20_15:38:18,YZ,None,
,,,,,,practice_main,0,1,1,1250,9,X,0,right,0.5416720960056409,1,0,,,,,,,,,,,,,,,,,,,,,1,,,,,,,,,,,,,,,,,,,,,,,,,,,,,,,,,,,,,,,,,,,,,,108,141802,21,Female,1,2024/03/20_15:38:18,YZ,None,
,,,,,,practice_main,0,1,1,1250,10,S,0,right,0.7246939980104798,1,0,,,,,,,,,,,,,,,,,,,,,1,,,,,,,,,,,,,,,,,,,,,,,,,,,,,,,,,,,,,,,,,,,,,,108,141802,21,Female,1,2024/03/20_15:38:18,YZ,None,
,,,,,,practice_main,0,1,1,1250,,,,,,,,0.8333333333333333,0.6666666666666666,0.14285714285714285,0.8571428571428571,0.0,0.8571428571428572,0.6585237896026228,2,1,0,0,0,6,8,3,7,0,,,,1,,,,,,,,,,,,,,,,,,,,,,,,,,,,,,,,,,,,,,,,,,,,,,108,141802,21,Female,1,2024/03/20_15:38:18,YZ,None,
,,,,,240320_161511,PRACTICE,0,1,1,1250,,,,,,,,,,,,,,,,,,,,,,,,,,,,1,1,2,1,cue2.png,easy,B,26,1.422580636004568,0,797.2052210480033,798.6420085999998,,,,,,,,,,,,,,,,,,,,,,,,,,,,,,,,,,,108,141802,21,Female,1,2024/03/20_15:38:18,YZ,None,
,,,,,,practice_main,0,2,3,1250,1,C,0,right,0.4284387640072964,1,0,,,,,,,,,,,,,,,,,,,,,1,,,,,,,,,,,,,,,,,,,,,,,,,,,,,,,,,,,,,,,,,,,,,,108,141802,21,Female,1,2024/03/20_15:38:18,YZ,None,
,,,,,,practice_main,0,2,3,1250,2,F,0,right,0.265588428999763,1,0,,,,,,,,,,,,,,,,,,,,,1,,,,,,,,,,,,,,,,,,,,,,,,,,,,,,,,,,,,,,,,,,,,,,108,141802,21,Female,1,2024/03/20_15:38:18,YZ,None,
,,,,,,practice_main,0,2,3,1250,3,N,0,right,0.4842308600054821,1,0,,,,,,,,,,,,,,,,,,,,,1,,,,,,,,,,,,,,,,,,,,,,,,,,,,,,,,,,,,,,,,,,,,,,108,141802,21,Female,1,2024/03/20_15:38:18,YZ,None,
,,,,,,practice_main,0,2,3,1250,4,C,1,left,0.38507368799764663,1,0,,,,,,,,,,,,,,,,,,,,,1,,,,,,,,,,,,,,,,,,,,,,,,,,,,,,,,,,,,,,,,,,,,,,108,141802,21,Female,1,2024/03/20_15:38:18,YZ,None,
,,,,,,practice_main,0,2,3,1250,5,S,0,right,0.5739961090002907,1,0,,,,,,,,,,,,,,,,,,,,,1,,,,,,,,,,,,,,,,,,,,,,,,,,,,,,,,,,,,,,,,,,,,,,108,141802,21,Female,1,2024/03/20_15:38:18,YZ,None,
,,,,,,practice_main,0,2,3,1250,6,C,0,right,0.806305156002054,1,0,,,,,,,,,,,,,,,,,,,,,1,,,,,,,,,,,,,,,,,,,,,,,,,,,,,,,,,,,,,,,,,,,,,,108,141802,21,Female,1,2024/03/20_15:38:18,YZ,None,
,,,,,,practice_main,0,2,3,1250,7,C,1,left,0.906543026008876,1,0,,,,,,,,,,,,,,,,,,,,,1,,,,,,,,,,,,,,,,,,,,,,,,,,,,,,,,,,,,,,,,,,,,,,108,141802,21,Female,1,2024/03/20_15:38:18,YZ,None,
,,,,,,practice_main,0,2,3,1250,8,S,1,right,0.48086477001197636,0,0,,,,,,,,,,,,,,,,,,,,,1,,,,,,,,,,,,,,,,,,,,,,,,,,,,,,,,,,,,,,,,,,,,,,108,141802,21,Female,1,2024/03/20_15:38:18,YZ,None,
,,,,,,practice_main,0,2,3,1250,9,N,0,left,0.7542006319999928,0,0,,,,,,,,,,,,,,,,,,,,,1,,,,,,,,,,,,,,,,,,,,,,,,,,,,,,,,,,,,,,,,,,,,,,108,141802,21,Female,1,2024/03/20_15:38:18,YZ,None,
,,,,,,practice_main,0,2,3,1250,10,Q,0,right,0.41760006098775193,1,0,,,,,,,,,,,,,,,,,,,,,1,,,,,,,,,,,,,,,,,,,,,,,,,,,,,,,,,,,,,,,,,,,,,,108,141802,21,Female,1,2024/03/20_15:38:18,YZ,None,
,,,,,,practice_main,0,2,3,1250,,,,,,,,0.8333333333333333,0.6666666666666666,0.14285714285714285,0.8571428571428571,0.0,0.8571428571428572,0.550284149502113,2,1,0,0,0,6,8,3,7,0,,,,1,,,,,,,,,,,,,,,,,,,,,,,,,,,,,,,,,,,,,,,,,,,,,,108,141802,21,Female,1,2024/03/20_15:38:18,YZ,None,
,,,,,240320_161533,PRACTICE,0,2,3,1250,,,,,,,,,,,,,,,,,,,,,,,,,,,,1,19,3,2,cue1.png,hard,B,61,1.338811582987546,0,819.6224759379984,820.9908921850001,,,,,,,,,,,,,,,,,,,,,,,,,,,,,,,,,,,108,141802,21,Female,1,2024/03/20_15:38:18,YZ,None,
,,,,,,practice_main,0,3,1,1250,1,N,0,right,1.1089376710006036,1,0,,,,,,,,,,,,,,,,,,,,,1,,,,,,,,,,,,,,,,,,,,,,,,,,,,,,,,,,,,,,,,,,,,,,108,141802,21,Female,1,2024/03/20_15:38:18,YZ,None,
,,,,,,practice_main,0,3,1,1250,2,N,1,left,0.557771481006057,1,0,,,,,,,,,,,,,,,,,,,,,1,,,,,,,,,,,,,,,,,,,,,,,,,,,,,,,,,,,,,,,,,,,,,,108,141802,21,Female,1,2024/03/20_15:38:18,YZ,None,
,,,,,,practice_main,0,3,1,1250,3,X,0,right,0.4651839389989618,1,0,,,,,,,,,,,,,,,,,,,,,1,,,,,,,,,,,,,,,,,,,,,,,,,,,,,,,,,,,,,,,,,,,,,,108,141802,21,Female,1,2024/03/20_15:38:18,YZ,None,
,,,,,,practice_main,0,3,1,1250,4,J,0,right,0.518701584005612,1,0,,,,,,,,,,,,,,,,,,,,,1,,,,,,,,,,,,,,,,,,,,,,,,,,,,,,,,,,,,,,,,,,,,,,108,141802,21,Female,1,2024/03/20_15:38:18,YZ,None,
,,,,,,practice_main,0,3,1,1250,5,J,1,left,0.4910297059977893,1,0,,,,,,,,,,,,,,,,,,,,,1,,,,,,,,,,,,,,,,,,,,,,,,,,,,,,,,,,,,,,,,,,,,,,108,141802,21,Female,1,2024/03/20_15:38:18,YZ,None,
,,,,,,practice_main,0,3,1,1250,6,S,0,right,0.3925626410054974,1,0,,,,,,,,,,,,,,,,,,,,,1,,,,,,,,,,,,,,,,,,,,,,,,,,,,,,,,,,,,,,,,,,,,,,108,141802,21,Female,1,2024/03/20_15:38:18,YZ,None,
,,,,,,practice_main,0,3,1,1250,7,S,1,left,0.7761168449942488,1,0,,,,,,,,,,,,,,,,,,,,,1,,,,,,,,,,,,,,,,,,,,,,,,,,,,,,,,,,,,,,,,,,,,,,108,141802,21,Female,1,2024/03/20_15:38:18,YZ,None,
,,,,,,practice_main,0,3,1,1250,8,V,0,right,0.5121009290014626,1,0,,,,,,,,,,,,,,,,,,,,,1,,,,,,,,,,,,,,,,,,,,,,,,,,,,,,,,,,,,,,,,,,,,,,108,141802,21,Female,1,2024/03/20_15:38:18,YZ,None,
,,,,,,practice_main,0,3,1,1250,9,F,0,right,0.5243784679914825,1,0,,,,,,,,,,,,,,,,,,,,,1,,,,,,,,,,,,,,,,,,,,,,,,,,,,,,,,,,,,,,,,,,,,,,108,141802,21,Female,1,2024/03/20_15:38:18,YZ,None,
,,,,,,practice_main,0,3,1,1250,10,X,0,right,0.49706150199926924,1,0,,,,,,,,,,,,,,,,,,,,,1,,,,,,,,,,,,,,,,,,,,,,,,,,,,,,,,,,,,,,,,,,,,,,108,141802,21,Female,1,2024/03/20_15:38:18,YZ,None,
,,,,,,practice_main,0,3,1,1250,,,,,,,,1.0,1.0,0.0,1.0,0.0,1.0,0.5843844766000984,3,0,0,0,0,7,10,3,7,0,,,,1,,,,,,,,,,,,,,,,,,,,,,,,,,,,,,,,,,,,,,,,,,,,,,108,141802,21,Female,1,2024/03/20_15:38:18,YZ,None,
,,,,,240320_161554,PRACTICE,0,3,1,1250,,,,,,,,,,,,,,,,,,,,,,,,,,,,1,32,4,3,cue2.png,easy,B,36,0.8972983720013872,0,840.83184626,841.7381826100027,,,,,,,,,,,,,,,,,,,,,,,,,,,,,,,,,,,108,141802,21,Female,1,2024/03/20_15:38:18,YZ,None,
1,./instructions/inst_prac_end/Slide56.png,right,18.28142428099818,860.4579327319952,878.7393570129934,,,,,,,,,,,,,,,,,,,,,,,,,,,,,,,,,1,,,,,,,,,,,,,,,,,,,,,,,,,,,,,,,,,,,,,,,,,,,,,,108,141802,21,Female,1,2024/03/20_15:38:18,YZ,None,
1,./instructions/inst_test/Slide57.png,right,231.31881503999466,878.772720716006,1110.0915357560007,,,,,,,,,,,,,,,,,,,,,,,,,,,,,,,,,1,,,,,,,,,,,,,,,,,,,,,,,,,,,,,,,,,,,,,,,,,,,,,,108,141802,21,Female,1,2024/03/20_15:38:18,YZ,None,
,,,,,,test,1,1,1,1250,1,Q,0,right,0.6347564680036157,1,0,,,,,,,,,,,,,,,,,,,,,1,,,,,,,,,,,,,,,,,,,,,,,,,,,,,,,,,,,,,,,,,,,,,,108,141802,21,Female,1,2024/03/20_15:38:18,YZ,None,
,,,,,,test,1,1,1,1250,2,Q,1,left,0.5122562869946705,1,0,,,,,,,,,,,,,,,,,,,,,1,,,,,,,,,,,,,,,,,,,,,,,,,,,,,,,,,,,,,,,,,,,,,,108,141802,21,Female,1,2024/03/20_15:38:18,YZ,None,
,,,,,,test,1,1,1,1250,3,C,0,right,0.35167129199544434,1,0,,,,,,,,,,,,,,,,,,,,,1,,,,,,,,,,,,,,,,,,,,,,,,,,,,,,,,,,,,,,,,,,,,,,108,141802,21,Female,1,2024/03/20_15:38:18,YZ,None,
,,,,,,test,1,1,1,1250,4,C,1,left,0.4742439140100032,1,0,,,,,,,,,,,,,,,,,,,,,1,,,,,,,,,,,,,,,,,,,,,,,,,,,,,,,,,,,,,,,,,,,,,,108,141802,21,Female,1,2024/03/20_15:38:18,YZ,None,
,,,,,,test,1,1,1,1250,5,Q,0,right,0.41859453500364907,1,0,,,,,,,,,,,,,,,,,,,,,1,,,,,,,,,,,,,,,,,,,,,,,,,,,,,,,,,,,,,,,,,,,,,,108,141802,21,Female,1,2024/03/20_15:38:18,YZ,None,
,,,,,,test,1,1,1,1250,6,C,0,right,0.4774218219972681,1,0,,,,,,,,,,,,,,,,,,,,,1,,,,,,,,,,,,,,,,,,,,,,,,,,,,,,,,,,,,,,,,,,,,,,108,141802,21,Female,1,2024/03/20_15:38:18,YZ,None,
,,,,,,test,1,1,1,1250,7,X,0,right,0.4982089019904379,1,0,,,,,,,,,,,,,,,,,,,,,1,,,,,,,,,,,,,,,,,,,,,,,,,,,,,,,,,,,,,,,,,,,,,,108,141802,21,Female,1,2024/03/20_15:38:18,YZ,None,
,,,,,,test,1,1,1,1250,8,F,0,right,0.39498259300307836,1,0,,,,,,,,,,,,,,,,,,,,,1,,,,,,,,,,,,,,,,,,,,,,,,,,,,,,,,,,,,,,,,,,,,,,108,141802,21,Female,1,2024/03/20_15:38:18,YZ,None,
,,,,,,test,1,1,1,1250,9,S,0,right,0.40768568600469735,1,0,,,,,,,,,,,,,,,,,,,,,1,,,,,,,,,,,,,,,,,,,,,,,,,,,,,,,,,,,,,,,,,,,,,,108,141802,21,Female,1,2024/03/20_15:38:18,YZ,None,
,,,,,,test,1,1,1,1250,10,S,1,left,0.4731713899964234,1,0,,,,,,,,,,,,,,,,,,,,,1,,,,,,,,,,,,,,,,,,,,,,,,,,,,,,,,,,,,,,,,,,,,,,108,141802,21,Female,1,2024/03/20_15:38:18,YZ,None,
,,,,,,Test,1,1,1,1250,,,,,,,,1.0,1.0,0.0,1.0,0.0,1.0,0.4642992888999288,3,0,0,0,0,7,10,3,7,0,,,,1,,,,,,,,,,,,,,,,,,,,,,,,,,,,,,,,,,,,,,,,,,,,,,108,141802,21,Female,1,2024/03/20_15:38:18,YZ,None,
,,,,,240320_162027,TEST,1,1,1,1250,,,,,,,,,,,,,,,,,,,,,,,,,,,,1,1,1,1,cue2.png,easy,B,22,0.7857228119974025,0,1115.1377310009993,1115.9384047310014,,,,,,,,,,,,,,,,,,,,,,,,,,,,,,,,,,,108,141802,21,Female,1,2024/03/20_15:38:18,YZ,None,
,,,,,,test,1,2,3,1250,1,V,0,right,0.9139997290039901,1,0,,,,,,,,,,,,,,,,,,,,,1,,,,,,,,,,,,,,,,,,,,,,,,,,,,,,,,,,,,,,,,,,,,,,108,141802,21,Female,1,2024/03/20_15:38:18,YZ,None,
,,,,,,test,1,2,3,1250,2,C,0,right,0.36758038999687415,1,0,,,,,,,,,,,,,,,,,,,,,1,,,,,,,,,,,,,,,,,,,,,,,,,,,,,,,,,,,,,,,,,,,,,,108,141802,21,Female,1,2024/03/20_15:38:18,YZ,None,
,,,,,,test,1,2,3,1250,3,S,0,right,0.36063861299771816,1,0,,,,,,,,,,,,,,,,,,,,,1,,,,,,,,,,,,,,,,,,,,,,,,,,,,,,,,,,,,,,,,,,,,,,108,141802,21,Female,1,2024/03/20_15:38:18,YZ,None,
,,,,,,test,1,2,3,1250,4,S,0,right,0.393412873003399,1,0,,,,,,,,,,,,,,,,,,,,,1,,,,,,,,,,,,,,,,,,,,,,,,,,,,,,,,,,,,,,,,,,,,,,108,141802,21,Female,1,2024/03/20_15:38:18,YZ,None,
,,,,,,test,1,2,3,1250,5,C,1,left,0.49076639299164526,1,0,,,,,,,,,,,,,,,,,,,,,1,,,,,,,,,,,,,,,,,,,,,,,,,,,,,,,,,,,,,,,,,,,,,,108,141802,21,Female,1,2024/03/20_15:38:18,YZ,None,
,,,,,,test,1,2,3,1250,6,F,0,right,0.5756704559898935,1,0,,,,,,,,,,,,,,,,,,,,,1,,,,,,,,,,,,,,,,,,,,,,,,,,,,,,,,,,,,,,,,,,,,,,108,141802,21,Female,1,2024/03/20_15:38:18,YZ,None,
,,,,,,test,1,2,3,1250,7,V,0,right,0.4754013910132926,1,0,,,,,,,,,,,,,,,,,,,,,1,,,,,,,,,,,,,,,,,,,,,,,,,,,,,,,,,,,,,,,,,,,,,,108,141802,21,Female,1,2024/03/20_15:38:18,YZ,None,
,,,,,,test,1,2,3,1250,8,C,1,right,0.5765967140032444,0,0,,,,,,,,,,,,,,,,,,,,,1,,,,,,,,,,,,,,,,,,,,,,,,,,,,,,,,,,,,,,,,,,,,,,108,141802,21,Female,1,2024/03/20_15:38:18,YZ,None,
,,,,,,test,1,2,3,1250,9,F,1,left,0.5457788799976697,1,0,,,,,,,,,,,,,,,,,,,,,1,,,,,,,,,,,,,,,,,,,,,,,,,,,,,,,,,,,,,,,,,,,,,,108,141802,21,Female,1,2024/03/20_15:38:18,YZ,None,
,,,,,,test,1,2,3,1250,10,S,0,right,0.36407259800762404,1,0,,,,,,,,,,,,,,,,,,,,,1,,,,,,,,,,,,,,,,,,,,,,,,,,,,,,,,,,,,,,,,,,,,,,108,141802,21,Female,1,2024/03/20_15:38:18,YZ,None,
,,,,,,Test,1,2,3,1250,,,,,,,,0.9166666666666666,0.6666666666666666,0.0,1.0,0.0,1.0,0.506391803700535,2,0,0,0,0,7,9,3,7,0,,,,1,,,,,,,,,,,,,,,,,,,,,,,,,,,,,,,,,,,,,,,,,,,,,,108,141802,21,Female,1,2024/03/20_15:38:18,YZ,None,
,,,,,240320_162047,TEST,1,2,3,1250,,,,,,,,,,,,,,,,,,,,,,,,,,,,1,2,2,2,cue1.png,hard,B,54,0.952883011996164,0,1134.935506512993,1135.9032271879987,,,,,,,,,,,,,,,,,,,,,,,,,,,,,,,,,,,108,141802,21,Female,1,2024/03/20_15:38:18,YZ,None,
,,,,,,test,1,3,3,1250,1,N,0,right,0.5878430820012,1,0,,,,,,,,,,,,,,,,,,,,,1,,,,,,,,,,,,,,,,,,,,,,,,,,,,,,,,,,,,,,,,,,,,,,108,141802,21,Female,1,2024/03/20_15:38:18,YZ,None,
,,,,,,test,1,3,3,1250,2,X,0,right,0.3684542160044657,1,0,,,,,,,,,,,,,,,,,,,,,1,,,,,,,,,,,,,,,,,,,,,,,,,,,,,,,,,,,,,,,,,,,,,,108,141802,21,Female,1,2024/03/20_15:38:18,YZ,None,
,,,,,,test,1,3,3,1250,3,J,0,right,0.39965582799050026,1,0,,,,,,,,,,,,,,,,,,,,,1,,,,,,,,,,,,,,,,,,,,,,,,,,,,,,,,,,,,,,,,,,,,,,108,141802,21,Female,1,2024/03/20_15:38:18,YZ,None,
,,,,,,test,1,3,3,1250,4,N,1,right,0.4455460790049983,0,0,,,,,,,,,,,,,,,,,,,,,1,,,,,,,,,,,,,,,,,,,,,,,,,,,,,,,,,,,,,,,,,,,,,,108,141802,21,Female,1,2024/03/20_15:38:18,YZ,None,
,,,,,,test,1,3,3,1250,5,X,1,right,0.5119129229860846,0,0,,,,,,,,,,,,,,,,,,,,,1,,,,,,,,,,,,,,,,,,,,,,,,,,,,,,,,,,,,,,,,,,,,,,108,141802,21,Female,1,2024/03/20_15:38:18,YZ,None,
,,,,,,test,1,3,3,1250,6,X,0,right,0.5764702910091728,1,0,,,,,,,,,,,,,,,,,,,,,1,,,,,,,,,,,,,,,,,,,,,,,,,,,,,,,,,,,,,,,,,,,,,,108,141802,21,Female,1,2024/03/20_15:38:18,YZ,None,
,,,,,,test,1,3,3,1250,7,V,0,left,0.4466767350095324,0,0,,,,,,,,,,,,,,,,,,,,,1,,,,,,,,,,,,,,,,,,,,,,,,,,,,,,,,,,,,,,,,,,,,,,108,141802,21,Female,1,2024/03/20_15:38:18,YZ,None,
,,,,,,test,1,3,3,1250,8,N,0,right,0.36534386400307994,1,0,,,,,,,,,,,,,,,,,,,,,1,,,,,,,,,,,,,,,,,,,,,,,,,,,,,,,,,,,,,,,,,,,,,,108,141802,21,Female,1,2024/03/20_15:38:18,YZ,None,
,,,,,,test,1,3,3,1250,9,C,0,left,0.5463384299946483,0,0,,,,,,,,,,,,,,,,,,,,,1,,,,,,,,,,,,,,,,,,,,,,,,,,,,,,,,,,,,,,,,,,,,,,108,141802,21,Female,1,2024/03/20_15:38:18,YZ,None,
,,,,,,test,1,3,3,1250,10,V,1,left,0.5934366140136262,1,0,,,,,,,,,,,,,,,,,,,,,1,,,,,,,,,,,,,,,,,,,,,,,,,,,,,,,,,,,,,,,,,,,,,,108,141802,21,Female,1,2024/03/20_15:38:18,YZ,None,
,,,,,,Test,1,3,3,1250,,,,,,,,0.5476190476190476,0.3333333333333333,0.2857142857142857,0.7142857142857143,0.0,0.7142857142857143,0.48416780620173083,1,2,0,0,0,5,6,3,7,0,,,,1,,,,,,,,,,,,,,,,,,,,,,,,,,,,,,,,,,,,,,,,,,,,,,108,141802,21,Female,1,2024/03/20_15:38:18,YZ,None,
,,,,,240320_162108,TEST,1,3,3,1250,,,,,,,,,,,,,,,,,,,,,,,,,,,,1,3,3,3,cue1.png,hard,B,39,1.346732748002978,0,1155.3280683539924,1156.684434144001,,,,,,,,,,,,,,,,,,,,,,,,,,,,,,,,,,,108,141802,21,Female,1,2024/03/20_15:38:18,YZ,None,
,,,,,,test,1,4,3,1250,1,C,0,right,0.44958473001315724,1,0,,,,,,,,,,,,,,,,,,,,,1,,,,,,,,,,,,,,,,,,,,,,,,,,,,,,,,,,,,,,,,,,,,,,108,141802,21,Female,1,2024/03/20_15:38:18,YZ,None,
,,,,,,test,1,4,3,1250,2,N,0,right,0.3290672570001334,1,0,,,,,,,,,,,,,,,,,,,,,1,,,,,,,,,,,,,,,,,,,,,,,,,,,,,,,,,,,,,,,,,,,,,,108,141802,21,Female,1,2024/03/20_15:38:18,YZ,None,
,,,,,,test,1,4,3,1250,3,N,0,right,0.33663116800016724,1,0,,,,,,,,,,,,,,,,,,,,,1,,,,,,,,,,,,,,,,,,,,,,,,,,,,,,,,,,,,,,,,,,,,,,108,141802,21,Female,1,2024/03/20_15:38:18,YZ,None,
,,,,,,test,1,4,3,1250,4,J,0,right,0.4242101249983534,1,0,,,,,,,,,,,,,,,,,,,,,1,,,,,,,,,,,,,,,,,,,,,,,,,,,,,,,,,,,,,,,,,,,,,,108,141802,21,Female,1,2024/03/20_15:38:18,YZ,None,
,,,,,,test,1,4,3,1250,5,V,0,left,0.5612360939994687,0,0,,,,,,,,,,,,,,,,,,,,,1,,,,,,,,,,,,,,,,,,,,,,,,,,,,,,,,,,,,,,,,,,,,,,108,141802,21,Female,1,2024/03/20_15:38:18,YZ,None,
,,,,,,test,1,4,3,1250,6,N,1,right,0.3772140240034787,0,0,,,,,,,,,,,,,,,,,,,,,1,,,,,,,,,,,,,,,,,,,,,,,,,,,,,,,,,,,,,,,,,,,,,,108,141802,21,Female,1,2024/03/20_15:38:18,YZ,None,
,,,,,,test,1,4,3,1250,7,F,0,right,0.6090867279999657,1,0,,,,,,,,,,,,,,,,,,,,,1,,,,,,,,,,,,,,,,,,,,,,,,,,,,,,,,,,,,,,,,,,,,,,108,141802,21,Female,1,2024/03/20_15:38:18,YZ,None,
,,,,,,test,1,4,3,1250,8,V,1,right,0.4281353929982288,0,0,,,,,,,,,,,,,,,,,,,,,1,,,,,,,,,,,,,,,,,,,,,,,,,,,,,,,,,,,,,,,,,,,,,,108,141802,21,Female,1,2024/03/20_15:38:18,YZ,None,
,,,,,,test,1,4,3,1250,9,X,0,right,0.5117062210047152,1,0,,,,,,,,,,,,,,,,,,,,,1,,,,,,,,,,,,,,,,,,,,,,,,,,,,,,,,,,,,,,,,,,,,,,108,141802,21,Female,1,2024/03/20_15:38:18,YZ,None,
,,,,,,test,1,4,3,1250,10,F,1,left,0.3985176130081527,1,0,,,,,,,,,,,,,,,,,,,,,1,,,,,,,,,,,,,,,,,,,,,,,,,,,,,,,,,,,,,,,,,,,,,,108,141802,21,Female,1,2024/03/20_15:38:18,YZ,None,
,,,,,,Test,1,4,3,1250,,,,,,,,0.6904761904761906,0.3333333333333333,0.14285714285714285,0.8571428571428571,0.0,0.8571428571428572,0.4425389353025821,1,1,0,0,0,6,7,3,7,0,,,,1,,,,,,,,,,,,,,,,,,,,,,,,,,,,,,,,,,,,,,,,,,,,,,108,141802,21,Female,1,2024/03/20_15:38:18,YZ,None,
,,,,,240320_162135,TEST,1,4,3,1250,,,,,,,,,,,,,,,,,,,,,,,,,,,,1,4,5,4,cue1.png,hard,B,60,0.5549033540009987,0,1183.9218582680041,1184.4963981750043,,,,,,,,,,,,,,,,,,,,,,,,,,,,,,,,,,,108,141802,21,Female,1,2024/03/20_15:38:18,YZ,None,
,,,,,,test,1,5,1,1250,1,Q,0,right,0.3568114579975372,1,0,,,,,,,,,,,,,,,,,,,,,1,,,,,,,,,,,,,,,,,,,,,,,,,,,,,,,,,,,,,,,,,,,,,,108,141802,21,Female,1,2024/03/20_15:38:18,YZ,None,
,,,,,,test,1,5,1,1250,2,C,0,right,0.3853839740040712,1,0,,,,,,,,,,,,,,,,,,,,,1,,,,,,,,,,,,,,,,,,,,,,,,,,,,,,,,,,,,,,,,,,,,,,108,141802,21,Female,1,2024/03/20_15:38:18,YZ,None,
,,,,,,test,1,5,1,1250,3,X,0,right,0.4421863079915056,1,0,,,,,,,,,,,,,,,,,,,,,1,,,,,,,,,,,,,,,,,,,,,,,,,,,,,,,,,,,,,,,,,,,,,,108,141802,21,Female,1,2024/03/20_15:38:18,YZ,None,
,,,,,,test,1,5,1,1250,4,X,1,left,0.37757845100713894,1,0,,,,,,,,,,,,,,,,,,,,,1,,,,,,,,,,,,,,,,,,,,,,,,,,,,,,,,,,,,,,,,,,,,,,108,141802,21,Female,1,2024/03/20_15:38:18,YZ,None,
,,,,,,test,1,5,1,1250,5,V,0,right,0.47241201299766544,1,0,,,,,,,,,,,,,,,,,,,,,1,,,,,,,,,,,,,,,,,,,,,,,,,,,,,,,,,,,,,,,,,,,,,,108,141802,21,Female,1,2024/03/20_15:38:18,YZ,None,
,,,,,,test,1,5,1,1250,6,C,0,right,0.3937761699926341,1,0,,,,,,,,,,,,,,,,,,,,,1,,,,,,,,,,,,,,,,,,,,,,,,,,,,,,,,,,,,,,,,,,,,,,108,141802,21,Female,1,2024/03/20_15:38:18,YZ,None,
,,,,,,test,1,5,1,1250,7,C,1,left,0.548880034009926,1,0,,,,,,,,,,,,,,,,,,,,,1,,,,,,,,,,,,,,,,,,,,,,,,,,,,,,,,,,,,,,,,,,,,,,108,141802,21,Female,1,2024/03/20_15:38:18,YZ,None,
,,,,,,test,1,5,1,1250,8,X,0,right,0.3642094230017392,1,0,,,,,,,,,,,,,,,,,,,,,1,,,,,,,,,,,,,,,,,,,,,,,,,,,,,,,,,,,,,,,,,,,,,,108,141802,21,Female,1,2024/03/20_15:38:18,YZ,None,
,,,,,,test,1,5,1,1250,9,Q,0,right,0.45336740399943665,1,0,,,,,,,,,,,,,,,,,,,,,1,,,,,,,,,,,,,,,,,,,,,,,,,,,,,,,,,,,,,,,,,,,,,,108,141802,21,Female,1,2024/03/20_15:38:18,YZ,None,
,,,,,,test,1,5,1,1250,10,Q,1,right,0.4415738190000411,0,0,,,,,,,,,,,,,,,,,,,,,1,,,,,,,,,,,,,,,,,,,,,,,,,,,,,,,,,,,,,,,,,,,,,,108,141802,21,Female,1,2024/03/20_15:38:18,YZ,None,
,,,,,,Test,1,5,1,1250,,,,,,,,0.9166666666666666,0.6666666666666666,0.0,1.0,0.0,1.0,0.4236179054001695,2,0,0,0,0,7,9,3,7,0,,,,1,,,,,,,,,,,,,,,,,,,,,,,,,,,,,,,,,,,,,,,,,,,,,,108,141802,21,Female,1,2024/03/20_15:38:18,YZ,None,
,,,,,240320_162155,TEST,1,5,1,1250,,,,,,,,,,,,,,,,,,,,,,,,,,,,1,5,6,5,cue2.png,easy,B,19,1.3876690530014457,0,1203.2857948049932,1204.7026608099986,,,,,,,,,,,,,,,,,,,,,,,,,,,,,,,,,,,108,141802,21,Female,1,2024/03/20_15:38:18,YZ,None,
,,,,,,test,1,6,3,1250,1,Q,0,right,0.47952936799265444,1,0,,,,,,,,,,,,,,,,,,,,,1,,,,,,,,,,,,,,,,,,,,,,,,,,,,,,,,,,,,,,,,,,,,,,108,141802,21,Female,1,2024/03/20_15:38:18,YZ,None,
,,,,,,test,1,6,3,1250,2,N,0,right,0.3132696829998167,1,0,,,,,,,,,,,,,,,,,,,,,1,,,,,,,,,,,,,,,,,,,,,,,,,,,,,,,,,,,,,,,,,,,,,,108,141802,21,Female,1,2024/03/20_15:38:18,YZ,None,
,,,,,,test,1,6,3,1250,3,N,0,right,0.39588814399030525,1,0,,,,,,,,,,,,,,,,,,,,,1,,,,,,,,,,,,,,,,,,,,,,,,,,,,,,,,,,,,,,,,,,,,,,108,141802,21,Female,1,2024/03/20_15:38:18,YZ,None,
,,,,,,test,1,6,3,1250,4,V,0,right,0.397603427991271,1,0,,,,,,,,,,,,,,,,,,,,,1,,,,,,,,,,,,,,,,,,,,,,,,,,,,,,,,,,,,,,,,,,,,,,108,141802,21,Female,1,2024/03/20_15:38:18,YZ,None,
,,,,,,test,1,6,3,1250,5,N,1,left,0.5385146220069146,1,0,,,,,,,,,,,,,,,,,,,,,1,,,,,,,,,,,,,,,,,,,,,,,,,,,,,,,,,,,,,,,,,,,,,,108,141802,21,Female,1,2024/03/20_15:38:18,YZ,None,
,,,,,,test,1,6,3,1250,6,J,0,right,0.4366104130021995,1,0,,,,,,,,,,,,,,,,,,,,,1,,,,,,,,,,,,,,,,,,,,,,,,,,,,,,,,,,,,,,,,,,,,,,108,141802,21,Female,1,2024/03/20_15:38:18,YZ,None,
,,,,,,test,1,6,3,1250,7,V,1,left,0.6852827010006877,1,0,,,,,,,,,,,,,,,,,,,,,1,,,,,,,,,,,,,,,,,,,,,,,,,,,,,,,,,,,,,,,,,,,,,,108,141802,21,Female,1,2024/03/20_15:38:18,YZ,None,
,,,,,,test,1,6,3,1250,8,Q,0,right,0.4602434629923664,1,0,,,,,,,,,,,,,,,,,,,,,1,,,,,,,,,,,,,,,,,,,,,,,,,,,,,,,,,,,,,,,,,,,,,,108,141802,21,Female,1,2024/03/20_15:38:18,YZ,None,
,,,,,,test,1,6,3,1250,9,J,1,right,0.5244246719958028,0,0,,,,,,,,,,,,,,,,,,,,,1,,,,,,,,,,,,,,,,,,,,,,,,,,,,,,,,,,,,,,,,,,,,,,108,141802,21,Female,1,2024/03/20_15:38:18,YZ,None,
,,,,,,test,1,6,3,1250,10,Q,0,left,0.5259950089966878,0,0,,,,,,,,,,,,,,,,,,,,,1,,,,,,,,,,,,,,,,,,,,,,,,,,,,,,,,,,,,,,,,,,,,,,108,141802,21,Female,1,2024/03/20_15:38:18,YZ,None,
,,,,,,Test,1,6,3,1250,,,,,,,,0.8333333333333333,0.6666666666666666,0.14285714285714285,0.8571428571428571,0.0,0.8571428571428572,0.4757361502968706,2,1,0,0,0,6,8,3,7,0,,,,1,,,,,,,,,,,,,,,,,,,,,,,,,,,,,,,,,,,,,,,,,,,,,,108,141802,21,Female,1,2024/03/20_15:38:18,YZ,None,
,,,,,240320_162216,TEST,1,6,3,1250,,,,,,,,,,,,,,,,,,,,,,,,,,,,1,6,7,6,cue1.png,hard,B,56,1.585679882002296,0,1223.2838197189994,1224.8848581839993,,,,,,,,,,,,,,,,,,,,,,,,,,,,,,,,,,,108,141802,21,Female,1,2024/03/20_15:38:18,YZ,None,
,,,,,,test,1,7,3,1250,1,Q,0,right,0.6221690389938885,1,0,,,,,,,,,,,,,,,,,,,,,1,,,,,,,,,,,,,,,,,,,,,,,,,,,,,,,,,,,,,,,,,,,,,,108,141802,21,Female,1,2024/03/20_15:38:18,YZ,None,
,,,,,,test,1,7,3,1250,2,J,0,right,0.3355953370046336,1,0,,,,,,,,,,,,,,,,,,,,,1,,,,,,,,,,,,,,,,,,,,,,,,,,,,,,,,,,,,,,,,,,,,,,108,141802,21,Female,1,2024/03/20_15:38:18,YZ,None,
,,,,,,test,1,7,3,1250,3,J,0,right,0.3763229619944468,1,0,,,,,,,,,,,,,,,,,,,,,1,,,,,,,,,,,,,,,,,,,,,,,,,,,,,,,,,,,,,,,,,,,,,,108,141802,21,Female,1,2024/03/20_15:38:18,YZ,None,
,,,,,,test,1,7,3,1250,4,Q,1,left,0.5242797829996562,1,0,,,,,,,,,,,,,,,,,,,,,1,,,,,,,,,,,,,,,,,,,,,,,,,,,,,,,,,,,,,,,,,,,,,,108,141802,21,Female,1,2024/03/20_15:38:18,YZ,None,
,,,,,,test,1,7,3,1250,5,X,0,right,0.40273701399564743,1,0,,,,,,,,,,,,,,,,,,,,,1,,,,,,,,,,,,,,,,,,,,,,,,,,,,,,,,,,,,,,,,,,,,,,108,141802,21,Female,1,2024/03/20_15:38:18,YZ,None,
,,,,,,test,1,7,3,1250,6,J,1,left,0.36544074201083276,1,0,,,,,,,,,,,,,,,,,,,,,1,,,,,,,,,,,,,,,,,,,,,,,,,,,,,,,,,,,,,,,,,,,,,,108,141802,21,Female,1,2024/03/20_15:38:18,YZ,None,
,,,,,,test,1,7,3,1250,7,Q,1,right,0.4812711310078157,0,0,,,,,,,,,,,,,,,,,,,,,1,,,,,,,,,,,,,,,,,,,,,,,,,,,,,,,,,,,,,,,,,,,,,,108,141802,21,Female,1,2024/03/20_15:38:18,YZ,None,
,,,,,,test,1,7,3,1250,8,Q,0,left,0.760183207996306,0,0,,,,,,,,,,,,,,,,,,,,,1,,,,,,,,,,,,,,,,,,,,,,,,,,,,,,,,,,,,,,,,,,,,,,108,141802,21,Female,1,2024/03/20_15:38:18,YZ,None,
,,,,,,test,1,7,3,1250,9,F,0,right,0.43063892200007103,1,0,,,,,,,,,,,,,,,,,,,,,1,,,,,,,,,,,,,,,,,,,,,,,,,,,,,,,,,,,,,,,,,,,,,,108,141802,21,Female,1,2024/03/20_15:38:18,YZ,None,
,,,,,,test,1,7,3,1250,10,N,0,left,0.47746441001072526,0,0,,,,,,,,,,,,,,,,,,,,,1,,,,,,,,,,,,,,,,,,,,,,,,,,,,,,,,,,,,,,,,,,,,,,108,141802,21,Female,1,2024/03/20_15:38:18,YZ,None,
,,,,,,Test,1,7,3,1250,,,,,,,,0.75,0.6666666666666666,0.2857142857142857,0.7142857142857143,0.0,0.7142857142857143,0.47761025480140235,2,2,0,0,0,5,7,3,7,0,,,,1,,,,,,,,,,,,,,,,,,,,,,,,,,,,,,,,,,,,,,,,,,,,,,108,141802,21,Female,1,2024/03/20_15:38:18,YZ,None,
,,,,,240320_162236,TEST,1,7,3,1250,,,,,,,,,,,,,,,,,,,,,,,,,,,,1,7,8,7,cue1.png,hard,B,36,1.2805818960041506,0,1243.9928290009993,1245.2831212049932,,,,,,,,,,,,,,,,,,,,,,,,,,,,,,,,,,,108,141802,21,Female,1,2024/03/20_15:38:18,YZ,None,
,,,,,,test,1,8,1,1250,1,J,0,right,0.560201758009498,1,0,,,,,,,,,,,,,,,,,,,,,1,,,,,,,,,,,,,,,,,,,,,,,,,,,,,,,,,,,,,,,,,,,,,,108,141802,21,Female,1,2024/03/20_15:38:18,YZ,None,
,,,,,,test,1,8,1,1250,2,J,1,left,0.5641009020037018,1,0,,,,,,,,,,,,,,,,,,,,,1,,,,,,,,,,,,,,,,,,,,,,,,,,,,,,,,,,,,,,,,,,,,,,108,141802,21,Female,1,2024/03/20_15:38:18,YZ,None,
,,,,,,test,1,8,1,1250,3,X,0,right,0.6082363280002028,1,0,,,,,,,,,,,,,,,,,,,,,1,,,,,,,,,,,,,,,,,,,,,,,,,,,,,,,,,,,,,,,,,,,,,,108,141802,21,Female,1,2024/03/20_15:38:18,YZ,None,
,,,,,,test,1,8,1,1250,4,X,1,left,0.5240625919977902,1,0,,,,,,,,,,,,,,,,,,,,,1,,,,,,,,,,,,,,,,,,,,,,,,,,,,,,,,,,,,,,,,,,,,,,108,141802,21,Female,1,2024/03/20_15:38:18,YZ,None,
,,,,,,test,1,8,1,1250,5,C,0,right,0.4440618619992165,1,0,,,,,,,,,,,,,,,,,,,,,1,,,,,,,,,,,,,,,,,,,,,,,,,,,,,,,,,,,,,,,,,,,,,,108,141802,21,Female,1,2024/03/20_15:38:18,YZ,None,
,,,,,,test,1,8,1,1250,6,Q,0,right,0.742560753991711,1,0,,,,,,,,,,,,,,,,,,,,,1,,,,,,,,,,,,,,,,,,,,,,,,,,,,,,,,,,,,,,,,,,,,,,108,141802,21,Female,1,2024/03/20_15:38:18,YZ,None,
