Instruction,Stimulus,Key,RT,START,END,Phase,Block,TrialN,NbackLevel,ISI,LetterN,Letter,Letter_isSame,Letter_Resp,Letter_RT,Letter_Accuracy,Letter_Timeout,Trial_A_measure,Trial_HR,Trial_FAR,Trial_CDR,Trial_MSR,Trial_ACC,Trial_RT,Trial_HitsCount,Trial_FAsCount,Trial_SameNoRespCount,Trial_DiffNoRespCount,Trial_NoRespCount,Trial_CDsCount,Trial_CorrectRespCount,Trial_SameLetterCount,Trial_DiffLetterCount,Trial_InvalidLetterCount,TrialCountCali,CaliEnd_A_measure,ISI_calibrated,Run,TrialIndex,TrialNumber_total,TrialNumber_valid,CueLearning,TrialDemandLearning,CueMapping,OnlineRating,OnlineRatingRT,OnlineRatingTimeOut,CueSTART,RatingSTART,OfflineRatingTimePoint,OfflineRatingQuesIndex,CueFigure,TrialDemand,OfflineRating,OfflineRatingRT,CueStart,OfflineRatingStart,PhaseType,CueLeft,CueDemandLeft,CueRight,CueDemandRight,Choice,ChoiceDemand,TaskDemand,ChoiceRT,ChoiceTimeOut,ChoiceSTART,CueCheck,CueDemandCheck,CorrectAnswer,Answer,AnswerDemand,AnswerRT,AnswerACC,AnswerTimeOut,CheckSTART,DemandRatingQuesIndex,QuesTLX,DemandLevel,DemandRating,DemandRatingRT,QuesStart,PID,SONA,Age,Gender,Run,TIME,EXPERIMENTER,frameRate,
1,./instructions/inst_begin/Slide2.png,right,18.714282993998495,0.14704267799970694,18.861325671998202,,,,,,,,,,,,,,,,,,,,,,,,,,,,,,,,,1,,,,,,,,,,,,,,,,,,,,,,,,,,,,,,,,,,,,,,,,,,,,,,62,151825,19,Female,1,2024/02/16_08:14:44,SD,None,
2,./instructions/inst_begin/Slide3.png,right,29.765971904998878,18.895291305001592,48.66126321000047,,,,,,,,,,,,,,,,,,,,,,,,,,,,,,,,,1,,,,,,,,,,,,,,,,,,,,,,,,,,,,,,,,,,,,,,,,,,,,,,62,151825,19,Female,1,2024/02/16_08:14:44,SD,None,
1,./instructions/inst_begin/Slide4.png,left,0.8622365790070035,48.69525378099934,49.55749036000634,,,,,,,,,,,,,,,,,,,,,,,,,,,,,,,,,1,,,,,,,,,,,,,,,,,,,,,,,,,,,,,,,,,,,,,,,,,,,,,,62,151825,19,Female,1,2024/02/16_08:14:44,SD,None,
2,./instructions/inst_begin/Slide3.png,right,3.2888515509985154,49.58048721200612,52.869338763004635,,,,,,,,,,,,,,,,,,,,,,,,,,,,,,,,,1,,,,,,,,,,,,,,,,,,,,,,,,,,,,,,,,,,,,,,,,,,,,,,62,151825,19,Female,1,2024/02/16_08:14:44,SD,None,
3,./instructions/inst_begin/Slide4.png,right,11.610715708011412,52.89847169999848,64.5091874080099,,,,,,,,,,,,,,,,,,,,,,,,,,,,,,,,,1,,,,,,,,,,,,,,,,,,,,,,,,,,,,,,,,,,,,,,,,,,,,,,62,151825,19,Female,1,2024/02/16_08:14:44,SD,None,
1,./instructions/inst_prac_2/Slide6.png,right,24.44266707499628,64.54653719700582,88.9892042720021,,,,,,,,,,,,,,,,,,,,,,,,,,,,,,,,,1,,,,,,,,,,,,,,,,,,,,,,,,,,,,,,,,,,,,,,,,,,,,,,62,151825,19,Female,1,2024/02/16_08:14:44,SD,None,
2,./instructions/inst_prac_2/Slide7.png,right,21.90179265900224,89.02337050699862,110.92516316600086,,,,,,,,,,,,,,,,,,,,,,,,,,,,,,,,,1,,,,,,,,,,,,,,,,,,,,,,,,,,,,,,,,,,,,,,,,,,,,,,62,151825,19,Female,1,2024/02/16_08:14:44,SD,None,
3,./instructions/inst_prac_2/Slide8.png,right,43.110480029004975,110.9589140349999,154.06939406400488,,,,,,,,,,,,,,,,,,,,,,,,,,,,,,,,,1,,,,,,,,,,,,,,,,,,,,,,,,,,,,,,,,,,,,,,,,,,,,,,62,151825,19,Female,1,2024/02/16_08:14:44,SD,None,
4,./instructions/inst_prac_2/Slide9.png,right,4.517579265011591,154.1035690639983,158.62114832900988,,,,,,,,,,,,,,,,,,,,,,,,,,,,,,,,,1,,,,,,,,,,,,,,,,,,,,,,,,,,,,,,,,,,,,,,,,,,,,,,62,151825,19,Female,1,2024/02/16_08:14:44,SD,None,
5,./instructions/inst_prac_2/Slide10.png,right,0.2003670159901958,158.65544914500788,158.85581616099807,,,,,,,,,,,,,,,,,,,,,,,,,,,,,,,,,1,,,,,,,,,,,,,,,,,,,,,,,,,,,,,,,,,,,,,,,,,,,,,,62,151825,19,Female,1,2024/02/16_08:14:44,SD,None,
6,./instructions/inst_prac_2/Slide11.png,right,10.433311132001108,158.88390306200017,169.31721419400128,,,,,,,,,,,,,,,,,,,,,,,,,,,,,,,,,1,,,,,,,,,,,,,,,,,,,,,,,,,,,,,,,,,,,,,,,,,,,,,,62,151825,19,Female,1,2024/02/16_08:14:44,SD,None,
7,./instructions/inst_prac_2/Slide12.png,right,1.2539768489950802,169.35108167600993,170.605058525005,,,,,,,,,,,,,,,,,,,,,,,,,,,,,,,,,1,,,,,,,,,,,,,,,,,,,,,,,,,,,,,,,,,,,,,,,,,,,,,,62,151825,19,Female,1,2024/02/16_08:14:44,SD,None,
8,./instructions/inst_prac_2/Slide13.png,right,3.054846617000294,170.6384509870113,173.6932976040116,,,,,,,,,,,,,,,,,,,,,,,,,,,,,,,,,1,,,,,,,,,,,,,,,,,,,,,,,,,,,,,,,,,,,,,,,,,,,,,,62,151825,19,Female,1,2024/02/16_08:14:44,SD,None,
9,./instructions/inst_prac_2/Slide14.png,right,22.680167004000396,173.72500809800113,196.40517510200152,,,,,,,,,,,,,,,,,,,,,,,,,,,,,,,,,1,,,,,,,,,,,,,,,,,,,,,,,,,,,,,,,,,,,,,,,,,,,,,,62,151825,19,Female,1,2024/02/16_08:14:44,SD,None,
10,./instructions/inst_prac_2/Slide15.png,right,7.557781010997132,196.4393924550095,203.99717346600664,,,,,,,,,,,,,,,,,,,,,,,,,,,,,,,,,1,,,,,,,,,,,,,,,,,,,,,,,,,,,,,,,,,,,,,,,,,,,,,,62,151825,19,Female,1,2024/02/16_08:14:44,SD,None,
,,,,,,practice,0,16,2,2583,1,S,0,right,5.324607763002859,1,0,,,,,,,,,,,,,,,,,,,,,1,,,,,,,,,,,,,,,,,,,,,,,,,,,,,,,,,,,,,,,,,,,,,,62,151825,19,Female,1,2024/02/16_08:14:44,SD,None,
,,,,,,practice,0,16,2,2583,2,Q,0,right,1.136576001998037,1,0,,,,,,,,,,,,,,,,,,,,,1,,,,,,,,,,,,,,,,,,,,,,,,,,,,,,,,,,,,,,,,,,,,,,62,151825,19,Female,1,2024/02/16_08:14:44,SD,None,
,,,,,,practice,0,16,2,2583,3,X,0,right,1.2947611889976542,1,0,,,,,,,,,,,,,,,,,,,,,1,,,,,,,,,,,,,,,,,,,,,,,,,,,,,,,,,,,,,,,,,,,,,,62,151825,19,Female,1,2024/02/16_08:14:44,SD,None,
,,,,,,practice,0,16,2,2583,4,Q,1,left,1.1071498469973449,1,0,,,,,,,,,,,,,,,,,,,,,1,,,,,,,,,,,,,,,,,,,,,,,,,,,,,,,,,,,,,,,,,,,,,,62,151825,19,Female,1,2024/02/16_08:14:44,SD,None,
,,,,,,practice,0,16,2,2583,5,V,0,right,0.7188562070077751,1,0,,,,,,,,,,,,,,,,,,,,,1,,,,,,,,,,,,,,,,,,,,,,,,,,,,,,,,,,,,,,,,,,,,,,62,151825,19,Female,1,2024/02/16_08:14:44,SD,None,
,,,,,,practice,0,16,2,2583,6,Q,1,left,0.6171274700027425,1,0,,,,,,,,,,,,,,,,,,,,,1,,,,,,,,,,,,,,,,,,,,,,,,,,,,,,,,,,,,,,,,,,,,,,62,151825,19,Female,1,2024/02/16_08:14:44,SD,None,
,,,,,,practice,0,16,2,2583,,,,,,,,1.0,1.0,0.0,1.0,0.0,1.0,1.6998464130010689,2,0,0,0,0,4,6,2,4,0,,,,1,,,,,,,,,,,,,,,,,,,,,,,,,,,,,,,,,,,,,,,,,,,,,,62,151825,19,Female,1,2024/02/16_08:14:44,SD,None,
1,./instructions/inst_to_cali/Slide20.png,right,10.861862177000148,220.55957052399754,231.42143270099768,,,,,,,,,,,,,,,,,,,,,,,,,,,,,,,,,1,,,,,,,,,,,,,,,,,,,,,,,,,,,,,,,,,,,,,,,,,,,,,,62,151825,19,Female,1,2024/02/16_08:14:44,SD,None,
1,./instructions/inst_cali/Slide22.png,right,22.2654250869964,231.45971202100918,253.72513710800558,,,,,,,,,,,,,,,,,,,,,,,,,,,,,,,,,1,,,,,,,,,,,,,,,,,,,,,,,,,,,,,,,,,,,,,,,,,,,,,,62,151825,19,Female,1,2024/02/16_08:14:44,SD,None,
,,,,,,calibration,0,18,2,583,1,X,0,None,nan,0,1,,,,,,,,,,,,,,,,,,,,,1,,,,,,,,,,,,,,,,,,,,,,,,,,,,,,,,,,,,,,,,,,,,,,62,151825,19,Female,1,2024/02/16_08:14:44,SD,None,
,,,,,,calibration,0,18,2,583,2,C,0,None,nan,0,1,,,,,,,,,,,,,,,,,,,,,1,,,,,,,,,,,,,,,,,,,,,,,,,,,,,,,,,,,,,,,,,,,,,,62,151825,19,Female,1,2024/02/16_08:14:44,SD,None,
,,,,,,calibration,0,18,2,583,3,S,0,None,nan,0,1,,,,,,,,,,,,,,,,,,,,,1,,,,,,,,,,,,,,,,,,,,,,,,,,,,,,,,,,,,,,,,,,,,,,62,151825,19,Female,1,2024/02/16_08:14:44,SD,None,
,,,,,,calibration,0,18,2,583,4,V,0,None,nan,0,1,,,,,,,,,,,,,,,,,,,,,1,,,,,,,,,,,,,,,,,,,,,,,,,,,,,,,,,,,,,,,,,,,,,,62,151825,19,Female,1,2024/02/16_08:14:44,SD,None,
,,,,,,calibration,0,18,2,583,5,X,0,None,nan,0,1,,,,,,,,,,,,,,,,,,,,,1,,,,,,,,,,,,,,,,,,,,,,,,,,,,,,,,,,,,,,,,,,,,,,62,151825,19,Female,1,2024/02/16_08:14:44,SD,None,
,,,,,,calibration,0,18,2,583,6,J,0,None,nan,0,1,,,,,,,,,,,,,,,,,,,,,1,,,,,,,,,,,,,,,,,,,,,,,,,,,,,,,,,,,,,,,,,,,,,,62,151825,19,Female,1,2024/02/16_08:14:44,SD,None,
,,,,,,calibration,0,18,2,583,7,X,1,None,nan,0,1,,,,,,,,,,,,,,,,,,,,,1,,,,,,,,,,,,,,,,,,,,,,,,,,,,,,,,,,,,,,,,,,,,,,62,151825,19,Female,1,2024/02/16_08:14:44,SD,None,
,,,,,,calibration,0,18,2,583,8,J,1,None,nan,0,1,,,,,,,,,,,,,,,,,,,,,1,,,,,,,,,,,,,,,,,,,,,,,,,,,,,,,,,,,,,,,,,,,,,,62,151825,19,Female,1,2024/02/16_08:14:44,SD,None,
,,,,,,calibration,0,18,2,583,9,V,0,None,nan,0,1,,,,,,,,,,,,,,,,,,,,,1,,,,,,,,,,,,,,,,,,,,,,,,,,,,,,,,,,,,,,,,,,,,,,62,151825,19,Female,1,2024/02/16_08:14:44,SD,None,
,,,,,,calibration,0,18,2,583,10,J,1,None,nan,0,1,,,,,,,,,,,,,,,,,,,,,1,,,,,,,,,,,,,,,,,,,,,,,,,,,,,,,,,,,,,,,,,,,,,,62,151825,19,Female,1,2024/02/16_08:14:44,SD,None,
,,,,,,calibration,0,18,2,583,11,Q,0,None,nan,0,1,,,,,,,,,,,,,,,,,,,,,1,,,,,,,,,,,,,,,,,,,,,,,,,,,,,,,,,,,,,,,,,,,,,,62,151825,19,Female,1,2024/02/16_08:14:44,SD,None,
,,,,,,calibration,0,18,2,583,12,F,0,None,nan,0,1,,,,,,,,,,,,,,,,,,,,,1,,,,,,,,,,,,,,,,,,,,,,,,,,,,,,,,,,,,,,,,,,,,,,62,151825,19,Female,1,2024/02/16_08:14:44,SD,None,
,,,,,,calibration,0,18,2,583,13,Q,1,None,nan,0,1,,,,,,,,,,,,,,,,,,,,,1,,,,,,,,,,,,,,,,,,,,,,,,,,,,,,,,,,,,,,,,,,,,,,62,151825,19,Female,1,2024/02/16_08:14:44,SD,None,
,,,,,,calibration,0,18,2,583,14,N,0,None,nan,0,1,,,,,,,,,,,,,,,,,,,,,1,,,,,,,,,,,,,,,,,,,,,,,,,,,,,,,,,,,,,,,,,,,,,,62,151825,19,Female,1,2024/02/16_08:14:44,SD,None,
,,,,,,calibration,0,18,2,583,15,J,0,None,nan,0,1,,,,,,,,,,,,,,,,,,,,,1,,,,,,,,,,,,,,,,,,,,,,,,,,,,,,,,,,,,,,,,,,,,,,62,151825,19,Female,1,2024/02/16_08:14:44,SD,None,
,,,,,,calibration,0,18,2,583,,,,,,,,nan,0.0,nan,nan,1.0,nan,nan,0,0,4,11,15,0,0,4,11,0,,,,1,,,,,,,,,,,,,,,,,,,,,,,,,,,,,,,,,,,,,,,,,,,,,,62,151825,19,Female,1,2024/02/16_08:14:44,SD,None,
,,,,,,Calibration,0,,2,583,,,,,,,,,,,,,,,,,,,,,,,,,1,,,1,,,,,,,,,,,,,,,,,,,,,,,,,,,,,,,,,,,,,,,,,,,,,,62,151825,19,Female,1,2024/02/16_08:14:44,SD,None,
,,,,,,calibration,0,6,2,583,1,J,0,right,0.7457942570035812,1,0,,,,,,,,,,,,,,,,,,,,,1,,,,,,,,,,,,,,,,,,,,,,,,,,,,,,,,,,,,,,,,,,,,,,62,151825,19,Female,1,2024/02/16_08:14:44,SD,None,
,,,,,,calibration,0,6,2,583,2,S,0,right,0.30937349901068956,1,0,,,,,,,,,,,,,,,,,,,,,1,,,,,,,,,,,,,,,,,,,,,,,,,,,,,,,,,,,,,,,,,,,,,,62,151825,19,Female,1,2024/02/16_08:14:44,SD,None,
,,,,,,calibration,0,6,2,583,3,C,0,left,0.32464554999023676,0,0,,,,,,,,,,,,,,,,,,,,,1,,,,,,,,,,,,,,,,,,,,,,,,,,,,,,,,,,,,,,,,,,,,,,62,151825,19,Female,1,2024/02/16_08:14:44,SD,None,
,,,,,,calibration,0,6,2,583,4,J,0,right,0.22827626999060158,1,0,,,,,,,,,,,,,,,,,,,,,1,,,,,,,,,,,,,,,,,,,,,,,,,,,,,,,,,,,,,,,,,,,,,,62,151825,19,Female,1,2024/02/16_08:14:44,SD,None,
,,,,,,calibration,0,6,2,583,5,N,0,right,0.27629120599885937,1,0,,,,,,,,,,,,,,,,,,,,,1,,,,,,,,,,,,,,,,,,,,,,,,,,,,,,,,,,,,,,,,,,,,,,62,151825,19,Female,1,2024/02/16_08:14:44,SD,None,
,,,,,,calibration,0,6,2,583,6,J,1,left,0.22776873700786382,1,0,,,,,,,,,,,,,,,,,,,,,1,,,,,,,,,,,,,,,,,,,,,,,,,,,,,,,,,,,,,,,,,,,,,,62,151825,19,Female,1,2024/02/16_08:14:44,SD,None,
,,,,,,calibration,0,6,2,583,7,N,1,right,0.22039448699797504,0,0,,,,,,,,,,,,,,,,,,,,,1,,,,,,,,,,,,,,,,,,,,,,,,,,,,,,,,,,,,,,,,,,,,,,62,151825,19,Female,1,2024/02/16_08:14:44,SD,None,
,,,,,,calibration,0,6,2,583,8,V,0,left,0.280304719999549,0,0,,,,,,,,,,,,,,,,,,,,,1,,,,,,,,,,,,,,,,,,,,,,,,,,,,,,,,,,,,,,,,,,,,,,62,151825,19,Female,1,2024/02/16_08:14:44,SD,None,
,,,,,,calibration,0,6,2,583,9,N,1,left,0.5268809839908499,1,0,,,,,,,,,,,,,,,,,,,,,1,,,,,,,,,,,,,,,,,,,,,,,,,,,,,,,,,,,,,,,,,,,,,,62,151825,19,Female,1,2024/02/16_08:14:44,SD,None,
,,,,,,calibration,0,6,2,583,10,F,0,right,0.5442425579967676,1,0,,,,,,,,,,,,,,,,,,,,,1,,,,,,,,,,,,,,,,,,,,,,,,,,,,,,,,,,,,,,,,,,,,,,62,151825,19,Female,1,2024/02/16_08:14:44,SD,None,
,,,,,,calibration,0,6,2,583,11,X,0,left,0.3130470400064951,0,0,,,,,,,,,,,,,,,,,,,,,1,,,,,,,,,,,,,,,,,,,,,,,,,,,,,,,,,,,,,,,,,,,,,,62,151825,19,Female,1,2024/02/16_08:14:44,SD,None,
,,,,,,calibration,0,6,2,583,12,J,0,right,0.2961310719983885,1,0,,,,,,,,,,,,,,,,,,,,,1,,,,,,,,,,,,,,,,,,,,,,,,,,,,,,,,,,,,,,,,,,,,,,62,151825,19,Female,1,2024/02/16_08:14:44,SD,None,
,,,,,,calibration,0,6,2,583,13,X,1,left,0.25024875400413293,1,0,,,,,,,,,,,,,,,,,,,,,1,,,,,,,,,,,,,,,,,,,,,,,,,,,,,,,,,,,,,,,,,,,,,,62,151825,19,Female,1,2024/02/16_08:14:44,SD,None,
,,,,,,calibration,0,6,2,583,14,J,1,left,0.4394048670073971,1,0,,,,,,,,,,,,,,,,,,,,,1,,,,,,,,,,,,,,,,,,,,,,,,,,,,,,,,,,,,,,,,,,,,,,62,151825,19,Female,1,2024/02/16_08:14:44,SD,None,
,,,,,,calibration,0,6,2,583,15,Q,0,left,0.5254030989890452,0,0,,,,,,,,,,,,,,,,,,,,,1,,,,,,,,,,,,,,,,,,,,,,,,,,,,,,,,,,,,,,,,,,,,,,62,151825,19,Female,1,2024/02/16_08:14:44,SD,None,
,,,,,,calibration,0,6,2,583,,,,,,,,0.77,0.8,0.4,0.6,0.0,0.6,0.36721380666616216,4,4,0,0,0,6,10,5,10,0,,,,1,,,,,,,,,,,,,,,,,,,,,,,,,,,,,,,,,,,,,,,,,,,,,,62,151825,19,Female,1,2024/02/16_08:14:44,SD,None,
,,,,,,Calibration,0,,2,583,,,,,,,,,,,,,,,,,,,,,,,,,2,,,1,,,,,,,,,,,,,,,,,,,,,,,,,,,,,,,,,,,,,,,,,,,,,,62,151825,19,Female,1,2024/02/16_08:14:44,SD,None,
,,,,,,calibration,0,13,2,583,1,C,0,None,nan,0,1,,,,,,,,,,,,,,,,,,,,,1,,,,,,,,,,,,,,,,,,,,,,,,,,,,,,,,,,,,,,,,,,,,,,62,151825,19,Female,1,2024/02/16_08:14:44,SD,None,
,,,,,,calibration,0,13,2,583,2,S,0,None,nan,0,1,,,,,,,,,,,,,,,,,,,,,1,,,,,,,,,,,,,,,,,,,,,,,,,,,,,,,,,,,,,,,,,,,,,,62,151825,19,Female,1,2024/02/16_08:14:44,SD,None,
,,,,,,calibration,0,13,2,583,3,Q,0,None,nan,0,1,,,,,,,,,,,,,,,,,,,,,1,,,,,,,,,,,,,,,,,,,,,,,,,,,,,,,,,,,,,,,,,,,,,,62,151825,19,Female,1,2024/02/16_08:14:44,SD,None,
,,,,,,calibration,0,13,2,583,4,F,0,None,nan,0,1,,,,,,,,,,,,,,,,,,,,,1,,,,,,,,,,,,,,,,,,,,,,,,,,,,,,,,,,,,,,,,,,,,,,62,151825,19,Female,1,2024/02/16_08:14:44,SD,None,
,,,,,,calibration,0,13,2,583,5,Q,1,None,nan,0,1,,,,,,,,,,,,,,,,,,,,,1,,,,,,,,,,,,,,,,,,,,,,,,,,,,,,,,,,,,,,,,,,,,,,62,151825,19,Female,1,2024/02/16_08:14:44,SD,None,
,,,,,,calibration,0,13,2,583,6,X,0,None,nan,0,1,,,,,,,,,,,,,,,,,,,,,1,,,,,,,,,,,,,,,,,,,,,,,,,,,,,,,,,,,,,,,,,,,,,,62,151825,19,Female,1,2024/02/16_08:14:44,SD,None,
,,,,,,calibration,0,13,2,583,7,Q,1,None,nan,0,1,,,,,,,,,,,,,,,,,,,,,1,,,,,,,,,,,,,,,,,,,,,,,,,,,,,,,,,,,,,,,,,,,,,,62,151825,19,Female,1,2024/02/16_08:14:44,SD,None,
,,,,,,calibration,0,13,2,583,8,C,0,None,nan,0,1,,,,,,,,,,,,,,,,,,,,,1,,,,,,,,,,,,,,,,,,,,,,,,,,,,,,,,,,,,,,,,,,,,,,62,151825,19,Female,1,2024/02/16_08:14:44,SD,None,
,,,,,,calibration,0,13,2,583,9,Q,1,None,nan,0,1,,,,,,,,,,,,,,,,,,,,,1,,,,,,,,,,,,,,,,,,,,,,,,,,,,,,,,,,,,,,,,,,,,,,62,151825,19,Female,1,2024/02/16_08:14:44,SD,None,
,,,,,,calibration,0,13,2,583,10,X,0,None,nan,0,1,,,,,,,,,,,,,,,,,,,,,1,,,,,,,,,,,,,,,,,,,,,,,,,,,,,,,,,,,,,,,,,,,,,,62,151825,19,Female,1,2024/02/16_08:14:44,SD,None,
,,,,,,calibration,0,13,2,583,11,C,0,None,nan,0,1,,,,,,,,,,,,,,,,,,,,,1,,,,,,,,,,,,,,,,,,,,,,,,,,,,,,,,,,,,,,,,,,,,,,62,151825,19,Female,1,2024/02/16_08:14:44,SD,None,
,,,,,,calibration,0,13,2,583,12,X,1,None,nan,0,1,,,,,,,,,,,,,,,,,,,,,1,,,,,,,,,,,,,,,,,,,,,,,,,,,,,,,,,,,,,,,,,,,,,,62,151825,19,Female,1,2024/02/16_08:14:44,SD,None,
,,,,,,calibration,0,13,2,583,13,N,0,None,nan,0,1,,,,,,,,,,,,,,,,,,,,,1,,,,,,,,,,,,,,,,,,,,,,,,,,,,,,,,,,,,,,,,,,,,,,62,151825,19,Female,1,2024/02/16_08:14:44,SD,None,
,,,,,,calibration,0,13,2,583,14,X,1,None,nan,0,1,,,,,,,,,,,,,,,,,,,,,1,,,,,,,,,,,,,,,,,,,,,,,,,,,,,,,,,,,,,,,,,,,,,,62,151825,19,Female,1,2024/02/16_08:14:44,SD,None,
,,,,,,calibration,0,13,2,583,15,V,0,None,nan,0,1,,,,,,,,,,,,,,,,,,,,,1,,,,,,,,,,,,,,,,,,,,,,,,,,,,,,,,,,,,,,,,,,,,,,62,151825,19,Female,1,2024/02/16_08:14:44,SD,None,
,,,,,,calibration,0,13,2,583,,,,,,,,nan,0.0,nan,nan,1.0,nan,nan,0,0,5,10,15,0,0,5,10,0,,,,1,,,,,,,,,,,,,,,,,,,,,,,,,,,,,,,,,,,,,,,,,,,,,,62,151825,19,Female,1,2024/02/16_08:14:44,SD,None,
,,,,,,Calibration,0,,2,583,,,,,,,,,,,,,,,,,,,,,,,,,3,,,1,,,,,,,,,,,,,,,,,,,,,,,,,,,,,,,,,,,,,,,,,,,,,,62,151825,19,Female,1,2024/02/16_08:14:44,SD,None,
,,,,,,calibration,0,34,2,583,1,Q,0,left,1.114627234012005,0,0,,,,,,,,,,,,,,,,,,,,,1,,,,,,,,,,,,,,,,,,,,,,,,,,,,,,,,,,,,,,,,,,,,,,62,151825,19,Female,1,2024/02/16_08:14:44,SD,None,
,,,,,,calibration,0,34,2,583,2,X,0,left,1.0248385180020705,0,0,,,,,,,,,,,,,,,,,,,,,1,,,,,,,,,,,,,,,,,,,,,,,,,,,,,,,,,,,,,,,,,,,,,,62,151825,19,Female,1,2024/02/16_08:14:44,SD,None,
,,,,,,calibration,0,34,2,583,3,Q,1,right,0.9242806539987214,0,0,,,,,,,,,,,,,,,,,,,,,1,,,,,,,,,,,,,,,,,,,,,,,,,,,,,,,,,,,,,,,,,,,,,,62,151825,19,Female,1,2024/02/16_08:14:44,SD,None,
,,,,,,calibration,0,34,2,583,4,F,0,left,0.7397995719948085,0,0,,,,,,,,,,,,,,,,,,,,,1,,,,,,,,,,,,,,,,,,,,,,,,,,,,,,,,,,,,,,,,,,,,,,62,151825,19,Female,1,2024/02/16_08:14:44,SD,None,
,,,,,,calibration,0,34,2,583,5,Q,1,right,0.542381082996144,0,0,,,,,,,,,,,,,,,,,,,,,1,,,,,,,,,,,,,,,,,,,,,,,,,,,,,,,,,,,,,,,,,,,,,,62,151825,19,Female,1,2024/02/16_08:14:44,SD,None,
,,,,,,calibration,0,34,2,583,6,N,0,left,0.5737136429961538,0,0,,,,,,,,,,,,,,,,,,,,,1,,,,,,,,,,,,,,,,,,,,,,,,,,,,,,,,,,,,,,,,,,,,,,62,151825,19,Female,1,2024/02/16_08:14:44,SD,None,
,,,,,,calibration,0,34,2,583,7,C,0,left,0.7050121060019592,0,0,,,,,,,,,,,,,,,,,,,,,1,,,,,,,,,,,,,,,,,,,,,,,,,,,,,,,,,,,,,,,,,,,,,,62,151825,19,Female,1,2024/02/16_08:14:44,SD,None,
,,,,,,calibration,0,34,2,583,8,Q,0,right,0.4817269510094775,1,0,,,,,,,,,,,,,,,,,,,,,1,,,,,,,,,,,,,,,,,,,,,,,,,,,,,,,,,,,,,,,,,,,,,,62,151825,19,Female,1,2024/02/16_08:14:44,SD,None,
,,,,,,calibration,0,34,2,583,9,X,0,left,0.5264632720063673,0,0,,,,,,,,,,,,,,,,,,,,,1,,,,,,,,,,,,,,,,,,,,,,,,,,,,,,,,,,,,,,,,,,,,,,62,151825,19,Female,1,2024/02/16_08:14:44,SD,None,
,,,,,,calibration,0,34,2,583,10,N,0,left,0.6041712849983014,0,0,,,,,,,,,,,,,,,,,,,,,1,,,,,,,,,,,,,,,,,,,,,,,,,,,,,,,,,,,,,,,,,,,,,,62,151825,19,Female,1,2024/02/16_08:14:44,SD,None,
,,,,,,calibration,0,34,2,583,11,X,1,right,0.8242568200075766,0,0,,,,,,,,,,,,,,,,,,,,,1,,,,,,,,,,,,,,,,,,,,,,,,,,,,,,,,,,,,,,,,,,,,,,62,151825,19,Female,1,2024/02/16_08:14:44,SD,None,
,,,,,,calibration,0,34,2,583,12,N,1,left,0.4640348289976828,1,0,,,,,,,,,,,,,,,,,,,,,1,,,,,,,,,,,,,,,,,,,,,,,,,,,,,,,,,,,,,,,,,,,,,,62,151825,19,Female,1,2024/02/16_08:14:44,SD,None,
,,,,,,calibration,0,34,2,583,13,Q,0,left,1.521634107994032,0,0,,,,,,,,,,,,,,,,,,,,,1,,,,,,,,,,,,,,,,,,,,,,,,,,,,,,,,,,,,,,,,,,,,,,62,151825,19,Female,1,2024/02/16_08:14:44,SD,None,
,,,,,,calibration,0,34,2,583,14,F,0,right,0.4701255459949607,1,0,,,,,,,,,,,,,,,,,,,,,1,,,,,,,,,,,,,,,,,,,,,,,,,,,,,,,,,,,,,,,,,,,,,,62,151825,19,Female,1,2024/02/16_08:14:44,SD,None,
,,,,,,calibration,0,34,2,583,15,Q,1,left,1.8950845850049518,1,0,,,,,,,,,,,,,,,,,,,,,1,,,,,,,,,,,,,,,,,,,,,,,,,,,,,,,,,,,,,,,,,,,,,,62,151825,19,Female,1,2024/02/16_08:14:44,SD,None,
,,,,,,calibration,0,34,2,583,,,,,,,,0.06999999999999998,0.4,0.8,0.2,0.0,0.19999999999999996,0.8274766804010142,2,8,0,0,0,2,4,5,10,0,,,,1,,,,,,,,,,,,,,,,,,,,,,,,,,,,,,,,,,,,,,,,,,,,,,62,151825,19,Female,1,2024/02/16_08:14:44,SD,None,
,,,,,,Calibration,0,,2,583,,,,,,,,,,,,,,,,,,,,,,,,,4,,,1,,,,,,,,,,,,,,,,,,,,,,,,,,,,,,,,,,,,,,,,,,,,,,62,151825,19,Female,1,2024/02/16_08:14:44,SD,None,
,,,,,,calibration,0,16,2,679,1,X,0,right,0.34846510500938166,1,0,,,,,,,,,,,,,,,,,,,,,1,,,,,,,,,,,,,,,,,,,,,,,,,,,,,,,,,,,,,,,,,,,,,,62,151825,19,Female,1,2024/02/16_08:14:44,SD,None,
,,,,,,calibration,0,16,2,679,2,N,0,right,nan,0,1,,,,,,,,,,,,,,,,,,,,,1,,,,,,,,,,,,,,,,,,,,,,,,,,,,,,,,,,,,,,,,,,,,,,62,151825,19,Female,1,2024/02/16_08:14:44,SD,None,
,,,,,,calibration,0,16,2,679,3,X,1,left,0.0,1,0,,,,,,,,,,,,,,,,,,,,,1,,,,,,,,,,,,,,,,,,,,,,,,,,,,,,,,,,,,,,,,,,,,,,62,151825,19,Female,1,2024/02/16_08:14:44,SD,None,
,,,,,,calibration,0,16,2,679,4,F,0,left,0.510230354993837,0,0,,,,,,,,,,,,,,,,,,,,,1,,,,,,,,,,,,,,,,,,,,,,,,,,,,,,,,,,,,,,,,,,,,,,62,151825,19,Female,1,2024/02/16_08:14:44,SD,None,
,,,,,,calibration,0,16,2,679,5,Q,0,left,0.5252838659944246,0,0,,,,,,,,,,,,,,,,,,,,,1,,,,,,,,,,,,,,,,,,,,,,,,,,,,,,,,,,,,,,,,,,,,,,62,151825,19,Female,1,2024/02/16_08:14:44,SD,None,
,,,,,,calibration,0,16,2,679,6,X,0,right,0.46299136099696625,1,0,,,,,,,,,,,,,,,,,,,,,1,,,,,,,,,,,,,,,,,,,,,,,,,,,,,,,,,,,,,,,,,,,,,,62,151825,19,Female,1,2024/02/16_08:14:44,SD,None,
,,,,,,calibration,0,16,2,679,7,Q,1,right,1.7727134320011828,0,0,,,,,,,,,,,,,,,,,,,,,1,,,,,,,,,,,,,,,,,,,,,,,,,,,,,,,,,,,,,,,,,,,,,,62,151825,19,Female,1,2024/02/16_08:14:44,SD,None,
,,,,,,calibration,0,16,2,679,8,J,0,left,0.8857247249979991,0,0,,,,,,,,,,,,,,,,,,,,,1,,,,,,,,,,,,,,,,,,,,,,,,,,,,,,,,,,,,,,,,,,,,,,62,151825,19,Female,1,2024/02/16_08:14:44,SD,None,
,,,,,,calibration,0,16,2,679,9,V,0,left,0.7449770710081793,0,0,,,,,,,,,,,,,,,,,,,,,1,,,,,,,,,,,,,,,,,,,,,,,,,,,,,,,,,,,,,,,,,,,,,,62,151825,19,Female,1,2024/02/16_08:14:44,SD,None,
,,,,,,calibration,0,16,2,679,10,N,0,left,0.7090603039978305,0,0,,,,,,,,,,,,,,,,,,,,,1,,,,,,,,,,,,,,,,,,,,,,,,,,,,,,,,,,,,,,,,,,,,,,62,151825,19,Female,1,2024/02/16_08:14:44,SD,None,
,,,,,,calibration,0,16,2,679,11,X,0,left,0.5582875929976581,0,0,,,,,,,,,,,,,,,,,,,,,1,,,,,,,,,,,,,,,,,,,,,,,,,,,,,,,,,,,,,,,,,,,,,,62,151825,19,Female,1,2024/02/16_08:14:44,SD,None,
,,,,,,calibration,0,16,2,679,12,N,1,right,0.7476967399998102,0,0,,,,,,,,,,,,,,,,,,,,,1,,,,,,,,,,,,,,,,,,,,,,,,,,,,,,,,,,,,,,,,,,,,,,62,151825,19,Female,1,2024/02/16_08:14:44,SD,None,
,,,,,,calibration,0,16,2,679,13,X,1,left,0.8360983939928701,1,0,,,,,,,,,,,,,,,,,,,,,1,,,,,,,,,,,,,,,,,,,,,,,,,,,,,,,,,,,,,,,,,,,,,,62,151825,19,Female,1,2024/02/16_08:14:44,SD,None,
,,,,,,calibration,0,16,2,679,14,J,0,left,1.0240015539893648,0,0,,,,,,,,,,,,,,,,,,,,,1,,,,,,,,,,,,,,,,,,,,,,,,,,,,,,,,,,,,,,,,,,,,,,62,151825,19,Female,1,2024/02/16_08:14:44,SD,None,
,,,,,,calibration,0,16,2,679,,,,,,,,0.0888888888888889,0.5,0.7,0.2222222222222222,0.07142857142857142,0.22857142857142862,0.701963884613808,2,7,0,1,1,2,4,4,10,0,,,,1,,,,,,,,,,,,,,,,,,,,,,,,,,,,,,,,,,,,,,,,,,,,,,62,151825,19,Female,1,2024/02/16_08:14:44,SD,None,
,,,,,,Calibration,0,,2,679,,,,,,,,,,,,,,,,,,,,,,,,,5,,,1,,,,,,,,,,,,,,,,,,,,,,,,,,,,,,,,,,,,,,,,,,,,,,62,151825,19,Female,1,2024/02/16_08:14:44,SD,None,
,,,,,,calibration,0,7,2,788,1,S,0,right,1.9993068620096892,1,0,,,,,,,,,,,,,,,,,,,,,1,,,,,,,,,,,,,,,,,,,,,,,,,,,,,,,,,,,,,,,,,,,,,,62,151825,19,Female,1,2024/02/16_08:14:44,SD,None,
,,,,,,calibration,0,7,2,788,2,F,0,right,0.5812822469888488,1,0,,,,,,,,,,,,,,,,,,,,,1,,,,,,,,,,,,,,,,,,,,,,,,,,,,,,,,,,,,,,,,,,,,,,62,151825,19,Female,1,2024/02/16_08:14:44,SD,None,
,,,,,,calibration,0,7,2,788,3,S,1,right,0.5573246290005045,0,0,,,,,,,,,,,,,,,,,,,,,1,,,,,,,,,,,,,,,,,,,,,,,,,,,,,,,,,,,,,,,,,,,,,,62,151825,19,Female,1,2024/02/16_08:14:44,SD,None,
,,,,,,calibration,0,7,2,788,4,X,0,right,0.35137893799401354,1,0,,,,,,,,,,,,,,,,,,,,,1,,,,,,,,,,,,,,,,,,,,,,,,,,,,,,,,,,,,,,,,,,,,,,62,151825,19,Female,1,2024/02/16_08:14:44,SD,None,
,,,,,,calibration,0,7,2,788,5,S,1,left,0.9463921309943544,1,0,,,,,,,,,,,,,,,,,,,,,1,,,,,,,,,,,,,,,,,,,,,,,,,,,,,,,,,,,,,,,,,,,,,,62,151825,19,Female,1,2024/02/16_08:14:44,SD,None,
,,,,,,calibration,0,7,2,788,6,C,0,left,1.2846752530022059,0,0,,,,,,,,,,,,,,,,,,,,,1,,,,,,,,,,,,,,,,,,,,,,,,,,,,,,,,,,,,,,,,,,,,,,62,151825,19,Female,1,2024/02/16_08:14:44,SD,None,
,,,,,,calibration,0,7,2,788,7,Q,0,right,0.7213956579944352,1,0,,,,,,,,,,,,,,,,,,,,,1,,,,,,,,,,,,,,,,,,,,,,,,,,,,,,,,,,,,,,,,,,,,,,62,151825,19,Female,1,2024/02/16_08:14:44,SD,None,
,,,,,,calibration,0,7,2,788,8,C,1,left,0.9971635880065151,1,0,,,,,,,,,,,,,,,,,,,,,1,,,,,,,,,,,,,,,,,,,,,,,,,,,,,,,,,,,,,,,,,,,,,,62,151825,19,Female,1,2024/02/16_08:14:44,SD,None,
,,,,,,calibration,0,7,2,788,9,Q,1,right,0.6580770699947607,0,0,,,,,,,,,,,,,,,,,,,,,1,,,,,,,,,,,,,,,,,,,,,,,,,,,,,,,,,,,,,,,,,,,,,,62,151825,19,Female,1,2024/02/16_08:14:44,SD,None,
,,,,,,calibration,0,7,2,788,10,X,0,left,0.7032891720009502,0,0,,,,,,,,,,,,,,,,,,,,,1,,,,,,,,,,,,,,,,,,,,,,,,,,,,,,,,,,,,,,,,,,,,,,62,151825,19,Female,1,2024/02/16_08:14:44,SD,None,
,,,,,,calibration,0,7,2,788,11,J,0,left,0.7880233899923041,0,0,,,,,,,,,,,,,,,,,,,,,1,,,,,,,,,,,,,,,,,,,,,,,,,,,,,,,,,,,,,,,,,,,,,,62,151825,19,Female,1,2024/02/16_08:14:44,SD,None,
,,,,,,calibration,0,7,2,788,12,Q,0,right,0.7373928600136423,1,0,,,,,,,,,,,,,,,,,,,,,1,,,,,,,,,,,,,,,,,,,,,,,,,,,,,,,,,,,,,,,,,,,,,,62,151825,19,Female,1,2024/02/16_08:14:44,SD,None,
,,,,,,calibration,0,7,2,788,13,V,0,left,0.4441356879979139,0,0,,,,,,,,,,,,,,,,,,,,,1,,,,,,,,,,,,,,,,,,,,,,,,,,,,,,,,,,,,,,,,,,,,,,62,151825,19,Female,1,2024/02/16_08:14:44,SD,None,
,,,,,,calibration,0,7,2,788,,,,,,,,0.5416666666666666,0.5,0.4444444444444444,0.5555555555555556,0.0,0.5555555555555556,0.8284490373838568,2,4,0,0,0,5,7,4,9,0,,,,1,,,,,,,,,,,,,,,,,,,,,,,,,,,,,,,,,,,,,,,,,,,,,,62,151825,19,Female,1,2024/02/16_08:14:44,SD,None,
,,,,,,Calibration,0,,2,788,,,,,,,,,,,,,,,,,,,,,,,,,6,,,1,,,,,,,,,,,,,,,,,,,,,,,,,,,,,,,,,,,,,,,,,,,,,,62,151825,19,Female,1,2024/02/16_08:14:44,SD,None,
,,,,,,calibration,0,7,2,917,1,S,0,left,0.8909562839980936,0,0,,,,,,,,,,,,,,,,,,,,,1,,,,,,,,,,,,,,,,,,,,,,,,,,,,,,,,,,,,,,,,,,,,,,62,151825,19,Female,1,2024/02/16_08:14:44,SD,None,
,,,,,,calibration,0,7,2,917,2,N,0,left,0.6086417920014355,0,0,,,,,,,,,,,,,,,,,,,,,1,,,,,,,,,,,,,,,,,,,,,,,,,,,,,,,,,,,,,,,,,,,,,,62,151825,19,Female,1,2024/02/16_08:14:44,SD,None,
,,,,,,calibration,0,7,2,917,3,J,0,left,0.6242187349998858,0,0,,,,,,,,,,,,,,,,,,,,,1,,,,,,,,,,,,,,,,,,,,,,,,,,,,,,,,,,,,,,,,,,,,,,62,151825,19,Female,1,2024/02/16_08:14:44,SD,None,
,,,,,,calibration,0,7,2,917,4,N,1,left,0.5257401279959595,1,0,,,,,,,,,,,,,,,,,,,,,1,,,,,,,,,,,,,,,,,,,,,,,,,,,,,,,,,,,,,,,,,,,,,,62,151825,19,Female,1,2024/02/16_08:14:44,SD,None,
,,,,,,calibration,0,7,2,917,5,J,1,left,0.7326933520089369,1,0,,,,,,,,,,,,,,,,,,,,,1,,,,,,,,,,,,,,,,,,,,,,,,,,,,,,,,,,,,,,,,,,,,,,62,151825,19,Female,1,2024/02/16_08:14:44,SD,None,
,,,,,,calibration,0,7,2,917,6,Q,0,left,0.9251815549941966,0,0,,,,,,,,,,,,,,,,,,,,,1,,,,,,,,,,,,,,,,,,,,,,,,,,,,,,,,,,,,,,,,,,,,,,62,151825,19,Female,1,2024/02/16_08:14:44,SD,None,
,,,,,,calibration,0,7,2,917,7,J,1,right,0.9644248539989349,0,0,,,,,,,,,,,,,,,,,,,,,1,,,,,,,,,,,,,,,,,,,,,,,,,,,,,,,,,,,,,,,,,,,,,,62,151825,19,Female,1,2024/02/16_08:14:44,SD,None,
,,,,,,calibration,0,7,2,917,8,N,0,left,0.5575672279956052,0,0,,,,,,,,,,,,,,,,,,,,,1,,,,,,,,,,,,,,,,,,,,,,,,,,,,,,,,,,,,,,,,,,,,,,62,151825,19,Female,1,2024/02/16_08:14:44,SD,None,
,,,,,,calibration,0,7,2,917,9,J,1,right,0.6065161890001036,0,0,,,,,,,,,,,,,,,,,,,,,1,,,,,,,,,,,,,,,,,,,,,,,,,,,,,,,,,,,,,,,,,,,,,,62,151825,19,Female,1,2024/02/16_08:14:44,SD,None,
,,,,,,calibration,0,7,2,917,10,F,0,left,0.5344677139946725,0,0,,,,,,,,,,,,,,,,,,,,,1,,,,,,,,,,,,,,,,,,,,,,,,,,,,,,,,,,,,,,,,,,,,,,62,151825,19,Female,1,2024/02/16_08:14:44,SD,None,
,,,,,,calibration,0,7,2,917,11,Q,0,left,nan,0,1,,,,,,,,,,,,,,,,,,,,,1,,,,,,,,,,,,,,,,,,,,,,,,,,,,,,,,,,,,,,,,,,,,,,62,151825,19,Female,1,2024/02/16_08:14:44,SD,None,
,,,,,,calibration,0,7,2,917,12,X,0,right,0.06385300999681931,1,0,,,,,,,,,,,,,,,,,,,,,1,,,,,,,,,,,,,,,,,,,,,,,,,,,,,,,,,,,,,,,,,,,,,,62,151825,19,Female,1,2024/02/16_08:14:44,SD,None,
,,,,,,calibration,0,7,2,917,,,,,,,,0.11607142857142858,0.5,0.75,0.14285714285714285,0.08333333333333333,0.16666666666666669,0.6394782582713312,2,6,0,1,1,1,3,4,8,0,,,,1,,,,,,,,,,,,,,,,,,,,,,,,,,,,,,,,,,,,,,,,,,,,,,62,151825,19,Female,1,2024/02/16_08:14:44,SD,None,
,,,,,,Calibration,0,,2,917,,,,,,,,,,,,,,,,,,,,,,,,,7,,,1,,,,,,,,,,,,,,,,,,,,,,,,,,,,,,,,,,,,,,,,,,,,,,62,151825,19,Female,1,2024/02/16_08:14:44,SD,None,
,,,,,,calibration,0,11,2,1068,1,Q,0,left,1.4245432449970394,0,0,,,,,,,,,,,,,,,,,,,,,1,,,,,,,,,,,,,,,,,,,,,,,,,,,,,,,,,,,,,,,,,,,,,,62,151825,19,Female,1,2024/02/16_08:14:44,SD,None,
,,,,,,calibration,0,11,2,1068,2,X,0,left,1.5159092780086212,0,0,,,,,,,,,,,,,,,,,,,,,1,,,,,,,,,,,,,,,,,,,,,,,,,,,,,,,,,,,,,,,,,,,,,,62,151825,19,Female,1,2024/02/16_08:14:44,SD,None,
,,,,,,calibration,0,11,2,1068,3,J,0,left,0.9916072799969697,0,0,,,,,,,,,,,,,,,,,,,,,1,,,,,,,,,,,,,,,,,,,,,,,,,,,,,,,,,,,,,,,,,,,,,,62,151825,19,Female,1,2024/02/16_08:14:44,SD,None,
,,,,,,calibration,0,11,2,1068,4,X,1,left,0.9537376719963504,1,0,,,,,,,,,,,,,,,,,,,,,1,,,,,,,,,,,,,,,,,,,,,,,,,,,,,,,,,,,,,,,,,,,,,,62,151825,19,Female,1,2024/02/16_08:14:44,SD,None,
,,,,,,calibration,0,11,2,1068,5,F,0,right,0.7064946380123729,1,0,,,,,,,,,,,,,,,,,,,,,1,,,,,,,,,,,,,,,,,,,,,,,,,,,,,,,,,,,,,,,,,,,,,,62,151825,19,Female,1,2024/02/16_08:14:44,SD,None,
,,,,,,calibration,0,11,2,1068,6,C,0,right,0.8347305079951184,1,0,,,,,,,,,,,,,,,,,,,,,1,,,,,,,,,,,,,,,,,,,,,,,,,,,,,,,,,,,,,,,,,,,,,,62,151825,19,Female,1,2024/02/16_08:14:44,SD,None,
,,,,,,calibration,0,11,2,1068,7,J,0,left,0.5753424710128456,0,0,,,,,,,,,,,,,,,,,,,,,1,,,,,,,,,,,,,,,,,,,,,,,,,,,,,,,,,,,,,,,,,,,,,,62,151825,19,Female,1,2024/02/16_08:14:44,SD,None,
,,,,,,calibration,0,11,2,1068,8,C,1,left,0.9745025979937054,1,0,,,,,,,,,,,,,,,,,,,,,1,,,,,,,,,,,,,,,,,,,,,,,,,,,,,,,,,,,,,,,,,,,,,,62,151825,19,Female,1,2024/02/16_08:14:44,SD,None,
,,,,,,calibration,0,11,2,1068,9,X,0,left,0.8213264640071429,0,0,,,,,,,,,,,,,,,,,,,,,1,,,,,,,,,,,,,,,,,,,,,,,,,,,,,,,,,,,,,,,,,,,,,,62,151825,19,Female,1,2024/02/16_08:14:44,SD,None,
,,,,,,calibration,0,11,2,1068,10,C,1,right,0.5858833219972439,0,0,,,,,,,,,,,,,,,,,,,,,1,,,,,,,,,,,,,,,,,,,,,,,,,,,,,,,,,,,,,,,,,,,,,,62,151825,19,Female,1,2024/02/16_08:14:44,SD,None,
,,,,,,calibration,0,11,2,1068,11,J,0,left,0.5345430260058492,0,0,,,,,,,,,,,,,,,,,,,,,1,,,,,,,,,,,,,,,,,,,,,,,,,,,,,,,,,,,,,,,,,,,,,,62,151825,19,Female,1,2024/02/16_08:14:44,SD,None,
,,,,,,calibration,0,11,2,1068,,,,,,,,0.041666666666666685,0.6666666666666666,0.75,0.25,0.0,0.25,0.9016927729112054,2,6,0,0,0,2,4,3,8,0,,,,1,,,,,,,,,,,,,,,,,,,,,,,,,,,,,,,,,,,,,,,,,,,,,,62,151825,19,Female,1,2024/02/16_08:14:44,SD,None,
,,,,,,Calibration,0,,2,1068,,,,,,,,,,,,,,,,,,,,,,,,,8,,,1,,,,,,,,,,,,,,,,,,,,,,,,,,,,,,,,,,,,,,,,,,,,,,62,151825,19,Female,1,2024/02/16_08:14:44,SD,None,
,,,,,,calibration,0,15,2,1250,1,S,0,left,1.0499182760104304,0,0,,,,,,,,,,,,,,,,,,,,,1,,,,,,,,,,,,,,,,,,,,,,,,,,,,,,,,,,,,,,,,,,,,,,62,151825,19,Female,1,2024/02/16_08:14:44,SD,None,
,,,,,,calibration,0,15,2,1250,2,X,0,left,0.8412553149973974,0,0,,,,,,,,,,,,,,,,,,,,,1,,,,,,,,,,,,,,,,,,,,,,,,,,,,,,,,,,,,,,,,,,,,,,62,151825,19,Female,1,2024/02/16_08:14:44,SD,None,
,,,,,,calibration,0,15,2,1250,3,C,0,left,0.7346006660081912,0,0,,,,,,,,,,,,,,,,,,,,,1,,,,,,,,,,,,,,,,,,,,,,,,,,,,,,,,,,,,,,,,,,,,,,62,151825,19,Female,1,2024/02/16_08:14:44,SD,None,
,,,,,,calibration,0,15,2,1250,4,V,0,left,0.6474932749988511,0,0,,,,,,,,,,,,,,,,,,,,,1,,,,,,,,,,,,,,,,,,,,,,,,,,,,,,,,,,,,,,,,,,,,,,62,151825,19,Female,1,2024/02/16_08:14:44,SD,None,
,,,,,,calibration,0,15,2,1250,5,F,0,left,0.5416708339907927,0,0,,,,,,,,,,,,,,,,,,,,,1,,,,,,,,,,,,,,,,,,,,,,,,,,,,,,,,,,,,,,,,,,,,,,62,151825,19,Female,1,2024/02/16_08:14:44,SD,None,
,,,,,,calibration,0,15,2,1250,6,V,1,right,0.6924050219968194,0,0,,,,,,,,,,,,,,,,,,,,,1,,,,,,,,,,,,,,,,,,,,,,,,,,,,,,,,,,,,,,,,,,,,,,62,151825,19,Female,1,2024/02/16_08:14:44,SD,None,
,,,,,,calibration,0,15,2,1250,7,N,1,left,0.7908442759944592,1,0,,,,,,,,,,,,,,,,,,,,,1,,,,,,,,,,,,,,,,,,,,,,,,,,,,,,,,,,,,,,,,,,,,,,62,151825,19,Female,1,2024/02/16_08:14:44,SD,None,
,,,,,,calibration,0,15,2,1250,8,V,0,right,0.562730976002058,1,0,,,,,,,,,,,,,,,,,,,,,1,,,,,,,,,,,,,,,,,,,,,,,,,,,,,,,,,,,,,,,,,,,,,,62,151825,19,Female,1,2024/02/16_08:14:44,SD,None,
,,,,,,calibration,0,15,2,1250,9,C,0,left,0.5983554849954089,0,0,,,,,,,,,,,,,,,,,,,,,1,,,,,,,,,,,,,,,,,,,,,,,,,,,,,,,,,,,,,,,,,,,,,,62,151825,19,Female,1,2024/02/16_08:14:44,SD,None,
,,,,,,calibration,0,15,2,1250,10,V,1,left,0.7314978409995092,1,0,,,,,,,,,,,,,,,,,,,,,1,,,,,,,,,,,,,,,,,,,,,,,,,,,,,,,,,,,,,,,,,,,,,,62,151825,19,Female,1,2024/02/16_08:14:44,SD,None,
,,,,,,calibration,0,15,2,1250,,,,,,,,0.09523809523809526,0.6666666666666666,0.8571428571428571,0.14285714285714285,0.0,0.1428571428571429,0.7190771965993917,2,6,0,0,0,1,3,3,7,0,,,,1,,,,,,,,,,,,,,,,,,,,,,,,,,,,,,,,,,,,,,,,,,,,,,62,151825,19,Female,1,2024/02/16_08:14:44,SD,None,
,,,,,,Calibration,0,,2,1250,,,,,,,,,,,,,,,,,,,,,,,,,9,,,1,,,,,,,,,,,,,,,,,,,,,,,,,,,,,,,,,,,,,,,,,,,,,,62,151825,19,Female,1,2024/02/16_08:14:44,SD,None,
,,,,,,calibration,0,8,2,1472,1,X,0,left,0.9969333420012845,0,0,,,,,,,,,,,,,,,,,,,,,1,,,,,,,,,,,,,,,,,,,,,,,,,,,,,,,,,,,,,,,,,,,,,,62,151825,19,Female,1,2024/02/16_08:14:44,SD,None,
,,,,,,calibration,0,8,2,1472,2,J,0,left,1.02637239600881,0,0,,,,,,,,,,,,,,,,,,,,,1,,,,,,,,,,,,,,,,,,,,,,,,,,,,,,,,,,,,,,,,,,,,,,62,151825,19,Female,1,2024/02/16_08:14:44,SD,None,
,,,,,,calibration,0,8,2,1472,3,S,0,left,0.6072227049880894,0,0,,,,,,,,,,,,,,,,,,,,,1,,,,,,,,,,,,,,,,,,,,,,,,,,,,,,,,,,,,,,,,,,,,,,62,151825,19,Female,1,2024/02/16_08:14:44,SD,None,
,,,,,,calibration,0,8,2,1472,4,J,1,right,0.6296747829910601,0,0,,,,,,,,,,,,,,,,,,,,,1,,,,,,,,,,,,,,,,,,,,,,,,,,,,,,,,,,,,,,,,,,,,,,62,151825,19,Female,1,2024/02/16_08:14:44,SD,None,
,,,,,,calibration,0,8,2,1472,5,V,0,right,0.7415352349926252,1,0,,,,,,,,,,,,,,,,,,,,,1,,,,,,,,,,,,,,,,,,,,,,,,,,,,,,,,,,,,,,,,,,,,,,62,151825,19,Female,1,2024/02/16_08:14:44,SD,None,
,,,,,,calibration,0,8,2,1472,6,F,0,left,0.5684916900063399,0,0,,,,,,,,,,,,,,,,,,,,,1,,,,,,,,,,,,,,,,,,,,,,,,,,,,,,,,,,,,,,,,,,,,,,62,151825,19,Female,1,2024/02/16_08:14:44,SD,None,
,,,,,,calibration,0,8,2,1472,7,V,1,right,0.5442491419962607,0,0,,,,,,,,,,,,,,,,,,,,,1,,,,,,,,,,,,,,,,,,,,,,,,,,,,,,,,,,,,,,,,,,,,,,62,151825,19,Female,1,2024/02/16_08:14:44,SD,None,
,,,,,,calibration,0,8,2,1472,8,F,1,left,0.9319802670070203,1,0,,,,,,,,,,,,,,,,,,,,,1,,,,,,,,,,,,,,,,,,,,,,,,,,,,,,,,,,,,,,,,,,,,,,62,151825,19,Female,1,2024/02/16_08:14:44,SD,None,
,,,,,,calibration,0,8,2,1472,9,J,0,left,0.8081363469973439,0,0,,,,,,,,,,,,,,,,,,,,,1,,,,,,,,,,,,,,,,,,,,,,,,,,,,,,,,,,,,,,,,,,,,,,62,151825,19,Female,1,2024/02/16_08:14:44,SD,None,
,,,,,,calibration,0,8,2,1472,,,,,,,,0.06944444444444445,0.3333333333333333,0.8333333333333334,0.16666666666666666,0.0,0.16666666666666663,0.7616217674432038,1,5,0,0,0,1,2,3,6,0,,,,1,,,,,,,,,,,,,,,,,,,,,,,,,,,,,,,,,,,,,,,,,,,,,,62,151825,19,Female,1,2024/02/16_08:14:44,SD,None,
,,,,,,Calibration,0,,2,1472,,,,,,,,,,,,,,,,,,,,,,,,,10,,,1,,,,,,,,,,,,,,,,,,,,,,,,,,,,,,,,,,,,,,,,,,,,,,62,151825,19,Female,1,2024/02/16_08:14:44,SD,None,
,,,,,,calibration,0,32,2,1750,1,N,0,left,0.7085066130093765,0,0,,,,,,,,,,,,,,,,,,,,,1,,,,,,,,,,,,,,,,,,,,,,,,,,,,,,,,,,,,,,,,,,,,,,62,151825,19,Female,1,2024/02/16_08:14:44,SD,None,
,,,,,,calibration,0,32,2,1750,2,X,0,left,0.8093151369976113,0,0,,,,,,,,,,,,,,,,,,,,,1,,,,,,,,,,,,,,,,,,,,,,,,,,,,,,,,,,,,,,,,,,,,,,62,151825,19,Female,1,2024/02/16_08:14:44,SD,None,
,,,,,,calibration,0,32,2,1750,3,Q,0,left,0.590928391990019,0,0,,,,,,,,,,,,,,,,,,,,,1,,,,,,,,,,,,,,,,,,,,,,,,,,,,,,,,,,,,,,,,,,,,,,62,151825,19,Female,1,2024/02/16_08:14:44,SD,None,
,,,,,,calibration,0,32,2,1750,4,X,1,right,0.6448816109914333,0,0,,,,,,,,,,,,,,,,,,,,,1,,,,,,,,,,,,,,,,,,,,,,,,,,,,,,,,,,,,,,,,,,,,,,62,151825,19,Female,1,2024/02/16_08:14:44,SD,None,
,,,,,,calibration,0,32,2,1750,5,Q,1,right,0.512525010999525,0,0,,,,,,,,,,,,,,,,,,,,,1,,,,,,,,,,,,,,,,,,,,,,,,,,,,,,,,,,,,,,,,,,,,,,62,151825,19,Female,1,2024/02/16_08:14:44,SD,None,
,,,,,,calibration,0,32,2,1750,6,N,0,right,0.6246789510041708,1,0,,,,,,,,,,,,,,,,,,,,,1,,,,,,,,,,,,,,,,,,,,,,,,,,,,,,,,,,,,,,,,,,,,,,62,151825,19,Female,1,2024/02/16_08:14:44,SD,None,
,,,,,,calibration,0,32,2,1750,7,F,0,left,0.5519410560082179,0,0,,,,,,,,,,,,,,,,,,,,,1,,,,,,,,,,,,,,,,,,,,,,,,,,,,,,,,,,,,,,,,,,,,,,62,151825,19,Female,1,2024/02/16_08:14:44,SD,None,
,,,,,,calibration,0,32,2,1750,8,Q,0,left,0.7855475589894922,0,0,,,,,,,,,,,,,,,,,,,,,1,,,,,,,,,,,,,,,,,,,,,,,,,,,,,,,,,,,,,,,,,,,,,,62,151825,19,Female,1,2024/02/16_08:14:44,SD,None,
,,,,,,calibration,0,32,2,1750,,,,,,,,0.04166666666666666,0.0,0.8333333333333334,0.16666666666666666,0.0,0.16666666666666663,0.6535405412487307,0,5,0,0,0,1,1,2,6,0,,,,1,,,,,,,,,,,,,,,,,,,,,,,,,,,,,,,,,,,,,,,,,,,,,,62,151825,19,Female,1,2024/02/16_08:14:44,SD,None,
,,,,,,Calibration,0,,2,1750,,,,,,,,,,,,,,,,,,,,,,,,,11,,,1,,,,,,,,,,,,,,,,,,,,,,,,,,,,,,,,,,,,,,,,,,,,,,62,151825,19,Female,1,2024/02/16_08:14:44,SD,None,
,,,,,,calibration,0,21,2,2107,1,Q,0,left,0.6668640220013913,0,0,,,,,,,,,,,,,,,,,,,,,1,,,,,,,,,,,,,,,,,,,,,,,,,,,,,,,,,,,,,,,,,,,,,,62,151825,19,Female,1,2024/02/16_08:14:44,SD,None,
,,,,,,calibration,0,21,2,2107,2,S,0,left,0.9744742969924118,0,0,,,,,,,,,,,,,,,,,,,,,1,,,,,,,,,,,,,,,,,,,,,,,,,,,,,,,,,,,,,,,,,,,,,,62,151825,19,Female,1,2024/02/16_08:14:44,SD,None,
,,,,,,calibration,0,21,2,2107,3,Q,1,right,0.5187850749935023,0,0,,,,,,,,,,,,,,,,,,,,,1,,,,,,,,,,,,,,,,,,,,,,,,,,,,,,,,,,,,,,,,,,,,,,62,151825,19,Female,1,2024/02/16_08:14:44,SD,None,
,,,,,,calibration,0,21,2,2107,4,J,0,left,0.6065361090004444,0,0,,,,,,,,,,,,,,,,,,,,,1,,,,,,,,,,,,,,,,,,,,,,,,,,,,,,,,,,,,,,,,,,,,,,62,151825,19,Female,1,2024/02/16_08:14:44,SD,None,
,,,,,,calibration,0,21,2,2107,5,Q,1,right,0.5599091699987184,0,0,,,,,,,,,,,,,,,,,,,,,1,,,,,,,,,,,,,,,,,,,,,,,,,,,,,,,,,,,,,,,,,,,,,,62,151825,19,Female,1,2024/02/16_08:14:44,SD,None,
,,,,,,calibration,0,21,2,2107,6,N,0,left,0.5242472440004349,0,0,,,,,,,,,,,,,,,,,,,,,1,,,,,,,,,,,,,,,,,,,,,,,,,,,,,,,,,,,,,,,,,,,,,,62,151825,19,Female,1,2024/02/16_08:14:44,SD,None,
,,,,,,calibration,0,21,2,2107,7,J,0,left,1.1968804909993196,0,0,,,,,,,,,,,,,,,,,,,,,1,,,,,,,,,,,,,,,,,,,,,,,,,,,,,,,,,,,,,,,,,,,,,,62,151825,19,Female,1,2024/02/16_08:14:44,SD,None,
,,,,,,calibration,0,21,2,2107,,,,,,,,0.0,0.0,1.0,0.0,0.0,0.0,0.7210994868551747,0,5,0,0,0,0,0,2,5,0,,,,1,,,,,,,,,,,,,,,,,,,,,,,,,,,,,,,,,,,,,,,,,,,,,,62,151825,19,Female,1,2024/02/16_08:14:44,SD,None,
,,,,,,Calibration,0,,2,2107,,,,,,,,,,,,,,,,,,,,,,,,,12,,,1,,,,,,,,,,,,,,,,,,,,,,,,,,,,,,,,,,,,,,,,,,,,,,62,151825,19,Female,1,2024/02/16_08:14:44,SD,None,
,,,,,,calibration,0,30,2,2583,1,X,0,left,1.0624024410062702,0,0,,,,,,,,,,,,,,,,,,,,,1,,,,,,,,,,,,,,,,,,,,,,,,,,,,,,,,,,,,,,,,,,,,,,62,151825,19,Female,1,2024/02/16_08:14:44,SD,None,
,,,,,,calibration,0,30,2,2583,2,S,0,left,0.8889872900035698,0,0,,,,,,,,,,,,,,,,,,,,,1,,,,,,,,,,,,,,,,,,,,,,,,,,,,,,,,,,,,,,,,,,,,,,62,151825,19,Female,1,2024/02/16_08:14:44,SD,None,
,,,,,,calibration,0,30,2,2583,3,X,1,left,1.0931708209973294,1,0,,,,,,,,,,,,,,,,,,,,,1,,,,,,,,,,,,,,,,,,,,,,,,,,,,,,,,,,,,,,,,,,,,,,62,151825,19,Female,1,2024/02/16_08:14:44,SD,None,
,,,,,,calibration,0,30,2,2583,4,N,0,left,1.6077703199989628,0,0,,,,,,,,,,,,,,,,,,,,,1,,,,,,,,,,,,,,,,,,,,,,,,,,,,,,,,,,,,,,,,,,,,,,62,151825,19,Female,1,2024/02/16_08:14:44,SD,None,
,,,,,,calibration,0,30,2,2583,5,C,0,left,2.062962846001028,0,0,,,,,,,,,,,,,,,,,,,,,1,,,,,,,,,,,,,,,,,,,,,,,,,,,,,,,,,,,,,,,,,,,,,,62,151825,19,Female,1,2024/02/16_08:14:44,SD,None,
,,,,,,calibration,0,30,2,2583,6,N,1,left,1.1742840899969451,1,0,,,,,,,,,,,,,,,,,,,,,1,,,,,,,,,,,,,,,,,,,,,,,,,,,,,,,,,,,,,,,,,,,,,,62,151825,19,Female,1,2024/02/16_08:14:44,SD,None,
,,,,,,calibration,0,30,2,2583,,,,,,,,0.5,1.0,1.0,0.0,0.0,0.0,1.314929634667351,2,4,0,0,0,0,2,2,4,0,,,,1,,,,,,,,,,,,,,,,,,,,,,,,,,,,,,,,,,,,,,,,,,,,,,62,151825,19,Female,1,2024/02/16_08:14:44,SD,None,
,,,,,,Calibration,0,,2,2583,,,,,,,,,,,,,,,,,,,,,,,,,13,,,1,,,,,,,,,,,,,,,,,,,,,,,,,,,,,,,,,,,,,,,,,,,,,,62,151825,19,Female,1,2024/02/16_08:14:44,SD,None,
,,,,,,calibration,0,25,2,2583,1,V,0,left,0.4137628379976377,0,0,,,,,,,,,,,,,,,,,,,,,1,,,,,,,,,,,,,,,,,,,,,,,,,,,,,,,,,,,,,,,,,,,,,,62,151825,19,Female,1,2024/02/16_08:14:44,SD,None,
,,,,,,calibration,0,25,2,2583,2,C,0,left,0.9403061990014976,0,0,,,,,,,,,,,,,,,,,,,,,1,,,,,,,,,,,,,,,,,,,,,,,,,,,,,,,,,,,,,,,,,,,,,,62,151825,19,Female,1,2024/02/16_08:14:44,SD,None,
,,,,,,calibration,0,25,2,2583,3,V,1,left,0.6605833089997759,1,0,,,,,,,,,,,,,,,,,,,,,1,,,,,,,,,,,,,,,,,,,,,,,,,,,,,,,,,,,,,,,,,,,,,,62,151825,19,Female,1,2024/02/16_08:14:44,SD,None,
,,,,,,calibration,0,25,2,2583,4,C,1,right,0.5237603020068491,0,0,,,,,,,,,,,,,,,,,,,,,1,,,,,,,,,,,,,,,,,,,,,,,,,,,,,,,,,,,,,,,,,,,,,,62,151825,19,Female,1,2024/02/16_08:14:44,SD,None,
,,,,,,calibration,0,25,2,2583,5,N,0,left,0.703479210002115,0,0,,,,,,,,,,,,,,,,,,,,,1,,,,,,,,,,,,,,,,,,,,,,,,,,,,,,,,,,,,,,,,,,,,,,62,151825,19,Female,1,2024/02/16_08:14:44,SD,None,
,,,,,,calibration,0,25,2,2583,6,J,0,right,0.6274101470044116,1,0,,,,,,,,,,,,,,,,,,,,,1,,,,,,,,,,,,,,,,,,,,,,,,,,,,,,,,,,,,,,,,,,,,,,62,151825,19,Female,1,2024/02/16_08:14:44,SD,None,
,,,,,,calibration,0,25,2,2583,,,,,,,,0.0625,0.5,0.75,0.25,0.0,0.25,0.6448836675020478,1,3,0,0,0,1,2,2,4,0,,,,1,,,,,,,,,,,,,,,,,,,,,,,,,,,,,,,,,,,,,,,,,,,,,,62,151825,19,Female,1,2024/02/16_08:14:44,SD,None,
,,,,,,Calibration,0,,2,2583,,,,,,,,,,,,,,,,,,,,,,,,,14,,,1,,,,,,,,,,,,,,,,,,,,,,,,,,,,,,,,,,,,,,,,,,,,,,62,151825,19,Female,1,2024/02/16_08:14:44,SD,None,
,,,,,,calibration,0,15,2,2583,1,J,0,left,0.7142880309984321,0,0,,,,,,,,,,,,,,,,,,,,,1,,,,,,,,,,,,,,,,,,,,,,,,,,,,,,,,,,,,,,,,,,,,,,62,151825,19,Female,1,2024/02/16_08:14:44,SD,None,
,,,,,,calibration,0,15,2,2583,2,C,0,left,0.6696313459979137,0,0,,,,,,,,,,,,,,,,,,,,,1,,,,,,,,,,,,,,,,,,,,,,,,,,,,,,,,,,,,,,,,,,,,,,62,151825,19,Female,1,2024/02/16_08:14:44,SD,None,
,,,,,,calibration,0,15,2,2583,3,J,1,right,0.42956119299924467,0,0,,,,,,,,,,,,,,,,,,,,,1,,,,,,,,,,,,,,,,,,,,,,,,,,,,,,,,,,,,,,,,,,,,,,62,151825,19,Female,1,2024/02/16_08:14:44,SD,None,
,,,,,,calibration,0,15,2,2583,4,F,0,left,0.5842369640013203,0,0,,,,,,,,,,,,,,,,,,,,,1,,,,,,,,,,,,,,,,,,,,,,,,,,,,,,,,,,,,,,,,,,,,,,62,151825,19,Female,1,2024/02/16_08:14:44,SD,None,
,,,,,,calibration,0,15,2,2583,5,X,0,right,0.7848965879966272,1,0,,,,,,,,,,,,,,,,,,,,,1,,,,,,,,,,,,,,,,,,,,,,,,,,,,,,,,,,,,,,,,,,,,,,62,151825,19,Female,1,2024/02/16_08:14:44,SD,None,
,,,,,,calibration,0,15,2,2583,6,F,1,right,0.45602079600212164,0,0,,,,,,,,,,,,,,,,,,,,,1,,,,,,,,,,,,,,,,,,,,,,,,,,,,,,,,,,,,,,,,,,,,,,62,151825,19,Female,1,2024/02/16_08:14:44,SD,None,
,,,,,,calibration,0,15,2,2583,,,,,,,,0.0625,0.0,0.75,0.25,0.0,0.25,0.6064391529992766,0,3,0,0,0,1,1,2,4,0,,,,1,,,,,,,,,,,,,,,,,,,,,,,,,,,,,,,,,,,,,,,,,,,,,,62,151825,19,Female,1,2024/02/16_08:14:44,SD,None,
,,,,,,Calibration,0,,2,2583,,,,,,,,,,,,,,,,,,,,,,,,,15,,,1,,,,,,,,,,,,,,,,,,,,,,,,,,,,,,,,,,,,,,,,,,,,,,62,151825,19,Female,1,2024/02/16_08:14:44,SD,None,
,,,,,,calibration,0,1,2,2583,1,C,0,left,0.5240602510020835,0,0,,,,,,,,,,,,,,,,,,,,,1,,,,,,,,,,,,,,,,,,,,,,,,,,,,,,,,,,,,,,,,,,,,,,62,151825,19,Female,1,2024/02/16_08:14:44,SD,None,
,,,,,,calibration,0,1,2,2583,2,C,0,left,0.5788174879999133,0,0,,,,,,,,,,,,,,,,,,,,,1,,,,,,,,,,,,,,,,,,,,,,,,,,,,,,,,,,,,,,,,,,,,,,62,151825,19,Female,1,2024/02/16_08:14:44,SD,None,
,,,,,,calibration,0,1,2,2583,3,C,1,right,0.8473673480038997,0,0,,,,,,,,,,,,,,,,,,,,,1,,,,,,,,,,,,,,,,,,,,,,,,,,,,,,,,,,,,,,,,,,,,,,62,151825,19,Female,1,2024/02/16_08:14:44,SD,None,
,,,,,,calibration,0,1,2,2583,4,N,0,left,0.7422364740050398,0,0,,,,,,,,,,,,,,,,,,,,,1,,,,,,,,,,,,,,,,,,,,,,,,,,,,,,,,,,,,,,,,,,,,,,62,151825,19,Female,1,2024/02/16_08:14:44,SD,None,
,,,,,,calibration,0,1,2,2583,5,C,1,right,0.9254431709996425,0,0,,,,,,,,,,,,,,,,,,,,,1,,,,,,,,,,,,,,,,,,,,,,,,,,,,,,,,,,,,,,,,,,,,,,62,151825,19,Female,1,2024/02/16_08:14:44,SD,None,
,,,,,,calibration,0,1,2,2583,6,V,0,left,0.5311571759957587,0,0,,,,,,,,,,,,,,,,,,,,,1,,,,,,,,,,,,,,,,,,,,,,,,,,,,,,,,,,,,,,,,,,,,,,62,151825,19,Female,1,2024/02/16_08:14:44,SD,None,
,,,,,,calibration,0,1,2,2583,,,,,,,,0.0,0.0,1.0,0.0,0.0,0.0,0.6915136513343896,0,4,0,0,0,0,0,2,4,0,,,,1,,,,,,,,,,,,,,,,,,,,,,,,,,,,,,,,,,,,,,,,,,,,,,62,151825,19,Female,1,2024/02/16_08:14:44,SD,None,
,,,,,,Calibration,0,,2,2583,,,,,,,,,,,,,,,,,,,,,,,,,16,,,1,,,,,,,,,,,,,,,,,,,,,,,,,,,,,,,,,,,,,,,,,,,,,,62,151825,19,Female,1,2024/02/16_08:14:44,SD,None,
,,,,,,calibration,0,19,2,2583,1,N,0,left,0.40800667300936766,0,0,,,,,,,,,,,,,,,,,,,,,1,,,,,,,,,,,,,,,,,,,,,,,,,,,,,,,,,,,,,,,,,,,,,,62,151825,19,Female,1,2024/02/16_08:14:44,SD,None,
,,,,,,calibration,0,19,2,2583,2,Q,0,right,0.6093446669983678,1,0,,,,,,,,,,,,,,,,,,,,,1,,,,,,,,,,,,,,,,,,,,,,,,,,,,,,,,,,,,,,,,,,,,,,62,151825,19,Female,1,2024/02/16_08:14:44,SD,None,
,,,,,,calibration,0,19,2,2583,3,N,1,left,0.5354485499992734,1,0,,,,,,,,,,,,,,,,,,,,,1,,,,,,,,,,,,,,,,,,,,,,,,,,,,,,,,,,,,,,,,,,,,,,62,151825,19,Female,1,2024/02/16_08:14:44,SD,None,
,,,,,,calibration,0,19,2,2583,4,Q,1,right,1.1056437799998093,0,0,,,,,,,,,,,,,,,,,,,,,1,,,,,,,,,,,,,,,,,,,,,,,,,,,,,,,,,,,,,,,,,,,,,,62,151825,19,Female,1,2024/02/16_08:14:44,SD,None,
,,,,,,calibration,0,19,2,2583,5,S,0,left,0.4985824780014809,0,0,,,,,,,,,,,,,,,,,,,,,1,,,,,,,,,,,,,,,,,,,,,,,,,,,,,,,,,,,,,,,,,,,,,,62,151825,19,Female,1,2024/02/16_08:14:44,SD,None,
,,,,,,calibration,0,19,2,2583,6,V,0,left,0.5887484589911764,0,0,,,,,,,,,,,,,,,,,,,,,1,,,,,,,,,,,,,,,,,,,,,,,,,,,,,,,,,,,,,,,,,,,,,,62,151825,19,Female,1,2024/02/16_08:14:44,SD,None,
,,,,,,calibration,0,19,2,2583,,,,,,,,0.0625,0.5,0.75,0.25,0.0,0.25,0.6242957678332459,1,3,0,0,0,1,2,2,4,0,,,,1,,,,,,,,,,,,,,,,,,,,,,,,,,,,,,,,,,,,,,,,,,,,,,62,151825,19,Female,1,2024/02/16_08:14:44,SD,None,
,,,,,,Calibration,0,,2,2583,,,,,,,,,,,,,,,,,,,,,,,,,17,,,1,,,,,,,,,,,,,,,,,,,,,,,,,,,,,,,,,,,,,,,,,,,,,,62,151825,19,Female,1,2024/02/16_08:14:44,SD,None,
,,,,,,calibration,0,32,2,2583,1,F,0,left,2.2944300189992646,0,0,,,,,,,,,,,,,,,,,,,,,1,,,,,,,,,,,,,,,,,,,,,,,,,,,,,,,,,,,,,,,,,,,,,,62,151825,19,Female,1,2024/02/16_08:14:44,SD,None,
,,,,,,calibration,0,32,2,2583,2,C,0,left,0.7923261310061207,0,0,,,,,,,,,,,,,,,,,,,,,1,,,,,,,,,,,,,,,,,,,,,,,,,,,,,,,,,,,,,,,,,,,,,,62,151825,19,Female,1,2024/02/16_08:14:44,SD,None,
,,,,,,calibration,0,32,2,2583,3,Q,0,left,0.6435396570013836,0,0,,,,,,,,,,,,,,,,,,,,,1,,,,,,,,,,,,,,,,,,,,,,,,,,,,,,,,,,,,,,,,,,,,,,62,151825,19,Female,1,2024/02/16_08:14:44,SD,None,
,,,,,,calibration,0,32,2,2583,4,C,1,right,0.49791133200051263,0,0,,,,,,,,,,,,,,,,,,,,,1,,,,,,,,,,,,,,,,,,,,,,,,,,,,,,,,,,,,,,,,,,,,,,62,151825,19,Female,1,2024/02/16_08:14:44,SD,None,
,,,,,,calibration,0,32,2,2583,5,S,0,left,0.6910025200049859,0,0,,,,,,,,,,,,,,,,,,,,,1,,,,,,,,,,,,,,,,,,,,,,,,,,,,,,,,,,,,,,,,,,,,,,62,151825,19,Female,1,2024/02/16_08:14:44,SD,None,
,,,,,,calibration,0,32,2,2583,6,C,1,right,0.7907906269974774,0,0,,,,,,,,,,,,,,,,,,,,,1,,,,,,,,,,,,,,,,,,,,,,,,,,,,,,,,,,,,,,,,,,,,,,62,151825,19,Female,1,2024/02/16_08:14:44,SD,None,
,,,,,,calibration,0,32,2,2583,,,,,,,,0.0,0.0,1.0,0.0,0.0,0.0,0.9516667143349574,0,4,0,0,0,0,0,2,4,0,,,,1,,,,,,,,,,,,,,,,,,,,,,,,,,,,,,,,,,,,,,,,,,,,,,62,151825,19,Female,1,2024/02/16_08:14:44,SD,None,
,,,,,,Calibration,0,,2,2583,,,,,,,,,,,,,,,,,,,,,,,,,18,,,1,,,,,,,,,,,,,,,,,,,,,,,,,,,,,,,,,,,,,,,,,,,,,,62,151825,19,Female,1,2024/02/16_08:14:44,SD,None,
,,,,,,calibration,0,34,2,2583,1,F,0,left,0.44325089499761816,0,0,,,,,,,,,,,,,,,,,,,,,1,,,,,,,,,,,,,,,,,,,,,,,,,,,,,,,,,,,,,,,,,,,,,,62,151825,19,Female,1,2024/02/16_08:14:44,SD,None,
,,,,,,calibration,0,34,2,2583,2,J,0,left,0.9639738639962161,0,0,,,,,,,,,,,,,,,,,,,,,1,,,,,,,,,,,,,,,,,,,,,,,,,,,,,,,,,,,,,,,,,,,,,,62,151825,19,Female,1,2024/02/16_08:14:44,SD,None,
,,,,,,calibration,0,34,2,2583,3,C,0,left,0.6735989820008399,0,0,,,,,,,,,,,,,,,,,,,,,1,,,,,,,,,,,,,,,,,,,,,,,,,,,,,,,,,,,,,,,,,,,,,,62,151825,19,Female,1,2024/02/16_08:14:44,SD,None,
,,,,,,calibration,0,34,2,2583,4,N,0,left,0.5635450560075697,0,0,,,,,,,,,,,,,,,,,,,,,1,,,,,,,,,,,,,,,,,,,,,,,,,,,,,,,,,,,,,,,,,,,,,,62,151825,19,Female,1,2024/02/16_08:14:44,SD,None,
,,,,,,calibration,0,34,2,2583,5,C,1,left,0.5648413019953296,1,0,,,,,,,,,,,,,,,,,,,,,1,,,,,,,,,,,,,,,,,,,,,,,,,,,,,,,,,,,,,,,,,,,,,,62,151825,19,Female,1,2024/02/16_08:14:44,SD,None,
,,,,,,calibration,0,34,2,2583,6,N,1,right,0.6242188140022336,0,0,,,,,,,,,,,,,,,,,,,,,1,,,,,,,,,,,,,,,,,,,,,,,,,,,,,,,,,,,,,,,,,,,,,,62,151825,19,Female,1,2024/02/16_08:14:44,SD,None,
,,,,,,calibration,0,34,2,2583,,,,,,,,0.125,0.5,1.0,0.0,0.0,0.0,0.6389048188333012,1,4,0,0,0,0,1,2,4,0,,,,1,,,,,,,,,,,,,,,,,,,,,,,,,,,,,,,,,,,,,,,,,,,,,,62,151825,19,Female,1,2024/02/16_08:14:44,SD,None,
,,,,,,Calibration,0,,2,2583,,,,,,,,,,,,,,,,,,,,,,,,,19,,,1,,,,,,,,,,,,,,,,,,,,,,,,,,,,,,,,,,,,,,,,,,,,,,62,151825,19,Female,1,2024/02/16_08:14:44,SD,None,
,,,,,,calibration,0,18,2,2583,1,Q,0,left,0.8580751810077345,0,0,,,,,,,,,,,,,,,,,,,,,1,,,,,,,,,,,,,,,,,,,,,,,,,,,,,,,,,,,,,,,,,,,,,,62,151825,19,Female,1,2024/02/16_08:14:44,SD,None,
,,,,,,calibration,0,18,2,2583,2,X,0,left,0.6458848179900087,0,0,,,,,,,,,,,,,,,,,,,,,1,,,,,,,,,,,,,,,,,,,,,,,,,,,,,,,,,,,,,,,,,,,,,,62,151825,19,Female,1,2024/02/16_08:14:44,SD,None,
,,,,,,calibration,0,18,2,2583,3,N,0,left,0.7583134129963582,0,0,,,,,,,,,,,,,,,,,,,,,1,,,,,,,,,,,,,,,,,,,,,,,,,,,,,,,,,,,,,,,,,,,,,,62,151825,19,Female,1,2024/02/16_08:14:44,SD,None,
,,,,,,calibration,0,18,2,2583,4,X,1,right,0.6736450519965729,0,0,,,,,,,,,,,,,,,,,,,,,1,,,,,,,,,,,,,,,,,,,,,,,,,,,,,,,,,,,,,,,,,,,,,,62,151825,19,Female,1,2024/02/16_08:14:44,SD,None,
,,,,,,calibration,0,18,2,2583,5,N,1,right,0.47928841099201236,0,0,,,,,,,,,,,,,,,,,,,,,1,,,,,,,,,,,,,,,,,,,,,,,,,,,,,,,,,,,,,,,,,,,,,,62,151825,19,Female,1,2024/02/16_08:14:44,SD,None,
,,,,,,calibration,0,18,2,2583,6,V,0,left,0.6437993289873702,0,0,,,,,,,,,,,,,,,,,,,,,1,,,,,,,,,,,,,,,,,,,,,,,,,,,,,,,,,,,,,,,,,,,,,,62,151825,19,Female,1,2024/02/16_08:14:44,SD,None,
,,,,,,calibration,0,18,2,2583,,,,,,,,0.0,0.0,1.0,0.0,0.0,0.0,0.6765010339950095,0,4,0,0,0,0,0,2,4,0,,,,1,,,,,,,,,,,,,,,,,,,,,,,,,,,,,,,,,,,,,,,,,,,,,,62,151825,19,Female,1,2024/02/16_08:14:44,SD,None,
,,,,,,Calibration,0,,2,2583,,,,,,,,,,,,,,,,,,,,,,,,,20,,,1,,,,,,,,,,,,,,,,,,,,,,,,,,,,,,,,,,,,,,,,,,,,,,62,151825,19,Female,1,2024/02/16_08:14:44,SD,None,
,,,,,,calibration,0,3,2,2583,1,X,0,left,0.5434197059948929,0,0,,,,,,,,,,,,,,,,,,,,,1,,,,,,,,,,,,,,,,,,,,,,,,,,,,,,,,,,,,,,,,,,,,,,62,151825,19,Female,1,2024/02/16_08:14:44,SD,None,
,,,,,,calibration,0,3,2,2583,2,N,0,left,1.0094738420011709,0,0,,,,,,,,,,,,,,,,,,,,,1,,,,,,,,,,,,,,,,,,,,,,,,,,,,,,,,,,,,,,,,,,,,,,62,151825,19,Female,1,2024/02/16_08:14:44,SD,None,
,,,,,,calibration,0,3,2,2583,3,V,0,left,0.6972851580067072,0,0,,,,,,,,,,,,,,,,,,,,,1,,,,,,,,,,,,,,,,,,,,,,,,,,,,,,,,,,,,,,,,,,,,,,62,151825,19,Female,1,2024/02/16_08:14:44,SD,None,
,,,,,,calibration,0,3,2,2583,4,N,1,right,0.4260626089962898,0,0,,,,,,,,,,,,,,,,,,,,,1,,,,,,,,,,,,,,,,,,,,,,,,,,,,,,,,,,,,,,,,,,,,,,62,151825,19,Female,1,2024/02/16_08:14:44,SD,None,
,,,,,,calibration,0,3,2,2583,5,S,0,right,0.6589265739894472,1,0,,,,,,,,,,,,,,,,,,,,,1,,,,,,,,,,,,,,,,,,,,,,,,,,,,,,,,,,,,,,,,,,,,,,62,151825,19,Female,1,2024/02/16_08:14:44,SD,None,
,,,,,,calibration,0,3,2,2583,6,N,1,right,0.9187549319904065,0,0,,,,,,,,,,,,,,,,,,,,,1,,,,,,,,,,,,,,,,,,,,,,,,,,,,,,,,,,,,,,,,,,,,,,62,151825,19,Female,1,2024/02/16_08:14:44,SD,None,
,,,,,,calibration,0,3,2,2583,,,,,,,,0.0625,0.0,0.75,0.25,0.0,0.25,0.7089871368298191,0,3,0,0,0,1,1,2,4,0,,,,1,,,,,,,,,,,,,,,,,,,,,,,,,,,,,,,,,,,,,,,,,,,,,,62,151825,19,Female,1,2024/02/16_08:14:44,SD,None,
,,,,,,Calibration,0,,2,2583,,,,,,,,,,,,,,,,,,,,,,,,,21,,,1,,,,,,,,,,,,,,,,,,,,,,,,,,,,,,,,,,,,,,,,,,,,,,62,151825,19,Female,1,2024/02/16_08:14:44,SD,None,
,,,,,,calibration,0,3,2,2583,1,X,0,left,0.6246874050120823,0,0,,,,,,,,,,,,,,,,,,,,,1,,,,,,,,,,,,,,,,,,,,,,,,,,,,,,,,,,,,,,,,,,,,,,62,151825,19,Female,1,2024/02/16_08:14:44,SD,None,
,,,,,,calibration,0,3,2,2583,2,N,0,left,0.6410996909980895,0,0,,,,,,,,,,,,,,,,,,,,,1,,,,,,,,,,,,,,,,,,,,,,,,,,,,,,,,,,,,,,,,,,,,,,62,151825,19,Female,1,2024/02/16_08:14:44,SD,None,
,,,,,,calibration,0,3,2,2583,3,V,0,left,1.0593918480008142,0,0,,,,,,,,,,,,,,,,,,,,,1,,,,,,,,,,,,,,,,,,,,,,,,,,,,,,,,,,,,,,,,,,,,,,62,151825,19,Female,1,2024/02/16_08:14:44,SD,None,
,,,,,,calibration,0,3,2,2583,4,N,1,right,0.5244121610012371,0,0,,,,,,,,,,,,,,,,,,,,,1,,,,,,,,,,,,,,,,,,,,,,,,,,,,,,,,,,,,,,,,,,,,,,62,151825,19,Female,1,2024/02/16_08:14:44,SD,None,
,,,,,,calibration,0,3,2,2583,5,S,0,right,nan,0,1,,,,,,,,,,,,,,,,,,,,,1,,,,,,,,,,,,,,,,,,,,,,,,,,,,,,,,,,,,,,,,,,,,,,62,151825,19,Female,1,2024/02/16_08:14:44,SD,None,
,,,,,,calibration,0,3,2,2583,6,N,1,left,1.0486939370020991,1,0,,,,,,,,,,,,,,,,,,,,,1,,,,,,,,,,,,,,,,,,,,,,,,,,,,,,,,,,,,,,,,,,,,,,62,151825,19,Female,1,2024/02/16_08:14:44,SD,None,
,,,,,,calibration,0,3,2,2583,,,,,,,,0.1875,0.5,0.75,0.0,0.16666666666666666,0.08333333333333334,0.7796570084028644,1,3,0,1,1,0,1,2,4,0,,,,1,,,,,,,,,,,,,,,,,,,,,,,,,,,,,,,,,,,,,,,,,,,,,,62,151825,19,Female,1,2024/02/16_08:14:44,SD,None,
,,,,,,Calibration,0,,2,2583,,,,,,,,,,,,,,,,,,,,,,,,,22,,,1,,,,,,,,,,,,,,,,,,,,,,,,,,,,,,,,,,,,,,,,,,,,,,62,151825,19,Female,1,2024/02/16_08:14:44,SD,None,
,,,,,,calibration,0,28,2,2583,1,F,0,left,3.431493460011552,0,0,,,,,,,,,,,,,,,,,,,,,1,,,,,,,,,,,,,,,,,,,,,,,,,,,,,,,,,,,,,,,,,,,,,,62,151825,19,Female,1,2024/02/16_08:14:44,SD,None,
,,,,,,calibration,0,28,2,2583,2,N,0,left,2.329421574002481,0,0,,,,,,,,,,,,,,,,,,,,,1,,,,,,,,,,,,,,,,,,,,,,,,,,,,,,,,,,,,,,,,,,,,,,62,151825,19,Female,1,2024/02/16_08:14:44,SD,None,
,,,,,,calibration,0,28,2,2583,3,Q,0,left,0.7411521379981423,0,0,,,,,,,,,,,,,,,,,,,,,1,,,,,,,,,,,,,,,,,,,,,,,,,,,,,,,,,,,,,,,,,,,,,,62,151825,19,Female,1,2024/02/16_08:14:44,SD,None,
,,,,,,calibration,0,28,2,2583,4,N,1,right,0.955898733009235,0,0,,,,,,,,,,,,,,,,,,,,,1,,,,,,,,,,,,,,,,,,,,,,,,,,,,,,,,,,,,,,,,,,,,,,62,151825,19,Female,1,2024/02/16_08:14:44,SD,None,
,,,,,,calibration,0,28,2,2583,5,Q,1,left,1.4729409529973054,1,0,,,,,,,,,,,,,,,,,,,,,1,,,,,,,,,,,,,,,,,,,,,,,,,,,,,,,,,,,,,,,,,,,,,,62,151825,19,Female,1,2024/02/16_08:14:44,SD,None,
,,,,,,calibration,0,28,2,2583,6,V,0,left,1.3186693750030827,0,0,,,,,,,,,,,,,,,,,,,,,1,,,,,,,,,,,,,,,,,,,,,,,,,,,,,,,,,,,,,,,,,,,,,,62,151825,19,Female,1,2024/02/16_08:14:44,SD,None,
,,,,,,calibration,0,28,2,2583,,,,,,,,0.125,0.5,1.0,0.0,0.0,0.0,1.708262705503633,1,4,0,0,0,0,1,2,4,0,,,,1,,,,,,,,,,,,,,,,,,,,,,,,,,,,,,,,,,,,,,,,,,,,,,62,151825,19,Female,1,2024/02/16_08:14:44,SD,None,
,,,,,,Calibration,0,,2,2583,,,,,,,,,,,,,,,,,,,,,,,,,23,,,1,,,,,,,,,,,,,,,,,,,,,,,,,,,,,,,,,,,,,,,,,,,,,,62,151825,19,Female,1,2024/02/16_08:14:44,SD,None,
,,,,,,calibration,0,15,2,2583,1,J,0,left,1.6489750429900596,0,0,,,,,,,,,,,,,,,,,,,,,1,,,,,,,,,,,,,,,,,,,,,,,,,,,,,,,,,,,,,,,,,,,,,,62,151825,19,Female,1,2024/02/16_08:14:44,SD,None,
,,,,,,calibration,0,15,2,2583,2,C,0,left,0.9480946630064864,0,0,,,,,,,,,,,,,,,,,,,,,1,,,,,,,,,,,,,,,,,,,,,,,,,,,,,,,,,,,,,,,,,,,,,,62,151825,19,Female,1,2024/02/16_08:14:44,SD,None,
,,,,,,calibration,0,15,2,2583,3,J,1,right,0.7492829560069367,0,0,,,,,,,,,,,,,,,,,,,,,1,,,,,,,,,,,,,,,,,,,,,,,,,,,,,,,,,,,,,,,,,,,,,,62,151825,19,Female,1,2024/02/16_08:14:44,SD,None,
,,,,,,calibration,0,15,2,2583,4,F,0,left,0.8009201029926771,0,0,,,,,,,,,,,,,,,,,,,,,1,,,,,,,,,,,,,,,,,,,,,,,,,,,,,,,,,,,,,,,,,,,,,,62,151825,19,Female,1,2024/02/16_08:14:44,SD,None,
,,,,,,calibration,0,15,2,2583,5,X,0,left,1.425201209000079,0,0,,,,,,,,,,,,,,,,,,,,,1,,,,,,,,,,,,,,,,,,,,,,,,,,,,,,,,,,,,,,,,,,,,,,62,151825,19,Female,1,2024/02/16_08:14:44,SD,None,
,,,,,,calibration,0,15,2,2583,6,F,1,right,1.123360708996188,0,0,,,,,,,,,,,,,,,,,,,,,1,,,,,,,,,,,,,,,,,,,,,,,,,,,,,,,,,,,,,,,,,,,,,,62,151825,19,Female,1,2024/02/16_08:14:44,SD,None,
,,,,,,calibration,0,15,2,2583,,,,,,,,0.0,0.0,1.0,0.0,0.0,0.0,1.1159724471654044,0,4,0,0,0,0,0,2,4,0,,,,1,,,,,,,,,,,,,,,,,,,,,,,,,,,,,,,,,,,,,,,,,,,,,,62,151825,19,Female,1,2024/02/16_08:14:44,SD,None,
,,,,,,Calibration,0,,2,2583,,,,,,,,,,,,,,,,,,,,,,,,,24,,,1,,,,,,,,,,,,,,,,,,,,,,,,,,,,,,,,,,,,,,,,,,,,,,62,151825,19,Female,1,2024/02/16_08:14:44,SD,None,
,,,,,,calibration,0,14,2,2583,1,X,0,left,1.107643381008529,0,0,,,,,,,,,,,,,,,,,,,,,1,,,,,,,,,,,,,,,,,,,,,,,,,,,,,,,,,,,,,,,,,,,,,,62,151825,19,Female,1,2024/02/16_08:14:44,SD,None,
,,,,,,calibration,0,14,2,2583,2,X,0,left,1.079128135999781,0,0,,,,,,,,,,,,,,,,,,,,,1,,,,,,,,,,,,,,,,,,,,,,,,,,,,,,,,,,,,,,,,,,,,,,62,151825,19,Female,1,2024/02/16_08:14:44,SD,None,
,,,,,,calibration,0,14,2,2583,3,X,1,right,0.6910639879934024,0,0,,,,,,,,,,,,,,,,,,,,,1,,,,,,,,,,,,,,,,,,,,,,,,,,,,,,,,,,,,,,,,,,,,,,62,151825,19,Female,1,2024/02/16_08:14:44,SD,None,
,,,,,,calibration,0,14,2,2583,4,X,1,right,0.4543303180107614,0,0,,,,,,,,,,,,,,,,,,,,,1,,,,,,,,,,,,,,,,,,,,,,,,,,,,,,,,,,,,,,,,,,,,,,62,151825,19,Female,1,2024/02/16_08:14:44,SD,None,
,,,,,,calibration,0,14,2,2583,5,Q,0,left,1.3408356529980665,0,0,,,,,,,,,,,,,,,,,,,,,1,,,,,,,,,,,,,,,,,,,,,,,,,,,,,,,,,,,,,,,,,,,,,,62,151825,19,Female,1,2024/02/16_08:14:44,SD,None,
,,,,,,calibration,0,14,2,2583,6,J,0,left,0.8401671309984522,0,0,,,,,,,,,,,,,,,,,,,,,1,,,,,,,,,,,,,,,,,,,,,,,,,,,,,,,,,,,,,,,,,,,,,,62,151825,19,Female,1,2024/02/16_08:14:44,SD,None,
,,,,,,calibration,0,14,2,2583,,,,,,,,0.0,0.0,1.0,0.0,0.0,0.0,0.9188614345014988,0,4,0,0,0,0,0,2,4,0,,,,1,,,,,,,,,,,,,,,,,,,,,,,,,,,,,,,,,,,,,,,,,,,,,,62,151825,19,Female,1,2024/02/16_08:14:44,SD,None,
,,,,,,Calibration,0,,2,2583,,,,,,,,,,,,,,,,,,,,,,,,,25,,,1,,,,,,,,,,,,,,,,,,,,,,,,,,,,,,,,,,,,,,,,,,,,,,62,151825,19,Female,1,2024/02/16_08:14:44,SD,None,
,,,,,,calibration,0,21,2,2583,1,S,0,left,0.5820922200073255,0,0,,,,,,,,,,,,,,,,,,,,,1,,,,,,,,,,,,,,,,,,,,,,,,,,,,,,,,,,,,,,,,,,,,,,62,151825,19,Female,1,2024/02/16_08:14:44,SD,None,
,,,,,,calibration,0,21,2,2583,2,F,0,left,0.5991021849913523,0,0,,,,,,,,,,,,,,,,,,,,,1,,,,,,,,,,,,,,,,,,,,,,,,,,,,,,,,,,,,,,,,,,,,,,62,151825,19,Female,1,2024/02/16_08:14:44,SD,None,
,,,,,,calibration,0,21,2,2583,3,V,0,left,0.6086005529941758,0,0,,,,,,,,,,,,,,,,,,,,,1,,,,,,,,,,,,,,,,,,,,,,,,,,,,,,,,,,,,,,,,,,,,,,62,151825,19,Female,1,2024/02/16_08:14:44,SD,None,
,,,,,,calibration,0,21,2,2583,4,J,0,left,0.9421132749994285,0,0,,,,,,,,,,,,,,,,,,,,,1,,,,,,,,,,,,,,,,,,,,,,,,,,,,,,,,,,,,,,,,,,,,,,62,151825,19,Female,1,2024/02/16_08:14:44,SD,None,
,,,,,,calibration,0,21,2,2583,5,V,1,right,0.4673369390075095,0,0,,,,,,,,,,,,,,,,,,,,,1,,,,,,,,,,,,,,,,,,,,,,,,,,,,,,,,,,,,,,,,,,,,,,62,151825,19,Female,1,2024/02/16_08:14:44,SD,None,
,,,,,,calibration,0,21,2,2583,6,J,1,right,1.3053918039950076,0,0,,,,,,,,,,,,,,,,,,,,,1,,,,,,,,,,,,,,,,,,,,,,,,,,,,,,,,,,,,,,,,,,,,,,62,151825,19,Female,1,2024/02/16_08:14:44,SD,None,
,,,,,,calibration,0,21,2,2583,,,,,,,,0.0,0.0,1.0,0.0,0.0,0.0,0.7507728293324666,0,4,0,0,0,0,0,2,4,0,,,,1,,,,,,,,,,,,,,,,,,,,,,,,,,,,,,,,,,,,,,,,,,,,,,62,151825,19,Female,1,2024/02/16_08:14:44,SD,None,
,,,,,,Calibration,0,,2,2583,,,,,,,,,,,,,,,,,,,,,,,,,26,,,1,,,,,,,,,,,,,,,,,,,,,,,,,,,,,,,,,,,,,,,,,,,,,,62,151825,19,Female,1,2024/02/16_08:14:44,SD,None,
,,,,,,calibration,0,9,2,2583,1,S,0,left,0.47229713799606543,0,0,,,,,,,,,,,,,,,,,,,,,1,,,,,,,,,,,,,,,,,,,,,,,,,,,,,,,,,,,,,,,,,,,,,,62,151825,19,Female,1,2024/02/16_08:14:44,SD,None,
,,,,,,calibration,0,9,2,2583,2,V,0,right,0.4166484169982141,1,0,,,,,,,,,,,,,,,,,,,,,1,,,,,,,,,,,,,,,,,,,,,,,,,,,,,,,,,,,,,,,,,,,,,,62,151825,19,Female,1,2024/02/16_08:14:44,SD,None,
,,,,,,calibration,0,9,2,2583,3,X,0,left,0.548026297998149,0,0,,,,,,,,,,,,,,,,,,,,,1,,,,,,,,,,,,,,,,,,,,,,,,,,,,,,,,,,,,,,,,,,,,,,62,151825,19,Female,1,2024/02/16_08:14:44,SD,None,
,,,,,,calibration,0,9,2,2583,4,S,0,left,0.574152581000817,0,0,,,,,,,,,,,,,,,,,,,,,1,,,,,,,,,,,,,,,,,,,,,,,,,,,,,,,,,,,,,,,,,,,,,,62,151825,19,Female,1,2024/02/16_08:14:44,SD,None,
,,,,,,calibration,0,9,2,2583,5,X,1,right,0.9586245430109557,0,0,,,,,,,,,,,,,,,,,,,,,1,,,,,,,,,,,,,,,,,,,,,,,,,,,,,,,,,,,,,,,,,,,,,,62,151825,19,Female,1,2024/02/16_08:14:44,SD,None,
,,,,,,calibration,0,9,2,2583,6,S,1,left,0.826094584990642,1,0,,,,,,,,,,,,,,,,,,,,,1,,,,,,,,,,,,,,,,,,,,,,,,,,,,,,,,,,,,,,,,,,,,,,62,151825,19,Female,1,2024/02/16_08:14:44,SD,None,
,,,,,,calibration,0,9,2,2583,,,,,,,,0.0625,0.5,0.75,0.25,0.0,0.25,0.6326405936658072,1,3,0,0,0,1,2,2,4,0,,,,1,,,,,,,,,,,,,,,,,,,,,,,,,,,,,,,,,,,,,,,,,,,,,,62,151825,19,Female,1,2024/02/16_08:14:44,SD,None,
,,,,,,Calibration,0,,2,2583,,,,,,,,,,,,,,,,,,,,,,,,,27,,,1,,,,,,,,,,,,,,,,,,,,,,,,,,,,,,,,,,,,,,,,,,,,,,62,151825,19,Female,1,2024/02/16_08:14:44,SD,None,
,,,,,,calibration,0,26,2,2583,1,J,0,left,0.7920082030032063,0,0,,,,,,,,,,,,,,,,,,,,,1,,,,,,,,,,,,,,,,,,,,,,,,,,,,,,,,,,,,,,,,,,,,,,62,151825,19,Female,1,2024/02/16_08:14:44,SD,None,
,,,,,,calibration,0,26,2,2583,2,Q,0,left,0.6472048340074252,0,0,,,,,,,,,,,,,,,,,,,,,1,,,,,,,,,,,,,,,,,,,,,,,,,,,,,,,,,,,,,,,,,,,,,,62,151825,19,Female,1,2024/02/16_08:14:44,SD,None,
,,,,,,calibration,0,26,2,2583,3,F,0,left,0.7415720519929891,0,0,,,,,,,,,,,,,,,,,,,,,1,,,,,,,,,,,,,,,,,,,,,,,,,,,,,,,,,,,,,,,,,,,,,,62,151825,19,Female,1,2024/02/16_08:14:44,SD,None,
,,,,,,calibration,0,26,2,2583,4,Q,1,right,0.43942169001093134,0,0,,,,,,,,,,,,,,,,,,,,,1,,,,,,,,,,,,,,,,,,,,,,,,,,,,,,,,,,,,,,,,,,,,,,62,151825,19,Female,1,2024/02/16_08:14:44,SD,None,
,,,,,,calibration,0,26,2,2583,5,F,1,left,0.5571609239996178,1,0,,,,,,,,,,,,,,,,,,,,,1,,,,,,,,,,,,,,,,,,,,,,,,,,,,,,,,,,,,,,,,,,,,,,62,151825,19,Female,1,2024/02/16_08:14:44,SD,None,
,,,,,,calibration,0,26,2,2583,6,V,0,right,0.0,1,0,,,,,,,,,,,,,,,,,,,,,1,,,,,,,,,,,,,,,,,,,,,,,,,,,,,,,,,,,,,,,,,,,,,,62,151825,19,Female,1,2024/02/16_08:14:44,SD,None,
,,,,,,calibration,0,26,2,2583,,,,,,,,0.0625,0.5,0.75,0.25,0.0,0.25,0.529561283835695,1,3,0,0,0,1,2,2,4,0,,,,1,,,,,,,,,,,,,,,,,,,,,,,,,,,,,,,,,,,,,,,,,,,,,,62,151825,19,Female,1,2024/02/16_08:14:44,SD,None,
,,,,,,Calibration,0,,2,2583,,,,,,,,,,,,,,,,,,,,,,,,,28,,,1,,,,,,,,,,,,,,,,,,,,,,,,,,,,,,,,,,,,,,,,,,,,,,62,151825,19,Female,1,2024/02/16_08:14:44,SD,None,
,,,,,,calibration,0,2,2,2583,1,C,0,left,0.8095502979995217,0,0,,,,,,,,,,,,,,,,,,,,,1,,,,,,,,,,,,,,,,,,,,,,,,,,,,,,,,,,,,,,,,,,,,,,62,151825,19,Female,1,2024/02/16_08:14:44,SD,None,
,,,,,,calibration,0,2,2,2583,2,Q,0,left,0.7539259629993467,0,0,,,,,,,,,,,,,,,,,,,,,1,,,,,,,,,,,,,,,,,,,,,,,,,,,,,,,,,,,,,,,,,,,,,,62,151825,19,Female,1,2024/02/16_08:14:44,SD,None,
,,,,,,calibration,0,2,2,2583,3,C,1,right,0.6083205840113806,0,0,,,,,,,,,,,,,,,,,,,,,1,,,,,,,,,,,,,,,,,,,,,,,,,,,,,,,,,,,,,,,,,,,,,,62,151825,19,Female,1,2024/02/16_08:14:44,SD,None,
,,,,,,calibration,0,2,2,2583,4,Q,1,right,0.42704840800433885,0,0,,,,,,,,,,,,,,,,,,,,,1,,,,,,,,,,,,,,,,,,,,,,,,,,,,,,,,,,,,,,,,,,,,,,62,151825,19,Female,1,2024/02/16_08:14:44,SD,None,
,,,,,,calibration,0,2,2,2583,5,X,0,left,0.6081385779980337,0,0,,,,,,,,,,,,,,,,,,,,,1,,,,,,,,,,,,,,,,,,,,,,,,,,,,,,,,,,,,,,,,,,,,,,62,151825,19,Female,1,2024/02/16_08:14:44,SD,None,
,,,,,,calibration,0,2,2,2583,6,N,0,left,0.6746367449959507,0,0,,,,,,,,,,,,,,,,,,,,,1,,,,,,,,,,,,,,,,,,,,,,,,,,,,,,,,,,,,,,,,,,,,,,62,151825,19,Female,1,2024/02/16_08:14:44,SD,None,
,,,,,,calibration,0,2,2,2583,,,,,,,,0.0,0.0,1.0,0.0,0.0,0.0,0.6469367626680954,0,4,0,0,0,0,0,2,4,0,,,,1,,,,,,,,,,,,,,,,,,,,,,,,,,,,,,,,,,,,,,,,,,,,,,62,151825,19,Female,1,2024/02/16_08:14:44,SD,None,
,,,,,,Calibration,0,,2,2583,,,,,,,,,,,,,,,,,,,,,,,,,29,,,1,,,,,,,,,,,,,,,,,,,,,,,,,,,,,,,,,,,,,,,,,,,,,,62,151825,19,Female,1,2024/02/16_08:14:44,SD,None,
,,,,,,calibration,0,6,2,2583,1,N,0,left,0.46695286899921484,0,0,,,,,,,,,,,,,,,,,,,,,1,,,,,,,,,,,,,,,,,,,,,,,,,,,,,,,,,,,,,,,,,,,,,,62,151825,19,Female,1,2024/02/16_08:14:44,SD,None,
,,,,,,calibration,0,6,2,2583,2,J,0,left,0.4608363629959058,0,0,,,,,,,,,,,,,,,,,,,,,1,,,,,,,,,,,,,,,,,,,,,,,,,,,,,,,,,,,,,,,,,,,,,,62,151825,19,Female,1,2024/02/16_08:14:44,SD,None,
,,,,,,calibration,0,6,2,2583,3,N,1,right,0.5570028410002124,0,0,,,,,,,,,,,,,,,,,,,,,1,,,,,,,,,,,,,,,,,,,,,,,,,,,,,,,,,,,,,,,,,,,,,,62,151825,19,Female,1,2024/02/16_08:14:44,SD,None,
,,,,,,calibration,0,6,2,2583,4,C,0,left,0.6346153229969786,0,0,,,,,,,,,,,,,,,,,,,,,1,,,,,,,,,,,,,,,,,,,,,,,,,,,,,,,,,,,,,,,,,,,,,,62,151825,19,Female,1,2024/02/16_08:14:44,SD,None,
,,,,,,calibration,0,6,2,2583,5,F,0,right,0.4334917800006224,1,0,,,,,,,,,,,,,,,,,,,,,1,,,,,,,,,,,,,,,,,,,,,,,,,,,,,,,,,,,,,,,,,,,,,,62,151825,19,Female,1,2024/02/16_08:14:44,SD,None,
,,,,,,calibration,0,6,2,2583,6,C,1,left,0.42600809200666845,1,0,,,,,,,,,,,,,,,,,,,,,1,,,,,,,,,,,,,,,,,,,,,,,,,,,,,,,,,,,,,,,,,,,,,,62,151825,19,Female,1,2024/02/16_08:14:44,SD,None,
,,,,,,calibration,0,6,2,2583,,,,,,,,0.0625,0.5,0.75,0.25,0.0,0.25,0.4964845446666004,1,3,0,0,0,1,2,2,4,0,,,,1,,,,,,,,,,,,,,,,,,,,,,,,,,,,,,,,,,,,,,,,,,,,,,62,151825,19,Female,1,2024/02/16_08:14:44,SD,None,
,,,,,,Calibration,0,,2,2583,,,,,,,,,,,,,,,,,,,,,,,,,30,,,1,,,,,,,,,,,,,,,,,,,,,,,,,,,,,,,,,,,,,,,,,,,,,,62,151825,19,Female,1,2024/02/16_08:14:44,SD,None,
,,,,,,calibration,0,10,2,2583,1,N,0,left,0.2820715499983635,0,0,,,,,,,,,,,,,,,,,,,,,1,,,,,,,,,,,,,,,,,,,,,,,,,,,,,,,,,,,,,,,,,,,,,,62,151825,19,Female,1,2024/02/16_08:14:44,SD,None,
,,,,,,calibration,0,10,2,2583,2,N,0,left,0.7411722090037074,0,0,,,,,,,,,,,,,,,,,,,,,1,,,,,,,,,,,,,,,,,,,,,,,,,,,,,,,,,,,,,,,,,,,,,,62,151825,19,Female,1,2024/02/16_08:14:44,SD,None,
,,,,,,calibration,0,10,2,2583,3,N,1,right,0.491711580005358,0,0,,,,,,,,,,,,,,,,,,,,,1,,,,,,,,,,,,,,,,,,,,,,,,,,,,,,,,,,,,,,,,,,,,,,62,151825,19,Female,1,2024/02/16_08:14:44,SD,None,
,,,,,,calibration,0,10,2,2583,4,V,0,left,1.5454401120077819,0,0,,,,,,,,,,,,,,,,,,,,,1,,,,,,,,,,,,,,,,,,,,,,,,,,,,,,,,,,,,,,,,,,,,,,62,151825,19,Female,1,2024/02/16_08:14:44,SD,None,
,,,,,,calibration,0,10,2,2583,5,J,0,left,0.8746312549919821,0,0,,,,,,,,,,,,,,,,,,,,,1,,,,,,,,,,,,,,,,,,,,,,,,,,,,,,,,,,,,,,,,,,,,,,62,151825,19,Female,1,2024/02/16_08:14:44,SD,None,
,,,,,,calibration,0,10,2,2583,6,V,1,right,0.7692865020071622,0,0,,,,,,,,,,,,,,,,,,,,,1,,,,,,,,,,,,,,,,,,,,,,,,,,,,,,,,,,,,,,,,,,,,,,62,151825,19,Female,1,2024/02/16_08:14:44,SD,None,
,,,,,,calibration,0,10,2,2583,,,,,,,,0.0,0.0,1.0,0.0,0.0,0.0,0.7840522013357258,0,4,0,0,0,0,0,2,4,0,,,,1,,,,,,,,,,,,,,,,,,,,,,,,,,,,,,,,,,,,,,,,,,,,,,62,151825,19,Female,1,2024/02/16_08:14:44,SD,None,
,,,,,,Calibration,0,,2,2583,,,,,,,,,,,,,,,,,,,,,,,,,31,,,1,,,,,,,,,,,,,,,,,,,,,,,,,,,,,,,,,,,,,,,,,,,,,,62,151825,19,Female,1,2024/02/16_08:14:44,SD,None,
,,,,,,calibration,0,17,2,2583,1,Q,0,left,0.5123706049926113,0,0,,,,,,,,,,,,,,,,,,,,,1,,,,,,,,,,,,,,,,,,,,,,,,,,,,,,,,,,,,,,,,,,,,,,62,151825,19,Female,1,2024/02/16_08:14:44,SD,None,
,,,,,,calibration,0,17,2,2583,2,N,0,left,0.42670377501053736,0,0,,,,,,,,,,,,,,,,,,,,,1,,,,,,,,,,,,,,,,,,,,,,,,,,,,,,,,,,,,,,,,,,,,,,62,151825,19,Female,1,2024/02/16_08:14:44,SD,None,
,,,,,,calibration,0,17,2,2583,3,C,0,left,0.6082652309996774,0,0,,,,,,,,,,,,,,,,,,,,,1,,,,,,,,,,,,,,,,,,,,,,,,,,,,,,,,,,,,,,,,,,,,,,62,151825,19,Female,1,2024/02/16_08:14:44,SD,None,
,,,,,,calibration,0,17,2,2583,4,N,1,right,0.459817473005387,0,0,,,,,,,,,,,,,,,,,,,,,1,,,,,,,,,,,,,,,,,,,,,,,,,,,,,,,,,,,,,,,,,,,,,,62,151825,19,Female,1,2024/02/16_08:14:44,SD,None,
,,,,,,calibration,0,17,2,2583,5,C,1,right,0.4926812850026181,0,0,,,,,,,,,,,,,,,,,,,,,1,,,,,,,,,,,,,,,,,,,,,,,,,,,,,,,,,,,,,,,,,,,,,,62,151825,19,Female,1,2024/02/16_08:14:44,SD,None,
,,,,,,calibration,0,17,2,2583,6,J,0,left,0.4607150879892288,0,0,,,,,,,,,,,,,,,,,,,,,1,,,,,,,,,,,,,,,,,,,,,,,,,,,,,,,,,,,,,,,,,,,,,,62,151825,19,Female,1,2024/02/16_08:14:44,SD,None,
,,,,,,calibration,0,17,2,2583,,,,,,,,0.0,0.0,1.0,0.0,0.0,0.0,0.49342557616667665,0,4,0,0,0,0,0,2,4,0,,,,1,,,,,,,,,,,,,,,,,,,,,,,,,,,,,,,,,,,,,,,,,,,,,,62,151825,19,Female,1,2024/02/16_08:14:44,SD,None,
,,,,,,Calibration,0,,2,2583,,,,,,,,,,,,,,,,,,,,,,,,,32,,,1,,,,,,,,,,,,,,,,,,,,,,,,,,,,,,,,,,,,,,,,,,,,,,62,151825,19,Female,1,2024/02/16_08:14:44,SD,None,
,,,,,,calibration,0,19,2,2583,1,N,0,left,0.42616379499668255,0,0,,,,,,,,,,,,,,,,,,,,,1,,,,,,,,,,,,,,,,,,,,,,,,,,,,,,,,,,,,,,,,,,,,,,62,151825,19,Female,1,2024/02/16_08:14:44,SD,None,
,,,,,,calibration,0,19,2,2583,2,Q,0,left,0.4642313490039669,0,0,,,,,,,,,,,,,,,,,,,,,1,,,,,,,,,,,,,,,,,,,,,,,,,,,,,,,,,,,,,,,,,,,,,,62,151825,19,Female,1,2024/02/16_08:14:44,SD,None,
,,,,,,calibration,0,19,2,2583,3,N,1,right,0.4054180590028409,0,0,,,,,,,,,,,,,,,,,,,,,1,,,,,,,,,,,,,,,,,,,,,,,,,,,,,,,,,,,,,,,,,,,,,,62,151825,19,Female,1,2024/02/16_08:14:44,SD,None,
,,,,,,calibration,0,19,2,2583,4,Q,1,right,0.5806377730041277,0,0,,,,,,,,,,,,,,,,,,,,,1,,,,,,,,,,,,,,,,,,,,,,,,,,,,,,,,,,,,,,,,,,,,,,62,151825,19,Female,1,2024/02/16_08:14:44,SD,None,
,,,,,,calibration,0,19,2,2583,5,S,0,left,0.5969343110045884,0,0,,,,,,,,,,,,,,,,,,,,,1,,,,,,,,,,,,,,,,,,,,,,,,,,,,,,,,,,,,,,,,,,,,,,62,151825,19,Female,1,2024/02/16_08:14:44,SD,None,
,,,,,,calibration,0,19,2,2583,6,V,0,left,0.5241837149951607,0,0,,,,,,,,,,,,,,,,,,,,,1,,,,,,,,,,,,,,,,,,,,,,,,,,,,,,,,,,,,,,,,,,,,,,62,151825,19,Female,1,2024/02/16_08:14:44,SD,None,
,,,,,,calibration,0,19,2,2583,,,,,,,,0.0,0.0,1.0,0.0,0.0,0.0,0.49959483366789453,0,4,0,0,0,0,0,2,4,0,,,,1,,,,,,,,,,,,,,,,,,,,,,,,,,,,,,,,,,,,,,,,,,,,,,62,151825,19,Female,1,2024/02/16_08:14:44,SD,None,
,,,,,,Calibration,0,,2,2583,,,,,,,,,,,,,,,,,,,,,,,,,33,,,1,,,,,,,,,,,,,,,,,,,,,,,,,,,,,,,,,,,,,,,,,,,,,,62,151825,19,Female,1,2024/02/16_08:14:44,SD,None,
,,,,,,calibration,0,28,2,2583,1,F,0,left,1.3951419980003266,0,0,,,,,,,,,,,,,,,,,,,,,1,,,,,,,,,,,,,,,,,,,,,,,,,,,,,,,,,,,,,,,,,,,,,,62,151825,19,Female,1,2024/02/16_08:14:44,SD,None,
,,,,,,calibration,0,28,2,2583,2,N,0,left,0.784715606001555,0,0,,,,,,,,,,,,,,,,,,,,,1,,,,,,,,,,,,,,,,,,,,,,,,,,,,,,,,,,,,,,,,,,,,,,62,151825,19,Female,1,2024/02/16_08:14:44,SD,None,
,,,,,,calibration,0,28,2,2583,3,Q,0,left,0.5519397479947656,0,0,,,,,,,,,,,,,,,,,,,,,1,,,,,,,,,,,,,,,,,,,,,,,,,,,,,,,,,,,,,,,,,,,,,,62,151825,19,Female,1,2024/02/16_08:14:44,SD,None,
,,,,,,calibration,0,28,2,2583,4,N,1,right,0.4401225780020468,0,0,,,,,,,,,,,,,,,,,,,,,1,,,,,,,,,,,,,,,,,,,,,,,,,,,,,,,,,,,,,,,,,,,,,,62,151825,19,Female,1,2024/02/16_08:14:44,SD,None,
,,,,,,calibration,0,28,2,2583,5,Q,1,left,0.5911902480002027,1,0,,,,,,,,,,,,,,,,,,,,,1,,,,,,,,,,,,,,,,,,,,,,,,,,,,,,,,,,,,,,,,,,,,,,62,151825,19,Female,1,2024/02/16_08:14:44,SD,None,
,,,,,,calibration,0,28,2,2583,6,V,0,right,0.08572962800099049,1,0,,,,,,,,,,,,,,,,,,,,,1,,,,,,,,,,,,,,,,,,,,,,,,,,,,,,,,,,,,,,,,,,,,,,62,151825,19,Female,1,2024/02/16_08:14:44,SD,None,
,,,,,,calibration,0,28,2,2583,,,,,,,,0.0625,0.5,0.75,0.25,0.0,0.25,0.6414733009999812,1,3,0,0,0,1,2,2,4,0,,,,1,,,,,,,,,,,,,,,,,,,,,,,,,,,,,,,,,,,,,,,,,,,,,,62,151825,19,Female,1,2024/02/16_08:14:44,SD,None,
,,,,,,Calibration,0,,2,2583,,,,,,,,,,,,,,,,,,,,,,,,,34,,,1,,,,,,,,,,,,,,,,,,,,,,,,,,,,,,,,,,,,,,,,,,,,,,62,151825,19,Female,1,2024/02/16_08:14:44,SD,None,
,,,,,,calibration,0,3,2,2583,1,X,0,left,0.44847976800519973,0,0,,,,,,,,,,,,,,,,,,,,,1,,,,,,,,,,,,,,,,,,,,,,,,,,,,,,,,,,,,,,,,,,,,,,62,151825,19,Female,1,2024/02/16_08:14:44,SD,None,
,,,,,,calibration,0,3,2,2583,2,N,0,left,0.4398519340029452,0,0,,,,,,,,,,,,,,,,,,,,,1,,,,,,,,,,,,,,,,,,,,,,,,,,,,,,,,,,,,,,,,,,,,,,62,151825,19,Female,1,2024/02/16_08:14:44,SD,None,
,,,,,,calibration,0,3,2,2583,3,V,0,left,0.5325697640073486,0,0,,,,,,,,,,,,,,,,,,,,,1,,,,,,,,,,,,,,,,,,,,,,,,,,,,,,,,,,,,,,,,,,,,,,62,151825,19,Female,1,2024/02/16_08:14:44,SD,None,
,,,,,,calibration,0,3,2,2583,4,N,1,right,0.38718801899813116,0,0,,,,,,,,,,,,,,,,,,,,,1,,,,,,,,,,,,,,,,,,,,,,,,,,,,,,,,,,,,,,,,,,,,,,62,151825,19,Female,1,2024/02/16_08:14:44,SD,None,
,,,,,,calibration,0,3,2,2583,5,S,0,left,0.5434207069920376,0,0,,,,,,,,,,,,,,,,,,,,,1,,,,,,,,,,,,,,,,,,,,,,,,,,,,,,,,,,,,,,,,,,,,,,62,151825,19,Female,1,2024/02/16_08:14:44,SD,None,
,,,,,,calibration,0,3,2,2583,6,N,1,right,0.4146264659939334,0,0,,,,,,,,,,,,,,,,,,,,,1,,,,,,,,,,,,,,,,,,,,,,,,,,,,,,,,,,,,,,,,,,,,,,62,151825,19,Female,1,2024/02/16_08:14:44,SD,None,
,,,,,,calibration,0,3,2,2583,,,,,,,,0.0,0.0,1.0,0.0,0.0,0.0,0.46102277633326594,0,4,0,0,0,0,0,2,4,0,,,,1,,,,,,,,,,,,,,,,,,,,,,,,,,,,,,,,,,,,,,,,,,,,,,62,151825,19,Female,1,2024/02/16_08:14:44,SD,None,
,,,,,,Calibration,0,,2,2583,,,,,,,,,,,,,,,,,,,,,,,,,35,,,1,,,,,,,,,,,,,,,,,,,,,,,,,,,,,,,,,,,,,,,,,,,,,,62,151825,19,Female,1,2024/02/16_08:14:44,SD,None,
,,,,,,calibration,0,11,2,2583,1,N,0,left,0.3711331280064769,0,0,,,,,,,,,,,,,,,,,,,,,1,,,,,,,,,,,,,,,,,,,,,,,,,,,,,,,,,,,,,,,,,,,,,,62,151825,19,Female,1,2024/02/16_08:14:44,SD,None,
,,,,,,calibration,0,11,2,2583,2,J,0,left,0.42504683299921453,0,0,,,,,,,,,,,,,,,,,,,,,1,,,,,,,,,,,,,,,,,,,,,,,,,,,,,,,,,,,,,,,,,,,,,,62,151825,19,Female,1,2024/02/16_08:14:44,SD,None,
,,,,,,calibration,0,11,2,2583,3,X,0,left,0.6238086280063726,0,0,,,,,,,,,,,,,,,,,,,,,1,,,,,,,,,,,,,,,,,,,,,,,,,,,,,,,,,,,,,,,,,,,,,,62,151825,19,Female,1,2024/02/16_08:14:44,SD,None,
,,,,,,calibration,0,11,2,2583,4,J,1,right,0.4653644450008869,0,0,,,,,,,,,,,,,,,,,,,,,1,,,,,,,,,,,,,,,,,,,,,,,,,,,,,,,,,,,,,,,,,,,,,,62,151825,19,Female,1,2024/02/16_08:14:44,SD,None,
,,,,,,calibration,0,11,2,2583,5,C,0,left,0.4312655500107212,0,0,,,,,,,,,,,,,,,,,,,,,1,,,,,,,,,,,,,,,,,,,,,,,,,,,,,,,,,,,,,,,,,,,,,,62,151825,19,Female,1,2024/02/16_08:14:44,SD,None,
,,,,,,calibration,0,11,2,2583,6,J,1,right,0.47637243699864484,0,0,,,,,,,,,,,,,,,,,,,,,1,,,,,,,,,,,,,,,,,,,,,,,,,,,,,,,,,,,,,,,,,,,,,,62,151825,19,Female,1,2024/02/16_08:14:44,SD,None,
,,,,,,calibration,0,11,2,2583,,,,,,,,0.0,0.0,1.0,0.0,0.0,0.0,0.4654985035037195,0,4,0,0,0,0,0,2,4,0,,,,1,,,,,,,,,,,,,,,,,,,,,,,,,,,,,,,,,,,,,,,,,,,,,,62,151825,19,Female,1,2024/02/16_08:14:44,SD,None,
,,,,,,Calibration,0,,2,2583,,,,,,,,,,,,,,,,,,,,,,,,,36,,,1,,,,,,,,,,,,,,,,,,,,,,,,,,,,,,,,,,,,,,,,,,,,,,62,151825,19,Female,1,2024/02/16_08:14:44,SD,None,
,,,,,,calibration,0,36,2,2583,1,S,0,left,0.7296715779957594,0,0,,,,,,,,,,,,,,,,,,,,,1,,,,,,,,,,,,,,,,,,,,,,,,,,,,,,,,,,,,,,,,,,,,,,62,151825,19,Female,1,2024/02/16_08:14:44,SD,None,
,,,,,,calibration,0,36,2,2583,2,N,0,left,0.41228800600219984,0,0,,,,,,,,,,,,,,,,,,,,,1,,,,,,,,,,,,,,,,,,,,,,,,,,,,,,,,,,,,,,,,,,,,,,62,151825,19,Female,1,2024/02/16_08:14:44,SD,None,
,,,,,,calibration,0,36,2,2583,3,S,1,left,0.5630723909998778,1,0,,,,,,,,,,,,,,,,,,,,,1,,,,,,,,,,,,,,,,,,,,,,,,,,,,,,,,,,,,,,,,,,,,,,62,151825,19,Female,1,2024/02/16_08:14:44,SD,None,
,,,,,,calibration,0,36,2,2583,4,V,0,right,0.8425114249985199,1,0,,,,,,,,,,,,,,,,,,,,,1,,,,,,,,,,,,,,,,,,,,,,,,,,,,,,,,,,,,,,,,,,,,,,62,151825,19,Female,1,2024/02/16_08:14:44,SD,None,
,,,,,,calibration,0,36,2,2583,5,S,1,left,0.4539502510015154,1,0,,,,,,,,,,,,,,,,,,,,,1,,,,,,,,,,,,,,,,,,,,,,,,,,,,,,,,,,,,,,,,,,,,,,62,151825,19,Female,1,2024/02/16_08:14:44,SD,None,
,,,,,,calibration,0,36,2,2583,6,N,0,left,1.1267700370081002,0,0,,,,,,,,,,,,,,,,,,,,,1,,,,,,,,,,,,,,,,,,,,,,,,,,,,,,,,,,,,,,,,,,,,,,62,151825,19,Female,1,2024/02/16_08:14:44,SD,None,
,,,,,,calibration,0,36,2,2583,,,,,,,,0.8125,1.0,0.75,0.25,0.0,0.25,0.6880439480009954,2,3,0,0,0,1,3,2,4,0,,,,1,,,,,,,,,,,,,,,,,,,,,,,,,,,,,,,,,,,,,,,,,,,,,,62,151825,19,Female,1,2024/02/16_08:14:44,SD,None,
,,,,,,Calibration,0,,2,2583,,,,,,,,,,,,,,,,,,,,,,,,,37,,,1,,,,,,,,,,,,,,,,,,,,,,,,,,,,,,,,,,,,,,,,,,,,,,62,151825,19,Female,1,2024/02/16_08:14:44,SD,None,
,,,,,,CALIBRATION,0,,,,,,,,,,,,,,,,,,,,,,,,,,,,37,0.8125,2583,1,,,,,,,,,,,,,,,,,,,,,,,,,,,,,,,,,,,,,,,,,,,,,,62,151825,19,Female,1,2024/02/16_08:14:44,SD,None,
1,./instructions/inst_prac_1/Slide24.png,right,25.70407457300462,762.7811212090019,788.4851957820065,,,,,,,,,,,,,,,,,,,,,,,,,,,,,,,,,1,,,,,,,,,,,,,,,,,,,,,,,,,,,,,,,,,,,,,,,,,,,,,,62,151825,19,Female,1,2024/02/16_08:14:44,SD,None,
2,./instructions/inst_prac_1/Slide25.png,right,1.6939246480033034,788.5190920309979,790.2130166790012,,,,,,,,,,,,,,,,,,,,,,,,,,,,,,,,,1,,,,,,,,,,,,,,,,,,,,,,,,,,,,,,,,,,,,,,,,,,,,,,62,151825,19,Female,1,2024/02/16_08:14:44,SD,None,
3,./instructions/inst_prac_1/Slide26.png,right,1.4457373899931554,790.2475058910059,791.693243280999,,,,,,,,,,,,,,,,,,,,,,,,,,,,,,,,,1,,,,,,,,,,,,,,,,,,,,,,,,,,,,,,,,,,,,,,,,,,,,,,62,151825,19,Female,1,2024/02/16_08:14:44,SD,None,
4,./instructions/inst_prac_1/Slide27.png,right,1.5682452210021438,791.7250295160047,793.2932747370069,,,,,,,,,,,,,,,,,,,,,,,,,,,,,,,,,1,,,,,,,,,,,,,,,,,,,,,,,,,,,,,,,,,,,,,,,,,,,,,,62,151825,19,Female,1,2024/02/16_08:14:44,SD,None,
5,./instructions/inst_prac_1/Slide28.png,right,2.71919407499081,793.3260745240113,796.0452685990022,,,,,,,,,,,,,,,,,,,,,,,,,,,,,,,,,1,,,,,,,,,,,,,,,,,,,,,,,,,,,,,,,,,,,,,,,,,,,,,,62,151825,19,Female,1,2024/02/16_08:14:44,SD,None,
6,./instructions/inst_prac_1/Slide29.png,right,1.8472904569935054,796.0779252000066,797.9252156570001,,,,,,,,,,,,,,,,,,,,,,,,,,,,,,,,,1,,,,,,,,,,,,,,,,,,,,,,,,,,,,,,,,,,,,,,,,,,,,,,62,151825,19,Female,1,2024/02/16_08:14:44,SD,None,
7,./instructions/inst_prac_1/Slide30.png,right,1.0143712559947744,797.9587594940094,798.9731307500042,,,,,,,,,,,,,,,,,,,,,,,,,,,,,,,,,1,,,,,,,,,,,,,,,,,,,,,,,,,,,,,,,,,,,,,,,,,,,,,,62,151825,19,Female,1,2024/02/16_08:14:44,SD,None,
,,,,,,practice,0,26,1,1250,1,S,0,right,11.001499514008174,1,0,,,,,,,,,,,,,,,,,,,,,1,,,,,,,,,,,,,,,,,,,,,,,,,,,,,,,,,,,,,,,,,,,,,,62,151825,19,Female,1,2024/02/16_08:14:44,SD,None,
,,,,,,practice,0,26,1,1250,2,V,0,right,1.8617088360042544,1,0,,,,,,,,,,,,,,,,,,,,,1,,,,,,,,,,,,,,,,,,,,,,,,,,,,,,,,,,,,,,,,,,,,,,62,151825,19,Female,1,2024/02/16_08:14:44,SD,None,
,,,,,,practice,0,26,1,1250,3,N,0,right,0.42848488299932797,1,0,,,,,,,,,,,,,,,,,,,,,1,,,,,,,,,,,,,,,,,,,,,,,,,,,,,,,,,,,,,,,,,,,,,,62,151825,19,Female,1,2024/02/16_08:14:44,SD,None,
,,,,,,practice,0,26,1,1250,4,N,1,left,0.7210715589899337,1,0,,,,,,,,,,,,,,,,,,,,,1,,,,,,,,,,,,,,,,,,,,,,,,,,,,,,,,,,,,,,,,,,,,,,62,151825,19,Female,1,2024/02/16_08:14:44,SD,None,
,,,,,,practice,0,26,1,1250,5,C,0,right,0.8674831020034617,1,0,,,,,,,,,,,,,,,,,,,,,1,,,,,,,,,,,,,,,,,,,,,,,,,,,,,,,,,,,,,,,,,,,,,,62,151825,19,Female,1,2024/02/16_08:14:44,SD,None,
,,,,,,practice,0,26,1,1250,6,Q,0,right,0.6727175810083281,1,0,,,,,,,,,,,,,,,,,,,,,1,,,,,,,,,,,,,,,,,,,,,,,,,,,,,,,,,,,,,,,,,,,,,,62,151825,19,Female,1,2024/02/16_08:14:44,SD,None,
,,,,,,practice,0,26,1,1250,7,Q,1,left,0.9610775990004186,1,0,,,,,,,,,,,,,,,,,,,,,1,,,,,,,,,,,,,,,,,,,,,,,,,,,,,,,,,,,,,,,,,,,,,,62,151825,19,Female,1,2024/02/16_08:14:44,SD,None,
,,,,,,practice,0,26,1,1250,8,N,0,right,0.6380029769934481,1,0,,,,,,,,,,,,,,,,,,,,,1,,,,,,,,,,,,,,,,,,,,,,,,,,,,,,,,,,,,,,,,,,,,,,62,151825,19,Female,1,2024/02/16_08:14:44,SD,None,
,,,,,,practice,0,26,1,1250,9,Q,0,left,1.1863858430006076,0,0,,,,,,,,,,,,,,,,,,,,,1,,,,,,,,,,,,,,,,,,,,,,,,,,,,,,,,,,,,,,,,,,,,,,62,151825,19,Female,1,2024/02/16_08:14:44,SD,None,
,,,,,,practice,0,26,1,1250,10,Q,1,right,0.6133447579923086,0,0,,,,,,,,,,,,,,,,,,,,,1,,,,,,,,,,,,,,,,,,,,,,,,,,,,,,,,,,,,,,,,,,,,,,62,151825,19,Female,1,2024/02/16_08:14:44,SD,None,
,,,,,,practice,0,26,1,1250,,,,,,,,0.8333333333333333,0.6666666666666666,0.14285714285714285,0.8571428571428571,0.0,0.8571428571428572,1.8951776652000263,2,1,0,0,0,6,8,3,7,0,,,,1,,,,,,,,,,,,,,,,,,,,,,,,,,,,,,,,,,,,,,,,,,,,,,62,151825,19,Female,1,2024/02/16_08:14:44,SD,None,
1,./instructions/inst_prac_1_next/Slide35.png,right,7.5701685570093105,829.4749053819978,837.0450739390071,,,,,,,,,,,,,,,,,,,,,,,,,,,,,,,,,1,,,,,,,,,,,,,,,,,,,,,,,,,,,,,,,,,,,,,,,,,,,,,,62,151825,19,Female,1,2024/02/16_08:14:44,SD,None,
,,,,,,practice,0,18,1,2583,1,C,0,left,0.6274053899978753,0,0,,,,,,,,,,,,,,,,,,,,,1,,,,,,,,,,,,,,,,,,,,,,,,,,,,,,,,,,,,,,,,,,,,,,62,151825,19,Female,1,2024/02/16_08:14:44,SD,None,
,,,,,,practice,0,18,1,2583,2,C,1,left,0.8682714739989024,1,0,,,,,,,,,,,,,,,,,,,,,1,,,,,,,,,,,,,,,,,,,,,,,,,,,,,,,,,,,,,,,,,,,,,,62,151825,19,Female,1,2024/02/16_08:14:44,SD,None,
,,,,,,practice,0,18,1,2583,3,S,0,right,0.48913852899568155,1,0,,,,,,,,,,,,,,,,,,,,,1,,,,,,,,,,,,,,,,,,,,,,,,,,,,,,,,,,,,,,,,,,,,,,62,151825,19,Female,1,2024/02/16_08:14:44,SD,None,
,,,,,,practice,0,18,1,2583,4,V,0,right,0.6409011310024653,1,0,,,,,,,,,,,,,,,,,,,,,1,,,,,,,,,,,,,,,,,,,,,,,,,,,,,,,,,,,,,,,,,,,,,,62,151825,19,Female,1,2024/02/16_08:14:44,SD,None,
,,,,,,practice,0,18,1,2583,5,V,1,left,0.8061229080049088,1,0,,,,,,,,,,,,,,,,,,,,,1,,,,,,,,,,,,,,,,,,,,,,,,,,,,,,,,,,,,,,,,,,,,,,62,151825,19,Female,1,2024/02/16_08:14:44,SD,None,
,,,,,,practice,0,18,1,2583,6,F,0,right,0.7658584079908906,1,0,,,,,,,,,,,,,,,,,,,,,1,,,,,,,,,,,,,,,,,,,,,,,,,,,,,,,,,,,,,,,,,,,,,,62,151825,19,Female,1,2024/02/16_08:14:44,SD,None,
,,,,,,practice,0,18,1,2583,,,,,,,,0.9375,1.0,0.25,0.75,0.0,0.75,0.6996163066651206,2,1,0,0,0,3,5,2,4,0,,,,1,,,,,,,,,,,,,,,,,,,,,,,,,,,,,,,,,,,,,,,,,,,,,,62,151825,19,Female,1,2024/02/16_08:14:44,SD,None,
,,,,,,practice,0,35,1,2583,1,F,0,right,1.0206780029984657,1,0,,,,,,,,,,,,,,,,,,,,,1,,,,,,,,,,,,,,,,,,,,,,,,,,,,,,,,,,,,,,,,,,,,,,62,151825,19,Female,1,2024/02/16_08:14:44,SD,None,
,,,,,,practice,0,35,1,2583,2,F,1,left,0.5610950870031957,1,0,,,,,,,,,,,,,,,,,,,,,1,,,,,,,,,,,,,,,,,,,,,,,,,,,,,,,,,,,,,,,,,,,,,,62,151825,19,Female,1,2024/02/16_08:14:44,SD,None,
,,,,,,practice,0,35,1,2583,3,S,0,right,0.5775328970048577,1,0,,,,,,,,,,,,,,,,,,,,,1,,,,,,,,,,,,,,,,,,,,,,,,,,,,,,,,,,,,,,,,,,,,,,62,151825,19,Female,1,2024/02/16_08:14:44,SD,None,
,,,,,,practice,0,35,1,2583,4,S,1,left,0.6284163490054198,1,0,,,,,,,,,,,,,,,,,,,,,1,,,,,,,,,,,,,,,,,,,,,,,,,,,,,,,,,,,,,,,,,,,,,,62,151825,19,Female,1,2024/02/16_08:14:44,SD,None,
,,,,,,practice,0,35,1,2583,5,Q,0,right,0.6684820679947734,1,0,,,,,,,,,,,,,,,,,,,,,1,,,,,,,,,,,,,,,,,,,,,,,,,,,,,,,,,,,,,,,,,,,,,,62,151825,19,Female,1,2024/02/16_08:14:44,SD,None,
,,,,,,practice,0,35,1,2583,6,F,0,right,0.6306631470069988,1,0,,,,,,,,,,,,,,,,,,,,,1,,,,,,,,,,,,,,,,,,,,,,,,,,,,,,,,,,,,,,,,,,,,,,62,151825,19,Female,1,2024/02/16_08:14:44,SD,None,
,,,,,,practice,0,35,1,2583,,,,,,,,1.0,1.0,0.0,1.0,0.0,1.0,0.6811445918356185,2,0,0,0,0,4,6,2,4,0,,,,1,,,,,,,,,,,,,,,,,,,,,,,,,,,,,,,,,,,,,,,,,,,,,,62,151825,19,Female,1,2024/02/16_08:14:44,SD,None,
1,./instructions/inst_prac_3/Slide37.png,right,5.404515618996811,855.6967328650062,861.101248484003,,,,,,,,,,,,,,,,,,,,,,,,,,,,,,,,,1,,,,,,,,,,,,,,,,,,,,,,,,,,,,,,,,,,,,,,,,,,,,,,62,151825,19,Female,1,2024/02/16_08:14:44,SD,None,
2,./instructions/inst_prac_3/Slide38.png,right,1.3173471159971086,861.1358642020059,862.453211318003,,,,,,,,,,,,,,,,,,,,,,,,,,,,,,,,,1,,,,,,,,,,,,,,,,,,,,,,,,,,,,,,,,,,,,,,,,,,,,,,62,151825,19,Female,1,2024/02/16_08:14:44,SD,None,
3,./instructions/inst_prac_3/Slide39.png,right,0.7264778980024857,862.4868078959989,863.2132857940014,,,,,,,,,,,,,,,,,,,,,,,,,,,,,,,,,1,,,,,,,,,,,,,,,,,,,,,,,,,,,,,,,,,,,,,,,,,,,,,,62,151825,19,Female,1,2024/02/16_08:14:44,SD,None,
4,./instructions/inst_prac_3/Slide40.png,right,1.6123461779934587,863.2408701670065,864.853216345,,,,,,,,,,,,,,,,,,,,,,,,,,,,,,,,,1,,,,,,,,,,,,,,,,,,,,,,,,,,,,,,,,,,,,,,,,,,,,,,62,151825,19,Female,1,2024/02/16_08:14:44,SD,None,
5,./instructions/inst_prac_3/Slide41.png,right,6.141816165007185,864.8872079639987,871.0290241290058,,,,,,,,,,,,,,,,,,,,,,,,,,,,,,,,,1,,,,,,,,,,,,,,,,,,,,,,,,,,,,,,,,,,,,,,,,,,,,,,62,151825,19,Female,1,2024/02/16_08:14:44,SD,None,
6,./instructions/inst_prac_3/Slide42.png,right,8.67041745899769,871.062845035005,879.7332624940027,,,,,,,,,,,,,,,,,,,,,,,,,,,,,,,,,1,,,,,,,,,,,,,,,,,,,,,,,,,,,,,,,,,,,,,,,,,,,,,,62,151825,19,Female,1,2024/02/16_08:14:44,SD,None,
7,./instructions/inst_prac_3/Slide43.png,right,0.20039851700130384,879.7667883560061,879.9671868730074,,,,,,,,,,,,,,,,,,,,,,,,,,,,,,,,,1,,,,,,,,,,,,,,,,,,,,,,,,,,,,,,,,,,,,,,,,,,,,,,62,151825,19,Female,1,2024/02/16_08:14:44,SD,None,
8,./instructions/inst_prac_3/Slide44.png,right,12.234713021010975,879.9945694950002,892.2292825160112,,,,,,,,,,,,,,,,,,,,,,,,,,,,,,,,,1,,,,,,,,,,,,,,,,,,,,,,,,,,,,,,,,,,,,,,,,,,,,,,62,151825,19,Female,1,2024/02/16_08:14:44,SD,None,
,,,,,,practice,0,19,3,788,1,C,0,right,2.4180871970020235,1,0,,,,,,,,,,,,,,,,,,,,,1,,,,,,,,,,,,,,,,,,,,,,,,,,,,,,,,,,,,,,,,,,,,,,62,151825,19,Female,1,2024/02/16_08:14:44,SD,None,
,,,,,,practice,0,19,3,788,2,F,0,right,1.3010686869965866,1,0,,,,,,,,,,,,,,,,,,,,,1,,,,,,,,,,,,,,,,,,,,,,,,,,,,,,,,,,,,,,,,,,,,,,62,151825,19,Female,1,2024/02/16_08:14:44,SD,None,
,,,,,,practice,0,19,3,788,3,Q,0,right,1.4292726389976451,1,0,,,,,,,,,,,,,,,,,,,,,1,,,,,,,,,,,,,,,,,,,,,,,,,,,,,,,,,,,,,,,,,,,,,,62,151825,19,Female,1,2024/02/16_08:14:44,SD,None,
,,,,,,practice,0,19,3,788,4,C,1,left,0.9557250530051533,1,0,,,,,,,,,,,,,,,,,,,,,1,,,,,,,,,,,,,,,,,,,,,,,,,,,,,,,,,,,,,,,,,,,,,,62,151825,19,Female,1,2024/02/16_08:14:44,SD,None,
,,,,,,practice,0,19,3,788,5,Q,0,right,2.070470028993441,1,0,,,,,,,,,,,,,,,,,,,,,1,,,,,,,,,,,,,,,,,,,,,,,,,,,,,,,,,,,,,,,,,,,,,,62,151825,19,Female,1,2024/02/16_08:14:44,SD,None,
,,,,,,practice,0,19,3,788,6,J,0,right,0.7111947369994596,1,0,,,,,,,,,,,,,,,,,,,,,1,,,,,,,,,,,,,,,,,,,,,,,,,,,,,,,,,,,,,,,,,,,,,,62,151825,19,Female,1,2024/02/16_08:14:44,SD,None,
,,,,,,practice,0,19,3,788,7,X,0,right,0.6261876500066137,1,0,,,,,,,,,,,,,,,,,,,,,1,,,,,,,,,,,,,,,,,,,,,,,,,,,,,,,,,,,,,,,,,,,,,,62,151825,19,Female,1,2024/02/16_08:14:44,SD,None,
,,,,,,practice,0,19,3,788,8,Q,1,left,0.7128216709970729,1,0,,,,,,,,,,,,,,,,,,,,,1,,,,,,,,,,,,,,,,,,,,,,,,,,,,,,,,,,,,,,,,,,,,,,62,151825,19,Female,1,2024/02/16_08:14:44,SD,None,
,,,,,,practice,0,19,3,788,9,J,1,right,0.5489154310052982,0,0,,,,,,,,,,,,,,,,,,,,,1,,,,,,,,,,,,,,,,,,,,,,,,,,,,,,,,,,,,,,,,,,,,,,62,151825,19,Female,1,2024/02/16_08:14:44,SD,None,
,,,,,,practice,0,19,3,788,10,N,0,right,1.429443999993964,1,0,,,,,,,,,,,,,,,,,,,,,1,,,,,,,,,,,,,,,,,,,,,,,,,,,,,,,,,,,,,,,,,,,,,,62,151825,19,Female,1,2024/02/16_08:14:44,SD,None,
,,,,,,practice,0,19,3,788,11,S,0,right,0.932705116996658,1,0,,,,,,,,,,,,,,,,,,,,,1,,,,,,,,,,,,,,,,,,,,,,,,,,,,,,,,,,,,,,,,,,,,,,62,151825,19,Female,1,2024/02/16_08:14:44,SD,None,
,,,,,,practice,0,19,3,788,12,J,1,left,0.6597136259952094,1,0,,,,,,,,,,,,,,,,,,,,,1,,,,,,,,,,,,,,,,,,,,,,,,,,,,,,,,,,,,,,,,,,,,,,62,151825,19,Female,1,2024/02/16_08:14:44,SD,None,
,,,,,,practice,0,19,3,788,13,S,0,right,0.9663956739968853,1,0,,,,,,,,,,,,,,,,,,,,,1,,,,,,,,,,,,,,,,,,,,,,,,,,,,,,,,,,,,,,,,,,,,,,62,151825,19,Female,1,2024/02/16_08:14:44,SD,None,
,,,,,,practice,0,19,3,788,,,,,,,,0.9375,0.75,0.0,1.0,0.0,1.0,1.1355385777681546,3,0,0,0,0,9,12,4,9,0,,,,1,,,,,,,,,,,,,,,,,,,,,,,,,,,,,,,,,,,,,,,,,,,,,,62,151825,19,Female,1,2024/02/16_08:14:44,SD,None,
1,./instructions/inst_prac_3_next/Slide49.png,right,1.1252701109915506,921.191971806009,922.3172419170005,,,,,,,,,,,,,,,,,,,,,,,,,,,,,,,,,1,,,,,,,,,,,,,,,,,,,,,,,,,,,,,,,,,,,,,,,,,,,,,,62,151825,19,Female,1,2024/02/16_08:14:44,SD,None,
,,,,,,practice,0,1,3,2583,1,J,0,right,4.531005286000436,1,0,,,,,,,,,,,,,,,,,,,,,1,,,,,,,,,,,,,,,,,,,,,,,,,,,,,,,,,,,,,,,,,,,,,,62,151825,19,Female,1,2024/02/16_08:14:44,SD,None,
,,,,,,practice,0,1,3,2583,2,V,0,right,1.1195367009931942,1,0,,,,,,,,,,,,,,,,,,,,,1,,,,,,,,,,,,,,,,,,,,,,,,,,,,,,,,,,,,,,,,,,,,,,62,151825,19,Female,1,2024/02/16_08:14:44,SD,None,
,,,,,,practice,0,1,3,2583,3,F,0,right,0.5681578039948363,1,0,,,,,,,,,,,,,,,,,,,,,1,,,,,,,,,,,,,,,,,,,,,,,,,,,,,,,,,,,,,,,,,,,,,,62,151825,19,Female,1,2024/02/16_08:14:44,SD,None,
,,,,,,practice,0,1,3,2583,4,J,1,left,1.4769947479944676,1,0,,,,,,,,,,,,,,,,,,,,,1,,,,,,,,,,,,,,,,,,,,,,,,,,,,,,,,,,,,,,,,,,,,,,62,151825,19,Female,1,2024/02/16_08:14:44,SD,None,
,,,,,,practice,0,1,3,2583,5,F,0,right,0.7641794689989183,1,0,,,,,,,,,,,,,,,,,,,,,1,,,,,,,,,,,,,,,,,,,,,,,,,,,,,,,,,,,,,,,,,,,,,,62,151825,19,Female,1,2024/02/16_08:14:44,SD,None,
,,,,,,practice,0,1,3,2583,6,F,1,left,2.3228640540037304,1,0,,,,,,,,,,,,,,,,,,,,,1,,,,,,,,,,,,,,,,,,,,,,,,,,,,,,,,,,,,,,,,,,,,,,62,151825,19,Female,1,2024/02/16_08:14:44,SD,None,
,,,,,,practice,0,1,3,2583,,,,,,,,1.0,1.0,0.0,1.0,0.0,1.0,1.7971230103309306,2,0,0,0,0,4,6,2,4,0,,,,1,,,,,,,,,,,,,,,,,,,,,,,,,,,,,,,,,,,,,,,,,,,,,,62,151825,19,Female,1,2024/02/16_08:14:44,SD,None,
,,,,,,practice,0,11,3,2583,1,X,0,right,1.5119429229962407,1,0,,,,,,,,,,,,,,,,,,,,,1,,,,,,,,,,,,,,,,,,,,,,,,,,,,,,,,,,,,,,,,,,,,,,62,151825,19,Female,1,2024/02/16_08:14:44,SD,None,
,,,,,,practice,0,11,3,2583,2,J,0,right,0.4606297129939776,1,0,,,,,,,,,,,,,,,,,,,,,1,,,,,,,,,,,,,,,,,,,,,,,,,,,,,,,,,,,,,,,,,,,,,,62,151825,19,Female,1,2024/02/16_08:14:44,SD,None,
,,,,,,practice,0,11,3,2583,3,F,0,right,1.4844632919994183,1,0,,,,,,,,,,,,,,,,,,,,,1,,,,,,,,,,,,,,,,,,,,,,,,,,,,,,,,,,,,,,,,,,,,,,62,151825,19,Female,1,2024/02/16_08:14:44,SD,None,
,,,,,,practice,0,11,3,2583,4,X,1,right,1.064001938997535,0,0,,,,,,,,,,,,,,,,,,,,,1,,,,,,,,,,,,,,,,,,,,,,,,,,,,,,,,,,,,,,,,,,,,,,62,151825,19,Female,1,2024/02/16_08:14:44,SD,None,
,,,,,,practice,0,11,3,2583,5,J,1,left,0.9689022089878563,1,0,,,,,,,,,,,,,,,,,,,,,1,,,,,,,,,,,,,,,,,,,,,,,,,,,,,,,,,,,,,,,,,,,,,,62,151825,19,Female,1,2024/02/16_08:14:44,SD,None,
,,,,,,practice,0,11,3,2583,6,Q,0,right,0.9108274819882354,1,0,,,,,,,,,,,,,,,,,,,,,1,,,,,,,,,,,,,,,,,,,,,,,,,,,,,,,,,,,,,,,,,,,,,,62,151825,19,Female,1,2024/02/16_08:14:44,SD,None,
,,,,,,practice,0,11,3,2583,,,,,,,,0.875,0.5,0.0,1.0,0.0,1.0,1.0667945929938771,1,0,0,0,0,4,5,2,4,0,,,,1,,,,,,,,,,,,,,,,,,,,,,,,,,,,,,,,,,,,,,,,,,,,,,62,151825,19,Female,1,2024/02/16_08:14:44,SD,None,
1,./instructions/inst_prac_main/Slide51.png,right,1.2181995319988346,949.882993599007,951.1011931310059,,,,,,,,,,,,,,,,,,,,,,,,,,,,,,,,,1,,,,,,,,,,,,,,,,,,,,,,,,,,,,,,,,,,,,,,,,,,,,,,62,151825,19,Female,1,2024/02/16_08:14:44,SD,None,
2,./instructions/inst_prac_main/Slide52.png,right,14.94236826999986,951.1348057499999,966.0771740199998,,,,,,,,,,,,,,,,,,,,,,,,,,,,,,,,,1,,,,,,,,,,,,,,,,,,,,,,,,,,,,,,,,,,,,,,,,,,,,,,62,151825,19,Female,1,2024/02/16_08:14:44,SD,None,
3,./instructions/inst_prac_main/Slide53.png,right,7.8381064980058,966.1109754159988,973.9490819140046,,,,,,,,,,,,,,,,,,,,,,,,,,,,,,,,,1,,,,,,,,,,,,,,,,,,,,,,,,,,,,,,,,,,,,,,,,,,,,,,62,151825,19,Female,1,2024/02/16_08:14:44,SD,None,
4,./instructions/inst_prac_main/Slide54.png,right,6.334468781002215,973.9829631260072,980.3174319070094,,,,,,,,,,,,,,,,,,,,,,,,,,,,,,,,,1,,,,,,,,,,,,,,,,,,,,,,,,,,,,,,,,,,,,,,,,,,,,,,62,151825,19,Female,1,2024/02/16_08:14:44,SD,None,
,,,,,,practice_main,0,1,1,2583,1,C,0,left,1.1990614189999178,0,0,,,,,,,,,,,,,,,,,,,,,1,,,,,,,,,,,,,,,,,,,,,,,,,,,,,,,,,,,,,,,,,,,,,,62,151825,19,Female,1,2024/02/16_08:14:44,SD,None,
,,,,,,practice_main,0,1,1,2583,2,C,1,left,0.781014881998999,1,0,,,,,,,,,,,,,,,,,,,,,1,,,,,,,,,,,,,,,,,,,,,,,,,,,,,,,,,,,,,,,,,,,,,,62,151825,19,Female,1,2024/02/16_08:14:44,SD,None,
,,,,,,practice_main,0,1,1,2583,3,F,0,left,1.2326758340059314,0,0,,,,,,,,,,,,,,,,,,,,,1,,,,,,,,,,,,,,,,,,,,,,,,,,,,,,,,,,,,,,,,,,,,,,62,151825,19,Female,1,2024/02/16_08:14:44,SD,None,
,,,,,,practice_main,0,1,1,2583,4,C,0,left,1.3752514600055292,0,0,,,,,,,,,,,,,,,,,,,,,1,,,,,,,,,,,,,,,,,,,,,,,,,,,,,,,,,,,,,,,,,,,,,,62,151825,19,Female,1,2024/02/16_08:14:44,SD,None,
,,,,,,practice_main,0,1,1,2583,5,S,0,right,0.9239650600065943,1,0,,,,,,,,,,,,,,,,,,,,,1,,,,,,,,,,,,,,,,,,,,,,,,,,,,,,,,,,,,,,,,,,,,,,62,151825,19,Female,1,2024/02/16_08:14:44,SD,None,
,,,,,,practice_main,0,1,1,2583,6,S,1,left,0.8490226089925272,1,0,,,,,,,,,,,,,,,,,,,,,1,,,,,,,,,,,,,,,,,,,,,,,,,,,,,,,,,,,,,,,,,,,,,,62,151825,19,Female,1,2024/02/16_08:14:44,SD,None,
,,,,,,practice_main,0,1,1,2583,,,,,,,,0.8125,1.0,0.75,0.25,0.0,0.25,1.0601652106682498,2,3,0,0,0,1,3,2,4,0,,,,1,,,,,,,,,,,,,,,,,,,,,,,,,,,,,,,,,,,,,,,,,,,,,,62,151825,19,Female,1,2024/02/16_08:14:44,SD,None,
,,,,,240216_130101,PRACTICE,0,1,1,2583,,,,,,,,,,,,,,,,,,,,,,,,,,,,1,13,2,1,cue2.png,easy,B,50,0.3842952450067969,0,991.5075662620075,991.9080629220116,,,,,,,,,,,,,,,,,,,,,,,,,,,,,,,,,,,62,151825,19,Female,1,2024/02/16_08:14:44,SD,None,
,,,,,,practice_main,0,2,3,2583,1,S,0,left,0.981225823998102,0,0,,,,,,,,,,,,,,,,,,,,,1,,,,,,,,,,,,,,,,,,,,,,,,,,,,,,,,,,,,,,,,,,,,,,62,151825,19,Female,1,2024/02/16_08:14:44,SD,None,
,,,,,,practice_main,0,2,3,2583,2,Q,0,right,1.8259283070074162,1,0,,,,,,,,,,,,,,,,,,,,,1,,,,,,,,,,,,,,,,,,,,,,,,,,,,,,,,,,,,,,,,,,,,,,62,151825,19,Female,1,2024/02/16_08:14:44,SD,None,
,,,,,,practice_main,0,2,3,2583,3,C,0,right,1.2423326650023228,1,0,,,,,,,,,,,,,,,,,,,,,1,,,,,,,,,,,,,,,,,,,,,,,,,,,,,,,,,,,,,,,,,,,,,,62,151825,19,Female,1,2024/02/16_08:14:44,SD,None,
,,,,,,practice_main,0,2,3,2583,4,S,1,right,0.8409654510032851,0,0,,,,,,,,,,,,,,,,,,,,,1,,,,,,,,,,,,,,,,,,,,,,,,,,,,,,,,,,,,,,,,,,,,,,62,151825,19,Female,1,2024/02/16_08:14:44,SD,None,
,,,,,,practice_main,0,2,3,2583,5,Q,1,left,0.7137209850043291,1,0,,,,,,,,,,,,,,,,,,,,,1,,,,,,,,,,,,,,,,,,,,,,,,,,,,,,,,,,,,,,,,,,,,,,62,151825,19,Female,1,2024/02/16_08:14:44,SD,None,
,,,,,,practice_main,0,2,3,2583,6,X,0,right,0.6993332620040746,1,0,,,,,,,,,,,,,,,,,,,,,1,,,,,,,,,,,,,,,,,,,,,,,,,,,,,,,,,,,,,,,,,,,,,,62,151825,19,Female,1,2024/02/16_08:14:44,SD,None,
,,,,,,practice_main,0,2,3,2583,,,,,,,,0.6875,0.5,0.25,0.75,0.0,0.75,1.0505844156699216,1,1,0,0,0,3,4,2,4,0,,,,1,,,,,,,,,,,,,,,,,,,,,,,,,,,,,,,,,,,,,,,,,,,,,,62,151825,19,Female,1,2024/02/16_08:14:44,SD,None,
,,,,,240216_130122,PRACTICE,0,2,3,2583,,,,,,,,,,,,,,,,,,,,,,,,,,,,1,35,3,2,cue1.png,hard,B,51,2.6655232829944,0,1010.5786525900039,1013.273000369998,,,,,,,,,,,,,,,,,,,,,,,,,,,,,,,,,,,62,151825,19,Female,1,2024/02/16_08:14:44,SD,None,
,,,,,,practice_main,0,3,1,2583,1,Q,0,right,1.4220965629938291,1,0,,,,,,,,,,,,,,,,,,,,,1,,,,,,,,,,,,,,,,,,,,,,,,,,,,,,,,,,,,,,,,,,,,,,62,151825,19,Female,1,2024/02/16_08:14:44,SD,None,
,,,,,,practice_main,0,3,1,2583,2,F,0,right,0.6806365190132055,1,0,,,,,,,,,,,,,,,,,,,,,1,,,,,,,,,,,,,,,,,,,,,,,,,,,,,,,,,,,,,,,,,,,,,,62,151825,19,Female,1,2024/02/16_08:14:44,SD,None,
,,,,,,practice_main,0,3,1,2583,3,F,1,left,0.5490000149875414,1,0,,,,,,,,,,,,,,,,,,,,,1,,,,,,,,,,,,,,,,,,,,,,,,,,,,,,,,,,,,,,,,,,,,,,62,151825,19,Female,1,2024/02/16_08:14:44,SD,None,
,,,,,,practice_main,0,3,1,2583,4,S,0,right,0.5813714109972352,1,0,,,,,,,,,,,,,,,,,,,,,1,,,,,,,,,,,,,,,,,,,,,,,,,,,,,,,,,,,,,,,,,,,,,,62,151825,19,Female,1,2024/02/16_08:14:44,SD,None,
,,,,,,practice_main,0,3,1,2583,5,S,1,left,0.5126538569893455,1,0,,,,,,,,,,,,,,,,,,,,,1,,,,,,,,,,,,,,,,,,,,,,,,,,,,,,,,,,,,,,,,,,,,,,62,151825,19,Female,1,2024/02/16_08:14:44,SD,None,
,,,,,,practice_main,0,3,1,2583,6,J,0,right,0.49920349499734584,1,0,,,,,,,,,,,,,,,,,,,,,1,,,,,,,,,,,,,,,,,,,,,,,,,,,,,,,,,,,,,,,,,,,,,,62,151825,19,Female,1,2024/02/16_08:14:44,SD,None,
,,,,,,practice_main,0,3,1,2583,,,,,,,,1.0,1.0,0.0,1.0,0.0,1.0,0.7074936433297504,2,0,0,0,0,4,6,2,4,0,,,,1,,,,,,,,,,,,,,,,,,,,,,,,,,,,,,,,,,,,,,,,,,,,,,62,151825,19,Female,1,2024/02/16_08:14:44,SD,None,
,,,,,240216_130140,PRACTICE,0,3,1,2583,,,,,,,,,,,,,,,,,,,,,,,,,,,,1,48,4,3,cue2.png,easy,B,49,1.1737802449933952,0,1031.8538695550087,1033.0446829830034,,,,,,,,,,,,,,,,,,,,,,,,,,,,,,,,,,,62,151825,19,Female,1,2024/02/16_08:14:44,SD,None,
-1,./instructions/inst_prac_end/Slide56.png,left,34.893672531994525,1048.095654734003,1082.9893272659974,,,,,,,,,,,,,,,,,,,,,,,,,,,,,,,,,1,,,,,,,,,,,,,,,,,,,,,,,,,,,,,,,,,,,,,,,,,,,,,,62,151825,19,Female,1,2024/02/16_08:14:44,SD,None,
1,./instructions/inst_test/Slide57.png,right,0.28749099899141584,1083.0216422720114,1083.3091332710028,,,,,,,,,,,,,,,,,,,,,,,,,,,,,,,,,1,,,,,,,,,,,,,,,,,,,,,,,,,,,,,,,,,,,,,,,,,,,,,,62,151825,19,Female,1,2024/02/16_08:14:44,SD,None,
,,,,,,test,1,1,1,2583,1,C,0,right,1.3042102829931537,1,0,,,,,,,,,,,,,,,,,,,,,1,,,,,,,,,,,,,,,,,,,,,,,,,,,,,,,,,,,,,,,,,,,,,,62,151825,19,Female,1,2024/02/16_08:14:44,SD,None,
,,,,,,test,1,1,1,2583,2,S,0,right,0.9646423810045235,1,0,,,,,,,,,,,,,,,,,,,,,1,,,,,,,,,,,,,,,,,,,,,,,,,,,,,,,,,,,,,,,,,,,,,,62,151825,19,Female,1,2024/02/16_08:14:44,SD,None,
,,,,,,test,1,1,1,2583,3,F,0,right,0.6243868630117504,1,0,,,,,,,,,,,,,,,,,,,,,1,,,,,,,,,,,,,,,,,,,,,,,,,,,,,,,,,,,,,,,,,,,,,,62,151825,19,Female,1,2024/02/16_08:14:44,SD,None,
,,,,,,test,1,1,1,2583,4,F,1,left,0.34191467899654526,1,0,,,,,,,,,,,,,,,,,,,,,1,,,,,,,,,,,,,,,,,,,,,,,,,,,,,,,,,,,,,,,,,,,,,,62,151825,19,Female,1,2024/02/16_08:14:44,SD,None,
,,,,,,test,1,1,1,2583,5,Q,0,right,0.6129616910038749,1,0,,,,,,,,,,,,,,,,,,,,,1,,,,,,,,,,,,,,,,,,,,,,,,,,,,,,,,,,,,,,,,,,,,,,62,151825,19,Female,1,2024/02/16_08:14:44,SD,None,
,,,,,,test,1,1,1,2583,6,Q,1,left,0.6422029970126459,1,0,,,,,,,,,,,,,,,,,,,,,1,,,,,,,,,,,,,,,,,,,,,,,,,,,,,,,,,,,,,,,,,,,,,,62,151825,19,Female,1,2024/02/16_08:14:44,SD,None,
,,,,,,Test,1,1,1,2583,,,,,,,,1.0,1.0,0.0,1.0,0.0,1.0,0.7483864823370823,2,0,0,0,0,4,6,2,4,0,,,,1,,,,,,,,,,,,,,,,,,,,,,,,,,,,,,,,,,,,,,,,,,,,,,62,151825,19,Female,1,2024/02/16_08:14:44,SD,None,
,,,,,240216_130236,TEST,1,1,1,2583,,,,,,,,,,,,,,,,,,,,,,,,,,,,1,1,1,1,cue2.png,easy,B,50,1.1097056760045234,0,1088.3625342800078,1089.4864641800086,,,,,,,,,,,,,,,,,,,,,,,,,,,,,,,,,,,62,151825,19,Female,1,2024/02/16_08:14:44,SD,None,
,,,,,,test,1,2,3,2583,1,C,0,right,3.7288863509893417,1,0,,,,,,,,,,,,,,,,,,,,,1,,,,,,,,,,,,,,,,,,,,,,,,,,,,,,,,,,,,,,,,,,,,,,62,151825,19,Female,1,2024/02/16_08:14:44,SD,None,
,,,,,,test,1,2,3,2583,2,S,0,right,0.8525111449998803,1,0,,,,,,,,,,,,,,,,,,,,,1,,,,,,,,,,,,,,,,,,,,,,,,,,,,,,,,,,,,,,,,,,,,,,62,151825,19,Female,1,2024/02/16_08:14:44,SD,None,
,,,,,,test,1,2,3,2583,3,V,0,right,0.7344706329895416,1,0,,,,,,,,,,,,,,,,,,,,,1,,,,,,,,,,,,,,,,,,,,,,,,,,,,,,,,,,,,,,,,,,,,,,62,151825,19,Female,1,2024/02/16_08:14:44,SD,None,
,,,,,,test,1,2,3,2583,4,C,1,right,1.4262463030026993,0,0,,,,,,,,,,,,,,,,,,,,,1,,,,,,,,,,,,,,,,,,,,,,,,,,,,,,,,,,,,,,,,,,,,,,62,151825,19,Female,1,2024/02/16_08:14:44,SD,None,
,,,,,,test,1,2,3,2583,5,S,1,left,0.418499614999746,1,0,,,,,,,,,,,,,,,,,,,,,1,,,,,,,,,,,,,,,,,,,,,,,,,,,,,,,,,,,,,,,,,,,,,,62,151825,19,Female,1,2024/02/16_08:14:44,SD,None,
,,,,,,test,1,2,3,2583,6,X,0,right,0.7160424729954684,1,0,,,,,,,,,,,,,,,,,,,,,1,,,,,,,,,,,,,,,,,,,,,,,,,,,,,,,,,,,,,,,,,,,,,,62,151825,19,Female,1,2024/02/16_08:14:44,SD,None,
,,,,,,Test,1,2,3,2583,,,,,,,,0.875,0.5,0.0,1.0,0.0,1.0,1.3127760866627796,1,0,0,0,0,4,5,2,4,0,,,,1,,,,,,,,,,,,,,,,,,,,,,,,,,,,,,,,,,,,,,,,,,,,,,62,151825,19,Female,1,2024/02/16_08:14:44,SD,None,
,,,,,240216_130258,TEST,1,2,3,2583,,,,,,,,,,,,,,,,,,,,,,,,,,,,1,2,2,2,cue1.png,hard,B,49,1.188224600002286,0,1106.2745539250027,1107.4798600970098,,,,,,,,,,,,,,,,,,,,,,,,,,,,,,,,,,,62,151825,19,Female,1,2024/02/16_08:14:44,SD,None,
,,,,,,test,1,3,3,2583,1,F,0,left,1.4000420910015237,0,0,,,,,,,,,,,,,,,,,,,,,1,,,,,,,,,,,,,,,,,,,,,,,,,,,,,,,,,,,,,,,,,,,,,,62,151825,19,Female,1,2024/02/16_08:14:44,SD,None,
,,,,,,test,1,3,3,2583,2,F,0,right,0.6429651049984386,1,0,,,,,,,,,,,,,,,,,,,,,1,,,,,,,,,,,,,,,,,,,,,,,,,,,,,,,,,,,,,,,,,,,,,,62,151825,19,Female,1,2024/02/16_08:14:44,SD,None,
,,,,,,test,1,3,3,2583,3,X,0,right,0.4211410019925097,1,0,,,,,,,,,,,,,,,,,,,,,1,,,,,,,,,,,,,,,,,,,,,,,,,,,,,,,,,,,,,,,,,,,,,,62,151825,19,Female,1,2024/02/16_08:14:44,SD,None,
,,,,,,test,1,3,3,2583,4,F,1,right,1.159556088008685,0,0,,,,,,,,,,,,,,,,,,,,,1,,,,,,,,,,,,,,,,,,,,,,,,,,,,,,,,,,,,,,,,,,,,,,62,151825,19,Female,1,2024/02/16_08:14:44,SD,None,
,,,,,,test,1,3,3,2583,5,S,0,left,0.523107702989364,0,0,,,,,,,,,,,,,,,,,,,,,1,,,,,,,,,,,,,,,,,,,,,,,,,,,,,,,,,,,,,,,,,,,,,,62,151825,19,Female,1,2024/02/16_08:14:44,SD,None,
,,,,,,test,1,3,3,2583,6,X,1,right,0.862059908991796,0,0,,,,,,,,,,,,,,,,,,,,,1,,,,,,,,,,,,,,,,,,,,,,,,,,,,,,,,,,,,,,,,,,,,,,62,151825,19,Female,1,2024/02/16_08:14:44,SD,None,
,,,,,,Test,1,3,3,2583,,,,,,,,0.125,0.0,0.5,0.5,0.0,0.5,0.8348119829970528,0,2,0,0,0,2,2,2,4,0,,,,1,,,,,,,,,,,,,,,,,,,,,,,,,,,,,,,,,,,,,,,,,,,,,,62,151825,19,Female,1,2024/02/16_08:14:44,SD,None,
,,,,,240216_130317,TEST,1,3,3,2583,,,,,,,,,,,,,,,,,,,,,,,,,,,,1,3,3,3,cue1.png,hard,B,50,2.2144367820001207,0,1127.6396117490076,1129.8655186670076,,,,,,,,,,,,,,,,,,,,,,,,,,,,,,,,,,,62,151825,19,Female,1,2024/02/16_08:14:44,SD,None,
,,,,,,test,1,4,3,2583,1,N,0,right,1.2752649549947819,1,0,,,,,,,,,,,,,,,,,,,,,1,,,,,,,,,,,,,,,,,,,,,,,,,,,,,,,,,,,,,,,,,,,,,,62,151825,19,Female,1,2024/02/16_08:14:44,SD,None,
,,,,,,test,1,4,3,2583,2,F,0,right,0.6309138259966858,1,0,,,,,,,,,,,,,,,,,,,,,1,,,,,,,,,,,,,,,,,,,,,,,,,,,,,,,,,,,,,,,,,,,,,,62,151825,19,Female,1,2024/02/16_08:14:44,SD,None,
,,,,,,test,1,4,3,2583,3,S,0,right,0.41952779999701306,1,0,,,,,,,,,,,,,,,,,,,,,1,,,,,,,,,,,,,,,,,,,,,,,,,,,,,,,,,,,,,,,,,,,,,,62,151825,19,Female,1,2024/02/16_08:14:44,SD,None,
,,,,,,test,1,4,3,2583,4,N,1,left,0.35206566599663347,1,0,,,,,,,,,,,,,,,,,,,,,1,,,,,,,,,,,,,,,,,,,,,,,,,,,,,,,,,,,,,,,,,,,,,,62,151825,19,Female,1,2024/02/16_08:14:44,SD,None,
,,,,,,test,1,4,3,2583,5,F,1,right,0.4012147780013038,0,0,,,,,,,,,,,,,,,,,,,,,1,,,,,,,,,,,,,,,,,,,,,,,,,,,,,,,,,,,,,,,,,,,,,,62,151825,19,Female,1,2024/02/16_08:14:44,SD,None,
,,,,,,test,1,4,3,2583,6,F,0,right,0.8156678130035289,1,0,,,,,,,,,,,,,,,,,,,,,1,,,,,,,,,,,,,,,,,,,,,,,,,,,,,,,,,,,,,,,,,,,,,,62,151825,19,Female,1,2024/02/16_08:14:44,SD,None,
,,,,,,Test,1,4,3,2583,,,,,,,,0.875,0.5,0.0,1.0,0.0,1.0,0.6491091396649912,1,0,0,0,0,4,5,2,4,0,,,,1,,,,,,,,,,,,,,,,,,,,,,,,,,,,,,,,,,,,,,,,,,,,,,62,151825,19,Female,1,2024/02/16_08:14:44,SD,None,
,,,,,240216_130334,TEST,1,4,3,2583,,,,,,,,,,,,,,,,,,,,,,,,,,,,1,4,4,4,cue1.png,hard,B,50,0.7562600810051663,0,1147.1439977249975,1147.9285910239996,,,,,,,,,,,,,,,,,,,,,,,,,,,,,,,,,,,62,151825,19,Female,1,2024/02/16_08:14:44,SD,None,
,,,,,,test,1,5,1,2583,1,V,0,right,1.1345792960055405,1,0,,,,,,,,,,,,,,,,,,,,,1,,,,,,,,,,,,,,,,,,,,,,,,,,,,,,,,,,,,,,,,,,,,,,62,151825,19,Female,1,2024/02/16_08:14:44,SD,None,
,,,,,,test,1,5,1,2583,2,F,0,right,0.5584648090007249,1,0,,,,,,,,,,,,,,,,,,,,,1,,,,,,,,,,,,,,,,,,,,,,,,,,,,,,,,,,,,,,,,,,,,,,62,151825,19,Female,1,2024/02/16_08:14:44,SD,None,
,,,,,,test,1,5,1,2583,3,F,1,left,0.3990069499996025,1,0,,,,,,,,,,,,,,,,,,,,,1,,,,,,,,,,,,,,,,,,,,,,,,,,,,,,,,,,,,,,,,,,,,,,62,151825,19,Female,1,2024/02/16_08:14:44,SD,None,
,,,,,,test,1,5,1,2583,4,Q,0,right,0.5930876829952467,1,0,,,,,,,,,,,,,,,,,,,,,1,,,,,,,,,,,,,,,,,,,,,,,,,,,,,,,,,,,,,,,,,,,,,,62,151825,19,Female,1,2024/02/16_08:14:44,SD,None,
,,,,,,test,1,5,1,2583,5,Q,1,right,0.39179010900261346,0,0,,,,,,,,,,,,,,,,,,,,,1,,,,,,,,,,,,,,,,,,,,,,,,,,,,,,,,,,,,,,,,,,,,,,62,151825,19,Female,1,2024/02/16_08:14:44,SD,None,
,,,,,,test,1,5,1,2583,6,N,0,left,0.8431197309982963,0,0,,,,,,,,,,,,,,,,,,,,,1,,,,,,,,,,,,,,,,,,,,,,,,,,,,,,,,,,,,,,,,,,,,,,62,151825,19,Female,1,2024/02/16_08:14:44,SD,None,
,,,,,,Test,1,5,1,2583,,,,,,,,0.6875,0.5,0.25,0.75,0.0,0.75,0.653341429667004,1,1,0,0,0,3,4,2,4,0,,,,1,,,,,,,,,,,,,,,,,,,,,,,,,,,,,,,,,,,,,,,,,,,,,,62,151825,19,Female,1,2024/02/16_08:14:44,SD,None,
