Instruction,Stimulus,Key,RT,START,END,Phase,Block,TrialN,NbackLevel,ISI,LetterN,Letter,Letter_isSame,Letter_Resp,Letter_RT,Letter_Accuracy,Letter_Timeout,Trial_A_measure,Trial_HR,Trial_FAR,Trial_CDR,Trial_MSR,Trial_ACC,Trial_RT,Trial_HitsCount,Trial_FAsCount,Trial_SameNoRespCount,Trial_DiffNoRespCount,Trial_NoRespCount,Trial_CDsCount,Trial_CorrectRespCount,Trial_SameLetterCount,Trial_DiffLetterCount,Trial_InvalidLetterCount,TrialCountCali,CaliEnd_A_measure,ISI_calibrated,Run,TrialIndex,TrialNumber_total,TrialNumber_valid,CueLearning,TrialDemandLearning,CueMapping,OnlineRating,OnlineRatingRT,OnlineRatingTimeOut,CueSTART,RatingSTART,OfflineRatingTimePoint,OfflineRatingQuesIndex,CueFigure,TrialDemand,OfflineRating,OfflineRatingRT,CueStart,OfflineRatingStart,PhaseType,CueLeft,CueDemandLeft,CueRight,CueDemandRight,Choice,ChoiceDemand,TaskDemand,ChoiceRT,ChoiceTimeOut,ChoiceSTART,CueCheck,CueDemandCheck,CorrectAnswer,Answer,AnswerDemand,AnswerRT,AnswerACC,AnswerTimeOut,CheckSTART,DemandRatingQuesIndex,QuesTLX,DemandLevel,DemandRating,DemandRatingRT,QuesStart,PID,SONA,Age,Gender,Run,TIME,EXPERIMENTER,frameRate,
-1,./instructions/inst_begin/Slide2.png,left,27.554151338000338,0.40271766399973785,27.956869002000076,,,,,,,,,,,,,,,,,,,,,,,,,,,,,,,,,1,,,,,,,,,,,,,,,,,,,,,,,,,,,,,,,,,,,,,,,,,,,,,,46,158845,19,Male,1,2024/02/12_08:52:12,YZ,60.020780514737325,
0,./instructions/inst_begin/Slide4.png,right,13.349069814999893,28.023493146999954,41.37256296199985,,,,,,,,,,,,,,,,,,,,,,,,,,,,,,,,,1,,,,,,,,,,,,,,,,,,,,,,,,,,,,,,,,,,,,,,,,,,,,,,46,158845,19,Male,1,2024/02/12_08:52:12,YZ,60.020780514737325,
1,./instructions/inst_begin/Slide2.png,right,3.356283084000097,41.40841860499995,44.76470168900005,,,,,,,,,,,,,,,,,,,,,,,,,,,,,,,,,1,,,,,,,,,,,,,,,,,,,,,,,,,,,,,,,,,,,,,,,,,,,,,,46,158845,19,Male,1,2024/02/12_08:52:12,YZ,60.020780514737325,
2,./instructions/inst_begin/Slide3.png,right,2.092766713000401,44.815926127999774,46.908692841000175,,,,,,,,,,,,,,,,,,,,,,,,,,,,,,,,,1,,,,,,,,,,,,,,,,,,,,,,,,,,,,,,,,,,,,,,,,,,,,,,46,158845,19,Male,1,2024/02/12_08:52:12,YZ,60.020780514737325,
3,./instructions/inst_begin/Slide4.png,right,2.8046266349997495,46.94402802400009,49.74865465899984,,,,,,,,,,,,,,,,,,,,,,,,,,,,,,,,,1,,,,,,,,,,,,,,,,,,,,,,,,,,,,,,,,,,,,,,,,,,,,,,46,158845,19,Male,1,2024/02/12_08:52:12,YZ,60.020780514737325,
1,./instructions/inst_prac_2/Slide6.png,right,14.405443871999978,49.82324926499996,64.22869313699994,,,,,,,,,,,,,,,,,,,,,,,,,,,,,,,,,1,,,,,,,,,,,,,,,,,,,,,,,,,,,,,,,,,,,,,,,,,,,,,,46,158845,19,Male,1,2024/02/12_08:52:12,YZ,60.020780514737325,
2,./instructions/inst_prac_2/Slide7.png,right,12.508406910999838,64.2722811220001,76.78068803299993,,,,,,,,,,,,,,,,,,,,,,,,,,,,,,,,,1,,,,,,,,,,,,,,,,,,,,,,,,,,,,,,,,,,,,,,,,,,,,,,46,158845,19,Male,1,2024/02/12_08:52:12,YZ,60.020780514737325,
3,./instructions/inst_prac_2/Slide8.png,right,9.611239074999958,76.81752400699997,86.42876308199993,,,,,,,,,,,,,,,,,,,,,,,,,,,,,,,,,1,,,,,,,,,,,,,,,,,,,,,,,,,,,,,,,,,,,,,,,,,,,,,,46,158845,19,Male,1,2024/02/12_08:52:12,YZ,60.020780514737325,
4,./instructions/inst_prac_2/Slide9.png,right,3.177664917000129,86.47495167499983,89.65261659199996,,,,,,,,,,,,,,,,,,,,,,,,,,,,,,,,,1,,,,,,,,,,,,,,,,,,,,,,,,,,,,,,,,,,,,,,,,,,,,,,46,158845,19,Male,1,2024/02/12_08:52:12,YZ,60.020780514737325,
5,./instructions/inst_prac_2/Slide10.png,right,2.496425274000103,89.69211971499999,92.18854498900009,,,,,,,,,,,,,,,,,,,,,,,,,,,,,,,,,1,,,,,,,,,,,,,,,,,,,,,,,,,,,,,,,,,,,,,,,,,,,,,,46,158845,19,Male,1,2024/02/12_08:52:12,YZ,60.020780514737325,
6,./instructions/inst_prac_2/Slide11.png,right,1.424070724000103,92.22050468599991,93.64457541000002,,,,,,,,,,,,,,,,,,,,,,,,,,,,,,,,,1,,,,,,,,,,,,,,,,,,,,,,,,,,,,,,,,,,,,,,,,,,,,,,46,158845,19,Male,1,2024/02/12_08:52:12,YZ,60.020780514737325,
7,./instructions/inst_prac_2/Slide12.png,right,0.8675395949999256,93.68084666000004,94.54838625499997,,,,,,,,,,,,,,,,,,,,,,,,,,,,,,,,,1,,,,,,,,,,,,,,,,,,,,,,,,,,,,,,,,,,,,,,,,,,,,,,46,158845,19,Male,1,2024/02/12_08:52:12,YZ,60.020780514737325,
8,./instructions/inst_prac_2/Slide13.png,right,1.0920700479996412,94.58463285100015,95.67670289899979,,,,,,,,,,,,,,,,,,,,,,,,,,,,,,,,,1,,,,,,,,,,,,,,,,,,,,,,,,,,,,,,,,,,,,,,,,,,,,,,46,158845,19,Male,1,2024/02/12_08:52:12,YZ,60.020780514737325,
9,./instructions/inst_prac_2/Slide14.png,right,0.9685496339998281,95.71601670200016,96.68456633599999,,,,,,,,,,,,,,,,,,,,,,,,,,,,,,,,,1,,,,,,,,,,,,,,,,,,,,,,,,,,,,,,,,,,,,,,,,,,,,,,46,158845,19,Male,1,2024/02/12_08:52:12,YZ,60.020780514737325,
10,./instructions/inst_prac_2/Slide15.png,right,1.9154842759999156,96.72121651899988,98.6367007949998,,,,,,,,,,,,,,,,,,,,,,,,,,,,,,,,,1,,,,,,,,,,,,,,,,,,,,,,,,,,,,,,,,,,,,,,,,,,,,,,46,158845,19,Male,1,2024/02/12_08:52:12,YZ,60.020780514737325,
,,,,,,practice,0,29,2,2583,1,F,0,right,4.0473301150000225,1,0,,,,,,,,,,,,,,,,,,,,,1,,,,,,,,,,,,,,,,,,,,,,,,,,,,,,,,,,,,,,,,,,,,,,46,158845,19,Male,1,2024/02/12_08:52:12,YZ,60.020780514737325,
,,,,,,practice,0,29,2,2583,2,J,0,right,1.3049571999999898,1,0,,,,,,,,,,,,,,,,,,,,,1,,,,,,,,,,,,,,,,,,,,,,,,,,,,,,,,,,,,,,,,,,,,,,46,158845,19,Male,1,2024/02/12_08:52:12,YZ,60.020780514737325,
,,,,,,practice,0,29,2,2583,3,N,0,right,1.1825456719998328,1,0,,,,,,,,,,,,,,,,,,,,,1,,,,,,,,,,,,,,,,,,,,,,,,,,,,,,,,,,,,,,,,,,,,,,46,158845,19,Male,1,2024/02/12_08:52:12,YZ,60.020780514737325,
,,,,,,practice,0,29,2,2583,4,J,1,left,0.9581858520000424,1,0,,,,,,,,,,,,,,,,,,,,,1,,,,,,,,,,,,,,,,,,,,,,,,,,,,,,,,,,,,,,,,,,,,,,46,158845,19,Male,1,2024/02/12_08:52:12,YZ,60.020780514737325,
,,,,,,practice,0,29,2,2583,5,F,0,right,2.250895001999652,1,0,,,,,,,,,,,,,,,,,,,,,1,,,,,,,,,,,,,,,,,,,,,,,,,,,,,,,,,,,,,,,,,,,,,,46,158845,19,Male,1,2024/02/12_08:52:12,YZ,60.020780514737325,
,,,,,,practice,0,29,2,2583,6,J,1,left,1.8772570599999199,1,0,,,,,,,,,,,,,,,,,,,,,1,,,,,,,,,,,,,,,,,,,,,,,,,,,,,,,,,,,,,,,,,,,,,,46,158845,19,Male,1,2024/02/12_08:52:12,YZ,60.020780514737325,
,,,,,,practice,0,29,2,2583,,,,,,,,1.0,1.0,0.0,1.0,0.0,1.0,1.9368618168332432,2,0,0,0,0,4,6,2,4,0,,,,1,,,,,,,,,,,,,,,,,,,,,,,,,,,,,,,,,,,,,,,,,,,,,,46,158845,19,Male,1,2024/02/12_08:52:12,YZ,60.020780514737325,
1,./instructions/inst_to_cali/Slide20.png,right,2.754117859999951,116.6984233610001,119.45254122100005,,,,,,,,,,,,,,,,,,,,,,,,,,,,,,,,,1,,,,,,,,,,,,,,,,,,,,,,,,,,,,,,,,,,,,,,,,,,,,,,46,158845,19,Male,1,2024/02/12_08:52:12,YZ,60.020780514737325,
1,./instructions/inst_cali/Slide22.png,right,3.376555910999741,119.50006660000008,122.87662251099982,,,,,,,,,,,,,,,,,,,,,,,,,,,,,,,,,1,,,,,,,,,,,,,,,,,,,,,,,,,,,,,,,,,,,,,,,,,,,,,,46,158845,19,Male,1,2024/02/12_08:52:12,YZ,60.020780514737325,
,,,,,,calibration,0,9,2,583,1,S,0,None,nan,0,1,,,,,,,,,,,,,,,,,,,,,1,,,,,,,,,,,,,,,,,,,,,,,,,,,,,,,,,,,,,,,,,,,,,,46,158845,19,Male,1,2024/02/12_08:52:12,YZ,60.020780514737325,
,,,,,,calibration,0,9,2,583,2,F,0,right,1.6488055410000015,1,0,,,,,,,,,,,,,,,,,,,,,1,,,,,,,,,,,,,,,,,,,,,,,,,,,,,,,,,,,,,,,,,,,,,,46,158845,19,Male,1,2024/02/12_08:52:12,YZ,60.020780514737325,
,,,,,,calibration,0,9,2,583,3,V,0,right,1.27723099800005,1,0,,,,,,,,,,,,,,,,,,,,,1,,,,,,,,,,,,,,,,,,,,,,,,,,,,,,,,,,,,,,,,,,,,,,46,158845,19,Male,1,2024/02/12_08:52:12,YZ,60.020780514737325,
,,,,,,calibration,0,9,2,583,4,X,0,right,1.1058855050000602,1,0,,,,,,,,,,,,,,,,,,,,,1,,,,,,,,,,,,,,,,,,,,,,,,,,,,,,,,,,,,,,,,,,,,,,46,158845,19,Male,1,2024/02/12_08:52:12,YZ,60.020780514737325,
,,,,,,calibration,0,9,2,583,5,N,0,right,1.2603004510001483,1,0,,,,,,,,,,,,,,,,,,,,,1,,,,,,,,,,,,,,,,,,,,,,,,,,,,,,,,,,,,,,,,,,,,,,46,158845,19,Male,1,2024/02/12_08:52:12,YZ,60.020780514737325,
,,,,,,calibration,0,9,2,583,6,J,0,left,0.7973446040000454,0,0,,,,,,,,,,,,,,,,,,,,,1,,,,,,,,,,,,,,,,,,,,,,,,,,,,,,,,,,,,,,,,,,,,,,46,158845,19,Male,1,2024/02/12_08:52:12,YZ,60.020780514737325,
,,,,,,calibration,0,9,2,583,7,F,0,right,1.3935651470001176,1,0,,,,,,,,,,,,,,,,,,,,,1,,,,,,,,,,,,,,,,,,,,,,,,,,,,,,,,,,,,,,,,,,,,,,46,158845,19,Male,1,2024/02/12_08:52:12,YZ,60.020780514737325,
,,,,,,calibration,0,9,2,583,8,N,0,right,1.5624416949999613,1,0,,,,,,,,,,,,,,,,,,,,,1,,,,,,,,,,,,,,,,,,,,,,,,,,,,,,,,,,,,,,,,,,,,,,46,158845,19,Male,1,2024/02/12_08:52:12,YZ,60.020780514737325,
,,,,,,calibration,0,9,2,583,9,S,0,right,1.0495293989997663,1,0,,,,,,,,,,,,,,,,,,,,,1,,,,,,,,,,,,,,,,,,,,,,,,,,,,,,,,,,,,,,,,,,,,,,46,158845,19,Male,1,2024/02/12_08:52:12,YZ,60.020780514737325,
,,,,,,calibration,0,9,2,583,10,J,0,right,0.8983527580003283,1,0,,,,,,,,,,,,,,,,,,,,,1,,,,,,,,,,,,,,,,,,,,,,,,,,,,,,,,,,,,,,,,,,,,,,46,158845,19,Male,1,2024/02/12_08:52:12,YZ,60.020780514737325,
,,,,,,calibration,0,9,2,583,11,S,1,left,0.6089551670002038,1,0,,,,,,,,,,,,,,,,,,,,,1,,,,,,,,,,,,,,,,,,,,,,,,,,,,,,,,,,,,,,,,,,,,,,46,158845,19,Male,1,2024/02/12_08:52:12,YZ,60.020780514737325,
,,,,,,calibration,0,9,2,583,12,J,1,left,nan,0,1,,,,,,,,,,,,,,,,,,,,,1,,,,,,,,,,,,,,,,,,,,,,,,,,,,,,,,,,,,,,,,,,,,,,46,158845,19,Male,1,2024/02/12_08:52:12,YZ,60.020780514737325,
,,,,,,calibration,0,9,2,583,13,V,0,left,0.9990515250001408,0,0,,,,,,,,,,,,,,,,,,,,,1,,,,,,,,,,,,,,,,,,,,,,,,,,,,,,,,,,,,,,,,,,,,,,46,158845,19,Male,1,2024/02/12_08:52:12,YZ,60.020780514737325,
,,,,,,calibration,0,9,2,583,14,J,1,left,nan,0,1,,,,,,,,,,,,,,,,,,,,,1,,,,,,,,,,,,,,,,,,,,,,,,,,,,,,,,,,,,,,,,,,,,,,46,158845,19,Male,1,2024/02/12_08:52:12,YZ,60.020780514737325,
,,,,,,calibration,0,9,2,583,15,V,1,right,0.0230865730000005,0,0,,,,,,,,,,,,,,,,,,,,,1,,,,,,,,,,,,,,,,,,,,,,,,,,,,,,,,,,,,,,,,,,,,,,46,158845,19,Male,1,2024/02/12_08:52:12,YZ,60.020780514737325,
,,,,,,calibration,0,9,2,583,,,,,,,,0.5852272727272727,0.25,0.18181818181818182,0.8,0.2,0.6181818181818182,1.0520457802500687,1,2,2,1,3,8,9,4,11,0,,,,1,,,,,,,,,,,,,,,,,,,,,,,,,,,,,,,,,,,,,,,,,,,,,,46,158845,19,Male,1,2024/02/12_08:52:12,YZ,60.020780514737325,
,,,,,,Calibration,0,,2,583,,,,,,,,,,,,,,,,,,,,,,,,,1,,,1,,,,,,,,,,,,,,,,,,,,,,,,,,,,,,,,,,,,,,,,,,,,,,46,158845,19,Male,1,2024/02/12_08:52:12,YZ,60.020780514737325,
,,,,,,calibration,0,16,2,679,1,X,0,None,nan,0,1,,,,,,,,,,,,,,,,,,,,,1,,,,,,,,,,,,,,,,,,,,,,,,,,,,,,,,,,,,,,,,,,,,,,46,158845,19,Male,1,2024/02/12_08:52:12,YZ,60.020780514737325,
,,,,,,calibration,0,16,2,679,2,N,0,right,0.0,1,0,,,,,,,,,,,,,,,,,,,,,1,,,,,,,,,,,,,,,,,,,,,,,,,,,,,,,,,,,,,,,,,,,,,,46,158845,19,Male,1,2024/02/12_08:52:12,YZ,60.020780514737325,
,,,,,,calibration,0,16,2,679,3,X,1,right,0.17047146899994914,0,0,,,,,,,,,,,,,,,,,,,,,1,,,,,,,,,,,,,,,,,,,,,,,,,,,,,,,,,,,,,,,,,,,,,,46,158845,19,Male,1,2024/02/12_08:52:12,YZ,60.020780514737325,
,,,,,,calibration,0,16,2,679,4,F,0,left,0.23651889700022366,0,0,,,,,,,,,,,,,,,,,,,,,1,,,,,,,,,,,,,,,,,,,,,,,,,,,,,,,,,,,,,,,,,,,,,,46,158845,19,Male,1,2024/02/12_08:52:12,YZ,60.020780514737325,
,,,,,,calibration,0,16,2,679,5,Q,0,right,0.0,1,0,,,,,,,,,,,,,,,,,,,,,1,,,,,,,,,,,,,,,,,,,,,,,,,,,,,,,,,,,,,,,,,,,,,,46,158845,19,Male,1,2024/02/12_08:52:12,YZ,60.020780514737325,
,,,,,,calibration,0,16,2,679,6,X,0,right,0.13590181000017765,1,0,,,,,,,,,,,,,,,,,,,,,1,,,,,,,,,,,,,,,,,,,,,,,,,,,,,,,,,,,,,,,,,,,,,,46,158845,19,Male,1,2024/02/12_08:52:12,YZ,60.020780514737325,
,,,,,,calibration,0,16,2,679,7,Q,1,right,0.2603211860000556,0,0,,,,,,,,,,,,,,,,,,,,,1,,,,,,,,,,,,,,,,,,,,,,,,,,,,,,,,,,,,,,,,,,,,,,46,158845,19,Male,1,2024/02/12_08:52:12,YZ,60.020780514737325,
,,,,,,calibration,0,16,2,679,8,J,0,right,0.03855794800028889,1,0,,,,,,,,,,,,,,,,,,,,,1,,,,,,,,,,,,,,,,,,,,,,,,,,,,,,,,,,,,,,,,,,,,,,46,158845,19,Male,1,2024/02/12_08:52:12,YZ,60.020780514737325,
,,,,,,calibration,0,16,2,679,9,V,0,right,0.006454085999848758,1,0,,,,,,,,,,,,,,,,,,,,,1,,,,,,,,,,,,,,,,,,,,,,,,,,,,,,,,,,,,,,,,,,,,,,46,158845,19,Male,1,2024/02/12_08:52:12,YZ,60.020780514737325,
,,,,,,calibration,0,16,2,679,10,N,0,right,0.0,1,0,,,,,,,,,,,,,,,,,,,,,1,,,,,,,,,,,,,,,,,,,,,,,,,,,,,,,,,,,,,,,,,,,,,,46,158845,19,Male,1,2024/02/12_08:52:12,YZ,60.020780514737325,
,,,,,,calibration,0,16,2,679,11,X,0,right,0.0,1,0,,,,,,,,,,,,,,,,,,,,,1,,,,,,,,,,,,,,,,,,,,,,,,,,,,,,,,,,,,,,,,,,,,,,46,158845,19,Male,1,2024/02/12_08:52:12,YZ,60.020780514737325,
,,,,,,calibration,0,16,2,679,12,N,1,right,0.0,0,0,,,,,,,,,,,,,,,,,,,,,1,,,,,,,,,,,,,,,,,,,,,,,,,,,,,,,,,,,,,,,,,,,,,,46,158845,19,Male,1,2024/02/12_08:52:12,YZ,60.020780514737325,
,,,,,,calibration,0,16,2,679,13,X,1,right,0.0,0,0,,,,,,,,,,,,,,,,,,,,,1,,,,,,,,,,,,,,,,,,,,,,,,,,,,,,,,,,,,,,,,,,,,,,46,158845,19,Male,1,2024/02/12_08:52:12,YZ,60.020780514737325,
,,,,,,calibration,0,16,2,679,14,J,0,right,0.004320119000112754,1,0,,,,,,,,,,,,,,,,,,,,,1,,,,,,,,,,,,,,,,,,,,,,,,,,,,,,,,,,,,,,,,,,,,,,46,158845,19,Male,1,2024/02/12_08:52:12,YZ,60.020780514737325,
,,,,,,calibration,0,16,2,679,,,,,,,,0.225,0.0,0.1,0.8888888888888888,0.07142857142857142,0.8285714285714286,0.06558042423081972,0,1,0,1,1,8,8,4,10,0,,,,1,,,,,,,,,,,,,,,,,,,,,,,,,,,,,,,,,,,,,,,,,,,,,,46,158845,19,Male,1,2024/02/12_08:52:12,YZ,60.020780514737325,
,,,,,,Calibration,0,,2,679,,,,,,,,,,,,,,,,,,,,,,,,,2,,,1,,,,,,,,,,,,,,,,,,,,,,,,,,,,,,,,,,,,,,,,,,,,,,46,158845,19,Male,1,2024/02/12_08:52:12,YZ,60.020780514737325,
,,,,,,calibration,0,26,2,788,1,C,0,right,1.0015948550003486,1,0,,,,,,,,,,,,,,,,,,,,,1,,,,,,,,,,,,,,,,,,,,,,,,,,,,,,,,,,,,,,,,,,,,,,46,158845,19,Male,1,2024/02/12_08:52:12,YZ,60.020780514737325,
,,,,,,calibration,0,26,2,788,2,Q,0,right,1.2290006950001953,1,0,,,,,,,,,,,,,,,,,,,,,1,,,,,,,,,,,,,,,,,,,,,,,,,,,,,,,,,,,,,,,,,,,,,,46,158845,19,Male,1,2024/02/12_08:52:12,YZ,60.020780514737325,
,,,,,,calibration,0,26,2,788,3,C,1,left,0.6911303320002844,1,0,,,,,,,,,,,,,,,,,,,,,1,,,,,,,,,,,,,,,,,,,,,,,,,,,,,,,,,,,,,,,,,,,,,,46,158845,19,Male,1,2024/02/12_08:52:12,YZ,60.020780514737325,
,,,,,,calibration,0,26,2,788,4,F,0,right,0.4703275349997966,1,0,,,,,,,,,,,,,,,,,,,,,1,,,,,,,,,,,,,,,,,,,,,,,,,,,,,,,,,,,,,,,,,,,,,,46,158845,19,Male,1,2024/02/12_08:52:12,YZ,60.020780514737325,
,,,,,,calibration,0,26,2,788,5,C,1,right,1.14773285199999,0,0,,,,,,,,,,,,,,,,,,,,,1,,,,,,,,,,,,,,,,,,,,,,,,,,,,,,,,,,,,,,,,,,,,,,46,158845,19,Male,1,2024/02/12_08:52:12,YZ,60.020780514737325,
,,,,,,calibration,0,26,2,788,6,F,1,right,0.8098522280001816,0,0,,,,,,,,,,,,,,,,,,,,,1,,,,,,,,,,,,,,,,,,,,,,,,,,,,,,,,,,,,,,,,,,,,,,46,158845,19,Male,1,2024/02/12_08:52:12,YZ,60.020780514737325,
,,,,,,calibration,0,26,2,788,7,X,0,right,0.6601346170000397,1,0,,,,,,,,,,,,,,,,,,,,,1,,,,,,,,,,,,,,,,,,,,,,,,,,,,,,,,,,,,,,,,,,,,,,46,158845,19,Male,1,2024/02/12_08:52:12,YZ,60.020780514737325,
,,,,,,calibration,0,26,2,788,8,V,0,right,0.6436045140003444,1,0,,,,,,,,,,,,,,,,,,,,,1,,,,,,,,,,,,,,,,,,,,,,,,,,,,,,,,,,,,,,,,,,,,,,46,158845,19,Male,1,2024/02/12_08:52:12,YZ,60.020780514737325,
,,,,,,calibration,0,26,2,788,9,C,0,left,0.8340164130004268,0,0,,,,,,,,,,,,,,,,,,,,,1,,,,,,,,,,,,,,,,,,,,,,,,,,,,,,,,,,,,,,,,,,,,,,46,158845,19,Male,1,2024/02/12_08:52:12,YZ,60.020780514737325,
,,,,,,calibration,0,26,2,788,10,X,0,right,0.37198457900012727,1,0,,,,,,,,,,,,,,,,,,,,,1,,,,,,,,,,,,,,,,,,,,,,,,,,,,,,,,,,,,,,,,,,,,,,46,158845,19,Male,1,2024/02/12_08:52:12,YZ,60.020780514737325,
,,,,,,calibration,0,26,2,788,11,S,0,right,0.710620733000269,1,0,,,,,,,,,,,,,,,,,,,,,1,,,,,,,,,,,,,,,,,,,,,,,,,,,,,,,,,,,,,,,,,,,,,,46,158845,19,Male,1,2024/02/12_08:52:12,YZ,60.020780514737325,
,,,,,,calibration,0,26,2,788,12,F,0,left,0.489858981999987,0,0,,,,,,,,,,,,,,,,,,,,,1,,,,,,,,,,,,,,,,,,,,,,,,,,,,,,,,,,,,,,,,,,,,,,46,158845,19,Male,1,2024/02/12_08:52:12,YZ,60.020780514737325,
,,,,,,calibration,0,26,2,788,13,S,1,right,0.377766260000044,0,0,,,,,,,,,,,,,,,,,,,,,1,,,,,,,,,,,,,,,,,,,,,,,,,,,,,,,,,,,,,,,,,,,,,,46,158845,19,Male,1,2024/02/12_08:52:12,YZ,60.020780514737325,
,,,,,,calibration,0,26,2,788,,,,,,,,0.5347222222222222,0.25,0.2222222222222222,0.7777777777777778,0.0,0.7777777777777778,0.7259711226924642,1,2,0,0,0,7,8,4,9,0,,,,1,,,,,,,,,,,,,,,,,,,,,,,,,,,,,,,,,,,,,,,,,,,,,,46,158845,19,Male,1,2024/02/12_08:52:12,YZ,60.020780514737325,
,,,,,,Calibration,0,,2,788,,,,,,,,,,,,,,,,,,,,,,,,,3,,,1,,,,,,,,,,,,,,,,,,,,,,,,,,,,,,,,,,,,,,,,,,,,,,46,158845,19,Male,1,2024/02/12_08:52:12,YZ,60.020780514737325,
,,,,,,calibration,0,15,2,917,1,X,0,right,1.8935965400000896,1,0,,,,,,,,,,,,,,,,,,,,,1,,,,,,,,,,,,,,,,,,,,,,,,,,,,,,,,,,,,,,,,,,,,,,46,158845,19,Male,1,2024/02/12_08:52:12,YZ,60.020780514737325,
,,,,,,calibration,0,15,2,917,2,C,0,right,0.7412197409998953,1,0,,,,,,,,,,,,,,,,,,,,,1,,,,,,,,,,,,,,,,,,,,,,,,,,,,,,,,,,,,,,,,,,,,,,46,158845,19,Male,1,2024/02/12_08:52:12,YZ,60.020780514737325,
,,,,,,calibration,0,15,2,917,3,N,0,right,0.7676815919999171,1,0,,,,,,,,,,,,,,,,,,,,,1,,,,,,,,,,,,,,,,,,,,,,,,,,,,,,,,,,,,,,,,,,,,,,46,158845,19,Male,1,2024/02/12_08:52:12,YZ,60.020780514737325,
,,,,,,calibration,0,15,2,917,4,S,0,right,0.6591226919999826,1,0,,,,,,,,,,,,,,,,,,,,,1,,,,,,,,,,,,,,,,,,,,,,,,,,,,,,,,,,,,,,,,,,,,,,46,158845,19,Male,1,2024/02/12_08:52:12,YZ,60.020780514737325,
,,,,,,calibration,0,15,2,917,5,N,1,left,0.5589903559998675,1,0,,,,,,,,,,,,,,,,,,,,,1,,,,,,,,,,,,,,,,,,,,,,,,,,,,,,,,,,,,,,,,,,,,,,46,158845,19,Male,1,2024/02/12_08:52:12,YZ,60.020780514737325,
,,,,,,calibration,0,15,2,917,6,J,0,right,0.6106277140002021,1,0,,,,,,,,,,,,,,,,,,,,,1,,,,,,,,,,,,,,,,,,,,,,,,,,,,,,,,,,,,,,,,,,,,,,46,158845,19,Male,1,2024/02/12_08:52:12,YZ,60.020780514737325,
,,,,,,calibration,0,15,2,917,7,Q,0,right,0.6283683960000417,1,0,,,,,,,,,,,,,,,,,,,,,1,,,,,,,,,,,,,,,,,,,,,,,,,,,,,,,,,,,,,,,,,,,,,,46,158845,19,Male,1,2024/02/12_08:52:12,YZ,60.020780514737325,
,,,,,,calibration,0,15,2,917,8,J,1,right,0.8091765600001963,0,0,,,,,,,,,,,,,,,,,,,,,1,,,,,,,,,,,,,,,,,,,,,,,,,,,,,,,,,,,,,,,,,,,,,,46,158845,19,Male,1,2024/02/12_08:52:12,YZ,60.020780514737325,
,,,,,,calibration,0,15,2,917,9,Q,1,left,0.615112235000197,1,0,,,,,,,,,,,,,,,,,,,,,1,,,,,,,,,,,,,,,,,,,,,,,,,,,,,,,,,,,,,,,,,,,,,,46,158845,19,Male,1,2024/02/12_08:52:12,YZ,60.020780514737325,
,,,,,,calibration,0,15,2,917,10,N,0,right,0.2794173629999932,1,0,,,,,,,,,,,,,,,,,,,,,1,,,,,,,,,,,,,,,,,,,,,,,,,,,,,,,,,,,,,,,,,,,,,,46,158845,19,Male,1,2024/02/12_08:52:12,YZ,60.020780514737325,
,,,,,,calibration,0,15,2,917,11,C,0,right,0.3482033799996316,1,0,,,,,,,,,,,,,,,,,,,,,1,,,,,,,,,,,,,,,,,,,,,,,,,,,,,,,,,,,,,,,,,,,,,,46,158845,19,Male,1,2024/02/12_08:52:12,YZ,60.020780514737325,
,,,,,,calibration,0,15,2,917,12,S,0,right,0.6769467829999485,1,0,,,,,,,,,,,,,,,,,,,,,1,,,,,,,,,,,,,,,,,,,,,,,,,,,,,,,,,,,,,,,,,,,,,,46,158845,19,Male,1,2024/02/12_08:52:12,YZ,60.020780514737325,
,,,,,,calibration,0,15,2,917,,,,,,,,0.9166666666666666,0.6666666666666666,0.0,1.0,0.0,1.0,0.7157052793333302,2,0,0,0,0,9,11,3,9,0,,,,1,,,,,,,,,,,,,,,,,,,,,,,,,,,,,,,,,,,,,,,,,,,,,,46,158845,19,Male,1,2024/02/12_08:52:12,YZ,60.020780514737325,
,,,,,,Calibration,0,,2,917,,,,,,,,,,,,,,,,,,,,,,,,,4,,,1,,,,,,,,,,,,,,,,,,,,,,,,,,,,,,,,,,,,,,,,,,,,,,46,158845,19,Male,1,2024/02/12_08:52:12,YZ,60.020780514737325,
,,,,,,calibration,0,11,2,788,1,F,0,right,0.8098862589999953,1,0,,,,,,,,,,,,,,,,,,,,,1,,,,,,,,,,,,,,,,,,,,,,,,,,,,,,,,,,,,,,,,,,,,,,46,158845,19,Male,1,2024/02/12_08:52:12,YZ,60.020780514737325,
,,,,,,calibration,0,11,2,788,2,F,0,right,0.24585882100018353,1,0,,,,,,,,,,,,,,,,,,,,,1,,,,,,,,,,,,,,,,,,,,,,,,,,,,,,,,,,,,,,,,,,,,,,46,158845,19,Male,1,2024/02/12_08:52:12,YZ,60.020780514737325,
,,,,,,calibration,0,11,2,788,3,N,0,right,0.8061407519999193,1,0,,,,,,,,,,,,,,,,,,,,,1,,,,,,,,,,,,,,,,,,,,,,,,,,,,,,,,,,,,,,,,,,,,,,46,158845,19,Male,1,2024/02/12_08:52:12,YZ,60.020780514737325,
,,,,,,calibration,0,11,2,788,4,Q,0,right,0.574737973000083,1,0,,,,,,,,,,,,,,,,,,,,,1,,,,,,,,,,,,,,,,,,,,,,,,,,,,,,,,,,,,,,,,,,,,,,46,158845,19,Male,1,2024/02/12_08:52:12,YZ,60.020780514737325,
,,,,,,calibration,0,11,2,788,5,N,1,left,0.5614382210001168,1,0,,,,,,,,,,,,,,,,,,,,,1,,,,,,,,,,,,,,,,,,,,,,,,,,,,,,,,,,,,,,,,,,,,,,46,158845,19,Male,1,2024/02/12_08:52:12,YZ,60.020780514737325,
,,,,,,calibration,0,11,2,788,6,Q,1,right,0.4607228279996889,0,0,,,,,,,,,,,,,,,,,,,,,1,,,,,,,,,,,,,,,,,,,,,,,,,,,,,,,,,,,,,,,,,,,,,,46,158845,19,Male,1,2024/02/12_08:52:12,YZ,60.020780514737325,
,,,,,,calibration,0,11,2,788,7,J,0,right,0.6603417090000221,1,0,,,,,,,,,,,,,,,,,,,,,1,,,,,,,,,,,,,,,,,,,,,,,,,,,,,,,,,,,,,,,,,,,,,,46,158845,19,Male,1,2024/02/12_08:52:12,YZ,60.020780514737325,
,,,,,,calibration,0,11,2,788,8,N,0,left,0.7931511210003919,0,0,,,,,,,,,,,,,,,,,,,,,1,,,,,,,,,,,,,,,,,,,,,,,,,,,,,,,,,,,,,,,,,,,,,,46,158845,19,Male,1,2024/02/12_08:52:12,YZ,60.020780514737325,
,,,,,,calibration,0,11,2,788,9,Q,0,right,0.6429937029997745,1,0,,,,,,,,,,,,,,,,,,,,,1,,,,,,,,,,,,,,,,,,,,,,,,,,,,,,,,,,,,,,,,,,,,,,46,158845,19,Male,1,2024/02/12_08:52:12,YZ,60.020780514737325,
,,,,,,calibration,0,11,2,788,10,N,1,right,0.5742999839999356,0,0,,,,,,,,,,,,,,,,,,,,,1,,,,,,,,,,,,,,,,,,,,,,,,,,,,,,,,,,,,,,,,,,,,,,46,158845,19,Male,1,2024/02/12_08:52:12,YZ,60.020780514737325,
,,,,,,calibration,0,11,2,788,11,X,0,right,1.6672088780001104,1,0,,,,,,,,,,,,,,,,,,,,,1,,,,,,,,,,,,,,,,,,,,,,,,,,,,,,,,,,,,,,,,,,,,,,46,158845,19,Male,1,2024/02/12_08:52:12,YZ,60.020780514737325,
,,,,,,calibration,0,11,2,788,12,N,1,left,1.762316307999754,1,0,,,,,,,,,,,,,,,,,,,,,1,,,,,,,,,,,,,,,,,,,,,,,,,,,,,,,,,,,,,,,,,,,,,,46,158845,19,Male,1,2024/02/12_08:52:12,YZ,60.020780514737325,
,,,,,,calibration,0,11,2,788,13,V,0,right,0.9123137209999186,1,0,,,,,,,,,,,,,,,,,,,,,1,,,,,,,,,,,,,,,,,,,,,,,,,,,,,,,,,,,,,,,,,,,,,,46,158845,19,Male,1,2024/02/12_08:52:12,YZ,60.020780514737325,
,,,,,,calibration,0,11,2,788,,,,,,,,0.7916666666666666,0.5,0.1111111111111111,0.8888888888888888,0.0,0.8888888888888888,0.8054930983076841,2,1,0,0,0,8,10,4,9,0,,,,1,,,,,,,,,,,,,,,,,,,,,,,,,,,,,,,,,,,,,,,,,,,,,,46,158845,19,Male,1,2024/02/12_08:52:12,YZ,60.020780514737325,
,,,,,,Calibration,0,,2,788,,,,,,,,,,,,,,,,,,,,,,,,,5,,,1,,,,,,,,,,,,,,,,,,,,,,,,,,,,,,,,,,,,,,,,,,,,,,46,158845,19,Male,1,2024/02/12_08:52:12,YZ,60.020780514737325,
,,,,,,calibration,0,6,2,788,1,S,0,None,nan,0,1,,,,,,,,,,,,,,,,,,,,,1,,,,,,,,,,,,,,,,,,,,,,,,,,,,,,,,,,,,,,,,,,,,,,46,158845,19,Male,1,2024/02/12_08:52:12,YZ,60.020780514737325,
,,,,,,calibration,0,6,2,788,2,J,0,right,0.9588796819998606,1,0,,,,,,,,,,,,,,,,,,,,,1,,,,,,,,,,,,,,,,,,,,,,,,,,,,,,,,,,,,,,,,,,,,,,46,158845,19,Male,1,2024/02/12_08:52:12,YZ,60.020780514737325,
,,,,,,calibration,0,6,2,788,3,S,1,left,0.6793008890003875,1,0,,,,,,,,,,,,,,,,,,,,,1,,,,,,,,,,,,,,,,,,,,,,,,,,,,,,,,,,,,,,,,,,,,,,46,158845,19,Male,1,2024/02/12_08:52:12,YZ,60.020780514737325,
,,,,,,calibration,0,6,2,788,4,Q,0,right,0.35798829399982424,1,0,,,,,,,,,,,,,,,,,,,,,1,,,,,,,,,,,,,,,,,,,,,,,,,,,,,,,,,,,,,,,,,,,,,,46,158845,19,Male,1,2024/02/12_08:52:12,YZ,60.020780514737325,
,,,,,,calibration,0,6,2,788,5,F,0,left,0.5433592409999619,0,0,,,,,,,,,,,,,,,,,,,,,1,,,,,,,,,,,,,,,,,,,,,,,,,,,,,,,,,,,,,,,,,,,,,,46,158845,19,Male,1,2024/02/12_08:52:12,YZ,60.020780514737325,
,,,,,,calibration,0,6,2,788,6,Q,1,right,0.25837629699981335,0,0,,,,,,,,,,,,,,,,,,,,,1,,,,,,,,,,,,,,,,,,,,,,,,,,,,,,,,,,,,,,,,,,,,,,46,158845,19,Male,1,2024/02/12_08:52:12,YZ,60.020780514737325,
,,,,,,calibration,0,6,2,788,7,F,1,right,1.0536587609999515,0,0,,,,,,,,,,,,,,,,,,,,,1,,,,,,,,,,,,,,,,,,,,,,,,,,,,,,,,,,,,,,,,,,,,,,46,158845,19,Male,1,2024/02/12_08:52:12,YZ,60.020780514737325,
,,,,,,calibration,0,6,2,788,8,C,0,right,1.0599499660002039,1,0,,,,,,,,,,,,,,,,,,,,,1,,,,,,,,,,,,,,,,,,,,,,,,,,,,,,,,,,,,,,,,,,,,,,46,158845,19,Male,1,2024/02/12_08:52:12,YZ,60.020780514737325,
,,,,,,calibration,0,6,2,788,9,V,0,left,0.43701701500003765,0,0,,,,,,,,,,,,,,,,,,,,,1,,,,,,,,,,,,,,,,,,,,,,,,,,,,,,,,,,,,,,,,,,,,,,46,158845,19,Male,1,2024/02/12_08:52:12,YZ,60.020780514737325,
,,,,,,calibration,0,6,2,788,10,Q,0,right,0.32518464300028427,1,0,,,,,,,,,,,,,,,,,,,,,1,,,,,,,,,,,,,,,,,,,,,,,,,,,,,,,,,,,,,,,,,,,,,,46,158845,19,Male,1,2024/02/12_08:52:12,YZ,60.020780514737325,
,,,,,,calibration,0,6,2,788,11,X,0,right,0.27348045400003684,1,0,,,,,,,,,,,,,,,,,,,,,1,,,,,,,,,,,,,,,,,,,,,,,,,,,,,,,,,,,,,,,,,,,,,,46,158845,19,Male,1,2024/02/12_08:52:12,YZ,60.020780514737325,
,,,,,,calibration,0,6,2,788,12,Q,1,left,0.16179497099983564,1,0,,,,,,,,,,,,,,,,,,,,,1,,,,,,,,,,,,,,,,,,,,,,,,,,,,,,,,,,,,,,,,,,,,,,46,158845,19,Male,1,2024/02/12_08:52:12,YZ,60.020780514737325,
,,,,,,calibration,0,6,2,788,13,C,0,left,0.0,0,0,,,,,,,,,,,,,,,,,,,,,1,,,,,,,,,,,,,,,,,,,,,,,,,,,,,,,,,,,,,,,,,,,,,,46,158845,19,Male,1,2024/02/12_08:52:12,YZ,60.020780514737325,
,,,,,,calibration,0,6,2,788,,,,,,,,0.625,0.5,0.3333333333333333,0.625,0.07692307692307693,0.5897435897435899,0.5090825177500165,2,3,0,1,1,5,7,4,9,0,,,,1,,,,,,,,,,,,,,,,,,,,,,,,,,,,,,,,,,,,,,,,,,,,,,46,158845,19,Male,1,2024/02/12_08:52:12,YZ,60.020780514737325,
,,,,,,Calibration,0,,2,788,,,,,,,,,,,,,,,,,,,,,,,,,6,,,1,,,,,,,,,,,,,,,,,,,,,,,,,,,,,,,,,,,,,,,,,,,,,,46,158845,19,Male,1,2024/02/12_08:52:12,YZ,60.020780514737325,
,,,,,,calibration,0,19,2,917,1,F,0,right,0.9642038050001247,1,0,,,,,,,,,,,,,,,,,,,,,1,,,,,,,,,,,,,,,,,,,,,,,,,,,,,,,,,,,,,,,,,,,,,,46,158845,19,Male,1,2024/02/12_08:52:12,YZ,60.020780514737325,
,,,,,,calibration,0,19,2,917,2,J,0,right,0.4113734369998383,1,0,,,,,,,,,,,,,,,,,,,,,1,,,,,,,,,,,,,,,,,,,,,,,,,,,,,,,,,,,,,,,,,,,,,,46,158845,19,Male,1,2024/02/12_08:52:12,YZ,60.020780514737325,
,,,,,,calibration,0,19,2,917,3,F,1,left,0.454008901999714,1,0,,,,,,,,,,,,,,,,,,,,,1,,,,,,,,,,,,,,,,,,,,,,,,,,,,,,,,,,,,,,,,,,,,,,46,158845,19,Male,1,2024/02/12_08:52:12,YZ,60.020780514737325,
,,,,,,calibration,0,19,2,917,4,X,0,right,0.28554557899997235,1,0,,,,,,,,,,,,,,,,,,,,,1,,,,,,,,,,,,,,,,,,,,,,,,,,,,,,,,,,,,,,,,,,,,,,46,158845,19,Male,1,2024/02/12_08:52:12,YZ,60.020780514737325,
,,,,,,calibration,0,19,2,917,5,F,1,left,0.4622511980001036,1,0,,,,,,,,,,,,,,,,,,,,,1,,,,,,,,,,,,,,,,,,,,,,,,,,,,,,,,,,,,,,,,,,,,,,46,158845,19,Male,1,2024/02/12_08:52:12,YZ,60.020780514737325,
,,,,,,calibration,0,19,2,917,6,N,0,right,0.2523412340001414,1,0,,,,,,,,,,,,,,,,,,,,,1,,,,,,,,,,,,,,,,,,,,,,,,,,,,,,,,,,,,,,,,,,,,,,46,158845,19,Male,1,2024/02/12_08:52:12,YZ,60.020780514737325,
,,,,,,calibration,0,19,2,917,7,Q,0,right,0.7995646049998868,1,0,,,,,,,,,,,,,,,,,,,,,1,,,,,,,,,,,,,,,,,,,,,,,,,,,,,,,,,,,,,,,,,,,,,,46,158845,19,Male,1,2024/02/12_08:52:12,YZ,60.020780514737325,
,,,,,,calibration,0,19,2,917,8,F,0,right,1.3441185900001074,1,0,,,,,,,,,,,,,,,,,,,,,1,,,,,,,,,,,,,,,,,,,,,,,,,,,,,,,,,,,,,,,,,,,,,,46,158845,19,Male,1,2024/02/12_08:52:12,YZ,60.020780514737325,
,,,,,,calibration,0,19,2,917,9,Q,1,left,0.5569123780001064,1,0,,,,,,,,,,,,,,,,,,,,,1,,,,,,,,,,,,,,,,,,,,,,,,,,,,,,,,,,,,,,,,,,,,,,46,158845,19,Male,1,2024/02/12_08:52:12,YZ,60.020780514737325,
,,,,,,calibration,0,19,2,917,10,S,0,right,0.8101271169998654,1,0,,,,,,,,,,,,,,,,,,,,,1,,,,,,,,,,,,,,,,,,,,,,,,,,,,,,,,,,,,,,,,,,,,,,46,158845,19,Male,1,2024/02/12_08:52:12,YZ,60.020780514737325,
,,,,,,calibration,0,19,2,917,11,F,0,left,0.5248452099999668,0,0,,,,,,,,,,,,,,,,,,,,,1,,,,,,,,,,,,,,,,,,,,,,,,,,,,,,,,,,,,,,,,,,,,,,46,158845,19,Male,1,2024/02/12_08:52:12,YZ,60.020780514737325,
,,,,,,calibration,0,19,2,917,12,X,0,right,0.45376951400021426,1,0,,,,,,,,,,,,,,,,,,,,,1,,,,,,,,,,,,,,,,,,,,,,,,,,,,,,,,,,,,,,,,,,,,,,46,158845,19,Male,1,2024/02/12_08:52:12,YZ,60.020780514737325,
,,,,,,calibration,0,19,2,917,,,,,,,,0.9722222222222222,1.0,0.1111111111111111,0.8888888888888888,0.0,0.8888888888888888,0.6099217974166701,3,1,0,0,0,8,11,3,9,0,,,,1,,,,,,,,,,,,,,,,,,,,,,,,,,,,,,,,,,,,,,,,,,,,,,46,158845,19,Male,1,2024/02/12_08:52:12,YZ,60.020780514737325,
,,,,,,Calibration,0,,2,917,,,,,,,,,,,,,,,,,,,,,,,,,7,,,1,,,,,,,,,,,,,,,,,,,,,,,,,,,,,,,,,,,,,,,,,,,,,,46,158845,19,Male,1,2024/02/12_08:52:12,YZ,60.020780514737325,
,,,,,,calibration,0,34,2,788,1,Q,0,right,0.6629343319996224,1,0,,,,,,,,,,,,,,,,,,,,,1,,,,,,,,,,,,,,,,,,,,,,,,,,,,,,,,,,,,,,,,,,,,,,46,158845,19,Male,1,2024/02/12_08:52:12,YZ,60.020780514737325,
,,,,,,calibration,0,34,2,788,2,F,0,right,0.29690444400011984,1,0,,,,,,,,,,,,,,,,,,,,,1,,,,,,,,,,,,,,,,,,,,,,,,,,,,,,,,,,,,,,,,,,,,,,46,158845,19,Male,1,2024/02/12_08:52:12,YZ,60.020780514737325,
,,,,,,calibration,0,34,2,788,3,S,0,right,0.5995416410000871,1,0,,,,,,,,,,,,,,,,,,,,,1,,,,,,,,,,,,,,,,,,,,,,,,,,,,,,,,,,,,,,,,,,,,,,46,158845,19,Male,1,2024/02/12_08:52:12,YZ,60.020780514737325,
,,,,,,calibration,0,34,2,788,4,X,0,right,0.6233570699996562,1,0,,,,,,,,,,,,,,,,,,,,,1,,,,,,,,,,,,,,,,,,,,,,,,,,,,,,,,,,,,,,,,,,,,,,46,158845,19,Male,1,2024/02/12_08:52:12,YZ,60.020780514737325,
,,,,,,calibration,0,34,2,788,5,S,1,left,0.809889118999763,1,0,,,,,,,,,,,,,,,,,,,,,1,,,,,,,,,,,,,,,,,,,,,,,,,,,,,,,,,,,,,,,,,,,,,,46,158845,19,Male,1,2024/02/12_08:52:12,YZ,60.020780514737325,
,,,,,,calibration,0,34,2,788,6,J,0,right,0.5263076989999718,1,0,,,,,,,,,,,,,,,,,,,,,1,,,,,,,,,,,,,,,,,,,,,,,,,,,,,,,,,,,,,,,,,,,,,,46,158845,19,Male,1,2024/02/12_08:52:12,YZ,60.020780514737325,
,,,,,,calibration,0,34,2,788,7,F,0,left,0.6797505350000392,0,0,,,,,,,,,,,,,,,,,,,,,1,,,,,,,,,,,,,,,,,,,,,,,,,,,,,,,,,,,,,,,,,,,,,,46,158845,19,Male,1,2024/02/12_08:52:12,YZ,60.020780514737325,
,,,,,,calibration,0,34,2,788,8,N,0,right,0.5564176770003542,1,0,,,,,,,,,,,,,,,,,,,,,1,,,,,,,,,,,,,,,,,,,,,,,,,,,,,,,,,,,,,,,,,,,,,,46,158845,19,Male,1,2024/02/12_08:52:12,YZ,60.020780514737325,
,,,,,,calibration,0,34,2,788,9,F,1,left,0.2965253659999689,1,0,,,,,,,,,,,,,,,,,,,,,1,,,,,,,,,,,,,,,,,,,,,,,,,,,,,,,,,,,,,,,,,,,,,,46,158845,19,Male,1,2024/02/12_08:52:12,YZ,60.020780514737325,
,,,,,,calibration,0,34,2,788,10,N,1,right,1.382854755000153,0,0,,,,,,,,,,,,,,,,,,,,,1,,,,,,,,,,,,,,,,,,,,,,,,,,,,,,,,,,,,,,,,,,,,,,46,158845,19,Male,1,2024/02/12_08:52:12,YZ,60.020780514737325,
,,,,,,calibration,0,34,2,788,11,V,0,right,0.025338759000078426,1,0,,,,,,,,,,,,,,,,,,,,,1,,,,,,,,,,,,,,,,,,,,,,,,,,,,,,,,,,,,,,,,,,,,,,46,158845,19,Male,1,2024/02/12_08:52:12,YZ,60.020780514737325,
,,,,,,calibration,0,34,2,788,12,N,1,left,0.0,1,0,,,,,,,,,,,,,,,,,,,,,1,,,,,,,,,,,,,,,,,,,,,,,,,,,,,,,,,,,,,,,,,,,,,,46,158845,19,Male,1,2024/02/12_08:52:12,YZ,60.020780514737325,
,,,,,,calibration,0,34,2,788,13,X,0,left,0.0,0,0,,,,,,,,,,,,,,,,,,,,,1,,,,,,,,,,,,,,,,,,,,,,,,,,,,,,,,,,,,,,,,,,,,,,46,158845,19,Male,1,2024/02/12_08:52:12,YZ,60.020780514737325,
,,,,,,calibration,0,34,2,788,,,,,,,,0.8263888888888888,0.75,0.2222222222222222,0.7777777777777778,0.0,0.7777777777777778,0.49690933823075495,3,2,0,0,0,7,10,4,9,0,,,,1,,,,,,,,,,,,,,,,,,,,,,,,,,,,,,,,,,,,,,,,,,,,,,46,158845,19,Male,1,2024/02/12_08:52:12,YZ,60.020780514737325,
,,,,,,Calibration,0,,2,788,,,,,,,,,,,,,,,,,,,,,,,,,8,,,1,,,,,,,,,,,,,,,,,,,,,,,,,,,,,,,,,,,,,,,,,,,,,,46,158845,19,Male,1,2024/02/12_08:52:12,YZ,60.020780514737325,
,,,,,,calibration,0,25,2,788,1,X,0,right,0.5324465640001108,1,0,,,,,,,,,,,,,,,,,,,,,1,,,,,,,,,,,,,,,,,,,,,,,,,,,,,,,,,,,,,,,,,,,,,,46,158845,19,Male,1,2024/02/12_08:52:12,YZ,60.020780514737325,
,,,,,,calibration,0,25,2,788,2,F,0,right,0.2870853269996587,1,0,,,,,,,,,,,,,,,,,,,,,1,,,,,,,,,,,,,,,,,,,,,,,,,,,,,,,,,,,,,,,,,,,,,,46,158845,19,Male,1,2024/02/12_08:52:12,YZ,60.020780514737325,
,,,,,,calibration,0,25,2,788,3,X,1,right,0.4449475469996287,0,0,,,,,,,,,,,,,,,,,,,,,1,,,,,,,,,,,,,,,,,,,,,,,,,,,,,,,,,,,,,,,,,,,,,,46,158845,19,Male,1,2024/02/12_08:52:12,YZ,60.020780514737325,
,,,,,,calibration,0,25,2,788,4,V,0,right,0.5372210870000345,1,0,,,,,,,,,,,,,,,,,,,,,1,,,,,,,,,,,,,,,,,,,,,,,,,,,,,,,,,,,,,,,,,,,,,,46,158845,19,Male,1,2024/02/12_08:52:12,YZ,60.020780514737325,
,,,,,,calibration,0,25,2,788,5,J,0,right,0.6265103689997886,1,0,,,,,,,,,,,,,,,,,,,,,1,,,,,,,,,,,,,,,,,,,,,,,,,,,,,,,,,,,,,,,,,,,,,,46,158845,19,Male,1,2024/02/12_08:52:12,YZ,60.020780514737325,
,,,,,,calibration,0,25,2,788,6,V,1,left,0.3692416070002764,1,0,,,,,,,,,,,,,,,,,,,,,1,,,,,,,,,,,,,,,,,,,,,,,,,,,,,,,,,,,,,,,,,,,,,,46,158845,19,Male,1,2024/02/12_08:52:12,YZ,60.020780514737325,
,,,,,,calibration,0,25,2,788,7,X,0,left,0.6121862169998167,0,0,,,,,,,,,,,,,,,,,,,,,1,,,,,,,,,,,,,,,,,,,,,,,,,,,,,,,,,,,,,,,,,,,,,,46,158845,19,Male,1,2024/02/12_08:52:12,YZ,60.020780514737325,
,,,,,,calibration,0,25,2,788,8,N,0,right,0.3154819050000697,1,0,,,,,,,,,,,,,,,,,,,,,1,,,,,,,,,,,,,,,,,,,,,,,,,,,,,,,,,,,,,,,,,,,,,,46,158845,19,Male,1,2024/02/12_08:52:12,YZ,60.020780514737325,
,,,,,,calibration,0,25,2,788,9,C,0,left,0.3717230219999692,0,0,,,,,,,,,,,,,,,,,,,,,1,,,,,,,,,,,,,,,,,,,,,,,,,,,,,,,,,,,,,,,,,,,,,,46,158845,19,Male,1,2024/02/12_08:52:12,YZ,60.020780514737325,
,,,,,,calibration,0,25,2,788,10,N,1,right,0.31732229599992934,0,0,,,,,,,,,,,,,,,,,,,,,1,,,,,,,,,,,,,,,,,,,,,,,,,,,,,,,,,,,,,,,,,,,,,,46,158845,19,Male,1,2024/02/12_08:52:12,YZ,60.020780514737325,
,,,,,,calibration,0,25,2,788,11,S,0,right,0.16436135699996157,1,0,,,,,,,,,,,,,,,,,,,,,1,,,,,,,,,,,,,,,,,,,,,,,,,,,,,,,,,,,,,,,,,,,,,,46,158845,19,Male,1,2024/02/12_08:52:12,YZ,60.020780514737325,
,,,,,,calibration,0,25,2,788,12,C,0,right,0.0005270920000839396,1,0,,,,,,,,,,,,,,,,,,,,,1,,,,,,,,,,,,,,,,,,,,,,,,,,,,,,,,,,,,,,,,,,,,,,46,158845,19,Male,1,2024/02/12_08:52:12,YZ,60.020780514737325,
,,,,,,calibration,0,25,2,788,13,S,1,right,0.0,0,0,,,,,,,,,,,,,,,,,,,,,1,,,,,,,,,,,,,,,,,,,,,,,,,,,,,,,,,,,,,,,,,,,,,,46,158845,19,Male,1,2024/02/12_08:52:12,YZ,60.020780514737325,
,,,,,,calibration,0,25,2,788,,,,,,,,0.5347222222222222,0.25,0.2222222222222222,0.7777777777777778,0.0,0.7777777777777778,0.3522349530768714,1,2,0,0,0,7,8,4,9,0,,,,1,,,,,,,,,,,,,,,,,,,,,,,,,,,,,,,,,,,,,,,,,,,,,,46,158845,19,Male,1,2024/02/12_08:52:12,YZ,60.020780514737325,
,,,,,,Calibration,0,,2,788,,,,,,,,,,,,,,,,,,,,,,,,,9,,,1,,,,,,,,,,,,,,,,,,,,,,,,,,,,,,,,,,,,,,,,,,,,,,46,158845,19,Male,1,2024/02/12_08:52:12,YZ,60.020780514737325,
,,,,,,calibration,0,28,2,917,1,X,0,right,0.6919535429997268,1,0,,,,,,,,,,,,,,,,,,,,,1,,,,,,,,,,,,,,,,,,,,,,,,,,,,,,,,,,,,,,,,,,,,,,46,158845,19,Male,1,2024/02/12_08:52:12,YZ,60.020780514737325,
,,,,,,calibration,0,28,2,917,2,J,0,right,0.34414910299983603,1,0,,,,,,,,,,,,,,,,,,,,,1,,,,,,,,,,,,,,,,,,,,,,,,,,,,,,,,,,,,,,,,,,,,,,46,158845,19,Male,1,2024/02/12_08:52:12,YZ,60.020780514737325,
,,,,,,calibration,0,28,2,917,3,S,0,right,0.6267825139998422,1,0,,,,,,,,,,,,,,,,,,,,,1,,,,,,,,,,,,,,,,,,,,,,,,,,,,,,,,,,,,,,,,,,,,,,46,158845,19,Male,1,2024/02/12_08:52:12,YZ,60.020780514737325,
,,,,,,calibration,0,28,2,917,4,J,1,left,0.6569169829999737,1,0,,,,,,,,,,,,,,,,,,,,,1,,,,,,,,,,,,,,,,,,,,,,,,,,,,,,,,,,,,,,,,,,,,,,46,158845,19,Male,1,2024/02/12_08:52:12,YZ,60.020780514737325,
,,,,,,calibration,0,28,2,917,5,C,0,right,0.51429774799999,1,0,,,,,,,,,,,,,,,,,,,,,1,,,,,,,,,,,,,,,,,,,,,,,,,,,,,,,,,,,,,,,,,,,,,,46,158845,19,Male,1,2024/02/12_08:52:12,YZ,60.020780514737325,
,,,,,,calibration,0,28,2,917,6,J,1,left,0.6757496999998693,1,0,,,,,,,,,,,,,,,,,,,,,1,,,,,,,,,,,,,,,,,,,,,,,,,,,,,,,,,,,,,,,,,,,,,,46,158845,19,Male,1,2024/02/12_08:52:12,YZ,60.020780514737325,
,,,,,,calibration,0,28,2,917,7,Q,0,right,0.49131671300028756,1,0,,,,,,,,,,,,,,,,,,,,,1,,,,,,,,,,,,,,,,,,,,,,,,,,,,,,,,,,,,,,,,,,,,,,46,158845,19,Male,1,2024/02/12_08:52:12,YZ,60.020780514737325,
,,,,,,calibration,0,28,2,917,8,F,0,right,1.5794899120000991,1,0,,,,,,,,,,,,,,,,,,,,,1,,,,,,,,,,,,,,,,,,,,,,,,,,,,,,,,,,,,,,,,,,,,,,46,158845,19,Male,1,2024/02/12_08:52:12,YZ,60.020780514737325,
,,,,,,calibration,0,28,2,917,9,Q,1,left,1.124213478999991,1,0,,,,,,,,,,,,,,,,,,,,,1,,,,,,,,,,,,,,,,,,,,,,,,,,,,,,,,,,,,,,,,,,,,,,46,158845,19,Male,1,2024/02/12_08:52:12,YZ,60.020780514737325,
,,,,,,calibration,0,28,2,917,10,N,0,right,0.5141889779997655,1,0,,,,,,,,,,,,,,,,,,,,,1,,,,,,,,,,,,,,,,,,,,,,,,,,,,,,,,,,,,,,,,,,,,,,46,158845,19,Male,1,2024/02/12_08:52:12,YZ,60.020780514737325,
,,,,,,calibration,0,28,2,917,11,S,0,right,0.44419225199999346,1,0,,,,,,,,,,,,,,,,,,,,,1,,,,,,,,,,,,,,,,,,,,,,,,,,,,,,,,,,,,,,,,,,,,,,46,158845,19,Male,1,2024/02/12_08:52:12,YZ,60.020780514737325,
,,,,,,calibration,0,28,2,917,12,F,0,right,0.5544839899998806,1,0,,,,,,,,,,,,,,,,,,,,,1,,,,,,,,,,,,,,,,,,,,,,,,,,,,,,,,,,,,,,,,,,,,,,46,158845,19,Male,1,2024/02/12_08:52:12,YZ,60.020780514737325,
,,,,,,calibration,0,28,2,917,,,,,,,,1.0,1.0,0.0,1.0,0.0,1.0,0.6848112429166046,3,0,0,0,0,9,12,3,9,0,,,,1,,,,,,,,,,,,,,,,,,,,,,,,,,,,,,,,,,,,,,,,,,,,,,46,158845,19,Male,1,2024/02/12_08:52:12,YZ,60.020780514737325,
,,,,,,Calibration,0,,2,917,,,,,,,,,,,,,,,,,,,,,,,,,10,,,1,,,,,,,,,,,,,,,,,,,,,,,,,,,,,,,,,,,,,,,,,,,,,,46,158845,19,Male,1,2024/02/12_08:52:12,YZ,60.020780514737325,
,,,,,,calibration,0,7,2,788,1,S,0,right,0.4884781920000023,1,0,,,,,,,,,,,,,,,,,,,,,1,,,,,,,,,,,,,,,,,,,,,,,,,,,,,,,,,,,,,,,,,,,,,,46,158845,19,Male,1,2024/02/12_08:52:12,YZ,60.020780514737325,
,,,,,,calibration,0,7,2,788,2,F,0,right,0.3265255830001479,1,0,,,,,,,,,,,,,,,,,,,,,1,,,,,,,,,,,,,,,,,,,,,,,,,,,,,,,,,,,,,,,,,,,,,,46,158845,19,Male,1,2024/02/12_08:52:12,YZ,60.020780514737325,
,,,,,,calibration,0,7,2,788,3,S,1,left,0.7190680539997629,1,0,,,,,,,,,,,,,,,,,,,,,1,,,,,,,,,,,,,,,,,,,,,,,,,,,,,,,,,,,,,,,,,,,,,,46,158845,19,Male,1,2024/02/12_08:52:12,YZ,60.020780514737325,
,,,,,,calibration,0,7,2,788,4,X,0,right,0.4008296080000946,1,0,,,,,,,,,,,,,,,,,,,,,1,,,,,,,,,,,,,,,,,,,,,,,,,,,,,,,,,,,,,,,,,,,,,,46,158845,19,Male,1,2024/02/12_08:52:12,YZ,60.020780514737325,
,,,,,,calibration,0,7,2,788,5,S,1,right,0.6318538550003723,0,0,,,,,,,,,,,,,,,,,,,,,1,,,,,,,,,,,,,,,,,,,,,,,,,,,,,,,,,,,,,,,,,,,,,,46,158845,19,Male,1,2024/02/12_08:52:12,YZ,60.020780514737325,
,,,,,,calibration,0,7,2,788,6,C,0,right,0.6436937489997945,1,0,,,,,,,,,,,,,,,,,,,,,1,,,,,,,,,,,,,,,,,,,,,,,,,,,,,,,,,,,,,,,,,,,,,,46,158845,19,Male,1,2024/02/12_08:52:12,YZ,60.020780514737325,
,,,,,,calibration,0,7,2,788,7,Q,0,right,0.8075004729998909,1,0,,,,,,,,,,,,,,,,,,,,,1,,,,,,,,,,,,,,,,,,,,,,,,,,,,,,,,,,,,,,,,,,,,,,46,158845,19,Male,1,2024/02/12_08:52:12,YZ,60.020780514737325,
,,,,,,calibration,0,7,2,788,8,C,1,left,0.6670695729999352,1,0,,,,,,,,,,,,,,,,,,,,,1,,,,,,,,,,,,,,,,,,,,,,,,,,,,,,,,,,,,,,,,,,,,,,46,158845,19,Male,1,2024/02/12_08:52:12,YZ,60.020780514737325,
,,,,,,calibration,0,7,2,788,9,Q,1,right,0.9930906390000018,0,0,,,,,,,,,,,,,,,,,,,,,1,,,,,,,,,,,,,,,,,,,,,,,,,,,,,,,,,,,,,,,,,,,,,,46,158845,19,Male,1,2024/02/12_08:52:12,YZ,60.020780514737325,
,,,,,,calibration,0,7,2,788,10,X,0,right,0.7130085260000669,1,0,,,,,,,,,,,,,,,,,,,,,1,,,,,,,,,,,,,,,,,,,,,,,,,,,,,,,,,,,,,,,,,,,,,,46,158845,19,Male,1,2024/02/12_08:52:12,YZ,60.020780514737325,
,,,,,,calibration,0,7,2,788,11,J,0,right,0.8228754970000409,1,0,,,,,,,,,,,,,,,,,,,,,1,,,,,,,,,,,,,,,,,,,,,,,,,,,,,,,,,,,,,,,,,,,,,,46,158845,19,Male,1,2024/02/12_08:52:12,YZ,60.020780514737325,
,,,,,,calibration,0,7,2,788,12,Q,0,left,0.41043988000001264,0,0,,,,,,,,,,,,,,,,,,,,,1,,,,,,,,,,,,,,,,,,,,,,,,,,,,,,,,,,,,,,,,,,,,,,46,158845,19,Male,1,2024/02/12_08:52:12,YZ,60.020780514737325,
,,,,,,calibration,0,7,2,788,13,V,0,right,0.6356462310000097,1,0,,,,,,,,,,,,,,,,,,,,,1,,,,,,,,,,,,,,,,,,,,,,,,,,,,,,,,,,,,,,,,,,,,,,46,158845,19,Male,1,2024/02/12_08:52:12,YZ,60.020780514737325,
,,,,,,calibration,0,7,2,788,,,,,,,,0.7916666666666666,0.5,0.1111111111111111,0.8888888888888888,0.0,0.8888888888888888,0.6353907584615487,2,1,0,0,0,8,10,4,9,0,,,,1,,,,,,,,,,,,,,,,,,,,,,,,,,,,,,,,,,,,,,,,,,,,,,46,158845,19,Male,1,2024/02/12_08:52:12,YZ,60.020780514737325,
,,,,,,Calibration,0,,2,788,,,,,,,,,,,,,,,,,,,,,,,,,11,,,1,,,,,,,,,,,,,,,,,,,,,,,,,,,,,,,,,,,,,,,,,,,,,,46,158845,19,Male,1,2024/02/12_08:52:12,YZ,60.020780514737325,
,,,,,,calibration,0,35,2,788,1,C,0,right,0.8745841129998553,1,0,,,,,,,,,,,,,,,,,,,,,1,,,,,,,,,,,,,,,,,,,,,,,,,,,,,,,,,,,,,,,,,,,,,,46,158845,19,Male,1,2024/02/12_08:52:12,YZ,60.020780514737325,
,,,,,,calibration,0,35,2,788,2,X,0,right,0.2819893050000246,1,0,,,,,,,,,,,,,,,,,,,,,1,,,,,,,,,,,,,,,,,,,,,,,,,,,,,,,,,,,,,,,,,,,,,,46,158845,19,Male,1,2024/02/12_08:52:12,YZ,60.020780514737325,
,,,,,,calibration,0,35,2,788,3,S,0,right,0.5769121950002045,1,0,,,,,,,,,,,,,,,,,,,,,1,,,,,,,,,,,,,,,,,,,,,,,,,,,,,,,,,,,,,,,,,,,,,,46,158845,19,Male,1,2024/02/12_08:52:12,YZ,60.020780514737325,
,,,,,,calibration,0,35,2,788,4,C,0,left,0.34079660499992315,0,0,,,,,,,,,,,,,,,,,,,,,1,,,,,,,,,,,,,,,,,,,,,,,,,,,,,,,,,,,,,,,,,,,,,,46,158845,19,Male,1,2024/02/12_08:52:12,YZ,60.020780514737325,
,,,,,,calibration,0,35,2,788,5,S,1,right,0.34484569599999304,0,0,,,,,,,,,,,,,,,,,,,,,1,,,,,,,,,,,,,,,,,,,,,,,,,,,,,,,,,,,,,,,,,,,,,,46,158845,19,Male,1,2024/02/12_08:52:12,YZ,60.020780514737325,
,,,,,,calibration,0,35,2,788,6,N,0,left,0.45315532499989786,0,0,,,,,,,,,,,,,,,,,,,,,1,,,,,,,,,,,,,,,,,,,,,,,,,,,,,,,,,,,,,,,,,,,,,,46,158845,19,Male,1,2024/02/12_08:52:12,YZ,60.020780514737325,
,,,,,,calibration,0,35,2,788,7,X,0,right,0.30021234100013316,1,0,,,,,,,,,,,,,,,,,,,,,1,,,,,,,,,,,,,,,,,,,,,,,,,,,,,,,,,,,,,,,,,,,,,,46,158845,19,Male,1,2024/02/12_08:52:12,YZ,60.020780514737325,
,,,,,,calibration,0,35,2,788,8,F,0,right,0.5377890160002607,1,0,,,,,,,,,,,,,,,,,,,,,1,,,,,,,,,,,,,,,,,,,,,,,,,,,,,,,,,,,,,,,,,,,,,,46,158845,19,Male,1,2024/02/12_08:52:12,YZ,60.020780514737325,
,,,,,,calibration,0,35,2,788,9,V,0,left,0.8594756640000014,0,0,,,,,,,,,,,,,,,,,,,,,1,,,,,,,,,,,,,,,,,,,,,,,,,,,,,,,,,,,,,,,,,,,,,,46,158845,19,Male,1,2024/02/12_08:52:12,YZ,60.020780514737325,
,,,,,,calibration,0,35,2,788,10,F,1,left,0.7094318029999158,1,0,,,,,,,,,,,,,,,,,,,,,1,,,,,,,,,,,,,,,,,,,,,,,,,,,,,,,,,,,,,,,,,,,,,,46,158845,19,Male,1,2024/02/12_08:52:12,YZ,60.020780514737325,
,,,,,,calibration,0,35,2,788,11,V,1,left,0.6805926150000232,1,0,,,,,,,,,,,,,,,,,,,,,1,,,,,,,,,,,,,,,,,,,,,,,,,,,,,,,,,,,,,,,,,,,,,,46,158845,19,Male,1,2024/02/12_08:52:12,YZ,60.020780514737325,
,,,,,,calibration,0,35,2,788,12,X,0,left,0.6602253490000294,0,0,,,,,,,,,,,,,,,,,,,,,1,,,,,,,,,,,,,,,,,,,,,,,,,,,,,,,,,,,,,,,,,,,,,,46,158845,19,Male,1,2024/02/12_08:52:12,YZ,60.020780514737325,
,,,,,,calibration,0,35,2,788,13,V,1,right,0.691788385000109,0,0,,,,,,,,,,,,,,,,,,,,,1,,,,,,,,,,,,,,,,,,,,,,,,,,,,,,,,,,,,,,,,,,,,,,46,158845,19,Male,1,2024/02/12_08:52:12,YZ,60.020780514737325,
,,,,,,calibration,0,35,2,788,,,,,,,,0.5416666666666666,0.5,0.4444444444444444,0.5555555555555556,0.0,0.5555555555555556,0.5624460316923362,2,4,0,0,0,5,7,4,9,0,,,,1,,,,,,,,,,,,,,,,,,,,,,,,,,,,,,,,,,,,,,,,,,,,,,46,158845,19,Male,1,2024/02/12_08:52:12,YZ,60.020780514737325,
,,,,,,Calibration,0,,2,788,,,,,,,,,,,,,,,,,,,,,,,,,12,,,1,,,,,,,,,,,,,,,,,,,,,,,,,,,,,,,,,,,,,,,,,,,,,,46,158845,19,Male,1,2024/02/12_08:52:12,YZ,60.020780514737325,
,,,,,,calibration,0,31,2,917,1,S,0,None,nan,0,1,,,,,,,,,,,,,,,,,,,,,1,,,,,,,,,,,,,,,,,,,,,,,,,,,,,,,,,,,,,,,,,,,,,,46,158845,19,Male,1,2024/02/12_08:52:12,YZ,60.020780514737325,
,,,,,,calibration,0,31,2,917,2,Q,0,right,0.7596952369999599,1,0,,,,,,,,,,,,,,,,,,,,,1,,,,,,,,,,,,,,,,,,,,,,,,,,,,,,,,,,,,,,,,,,,,,,46,158845,19,Male,1,2024/02/12_08:52:12,YZ,60.020780514737325,
,,,,,,calibration,0,31,2,917,3,F,0,right,0.47800726300010865,1,0,,,,,,,,,,,,,,,,,,,,,1,,,,,,,,,,,,,,,,,,,,,,,,,,,,,,,,,,,,,,,,,,,,,,46,158845,19,Male,1,2024/02/12_08:52:12,YZ,60.020780514737325,
,,,,,,calibration,0,31,2,917,4,N,0,right,0.390015559999938,1,0,,,,,,,,,,,,,,,,,,,,,1,,,,,,,,,,,,,,,,,,,,,,,,,,,,,,,,,,,,,,,,,,,,,,46,158845,19,Male,1,2024/02/12_08:52:12,YZ,60.020780514737325,
,,,,,,calibration,0,31,2,917,5,F,1,left,0.5280436560001363,1,0,,,,,,,,,,,,,,,,,,,,,1,,,,,,,,,,,,,,,,,,,,,,,,,,,,,,,,,,,,,,,,,,,,,,46,158845,19,Male,1,2024/02/12_08:52:12,YZ,60.020780514737325,
,,,,,,calibration,0,31,2,917,6,N,1,left,0.6535417049999523,1,0,,,,,,,,,,,,,,,,,,,,,1,,,,,,,,,,,,,,,,,,,,,,,,,,,,,,,,,,,,,,,,,,,,,,46,158845,19,Male,1,2024/02/12_08:52:12,YZ,60.020780514737325,
,,,,,,calibration,0,31,2,917,7,X,0,right,0.542623120999906,1,0,,,,,,,,,,,,,,,,,,,,,1,,,,,,,,,,,,,,,,,,,,,,,,,,,,,,,,,,,,,,,,,,,,,,46,158845,19,Male,1,2024/02/12_08:52:12,YZ,60.020780514737325,
,,,,,,calibration,0,31,2,917,8,V,0,right,0.5921021989997826,1,0,,,,,,,,,,,,,,,,,,,,,1,,,,,,,,,,,,,,,,,,,,,,,,,,,,,,,,,,,,,,,,,,,,,,46,158845,19,Male,1,2024/02/12_08:52:12,YZ,60.020780514737325,
,,,,,,calibration,0,31,2,917,9,X,1,left,0.5598672259998239,1,0,,,,,,,,,,,,,,,,,,,,,1,,,,,,,,,,,,,,,,,,,,,,,,,,,,,,,,,,,,,,,,,,,,,,46,158845,19,Male,1,2024/02/12_08:52:12,YZ,60.020780514737325,
,,,,,,calibration,0,31,2,917,10,S,0,right,0.43687115400007315,1,0,,,,,,,,,,,,,,,,,,,,,1,,,,,,,,,,,,,,,,,,,,,,,,,,,,,,,,,,,,,,,,,,,,,,46,158845,19,Male,1,2024/02/12_08:52:12,YZ,60.020780514737325,
,,,,,,calibration,0,31,2,917,11,C,0,right,0.41206263399999443,1,0,,,,,,,,,,,,,,,,,,,,,1,,,,,,,,,,,,,,,,,,,,,,,,,,,,,,,,,,,,,,,,,,,,,,46,158845,19,Male,1,2024/02/12_08:52:12,YZ,60.020780514737325,
,,,,,,calibration,0,31,2,917,12,S,1,right,0.4360352209996563,0,0,,,,,,,,,,,,,,,,,,,,,1,,,,,,,,,,,,,,,,,,,,,,,,,,,,,,,,,,,,,,,,,,,,,,46,158845,19,Male,1,2024/02/12_08:52:12,YZ,60.020780514737325,
,,,,,,calibration,0,31,2,917,,,,,,,,0.9375,0.75,0.0,1.0,0.08333333333333333,0.9166666666666666,0.5262604523635755,3,0,0,1,1,7,10,4,8,0,,,,1,,,,,,,,,,,,,,,,,,,,,,,,,,,,,,,,,,,,,,,,,,,,,,46,158845,19,Male,1,2024/02/12_08:52:12,YZ,60.020780514737325,
,,,,,,Calibration,0,,2,917,,,,,,,,,,,,,,,,,,,,,,,,,13,,,1,,,,,,,,,,,,,,,,,,,,,,,,,,,,,,,,,,,,,,,,,,,,,,46,158845,19,Male,1,2024/02/12_08:52:12,YZ,60.020780514737325,
,,,,,,calibration,0,10,2,788,1,N,0,right,0.4782003799996346,1,0,,,,,,,,,,,,,,,,,,,,,1,,,,,,,,,,,,,,,,,,,,,,,,,,,,,,,,,,,,,,,,,,,,,,46,158845,19,Male,1,2024/02/12_08:52:12,YZ,60.020780514737325,
,,,,,,calibration,0,10,2,788,2,S,0,right,0.5288740110004255,1,0,,,,,,,,,,,,,,,,,,,,,1,,,,,,,,,,,,,,,,,,,,,,,,,,,,,,,,,,,,,,,,,,,,,,46,158845,19,Male,1,2024/02/12_08:52:12,YZ,60.020780514737325,
,,,,,,calibration,0,10,2,788,3,N,1,left,0.532956452000235,1,0,,,,,,,,,,,,,,,,,,,,,1,,,,,,,,,,,,,,,,,,,,,,,,,,,,,,,,,,,,,,,,,,,,,,46,158845,19,Male,1,2024/02/12_08:52:12,YZ,60.020780514737325,
,,,,,,calibration,0,10,2,788,4,J,0,right,0.6787562350000371,1,0,,,,,,,,,,,,,,,,,,,,,1,,,,,,,,,,,,,,,,,,,,,,,,,,,,,,,,,,,,,,,,,,,,,,46,158845,19,Male,1,2024/02/12_08:52:12,YZ,60.020780514737325,
,,,,,,calibration,0,10,2,788,5,N,1,left,0.5145233480002389,1,0,,,,,,,,,,,,,,,,,,,,,1,,,,,,,,,,,,,,,,,,,,,,,,,,,,,,,,,,,,,,,,,,,,,,46,158845,19,Male,1,2024/02/12_08:52:12,YZ,60.020780514737325,
,,,,,,calibration,0,10,2,788,6,S,0,left,0.9751479870001276,0,0,,,,,,,,,,,,,,,,,,,,,1,,,,,,,,,,,,,,,,,,,,,,,,,,,,,,,,,,,,,,,,,,,,,,46,158845,19,Male,1,2024/02/12_08:52:12,YZ,60.020780514737325,
,,,,,,calibration,0,10,2,788,7,V,0,right,0.47434376600040196,1,0,,,,,,,,,,,,,,,,,,,,,1,,,,,,,,,,,,,,,,,,,,,,,,,,,,,,,,,,,,,,,,,,,,,,46,158845,19,Male,1,2024/02/12_08:52:12,YZ,60.020780514737325,
,,,,,,calibration,0,10,2,788,8,S,1,left,0.37218631600035224,1,0,,,,,,,,,,,,,,,,,,,,,1,,,,,,,,,,,,,,,,,,,,,,,,,,,,,,,,,,,,,,,,,,,,,,46,158845,19,Male,1,2024/02/12_08:52:12,YZ,60.020780514737325,
,,,,,,calibration,0,10,2,788,9,N,0,right,0.5785446069999125,1,0,,,,,,,,,,,,,,,,,,,,,1,,,,,,,,,,,,,,,,,,,,,,,,,,,,,,,,,,,,,,,,,,,,,,46,158845,19,Male,1,2024/02/12_08:52:12,YZ,60.020780514737325,
,,,,,,calibration,0,10,2,788,10,C,0,right,0.7423453779997544,1,0,,,,,,,,,,,,,,,,,,,,,1,,,,,,,,,,,,,,,,,,,,,,,,,,,,,,,,,,,,,,,,,,,,,,46,158845,19,Male,1,2024/02/12_08:52:12,YZ,60.020780514737325,
,,,,,,calibration,0,10,2,788,11,F,0,right,0.6596477160001086,1,0,,,,,,,,,,,,,,,,,,,,,1,,,,,,,,,,,,,,,,,,,,,,,,,,,,,,,,,,,,,,,,,,,,,,46,158845,19,Male,1,2024/02/12_08:52:12,YZ,60.020780514737325,
,,,,,,calibration,0,10,2,788,12,C,1,right,nan,0,1,,,,,,,,,,,,,,,,,,,,,1,,,,,,,,,,,,,,,,,,,,,,,,,,,,,,,,,,,,,,,,,,,,,,46,158845,19,Male,1,2024/02/12_08:52:12,YZ,60.020780514737325,
,,,,,,calibration,0,10,2,788,13,J,0,right,0.8600142800000867,1,0,,,,,,,,,,,,,,,,,,,,,1,,,,,,,,,,,,,,,,,,,,,,,,,,,,,,,,,,,,,,,,,,,,,,46,158845,19,Male,1,2024/02/12_08:52:12,YZ,60.020780514737325,
,,,,,,calibration,0,10,2,788,,,,,,,,0.8819444444444444,0.75,0.1111111111111111,0.8888888888888888,0.07692307692307693,0.811965811965812,0.6162950396667762,3,1,1,0,1,8,11,4,9,0,,,,1,,,,,,,,,,,,,,,,,,,,,,,,,,,,,,,,,,,,,,,,,,,,,,46,158845,19,Male,1,2024/02/12_08:52:12,YZ,60.020780514737325,
,,,,,,Calibration,0,,2,788,,,,,,,,,,,,,,,,,,,,,,,,,14,,,1,,,,,,,,,,,,,,,,,,,,,,,,,,,,,,,,,,,,,,,,,,,,,,46,158845,19,Male,1,2024/02/12_08:52:12,YZ,60.020780514737325,
,,,,,,calibration,0,13,2,679,1,N,0,None,nan,0,1,,,,,,,,,,,,,,,,,,,,,1,,,,,,,,,,,,,,,,,,,,,,,,,,,,,,,,,,,,,,,,,,,,,,46,158845,19,Male,1,2024/02/12_08:52:12,YZ,60.020780514737325,
,,,,,,calibration,0,13,2,679,2,Q,0,None,nan,0,1,,,,,,,,,,,,,,,,,,,,,1,,,,,,,,,,,,,,,,,,,,,,,,,,,,,,,,,,,,,,,,,,,,,,46,158845,19,Male,1,2024/02/12_08:52:12,YZ,60.020780514737325,
,,,,,,calibration,0,13,2,679,3,N,1,None,nan,0,1,,,,,,,,,,,,,,,,,,,,,1,,,,,,,,,,,,,,,,,,,,,,,,,,,,,,,,,,,,,,,,,,,,,,46,158845,19,Male,1,2024/02/12_08:52:12,YZ,60.020780514737325,
,,,,,,calibration,0,13,2,679,4,Q,1,right,1.5980869369996071,0,0,,,,,,,,,,,,,,,,,,,,,1,,,,,,,,,,,,,,,,,,,,,,,,,,,,,,,,,,,,,,,,,,,,,,46,158845,19,Male,1,2024/02/12_08:52:12,YZ,60.020780514737325,
,,,,,,calibration,0,13,2,679,5,S,0,right,0.26461763299994345,1,0,,,,,,,,,,,,,,,,,,,,,1,,,,,,,,,,,,,,,,,,,,,,,,,,,,,,,,,,,,,,,,,,,,,,46,158845,19,Male,1,2024/02/12_08:52:12,YZ,60.020780514737325,
,,,,,,calibration,0,13,2,679,6,Q,1,right,0.0005194990003474231,0,0,,,,,,,,,,,,,,,,,,,,,1,,,,,,,,,,,,,,,,,,,,,,,,,,,,,,,,,,,,,,,,,,,,,,46,158845,19,Male,1,2024/02/12_08:52:12,YZ,60.020780514737325,
,,,,,,calibration,0,13,2,679,7,V,0,right,0.08701084799986347,1,0,,,,,,,,,,,,,,,,,,,,,1,,,,,,,,,,,,,,,,,,,,,,,,,,,,,,,,,,,,,,,,,,,,,,46,158845,19,Male,1,2024/02/12_08:52:12,YZ,60.020780514737325,
,,,,,,calibration,0,13,2,679,8,J,0,right,0.0,1,0,,,,,,,,,,,,,,,,,,,,,1,,,,,,,,,,,,,,,,,,,,,,,,,,,,,,,,,,,,,,,,,,,,,,46,158845,19,Male,1,2024/02/12_08:52:12,YZ,60.020780514737325,
,,,,,,calibration,0,13,2,679,9,X,0,right,0.08756296799992924,1,0,,,,,,,,,,,,,,,,,,,,,1,,,,,,,,,,,,,,,,,,,,,,,,,,,,,,,,,,,,,,,,,,,,,,46,158845,19,Male,1,2024/02/12_08:52:12,YZ,60.020780514737325,
,,,,,,calibration,0,13,2,679,10,F,0,right,0.028404209000200353,1,0,,,,,,,,,,,,,,,,,,,,,1,,,,,,,,,,,,,,,,,,,,,,,,,,,,,,,,,,,,,,,,,,,,,,46,158845,19,Male,1,2024/02/12_08:52:12,YZ,60.020780514737325,
,,,,,,calibration,0,13,2,679,11,C,0,right,0.0,1,0,,,,,,,,,,,,,,,,,,,,,1,,,,,,,,,,,,,,,,,,,,,,,,,,,,,,,,,,,,,,,,,,,,,,46,158845,19,Male,1,2024/02/12_08:52:12,YZ,60.020780514737325,
,,,,,,calibration,0,13,2,679,12,F,1,right,0.35819465900021896,0,0,,,,,,,,,,,,,,,,,,,,,1,,,,,,,,,,,,,,,,,,,,,,,,,,,,,,,,,,,,,,,,,,,,,,46,158845,19,Male,1,2024/02/12_08:52:12,YZ,60.020780514737325,
,,,,,,calibration,0,13,2,679,13,N,0,right,0.10500150500001837,1,0,,,,,,,,,,,,,,,,,,,,,1,,,,,,,,,,,,,,,,,,,,,,,,,,,,,,,,,,,,,,,,,,,,,,46,158845,19,Male,1,2024/02/12_08:52:12,YZ,60.020780514737325,
,,,,,,calibration,0,13,2,679,14,X,0,right,0.05724222799972267,1,0,,,,,,,,,,,,,,,,,,,,,1,,,,,,,,,,,,,,,,,,,,,,,,,,,,,,,,,,,,,,,,,,,,,,46,158845,19,Male,1,2024/02/12_08:52:12,YZ,60.020780514737325,
,,,,,,calibration,0,13,2,679,,,,,,,,0.5,0.0,0.0,1.0,0.21428571428571427,0.7857142857142857,0.23514913509089555,0,0,1,2,3,8,8,4,10,0,,,,1,,,,,,,,,,,,,,,,,,,,,,,,,,,,,,,,,,,,,,,,,,,,,,46,158845,19,Male,1,2024/02/12_08:52:12,YZ,60.020780514737325,
,,,,,,Calibration,0,,2,679,,,,,,,,,,,,,,,,,,,,,,,,,15,,,1,,,,,,,,,,,,,,,,,,,,,,,,,,,,,,,,,,,,,,,,,,,,,,46,158845,19,Male,1,2024/02/12_08:52:12,YZ,60.020780514737325,
,,,,,,calibration,0,25,2,788,1,X,0,right,0.6100738609998189,1,0,,,,,,,,,,,,,,,,,,,,,1,,,,,,,,,,,,,,,,,,,,,,,,,,,,,,,,,,,,,,,,,,,,,,46,158845,19,Male,1,2024/02/12_08:52:12,YZ,60.020780514737325,
,,,,,,calibration,0,25,2,788,2,F,0,right,0.27603682800008755,1,0,,,,,,,,,,,,,,,,,,,,,1,,,,,,,,,,,,,,,,,,,,,,,,,,,,,,,,,,,,,,,,,,,,,,46,158845,19,Male,1,2024/02/12_08:52:12,YZ,60.020780514737325,
,,,,,,calibration,0,25,2,788,3,X,1,right,0.21509826000010435,0,0,,,,,,,,,,,,,,,,,,,,,1,,,,,,,,,,,,,,,,,,,,,,,,,,,,,,,,,,,,,,,,,,,,,,46,158845,19,Male,1,2024/02/12_08:52:12,YZ,60.020780514737325,
,,,,,,calibration,0,25,2,788,4,V,0,right,0.10795607000000018,1,0,,,,,,,,,,,,,,,,,,,,,1,,,,,,,,,,,,,,,,,,,,,,,,,,,,,,,,,,,,,,,,,,,,,,46,158845,19,Male,1,2024/02/12_08:52:12,YZ,60.020780514737325,
,,,,,,calibration,0,25,2,788,5,J,0,right,nan,0,1,,,,,,,,,,,,,,,,,,,,,1,,,,,,,,,,,,,,,,,,,,,,,,,,,,,,,,,,,,,,,,,,,,,,46,158845,19,Male,1,2024/02/12_08:52:12,YZ,60.020780514737325,
,,,,,,calibration,0,25,2,788,6,V,1,right,0.9119976510000924,0,0,,,,,,,,,,,,,,,,,,,,,1,,,,,,,,,,,,,,,,,,,,,,,,,,,,,,,,,,,,,,,,,,,,,,46,158845,19,Male,1,2024/02/12_08:52:12,YZ,60.020780514737325,
,,,,,,calibration,0,25,2,788,7,X,0,right,0.496351087000221,1,0,,,,,,,,,,,,,,,,,,,,,1,,,,,,,,,,,,,,,,,,,,,,,,,,,,,,,,,,,,,,,,,,,,,,46,158845,19,Male,1,2024/02/12_08:52:12,YZ,60.020780514737325,
,,,,,,calibration,0,25,2,788,8,N,0,right,0.34791707100021085,1,0,,,,,,,,,,,,,,,,,,,,,1,,,,,,,,,,,,,,,,,,,,,,,,,,,,,,,,,,,,,,,,,,,,,,46,158845,19,Male,1,2024/02/12_08:52:12,YZ,60.020780514737325,
,,,,,,calibration,0,25,2,788,9,C,0,right,0.19281073699994522,1,0,,,,,,,,,,,,,,,,,,,,,1,,,,,,,,,,,,,,,,,,,,,,,,,,,,,,,,,,,,,,,,,,,,,,46,158845,19,Male,1,2024/02/12_08:52:12,YZ,60.020780514737325,
,,,,,,calibration,0,25,2,788,10,N,1,right,0.09515057099997648,0,0,,,,,,,,,,,,,,,,,,,,,1,,,,,,,,,,,,,,,,,,,,,,,,,,,,,,,,,,,,,,,,,,,,,,46,158845,19,Male,1,2024/02/12_08:52:12,YZ,60.020780514737325,
,,,,,,calibration,0,25,2,788,11,S,0,right,0.028683107000233576,1,0,,,,,,,,,,,,,,,,,,,,,1,,,,,,,,,,,,,,,,,,,,,,,,,,,,,,,,,,,,,,,,,,,,,,46,158845,19,Male,1,2024/02/12_08:52:12,YZ,60.020780514737325,
,,,,,,calibration,0,25,2,788,12,C,0,right,0.0,1,0,,,,,,,,,,,,,,,,,,,,,1,,,,,,,,,,,,,,,,,,,,,,,,,,,,,,,,,,,,,,,,,,,,,,46,158845,19,Male,1,2024/02/12_08:52:12,YZ,60.020780514737325,
,,,,,,calibration,0,25,2,788,13,S,1,right,0.0,0,0,,,,,,,,,,,,,,,,,,,,,1,,,,,,,,,,,,,,,,,,,,,,,,,,,,,,,,,,,,,,,,,,,,,,46,158845,19,Male,1,2024/02/12_08:52:12,YZ,60.020780514737325,
,,,,,,calibration,0,25,2,788,,,,,,,,0.5,0.0,0.0,1.0,0.07692307692307693,0.9230769230769231,0.2735062702500575,0,0,0,1,1,8,8,4,9,0,,,,1,,,,,,,,,,,,,,,,,,,,,,,,,,,,,,,,,,,,,,,,,,,,,,46,158845,19,Male,1,2024/02/12_08:52:12,YZ,60.020780514737325,
,,,,,,Calibration,0,,2,788,,,,,,,,,,,,,,,,,,,,,,,,,16,,,1,,,,,,,,,,,,,,,,,,,,,,,,,,,,,,,,,,,,,,,,,,,,,,46,158845,19,Male,1,2024/02/12_08:52:12,YZ,60.020780514737325,
,,,,,,calibration,0,17,2,917,1,N,0,right,0.6592294850001963,1,0,,,,,,,,,,,,,,,,,,,,,1,,,,,,,,,,,,,,,,,,,,,,,,,,,,,,,,,,,,,,,,,,,,,,46,158845,19,Male,1,2024/02/12_08:52:12,YZ,60.020780514737325,
,,,,,,calibration,0,17,2,917,2,V,0,right,0.3404771690002235,1,0,,,,,,,,,,,,,,,,,,,,,1,,,,,,,,,,,,,,,,,,,,,,,,,,,,,,,,,,,,,,,,,,,,,,46,158845,19,Male,1,2024/02/12_08:52:12,YZ,60.020780514737325,
,,,,,,calibration,0,17,2,917,3,N,1,left,0.3269990250000774,1,0,,,,,,,,,,,,,,,,,,,,,1,,,,,,,,,,,,,,,,,,,,,,,,,,,,,,,,,,,,,,,,,,,,,,46,158845,19,Male,1,2024/02/12_08:52:12,YZ,60.020780514737325,
,,,,,,calibration,0,17,2,917,4,J,0,right,0.30852083099989613,1,0,,,,,,,,,,,,,,,,,,,,,1,,,,,,,,,,,,,,,,,,,,,,,,,,,,,,,,,,,,,,,,,,,,,,46,158845,19,Male,1,2024/02/12_08:52:12,YZ,60.020780514737325,
,,,,,,calibration,0,17,2,917,5,N,1,left,0.3314005530000941,1,0,,,,,,,,,,,,,,,,,,,,,1,,,,,,,,,,,,,,,,,,,,,,,,,,,,,,,,,,,,,,,,,,,,,,46,158845,19,Male,1,2024/02/12_08:52:12,YZ,60.020780514737325,
,,,,,,calibration,0,17,2,917,6,V,0,right,0.2691080959998544,1,0,,,,,,,,,,,,,,,,,,,,,1,,,,,,,,,,,,,,,,,,,,,,,,,,,,,,,,,,,,,,,,,,,,,,46,158845,19,Male,1,2024/02/12_08:52:12,YZ,60.020780514737325,
,,,,,,calibration,0,17,2,917,7,C,0,left,0.300126900000123,0,0,,,,,,,,,,,,,,,,,,,,,1,,,,,,,,,,,,,,,,,,,,,,,,,,,,,,,,,,,,,,,,,,,,,,46,158845,19,Male,1,2024/02/12_08:52:12,YZ,60.020780514737325,
,,,,,,calibration,0,17,2,917,8,S,0,right,0.32521184600000197,1,0,,,,,,,,,,,,,,,,,,,,,1,,,,,,,,,,,,,,,,,,,,,,,,,,,,,,,,,,,,,,,,,,,,,,46,158845,19,Male,1,2024/02/12_08:52:12,YZ,60.020780514737325,
,,,,,,calibration,0,17,2,917,9,C,1,left,0.6454582800001845,1,0,,,,,,,,,,,,,,,,,,,,,1,,,,,,,,,,,,,,,,,,,,,,,,,,,,,,,,,,,,,,,,,,,,,,46,158845,19,Male,1,2024/02/12_08:52:12,YZ,60.020780514737325,
,,,,,,calibration,0,17,2,917,10,F,0,right,0.625964949000263,1,0,,,,,,,,,,,,,,,,,,,,,1,,,,,,,,,,,,,,,,,,,,,,,,,,,,,,,,,,,,,,,,,,,,,,46,158845,19,Male,1,2024/02/12_08:52:12,YZ,60.020780514737325,
,,,,,,calibration,0,17,2,917,11,X,0,right,0.6766526319997865,1,0,,,,,,,,,,,,,,,,,,,,,1,,,,,,,,,,,,,,,,,,,,,,,,,,,,,,,,,,,,,,,,,,,,,,46,158845,19,Male,1,2024/02/12_08:52:12,YZ,60.020780514737325,
,,,,,,calibration,0,17,2,917,12,F,1,right,0.4654357469999013,0,0,,,,,,,,,,,,,,,,,,,,,1,,,,,,,,,,,,,,,,,,,,,,,,,,,,,,,,,,,,,,,,,,,,,,46,158845,19,Male,1,2024/02/12_08:52:12,YZ,60.020780514737325,
,,,,,,calibration,0,17,2,917,,,,,,,,0.875,0.75,0.125,0.875,0.0,0.875,0.43954879275005015,3,1,0,0,0,7,10,4,8,0,,,,1,,,,,,,,,,,,,,,,,,,,,,,,,,,,,,,,,,,,,,,,,,,,,,46,158845,19,Male,1,2024/02/12_08:52:12,YZ,60.020780514737325,
,,,,,,Calibration,0,,2,917,,,,,,,,,,,,,,,,,,,,,,,,,17,,,1,,,,,,,,,,,,,,,,,,,,,,,,,,,,,,,,,,,,,,,,,,,,,,46,158845,19,Male,1,2024/02/12_08:52:12,YZ,60.020780514737325,
,,,,,,CALIBRATION,0,,,,,,,,,,,,,,,,,,,,,,,,,,,,17,0.875,917,1,,,,,,,,,,,,,,,,,,,,,,,,,,,,,,,,,,,,,,,,,,,,,,46,158845,19,Male,1,2024/02/12_08:52:12,YZ,60.020780514737325,
1,./instructions/inst_prac_1/Slide24.png,right,10.728523729000244,422.31625838399987,433.0447821130001,,,,,,,,,,,,,,,,,,,,,,,,,,,,,,,,,1,,,,,,,,,,,,,,,,,,,,,,,,,,,,,,,,,,,,,,,,,,,,,,46,158845,19,Male,1,2024/02/12_08:52:12,YZ,60.020780514737325,
2,./instructions/inst_prac_1/Slide25.png,right,1.4513866890001736,433.08129996599973,434.5326866549999,,,,,,,,,,,,,,,,,,,,,,,,,,,,,,,,,1,,,,,,,,,,,,,,,,,,,,,,,,,,,,,,,,,,,,,,,,,,,,,,46,158845,19,Male,1,2024/02/12_08:52:12,YZ,60.020780514737325,
3,./instructions/inst_prac_1/Slide26.png,right,0.2004719180004031,434.5670425969997,434.76751451500013,,,,,,,,,,,,,,,,,,,,,,,,,,,,,,,,,1,,,,,,,,,,,,,,,,,,,,,,,,,,,,,,,,,,,,,,,,,,,,,,46,158845,19,Male,1,2024/02/12_08:52:12,YZ,60.020780514737325,
4,./instructions/inst_prac_1/Slide27.png,right,0.23276812600033736,434.7958708279998,435.02863895400014,,,,,,,,,,,,,,,,,,,,,,,,,,,,,,,,,1,,,,,,,,,,,,,,,,,,,,,,,,,,,,,,,,,,,,,,,,,,,,,,46,158845,19,Male,1,2024/02/12_08:52:12,YZ,60.020780514737325,
5,./instructions/inst_prac_1/Slide28.png,right,0.2005426279997664,435.06485440100005,435.2653970289998,,,,,,,,,,,,,,,,,,,,,,,,,,,,,,,,,1,,,,,,,,,,,,,,,,,,,,,,,,,,,,,,,,,,,,,,,,,,,,,,46,158845,19,Male,1,2024/02/12_08:52:12,YZ,60.020780514737325,
6,./instructions/inst_prac_1/Slide29.png,right,0.25312538499974835,435.29558288,435.54870826499973,,,,,,,,,,,,,,,,,,,,,,,,,,,,,,,,,1,,,,,,,,,,,,,,,,,,,,,,,,,,,,,,,,,,,,,,,,,,,,,,46,158845,19,Male,1,2024/02/12_08:52:12,YZ,60.020780514737325,
7,./instructions/inst_prac_1/Slide30.png,right,1.2926264799998535,435.58399327100005,436.8766197509999,,,,,,,,,,,,,,,,,,,,,,,,,,,,,,,,,1,,,,,,,,,,,,,,,,,,,,,,,,,,,,,,,,,,,,,,,,,,,,,,46,158845,19,Male,1,2024/02/12_08:52:12,YZ,60.020780514737325,
,,,,,,practice,0,15,1,1250,1,N,0,right,2.2520168739997644,1,0,,,,,,,,,,,,,,,,,,,,,1,,,,,,,,,,,,,,,,,,,,,,,,,,,,,,,,,,,,,,,,,,,,,,46,158845,19,Male,1,2024/02/12_08:52:12,YZ,60.020780514737325,
,,,,,,practice,0,15,1,1250,2,N,1,left,1.5264214520002497,1,0,,,,,,,,,,,,,,,,,,,,,1,,,,,,,,,,,,,,,,,,,,,,,,,,,,,,,,,,,,,,,,,,,,,,46,158845,19,Male,1,2024/02/12_08:52:12,YZ,60.020780514737325,
,,,,,,practice,0,15,1,1250,3,S,0,right,0.7881797369996093,1,0,,,,,,,,,,,,,,,,,,,,,1,,,,,,,,,,,,,,,,,,,,,,,,,,,,,,,,,,,,,,,,,,,,,,46,158845,19,Male,1,2024/02/12_08:52:12,YZ,60.020780514737325,
,,,,,,practice,0,15,1,1250,4,S,1,left,0.7951401179998356,1,0,,,,,,,,,,,,,,,,,,,,,1,,,,,,,,,,,,,,,,,,,,,,,,,,,,,,,,,,,,,,,,,,,,,,46,158845,19,Male,1,2024/02/12_08:52:12,YZ,60.020780514737325,
,,,,,,practice,0,15,1,1250,5,X,0,right,0.7392343980000078,1,0,,,,,,,,,,,,,,,,,,,,,1,,,,,,,,,,,,,,,,,,,,,,,,,,,,,,,,,,,,,,,,,,,,,,46,158845,19,Male,1,2024/02/12_08:52:12,YZ,60.020780514737325,
,,,,,,practice,0,15,1,1250,6,X,1,left,0.9247193860001062,1,0,,,,,,,,,,,,,,,,,,,,,1,,,,,,,,,,,,,,,,,,,,,,,,,,,,,,,,,,,,,,,,,,,,,,46,158845,19,Male,1,2024/02/12_08:52:12,YZ,60.020780514737325,
,,,,,,practice,0,15,1,1250,7,C,0,right,0.660115892000249,1,0,,,,,,,,,,,,,,,,,,,,,1,,,,,,,,,,,,,,,,,,,,,,,,,,,,,,,,,,,,,,,,,,,,,,46,158845,19,Male,1,2024/02/12_08:52:12,YZ,60.020780514737325,
,,,,,,practice,0,15,1,1250,8,J,0,right,0.6868223930000568,1,0,,,,,,,,,,,,,,,,,,,,,1,,,,,,,,,,,,,,,,,,,,,,,,,,,,,,,,,,,,,,,,,,,,,,46,158845,19,Male,1,2024/02/12_08:52:12,YZ,60.020780514737325,
,,,,,,practice,0,15,1,1250,9,S,0,right,0.6713116240002819,1,0,,,,,,,,,,,,,,,,,,,,,1,,,,,,,,,,,,,,,,,,,,,,,,,,,,,,,,,,,,,,,,,,,,,,46,158845,19,Male,1,2024/02/12_08:52:12,YZ,60.020780514737325,
,,,,,,practice,0,15,1,1250,10,J,0,right,0.6434151829998882,1,0,,,,,,,,,,,,,,,,,,,,,1,,,,,,,,,,,,,,,,,,,,,,,,,,,,,,,,,,,,,,,,,,,,,,46,158845,19,Male,1,2024/02/12_08:52:12,YZ,60.020780514737325,
,,,,,,practice,0,15,1,1250,,,,,,,,1.0,1.0,0.0,1.0,0.0,1.0,0.9687377057000048,3,0,0,0,0,7,10,3,7,0,,,,1,,,,,,,,,,,,,,,,,,,,,,,,,,,,,,,,,,,,,,,,,,,,,,46,158845,19,Male,1,2024/02/12_08:52:12,YZ,60.020780514737325,
1,./instructions/inst_prac_1_next/Slide35.png,right,1.3035631579996334,457.16510443000016,458.4686675879998,,,,,,,,,,,,,,,,,,,,,,,,,,,,,,,,,1,,,,,,,,,,,,,,,,,,,,,,,,,,,,,,,,,,,,,,,,,,,,,,46,158845,19,Male,1,2024/02/12_08:52:12,YZ,60.020780514737325,
,,,,,,practice,0,1,1,917,1,V,0,right,1.0378207300000213,1,0,,,,,,,,,,,,,,,,,,,,,1,,,,,,,,,,,,,,,,,,,,,,,,,,,,,,,,,,,,,,,,,,,,,,46,158845,19,Male,1,2024/02/12_08:52:12,YZ,60.020780514737325,
,,,,,,practice,0,1,1,917,2,V,1,left,0.6233403229998657,1,0,,,,,,,,,,,,,,,,,,,,,1,,,,,,,,,,,,,,,,,,,,,,,,,,,,,,,,,,,,,,,,,,,,,,46,158845,19,Male,1,2024/02/12_08:52:12,YZ,60.020780514737325,
,,,,,,practice,0,1,1,917,3,F,0,right,0.5089791939999486,1,0,,,,,,,,,,,,,,,,,,,,,1,,,,,,,,,,,,,,,,,,,,,,,,,,,,,,,,,,,,,,,,,,,,,,46,158845,19,Male,1,2024/02/12_08:52:12,YZ,60.020780514737325,
,,,,,,practice,0,1,1,917,4,V,0,right,0.8666707940001288,1,0,,,,,,,,,,,,,,,,,,,,,1,,,,,,,,,,,,,,,,,,,,,,,,,,,,,,,,,,,,,,,,,,,,,,46,158845,19,Male,1,2024/02/12_08:52:12,YZ,60.020780514737325,
,,,,,,practice,0,1,1,917,5,X,0,right,0.8270865760000561,1,0,,,,,,,,,,,,,,,,,,,,,1,,,,,,,,,,,,,,,,,,,,,,,,,,,,,,,,,,,,,,,,,,,,,,46,158845,19,Male,1,2024/02/12_08:52:12,YZ,60.020780514737325,
,,,,,,practice,0,1,1,917,6,X,1,left,0.6532633660003739,1,0,,,,,,,,,,,,,,,,,,,,,1,,,,,,,,,,,,,,,,,,,,,,,,,,,,,,,,,,,,,,,,,,,,,,46,158845,19,Male,1,2024/02/12_08:52:12,YZ,60.020780514737325,
,,,,,,practice,0,1,1,917,7,N,0,right,0.5052842589998363,1,0,,,,,,,,,,,,,,,,,,,,,1,,,,,,,,,,,,,,,,,,,,,,,,,,,,,,,,,,,,,,,,,,,,,,46,158845,19,Male,1,2024/02/12_08:52:12,YZ,60.020780514737325,
,,,,,,practice,0,1,1,917,8,N,1,left,0.6612523510002575,1,0,,,,,,,,,,,,,,,,,,,,,1,,,,,,,,,,,,,,,,,,,,,,,,,,,,,,,,,,,,,,,,,,,,,,46,158845,19,Male,1,2024/02/12_08:52:12,YZ,60.020780514737325,
,,,,,,practice,0,1,1,917,9,V,0,right,0.8498663880000095,1,0,,,,,,,,,,,,,,,,,,,,,1,,,,,,,,,,,,,,,,,,,,,,,,,,,,,,,,,,,,,,,,,,,,,,46,158845,19,Male,1,2024/02/12_08:52:12,YZ,60.020780514737325,
,,,,,,practice,0,1,1,917,10,S,0,right,0.5549902879997717,1,0,,,,,,,,,,,,,,,,,,,,,1,,,,,,,,,,,,,,,,,,,,,,,,,,,,,,,,,,,,,,,,,,,,,,46,158845,19,Male,1,2024/02/12_08:52:12,YZ,60.020780514737325,
,,,,,,practice,0,1,1,917,11,N,0,right,0.5578179720000662,1,0,,,,,,,,,,,,,,,,,,,,,1,,,,,,,,,,,,,,,,,,,,,,,,,,,,,,,,,,,,,,,,,,,,,,46,158845,19,Male,1,2024/02/12_08:52:12,YZ,60.020780514737325,
,,,,,,practice,0,1,1,917,12,X,0,right,0.5531879800000752,1,0,,,,,,,,,,,,,,,,,,,,,1,,,,,,,,,,,,,,,,,,,,,,,,,,,,,,,,,,,,,,,,,,,,,,46,158845,19,Male,1,2024/02/12_08:52:12,YZ,60.020780514737325,
,,,,,,practice,0,1,1,917,,,,,,,,1.0,1.0,0.0,1.0,0.0,1.0,0.6832966850833676,3,0,0,0,0,9,12,3,9,0,,,,1,,,,,,,,,,,,,,,,,,,,,,,,,,,,,,,,,,,,,,,,,,,,,,46,158845,19,Male,1,2024/02/12_08:52:12,YZ,60.020780514737325,
,,,,,,practice,0,11,1,917,1,C,0,right,0.6406563189998451,1,0,,,,,,,,,,,,,,,,,,,,,1,,,,,,,,,,,,,,,,,,,,,,,,,,,,,,,,,,,,,,,,,,,,,,46,158845,19,Male,1,2024/02/12_08:52:12,YZ,60.020780514737325,
,,,,,,practice,0,11,1,917,2,J,0,right,0.465790995000134,1,0,,,,,,,,,,,,,,,,,,,,,1,,,,,,,,,,,,,,,,,,,,,,,,,,,,,,,,,,,,,,,,,,,,,,46,158845,19,Male,1,2024/02/12_08:52:12,YZ,60.020780514737325,
,,,,,,practice,0,11,1,917,3,J,1,left,0.41154286699975273,1,0,,,,,,,,,,,,,,,,,,,,,1,,,,,,,,,,,,,,,,,,,,,,,,,,,,,,,,,,,,,,,,,,,,,,46,158845,19,Male,1,2024/02/12_08:52:12,YZ,60.020780514737325,
,,,,,,practice,0,11,1,917,4,X,0,right,0.5137560949997351,1,0,,,,,,,,,,,,,,,,,,,,,1,,,,,,,,,,,,,,,,,,,,,,,,,,,,,,,,,,,,,,,,,,,,,,46,158845,19,Male,1,2024/02/12_08:52:12,YZ,60.020780514737325,
,,,,,,practice,0,11,1,917,5,X,1,right,0.44143223199989734,0,0,,,,,,,,,,,,,,,,,,,,,1,,,,,,,,,,,,,,,,,,,,,,,,,,,,,,,,,,,,,,,,,,,,,,46,158845,19,Male,1,2024/02/12_08:52:12,YZ,60.020780514737325,
,,,,,,practice,0,11,1,917,6,N,0,right,0.7235702390003098,1,0,,,,,,,,,,,,,,,,,,,,,1,,,,,,,,,,,,,,,,,,,,,,,,,,,,,,,,,,,,,,,,,,,,,,46,158845,19,Male,1,2024/02/12_08:52:12,YZ,60.020780514737325,
,,,,,,practice,0,11,1,917,7,V,0,right,0.9411675759997706,1,0,,,,,,,,,,,,,,,,,,,,,1,,,,,,,,,,,,,,,,,,,,,,,,,,,,,,,,,,,,,,,,,,,,,,46,158845,19,Male,1,2024/02/12_08:52:12,YZ,60.020780514737325,
,,,,,,practice,0,11,1,917,8,V,1,right,1.187198676999742,0,0,,,,,,,,,,,,,,,,,,,,,1,,,,,,,,,,,,,,,,,,,,,,,,,,,,,,,,,,,,,,,,,,,,,,46,158845,19,Male,1,2024/02/12_08:52:12,YZ,60.020780514737325,
,,,,,,practice,0,11,1,917,9,F,0,right,0.5956736130001445,1,0,,,,,,,,,,,,,,,,,,,,,1,,,,,,,,,,,,,,,,,,,,,,,,,,,,,,,,,,,,,,,,,,,,,,46,158845,19,Male,1,2024/02/12_08:52:12,YZ,60.020780514737325,
,,,,,,practice,0,11,1,917,10,C,0,right,0.5486905370003115,1,0,,,,,,,,,,,,,,,,,,,,,1,,,,,,,,,,,,,,,,,,,,,,,,,,,,,,,,,,,,,,,,,,,,,,46,158845,19,Male,1,2024/02/12_08:52:12,YZ,60.020780514737325,
,,,,,,practice,0,11,1,917,11,V,0,right,0.7617016489998605,1,0,,,,,,,,,,,,,,,,,,,,,1,,,,,,,,,,,,,,,,,,,,,,,,,,,,,,,,,,,,,,,,,,,,,,46,158845,19,Male,1,2024/02/12_08:52:12,YZ,60.020780514737325,
,,,,,,practice,0,11,1,917,12,X,0,right,0.7612381889998687,1,0,,,,,,,,,,,,,,,,,,,,,1,,,,,,,,,,,,,,,,,,,,,,,,,,,,,,,,,,,,,,,,,,,,,,46,158845,19,Male,1,2024/02/12_08:52:12,YZ,60.020780514737325,
,,,,,,practice,0,11,1,917,,,,,,,,0.8333333333333334,0.3333333333333333,0.0,1.0,0.0,1.0,0.6660349156666143,1,0,0,0,0,9,10,3,9,0,,,,1,,,,,,,,,,,,,,,,,,,,,,,,,,,,,,,,,,,,,,,,,,,,,,46,158845,19,Male,1,2024/02/12_08:52:12,YZ,60.020780514737325,
1,./instructions/inst_prac_3/Slide37.png,right,1.2991925239998636,491.4413679439999,492.7405604679998,,,,,,,,,,,,,,,,,,,,,,,,,,,,,,,,,1,,,,,,,,,,,,,,,,,,,,,,,,,,,,,,,,,,,,,,,,,,,,,,46,158845,19,Male,1,2024/02/12_08:52:12,YZ,60.020780514737325,
2,./instructions/inst_prac_3/Slide38.png,right,2.1873528969999825,492.76929318400016,494.95664608100014,,,,,,,,,,,,,,,,,,,,,,,,,,,,,,,,,1,,,,,,,,,,,,,,,,,,,,,,,,,,,,,,,,,,,,,,,,,,,,,,46,158845,19,Male,1,2024/02/12_08:52:12,YZ,60.020780514737325,
3,./instructions/inst_prac_3/Slide39.png,right,0.5150662539999757,494.993311965,495.50837821899995,,,,,,,,,,,,,,,,,,,,,,,,,,,,,,,,,1,,,,,,,,,,,,,,,,,,,,,,,,,,,,,,,,,,,,,,,,,,,,,,46,158845,19,Male,1,2024/02/12_08:52:12,YZ,60.020780514737325,
4,./instructions/inst_prac_3/Slide40.png,right,0.4366533489996982,495.54393384000014,495.98058718899983,,,,,,,,,,,,,,,,,,,,,,,,,,,,,,,,,1,,,,,,,,,,,,,,,,,,,,,,,,,,,,,,,,,,,,,,,,,,,,,,46,158845,19,Male,1,2024/02/12_08:52:12,YZ,60.020780514737325,
5,./instructions/inst_prac_3/Slide41.png,right,0.44739916800017454,496.012954198,496.46035336600016,,,,,,,,,,,,,,,,,,,,,,,,,,,,,,,,,1,,,,,,,,,,,,,,,,,,,,,,,,,,,,,,,,,,,,,,,,,,,,,,46,158845,19,Male,1,2024/02/12_08:52:12,YZ,60.020780514737325,
6,./instructions/inst_prac_3/Slide42.png,right,0.4914479960002609,496.4891783379999,496.98062633400014,,,,,,,,,,,,,,,,,,,,,,,,,,,,,,,,,1,,,,,,,,,,,,,,,,,,,,,,,,,,,,,,,,,,,,,,,,,,,,,,46,158845,19,Male,1,2024/02/12_08:52:12,YZ,60.020780514737325,
7,./instructions/inst_prac_3/Slide43.png,right,0.823198025000238,497.0133506819998,497.836548707,,,,,,,,,,,,,,,,,,,,,,,,,,,,,,,,,1,,,,,,,,,,,,,,,,,,,,,,,,,,,,,,,,,,,,,,,,,,,,,,46,158845,19,Male,1,2024/02/12_08:52:12,YZ,60.020780514737325,
8,./instructions/inst_prac_3/Slide44.png,right,0.9910836890003338,497.8934608569998,498.88454454600014,,,,,,,,,,,,,,,,,,,,,,,,,,,,,,,,,1,,,,,,,,,,,,,,,,,,,,,,,,,,,,,,,,,,,,,,,,,,,,,,46,158845,19,Male,1,2024/02/12_08:52:12,YZ,60.020780514737325,
,,,,,,practice,0,14,3,788,1,V,0,right,0.623280485000123,1,0,,,,,,,,,,,,,,,,,,,,,1,,,,,,,,,,,,,,,,,,,,,,,,,,,,,,,,,,,,,,,,,,,,,,46,158845,19,Male,1,2024/02/12_08:52:12,YZ,60.020780514737325,
,,,,,,practice,0,14,3,788,2,N,0,right,0.7423200340003859,1,0,,,,,,,,,,,,,,,,,,,,,1,,,,,,,,,,,,,,,,,,,,,,,,,,,,,,,,,,,,,,,,,,,,,,46,158845,19,Male,1,2024/02/12_08:52:12,YZ,60.020780514737325,
,,,,,,practice,0,14,3,788,3,X,0,right,0.453012168999976,1,0,,,,,,,,,,,,,,,,,,,,,1,,,,,,,,,,,,,,,,,,,,,,,,,,,,,,,,,,,,,,,,,,,,,,46,158845,19,Male,1,2024/02/12_08:52:12,YZ,60.020780514737325,
,,,,,,practice,0,14,3,788,4,S,0,right,0.48533000900033585,1,0,,,,,,,,,,,,,,,,,,,,,1,,,,,,,,,,,,,,,,,,,,,,,,,,,,,,,,,,,,,,,,,,,,,,46,158845,19,Male,1,2024/02/12_08:52:12,YZ,60.020780514737325,
,,,,,,practice,0,14,3,788,5,S,0,right,4.4398322810002355,1,0,,,,,,,,,,,,,,,,,,,,,1,,,,,,,,,,,,,,,,,,,,,,,,,,,,,,,,,,,,,,,,,,,,,,46,158845,19,Male,1,2024/02/12_08:52:12,YZ,60.020780514737325,
,,,,,,practice,0,14,3,788,6,N,0,right,0.7824039850002009,1,0,,,,,,,,,,,,,,,,,,,,,1,,,,,,,,,,,,,,,,,,,,,,,,,,,,,,,,,,,,,,,,,,,,,,46,158845,19,Male,1,2024/02/12_08:52:12,YZ,60.020780514737325,
,,,,,,practice,0,14,3,788,7,N,0,right,1.036228987999948,1,0,,,,,,,,,,,,,,,,,,,,,1,,,,,,,,,,,,,,,,,,,,,,,,,,,,,,,,,,,,,,,,,,,,,,46,158845,19,Male,1,2024/02/12_08:52:12,YZ,60.020780514737325,
,,,,,,practice,0,14,3,788,8,S,1,left,1.168527085000278,1,0,,,,,,,,,,,,,,,,,,,,,1,,,,,,,,,,,,,,,,,,,,,,,,,,,,,,,,,,,,,,,,,,,,,,46,158845,19,Male,1,2024/02/12_08:52:12,YZ,60.020780514737325,
,,,,,,practice,0,14,3,788,9,N,1,left,0.9160735139998906,1,0,,,,,,,,,,,,,,,,,,,,,1,,,,,,,,,,,,,,,,,,,,,,,,,,,,,,,,,,,,,,,,,,,,,,46,158845,19,Male,1,2024/02/12_08:52:12,YZ,60.020780514737325,
,,,,,,practice,0,14,3,788,10,S,0,right,1.5479457189999266,1,0,,,,,,,,,,,,,,,,,,,,,1,,,,,,,,,,,,,,,,,,,,,,,,,,,,,,,,,,,,,,,,,,,,,,46,158845,19,Male,1,2024/02/12_08:52:12,YZ,60.020780514737325,
,,,,,,practice,0,14,3,788,11,Q,0,right,0.6530302510000183,1,0,,,,,,,,,,,,,,,,,,,,,1,,,,,,,,,,,,,,,,,,,,,,,,,,,,,,,,,,,,,,,,,,,,,,46,158845,19,Male,1,2024/02/12_08:52:12,YZ,60.020780514737325,
,,,,,,practice,0,14,3,788,12,N,1,left,0.854513241999939,1,0,,,,,,,,,,,,,,,,,,,,,1,,,,,,,,,,,,,,,,,,,,,,,,,,,,,,,,,,,,,,,,,,,,,,46,158845,19,Male,1,2024/02/12_08:52:12,YZ,60.020780514737325,
,,,,,,practice,0,14,3,788,13,S,1,left,0.9002983189998304,1,0,,,,,,,,,,,,,,,,,,,,,1,,,,,,,,,,,,,,,,,,,,,,,,,,,,,,,,,,,,,,,,,,,,,,46,158845,19,Male,1,2024/02/12_08:52:12,YZ,60.020780514737325,
,,,,,,practice,0,14,3,788,,,,,,,,1.0,1.0,0.0,1.0,0.0,1.0,1.123292006230853,4,0,0,0,0,9,13,4,9,0,,,,1,,,,,,,,,,,,,,,,,,,,,,,,,,,,,,,,,,,,,,,,,,,,,,46,158845,19,Male,1,2024/02/12_08:52:12,YZ,60.020780514737325,
1,./instructions/inst_prac_3_next/Slide49.png,right,0.9698259350002445,527.2507734149999,528.2205993500002,,,,,,,,,,,,,,,,,,,,,,,,,,,,,,,,,1,,,,,,,,,,,,,,,,,,,,,,,,,,,,,,,,,,,,,,,,,,,,,,46,158845,19,Male,1,2024/02/12_08:52:12,YZ,60.020780514737325,
,,,,,,practice,0,31,3,917,1,F,0,right,0.6079209650001758,1,0,,,,,,,,,,,,,,,,,,,,,1,,,,,,,,,,,,,,,,,,,,,,,,,,,,,,,,,,,,,,,,,,,,,,46,158845,19,Male,1,2024/02/12_08:52:12,YZ,60.020780514737325,
,,,,,,practice,0,31,3,917,2,X,0,right,0.5376208419997965,1,0,,,,,,,,,,,,,,,,,,,,,1,,,,,,,,,,,,,,,,,,,,,,,,,,,,,,,,,,,,,,,,,,,,,,46,158845,19,Male,1,2024/02/12_08:52:12,YZ,60.020780514737325,
,,,,,,practice,0,31,3,917,3,J,0,right,0.7073989810000967,1,0,,,,,,,,,,,,,,,,,,,,,1,,,,,,,,,,,,,,,,,,,,,,,,,,,,,,,,,,,,,,,,,,,,,,46,158845,19,Male,1,2024/02/12_08:52:12,YZ,60.020780514737325,
,,,,,,practice,0,31,3,917,4,F,1,left,0.4657337009998628,1,0,,,,,,,,,,,,,,,,,,,,,1,,,,,,,,,,,,,,,,,,,,,,,,,,,,,,,,,,,,,,,,,,,,,,46,158845,19,Male,1,2024/02/12_08:52:12,YZ,60.020780514737325,
,,,,,,practice,0,31,3,917,5,X,1,right,0.623316899999736,0,0,,,,,,,,,,,,,,,,,,,,,1,,,,,,,,,,,,,,,,,,,,,,,,,,,,,,,,,,,,,,,,,,,,,,46,158845,19,Male,1,2024/02/12_08:52:12,YZ,60.020780514737325,
,,,,,,practice,0,31,3,917,6,N,0,right,0.7881028279998645,1,0,,,,,,,,,,,,,,,,,,,,,1,,,,,,,,,,,,,,,,,,,,,,,,,,,,,,,,,,,,,,,,,,,,,,46,158845,19,Male,1,2024/02/12_08:52:12,YZ,60.020780514737325,
,,,,,,practice,0,31,3,917,7,F,1,left,0.8047086040000977,1,0,,,,,,,,,,,,,,,,,,,,,1,,,,,,,,,,,,,,,,,,,,,,,,,,,,,,,,,,,,,,,,,,,,,,46,158845,19,Male,1,2024/02/12_08:52:12,YZ,60.020780514737325,
,,,,,,practice,0,31,3,917,8,C,0,right,1.617647240000224,1,0,,,,,,,,,,,,,,,,,,,,,1,,,,,,,,,,,,,,,,,,,,,,,,,,,,,,,,,,,,,,,,,,,,,,46,158845,19,Male,1,2024/02/12_08:52:12,YZ,60.020780514737325,
,,,,,,practice,0,31,3,917,9,J,0,right,1.8193897000001016,1,0,,,,,,,,,,,,,,,,,,,,,1,,,,,,,,,,,,,,,,,,,,,,,,,,,,,,,,,,,,,,,,,,,,,,46,158845,19,Male,1,2024/02/12_08:52:12,YZ,60.020780514737325,
,,,,,,practice,0,31,3,917,10,J,0,right,1.1471884439997666,1,0,,,,,,,,,,,,,,,,,,,,,1,,,,,,,,,,,,,,,,,,,,,,,,,,,,,,,,,,,,,,,,,,,,,,46,158845,19,Male,1,2024/02/12_08:52:12,YZ,60.020780514737325,
,,,,,,practice,0,31,3,917,11,S,0,right,0.8147477890001937,1,0,,,,,,,,,,,,,,,,,,,,,1,,,,,,,,,,,,,,,,,,,,,,,,,,,,,,,,,,,,,,,,,,,,,,46,158845,19,Male,1,2024/02/12_08:52:12,YZ,60.020780514737325,
,,,,,,practice,0,31,3,917,12,X,0,right,0.7697051149998515,1,0,,,,,,,,,,,,,,,,,,,,,1,,,,,,,,,,,,,,,,,,,,,,,,,,,,,,,,,,,,,,,,,,,,,,46,158845,19,Male,1,2024/02/12_08:52:12,YZ,60.020780514737325,
,,,,,,practice,0,31,3,917,,,,,,,,0.9166666666666666,0.6666666666666666,0.0,1.0,0.0,1.0,0.891956759083314,2,0,0,0,0,9,11,3,9,0,,,,1,,,,,,,,,,,,,,,,,,,,,,,,,,,,,,,,,,,,,,,,,,,,,,46,158845,19,Male,1,2024/02/12_08:52:12,YZ,60.020780514737325,
,,,,,,practice,0,8,3,917,1,Q,0,right,0.8213040830000864,1,0,,,,,,,,,,,,,,,,,,,,,1,,,,,,,,,,,,,,,,,,,,,,,,,,,,,,,,,,,,,,,,,,,,,,46,158845,19,Male,1,2024/02/12_08:52:12,YZ,60.020780514737325,
,,,,,,practice,0,8,3,917,2,Q,0,right,0.9862890800000059,1,0,,,,,,,,,,,,,,,,,,,,,1,,,,,,,,,,,,,,,,,,,,,,,,,,,,,,,,,,,,,,,,,,,,,,46,158845,19,Male,1,2024/02/12_08:52:12,YZ,60.020780514737325,
,,,,,,practice,0,8,3,917,3,X,0,right,0.869289561000187,1,0,,,,,,,,,,,,,,,,,,,,,1,,,,,,,,,,,,,,,,,,,,,,,,,,,,,,,,,,,,,,,,,,,,,,46,158845,19,Male,1,2024/02/12_08:52:12,YZ,60.020780514737325,
,,,,,,practice,0,8,3,917,4,N,0,right,0.7050111499997911,1,0,,,,,,,,,,,,,,,,,,,,,1,,,,,,,,,,,,,,,,,,,,,,,,,,,,,,,,,,,,,,,,,,,,,,46,158845,19,Male,1,2024/02/12_08:52:12,YZ,60.020780514737325,
,,,,,,practice,0,8,3,917,5,S,0,right,0.5875742870002796,1,0,,,,,,,,,,,,,,,,,,,,,1,,,,,,,,,,,,,,,,,,,,,,,,,,,,,,,,,,,,,,,,,,,,,,46,158845,19,Male,1,2024/02/12_08:52:12,YZ,60.020780514737325,
,,,,,,practice,0,8,3,917,6,S,0,right,1.0511214389998713,1,0,,,,,,,,,,,,,,,,,,,,,1,,,,,,,,,,,,,,,,,,,,,,,,,,,,,,,,,,,,,,,,,,,,,,46,158845,19,Male,1,2024/02/12_08:52:12,YZ,60.020780514737325,
,,,,,,practice,0,8,3,917,7,N,1,left,0.6299738049997359,1,0,,,,,,,,,,,,,,,,,,,,,1,,,,,,,,,,,,,,,,,,,,,,,,,,,,,,,,,,,,,,,,,,,,,,46,158845,19,Male,1,2024/02/12_08:52:12,YZ,60.020780514737325,
,,,,,,practice,0,8,3,917,8,C,0,left,1.1081999179996274,0,0,,,,,,,,,,,,,,,,,,,,,1,,,,,,,,,,,,,,,,,,,,,,,,,,,,,,,,,,,,,,,,,,,,,,46,158845,19,Male,1,2024/02/12_08:52:12,YZ,60.020780514737325,
,,,,,,practice,0,8,3,917,9,V,0,right,0.6605008380001891,1,0,,,,,,,,,,,,,,,,,,,,,1,,,,,,,,,,,,,,,,,,,,,,,,,,,,,,,,,,,,,,,,,,,,,,46,158845,19,Male,1,2024/02/12_08:52:12,YZ,60.020780514737325,
,,,,,,practice,0,8,3,917,10,N,1,left,1.2099894190000668,1,0,,,,,,,,,,,,,,,,,,,,,1,,,,,,,,,,,,,,,,,,,,,,,,,,,,,,,,,,,,,,,,,,,,,,46,158845,19,Male,1,2024/02/12_08:52:12,YZ,60.020780514737325,
,,,,,,practice,0,8,3,917,11,C,1,right,0.29159588700031236,0,0,,,,,,,,,,,,,,,,,,,,,1,,,,,,,,,,,,,,,,,,,,,,,,,,,,,,,,,,,,,,,,,,,,,,46,158845,19,Male,1,2024/02/12_08:52:12,YZ,60.020780514737325,
,,,,,,practice,0,8,3,917,12,F,0,right,0.8841455910001059,1,0,,,,,,,,,,,,,,,,,,,,,1,,,,,,,,,,,,,,,,,,,,,,,,,,,,,,,,,,,,,,,,,,,,,,46,158845,19,Male,1,2024/02/12_08:52:12,YZ,60.020780514737325,
,,,,,,practice,0,8,3,917,,,,,,,,0.8518518518518517,0.6666666666666666,0.1111111111111111,0.8888888888888888,0.0,0.8888888888888888,0.8170829215000216,2,1,0,0,0,8,10,3,9,0,,,,1,,,,,,,,,,,,,,,,,,,,,,,,,,,,,,,,,,,,,,,,,,,,,,46,158845,19,Male,1,2024/02/12_08:52:12,YZ,60.020780514737325,
1,./instructions/inst_prac_main/Slide51.png,right,1.7520946260001438,565.5084482319999,567.260542858,,,,,,,,,,,,,,,,,,,,,,,,,,,,,,,,,1,,,,,,,,,,,,,,,,,,,,,,,,,,,,,,,,,,,,,,,,,,,,,,46,158845,19,Male,1,2024/02/12_08:52:12,YZ,60.020780514737325,
2,./instructions/inst_prac_main/Slide52.png,right,8.62052919100006,567.2959105129999,575.9164397039999,,,,,,,,,,,,,,,,,,,,,,,,,,,,,,,,,1,,,,,,,,,,,,,,,,,,,,,,,,,,,,,,,,,,,,,,,,,,,,,,46,158845,19,Male,1,2024/02/12_08:52:12,YZ,60.020780514737325,
1,./instructions/inst_prac_main/Slide53.png,left,6.12780086399971,575.9648814460002,582.0926823099999,,,,,,,,,,,,,,,,,,,,,,,,,,,,,,,,,1,,,,,,,,,,,,,,,,,,,,,,,,,,,,,,,,,,,,,,,,,,,,,,46,158845,19,Male,1,2024/02/12_08:52:12,YZ,60.020780514737325,
0,./instructions/inst_prac_main/Slide52.png,left,0.20068759800005864,582.1253403179999,582.3260279159999,,,,,,,,,,,,,,,,,,,,,,,,,,,,,,,,,1,,,,,,,,,,,,,,,,,,,,,,,,,,,,,,,,,,,,,,,,,,,,,,46,158845,19,Male,1,2024/02/12_08:52:12,YZ,60.020780514737325,
-1,./instructions/inst_prac_main/Slide51.png,left,0.20043612300014502,582.349697015,582.5501331380001,,,,,,,,,,,,,,,,,,,,,,,,,,,,,,,,,1,,,,,,,,,,,,,,,,,,,,,,,,,,,,,,,,,,,,,,,,,,,,,,46,158845,19,Male,1,2024/02/12_08:52:12,YZ,60.020780514737325,
-2,./instructions/inst_prac_main/Slide54.png,left,0.2007226460000311,582.5927331190001,582.7934557650001,,,,,,,,,,,,,,,,,,,,,,,,,,,,,,,,,1,,,,,,,,,,,,,,,,,,,,,,,,,,,,,,,,,,,,,,,,,,,,,,46,158845,19,Male,1,2024/02/12_08:52:12,YZ,60.020780514737325,
-3,./instructions/inst_prac_main/Slide53.png,left,0.2005046190001849,582.8217035329999,583.0222081520001,,,,,,,,,,,,,,,,,,,,,,,,,,,,,,,,,1,,,,,,,,,,,,,,,,,,,,,,,,,,,,,,,,,,,,,,,,,,,,,,46,158845,19,Male,1,2024/02/12_08:52:12,YZ,60.020780514737325,
-4,./instructions/inst_prac_main/Slide52.png,left,0.2004064190000463,583.0514823539997,583.2518887729998,,,,,,,,,,,,,,,,,,,,,,,,,,,,,,,,,1,,,,,,,,,,,,,,,,,,,,,,,,,,,,,,,,,,,,,,,,,,,,,,46,158845,19,Male,1,2024/02/12_08:52:12,YZ,60.020780514737325,
,,,,,,practice_main,0,1,1,917,1,V,0,right,0.8047491360002823,1,0,,,,,,,,,,,,,,,,,,,,,1,,,,,,,,,,,,,,,,,,,,,,,,,,,,,,,,,,,,,,,,,,,,,,46,158845,19,Male,1,2024/02/12_08:52:12,YZ,60.020780514737325,
,,,,,,practice_main,0,1,1,917,2,V,1,right,0.6464082309998957,0,0,,,,,,,,,,,,,,,,,,,,,1,,,,,,,,,,,,,,,,,,,,,,,,,,,,,,,,,,,,,,,,,,,,,,46,158845,19,Male,1,2024/02/12_08:52:12,YZ,60.020780514737325,
,,,,,,practice_main,0,1,1,917,3,F,0,right,0.38943612900038715,1,0,,,,,,,,,,,,,,,,,,,,,1,,,,,,,,,,,,,,,,,,,,,,,,,,,,,,,,,,,,,,,,,,,,,,46,158845,19,Male,1,2024/02/12_08:52:12,YZ,60.020780514737325,
,,,,,,practice_main,0,1,1,917,4,V,0,right,1.936666766000144,1,0,,,,,,,,,,,,,,,,,,,,,1,,,,,,,,,,,,,,,,,,,,,,,,,,,,,,,,,,,,,,,,,,,,,,46,158845,19,Male,1,2024/02/12_08:52:12,YZ,60.020780514737325,
,,,,,,practice_main,0,1,1,917,5,X,0,right,0.6276308679998692,1,0,,,,,,,,,,,,,,,,,,,,,1,,,,,,,,,,,,,,,,,,,,,,,,,,,,,,,,,,,,,,,,,,,,,,46,158845,19,Male,1,2024/02/12_08:52:12,YZ,60.020780514737325,
,,,,,,practice_main,0,1,1,917,6,X,1,right,0.6265675829999964,0,0,,,,,,,,,,,,,,,,,,,,,1,,,,,,,,,,,,,,,,,,,,,,,,,,,,,,,,,,,,,,,,,,,,,,46,158845,19,Male,1,2024/02/12_08:52:12,YZ,60.020780514737325,
,,,,,,practice_main,0,1,1,917,7,N,0,right,0.7577661959999205,1,0,,,,,,,,,,,,,,,,,,,,,1,,,,,,,,,,,,,,,,,,,,,,,,,,,,,,,,,,,,,,,,,,,,,,46,158845,19,Male,1,2024/02/12_08:52:12,YZ,60.020780514737325,
,,,,,,practice_main,0,1,1,917,8,N,1,right,0.4683644810002079,0,0,,,,,,,,,,,,,,,,,,,,,1,,,,,,,,,,,,,,,,,,,,,,,,,,,,,,,,,,,,,,,,,,,,,,46,158845,19,Male,1,2024/02/12_08:52:12,YZ,60.020780514737325,
,,,,,,practice_main,0,1,1,917,9,V,0,right,0.35654115899978933,1,0,,,,,,,,,,,,,,,,,,,,,1,,,,,,,,,,,,,,,,,,,,,,,,,,,,,,,,,,,,,,,,,,,,,,46,158845,19,Male,1,2024/02/12_08:52:12,YZ,60.020780514737325,
,,,,,,practice_main,0,1,1,917,10,S,0,right,0.03790330999981961,1,0,,,,,,,,,,,,,,,,,,,,,1,,,,,,,,,,,,,,,,,,,,,,,,,,,,,,,,,,,,,,,,,,,,,,46,158845,19,Male,1,2024/02/12_08:52:12,YZ,60.020780514737325,
,,,,,,practice_main,0,1,1,917,11,N,0,right,0.03088795499979824,1,0,,,,,,,,,,,,,,,,,,,,,1,,,,,,,,,,,,,,,,,,,,,,,,,,,,,,,,,,,,,,,,,,,,,,46,158845,19,Male,1,2024/02/12_08:52:12,YZ,60.020780514737325,
,,,,,,practice_main,0,1,1,917,12,X,0,right,0.0,1,0,,,,,,,,,,,,,,,,,,,,,1,,,,,,,,,,,,,,,,,,,,,,,,,,,,,,,,,,,,,,,,,,,,,,46,158845,19,Male,1,2024/02/12_08:52:12,YZ,60.020780514737325,
,,,,,,practice_main,0,1,1,917,,,,,,,,0.5,0.0,0.0,1.0,0.0,1.0,0.5569101511666759,0,0,0,0,0,9,9,3,9,0,,,,1,,,,,,,,,,,,,,,,,,,,,,,,,,,,,,,,,,,,,,,,,,,,,,46,158845,19,Male,1,2024/02/12_08:52:12,YZ,60.020780514737325,
,,,,,240212_091002,PRACTICE,0,1,1,917,,,,,,,,,,,,,,,,,,,,,,,,,,,,1,17,2,1,cue2.png,easy,B,54,1.6862598600000638,0,594.6402180079999,596.3483217809999,,,,,,,,,,,,,,,,,,,,,,,,,,,,,,,,,,,46,158845,19,Male,1,2024/02/12_08:52:12,YZ,60.020780514737325,
,,,,,,practice_main,0,2,3,917,1,X,0,right,0.7246754660000079,1,0,,,,,,,,,,,,,,,,,,,,,1,,,,,,,,,,,,,,,,,,,,,,,,,,,,,,,,,,,,,,,,,,,,,,46,158845,19,Male,1,2024/02/12_08:52:12,YZ,60.020780514737325,
,,,,,,practice_main,0,2,3,917,2,X,0,right,0.6090211050000107,1,0,,,,,,,,,,,,,,,,,,,,,1,,,,,,,,,,,,,,,,,,,,,,,,,,,,,,,,,,,,,,,,,,,,,,46,158845,19,Male,1,2024/02/12_08:52:12,YZ,60.020780514737325,
,,,,,,practice_main,0,2,3,917,3,F,0,right,0.40750005900008546,1,0,,,,,,,,,,,,,,,,,,,,,1,,,,,,,,,,,,,,,,,,,,,,,,,,,,,,,,,,,,,,,,,,,,,,46,158845,19,Male,1,2024/02/12_08:52:12,YZ,60.020780514737325,
,,,,,,practice_main,0,2,3,917,4,J,0,right,0.5587997839998025,1,0,,,,,,,,,,,,,,,,,,,,,1,,,,,,,,,,,,,,,,,,,,,,,,,,,,,,,,,,,,,,,,,,,,,,46,158845,19,Male,1,2024/02/12_08:52:12,YZ,60.020780514737325,
,,,,,,practice_main,0,2,3,917,5,F,0,right,0.6784139800001867,1,0,,,,,,,,,,,,,,,,,,,,,1,,,,,,,,,,,,,,,,,,,,,,,,,,,,,,,,,,,,,,,,,,,,,,46,158845,19,Male,1,2024/02/12_08:52:12,YZ,60.020780514737325,
,,,,,,practice_main,0,2,3,917,6,J,0,right,0.6252947980001409,1,0,,,,,,,,,,,,,,,,,,,,,1,,,,,,,,,,,,,,,,,,,,,,,,,,,,,,,,,,,,,,,,,,,,,,46,158845,19,Male,1,2024/02/12_08:52:12,YZ,60.020780514737325,
,,,,,,practice_main,0,2,3,917,7,C,0,right,0.5420418369999425,1,0,,,,,,,,,,,,,,,,,,,,,1,,,,,,,,,,,,,,,,,,,,,,,,,,,,,,,,,,,,,,,,,,,,,,46,158845,19,Male,1,2024/02/12_08:52:12,YZ,60.020780514737325,
,,,,,,practice_main,0,2,3,917,8,F,1,right,0.429592373000105,0,0,,,,,,,,,,,,,,,,,,,,,1,,,,,,,,,,,,,,,,,,,,,,,,,,,,,,,,,,,,,,,,,,,,,,46,158845,19,Male,1,2024/02/12_08:52:12,YZ,60.020780514737325,
,,,,,,practice_main,0,2,3,917,9,X,0,right,0.34540558400021837,1,0,,,,,,,,,,,,,,,,,,,,,1,,,,,,,,,,,,,,,,,,,,,,,,,,,,,,,,,,,,,,,,,,,,,,46,158845,19,Male,1,2024/02/12_08:52:12,YZ,60.020780514737325,
,,,,,,practice_main,0,2,3,917,10,X,0,right,0.2541906750002454,1,0,,,,,,,,,,,,,,,,,,,,,1,,,,,,,,,,,,,,,,,,,,,,,,,,,,,,,,,,,,,,,,,,,,,,46,158845,19,Male,1,2024/02/12_08:52:12,YZ,60.020780514737325,
,,,,,,practice_main,0,2,3,917,11,F,1,left,0.0627368049999859,1,0,,,,,,,,,,,,,,,,,,,,,1,,,,,,,,,,,,,,,,,,,,,,,,,,,,,,,,,,,,,,,,,,,,,,46,158845,19,Male,1,2024/02/12_08:52:12,YZ,60.020780514737325,
,,,,,,practice_main,0,2,3,917,12,X,1,right,0.0005155509998076013,0,0,,,,,,,,,,,,,,,,,,,,,1,,,,,,,,,,,,,,,,,,,,,,,,,,,,,,,,,,,,,,,,,,,,,,46,158845,19,Male,1,2024/02/12_08:52:12,YZ,60.020780514737325,
,,,,,,practice_main,0,2,3,917,,,,,,,,0.8333333333333334,0.3333333333333333,0.0,1.0,0.0,1.0,0.4365156680833782,1,0,0,0,0,9,10,3,9,0,,,,1,,,,,,,,,,,,,,,,,,,,,,,,,,,,,,,,,,,,,,,,,,,,,,46,158845,19,Male,1,2024/02/12_08:52:12,YZ,60.020780514737325,
,,,,,240212_091032,PRACTICE,0,2,3,917,,,,,,,,,,,,,,,,,,,,,,,,,,,,1,22,4,2,cue1.png,hard,B,31,1.4846972519999326,0,626.647589829,628.153372323,,,,,,,,,,,,,,,,,,,,,,,,,,,,,,,,,,,46,158845,19,Male,1,2024/02/12_08:52:12,YZ,60.020780514737325,
,,,,,,practice_main,0,3,1,917,1,N,0,right,1.055160660999718,1,0,,,,,,,,,,,,,,,,,,,,,1,,,,,,,,,,,,,,,,,,,,,,,,,,,,,,,,,,,,,,,,,,,,,,46,158845,19,Male,1,2024/02/12_08:52:12,YZ,60.020780514737325,
,,,,,,practice_main,0,3,1,917,2,C,0,right,0.6548039399999652,1,0,,,,,,,,,,,,,,,,,,,,,1,,,,,,,,,,,,,,,,,,,,,,,,,,,,,,,,,,,,,,,,,,,,,,46,158845,19,Male,1,2024/02/12_08:52:12,YZ,60.020780514737325,
,,,,,,practice_main,0,3,1,917,3,C,1,left,0.5600638939999953,1,0,,,,,,,,,,,,,,,,,,,,,1,,,,,,,,,,,,,,,,,,,,,,,,,,,,,,,,,,,,,,,,,,,,,,46,158845,19,Male,1,2024/02/12_08:52:12,YZ,60.020780514737325,
,,,,,,practice_main,0,3,1,917,4,J,0,right,0.3984709549999934,1,0,,,,,,,,,,,,,,,,,,,,,1,,,,,,,,,,,,,,,,,,,,,,,,,,,,,,,,,,,,,,,,,,,,,,46,158845,19,Male,1,2024/02/12_08:52:12,YZ,60.020780514737325,
,,,,,,practice_main,0,3,1,917,5,J,1,left,0.45147820500005764,1,0,,,,,,,,,,,,,,,,,,,,,1,,,,,,,,,,,,,,,,,,,,,,,,,,,,,,,,,,,,,,,,,,,,,,46,158845,19,Male,1,2024/02/12_08:52:12,YZ,60.020780514737325,
,,,,,,practice_main,0,3,1,917,6,S,0,right,0.48276748599982966,1,0,,,,,,,,,,,,,,,,,,,,,1,,,,,,,,,,,,,,,,,,,,,,,,,,,,,,,,,,,,,,,,,,,,,,46,158845,19,Male,1,2024/02/12_08:52:12,YZ,60.020780514737325,
,,,,,,practice_main,0,3,1,917,7,S,1,left,0.6144320020002851,1,0,,,,,,,,,,,,,,,,,,,,,1,,,,,,,,,,,,,,,,,,,,,,,,,,,,,,,,,,,,,,,,,,,,,,46,158845,19,Male,1,2024/02/12_08:52:12,YZ,60.020780514737325,
,,,,,,practice_main,0,3,1,917,8,C,0,right,0.5224058150001838,1,0,,,,,,,,,,,,,,,,,,,,,1,,,,,,,,,,,,,,,,,,,,,,,,,,,,,,,,,,,,,,,,,,,,,,46,158845,19,Male,1,2024/02/12_08:52:12,YZ,60.020780514737325,
,,,,,,practice_main,0,3,1,917,9,Q,0,right,0.547913929999595,1,0,,,,,,,,,,,,,,,,,,,,,1,,,,,,,,,,,,,,,,,,,,,,,,,,,,,,,,,,,,,,,,,,,,,,46,158845,19,Male,1,2024/02/12_08:52:12,YZ,60.020780514737325,
,,,,,,practice_main,0,3,1,917,10,S,0,right,0.4439699129998189,1,0,,,,,,,,,,,,,,,,,,,,,1,,,,,,,,,,,,,,,,,,,,,,,,,,,,,,,,,,,,,,,,,,,,,,46,158845,19,Male,1,2024/02/12_08:52:12,YZ,60.020780514737325,
,,,,,,practice_main,0,3,1,917,11,F,0,right,0.4160572509999838,1,0,,,,,,,,,,,,,,,,,,,,,1,,,,,,,,,,,,,,,,,,,,,,,,,,,,,,,,,,,,,,,,,,,,,,46,158845,19,Male,1,2024/02/12_08:52:12,YZ,60.020780514737325,
,,,,,,practice_main,0,3,1,917,12,C,0,right,0.5329692949999298,1,0,,,,,,,,,,,,,,,,,,,,,1,,,,,,,,,,,,,,,,,,,,,,,,,,,,,,,,,,,,,,,,,,,,,,46,158845,19,Male,1,2024/02/12_08:52:12,YZ,60.020780514737325,
,,,,,,practice_main,0,3,1,917,,,,,,,,1.0,1.0,0.0,1.0,0.0,1.0,0.5567077789166129,3,0,0,0,0,9,12,3,9,0,,,,1,,,,,,,,,,,,,,,,,,,,,,,,,,,,,,,,,,,,,,,,,,,,,,46,158845,19,Male,1,2024/02/12_08:52:12,YZ,60.020780514737325,
,,,,,240212_091104,PRACTICE,0,3,1,917,,,,,,,,,,,,,,,,,,,,,,,,,,,,1,38,6,3,cue2.png,easy,B,55,0.9476858890002404,0,656.9863568209998,657.9586879899998,,,,,,,,,,,,,,,,,,,,,,,,,,,,,,,,,,,46,158845,19,Male,1,2024/02/12_08:52:12,YZ,60.020780514737325,
1,./instructions/inst_prac_end/Slide56.png,right,23.71945499499998,678.717126039,702.436581034,,,,,,,,,,,,,,,,,,,,,,,,,,,,,,,,,1,,,,,,,,,,,,,,,,,,,,,,,,,,,,,,,,,,,,,,,,,,,,,,46,158845,19,Male,1,2024/02/12_08:52:12,YZ,60.020780514737325,
1,./instructions/inst_test/Slide57.png,right,29.604535626999677,702.5442301140001,732.1487657409998,,,,,,,,,,,,,,,,,,,,,,,,,,,,,,,,,1,,,,,,,,,,,,,,,,,,,,,,,,,,,,,,,,,,,,,,,,,,,,,,46,158845,19,Male,1,2024/02/12_08:52:12,YZ,60.020780514737325,
,,,,,,test,1,1,1,917,1,N,0,right,1.523482094999963,1,0,,,,,,,,,,,,,,,,,,,,,1,,,,,,,,,,,,,,,,,,,,,,,,,,,,,,,,,,,,,,,,,,,,,,46,158845,19,Male,1,2024/02/12_08:52:12,YZ,60.020780514737325,
,,,,,,test,1,1,1,917,2,V,0,right,0.608715170999858,1,0,,,,,,,,,,,,,,,,,,,,,1,,,,,,,,,,,,,,,,,,,,,,,,,,,,,,,,,,,,,,,,,,,,,,46,158845,19,Male,1,2024/02/12_08:52:12,YZ,60.020780514737325,
,,,,,,test,1,1,1,917,3,V,1,left,0.5329809969998678,1,0,,,,,,,,,,,,,,,,,,,,,1,,,,,,,,,,,,,,,,,,,,,,,,,,,,,,,,,,,,,,,,,,,,,,46,158845,19,Male,1,2024/02/12_08:52:12,YZ,60.020780514737325,
,,,,,,test,1,1,1,917,4,F,0,right,0.43507711299980656,1,0,,,,,,,,,,,,,,,,,,,,,1,,,,,,,,,,,,,,,,,,,,,,,,,,,,,,,,,,,,,,,,,,,,,,46,158845,19,Male,1,2024/02/12_08:52:12,YZ,60.020780514737325,
,,,,,,test,1,1,1,917,5,Q,0,right,0.37350904200002333,1,0,,,,,,,,,,,,,,,,,,,,,1,,,,,,,,,,,,,,,,,,,,,,,,,,,,,,,,,,,,,,,,,,,,,,46,158845,19,Male,1,2024/02/12_08:52:12,YZ,60.020780514737325,
,,,,,,test,1,1,1,917,6,N,0,right,0.4979436900002838,1,0,,,,,,,,,,,,,,,,,,,,,1,,,,,,,,,,,,,,,,,,,,,,,,,,,,,,,,,,,,,,,,,,,,,,46,158845,19,Male,1,2024/02/12_08:52:12,YZ,60.020780514737325,
,,,,,,test,1,1,1,917,7,C,0,right,0.4264192450000337,1,0,,,,,,,,,,,,,,,,,,,,,1,,,,,,,,,,,,,,,,,,,,,,,,,,,,,,,,,,,,,,,,,,,,,,46,158845,19,Male,1,2024/02/12_08:52:12,YZ,60.020780514737325,
,,,,,,test,1,1,1,917,8,C,1,left,0.5771912109998993,1,0,,,,,,,,,,,,,,,,,,,,,1,,,,,,,,,,,,,,,,,,,,,,,,,,,,,,,,,,,,,,,,,,,,,,46,158845,19,Male,1,2024/02/12_08:52:12,YZ,60.020780514737325,
,,,,,,test,1,1,1,917,9,F,0,right,0.4038975019998361,1,0,,,,,,,,,,,,,,,,,,,,,1,,,,,,,,,,,,,,,,,,,,,,,,,,,,,,,,,,,,,,,,,,,,,,46,158845,19,Male,1,2024/02/12_08:52:12,YZ,60.020780514737325,
,,,,,,test,1,1,1,917,10,N,0,right,0.42115433999970264,1,0,,,,,,,,,,,,,,,,,,,,,1,,,,,,,,,,,,,,,,,,,,,,,,,,,,,,,,,,,,,,,,,,,,,,46,158845,19,Male,1,2024/02/12_08:52:12,YZ,60.020780514737325,
,,,,,,test,1,1,1,917,11,Q,0,right,0.4854940190002708,1,0,,,,,,,,,,,,,,,,,,,,,1,,,,,,,,,,,,,,,,,,,,,,,,,,,,,,,,,,,,,,,,,,,,,,46,158845,19,Male,1,2024/02/12_08:52:12,YZ,60.020780514737325,
,,,,,,test,1,1,1,917,12,Q,1,left,0.41273440499981007,1,0,,,,,,,,,,,,,,,,,,,,,1,,,,,,,,,,,,,,,,,,,,,,,,,,,,,,,,,,,,,,,,,,,,,,46,158845,19,Male,1,2024/02/12_08:52:12,YZ,60.020780514737325,
,,,,,,Test,1,1,1,917,,,,,,,,1.0,1.0,0.0,1.0,0.0,1.0,0.5582165691666129,3,0,0,0,0,9,12,3,9,0,,,,1,,,,,,,,,,,,,,,,,,,,,,,,,,,,,,,,,,,,,,,,,,,,,,46,158845,19,Male,1,2024/02/12_08:52:12,YZ,60.020780514737325,
,,,,,240212_091225,TEST,1,1,1,917,,,,,,,,,,,,,,,,,,,,,,,,,,,,1,1,1,1,cue2.png,easy,B,63,2.147487354000077,0,737.2250006260001,739.4010049839999,,,,,,,,,,,,,,,,,,,,,,,,,,,,,,,,,,,46,158845,19,Male,1,2024/02/12_08:52:12,YZ,60.020780514737325,
,,,,,,test,1,2,3,917,1,X,0,right,0.8921879089998583,1,0,,,,,,,,,,,,,,,,,,,,,1,,,,,,,,,,,,,,,,,,,,,,,,,,,,,,,,,,,,,,,,,,,,,,46,158845,19,Male,1,2024/02/12_08:52:12,YZ,60.020780514737325,
,,,,,,test,1,2,3,917,2,X,0,right,0.4953918910000539,1,0,,,,,,,,,,,,,,,,,,,,,1,,,,,,,,,,,,,,,,,,,,,,,,,,,,,,,,,,,,,,,,,,,,,,46,158845,19,Male,1,2024/02/12_08:52:12,YZ,60.020780514737325,
,,,,,,test,1,2,3,917,3,F,0,right,0.39546586000005846,1,0,,,,,,,,,,,,,,,,,,,,,1,,,,,,,,,,,,,,,,,,,,,,,,,,,,,,,,,,,,,,,,,,,,,,46,158845,19,Male,1,2024/02/12_08:52:12,YZ,60.020780514737325,
,,,,,,test,1,2,3,917,4,J,0,right,0.6097205510000094,1,0,,,,,,,,,,,,,,,,,,,,,1,,,,,,,,,,,,,,,,,,,,,,,,,,,,,,,,,,,,,,,,,,,,,,46,158845,19,Male,1,2024/02/12_08:52:12,YZ,60.020780514737325,
,,,,,,test,1,2,3,917,5,F,0,right,1.029667122000319,1,0,,,,,,,,,,,,,,,,,,,,,1,,,,,,,,,,,,,,,,,,,,,,,,,,,,,,,,,,,,,,,,,,,,,,46,158845,19,Male,1,2024/02/12_08:52:12,YZ,60.020780514737325,
,,,,,,test,1,2,3,917,6,J,0,right,0.7933722549996673,1,0,,,,,,,,,,,,,,,,,,,,,1,,,,,,,,,,,,,,,,,,,,,,,,,,,,,,,,,,,,,,,,,,,,,,46,158845,19,Male,1,2024/02/12_08:52:12,YZ,60.020780514737325,
,,,,,,test,1,2,3,917,7,C,0,right,0.38748417399983737,1,0,,,,,,,,,,,,,,,,,,,,,1,,,,,,,,,,,,,,,,,,,,,,,,,,,,,,,,,,,,,,,,,,,,,,46,158845,19,Male,1,2024/02/12_08:52:12,YZ,60.020780514737325,
,,,,,,test,1,2,3,917,8,F,1,right,0.3341714919997685,0,0,,,,,,,,,,,,,,,,,,,,,1,,,,,,,,,,,,,,,,,,,,,,,,,,,,,,,,,,,,,,,,,,,,,,46,158845,19,Male,1,2024/02/12_08:52:12,YZ,60.020780514737325,
,,,,,,test,1,2,3,917,9,X,0,right,0.0005086149999442569,1,0,,,,,,,,,,,,,,,,,,,,,1,,,,,,,,,,,,,,,,,,,,,,,,,,,,,,,,,,,,,,,,,,,,,,46,158845,19,Male,1,2024/02/12_08:52:12,YZ,60.020780514737325,
,,,,,,test,1,2,3,917,10,X,0,right,0.046940341999743396,1,0,,,,,,,,,,,,,,,,,,,,,1,,,,,,,,,,,,,,,,,,,,,,,,,,,,,,,,,,,,,,,,,,,,,,46,158845,19,Male,1,2024/02/12_08:52:12,YZ,60.020780514737325,
,,,,,,test,1,2,3,917,11,F,1,right,0.30805479399987235,0,0,,,,,,,,,,,,,,,,,,,,,1,,,,,,,,,,,,,,,,,,,,,,,,,,,,,,,,,,,,,,,,,,,,,,46,158845,19,Male,1,2024/02/12_08:52:12,YZ,60.020780514737325,
,,,,,,test,1,2,3,917,12,X,1,right,0.13310179500012964,0,0,,,,,,,,,,,,,,,,,,,,,1,,,,,,,,,,,,,,,,,,,,,,,,,,,,,,,,,,,,,,,,,,,,,,46,158845,19,Male,1,2024/02/12_08:52:12,YZ,60.020780514737325,
,,,,,,Test,1,2,3,917,,,,,,,,0.5,0.0,0.0,1.0,0.0,1.0,0.45217223333327183,0,0,0,0,0,9,9,3,9,0,,,,1,,,,,,,,,,,,,,,,,,,,,,,,,,,,,,,,,,,,,,,,,,,,,,46,158845,19,Male,1,2024/02/12_08:52:12,YZ,60.020780514737325,
,,,,,240212_091247,TEST,1,2,3,917,,,,,,,,,,,,,,,,,,,,,,,,,,,,1,2,2,2,cue1.png,hard,B,59,0.784296730999813,0,761.6290659339998,762.4344235829999,,,,,,,,,,,,,,,,,,,,,,,,,,,,,,,,,,,46,158845,19,Male,1,2024/02/12_08:52:12,YZ,60.020780514737325,
,,,,,,test,1,3,3,917,1,C,0,None,nan,0,1,,,,,,,,,,,,,,,,,,,,,1,,,,,,,,,,,,,,,,,,,,,,,,,,,,,,,,,,,,,,,,,,,,,,46,158845,19,Male,1,2024/02/12_08:52:12,YZ,60.020780514737325,
,,,,,,test,1,3,3,917,2,C,0,None,nan,0,1,,,,,,,,,,,,,,,,,,,,,1,,,,,,,,,,,,,,,,,,,,,,,,,,,,,,,,,,,,,,,,,,,,,,46,158845,19,Male,1,2024/02/12_08:52:12,YZ,60.020780514737325,
,,,,,,test,1,3,3,917,3,S,0,None,nan,0,1,,,,,,,,,,,,,,,,,,,,,1,,,,,,,,,,,,,,,,,,,,,,,,,,,,,,,,,,,,,,,,,,,,,,46,158845,19,Male,1,2024/02/12_08:52:12,YZ,60.020780514737325,
,,,,,,test,1,3,3,917,4,C,1,None,nan,0,1,,,,,,,,,,,,,,,,,,,,,1,,,,,,,,,,,,,,,,,,,,,,,,,,,,,,,,,,,,,,,,,,,,,,46,158845,19,Male,1,2024/02/12_08:52:12,YZ,60.020780514737325,
,,,,,,test,1,3,3,917,5,Q,0,None,nan,0,1,,,,,,,,,,,,,,,,,,,,,1,,,,,,,,,,,,,,,,,,,,,,,,,,,,,,,,,,,,,,,,,,,,,,46,158845,19,Male,1,2024/02/12_08:52:12,YZ,60.020780514737325,
,,,,,,test,1,3,3,917,6,X,0,right,1.3603301160001138,1,0,,,,,,,,,,,,,,,,,,,,,1,,,,,,,,,,,,,,,,,,,,,,,,,,,,,,,,,,,,,,,,,,,,,,46,158845,19,Male,1,2024/02/12_08:52:12,YZ,60.020780514737325,
,,,,,,test,1,3,3,917,7,C,1,right,0.2915850170002159,0,0,,,,,,,,,,,,,,,,,,,,,1,,,,,,,,,,,,,,,,,,,,,,,,,,,,,,,,,,,,,,,,,,,,,,46,158845,19,Male,1,2024/02/12_08:52:12,YZ,60.020780514737325,
,,,,,,test,1,3,3,917,8,Q,1,right,0.287837804999981,0,0,,,,,,,,,,,,,,,,,,,,,1,,,,,,,,,,,,,,,,,,,,,,,,,,,,,,,,,,,,,,,,,,,,,,46,158845,19,Male,1,2024/02/12_08:52:12,YZ,60.020780514737325,
,,,,,,test,1,3,3,917,9,Q,0,right,0.3234680550003759,1,0,,,,,,,,,,,,,,,,,,,,,1,,,,,,,,,,,,,,,,,,,,,,,,,,,,,,,,,,,,,,,,,,,,,,46,158845,19,Male,1,2024/02/12_08:52:12,YZ,60.020780514737325,
,,,,,,test,1,3,3,917,10,V,0,right,0.3183304140002292,1,0,,,,,,,,,,,,,,,,,,,,,1,,,,,,,,,,,,,,,,,,,,,,,,,,,,,,,,,,,,,,,,,,,,,,46,158845,19,Male,1,2024/02/12_08:52:12,YZ,60.020780514737325,
,,,,,,test,1,3,3,917,11,S,0,left,0.43671353700028703,0,0,,,,,,,,,,,,,,,,,,,,,1,,,,,,,,,,,,,,,,,,,,,,,,,,,,,,,,,,,,,,,,,,,,,,46,158845,19,Male,1,2024/02/12_08:52:12,YZ,60.020780514737325,
,,,,,,test,1,3,3,917,12,S,0,right,0.10946998499957772,1,0,,,,,,,,,,,,,,,,,,,,,1,,,,,,,,,,,,,,,,,,,,,,,,,,,,,,,,,,,,,,,,,,,,,,46,158845,19,Male,1,2024/02/12_08:52:12,YZ,60.020780514737325,
,,,,,,Test,1,3,3,917,,,,,,,,0.2222222222222222,0.0,0.1111111111111111,0.8,0.4166666666666667,0.47222222222222215,0.44681927557154005,0,1,1,4,5,4,4,3,9,0,,,,1,,,,,,,,,,,,,,,,,,,,,,,,,,,,,,,,,,,,,,,,,,,,,,46,158845,19,Male,1,2024/02/12_08:52:12,YZ,60.020780514737325,
,,,,,240212_091317,TEST,1,3,3,917,,,,,,,,,,,,,,,,,,,,,,,,,,,,1,3,3,3,cue1.png,hard,B,56,1.185761903999719,0,783.3651950469998,784.5672072879997,,,,,,,,,,,,,,,,,,,,,,,,,,,,,,,,,,,46,158845,19,Male,1,2024/02/12_08:52:12,YZ,60.020780514737325,
,,,,,,test,1,4,3,917,1,N,0,right,1.1061627139997654,1,0,,,,,,,,,,,,,,,,,,,,,1,,,,,,,,,,,,,,,,,,,,,,,,,,,,,,,,,,,,,,,,,,,,,,46,158845,19,Male,1,2024/02/12_08:52:12,YZ,60.020780514737325,
,,,,,,test,1,4,3,917,2,F,0,right,0.45143839799993657,1,0,,,,,,,,,,,,,,,,,,,,,1,,,,,,,,,,,,,,,,,,,,,,,,,,,,,,,,,,,,,,,,,,,,,,46,158845,19,Male,1,2024/02/12_08:52:12,YZ,60.020780514737325,
,,,,,,test,1,4,3,917,3,C,0,right,0.4698137099999258,1,0,,,,,,,,,,,,,,,,,,,,,1,,,,,,,,,,,,,,,,,,,,,,,,,,,,,,,,,,,,,,,,,,,,,,46,158845,19,Male,1,2024/02/12_08:52:12,YZ,60.020780514737325,
,,,,,,test,1,4,3,917,4,X,0,right,0.3734251230002883,1,0,,,,,,,,,,,,,,,,,,,,,1,,,,,,,,,,,,,,,,,,,,,,,,,,,,,,,,,,,,,,,,,,,,,,46,158845,19,Male,1,2024/02/12_08:52:12,YZ,60.020780514737325,
,,,,,,test,1,4,3,917,5,F,1,right,0.45748850300014965,0,0,,,,,,,,,,,,,,,,,,,,,1,,,,,,,,,,,,,,,,,,,,,,,,,,,,,,,,,,,,,,,,,,,,,,46,158845,19,Male,1,2024/02/12_08:52:12,YZ,60.020780514737325,
,,,,,,test,1,4,3,917,6,Q,0,right,0.6089842659998794,1,0,,,,,,,,,,,,,,,,,,,,,1,,,,,,,,,,,,,,,,,,,,,,,,,,,,,,,,,,,,,,,,,,,,,,46,158845,19,Male,1,2024/02/12_08:52:12,YZ,60.020780514737325,
,,,,,,test,1,4,3,917,7,X,1,right,0.4685145919997922,0,0,,,,,,,,,,,,,,,,,,,,,1,,,,,,,,,,,,,,,,,,,,,,,,,,,,,,,,,,,,,,,,,,,,,,46,158845,19,Male,1,2024/02/12_08:52:12,YZ,60.020780514737325,
,,,,,,test,1,4,3,917,8,F,1,right,0.5143558720001238,0,0,,,,,,,,,,,,,,,,,,,,,1,,,,,,,,,,,,,,,,,,,,,,,,,,,,,,,,,,,,,,,,,,,,,,46,158845,19,Male,1,2024/02/12_08:52:12,YZ,60.020780514737325,
,,,,,,test,1,4,3,917,9,C,0,right,0.4860801060003723,1,0,,,,,,,,,,,,,,,,,,,,,1,,,,,,,,,,,,,,,,,,,,,,,,,,,,,,,,,,,,,,,,,,,,,,46,158845,19,Male,1,2024/02/12_08:52:12,YZ,60.020780514737325,
,,,,,,test,1,4,3,917,10,N,0,right,0.6090355820001605,1,0,,,,,,,,,,,,,,,,,,,,,1,,,,,,,,,,,,,,,,,,,,,,,,,,,,,,,,,,,,,,,,,,,,,,46,158845,19,Male,1,2024/02/12_08:52:12,YZ,60.020780514737325,
,,,,,,test,1,4,3,917,11,Q,0,right,0.5962041260004298,1,0,,,,,,,,,,,,,,,,,,,,,1,,,,,,,,,,,,,,,,,,,,,,,,,,,,,,,,,,,,,,,,,,,,,,46,158845,19,Male,1,2024/02/12_08:52:12,YZ,60.020780514737325,
,,,,,,test,1,4,3,917,12,N,0,right,0.400053281000055,1,0,,,,,,,,,,,,,,,,,,,,,1,,,,,,,,,,,,,,,,,,,,,,,,,,,,,,,,,,,,,,,,,,,,,,46,158845,19,Male,1,2024/02/12_08:52:12,YZ,60.020780514737325,
,,,,,,Test,1,4,3,917,,,,,,,,0.5,0.0,0.0,1.0,0.0,1.0,0.5451296894167399,0,0,0,0,0,9,9,3,9,0,,,,1,,,,,,,,,,,,,,,,,,,,,,,,,,,,,,,,,,,,,,,,,,,,,,46,158845,19,Male,1,2024/02/12_08:52:12,YZ,60.020780514737325,
,,,,,240212_091348,TEST,1,4,3,917,,,,,,,,,,,,,,,,,,,,,,,,,,,,1,4,5,4,cue1.png,hard,B,59,0.9181701210000028,0,821.2556091649999,822.1945621,,,,,,,,,,,,,,,,,,,,,,,,,,,,,,,,,,,46,158845,19,Male,1,2024/02/12_08:52:12,YZ,60.020780514737325,
,,,,,,test,1,5,1,917,1,F,0,right,0.4966197529993224,1,0,,,,,,,,,,,,,,,,,,,,,1,,,,,,,,,,,,,,,,,,,,,,,,,,,,,,,,,,,,,,,,,,,,,,46,158845,19,Male,1,2024/02/12_08:52:12,YZ,60.020780514737325,
,,,,,,test,1,5,1,917,2,J,0,right,0.41506765499980247,1,0,,,,,,,,,,,,,,,,,,,,,1,,,,,,,,,,,,,,,,,,,,,,,,,,,,,,,,,,,,,,,,,,,,,,46,158845,19,Male,1,2024/02/12_08:52:12,YZ,60.020780514737325,
,,,,,,test,1,5,1,917,3,N,0,right,0.33141598099973635,1,0,,,,,,,,,,,,,,,,,,,,,1,,,,,,,,,,,,,,,,,,,,,,,,,,,,,,,,,,,,,,,,,,,,,,46,158845,19,Male,1,2024/02/12_08:52:12,YZ,60.020780514737325,
,,,,,,test,1,5,1,917,4,X,0,right,0.33180411500052287,1,0,,,,,,,,,,,,,,,,,,,,,1,,,,,,,,,,,,,,,,,,,,,,,,,,,,,,,,,,,,,,,,,,,,,,46,158845,19,Male,1,2024/02/12_08:52:12,YZ,60.020780514737325,
,,,,,,test,1,5,1,917,5,X,1,left,0.4625954319999437,1,0,,,,,,,,,,,,,,,,,,,,,1,,,,,,,,,,,,,,,,,,,,,,,,,,,,,,,,,,,,,,,,,,,,,,46,158845,19,Male,1,2024/02/12_08:52:12,YZ,60.020780514737325,
,,,,,,test,1,5,1,917,6,F,0,right,0.3090249880006013,1,0,,,,,,,,,,,,,,,,,,,,,1,,,,,,,,,,,,,,,,,,,,,,,,,,,,,,,,,,,,,,,,,,,,,,46,158845,19,Male,1,2024/02/12_08:52:12,YZ,60.020780514737325,
,,,,,,test,1,5,1,917,7,C,0,right,0.4901613880001605,1,0,,,,,,,,,,,,,,,,,,,,,1,,,,,,,,,,,,,,,,,,,,,,,,,,,,,,,,,,,,,,,,,,,,,,46,158845,19,Male,1,2024/02/12_08:52:12,YZ,60.020780514737325,
,,,,,,test,1,5,1,917,8,S,0,right,0.3107108619997234,1,0,,,,,,,,,,,,,,,,,,,,,1,,,,,,,,,,,,,,,,,,,,,,,,,,,,,,,,,,,,,,,,,,,,,,46,158845,19,Male,1,2024/02/12_08:52:12,YZ,60.020780514737325,
,,,,,,test,1,5,1,917,9,S,1,right,0.3017020819997924,0,0,,,,,,,,,,,,,,,,,,,,,1,,,,,,,,,,,,,,,,,,,,,,,,,,,,,,,,,,,,,,,,,,,,,,46,158845,19,Male,1,2024/02/12_08:52:12,YZ,60.020780514737325,
,,,,,,test,1,5,1,917,10,X,0,right,0.5754169000001639,1,0,,,,,,,,,,,,,,,,,,,,,1,,,,,,,,,,,,,,,,,,,,,,,,,,,,,,,,,,,,,,,,,,,,,,46,158845,19,Male,1,2024/02/12_08:52:12,YZ,60.020780514737325,
,,,,,,test,1,5,1,917,11,X,1,left,0.37472946500020043,1,0,,,,,,,,,,,,,,,,,,,,,1,,,,,,,,,,,,,,,,,,,,,,,,,,,,,,,,,,,,,,,,,,,,,,46,158845,19,Male,1,2024/02/12_08:52:12,YZ,60.020780514737325,
,,,,,,test,1,5,1,917,12,S,0,right,0.4491627930001414,1,0,,,,,,,,,,,,,,,,,,,,,1,,,,,,,,,,,,,,,,,,,,,,,,,,,,,,,,,,,,,,,,,,,,,,46,158845,19,Male,1,2024/02/12_08:52:12,YZ,60.020780514737325,
,,,,,,Test,1,5,1,917,,,,,,,,0.9166666666666666,0.6666666666666666,0.0,1.0,0.0,1.0,0.4040342845000093,2,0,0,0,0,9,11,3,9,0,,,,1,,,,,,,,,,,,,,,,,,,,,,,,,,,,,,,,,,,,,,,,,,,,,,46,158845,19,Male,1,2024/02/12_08:52:12,YZ,60.020780514737325,
,,,,,240212_091410,TEST,1,5,1,917,,,,,,,,,,,,,,,,,,,,,,,,,,,,1,5,6,5,cue2.png,easy,B,68,2.0866886080002587,0,844.2546480310002,846.3630999589996,,,,,,,,,,,,,,,,,,,,,,,,,,,,,,,,,,,46,158845,19,Male,1,2024/02/12_08:52:12,YZ,60.020780514737325,
,,,,,,test,1,6,3,917,1,Q,0,right,0.5009104669998123,1,0,,,,,,,,,,,,,,,,,,,,,1,,,,,,,,,,,,,,,,,,,,,,,,,,,,,,,,,,,,,,,,,,,,,,46,158845,19,Male,1,2024/02/12_08:52:12,YZ,60.020780514737325,
