Instruction,Stimulus,Key,RT,START,END,Phase,Block,TrialN,NbackLevel,ISI,LetterN,Letter,Letter_isSame,Letter_Resp,Letter_RT,Letter_Accuracy,Letter_Timeout,Trial_A_measure,Trial_HR,Trial_FAR,Trial_CDR,Trial_MSR,Trial_ACC,Trial_RT,Trial_HitsCount,Trial_FAsCount,Trial_SameNoRespCount,Trial_DiffNoRespCount,Trial_NoRespCount,Trial_CDsCount,Trial_CorrectRespCount,Trial_SameLetterCount,Trial_DiffLetterCount,Trial_InvalidLetterCount,TrialCountCali,CaliEnd_A_measure,ISI_calibrated,Run,TrialIndex,TrialNumber_total,TrialNumber_valid,CueLearning,TrialDemandLearning,CueMapping,OnlineRating,OnlineRatingRT,OnlineRatingTimeOut,CueSTART,RatingSTART,OfflineRatingTimePoint,OfflineRatingQuesIndex,CueFigure,TrialDemand,OfflineRating,OfflineRatingRT,CueStart,OfflineRatingStart,PhaseType,CueLeft,CueDemandLeft,CueRight,CueDemandRight,Choice,ChoiceDemand,TaskDemand,ChoiceRT,ChoiceTimeOut,ChoiceSTART,CueCheck,CueDemandCheck,CorrectAnswer,Answer,AnswerDemand,AnswerRT,AnswerACC,AnswerTimeOut,CheckSTART,DemandRatingQuesIndex,QuesTLX,DemandLevel,DemandRating,DemandRatingRT,QuesStart,PID,SONA,Age,Gender,Run,TIME,EXPERIMENTER,frameRate,
1,./instructions/inst_begin/Slide2.png,right,27.1716448909865,0.27387944801012054,27.44552433899662,,,,,,,,,,,,,,,,,,,,,,,,,,,,,,,,,1,,,,,,,,,,,,,,,,,,,,,,,,,,,,,,,,,,,,,,,,,,,,,,78,153511,21,Male,1,2024/02/26_08:55:35,YZ,None,
2,./instructions/inst_begin/Slide3.png,right,8.11015551899618,27.495230711007025,35.605386230003205,,,,,,,,,,,,,,,,,,,,,,,,,,,,,,,,,1,,,,,,,,,,,,,,,,,,,,,,,,,,,,,,,,,,,,,,,,,,,,,,78,153511,21,Male,1,2024/02/26_08:55:35,YZ,None,
3,./instructions/inst_begin/Slide4.png,right,5.509167520998744,35.64015811300487,41.14932563400362,,,,,,,,,,,,,,,,,,,,,,,,,,,,,,,,,1,,,,,,,,,,,,,,,,,,,,,,,,,,,,,,,,,,,,,,,,,,,,,,78,153511,21,Male,1,2024/02/26_08:55:35,YZ,None,
1,./instructions/inst_prac_2/Slide6.png,right,12.622295731009217,41.206957506001345,53.82925323701056,,,,,,,,,,,,,,,,,,,,,,,,,,,,,,,,,1,,,,,,,,,,,,,,,,,,,,,,,,,,,,,,,,,,,,,,,,,,,,,,78,153511,21,Male,1,2024/02/26_08:55:35,YZ,None,
2,./instructions/inst_prac_2/Slide7.png,right,9.508528628997738,53.864781615004176,63.373310244001914,,,,,,,,,,,,,,,,,,,,,,,,,,,,,,,,,1,,,,,,,,,,,,,,,,,,,,,,,,,,,,,,,,,,,,,,,,,,,,,,78,153511,21,Male,1,2024/02/26_08:55:35,YZ,None,
3,./instructions/inst_prac_2/Slide8.png,right,10.415812434992404,63.405658850009786,73.82147128500219,,,,,,,,,,,,,,,,,,,,,,,,,,,,,,,,,1,,,,,,,,,,,,,,,,,,,,,,,,,,,,,,,,,,,,,,,,,,,,,,78,153511,21,Male,1,2024/02/26_08:55:35,YZ,None,
4,./instructions/inst_prac_2/Slide9.png,right,10.149873301008483,73.86346165899886,84.01333496000734,,,,,,,,,,,,,,,,,,,,,,,,,,,,,,,,,1,,,,,,,,,,,,,,,,,,,,,,,,,,,,,,,,,,,,,,,,,,,,,,78,153511,21,Male,1,2024/02/26_08:55:35,YZ,None,
5,./instructions/inst_prac_2/Slide10.png,right,3.336229507011012,84.0851742119994,87.42140371901041,,,,,,,,,,,,,,,,,,,,,,,,,,,,,,,,,1,,,,,,,,,,,,,,,,,,,,,,,,,,,,,,,,,,,,,,,,,,,,,,78,153511,21,Male,1,2024/02/26_08:55:35,YZ,None,
6,./instructions/inst_prac_2/Slide11.png,right,1.9014549819985405,87.45583245799935,89.35728743999789,,,,,,,,,,,,,,,,,,,,,,,,,,,,,,,,,1,,,,,,,,,,,,,,,,,,,,,,,,,,,,,,,,,,,,,,,,,,,,,,78,153511,21,Male,1,2024/02/26_08:55:35,YZ,None,
7,./instructions/inst_prac_2/Slide12.png,right,2.454706445001648,89.39069730200572,91.84540374700737,,,,,,,,,,,,,,,,,,,,,,,,,,,,,,,,,1,,,,,,,,,,,,,,,,,,,,,,,,,,,,,,,,,,,,,,,,,,,,,,78,153511,21,Male,1,2024/02/26_08:55:35,YZ,None,
8,./instructions/inst_prac_2/Slide13.png,right,0.9522317109949654,91.8771002190042,92.82933192999917,,,,,,,,,,,,,,,,,,,,,,,,,,,,,,,,,1,,,,,,,,,,,,,,,,,,,,,,,,,,,,,,,,,,,,,,,,,,,,,,78,153511,21,Male,1,2024/02/26_08:55:35,YZ,None,
9,./instructions/inst_prac_2/Slide14.png,right,7.823955906002084,92.86132891500893,100.68528482101101,,,,,,,,,,,,,,,,,,,,,,,,,,,,,,,,,1,,,,,,,,,,,,,,,,,,,,,,,,,,,,,,,,,,,,,,,,,,,,,,78,153511,21,Male,1,2024/02/26_08:55:35,YZ,None,
10,./instructions/inst_prac_2/Slide15.png,right,8.448116318002576,100.717385543001,109.16550186100358,,,,,,,,,,,,,,,,,,,,,,,,,,,,,,,,,1,,,,,,,,,,,,,,,,,,,,,,,,,,,,,,,,,,,,,,,,,,,,,,78,153511,21,Male,1,2024/02/26_08:55:35,YZ,None,
,,,,,,practice,0,19,2,2583,1,C,0,right,2.2655669129890157,1,0,,,,,,,,,,,,,,,,,,,,,1,,,,,,,,,,,,,,,,,,,,,,,,,,,,,,,,,,,,,,,,,,,,,,78,153511,21,Male,1,2024/02/26_08:55:35,YZ,None,
,,,,,,practice,0,19,2,2583,2,N,0,right,1.9373056369950064,1,0,,,,,,,,,,,,,,,,,,,,,1,,,,,,,,,,,,,,,,,,,,,,,,,,,,,,,,,,,,,,,,,,,,,,78,153511,21,Male,1,2024/02/26_08:55:35,YZ,None,
,,,,,,practice,0,19,2,2583,3,C,1,left,1.372099697997328,1,0,,,,,,,,,,,,,,,,,,,,,1,,,,,,,,,,,,,,,,,,,,,,,,,,,,,,,,,,,,,,,,,,,,,,78,153511,21,Male,1,2024/02/26_08:55:35,YZ,None,
,,,,,,practice,0,19,2,2583,4,N,1,left,2.0812762919958914,1,0,,,,,,,,,,,,,,,,,,,,,1,,,,,,,,,,,,,,,,,,,,,,,,,,,,,,,,,,,,,,,,,,,,,,78,153511,21,Male,1,2024/02/26_08:55:35,YZ,None,
,,,,,,practice,0,19,2,2583,5,S,0,right,0.8941474409948569,1,0,,,,,,,,,,,,,,,,,,,,,1,,,,,,,,,,,,,,,,,,,,,,,,,,,,,,,,,,,,,,,,,,,,,,78,153511,21,Male,1,2024/02/26_08:55:35,YZ,None,
,,,,,,practice,0,19,2,2583,6,Q,0,right,2.7381895370053826,1,0,,,,,,,,,,,,,,,,,,,,,1,,,,,,,,,,,,,,,,,,,,,,,,,,,,,,,,,,,,,,,,,,,,,,78,153511,21,Male,1,2024/02/26_08:55:35,YZ,None,
,,,,,,practice,0,19,2,2583,,,,,,,,1.0,1.0,0.0,1.0,0.0,1.0,1.8814309196629135,2,0,0,0,0,4,6,2,4,0,,,,1,,,,,,,,,,,,,,,,,,,,,,,,,,,,,,,,,,,,,,,,,,,,,,78,153511,21,Male,1,2024/02/26_08:55:35,YZ,None,
1,./instructions/inst_to_cali/Slide20.png,right,2.8292263969924534,126.8400626500079,129.66928904700035,,,,,,,,,,,,,,,,,,,,,,,,,,,,,,,,,1,,,,,,,,,,,,,,,,,,,,,,,,,,,,,,,,,,,,,,,,,,,,,,78,153511,21,Male,1,2024/02/26_08:55:35,YZ,None,
1,./instructions/inst_cali/Slide22.png,right,18.661946972002625,129.73531720400206,148.39726417600468,,,,,,,,,,,,,,,,,,,,,,,,,,,,,,,,,1,,,,,,,,,,,,,,,,,,,,,,,,,,,,,,,,,,,,,,,,,,,,,,78,153511,21,Male,1,2024/02/26_08:55:35,YZ,None,
,,,,,,calibration,0,33,2,583,1,V,0,None,nan,0,1,,,,,,,,,,,,,,,,,,,,,1,,,,,,,,,,,,,,,,,,,,,,,,,,,,,,,,,,,,,,,,,,,,,,78,153511,21,Male,1,2024/02/26_08:55:35,YZ,None,
,,,,,,calibration,0,33,2,583,2,Q,0,None,nan,0,1,,,,,,,,,,,,,,,,,,,,,1,,,,,,,,,,,,,,,,,,,,,,,,,,,,,,,,,,,,,,,,,,,,,,78,153511,21,Male,1,2024/02/26_08:55:35,YZ,None,
,,,,,,calibration,0,33,2,583,3,C,0,None,nan,0,1,,,,,,,,,,,,,,,,,,,,,1,,,,,,,,,,,,,,,,,,,,,,,,,,,,,,,,,,,,,,,,,,,,,,78,153511,21,Male,1,2024/02/26_08:55:35,YZ,None,
,,,,,,calibration,0,33,2,583,4,Q,1,None,nan,0,1,,,,,,,,,,,,,,,,,,,,,1,,,,,,,,,,,,,,,,,,,,,,,,,,,,,,,,,,,,,,,,,,,,,,78,153511,21,Male,1,2024/02/26_08:55:35,YZ,None,
,,,,,,calibration,0,33,2,583,5,F,0,None,nan,0,1,,,,,,,,,,,,,,,,,,,,,1,,,,,,,,,,,,,,,,,,,,,,,,,,,,,,,,,,,,,,,,,,,,,,78,153511,21,Male,1,2024/02/26_08:55:35,YZ,None,
,,,,,,calibration,0,33,2,583,6,X,0,None,nan,0,1,,,,,,,,,,,,,,,,,,,,,1,,,,,,,,,,,,,,,,,,,,,,,,,,,,,,,,,,,,,,,,,,,,,,78,153511,21,Male,1,2024/02/26_08:55:35,YZ,None,
,,,,,,calibration,0,33,2,583,7,F,1,None,nan,0,1,,,,,,,,,,,,,,,,,,,,,1,,,,,,,,,,,,,,,,,,,,,,,,,,,,,,,,,,,,,,,,,,,,,,78,153511,21,Male,1,2024/02/26_08:55:35,YZ,None,
,,,,,,calibration,0,33,2,583,8,C,0,None,nan,0,1,,,,,,,,,,,,,,,,,,,,,1,,,,,,,,,,,,,,,,,,,,,,,,,,,,,,,,,,,,,,,,,,,,,,78,153511,21,Male,1,2024/02/26_08:55:35,YZ,None,
,,,,,,calibration,0,33,2,583,9,X,0,None,nan,0,1,,,,,,,,,,,,,,,,,,,,,1,,,,,,,,,,,,,,,,,,,,,,,,,,,,,,,,,,,,,,,,,,,,,,78,153511,21,Male,1,2024/02/26_08:55:35,YZ,None,
,,,,,,calibration,0,33,2,583,10,Q,0,None,nan,0,1,,,,,,,,,,,,,,,,,,,,,1,,,,,,,,,,,,,,,,,,,,,,,,,,,,,,,,,,,,,,,,,,,,,,78,153511,21,Male,1,2024/02/26_08:55:35,YZ,None,
,,,,,,calibration,0,33,2,583,11,V,0,None,nan,0,1,,,,,,,,,,,,,,,,,,,,,1,,,,,,,,,,,,,,,,,,,,,,,,,,,,,,,,,,,,,,,,,,,,,,78,153511,21,Male,1,2024/02/26_08:55:35,YZ,None,
,,,,,,calibration,0,33,2,583,12,F,0,None,nan,0,1,,,,,,,,,,,,,,,,,,,,,1,,,,,,,,,,,,,,,,,,,,,,,,,,,,,,,,,,,,,,,,,,,,,,78,153511,21,Male,1,2024/02/26_08:55:35,YZ,None,
,,,,,,calibration,0,33,2,583,13,V,1,None,nan,0,1,,,,,,,,,,,,,,,,,,,,,1,,,,,,,,,,,,,,,,,,,,,,,,,,,,,,,,,,,,,,,,,,,,,,78,153511,21,Male,1,2024/02/26_08:55:35,YZ,None,
,,,,,,calibration,0,33,2,583,14,J,0,None,nan,0,1,,,,,,,,,,,,,,,,,,,,,1,,,,,,,,,,,,,,,,,,,,,,,,,,,,,,,,,,,,,,,,,,,,,,78,153511,21,Male,1,2024/02/26_08:55:35,YZ,None,
,,,,,,calibration,0,33,2,583,15,V,1,None,nan,0,1,,,,,,,,,,,,,,,,,,,,,1,,,,,,,,,,,,,,,,,,,,,,,,,,,,,,,,,,,,,,,,,,,,,,78,153511,21,Male,1,2024/02/26_08:55:35,YZ,None,
,,,,,,calibration,0,33,2,583,,,,,,,,nan,0.0,nan,nan,1.0,nan,nan,0,0,4,11,15,0,0,4,11,0,,,,1,,,,,,,,,,,,,,,,,,,,,,,,,,,,,,,,,,,,,,,,,,,,,,78,153511,21,Male,1,2024/02/26_08:55:35,YZ,None,
,,,,,,Calibration,0,,2,583,,,,,,,,,,,,,,,,,,,,,,,,,1,,,1,,,,,,,,,,,,,,,,,,,,,,,,,,,,,,,,,,,,,,,,,,,,,,78,153511,21,Male,1,2024/02/26_08:55:35,YZ,None,
,,,,,,calibration,0,10,2,583,1,F,0,None,nan,0,1,,,,,,,,,,,,,,,,,,,,,1,,,,,,,,,,,,,,,,,,,,,,,,,,,,,,,,,,,,,,,,,,,,,,78,153511,21,Male,1,2024/02/26_08:55:35,YZ,None,
,,,,,,calibration,0,10,2,583,2,V,0,left,1.2917202000098769,0,0,,,,,,,,,,,,,,,,,,,,,1,,,,,,,,,,,,,,,,,,,,,,,,,,,,,,,,,,,,,,,,,,,,,,78,153511,21,Male,1,2024/02/26_08:55:35,YZ,None,
,,,,,,calibration,0,10,2,583,3,S,0,left,nan,0,1,,,,,,,,,,,,,,,,,,,,,1,,,,,,,,,,,,,,,,,,,,,,,,,,,,,,,,,,,,,,,,,,,,,,78,153511,21,Male,1,2024/02/26_08:55:35,YZ,None,
,,,,,,calibration,0,10,2,583,4,N,0,left,nan,0,1,,,,,,,,,,,,,,,,,,,,,1,,,,,,,,,,,,,,,,,,,,,,,,,,,,,,,,,,,,,,,,,,,,,,78,153511,21,Male,1,2024/02/26_08:55:35,YZ,None,
,,,,,,calibration,0,10,2,583,5,V,0,left,nan,0,1,,,,,,,,,,,,,,,,,,,,,1,,,,,,,,,,,,,,,,,,,,,,,,,,,,,,,,,,,,,,,,,,,,,,78,153511,21,Male,1,2024/02/26_08:55:35,YZ,None,
,,,,,,calibration,0,10,2,583,6,N,1,left,nan,0,1,,,,,,,,,,,,,,,,,,,,,1,,,,,,,,,,,,,,,,,,,,,,,,,,,,,,,,,,,,,,,,,,,,,,78,153511,21,Male,1,2024/02/26_08:55:35,YZ,None,
,,,,,,calibration,0,10,2,583,7,Q,0,left,nan,0,1,,,,,,,,,,,,,,,,,,,,,1,,,,,,,,,,,,,,,,,,,,,,,,,,,,,,,,,,,,,,,,,,,,,,78,153511,21,Male,1,2024/02/26_08:55:35,YZ,None,
,,,,,,calibration,0,10,2,583,8,N,1,left,0.29201722600555513,1,0,,,,,,,,,,,,,,,,,,,,,1,,,,,,,,,,,,,,,,,,,,,,,,,,,,,,,,,,,,,,,,,,,,,,78,153511,21,Male,1,2024/02/26_08:55:35,YZ,None,
,,,,,,calibration,0,10,2,583,9,S,0,left,nan,0,1,,,,,,,,,,,,,,,,,,,,,1,,,,,,,,,,,,,,,,,,,,,,,,,,,,,,,,,,,,,,,,,,,,,,78,153511,21,Male,1,2024/02/26_08:55:35,YZ,None,
,,,,,,calibration,0,10,2,583,10,N,1,right,0.2601218870113371,0,0,,,,,,,,,,,,,,,,,,,,,1,,,,,,,,,,,,,,,,,,,,,,,,,,,,,,,,,,,,,,,,,,,,,,78,153511,21,Male,1,2024/02/26_08:55:35,YZ,None,
,,,,,,calibration,0,10,2,583,11,C,0,right,0.46883259099558927,1,0,,,,,,,,,,,,,,,,,,,,,1,,,,,,,,,,,,,,,,,,,,,,,,,,,,,,,,,,,,,,,,,,,,,,78,153511,21,Male,1,2024/02/26_08:55:35,YZ,None,
,,,,,,calibration,0,10,2,583,12,S,0,right,nan,0,1,,,,,,,,,,,,,,,,,,,,,1,,,,,,,,,,,,,,,,,,,,,,,,,,,,,,,,,,,,,,,,,,,,,,78,153511,21,Male,1,2024/02/26_08:55:35,YZ,None,
,,,,,,calibration,0,10,2,583,13,C,1,right,nan,0,1,,,,,,,,,,,,,,,,,,,,,1,,,,,,,,,,,,,,,,,,,,,,,,,,,,,,,,,,,,,,,,,,,,,,78,153511,21,Male,1,2024/02/26_08:55:35,YZ,None,
,,,,,,calibration,0,10,2,583,14,Q,0,right,1.3151920360105578,1,0,,,,,,,,,,,,,,,,,,,,,1,,,,,,,,,,,,,,,,,,,,,,,,,,,,,,,,,,,,,,,,,,,,,,78,153511,21,Male,1,2024/02/26_08:55:35,YZ,None,
,,,,,,calibration,0,10,2,583,15,S,0,left,0.9809991119982442,0,0,,,,,,,,,,,,,,,,,,,,,1,,,,,,,,,,,,,,,,,,,,,,,,,,,,,,,,,,,,,,,,,,,,,,78,153511,21,Male,1,2024/02/26_08:55:35,YZ,None,
,,,,,,calibration,0,10,2,583,,,,,,,,0.5852272727272727,0.25,0.18181818181818182,0.5,0.6,0.21818181818181814,0.7681471753385267,1,2,2,7,9,2,3,4,11,0,,,,1,,,,,,,,,,,,,,,,,,,,,,,,,,,,,,,,,,,,,,,,,,,,,,78,153511,21,Male,1,2024/02/26_08:55:35,YZ,None,
,,,,,,Calibration,0,,2,583,,,,,,,,,,,,,,,,,,,,,,,,,2,,,1,,,,,,,,,,,,,,,,,,,,,,,,,,,,,,,,,,,,,,,,,,,,,,78,153511,21,Male,1,2024/02/26_08:55:35,YZ,None,
,,,,,,calibration,0,3,2,679,1,S,0,left,0.3953915959864389,0,0,,,,,,,,,,,,,,,,,,,,,1,,,,,,,,,,,,,,,,,,,,,,,,,,,,,,,,,,,,,,,,,,,,,,78,153511,21,Male,1,2024/02/26_08:55:35,YZ,None,
,,,,,,calibration,0,3,2,679,2,S,0,right,0.6647967750031967,1,0,,,,,,,,,,,,,,,,,,,,,1,,,,,,,,,,,,,,,,,,,,,,,,,,,,,,,,,,,,,,,,,,,,,,78,153511,21,Male,1,2024/02/26_08:55:35,YZ,None,
,,,,,,calibration,0,3,2,679,3,X,0,right,0.99245720700128,1,0,,,,,,,,,,,,,,,,,,,,,1,,,,,,,,,,,,,,,,,,,,,,,,,,,,,,,,,,,,,,,,,,,,,,78,153511,21,Male,1,2024/02/26_08:55:35,YZ,None,
,,,,,,calibration,0,3,2,679,4,C,0,right,0.9512551049992908,1,0,,,,,,,,,,,,,,,,,,,,,1,,,,,,,,,,,,,,,,,,,,,,,,,,,,,,,,,,,,,,,,,,,,,,78,153511,21,Male,1,2024/02/26_08:55:35,YZ,None,
,,,,,,calibration,0,3,2,679,5,N,0,right,0.8015930209949147,1,0,,,,,,,,,,,,,,,,,,,,,1,,,,,,,,,,,,,,,,,,,,,,,,,,,,,,,,,,,,,,,,,,,,,,78,153511,21,Male,1,2024/02/26_08:55:35,YZ,None,
,,,,,,calibration,0,3,2,679,6,F,0,right,0.8253367930010427,1,0,,,,,,,,,,,,,,,,,,,,,1,,,,,,,,,,,,,,,,,,,,,,,,,,,,,,,,,,,,,,,,,,,,,,78,153511,21,Male,1,2024/02/26_08:55:35,YZ,None,
,,,,,,calibration,0,3,2,679,7,S,0,left,0.6751441750093363,0,0,,,,,,,,,,,,,,,,,,,,,1,,,,,,,,,,,,,,,,,,,,,,,,,,,,,,,,,,,,,,,,,,,,,,78,153511,21,Male,1,2024/02/26_08:55:35,YZ,None,
,,,,,,calibration,0,3,2,679,8,F,1,left,0.8018555460002972,1,0,,,,,,,,,,,,,,,,,,,,,1,,,,,,,,,,,,,,,,,,,,,,,,,,,,,,,,,,,,,,,,,,,,,,78,153511,21,Male,1,2024/02/26_08:55:35,YZ,None,
,,,,,,calibration,0,3,2,679,9,V,0,right,0.6842815220006742,1,0,,,,,,,,,,,,,,,,,,,,,1,,,,,,,,,,,,,,,,,,,,,,,,,,,,,,,,,,,,,,,,,,,,,,78,153511,21,Male,1,2024/02/26_08:55:35,YZ,None,
,,,,,,calibration,0,3,2,679,10,F,1,right,0.675428335001925,0,0,,,,,,,,,,,,,,,,,,,,,1,,,,,,,,,,,,,,,,,,,,,,,,,,,,,,,,,,,,,,,,,,,,,,78,153511,21,Male,1,2024/02/26_08:55:35,YZ,None,
,,,,,,calibration,0,3,2,679,11,X,0,right,0.6085903200000757,1,0,,,,,,,,,,,,,,,,,,,,,1,,,,,,,,,,,,,,,,,,,,,,,,,,,,,,,,,,,,,,,,,,,,,,78,153511,21,Male,1,2024/02/26_08:55:35,YZ,None,
,,,,,,calibration,0,3,2,679,12,N,0,right,0.6588831610133639,1,0,,,,,,,,,,,,,,,,,,,,,1,,,,,,,,,,,,,,,,,,,,,,,,,,,,,,,,,,,,,,,,,,,,,,78,153511,21,Male,1,2024/02/26_08:55:35,YZ,None,
,,,,,,calibration,0,3,2,679,13,X,1,right,1.0486984149902128,0,0,,,,,,,,,,,,,,,,,,,,,1,,,,,,,,,,,,,,,,,,,,,,,,,,,,,,,,,,,,,,,,,,,,,,78,153511,21,Male,1,2024/02/26_08:55:35,YZ,None,
,,,,,,calibration,0,3,2,679,14,N,1,right,0.9076600490079727,0,0,,,,,,,,,,,,,,,,,,,,,1,,,,,,,,,,,,,,,,,,,,,,,,,,,,,,,,,,,,,,,,,,,,,,78,153511,21,Male,1,2024/02/26_08:55:35,YZ,None,
,,,,,,calibration,0,3,2,679,,,,,,,,0.5625,0.25,0.2,0.8,0.0,0.8,0.7636694300007159,1,2,0,0,0,8,9,4,10,0,,,,1,,,,,,,,,,,,,,,,,,,,,,,,,,,,,,,,,,,,,,,,,,,,,,78,153511,21,Male,1,2024/02/26_08:55:35,YZ,None,
,,,,,,Calibration,0,,2,679,,,,,,,,,,,,,,,,,,,,,,,,,3,,,1,,,,,,,,,,,,,,,,,,,,,,,,,,,,,,,,,,,,,,,,,,,,,,78,153511,21,Male,1,2024/02/26_08:55:35,YZ,None,
,,,,,,calibration,0,2,2,788,1,Q,0,None,nan,0,1,,,,,,,,,,,,,,,,,,,,,1,,,,,,,,,,,,,,,,,,,,,,,,,,,,,,,,,,,,,,,,,,,,,,78,153511,21,Male,1,2024/02/26_08:55:35,YZ,None,
,,,,,,calibration,0,2,2,788,2,F,0,right,0.8254982009966625,1,0,,,,,,,,,,,,,,,,,,,,,1,,,,,,,,,,,,,,,,,,,,,,,,,,,,,,,,,,,,,,,,,,,,,,78,153511,21,Male,1,2024/02/26_08:55:35,YZ,None,
,,,,,,calibration,0,2,2,788,3,C,0,right,nan,0,1,,,,,,,,,,,,,,,,,,,,,1,,,,,,,,,,,,,,,,,,,,,,,,,,,,,,,,,,,,,,,,,,,,,,78,153511,21,Male,1,2024/02/26_08:55:35,YZ,None,
,,,,,,calibration,0,2,2,788,4,V,0,right,nan,0,1,,,,,,,,,,,,,,,,,,,,,1,,,,,,,,,,,,,,,,,,,,,,,,,,,,,,,,,,,,,,,,,,,,,,78,153511,21,Male,1,2024/02/26_08:55:35,YZ,None,
,,,,,,calibration,0,2,2,788,5,J,0,right,nan,0,1,,,,,,,,,,,,,,,,,,,,,1,,,,,,,,,,,,,,,,,,,,,,,,,,,,,,,,,,,,,,,,,,,,,,78,153511,21,Male,1,2024/02/26_08:55:35,YZ,None,
,,,,,,calibration,0,2,2,788,6,V,1,left,0.6094238980003865,1,0,,,,,,,,,,,,,,,,,,,,,1,,,,,,,,,,,,,,,,,,,,,,,,,,,,,,,,,,,,,,,,,,,,,,78,153511,21,Male,1,2024/02/26_08:55:35,YZ,None,
,,,,,,calibration,0,2,2,788,7,C,0,right,0.6841078500001458,1,0,,,,,,,,,,,,,,,,,,,,,1,,,,,,,,,,,,,,,,,,,,,,,,,,,,,,,,,,,,,,,,,,,,,,78,153511,21,Male,1,2024/02/26_08:55:35,YZ,None,
,,,,,,calibration,0,2,2,788,8,S,0,right,0.776546490000328,1,0,,,,,,,,,,,,,,,,,,,,,1,,,,,,,,,,,,,,,,,,,,,,,,,,,,,,,,,,,,,,,,,,,,,,78,153511,21,Male,1,2024/02/26_08:55:35,YZ,None,
,,,,,,calibration,0,2,2,788,9,C,1,right,0.78139959499822,0,0,,,,,,,,,,,,,,,,,,,,,1,,,,,,,,,,,,,,,,,,,,,,,,,,,,,,,,,,,,,,,,,,,,,,78,153511,21,Male,1,2024/02/26_08:55:35,YZ,None,
,,,,,,calibration,0,2,2,788,10,S,1,left,0.8255636719986796,1,0,,,,,,,,,,,,,,,,,,,,,1,,,,,,,,,,,,,,,,,,,,,,,,,,,,,,,,,,,,,,,,,,,,,,78,153511,21,Male,1,2024/02/26_08:55:35,YZ,None,
,,,,,,calibration,0,2,2,788,11,N,0,right,0.5121210600045742,1,0,,,,,,,,,,,,,,,,,,,,,1,,,,,,,,,,,,,,,,,,,,,,,,,,,,,,,,,,,,,,,,,,,,,,78,153511,21,Male,1,2024/02/26_08:55:35,YZ,None,
,,,,,,calibration,0,2,2,788,12,C,0,right,0.4700558890035609,1,0,,,,,,,,,,,,,,,,,,,,,1,,,,,,,,,,,,,,,,,,,,,,,,,,,,,,,,,,,,,,,,,,,,,,78,153511,21,Male,1,2024/02/26_08:55:35,YZ,None,
,,,,,,calibration,0,2,2,788,13,N,1,right,0.4233777619956527,0,0,,,,,,,,,,,,,,,,,,,,,1,,,,,,,,,,,,,,,,,,,,,,,,,,,,,,,,,,,,,,,,,,,,,,78,153511,21,Male,1,2024/02/26_08:55:35,YZ,None,
,,,,,,calibration,0,2,2,788,,,,,,,,0.875,0.5,0.0,1.0,0.3076923076923077,0.6923076923076923,0.6564549352220234,2,0,0,4,4,5,7,4,9,0,,,,1,,,,,,,,,,,,,,,,,,,,,,,,,,,,,,,,,,,,,,,,,,,,,,78,153511,21,Male,1,2024/02/26_08:55:35,YZ,None,
,,,,,,Calibration,0,,2,788,,,,,,,,,,,,,,,,,,,,,,,,,4,,,1,,,,,,,,,,,,,,,,,,,,,,,,,,,,,,,,,,,,,,,,,,,,,,78,153511,21,Male,1,2024/02/26_08:55:35,YZ,None,
,,,,,,calibration,0,19,2,679,1,V,0,None,nan,0,1,,,,,,,,,,,,,,,,,,,,,1,,,,,,,,,,,,,,,,,,,,,,,,,,,,,,,,,,,,,,,,,,,,,,78,153511,21,Male,1,2024/02/26_08:55:35,YZ,None,
,,,,,,calibration,0,19,2,679,2,C,0,None,nan,0,1,,,,,,,,,,,,,,,,,,,,,1,,,,,,,,,,,,,,,,,,,,,,,,,,,,,,,,,,,,,,,,,,,,,,78,153511,21,Male,1,2024/02/26_08:55:35,YZ,None,
,,,,,,calibration,0,19,2,679,3,V,1,left,0.7149187789909774,1,0,,,,,,,,,,,,,,,,,,,,,1,,,,,,,,,,,,,,,,,,,,,,,,,,,,,,,,,,,,,,,,,,,,,,78,153511,21,Male,1,2024/02/26_08:55:35,YZ,None,
,,,,,,calibration,0,19,2,679,4,N,0,right,0.524236817000201,1,0,,,,,,,,,,,,,,,,,,,,,1,,,,,,,,,,,,,,,,,,,,,,,,,,,,,,,,,,,,,,,,,,,,,,78,153511,21,Male,1,2024/02/26_08:55:35,YZ,None,
,,,,,,calibration,0,19,2,679,5,V,1,left,0.5928550730022835,1,0,,,,,,,,,,,,,,,,,,,,,1,,,,,,,,,,,,,,,,,,,,,,,,,,,,,,,,,,,,,,,,,,,,,,78,153511,21,Male,1,2024/02/26_08:55:35,YZ,None,
,,,,,,calibration,0,19,2,679,6,Q,0,right,0.3874019799986854,1,0,,,,,,,,,,,,,,,,,,,,,1,,,,,,,,,,,,,,,,,,,,,,,,,,,,,,,,,,,,,,,,,,,,,,78,153511,21,Male,1,2024/02/26_08:55:35,YZ,None,
,,,,,,calibration,0,19,2,679,7,N,0,left,0.638850643998012,0,0,,,,,,,,,,,,,,,,,,,,,1,,,,,,,,,,,,,,,,,,,,,,,,,,,,,,,,,,,,,,,,,,,,,,78,153511,21,Male,1,2024/02/26_08:55:35,YZ,None,
,,,,,,calibration,0,19,2,679,8,F,0,right,0.43828692300303373,1,0,,,,,,,,,,,,,,,,,,,,,1,,,,,,,,,,,,,,,,,,,,,,,,,,,,,,,,,,,,,,,,,,,,,,78,153511,21,Male,1,2024/02/26_08:55:35,YZ,None,
,,,,,,calibration,0,19,2,679,9,Q,0,right,0.6494703009957448,1,0,,,,,,,,,,,,,,,,,,,,,1,,,,,,,,,,,,,,,,,,,,,,,,,,,,,,,,,,,,,,,,,,,,,,78,153511,21,Male,1,2024/02/26_08:55:35,YZ,None,
,,,,,,calibration,0,19,2,679,10,X,0,right,0.512352669989923,1,0,,,,,,,,,,,,,,,,,,,,,1,,,,,,,,,,,,,,,,,,,,,,,,,,,,,,,,,,,,,,,,,,,,,,78,153511,21,Male,1,2024/02/26_08:55:35,YZ,None,
,,,,,,calibration,0,19,2,679,11,J,0,right,0.41208076701150276,1,0,,,,,,,,,,,,,,,,,,,,,1,,,,,,,,,,,,,,,,,,,,,,,,,,,,,,,,,,,,,,,,,,,,,,78,153511,21,Male,1,2024/02/26_08:55:35,YZ,None,
,,,,,,calibration,0,19,2,679,12,X,1,left,0.4762594740022905,1,0,,,,,,,,,,,,,,,,,,,,,1,,,,,,,,,,,,,,,,,,,,,,,,,,,,,,,,,,,,,,,,,,,,,,78,153511,21,Male,1,2024/02/26_08:55:35,YZ,None,
,,,,,,calibration,0,19,2,679,13,S,0,right,0.4045749830111163,1,0,,,,,,,,,,,,,,,,,,,,,1,,,,,,,,,,,,,,,,,,,,,,,,,,,,,,,,,,,,,,,,,,,,,,78,153511,21,Male,1,2024/02/26_08:55:35,YZ,None,
,,,,,,calibration,0,19,2,679,14,X,1,right,0.4649876770126866,0,0,,,,,,,,,,,,,,,,,,,,,1,,,,,,,,,,,,,,,,,,,,,,,,,,,,,,,,,,,,,,,,,,,,,,78,153511,21,Male,1,2024/02/26_08:55:35,YZ,None,
,,,,,,calibration,0,19,2,679,,,,,,,,0.8875,0.75,0.1,0.875,0.14285714285714285,0.7571428571428571,0.5180230073347047,3,1,0,2,2,7,10,4,10,0,,,,1,,,,,,,,,,,,,,,,,,,,,,,,,,,,,,,,,,,,,,,,,,,,,,78,153511,21,Male,1,2024/02/26_08:55:35,YZ,None,
,,,,,,Calibration,0,,2,679,,,,,,,,,,,,,,,,,,,,,,,,,5,,,1,,,,,,,,,,,,,,,,,,,,,,,,,,,,,,,,,,,,,,,,,,,,,,78,153511,21,Male,1,2024/02/26_08:55:35,YZ,None,
,,,,,,calibration,0,5,2,583,1,V,0,right,0.594322414995986,1,0,,,,,,,,,,,,,,,,,,,,,1,,,,,,,,,,,,,,,,,,,,,,,,,,,,,,,,,,,,,,,,,,,,,,78,153511,21,Male,1,2024/02/26_08:55:35,YZ,None,
,,,,,,calibration,0,5,2,583,2,S,0,right,0.3959944660018664,1,0,,,,,,,,,,,,,,,,,,,,,1,,,,,,,,,,,,,,,,,,,,,,,,,,,,,,,,,,,,,,,,,,,,,,78,153511,21,Male,1,2024/02/26_08:55:35,YZ,None,
,,,,,,calibration,0,5,2,583,3,V,1,right,0.4319453719945159,0,0,,,,,,,,,,,,,,,,,,,,,1,,,,,,,,,,,,,,,,,,,,,,,,,,,,,,,,,,,,,,,,,,,,,,78,153511,21,Male,1,2024/02/26_08:55:35,YZ,None,
,,,,,,calibration,0,5,2,583,4,X,0,right,0.500302405009279,1,0,,,,,,,,,,,,,,,,,,,,,1,,,,,,,,,,,,,,,,,,,,,,,,,,,,,,,,,,,,,,,,,,,,,,78,153511,21,Male,1,2024/02/26_08:55:35,YZ,None,
,,,,,,calibration,0,5,2,583,5,J,0,right,0.4309984860010445,1,0,,,,,,,,,,,,,,,,,,,,,1,,,,,,,,,,,,,,,,,,,,,,,,,,,,,,,,,,,,,,,,,,,,,,78,153511,21,Male,1,2024/02/26_08:55:35,YZ,None,
,,,,,,calibration,0,5,2,583,6,X,1,left,0.35657673100649845,1,0,,,,,,,,,,,,,,,,,,,,,1,,,,,,,,,,,,,,,,,,,,,,,,,,,,,,,,,,,,,,,,,,,,,,78,153511,21,Male,1,2024/02/26_08:55:35,YZ,None,
,,,,,,calibration,0,5,2,583,7,Q,0,right,0.5239803879958345,1,0,,,,,,,,,,,,,,,,,,,,,1,,,,,,,,,,,,,,,,,,,,,,,,,,,,,,,,,,,,,,,,,,,,,,78,153511,21,Male,1,2024/02/26_08:55:35,YZ,None,
,,,,,,calibration,0,5,2,583,8,X,1,right,nan,0,1,,,,,,,,,,,,,,,,,,,,,1,,,,,,,,,,,,,,,,,,,,,,,,,,,,,,,,,,,,,,,,,,,,,,78,153511,21,Male,1,2024/02/26_08:55:35,YZ,None,
,,,,,,calibration,0,5,2,583,9,C,0,right,0.6984205079934327,1,0,,,,,,,,,,,,,,,,,,,,,1,,,,,,,,,,,,,,,,,,,,,,,,,,,,,,,,,,,,,,,,,,,,,,78,153511,21,Male,1,2024/02/26_08:55:35,YZ,None,
,,,,,,calibration,0,5,2,583,10,X,1,left,0.5416357460053405,1,0,,,,,,,,,,,,,,,,,,,,,1,,,,,,,,,,,,,,,,,,,,,,,,,,,,,,,,,,,,,,,,,,,,,,78,153511,21,Male,1,2024/02/26_08:55:35,YZ,None,
,,,,,,calibration,0,5,2,583,11,C,1,right,0.4039844409999205,0,0,,,,,,,,,,,,,,,,,,,,,1,,,,,,,,,,,,,,,,,,,,,,,,,,,,,,,,,,,,,,,,,,,,,,78,153511,21,Male,1,2024/02/26_08:55:35,YZ,None,
,,,,,,calibration,0,5,2,583,12,Q,0,right,0.4373576910002157,1,0,,,,,,,,,,,,,,,,,,,,,1,,,,,,,,,,,,,,,,,,,,,,,,,,,,,,,,,,,,,,,,,,,,,,78,153511,21,Male,1,2024/02/26_08:55:35,YZ,None,
,,,,,,calibration,0,5,2,583,13,J,0,right,0.4479524600028526,1,0,,,,,,,,,,,,,,,,,,,,,1,,,,,,,,,,,,,,,,,,,,,,,,,,,,,,,,,,,,,,,,,,,,,,78,153511,21,Male,1,2024/02/26_08:55:35,YZ,None,
,,,,,,calibration,0,5,2,583,14,S,0,left,0.5490655989997322,0,0,,,,,,,,,,,,,,,,,,,,,1,,,,,,,,,,,,,,,,,,,,,,,,,,,,,,,,,,,,,,,,,,,,,,78,153511,21,Male,1,2024/02/26_08:55:35,YZ,None,
,,,,,,calibration,0,5,2,583,15,Q,0,right,0.48271699200267904,1,0,,,,,,,,,,,,,,,,,,,,,1,,,,,,,,,,,,,,,,,,,,,,,,,,,,,,,,,,,,,,,,,,,,,,78,153511,21,Male,1,2024/02/26_08:55:35,YZ,None,
,,,,,,calibration,0,5,2,583,,,,,,,,0.7625,0.4,0.1,0.9,0.06666666666666667,0.8333333333333334,0.4853752642863713,2,1,1,0,1,9,11,5,10,0,,,,1,,,,,,,,,,,,,,,,,,,,,,,,,,,,,,,,,,,,,,,,,,,,,,78,153511,21,Male,1,2024/02/26_08:55:35,YZ,None,
,,,,,,Calibration,0,,2,583,,,,,,,,,,,,,,,,,,,,,,,,,6,,,1,,,,,,,,,,,,,,,,,,,,,,,,,,,,,,,,,,,,,,,,,,,,,,78,153511,21,Male,1,2024/02/26_08:55:35,YZ,None,
,,,,,,calibration,0,33,2,583,1,V,0,right,0.5382530159986345,1,0,,,,,,,,,,,,,,,,,,,,,1,,,,,,,,,,,,,,,,,,,,,,,,,,,,,,,,,,,,,,,,,,,,,,78,153511,21,Male,1,2024/02/26_08:55:35,YZ,None,
,,,,,,calibration,0,33,2,583,2,Q,0,right,0.5126086520031095,1,0,,,,,,,,,,,,,,,,,,,,,1,,,,,,,,,,,,,,,,,,,,,,,,,,,,,,,,,,,,,,,,,,,,,,78,153511,21,Male,1,2024/02/26_08:55:35,YZ,None,
,,,,,,calibration,0,33,2,583,3,C,0,right,0.4256417480064556,1,0,,,,,,,,,,,,,,,,,,,,,1,,,,,,,,,,,,,,,,,,,,,,,,,,,,,,,,,,,,,,,,,,,,,,78,153511,21,Male,1,2024/02/26_08:55:35,YZ,None,
,,,,,,calibration,0,33,2,583,4,Q,1,right,0.3724597230029758,0,0,,,,,,,,,,,,,,,,,,,,,1,,,,,,,,,,,,,,,,,,,,,,,,,,,,,,,,,,,,,,,,,,,,,,78,153511,21,Male,1,2024/02/26_08:55:35,YZ,None,
,,,,,,calibration,0,33,2,583,5,F,0,right,0.4803012699994724,1,0,,,,,,,,,,,,,,,,,,,,,1,,,,,,,,,,,,,,,,,,,,,,,,,,,,,,,,,,,,,,,,,,,,,,78,153511,21,Male,1,2024/02/26_08:55:35,YZ,None,
,,,,,,calibration,0,33,2,583,6,X,0,right,0.48446960499859415,1,0,,,,,,,,,,,,,,,,,,,,,1,,,,,,,,,,,,,,,,,,,,,,,,,,,,,,,,,,,,,,,,,,,,,,78,153511,21,Male,1,2024/02/26_08:55:35,YZ,None,
,,,,,,calibration,0,33,2,583,7,F,1,left,0.5949160180025501,1,0,,,,,,,,,,,,,,,,,,,,,1,,,,,,,,,,,,,,,,,,,,,,,,,,,,,,,,,,,,,,,,,,,,,,78,153511,21,Male,1,2024/02/26_08:55:35,YZ,None,
,,,,,,calibration,0,33,2,583,8,C,0,right,0.4093555579893291,1,0,,,,,,,,,,,,,,,,,,,,,1,,,,,,,,,,,,,,,,,,,,,,,,,,,,,,,,,,,,,,,,,,,,,,78,153511,21,Male,1,2024/02/26_08:55:35,YZ,None,
,,,,,,calibration,0,33,2,583,9,X,0,right,0.3693281179876067,1,0,,,,,,,,,,,,,,,,,,,,,1,,,,,,,,,,,,,,,,,,,,,,,,,,,,,,,,,,,,,,,,,,,,,,78,153511,21,Male,1,2024/02/26_08:55:35,YZ,None,
,,,,,,calibration,0,33,2,583,10,Q,0,right,0.45229844900313765,1,0,,,,,,,,,,,,,,,,,,,,,1,,,,,,,,,,,,,,,,,,,,,,,,,,,,,,,,,,,,,,,,,,,,,,78,153511,21,Male,1,2024/02/26_08:55:35,YZ,None,
,,,,,,calibration,0,33,2,583,11,V,0,right,0.5257414799998514,1,0,,,,,,,,,,,,,,,,,,,,,1,,,,,,,,,,,,,,,,,,,,,,,,,,,,,,,,,,,,,,,,,,,,,,78,153511,21,Male,1,2024/02/26_08:55:35,YZ,None,
,,,,,,calibration,0,33,2,583,12,F,0,right,0.45917816799192224,1,0,,,,,,,,,,,,,,,,,,,,,1,,,,,,,,,,,,,,,,,,,,,,,,,,,,,,,,,,,,,,,,,,,,,,78,153511,21,Male,1,2024/02/26_08:55:35,YZ,None,
,,,,,,calibration,0,33,2,583,13,V,1,right,0.4652482010133099,0,0,,,,,,,,,,,,,,,,,,,,,1,,,,,,,,,,,,,,,,,,,,,,,,,,,,,,,,,,,,,,,,,,,,,,78,153511,21,Male,1,2024/02/26_08:55:35,YZ,None,
,,,,,,calibration,0,33,2,583,14,J,0,right,0.4650471339991782,1,0,,,,,,,,,,,,,,,,,,,,,1,,,,,,,,,,,,,,,,,,,,,,,,,,,,,,,,,,,,,,,,,,,,,,78,153511,21,Male,1,2024/02/26_08:55:35,YZ,None,
,,,,,,calibration,0,33,2,583,15,V,1,left,0.46489669498987496,1,0,,,,,,,,,,,,,,,,,,,,,1,,,,,,,,,,,,,,,,,,,,,,,,,,,,,,,,,,,,,,,,,,,,,,78,153511,21,Male,1,2024/02/26_08:55:35,YZ,None,
,,,,,,calibration,0,33,2,583,,,,,,,,0.875,0.5,0.0,1.0,0.0,1.0,0.46798292233240013,2,0,0,0,0,11,13,4,11,0,,,,1,,,,,,,,,,,,,,,,,,,,,,,,,,,,,,,,,,,,,,,,,,,,,,78,153511,21,Male,1,2024/02/26_08:55:35,YZ,None,
,,,,,,Calibration,0,,2,583,,,,,,,,,,,,,,,,,,,,,,,,,7,,,1,,,,,,,,,,,,,,,,,,,,,,,,,,,,,,,,,,,,,,,,,,,,,,78,153511,21,Male,1,2024/02/26_08:55:35,YZ,None,
,,,,,,calibration,0,18,2,500,1,F,0,right,0.4410917570057791,1,0,,,,,,,,,,,,,,,,,,,,,1,,,,,,,,,,,,,,,,,,,,,,,,,,,,,,,,,,,,,,,,,,,,,,78,153511,21,Male,1,2024/02/26_08:55:35,YZ,None,
,,,,,,calibration,0,18,2,500,2,J,0,right,0.32966620101069566,1,0,,,,,,,,,,,,,,,,,,,,,1,,,,,,,,,,,,,,,,,,,,,,,,,,,,,,,,,,,,,,,,,,,,,,78,153511,21,Male,1,2024/02/26_08:55:35,YZ,None,
,,,,,,calibration,0,18,2,500,3,Q,0,right,0.35674015199765563,1,0,,,,,,,,,,,,,,,,,,,,,1,,,,,,,,,,,,,,,,,,,,,,,,,,,,,,,,,,,,,,,,,,,,,,78,153511,21,Male,1,2024/02/26_08:55:35,YZ,None,
,,,,,,calibration,0,18,2,500,4,C,0,right,0.3727985610021278,1,0,,,,,,,,,,,,,,,,,,,,,1,,,,,,,,,,,,,,,,,,,,,,,,,,,,,,,,,,,,,,,,,,,,,,78,153511,21,Male,1,2024/02/26_08:55:35,YZ,None,
,,,,,,calibration,0,18,2,500,5,V,0,right,0.3685652959975414,1,0,,,,,,,,,,,,,,,,,,,,,1,,,,,,,,,,,,,,,,,,,,,,,,,,,,,,,,,,,,,,,,,,,,,,78,153511,21,Male,1,2024/02/26_08:55:35,YZ,None,
,,,,,,calibration,0,18,2,500,6,C,1,left,0.6368307070079027,1,0,,,,,,,,,,,,,,,,,,,,,1,,,,,,,,,,,,,,,,,,,,,,,,,,,,,,,,,,,,,,,,,,,,,,78,153511,21,Male,1,2024/02/26_08:55:35,YZ,None,
,,,,,,calibration,0,18,2,500,7,Q,0,right,0.4185795099911047,1,0,,,,,,,,,,,,,,,,,,,,,1,,,,,,,,,,,,,,,,,,,,,,,,,,,,,,,,,,,,,,,,,,,,,,78,153511,21,Male,1,2024/02/26_08:55:35,YZ,None,
,,,,,,calibration,0,18,2,500,8,J,0,right,0.3752090699999826,1,0,,,,,,,,,,,,,,,,,,,,,1,,,,,,,,,,,,,,,,,,,,,,,,,,,,,,,,,,,,,,,,,,,,,,78,153511,21,Male,1,2024/02/26_08:55:35,YZ,None,
,,,,,,calibration,0,18,2,500,9,N,0,right,0.39940542000113055,1,0,,,,,,,,,,,,,,,,,,,,,1,,,,,,,,,,,,,,,,,,,,,,,,,,,,,,,,,,,,,,,,,,,,,,78,153511,21,Male,1,2024/02/26_08:55:35,YZ,None,
,,,,,,calibration,0,18,2,500,10,J,1,left,0.48112308599229436,1,0,,,,,,,,,,,,,,,,,,,,,1,,,,,,,,,,,,,,,,,,,,,,,,,,,,,,,,,,,,,,,,,,,,,,78,153511,21,Male,1,2024/02/26_08:55:35,YZ,None,
,,,,,,calibration,0,18,2,500,11,X,0,right,0.3526075309928274,1,0,,,,,,,,,,,,,,,,,,,,,1,,,,,,,,,,,,,,,,,,,,,,,,,,,,,,,,,,,,,,,,,,,,,,78,153511,21,Male,1,2024/02/26_08:55:35,YZ,None,
,,,,,,calibration,0,18,2,500,12,V,0,right,0.37599586500437,1,0,,,,,,,,,,,,,,,,,,,,,1,,,,,,,,,,,,,,,,,,,,,,,,,,,,,,,,,,,,,,,,,,,,,,78,153511,21,Male,1,2024/02/26_08:55:35,YZ,None,
,,,,,,calibration,0,18,2,500,13,S,0,right,0.3601947989955079,1,0,,,,,,,,,,,,,,,,,,,,,1,,,,,,,,,,,,,,,,,,,,,,,,,,,,,,,,,,,,,,,,,,,,,,78,153511,21,Male,1,2024/02/26_08:55:35,YZ,None,
,,,,,,calibration,0,18,2,500,14,V,1,left,0.42828265800199006,1,0,,,,,,,,,,,,,,,,,,,,,1,,,,,,,,,,,,,,,,,,,,,,,,,,,,,,,,,,,,,,,,,,,,,,78,153511,21,Male,1,2024/02/26_08:55:35,YZ,None,
,,,,,,calibration,0,18,2,500,15,J,0,right,0.3401696969958721,1,0,,,,,,,,,,,,,,,,,,,,,1,,,,,,,,,,,,,,,,,,,,,,,,,,,,,,,,,,,,,,,,,,,,,,78,153511,21,Male,1,2024/02/26_08:55:35,YZ,None,
,,,,,,calibration,0,18,2,500,16,V,1,right,0.36958967699320056,0,0,,,,,,,,,,,,,,,,,,,,,1,,,,,,,,,,,,,,,,,,,,,,,,,,,,,,,,,,,,,,,,,,,,,,78,153511,21,Male,1,2024/02/26_08:55:35,YZ,None,
,,,,,,calibration,0,18,2,500,,,,,,,,0.9375,0.75,0.0,1.0,0.0,1.0,0.4004281241868739,3,0,0,0,0,12,15,4,12,0,,,,1,,,,,,,,,,,,,,,,,,,,,,,,,,,,,,,,,,,,,,,,,,,,,,78,153511,21,Male,1,2024/02/26_08:55:35,YZ,None,
,,,,,,Calibration,0,,2,500,,,,,,,,,,,,,,,,,,,,,,,,,8,,,1,,,,,,,,,,,,,,,,,,,,,,,,,,,,,,,,,,,,,,,,,,,,,,78,153511,21,Male,1,2024/02/26_08:55:35,YZ,None,
,,,,,,calibration,0,36,2,426,1,J,0,right,0.5915862190013286,1,0,,,,,,,,,,,,,,,,,,,,,1,,,,,,,,,,,,,,,,,,,,,,,,,,,,,,,,,,,,,,,,,,,,,,78,153511,21,Male,1,2024/02/26_08:55:35,YZ,None,
,,,,,,calibration,0,36,2,426,2,F,0,right,nan,0,1,,,,,,,,,,,,,,,,,,,,,1,,,,,,,,,,,,,,,,,,,,,,,,,,,,,,,,,,,,,,,,,,,,,,78,153511,21,Male,1,2024/02/26_08:55:35,YZ,None,
,,,,,,calibration,0,36,2,426,3,S,0,right,0.8740873460046714,1,0,,,,,,,,,,,,,,,,,,,,,1,,,,,,,,,,,,,,,,,,,,,,,,,,,,,,,,,,,,,,,,,,,,,,78,153511,21,Male,1,2024/02/26_08:55:35,YZ,None,
,,,,,,calibration,0,36,2,426,4,F,1,right,0.3178729170031147,0,0,,,,,,,,,,,,,,,,,,,,,1,,,,,,,,,,,,,,,,,,,,,,,,,,,,,,,,,,,,,,,,,,,,,,78,153511,21,Male,1,2024/02/26_08:55:35,YZ,None,
,,,,,,calibration,0,36,2,426,5,V,0,right,0.4639635040075518,1,0,,,,,,,,,,,,,,,,,,,,,1,,,,,,,,,,,,,,,,,,,,,,,,,,,,,,,,,,,,,,,,,,,,,,78,153511,21,Male,1,2024/02/26_08:55:35,YZ,None,
,,,,,,calibration,0,36,2,426,6,C,0,right,0.3401209940057015,1,0,,,,,,,,,,,,,,,,,,,,,1,,,,,,,,,,,,,,,,,,,,,,,,,,,,,,,,,,,,,,,,,,,,,,78,153511,21,Male,1,2024/02/26_08:55:35,YZ,None,
,,,,,,calibration,0,36,2,426,7,J,0,right,0.35400261099857744,1,0,,,,,,,,,,,,,,,,,,,,,1,,,,,,,,,,,,,,,,,,,,,,,,,,,,,,,,,,,,,,,,,,,,,,78,153511,21,Male,1,2024/02/26_08:55:35,YZ,None,
,,,,,,calibration,0,36,2,426,8,Q,0,right,0.48720423100166954,1,0,,,,,,,,,,,,,,,,,,,,,1,,,,,,,,,,,,,,,,,,,,,,,,,,,,,,,,,,,,,,,,,,,,,,78,153511,21,Male,1,2024/02/26_08:55:35,YZ,None,
,,,,,,calibration,0,36,2,426,9,V,0,left,0.47928017300728243,0,0,,,,,,,,,,,,,,,,,,,,,1,,,,,,,,,,,,,,,,,,,,,,,,,,,,,,,,,,,,,,,,,,,,,,78,153511,21,Male,1,2024/02/26_08:55:35,YZ,None,
,,,,,,calibration,0,36,2,426,10,X,0,right,0.4118270089966245,1,0,,,,,,,,,,,,,,,,,,,,,1,,,,,,,,,,,,,,,,,,,,,,,,,,,,,,,,,,,,,,,,,,,,,,78,153511,21,Male,1,2024/02/26_08:55:35,YZ,None,
,,,,,,calibration,0,36,2,426,11,V,1,left,0.6060092830011854,1,0,,,,,,,,,,,,,,,,,,,,,1,,,,,,,,,,,,,,,,,,,,,,,,,,,,,,,,,,,,,,,,,,,,,,78,153511,21,Male,1,2024/02/26_08:55:35,YZ,None,
,,,,,,calibration,0,36,2,426,12,S,0,right,0.4614779960102169,1,0,,,,,,,,,,,,,,,,,,,,,1,,,,,,,,,,,,,,,,,,,,,,,,,,,,,,,,,,,,,,,,,,,,,,78,153511,21,Male,1,2024/02/26_08:55:35,YZ,None,
,,,,,,calibration,0,36,2,426,13,V,1,left,0.40879460900032427,1,0,,,,,,,,,,,,,,,,,,,,,1,,,,,,,,,,,,,,,,,,,,,,,,,,,,,,,,,,,,,,,,,,,,,,78,153511,21,Male,1,2024/02/26_08:55:35,YZ,None,
,,,,,,calibration,0,36,2,426,14,N,0,right,0.3995897279964993,1,0,,,,,,,,,,,,,,,,,,,,,1,,,,,,,,,,,,,,,,,,,,,,,,,,,,,,,,,,,,,,,,,,,,,,78,153511,21,Male,1,2024/02/26_08:55:35,YZ,None,
,,,,,,calibration,0,36,2,426,15,V,1,left,0.4045571370079415,1,0,,,,,,,,,,,,,,,,,,,,,1,,,,,,,,,,,,,,,,,,,,,,,,,,,,,,,,,,,,,,,,,,,,,,78,153511,21,Male,1,2024/02/26_08:55:35,YZ,None,
,,,,,,calibration,0,36,2,426,16,N,1,right,0.4240990310063353,0,0,,,,,,,,,,,,,,,,,,,,,1,,,,,,,,,,,,,,,,,,,,,,,,,,,,,,,,,,,,,,,,,,,,,,78,153511,21,Male,1,2024/02/26_08:55:35,YZ,None,
,,,,,,calibration,0,36,2,426,17,C,0,right,0.4413225050084293,1,0,,,,,,,,,,,,,,,,,,,,,1,,,,,,,,,,,,,,,,,,,,,,,,,,,,,,,,,,,,,,,,,,,,,,78,153511,21,Male,1,2024/02/26_08:55:35,YZ,None,
,,,,,,calibration,0,36,2,426,,,,,,,,0.8458333333333333,0.6,0.08333333333333333,0.9090909090909091,0.058823529411764705,0.8578431372549019,0.46661220581609086,3,1,0,1,1,10,13,5,12,0,,,,1,,,,,,,,,,,,,,,,,,,,,,,,,,,,,,,,,,,,,,,,,,,,,,78,153511,21,Male,1,2024/02/26_08:55:35,YZ,None,
,,,,,,Calibration,0,,2,426,,,,,,,,,,,,,,,,,,,,,,,,,9,,,1,,,,,,,,,,,,,,,,,,,,,,,,,,,,,,,,,,,,,,,,,,,,,,78,153511,21,Male,1,2024/02/26_08:55:35,YZ,None,
,,,,,,calibration,0,26,2,426,1,N,0,right,0.6630970589903882,1,0,,,,,,,,,,,,,,,,,,,,,1,,,,,,,,,,,,,,,,,,,,,,,,,,,,,,,,,,,,,,,,,,,,,,78,153511,21,Male,1,2024/02/26_08:55:35,YZ,None,
,,,,,,calibration,0,26,2,426,2,F,0,right,0.38679651101119816,1,0,,,,,,,,,,,,,,,,,,,,,1,,,,,,,,,,,,,,,,,,,,,,,,,,,,,,,,,,,,,,,,,,,,,,78,153511,21,Male,1,2024/02/26_08:55:35,YZ,None,
,,,,,,calibration,0,26,2,426,3,N,1,right,0.3892858100007288,0,0,,,,,,,,,,,,,,,,,,,,,1,,,,,,,,,,,,,,,,,,,,,,,,,,,,,,,,,,,,,,,,,,,,,,78,153511,21,Male,1,2024/02/26_08:55:35,YZ,None,
,,,,,,calibration,0,26,2,426,4,S,0,right,0.43213017098605633,1,0,,,,,,,,,,,,,,,,,,,,,1,,,,,,,,,,,,,,,,,,,,,,,,,,,,,,,,,,,,,,,,,,,,,,78,153511,21,Male,1,2024/02/26_08:55:35,YZ,None,
,,,,,,calibration,0,26,2,426,5,V,0,right,0.33279332899837755,1,0,,,,,,,,,,,,,,,,,,,,,1,,,,,,,,,,,,,,,,,,,,,,,,,,,,,,,,,,,,,,,,,,,,,,78,153511,21,Male,1,2024/02/26_08:55:35,YZ,None,
,,,,,,calibration,0,26,2,426,6,Q,0,right,0.4149765480105998,1,0,,,,,,,,,,,,,,,,,,,,,1,,,,,,,,,,,,,,,,,,,,,,,,,,,,,,,,,,,,,,,,,,,,,,78,153511,21,Male,1,2024/02/26_08:55:35,YZ,None,
,,,,,,calibration,0,26,2,426,7,V,1,right,0.49305029200331774,0,0,,,,,,,,,,,,,,,,,,,,,1,,,,,,,,,,,,,,,,,,,,,,,,,,,,,,,,,,,,,,,,,,,,,,78,153511,21,Male,1,2024/02/26_08:55:35,YZ,None,
,,,,,,calibration,0,26,2,426,8,Q,1,right,0.37994697500835173,0,0,,,,,,,,,,,,,,,,,,,,,1,,,,,,,,,,,,,,,,,,,,,,,,,,,,,,,,,,,,,,,,,,,,,,78,153511,21,Male,1,2024/02/26_08:55:35,YZ,None,
,,,,,,calibration,0,26,2,426,9,J,0,right,0.38555771599931177,1,0,,,,,,,,,,,,,,,,,,,,,1,,,,,,,,,,,,,,,,,,,,,,,,,,,,,,,,,,,,,,,,,,,,,,78,153511,21,Male,1,2024/02/26_08:55:35,YZ,None,
,,,,,,calibration,0,26,2,426,10,S,0,right,0.42874268000014126,1,0,,,,,,,,,,,,,,,,,,,,,1,,,,,,,,,,,,,,,,,,,,,,,,,,,,,,,,,,,,,,,,,,,,,,78,153511,21,Male,1,2024/02/26_08:55:35,YZ,None,
,,,,,,calibration,0,26,2,426,11,J,1,right,0.49274614099704195,0,0,,,,,,,,,,,,,,,,,,,,,1,,,,,,,,,,,,,,,,,,,,,,,,,,,,,,,,,,,,,,,,,,,,,,78,153511,21,Male,1,2024/02/26_08:55:35,YZ,None,
,,,,,,calibration,0,26,2,426,12,V,0,right,0.5239216180052608,1,0,,,,,,,,,,,,,,,,,,,,,1,,,,,,,,,,,,,,,,,,,,,,,,,,,,,,,,,,,,,,,,,,,,,,78,153511,21,Male,1,2024/02/26_08:55:35,YZ,None,
,,,,,,calibration,0,26,2,426,13,X,0,right,0.40265808001277037,1,0,,,,,,,,,,,,,,,,,,,,,1,,,,,,,,,,,,,,,,,,,,,,,,,,,,,,,,,,,,,,,,,,,,,,78,153511,21,Male,1,2024/02/26_08:55:35,YZ,None,
,,,,,,calibration,0,26,2,426,14,V,1,right,0.40459652300341986,0,0,,,,,,,,,,,,,,,,,,,,,1,,,,,,,,,,,,,,,,,,,,,,,,,,,,,,,,,,,,,,,,,,,,,,78,153511,21,Male,1,2024/02/26_08:55:35,YZ,None,
,,,,,,calibration,0,26,2,426,15,F,0,right,0.3680814230028773,1,0,,,,,,,,,,,,,,,,,,,,,1,,,,,,,,,,,,,,,,,,,,,,,,,,,,,,,,,,,,,,,,,,,,,,78,153511,21,Male,1,2024/02/26_08:55:35,YZ,None,
,,,,,,calibration,0,26,2,426,16,S,0,right,0.2652253709966317,1,0,,,,,,,,,,,,,,,,,,,,,1,,,,,,,,,,,,,,,,,,,,,,,,,,,,,,,,,,,,,,,,,,,,,,78,153511,21,Male,1,2024/02/26_08:55:35,YZ,None,
,,,,,,calibration,0,26,2,426,17,J,0,right,0.39183939900249243,1,0,,,,,,,,,,,,,,,,,,,,,1,,,,,,,,,,,,,,,,,,,,,,,,,,,,,,,,,,,,,,,,,,,,,,78,153511,21,Male,1,2024/02/26_08:55:35,YZ,None,
,,,,,,calibration,0,26,2,426,,,,,,,,0.5,0.0,0.0,1.0,0.0,1.0,0.42090856741346855,0,0,0,0,0,12,12,5,12,0,,,,1,,,,,,,,,,,,,,,,,,,,,,,,,,,,,,,,,,,,,,,,,,,,,,78,153511,21,Male,1,2024/02/26_08:55:35,YZ,None,
,,,,,,Calibration,0,,2,426,,,,,,,,,,,,,,,,,,,,,,,,,10,,,1,,,,,,,,,,,,,,,,,,,,,,,,,,,,,,,,,,,,,,,,,,,,,,78,153511,21,Male,1,2024/02/26_08:55:35,YZ,None,
,,,,,,calibration,0,31,2,500,1,V,0,right,0.48165483500633854,1,0,,,,,,,,,,,,,,,,,,,,,1,,,,,,,,,,,,,,,,,,,,,,,,,,,,,,,,,,,,,,,,,,,,,,78,153511,21,Male,1,2024/02/26_08:55:35,YZ,None,
,,,,,,calibration,0,31,2,500,2,N,0,right,0.23418047599261627,1,0,,,,,,,,,,,,,,,,,,,,,1,,,,,,,,,,,,,,,,,,,,,,,,,,,,,,,,,,,,,,,,,,,,,,78,153511,21,Male,1,2024/02/26_08:55:35,YZ,None,
,,,,,,calibration,0,31,2,500,3,F,0,right,0.46244851499795914,1,0,,,,,,,,,,,,,,,,,,,,,1,,,,,,,,,,,,,,,,,,,,,,,,,,,,,,,,,,,,,,,,,,,,,,78,153511,21,Male,1,2024/02/26_08:55:35,YZ,None,
,,,,,,calibration,0,31,2,500,4,N,1,right,0.43711370100209024,0,0,,,,,,,,,,,,,,,,,,,,,1,,,,,,,,,,,,,,,,,,,,,,,,,,,,,,,,,,,,,,,,,,,,,,78,153511,21,Male,1,2024/02/26_08:55:35,YZ,None,
,,,,,,calibration,0,31,2,500,5,S,0,right,0.3434178180032177,1,0,,,,,,,,,,,,,,,,,,,,,1,,,,,,,,,,,,,,,,,,,,,,,,,,,,,,,,,,,,,,,,,,,,,,78,153511,21,Male,1,2024/02/26_08:55:35,YZ,None,
,,,,,,calibration,0,31,2,500,6,Q,0,right,0.4645937559980666,1,0,,,,,,,,,,,,,,,,,,,,,1,,,,,,,,,,,,,,,,,,,,,,,,,,,,,,,,,,,,,,,,,,,,,,78,153511,21,Male,1,2024/02/26_08:55:35,YZ,None,
,,,,,,calibration,0,31,2,500,7,N,0,right,0.433320268013631,1,0,,,,,,,,,,,,,,,,,,,,,1,,,,,,,,,,,,,,,,,,,,,,,,,,,,,,,,,,,,,,,,,,,,,,78,153511,21,Male,1,2024/02/26_08:55:35,YZ,None,
,,,,,,calibration,0,31,2,500,8,Q,1,right,0.36907044899999164,0,0,,,,,,,,,,,,,,,,,,,,,1,,,,,,,,,,,,,,,,,,,,,,,,,,,,,,,,,,,,,,,,,,,,,,78,153511,21,Male,1,2024/02/26_08:55:35,YZ,None,
,,,,,,calibration,0,31,2,500,9,J,0,right,0.5261353279929608,1,0,,,,,,,,,,,,,,,,,,,,,1,,,,,,,,,,,,,,,,,,,,,,,,,,,,,,,,,,,,,,,,,,,,,,78,153511,21,Male,1,2024/02/26_08:55:35,YZ,None,
,,,,,,calibration,0,31,2,500,10,Q,1,right,0.45747604699863587,0,0,,,,,,,,,,,,,,,,,,,,,1,,,,,,,,,,,,,,,,,,,,,,,,,,,,,,,,,,,,,,,,,,,,,,78,153511,21,Male,1,2024/02/26_08:55:35,YZ,None,
,,,,,,calibration,0,31,2,500,11,J,1,right,0.4738136009982554,0,0,,,,,,,,,,,,,,,,,,,,,1,,,,,,,,,,,,,,,,,,,,,,,,,,,,,,,,,,,,,,,,,,,,,,78,153511,21,Male,1,2024/02/26_08:55:35,YZ,None,
,,,,,,calibration,0,31,2,500,12,X,0,right,0.4010678269987693,1,0,,,,,,,,,,,,,,,,,,,,,1,,,,,,,,,,,,,,,,,,,,,,,,,,,,,,,,,,,,,,,,,,,,,,78,153511,21,Male,1,2024/02/26_08:55:35,YZ,None,
,,,,,,calibration,0,31,2,500,13,S,0,right,0.3843827889941167,1,0,,,,,,,,,,,,,,,,,,,,,1,,,,,,,,,,,,,,,,,,,,,,,,,,,,,,,,,,,,,,,,,,,,,,78,153511,21,Male,1,2024/02/26_08:55:35,YZ,None,
,,,,,,calibration,0,31,2,500,14,Q,0,right,0.42881329800002277,1,0,,,,,,,,,,,,,,,,,,,,,1,,,,,,,,,,,,,,,,,,,,,,,,,,,,,,,,,,,,,,,,,,,,,,78,153511,21,Male,1,2024/02/26_08:55:35,YZ,None,
,,,,,,calibration,0,31,2,500,15,S,1,left,0.621692744010943,1,0,,,,,,,,,,,,,,,,,,,,,1,,,,,,,,,,,,,,,,,,,,,,,,,,,,,,,,,,,,,,,,,,,,,,78,153511,21,Male,1,2024/02/26_08:55:35,YZ,None,
,,,,,,calibration,0,31,2,500,16,J,0,right,0.5778689699945971,1,0,,,,,,,,,,,,,,,,,,,,,1,,,,,,,,,,,,,,,,,,,,,,,,,,,,,,,,,,,,,,,,,,,,,,78,153511,21,Male,1,2024/02/26_08:55:35,YZ,None,
,,,,,,calibration,0,31,2,500,,,,,,,,0.8,0.2,0.0,1.0,0.0,1.0,0.44356565137513826,1,0,0,0,0,11,12,5,11,0,,,,1,,,,,,,,,,,,,,,,,,,,,,,,,,,,,,,,,,,,,,,,,,,,,,78,153511,21,Male,1,2024/02/26_08:55:35,YZ,None,
,,,,,,Calibration,0,,2,500,,,,,,,,,,,,,,,,,,,,,,,,,11,,,1,,,,,,,,,,,,,,,,,,,,,,,,,,,,,,,,,,,,,,,,,,,,,,78,153511,21,Male,1,2024/02/26_08:55:35,YZ,None,
,,,,,,calibration,0,32,2,500,1,V,0,None,nan,0,1,,,,,,,,,,,,,,,,,,,,,1,,,,,,,,,,,,,,,,,,,,,,,,,,,,,,,,,,,,,,,,,,,,,,78,153511,21,Male,1,2024/02/26_08:55:35,YZ,None,
,,,,,,calibration,0,32,2,500,2,S,0,None,nan,0,1,,,,,,,,,,,,,,,,,,,,,1,,,,,,,,,,,,,,,,,,,,,,,,,,,,,,,,,,,,,,,,,,,,,,78,153511,21,Male,1,2024/02/26_08:55:35,YZ,None,
,,,,,,calibration,0,32,2,500,3,J,0,None,nan,0,1,,,,,,,,,,,,,,,,,,,,,1,,,,,,,,,,,,,,,,,,,,,,,,,,,,,,,,,,,,,,,,,,,,,,78,153511,21,Male,1,2024/02/26_08:55:35,YZ,None,
,,,,,,calibration,0,32,2,500,4,Q,0,None,nan,0,1,,,,,,,,,,,,,,,,,,,,,1,,,,,,,,,,,,,,,,,,,,,,,,,,,,,,,,,,,,,,,,,,,,,,78,153511,21,Male,1,2024/02/26_08:55:35,YZ,None,
,,,,,,calibration,0,32,2,500,5,J,1,None,nan,0,1,,,,,,,,,,,,,,,,,,,,,1,,,,,,,,,,,,,,,,,,,,,,,,,,,,,,,,,,,,,,,,,,,,,,78,153511,21,Male,1,2024/02/26_08:55:35,YZ,None,
,,,,,,calibration,0,32,2,500,6,Q,1,None,nan,0,1,,,,,,,,,,,,,,,,,,,,,1,,,,,,,,,,,,,,,,,,,,,,,,,,,,,,,,,,,,,,,,,,,,,,78,153511,21,Male,1,2024/02/26_08:55:35,YZ,None,
,,,,,,calibration,0,32,2,500,7,V,0,None,nan,0,1,,,,,,,,,,,,,,,,,,,,,1,,,,,,,,,,,,,,,,,,,,,,,,,,,,,,,,,,,,,,,,,,,,,,78,153511,21,Male,1,2024/02/26_08:55:35,YZ,None,
,,,,,,calibration,0,32,2,500,8,N,0,None,nan,0,1,,,,,,,,,,,,,,,,,,,,,1,,,,,,,,,,,,,,,,,,,,,,,,,,,,,,,,,,,,,,,,,,,,,,78,153511,21,Male,1,2024/02/26_08:55:35,YZ,None,
,,,,,,calibration,0,32,2,500,9,V,1,None,nan,0,1,,,,,,,,,,,,,,,,,,,,,1,,,,,,,,,,,,,,,,,,,,,,,,,,,,,,,,,,,,,,,,,,,,,,78,153511,21,Male,1,2024/02/26_08:55:35,YZ,None,
,,,,,,calibration,0,32,2,500,10,X,0,None,nan,0,1,,,,,,,,,,,,,,,,,,,,,1,,,,,,,,,,,,,,,,,,,,,,,,,,,,,,,,,,,,,,,,,,,,,,78,153511,21,Male,1,2024/02/26_08:55:35,YZ,None,
,,,,,,calibration,0,32,2,500,11,V,1,None,nan,0,1,,,,,,,,,,,,,,,,,,,,,1,,,,,,,,,,,,,,,,,,,,,,,,,,,,,,,,,,,,,,,,,,,,,,78,153511,21,Male,1,2024/02/26_08:55:35,YZ,None,
,,,,,,calibration,0,32,2,500,12,F,0,None,nan,0,1,,,,,,,,,,,,,,,,,,,,,1,,,,,,,,,,,,,,,,,,,,,,,,,,,,,,,,,,,,,,,,,,,,,,78,153511,21,Male,1,2024/02/26_08:55:35,YZ,None,
,,,,,,calibration,0,32,2,500,13,C,0,None,nan,0,1,,,,,,,,,,,,,,,,,,,,,1,,,,,,,,,,,,,,,,,,,,,,,,,,,,,,,,,,,,,,,,,,,,,,78,153511,21,Male,1,2024/02/26_08:55:35,YZ,None,
,,,,,,calibration,0,32,2,500,14,N,0,None,nan,0,1,,,,,,,,,,,,,,,,,,,,,1,,,,,,,,,,,,,,,,,,,,,,,,,,,,,,,,,,,,,,,,,,,,,,78,153511,21,Male,1,2024/02/26_08:55:35,YZ,None,
,,,,,,calibration,0,32,2,500,15,C,1,right,0.5310382340103388,0,0,,,,,,,,,,,,,,,,,,,,,1,,,,,,,,,,,,,,,,,,,,,,,,,,,,,,,,,,,,,,,,,,,,,,78,153511,21,Male,1,2024/02/26_08:55:35,YZ,None,
,,,,,,calibration,0,32,2,500,16,J,0,left,0.4958036669995636,0,0,,,,,,,,,,,,,,,,,,,,,1,,,,,,,,,,,,,,,,,,,,,,,,,,,,,,,,,,,,,,,,,,,,,,78,153511,21,Male,1,2024/02/26_08:55:35,YZ,None,
,,,,,,calibration,0,32,2,500,,,,,,,,0.22727272727272727,0.0,0.09090909090909091,0.0,0.875,0.03409090909090906,0.5134209505049512,0,1,4,10,14,0,0,5,11,0,,,,1,,,,,,,,,,,,,,,,,,,,,,,,,,,,,,,,,,,,,,,,,,,,,,78,153511,21,Male,1,2024/02/26_08:55:35,YZ,None,
,,,,,,Calibration,0,,2,500,,,,,,,,,,,,,,,,,,,,,,,,,12,,,1,,,,,,,,,,,,,,,,,,,,,,,,,,,,,,,,,,,,,,,,,,,,,,78,153511,21,Male,1,2024/02/26_08:55:35,YZ,None,
,,,,,,calibration,0,2,2,583,1,N,0,None,nan,0,1,,,,,,,,,,,,,,,,,,,,,1,,,,,,,,,,,,,,,,,,,,,,,,,,,,,,,,,,,,,,,,,,,,,,78,153511,21,Male,1,2024/02/26_08:55:35,YZ,None,
,,,,,,calibration,0,2,2,583,2,Q,0,right,1.0503558659984265,1,0,,,,,,,,,,,,,,,,,,,,,1,,,,,,,,,,,,,,,,,,,,,,,,,,,,,,,,,,,,,,,,,,,,,,78,153511,21,Male,1,2024/02/26_08:55:35,YZ,None,
,,,,,,calibration,0,2,2,583,3,N,1,right,0.7588151579984697,0,0,,,,,,,,,,,,,,,,,,,,,1,,,,,,,,,,,,,,,,,,,,,,,,,,,,,,,,,,,,,,,,,,,,,,78,153511,21,Male,1,2024/02/26_08:55:35,YZ,None,
,,,,,,calibration,0,2,2,583,4,Q,1,right,nan,0,1,,,,,,,,,,,,,,,,,,,,,1,,,,,,,,,,,,,,,,,,,,,,,,,,,,,,,,,,,,,,,,,,,,,,78,153511,21,Male,1,2024/02/26_08:55:35,YZ,None,
,,,,,,calibration,0,2,2,583,5,C,0,right,0.5911063990060939,1,0,,,,,,,,,,,,,,,,,,,,,1,,,,,,,,,,,,,,,,,,,,,,,,,,,,,,,,,,,,,,,,,,,,,,78,153511,21,Male,1,2024/02/26_08:55:35,YZ,None,
,,,,,,calibration,0,2,2,583,6,S,0,right,nan,0,1,,,,,,,,,,,,,,,,,,,,,1,,,,,,,,,,,,,,,,,,,,,,,,,,,,,,,,,,,,,,,,,,,,,,78,153511,21,Male,1,2024/02/26_08:55:35,YZ,None,
,,,,,,calibration,0,2,2,583,7,J,0,right,0.6253922040050384,1,0,,,,,,,,,,,,,,,,,,,,,1,,,,,,,,,,,,,,,,,,,,,,,,,,,,,,,,,,,,,,,,,,,,,,78,153511,21,Male,1,2024/02/26_08:55:35,YZ,None,
,,,,,,calibration,0,2,2,583,8,X,0,right,0.6009569809975801,1,0,,,,,,,,,,,,,,,,,,,,,1,,,,,,,,,,,,,,,,,,,,,,,,,,,,,,,,,,,,,,,,,,,,,,78,153511,21,Male,1,2024/02/26_08:55:35,YZ,None,
,,,,,,calibration,0,2,2,583,9,S,0,right,0.4051096720068017,1,0,,,,,,,,,,,,,,,,,,,,,1,,,,,,,,,,,,,,,,,,,,,,,,,,,,,,,,,,,,,,,,,,,,,,78,153511,21,Male,1,2024/02/26_08:55:35,YZ,None,
,,,,,,calibration,0,2,2,583,10,Q,0,right,0.37189939100062475,1,0,,,,,,,,,,,,,,,,,,,,,1,,,,,,,,,,,,,,,,,,,,,,,,,,,,,,,,,,,,,,,,,,,,,,78,153511,21,Male,1,2024/02/26_08:55:35,YZ,None,
,,,,,,calibration,0,2,2,583,11,S,1,left,0.565349887998309,1,0,,,,,,,,,,,,,,,,,,,,,1,,,,,,,,,,,,,,,,,,,,,,,,,,,,,,,,,,,,,,,,,,,,,,78,153511,21,Male,1,2024/02/26_08:55:35,YZ,None,
,,,,,,calibration,0,2,2,583,12,X,0,right,0.3066061349964002,1,0,,,,,,,,,,,,,,,,,,,,,1,,,,,,,,,,,,,,,,,,,,,,,,,,,,,,,,,,,,,,,,,,,,,,78,153511,21,Male,1,2024/02/26_08:55:35,YZ,None,
,,,,,,calibration,0,2,2,583,13,S,1,right,0.40890557000238914,0,0,,,,,,,,,,,,,,,,,,,,,1,,,,,,,,,,,,,,,,,,,,,,,,,,,,,,,,,,,,,,,,,,,,,,78,153511,21,Male,1,2024/02/26_08:55:35,YZ,None,
,,,,,,calibration,0,2,2,583,14,N,0,right,0.583379887000774,1,0,,,,,,,,,,,,,,,,,,,,,1,,,,,,,,,,,,,,,,,,,,,,,,,,,,,,,,,,,,,,,,,,,,,,78,153511,21,Male,1,2024/02/26_08:55:35,YZ,None,
,,,,,,calibration,0,2,2,583,15,S,1,left,0.3256718600023305,1,0,,,,,,,,,,,,,,,,,,,,,1,,,,,,,,,,,,,,,,,,,,,,,,,,,,,,,,,,,,,,,,,,,,,,78,153511,21,Male,1,2024/02/26_08:55:35,YZ,None,
,,,,,,calibration,0,2,2,583,,,,,,,,0.85,0.4,0.0,1.0,0.2,0.8,0.5494624175844365,2,0,1,2,3,8,10,5,10,0,,,,1,,,,,,,,,,,,,,,,,,,,,,,,,,,,,,,,,,,,,,,,,,,,,,78,153511,21,Male,1,2024/02/26_08:55:35,YZ,None,
,,,,,,Calibration,0,,2,583,,,,,,,,,,,,,,,,,,,,,,,,,13,,,1,,,,,,,,,,,,,,,,,,,,,,,,,,,,,,,,,,,,,,,,,,,,,,78,153511,21,Male,1,2024/02/26_08:55:35,YZ,None,
,,,,,,calibration,0,30,2,583,1,C,0,right,1.1804108830110636,1,0,,,,,,,,,,,,,,,,,,,,,1,,,,,,,,,,,,,,,,,,,,,,,,,,,,,,,,,,,,,,,,,,,,,,78,153511,21,Male,1,2024/02/26_08:55:35,YZ,None,
,,,,,,calibration,0,30,2,583,2,X,0,right,0.3603313990024617,1,0,,,,,,,,,,,,,,,,,,,,,1,,,,,,,,,,,,,,,,,,,,,,,,,,,,,,,,,,,,,,,,,,,,,,78,153511,21,Male,1,2024/02/26_08:55:35,YZ,None,
,,,,,,calibration,0,30,2,583,3,F,0,right,0.41556979100278113,1,0,,,,,,,,,,,,,,,,,,,,,1,,,,,,,,,,,,,,,,,,,,,,,,,,,,,,,,,,,,,,,,,,,,,,78,153511,21,Male,1,2024/02/26_08:55:35,YZ,None,
,,,,,,calibration,0,30,2,583,4,Q,0,right,0.4123780569934752,1,0,,,,,,,,,,,,,,,,,,,,,1,,,,,,,,,,,,,,,,,,,,,,,,,,,,,,,,,,,,,,,,,,,,,,78,153511,21,Male,1,2024/02/26_08:55:35,YZ,None,
,,,,,,calibration,0,30,2,583,5,F,1,left,0.4283314030035399,1,0,,,,,,,,,,,,,,,,,,,,,1,,,,,,,,,,,,,,,,,,,,,,,,,,,,,,,,,,,,,,,,,,,,,,78,153511,21,Male,1,2024/02/26_08:55:35,YZ,None,
,,,,,,calibration,0,30,2,583,6,N,0,right,0.3401219600054901,1,0,,,,,,,,,,,,,,,,,,,,,1,,,,,,,,,,,,,,,,,,,,,,,,,,,,,,,,,,,,,,,,,,,,,,78,153511,21,Male,1,2024/02/26_08:55:35,YZ,None,
,,,,,,calibration,0,30,2,583,7,Q,0,right,0.41248514199105557,1,0,,,,,,,,,,,,,,,,,,,,,1,,,,,,,,,,,,,,,,,,,,,,,,,,,,,,,,,,,,,,,,,,,,,,78,153511,21,Male,1,2024/02/26_08:55:35,YZ,None,
,,,,,,calibration,0,30,2,583,8,N,1,left,0.3321820159908384,1,0,,,,,,,,,,,,,,,,,,,,,1,,,,,,,,,,,,,,,,,,,,,,,,,,,,,,,,,,,,,,,,,,,,,,78,153511,21,Male,1,2024/02/26_08:55:35,YZ,None,
,,,,,,calibration,0,30,2,583,9,S,0,right,0.3281672180019086,1,0,,,,,,,,,,,,,,,,,,,,,1,,,,,,,,,,,,,,,,,,,,,,,,,,,,,,,,,,,,,,,,,,,,,,78,153511,21,Male,1,2024/02/26_08:55:35,YZ,None,
,,,,,,calibration,0,30,2,583,10,J,0,right,0.36892500799149275,1,0,,,,,,,,,,,,,,,,,,,,,1,,,,,,,,,,,,,,,,,,,,,,,,,,,,,,,,,,,,,,,,,,,,,,78,153511,21,Male,1,2024/02/26_08:55:35,YZ,None,
,,,,,,calibration,0,30,2,583,11,N,0,right,0.5459862470015651,1,0,,,,,,,,,,,,,,,,,,,,,1,,,,,,,,,,,,,,,,,,,,,,,,,,,,,,,,,,,,,,,,,,,,,,78,153511,21,Male,1,2024/02/26_08:55:35,YZ,None,
,,,,,,calibration,0,30,2,583,12,J,1,left,0.45857688499381766,1,0,,,,,,,,,,,,,,,,,,,,,1,,,,,,,,,,,,,,,,,,,,,,,,,,,,,,,,,,,,,,,,,,,,,,78,153511,21,Male,1,2024/02/26_08:55:35,YZ,None,
,,,,,,calibration,0,30,2,583,13,F,0,right,0.38597506600490306,1,0,,,,,,,,,,,,,,,,,,,,,1,,,,,,,,,,,,,,,,,,,,,,,,,,,,,,,,,,,,,,,,,,,,,,78,153511,21,Male,1,2024/02/26_08:55:35,YZ,None,
,,,,,,calibration,0,30,2,583,14,J,1,right,0.4659577380080009,0,0,,,,,,,,,,,,,,,,,,,,,1,,,,,,,,,,,,,,,,,,,,,,,,,,,,,,,,,,,,,,,,,,,,,,78,153511,21,Male,1,2024/02/26_08:55:35,YZ,None,
,,,,,,calibration,0,30,2,583,15,N,0,right,0.4802399019972654,1,0,,,,,,,,,,,,,,,,,,,,,1,,,,,,,,,,,,,,,,,,,,,,,,,,,,,,,,,,,,,,,,,,,,,,78,153511,21,Male,1,2024/02/26_08:55:35,YZ,None,
,,,,,,calibration,0,30,2,583,,,,,,,,0.9375,0.75,0.0,1.0,0.0,1.0,0.46104258099997725,3,0,0,0,0,11,14,4,11,0,,,,1,,,,,,,,,,,,,,,,,,,,,,,,,,,,,,,,,,,,,,,,,,,,,,78,153511,21,Male,1,2024/02/26_08:55:35,YZ,None,
,,,,,,Calibration,0,,2,583,,,,,,,,,,,,,,,,,,,,,,,,,14,,,1,,,,,,,,,,,,,,,,,,,,,,,,,,,,,,,,,,,,,,,,,,,,,,78,153511,21,Male,1,2024/02/26_08:55:35,YZ,None,
,,,,,,calibration,0,36,2,500,1,N,0,right,0.6536179690010613,1,0,,,,,,,,,,,,,,,,,,,,,1,,,,,,,,,,,,,,,,,,,,,,,,,,,,,,,,,,,,,,,,,,,,,,78,153511,21,Male,1,2024/02/26_08:55:35,YZ,None,
,,,,,,calibration,0,36,2,500,2,V,0,right,nan,0,1,,,,,,,,,,,,,,,,,,,,,1,,,,,,,,,,,,,,,,,,,,,,,,,,,,,,,,,,,,,,,,,,,,,,78,153511,21,Male,1,2024/02/26_08:55:35,YZ,None,
,,,,,,calibration,0,36,2,500,3,N,1,left,0.5912734379962785,1,0,,,,,,,,,,,,,,,,,,,,,1,,,,,,,,,,,,,,,,,,,,,,,,,,,,,,,,,,,,,,,,,,,,,,78,153511,21,Male,1,2024/02/26_08:55:35,YZ,None,
,,,,,,calibration,0,36,2,500,4,F,0,right,0.4631009109871229,1,0,,,,,,,,,,,,,,,,,,,,,1,,,,,,,,,,,,,,,,,,,,,,,,,,,,,,,,,,,,,,,,,,,,,,78,153511,21,Male,1,2024/02/26_08:55:35,YZ,None,
,,,,,,calibration,0,36,2,500,5,J,0,right,0.37648728300700895,1,0,,,,,,,,,,,,,,,,,,,,,1,,,,,,,,,,,,,,,,,,,,,,,,,,,,,,,,,,,,,,,,,,,,,,78,153511,21,Male,1,2024/02/26_08:55:35,YZ,None,
,,,,,,calibration,0,36,2,500,6,F,1,right,0.4482280149968574,0,0,,,,,,,,,,,,,,,,,,,,,1,,,,,,,,,,,,,,,,,,,,,,,,,,,,,,,,,,,,,,,,,,,,,,78,153511,21,Male,1,2024/02/26_08:55:35,YZ,None,
,,,,,,calibration,0,36,2,500,7,J,1,right,0.5922936110000592,0,0,,,,,,,,,,,,,,,,,,,,,1,,,,,,,,,,,,,,,,,,,,,,,,,,,,,,,,,,,,,,,,,,,,,,78,153511,21,Male,1,2024/02/26_08:55:35,YZ,None,
,,,,,,calibration,0,36,2,500,8,N,0,left,0.4903571019967785,0,0,,,,,,,,,,,,,,,,,,,,,1,,,,,,,,,,,,,,,,,,,,,,,,,,,,,,,,,,,,,,,,,,,,,,78,153511,21,Male,1,2024/02/26_08:55:35,YZ,None,
,,,,,,calibration,0,36,2,500,9,J,1,left,0.5124753120035166,1,0,,,,,,,,,,,,,,,,,,,,,1,,,,,,,,,,,,,,,,,,,,,,,,,,,,,,,,,,,,,,,,,,,,,,78,153511,21,Male,1,2024/02/26_08:55:35,YZ,None,
,,,,,,calibration,0,36,2,500,10,F,0,right,0.3822405120008625,1,0,,,,,,,,,,,,,,,,,,,,,1,,,,,,,,,,,,,,,,,,,,,,,,,,,,,,,,,,,,,,,,,,,,,,78,153511,21,Male,1,2024/02/26_08:55:35,YZ,None,
,,,,,,calibration,0,36,2,500,11,Q,0,right,0.4650966600020183,1,0,,,,,,,,,,,,,,,,,,,,,1,,,,,,,,,,,,,,,,,,,,,,,,,,,,,,,,,,,,,,,,,,,,,,78,153511,21,Male,1,2024/02/26_08:55:35,YZ,None,
,,,,,,calibration,0,36,2,500,12,X,0,right,0.5240668130136328,1,0,,,,,,,,,,,,,,,,,,,,,1,,,,,,,,,,,,,,,,,,,,,,,,,,,,,,,,,,,,,,,,,,,,,,78,153511,21,Male,1,2024/02/26_08:55:35,YZ,None,
,,,,,,calibration,0,36,2,500,13,J,0,left,0.37899659501272254,0,0,,,,,,,,,,,,,,,,,,,,,1,,,,,,,,,,,,,,,,,,,,,,,,,,,,,,,,,,,,,,,,,,,,,,78,153511,21,Male,1,2024/02/26_08:55:35,YZ,None,
,,,,,,calibration,0,36,2,500,14,F,0,left,0.5124150920019019,0,0,,,,,,,,,,,,,,,,,,,,,1,,,,,,,,,,,,,,,,,,,,,,,,,,,,,,,,,,,,,,,,,,,,,,78,153511,21,Male,1,2024/02/26_08:55:35,YZ,None,
,,,,,,calibration,0,36,2,500,15,S,0,right,0.3779833470034646,1,0,,,,,,,,,,,,,,,,,,,,,1,,,,,,,,,,,,,,,,,,,,,,,,,,,,,,,,,,,,,,,,,,,,,,78,153511,21,Male,1,2024/02/26_08:55:35,YZ,None,
,,,,,,calibration,0,36,2,500,16,X,0,right,0.45790831300837453,1,0,,,,,,,,,,,,,,,,,,,,,1,,,,,,,,,,,,,,,,,,,,,,,,,,,,,,,,,,,,,,,,,,,,,,78,153511,21,Male,1,2024/02/26_08:55:35,YZ,None,
,,,,,,calibration,0,36,2,500,,,,,,,,0.6875,0.5,0.25,0.7272727272727273,0.0625,0.6875,0.4817693982021107,2,3,0,1,1,8,10,4,12,0,,,,1,,,,,,,,,,,,,,,,,,,,,,,,,,,,,,,,,,,,,,,,,,,,,,78,153511,21,Male,1,2024/02/26_08:55:35,YZ,None,
,,,,,,Calibration,0,,2,500,,,,,,,,,,,,,,,,,,,,,,,,,15,,,1,,,,,,,,,,,,,,,,,,,,,,,,,,,,,,,,,,,,,,,,,,,,,,78,153511,21,Male,1,2024/02/26_08:55:35,YZ,None,
,,,,,,calibration,0,16,2,583,1,S,0,right,0.30429398600244895,1,0,,,,,,,,,,,,,,,,,,,,,1,,,,,,,,,,,,,,,,,,,,,,,,,,,,,,,,,,,,,,,,,,,,,,78,153511,21,Male,1,2024/02/26_08:55:35,YZ,None,
,,,,,,calibration,0,16,2,583,2,N,0,right,0.37755286000901833,1,0,,,,,,,,,,,,,,,,,,,,,1,,,,,,,,,,,,,,,,,,,,,,,,,,,,,,,,,,,,,,,,,,,,,,78,153511,21,Male,1,2024/02/26_08:55:35,YZ,None,
,,,,,,calibration,0,16,2,583,3,C,0,right,0.38383366700145416,1,0,,,,,,,,,,,,,,,,,,,,,1,,,,,,,,,,,,,,,,,,,,,,,,,,,,,,,,,,,,,,,,,,,,,,78,153511,21,Male,1,2024/02/26_08:55:35,YZ,None,
,,,,,,calibration,0,16,2,583,4,N,1,left,0.5881789739942178,1,0,,,,,,,,,,,,,,,,,,,,,1,,,,,,,,,,,,,,,,,,,,,,,,,,,,,,,,,,,,,,,,,,,,,,78,153511,21,Male,1,2024/02/26_08:55:35,YZ,None,
,,,,,,calibration,0,16,2,583,5,V,0,right,0.3390933810005663,1,0,,,,,,,,,,,,,,,,,,,,,1,,,,,,,,,,,,,,,,,,,,,,,,,,,,,,,,,,,,,,,,,,,,,,78,153511,21,Male,1,2024/02/26_08:55:35,YZ,None,
,,,,,,calibration,0,16,2,583,6,X,0,right,0.5123504380026134,1,0,,,,,,,,,,,,,,,,,,,,,1,,,,,,,,,,,,,,,,,,,,,,,,,,,,,,,,,,,,,,,,,,,,,,78,153511,21,Male,1,2024/02/26_08:55:35,YZ,None,
,,,,,,calibration,0,16,2,583,7,C,0,right,0.3804805749969091,1,0,,,,,,,,,,,,,,,,,,,,,1,,,,,,,,,,,,,,,,,,,,,,,,,,,,,,,,,,,,,,,,,,,,,,78,153511,21,Male,1,2024/02/26_08:55:35,YZ,None,
,,,,,,calibration,0,16,2,583,8,S,0,left,0.23577258001023438,0,0,,,,,,,,,,,,,,,,,,,,,1,,,,,,,,,,,,,,,,,,,,,,,,,,,,,,,,,,,,,,,,,,,,,,78,153511,21,Male,1,2024/02/26_08:55:35,YZ,None,
,,,,,,calibration,0,16,2,583,9,Q,0,right,0.4885757559968624,1,0,,,,,,,,,,,,,,,,,,,,,1,,,,,,,,,,,,,,,,,,,,,,,,,,,,,,,,,,,,,,,,,,,,,,78,153511,21,Male,1,2024/02/26_08:55:35,YZ,None,
,,,,,,calibration,0,16,2,583,10,S,1,right,0.3202982639922993,0,0,,,,,,,,,,,,,,,,,,,,,1,,,,,,,,,,,,,,,,,,,,,,,,,,,,,,,,,,,,,,,,,,,,,,78,153511,21,Male,1,2024/02/26_08:55:35,YZ,None,
,,,,,,calibration,0,16,2,583,11,F,0,right,0.38505446999624837,1,0,,,,,,,,,,,,,,,,,,,,,1,,,,,,,,,,,,,,,,,,,,,,,,,,,,,,,,,,,,,,,,,,,,,,78,153511,21,Male,1,2024/02/26_08:55:35,YZ,None,
,,,,,,calibration,0,16,2,583,12,S,1,right,0.4277092550037196,0,0,,,,,,,,,,,,,,,,,,,,,1,,,,,,,,,,,,,,,,,,,,,,,,,,,,,,,,,,,,,,,,,,,,,,78,153511,21,Male,1,2024/02/26_08:55:35,YZ,None,
,,,,,,calibration,0,16,2,583,13,X,0,right,0.4334324969968293,1,0,,,,,,,,,,,,,,,,,,,,,1,,,,,,,,,,,,,,,,,,,,,,,,,,,,,,,,,,,,,,,,,,,,,,78,153511,21,Male,1,2024/02/26_08:55:35,YZ,None,
,,,,,,calibration,0,16,2,583,14,V,0,right,0.35308012799941935,1,0,,,,,,,,,,,,,,,,,,,,,1,,,,,,,,,,,,,,,,,,,,,,,,,,,,,,,,,,,,,,,,,,,,,,78,153511,21,Male,1,2024/02/26_08:55:35,YZ,None,
,,,,,,calibration,0,16,2,583,15,X,1,left,0.4471698420093162,1,0,,,,,,,,,,,,,,,,,,,,,1,,,,,,,,,,,,,,,,,,,,,,,,,,,,,,,,,,,,,,,,,,,,,,78,153511,21,Male,1,2024/02/26_08:55:35,YZ,None,
,,,,,,calibration,0,16,2,583,,,,,,,,0.8068181818181819,0.5,0.09090909090909091,0.9090909090909091,0.0,0.9090909090909091,0.3984584448674771,2,1,0,0,0,10,12,4,11,0,,,,1,,,,,,,,,,,,,,,,,,,,,,,,,,,,,,,,,,,,,,,,,,,,,,78,153511,21,Male,1,2024/02/26_08:55:35,YZ,None,
,,,,,,Calibration,0,,2,583,,,,,,,,,,,,,,,,,,,,,,,,,16,,,1,,,,,,,,,,,,,,,,,,,,,,,,,,,,,,,,,,,,,,,,,,,,,,78,153511,21,Male,1,2024/02/26_08:55:35,YZ,None,
,,,,,,CALIBRATION,0,,,,,,,,,,,,,,,,,,,,,,,,,,,,16,0.8068181818181819,583,1,,,,,,,,,,,,,,,,,,,,,,,,,,,,,,,,,,,,,,,,,,,,,,78,153511,21,Male,1,2024/02/26_08:55:35,YZ,None,
-1,./instructions/inst_prac_1/Slide24.png,left,7.589015842007939,501.20835198200075,508.7973678240087,,,,,,,,,,,,,,,,,,,,,,,,,,,,,,,,,1,,,,,,,,,,,,,,,,,,,,,,,,,,,,,,,,,,,,,,,,,,,,,,78,153511,21,Male,1,2024/02/26_08:55:35,YZ,None,
-2,./instructions/inst_prac_1/Slide30.png,left,2.1432105370040517,508.8302552620007,510.97346579900477,,,,,,,,,,,,,,,,,,,,,,,,,,,,,,,,,1,,,,,,,,,,,,,,,,,,,,,,,,,,,,,,,,,,,,,,,,,,,,,,78,153511,21,Male,1,2024/02/26_08:55:35,YZ,None,
-3,./instructions/inst_prac_1/Slide29.png,left,7.380432110003312,511.0010174210038,518.3814495310071,,,,,,,,,,,,,,,,,,,,,,,,,,,,,,,,,1,,,,,,,,,,,,,,,,,,,,,,,,,,,,,,,,,,,,,,,,,,,,,,78,153511,21,Male,1,2024/02/26_08:55:35,YZ,None,
-4,./instructions/inst_prac_1/Slide28.png,left,1.7250504560070112,518.4162873000023,520.1413377560093,,,,,,,,,,,,,,,,,,,,,,,,,,,,,,,,,1,,,,,,,,,,,,,,,,,,,,,,,,,,,,,,,,,,,,,,,,,,,,,,78,153511,21,Male,1,2024/02/26_08:55:35,YZ,None,
-5,./instructions/inst_prac_1/Slide27.png,left,0.7650007310003275,520.1683705790056,520.9333713100059,,,,,,,,,,,,,,,,,,,,,,,,,,,,,,,,,1,,,,,,,,,,,,,,,,,,,,,,,,,,,,,,,,,,,,,,,,,,,,,,78,153511,21,Male,1,2024/02/26_08:55:35,YZ,None,
-6,./instructions/inst_prac_1/Slide26.png,left,0.5075997530075256,520.9618403450004,521.4694400980079,,,,,,,,,,,,,,,,,,,,,,,,,,,,,,,,,1,,,,,,,,,,,,,,,,,,,,,,,,,,,,,,,,,,,,,,,,,,,,,,78,153511,21,Male,1,2024/02/26_08:55:35,YZ,None,
-7,./instructions/inst_prac_1/Slide25.png,left,0.7814239370054565,521.5040224190016,522.285446356007,,,,,,,,,,,,,,,,,,,,,,,,,,,,,,,,,1,,,,,,,,,,,,,,,,,,,,,,,,,,,,,,,,,,,,,,,,,,,,,,78,153511,21,Male,1,2024/02/26_08:55:35,YZ,None,
,,,,,,practice,0,9,1,1250,1,Q,0,right,2.6504976809956133,1,0,,,,,,,,,,,,,,,,,,,,,1,,,,,,,,,,,,,,,,,,,,,,,,,,,,,,,,,,,,,,,,,,,,,,78,153511,21,Male,1,2024/02/26_08:55:35,YZ,None,
,,,,,,practice,0,9,1,1250,2,X,0,right,0.7794775560032576,1,0,,,,,,,,,,,,,,,,,,,,,1,,,,,,,,,,,,,,,,,,,,,,,,,,,,,,,,,,,,,,,,,,,,,,78,153511,21,Male,1,2024/02/26_08:55:35,YZ,None,
,,,,,,practice,0,9,1,1250,3,X,1,left,0.6211279919953085,1,0,,,,,,,,,,,,,,,,,,,,,1,,,,,,,,,,,,,,,,,,,,,,,,,,,,,,,,,,,,,,,,,,,,,,78,153511,21,Male,1,2024/02/26_08:55:35,YZ,None,
,,,,,,practice,0,9,1,1250,4,V,0,right,0.5805627209920203,1,0,,,,,,,,,,,,,,,,,,,,,1,,,,,,,,,,,,,,,,,,,,,,,,,,,,,,,,,,,,,,,,,,,,,,78,153511,21,Male,1,2024/02/26_08:55:35,YZ,None,
,,,,,,practice,0,9,1,1250,5,S,0,right,0.5708411630039336,1,0,,,,,,,,,,,,,,,,,,,,,1,,,,,,,,,,,,,,,,,,,,,,,,,,,,,,,,,,,,,,,,,,,,,,78,153511,21,Male,1,2024/02/26_08:55:35,YZ,None,
,,,,,,practice,0,9,1,1250,6,V,0,right,0.5257549219968496,1,0,,,,,,,,,,,,,,,,,,,,,1,,,,,,,,,,,,,,,,,,,,,,,,,,,,,,,,,,,,,,,,,,,,,,78,153511,21,Male,1,2024/02/26_08:55:35,YZ,None,
,,,,,,practice,0,9,1,1250,7,V,1,left,0.7485415109986207,1,0,,,,,,,,,,,,,,,,,,,,,1,,,,,,,,,,,,,,,,,,,,,,,,,,,,,,,,,,,,,,,,,,,,,,78,153511,21,Male,1,2024/02/26_08:55:35,YZ,None,
,,,,,,practice,0,9,1,1250,8,N,0,right,0.8773428510030499,1,0,,,,,,,,,,,,,,,,,,,,,1,,,,,,,,,,,,,,,,,,,,,,,,,,,,,,,,,,,,,,,,,,,,,,78,153511,21,Male,1,2024/02/26_08:55:35,YZ,None,
,,,,,,practice,0,9,1,1250,9,N,1,left,0.6061682819999987,1,0,,,,,,,,,,,,,,,,,,,,,1,,,,,,,,,,,,,,,,,,,,,,,,,,,,,,,,,,,,,,,,,,,,,,78,153511,21,Male,1,2024/02/26_08:55:35,YZ,None,
,,,,,,practice,0,9,1,1250,10,S,0,right,0.7652950060000876,1,0,,,,,,,,,,,,,,,,,,,,,1,,,,,,,,,,,,,,,,,,,,,,,,,,,,,,,,,,,,,,,,,,,,,,78,153511,21,Male,1,2024/02/26_08:55:35,YZ,None,
,,,,,,practice,0,9,1,1250,,,,,,,,1.0,1.0,0.0,1.0,0.0,1.0,0.872560968498874,3,0,0,0,0,7,10,3,7,0,,,,1,,,,,,,,,,,,,,,,,,,,,,,,,,,,,,,,,,,,,,,,,,,,,,78,153511,21,Male,1,2024/02/26_08:55:35,YZ,None,
1,./instructions/inst_prac_1_next/Slide35.png,right,1.2284159350092523,541.5607983160007,542.78921425101,,,,,,,,,,,,,,,,,,,,,,,,,,,,,,,,,1,,,,,,,,,,,,,,,,,,,,,,,,,,,,,,,,,,,,,,,,,,,,,,78,153511,21,Male,1,2024/02/26_08:55:35,YZ,None,
,,,,,,practice,0,10,1,583,1,V,0,right,1.2506842580041848,1,0,,,,,,,,,,,,,,,,,,,,,1,,,,,,,,,,,,,,,,,,,,,,,,,,,,,,,,,,,,,,,,,,,,,,78,153511,21,Male,1,2024/02/26_08:55:35,YZ,None,
,,,,,,practice,0,10,1,583,2,F,0,right,0.42092573300760705,1,0,,,,,,,,,,,,,,,,,,,,,1,,,,,,,,,,,,,,,,,,,,,,,,,,,,,,,,,,,,,,,,,,,,,,78,153511,21,Male,1,2024/02/26_08:55:35,YZ,None,
,,,,,,practice,0,10,1,583,3,X,0,right,0.42439049200038426,1,0,,,,,,,,,,,,,,,,,,,,,1,,,,,,,,,,,,,,,,,,,,,,,,,,,,,,,,,,,,,,,,,,,,,,78,153511,21,Male,1,2024/02/26_08:55:35,YZ,None,
,,,,,,practice,0,10,1,583,4,X,1,left,0.3935398180037737,1,0,,,,,,,,,,,,,,,,,,,,,1,,,,,,,,,,,,,,,,,,,,,,,,,,,,,,,,,,,,,,,,,,,,,,78,153511,21,Male,1,2024/02/26_08:55:35,YZ,None,
,,,,,,practice,0,10,1,583,5,C,0,right,0.4049822730012238,1,0,,,,,,,,,,,,,,,,,,,,,1,,,,,,,,,,,,,,,,,,,,,,,,,,,,,,,,,,,,,,,,,,,,,,78,153511,21,Male,1,2024/02/26_08:55:35,YZ,None,
,,,,,,practice,0,10,1,583,6,C,1,left,0.3520651349972468,1,0,,,,,,,,,,,,,,,,,,,,,1,,,,,,,,,,,,,,,,,,,,,,,,,,,,,,,,,,,,,,,,,,,,,,78,153511,21,Male,1,2024/02/26_08:55:35,YZ,None,
,,,,,,practice,0,10,1,583,7,Q,0,right,0.47939387398946565,1,0,,,,,,,,,,,,,,,,,,,,,1,,,,,,,,,,,,,,,,,,,,,,,,,,,,,,,,,,,,,,,,,,,,,,78,153511,21,Male,1,2024/02/26_08:55:35,YZ,None,
,,,,,,practice,0,10,1,583,8,S,0,right,0.3776911009917967,1,0,,,,,,,,,,,,,,,,,,,,,1,,,,,,,,,,,,,,,,,,,,,,,,,,,,,,,,,,,,,,,,,,,,,,78,153511,21,Male,1,2024/02/26_08:55:35,YZ,None,
,,,,,,practice,0,10,1,583,9,S,1,left,0.4928530140023213,1,0,,,,,,,,,,,,,,,,,,,,,1,,,,,,,,,,,,,,,,,,,,,,,,,,,,,,,,,,,,,,,,,,,,,,78,153511,21,Male,1,2024/02/26_08:55:35,YZ,None,
,,,,,,practice,0,10,1,583,10,C,0,right,0.4766746919922298,1,0,,,,,,,,,,,,,,,,,,,,,1,,,,,,,,,,,,,,,,,,,,,,,,,,,,,,,,,,,,,,,,,,,,,,78,153511,21,Male,1,2024/02/26_08:55:35,YZ,None,
,,,,,,practice,0,10,1,583,11,X,0,right,0.40991881499940064,1,0,,,,,,,,,,,,,,,,,,,,,1,,,,,,,,,,,,,,,,,,,,,,,,,,,,,,,,,,,,,,,,,,,,,,78,153511,21,Male,1,2024/02/26_08:55:35,YZ,None,
,,,,,,practice,0,10,1,583,12,Q,0,right,0.47674505099712405,1,0,,,,,,,,,,,,,,,,,,,,,1,,,,,,,,,,,,,,,,,,,,,,,,,,,,,,,,,,,,,,,,,,,,,,78,153511,21,Male,1,2024/02/26_08:55:35,YZ,None,
,,,,,,practice,0,10,1,583,13,N,0,right,0.4207954029989196,1,0,,,,,,,,,,,,,,,,,,,,,1,,,,,,,,,,,,,,,,,,,,,,,,,,,,,,,,,,,,,,,,,,,,,,78,153511,21,Male,1,2024/02/26_08:55:35,YZ,None,
,,,,,,practice,0,10,1,583,14,J,0,right,0.41533025600074325,1,0,,,,,,,,,,,,,,,,,,,,,1,,,,,,,,,,,,,,,,,,,,,,,,,,,,,,,,,,,,,,,,,,,,,,78,153511,21,Male,1,2024/02/26_08:55:35,YZ,None,
,,,,,,practice,0,10,1,583,15,J,1,left,0.5638606889988296,1,0,,,,,,,,,,,,,,,,,,,,,1,,,,,,,,,,,,,,,,,,,,,,,,,,,,,,,,,,,,,,,,,,,,,,78,153511,21,Male,1,2024/02/26_08:55:35,YZ,None,
,,,,,,practice,0,10,1,583,,,,,,,,1.0,1.0,0.0,1.0,0.0,1.0,0.4906567069323501,4,0,0,0,0,11,15,4,11,0,,,,1,,,,,,,,,,,,,,,,,,,,,,,,,,,,,,,,,,,,,,,,,,,,,,78,153511,21,Male,1,2024/02/26_08:55:35,YZ,None,
,,,,,,practice,0,33,1,583,1,V,0,right,0.38755531499919016,1,0,,,,,,,,,,,,,,,,,,,,,1,,,,,,,,,,,,,,,,,,,,,,,,,,,,,,,,,,,,,,,,,,,,,,78,153511,21,Male,1,2024/02/26_08:55:35,YZ,None,
,,,,,,practice,0,33,1,583,2,F,0,right,0.4027483350073453,1,0,,,,,,,,,,,,,,,,,,,,,1,,,,,,,,,,,,,,,,,,,,,,,,,,,,,,,,,,,,,,,,,,,,,,78,153511,21,Male,1,2024/02/26_08:55:35,YZ,None,
,,,,,,practice,0,33,1,583,3,F,1,left,0.29750435300229583,1,0,,,,,,,,,,,,,,,,,,,,,1,,,,,,,,,,,,,,,,,,,,,,,,,,,,,,,,,,,,,,,,,,,,,,78,153511,21,Male,1,2024/02/26_08:55:35,YZ,None,
,,,,,,practice,0,33,1,583,4,X,0,right,0.36164169099356513,1,0,,,,,,,,,,,,,,,,,,,,,1,,,,,,,,,,,,,,,,,,,,,,,,,,,,,,,,,,,,,,,,,,,,,,78,153511,21,Male,1,2024/02/26_08:55:35,YZ,None,
,,,,,,practice,0,33,1,583,5,N,0,right,0.3993455480085686,1,0,,,,,,,,,,,,,,,,,,,,,1,,,,,,,,,,,,,,,,,,,,,,,,,,,,,,,,,,,,,,,,,,,,,,78,153511,21,Male,1,2024/02/26_08:55:35,YZ,None,
,,,,,,practice,0,33,1,583,6,N,1,left,0.3724556939996546,1,0,,,,,,,,,,,,,,,,,,,,,1,,,,,,,,,,,,,,,,,,,,,,,,,,,,,,,,,,,,,,,,,,,,,,78,153511,21,Male,1,2024/02/26_08:55:35,YZ,None,
,,,,,,practice,0,33,1,583,7,V,0,right,0.3860759820090607,1,0,,,,,,,,,,,,,,,,,,,,,1,,,,,,,,,,,,,,,,,,,,,,,,,,,,,,,,,,,,,,,,,,,,,,78,153511,21,Male,1,2024/02/26_08:55:35,YZ,None,
,,,,,,practice,0,33,1,583,8,F,0,right,0.37597264199575875,1,0,,,,,,,,,,,,,,,,,,,,,1,,,,,,,,,,,,,,,,,,,,,,,,,,,,,,,,,,,,,,,,,,,,,,78,153511,21,Male,1,2024/02/26_08:55:35,YZ,None,
,,,,,,practice,0,33,1,583,9,F,1,left,0.32848250499228016,1,0,,,,,,,,,,,,,,,,,,,,,1,,,,,,,,,,,,,,,,,,,,,,,,,,,,,,,,,,,,,,,,,,,,,,78,153511,21,Male,1,2024/02/26_08:55:35,YZ,None,
,,,,,,practice,0,33,1,583,10,C,0,right,0.348081389995059,1,0,,,,,,,,,,,,,,,,,,,,,1,,,,,,,,,,,,,,,,,,,,,,,,,,,,,,,,,,,,,,,,,,,,,,78,153511,21,Male,1,2024/02/26_08:55:35,YZ,None,
,,,,,,practice,0,33,1,583,11,C,1,right,0.4162147439928958,0,0,,,,,,,,,,,,,,,,,,,,,1,,,,,,,,,,,,,,,,,,,,,,,,,,,,,,,,,,,,,,,,,,,,,,78,153511,21,Male,1,2024/02/26_08:55:35,YZ,None,
,,,,,,practice,0,33,1,583,12,X,0,right,0.6280408919992624,1,0,,,,,,,,,,,,,,,,,,,,,1,,,,,,,,,,,,,,,,,,,,,,,,,,,,,,,,,,,,,,,,,,,,,,78,153511,21,Male,1,2024/02/26_08:55:35,YZ,None,
,,,,,,practice,0,33,1,583,13,X,1,left,0.3004162909928709,1,0,,,,,,,,,,,,,,,,,,,,,1,,,,,,,,,,,,,,,,,,,,,,,,,,,,,,,,,,,,,,,,,,,,,,78,153511,21,Male,1,2024/02/26_08:55:35,YZ,None,
,,,,,,practice,0,33,1,583,14,F,0,right,0.5437939149996964,1,0,,,,,,,,,,,,,,,,,,,,,1,,,,,,,,,,,,,,,,,,,,,,,,,,,,,,,,,,,,,,,,,,,,,,78,153511,21,Male,1,2024/02/26_08:55:35,YZ,None,
,,,,,,practice,0,33,1,583,15,J,0,right,0.39295565999054816,1,0,,,,,,,,,,,,,,,,,,,,,1,,,,,,,,,,,,,,,,,,,,,,,,,,,,,,,,,,,,,,,,,,,,,,78,153511,21,Male,1,2024/02/26_08:55:35,YZ,None,
,,,,,,practice,0,33,1,583,,,,,,,,0.95,0.8,0.0,1.0,0.0,1.0,0.39608566379853677,4,0,0,0,0,10,14,5,10,0,,,,1,,,,,,,,,,,,,,,,,,,,,,,,,,,,,,,,,,,,,,,,,,,,,,78,153511,21,Male,1,2024/02/26_08:55:35,YZ,None,
-1,./instructions/inst_prac_3/Slide37.png,left,0.7856314719974762,575.9637078939995,576.749339365997,,,,,,,,,,,,,,,,,,,,,,,,,,,,,,,,,1,,,,,,,,,,,,,,,,,,,,,,,,,,,,,,,,,,,,,,,,,,,,,,78,153511,21,Male,1,2024/02/26_08:55:35,YZ,None,
-2,./instructions/inst_prac_3/Slide44.png,left,2.588945117997355,576.7767324930028,579.3656776110001,,,,,,,,,,,,,,,,,,,,,,,,,,,,,,,,,1,,,,,,,,,,,,,,,,,,,,,,,,,,,,,,,,,,,,,,,,,,,,,,78,153511,21,Male,1,2024/02/26_08:55:35,YZ,None,
-3,./instructions/inst_prac_3/Slide43.png,left,0.8523560280009406,579.3932391940034,580.2455952220043,,,,,,,,,,,,,,,,,,,,,,,,,,,,,,,,,1,,,,,,,,,,,,,,,,,,,,,,,,,,,,,,,,,,,,,,,,,,,,,,78,153511,21,Male,1,2024/02/26_08:55:35,YZ,None,
-2,./instructions/inst_prac_3/Slide42.png,right,9.396355293996749,580.2729285960086,589.6692838900053,,,,,,,,,,,,,,,,,,,,,,,,,,,,,,,,,1,,,,,,,,,,,,,,,,,,,,,,,,,,,,,,,,,,,,,,,,,,,,,,78,153511,21,Male,1,2024/02/26_08:55:35,YZ,None,
-1,./instructions/inst_prac_3/Slide43.png,right,1.0137366429989925,589.7036904700071,590.7174271130061,,,,,,,,,,,,,,,,,,,,,,,,,,,,,,,,,1,,,,,,,,,,,,,,,,,,,,,,,,,,,,,,,,,,,,,,,,,,,,,,78,153511,21,Male,1,2024/02/26_08:55:35,YZ,None,
0,./instructions/inst_prac_3/Slide44.png,right,0.8942413780023344,590.7511979310075,591.6454393090098,,,,,,,,,,,,,,,,,,,,,,,,,,,,,,,,,1,,,,,,,,,,,,,,,,,,,,,,,,,,,,,,,,,,,,,,,,,,,,,,78,153511,21,Male,1,2024/02/26_08:55:35,YZ,None,
1,./instructions/inst_prac_3/Slide37.png,right,0.8063498060073471,591.6789700969966,592.485319903004,,,,,,,,,,,,,,,,,,,,,,,,,,,,,,,,,1,,,,,,,,,,,,,,,,,,,,,,,,,,,,,,,,,,,,,,,,,,,,,,78,153511,21,Male,1,2024/02/26_08:55:35,YZ,None,
2,./instructions/inst_prac_3/Slide38.png,right,1.5096506280096946,592.5197168710001,594.0293674990098,,,,,,,,,,,,,,,,,,,,,,,,,,,,,,,,,1,,,,,,,,,,,,,,,,,,,,,,,,,,,,,,,,,,,,,,,,,,,,,,78,153511,21,Male,1,2024/02/26_08:55:35,YZ,None,
3,./instructions/inst_prac_3/Slide39.png,right,0.8691298240009928,594.064131156003,594.933260980004,,,,,,,,,,,,,,,,,,,,,,,,,,,,,,,,,1,,,,,,,,,,,,,,,,,,,,,,,,,,,,,,,,,,,,,,,,,,,,,,78,153511,21,Male,1,2024/02/26_08:55:35,YZ,None,
4,./instructions/inst_prac_3/Slide40.png,right,0.5414791229995899,594.9678606570087,595.5093397800083,,,,,,,,,,,,,,,,,,,,,,,,,,,,,,,,,1,,,,,,,,,,,,,,,,,,,,,,,,,,,,,,,,,,,,,,,,,,,,,,78,153511,21,Male,1,2024/02/26_08:55:35,YZ,None,
5,./instructions/inst_prac_3/Slide41.png,right,0.39826928501133807,595.5432458349969,595.9415151200083,,,,,,,,,,,,,,,,,,,,,,,,,,,,,,,,,1,,,,,,,,,,,,,,,,,,,,,,,,,,,,,,,,,,,,,,,,,,,,,,78,153511,21,Male,1,2024/02/26_08:55:35,YZ,None,
6,./instructions/inst_prac_3/Slide42.png,right,0.6139975269907154,595.9753680990107,596.5893656260014,,,,,,,,,,,,,,,,,,,,,,,,,,,,,,,,,1,,,,,,,,,,,,,,,,,,,,,,,,,,,,,,,,,,,,,,,,,,,,,,78,153511,21,Male,1,2024/02/26_08:55:35,YZ,None,
7,./instructions/inst_prac_3/Slide43.png,right,0.773714655006188,596.6237246560049,597.3974393110111,,,,,,,,,,,,,,,,,,,,,,,,,,,,,,,,,1,,,,,,,,,,,,,,,,,,,,,,,,,,,,,,,,,,,,,,,,,,,,,,78,153511,21,Male,1,2024/02/26_08:55:35,YZ,None,
8,./instructions/inst_prac_3/Slide44.png,right,0.7684568080003373,597.4287763360044,598.1972331440047,,,,,,,,,,,,,,,,,,,,,,,,,,,,,,,,,1,,,,,,,,,,,,,,,,,,,,,,,,,,,,,,,,,,,,,,,,,,,,,,78,153511,21,Male,1,2024/02/26_08:55:35,YZ,None,
,,,,,,practice,0,29,3,788,1,V,0,right,1.429330630999175,1,0,,,,,,,,,,,,,,,,,,,,,1,,,,,,,,,,,,,,,,,,,,,,,,,,,,,,,,,,,,,,,,,,,,,,78,153511,21,Male,1,2024/02/26_08:55:35,YZ,None,
,,,,,,practice,0,29,3,788,2,N,0,right,0.23544327600393444,1,0,,,,,,,,,,,,,,,,,,,,,1,,,,,,,,,,,,,,,,,,,,,,,,,,,,,,,,,,,,,,,,,,,,,,78,153511,21,Male,1,2024/02/26_08:55:35,YZ,None,
,,,,,,practice,0,29,3,788,3,V,0,right,0.940915468003368,1,0,,,,,,,,,,,,,,,,,,,,,1,,,,,,,,,,,,,,,,,,,,,,,,,,,,,,,,,,,,,,,,,,,,,,78,153511,21,Male,1,2024/02/26_08:55:35,YZ,None,
,,,,,,practice,0,29,3,788,4,C,0,right,1.1255993240047246,1,0,,,,,,,,,,,,,,,,,,,,,1,,,,,,,,,,,,,,,,,,,,,,,,,,,,,,,,,,,,,,,,,,,,,,78,153511,21,Male,1,2024/02/26_08:55:35,YZ,None,
,,,,,,practice,0,29,3,788,5,J,0,right,2.1323226430104114,1,0,,,,,,,,,,,,,,,,,,,,,1,,,,,,,,,,,,,,,,,,,,,,,,,,,,,,,,,,,,,,,,,,,,,,78,153511,21,Male,1,2024/02/26_08:55:35,YZ,None,
,,,,,,practice,0,29,3,788,6,J,0,right,0.9152134780015331,1,0,,,,,,,,,,,,,,,,,,,,,1,,,,,,,,,,,,,,,,,,,,,,,,,,,,,,,,,,,,,,,,,,,,,,78,153511,21,Male,1,2024/02/26_08:55:35,YZ,None,
,,,,,,practice,0,29,3,788,7,N,0,right,0.765043239996885,1,0,,,,,,,,,,,,,,,,,,,,,1,,,,,,,,,,,,,,,,,,,,,,,,,,,,,,,,,,,,,,,,,,,,,,78,153511,21,Male,1,2024/02/26_08:55:35,YZ,None,
,,,,,,practice,0,29,3,788,8,Q,0,right,0.6439126210025279,1,0,,,,,,,,,,,,,,,,,,,,,1,,,,,,,,,,,,,,,,,,,,,,,,,,,,,,,,,,,,,,,,,,,,,,78,153511,21,Male,1,2024/02/26_08:55:35,YZ,None,
,,,,,,practice,0,29,3,788,9,J,1,left,0.7264407740003662,1,0,,,,,,,,,,,,,,,,,,,,,1,,,,,,,,,,,,,,,,,,,,,,,,,,,,,,,,,,,,,,,,,,,,,,78,153511,21,Male,1,2024/02/26_08:55:35,YZ,None,
,,,,,,practice,0,29,3,788,10,N,1,left,0.8037393800041173,1,0,,,,,,,,,,,,,,,,,,,,,1,,,,,,,,,,,,,,,,,,,,,,,,,,,,,,,,,,,,,,,,,,,,,,78,153511,21,Male,1,2024/02/26_08:55:35,YZ,None,
,,,,,,practice,0,29,3,788,11,N,0,right,1.0259942339907866,1,0,,,,,,,,,,,,,,,,,,,,,1,,,,,,,,,,,,,,,,,,,,,,,,,,,,,,,,,,,,,,,,,,,,,,78,153511,21,Male,1,2024/02/26_08:55:35,YZ,None,
,,,,,,practice,0,29,3,788,12,J,1,left,0.5259594119997928,1,0,,,,,,,,,,,,,,,,,,,,,1,,,,,,,,,,,,,,,,,,,,,,,,,,,,,,,,,,,,,,,,,,,,,,78,153511,21,Male,1,2024/02/26_08:55:35,YZ,None,
,,,,,,practice,0,29,3,788,13,N,1,left,1.0757719980028924,1,0,,,,,,,,,,,,,,,,,,,,,1,,,,,,,,,,,,,,,,,,,,,,,,,,,,,,,,,,,,,,,,,,,,,,78,153511,21,Male,1,2024/02/26_08:55:35,YZ,None,
,,,,,,practice,0,29,3,788,,,,,,,,1.0,1.0,0.0,1.0,0.0,1.0,0.9496681906938857,4,0,0,0,0,9,13,4,9,0,,,,1,,,,,,,,,,,,,,,,,,,,,,,,,,,,,,,,,,,,,,,,,,,,,,78,153511,21,Male,1,2024/02/26_08:55:35,YZ,None,
-1,./instructions/inst_prac_3_next/Slide49.png,left,1.0365148970013252,624.280911327005,625.3174262240063,,,,,,,,,,,,,,,,,,,,,,,,,,,,,,,,,1,,,,,,,,,,,,,,,,,,,,,,,,,,,,,,,,,,,,,,,,,,,,,,78,153511,21,Male,1,2024/02/26_08:55:35,YZ,None,
,,,,,,practice,0,6,3,583,1,S,0,right,2.2761856539873406,1,0,,,,,,,,,,,,,,,,,,,,,1,,,,,,,,,,,,,,,,,,,,,,,,,,,,,,,,,,,,,,,,,,,,,,78,153511,21,Male,1,2024/02/26_08:55:35,YZ,None,
,,,,,,practice,0,6,3,583,2,N,0,right,0.3239409789966885,1,0,,,,,,,,,,,,,,,,,,,,,1,,,,,,,,,,,,,,,,,,,,,,,,,,,,,,,,,,,,,,,,,,,,,,78,153511,21,Male,1,2024/02/26_08:55:35,YZ,None,
,,,,,,practice,0,6,3,583,3,X,0,right,0.38145863999670837,1,0,,,,,,,,,,,,,,,,,,,,,1,,,,,,,,,,,,,,,,,,,,,,,,,,,,,,,,,,,,,,,,,,,,,,78,153511,21,Male,1,2024/02/26_08:55:35,YZ,None,
,,,,,,practice,0,6,3,583,4,C,0,right,0.4842018920026021,1,0,,,,,,,,,,,,,,,,,,,,,1,,,,,,,,,,,,,,,,,,,,,,,,,,,,,,,,,,,,,,,,,,,,,,78,153511,21,Male,1,2024/02/26_08:55:35,YZ,None,
,,,,,,practice,0,6,3,583,5,F,0,right,0.6930101739999373,1,0,,,,,,,,,,,,,,,,,,,,,1,,,,,,,,,,,,,,,,,,,,,,,,,,,,,,,,,,,,,,,,,,,,,,78,153511,21,Male,1,2024/02/26_08:55:35,YZ,None,
,,,,,,practice,0,6,3,583,6,C,0,right,0.5402067050017649,1,0,,,,,,,,,,,,,,,,,,,,,1,,,,,,,,,,,,,,,,,,,,,,,,,,,,,,,,,,,,,,,,,,,,,,78,153511,21,Male,1,2024/02/26_08:55:35,YZ,None,
,,,,,,practice,0,6,3,583,7,J,0,right,0.7327450500015402,1,0,,,,,,,,,,,,,,,,,,,,,1,,,,,,,,,,,,,,,,,,,,,,,,,,,,,,,,,,,,,,,,,,,,,,78,153511,21,Male,1,2024/02/26_08:55:35,YZ,None,
,,,,,,practice,0,6,3,583,8,F,1,left,0.5651661680021789,1,0,,,,,,,,,,,,,,,,,,,,,1,,,,,,,,,,,,,,,,,,,,,,,,,,,,,,,,,,,,,,,,,,,,,,78,153511,21,Male,1,2024/02/26_08:55:35,YZ,None,
,,,,,,practice,0,6,3,583,9,J,0,right,0.7868788869964192,1,0,,,,,,,,,,,,,,,,,,,,,1,,,,,,,,,,,,,,,,,,,,,,,,,,,,,,,,,,,,,,,,,,,,,,78,153511,21,Male,1,2024/02/26_08:55:35,YZ,None,
,,,,,,practice,0,6,3,583,10,Q,0,right,0.7037103619950358,1,0,,,,,,,,,,,,,,,,,,,,,1,,,,,,,,,,,,,,,,,,,,,,,,,,,,,,,,,,,,,,,,,,,,,,78,153511,21,Male,1,2024/02/26_08:55:35,YZ,None,
,,,,,,practice,0,6,3,583,11,F,1,left,0.5440507050079759,1,0,,,,,,,,,,,,,,,,,,,,,1,,,,,,,,,,,,,,,,,,,,,,,,,,,,,,,,,,,,,,,,,,,,,,78,153511,21,Male,1,2024/02/26_08:55:35,YZ,None,
,,,,,,practice,0,6,3,583,12,X,0,right,0.7883969950053142,1,0,,,,,,,,,,,,,,,,,,,,,1,,,,,,,,,,,,,,,,,,,,,,,,,,,,,,,,,,,,,,,,,,,,,,78,153511,21,Male,1,2024/02/26_08:55:35,YZ,None,
,,,,,,practice,0,6,3,583,13,Q,1,left,0.7411432009976124,1,0,,,,,,,,,,,,,,,,,,,,,1,,,,,,,,,,,,,,,,,,,,,,,,,,,,,,,,,,,,,,,,,,,,,,78,153511,21,Male,1,2024/02/26_08:55:35,YZ,None,
,,,,,,practice,0,6,3,583,14,F,1,left,0.5737127539905487,1,0,,,,,,,,,,,,,,,,,,,,,1,,,,,,,,,,,,,,,,,,,,,,,,,,,,,,,,,,,,,,,,,,,,,,78,153511,21,Male,1,2024/02/26_08:55:35,YZ,None,
,,,,,,practice,0,6,3,583,15,N,0,right,0.6354551830008859,1,0,,,,,,,,,,,,,,,,,,,,,1,,,,,,,,,,,,,,,,,,,,,,,,,,,,,,,,,,,,,,,,,,,,,,78,153511,21,Male,1,2024/02/26_08:55:35,YZ,None,
,,,,,,practice,0,6,3,583,,,,,,,,1.0,1.0,0.0,1.0,0.0,1.0,0.7180175565988368,4,0,0,0,0,11,15,4,11,0,,,,1,,,,,,,,,,,,,,,,,,,,,,,,,,,,,,,,,,,,,,,,,,,,,,78,153511,21,Male,1,2024/02/26_08:55:35,YZ,None,
1,./instructions/inst_prac_3_next/Slide49.png,right,1.6867161279951688,652.9026644810074,654.5893806090025,,,,,,,,,,,,,,,,,,,,,,,,,,,,,,,,,1,,,,,,,,,,,,,,,,,,,,,,,,,,,,,,,,,,,,,,,,,,,,,,78,153511,21,Male,1,2024/02/26_08:55:35,YZ,None,
,,,,,,practice,0,13,3,583,1,Q,0,right,0.8680551729921717,1,0,,,,,,,,,,,,,,,,,,,,,1,,,,,,,,,,,,,,,,,,,,,,,,,,,,,,,,,,,,,,,,,,,,,,78,153511,21,Male,1,2024/02/26_08:55:35,YZ,None,
,,,,,,practice,0,13,3,583,2,S,0,right,0.45821897601126693,1,0,,,,,,,,,,,,,,,,,,,,,1,,,,,,,,,,,,,,,,,,,,,,,,,,,,,,,,,,,,,,,,,,,,,,78,153511,21,Male,1,2024/02/26_08:55:35,YZ,None,
,,,,,,practice,0,13,3,583,3,J,0,right,0.41787927100085653,1,0,,,,,,,,,,,,,,,,,,,,,1,,,,,,,,,,,,,,,,,,,,,,,,,,,,,,,,,,,,,,,,,,,,,,78,153511,21,Male,1,2024/02/26_08:55:35,YZ,None,
,,,,,,practice,0,13,3,583,4,Q,1,left,0.3620635560073424,1,0,,,,,,,,,,,,,,,,,,,,,1,,,,,,,,,,,,,,,,,,,,,,,,,,,,,,,,,,,,,,,,,,,,,,78,153511,21,Male,1,2024/02/26_08:55:35,YZ,None,
,,,,,,practice,0,13,3,583,5,S,1,right,0.5000227330019698,0,0,,,,,,,,,,,,,,,,,,,,,1,,,,,,,,,,,,,,,,,,,,,,,,,,,,,,,,,,,,,,,,,,,,,,78,153511,21,Male,1,2024/02/26_08:55:35,YZ,None,
,,,,,,practice,0,13,3,583,6,F,0,right,0.4635141780017875,1,0,,,,,,,,,,,,,,,,,,,,,1,,,,,,,,,,,,,,,,,,,,,,,,,,,,,,,,,,,,,,,,,,,,,,78,153511,21,Male,1,2024/02/26_08:55:35,YZ,None,
,,,,,,practice,0,13,3,583,7,F,0,right,0.6361834670096869,1,0,,,,,,,,,,,,,,,,,,,,,1,,,,,,,,,,,,,,,,,,,,,,,,,,,,,,,,,,,,,,,,,,,,,,78,153511,21,Male,1,2024/02/26_08:55:35,YZ,None,
,,,,,,practice,0,13,3,583,8,S,1,left,0.7350982839998323,1,0,,,,,,,,,,,,,,,,,,,,,1,,,,,,,,,,,,,,,,,,,,,,,,,,,,,,,,,,,,,,,,,,,,,,78,153511,21,Male,1,2024/02/26_08:55:35,YZ,None,
,,,,,,practice,0,13,3,583,9,X,0,right,0.5532076560048154,1,0,,,,,,,,,,,,,,,,,,,,,1,,,,,,,,,,,,,,,,,,,,,,,,,,,,,,,,,,,,,,,,,,,,,,78,153511,21,Male,1,2024/02/26_08:55:35,YZ,None,
,,,,,,practice,0,13,3,583,10,C,0,right,0.46065840299706906,1,0,,,,,,,,,,,,,,,,,,,,,1,,,,,,,,,,,,,,,,,,,,,,,,,,,,,,,,,,,,,,,,,,,,,,78,153511,21,Male,1,2024/02/26_08:55:35,YZ,None,
,,,,,,practice,0,13,3,583,11,S,1,right,0.4519734969944693,0,0,,,,,,,,,,,,,,,,,,,,,1,,,,,,,,,,,,,,,,,,,,,,,,,,,,,,,,,,,,,,,,,,,,,,78,153511,21,Male,1,2024/02/26_08:55:35,YZ,None,
,,,,,,practice,0,13,3,583,12,N,0,right,0.45720576999883633,1,0,,,,,,,,,,,,,,,,,,,,,1,,,,,,,,,,,,,,,,,,,,,,,,,,,,,,,,,,,,,,,,,,,,,,78,153511,21,Male,1,2024/02/26_08:55:35,YZ,None,
,,,,,,practice,0,13,3,583,13,F,0,right,0.47231610599556006,1,0,,,,,,,,,,,,,,,,,,,,,1,,,,,,,,,,,,,,,,,,,,,,,,,,,,,,,,,,,,,,,,,,,,,,78,153511,21,Male,1,2024/02/26_08:55:35,YZ,None,
,,,,,,practice,0,13,3,583,14,N,0,right,0.3914903809927637,1,0,,,,,,,,,,,,,,,,,,,,,1,,,,,,,,,,,,,,,,,,,,,,,,,,,,,,,,,,,,,,,,,,,,,,78,153511,21,Male,1,2024/02/26_08:55:35,YZ,None,
,,,,,,practice,0,13,3,583,15,Q,0,right,0.4163273919984931,1,0,,,,,,,,,,,,,,,,,,,,,1,,,,,,,,,,,,,,,,,,,,,,,,,,,,,,,,,,,,,,,,,,,,,,78,153511,21,Male,1,2024/02/26_08:55:35,YZ,None,
,,,,,,practice,0,13,3,583,,,,,,,,0.875,0.5,0.0,1.0,0.0,1.0,0.509614322867128,2,0,0,0,0,11,13,4,11,0,,,,1,,,,,,,,,,,,,,,,,,,,,,,,,,,,,,,,,,,,,,,,,,,,,,78,153511,21,Male,1,2024/02/26_08:55:35,YZ,None,
,,,,,,practice,0,33,3,583,1,C,0,right,1.9640066410065629,1,0,,,,,,,,,,,,,,,,,,,,,1,,,,,,,,,,,,,,,,,,,,,,,,,,,,,,,,,,,,,,,,,,,,,,78,153511,21,Male,1,2024/02/26_08:55:35,YZ,None,
,,,,,,practice,0,33,3,583,2,N,0,right,0.5753278610063717,1,0,,,,,,,,,,,,,,,,,,,,,1,,,,,,,,,,,,,,,,,,,,,,,,,,,,,,,,,,,,,,,,,,,,,,78,153511,21,Male,1,2024/02/26_08:55:35,YZ,None,
,,,,,,practice,0,33,3,583,3,C,0,right,0.584475666997605,1,0,,,,,,,,,,,,,,,,,,,,,1,,,,,,,,,,,,,,,,,,,,,,,,,,,,,,,,,,,,,,,,,,,,,,78,153511,21,Male,1,2024/02/26_08:55:35,YZ,None,
,,,,,,practice,0,33,3,583,4,S,0,right,0.43184794700937346,1,0,,,,,,,,,,,,,,,,,,,,,1,,,,,,,,,,,,,,,,,,,,,,,,,,,,,,,,,,,,,,,,,,,,,,78,153511,21,Male,1,2024/02/26_08:55:35,YZ,None,
,,,,,,practice,0,33,3,583,5,C,0,right,0.4851336849969812,1,0,,,,,,,,,,,,,,,,,,,,,1,,,,,,,,,,,,,,,,,,,,,,,,,,,,,,,,,,,,,,,,,,,,,,78,153511,21,Male,1,2024/02/26_08:55:35,YZ,None,
,,,,,,practice,0,33,3,583,6,C,1,left,0.46398778600269,1,0,,,,,,,,,,,,,,,,,,,,,1,,,,,,,,,,,,,,,,,,,,,,,,,,,,,,,,,,,,,,,,,,,,,,78,153511,21,Male,1,2024/02/26_08:55:35,YZ,None,
,,,,,,practice,0,33,3,583,7,N,0,right,0.6045296269876417,1,0,,,,,,,,,,,,,,,,,,,,,1,,,,,,,,,,,,,,,,,,,,,,,,,,,,,,,,,,,,,,,,,,,,,,78,153511,21,Male,1,2024/02/26_08:55:35,YZ,None,
,,,,,,practice,0,33,3,583,8,S,0,right,0.511389652005164,1,0,,,,,,,,,,,,,,,,,,,,,1,,,,,,,,,,,,,,,,,,,,,,,,,,,,,,,,,,,,,,,,,,,,,,78,153511,21,Male,1,2024/02/26_08:55:35,YZ,None,
,,,,,,practice,0,33,3,583,9,C,1,right,0.5940726940025343,0,0,,,,,,,,,,,,,,,,,,,,,1,,,,,,,,,,,,,,,,,,,,,,,,,,,,,,,,,,,,,,,,,,,,,,78,153511,21,Male,1,2024/02/26_08:55:35,YZ,None,
,,,,,,practice,0,33,3,583,10,N,1,left,0.3088397279934725,1,0,,,,,,,,,,,,,,,,,,,,,1,,,,,,,,,,,,,,,,,,,,,,,,,,,,,,,,,,,,,,,,,,,,,,78,153511,21,Male,1,2024/02/26_08:55:35,YZ,None,
,,,,,,practice,0,33,3,583,11,C,0,right,0.460272893004003,1,0,,,,,,,,,,,,,,,,,,,,,1,,,,,,,,,,,,,,,,,,,,,,,,,,,,,,,,,,,,,,,,,,,,,,78,153511,21,Male,1,2024/02/26_08:55:35,YZ,None,
,,,,,,practice,0,33,3,583,12,V,0,right,0.4768697580002481,1,0,,,,,,,,,,,,,,,,,,,,,1,,,,,,,,,,,,,,,,,,,,,,,,,,,,,,,,,,,,,,,,,,,,,,78,153511,21,Male,1,2024/02/26_08:55:35,YZ,None,
,,,,,,practice,0,33,3,583,13,J,0,right,0.5328039549931418,1,0,,,,,,,,,,,,,,,,,,,,,1,,,,,,,,,,,,,,,,,,,,,,,,,,,,,,,,,,,,,,,,,,,,,,78,153511,21,Male,1,2024/02/26_08:55:35,YZ,None,
,,,,,,practice,0,33,3,583,14,C,1,left,0.3940538440074306,1,0,,,,,,,,,,,,,,,,,,,,,1,,,,,,,,,,,,,,,,,,,,,,,,,,,,,,,,,,,,,,,,,,,,,,78,153511,21,Male,1,2024/02/26_08:55:35,YZ,None,
,,,,,,practice,0,33,3,583,15,F,0,right,0.4881812899984652,1,0,,,,,,,,,,,,,,,,,,,,,1,,,,,,,,,,,,,,,,,,,,,,,,,,,,,,,,,,,,,,,,,,,,,,78,153511,21,Male,1,2024/02/26_08:55:35,YZ,None,
,,,,,,practice,0,33,3,583,,,,,,,,0.9375,0.75,0.0,1.0,0.0,1.0,0.591719535200779,3,0,0,0,0,11,14,4,11,0,,,,1,,,,,,,,,,,,,,,,,,,,,,,,,,,,,,,,,,,,,,,,,,,,,,78,153511,21,Male,1,2024/02/26_08:55:35,YZ,None,
-1,./instructions/inst_prac_main/Slide51.png,left,1.4650543659954565,691.0122995990096,692.477353965005,,,,,,,,,,,,,,,,,,,,,,,,,,,,,,,,,1,,,,,,,,,,,,,,,,,,,,,,,,,,,,,,,,,,,,,,,,,,,,,,78,153511,21,Male,1,2024/02/26_08:55:35,YZ,None,
0,./instructions/inst_prac_main/Slide54.png,right,2.5505857829994056,692.5107287069986,695.061314489998,,,,,,,,,,,,,,,,,,,,,,,,,,,,,,,,,1,,,,,,,,,,,,,,,,,,,,,,,,,,,,,,,,,,,,,,,,,,,,,,78,153511,21,Male,1,2024/02/26_08:55:35,YZ,None,
1,./instructions/inst_prac_main/Slide51.png,right,1.9781327840028098,695.0914991750033,697.0696319590061,,,,,,,,,,,,,,,,,,,,,,,,,,,,,,,,,1,,,,,,,,,,,,,,,,,,,,,,,,,,,,,,,,,,,,,,,,,,,,,,78,153511,21,Male,1,2024/02/26_08:55:35,YZ,None,
2,./instructions/inst_prac_main/Slide52.png,right,7.040280397006427,697.1171316999971,704.1574120970035,,,,,,,,,,,,,,,,,,,,,,,,,,,,,,,,,1,,,,,,,,,,,,,,,,,,,,,,,,,,,,,,,,,,,,,,,,,,,,,,78,153511,21,Male,1,2024/02/26_08:55:35,YZ,None,
3,./instructions/inst_prac_main/Slide53.png,right,3.0310796910052886,704.2060958670045,707.2371755580098,,,,,,,,,,,,,,,,,,,,,,,,,,,,,,,,,1,,,,,,,,,,,,,,,,,,,,,,,,,,,,,,,,,,,,,,,,,,,,,,78,153511,21,Male,1,2024/02/26_08:55:35,YZ,None,
4,./instructions/inst_prac_main/Slide54.png,right,8.406243894991348,707.2709861330077,715.677230027999,,,,,,,,,,,,,,,,,,,,,,,,,,,,,,,,,1,,,,,,,,,,,,,,,,,,,,,,,,,,,,,,,,,,,,,,,,,,,,,,78,153511,21,Male,1,2024/02/26_08:55:35,YZ,None,
,,,,,,practice_main,0,1,3,583,1,C,0,right,0.5746683990000747,1,0,,,,,,,,,,,,,,,,,,,,,1,,,,,,,,,,,,,,,,,,,,,,,,,,,,,,,,,,,,,,,,,,,,,,78,153511,21,Male,1,2024/02/26_08:55:35,YZ,None,
,,,,,,practice_main,0,1,3,583,2,F,0,right,0.3970792390027782,1,0,,,,,,,,,,,,,,,,,,,,,1,,,,,,,,,,,,,,,,,,,,,,,,,,,,,,,,,,,,,,,,,,,,,,78,153511,21,Male,1,2024/02/26_08:55:35,YZ,None,
,,,,,,practice_main,0,1,3,583,3,J,0,right,0.41646583200781606,1,0,,,,,,,,,,,,,,,,,,,,,1,,,,,,,,,,,,,,,,,,,,,,,,,,,,,,,,,,,,,,,,,,,,,,78,153511,21,Male,1,2024/02/26_08:55:35,YZ,None,
,,,,,,practice_main,0,1,3,583,4,Q,0,right,0.4640339799952926,1,0,,,,,,,,,,,,,,,,,,,,,1,,,,,,,,,,,,,,,,,,,,,,,,,,,,,,,,,,,,,,,,,,,,,,78,153511,21,Male,1,2024/02/26_08:55:35,YZ,None,
,,,,,,practice_main,0,1,3,583,5,F,1,left,0.5129310129996156,1,0,,,,,,,,,,,,,,,,,,,,,1,,,,,,,,,,,,,,,,,,,,,,,,,,,,,,,,,,,,,,,,,,,,,,78,153511,21,Male,1,2024/02/26_08:55:35,YZ,None,
,,,,,,practice_main,0,1,3,583,6,J,1,right,0.3991860360110877,0,0,,,,,,,,,,,,,,,,,,,,,1,,,,,,,,,,,,,,,,,,,,,,,,,,,,,,,,,,,,,,,,,,,,,,78,153511,21,Male,1,2024/02/26_08:55:35,YZ,None,
,,,,,,practice_main,0,1,3,583,7,X,0,right,0.4083208270021714,1,0,,,,,,,,,,,,,,,,,,,,,1,,,,,,,,,,,,,,,,,,,,,,,,,,,,,,,,,,,,,,,,,,,,,,78,153511,21,Male,1,2024/02/26_08:55:35,YZ,None,
,,,,,,practice_main,0,1,3,583,8,F,1,right,0.7733513619896257,0,0,,,,,,,,,,,,,,,,,,,,,1,,,,,,,,,,,,,,,,,,,,,,,,,,,,,,,,,,,,,,,,,,,,,,78,153511,21,Male,1,2024/02/26_08:55:35,YZ,None,
,,,,,,practice_main,0,1,3,583,9,J,1,left,0.5238736729952507,1,0,,,,,,,,,,,,,,,,,,,,,1,,,,,,,,,,,,,,,,,,,,,,,,,,,,,,,,,,,,,,,,,,,,,,78,153511,21,Male,1,2024/02/26_08:55:35,YZ,None,
,,,,,,practice_main,0,1,3,583,10,J,0,left,0.4650328349962365,0,0,,,,,,,,,,,,,,,,,,,,,1,,,,,,,,,,,,,,,,,,,,,,,,,,,,,,,,,,,,,,,,,,,,,,78,153511,21,Male,1,2024/02/26_08:55:35,YZ,None,
,,,,,,practice_main,0,1,3,583,11,C,0,right,0.368498711992288,1,0,,,,,,,,,,,,,,,,,,,,,1,,,,,,,,,,,,,,,,,,,,,,,,,,,,,,,,,,,,,,,,,,,,,,78,153511,21,Male,1,2024/02/26_08:55:35,YZ,None,
,,,,,,practice_main,0,1,3,583,12,V,0,right,0.4199334050063044,1,0,,,,,,,,,,,,,,,,,,,,,1,,,,,,,,,,,,,,,,,,,,,,,,,,,,,,,,,,,,,,,,,,,,,,78,153511,21,Male,1,2024/02/26_08:55:35,YZ,None,
,,,,,,practice_main,0,1,3,583,13,N,0,right,0.4235283229936613,1,0,,,,,,,,,,,,,,,,,,,,,1,,,,,,,,,,,,,,,,,,,,,,,,,,,,,,,,,,,,,,,,,,,,,,78,153511,21,Male,1,2024/02/26_08:55:35,YZ,None,
,,,,,,practice_main,0,1,3,583,14,J,0,right,0.416976174004958,1,0,,,,,,,,,,,,,,,,,,,,,1,,,,,,,,,,,,,,,,,,,,,,,,,,,,,,,,,,,,,,,,,,,,,,78,153511,21,Male,1,2024/02/26_08:55:35,YZ,None,
,,,,,,practice_main,0,1,3,583,15,X,0,right,0.5919490719970781,1,0,,,,,,,,,,,,,,,,,,,,,1,,,,,,,,,,,,,,,,,,,,,,,,,,,,,,,,,,,,,,,,,,,,,,78,153511,21,Male,1,2024/02/26_08:55:35,YZ,None,
,,,,,,practice_main,0,1,3,583,,,,,,,,0.8068181818181819,0.5,0.09090909090909091,0.9090909090909091,0.0,0.9090909090909091,0.4770552587996159,2,1,0,0,0,10,12,4,11,0,,,,1,,,,,,,,,,,,,,,,,,,,,,,,,,,,,,,,,,,,,,,,,,,,,,78,153511,21,Male,1,2024/02/26_08:55:35,YZ,None,
,,,,,240226_091307,PRACTICE,0,1,3,583,,,,,,,,,,,,,,,,,,,,,,,,,,,,1,45,1,1,cue1.png,hard,B,28,1.0536102819896769,0,718.9115778240084,720.0014071990008,,,,,,,,,,,,,,,,,,,,,,,,,,,,,,,,,,,78,153511,21,Male,1,2024/02/26_08:55:35,YZ,None,
,,,,,,practice_main,0,2,3,583,1,J,0,right,0.40321906299504917,1,0,,,,,,,,,,,,,,,,,,,,,1,,,,,,,,,,,,,,,,,,,,,,,,,,,,,,,,,,,,,,,,,,,,,,78,153511,21,Male,1,2024/02/26_08:55:35,YZ,None,
,,,,,,practice_main,0,2,3,583,2,X,0,right,0.3432919210026739,1,0,,,,,,,,,,,,,,,,,,,,,1,,,,,,,,,,,,,,,,,,,,,,,,,,,,,,,,,,,,,,,,,,,,,,78,153511,21,Male,1,2024/02/26_08:55:35,YZ,None,
,,,,,,practice_main,0,2,3,583,3,N,0,right,0.385960421001073,1,0,,,,,,,,,,,,,,,,,,,,,1,,,,,,,,,,,,,,,,,,,,,,,,,,,,,,,,,,,,,,,,,,,,,,78,153511,21,Male,1,2024/02/26_08:55:35,YZ,None,
,,,,,,practice_main,0,2,3,583,4,Q,0,right,0.41609921999042854,1,0,,,,,,,,,,,,,,,,,,,,,1,,,,,,,,,,,,,,,,,,,,,,,,,,,,,,,,,,,,,,,,,,,,,,78,153511,21,Male,1,2024/02/26_08:55:35,YZ,None,
,,,,,,practice_main,0,2,3,583,5,V,0,right,0.4450061160023324,1,0,,,,,,,,,,,,,,,,,,,,,1,,,,,,,,,,,,,,,,,,,,,,,,,,,,,,,,,,,,,,,,,,,,,,78,153511,21,Male,1,2024/02/26_08:55:35,YZ,None,
,,,,,,practice_main,0,2,3,583,6,N,1,left,0.49120161499013193,1,0,,,,,,,,,,,,,,,,,,,,,1,,,,,,,,,,,,,,,,,,,,,,,,,,,,,,,,,,,,,,,,,,,,,,78,153511,21,Male,1,2024/02/26_08:55:35,YZ,None,
,,,,,,practice_main,0,2,3,583,7,F,0,right,0.452179083993542,1,0,,,,,,,,,,,,,,,,,,,,,1,,,,,,,,,,,,,,,,,,,,,,,,,,,,,,,,,,,,,,,,,,,,,,78,153511,21,Male,1,2024/02/26_08:55:35,YZ,None,
,,,,,,practice_main,0,2,3,583,8,Q,0,right,0.45539556800213177,1,0,,,,,,,,,,,,,,,,,,,,,1,,,,,,,,,,,,,,,,,,,,,,,,,,,,,,,,,,,,,,,,,,,,,,78,153511,21,Male,1,2024/02/26_08:55:35,YZ,None,
,,,,,,practice_main,0,2,3,583,9,V,0,right,0.3995294970081886,1,0,,,,,,,,,,,,,,,,,,,,,1,,,,,,,,,,,,,,,,,,,,,,,,,,,,,,,,,,,,,,,,,,,,,,78,153511,21,Male,1,2024/02/26_08:55:35,YZ,None,
,,,,,,practice_main,0,2,3,583,10,F,1,left,0.2699266300041927,1,0,,,,,,,,,,,,,,,,,,,,,1,,,,,,,,,,,,,,,,,,,,,,,,,,,,,,,,,,,,,,,,,,,,,,78,153511,21,Male,1,2024/02/26_08:55:35,YZ,None,
,,,,,,practice_main,0,2,3,583,11,Q,1,right,0.3680081279890146,0,0,,,,,,,,,,,,,,,,,,,,,1,,,,,,,,,,,,,,,,,,,,,,,,,,,,,,,,,,,,,,,,,,,,,,78,153511,21,Male,1,2024/02/26_08:55:35,YZ,None,
,,,,,,practice_main,0,2,3,583,12,J,0,right,0.40481406600156333,1,0,,,,,,,,,,,,,,,,,,,,,1,,,,,,,,,,,,,,,,,,,,,,,,,,,,,,,,,,,,,,,,,,,,,,78,153511,21,Male,1,2024/02/26_08:55:35,YZ,None,
,,,,,,practice_main,0,2,3,583,13,S,0,right,0.38853039300011005,1,0,,,,,,,,,,,,,,,,,,,,,1,,,,,,,,,,,,,,,,,,,,,,,,,,,,,,,,,,,,,,,,,,,,,,78,153511,21,Male,1,2024/02/26_08:55:35,YZ,None,
,,,,,,practice_main,0,2,3,583,14,J,0,right,0.581795008998597,1,0,,,,,,,,,,,,,,,,,,,,,1,,,,,,,,,,,,,,,,,,,,,,,,,,,,,,,,,,,,,,,,,,,,,,78,153511,21,Male,1,2024/02/26_08:55:35,YZ,None,
,,,,,,practice_main,0,2,3,583,15,J,1,right,0.4509383990080096,0,0,,,,,,,,,,,,,,,,,,,,,1,,,,,,,,,,,,,,,,,,,,,,,,,,,,,,,,,,,,,,,,,,,,,,78,153511,21,Male,1,2024/02/26_08:55:35,YZ,None,
,,,,,,practice_main,0,2,3,583,,,,,,,,0.875,0.5,0.0,1.0,0.0,1.0,0.41705967533246924,2,0,0,0,0,11,13,4,11,0,,,,1,,,,,,,,,,,,,,,,,,,,,,,,,,,,,,,,,,,,,,,,,,,,,,78,153511,21,Male,1,2024/02/26_08:55:35,YZ,None,
,,,,,240226_091332,PRACTICE,0,2,3,583,,,,,,,,,,,,,,,,,,,,,,,,,,,,1,39,2,2,cue1.png,hard,B,28,1.1132178569969255,0,744.1796747290064,745.3211843860045,,,,,,,,,,,,,,,,,,,,,,,,,,,,,,,,,,,78,153511,21,Male,1,2024/02/26_08:55:35,YZ,None,
,,,,,,practice_main,0,3,1,583,1,V,0,right,0.6597762730089016,1,0,,,,,,,,,,,,,,,,,,,,,1,,,,,,,,,,,,,,,,,,,,,,,,,,,,,,,,,,,,,,,,,,,,,,78,153511,21,Male,1,2024/02/26_08:55:35,YZ,None,
,,,,,,practice_main,0,3,1,583,2,J,0,right,0.47170245499000885,1,0,,,,,,,,,,,,,,,,,,,,,1,,,,,,,,,,,,,,,,,,,,,,,,,,,,,,,,,,,,,,,,,,,,,,78,153511,21,Male,1,2024/02/26_08:55:35,YZ,None,
,,,,,,practice_main,0,3,1,583,3,Q,0,right,0.421080656000413,1,0,,,,,,,,,,,,,,,,,,,,,1,,,,,,,,,,,,,,,,,,,,,,,,,,,,,,,,,,,,,,,,,,,,,,78,153511,21,Male,1,2024/02/26_08:55:35,YZ,None,
,,,,,,practice_main,0,3,1,583,4,Q,1,left,0.49677663699549157,1,0,,,,,,,,,,,,,,,,,,,,,1,,,,,,,,,,,,,,,,,,,,,,,,,,,,,,,,,,,,,,,,,,,,,,78,153511,21,Male,1,2024/02/26_08:55:35,YZ,None,
,,,,,,practice_main,0,3,1,583,5,S,0,right,0.3729905739892274,1,0,,,,,,,,,,,,,,,,,,,,,1,,,,,,,,,,,,,,,,,,,,,,,,,,,,,,,,,,,,,,,,,,,,,,78,153511,21,Male,1,2024/02/26_08:55:35,YZ,None,
,,,,,,practice_main,0,3,1,583,6,C,0,right,0.41651812600321136,1,0,,,,,,,,,,,,,,,,,,,,,1,,,,,,,,,,,,,,,,,,,,,,,,,,,,,,,,,,,,,,,,,,,,,,78,153511,21,Male,1,2024/02/26_08:55:35,YZ,None,
,,,,,,practice_main,0,3,1,583,7,V,0,right,0.3611854280025,1,0,,,,,,,,,,,,,,,,,,,,,1,,,,,,,,,,,,,,,,,,,,,,,,,,,,,,,,,,,,,,,,,,,,,,78,153511,21,Male,1,2024/02/26_08:55:35,YZ,None,
,,,,,,practice_main,0,3,1,583,8,C,0,right,0.36777744999562856,1,0,,,,,,,,,,,,,,,,,,,,,1,,,,,,,,,,,,,,,,,,,,,,,,,,,,,,,,,,,,,,,,,,,,,,78,153511,21,Male,1,2024/02/26_08:55:35,YZ,None,
,,,,,,practice_main,0,3,1,583,9,C,1,left,0.34565924300113693,1,0,,,,,,,,,,,,,,,,,,,,,1,,,,,,,,,,,,,,,,,,,,,,,,,,,,,,,,,,,,,,,,,,,,,,78,153511,21,Male,1,2024/02/26_08:55:35,YZ,None,
,,,,,,practice_main,0,3,1,583,10,F,0,right,0.31991845500306226,1,0,,,,,,,,,,,,,,,,,,,,,1,,,,,,,,,,,,,,,,,,,,,,,,,,,,,,,,,,,,,,,,,,,,,,78,153511,21,Male,1,2024/02/26_08:55:35,YZ,None,
,,,,,,practice_main,0,3,1,583,11,S,0,right,0.3606396139948629,1,0,,,,,,,,,,,,,,,,,,,,,1,,,,,,,,,,,,,,,,,,,,,,,,,,,,,,,,,,,,,,,,,,,,,,78,153511,21,Male,1,2024/02/26_08:55:35,YZ,None,
,,,,,,practice_main,0,3,1,583,12,C,0,right,0.3922063329955563,1,0,,,,,,,,,,,,,,,,,,,,,1,,,,,,,,,,,,,,,,,,,,,,,,,,,,,,,,,,,,,,,,,,,,,,78,153511,21,Male,1,2024/02/26_08:55:35,YZ,None,
,,,,,,practice_main,0,3,1,583,13,C,1,left,0.32174066100560594,1,0,,,,,,,,,,,,,,,,,,,,,1,,,,,,,,,,,,,,,,,,,,,,,,,,,,,,,,,,,,,,,,,,,,,,78,153511,21,Male,1,2024/02/26_08:55:35,YZ,None,
,,,,,,practice_main,0,3,1,583,14,X,0,right,0.3289246989879757,1,0,,,,,,,,,,,,,,,,,,,,,1,,,,,,,,,,,,,,,,,,,,,,,,,,,,,,,,,,,,,,,,,,,,,,78,153511,21,Male,1,2024/02/26_08:55:35,YZ,None,
,,,,,,practice_main,0,3,1,583,15,X,1,left,0.4288448789884569,1,0,,,,,,,,,,,,,,,,,,,,,1,,,,,,,,,,,,,,,,,,,,,,,,,,,,,,,,,,,,,,,,,,,,,,78,153511,21,Male,1,2024/02/26_08:55:35,YZ,None,
,,,,,,practice_main,0,3,1,583,,,,,,,,1.0,1.0,0.0,1.0,0.0,1.0,0.4043827655308026,4,0,0,0,0,11,15,4,11,0,,,,1,,,,,,,,,,,,,,,,,,,,,,,,,,,,,,,,,,,,,,,,,,,,,,78,153511,21,Male,1,2024/02/26_08:55:35,YZ,None,
,,,,,240226_091356,PRACTICE,0,3,1,583,,,,,,,,,,,,,,,,,,,,,,,,,,,,1,32,3,3,cue2.png,easy,B,73,1.0390129009902012,0,768.5743809889973,769.6294284580072,,,,,,,,,,,,,,,,,,,,,,,,,,,,,,,,,,,78,153511,21,Male,1,2024/02/26_08:55:35,YZ,None,
1,./instructions/inst_prac_end/Slide56.png,right,22.262168465997092,791.215075376007,813.4772438420041,,,,,,,,,,,,,,,,,,,,,,,,,,,,,,,,,1,,,,,,,,,,,,,,,,,,,,,,,,,,,,,,,,,,,,,,,,,,,,,,78,153511,21,Male,1,2024/02/26_08:55:35,YZ,None,
1,./instructions/inst_test/Slide57.png,right,15.955097053010832,813.5301878129976,829.4852848660084,,,,,,,,,,,,,,,,,,,,,,,,,,,,,,,,,1,,,,,,,,,,,,,,,,,,,,,,,,,,,,,,,,,,,,,,,,,,,,,,78,153511,21,Male,1,2024/02/26_08:55:35,YZ,None,
,,,,,,test,1,1,1,583,1,X,0,right,0.5918804480024846,1,0,,,,,,,,,,,,,,,,,,,,,1,,,,,,,,,,,,,,,,,,,,,,,,,,,,,,,,,,,,,,,,,,,,,,78,153511,21,Male,1,2024/02/26_08:55:35,YZ,None,
,,,,,,test,1,1,1,583,2,X,1,left,0.40482984999835026,1,0,,,,,,,,,,,,,,,,,,,,,1,,,,,,,,,,,,,,,,,,,,,,,,,,,,,,,,,,,,,,,,,,,,,,78,153511,21,Male,1,2024/02/26_08:55:35,YZ,None,
,,,,,,test,1,1,1,583,3,J,0,right,0.3952648959966609,1,0,,,,,,,,,,,,,,,,,,,,,1,,,,,,,,,,,,,,,,,,,,,,,,,,,,,,,,,,,,,,,,,,,,,,78,153511,21,Male,1,2024/02/26_08:55:35,YZ,None,
,,,,,,test,1,1,1,583,4,X,0,right,0.3872502549929777,1,0,,,,,,,,,,,,,,,,,,,,,1,,,,,,,,,,,,,,,,,,,,,,,,,,,,,,,,,,,,,,,,,,,,,,78,153511,21,Male,1,2024/02/26_08:55:35,YZ,None,
,,,,,,test,1,1,1,583,5,Q,0,right,0.41202814799908083,1,0,,,,,,,,,,,,,,,,,,,,,1,,,,,,,,,,,,,,,,,,,,,,,,,,,,,,,,,,,,,,,,,,,,,,78,153511,21,Male,1,2024/02/26_08:55:35,YZ,None,
,,,,,,test,1,1,1,583,6,Q,1,right,0.27602504499373026,0,0,,,,,,,,,,,,,,,,,,,,,1,,,,,,,,,,,,,,,,,,,,,,,,,,,,,,,,,,,,,,,,,,,,,,78,153511,21,Male,1,2024/02/26_08:55:35,YZ,None,
,,,,,,test,1,1,1,583,7,N,0,right,0.6651013759983471,1,0,,,,,,,,,,,,,,,,,,,,,1,,,,,,,,,,,,,,,,,,,,,,,,,,,,,,,,,,,,,,,,,,,,,,78,153511,21,Male,1,2024/02/26_08:55:35,YZ,None,
,,,,,,test,1,1,1,583,8,S,0,right,0.39566967499558814,1,0,,,,,,,,,,,,,,,,,,,,,1,,,,,,,,,,,,,,,,,,,,,,,,,,,,,,,,,,,,,,,,,,,,,,78,153511,21,Male,1,2024/02/26_08:55:35,YZ,None,
,,,,,,test,1,1,1,583,9,N,0,left,0.4848554909985978,0,0,,,,,,,,,,,,,,,,,,,,,1,,,,,,,,,,,,,,,,,,,,,,,,,,,,,,,,,,,,,,,,,,,,,,78,153511,21,Male,1,2024/02/26_08:55:35,YZ,None,
,,,,,,test,1,1,1,583,10,S,0,left,0.6013287999958266,0,0,,,,,,,,,,,,,,,,,,,,,1,,,,,,,,,,,,,,,,,,,,,,,,,,,,,,,,,,,,,,,,,,,,,,78,153511,21,Male,1,2024/02/26_08:55:35,YZ,None,
,,,,,,test,1,1,1,583,11,S,1,left,0.48678689599910285,1,0,,,,,,,,,,,,,,,,,,,,,1,,,,,,,,,,,,,,,,,,,,,,,,,,,,,,,,,,,,,,,,,,,,,,78,153511,21,Male,1,2024/02/26_08:55:35,YZ,None,
,,,,,,test,1,1,1,583,12,Q,0,right,0.39256188400031533,1,0,,,,,,,,,,,,,,,,,,,,,1,,,,,,,,,,,,,,,,,,,,,,,,,,,,,,,,,,,,,,,,,,,,,,78,153511,21,Male,1,2024/02/26_08:55:35,YZ,None,
,,,,,,test,1,1,1,583,13,F,0,right,0.4244003200001316,1,0,,,,,,,,,,,,,,,,,,,,,1,,,,,,,,,,,,,,,,,,,,,,,,,,,,,,,,,,,,,,,,,,,,,,78,153511,21,Male,1,2024/02/26_08:55:35,YZ,None,
,,,,,,test,1,1,1,583,14,C,0,right,0.42476533200533595,1,0,,,,,,,,,,,,,,,,,,,,,1,,,,,,,,,,,,,,,,,,,,,,,,,,,,,,,,,,,,,,,,,,,,,,78,153511,21,Male,1,2024/02/26_08:55:35,YZ,None,
,,,,,,test,1,1,1,583,15,C,1,left,0.33003526099491864,1,0,,,,,,,,,,,,,,,,,,,,,1,,,,,,,,,,,,,,,,,,,,,,,,,,,,,,,,,,,,,,,,,,,,,,78,153511,21,Male,1,2024/02/26_08:55:35,YZ,None,
,,,,,,Test,1,1,1,583,,,,,,,,0.8465909090909092,0.75,0.18181818181818182,0.8181818181818182,0.0,0.8181818181818181,0.4448522451314299,3,2,0,0,0,9,12,4,11,0,,,,1,,,,,,,,,,,,,,,,,,,,,,,,,,,,,,,,,,,,,,,,,,,,,,78,153511,21,Male,1,2024/02/26_08:55:35,YZ,None,
,,,,,240226_091502,TEST,1,1,1,583,,,,,,,,,,,,,,,,,,,,,,,,,,,,1,1,1,1,cue2.png,easy,B,77,0.819536404000246,0,834.562180701003,835.4032421540032,,,,,,,,,,,,,,,,,,,,,,,,,,,,,,,,,,,78,153511,21,Male,1,2024/02/26_08:55:35,YZ,None,
,,,,,,test,1,2,3,583,1,V,0,None,nan,0,1,,,,,,,,,,,,,,,,,,,,,1,,,,,,,,,,,,,,,,,,,,,,,,,,,,,,,,,,,,,,,,,,,,,,78,153511,21,Male,1,2024/02/26_08:55:35,YZ,None,
,,,,,,test,1,2,3,583,2,V,0,right,0.5122046120086452,1,0,,,,,,,,,,,,,,,,,,,,,1,,,,,,,,,,,,,,,,,,,,,,,,,,,,,,,,,,,,,,,,,,,,,,78,153511,21,Male,1,2024/02/26_08:55:35,YZ,None,
,,,,,,test,1,2,3,583,3,J,0,right,0.44317359500564635,1,0,,,,,,,,,,,,,,,,,,,,,1,,,,,,,,,,,,,,,,,,,,,,,,,,,,,,,,,,,,,,,,,,,,,,78,153511,21,Male,1,2024/02/26_08:55:35,YZ,None,
,,,,,,test,1,2,3,583,4,V,1,left,0.3328914059966337,1,0,,,,,,,,,,,,,,,,,,,,,1,,,,,,,,,,,,,,,,,,,,,,,,,,,,,,,,,,,,,,,,,,,,,,78,153511,21,Male,1,2024/02/26_08:55:35,YZ,None,
,,,,,,test,1,2,3,583,5,X,0,right,0.3865427699929569,1,0,,,,,,,,,,,,,,,,,,,,,1,,,,,,,,,,,,,,,,,,,,,,,,,,,,,,,,,,,,,,,,,,,,,,78,153511,21,Male,1,2024/02/26_08:55:35,YZ,None,
,,,,,,test,1,2,3,583,6,S,0,right,0.4128570480097551,1,0,,,,,,,,,,,,,,,,,,,,,1,,,,,,,,,,,,,,,,,,,,,,,,,,,,,,,,,,,,,,,,,,,,,,78,153511,21,Male,1,2024/02/26_08:55:35,YZ,None,
,,,,,,test,1,2,3,583,7,F,0,right,0.3966083919949597,1,0,,,,,,,,,,,,,,,,,,,,,1,,,,,,,,,,,,,,,,,,,,,,,,,,,,,,,,,,,,,,,,,,,,,,78,153511,21,Male,1,2024/02/26_08:55:35,YZ,None,
,,,,,,test,1,2,3,583,8,X,1,right,0.44120973799726926,0,0,,,,,,,,,,,,,,,,,,,,,1,,,,,,,,,,,,,,,,,,,,,,,,,,,,,,,,,,,,,,,,,,,,,,78,153511,21,Male,1,2024/02/26_08:55:35,YZ,None,
,,,,,,test,1,2,3,583,9,S,1,left,0.34497329099394847,1,0,,,,,,,,,,,,,,,,,,,,,1,,,,,,,,,,,,,,,,,,,,,,,,,,,,,,,,,,,,,,,,,,,,,,78,153511,21,Male,1,2024/02/26_08:55:35,YZ,None,
,,,,,,test,1,2,3,583,10,S,0,right,0.2637988639908144,1,0,,,,,,,,,,,,,,,,,,,,,1,,,,,,,,,,,,,,,,,,,,,,,,,,,,,,,,,,,,,,,,,,,,,,78,153511,21,Male,1,2024/02/26_08:55:35,YZ,None,
,,,,,,test,1,2,3,583,11,X,1,right,0.5125769890000811,0,0,,,,,,,,,,,,,,,,,,,,,1,,,,,,,,,,,,,,,,,,,,,,,,,,,,,,,,,,,,,,,,,,,,,,78,153511,21,Male,1,2024/02/26_08:55:35,YZ,None,
,,,,,,test,1,2,3,583,12,C,0,right,0.5122470990027068,1,0,,,,,,,,,,,,,,,,,,,,,1,,,,,,,,,,,,,,,,,,,,,,,,,,,,,,,,,,,,,,,,,,,,,,78,153511,21,Male,1,2024/02/26_08:55:35,YZ,None,
,,,,,,test,1,2,3,583,13,V,0,right,0.5647561560035683,1,0,,,,,,,,,,,,,,,,,,,,,1,,,,,,,,,,,,,,,,,,,,,,,,,,,,,,,,,,,,,,,,,,,,,,78,153511,21,Male,1,2024/02/26_08:55:35,YZ,None,
,,,,,,test,1,2,3,583,14,C,0,right,0.7241465510014677,1,0,,,,,,,,,,,,,,,,,,,,,1,,,,,,,,,,,,,,,,,,,,,,,,,,,,,,,,,,,,,,,,,,,,,,78,153511,21,Male,1,2024/02/26_08:55:35,YZ,None,
,,,,,,test,1,2,3,583,15,J,0,right,0.5186760110082105,1,0,,,,,,,,,,,,,,,,,,,,,1,,,,,,,,,,,,,,,,,,,,,,,,,,,,,,,,,,,,,,,,,,,,,,78,153511,21,Male,1,2024/02/26_08:55:35,YZ,None,
,,,,,,Test,1,2,3,583,,,,,,,,0.875,0.5,0.0,1.0,0.06666666666666667,0.9333333333333333,0.4547616087147617,2,0,0,1,1,10,12,4,11,0,,,,1,,,,,,,,,,,,,,,,,,,,,,,,,,,,,,,,,,,,,,,,,,,,,,78,153511,21,Male,1,2024/02/26_08:55:35,YZ,None,
,,,,,240226_091528,TEST,1,2,3,583,,,,,,,,,,,,,,,,,,,,,,,,,,,,1,2,2,2,cue1.png,hard,B,86,0.7617894689901732,0,859.1066907450004,859.8809079530038,,,,,,,,,,,,,,,,,,,,,,,,,,,,,,,,,,,78,153511,21,Male,1,2024/02/26_08:55:35,YZ,None,
,,,,,,test,1,3,3,583,1,N,0,right,0.5503935469896533,1,0,,,,,,,,,,,,,,,,,,,,,1,,,,,,,,,,,,,,,,,,,,,,,,,,,,,,,,,,,,,,,,,,,,,,78,153511,21,Male,1,2024/02/26_08:55:35,YZ,None,
,,,,,,test,1,3,3,583,2,X,0,right,0.48856882500695065,1,0,,,,,,,,,,,,,,,,,,,,,1,,,,,,,,,,,,,,,,,,,,,,,,,,,,,,,,,,,,,,,,,,,,,,78,153511,21,Male,1,2024/02/26_08:55:35,YZ,None,
,,,,,,test,1,3,3,583,3,C,0,right,0.39222027600044385,1,0,,,,,,,,,,,,,,,,,,,,,1,,,,,,,,,,,,,,,,,,,,,,,,,,,,,,,,,,,,,,,,,,,,,,78,153511,21,Male,1,2024/02/26_08:55:35,YZ,None,
,,,,,,test,1,3,3,583,4,V,0,right,0.385658113998943,1,0,,,,,,,,,,,,,,,,,,,,,1,,,,,,,,,,,,,,,,,,,,,,,,,,,,,,,,,,,,,,,,,,,,,,78,153511,21,Male,1,2024/02/26_08:55:35,YZ,None,
,,,,,,test,1,3,3,583,5,S,0,right,0.37575367199315224,1,0,,,,,,,,,,,,,,,,,,,,,1,,,,,,,,,,,,,,,,,,,,,,,,,,,,,,,,,,,,,,,,,,,,,,78,153511,21,Male,1,2024/02/26_08:55:35,YZ,None,
,,,,,,test,1,3,3,583,6,C,1,right,0.4636293969961116,0,0,,,,,,,,,,,,,,,,,,,,,1,,,,,,,,,,,,,,,,,,,,,,,,,,,,,,,,,,,,,,,,,,,,,,78,153511,21,Male,1,2024/02/26_08:55:35,YZ,None,
,,,,,,test,1,3,3,583,7,V,1,left,0.35588084200571757,1,0,,,,,,,,,,,,,,,,,,,,,1,,,,,,,,,,,,,,,,,,,,,,,,,,,,,,,,,,,,,,,,,,,,,,78,153511,21,Male,1,2024/02/26_08:55:35,YZ,None,
,,,,,,test,1,3,3,583,8,V,0,right,0.3725908630003687,1,0,,,,,,,,,,,,,,,,,,,,,1,,,,,,,,,,,,,,,,,,,,,,,,,,,,,,,,,,,,,,,,,,,,,,78,153511,21,Male,1,2024/02/26_08:55:35,YZ,None,
,,,,,,test,1,3,3,583,9,F,0,right,0.3843720459990436,1,0,,,,,,,,,,,,,,,,,,,,,1,,,,,,,,,,,,,,,,,,,,,,,,,,,,,,,,,,,,,,,,,,,,,,78,153511,21,Male,1,2024/02/26_08:55:35,YZ,None,
,,,,,,test,1,3,3,583,10,V,1,right,0.5731039060046896,0,0,,,,,,,,,,,,,,,,,,,,,1,,,,,,,,,,,,,,,,,,,,,,,,,,,,,,,,,,,,,,,,,,,,,,78,153511,21,Male,1,2024/02/26_08:55:35,YZ,None,
,,,,,,test,1,3,3,583,11,V,1,left,0.541440644999966,1,0,,,,,,,,,,,,,,,,,,,,,1,,,,,,,,,,,,,,,,,,,,,,,,,,,,,,,,,,,,,,,,,,,,,,78,153511,21,Male,1,2024/02/26_08:55:35,YZ,None,
,,,,,,test,1,3,3,583,12,Q,0,right,0.2855845029989723,1,0,,,,,,,,,,,,,,,,,,,,,1,,,,,,,,,,,,,,,,,,,,,,,,,,,,,,,,,,,,,,,,,,,,,,78,153511,21,Male,1,2024/02/26_08:55:35,YZ,None,
,,,,,,test,1,3,3,583,13,F,0,right,0.36124605100485496,1,0,,,,,,,,,,,,,,,,,,,,,1,,,,,,,,,,,,,,,,,,,,,,,,,,,,,,,,,,,,,,,,,,,,,,78,153511,21,Male,1,2024/02/26_08:55:35,YZ,None,
,,,,,,test,1,3,3,583,14,J,0,right,0.4043199160078075,1,0,,,,,,,,,,,,,,,,,,,,,1,,,,,,,,,,,,,,,,,,,,,,,,,,,,,,,,,,,,,,,,,,,,,,78,153511,21,Male,1,2024/02/26_08:55:35,YZ,None,
,,,,,,test,1,3,3,583,15,J,0,right,0.5441241639928194,1,0,,,,,,,,,,,,,,,,,,,,,1,,,,,,,,,,,,,,,,,,,,,,,,,,,,,,,,,,,,,,,,,,,,,,78,153511,21,Male,1,2024/02/26_08:55:35,YZ,None,
,,,,,,Test,1,3,3,583,,,,,,,,0.875,0.5,0.0,1.0,0.0,1.0,0.43192578446663293,2,0,0,0,0,11,13,4,11,0,,,,1,,,,,,,,,,,,,,,,,,,,,,,,,,,,,,,,,,,,,,,,,,,,,,78,153511,21,Male,1,2024/02/26_08:55:35,YZ,None,
,,,,,240226_091553,TEST,1,3,3,583,,,,,,,,,,,,,,,,,,,,,,,,,,,,1,3,3,3,cue1.png,hard,B,86,1.1384810670133447,0,885.275439709003,886.4310172900005,,,,,,,,,,,,,,,,,,,,,,,,,,,,,,,,,,,78,153511,21,Male,1,2024/02/26_08:55:35,YZ,None,
