Instruction,Stimulus,Key,RT,START,END,Phase,Block,TrialN,NbackLevel,ISI,LetterN,Letter,Letter_isSame,Letter_Resp,Letter_RT,Letter_Accuracy,Letter_Timeout,Trial_A_measure,Trial_HR,Trial_FAR,Trial_CDR,Trial_MSR,Trial_ACC,Trial_RT,Trial_HitsCount,Trial_FAsCount,Trial_SameNoRespCount,Trial_DiffNoRespCount,Trial_NoRespCount,Trial_CDsCount,Trial_CorrectRespCount,Trial_SameLetterCount,Trial_DiffLetterCount,Trial_InvalidLetterCount,TrialCountCali,CaliEnd_A_measure,ISI_calibrated,Run,TrialIndex,TrialNumber_total,TrialNumber_valid,CueLearning,TrialDemandLearning,CueMapping,OnlineRating,OnlineRatingRT,OnlineRatingTimeOut,CueSTART,RatingSTART,OfflineRatingTimePoint,OfflineRatingQuesIndex,CueFigure,TrialDemand,OfflineRating,OfflineRatingRT,CueStart,OfflineRatingStart,PhaseType,CueLeft,CueDemandLeft,CueRight,CueDemandRight,Choice,ChoiceDemand,TaskDemand,ChoiceRT,ChoiceTimeOut,ChoiceSTART,CueCheck,CueDemandCheck,CorrectAnswer,Answer,AnswerDemand,AnswerRT,AnswerACC,AnswerTimeOut,CheckSTART,DemandRatingQuesIndex,QuesTLX,DemandLevel,DemandRating,DemandRatingRT,QuesStart,PID,SONA,Age,Gender,Run,TIME,EXPERIMENTER,frameRate,
1,./instructions/inst_begin/Slide2.png,right,20.828657052999915,0.11029173199858633,20.9389487849985,,,,,,,,,,,,,,,,,,,,,,,,,,,,,,,,,1,,,,,,,,,,,,,,,,,,,,,,,,,,,,,,,,,,,,,,,,,,,,,,127,158899,20,Female,1,2024/03/26_16:28:35,YZ,None,
2,./instructions/inst_begin/Slide3.png,right,9.370412235999538,20.968221538998478,30.338633774998016,,,,,,,,,,,,,,,,,,,,,,,,,,,,,,,,,1,,,,,,,,,,,,,,,,,,,,,,,,,,,,,,,,,,,,,,,,,,,,,,127,158899,20,Female,1,2024/03/26_16:28:35,YZ,None,
3,./instructions/inst_begin/Slide4.png,right,7.8203227640005935,30.366439039000397,38.18676180300099,,,,,,,,,,,,,,,,,,,,,,,,,,,,,,,,,1,,,,,,,,,,,,,,,,,,,,,,,,,,,,,,,,,,,,,,,,,,,,,,127,158899,20,Female,1,2024/03/26_16:28:35,YZ,None,
1,./instructions/inst_prac_2/Slide6.png,right,16.894906636996893,38.21995266600061,55.1148593029975,,,,,,,,,,,,,,,,,,,,,,,,,,,,,,,,,1,,,,,,,,,,,,,,,,,,,,,,,,,,,,,,,,,,,,,,,,,,,,,,127,158899,20,Female,1,2024/03/26_16:28:35,YZ,None,
2,./instructions/inst_prac_2/Slide7.png,right,17.547127367997746,55.14371706900056,72.6908444369983,,,,,,,,,,,,,,,,,,,,,,,,,,,,,,,,,1,,,,,,,,,,,,,,,,,,,,,,,,,,,,,,,,,,,,,,,,,,,,,,127,158899,20,Female,1,2024/03/26_16:28:35,YZ,None,
3,./instructions/inst_prac_2/Slide8.png,right,14.366263457002788,72.71661421399767,87.08287767100046,,,,,,,,,,,,,,,,,,,,,,,,,,,,,,,,,1,,,,,,,,,,,,,,,,,,,,,,,,,,,,,,,,,,,,,,,,,,,,,,127,158899,20,Female,1,2024/03/26_16:28:35,YZ,None,
4,./instructions/inst_prac_2/Slide9.png,right,12.605456442001014,87.10925911799859,99.7147155599996,,,,,,,,,,,,,,,,,,,,,,,,,,,,,,,,,1,,,,,,,,,,,,,,,,,,,,,,,,,,,,,,,,,,,,,,,,,,,,,,127,158899,20,Female,1,2024/03/26_16:28:35,YZ,None,
5,./instructions/inst_prac_2/Slide10.png,right,2.1870663199988485,99.7435106869998,101.93057700699865,,,,,,,,,,,,,,,,,,,,,,,,,,,,,,,,,1,,,,,,,,,,,,,,,,,,,,,,,,,,,,,,,,,,,,,,,,,,,,,,127,158899,20,Female,1,2024/03/26_16:28:35,YZ,None,
6,./instructions/inst_prac_2/Slide11.png,right,2.219986391999555,101.958901951999,104.17888834399855,,,,,,,,,,,,,,,,,,,,,,,,,,,,,,,,,1,,,,,,,,,,,,,,,,,,,,,,,,,,,,,,,,,,,,,,,,,,,,,,127,158899,20,Female,1,2024/03/26_16:28:35,YZ,None,
7,./instructions/inst_prac_2/Slide12.png,right,1.2782398050003394,104.20465588499792,105.48289568999826,,,,,,,,,,,,,,,,,,,,,,,,,,,,,,,,,1,,,,,,,,,,,,,,,,,,,,,,,,,,,,,,,,,,,,,,,,,,,,,,127,158899,20,Female,1,2024/03/26_16:28:35,YZ,None,
8,./instructions/inst_prac_2/Slide13.png,right,1.0196409899981518,105.51115568100067,106.53079667099882,,,,,,,,,,,,,,,,,,,,,,,,,,,,,,,,,1,,,,,,,,,,,,,,,,,,,,,,,,,,,,,,,,,,,,,,,,,,,,,,127,158899,20,Female,1,2024/03/26_16:28:35,YZ,None,
9,./instructions/inst_prac_2/Slide14.png,right,12.670201824999822,106.55653514699952,119.22673697199934,,,,,,,,,,,,,,,,,,,,,,,,,,,,,,,,,1,,,,,,,,,,,,,,,,,,,,,,,,,,,,,,,,,,,,,,,,,,,,,,127,158899,20,Female,1,2024/03/26_16:28:35,YZ,None,
10,./instructions/inst_prac_2/Slide15.png,right,15.147548554999958,119.25521858199863,134.4027671369986,,,,,,,,,,,,,,,,,,,,,,,,,,,,,,,,,1,,,,,,,,,,,,,,,,,,,,,,,,,,,,,,,,,,,,,,,,,,,,,,127,158899,20,Female,1,2024/03/26_16:28:35,YZ,None,
,,,,,,practice,0,31,2,2583,1,J,0,left,5.994090927000798,0,0,,,,,,,,,,,,,,,,,,,,,1,,,,,,,,,,,,,,,,,,,,,,,,,,,,,,,,,,,,,,,,,,,,,,127,158899,20,Female,1,2024/03/26_16:28:35,YZ,None,
,,,,,,practice,0,31,2,2583,2,S,0,right,2.505187628998101,1,0,,,,,,,,,,,,,,,,,,,,,1,,,,,,,,,,,,,,,,,,,,,,,,,,,,,,,,,,,,,,,,,,,,,,127,158899,20,Female,1,2024/03/26_16:28:35,YZ,None,
,,,,,,practice,0,31,2,2583,3,X,0,right,1.1243824329976633,1,0,,,,,,,,,,,,,,,,,,,,,1,,,,,,,,,,,,,,,,,,,,,,,,,,,,,,,,,,,,,,,,,,,,,,127,158899,20,Female,1,2024/03/26_16:28:35,YZ,None,
,,,,,,practice,0,31,2,2583,4,J,0,left,0.7254329290008172,0,0,,,,,,,,,,,,,,,,,,,,,1,,,,,,,,,,,,,,,,,,,,,,,,,,,,,,,,,,,,,,,,,,,,,,127,158899,20,Female,1,2024/03/26_16:28:35,YZ,None,
,,,,,,practice,0,31,2,2583,5,X,1,left,1.7511100900010206,1,0,,,,,,,,,,,,,,,,,,,,,1,,,,,,,,,,,,,,,,,,,,,,,,,,,,,,,,,,,,,,,,,,,,,,127,158899,20,Female,1,2024/03/26_16:28:35,YZ,None,
,,,,,,practice,0,31,2,2583,6,J,1,left,1.356894641998224,1,0,,,,,,,,,,,,,,,,,,,,,1,,,,,,,,,,,,,,,,,,,,,,,,,,,,,,,,,,,,,,,,,,,,,,127,158899,20,Female,1,2024/03/26_16:28:35,YZ,None,
,,,,,,practice,0,31,2,2583,,,,,,,,0.875,1.0,0.5,0.5,0.0,0.5,2.242849774999437,2,2,0,0,0,2,4,2,4,0,,,,1,,,,,,,,,,,,,,,,,,,,,,,,,,,,,,,,,,,,,,,,,,,,,,127,158899,20,Female,1,2024/03/26_16:28:35,YZ,None,
-1,./instructions/inst_to_cali/Slide20.png,left,3.1950162560024182,155.23998741099786,158.43500366700027,,,,,,,,,,,,,,,,,,,,,,,,,,,,,,,,,1,,,,,,,,,,,,,,,,,,,,,,,,,,,,,,,,,,,,,,,,,,,,,,127,158899,20,Female,1,2024/03/26_16:28:35,YZ,None,
,,,,,,practice,0,24,2,2583,1,N,0,right,1.0239178980009456,1,0,,,,,,,,,,,,,,,,,,,,,1,,,,,,,,,,,,,,,,,,,,,,,,,,,,,,,,,,,,,,,,,,,,,,127,158899,20,Female,1,2024/03/26_16:28:35,YZ,None,
,,,,,,practice,0,24,2,2583,2,J,0,right,0.7740321839992248,1,0,,,,,,,,,,,,,,,,,,,,,1,,,,,,,,,,,,,,,,,,,,,,,,,,,,,,,,,,,,,,,,,,,,,,127,158899,20,Female,1,2024/03/26_16:28:35,YZ,None,
,,,,,,practice,0,24,2,2583,3,N,1,left,0.7354645499981416,1,0,,,,,,,,,,,,,,,,,,,,,1,,,,,,,,,,,,,,,,,,,,,,,,,,,,,,,,,,,,,,,,,,,,,,127,158899,20,Female,1,2024/03/26_16:28:35,YZ,None,
,,,,,,practice,0,24,2,2583,4,Q,0,right,1.5103272330015898,1,0,,,,,,,,,,,,,,,,,,,,,1,,,,,,,,,,,,,,,,,,,,,,,,,,,,,,,,,,,,,,,,,,,,,,127,158899,20,Female,1,2024/03/26_16:28:35,YZ,None,
,,,,,,practice,0,24,2,2583,5,V,0,right,1.2434971809998387,1,0,,,,,,,,,,,,,,,,,,,,,1,,,,,,,,,,,,,,,,,,,,,,,,,,,,,,,,,,,,,,,,,,,,,,127,158899,20,Female,1,2024/03/26_16:28:35,YZ,None,
,,,,,,practice,0,24,2,2583,6,Q,1,left,0.7645379269997647,1,0,,,,,,,,,,,,,,,,,,,,,1,,,,,,,,,,,,,,,,,,,,,,,,,,,,,,,,,,,,,,,,,,,,,,127,158899,20,Female,1,2024/03/26_16:28:35,YZ,None,
,,,,,,practice,0,24,2,2583,,,,,,,,1.0,1.0,0.0,1.0,0.0,1.0,1.0086294954999175,2,0,0,0,0,4,6,2,4,0,,,,1,,,,,,,,,,,,,,,,,,,,,,,,,,,,,,,,,,,,,,,,,,,,,,127,158899,20,Female,1,2024/03/26_16:28:35,YZ,None,
1,./instructions/inst_to_cali/Slide20.png,right,1.004573789999995,171.83821224799976,172.84278603799976,,,,,,,,,,,,,,,,,,,,,,,,,,,,,,,,,1,,,,,,,,,,,,,,,,,,,,,,,,,,,,,,,,,,,,,,,,,,,,,,127,158899,20,Female,1,2024/03/26_16:28:35,YZ,None,
1,./instructions/inst_cali/Slide22.png,right,41.89875855599894,172.8720575410007,214.77081609699962,,,,,,,,,,,,,,,,,,,,,,,,,,,,,,,,,1,,,,,,,,,,,,,,,,,,,,,,,,,,,,,,,,,,,,,,,,,,,,,,127,158899,20,Female,1,2024/03/26_16:28:35,YZ,None,
,,,,,,calibration,0,18,2,583,1,X,0,None,nan,0,1,,,,,,,,,,,,,,,,,,,,,1,,,,,,,,,,,,,,,,,,,,,,,,,,,,,,,,,,,,,,,,,,,,,,127,158899,20,Female,1,2024/03/26_16:28:35,YZ,None,
,,,,,,calibration,0,18,2,583,2,C,0,right,0.7847823519987287,1,0,,,,,,,,,,,,,,,,,,,,,1,,,,,,,,,,,,,,,,,,,,,,,,,,,,,,,,,,,,,,,,,,,,,,127,158899,20,Female,1,2024/03/26_16:28:35,YZ,None,
,,,,,,calibration,0,18,2,583,3,S,0,left,0.7051888349997171,0,0,,,,,,,,,,,,,,,,,,,,,1,,,,,,,,,,,,,,,,,,,,,,,,,,,,,,,,,,,,,,,,,,,,,,127,158899,20,Female,1,2024/03/26_16:28:35,YZ,None,
,,,,,,calibration,0,18,2,583,4,V,0,right,1.280550037001376,1,0,,,,,,,,,,,,,,,,,,,,,1,,,,,,,,,,,,,,,,,,,,,,,,,,,,,,,,,,,,,,,,,,,,,,127,158899,20,Female,1,2024/03/26_16:28:35,YZ,None,
,,,,,,calibration,0,18,2,583,5,X,0,right,0.1697457199989003,1,0,,,,,,,,,,,,,,,,,,,,,1,,,,,,,,,,,,,,,,,,,,,,,,,,,,,,,,,,,,,,,,,,,,,,127,158899,20,Female,1,2024/03/26_16:28:35,YZ,None,
,,,,,,calibration,0,18,2,583,6,J,0,right,nan,0,1,,,,,,,,,,,,,,,,,,,,,1,,,,,,,,,,,,,,,,,,,,,,,,,,,,,,,,,,,,,,,,,,,,,,127,158899,20,Female,1,2024/03/26_16:28:35,YZ,None,
,,,,,,calibration,0,18,2,583,7,X,1,right,0.00376334500106168,0,0,,,,,,,,,,,,,,,,,,,,,1,,,,,,,,,,,,,,,,,,,,,,,,,,,,,,,,,,,,,,,,,,,,,,127,158899,20,Female,1,2024/03/26_16:28:35,YZ,None,
,,,,,,calibration,0,18,2,583,8,J,1,left,0.6190421840001363,1,0,,,,,,,,,,,,,,,,,,,,,1,,,,,,,,,,,,,,,,,,,,,,,,,,,,,,,,,,,,,,,,,,,,,,127,158899,20,Female,1,2024/03/26_16:28:35,YZ,None,
,,,,,,calibration,0,18,2,583,9,V,0,right,0.19055902299805894,1,0,,,,,,,,,,,,,,,,,,,,,1,,,,,,,,,,,,,,,,,,,,,,,,,,,,,,,,,,,,,,,,,,,,,,127,158899,20,Female,1,2024/03/26_16:28:35,YZ,None,
,,,,,,calibration,0,18,2,583,10,J,1,right,nan,0,1,,,,,,,,,,,,,,,,,,,,,1,,,,,,,,,,,,,,,,,,,,,,,,,,,,,,,,,,,,,,,,,,,,,,127,158899,20,Female,1,2024/03/26_16:28:35,YZ,None,
,,,,,,calibration,0,18,2,583,11,Q,0,right,nan,0,1,,,,,,,,,,,,,,,,,,,,,1,,,,,,,,,,,,,,,,,,,,,,,,,,,,,,,,,,,,,,,,,,,,,,127,158899,20,Female,1,2024/03/26_16:28:35,YZ,None,
,,,,,,calibration,0,18,2,583,12,F,0,right,0.24725266599853057,1,0,,,,,,,,,,,,,,,,,,,,,1,,,,,,,,,,,,,,,,,,,,,,,,,,,,,,,,,,,,,,,,,,,,,,127,158899,20,Female,1,2024/03/26_16:28:35,YZ,None,
,,,,,,calibration,0,18,2,583,13,Q,1,right,nan,0,1,,,,,,,,,,,,,,,,,,,,,1,,,,,,,,,,,,,,,,,,,,,,,,,,,,,,,,,,,,,,,,,,,,,,127,158899,20,Female,1,2024/03/26_16:28:35,YZ,None,
,,,,,,calibration,0,18,2,583,14,N,0,left,0.33462412700100685,0,0,,,,,,,,,,,,,,,,,,,,,1,,,,,,,,,,,,,,,,,,,,,,,,,,,,,,,,,,,,,,,,,,,,,,127,158899,20,Female,1,2024/03/26_16:28:35,YZ,None,
,,,,,,calibration,0,18,2,583,15,J,0,right,1.0206032889982453,1,0,,,,,,,,,,,,,,,,,,,,,1,,,,,,,,,,,,,,,,,,,,,,,,,,,,,,,,,,,,,,,,,,,,,,127,158899,20,Female,1,2024/03/26_16:28:35,YZ,None,
,,,,,,calibration,0,18,2,583,,,,,,,,0.5852272727272727,0.25,0.18181818181818182,0.75,0.3333333333333333,0.4848484848484848,0.5356111577995761,1,2,2,3,5,6,7,4,11,0,,,,1,,,,,,,,,,,,,,,,,,,,,,,,,,,,,,,,,,,,,,,,,,,,,,127,158899,20,Female,1,2024/03/26_16:28:35,YZ,None,
,,,,,,Calibration,0,,2,583,,,,,,,,,,,,,,,,,,,,,,,,,1,,,1,,,,,,,,,,,,,,,,,,,,,,,,,,,,,,,,,,,,,,,,,,,,,,127,158899,20,Female,1,2024/03/26_16:28:35,YZ,None,
,,,,,,calibration,0,30,2,679,1,X,0,left,0.901183090001723,0,0,,,,,,,,,,,,,,,,,,,,,1,,,,,,,,,,,,,,,,,,,,,,,,,,,,,,,,,,,,,,,,,,,,,,127,158899,20,Female,1,2024/03/26_16:28:35,YZ,None,
,,,,,,calibration,0,30,2,679,2,F,0,left,nan,0,1,,,,,,,,,,,,,,,,,,,,,1,,,,,,,,,,,,,,,,,,,,,,,,,,,,,,,,,,,,,,,,,,,,,,127,158899,20,Female,1,2024/03/26_16:28:35,YZ,None,
,,,,,,calibration,0,30,2,679,3,X,1,right,0.38010398400001577,0,0,,,,,,,,,,,,,,,,,,,,,1,,,,,,,,,,,,,,,,,,,,,,,,,,,,,,,,,,,,,,,,,,,,,,127,158899,20,Female,1,2024/03/26_16:28:35,YZ,None,
,,,,,,calibration,0,30,2,679,4,V,0,right,nan,0,1,,,,,,,,,,,,,,,,,,,,,1,,,,,,,,,,,,,,,,,,,,,,,,,,,,,,,,,,,,,,,,,,,,,,127,158899,20,Female,1,2024/03/26_16:28:35,YZ,None,
,,,,,,calibration,0,30,2,679,5,J,0,right,nan,0,1,,,,,,,,,,,,,,,,,,,,,1,,,,,,,,,,,,,,,,,,,,,,,,,,,,,,,,,,,,,,,,,,,,,,127,158899,20,Female,1,2024/03/26_16:28:35,YZ,None,
,,,,,,calibration,0,30,2,679,6,Q,0,left,0.8844430370008922,0,0,,,,,,,,,,,,,,,,,,,,,1,,,,,,,,,,,,,,,,,,,,,,,,,,,,,,,,,,,,,,,,,,,,,,127,158899,20,Female,1,2024/03/26_16:28:35,YZ,None,
,,,,,,calibration,0,30,2,679,7,J,1,left,nan,0,1,,,,,,,,,,,,,,,,,,,,,1,,,,,,,,,,,,,,,,,,,,,,,,,,,,,,,,,,,,,,,,,,,,,,127,158899,20,Female,1,2024/03/26_16:28:35,YZ,None,
,,,,,,calibration,0,30,2,679,8,X,0,right,0.4007840140002372,1,0,,,,,,,,,,,,,,,,,,,,,1,,,,,,,,,,,,,,,,,,,,,,,,,,,,,,,,,,,,,,,,,,,,,,127,158899,20,Female,1,2024/03/26_16:28:35,YZ,None,
,,,,,,calibration,0,30,2,679,9,C,0,right,nan,0,1,,,,,,,,,,,,,,,,,,,,,1,,,,,,,,,,,,,,,,,,,,,,,,,,,,,,,,,,,,,,,,,,,,,,127,158899,20,Female,1,2024/03/26_16:28:35,YZ,None,
,,,,,,calibration,0,30,2,679,10,V,0,left,0.2526020959994639,0,0,,,,,,,,,,,,,,,,,,,,,1,,,,,,,,,,,,,,,,,,,,,,,,,,,,,,,,,,,,,,,,,,,,,,127,158899,20,Female,1,2024/03/26_16:28:35,YZ,None,
,,,,,,calibration,0,30,2,679,11,J,0,left,nan,0,1,,,,,,,,,,,,,,,,,,,,,1,,,,,,,,,,,,,,,,,,,,,,,,,,,,,,,,,,,,,,,,,,,,,,127,158899,20,Female,1,2024/03/26_16:28:35,YZ,None,
,,,,,,calibration,0,30,2,679,12,V,1,left,0.35141306800142047,1,0,,,,,,,,,,,,,,,,,,,,,1,,,,,,,,,,,,,,,,,,,,,,,,,,,,,,,,,,,,,,,,,,,,,,127,158899,20,Female,1,2024/03/26_16:28:35,YZ,None,
,,,,,,calibration,0,30,2,679,13,N,0,right,0.676014906999626,1,0,,,,,,,,,,,,,,,,,,,,,1,,,,,,,,,,,,,,,,,,,,,,,,,,,,,,,,,,,,,,,,,,,,,,127,158899,20,Female,1,2024/03/26_16:28:35,YZ,None,
,,,,,,calibration,0,30,2,679,14,V,1,left,0.3567655039987585,1,0,,,,,,,,,,,,,,,,,,,,,1,,,,,,,,,,,,,,,,,,,,,,,,,,,,,,,,,,,,,,,,,,,,,,127,158899,20,Female,1,2024/03/26_16:28:35,YZ,None,
,,,,,,calibration,0,30,2,679,,,,,,,,0.65,0.5,0.3,0.4,0.42857142857142855,0.2714285714285714,0.5254137125002671,2,3,1,5,6,2,4,4,10,0,,,,1,,,,,,,,,,,,,,,,,,,,,,,,,,,,,,,,,,,,,,,,,,,,,,127,158899,20,Female,1,2024/03/26_16:28:35,YZ,None,
,,,,,,Calibration,0,,2,679,,,,,,,,,,,,,,,,,,,,,,,,,2,,,1,,,,,,,,,,,,,,,,,,,,,,,,,,,,,,,,,,,,,,,,,,,,,,127,158899,20,Female,1,2024/03/26_16:28:35,YZ,None,
,,,,,,calibration,0,2,2,788,1,Q,0,right,0.898586339000758,1,0,,,,,,,,,,,,,,,,,,,,,1,,,,,,,,,,,,,,,,,,,,,,,,,,,,,,,,,,,,,,,,,,,,,,127,158899,20,Female,1,2024/03/26_16:28:35,YZ,None,
,,,,,,calibration,0,2,2,788,2,F,0,left,1.3554461610001454,0,0,,,,,,,,,,,,,,,,,,,,,1,,,,,,,,,,,,,,,,,,,,,,,,,,,,,,,,,,,,,,,,,,,,,,127,158899,20,Female,1,2024/03/26_16:28:35,YZ,None,
,,,,,,calibration,0,2,2,788,3,C,0,left,0.9737916070007486,0,0,,,,,,,,,,,,,,,,,,,,,1,,,,,,,,,,,,,,,,,,,,,,,,,,,,,,,,,,,,,,,,,,,,,,127,158899,20,Female,1,2024/03/26_16:28:35,YZ,None,
,,,,,,calibration,0,2,2,788,4,V,0,left,1.1384585259984306,0,0,,,,,,,,,,,,,,,,,,,,,1,,,,,,,,,,,,,,,,,,,,,,,,,,,,,,,,,,,,,,,,,,,,,,127,158899,20,Female,1,2024/03/26_16:28:35,YZ,None,
,,,,,,calibration,0,2,2,788,5,J,0,right,0.7044413479998184,1,0,,,,,,,,,,,,,,,,,,,,,1,,,,,,,,,,,,,,,,,,,,,,,,,,,,,,,,,,,,,,,,,,,,,,127,158899,20,Female,1,2024/03/26_16:28:35,YZ,None,
,,,,,,calibration,0,2,2,788,6,V,1,left,0.38560493199838675,1,0,,,,,,,,,,,,,,,,,,,,,1,,,,,,,,,,,,,,,,,,,,,,,,,,,,,,,,,,,,,,,,,,,,,,127,158899,20,Female,1,2024/03/26_16:28:35,YZ,None,
,,,,,,calibration,0,2,2,788,7,C,0,right,0.6667135279967624,1,0,,,,,,,,,,,,,,,,,,,,,1,,,,,,,,,,,,,,,,,,,,,,,,,,,,,,,,,,,,,,,,,,,,,,127,158899,20,Female,1,2024/03/26_16:28:35,YZ,None,
,,,,,,calibration,0,2,2,788,8,S,0,right,0.5816798949999793,1,0,,,,,,,,,,,,,,,,,,,,,1,,,,,,,,,,,,,,,,,,,,,,,,,,,,,,,,,,,,,,,,,,,,,,127,158899,20,Female,1,2024/03/26_16:28:35,YZ,None,
,,,,,,calibration,0,2,2,788,9,C,1,left,0.658670835000521,1,0,,,,,,,,,,,,,,,,,,,,,1,,,,,,,,,,,,,,,,,,,,,,,,,,,,,,,,,,,,,,,,,,,,,,127,158899,20,Female,1,2024/03/26_16:28:35,YZ,None,
,,,,,,calibration,0,2,2,788,10,S,1,right,0.7948794100011582,0,0,,,,,,,,,,,,,,,,,,,,,1,,,,,,,,,,,,,,,,,,,,,,,,,,,,,,,,,,,,,,,,,,,,,,127,158899,20,Female,1,2024/03/26_16:28:35,YZ,None,
,,,,,,calibration,0,2,2,788,11,N,0,left,0.5588443800006644,0,0,,,,,,,,,,,,,,,,,,,,,1,,,,,,,,,,,,,,,,,,,,,,,,,,,,,,,,,,,,,,,,,,,,,,127,158899,20,Female,1,2024/03/26_16:28:35,YZ,None,
,,,,,,calibration,0,2,2,788,12,C,0,left,1.355658862998098,0,0,,,,,,,,,,,,,,,,,,,,,1,,,,,,,,,,,,,,,,,,,,,,,,,,,,,,,,,,,,,,,,,,,,,,127,158899,20,Female,1,2024/03/26_16:28:35,YZ,None,
,,,,,,calibration,0,2,2,788,13,N,1,left,nan,0,1,,,,,,,,,,,,,,,,,,,,,1,,,,,,,,,,,,,,,,,,,,,,,,,,,,,,,,,,,,,,,,,,,,,,127,158899,20,Female,1,2024/03/26_16:28:35,YZ,None,
,,,,,,calibration,0,2,2,788,,,,,,,,0.013888888888888895,0.5,0.5555555555555556,0.4444444444444444,0.07692307692307693,0.3675213675213675,0.839397985332956,2,5,1,0,1,4,6,4,9,0,,,,1,,,,,,,,,,,,,,,,,,,,,,,,,,,,,,,,,,,,,,,,,,,,,,127,158899,20,Female,1,2024/03/26_16:28:35,YZ,None,
,,,,,,Calibration,0,,2,788,,,,,,,,,,,,,,,,,,,,,,,,,3,,,1,,,,,,,,,,,,,,,,,,,,,,,,,,,,,,,,,,,,,,,,,,,,,,127,158899,20,Female,1,2024/03/26_16:28:35,YZ,None,
,,,,,,calibration,0,3,2,917,1,Q,0,None,nan,0,1,,,,,,,,,,,,,,,,,,,,,1,,,,,,,,,,,,,,,,,,,,,,,,,,,,,,,,,,,,,,,,,,,,,,127,158899,20,Female,1,2024/03/26_16:28:35,YZ,None,
,,,,,,calibration,0,3,2,917,2,V,0,left,1.348389742001018,0,0,,,,,,,,,,,,,,,,,,,,,1,,,,,,,,,,,,,,,,,,,,,,,,,,,,,,,,,,,,,,,,,,,,,,127,158899,20,Female,1,2024/03/26_16:28:35,YZ,None,
,,,,,,calibration,0,3,2,917,3,F,0,left,0.8974471569999878,0,0,,,,,,,,,,,,,,,,,,,,,1,,,,,,,,,,,,,,,,,,,,,,,,,,,,,,,,,,,,,,,,,,,,,,127,158899,20,Female,1,2024/03/26_16:28:35,YZ,None,
,,,,,,calibration,0,3,2,917,4,V,1,right,0.932775331002631,0,0,,,,,,,,,,,,,,,,,,,,,1,,,,,,,,,,,,,,,,,,,,,,,,,,,,,,,,,,,,,,,,,,,,,,127,158899,20,Female,1,2024/03/26_16:28:35,YZ,None,
,,,,,,calibration,0,3,2,917,5,J,0,left,0.4167924029970891,0,0,,,,,,,,,,,,,,,,,,,,,1,,,,,,,,,,,,,,,,,,,,,,,,,,,,,,,,,,,,,,,,,,,,,,127,158899,20,Female,1,2024/03/26_16:28:35,YZ,None,
,,,,,,calibration,0,3,2,917,6,S,0,right,0.6216113409973332,1,0,,,,,,,,,,,,,,,,,,,,,1,,,,,,,,,,,,,,,,,,,,,,,,,,,,,,,,,,,,,,,,,,,,,,127,158899,20,Female,1,2024/03/26_16:28:35,YZ,None,
,,,,,,calibration,0,3,2,917,7,J,1,right,0.708423138003127,0,0,,,,,,,,,,,,,,,,,,,,,1,,,,,,,,,,,,,,,,,,,,,,,,,,,,,,,,,,,,,,,,,,,,,,127,158899,20,Female,1,2024/03/26_16:28:35,YZ,None,
,,,,,,calibration,0,3,2,917,8,Q,0,right,nan,0,1,,,,,,,,,,,,,,,,,,,,,1,,,,,,,,,,,,,,,,,,,,,,,,,,,,,,,,,,,,,,,,,,,,,,127,158899,20,Female,1,2024/03/26_16:28:35,YZ,None,
,,,,,,calibration,0,3,2,917,9,C,0,left,0.6983821560024808,0,0,,,,,,,,,,,,,,,,,,,,,1,,,,,,,,,,,,,,,,,,,,,,,,,,,,,,,,,,,,,,,,,,,,,,127,158899,20,Female,1,2024/03/26_16:28:35,YZ,None,
,,,,,,calibration,0,3,2,917,10,F,0,left,0.7580153250019066,0,0,,,,,,,,,,,,,,,,,,,,,1,,,,,,,,,,,,,,,,,,,,,,,,,,,,,,,,,,,,,,,,,,,,,,127,158899,20,Female,1,2024/03/26_16:28:35,YZ,None,
,,,,,,calibration,0,3,2,917,11,C,1,left,0.7228765469990321,1,0,,,,,,,,,,,,,,,,,,,,,1,,,,,,,,,,,,,,,,,,,,,,,,,,,,,,,,,,,,,,,,,,,,,,127,158899,20,Female,1,2024/03/26_16:28:35,YZ,None,
,,,,,,calibration,0,3,2,917,12,Q,0,left,0.8409846159993322,0,0,,,,,,,,,,,,,,,,,,,,,1,,,,,,,,,,,,,,,,,,,,,,,,,,,,,,,,,,,,,,,,,,,,,,127,158899,20,Female,1,2024/03/26_16:28:35,YZ,None,
,,,,,,calibration,0,3,2,917,,,,,,,,0.11904761904761907,0.3333333333333333,0.6666666666666666,0.14285714285714285,0.16666666666666666,0.1666666666666667,0.7945697756003938,1,6,0,2,2,1,2,3,9,0,,,,1,,,,,,,,,,,,,,,,,,,,,,,,,,,,,,,,,,,,,,,,,,,,,,127,158899,20,Female,1,2024/03/26_16:28:35,YZ,None,
,,,,,,Calibration,0,,2,917,,,,,,,,,,,,,,,,,,,,,,,,,4,,,1,,,,,,,,,,,,,,,,,,,,,,,,,,,,,,,,,,,,,,,,,,,,,,127,158899,20,Female,1,2024/03/26_16:28:35,YZ,None,
,,,,,,calibration,0,5,2,1068,1,F,0,left,1.2430983779995586,0,0,,,,,,,,,,,,,,,,,,,,,1,,,,,,,,,,,,,,,,,,,,,,,,,,,,,,,,,,,,,,,,,,,,,,127,158899,20,Female,1,2024/03/26_16:28:35,YZ,None,
,,,,,,calibration,0,5,2,1068,2,X,0,left,0.7696669729994028,0,0,,,,,,,,,,,,,,,,,,,,,1,,,,,,,,,,,,,,,,,,,,,,,,,,,,,,,,,,,,,,,,,,,,,,127,158899,20,Female,1,2024/03/26_16:28:35,YZ,None,
,,,,,,calibration,0,5,2,1068,3,Q,0,left,0.7206745250005042,0,0,,,,,,,,,,,,,,,,,,,,,1,,,,,,,,,,,,,,,,,,,,,,,,,,,,,,,,,,,,,,,,,,,,,,127,158899,20,Female,1,2024/03/26_16:28:35,YZ,None,
,,,,,,calibration,0,5,2,1068,4,X,1,right,1.039065455999662,0,0,,,,,,,,,,,,,,,,,,,,,1,,,,,,,,,,,,,,,,,,,,,,,,,,,,,,,,,,,,,,,,,,,,,,127,158899,20,Female,1,2024/03/26_16:28:35,YZ,None,
,,,,,,calibration,0,5,2,1068,5,Q,1,left,0.3440471249996335,1,0,,,,,,,,,,,,,,,,,,,,,1,,,,,,,,,,,,,,,,,,,,,,,,,,,,,,,,,,,,,,,,,,,,,,127,158899,20,Female,1,2024/03/26_16:28:35,YZ,None,
,,,,,,calibration,0,5,2,1068,6,J,0,right,0.0,1,0,,,,,,,,,,,,,,,,,,,,,1,,,,,,,,,,,,,,,,,,,,,,,,,,,,,,,,,,,,,,,,,,,,,,127,158899,20,Female,1,2024/03/26_16:28:35,YZ,None,
,,,,,,calibration,0,5,2,1068,7,C,0,right,nan,0,1,,,,,,,,,,,,,,,,,,,,,1,,,,,,,,,,,,,,,,,,,,,,,,,,,,,,,,,,,,,,,,,,,,,,127,158899,20,Female,1,2024/03/26_16:28:35,YZ,None,
,,,,,,calibration,0,5,2,1068,8,N,0,right,0.7075724019996414,1,0,,,,,,,,,,,,,,,,,,,,,1,,,,,,,,,,,,,,,,,,,,,,,,,,,,,,,,,,,,,,,,,,,,,,127,158899,20,Female,1,2024/03/26_16:28:35,YZ,None,
,,,,,,calibration,0,5,2,1068,9,J,0,left,0.06357922499955748,0,0,,,,,,,,,,,,,,,,,,,,,1,,,,,,,,,,,,,,,,,,,,,,,,,,,,,,,,,,,,,,,,,,,,,,127,158899,20,Female,1,2024/03/26_16:28:35,YZ,None,
,,,,,,calibration,0,5,2,1068,10,C,0,left,nan,0,1,,,,,,,,,,,,,,,,,,,,,1,,,,,,,,,,,,,,,,,,,,,,,,,,,,,,,,,,,,,,,,,,,,,,127,158899,20,Female,1,2024/03/26_16:28:35,YZ,None,
,,,,,,calibration,0,5,2,1068,11,J,1,left,0.8413260229972366,1,0,,,,,,,,,,,,,,,,,,,,,1,,,,,,,,,,,,,,,,,,,,,,,,,,,,,,,,,,,,,,,,,,,,,,127,158899,20,Female,1,2024/03/26_16:28:35,YZ,None,
,,,,,,calibration,0,5,2,1068,,,,,,,,0.625,0.6666666666666666,0.5,0.3333333333333333,0.18181818181818182,0.3181818181818182,0.6365589007772441,2,4,0,2,2,2,4,3,8,0,,,,1,,,,,,,,,,,,,,,,,,,,,,,,,,,,,,,,,,,,,,,,,,,,,,127,158899,20,Female,1,2024/03/26_16:28:35,YZ,None,
,,,,,,Calibration,0,,2,1068,,,,,,,,,,,,,,,,,,,,,,,,,5,,,1,,,,,,,,,,,,,,,,,,,,,,,,,,,,,,,,,,,,,,,,,,,,,,127,158899,20,Female,1,2024/03/26_16:28:35,YZ,None,
,,,,,,calibration,0,15,2,1250,1,S,0,None,nan,0,1,,,,,,,,,,,,,,,,,,,,,1,,,,,,,,,,,,,,,,,,,,,,,,,,,,,,,,,,,,,,,,,,,,,,127,158899,20,Female,1,2024/03/26_16:28:35,YZ,None,
,,,,,,calibration,0,15,2,1250,2,X,0,left,1.01386783199996,0,0,,,,,,,,,,,,,,,,,,,,,1,,,,,,,,,,,,,,,,,,,,,,,,,,,,,,,,,,,,,,,,,,,,,,127,158899,20,Female,1,2024/03/26_16:28:35,YZ,None,
,,,,,,calibration,0,15,2,1250,3,C,0,left,0.7921114700002363,0,0,,,,,,,,,,,,,,,,,,,,,1,,,,,,,,,,,,,,,,,,,,,,,,,,,,,,,,,,,,,,,,,,,,,,127,158899,20,Female,1,2024/03/26_16:28:35,YZ,None,
,,,,,,calibration,0,15,2,1250,4,V,0,left,1.0377673769980902,0,0,,,,,,,,,,,,,,,,,,,,,1,,,,,,,,,,,,,,,,,,,,,,,,,,,,,,,,,,,,,,,,,,,,,,127,158899,20,Female,1,2024/03/26_16:28:35,YZ,None,
,,,,,,calibration,0,15,2,1250,5,F,0,left,1.064188965003268,0,0,,,,,,,,,,,,,,,,,,,,,1,,,,,,,,,,,,,,,,,,,,,,,,,,,,,,,,,,,,,,,,,,,,,,127,158899,20,Female,1,2024/03/26_16:28:35,YZ,None,
,,,,,,calibration,0,15,2,1250,6,V,1,right,0.7587638320001133,0,0,,,,,,,,,,,,,,,,,,,,,1,,,,,,,,,,,,,,,,,,,,,,,,,,,,,,,,,,,,,,,,,,,,,,127,158899,20,Female,1,2024/03/26_16:28:35,YZ,None,
,,,,,,calibration,0,15,2,1250,7,N,1,left,0.42254322199732997,1,0,,,,,,,,,,,,,,,,,,,,,1,,,,,,,,,,,,,,,,,,,,,,,,,,,,,,,,,,,,,,,,,,,,,,127,158899,20,Female,1,2024/03/26_16:28:35,YZ,None,
,,,,,,calibration,0,15,2,1250,8,V,0,right,0.692708718997892,1,0,,,,,,,,,,,,,,,,,,,,,1,,,,,,,,,,,,,,,,,,,,,,,,,,,,,,,,,,,,,,,,,,,,,,127,158899,20,Female,1,2024/03/26_16:28:35,YZ,None,
,,,,,,calibration,0,15,2,1250,9,C,0,left,0.4397633480002696,0,0,,,,,,,,,,,,,,,,,,,,,1,,,,,,,,,,,,,,,,,,,,,,,,,,,,,,,,,,,,,,,,,,,,,,127,158899,20,Female,1,2024/03/26_16:28:35,YZ,None,
,,,,,,calibration,0,15,2,1250,10,V,1,right,0.5120039840003301,0,0,,,,,,,,,,,,,,,,,,,,,1,,,,,,,,,,,,,,,,,,,,,,,,,,,,,,,,,,,,,,,,,,,,,,127,158899,20,Female,1,2024/03/26_16:28:35,YZ,None,
,,,,,,calibration,0,15,2,1250,,,,,,,,0.09920634920634921,0.3333333333333333,0.7142857142857143,0.16666666666666666,0.1,0.1857142857142857,0.7481909721108322,1,5,0,1,1,1,2,3,7,0,,,,1,,,,,,,,,,,,,,,,,,,,,,,,,,,,,,,,,,,,,,,,,,,,,,127,158899,20,Female,1,2024/03/26_16:28:35,YZ,None,
,,,,,,Calibration,0,,2,1250,,,,,,,,,,,,,,,,,,,,,,,,,6,,,1,,,,,,,,,,,,,,,,,,,,,,,,,,,,,,,,,,,,,,,,,,,,,,127,158899,20,Female,1,2024/03/26_16:28:35,YZ,None,
,,,,,,calibration,0,33,2,1472,1,S,0,left,0.7480659899993043,0,0,,,,,,,,,,,,,,,,,,,,,1,,,,,,,,,,,,,,,,,,,,,,,,,,,,,,,,,,,,,,,,,,,,,,127,158899,20,Female,1,2024/03/26_16:28:35,YZ,None,
,,,,,,calibration,0,33,2,1472,2,J,0,left,0.3071556889990461,0,0,,,,,,,,,,,,,,,,,,,,,1,,,,,,,,,,,,,,,,,,,,,,,,,,,,,,,,,,,,,,,,,,,,,,127,158899,20,Female,1,2024/03/26_16:28:35,YZ,None,
,,,,,,calibration,0,33,2,1472,3,X,0,left,0.7111661390008521,0,0,,,,,,,,,,,,,,,,,,,,,1,,,,,,,,,,,,,,,,,,,,,,,,,,,,,,,,,,,,,,,,,,,,,,127,158899,20,Female,1,2024/03/26_16:28:35,YZ,None,
,,,,,,calibration,0,33,2,1472,4,J,1,left,0.3970214559994929,1,0,,,,,,,,,,,,,,,,,,,,,1,,,,,,,,,,,,,,,,,,,,,,,,,,,,,,,,,,,,,,,,,,,,,,127,158899,20,Female,1,2024/03/26_16:28:35,YZ,None,
,,,,,,calibration,0,33,2,1472,5,F,0,left,0.7364376839977922,0,0,,,,,,,,,,,,,,,,,,,,,1,,,,,,,,,,,,,,,,,,,,,,,,,,,,,,,,,,,,,,,,,,,,,,127,158899,20,Female,1,2024/03/26_16:28:35,YZ,None,
,,,,,,calibration,0,33,2,1472,6,X,0,right,0.7470248450008512,1,0,,,,,,,,,,,,,,,,,,,,,1,,,,,,,,,,,,,,,,,,,,,,,,,,,,,,,,,,,,,,,,,,,,,,127,158899,20,Female,1,2024/03/26_16:28:35,YZ,None,
,,,,,,calibration,0,33,2,1472,7,F,1,left,0.33330711699818494,1,0,,,,,,,,,,,,,,,,,,,,,1,,,,,,,,,,,,,,,,,,,,,,,,,,,,,,,,,,,,,,,,,,,,,,127,158899,20,Female,1,2024/03/26_16:28:35,YZ,None,
,,,,,,calibration,0,33,2,1472,8,X,1,right,1.1707972399999562,0,0,,,,,,,,,,,,,,,,,,,,,1,,,,,,,,,,,,,,,,,,,,,,,,,,,,,,,,,,,,,,,,,,,,,,127,158899,20,Female,1,2024/03/26_16:28:35,YZ,None,
,,,,,,calibration,0,33,2,1472,9,V,0,left,0.8281711960007669,0,0,,,,,,,,,,,,,,,,,,,,,1,,,,,,,,,,,,,,,,,,,,,,,,,,,,,,,,,,,,,,,,,,,,,,127,158899,20,Female,1,2024/03/26_16:28:35,YZ,None,
,,,,,,calibration,0,33,2,1472,,,,,,,,0.08333333333333333,0.6666666666666666,0.8333333333333334,0.16666666666666666,0.0,0.16666666666666663,0.6643497062218052,2,5,0,0,0,1,3,3,6,0,,,,1,,,,,,,,,,,,,,,,,,,,,,,,,,,,,,,,,,,,,,,,,,,,,,127,158899,20,Female,1,2024/03/26_16:28:35,YZ,None,
,,,,,,Calibration,0,,2,1472,,,,,,,,,,,,,,,,,,,,,,,,,7,,,1,,,,,,,,,,,,,,,,,,,,,,,,,,,,,,,,,,,,,,,,,,,,,,127,158899,20,Female,1,2024/03/26_16:28:35,YZ,None,
,,,,,,calibration,0,18,2,1750,1,Q,0,left,1.4474609089993464,0,0,,,,,,,,,,,,,,,,,,,,,1,,,,,,,,,,,,,,,,,,,,,,,,,,,,,,,,,,,,,,,,,,,,,,127,158899,20,Female,1,2024/03/26_16:28:35,YZ,None,
,,,,,,calibration,0,18,2,1750,2,S,0,left,0.472876637999434,0,0,,,,,,,,,,,,,,,,,,,,,1,,,,,,,,,,,,,,,,,,,,,,,,,,,,,,,,,,,,,,,,,,,,,,127,158899,20,Female,1,2024/03/26_16:28:35,YZ,None,
,,,,,,calibration,0,18,2,1750,3,X,0,left,0.5504572240024572,0,0,,,,,,,,,,,,,,,,,,,,,1,,,,,,,,,,,,,,,,,,,,,,,,,,,,,,,,,,,,,,,,,,,,,,127,158899,20,Female,1,2024/03/26_16:28:35,YZ,None,
,,,,,,calibration,0,18,2,1750,4,N,0,left,0.7920326290004596,0,0,,,,,,,,,,,,,,,,,,,,,1,,,,,,,,,,,,,,,,,,,,,,,,,,,,,,,,,,,,,,,,,,,,,,127,158899,20,Female,1,2024/03/26_16:28:35,YZ,None,
,,,,,,calibration,0,18,2,1750,5,C,0,left,0.3587123889992654,0,0,,,,,,,,,,,,,,,,,,,,,1,,,,,,,,,,,,,,,,,,,,,,,,,,,,,,,,,,,,,,,,,,,,,,127,158899,20,Female,1,2024/03/26_16:28:35,YZ,None,
,,,,,,calibration,0,18,2,1750,6,S,0,right,0.45260925100228633,1,0,,,,,,,,,,,,,,,,,,,,,1,,,,,,,,,,,,,,,,,,,,,,,,,,,,,,,,,,,,,,,,,,,,,,127,158899,20,Female,1,2024/03/26_16:28:35,YZ,None,
,,,,,,calibration,0,18,2,1750,7,C,1,left,0.7340235900010157,1,0,,,,,,,,,,,,,,,,,,,,,1,,,,,,,,,,,,,,,,,,,,,,,,,,,,,,,,,,,,,,,,,,,,,,127,158899,20,Female,1,2024/03/26_16:28:35,YZ,None,
,,,,,,calibration,0,18,2,1750,8,S,1,right,0.9153629669999646,0,0,,,,,,,,,,,,,,,,,,,,,1,,,,,,,,,,,,,,,,,,,,,,,,,,,,,,,,,,,,,,,,,,,,,,127,158899,20,Female,1,2024/03/26_16:28:35,YZ,None,
,,,,,,calibration,0,18,2,1750,,,,,,,,0.08333333333333333,0.5,0.8333333333333334,0.16666666666666666,0.0,0.16666666666666663,0.7154419496255287,1,5,0,0,0,1,2,2,6,0,,,,1,,,,,,,,,,,,,,,,,,,,,,,,,,,,,,,,,,,,,,,,,,,,,,127,158899,20,Female,1,2024/03/26_16:28:35,YZ,None,
,,,,,,Calibration,0,,2,1750,,,,,,,,,,,,,,,,,,,,,,,,,8,,,1,,,,,,,,,,,,,,,,,,,,,,,,,,,,,,,,,,,,,,,,,,,,,,127,158899,20,Female,1,2024/03/26_16:28:35,YZ,None,
,,,,,,calibration,0,36,2,2107,1,Q,0,left,1.232704811001895,0,0,,,,,,,,,,,,,,,,,,,,,1,,,,,,,,,,,,,,,,,,,,,,,,,,,,,,,,,,,,,,,,,,,,,,127,158899,20,Female,1,2024/03/26_16:28:35,YZ,None,
,,,,,,calibration,0,36,2,2107,2,N,0,left,1.2863035810005385,0,0,,,,,,,,,,,,,,,,,,,,,1,,,,,,,,,,,,,,,,,,,,,,,,,,,,,,,,,,,,,,,,,,,,,,127,158899,20,Female,1,2024/03/26_16:28:35,YZ,None,
,,,,,,calibration,0,36,2,2107,3,J,0,left,1.276821829000255,0,0,,,,,,,,,,,,,,,,,,,,,1,,,,,,,,,,,,,,,,,,,,,,,,,,,,,,,,,,,,,,,,,,,,,,127,158899,20,Female,1,2024/03/26_16:28:35,YZ,None,
,,,,,,calibration,0,36,2,2107,4,N,1,right,0.6924688680010149,0,0,,,,,,,,,,,,,,,,,,,,,1,,,,,,,,,,,,,,,,,,,,,,,,,,,,,,,,,,,,,,,,,,,,,,127,158899,20,Female,1,2024/03/26_16:28:35,YZ,None,
,,,,,,calibration,0,36,2,2107,5,Q,0,right,0.8260379310013377,1,0,,,,,,,,,,,,,,,,,,,,,1,,,,,,,,,,,,,,,,,,,,,,,,,,,,,,,,,,,,,,,,,,,,,,127,158899,20,Female,1,2024/03/26_16:28:35,YZ,None,
,,,,,,calibration,0,36,2,2107,6,F,0,left,0.7811560269983602,0,0,,,,,,,,,,,,,,,,,,,,,1,,,,,,,,,,,,,,,,,,,,,,,,,,,,,,,,,,,,,,,,,,,,,,127,158899,20,Female,1,2024/03/26_16:28:35,YZ,None,
,,,,,,calibration,0,36,2,2107,7,Q,1,right,0.4218356359997415,0,0,,,,,,,,,,,,,,,,,,,,,1,,,,,,,,,,,,,,,,,,,,,,,,,,,,,,,,,,,,,,,,,,,,,,127,158899,20,Female,1,2024/03/26_16:28:35,YZ,None,
,,,,,,calibration,0,36,2,2107,,,,,,,,0.04999999999999999,0.0,0.8,0.2,0.0,0.19999999999999996,0.9310469547147348,0,4,0,0,0,1,1,2,5,0,,,,1,,,,,,,,,,,,,,,,,,,,,,,,,,,,,,,,,,,,,,,,,,,,,,127,158899,20,Female,1,2024/03/26_16:28:35,YZ,None,
,,,,,,Calibration,0,,2,2107,,,,,,,,,,,,,,,,,,,,,,,,,9,,,1,,,,,,,,,,,,,,,,,,,,,,,,,,,,,,,,,,,,,,,,,,,,,,127,158899,20,Female,1,2024/03/26_16:28:35,YZ,None,
,,,,,,calibration,0,15,2,2583,1,J,0,left,0.7993677539998316,0,0,,,,,,,,,,,,,,,,,,,,,1,,,,,,,,,,,,,,,,,,,,,,,,,,,,,,,,,,,,,,,,,,,,,,127,158899,20,Female,1,2024/03/26_16:28:35,YZ,None,
,,,,,,calibration,0,15,2,2583,2,C,0,left,0.747155853001459,0,0,,,,,,,,,,,,,,,,,,,,,1,,,,,,,,,,,,,,,,,,,,,,,,,,,,,,,,,,,,,,,,,,,,,,127,158899,20,Female,1,2024/03/26_16:28:35,YZ,None,
,,,,,,calibration,0,15,2,2583,3,J,1,right,0.682344890999957,0,0,,,,,,,,,,,,,,,,,,,,,1,,,,,,,,,,,,,,,,,,,,,,,,,,,,,,,,,,,,,,,,,,,,,,127,158899,20,Female,1,2024/03/26_16:28:35,YZ,None,
,,,,,,calibration,0,15,2,2583,4,F,0,left,0.5584542260003218,0,0,,,,,,,,,,,,,,,,,,,,,1,,,,,,,,,,,,,,,,,,,,,,,,,,,,,,,,,,,,,,,,,,,,,,127,158899,20,Female,1,2024/03/26_16:28:35,YZ,None,
,,,,,,calibration,0,15,2,2583,5,X,0,left,1.0421928479991038,0,0,,,,,,,,,,,,,,,,,,,,,1,,,,,,,,,,,,,,,,,,,,,,,,,,,,,,,,,,,,,,,,,,,,,,127,158899,20,Female,1,2024/03/26_16:28:35,YZ,None,
,,,,,,calibration,0,15,2,2583,6,F,1,left,nan,0,1,,,,,,,,,,,,,,,,,,,,,1,,,,,,,,,,,,,,,,,,,,,,,,,,,,,,,,,,,,,,,,,,,,,,127,158899,20,Female,1,2024/03/26_16:28:35,YZ,None,
,,,,,,calibration,0,15,2,2583,,,,,,,,0.0,0.0,1.0,0.0,0.16666666666666666,-0.16666666666666666,0.7659031144001347,0,4,1,0,1,0,0,2,4,0,,,,1,,,,,,,,,,,,,,,,,,,,,,,,,,,,,,,,,,,,,,,,,,,,,,127,158899,20,Female,1,2024/03/26_16:28:35,YZ,None,
,,,,,,Calibration,0,,2,2583,,,,,,,,,,,,,,,,,,,,,,,,,10,,,1,,,,,,,,,,,,,,,,,,,,,,,,,,,,,,,,,,,,,,,,,,,,,,127,158899,20,Female,1,2024/03/26_16:28:35,YZ,None,
,,,,,,calibration,0,14,2,2583,1,X,0,left,0.512077726998541,0,0,,,,,,,,,,,,,,,,,,,,,1,,,,,,,,,,,,,,,,,,,,,,,,,,,,,,,,,,,,,,,,,,,,,,127,158899,20,Female,1,2024/03/26_16:28:35,YZ,None,
,,,,,,calibration,0,14,2,2583,2,X,0,left,0.22146270899975207,0,0,,,,,,,,,,,,,,,,,,,,,1,,,,,,,,,,,,,,,,,,,,,,,,,,,,,,,,,,,,,,,,,,,,,,127,158899,20,Female,1,2024/03/26_16:28:35,YZ,None,
,,,,,,calibration,0,14,2,2583,3,X,1,right,0.48030001999723027,0,0,,,,,,,,,,,,,,,,,,,,,1,,,,,,,,,,,,,,,,,,,,,,,,,,,,,,,,,,,,,,,,,,,,,,127,158899,20,Female,1,2024/03/26_16:28:35,YZ,None,
,,,,,,calibration,0,14,2,2583,4,X,1,right,0.2848067790000641,0,0,,,,,,,,,,,,,,,,,,,,,1,,,,,,,,,,,,,,,,,,,,,,,,,,,,,,,,,,,,,,,,,,,,,,127,158899,20,Female,1,2024/03/26_16:28:35,YZ,None,
,,,,,,calibration,0,14,2,2583,5,Q,0,left,0.472674716002075,0,0,,,,,,,,,,,,,,,,,,,,,1,,,,,,,,,,,,,,,,,,,,,,,,,,,,,,,,,,,,,,,,,,,,,,127,158899,20,Female,1,2024/03/26_16:28:35,YZ,None,
,,,,,,calibration,0,14,2,2583,6,J,0,left,0.8034742759991786,0,0,,,,,,,,,,,,,,,,,,,,,1,,,,,,,,,,,,,,,,,,,,,,,,,,,,,,,,,,,,,,,,,,,,,,127,158899,20,Female,1,2024/03/26_16:28:35,YZ,None,
,,,,,,calibration,0,14,2,2583,,,,,,,,0.0,0.0,1.0,0.0,0.0,0.0,0.4624660378328069,0,4,0,0,0,0,0,2,4,0,,,,1,,,,,,,,,,,,,,,,,,,,,,,,,,,,,,,,,,,,,,,,,,,,,,127,158899,20,Female,1,2024/03/26_16:28:35,YZ,None,
,,,,,,Calibration,0,,2,2583,,,,,,,,,,,,,,,,,,,,,,,,,11,,,1,,,,,,,,,,,,,,,,,,,,,,,,,,,,,,,,,,,,,,,,,,,,,,127,158899,20,Female,1,2024/03/26_16:28:35,YZ,None,
,,,,,,calibration,0,15,2,2583,1,J,0,left,0.2833252559976245,0,0,,,,,,,,,,,,,,,,,,,,,1,,,,,,,,,,,,,,,,,,,,,,,,,,,,,,,,,,,,,,,,,,,,,,127,158899,20,Female,1,2024/03/26_16:28:35,YZ,None,
,,,,,,calibration,0,15,2,2583,2,C,0,left,0.4207885030009493,0,0,,,,,,,,,,,,,,,,,,,,,1,,,,,,,,,,,,,,,,,,,,,,,,,,,,,,,,,,,,,,,,,,,,,,127,158899,20,Female,1,2024/03/26_16:28:35,YZ,None,
,,,,,,calibration,0,15,2,2583,3,J,1,right,0.5938015920000907,0,0,,,,,,,,,,,,,,,,,,,,,1,,,,,,,,,,,,,,,,,,,,,,,,,,,,,,,,,,,,,,,,,,,,,,127,158899,20,Female,1,2024/03/26_16:28:35,YZ,None,
,,,,,,calibration,0,15,2,2583,4,F,0,left,0.28625398100120947,0,0,,,,,,,,,,,,,,,,,,,,,1,,,,,,,,,,,,,,,,,,,,,,,,,,,,,,,,,,,,,,,,,,,,,,127,158899,20,Female,1,2024/03/26_16:28:35,YZ,None,
,,,,,,calibration,0,15,2,2583,5,X,0,left,0.5248507830001472,0,0,,,,,,,,,,,,,,,,,,,,,1,,,,,,,,,,,,,,,,,,,,,,,,,,,,,,,,,,,,,,,,,,,,,,127,158899,20,Female,1,2024/03/26_16:28:35,YZ,None,
,,,,,,calibration,0,15,2,2583,6,F,1,right,0.7412370040001406,0,0,,,,,,,,,,,,,,,,,,,,,1,,,,,,,,,,,,,,,,,,,,,,,,,,,,,,,,,,,,,,,,,,,,,,127,158899,20,Female,1,2024/03/26_16:28:35,YZ,None,
,,,,,,calibration,0,15,2,2583,,,,,,,,0.0,0.0,1.0,0.0,0.0,0.0,0.47504285316669365,0,4,0,0,0,0,0,2,4,0,,,,1,,,,,,,,,,,,,,,,,,,,,,,,,,,,,,,,,,,,,,,,,,,,,,127,158899,20,Female,1,2024/03/26_16:28:35,YZ,None,
,,,,,,Calibration,0,,2,2583,,,,,,,,,,,,,,,,,,,,,,,,,12,,,1,,,,,,,,,,,,,,,,,,,,,,,,,,,,,,,,,,,,,,,,,,,,,,127,158899,20,Female,1,2024/03/26_16:28:35,YZ,None,
,,,,,,calibration,0,5,2,2583,1,J,0,left,0.22249584599921945,0,0,,,,,,,,,,,,,,,,,,,,,1,,,,,,,,,,,,,,,,,,,,,,,,,,,,,,,,,,,,,,,,,,,,,,127,158899,20,Female,1,2024/03/26_16:28:35,YZ,None,
,,,,,,calibration,0,5,2,2583,2,V,0,right,0.3528214680009114,1,0,,,,,,,,,,,,,,,,,,,,,1,,,,,,,,,,,,,,,,,,,,,,,,,,,,,,,,,,,,,,,,,,,,,,127,158899,20,Female,1,2024/03/26_16:28:35,YZ,None,
,,,,,,calibration,0,5,2,2583,3,N,0,left,0.42603373900055885,0,0,,,,,,,,,,,,,,,,,,,,,1,,,,,,,,,,,,,,,,,,,,,,,,,,,,,,,,,,,,,,,,,,,,,,127,158899,20,Female,1,2024/03/26_16:28:35,YZ,None,
,,,,,,calibration,0,5,2,2583,4,V,1,left,0.6908276029971603,1,0,,,,,,,,,,,,,,,,,,,,,1,,,,,,,,,,,,,,,,,,,,,,,,,,,,,,,,,,,,,,,,,,,,,,127,158899,20,Female,1,2024/03/26_16:28:35,YZ,None,
,,,,,,calibration,0,5,2,2583,5,F,0,left,0.1922768120020919,0,0,,,,,,,,,,,,,,,,,,,,,1,,,,,,,,,,,,,,,,,,,,,,,,,,,,,,,,,,,,,,,,,,,,,,127,158899,20,Female,1,2024/03/26_16:28:35,YZ,None,
,,,,,,calibration,0,5,2,2583,6,V,1,left,0.3172420310002053,1,0,,,,,,,,,,,,,,,,,,,,,1,,,,,,,,,,,,,,,,,,,,,,,,,,,,,,,,,,,,,,,,,,,,,,127,158899,20,Female,1,2024/03/26_16:28:35,YZ,None,
,,,,,,calibration,0,5,2,2583,,,,,,,,0.8125,1.0,0.75,0.25,0.0,0.25,0.3669495831666912,2,3,0,0,0,1,3,2,4,0,,,,1,,,,,,,,,,,,,,,,,,,,,,,,,,,,,,,,,,,,,,,,,,,,,,127,158899,20,Female,1,2024/03/26_16:28:35,YZ,None,
,,,,,,Calibration,0,,2,2583,,,,,,,,,,,,,,,,,,,,,,,,,13,,,1,,,,,,,,,,,,,,,,,,,,,,,,,,,,,,,,,,,,,,,,,,,,,,127,158899,20,Female,1,2024/03/26_16:28:35,YZ,None,
,,,,,,calibration,0,27,2,2583,1,C,0,left,0.37132875099996454,0,0,,,,,,,,,,,,,,,,,,,,,1,,,,,,,,,,,,,,,,,,,,,,,,,,,,,,,,,,,,,,,,,,,,,,127,158899,20,Female,1,2024/03/26_16:28:35,YZ,None,
,,,,,,calibration,0,27,2,2583,2,J,0,left,0.5795813690019713,0,0,,,,,,,,,,,,,,,,,,,,,1,,,,,,,,,,,,,,,,,,,,,,,,,,,,,,,,,,,,,,,,,,,,,,127,158899,20,Female,1,2024/03/26_16:28:35,YZ,None,
,,,,,,calibration,0,27,2,2583,3,C,1,left,0.2768805890009389,1,0,,,,,,,,,,,,,,,,,,,,,1,,,,,,,,,,,,,,,,,,,,,,,,,,,,,,,,,,,,,,,,,,,,,,127,158899,20,Female,1,2024/03/26_16:28:35,YZ,None,
,,,,,,calibration,0,27,2,2583,4,S,0,left,0.3890288900001906,0,0,,,,,,,,,,,,,,,,,,,,,1,,,,,,,,,,,,,,,,,,,,,,,,,,,,,,,,,,,,,,,,,,,,,,127,158899,20,Female,1,2024/03/26_16:28:35,YZ,None,
,,,,,,calibration,0,27,2,2583,5,C,1,right,0.4022354830012773,0,0,,,,,,,,,,,,,,,,,,,,,1,,,,,,,,,,,,,,,,,,,,,,,,,,,,,,,,,,,,,,,,,,,,,,127,158899,20,Female,1,2024/03/26_16:28:35,YZ,None,
,,,,,,calibration,0,27,2,2583,6,N,0,left,0.4086602480019792,0,0,,,,,,,,,,,,,,,,,,,,,1,,,,,,,,,,,,,,,,,,,,,,,,,,,,,,,,,,,,,,,,,,,,,,127,158899,20,Female,1,2024/03/26_16:28:35,YZ,None,
,,,,,,calibration,0,27,2,2583,,,,,,,,0.125,0.5,1.0,0.0,0.0,0.0,0.4046192216677203,1,4,0,0,0,0,1,2,4,0,,,,1,,,,,,,,,,,,,,,,,,,,,,,,,,,,,,,,,,,,,,,,,,,,,,127,158899,20,Female,1,2024/03/26_16:28:35,YZ,None,
,,,,,,Calibration,0,,2,2583,,,,,,,,,,,,,,,,,,,,,,,,,14,,,1,,,,,,,,,,,,,,,,,,,,,,,,,,,,,,,,,,,,,,,,,,,,,,127,158899,20,Female,1,2024/03/26_16:28:35,YZ,None,
,,,,,,calibration,0,33,2,2583,1,F,0,left,0.3520428079973499,0,0,,,,,,,,,,,,,,,,,,,,,1,,,,,,,,,,,,,,,,,,,,,,,,,,,,,,,,,,,,,,,,,,,,,,127,158899,20,Female,1,2024/03/26_16:28:35,YZ,None,
,,,,,,calibration,0,33,2,2583,2,Q,0,left,0.5243131050010561,0,0,,,,,,,,,,,,,,,,,,,,,1,,,,,,,,,,,,,,,,,,,,,,,,,,,,,,,,,,,,,,,,,,,,,,127,158899,20,Female,1,2024/03/26_16:28:35,YZ,None,
,,,,,,calibration,0,33,2,2583,3,X,0,left,0.4488575779978419,0,0,,,,,,,,,,,,,,,,,,,,,1,,,,,,,,,,,,,,,,,,,,,,,,,,,,,,,,,,,,,,,,,,,,,,127,158899,20,Female,1,2024/03/26_16:28:35,YZ,None,
,,,,,,calibration,0,33,2,2583,4,Q,1,right,0.5733719550007663,0,0,,,,,,,,,,,,,,,,,,,,,1,,,,,,,,,,,,,,,,,,,,,,,,,,,,,,,,,,,,,,,,,,,,,,127,158899,20,Female,1,2024/03/26_16:28:35,YZ,None,
,,,,,,calibration,0,33,2,2583,5,X,1,left,0.33234083999923314,1,0,,,,,,,,,,,,,,,,,,,,,1,,,,,,,,,,,,,,,,,,,,,,,,,,,,,,,,,,,,,,,,,,,,,,127,158899,20,Female,1,2024/03/26_16:28:35,YZ,None,
,,,,,,calibration,0,33,2,2583,6,J,0,right,0.30554651399870636,1,0,,,,,,,,,,,,,,,,,,,,,1,,,,,,,,,,,,,,,,,,,,,,,,,,,,,,,,,,,,,,,,,,,,,,127,158899,20,Female,1,2024/03/26_16:28:35,YZ,None,
,,,,,,calibration,0,33,2,2583,,,,,,,,0.0625,0.5,0.75,0.25,0.0,0.25,0.42274546666582563,1,3,0,0,0,1,2,2,4,0,,,,1,,,,,,,,,,,,,,,,,,,,,,,,,,,,,,,,,,,,,,,,,,,,,,127,158899,20,Female,1,2024/03/26_16:28:35,YZ,None,
,,,,,,Calibration,0,,2,2583,,,,,,,,,,,,,,,,,,,,,,,,,15,,,1,,,,,,,,,,,,,,,,,,,,,,,,,,,,,,,,,,,,,,,,,,,,,,127,158899,20,Female,1,2024/03/26_16:28:35,YZ,None,
,,,,,,calibration,0,3,2,2583,1,X,0,left,0.2485627050009498,0,0,,,,,,,,,,,,,,,,,,,,,1,,,,,,,,,,,,,,,,,,,,,,,,,,,,,,,,,,,,,,,,,,,,,,127,158899,20,Female,1,2024/03/26_16:28:35,YZ,None,
,,,,,,calibration,0,3,2,2583,2,N,0,left,0.1790793920008582,0,0,,,,,,,,,,,,,,,,,,,,,1,,,,,,,,,,,,,,,,,,,,,,,,,,,,,,,,,,,,,,,,,,,,,,127,158899,20,Female,1,2024/03/26_16:28:35,YZ,None,
,,,,,,calibration,0,3,2,2583,3,V,0,left,0.6619164959993213,0,0,,,,,,,,,,,,,,,,,,,,,1,,,,,,,,,,,,,,,,,,,,,,,,,,,,,,,,,,,,,,,,,,,,,,127,158899,20,Female,1,2024/03/26_16:28:35,YZ,None,
,,,,,,calibration,0,3,2,2583,4,N,1,right,0.3381996780008194,0,0,,,,,,,,,,,,,,,,,,,,,1,,,,,,,,,,,,,,,,,,,,,,,,,,,,,,,,,,,,,,,,,,,,,,127,158899,20,Female,1,2024/03/26_16:28:35,YZ,None,
,,,,,,calibration,0,3,2,2583,5,S,0,left,0.2891432269971119,0,0,,,,,,,,,,,,,,,,,,,,,1,,,,,,,,,,,,,,,,,,,,,,,,,,,,,,,,,,,,,,,,,,,,,,127,158899,20,Female,1,2024/03/26_16:28:35,YZ,None,
,,,,,,calibration,0,3,2,2583,6,N,1,right,0.2412775730008434,0,0,,,,,,,,,,,,,,,,,,,,,1,,,,,,,,,,,,,,,,,,,,,,,,,,,,,,,,,,,,,,,,,,,,,,127,158899,20,Female,1,2024/03/26_16:28:35,YZ,None,
,,,,,,calibration,0,3,2,2583,,,,,,,,0.0,0.0,1.0,0.0,0.0,0.0,0.32636317849998403,0,4,0,0,0,0,0,2,4,0,,,,1,,,,,,,,,,,,,,,,,,,,,,,,,,,,,,,,,,,,,,,,,,,,,,127,158899,20,Female,1,2024/03/26_16:28:35,YZ,None,
,,,,,,Calibration,0,,2,2583,,,,,,,,,,,,,,,,,,,,,,,,,16,,,1,,,,,,,,,,,,,,,,,,,,,,,,,,,,,,,,,,,,,,,,,,,,,,127,158899,20,Female,1,2024/03/26_16:28:35,YZ,None,
,,,,,,calibration,0,25,2,2583,1,V,0,left,0.2230756940007268,0,0,,,,,,,,,,,,,,,,,,,,,1,,,,,,,,,,,,,,,,,,,,,,,,,,,,,,,,,,,,,,,,,,,,,,127,158899,20,Female,1,2024/03/26_16:28:35,YZ,None,
,,,,,,calibration,0,25,2,2583,2,C,0,left,0.20022068499747547,0,0,,,,,,,,,,,,,,,,,,,,,1,,,,,,,,,,,,,,,,,,,,,,,,,,,,,,,,,,,,,,,,,,,,,,127,158899,20,Female,1,2024/03/26_16:28:35,YZ,None,
,,,,,,calibration,0,25,2,2583,3,V,1,right,0.3882460140011972,0,0,,,,,,,,,,,,,,,,,,,,,1,,,,,,,,,,,,,,,,,,,,,,,,,,,,,,,,,,,,,,,,,,,,,,127,158899,20,Female,1,2024/03/26_16:28:35,YZ,None,
,,,,,,calibration,0,25,2,2583,4,C,1,left,0.28132622499833815,1,0,,,,,,,,,,,,,,,,,,,,,1,,,,,,,,,,,,,,,,,,,,,,,,,,,,,,,,,,,,,,,,,,,,,,127,158899,20,Female,1,2024/03/26_16:28:35,YZ,None,
,,,,,,calibration,0,25,2,2583,5,N,0,right,0.4688707460009027,1,0,,,,,,,,,,,,,,,,,,,,,1,,,,,,,,,,,,,,,,,,,,,,,,,,,,,,,,,,,,,,,,,,,,,,127,158899,20,Female,1,2024/03/26_16:28:35,YZ,None,
,,,,,,calibration,0,25,2,2583,6,J,0,right,0.5590678190019389,1,0,,,,,,,,,,,,,,,,,,,,,1,,,,,,,,,,,,,,,,,,,,,,,,,,,,,,,,,,,,,,,,,,,,,,127,158899,20,Female,1,2024/03/26_16:28:35,YZ,None,
,,,,,,calibration,0,25,2,2583,,,,,,,,0.5,0.5,0.5,0.5,0.0,0.5,0.3534678638334299,1,2,0,0,0,2,3,2,4,0,,,,1,,,,,,,,,,,,,,,,,,,,,,,,,,,,,,,,,,,,,,,,,,,,,,127,158899,20,Female,1,2024/03/26_16:28:35,YZ,None,
,,,,,,Calibration,0,,2,2583,,,,,,,,,,,,,,,,,,,,,,,,,17,,,1,,,,,,,,,,,,,,,,,,,,,,,,,,,,,,,,,,,,,,,,,,,,,,127,158899,20,Female,1,2024/03/26_16:28:35,YZ,None,
,,,,,,calibration,0,24,2,2583,1,V,0,left,0.3429435319994809,0,0,,,,,,,,,,,,,,,,,,,,,1,,,,,,,,,,,,,,,,,,,,,,,,,,,,,,,,,,,,,,,,,,,,,,127,158899,20,Female,1,2024/03/26_16:28:35,YZ,None,
,,,,,,calibration,0,24,2,2583,2,X,0,left,0.4417227539997839,0,0,,,,,,,,,,,,,,,,,,,,,1,,,,,,,,,,,,,,,,,,,,,,,,,,,,,,,,,,,,,,,,,,,,,,127,158899,20,Female,1,2024/03/26_16:28:35,YZ,None,
,,,,,,calibration,0,24,2,2583,3,V,1,right,0.624358413999289,0,0,,,,,,,,,,,,,,,,,,,,,1,,,,,,,,,,,,,,,,,,,,,,,,,,,,,,,,,,,,,,,,,,,,,,127,158899,20,Female,1,2024/03/26_16:28:35,YZ,None,
,,,,,,calibration,0,24,2,2583,4,X,1,left,0.24785300499934237,1,0,,,,,,,,,,,,,,,,,,,,,1,,,,,,,,,,,,,,,,,,,,,,,,,,,,,,,,,,,,,,,,,,,,,,127,158899,20,Female,1,2024/03/26_16:28:35,YZ,None,
,,,,,,calibration,0,24,2,2583,5,N,0,right,0.30477403799886815,1,0,,,,,,,,,,,,,,,,,,,,,1,,,,,,,,,,,,,,,,,,,,,,,,,,,,,,,,,,,,,,,,,,,,,,127,158899,20,Female,1,2024/03/26_16:28:35,YZ,None,
,,,,,,calibration,0,24,2,2583,6,J,0,left,0.33053085899882717,0,0,,,,,,,,,,,,,,,,,,,,,1,,,,,,,,,,,,,,,,,,,,,,,,,,,,,,,,,,,,,,,,,,,,,,127,158899,20,Female,1,2024/03/26_16:28:35,YZ,None,
,,,,,,calibration,0,24,2,2583,,,,,,,,0.0625,0.5,0.75,0.25,0.0,0.25,0.3820304336659319,1,3,0,0,0,1,2,2,4,0,,,,1,,,,,,,,,,,,,,,,,,,,,,,,,,,,,,,,,,,,,,,,,,,,,,127,158899,20,Female,1,2024/03/26_16:28:35,YZ,None,
,,,,,,Calibration,0,,2,2583,,,,,,,,,,,,,,,,,,,,,,,,,18,,,1,,,,,,,,,,,,,,,,,,,,,,,,,,,,,,,,,,,,,,,,,,,,,,127,158899,20,Female,1,2024/03/26_16:28:35,YZ,None,
,,,,,,calibration,0,24,2,2583,1,V,0,left,0.22043523299726075,0,0,,,,,,,,,,,,,,,,,,,,,1,,,,,,,,,,,,,,,,,,,,,,,,,,,,,,,,,,,,,,,,,,,,,,127,158899,20,Female,1,2024/03/26_16:28:35,YZ,None,
,,,,,,calibration,0,24,2,2583,2,X,0,left,0.24868251500083716,0,0,,,,,,,,,,,,,,,,,,,,,1,,,,,,,,,,,,,,,,,,,,,,,,,,,,,,,,,,,,,,,,,,,,,,127,158899,20,Female,1,2024/03/26_16:28:35,YZ,None,
,,,,,,calibration,0,24,2,2583,3,V,1,right,0.40968849799901363,0,0,,,,,,,,,,,,,,,,,,,,,1,,,,,,,,,,,,,,,,,,,,,,,,,,,,,,,,,,,,,,,,,,,,,,127,158899,20,Female,1,2024/03/26_16:28:35,YZ,None,
,,,,,,calibration,0,24,2,2583,4,X,1,left,0.40144833700105664,1,0,,,,,,,,,,,,,,,,,,,,,1,,,,,,,,,,,,,,,,,,,,,,,,,,,,,,,,,,,,,,,,,,,,,,127,158899,20,Female,1,2024/03/26_16:28:35,YZ,None,
,,,,,,calibration,0,24,2,2583,5,N,0,left,0.5565545639983611,0,0,,,,,,,,,,,,,,,,,,,,,1,,,,,,,,,,,,,,,,,,,,,,,,,,,,,,,,,,,,,,,,,,,,,,127,158899,20,Female,1,2024/03/26_16:28:35,YZ,None,
,,,,,,calibration,0,24,2,2583,6,J,0,right,0.33504546199765173,1,0,,,,,,,,,,,,,,,,,,,,,1,,,,,,,,,,,,,,,,,,,,,,,,,,,,,,,,,,,,,,,,,,,,,,127,158899,20,Female,1,2024/03/26_16:28:35,YZ,None,
,,,,,,calibration,0,24,2,2583,,,,,,,,0.0625,0.5,0.75,0.25,0.0,0.25,0.3619757681656968,1,3,0,0,0,1,2,2,4,0,,,,1,,,,,,,,,,,,,,,,,,,,,,,,,,,,,,,,,,,,,,,,,,,,,,127,158899,20,Female,1,2024/03/26_16:28:35,YZ,None,
,,,,,,Calibration,0,,2,2583,,,,,,,,,,,,,,,,,,,,,,,,,19,,,1,,,,,,,,,,,,,,,,,,,,,,,,,,,,,,,,,,,,,,,,,,,,,,127,158899,20,Female,1,2024/03/26_16:28:35,YZ,None,
,,,,,,calibration,0,12,2,2583,1,F,0,left,0.2811766320010065,0,0,,,,,,,,,,,,,,,,,,,,,1,,,,,,,,,,,,,,,,,,,,,,,,,,,,,,,,,,,,,,,,,,,,,,127,158899,20,Female,1,2024/03/26_16:28:35,YZ,None,
,,,,,,calibration,0,12,2,2583,2,F,0,left,0.32801734000167926,0,0,,,,,,,,,,,,,,,,,,,,,1,,,,,,,,,,,,,,,,,,,,,,,,,,,,,,,,,,,,,,,,,,,,,,127,158899,20,Female,1,2024/03/26_16:28:35,YZ,None,
,,,,,,calibration,0,12,2,2583,3,C,0,left,0.4851201450001099,0,0,,,,,,,,,,,,,,,,,,,,,1,,,,,,,,,,,,,,,,,,,,,,,,,,,,,,,,,,,,,,,,,,,,,,127,158899,20,Female,1,2024/03/26_16:28:35,YZ,None,
,,,,,,calibration,0,12,2,2583,4,F,1,right,0.5661940830032108,0,0,,,,,,,,,,,,,,,,,,,,,1,,,,,,,,,,,,,,,,,,,,,,,,,,,,,,,,,,,,,,,,,,,,,,127,158899,20,Female,1,2024/03/26_16:28:35,YZ,None,
,,,,,,calibration,0,12,2,2583,5,C,1,left,0.21633208400089643,1,0,,,,,,,,,,,,,,,,,,,,,1,,,,,,,,,,,,,,,,,,,,,,,,,,,,,,,,,,,,,,,,,,,,,,127,158899,20,Female,1,2024/03/26_16:28:35,YZ,None,
,,,,,,calibration,0,12,2,2583,6,V,0,right,0.35302636100095697,1,0,,,,,,,,,,,,,,,,,,,,,1,,,,,,,,,,,,,,,,,,,,,,,,,,,,,,,,,,,,,,,,,,,,,,127,158899,20,Female,1,2024/03/26_16:28:35,YZ,None,
,,,,,,calibration,0,12,2,2583,,,,,,,,0.0625,0.5,0.75,0.25,0.0,0.25,0.3716444408346433,1,3,0,0,0,1,2,2,4,0,,,,1,,,,,,,,,,,,,,,,,,,,,,,,,,,,,,,,,,,,,,,,,,,,,,127,158899,20,Female,1,2024/03/26_16:28:35,YZ,None,
,,,,,,Calibration,0,,2,2583,,,,,,,,,,,,,,,,,,,,,,,,,20,,,1,,,,,,,,,,,,,,,,,,,,,,,,,,,,,,,,,,,,,,,,,,,,,,127,158899,20,Female,1,2024/03/26_16:28:35,YZ,None,
,,,,,,calibration,0,2,2,2583,1,C,0,left,0.33155179800087353,0,0,,,,,,,,,,,,,,,,,,,,,1,,,,,,,,,,,,,,,,,,,,,,,,,,,,,,,,,,,,,,,,,,,,,,127,158899,20,Female,1,2024/03/26_16:28:35,YZ,None,
,,,,,,calibration,0,2,2,2583,2,Q,0,left,0.49721721000241814,0,0,,,,,,,,,,,,,,,,,,,,,1,,,,,,,,,,,,,,,,,,,,,,,,,,,,,,,,,,,,,,,,,,,,,,127,158899,20,Female,1,2024/03/26_16:28:35,YZ,None,
,,,,,,calibration,0,2,2,2583,3,C,1,right,0.48498447299789404,0,0,,,,,,,,,,,,,,,,,,,,,1,,,,,,,,,,,,,,,,,,,,,,,,,,,,,,,,,,,,,,,,,,,,,,127,158899,20,Female,1,2024/03/26_16:28:35,YZ,None,
,,,,,,calibration,0,2,2,2583,4,Q,1,left,0.2967865669997991,1,0,,,,,,,,,,,,,,,,,,,,,1,,,,,,,,,,,,,,,,,,,,,,,,,,,,,,,,,,,,,,,,,,,,,,127,158899,20,Female,1,2024/03/26_16:28:35,YZ,None,
,,,,,,calibration,0,2,2,2583,5,X,0,right,0.6249930889971438,1,0,,,,,,,,,,,,,,,,,,,,,1,,,,,,,,,,,,,,,,,,,,,,,,,,,,,,,,,,,,,,,,,,,,,,127,158899,20,Female,1,2024/03/26_16:28:35,YZ,None,
,,,,,,calibration,0,2,2,2583,6,N,0,left,0.3530284520020359,0,0,,,,,,,,,,,,,,,,,,,,,1,,,,,,,,,,,,,,,,,,,,,,,,,,,,,,,,,,,,,,,,,,,,,,127,158899,20,Female,1,2024/03/26_16:28:35,YZ,None,
,,,,,,calibration,0,2,2,2583,,,,,,,,0.0625,0.5,0.75,0.25,0.0,0.25,0.4314269315000274,1,3,0,0,0,1,2,2,4,0,,,,1,,,,,,,,,,,,,,,,,,,,,,,,,,,,,,,,,,,,,,,,,,,,,,127,158899,20,Female,1,2024/03/26_16:28:35,YZ,None,
,,,,,,Calibration,0,,2,2583,,,,,,,,,,,,,,,,,,,,,,,,,21,,,1,,,,,,,,,,,,,,,,,,,,,,,,,,,,,,,,,,,,,,,,,,,,,,127,158899,20,Female,1,2024/03/26_16:28:35,YZ,None,
,,,,,,calibration,0,2,2,2583,1,C,0,left,0.20922512600009213,0,0,,,,,,,,,,,,,,,,,,,,,1,,,,,,,,,,,,,,,,,,,,,,,,,,,,,,,,,,,,,,,,,,,,,,127,158899,20,Female,1,2024/03/26_16:28:35,YZ,None,
,,,,,,calibration,0,2,2,2583,2,Q,0,left,0.296983457999886,0,0,,,,,,,,,,,,,,,,,,,,,1,,,,,,,,,,,,,,,,,,,,,,,,,,,,,,,,,,,,,,,,,,,,,,127,158899,20,Female,1,2024/03/26_16:28:35,YZ,None,
,,,,,,calibration,0,2,2,2583,3,C,1,right,0.34914457900231355,0,0,,,,,,,,,,,,,,,,,,,,,1,,,,,,,,,,,,,,,,,,,,,,,,,,,,,,,,,,,,,,,,,,,,,,127,158899,20,Female,1,2024/03/26_16:28:35,YZ,None,
,,,,,,calibration,0,2,2,2583,4,Q,1,left,0.27500225699986913,1,0,,,,,,,,,,,,,,,,,,,,,1,,,,,,,,,,,,,,,,,,,,,,,,,,,,,,,,,,,,,,,,,,,,,,127,158899,20,Female,1,2024/03/26_16:28:35,YZ,None,
,,,,,,calibration,0,2,2,2583,5,X,0,left,0.45227162100127316,0,0,,,,,,,,,,,,,,,,,,,,,1,,,,,,,,,,,,,,,,,,,,,,,,,,,,,,,,,,,,,,,,,,,,,,127,158899,20,Female,1,2024/03/26_16:28:35,YZ,None,
,,,,,,calibration,0,2,2,2583,6,N,0,left,0.6420764329996018,0,0,,,,,,,,,,,,,,,,,,,,,1,,,,,,,,,,,,,,,,,,,,,,,,,,,,,,,,,,,,,,,,,,,,,,127,158899,20,Female,1,2024/03/26_16:28:35,YZ,None,
,,,,,,calibration,0,2,2,2583,,,,,,,,0.125,0.5,1.0,0.0,0.0,0.0,0.3707839123338393,1,4,0,0,0,0,1,2,4,0,,,,1,,,,,,,,,,,,,,,,,,,,,,,,,,,,,,,,,,,,,,,,,,,,,,127,158899,20,Female,1,2024/03/26_16:28:35,YZ,None,
,,,,,,Calibration,0,,2,2583,,,,,,,,,,,,,,,,,,,,,,,,,22,,,1,,,,,,,,,,,,,,,,,,,,,,,,,,,,,,,,,,,,,,,,,,,,,,127,158899,20,Female,1,2024/03/26_16:28:35,YZ,None,
,,,,,,calibration,0,36,2,2583,1,S,0,left,0.36415790600221953,0,0,,,,,,,,,,,,,,,,,,,,,1,,,,,,,,,,,,,,,,,,,,,,,,,,,,,,,,,,,,,,,,,,,,,,127,158899,20,Female,1,2024/03/26_16:28:35,YZ,None,
,,,,,,calibration,0,36,2,2583,2,N,0,left,0.3889864740012854,0,0,,,,,,,,,,,,,,,,,,,,,1,,,,,,,,,,,,,,,,,,,,,,,,,,,,,,,,,,,,,,,,,,,,,,127,158899,20,Female,1,2024/03/26_16:28:35,YZ,None,
,,,,,,calibration,0,36,2,2583,3,S,1,right,0.3443301730003441,0,0,,,,,,,,,,,,,,,,,,,,,1,,,,,,,,,,,,,,,,,,,,,,,,,,,,,,,,,,,,,,,,,,,,,,127,158899,20,Female,1,2024/03/26_16:28:35,YZ,None,
,,,,,,calibration,0,36,2,2583,4,V,0,left,0.34118072600176674,0,0,,,,,,,,,,,,,,,,,,,,,1,,,,,,,,,,,,,,,,,,,,,,,,,,,,,,,,,,,,,,,,,,,,,,127,158899,20,Female,1,2024/03/26_16:28:35,YZ,None,
,,,,,,calibration,0,36,2,2583,5,S,1,right,0.24205498999799602,0,0,,,,,,,,,,,,,,,,,,,,,1,,,,,,,,,,,,,,,,,,,,,,,,,,,,,,,,,,,,,,,,,,,,,,127,158899,20,Female,1,2024/03/26_16:28:35,YZ,None,
,,,,,,calibration,0,36,2,2583,6,N,0,left,0.2208814679979696,0,0,,,,,,,,,,,,,,,,,,,,,1,,,,,,,,,,,,,,,,,,,,,,,,,,,,,,,,,,,,,,,,,,,,,,127,158899,20,Female,1,2024/03/26_16:28:35,YZ,None,
,,,,,,calibration,0,36,2,2583,,,,,,,,0.0,0.0,1.0,0.0,0.0,0.0,0.3169319561669302,0,4,0,0,0,0,0,2,4,0,,,,1,,,,,,,,,,,,,,,,,,,,,,,,,,,,,,,,,,,,,,,,,,,,,,127,158899,20,Female,1,2024/03/26_16:28:35,YZ,None,
,,,,,,Calibration,0,,2,2583,,,,,,,,,,,,,,,,,,,,,,,,,23,,,1,,,,,,,,,,,,,,,,,,,,,,,,,,,,,,,,,,,,,,,,,,,,,,127,158899,20,Female,1,2024/03/26_16:28:35,YZ,None,
,,,,,,calibration,0,14,2,2583,1,X,0,left,0.23561642600179766,0,0,,,,,,,,,,,,,,,,,,,,,1,,,,,,,,,,,,,,,,,,,,,,,,,,,,,,,,,,,,,,,,,,,,,,127,158899,20,Female,1,2024/03/26_16:28:35,YZ,None,
,,,,,,calibration,0,14,2,2583,2,X,0,left,0.23183828800029005,0,0,,,,,,,,,,,,,,,,,,,,,1,,,,,,,,,,,,,,,,,,,,,,,,,,,,,,,,,,,,,,,,,,,,,,127,158899,20,Female,1,2024/03/26_16:28:35,YZ,None,
,,,,,,calibration,0,14,2,2583,3,X,1,right,0.3486869400003343,0,0,,,,,,,,,,,,,,,,,,,,,1,,,,,,,,,,,,,,,,,,,,,,,,,,,,,,,,,,,,,,,,,,,,,,127,158899,20,Female,1,2024/03/26_16:28:35,YZ,None,
,,,,,,calibration,0,14,2,2583,4,X,1,left,0.3924454930020147,1,0,,,,,,,,,,,,,,,,,,,,,1,,,,,,,,,,,,,,,,,,,,,,,,,,,,,,,,,,,,,,,,,,,,,,127,158899,20,Female,1,2024/03/26_16:28:35,YZ,None,
,,,,,,calibration,0,14,2,2583,5,Q,0,left,0.4318306360000861,0,0,,,,,,,,,,,,,,,,,,,,,1,,,,,,,,,,,,,,,,,,,,,,,,,,,,,,,,,,,,,,,,,,,,,,127,158899,20,Female,1,2024/03/26_16:28:35,YZ,None,
,,,,,,calibration,0,14,2,2583,6,J,0,right,0.41238817799967364,1,0,,,,,,,,,,,,,,,,,,,,,1,,,,,,,,,,,,,,,,,,,,,,,,,,,,,,,,,,,,,,,,,,,,,,127,158899,20,Female,1,2024/03/26_16:28:35,YZ,None,
,,,,,,calibration,0,14,2,2583,,,,,,,,0.0625,0.5,0.75,0.25,0.0,0.25,0.3421343268340327,1,3,0,0,0,1,2,2,4,0,,,,1,,,,,,,,,,,,,,,,,,,,,,,,,,,,,,,,,,,,,,,,,,,,,,127,158899,20,Female,1,2024/03/26_16:28:35,YZ,None,
,,,,,,Calibration,0,,2,2583,,,,,,,,,,,,,,,,,,,,,,,,,24,,,1,,,,,,,,,,,,,,,,,,,,,,,,,,,,,,,,,,,,,,,,,,,,,,127,158899,20,Female,1,2024/03/26_16:28:35,YZ,None,
,,,,,,calibration,0,3,2,2583,1,X,0,left,0.20344489099807106,0,0,,,,,,,,,,,,,,,,,,,,,1,,,,,,,,,,,,,,,,,,,,,,,,,,,,,,,,,,,,,,,,,,,,,,127,158899,20,Female,1,2024/03/26_16:28:35,YZ,None,
,,,,,,calibration,0,3,2,2583,2,N,0,left,0.2806012169967289,0,0,,,,,,,,,,,,,,,,,,,,,1,,,,,,,,,,,,,,,,,,,,,,,,,,,,,,,,,,,,,,,,,,,,,,127,158899,20,Female,1,2024/03/26_16:28:35,YZ,None,
,,,,,,calibration,0,3,2,2583,3,V,0,left,0.3802891230006935,0,0,,,,,,,,,,,,,,,,,,,,,1,,,,,,,,,,,,,,,,,,,,,,,,,,,,,,,,,,,,,,,,,,,,,,127,158899,20,Female,1,2024/03/26_16:28:35,YZ,None,
,,,,,,calibration,0,3,2,2583,4,N,1,right,0.460064451002836,0,0,,,,,,,,,,,,,,,,,,,,,1,,,,,,,,,,,,,,,,,,,,,,,,,,,,,,,,,,,,,,,,,,,,,,127,158899,20,Female,1,2024/03/26_16:28:35,YZ,None,
,,,,,,calibration,0,3,2,2583,5,S,0,left,0.3811843340008636,0,0,,,,,,,,,,,,,,,,,,,,,1,,,,,,,,,,,,,,,,,,,,,,,,,,,,,,,,,,,,,,,,,,,,,,127,158899,20,Female,1,2024/03/26_16:28:35,YZ,None,
,,,,,,calibration,0,3,2,2583,6,N,1,right,0.3611089820005873,0,0,,,,,,,,,,,,,,,,,,,,,1,,,,,,,,,,,,,,,,,,,,,,,,,,,,,,,,,,,,,,,,,,,,,,127,158899,20,Female,1,2024/03/26_16:28:35,YZ,None,
,,,,,,calibration,0,3,2,2583,,,,,,,,0.0,0.0,1.0,0.0,0.0,0.0,0.3444488329999634,0,4,0,0,0,0,0,2,4,0,,,,1,,,,,,,,,,,,,,,,,,,,,,,,,,,,,,,,,,,,,,,,,,,,,,127,158899,20,Female,1,2024/03/26_16:28:35,YZ,None,
,,,,,,Calibration,0,,2,2583,,,,,,,,,,,,,,,,,,,,,,,,,25,,,1,,,,,,,,,,,,,,,,,,,,,,,,,,,,,,,,,,,,,,,,,,,,,,127,158899,20,Female,1,2024/03/26_16:28:35,YZ,None,
,,,,,,calibration,0,14,2,2583,1,X,0,left,0.21659413800080074,0,0,,,,,,,,,,,,,,,,,,,,,1,,,,,,,,,,,,,,,,,,,,,,,,,,,,,,,,,,,,,,,,,,,,,,127,158899,20,Female,1,2024/03/26_16:28:35,YZ,None,
,,,,,,calibration,0,14,2,2583,2,X,0,left,0.20933438100109925,0,0,,,,,,,,,,,,,,,,,,,,,1,,,,,,,,,,,,,,,,,,,,,,,,,,,,,,,,,,,,,,,,,,,,,,127,158899,20,Female,1,2024/03/26_16:28:35,YZ,None,
,,,,,,calibration,0,14,2,2583,3,X,1,right,0.36483411000153865,0,0,,,,,,,,,,,,,,,,,,,,,1,,,,,,,,,,,,,,,,,,,,,,,,,,,,,,,,,,,,,,,,,,,,,,127,158899,20,Female,1,2024/03/26_16:28:35,YZ,None,
,,,,,,calibration,0,14,2,2583,4,X,1,left,0.3488808309994056,1,0,,,,,,,,,,,,,,,,,,,,,1,,,,,,,,,,,,,,,,,,,,,,,,,,,,,,,,,,,,,,,,,,,,,,127,158899,20,Female,1,2024/03/26_16:28:35,YZ,None,
,,,,,,calibration,0,14,2,2583,5,Q,0,left,0.5528968279977562,0,0,,,,,,,,,,,,,,,,,,,,,1,,,,,,,,,,,,,,,,,,,,,,,,,,,,,,,,,,,,,,,,,,,,,,127,158899,20,Female,1,2024/03/26_16:28:35,YZ,None,
,,,,,,calibration,0,14,2,2583,6,J,0,right,0.4551227129995823,1,0,,,,,,,,,,,,,,,,,,,,,1,,,,,,,,,,,,,,,,,,,,,,,,,,,,,,,,,,,,,,,,,,,,,,127,158899,20,Female,1,2024/03/26_16:28:35,YZ,None,
,,,,,,calibration,0,14,2,2583,,,,,,,,0.0625,0.5,0.75,0.25,0.0,0.25,0.35794383350003045,1,3,0,0,0,1,2,2,4,0,,,,1,,,,,,,,,,,,,,,,,,,,,,,,,,,,,,,,,,,,,,,,,,,,,,127,158899,20,Female,1,2024/03/26_16:28:35,YZ,None,
,,,,,,Calibration,0,,2,2583,,,,,,,,,,,,,,,,,,,,,,,,,26,,,1,,,,,,,,,,,,,,,,,,,,,,,,,,,,,,,,,,,,,,,,,,,,,,127,158899,20,Female,1,2024/03/26_16:28:35,YZ,None,
,,,,,,calibration,0,24,2,2583,1,V,0,left,0.19272659899797873,0,0,,,,,,,,,,,,,,,,,,,,,1,,,,,,,,,,,,,,,,,,,,,,,,,,,,,,,,,,,,,,,,,,,,,,127,158899,20,Female,1,2024/03/26_16:28:35,YZ,None,
,,,,,,calibration,0,24,2,2583,2,X,0,left,0.21669347400165861,0,0,,,,,,,,,,,,,,,,,,,,,1,,,,,,,,,,,,,,,,,,,,,,,,,,,,,,,,,,,,,,,,,,,,,,127,158899,20,Female,1,2024/03/26_16:28:35,YZ,None,
,,,,,,calibration,0,24,2,2583,3,V,1,left,0.3084968330003903,1,0,,,,,,,,,,,,,,,,,,,,,1,,,,,,,,,,,,,,,,,,,,,,,,,,,,,,,,,,,,,,,,,,,,,,127,158899,20,Female,1,2024/03/26_16:28:35,YZ,None,
,,,,,,calibration,0,24,2,2583,4,X,1,right,0.4105184760010161,0,0,,,,,,,,,,,,,,,,,,,,,1,,,,,,,,,,,,,,,,,,,,,,,,,,,,,,,,,,,,,,,,,,,,,,127,158899,20,Female,1,2024/03/26_16:28:35,YZ,None,
,,,,,,calibration,0,24,2,2583,5,N,0,left,0.4046462660007819,0,0,,,,,,,,,,,,,,,,,,,,,1,,,,,,,,,,,,,,,,,,,,,,,,,,,,,,,,,,,,,,,,,,,,,,127,158899,20,Female,1,2024/03/26_16:28:35,YZ,None,
,,,,,,calibration,0,24,2,2583,6,J,0,right,0.4006395180003892,1,0,,,,,,,,,,,,,,,,,,,,,1,,,,,,,,,,,,,,,,,,,,,,,,,,,,,,,,,,,,,,,,,,,,,,127,158899,20,Female,1,2024/03/26_16:28:35,YZ,None,
,,,,,,calibration,0,24,2,2583,,,,,,,,0.0625,0.5,0.75,0.25,0.0,0.25,0.32228686100036913,1,3,0,0,0,1,2,2,4,0,,,,1,,,,,,,,,,,,,,,,,,,,,,,,,,,,,,,,,,,,,,,,,,,,,,127,158899,20,Female,1,2024/03/26_16:28:35,YZ,None,
,,,,,,Calibration,0,,2,2583,,,,,,,,,,,,,,,,,,,,,,,,,27,,,1,,,,,,,,,,,,,,,,,,,,,,,,,,,,,,,,,,,,,,,,,,,,,,127,158899,20,Female,1,2024/03/26_16:28:35,YZ,None,
,,,,,,calibration,0,31,2,2583,1,X,0,left,0.32329214600031264,0,0,,,,,,,,,,,,,,,,,,,,,1,,,,,,,,,,,,,,,,,,,,,,,,,,,,,,,,,,,,,,,,,,,,,,127,158899,20,Female,1,2024/03/26_16:28:35,YZ,None,
,,,,,,calibration,0,31,2,2583,2,F,0,left,0.30496517600113293,0,0,,,,,,,,,,,,,,,,,,,,,1,,,,,,,,,,,,,,,,,,,,,,,,,,,,,,,,,,,,,,,,,,,,,,127,158899,20,Female,1,2024/03/26_16:28:35,YZ,None,
,,,,,,calibration,0,31,2,2583,3,X,1,right,0.44024941899988335,0,0,,,,,,,,,,,,,,,,,,,,,1,,,,,,,,,,,,,,,,,,,,,,,,,,,,,,,,,,,,,,,,,,,,,,127,158899,20,Female,1,2024/03/26_16:28:35,YZ,None,
,,,,,,calibration,0,31,2,2583,4,N,0,left,0.24018754600183456,0,0,,,,,,,,,,,,,,,,,,,,,1,,,,,,,,,,,,,,,,,,,,,,,,,,,,,,,,,,,,,,,,,,,,,,127,158899,20,Female,1,2024/03/26_16:28:35,YZ,None,
,,,,,,calibration,0,31,2,2583,5,X,1,left,0.21666969199941377,1,0,,,,,,,,,,,,,,,,,,,,,1,,,,,,,,,,,,,,,,,,,,,,,,,,,,,,,,,,,,,,,,,,,,,,127,158899,20,Female,1,2024/03/26_16:28:35,YZ,None,
,,,,,,calibration,0,31,2,2583,6,S,0,left,0.6196870590028993,0,0,,,,,,,,,,,,,,,,,,,,,1,,,,,,,,,,,,,,,,,,,,,,,,,,,,,,,,,,,,,,,,,,,,,,127,158899,20,Female,1,2024/03/26_16:28:35,YZ,None,
,,,,,,calibration,0,31,2,2583,,,,,,,,0.125,0.5,1.0,0.0,0.0,0.0,0.3575085063342461,1,4,0,0,0,0,1,2,4,0,,,,1,,,,,,,,,,,,,,,,,,,,,,,,,,,,,,,,,,,,,,,,,,,,,,127,158899,20,Female,1,2024/03/26_16:28:35,YZ,None,
,,,,,,Calibration,0,,2,2583,,,,,,,,,,,,,,,,,,,,,,,,,28,,,1,,,,,,,,,,,,,,,,,,,,,,,,,,,,,,,,,,,,,,,,,,,,,,127,158899,20,Female,1,2024/03/26_16:28:35,YZ,None,
,,,,,,calibration,0,13,2,2583,1,F,0,left,0.2513133350003045,0,0,,,,,,,,,,,,,,,,,,,,,1,,,,,,,,,,,,,,,,,,,,,,,,,,,,,,,,,,,,,,,,,,,,,,127,158899,20,Female,1,2024/03/26_16:28:35,YZ,None,
,,,,,,calibration,0,13,2,2583,2,J,0,left,0.27952365100281895,0,0,,,,,,,,,,,,,,,,,,,,,1,,,,,,,,,,,,,,,,,,,,,,,,,,,,,,,,,,,,,,,,,,,,,,127,158899,20,Female,1,2024/03/26_16:28:35,YZ,None,
,,,,,,calibration,0,13,2,2583,3,F,1,left,0.27431995299775735,1,0,,,,,,,,,,,,,,,,,,,,,1,,,,,,,,,,,,,,,,,,,,,,,,,,,,,,,,,,,,,,,,,,,,,,127,158899,20,Female,1,2024/03/26_16:28:35,YZ,None,
,,,,,,calibration,0,13,2,2583,4,N,0,right,0.28213916000095196,1,0,,,,,,,,,,,,,,,,,,,,,1,,,,,,,,,,,,,,,,,,,,,,,,,,,,,,,,,,,,,,,,,,,,,,127,158899,20,Female,1,2024/03/26_16:28:35,YZ,None,
,,,,,,calibration,0,13,2,2583,5,F,1,right,0.5511754870021832,0,0,,,,,,,,,,,,,,,,,,,,,1,,,,,,,,,,,,,,,,,,,,,,,,,,,,,,,,,,,,,,,,,,,,,,127,158899,20,Female,1,2024/03/26_16:28:35,YZ,None,
,,,,,,calibration,0,13,2,2583,6,V,0,left,0.7221413859988388,0,0,,,,,,,,,,,,,,,,,,,,,1,,,,,,,,,,,,,,,,,,,,,,,,,,,,,,,,,,,,,,,,,,,,,,127,158899,20,Female,1,2024/03/26_16:28:35,YZ,None,
,,,,,,calibration,0,13,2,2583,,,,,,,,0.0625,0.5,0.75,0.25,0.0,0.25,0.3934354953338091,1,3,0,0,0,1,2,2,4,0,,,,1,,,,,,,,,,,,,,,,,,,,,,,,,,,,,,,,,,,,,,,,,,,,,,127,158899,20,Female,1,2024/03/26_16:28:35,YZ,None,
,,,,,,Calibration,0,,2,2583,,,,,,,,,,,,,,,,,,,,,,,,,29,,,1,,,,,,,,,,,,,,,,,,,,,,,,,,,,,,,,,,,,,,,,,,,,,,127,158899,20,Female,1,2024/03/26_16:28:35,YZ,None,
,,,,,,calibration,0,32,2,2583,1,F,0,left,0.2794187889994646,0,0,,,,,,,,,,,,,,,,,,,,,1,,,,,,,,,,,,,,,,,,,,,,,,,,,,,,,,,,,,,,,,,,,,,,127,158899,20,Female,1,2024/03/26_16:28:35,YZ,None,
,,,,,,calibration,0,32,2,2583,2,C,0,left,0.3063391279974894,0,0,,,,,,,,,,,,,,,,,,,,,1,,,,,,,,,,,,,,,,,,,,,,,,,,,,,,,,,,,,,,,,,,,,,,127,158899,20,Female,1,2024/03/26_16:28:35,YZ,None,
,,,,,,calibration,0,32,2,2583,3,Q,0,left,0.43300266299775103,0,0,,,,,,,,,,,,,,,,,,,,,1,,,,,,,,,,,,,,,,,,,,,,,,,,,,,,,,,,,,,,,,,,,,,,127,158899,20,Female,1,2024/03/26_16:28:35,YZ,None,
,,,,,,calibration,0,32,2,2583,4,C,1,left,0.44930738900075085,1,0,,,,,,,,,,,,,,,,,,,,,1,,,,,,,,,,,,,,,,,,,,,,,,,,,,,,,,,,,,,,,,,,,,,,127,158899,20,Female,1,2024/03/26_16:28:35,YZ,None,
,,,,,,calibration,0,32,2,2583,5,S,0,left,0.53006661100153,0,0,,,,,,,,,,,,,,,,,,,,,1,,,,,,,,,,,,,,,,,,,,,,,,,,,,,,,,,,,,,,,,,,,,,,127,158899,20,Female,1,2024/03/26_16:28:35,YZ,None,
,,,,,,calibration,0,32,2,2583,6,C,1,left,0.31055916299737873,1,0,,,,,,,,,,,,,,,,,,,,,1,,,,,,,,,,,,,,,,,,,,,,,,,,,,,,,,,,,,,,,,,,,,,,127,158899,20,Female,1,2024/03/26_16:28:35,YZ,None,
,,,,,,calibration,0,32,2,2583,,,,,,,,0.5,1.0,1.0,0.0,0.0,0.0,0.38478229049906076,2,4,0,0,0,0,2,2,4,0,,,,1,,,,,,,,,,,,,,,,,,,,,,,,,,,,,,,,,,,,,,,,,,,,,,127,158899,20,Female,1,2024/03/26_16:28:35,YZ,None,
,,,,,,Calibration,0,,2,2583,,,,,,,,,,,,,,,,,,,,,,,,,30,,,1,,,,,,,,,,,,,,,,,,,,,,,,,,,,,,,,,,,,,,,,,,,,,,127,158899,20,Female,1,2024/03/26_16:28:35,YZ,None,
,,,,,,calibration,0,13,2,2583,1,F,0,left,0.2513341890007723,0,0,,,,,,,,,,,,,,,,,,,,,1,,,,,,,,,,,,,,,,,,,,,,,,,,,,,,,,,,,,,,,,,,,,,,127,158899,20,Female,1,2024/03/26_16:28:35,YZ,None,
,,,,,,calibration,0,13,2,2583,2,J,0,left,0.36503913400156307,0,0,,,,,,,,,,,,,,,,,,,,,1,,,,,,,,,,,,,,,,,,,,,,,,,,,,,,,,,,,,,,,,,,,,,,127,158899,20,Female,1,2024/03/26_16:28:35,YZ,None,
,,,,,,calibration,0,13,2,2583,3,F,1,right,0.36895266699866625,0,0,,,,,,,,,,,,,,,,,,,,,1,,,,,,,,,,,,,,,,,,,,,,,,,,,,,,,,,,,,,,,,,,,,,,127,158899,20,Female,1,2024/03/26_16:28:35,YZ,None,
,,,,,,calibration,0,13,2,2583,4,N,0,left,0.36515043899999,0,0,,,,,,,,,,,,,,,,,,,,,1,,,,,,,,,,,,,,,,,,,,,,,,,,,,,,,,,,,,,,,,,,,,,,127,158899,20,Female,1,2024/03/26_16:28:35,YZ,None,
,,,,,,calibration,0,13,2,2583,5,F,1,right,0.3144102660007775,0,0,,,,,,,,,,,,,,,,,,,,,1,,,,,,,,,,,,,,,,,,,,,,,,,,,,,,,,,,,,,,,,,,,,,,127,158899,20,Female,1,2024/03/26_16:28:35,YZ,None,
,,,,,,calibration,0,13,2,2583,6,V,0,left,0.3286553059988364,0,0,,,,,,,,,,,,,,,,,,,,,1,,,,,,,,,,,,,,,,,,,,,,,,,,,,,,,,,,,,,,,,,,,,,,127,158899,20,Female,1,2024/03/26_16:28:35,YZ,None,
,,,,,,calibration,0,13,2,2583,,,,,,,,0.0,0.0,1.0,0.0,0.0,0.0,0.33225700016676757,0,4,0,0,0,0,0,2,4,0,,,,1,,,,,,,,,,,,,,,,,,,,,,,,,,,,,,,,,,,,,,,,,,,,,,127,158899,20,Female,1,2024/03/26_16:28:35,YZ,None,
,,,,,,Calibration,0,,2,2583,,,,,,,,,,,,,,,,,,,,,,,,,31,,,1,,,,,,,,,,,,,,,,,,,,,,,,,,,,,,,,,,,,,,,,,,,,,,127,158899,20,Female,1,2024/03/26_16:28:35,YZ,None,
,,,,,,calibration,0,29,2,2583,1,J,0,left,0.2268752999989374,0,0,,,,,,,,,,,,,,,,,,,,,1,,,,,,,,,,,,,,,,,,,,,,,,,,,,,,,,,,,,,,,,,,,,,,127,158899,20,Female,1,2024/03/26_16:28:35,YZ,None,
,,,,,,calibration,0,29,2,2583,2,Q,0,left,0.24821967000025325,0,0,,,,,,,,,,,,,,,,,,,,,1,,,,,,,,,,,,,,,,,,,,,,,,,,,,,,,,,,,,,,,,,,,,,,127,158899,20,Female,1,2024/03/26_16:28:35,YZ,None,
,,,,,,calibration,0,29,2,2583,3,X,0,left,0.4129542210030195,0,0,,,,,,,,,,,,,,,,,,,,,1,,,,,,,,,,,,,,,,,,,,,,,,,,,,,,,,,,,,,,,,,,,,,,127,158899,20,Female,1,2024/03/26_16:28:35,YZ,None,
,,,,,,calibration,0,29,2,2583,4,Q,1,left,0.6353555650021008,1,0,,,,,,,,,,,,,,,,,,,,,1,,,,,,,,,,,,,,,,,,,,,,,,,,,,,,,,,,,,,,,,,,,,,,127,158899,20,Female,1,2024/03/26_16:28:35,YZ,None,
,,,,,,calibration,0,29,2,2583,5,N,0,right,0.37164596499860636,1,0,,,,,,,,,,,,,,,,,,,,,1,,,,,,,,,,,,,,,,,,,,,,,,,,,,,,,,,,,,,,,,,,,,,,127,158899,20,Female,1,2024/03/26_16:28:35,YZ,None,
,,,,,,calibration,0,29,2,2583,6,Q,1,left,0.3968549810015247,1,0,,,,,,,,,,,,,,,,,,,,,1,,,,,,,,,,,,,,,,,,,,,,,,,,,,,,,,,,,,,,,,,,,,,,127,158899,20,Female,1,2024/03/26_16:28:35,YZ,None,
,,,,,,calibration,0,29,2,2583,,,,,,,,0.8125,1.0,0.75,0.25,0.0,0.25,0.381984283667407,2,3,0,0,0,1,3,2,4,0,,,,1,,,,,,,,,,,,,,,,,,,,,,,,,,,,,,,,,,,,,,,,,,,,,,127,158899,20,Female,1,2024/03/26_16:28:35,YZ,None,
,,,,,,Calibration,0,,2,2583,,,,,,,,,,,,,,,,,,,,,,,,,32,,,1,,,,,,,,,,,,,,,,,,,,,,,,,,,,,,,,,,,,,,,,,,,,,,127,158899,20,Female,1,2024/03/26_16:28:35,YZ,None,
,,,,,,CALIBRATION,0,,,,,,,,,,,,,,,,,,,,,,,,,,,,32,0.8125,2583,1,,,,,,,,,,,,,,,,,,,,,,,,,,,,,,,,,,,,,,,,,,,,,,127,158899,20,Female,1,2024/03/26_16:28:35,YZ,None,
1,./instructions/inst_prac_1/Slide24.png,right,15.918066963000456,572.5967420790003,588.5148090420007,,,,,,,,,,,,,,,,,,,,,,,,,,,,,,,,,1,,,,,,,,,,,,,,,,,,,,,,,,,,,,,,,,,,,,,,,,,,,,,,127,158899,20,Female,1,2024/03/26_16:28:35,YZ,None,
2,./instructions/inst_prac_1/Slide25.png,right,3.6536900989995047,588.5410561079989,592.1947462069984,,,,,,,,,,,,,,,,,,,,,,,,,,,,,,,,,1,,,,,,,,,,,,,,,,,,,,,,,,,,,,,,,,,,,,,,,,,,,,,,127,158899,20,Female,1,2024/03/26_16:28:35,YZ,None,
3,./instructions/inst_prac_1/Slide26.png,right,0.7875897999983863,592.2231960930003,593.0107858929987,,,,,,,,,,,,,,,,,,,,,,,,,,,,,,,,,1,,,,,,,,,,,,,,,,,,,,,,,,,,,,,,,,,,,,,,,,,,,,,,127,158899,20,Female,1,2024/03/26_16:28:35,YZ,None,
4,./instructions/inst_prac_1/Slide27.png,right,0.7397151600016514,593.0391060759976,593.7788212359992,,,,,,,,,,,,,,,,,,,,,,,,,,,,,,,,,1,,,,,,,,,,,,,,,,,,,,,,,,,,,,,,,,,,,,,,,,,,,,,,127,158899,20,Female,1,2024/03/26_16:28:35,YZ,None,
5,./instructions/inst_prac_1/Slide28.png,right,0.7237333899975056,593.807148459,594.5308818489975,,,,,,,,,,,,,,,,,,,,,,,,,,,,,,,,,1,,,,,,,,,,,,,,,,,,,,,,,,,,,,,,,,,,,,,,,,,,,,,,127,158899,20,Female,1,2024/03/26_16:28:35,YZ,None,
6,./instructions/inst_prac_1/Slide29.png,right,16.163371703001758,594.5594078209979,610.7227795239996,,,,,,,,,,,,,,,,,,,,,,,,,,,,,,,,,1,,,,,,,,,,,,,,,,,,,,,,,,,,,,,,,,,,,,,,,,,,,,,,127,158899,20,Female,1,2024/03/26_16:28:35,YZ,None,
7,./instructions/inst_prac_1/Slide30.png,right,15.619676287999027,610.7512533139998,626.3709296019988,,,,,,,,,,,,,,,,,,,,,,,,,,,,,,,,,1,,,,,,,,,,,,,,,,,,,,,,,,,,,,,,,,,,,,,,,,,,,,,,127,158899,20,Female,1,2024/03/26_16:28:35,YZ,None,
,,,,,,practice,0,6,1,1250,1,Q,0,left,1.050697028000286,0,0,,,,,,,,,,,,,,,,,,,,,1,,,,,,,,,,,,,,,,,,,,,,,,,,,,,,,,,,,,,,,,,,,,,,127,158899,20,Female,1,2024/03/26_16:28:35,YZ,None,
,,,,,,practice,0,6,1,1250,2,S,0,right,1.4845055940022576,1,0,,,,,,,,,,,,,,,,,,,,,1,,,,,,,,,,,,,,,,,,,,,,,,,,,,,,,,,,,,,,,,,,,,,,127,158899,20,Female,1,2024/03/26_16:28:35,YZ,None,
,,,,,,practice,0,6,1,1250,3,Q,0,left,1.1017254290018172,0,0,,,,,,,,,,,,,,,,,,,,,1,,,,,,,,,,,,,,,,,,,,,,,,,,,,,,,,,,,,,,,,,,,,,,127,158899,20,Female,1,2024/03/26_16:28:35,YZ,None,
,,,,,,practice,0,6,1,1250,4,C,0,right,1.636301344999083,1,0,,,,,,,,,,,,,,,,,,,,,1,,,,,,,,,,,,,,,,,,,,,,,,,,,,,,,,,,,,,,,,,,,,,,127,158899,20,Female,1,2024/03/26_16:28:35,YZ,None,
,,,,,,practice,0,6,1,1250,5,C,1,left,0.9240365250007017,1,0,,,,,,,,,,,,,,,,,,,,,1,,,,,,,,,,,,,,,,,,,,,,,,,,,,,,,,,,,,,,,,,,,,,,127,158899,20,Female,1,2024/03/26_16:28:35,YZ,None,
,,,,,,practice,0,6,1,1250,6,V,0,left,1.3673049979988718,0,0,,,,,,,,,,,,,,,,,,,,,1,,,,,,,,,,,,,,,,,,,,,,,,,,,,,,,,,,,,,,,,,,,,,,127,158899,20,Female,1,2024/03/26_16:28:35,YZ,None,
,,,,,,practice,0,6,1,1250,7,V,1,right,1.0437761309985945,0,0,,,,,,,,,,,,,,,,,,,,,1,,,,,,,,,,,,,,,,,,,,,,,,,,,,,,,,,,,,,,,,,,,,,,127,158899,20,Female,1,2024/03/26_16:28:35,YZ,None,
,,,,,,practice,0,6,1,1250,8,Q,0,right,1.2893591840002046,1,0,,,,,,,,,,,,,,,,,,,,,1,,,,,,,,,,,,,,,,,,,,,,,,,,,,,,,,,,,,,,,,,,,,,,127,158899,20,Female,1,2024/03/26_16:28:35,YZ,None,
,,,,,,practice,0,6,1,1250,9,V,0,right,0.9274601049983175,1,0,,,,,,,,,,,,,,,,,,,,,1,,,,,,,,,,,,,,,,,,,,,,,,,,,,,,,,,,,,,,,,,,,,,,127,158899,20,Female,1,2024/03/26_16:28:35,YZ,None,
,,,,,,practice,0,6,1,1250,10,V,1,left,0.6686879180015239,1,0,,,,,,,,,,,,,,,,,,,,,1,,,,,,,,,,,,,,,,,,,,,,,,,,,,,,,,,,,,,,,,,,,,,,127,158899,20,Female,1,2024/03/26_16:28:35,YZ,None,
,,,,,,practice,0,6,1,1250,,,,,,,,0.6666666666666666,0.6666666666666666,0.42857142857142855,0.5714285714285714,0.0,0.5714285714285714,1.1493854257001659,2,3,0,0,0,4,6,3,7,0,,,,1,,,,,,,,,,,,,,,,,,,,,,,,,,,,,,,,,,,,,,,,,,,,,,127,158899,20,Female,1,2024/03/26_16:28:35,YZ,None,
1,./instructions/inst_redo_1/Slide33.png,right,2.087169084999914,650.4677083729985,652.5548774579984,,,,,,,,,,,,,,,,,,,,,,,,,,,,,,,,,1,,,,,,,,,,,,,,,,,,,,,,,,,,,,,,,,,,,,,,,,,,,,,,127,158899,20,Female,1,2024/03/26_16:28:35,YZ,None,
,,,,,,practice,0,35,1,1250,1,X,0,left,0.7085295360011514,0,0,,,,,,,,,,,,,,,,,,,,,1,,,,,,,,,,,,,,,,,,,,,,,,,,,,,,,,,,,,,,,,,,,,,,127,158899,20,Female,1,2024/03/26_16:28:35,YZ,None,
,,,,,,practice,0,35,1,1250,2,C,0,right,4.528169037002954,1,0,,,,,,,,,,,,,,,,,,,,,1,,,,,,,,,,,,,,,,,,,,,,,,,,,,,,,,,,,,,,,,,,,,,,127,158899,20,Female,1,2024/03/26_16:28:35,YZ,None,
,,,,,,practice,0,35,1,1250,3,C,1,left,0.44542297899897676,1,0,,,,,,,,,,,,,,,,,,,,,1,,,,,,,,,,,,,,,,,,,,,,,,,,,,,,,,,,,,,,,,,,,,,,127,158899,20,Female,1,2024/03/26_16:28:35,YZ,None,
,,,,,,practice,0,35,1,1250,4,S,0,left,0.6348639470015769,0,0,,,,,,,,,,,,,,,,,,,,,1,,,,,,,,,,,,,,,,,,,,,,,,,,,,,,,,,,,,,,,,,,,,,,127,158899,20,Female,1,2024/03/26_16:28:35,YZ,None,
,,,,,,practice,0,35,1,1250,5,J,0,right,1.765707337002823,1,0,,,,,,,,,,,,,,,,,,,,,1,,,,,,,,,,,,,,,,,,,,,,,,,,,,,,,,,,,,,,,,,,,,,,127,158899,20,Female,1,2024/03/26_16:28:35,YZ,None,
,,,,,,practice,0,35,1,1250,6,F,0,right,0.9196505770014483,1,0,,,,,,,,,,,,,,,,,,,,,1,,,,,,,,,,,,,,,,,,,,,,,,,,,,,,,,,,,,,,,,,,,,,,127,158899,20,Female,1,2024/03/26_16:28:35,YZ,None,
,,,,,,practice,0,35,1,1250,7,N,0,right,0.6876453389995731,1,0,,,,,,,,,,,,,,,,,,,,,1,,,,,,,,,,,,,,,,,,,,,,,,,,,,,,,,,,,,,,,,,,,,,,127,158899,20,Female,1,2024/03/26_16:28:35,YZ,None,
,,,,,,practice,0,35,1,1250,8,N,1,left,0.6294107579997217,1,0,,,,,,,,,,,,,,,,,,,,,1,,,,,,,,,,,,,,,,,,,,,,,,,,,,,,,,,,,,,,,,,,,,,,127,158899,20,Female,1,2024/03/26_16:28:35,YZ,None,
,,,,,,practice,0,35,1,1250,9,X,0,left,0.6925706619986158,0,0,,,,,,,,,,,,,,,,,,,,,1,,,,,,,,,,,,,,,,,,,,,,,,,,,,,,,,,,,,,,,,,,,,,,127,158899,20,Female,1,2024/03/26_16:28:35,YZ,None,
,,,,,,practice,0,35,1,1250,10,X,1,right,1.109707576000801,0,0,,,,,,,,,,,,,,,,,,,,,1,,,,,,,,,,,,,,,,,,,,,,,,,,,,,,,,,,,,,,,,,,,,,,127,158899,20,Female,1,2024/03/26_16:28:35,YZ,None,
,,,,,,practice,0,35,1,1250,,,,,,,,0.6666666666666666,0.6666666666666666,0.42857142857142855,0.5714285714285714,0.0,0.5714285714285714,1.2121677748007642,2,3,0,0,0,4,6,3,7,0,,,,1,,,,,,,,,,,,,,,,,,,,,,,,,,,,,,,,,,,,,,,,,,,,,,127,158899,20,Female,1,2024/03/26_16:28:35,YZ,None,
1,./instructions/inst_redo_1/Slide33.png,right,1.0415338839993638,678.2492228769988,679.2907567609982,,,,,,,,,,,,,,,,,,,,,,,,,,,,,,,,,1,,,,,,,,,,,,,,,,,,,,,,,,,,,,,,,,,,,,,,,,,,,,,,127,158899,20,Female,1,2024/03/26_16:28:35,YZ,None,
,,,,,,practice,0,27,1,1250,1,S,0,right,1.5484085719981522,1,0,,,,,,,,,,,,,,,,,,,,,1,,,,,,,,,,,,,,,,,,,,,,,,,,,,,,,,,,,,,,,,,,,,,,127,158899,20,Female,1,2024/03/26_16:28:35,YZ,None,
,,,,,,practice,0,27,1,1250,2,S,1,left,0.9252696459989238,1,0,,,,,,,,,,,,,,,,,,,,,1,,,,,,,,,,,,,,,,,,,,,,,,,,,,,,,,,,,,,,,,,,,,,,127,158899,20,Female,1,2024/03/26_16:28:35,YZ,None,
,,,,,,practice,0,27,1,1250,3,Q,0,left,0.6897315099995467,0,0,,,,,,,,,,,,,,,,,,,,,1,,,,,,,,,,,,,,,,,,,,,,,,,,,,,,,,,,,,,,,,,,,,,,127,158899,20,Female,1,2024/03/26_16:28:35,YZ,None,
,,,,,,practice,0,27,1,1250,4,X,0,right,1.2305494809988886,1,0,,,,,,,,,,,,,,,,,,,,,1,,,,,,,,,,,,,,,,,,,,,,,,,,,,,,,,,,,,,,,,,,,,,,127,158899,20,Female,1,2024/03/26_16:28:35,YZ,None,
,,,,,,practice,0,27,1,1250,5,N,0,right,1.5007651660016563,1,0,,,,,,,,,,,,,,,,,,,,,1,,,,,,,,,,,,,,,,,,,,,,,,,,,,,,,,,,,,,,,,,,,,,,127,158899,20,Female,1,2024/03/26_16:28:35,YZ,None,
,,,,,,practice,0,27,1,1250,6,N,1,right,0.45356250000259024,0,0,,,,,,,,,,,,,,,,,,,,,1,,,,,,,,,,,,,,,,,,,,,,,,,,,,,,,,,,,,,,,,,,,,,,127,158899,20,Female,1,2024/03/26_16:28:35,YZ,None,
,,,,,,practice,0,27,1,1250,7,X,0,left,0.7314124590011488,0,0,,,,,,,,,,,,,,,,,,,,,1,,,,,,,,,,,,,,,,,,,,,,,,,,,,,,,,,,,,,,,,,,,,,,127,158899,20,Female,1,2024/03/26_16:28:35,YZ,None,
,,,,,,practice,0,27,1,1250,8,X,1,right,0.846224978002283,0,0,,,,,,,,,,,,,,,,,,,,,1,,,,,,,,,,,,,,,,,,,,,,,,,,,,,,,,,,,,,,,,,,,,,,127,158899,20,Female,1,2024/03/26_16:28:35,YZ,None,
,,,,,,practice,0,27,1,1250,9,C,0,left,0.8483897699989029,0,0,,,,,,,,,,,,,,,,,,,,,1,,,,,,,,,,,,,,,,,,,,,,,,,,,,,,,,,,,,,,,,,,,,,,127,158899,20,Female,1,2024/03/26_16:28:35,YZ,None,
,,,,,,practice,0,27,1,1250,10,V,0,right,0.9081640580006933,1,0,,,,,,,,,,,,,,,,,,,,,1,,,,,,,,,,,,,,,,,,,,,,,,,,,,,,,,,,,,,,,,,,,,,,127,158899,20,Female,1,2024/03/26_16:28:35,YZ,None,
,,,,,,practice,0,27,1,1250,,,,,,,,0.031746031746031744,0.3333333333333333,0.42857142857142855,0.5714285714285714,0.0,0.5714285714285714,0.9682478140002786,1,3,0,0,0,4,5,3,7,0,,,,1,,,,,,,,,,,,,,,,,,,,,,,,,,,,,,,,,,,,,,,,,,,,,,127,158899,20,Female,1,2024/03/26_16:28:35,YZ,None,
1,./instructions/inst_redo_1/Slide33.png,right,1.087089840999397,703.0678256680003,704.1549155089997,,,,,,,,,,,,,,,,,,,,,,,,,,,,,,,,,1,,,,,,,,,,,,,,,,,,,,,,,,,,,,,,,,,,,,,,,,,,,,,,127,158899,20,Female,1,2024/03/26_16:28:35,YZ,None,
,,,,,,practice,0,11,1,1250,1,F,0,right,1.4498656600007962,1,0,,,,,,,,,,,,,,,,,,,,,1,,,,,,,,,,,,,,,,,,,,,,,,,,,,,,,,,,,,,,,,,,,,,,127,158899,20,Female,1,2024/03/26_16:28:35,YZ,None,
,,,,,,practice,0,11,1,1250,2,J,0,right,0.532974882000417,1,0,,,,,,,,,,,,,,,,,,,,,1,,,,,,,,,,,,,,,,,,,,,,,,,,,,,,,,,,,,,,,,,,,,,,127,158899,20,Female,1,2024/03/26_16:28:35,YZ,None,
,,,,,,practice,0,11,1,1250,3,S,0,right,0.48504103500090423,1,0,,,,,,,,,,,,,,,,,,,,,1,,,,,,,,,,,,,,,,,,,,,,,,,,,,,,,,,,,,,,,,,,,,,,127,158899,20,Female,1,2024/03/26_16:28:35,YZ,None,
,,,,,,practice,0,11,1,1250,4,S,1,left,0.4516154689990799,1,0,,,,,,,,,,,,,,,,,,,,,1,,,,,,,,,,,,,,,,,,,,,,,,,,,,,,,,,,,,,,,,,,,,,,127,158899,20,Female,1,2024/03/26_16:28:35,YZ,None,
,,,,,,practice,0,11,1,1250,5,V,0,right,0.6105864670025767,1,0,,,,,,,,,,,,,,,,,,,,,1,,,,,,,,,,,,,,,,,,,,,,,,,,,,,,,,,,,,,,,,,,,,,,127,158899,20,Female,1,2024/03/26_16:28:35,YZ,None,
,,,,,,practice,0,11,1,1250,6,V,1,left,0.5476338319967908,1,0,,,,,,,,,,,,,,,,,,,,,1,,,,,,,,,,,,,,,,,,,,,,,,,,,,,,,,,,,,,,,,,,,,,,127,158899,20,Female,1,2024/03/26_16:28:35,YZ,None,
,,,,,,practice,0,11,1,1250,7,Q,0,left,0.5496170599981269,0,0,,,,,,,,,,,,,,,,,,,,,1,,,,,,,,,,,,,,,,,,,,,,,,,,,,,,,,,,,,,,,,,,,,,,127,158899,20,Female,1,2024/03/26_16:28:35,YZ,None,
,,,,,,practice,0,11,1,1250,8,V,0,right,0.8147750339994673,1,0,,,,,,,,,,,,,,,,,,,,,1,,,,,,,,,,,,,,,,,,,,,,,,,,,,,,,,,,,,,,,,,,,,,,127,158899,20,Female,1,2024/03/26_16:28:35,YZ,None,
,,,,,,practice,0,11,1,1250,9,N,0,right,0.5924450530001195,1,0,,,,,,,,,,,,,,,,,,,,,1,,,,,,,,,,,,,,,,,,,,,,,,,,,,,,,,,,,,,,,,,,,,,,127,158899,20,Female,1,2024/03/26_16:28:35,YZ,None,
,,,,,,practice,0,11,1,1250,10,N,1,left,0.5657021690021793,1,0,,,,,,,,,,,,,,,,,,,,,1,,,,,,,,,,,,,,,,,,,,,,,,,,,,,,,,,,,,,,,,,,,,,,127,158899,20,Female,1,2024/03/26_16:28:35,YZ,None,
,,,,,,practice,0,11,1,1250,,,,,,,,0.9642857142857143,1.0,0.14285714285714285,0.8571428571428571,0.0,0.8571428571428572,0.6600256661000458,3,1,0,0,0,6,9,3,7,0,,,,1,,,,,,,,,,,,,,,,,,,,,,,,,,,,,,,,,,,,,,,,,,,,,,127,158899,20,Female,1,2024/03/26_16:28:35,YZ,None,
-1,./instructions/inst_prac_1_next/Slide35.png,left,1.7937786069996946,722.785225227999,724.5790038349987,,,,,,,,,,,,,,,,,,,,,,,,,,,,,,,,,1,,,,,,,,,,,,,,,,,,,,,,,,,,,,,,,,,,,,,,,,,,,,,,127,158899,20,Female,1,2024/03/26_16:28:35,YZ,None,
,,,,,,practice,0,30,1,2583,1,J,0,right,1.0968134209979326,1,0,,,,,,,,,,,,,,,,,,,,,1,,,,,,,,,,,,,,,,,,,,,,,,,,,,,,,,,,,,,,,,,,,,,,127,158899,20,Female,1,2024/03/26_16:28:35,YZ,None,
,,,,,,practice,0,30,1,2583,2,J,1,left,0.4691592089984624,1,0,,,,,,,,,,,,,,,,,,,,,1,,,,,,,,,,,,,,,,,,,,,,,,,,,,,,,,,,,,,,,,,,,,,,127,158899,20,Female,1,2024/03/26_16:28:35,YZ,None,
,,,,,,practice,0,30,1,2583,3,X,0,right,0.5137140980004915,1,0,,,,,,,,,,,,,,,,,,,,,1,,,,,,,,,,,,,,,,,,,,,,,,,,,,,,,,,,,,,,,,,,,,,,127,158899,20,Female,1,2024/03/26_16:28:35,YZ,None,
,,,,,,practice,0,30,1,2583,4,V,0,right,0.8602284469998267,1,0,,,,,,,,,,,,,,,,,,,,,1,,,,,,,,,,,,,,,,,,,,,,,,,,,,,,,,,,,,,,,,,,,,,,127,158899,20,Female,1,2024/03/26_16:28:35,YZ,None,
,,,,,,practice,0,30,1,2583,5,V,1,left,0.5571881709984154,1,0,,,,,,,,,,,,,,,,,,,,,1,,,,,,,,,,,,,,,,,,,,,,,,,,,,,,,,,,,,,,,,,,,,,,127,158899,20,Female,1,2024/03/26_16:28:35,YZ,None,
,,,,,,practice,0,30,1,2583,6,N,0,right,1.1175399239982653,1,0,,,,,,,,,,,,,,,,,,,,,1,,,,,,,,,,,,,,,,,,,,,,,,,,,,,,,,,,,,,,,,,,,,,,127,158899,20,Female,1,2024/03/26_16:28:35,YZ,None,
,,,,,,practice,0,30,1,2583,,,,,,,,1.0,1.0,0.0,1.0,0.0,1.0,0.7691072116655656,2,0,0,0,0,4,6,2,4,0,,,,1,,,,,,,,,,,,,,,,,,,,,,,,,,,,,,,,,,,,,,,,,,,,,,127,158899,20,Female,1,2024/03/26_16:28:35,YZ,None,
1,./instructions/inst_prac_1_next/Slide35.png,right,1.0407914860006713,736.5298490069981,737.5706404929988,,,,,,,,,,,,,,,,,,,,,,,,,,,,,,,,,1,,,,,,,,,,,,,,,,,,,,,,,,,,,,,,,,,,,,,,,,,,,,,,127,158899,20,Female,1,2024/03/26_16:28:35,YZ,None,
,,,,,,practice,0,27,1,2583,1,N,0,right,2.6855018720016233,1,0,,,,,,,,,,,,,,,,,,,,,1,,,,,,,,,,,,,,,,,,,,,,,,,,,,,,,,,,,,,,,,,,,,,,127,158899,20,Female,1,2024/03/26_16:28:35,YZ,None,
,,,,,,practice,0,27,1,2583,2,N,1,right,2.569712222000817,0,0,,,,,,,,,,,,,,,,,,,,,1,,,,,,,,,,,,,,,,,,,,,,,,,,,,,,,,,,,,,,,,,,,,,,127,158899,20,Female,1,2024/03/26_16:28:35,YZ,None,
,,,,,,practice,0,27,1,2583,3,S,0,right,3.9144099049990473,1,0,,,,,,,,,,,,,,,,,,,,,1,,,,,,,,,,,,,,,,,,,,,,,,,,,,,,,,,,,,,,,,,,,,,,127,158899,20,Female,1,2024/03/26_16:28:35,YZ,None,
,,,,,,practice,0,27,1,2583,4,F,0,right,1.956044185997598,1,0,,,,,,,,,,,,,,,,,,,,,1,,,,,,,,,,,,,,,,,,,,,,,,,,,,,,,,,,,,,,,,,,,,,,127,158899,20,Female,1,2024/03/26_16:28:35,YZ,None,
,,,,,,practice,0,27,1,2583,5,N,0,right,1.7380564640006924,1,0,,,,,,,,,,,,,,,,,,,,,1,,,,,,,,,,,,,,,,,,,,,,,,,,,,,,,,,,,,,,,,,,,,,,127,158899,20,Female,1,2024/03/26_16:28:35,YZ,None,
,,,,,,practice,0,27,1,2583,6,N,1,left,0.8882851240014134,1,0,,,,,,,,,,,,,,,,,,,,,1,,,,,,,,,,,,,,,,,,,,,,,,,,,,,,,,,,,,,,,,,,,,,,127,158899,20,Female,1,2024/03/26_16:28:35,YZ,None,
,,,,,,practice,0,27,1,2583,,,,,,,,0.875,0.5,0.0,1.0,0.0,1.0,2.292001628833532,1,0,0,0,0,4,5,2,4,0,,,,1,,,,,,,,,,,,,,,,,,,,,,,,,,,,,,,,,,,,,,,,,,,,,,127,158899,20,Female,1,2024/03/26_16:28:35,YZ,None,
,,,,,,practice,0,29,1,2583,1,J,0,right,1.4615806639994844,1,0,,,,,,,,,,,,,,,,,,,,,1,,,,,,,,,,,,,,,,,,,,,,,,,,,,,,,,,,,,,,,,,,,,,,127,158899,20,Female,1,2024/03/26_16:28:35,YZ,None,
,,,,,,practice,0,29,1,2583,2,Q,0,right,0.7837302929983707,1,0,,,,,,,,,,,,,,,,,,,,,1,,,,,,,,,,,,,,,,,,,,,,,,,,,,,,,,,,,,,,,,,,,,,,127,158899,20,Female,1,2024/03/26_16:28:35,YZ,None,
,,,,,,practice,0,29,1,2583,3,Q,1,left,0.6208592420007335,1,0,,,,,,,,,,,,,,,,,,,,,1,,,,,,,,,,,,,,,,,,,,,,,,,,,,,,,,,,,,,,,,,,,,,,127,158899,20,Female,1,2024/03/26_16:28:35,YZ,None,
,,,,,,practice,0,29,1,2583,4,S,0,right,1.0462962530000368,1,0,,,,,,,,,,,,,,,,,,,,,1,,,,,,,,,,,,,,,,,,,,,,,,,,,,,,,,,,,,,,,,,,,,,,127,158899,20,Female,1,2024/03/26_16:28:35,YZ,None,
,,,,,,practice,0,29,1,2583,5,J,0,right,0.9856523529997503,1,0,,,,,,,,,,,,,,,,,,,,,1,,,,,,,,,,,,,,,,,,,,,,,,,,,,,,,,,,,,,,,,,,,,,,127,158899,20,Female,1,2024/03/26_16:28:35,YZ,None,
,,,,,,practice,0,29,1,2583,6,J,1,left,0.5531058399974427,1,0,,,,,,,,,,,,,,,,,,,,,1,,,,,,,,,,,,,,,,,,,,,,,,,,,,,,,,,,,,,,,,,,,,,,127,158899,20,Female,1,2024/03/26_16:28:35,YZ,None,
,,,,,,practice,0,29,1,2583,,,,,,,,1.0,1.0,0.0,1.0,0.0,1.0,0.9085374408326364,2,0,0,0,0,4,6,2,4,0,,,,1,,,,,,,,,,,,,,,,,,,,,,,,,,,,,,,,,,,,,,,,,,,,,,127,158899,20,Female,1,2024/03/26_16:28:35,YZ,None,
1,./instructions/inst_prac_3/Slide37.png,right,8.553075584000908,767.1617123469987,775.7147879309996,,,,,,,,,,,,,,,,,,,,,,,,,,,,,,,,,1,,,,,,,,,,,,,,,,,,,,,,,,,,,,,,,,,,,,,,,,,,,,,,127,158899,20,Female,1,2024/03/26_16:28:35,YZ,None,
2,./instructions/inst_prac_3/Slide38.png,right,2.2515139349998208,775.743335187999,777.9948491229989,,,,,,,,,,,,,,,,,,,,,,,,,,,,,,,,,1,,,,,,,,,,,,,,,,,,,,,,,,,,,,,,,,,,,,,,,,,,,,,,127,158899,20,Female,1,2024/03/26_16:28:35,YZ,None,
3,./instructions/inst_prac_3/Slide39.png,right,1.0194761279999511,778.0233577689978,779.0428338969978,,,,,,,,,,,,,,,,,,,,,,,,,,,,,,,,,1,,,,,,,,,,,,,,,,,,,,,,,,,,,,,,,,,,,,,,,,,,,,,,127,158899,20,Female,1,2024/03/26_16:28:35,YZ,None,
4,./instructions/inst_prac_3/Slide40.png,right,0.563620543001889,779.0713201709987,779.6349407140005,,,,,,,,,,,,,,,,,,,,,,,,,,,,,,,,,1,,,,,,,,,,,,,,,,,,,,,,,,,,,,,,,,,,,,,,,,,,,,,,127,158899,20,Female,1,2024/03/26_16:28:35,YZ,None,
5,./instructions/inst_prac_3/Slide41.png,right,2.068387310999242,779.6625339009988,781.7309212119981,,,,,,,,,,,,,,,,,,,,,,,,,,,,,,,,,1,,,,,,,,,,,,,,,,,,,,,,,,,,,,,,,,,,,,,,,,,,,,,,127,158899,20,Female,1,2024/03/26_16:28:35,YZ,None,
6,./instructions/inst_prac_3/Slide42.png,right,1.4118449529996724,781.7590585119979,783.1709034649975,,,,,,,,,,,,,,,,,,,,,,,,,,,,,,,,,1,,,,,,,,,,,,,,,,,,,,,,,,,,,,,,,,,,,,,,,,,,,,,,127,158899,20,Female,1,2024/03/26_16:28:35,YZ,None,
7,./instructions/inst_prac_3/Slide43.png,right,5.404304825002328,783.1985236439978,788.6028284690001,,,,,,,,,,,,,,,,,,,,,,,,,,,,,,,,,1,,,,,,,,,,,,,,,,,,,,,,,,,,,,,,,,,,,,,,,,,,,,,,127,158899,20,Female,1,2024/03/26_16:28:35,YZ,None,
8,./instructions/inst_prac_3/Slide44.png,right,1.5554574859997956,788.6314912720009,790.1869487580007,,,,,,,,,,,,,,,,,,,,,,,,,,,,,,,,,1,,,,,,,,,,,,,,,,,,,,,,,,,,,,,,,,,,,,,,,,,,,,,,127,158899,20,Female,1,2024/03/26_16:28:35,YZ,None,
,,,,,,practice,0,24,3,788,1,V,0,right,1.5562057760034804,1,0,,,,,,,,,,,,,,,,,,,,,1,,,,,,,,,,,,,,,,,,,,,,,,,,,,,,,,,,,,,,,,,,,,,,127,158899,20,Female,1,2024/03/26_16:28:35,YZ,None,
,,,,,,practice,0,24,3,788,2,X,0,right,0.8497134409990394,1,0,,,,,,,,,,,,,,,,,,,,,1,,,,,,,,,,,,,,,,,,,,,,,,,,,,,,,,,,,,,,,,,,,,,,127,158899,20,Female,1,2024/03/26_16:28:35,YZ,None,
,,,,,,practice,0,24,3,788,3,N,0,right,1.1022713569982443,1,0,,,,,,,,,,,,,,,,,,,,,1,,,,,,,,,,,,,,,,,,,,,,,,,,,,,,,,,,,,,,,,,,,,,,127,158899,20,Female,1,2024/03/26_16:28:35,YZ,None,
,,,,,,practice,0,24,3,788,4,S,0,right,1.0292119619989535,1,0,,,,,,,,,,,,,,,,,,,,,1,,,,,,,,,,,,,,,,,,,,,,,,,,,,,,,,,,,,,,,,,,,,,,127,158899,20,Female,1,2024/03/26_16:28:35,YZ,None,
,,,,,,practice,0,24,3,788,5,Q,0,right,0.7649766720023763,1,0,,,,,,,,,,,,,,,,,,,,,1,,,,,,,,,,,,,,,,,,,,,,,,,,,,,,,,,,,,,,,,,,,,,,127,158899,20,Female,1,2024/03/26_16:28:35,YZ,None,
,,,,,,practice,0,24,3,788,6,Q,0,right,0.5725226940012362,1,0,,,,,,,,,,,,,,,,,,,,,1,,,,,,,,,,,,,,,,,,,,,,,,,,,,,,,,,,,,,,,,,,,,,,127,158899,20,Female,1,2024/03/26_16:28:35,YZ,None,
,,,,,,practice,0,24,3,788,7,S,1,left,0.4586210650013527,1,0,,,,,,,,,,,,,,,,,,,,,1,,,,,,,,,,,,,,,,,,,,,,,,,,,,,,,,,,,,,,,,,,,,,,127,158899,20,Female,1,2024/03/26_16:28:35,YZ,None,
,,,,,,practice,0,24,3,788,8,N,0,right,0.5953369549970375,1,0,,,,,,,,,,,,,,,,,,,,,1,,,,,,,,,,,,,,,,,,,,,,,,,,,,,,,,,,,,,,,,,,,,,,127,158899,20,Female,1,2024/03/26_16:28:35,YZ,None,
,,,,,,practice,0,24,3,788,9,Q,1,left,0.7325267739979608,1,0,,,,,,,,,,,,,,,,,,,,,1,,,,,,,,,,,,,,,,,,,,,,,,,,,,,,,,,,,,,,,,,,,,,,127,158899,20,Female,1,2024/03/26_16:28:35,YZ,None,
,,,,,,practice,0,24,3,788,10,S,1,left,0.7088467229987145,1,0,,,,,,,,,,,,,,,,,,,,,1,,,,,,,,,,,,,,,,,,,,,,,,,,,,,,,,,,,,,,,,,,,,,,127,158899,20,Female,1,2024/03/26_16:28:35,YZ,None,
,,,,,,practice,0,24,3,788,11,C,0,right,0.8476680759995361,1,0,,,,,,,,,,,,,,,,,,,,,1,,,,,,,,,,,,,,,,,,,,,,,,,,,,,,,,,,,,,,,,,,,,,,127,158899,20,Female,1,2024/03/26_16:28:35,YZ,None,
,,,,,,practice,0,24,3,788,12,X,0,right,0.703507513000659,1,0,,,,,,,,,,,,,,,,,,,,,1,,,,,,,,,,,,,,,,,,,,,,,,,,,,,,,,,,,,,,,,,,,,,,127,158899,20,Female,1,2024/03/26_16:28:35,YZ,None,
,,,,,,practice,0,24,3,788,13,S,1,right,1.2025265180018323,0,0,,,,,,,,,,,,,,,,,,,,,1,,,,,,,,,,,,,,,,,,,,,,,,,,,,,,,,,,,,,,,,,,,,,,127,158899,20,Female,1,2024/03/26_16:28:35,YZ,None,
,,,,,,practice,0,24,3,788,,,,,,,,0.9375,0.75,0.0,1.0,0.0,1.0,0.8556873481538787,3,0,0,0,0,9,12,4,9,0,,,,1,,,,,,,,,,,,,,,,,,,,,,,,,,,,,,,,,,,,,,,,,,,,,,127,158899,20,Female,1,2024/03/26_16:28:35,YZ,None,
1,./instructions/inst_prac_3_next/Slide49.png,right,1.2150676870005555,815.4758131620001,816.6908808490007,,,,,,,,,,,,,,,,,,,,,,,,,,,,,,,,,1,,,,,,,,,,,,,,,,,,,,,,,,,,,,,,,,,,,,,,,,,,,,,,127,158899,20,Female,1,2024/03/26_16:28:35,YZ,None,
,,,,,,practice,0,24,3,2583,1,C,0,right,1.666944077001972,1,0,,,,,,,,,,,,,,,,,,,,,1,,,,,,,,,,,,,,,,,,,,,,,,,,,,,,,,,,,,,,,,,,,,,,127,158899,20,Female,1,2024/03/26_16:28:35,YZ,None,
,,,,,,practice,0,24,3,2583,2,N,0,right,1.4529033360013273,1,0,,,,,,,,,,,,,,,,,,,,,1,,,,,,,,,,,,,,,,,,,,,,,,,,,,,,,,,,,,,,,,,,,,,,127,158899,20,Female,1,2024/03/26_16:28:35,YZ,None,
,,,,,,practice,0,24,3,2583,3,V,0,right,0.8320333000010578,1,0,,,,,,,,,,,,,,,,,,,,,1,,,,,,,,,,,,,,,,,,,,,,,,,,,,,,,,,,,,,,,,,,,,,,127,158899,20,Female,1,2024/03/26_16:28:35,YZ,None,
,,,,,,practice,0,24,3,2583,4,C,1,left,0.4127416939991235,1,0,,,,,,,,,,,,,,,,,,,,,1,,,,,,,,,,,,,,,,,,,,,,,,,,,,,,,,,,,,,,,,,,,,,,127,158899,20,Female,1,2024/03/26_16:28:35,YZ,None,
,,,,,,practice,0,24,3,2583,5,N,1,right,0.8344493299991882,0,0,,,,,,,,,,,,,,,,,,,,,1,,,,,,,,,,,,,,,,,,,,,,,,,,,,,,,,,,,,,,,,,,,,,,127,158899,20,Female,1,2024/03/26_16:28:35,YZ,None,
,,,,,,practice,0,24,3,2583,6,X,0,right,0.9530909460008843,1,0,,,,,,,,,,,,,,,,,,,,,1,,,,,,,,,,,,,,,,,,,,,,,,,,,,,,,,,,,,,,,,,,,,,,127,158899,20,Female,1,2024/03/26_16:28:35,YZ,None,
,,,,,,practice,0,24,3,2583,,,,,,,,0.875,0.5,0.0,1.0,0.0,1.0,1.0253604471672588,1,0,0,0,0,4,5,2,4,0,,,,1,,,,,,,,,,,,,,,,,,,,,,,,,,,,,,,,,,,,,,,,,,,,,,127,158899,20,Female,1,2024/03/26_16:28:35,YZ,None,
,,,,,,practice,0,36,3,2583,1,X,0,right,2.236250668000139,1,0,,,,,,,,,,,,,,,,,,,,,1,,,,,,,,,,,,,,,,,,,,,,,,,,,,,,,,,,,,,,,,,,,,,,127,158899,20,Female,1,2024/03/26_16:28:35,YZ,None,
,,,,,,practice,0,36,3,2583,2,N,0,right,1.061187487001007,1,0,,,,,,,,,,,,,,,,,,,,,1,,,,,,,,,,,,,,,,,,,,,,,,,,,,,,,,,,,,,,,,,,,,,,127,158899,20,Female,1,2024/03/26_16:28:35,YZ,None,
,,,,,,practice,0,36,3,2583,3,V,0,right,0.5892008279988659,1,0,,,,,,,,,,,,,,,,,,,,,1,,,,,,,,,,,,,,,,,,,,,,,,,,,,,,,,,,,,,,,,,,,,,,127,158899,20,Female,1,2024/03/26_16:28:35,YZ,None,
,,,,,,practice,0,36,3,2583,4,X,1,left,0.7324476979993051,1,0,,,,,,,,,,,,,,,,,,,,,1,,,,,,,,,,,,,,,,,,,,,,,,,,,,,,,,,,,,,,,,,,,,,,127,158899,20,Female,1,2024/03/26_16:28:35,YZ,None,
,,,,,,practice,0,36,3,2583,5,N,1,right,0.6530684969984577,0,0,,,,,,,,,,,,,,,,,,,,,1,,,,,,,,,,,,,,,,,,,,,,,,,,,,,,,,,,,,,,,,,,,,,,127,158899,20,Female,1,2024/03/26_16:28:35,YZ,None,
,,,,,,practice,0,36,3,2583,6,F,0,right,0.7723302720005449,1,0,,,,,,,,,,,,,,,,,,,,,1,,,,,,,,,,,,,,,,,,,,,,,,,,,,,,,,,,,,,,,,,,,,,,127,158899,20,Female,1,2024/03/26_16:28:35,YZ,None,
,,,,,,practice,0,36,3,2583,,,,,,,,0.875,0.5,0.0,1.0,0.0,1.0,1.0074142416663865,1,0,0,0,0,4,5,2,4,0,,,,1,,,,,,,,,,,,,,,,,,,,,,,,,,,,,,,,,,,,,,,,,,,,,,127,158899,20,Female,1,2024/03/26_16:28:35,YZ,None,
1,./instructions/inst_prac_main/Slide51.png,right,2.133221123000112,839.2614474900001,841.3946686130002,,,,,,,,,,,,,,,,,,,,,,,,,,,,,,,,,1,,,,,,,,,,,,,,,,,,,,,,,,,,,,,,,,,,,,,,,,,,,,,,127,158899,20,Female,1,2024/03/26_16:28:35,YZ,None,
2,./instructions/inst_prac_main/Slide52.png,right,13.09163933200034,841.4230462060004,854.5146855380008,,,,,,,,,,,,,,,,,,,,,,,,,,,,,,,,,1,,,,,,,,,,,,,,,,,,,,,,,,,,,,,,,,,,,,,,,,,,,,,,127,158899,20,Female,1,2024/03/26_16:28:35,YZ,None,
1,./instructions/inst_prac_main/Slide53.png,left,2.8994345950013667,854.5435975599976,857.443032154999,,,,,,,,,,,,,,,,,,,,,,,,,,,,,,,,,1,,,,,,,,,,,,,,,,,,,,,,,,,,,,,,,,,,,,,,,,,,,,,,127,158899,20,Female,1,2024/03/26_16:28:35,YZ,None,
0,./instructions/inst_prac_main/Slide52.png,left,0.2006452290006564,857.4662312170003,857.666876446001,,,,,,,,,,,,,,,,,,,,,,,,,,,,,,,,,1,,,,,,,,,,,,,,,,,,,,,,,,,,,,,,,,,,,,,,,,,,,,,,127,158899,20,Female,1,2024/03/26_16:28:35,YZ,None,
-1,./instructions/inst_prac_main/Slide51.png,left,0.20054034399800003,857.6862354959994,857.8867758399974,,,,,,,,,,,,,,,,,,,,,,,,,,,,,,,,,1,,,,,,,,,,,,,,,,,,,,,,,,,,,,,,,,,,,,,,,,,,,,,,127,158899,20,Female,1,2024/03/26_16:28:35,YZ,None,
-2,./instructions/inst_prac_main/Slide54.png,left,0.2003865480000968,857.9092639849987,858.1096505329988,,,,,,,,,,,,,,,,,,,,,,,,,,,,,,,,,1,,,,,,,,,,,,,,,,,,,,,,,,,,,,,,,,,,,,,,,,,,,,,,127,158899,20,Female,1,2024/03/26_16:28:35,YZ,None,
-3,./instructions/inst_prac_main/Slide53.png,left,0.20045275300071808,858.1322534869978,858.3327062399985,,,,,,,,,,,,,,,,,,,,,,,,,,,,,,,,,1,,,,,,,,,,,,,,,,,,,,,,,,,,,,,,,,,,,,,,,,,,,,,,127,158899,20,Female,1,2024/03/26_16:28:35,YZ,None,
-4,./instructions/inst_prac_main/Slide52.png,left,0.2003989789991465,858.3551086029984,858.5555075819975,,,,,,,,,,,,,,,,,,,,,,,,,,,,,,,,,1,,,,,,,,,,,,,,,,,,,,,,,,,,,,,,,,,,,,,,,,,,,,,,127,158899,20,Female,1,2024/03/26_16:28:35,YZ,None,
,,,,,,practice_main,0,1,3,2583,1,J,0,right,3.8959608799996204,1,0,,,,,,,,,,,,,,,,,,,,,1,,,,,,,,,,,,,,,,,,,,,,,,,,,,,,,,,,,,,,,,,,,,,,127,158899,20,Female,1,2024/03/26_16:28:35,YZ,None,
,,,,,,practice_main,0,1,3,2583,2,V,0,right,nan,0,1,,,,,,,,,,,,,,,,,,,,,1,,,,,,,,,,,,,,,,,,,,,,,,,,,,,,,,,,,,,,,,,,,,,,127,158899,20,Female,1,2024/03/26_16:28:35,YZ,None,
,,,,,,practice_main,0,1,3,2583,3,F,0,right,0.2881218450020242,1,0,,,,,,,,,,,,,,,,,,,,,1,,,,,,,,,,,,,,,,,,,,,,,,,,,,,,,,,,,,,,,,,,,,,,127,158899,20,Female,1,2024/03/26_16:28:35,YZ,None,
,,,,,,practice_main,0,1,3,2583,4,J,1,left,0.4165505340024538,1,0,,,,,,,,,,,,,,,,,,,,,1,,,,,,,,,,,,,,,,,,,,,,,,,,,,,,,,,,,,,,,,,,,,,,127,158899,20,Female,1,2024/03/26_16:28:35,YZ,None,
,,,,,,practice_main,0,1,3,2583,5,F,0,right,0.3791087330027949,1,0,,,,,,,,,,,,,,,,,,,,,1,,,,,,,,,,,,,,,,,,,,,,,,,,,,,,,,,,,,,,,,,,,,,,127,158899,20,Female,1,2024/03/26_16:28:35,YZ,None,
,,,,,,practice_main,0,1,3,2583,6,F,1,right,0.5529288049983734,0,0,,,,,,,,,,,,,,,,,,,,,1,,,,,,,,,,,,,,,,,,,,,,,,,,,,,,,,,,,,,,,,,,,,,,127,158899,20,Female,1,2024/03/26_16:28:35,YZ,None,
,,,,,,practice_main,0,1,3,2583,,,,,,,,0.875,0.5,0.0,1.0,0.16666666666666666,0.8333333333333334,1.1065341594010534,1,0,0,1,1,3,4,2,4,0,,,,1,,,,,,,,,,,,,,,,,,,,,,,,,,,,,,,,,,,,,,,,,,,,,,127,158899,20,Female,1,2024/03/26_16:28:35,YZ,None,
,,,,,240326_164638,PRACTICE,0,1,3,2583,,,,,,,,,,,,,,,,,,,,,,,,,,,,1,8,2,1,cue2.png,hard,A,74,0.5193769410034292,0,869.6725621629994,870.2081740639987,,,,,,,,,,,,,,,,,,,,,,,,,,,,,,,,,,,127,158899,20,Female,1,2024/03/26_16:28:35,YZ,None,
,,,,,,practice_main,0,2,1,2583,1,X,0,right,1.2840041999988898,1,0,,,,,,,,,,,,,,,,,,,,,1,,,,,,,,,,,,,,,,,,,,,,,,,,,,,,,,,,,,,,,,,,,,,,127,158899,20,Female,1,2024/03/26_16:28:35,YZ,None,
,,,,,,practice_main,0,2,1,2583,2,X,1,left,0.5428476730012335,1,0,,,,,,,,,,,,,,,,,,,,,1,,,,,,,,,,,,,,,,,,,,,,,,,,,,,,,,,,,,,,,,,,,,,,127,158899,20,Female,1,2024/03/26_16:28:35,YZ,None,
,,,,,,practice_main,0,2,1,2583,3,S,0,left,0.4185084079981607,0,0,,,,,,,,,,,,,,,,,,,,,1,,,,,,,,,,,,,,,,,,,,,,,,,,,,,,,,,,,,,,,,,,,,,,127,158899,20,Female,1,2024/03/26_16:28:35,YZ,None,
,,,,,,practice_main,0,2,1,2583,4,F,0,right,0.6857091040001251,1,0,,,,,,,,,,,,,,,,,,,,,1,,,,,,,,,,,,,,,,,,,,,,,,,,,,,,,,,,,,,,,,,,,,,,127,158899,20,Female,1,2024/03/26_16:28:35,YZ,None,
,,,,,,practice_main,0,2,1,2583,5,X,0,right,0.2423741520033218,1,0,,,,,,,,,,,,,,,,,,,,,1,,,,,,,,,,,,,,,,,,,,,,,,,,,,,,,,,,,,,,,,,,,,,,127,158899,20,Female,1,2024/03/26_16:28:35,YZ,None,
,,,,,,practice_main,0,2,1,2583,6,X,1,left,0.6787274099988281,1,0,,,,,,,,,,,,,,,,,,,,,1,,,,,,,,,,,,,,,,,,,,,,,,,,,,,,,,,,,,,,,,,,,,,,127,158899,20,Female,1,2024/03/26_16:28:35,YZ,None,
,,,,,,practice_main,0,2,1,2583,,,,,,,,0.9375,1.0,0.25,0.75,0.0,0.75,0.6420284911667599,2,1,0,0,0,3,5,2,4,0,,,,1,,,,,,,,,,,,,,,,,,,,,,,,,,,,,,,,,,,,,,,,,,,,,,127,158899,20,Female,1,2024/03/26_16:28:35,YZ,None,
,,,,,240326_164656,PRACTICE,0,2,1,2583,,,,,,,,,,,,,,,,,,,,,,,,,,,,1,9,3,2,cue1.png,easy,A,93,1.8637552369982586,0,892.0151712570005,893.8902453980008,,,,,,,,,,,,,,,,,,,,,,,,,,,,,,,,,,,127,158899,20,Female,1,2024/03/26_16:28:35,YZ,None,
,,,,,,practice_main,0,3,3,2583,1,X,0,right,0.6832060449996789,1,0,,,,,,,,,,,,,,,,,,,,,1,,,,,,,,,,,,,,,,,,,,,,,,,,,,,,,,,,,,,,,,,,,,,,127,158899,20,Female,1,2024/03/26_16:28:35,YZ,None,
,,,,,,practice_main,0,3,3,2583,2,N,0,right,0.3541732259982382,1,0,,,,,,,,,,,,,,,,,,,,,1,,,,,,,,,,,,,,,,,,,,,,,,,,,,,,,,,,,,,,,,,,,,,,127,158899,20,Female,1,2024/03/26_16:28:35,YZ,None,
,,,,,,practice_main,0,3,3,2583,3,N,0,right,0.3199978539996664,1,0,,,,,,,,,,,,,,,,,,,,,1,,,,,,,,,,,,,,,,,,,,,,,,,,,,,,,,,,,,,,,,,,,,,,127,158899,20,Female,1,2024/03/26_16:28:35,YZ,None,
,,,,,,practice_main,0,3,3,2583,4,X,1,left,0.2401438769993547,1,0,,,,,,,,,,,,,,,,,,,,,1,,,,,,,,,,,,,,,,,,,,,,,,,,,,,,,,,,,,,,,,,,,,,,127,158899,20,Female,1,2024/03/26_16:28:35,YZ,None,
,,,,,,practice_main,0,3,3,2583,5,N,1,right,0.39203052899756585,0,0,,,,,,,,,,,,,,,,,,,,,1,,,,,,,,,,,,,,,,,,,,,,,,,,,,,,,,,,,,,,,,,,,,,,127,158899,20,Female,1,2024/03/26_16:28:35,YZ,None,
,,,,,,practice_main,0,3,3,2583,6,J,0,left,0.4970723930018721,0,0,,,,,,,,,,,,,,,,,,,,,1,,,,,,,,,,,,,,,,,,,,,,,,,,,,,,,,,,,,,,,,,,,,,,127,158899,20,Female,1,2024/03/26_16:28:35,YZ,None,
,,,,,,practice_main,0,3,3,2583,,,,,,,,0.6875,0.5,0.25,0.75,0.0,0.75,0.4144373206660627,1,1,0,0,0,3,4,2,4,0,,,,1,,,,,,,,,,,,,,,,,,,,,,,,,,,,,,,,,,,,,,,,,,,,,,127,158899,20,Female,1,2024/03/26_16:28:35,YZ,None,
,,,,,240326_164712,PRACTICE,0,3,3,2583,,,,,,,,,,,,,,,,,,,,,,,,,,,,1,28,4,3,cue2.png,hard,A,63,1.256619261999731,0,910.028876796001,911.3106427370003,,,,,,,,,,,,,,,,,,,,,,,,,,,,,,,,,,,127,158899,20,Female,1,2024/03/26_16:28:35,YZ,None,
1,./instructions/inst_prac_end/Slide56.png,right,34.67167263200099,924.5793601259975,959.2510327579985,,,,,,,,,,,,,,,,,,,,,,,,,,,,,,,,,1,,,,,,,,,,,,,,,,,,,,,,,,,,,,,,,,,,,,,,,,,,,,,,127,158899,20,Female,1,2024/03/26_16:28:35,YZ,None,
1,./instructions/inst_test/Slide57.png,right,94.43131088100199,959.283679969998,1053.714990851,,,,,,,,,,,,,,,,,,,,,,,,,,,,,,,,,1,,,,,,,,,,,,,,,,,,,,,,,,,,,,,,,,,,,,,,,,,,,,,,127,158899,20,Female,1,2024/03/26_16:28:35,YZ,None,
,,,,,,test,1,1,1,2583,1,C,0,right,0.8688128249996225,1,0,,,,,,,,,,,,,,,,,,,,,1,,,,,,,,,,,,,,,,,,,,,,,,,,,,,,,,,,,,,,,,,,,,,,127,158899,20,Female,1,2024/03/26_16:28:35,YZ,None,
,,,,,,test,1,1,1,2583,2,S,0,left,0.438392403000762,0,0,,,,,,,,,,,,,,,,,,,,,1,,,,,,,,,,,,,,,,,,,,,,,,,,,,,,,,,,,,,,,,,,,,,,127,158899,20,Female,1,2024/03/26_16:28:35,YZ,None,
,,,,,,test,1,1,1,2583,3,F,0,left,nan,0,1,,,,,,,,,,,,,,,,,,,,,1,,,,,,,,,,,,,,,,,,,,,,,,,,,,,,,,,,,,,,,,,,,,,,127,158899,20,Female,1,2024/03/26_16:28:35,YZ,None,
,,,,,,test,1,1,1,2583,4,F,1,right,0.24751197000296088,0,0,,,,,,,,,,,,,,,,,,,,,1,,,,,,,,,,,,,,,,,,,,,,,,,,,,,,,,,,,,,,,,,,,,,,127,158899,20,Female,1,2024/03/26_16:28:35,YZ,None,
,,,,,,test,1,1,1,2583,5,Q,0,right,0.5438105409994023,1,0,,,,,,,,,,,,,,,,,,,,,1,,,,,,,,,,,,,,,,,,,,,,,,,,,,,,,,,,,,,,,,,,,,,,127,158899,20,Female,1,2024/03/26_16:28:35,YZ,None,
,,,,,,test,1,1,1,2583,6,Q,1,left,0.3610493119995226,1,0,,,,,,,,,,,,,,,,,,,,,1,,,,,,,,,,,,,,,,,,,,,,,,,,,,,,,,,,,,,,,,,,,,,,127,158899,20,Female,1,2024/03/26_16:28:35,YZ,None,
,,,,,,Test,1,1,1,2583,,,,,,,,0.6875,0.5,0.25,0.6666666666666666,0.16666666666666666,0.5833333333333334,0.49191541020045404,1,1,0,1,1,2,3,2,4,0,,,,1,,,,,,,,,,,,,,,,,,,,,,,,,,,,,,,,,,,,,,,,,,,,,,127,158899,20,Female,1,2024/03/26_16:28:35,YZ,None,
,,,,,240326_164944,TEST,1,1,1,2583,,,,,,,,,,,,,,,,,,,,,,,,,,,,1,1,1,1,cue1.png,easy,A,76,0.651642589000403,0,1058.7605794829979,1059.4275316780004,,,,,,,,,,,,,,,,,,,,,,,,,,,,,,,,,,,127,158899,20,Female,1,2024/03/26_16:28:35,YZ,None,
,,,,,,test,1,2,3,2583,1,C,0,right,0.6524246340013633,1,0,,,,,,,,,,,,,,,,,,,,,1,,,,,,,,,,,,,,,,,,,,,,,,,,,,,,,,,,,,,,,,,,,,,,127,158899,20,Female,1,2024/03/26_16:28:35,YZ,None,
,,,,,,test,1,2,3,2583,2,S,0,right,0.37065996499950415,1,0,,,,,,,,,,,,,,,,,,,,,1,,,,,,,,,,,,,,,,,,,,,,,,,,,,,,,,,,,,,,,,,,,,,,127,158899,20,Female,1,2024/03/26_16:28:35,YZ,None,
,,,,,,test,1,2,3,2583,3,V,0,right,0.4312799800027278,1,0,,,,,,,,,,,,,,,,,,,,,1,,,,,,,,,,,,,,,,,,,,,,,,,,,,,,,,,,,,,,,,,,,,,,127,158899,20,Female,1,2024/03/26_16:28:35,YZ,None,
,,,,,,test,1,2,3,2583,4,C,1,left,0.38016394399892306,1,0,,,,,,,,,,,,,,,,,,,,,1,,,,,,,,,,,,,,,,,,,,,,,,,,,,,,,,,,,,,,,,,,,,,,127,158899,20,Female,1,2024/03/26_16:28:35,YZ,None,
,,,,,,test,1,2,3,2583,5,S,1,right,0.36891223800193984,0,0,,,,,,,,,,,,,,,,,,,,,1,,,,,,,,,,,,,,,,,,,,,,,,,,,,,,,,,,,,,,,,,,,,,,127,158899,20,Female,1,2024/03/26_16:28:35,YZ,None,
,,,,,,test,1,2,3,2583,6,X,0,right,0.572985852999409,1,0,,,,,,,,,,,,,,,,,,,,,1,,,,,,,,,,,,,,,,,,,,,,,,,,,,,,,,,,,,,,,,,,,,,,127,158899,20,Female,1,2024/03/26_16:28:35,YZ,None,
,,,,,,Test,1,2,3,2583,,,,,,,,0.875,0.5,0.0,1.0,0.0,1.0,0.4627377690006445,1,0,0,0,0,4,5,2,4,0,,,,1,,,,,,,,,,,,,,,,,,,,,,,,,,,,,,,,,,,,,,,,,,,,,,127,158899,20,Female,1,2024/03/26_16:28:35,YZ,None,
,,,,,240326_164959,TEST,1,2,3,2583,,,,,,,,,,,,,,,,,,,,,,,,,,,,1,2,2,2,cue2.png,hard,A,65,0.6351659020001534,0,1078.1581000179976,1078.808596412,,,,,,,,,,,,,,,,,,,,,,,,,,,,,,,,,,,127,158899,20,Female,1,2024/03/26_16:28:35,YZ,None,
,,,,,,test,1,3,1,2583,1,C,0,right,0.39783506200183183,1,0,,,,,,,,,,,,,,,,,,,,,1,,,,,,,,,,,,,,,,,,,,,,,,,,,,,,,,,,,,,,,,,,,,,,127,158899,20,Female,1,2024/03/26_16:28:35,YZ,None,
,,,,,,test,1,3,1,2583,2,J,0,right,0.43281043599927216,1,0,,,,,,,,,,,,,,,,,,,,,1,,,,,,,,,,,,,,,,,,,,,,,,,,,,,,,,,,,,,,,,,,,,,,127,158899,20,Female,1,2024/03/26_16:28:35,YZ,None,
,,,,,,test,1,3,1,2583,3,J,1,right,0.5237225210003089,0,0,,,,,,,,,,,,,,,,,,,,,1,,,,,,,,,,,,,,,,,,,,,,,,,,,,,,,,,,,,,,,,,,,,,,127,158899,20,Female,1,2024/03/26_16:28:35,YZ,None,
,,,,,,test,1,3,1,2583,4,V,0,right,0.6672063500009244,1,0,,,,,,,,,,,,,,,,,,,,,1,,,,,,,,,,,,,,,,,,,,,,,,,,,,,,,,,,,,,,,,,,,,,,127,158899,20,Female,1,2024/03/26_16:28:35,YZ,None,
,,,,,,test,1,3,1,2583,5,S,0,left,0.47792167899751803,0,0,,,,,,,,,,,,,,,,,,,,,1,,,,,,,,,,,,,,,,,,,,,,,,,,,,,,,,,,,,,,,,,,,,,,127,158899,20,Female,1,2024/03/26_16:28:35,YZ,None,
,,,,,,test,1,3,1,2583,6,S,1,right,0.5407875919991056,0,0,,,,,,,,,,,,,,,,,,,,,1,,,,,,,,,,,,,,,,,,,,,,,,,,,,,,,,,,,,,,,,,,,,,,127,158899,20,Female,1,2024/03/26_16:28:35,YZ,None,
,,,,,,Test,1,3,1,2583,,,,,,,,0.1875,0.0,0.25,0.75,0.0,0.75,0.5067139399998268,0,1,0,0,0,3,3,2,4,0,,,,1,,,,,,,,,,,,,,,,,,,,,,,,,,,,,,,,,,,,,,,,,,,,,,127,158899,20,Female,1,2024/03/26_16:28:35,YZ,None,
,,,,,240326_165015,TEST,1,3,1,2583,,,,,,,,,,,,,,,,,,,,,,,,,,,,1,3,3,3,cue1.png,easy,A,70,0.5812860260011803,0,1093.846686375,1094.4537033470006,,,,,,,,,,,,,,,,,,,,,,,,,,,,,,,,,,,127,158899,20,Female,1,2024/03/26_16:28:35,YZ,None,
,,,,,,test,1,4,3,2583,1,N,0,right,0.3766707060021872,1,0,,,,,,,,,,,,,,,,,,,,,1,,,,,,,,,,,,,,,,,,,,,,,,,,,,,,,,,,,,,,,,,,,,,,127,158899,20,Female,1,2024/03/26_16:28:35,YZ,None,
,,,,,,test,1,4,3,2583,2,F,0,right,0.33325431500270497,1,0,,,,,,,,,,,,,,,,,,,,,1,,,,,,,,,,,,,,,,,,,,,,,,,,,,,,,,,,,,,,,,,,,,,,127,158899,20,Female,1,2024/03/26_16:28:35,YZ,None,
,,,,,,test,1,4,3,2583,3,S,0,right,0.35499852200155146,1,0,,,,,,,,,,,,,,,,,,,,,1,,,,,,,,,,,,,,,,,,,,,,,,,,,,,,,,,,,,,,,,,,,,,,127,158899,20,Female,1,2024/03/26_16:28:35,YZ,None,
,,,,,,test,1,4,3,2583,4,N,1,left,0.37302307299978565,1,0,,,,,,,,,,,,,,,,,,,,,1,,,,,,,,,,,,,,,,,,,,,,,,,,,,,,,,,,,,,,,,,,,,,,127,158899,20,Female,1,2024/03/26_16:28:35,YZ,None,
,,,,,,test,1,4,3,2583,5,F,1,left,0.4814617369993357,1,0,,,,,,,,,,,,,,,,,,,,,1,,,,,,,,,,,,,,,,,,,,,,,,,,,,,,,,,,,,,,,,,,,,,,127,158899,20,Female,1,2024/03/26_16:28:35,YZ,None,
,,,,,,test,1,4,3,2583,6,F,0,right,0.5740605620012502,1,0,,,,,,,,,,,,,,,,,,,,,1,,,,,,,,,,,,,,,,,,,,,,,,,,,,,,,,,,,,,,,,,,,,,,127,158899,20,Female,1,2024/03/26_16:28:35,YZ,None,
,,,,,,Test,1,4,3,2583,,,,,,,,1.0,1.0,0.0,1.0,0.0,1.0,0.4155781525011359,2,0,0,0,0,4,6,2,4,0,,,,1,,,,,,,,,,,,,,,,,,,,,,,,,,,,,,,,,,,,,,,,,,,,,,127,158899,20,Female,1,2024/03/26_16:28:35,YZ,None,
,,,,,240326_165031,TEST,1,4,3,2583,,,,,,,,,,,,,,,,,,,,,,,,,,,,1,4,4,4,cue2.png,hard,A,83,0.7387604089999513,0,1109.757511011001,1110.5123450209976,,,,,,,,,,,,,,,,,,,,,,,,,,,,,,,,,,,127,158899,20,Female,1,2024/03/26_16:28:35,YZ,None,
,,,,,,test,1,5,3,2583,1,J,0,right,0.28480664800008526,1,0,,,,,,,,,,,,,,,,,,,,,1,,,,,,,,,,,,,,,,,,,,,,,,,,,,,,,,,,,,,,,,,,,,,,127,158899,20,Female,1,2024/03/26_16:28:35,YZ,None,
,,,,,,test,1,5,3,2583,2,S,0,right,0.36176251500000944,1,0,,,,,,,,,,,,,,,,,,,,,1,,,,,,,,,,,,,,,,,,,,,,,,,,,,,,,,,,,,,,,,,,,,,,127,158899,20,Female,1,2024/03/26_16:28:35,YZ,None,
,,,,,,test,1,5,3,2583,3,F,0,right,0.36864805900040665,1,0,,,,,,,,,,,,,,,,,,,,,1,,,,,,,,,,,,,,,,,,,,,,,,,,,,,,,,,,,,,,,,,,,,,,127,158899,20,Female,1,2024/03/26_16:28:35,YZ,None,
,,,,,,test,1,5,3,2583,4,J,1,left,0.34497799900054815,1,0,,,,,,,,,,,,,,,,,,,,,1,,,,,,,,,,,,,,,,,,,,,,,,,,,,,,,,,,,,,,,,,,,,,,127,158899,20,Female,1,2024/03/26_16:28:35,YZ,None,
,,,,,,test,1,5,3,2583,5,S,1,right,0.4566252769982384,0,0,,,,,,,,,,,,,,,,,,,,,1,,,,,,,,,,,,,,,,,,,,,,,,,,,,,,,,,,,,,,,,,,,,,,127,158899,20,Female,1,2024/03/26_16:28:35,YZ,None,
,,,,,,test,1,5,3,2583,6,X,0,right,0.5247035050015256,1,0,,,,,,,,,,,,,,,,,,,,,1,,,,,,,,,,,,,,,,,,,,,,,,,,,,,,,,,,,,,,,,,,,,,,127,158899,20,Female,1,2024/03/26_16:28:35,YZ,None,
,,,,,,Test,1,5,3,2583,,,,,,,,0.875,0.5,0.0,1.0,0.0,1.0,0.3902540005001356,1,0,0,0,0,4,5,2,4,0,,,,1,,,,,,,,,,,,,,,,,,,,,,,,,,,,,,,,,,,,,,,,,,,,,,127,158899,20,Female,1,2024/03/26_16:28:35,YZ,None,
,,,,,240326_165046,TEST,1,5,3,2583,,,,,,,,,,,,,,,,,,,,,,,,,,,,1,5,5,5,cue2.png,hard,A,74,1.0797295660013333,0,1125.2413467689985,1126.350558408998,,,,,,,,,,,,,,,,,,,,,,,,,,,,,,,,,,,127,158899,20,Female,1,2024/03/26_16:28:35,YZ,None,
,,,,,,test,1,6,1,2583,1,X,0,right,0.23834630800047307,1,0,,,,,,,,,,,,,,,,,,,,,1,,,,,,,,,,,,,,,,,,,,,,,,,,,,,,,,,,,,,,,,,,,,,,127,158899,20,Female,1,2024/03/26_16:28:35,YZ,None,
,,,,,,test,1,6,1,2583,2,F,0,left,0.33269737000227906,0,0,,,,,,,,,,,,,,,,,,,,,1,,,,,,,,,,,,,,,,,,,,,,,,,,,,,,,,,,,,,,,,,,,,,,127,158899,20,Female,1,2024/03/26_16:28:35,YZ,None,
,,,,,,test,1,6,1,2583,3,F,1,left,0.7641005739969842,1,0,,,,,,,,,,,,,,,,,,,,,1,,,,,,,,,,,,,,,,,,,,,,,,,,,,,,,,,,,,,,,,,,,,,,127,158899,20,Female,1,2024/03/26_16:28:35,YZ,None,
