Instruction,Stimulus,Key,RT,START,END,Phase,Block,TrialN,NbackLevel,ISI,LetterN,Letter,Letter_isSame,Letter_Resp,Letter_RT,Letter_Accuracy,Letter_Timeout,Trial_A_measure,Trial_HR,Trial_FAR,Trial_CDR,Trial_MSR,Trial_ACC,Trial_RT,Trial_HitsCount,Trial_FAsCount,Trial_SameNoRespCount,Trial_DiffNoRespCount,Trial_NoRespCount,Trial_CDsCount,Trial_CorrectRespCount,Trial_SameLetterCount,Trial_DiffLetterCount,Trial_InvalidLetterCount,TrialCountCali,CaliEnd_A_measure,ISI_calibrated,Run,TrialIndex,TrialNumber_total,TrialNumber_valid,CueLearning,TrialDemandLearning,CueMapping,OnlineRating,OnlineRatingRT,OnlineRatingTimeOut,CueSTART,RatingSTART,OfflineRatingTimePoint,OfflineRatingQuesIndex,CueFigure,TrialDemand,OfflineRating,OfflineRatingRT,CueStart,OfflineRatingStart,PhaseType,CueLeft,CueDemandLeft,CueRight,CueDemandRight,Choice,ChoiceDemand,TaskDemand,ChoiceRT,ChoiceTimeOut,ChoiceSTART,CueCheck,CueDemandCheck,CorrectAnswer,Answer,AnswerDemand,AnswerRT,AnswerACC,AnswerTimeOut,CheckSTART,DemandRatingQuesIndex,QuesTLX,DemandLevel,DemandRating,DemandRatingRT,QuesStart,PID,SONA,Age,Gender,Run,TIME,EXPERIMENTER,frameRate,
1,./instructions/inst_begin/Slide2.png,right,33.38107446600043,0.2574433310001041,33.63851779700053,,,,,,,,,,,,,,,,,,,,,,,,,,,,,,,,,1,,,,,,,,,,,,,,,,,,,,,,,,,,,,,,,,,,,,,,,,,,,,,,68,151876,21,Female,1,2024/02/20_08:11:35,YZ,None,
2,./instructions/inst_begin/Slide3.png,right,11.69050263200188,33.70025564599928,45.39075827800116,,,,,,,,,,,,,,,,,,,,,,,,,,,,,,,,,1,,,,,,,,,,,,,,,,,,,,,,,,,,,,,,,,,,,,,,,,,,,,,,68,151876,21,Female,1,2024/02/20_08:11:35,YZ,None,
3,./instructions/inst_begin/Slide4.png,right,14.281506573002844,45.42097626400209,59.702482837004936,,,,,,,,,,,,,,,,,,,,,,,,,,,,,,,,,1,,,,,,,,,,,,,,,,,,,,,,,,,,,,,,,,,,,,,,,,,,,,,,68,151876,21,Female,1,2024/02/20_08:11:35,YZ,None,
1,./instructions/inst_prac_2/Slide6.png,right,25.22714317200007,59.76325951400213,84.9904026860022,,,,,,,,,,,,,,,,,,,,,,,,,,,,,,,,,1,,,,,,,,,,,,,,,,,,,,,,,,,,,,,,,,,,,,,,,,,,,,,,68,151876,21,Female,1,2024/02/20_08:11:35,YZ,None,
2,./instructions/inst_prac_2/Slide7.png,right,17.523183493001852,85.01949312099896,102.54267661400081,,,,,,,,,,,,,,,,,,,,,,,,,,,,,,,,,1,,,,,,,,,,,,,,,,,,,,,,,,,,,,,,,,,,,,,,,,,,,,,,68,151876,21,Female,1,2024/02/20_08:11:35,YZ,None,
3,./instructions/inst_prac_2/Slide8.png,right,14.502483917000063,102.6081200530025,117.11060397000256,,,,,,,,,,,,,,,,,,,,,,,,,,,,,,,,,1,,,,,,,,,,,,,,,,,,,,,,,,,,,,,,,,,,,,,,,,,,,,,,68,151876,21,Female,1,2024/02/20_08:11:35,YZ,None,
4,./instructions/inst_prac_2/Slide9.png,right,10.06606731100328,117.14049305400113,127.2065603650044,,,,,,,,,,,,,,,,,,,,,,,,,,,,,,,,,1,,,,,,,,,,,,,,,,,,,,,,,,,,,,,,,,,,,,,,,,,,,,,,68,151876,21,Female,1,2024/02/20_08:11:35,YZ,None,
5,./instructions/inst_prac_2/Slide10.png,right,3.9817875340013416,127.27273872200021,131.25452625600155,,,,,,,,,,,,,,,,,,,,,,,,,,,,,,,,,1,,,,,,,,,,,,,,,,,,,,,,,,,,,,,,,,,,,,,,,,,,,,,,68,151876,21,Female,1,2024/02/20_08:11:35,YZ,None,
6,./instructions/inst_prac_2/Slide11.png,right,2.1632646059952094,131.28326851800375,133.44653312399896,,,,,,,,,,,,,,,,,,,,,,,,,,,,,,,,,1,,,,,,,,,,,,,,,,,,,,,,,,,,,,,,,,,,,,,,,,,,,,,,68,151876,21,Female,1,2024/02/20_08:11:35,YZ,None,
7,./instructions/inst_prac_2/Slide12.png,right,2.7501930889993673,133.4725805240014,136.22277361300075,,,,,,,,,,,,,,,,,,,,,,,,,,,,,,,,,1,,,,,,,,,,,,,,,,,,,,,,,,,,,,,,,,,,,,,,,,,,,,,,68,151876,21,Female,1,2024/02/20_08:11:35,YZ,None,
8,./instructions/inst_prac_2/Slide13.png,right,1.9550132139993366,136.2516364250041,138.20664963900344,,,,,,,,,,,,,,,,,,,,,,,,,,,,,,,,,1,,,,,,,,,,,,,,,,,,,,,,,,,,,,,,,,,,,,,,,,,,,,,,68,151876,21,Female,1,2024/02/20_08:11:35,YZ,None,
9,./instructions/inst_prac_2/Slide14.png,right,7.442265527002746,138.23617844800174,145.67844397500448,,,,,,,,,,,,,,,,,,,,,,,,,,,,,,,,,1,,,,,,,,,,,,,,,,,,,,,,,,,,,,,,,,,,,,,,,,,,,,,,68,151876,21,Female,1,2024/02/20_08:11:35,YZ,None,
10,./instructions/inst_prac_2/Slide15.png,right,16.890987361999578,145.7075076550027,162.59849501700228,,,,,,,,,,,,,,,,,,,,,,,,,,,,,,,,,1,,,,,,,,,,,,,,,,,,,,,,,,,,,,,,,,,,,,,,,,,,,,,,68,151876,21,Female,1,2024/02/20_08:11:35,YZ,None,
,,,,,,practice,0,4,2,2583,1,J,0,left,5.882078376002028,0,0,,,,,,,,,,,,,,,,,,,,,1,,,,,,,,,,,,,,,,,,,,,,,,,,,,,,,,,,,,,,,,,,,,,,68,151876,21,Female,1,2024/02/20_08:11:35,YZ,None,
,,,,,,practice,0,4,2,2583,2,C,0,right,1.7955743660058943,1,0,,,,,,,,,,,,,,,,,,,,,1,,,,,,,,,,,,,,,,,,,,,,,,,,,,,,,,,,,,,,,,,,,,,,68,151876,21,Female,1,2024/02/20_08:11:35,YZ,None,
,,,,,,practice,0,4,2,2583,3,J,1,left,5.139582399999199,1,0,,,,,,,,,,,,,,,,,,,,,1,,,,,,,,,,,,,,,,,,,,,,,,,,,,,,,,,,,,,,,,,,,,,,68,151876,21,Female,1,2024/02/20_08:11:35,YZ,None,
,,,,,,practice,0,4,2,2583,4,C,1,left,3.0462235740051256,1,0,,,,,,,,,,,,,,,,,,,,,1,,,,,,,,,,,,,,,,,,,,,,,,,,,,,,,,,,,,,,,,,,,,,,68,151876,21,Female,1,2024/02/20_08:11:35,YZ,None,
,,,,,,practice,0,4,2,2583,5,X,0,right,0.9903685370009043,1,0,,,,,,,,,,,,,,,,,,,,,1,,,,,,,,,,,,,,,,,,,,,,,,,,,,,,,,,,,,,,,,,,,,,,68,151876,21,Female,1,2024/02/20_08:11:35,YZ,None,
,,,,,,practice,0,4,2,2583,6,S,0,right,2.636615986004472,1,0,,,,,,,,,,,,,,,,,,,,,1,,,,,,,,,,,,,,,,,,,,,,,,,,,,,,,,,,,,,,,,,,,,,,68,151876,21,Female,1,2024/02/20_08:11:35,YZ,None,
,,,,,,practice,0,4,2,2583,,,,,,,,0.9375,1.0,0.25,0.75,0.0,0.75,3.2484072065029372,2,1,0,0,0,3,5,2,4,0,,,,1,,,,,,,,,,,,,,,,,,,,,,,,,,,,,,,,,,,,,,,,,,,,,,68,151876,21,Female,1,2024/02/20_08:11:35,YZ,None,
1,./instructions/inst_to_cali/Slide20.png,right,6.335416650996194,189.02318487100274,195.35860152199893,,,,,,,,,,,,,,,,,,,,,,,,,,,,,,,,,1,,,,,,,,,,,,,,,,,,,,,,,,,,,,,,,,,,,,,,,,,,,,,,68,151876,21,Female,1,2024/02/20_08:11:35,YZ,None,
1,./instructions/inst_cali/Slide22.png,right,4.081885708998016,195.41269029600517,199.49457600500318,,,,,,,,,,,,,,,,,,,,,,,,,,,,,,,,,1,,,,,,,,,,,,,,,,,,,,,,,,,,,,,,,,,,,,,,,,,,,,,,68,151876,21,Female,1,2024/02/20_08:11:35,YZ,None,
,,,,,,calibration,0,34,2,583,1,Q,0,left,0.9246239120038808,0,0,,,,,,,,,,,,,,,,,,,,,1,,,,,,,,,,,,,,,,,,,,,,,,,,,,,,,,,,,,,,,,,,,,,,68,151876,21,Female,1,2024/02/20_08:11:35,YZ,None,
,,,,,,calibration,0,34,2,583,2,X,0,left,nan,0,1,,,,,,,,,,,,,,,,,,,,,1,,,,,,,,,,,,,,,,,,,,,,,,,,,,,,,,,,,,,,,,,,,,,,68,151876,21,Female,1,2024/02/20_08:11:35,YZ,None,
,,,,,,calibration,0,34,2,583,3,Q,1,left,0.5251897990019643,1,0,,,,,,,,,,,,,,,,,,,,,1,,,,,,,,,,,,,,,,,,,,,,,,,,,,,,,,,,,,,,,,,,,,,,68,151876,21,Female,1,2024/02/20_08:11:35,YZ,None,
,,,,,,calibration,0,34,2,583,4,F,0,left,0.8056420610009809,0,0,,,,,,,,,,,,,,,,,,,,,1,,,,,,,,,,,,,,,,,,,,,,,,,,,,,,,,,,,,,,,,,,,,,,68,151876,21,Female,1,2024/02/20_08:11:35,YZ,None,
,,,,,,calibration,0,34,2,583,5,Q,1,right,0.5655929040003684,0,0,,,,,,,,,,,,,,,,,,,,,1,,,,,,,,,,,,,,,,,,,,,,,,,,,,,,,,,,,,,,,,,,,,,,68,151876,21,Female,1,2024/02/20_08:11:35,YZ,None,
,,,,,,calibration,0,34,2,583,6,N,0,left,0.6667278109962353,0,0,,,,,,,,,,,,,,,,,,,,,1,,,,,,,,,,,,,,,,,,,,,,,,,,,,,,,,,,,,,,,,,,,,,,68,151876,21,Female,1,2024/02/20_08:11:35,YZ,None,
,,,,,,calibration,0,34,2,583,7,C,0,left,0.5119673540029908,0,0,,,,,,,,,,,,,,,,,,,,,1,,,,,,,,,,,,,,,,,,,,,,,,,,,,,,,,,,,,,,,,,,,,,,68,151876,21,Female,1,2024/02/20_08:11:35,YZ,None,
,,,,,,calibration,0,34,2,583,8,Q,0,left,0.6259759140011738,0,0,,,,,,,,,,,,,,,,,,,,,1,,,,,,,,,,,,,,,,,,,,,,,,,,,,,,,,,,,,,,,,,,,,,,68,151876,21,Female,1,2024/02/20_08:11:35,YZ,None,
,,,,,,calibration,0,34,2,583,9,X,0,right,0.3677242799967644,1,0,,,,,,,,,,,,,,,,,,,,,1,,,,,,,,,,,,,,,,,,,,,,,,,,,,,,,,,,,,,,,,,,,,,,68,151876,21,Female,1,2024/02/20_08:11:35,YZ,None,
,,,,,,calibration,0,34,2,583,10,N,0,left,0.46503385200048797,0,0,,,,,,,,,,,,,,,,,,,,,1,,,,,,,,,,,,,,,,,,,,,,,,,,,,,,,,,,,,,,,,,,,,,,68,151876,21,Female,1,2024/02/20_08:11:35,YZ,None,
,,,,,,calibration,0,34,2,583,11,X,1,right,0.2843834710001829,0,0,,,,,,,,,,,,,,,,,,,,,1,,,,,,,,,,,,,,,,,,,,,,,,,,,,,,,,,,,,,,,,,,,,,,68,151876,21,Female,1,2024/02/20_08:11:35,YZ,None,
,,,,,,calibration,0,34,2,583,12,N,1,right,0.32028812399948947,0,0,,,,,,,,,,,,,,,,,,,,,1,,,,,,,,,,,,,,,,,,,,,,,,,,,,,,,,,,,,,,,,,,,,,,68,151876,21,Female,1,2024/02/20_08:11:35,YZ,None,
,,,,,,calibration,0,34,2,583,13,Q,0,right,0.6505555299954722,1,0,,,,,,,,,,,,,,,,,,,,,1,,,,,,,,,,,,,,,,,,,,,,,,,,,,,,,,,,,,,,,,,,,,,,68,151876,21,Female,1,2024/02/20_08:11:35,YZ,None,
,,,,,,calibration,0,34,2,583,14,F,0,right,0.3912514249968808,1,0,,,,,,,,,,,,,,,,,,,,,1,,,,,,,,,,,,,,,,,,,,,,,,,,,,,,,,,,,,,,,,,,,,,,68,151876,21,Female,1,2024/02/20_08:11:35,YZ,None,
,,,,,,calibration,0,34,2,583,15,Q,1,right,0.44508416899770964,0,0,,,,,,,,,,,,,,,,,,,,,1,,,,,,,,,,,,,,,,,,,,,,,,,,,,,,,,,,,,,,,,,,,,,,68,151876,21,Female,1,2024/02/20_08:11:35,YZ,None,
,,,,,,calibration,0,34,2,583,,,,,,,,0.08333333333333336,0.2,0.6,0.3333333333333333,0.06666666666666667,0.33333333333333337,0.5392886147138987,1,6,0,1,1,3,4,5,10,0,,,,1,,,,,,,,,,,,,,,,,,,,,,,,,,,,,,,,,,,,,,,,,,,,,,68,151876,21,Female,1,2024/02/20_08:11:35,YZ,None,
,,,,,,Calibration,0,,2,583,,,,,,,,,,,,,,,,,,,,,,,,,1,,,1,,,,,,,,,,,,,,,,,,,,,,,,,,,,,,,,,,,,,,,,,,,,,,68,151876,21,Female,1,2024/02/20_08:11:35,YZ,None,
,,,,,,calibration,0,15,2,679,1,C,0,right,0.465856103997794,1,0,,,,,,,,,,,,,,,,,,,,,1,,,,,,,,,,,,,,,,,,,,,,,,,,,,,,,,,,,,,,,,,,,,,,68,151876,21,Female,1,2024/02/20_08:11:35,YZ,None,
,,,,,,calibration,0,15,2,679,2,S,0,right,0.34095209399674786,1,0,,,,,,,,,,,,,,,,,,,,,1,,,,,,,,,,,,,,,,,,,,,,,,,,,,,,,,,,,,,,,,,,,,,,68,151876,21,Female,1,2024/02/20_08:11:35,YZ,None,
,,,,,,calibration,0,15,2,679,3,X,0,right,0.5984870769971167,1,0,,,,,,,,,,,,,,,,,,,,,1,,,,,,,,,,,,,,,,,,,,,,,,,,,,,,,,,,,,,,,,,,,,,,68,151876,21,Female,1,2024/02/20_08:11:35,YZ,None,
,,,,,,calibration,0,15,2,679,4,S,1,left,0.2924811740012956,1,0,,,,,,,,,,,,,,,,,,,,,1,,,,,,,,,,,,,,,,,,,,,,,,,,,,,,,,,,,,,,,,,,,,,,68,151876,21,Female,1,2024/02/20_08:11:35,YZ,None,
,,,,,,calibration,0,15,2,679,5,V,0,right,0.16391780599951744,1,0,,,,,,,,,,,,,,,,,,,,,1,,,,,,,,,,,,,,,,,,,,,,,,,,,,,,,,,,,,,,,,,,,,,,68,151876,21,Female,1,2024/02/20_08:11:35,YZ,None,
,,,,,,calibration,0,15,2,679,6,F,0,right,0.539183229993796,1,0,,,,,,,,,,,,,,,,,,,,,1,,,,,,,,,,,,,,,,,,,,,,,,,,,,,,,,,,,,,,,,,,,,,,68,151876,21,Female,1,2024/02/20_08:11:35,YZ,None,
,,,,,,calibration,0,15,2,679,7,C,0,left,0.05835080899851164,0,0,,,,,,,,,,,,,,,,,,,,,1,,,,,,,,,,,,,,,,,,,,,,,,,,,,,,,,,,,,,,,,,,,,,,68,151876,21,Female,1,2024/02/20_08:11:35,YZ,None,
,,,,,,calibration,0,15,2,679,8,Q,0,right,0.06066208799893502,1,0,,,,,,,,,,,,,,,,,,,,,1,,,,,,,,,,,,,,,,,,,,,,,,,,,,,,,,,,,,,,,,,,,,,,68,151876,21,Female,1,2024/02/20_08:11:35,YZ,None,
,,,,,,calibration,0,15,2,679,9,C,1,right,0.2688291860031313,0,0,,,,,,,,,,,,,,,,,,,,,1,,,,,,,,,,,,,,,,,,,,,,,,,,,,,,,,,,,,,,,,,,,,,,68,151876,21,Female,1,2024/02/20_08:11:35,YZ,None,
,,,,,,calibration,0,15,2,679,10,F,0,right,0.4484149189956952,1,0,,,,,,,,,,,,,,,,,,,,,1,,,,,,,,,,,,,,,,,,,,,,,,,,,,,,,,,,,,,,,,,,,,,,68,151876,21,Female,1,2024/02/20_08:11:35,YZ,None,
,,,,,,calibration,0,15,2,679,11,C,1,right,0.6254486820034799,0,0,,,,,,,,,,,,,,,,,,,,,1,,,,,,,,,,,,,,,,,,,,,,,,,,,,,,,,,,,,,,,,,,,,,,68,151876,21,Female,1,2024/02/20_08:11:35,YZ,None,
,,,,,,calibration,0,15,2,679,12,F,1,left,0.2756121120037278,1,0,,,,,,,,,,,,,,,,,,,,,1,,,,,,,,,,,,,,,,,,,,,,,,,,,,,,,,,,,,,,,,,,,,,,68,151876,21,Female,1,2024/02/20_08:11:35,YZ,None,
,,,,,,calibration,0,15,2,679,13,Q,0,right,0.2927002069991431,1,0,,,,,,,,,,,,,,,,,,,,,1,,,,,,,,,,,,,,,,,,,,,,,,,,,,,,,,,,,,,,,,,,,,,,68,151876,21,Female,1,2024/02/20_08:11:35,YZ,None,
,,,,,,calibration,0,15,2,679,14,V,0,left,0.2767299770057434,0,0,,,,,,,,,,,,,,,,,,,,,1,,,,,,,,,,,,,,,,,,,,,,,,,,,,,,,,,,,,,,,,,,,,,,68,151876,21,Female,1,2024/02/20_08:11:35,YZ,None,
,,,,,,calibration,0,15,2,679,,,,,,,,0.725,0.5,0.2,0.8,0.0,0.8,0.33625896178533105,2,2,0,0,0,8,10,4,10,0,,,,1,,,,,,,,,,,,,,,,,,,,,,,,,,,,,,,,,,,,,,,,,,,,,,68,151876,21,Female,1,2024/02/20_08:11:35,YZ,None,
,,,,,,Calibration,0,,2,679,,,,,,,,,,,,,,,,,,,,,,,,,2,,,1,,,,,,,,,,,,,,,,,,,,,,,,,,,,,,,,,,,,,,,,,,,,,,68,151876,21,Female,1,2024/02/20_08:11:35,YZ,None,
,,,,,,calibration,0,30,2,788,1,Q,0,right,0.37786553199839545,1,0,,,,,,,,,,,,,,,,,,,,,1,,,,,,,,,,,,,,,,,,,,,,,,,,,,,,,,,,,,,,,,,,,,,,68,151876,21,Female,1,2024/02/20_08:11:35,YZ,None,
,,,,,,calibration,0,30,2,788,2,S,0,right,1.0426232400059234,1,0,,,,,,,,,,,,,,,,,,,,,1,,,,,,,,,,,,,,,,,,,,,,,,,,,,,,,,,,,,,,,,,,,,,,68,151876,21,Female,1,2024/02/20_08:11:35,YZ,None,
,,,,,,calibration,0,30,2,788,3,F,0,right,0.8310998059969279,1,0,,,,,,,,,,,,,,,,,,,,,1,,,,,,,,,,,,,,,,,,,,,,,,,,,,,,,,,,,,,,,,,,,,,,68,151876,21,Female,1,2024/02/20_08:11:35,YZ,None,
,,,,,,calibration,0,30,2,788,4,S,1,right,0.5417289929973776,0,0,,,,,,,,,,,,,,,,,,,,,1,,,,,,,,,,,,,,,,,,,,,,,,,,,,,,,,,,,,,,,,,,,,,,68,151876,21,Female,1,2024/02/20_08:11:35,YZ,None,
,,,,,,calibration,0,30,2,788,5,J,0,left,0.21751852900342783,0,0,,,,,,,,,,,,,,,,,,,,,1,,,,,,,,,,,,,,,,,,,,,,,,,,,,,,,,,,,,,,,,,,,,,,68,151876,21,Female,1,2024/02/20_08:11:35,YZ,None,
,,,,,,calibration,0,30,2,788,6,S,1,left,0.5606247599935159,1,0,,,,,,,,,,,,,,,,,,,,,1,,,,,,,,,,,,,,,,,,,,,,,,,,,,,,,,,,,,,,,,,,,,,,68,151876,21,Female,1,2024/02/20_08:11:35,YZ,None,
,,,,,,calibration,0,30,2,788,7,V,0,right,0.7939346190032666,1,0,,,,,,,,,,,,,,,,,,,,,1,,,,,,,,,,,,,,,,,,,,,,,,,,,,,,,,,,,,,,,,,,,,,,68,151876,21,Female,1,2024/02/20_08:11:35,YZ,None,
,,,,,,calibration,0,30,2,788,8,S,1,left,0.6715808439985267,1,0,,,,,,,,,,,,,,,,,,,,,1,,,,,,,,,,,,,,,,,,,,,,,,,,,,,,,,,,,,,,,,,,,,,,68,151876,21,Female,1,2024/02/20_08:11:35,YZ,None,
,,,,,,calibration,0,30,2,788,9,J,0,left,0.2787061709968839,0,0,,,,,,,,,,,,,,,,,,,,,1,,,,,,,,,,,,,,,,,,,,,,,,,,,,,,,,,,,,,,,,,,,,,,68,151876,21,Female,1,2024/02/20_08:11:35,YZ,None,
,,,,,,calibration,0,30,2,788,10,F,0,left,0.6502505450043827,0,0,,,,,,,,,,,,,,,,,,,,,1,,,,,,,,,,,,,,,,,,,,,,,,,,,,,,,,,,,,,,,,,,,,,,68,151876,21,Female,1,2024/02/20_08:11:35,YZ,None,
,,,,,,calibration,0,30,2,788,11,J,1,left,0.47203958300087834,1,0,,,,,,,,,,,,,,,,,,,,,1,,,,,,,,,,,,,,,,,,,,,,,,,,,,,,,,,,,,,,,,,,,,,,68,151876,21,Female,1,2024/02/20_08:11:35,YZ,None,
,,,,,,calibration,0,30,2,788,12,Q,0,right,0.25702770100178896,1,0,,,,,,,,,,,,,,,,,,,,,1,,,,,,,,,,,,,,,,,,,,,,,,,,,,,,,,,,,,,,,,,,,,,,68,151876,21,Female,1,2024/02/20_08:11:35,YZ,None,
,,,,,,calibration,0,30,2,788,13,F,0,right,0.27329238100355724,1,0,,,,,,,,,,,,,,,,,,,,,1,,,,,,,,,,,,,,,,,,,,,,,,,,,,,,,,,,,,,,,,,,,,,,68,151876,21,Female,1,2024/02/20_08:11:35,YZ,None,
,,,,,,calibration,0,30,2,788,,,,,,,,0.7708333333333333,0.75,0.3333333333333333,0.6666666666666666,0.0,0.6666666666666667,0.536022515692681,3,3,0,0,0,6,9,4,9,0,,,,1,,,,,,,,,,,,,,,,,,,,,,,,,,,,,,,,,,,,,,,,,,,,,,68,151876,21,Female,1,2024/02/20_08:11:35,YZ,None,
,,,,,,Calibration,0,,2,788,,,,,,,,,,,,,,,,,,,,,,,,,3,,,1,,,,,,,,,,,,,,,,,,,,,,,,,,,,,,,,,,,,,,,,,,,,,,68,151876,21,Female,1,2024/02/20_08:11:35,YZ,None,
,,,,,,calibration,0,7,2,788,1,S,0,None,nan,0,1,,,,,,,,,,,,,,,,,,,,,1,,,,,,,,,,,,,,,,,,,,,,,,,,,,,,,,,,,,,,,,,,,,,,68,151876,21,Female,1,2024/02/20_08:11:35,YZ,None,
,,,,,,calibration,0,7,2,788,2,F,0,left,0.738348393002525,0,0,,,,,,,,,,,,,,,,,,,,,1,,,,,,,,,,,,,,,,,,,,,,,,,,,,,,,,,,,,,,,,,,,,,,68,151876,21,Female,1,2024/02/20_08:11:35,YZ,None,
,,,,,,calibration,0,7,2,788,3,S,1,right,0.5006671570008621,0,0,,,,,,,,,,,,,,,,,,,,,1,,,,,,,,,,,,,,,,,,,,,,,,,,,,,,,,,,,,,,,,,,,,,,68,151876,21,Female,1,2024/02/20_08:11:35,YZ,None,
,,,,,,calibration,0,7,2,788,4,X,0,right,nan,0,1,,,,,,,,,,,,,,,,,,,,,1,,,,,,,,,,,,,,,,,,,,,,,,,,,,,,,,,,,,,,,,,,,,,,68,151876,21,Female,1,2024/02/20_08:11:35,YZ,None,
,,,,,,calibration,0,7,2,788,5,S,1,right,nan,0,1,,,,,,,,,,,,,,,,,,,,,1,,,,,,,,,,,,,,,,,,,,,,,,,,,,,,,,,,,,,,,,,,,,,,68,151876,21,Female,1,2024/02/20_08:11:35,YZ,None,
,,,,,,calibration,0,7,2,788,6,C,0,right,0.023013454003375955,1,0,,,,,,,,,,,,,,,,,,,,,1,,,,,,,,,,,,,,,,,,,,,,,,,,,,,,,,,,,,,,,,,,,,,,68,151876,21,Female,1,2024/02/20_08:11:35,YZ,None,
,,,,,,calibration,0,7,2,788,7,Q,0,right,0.809237856999971,1,0,,,,,,,,,,,,,,,,,,,,,1,,,,,,,,,,,,,,,,,,,,,,,,,,,,,,,,,,,,,,,,,,,,,,68,151876,21,Female,1,2024/02/20_08:11:35,YZ,None,
,,,,,,calibration,0,7,2,788,8,C,1,left,0.837289265000436,1,0,,,,,,,,,,,,,,,,,,,,,1,,,,,,,,,,,,,,,,,,,,,,,,,,,,,,,,,,,,,,,,,,,,,,68,151876,21,Female,1,2024/02/20_08:11:35,YZ,None,
,,,,,,calibration,0,7,2,788,9,Q,1,left,0.8718626069967286,1,0,,,,,,,,,,,,,,,,,,,,,1,,,,,,,,,,,,,,,,,,,,,,,,,,,,,,,,,,,,,,,,,,,,,,68,151876,21,Female,1,2024/02/20_08:11:35,YZ,None,
,,,,,,calibration,0,7,2,788,10,X,0,left,nan,0,1,,,,,,,,,,,,,,,,,,,,,1,,,,,,,,,,,,,,,,,,,,,,,,,,,,,,,,,,,,,,,,,,,,,,68,151876,21,Female,1,2024/02/20_08:11:35,YZ,None,
,,,,,,calibration,0,7,2,788,11,J,0,left,1.8254911119947792,0,0,,,,,,,,,,,,,,,,,,,,,1,,,,,,,,,,,,,,,,,,,,,,,,,,,,,,,,,,,,,,,,,,,,,,68,151876,21,Female,1,2024/02/20_08:11:35,YZ,None,
,,,,,,calibration,0,7,2,788,12,Q,0,left,1.5315758540018578,0,0,,,,,,,,,,,,,,,,,,,,,1,,,,,,,,,,,,,,,,,,,,,,,,,,,,,,,,,,,,,,,,,,,,,,68,151876,21,Female,1,2024/02/20_08:11:35,YZ,None,
,,,,,,calibration,0,7,2,788,13,V,0,left,0.7420213890000014,0,0,,,,,,,,,,,,,,,,,,,,,1,,,,,,,,,,,,,,,,,,,,,,,,,,,,,,,,,,,,,,,,,,,,,,68,151876,21,Female,1,2024/02/20_08:11:35,YZ,None,
,,,,,,calibration,0,7,2,788,,,,,,,,0.5416666666666666,0.5,0.4444444444444444,0.3333333333333333,0.3076923076923077,0.24786324786324787,0.8755007875556152,2,4,1,3,4,2,4,4,9,0,,,,1,,,,,,,,,,,,,,,,,,,,,,,,,,,,,,,,,,,,,,,,,,,,,,68,151876,21,Female,1,2024/02/20_08:11:35,YZ,None,
,,,,,,Calibration,0,,2,788,,,,,,,,,,,,,,,,,,,,,,,,,4,,,1,,,,,,,,,,,,,,,,,,,,,,,,,,,,,,,,,,,,,,,,,,,,,,68,151876,21,Female,1,2024/02/20_08:11:35,YZ,None,
,,,,,,calibration,0,18,2,917,1,C,0,right,0.43574217899731593,1,0,,,,,,,,,,,,,,,,,,,,,1,,,,,,,,,,,,,,,,,,,,,,,,,,,,,,,,,,,,,,,,,,,,,,68,151876,21,Female,1,2024/02/20_08:11:35,YZ,None,
,,,,,,calibration,0,18,2,917,2,X,0,right,nan,0,1,,,,,,,,,,,,,,,,,,,,,1,,,,,,,,,,,,,,,,,,,,,,,,,,,,,,,,,,,,,,,,,,,,,,68,151876,21,Female,1,2024/02/20_08:11:35,YZ,None,
,,,,,,calibration,0,18,2,917,3,C,1,left,0.37089323100371985,1,0,,,,,,,,,,,,,,,,,,,,,1,,,,,,,,,,,,,,,,,,,,,,,,,,,,,,,,,,,,,,,,,,,,,,68,151876,21,Female,1,2024/02/20_08:11:35,YZ,None,
,,,,,,calibration,0,18,2,917,4,X,1,left,nan,0,1,,,,,,,,,,,,,,,,,,,,,1,,,,,,,,,,,,,,,,,,,,,,,,,,,,,,,,,,,,,,,,,,,,,,68,151876,21,Female,1,2024/02/20_08:11:35,YZ,None,
,,,,,,calibration,0,18,2,917,5,S,0,left,0.4495923669965123,0,0,,,,,,,,,,,,,,,,,,,,,1,,,,,,,,,,,,,,,,,,,,,,,,,,,,,,,,,,,,,,,,,,,,,,68,151876,21,Female,1,2024/02/20_08:11:35,YZ,None,
,,,,,,calibration,0,18,2,917,6,N,0,right,0.5400798070040764,1,0,,,,,,,,,,,,,,,,,,,,,1,,,,,,,,,,,,,,,,,,,,,,,,,,,,,,,,,,,,,,,,,,,,,,68,151876,21,Female,1,2024/02/20_08:11:35,YZ,None,
,,,,,,calibration,0,18,2,917,7,S,1,right,0.7520746079972014,0,0,,,,,,,,,,,,,,,,,,,,,1,,,,,,,,,,,,,,,,,,,,,,,,,,,,,,,,,,,,,,,,,,,,,,68,151876,21,Female,1,2024/02/20_08:11:35,YZ,None,
,,,,,,calibration,0,18,2,917,8,X,0,left,1.2595521339972038,0,0,,,,,,,,,,,,,,,,,,,,,1,,,,,,,,,,,,,,,,,,,,,,,,,,,,,,,,,,,,,,,,,,,,,,68,151876,21,Female,1,2024/02/20_08:11:35,YZ,None,
,,,,,,calibration,0,18,2,917,9,Q,0,left,0.35487551300320774,0,0,,,,,,,,,,,,,,,,,,,,,1,,,,,,,,,,,,,,,,,,,,,,,,,,,,,,,,,,,,,,,,,,,,,,68,151876,21,Female,1,2024/02/20_08:11:35,YZ,None,
,,,,,,calibration,0,18,2,917,10,F,0,left,0.4449967699983972,0,0,,,,,,,,,,,,,,,,,,,,,1,,,,,,,,,,,,,,,,,,,,,,,,,,,,,,,,,,,,,,,,,,,,,,68,151876,21,Female,1,2024/02/20_08:11:35,YZ,None,
,,,,,,calibration,0,18,2,917,11,C,0,left,0.396905515997787,0,0,,,,,,,,,,,,,,,,,,,,,1,,,,,,,,,,,,,,,,,,,,,,,,,,,,,,,,,,,,,,,,,,,,,,68,151876,21,Female,1,2024/02/20_08:11:35,YZ,None,
,,,,,,calibration,0,18,2,917,12,Q,0,right,0.34691067800304154,1,0,,,,,,,,,,,,,,,,,,,,,1,,,,,,,,,,,,,,,,,,,,,,,,,,,,,,,,,,,,,,,,,,,,,,68,151876,21,Female,1,2024/02/20_08:11:35,YZ,None,
,,,,,,calibration,0,18,2,917,,,,,,,,0.06944444444444442,0.3333333333333333,0.5555555555555556,0.375,0.16666666666666666,0.2777777777777778,0.5351622802998464,1,5,1,1,2,3,4,3,9,0,,,,1,,,,,,,,,,,,,,,,,,,,,,,,,,,,,,,,,,,,,,,,,,,,,,68,151876,21,Female,1,2024/02/20_08:11:35,YZ,None,
,,,,,,Calibration,0,,2,917,,,,,,,,,,,,,,,,,,,,,,,,,5,,,1,,,,,,,,,,,,,,,,,,,,,,,,,,,,,,,,,,,,,,,,,,,,,,68,151876,21,Female,1,2024/02/20_08:11:35,YZ,None,
,,,,,,calibration,0,29,2,1068,1,J,0,left,0.3478485070008901,0,0,,,,,,,,,,,,,,,,,,,,,1,,,,,,,,,,,,,,,,,,,,,,,,,,,,,,,,,,,,,,,,,,,,,,68,151876,21,Female,1,2024/02/20_08:11:35,YZ,None,
,,,,,,calibration,0,29,2,1068,2,J,0,left,0.2971540989965433,0,0,,,,,,,,,,,,,,,,,,,,,1,,,,,,,,,,,,,,,,,,,,,,,,,,,,,,,,,,,,,,,,,,,,,,68,151876,21,Female,1,2024/02/20_08:11:35,YZ,None,
,,,,,,calibration,0,29,2,1068,3,V,0,right,0.5238886220031418,1,0,,,,,,,,,,,,,,,,,,,,,1,,,,,,,,,,,,,,,,,,,,,,,,,,,,,,,,,,,,,,,,,,,,,,68,151876,21,Female,1,2024/02/20_08:11:35,YZ,None,
,,,,,,calibration,0,29,2,1068,4,N,0,left,0.3177514379931381,0,0,,,,,,,,,,,,,,,,,,,,,1,,,,,,,,,,,,,,,,,,,,,,,,,,,,,,,,,,,,,,,,,,,,,,68,151876,21,Female,1,2024/02/20_08:11:35,YZ,None,
,,,,,,calibration,0,29,2,1068,5,V,1,left,0.22418098399793962,1,0,,,,,,,,,,,,,,,,,,,,,1,,,,,,,,,,,,,,,,,,,,,,,,,,,,,,,,,,,,,,,,,,,,,,68,151876,21,Female,1,2024/02/20_08:11:35,YZ,None,
,,,,,,calibration,0,29,2,1068,6,C,0,left,0.24915756300470093,0,0,,,,,,,,,,,,,,,,,,,,,1,,,,,,,,,,,,,,,,,,,,,,,,,,,,,,,,,,,,,,,,,,,,,,68,151876,21,Female,1,2024/02/20_08:11:35,YZ,None,
,,,,,,calibration,0,29,2,1068,7,Q,0,left,0.24468708299536956,0,0,,,,,,,,,,,,,,,,,,,,,1,,,,,,,,,,,,,,,,,,,,,,,,,,,,,,,,,,,,,,,,,,,,,,68,151876,21,Female,1,2024/02/20_08:11:35,YZ,None,
,,,,,,calibration,0,29,2,1068,8,X,0,left,0.20458656400296604,0,0,,,,,,,,,,,,,,,,,,,,,1,,,,,,,,,,,,,,,,,,,,,,,,,,,,,,,,,,,,,,,,,,,,,,68,151876,21,Female,1,2024/02/20_08:11:35,YZ,None,
,,,,,,calibration,0,29,2,1068,9,Q,1,left,0.313081111999054,1,0,,,,,,,,,,,,,,,,,,,,,1,,,,,,,,,,,,,,,,,,,,,,,,,,,,,,,,,,,,,,,,,,,,,,68,151876,21,Female,1,2024/02/20_08:11:35,YZ,None,
,,,,,,calibration,0,29,2,1068,10,X,1,right,0.0,0,0,,,,,,,,,,,,,,,,,,,,,1,,,,,,,,,,,,,,,,,,,,,,,,,,,,,,,,,,,,,,,,,,,,,,68,151876,21,Female,1,2024/02/20_08:11:35,YZ,None,
,,,,,,calibration,0,29,2,1068,11,J,0,left,0.3579216700018151,0,0,,,,,,,,,,,,,,,,,,,,,1,,,,,,,,,,,,,,,,,,,,,,,,,,,,,,,,,,,,,,,,,,,,,,68,151876,21,Female,1,2024/02/20_08:11:35,YZ,None,
,,,,,,calibration,0,29,2,1068,,,,,,,,0.10416666666666667,0.6666666666666666,0.875,0.125,0.0,0.125,0.28002342199959623,2,7,0,0,0,1,3,3,8,0,,,,1,,,,,,,,,,,,,,,,,,,,,,,,,,,,,,,,,,,,,,,,,,,,,,68,151876,21,Female,1,2024/02/20_08:11:35,YZ,None,
,,,,,,Calibration,0,,2,1068,,,,,,,,,,,,,,,,,,,,,,,,,6,,,1,,,,,,,,,,,,,,,,,,,,,,,,,,,,,,,,,,,,,,,,,,,,,,68,151876,21,Female,1,2024/02/20_08:11:35,YZ,None,
,,,,,,calibration,0,5,2,1250,1,J,0,left,0.3044080450054025,0,0,,,,,,,,,,,,,,,,,,,,,1,,,,,,,,,,,,,,,,,,,,,,,,,,,,,,,,,,,,,,,,,,,,,,68,151876,21,Female,1,2024/02/20_08:11:35,YZ,None,
,,,,,,calibration,0,5,2,1250,2,X,0,left,0.2567392810015008,0,0,,,,,,,,,,,,,,,,,,,,,1,,,,,,,,,,,,,,,,,,,,,,,,,,,,,,,,,,,,,,,,,,,,,,68,151876,21,Female,1,2024/02/20_08:11:35,YZ,None,
,,,,,,calibration,0,5,2,1250,3,J,1,left,0.5526984759999323,1,0,,,,,,,,,,,,,,,,,,,,,1,,,,,,,,,,,,,,,,,,,,,,,,,,,,,,,,,,,,,,,,,,,,,,68,151876,21,Female,1,2024/02/20_08:11:35,YZ,None,
,,,,,,calibration,0,5,2,1250,4,X,1,right,1.154988324000442,0,0,,,,,,,,,,,,,,,,,,,,,1,,,,,,,,,,,,,,,,,,,,,,,,,,,,,,,,,,,,,,,,,,,,,,68,151876,21,Female,1,2024/02/20_08:11:35,YZ,None,
,,,,,,calibration,0,5,2,1250,5,V,0,right,1.3058508030007943,1,0,,,,,,,,,,,,,,,,,,,,,1,,,,,,,,,,,,,,,,,,,,,,,,,,,,,,,,,,,,,,,,,,,,,,68,151876,21,Female,1,2024/02/20_08:11:35,YZ,None,
,,,,,,calibration,0,5,2,1250,6,N,0,right,1.0069214299946907,1,0,,,,,,,,,,,,,,,,,,,,,1,,,,,,,,,,,,,,,,,,,,,,,,,,,,,,,,,,,,,,,,,,,,,,68,151876,21,Female,1,2024/02/20_08:11:35,YZ,None,
,,,,,,calibration,0,5,2,1250,7,X,0,right,nan,0,1,,,,,,,,,,,,,,,,,,,,,1,,,,,,,,,,,,,,,,,,,,,,,,,,,,,,,,,,,,,,,,,,,,,,68,151876,21,Female,1,2024/02/20_08:11:35,YZ,None,
,,,,,,calibration,0,5,2,1250,8,N,1,right,0.3569046949996846,0,0,,,,,,,,,,,,,,,,,,,,,1,,,,,,,,,,,,,,,,,,,,,,,,,,,,,,,,,,,,,,,,,,,,,,68,151876,21,Female,1,2024/02/20_08:11:35,YZ,None,
,,,,,,calibration,0,5,2,1250,9,V,0,right,0.38503729100193596,1,0,,,,,,,,,,,,,,,,,,,,,1,,,,,,,,,,,,,,,,,,,,,,,,,,,,,,,,,,,,,,,,,,,,,,68,151876,21,Female,1,2024/02/20_08:11:35,YZ,None,
,,,,,,calibration,0,5,2,1250,10,J,0,right,1.0217548620057642,1,0,,,,,,,,,,,,,,,,,,,,,1,,,,,,,,,,,,,,,,,,,,,,,,,,,,,,,,,,,,,,,,,,,,,,68,151876,21,Female,1,2024/02/20_08:11:35,YZ,None,
,,,,,,calibration,0,5,2,1250,,,,,,,,0.5476190476190476,0.3333333333333333,0.2857142857142857,0.6666666666666666,0.1,0.6142857142857143,0.7050336896677941,1,2,0,1,1,4,5,3,7,0,,,,1,,,,,,,,,,,,,,,,,,,,,,,,,,,,,,,,,,,,,,,,,,,,,,68,151876,21,Female,1,2024/02/20_08:11:35,YZ,None,
,,,,,,Calibration,0,,2,1250,,,,,,,,,,,,,,,,,,,,,,,,,7,,,1,,,,,,,,,,,,,,,,,,,,,,,,,,,,,,,,,,,,,,,,,,,,,,68,151876,21,Female,1,2024/02/20_08:11:35,YZ,None,
,,,,,,calibration,0,23,2,1472,1,J,0,right,0.42624779300240334,1,0,,,,,,,,,,,,,,,,,,,,,1,,,,,,,,,,,,,,,,,,,,,,,,,,,,,,,,,,,,,,,,,,,,,,68,151876,21,Female,1,2024/02/20_08:11:35,YZ,None,
,,,,,,calibration,0,23,2,1472,2,S,0,right,0.44914982500631595,1,0,,,,,,,,,,,,,,,,,,,,,1,,,,,,,,,,,,,,,,,,,,,,,,,,,,,,,,,,,,,,,,,,,,,,68,151876,21,Female,1,2024/02/20_08:11:35,YZ,None,
,,,,,,calibration,0,23,2,1472,3,J,1,left,0.99745989600342,1,0,,,,,,,,,,,,,,,,,,,,,1,,,,,,,,,,,,,,,,,,,,,,,,,,,,,,,,,,,,,,,,,,,,,,68,151876,21,Female,1,2024/02/20_08:11:35,YZ,None,
,,,,,,calibration,0,23,2,1472,4,N,0,left,0.4775087779999012,0,0,,,,,,,,,,,,,,,,,,,,,1,,,,,,,,,,,,,,,,,,,,,,,,,,,,,,,,,,,,,,,,,,,,,,68,151876,21,Female,1,2024/02/20_08:11:35,YZ,None,
,,,,,,calibration,0,23,2,1472,5,Q,0,left,0.34064516500075115,0,0,,,,,,,,,,,,,,,,,,,,,1,,,,,,,,,,,,,,,,,,,,,,,,,,,,,,,,,,,,,,,,,,,,,,68,151876,21,Female,1,2024/02/20_08:11:35,YZ,None,
,,,,,,calibration,0,23,2,1472,6,S,0,right,0.34843575999548193,1,0,,,,,,,,,,,,,,,,,,,,,1,,,,,,,,,,,,,,,,,,,,,,,,,,,,,,,,,,,,,,,,,,,,,,68,151876,21,Female,1,2024/02/20_08:11:35,YZ,None,
,,,,,,calibration,0,23,2,1472,7,N,0,left,0.30111474599834764,0,0,,,,,,,,,,,,,,,,,,,,,1,,,,,,,,,,,,,,,,,,,,,,,,,,,,,,,,,,,,,,,,,,,,,,68,151876,21,Female,1,2024/02/20_08:11:35,YZ,None,
,,,,,,calibration,0,23,2,1472,8,S,1,left,0.34378609499981394,1,0,,,,,,,,,,,,,,,,,,,,,1,,,,,,,,,,,,,,,,,,,,,,,,,,,,,,,,,,,,,,,,,,,,,,68,151876,21,Female,1,2024/02/20_08:11:35,YZ,None,
,,,,,,calibration,0,23,2,1472,9,N,1,right,0.17246470999816665,0,0,,,,,,,,,,,,,,,,,,,,,1,,,,,,,,,,,,,,,,,,,,,,,,,,,,,,,,,,,,,,,,,,,,,,68,151876,21,Female,1,2024/02/20_08:11:35,YZ,None,
,,,,,,calibration,0,23,2,1472,,,,,,,,0.625,0.6666666666666666,0.5,0.5,0.0,0.5,0.42853475200051133,2,3,0,0,0,3,5,3,6,0,,,,1,,,,,,,,,,,,,,,,,,,,,,,,,,,,,,,,,,,,,,,,,,,,,,68,151876,21,Female,1,2024/02/20_08:11:35,YZ,None,
,,,,,,Calibration,0,,2,1472,,,,,,,,,,,,,,,,,,,,,,,,,8,,,1,,,,,,,,,,,,,,,,,,,,,,,,,,,,,,,,,,,,,,,,,,,,,,68,151876,21,Female,1,2024/02/20_08:11:35,YZ,None,
,,,,,,calibration,0,28,2,1750,1,N,0,left,0.4230261960037751,0,0,,,,,,,,,,,,,,,,,,,,,1,,,,,,,,,,,,,,,,,,,,,,,,,,,,,,,,,,,,,,,,,,,,,,68,151876,21,Female,1,2024/02/20_08:11:35,YZ,None,
,,,,,,calibration,0,28,2,1750,2,Q,0,left,0.3707783210047637,0,0,,,,,,,,,,,,,,,,,,,,,1,,,,,,,,,,,,,,,,,,,,,,,,,,,,,,,,,,,,,,,,,,,,,,68,151876,21,Female,1,2024/02/20_08:11:35,YZ,None,
,,,,,,calibration,0,28,2,1750,3,X,0,left,nan,0,1,,,,,,,,,,,,,,,,,,,,,1,,,,,,,,,,,,,,,,,,,,,,,,,,,,,,,,,,,,,,,,,,,,,,68,151876,21,Female,1,2024/02/20_08:11:35,YZ,None,
,,,,,,calibration,0,28,2,1750,4,Q,1,left,0.24898790400038706,1,0,,,,,,,,,,,,,,,,,,,,,1,,,,,,,,,,,,,,,,,,,,,,,,,,,,,,,,,,,,,,,,,,,,,,68,151876,21,Female,1,2024/02/20_08:11:35,YZ,None,
,,,,,,calibration,0,28,2,1750,5,J,0,right,0.2725428319972707,1,0,,,,,,,,,,,,,,,,,,,,,1,,,,,,,,,,,,,,,,,,,,,,,,,,,,,,,,,,,,,,,,,,,,,,68,151876,21,Female,1,2024/02/20_08:11:35,YZ,None,
,,,,,,calibration,0,28,2,1750,6,Q,1,right,0.32948094099992886,0,0,,,,,,,,,,,,,,,,,,,,,1,,,,,,,,,,,,,,,,,,,,,,,,,,,,,,,,,,,,,,,,,,,,,,68,151876,21,Female,1,2024/02/20_08:11:35,YZ,None,
,,,,,,calibration,0,28,2,1750,7,C,0,right,0.22620460400503362,1,0,,,,,,,,,,,,,,,,,,,,,1,,,,,,,,,,,,,,,,,,,,,,,,,,,,,,,,,,,,,,,,,,,,,,68,151876,21,Female,1,2024/02/20_08:11:35,YZ,None,
,,,,,,calibration,0,28,2,1750,8,V,0,right,0.2606362629958312,1,0,,,,,,,,,,,,,,,,,,,,,1,,,,,,,,,,,,,,,,,,,,,,,,,,,,,,,,,,,,,,,,,,,,,,68,151876,21,Female,1,2024/02/20_08:11:35,YZ,None,
,,,,,,calibration,0,28,2,1750,,,,,,,,0.625,0.5,0.3333333333333333,0.6,0.125,0.5416666666666667,0.3045224372867129,1,2,0,1,1,3,4,2,6,0,,,,1,,,,,,,,,,,,,,,,,,,,,,,,,,,,,,,,,,,,,,,,,,,,,,68,151876,21,Female,1,2024/02/20_08:11:35,YZ,None,
,,,,,,Calibration,0,,2,1750,,,,,,,,,,,,,,,,,,,,,,,,,9,,,1,,,,,,,,,,,,,,,,,,,,,,,,,,,,,,,,,,,,,,,,,,,,,,68,151876,21,Female,1,2024/02/20_08:11:35,YZ,None,
,,,,,,calibration,0,4,2,2107,1,J,0,right,0.38646182299999055,1,0,,,,,,,,,,,,,,,,,,,,,1,,,,,,,,,,,,,,,,,,,,,,,,,,,,,,,,,,,,,,,,,,,,,,68,151876,21,Female,1,2024/02/20_08:11:35,YZ,None,
,,,,,,calibration,0,4,2,2107,2,F,0,right,0.22025598699838156,1,0,,,,,,,,,,,,,,,,,,,,,1,,,,,,,,,,,,,,,,,,,,,,,,,,,,,,,,,,,,,,,,,,,,,,68,151876,21,Female,1,2024/02/20_08:11:35,YZ,None,
,,,,,,calibration,0,4,2,2107,3,J,1,left,0.2016310559993144,1,0,,,,,,,,,,,,,,,,,,,,,1,,,,,,,,,,,,,,,,,,,,,,,,,,,,,,,,,,,,,,,,,,,,,,68,151876,21,Female,1,2024/02/20_08:11:35,YZ,None,
,,,,,,calibration,0,4,2,2107,4,F,1,left,0.22446761899482226,1,0,,,,,,,,,,,,,,,,,,,,,1,,,,,,,,,,,,,,,,,,,,,,,,,,,,,,,,,,,,,,,,,,,,,,68,151876,21,Female,1,2024/02/20_08:11:35,YZ,None,
,,,,,,calibration,0,4,2,2107,5,N,0,right,0.08809121899685124,1,0,,,,,,,,,,,,,,,,,,,,,1,,,,,,,,,,,,,,,,,,,,,,,,,,,,,,,,,,,,,,,,,,,,,,68,151876,21,Female,1,2024/02/20_08:11:35,YZ,None,
,,,,,,calibration,0,4,2,2107,6,J,0,left,0.11289118100103224,0,0,,,,,,,,,,,,,,,,,,,,,1,,,,,,,,,,,,,,,,,,,,,,,,,,,,,,,,,,,,,,,,,,,,,,68,151876,21,Female,1,2024/02/20_08:11:35,YZ,None,
,,,,,,calibration,0,4,2,2107,7,Q,0,left,0.1462868550006533,0,0,,,,,,,,,,,,,,,,,,,,,1,,,,,,,,,,,,,,,,,,,,,,,,,,,,,,,,,,,,,,,,,,,,,,68,151876,21,Female,1,2024/02/20_08:11:35,YZ,None,
,,,,,,calibration,0,4,2,2107,,,,,,,,0.9,1.0,0.4,0.6,0.0,0.6,0.1971551057130065,2,2,0,0,0,3,5,2,5,0,,,,1,,,,,,,,,,,,,,,,,,,,,,,,,,,,,,,,,,,,,,,,,,,,,,68,151876,21,Female,1,2024/02/20_08:11:35,YZ,None,
,,,,,,Calibration,0,,2,2107,,,,,,,,,,,,,,,,,,,,,,,,,10,,,1,,,,,,,,,,,,,,,,,,,,,,,,,,,,,,,,,,,,,,,,,,,,,,68,151876,21,Female,1,2024/02/20_08:11:35,YZ,None,
,,,,,,calibration,0,23,2,1750,1,F,0,left,0.5509382599993842,0,0,,,,,,,,,,,,,,,,,,,,,1,,,,,,,,,,,,,,,,,,,,,,,,,,,,,,,,,,,,,,,,,,,,,,68,151876,21,Female,1,2024/02/20_08:11:35,YZ,None,
,,,,,,calibration,0,23,2,1750,2,Q,0,left,0.7416651710009319,0,0,,,,,,,,,,,,,,,,,,,,,1,,,,,,,,,,,,,,,,,,,,,,,,,,,,,,,,,,,,,,,,,,,,,,68,151876,21,Female,1,2024/02/20_08:11:35,YZ,None,
,,,,,,calibration,0,23,2,1750,3,N,0,left,0.39020159500068985,0,0,,,,,,,,,,,,,,,,,,,,,1,,,,,,,,,,,,,,,,,,,,,,,,,,,,,,,,,,,,,,,,,,,,,,68,151876,21,Female,1,2024/02/20_08:11:35,YZ,None,
,,,,,,calibration,0,23,2,1750,4,Q,1,right,0.2929615149987512,0,0,,,,,,,,,,,,,,,,,,,,,1,,,,,,,,,,,,,,,,,,,,,,,,,,,,,,,,,,,,,,,,,,,,,,68,151876,21,Female,1,2024/02/20_08:11:35,YZ,None,
,,,,,,calibration,0,23,2,1750,5,X,0,left,0.1219090770027833,0,0,,,,,,,,,,,,,,,,,,,,,1,,,,,,,,,,,,,,,,,,,,,,,,,,,,,,,,,,,,,,,,,,,,,,68,151876,21,Female,1,2024/02/20_08:11:35,YZ,None,
,,,,,,calibration,0,23,2,1750,6,C,0,left,0.34488528899964876,0,0,,,,,,,,,,,,,,,,,,,,,1,,,,,,,,,,,,,,,,,,,,,,,,,,,,,,,,,,,,,,,,,,,,,,68,151876,21,Female,1,2024/02/20_08:11:35,YZ,None,
,,,,,,calibration,0,23,2,1750,7,X,1,right,0.7266280769981677,0,0,,,,,,,,,,,,,,,,,,,,,1,,,,,,,,,,,,,,,,,,,,,,,,,,,,,,,,,,,,,,,,,,,,,,68,151876,21,Female,1,2024/02/20_08:11:35,YZ,None,
,,,,,,calibration,0,23,2,1750,8,F,0,right,0.6552796000032686,1,0,,,,,,,,,,,,,,,,,,,,,1,,,,,,,,,,,,,,,,,,,,,,,,,,,,,,,,,,,,,,,,,,,,,,68,151876,21,Female,1,2024/02/20_08:11:35,YZ,None,
,,,,,,calibration,0,23,2,1750,,,,,,,,0.04166666666666666,0.0,0.8333333333333334,0.16666666666666666,0.0,0.16666666666666663,0.4780585730004532,0,5,0,0,0,1,1,2,6,0,,,,1,,,,,,,,,,,,,,,,,,,,,,,,,,,,,,,,,,,,,,,,,,,,,,68,151876,21,Female,1,2024/02/20_08:11:35,YZ,None,
,,,,,,Calibration,0,,2,1750,,,,,,,,,,,,,,,,,,,,,,,,,11,,,1,,,,,,,,,,,,,,,,,,,,,,,,,,,,,,,,,,,,,,,,,,,,,,68,151876,21,Female,1,2024/02/20_08:11:35,YZ,None,
,,,,,,calibration,0,32,2,2107,1,S,0,left,0.3961254089954309,0,0,,,,,,,,,,,,,,,,,,,,,1,,,,,,,,,,,,,,,,,,,,,,,,,,,,,,,,,,,,,,,,,,,,,,68,151876,21,Female,1,2024/02/20_08:11:35,YZ,None,
,,,,,,calibration,0,32,2,2107,2,C,0,left,0.26900131400179816,0,0,,,,,,,,,,,,,,,,,,,,,1,,,,,,,,,,,,,,,,,,,,,,,,,,,,,,,,,,,,,,,,,,,,,,68,151876,21,Female,1,2024/02/20_08:11:35,YZ,None,
,,,,,,calibration,0,32,2,2107,3,S,1,left,0.3603929020027863,1,0,,,,,,,,,,,,,,,,,,,,,1,,,,,,,,,,,,,,,,,,,,,,,,,,,,,,,,,,,,,,,,,,,,,,68,151876,21,Female,1,2024/02/20_08:11:35,YZ,None,
,,,,,,calibration,0,32,2,2107,4,Q,0,right,0.47241894799662987,1,0,,,,,,,,,,,,,,,,,,,,,1,,,,,,,,,,,,,,,,,,,,,,,,,,,,,,,,,,,,,,,,,,,,,,68,151876,21,Female,1,2024/02/20_08:11:35,YZ,None,
,,,,,,calibration,0,32,2,2107,5,X,0,left,0.44080427400331246,0,0,,,,,,,,,,,,,,,,,,,,,1,,,,,,,,,,,,,,,,,,,,,,,,,,,,,,,,,,,,,,,,,,,,,,68,151876,21,Female,1,2024/02/20_08:11:35,YZ,None,
,,,,,,calibration,0,32,2,2107,6,Q,1,left,0.3762929919976159,1,0,,,,,,,,,,,,,,,,,,,,,1,,,,,,,,,,,,,,,,,,,,,,,,,,,,,,,,,,,,,,,,,,,,,,68,151876,21,Female,1,2024/02/20_08:11:35,YZ,None,
,,,,,,calibration,0,32,2,2107,7,N,0,left,0.3786894619988743,0,0,,,,,,,,,,,,,,,,,,,,,1,,,,,,,,,,,,,,,,,,,,,,,,,,,,,,,,,,,,,,,,,,,,,,68,151876,21,Female,1,2024/02/20_08:11:35,YZ,None,
,,,,,,calibration,0,32,2,2107,,,,,,,,0.8,1.0,0.8,0.2,0.0,0.19999999999999996,0.3848179001423497,2,4,0,0,0,1,3,2,5,0,,,,1,,,,,,,,,,,,,,,,,,,,,,,,,,,,,,,,,,,,,,,,,,,,,,68,151876,21,Female,1,2024/02/20_08:11:35,YZ,None,
,,,,,,Calibration,0,,2,2107,,,,,,,,,,,,,,,,,,,,,,,,,12,,,1,,,,,,,,,,,,,,,,,,,,,,,,,,,,,,,,,,,,,,,,,,,,,,68,151876,21,Female,1,2024/02/20_08:11:35,YZ,None,
,,,,,,calibration,0,28,2,2107,1,N,0,left,0.560827060995507,0,0,,,,,,,,,,,,,,,,,,,,,1,,,,,,,,,,,,,,,,,,,,,,,,,,,,,,,,,,,,,,,,,,,,,,68,151876,21,Female,1,2024/02/20_08:11:35,YZ,None,
,,,,,,calibration,0,28,2,2107,2,N,0,left,0.39956075599911856,0,0,,,,,,,,,,,,,,,,,,,,,1,,,,,,,,,,,,,,,,,,,,,,,,,,,,,,,,,,,,,,,,,,,,,,68,151876,21,Female,1,2024/02/20_08:11:35,YZ,None,
,,,,,,calibration,0,28,2,2107,3,C,0,left,0.8352706830046372,0,0,,,,,,,,,,,,,,,,,,,,,1,,,,,,,,,,,,,,,,,,,,,,,,,,,,,,,,,,,,,,,,,,,,,,68,151876,21,Female,1,2024/02/20_08:11:35,YZ,None,
,,,,,,calibration,0,28,2,2107,4,F,0,left,0.5578294649967575,0,0,,,,,,,,,,,,,,,,,,,,,1,,,,,,,,,,,,,,,,,,,,,,,,,,,,,,,,,,,,,,,,,,,,,,68,151876,21,Female,1,2024/02/20_08:11:35,YZ,None,
,,,,,,calibration,0,28,2,2107,5,C,1,left,0.5472387849949882,1,0,,,,,,,,,,,,,,,,,,,,,1,,,,,,,,,,,,,,,,,,,,,,,,,,,,,,,,,,,,,,,,,,,,,,68,151876,21,Female,1,2024/02/20_08:11:35,YZ,None,
,,,,,,calibration,0,28,2,2107,6,F,1,left,nan,0,1,,,,,,,,,,,,,,,,,,,,,1,,,,,,,,,,,,,,,,,,,,,,,,,,,,,,,,,,,,,,,,,,,,,,68,151876,21,Female,1,2024/02/20_08:11:35,YZ,None,
,,,,,,calibration,0,28,2,2107,7,X,0,left,0.301682190001884,0,0,,,,,,,,,,,,,,,,,,,,,1,,,,,,,,,,,,,,,,,,,,,,,,,,,,,,,,,,,,,,,,,,,,,,68,151876,21,Female,1,2024/02/20_08:11:35,YZ,None,
,,,,,,calibration,0,28,2,2107,,,,,,,,0.125,0.5,1.0,0.0,0.14285714285714285,-0.14285714285714285,0.5337348233321487,1,5,1,0,1,0,1,2,5,0,,,,1,,,,,,,,,,,,,,,,,,,,,,,,,,,,,,,,,,,,,,,,,,,,,,68,151876,21,Female,1,2024/02/20_08:11:35,YZ,None,
,,,,,,Calibration,0,,2,2107,,,,,,,,,,,,,,,,,,,,,,,,,13,,,1,,,,,,,,,,,,,,,,,,,,,,,,,,,,,,,,,,,,,,,,,,,,,,68,151876,21,Female,1,2024/02/20_08:11:35,YZ,None,
,,,,,,calibration,0,28,2,2583,1,F,0,None,nan,0,1,,,,,,,,,,,,,,,,,,,,,1,,,,,,,,,,,,,,,,,,,,,,,,,,,,,,,,,,,,,,,,,,,,,,68,151876,21,Female,1,2024/02/20_08:11:35,YZ,None,
,,,,,,calibration,0,28,2,2583,2,N,0,None,nan,0,1,,,,,,,,,,,,,,,,,,,,,1,,,,,,,,,,,,,,,,,,,,,,,,,,,,,,,,,,,,,,,,,,,,,,68,151876,21,Female,1,2024/02/20_08:11:35,YZ,None,
,,,,,,calibration,0,28,2,2583,3,Q,0,left,0.612297698004113,0,0,,,,,,,,,,,,,,,,,,,,,1,,,,,,,,,,,,,,,,,,,,,,,,,,,,,,,,,,,,,,,,,,,,,,68,151876,21,Female,1,2024/02/20_08:11:35,YZ,None,
,,,,,,calibration,0,28,2,2583,4,N,1,left,0.6482677400053944,1,0,,,,,,,,,,,,,,,,,,,,,1,,,,,,,,,,,,,,,,,,,,,,,,,,,,,,,,,,,,,,,,,,,,,,68,151876,21,Female,1,2024/02/20_08:11:35,YZ,None,
,,,,,,calibration,0,28,2,2583,5,Q,1,left,nan,0,1,,,,,,,,,,,,,,,,,,,,,1,,,,,,,,,,,,,,,,,,,,,,,,,,,,,,,,,,,,,,,,,,,,,,68,151876,21,Female,1,2024/02/20_08:11:35,YZ,None,
,,,,,,calibration,0,28,2,2583,6,V,0,left,0.3069133899989538,0,0,,,,,,,,,,,,,,,,,,,,,1,,,,,,,,,,,,,,,,,,,,,,,,,,,,,,,,,,,,,,,,,,,,,,68,151876,21,Female,1,2024/02/20_08:11:35,YZ,None,
,,,,,,calibration,0,28,2,2583,,,,,,,,0.5,0.5,0.5,0.0,0.5,0.0,0.5224929426694871,1,2,1,2,3,0,1,2,4,0,,,,1,,,,,,,,,,,,,,,,,,,,,,,,,,,,,,,,,,,,,,,,,,,,,,68,151876,21,Female,1,2024/02/20_08:11:35,YZ,None,
,,,,,,Calibration,0,,2,2583,,,,,,,,,,,,,,,,,,,,,,,,,14,,,1,,,,,,,,,,,,,,,,,,,,,,,,,,,,,,,,,,,,,,,,,,,,,,68,151876,21,Female,1,2024/02/20_08:11:35,YZ,None,
,,,,,,calibration,0,31,2,2583,1,X,0,None,nan,0,1,,,,,,,,,,,,,,,,,,,,,1,,,,,,,,,,,,,,,,,,,,,,,,,,,,,,,,,,,,,,,,,,,,,,68,151876,21,Female,1,2024/02/20_08:11:35,YZ,None,
,,,,,,calibration,0,31,2,2583,2,F,0,left,0.4201370009977836,0,0,,,,,,,,,,,,,,,,,,,,,1,,,,,,,,,,,,,,,,,,,,,,,,,,,,,,,,,,,,,,,,,,,,,,68,151876,21,Female,1,2024/02/20_08:11:35,YZ,None,
,,,,,,calibration,0,31,2,2583,3,X,1,left,nan,0,1,,,,,,,,,,,,,,,,,,,,,1,,,,,,,,,,,,,,,,,,,,,,,,,,,,,,,,,,,,,,,,,,,,,,68,151876,21,Female,1,2024/02/20_08:11:35,YZ,None,
,,,,,,calibration,0,31,2,2583,4,N,0,left,0.40822268699412234,0,0,,,,,,,,,,,,,,,,,,,,,1,,,,,,,,,,,,,,,,,,,,,,,,,,,,,,,,,,,,,,,,,,,,,,68,151876,21,Female,1,2024/02/20_08:11:35,YZ,None,
,,,,,,calibration,0,31,2,2583,5,X,1,left,nan,0,1,,,,,,,,,,,,,,,,,,,,,1,,,,,,,,,,,,,,,,,,,,,,,,,,,,,,,,,,,,,,,,,,,,,,68,151876,21,Female,1,2024/02/20_08:11:35,YZ,None,
,,,,,,calibration,0,31,2,2583,6,S,0,right,0.006663149993983097,1,0,,,,,,,,,,,,,,,,,,,,,1,,,,,,,,,,,,,,,,,,,,,,,,,,,,,,,,,,,,,,,,,,,,,,68,151876,21,Female,1,2024/02/20_08:11:35,YZ,None,
,,,,,,calibration,0,31,2,2583,,,,,,,,0.125,0.0,0.5,0.3333333333333333,0.5,0.0,0.27834094599529635,0,2,2,1,3,1,1,2,4,0,,,,1,,,,,,,,,,,,,,,,,,,,,,,,,,,,,,,,,,,,,,,,,,,,,,68,151876,21,Female,1,2024/02/20_08:11:35,YZ,None,
,,,,,,Calibration,0,,2,2583,,,,,,,,,,,,,,,,,,,,,,,,,15,,,1,,,,,,,,,,,,,,,,,,,,,,,,,,,,,,,,,,,,,,,,,,,,,,68,151876,21,Female,1,2024/02/20_08:11:35,YZ,None,
,,,,,,calibration,0,12,2,2583,1,F,0,right,0.328616888000397,1,0,,,,,,,,,,,,,,,,,,,,,1,,,,,,,,,,,,,,,,,,,,,,,,,,,,,,,,,,,,,,,,,,,,,,68,151876,21,Female,1,2024/02/20_08:11:35,YZ,None,
,,,,,,calibration,0,12,2,2583,2,F,0,right,0.4251116550003644,1,0,,,,,,,,,,,,,,,,,,,,,1,,,,,,,,,,,,,,,,,,,,,,,,,,,,,,,,,,,,,,,,,,,,,,68,151876,21,Female,1,2024/02/20_08:11:35,YZ,None,
,,,,,,calibration,0,12,2,2583,3,C,0,right,0.3414575889983098,1,0,,,,,,,,,,,,,,,,,,,,,1,,,,,,,,,,,,,,,,,,,,,,,,,,,,,,,,,,,,,,,,,,,,,,68,151876,21,Female,1,2024/02/20_08:11:35,YZ,None,
,,,,,,calibration,0,12,2,2583,4,F,1,right,0.29663066099601565,0,0,,,,,,,,,,,,,,,,,,,,,1,,,,,,,,,,,,,,,,,,,,,,,,,,,,,,,,,,,,,,,,,,,,,,68,151876,21,Female,1,2024/02/20_08:11:35,YZ,None,
,,,,,,calibration,0,12,2,2583,5,C,1,right,0.4369252070027869,0,0,,,,,,,,,,,,,,,,,,,,,1,,,,,,,,,,,,,,,,,,,,,,,,,,,,,,,,,,,,,,,,,,,,,,68,151876,21,Female,1,2024/02/20_08:11:35,YZ,None,
,,,,,,calibration,0,12,2,2583,6,V,0,right,0.42436727700260235,1,0,,,,,,,,,,,,,,,,,,,,,1,,,,,,,,,,,,,,,,,,,,,,,,,,,,,,,,,,,,,,,,,,,,,,68,151876,21,Female,1,2024/02/20_08:11:35,YZ,None,
,,,,,,calibration,0,12,2,2583,,,,,,,,0.5,0.0,0.0,1.0,0.0,1.0,0.3755182128334127,0,0,0,0,0,4,4,2,4,0,,,,1,,,,,,,,,,,,,,,,,,,,,,,,,,,,,,,,,,,,,,,,,,,,,,68,151876,21,Female,1,2024/02/20_08:11:35,YZ,None,
,,,,,,Calibration,0,,2,2583,,,,,,,,,,,,,,,,,,,,,,,,,16,,,1,,,,,,,,,,,,,,,,,,,,,,,,,,,,,,,,,,,,,,,,,,,,,,68,151876,21,Female,1,2024/02/20_08:11:35,YZ,None,
,,,,,,calibration,0,23,2,2583,1,X,0,None,nan,0,1,,,,,,,,,,,,,,,,,,,,,1,,,,,,,,,,,,,,,,,,,,,,,,,,,,,,,,,,,,,,,,,,,,,,68,151876,21,Female,1,2024/02/20_08:11:35,YZ,None,
,,,,,,calibration,0,23,2,2583,2,C,0,left,0.46296315499785123,0,0,,,,,,,,,,,,,,,,,,,,,1,,,,,,,,,,,,,,,,,,,,,,,,,,,,,,,,,,,,,,,,,,,,,,68,151876,21,Female,1,2024/02/20_08:11:35,YZ,None,
,,,,,,calibration,0,23,2,2583,3,X,1,right,0.7289166470000055,0,0,,,,,,,,,,,,,,,,,,,,,1,,,,,,,,,,,,,,,,,,,,,,,,,,,,,,,,,,,,,,,,,,,,,,68,151876,21,Female,1,2024/02/20_08:11:35,YZ,None,
,,,,,,calibration,0,23,2,2583,4,C,1,left,0.8593545539988554,1,0,,,,,,,,,,,,,,,,,,,,,1,,,,,,,,,,,,,,,,,,,,,,,,,,,,,,,,,,,,,,,,,,,,,,68,151876,21,Female,1,2024/02/20_08:11:35,YZ,None,
,,,,,,calibration,0,23,2,2583,5,S,0,right,0.4445151129984879,1,0,,,,,,,,,,,,,,,,,,,,,1,,,,,,,,,,,,,,,,,,,,,,,,,,,,,,,,,,,,,,,,,,,,,,68,151876,21,Female,1,2024/02/20_08:11:35,YZ,None,
,,,,,,calibration,0,23,2,2583,6,J,0,left,0.4006271340040257,0,0,,,,,,,,,,,,,,,,,,,,,1,,,,,,,,,,,,,,,,,,,,,,,,,,,,,,,,,,,,,,,,,,,,,,68,151876,21,Female,1,2024/02/20_08:11:35,YZ,None,
,,,,,,calibration,0,23,2,2583,,,,,,,,0.5,0.5,0.5,0.3333333333333333,0.16666666666666666,0.33333333333333337,0.5792753205998451,1,2,0,1,1,1,2,2,4,0,,,,1,,,,,,,,,,,,,,,,,,,,,,,,,,,,,,,,,,,,,,,,,,,,,,68,151876,21,Female,1,2024/02/20_08:11:35,YZ,None,
,,,,,,Calibration,0,,2,2583,,,,,,,,,,,,,,,,,,,,,,,,,17,,,1,,,,,,,,,,,,,,,,,,,,,,,,,,,,,,,,,,,,,,,,,,,,,,68,151876,21,Female,1,2024/02/20_08:11:35,YZ,None,
,,,,,,calibration,0,34,2,2583,1,F,0,left,3.269082242004515,0,0,,,,,,,,,,,,,,,,,,,,,1,,,,,,,,,,,,,,,,,,,,,,,,,,,,,,,,,,,,,,,,,,,,,,68,151876,21,Female,1,2024/02/20_08:11:35,YZ,None,
,,,,,,calibration,0,34,2,2583,2,J,0,left,0.7492222560031223,0,0,,,,,,,,,,,,,,,,,,,,,1,,,,,,,,,,,,,,,,,,,,,,,,,,,,,,,,,,,,,,,,,,,,,,68,151876,21,Female,1,2024/02/20_08:11:35,YZ,None,
,,,,,,calibration,0,34,2,2583,3,C,0,right,0.43914111299818614,1,0,,,,,,,,,,,,,,,,,,,,,1,,,,,,,,,,,,,,,,,,,,,,,,,,,,,,,,,,,,,,,,,,,,,,68,151876,21,Female,1,2024/02/20_08:11:35,YZ,None,
,,,,,,calibration,0,34,2,2583,4,N,0,right,0.3850587689958047,1,0,,,,,,,,,,,,,,,,,,,,,1,,,,,,,,,,,,,,,,,,,,,,,,,,,,,,,,,,,,,,,,,,,,,,68,151876,21,Female,1,2024/02/20_08:11:35,YZ,None,
,,,,,,calibration,0,34,2,2583,5,C,1,right,0.5882087010031682,0,0,,,,,,,,,,,,,,,,,,,,,1,,,,,,,,,,,,,,,,,,,,,,,,,,,,,,,,,,,,,,,,,,,,,,68,151876,21,Female,1,2024/02/20_08:11:35,YZ,None,
,,,,,,calibration,0,34,2,2583,6,N,1,left,0.33317232799890917,1,0,,,,,,,,,,,,,,,,,,,,,1,,,,,,,,,,,,,,,,,,,,,,,,,,,,,,,,,,,,,,,,,,,,,,68,151876,21,Female,1,2024/02/20_08:11:35,YZ,None,
,,,,,,calibration,0,34,2,2583,,,,,,,,0.5,0.5,0.5,0.5,0.0,0.5,0.9606475681672842,1,2,0,0,0,2,3,2,4,0,,,,1,,,,,,,,,,,,,,,,,,,,,,,,,,,,,,,,,,,,,,,,,,,,,,68,151876,21,Female,1,2024/02/20_08:11:35,YZ,None,
,,,,,,Calibration,0,,2,2583,,,,,,,,,,,,,,,,,,,,,,,,,18,,,1,,,,,,,,,,,,,,,,,,,,,,,,,,,,,,,,,,,,,,,,,,,,,,68,151876,21,Female,1,2024/02/20_08:11:35,YZ,None,
,,,,,,calibration,0,6,2,2583,1,N,0,left,1.1757232149975607,0,0,,,,,,,,,,,,,,,,,,,,,1,,,,,,,,,,,,,,,,,,,,,,,,,,,,,,,,,,,,,,,,,,,,,,68,151876,21,Female,1,2024/02/20_08:11:35,YZ,None,
,,,,,,calibration,0,6,2,2583,2,J,0,left,0.4350688699996681,0,0,,,,,,,,,,,,,,,,,,,,,1,,,,,,,,,,,,,,,,,,,,,,,,,,,,,,,,,,,,,,,,,,,,,,68,151876,21,Female,1,2024/02/20_08:11:35,YZ,None,
,,,,,,calibration,0,6,2,2583,3,N,1,right,0.17584370099939406,0,0,,,,,,,,,,,,,,,,,,,,,1,,,,,,,,,,,,,,,,,,,,,,,,,,,,,,,,,,,,,,,,,,,,,,68,151876,21,Female,1,2024/02/20_08:11:35,YZ,None,
,,,,,,calibration,0,6,2,2583,4,C,0,right,0.3060143870025058,1,0,,,,,,,,,,,,,,,,,,,,,1,,,,,,,,,,,,,,,,,,,,,,,,,,,,,,,,,,,,,,,,,,,,,,68,151876,21,Female,1,2024/02/20_08:11:35,YZ,None,
,,,,,,calibration,0,6,2,2583,5,F,0,left,0.0,0,0,,,,,,,,,,,,,,,,,,,,,1,,,,,,,,,,,,,,,,,,,,,,,,,,,,,,,,,,,,,,,,,,,,,,68,151876,21,Female,1,2024/02/20_08:11:35,YZ,None,
,,,,,,calibration,0,6,2,2583,6,C,1,right,0.1003687219999847,0,0,,,,,,,,,,,,,,,,,,,,,1,,,,,,,,,,,,,,,,,,,,,,,,,,,,,,,,,,,,,,,,,,,,,,68,151876,21,Female,1,2024/02/20_08:11:35,YZ,None,
,,,,,,calibration,0,6,2,2583,,,,,,,,0.0625,0.0,0.75,0.25,0.0,0.25,0.3655031491665189,0,3,0,0,0,1,1,2,4,0,,,,1,,,,,,,,,,,,,,,,,,,,,,,,,,,,,,,,,,,,,,,,,,,,,,68,151876,21,Female,1,2024/02/20_08:11:35,YZ,None,
,,,,,,Calibration,0,,2,2583,,,,,,,,,,,,,,,,,,,,,,,,,19,,,1,,,,,,,,,,,,,,,,,,,,,,,,,,,,,,,,,,,,,,,,,,,,,,68,151876,21,Female,1,2024/02/20_08:11:35,YZ,None,
,,,,,,calibration,0,26,2,2583,1,J,0,left,0.40916917999857105,0,0,,,,,,,,,,,,,,,,,,,,,1,,,,,,,,,,,,,,,,,,,,,,,,,,,,,,,,,,,,,,,,,,,,,,68,151876,21,Female,1,2024/02/20_08:11:35,YZ,None,
,,,,,,calibration,0,26,2,2583,2,Q,0,left,0.4324334239936434,0,0,,,,,,,,,,,,,,,,,,,,,1,,,,,,,,,,,,,,,,,,,,,,,,,,,,,,,,,,,,,,,,,,,,,,68,151876,21,Female,1,2024/02/20_08:11:35,YZ,None,
,,,,,,calibration,0,26,2,2583,3,F,0,right,0.27640756600158056,1,0,,,,,,,,,,,,,,,,,,,,,1,,,,,,,,,,,,,,,,,,,,,,,,,,,,,,,,,,,,,,,,,,,,,,68,151876,21,Female,1,2024/02/20_08:11:35,YZ,None,
,,,,,,calibration,0,26,2,2583,4,Q,1,left,0.7244498770014616,1,0,,,,,,,,,,,,,,,,,,,,,1,,,,,,,,,,,,,,,,,,,,,,,,,,,,,,,,,,,,,,,,,,,,,,68,151876,21,Female,1,2024/02/20_08:11:35,YZ,None,
,,,,,,calibration,0,26,2,2583,5,F,1,left,0.12766632700368064,1,0,,,,,,,,,,,,,,,,,,,,,1,,,,,,,,,,,,,,,,,,,,,,,,,,,,,,,,,,,,,,,,,,,,,,68,151876,21,Female,1,2024/02/20_08:11:35,YZ,None,
,,,,,,calibration,0,26,2,2583,6,V,0,right,0.0,1,0,,,,,,,,,,,,,,,,,,,,,1,,,,,,,,,,,,,,,,,,,,,,,,,,,,,,,,,,,,,,,,,,,,,,68,151876,21,Female,1,2024/02/20_08:11:35,YZ,None,
,,,,,,calibration,0,26,2,2583,,,,,,,,0.875,1.0,0.5,0.5,0.0,0.5,0.32835439566648955,2,2,0,0,0,2,4,2,4,0,,,,1,,,,,,,,,,,,,,,,,,,,,,,,,,,,,,,,,,,,,,,,,,,,,,68,151876,21,Female,1,2024/02/20_08:11:35,YZ,None,
,,,,,,Calibration,0,,2,2583,,,,,,,,,,,,,,,,,,,,,,,,,20,,,1,,,,,,,,,,,,,,,,,,,,,,,,,,,,,,,,,,,,,,,,,,,,,,68,151876,21,Female,1,2024/02/20_08:11:35,YZ,None,
,,,,,,CALIBRATION,0,,,,,,,,,,,,,,,,,,,,,,,,,,,,20,0.875,2583,1,,,,,,,,,,,,,,,,,,,,,,,,,,,,,,,,,,,,,,,,,,,,,,68,151876,21,Female,1,2024/02/20_08:11:35,YZ,None,
1,./instructions/inst_prac_1/Slide24.png,right,15.990044806996593,471.5284953260052,487.5185401330018,,,,,,,,,,,,,,,,,,,,,,,,,,,,,,,,,1,,,,,,,,,,,,,,,,,,,,,,,,,,,,,,,,,,,,,,,,,,,,,,68,151876,21,Female,1,2024/02/20_08:11:35,YZ,None,
2,./instructions/inst_prac_1/Slide25.png,right,3.617752270998608,487.58104225400166,491.19879452500027,,,,,,,,,,,,,,,,,,,,,,,,,,,,,,,,,1,,,,,,,,,,,,,,,,,,,,,,,,,,,,,,,,,,,,,,,,,,,,,,68,151876,21,Female,1,2024/02/20_08:11:35,YZ,None,
3,./instructions/inst_prac_1/Slide26.png,right,1.6027135190015542,491.2278906319989,492.83060415100044,,,,,,,,,,,,,,,,,,,,,,,,,,,,,,,,,1,,,,,,,,,,,,,,,,,,,,,,,,,,,,,,,,,,,,,,,,,,,,,,68,151876,21,Female,1,2024/02/20_08:11:35,YZ,None,
4,./instructions/inst_prac_1/Slide27.png,right,0.7870167120054248,492.85960891599825,493.6466256280037,,,,,,,,,,,,,,,,,,,,,,,,,,,,,,,,,1,,,,,,,,,,,,,,,,,,,,,,,,,,,,,,,,,,,,,,,,,,,,,,68,151876,21,Female,1,2024/02/20_08:11:35,YZ,None,
5,./instructions/inst_prac_1/Slide28.png,right,0.8589022890009801,493.675662196998,494.534564485999,,,,,,,,,,,,,,,,,,,,,,,,,,,,,,,,,1,,,,,,,,,,,,,,,,,,,,,,,,,,,,,,,,,,,,,,,,,,,,,,68,151876,21,Female,1,2024/02/20_08:11:35,YZ,None,
6,./instructions/inst_prac_1/Slide29.png,right,2.866683236999961,494.5638779709989,497.43056120799884,,,,,,,,,,,,,,,,,,,,,,,,,,,,,,,,,1,,,,,,,,,,,,,,,,,,,,,,,,,,,,,,,,,,,,,,,,,,,,,,68,151876,21,Female,1,2024/02/20_08:11:35,YZ,None,
7,./instructions/inst_prac_1/Slide30.png,right,7.898115490002965,497.4603649560013,505.35848044600425,,,,,,,,,,,,,,,,,,,,,,,,,,,,,,,,,1,,,,,,,,,,,,,,,,,,,,,,,,,,,,,,,,,,,,,,,,,,,,,,68,151876,21,Female,1,2024/02/20_08:11:35,YZ,None,
,,,,,,practice,0,13,1,1250,1,S,0,right,7.7236703090020455,1,0,,,,,,,,,,,,,,,,,,,,,1,,,,,,,,,,,,,,,,,,,,,,,,,,,,,,,,,,,,,,,,,,,,,,68,151876,21,Female,1,2024/02/20_08:11:35,YZ,None,
,,,,,,practice,0,13,1,1250,2,S,1,left,2.5503870499960613,1,0,,,,,,,,,,,,,,,,,,,,,1,,,,,,,,,,,,,,,,,,,,,,,,,,,,,,,,,,,,,,,,,,,,,,68,151876,21,Female,1,2024/02/20_08:11:35,YZ,None,
,,,,,,practice,0,13,1,1250,3,F,0,right,1.1782932159985648,1,0,,,,,,,,,,,,,,,,,,,,,1,,,,,,,,,,,,,,,,,,,,,,,,,,,,,,,,,,,,,,,,,,,,,,68,151876,21,Female,1,2024/02/20_08:11:35,YZ,None,
,,,,,,practice,0,13,1,1250,4,J,0,right,3.937299115001224,1,0,,,,,,,,,,,,,,,,,,,,,1,,,,,,,,,,,,,,,,,,,,,,,,,,,,,,,,,,,,,,,,,,,,,,68,151876,21,Female,1,2024/02/20_08:11:35,YZ,None,
,,,,,,practice,0,13,1,1250,5,J,1,left,0.6385983080035658,1,0,,,,,,,,,,,,,,,,,,,,,1,,,,,,,,,,,,,,,,,,,,,,,,,,,,,,,,,,,,,,,,,,,,,,68,151876,21,Female,1,2024/02/20_08:11:35,YZ,None,
,,,,,,practice,0,13,1,1250,6,S,0,right,0.7292643370019505,1,0,,,,,,,,,,,,,,,,,,,,,1,,,,,,,,,,,,,,,,,,,,,,,,,,,,,,,,,,,,,,,,,,,,,,68,151876,21,Female,1,2024/02/20_08:11:35,YZ,None,
,,,,,,practice,0,13,1,1250,7,Q,0,right,1.749847573999432,1,0,,,,,,,,,,,,,,,,,,,,,1,,,,,,,,,,,,,,,,,,,,,,,,,,,,,,,,,,,,,,,,,,,,,,68,151876,21,Female,1,2024/02/20_08:11:35,YZ,None,
,,,,,,practice,0,13,1,1250,8,N,0,right,0.9761526369984495,1,0,,,,,,,,,,,,,,,,,,,,,1,,,,,,,,,,,,,,,,,,,,,,,,,,,,,,,,,,,,,,,,,,,,,,68,151876,21,Female,1,2024/02/20_08:11:35,YZ,None,
,,,,,,practice,0,13,1,1250,9,N,1,left,0.6864364659995772,1,0,,,,,,,,,,,,,,,,,,,,,1,,,,,,,,,,,,,,,,,,,,,,,,,,,,,,,,,,,,,,,,,,,,,,68,151876,21,Female,1,2024/02/20_08:11:35,YZ,None,
,,,,,,practice,0,13,1,1250,10,V,0,right,0.6613675789994886,1,0,,,,,,,,,,,,,,,,,,,,,1,,,,,,,,,,,,,,,,,,,,,,,,,,,,,,,,,,,,,,,,,,,,,,68,151876,21,Female,1,2024/02/20_08:11:35,YZ,None,
,,,,,,practice,0,13,1,1250,,,,,,,,1.0,1.0,0.0,1.0,0.0,1.0,2.0831316591000357,3,0,0,0,0,7,10,3,7,0,,,,1,,,,,,,,,,,,,,,,,,,,,,,,,,,,,,,,,,,,,,,,,,,,,,68,151876,21,Female,1,2024/02/20_08:11:35,YZ,None,
1,./instructions/inst_prac_1_next/Slide35.png,right,5.881633257005888,536.7329540819992,542.6145873390051,,,,,,,,,,,,,,,,,,,,,,,,,,,,,,,,,1,,,,,,,,,,,,,,,,,,,,,,,,,,,,,,,,,,,,,,,,,,,,,,68,151876,21,Female,1,2024/02/20_08:11:35,YZ,None,
,,,,,,practice,0,4,1,2583,1,Q,0,left,2.240104609998525,0,0,,,,,,,,,,,,,,,,,,,,,1,,,,,,,,,,,,,,,,,,,,,,,,,,,,,,,,,,,,,,,,,,,,,,68,151876,21,Female,1,2024/02/20_08:11:35,YZ,None,
,,,,,,practice,0,4,1,2583,2,Q,1,left,1.0490617219984415,1,0,,,,,,,,,,,,,,,,,,,,,1,,,,,,,,,,,,,,,,,,,,,,,,,,,,,,,,,,,,,,,,,,,,,,68,151876,21,Female,1,2024/02/20_08:11:35,YZ,None,
,,,,,,practice,0,4,1,2583,3,V,0,right,0.6023800999973901,1,0,,,,,,,,,,,,,,,,,,,,,1,,,,,,,,,,,,,,,,,,,,,,,,,,,,,,,,,,,,,,,,,,,,,,68,151876,21,Female,1,2024/02/20_08:11:35,YZ,None,
,,,,,,practice,0,4,1,2583,4,V,1,left,0.6050137409984018,1,0,,,,,,,,,,,,,,,,,,,,,1,,,,,,,,,,,,,,,,,,,,,,,,,,,,,,,,,,,,,,,,,,,,,,68,151876,21,Female,1,2024/02/20_08:11:35,YZ,None,
,,,,,,practice,0,4,1,2583,5,Q,0,right,1.0134371930034831,1,0,,,,,,,,,,,,,,,,,,,,,1,,,,,,,,,,,,,,,,,,,,,,,,,,,,,,,,,,,,,,,,,,,,,,68,151876,21,Female,1,2024/02/20_08:11:35,YZ,None,
,,,,,,practice,0,4,1,2583,6,X,0,left,0.8169602950001718,0,0,,,,,,,,,,,,,,,,,,,,,1,,,,,,,,,,,,,,,,,,,,,,,,,,,,,,,,,,,,,,,,,,,,,,68,151876,21,Female,1,2024/02/20_08:11:35,YZ,None,
,,,,,,practice,0,4,1,2583,,,,,,,,0.875,1.0,0.5,0.5,0.0,0.5,1.0544929434994021,2,2,0,0,0,2,4,2,4,0,,,,1,,,,,,,,,,,,,,,,,,,,,,,,,,,,,,,,,,,,,,,,,,,,,,68,151876,21,Female,1,2024/02/20_08:11:35,YZ,None,
,,,,,,practice,0,6,1,2583,1,C,0,left,2.336534109999775,0,0,,,,,,,,,,,,,,,,,,,,,1,,,,,,,,,,,,,,,,,,,,,,,,,,,,,,,,,,,,,,,,,,,,,,68,151876,21,Female,1,2024/02/20_08:11:35,YZ,None,
,,,,,,practice,0,6,1,2583,2,C,1,right,0.8724327919990174,0,0,,,,,,,,,,,,,,,,,,,,,1,,,,,,,,,,,,,,,,,,,,,,,,,,,,,,,,,,,,,,,,,,,,,,68,151876,21,Female,1,2024/02/20_08:11:35,YZ,None,
,,,,,,practice,0,6,1,2583,3,N,0,left,0.0,0,0,,,,,,,,,,,,,,,,,,,,,1,,,,,,,,,,,,,,,,,,,,,,,,,,,,,,,,,,,,,,,,,,,,,,68,151876,21,Female,1,2024/02/20_08:11:35,YZ,None,
,,,,,,practice,0,6,1,2583,4,N,1,right,0.542482390999794,0,0,,,,,,,,,,,,,,,,,,,,,1,,,,,,,,,,,,,,,,,,,,,,,,,,,,,,,,,,,,,,,,,,,,,,68,151876,21,Female,1,2024/02/20_08:11:35,YZ,None,
,,,,,,practice,0,6,1,2583,5,S,0,right,2.45300457799749,1,0,,,,,,,,,,,,,,,,,,,,,1,,,,,,,,,,,,,,,,,,,,,,,,,,,,,,,,,,,,,,,,,,,,,,68,151876,21,Female,1,2024/02/20_08:11:35,YZ,None,
,,,,,,practice,0,6,1,2583,6,F,0,right,1.4424791650017141,1,0,,,,,,,,,,,,,,,,,,,,,1,,,,,,,,,,,,,,,,,,,,,,,,,,,,,,,,,,,,,,,,,,,,,,68,151876,21,Female,1,2024/02/20_08:11:35,YZ,None,
,,,,,,practice,0,6,1,2583,,,,,,,,0.125,0.0,0.5,0.5,0.0,0.5,1.274488839332965,0,2,0,0,0,2,2,2,4,0,,,,1,,,,,,,,,,,,,,,,,,,,,,,,,,,,,,,,,,,,,,,,,,,,,,68,151876,21,Female,1,2024/02/20_08:11:35,YZ,None,
1,./instructions/inst_redo_1/Slide33.png,right,5.6838158309983555,565.4427460810039,571.1265619120022,,,,,,,,,,,,,,,,,,,,,,,,,,,,,,,,,1,,,,,,,,,,,,,,,,,,,,,,,,,,,,,,,,,,,,,,,,,,,,,,68,151876,21,Female,1,2024/02/20_08:11:35,YZ,None,
,,,,,,practice,0,19,1,2583,1,N,0,right,1.482879385999695,1,0,,,,,,,,,,,,,,,,,,,,,1,,,,,,,,,,,,,,,,,,,,,,,,,,,,,,,,,,,,,,,,,,,,,,68,151876,21,Female,1,2024/02/20_08:11:35,YZ,None,
,,,,,,practice,0,19,1,2583,2,J,0,right,1.1415424309961963,1,0,,,,,,,,,,,,,,,,,,,,,1,,,,,,,,,,,,,,,,,,,,,,,,,,,,,,,,,,,,,,,,,,,,,,68,151876,21,Female,1,2024/02/20_08:11:35,YZ,None,
,,,,,,practice,0,19,1,2583,3,J,1,left,0.556743617002212,1,0,,,,,,,,,,,,,,,,,,,,,1,,,,,,,,,,,,,,,,,,,,,,,,,,,,,,,,,,,,,,,,,,,,,,68,151876,21,Female,1,2024/02/20_08:11:35,YZ,None,
,,,,,,practice,0,19,1,2583,4,C,0,right,1.2135595710060443,1,0,,,,,,,,,,,,,,,,,,,,,1,,,,,,,,,,,,,,,,,,,,,,,,,,,,,,,,,,,,,,,,,,,,,,68,151876,21,Female,1,2024/02/20_08:11:35,YZ,None,
,,,,,,practice,0,19,1,2583,5,Q,0,right,1.2013975930021843,1,0,,,,,,,,,,,,,,,,,,,,,1,,,,,,,,,,,,,,,,,,,,,,,,,,,,,,,,,,,,,,,,,,,,,,68,151876,21,Female,1,2024/02/20_08:11:35,YZ,None,
,,,,,,practice,0,19,1,2583,6,Q,1,left,0.6898605309979757,1,0,,,,,,,,,,,,,,,,,,,,,1,,,,,,,,,,,,,,,,,,,,,,,,,,,,,,,,,,,,,,,,,,,,,,68,151876,21,Female,1,2024/02/20_08:11:35,YZ,None,
,,,,,,practice,0,19,1,2583,,,,,,,,1.0,1.0,0.0,1.0,0.0,1.0,1.0476638548340513,2,0,0,0,0,4,6,2,4,0,,,,1,,,,,,,,,,,,,,,,,,,,,,,,,,,,,,,,,,,,,,,,,,,,,,68,151876,21,Female,1,2024/02/20_08:11:35,YZ,None,
1,./instructions/inst_prac_3/Slide37.png,right,4.1764053239967325,583.1260233380017,587.3024286619984,,,,,,,,,,,,,,,,,,,,,,,,,,,,,,,,,1,,,,,,,,,,,,,,,,,,,,,,,,,,,,,,,,,,,,,,,,,,,,,,68,151876,21,Female,1,2024/02/20_08:11:35,YZ,None,
2,./instructions/inst_prac_3/Slide38.png,right,0.2004322630018578,587.331277725003,587.5317099880049,,,,,,,,,,,,,,,,,,,,,,,,,,,,,,,,,1,,,,,,,,,,,,,,,,,,,,,,,,,,,,,,,,,,,,,,,,,,,,,,68,151876,21,Female,1,2024/02/20_08:11:35,YZ,None,
3,./instructions/inst_prac_3/Slide39.png,right,1.9872714829980396,587.5551669400011,589.5424384229991,,,,,,,,,,,,,,,,,,,,,,,,,,,,,,,,,1,,,,,,,,,,,,,,,,,,,,,,,,,,,,,,,,,,,,,,,,,,,,,,68,151876,21,Female,1,2024/02/20_08:11:35,YZ,None,
4,./instructions/inst_prac_3/Slide40.png,right,1.0439049499982502,589.5706221450018,590.6145270950001,,,,,,,,,,,,,,,,,,,,,,,,,,,,,,,,,1,,,,,,,,,,,,,,,,,,,,,,,,,,,,,,,,,,,,,,,,,,,,,,68,151876,21,Female,1,2024/02/20_08:11:35,YZ,None,
5,./instructions/inst_prac_3/Slide41.png,right,2.8305018989995006,590.6400334740028,593.4705353730023,,,,,,,,,,,,,,,,,,,,,,,,,,,,,,,,,1,,,,,,,,,,,,,,,,,,,,,,,,,,,,,,,,,,,,,,,,,,,,,,68,151876,21,Female,1,2024/02/20_08:11:35,YZ,None,
6,./instructions/inst_prac_3/Slide42.png,right,1.738791242998559,593.4997651630038,595.2385564060023,,,,,,,,,,,,,,,,,,,,,,,,,,,,,,,,,1,,,,,,,,,,,,,,,,,,,,,,,,,,,,,,,,,,,,,,,,,,,,,,68,151876,21,Female,1,2024/02/20_08:11:35,YZ,None,
7,./instructions/inst_prac_3/Slide43.png,right,1.2027117780016852,595.2677726740003,596.470484452002,,,,,,,,,,,,,,,,,,,,,,,,,,,,,,,,,1,,,,,,,,,,,,,,,,,,,,,,,,,,,,,,,,,,,,,,,,,,,,,,68,151876,21,Female,1,2024/02/20_08:11:35,YZ,None,
8,./instructions/inst_prac_3/Slide44.png,right,1.4910714700017706,596.4997433230019,597.9908147930037,,,,,,,,,,,,,,,,,,,,,,,,,,,,,,,,,1,,,,,,,,,,,,,,,,,,,,,,,,,,,,,,,,,,,,,,,,,,,,,,68,151876,21,Female,1,2024/02/20_08:11:35,YZ,None,
,,,,,,practice,0,34,3,788,1,F,0,right,1.482776400000148,1,0,,,,,,,,,,,,,,,,,,,,,1,,,,,,,,,,,,,,,,,,,,,,,,,,,,,,,,,,,,,,,,,,,,,,68,151876,21,Female,1,2024/02/20_08:11:35,YZ,None,
,,,,,,practice,0,34,3,788,2,C,0,right,1.2055764850010746,1,0,,,,,,,,,,,,,,,,,,,,,1,,,,,,,,,,,,,,,,,,,,,,,,,,,,,,,,,,,,,,,,,,,,,,68,151876,21,Female,1,2024/02/20_08:11:35,YZ,None,
,,,,,,practice,0,34,3,788,3,C,0,right,0.35011439400113886,1,0,,,,,,,,,,,,,,,,,,,,,1,,,,,,,,,,,,,,,,,,,,,,,,,,,,,,,,,,,,,,,,,,,,,,68,151876,21,Female,1,2024/02/20_08:11:35,YZ,None,
,,,,,,practice,0,34,3,788,4,F,1,left,3.4503432359997532,1,0,,,,,,,,,,,,,,,,,,,,,1,,,,,,,,,,,,,,,,,,,,,,,,,,,,,,,,,,,,,,,,,,,,,,68,151876,21,Female,1,2024/02/20_08:11:35,YZ,None,
,,,,,,practice,0,34,3,788,5,N,0,right,0.645192092997604,1,0,,,,,,,,,,,,,,,,,,,,,1,,,,,,,,,,,,,,,,,,,,,,,,,,,,,,,,,,,,,,,,,,,,,,68,151876,21,Female,1,2024/02/20_08:11:35,YZ,None,
,,,,,,practice,0,34,3,788,6,N,0,right,0.9619929500040598,1,0,,,,,,,,,,,,,,,,,,,,,1,,,,,,,,,,,,,,,,,,,,,,,,,,,,,,,,,,,,,,,,,,,,,,68,151876,21,Female,1,2024/02/20_08:11:35,YZ,None,
,,,,,,practice,0,34,3,788,7,Q,0,right,0.9011854830023367,1,0,,,,,,,,,,,,,,,,,,,,,1,,,,,,,,,,,,,,,,,,,,,,,,,,,,,,,,,,,,,,,,,,,,,,68,151876,21,Female,1,2024/02/20_08:11:35,YZ,None,
,,,,,,practice,0,34,3,788,8,N,1,left,0.7101185970022925,1,0,,,,,,,,,,,,,,,,,,,,,1,,,,,,,,,,,,,,,,,,,,,,,,,,,,,,,,,,,,,,,,,,,,,,68,151876,21,Female,1,2024/02/20_08:11:35,YZ,None,
,,,,,,practice,0,34,3,788,9,N,1,left,0.7048224480022327,1,0,,,,,,,,,,,,,,,,,,,,,1,,,,,,,,,,,,,,,,,,,,,,,,,,,,,,,,,,,,,,,,,,,,,,68,151876,21,Female,1,2024/02/20_08:11:35,YZ,None,
,,,,,,practice,0,34,3,788,10,C,0,left,0.5770526550040813,0,0,,,,,,,,,,,,,,,,,,,,,1,,,,,,,,,,,,,,,,,,,,,,,,,,,,,,,,,,,,,,,,,,,,,,68,151876,21,Female,1,2024/02/20_08:11:35,YZ,None,
,,,,,,practice,0,34,3,788,11,V,0,right,1.9277591749996645,1,0,,,,,,,,,,,,,,,,,,,,,1,,,,,,,,,,,,,,,,,,,,,,,,,,,,,,,,,,,,,,,,,,,,,,68,151876,21,Female,1,2024/02/20_08:11:35,YZ,None,
,,,,,,practice,0,34,3,788,12,N,1,left,1.5087099070005934,1,0,,,,,,,,,,,,,,,,,,,,,1,,,,,,,,,,,,,,,,,,,,,,,,,,,,,,,,,,,,,,,,,,,,,,68,151876,21,Female,1,2024/02/20_08:11:35,YZ,None,
,,,,,,practice,0,34,3,788,13,X,0,right,1.0651641160002328,1,0,,,,,,,,,,,,,,,,,,,,,1,,,,,,,,,,,,,,,,,,,,,,,,,,,,,,,,,,,,,,,,,,,,,,68,151876,21,Female,1,2024/02/20_08:11:35,YZ,None,
,,,,,,practice,0,34,3,788,,,,,,,,0.9722222222222222,1.0,0.1111111111111111,0.8888888888888888,0.0,0.8888888888888888,1.1916006106934778,4,1,0,0,0,8,12,4,9,0,,,,1,,,,,,,,,,,,,,,,,,,,,,,,,,,,,,,,,,,,,,,,,,,,,,68,151876,21,Female,1,2024/02/20_08:11:35,YZ,None,
1,./instructions/inst_prac_3_next/Slide49.png,right,0.9129353289972642,627.661689903005,628.5746252320023,,,,,,,,,,,,,,,,,,,,,,,,,,,,,,,,,1,,,,,,,,,,,,,,,,,,,,,,,,,,,,,,,,,,,,,,,,,,,,,,68,151876,21,Female,1,2024/02/20_08:11:35,YZ,None,
,,,,,,practice,0,19,3,2583,1,J,0,left,1.0403441460002796,0,0,,,,,,,,,,,,,,,,,,,,,1,,,,,,,,,,,,,,,,,,,,,,,,,,,,,,,,,,,,,,,,,,,,,,68,151876,21,Female,1,2024/02/20_08:11:35,YZ,None,
,,,,,,practice,0,19,3,2583,2,V,0,left,0.20100426900171442,0,0,,,,,,,,,,,,,,,,,,,,,1,,,,,,,,,,,,,,,,,,,,,,,,,,,,,,,,,,,,,,,,,,,,,,68,151876,21,Female,1,2024/02/20_08:11:35,YZ,None,
,,,,,,practice,0,19,3,2583,3,J,0,right,0.5461318570014555,1,0,,,,,,,,,,,,,,,,,,,,,1,,,,,,,,,,,,,,,,,,,,,,,,,,,,,,,,,,,,,,,,,,,,,,68,151876,21,Female,1,2024/02/20_08:11:35,YZ,None,
,,,,,,practice,0,19,3,2583,4,J,1,right,0.45327887299936265,0,0,,,,,,,,,,,,,,,,,,,,,1,,,,,,,,,,,,,,,,,,,,,,,,,,,,,,,,,,,,,,,,,,,,,,68,151876,21,Female,1,2024/02/20_08:11:35,YZ,None,
,,,,,,practice,0,19,3,2583,5,N,0,right,0.6448495930017089,1,0,,,,,,,,,,,,,,,,,,,,,1,,,,,,,,,,,,,,,,,,,,,,,,,,,,,,,,,,,,,,,,,,,,,,68,151876,21,Female,1,2024/02/20_08:11:35,YZ,None,
,,,,,,practice,0,19,3,2583,6,J,1,left,0.5011548380061868,1,0,,,,,,,,,,,,,,,,,,,,,1,,,,,,,,,,,,,,,,,,,,,,,,,,,,,,,,,,,,,,,,,,,,,,68,151876,21,Female,1,2024/02/20_08:11:35,YZ,None,
,,,,,,practice,0,19,3,2583,,,,,,,,0.5,0.5,0.5,0.5,0.0,0.5,0.5644605960017847,1,2,0,0,0,2,3,2,4,0,,,,1,,,,,,,,,,,,,,,,,,,,,,,,,,,,,,,,,,,,,,,,,,,,,,68,151876,21,Female,1,2024/02/20_08:11:35,YZ,None,
,,,,,,practice,0,18,3,2583,1,Q,0,right,0.4617115939981886,1,0,,,,,,,,,,,,,,,,,,,,,1,,,,,,,,,,,,,,,,,,,,,,,,,,,,,,,,,,,,,,,,,,,,,,68,151876,21,Female,1,2024/02/20_08:11:35,YZ,None,
,,,,,,practice,0,18,3,2583,2,V,0,right,0.285145221001585,1,0,,,,,,,,,,,,,,,,,,,,,1,,,,,,,,,,,,,,,,,,,,,,,,,,,,,,,,,,,,,,,,,,,,,,68,151876,21,Female,1,2024/02/20_08:11:35,YZ,None,
,,,,,,practice,0,18,3,2583,3,N,0,right,0.6481535790007911,1,0,,,,,,,,,,,,,,,,,,,,,1,,,,,,,,,,,,,,,,,,,,,,,,,,,,,,,,,,,,,,,,,,,,,,68,151876,21,Female,1,2024/02/20_08:11:35,YZ,None,
,,,,,,practice,0,18,3,2583,4,Q,1,left,0.33309865599585464,1,0,,,,,,,,,,,,,,,,,,,,,1,,,,,,,,,,,,,,,,,,,,,,,,,,,,,,,,,,,,,,,,,,,,,,68,151876,21,Female,1,2024/02/20_08:11:35,YZ,None,
,,,,,,practice,0,18,3,2583,5,V,1,right,0.24012057299842127,0,0,,,,,,,,,,,,,,,,,,,,,1,,,,,,,,,,,,,,,,,,,,,,,,,,,,,,,,,,,,,,,,,,,,,,68,151876,21,Female,1,2024/02/20_08:11:35,YZ,None,
,,,,,,practice,0,18,3,2583,6,J,0,right,0.20115335199807305,1,0,,,,,,,,,,,,,,,,,,,,,1,,,,,,,,,,,,,,,,,,,,,,,,,,,,,,,,,,,,,,,,,,,,,,68,151876,21,Female,1,2024/02/20_08:11:35,YZ,None,
,,,,,,practice,0,18,3,2583,,,,,,,,0.875,0.5,0.0,1.0,0.0,1.0,0.36156382916548563,1,0,0,0,0,4,5,2,4,0,,,,1,,,,,,,,,,,,,,,,,,,,,,,,,,,,,,,,,,,,,,,,,,,,,,68,151876,21,Female,1,2024/02/20_08:11:35,YZ,None,
1,./instructions/inst_prac_main/Slide51.png,right,1.8509841910054092,644.523727546999,646.3747117380044,,,,,,,,,,,,,,,,,,,,,,,,,,,,,,,,,1,,,,,,,,,,,,,,,,,,,,,,,,,,,,,,,,,,,,,,,,,,,,,,68,151876,21,Female,1,2024/02/20_08:11:35,YZ,None,
2,./instructions/inst_prac_main/Slide52.png,right,43.07460623199586,646.4118554610031,689.486461692999,,,,,,,,,,,,,,,,,,,,,,,,,,,,,,,,,1,,,,,,,,,,,,,,,,,,,,,,,,,,,,,,,,,,,,,,,,,,,,,,68,151876,21,Female,1,2024/02/20_08:11:35,YZ,None,
3,./instructions/inst_prac_main/Slide53.png,right,12.579635196998424,689.5388706500016,702.118505847,,,,,,,,,,,,,,,,,,,,,,,,,,,,,,,,,1,,,,,,,,,,,,,,,,,,,,,,,,,,,,,,,,,,,,,,,,,,,,,,68,151876,21,Female,1,2024/02/20_08:11:35,YZ,None,
4,./instructions/inst_prac_main/Slide54.png,right,8.666544243998942,702.1480599999995,710.8146042439985,,,,,,,,,,,,,,,,,,,,,,,,,,,,,,,,,1,,,,,,,,,,,,,,,,,,,,,,,,,,,,,,,,,,,,,,,,,,,,,,68,151876,21,Female,1,2024/02/20_08:11:35,YZ,None,
,,,,,,practice_main,0,1,1,2583,1,C,0,left,0.7086472800001502,0,0,,,,,,,,,,,,,,,,,,,,,1,,,,,,,,,,,,,,,,,,,,,,,,,,,,,,,,,,,,,,,,,,,,,,68,151876,21,Female,1,2024/02/20_08:11:35,YZ,None,
,,,,,,practice_main,0,1,1,2583,2,C,1,left,0.36827304500184255,1,0,,,,,,,,,,,,,,,,,,,,,1,,,,,,,,,,,,,,,,,,,,,,,,,,,,,,,,,,,,,,,,,,,,,,68,151876,21,Female,1,2024/02/20_08:11:35,YZ,None,
,,,,,,practice_main,0,1,1,2583,3,F,0,left,1.0745135070028482,0,0,,,,,,,,,,,,,,,,,,,,,1,,,,,,,,,,,,,,,,,,,,,,,,,,,,,,,,,,,,,,,,,,,,,,68,151876,21,Female,1,2024/02/20_08:11:35,YZ,None,
,,,,,,practice_main,0,1,1,2583,4,C,0,left,0.6244746739976108,0,0,,,,,,,,,,,,,,,,,,,,,1,,,,,,,,,,,,,,,,,,,,,,,,,,,,,,,,,,,,,,,,,,,,,,68,151876,21,Female,1,2024/02/20_08:11:35,YZ,None,
,,,,,,practice_main,0,1,1,2583,5,S,0,left,0.42690089799725683,0,0,,,,,,,,,,,,,,,,,,,,,1,,,,,,,,,,,,,,,,,,,,,,,,,,,,,,,,,,,,,,,,,,,,,,68,151876,21,Female,1,2024/02/20_08:11:35,YZ,None,
,,,,,,practice_main,0,1,1,2583,6,S,1,right,0.3053709390005679,0,0,,,,,,,,,,,,,,,,,,,,,1,,,,,,,,,,,,,,,,,,,,,,,,,,,,,,,,,,,,,,,,,,,,,,68,151876,21,Female,1,2024/02/20_08:11:35,YZ,None,
,,,,,,practice_main,0,1,1,2583,,,,,,,,0.125,0.5,1.0,0.0,0.0,0.0,0.5846967238333795,1,4,0,0,0,0,1,2,4,0,,,,1,,,,,,,,,,,,,,,,,,,,,,,,,,,,,,,,,,,,,,,,,,,,,,68,151876,21,Female,1,2024/02/20_08:11:35,YZ,None,
,,,,,240220_090657,PRACTICE,0,1,1,2583,,,,,,,,,,,,,,,,,,,,,,,,,,,,1,3,2,1,cue2.png,easy,B,70,1.164879984993604,0,722.0884843079984,723.2688755749987,,,,,,,,,,,,,,,,,,,,,,,,,,,,,,,,,,,68,151876,21,Female,1,2024/02/20_08:11:35,YZ,None,
,,,,,,practice_main,0,2,1,2583,1,X,0,right,0.3854719680020935,1,0,,,,,,,,,,,,,,,,,,,,,1,,,,,,,,,,,,,,,,,,,,,,,,,,,,,,,,,,,,,,,,,,,,,,68,151876,21,Female,1,2024/02/20_08:11:35,YZ,None,
,,,,,,practice_main,0,2,1,2583,2,X,1,left,0.4483665689986083,1,0,,,,,,,,,,,,,,,,,,,,,1,,,,,,,,,,,,,,,,,,,,,,,,,,,,,,,,,,,,,,,,,,,,,,68,151876,21,Female,1,2024/02/20_08:11:35,YZ,None,
,,,,,,practice_main,0,2,1,2583,3,S,0,right,0.30920720400172286,1,0,,,,,,,,,,,,,,,,,,,,,1,,,,,,,,,,,,,,,,,,,,,,,,,,,,,,,,,,,,,,,,,,,,,,68,151876,21,Female,1,2024/02/20_08:11:35,YZ,None,
,,,,,,practice_main,0,2,1,2583,4,F,0,right,0.3970358250007848,1,0,,,,,,,,,,,,,,,,,,,,,1,,,,,,,,,,,,,,,,,,,,,,,,,,,,,,,,,,,,,,,,,,,,,,68,151876,21,Female,1,2024/02/20_08:11:35,YZ,None,
,,,,,,practice_main,0,2,1,2583,5,X,0,right,0.38908851099404274,1,0,,,,,,,,,,,,,,,,,,,,,1,,,,,,,,,,,,,,,,,,,,,,,,,,,,,,,,,,,,,,,,,,,,,,68,151876,21,Female,1,2024/02/20_08:11:35,YZ,None,
,,,,,,practice_main,0,2,1,2583,6,X,1,left,0.591455544999917,1,0,,,,,,,,,,,,,,,,,,,,,1,,,,,,,,,,,,,,,,,,,,,,,,,,,,,,,,,,,,,,,,,,,,,,68,151876,21,Female,1,2024/02/20_08:11:35,YZ,None,
,,,,,,practice_main,0,2,1,2583,,,,,,,,1.0,1.0,0.0,1.0,0.0,1.0,0.4201042703328615,2,0,0,0,0,4,6,2,4,0,,,,1,,,,,,,,,,,,,,,,,,,,,,,,,,,,,,,,,,,,,,,,,,,,,,68,151876,21,Female,1,2024/02/20_08:11:35,YZ,None,
,,,,,240220_090712,PRACTICE,0,2,1,2583,,,,,,,,,,,,,,,,,,,,,,,,,,,,1,9,3,2,cue2.png,easy,B,51,1.0377750209954684,0,739.0412415930041,740.1069079360022,,,,,,,,,,,,,,,,,,,,,,,,,,,,,,,,,,,68,151876,21,Female,1,2024/02/20_08:11:35,YZ,None,
,,,,,,practice_main,0,3,1,2583,1,Q,0,right,0.7586034799969639,1,0,,,,,,,,,,,,,,,,,,,,,1,,,,,,,,,,,,,,,,,,,,,,,,,,,,,,,,,,,,,,,,,,,,,,68,151876,21,Female,1,2024/02/20_08:11:35,YZ,None,
,,,,,,practice_main,0,3,1,2583,2,F,0,left,0.4991854260006221,0,0,,,,,,,,,,,,,,,,,,,,,1,,,,,,,,,,,,,,,,,,,,,,,,,,,,,,,,,,,,,,,,,,,,,,68,151876,21,Female,1,2024/02/20_08:11:35,YZ,None,
,,,,,,practice_main,0,3,1,2583,3,F,1,left,0.4018805199957569,1,0,,,,,,,,,,,,,,,,,,,,,1,,,,,,,,,,,,,,,,,,,,,,,,,,,,,,,,,,,,,,,,,,,,,,68,151876,21,Female,1,2024/02/20_08:11:35,YZ,None,
,,,,,,practice_main,0,3,1,2583,4,S,0,left,0.4854973249966861,0,0,,,,,,,,,,,,,,,,,,,,,1,,,,,,,,,,,,,,,,,,,,,,,,,,,,,,,,,,,,,,,,,,,,,,68,151876,21,Female,1,2024/02/20_08:11:35,YZ,None,
,,,,,,practice_main,0,3,1,2583,5,S,1,right,0.38477264800167177,0,0,,,,,,,,,,,,,,,,,,,,,1,,,,,,,,,,,,,,,,,,,,,,,,,,,,,,,,,,,,,,,,,,,,,,68,151876,21,Female,1,2024/02/20_08:11:35,YZ,None,
,,,,,,practice_main,0,3,1,2583,6,J,0,left,0.43738359399867477,0,0,,,,,,,,,,,,,,,,,,,,,1,,,,,,,,,,,,,,,,,,,,,,,,,,,,,,,,,,,,,,,,,,,,,,68,151876,21,Female,1,2024/02/20_08:11:35,YZ,None,
,,,,,,practice_main,0,3,1,2583,,,,,,,,0.0625,0.5,0.75,0.25,0.0,0.25,0.4945538321650626,1,3,0,0,0,1,2,2,4,0,,,,1,,,,,,,,,,,,,,,,,,,,,,,,,,,,,,,,,,,,,,,,,,,,,,68,151876,21,Female,1,2024/02/20_08:11:35,YZ,None,
,,,,,240220_090729,PRACTICE,0,3,1,2583,,,,,,,,,,,,,,,,,,,,,,,,,,,,1,37,4,3,cue2.png,easy,B,29,1.224805658996047,0,754.8525629520009,756.105608373,,,,,,,,,,,,,,,,,,,,,,,,,,,,,,,,,,,68,151876,21,Female,1,2024/02/20_08:11:35,YZ,None,
1,./instructions/inst_prac_end/Slide56.png,right,21.412218053999823,769.8662493849988,791.2784674389986,,,,,,,,,,,,,,,,,,,,,,,,,,,,,,,,,1,,,,,,,,,,,,,,,,,,,,,,,,,,,,,,,,,,,,,,,,,,,,,,68,151876,21,Female,1,2024/02/20_08:11:35,YZ,None,
1,./instructions/inst_test/Slide57.png,right,65.36113268200279,791.3493322860013,856.7104649680041,,,,,,,,,,,,,,,,,,,,,,,,,,,,,,,,,1,,,,,,,,,,,,,,,,,,,,,,,,,,,,,,,,,,,,,,,,,,,,,,68,151876,21,Female,1,2024/02/20_08:11:35,YZ,None,
,,,,,,test,1,1,1,2583,1,C,0,right,0.6663016579987016,1,0,,,,,,,,,,,,,,,,,,,,,1,,,,,,,,,,,,,,,,,,,,,,,,,,,,,,,,,,,,,,,,,,,,,,68,151876,21,Female,1,2024/02/20_08:11:35,YZ,None,
,,,,,,test,1,1,1,2583,2,S,0,right,0.395377113003633,1,0,,,,,,,,,,,,,,,,,,,,,1,,,,,,,,,,,,,,,,,,,,,,,,,,,,,,,,,,,,,,,,,,,,,,68,151876,21,Female,1,2024/02/20_08:11:35,YZ,None,
,,,,,,test,1,1,1,2583,3,F,0,right,0.4172297080003773,1,0,,,,,,,,,,,,,,,,,,,,,1,,,,,,,,,,,,,,,,,,,,,,,,,,,,,,,,,,,,,,,,,,,,,,68,151876,21,Female,1,2024/02/20_08:11:35,YZ,None,
,,,,,,test,1,1,1,2583,4,F,1,left,0.5008586309995735,1,0,,,,,,,,,,,,,,,,,,,,,1,,,,,,,,,,,,,,,,,,,,,,,,,,,,,,,,,,,,,,,,,,,,,,68,151876,21,Female,1,2024/02/20_08:11:35,YZ,None,
,,,,,,test,1,1,1,2583,5,Q,0,right,0.4095510530023603,1,0,,,,,,,,,,,,,,,,,,,,,1,,,,,,,,,,,,,,,,,,,,,,,,,,,,,,,,,,,,,,,,,,,,,,68,151876,21,Female,1,2024/02/20_08:11:35,YZ,None,
,,,,,,test,1,1,1,2583,6,Q,1,left,0.4289103119954234,1,0,,,,,,,,,,,,,,,,,,,,,1,,,,,,,,,,,,,,,,,,,,,,,,,,,,,,,,,,,,,,,,,,,,,,68,151876,21,Female,1,2024/02/20_08:11:35,YZ,None,
,,,,,,Test,1,1,1,2583,,,,,,,,1.0,1.0,0.0,1.0,0.0,1.0,0.4697047458333448,2,0,0,0,0,4,6,2,4,0,,,,1,,,,,,,,,,,,,,,,,,,,,,,,,,,,,,,,,,,,,,,,,,,,,,68,151876,21,Female,1,2024/02/20_08:11:35,YZ,None,
,,,,,240220_090916,TEST,1,1,1,2583,,,,,,,,,,,,,,,,,,,,,,,,,,,,1,1,1,1,cue2.png,easy,B,41,1.6019733180000912,0,861.7794477110001,863.3972532100015,,,,,,,,,,,,,,,,,,,,,,,,,,,,,,,,,,,68,151876,21,Female,1,2024/02/20_08:11:35,YZ,None,
,,,,,,test,1,2,3,2583,1,C,0,right,0.3387425950058969,1,0,,,,,,,,,,,,,,,,,,,,,1,,,,,,,,,,,,,,,,,,,,,,,,,,,,,,,,,,,,,,,,,,,,,,68,151876,21,Female,1,2024/02/20_08:11:35,YZ,None,
,,,,,,test,1,2,3,2583,2,S,0,right,0.32188240499817766,1,0,,,,,,,,,,,,,,,,,,,,,1,,,,,,,,,,,,,,,,,,,,,,,,,,,,,,,,,,,,,,,,,,,,,,68,151876,21,Female,1,2024/02/20_08:11:35,YZ,None,
,,,,,,test,1,2,3,2583,3,V,0,right,0.37810123700182885,1,0,,,,,,,,,,,,,,,,,,,,,1,,,,,,,,,,,,,,,,,,,,,,,,,,,,,,,,,,,,,,,,,,,,,,68,151876,21,Female,1,2024/02/20_08:11:35,YZ,None,
,,,,,,test,1,2,3,2583,4,C,1,left,0.3132596540017403,1,0,,,,,,,,,,,,,,,,,,,,,1,,,,,,,,,,,,,,,,,,,,,,,,,,,,,,,,,,,,,,,,,,,,,,68,151876,21,Female,1,2024/02/20_08:11:35,YZ,None,
,,,,,,test,1,2,3,2583,5,S,1,right,0.3213954630045919,0,0,,,,,,,,,,,,,,,,,,,,,1,,,,,,,,,,,,,,,,,,,,,,,,,,,,,,,,,,,,,,,,,,,,,,68,151876,21,Female,1,2024/02/20_08:11:35,YZ,None,
,,,,,,test,1,2,3,2583,6,X,0,right,0.3836293989952537,1,0,,,,,,,,,,,,,,,,,,,,,1,,,,,,,,,,,,,,,,,,,,,,,,,,,,,,,,,,,,,,,,,,,,,,68,151876,21,Female,1,2024/02/20_08:11:35,YZ,None,
,,,,,,Test,1,2,3,2583,,,,,,,,0.875,0.5,0.0,1.0,0.0,1.0,0.34283512550124823,1,0,0,0,0,4,5,2,4,0,,,,1,,,,,,,,,,,,,,,,,,,,,,,,,,,,,,,,,,,,,,,,,,,,,,68,151876,21,Female,1,2024/02/20_08:11:35,YZ,None,
,,,,,240220_090932,TEST,1,2,3,2583,,,,,,,,,,,,,,,,,,,,,,,,,,,,1,2,2,2,cue1.png,hard,B,86,1.4246279889994184,0,878.5410831230038,879.9942033100015,,,,,,,,,,,,,,,,,,,,,,,,,,,,,,,,,,,68,151876,21,Female,1,2024/02/20_08:11:35,YZ,None,
,,,,,,test,1,3,3,2583,1,F,0,right,0.28966757799935294,1,0,,,,,,,,,,,,,,,,,,,,,1,,,,,,,,,,,,,,,,,,,,,,,,,,,,,,,,,,,,,,,,,,,,,,68,151876,21,Female,1,2024/02/20_08:11:35,YZ,None,
,,,,,,test,1,3,3,2583,2,F,0,right,0.21141997299855575,1,0,,,,,,,,,,,,,,,,,,,,,1,,,,,,,,,,,,,,,,,,,,,,,,,,,,,,,,,,,,,,,,,,,,,,68,151876,21,Female,1,2024/02/20_08:11:35,YZ,None,
,,,,,,test,1,3,3,2583,3,X,0,right,0.47432748800201807,1,0,,,,,,,,,,,,,,,,,,,,,1,,,,,,,,,,,,,,,,,,,,,,,,,,,,,,,,,,,,,,,,,,,,,,68,151876,21,Female,1,2024/02/20_08:11:35,YZ,None,
,,,,,,test,1,3,3,2583,4,F,1,left,0.28304114600177854,1,0,,,,,,,,,,,,,,,,,,,,,1,,,,,,,,,,,,,,,,,,,,,,,,,,,,,,,,,,,,,,,,,,,,,,68,151876,21,Female,1,2024/02/20_08:11:35,YZ,None,
,,,,,,test,1,3,3,2583,5,S,0,right,0.6253761100015254,1,0,,,,,,,,,,,,,,,,,,,,,1,,,,,,,,,,,,,,,,,,,,,,,,,,,,,,,,,,,,,,,,,,,,,,68,151876,21,Female,1,2024/02/20_08:11:35,YZ,None,
,,,,,,test,1,3,3,2583,6,X,1,left,0.606549971998902,1,0,,,,,,,,,,,,,,,,,,,,,1,,,,,,,,,,,,,,,,,,,,,,,,,,,,,,,,,,,,,,,,,,,,,,68,151876,21,Female,1,2024/02/20_08:11:35,YZ,None,
,,,,,,Test,1,3,3,2583,,,,,,,,1.0,1.0,0.0,1.0,0.0,1.0,0.4150637111670221,2,0,0,0,0,4,6,2,4,0,,,,1,,,,,,,,,,,,,,,,,,,,,,,,,,,,,,,,,,,,,,,,,,,,,,68,151876,21,Female,1,2024/02/20_08:11:35,YZ,None,
,,,,,240220_090947,TEST,1,3,3,2583,,,,,,,,,,,,,,,,,,,,,,,,,,,,1,3,3,3,cue1.png,hard,B,66,0.9289003570011118,0,894.2979339439989,895.238055519003,,,,,,,,,,,,,,,,,,,,,,,,,,,,,,,,,,,68,151876,21,Female,1,2024/02/20_08:11:35,YZ,None,
,,,,,,test,1,4,3,2583,1,N,0,right,0.6426313479969394,1,0,,,,,,,,,,,,,,,,,,,,,1,,,,,,,,,,,,,,,,,,,,,,,,,,,,,,,,,,,,,,,,,,,,,,68,151876,21,Female,1,2024/02/20_08:11:35,YZ,None,
,,,,,,test,1,4,3,2583,2,F,0,right,0.302298153997981,1,0,,,,,,,,,,,,,,,,,,,,,1,,,,,,,,,,,,,,,,,,,,,,,,,,,,,,,,,,,,,,,,,,,,,,68,151876,21,Female,1,2024/02/20_08:11:35,YZ,None,
,,,,,,test,1,4,3,2583,3,S,0,right,0.3216752890002681,1,0,,,,,,,,,,,,,,,,,,,,,1,,,,,,,,,,,,,,,,,,,,,,,,,,,,,,,,,,,,,,,,,,,,,,68,151876,21,Female,1,2024/02/20_08:11:35,YZ,None,
,,,,,,test,1,4,3,2583,4,N,1,left,0.29733179100003326,1,0,,,,,,,,,,,,,,,,,,,,,1,,,,,,,,,,,,,,,,,,,,,,,,,,,,,,,,,,,,,,,,,,,,,,68,151876,21,Female,1,2024/02/20_08:11:35,YZ,None,
,,,,,,test,1,4,3,2583,5,F,1,right,0.7980013920023339,0,0,,,,,,,,,,,,,,,,,,,,,1,,,,,,,,,,,,,,,,,,,,,,,,,,,,,,,,,,,,,,,,,,,,,,68,151876,21,Female,1,2024/02/20_08:11:35,YZ,None,
,,,,,,test,1,4,3,2583,6,F,0,left,0.2942242349963635,0,0,,,,,,,,,,,,,,,,,,,,,1,,,,,,,,,,,,,,,,,,,,,,,,,,,,,,,,,,,,,,,,,,,,,,68,151876,21,Female,1,2024/02/20_08:11:35,YZ,None,
,,,,,,Test,1,4,3,2583,,,,,,,,0.6875,0.5,0.25,0.75,0.0,0.75,0.4426937014989865,1,1,0,0,0,3,4,2,4,0,,,,1,,,,,,,,,,,,,,,,,,,,,,,,,,,,,,,,,,,,,,,,,,,,,,68,151876,21,Female,1,2024/02/20_08:11:35,YZ,None,
,,,,,240220_091004,TEST,1,4,3,2583,,,,,,,,,,,,,,,,,,,,,,,,,,,,1,4,4,4,cue1.png,hard,B,29,1.5480810160006513,0,909.9755209089999,911.5406055560015,,,,,,,,,,,,,,,,,,,,,,,,,,,,,,,,,,,68,151876,21,Female,1,2024/02/20_08:11:35,YZ,None,
,,,,,,test,1,5,1,2583,1,V,0,right,0.8417838150053285,1,0,,,,,,,,,,,,,,,,,,,,,1,,,,,,,,,,,,,,,,,,,,,,,,,,,,,,,,,,,,,,,,,,,,,,68,151876,21,Female,1,2024/02/20_08:11:35,YZ,None,
,,,,,,test,1,5,1,2583,2,F,0,right,0.429788371999166,1,0,,,,,,,,,,,,,,,,,,,,,1,,,,,,,,,,,,,,,,,,,,,,,,,,,,,,,,,,,,,,,,,,,,,,68,151876,21,Female,1,2024/02/20_08:11:35,YZ,None,
,,,,,,test,1,5,1,2583,3,F,1,left,0.49035311900661327,1,0,,,,,,,,,,,,,,,,,,,,,1,,,,,,,,,,,,,,,,,,,,,,,,,,,,,,,,,,,,,,,,,,,,,,68,151876,21,Female,1,2024/02/20_08:11:35,YZ,None,
,,,,,,test,1,5,1,2583,4,Q,0,right,0.654373694997048,1,0,,,,,,,,,,,,,,,,,,,,,1,,,,,,,,,,,,,,,,,,,,,,,,,,,,,,,,,,,,,,,,,,,,,,68,151876,21,Female,1,2024/02/20_08:11:35,YZ,None,
,,,,,,test,1,5,1,2583,5,Q,1,right,0.6040678730059881,0,0,,,,,,,,,,,,,,,,,,,,,1,,,,,,,,,,,,,,,,,,,,,,,,,,,,,,,,,,,,,,,,,,,,,,68,151876,21,Female,1,2024/02/20_08:11:35,YZ,None,
,,,,,,test,1,5,1,2583,6,N,0,right,0.5788943129955442,1,0,,,,,,,,,,,,,,,,,,,,,1,,,,,,,,,,,,,,,,,,,,,,,,,,,,,,,,,,,,,,,,,,,,,,68,151876,21,Female,1,2024/02/20_08:11:35,YZ,None,
,,,,,,Test,1,5,1,2583,,,,,,,,0.875,0.5,0.0,1.0,0.0,1.0,0.5998768645016147,1,0,0,0,0,4,5,2,4,0,,,,1,,,,,,,,,,,,,,,,,,,,,,,,,,,,,,,,,,,,,,,,,,,,,,68,151876,21,Female,1,2024/02/20_08:11:35,YZ,None,
,,,,,240220_091021,TEST,1,5,1,2583,,,,,,,,,,,,,,,,,,,,,,,,,,,,1,5,5,5,cue2.png,easy,B,50,1.428885656001512,0,926.4433862740043,927.8921982430038,,,,,,,,,,,,,,,,,,,,,,,,,,,,,,,,,,,68,151876,21,Female,1,2024/02/20_08:11:35,YZ,None,
,,,,,,test,1,6,3,2583,1,V,0,right,0.41044562800379936,1,0,,,,,,,,,,,,,,,,,,,,,1,,,,,,,,,,,,,,,,,,,,,,,,,,,,,,,,,,,,,,,,,,,,,,68,151876,21,Female,1,2024/02/20_08:11:35,YZ,None,
,,,,,,test,1,6,3,2583,2,Q,0,right,0.413154804999067,1,0,,,,,,,,,,,,,,,,,,,,,1,,,,,,,,,,,,,,,,,,,,,,,,,,,,,,,,,,,,,,,,,,,,,,68,151876,21,Female,1,2024/02/20_08:11:35,YZ,None,
,,,,,,test,1,6,3,2583,3,V,0,left,0.5410962570022093,0,0,,,,,,,,,,,,,,,,,,,,,1,,,,,,,,,,,,,,,,,,,,,,,,,,,,,,,,,,,,,,,,,,,,,,68,151876,21,Female,1,2024/02/20_08:11:35,YZ,None,
,,,,,,test,1,6,3,2583,4,V,1,left,0.5238129360004677,1,0,,,,,,,,,,,,,,,,,,,,,1,,,,,,,,,,,,,,,,,,,,,,,,,,,,,,,,,,,,,,,,,,,,,,68,151876,21,Female,1,2024/02/20_08:11:35,YZ,None,
,,,,,,test,1,6,3,2583,5,Q,1,right,0.4070251439989079,0,0,,,,,,,,,,,,,,,,,,,,,1,,,,,,,,,,,,,,,,,,,,,,,,,,,,,,,,,,,,,,,,,,,,,,68,151876,21,Female,1,2024/02/20_08:11:35,YZ,None,
,,,,,,test,1,6,3,2583,6,Q,0,right,0.483107549000124,1,0,,,,,,,,,,,,,,,,,,,,,1,,,,,,,,,,,,,,,,,,,,,,,,,,,,,,,,,,,,,,,,,,,,,,68,151876,21,Female,1,2024/02/20_08:11:35,YZ,None,
,,,,,,Test,1,6,3,2583,,,,,,,,0.6875,0.5,0.25,0.75,0.0,0.75,0.46310705316742923,1,1,0,0,0,3,4,2,4,0,,,,1,,,,,,,,,,,,,,,,,,,,,,,,,,,,,,,,,,,,,,,,,,,,,,68,151876,21,Female,1,2024/02/20_08:11:35,YZ,None,
,,,,,240220_091037,TEST,1,6,3,2583,,,,,,,,,,,,,,,,,,,,,,,,,,,,1,6,6,6,cue1.png,hard,B,53,1.180441796001105,0,943.7383210859989,944.9389797920012,,,,,,,,,,,,,,,,,,,,,,,,,,,,,,,,,,,68,151876,21,Female,1,2024/02/20_08:11:35,YZ,None,
,,,,,,test,1,7,3,2583,1,Q,0,right,0.6029090160009218,1,0,,,,,,,,,,,,,,,,,,,,,1,,,,,,,,,,,,,,,,,,,,,,,,,,,,,,,,,,,,,,,,,,,,,,68,151876,21,Female,1,2024/02/20_08:11:35,YZ,None,
,,,,,,test,1,7,3,2583,2,F,0,right,0.3534333159987,1,0,,,,,,,,,,,,,,,,,,,,,1,,,,,,,,,,,,,,,,,,,,,,,,,,,,,,,,,,,,,,,,,,,,,,68,151876,21,Female,1,2024/02/20_08:11:35,YZ,None,
,,,,,,test,1,7,3,2583,3,J,0,right,0.39653635500144446,1,0,,,,,,,,,,,,,,,,,,,,,1,,,,,,,,,,,,,,,,,,,,,,,,,,,,,,,,,,,,,,,,,,,,,,68,151876,21,Female,1,2024/02/20_08:11:35,YZ,None,
,,,,,,test,1,7,3,2583,4,Q,1,left,0.24547323199658422,1,0,,,,,,,,,,,,,,,,,,,,,1,,,,,,,,,,,,,,,,,,,,,,,,,,,,,,,,,,,,,,,,,,,,,,68,151876,21,Female,1,2024/02/20_08:11:35,YZ,None,
,,,,,,test,1,7,3,2583,5,F,1,right,0.3565813890018035,0,0,,,,,,,,,,,,,,,,,,,,,1,,,,,,,,,,,,,,,,,,,,,,,,,,,,,,,,,,,,,,,,,,,,,,68,151876,21,Female,1,2024/02/20_08:11:35,YZ,None,
,,,,,,test,1,7,3,2583,6,Q,0,left,0.11519539100117981,0,0,,,,,,,,,,,,,,,,,,,,,1,,,,,,,,,,,,,,,,,,,,,,,,,,,,,,,,,,,,,,,,,,,,,,68,151876,21,Female,1,2024/02/20_08:11:35,YZ,None,
,,,,,,Test,1,7,3,2583,,,,,,,,0.6875,0.5,0.25,0.75,0.0,0.75,0.34502144983343896,1,1,0,0,0,3,4,2,4,0,,,,1,,,,,,,,,,,,,,,,,,,,,,,,,,,,,,,,,,,,,,,,,,,,,,68,151876,21,Female,1,2024/02/20_08:11:35,YZ,None,
,,,,,240220_091053,TEST,1,7,3,2583,,,,,,,,,,,,,,,,,,,,,,,,,,,,1,7,7,7,cue1.png,hard,B,77,1.182444388003205,0,959.9618344920018,961.1696006659986,,,,,,,,,,,,,,,,,,,,,,,,,,,,,,,,,,,68,151876,21,Female,1,2024/02/20_08:11:35,YZ,None,
,,,,,,test,1,8,1,2583,1,N,0,right,0.6426389730040682,1,0,,,,,,,,,,,,,,,,,,,,,1,,,,,,,,,,,,,,,,,,,,,,,,,,,,,,,,,,,,,,,,,,,,,,68,151876,21,Female,1,2024/02/20_08:11:35,YZ,None,
,,,,,,test,1,8,1,2583,2,Q,0,right,0.942390805001196,1,0,,,,,,,,,,,,,,,,,,,,,1,,,,,,,,,,,,,,,,,,,,,,,,,,,,,,,,,,,,,,,,,,,,,,68,151876,21,Female,1,2024/02/20_08:11:35,YZ,None,
,,,,,,test,1,8,1,2583,3,Q,1,left,0.49587096700270195,1,0,,,,,,,,,,,,,,,,,,,,,1,,,,,,,,,,,,,,,,,,,,,,,,,,,,,,,,,,,,,,,,,,,,,,68,151876,21,Female,1,2024/02/20_08:11:35,YZ,None,
,,,,,,test,1,8,1,2583,4,J,0,right,0.49854454600426834,1,0,,,,,,,,,,,,,,,,,,,,,1,,,,,,,,,,,,,,,,,,,,,,,,,,,,,,,,,,,,,,,,,,,,,,68,151876,21,Female,1,2024/02/20_08:11:35,YZ,None,
,,,,,,test,1,8,1,2583,5,J,1,left,0.4482470930015552,1,0,,,,,,,,,,,,,,,,,,,,,1,,,,,,,,,,,,,,,,,,,,,,,,,,,,,,,,,,,,,,,,,,,,,,68,151876,21,Female,1,2024/02/20_08:11:35,YZ,None,
,,,,,,test,1,8,1,2583,6,F,0,right,0.4606678179989103,1,0,,,,,,,,,,,,,,,,,,,,,1,,,,,,,,,,,,,,,,,,,,,,,,,,,,,,,,,,,,,,,,,,,,,,68,151876,21,Female,1,2024/02/20_08:11:35,YZ,None,
,,,,,,Test,1,8,1,2583,,,,,,,,1.0,1.0,0.0,1.0,0.0,1.0,0.5813933670021166,2,0,0,0,0,4,6,2,4,0,,,,1,,,,,,,,,,,,,,,,,,,,,,,,,,,,,,,,,,,,,,,,,,,,,,68,151876,21,Female,1,2024/02/20_08:11:35,YZ,None,
,,,,,240220_091110,TEST,1,8,1,2583,,,,,,,,,,,,,,,,,,,,,,,,,,,,1,8,8,8,cue2.png,easy,B,57,1.4113497650032514,0,975.473343978003,976.8971734279985,,,,,,,,,,,,,,,,,,,,,,,,,,,,,,,,,,,68,151876,21,Female,1,2024/02/20_08:11:35,YZ,None,
,,,,,,test,1,9,1,2583,1,C,0,right,0.4448998890002258,1,0,,,,,,,,,,,,,,,,,,,,,1,,,,,,,,,,,,,,,,,,,,,,,,,,,,,,,,,,,,,,,,,,,,,,68,151876,21,Female,1,2024/02/20_08:11:35,YZ,None,
,,,,,,test,1,9,1,2583,2,X,0,right,0.5163157249990036,1,0,,,,,,,,,,,,,,,,,,,,,1,,,,,,,,,,,,,,,,,,,,,,,,,,,,,,,,,,,,,,,,,,,,,,68,151876,21,Female,1,2024/02/20_08:11:35,YZ,None,
,,,,,,test,1,9,1,2583,3,Q,0,right,0.48105138300161343,1,0,,,,,,,,,,,,,,,,,,,,,1,,,,,,,,,,,,,,,,,,,,,,,,,,,,,,,,,,,,,,,,,,,,,,68,151876,21,Female,1,2024/02/20_08:11:35,YZ,None,
,,,,,,test,1,9,1,2583,4,Q,1,left,0.6556194650038378,1,0,,,,,,,,,,,,,,,,,,,,,1,,,,,,,,,,,,,,,,,,,,,,,,,,,,,,,,,,,,,,,,,,,,,,68,151876,21,Female,1,2024/02/20_08:11:35,YZ,None,
,,,,,,test,1,9,1,2583,5,N,0,right,0.3141256000017165,1,0,,,,,,,,,,,,,,,,,,,,,1,,,,,,,,,,,,,,,,,,,,,,,,,,,,,,,,,,,,,,,,,,,,,,68,151876,21,Female,1,2024/02/20_08:11:35,YZ,None,
,,,,,,test,1,9,1,2583,6,N,1,left,0.4665561660003732,1,0,,,,,,,,,,,,,,,,,,,,,1,,,,,,,,,,,,,,,,,,,,,,,,,,,,,,,,,,,,,,,,,,,,,,68,151876,21,Female,1,2024/02/20_08:11:35,YZ,None,
,,,,,,Test,1,9,1,2583,,,,,,,,1.0,1.0,0.0,1.0,0.0,1.0,0.47976137133446173,2,0,0,0,0,4,6,2,4,0,,,,1,,,,,,,,,,,,,,,,,,,,,,,,,,,,,,,,,,,,,,,,,,,,,,68,151876,21,Female,1,2024/02/20_08:11:35,YZ,None,
,,,,,240220_091126,TEST,1,9,1,2583,,,,,,,,,,,,,,,,,,,,,,,,,,,,1,9,9,9,cue2.png,easy,B,77,1.0123114800007897,0,992.6349404600041,993.6582978090009,,,,,,,,,,,,,,,,,,,,,,,,,,,,,,,,,,,68,151876,21,Female,1,2024/02/20_08:11:35,YZ,None,
,,,,,,test,1,10,3,2583,1,C,0,right,0.485004353999102,1,0,,,,,,,,,,,,,,,,,,,,,1,,,,,,,,,,,,,,,,,,,,,,,,,,,,,,,,,,,,,,,,,,,,,,68,151876,21,Female,1,2024/02/20_08:11:35,YZ,None,
,,,,,,test,1,10,3,2583,2,X,0,right,0.46867062499950407,1,0,,,,,,,,,,,,,,,,,,,,,1,,,,,,,,,,,,,,,,,,,,,,,,,,,,,,,,,,,,,,,,,,,,,,68,151876,21,Female,1,2024/02/20_08:11:35,YZ,None,
,,,,,,test,1,10,3,2583,3,C,0,right,0.4808298839998315,1,0,,,,,,,,,,,,,,,,,,,,,1,,,,,,,,,,,,,,,,,,,,,,,,,,,,,,,,,,,,,,,,,,,,,,68,151876,21,Female,1,2024/02/20_08:11:35,YZ,None,
,,,,,,test,1,10,3,2583,4,C,1,left,0.4053763599949889,1,0,,,,,,,,,,,,,,,,,,,,,1,,,,,,,,,,,,,,,,,,,,,,,,,,,,,,,,,,,,,,,,,,,,,,68,151876,21,Female,1,2024/02/20_08:11:35,YZ,None,
,,,,,,test,1,10,3,2583,5,F,0,right,0.2642840599946794,1,0,,,,,,,,,,,,,,,,,,,,,1,,,,,,,,,,,,,,,,,,,,,,,,,,,,,,,,,,,,,,,,,,,,,,68,151876,21,Female,1,2024/02/20_08:11:35,YZ,None,
,,,,,,test,1,10,3,2583,6,C,1,right,0.25256971799535677,0,0,,,,,,,,,,,,,,,,,,,,,1,,,,,,,,,,,,,,,,,,,,,,,,,,,,,,,,,,,,,,,,,,,,,,68,151876,21,Female,1,2024/02/20_08:11:35,YZ,None,
,,,,,,Test,1,10,3,2583,,,,,,,,0.875,0.5,0.0,1.0,0.0,1.0,0.39278916683057713,1,0,0,0,0,4,5,2,4,0,,,,1,,,,,,,,,,,,,,,,,,,,,,,,,,,,,,,,,,,,,,,,,,,,,,68,151876,21,Female,1,2024/02/20_08:11:35,YZ,None,
,,,,,240220_091142,TEST,1,10,3,2583,,,,,,,,,,,,,,,,,,,,,,,,,,,,1,10,10,10,cue1.png,hard,B,50,0.6971154489947367,0,1008.7964206200049,1009.5053575140046,,,,,,,,,,,,,,,,,,,,,,,,,,,,,,,,,,,68,151876,21,Female,1,2024/02/20_08:11:35,YZ,None,
,,,,,,test,1,11,1,2583,1,S,0,right,0.4715571499982616,1,0,,,,,,,,,,,,,,,,,,,,,1,,,,,,,,,,,,,,,,,,,,,,,,,,,,,,,,,,,,,,,,,,,,,,68,151876,21,Female,1,2024/02/20_08:11:35,YZ,None,
,,,,,,test,1,11,1,2583,2,S,1,left,0.7011760759996832,1,0,,,,,,,,,,,,,,,,,,,,,1,,,,,,,,,,,,,,,,,,,,,,,,,,,,,,,,,,,,,,,,,,,,,,68,151876,21,Female,1,2024/02/20_08:11:35,YZ,None,
,,,,,,test,1,11,1,2583,3,F,0,right,0.7918993510029395,1,0,,,,,,,,,,,,,,,,,,,,,1,,,,,,,,,,,,,,,,,,,,,,,,,,,,,,,,,,,,,,,,,,,,,,68,151876,21,Female,1,2024/02/20_08:11:35,YZ,None,
,,,,,,test,1,11,1,2583,4,S,0,left,0.7888181339949369,0,0,,,,,,,,,,,,,,,,,,,,,1,,,,,,,,,,,,,,,,,,,,,,,,,,,,,,,,,,,,,,,,,,,,,,68,151876,21,Female,1,2024/02/20_08:11:35,YZ,None,
,,,,,,test,1,11,1,2583,5,C,0,right,0.25335895299940603,1,0,,,,,,,,,,,,,,,,,,,,,1,,,,,,,,,,,,,,,,,,,,,,,,,,,,,,,,,,,,,,,,,,,,,,68,151876,21,Female,1,2024/02/20_08:11:35,YZ,None,
,,,,,,test,1,11,1,2583,6,C,1,left,0.4973041949997423,1,0,,,,,,,,,,,,,,,,,,,,,1,,,,,,,,,,,,,,,,,,,,,,,,,,,,,,,,,,,,,,,,,,,,,,68,151876,21,Female,1,2024/02/20_08:11:35,YZ,None,
,,,,,,Test,1,11,1,2583,,,,,,,,0.9375,1.0,0.25,0.75,0.0,0.75,0.5840189764991616,2,1,0,0,0,3,5,2,4,0,,,,1,,,,,,,,,,,,,,,,,,,,,,,,,,,,,,,,,,,,,,,,,,,,,,68,151876,21,Female,1,2024/02/20_08:11:35,YZ,None,
,,,,,240220_091158,TEST,1,11,1,2583,,,,,,,,,,,,,,,,,,,,,,,,,,,,1,11,11,11,cue2.png,easy,B,40,0.9387660729989875,0,1024.0924615539989,1025.0478178030025,,,,,,,,,,,,,,,,,,,,,,,,,,,,,,,,,,,68,151876,21,Female,1,2024/02/20_08:11:35,YZ,None,
,,,,,,test,1,12,3,2583,1,N,0,right,0.4682565289986087,1,0,,,,,,,,,,,,,,,,,,,,,1,,,,,,,,,,,,,,,,,,,,,,,,,,,,,,,,,,,,,,,,,,,,,,68,151876,21,Female,1,2024/02/20_08:11:35,YZ,None,
,,,,,,test,1,12,3,2583,2,Q,0,right,0.36123073500493774,1,0,,,,,,,,,,,,,,,,,,,,,1,,,,,,,,,,,,,,,,,,,,,,,,,,,,,,,,,,,,,,,,,,,,,,68,151876,21,Female,1,2024/02/20_08:11:35,YZ,None,
,,,,,,test,1,12,3,2583,3,C,0,right,0.3691926810060977,1,0,,,,,,,,,,,,,,,,,,,,,1,,,,,,,,,,,,,,,,,,,,,,,,,,,,,,,,,,,,,,,,,,,,,,68,151876,21,Female,1,2024/02/20_08:11:35,YZ,None,
,,,,,,test,1,12,3,2583,4,S,0,left,0.20112385199900018,0,0,,,,,,,,,,,,,,,,,,,,,1,,,,,,,,,,,,,,,,,,,,,,,,,,,,,,,,,,,,,,,,,,,,,,68,151876,21,Female,1,2024/02/20_08:11:35,YZ,None,
,,,,,,test,1,12,3,2583,5,Q,1,right,0.14908252200257266,0,0,,,,,,,,,,,,,,,,,,,,,1,,,,,,,,,,,,,,,,,,,,,,,,,,,,,,,,,,,,,,,,,,,,,,68,151876,21,Female,1,2024/02/20_08:11:35,YZ,None,
,,,,,,test,1,12,3,2583,6,C,1,left,0.45637900400470244,1,0,,,,,,,,,,,,,,,,,,,,,1,,,,,,,,,,,,,,,,,,,,,,,,,,,,,,,,,,,,,,,,,,,,,,68,151876,21,Female,1,2024/02/20_08:11:35,YZ,None,
,,,,,,Test,1,12,3,2583,,,,,,,,0.6875,0.5,0.25,0.75,0.0,0.75,0.3342108871693199,1,1,0,0,0,3,4,2,4,0,,,,1,,,,,,,,,,,,,,,,,,,,,,,,,,,,,,,,,,,,,,,,,,,,,,68,151876,21,Female,1,2024/02/20_08:11:35,YZ,None,
,,,,,240220_091214,TEST,1,12,3,2583,,,,,,,,,,,,,,,,,,,,,,,,,,,,1,12,12,12,cue1.png,hard,B,56,0.9813873269959004,0,1040.8038515439985,1041.8021498430026,,,,,,,,,,,,,,,,,,,,,,,,,,,,,,,,,,,68,151876,21,Female,1,2024/02/20_08:11:35,YZ,None,
,,,,,,test,1,13,1,2583,1,X,0,right,0.7649450469980366,1,0,,,,,,,,,,,,,,,,,,,,,1,,,,,,,,,,,,,,,,,,,,,,,,,,,,,,,,,,,,,,,,,,,,,,68,151876,21,Female,1,2024/02/20_08:11:35,YZ,None,
,,,,,,test,1,13,1,2583,2,X,1,left,0.4525450719957007,1,0,,,,,,,,,,,,,,,,,,,,,1,,,,,,,,,,,,,,,,,,,,,,,,,,,,,,,,,,,,,,,,,,,,,,68,151876,21,Female,1,2024/02/20_08:11:35,YZ,None,
,,,,,,test,1,13,1,2583,3,C,0,right,0.7293973760024528,1,0,,,,,,,,,,,,,,,,,,,,,1,,,,,,,,,,,,,,,,,,,,,,,,,,,,,,,,,,,,,,,,,,,,,,68,151876,21,Female,1,2024/02/20_08:11:35,YZ,None,
,,,,,,test,1,13,1,2583,4,V,0,right,0.4550558480041218,1,0,,,,,,,,,,,,,,,,,,,,,1,,,,,,,,,,,,,,,,,,,,,,,,,,,,,,,,,,,,,,,,,,,,,,68,151876,21,Female,1,2024/02/20_08:11:35,YZ,None,
,,,,,,test,1,13,1,2583,5,N,0,right,0.4977402889999212,1,0,,,,,,,,,,,,,,,,,,,,,1,,,,,,,,,,,,,,,,,,,,,,,,,,,,,,,,,,,,,,,,,,,,,,68,151876,21,Female,1,2024/02/20_08:11:35,YZ,None,
,,,,,,test,1,13,1,2583,6,N,1,right,0.38133412699971814,0,0,,,,,,,,,,,,,,,,,,,,,1,,,,,,,,,,,,,,,,,,,,,,,,,,,,,,,,,,,,,,,,,,,,,,68,151876,21,Female,1,2024/02/20_08:11:35,YZ,None,
,,,,,,Test,1,13,1,2583,,,,,,,,0.875,0.5,0.0,1.0,0.0,1.0,0.5468362931666585,1,0,0,0,0,4,5,2,4,0,,,,1,,,,,,,,,,,,,,,,,,,,,,,,,,,,,,,,,,,,,,,,,,,,,,68,151876,21,Female,1,2024/02/20_08:11:35,YZ,None,
,,,,,240220_091230,TEST,1,13,1,2583,,,,,,,,,,,,,,,,,,,,,,,,,,,,1,13,13,13,cue2.png,easy,B,51,1.3385216610040516,0,1056.0481983810023,1057.4033600620023,,,,,,,,,,,,,,,,,,,,,,,,,,,,,,,,,,,68,151876,21,Female,1,2024/02/20_08:11:35,YZ,None,
,,,,,,test,1,14,3,2583,1,X,0,right,0.6523727819949272,1,0,,,,,,,,,,,,,,,,,,,,,1,,,,,,,,,,,,,,,,,,,,,,,,,,,,,,,,,,,,,,,,,,,,,,68,151876,21,Female,1,2024/02/20_08:11:35,YZ,None,
,,,,,,test,1,14,3,2583,2,N,0,right,0.39858238700253423,1,0,,,,,,,,,,,,,,,,,,,,,1,,,,,,,,,,,,,,,,,,,,,,,,,,,,,,,,,,,,,,,,,,,,,,68,151876,21,Female,1,2024/02/20_08:11:35,YZ,None,
,,,,,,test,1,14,3,2583,3,S,0,right,0.5873942799953511,1,0,,,,,,,,,,,,,,,,,,,,,1,,,,,,,,,,,,,,,,,,,,,,,,,,,,,,,,,,,,,,,,,,,,,,68,151876,21,Female,1,2024/02/20_08:11:35,YZ,None,
,,,,,,test,1,14,3,2583,4,V,0,right,0.3171669990042574,1,0,,,,,,,,,,,,,,,,,,,,,1,,,,,,,,,,,,,,,,,,,,,,,,,,,,,,,,,,,,,,,,,,,,,,68,151876,21,Female,1,2024/02/20_08:11:35,YZ,None,
,,,,,,test,1,14,3,2583,5,N,1,right,0.49694507800450083,0,0,,,,,,,,,,,,,,,,,,,,,1,,,,,,,,,,,,,,,,,,,,,,,,,,,,,,,,,,,,,,,,,,,,,,68,151876,21,Female,1,2024/02/20_08:11:35,YZ,None,
,,,,,,test,1,14,3,2583,6,S,1,left,0.35904296800435986,1,0,,,,,,,,,,,,,,,,,,,,,1,,,,,,,,,,,,,,,,,,,,,,,,,,,,,,,,,,,,,,,,,,,,,,68,151876,21,Female,1,2024/02/20_08:11:35,YZ,None,
,,,,,,Test,1,14,3,2583,,,,,,,,0.875,0.5,0.0,1.0,0.0,1.0,0.46858408233432175,1,0,0,0,0,4,5,2,4,0,,,,1,,,,,,,,,,,,,,,,,,,,,,,,,,,,,,,,,,,,,,,,,,,,,,68,151876,21,Female,1,2024/02/20_08:11:35,YZ,None,
,,,,,240220_091246,TEST,1,14,3,2583,,,,,,,,,,,,,,,,,,,,,,,,,,,,1,14,14,14,cue1.png,hard,B,50,0.9950583199970424,0,1072.9265964170045,1073.9335354709983,,,,,,,,,,,,,,,,,,,,,,,,,,,,,,,,,,,68,151876,21,Female,1,2024/02/20_08:11:35,YZ,None,
,,,,,,test,1,15,1,2583,1,S,0,right,0.4316541160005727,1,0,,,,,,,,,,,,,,,,,,,,,1,,,,,,,,,,,,,,,,,,,,,,,,,,,,,,,,,,,,,,,,,,,,,,68,151876,21,Female,1,2024/02/20_08:11:35,YZ,None,
,,,,,,test,1,15,1,2583,2,F,0,right,0.42617074999725446,1,0,,,,,,,,,,,,,,,,,,,,,1,,,,,,,,,,,,,,,,,,,,,,,,,,,,,,,,,,,,,,,,,,,,,,68,151876,21,Female,1,2024/02/20_08:11:35,YZ,None,
,,,,,,test,1,15,1,2583,3,F,1,left,0.4022630070030573,1,0,,,,,,,,,,,,,,,,,,,,,1,,,,,,,,,,,,,,,,,,,,,,,,,,,,,,,,,,,,,,,,,,,,,,68,151876,21,Female,1,2024/02/20_08:11:35,YZ,None,
,,,,,,test,1,15,1,2583,4,J,0,right,0.2653492390018073,1,0,,,,,,,,,,,,,,,,,,,,,1,,,,,,,,,,,,,,,,,,,,,,,,,,,,,,,,,,,,,,,,,,,,,,68,151876,21,Female,1,2024/02/20_08:11:35,YZ,None,
,,,,,,test,1,15,1,2583,5,N,0,right,0.42081179300294025,1,0,,,,,,,,,,,,,,,,,,,,,1,,,,,,,,,,,,,,,,,,,,,,,,,,,,,,,,,,,,,,,,,,,,,,68,151876,21,Female,1,2024/02/20_08:11:35,YZ,None,
,,,,,,test,1,15,1,2583,6,N,1,left,0.4961137310019694,1,0,,,,,,,,,,,,,,,,,,,,,1,,,,,,,,,,,,,,,,,,,,,,,,,,,,,,,,,,,,,,,,,,,,,,68,151876,21,Female,1,2024/02/20_08:11:35,YZ,None,
,,,,,,Test,1,15,1,2583,,,,,,,,1.0,1.0,0.0,1.0,0.0,1.0,0.40706043933460023,2,0,0,0,0,4,6,2,4,0,,,,1,,,,,,,,,,,,,,,,,,,,,,,,,,,,,,,,,,,,,,,,,,,,,,68,151876,21,Female,1,2024/02/20_08:11:35,YZ,None,
,,,,,240220_091302,TEST,1,15,1,2583,,,,,,,,,,,,,,,,,,,,,,,,,,,,1,15,15,15,cue2.png,easy,B,45,0.8375347529945429,0,1088.994088200001,1089.847801996999,,,,,,,,,,,,,,,,,,,,,,,,,,,,,,,,,,,68,151876,21,Female,1,2024/02/20_08:11:35,YZ,None,
,,,,,,test,1,16,1,2583,1,N,0,right,0.48768543799815234,1,0,,,,,,,,,,,,,,,,,,,,,1,,,,,,,,,,,,,,,,,,,,,,,,,,,,,,,,,,,,,,,,,,,,,,68,151876,21,Female,1,2024/02/20_08:11:35,YZ,None,
,,,,,,test,1,16,1,2583,2,J,0,right,0.5947462089970941,1,0,,,,,,,,,,,,,,,,,,,,,1,,,,,,,,,,,,,,,,,,,,,,,,,,,,,,,,,,,,,,,,,,,,,,68,151876,21,Female,1,2024/02/20_08:11:35,YZ,None,
,,,,,,test,1,16,1,2583,3,J,1,left,0.34850424300384475,1,0,,,,,,,,,,,,,,,,,,,,,1,,,,,,,,,,,,,,,,,,,,,,,,,,,,,,,,,,,,,,,,,,,,,,68,151876,21,Female,1,2024/02/20_08:11:35,YZ,None,
,,,,,,test,1,16,1,2583,4,X,0,right,0.6522998410000582,1,0,,,,,,,,,,,,,,,,,,,,,1,,,,,,,,,,,,,,,,,,,,,,,,,,,,,,,,,,,,,,,,,,,,,,68,151876,21,Female,1,2024/02/20_08:11:35,YZ,None,
,,,,,,test,1,16,1,2583,5,X,1,left,0.4205857790002483,1,0,,,,,,,,,,,,,,,,,,,,,1,,,,,,,,,,,,,,,,,,,,,,,,,,,,,,,,,,,,,,,,,,,,,,68,151876,21,Female,1,2024/02/20_08:11:35,YZ,None,
,,,,,,test,1,16,1,2583,6,F,0,right,0.6444034739979543,1,0,,,,,,,,,,,,,,,,,,,,,1,,,,,,,,,,,,,,,,,,,,,,,,,,,,,,,,,,,,,,,,,,,,,,68,151876,21,Female,1,2024/02/20_08:11:35,YZ,None,
,,,,,,Test,1,16,1,2583,,,,,,,,1.0,1.0,0.0,1.0,0.0,1.0,0.5247041639995587,2,0,0,0,0,4,6,2,4,0,,,,1,,,,,,,,,,,,,,,,,,,,,,,,,,,,,,,,,,,,,,,,,,,,,,68,151876,21,Female,1,2024/02/20_08:11:35,YZ,None,
,,,,,240220_091319,TEST,1,16,1,2583,,,,,,,,,,,,,,,,,,,,,,,,,,,,1,16,16,16,cue2.png,easy,B,45,1.2492369970059372,0,1104.534395540999,1105.7999392810016,,,,,,,,,,,,,,,,,,,,,,,,,,,,,,,,,,,68,151876,21,Female,1,2024/02/20_08:11:35,YZ,None,
,,,,,,test,1,17,3,2583,1,F,0,right,0.5585028190034791,1,0,,,,,,,,,,,,,,,,,,,,,1,,,,,,,,,,,,,,,,,,,,,,,,,,,,,,,,,,,,,,,,,,,,,,68,151876,21,Female,1,2024/02/20_08:11:35,YZ,None,
,,,,,,test,1,17,3,2583,2,F,0,right,0.5119842019994394,1,0,,,,,,,,,,,,,,,,,,,,,1,,,,,,,,,,,,,,,,,,,,,,,,,,,,,,,,,,,,,,,,,,,,,,68,151876,21,Female,1,2024/02/20_08:11:35,YZ,None,
,,,,,,test,1,17,3,2583,3,Q,0,right,0.3346484909998253,1,0,,,,,,,,,,,,,,,,,,,,,1,,,,,,,,,,,,,,,,,,,,,,,,,,,,,,,,,,,,,,,,,,,,,,68,151876,21,Female,1,2024/02/20_08:11:35,YZ,None,
,,,,,,test,1,17,3,2583,4,V,0,right,0.6142298019985901,1,0,,,,,,,,,,,,,,,,,,,,,1,,,,,,,,,,,,,,,,,,,,,,,,,,,,,,,,,,,,,,,,,,,,,,68,151876,21,Female,1,2024/02/20_08:11:35,YZ,None,
,,,,,,test,1,17,3,2583,5,F,1,left,0.41138232500088634,1,0,,,,,,,,,,,,,,,,,,,,,1,,,,,,,,,,,,,,,,,,,,,,,,,,,,,,,,,,,,,,,,,,,,,,68,151876,21,Female,1,2024/02/20_08:11:35,YZ,None,
,,,,,,test,1,17,3,2583,6,Q,1,right,0.5291162689973135,0,0,,,,,,,,,,,,,,,,,,,,,1,,,,,,,,,,,,,,,,,,,,,,,,,,,,,,,,,,,,,,,,,,,,,,68,151876,21,Female,1,2024/02/20_08:11:35,YZ,None,
,,,,,,Test,1,17,3,2583,,,,,,,,0.875,0.5,0.0,1.0,0.0,1.0,0.49331065133325563,1,0,0,0,0,4,5,2,4,0,,,,1,,,,,,,,,,,,,,,,,,,,,,,,,,,,,,,,,,,,,,,,,,,,,,68,151876,21,Female,1,2024/02/20_08:11:35,YZ,None,
,,,,,240220_091336,TEST,1,17,3,2583,,,,,,,,,,,,,,,,,,,,,,,,,,,,1,17,17,17,cue1.png,hard,B,50,1.9392905849963427,0,1121.212238705004,1123.168006855005,,,,,,,,,,,,,,,,,,,,,,,,,,,,,,,,,,,68,151876,21,Female,1,2024/02/20_08:11:35,YZ,None,
,,,,,,test,1,18,3,2583,1,C,0,right,0.599797071001376,1,0,,,,,,,,,,,,,,,,,,,,,1,,,,,,,,,,,,,,,,,,,,,,,,,,,,,,,,,,,,,,,,,,,,,,68,151876,21,Female,1,2024/02/20_08:11:35,YZ,None,
,,,,,,test,1,18,3,2583,2,J,0,right,0.6478354529972421,1,0,,,,,,,,,,,,,,,,,,,,,1,,,,,,,,,,,,,,,,,,,,,,,,,,,,,,,,,,,,,,,,,,,,,,68,151876,21,Female,1,2024/02/20_08:11:35,YZ,None,
,,,,,,test,1,18,3,2583,3,X,0,right,0.7761424100026488,1,0,,,,,,,,,,,,,,,,,,,,,1,,,,,,,,,,,,,,,,,,,,,,,,,,,,,,,,,,,,,,,,,,,,,,68,151876,21,Female,1,2024/02/20_08:11:35,YZ,None,
,,,,,,test,1,18,3,2583,4,C,1,left,0.35080920699692797,1,0,,,,,,,,,,,,,,,,,,,,,1,,,,,,,,,,,,,,,,,,,,,,,,,,,,,,,,,,,,,,,,,,,,,,68,151876,21,Female,1,2024/02/20_08:11:35,YZ,None,
,,,,,,test,1,18,3,2583,5,J,1,right,0.433540054000332,0,0,,,,,,,,,,,,,,,,,,,,,1,,,,,,,,,,,,,,,,,,,,,,,,,,,,,,,,,,,,,,,,,,,,,,68,151876,21,Female,1,2024/02/20_08:11:35,YZ,None,
,,,,,,test,1,18,3,2583,6,V,0,left,0.01335493599617621,0,0,,,,,,,,,,,,,,,,,,,,,1,,,,,,,,,,,,,,,,,,,,,,,,,,,,,,,,,,,,,,,,,,,,,,68,151876,21,Female,1,2024/02/20_08:11:35,YZ,None,
,,,,,,Test,1,18,3,2583,,,,,,,,0.6875,0.5,0.25,0.75,0.0,0.75,0.4702465218324505,1,1,0,0,0,3,4,2,4,0,,,,1,,,,,,,,,,,,,,,,,,,,,,,,,,,,,,,,,,,,,,,,,,,,,,68,151876,21,Female,1,2024/02/20_08:11:35,YZ,None,
,,,,,240220_091352,TEST,1,18,3,2583,,,,,,,,,,,,,,,,,,,,,,,,,,,,1,18,18,18,cue1.png,hard,B,57,1.480830281994713,0,1138.3801143090022,1139.8811705679982,,,,,,,,,,,,,,,,,,,,,,,,,,,,,,,,,,,68,151876,21,Female,1,2024/02/20_08:11:35,YZ,None,
,,,,,,test,1,19,1,2583,1,N,0,right,0.6908916750035132,1,0,,,,,,,,,,,,,,,,,,,,,1,,,,,,,,,,,,,,,,,,,,,,,,,,,,,,,,,,,,,,,,,,,,,,68,151876,21,Female,1,2024/02/20_08:11:35,YZ,None,
,,,,,,test,1,19,1,2583,2,N,1,left,0.5124076240026625,1,0,,,,,,,,,,,,,,,,,,,,,1,,,,,,,,,,,,,,,,,,,,,,,,,,,,,,,,,,,,,,,,,,,,,,68,151876,21,Female,1,2024/02/20_08:11:35,YZ,None,
,,,,,,test,1,19,1,2583,3,J,0,right,0.5437339279960725,1,0,,,,,,,,,,,,,,,,,,,,,1,,,,,,,,,,,,,,,,,,,,,,,,,,,,,,,,,,,,,,,,,,,,,,68,151876,21,Female,1,2024/02/20_08:11:35,YZ,None,
,,,,,,test,1,19,1,2583,4,Q,0,left,0.4791863749996992,0,0,,,,,,,,,,,,,,,,,,,,,1,,,,,,,,,,,,,,,,,,,,,,,,,,,,,,,,,,,,,,,,,,,,,,68,151876,21,Female,1,2024/02/20_08:11:35,YZ,None,
,,,,,,test,1,19,1,2583,5,F,0,right,0.21060818000114523,1,0,,,,,,,,,,,,,,,,,,,,,1,,,,,,,,,,,,,,,,,,,,,,,,,,,,,,,,,,,,,,,,,,,,,,68,151876,21,Female,1,2024/02/20_08:11:35,YZ,None,
,,,,,,test,1,19,1,2583,6,F,1,left,0.4732058200024767,1,0,,,,,,,,,,,,,,,,,,,,,1,,,,,,,,,,,,,,,,,,,,,,,,,,,,,,,,,,,,,,,,,,,,,,68,151876,21,Female,1,2024/02/20_08:11:35,YZ,None,
,,,,,,Test,1,19,1,2583,,,,,,,,0.9375,1.0,0.25,0.75,0.0,0.75,0.48500560033426154,2,1,0,0,0,3,5,2,4,0,,,,1,,,,,,,,,,,,,,,,,,,,,,,,,,,,,,,,,,,,,,,,,,,,,,68,151876,21,Female,1,2024/02/20_08:11:35,YZ,None,
,,,,,240220_091409,TEST,1,19,1,2583,,,,,,,,,,,,,,,,,,,,,,,,,,,,1,19,19,19,cue2.png,easy,B,47,1.6795784109999659,0,1154.953868785,1156.645620766998,,,,,,,,,,,,,,,,,,,,,,,,,,,,,,,,,,,68,151876,21,Female,1,2024/02/20_08:11:35,YZ,None,
,,,,,,test,1,20,1,2583,1,Q,0,right,0.6651532439937,1,0,,,,,,,,,,,,,,,,,,,,,1,,,,,,,,,,,,,,,,,,,,,,,,,,,,,,,,,,,,,,,,,,,,,,68,151876,21,Female,1,2024/02/20_08:11:35,YZ,None,
,,,,,,test,1,20,1,2583,2,F,0,right,0.4155711890052771,1,0,,,,,,,,,,,,,,,,,,,,,1,,,,,,,,,,,,,,,,,,,,,,,,,,,,,,,,,,,,,,,,,,,,,,68,151876,21,Female,1,2024/02/20_08:11:35,YZ,None,
,,,,,,test,1,20,1,2583,3,C,0,right,0.39354142100637546,1,0,,,,,,,,,,,,,,,,,,,,,1,,,,,,,,,,,,,,,,,,,,,,,,,,,,,,,,,,,,,,,,,,,,,,68,151876,21,Female,1,2024/02/20_08:11:35,YZ,None,
,,,,,,test,1,20,1,2583,4,C,1,left,0.48118805600097403,1,0,,,,,,,,,,,,,,,,,,,,,1,,,,,,,,,,,,,,,,,,,,,,,,,,,,,,,,,,,,,,,,,,,,,,68,151876,21,Female,1,2024/02/20_08:11:35,YZ,None,
,,,,,,test,1,20,1,2583,5,F,0,right,0.7753295169968624,1,0,,,,,,,,,,,,,,,,,,,,,1,,,,,,,,,,,,,,,,,,,,,,,,,,,,,,,,,,,,,,,,,,,,,,68,151876,21,Female,1,2024/02/20_08:11:35,YZ,None,
,,,,,,test,1,20,1,2583,6,F,1,left,0.4991539990005549,1,0,,,,,,,,,,,,,,,,,,,,,1,,,,,,,,,,,,,,,,,,,,,,,,,,,,,,,,,,,,,,,,,,,,,,68,151876,21,Female,1,2024/02/20_08:11:35,YZ,None,
,,,,,,Test,1,20,1,2583,,,,,,,,1.0,1.0,0.0,1.0,0.0,1.0,0.5383229043339574,2,0,0,0,0,4,6,2,4,0,,,,1,,,,,,,,,,,,,,,,,,,,,,,,,,,,,,,,,,,,,,,,,,,,,,68,151876,21,Female,1,2024/02/20_08:11:35,YZ,None,
,,,,,240220_091426,TEST,1,20,1,2583,,,,,,,,,,,,,,,,,,,,,,,,,,,,1,20,20,20,cue2.png,easy,B,65,1.3716831159981666,0,1171.815978270999,1173.2039737640007,,,,,,,,,,,,,,,,,,,,,,,,,,,,,,,,,,,68,151876,21,Female,1,2024/02/20_08:11:35,YZ,None,
,,,,,,test,1,21,1,2583,1,C,0,right,0.7664480710009229,1,0,,,,,,,,,,,,,,,,,,,,,1,,,,,,,,,,,,,,,,,,,,,,,,,,,,,,,,,,,,,,,,,,,,,,68,151876,21,Female,1,2024/02/20_08:11:35,YZ,None,
,,,,,,test,1,21,1,2583,2,X,0,right,0.40363772999990033,1,0,,,,,,,,,,,,,,,,,,,,,1,,,,,,,,,,,,,,,,,,,,,,,,,,,,,,,,,,,,,,,,,,,,,,68,151876,21,Female,1,2024/02/20_08:11:35,YZ,None,
,,,,,,test,1,21,1,2583,3,X,1,left,0.5309966920031002,1,0,,,,,,,,,,,,,,,,,,,,,1,,,,,,,,,,,,,,,,,,,,,,,,,,,,,,,,,,,,,,,,,,,,,,68,151876,21,Female,1,2024/02/20_08:11:35,YZ,None,
,,,,,,test,1,21,1,2583,4,Q,0,right,0.5812491749966284,1,0,,,,,,,,,,,,,,,,,,,,,1,,,,,,,,,,,,,,,,,,,,,,,,,,,,,,,,,,,,,,,,,,,,,,68,151876,21,Female,1,2024/02/20_08:11:35,YZ,None,
,,,,,,test,1,21,1,2583,5,X,0,right,0.47898008299671346,1,0,,,,,,,,,,,,,,,,,,,,,1,,,,,,,,,,,,,,,,,,,,,,,,,,,,,,,,,,,,,,,,,,,,,,68,151876,21,Female,1,2024/02/20_08:11:35,YZ,None,
,,,,,,test,1,21,1,2583,6,X,1,left,0.556990308999957,1,0,,,,,,,,,,,,,,,,,,,,,1,,,,,,,,,,,,,,,,,,,,,,,,,,,,,,,,,,,,,,,,,,,,,,68,151876,21,Female,1,2024/02/20_08:11:35,YZ,None,
,,,,,,Test,1,21,1,2583,,,,,,,,1.0,1.0,0.0,1.0,0.0,1.0,0.5530503433328704,2,0,0,0,0,4,6,2,4,0,,,,1,,,,,,,,,,,,,,,,,,,,,,,,,,,,,,,,,,,,,,,,,,,,,,68,151876,21,Female,1,2024/02/20_08:11:35,YZ,None,
,,,,,240220_091443,TEST,1,21,1,2583,,,,,,,,,,,,,,,,,,,,,,,,,,,,1,21,21,21,cue2.png,easy,B,74,0.9630712500002119,0,1188.6773616659993,1189.652871462,,,,,,,,,,,,,,,,,,,,,,,,,,,,,,,,,,,68,151876,21,Female,1,2024/02/20_08:11:35,YZ,None,
,,,,,,test,1,22,3,2583,1,S,0,right,1.0347933619996184,1,0,,,,,,,,,,,,,,,,,,,,,1,,,,,,,,,,,,,,,,,,,,,,,,,,,,,,,,,,,,,,,,,,,,,,68,151876,21,Female,1,2024/02/20_08:11:35,YZ,None,
,,,,,,test,1,22,3,2583,2,X,0,right,0.5436785490019247,1,0,,,,,,,,,,,,,,,,,,,,,1,,,,,,,,,,,,,,,,,,,,,,,,,,,,,,,,,,,,,,,,,,,,,,68,151876,21,Female,1,2024/02/20_08:11:35,YZ,None,
,,,,,,test,1,22,3,2583,3,S,0,left,0.5412232890012092,0,0,,,,,,,,,,,,,,,,,,,,,1,,,,,,,,,,,,,,,,,,,,,,,,,,,,,,,,,,,,,,,,,,,,,,68,151876,21,Female,1,2024/02/20_08:11:35,YZ,None,
,,,,,,test,1,22,3,2583,4,J,0,right,0.34369190899451496,1,0,,,,,,,,,,,,,,,,,,,,,1,,,,,,,,,,,,,,,,,,,,,,,,,,,,,,,,,,,,,,,,,,,,,,68,151876,21,Female,1,2024/02/20_08:11:35,YZ,None,
,,,,,,test,1,22,3,2583,5,X,1,right,0.31748578699625796,0,0,,,,,,,,,,,,,,,,,,,,,1,,,,,,,,,,,,,,,,,,,,,,,,,,,,,,,,,,,,,,,,,,,,,,68,151876,21,Female,1,2024/02/20_08:11:35,YZ,None,
,,,,,,test,1,22,3,2583,6,S,1,left,0.3444749500049511,1,0,,,,,,,,,,,,,,,,,,,,,1,,,,,,,,,,,,,,,,,,,,,,,,,,,,,,,,,,,,,,,,,,,,,,68,151876,21,Female,1,2024/02/20_08:11:35,YZ,None,
,,,,,,Test,1,22,3,2583,,,,,,,,0.6875,0.5,0.25,0.75,0.0,0.75,0.5208913076664127,1,1,0,0,0,3,4,2,4,0,,,,1,,,,,,,,,,,,,,,,,,,,,,,,,,,,,,,,,,,,,,,,,,,,,,68,151876,21,Female,1,2024/02/20_08:11:35,YZ,None,
,,,,,240220_091501,TEST,1,22,3,2583,,,,,,,,,,,,,,,,,,,,,,,,,,,,1,22,22,22,cue1.png,hard,B,64,2.529306953001651,0,1205.2408084749986,1207.7824156019997,,,,,,,,,,,,,,,,,,,,,,,,,,,,,,,,,,,68,151876,21,Female,1,2024/02/20_08:11:35,YZ,None,
,,,,,,test,1,23,1,2583,1,S,0,right,0.6262324249983067,1,0,,,,,,,,,,,,,,,,,,,,,1,,,,,,,,,,,,,,,,,,,,,,,,,,,,,,,,,,,,,,,,,,,,,,68,151876,21,Female,1,2024/02/20_08:11:35,YZ,None,
,,,,,,test,1,23,1,2583,2,S,1,left,0.5010216680020676,1,0,,,,,,,,,,,,,,,,,,,,,1,,,,,,,,,,,,,,,,,,,,,,,,,,,,,,,,,,,,,,,,,,,,,,68,151876,21,Female,1,2024/02/20_08:11:35,YZ,None,
,,,,,,test,1,23,1,2583,3,N,0,right,0.4615834400028689,1,0,,,,,,,,,,,,,,,,,,,,,1,,,,,,,,,,,,,,,,,,,,,,,,,,,,,,,,,,,,,,,,,,,,,,68,151876,21,Female,1,2024/02/20_08:11:35,YZ,None,
,,,,,,test,1,23,1,2583,4,F,0,right,0.47685737799474737,1,0,,,,,,,,,,,,,,,,,,,,,1,,,,,,,,,,,,,,,,,,,,,,,,,,,,,,,,,,,,,,,,,,,,,,68,151876,21,Female,1,2024/02/20_08:11:35,YZ,None,
