Instruction,Stimulus,Key,RT,START,END,Phase,Block,TrialN,NbackLevel,ISI,LetterN,Letter,Letter_isSame,Letter_Resp,Letter_RT,Letter_Accuracy,Letter_Timeout,Trial_A_measure,Trial_HR,Trial_FAR,Trial_CDR,Trial_MSR,Trial_ACC,Trial_RT,Trial_HitsCount,Trial_FAsCount,Trial_SameNoRespCount,Trial_DiffNoRespCount,Trial_NoRespCount,Trial_CDsCount,Trial_CorrectRespCount,Trial_SameLetterCount,Trial_DiffLetterCount,Trial_InvalidLetterCount,TrialCountCali,CaliEnd_A_measure,ISI_calibrated,Run,TrialIndex,TrialNumber_total,TrialNumber_valid,CueLearning,TrialDemandLearning,CueMapping,OnlineRating,OnlineRatingRT,OnlineRatingTimeOut,CueSTART,RatingSTART,OfflineRatingTimePoint,OfflineRatingQuesIndex,CueFigure,TrialDemand,OfflineRating,OfflineRatingRT,CueStart,OfflineRatingStart,PhaseType,CueLeft,CueDemandLeft,CueRight,CueDemandRight,Choice,ChoiceDemand,TaskDemand,ChoiceRT,ChoiceTimeOut,ChoiceSTART,CueCheck,CueDemandCheck,CorrectAnswer,Answer,AnswerDemand,AnswerRT,AnswerACC,AnswerTimeOut,CheckSTART,DemandRatingQuesIndex,QuesTLX,DemandLevel,DemandRating,DemandRatingRT,QuesStart,PID,SONA,Age,Gender,Run,TIME,EXPERIMENTER,frameRate,
1,./instructions/inst_begin/Slide2.png,right,35.52930145499704,0.2507229629991343,35.780024417996174,,,,,,,,,,,,,,,,,,,,,,,,,,,,,,,,,1,,,,,,,,,,,,,,,,,,,,,,,,,,,,,,,,,,,,,,,,,,,,,,53,150094,22,Female,1,2024/02/13_14:03:56,YZ,59.94891729040235,
0,./instructions/inst_begin/Slide3.png,left,7.2005924330005655,35.81957426399458,43.02016669699515,,,,,,,,,,,,,,,,,,,,,,,,,,,,,,,,,1,,,,,,,,,,,,,,,,,,,,,,,,,,,,,,,,,,,,,,,,,,,,,,53,150094,22,Female,1,2024/02/13_14:03:56,YZ,59.94891729040235,
1,./instructions/inst_begin/Slide2.png,right,0.6473285749962088,43.06052724699839,43.7078558219946,,,,,,,,,,,,,,,,,,,,,,,,,,,,,,,,,1,,,,,,,,,,,,,,,,,,,,,,,,,,,,,,,,,,,,,,,,,,,,,,53,150094,22,Female,1,2024/02/13_14:03:56,YZ,59.94891729040235,
0,./instructions/inst_begin/Slide3.png,left,0.9123290290008299,43.74746838299325,44.65979741199408,,,,,,,,,,,,,,,,,,,,,,,,,,,,,,,,,1,,,,,,,,,,,,,,,,,,,,,,,,,,,,,,,,,,,,,,,,,,,,,,53,150094,22,Female,1,2024/02/13_14:03:56,YZ,59.94891729040235,
1,./instructions/inst_begin/Slide2.png,right,0.6733369220019085,44.69852733198786,45.37186425398977,,,,,,,,,,,,,,,,,,,,,,,,,,,,,,,,,1,,,,,,,,,,,,,,,,,,,,,,,,,,,,,,,,,,,,,,,,,,,,,,53,150094,22,Female,1,2024/02/13_14:03:56,YZ,59.94891729040235,
2,./instructions/inst_begin/Slide3.png,right,0.6466426300030435,45.413198798996746,46.05984142899979,,,,,,,,,,,,,,,,,,,,,,,,,,,,,,,,,1,,,,,,,,,,,,,,,,,,,,,,,,,,,,,,,,,,,,,,,,,,,,,,53,150094,22,Female,1,2024/02/13_14:03:56,YZ,59.94891729040235,
1,./instructions/inst_begin/Slide4.png,left,0.8248465489887167,46.099252177999006,46.92409872698772,,,,,,,,,,,,,,,,,,,,,,,,,,,,,,,,,1,,,,,,,,,,,,,,,,,,,,,,,,,,,,,,,,,,,,,,,,,,,,,,53,150094,22,Female,1,2024/02/13_14:03:56,YZ,59.94891729040235,
2,./instructions/inst_begin/Slide3.png,right,1.6626825100101996,46.965221586986445,48.627904096996645,,,,,,,,,,,,,,,,,,,,,,,,,,,,,,,,,1,,,,,,,,,,,,,,,,,,,,,,,,,,,,,,,,,,,,,,,,,,,,,,53,150094,22,Female,1,2024/02/13_14:03:56,YZ,59.94891729040235,
3,./instructions/inst_begin/Slide4.png,right,7.560046344005968,48.667716065989225,56.227762409995194,,,,,,,,,,,,,,,,,,,,,,,,,,,,,,,,,1,,,,,,,,,,,,,,,,,,,,,,,,,,,,,,,,,,,,,,,,,,,,,,53,150094,22,Female,1,2024/02/13_14:03:56,YZ,59.94891729040235,
1,./instructions/inst_prac_2/Slide6.png,right,6.641797262011096,56.28995616598695,62.931753427998046,,,,,,,,,,,,,,,,,,,,,,,,,,,,,,,,,1,,,,,,,,,,,,,,,,,,,,,,,,,,,,,,,,,,,,,,,,,,,,,,53,150094,22,Female,1,2024/02/13_14:03:56,YZ,59.94891729040235,
2,./instructions/inst_prac_2/Slide7.png,right,14.131374635995599,62.97651192799094,77.10788656398654,,,,,,,,,,,,,,,,,,,,,,,,,,,,,,,,,1,,,,,,,,,,,,,,,,,,,,,,,,,,,,,,,,,,,,,,,,,,,,,,53,150094,22,Female,1,2024/02/13_14:03:56,YZ,59.94891729040235,
3,./instructions/inst_prac_2/Slide8.png,right,14.887109995994251,77.14879303099588,92.03590302699013,,,,,,,,,,,,,,,,,,,,,,,,,,,,,,,,,1,,,,,,,,,,,,,,,,,,,,,,,,,,,,,,,,,,,,,,,,,,,,,,53,150094,22,Female,1,2024/02/13_14:03:56,YZ,59.94891729040235,
4,./instructions/inst_prac_2/Slide9.png,right,3.6873433710134123,92.07640188098594,95.76374525199935,,,,,,,,,,,,,,,,,,,,,,,,,,,,,,,,,1,,,,,,,,,,,,,,,,,,,,,,,,,,,,,,,,,,,,,,,,,,,,,,53,150094,22,Female,1,2024/02/13_14:03:56,YZ,59.94891729040235,
3,./instructions/inst_prac_2/Slide10.png,left,1.513908843990066,95.80211455799872,97.31602340198879,,,,,,,,,,,,,,,,,,,,,,,,,,,,,,,,,1,,,,,,,,,,,,,,,,,,,,,,,,,,,,,,,,,,,,,,,,,,,,,,53,150094,22,Female,1,2024/02/13_14:03:56,YZ,59.94891729040235,
4,./instructions/inst_prac_2/Slide9.png,right,0.6257146220013965,97.35379483499855,97.97950945699995,,,,,,,,,,,,,,,,,,,,,,,,,,,,,,,,,1,,,,,,,,,,,,,,,,,,,,,,,,,,,,,,,,,,,,,,,,,,,,,,53,150094,22,Female,1,2024/02/13_14:03:56,YZ,59.94891729040235,
5,./instructions/inst_prac_2/Slide10.png,right,0.5758131339971442,98.01996343799692,98.59577657199407,,,,,,,,,,,,,,,,,,,,,,,,,,,,,,,,,1,,,,,,,,,,,,,,,,,,,,,,,,,,,,,,,,,,,,,,,,,,,,,,53,150094,22,Female,1,2024/02/13_14:03:56,YZ,59.94891729040235,
6,./instructions/inst_prac_2/Slide11.png,right,1.7119031470065238,98.6359480599931,100.34785120699962,,,,,,,,,,,,,,,,,,,,,,,,,,,,,,,,,1,,,,,,,,,,,,,,,,,,,,,,,,,,,,,,,,,,,,,,,,,,,,,,53,150094,22,Female,1,2024/02/13_14:03:56,YZ,59.94891729040235,
7,./instructions/inst_prac_2/Slide12.png,right,0.9921130940056173,100.38784539299377,101.37995848699939,,,,,,,,,,,,,,,,,,,,,,,,,,,,,,,,,1,,,,,,,,,,,,,,,,,,,,,,,,,,,,,,,,,,,,,,,,,,,,,,53,150094,22,Female,1,2024/02/13_14:03:56,YZ,59.94891729040235,
8,./instructions/inst_prac_2/Slide13.png,right,2.328201860000263,101.4117688319966,103.73997069199686,,,,,,,,,,,,,,,,,,,,,,,,,,,,,,,,,1,,,,,,,,,,,,,,,,,,,,,,,,,,,,,,,,,,,,,,,,,,,,,,53,150094,22,Female,1,2024/02/13_14:03:56,YZ,59.94891729040235,
7,./instructions/inst_prac_2/Slide14.png,left,1.1234752089949325,103.77646137599368,104.89993658498861,,,,,,,,,,,,,,,,,,,,,,,,,,,,,,,,,1,,,,,,,,,,,,,,,,,,,,,,,,,,,,,,,,,,,,,,,,,,,,,,53,150094,22,Female,1,2024/02/13_14:03:56,YZ,59.94891729040235,
8,./instructions/inst_prac_2/Slide13.png,right,0.6407007410016377,104.93126326399215,105.57196400499379,,,,,,,,,,,,,,,,,,,,,,,,,,,,,,,,,1,,,,,,,,,,,,,,,,,,,,,,,,,,,,,,,,,,,,,,,,,,,,,,53,150094,22,Female,1,2024/02/13_14:03:56,YZ,59.94891729040235,
9,./instructions/inst_prac_2/Slide14.png,right,8.386236035992624,105.60955518799892,113.99579122399155,,,,,,,,,,,,,,,,,,,,,,,,,,,,,,,,,1,,,,,,,,,,,,,,,,,,,,,,,,,,,,,,,,,,,,,,,,,,,,,,53,150094,22,Female,1,2024/02/13_14:03:56,YZ,59.94891729040235,
10,./instructions/inst_prac_2/Slide15.png,right,17.426266833994305,114.03355848799401,131.45982532198832,,,,,,,,,,,,,,,,,,,,,,,,,,,,,,,,,1,,,,,,,,,,,,,,,,,,,,,,,,,,,,,,,,,,,,,,,,,,,,,,53,150094,22,Female,1,2024/02/13_14:03:56,YZ,59.94891729040235,
,,,,,,practice,0,2,2,2583,1,F,0,left,10.26530310799717,0,0,,,,,,,,,,,,,,,,,,,,,1,,,,,,,,,,,,,,,,,,,,,,,,,,,,,,,,,,,,,,,,,,,,,,53,150094,22,Female,1,2024/02/13_14:03:56,YZ,59.94891729040235,
,,,,,,practice,0,2,2,2583,2,N,0,right,2.3851212479930837,1,0,,,,,,,,,,,,,,,,,,,,,1,,,,,,,,,,,,,,,,,,,,,,,,,,,,,,,,,,,,,,,,,,,,,,53,150094,22,Female,1,2024/02/13_14:03:56,YZ,59.94891729040235,
,,,,,,practice,0,2,2,2583,3,J,0,right,1.1981090899935225,1,0,,,,,,,,,,,,,,,,,,,,,1,,,,,,,,,,,,,,,,,,,,,,,,,,,,,,,,,,,,,,,,,,,,,,53,150094,22,Female,1,2024/02/13_14:03:56,YZ,59.94891729040235,
,,,,,,practice,0,2,2,2583,4,S,0,right,0.8260331040073652,1,0,,,,,,,,,,,,,,,,,,,,,1,,,,,,,,,,,,,,,,,,,,,,,,,,,,,,,,,,,,,,,,,,,,,,53,150094,22,Female,1,2024/02/13_14:03:56,YZ,59.94891729040235,
,,,,,,practice,0,2,2,2583,5,J,1,left,0.7731967019935837,1,0,,,,,,,,,,,,,,,,,,,,,1,,,,,,,,,,,,,,,,,,,,,,,,,,,,,,,,,,,,,,,,,,,,,,53,150094,22,Female,1,2024/02/13_14:03:56,YZ,59.94891729040235,
,,,,,,practice,0,2,2,2583,6,S,1,left,0.6827283269958571,1,0,,,,,,,,,,,,,,,,,,,,,1,,,,,,,,,,,,,,,,,,,,,,,,,,,,,,,,,,,,,,,,,,,,,,53,150094,22,Female,1,2024/02/13_14:03:56,YZ,59.94891729040235,
,,,,,,practice,0,2,2,2583,,,,,,,,0.9375,1.0,0.25,0.75,0.0,0.75,2.68841526316343,2,1,0,0,0,3,5,2,4,0,,,,1,,,,,,,,,,,,,,,,,,,,,,,,,,,,,,,,,,,,,,,,,,,,,,53,150094,22,Female,1,2024/02/13_14:03:56,YZ,59.94891729040235,
1,./instructions/inst_to_cali/Slide20.png,right,9.091544376002275,154.5282166269899,163.61976100299216,,,,,,,,,,,,,,,,,,,,,,,,,,,,,,,,,1,,,,,,,,,,,,,,,,,,,,,,,,,,,,,,,,,,,,,,,,,,,,,,53,150094,22,Female,1,2024/02/13_14:03:56,YZ,59.94891729040235,
1,./instructions/inst_cali/Slide22.png,right,7.6097204409888946,163.66605292999884,171.27577337098774,,,,,,,,,,,,,,,,,,,,,,,,,,,,,,,,,1,,,,,,,,,,,,,,,,,,,,,,,,,,,,,,,,,,,,,,,,,,,,,,53,150094,22,Female,1,2024/02/13_14:03:56,YZ,59.94891729040235,
,,,,,,calibration,0,30,2,583,1,C,0,left,1.2621747869998217,0,0,,,,,,,,,,,,,,,,,,,,,1,,,,,,,,,,,,,,,,,,,,,,,,,,,,,,,,,,,,,,,,,,,,,,53,150094,22,Female,1,2024/02/13_14:03:56,YZ,59.94891729040235,
,,,,,,calibration,0,30,2,583,2,X,0,left,0.7878664379968541,0,0,,,,,,,,,,,,,,,,,,,,,1,,,,,,,,,,,,,,,,,,,,,,,,,,,,,,,,,,,,,,,,,,,,,,53,150094,22,Female,1,2024/02/13_14:03:56,YZ,59.94891729040235,
,,,,,,calibration,0,30,2,583,3,F,0,left,0.5791140819928842,0,0,,,,,,,,,,,,,,,,,,,,,1,,,,,,,,,,,,,,,,,,,,,,,,,,,,,,,,,,,,,,,,,,,,,,53,150094,22,Female,1,2024/02/13_14:03:56,YZ,59.94891729040235,
,,,,,,calibration,0,30,2,583,4,Q,0,left,0.4199423739919439,0,0,,,,,,,,,,,,,,,,,,,,,1,,,,,,,,,,,,,,,,,,,,,,,,,,,,,,,,,,,,,,,,,,,,,,53,150094,22,Female,1,2024/02/13_14:03:56,YZ,59.94891729040235,
,,,,,,calibration,0,30,2,583,5,F,1,left,0.8810378509951988,1,0,,,,,,,,,,,,,,,,,,,,,1,,,,,,,,,,,,,,,,,,,,,,,,,,,,,,,,,,,,,,,,,,,,,,53,150094,22,Female,1,2024/02/13_14:03:56,YZ,59.94891729040235,
,,,,,,calibration,0,30,2,583,6,N,0,left,0.6133314769977005,0,0,,,,,,,,,,,,,,,,,,,,,1,,,,,,,,,,,,,,,,,,,,,,,,,,,,,,,,,,,,,,,,,,,,,,53,150094,22,Female,1,2024/02/13_14:03:56,YZ,59.94891729040235,
,,,,,,calibration,0,30,2,583,7,Q,0,left,0.41107540199300274,0,0,,,,,,,,,,,,,,,,,,,,,1,,,,,,,,,,,,,,,,,,,,,,,,,,,,,,,,,,,,,,,,,,,,,,53,150094,22,Female,1,2024/02/13_14:03:56,YZ,59.94891729040235,
,,,,,,calibration,0,30,2,583,8,N,1,left,0.5427528610016452,1,0,,,,,,,,,,,,,,,,,,,,,1,,,,,,,,,,,,,,,,,,,,,,,,,,,,,,,,,,,,,,,,,,,,,,53,150094,22,Female,1,2024/02/13_14:03:56,YZ,59.94891729040235,
,,,,,,calibration,0,30,2,583,9,S,0,left,0.36884594899311196,0,0,,,,,,,,,,,,,,,,,,,,,1,,,,,,,,,,,,,,,,,,,,,,,,,,,,,,,,,,,,,,,,,,,,,,53,150094,22,Female,1,2024/02/13_14:03:56,YZ,59.94891729040235,
,,,,,,calibration,0,30,2,583,10,J,0,left,0.40500149100262206,0,0,,,,,,,,,,,,,,,,,,,,,1,,,,,,,,,,,,,,,,,,,,,,,,,,,,,,,,,,,,,,,,,,,,,,53,150094,22,Female,1,2024/02/13_14:03:56,YZ,59.94891729040235,
,,,,,,calibration,0,30,2,583,11,N,0,left,0.43745726300403476,0,0,,,,,,,,,,,,,,,,,,,,,1,,,,,,,,,,,,,,,,,,,,,,,,,,,,,,,,,,,,,,,,,,,,,,53,150094,22,Female,1,2024/02/13_14:03:56,YZ,59.94891729040235,
,,,,,,calibration,0,30,2,583,12,J,1,left,0.34071036899695173,1,0,,,,,,,,,,,,,,,,,,,,,1,,,,,,,,,,,,,,,,,,,,,,,,,,,,,,,,,,,,,,,,,,,,,,53,150094,22,Female,1,2024/02/13_14:03:56,YZ,59.94891729040235,
,,,,,,calibration,0,30,2,583,13,F,0,left,0.3625616369972704,0,0,,,,,,,,,,,,,,,,,,,,,1,,,,,,,,,,,,,,,,,,,,,,,,,,,,,,,,,,,,,,,,,,,,,,53,150094,22,Female,1,2024/02/13_14:03:56,YZ,59.94891729040235,
,,,,,,calibration,0,30,2,583,14,J,1,right,0.6873260470019886,0,0,,,,,,,,,,,,,,,,,,,,,1,,,,,,,,,,,,,,,,,,,,,,,,,,,,,,,,,,,,,,,,,,,,,,53,150094,22,Female,1,2024/02/13_14:03:56,YZ,59.94891729040235,
,,,,,,calibration,0,30,2,583,15,N,0,left,0.26936279199435376,0,0,,,,,,,,,,,,,,,,,,,,,1,,,,,,,,,,,,,,,,,,,,,,,,,,,,,,,,,,,,,,,,,,,,,,53,150094,22,Female,1,2024/02/13_14:03:56,YZ,59.94891729040235,
,,,,,,calibration,0,30,2,583,,,,,,,,0.1875,0.75,1.0,0.0,0.0,0.0,0.557904054663959,3,11,0,0,0,0,3,4,11,0,,,,1,,,,,,,,,,,,,,,,,,,,,,,,,,,,,,,,,,,,,,,,,,,,,,53,150094,22,Female,1,2024/02/13_14:03:56,YZ,59.94891729040235,
,,,,,,Calibration,0,,2,583,,,,,,,,,,,,,,,,,,,,,,,,,1,,,1,,,,,,,,,,,,,,,,,,,,,,,,,,,,,,,,,,,,,,,,,,,,,,53,150094,22,Female,1,2024/02/13_14:03:56,YZ,59.94891729040235,
,,,,,,calibration,0,6,2,679,1,V,0,left,0.2723364639969077,0,0,,,,,,,,,,,,,,,,,,,,,1,,,,,,,,,,,,,,,,,,,,,,,,,,,,,,,,,,,,,,,,,,,,,,53,150094,22,Female,1,2024/02/13_14:03:56,YZ,59.94891729040235,
,,,,,,calibration,0,6,2,679,2,F,0,left,0.44425447400135454,0,0,,,,,,,,,,,,,,,,,,,,,1,,,,,,,,,,,,,,,,,,,,,,,,,,,,,,,,,,,,,,,,,,,,,,53,150094,22,Female,1,2024/02/13_14:03:56,YZ,59.94891729040235,
,,,,,,calibration,0,6,2,679,3,N,0,left,0.643332936000661,0,0,,,,,,,,,,,,,,,,,,,,,1,,,,,,,,,,,,,,,,,,,,,,,,,,,,,,,,,,,,,,,,,,,,,,53,150094,22,Female,1,2024/02/13_14:03:56,YZ,59.94891729040235,
,,,,,,calibration,0,6,2,679,4,J,0,left,0.3880750420066761,0,0,,,,,,,,,,,,,,,,,,,,,1,,,,,,,,,,,,,,,,,,,,,,,,,,,,,,,,,,,,,,,,,,,,,,53,150094,22,Female,1,2024/02/13_14:03:56,YZ,59.94891729040235,
,,,,,,calibration,0,6,2,679,5,N,1,right,0.4431128369906219,0,0,,,,,,,,,,,,,,,,,,,,,1,,,,,,,,,,,,,,,,,,,,,,,,,,,,,,,,,,,,,,,,,,,,,,53,150094,22,Female,1,2024/02/13_14:03:56,YZ,59.94891729040235,
,,,,,,calibration,0,6,2,679,6,X,0,left,0.3659464000083972,0,0,,,,,,,,,,,,,,,,,,,,,1,,,,,,,,,,,,,,,,,,,,,,,,,,,,,,,,,,,,,,,,,,,,,,53,150094,22,Female,1,2024/02/13_14:03:56,YZ,59.94891729040235,
,,,,,,calibration,0,6,2,679,7,C,0,left,0.32446243600861635,0,0,,,,,,,,,,,,,,,,,,,,,1,,,,,,,,,,,,,,,,,,,,,,,,,,,,,,,,,,,,,,,,,,,,,,53,150094,22,Female,1,2024/02/13_14:03:56,YZ,59.94891729040235,
,,,,,,calibration,0,6,2,679,8,S,0,left,0.30233154699089937,0,0,,,,,,,,,,,,,,,,,,,,,1,,,,,,,,,,,,,,,,,,,,,,,,,,,,,,,,,,,,,,,,,,,,,,53,150094,22,Female,1,2024/02/13_14:03:56,YZ,59.94891729040235,
,,,,,,calibration,0,6,2,679,9,C,1,left,0.3659764769981848,1,0,,,,,,,,,,,,,,,,,,,,,1,,,,,,,,,,,,,,,,,,,,,,,,,,,,,,,,,,,,,,,,,,,,,,53,150094,22,Female,1,2024/02/13_14:03:56,YZ,59.94891729040235,
,,,,,,calibration,0,6,2,679,10,V,0,left,0.5273684530111495,0,0,,,,,,,,,,,,,,,,,,,,,1,,,,,,,,,,,,,,,,,,,,,,,,,,,,,,,,,,,,,,,,,,,,,,53,150094,22,Female,1,2024/02/13_14:03:56,YZ,59.94891729040235,
,,,,,,calibration,0,6,2,679,11,C,1,right,0.42975122200732585,0,0,,,,,,,,,,,,,,,,,,,,,1,,,,,,,,,,,,,,,,,,,,,,,,,,,,,,,,,,,,,,,,,,,,,,53,150094,22,Female,1,2024/02/13_14:03:56,YZ,59.94891729040235,
,,,,,,calibration,0,6,2,679,12,X,0,left,0.38212821300840005,0,0,,,,,,,,,,,,,,,,,,,,,1,,,,,,,,,,,,,,,,,,,,,,,,,,,,,,,,,,,,,,,,,,,,,,53,150094,22,Female,1,2024/02/13_14:03:56,YZ,59.94891729040235,
,,,,,,calibration,0,6,2,679,13,C,1,left,0.338020017996314,1,0,,,,,,,,,,,,,,,,,,,,,1,,,,,,,,,,,,,,,,,,,,,,,,,,,,,,,,,,,,,,,,,,,,,,53,150094,22,Female,1,2024/02/13_14:03:56,YZ,59.94891729040235,
,,,,,,calibration,0,6,2,679,14,Q,0,right,0.5938017830048921,1,0,,,,,,,,,,,,,,,,,,,,,1,,,,,,,,,,,,,,,,,,,,,,,,,,,,,,,,,,,,,,,,,,,,,,53,150094,22,Female,1,2024/02/13_14:03:56,YZ,59.94891729040235,
,,,,,,calibration,0,6,2,679,,,,,,,,0.09999999999999999,0.5,0.9,0.1,0.0,0.09999999999999998,0.4157784501450286,2,9,0,0,0,1,3,4,10,0,,,,1,,,,,,,,,,,,,,,,,,,,,,,,,,,,,,,,,,,,,,,,,,,,,,53,150094,22,Female,1,2024/02/13_14:03:56,YZ,59.94891729040235,
,,,,,,Calibration,0,,2,679,,,,,,,,,,,,,,,,,,,,,,,,,2,,,1,,,,,,,,,,,,,,,,,,,,,,,,,,,,,,,,,,,,,,,,,,,,,,53,150094,22,Female,1,2024/02/13_14:03:56,YZ,59.94891729040235,
,,,,,,calibration,0,22,2,788,1,V,0,left,0.7288152749970322,0,0,,,,,,,,,,,,,,,,,,,,,1,,,,,,,,,,,,,,,,,,,,,,,,,,,,,,,,,,,,,,,,,,,,,,53,150094,22,Female,1,2024/02/13_14:03:56,YZ,59.94891729040235,
,,,,,,calibration,0,22,2,788,2,Q,0,left,0.6146085240034154,0,0,,,,,,,,,,,,,,,,,,,,,1,,,,,,,,,,,,,,,,,,,,,,,,,,,,,,,,,,,,,,,,,,,,,,53,150094,22,Female,1,2024/02/13_14:03:56,YZ,59.94891729040235,
,,,,,,calibration,0,22,2,788,3,F,0,left,0.42339701400487684,0,0,,,,,,,,,,,,,,,,,,,,,1,,,,,,,,,,,,,,,,,,,,,,,,,,,,,,,,,,,,,,,,,,,,,,53,150094,22,Female,1,2024/02/13_14:03:56,YZ,59.94891729040235,
,,,,,,calibration,0,22,2,788,4,N,0,left,0.3351681640051538,0,0,,,,,,,,,,,,,,,,,,,,,1,,,,,,,,,,,,,,,,,,,,,,,,,,,,,,,,,,,,,,,,,,,,,,53,150094,22,Female,1,2024/02/13_14:03:56,YZ,59.94891729040235,
,,,,,,calibration,0,22,2,788,5,C,0,left,0.4060310619970551,0,0,,,,,,,,,,,,,,,,,,,,,1,,,,,,,,,,,,,,,,,,,,,,,,,,,,,,,,,,,,,,,,,,,,,,53,150094,22,Female,1,2024/02/13_14:03:56,YZ,59.94891729040235,
,,,,,,calibration,0,22,2,788,6,V,0,left,0.36639232299057767,0,0,,,,,,,,,,,,,,,,,,,,,1,,,,,,,,,,,,,,,,,,,,,,,,,,,,,,,,,,,,,,,,,,,,,,53,150094,22,Female,1,2024/02/13_14:03:56,YZ,59.94891729040235,
,,,,,,calibration,0,22,2,788,7,C,1,right,0.53310244801105,0,0,,,,,,,,,,,,,,,,,,,,,1,,,,,,,,,,,,,,,,,,,,,,,,,,,,,,,,,,,,,,,,,,,,,,53,150094,22,Female,1,2024/02/13_14:03:56,YZ,59.94891729040235,
,,,,,,calibration,0,22,2,788,8,X,0,left,0.358129258005647,0,0,,,,,,,,,,,,,,,,,,,,,1,,,,,,,,,,,,,,,,,,,,,,,,,,,,,,,,,,,,,,,,,,,,,,53,150094,22,Female,1,2024/02/13_14:03:56,YZ,59.94891729040235,
,,,,,,calibration,0,22,2,788,9,C,1,right,0.44025551198865287,0,0,,,,,,,,,,,,,,,,,,,,,1,,,,,,,,,,,,,,,,,,,,,,,,,,,,,,,,,,,,,,,,,,,,,,53,150094,22,Female,1,2024/02/13_14:03:56,YZ,59.94891729040235,
,,,,,,calibration,0,22,2,788,10,S,0,left,0.35427484699175693,0,0,,,,,,,,,,,,,,,,,,,,,1,,,,,,,,,,,,,,,,,,,,,,,,,,,,,,,,,,,,,,,,,,,,,,53,150094,22,Female,1,2024/02/13_14:03:56,YZ,59.94891729040235,
,,,,,,calibration,0,22,2,788,11,C,1,right,0.45417350900243036,0,0,,,,,,,,,,,,,,,,,,,,,1,,,,,,,,,,,,,,,,,,,,,,,,,,,,,,,,,,,,,,,,,,,,,,53,150094,22,Female,1,2024/02/13_14:03:56,YZ,59.94891729040235,
,,,,,,calibration,0,22,2,788,12,S,1,left,0.22252916400611866,1,0,,,,,,,,,,,,,,,,,,,,,1,,,,,,,,,,,,,,,,,,,,,,,,,,,,,,,,,,,,,,,,,,,,,,53,150094,22,Female,1,2024/02/13_14:03:56,YZ,59.94891729040235,
,,,,,,calibration,0,22,2,788,13,Q,0,right,0.6942396730009932,1,0,,,,,,,,,,,,,,,,,,,,,1,,,,,,,,,,,,,,,,,,,,,,,,,,,,,,,,,,,,,,,,,,,,,,53,150094,22,Female,1,2024/02/13_14:03:56,YZ,59.94891729040235,
,,,,,,calibration,0,22,2,788,,,,,,,,0.06250000000000001,0.25,0.8888888888888888,0.1111111111111111,0.0,0.11111111111111116,0.4562397517695969,1,8,0,0,0,1,2,4,9,0,,,,1,,,,,,,,,,,,,,,,,,,,,,,,,,,,,,,,,,,,,,,,,,,,,,53,150094,22,Female,1,2024/02/13_14:03:56,YZ,59.94891729040235,
,,,,,,Calibration,0,,2,788,,,,,,,,,,,,,,,,,,,,,,,,,3,,,1,,,,,,,,,,,,,,,,,,,,,,,,,,,,,,,,,,,,,,,,,,,,,,53,150094,22,Female,1,2024/02/13_14:03:56,YZ,59.94891729040235,
,,,,,,calibration,0,33,2,917,1,N,0,left,0.3282646650040988,0,0,,,,,,,,,,,,,,,,,,,,,1,,,,,,,,,,,,,,,,,,,,,,,,,,,,,,,,,,,,,,,,,,,,,,53,150094,22,Female,1,2024/02/13_14:03:56,YZ,59.94891729040235,
,,,,,,calibration,0,33,2,917,2,N,0,right,0.8272177650069352,1,0,,,,,,,,,,,,,,,,,,,,,1,,,,,,,,,,,,,,,,,,,,,,,,,,,,,,,,,,,,,,,,,,,,,,53,150094,22,Female,1,2024/02/13_14:03:56,YZ,59.94891729040235,
,,,,,,calibration,0,33,2,917,3,X,0,left,0.21296107600210235,0,0,,,,,,,,,,,,,,,,,,,,,1,,,,,,,,,,,,,,,,,,,,,,,,,,,,,,,,,,,,,,,,,,,,,,53,150094,22,Female,1,2024/02/13_14:03:56,YZ,59.94891729040235,
,,,,,,calibration,0,33,2,917,4,J,0,left,0.4158762050064979,0,0,,,,,,,,,,,,,,,,,,,,,1,,,,,,,,,,,,,,,,,,,,,,,,,,,,,,,,,,,,,,,,,,,,,,53,150094,22,Female,1,2024/02/13_14:03:56,YZ,59.94891729040235,
,,,,,,calibration,0,33,2,917,5,N,0,right,0.592692680991604,1,0,,,,,,,,,,,,,,,,,,,,,1,,,,,,,,,,,,,,,,,,,,,,,,,,,,,,,,,,,,,,,,,,,,,,53,150094,22,Female,1,2024/02/13_14:03:56,YZ,59.94891729040235,
,,,,,,calibration,0,33,2,917,6,F,0,left,0.7647917950089322,0,0,,,,,,,,,,,,,,,,,,,,,1,,,,,,,,,,,,,,,,,,,,,,,,,,,,,,,,,,,,,,,,,,,,,,53,150094,22,Female,1,2024/02/13_14:03:56,YZ,59.94891729040235,
,,,,,,calibration,0,33,2,917,7,N,1,right,0.5428285209927708,0,0,,,,,,,,,,,,,,,,,,,,,1,,,,,,,,,,,,,,,,,,,,,,,,,,,,,,,,,,,,,,,,,,,,,,53,150094,22,Female,1,2024/02/13_14:03:56,YZ,59.94891729040235,
,,,,,,calibration,0,33,2,917,8,F,1,left,0.38471807399764657,1,0,,,,,,,,,,,,,,,,,,,,,1,,,,,,,,,,,,,,,,,,,,,,,,,,,,,,,,,,,,,,,,,,,,,,53,150094,22,Female,1,2024/02/13_14:03:56,YZ,59.94891729040235,
,,,,,,calibration,0,33,2,917,9,Q,0,left,0.8292417959892191,0,0,,,,,,,,,,,,,,,,,,,,,1,,,,,,,,,,,,,,,,,,,,,,,,,,,,,,,,,,,,,,,,,,,,,,53,150094,22,Female,1,2024/02/13_14:03:56,YZ,59.94891729040235,
,,,,,,calibration,0,33,2,917,10,N,0,right,0.4132677909947233,1,0,,,,,,,,,,,,,,,,,,,,,1,,,,,,,,,,,,,,,,,,,,,,,,,,,,,,,,,,,,,,,,,,,,,,53,150094,22,Female,1,2024/02/13_14:03:56,YZ,59.94891729040235,
,,,,,,calibration,0,33,2,917,11,Q,1,left,0.3215252009977121,1,0,,,,,,,,,,,,,,,,,,,,,1,,,,,,,,,,,,,,,,,,,,,,,,,,,,,,,,,,,,,,,,,,,,,,53,150094,22,Female,1,2024/02/13_14:03:56,YZ,59.94891729040235,
,,,,,,calibration,0,33,2,917,12,S,0,left,0.3684576340019703,0,0,,,,,,,,,,,,,,,,,,,,,1,,,,,,,,,,,,,,,,,,,,,,,,,,,,,,,,,,,,,,,,,,,,,,53,150094,22,Female,1,2024/02/13_14:03:56,YZ,59.94891729040235,
,,,,,,calibration,0,33,2,917,,,,,,,,0.5,0.6666666666666666,0.6666666666666666,0.3333333333333333,0.0,0.33333333333333337,0.5001536003328511,2,6,0,0,0,3,5,3,9,0,,,,1,,,,,,,,,,,,,,,,,,,,,,,,,,,,,,,,,,,,,,,,,,,,,,53,150094,22,Female,1,2024/02/13_14:03:56,YZ,59.94891729040235,
,,,,,,Calibration,0,,2,917,,,,,,,,,,,,,,,,,,,,,,,,,4,,,1,,,,,,,,,,,,,,,,,,,,,,,,,,,,,,,,,,,,,,,,,,,,,,53,150094,22,Female,1,2024/02/13_14:03:56,YZ,59.94891729040235,
,,,,,,calibration,0,3,2,1068,1,J,0,left,0.513558513004682,0,0,,,,,,,,,,,,,,,,,,,,,1,,,,,,,,,,,,,,,,,,,,,,,,,,,,,,,,,,,,,,,,,,,,,,53,150094,22,Female,1,2024/02/13_14:03:56,YZ,59.94891729040235,
,,,,,,calibration,0,3,2,1068,2,F,0,left,0.4826137199997902,0,0,,,,,,,,,,,,,,,,,,,,,1,,,,,,,,,,,,,,,,,,,,,,,,,,,,,,,,,,,,,,,,,,,,,,53,150094,22,Female,1,2024/02/13_14:03:56,YZ,59.94891729040235,
,,,,,,calibration,0,3,2,1068,3,S,0,left,0.38822954799979925,0,0,,,,,,,,,,,,,,,,,,,,,1,,,,,,,,,,,,,,,,,,,,,,,,,,,,,,,,,,,,,,,,,,,,,,53,150094,22,Female,1,2024/02/13_14:03:56,YZ,59.94891729040235,
,,,,,,calibration,0,3,2,1068,4,Q,0,left,0.46999208300258033,0,0,,,,,,,,,,,,,,,,,,,,,1,,,,,,,,,,,,,,,,,,,,,,,,,,,,,,,,,,,,,,,,,,,,,,53,150094,22,Female,1,2024/02/13_14:03:56,YZ,59.94891729040235,
,,,,,,calibration,0,3,2,1068,5,X,0,left,0.42995216099370737,0,0,,,,,,,,,,,,,,,,,,,,,1,,,,,,,,,,,,,,,,,,,,,,,,,,,,,,,,,,,,,,,,,,,,,,53,150094,22,Female,1,2024/02/13_14:03:56,YZ,59.94891729040235,
,,,,,,calibration,0,3,2,1068,6,Q,1,right,0.6055373650015099,0,0,,,,,,,,,,,,,,,,,,,,,1,,,,,,,,,,,,,,,,,,,,,,,,,,,,,,,,,,,,,,,,,,,,,,53,150094,22,Female,1,2024/02/13_14:03:56,YZ,59.94891729040235,
,,,,,,calibration,0,3,2,1068,7,V,0,left,0.347144262996153,0,0,,,,,,,,,,,,,,,,,,,,,1,,,,,,,,,,,,,,,,,,,,,,,,,,,,,,,,,,,,,,,,,,,,,,53,150094,22,Female,1,2024/02/13_14:03:56,YZ,59.94891729040235,
,,,,,,calibration,0,3,2,1068,8,Q,1,right,0.4419716679985868,0,0,,,,,,,,,,,,,,,,,,,,,1,,,,,,,,,,,,,,,,,,,,,,,,,,,,,,,,,,,,,,,,,,,,,,53,150094,22,Female,1,2024/02/13_14:03:56,YZ,59.94891729040235,
,,,,,,calibration,0,3,2,1068,9,C,0,left,0.26706846100569237,0,0,,,,,,,,,,,,,,,,,,,,,1,,,,,,,,,,,,,,,,,,,,,,,,,,,,,,,,,,,,,,,,,,,,,,53,150094,22,Female,1,2024/02/13_14:03:56,YZ,59.94891729040235,
,,,,,,calibration,0,3,2,1068,10,Q,1,right,0.38894492801046,0,0,,,,,,,,,,,,,,,,,,,,,1,,,,,,,,,,,,,,,,,,,,,,,,,,,,,,,,,,,,,,,,,,,,,,53,150094,22,Female,1,2024/02/13_14:03:56,YZ,59.94891729040235,
,,,,,,calibration,0,3,2,1068,11,X,0,left,0.301751327002421,0,0,,,,,,,,,,,,,,,,,,,,,1,,,,,,,,,,,,,,,,,,,,,,,,,,,,,,,,,,,,,,,,,,,,,,53,150094,22,Female,1,2024/02/13_14:03:56,YZ,59.94891729040235,
,,,,,,calibration,0,3,2,1068,,,,,,,,0.0,0.0,1.0,0.0,0.0,0.0,0.42152400336503476,0,8,0,0,0,0,0,3,8,0,,,,1,,,,,,,,,,,,,,,,,,,,,,,,,,,,,,,,,,,,,,,,,,,,,,53,150094,22,Female,1,2024/02/13_14:03:56,YZ,59.94891729040235,
,,,,,,Calibration,0,,2,1068,,,,,,,,,,,,,,,,,,,,,,,,,5,,,1,,,,,,,,,,,,,,,,,,,,,,,,,,,,,,,,,,,,,,,,,,,,,,53,150094,22,Female,1,2024/02/13_14:03:56,YZ,59.94891729040235,
,,,,,,calibration,0,16,2,1250,1,S,0,left,0.41759836999699473,0,0,,,,,,,,,,,,,,,,,,,,,1,,,,,,,,,,,,,,,,,,,,,,,,,,,,,,,,,,,,,,,,,,,,,,53,150094,22,Female,1,2024/02/13_14:03:56,YZ,59.94891729040235,
,,,,,,calibration,0,16,2,1250,2,C,0,left,0.31905603999621235,0,0,,,,,,,,,,,,,,,,,,,,,1,,,,,,,,,,,,,,,,,,,,,,,,,,,,,,,,,,,,,,,,,,,,,,53,150094,22,Female,1,2024/02/13_14:03:56,YZ,59.94891729040235,
,,,,,,calibration,0,16,2,1250,3,S,1,left,0.4195591930038063,1,0,,,,,,,,,,,,,,,,,,,,,1,,,,,,,,,,,,,,,,,,,,,,,,,,,,,,,,,,,,,,,,,,,,,,53,150094,22,Female,1,2024/02/13_14:03:56,YZ,59.94891729040235,
,,,,,,calibration,0,16,2,1250,4,Q,0,left,0.6116845070064301,0,0,,,,,,,,,,,,,,,,,,,,,1,,,,,,,,,,,,,,,,,,,,,,,,,,,,,,,,,,,,,,,,,,,,,,53,150094,22,Female,1,2024/02/13_14:03:56,YZ,59.94891729040235,
,,,,,,calibration,0,16,2,1250,5,X,0,left,0.7950187690003077,0,0,,,,,,,,,,,,,,,,,,,,,1,,,,,,,,,,,,,,,,,,,,,,,,,,,,,,,,,,,,,,,,,,,,,,53,150094,22,Female,1,2024/02/13_14:03:56,YZ,59.94891729040235,
,,,,,,calibration,0,16,2,1250,6,Q,1,right,0.6306575170019642,0,0,,,,,,,,,,,,,,,,,,,,,1,,,,,,,,,,,,,,,,,,,,,,,,,,,,,,,,,,,,,,,,,,,,,,53,150094,22,Female,1,2024/02/13_14:03:56,YZ,59.94891729040235,
,,,,,,calibration,0,16,2,1250,7,C,0,left,0.5975915969902417,0,0,,,,,,,,,,,,,,,,,,,,,1,,,,,,,,,,,,,,,,,,,,,,,,,,,,,,,,,,,,,,,,,,,,,,53,150094,22,Female,1,2024/02/13_14:03:56,YZ,59.94891729040235,
,,,,,,calibration,0,16,2,1250,8,Q,1,right,0.35747871300554834,0,0,,,,,,,,,,,,,,,,,,,,,1,,,,,,,,,,,,,,,,,,,,,,,,,,,,,,,,,,,,,,,,,,,,,,53,150094,22,Female,1,2024/02/13_14:03:56,YZ,59.94891729040235,
,,,,,,calibration,0,16,2,1250,9,N,0,left,0.4145640209899284,0,0,,,,,,,,,,,,,,,,,,,,,1,,,,,,,,,,,,,,,,,,,,,,,,,,,,,,,,,,,,,,,,,,,,,,53,150094,22,Female,1,2024/02/13_14:03:56,YZ,59.94891729040235,
,,,,,,calibration,0,16,2,1250,10,J,0,left,0.6812132800114341,0,0,,,,,,,,,,,,,,,,,,,,,1,,,,,,,,,,,,,,,,,,,,,,,,,,,,,,,,,,,,,,,,,,,,,,53,150094,22,Female,1,2024/02/13_14:03:56,YZ,59.94891729040235,
,,,,,,calibration,0,16,2,1250,,,,,,,,0.08333333333333331,0.3333333333333333,1.0,0.0,0.0,0.0,0.5244422007002868,1,7,0,0,0,0,1,3,7,0,,,,1,,,,,,,,,,,,,,,,,,,,,,,,,,,,,,,,,,,,,,,,,,,,,,53,150094,22,Female,1,2024/02/13_14:03:56,YZ,59.94891729040235,
,,,,,,Calibration,0,,2,1250,,,,,,,,,,,,,,,,,,,,,,,,,6,,,1,,,,,,,,,,,,,,,,,,,,,,,,,,,,,,,,,,,,,,,,,,,,,,53,150094,22,Female,1,2024/02/13_14:03:56,YZ,59.94891729040235,
,,,,,,calibration,0,21,2,1472,1,S,0,left,0.38554650399601087,0,0,,,,,,,,,,,,,,,,,,,,,1,,,,,,,,,,,,,,,,,,,,,,,,,,,,,,,,,,,,,,,,,,,,,,53,150094,22,Female,1,2024/02/13_14:03:56,YZ,59.94891729040235,
,,,,,,calibration,0,21,2,1472,2,F,0,left,0.3645933739899192,0,0,,,,,,,,,,,,,,,,,,,,,1,,,,,,,,,,,,,,,,,,,,,,,,,,,,,,,,,,,,,,,,,,,,,,53,150094,22,Female,1,2024/02/13_14:03:56,YZ,59.94891729040235,
,,,,,,calibration,0,21,2,1472,3,S,1,right,0.5128528280038154,0,0,,,,,,,,,,,,,,,,,,,,,1,,,,,,,,,,,,,,,,,,,,,,,,,,,,,,,,,,,,,,,,,,,,,,53,150094,22,Female,1,2024/02/13_14:03:56,YZ,59.94891729040235,
,,,,,,calibration,0,21,2,1472,4,N,0,left,0.3219419410015689,0,0,,,,,,,,,,,,,,,,,,,,,1,,,,,,,,,,,,,,,,,,,,,,,,,,,,,,,,,,,,,,,,,,,,,,53,150094,22,Female,1,2024/02/13_14:03:56,YZ,59.94891729040235,
,,,,,,calibration,0,21,2,1472,5,Q,0,left,0.422325274994364,0,0,,,,,,,,,,,,,,,,,,,,,1,,,,,,,,,,,,,,,,,,,,,,,,,,,,,,,,,,,,,,,,,,,,,,53,150094,22,Female,1,2024/02/13_14:03:56,YZ,59.94891729040235,
,,,,,,calibration,0,21,2,1472,6,N,1,right,0.5982229649962392,0,0,,,,,,,,,,,,,,,,,,,,,1,,,,,,,,,,,,,,,,,,,,,,,,,,,,,,,,,,,,,,,,,,,,,,53,150094,22,Female,1,2024/02/13_14:03:56,YZ,59.94891729040235,
,,,,,,calibration,0,21,2,1472,7,Q,1,left,0.3330252520099748,1,0,,,,,,,,,,,,,,,,,,,,,1,,,,,,,,,,,,,,,,,,,,,,,,,,,,,,,,,,,,,,,,,,,,,,53,150094,22,Female,1,2024/02/13_14:03:56,YZ,59.94891729040235,
,,,,,,calibration,0,21,2,1472,8,J,0,left,0.5134483059955528,0,0,,,,,,,,,,,,,,,,,,,,,1,,,,,,,,,,,,,,,,,,,,,,,,,,,,,,,,,,,,,,,,,,,,,,53,150094,22,Female,1,2024/02/13_14:03:56,YZ,59.94891729040235,
,,,,,,calibration,0,21,2,1472,9,C,0,left,0.5432039199949941,0,0,,,,,,,,,,,,,,,,,,,,,1,,,,,,,,,,,,,,,,,,,,,,,,,,,,,,,,,,,,,,,,,,,,,,53,150094,22,Female,1,2024/02/13_14:03:56,YZ,59.94891729040235,
,,,,,,calibration,0,21,2,1472,,,,,,,,0.08333333333333331,0.3333333333333333,1.0,0.0,0.0,0.0,0.44390670722027104,1,6,0,0,0,0,1,3,6,0,,,,1,,,,,,,,,,,,,,,,,,,,,,,,,,,,,,,,,,,,,,,,,,,,,,53,150094,22,Female,1,2024/02/13_14:03:56,YZ,59.94891729040235,
,,,,,,Calibration,0,,2,1472,,,,,,,,,,,,,,,,,,,,,,,,,7,,,1,,,,,,,,,,,,,,,,,,,,,,,,,,,,,,,,,,,,,,,,,,,,,,53,150094,22,Female,1,2024/02/13_14:03:56,YZ,59.94891729040235,
,,,,,,calibration,0,34,2,1750,1,C,0,left,0.4057729539927095,0,0,,,,,,,,,,,,,,,,,,,,,1,,,,,,,,,,,,,,,,,,,,,,,,,,,,,,,,,,,,,,,,,,,,,,53,150094,22,Female,1,2024/02/13_14:03:56,YZ,59.94891729040235,
,,,,,,calibration,0,34,2,1750,2,N,0,left,0.46948385499126744,0,0,,,,,,,,,,,,,,,,,,,,,1,,,,,,,,,,,,,,,,,,,,,,,,,,,,,,,,,,,,,,,,,,,,,,53,150094,22,Female,1,2024/02/13_14:03:56,YZ,59.94891729040235,
,,,,,,calibration,0,34,2,1750,3,V,0,left,0.4140264839952579,0,0,,,,,,,,,,,,,,,,,,,,,1,,,,,,,,,,,,,,,,,,,,,,,,,,,,,,,,,,,,,,,,,,,,,,53,150094,22,Female,1,2024/02/13_14:03:56,YZ,59.94891729040235,
,,,,,,calibration,0,34,2,1750,4,F,0,left,0.5203196570073487,0,0,,,,,,,,,,,,,,,,,,,,,1,,,,,,,,,,,,,,,,,,,,,,,,,,,,,,,,,,,,,,,,,,,,,,53,150094,22,Female,1,2024/02/13_14:03:56,YZ,59.94891729040235,
,,,,,,calibration,0,34,2,1750,5,N,0,left,0.609488642992801,0,0,,,,,,,,,,,,,,,,,,,,,1,,,,,,,,,,,,,,,,,,,,,,,,,,,,,,,,,,,,,,,,,,,,,,53,150094,22,Female,1,2024/02/13_14:03:56,YZ,59.94891729040235,
,,,,,,calibration,0,34,2,1750,6,F,1,right,0.6616048220021185,0,0,,,,,,,,,,,,,,,,,,,,,1,,,,,,,,,,,,,,,,,,,,,,,,,,,,,,,,,,,,,,,,,,,,,,53,150094,22,Female,1,2024/02/13_14:03:56,YZ,59.94891729040235,
,,,,,,calibration,0,34,2,1750,7,N,1,left,0.39052931498736143,1,0,,,,,,,,,,,,,,,,,,,,,1,,,,,,,,,,,,,,,,,,,,,,,,,,,,,,,,,,,,,,,,,,,,,,53,150094,22,Female,1,2024/02/13_14:03:56,YZ,59.94891729040235,
,,,,,,calibration,0,34,2,1750,8,Q,0,left,0.44471263101149816,0,0,,,,,,,,,,,,,,,,,,,,,1,,,,,,,,,,,,,,,,,,,,,,,,,,,,,,,,,,,,,,,,,,,,,,53,150094,22,Female,1,2024/02/13_14:03:56,YZ,59.94891729040235,
,,,,,,calibration,0,34,2,1750,,,,,,,,0.125,0.5,1.0,0.0,0.0,0.0,0.48949229512254533,1,6,0,0,0,0,1,2,6,0,,,,1,,,,,,,,,,,,,,,,,,,,,,,,,,,,,,,,,,,,,,,,,,,,,,53,150094,22,Female,1,2024/02/13_14:03:56,YZ,59.94891729040235,
,,,,,,Calibration,0,,2,1750,,,,,,,,,,,,,,,,,,,,,,,,,8,,,1,,,,,,,,,,,,,,,,,,,,,,,,,,,,,,,,,,,,,,,,,,,,,,53,150094,22,Female,1,2024/02/13_14:03:56,YZ,59.94891729040235,
,,,,,,calibration,0,12,2,2107,1,F,0,left,0.3992665540135931,0,0,,,,,,,,,,,,,,,,,,,,,1,,,,,,,,,,,,,,,,,,,,,,,,,,,,,,,,,,,,,,,,,,,,,,53,150094,22,Female,1,2024/02/13_14:03:56,YZ,59.94891729040235,
,,,,,,calibration,0,12,2,2107,2,X,0,left,0.38916747200710233,0,0,,,,,,,,,,,,,,,,,,,,,1,,,,,,,,,,,,,,,,,,,,,,,,,,,,,,,,,,,,,,,,,,,,,,53,150094,22,Female,1,2024/02/13_14:03:56,YZ,59.94891729040235,
,,,,,,calibration,0,12,2,2107,3,C,0,left,0.4365202469925862,0,0,,,,,,,,,,,,,,,,,,,,,1,,,,,,,,,,,,,,,,,,,,,,,,,,,,,,,,,,,,,,,,,,,,,,53,150094,22,Female,1,2024/02/13_14:03:56,YZ,59.94891729040235,
,,,,,,calibration,0,12,2,2107,4,Q,0,right,0.7126985700015211,1,0,,,,,,,,,,,,,,,,,,,,,1,,,,,,,,,,,,,,,,,,,,,,,,,,,,,,,,,,,,,,,,,,,,,,53,150094,22,Female,1,2024/02/13_14:03:56,YZ,59.94891729040235,
,,,,,,calibration,0,12,2,2107,5,C,1,left,0.2742239359940868,1,0,,,,,,,,,,,,,,,,,,,,,1,,,,,,,,,,,,,,,,,,,,,,,,,,,,,,,,,,,,,,,,,,,,,,53,150094,22,Female,1,2024/02/13_14:03:56,YZ,59.94891729040235,
,,,,,,calibration,0,12,2,2107,6,Q,1,left,0.5305897569924127,1,0,,,,,,,,,,,,,,,,,,,,,1,,,,,,,,,,,,,,,,,,,,,,,,,,,,,,,,,,,,,,,,,,,,,,53,150094,22,Female,1,2024/02/13_14:03:56,YZ,59.94891729040235,
,,,,,,calibration,0,12,2,2107,7,N,0,right,0.5586387610092061,1,0,,,,,,,,,,,,,,,,,,,,,1,,,,,,,,,,,,,,,,,,,,,,,,,,,,,,,,,,,,,,,,,,,,,,53,150094,22,Female,1,2024/02/13_14:03:56,YZ,59.94891729040235,
,,,,,,calibration,0,12,2,2107,,,,,,,,0.85,1.0,0.6,0.4,0.0,0.4,0.4715864710015012,2,3,0,0,0,2,4,2,5,0,,,,1,,,,,,,,,,,,,,,,,,,,,,,,,,,,,,,,,,,,,,,,,,,,,,53,150094,22,Female,1,2024/02/13_14:03:56,YZ,59.94891729040235,
,,,,,,Calibration,0,,2,2107,,,,,,,,,,,,,,,,,,,,,,,,,9,,,1,,,,,,,,,,,,,,,,,,,,,,,,,,,,,,,,,,,,,,,,,,,,,,53,150094,22,Female,1,2024/02/13_14:03:56,YZ,59.94891729040235,
,,,,,,calibration,0,8,2,2107,1,N,0,left,0.4036872430006042,0,0,,,,,,,,,,,,,,,,,,,,,1,,,,,,,,,,,,,,,,,,,,,,,,,,,,,,,,,,,,,,,,,,,,,,53,150094,22,Female,1,2024/02/13_14:03:56,YZ,59.94891729040235,
,,,,,,calibration,0,8,2,2107,2,N,0,left,0.32478359900414944,0,0,,,,,,,,,,,,,,,,,,,,,1,,,,,,,,,,,,,,,,,,,,,,,,,,,,,,,,,,,,,,,,,,,,,,53,150094,22,Female,1,2024/02/13_14:03:56,YZ,59.94891729040235,
,,,,,,calibration,0,8,2,2107,3,V,0,left,0.5214468920021318,0,0,,,,,,,,,,,,,,,,,,,,,1,,,,,,,,,,,,,,,,,,,,,,,,,,,,,,,,,,,,,,,,,,,,,,53,150094,22,Female,1,2024/02/13_14:03:56,YZ,59.94891729040235,
,,,,,,calibration,0,8,2,2107,4,N,1,right,0.5770894390007015,0,0,,,,,,,,,,,,,,,,,,,,,1,,,,,,,,,,,,,,,,,,,,,,,,,,,,,,,,,,,,,,,,,,,,,,53,150094,22,Female,1,2024/02/13_14:03:56,YZ,59.94891729040235,
,,,,,,calibration,0,8,2,2107,5,X,0,left,0.2957952290016692,0,0,,,,,,,,,,,,,,,,,,,,,1,,,,,,,,,,,,,,,,,,,,,,,,,,,,,,,,,,,,,,,,,,,,,,53,150094,22,Female,1,2024/02/13_14:03:56,YZ,59.94891729040235,
,,,,,,calibration,0,8,2,2107,6,V,0,left,0.5357049859885592,0,0,,,,,,,,,,,,,,,,,,,,,1,,,,,,,,,,,,,,,,,,,,,,,,,,,,,,,,,,,,,,,,,,,,,,53,150094,22,Female,1,2024/02/13_14:03:56,YZ,59.94891729040235,
,,,,,,calibration,0,8,2,2107,7,X,1,left,0.5009217170008924,1,0,,,,,,,,,,,,,,,,,,,,,1,,,,,,,,,,,,,,,,,,,,,,,,,,,,,,,,,,,,,,,,,,,,,,53,150094,22,Female,1,2024/02/13_14:03:56,YZ,59.94891729040235,
,,,,,,calibration,0,8,2,2107,,,,,,,,0.125,0.5,1.0,0.0,0.0,0.0,0.4513470149998154,1,5,0,0,0,0,1,2,5,0,,,,1,,,,,,,,,,,,,,,,,,,,,,,,,,,,,,,,,,,,,,,,,,,,,,53,150094,22,Female,1,2024/02/13_14:03:56,YZ,59.94891729040235,
,,,,,,Calibration,0,,2,2107,,,,,,,,,,,,,,,,,,,,,,,,,10,,,1,,,,,,,,,,,,,,,,,,,,,,,,,,,,,,,,,,,,,,,,,,,,,,53,150094,22,Female,1,2024/02/13_14:03:56,YZ,59.94891729040235,
,,,,,,calibration,0,13,2,2583,1,F,0,left,0.21876553400943521,0,0,,,,,,,,,,,,,,,,,,,,,1,,,,,,,,,,,,,,,,,,,,,,,,,,,,,,,,,,,,,,,,,,,,,,53,150094,22,Female,1,2024/02/13_14:03:56,YZ,59.94891729040235,
,,,,,,calibration,0,13,2,2583,2,J,0,left,0.3330650330026401,0,0,,,,,,,,,,,,,,,,,,,,,1,,,,,,,,,,,,,,,,,,,,,,,,,,,,,,,,,,,,,,,,,,,,,,53,150094,22,Female,1,2024/02/13_14:03:56,YZ,59.94891729040235,
,,,,,,calibration,0,13,2,2583,3,F,1,left,0.966915182012599,1,0,,,,,,,,,,,,,,,,,,,,,1,,,,,,,,,,,,,,,,,,,,,,,,,,,,,,,,,,,,,,,,,,,,,,53,150094,22,Female,1,2024/02/13_14:03:56,YZ,59.94891729040235,
,,,,,,calibration,0,13,2,2583,4,N,0,left,0.7489118079975015,0,0,,,,,,,,,,,,,,,,,,,,,1,,,,,,,,,,,,,,,,,,,,,,,,,,,,,,,,,,,,,,,,,,,,,,53,150094,22,Female,1,2024/02/13_14:03:56,YZ,59.94891729040235,
,,,,,,calibration,0,13,2,2583,5,F,1,right,0.5944626230048016,0,0,,,,,,,,,,,,,,,,,,,,,1,,,,,,,,,,,,,,,,,,,,,,,,,,,,,,,,,,,,,,,,,,,,,,53,150094,22,Female,1,2024/02/13_14:03:56,YZ,59.94891729040235,
,,,,,,calibration,0,13,2,2583,6,V,0,left,0.5312572849943535,0,0,,,,,,,,,,,,,,,,,,,,,1,,,,,,,,,,,,,,,,,,,,,,,,,,,,,,,,,,,,,,,,,,,,,,53,150094,22,Female,1,2024/02/13_14:03:56,YZ,59.94891729040235,
,,,,,,calibration,0,13,2,2583,,,,,,,,0.125,0.5,1.0,0.0,0.0,0.0,0.5655629108368885,1,4,0,0,0,0,1,2,4,0,,,,1,,,,,,,,,,,,,,,,,,,,,,,,,,,,,,,,,,,,,,,,,,,,,,53,150094,22,Female,1,2024/02/13_14:03:56,YZ,59.94891729040235,
,,,,,,Calibration,0,,2,2583,,,,,,,,,,,,,,,,,,,,,,,,,11,,,1,,,,,,,,,,,,,,,,,,,,,,,,,,,,,,,,,,,,,,,,,,,,,,53,150094,22,Female,1,2024/02/13_14:03:56,YZ,59.94891729040235,
,,,,,,calibration,0,20,2,2583,1,C,0,left,0.3836047980003059,0,0,,,,,,,,,,,,,,,,,,,,,1,,,,,,,,,,,,,,,,,,,,,,,,,,,,,,,,,,,,,,,,,,,,,,53,150094,22,Female,1,2024/02/13_14:03:56,YZ,59.94891729040235,
,,,,,,calibration,0,20,2,2583,2,V,0,left,0.42191131299478,0,0,,,,,,,,,,,,,,,,,,,,,1,,,,,,,,,,,,,,,,,,,,,,,,,,,,,,,,,,,,,,,,,,,,,,53,150094,22,Female,1,2024/02/13_14:03:56,YZ,59.94891729040235,
,,,,,,calibration,0,20,2,2583,3,C,1,right,0.39708768800483085,0,0,,,,,,,,,,,,,,,,,,,,,1,,,,,,,,,,,,,,,,,,,,,,,,,,,,,,,,,,,,,,,,,,,,,,53,150094,22,Female,1,2024/02/13_14:03:56,YZ,59.94891729040235,
,,,,,,calibration,0,20,2,2583,4,N,0,left,0.4026610450091539,0,0,,,,,,,,,,,,,,,,,,,,,1,,,,,,,,,,,,,,,,,,,,,,,,,,,,,,,,,,,,,,,,,,,,,,53,150094,22,Female,1,2024/02/13_14:03:56,YZ,59.94891729040235,
,,,,,,calibration,0,20,2,2583,5,S,0,left,0.5612335250043543,0,0,,,,,,,,,,,,,,,,,,,,,1,,,,,,,,,,,,,,,,,,,,,,,,,,,,,,,,,,,,,,,,,,,,,,53,150094,22,Female,1,2024/02/13_14:03:56,YZ,59.94891729040235,
,,,,,,calibration,0,20,2,2583,6,N,1,right,0.6143578930059448,0,0,,,,,,,,,,,,,,,,,,,,,1,,,,,,,,,,,,,,,,,,,,,,,,,,,,,,,,,,,,,,,,,,,,,,53,150094,22,Female,1,2024/02/13_14:03:56,YZ,59.94891729040235,
,,,,,,calibration,0,20,2,2583,,,,,,,,0.0,0.0,1.0,0.0,0.0,0.0,0.463476043669895,0,4,0,0,0,0,0,2,4,0,,,,1,,,,,,,,,,,,,,,,,,,,,,,,,,,,,,,,,,,,,,,,,,,,,,53,150094,22,Female,1,2024/02/13_14:03:56,YZ,59.94891729040235,
,,,,,,Calibration,0,,2,2583,,,,,,,,,,,,,,,,,,,,,,,,,12,,,1,,,,,,,,,,,,,,,,,,,,,,,,,,,,,,,,,,,,,,,,,,,,,,53,150094,22,Female,1,2024/02/13_14:03:56,YZ,59.94891729040235,
,,,,,,calibration,0,10,2,2583,1,N,0,left,0.2846294399932958,0,0,,,,,,,,,,,,,,,,,,,,,1,,,,,,,,,,,,,,,,,,,,,,,,,,,,,,,,,,,,,,,,,,,,,,53,150094,22,Female,1,2024/02/13_14:03:56,YZ,59.94891729040235,
,,,,,,calibration,0,10,2,2583,2,N,0,left,0.4126318139897194,0,0,,,,,,,,,,,,,,,,,,,,,1,,,,,,,,,,,,,,,,,,,,,,,,,,,,,,,,,,,,,,,,,,,,,,53,150094,22,Female,1,2024/02/13_14:03:56,YZ,59.94891729040235,
,,,,,,calibration,0,10,2,2583,3,N,1,right,0.36248314700787887,0,0,,,,,,,,,,,,,,,,,,,,,1,,,,,,,,,,,,,,,,,,,,,,,,,,,,,,,,,,,,,,,,,,,,,,53,150094,22,Female,1,2024/02/13_14:03:56,YZ,59.94891729040235,
,,,,,,calibration,0,10,2,2583,4,V,0,left,0.36673395600519143,0,0,,,,,,,,,,,,,,,,,,,,,1,,,,,,,,,,,,,,,,,,,,,,,,,,,,,,,,,,,,,,,,,,,,,,53,150094,22,Female,1,2024/02/13_14:03:56,YZ,59.94891729040235,
,,,,,,calibration,0,10,2,2583,5,J,0,left,0.47385946099529974,0,0,,,,,,,,,,,,,,,,,,,,,1,,,,,,,,,,,,,,,,,,,,,,,,,,,,,,,,,,,,,,,,,,,,,,53,150094,22,Female,1,2024/02/13_14:03:56,YZ,59.94891729040235,
,,,,,,calibration,0,10,2,2583,6,V,1,right,0.5600727580022067,0,0,,,,,,,,,,,,,,,,,,,,,1,,,,,,,,,,,,,,,,,,,,,,,,,,,,,,,,,,,,,,,,,,,,,,53,150094,22,Female,1,2024/02/13_14:03:56,YZ,59.94891729040235,
,,,,,,calibration,0,10,2,2583,,,,,,,,0.0,0.0,1.0,0.0,0.0,0.0,0.41006842933226534,0,4,0,0,0,0,0,2,4,0,,,,1,,,,,,,,,,,,,,,,,,,,,,,,,,,,,,,,,,,,,,,,,,,,,,53,150094,22,Female,1,2024/02/13_14:03:56,YZ,59.94891729040235,
,,,,,,Calibration,0,,2,2583,,,,,,,,,,,,,,,,,,,,,,,,,13,,,1,,,,,,,,,,,,,,,,,,,,,,,,,,,,,,,,,,,,,,,,,,,,,,53,150094,22,Female,1,2024/02/13_14:03:56,YZ,59.94891729040235,
,,,,,,calibration,0,33,2,2583,1,F,0,left,0.34409946799860336,0,0,,,,,,,,,,,,,,,,,,,,,1,,,,,,,,,,,,,,,,,,,,,,,,,,,,,,,,,,,,,,,,,,,,,,53,150094,22,Female,1,2024/02/13_14:03:56,YZ,59.94891729040235,
,,,,,,calibration,0,33,2,2583,2,Q,0,left,0.4276951729989378,0,0,,,,,,,,,,,,,,,,,,,,,1,,,,,,,,,,,,,,,,,,,,,,,,,,,,,,,,,,,,,,,,,,,,,,53,150094,22,Female,1,2024/02/13_14:03:56,YZ,59.94891729040235,
,,,,,,calibration,0,33,2,2583,3,X,0,left,0.6411166479956592,0,0,,,,,,,,,,,,,,,,,,,,,1,,,,,,,,,,,,,,,,,,,,,,,,,,,,,,,,,,,,,,,,,,,,,,53,150094,22,Female,1,2024/02/13_14:03:56,YZ,59.94891729040235,
,,,,,,calibration,0,33,2,2583,4,Q,1,left,0.3989262550021522,1,0,,,,,,,,,,,,,,,,,,,,,1,,,,,,,,,,,,,,,,,,,,,,,,,,,,,,,,,,,,,,,,,,,,,,53,150094,22,Female,1,2024/02/13_14:03:56,YZ,59.94891729040235,
,,,,,,calibration,0,33,2,2583,5,X,1,left,0.49495341700094286,1,0,,,,,,,,,,,,,,,,,,,,,1,,,,,,,,,,,,,,,,,,,,,,,,,,,,,,,,,,,,,,,,,,,,,,53,150094,22,Female,1,2024/02/13_14:03:56,YZ,59.94891729040235,
,,,,,,calibration,0,33,2,2583,6,J,0,left,0.6617086490005022,0,0,,,,,,,,,,,,,,,,,,,,,1,,,,,,,,,,,,,,,,,,,,,,,,,,,,,,,,,,,,,,,,,,,,,,53,150094,22,Female,1,2024/02/13_14:03:56,YZ,59.94891729040235,
,,,,,,calibration,0,33,2,2583,,,,,,,,0.5,1.0,1.0,0.0,0.0,0.0,0.49474993499946623,2,4,0,0,0,0,2,2,4,0,,,,1,,,,,,,,,,,,,,,,,,,,,,,,,,,,,,,,,,,,,,,,,,,,,,53,150094,22,Female,1,2024/02/13_14:03:56,YZ,59.94891729040235,
,,,,,,Calibration,0,,2,2583,,,,,,,,,,,,,,,,,,,,,,,,,14,,,1,,,,,,,,,,,,,,,,,,,,,,,,,,,,,,,,,,,,,,,,,,,,,,53,150094,22,Female,1,2024/02/13_14:03:56,YZ,59.94891729040235,
,,,,,,calibration,0,9,2,2583,1,S,0,left,0.8789690880075796,0,0,,,,,,,,,,,,,,,,,,,,,1,,,,,,,,,,,,,,,,,,,,,,,,,,,,,,,,,,,,,,,,,,,,,,53,150094,22,Female,1,2024/02/13_14:03:56,YZ,59.94891729040235,
,,,,,,calibration,0,9,2,2583,2,V,0,left,0.2680186950019561,0,0,,,,,,,,,,,,,,,,,,,,,1,,,,,,,,,,,,,,,,,,,,,,,,,,,,,,,,,,,,,,,,,,,,,,53,150094,22,Female,1,2024/02/13_14:03:56,YZ,59.94891729040235,
,,,,,,calibration,0,9,2,2583,3,X,0,right,0.44487807400582824,1,0,,,,,,,,,,,,,,,,,,,,,1,,,,,,,,,,,,,,,,,,,,,,,,,,,,,,,,,,,,,,,,,,,,,,53,150094,22,Female,1,2024/02/13_14:03:56,YZ,59.94891729040235,
,,,,,,calibration,0,9,2,2583,4,S,0,left,0.3049283459986327,0,0,,,,,,,,,,,,,,,,,,,,,1,,,,,,,,,,,,,,,,,,,,,,,,,,,,,,,,,,,,,,,,,,,,,,53,150094,22,Female,1,2024/02/13_14:03:56,YZ,59.94891729040235,
,,,,,,calibration,0,9,2,2583,5,X,1,left,0.48727738900925033,1,0,,,,,,,,,,,,,,,,,,,,,1,,,,,,,,,,,,,,,,,,,,,,,,,,,,,,,,,,,,,,,,,,,,,,53,150094,22,Female,1,2024/02/13_14:03:56,YZ,59.94891729040235,
,,,,,,calibration,0,9,2,2583,6,S,1,right,0.39921233100176323,0,0,,,,,,,,,,,,,,,,,,,,,1,,,,,,,,,,,,,,,,,,,,,,,,,,,,,,,,,,,,,,,,,,,,,,53,150094,22,Female,1,2024/02/13_14:03:56,YZ,59.94891729040235,
,,,,,,calibration,0,9,2,2583,,,,,,,,0.0625,0.5,0.75,0.25,0.0,0.25,0.4638806538375017,1,3,0,0,0,1,2,2,4,0,,,,1,,,,,,,,,,,,,,,,,,,,,,,,,,,,,,,,,,,,,,,,,,,,,,53,150094,22,Female,1,2024/02/13_14:03:56,YZ,59.94891729040235,
,,,,,,Calibration,0,,2,2583,,,,,,,,,,,,,,,,,,,,,,,,,15,,,1,,,,,,,,,,,,,,,,,,,,,,,,,,,,,,,,,,,,,,,,,,,,,,53,150094,22,Female,1,2024/02/13_14:03:56,YZ,59.94891729040235,
,,,,,,calibration,0,24,2,2583,1,V,0,left,0.19756342099572066,0,0,,,,,,,,,,,,,,,,,,,,,1,,,,,,,,,,,,,,,,,,,,,,,,,,,,,,,,,,,,,,,,,,,,,,53,150094,22,Female,1,2024/02/13_14:03:56,YZ,59.94891729040235,
,,,,,,calibration,0,24,2,2583,2,X,0,left,0.4695839839987457,0,0,,,,,,,,,,,,,,,,,,,,,1,,,,,,,,,,,,,,,,,,,,,,,,,,,,,,,,,,,,,,,,,,,,,,53,150094,22,Female,1,2024/02/13_14:03:56,YZ,59.94891729040235,
,,,,,,calibration,0,24,2,2583,3,V,1,left,0.0,1,0,,,,,,,,,,,,,,,,,,,,,1,,,,,,,,,,,,,,,,,,,,,,,,,,,,,,,,,,,,,,,,,,,,,,53,150094,22,Female,1,2024/02/13_14:03:56,YZ,59.94891729040235,
,,,,,,calibration,0,24,2,2583,4,X,1,right,0.0,0,0,,,,,,,,,,,,,,,,,,,,,1,,,,,,,,,,,,,,,,,,,,,,,,,,,,,,,,,,,,,,,,,,,,,,53,150094,22,Female,1,2024/02/13_14:03:56,YZ,59.94891729040235,
,,,,,,calibration,0,24,2,2583,5,N,0,left,0.0,0,0,,,,,,,,,,,,,,,,,,,,,1,,,,,,,,,,,,,,,,,,,,,,,,,,,,,,,,,,,,,,,,,,,,,,53,150094,22,Female,1,2024/02/13_14:03:56,YZ,59.94891729040235,
,,,,,,calibration,0,24,2,2583,6,J,0,right,0.0005353730084607378,1,0,,,,,,,,,,,,,,,,,,,,,1,,,,,,,,,,,,,,,,,,,,,,,,,,,,,,,,,,,,,,,,,,,,,,53,150094,22,Female,1,2024/02/13_14:03:56,YZ,59.94891729040235,
,,,,,,calibration,0,24,2,2583,,,,,,,,0.0625,0.5,0.75,0.25,0.0,0.25,0.11128046300048784,1,3,0,0,0,1,2,2,4,0,,,,1,,,,,,,,,,,,,,,,,,,,,,,,,,,,,,,,,,,,,,,,,,,,,,53,150094,22,Female,1,2024/02/13_14:03:56,YZ,59.94891729040235,
,,,,,,Calibration,0,,2,2583,,,,,,,,,,,,,,,,,,,,,,,,,16,,,1,,,,,,,,,,,,,,,,,,,,,,,,,,,,,,,,,,,,,,,,,,,,,,53,150094,22,Female,1,2024/02/13_14:03:56,YZ,59.94891729040235,
,,,,,,calibration,0,8,2,2583,1,S,0,left,0.5260505220066989,0,0,,,,,,,,,,,,,,,,,,,,,1,,,,,,,,,,,,,,,,,,,,,,,,,,,,,,,,,,,,,,,,,,,,,,53,150094,22,Female,1,2024/02/13_14:03:56,YZ,59.94891729040235,
,,,,,,calibration,0,8,2,2583,2,X,0,left,0.7206731540063629,0,0,,,,,,,,,,,,,,,,,,,,,1,,,,,,,,,,,,,,,,,,,,,,,,,,,,,,,,,,,,,,,,,,,,,,53,150094,22,Female,1,2024/02/13_14:03:56,YZ,59.94891729040235,
,,,,,,calibration,0,8,2,2583,3,S,1,right,0.25912626800709404,0,0,,,,,,,,,,,,,,,,,,,,,1,,,,,,,,,,,,,,,,,,,,,,,,,,,,,,,,,,,,,,,,,,,,,,53,150094,22,Female,1,2024/02/13_14:03:56,YZ,59.94891729040235,
,,,,,,calibration,0,8,2,2583,4,J,0,left,0.42375891299161594,0,0,,,,,,,,,,,,,,,,,,,,,1,,,,,,,,,,,,,,,,,,,,,,,,,,,,,,,,,,,,,,,,,,,,,,53,150094,22,Female,1,2024/02/13_14:03:56,YZ,59.94891729040235,
,,,,,,calibration,0,8,2,2583,5,V,0,left,0.49001702599343844,0,0,,,,,,,,,,,,,,,,,,,,,1,,,,,,,,,,,,,,,,,,,,,,,,,,,,,,,,,,,,,,,,,,,,,,53,150094,22,Female,1,2024/02/13_14:03:56,YZ,59.94891729040235,
,,,,,,calibration,0,8,2,2583,6,J,1,right,0.3276439869950991,0,0,,,,,,,,,,,,,,,,,,,,,1,,,,,,,,,,,,,,,,,,,,,,,,,,,,,,,,,,,,,,,,,,,,,,53,150094,22,Female,1,2024/02/13_14:03:56,YZ,59.94891729040235,
,,,,,,calibration,0,8,2,2583,,,,,,,,0.0,0.0,1.0,0.0,0.0,0.0,0.4578783116667182,0,4,0,0,0,0,0,2,4,0,,,,1,,,,,,,,,,,,,,,,,,,,,,,,,,,,,,,,,,,,,,,,,,,,,,53,150094,22,Female,1,2024/02/13_14:03:56,YZ,59.94891729040235,
,,,,,,Calibration,0,,2,2583,,,,,,,,,,,,,,,,,,,,,,,,,17,,,1,,,,,,,,,,,,,,,,,,,,,,,,,,,,,,,,,,,,,,,,,,,,,,53,150094,22,Female,1,2024/02/13_14:03:56,YZ,59.94891729040235,
,,,,,,calibration,0,30,2,2583,1,X,0,left,0.27204614800575655,0,0,,,,,,,,,,,,,,,,,,,,,1,,,,,,,,,,,,,,,,,,,,,,,,,,,,,,,,,,,,,,,,,,,,,,53,150094,22,Female,1,2024/02/13_14:03:56,YZ,59.94891729040235,
,,,,,,calibration,0,30,2,2583,2,S,0,left,0.19885473800241016,0,0,,,,,,,,,,,,,,,,,,,,,1,,,,,,,,,,,,,,,,,,,,,,,,,,,,,,,,,,,,,,,,,,,,,,53,150094,22,Female,1,2024/02/13_14:03:56,YZ,59.94891729040235,
,,,,,,calibration,0,30,2,2583,3,X,1,right,0.42894369100395124,0,0,,,,,,,,,,,,,,,,,,,,,1,,,,,,,,,,,,,,,,,,,,,,,,,,,,,,,,,,,,,,,,,,,,,,53,150094,22,Female,1,2024/02/13_14:03:56,YZ,59.94891729040235,
,,,,,,calibration,0,30,2,2583,4,N,0,left,0.21681145099864807,0,0,,,,,,,,,,,,,,,,,,,,,1,,,,,,,,,,,,,,,,,,,,,,,,,,,,,,,,,,,,,,,,,,,,,,53,150094,22,Female,1,2024/02/13_14:03:56,YZ,59.94891729040235,
,,,,,,calibration,0,30,2,2583,5,C,0,right,0.4289255879994016,1,0,,,,,,,,,,,,,,,,,,,,,1,,,,,,,,,,,,,,,,,,,,,,,,,,,,,,,,,,,,,,,,,,,,,,53,150094,22,Female,1,2024/02/13_14:03:56,YZ,59.94891729040235,
,,,,,,calibration,0,30,2,2583,6,N,1,right,0.4909820189932361,0,0,,,,,,,,,,,,,,,,,,,,,1,,,,,,,,,,,,,,,,,,,,,,,,,,,,,,,,,,,,,,,,,,,,,,53,150094,22,Female,1,2024/02/13_14:03:56,YZ,59.94891729040235,
,,,,,,calibration,0,30,2,2583,,,,,,,,0.0625,0.0,0.75,0.25,0.0,0.25,0.3394272725005673,0,3,0,0,0,1,1,2,4,0,,,,1,,,,,,,,,,,,,,,,,,,,,,,,,,,,,,,,,,,,,,,,,,,,,,53,150094,22,Female,1,2024/02/13_14:03:56,YZ,59.94891729040235,
,,,,,,Calibration,0,,2,2583,,,,,,,,,,,,,,,,,,,,,,,,,18,,,1,,,,,,,,,,,,,,,,,,,,,,,,,,,,,,,,,,,,,,,,,,,,,,53,150094,22,Female,1,2024/02/13_14:03:56,YZ,59.94891729040235,
,,,,,,calibration,0,12,2,2583,1,F,0,left,0.23800418998871464,0,0,,,,,,,,,,,,,,,,,,,,,1,,,,,,,,,,,,,,,,,,,,,,,,,,,,,,,,,,,,,,,,,,,,,,53,150094,22,Female,1,2024/02/13_14:03:56,YZ,59.94891729040235,
,,,,,,calibration,0,12,2,2583,2,F,0,left,0.29381775500951335,0,0,,,,,,,,,,,,,,,,,,,,,1,,,,,,,,,,,,,,,,,,,,,,,,,,,,,,,,,,,,,,,,,,,,,,53,150094,22,Female,1,2024/02/13_14:03:56,YZ,59.94891729040235,
,,,,,,calibration,0,12,2,2583,3,C,0,left,0.610342430009041,0,0,,,,,,,,,,,,,,,,,,,,,1,,,,,,,,,,,,,,,,,,,,,,,,,,,,,,,,,,,,,,,,,,,,,,53,150094,22,Female,1,2024/02/13_14:03:56,YZ,59.94891729040235,
,,,,,,calibration,0,12,2,2583,4,F,1,right,0.6138098440133035,0,0,,,,,,,,,,,,,,,,,,,,,1,,,,,,,,,,,,,,,,,,,,,,,,,,,,,,,,,,,,,,,,,,,,,,53,150094,22,Female,1,2024/02/13_14:03:56,YZ,59.94891729040235,
,,,,,,calibration,0,12,2,2583,5,C,1,right,0.43771040299907327,0,0,,,,,,,,,,,,,,,,,,,,,1,,,,,,,,,,,,,,,,,,,,,,,,,,,,,,,,,,,,,,,,,,,,,,53,150094,22,Female,1,2024/02/13_14:03:56,YZ,59.94891729040235,
,,,,,,calibration,0,12,2,2583,6,V,0,left,0.3661752620100742,0,0,,,,,,,,,,,,,,,,,,,,,1,,,,,,,,,,,,,,,,,,,,,,,,,,,,,,,,,,,,,,,,,,,,,,53,150094,22,Female,1,2024/02/13_14:03:56,YZ,59.94891729040235,
,,,,,,calibration,0,12,2,2583,,,,,,,,0.0,0.0,1.0,0.0,0.0,0.0,0.4266433140049533,0,4,0,0,0,0,0,2,4,0,,,,1,,,,,,,,,,,,,,,,,,,,,,,,,,,,,,,,,,,,,,,,,,,,,,53,150094,22,Female,1,2024/02/13_14:03:56,YZ,59.94891729040235,
,,,,,,Calibration,0,,2,2583,,,,,,,,,,,,,,,,,,,,,,,,,19,,,1,,,,,,,,,,,,,,,,,,,,,,,,,,,,,,,,,,,,,,,,,,,,,,53,150094,22,Female,1,2024/02/13_14:03:56,YZ,59.94891729040235,
,,,,,,calibration,0,3,2,2583,1,X,0,left,0.16409982199547812,0,0,,,,,,,,,,,,,,,,,,,,,1,,,,,,,,,,,,,,,,,,,,,,,,,,,,,,,,,,,,,,,,,,,,,,53,150094,22,Female,1,2024/02/13_14:03:56,YZ,59.94891729040235,
,,,,,,calibration,0,3,2,2583,2,N,0,left,0.4224290620040847,0,0,,,,,,,,,,,,,,,,,,,,,1,,,,,,,,,,,,,,,,,,,,,,,,,,,,,,,,,,,,,,,,,,,,,,53,150094,22,Female,1,2024/02/13_14:03:56,YZ,59.94891729040235,
,,,,,,calibration,0,3,2,2583,3,V,0,left,0.43241315700288396,0,0,,,,,,,,,,,,,,,,,,,,,1,,,,,,,,,,,,,,,,,,,,,,,,,,,,,,,,,,,,,,,,,,,,,,53,150094,22,Female,1,2024/02/13_14:03:56,YZ,59.94891729040235,
,,,,,,calibration,0,3,2,2583,4,N,1,right,0.5132982810027897,0,0,,,,,,,,,,,,,,,,,,,,,1,,,,,,,,,,,,,,,,,,,,,,,,,,,,,,,,,,,,,,,,,,,,,,53,150094,22,Female,1,2024/02/13_14:03:56,YZ,59.94891729040235,
,,,,,,calibration,0,3,2,2583,5,S,0,left,0.397501472994918,0,0,,,,,,,,,,,,,,,,,,,,,1,,,,,,,,,,,,,,,,,,,,,,,,,,,,,,,,,,,,,,,,,,,,,,53,150094,22,Female,1,2024/02/13_14:03:56,YZ,59.94891729040235,
,,,,,,calibration,0,3,2,2583,6,N,1,right,0.5830134919960983,0,0,,,,,,,,,,,,,,,,,,,,,1,,,,,,,,,,,,,,,,,,,,,,,,,,,,,,,,,,,,,,,,,,,,,,53,150094,22,Female,1,2024/02/13_14:03:56,YZ,59.94891729040235,
,,,,,,calibration,0,3,2,2583,,,,,,,,0.0,0.0,1.0,0.0,0.0,0.0,0.4187925478327088,0,4,0,0,0,0,0,2,4,0,,,,1,,,,,,,,,,,,,,,,,,,,,,,,,,,,,,,,,,,,,,,,,,,,,,53,150094,22,Female,1,2024/02/13_14:03:56,YZ,59.94891729040235,
,,,,,,Calibration,0,,2,2583,,,,,,,,,,,,,,,,,,,,,,,,,20,,,1,,,,,,,,,,,,,,,,,,,,,,,,,,,,,,,,,,,,,,,,,,,,,,53,150094,22,Female,1,2024/02/13_14:03:56,YZ,59.94891729040235,
,,,,,,calibration,0,1,2,2583,1,C,0,left,0.10913754100329243,0,0,,,,,,,,,,,,,,,,,,,,,1,,,,,,,,,,,,,,,,,,,,,,,,,,,,,,,,,,,,,,,,,,,,,,53,150094,22,Female,1,2024/02/13_14:03:56,YZ,59.94891729040235,
,,,,,,calibration,0,1,2,2583,2,C,0,left,0.2899194250057917,0,0,,,,,,,,,,,,,,,,,,,,,1,,,,,,,,,,,,,,,,,,,,,,,,,,,,,,,,,,,,,,,,,,,,,,53,150094,22,Female,1,2024/02/13_14:03:56,YZ,59.94891729040235,
,,,,,,calibration,0,1,2,2583,3,C,1,right,0.33548989999690093,0,0,,,,,,,,,,,,,,,,,,,,,1,,,,,,,,,,,,,,,,,,,,,,,,,,,,,,,,,,,,,,,,,,,,,,53,150094,22,Female,1,2024/02/13_14:03:56,YZ,59.94891729040235,
,,,,,,calibration,0,1,2,2583,4,N,0,left,0.3096704319905257,0,0,,,,,,,,,,,,,,,,,,,,,1,,,,,,,,,,,,,,,,,,,,,,,,,,,,,,,,,,,,,,,,,,,,,,53,150094,22,Female,1,2024/02/13_14:03:56,YZ,59.94891729040235,
,,,,,,calibration,0,1,2,2583,5,C,1,right,0.4750301690073684,0,0,,,,,,,,,,,,,,,,,,,,,1,,,,,,,,,,,,,,,,,,,,,,,,,,,,,,,,,,,,,,,,,,,,,,53,150094,22,Female,1,2024/02/13_14:03:56,YZ,59.94891729040235,
,,,,,,calibration,0,1,2,2583,6,V,0,left,0.4759602169942809,0,0,,,,,,,,,,,,,,,,,,,,,1,,,,,,,,,,,,,,,,,,,,,,,,,,,,,,,,,,,,,,,,,,,,,,53,150094,22,Female,1,2024/02/13_14:03:56,YZ,59.94891729040235,
,,,,,,calibration,0,1,2,2583,,,,,,,,0.0,0.0,1.0,0.0,0.0,0.0,0.33253461399969336,0,4,0,0,0,0,0,2,4,0,,,,1,,,,,,,,,,,,,,,,,,,,,,,,,,,,,,,,,,,,,,,,,,,,,,53,150094,22,Female,1,2024/02/13_14:03:56,YZ,59.94891729040235,
,,,,,,Calibration,0,,2,2583,,,,,,,,,,,,,,,,,,,,,,,,,21,,,1,,,,,,,,,,,,,,,,,,,,,,,,,,,,,,,,,,,,,,,,,,,,,,53,150094,22,Female,1,2024/02/13_14:03:56,YZ,59.94891729040235,
,,,,,,calibration,0,22,2,2583,1,F,0,left,0.27544116700300947,0,0,,,,,,,,,,,,,,,,,,,,,1,,,,,,,,,,,,,,,,,,,,,,,,,,,,,,,,,,,,,,,,,,,,,,53,150094,22,Female,1,2024/02/13_14:03:56,YZ,59.94891729040235,
,,,,,,calibration,0,22,2,2583,2,X,0,left,0.0428121739969356,0,0,,,,,,,,,,,,,,,,,,,,,1,,,,,,,,,,,,,,,,,,,,,,,,,,,,,,,,,,,,,,,,,,,,,,53,150094,22,Female,1,2024/02/13_14:03:56,YZ,59.94891729040235,
,,,,,,calibration,0,22,2,2583,3,Q,0,left,0.8443693169974722,0,0,,,,,,,,,,,,,,,,,,,,,1,,,,,,,,,,,,,,,,,,,,,,,,,,,,,,,,,,,,,,,,,,,,,,53,150094,22,Female,1,2024/02/13_14:03:56,YZ,59.94891729040235,
,,,,,,calibration,0,22,2,2583,4,V,0,left,0.5466438599978574,0,0,,,,,,,,,,,,,,,,,,,,,1,,,,,,,,,,,,,,,,,,,,,,,,,,,,,,,,,,,,,,,,,,,,,,53,150094,22,Female,1,2024/02/13_14:03:56,YZ,59.94891729040235,
,,,,,,calibration,0,22,2,2583,5,Q,1,right,0.6135268920043018,0,0,,,,,,,,,,,,,,,,,,,,,1,,,,,,,,,,,,,,,,,,,,,,,,,,,,,,,,,,,,,,,,,,,,,,53,150094,22,Female,1,2024/02/13_14:03:56,YZ,59.94891729040235,
,,,,,,calibration,0,22,2,2583,6,V,1,right,0.5314013680035714,0,0,,,,,,,,,,,,,,,,,,,,,1,,,,,,,,,,,,,,,,,,,,,,,,,,,,,,,,,,,,,,,,,,,,,,53,150094,22,Female,1,2024/02/13_14:03:56,YZ,59.94891729040235,
,,,,,,calibration,0,22,2,2583,,,,,,,,0.0,0.0,1.0,0.0,0.0,0.0,0.4756991296671913,0,4,0,0,0,0,0,2,4,0,,,,1,,,,,,,,,,,,,,,,,,,,,,,,,,,,,,,,,,,,,,,,,,,,,,53,150094,22,Female,1,2024/02/13_14:03:56,YZ,59.94891729040235,
,,,,,,Calibration,0,,2,2583,,,,,,,,,,,,,,,,,,,,,,,,,22,,,1,,,,,,,,,,,,,,,,,,,,,,,,,,,,,,,,,,,,,,,,,,,,,,53,150094,22,Female,1,2024/02/13_14:03:56,YZ,59.94891729040235,
,,,,,,calibration,0,3,2,2583,1,X,0,left,0.15857259999029338,0,0,,,,,,,,,,,,,,,,,,,,,1,,,,,,,,,,,,,,,,,,,,,,,,,,,,,,,,,,,,,,,,,,,,,,53,150094,22,Female,1,2024/02/13_14:03:56,YZ,59.94891729040235,
,,,,,,calibration,0,3,2,2583,2,N,0,left,0.643138662999263,0,0,,,,,,,,,,,,,,,,,,,,,1,,,,,,,,,,,,,,,,,,,,,,,,,,,,,,,,,,,,,,,,,,,,,,53,150094,22,Female,1,2024/02/13_14:03:56,YZ,59.94891729040235,
,,,,,,calibration,0,3,2,2583,3,V,0,left,0.43546906900883187,0,0,,,,,,,,,,,,,,,,,,,,,1,,,,,,,,,,,,,,,,,,,,,,,,,,,,,,,,,,,,,,,,,,,,,,53,150094,22,Female,1,2024/02/13_14:03:56,YZ,59.94891729040235,
,,,,,,calibration,0,3,2,2583,4,N,1,right,0.49311431900423486,0,0,,,,,,,,,,,,,,,,,,,,,1,,,,,,,,,,,,,,,,,,,,,,,,,,,,,,,,,,,,,,,,,,,,,,53,150094,22,Female,1,2024/02/13_14:03:56,YZ,59.94891729040235,
,,,,,,calibration,0,3,2,2583,5,S,0,left,0.3915785449935356,0,0,,,,,,,,,,,,,,,,,,,,,1,,,,,,,,,,,,,,,,,,,,,,,,,,,,,,,,,,,,,,,,,,,,,,53,150094,22,Female,1,2024/02/13_14:03:56,YZ,59.94891729040235,
,,,,,,calibration,0,3,2,2583,6,N,1,right,0.5772880560107296,0,0,,,,,,,,,,,,,,,,,,,,,1,,,,,,,,,,,,,,,,,,,,,,,,,,,,,,,,,,,,,,,,,,,,,,53,150094,22,Female,1,2024/02/13_14:03:56,YZ,59.94891729040235,
,,,,,,calibration,0,3,2,2583,,,,,,,,0.0,0.0,1.0,0.0,0.0,0.0,0.44986020866781473,0,4,0,0,0,0,0,2,4,0,,,,1,,,,,,,,,,,,,,,,,,,,,,,,,,,,,,,,,,,,,,,,,,,,,,53,150094,22,Female,1,2024/02/13_14:03:56,YZ,59.94891729040235,
,,,,,,Calibration,0,,2,2583,,,,,,,,,,,,,,,,,,,,,,,,,23,,,1,,,,,,,,,,,,,,,,,,,,,,,,,,,,,,,,,,,,,,,,,,,,,,53,150094,22,Female,1,2024/02/13_14:03:56,YZ,59.94891729040235,
,,,,,,calibration,0,34,2,2583,1,F,0,left,0.2238510640017921,0,0,,,,,,,,,,,,,,,,,,,,,1,,,,,,,,,,,,,,,,,,,,,,,,,,,,,,,,,,,,,,,,,,,,,,53,150094,22,Female,1,2024/02/13_14:03:56,YZ,59.94891729040235,
,,,,,,calibration,0,34,2,2583,2,J,0,left,0.34314897100557573,0,0,,,,,,,,,,,,,,,,,,,,,1,,,,,,,,,,,,,,,,,,,,,,,,,,,,,,,,,,,,,,,,,,,,,,53,150094,22,Female,1,2024/02/13_14:03:56,YZ,59.94891729040235,
,,,,,,calibration,0,34,2,2583,3,C,0,right,0.4508212579967221,1,0,,,,,,,,,,,,,,,,,,,,,1,,,,,,,,,,,,,,,,,,,,,,,,,,,,,,,,,,,,,,,,,,,,,,53,150094,22,Female,1,2024/02/13_14:03:56,YZ,59.94891729040235,
,,,,,,calibration,0,34,2,2583,4,N,0,left,0.229512606994831,0,0,,,,,,,,,,,,,,,,,,,,,1,,,,,,,,,,,,,,,,,,,,,,,,,,,,,,,,,,,,,,,,,,,,,,53,150094,22,Female,1,2024/02/13_14:03:56,YZ,59.94891729040235,
,,,,,,calibration,0,34,2,2583,5,C,1,left,nan,0,1,,,,,,,,,,,,,,,,,,,,,1,,,,,,,,,,,,,,,,,,,,,,,,,,,,,,,,,,,,,,,,,,,,,,53,150094,22,Female,1,2024/02/13_14:03:56,YZ,59.94891729040235,
,,,,,,calibration,0,34,2,2583,6,N,1,left,0.2962120279989904,1,0,,,,,,,,,,,,,,,,,,,,,1,,,,,,,,,,,,,,,,,,,,,,,,,,,,,,,,,,,,,,,,,,,,,,53,150094,22,Female,1,2024/02/13_14:03:56,YZ,59.94891729040235,
,,,,,,calibration,0,34,2,2583,,,,,,,,0.0625,0.5,0.75,0.25,0.16666666666666666,0.08333333333333334,0.30870918559958227,1,3,1,0,1,1,2,2,4,0,,,,1,,,,,,,,,,,,,,,,,,,,,,,,,,,,,,,,,,,,,,,,,,,,,,53,150094,22,Female,1,2024/02/13_14:03:56,YZ,59.94891729040235,
,,,,,,Calibration,0,,2,2583,,,,,,,,,,,,,,,,,,,,,,,,,24,,,1,,,,,,,,,,,,,,,,,,,,,,,,,,,,,,,,,,,,,,,,,,,,,,53,150094,22,Female,1,2024/02/13_14:03:56,YZ,59.94891729040235,
,,,,,,calibration,0,11,2,2583,1,N,0,left,0.2532090379972942,0,0,,,,,,,,,,,,,,,,,,,,,1,,,,,,,,,,,,,,,,,,,,,,,,,,,,,,,,,,,,,,,,,,,,,,53,150094,22,Female,1,2024/02/13_14:03:56,YZ,59.94891729040235,
,,,,,,calibration,0,11,2,2583,2,J,0,left,0.39701139098906424,0,0,,,,,,,,,,,,,,,,,,,,,1,,,,,,,,,,,,,,,,,,,,,,,,,,,,,,,,,,,,,,,,,,,,,,53,150094,22,Female,1,2024/02/13_14:03:56,YZ,59.94891729040235,
,,,,,,calibration,0,11,2,2583,3,X,0,left,0.513434676991892,0,0,,,,,,,,,,,,,,,,,,,,,1,,,,,,,,,,,,,,,,,,,,,,,,,,,,,,,,,,,,,,,,,,,,,,53,150094,22,Female,1,2024/02/13_14:03:56,YZ,59.94891729040235,
,,,,,,calibration,0,11,2,2583,4,J,1,right,0.8300510510016466,0,0,,,,,,,,,,,,,,,,,,,,,1,,,,,,,,,,,,,,,,,,,,,,,,,,,,,,,,,,,,,,,,,,,,,,53,150094,22,Female,1,2024/02/13_14:03:56,YZ,59.94891729040235,
,,,,,,calibration,0,11,2,2583,5,C,0,left,0.578964297004859,0,0,,,,,,,,,,,,,,,,,,,,,1,,,,,,,,,,,,,,,,,,,,,,,,,,,,,,,,,,,,,,,,,,,,,,53,150094,22,Female,1,2024/02/13_14:03:56,YZ,59.94891729040235,
,,,,,,calibration,0,11,2,2583,6,J,1,right,0.6004565570037812,0,0,,,,,,,,,,,,,,,,,,,,,1,,,,,,,,,,,,,,,,,,,,,,,,,,,,,,,,,,,,,,,,,,,,,,53,150094,22,Female,1,2024/02/13_14:03:56,YZ,59.94891729040235,
,,,,,,calibration,0,11,2,2583,,,,,,,,0.0,0.0,1.0,0.0,0.0,0.0,0.5288545018314229,0,4,0,0,0,0,0,2,4,0,,,,1,,,,,,,,,,,,,,,,,,,,,,,,,,,,,,,,,,,,,,,,,,,,,,53,150094,22,Female,1,2024/02/13_14:03:56,YZ,59.94891729040235,
,,,,,,Calibration,0,,2,2583,,,,,,,,,,,,,,,,,,,,,,,,,25,,,1,,,,,,,,,,,,,,,,,,,,,,,,,,,,,,,,,,,,,,,,,,,,,,53,150094,22,Female,1,2024/02/13_14:03:56,YZ,59.94891729040235,
,,,,,,calibration,0,13,2,2583,1,F,0,left,0.25161408899293747,0,0,,,,,,,,,,,,,,,,,,,,,1,,,,,,,,,,,,,,,,,,,,,,,,,,,,,,,,,,,,,,,,,,,,,,53,150094,22,Female,1,2024/02/13_14:03:56,YZ,59.94891729040235,
,,,,,,calibration,0,13,2,2583,2,J,0,left,0.4844859659933718,0,0,,,,,,,,,,,,,,,,,,,,,1,,,,,,,,,,,,,,,,,,,,,,,,,,,,,,,,,,,,,,,,,,,,,,53,150094,22,Female,1,2024/02/13_14:03:56,YZ,59.94891729040235,
,,,,,,calibration,0,13,2,2583,3,F,1,right,0.33427969900367316,0,0,,,,,,,,,,,,,,,,,,,,,1,,,,,,,,,,,,,,,,,,,,,,,,,,,,,,,,,,,,,,,,,,,,,,53,150094,22,Female,1,2024/02/13_14:03:56,YZ,59.94891729040235,
,,,,,,calibration,0,13,2,2583,4,N,0,left,0.35236559400800616,0,0,,,,,,,,,,,,,,,,,,,,,1,,,,,,,,,,,,,,,,,,,,,,,,,,,,,,,,,,,,,,,,,,,,,,53,150094,22,Female,1,2024/02/13_14:03:56,YZ,59.94891729040235,
,,,,,,calibration,0,13,2,2583,5,F,1,right,0.6104296620032983,0,0,,,,,,,,,,,,,,,,,,,,,1,,,,,,,,,,,,,,,,,,,,,,,,,,,,,,,,,,,,,,,,,,,,,,53,150094,22,Female,1,2024/02/13_14:03:56,YZ,59.94891729040235,
,,,,,,calibration,0,13,2,2583,6,V,0,left,0.6124941790039884,0,0,,,,,,,,,,,,,,,,,,,,,1,,,,,,,,,,,,,,,,,,,,,,,,,,,,,,,,,,,,,,,,,,,,,,53,150094,22,Female,1,2024/02/13_14:03:56,YZ,59.94891729040235,
,,,,,,calibration,0,13,2,2583,,,,,,,,0.0,0.0,1.0,0.0,0.0,0.0,0.4409448648342125,0,4,0,0,0,0,0,2,4,0,,,,1,,,,,,,,,,,,,,,,,,,,,,,,,,,,,,,,,,,,,,,,,,,,,,53,150094,22,Female,1,2024/02/13_14:03:56,YZ,59.94891729040235,
,,,,,,Calibration,0,,2,2583,,,,,,,,,,,,,,,,,,,,,,,,,26,,,1,,,,,,,,,,,,,,,,,,,,,,,,,,,,,,,,,,,,,,,,,,,,,,53,150094,22,Female,1,2024/02/13_14:03:56,YZ,59.94891729040235,
,,,,,,calibration,0,19,2,2583,1,N,0,left,0.678892847005045,0,0,,,,,,,,,,,,,,,,,,,,,1,,,,,,,,,,,,,,,,,,,,,,,,,,,,,,,,,,,,,,,,,,,,,,53,150094,22,Female,1,2024/02/13_14:03:56,YZ,59.94891729040235,
,,,,,,calibration,0,19,2,2583,2,Q,0,left,0.4856845610047458,0,0,,,,,,,,,,,,,,,,,,,,,1,,,,,,,,,,,,,,,,,,,,,,,,,,,,,,,,,,,,,,,,,,,,,,53,150094,22,Female,1,2024/02/13_14:03:56,YZ,59.94891729040235,
,,,,,,calibration,0,19,2,2583,3,N,1,right,0.5134304600069299,0,0,,,,,,,,,,,,,,,,,,,,,1,,,,,,,,,,,,,,,,,,,,,,,,,,,,,,,,,,,,,,,,,,,,,,53,150094,22,Female,1,2024/02/13_14:03:56,YZ,59.94891729040235,
,,,,,,calibration,0,19,2,2583,4,Q,1,right,0.4477280669962056,0,0,,,,,,,,,,,,,,,,,,,,,1,,,,,,,,,,,,,,,,,,,,,,,,,,,,,,,,,,,,,,,,,,,,,,53,150094,22,Female,1,2024/02/13_14:03:56,YZ,59.94891729040235,
,,,,,,calibration,0,19,2,2583,5,S,0,left,0.4067686979979044,0,0,,,,,,,,,,,,,,,,,,,,,1,,,,,,,,,,,,,,,,,,,,,,,,,,,,,,,,,,,,,,,,,,,,,,53,150094,22,Female,1,2024/02/13_14:03:56,YZ,59.94891729040235,
,,,,,,calibration,0,19,2,2583,6,V,0,left,0.5641448969981866,0,0,,,,,,,,,,,,,,,,,,,,,1,,,,,,,,,,,,,,,,,,,,,,,,,,,,,,,,,,,,,,,,,,,,,,53,150094,22,Female,1,2024/02/13_14:03:56,YZ,59.94891729040235,
,,,,,,calibration,0,19,2,2583,,,,,,,,0.0,0.0,1.0,0.0,0.0,0.0,0.5161082550015029,0,4,0,0,0,0,0,2,4,0,,,,1,,,,,,,,,,,,,,,,,,,,,,,,,,,,,,,,,,,,,,,,,,,,,,53,150094,22,Female,1,2024/02/13_14:03:56,YZ,59.94891729040235,
,,,,,,Calibration,0,,2,2583,,,,,,,,,,,,,,,,,,,,,,,,,27,,,1,,,,,,,,,,,,,,,,,,,,,,,,,,,,,,,,,,,,,,,,,,,,,,53,150094,22,Female,1,2024/02/13_14:03:56,YZ,59.94891729040235,
,,,,,,calibration,0,22,2,2583,1,F,0,left,0.2873324150132248,0,0,,,,,,,,,,,,,,,,,,,,,1,,,,,,,,,,,,,,,,,,,,,,,,,,,,,,,,,,,,,,,,,,,,,,53,150094,22,Female,1,2024/02/13_14:03:56,YZ,59.94891729040235,
,,,,,,calibration,0,22,2,2583,2,X,0,left,0.6957170499954373,0,0,,,,,,,,,,,,,,,,,,,,,1,,,,,,,,,,,,,,,,,,,,,,,,,,,,,,,,,,,,,,,,,,,,,,53,150094,22,Female,1,2024/02/13_14:03:56,YZ,59.94891729040235,
,,,,,,calibration,0,22,2,2583,3,Q,0,left,0.4939159839996137,0,0,,,,,,,,,,,,,,,,,,,,,1,,,,,,,,,,,,,,,,,,,,,,,,,,,,,,,,,,,,,,,,,,,,,,53,150094,22,Female,1,2024/02/13_14:03:56,YZ,59.94891729040235,
,,,,,,calibration,0,22,2,2583,4,V,0,left,0.5255973739986075,0,0,,,,,,,,,,,,,,,,,,,,,1,,,,,,,,,,,,,,,,,,,,,,,,,,,,,,,,,,,,,,,,,,,,,,53,150094,22,Female,1,2024/02/13_14:03:56,YZ,59.94891729040235,
,,,,,,calibration,0,22,2,2583,5,Q,1,right,0.5477879440004472,0,0,,,,,,,,,,,,,,,,,,,,,1,,,,,,,,,,,,,,,,,,,,,,,,,,,,,,,,,,,,,,,,,,,,,,53,150094,22,Female,1,2024/02/13_14:03:56,YZ,59.94891729040235,
,,,,,,calibration,0,22,2,2583,6,V,1,left,0.4647336040070513,1,0,,,,,,,,,,,,,,,,,,,,,1,,,,,,,,,,,,,,,,,,,,,,,,,,,,,,,,,,,,,,,,,,,,,,53,150094,22,Female,1,2024/02/13_14:03:56,YZ,59.94891729040235,
,,,,,,calibration,0,22,2,2583,,,,,,,,0.125,0.5,1.0,0.0,0.0,0.0,0.5025140618357303,1,4,0,0,0,0,1,2,4,0,,,,1,,,,,,,,,,,,,,,,,,,,,,,,,,,,,,,,,,,,,,,,,,,,,,53,150094,22,Female,1,2024/02/13_14:03:56,YZ,59.94891729040235,
,,,,,,Calibration,0,,2,2583,,,,,,,,,,,,,,,,,,,,,,,,,28,,,1,,,,,,,,,,,,,,,,,,,,,,,,,,,,,,,,,,,,,,,,,,,,,,53,150094,22,Female,1,2024/02/13_14:03:56,YZ,59.94891729040235,
,,,,,,calibration,0,11,2,2583,1,N,0,left,0.39561758100171573,0,0,,,,,,,,,,,,,,,,,,,,,1,,,,,,,,,,,,,,,,,,,,,,,,,,,,,,,,,,,,,,,,,,,,,,53,150094,22,Female,1,2024/02/13_14:03:56,YZ,59.94891729040235,
,,,,,,calibration,0,11,2,2583,2,J,0,left,0.3893064759904519,0,0,,,,,,,,,,,,,,,,,,,,,1,,,,,,,,,,,,,,,,,,,,,,,,,,,,,,,,,,,,,,,,,,,,,,53,150094,22,Female,1,2024/02/13_14:03:56,YZ,59.94891729040235,
,,,,,,calibration,0,11,2,2583,3,X,0,left,0.5479704779863823,0,0,,,,,,,,,,,,,,,,,,,,,1,,,,,,,,,,,,,,,,,,,,,,,,,,,,,,,,,,,,,,,,,,,,,,53,150094,22,Female,1,2024/02/13_14:03:56,YZ,59.94891729040235,
,,,,,,calibration,0,11,2,2583,4,J,1,right,0.42523659800644964,0,0,,,,,,,,,,,,,,,,,,,,,1,,,,,,,,,,,,,,,,,,,,,,,,,,,,,,,,,,,,,,,,,,,,,,53,150094,22,Female,1,2024/02/13_14:03:56,YZ,59.94891729040235,
,,,,,,calibration,0,11,2,2583,5,C,0,left,0.6922833230055403,0,0,,,,,,,,,,,,,,,,,,,,,1,,,,,,,,,,,,,,,,,,,,,,,,,,,,,,,,,,,,,,,,,,,,,,53,150094,22,Female,1,2024/02/13_14:03:56,YZ,59.94891729040235,
,,,,,,calibration,0,11,2,2583,6,J,1,right,0.6120793290028814,0,0,,,,,,,,,,,,,,,,,,,,,1,,,,,,,,,,,,,,,,,,,,,,,,,,,,,,,,,,,,,,,,,,,,,,53,150094,22,Female,1,2024/02/13_14:03:56,YZ,59.94891729040235,
,,,,,,calibration,0,11,2,2583,,,,,,,,0.0,0.0,1.0,0.0,0.0,0.0,0.5104156308322368,0,4,0,0,0,0,0,2,4,0,,,,1,,,,,,,,,,,,,,,,,,,,,,,,,,,,,,,,,,,,,,,,,,,,,,53,150094,22,Female,1,2024/02/13_14:03:56,YZ,59.94891729040235,
,,,,,,Calibration,0,,2,2583,,,,,,,,,,,,,,,,,,,,,,,,,29,,,1,,,,,,,,,,,,,,,,,,,,,,,,,,,,,,,,,,,,,,,,,,,,,,53,150094,22,Female,1,2024/02/13_14:03:56,YZ,59.94891729040235,
,,,,,,calibration,0,32,2,2583,1,F,0,left,0.34521879999374505,0,0,,,,,,,,,,,,,,,,,,,,,1,,,,,,,,,,,,,,,,,,,,,,,,,,,,,,,,,,,,,,,,,,,,,,53,150094,22,Female,1,2024/02/13_14:03:56,YZ,59.94891729040235,
,,,,,,calibration,0,32,2,2583,2,C,0,left,0.4552340079972055,0,0,,,,,,,,,,,,,,,,,,,,,1,,,,,,,,,,,,,,,,,,,,,,,,,,,,,,,,,,,,,,,,,,,,,,53,150094,22,Female,1,2024/02/13_14:03:56,YZ,59.94891729040235,
,,,,,,calibration,0,32,2,2583,3,Q,0,left,0.42403979699884076,0,0,,,,,,,,,,,,,,,,,,,,,1,,,,,,,,,,,,,,,,,,,,,,,,,,,,,,,,,,,,,,,,,,,,,,53,150094,22,Female,1,2024/02/13_14:03:56,YZ,59.94891729040235,
,,,,,,calibration,0,32,2,2583,4,C,1,right,0.3599689260008745,0,0,,,,,,,,,,,,,,,,,,,,,1,,,,,,,,,,,,,,,,,,,,,,,,,,,,,,,,,,,,,,,,,,,,,,53,150094,22,Female,1,2024/02/13_14:03:56,YZ,59.94891729040235,
,,,,,,calibration,0,32,2,2583,5,S,0,left,0.3602404090052005,0,0,,,,,,,,,,,,,,,,,,,,,1,,,,,,,,,,,,,,,,,,,,,,,,,,,,,,,,,,,,,,,,,,,,,,53,150094,22,Female,1,2024/02/13_14:03:56,YZ,59.94891729040235,
,,,,,,calibration,0,32,2,2583,6,C,1,right,0.6644016030040802,0,0,,,,,,,,,,,,,,,,,,,,,1,,,,,,,,,,,,,,,,,,,,,,,,,,,,,,,,,,,,,,,,,,,,,,53,150094,22,Female,1,2024/02/13_14:03:56,YZ,59.94891729040235,
,,,,,,calibration,0,32,2,2583,,,,,,,,0.0,0.0,1.0,0.0,0.0,0.0,0.4348505904999911,0,4,0,0,0,0,0,2,4,0,,,,1,,,,,,,,,,,,,,,,,,,,,,,,,,,,,,,,,,,,,,,,,,,,,,53,150094,22,Female,1,2024/02/13_14:03:56,YZ,59.94891729040235,
,,,,,,Calibration,0,,2,2583,,,,,,,,,,,,,,,,,,,,,,,,,30,,,1,,,,,,,,,,,,,,,,,,,,,,,,,,,,,,,,,,,,,,,,,,,,,,53,150094,22,Female,1,2024/02/13_14:03:56,YZ,59.94891729040235,
,,,,,,calibration,0,17,2,2583,1,Q,0,left,0.3941179030080093,0,0,,,,,,,,,,,,,,,,,,,,,1,,,,,,,,,,,,,,,,,,,,,,,,,,,,,,,,,,,,,,,,,,,,,,53,150094,22,Female,1,2024/02/13_14:03:56,YZ,59.94891729040235,
,,,,,,calibration,0,17,2,2583,2,N,0,left,0.32276107600773685,0,0,,,,,,,,,,,,,,,,,,,,,1,,,,,,,,,,,,,,,,,,,,,,,,,,,,,,,,,,,,,,,,,,,,,,53,150094,22,Female,1,2024/02/13_14:03:56,YZ,59.94891729040235,
,,,,,,calibration,0,17,2,2583,3,C,0,left,0.5589720569987549,0,0,,,,,,,,,,,,,,,,,,,,,1,,,,,,,,,,,,,,,,,,,,,,,,,,,,,,,,,,,,,,,,,,,,,,53,150094,22,Female,1,2024/02/13_14:03:56,YZ,59.94891729040235,
,,,,,,calibration,0,17,2,2583,4,N,1,left,0.7010324870061595,1,0,,,,,,,,,,,,,,,,,,,,,1,,,,,,,,,,,,,,,,,,,,,,,,,,,,,,,,,,,,,,,,,,,,,,53,150094,22,Female,1,2024/02/13_14:03:56,YZ,59.94891729040235,
,,,,,,calibration,0,17,2,2583,5,C,1,left,0.4509218379971571,1,0,,,,,,,,,,,,,,,,,,,,,1,,,,,,,,,,,,,,,,,,,,,,,,,,,,,,,,,,,,,,,,,,,,,,53,150094,22,Female,1,2024/02/13_14:03:56,YZ,59.94891729040235,
,,,,,,calibration,0,17,2,2583,6,J,0,left,0.5968792810017476,0,0,,,,,,,,,,,,,,,,,,,,,1,,,,,,,,,,,,,,,,,,,,,,,,,,,,,,,,,,,,,,,,,,,,,,53,150094,22,Female,1,2024/02/13_14:03:56,YZ,59.94891729040235,
,,,,,,calibration,0,17,2,2583,,,,,,,,0.5,1.0,1.0,0.0,0.0,0.0,0.5041141070032609,2,4,0,0,0,0,2,2,4,0,,,,1,,,,,,,,,,,,,,,,,,,,,,,,,,,,,,,,,,,,,,,,,,,,,,53,150094,22,Female,1,2024/02/13_14:03:56,YZ,59.94891729040235,
,,,,,,Calibration,0,,2,2583,,,,,,,,,,,,,,,,,,,,,,,,,31,,,1,,,,,,,,,,,,,,,,,,,,,,,,,,,,,,,,,,,,,,,,,,,,,,53,150094,22,Female,1,2024/02/13_14:03:56,YZ,59.94891729040235,
,,,,,,calibration,0,18,2,2583,1,Q,0,left,0.3657667569932528,0,0,,,,,,,,,,,,,,,,,,,,,1,,,,,,,,,,,,,,,,,,,,,,,,,,,,,,,,,,,,,,,,,,,,,,53,150094,22,Female,1,2024/02/13_14:03:56,YZ,59.94891729040235,
,,,,,,calibration,0,18,2,2583,2,X,0,left,0.5342348659905838,0,0,,,,,,,,,,,,,,,,,,,,,1,,,,,,,,,,,,,,,,,,,,,,,,,,,,,,,,,,,,,,,,,,,,,,53,150094,22,Female,1,2024/02/13_14:03:56,YZ,59.94891729040235,
,,,,,,calibration,0,18,2,2583,3,N,0,left,0.5131810660095653,0,0,,,,,,,,,,,,,,,,,,,,,1,,,,,,,,,,,,,,,,,,,,,,,,,,,,,,,,,,,,,,,,,,,,,,53,150094,22,Female,1,2024/02/13_14:03:56,YZ,59.94891729040235,
,,,,,,calibration,0,18,2,2583,4,X,1,left,0.4964165199926356,1,0,,,,,,,,,,,,,,,,,,,,,1,,,,,,,,,,,,,,,,,,,,,,,,,,,,,,,,,,,,,,,,,,,,,,53,150094,22,Female,1,2024/02/13_14:03:56,YZ,59.94891729040235,
,,,,,,calibration,0,18,2,2583,5,N,1,right,0.4297895680065267,0,0,,,,,,,,,,,,,,,,,,,,,1,,,,,,,,,,,,,,,,,,,,,,,,,,,,,,,,,,,,,,,,,,,,,,53,150094,22,Female,1,2024/02/13_14:03:56,YZ,59.94891729040235,
,,,,,,calibration,0,18,2,2583,6,V,0,left,0.45609416300430894,0,0,,,,,,,,,,,,,,,,,,,,,1,,,,,,,,,,,,,,,,,,,,,,,,,,,,,,,,,,,,,,,,,,,,,,53,150094,22,Female,1,2024/02/13_14:03:56,YZ,59.94891729040235,
,,,,,,calibration,0,18,2,2583,,,,,,,,0.125,0.5,1.0,0.0,0.0,0.0,0.46591382333281217,1,4,0,0,0,0,1,2,4,0,,,,1,,,,,,,,,,,,,,,,,,,,,,,,,,,,,,,,,,,,,,,,,,,,,,53,150094,22,Female,1,2024/02/13_14:03:56,YZ,59.94891729040235,
,,,,,,Calibration,0,,2,2583,,,,,,,,,,,,,,,,,,,,,,,,,32,,,1,,,,,,,,,,,,,,,,,,,,,,,,,,,,,,,,,,,,,,,,,,,,,,53,150094,22,Female,1,2024/02/13_14:03:56,YZ,59.94891729040235,
,,,,,,calibration,0,7,2,2583,1,Q,0,left,0.2427921350026736,0,0,,,,,,,,,,,,,,,,,,,,,1,,,,,,,,,,,,,,,,,,,,,,,,,,,,,,,,,,,,,,,,,,,,,,53,150094,22,Female,1,2024/02/13_14:03:56,YZ,59.94891729040235,
,,,,,,calibration,0,7,2,2583,2,C,0,left,0.32201785100915004,0,0,,,,,,,,,,,,,,,,,,,,,1,,,,,,,,,,,,,,,,,,,,,,,,,,,,,,,,,,,,,,,,,,,,,,53,150094,22,Female,1,2024/02/13_14:03:56,YZ,59.94891729040235,
,,,,,,calibration,0,7,2,2583,3,S,0,left,0.49470250398735516,0,0,,,,,,,,,,,,,,,,,,,,,1,,,,,,,,,,,,,,,,,,,,,,,,,,,,,,,,,,,,,,,,,,,,,,53,150094,22,Female,1,2024/02/13_14:03:56,YZ,59.94891729040235,
,,,,,,calibration,0,7,2,2583,4,J,0,left,0.4711766740074381,0,0,,,,,,,,,,,,,,,,,,,,,1,,,,,,,,,,,,,,,,,,,,,,,,,,,,,,,,,,,,,,,,,,,,,,53,150094,22,Female,1,2024/02/13_14:03:56,YZ,59.94891729040235,
,,,,,,calibration,0,7,2,2583,5,S,1,right,0.7877745589939877,0,0,,,,,,,,,,,,,,,,,,,,,1,,,,,,,,,,,,,,,,,,,,,,,,,,,,,,,,,,,,,,,,,,,,,,53,150094,22,Female,1,2024/02/13_14:03:56,YZ,59.94891729040235,
,,,,,,calibration,0,7,2,2583,6,J,1,left,0.42998661199817434,1,0,,,,,,,,,,,,,,,,,,,,,1,,,,,,,,,,,,,,,,,,,,,,,,,,,,,,,,,,,,,,,,,,,,,,53,150094,22,Female,1,2024/02/13_14:03:56,YZ,59.94891729040235,
,,,,,,calibration,0,7,2,2583,,,,,,,,0.125,0.5,1.0,0.0,0.0,0.0,0.45807505583312985,1,4,0,0,0,0,1,2,4,0,,,,1,,,,,,,,,,,,,,,,,,,,,,,,,,,,,,,,,,,,,,,,,,,,,,53,150094,22,Female,1,2024/02/13_14:03:56,YZ,59.94891729040235,
,,,,,,Calibration,0,,2,2583,,,,,,,,,,,,,,,,,,,,,,,,,33,,,1,,,,,,,,,,,,,,,,,,,,,,,,,,,,,,,,,,,,,,,,,,,,,,53,150094,22,Female,1,2024/02/13_14:03:56,YZ,59.94891729040235,
,,,,,,calibration,0,17,2,2583,1,Q,0,left,0.3944116099883104,0,0,,,,,,,,,,,,,,,,,,,,,1,,,,,,,,,,,,,,,,,,,,,,,,,,,,,,,,,,,,,,,,,,,,,,53,150094,22,Female,1,2024/02/13_14:03:56,YZ,59.94891729040235,
,,,,,,calibration,0,17,2,2583,2,N,0,left,0.32269093199283816,0,0,,,,,,,,,,,,,,,,,,,,,1,,,,,,,,,,,,,,,,,,,,,,,,,,,,,,,,,,,,,,,,,,,,,,53,150094,22,Female,1,2024/02/13_14:03:56,YZ,59.94891729040235,
,,,,,,calibration,0,17,2,2583,3,C,0,left,0.574691432993859,0,0,,,,,,,,,,,,,,,,,,,,,1,,,,,,,,,,,,,,,,,,,,,,,,,,,,,,,,,,,,,,,,,,,,,,53,150094,22,Female,1,2024/02/13_14:03:56,YZ,59.94891729040235,
,,,,,,calibration,0,17,2,2583,4,N,1,right,0.399527710993425,0,0,,,,,,,,,,,,,,,,,,,,,1,,,,,,,,,,,,,,,,,,,,,,,,,,,,,,,,,,,,,,,,,,,,,,53,150094,22,Female,1,2024/02/13_14:03:56,YZ,59.94891729040235,
,,,,,,calibration,0,17,2,2583,5,C,1,right,0.4239447599975392,0,0,,,,,,,,,,,,,,,,,,,,,1,,,,,,,,,,,,,,,,,,,,,,,,,,,,,,,,,,,,,,,,,,,,,,53,150094,22,Female,1,2024/02/13_14:03:56,YZ,59.94891729040235,
,,,,,,calibration,0,17,2,2583,6,J,0,left,0.4161009329982335,0,0,,,,,,,,,,,,,,,,,,,,,1,,,,,,,,,,,,,,,,,,,,,,,,,,,,,,,,,,,,,,,,,,,,,,53,150094,22,Female,1,2024/02/13_14:03:56,YZ,59.94891729040235,
,,,,,,calibration,0,17,2,2583,,,,,,,,0.0,0.0,1.0,0.0,0.0,0.0,0.4218945631607009,0,4,0,0,0,0,0,2,4,0,,,,1,,,,,,,,,,,,,,,,,,,,,,,,,,,,,,,,,,,,,,,,,,,,,,53,150094,22,Female,1,2024/02/13_14:03:56,YZ,59.94891729040235,
,,,,,,Calibration,0,,2,2583,,,,,,,,,,,,,,,,,,,,,,,,,34,,,1,,,,,,,,,,,,,,,,,,,,,,,,,,,,,,,,,,,,,,,,,,,,,,53,150094,22,Female,1,2024/02/13_14:03:56,YZ,59.94891729040235,
,,,,,,calibration,0,8,2,2583,1,S,0,left,0.2509628679981688,0,0,,,,,,,,,,,,,,,,,,,,,1,,,,,,,,,,,,,,,,,,,,,,,,,,,,,,,,,,,,,,,,,,,,,,53,150094,22,Female,1,2024/02/13_14:03:56,YZ,59.94891729040235,
,,,,,,calibration,0,8,2,2583,2,X,0,left,0.2759536130033666,0,0,,,,,,,,,,,,,,,,,,,,,1,,,,,,,,,,,,,,,,,,,,,,,,,,,,,,,,,,,,,,,,,,,,,,53,150094,22,Female,1,2024/02/13_14:03:56,YZ,59.94891729040235,
,,,,,,calibration,0,8,2,2583,3,S,1,right,0.5925067999924067,0,0,,,,,,,,,,,,,,,,,,,,,1,,,,,,,,,,,,,,,,,,,,,,,,,,,,,,,,,,,,,,,,,,,,,,53,150094,22,Female,1,2024/02/13_14:03:56,YZ,59.94891729040235,
,,,,,,calibration,0,8,2,2583,4,J,0,right,0.3885665150010027,1,0,,,,,,,,,,,,,,,,,,,,,1,,,,,,,,,,,,,,,,,,,,,,,,,,,,,,,,,,,,,,,,,,,,,,53,150094,22,Female,1,2024/02/13_14:03:56,YZ,59.94891729040235,
,,,,,,calibration,0,8,2,2583,5,V,0,left,0.39086286899691913,0,0,,,,,,,,,,,,,,,,,,,,,1,,,,,,,,,,,,,,,,,,,,,,,,,,,,,,,,,,,,,,,,,,,,,,53,150094,22,Female,1,2024/02/13_14:03:56,YZ,59.94891729040235,
,,,,,,calibration,0,8,2,2583,6,J,1,right,0.7600543000007747,0,0,,,,,,,,,,,,,,,,,,,,,1,,,,,,,,,,,,,,,,,,,,,,,,,,,,,,,,,,,,,,,,,,,,,,53,150094,22,Female,1,2024/02/13_14:03:56,YZ,59.94891729040235,
,,,,,,calibration,0,8,2,2583,,,,,,,,0.0625,0.0,0.75,0.25,0.0,0.25,0.4431511608321064,0,3,0,0,0,1,1,2,4,0,,,,1,,,,,,,,,,,,,,,,,,,,,,,,,,,,,,,,,,,,,,,,,,,,,,53,150094,22,Female,1,2024/02/13_14:03:56,YZ,59.94891729040235,
,,,,,,Calibration,0,,2,2583,,,,,,,,,,,,,,,,,,,,,,,,,35,,,1,,,,,,,,,,,,,,,,,,,,,,,,,,,,,,,,,,,,,,,,,,,,,,53,150094,22,Female,1,2024/02/13_14:03:56,YZ,59.94891729040235,
,,,,,,calibration,0,14,2,2583,1,X,0,left,0.15794773399829865,0,0,,,,,,,,,,,,,,,,,,,,,1,,,,,,,,,,,,,,,,,,,,,,,,,,,,,,,,,,,,,,,,,,,,,,53,150094,22,Female,1,2024/02/13_14:03:56,YZ,59.94891729040235,
,,,,,,calibration,0,14,2,2583,2,X,0,left,0.29635404399596155,0,0,,,,,,,,,,,,,,,,,,,,,1,,,,,,,,,,,,,,,,,,,,,,,,,,,,,,,,,,,,,,,,,,,,,,53,150094,22,Female,1,2024/02/13_14:03:56,YZ,59.94891729040235,
,,,,,,calibration,0,14,2,2583,3,X,1,right,0.42228920399793424,0,0,,,,,,,,,,,,,,,,,,,,,1,,,,,,,,,,,,,,,,,,,,,,,,,,,,,,,,,,,,,,,,,,,,,,53,150094,22,Female,1,2024/02/13_14:03:56,YZ,59.94891729040235,
,,,,,,calibration,0,14,2,2583,4,X,1,right,0.36548893999133725,0,0,,,,,,,,,,,,,,,,,,,,,1,,,,,,,,,,,,,,,,,,,,,,,,,,,,,,,,,,,,,,,,,,,,,,53,150094,22,Female,1,2024/02/13_14:03:56,YZ,59.94891729040235,
,,,,,,calibration,0,14,2,2583,5,Q,0,left,0.4018558930110885,0,0,,,,,,,,,,,,,,,,,,,,,1,,,,,,,,,,,,,,,,,,,,,,,,,,,,,,,,,,,,,,,,,,,,,,53,150094,22,Female,1,2024/02/13_14:03:56,YZ,59.94891729040235,
,,,,,,calibration,0,14,2,2583,6,J,0,left,0.5577308240026468,0,0,,,,,,,,,,,,,,,,,,,,,1,,,,,,,,,,,,,,,,,,,,,,,,,,,,,,,,,,,,,,,,,,,,,,53,150094,22,Female,1,2024/02/13_14:03:56,YZ,59.94891729040235,
,,,,,,calibration,0,14,2,2583,,,,,,,,0.0,0.0,1.0,0.0,0.0,0.0,0.36694443983287783,0,4,0,0,0,0,0,2,4,0,,,,1,,,,,,,,,,,,,,,,,,,,,,,,,,,,,,,,,,,,,,,,,,,,,,53,150094,22,Female,1,2024/02/13_14:03:56,YZ,59.94891729040235,
,,,,,,Calibration,0,,2,2583,,,,,,,,,,,,,,,,,,,,,,,,,36,,,1,,,,,,,,,,,,,,,,,,,,,,,,,,,,,,,,,,,,,,,,,,,,,,53,150094,22,Female,1,2024/02/13_14:03:56,YZ,59.94891729040235,
,,,,,,calibration,0,31,2,2583,1,X,0,left,0.17011882600490935,0,0,,,,,,,,,,,,,,,,,,,,,1,,,,,,,,,,,,,,,,,,,,,,,,,,,,,,,,,,,,,,,,,,,,,,53,150094,22,Female,1,2024/02/13_14:03:56,YZ,59.94891729040235,
,,,,,,calibration,0,31,2,2583,2,F,0,left,0.3748604919965146,0,0,,,,,,,,,,,,,,,,,,,,,1,,,,,,,,,,,,,,,,,,,,,,,,,,,,,,,,,,,,,,,,,,,,,,53,150094,22,Female,1,2024/02/13_14:03:56,YZ,59.94891729040235,
,,,,,,calibration,0,31,2,2583,3,X,1,right,0.7252401470032055,0,0,,,,,,,,,,,,,,,,,,,,,1,,,,,,,,,,,,,,,,,,,,,,,,,,,,,,,,,,,,,,,,,,,,,,53,150094,22,Female,1,2024/02/13_14:03:56,YZ,59.94891729040235,
,,,,,,calibration,0,31,2,2583,4,N,0,left,0.6626717570034089,0,0,,,,,,,,,,,,,,,,,,,,,1,,,,,,,,,,,,,,,,,,,,,,,,,,,,,,,,,,,,,,,,,,,,,,53,150094,22,Female,1,2024/02/13_14:03:56,YZ,59.94891729040235,
,,,,,,calibration,0,31,2,2583,5,X,1,left,0.4854581480030902,1,0,,,,,,,,,,,,,,,,,,,,,1,,,,,,,,,,,,,,,,,,,,,,,,,,,,,,,,,,,,,,,,,,,,,,53,150094,22,Female,1,2024/02/13_14:03:56,YZ,59.94891729040235,
,,,,,,calibration,0,31,2,2583,6,S,0,right,0.4456885539984796,1,0,,,,,,,,,,,,,,,,,,,,,1,,,,,,,,,,,,,,,,,,,,,,,,,,,,,,,,,,,,,,,,,,,,,,53,150094,22,Female,1,2024/02/13_14:03:56,YZ,59.94891729040235,
,,,,,,calibration,0,31,2,2583,,,,,,,,0.0625,0.5,0.75,0.25,0.0,0.25,0.47733965400160133,1,3,0,0,0,1,2,2,4,0,,,,1,,,,,,,,,,,,,,,,,,,,,,,,,,,,,,,,,,,,,,,,,,,,,,53,150094,22,Female,1,2024/02/13_14:03:56,YZ,59.94891729040235,
,,,,,,Calibration,0,,2,2583,,,,,,,,,,,,,,,,,,,,,,,,,37,,,1,,,,,,,,,,,,,,,,,,,,,,,,,,,,,,,,,,,,,,,,,,,,,,53,150094,22,Female,1,2024/02/13_14:03:56,YZ,59.94891729040235,
,,,,,,calibration,0,26,2,2583,1,J,0,left,0.3899004160048207,0,0,,,,,,,,,,,,,,,,,,,,,1,,,,,,,,,,,,,,,,,,,,,,,,,,,,,,,,,,,,,,,,,,,,,,53,150094,22,Female,1,2024/02/13_14:03:56,YZ,59.94891729040235,
,,,,,,calibration,0,26,2,2583,2,Q,0,left,0.3744010160007747,0,0,,,,,,,,,,,,,,,,,,,,,1,,,,,,,,,,,,,,,,,,,,,,,,,,,,,,,,,,,,,,,,,,,,,,53,150094,22,Female,1,2024/02/13_14:03:56,YZ,59.94891729040235,
,,,,,,calibration,0,26,2,2583,3,F,0,right,0.48304081699461676,1,0,,,,,,,,,,,,,,,,,,,,,1,,,,,,,,,,,,,,,,,,,,,,,,,,,,,,,,,,,,,,,,,,,,,,53,150094,22,Female,1,2024/02/13_14:03:56,YZ,59.94891729040235,
,,,,,,calibration,0,26,2,2583,4,Q,1,right,nan,0,1,,,,,,,,,,,,,,,,,,,,,1,,,,,,,,,,,,,,,,,,,,,,,,,,,,,,,,,,,,,,,,,,,,,,53,150094,22,Female,1,2024/02/13_14:03:56,YZ,59.94891729040235,
,,,,,,calibration,0,26,2,2583,5,F,1,left,0.3779910029988969,1,0,,,,,,,,,,,,,,,,,,,,,1,,,,,,,,,,,,,,,,,,,,,,,,,,,,,,,,,,,,,,,,,,,,,,53,150094,22,Female,1,2024/02/13_14:03:56,YZ,59.94891729040235,
,,,,,,calibration,0,26,2,2583,6,V,0,left,0.5401175879960647,0,0,,,,,,,,,,,,,,,,,,,,,1,,,,,,,,,,,,,,,,,,,,,,,,,,,,,,,,,,,,,,,,,,,,,,53,150094,22,Female,1,2024/02/13_14:03:56,YZ,59.94891729040235,
,,,,,,calibration,0,26,2,2583,,,,,,,,0.0625,0.5,0.75,0.25,0.16666666666666666,0.08333333333333334,0.43309016799903477,1,3,1,0,1,1,2,2,4,0,,,,1,,,,,,,,,,,,,,,,,,,,,,,,,,,,,,,,,,,,,,,,,,,,,,53,150094,22,Female,1,2024/02/13_14:03:56,YZ,59.94891729040235,
,,,,,,Calibration,0,,2,2583,,,,,,,,,,,,,,,,,,,,,,,,,38,,,1,,,,,,,,,,,,,,,,,,,,,,,,,,,,,,,,,,,,,,,,,,,,,,53,150094,22,Female,1,2024/02/13_14:03:56,YZ,59.94891729040235,
,,,,,,calibration,0,3,2,2583,1,X,0,left,0.4441216310078744,0,0,,,,,,,,,,,,,,,,,,,,,1,,,,,,,,,,,,,,,,,,,,,,,,,,,,,,,,,,,,,,,,,,,,,,53,150094,22,Female,1,2024/02/13_14:03:56,YZ,59.94891729040235,
,,,,,,calibration,0,3,2,2583,2,N,0,left,0.8250518870045198,0,0,,,,,,,,,,,,,,,,,,,,,1,,,,,,,,,,,,,,,,,,,,,,,,,,,,,,,,,,,,,,,,,,,,,,53,150094,22,Female,1,2024/02/13_14:03:56,YZ,59.94891729040235,
,,,,,,calibration,0,3,2,2583,3,V,0,left,0.6126897479989566,0,0,,,,,,,,,,,,,,,,,,,,,1,,,,,,,,,,,,,,,,,,,,,,,,,,,,,,,,,,,,,,,,,,,,,,53,150094,22,Female,1,2024/02/13_14:03:56,YZ,59.94891729040235,
,,,,,,calibration,0,3,2,2583,4,N,1,right,0.5135765449958853,0,0,,,,,,,,,,,,,,,,,,,,,1,,,,,,,,,,,,,,,,,,,,,,,,,,,,,,,,,,,,,,,,,,,,,,53,150094,22,Female,1,2024/02/13_14:03:56,YZ,59.94891729040235,
,,,,,,calibration,0,3,2,2583,5,S,0,left,0.41653772701101843,0,0,,,,,,,,,,,,,,,,,,,,,1,,,,,,,,,,,,,,,,,,,,,,,,,,,,,,,,,,,,,,,,,,,,,,53,150094,22,Female,1,2024/02/13_14:03:56,YZ,59.94891729040235,
,,,,,,calibration,0,3,2,2583,6,N,1,left,0.6296804820012767,1,0,,,,,,,,,,,,,,,,,,,,,1,,,,,,,,,,,,,,,,,,,,,,,,,,,,,,,,,,,,,,,,,,,,,,53,150094,22,Female,1,2024/02/13_14:03:56,YZ,59.94891729040235,
,,,,,,calibration,0,3,2,2583,,,,,,,,0.125,0.5,1.0,0.0,0.0,0.0,0.5736096700032552,1,4,0,0,0,0,1,2,4,0,,,,1,,,,,,,,,,,,,,,,,,,,,,,,,,,,,,,,,,,,,,,,,,,,,,53,150094,22,Female,1,2024/02/13_14:03:56,YZ,59.94891729040235,
,,,,,,Calibration,0,,2,2583,,,,,,,,,,,,,,,,,,,,,,,,,39,,,1,,,,,,,,,,,,,,,,,,,,,,,,,,,,,,,,,,,,,,,,,,,,,,53,150094,22,Female,1,2024/02/13_14:03:56,YZ,59.94891729040235,
,,,,,,calibration,0,6,2,2583,1,N,0,left,0.2607946819916833,0,0,,,,,,,,,,,,,,,,,,,,,1,,,,,,,,,,,,,,,,,,,,,,,,,,,,,,,,,,,,,,,,,,,,,,53,150094,22,Female,1,2024/02/13_14:03:56,YZ,59.94891729040235,
,,,,,,calibration,0,6,2,2583,2,J,0,left,0.4743442449980648,0,0,,,,,,,,,,,,,,,,,,,,,1,,,,,,,,,,,,,,,,,,,,,,,,,,,,,,,,,,,,,,,,,,,,,,53,150094,22,Female,1,2024/02/13_14:03:56,YZ,59.94891729040235,
,,,,,,calibration,0,6,2,2583,3,N,1,right,0.36342614400200546,0,0,,,,,,,,,,,,,,,,,,,,,1,,,,,,,,,,,,,,,,,,,,,,,,,,,,,,,,,,,,,,,,,,,,,,53,150094,22,Female,1,2024/02/13_14:03:56,YZ,59.94891729040235,
,,,,,,calibration,0,6,2,2583,4,C,0,left,0.38238145600189455,0,0,,,,,,,,,,,,,,,,,,,,,1,,,,,,,,,,,,,,,,,,,,,,,,,,,,,,,,,,,,,,,,,,,,,,53,150094,22,Female,1,2024/02/13_14:03:56,YZ,59.94891729040235,
,,,,,,calibration,0,6,2,2583,5,F,0,left,0.6935509989998536,0,0,,,,,,,,,,,,,,,,,,,,,1,,,,,,,,,,,,,,,,,,,,,,,,,,,,,,,,,,,,,,,,,,,,,,53,150094,22,Female,1,2024/02/13_14:03:56,YZ,59.94891729040235,
,,,,,,calibration,0,6,2,2583,6,C,1,right,0.544805482000811,0,0,,,,,,,,,,,,,,,,,,,,,1,,,,,,,,,,,,,,,,,,,,,,,,,,,,,,,,,,,,,,,,,,,,,,53,150094,22,Female,1,2024/02/13_14:03:56,YZ,59.94891729040235,
,,,,,,calibration,0,6,2,2583,,,,,,,,0.0,0.0,1.0,0.0,0.0,0.0,0.45321716799905215,0,4,0,0,0,0,0,2,4,0,,,,1,,,,,,,,,,,,,,,,,,,,,,,,,,,,,,,,,,,,,,,,,,,,,,53,150094,22,Female,1,2024/02/13_14:03:56,YZ,59.94891729040235,
,,,,,,Calibration,0,,2,2583,,,,,,,,,,,,,,,,,,,,,,,,,40,,,1,,,,,,,,,,,,,,,,,,,,,,,,,,,,,,,,,,,,,,,,,,,,,,53,150094,22,Female,1,2024/02/13_14:03:56,YZ,59.94891729040235,
,,,,,,calibration,0,31,2,2583,1,X,0,left,0.4542646799964132,0,0,,,,,,,,,,,,,,,,,,,,,1,,,,,,,,,,,,,,,,,,,,,,,,,,,,,,,,,,,,,,,,,,,,,,53,150094,22,Female,1,2024/02/13_14:03:56,YZ,59.94891729040235,
,,,,,,calibration,0,31,2,2583,2,F,0,left,0.43757969500438776,0,0,,,,,,,,,,,,,,,,,,,,,1,,,,,,,,,,,,,,,,,,,,,,,,,,,,,,,,,,,,,,,,,,,,,,53,150094,22,Female,1,2024/02/13_14:03:56,YZ,59.94891729040235,
,,,,,,calibration,0,31,2,2583,3,X,1,right,0.6936321159882937,0,0,,,,,,,,,,,,,,,,,,,,,1,,,,,,,,,,,,,,,,,,,,,,,,,,,,,,,,,,,,,,,,,,,,,,53,150094,22,Female,1,2024/02/13_14:03:56,YZ,59.94891729040235,
,,,,,,calibration,0,31,2,2583,4,N,0,left,0.3949315000063507,0,0,,,,,,,,,,,,,,,,,,,,,1,,,,,,,,,,,,,,,,,,,,,,,,,,,,,,,,,,,,,,,,,,,,,,53,150094,22,Female,1,2024/02/13_14:03:56,YZ,59.94891729040235,
,,,,,,calibration,0,31,2,2583,5,X,1,right,0.6890086740022525,0,0,,,,,,,,,,,,,,,,,,,,,1,,,,,,,,,,,,,,,,,,,,,,,,,,,,,,,,,,,,,,,,,,,,,,53,150094,22,Female,1,2024/02/13_14:03:56,YZ,59.94891729040235,
,,,,,,calibration,0,31,2,2583,6,S,0,left,0.34305182201205753,0,0,,,,,,,,,,,,,,,,,,,,,1,,,,,,,,,,,,,,,,,,,,,,,,,,,,,,,,,,,,,,,,,,,,,,53,150094,22,Female,1,2024/02/13_14:03:56,YZ,59.94891729040235,
,,,,,,calibration,0,31,2,2583,,,,,,,,0.0,0.0,1.0,0.0,0.0,0.0,0.5020780811682926,0,4,0,0,0,0,0,2,4,0,,,,1,,,,,,,,,,,,,,,,,,,,,,,,,,,,,,,,,,,,,,,,,,,,,,53,150094,22,Female,1,2024/02/13_14:03:56,YZ,59.94891729040235,
,,,,,,Calibration,0,,2,2583,,,,,,,,,,,,,,,,,,,,,,,,,41,,,1,,,,,,,,,,,,,,,,,,,,,,,,,,,,,,,,,,,,,,,,,,,,,,53,150094,22,Female,1,2024/02/13_14:03:56,YZ,59.94891729040235,
,,,,,,calibration,0,10,2,2583,1,N,0,left,0.330688005007687,0,0,,,,,,,,,,,,,,,,,,,,,1,,,,,,,,,,,,,,,,,,,,,,,,,,,,,,,,,,,,,,,,,,,,,,53,150094,22,Female,1,2024/02/13_14:03:56,YZ,59.94891729040235,
,,,,,,calibration,0,10,2,2583,2,N,0,left,0.7530481230060104,0,0,,,,,,,,,,,,,,,,,,,,,1,,,,,,,,,,,,,,,,,,,,,,,,,,,,,,,,,,,,,,,,,,,,,,53,150094,22,Female,1,2024/02/13_14:03:56,YZ,59.94891729040235,
,,,,,,calibration,0,10,2,2583,3,N,1,right,0.34359477400721516,0,0,,,,,,,,,,,,,,,,,,,,,1,,,,,,,,,,,,,,,,,,,,,,,,,,,,,,,,,,,,,,,,,,,,,,53,150094,22,Female,1,2024/02/13_14:03:56,YZ,59.94891729040235,
,,,,,,calibration,0,10,2,2583,4,V,0,left,0.39765406800142955,0,0,,,,,,,,,,,,,,,,,,,,,1,,,,,,,,,,,,,,,,,,,,,,,,,,,,,,,,,,,,,,,,,,,,,,53,150094,22,Female,1,2024/02/13_14:03:56,YZ,59.94891729040235,
,,,,,,calibration,0,10,2,2583,5,J,0,left,0.5278123039897764,0,0,,,,,,,,,,,,,,,,,,,,,1,,,,,,,,,,,,,,,,,,,,,,,,,,,,,,,,,,,,,,,,,,,,,,53,150094,22,Female,1,2024/02/13_14:03:56,YZ,59.94891729040235,
,,,,,,calibration,0,10,2,2583,6,V,1,right,0.6441476629988756,0,0,,,,,,,,,,,,,,,,,,,,,1,,,,,,,,,,,,,,,,,,,,,,,,,,,,,,,,,,,,,,,,,,,,,,53,150094,22,Female,1,2024/02/13_14:03:56,YZ,59.94891729040235,
,,,,,,calibration,0,10,2,2583,,,,,,,,0.0,0.0,1.0,0.0,0.0,0.0,0.4994908228351657,0,4,0,0,0,0,0,2,4,0,,,,1,,,,,,,,,,,,,,,,,,,,,,,,,,,,,,,,,,,,,,,,,,,,,,53,150094,22,Female,1,2024/02/13_14:03:56,YZ,59.94891729040235,
,,,,,,Calibration,0,,2,2583,,,,,,,,,,,,,,,,,,,,,,,,,42,,,1,,,,,,,,,,,,,,,,,,,,,,,,,,,,,,,,,,,,,,,,,,,,,,53,150094,22,Female,1,2024/02/13_14:03:56,YZ,59.94891729040235,
,,,,,,calibration,0,7,2,2583,1,Q,0,left,0.36821414100995753,0,0,,,,,,,,,,,,,,,,,,,,,1,,,,,,,,,,,,,,,,,,,,,,,,,,,,,,,,,,,,,,,,,,,,,,53,150094,22,Female,1,2024/02/13_14:03:56,YZ,59.94891729040235,
,,,,,,calibration,0,7,2,2583,2,C,0,left,0.3653466750110965,0,0,,,,,,,,,,,,,,,,,,,,,1,,,,,,,,,,,,,,,,,,,,,,,,,,,,,,,,,,,,,,,,,,,,,,53,150094,22,Female,1,2024/02/13_14:03:56,YZ,59.94891729040235,
,,,,,,calibration,0,7,2,2583,3,S,0,left,0.7227746360003948,0,0,,,,,,,,,,,,,,,,,,,,,1,,,,,,,,,,,,,,,,,,,,,,,,,,,,,,,,,,,,,,,,,,,,,,53,150094,22,Female,1,2024/02/13_14:03:56,YZ,59.94891729040235,
,,,,,,calibration,0,7,2,2583,4,J,0,left,0.4689020840014564,0,0,,,,,,,,,,,,,,,,,,,,,1,,,,,,,,,,,,,,,,,,,,,,,,,,,,,,,,,,,,,,,,,,,,,,53,150094,22,Female,1,2024/02/13_14:03:56,YZ,59.94891729040235,
,,,,,,calibration,0,7,2,2583,5,S,1,left,0.6490331160021015,1,0,,,,,,,,,,,,,,,,,,,,,1,,,,,,,,,,,,,,,,,,,,,,,,,,,,,,,,,,,,,,,,,,,,,,53,150094,22,Female,1,2024/02/13_14:03:56,YZ,59.94891729040235,
,,,,,,calibration,0,7,2,2583,6,J,1,right,0.42520274900016375,0,0,,,,,,,,,,,,,,,,,,,,,1,,,,,,,,,,,,,,,,,,,,,,,,,,,,,,,,,,,,,,,,,,,,,,53,150094,22,Female,1,2024/02/13_14:03:56,YZ,59.94891729040235,
,,,,,,calibration,0,7,2,2583,,,,,,,,0.125,0.5,1.0,0.0,0.0,0.0,0.49991223350419506,1,4,0,0,0,0,1,2,4,0,,,,1,,,,,,,,,,,,,,,,,,,,,,,,,,,,,,,,,,,,,,,,,,,,,,53,150094,22,Female,1,2024/02/13_14:03:56,YZ,59.94891729040235,
,,,,,,Calibration,0,,2,2583,,,,,,,,,,,,,,,,,,,,,,,,,43,,,1,,,,,,,,,,,,,,,,,,,,,,,,,,,,,,,,,,,,,,,,,,,,,,53,150094,22,Female,1,2024/02/13_14:03:56,YZ,59.94891729040235,
,,,,,,calibration,0,31,2,2583,1,X,0,left,0.3321667489944957,0,0,,,,,,,,,,,,,,,,,,,,,1,,,,,,,,,,,,,,,,,,,,,,,,,,,,,,,,,,,,,,,,,,,,,,53,150094,22,Female,1,2024/02/13_14:03:56,YZ,59.94891729040235,
,,,,,,calibration,0,31,2,2583,2,F,0,left,0.7502057910023723,0,0,,,,,,,,,,,,,,,,,,,,,1,,,,,,,,,,,,,,,,,,,,,,,,,,,,,,,,,,,,,,,,,,,,,,53,150094,22,Female,1,2024/02/13_14:03:56,YZ,59.94891729040235,
,,,,,,calibration,0,31,2,2583,3,X,1,right,0.5627678069868125,0,0,,,,,,,,,,,,,,,,,,,,,1,,,,,,,,,,,,,,,,,,,,,,,,,,,,,,,,,,,,,,,,,,,,,,53,150094,22,Female,1,2024/02/13_14:03:56,YZ,59.94891729040235,
,,,,,,calibration,0,31,2,2583,4,N,0,left,0.38916552999580745,0,0,,,,,,,,,,,,,,,,,,,,,1,,,,,,,,,,,,,,,,,,,,,,,,,,,,,,,,,,,,,,,,,,,,,,53,150094,22,Female,1,2024/02/13_14:03:56,YZ,59.94891729040235,
,,,,,,calibration,0,31,2,2583,5,X,1,right,0.564387356993393,0,0,,,,,,,,,,,,,,,,,,,,,1,,,,,,,,,,,,,,,,,,,,,,,,,,,,,,,,,,,,,,,,,,,,,,53,150094,22,Female,1,2024/02/13_14:03:56,YZ,59.94891729040235,
,,,,,,calibration,0,31,2,2583,6,S,0,left,0.35651248700742144,0,0,,,,,,,,,,,,,,,,,,,,,1,,,,,,,,,,,,,,,,,,,,,,,,,,,,,,,,,,,,,,,,,,,,,,53,150094,22,Female,1,2024/02/13_14:03:56,YZ,59.94891729040235,
,,,,,,calibration,0,31,2,2583,,,,,,,,0.0,0.0,1.0,0.0,0.0,0.0,0.4925342868300504,0,4,0,0,0,0,0,2,4,0,,,,1,,,,,,,,,,,,,,,,,,,,,,,,,,,,,,,,,,,,,,,,,,,,,,53,150094,22,Female,1,2024/02/13_14:03:56,YZ,59.94891729040235,
,,,,,,Calibration,0,,2,2583,,,,,,,,,,,,,,,,,,,,,,,,,44,,,1,,,,,,,,,,,,,,,,,,,,,,,,,,,,,,,,,,,,,,,,,,,,,,53,150094,22,Female,1,2024/02/13_14:03:56,YZ,59.94891729040235,
,,,,,,calibration,0,22,2,2583,1,F,0,left,0.17861705999530386,0,0,,,,,,,,,,,,,,,,,,,,,1,,,,,,,,,,,,,,,,,,,,,,,,,,,,,,,,,,,,,,,,,,,,,,53,150094,22,Female,1,2024/02/13_14:03:56,YZ,59.94891729040235,
,,,,,,calibration,0,22,2,2583,2,X,0,left,0.40200026900856756,0,0,,,,,,,,,,,,,,,,,,,,,1,,,,,,,,,,,,,,,,,,,,,,,,,,,,,,,,,,,,,,,,,,,,,,53,150094,22,Female,1,2024/02/13_14:03:56,YZ,59.94891729040235,
,,,,,,calibration,0,22,2,2583,3,Q,0,left,0.4462682799930917,0,0,,,,,,,,,,,,,,,,,,,,,1,,,,,,,,,,,,,,,,,,,,,,,,,,,,,,,,,,,,,,,,,,,,,,53,150094,22,Female,1,2024/02/13_14:03:56,YZ,59.94891729040235,
,,,,,,calibration,0,22,2,2583,4,V,0,left,0.45465213600255083,0,0,,,,,,,,,,,,,,,,,,,,,1,,,,,,,,,,,,,,,,,,,,,,,,,,,,,,,,,,,,,,,,,,,,,,53,150094,22,Female,1,2024/02/13_14:03:56,YZ,59.94891729040235,
,,,,,,calibration,0,22,2,2583,5,Q,1,left,0.4707932630117284,1,0,,,,,,,,,,,,,,,,,,,,,1,,,,,,,,,,,,,,,,,,,,,,,,,,,,,,,,,,,,,,,,,,,,,,53,150094,22,Female,1,2024/02/13_14:03:56,YZ,59.94891729040235,
,,,,,,calibration,0,22,2,2583,6,V,1,right,0.49723082600394264,0,0,,,,,,,,,,,,,,,,,,,,,1,,,,,,,,,,,,,,,,,,,,,,,,,,,,,,,,,,,,,,,,,,,,,,53,150094,22,Female,1,2024/02/13_14:03:56,YZ,59.94891729040235,
,,,,,,calibration,0,22,2,2583,,,,,,,,0.125,0.5,1.0,0.0,0.0,0.0,0.4082603056691975,1,4,0,0,0,0,1,2,4,0,,,,1,,,,,,,,,,,,,,,,,,,,,,,,,,,,,,,,,,,,,,,,,,,,,,53,150094,22,Female,1,2024/02/13_14:03:56,YZ,59.94891729040235,
,,,,,,Calibration,0,,2,2583,,,,,,,,,,,,,,,,,,,,,,,,,45,,,1,,,,,,,,,,,,,,,,,,,,,,,,,,,,,,,,,,,,,,,,,,,,,,53,150094,22,Female,1,2024/02/13_14:03:56,YZ,59.94891729040235,
,,,,,,calibration,0,34,2,2583,1,F,0,left,0.28139048599405214,0,0,,,,,,,,,,,,,,,,,,,,,1,,,,,,,,,,,,,,,,,,,,,,,,,,,,,,,,,,,,,,,,,,,,,,53,150094,22,Female,1,2024/02/13_14:03:56,YZ,59.94891729040235,
,,,,,,calibration,0,34,2,2583,2,J,0,left,0.5136792529956438,0,0,,,,,,,,,,,,,,,,,,,,,1,,,,,,,,,,,,,,,,,,,,,,,,,,,,,,,,,,,,,,,,,,,,,,53,150094,22,Female,1,2024/02/13_14:03:56,YZ,59.94891729040235,
,,,,,,calibration,0,34,2,2583,3,C,0,left,0.5131237200112082,0,0,,,,,,,,,,,,,,,,,,,,,1,,,,,,,,,,,,,,,,,,,,,,,,,,,,,,,,,,,,,,,,,,,,,,53,150094,22,Female,1,2024/02/13_14:03:56,YZ,59.94891729040235,
,,,,,,calibration,0,34,2,2583,4,N,0,left,0.5233563490037341,0,0,,,,,,,,,,,,,,,,,,,,,1,,,,,,,,,,,,,,,,,,,,,,,,,,,,,,,,,,,,,,,,,,,,,,53,150094,22,Female,1,2024/02/13_14:03:56,YZ,59.94891729040235,
,,,,,,calibration,0,34,2,2583,5,C,1,right,0.4368410510069225,0,0,,,,,,,,,,,,,,,,,,,,,1,,,,,,,,,,,,,,,,,,,,,,,,,,,,,,,,,,,,,,,,,,,,,,53,150094,22,Female,1,2024/02/13_14:03:56,YZ,59.94891729040235,
,,,,,,calibration,0,34,2,2583,6,N,1,right,0.4739611219993094,0,0,,,,,,,,,,,,,,,,,,,,,1,,,,,,,,,,,,,,,,,,,,,,,,,,,,,,,,,,,,,,,,,,,,,,53,150094,22,Female,1,2024/02/13_14:03:56,YZ,59.94891729040235,
,,,,,,calibration,0,34,2,2583,,,,,,,,0.0,0.0,1.0,0.0,0.0,0.0,0.4570586635018117,0,4,0,0,0,0,0,2,4,0,,,,1,,,,,,,,,,,,,,,,,,,,,,,,,,,,,,,,,,,,,,,,,,,,,,53,150094,22,Female,1,2024/02/13_14:03:56,YZ,59.94891729040235,
,,,,,,Calibration,0,,2,2583,,,,,,,,,,,,,,,,,,,,,,,,,46,,,1,,,,,,,,,,,,,,,,,,,,,,,,,,,,,,,,,,,,,,,,,,,,,,53,150094,22,Female,1,2024/02/13_14:03:56,YZ,59.94891729040235,
,,,,,,calibration,0,26,2,2583,1,J,0,left,0.34899725001014303,0,0,,,,,,,,,,,,,,,,,,,,,1,,,,,,,,,,,,,,,,,,,,,,,,,,,,,,,,,,,,,,,,,,,,,,53,150094,22,Female,1,2024/02/13_14:03:56,YZ,59.94891729040235,
,,,,,,calibration,0,26,2,2583,2,Q,0,left,0.4297155670064967,0,0,,,,,,,,,,,,,,,,,,,,,1,,,,,,,,,,,,,,,,,,,,,,,,,,,,,,,,,,,,,,,,,,,,,,53,150094,22,Female,1,2024/02/13_14:03:56,YZ,59.94891729040235,
,,,,,,calibration,0,26,2,2583,3,F,0,left,0.674297932011541,0,0,,,,,,,,,,,,,,,,,,,,,1,,,,,,,,,,,,,,,,,,,,,,,,,,,,,,,,,,,,,,,,,,,,,,53,150094,22,Female,1,2024/02/13_14:03:56,YZ,59.94891729040235,
,,,,,,calibration,0,26,2,2583,4,Q,1,right,0.3871120280091418,0,0,,,,,,,,,,,,,,,,,,,,,1,,,,,,,,,,,,,,,,,,,,,,,,,,,,,,,,,,,,,,,,,,,,,,53,150094,22,Female,1,2024/02/13_14:03:56,YZ,59.94891729040235,
,,,,,,calibration,0,26,2,2583,5,F,1,right,0.6934771870000986,0,0,,,,,,,,,,,,,,,,,,,,,1,,,,,,,,,,,,,,,,,,,,,,,,,,,,,,,,,,,,,,,,,,,,,,53,150094,22,Female,1,2024/02/13_14:03:56,YZ,59.94891729040235,
,,,,,,calibration,0,26,2,2583,6,V,0,left,0.5783422819949919,0,0,,,,,,,,,,,,,,,,,,,,,1,,,,,,,,,,,,,,,,,,,,,,,,,,,,,,,,,,,,,,,,,,,,,,53,150094,22,Female,1,2024/02/13_14:03:56,YZ,59.94891729040235,
,,,,,,calibration,0,26,2,2583,,,,,,,,0.0,0.0,1.0,0.0,0.0,0.0,0.5186570410054022,0,4,0,0,0,0,0,2,4,0,,,,1,,,,,,,,,,,,,,,,,,,,,,,,,,,,,,,,,,,,,,,,,,,,,,53,150094,22,Female,1,2024/02/13_14:03:56,YZ,59.94891729040235,
,,,,,,Calibration,0,,2,2583,,,,,,,,,,,,,,,,,,,,,,,,,47,,,1,,,,,,,,,,,,,,,,,,,,,,,,,,,,,,,,,,,,,,,,,,,,,,53,150094,22,Female,1,2024/02/13_14:03:56,YZ,59.94891729040235,
,,,,,,calibration,0,9,2,2583,1,S,0,left,0.42310761600674596,0,0,,,,,,,,,,,,,,,,,,,,,1,,,,,,,,,,,,,,,,,,,,,,,,,,,,,,,,,,,,,,,,,,,,,,53,150094,22,Female,1,2024/02/13_14:03:56,YZ,59.94891729040235,
,,,,,,calibration,0,9,2,2583,2,V,0,left,0.6105951339995954,0,0,,,,,,,,,,,,,,,,,,,,,1,,,,,,,,,,,,,,,,,,,,,,,,,,,,,,,,,,,,,,,,,,,,,,53,150094,22,Female,1,2024/02/13_14:03:56,YZ,59.94891729040235,
,,,,,,calibration,0,9,2,2583,3,X,0,left,0.8612897540006088,0,0,,,,,,,,,,,,,,,,,,,,,1,,,,,,,,,,,,,,,,,,,,,,,,,,,,,,,,,,,,,,,,,,,,,,53,150094,22,Female,1,2024/02/13_14:03:56,YZ,59.94891729040235,
,,,,,,calibration,0,9,2,2583,4,S,0,left,0.7457679689978249,0,0,,,,,,,,,,,,,,,,,,,,,1,,,,,,,,,,,,,,,,,,,,,,,,,,,,,,,,,,,,,,,,,,,,,,53,150094,22,Female,1,2024/02/13_14:03:56,YZ,59.94891729040235,
,,,,,,calibration,0,9,2,2583,5,X,1,left,0.6311861080030212,1,0,,,,,,,,,,,,,,,,,,,,,1,,,,,,,,,,,,,,,,,,,,,,,,,,,,,,,,,,,,,,,,,,,,,,53,150094,22,Female,1,2024/02/13_14:03:56,YZ,59.94891729040235,
,,,,,,calibration,0,9,2,2583,6,S,1,right,0.44500254100421444,0,0,,,,,,,,,,,,,,,,,,,,,1,,,,,,,,,,,,,,,,,,,,,,,,,,,,,,,,,,,,,,,,,,,,,,53,150094,22,Female,1,2024/02/13_14:03:56,YZ,59.94891729040235,
,,,,,,calibration,0,9,2,2583,,,,,,,,0.125,0.5,1.0,0.0,0.0,0.0,0.6194915203353352,1,4,0,0,0,0,1,2,4,0,,,,1,,,,,,,,,,,,,,,,,,,,,,,,,,,,,,,,,,,,,,,,,,,,,,53,150094,22,Female,1,2024/02/13_14:03:56,YZ,59.94891729040235,
,,,,,,Calibration,0,,2,2583,,,,,,,,,,,,,,,,,,,,,,,,,48,,,1,,,,,,,,,,,,,,,,,,,,,,,,,,,,,,,,,,,,,,,,,,,,,,53,150094,22,Female,1,2024/02/13_14:03:56,YZ,59.94891729040235,
,,,,,,calibration,0,23,2,2583,1,X,0,left,0.2297222250053892,0,0,,,,,,,,,,,,,,,,,,,,,1,,,,,,,,,,,,,,,,,,,,,,,,,,,,,,,,,,,,,,,,,,,,,,53,150094,22,Female,1,2024/02/13_14:03:56,YZ,59.94891729040235,
,,,,,,calibration,0,23,2,2583,2,C,0,left,0.709575919987401,0,0,,,,,,,,,,,,,,,,,,,,,1,,,,,,,,,,,,,,,,,,,,,,,,,,,,,,,,,,,,,,,,,,,,,,53,150094,22,Female,1,2024/02/13_14:03:56,YZ,59.94891729040235,
,,,,,,calibration,0,23,2,2583,3,X,1,left,0.46828501200070605,1,0,,,,,,,,,,,,,,,,,,,,,1,,,,,,,,,,,,,,,,,,,,,,,,,,,,,,,,,,,,,,,,,,,,,,53,150094,22,Female,1,2024/02/13_14:03:56,YZ,59.94891729040235,
,,,,,,calibration,0,23,2,2583,4,C,1,right,0.42187013500370085,0,0,,,,,,,,,,,,,,,,,,,,,1,,,,,,,,,,,,,,,,,,,,,,,,,,,,,,,,,,,,,,,,,,,,,,53,150094,22,Female,1,2024/02/13_14:03:56,YZ,59.94891729040235,
,,,,,,calibration,0,23,2,2583,5,S,0,left,0.4204224209970562,0,0,,,,,,,,,,,,,,,,,,,,,1,,,,,,,,,,,,,,,,,,,,,,,,,,,,,,,,,,,,,,,,,,,,,,53,150094,22,Female,1,2024/02/13_14:03:56,YZ,59.94891729040235,
,,,,,,calibration,0,23,2,2583,6,J,0,left,0.5772544729989022,0,0,,,,,,,,,,,,,,,,,,,,,1,,,,,,,,,,,,,,,,,,,,,,,,,,,,,,,,,,,,,,,,,,,,,,53,150094,22,Female,1,2024/02/13_14:03:56,YZ,59.94891729040235,
,,,,,,calibration,0,23,2,2583,,,,,,,,0.125,0.5,1.0,0.0,0.0,0.0,0.4711883643321926,1,4,0,0,0,0,1,2,4,0,,,,1,,,,,,,,,,,,,,,,,,,,,,,,,,,,,,,,,,,,,,,,,,,,,,53,150094,22,Female,1,2024/02/13_14:03:56,YZ,59.94891729040235,
,,,,,,Calibration,0,,2,2583,,,,,,,,,,,,,,,,,,,,,,,,,49,,,1,,,,,,,,,,,,,,,,,,,,,,,,,,,,,,,,,,,,,,,,,,,,,,53,150094,22,Female,1,2024/02/13_14:03:56,YZ,59.94891729040235,
,,,,,,calibration,0,16,2,2583,1,F,0,left,0.3394086930056801,0,0,,,,,,,,,,,,,,,,,,,,,1,,,,,,,,,,,,,,,,,,,,,,,,,,,,,,,,,,,,,,,,,,,,,,53,150094,22,Female,1,2024/02/13_14:03:56,YZ,59.94891729040235,
,,,,,,calibration,0,16,2,2583,2,F,0,left,0.3414914609893458,0,0,,,,,,,,,,,,,,,,,,,,,1,,,,,,,,,,,,,,,,,,,,,,,,,,,,,,,,,,,,,,,,,,,,,,53,150094,22,Female,1,2024/02/13_14:03:56,YZ,59.94891729040235,
,,,,,,calibration,0,16,2,2583,3,Q,0,left,0.7932942329935031,0,0,,,,,,,,,,,,,,,,,,,,,1,,,,,,,,,,,,,,,,,,,,,,,,,,,,,,,,,,,,,,,,,,,,,,53,150094,22,Female,1,2024/02/13_14:03:56,YZ,59.94891729040235,
,,,,,,calibration,0,16,2,2583,4,F,1,right,0.4196355480089551,0,0,,,,,,,,,,,,,,,,,,,,,1,,,,,,,,,,,,,,,,,,,,,,,,,,,,,,,,,,,,,,,,,,,,,,53,150094,22,Female,1,2024/02/13_14:03:56,YZ,59.94891729040235,
,,,,,,calibration,0,16,2,2583,5,S,0,left,0.4536591329961084,0,0,,,,,,,,,,,,,,,,,,,,,1,,,,,,,,,,,,,,,,,,,,,,,,,,,,,,,,,,,,,,,,,,,,,,53,150094,22,Female,1,2024/02/13_14:03:56,YZ,59.94891729040235,
,,,,,,calibration,0,16,2,2583,6,F,1,right,0.5782933309965301,0,0,,,,,,,,,,,,,,,,,,,,,1,,,,,,,,,,,,,,,,,,,,,,,,,,,,,,,,,,,,,,,,,,,,,,53,150094,22,Female,1,2024/02/13_14:03:56,YZ,59.94891729040235,
,,,,,,calibration,0,16,2,2583,,,,,,,,0.0,0.0,1.0,0.0,0.0,0.0,0.4876303998316871,0,4,0,0,0,0,0,2,4,0,,,,1,,,,,,,,,,,,,,,,,,,,,,,,,,,,,,,,,,,,,,,,,,,,,,53,150094,22,Female,1,2024/02/13_14:03:56,YZ,59.94891729040235,
,,,,,,Calibration,0,,2,2583,,,,,,,,,,,,,,,,,,,,,,,,,50,,,1,,,,,,,,,,,,,,,,,,,,,,,,,,,,,,,,,,,,,,,,,,,,,,53,150094,22,Female,1,2024/02/13_14:03:56,YZ,59.94891729040235,
,,,,,,calibration,0,10,2,2583,1,N,0,left,0.48931752498901915,0,0,,,,,,,,,,,,,,,,,,,,,1,,,,,,,,,,,,,,,,,,,,,,,,,,,,,,,,,,,,,,,,,,,,,,53,150094,22,Female,1,2024/02/13_14:03:56,YZ,59.94891729040235,
,,,,,,calibration,0,10,2,2583,2,N,0,left,0.5597502480086405,0,0,,,,,,,,,,,,,,,,,,,,,1,,,,,,,,,,,,,,,,,,,,,,,,,,,,,,,,,,,,,,,,,,,,,,53,150094,22,Female,1,2024/02/13_14:03:56,YZ,59.94891729040235,
,,,,,,calibration,0,10,2,2583,3,N,1,right,0.6127087509958073,0,0,,,,,,,,,,,,,,,,,,,,,1,,,,,,,,,,,,,,,,,,,,,,,,,,,,,,,,,,,,,,,,,,,,,,53,150094,22,Female,1,2024/02/13_14:03:56,YZ,59.94891729040235,
,,,,,,calibration,0,10,2,2583,4,V,0,left,0.38409536199469585,0,0,,,,,,,,,,,,,,,,,,,,,1,,,,,,,,,,,,,,,,,,,,,,,,,,,,,,,,,,,,,,,,,,,,,,53,150094,22,Female,1,2024/02/13_14:03:56,YZ,59.94891729040235,
,,,,,,calibration,0,10,2,2583,5,J,0,left,0.4954625709942775,0,0,,,,,,,,,,,,,,,,,,,,,1,,,,,,,,,,,,,,,,,,,,,,,,,,,,,,,,,,,,,,,,,,,,,,53,150094,22,Female,1,2024/02/13_14:03:56,YZ,59.94891729040235,
,,,,,,calibration,0,10,2,2583,6,V,1,right,0.4733637019962771,0,0,,,,,,,,,,,,,,,,,,,,,1,,,,,,,,,,,,,,,,,,,,,,,,,,,,,,,,,,,,,,,,,,,,,,53,150094,22,Female,1,2024/02/13_14:03:56,YZ,59.94891729040235,
,,,,,,calibration,0,10,2,2583,,,,,,,,0.0,0.0,1.0,0.0,0.0,0.0,0.5024496931631196,0,4,0,0,0,0,0,2,4,0,,,,1,,,,,,,,,,,,,,,,,,,,,,,,,,,,,,,,,,,,,,,,,,,,,,53,150094,22,Female,1,2024/02/13_14:03:56,YZ,59.94891729040235,
,,,,,,Calibration,0,,2,2583,,,,,,,,,,,,,,,,,,,,,,,,,51,,,1,,,,,,,,,,,,,,,,,,,,,,,,,,,,,,,,,,,,,,,,,,,,,,53,150094,22,Female,1,2024/02/13_14:03:56,YZ,59.94891729040235,
,,,,,,calibration,0,23,2,2583,1,X,0,left,0.10138303099665791,0,0,,,,,,,,,,,,,,,,,,,,,1,,,,,,,,,,,,,,,,,,,,,,,,,,,,,,,,,,,,,,,,,,,,,,53,150094,22,Female,1,2024/02/13_14:03:56,YZ,59.94891729040235,
,,,,,,calibration,0,23,2,2583,2,C,0,left,0.4380732140125474,0,0,,,,,,,,,,,,,,,,,,,,,1,,,,,,,,,,,,,,,,,,,,,,,,,,,,,,,,,,,,,,,,,,,,,,53,150094,22,Female,1,2024/02/13_14:03:56,YZ,59.94891729040235,
,,,,,,calibration,0,23,2,2583,3,X,1,right,0.484591005006223,0,0,,,,,,,,,,,,,,,,,,,,,1,,,,,,,,,,,,,,,,,,,,,,,,,,,,,,,,,,,,,,,,,,,,,,53,150094,22,Female,1,2024/02/13_14:03:56,YZ,59.94891729040235,
,,,,,,calibration,0,23,2,2583,4,C,1,right,0.5646434460068122,0,0,,,,,,,,,,,,,,,,,,,,,1,,,,,,,,,,,,,,,,,,,,,,,,,,,,,,,,,,,,,,,,,,,,,,53,150094,22,Female,1,2024/02/13_14:03:56,YZ,59.94891729040235,
,,,,,,calibration,0,23,2,2583,5,S,0,left,0.48635945699061267,0,0,,,,,,,,,,,,,,,,,,,,,1,,,,,,,,,,,,,,,,,,,,,,,,,,,,,,,,,,,,,,,,,,,,,,53,150094,22,Female,1,2024/02/13_14:03:56,YZ,59.94891729040235,
,,,,,,calibration,0,23,2,2583,6,J,0,left,0.5628853870002786,0,0,,,,,,,,,,,,,,,,,,,,,1,,,,,,,,,,,,,,,,,,,,,,,,,,,,,,,,,,,,,,,,,,,,,,53,150094,22,Female,1,2024/02/13_14:03:56,YZ,59.94891729040235,
,,,,,,calibration,0,23,2,2583,,,,,,,,0.0,0.0,1.0,0.0,0.0,0.0,0.43965592333552195,0,4,0,0,0,0,0,2,4,0,,,,1,,,,,,,,,,,,,,,,,,,,,,,,,,,,,,,,,,,,,,,,,,,,,,53,150094,22,Female,1,2024/02/13_14:03:56,YZ,59.94891729040235,
,,,,,,Calibration,0,,2,2583,,,,,,,,,,,,,,,,,,,,,,,,,52,,,1,,,,,,,,,,,,,,,,,,,,,,,,,,,,,,,,,,,,,,,,,,,,,,53,150094,22,Female,1,2024/02/13_14:03:56,YZ,59.94891729040235,
,,,,,,calibration,0,17,2,2583,1,Q,0,left,0.09665823700197507,0,0,,,,,,,,,,,,,,,,,,,,,1,,,,,,,,,,,,,,,,,,,,,,,,,,,,,,,,,,,,,,,,,,,,,,53,150094,22,Female,1,2024/02/13_14:03:56,YZ,59.94891729040235,
,,,,,,calibration,0,17,2,2583,2,N,0,left,0.3201802429975942,0,0,,,,,,,,,,,,,,,,,,,,,1,,,,,,,,,,,,,,,,,,,,,,,,,,,,,,,,,,,,,,,,,,,,,,53,150094,22,Female,1,2024/02/13_14:03:56,YZ,59.94891729040235,
,,,,,,calibration,0,17,2,2583,3,C,0,left,0.4269126650033286,0,0,,,,,,,,,,,,,,,,,,,,,1,,,,,,,,,,,,,,,,,,,,,,,,,,,,,,,,,,,,,,,,,,,,,,53,150094,22,Female,1,2024/02/13_14:03:56,YZ,59.94891729040235,
,,,,,,calibration,0,17,2,2583,4,N,1,right,0.4410349509998923,0,0,,,,,,,,,,,,,,,,,,,,,1,,,,,,,,,,,,,,,,,,,,,,,,,,,,,,,,,,,,,,,,,,,,,,53,150094,22,Female,1,2024/02/13_14:03:56,YZ,59.94891729040235,
,,,,,,calibration,0,17,2,2583,5,C,1,right,0.4077098749985453,0,0,,,,,,,,,,,,,,,,,,,,,1,,,,,,,,,,,,,,,,,,,,,,,,,,,,,,,,,,,,,,,,,,,,,,53,150094,22,Female,1,2024/02/13_14:03:56,YZ,59.94891729040235,
,,,,,,calibration,0,17,2,2583,6,J,0,left,0.4786392079986399,0,0,,,,,,,,,,,,,,,,,,,,,1,,,,,,,,,,,,,,,,,,,,,,,,,,,,,,,,,,,,,,,,,,,,,,53,150094,22,Female,1,2024/02/13_14:03:56,YZ,59.94891729040235,
,,,,,,calibration,0,17,2,2583,,,,,,,,0.0,0.0,1.0,0.0,0.0,0.0,0.3618558631666626,0,4,0,0,0,0,0,2,4,0,,,,1,,,,,,,,,,,,,,,,,,,,,,,,,,,,,,,,,,,,,,,,,,,,,,53,150094,22,Female,1,2024/02/13_14:03:56,YZ,59.94891729040235,
