Instruction,Stimulus,Key,RT,START,END,Phase,Block,TrialN,NbackLevel,ISI,LetterN,Letter,Letter_isSame,Letter_Resp,Letter_RT,Letter_Accuracy,Letter_Timeout,Trial_A_measure,Trial_HR,Trial_FAR,Trial_CDR,Trial_MSR,Trial_ACC,Trial_RT,Trial_HitsCount,Trial_FAsCount,Trial_SameNoRespCount,Trial_DiffNoRespCount,Trial_NoRespCount,Trial_CDsCount,Trial_CorrectRespCount,Trial_SameLetterCount,Trial_DiffLetterCount,Trial_InvalidLetterCount,TrialCountCali,CaliEnd_A_measure,ISI_calibrated,Run,TrialIndex,TrialNumber_total,TrialNumber_valid,CueLearning,TrialDemandLearning,CueMapping,OnlineRating,OnlineRatingRT,OnlineRatingTimeOut,CueSTART,RatingSTART,OfflineRatingTimePoint,OfflineRatingQuesIndex,CueFigure,TrialDemand,OfflineRating,OfflineRatingRT,CueStart,OfflineRatingStart,PhaseType,CueLeft,CueDemandLeft,CueRight,CueDemandRight,Choice,ChoiceDemand,TaskDemand,ChoiceRT,ChoiceTimeOut,ChoiceSTART,CueCheck,CueDemandCheck,CorrectAnswer,Answer,AnswerDemand,AnswerRT,AnswerACC,AnswerTimeOut,CheckSTART,DemandRatingQuesIndex,QuesTLX,DemandLevel,DemandRating,DemandRatingRT,QuesStart,PID,SONA,Age,Gender,Run,TIME,EXPERIMENTER,frameRate,
1,./instructions/inst_begin/Slide2.png,right,24.523928040987812,0.11978785699466243,24.643715897982474,,,,,,,,,,,,,,,,,,,,,,,,,,,,,,,,,1,,,,,,,,,,,,,,,,,,,,,,,,,,,,,,,,,,,,,,,,,,,,,,121,156136,18,Female,1,2024/03/25_14:16:02,YZ,None,
2,./instructions/inst_begin/Slide3.png,right,12.676323088991921,24.67125269898679,37.34757578797871,,,,,,,,,,,,,,,,,,,,,,,,,,,,,,,,,1,,,,,,,,,,,,,,,,,,,,,,,,,,,,,,,,,,,,,,,,,,,,,,121,156136,18,Female,1,2024/03/25_14:16:02,YZ,None,
3,./instructions/inst_begin/Slide4.png,right,9.53847478501848,37.377074244985124,46.9155490300036,,,,,,,,,,,,,,,,,,,,,,,,,,,,,,,,,1,,,,,,,,,,,,,,,,,,,,,,,,,,,,,,,,,,,,,,,,,,,,,,121,156136,18,Female,1,2024/03/25_14:16:02,YZ,None,
1,./instructions/inst_prac_2/Slide6.png,right,21.778006111999275,46.95363932600594,68.73164543800522,,,,,,,,,,,,,,,,,,,,,,,,,,,,,,,,,1,,,,,,,,,,,,,,,,,,,,,,,,,,,,,,,,,,,,,,,,,,,,,,121,156136,18,Female,1,2024/03/25_14:16:02,YZ,None,
2,./instructions/inst_prac_2/Slide7.png,right,15.20232233798015,68.76140557799954,83.96372791597969,,,,,,,,,,,,,,,,,,,,,,,,,,,,,,,,,1,,,,,,,,,,,,,,,,,,,,,,,,,,,,,,,,,,,,,,,,,,,,,,121,156136,18,Female,1,2024/03/25_14:16:02,YZ,None,
3,./instructions/inst_prac_2/Slide8.png,right,18.14652078098152,83.99314152100123,102.13966230198275,,,,,,,,,,,,,,,,,,,,,,,,,,,,,,,,,1,,,,,,,,,,,,,,,,,,,,,,,,,,,,,,,,,,,,,,,,,,,,,,121,156136,18,Female,1,2024/03/25_14:16:02,YZ,None,
4,./instructions/inst_prac_2/Slide9.png,right,5.466678347002016,102.16891276297974,107.63559110998176,,,,,,,,,,,,,,,,,,,,,,,,,,,,,,,,,1,,,,,,,,,,,,,,,,,,,,,,,,,,,,,,,,,,,,,,,,,,,,,,121,156136,18,Female,1,2024/03/25_14:16:02,YZ,None,
5,./instructions/inst_prac_2/Slide10.png,right,1.315220512013184,107.66441650898196,108.97963702099514,,,,,,,,,,,,,,,,,,,,,,,,,,,,,,,,,1,,,,,,,,,,,,,,,,,,,,,,,,,,,,,,,,,,,,,,,,,,,,,,121,156136,18,Female,1,2024/03/25_14:16:02,YZ,None,
6,./instructions/inst_prac_2/Slide11.png,right,1.3628695140068885,109.00862305299961,110.3714925670065,,,,,,,,,,,,,,,,,,,,,,,,,,,,,,,,,1,,,,,,,,,,,,,,,,,,,,,,,,,,,,,,,,,,,,,,,,,,,,,,121,156136,18,Female,1,2024/03/25_14:16:02,YZ,None,
7,./instructions/inst_prac_2/Slide12.png,right,1.0678324699983932,110.39963362799608,111.46746609799447,,,,,,,,,,,,,,,,,,,,,,,,,,,,,,,,,1,,,,,,,,,,,,,,,,,,,,,,,,,,,,,,,,,,,,,,,,,,,,,,121,156136,18,Female,1,2024/03/25_14:16:02,YZ,None,
8,./instructions/inst_prac_2/Slide13.png,right,1.362911371019436,111.49662561898003,112.85953698999947,,,,,,,,,,,,,,,,,,,,,,,,,,,,,,,,,1,,,,,,,,,,,,,,,,,,,,,,,,,,,,,,,,,,,,,,,,,,,,,,121,156136,18,Female,1,2024/03/25_14:16:02,YZ,None,
9,./instructions/inst_prac_2/Slide14.png,right,10.917596946994308,112.8861062490032,123.80370319599751,,,,,,,,,,,,,,,,,,,,,,,,,,,,,,,,,1,,,,,,,,,,,,,,,,,,,,,,,,,,,,,,,,,,,,,,,,,,,,,,121,156136,18,Female,1,2024/03/25_14:16:02,YZ,None,
10,./instructions/inst_prac_2/Slide15.png,right,19.178304507979192,123.83330217300681,143.011606680986,,,,,,,,,,,,,,,,,,,,,,,,,,,,,,,,,1,,,,,,,,,,,,,,,,,,,,,,,,,,,,,,,,,,,,,,,,,,,,,,121,156136,18,Female,1,2024/03/25_14:16:02,YZ,None,
,,,,,,practice,0,29,2,2583,1,F,0,right,1.825828219007235,1,0,,,,,,,,,,,,,,,,,,,,,1,,,,,,,,,,,,,,,,,,,,,,,,,,,,,,,,,,,,,,,,,,,,,,121,156136,18,Female,1,2024/03/25_14:16:02,YZ,None,
,,,,,,practice,0,29,2,2583,2,J,0,right,0.7785887740028556,1,0,,,,,,,,,,,,,,,,,,,,,1,,,,,,,,,,,,,,,,,,,,,,,,,,,,,,,,,,,,,,,,,,,,,,121,156136,18,Female,1,2024/03/25_14:16:02,YZ,None,
,,,,,,practice,0,29,2,2583,3,N,0,right,0.7554060330148786,1,0,,,,,,,,,,,,,,,,,,,,,1,,,,,,,,,,,,,,,,,,,,,,,,,,,,,,,,,,,,,,,,,,,,,,121,156136,18,Female,1,2024/03/25_14:16:02,YZ,None,
,,,,,,practice,0,29,2,2583,4,J,1,left,0.5667558130226098,1,0,,,,,,,,,,,,,,,,,,,,,1,,,,,,,,,,,,,,,,,,,,,,,,,,,,,,,,,,,,,,,,,,,,,,121,156136,18,Female,1,2024/03/25_14:16:02,YZ,None,
,,,,,,practice,0,29,2,2583,5,F,0,right,0.7168926279991865,1,0,,,,,,,,,,,,,,,,,,,,,1,,,,,,,,,,,,,,,,,,,,,,,,,,,,,,,,,,,,,,,,,,,,,,121,156136,18,Female,1,2024/03/25_14:16:02,YZ,None,
,,,,,,practice,0,29,2,2583,6,J,1,left,0.5726813549990766,1,0,,,,,,,,,,,,,,,,,,,,,1,,,,,,,,,,,,,,,,,,,,,,,,,,,,,,,,,,,,,,,,,,,,,,121,156136,18,Female,1,2024/03/25_14:16:02,YZ,None,
,,,,,,practice,0,29,2,2583,,,,,,,,1.0,1.0,0.0,1.0,0.0,1.0,0.8693588036743071,2,0,0,0,0,4,6,2,4,0,,,,1,,,,,,,,,,,,,,,,,,,,,,,,,,,,,,,,,,,,,,,,,,,,,,121,156136,18,Female,1,2024/03/25_14:16:02,YZ,None,
1,./instructions/inst_to_cali/Slide20.png,right,5.516012674983358,154.5835841789958,160.09959685397916,,,,,,,,,,,,,,,,,,,,,,,,,,,,,,,,,1,,,,,,,,,,,,,,,,,,,,,,,,,,,,,,,,,,,,,,,,,,,,,,121,156136,18,Female,1,2024/03/25_14:16:02,YZ,None,
1,./instructions/inst_cali/Slide22.png,right,13.995614890998695,160.13602305899258,174.13163794999127,,,,,,,,,,,,,,,,,,,,,,,,,,,,,,,,,1,,,,,,,,,,,,,,,,,,,,,,,,,,,,,,,,,,,,,,,,,,,,,,121,156136,18,Female,1,2024/03/25_14:16:02,YZ,None,
,,,,,,calibration,0,8,2,583,1,J,0,right,0.42612732597626746,1,0,,,,,,,,,,,,,,,,,,,,,1,,,,,,,,,,,,,,,,,,,,,,,,,,,,,,,,,,,,,,,,,,,,,,121,156136,18,Female,1,2024/03/25_14:16:02,YZ,None,
,,,,,,calibration,0,8,2,583,2,Q,0,right,0.5921947409806307,1,0,,,,,,,,,,,,,,,,,,,,,1,,,,,,,,,,,,,,,,,,,,,,,,,,,,,,,,,,,,,,,,,,,,,,121,156136,18,Female,1,2024/03/25_14:16:02,YZ,None,
,,,,,,calibration,0,8,2,583,3,J,1,left,0.47903656199923716,1,0,,,,,,,,,,,,,,,,,,,,,1,,,,,,,,,,,,,,,,,,,,,,,,,,,,,,,,,,,,,,,,,,,,,,121,156136,18,Female,1,2024/03/25_14:16:02,YZ,None,
,,,,,,calibration,0,8,2,583,4,N,0,right,0.5377487380173989,1,0,,,,,,,,,,,,,,,,,,,,,1,,,,,,,,,,,,,,,,,,,,,,,,,,,,,,,,,,,,,,,,,,,,,,121,156136,18,Female,1,2024/03/25_14:16:02,YZ,None,
,,,,,,calibration,0,8,2,583,5,J,1,left,0.5473946489801165,1,0,,,,,,,,,,,,,,,,,,,,,1,,,,,,,,,,,,,,,,,,,,,,,,,,,,,,,,,,,,,,,,,,,,,,121,156136,18,Female,1,2024/03/25_14:16:02,YZ,None,
,,,,,,calibration,0,8,2,583,6,C,0,right,0.49705067099421285,1,0,,,,,,,,,,,,,,,,,,,,,1,,,,,,,,,,,,,,,,,,,,,,,,,,,,,,,,,,,,,,,,,,,,,,121,156136,18,Female,1,2024/03/25_14:16:02,YZ,None,
,,,,,,calibration,0,8,2,583,7,X,0,right,0.44943982700351626,1,0,,,,,,,,,,,,,,,,,,,,,1,,,,,,,,,,,,,,,,,,,,,,,,,,,,,,,,,,,,,,,,,,,,,,121,156136,18,Female,1,2024/03/25_14:16:02,YZ,None,
,,,,,,calibration,0,8,2,583,8,V,0,right,0.47204106199205853,1,0,,,,,,,,,,,,,,,,,,,,,1,,,,,,,,,,,,,,,,,,,,,,,,,,,,,,,,,,,,,,,,,,,,,,121,156136,18,Female,1,2024/03/25_14:16:02,YZ,None,
,,,,,,calibration,0,8,2,583,9,N,0,right,0.5243037119798828,1,0,,,,,,,,,,,,,,,,,,,,,1,,,,,,,,,,,,,,,,,,,,,,,,,,,,,,,,,,,,,,,,,,,,,,121,156136,18,Female,1,2024/03/25_14:16:02,YZ,None,
,,,,,,calibration,0,8,2,583,10,J,0,right,0.7350288640009239,1,0,,,,,,,,,,,,,,,,,,,,,1,,,,,,,,,,,,,,,,,,,,,,,,,,,,,,,,,,,,,,,,,,,,,,121,156136,18,Female,1,2024/03/25_14:16:02,YZ,None,
,,,,,,calibration,0,8,2,583,11,N,1,right,0.47794260099180974,0,0,,,,,,,,,,,,,,,,,,,,,1,,,,,,,,,,,,,,,,,,,,,,,,,,,,,,,,,,,,,,,,,,,,,,121,156136,18,Female,1,2024/03/25_14:16:02,YZ,None,
,,,,,,calibration,0,8,2,583,12,J,1,right,0.6353464209823869,0,0,,,,,,,,,,,,,,,,,,,,,1,,,,,,,,,,,,,,,,,,,,,,,,,,,,,,,,,,,,,,,,,,,,,,121,156136,18,Female,1,2024/03/25_14:16:02,YZ,None,
,,,,,,calibration,0,8,2,583,13,C,0,right,0.5253027900180314,1,0,,,,,,,,,,,,,,,,,,,,,1,,,,,,,,,,,,,,,,,,,,,,,,,,,,,,,,,,,,,,,,,,,,,,121,156136,18,Female,1,2024/03/25_14:16:02,YZ,None,
,,,,,,calibration,0,8,2,583,14,F,0,right,0.47679574802168645,1,0,,,,,,,,,,,,,,,,,,,,,1,,,,,,,,,,,,,,,,,,,,,,,,,,,,,,,,,,,,,,,,,,,,,,121,156136,18,Female,1,2024/03/25_14:16:02,YZ,None,
,,,,,,calibration,0,8,2,583,15,Q,0,right,0.524133468978107,1,0,,,,,,,,,,,,,,,,,,,,,1,,,,,,,,,,,,,,,,,,,,,,,,,,,,,,,,,,,,,,,,,,,,,,121,156136,18,Female,1,2024/03/25_14:16:02,YZ,None,
,,,,,,calibration,0,8,2,583,,,,,,,,0.875,0.5,0.0,1.0,0.0,1.0,0.5266591453944177,2,0,0,0,0,11,13,4,11,0,,,,1,,,,,,,,,,,,,,,,,,,,,,,,,,,,,,,,,,,,,,,,,,,,,,121,156136,18,Female,1,2024/03/25_14:16:02,YZ,None,
,,,,,,Calibration,0,,2,583,,,,,,,,,,,,,,,,,,,,,,,,,1,,,1,,,,,,,,,,,,,,,,,,,,,,,,,,,,,,,,,,,,,,,,,,,,,,121,156136,18,Female,1,2024/03/25_14:16:02,YZ,None,
,,,,,,calibration,0,11,2,500,1,J,0,right,0.5665136119932868,1,0,,,,,,,,,,,,,,,,,,,,,1,,,,,,,,,,,,,,,,,,,,,,,,,,,,,,,,,,,,,,,,,,,,,,121,156136,18,Female,1,2024/03/25_14:16:02,YZ,None,
,,,,,,calibration,0,11,2,500,2,S,0,right,0.2453694040013943,1,0,,,,,,,,,,,,,,,,,,,,,1,,,,,,,,,,,,,,,,,,,,,,,,,,,,,,,,,,,,,,,,,,,,,,121,156136,18,Female,1,2024/03/25_14:16:02,YZ,None,
,,,,,,calibration,0,11,2,500,3,J,1,left,0.48435560302459635,1,0,,,,,,,,,,,,,,,,,,,,,1,,,,,,,,,,,,,,,,,,,,,,,,,,,,,,,,,,,,,,,,,,,,,,121,156136,18,Female,1,2024/03/25_14:16:02,YZ,None,
,,,,,,calibration,0,11,2,500,4,C,0,right,0.35205487901112065,1,0,,,,,,,,,,,,,,,,,,,,,1,,,,,,,,,,,,,,,,,,,,,,,,,,,,,,,,,,,,,,,,,,,,,,121,156136,18,Female,1,2024/03/25_14:16:02,YZ,None,
,,,,,,calibration,0,11,2,500,5,S,0,right,0.4171126860019285,1,0,,,,,,,,,,,,,,,,,,,,,1,,,,,,,,,,,,,,,,,,,,,,,,,,,,,,,,,,,,,,,,,,,,,,121,156136,18,Female,1,2024/03/25_14:16:02,YZ,None,
,,,,,,calibration,0,11,2,500,6,C,1,left,0.49033940900699235,1,0,,,,,,,,,,,,,,,,,,,,,1,,,,,,,,,,,,,,,,,,,,,,,,,,,,,,,,,,,,,,,,,,,,,,121,156136,18,Female,1,2024/03/25_14:16:02,YZ,None,
,,,,,,calibration,0,11,2,500,7,J,0,right,0.25725600999430753,1,0,,,,,,,,,,,,,,,,,,,,,1,,,,,,,,,,,,,,,,,,,,,,,,,,,,,,,,,,,,,,,,,,,,,,121,156136,18,Female,1,2024/03/25_14:16:02,YZ,None,
,,,,,,calibration,0,11,2,500,8,N,0,right,0.3536547249823343,1,0,,,,,,,,,,,,,,,,,,,,,1,,,,,,,,,,,,,,,,,,,,,,,,,,,,,,,,,,,,,,,,,,,,,,121,156136,18,Female,1,2024/03/25_14:16:02,YZ,None,
,,,,,,calibration,0,11,2,500,9,V,0,right,0.33602955998503603,1,0,,,,,,,,,,,,,,,,,,,,,1,,,,,,,,,,,,,,,,,,,,,,,,,,,,,,,,,,,,,,,,,,,,,,121,156136,18,Female,1,2024/03/25_14:16:02,YZ,None,
,,,,,,calibration,0,11,2,500,10,N,1,right,0.3357883840217255,0,0,,,,,,,,,,,,,,,,,,,,,1,,,,,,,,,,,,,,,,,,,,,,,,,,,,,,,,,,,,,,,,,,,,,,121,156136,18,Female,1,2024/03/25_14:16:02,YZ,None,
,,,,,,calibration,0,11,2,500,11,C,0,left,0.0,0,0,,,,,,,,,,,,,,,,,,,,,1,,,,,,,,,,,,,,,,,,,,,,,,,,,,,,,,,,,,,,,,,,,,,,121,156136,18,Female,1,2024/03/25_14:16:02,YZ,None,
,,,,,,calibration,0,11,2,500,12,S,0,right,0.633881522982847,1,0,,,,,,,,,,,,,,,,,,,,,1,,,,,,,,,,,,,,,,,,,,,,,,,,,,,,,,,,,,,,,,,,,,,,121,156136,18,Female,1,2024/03/25_14:16:02,YZ,None,
,,,,,,calibration,0,11,2,500,13,C,1,right,nan,0,1,,,,,,,,,,,,,,,,,,,,,1,,,,,,,,,,,,,,,,,,,,,,,,,,,,,,,,,,,,,,,,,,,,,,121,156136,18,Female,1,2024/03/25_14:16:02,YZ,None,
,,,,,,calibration,0,11,2,500,14,J,0,right,0.8588035240245517,1,0,,,,,,,,,,,,,,,,,,,,,1,,,,,,,,,,,,,,,,,,,,,,,,,,,,,,,,,,,,,,,,,,,,,,121,156136,18,Female,1,2024/03/25_14:16:02,YZ,None,
,,,,,,calibration,0,11,2,500,15,X,0,right,0.5125691419816576,1,0,,,,,,,,,,,,,,,,,,,,,1,,,,,,,,,,,,,,,,,,,,,,,,,,,,,,,,,,,,,,,,,,,,,,121,156136,18,Female,1,2024/03/25_14:16:02,YZ,None,
,,,,,,calibration,0,11,2,500,16,Q,0,right,0.6343265420000535,1,0,,,,,,,,,,,,,,,,,,,,,1,,,,,,,,,,,,,,,,,,,,,,,,,,,,,,,,,,,,,,,,,,,,,,121,156136,18,Female,1,2024/03/25_14:16:02,YZ,None,
,,,,,,calibration,0,11,2,500,,,,,,,,0.8125,0.5,0.08333333333333333,0.9166666666666666,0.0625,0.8541666666666666,0.43187033353412213,2,1,1,0,1,11,13,4,12,0,,,,1,,,,,,,,,,,,,,,,,,,,,,,,,,,,,,,,,,,,,,,,,,,,,,121,156136,18,Female,1,2024/03/25_14:16:02,YZ,None,
,,,,,,Calibration,0,,2,500,,,,,,,,,,,,,,,,,,,,,,,,,2,,,1,,,,,,,,,,,,,,,,,,,,,,,,,,,,,,,,,,,,,,,,,,,,,,121,156136,18,Female,1,2024/03/25_14:16:02,YZ,None,
,,,,,,calibration,0,24,2,500,1,N,0,right,0.3917954019852914,1,0,,,,,,,,,,,,,,,,,,,,,1,,,,,,,,,,,,,,,,,,,,,,,,,,,,,,,,,,,,,,,,,,,,,,121,156136,18,Female,1,2024/03/25_14:16:02,YZ,None,
,,,,,,calibration,0,24,2,500,2,V,0,right,0.4232436940073967,1,0,,,,,,,,,,,,,,,,,,,,,1,,,,,,,,,,,,,,,,,,,,,,,,,,,,,,,,,,,,,,,,,,,,,,121,156136,18,Female,1,2024/03/25_14:16:02,YZ,None,
,,,,,,calibration,0,24,2,500,3,N,1,left,0.32831756098312326,1,0,,,,,,,,,,,,,,,,,,,,,1,,,,,,,,,,,,,,,,,,,,,,,,,,,,,,,,,,,,,,,,,,,,,,121,156136,18,Female,1,2024/03/25_14:16:02,YZ,None,
,,,,,,calibration,0,24,2,500,4,S,0,right,0.3403116039989982,1,0,,,,,,,,,,,,,,,,,,,,,1,,,,,,,,,,,,,,,,,,,,,,,,,,,,,,,,,,,,,,,,,,,,,,121,156136,18,Female,1,2024/03/25_14:16:02,YZ,None,
,,,,,,calibration,0,24,2,500,5,F,0,right,0.40102642501005903,1,0,,,,,,,,,,,,,,,,,,,,,1,,,,,,,,,,,,,,,,,,,,,,,,,,,,,,,,,,,,,,,,,,,,,,121,156136,18,Female,1,2024/03/25_14:16:02,YZ,None,
,,,,,,calibration,0,24,2,500,6,X,0,right,0.3679384950082749,1,0,,,,,,,,,,,,,,,,,,,,,1,,,,,,,,,,,,,,,,,,,,,,,,,,,,,,,,,,,,,,,,,,,,,,121,156136,18,Female,1,2024/03/25_14:16:02,YZ,None,
,,,,,,calibration,0,24,2,500,7,F,1,left,0.562476834980771,1,0,,,,,,,,,,,,,,,,,,,,,1,,,,,,,,,,,,,,,,,,,,,,,,,,,,,,,,,,,,,,,,,,,,,,121,156136,18,Female,1,2024/03/25_14:16:02,YZ,None,
,,,,,,calibration,0,24,2,500,8,N,0,right,0.19396951200906187,1,0,,,,,,,,,,,,,,,,,,,,,1,,,,,,,,,,,,,,,,,,,,,,,,,,,,,,,,,,,,,,,,,,,,,,121,156136,18,Female,1,2024/03/25_14:16:02,YZ,None,
,,,,,,calibration,0,24,2,500,9,J,0,right,0.5239895810082089,1,0,,,,,,,,,,,,,,,,,,,,,1,,,,,,,,,,,,,,,,,,,,,,,,,,,,,,,,,,,,,,,,,,,,,,121,156136,18,Female,1,2024/03/25_14:16:02,YZ,None,
,,,,,,calibration,0,24,2,500,10,Q,0,right,0.2962938130076509,1,0,,,,,,,,,,,,,,,,,,,,,1,,,,,,,,,,,,,,,,,,,,,,,,,,,,,,,,,,,,,,,,,,,,,,121,156136,18,Female,1,2024/03/25_14:16:02,YZ,None,
,,,,,,calibration,0,24,2,500,11,X,0,right,0.3371376940049231,1,0,,,,,,,,,,,,,,,,,,,,,1,,,,,,,,,,,,,,,,,,,,,,,,,,,,,,,,,,,,,,,,,,,,,,121,156136,18,Female,1,2024/03/25_14:16:02,YZ,None,
,,,,,,calibration,0,24,2,500,12,Q,1,right,0.4042524110118393,0,0,,,,,,,,,,,,,,,,,,,,,1,,,,,,,,,,,,,,,,,,,,,,,,,,,,,,,,,,,,,,,,,,,,,,121,156136,18,Female,1,2024/03/25_14:16:02,YZ,None,
,,,,,,calibration,0,24,2,500,13,X,1,right,0.5122520529839676,0,0,,,,,,,,,,,,,,,,,,,,,1,,,,,,,,,,,,,,,,,,,,,,,,,,,,,,,,,,,,,,,,,,,,,,121,156136,18,Female,1,2024/03/25_14:16:02,YZ,None,
,,,,,,calibration,0,24,2,500,14,C,0,right,nan,0,1,,,,,,,,,,,,,,,,,,,,,1,,,,,,,,,,,,,,,,,,,,,,,,,,,,,,,,,,,,,,,,,,,,,,121,156136,18,Female,1,2024/03/25_14:16:02,YZ,None,
,,,,,,calibration,0,24,2,500,15,F,0,right,0.30238245899090543,1,0,,,,,,,,,,,,,,,,,,,,,1,,,,,,,,,,,,,,,,,,,,,,,,,,,,,,,,,,,,,,,,,,,,,,121,156136,18,Female,1,2024/03/25_14:16:02,YZ,None,
,,,,,,calibration,0,24,2,500,16,N,0,right,0.4314159150235355,1,0,,,,,,,,,,,,,,,,,,,,,1,,,,,,,,,,,,,,,,,,,,,,,,,,,,,,,,,,,,,,,,,,,,,,121,156136,18,Female,1,2024/03/25_14:16:02,YZ,None,
,,,,,,calibration,0,24,2,500,,,,,,,,0.875,0.5,0.0,1.0,0.0625,0.9375,0.38778689693426716,2,0,0,1,1,11,13,4,12,0,,,,1,,,,,,,,,,,,,,,,,,,,,,,,,,,,,,,,,,,,,,,,,,,,,,121,156136,18,Female,1,2024/03/25_14:16:02,YZ,None,
,,,,,,Calibration,0,,2,500,,,,,,,,,,,,,,,,,,,,,,,,,3,,,1,,,,,,,,,,,,,,,,,,,,,,,,,,,,,,,,,,,,,,,,,,,,,,121,156136,18,Female,1,2024/03/25_14:16:02,YZ,None,
,,,,,,calibration,0,21,2,426,1,F,0,right,0.400546712015057,1,0,,,,,,,,,,,,,,,,,,,,,1,,,,,,,,,,,,,,,,,,,,,,,,,,,,,,,,,,,,,,,,,,,,,,121,156136,18,Female,1,2024/03/25_14:16:02,YZ,None,
,,,,,,calibration,0,21,2,426,2,S,0,right,0.4515463220013771,1,0,,,,,,,,,,,,,,,,,,,,,1,,,,,,,,,,,,,,,,,,,,,,,,,,,,,,,,,,,,,,,,,,,,,,121,156136,18,Female,1,2024/03/25_14:16:02,YZ,None,
,,,,,,calibration,0,21,2,426,3,F,1,left,0.40918065898586065,1,0,,,,,,,,,,,,,,,,,,,,,1,,,,,,,,,,,,,,,,,,,,,,,,,,,,,,,,,,,,,,,,,,,,,,121,156136,18,Female,1,2024/03/25_14:16:02,YZ,None,
,,,,,,calibration,0,21,2,426,4,S,1,left,0.4675512060057372,1,0,,,,,,,,,,,,,,,,,,,,,1,,,,,,,,,,,,,,,,,,,,,,,,,,,,,,,,,,,,,,,,,,,,,,121,156136,18,Female,1,2024/03/25_14:16:02,YZ,None,
,,,,,,calibration,0,21,2,426,5,X,0,right,0.463568179984577,1,0,,,,,,,,,,,,,,,,,,,,,1,,,,,,,,,,,,,,,,,,,,,,,,,,,,,,,,,,,,,,,,,,,,,,121,156136,18,Female,1,2024/03/25_14:16:02,YZ,None,
,,,,,,calibration,0,21,2,426,6,F,0,right,0.6301382649980951,1,0,,,,,,,,,,,,,,,,,,,,,1,,,,,,,,,,,,,,,,,,,,,,,,,,,,,,,,,,,,,,,,,,,,,,121,156136,18,Female,1,2024/03/25_14:16:02,YZ,None,
,,,,,,calibration,0,21,2,426,7,X,1,right,nan,0,1,,,,,,,,,,,,,,,,,,,,,1,,,,,,,,,,,,,,,,,,,,,,,,,,,,,,,,,,,,,,,,,,,,,,121,156136,18,Female,1,2024/03/25_14:16:02,YZ,None,
,,,,,,calibration,0,21,2,426,8,J,0,left,0.0,0,0,,,,,,,,,,,,,,,,,,,,,1,,,,,,,,,,,,,,,,,,,,,,,,,,,,,,,,,,,,,,,,,,,,,,121,156136,18,Female,1,2024/03/25_14:16:02,YZ,None,
,,,,,,calibration,0,21,2,426,9,S,0,right,0.5001677669933997,1,0,,,,,,,,,,,,,,,,,,,,,1,,,,,,,,,,,,,,,,,,,,,,,,,,,,,,,,,,,,,,,,,,,,,,121,156136,18,Female,1,2024/03/25_14:16:02,YZ,None,
,,,,,,calibration,0,21,2,426,10,X,0,right,0.4361542850092519,1,0,,,,,,,,,,,,,,,,,,,,,1,,,,,,,,,,,,,,,,,,,,,,,,,,,,,,,,,,,,,,,,,,,,,,121,156136,18,Female,1,2024/03/25_14:16:02,YZ,None,
,,,,,,calibration,0,21,2,426,11,S,1,left,0.49546451299102046,1,0,,,,,,,,,,,,,,,,,,,,,1,,,,,,,,,,,,,,,,,,,,,,,,,,,,,,,,,,,,,,,,,,,,,,121,156136,18,Female,1,2024/03/25_14:16:02,YZ,None,
,,,,,,calibration,0,21,2,426,12,X,1,left,0.4762443960062228,1,0,,,,,,,,,,,,,,,,,,,,,1,,,,,,,,,,,,,,,,,,,,,,,,,,,,,,,,,,,,,,,,,,,,,,121,156136,18,Female,1,2024/03/25_14:16:02,YZ,None,
,,,,,,calibration,0,21,2,426,13,C,0,right,0.44423934098449536,1,0,,,,,,,,,,,,,,,,,,,,,1,,,,,,,,,,,,,,,,,,,,,,,,,,,,,,,,,,,,,,,,,,,,,,121,156136,18,Female,1,2024/03/25_14:16:02,YZ,None,
,,,,,,calibration,0,21,2,426,14,S,0,left,0.5482023939839564,0,0,,,,,,,,,,,,,,,,,,,,,1,,,,,,,,,,,,,,,,,,,,,,,,,,,,,,,,,,,,,,,,,,,,,,121,156136,18,Female,1,2024/03/25_14:16:02,YZ,None,
,,,,,,calibration,0,21,2,426,15,Q,0,right,0.2659390490152873,1,0,,,,,,,,,,,,,,,,,,,,,1,,,,,,,,,,,,,,,,,,,,,,,,,,,,,,,,,,,,,,,,,,,,,,121,156136,18,Female,1,2024/03/25_14:16:02,YZ,None,
,,,,,,calibration,0,21,2,426,16,C,0,left,0.49705757200717926,0,0,,,,,,,,,,,,,,,,,,,,,1,,,,,,,,,,,,,,,,,,,,,,,,,,,,,,,,,,,,,,,,,,,,,,121,156136,18,Female,1,2024/03/25_14:16:02,YZ,None,
,,,,,,calibration,0,21,2,426,17,V,0,right,0.40419166698120534,1,0,,,,,,,,,,,,,,,,,,,,,1,,,,,,,,,,,,,,,,,,,,,,,,,,,,,,,,,,,,,,,,,,,,,,121,156136,18,Female,1,2024/03/25_14:16:02,YZ,None,
,,,,,,calibration,0,21,2,426,,,,,,,,0.8374999999999999,0.8,0.25,0.75,0.058823529411764705,0.6911764705882353,0.43063702049767016,4,3,1,0,1,9,13,5,12,0,,,,1,,,,,,,,,,,,,,,,,,,,,,,,,,,,,,,,,,,,,,,,,,,,,,121,156136,18,Female,1,2024/03/25_14:16:02,YZ,None,
,,,,,,Calibration,0,,2,426,,,,,,,,,,,,,,,,,,,,,,,,,4,,,1,,,,,,,,,,,,,,,,,,,,,,,,,,,,,,,,,,,,,,,,,,,,,,121,156136,18,Female,1,2024/03/25_14:16:02,YZ,None,
,,,,,,calibration,0,23,2,426,1,S,0,right,0.34792552201543003,1,0,,,,,,,,,,,,,,,,,,,,,1,,,,,,,,,,,,,,,,,,,,,,,,,,,,,,,,,,,,,,,,,,,,,,121,156136,18,Female,1,2024/03/25_14:16:02,YZ,None,
,,,,,,calibration,0,23,2,426,2,S,0,right,0.3515572939941194,1,0,,,,,,,,,,,,,,,,,,,,,1,,,,,,,,,,,,,,,,,,,,,,,,,,,,,,,,,,,,,,,,,,,,,,121,156136,18,Female,1,2024/03/25_14:16:02,YZ,None,
,,,,,,calibration,0,23,2,426,3,Q,0,right,0.4398239600122906,1,0,,,,,,,,,,,,,,,,,,,,,1,,,,,,,,,,,,,,,,,,,,,,,,,,,,,,,,,,,,,,,,,,,,,,121,156136,18,Female,1,2024/03/25_14:16:02,YZ,None,
,,,,,,calibration,0,23,2,426,4,F,0,right,0.579979108995758,1,0,,,,,,,,,,,,,,,,,,,,,1,,,,,,,,,,,,,,,,,,,,,,,,,,,,,,,,,,,,,,,,,,,,,,121,156136,18,Female,1,2024/03/25_14:16:02,YZ,None,
,,,,,,calibration,0,23,2,426,5,Q,1,left,0.5345384809770621,1,0,,,,,,,,,,,,,,,,,,,,,1,,,,,,,,,,,,,,,,,,,,,,,,,,,,,,,,,,,,,,,,,,,,,,121,156136,18,Female,1,2024/03/25_14:16:02,YZ,None,
,,,,,,calibration,0,23,2,426,6,F,1,left,0.5129277899977751,1,0,,,,,,,,,,,,,,,,,,,,,1,,,,,,,,,,,,,,,,,,,,,,,,,,,,,,,,,,,,,,,,,,,,,,121,156136,18,Female,1,2024/03/25_14:16:02,YZ,None,
,,,,,,calibration,0,23,2,426,7,N,0,right,0.5807618510152679,1,0,,,,,,,,,,,,,,,,,,,,,1,,,,,,,,,,,,,,,,,,,,,,,,,,,,,,,,,,,,,,,,,,,,,,121,156136,18,Female,1,2024/03/25_14:16:02,YZ,None,
,,,,,,calibration,0,23,2,426,8,F,1,left,0.3463323939940892,1,0,,,,,,,,,,,,,,,,,,,,,1,,,,,,,,,,,,,,,,,,,,,,,,,,,,,,,,,,,,,,,,,,,,,,121,156136,18,Female,1,2024/03/25_14:16:02,YZ,None,
,,,,,,calibration,0,23,2,426,9,N,1,left,0.45346560000325553,1,0,,,,,,,,,,,,,,,,,,,,,1,,,,,,,,,,,,,,,,,,,,,,,,,,,,,,,,,,,,,,,,,,,,,,121,156136,18,Female,1,2024/03/25_14:16:02,YZ,None,
,,,,,,calibration,0,23,2,426,10,C,0,right,0.38422715599881485,1,0,,,,,,,,,,,,,,,,,,,,,1,,,,,,,,,,,,,,,,,,,,,,,,,,,,,,,,,,,,,,,,,,,,,,121,156136,18,Female,1,2024/03/25_14:16:02,YZ,None,
,,,,,,calibration,0,23,2,426,11,J,0,right,0.5317325520154554,1,0,,,,,,,,,,,,,,,,,,,,,1,,,,,,,,,,,,,,,,,,,,,,,,,,,,,,,,,,,,,,,,,,,,,,121,156136,18,Female,1,2024/03/25_14:16:02,YZ,None,
,,,,,,calibration,0,23,2,426,12,N,0,right,0.39177118899533525,1,0,,,,,,,,,,,,,,,,,,,,,1,,,,,,,,,,,,,,,,,,,,,,,,,,,,,,,,,,,,,,,,,,,,,,121,156136,18,Female,1,2024/03/25_14:16:02,YZ,None,
,,,,,,calibration,0,23,2,426,13,S,0,right,0.4413156640075613,1,0,,,,,,,,,,,,,,,,,,,,,1,,,,,,,,,,,,,,,,,,,,,,,,,,,,,,,,,,,,,,,,,,,,,,121,156136,18,Female,1,2024/03/25_14:16:02,YZ,None,
,,,,,,calibration,0,23,2,426,14,F,0,right,0.47277513300650753,1,0,,,,,,,,,,,,,,,,,,,,,1,,,,,,,,,,,,,,,,,,,,,,,,,,,,,,,,,,,,,,,,,,,,,,121,156136,18,Female,1,2024/03/25_14:16:02,YZ,None,
,,,,,,calibration,0,23,2,426,15,S,1,left,0.5670436840155162,1,0,,,,,,,,,,,,,,,,,,,,,1,,,,,,,,,,,,,,,,,,,,,,,,,,,,,,,,,,,,,,,,,,,,,,121,156136,18,Female,1,2024/03/25_14:16:02,YZ,None,
,,,,,,calibration,0,23,2,426,16,J,0,right,0.42996857699472457,1,0,,,,,,,,,,,,,,,,,,,,,1,,,,,,,,,,,,,,,,,,,,,,,,,,,,,,,,,,,,,,,,,,,,,,121,156136,18,Female,1,2024/03/25_14:16:02,YZ,None,
,,,,,,calibration,0,23,2,426,17,C,0,right,0.5254436940012965,1,0,,,,,,,,,,,,,,,,,,,,,1,,,,,,,,,,,,,,,,,,,,,,,,,,,,,,,,,,,,,,,,,,,,,,121,156136,18,Female,1,2024/03/25_14:16:02,YZ,None,
,,,,,,calibration,0,23,2,426,,,,,,,,1.0,1.0,0.0,1.0,0.0,1.0,0.46421115588472117,5,0,0,0,0,12,17,5,12,0,,,,1,,,,,,,,,,,,,,,,,,,,,,,,,,,,,,,,,,,,,,,,,,,,,,121,156136,18,Female,1,2024/03/25_14:16:02,YZ,None,
,,,,,,Calibration,0,,2,426,,,,,,,,,,,,,,,,,,,,,,,,,5,,,1,,,,,,,,,,,,,,,,,,,,,,,,,,,,,,,,,,,,,,,,,,,,,,121,156136,18,Female,1,2024/03/25_14:16:02,YZ,None,
,,,,,,calibration,0,33,2,361,1,N,0,right,0.525278482993599,1,0,,,,,,,,,,,,,,,,,,,,,1,,,,,,,,,,,,,,,,,,,,,,,,,,,,,,,,,,,,,,,,,,,,,,121,156136,18,Female,1,2024/03/25_14:16:02,YZ,None,
,,,,,,calibration,0,33,2,361,2,V,0,right,0.46228946701739915,1,0,,,,,,,,,,,,,,,,,,,,,1,,,,,,,,,,,,,,,,,,,,,,,,,,,,,,,,,,,,,,,,,,,,,,121,156136,18,Female,1,2024/03/25_14:16:02,YZ,None,
,,,,,,calibration,0,33,2,361,3,S,0,left,0.4500504930038005,0,0,,,,,,,,,,,,,,,,,,,,,1,,,,,,,,,,,,,,,,,,,,,,,,,,,,,,,,,,,,,,,,,,,,,,121,156136,18,Female,1,2024/03/25_14:16:02,YZ,None,
,,,,,,calibration,0,33,2,361,4,V,1,right,0.4321695860126056,0,0,,,,,,,,,,,,,,,,,,,,,1,,,,,,,,,,,,,,,,,,,,,,,,,,,,,,,,,,,,,,,,,,,,,,121,156136,18,Female,1,2024/03/25_14:16:02,YZ,None,
,,,,,,calibration,0,33,2,361,5,S,1,left,0.5572854299971368,1,0,,,,,,,,,,,,,,,,,,,,,1,,,,,,,,,,,,,,,,,,,,,,,,,,,,,,,,,,,,,,,,,,,,,,121,156136,18,Female,1,2024/03/25_14:16:02,YZ,None,
,,,,,,calibration,0,33,2,361,6,N,0,right,0.2127415589930024,1,0,,,,,,,,,,,,,,,,,,,,,1,,,,,,,,,,,,,,,,,,,,,,,,,,,,,,,,,,,,,,,,,,,,,,121,156136,18,Female,1,2024/03/25_14:16:02,YZ,None,
,,,,,,calibration,0,33,2,361,7,F,0,right,0.3478425510111265,1,0,,,,,,,,,,,,,,,,,,,,,1,,,,,,,,,,,,,,,,,,,,,,,,,,,,,,,,,,,,,,,,,,,,,,121,156136,18,Female,1,2024/03/25_14:16:02,YZ,None,
,,,,,,calibration,0,33,2,361,8,S,0,right,0.49531695499899797,1,0,,,,,,,,,,,,,,,,,,,,,1,,,,,,,,,,,,,,,,,,,,,,,,,,,,,,,,,,,,,,,,,,,,,,121,156136,18,Female,1,2024/03/25_14:16:02,YZ,None,
,,,,,,calibration,0,33,2,361,9,Q,0,right,0.385068752017105,1,0,,,,,,,,,,,,,,,,,,,,,1,,,,,,,,,,,,,,,,,,,,,,,,,,,,,,,,,,,,,,,,,,,,,,121,156136,18,Female,1,2024/03/25_14:16:02,YZ,None,
,,,,,,calibration,0,33,2,361,10,S,1,left,0.49562811499345116,1,0,,,,,,,,,,,,,,,,,,,,,1,,,,,,,,,,,,,,,,,,,,,,,,,,,,,,,,,,,,,,,,,,,,,,121,156136,18,Female,1,2024/03/25_14:16:02,YZ,None,
,,,,,,calibration,0,33,2,361,11,X,0,right,0.23641772399423644,1,0,,,,,,,,,,,,,,,,,,,,,1,,,,,,,,,,,,,,,,,,,,,,,,,,,,,,,,,,,,,,,,,,,,,,121,156136,18,Female,1,2024/03/25_14:16:02,YZ,None,
,,,,,,calibration,0,33,2,361,12,S,1,left,0.53327042402816,1,0,,,,,,,,,,,,,,,,,,,,,1,,,,,,,,,,,,,,,,,,,,,,,,,,,,,,,,,,,,,,,,,,,,,,121,156136,18,Female,1,2024/03/25_14:16:02,YZ,None,
,,,,,,calibration,0,33,2,361,13,N,0,right,0.25558726702001877,1,0,,,,,,,,,,,,,,,,,,,,,1,,,,,,,,,,,,,,,,,,,,,,,,,,,,,,,,,,,,,,,,,,,,,,121,156136,18,Female,1,2024/03/25_14:16:02,YZ,None,
,,,,,,calibration,0,33,2,361,14,Q,0,right,0.43235310501768254,1,0,,,,,,,,,,,,,,,,,,,,,1,,,,,,,,,,,,,,,,,,,,,,,,,,,,,,,,,,,,,,,,,,,,,,121,156136,18,Female,1,2024/03/25_14:16:02,YZ,None,
,,,,,,calibration,0,33,2,361,15,N,1,left,0.4751317329937592,1,0,,,,,,,,,,,,,,,,,,,,,1,,,,,,,,,,,,,,,,,,,,,,,,,,,,,,,,,,,,,,,,,,,,,,121,156136,18,Female,1,2024/03/25_14:16:02,YZ,None,
,,,,,,calibration,0,33,2,361,16,Q,1,right,0.3445224940078333,0,0,,,,,,,,,,,,,,,,,,,,,1,,,,,,,,,,,,,,,,,,,,,,,,,,,,,,,,,,,,,,,,,,,,,,121,156136,18,Female,1,2024/03/25_14:16:02,YZ,None,
,,,,,,calibration,0,33,2,361,17,S,0,right,nan,0,1,,,,,,,,,,,,,,,,,,,,,1,,,,,,,,,,,,,,,,,,,,,,,,,,,,,,,,,,,,,,,,,,,,,,121,156136,18,Female,1,2024/03/25_14:16:02,YZ,None,
,,,,,,calibration,0,33,2,361,18,X,0,right,nan,0,1,,,,,,,,,,,,,,,,,,,,,1,,,,,,,,,,,,,,,,,,,,,,,,,,,,,,,,,,,,,,,,,,,,,,121,156136,18,Female,1,2024/03/25_14:16:02,YZ,None,
,,,,,,calibration,0,33,2,361,,,,,,,,0.8680555555555555,0.6666666666666666,0.08333333333333333,0.9,0.1111111111111111,0.8055555555555556,0.41505963363124465,4,1,0,2,2,9,13,6,12,0,,,,1,,,,,,,,,,,,,,,,,,,,,,,,,,,,,,,,,,,,,,,,,,,,,,121,156136,18,Female,1,2024/03/25_14:16:02,YZ,None,
,,,,,,Calibration,0,,2,361,,,,,,,,,,,,,,,,,,,,,,,,,6,,,1,,,,,,,,,,,,,,,,,,,,,,,,,,,,,,,,,,,,,,,,,,,,,,121,156136,18,Female,1,2024/03/25_14:16:02,YZ,None,
,,,,,,calibration,0,1,2,303,1,N,0,right,0.6290815089887474,1,0,,,,,,,,,,,,,,,,,,,,,1,,,,,,,,,,,,,,,,,,,,,,,,,,,,,,,,,,,,,,,,,,,,,,121,156136,18,Female,1,2024/03/25_14:16:02,YZ,None,
,,,,,,calibration,0,1,2,303,2,X,0,right,0.3984536750067491,1,0,,,,,,,,,,,,,,,,,,,,,1,,,,,,,,,,,,,,,,,,,,,,,,,,,,,,,,,,,,,,,,,,,,,,121,156136,18,Female,1,2024/03/25_14:16:02,YZ,None,
,,,,,,calibration,0,1,2,303,3,F,0,right,0.4152099370257929,1,0,,,,,,,,,,,,,,,,,,,,,1,,,,,,,,,,,,,,,,,,,,,,,,,,,,,,,,,,,,,,,,,,,,,,121,156136,18,Female,1,2024/03/25_14:16:02,YZ,None,
,,,,,,calibration,0,1,2,303,4,X,1,right,0.42029589298181236,0,0,,,,,,,,,,,,,,,,,,,,,1,,,,,,,,,,,,,,,,,,,,,,,,,,,,,,,,,,,,,,,,,,,,,,121,156136,18,Female,1,2024/03/25_14:16:02,YZ,None,
,,,,,,calibration,0,1,2,303,5,N,0,right,nan,0,1,,,,,,,,,,,,,,,,,,,,,1,,,,,,,,,,,,,,,,,,,,,,,,,,,,,,,,,,,,,,,,,,,,,,121,156136,18,Female,1,2024/03/25_14:16:02,YZ,None,
,,,,,,calibration,0,1,2,303,6,X,1,right,0.22500695500639267,0,0,,,,,,,,,,,,,,,,,,,,,1,,,,,,,,,,,,,,,,,,,,,,,,,,,,,,,,,,,,,,,,,,,,,,121,156136,18,Female,1,2024/03/25_14:16:02,YZ,None,
,,,,,,calibration,0,1,2,303,7,Q,0,right,0.6578931259864476,1,0,,,,,,,,,,,,,,,,,,,,,1,,,,,,,,,,,,,,,,,,,,,,,,,,,,,,,,,,,,,,,,,,,,,,121,156136,18,Female,1,2024/03/25_14:16:02,YZ,None,
,,,,,,calibration,0,1,2,303,8,F,0,right,0.49873910198220983,1,0,,,,,,,,,,,,,,,,,,,,,1,,,,,,,,,,,,,,,,,,,,,,,,,,,,,,,,,,,,,,,,,,,,,,121,156136,18,Female,1,2024/03/25_14:16:02,YZ,None,
,,,,,,calibration,0,1,2,303,9,X,0,left,0.6151725460076705,0,0,,,,,,,,,,,,,,,,,,,,,1,,,,,,,,,,,,,,,,,,,,,,,,,,,,,,,,,,,,,,,,,,,,,,121,156136,18,Female,1,2024/03/25_14:16:02,YZ,None,
,,,,,,calibration,0,1,2,303,10,J,0,right,0.29737558000488207,1,0,,,,,,,,,,,,,,,,,,,,,1,,,,,,,,,,,,,,,,,,,,,,,,,,,,,,,,,,,,,,,,,,,,,,121,156136,18,Female,1,2024/03/25_14:16:02,YZ,None,
,,,,,,calibration,0,1,2,303,11,C,0,right,0.49738938399241306,1,0,,,,,,,,,,,,,,,,,,,,,1,,,,,,,,,,,,,,,,,,,,,,,,,,,,,,,,,,,,,,,,,,,,,,121,156136,18,Female,1,2024/03/25_14:16:02,YZ,None,
,,,,,,calibration,0,1,2,303,12,X,0,left,0.5603128930088133,0,0,,,,,,,,,,,,,,,,,,,,,1,,,,,,,,,,,,,,,,,,,,,,,,,,,,,,,,,,,,,,,,,,,,,,121,156136,18,Female,1,2024/03/25_14:16:02,YZ,None,
,,,,,,calibration,0,1,2,303,13,S,0,right,0.5252112949965522,1,0,,,,,,,,,,,,,,,,,,,,,1,,,,,,,,,,,,,,,,,,,,,,,,,,,,,,,,,,,,,,,,,,,,,,121,156136,18,Female,1,2024/03/25_14:16:02,YZ,None,
,,,,,,calibration,0,1,2,303,14,X,1,left,0.6317226639948785,1,0,,,,,,,,,,,,,,,,,,,,,1,,,,,,,,,,,,,,,,,,,,,,,,,,,,,,,,,,,,,,,,,,,,,,121,156136,18,Female,1,2024/03/25_14:16:02,YZ,None,
,,,,,,calibration,0,1,2,303,15,N,0,right,0.2793117400142364,1,0,,,,,,,,,,,,,,,,,,,,,1,,,,,,,,,,,,,,,,,,,,,,,,,,,,,,,,,,,,,,,,,,,,,,121,156136,18,Female,1,2024/03/25_14:16:02,YZ,None,
,,,,,,calibration,0,1,2,303,16,X,1,left,0.6050396070058923,1,0,,,,,,,,,,,,,,,,,,,,,1,,,,,,,,,,,,,,,,,,,,,,,,,,,,,,,,,,,,,,,,,,,,,,121,156136,18,Female,1,2024/03/25_14:16:02,YZ,None,
,,,,,,calibration,0,1,2,303,17,J,0,right,0.3411344329942949,1,0,,,,,,,,,,,,,,,,,,,,,1,,,,,,,,,,,,,,,,,,,,,,,,,,,,,,,,,,,,,,,,,,,,,,121,156136,18,Female,1,2024/03/25_14:16:02,YZ,None,
,,,,,,calibration,0,1,2,303,18,X,1,right,0.7742546370136552,0,0,,,,,,,,,,,,,,,,,,,,,1,,,,,,,,,,,,,,,,,,,,,,,,,,,,,,,,,,,,,,,,,,,,,,121,156136,18,Female,1,2024/03/25_14:16:02,YZ,None,
,,,,,,calibration,0,1,2,303,19,F,0,right,0.30613926699152216,1,0,,,,,,,,,,,,,,,,,,,,,1,,,,,,,,,,,,,,,,,,,,,,,,,,,,,,,,,,,,,,,,,,,,,,121,156136,18,Female,1,2024/03/25_14:16:02,YZ,None,
,,,,,,calibration,0,1,2,303,,,,,,,,0.725,0.4,0.14285714285714285,0.8461538461538461,0.05263157894736842,0.8045112781954888,0.48209690238905345,2,2,0,1,1,11,13,5,14,0,,,,1,,,,,,,,,,,,,,,,,,,,,,,,,,,,,,,,,,,,,,,,,,,,,,121,156136,18,Female,1,2024/03/25_14:16:02,YZ,None,
,,,,,,Calibration,0,,2,303,,,,,,,,,,,,,,,,,,,,,,,,,7,,,1,,,,,,,,,,,,,,,,,,,,,,,,,,,,,,,,,,,,,,,,,,,,,,121,156136,18,Female,1,2024/03/25_14:16:02,YZ,None,
,,,,,,calibration,0,10,2,361,1,X,0,right,0.5487961909966543,1,0,,,,,,,,,,,,,,,,,,,,,1,,,,,,,,,,,,,,,,,,,,,,,,,,,,,,,,,,,,,,,,,,,,,,121,156136,18,Female,1,2024/03/25_14:16:02,YZ,None,
,,,,,,calibration,0,10,2,361,2,X,0,right,0.6907270699739456,1,0,,,,,,,,,,,,,,,,,,,,,1,,,,,,,,,,,,,,,,,,,,,,,,,,,,,,,,,,,,,,,,,,,,,,121,156136,18,Female,1,2024/03/25_14:16:02,YZ,None,
,,,,,,calibration,0,10,2,361,3,X,1,left,0.3310220600105822,1,0,,,,,,,,,,,,,,,,,,,,,1,,,,,,,,,,,,,,,,,,,,,,,,,,,,,,,,,,,,,,,,,,,,,,121,156136,18,Female,1,2024/03/25_14:16:02,YZ,None,
,,,,,,calibration,0,10,2,361,4,N,0,right,0.367793845012784,1,0,,,,,,,,,,,,,,,,,,,,,1,,,,,,,,,,,,,,,,,,,,,,,,,,,,,,,,,,,,,,,,,,,,,,121,156136,18,Female,1,2024/03/25_14:16:02,YZ,None,
,,,,,,calibration,0,10,2,361,5,Q,0,right,0.448386661009863,1,0,,,,,,,,,,,,,,,,,,,,,1,,,,,,,,,,,,,,,,,,,,,,,,,,,,,,,,,,,,,,,,,,,,,,121,156136,18,Female,1,2024/03/25_14:16:02,YZ,None,
,,,,,,calibration,0,10,2,361,6,F,0,right,0.48971037700539455,1,0,,,,,,,,,,,,,,,,,,,,,1,,,,,,,,,,,,,,,,,,,,,,,,,,,,,,,,,,,,,,,,,,,,,,121,156136,18,Female,1,2024/03/25_14:16:02,YZ,None,
,,,,,,calibration,0,10,2,361,7,N,0,right,0.8488700700108893,1,0,,,,,,,,,,,,,,,,,,,,,1,,,,,,,,,,,,,,,,,,,,,,,,,,,,,,,,,,,,,,,,,,,,,,121,156136,18,Female,1,2024/03/25_14:16:02,YZ,None,
,,,,,,calibration,0,10,2,361,8,F,1,left,0.5918723210052121,1,0,,,,,,,,,,,,,,,,,,,,,1,,,,,,,,,,,,,,,,,,,,,,,,,,,,,,,,,,,,,,,,,,,,,,121,156136,18,Female,1,2024/03/25_14:16:02,YZ,None,
,,,,,,calibration,0,10,2,361,9,N,1,right,0.2579204820212908,0,0,,,,,,,,,,,,,,,,,,,,,1,,,,,,,,,,,,,,,,,,,,,,,,,,,,,,,,,,,,,,,,,,,,,,121,156136,18,Female,1,2024/03/25_14:16:02,YZ,None,
,,,,,,calibration,0,10,2,361,10,V,0,right,0.541933809989132,1,0,,,,,,,,,,,,,,,,,,,,,1,,,,,,,,,,,,,,,,,,,,,,,,,,,,,,,,,,,,,,,,,,,,,,121,156136,18,Female,1,2024/03/25_14:16:02,YZ,None,
,,,,,,calibration,0,10,2,361,11,F,0,right,0.7564123880001716,1,0,,,,,,,,,,,,,,,,,,,,,1,,,,,,,,,,,,,,,,,,,,,,,,,,,,,,,,,,,,,,,,,,,,,,121,156136,18,Female,1,2024/03/25_14:16:02,YZ,None,
,,,,,,calibration,0,10,2,361,12,V,1,right,0.5124026229896117,0,0,,,,,,,,,,,,,,,,,,,,,1,,,,,,,,,,,,,,,,,,,,,,,,,,,,,,,,,,,,,,,,,,,,,,121,156136,18,Female,1,2024/03/25_14:16:02,YZ,None,
,,,,,,calibration,0,10,2,361,13,Q,0,right,0.3906252479937393,1,0,,,,,,,,,,,,,,,,,,,,,1,,,,,,,,,,,,,,,,,,,,,,,,,,,,,,,,,,,,,,,,,,,,,,121,156136,18,Female,1,2024/03/25_14:16:02,YZ,None,
,,,,,,calibration,0,10,2,361,14,N,0,right,0.7235545180155896,1,0,,,,,,,,,,,,,,,,,,,,,1,,,,,,,,,,,,,,,,,,,,,,,,,,,,,,,,,,,,,,,,,,,,,,121,156136,18,Female,1,2024/03/25_14:16:02,YZ,None,
,,,,,,calibration,0,10,2,361,15,X,0,right,0.4853863689932041,1,0,,,,,,,,,,,,,,,,,,,,,1,,,,,,,,,,,,,,,,,,,,,,,,,,,,,,,,,,,,,,,,,,,,,,121,156136,18,Female,1,2024/03/25_14:16:02,YZ,None,
,,,,,,calibration,0,10,2,361,16,S,0,right,0.47118952000164427,1,0,,,,,,,,,,,,,,,,,,,,,1,,,,,,,,,,,,,,,,,,,,,,,,,,,,,,,,,,,,,,,,,,,,,,121,156136,18,Female,1,2024/03/25_14:16:02,YZ,None,
,,,,,,calibration,0,10,2,361,17,X,1,left,0.6838936730055138,1,0,,,,,,,,,,,,,,,,,,,,,1,,,,,,,,,,,,,,,,,,,,,,,,,,,,,,,,,,,,,,,,,,,,,,121,156136,18,Female,1,2024/03/25_14:16:02,YZ,None,
,,,,,,calibration,0,10,2,361,18,S,1,right,0.7406540270021651,0,0,,,,,,,,,,,,,,,,,,,,,1,,,,,,,,,,,,,,,,,,,,,,,,,,,,,,,,,,,,,,,,,,,,,,121,156136,18,Female,1,2024/03/25_14:16:02,YZ,None,
,,,,,,calibration,0,10,2,361,,,,,,,,0.875,0.5,0.0,1.0,0.0,1.0,0.548952847390966,3,0,0,0,0,12,15,6,12,0,,,,1,,,,,,,,,,,,,,,,,,,,,,,,,,,,,,,,,,,,,,,,,,,,,,121,156136,18,Female,1,2024/03/25_14:16:02,YZ,None,
,,,,,,Calibration,0,,2,361,,,,,,,,,,,,,,,,,,,,,,,,,8,,,1,,,,,,,,,,,,,,,,,,,,,,,,,,,,,,,,,,,,,,,,,,,,,,121,156136,18,Female,1,2024/03/25_14:16:02,YZ,None,
,,,,,,calibration,0,12,2,303,1,N,0,right,0.4180506890115794,1,0,,,,,,,,,,,,,,,,,,,,,1,,,,,,,,,,,,,,,,,,,,,,,,,,,,,,,,,,,,,,,,,,,,,,121,156136,18,Female,1,2024/03/25_14:16:02,YZ,None,
,,,,,,calibration,0,12,2,303,2,C,0,right,0.37644852901576087,1,0,,,,,,,,,,,,,,,,,,,,,1,,,,,,,,,,,,,,,,,,,,,,,,,,,,,,,,,,,,,,,,,,,,,,121,156136,18,Female,1,2024/03/25_14:16:02,YZ,None,
,,,,,,calibration,0,12,2,303,3,F,0,right,0.44835978001356125,1,0,,,,,,,,,,,,,,,,,,,,,1,,,,,,,,,,,,,,,,,,,,,,,,,,,,,,,,,,,,,,,,,,,,,,121,156136,18,Female,1,2024/03/25_14:16:02,YZ,None,
,,,,,,calibration,0,12,2,303,4,C,1,left,0.5307785909972154,1,0,,,,,,,,,,,,,,,,,,,,,1,,,,,,,,,,,,,,,,,,,,,,,,,,,,,,,,,,,,,,,,,,,,,,121,156136,18,Female,1,2024/03/25_14:16:02,YZ,None,
,,,,,,calibration,0,12,2,303,5,J,0,right,0.42610912598320283,1,0,,,,,,,,,,,,,,,,,,,,,1,,,,,,,,,,,,,,,,,,,,,,,,,,,,,,,,,,,,,,,,,,,,,,121,156136,18,Female,1,2024/03/25_14:16:02,YZ,None,
,,,,,,calibration,0,12,2,303,6,V,0,right,0.37268835899885744,1,0,,,,,,,,,,,,,,,,,,,,,1,,,,,,,,,,,,,,,,,,,,,,,,,,,,,,,,,,,,,,,,,,,,,,121,156136,18,Female,1,2024/03/25_14:16:02,YZ,None,
,,,,,,calibration,0,12,2,303,7,Q,0,right,nan,0,1,,,,,,,,,,,,,,,,,,,,,1,,,,,,,,,,,,,,,,,,,,,,,,,,,,,,,,,,,,,,,,,,,,,,121,156136,18,Female,1,2024/03/25_14:16:02,YZ,None,
,,,,,,calibration,0,12,2,303,8,X,0,right,0.15287524697487243,1,0,,,,,,,,,,,,,,,,,,,,,1,,,,,,,,,,,,,,,,,,,,,,,,,,,,,,,,,,,,,,,,,,,,,,121,156136,18,Female,1,2024/03/25_14:16:02,YZ,None,
,,,,,,calibration,0,12,2,303,9,J,0,right,0.5523505859891884,1,0,,,,,,,,,,,,,,,,,,,,,1,,,,,,,,,,,,,,,,,,,,,,,,,,,,,,,,,,,,,,,,,,,,,,121,156136,18,Female,1,2024/03/25_14:16:02,YZ,None,
,,,,,,calibration,0,12,2,303,10,Q,0,right,0.4477696280227974,1,0,,,,,,,,,,,,,,,,,,,,,1,,,,,,,,,,,,,,,,,,,,,,,,,,,,,,,,,,,,,,,,,,,,,,121,156136,18,Female,1,2024/03/25_14:16:02,YZ,None,
,,,,,,calibration,0,12,2,303,11,J,1,left,0.49658415201702155,1,0,,,,,,,,,,,,,,,,,,,,,1,,,,,,,,,,,,,,,,,,,,,,,,,,,,,,,,,,,,,,,,,,,,,,121,156136,18,Female,1,2024/03/25_14:16:02,YZ,None,
,,,,,,calibration,0,12,2,303,12,V,0,right,0.4082627540046815,1,0,,,,,,,,,,,,,,,,,,,,,1,,,,,,,,,,,,,,,,,,,,,,,,,,,,,,,,,,,,,,,,,,,,,,121,156136,18,Female,1,2024/03/25_14:16:02,YZ,None,
,,,,,,calibration,0,12,2,303,13,Q,0,right,0.649275841016788,1,0,,,,,,,,,,,,,,,,,,,,,1,,,,,,,,,,,,,,,,,,,,,,,,,,,,,,,,,,,,,,,,,,,,,,121,156136,18,Female,1,2024/03/25_14:16:02,YZ,None,
,,,,,,calibration,0,12,2,303,14,V,1,left,0.4323235120100435,1,0,,,,,,,,,,,,,,,,,,,,,1,,,,,,,,,,,,,,,,,,,,,,,,,,,,,,,,,,,,,,,,,,,,,,121,156136,18,Female,1,2024/03/25_14:16:02,YZ,None,
,,,,,,calibration,0,12,2,303,15,X,0,right,0.30478092801058665,1,0,,,,,,,,,,,,,,,,,,,,,1,,,,,,,,,,,,,,,,,,,,,,,,,,,,,,,,,,,,,,,,,,,,,,121,156136,18,Female,1,2024/03/25_14:16:02,YZ,None,
,,,,,,calibration,0,12,2,303,16,V,1,left,0.7092568629886955,1,0,,,,,,,,,,,,,,,,,,,,,1,,,,,,,,,,,,,,,,,,,,,,,,,,,,,,,,,,,,,,,,,,,,,,121,156136,18,Female,1,2024/03/25_14:16:02,YZ,None,
,,,,,,calibration,0,12,2,303,17,X,1,right,0.4206816209771205,0,0,,,,,,,,,,,,,,,,,,,,,1,,,,,,,,,,,,,,,,,,,,,,,,,,,,,,,,,,,,,,,,,,,,,,121,156136,18,Female,1,2024/03/25_14:16:02,YZ,None,
,,,,,,calibration,0,12,2,303,18,Q,0,right,0.5769327019806951,1,0,,,,,,,,,,,,,,,,,,,,,1,,,,,,,,,,,,,,,,,,,,,,,,,,,,,,,,,,,,,,,,,,,,,,121,156136,18,Female,1,2024/03/25_14:16:02,YZ,None,
,,,,,,calibration,0,12,2,303,19,V,0,left,0.45105528997373767,0,0,,,,,,,,,,,,,,,,,,,,,1,,,,,,,,,,,,,,,,,,,,,,,,,,,,,,,,,,,,,,,,,,,,,,121,156136,18,Female,1,2024/03/25_14:16:02,YZ,None,
,,,,,,calibration,0,12,2,303,,,,,,,,0.9178571428571429,0.8,0.07142857142857142,0.9230769230769231,0.05263157894736842,0.8759398496240602,0.4541435665548003,4,1,0,1,1,12,16,5,14,0,,,,1,,,,,,,,,,,,,,,,,,,,,,,,,,,,,,,,,,,,,,,,,,,,,,121,156136,18,Female,1,2024/03/25_14:16:02,YZ,None,
,,,,,,Calibration,0,,2,303,,,,,,,,,,,,,,,,,,,,,,,,,9,,,1,,,,,,,,,,,,,,,,,,,,,,,,,,,,,,,,,,,,,,,,,,,,,,121,156136,18,Female,1,2024/03/25_14:16:02,YZ,None,
,,,,,,calibration,0,35,2,250,1,J,0,None,nan,0,1,,,,,,,,,,,,,,,,,,,,,1,,,,,,,,,,,,,,,,,,,,,,,,,,,,,,,,,,,,,,,,,,,,,,121,156136,18,Female,1,2024/03/25_14:16:02,YZ,None,
,,,,,,calibration,0,35,2,250,2,X,0,right,0.3958602999919094,1,0,,,,,,,,,,,,,,,,,,,,,1,,,,,,,,,,,,,,,,,,,,,,,,,,,,,,,,,,,,,,,,,,,,,,121,156136,18,Female,1,2024/03/25_14:16:02,YZ,None,
,,,,,,calibration,0,35,2,250,3,S,0,right,0.3798422690015286,1,0,,,,,,,,,,,,,,,,,,,,,1,,,,,,,,,,,,,,,,,,,,,,,,,,,,,,,,,,,,,,,,,,,,,,121,156136,18,Female,1,2024/03/25_14:16:02,YZ,None,
,,,,,,calibration,0,35,2,250,4,X,1,left,0.4963211200083606,1,0,,,,,,,,,,,,,,,,,,,,,1,,,,,,,,,,,,,,,,,,,,,,,,,,,,,,,,,,,,,,,,,,,,,,121,156136,18,Female,1,2024/03/25_14:16:02,YZ,None,
,,,,,,calibration,0,35,2,250,5,F,0,right,0.36099637401639484,1,0,,,,,,,,,,,,,,,,,,,,,1,,,,,,,,,,,,,,,,,,,,,,,,,,,,,,,,,,,,,,,,,,,,,,121,156136,18,Female,1,2024/03/25_14:16:02,YZ,None,
,,,,,,calibration,0,35,2,250,6,N,0,right,0.43612171601853333,1,0,,,,,,,,,,,,,,,,,,,,,1,,,,,,,,,,,,,,,,,,,,,,,,,,,,,,,,,,,,,,,,,,,,,,121,156136,18,Female,1,2024/03/25_14:16:02,YZ,None,
,,,,,,calibration,0,35,2,250,7,J,0,right,0.45663163901190273,1,0,,,,,,,,,,,,,,,,,,,,,1,,,,,,,,,,,,,,,,,,,,,,,,,,,,,,,,,,,,,,,,,,,,,,121,156136,18,Female,1,2024/03/25_14:16:02,YZ,None,
,,,,,,calibration,0,35,2,250,8,C,0,right,0.4707498619973194,1,0,,,,,,,,,,,,,,,,,,,,,1,,,,,,,,,,,,,,,,,,,,,,,,,,,,,,,,,,,,,,,,,,,,,,121,156136,18,Female,1,2024/03/25_14:16:02,YZ,None,
,,,,,,calibration,0,35,2,250,9,J,1,left,0.5521332950156648,1,0,,,,,,,,,,,,,,,,,,,,,1,,,,,,,,,,,,,,,,,,,,,,,,,,,,,,,,,,,,,,,,,,,,,,121,156136,18,Female,1,2024/03/25_14:16:02,YZ,None,
,,,,,,calibration,0,35,2,250,10,X,0,right,0.3840891780273523,1,0,,,,,,,,,,,,,,,,,,,,,1,,,,,,,,,,,,,,,,,,,,,,,,,,,,,,,,,,,,,,,,,,,,,,121,156136,18,Female,1,2024/03/25_14:16:02,YZ,None,
,,,,,,calibration,0,35,2,250,11,J,1,left,0.4793142859998625,1,0,,,,,,,,,,,,,,,,,,,,,1,,,,,,,,,,,,,,,,,,,,,,,,,,,,,,,,,,,,,,,,,,,,,,121,156136,18,Female,1,2024/03/25_14:16:02,YZ,None,
,,,,,,calibration,0,35,2,250,12,Q,0,right,0.29770664099487476,1,0,,,,,,,,,,,,,,,,,,,,,1,,,,,,,,,,,,,,,,,,,,,,,,,,,,,,,,,,,,,,,,,,,,,,121,156136,18,Female,1,2024/03/25_14:16:02,YZ,None,
,,,,,,calibration,0,35,2,250,13,S,0,right,0.3938406289962586,1,0,,,,,,,,,,,,,,,,,,,,,1,,,,,,,,,,,,,,,,,,,,,,,,,,,,,,,,,,,,,,,,,,,,,,121,156136,18,Female,1,2024/03/25_14:16:02,YZ,None,
,,,,,,calibration,0,35,2,250,14,X,0,right,0.4393808869936038,1,0,,,,,,,,,,,,,,,,,,,,,1,,,,,,,,,,,,,,,,,,,,,,,,,,,,,,,,,,,,,,,,,,,,,,121,156136,18,Female,1,2024/03/25_14:16:02,YZ,None,
,,,,,,calibration,0,35,2,250,15,S,1,left,0.4473982880008407,1,0,,,,,,,,,,,,,,,,,,,,,1,,,,,,,,,,,,,,,,,,,,,,,,,,,,,,,,,,,,,,,,,,,,,,121,156136,18,Female,1,2024/03/25_14:16:02,YZ,None,
,,,,,,calibration,0,35,2,250,16,J,0,right,0.4604843859851826,1,0,,,,,,,,,,,,,,,,,,,,,1,,,,,,,,,,,,,,,,,,,,,,,,,,,,,,,,,,,,,,,,,,,,,,121,156136,18,Female,1,2024/03/25_14:16:02,YZ,None,
,,,,,,calibration,0,35,2,250,17,C,0,right,0.5124244159960654,1,0,,,,,,,,,,,,,,,,,,,,,1,,,,,,,,,,,,,,,,,,,,,,,,,,,,,,,,,,,,,,,,,,,,,,121,156136,18,Female,1,2024/03/25_14:16:02,YZ,None,
,,,,,,calibration,0,35,2,250,18,F,0,right,0.43347914298647083,1,0,,,,,,,,,,,,,,,,,,,,,1,,,,,,,,,,,,,,,,,,,,,,,,,,,,,,,,,,,,,,,,,,,,,,121,156136,18,Female,1,2024/03/25_14:16:02,YZ,None,
,,,,,,calibration,0,35,2,250,19,J,0,left,0.44753110501915216,0,0,,,,,,,,,,,,,,,,,,,,,1,,,,,,,,,,,,,,,,,,,,,,,,,,,,,,,,,,,,,,,,,,,,,,121,156136,18,Female,1,2024/03/25_14:16:02,YZ,None,
,,,,,,calibration,0,35,2,250,20,F,1,right,0.316184459021315,0,0,,,,,,,,,,,,,,,,,,,,,1,,,,,,,,,,,,,,,,,,,,,,,,,,,,,,,,,,,,,,,,,,,,,,121,156136,18,Female,1,2024/03/25_14:16:02,YZ,None,
,,,,,,calibration,0,35,2,250,,,,,,,,0.92,0.8,0.06666666666666667,0.9285714285714286,0.05,0.8833333333333333,0.42949947332013644,4,1,0,1,1,13,17,5,15,0,,,,1,,,,,,,,,,,,,,,,,,,,,,,,,,,,,,,,,,,,,,,,,,,,,,121,156136,18,Female,1,2024/03/25_14:16:02,YZ,None,
,,,,,,Calibration,0,,2,250,,,,,,,,,,,,,,,,,,,,,,,,,10,,,1,,,,,,,,,,,,,,,,,,,,,,,,,,,,,,,,,,,,,,,,,,,,,,121,156136,18,Female,1,2024/03/25_14:16:02,YZ,None,
,,,,,,calibration,0,30,2,202,1,N,0,right,0.35437235797871836,1,0,,,,,,,,,,,,,,,,,,,,,1,,,,,,,,,,,,,,,,,,,,,,,,,,,,,,,,,,,,,,,,,,,,,,121,156136,18,Female,1,2024/03/25_14:16:02,YZ,None,
,,,,,,calibration,0,30,2,202,2,C,0,right,0.5123161789961159,1,0,,,,,,,,,,,,,,,,,,,,,1,,,,,,,,,,,,,,,,,,,,,,,,,,,,,,,,,,,,,,,,,,,,,,121,156136,18,Female,1,2024/03/25_14:16:02,YZ,None,
,,,,,,calibration,0,30,2,202,3,F,0,right,0.4682148319843691,1,0,,,,,,,,,,,,,,,,,,,,,1,,,,,,,,,,,,,,,,,,,,,,,,,,,,,,,,,,,,,,,,,,,,,,121,156136,18,Female,1,2024/03/25_14:16:02,YZ,None,
,,,,,,calibration,0,30,2,202,4,V,0,right,0.5628172080032527,1,0,,,,,,,,,,,,,,,,,,,,,1,,,,,,,,,,,,,,,,,,,,,,,,,,,,,,,,,,,,,,,,,,,,,,121,156136,18,Female,1,2024/03/25_14:16:02,YZ,None,
,,,,,,calibration,0,30,2,202,5,F,1,left,0.6233911100134719,1,0,,,,,,,,,,,,,,,,,,,,,1,,,,,,,,,,,,,,,,,,,,,,,,,,,,,,,,,,,,,,,,,,,,,,121,156136,18,Female,1,2024/03/25_14:16:02,YZ,None,
,,,,,,calibration,0,30,2,202,6,S,0,right,0.1604319929901976,1,0,,,,,,,,,,,,,,,,,,,,,1,,,,,,,,,,,,,,,,,,,,,,,,,,,,,,,,,,,,,,,,,,,,,,121,156136,18,Female,1,2024/03/25_14:16:02,YZ,None,
,,,,,,calibration,0,30,2,202,7,F,1,left,0.61383878000197,1,0,,,,,,,,,,,,,,,,,,,,,1,,,,,,,,,,,,,,,,,,,,,,,,,,,,,,,,,,,,,,,,,,,,,,121,156136,18,Female,1,2024/03/25_14:16:02,YZ,None,
,,,,,,calibration,0,30,2,202,8,S,1,right,0.27137219402357005,0,0,,,,,,,,,,,,,,,,,,,,,1,,,,,,,,,,,,,,,,,,,,,,,,,,,,,,,,,,,,,,,,,,,,,,121,156136,18,Female,1,2024/03/25_14:16:02,YZ,None,
,,,,,,calibration,0,30,2,202,9,Q,0,right,0.6407815480197314,1,0,,,,,,,,,,,,,,,,,,,,,1,,,,,,,,,,,,,,,,,,,,,,,,,,,,,,,,,,,,,,,,,,,,,,121,156136,18,Female,1,2024/03/25_14:16:02,YZ,None,
,,,,,,calibration,0,30,2,202,10,X,0,right,0.38611741599743254,1,0,,,,,,,,,,,,,,,,,,,,,1,,,,,,,,,,,,,,,,,,,,,,,,,,,,,,,,,,,,,,,,,,,,,,121,156136,18,Female,1,2024/03/25_14:16:02,YZ,None,
,,,,,,calibration,0,30,2,202,11,Q,1,left,0.5429346839955542,1,0,,,,,,,,,,,,,,,,,,,,,1,,,,,,,,,,,,,,,,,,,,,,,,,,,,,,,,,,,,,,,,,,,,,,121,156136,18,Female,1,2024/03/25_14:16:02,YZ,None,
,,,,,,calibration,0,30,2,202,12,N,0,right,0.45338973301113583,1,0,,,,,,,,,,,,,,,,,,,,,1,,,,,,,,,,,,,,,,,,,,,,,,,,,,,,,,,,,,,,,,,,,,,,121,156136,18,Female,1,2024/03/25_14:16:02,YZ,None,
,,,,,,calibration,0,30,2,202,13,X,0,right,0.9085782059992198,1,0,,,,,,,,,,,,,,,,,,,,,1,,,,,,,,,,,,,,,,,,,,,,,,,,,,,,,,,,,,,,,,,,,,,,121,156136,18,Female,1,2024/03/25_14:16:02,YZ,None,
,,,,,,calibration,0,30,2,202,14,V,0,right,0.3484906049852725,1,0,,,,,,,,,,,,,,,,,,,,,1,,,,,,,,,,,,,,,,,,,,,,,,,,,,,,,,,,,,,,,,,,,,,,121,156136,18,Female,1,2024/03/25_14:16:02,YZ,None,
,,,,,,calibration,0,30,2,202,15,X,1,right,0.4004275329934899,0,0,,,,,,,,,,,,,,,,,,,,,1,,,,,,,,,,,,,,,,,,,,,,,,,,,,,,,,,,,,,,,,,,,,,,121,156136,18,Female,1,2024/03/25_14:16:02,YZ,None,
,,,,,,calibration,0,30,2,202,16,V,1,left,0.7949221050075721,1,0,,,,,,,,,,,,,,,,,,,,,1,,,,,,,,,,,,,,,,,,,,,,,,,,,,,,,,,,,,,,,,,,,,,,121,156136,18,Female,1,2024/03/25_14:16:02,YZ,None,
,,,,,,calibration,0,30,2,202,17,N,0,right,0.9145368240133394,1,0,,,,,,,,,,,,,,,,,,,,,1,,,,,,,,,,,,,,,,,,,,,,,,,,,,,,,,,,,,,,,,,,,,,,121,156136,18,Female,1,2024/03/25_14:16:02,YZ,None,
,,,,,,calibration,0,30,2,202,18,F,0,right,0.5473705060139764,1,0,,,,,,,,,,,,,,,,,,,,,1,,,,,,,,,,,,,,,,,,,,,,,,,,,,,,,,,,,,,,,,,,,,,,121,156136,18,Female,1,2024/03/25_14:16:02,YZ,None,
,,,,,,calibration,0,30,2,202,19,C,0,right,0.45820768299745396,1,0,,,,,,,,,,,,,,,,,,,,,1,,,,,,,,,,,,,,,,,,,,,,,,,,,,,,,,,,,,,,,,,,,,,,121,156136,18,Female,1,2024/03/25_14:16:02,YZ,None,
,,,,,,calibration,0,30,2,202,20,F,1,left,0.4898918569961097,1,0,,,,,,,,,,,,,,,,,,,,,1,,,,,,,,,,,,,,,,,,,,,,,,,,,,,,,,,,,,,,,,,,,,,,121,156136,18,Female,1,2024/03/25_14:16:02,YZ,None,
,,,,,,calibration,0,30,2,202,21,N,0,right,0.8982329219870735,1,0,,,,,,,,,,,,,,,,,,,,,1,,,,,,,,,,,,,,,,,,,,,,,,,,,,,,,,,,,,,,,,,,,,,,121,156136,18,Female,1,2024/03/25_14:16:02,YZ,None,
,,,,,,calibration,0,30,2,202,,,,,,,,0.9285714285714286,0.7142857142857143,0.0,1.0,0.0,1.0,0.5405064893337632,5,0,0,0,0,14,19,7,14,0,,,,1,,,,,,,,,,,,,,,,,,,,,,,,,,,,,,,,,,,,,,,,,,,,,,121,156136,18,Female,1,2024/03/25_14:16:02,YZ,None,
,,,,,,Calibration,0,,2,202,,,,,,,,,,,,,,,,,,,,,,,,,11,,,1,,,,,,,,,,,,,,,,,,,,,,,,,,,,,,,,,,,,,,,,,,,,,,121,156136,18,Female,1,2024/03/25_14:16:02,YZ,None,
,,,,,,calibration,0,32,2,159,1,F,0,right,0.7871845540066715,1,0,,,,,,,,,,,,,,,,,,,,,1,,,,,,,,,,,,,,,,,,,,,,,,,,,,,,,,,,,,,,,,,,,,,,121,156136,18,Female,1,2024/03/25_14:16:02,YZ,None,
,,,,,,calibration,0,32,2,159,2,N,0,right,0.313697115983814,1,0,,,,,,,,,,,,,,,,,,,,,1,,,,,,,,,,,,,,,,,,,,,,,,,,,,,,,,,,,,,,,,,,,,,,121,156136,18,Female,1,2024/03/25_14:16:02,YZ,None,
,,,,,,calibration,0,32,2,159,3,Q,0,right,0.3780382550030481,1,0,,,,,,,,,,,,,,,,,,,,,1,,,,,,,,,,,,,,,,,,,,,,,,,,,,,,,,,,,,,,,,,,,,,,121,156136,18,Female,1,2024/03/25_14:16:02,YZ,None,
,,,,,,calibration,0,32,2,159,4,C,0,right,0.6470491089858115,1,0,,,,,,,,,,,,,,,,,,,,,1,,,,,,,,,,,,,,,,,,,,,,,,,,,,,,,,,,,,,,,,,,,,,,121,156136,18,Female,1,2024/03/25_14:16:02,YZ,None,
,,,,,,calibration,0,32,2,159,5,Q,1,left,0.6835927889915183,1,0,,,,,,,,,,,,,,,,,,,,,1,,,,,,,,,,,,,,,,,,,,,,,,,,,,,,,,,,,,,,,,,,,,,,121,156136,18,Female,1,2024/03/25_14:16:02,YZ,None,
,,,,,,calibration,0,32,2,159,6,C,1,left,0.3782656099938322,1,0,,,,,,,,,,,,,,,,,,,,,1,,,,,,,,,,,,,,,,,,,,,,,,,,,,,,,,,,,,,,,,,,,,,,121,156136,18,Female,1,2024/03/25_14:16:02,YZ,None,
,,,,,,calibration,0,32,2,159,7,X,0,left,0.4883051610086113,0,0,,,,,,,,,,,,,,,,,,,,,1,,,,,,,,,,,,,,,,,,,,,,,,,,,,,,,,,,,,,,,,,,,,,,121,156136,18,Female,1,2024/03/25_14:16:02,YZ,None,
,,,,,,calibration,0,32,2,159,8,C,1,left,nan,0,1,,,,,,,,,,,,,,,,,,,,,1,,,,,,,,,,,,,,,,,,,,,,,,,,,,,,,,,,,,,,,,,,,,,,121,156136,18,Female,1,2024/03/25_14:16:02,YZ,None,
,,,,,,calibration,0,32,2,159,9,X,1,left,0.595240572001785,1,0,,,,,,,,,,,,,,,,,,,,,1,,,,,,,,,,,,,,,,,,,,,,,,,,,,,,,,,,,,,,,,,,,,,,121,156136,18,Female,1,2024/03/25_14:16:02,YZ,None,
,,,,,,calibration,0,32,2,159,10,V,0,right,0.3982652260165196,1,0,,,,,,,,,,,,,,,,,,,,,1,,,,,,,,,,,,,,,,,,,,,,,,,,,,,,,,,,,,,,,,,,,,,,121,156136,18,Female,1,2024/03/25_14:16:02,YZ,None,
,,,,,,calibration,0,32,2,159,11,X,1,left,0.5254835090017878,1,0,,,,,,,,,,,,,,,,,,,,,1,,,,,,,,,,,,,,,,,,,,,,,,,,,,,,,,,,,,,,,,,,,,,,121,156136,18,Female,1,2024/03/25_14:16:02,YZ,None,
,,,,,,calibration,0,32,2,159,12,N,0,right,0.34156923001864925,1,0,,,,,,,,,,,,,,,,,,,,,1,,,,,,,,,,,,,,,,,,,,,,,,,,,,,,,,,,,,,,,,,,,,,,121,156136,18,Female,1,2024/03/25_14:16:02,YZ,None,
,,,,,,calibration,0,32,2,159,13,X,1,left,0.3139183359744493,1,0,,,,,,,,,,,,,,,,,,,,,1,,,,,,,,,,,,,,,,,,,,,,,,,,,,,,,,,,,,,,,,,,,,,,121,156136,18,Female,1,2024/03/25_14:16:02,YZ,None,
,,,,,,calibration,0,32,2,159,14,F,0,right,0.3536643230181653,1,0,,,,,,,,,,,,,,,,,,,,,1,,,,,,,,,,,,,,,,,,,,,,,,,,,,,,,,,,,,,,,,,,,,,,121,156136,18,Female,1,2024/03/25_14:16:02,YZ,None,
,,,,,,calibration,0,32,2,159,15,X,1,left,0.41189107799436897,1,0,,,,,,,,,,,,,,,,,,,,,1,,,,,,,,,,,,,,,,,,,,,,,,,,,,,,,,,,,,,,,,,,,,,,121,156136,18,Female,1,2024/03/25_14:16:02,YZ,None,
,,,,,,calibration,0,32,2,159,16,Q,0,right,0.35472473900881596,1,0,,,,,,,,,,,,,,,,,,,,,1,,,,,,,,,,,,,,,,,,,,,,,,,,,,,,,,,,,,,,,,,,,,,,121,156136,18,Female,1,2024/03/25_14:16:02,YZ,None,
,,,,,,calibration,0,32,2,159,17,F,0,right,0.7737826129887253,1,0,,,,,,,,,,,,,,,,,,,,,1,,,,,,,,,,,,,,,,,,,,,,,,,,,,,,,,,,,,,,,,,,,,,,121,156136,18,Female,1,2024/03/25_14:16:02,YZ,None,
,,,,,,calibration,0,32,2,159,18,N,0,right,0.5385426479915623,1,0,,,,,,,,,,,,,,,,,,,,,1,,,,,,,,,,,,,,,,,,,,,,,,,,,,,,,,,,,,,,,,,,,,,,121,156136,18,Female,1,2024/03/25_14:16:02,YZ,None,
,,,,,,calibration,0,32,2,159,19,X,0,right,0.7893890510022175,1,0,,,,,,,,,,,,,,,,,,,,,1,,,,,,,,,,,,,,,,,,,,,,,,,,,,,,,,,,,,,,,,,,,,,,121,156136,18,Female,1,2024/03/25_14:16:02,YZ,None,
,,,,,,calibration,0,32,2,159,20,V,0,right,nan,0,1,,,,,,,,,,,,,,,,,,,,,1,,,,,,,,,,,,,,,,,,,,,,,,,,,,,,,,,,,,,,,,,,,,,,121,156136,18,Female,1,2024/03/25_14:16:02,YZ,None,
,,,,,,calibration,0,32,2,159,21,C,0,right,0.4700590909924358,1,0,,,,,,,,,,,,,,,,,,,,,1,,,,,,,,,,,,,,,,,,,,,,,,,,,,,,,,,,,,,,,,,,,,,,121,156136,18,Female,1,2024/03/25_14:16:02,YZ,None,
,,,,,,calibration,0,32,2,159,22,F,0,right,0.5123976520262659,1,0,,,,,,,,,,,,,,,,,,,,,1,,,,,,,,,,,,,,,,,,,,,,,,,,,,,,,,,,,,,,,,,,,,,,121,156136,18,Female,1,2024/03/25_14:16:02,YZ,None,
,,,,,,calibration,0,32,2,159,,,,,,,,0.9380952380952381,0.8571428571428571,0.06666666666666667,0.9285714285714286,0.09090909090909091,0.8424242424242424,0.5027530331004527,6,1,1,1,2,13,19,7,15,0,,,,1,,,,,,,,,,,,,,,,,,,,,,,,,,,,,,,,,,,,,,,,,,,,,,121,156136,18,Female,1,2024/03/25_14:16:02,YZ,None,
,,,,,,Calibration,0,,2,159,,,,,,,,,,,,,,,,,,,,,,,,,12,,,1,,,,,,,,,,,,,,,,,,,,,,,,,,,,,,,,,,,,,,,,,,,,,,121,156136,18,Female,1,2024/03/25_14:16:02,YZ,None,
,,,,,,calibration,0,27,2,120,1,N,0,right,0.5781458630226552,1,0,,,,,,,,,,,,,,,,,,,,,1,,,,,,,,,,,,,,,,,,,,,,,,,,,,,,,,,,,,,,,,,,,,,,121,156136,18,Female,1,2024/03/25_14:16:02,YZ,None,
,,,,,,calibration,0,27,2,120,2,X,0,right,0.37414877099217847,1,0,,,,,,,,,,,,,,,,,,,,,1,,,,,,,,,,,,,,,,,,,,,,,,,,,,,,,,,,,,,,,,,,,,,,121,156136,18,Female,1,2024/03/25_14:16:02,YZ,None,
,,,,,,calibration,0,27,2,120,3,N,1,left,0.4978441080020275,1,0,,,,,,,,,,,,,,,,,,,,,1,,,,,,,,,,,,,,,,,,,,,,,,,,,,,,,,,,,,,,,,,,,,,,121,156136,18,Female,1,2024/03/25_14:16:02,YZ,None,
,,,,,,calibration,0,27,2,120,4,X,1,left,0.3223787270253524,1,0,,,,,,,,,,,,,,,,,,,,,1,,,,,,,,,,,,,,,,,,,,,,,,,,,,,,,,,,,,,,,,,,,,,,121,156136,18,Female,1,2024/03/25_14:16:02,YZ,None,
,,,,,,calibration,0,27,2,120,5,Q,0,right,0.5232059989939444,1,0,,,,,,,,,,,,,,,,,,,,,1,,,,,,,,,,,,,,,,,,,,,,,,,,,,,,,,,,,,,,,,,,,,,,121,156136,18,Female,1,2024/03/25_14:16:02,YZ,None,
,,,,,,calibration,0,27,2,120,6,N,0,left,0.8021078370220494,0,0,,,,,,,,,,,,,,,,,,,,,1,,,,,,,,,,,,,,,,,,,,,,,,,,,,,,,,,,,,,,,,,,,,,,121,156136,18,Female,1,2024/03/25_14:16:02,YZ,None,
,,,,,,calibration,0,27,2,120,7,X,0,left,0.5258961910149083,0,0,,,,,,,,,,,,,,,,,,,,,1,,,,,,,,,,,,,,,,,,,,,,,,,,,,,,,,,,,,,,,,,,,,,,121,156136,18,Female,1,2024/03/25_14:16:02,YZ,None,
,,,,,,calibration,0,27,2,120,8,N,1,left,0.6991802730190102,1,0,,,,,,,,,,,,,,,,,,,,,1,,,,,,,,,,,,,,,,,,,,,,,,,,,,,,,,,,,,,,,,,,,,,,121,156136,18,Female,1,2024/03/25_14:16:02,YZ,None,
,,,,,,calibration,0,27,2,120,9,S,0,right,0.4951847399934195,1,0,,,,,,,,,,,,,,,,,,,,,1,,,,,,,,,,,,,,,,,,,,,,,,,,,,,,,,,,,,,,,,,,,,,,121,156136,18,Female,1,2024/03/25_14:16:02,YZ,None,
,,,,,,calibration,0,27,2,120,10,J,0,right,0.4764936330029741,1,0,,,,,,,,,,,,,,,,,,,,,1,,,,,,,,,,,,,,,,,,,,,,,,,,,,,,,,,,,,,,,,,,,,,,121,156136,18,Female,1,2024/03/25_14:16:02,YZ,None,
,,,,,,calibration,0,27,2,120,11,Q,0,right,0.4277664690162055,1,0,,,,,,,,,,,,,,,,,,,,,1,,,,,,,,,,,,,,,,,,,,,,,,,,,,,,,,,,,,,,,,,,,,,,121,156136,18,Female,1,2024/03/25_14:16:02,YZ,None,
,,,,,,calibration,0,27,2,120,12,X,0,right,0.4607232089911122,1,0,,,,,,,,,,,,,,,,,,,,,1,,,,,,,,,,,,,,,,,,,,,,,,,,,,,,,,,,,,,,,,,,,,,,121,156136,18,Female,1,2024/03/25_14:16:02,YZ,None,
,,,,,,calibration,0,27,2,120,13,Q,1,right,0.8137925470073242,0,0,,,,,,,,,,,,,,,,,,,,,1,,,,,,,,,,,,,,,,,,,,,,,,,,,,,,,,,,,,,,,,,,,,,,121,156136,18,Female,1,2024/03/25_14:16:02,YZ,None,
,,,,,,calibration,0,27,2,120,14,J,0,right,nan,0,1,,,,,,,,,,,,,,,,,,,,,1,,,,,,,,,,,,,,,,,,,,,,,,,,,,,,,,,,,,,,,,,,,,,,121,156136,18,Female,1,2024/03/25_14:16:02,YZ,None,
,,,,,,calibration,0,27,2,120,15,V,0,right,0.557549718010705,1,0,,,,,,,,,,,,,,,,,,,,,1,,,,,,,,,,,,,,,,,,,,,,,,,,,,,,,,,,,,,,,,,,,,,,121,156136,18,Female,1,2024/03/25_14:16:02,YZ,None,
,,,,,,calibration,0,27,2,120,16,N,0,right,0.46584002100280486,1,0,,,,,,,,,,,,,,,,,,,,,1,,,,,,,,,,,,,,,,,,,,,,,,,,,,,,,,,,,,,,,,,,,,,,121,156136,18,Female,1,2024/03/25_14:16:02,YZ,None,
,,,,,,calibration,0,27,2,120,17,S,0,right,0.5531040439964272,1,0,,,,,,,,,,,,,,,,,,,,,1,,,,,,,,,,,,,,,,,,,,,,,,,,,,,,,,,,,,,,,,,,,,,,121,156136,18,Female,1,2024/03/25_14:16:02,YZ,None,
,,,,,,calibration,0,27,2,120,18,J,0,right,0.5759241460182238,1,0,,,,,,,,,,,,,,,,,,,,,1,,,,,,,,,,,,,,,,,,,,,,,,,,,,,,,,,,,,,,,,,,,,,,121,156136,18,Female,1,2024/03/25_14:16:02,YZ,None,
,,,,,,calibration,0,27,2,120,19,S,1,right,0.5247654780105222,0,0,,,,,,,,,,,,,,,,,,,,,1,,,,,,,,,,,,,,,,,,,,,,,,,,,,,,,,,,,,,,,,,,,,,,121,156136,18,Female,1,2024/03/25_14:16:02,YZ,None,
,,,,,,calibration,0,27,2,120,20,V,0,right,0.7352017980010714,1,0,,,,,,,,,,,,,,,,,,,,,1,,,,,,,,,,,,,,,,,,,,,,,,,,,,,,,,,,,,,,,,,,,,,,121,156136,18,Female,1,2024/03/25_14:16:02,YZ,None,
,,,,,,calibration,0,27,2,120,21,X,0,right,0.7471484970010351,1,0,,,,,,,,,,,,,,,,,,,,,1,,,,,,,,,,,,,,,,,,,,,,,,,,,,,,,,,,,,,,,,,,,,,,121,156136,18,Female,1,2024/03/25_14:16:02,YZ,None,
,,,,,,calibration,0,27,2,120,22,V,1,right,0.6817089270043653,0,0,,,,,,,,,,,,,,,,,,,,,1,,,,,,,,,,,,,,,,,,,,,,,,,,,,,,,,,,,,,,,,,,,,,,121,156136,18,Female,1,2024/03/25_14:16:02,YZ,None,
,,,,,,calibration,0,27,2,120,23,N,0,right,nan,0,1,,,,,,,,,,,,,,,,,,,,,1,,,,,,,,,,,,,,,,,,,,,,,,,,,,,,,,,,,,,,,,,,,,,,121,156136,18,Female,1,2024/03/25_14:16:02,YZ,None,
,,,,,,calibration,0,27,2,120,,,,,,,,0.7867647058823529,0.5,0.11764705882352941,0.8666666666666667,0.08695652173913043,0.7953964194373402,0.5637195712451579,3,2,0,2,2,13,16,6,17,0,,,,1,,,,,,,,,,,,,,,,,,,,,,,,,,,,,,,,,,,,,,,,,,,,,,121,156136,18,Female,1,2024/03/25_14:16:02,YZ,None,
,,,,,,Calibration,0,,2,120,,,,,,,,,,,,,,,,,,,,,,,,,13,,,1,,,,,,,,,,,,,,,,,,,,,,,,,,,,,,,,,,,,,,,,,,,,,,121,156136,18,Female,1,2024/03/25_14:16:02,YZ,None,
,,,,,,calibration,0,7,2,120,1,S,0,right,0.8039770479954313,1,0,,,,,,,,,,,,,,,,,,,,,1,,,,,,,,,,,,,,,,,,,,,,,,,,,,,,,,,,,,,,,,,,,,,,121,156136,18,Female,1,2024/03/25_14:16:02,YZ,None,
,,,,,,calibration,0,7,2,120,2,X,0,right,0.39458198301144876,1,0,,,,,,,,,,,,,,,,,,,,,1,,,,,,,,,,,,,,,,,,,,,,,,,,,,,,,,,,,,,,,,,,,,,,121,156136,18,Female,1,2024/03/25_14:16:02,YZ,None,
,,,,,,calibration,0,7,2,120,3,V,0,right,0.5239263170224149,1,0,,,,,,,,,,,,,,,,,,,,,1,,,,,,,,,,,,,,,,,,,,,,,,,,,,,,,,,,,,,,,,,,,,,,121,156136,18,Female,1,2024/03/25_14:16:02,YZ,None,
,,,,,,calibration,0,7,2,120,4,F,0,right,0.4323239410005044,1,0,,,,,,,,,,,,,,,,,,,,,1,,,,,,,,,,,,,,,,,,,,,,,,,,,,,,,,,,,,,,,,,,,,,,121,156136,18,Female,1,2024/03/25_14:16:02,YZ,None,
,,,,,,calibration,0,7,2,120,5,N,0,right,0.9043539300037082,1,0,,,,,,,,,,,,,,,,,,,,,1,,,,,,,,,,,,,,,,,,,,,,,,,,,,,,,,,,,,,,,,,,,,,,121,156136,18,Female,1,2024/03/25_14:16:02,YZ,None,
,,,,,,calibration,0,7,2,120,6,F,1,right,0.7253636470122728,0,0,,,,,,,,,,,,,,,,,,,,,1,,,,,,,,,,,,,,,,,,,,,,,,,,,,,,,,,,,,,,,,,,,,,,121,156136,18,Female,1,2024/03/25_14:16:02,YZ,None,
,,,,,,calibration,0,7,2,120,7,N,1,right,nan,0,1,,,,,,,,,,,,,,,,,,,,,1,,,,,,,,,,,,,,,,,,,,,,,,,,,,,,,,,,,,,,,,,,,,,,121,156136,18,Female,1,2024/03/25_14:16:02,YZ,None,
,,,,,,calibration,0,7,2,120,8,C,0,right,0.4626022359880153,1,0,,,,,,,,,,,,,,,,,,,,,1,,,,,,,,,,,,,,,,,,,,,,,,,,,,,,,,,,,,,,,,,,,,,,121,156136,18,Female,1,2024/03/25_14:16:02,YZ,None,
,,,,,,calibration,0,7,2,120,9,N,1,left,0.6063118059828412,1,0,,,,,,,,,,,,,,,,,,,,,1,,,,,,,,,,,,,,,,,,,,,,,,,,,,,,,,,,,,,,,,,,,,,,121,156136,18,Female,1,2024/03/25_14:16:02,YZ,None,
,,,,,,calibration,0,7,2,120,10,S,0,right,0.6016695360012818,1,0,,,,,,,,,,,,,,,,,,,,,1,,,,,,,,,,,,,,,,,,,,,,,,,,,,,,,,,,,,,,,,,,,,,,121,156136,18,Female,1,2024/03/25_14:16:02,YZ,None,
,,,,,,calibration,0,7,2,120,11,V,0,right,0.4301121319876984,1,0,,,,,,,,,,,,,,,,,,,,,1,,,,,,,,,,,,,,,,,,,,,,,,,,,,,,,,,,,,,,,,,,,,,,121,156136,18,Female,1,2024/03/25_14:16:02,YZ,None,
,,,,,,calibration,0,7,2,120,12,F,0,left,0.62937422899995,0,0,,,,,,,,,,,,,,,,,,,,,1,,,,,,,,,,,,,,,,,,,,,,,,,,,,,,,,,,,,,,,,,,,,,,121,156136,18,Female,1,2024/03/25_14:16:02,YZ,None,
,,,,,,calibration,0,7,2,120,13,N,0,right,0.3221015719755087,1,0,,,,,,,,,,,,,,,,,,,,,1,,,,,,,,,,,,,,,,,,,,,,,,,,,,,,,,,,,,,,,,,,,,,,121,156136,18,Female,1,2024/03/25_14:16:02,YZ,None,
,,,,,,calibration,0,7,2,120,14,C,0,right,0.8084099630068522,1,0,,,,,,,,,,,,,,,,,,,,,1,,,,,,,,,,,,,,,,,,,,,,,,,,,,,,,,,,,,,,,,,,,,,,121,156136,18,Female,1,2024/03/25_14:16:02,YZ,None,
,,,,,,calibration,0,7,2,120,15,N,1,left,0.40494369401130825,1,0,,,,,,,,,,,,,,,,,,,,,1,,,,,,,,,,,,,,,,,,,,,,,,,,,,,,,,,,,,,,,,,,,,,,121,156136,18,Female,1,2024/03/25_14:16:02,YZ,None,
,,,,,,calibration,0,7,2,120,16,F,0,left,nan,0,1,,,,,,,,,,,,,,,,,,,,,1,,,,,,,,,,,,,,,,,,,,,,,,,,,,,,,,,,,,,,,,,,,,,,121,156136,18,Female,1,2024/03/25_14:16:02,YZ,None,
,,,,,,calibration,0,7,2,120,17,N,1,left,nan,0,1,,,,,,,,,,,,,,,,,,,,,1,,,,,,,,,,,,,,,,,,,,,,,,,,,,,,,,,,,,,,,,,,,,,,121,156136,18,Female,1,2024/03/25_14:16:02,YZ,None,
,,,,,,calibration,0,7,2,120,18,V,0,right,0.8480154940043576,1,0,,,,,,,,,,,,,,,,,,,,,1,,,,,,,,,,,,,,,,,,,,,,,,,,,,,,,,,,,,,,,,,,,,,,121,156136,18,Female,1,2024/03/25_14:16:02,YZ,None,
,,,,,,calibration,0,7,2,120,19,Q,0,right,0.6477208560099825,1,0,,,,,,,,,,,,,,,,,,,,,1,,,,,,,,,,,,,,,,,,,,,,,,,,,,,,,,,,,,,,,,,,,,,,121,156136,18,Female,1,2024/03/25_14:16:02,YZ,None,
,,,,,,calibration,0,7,2,120,20,V,1,left,0.6078000999987125,1,0,,,,,,,,,,,,,,,,,,,,,1,,,,,,,,,,,,,,,,,,,,,,,,,,,,,,,,,,,,,,,,,,,,,,121,156136,18,Female,1,2024/03/25_14:16:02,YZ,None,
,,,,,,calibration,0,7,2,120,21,S,0,right,0.799088383995695,1,0,,,,,,,,,,,,,,,,,,,,,1,,,,,,,,,,,,,,,,,,,,,,,,,,,,,,,,,,,,,,,,,,,,,,121,156136,18,Female,1,2024/03/25_14:16:02,YZ,None,
,,,,,,calibration,0,7,2,120,22,V,1,left,0.8915159199968912,1,0,,,,,,,,,,,,,,,,,,,,,1,,,,,,,,,,,,,,,,,,,,,,,,,,,,,,,,,,,,,,,,,,,,,,121,156136,18,Female,1,2024/03/25_14:16:02,YZ,None,
,,,,,,calibration,0,7,2,120,23,F,0,right,0.5863936840032693,1,0,,,,,,,,,,,,,,,,,,,,,1,,,,,,,,,,,,,,,,,,,,,,,,,,,,,,,,,,,,,,,,,,,,,,121,156136,18,Female,1,2024/03/25_14:16:02,YZ,None,
,,,,,,calibration,0,7,2,120,,,,,,,,0.8504464285714285,0.5714285714285714,0.0625,0.9333333333333333,0.13043478260869565,0.8070652173913043,0.6215293236004072,4,1,2,1,3,14,18,7,16,0,,,,1,,,,,,,,,,,,,,,,,,,,,,,,,,,,,,,,,,,,,,,,,,,,,,121,156136,18,Female,1,2024/03/25_14:16:02,YZ,None,
,,,,,,Calibration,0,,2,120,,,,,,,,,,,,,,,,,,,,,,,,,14,,,1,,,,,,,,,,,,,,,,,,,,,,,,,,,,,,,,,,,,,,,,,,,,,,121,156136,18,Female,1,2024/03/25_14:16:02,YZ,None,
,,,,,,calibration,0,10,2,83,1,J,0,None,nan,0,1,,,,,,,,,,,,,,,,,,,,,1,,,,,,,,,,,,,,,,,,,,,,,,,,,,,,,,,,,,,,,,,,,,,,121,156136,18,Female,1,2024/03/25_14:16:02,YZ,None,
,,,,,,calibration,0,10,2,83,2,V,0,right,0.06135315800202079,1,0,,,,,,,,,,,,,,,,,,,,,1,,,,,,,,,,,,,,,,,,,,,,,,,,,,,,,,,,,,,,,,,,,,,,121,156136,18,Female,1,2024/03/25_14:16:02,YZ,None,
,,,,,,calibration,0,10,2,83,3,X,0,right,0.44416419800836593,1,0,,,,,,,,,,,,,,,,,,,,,1,,,,,,,,,,,,,,,,,,,,,,,,,,,,,,,,,,,,,,,,,,,,,,121,156136,18,Female,1,2024/03/25_14:16:02,YZ,None,
,,,,,,calibration,0,10,2,83,4,J,0,right,nan,0,1,,,,,,,,,,,,,,,,,,,,,1,,,,,,,,,,,,,,,,,,,,,,,,,,,,,,,,,,,,,,,,,,,,,,121,156136,18,Female,1,2024/03/25_14:16:02,YZ,None,
,,,,,,calibration,0,10,2,83,5,X,1,left,0.5646718200005125,1,0,,,,,,,,,,,,,,,,,,,,,1,,,,,,,,,,,,,,,,,,,,,,,,,,,,,,,,,,,,,,,,,,,,,,121,156136,18,Female,1,2024/03/25_14:16:02,YZ,None,
,,,,,,calibration,0,10,2,83,6,Q,0,right,0.41109823499573395,1,0,,,,,,,,,,,,,,,,,,,,,1,,,,,,,,,,,,,,,,,,,,,,,,,,,,,,,,,,,,,,,,,,,,,,121,156136,18,Female,1,2024/03/25_14:16:02,YZ,None,
,,,,,,calibration,0,10,2,83,7,X,1,left,0.6570022579981014,1,0,,,,,,,,,,,,,,,,,,,,,1,,,,,,,,,,,,,,,,,,,,,,,,,,,,,,,,,,,,,,,,,,,,,,121,156136,18,Female,1,2024/03/25_14:16:02,YZ,None,
,,,,,,calibration,0,10,2,83,8,N,0,right,0.2988661340204999,1,0,,,,,,,,,,,,,,,,,,,,,1,,,,,,,,,,,,,,,,,,,,,,,,,,,,,,,,,,,,,,,,,,,,,,121,156136,18,Female,1,2024/03/25_14:16:02,YZ,None,
,,,,,,calibration,0,10,2,83,9,X,1,left,0.65361945098266,1,0,,,,,,,,,,,,,,,,,,,,,1,,,,,,,,,,,,,,,,,,,,,,,,,,,,,,,,,,,,,,,,,,,,,,121,156136,18,Female,1,2024/03/25_14:16:02,YZ,None,
,,,,,,calibration,0,10,2,83,10,J,0,right,0.3707641040091403,1,0,,,,,,,,,,,,,,,,,,,,,1,,,,,,,,,,,,,,,,,,,,,,,,,,,,,,,,,,,,,,,,,,,,,,121,156136,18,Female,1,2024/03/25_14:16:02,YZ,None,
,,,,,,calibration,0,10,2,83,11,C,0,right,nan,0,1,,,,,,,,,,,,,,,,,,,,,1,,,,,,,,,,,,,,,,,,,,,,,,,,,,,,,,,,,,,,,,,,,,,,121,156136,18,Female,1,2024/03/25_14:16:02,YZ,None,
,,,,,,calibration,0,10,2,83,12,J,1,left,0.6405697059817612,1,0,,,,,,,,,,,,,,,,,,,,,1,,,,,,,,,,,,,,,,,,,,,,,,,,,,,,,,,,,,,,,,,,,,,,121,156136,18,Female,1,2024/03/25_14:16:02,YZ,None,
,,,,,,calibration,0,10,2,83,13,Q,0,right,0.4377211809915025,1,0,,,,,,,,,,,,,,,,,,,,,1,,,,,,,,,,,,,,,,,,,,,,,,,,,,,,,,,,,,,,,,,,,,,,121,156136,18,Female,1,2024/03/25_14:16:02,YZ,None,
,,,,,,calibration,0,10,2,83,14,V,0,right,0.6416879919997882,1,0,,,,,,,,,,,,,,,,,,,,,1,,,,,,,,,,,,,,,,,,,,,,,,,,,,,,,,,,,,,,,,,,,,,,121,156136,18,Female,1,2024/03/25_14:16:02,YZ,None,
,,,,,,calibration,0,10,2,83,15,S,0,right,nan,0,1,,,,,,,,,,,,,,,,,,,,,1,,,,,,,,,,,,,,,,,,,,,,,,,,,,,,,,,,,,,,,,,,,,,,121,156136,18,Female,1,2024/03/25_14:16:02,YZ,None,
,,,,,,calibration,0,10,2,83,16,X,0,right,0.7739961259940173,1,0,,,,,,,,,,,,,,,,,,,,,1,,,,,,,,,,,,,,,,,,,,,,,,,,,,,,,,,,,,,,,,,,,,,,121,156136,18,Female,1,2024/03/25_14:16:02,YZ,None,
,,,,,,calibration,0,10,2,83,17,C,0,right,0.7548299879999831,1,0,,,,,,,,,,,,,,,,,,,,,1,,,,,,,,,,,,,,,,,,,,,,,,,,,,,,,,,,,,,,,,,,,,,,121,156136,18,Female,1,2024/03/25_14:16:02,YZ,None,
,,,,,,calibration,0,10,2,83,18,Q,0,right,0.37062524698558263,1,0,,,,,,,,,,,,,,,,,,,,,1,,,,,,,,,,,,,,,,,,,,,,,,,,,,,,,,,,,,,,,,,,,,,,121,156136,18,Female,1,2024/03/25_14:16:02,YZ,None,
,,,,,,calibration,0,10,2,83,19,V,0,right,nan,0,1,,,,,,,,,,,,,,,,,,,,,1,,,,,,,,,,,,,,,,,,,,,,,,,,,,,,,,,,,,,,,,,,,,,,121,156136,18,Female,1,2024/03/25_14:16:02,YZ,None,
,,,,,,calibration,0,10,2,83,20,Q,1,right,0.0,0,0,,,,,,,,,,,,,,,,,,,,,1,,,,,,,,,,,,,,,,,,,,,,,,,,,,,,,,,,,,,,,,,,,,,,121,156136,18,Female,1,2024/03/25_14:16:02,YZ,None,
,,,,,,calibration,0,10,2,83,21,F,0,right,0.32640260699554347,1,0,,,,,,,,,,,,,,,,,,,,,1,,,,,,,,,,,,,,,,,,,,,,,,,,,,,,,,,,,,,,,,,,,,,,121,156136,18,Female,1,2024/03/25_14:16:02,YZ,None,
,,,,,,calibration,0,10,2,83,22,C,0,right,0.7604665019898675,1,0,,,,,,,,,,,,,,,,,,,,,1,,,,,,,,,,,,,,,,,,,,,,,,,,,,,,,,,,,,,,,,,,,,,,121,156136,18,Female,1,2024/03/25_14:16:02,YZ,None,
,,,,,,calibration,0,10,2,83,23,F,1,left,0.6016525289742276,1,0,,,,,,,,,,,,,,,,,,,,,1,,,,,,,,,,,,,,,,,,,,,,,,,,,,,,,,,,,,,,,,,,,,,,121,156136,18,Female,1,2024/03/25_14:16:02,YZ,None,
,,,,,,calibration,0,10,2,83,24,Q,0,right,0.2765339800098445,1,0,,,,,,,,,,,,,,,,,,,,,1,,,,,,,,,,,,,,,,,,,,,,,,,,,,,,,,,,,,,,,,,,,,,,121,156136,18,Female,1,2024/03/25_14:16:02,YZ,None,
,,,,,,calibration,0,10,2,83,,,,,,,,0.9583333333333334,0.8333333333333334,0.0,1.0,0.20833333333333334,0.7916666666666666,0.476106590312587,5,0,0,5,5,13,18,6,18,0,,,,1,,,,,,,,,,,,,,,,,,,,,,,,,,,,,,,,,,,,,,,,,,,,,,121,156136,18,Female,1,2024/03/25_14:16:02,YZ,None,
,,,,,,Calibration,0,,2,83,,,,,,,,,,,,,,,,,,,,,,,,,15,,,1,,,,,,,,,,,,,,,,,,,,,,,,,,,,,,,,,,,,,,,,,,,,,,121,156136,18,Female,1,2024/03/25_14:16:02,YZ,None,
,,,,,,CALIBRATION,0,,,,,,,,,,,,,,,,,,,,,,,,,,,,15,0.9583333333333334,83,1,,,,,,,,,,,,,,,,,,,,,,,,,,,,,,,,,,,,,,,,,,,,,,121,156136,18,Female,1,2024/03/25_14:16:02,YZ,None,
1,./instructions/inst_prac_1/Slide24.png,right,13.449415468989173,517.8900129859976,531.3394284549868,,,,,,,,,,,,,,,,,,,,,,,,,,,,,,,,,1,,,,,,,,,,,,,,,,,,,,,,,,,,,,,,,,,,,,,,,,,,,,,,121,156136,18,Female,1,2024/03/25_14:16:02,YZ,None,
2,./instructions/inst_prac_1/Slide25.png,right,1.2740974519983865,531.3695517209999,532.6436491729983,,,,,,,,,,,,,,,,,,,,,,,,,,,,,,,,,1,,,,,,,,,,,,,,,,,,,,,,,,,,,,,,,,,,,,,,,,,,,,,,121,156136,18,Female,1,2024/03/25_14:16:02,YZ,None,
3,./instructions/inst_prac_1/Slide26.png,right,0.6267878639919218,532.6728381580033,533.2996260219952,,,,,,,,,,,,,,,,,,,,,,,,,,,,,,,,,1,,,,,,,,,,,,,,,,,,,,,,,,,,,,,,,,,,,,,,,,,,,,,,121,156136,18,Female,1,2024/03/25_14:16:02,YZ,None,
4,./instructions/inst_prac_1/Slide27.png,right,0.5095795739907771,533.3258904409886,533.8354700149794,,,,,,,,,,,,,,,,,,,,,,,,,,,,,,,,,1,,,,,,,,,,,,,,,,,,,,,,,,,,,,,,,,,,,,,,,,,,,,,,121,156136,18,Female,1,2024/03/25_14:16:02,YZ,None,
5,./instructions/inst_prac_1/Slide28.png,right,0.5068664260033984,533.8645865989965,534.3714530249999,,,,,,,,,,,,,,,,,,,,,,,,,,,,,,,,,1,,,,,,,,,,,,,,,,,,,,,,,,,,,,,,,,,,,,,,,,,,,,,,121,156136,18,Female,1,2024/03/25_14:16:02,YZ,None,
6,./instructions/inst_prac_1/Slide29.png,right,7.426890761998948,534.4007022999867,541.8275930619857,,,,,,,,,,,,,,,,,,,,,,,,,,,,,,,,,1,,,,,,,,,,,,,,,,,,,,,,,,,,,,,,,,,,,,,,,,,,,,,,121,156136,18,Female,1,2024/03/25_14:16:02,YZ,None,
7,./instructions/inst_prac_1/Slide30.png,right,2.7945145510020666,541.8571415309852,544.6516560819873,,,,,,,,,,,,,,,,,,,,,,,,,,,,,,,,,1,,,,,,,,,,,,,,,,,,,,,,,,,,,,,,,,,,,,,,,,,,,,,,121,156136,18,Female,1,2024/03/25_14:16:02,YZ,None,
,,,,,,practice,0,19,1,1250,1,Q,0,right,1.5808521840081085,1,0,,,,,,,,,,,,,,,,,,,,,1,,,,,,,,,,,,,,,,,,,,,,,,,,,,,,,,,,,,,,,,,,,,,,121,156136,18,Female,1,2024/03/25_14:16:02,YZ,None,
,,,,,,practice,0,19,1,1250,2,Q,1,left,1.180471639992902,1,0,,,,,,,,,,,,,,,,,,,,,1,,,,,,,,,,,,,,,,,,,,,,,,,,,,,,,,,,,,,,,,,,,,,,121,156136,18,Female,1,2024/03/25_14:16:02,YZ,None,
,,,,,,practice,0,19,1,1250,3,V,0,right,0.683329452003818,1,0,,,,,,,,,,,,,,,,,,,,,1,,,,,,,,,,,,,,,,,,,,,,,,,,,,,,,,,,,,,,,,,,,,,,121,156136,18,Female,1,2024/03/25_14:16:02,YZ,None,
,,,,,,practice,0,19,1,1250,4,F,0,right,0.6571598379814532,1,0,,,,,,,,,,,,,,,,,,,,,1,,,,,,,,,,,,,,,,,,,,,,,,,,,,,,,,,,,,,,,,,,,,,,121,156136,18,Female,1,2024/03/25_14:16:02,YZ,None,
,,,,,,practice,0,19,1,1250,5,F,1,left,0.6690217560098972,1,0,,,,,,,,,,,,,,,,,,,,,1,,,,,,,,,,,,,,,,,,,,,,,,,,,,,,,,,,,,,,,,,,,,,,121,156136,18,Female,1,2024/03/25_14:16:02,YZ,None,
,,,,,,practice,0,19,1,1250,6,C,0,right,0.6601855189946946,1,0,,,,,,,,,,,,,,,,,,,,,1,,,,,,,,,,,,,,,,,,,,,,,,,,,,,,,,,,,,,,,,,,,,,,121,156136,18,Female,1,2024/03/25_14:16:02,YZ,None,
,,,,,,practice,0,19,1,1250,7,N,0,right,4.376038513000822,1,0,,,,,,,,,,,,,,,,,,,,,1,,,,,,,,,,,,,,,,,,,,,,,,,,,,,,,,,,,,,,,,,,,,,,121,156136,18,Female,1,2024/03/25_14:16:02,YZ,None,
,,,,,,practice,0,19,1,1250,8,F,0,right,1.382455355982529,1,0,,,,,,,,,,,,,,,,,,,,,1,,,,,,,,,,,,,,,,,,,,,,,,,,,,,,,,,,,,,,,,,,,,,,121,156136,18,Female,1,2024/03/25_14:16:02,YZ,None,
,,,,,,practice,0,19,1,1250,9,F,1,left,0.5604090309934691,1,0,,,,,,,,,,,,,,,,,,,,,1,,,,,,,,,,,,,,,,,,,,,,,,,,,,,,,,,,,,,,,,,,,,,,121,156136,18,Female,1,2024/03/25_14:16:02,YZ,None,
,,,,,,practice,0,19,1,1250,10,J,0,right,0.6119861650222447,1,0,,,,,,,,,,,,,,,,,,,,,1,,,,,,,,,,,,,,,,,,,,,,,,,,,,,,,,,,,,,,,,,,,,,,121,156136,18,Female,1,2024/03/25_14:16:02,YZ,None,
,,,,,,practice,0,19,1,1250,,,,,,,,1.0,1.0,0.0,1.0,0.0,1.0,1.2361909453989939,3,0,0,0,0,7,10,3,7,0,,,,1,,,,,,,,,,,,,,,,,,,,,,,,,,,,,,,,,,,,,,,,,,,,,,121,156136,18,Female,1,2024/03/25_14:16:02,YZ,None,
1,./instructions/inst_prac_1_next/Slide35.png,right,8.4089367010165,567.5389028379868,575.9478395390033,,,,,,,,,,,,,,,,,,,,,,,,,,,,,,,,,1,,,,,,,,,,,,,,,,,,,,,,,,,,,,,,,,,,,,,,,,,,,,,,121,156136,18,Female,1,2024/03/25_14:16:02,YZ,None,
,,,,,,practice,0,10,1,83,1,N,0,right,0.7977695879817475,1,0,,,,,,,,,,,,,,,,,,,,,1,,,,,,,,,,,,,,,,,,,,,,,,,,,,,,,,,,,,,,,,,,,,,,121,156136,18,Female,1,2024/03/25_14:16:02,YZ,None,
,,,,,,practice,0,10,1,83,2,J,0,right,0.35417152600712143,1,0,,,,,,,,,,,,,,,,,,,,,1,,,,,,,,,,,,,,,,,,,,,,,,,,,,,,,,,,,,,,,,,,,,,,121,156136,18,Female,1,2024/03/25_14:16:02,YZ,None,
,,,,,,practice,0,10,1,83,3,J,1,left,0.34848825400695205,1,0,,,,,,,,,,,,,,,,,,,,,1,,,,,,,,,,,,,,,,,,,,,,,,,,,,,,,,,,,,,,,,,,,,,,121,156136,18,Female,1,2024/03/25_14:16:02,YZ,None,
,,,,,,practice,0,10,1,83,4,C,0,right,0.31291712398524396,1,0,,,,,,,,,,,,,,,,,,,,,1,,,,,,,,,,,,,,,,,,,,,,,,,,,,,,,,,,,,,,,,,,,,,,121,156136,18,Female,1,2024/03/25_14:16:02,YZ,None,
,,,,,,practice,0,10,1,83,5,V,0,right,0.408146759000374,1,0,,,,,,,,,,,,,,,,,,,,,1,,,,,,,,,,,,,,,,,,,,,,,,,,,,,,,,,,,,,,,,,,,,,,121,156136,18,Female,1,2024/03/25_14:16:02,YZ,None,
,,,,,,practice,0,10,1,83,6,X,0,right,0.4323899229930248,1,0,,,,,,,,,,,,,,,,,,,,,1,,,,,,,,,,,,,,,,,,,,,,,,,,,,,,,,,,,,,,,,,,,,,,121,156136,18,Female,1,2024/03/25_14:16:02,YZ,None,
,,,,,,practice,0,10,1,83,7,X,1,left,0.5285025679913815,1,0,,,,,,,,,,,,,,,,,,,,,1,,,,,,,,,,,,,,,,,,,,,,,,,,,,,,,,,,,,,,,,,,,,,,121,156136,18,Female,1,2024/03/25_14:16:02,YZ,None,
,,,,,,practice,0,10,1,83,8,N,0,right,0.3438915949955117,1,0,,,,,,,,,,,,,,,,,,,,,1,,,,,,,,,,,,,,,,,,,,,,,,,,,,,,,,,,,,,,,,,,,,,,121,156136,18,Female,1,2024/03/25_14:16:02,YZ,None,
,,,,,,practice,0,10,1,83,9,C,0,right,0.36212366199470125,1,0,,,,,,,,,,,,,,,,,,,,,1,,,,,,,,,,,,,,,,,,,,,,,,,,,,,,,,,,,,,,,,,,,,,,121,156136,18,Female,1,2024/03/25_14:16:02,YZ,None,
,,,,,,practice,0,10,1,83,10,V,0,right,0.3312821789877489,1,0,,,,,,,,,,,,,,,,,,,,,1,,,,,,,,,,,,,,,,,,,,,,,,,,,,,,,,,,,,,,,,,,,,,,121,156136,18,Female,1,2024/03/25_14:16:02,YZ,None,
,,,,,,practice,0,10,1,83,11,V,1,left,0.3276679510017857,1,0,,,,,,,,,,,,,,,,,,,,,1,,,,,,,,,,,,,,,,,,,,,,,,,,,,,,,,,,,,,,,,,,,,,,121,156136,18,Female,1,2024/03/25_14:16:02,YZ,None,
,,,,,,practice,0,10,1,83,12,C,0,right,0.257208933995571,1,0,,,,,,,,,,,,,,,,,,,,,1,,,,,,,,,,,,,,,,,,,,,,,,,,,,,,,,,,,,,,,,,,,,,,121,156136,18,Female,1,2024/03/25_14:16:02,YZ,None,
,,,,,,practice,0,10,1,83,13,V,0,right,0.32922932200017385,1,0,,,,,,,,,,,,,,,,,,,,,1,,,,,,,,,,,,,,,,,,,,,,,,,,,,,,,,,,,,,,,,,,,,,,121,156136,18,Female,1,2024/03/25_14:16:02,YZ,None,
,,,,,,practice,0,10,1,83,14,V,1,left,0.4694343699957244,1,0,,,,,,,,,,,,,,,,,,,,,1,,,,,,,,,,,,,,,,,,,,,,,,,,,,,,,,,,,,,,,,,,,,,,121,156136,18,Female,1,2024/03/25_14:16:02,YZ,None,
,,,,,,practice,0,10,1,83,15,Q,0,right,0.29580425497260876,1,0,,,,,,,,,,,,,,,,,,,,,1,,,,,,,,,,,,,,,,,,,,,,,,,,,,,,,,,,,,,,,,,,,,,,121,156136,18,Female,1,2024/03/25_14:16:02,YZ,None,
,,,,,,practice,0,10,1,83,16,C,0,right,0.30006803799187765,1,0,,,,,,,,,,,,,,,,,,,,,1,,,,,,,,,,,,,,,,,,,,,,,,,,,,,,,,,,,,,,,,,,,,,,121,156136,18,Female,1,2024/03/25_14:16:02,YZ,None,
,,,,,,practice,0,10,1,83,17,F,0,right,0.3435842010076158,1,0,,,,,,,,,,,,,,,,,,,,,1,,,,,,,,,,,,,,,,,,,,,,,,,,,,,,,,,,,,,,,,,,,,,,121,156136,18,Female,1,2024/03/25_14:16:02,YZ,None,
,,,,,,practice,0,10,1,83,18,F,1,right,0.2969048679806292,0,0,,,,,,,,,,,,,,,,,,,,,1,,,,,,,,,,,,,,,,,,,,,,,,,,,,,,,,,,,,,,,,,,,,,,121,156136,18,Female,1,2024/03/25_14:16:02,YZ,None,
,,,,,,practice,0,10,1,83,19,Q,0,right,0.5409777079767082,1,0,,,,,,,,,,,,,,,,,,,,,1,,,,,,,,,,,,,,,,,,,,,,,,,,,,,,,,,,,,,,,,,,,,,,121,156136,18,Female,1,2024/03/25_14:16:02,YZ,None,
,,,,,,practice,0,10,1,83,20,N,0,right,0.46789723497931845,1,0,,,,,,,,,,,,,,,,,,,,,1,,,,,,,,,,,,,,,,,,,,,,,,,,,,,,,,,,,,,,,,,,,,,,121,156136,18,Female,1,2024/03/25_14:16:02,YZ,None,
,,,,,,practice,0,10,1,83,21,V,0,right,0.3513387110142503,1,0,,,,,,,,,,,,,,,,,,,,,1,,,,,,,,,,,,,,,,,,,,,,,,,,,,,,,,,,,,,,,,,,,,,,121,156136,18,Female,1,2024/03/25_14:16:02,YZ,None,
,,,,,,practice,0,10,1,83,22,Q,0,right,0.571087225980591,1,0,,,,,,,,,,,,,,,,,,,,,1,,,,,,,,,,,,,,,,,,,,,,,,,,,,,,,,,,,,,,,,,,,,,,121,156136,18,Female,1,2024/03/25_14:16:02,YZ,None,
,,,,,,practice,0,10,1,83,23,Q,1,right,0.28170082200085744,0,0,,,,,,,,,,,,,,,,,,,,,1,,,,,,,,,,,,,,,,,,,,,,,,,,,,,,,,,,,,,,,,,,,,,,121,156136,18,Female,1,2024/03/25_14:16:02,YZ,None,
,,,,,,practice,0,10,1,83,24,S,0,right,0.5043601740035228,1,0,,,,,,,,,,,,,,,,,,,,,1,,,,,,,,,,,,,,,,,,,,,,,,,,,,,,,,,,,,,,,,,,,,,,121,156136,18,Female,1,2024/03/25_14:16:02,YZ,None,
,,,,,,practice,0,10,1,83,,,,,,,,0.9166666666666666,0.6666666666666666,0.0,1.0,0.0,1.0,0.3982061247018767,4,0,0,0,0,18,22,6,18,0,,,,1,,,,,,,,,,,,,,,,,,,,,,,,,,,,,,,,,,,,,,,,,,,,,,121,156136,18,Female,1,2024/03/25_14:16:02,YZ,None,
,,,,,,practice,0,25,1,83,1,S,0,right,0.3923601169954054,1,0,,,,,,,,,,,,,,,,,,,,,1,,,,,,,,,,,,,,,,,,,,,,,,,,,,,,,,,,,,,,,,,,,,,,121,156136,18,Female,1,2024/03/25_14:16:02,YZ,None,
,,,,,,practice,0,25,1,83,2,N,0,right,0.42834986399975605,1,0,,,,,,,,,,,,,,,,,,,,,1,,,,,,,,,,,,,,,,,,,,,,,,,,,,,,,,,,,,,,,,,,,,,,121,156136,18,Female,1,2024/03/25_14:16:02,YZ,None,
,,,,,,practice,0,25,1,83,3,N,1,left,0.333342994999839,1,0,,,,,,,,,,,,,,,,,,,,,1,,,,,,,,,,,,,,,,,,,,,,,,,,,,,,,,,,,,,,,,,,,,,,121,156136,18,Female,1,2024/03/25_14:16:02,YZ,None,
,,,,,,practice,0,25,1,83,4,S,0,right,0.6879494660242926,1,0,,,,,,,,,,,,,,,,,,,,,1,,,,,,,,,,,,,,,,,,,,,,,,,,,,,,,,,,,,,,,,,,,,,,121,156136,18,Female,1,2024/03/25_14:16:02,YZ,None,
,,,,,,practice,0,25,1,83,5,S,1,left,0.44105015898821875,1,0,,,,,,,,,,,,,,,,,,,,,1,,,,,,,,,,,,,,,,,,,,,,,,,,,,,,,,,,,,,,,,,,,,,,121,156136,18,Female,1,2024/03/25_14:16:02,YZ,None,
,,,,,,practice,0,25,1,83,6,J,0,right,0.3198769399896264,1,0,,,,,,,,,,,,,,,,,,,,,1,,,,,,,,,,,,,,,,,,,,,,,,,,,,,,,,,,,,,,,,,,,,,,121,156136,18,Female,1,2024/03/25_14:16:02,YZ,None,
,,,,,,practice,0,25,1,83,7,C,0,right,0.41155052100657485,1,0,,,,,,,,,,,,,,,,,,,,,1,,,,,,,,,,,,,,,,,,,,,,,,,,,,,,,,,,,,,,,,,,,,,,121,156136,18,Female,1,2024/03/25_14:16:02,YZ,None,
,,,,,,practice,0,25,1,83,8,C,1,left,0.4251128460164182,1,0,,,,,,,,,,,,,,,,,,,,,1,,,,,,,,,,,,,,,,,,,,,,,,,,,,,,,,,,,,,,,,,,,,,,121,156136,18,Female,1,2024/03/25_14:16:02,YZ,None,
,,,,,,practice,0,25,1,83,9,V,0,right,0.35228468899731524,1,0,,,,,,,,,,,,,,,,,,,,,1,,,,,,,,,,,,,,,,,,,,,,,,,,,,,,,,,,,,,,,,,,,,,,121,156136,18,Female,1,2024/03/25_14:16:02,YZ,None,
,,,,,,practice,0,25,1,83,10,Q,0,right,0.46029526900383644,1,0,,,,,,,,,,,,,,,,,,,,,1,,,,,,,,,,,,,,,,,,,,,,,,,,,,,,,,,,,,,,,,,,,,,,121,156136,18,Female,1,2024/03/25_14:16:02,YZ,None,
,,,,,,practice,0,25,1,83,11,X,0,right,0.3961963790061418,1,0,,,,,,,,,,,,,,,,,,,,,1,,,,,,,,,,,,,,,,,,,,,,,,,,,,,,,,,,,,,,,,,,,,,,121,156136,18,Female,1,2024/03/25_14:16:02,YZ,None,
,,,,,,practice,0,25,1,83,12,X,1,left,0.4566589629976079,1,0,,,,,,,,,,,,,,,,,,,,,1,,,,,,,,,,,,,,,,,,,,,,,,,,,,,,,,,,,,,,,,,,,,,,121,156136,18,Female,1,2024/03/25_14:16:02,YZ,None,
,,,,,,practice,0,25,1,83,13,C,0,right,0.3047973860229831,1,0,,,,,,,,,,,,,,,,,,,,,1,,,,,,,,,,,,,,,,,,,,,,,,,,,,,,,,,,,,,,,,,,,,,,121,156136,18,Female,1,2024/03/25_14:16:02,YZ,None,
,,,,,,practice,0,25,1,83,14,N,0,right,0.31682720899698325,1,0,,,,,,,,,,,,,,,,,,,,,1,,,,,,,,,,,,,,,,,,,,,,,,,,,,,,,,,,,,,,,,,,,,,,121,156136,18,Female,1,2024/03/25_14:16:02,YZ,None,
,,,,,,practice,0,25,1,83,15,J,0,right,0.3363689279940445,1,0,,,,,,,,,,,,,,,,,,,,,1,,,,,,,,,,,,,,,,,,,,,,,,,,,,,,,,,,,,,,,,,,,,,,121,156136,18,Female,1,2024/03/25_14:16:02,YZ,None,
,,,,,,practice,0,25,1,83,16,X,0,right,0.3918818160018418,1,0,,,,,,,,,,,,,,,,,,,,,1,,,,,,,,,,,,,,,,,,,,,,,,,,,,,,,,,,,,,,,,,,,,,,121,156136,18,Female,1,2024/03/25_14:16:02,YZ,None,
,,,,,,practice,0,25,1,83,17,V,0,right,0.36815492098685354,1,0,,,,,,,,,,,,,,,,,,,,,1,,,,,,,,,,,,,,,,,,,,,,,,,,,,,,,,,,,,,,,,,,,,,,121,156136,18,Female,1,2024/03/25_14:16:02,YZ,None,
,,,,,,practice,0,25,1,83,18,V,1,left,0.47475339798256755,1,0,,,,,,,,,,,,,,,,,,,,,1,,,,,,,,,,,,,,,,,,,,,,,,,,,,,,,,,,,,,,,,,,,,,,121,156136,18,Female,1,2024/03/25_14:16:02,YZ,None,
,,,,,,practice,0,25,1,83,19,S,0,right,0.45767505301046185,1,0,,,,,,,,,,,,,,,,,,,,,1,,,,,,,,,,,,,,,,,,,,,,,,,,,,,,,,,,,,,,,,,,,,,,121,156136,18,Female,1,2024/03/25_14:16:02,YZ,None,
,,,,,,practice,0,25,1,83,20,S,1,left,0.3809981730009895,1,0,,,,,,,,,,,,,,,,,,,,,1,,,,,,,,,,,,,,,,,,,,,,,,,,,,,,,,,,,,,,,,,,,,,,121,156136,18,Female,1,2024/03/25_14:16:02,YZ,None,
,,,,,,practice,0,25,1,83,21,F,0,right,0.2711959590087645,1,0,,,,,,,,,,,,,,,,,,,,,1,,,,,,,,,,,,,,,,,,,,,,,,,,,,,,,,,,,,,,,,,,,,,,121,156136,18,Female,1,2024/03/25_14:16:02,YZ,None,
,,,,,,practice,0,25,1,83,22,S,0,right,0.7119105590099934,1,0,,,,,,,,,,,,,,,,,,,,,1,,,,,,,,,,,,,,,,,,,,,,,,,,,,,,,,,,,,,,,,,,,,,,121,156136,18,Female,1,2024/03/25_14:16:02,YZ,None,
,,,,,,practice,0,25,1,83,23,Q,0,right,0.4165108730085194,1,0,,,,,,,,,,,,,,,,,,,,,1,,,,,,,,,,,,,,,,,,,,,,,,,,,,,,,,,,,,,,,,,,,,,,121,156136,18,Female,1,2024/03/25_14:16:02,YZ,None,
,,,,,,practice,0,25,1,83,24,N,0,right,0.640453536005225,1,0,,,,,,,,,,,,,,,,,,,,,1,,,,,,,,,,,,,,,,,,,,,,,,,,,,,,,,,,,,,,,,,,,,,,121,156136,18,Female,1,2024/03/25_14:16:02,YZ,None,
,,,,,,practice,0,25,1,83,,,,,,,,1.0,1.0,0.0,1.0,0.0,1.0,0.42402316746059415,6,0,0,0,0,18,24,6,18,0,,,,1,,,,,,,,,,,,,,,,,,,,,,,,,,,,,,,,,,,,,,,,,,,,,,121,156136,18,Female,1,2024/03/25_14:16:02,YZ,None,
1,./instructions/inst_prac_3/Slide37.png,right,10.841606211004546,625.018008502986,635.8596147139906,,,,,,,,,,,,,,,,,,,,,,,,,,,,,,,,,1,,,,,,,,,,,,,,,,,,,,,,,,,,,,,,,,,,,,,,,,,,,,,,121,156136,18,Female,1,2024/03/25_14:16:02,YZ,None,
2,./instructions/inst_prac_3/Slide38.png,right,1.7743355589918792,635.8852124419936,637.6595480009855,,,,,,,,,,,,,,,,,,,,,,,,,,,,,,,,,1,,,,,,,,,,,,,,,,,,,,,,,,,,,,,,,,,,,,,,,,,,,,,,121,156136,18,Female,1,2024/03/25_14:16:02,YZ,None,
3,./instructions/inst_prac_3/Slide39.png,right,0.6699132430076133,637.6854572339798,638.3553704769874,,,,,,,,,,,,,,,,,,,,,,,,,,,,,,,,,1,,,,,,,,,,,,,,,,,,,,,,,,,,,,,,,,,,,,,,,,,,,,,,121,156136,18,Female,1,2024/03/25_14:16:02,YZ,None,
4,./instructions/inst_prac_3/Slide40.png,right,0.6990691249957308,638.3844352710003,639.083504395996,,,,,,,,,,,,,,,,,,,,,,,,,,,,,,,,,1,,,,,,,,,,,,,,,,,,,,,,,,,,,,,,,,,,,,,,,,,,,,,,121,156136,18,Female,1,2024/03/25_14:16:02,YZ,None,
5,./instructions/inst_prac_3/Slide41.png,right,1.771042011998361,639.1125256170053,640.8835676290037,,,,,,,,,,,,,,,,,,,,,,,,,,,,,,,,,1,,,,,,,,,,,,,,,,,,,,,,,,,,,,,,,,,,,,,,,,,,,,,,121,156136,18,Female,1,2024/03/25_14:16:02,YZ,None,
6,./instructions/inst_prac_3/Slide42.png,right,0.8268801170052029,640.9126956419786,641.7395757589838,,,,,,,,,,,,,,,,,,,,,,,,,,,,,,,,,1,,,,,,,,,,,,,,,,,,,,,,,,,,,,,,,,,,,,,,,,,,,,,,121,156136,18,Female,1,2024/03/25_14:16:02,YZ,None,
7,./instructions/inst_prac_3/Slide43.png,right,3.6827185199945234,641.7687929139938,645.4515114339883,,,,,,,,,,,,,,,,,,,,,,,,,,,,,,,,,1,,,,,,,,,,,,,,,,,,,,,,,,,,,,,,,,,,,,,,,,,,,,,,121,156136,18,Female,1,2024/03/25_14:16:02,YZ,None,
8,./instructions/inst_prac_3/Slide44.png,right,7.7227293539908715,645.4808948040009,653.2036241579917,,,,,,,,,,,,,,,,,,,,,,,,,,,,,,,,,1,,,,,,,,,,,,,,,,,,,,,,,,,,,,,,,,,,,,,,,,,,,,,,121,156136,18,Female,1,2024/03/25_14:16:02,YZ,None,
,,,,,,practice,0,19,3,788,1,C,0,right,1.1855046529963147,1,0,,,,,,,,,,,,,,,,,,,,,1,,,,,,,,,,,,,,,,,,,,,,,,,,,,,,,,,,,,,,,,,,,,,,121,156136,18,Female,1,2024/03/25_14:16:02,YZ,None,
,,,,,,practice,0,19,3,788,2,F,0,right,0.4041080010065343,1,0,,,,,,,,,,,,,,,,,,,,,1,,,,,,,,,,,,,,,,,,,,,,,,,,,,,,,,,,,,,,,,,,,,,,121,156136,18,Female,1,2024/03/25_14:16:02,YZ,None,
,,,,,,practice,0,19,3,788,3,Q,0,right,0.5894192699925043,1,0,,,,,,,,,,,,,,,,,,,,,1,,,,,,,,,,,,,,,,,,,,,,,,,,,,,,,,,,,,,,,,,,,,,,121,156136,18,Female,1,2024/03/25_14:16:02,YZ,None,
,,,,,,practice,0,19,3,788,4,C,1,left,0.4943799669854343,1,0,,,,,,,,,,,,,,,,,,,,,1,,,,,,,,,,,,,,,,,,,,,,,,,,,,,,,,,,,,,,,,,,,,,,121,156136,18,Female,1,2024/03/25_14:16:02,YZ,None,
,,,,,,practice,0,19,3,788,5,Q,0,right,0.924098915013019,1,0,,,,,,,,,,,,,,,,,,,,,1,,,,,,,,,,,,,,,,,,,,,,,,,,,,,,,,,,,,,,,,,,,,,,121,156136,18,Female,1,2024/03/25_14:16:02,YZ,None,
,,,,,,practice,0,19,3,788,6,J,0,right,0.8149299339856952,1,0,,,,,,,,,,,,,,,,,,,,,1,,,,,,,,,,,,,,,,,,,,,,,,,,,,,,,,,,,,,,,,,,,,,,121,156136,18,Female,1,2024/03/25_14:16:02,YZ,None,
,,,,,,practice,0,19,3,788,7,X,0,right,0.6072432039945852,1,0,,,,,,,,,,,,,,,,,,,,,1,,,,,,,,,,,,,,,,,,,,,,,,,,,,,,,,,,,,,,,,,,,,,,121,156136,18,Female,1,2024/03/25_14:16:02,YZ,None,
,,,,,,practice,0,19,3,788,8,Q,1,left,2.8915649730188306,1,0,,,,,,,,,,,,,,,,,,,,,1,,,,,,,,,,,,,,,,,,,,,,,,,,,,,,,,,,,,,,,,,,,,,,121,156136,18,Female,1,2024/03/25_14:16:02,YZ,None,
,,,,,,practice,0,19,3,788,9,J,1,left,7.4890858930011746,1,0,,,,,,,,,,,,,,,,,,,,,1,,,,,,,,,,,,,,,,,,,,,,,,,,,,,,,,,,,,,,,,,,,,,,121,156136,18,Female,1,2024/03/25_14:16:02,YZ,None,
,,,,,,practice,0,19,3,788,10,N,0,right,0.7397980550013017,1,0,,,,,,,,,,,,,,,,,,,,,1,,,,,,,,,,,,,,,,,,,,,,,,,,,,,,,,,,,,,,,,,,,,,,121,156136,18,Female,1,2024/03/25_14:16:02,YZ,None,
,,,,,,practice,0,19,3,788,11,S,0,right,1.2872042100061662,1,0,,,,,,,,,,,,,,,,,,,,,1,,,,,,,,,,,,,,,,,,,,,,,,,,,,,,,,,,,,,,,,,,,,,,121,156136,18,Female,1,2024/03/25_14:16:02,YZ,None,
,,,,,,practice,0,19,3,788,12,J,1,left,0.8800823829951696,1,0,,,,,,,,,,,,,,,,,,,,,1,,,,,,,,,,,,,,,,,,,,,,,,,,,,,,,,,,,,,,,,,,,,,,121,156136,18,Female,1,2024/03/25_14:16:02,YZ,None,
,,,,,,practice,0,19,3,788,13,S,0,right,0.7086300539958756,1,0,,,,,,,,,,,,,,,,,,,,,1,,,,,,,,,,,,,,,,,,,,,,,,,,,,,,,,,,,,,,,,,,,,,,121,156136,18,Female,1,2024/03/25_14:16:02,YZ,None,
,,,,,,practice,0,19,3,788,,,,,,,,1.0,1.0,0.0,1.0,0.0,1.0,1.4627730393840466,4,0,0,0,0,9,13,4,9,0,,,,1,,,,,,,,,,,,,,,,,,,,,,,,,,,,,,,,,,,,,,,,,,,,,,121,156136,18,Female,1,2024/03/25_14:16:02,YZ,None,
-1,./instructions/inst_prac_3_next/Slide49.png,left,6.627588808012661,685.903957328992,692.5315461370046,,,,,,,,,,,,,,,,,,,,,,,,,,,,,,,,,1,,,,,,,,,,,,,,,,,,,,,,,,,,,,,,,,,,,,,,,,,,,,,,121,156136,18,Female,1,2024/03/25_14:16:02,YZ,None,
,,,,,,practice,0,30,3,83,1,C,0,right,1.2152887209958863,1,0,,,,,,,,,,,,,,,,,,,,,1,,,,,,,,,,,,,,,,,,,,,,,,,,,,,,,,,,,,,,,,,,,,,,121,156136,18,Female,1,2024/03/25_14:16:02,YZ,None,
,,,,,,practice,0,30,3,83,2,V,0,right,0.2682826130185276,1,0,,,,,,,,,,,,,,,,,,,,,1,,,,,,,,,,,,,,,,,,,,,,,,,,,,,,,,,,,,,,,,,,,,,,121,156136,18,Female,1,2024/03/25_14:16:02,YZ,None,
,,,,,,practice,0,30,3,83,3,V,0,right,0.7312309400003869,1,0,,,,,,,,,,,,,,,,,,,,,1,,,,,,,,,,,,,,,,,,,,,,,,,,,,,,,,,,,,,,,,,,,,,,121,156136,18,Female,1,2024/03/25_14:16:02,YZ,None,
,,,,,,practice,0,30,3,83,4,J,0,right,0.5401118599984329,1,0,,,,,,,,,,,,,,,,,,,,,1,,,,,,,,,,,,,,,,,,,,,,,,,,,,,,,,,,,,,,,,,,,,,,121,156136,18,Female,1,2024/03/25_14:16:02,YZ,None,
,,,,,,practice,0,30,3,83,5,F,0,right,0.518082937982399,1,0,,,,,,,,,,,,,,,,,,,,,1,,,,,,,,,,,,,,,,,,,,,,,,,,,,,,,,,,,,,,,,,,,,,,121,156136,18,Female,1,2024/03/25_14:16:02,YZ,None,
,,,,,,practice,0,30,3,83,6,V,1,left,0.6145452030177694,1,0,,,,,,,,,,,,,,,,,,,,,1,,,,,,,,,,,,,,,,,,,,,,,,,,,,,,,,,,,,,,,,,,,,,,121,156136,18,Female,1,2024/03/25_14:16:02,YZ,None,
,,,,,,practice,0,30,3,83,7,J,1,left,2.979703638004139,1,0,,,,,,,,,,,,,,,,,,,,,1,,,,,,,,,,,,,,,,,,,,,,,,,,,,,,,,,,,,,,,,,,,,,,121,156136,18,Female,1,2024/03/25_14:16:02,YZ,None,
,,,,,,practice,0,30,3,83,8,V,0,right,0.5075074020132888,1,0,,,,,,,,,,,,,,,,,,,,,1,,,,,,,,,,,,,,,,,,,,,,,,,,,,,,,,,,,,,,,,,,,,,,121,156136,18,Female,1,2024/03/25_14:16:02,YZ,None,
,,,,,,practice,0,30,3,83,9,Q,0,right,0.7642810179968365,1,0,,,,,,,,,,,,,,,,,,,,,1,,,,,,,,,,,,,,,,,,,,,,,,,,,,,,,,,,,,,,,,,,,,,,121,156136,18,Female,1,2024/03/25_14:16:02,YZ,None,
,,,,,,practice,0,30,3,83,10,Q,0,right,0.7421300419955514,1,0,,,,,,,,,,,,,,,,,,,,,1,,,,,,,,,,,,,,,,,,,,,,,,,,,,,,,,,,,,,,,,,,,,,,121,156136,18,Female,1,2024/03/25_14:16:02,YZ,None,
,,,,,,practice,0,30,3,83,11,C,0,right,0.6927030499791726,1,0,,,,,,,,,,,,,,,,,,,,,1,,,,,,,,,,,,,,,,,,,,,,,,,,,,,,,,,,,,,,,,,,,,,,121,156136,18,Female,1,2024/03/25_14:16:02,YZ,None,
,,,,,,practice,0,30,3,83,12,Q,1,left,0.5962191009894013,1,0,,,,,,,,,,,,,,,,,,,,,1,,,,,,,,,,,,,,,,,,,,,,,,,,,,,,,,,,,,,,,,,,,,,,121,156136,18,Female,1,2024/03/25_14:16:02,YZ,None,
,,,,,,practice,0,30,3,83,13,N,0,right,0.6065502180135809,1,0,,,,,,,,,,,,,,,,,,,,,1,,,,,,,,,,,,,,,,,,,,,,,,,,,,,,,,,,,,,,,,,,,,,,121,156136,18,Female,1,2024/03/25_14:16:02,YZ,None,
,,,,,,practice,0,30,3,83,14,C,1,left,0.9803015030047391,1,0,,,,,,,,,,,,,,,,,,,,,1,,,,,,,,,,,,,,,,,,,,,,,,,,,,,,,,,,,,,,,,,,,,,,121,156136,18,Female,1,2024/03/25_14:16:02,YZ,None,
,,,,,,practice,0,30,3,83,15,V,0,right,0.5807842540089041,1,0,,,,,,,,,,,,,,,,,,,,,1,,,,,,,,,,,,,,,,,,,,,,,,,,,,,,,,,,,,,,,,,,,,,,121,156136,18,Female,1,2024/03/25_14:16:02,YZ,None,
,,,,,,practice,0,30,3,83,16,N,1,left,0.6657957709976472,1,0,,,,,,,,,,,,,,,,,,,,,1,,,,,,,,,,,,,,,,,,,,,,,,,,,,,,,,,,,,,,,,,,,,,,121,156136,18,Female,1,2024/03/25_14:16:02,YZ,None,
,,,,,,practice,0,30,3,83,17,X,0,right,0.5007236720121,1,0,,,,,,,,,,,,,,,,,,,,,1,,,,,,,,,,,,,,,,,,,,,,,,,,,,,,,,,,,,,,,,,,,,,,121,156136,18,Female,1,2024/03/25_14:16:02,YZ,None,
,,,,,,practice,0,30,3,83,18,V,1,left,0.5973649249935988,1,0,,,,,,,,,,,,,,,,,,,,,1,,,,,,,,,,,,,,,,,,,,,,,,,,,,,,,,,,,,,,,,,,,,,,121,156136,18,Female,1,2024/03/25_14:16:02,YZ,None,
,,,,,,practice,0,30,3,83,19,S,0,right,0.5486203870095778,1,0,,,,,,,,,,,,,,,,,,,,,1,,,,,,,,,,,,,,,,,,,,,,,,,,,,,,,,,,,,,,,,,,,,,,121,156136,18,Female,1,2024/03/25_14:16:02,YZ,None,
,,,,,,practice,0,30,3,83,20,Q,0,right,1.2917193149914965,1,0,,,,,,,,,,,,,,,,,,,,,1,,,,,,,,,,,,,,,,,,,,,,,,,,,,,,,,,,,,,,,,,,,,,,121,156136,18,Female,1,2024/03/25_14:16:02,YZ,None,
,,,,,,practice,0,30,3,83,21,F,0,right,0.4148679999925662,1,0,,,,,,,,,,,,,,,,,,,,,1,,,,,,,,,,,,,,,,,,,,,,,,,,,,,,,,,,,,,,,,,,,,,,121,156136,18,Female,1,2024/03/25_14:16:02,YZ,None,
,,,,,,practice,0,30,3,83,22,S,1,right,0.3902712560084183,0,0,,,,,,,,,,,,,,,,,,,,,1,,,,,,,,,,,,,,,,,,,,,,,,,,,,,,,,,,,,,,,,,,,,,,121,156136,18,Female,1,2024/03/25_14:16:02,YZ,None,
,,,,,,practice,0,30,3,83,23,F,0,right,0.7662066369957756,1,0,,,,,,,,,,,,,,,,,,,,,1,,,,,,,,,,,,,,,,,,,,,,,,,,,,,,,,,,,,,,,,,,,,,,121,156136,18,Female,1,2024/03/25_14:16:02,YZ,None,
,,,,,,practice,0,30,3,83,24,N,0,right,0.8840322460164316,1,0,,,,,,,,,,,,,,,,,,,,,1,,,,,,,,,,,,,,,,,,,,,,,,,,,,,,,,,,,,,,,,,,,,,,121,156136,18,Female,1,2024/03/25_14:16:02,YZ,None,
,,,,,,practice,0,30,3,83,,,,,,,,0.9642857142857143,0.8571428571428571,0.0,1.0,0.0,1.0,0.7665551962515261,6,0,0,0,0,17,23,7,17,0,,,,1,,,,,,,,,,,,,,,,,,,,,,,,,,,,,,,,,,,,,,,,,,,,,,121,156136,18,Female,1,2024/03/25_14:16:02,YZ,None,
1,./instructions/inst_prac_3_next/Slide49.png,right,6.905109371000435,737.706539827981,744.6116491989815,,,,,,,,,,,,,,,,,,,,,,,,,,,,,,,,,1,,,,,,,,,,,,,,,,,,,,,,,,,,,,,,,,,,,,,,,,,,,,,,121,156136,18,Female,1,2024/03/25_14:16:02,YZ,None,
,,,,,,practice,0,34,3,83,1,N,0,right,0.5401777449878864,1,0,,,,,,,,,,,,,,,,,,,,,1,,,,,,,,,,,,,,,,,,,,,,,,,,,,,,,,,,,,,,,,,,,,,,121,156136,18,Female,1,2024/03/25_14:16:02,YZ,None,
,,,,,,practice,0,34,3,83,2,V,0,right,0.6660493400122505,1,0,,,,,,,,,,,,,,,,,,,,,1,,,,,,,,,,,,,,,,,,,,,,,,,,,,,,,,,,,,,,,,,,,,,,121,156136,18,Female,1,2024/03/25_14:16:02,YZ,None,
,,,,,,practice,0,34,3,83,3,V,0,right,0.5443021270039026,1,0,,,,,,,,,,,,,,,,,,,,,1,,,,,,,,,,,,,,,,,,,,,,,,,,,,,,,,,,,,,,,,,,,,,,121,156136,18,Female,1,2024/03/25_14:16:02,YZ,None,
,,,,,,practice,0,34,3,83,4,S,0,right,0.3920414310123306,1,0,,,,,,,,,,,,,,,,,,,,,1,,,,,,,,,,,,,,,,,,,,,,,,,,,,,,,,,,,,,,,,,,,,,,121,156136,18,Female,1,2024/03/25_14:16:02,YZ,None,
,,,,,,practice,0,34,3,83,5,V,1,left,0.9930413750116713,1,0,,,,,,,,,,,,,,,,,,,,,1,,,,,,,,,,,,,,,,,,,,,,,,,,,,,,,,,,,,,,,,,,,,,,121,156136,18,Female,1,2024/03/25_14:16:02,YZ,None,
,,,,,,practice,0,34,3,83,6,F,0,right,0.9807340950064827,1,0,,,,,,,,,,,,,,,,,,,,,1,,,,,,,,,,,,,,,,,,,,,,,,,,,,,,,,,,,,,,,,,,,,,,121,156136,18,Female,1,2024/03/25_14:16:02,YZ,None,
,,,,,,practice,0,34,3,83,7,C,0,right,0.5162502400053199,1,0,,,,,,,,,,,,,,,,,,,,,1,,,,,,,,,,,,,,,,,,,,,,,,,,,,,,,,,,,,,,,,,,,,,,121,156136,18,Female,1,2024/03/25_14:16:02,YZ,None,
,,,,,,practice,0,34,3,83,8,V,1,right,0.45754027500515804,0,0,,,,,,,,,,,,,,,,,,,,,1,,,,,,,,,,,,,,,,,,,,,,,,,,,,,,,,,,,,,,,,,,,,,,121,156136,18,Female,1,2024/03/25_14:16:02,YZ,None,
,,,,,,practice,0,34,3,83,9,F,1,right,1.1424346739950124,0,0,,,,,,,,,,,,,,,,,,,,,1,,,,,,,,,,,,,,,,,,,,,,,,,,,,,,,,,,,,,,,,,,,,,,121,156136,18,Female,1,2024/03/25_14:16:02,YZ,None,
,,,,,,practice,0,34,3,83,10,V,0,left,0.5605360440094955,0,0,,,,,,,,,,,,,,,,,,,,,1,,,,,,,,,,,,,,,,,,,,,,,,,,,,,,,,,,,,,,,,,,,,,,121,156136,18,Female,1,2024/03/25_14:16:02,YZ,None,
,,,,,,practice,0,34,3,83,11,V,1,left,0.9971540010010358,1,0,,,,,,,,,,,,,,,,,,,,,1,,,,,,,,,,,,,,,,,,,,,,,,,,,,,,,,,,,,,,,,,,,,,,121,156136,18,Female,1,2024/03/25_14:16:02,YZ,None,
,,,,,,practice,0,34,3,83,12,N,0,right,0.8365501739899628,1,0,,,,,,,,,,,,,,,,,,,,,1,,,,,,,,,,,,,,,,,,,,,,,,,,,,,,,,,,,,,,,,,,,,,,121,156136,18,Female,1,2024/03/25_14:16:02,YZ,None,
,,,,,,practice,0,34,3,83,13,F,0,left,0.6155299989914056,0,0,,,,,,,,,,,,,,,,,,,,,1,,,,,,,,,,,,,,,,,,,,,,,,,,,,,,,,,,,,,,,,,,,,,,121,156136,18,Female,1,2024/03/25_14:16:02,YZ,None,
,,,,,,practice,0,34,3,83,14,X,0,right,0.7006803669792134,1,0,,,,,,,,,,,,,,,,,,,,,1,,,,,,,,,,,,,,,,,,,,,,,,,,,,,,,,,,,,,,,,,,,,,,121,156136,18,Female,1,2024/03/25_14:16:02,YZ,None,
,,,,,,practice,0,34,3,83,15,S,0,right,0.5193715240166057,1,0,,,,,,,,,,,,,,,,,,,,,1,,,,,,,,,,,,,,,,,,,,,,,,,,,,,,,,,,,,,,,,,,,,,,121,156136,18,Female,1,2024/03/25_14:16:02,YZ,None,
,,,,,,practice,0,34,3,83,16,N,0,left,0.8072286210081074,0,0,,,,,,,,,,,,,,,,,,,,,1,,,,,,,,,,,,,,,,,,,,,,,,,,,,,,,,,,,,,,,,,,,,,,121,156136,18,Female,1,2024/03/25_14:16:02,YZ,None,
,,,,,,practice,0,34,3,83,17,V,0,right,1.0890409340208862,1,0,,,,,,,,,,,,,,,,,,,,,1,,,,,,,,,,,,,,,,,,,,,,,,,,,,,,,,,,,,,,,,,,,,,,121,156136,18,Female,1,2024/03/25_14:16:02,YZ,None,
,,,,,,practice,0,34,3,83,18,S,1,left,0.7120669800206088,1,0,,,,,,,,,,,,,,,,,,,,,1,,,,,,,,,,,,,,,,,,,,,,,,,,,,,,,,,,,,,,,,,,,,,,121,156136,18,Female,1,2024/03/25_14:16:02,YZ,None,
,,,,,,practice,0,34,3,83,19,N,1,left,1.5601935430022422,1,0,,,,,,,,,,,,,,,,,,,,,1,,,,,,,,,,,,,,,,,,,,,,,,,,,,,,,,,,,,,,,,,,,,,,121,156136,18,Female,1,2024/03/25_14:16:02,YZ,None,
,,,,,,practice,0,34,3,83,20,N,0,right,0.6210894079995342,1,0,,,,,,,,,,,,,,,,,,,,,1,,,,,,,,,,,,,,,,,,,,,,,,,,,,,,,,,,,,,,,,,,,,,,121,156136,18,Female,1,2024/03/25_14:16:02,YZ,None,
,,,,,,practice,0,34,3,83,21,F,0,left,1.4162009080173448,0,0,,,,,,,,,,,,,,,,,,,,,1,,,,,,,,,,,,,,,,,,,,,,,,,,,,,,,,,,,,,,,,,,,,,,121,156136,18,Female,1,2024/03/25_14:16:02,YZ,None,
,,,,,,practice,0,34,3,83,22,F,0,right,0.548671374010155,1,0,,,,,,,,,,,,,,,,,,,,,1,,,,,,,,,,,,,,,,,,,,,,,,,,,,,,,,,,,,,,,,,,,,,,121,156136,18,Female,1,2024/03/25_14:16:02,YZ,None,
,,,,,,practice,0,34,3,83,23,X,0,right,1.7694564879930113,1,0,,,,,,,,,,,,,,,,,,,,,1,,,,,,,,,,,,,,,,,,,,,,,,,,,,,,,,,,,,,,,,,,,,,,121,156136,18,Female,1,2024/03/25_14:16:02,YZ,None,
,,,,,,practice,0,34,3,83,24,S,0,left,0.7878960079979151,0,0,,,,,,,,,,,,,,,,,,,,,1,,,,,,,,,,,,,,,,,,,,,,,,,,,,,,,,,,,,,,,,,,,,,,121,156136,18,Female,1,2024/03/25_14:16:02,YZ,None,
,,,,,,practice,0,34,3,83,,,,,,,,0.7546296296296297,0.6666666666666666,0.2777777777777778,0.7222222222222222,0.0,0.7222222222222222,0.8239265697957308,4,5,0,0,0,13,17,6,18,0,,,,1,,,,,,,,,,,,,,,,,,,,,,,,,,,,,,,,,,,,,,,,,,,,,,121,156136,18,Female,1,2024/03/25_14:16:02,YZ,None,
,,,,,,practice,0,32,3,83,1,F,0,right,0.81196914598695,1,0,,,,,,,,,,,,,,,,,,,,,1,,,,,,,,,,,,,,,,,,,,,,,,,,,,,,,,,,,,,,,,,,,,,,121,156136,18,Female,1,2024/03/25_14:16:02,YZ,None,
,,,,,,practice,0,32,3,83,2,V,0,right,0.8045636680035386,1,0,,,,,,,,,,,,,,,,,,,,,1,,,,,,,,,,,,,,,,,,,,,,,,,,,,,,,,,,,,,,,,,,,,,,121,156136,18,Female,1,2024/03/25_14:16:02,YZ,None,
,,,,,,practice,0,32,3,83,3,C,0,right,0.8077010079869069,1,0,,,,,,,,,,,,,,,,,,,,,1,,,,,,,,,,,,,,,,,,,,,,,,,,,,,,,,,,,,,,,,,,,,,,121,156136,18,Female,1,2024/03/25_14:16:02,YZ,None,
,,,,,,practice,0,32,3,83,4,F,1,left,1.0000582489883527,1,0,,,,,,,,,,,,,,,,,,,,,1,,,,,,,,,,,,,,,,,,,,,,,,,,,,,,,,,,,,,,,,,,,,,,121,156136,18,Female,1,2024/03/25_14:16:02,YZ,None,
,,,,,,practice,0,32,3,83,5,J,0,right,0.8374885029916186,1,0,,,,,,,,,,,,,,,,,,,,,1,,,,,,,,,,,,,,,,,,,,,,,,,,,,,,,,,,,,,,,,,,,,,,121,156136,18,Female,1,2024/03/25_14:16:02,YZ,None,
,,,,,,practice,0,32,3,83,6,N,0,right,0.9847346369933803,1,0,,,,,,,,,,,,,,,,,,,,,1,,,,,,,,,,,,,,,,,,,,,,,,,,,,,,,,,,,,,,,,,,,,,,121,156136,18,Female,1,2024/03/25_14:16:02,YZ,None,
,,,,,,practice,0,32,3,83,7,F,1,right,3.1514214240014553,0,0,,,,,,,,,,,,,,,,,,,,,1,,,,,,,,,,,,,,,,,,,,,,,,,,,,,,,,,,,,,,,,,,,,,,121,156136,18,Female,1,2024/03/25_14:16:02,YZ,None,
,,,,,,practice,0,32,3,83,8,J,1,right,0.6922004689986352,0,0,,,,,,,,,,,,,,,,,,,,,1,,,,,,,,,,,,,,,,,,,,,,,,,,,,,,,,,,,,,,,,,,,,,,121,156136,18,Female,1,2024/03/25_14:16:02,YZ,None,
,,,,,,practice,0,32,3,83,9,V,0,right,0.5330948799964972,1,0,,,,,,,,,,,,,,,,,,,,,1,,,,,,,,,,,,,,,,,,,,,,,,,,,,,,,,,,,,,,,,,,,,,,121,156136,18,Female,1,2024/03/25_14:16:02,YZ,None,
,,,,,,practice,0,32,3,83,10,Q,0,right,0.488821712002391,1,0,,,,,,,,,,,,,,,,,,,,,1,,,,,,,,,,,,,,,,,,,,,,,,,,,,,,,,,,,,,,,,,,,,,,121,156136,18,Female,1,2024/03/25_14:16:02,YZ,None,
,,,,,,practice,0,32,3,83,11,J,1,left,0.7777912140008993,1,0,,,,,,,,,,,,,,,,,,,,,1,,,,,,,,,,,,,,,,,,,,,,,,,,,,,,,,,,,,,,,,,,,,,,121,156136,18,Female,1,2024/03/25_14:16:02,YZ,None,
,,,,,,practice,0,32,3,83,12,J,0,left,1.1285833450092468,0,0,,,,,,,,,,,,,,,,,,,,,1,,,,,,,,,,,,,,,,,,,,,,,,,,,,,,,,,,,,,,,,,,,,,,121,156136,18,Female,1,2024/03/25_14:16:02,YZ,None,
,,,,,,practice,0,32,3,83,13,F,0,right,2.19642574901809,1,0,,,,,,,,,,,,,,,,,,,,,1,,,,,,,,,,,,,,,,,,,,,,,,,,,,,,,,,,,,,,,,,,,,,,121,156136,18,Female,1,2024/03/25_14:16:02,YZ,None,
,,,,,,practice,0,32,3,83,14,S,0,right,2.4086832490283996,1,0,,,,,,,,,,,,,,,,,,,,,1,,,,,,,,,,,,,,,,,,,,,,,,,,,,,,,,,,,,,,,,,,,,,,121,156136,18,Female,1,2024/03/25_14:16:02,YZ,None,
,,,,,,practice,0,32,3,83,15,J,1,left,1.7049169699894264,1,0,,,,,,,,,,,,,,,,,,,,,1,,,,,,,,,,,,,,,,,,,,,,,,,,,,,,,,,,,,,,,,,,,,,,121,156136,18,Female,1,2024/03/25_14:16:02,YZ,None,
,,,,,,practice,0,32,3,83,16,C,0,right,2.405654244008474,1,0,,,,,,,,,,,,,,,,,,,,,1,,,,,,,,,,,,,,,,,,,,,,,,,,,,,,,,,,,,,,,,,,,,,,121,156136,18,Female,1,2024/03/25_14:16:02,YZ,None,
,,,,,,practice,0,32,3,83,17,F,0,right,0.0,1,0,,,,,,,,,,,,,,,,,,,,,1,,,,,,,,,,,,,,,,,,,,,,,,,,,,,,,,,,,,,,,,,,,,,,121,156136,18,Female,1,2024/03/25_14:16:02,YZ,None,
,,,,,,practice,0,32,3,83,18,J,1,right,1.186665486980928,0,0,,,,,,,,,,,,,,,,,,,,,1,,,,,,,,,,,,,,,,,,,,,,,,,,,,,,,,,,,,,,,,,,,,,,121,156136,18,Female,1,2024/03/25_14:16:02,YZ,None,
,,,,,,practice,0,32,3,83,19,C,1,left,0.6843893670011312,1,0,,,,,,,,,,,,,,,,,,,,,1,,,,,,,,,,,,,,,,,,,,,,,,,,,,,,,,,,,,,,,,,,,,,,121,156136,18,Female,1,2024/03/25_14:16:02,YZ,None,
,,,,,,practice,0,32,3,83,20,V,0,right,0.625508068013005,1,0,,,,,,,,,,,,,,,,,,,,,1,,,,,,,,,,,,,,,,,,,,,,,,,,,,,,,,,,,,,,,,,,,,,,121,156136,18,Female,1,2024/03/25_14:16:02,YZ,None,
,,,,,,practice,0,32,3,83,21,Q,0,right,0.43618261598749086,1,0,,,,,,,,,,,,,,,,,,,,,1,,,,,,,,,,,,,,,,,,,,,,,,,,,,,,,,,,,,,,,,,,,,,,121,156136,18,Female,1,2024/03/25_14:16:02,YZ,None,
,,,,,,practice,0,32,3,83,22,V,0,left,0.7113170649972744,0,0,,,,,,,,,,,,,,,,,,,,,1,,,,,,,,,,,,,,,,,,,,,,,,,,,,,,,,,,,,,,,,,,,,,,121,156136,18,Female,1,2024/03/25_14:16:02,YZ,None,
,,,,,,practice,0,32,3,83,23,F,0,right,1.4920149320096243,1,0,,,,,,,,,,,,,,,,,,,,,1,,,,,,,,,,,,,,,,,,,,,,,,,,,,,,,,,,,,,,,,,,,,,,121,156136,18,Female,1,2024/03/25_14:16:02,YZ,None,
,,,,,,practice,0,32,3,83,24,Q,1,left,0.9452542929793708,1,0,,,,,,,,,,,,,,,,,,,,,1,,,,,,,,,,,,,,,,,,,,,,,,,,,,,,,,,,,,,,,,,,,,,,121,156136,18,Female,1,2024/03/25_14:16:02,YZ,None,
,,,,,,practice,0,32,3,83,,,,,,,,0.828125,0.625,0.125,0.875,0.0,0.875,1.1173100122905453,5,2,0,0,0,14,19,8,16,0,,,,1,,,,,,,,,,,,,,,,,,,,,,,,,,,,,,,,,,,,,,,,,,,,,,121,156136,18,Female,1,2024/03/25_14:16:02,YZ,None,
1,./instructions/inst_prac_main/Slide51.png,right,2.629734981979709,820.5018919440045,823.1316269259842,,,,,,,,,,,,,,,,,,,,,,,,,,,,,,,,,1,,,,,,,,,,,,,,,,,,,,,,,,,,,,,,,,,,,,,,,,,,,,,,121,156136,18,Female,1,2024/03/25_14:16:02,YZ,None,
2,./instructions/inst_prac_main/Slide52.png,right,9.498809982003877,823.1608037959959,832.6596137779998,,,,,,,,,,,,,,,,,,,,,,,,,,,,,,,,,1,,,,,,,,,,,,,,,,,,,,,,,,,,,,,,,,,,,,,,,,,,,,,,121,156136,18,Female,1,2024/03/25_14:16:02,YZ,None,
3,./instructions/inst_prac_main/Slide53.png,right,3.0264604070107453,832.6890690769942,835.715529484005,,,,,,,,,,,,,,,,,,,,,,,,,,,,,,,,,1,,,,,,,,,,,,,,,,,,,,,,,,,,,,,,,,,,,,,,,,,,,,,,121,156136,18,Female,1,2024/03/25_14:16:02,YZ,None,
4,./instructions/inst_prac_main/Slide54.png,right,11.579025404003914,835.7447452589986,847.3237706630025,,,,,,,,,,,,,,,,,,,,,,,,,,,,,,,,,1,,,,,,,,,,,,,,,,,,,,,,,,,,,,,,,,,,,,,,,,,,,,,,121,156136,18,Female,1,2024/03/25_14:16:02,YZ,None,
,,,,,,practice_main,0,1,1,83,1,X,0,right,0.3903573570132721,1,0,,,,,,,,,,,,,,,,,,,,,1,,,,,,,,,,,,,,,,,,,,,,,,,,,,,,,,,,,,,,,,,,,,,,121,156136,18,Female,1,2024/03/25_14:16:02,YZ,None,
,,,,,,practice_main,0,1,1,83,2,X,1,left,0.6087665579980239,1,0,,,,,,,,,,,,,,,,,,,,,1,,,,,,,,,,,,,,,,,,,,,,,,,,,,,,,,,,,,,,,,,,,,,,121,156136,18,Female,1,2024/03/25_14:16:02,YZ,None,
,,,,,,practice_main,0,1,1,83,3,V,0,right,0.37162986598559655,1,0,,,,,,,,,,,,,,,,,,,,,1,,,,,,,,,,,,,,,,,,,,,,,,,,,,,,,,,,,,,,,,,,,,,,121,156136,18,Female,1,2024/03/25_14:16:02,YZ,None,
,,,,,,practice_main,0,1,1,83,4,F,0,right,0.37187026400351897,1,0,,,,,,,,,,,,,,,,,,,,,1,,,,,,,,,,,,,,,,,,,,,,,,,,,,,,,,,,,,,,,,,,,,,,121,156136,18,Female,1,2024/03/25_14:16:02,YZ,None,
,,,,,,practice_main,0,1,1,83,5,C,0,right,0.3201934620155953,1,0,,,,,,,,,,,,,,,,,,,,,1,,,,,,,,,,,,,,,,,,,,,,,,,,,,,,,,,,,,,,,,,,,,,,121,156136,18,Female,1,2024/03/25_14:16:02,YZ,None,
,,,,,,practice_main,0,1,1,83,6,Q,0,right,0.3675345460069366,1,0,,,,,,,,,,,,,,,,,,,,,1,,,,,,,,,,,,,,,,,,,,,,,,,,,,,,,,,,,,,,,,,,,,,,121,156136,18,Female,1,2024/03/25_14:16:02,YZ,None,
,,,,,,practice_main,0,1,1,83,7,Q,1,left,0.4496265729831066,1,0,,,,,,,,,,,,,,,,,,,,,1,,,,,,,,,,,,,,,,,,,,,,,,,,,,,,,,,,,,,,,,,,,,,,121,156136,18,Female,1,2024/03/25_14:16:02,YZ,None,
,,,,,,practice_main,0,1,1,83,8,N,0,right,0.2571788170025684,1,0,,,,,,,,,,,,,,,,,,,,,1,,,,,,,,,,,,,,,,,,,,,,,,,,,,,,,,,,,,,,,,,,,,,,121,156136,18,Female,1,2024/03/25_14:16:02,YZ,None,
,,,,,,practice_main,0,1,1,83,9,S,0,right,0.32927670900244266,1,0,,,,,,,,,,,,,,,,,,,,,1,,,,,,,,,,,,,,,,,,,,,,,,,,,,,,,,,,,,,,,,,,,,,,121,156136,18,Female,1,2024/03/25_14:16:02,YZ,None,
,,,,,,practice_main,0,1,1,83,10,S,1,right,0.3489243990043178,0,0,,,,,,,,,,,,,,,,,,,,,1,,,,,,,,,,,,,,,,,,,,,,,,,,,,,,,,,,,,,,,,,,,,,,121,156136,18,Female,1,2024/03/25_14:16:02,YZ,None,
,,,,,,practice_main,0,1,1,83,11,J,0,right,0.33548780498676933,1,0,,,,,,,,,,,,,,,,,,,,,1,,,,,,,,,,,,,,,,,,,,,,,,,,,,,,,,,,,,,,,,,,,,,,121,156136,18,Female,1,2024/03/25_14:16:02,YZ,None,
,,,,,,practice_main,0,1,1,83,12,F,0,right,0.3470076169760432,1,0,,,,,,,,,,,,,,,,,,,,,1,,,,,,,,,,,,,,,,,,,,,,,,,,,,,,,,,,,,,,,,,,,,,,121,156136,18,Female,1,2024/03/25_14:16:02,YZ,None,
,,,,,,practice_main,0,1,1,83,13,F,1,left,0.46410272698267363,1,0,,,,,,,,,,,,,,,,,,,,,1,,,,,,,,,,,,,,,,,,,,,,,,,,,,,,,,,,,,,,,,,,,,,,121,156136,18,Female,1,2024/03/25_14:16:02,YZ,None,
,,,,,,practice_main,0,1,1,83,14,N,0,right,0.3562759239866864,1,0,,,,,,,,,,,,,,,,,,,,,1,,,,,,,,,,,,,,,,,,,,,,,,,,,,,,,,,,,,,,,,,,,,,,121,156136,18,Female,1,2024/03/25_14:16:02,YZ,None,
,,,,,,practice_main,0,1,1,83,15,S,0,right,0.3128182399959769,1,0,,,,,,,,,,,,,,,,,,,,,1,,,,,,,,,,,,,,,,,,,,,,,,,,,,,,,,,,,,,,,,,,,,,,121,156136,18,Female,1,2024/03/25_14:16:02,YZ,None,
,,,,,,practice_main,0,1,1,83,16,Q,0,right,0.3320687289815396,1,0,,,,,,,,,,,,,,,,,,,,,1,,,,,,,,,,,,,,,,,,,,,,,,,,,,,,,,,,,,,,,,,,,,,,121,156136,18,Female,1,2024/03/25_14:16:02,YZ,None,
