Instruction,Stimulus,Key,RT,START,END,Phase,Block,TrialN,NbackLevel,ISI,LetterN,Letter,Letter_isSame,Letter_Resp,Letter_RT,Letter_Accuracy,Letter_Timeout,Trial_A_measure,Trial_HR,Trial_FAR,Trial_CDR,Trial_MSR,Trial_ACC,Trial_RT,Trial_HitsCount,Trial_FAsCount,Trial_SameNoRespCount,Trial_DiffNoRespCount,Trial_NoRespCount,Trial_CDsCount,Trial_CorrectRespCount,Trial_SameLetterCount,Trial_DiffLetterCount,Trial_InvalidLetterCount,TrialCountCali,CaliEnd_A_measure,ISI_calibrated,Run,TrialIndex,TrialNumber_total,TrialNumber_valid,CueLearning,TrialDemandLearning,CueMapping,OnlineRating,OnlineRatingRT,OnlineRatingTimeOut,CueSTART,RatingSTART,OfflineRatingTimePoint,OfflineRatingQuesIndex,CueFigure,TrialDemand,OfflineRating,OfflineRatingRT,CueStart,OfflineRatingStart,PhaseType,CueLeft,CueDemandLeft,CueRight,CueDemandRight,Choice,ChoiceDemand,TaskDemand,ChoiceRT,ChoiceTimeOut,ChoiceSTART,CueCheck,CueDemandCheck,CorrectAnswer,Answer,AnswerDemand,AnswerRT,AnswerACC,AnswerTimeOut,CheckSTART,DemandRatingQuesIndex,QuesTLX,DemandLevel,DemandRating,DemandRatingRT,QuesStart,PID,SONA,Age,Gender,Run,TIME,EXPERIMENTER,frameRate,
1,./instructions/inst_begin/Slide2.png,right,39.44624290600768,0.11622058798093349,39.562463493988616,,,,,,,,,,,,,,,,,,,,,,,,,,,,,,,,,1,,,,,,,,,,,,,,,,,,,,,,,,,,,,,,,,,,,,,,,,,,,,,,96,151702,20,Female,1,2024/03/15_16:13:51,YZ,None,
2,./instructions/inst_begin/Slide3.png,right,10.028879521996714,39.58960116398521,49.61848068598192,,,,,,,,,,,,,,,,,,,,,,,,,,,,,,,,,1,,,,,,,,,,,,,,,,,,,,,,,,,,,,,,,,,,,,,,,,,,,,,,96,151702,20,Female,1,2024/03/15_16:13:51,YZ,None,
3,./instructions/inst_begin/Slide4.png,right,8.35671917698346,49.645749524992425,58.002468701975886,,,,,,,,,,,,,,,,,,,,,,,,,,,,,,,,,1,,,,,,,,,,,,,,,,,,,,,,,,,,,,,,,,,,,,,,,,,,,,,,96,151702,20,Female,1,2024/03/15_16:13:51,YZ,None,
1,./instructions/inst_prac_2/Slide6.png,right,15.624161940999329,58.04247305897297,73.6666349999723,,,,,,,,,,,,,,,,,,,,,,,,,,,,,,,,,1,,,,,,,,,,,,,,,,,,,,,,,,,,,,,,,,,,,,,,,,,,,,,,96,151702,20,Female,1,2024/03/15_16:13:51,YZ,None,
2,./instructions/inst_prac_2/Slide7.png,right,12.179238069977146,73.69526559099904,85.87450366097619,,,,,,,,,,,,,,,,,,,,,,,,,,,,,,,,,1,,,,,,,,,,,,,,,,,,,,,,,,,,,,,,,,,,,,,,,,,,,,,,96,151702,20,Female,1,2024/03/15_16:13:51,YZ,None,
3,./instructions/inst_prac_2/Slide8.png,right,11.0749425580143,85.9033659369743,96.9783084949886,,,,,,,,,,,,,,,,,,,,,,,,,,,,,,,,,1,,,,,,,,,,,,,,,,,,,,,,,,,,,,,,,,,,,,,,,,,,,,,,96,151702,20,Female,1,2024/03/15_16:13:51,YZ,None,
4,./instructions/inst_prac_2/Slide9.png,right,3.131142952013761,97.00727854698198,100.13842149899574,,,,,,,,,,,,,,,,,,,,,,,,,,,,,,,,,1,,,,,,,,,,,,,,,,,,,,,,,,,,,,,,,,,,,,,,,,,,,,,,96,151702,20,Female,1,2024/03/15_16:13:51,YZ,None,
5,./instructions/inst_prac_2/Slide10.png,right,1.3729592679883353,100.16551696299575,101.53847623098409,,,,,,,,,,,,,,,,,,,,,,,,,,,,,,,,,1,,,,,,,,,,,,,,,,,,,,,,,,,,,,,,,,,,,,,,,,,,,,,,96,151702,20,Female,1,2024/03/15_16:13:51,YZ,None,
6,./instructions/inst_prac_2/Slide11.png,right,1.5002154640096705,101.56618882998009,103.06640429398976,,,,,,,,,,,,,,,,,,,,,,,,,,,,,,,,,1,,,,,,,,,,,,,,,,,,,,,,,,,,,,,,,,,,,,,,,,,,,,,,96,151702,20,Female,1,2024/03/15_16:13:51,YZ,None,
7,./instructions/inst_prac_2/Slide12.png,right,0.9957144540094305,103.09476168098627,104.0904761349957,,,,,,,,,,,,,,,,,,,,,,,,,,,,,,,,,1,,,,,,,,,,,,,,,,,,,,,,,,,,,,,,,,,,,,,,,,,,,,,,96,151702,20,Female,1,2024/03/15_16:13:51,YZ,None,
8,./instructions/inst_prac_2/Slide13.png,right,1.0122615519794635,104.11823063599877,105.13049218797823,,,,,,,,,,,,,,,,,,,,,,,,,,,,,,,,,1,,,,,,,,,,,,,,,,,,,,,,,,,,,,,,,,,,,,,,,,,,,,,,96,151702,20,Female,1,2024/03/15_16:13:51,YZ,None,
9,./instructions/inst_prac_2/Slide14.png,right,7.91527180900448,105.15912553897942,113.0743973479839,,,,,,,,,,,,,,,,,,,,,,,,,,,,,,,,,1,,,,,,,,,,,,,,,,,,,,,,,,,,,,,,,,,,,,,,,,,,,,,,96,151702,20,Female,1,2024/03/15_16:13:51,YZ,None,
10,./instructions/inst_prac_2/Slide15.png,right,22.170911187975435,113.103341465001,135.27425265297643,,,,,,,,,,,,,,,,,,,,,,,,,,,,,,,,,1,,,,,,,,,,,,,,,,,,,,,,,,,,,,,,,,,,,,,,,,,,,,,,96,151702,20,Female,1,2024/03/15_16:13:51,YZ,None,
,,,,,,practice,0,26,2,2583,1,X,0,right,2.5806636680208612,1,0,,,,,,,,,,,,,,,,,,,,,1,,,,,,,,,,,,,,,,,,,,,,,,,,,,,,,,,,,,,,,,,,,,,,96,151702,20,Female,1,2024/03/15_16:13:51,YZ,None,
,,,,,,practice,0,26,2,2583,2,V,0,right,0.7942330780206248,1,0,,,,,,,,,,,,,,,,,,,,,1,,,,,,,,,,,,,,,,,,,,,,,,,,,,,,,,,,,,,,,,,,,,,,96,151702,20,Female,1,2024/03/15_16:13:51,YZ,None,
,,,,,,practice,0,26,2,2583,3,X,1,left,0.9104779810004402,1,0,,,,,,,,,,,,,,,,,,,,,1,,,,,,,,,,,,,,,,,,,,,,,,,,,,,,,,,,,,,,,,,,,,,,96,151702,20,Female,1,2024/03/15_16:13:51,YZ,None,
,,,,,,practice,0,26,2,2583,4,C,0,right,0.8287462580192368,1,0,,,,,,,,,,,,,,,,,,,,,1,,,,,,,,,,,,,,,,,,,,,,,,,,,,,,,,,,,,,,,,,,,,,,96,151702,20,Female,1,2024/03/15_16:13:51,YZ,None,
,,,,,,practice,0,26,2,2583,5,X,1,left,0.8129288339987397,1,0,,,,,,,,,,,,,,,,,,,,,1,,,,,,,,,,,,,,,,,,,,,,,,,,,,,,,,,,,,,,,,,,,,,,96,151702,20,Female,1,2024/03/15_16:13:51,YZ,None,
,,,,,,practice,0,26,2,2583,6,V,0,right,1.2131090349867009,1,0,,,,,,,,,,,,,,,,,,,,,1,,,,,,,,,,,,,,,,,,,,,,,,,,,,,,,,,,,,,,,,,,,,,,96,151702,20,Female,1,2024/03/15_16:13:51,YZ,None,
,,,,,,practice,0,26,2,2583,,,,,,,,1.0,1.0,0.0,1.0,0.0,1.0,1.1900264756744339,2,0,0,0,0,4,6,2,4,0,,,,1,,,,,,,,,,,,,,,,,,,,,,,,,,,,,,,,,,,,,,,,,,,,,,96,151702,20,Female,1,2024/03/15_16:13:51,YZ,None,
1,./instructions/inst_to_cali/Slide20.png,right,9.619149875012226,148.76737169898115,158.38652157399338,,,,,,,,,,,,,,,,,,,,,,,,,,,,,,,,,1,,,,,,,,,,,,,,,,,,,,,,,,,,,,,,,,,,,,,,,,,,,,,,96,151702,20,Female,1,2024/03/15_16:13:51,YZ,None,
1,./instructions/inst_cali/Slide22.png,right,11.674446030985564,158.42393327198806,170.09837930297363,,,,,,,,,,,,,,,,,,,,,,,,,,,,,,,,,1,,,,,,,,,,,,,,,,,,,,,,,,,,,,,,,,,,,,,,,,,,,,,,96,151702,20,Female,1,2024/03/15_16:13:51,YZ,None,
,,,,,,calibration,0,16,2,583,1,S,0,right,0.48707784397993237,1,0,,,,,,,,,,,,,,,,,,,,,1,,,,,,,,,,,,,,,,,,,,,,,,,,,,,,,,,,,,,,,,,,,,,,96,151702,20,Female,1,2024/03/15_16:13:51,YZ,None,
,,,,,,calibration,0,16,2,583,2,N,0,right,0.8201046920148656,1,0,,,,,,,,,,,,,,,,,,,,,1,,,,,,,,,,,,,,,,,,,,,,,,,,,,,,,,,,,,,,,,,,,,,,96,151702,20,Female,1,2024/03/15_16:13:51,YZ,None,
,,,,,,calibration,0,16,2,583,3,C,0,right,0.708950016007293,1,0,,,,,,,,,,,,,,,,,,,,,1,,,,,,,,,,,,,,,,,,,,,,,,,,,,,,,,,,,,,,,,,,,,,,96,151702,20,Female,1,2024/03/15_16:13:51,YZ,None,
,,,,,,calibration,0,16,2,583,4,N,1,left,0.7890498880005907,1,0,,,,,,,,,,,,,,,,,,,,,1,,,,,,,,,,,,,,,,,,,,,,,,,,,,,,,,,,,,,,,,,,,,,,96,151702,20,Female,1,2024/03/15_16:13:51,YZ,None,
,,,,,,calibration,0,16,2,583,5,V,0,right,0.6915121880010702,1,0,,,,,,,,,,,,,,,,,,,,,1,,,,,,,,,,,,,,,,,,,,,,,,,,,,,,,,,,,,,,,,,,,,,,96,151702,20,Female,1,2024/03/15_16:13:51,YZ,None,
,,,,,,calibration,0,16,2,583,6,X,0,right,1.1798577989975456,1,0,,,,,,,,,,,,,,,,,,,,,1,,,,,,,,,,,,,,,,,,,,,,,,,,,,,,,,,,,,,,,,,,,,,,96,151702,20,Female,1,2024/03/15_16:13:51,YZ,None,
,,,,,,calibration,0,16,2,583,7,C,0,left,1.2922732210136019,0,0,,,,,,,,,,,,,,,,,,,,,1,,,,,,,,,,,,,,,,,,,,,,,,,,,,,,,,,,,,,,,,,,,,,,96,151702,20,Female,1,2024/03/15_16:13:51,YZ,None,
,,,,,,calibration,0,16,2,583,8,S,0,left,1.2364781400247011,0,0,,,,,,,,,,,,,,,,,,,,,1,,,,,,,,,,,,,,,,,,,,,,,,,,,,,,,,,,,,,,,,,,,,,,96,151702,20,Female,1,2024/03/15_16:13:51,YZ,None,
,,,,,,calibration,0,16,2,583,9,Q,0,right,1.0041909579886124,1,0,,,,,,,,,,,,,,,,,,,,,1,,,,,,,,,,,,,,,,,,,,,,,,,,,,,,,,,,,,,,,,,,,,,,96,151702,20,Female,1,2024/03/15_16:13:51,YZ,None,
,,,,,,calibration,0,16,2,583,10,S,1,left,1.2687156640167814,1,0,,,,,,,,,,,,,,,,,,,,,1,,,,,,,,,,,,,,,,,,,,,,,,,,,,,,,,,,,,,,,,,,,,,,96,151702,20,Female,1,2024/03/15_16:13:51,YZ,None,
,,,,,,calibration,0,16,2,583,11,F,0,right,1.1921743490092922,1,0,,,,,,,,,,,,,,,,,,,,,1,,,,,,,,,,,,,,,,,,,,,,,,,,,,,,,,,,,,,,,,,,,,,,96,151702,20,Female,1,2024/03/15_16:13:51,YZ,None,
,,,,,,calibration,0,16,2,583,12,S,1,left,0.85963347699726,1,0,,,,,,,,,,,,,,,,,,,,,1,,,,,,,,,,,,,,,,,,,,,,,,,,,,,,,,,,,,,,,,,,,,,,96,151702,20,Female,1,2024/03/15_16:13:51,YZ,None,
,,,,,,calibration,0,16,2,583,13,X,0,right,1.1422567649860866,1,0,,,,,,,,,,,,,,,,,,,,,1,,,,,,,,,,,,,,,,,,,,,,,,,,,,,,,,,,,,,,,,,,,,,,96,151702,20,Female,1,2024/03/15_16:13:51,YZ,None,
,,,,,,calibration,0,16,2,583,14,V,0,right,0.8913481179915834,1,0,,,,,,,,,,,,,,,,,,,,,1,,,,,,,,,,,,,,,,,,,,,,,,,,,,,,,,,,,,,,,,,,,,,,96,151702,20,Female,1,2024/03/15_16:13:51,YZ,None,
,,,,,,calibration,0,16,2,583,15,X,1,left,0.861061513016466,1,0,,,,,,,,,,,,,,,,,,,,,1,,,,,,,,,,,,,,,,,,,,,,,,,,,,,,,,,,,,,,,,,,,,,,96,151702,20,Female,1,2024/03/15_16:13:51,YZ,None,
,,,,,,calibration,0,16,2,583,,,,,,,,0.9545454545454546,1.0,0.18181818181818182,0.8181818181818182,0.0,0.8181818181818181,0.9616456421363788,4,2,0,0,0,9,13,4,11,0,,,,1,,,,,,,,,,,,,,,,,,,,,,,,,,,,,,,,,,,,,,,,,,,,,,96,151702,20,Female,1,2024/03/15_16:13:51,YZ,None,
,,,,,,Calibration,0,,2,583,,,,,,,,,,,,,,,,,,,,,,,,,1,,,1,,,,,,,,,,,,,,,,,,,,,,,,,,,,,,,,,,,,,,,,,,,,,,96,151702,20,Female,1,2024/03/15_16:13:51,YZ,None,
,,,,,,calibration,0,17,2,500,1,V,0,None,nan,0,1,,,,,,,,,,,,,,,,,,,,,1,,,,,,,,,,,,,,,,,,,,,,,,,,,,,,,,,,,,,,,,,,,,,,96,151702,20,Female,1,2024/03/15_16:13:51,YZ,None,
,,,,,,calibration,0,17,2,500,2,V,0,None,nan,0,1,,,,,,,,,,,,,,,,,,,,,1,,,,,,,,,,,,,,,,,,,,,,,,,,,,,,,,,,,,,,,,,,,,,,96,151702,20,Female,1,2024/03/15_16:13:51,YZ,None,
,,,,,,calibration,0,17,2,500,3,V,1,left,0.8986196529876906,1,0,,,,,,,,,,,,,,,,,,,,,1,,,,,,,,,,,,,,,,,,,,,,,,,,,,,,,,,,,,,,,,,,,,,,96,151702,20,Female,1,2024/03/15_16:13:51,YZ,None,
,,,,,,calibration,0,17,2,500,4,V,1,left,0.9586799880198669,1,0,,,,,,,,,,,,,,,,,,,,,1,,,,,,,,,,,,,,,,,,,,,,,,,,,,,,,,,,,,,,,,,,,,,,96,151702,20,Female,1,2024/03/15_16:13:51,YZ,None,
,,,,,,calibration,0,17,2,500,5,S,0,left,nan,0,1,,,,,,,,,,,,,,,,,,,,,1,,,,,,,,,,,,,,,,,,,,,,,,,,,,,,,,,,,,,,,,,,,,,,96,151702,20,Female,1,2024/03/15_16:13:51,YZ,None,
,,,,,,calibration,0,17,2,500,6,J,0,right,0.882435917010298,1,0,,,,,,,,,,,,,,,,,,,,,1,,,,,,,,,,,,,,,,,,,,,,,,,,,,,,,,,,,,,,,,,,,,,,96,151702,20,Female,1,2024/03/15_16:13:51,YZ,None,
,,,,,,calibration,0,17,2,500,7,X,0,right,0.7752422069897875,1,0,,,,,,,,,,,,,,,,,,,,,1,,,,,,,,,,,,,,,,,,,,,,,,,,,,,,,,,,,,,,,,,,,,,,96,151702,20,Female,1,2024/03/15_16:13:51,YZ,None,
,,,,,,calibration,0,17,2,500,8,C,0,right,0.9253572350135073,1,0,,,,,,,,,,,,,,,,,,,,,1,,,,,,,,,,,,,,,,,,,,,,,,,,,,,,,,,,,,,,,,,,,,,,96,151702,20,Female,1,2024/03/15_16:13:51,YZ,None,
,,,,,,calibration,0,17,2,500,9,X,1,right,nan,0,1,,,,,,,,,,,,,,,,,,,,,1,,,,,,,,,,,,,,,,,,,,,,,,,,,,,,,,,,,,,,,,,,,,,,96,151702,20,Female,1,2024/03/15_16:13:51,YZ,None,
,,,,,,calibration,0,17,2,500,10,F,0,right,nan,0,1,,,,,,,,,,,,,,,,,,,,,1,,,,,,,,,,,,,,,,,,,,,,,,,,,,,,,,,,,,,,,,,,,,,,96,151702,20,Female,1,2024/03/15_16:13:51,YZ,None,
,,,,,,calibration,0,17,2,500,11,C,0,right,0.0,1,0,,,,,,,,,,,,,,,,,,,,,1,,,,,,,,,,,,,,,,,,,,,,,,,,,,,,,,,,,,,,,,,,,,,,96,151702,20,Female,1,2024/03/15_16:13:51,YZ,None,
,,,,,,calibration,0,17,2,500,12,F,1,left,0.3872305259865243,1,0,,,,,,,,,,,,,,,,,,,,,1,,,,,,,,,,,,,,,,,,,,,,,,,,,,,,,,,,,,,,,,,,,,,,96,151702,20,Female,1,2024/03/15_16:13:51,YZ,None,
,,,,,,calibration,0,17,2,500,13,Q,0,right,0.9669154990115203,1,0,,,,,,,,,,,,,,,,,,,,,1,,,,,,,,,,,,,,,,,,,,,,,,,,,,,,,,,,,,,,,,,,,,,,96,151702,20,Female,1,2024/03/15_16:13:51,YZ,None,
,,,,,,calibration,0,17,2,500,14,N,0,right,0.7305898569757119,1,0,,,,,,,,,,,,,,,,,,,,,1,,,,,,,,,,,,,,,,,,,,,,,,,,,,,,,,,,,,,,,,,,,,,,96,151702,20,Female,1,2024/03/15_16:13:51,YZ,None,
,,,,,,calibration,0,17,2,500,15,C,0,left,0.8083203730056994,0,0,,,,,,,,,,,,,,,,,,,,,1,,,,,,,,,,,,,,,,,,,,,,,,,,,,,,,,,,,,,,,,,,,,,,96,151702,20,Female,1,2024/03/15_16:13:51,YZ,None,
,,,,,,calibration,0,17,2,500,16,F,0,right,0.5714589419949334,1,0,,,,,,,,,,,,,,,,,,,,,1,,,,,,,,,,,,,,,,,,,,,,,,,,,,,,,,,,,,,,,,,,,,,,96,151702,20,Female,1,2024/03/15_16:13:51,YZ,None,
,,,,,,calibration,0,17,2,500,,,,,,,,0.8958333333333333,0.75,0.08333333333333333,0.875,0.3125,0.6041666666666666,0.7186227451814127,3,1,1,4,5,7,10,4,12,0,,,,1,,,,,,,,,,,,,,,,,,,,,,,,,,,,,,,,,,,,,,,,,,,,,,96,151702,20,Female,1,2024/03/15_16:13:51,YZ,None,
,,,,,,Calibration,0,,2,500,,,,,,,,,,,,,,,,,,,,,,,,,2,,,1,,,,,,,,,,,,,,,,,,,,,,,,,,,,,,,,,,,,,,,,,,,,,,96,151702,20,Female,1,2024/03/15_16:13:51,YZ,None,
,,,,,,calibration,0,30,2,426,1,Q,0,None,nan,0,1,,,,,,,,,,,,,,,,,,,,,1,,,,,,,,,,,,,,,,,,,,,,,,,,,,,,,,,,,,,,,,,,,,,,96,151702,20,Female,1,2024/03/15_16:13:51,YZ,None,
,,,,,,calibration,0,30,2,426,2,Q,0,right,0.7428156439855229,1,0,,,,,,,,,,,,,,,,,,,,,1,,,,,,,,,,,,,,,,,,,,,,,,,,,,,,,,,,,,,,,,,,,,,,96,151702,20,Female,1,2024/03/15_16:13:51,YZ,None,
,,,,,,calibration,0,30,2,426,3,Q,1,left,0.7827306080143899,1,0,,,,,,,,,,,,,,,,,,,,,1,,,,,,,,,,,,,,,,,,,,,,,,,,,,,,,,,,,,,,,,,,,,,,96,151702,20,Female,1,2024/03/15_16:13:51,YZ,None,
,,,,,,calibration,0,30,2,426,4,N,0,left,nan,0,1,,,,,,,,,,,,,,,,,,,,,1,,,,,,,,,,,,,,,,,,,,,,,,,,,,,,,,,,,,,,,,,,,,,,96,151702,20,Female,1,2024/03/15_16:13:51,YZ,None,
,,,,,,calibration,0,30,2,426,5,J,0,right,0.0,1,0,,,,,,,,,,,,,,,,,,,,,1,,,,,,,,,,,,,,,,,,,,,,,,,,,,,,,,,,,,,,,,,,,,,,96,151702,20,Female,1,2024/03/15_16:13:51,YZ,None,
,,,,,,calibration,0,30,2,426,6,X,0,right,0.23948840799857862,1,0,,,,,,,,,,,,,,,,,,,,,1,,,,,,,,,,,,,,,,,,,,,,,,,,,,,,,,,,,,,,,,,,,,,,96,151702,20,Female,1,2024/03/15_16:13:51,YZ,None,
,,,,,,calibration,0,30,2,426,7,N,0,right,0.42448966699885204,1,0,,,,,,,,,,,,,,,,,,,,,1,,,,,,,,,,,,,,,,,,,,,,,,,,,,,,,,,,,,,,,,,,,,,,96,151702,20,Female,1,2024/03/15_16:13:51,YZ,None,
,,,,,,calibration,0,30,2,426,8,Q,0,right,0.0077139270142652094,1,0,,,,,,,,,,,,,,,,,,,,,1,,,,,,,,,,,,,,,,,,,,,,,,,,,,,,,,,,,,,,,,,,,,,,96,151702,20,Female,1,2024/03/15_16:13:51,YZ,None,
,,,,,,calibration,0,30,2,426,9,F,0,left,0.29551241599256173,0,0,,,,,,,,,,,,,,,,,,,,,1,,,,,,,,,,,,,,,,,,,,,,,,,,,,,,,,,,,,,,,,,,,,,,96,151702,20,Female,1,2024/03/15_16:13:51,YZ,None,
,,,,,,calibration,0,30,2,426,10,X,0,right,0.9087681609962601,1,0,,,,,,,,,,,,,,,,,,,,,1,,,,,,,,,,,,,,,,,,,,,,,,,,,,,,,,,,,,,,,,,,,,,,96,151702,20,Female,1,2024/03/15_16:13:51,YZ,None,
,,,,,,calibration,0,30,2,426,11,S,0,right,0.3950509529968258,1,0,,,,,,,,,,,,,,,,,,,,,1,,,,,,,,,,,,,,,,,,,,,,,,,,,,,,,,,,,,,,,,,,,,,,96,151702,20,Female,1,2024/03/15_16:13:51,YZ,None,
,,,,,,calibration,0,30,2,426,12,X,1,right,0.44800239001051523,0,0,,,,,,,,,,,,,,,,,,,,,1,,,,,,,,,,,,,,,,,,,,,,,,,,,,,,,,,,,,,,,,,,,,,,96,151702,20,Female,1,2024/03/15_16:13:51,YZ,None,
,,,,,,calibration,0,30,2,426,13,S,1,left,0.8425451959774364,1,0,,,,,,,,,,,,,,,,,,,,,1,,,,,,,,,,,,,,,,,,,,,,,,,,,,,,,,,,,,,,,,,,,,,,96,151702,20,Female,1,2024/03/15_16:13:51,YZ,None,
,,,,,,calibration,0,30,2,426,14,V,0,right,0.6080405179818626,1,0,,,,,,,,,,,,,,,,,,,,,1,,,,,,,,,,,,,,,,,,,,,,,,,,,,,,,,,,,,,,,,,,,,,,96,151702,20,Female,1,2024/03/15_16:13:51,YZ,None,
,,,,,,calibration,0,30,2,426,15,J,0,right,0.7321065420110244,1,0,,,,,,,,,,,,,,,,,,,,,1,,,,,,,,,,,,,,,,,,,,,,,,,,,,,,,,,,,,,,,,,,,,,,96,151702,20,Female,1,2024/03/15_16:13:51,YZ,None,
,,,,,,calibration,0,30,2,426,16,V,1,left,0.7146837979962584,1,0,,,,,,,,,,,,,,,,,,,,,1,,,,,,,,,,,,,,,,,,,,,,,,,,,,,,,,,,,,,,,,,,,,,,96,151702,20,Female,1,2024/03/15_16:13:51,YZ,None,
,,,,,,calibration,0,30,2,426,17,J,1,left,0.8594281039841007,1,0,,,,,,,,,,,,,,,,,,,,,1,,,,,,,,,,,,,,,,,,,,,,,,,,,,,,,,,,,,,,,,,,,,,,96,151702,20,Female,1,2024/03/15_16:13:51,YZ,None,
,,,,,,calibration,0,30,2,426,,,,,,,,0.9125000000000001,0.8,0.08333333333333333,0.9,0.11764705882352941,0.7990196078431372,0.5334250887972303,4,1,0,2,2,9,13,5,12,0,,,,1,,,,,,,,,,,,,,,,,,,,,,,,,,,,,,,,,,,,,,,,,,,,,,96,151702,20,Female,1,2024/03/15_16:13:51,YZ,None,
,,,,,,Calibration,0,,2,426,,,,,,,,,,,,,,,,,,,,,,,,,3,,,1,,,,,,,,,,,,,,,,,,,,,,,,,,,,,,,,,,,,,,,,,,,,,,96,151702,20,Female,1,2024/03/15_16:13:51,YZ,None,
,,,,,,calibration,0,4,2,361,1,V,0,right,0.7595928969967645,1,0,,,,,,,,,,,,,,,,,,,,,1,,,,,,,,,,,,,,,,,,,,,,,,,,,,,,,,,,,,,,,,,,,,,,96,151702,20,Female,1,2024/03/15_16:13:51,YZ,None,
,,,,,,calibration,0,4,2,361,2,N,0,right,0.7966844069887884,1,0,,,,,,,,,,,,,,,,,,,,,1,,,,,,,,,,,,,,,,,,,,,,,,,,,,,,,,,,,,,,,,,,,,,,96,151702,20,Female,1,2024/03/15_16:13:51,YZ,None,
,,,,,,calibration,0,4,2,361,3,V,1,right,nan,0,1,,,,,,,,,,,,,,,,,,,,,1,,,,,,,,,,,,,,,,,,,,,,,,,,,,,,,,,,,,,,,,,,,,,,96,151702,20,Female,1,2024/03/15_16:13:51,YZ,None,
,,,,,,calibration,0,4,2,361,4,N,1,right,0.8079605560051277,0,0,,,,,,,,,,,,,,,,,,,,,1,,,,,,,,,,,,,,,,,,,,,,,,,,,,,,,,,,,,,,,,,,,,,,96,151702,20,Female,1,2024/03/15_16:13:51,YZ,None,
,,,,,,calibration,0,4,2,361,5,J,0,right,0.7939027390093543,1,0,,,,,,,,,,,,,,,,,,,,,1,,,,,,,,,,,,,,,,,,,,,,,,,,,,,,,,,,,,,,,,,,,,,,96,151702,20,Female,1,2024/03/15_16:13:51,YZ,None,
,,,,,,calibration,0,4,2,361,6,X,0,right,0.6329558379948139,1,0,,,,,,,,,,,,,,,,,,,,,1,,,,,,,,,,,,,,,,,,,,,,,,,,,,,,,,,,,,,,,,,,,,,,96,151702,20,Female,1,2024/03/15_16:13:51,YZ,None,
,,,,,,calibration,0,4,2,361,7,S,0,right,0.9158209350134712,1,0,,,,,,,,,,,,,,,,,,,,,1,,,,,,,,,,,,,,,,,,,,,,,,,,,,,,,,,,,,,,,,,,,,,,96,151702,20,Female,1,2024/03/15_16:13:51,YZ,None,
,,,,,,calibration,0,4,2,361,8,C,0,right,0.5310982530063484,1,0,,,,,,,,,,,,,,,,,,,,,1,,,,,,,,,,,,,,,,,,,,,,,,,,,,,,,,,,,,,,,,,,,,,,96,151702,20,Female,1,2024/03/15_16:13:51,YZ,None,
,,,,,,calibration,0,4,2,361,9,Q,0,right,0.65735134400893,1,0,,,,,,,,,,,,,,,,,,,,,1,,,,,,,,,,,,,,,,,,,,,,,,,,,,,,,,,,,,,,,,,,,,,,96,151702,20,Female,1,2024/03/15_16:13:51,YZ,None,
,,,,,,calibration,0,4,2,361,10,S,0,right,0.7070437470101751,1,0,,,,,,,,,,,,,,,,,,,,,1,,,,,,,,,,,,,,,,,,,,,,,,,,,,,,,,,,,,,,,,,,,,,,96,151702,20,Female,1,2024/03/15_16:13:51,YZ,None,
,,,,,,calibration,0,4,2,361,11,X,0,right,0.8910818639851641,1,0,,,,,,,,,,,,,,,,,,,,,1,,,,,,,,,,,,,,,,,,,,,,,,,,,,,,,,,,,,,,,,,,,,,,96,151702,20,Female,1,2024/03/15_16:13:51,YZ,None,
,,,,,,calibration,0,4,2,361,12,S,1,left,0.8580877550120931,1,0,,,,,,,,,,,,,,,,,,,,,1,,,,,,,,,,,,,,,,,,,,,,,,,,,,,,,,,,,,,,,,,,,,,,96,151702,20,Female,1,2024/03/15_16:13:51,YZ,None,
,,,,,,calibration,0,4,2,361,13,X,1,left,0.9042729789798614,1,0,,,,,,,,,,,,,,,,,,,,,1,,,,,,,,,,,,,,,,,,,,,,,,,,,,,,,,,,,,,,,,,,,,,,96,151702,20,Female,1,2024/03/15_16:13:51,YZ,None,
,,,,,,calibration,0,4,2,361,14,V,0,right,0.7394060399965383,1,0,,,,,,,,,,,,,,,,,,,,,1,,,,,,,,,,,,,,,,,,,,,,,,,,,,,,,,,,,,,,,,,,,,,,96,151702,20,Female,1,2024/03/15_16:13:51,YZ,None,
,,,,,,calibration,0,4,2,361,15,N,0,right,0.7853980360087007,1,0,,,,,,,,,,,,,,,,,,,,,1,,,,,,,,,,,,,,,,,,,,,,,,,,,,,,,,,,,,,,,,,,,,,,96,151702,20,Female,1,2024/03/15_16:13:51,YZ,None,
,,,,,,calibration,0,4,2,361,16,F,0,right,0.8522387139964849,1,0,,,,,,,,,,,,,,,,,,,,,1,,,,,,,,,,,,,,,,,,,,,,,,,,,,,,,,,,,,,,,,,,,,,,96,151702,20,Female,1,2024/03/15_16:13:51,YZ,None,
,,,,,,calibration,0,4,2,361,17,X,0,right,0.9611318270035554,1,0,,,,,,,,,,,,,,,,,,,,,1,,,,,,,,,,,,,,,,,,,,,,,,,,,,,,,,,,,,,,,,,,,,,,96,151702,20,Female,1,2024/03/15_16:13:51,YZ,None,
,,,,,,calibration,0,4,2,361,18,F,1,left,0.7829557110089809,1,0,,,,,,,,,,,,,,,,,,,,,1,,,,,,,,,,,,,,,,,,,,,,,,,,,,,,,,,,,,,,,,,,,,,,96,151702,20,Female,1,2024/03/15_16:13:51,YZ,None,
,,,,,,calibration,0,4,2,361,,,,,,,,0.9,0.6,0.0,1.0,0.05555555555555555,0.9444444444444444,0.7868813907073618,3,0,1,0,1,13,16,5,13,0,,,,1,,,,,,,,,,,,,,,,,,,,,,,,,,,,,,,,,,,,,,,,,,,,,,96,151702,20,Female,1,2024/03/15_16:13:51,YZ,None,
,,,,,,Calibration,0,,2,361,,,,,,,,,,,,,,,,,,,,,,,,,4,,,1,,,,,,,,,,,,,,,,,,,,,,,,,,,,,,,,,,,,,,,,,,,,,,96,151702,20,Female,1,2024/03/15_16:13:51,YZ,None,
,,,,,,calibration,0,18,2,303,1,S,0,right,0.7147895859961864,1,0,,,,,,,,,,,,,,,,,,,,,1,,,,,,,,,,,,,,,,,,,,,,,,,,,,,,,,,,,,,,,,,,,,,,96,151702,20,Female,1,2024/03/15_16:13:51,YZ,None,
,,,,,,calibration,0,18,2,303,2,X,0,right,0.6011076880095061,1,0,,,,,,,,,,,,,,,,,,,,,1,,,,,,,,,,,,,,,,,,,,,,,,,,,,,,,,,,,,,,,,,,,,,,96,151702,20,Female,1,2024/03/15_16:13:51,YZ,None,
,,,,,,calibration,0,18,2,303,3,Q,0,right,nan,0,1,,,,,,,,,,,,,,,,,,,,,1,,,,,,,,,,,,,,,,,,,,,,,,,,,,,,,,,,,,,,,,,,,,,,96,151702,20,Female,1,2024/03/15_16:13:51,YZ,None,
,,,,,,calibration,0,18,2,303,4,X,1,left,0.6909219230001327,1,0,,,,,,,,,,,,,,,,,,,,,1,,,,,,,,,,,,,,,,,,,,,,,,,,,,,,,,,,,,,,,,,,,,,,96,151702,20,Female,1,2024/03/15_16:13:51,YZ,None,
,,,,,,calibration,0,18,2,303,5,J,0,right,0.4945865260087885,1,0,,,,,,,,,,,,,,,,,,,,,1,,,,,,,,,,,,,,,,,,,,,,,,,,,,,,,,,,,,,,,,,,,,,,96,151702,20,Female,1,2024/03/15_16:13:51,YZ,None,
,,,,,,calibration,0,18,2,303,6,X,1,left,0.9288007659779396,1,0,,,,,,,,,,,,,,,,,,,,,1,,,,,,,,,,,,,,,,,,,,,,,,,,,,,,,,,,,,,,,,,,,,,,96,151702,20,Female,1,2024/03/15_16:13:51,YZ,None,
,,,,,,calibration,0,18,2,303,7,J,1,left,0.9247618109802715,1,0,,,,,,,,,,,,,,,,,,,,,1,,,,,,,,,,,,,,,,,,,,,,,,,,,,,,,,,,,,,,,,,,,,,,96,151702,20,Female,1,2024/03/15_16:13:51,YZ,None,
,,,,,,calibration,0,18,2,303,8,Q,0,right,0.9364692410163116,1,0,,,,,,,,,,,,,,,,,,,,,1,,,,,,,,,,,,,,,,,,,,,,,,,,,,,,,,,,,,,,,,,,,,,,96,151702,20,Female,1,2024/03/15_16:13:51,YZ,None,
,,,,,,calibration,0,18,2,303,9,S,0,right,0.9080443470156752,1,0,,,,,,,,,,,,,,,,,,,,,1,,,,,,,,,,,,,,,,,,,,,,,,,,,,,,,,,,,,,,,,,,,,,,96,151702,20,Female,1,2024/03/15_16:13:51,YZ,None,
,,,,,,calibration,0,18,2,303,10,V,0,right,0.8252151400083676,1,0,,,,,,,,,,,,,,,,,,,,,1,,,,,,,,,,,,,,,,,,,,,,,,,,,,,,,,,,,,,,,,,,,,,,96,151702,20,Female,1,2024/03/15_16:13:51,YZ,None,
,,,,,,calibration,0,18,2,303,11,C,0,right,0.6520592639863025,1,0,,,,,,,,,,,,,,,,,,,,,1,,,,,,,,,,,,,,,,,,,,,,,,,,,,,,,,,,,,,,,,,,,,,,96,151702,20,Female,1,2024/03/15_16:13:51,YZ,None,
,,,,,,calibration,0,18,2,303,12,Q,0,right,0.853753545001382,1,0,,,,,,,,,,,,,,,,,,,,,1,,,,,,,,,,,,,,,,,,,,,,,,,,,,,,,,,,,,,,,,,,,,,,96,151702,20,Female,1,2024/03/15_16:13:51,YZ,None,
,,,,,,calibration,0,18,2,303,13,N,0,right,0.6249623470066581,1,0,,,,,,,,,,,,,,,,,,,,,1,,,,,,,,,,,,,,,,,,,,,,,,,,,,,,,,,,,,,,,,,,,,,,96,151702,20,Female,1,2024/03/15_16:13:51,YZ,None,
,,,,,,calibration,0,18,2,303,14,X,0,left,0.9823865509824827,0,0,,,,,,,,,,,,,,,,,,,,,1,,,,,,,,,,,,,,,,,,,,,,,,,,,,,,,,,,,,,,,,,,,,,,96,151702,20,Female,1,2024/03/15_16:13:51,YZ,None,
,,,,,,calibration,0,18,2,303,15,V,0,right,0.6076725629973225,1,0,,,,,,,,,,,,,,,,,,,,,1,,,,,,,,,,,,,,,,,,,,,,,,,,,,,,,,,,,,,,,,,,,,,,96,151702,20,Female,1,2024/03/15_16:13:51,YZ,None,
,,,,,,calibration,0,18,2,303,16,X,1,right,nan,0,1,,,,,,,,,,,,,,,,,,,,,1,,,,,,,,,,,,,,,,,,,,,,,,,,,,,,,,,,,,,,,,,,,,,,96,151702,20,Female,1,2024/03/15_16:13:51,YZ,None,
,,,,,,calibration,0,18,2,303,17,V,1,left,0.7149740489840042,1,0,,,,,,,,,,,,,,,,,,,,,1,,,,,,,,,,,,,,,,,,,,,,,,,,,,,,,,,,,,,,,,,,,,,,96,151702,20,Female,1,2024/03/15_16:13:51,YZ,None,
,,,,,,calibration,0,18,2,303,18,N,0,right,0.5244572479859926,1,0,,,,,,,,,,,,,,,,,,,,,1,,,,,,,,,,,,,,,,,,,,,,,,,,,,,,,,,,,,,,,,,,,,,,96,151702,20,Female,1,2024/03/15_16:13:51,YZ,None,
,,,,,,calibration,0,18,2,303,19,S,0,right,0.737263360992074,1,0,,,,,,,,,,,,,,,,,,,,,1,,,,,,,,,,,,,,,,,,,,,,,,,,,,,,,,,,,,,,,,,,,,,,96,151702,20,Female,1,2024/03/15_16:13:51,YZ,None,
,,,,,,calibration,0,18,2,303,,,,,,,,0.9178571428571429,0.8,0.07142857142857142,0.9230769230769231,0.10526315789473684,0.8233082706766918,0.7483662327029057,4,1,1,1,2,12,16,5,14,0,,,,1,,,,,,,,,,,,,,,,,,,,,,,,,,,,,,,,,,,,,,,,,,,,,,96,151702,20,Female,1,2024/03/15_16:13:51,YZ,None,
,,,,,,Calibration,0,,2,303,,,,,,,,,,,,,,,,,,,,,,,,,5,,,1,,,,,,,,,,,,,,,,,,,,,,,,,,,,,,,,,,,,,,,,,,,,,,96,151702,20,Female,1,2024/03/15_16:13:51,YZ,None,
,,,,,,calibration,0,12,2,250,1,V,0,right,0.827090420993045,1,0,,,,,,,,,,,,,,,,,,,,,1,,,,,,,,,,,,,,,,,,,,,,,,,,,,,,,,,,,,,,,,,,,,,,96,151702,20,Female,1,2024/03/15_16:13:51,YZ,None,
,,,,,,calibration,0,12,2,250,2,S,0,right,0.592204986984143,1,0,,,,,,,,,,,,,,,,,,,,,1,,,,,,,,,,,,,,,,,,,,,,,,,,,,,,,,,,,,,,,,,,,,,,96,151702,20,Female,1,2024/03/15_16:13:51,YZ,None,
,,,,,,calibration,0,12,2,250,3,X,0,right,0.7762632129888516,1,0,,,,,,,,,,,,,,,,,,,,,1,,,,,,,,,,,,,,,,,,,,,,,,,,,,,,,,,,,,,,,,,,,,,,96,151702,20,Female,1,2024/03/15_16:13:51,YZ,None,
,,,,,,calibration,0,12,2,250,4,C,0,right,0.41439655900467187,1,0,,,,,,,,,,,,,,,,,,,,,1,,,,,,,,,,,,,,,,,,,,,,,,,,,,,,,,,,,,,,,,,,,,,,96,151702,20,Female,1,2024/03/15_16:13:51,YZ,None,
,,,,,,calibration,0,12,2,250,5,N,0,right,0.60966576798819,1,0,,,,,,,,,,,,,,,,,,,,,1,,,,,,,,,,,,,,,,,,,,,,,,,,,,,,,,,,,,,,,,,,,,,,96,151702,20,Female,1,2024/03/15_16:13:51,YZ,None,
,,,,,,calibration,0,12,2,250,6,C,1,left,0.49930584902176633,1,0,,,,,,,,,,,,,,,,,,,,,1,,,,,,,,,,,,,,,,,,,,,,,,,,,,,,,,,,,,,,,,,,,,,,96,151702,20,Female,1,2024/03/15_16:13:51,YZ,None,
,,,,,,calibration,0,12,2,250,7,F,0,right,0.5490731050085742,1,0,,,,,,,,,,,,,,,,,,,,,1,,,,,,,,,,,,,,,,,,,,,,,,,,,,,,,,,,,,,,,,,,,,,,96,151702,20,Female,1,2024/03/15_16:13:51,YZ,None,
,,,,,,calibration,0,12,2,250,8,J,0,right,0.592427803989267,1,0,,,,,,,,,,,,,,,,,,,,,1,,,,,,,,,,,,,,,,,,,,,,,,,,,,,,,,,,,,,,,,,,,,,,96,151702,20,Female,1,2024/03/15_16:13:51,YZ,None,
,,,,,,calibration,0,12,2,250,9,V,0,right,0.6516820719989482,1,0,,,,,,,,,,,,,,,,,,,,,1,,,,,,,,,,,,,,,,,,,,,,,,,,,,,,,,,,,,,,,,,,,,,,96,151702,20,Female,1,2024/03/15_16:13:51,YZ,None,
,,,,,,calibration,0,12,2,250,10,C,0,right,nan,0,1,,,,,,,,,,,,,,,,,,,,,1,,,,,,,,,,,,,,,,,,,,,,,,,,,,,,,,,,,,,,,,,,,,,,96,151702,20,Female,1,2024/03/15_16:13:51,YZ,None,
,,,,,,calibration,0,12,2,250,11,J,0,right,nan,0,1,,,,,,,,,,,,,,,,,,,,,1,,,,,,,,,,,,,,,,,,,,,,,,,,,,,,,,,,,,,,,,,,,,,,96,151702,20,Female,1,2024/03/15_16:13:51,YZ,None,
,,,,,,calibration,0,12,2,250,12,Q,0,right,nan,0,1,,,,,,,,,,,,,,,,,,,,,1,,,,,,,,,,,,,,,,,,,,,,,,,,,,,,,,,,,,,,,,,,,,,,96,151702,20,Female,1,2024/03/15_16:13:51,YZ,None,
,,,,,,calibration,0,12,2,250,13,J,1,left,0.7584861039940733,1,0,,,,,,,,,,,,,,,,,,,,,1,,,,,,,,,,,,,,,,,,,,,,,,,,,,,,,,,,,,,,,,,,,,,,96,151702,20,Female,1,2024/03/15_16:13:51,YZ,None,
,,,,,,calibration,0,12,2,250,14,S,0,right,0.6258938900136854,1,0,,,,,,,,,,,,,,,,,,,,,1,,,,,,,,,,,,,,,,,,,,,,,,,,,,,,,,,,,,,,,,,,,,,,96,151702,20,Female,1,2024/03/15_16:13:51,YZ,None,
,,,,,,calibration,0,12,2,250,15,J,1,left,0.9261131669918541,1,0,,,,,,,,,,,,,,,,,,,,,1,,,,,,,,,,,,,,,,,,,,,,,,,,,,,,,,,,,,,,,,,,,,,,96,151702,20,Female,1,2024/03/15_16:13:51,YZ,None,
,,,,,,calibration,0,12,2,250,16,S,1,left,0.6585196100058965,1,0,,,,,,,,,,,,,,,,,,,,,1,,,,,,,,,,,,,,,,,,,,,,,,,,,,,,,,,,,,,,,,,,,,,,96,151702,20,Female,1,2024/03/15_16:13:51,YZ,None,
,,,,,,calibration,0,12,2,250,17,F,0,right,0.6697529410012066,1,0,,,,,,,,,,,,,,,,,,,,,1,,,,,,,,,,,,,,,,,,,,,,,,,,,,,,,,,,,,,,,,,,,,,,96,151702,20,Female,1,2024/03/15_16:13:51,YZ,None,
,,,,,,calibration,0,12,2,250,18,N,0,right,0.6188726449909154,1,0,,,,,,,,,,,,,,,,,,,,,1,,,,,,,,,,,,,,,,,,,,,,,,,,,,,,,,,,,,,,,,,,,,,,96,151702,20,Female,1,2024/03/15_16:13:51,YZ,None,
,,,,,,calibration,0,12,2,250,19,F,1,left,0.6747138980135787,1,0,,,,,,,,,,,,,,,,,,,,,1,,,,,,,,,,,,,,,,,,,,,,,,,,,,,,,,,,,,,,,,,,,,,,96,151702,20,Female,1,2024/03/15_16:13:51,YZ,None,
,,,,,,calibration,0,12,2,250,20,X,0,right,0.5122365010029171,1,0,,,,,,,,,,,,,,,,,,,,,1,,,,,,,,,,,,,,,,,,,,,,,,,,,,,,,,,,,,,,,,,,,,,,96,151702,20,Female,1,2024/03/15_16:13:51,YZ,None,
,,,,,,calibration,0,12,2,250,,,,,,,,1.0,1.0,0.0,1.0,0.15,0.85,0.6445116784700932,5,0,0,3,3,12,17,5,15,0,,,,1,,,,,,,,,,,,,,,,,,,,,,,,,,,,,,,,,,,,,,,,,,,,,,96,151702,20,Female,1,2024/03/15_16:13:51,YZ,None,
,,,,,,Calibration,0,,2,250,,,,,,,,,,,,,,,,,,,,,,,,,6,,,1,,,,,,,,,,,,,,,,,,,,,,,,,,,,,,,,,,,,,,,,,,,,,,96,151702,20,Female,1,2024/03/15_16:13:51,YZ,None,
,,,,,,calibration,0,21,2,202,1,F,0,right,0.7369394550041761,1,0,,,,,,,,,,,,,,,,,,,,,1,,,,,,,,,,,,,,,,,,,,,,,,,,,,,,,,,,,,,,,,,,,,,,96,151702,20,Female,1,2024/03/15_16:13:51,YZ,None,
,,,,,,calibration,0,21,2,202,2,V,0,right,0.41246304599917494,1,0,,,,,,,,,,,,,,,,,,,,,1,,,,,,,,,,,,,,,,,,,,,,,,,,,,,,,,,,,,,,,,,,,,,,96,151702,20,Female,1,2024/03/15_16:13:51,YZ,None,
,,,,,,calibration,0,21,2,202,3,S,0,right,0.6144875769969076,1,0,,,,,,,,,,,,,,,,,,,,,1,,,,,,,,,,,,,,,,,,,,,,,,,,,,,,,,,,,,,,,,,,,,,,96,151702,20,Female,1,2024/03/15_16:13:51,YZ,None,
,,,,,,calibration,0,21,2,202,4,X,0,right,0.5750381830148399,1,0,,,,,,,,,,,,,,,,,,,,,1,,,,,,,,,,,,,,,,,,,,,,,,,,,,,,,,,,,,,,,,,,,,,,96,151702,20,Female,1,2024/03/15_16:13:51,YZ,None,
,,,,,,calibration,0,21,2,202,5,J,0,right,0.8699984560080338,1,0,,,,,,,,,,,,,,,,,,,,,1,,,,,,,,,,,,,,,,,,,,,,,,,,,,,,,,,,,,,,,,,,,,,,96,151702,20,Female,1,2024/03/15_16:13:51,YZ,None,
,,,,,,calibration,0,21,2,202,6,F,0,right,0.7463003220036626,1,0,,,,,,,,,,,,,,,,,,,,,1,,,,,,,,,,,,,,,,,,,,,,,,,,,,,,,,,,,,,,,,,,,,,,96,151702,20,Female,1,2024/03/15_16:13:51,YZ,None,
,,,,,,calibration,0,21,2,202,7,J,1,left,0.7754914019897114,1,0,,,,,,,,,,,,,,,,,,,,,1,,,,,,,,,,,,,,,,,,,,,,,,,,,,,,,,,,,,,,,,,,,,,,96,151702,20,Female,1,2024/03/15_16:13:51,YZ,None,
,,,,,,calibration,0,21,2,202,8,C,0,right,0.5119136620196514,1,0,,,,,,,,,,,,,,,,,,,,,1,,,,,,,,,,,,,,,,,,,,,,,,,,,,,,,,,,,,,,,,,,,,,,96,151702,20,Female,1,2024/03/15_16:13:51,YZ,None,
,,,,,,calibration,0,21,2,202,9,J,1,left,0.5982338530011475,1,0,,,,,,,,,,,,,,,,,,,,,1,,,,,,,,,,,,,,,,,,,,,,,,,,,,,,,,,,,,,,,,,,,,,,96,151702,20,Female,1,2024/03/15_16:13:51,YZ,None,
,,,,,,calibration,0,21,2,202,10,F,0,right,0.6088887419900857,1,0,,,,,,,,,,,,,,,,,,,,,1,,,,,,,,,,,,,,,,,,,,,,,,,,,,,,,,,,,,,,,,,,,,,,96,151702,20,Female,1,2024/03/15_16:13:51,YZ,None,
,,,,,,calibration,0,21,2,202,11,N,0,right,0.9017651029862463,1,0,,,,,,,,,,,,,,,,,,,,,1,,,,,,,,,,,,,,,,,,,,,,,,,,,,,,,,,,,,,,,,,,,,,,96,151702,20,Female,1,2024/03/15_16:13:51,YZ,None,
,,,,,,calibration,0,21,2,202,12,F,1,left,0.6183877449948341,1,0,,,,,,,,,,,,,,,,,,,,,1,,,,,,,,,,,,,,,,,,,,,,,,,,,,,,,,,,,,,,,,,,,,,,96,151702,20,Female,1,2024/03/15_16:13:51,YZ,None,
,,,,,,calibration,0,21,2,202,13,N,1,left,0.5776263669831678,1,0,,,,,,,,,,,,,,,,,,,,,1,,,,,,,,,,,,,,,,,,,,,,,,,,,,,,,,,,,,,,,,,,,,,,96,151702,20,Female,1,2024/03/15_16:13:51,YZ,None,
,,,,,,calibration,0,21,2,202,14,V,0,right,0.6091376999975182,1,0,,,,,,,,,,,,,,,,,,,,,1,,,,,,,,,,,,,,,,,,,,,,,,,,,,,,,,,,,,,,,,,,,,,,96,151702,20,Female,1,2024/03/15_16:13:51,YZ,None,
,,,,,,calibration,0,21,2,202,15,N,1,left,0.8514877590059768,1,0,,,,,,,,,,,,,,,,,,,,,1,,,,,,,,,,,,,,,,,,,,,,,,,,,,,,,,,,,,,,,,,,,,,,96,151702,20,Female,1,2024/03/15_16:13:51,YZ,None,
,,,,,,calibration,0,21,2,202,16,J,0,right,0.9531330619938672,1,0,,,,,,,,,,,,,,,,,,,,,1,,,,,,,,,,,,,,,,,,,,,,,,,,,,,,,,,,,,,,,,,,,,,,96,151702,20,Female,1,2024/03/15_16:13:51,YZ,None,
,,,,,,calibration,0,21,2,202,17,N,1,left,0.8204746829869691,1,0,,,,,,,,,,,,,,,,,,,,,1,,,,,,,,,,,,,,,,,,,,,,,,,,,,,,,,,,,,,,,,,,,,,,96,151702,20,Female,1,2024/03/15_16:13:51,YZ,None,
,,,,,,calibration,0,21,2,202,18,Q,0,right,0.4529099589854013,1,0,,,,,,,,,,,,,,,,,,,,,1,,,,,,,,,,,,,,,,,,,,,,,,,,,,,,,,,,,,,,,,,,,,,,96,151702,20,Female,1,2024/03/15_16:13:51,YZ,None,
,,,,,,calibration,0,21,2,202,19,F,0,right,0.5764120309904683,1,0,,,,,,,,,,,,,,,,,,,,,1,,,,,,,,,,,,,,,,,,,,,,,,,,,,,,,,,,,,,,,,,,,,,,96,151702,20,Female,1,2024/03/15_16:13:51,YZ,None,
,,,,,,calibration,0,21,2,202,20,C,0,right,0.5354430690058507,1,0,,,,,,,,,,,,,,,,,,,,,1,,,,,,,,,,,,,,,,,,,,,,,,,,,,,,,,,,,,,,,,,,,,,,96,151702,20,Female,1,2024/03/15_16:13:51,YZ,None,
,,,,,,calibration,0,21,2,202,21,V,0,right,0.851982402993599,1,0,,,,,,,,,,,,,,,,,,,,,1,,,,,,,,,,,,,,,,,,,,,,,,,,,,,,,,,,,,,,,,,,,,,,96,151702,20,Female,1,2024/03/15_16:13:51,YZ,None,
,,,,,,calibration,0,21,2,202,,,,,,,,1.0,1.0,0.0,1.0,0.0,1.0,0.6761197418548234,6,0,0,0,0,15,21,6,15,0,,,,1,,,,,,,,,,,,,,,,,,,,,,,,,,,,,,,,,,,,,,,,,,,,,,96,151702,20,Female,1,2024/03/15_16:13:51,YZ,None,
,,,,,,Calibration,0,,2,202,,,,,,,,,,,,,,,,,,,,,,,,,7,,,1,,,,,,,,,,,,,,,,,,,,,,,,,,,,,,,,,,,,,,,,,,,,,,96,151702,20,Female,1,2024/03/15_16:13:51,YZ,None,
,,,,,,calibration,0,20,2,159,1,F,0,right,0.5242309939931147,1,0,,,,,,,,,,,,,,,,,,,,,1,,,,,,,,,,,,,,,,,,,,,,,,,,,,,,,,,,,,,,,,,,,,,,96,151702,20,Female,1,2024/03/15_16:13:51,YZ,None,
,,,,,,calibration,0,20,2,159,2,Q,0,right,0.41165691599599086,1,0,,,,,,,,,,,,,,,,,,,,,1,,,,,,,,,,,,,,,,,,,,,,,,,,,,,,,,,,,,,,,,,,,,,,96,151702,20,Female,1,2024/03/15_16:13:51,YZ,None,
,,,,,,calibration,0,20,2,159,3,J,0,right,0.6111487550078891,1,0,,,,,,,,,,,,,,,,,,,,,1,,,,,,,,,,,,,,,,,,,,,,,,,,,,,,,,,,,,,,,,,,,,,,96,151702,20,Female,1,2024/03/15_16:13:51,YZ,None,
,,,,,,calibration,0,20,2,159,4,V,0,right,0.558894893998513,1,0,,,,,,,,,,,,,,,,,,,,,1,,,,,,,,,,,,,,,,,,,,,,,,,,,,,,,,,,,,,,,,,,,,,,96,151702,20,Female,1,2024/03/15_16:13:51,YZ,None,
,,,,,,calibration,0,20,2,159,5,J,1,right,nan,0,1,,,,,,,,,,,,,,,,,,,,,1,,,,,,,,,,,,,,,,,,,,,,,,,,,,,,,,,,,,,,,,,,,,,,96,151702,20,Female,1,2024/03/15_16:13:51,YZ,None,
,,,,,,calibration,0,20,2,159,6,C,0,right,0.6815393099968787,1,0,,,,,,,,,,,,,,,,,,,,,1,,,,,,,,,,,,,,,,,,,,,,,,,,,,,,,,,,,,,,,,,,,,,,96,151702,20,Female,1,2024/03/15_16:13:51,YZ,None,
,,,,,,calibration,0,20,2,159,7,S,0,right,0.7411437249975279,1,0,,,,,,,,,,,,,,,,,,,,,1,,,,,,,,,,,,,,,,,,,,,,,,,,,,,,,,,,,,,,,,,,,,,,96,151702,20,Female,1,2024/03/15_16:13:51,YZ,None,
,,,,,,calibration,0,20,2,159,8,F,0,right,nan,0,1,,,,,,,,,,,,,,,,,,,,,1,,,,,,,,,,,,,,,,,,,,,,,,,,,,,,,,,,,,,,,,,,,,,,96,151702,20,Female,1,2024/03/15_16:13:51,YZ,None,
,,,,,,calibration,0,20,2,159,9,S,1,left,0.7817448940186296,1,0,,,,,,,,,,,,,,,,,,,,,1,,,,,,,,,,,,,,,,,,,,,,,,,,,,,,,,,,,,,,,,,,,,,,96,151702,20,Female,1,2024/03/15_16:13:51,YZ,None,
,,,,,,calibration,0,20,2,159,10,V,0,right,0.647940953989746,1,0,,,,,,,,,,,,,,,,,,,,,1,,,,,,,,,,,,,,,,,,,,,,,,,,,,,,,,,,,,,,,,,,,,,,96,151702,20,Female,1,2024/03/15_16:13:51,YZ,None,
,,,,,,calibration,0,20,2,159,11,N,0,right,nan,0,1,,,,,,,,,,,,,,,,,,,,,1,,,,,,,,,,,,,,,,,,,,,,,,,,,,,,,,,,,,,,,,,,,,,,96,151702,20,Female,1,2024/03/15_16:13:51,YZ,None,
,,,,,,calibration,0,20,2,159,12,F,0,right,0.6750590260198805,1,0,,,,,,,,,,,,,,,,,,,,,1,,,,,,,,,,,,,,,,,,,,,,,,,,,,,,,,,,,,,,,,,,,,,,96,151702,20,Female,1,2024/03/15_16:13:51,YZ,None,
,,,,,,calibration,0,20,2,159,13,N,1,left,0.6522066989855375,1,0,,,,,,,,,,,,,,,,,,,,,1,,,,,,,,,,,,,,,,,,,,,,,,,,,,,,,,,,,,,,,,,,,,,,96,151702,20,Female,1,2024/03/15_16:13:51,YZ,None,
,,,,,,calibration,0,20,2,159,14,F,1,left,nan,0,1,,,,,,,,,,,,,,,,,,,,,1,,,,,,,,,,,,,,,,,,,,,,,,,,,,,,,,,,,,,,,,,,,,,,96,151702,20,Female,1,2024/03/15_16:13:51,YZ,None,
,,,,,,calibration,0,20,2,159,15,C,0,right,0.7996145670185797,1,0,,,,,,,,,,,,,,,,,,,,,1,,,,,,,,,,,,,,,,,,,,,,,,,,,,,,,,,,,,,,,,,,,,,,96,151702,20,Female,1,2024/03/15_16:13:51,YZ,None,
,,,,,,calibration,0,20,2,159,16,F,1,left,0.7746567789872643,1,0,,,,,,,,,,,,,,,,,,,,,1,,,,,,,,,,,,,,,,,,,,,,,,,,,,,,,,,,,,,,,,,,,,,,96,151702,20,Female,1,2024/03/15_16:13:51,YZ,None,
,,,,,,calibration,0,20,2,159,17,X,0,right,0.5757515779987443,1,0,,,,,,,,,,,,,,,,,,,,,1,,,,,,,,,,,,,,,,,,,,,,,,,,,,,,,,,,,,,,,,,,,,,,96,151702,20,Female,1,2024/03/15_16:13:51,YZ,None,
,,,,,,calibration,0,20,2,159,18,F,1,left,0.6483592599979602,1,0,,,,,,,,,,,,,,,,,,,,,1,,,,,,,,,,,,,,,,,,,,,,,,,,,,,,,,,,,,,,,,,,,,,,96,151702,20,Female,1,2024/03/15_16:13:51,YZ,None,
,,,,,,calibration,0,20,2,159,19,J,0,right,0.6832798809919041,1,0,,,,,,,,,,,,,,,,,,,,,1,,,,,,,,,,,,,,,,,,,,,,,,,,,,,,,,,,,,,,,,,,,,,,96,151702,20,Female,1,2024/03/15_16:13:51,YZ,None,
,,,,,,calibration,0,20,2,159,20,V,0,right,0.615645759011386,1,0,,,,,,,,,,,,,,,,,,,,,1,,,,,,,,,,,,,,,,,,,,,,,,,,,,,,,,,,,,,,,,,,,,,,96,151702,20,Female,1,2024/03/15_16:13:51,YZ,None,
,,,,,,calibration,0,20,2,159,21,N,0,right,nan,0,1,,,,,,,,,,,,,,,,,,,,,1,,,,,,,,,,,,,,,,,,,,,,,,,,,,,,,,,,,,,,,,,,,,,,96,151702,20,Female,1,2024/03/15_16:13:51,YZ,None,
,,,,,,calibration,0,20,2,159,22,X,0,right,0.590891283005476,1,0,,,,,,,,,,,,,,,,,,,,,1,,,,,,,,,,,,,,,,,,,,,,,,,,,,,,,,,,,,,,,,,,,,,,96,151702,20,Female,1,2024/03/15_16:13:51,YZ,None,
,,,,,,calibration,0,20,2,159,,,,,,,,0.9166666666666666,0.6666666666666666,0.0,1.0,0.22727272727272727,0.7727272727272727,0.6455156043538248,4,0,2,3,5,13,17,6,16,0,,,,1,,,,,,,,,,,,,,,,,,,,,,,,,,,,,,,,,,,,,,,,,,,,,,96,151702,20,Female,1,2024/03/15_16:13:51,YZ,None,
,,,,,,Calibration,0,,2,159,,,,,,,,,,,,,,,,,,,,,,,,,8,,,1,,,,,,,,,,,,,,,,,,,,,,,,,,,,,,,,,,,,,,,,,,,,,,96,151702,20,Female,1,2024/03/15_16:13:51,YZ,None,
,,,,,,calibration,0,3,2,120,1,S,0,right,0.9667604689893778,1,0,,,,,,,,,,,,,,,,,,,,,1,,,,,,,,,,,,,,,,,,,,,,,,,,,,,,,,,,,,,,,,,,,,,,96,151702,20,Female,1,2024/03/15_16:13:51,YZ,None,
,,,,,,calibration,0,3,2,120,2,J,0,right,0.540729424013989,1,0,,,,,,,,,,,,,,,,,,,,,1,,,,,,,,,,,,,,,,,,,,,,,,,,,,,,,,,,,,,,,,,,,,,,96,151702,20,Female,1,2024/03/15_16:13:51,YZ,None,
,,,,,,calibration,0,3,2,120,3,S,1,left,0.5659501320042182,1,0,,,,,,,,,,,,,,,,,,,,,1,,,,,,,,,,,,,,,,,,,,,,,,,,,,,,,,,,,,,,,,,,,,,,96,151702,20,Female,1,2024/03/15_16:13:51,YZ,None,
,,,,,,calibration,0,3,2,120,4,Q,0,right,0.5242529190145433,1,0,,,,,,,,,,,,,,,,,,,,,1,,,,,,,,,,,,,,,,,,,,,,,,,,,,,,,,,,,,,,,,,,,,,,96,151702,20,Female,1,2024/03/15_16:13:51,YZ,None,
,,,,,,calibration,0,3,2,120,5,N,0,right,0.638918657990871,1,0,,,,,,,,,,,,,,,,,,,,,1,,,,,,,,,,,,,,,,,,,,,,,,,,,,,,,,,,,,,,,,,,,,,,96,151702,20,Female,1,2024/03/15_16:13:51,YZ,None,
,,,,,,calibration,0,3,2,120,6,Q,1,right,nan,0,1,,,,,,,,,,,,,,,,,,,,,1,,,,,,,,,,,,,,,,,,,,,,,,,,,,,,,,,,,,,,,,,,,,,,96,151702,20,Female,1,2024/03/15_16:13:51,YZ,None,
,,,,,,calibration,0,3,2,120,7,N,1,left,0.6594689179910347,1,0,,,,,,,,,,,,,,,,,,,,,1,,,,,,,,,,,,,,,,,,,,,,,,,,,,,,,,,,,,,,,,,,,,,,96,151702,20,Female,1,2024/03/15_16:13:51,YZ,None,
,,,,,,calibration,0,3,2,120,8,V,0,right,0.6585971329768654,1,0,,,,,,,,,,,,,,,,,,,,,1,,,,,,,,,,,,,,,,,,,,,,,,,,,,,,,,,,,,,,,,,,,,,,96,151702,20,Female,1,2024/03/15_16:13:51,YZ,None,
,,,,,,calibration,0,3,2,120,9,N,1,left,0.7856720350100659,1,0,,,,,,,,,,,,,,,,,,,,,1,,,,,,,,,,,,,,,,,,,,,,,,,,,,,,,,,,,,,,,,,,,,,,96,151702,20,Female,1,2024/03/15_16:13:51,YZ,None,
,,,,,,calibration,0,3,2,120,10,F,0,right,0.4325785819964949,1,0,,,,,,,,,,,,,,,,,,,,,1,,,,,,,,,,,,,,,,,,,,,,,,,,,,,,,,,,,,,,,,,,,,,,96,151702,20,Female,1,2024/03/15_16:13:51,YZ,None,
,,,,,,calibration,0,3,2,120,11,X,0,right,0.49652963201515377,1,0,,,,,,,,,,,,,,,,,,,,,1,,,,,,,,,,,,,,,,,,,,,,,,,,,,,,,,,,,,,,,,,,,,,,96,151702,20,Female,1,2024/03/15_16:13:51,YZ,None,
,,,,,,calibration,0,3,2,120,12,F,1,left,0.560994336992735,1,0,,,,,,,,,,,,,,,,,,,,,1,,,,,,,,,,,,,,,,,,,,,,,,,,,,,,,,,,,,,,,,,,,,,,96,151702,20,Female,1,2024/03/15_16:13:51,YZ,None,
,,,,,,calibration,0,3,2,120,13,Q,0,right,0.5418009200075176,1,0,,,,,,,,,,,,,,,,,,,,,1,,,,,,,,,,,,,,,,,,,,,,,,,,,,,,,,,,,,,,,,,,,,,,96,151702,20,Female,1,2024/03/15_16:13:51,YZ,None,
,,,,,,calibration,0,3,2,120,14,F,1,left,0.8080069529823959,1,0,,,,,,,,,,,,,,,,,,,,,1,,,,,,,,,,,,,,,,,,,,,,,,,,,,,,,,,,,,,,,,,,,,,,96,151702,20,Female,1,2024/03/15_16:13:51,YZ,None,
,,,,,,calibration,0,3,2,120,15,S,0,right,0.6718782029929571,1,0,,,,,,,,,,,,,,,,,,,,,1,,,,,,,,,,,,,,,,,,,,,,,,,,,,,,,,,,,,,,,,,,,,,,96,151702,20,Female,1,2024/03/15_16:13:51,YZ,None,
,,,,,,calibration,0,3,2,120,16,Q,0,right,0.6728245429985691,1,0,,,,,,,,,,,,,,,,,,,,,1,,,,,,,,,,,,,,,,,,,,,,,,,,,,,,,,,,,,,,,,,,,,,,96,151702,20,Female,1,2024/03/15_16:13:51,YZ,None,
,,,,,,calibration,0,3,2,120,17,V,0,right,0.5915062270069029,1,0,,,,,,,,,,,,,,,,,,,,,1,,,,,,,,,,,,,,,,,,,,,,,,,,,,,,,,,,,,,,,,,,,,,,96,151702,20,Female,1,2024/03/15_16:13:51,YZ,None,
,,,,,,calibration,0,3,2,120,18,N,0,right,nan,0,1,,,,,,,,,,,,,,,,,,,,,1,,,,,,,,,,,,,,,,,,,,,,,,,,,,,,,,,,,,,,,,,,,,,,96,151702,20,Female,1,2024/03/15_16:13:51,YZ,None,
,,,,,,calibration,0,3,2,120,19,X,0,right,0.9907349679851905,1,0,,,,,,,,,,,,,,,,,,,,,1,,,,,,,,,,,,,,,,,,,,,,,,,,,,,,,,,,,,,,,,,,,,,,96,151702,20,Female,1,2024/03/15_16:13:51,YZ,None,
,,,,,,calibration,0,3,2,120,20,V,0,right,0.7494656300114002,1,0,,,,,,,,,,,,,,,,,,,,,1,,,,,,,,,,,,,,,,,,,,,,,,,,,,,,,,,,,,,,,,,,,,,,96,151702,20,Female,1,2024/03/15_16:13:51,YZ,None,
,,,,,,calibration,0,3,2,120,21,Q,0,right,0.6417513139895163,1,0,,,,,,,,,,,,,,,,,,,,,1,,,,,,,,,,,,,,,,,,,,,,,,,,,,,,,,,,,,,,,,,,,,,,96,151702,20,Female,1,2024/03/15_16:13:51,YZ,None,
,,,,,,calibration,0,3,2,120,22,J,0,right,0.49726869800360873,1,0,,,,,,,,,,,,,,,,,,,,,1,,,,,,,,,,,,,,,,,,,,,,,,,,,,,,,,,,,,,,,,,,,,,,96,151702,20,Female,1,2024/03/15_16:13:51,YZ,None,
,,,,,,calibration,0,3,2,120,23,Q,1,left,0.7134926720173098,1,0,,,,,,,,,,,,,,,,,,,,,1,,,,,,,,,,,,,,,,,,,,,,,,,,,,,,,,,,,,,,,,,,,,,,96,151702,20,Female,1,2024/03/15_16:13:51,YZ,None,
,,,,,,calibration,0,3,2,120,,,,,,,,0.9642857142857143,0.8571428571428571,0.0,1.0,0.08695652173913043,0.9130434782608696,0.6528182079519389,6,0,1,1,2,15,21,7,16,0,,,,1,,,,,,,,,,,,,,,,,,,,,,,,,,,,,,,,,,,,,,,,,,,,,,96,151702,20,Female,1,2024/03/15_16:13:51,YZ,None,
,,,,,,Calibration,0,,2,120,,,,,,,,,,,,,,,,,,,,,,,,,9,,,1,,,,,,,,,,,,,,,,,,,,,,,,,,,,,,,,,,,,,,,,,,,,,,96,151702,20,Female,1,2024/03/15_16:13:51,YZ,None,
,,,,,,calibration,0,16,2,83,1,C,0,right,0.5499637640023138,1,0,,,,,,,,,,,,,,,,,,,,,1,,,,,,,,,,,,,,,,,,,,,,,,,,,,,,,,,,,,,,,,,,,,,,96,151702,20,Female,1,2024/03/15_16:13:51,YZ,None,
,,,,,,calibration,0,16,2,83,2,J,0,right,0.4372531420085579,1,0,,,,,,,,,,,,,,,,,,,,,1,,,,,,,,,,,,,,,,,,,,,,,,,,,,,,,,,,,,,,,,,,,,,,96,151702,20,Female,1,2024/03/15_16:13:51,YZ,None,
,,,,,,calibration,0,16,2,83,3,C,1,left,0.6284171440056525,1,0,,,,,,,,,,,,,,,,,,,,,1,,,,,,,,,,,,,,,,,,,,,,,,,,,,,,,,,,,,,,,,,,,,,,96,151702,20,Female,1,2024/03/15_16:13:51,YZ,None,
,,,,,,calibration,0,16,2,83,4,F,0,right,0.6179542830213904,1,0,,,,,,,,,,,,,,,,,,,,,1,,,,,,,,,,,,,,,,,,,,,,,,,,,,,,,,,,,,,,,,,,,,,,96,151702,20,Female,1,2024/03/15_16:13:51,YZ,None,
,,,,,,calibration,0,16,2,83,5,C,1,left,0.8525905440037604,1,0,,,,,,,,,,,,,,,,,,,,,1,,,,,,,,,,,,,,,,,,,,,,,,,,,,,,,,,,,,,,,,,,,,,,96,151702,20,Female,1,2024/03/15_16:13:51,YZ,None,
,,,,,,calibration,0,16,2,83,6,V,0,right,0.6263168699806556,1,0,,,,,,,,,,,,,,,,,,,,,1,,,,,,,,,,,,,,,,,,,,,,,,,,,,,,,,,,,,,,,,,,,,,,96,151702,20,Female,1,2024/03/15_16:13:51,YZ,None,
,,,,,,calibration,0,16,2,83,7,N,0,right,0.590273346984759,1,0,,,,,,,,,,,,,,,,,,,,,1,,,,,,,,,,,,,,,,,,,,,,,,,,,,,,,,,,,,,,,,,,,,,,96,151702,20,Female,1,2024/03/15_16:13:51,YZ,None,
,,,,,,calibration,0,16,2,83,8,F,0,right,0.6250490890233777,1,0,,,,,,,,,,,,,,,,,,,,,1,,,,,,,,,,,,,,,,,,,,,,,,,,,,,,,,,,,,,,,,,,,,,,96,151702,20,Female,1,2024/03/15_16:13:51,YZ,None,
,,,,,,calibration,0,16,2,83,9,J,0,right,0.775015749008162,1,0,,,,,,,,,,,,,,,,,,,,,1,,,,,,,,,,,,,,,,,,,,,,,,,,,,,,,,,,,,,,,,,,,,,,96,151702,20,Female,1,2024/03/15_16:13:51,YZ,None,
,,,,,,calibration,0,16,2,83,10,V,0,right,0.7205178299918771,1,0,,,,,,,,,,,,,,,,,,,,,1,,,,,,,,,,,,,,,,,,,,,,,,,,,,,,,,,,,,,,,,,,,,,,96,151702,20,Female,1,2024/03/15_16:13:51,YZ,None,
,,,,,,calibration,0,16,2,83,11,X,0,right,0.5633994950039778,1,0,,,,,,,,,,,,,,,,,,,,,1,,,,,,,,,,,,,,,,,,,,,,,,,,,,,,,,,,,,,,,,,,,,,,96,151702,20,Female,1,2024/03/15_16:13:51,YZ,None,
,,,,,,calibration,0,16,2,83,12,S,0,right,0.4567820839874912,1,0,,,,,,,,,,,,,,,,,,,,,1,,,,,,,,,,,,,,,,,,,,,,,,,,,,,,,,,,,,,,,,,,,,,,96,151702,20,Female,1,2024/03/15_16:13:51,YZ,None,
,,,,,,calibration,0,16,2,83,13,J,0,right,0.8502788559999317,1,0,,,,,,,,,,,,,,,,,,,,,1,,,,,,,,,,,,,,,,,,,,,,,,,,,,,,,,,,,,,,,,,,,,,,96,151702,20,Female,1,2024/03/15_16:13:51,YZ,None,
,,,,,,calibration,0,16,2,83,14,Q,0,right,0.5752887300041039,1,0,,,,,,,,,,,,,,,,,,,,,1,,,,,,,,,,,,,,,,,,,,,,,,,,,,,,,,,,,,,,,,,,,,,,96,151702,20,Female,1,2024/03/15_16:13:51,YZ,None,
,,,,,,calibration,0,16,2,83,15,J,1,right,0.7585865340079181,0,0,,,,,,,,,,,,,,,,,,,,,1,,,,,,,,,,,,,,,,,,,,,,,,,,,,,,,,,,,,,,,,,,,,,,96,151702,20,Female,1,2024/03/15_16:13:51,YZ,None,
,,,,,,calibration,0,16,2,83,16,Q,1,right,nan,0,1,,,,,,,,,,,,,,,,,,,,,1,,,,,,,,,,,,,,,,,,,,,,,,,,,,,,,,,,,,,,,,,,,,,,96,151702,20,Female,1,2024/03/15_16:13:51,YZ,None,
,,,,,,calibration,0,16,2,83,17,X,0,right,0.5123981270007789,1,0,,,,,,,,,,,,,,,,,,,,,1,,,,,,,,,,,,,,,,,,,,,,,,,,,,,,,,,,,,,,,,,,,,,,96,151702,20,Female,1,2024/03/15_16:13:51,YZ,None,
,,,,,,calibration,0,16,2,83,18,V,0,right,0.5983354590134695,1,0,,,,,,,,,,,,,,,,,,,,,1,,,,,,,,,,,,,,,,,,,,,,,,,,,,,,,,,,,,,,,,,,,,,,96,151702,20,Female,1,2024/03/15_16:13:51,YZ,None,
,,,,,,calibration,0,16,2,83,19,S,0,right,0.5408247000013944,1,0,,,,,,,,,,,,,,,,,,,,,1,,,,,,,,,,,,,,,,,,,,,,,,,,,,,,,,,,,,,,,,,,,,,,96,151702,20,Female,1,2024/03/15_16:13:51,YZ,None,
,,,,,,calibration,0,16,2,83,20,V,1,right,0.6638385069963988,0,0,,,,,,,,,,,,,,,,,,,,,1,,,,,,,,,,,,,,,,,,,,,,,,,,,,,,,,,,,,,,,,,,,,,,96,151702,20,Female,1,2024/03/15_16:13:51,YZ,None,
,,,,,,calibration,0,16,2,83,21,S,1,right,0.5822124870028347,0,0,,,,,,,,,,,,,,,,,,,,,1,,,,,,,,,,,,,,,,,,,,,,,,,,,,,,,,,,,,,,,,,,,,,,96,151702,20,Female,1,2024/03/15_16:13:51,YZ,None,
,,,,,,calibration,0,16,2,83,22,N,0,right,0.29945844202302396,1,0,,,,,,,,,,,,,,,,,,,,,1,,,,,,,,,,,,,,,,,,,,,,,,,,,,,,,,,,,,,,,,,,,,,,96,151702,20,Female,1,2024/03/15_16:13:51,YZ,None,
,,,,,,calibration,0,16,2,83,23,F,0,left,0.9729349679837469,0,0,,,,,,,,,,,,,,,,,,,,,1,,,,,,,,,,,,,,,,,,,,,,,,,,,,,,,,,,,,,,,,,,,,,,96,151702,20,Female,1,2024/03/15_16:13:51,YZ,None,
,,,,,,calibration,0,16,2,83,24,J,0,left,nan,0,1,,,,,,,,,,,,,,,,,,,,,1,,,,,,,,,,,,,,,,,,,,,,,,,,,,,,,,,,,,,,,,,,,,,,96,151702,20,Female,1,2024/03/15_16:13:51,YZ,None,
,,,,,,calibration,0,16,2,83,,,,,,,,0.7777777777777778,0.3333333333333333,0.05555555555555555,0.9411764705882353,0.08333333333333333,0.861111111111111,0.6271677341388898,2,1,1,1,2,16,18,6,18,0,,,,1,,,,,,,,,,,,,,,,,,,,,,,,,,,,,,,,,,,,,,,,,,,,,,96,151702,20,Female,1,2024/03/15_16:13:51,YZ,None,
,,,,,,Calibration,0,,2,83,,,,,,,,,,,,,,,,,,,,,,,,,10,,,1,,,,,,,,,,,,,,,,,,,,,,,,,,,,,,,,,,,,,,,,,,,,,,96,151702,20,Female,1,2024/03/15_16:13:51,YZ,None,
,,,,,,calibration,0,18,2,83,1,C,0,right,0.837704940000549,1,0,,,,,,,,,,,,,,,,,,,,,1,,,,,,,,,,,,,,,,,,,,,,,,,,,,,,,,,,,,,,,,,,,,,,96,151702,20,Female,1,2024/03/15_16:13:51,YZ,None,
,,,,,,calibration,0,18,2,83,2,V,0,right,0.46305643298546784,1,0,,,,,,,,,,,,,,,,,,,,,1,,,,,,,,,,,,,,,,,,,,,,,,,,,,,,,,,,,,,,,,,,,,,,96,151702,20,Female,1,2024/03/15_16:13:51,YZ,None,
,,,,,,calibration,0,18,2,83,3,J,0,right,0.38869008200708777,1,0,,,,,,,,,,,,,,,,,,,,,1,,,,,,,,,,,,,,,,,,,,,,,,,,,,,,,,,,,,,,,,,,,,,,96,151702,20,Female,1,2024/03/15_16:13:51,YZ,None,
,,,,,,calibration,0,18,2,83,4,V,1,left,0.6920293989824131,1,0,,,,,,,,,,,,,,,,,,,,,1,,,,,,,,,,,,,,,,,,,,,,,,,,,,,,,,,,,,,,,,,,,,,,96,151702,20,Female,1,2024/03/15_16:13:51,YZ,None,
,,,,,,calibration,0,18,2,83,5,N,0,right,0.4615715070103761,1,0,,,,,,,,,,,,,,,,,,,,,1,,,,,,,,,,,,,,,,,,,,,,,,,,,,,,,,,,,,,,,,,,,,,,96,151702,20,Female,1,2024/03/15_16:13:51,YZ,None,
,,,,,,calibration,0,18,2,83,6,C,0,right,0.4604593880067114,1,0,,,,,,,,,,,,,,,,,,,,,1,,,,,,,,,,,,,,,,,,,,,,,,,,,,,,,,,,,,,,,,,,,,,,96,151702,20,Female,1,2024/03/15_16:13:51,YZ,None,
,,,,,,calibration,0,18,2,83,7,F,0,right,0.5893916919885669,1,0,,,,,,,,,,,,,,,,,,,,,1,,,,,,,,,,,,,,,,,,,,,,,,,,,,,,,,,,,,,,,,,,,,,,96,151702,20,Female,1,2024/03/15_16:13:51,YZ,None,
,,,,,,calibration,0,18,2,83,8,C,1,right,0.4915933969896287,0,0,,,,,,,,,,,,,,,,,,,,,1,,,,,,,,,,,,,,,,,,,,,,,,,,,,,,,,,,,,,,,,,,,,,,96,151702,20,Female,1,2024/03/15_16:13:51,YZ,None,
,,,,,,calibration,0,18,2,83,9,F,1,left,0.5582327639858704,1,0,,,,,,,,,,,,,,,,,,,,,1,,,,,,,,,,,,,,,,,,,,,,,,,,,,,,,,,,,,,,,,,,,,,,96,151702,20,Female,1,2024/03/15_16:13:51,YZ,None,
,,,,,,calibration,0,18,2,83,10,N,0,right,0.48395518798497505,1,0,,,,,,,,,,,,,,,,,,,,,1,,,,,,,,,,,,,,,,,,,,,,,,,,,,,,,,,,,,,,,,,,,,,,96,151702,20,Female,1,2024/03/15_16:13:51,YZ,None,
,,,,,,calibration,0,18,2,83,11,F,1,left,0.51031246400089,1,0,,,,,,,,,,,,,,,,,,,,,1,,,,,,,,,,,,,,,,,,,,,,,,,,,,,,,,,,,,,,,,,,,,,,96,151702,20,Female,1,2024/03/15_16:13:51,YZ,None,
,,,,,,calibration,0,18,2,83,12,X,0,right,0.4813910329830833,1,0,,,,,,,,,,,,,,,,,,,,,1,,,,,,,,,,,,,,,,,,,,,,,,,,,,,,,,,,,,,,,,,,,,,,96,151702,20,Female,1,2024/03/15_16:13:51,YZ,None,
,,,,,,calibration,0,18,2,83,13,V,0,right,0.5440686090150848,1,0,,,,,,,,,,,,,,,,,,,,,1,,,,,,,,,,,,,,,,,,,,,,,,,,,,,,,,,,,,,,,,,,,,,,96,151702,20,Female,1,2024/03/15_16:13:51,YZ,None,
,,,,,,calibration,0,18,2,83,14,X,1,right,0.874606055993354,0,0,,,,,,,,,,,,,,,,,,,,,1,,,,,,,,,,,,,,,,,,,,,,,,,,,,,,,,,,,,,,,,,,,,,,96,151702,20,Female,1,2024/03/15_16:13:51,YZ,None,
,,,,,,calibration,0,18,2,83,15,N,0,right,0.744043040991528,1,0,,,,,,,,,,,,,,,,,,,,,1,,,,,,,,,,,,,,,,,,,,,,,,,,,,,,,,,,,,,,,,,,,,,,96,151702,20,Female,1,2024/03/15_16:13:51,YZ,None,
,,,,,,calibration,0,18,2,83,16,V,0,right,0.9756660010025371,1,0,,,,,,,,,,,,,,,,,,,,,1,,,,,,,,,,,,,,,,,,,,,,,,,,,,,,,,,,,,,,,,,,,,,,96,151702,20,Female,1,2024/03/15_16:13:51,YZ,None,
,,,,,,calibration,0,18,2,83,17,F,0,right,nan,0,1,,,,,,,,,,,,,,,,,,,,,1,,,,,,,,,,,,,,,,,,,,,,,,,,,,,,,,,,,,,,,,,,,,,,96,151702,20,Female,1,2024/03/15_16:13:51,YZ,None,
,,,,,,calibration,0,18,2,83,18,J,0,right,0.6405610530055128,1,0,,,,,,,,,,,,,,,,,,,,,1,,,,,,,,,,,,,,,,,,,,,,,,,,,,,,,,,,,,,,,,,,,,,,96,151702,20,Female,1,2024/03/15_16:13:51,YZ,None,
,,,,,,calibration,0,18,2,83,19,F,1,right,0.729504688992165,0,0,,,,,,,,,,,,,,,,,,,,,1,,,,,,,,,,,,,,,,,,,,,,,,,,,,,,,,,,,,,,,,,,,,,,96,151702,20,Female,1,2024/03/15_16:13:51,YZ,None,
,,,,,,calibration,0,18,2,83,20,X,0,right,0.512100758991437,1,0,,,,,,,,,,,,,,,,,,,,,1,,,,,,,,,,,,,,,,,,,,,,,,,,,,,,,,,,,,,,,,,,,,,,96,151702,20,Female,1,2024/03/15_16:13:51,YZ,None,
,,,,,,calibration,0,18,2,83,21,J,0,right,0.5752420030185021,1,0,,,,,,,,,,,,,,,,,,,,,1,,,,,,,,,,,,,,,,,,,,,,,,,,,,,,,,,,,,,,,,,,,,,,96,151702,20,Female,1,2024/03/15_16:13:51,YZ,None,
,,,,,,calibration,0,18,2,83,22,X,1,left,0.6848079769988544,1,0,,,,,,,,,,,,,,,,,,,,,1,,,,,,,,,,,,,,,,,,,,,,,,,,,,,,,,,,,,,,,,,,,,,,96,151702,20,Female,1,2024/03/15_16:13:51,YZ,None,
,,,,,,calibration,0,18,2,83,23,J,1,right,0.7279681390209589,0,0,,,,,,,,,,,,,,,,,,,,,1,,,,,,,,,,,,,,,,,,,,,,,,,,,,,,,,,,,,,,,,,,,,,,96,151702,20,Female,1,2024/03/15_16:13:51,YZ,None,
,,,,,,calibration,0,18,2,83,24,V,0,right,0.6268339939997531,1,0,,,,,,,,,,,,,,,,,,,,,1,,,,,,,,,,,,,,,,,,,,,,,,,,,,,,,,,,,,,,,,,,,,,,96,151702,20,Female,1,2024/03/15_16:13:51,YZ,None,
,,,,,,calibration,0,18,2,83,,,,,,,,0.875,0.5,0.0,1.0,0.041666666666666664,0.9583333333333334,0.6110343742589264,4,0,0,1,1,15,19,8,16,0,,,,1,,,,,,,,,,,,,,,,,,,,,,,,,,,,,,,,,,,,,,,,,,,,,,96,151702,20,Female,1,2024/03/15_16:13:51,YZ,None,
,,,,,,Calibration,0,,2,83,,,,,,,,,,,,,,,,,,,,,,,,,11,,,1,,,,,,,,,,,,,,,,,,,,,,,,,,,,,,,,,,,,,,,,,,,,,,96,151702,20,Female,1,2024/03/15_16:13:51,YZ,None,
,,,,,,calibration,0,12,2,50,1,N,0,right,0.6070058070181403,1,0,,,,,,,,,,,,,,,,,,,,,1,,,,,,,,,,,,,,,,,,,,,,,,,,,,,,,,,,,,,,,,,,,,,,96,151702,20,Female,1,2024/03/15_16:13:51,YZ,None,
,,,,,,calibration,0,12,2,50,2,V,0,right,0.2923128609836567,1,0,,,,,,,,,,,,,,,,,,,,,1,,,,,,,,,,,,,,,,,,,,,,,,,,,,,,,,,,,,,,,,,,,,,,96,151702,20,Female,1,2024/03/15_16:13:51,YZ,None,
,,,,,,calibration,0,12,2,50,3,N,1,left,0.6477593549934682,1,0,,,,,,,,,,,,,,,,,,,,,1,,,,,,,,,,,,,,,,,,,,,,,,,,,,,,,,,,,,,,,,,,,,,,96,151702,20,Female,1,2024/03/15_16:13:51,YZ,None,
,,,,,,calibration,0,12,2,50,4,C,0,right,0.4773740479722619,1,0,,,,,,,,,,,,,,,,,,,,,1,,,,,,,,,,,,,,,,,,,,,,,,,,,,,,,,,,,,,,,,,,,,,,96,151702,20,Female,1,2024/03/15_16:13:51,YZ,None,
,,,,,,calibration,0,12,2,50,5,F,0,right,0.7143909730075393,1,0,,,,,,,,,,,,,,,,,,,,,1,,,,,,,,,,,,,,,,,,,,,,,,,,,,,,,,,,,,,,,,,,,,,,96,151702,20,Female,1,2024/03/15_16:13:51,YZ,None,
,,,,,,calibration,0,12,2,50,6,V,0,left,0.5314206809853204,0,0,,,,,,,,,,,,,,,,,,,,,1,,,,,,,,,,,,,,,,,,,,,,,,,,,,,,,,,,,,,,,,,,,,,,96,151702,20,Female,1,2024/03/15_16:13:51,YZ,None,
,,,,,,calibration,0,12,2,50,7,X,0,right,0.6006917659833562,1,0,,,,,,,,,,,,,,,,,,,,,1,,,,,,,,,,,,,,,,,,,,,,,,,,,,,,,,,,,,,,,,,,,,,,96,151702,20,Female,1,2024/03/15_16:13:51,YZ,None,
,,,,,,calibration,0,12,2,50,8,N,0,right,0.6484847049869131,1,0,,,,,,,,,,,,,,,,,,,,,1,,,,,,,,,,,,,,,,,,,,,,,,,,,,,,,,,,,,,,,,,,,,,,96,151702,20,Female,1,2024/03/15_16:13:51,YZ,None,
,,,,,,calibration,0,12,2,50,9,C,0,right,0.6242940340016503,1,0,,,,,,,,,,,,,,,,,,,,,1,,,,,,,,,,,,,,,,,,,,,,,,,,,,,,,,,,,,,,,,,,,,,,96,151702,20,Female,1,2024/03/15_16:13:51,YZ,None,
,,,,,,calibration,0,12,2,50,10,N,1,left,0.6047826069989242,1,0,,,,,,,,,,,,,,,,,,,,,1,,,,,,,,,,,,,,,,,,,,,,,,,,,,,,,,,,,,,,,,,,,,,,96,151702,20,Female,1,2024/03/15_16:13:51,YZ,None,
,,,,,,calibration,0,12,2,50,11,Q,0,right,0.40896474799956195,1,0,,,,,,,,,,,,,,,,,,,,,1,,,,,,,,,,,,,,,,,,,,,,,,,,,,,,,,,,,,,,,,,,,,,,96,151702,20,Female,1,2024/03/15_16:13:51,YZ,None,
,,,,,,calibration,0,12,2,50,12,N,1,left,0.6820356250100303,1,0,,,,,,,,,,,,,,,,,,,,,1,,,,,,,,,,,,,,,,,,,,,,,,,,,,,,,,,,,,,,,,,,,,,,96,151702,20,Female,1,2024/03/15_16:13:51,YZ,None,
,,,,,,calibration,0,12,2,50,13,J,0,right,0.35530326099251397,1,0,,,,,,,,,,,,,,,,,,,,,1,,,,,,,,,,,,,,,,,,,,,,,,,,,,,,,,,,,,,,,,,,,,,,96,151702,20,Female,1,2024/03/15_16:13:51,YZ,None,
,,,,,,calibration,0,12,2,50,14,Q,0,right,0.4250107600237243,1,0,,,,,,,,,,,,,,,,,,,,,1,,,,,,,,,,,,,,,,,,,,,,,,,,,,,,,,,,,,,,,,,,,,,,96,151702,20,Female,1,2024/03/15_16:13:51,YZ,None,
,,,,,,calibration,0,12,2,50,15,F,0,right,0.8835193659760989,1,0,,,,,,,,,,,,,,,,,,,,,1,,,,,,,,,,,,,,,,,,,,,,,,,,,,,,,,,,,,,,,,,,,,,,96,151702,20,Female,1,2024/03/15_16:13:51,YZ,None,
,,,,,,calibration,0,12,2,50,16,Q,1,right,0.2870007070014253,0,0,,,,,,,,,,,,,,,,,,,,,1,,,,,,,,,,,,,,,,,,,,,,,,,,,,,,,,,,,,,,,,,,,,,,96,151702,20,Female,1,2024/03/15_16:13:51,YZ,None,
,,,,,,calibration,0,12,2,50,17,S,0,right,0.3436026160197798,1,0,,,,,,,,,,,,,,,,,,,,,1,,,,,,,,,,,,,,,,,,,,,,,,,,,,,,,,,,,,,,,,,,,,,,96,151702,20,Female,1,2024/03/15_16:13:51,YZ,None,
,,,,,,calibration,0,12,2,50,18,V,0,right,0.29077407700242475,1,0,,,,,,,,,,,,,,,,,,,,,1,,,,,,,,,,,,,,,,,,,,,,,,,,,,,,,,,,,,,,,,,,,,,,96,151702,20,Female,1,2024/03/15_16:13:51,YZ,None,
,,,,,,calibration,0,12,2,50,19,S,1,right,0.3290498520073015,0,0,,,,,,,,,,,,,,,,,,,,,1,,,,,,,,,,,,,,,,,,,,,,,,,,,,,,,,,,,,,,,,,,,,,,96,151702,20,Female,1,2024/03/15_16:13:51,YZ,None,
,,,,,,calibration,0,12,2,50,20,X,0,right,0.32471484801499173,1,0,,,,,,,,,,,,,,,,,,,,,1,,,,,,,,,,,,,,,,,,,,,,,,,,,,,,,,,,,,,,,,,,,,,,96,151702,20,Female,1,2024/03/15_16:13:51,YZ,None,
,,,,,,calibration,0,12,2,50,21,V,0,right,0.3967908470076509,1,0,,,,,,,,,,,,,,,,,,,,,1,,,,,,,,,,,,,,,,,,,,,,,,,,,,,,,,,,,,,,,,,,,,,,96,151702,20,Female,1,2024/03/15_16:13:51,YZ,None,
,,,,,,calibration,0,12,2,50,22,J,0,right,0.5121168539917562,1,0,,,,,,,,,,,,,,,,,,,,,1,,,,,,,,,,,,,,,,,,,,,,,,,,,,,,,,,,,,,,,,,,,,,,96,151702,20,Female,1,2024/03/15_16:13:51,YZ,None,
,,,,,,calibration,0,12,2,50,23,Q,0,right,0.3557872459932696,1,0,,,,,,,,,,,,,,,,,,,,,1,,,,,,,,,,,,,,,,,,,,,,,,,,,,,,,,,,,,,,,,,,,,,,96,151702,20,Female,1,2024/03/15_16:13:51,YZ,None,
,,,,,,calibration,0,12,2,50,24,V,0,right,0.3368905819952488,1,0,,,,,,,,,,,,,,,,,,,,,1,,,,,,,,,,,,,,,,,,,,,,,,,,,,,,,,,,,,,,,,,,,,,,96,151702,20,Female,1,2024/03/15_16:13:51,YZ,None,
,,,,,,calibration,0,12,2,50,25,Q,1,right,0.3366228289960418,0,0,,,,,,,,,,,,,,,,,,,,,1,,,,,,,,,,,,,,,,,,,,,,,,,,,,,,,,,,,,,,,,,,,,,,96,151702,20,Female,1,2024/03/15_16:13:51,YZ,None,
,,,,,,calibration,0,12,2,50,,,,,,,,0.8355263157894737,0.5,0.05263157894736842,0.9473684210526315,0.0,0.9473684210526316,0.480668042198522,3,1,0,0,0,18,21,6,19,0,,,,1,,,,,,,,,,,,,,,,,,,,,,,,,,,,,,,,,,,,,,,,,,,,,,96,151702,20,Female,1,2024/03/15_16:13:51,YZ,None,
,,,,,,Calibration,0,,2,50,,,,,,,,,,,,,,,,,,,,,,,,,12,,,1,,,,,,,,,,,,,,,,,,,,,,,,,,,,,,,,,,,,,,,,,,,,,,96,151702,20,Female,1,2024/03/15_16:13:51,YZ,None,
,,,,,,calibration,0,2,2,50,1,Q,0,right,0.5120082989742514,1,0,,,,,,,,,,,,,,,,,,,,,1,,,,,,,,,,,,,,,,,,,,,,,,,,,,,,,,,,,,,,,,,,,,,,96,151702,20,Female,1,2024/03/15_16:13:51,YZ,None,
,,,,,,calibration,0,2,2,50,2,N,0,right,0.432939432997955,1,0,,,,,,,,,,,,,,,,,,,,,1,,,,,,,,,,,,,,,,,,,,,,,,,,,,,,,,,,,,,,,,,,,,,,96,151702,20,Female,1,2024/03/15_16:13:51,YZ,None,
,,,,,,calibration,0,2,2,50,3,Q,1,left,0.43389097502222285,1,0,,,,,,,,,,,,,,,,,,,,,1,,,,,,,,,,,,,,,,,,,,,,,,,,,,,,,,,,,,,,,,,,,,,,96,151702,20,Female,1,2024/03/15_16:13:51,YZ,None,
,,,,,,calibration,0,2,2,50,4,V,0,right,0.5658584100019652,1,0,,,,,,,,,,,,,,,,,,,,,1,,,,,,,,,,,,,,,,,,,,,,,,,,,,,,,,,,,,,,,,,,,,,,96,151702,20,Female,1,2024/03/15_16:13:51,YZ,None,
,,,,,,calibration,0,2,2,50,5,Q,1,right,nan,0,1,,,,,,,,,,,,,,,,,,,,,1,,,,,,,,,,,,,,,,,,,,,,,,,,,,,,,,,,,,,,,,,,,,,,96,151702,20,Female,1,2024/03/15_16:13:51,YZ,None,
,,,,,,calibration,0,2,2,50,6,N,0,left,0.8578760070085991,0,0,,,,,,,,,,,,,,,,,,,,,1,,,,,,,,,,,,,,,,,,,,,,,,,,,,,,,,,,,,,,,,,,,,,,96,151702,20,Female,1,2024/03/15_16:13:51,YZ,None,
,,,,,,calibration,0,2,2,50,7,V,0,left,0.6103822899749503,0,0,,,,,,,,,,,,,,,,,,,,,1,,,,,,,,,,,,,,,,,,,,,,,,,,,,,,,,,,,,,,,,,,,,,,96,151702,20,Female,1,2024/03/15_16:13:51,YZ,None,
,,,,,,calibration,0,2,2,50,8,N,1,left,0.6566337030089926,1,0,,,,,,,,,,,,,,,,,,,,,1,,,,,,,,,,,,,,,,,,,,,,,,,,,,,,,,,,,,,,,,,,,,,,96,151702,20,Female,1,2024/03/15_16:13:51,YZ,None,
,,,,,,calibration,0,2,2,50,9,S,0,right,0.7417099279991817,1,0,,,,,,,,,,,,,,,,,,,,,1,,,,,,,,,,,,,,,,,,,,,,,,,,,,,,,,,,,,,,,,,,,,,,96,151702,20,Female,1,2024/03/15_16:13:51,YZ,None,
,,,,,,calibration,0,2,2,50,10,Q,0,right,0.5415252459933981,1,0,,,,,,,,,,,,,,,,,,,,,1,,,,,,,,,,,,,,,,,,,,,,,,,,,,,,,,,,,,,,,,,,,,,,96,151702,20,Female,1,2024/03/15_16:13:51,YZ,None,
,,,,,,calibration,0,2,2,50,11,X,0,right,0.5761155920044985,1,0,,,,,,,,,,,,,,,,,,,,,1,,,,,,,,,,,,,,,,,,,,,,,,,,,,,,,,,,,,,,,,,,,,,,96,151702,20,Female,1,2024/03/15_16:13:51,YZ,None,
,,,,,,calibration,0,2,2,50,12,V,0,right,0.5925448820053134,1,0,,,,,,,,,,,,,,,,,,,,,1,,,,,,,,,,,,,,,,,,,,,,,,,,,,,,,,,,,,,,,,,,,,,,96,151702,20,Female,1,2024/03/15_16:13:51,YZ,None,
,,,,,,calibration,0,2,2,50,13,N,0,right,0.5935037260060199,1,0,,,,,,,,,,,,,,,,,,,,,1,,,,,,,,,,,,,,,,,,,,,,,,,,,,,,,,,,,,,,,,,,,,,,96,151702,20,Female,1,2024/03/15_16:13:51,YZ,None,
,,,,,,calibration,0,2,2,50,14,S,0,right,0.6653163570153993,1,0,,,,,,,,,,,,,,,,,,,,,1,,,,,,,,,,,,,,,,,,,,,,,,,,,,,,,,,,,,,,,,,,,,,,96,151702,20,Female,1,2024/03/15_16:13:51,YZ,None,
,,,,,,calibration,0,2,2,50,15,J,0,right,0.5910801560094114,1,0,,,,,,,,,,,,,,,,,,,,,1,,,,,,,,,,,,,,,,,,,,,,,,,,,,,,,,,,,,,,,,,,,,,,96,151702,20,Female,1,2024/03/15_16:13:51,YZ,None,
,,,,,,calibration,0,2,2,50,16,Q,0,right,0.8287293690082151,1,0,,,,,,,,,,,,,,,,,,,,,1,,,,,,,,,,,,,,,,,,,,,,,,,,,,,,,,,,,,,,,,,,,,,,96,151702,20,Female,1,2024/03/15_16:13:51,YZ,None,
,,,,,,calibration,0,2,2,50,17,C,0,right,0.5418776599981356,1,0,,,,,,,,,,,,,,,,,,,,,1,,,,,,,,,,,,,,,,,,,,,,,,,,,,,,,,,,,,,,,,,,,,,,96,151702,20,Female,1,2024/03/15_16:13:51,YZ,None,
,,,,,,calibration,0,2,2,50,18,Q,1,right,nan,0,1,,,,,,,,,,,,,,,,,,,,,1,,,,,,,,,,,,,,,,,,,,,,,,,,,,,,,,,,,,,,,,,,,,,,96,151702,20,Female,1,2024/03/15_16:13:51,YZ,None,
,,,,,,calibration,0,2,2,50,19,S,0,right,0.6074879569932818,1,0,,,,,,,,,,,,,,,,,,,,,1,,,,,,,,,,,,,,,,,,,,,,,,,,,,,,,,,,,,,,,,,,,,,,96,151702,20,Female,1,2024/03/15_16:13:51,YZ,None,
,,,,,,calibration,0,2,2,50,20,N,0,right,0.5611798939935397,1,0,,,,,,,,,,,,,,,,,,,,,1,,,,,,,,,,,,,,,,,,,,,,,,,,,,,,,,,,,,,,,,,,,,,,96,151702,20,Female,1,2024/03/15_16:13:51,YZ,None,
,,,,,,calibration,0,2,2,50,21,S,1,left,0.6665547110023908,1,0,,,,,,,,,,,,,,,,,,,,,1,,,,,,,,,,,,,,,,,,,,,,,,,,,,,,,,,,,,,,,,,,,,,,96,151702,20,Female,1,2024/03/15_16:13:51,YZ,None,
,,,,,,calibration,0,2,2,50,22,N,1,right,0.6582364680070896,0,0,,,,,,,,,,,,,,,,,,,,,1,,,,,,,,,,,,,,,,,,,,,,,,,,,,,,,,,,,,,,,,,,,,,,96,151702,20,Female,1,2024/03/15_16:13:51,YZ,None,
,,,,,,calibration,0,2,2,50,23,X,0,right,0.5782645959989168,1,0,,,,,,,,,,,,,,,,,,,,,1,,,,,,,,,,,,,,,,,,,,,,,,,,,,,,,,,,,,,,,,,,,,,,96,151702,20,Female,1,2024/03/15_16:13:51,YZ,None,
,,,,,,calibration,0,2,2,50,24,C,0,right,0.4612754689878784,1,0,,,,,,,,,,,,,,,,,,,,,1,,,,,,,,,,,,,,,,,,,,,,,,,,,,,,,,,,,,,,,,,,,,,,96,151702,20,Female,1,2024/03/15_16:13:51,YZ,None,
,,,,,,calibration,0,2,2,50,25,J,0,right,0.42098974698456004,1,0,,,,,,,,,,,,,,,,,,,,,1,,,,,,,,,,,,,,,,,,,,,,,,,,,,,,,,,,,,,,,,,,,,,,96,151702,20,Female,1,2024/03/15_16:13:51,YZ,None,
,,,,,,calibration,0,2,2,50,,,,,,,,0.7960526315789473,0.5,0.10526315789473684,0.8947368421052632,0.08,0.8147368421052632,0.5954774293476595,3,2,2,0,2,17,20,6,19,0,,,,1,,,,,,,,,,,,,,,,,,,,,,,,,,,,,,,,,,,,,,,,,,,,,,96,151702,20,Female,1,2024/03/15_16:13:51,YZ,None,
,,,,,,Calibration,0,,2,50,,,,,,,,,,,,,,,,,,,,,,,,,13,,,1,,,,,,,,,,,,,,,,,,,,,,,,,,,,,,,,,,,,,,,,,,,,,,96,151702,20,Female,1,2024/03/15_16:13:51,YZ,None,
,,,,,,calibration,0,15,2,50,1,F,0,right,0.6472569100151304,1,0,,,,,,,,,,,,,,,,,,,,,1,,,,,,,,,,,,,,,,,,,,,,,,,,,,,,,,,,,,,,,,,,,,,,96,151702,20,Female,1,2024/03/15_16:13:51,YZ,None,
,,,,,,calibration,0,15,2,50,2,Q,0,right,0.3191399619972799,1,0,,,,,,,,,,,,,,,,,,,,,1,,,,,,,,,,,,,,,,,,,,,,,,,,,,,,,,,,,,,,,,,,,,,,96,151702,20,Female,1,2024/03/15_16:13:51,YZ,None,
,,,,,,calibration,0,15,2,50,3,C,0,right,0.6138139549875632,1,0,,,,,,,,,,,,,,,,,,,,,1,,,,,,,,,,,,,,,,,,,,,,,,,,,,,,,,,,,,,,,,,,,,,,96,151702,20,Female,1,2024/03/15_16:13:51,YZ,None,
,,,,,,calibration,0,15,2,50,4,N,0,right,0.3435187989962287,1,0,,,,,,,,,,,,,,,,,,,,,1,,,,,,,,,,,,,,,,,,,,,,,,,,,,,,,,,,,,,,,,,,,,,,96,151702,20,Female,1,2024/03/15_16:13:51,YZ,None,
,,,,,,calibration,0,15,2,50,5,C,1,left,0.7200501349871047,1,0,,,,,,,,,,,,,,,,,,,,,1,,,,,,,,,,,,,,,,,,,,,,,,,,,,,,,,,,,,,,,,,,,,,,96,151702,20,Female,1,2024/03/15_16:13:51,YZ,None,
,,,,,,calibration,0,15,2,50,6,J,0,right,0.3683206460264046,1,0,,,,,,,,,,,,,,,,,,,,,1,,,,,,,,,,,,,,,,,,,,,,,,,,,,,,,,,,,,,,,,,,,,,,96,151702,20,Female,1,2024/03/15_16:13:51,YZ,None,
,,,,,,calibration,0,15,2,50,7,Q,0,right,0.48032711900305003,1,0,,,,,,,,,,,,,,,,,,,,,1,,,,,,,,,,,,,,,,,,,,,,,,,,,,,,,,,,,,,,,,,,,,,,96,151702,20,Female,1,2024/03/15_16:13:51,YZ,None,
,,,,,,calibration,0,15,2,50,8,S,0,right,0.5415710799861699,1,0,,,,,,,,,,,,,,,,,,,,,1,,,,,,,,,,,,,,,,,,,,,,,,,,,,,,,,,,,,,,,,,,,,,,96,151702,20,Female,1,2024/03/15_16:13:51,YZ,None,
,,,,,,calibration,0,15,2,50,9,N,0,right,0.48830245799035765,1,0,,,,,,,,,,,,,,,,,,,,,1,,,,,,,,,,,,,,,,,,,,,,,,,,,,,,,,,,,,,,,,,,,,,,96,151702,20,Female,1,2024/03/15_16:13:51,YZ,None,
,,,,,,calibration,0,15,2,50,10,S,1,left,0.6070370369998273,1,0,,,,,,,,,,,,,,,,,,,,,1,,,,,,,,,,,,,,,,,,,,,,,,,,,,,,,,,,,,,,,,,,,,,,96,151702,20,Female,1,2024/03/15_16:13:51,YZ,None,
,,,,,,calibration,0,15,2,50,11,Q,0,right,0.44376487500267103,1,0,,,,,,,,,,,,,,,,,,,,,1,,,,,,,,,,,,,,,,,,,,,,,,,,,,,,,,,,,,,,,,,,,,,,96,151702,20,Female,1,2024/03/15_16:13:51,YZ,None,
,,,,,,calibration,0,15,2,50,12,N,0,right,0.41884355901856907,1,0,,,,,,,,,,,,,,,,,,,,,1,,,,,,,,,,,,,,,,,,,,,,,,,,,,,,,,,,,,,,,,,,,,,,96,151702,20,Female,1,2024/03/15_16:13:51,YZ,None,
,,,,,,calibration,0,15,2,50,13,Q,1,left,0.5586186660220847,1,0,,,,,,,,,,,,,,,,,,,,,1,,,,,,,,,,,,,,,,,,,,,,,,,,,,,,,,,,,,,,,,,,,,,,96,151702,20,Female,1,2024/03/15_16:13:51,YZ,None,
,,,,,,calibration,0,15,2,50,14,N,1,right,0.5253771449788474,0,0,,,,,,,,,,,,,,,,,,,,,1,,,,,,,,,,,,,,,,,,,,,,,,,,,,,,,,,,,,,,,,,,,,,,96,151702,20,Female,1,2024/03/15_16:13:51,YZ,None,
,,,,,,calibration,0,15,2,50,15,F,0,right,0.8744046619976871,1,0,,,,,,,,,,,,,,,,,,,,,1,,,,,,,,,,,,,,,,,,,,,,,,,,,,,,,,,,,,,,,,,,,,,,96,151702,20,Female,1,2024/03/15_16:13:51,YZ,None,
,,,,,,calibration,0,15,2,50,16,X,0,right,0.4543868629843928,1,0,,,,,,,,,,,,,,,,,,,,,1,,,,,,,,,,,,,,,,,,,,,,,,,,,,,,,,,,,,,,,,,,,,,,96,151702,20,Female,1,2024/03/15_16:13:51,YZ,None,
,,,,,,calibration,0,15,2,50,17,Q,0,right,0.4812564360036049,1,0,,,,,,,,,,,,,,,,,,,,,1,,,,,,,,,,,,,,,,,,,,,,,,,,,,,,,,,,,,,,,,,,,,,,96,151702,20,Female,1,2024/03/15_16:13:51,YZ,None,
,,,,,,calibration,0,15,2,50,18,J,0,right,0.5597358160011936,1,0,,,,,,,,,,,,,,,,,,,,,1,,,,,,,,,,,,,,,,,,,,,,,,,,,,,,,,,,,,,,,,,,,,,,96,151702,20,Female,1,2024/03/15_16:13:51,YZ,None,
,,,,,,calibration,0,15,2,50,19,S,0,right,0.8413868130010087,1,0,,,,,,,,,,,,,,,,,,,,,1,,,,,,,,,,,,,,,,,,,,,,,,,,,,,,,,,,,,,,,,,,,,,,96,151702,20,Female,1,2024/03/15_16:13:51,YZ,None,
,,,,,,calibration,0,15,2,50,20,V,0,right,0.3745571449981071,1,0,,,,,,,,,,,,,,,,,,,,,1,,,,,,,,,,,,,,,,,,,,,,,,,,,,,,,,,,,,,,,,,,,,,,96,151702,20,Female,1,2024/03/15_16:13:51,YZ,None,
,,,,,,calibration,0,15,2,50,21,J,0,right,0.4608026249916293,1,0,,,,,,,,,,,,,,,,,,,,,1,,,,,,,,,,,,,,,,,,,,,,,,,,,,,,,,,,,,,,,,,,,,,,96,151702,20,Female,1,2024/03/15_16:13:51,YZ,None,
,,,,,,calibration,0,15,2,50,22,V,1,right,nan,0,1,,,,,,,,,,,,,,,,,,,,,1,,,,,,,,,,,,,,,,,,,,,,,,,,,,,,,,,,,,,,,,,,,,,,96,151702,20,Female,1,2024/03/15_16:13:51,YZ,None,
,,,,,,calibration,0,15,2,50,23,N,0,right,0.53118093800731,1,0,,,,,,,,,,,,,,,,,,,,,1,,,,,,,,,,,,,,,,,,,,,,,,,,,,,,,,,,,,,,,,,,,,,,96,151702,20,Female,1,2024/03/15_16:13:51,YZ,None,
,,,,,,calibration,0,15,2,50,24,V,1,left,0.6148911789932754,1,0,,,,,,,,,,,,,,,,,,,,,1,,,,,,,,,,,,,,,,,,,,,,,,,,,,,,,,,,,,,,,,,,,,,,96,151702,20,Female,1,2024/03/15_16:13:51,YZ,None,
,,,,,,calibration,0,15,2,50,25,X,0,left,nan,0,1,,,,,,,,,,,,,,,,,,,,,1,,,,,,,,,,,,,,,,,,,,,,,,,,,,,,,,,,,,,,,,,,,,,,96,151702,20,Female,1,2024/03/15_16:13:51,YZ,None,
,,,,,,calibration,0,15,2,50,,,,,,,,0.9166666666666666,0.6666666666666666,0.0,1.0,0.08,0.92,0.5334149923038912,4,0,1,1,2,18,22,6,19,0,,,,1,,,,,,,,,,,,,,,,,,,,,,,,,,,,,,,,,,,,,,,,,,,,,,96,151702,20,Female,1,2024/03/15_16:13:51,YZ,None,
,,,,,,Calibration,0,,2,50,,,,,,,,,,,,,,,,,,,,,,,,,14,,,1,,,,,,,,,,,,,,,,,,,,,,,,,,,,,,,,,,,,,,,,,,,,,,96,151702,20,Female,1,2024/03/15_16:13:51,YZ,None,
,,,,,,calibration,0,1,2,19,1,X,0,right,0.2937667570076883,1,0,,,,,,,,,,,,,,,,,,,,,1,,,,,,,,,,,,,,,,,,,,,,,,,,,,,,,,,,,,,,,,,,,,,,96,151702,20,Female,1,2024/03/15_16:13:51,YZ,None,
,,,,,,calibration,0,1,2,19,2,F,0,right,0.36083920099190436,1,0,,,,,,,,,,,,,,,,,,,,,1,,,,,,,,,,,,,,,,,,,,,,,,,,,,,,,,,,,,,,,,,,,,,,96,151702,20,Female,1,2024/03/15_16:13:51,YZ,None,
,,,,,,calibration,0,1,2,19,3,N,0,right,0.6432753620028961,1,0,,,,,,,,,,,,,,,,,,,,,1,,,,,,,,,,,,,,,,,,,,,,,,,,,,,,,,,,,,,,,,,,,,,,96,151702,20,Female,1,2024/03/15_16:13:51,YZ,None,
,,,,,,calibration,0,1,2,19,4,X,0,right,0.7856901070044842,1,0,,,,,,,,,,,,,,,,,,,,,1,,,,,,,,,,,,,,,,,,,,,,,,,,,,,,,,,,,,,,,,,,,,,,96,151702,20,Female,1,2024/03/15_16:13:51,YZ,None,
,,,,,,calibration,0,1,2,19,5,N,1,left,0.9264235550072044,1,0,,,,,,,,,,,,,,,,,,,,,1,,,,,,,,,,,,,,,,,,,,,,,,,,,,,,,,,,,,,,,,,,,,,,96,151702,20,Female,1,2024/03/15_16:13:51,YZ,None,
,,,,,,calibration,0,1,2,19,6,V,0,right,0.47447481198469177,1,0,,,,,,,,,,,,,,,,,,,,,1,,,,,,,,,,,,,,,,,,,,,,,,,,,,,,,,,,,,,,,,,,,,,,96,151702,20,Female,1,2024/03/15_16:13:51,YZ,None,
,,,,,,calibration,0,1,2,19,7,S,0,right,0.5315838970127515,1,0,,,,,,,,,,,,,,,,,,,,,1,,,,,,,,,,,,,,,,,,,,,,,,,,,,,,,,,,,,,,,,,,,,,,96,151702,20,Female,1,2024/03/15_16:13:51,YZ,None,
,,,,,,calibration,0,1,2,19,8,V,1,left,0.5987949219997972,1,0,,,,,,,,,,,,,,,,,,,,,1,,,,,,,,,,,,,,,,,,,,,,,,,,,,,,,,,,,,,,,,,,,,,,96,151702,20,Female,1,2024/03/15_16:13:51,YZ,None,
,,,,,,calibration,0,1,2,19,9,N,0,right,0.3523538729932625,1,0,,,,,,,,,,,,,,,,,,,,,1,,,,,,,,,,,,,,,,,,,,,,,,,,,,,,,,,,,,,,,,,,,,,,96,151702,20,Female,1,2024/03/15_16:13:51,YZ,None,
,,,,,,calibration,0,1,2,19,10,J,0,right,0.47145424800692126,1,0,,,,,,,,,,,,,,,,,,,,,1,,,,,,,,,,,,,,,,,,,,,,,,,,,,,,,,,,,,,,,,,,,,,,96,151702,20,Female,1,2024/03/15_16:13:51,YZ,None,
,,,,,,calibration,0,1,2,19,11,N,1,right,0.554509969020728,0,0,,,,,,,,,,,,,,,,,,,,,1,,,,,,,,,,,,,,,,,,,,,,,,,,,,,,,,,,,,,,,,,,,,,,96,151702,20,Female,1,2024/03/15_16:13:51,YZ,None,
,,,,,,calibration,0,1,2,19,12,J,1,left,0.9424205310060643,1,0,,,,,,,,,,,,,,,,,,,,,1,,,,,,,,,,,,,,,,,,,,,,,,,,,,,,,,,,,,,,,,,,,,,,96,151702,20,Female,1,2024/03/15_16:13:51,YZ,None,
,,,,,,calibration,0,1,2,19,13,F,0,right,0.4768941270012874,1,0,,,,,,,,,,,,,,,,,,,,,1,,,,,,,,,,,,,,,,,,,,,,,,,,,,,,,,,,,,,,,,,,,,,,96,151702,20,Female,1,2024/03/15_16:13:51,YZ,None,
,,,,,,calibration,0,1,2,19,14,J,1,right,0.5877648669993505,0,0,,,,,,,,,,,,,,,,,,,,,1,,,,,,,,,,,,,,,,,,,,,,,,,,,,,,,,,,,,,,,,,,,,,,96,151702,20,Female,1,2024/03/15_16:13:51,YZ,None,
,,,,,,calibration,0,1,2,19,15,F,1,left,0.7908490730042104,1,0,,,,,,,,,,,,,,,,,,,,,1,,,,,,,,,,,,,,,,,,,,,,,,,,,,,,,,,,,,,,,,,,,,,,96,151702,20,Female,1,2024/03/15_16:13:51,YZ,None,
,,,,,,calibration,0,1,2,19,16,N,0,right,0.6725153549923562,1,0,,,,,,,,,,,,,,,,,,,,,1,,,,,,,,,,,,,,,,,,,,,,,,,,,,,,,,,,,,,,,,,,,,,,96,151702,20,Female,1,2024/03/15_16:13:51,YZ,None,
,,,,,,calibration,0,1,2,19,17,Q,0,right,0.5121726609941106,1,0,,,,,,,,,,,,,,,,,,,,,1,,,,,,,,,,,,,,,,,,,,,,,,,,,,,,,,,,,,,,,,,,,,,,96,151702,20,Female,1,2024/03/15_16:13:51,YZ,None,
,,,,,,calibration,0,1,2,19,18,C,0,right,0.32484279401251115,1,0,,,,,,,,,,,,,,,,,,,,,1,,,,,,,,,,,,,,,,,,,,,,,,,,,,,,,,,,,,,,,,,,,,,,96,151702,20,Female,1,2024/03/15_16:13:51,YZ,None,
,,,,,,calibration,0,1,2,19,19,F,0,right,0.5242676440102514,1,0,,,,,,,,,,,,,,,,,,,,,1,,,,,,,,,,,,,,,,,,,,,,,,,,,,,,,,,,,,,,,,,,,,,,96,151702,20,Female,1,2024/03/15_16:13:51,YZ,None,
,,,,,,calibration,0,1,2,19,20,Q,0,right,0.5550254700065125,1,0,,,,,,,,,,,,,,,,,,,,,1,,,,,,,,,,,,,,,,,,,,,,,,,,,,,,,,,,,,,,,,,,,,,,96,151702,20,Female,1,2024/03/15_16:13:51,YZ,None,
,,,,,,calibration,0,1,2,19,21,C,0,right,0.8629567110037897,1,0,,,,,,,,,,,,,,,,,,,,,1,,,,,,,,,,,,,,,,,,,,,,,,,,,,,,,,,,,,,,,,,,,,,,96,151702,20,Female,1,2024/03/15_16:13:51,YZ,None,
,,,,,,calibration,0,1,2,19,22,F,0,left,0.7520929590100423,0,0,,,,,,,,,,,,,,,,,,,,,1,,,,,,,,,,,,,,,,,,,,,,,,,,,,,,,,,,,,,,,,,,,,,,96,151702,20,Female,1,2024/03/15_16:13:51,YZ,None,
,,,,,,calibration,0,1,2,19,23,C,1,left,0.8717806340137031,1,0,,,,,,,,,,,,,,,,,,,,,1,,,,,,,,,,,,,,,,,,,,,,,,,,,,,,,,,,,,,,,,,,,,,,96,151702,20,Female,1,2024/03/15_16:13:51,YZ,None,
,,,,,,calibration,0,1,2,19,24,N,0,right,0.7643209859961644,1,0,,,,,,,,,,,,,,,,,,,,,1,,,,,,,,,,,,,,,,,,,,,,,,,,,,,,,,,,,,,,,,,,,,,,96,151702,20,Female,1,2024/03/15_16:13:51,YZ,None,
,,,,,,calibration,0,1,2,19,25,S,0,right,0.4704225140158087,1,0,,,,,,,,,,,,,,,,,,,,,1,,,,,,,,,,,,,,,,,,,,,,,,,,,,,,,,,,,,,,,,,,,,,,96,151702,20,Female,1,2024/03/15_16:13:51,YZ,None,
,,,,,,calibration,0,1,2,19,26,X,0,right,0.42348222399596125,1,0,,,,,,,,,,,,,,,,,,,,,1,,,,,,,,,,,,,,,,,,,,,,,,,,,,,,,,,,,,,,,,,,,,,,96,151702,20,Female,1,2024/03/15_16:13:51,YZ,None,
,,,,,,calibration,0,1,2,19,,,,,,,,0.900375939849624,0.7142857142857143,0.05263157894736842,0.9473684210526315,0.0,0.9473684210526316,0.5971144328113251,5,1,0,0,0,18,23,7,19,0,,,,1,,,,,,,,,,,,,,,,,,,,,,,,,,,,,,,,,,,,,,,,,,,,,,96,151702,20,Female,1,2024/03/15_16:13:51,YZ,None,
,,,,,,Calibration,0,,2,19,,,,,,,,,,,,,,,,,,,,,,,,,15,,,1,,,,,,,,,,,,,,,,,,,,,,,,,,,,,,,,,,,,,,,,,,,,,,96,151702,20,Female,1,2024/03/15_16:13:51,YZ,None,
,,,,,,CALIBRATION,0,,,,,,,,,,,,,,,,,,,,,,,,,,,,15,0.900375939849624,19,1,,,,,,,,,,,,,,,,,,,,,,,,,,,,,,,,,,,,,,,,,,,,,,96,151702,20,Female,1,2024/03/15_16:13:51,YZ,None,
1,./instructions/inst_prac_1/Slide24.png,right,18.59360731599736,594.8568005179986,613.450407833996,,,,,,,,,,,,,,,,,,,,,,,,,,,,,,,,,1,,,,,,,,,,,,,,,,,,,,,,,,,,,,,,,,,,,,,,,,,,,,,,96,151702,20,Female,1,2024/03/15_16:13:51,YZ,None,
2,./instructions/inst_prac_1/Slide25.png,right,3.187466992007103,613.4791503249726,616.6666173169797,,,,,,,,,,,,,,,,,,,,,,,,,,,,,,,,,1,,,,,,,,,,,,,,,,,,,,,,,,,,,,,,,,,,,,,,,,,,,,,,96,151702,20,Female,1,2024/03/15_16:13:51,YZ,None,
3,./instructions/inst_prac_1/Slide26.png,right,0.693685494014062,616.6927604829834,617.3864459769975,,,,,,,,,,,,,,,,,,,,,,,,,,,,,,,,,1,,,,,,,,,,,,,,,,,,,,,,,,,,,,,,,,,,,,,,,,,,,,,,96,151702,20,Female,1,2024/03/15_16:13:51,YZ,None,
4,./instructions/inst_prac_1/Slide27.png,right,0.5155916360090487,617.4147388899873,617.9303305259964,,,,,,,,,,,,,,,,,,,,,,,,,,,,,,,,,1,,,,,,,,,,,,,,,,,,,,,,,,,,,,,,,,,,,,,,,,,,,,,,96,151702,20,Female,1,2024/03/15_16:13:51,YZ,None,
5,./instructions/inst_prac_1/Slide28.png,right,0.8435501639905851,617.9590064229851,618.8025565869757,,,,,,,,,,,,,,,,,,,,,,,,,,,,,,,,,1,,,,,,,,,,,,,,,,,,,,,,,,,,,,,,,,,,,,,,,,,,,,,,96,151702,20,Female,1,2024/03/15_16:13:51,YZ,None,
6,./instructions/inst_prac_1/Slide29.png,right,5.589992652006913,618.8284227289842,624.4184153809911,,,,,,,,,,,,,,,,,,,,,,,,,,,,,,,,,1,,,,,,,,,,,,,,,,,,,,,,,,,,,,,,,,,,,,,,,,,,,,,,96,151702,20,Female,1,2024/03/15_16:13:51,YZ,None,
7,./instructions/inst_prac_1/Slide30.png,right,3.4904810980078764,624.4477976529743,627.9382787509821,,,,,,,,,,,,,,,,,,,,,,,,,,,,,,,,,1,,,,,,,,,,,,,,,,,,,,,,,,,,,,,,,,,,,,,,,,,,,,,,96,151702,20,Female,1,2024/03/15_16:13:51,YZ,None,
,,,,,,practice,0,2,1,1250,1,N,0,right,0.7312139660061803,1,0,,,,,,,,,,,,,,,,,,,,,1,,,,,,,,,,,,,,,,,,,,,,,,,,,,,,,,,,,,,,,,,,,,,,96,151702,20,Female,1,2024/03/15_16:13:51,YZ,None,
,,,,,,practice,0,2,1,1250,2,N,1,right,0.7204135250067338,0,0,,,,,,,,,,,,,,,,,,,,,1,,,,,,,,,,,,,,,,,,,,,,,,,,,,,,,,,,,,,,,,,,,,,,96,151702,20,Female,1,2024/03/15_16:13:51,YZ,None,
,,,,,,practice,0,2,1,1250,3,J,0,right,1.061777762020938,1,0,,,,,,,,,,,,,,,,,,,,,1,,,,,,,,,,,,,,,,,,,,,,,,,,,,,,,,,,,,,,,,,,,,,,96,151702,20,Female,1,2024/03/15_16:13:51,YZ,None,
,,,,,,practice,0,2,1,1250,4,N,0,right,1.5412394430022687,1,0,,,,,,,,,,,,,,,,,,,,,1,,,,,,,,,,,,,,,,,,,,,,,,,,,,,,,,,,,,,,,,,,,,,,96,151702,20,Female,1,2024/03/15_16:13:51,YZ,None,
,,,,,,practice,0,2,1,1250,5,F,0,right,0.652935065998463,1,0,,,,,,,,,,,,,,,,,,,,,1,,,,,,,,,,,,,,,,,,,,,,,,,,,,,,,,,,,,,,,,,,,,,,96,151702,20,Female,1,2024/03/15_16:13:51,YZ,None,
,,,,,,practice,0,2,1,1250,6,F,1,left,0.6468303340079729,1,0,,,,,,,,,,,,,,,,,,,,,1,,,,,,,,,,,,,,,,,,,,,,,,,,,,,,,,,,,,,,,,,,,,,,96,151702,20,Female,1,2024/03/15_16:13:51,YZ,None,
,,,,,,practice,0,2,1,1250,7,N,0,right,0.7403411230188794,1,0,,,,,,,,,,,,,,,,,,,,,1,,,,,,,,,,,,,,,,,,,,,,,,,,,,,,,,,,,,,,,,,,,,,,96,151702,20,Female,1,2024/03/15_16:13:51,YZ,None,
,,,,,,practice,0,2,1,1250,8,N,1,left,0.6887586230004672,1,0,,,,,,,,,,,,,,,,,,,,,1,,,,,,,,,,,,,,,,,,,,,,,,,,,,,,,,,,,,,,,,,,,,,,96,151702,20,Female,1,2024/03/15_16:13:51,YZ,None,
,,,,,,practice,0,2,1,1250,9,J,0,right,1.0133178510004655,1,0,,,,,,,,,,,,,,,,,,,,,1,,,,,,,,,,,,,,,,,,,,,,,,,,,,,,,,,,,,,,,,,,,,,,96,151702,20,Female,1,2024/03/15_16:13:51,YZ,None,
,,,,,,practice,0,2,1,1250,10,S,0,right,0.6541730859898962,1,0,,,,,,,,,,,,,,,,,,,,,1,,,,,,,,,,,,,,,,,,,,,,,,,,,,,,,,,,,,,,,,,,,,,,96,151702,20,Female,1,2024/03/15_16:13:51,YZ,None,
,,,,,,practice,0,2,1,1250,,,,,,,,0.9166666666666666,0.6666666666666666,0.0,1.0,0.0,1.0,0.8451000779052265,2,0,0,0,0,7,9,3,7,0,,,,1,,,,,,,,,,,,,,,,,,,,,,,,,,,,,,,,,,,,,,,,,,,,,,96,151702,20,Female,1,2024/03/15_16:13:51,YZ,None,
1,./instructions/inst_prac_1_next/Slide35.png,right,2.6119139039947186,647.4306640989962,650.0425780029909,,,,,,,,,,,,,,,,,,,,,,,,,,,,,,,,,1,,,,,,,,,,,,,,,,,,,,,,,,,,,,,,,,,,,,,,,,,,,,,,96,151702,20,Female,1,2024/03/15_16:13:51,YZ,None,
,,,,,,practice,0,7,1,19,1,N,0,right,0.8868800300115254,1,0,,,,,,,,,,,,,,,,,,,,,1,,,,,,,,,,,,,,,,,,,,,,,,,,,,,,,,,,,,,,,,,,,,,,96,151702,20,Female,1,2024/03/15_16:13:51,YZ,None,
,,,,,,practice,0,7,1,19,2,J,0,right,0.8553958050033543,1,0,,,,,,,,,,,,,,,,,,,,,1,,,,,,,,,,,,,,,,,,,,,,,,,,,,,,,,,,,,,,,,,,,,,,96,151702,20,Female,1,2024/03/15_16:13:51,YZ,None,
,,,,,,practice,0,7,1,19,3,S,0,right,0.6314364619902335,1,0,,,,,,,,,,,,,,,,,,,,,1,,,,,,,,,,,,,,,,,,,,,,,,,,,,,,,,,,,,,,,,,,,,,,96,151702,20,Female,1,2024/03/15_16:13:51,YZ,None,
,,,,,,practice,0,7,1,19,4,C,0,right,0.8526912300148979,1,0,,,,,,,,,,,,,,,,,,,,,1,,,,,,,,,,,,,,,,,,,,,,,,,,,,,,,,,,,,,,,,,,,,,,96,151702,20,Female,1,2024/03/15_16:13:51,YZ,None,
,,,,,,practice,0,7,1,19,5,C,1,left,0.7521815040090587,1,0,,,,,,,,,,,,,,,,,,,,,1,,,,,,,,,,,,,,,,,,,,,,,,,,,,,,,,,,,,,,,,,,,,,,96,151702,20,Female,1,2024/03/15_16:13:51,YZ,None,
,,,,,,practice,0,7,1,19,6,S,0,right,0.728524569014553,1,0,,,,,,,,,,,,,,,,,,,,,1,,,,,,,,,,,,,,,,,,,,,,,,,,,,,,,,,,,,,,,,,,,,,,96,151702,20,Female,1,2024/03/15_16:13:51,YZ,None,
,,,,,,practice,0,7,1,19,7,S,1,left,0.6348657170019578,1,0,,,,,,,,,,,,,,,,,,,,,1,,,,,,,,,,,,,,,,,,,,,,,,,,,,,,,,,,,,,,,,,,,,,,96,151702,20,Female,1,2024/03/15_16:13:51,YZ,None,
,,,,,,practice,0,7,1,19,8,C,0,right,0.824636540026404,1,0,,,,,,,,,,,,,,,,,,,,,1,,,,,,,,,,,,,,,,,,,,,,,,,,,,,,,,,,,,,,,,,,,,,,96,151702,20,Female,1,2024/03/15_16:13:51,YZ,None,
,,,,,,practice,0,7,1,19,9,C,1,left,0.6255947570025455,1,0,,,,,,,,,,,,,,,,,,,,,1,,,,,,,,,,,,,,,,,,,,,,,,,,,,,,,,,,,,,,,,,,,,,,96,151702,20,Female,1,2024/03/15_16:13:51,YZ,None,
,,,,,,practice,0,7,1,19,10,F,0,right,0.7006651170086116,1,0,,,,,,,,,,,,,,,,,,,,,1,,,,,,,,,,,,,,,,,,,,,,,,,,,,,,,,,,,,,,,,,,,,,,96,151702,20,Female,1,2024/03/15_16:13:51,YZ,None,
,,,,,,practice,0,7,1,19,11,N,0,right,0.6816167200158816,1,0,,,,,,,,,,,,,,,,,,,,,1,,,,,,,,,,,,,,,,,,,,,,,,,,,,,,,,,,,,,,,,,,,,,,96,151702,20,Female,1,2024/03/15_16:13:51,YZ,None,
,,,,,,practice,0,7,1,19,12,X,0,right,0.6411006179987453,1,0,,,,,,,,,,,,,,,,,,,,,1,,,,,,,,,,,,,,,,,,,,,,,,,,,,,,,,,,,,,,,,,,,,,,96,151702,20,Female,1,2024/03/15_16:13:51,YZ,None,
,,,,,,practice,0,7,1,19,13,X,1,left,0.6325134159997106,1,0,,,,,,,,,,,,,,,,,,,,,1,,,,,,,,,,,,,,,,,,,,,,,,,,,,,,,,,,,,,,,,,,,,,,96,151702,20,Female,1,2024/03/15_16:13:51,YZ,None,
,,,,,,practice,0,7,1,19,14,J,0,right,0.657357593998313,1,0,,,,,,,,,,,,,,,,,,,,,1,,,,,,,,,,,,,,,,,,,,,,,,,,,,,,,,,,,,,,,,,,,,,,96,151702,20,Female,1,2024/03/15_16:13:51,YZ,None,
,,,,,,practice,0,7,1,19,15,S,0,right,0.8179730029951315,1,0,,,,,,,,,,,,,,,,,,,,,1,,,,,,,,,,,,,,,,,,,,,,,,,,,,,,,,,,,,,,,,,,,,,,96,151702,20,Female,1,2024/03/15_16:13:51,YZ,None,
,,,,,,practice,0,7,1,19,16,J,0,right,0.7375615820055827,1,0,,,,,,,,,,,,,,,,,,,,,1,,,,,,,,,,,,,,,,,,,,,,,,,,,,,,,,,,,,,,,,,,,,,,96,151702,20,Female,1,2024/03/15_16:13:51,YZ,None,
,,,,,,practice,0,7,1,19,17,J,1,left,0.6804064419993665,1,0,,,,,,,,,,,,,,,,,,,,,1,,,,,,,,,,,,,,,,,,,,,,,,,,,,,,,,,,,,,,,,,,,,,,96,151702,20,Female,1,2024/03/15_16:13:51,YZ,None,
,,,,,,practice,0,7,1,19,18,F,0,right,0.524943912983872,1,0,,,,,,,,,,,,,,,,,,,,,1,,,,,,,,,,,,,,,,,,,,,,,,,,,,,,,,,,,,,,,,,,,,,,96,151702,20,Female,1,2024/03/15_16:13:51,YZ,None,
,,,,,,practice,0,7,1,19,19,S,0,right,0.46074526698794216,1,0,,,,,,,,,,,,,,,,,,,,,1,,,,,,,,,,,,,,,,,,,,,,,,,,,,,,,,,,,,,,,,,,,,,,96,151702,20,Female,1,2024/03/15_16:13:51,YZ,None,
,,,,,,practice,0,7,1,19,20,S,1,left,0.6261314259900246,1,0,,,,,,,,,,,,,,,,,,,,,1,,,,,,,,,,,,,,,,,,,,,,,,,,,,,,,,,,,,,,,,,,,,,,96,151702,20,Female,1,2024/03/15_16:13:51,YZ,None,
,,,,,,practice,0,7,1,19,21,Q,0,right,0.49295200197957456,1,0,,,,,,,,,,,,,,,,,,,,,1,,,,,,,,,,,,,,,,,,,,,,,,,,,,,,,,,,,,,,,,,,,,,,96,151702,20,Female,1,2024/03/15_16:13:51,YZ,None,
,,,,,,practice,0,7,1,19,22,X,0,right,0.5326715190021787,1,0,,,,,,,,,,,,,,,,,,,,,1,,,,,,,,,,,,,,,,,,,,,,,,,,,,,,,,,,,,,,,,,,,,,,96,151702,20,Female,1,2024/03/15_16:13:51,YZ,None,
,,,,,,practice,0,7,1,19,23,Q,0,right,0.652682480023941,1,0,,,,,,,,,,,,,,,,,,,,,1,,,,,,,,,,,,,,,,,,,,,,,,,,,,,,,,,,,,,,,,,,,,,,96,151702,20,Female,1,2024/03/15_16:13:51,YZ,None,
,,,,,,practice,0,7,1,19,24,J,0,right,0.5129897870065179,1,0,,,,,,,,,,,,,,,,,,,,,1,,,,,,,,,,,,,,,,,,,,,,,,,,,,,,,,,,,,,,,,,,,,,,96,151702,20,Female,1,2024/03/15_16:13:51,YZ,None,
,,,,,,practice,0,7,1,19,25,J,1,left,0.5647527069959324,1,0,,,,,,,,,,,,,,,,,,,,,1,,,,,,,,,,,,,,,,,,,,,,,,,,,,,,,,,,,,,,,,,,,,,,96,151702,20,Female,1,2024/03/15_16:13:51,YZ,None,
,,,,,,practice,0,7,1,19,26,S,0,right,0.4098666259960737,1,0,,,,,,,,,,,,,,,,,,,,,1,,,,,,,,,,,,,,,,,,,,,,,,,,,,,,,,,,,,,,,,,,,,,,96,151702,20,Female,1,2024/03/15_16:13:51,YZ,None,
,,,,,,practice,0,7,1,19,,,,,,,,1.0,1.0,0.0,1.0,0.0,1.0,0.6584283397331512,7,0,0,0,0,19,26,7,19,0,,,,1,,,,,,,,,,,,,,,,,,,,,,,,,,,,,,,,,,,,,,,,,,,,,,96,151702,20,Female,1,2024/03/15_16:13:51,YZ,None,
,,,,,,practice,0,29,1,19,1,S,0,right,1.0518736350059044,1,0,,,,,,,,,,,,,,,,,,,,,1,,,,,,,,,,,,,,,,,,,,,,,,,,,,,,,,,,,,,,,,,,,,,,96,151702,20,Female,1,2024/03/15_16:13:51,YZ,None,
,,,,,,practice,0,29,1,19,2,S,1,left,0.5334714250057004,1,0,,,,,,,,,,,,,,,,,,,,,1,,,,,,,,,,,,,,,,,,,,,,,,,,,,,,,,,,,,,,,,,,,,,,96,151702,20,Female,1,2024/03/15_16:13:51,YZ,None,
,,,,,,practice,0,29,1,19,3,X,0,right,0.4653009769972414,1,0,,,,,,,,,,,,,,,,,,,,,1,,,,,,,,,,,,,,,,,,,,,,,,,,,,,,,,,,,,,,,,,,,,,,96,151702,20,Female,1,2024/03/15_16:13:51,YZ,None,
,,,,,,practice,0,29,1,19,4,X,1,right,0.4811191020125989,0,0,,,,,,,,,,,,,,,,,,,,,1,,,,,,,,,,,,,,,,,,,,,,,,,,,,,,,,,,,,,,,,,,,,,,96,151702,20,Female,1,2024/03/15_16:13:51,YZ,None,
,,,,,,practice,0,29,1,19,5,F,0,right,0.817889786005253,1,0,,,,,,,,,,,,,,,,,,,,,1,,,,,,,,,,,,,,,,,,,,,,,,,,,,,,,,,,,,,,,,,,,,,,96,151702,20,Female,1,2024/03/15_16:13:51,YZ,None,
,,,,,,practice,0,29,1,19,6,Q,0,right,0.5122230479901191,1,0,,,,,,,,,,,,,,,,,,,,,1,,,,,,,,,,,,,,,,,,,,,,,,,,,,,,,,,,,,,,,,,,,,,,96,151702,20,Female,1,2024/03/15_16:13:51,YZ,None,
,,,,,,practice,0,29,1,19,7,C,0,right,0.5134742239897605,1,0,,,,,,,,,,,,,,,,,,,,,1,,,,,,,,,,,,,,,,,,,,,,,,,,,,,,,,,,,,,,,,,,,,,,96,151702,20,Female,1,2024/03/15_16:13:51,YZ,None,
,,,,,,practice,0,29,1,19,8,C,1,left,0.6120087449962739,1,0,,,,,,,,,,,,,,,,,,,,,1,,,,,,,,,,,,,,,,,,,,,,,,,,,,,,,,,,,,,,,,,,,,,,96,151702,20,Female,1,2024/03/15_16:13:51,YZ,None,
,,,,,,practice,0,29,1,19,9,F,0,right,0.4919550500053447,1,0,,,,,,,,,,,,,,,,,,,,,1,,,,,,,,,,,,,,,,,,,,,,,,,,,,,,,,,,,,,,,,,,,,,,96,151702,20,Female,1,2024/03/15_16:13:51,YZ,None,
,,,,,,practice,0,29,1,19,10,X,0,right,0.5080543459916953,1,0,,,,,,,,,,,,,,,,,,,,,1,,,,,,,,,,,,,,,,,,,,,,,,,,,,,,,,,,,,,,,,,,,,,,96,151702,20,Female,1,2024/03/15_16:13:51,YZ,None,
,,,,,,practice,0,29,1,19,11,F,0,right,0.5566324400133453,1,0,,,,,,,,,,,,,,,,,,,,,1,,,,,,,,,,,,,,,,,,,,,,,,,,,,,,,,,,,,,,,,,,,,,,96,151702,20,Female,1,2024/03/15_16:13:51,YZ,None,
,,,,,,practice,0,29,1,19,12,S,0,right,0.480204267980298,1,0,,,,,,,,,,,,,,,,,,,,,1,,,,,,,,,,,,,,,,,,,,,,,,,,,,,,,,,,,,,,,,,,,,,,96,151702,20,Female,1,2024/03/15_16:13:51,YZ,None,
,,,,,,practice,0,29,1,19,13,S,1,left,0.5248540539760143,1,0,,,,,,,,,,,,,,,,,,,,,1,,,,,,,,,,,,,,,,,,,,,,,,,,,,,,,,,,,,,,,,,,,,,,96,151702,20,Female,1,2024/03/15_16:13:51,YZ,None,
,,,,,,practice,0,29,1,19,14,F,0,right,0.684810970997205,1,0,,,,,,,,,,,,,,,,,,,,,1,,,,,,,,,,,,,,,,,,,,,,,,,,,,,,,,,,,,,,,,,,,,,,96,151702,20,Female,1,2024/03/15_16:13:51,YZ,None,
,,,,,,practice,0,29,1,19,15,S,0,right,0.4963849449995905,1,0,,,,,,,,,,,,,,,,,,,,,1,,,,,,,,,,,,,,,,,,,,,,,,,,,,,,,,,,,,,,,,,,,,,,96,151702,20,Female,1,2024/03/15_16:13:51,YZ,None,
,,,,,,practice,0,29,1,19,16,N,0,right,0.6093128779903054,1,0,,,,,,,,,,,,,,,,,,,,,1,,,,,,,,,,,,,,,,,,,,,,,,,,,,,,,,,,,,,,,,,,,,,,96,151702,20,Female,1,2024/03/15_16:13:51,YZ,None,
,,,,,,practice,0,29,1,19,17,C,0,right,0.4687809860042762,1,0,,,,,,,,,,,,,,,,,,,,,1,,,,,,,,,,,,,,,,,,,,,,,,,,,,,,,,,,,,,,,,,,,,,,96,151702,20,Female,1,2024/03/15_16:13:51,YZ,None,
,,,,,,practice,0,29,1,19,18,V,0,right,0.4404850809951313,1,0,,,,,,,,,,,,,,,,,,,,,1,,,,,,,,,,,,,,,,,,,,,,,,,,,,,,,,,,,,,,,,,,,,,,96,151702,20,Female,1,2024/03/15_16:13:51,YZ,None,
,,,,,,practice,0,29,1,19,19,F,0,right,0.6004732010187581,1,0,,,,,,,,,,,,,,,,,,,,,1,,,,,,,,,,,,,,,,,,,,,,,,,,,,,,,,,,,,,,,,,,,,,,96,151702,20,Female,1,2024/03/15_16:13:51,YZ,None,
,,,,,,practice,0,29,1,19,20,F,1,left,0.7166036159906071,1,0,,,,,,,,,,,,,,,,,,,,,1,,,,,,,,,,,,,,,,,,,,,,,,,,,,,,,,,,,,,,,,,,,,,,96,151702,20,Female,1,2024/03/15_16:13:51,YZ,None,
,,,,,,practice,0,29,1,19,21,X,0,right,0.4632595489965752,1,0,,,,,,,,,,,,,,,,,,,,,1,,,,,,,,,,,,,,,,,,,,,,,,,,,,,,,,,,,,,,,,,,,,,,96,151702,20,Female,1,2024/03/15_16:13:51,YZ,None,
,,,,,,practice,0,29,1,19,22,X,1,left,0.9784584789886139,1,0,,,,,,,,,,,,,,,,,,,,,1,,,,,,,,,,,,,,,,,,,,,,,,,,,,,,,,,,,,,,,,,,,,,,96,151702,20,Female,1,2024/03/15_16:13:51,YZ,None,
,,,,,,practice,0,29,1,19,23,F,0,right,0.6845214209752157,1,0,,,,,,,,,,,,,,,,,,,,,1,,,,,,,,,,,,,,,,,,,,,,,,,,,,,,,,,,,,,,,,,,,,,,96,151702,20,Female,1,2024/03/15_16:13:51,YZ,None,
,,,,,,practice,0,29,1,19,24,F,1,left,0.7595488469814882,1,0,,,,,,,,,,,,,,,,,,,,,1,,,,,,,,,,,,,,,,,,,,,,,,,,,,,,,,,,,,,,,,,,,,,,96,151702,20,Female,1,2024/03/15_16:13:51,YZ,None,
,,,,,,practice,0,29,1,19,25,J,0,right,0.48032634699484333,1,0,,,,,,,,,,,,,,,,,,,,,1,,,,,,,,,,,,,,,,,,,,,,,,,,,,,,,,,,,,,,,,,,,,,,96,151702,20,Female,1,2024/03/15_16:13:51,YZ,None,
,,,,,,practice,0,29,1,19,26,Q,0,right,0.6933217239857186,1,0,,,,,,,,,,,,,,,,,,,,,1,,,,,,,,,,,,,,,,,,,,,,,,,,,,,,,,,,,,,,,,,,,,,,96,151702,20,Female,1,2024/03/15_16:13:51,YZ,None,
,,,,,,practice,0,29,1,19,,,,,,,,0.9642857142857143,0.8571428571428571,0.0,1.0,0.0,1.0,0.6009749671110722,6,0,0,0,0,19,25,7,19,0,,,,1,,,,,,,,,,,,,,,,,,,,,,,,,,,,,,,,,,,,,,,,,,,,,,96,151702,20,Female,1,2024/03/15_16:13:51,YZ,None,
1,./instructions/inst_prac_3/Slide37.png,right,14.829850606009131,714.1885583409749,729.018408946984,,,,,,,,,,,,,,,,,,,,,,,,,,,,,,,,,1,,,,,,,,,,,,,,,,,,,,,,,,,,,,,,,,,,,,,,,,,,,,,,96,151702,20,Female,1,2024/03/15_16:13:51,YZ,None,
2,./instructions/inst_prac_3/Slide38.png,right,1.8345235659799073,729.0477989579958,730.8823225239757,,,,,,,,,,,,,,,,,,,,,,,,,,,,,,,,,1,,,,,,,,,,,,,,,,,,,,,,,,,,,,,,,,,,,,,,,,,,,,,,96,151702,20,Female,1,2024/03/15_16:13:51,YZ,None,
3,./instructions/inst_prac_3/Slide39.png,right,0.7413990189961623,730.9089122879959,731.6503113069921,,,,,,,,,,,,,,,,,,,,,,,,,,,,,,,,,1,,,,,,,,,,,,,,,,,,,,,,,,,,,,,,,,,,,,,,,,,,,,,,96,151702,20,Female,1,2024/03/15_16:13:51,YZ,None,
4,./instructions/inst_prac_3/Slide40.png,right,1.1497125389869325,731.6766050489969,732.8263175879838,,,,,,,,,,,,,,,,,,,,,,,,,,,,,,,,,1,,,,,,,,,,,,,,,,,,,,,,,,,,,,,,,,,,,,,,,,,,,,,,96,151702,20,Female,1,2024/03/15_16:13:51,YZ,None,
5,./instructions/inst_prac_3/Slide41.png,right,1.8982412869809195,732.8562627639913,734.7545040509722,,,,,,,,,,,,,,,,,,,,,,,,,,,,,,,,,1,,,,,,,,,,,,,,,,,,,,,,,,,,,,,,,,,,,,,,,,,,,,,,96,151702,20,Female,1,2024/03/15_16:13:51,YZ,None,
6,./instructions/inst_prac_3/Slide42.png,right,1.0191484460083302,734.7832373829733,735.8023858289816,,,,,,,,,,,,,,,,,,,,,,,,,,,,,,,,,1,,,,,,,,,,,,,,,,,,,,,,,,,,,,,,,,,,,,,,,,,,,,,,96,151702,20,Female,1,2024/03/15_16:13:51,YZ,None,
7,./instructions/inst_prac_3/Slide43.png,right,2.7013350650086068,735.8291054139845,738.5304404789931,,,,,,,,,,,,,,,,,,,,,,,,,,,,,,,,,1,,,,,,,,,,,,,,,,,,,,,,,,,,,,,,,,,,,,,,,,,,,,,,96,151702,20,Female,1,2024/03/15_16:13:51,YZ,None,
8,./instructions/inst_prac_3/Slide44.png,right,3.211126025998965,738.5592353839893,741.7703614099883,,,,,,,,,,,,,,,,,,,,,,,,,,,,,,,,,1,,,,,,,,,,,,,,,,,,,,,,,,,,,,,,,,,,,,,,,,,,,,,,96,151702,20,Female,1,2024/03/15_16:13:51,YZ,None,
,,,,,,practice,0,17,3,788,1,Q,0,right,1.4509355659829453,1,0,,,,,,,,,,,,,,,,,,,,,1,,,,,,,,,,,,,,,,,,,,,,,,,,,,,,,,,,,,,,,,,,,,,,96,151702,20,Female,1,2024/03/15_16:13:51,YZ,None,
,,,,,,practice,0,17,3,788,2,N,0,right,0.8300954799924511,1,0,,,,,,,,,,,,,,,,,,,,,1,,,,,,,,,,,,,,,,,,,,,,,,,,,,,,,,,,,,,,,,,,,,,,96,151702,20,Female,1,2024/03/15_16:13:51,YZ,None,
,,,,,,practice,0,17,3,788,3,X,0,right,0.36591567599680275,1,0,,,,,,,,,,,,,,,,,,,,,1,,,,,,,,,,,,,,,,,,,,,,,,,,,,,,,,,,,,,,,,,,,,,,96,151702,20,Female,1,2024/03/15_16:13:51,YZ,None,
,,,,,,practice,0,17,3,788,4,Q,1,left,0.80469978399924,1,0,,,,,,,,,,,,,,,,,,,,,1,,,,,,,,,,,,,,,,,,,,,,,,,,,,,,,,,,,,,,,,,,,,,,96,151702,20,Female,1,2024/03/15_16:13:51,YZ,None,
,,,,,,practice,0,17,3,788,5,S,0,right,1.2485726419836283,1,0,,,,,,,,,,,,,,,,,,,,,1,,,,,,,,,,,,,,,,,,,,,,,,,,,,,,,,,,,,,,,,,,,,,,96,151702,20,Female,1,2024/03/15_16:13:51,YZ,None,
,,,,,,practice,0,17,3,788,6,V,0,right,1.0007765860063955,1,0,,,,,,,,,,,,,,,,,,,,,1,,,,,,,,,,,,,,,,,,,,,,,,,,,,,,,,,,,,,,,,,,,,,,96,151702,20,Female,1,2024/03/15_16:13:51,YZ,None,
,,,,,,practice,0,17,3,788,7,Q,1,left,0.7247437679907307,1,0,,,,,,,,,,,,,,,,,,,,,1,,,,,,,,,,,,,,,,,,,,,,,,,,,,,,,,,,,,,,,,,,,,,,96,151702,20,Female,1,2024/03/15_16:13:51,YZ,None,
,,,,,,practice,0,17,3,788,8,C,0,right,0.8553751969884615,1,0,,,,,,,,,,,,,,,,,,,,,1,,,,,,,,,,,,,,,,,,,,,,,,,,,,,,,,,,,,,,,,,,,,,,96,151702,20,Female,1,2024/03/15_16:13:51,YZ,None,
,,,,,,practice,0,17,3,788,9,V,1,left,0.8577246179920621,1,0,,,,,,,,,,,,,,,,,,,,,1,,,,,,,,,,,,,,,,,,,,,,,,,,,,,,,,,,,,,,,,,,,,,,96,151702,20,Female,1,2024/03/15_16:13:51,YZ,None,
,,,,,,practice,0,17,3,788,10,X,0,right,0.5331405909964815,1,0,,,,,,,,,,,,,,,,,,,,,1,,,,,,,,,,,,,,,,,,,,,,,,,,,,,,,,,,,,,,,,,,,,,,96,151702,20,Female,1,2024/03/15_16:13:51,YZ,None,
,,,,,,practice,0,17,3,788,11,Q,0,right,0.6315224390127696,1,0,,,,,,,,,,,,,,,,,,,,,1,,,,,,,,,,,,,,,,,,,,,,,,,,,,,,,,,,,,,,,,,,,,,,96,151702,20,Female,1,2024/03/15_16:13:51,YZ,None,
,,,,,,practice,0,17,3,788,12,N,0,right,0.5673997279955074,1,0,,,,,,,,,,,,,,,,,,,,,1,,,,,,,,,,,,,,,,,,,,,,,,,,,,,,,,,,,,,,,,,,,,,,96,151702,20,Female,1,2024/03/15_16:13:51,YZ,None,
,,,,,,practice,0,17,3,788,13,X,1,left,0.7339976869989187,1,0,,,,,,,,,,,,,,,,,,,,,1,,,,,,,,,,,,,,,,,,,,,,,,,,,,,,,,,,,,,,,,,,,,,,96,151702,20,Female,1,2024/03/15_16:13:51,YZ,None,
,,,,,,practice,0,17,3,788,,,,,,,,1.0,1.0,0.0,1.0,0.0,1.0,0.8157615201489534,4,0,0,0,0,9,13,4,9,0,,,,1,,,,,,,,,,,,,,,,,,,,,,,,,,,,,,,,,,,,,,,,,,,,,,96,151702,20,Female,1,2024/03/15_16:13:51,YZ,None,
1,./instructions/inst_prac_3_next/Slide49.png,right,3.2814342879864853,766.0490952919936,769.3305295799801,,,,,,,,,,,,,,,,,,,,,,,,,,,,,,,,,1,,,,,,,,,,,,,,,,,,,,,,,,,,,,,,,,,,,,,,,,,,,,,,96,151702,20,Female,1,2024/03/15_16:13:51,YZ,None,
,,,,,,practice,0,6,3,19,1,X,0,right,0.7037309510051273,1,0,,,,,,,,,,,,,,,,,,,,,1,,,,,,,,,,,,,,,,,,,,,,,,,,,,,,,,,,,,,,,,,,,,,,96,151702,20,Female,1,2024/03/15_16:13:51,YZ,None,
,,,,,,practice,0,6,3,19,2,F,0,right,0.5678199430112727,1,0,,,,,,,,,,,,,,,,,,,,,1,,,,,,,,,,,,,,,,,,,,,,,,,,,,,,,,,,,,,,,,,,,,,,96,151702,20,Female,1,2024/03/15_16:13:51,YZ,None,
,,,,,,practice,0,6,3,19,3,Q,0,right,0.8249674779945053,1,0,,,,,,,,,,,,,,,,,,,,,1,,,,,,,,,,,,,,,,,,,,,,,,,,,,,,,,,,,,,,,,,,,,,,96,151702,20,Female,1,2024/03/15_16:13:51,YZ,None,
,,,,,,practice,0,6,3,19,4,X,1,left,0.5203810230013914,1,0,,,,,,,,,,,,,,,,,,,,,1,,,,,,,,,,,,,,,,,,,,,,,,,,,,,,,,,,,,,,,,,,,,,,96,151702,20,Female,1,2024/03/15_16:13:51,YZ,None,
,,,,,,practice,0,6,3,19,5,F,1,left,0.8693725710036233,1,0,,,,,,,,,,,,,,,,,,,,,1,,,,,,,,,,,,,,,,,,,,,,,,,,,,,,,,,,,,,,,,,,,,,,96,151702,20,Female,1,2024/03/15_16:13:51,YZ,None,
,,,,,,practice,0,6,3,19,6,J,0,right,0.48936389401205815,1,0,,,,,,,,,,,,,,,,,,,,,1,,,,,,,,,,,,,,,,,,,,,,,,,,,,,,,,,,,,,,,,,,,,,,96,151702,20,Female,1,2024/03/15_16:13:51,YZ,None,
,,,,,,practice,0,6,3,19,7,Q,0,right,1.2963111009739805,1,0,,,,,,,,,,,,,,,,,,,,,1,,,,,,,,,,,,,,,,,,,,,,,,,,,,,,,,,,,,,,,,,,,,,,96,151702,20,Female,1,2024/03/15_16:13:51,YZ,None,
,,,,,,practice,0,6,3,19,8,S,0,right,0.7403526129783131,1,0,,,,,,,,,,,,,,,,,,,,,1,,,,,,,,,,,,,,,,,,,,,,,,,,,,,,,,,,,,,,,,,,,,,,96,151702,20,Female,1,2024/03/15_16:13:51,YZ,None,
,,,,,,practice,0,6,3,19,9,Q,0,right,0.7605940159992315,1,0,,,,,,,,,,,,,,,,,,,,,1,,,,,,,,,,,,,,,,,,,,,,,,,,,,,,,,,,,,,,,,,,,,,,96,151702,20,Female,1,2024/03/15_16:13:51,YZ,None,
,,,,,,practice,0,6,3,19,10,Q,1,right,0.5402639809763059,0,0,,,,,,,,,,,,,,,,,,,,,1,,,,,,,,,,,,,,,,,,,,,,,,,,,,,,,,,,,,,,,,,,,,,,96,151702,20,Female,1,2024/03/15_16:13:51,YZ,None,
,,,,,,practice,0,6,3,19,11,V,0,right,0.7089650869893376,1,0,,,,,,,,,,,,,,,,,,,,,1,,,,,,,,,,,,,,,,,,,,,,,,,,,,,,,,,,,,,,,,,,,,,,96,151702,20,Female,1,2024/03/15_16:13:51,YZ,None,
,,,,,,practice,0,6,3,19,12,J,0,right,0.5442429520189762,1,0,,,,,,,,,,,,,,,,,,,,,1,,,,,,,,,,,,,,,,,,,,,,,,,,,,,,,,,,,,,,,,,,,,,,96,151702,20,Female,1,2024/03/15_16:13:51,YZ,None,
,,,,,,practice,0,6,3,19,13,S,0,right,1.324269735981943,1,0,,,,,,,,,,,,,,,,,,,,,1,,,,,,,,,,,,,,,,,,,,,,,,,,,,,,,,,,,,,,,,,,,,,,96,151702,20,Female,1,2024/03/15_16:13:51,YZ,None,
,,,,,,practice,0,6,3,19,14,F,0,right,0.6652558160130866,1,0,,,,,,,,,,,,,,,,,,,,,1,,,,,,,,,,,,,,,,,,,,,,,,,,,,,,,,,,,,,,,,,,,,,,96,151702,20,Female,1,2024/03/15_16:13:51,YZ,None,
,,,,,,practice,0,6,3,19,15,C,0,right,0.8050453449832276,1,0,,,,,,,,,,,,,,,,,,,,,1,,,,,,,,,,,,,,,,,,,,,,,,,,,,,,,,,,,,,,,,,,,,,,96,151702,20,Female,1,2024/03/15_16:13:51,YZ,None,
,,,,,,practice,0,6,3,19,16,J,0,right,0.5694661489978898,1,0,,,,,,,,,,,,,,,,,,,,,1,,,,,,,,,,,,,,,,,,,,,,,,,,,,,,,,,,,,,,,,,,,,,,96,151702,20,Female,1,2024/03/15_16:13:51,YZ,None,
,,,,,,practice,0,6,3,19,17,J,0,right,0.6799973199958913,1,0,,,,,,,,,,,,,,,,,,,,,1,,,,,,,,,,,,,,,,,,,,,,,,,,,,,,,,,,,,,,,,,,,,,,96,151702,20,Female,1,2024/03/15_16:13:51,YZ,None,
,,,,,,practice,0,6,3,19,18,V,0,right,0.79668126499746,1,0,,,,,,,,,,,,,,,,,,,,,1,,,,,,,,,,,,,,,,,,,,,,,,,,,,,,,,,,,,,,,,,,,,,,96,151702,20,Female,1,2024/03/15_16:13:51,YZ,None,
,,,,,,practice,0,6,3,19,19,J,1,right,1.995980484993197,0,0,,,,,,,,,,,,,,,,,,,,,1,,,,,,,,,,,,,,,,,,,,,,,,,,,,,,,,,,,,,,,,,,,,,,96,151702,20,Female,1,2024/03/15_16:13:51,YZ,None,
,,,,,,practice,0,6,3,19,20,Q,0,right,1.0759550969814882,1,0,,,,,,,,,,,,,,,,,,,,,1,,,,,,,,,,,,,,,,,,,,,,,,,,,,,,,,,,,,,,,,,,,,,,96,151702,20,Female,1,2024/03/15_16:13:51,YZ,None,
,,,,,,practice,0,6,3,19,21,V,1,left,0.9176207459822763,1,0,,,,,,,,,,,,,,,,,,,,,1,,,,,,,,,,,,,,,,,,,,,,,,,,,,,,,,,,,,,,,,,,,,,,96,151702,20,Female,1,2024/03/15_16:13:51,YZ,None,
,,,,,,practice,0,6,3,19,22,V,0,left,0.9536202040035278,0,0,,,,,,,,,,,,,,,,,,,,,1,,,,,,,,,,,,,,,,,,,,,,,,,,,,,,,,,,,,,,,,,,,,,,96,151702,20,Female,1,2024/03/15_16:13:51,YZ,None,
,,,,,,practice,0,6,3,19,23,Q,1,right,0.620729191985447,0,0,,,,,,,,,,,,,,,,,,,,,1,,,,,,,,,,,,,,,,,,,,,,,,,,,,,,,,,,,,,,,,,,,,,,96,151702,20,Female,1,2024/03/15_16:13:51,YZ,None,
,,,,,,practice,0,6,3,19,24,V,1,right,0.9215926629840396,0,0,,,,,,,,,,,,,,,,,,,,,1,,,,,,,,,,,,,,,,,,,,,,,,,,,,,,,,,,,,,,,,,,,,,,96,151702,20,Female,1,2024/03/15_16:13:51,YZ,None,
,,,,,,practice,0,6,3,19,25,Q,0,right,0.8042921339801978,1,0,,,,,,,,,,,,,,,,,,,,,1,,,,,,,,,,,,,,,,,,,,,,,,,,,,,,,,,,,,,,,,,,,,,,96,151702,20,Female,1,2024/03/15_16:13:51,YZ,None,
,,,,,,practice,0,6,3,19,26,Q,1,right,0.6015750249789562,0,0,,,,,,,,,,,,,,,,,,,,,1,,,,,,,,,,,,,,,,,,,,,,,,,,,,,,,,,,,,,,,,,,,,,,96,151702,20,Female,1,2024/03/15_16:13:51,YZ,None,
,,,,,,practice,0,6,3,19,,,,,,,,0.7928240740740742,0.375,0.05555555555555555,0.9444444444444444,0.0,0.9444444444444444,0.8191710302624136,3,1,0,0,0,17,20,8,18,0,,,,1,,,,,,,,,,,,,,,,,,,,,,,,,,,,,,,,,,,,,,,,,,,,,,96,151702,20,Female,1,2024/03/15_16:13:51,YZ,None,
,,,,,,practice,0,9,3,19,1,V,0,right,0.8450318930263165,1,0,,,,,,,,,,,,,,,,,,,,,1,,,,,,,,,,,,,,,,,,,,,,,,,,,,,,,,,,,,,,,,,,,,,,96,151702,20,Female,1,2024/03/15_16:13:51,YZ,None,
,,,,,,practice,0,9,3,19,2,J,0,right,0.7201854730083141,1,0,,,,,,,,,,,,,,,,,,,,,1,,,,,,,,,,,,,,,,,,,,,,,,,,,,,,,,,,,,,,,,,,,,,,96,151702,20,Female,1,2024/03/15_16:13:51,YZ,None,
,,,,,,practice,0,9,3,19,3,J,0,right,0.3696532850153744,1,0,,,,,,,,,,,,,,,,,,,,,1,,,,,,,,,,,,,,,,,,,,,,,,,,,,,,,,,,,,,,,,,,,,,,96,151702,20,Female,1,2024/03/15_16:13:51,YZ,None,
,,,,,,practice,0,9,3,19,4,N,0,right,0.5094750040152576,1,0,,,,,,,,,,,,,,,,,,,,,1,,,,,,,,,,,,,,,,,,,,,,,,,,,,,,,,,,,,,,,,,,,,,,96,151702,20,Female,1,2024/03/15_16:13:51,YZ,None,
,,,,,,practice,0,9,3,19,5,V,0,left,1.173055336024845,0,0,,,,,,,,,,,,,,,,,,,,,1,,,,,,,,,,,,,,,,,,,,,,,,,,,,,,,,,,,,,,,,,,,,,,96,151702,20,Female,1,2024/03/15_16:13:51,YZ,None,
,,,,,,practice,0,9,3,19,6,X,0,right,1.0785458050086163,1,0,,,,,,,,,,,,,,,,,,,,,1,,,,,,,,,,,,,,,,,,,,,,,,,,,,,,,,,,,,,,,,,,,,,,96,151702,20,Female,1,2024/03/15_16:13:51,YZ,None,
,,,,,,practice,0,9,3,19,7,N,1,right,1.0570407829945907,0,0,,,,,,,,,,,,,,,,,,,,,1,,,,,,,,,,,,,,,,,,,,,,,,,,,,,,,,,,,,,,,,,,,,,,96,151702,20,Female,1,2024/03/15_16:13:51,YZ,None,
,,,,,,practice,0,9,3,19,8,C,0,right,0.3922729580081068,1,0,,,,,,,,,,,,,,,,,,,,,1,,,,,,,,,,,,,,,,,,,,,,,,,,,,,,,,,,,,,,,,,,,,,,96,151702,20,Female,1,2024/03/15_16:13:51,YZ,None,
,,,,,,practice,0,9,3,19,9,X,1,left,0.9209246170066763,1,0,,,,,,,,,,,,,,,,,,,,,1,,,,,,,,,,,,,,,,,,,,,,,,,,,,,,,,,,,,,,,,,,,,,,96,151702,20,Female,1,2024/03/15_16:13:51,YZ,None,
,,,,,,practice,0,9,3,19,10,J,0,right,0.36832562999916263,1,0,,,,,,,,,,,,,,,,,,,,,1,,,,,,,,,,,,,,,,,,,,,,,,,,,,,,,,,,,,,,,,,,,,,,96,151702,20,Female,1,2024/03/15_16:13:51,YZ,None,
,,,,,,practice,0,9,3,19,11,C,1,right,0.40273446700302884,0,0,,,,,,,,,,,,,,,,,,,,,1,,,,,,,,,,,,,,,,,,,,,,,,,,,,,,,,,,,,,,,,,,,,,,96,151702,20,Female,1,2024/03/15_16:13:51,YZ,None,
,,,,,,practice,0,9,3,19,12,N,0,left,0.6184635229874402,0,0,,,,,,,,,,,,,,,,,,,,,1,,,,,,,,,,,,,,,,,,,,,,,,,,,,,,,,,,,,,,,,,,,,,,96,151702,20,Female,1,2024/03/15_16:13:51,YZ,None,
,,,,,,practice,0,9,3,19,13,S,0,right,0.23204770902520977,1,0,,,,,,,,,,,,,,,,,,,,,1,,,,,,,,,,,,,,,,,,,,,,,,,,,,,,,,,,,,,,,,,,,,,,96,151702,20,Female,1,2024/03/15_16:13:51,YZ,None,
,,,,,,practice,0,9,3,19,14,F,0,right,0.23668018099851906,1,0,,,,,,,,,,,,,,,,,,,,,1,,,,,,,,,,,,,,,,,,,,,,,,,,,,,,,,,,,,,,,,,,,,,,96,151702,20,Female,1,2024/03/15_16:13:51,YZ,None,
,,,,,,practice,0,9,3,19,15,N,1,right,1.1515754899883177,0,0,,,,,,,,,,,,,,,,,,,,,1,,,,,,,,,,,,,,,,,,,,,,,,,,,,,,,,,,,,,,,,,,,,,,96,151702,20,Female,1,2024/03/15_16:13:51,YZ,None,
,,,,,,practice,0,9,3,19,16,V,0,right,1.1851814500114415,1,0,,,,,,,,,,,,,,,,,,,,,1,,,,,,,,,,,,,,,,,,,,,,,,,,,,,,,,,,,,,,,,,,,,,,96,151702,20,Female,1,2024/03/15_16:13:51,YZ,None,
,,,,,,practice,0,9,3,19,17,S,0,right,3.287667760014301,1,0,,,,,,,,,,,,,,,,,,,,,1,,,,,,,,,,,,,,,,,,,,,,,,,,,,,,,,,,,,,,,,,,,,,,96,151702,20,Female,1,2024/03/15_16:13:51,YZ,None,
,,,,,,practice,0,9,3,19,18,N,1,right,4.981095568015007,0,0,,,,,,,,,,,,,,,,,,,,,1,,,,,,,,,,,,,,,,,,,,,,,,,,,,,,,,,,,,,,,,,,,,,,96,151702,20,Female,1,2024/03/15_16:13:51,YZ,None,
,,,,,,practice,0,9,3,19,19,N,0,right,0.6329288969864137,1,0,,,,,,,,,,,,,,,,,,,,,1,,,,,,,,,,,,,,,,,,,,,,,,,,,,,,,,,,,,,,,,,,,,,,96,151702,20,Female,1,2024/03/15_16:13:51,YZ,None,
,,,,,,practice,0,9,3,19,20,F,0,right,1.241834704997018,1,0,,,,,,,,,,,,,,,,,,,,,1,,,,,,,,,,,,,,,,,,,,,,,,,,,,,,,,,,,,,,,,,,,,,,96,151702,20,Female,1,2024/03/15_16:13:51,YZ,None,
,,,,,,practice,0,9,3,19,21,C,0,right,0.9856635880132671,1,0,,,,,,,,,,,,,,,,,,,,,1,,,,,,,,,,,,,,,,,,,,,,,,,,,,,,,,,,,,,,,,,,,,,,96,151702,20,Female,1,2024/03/15_16:13:51,YZ,None,
,,,,,,practice,0,9,3,19,22,F,0,right,0.7354292449890636,1,0,,,,,,,,,,,,,,,,,,,,,1,,,,,,,,,,,,,,,,,,,,,,,,,,,,,,,,,,,,,,,,,,,,,,96,151702,20,Female,1,2024/03/15_16:13:51,YZ,None,
,,,,,,practice,0,9,3,19,23,F,1,right,0.7327801449864637,0,0,,,,,,,,,,,,,,,,,,,,,1,,,,,,,,,,,,,,,,,,,,,,,,,,,,,,,,,,,,,,,,,,,,,,96,151702,20,Female,1,2024/03/15_16:13:51,YZ,None,
,,,,,,practice,0,9,3,19,24,N,0,right,0.9998284190078266,1,0,,,,,,,,,,,,,,,,,,,,,1,,,,,,,,,,,,,,,,,,,,,,,,,,,,,,,,,,,,,,,,,,,,,,96,151702,20,Female,1,2024/03/15_16:13:51,YZ,None,
,,,,,,practice,0,9,3,19,25,X,0,right,0.42759021898382343,1,0,,,,,,,,,,,,,,,,,,,,,1,,,,,,,,,,,,,,,,,,,,,,,,,,,,,,,,,,,,,,,,,,,,,,96,151702,20,Female,1,2024/03/15_16:13:51,YZ,None,
,,,,,,practice,0,9,3,19,26,F,1,left,1.0659609109861776,1,0,,,,,,,,,,,,,,,,,,,,,1,,,,,,,,,,,,,,,,,,,,,,,,,,,,,,,,,,,,,,,,,,,,,,96,151702,20,Female,1,2024/03/15_16:13:51,YZ,None,
,,,,,,practice,0,9,3,19,,,,,,,,0.7030075187969925,0.2857142857142857,0.10526315789473684,0.8947368421052632,0.0,0.8947368421052632,1.0135374254269454,2,2,0,0,0,17,19,7,19,0,,,,1,,,,,,,,,,,,,,,,,,,,,,,,,,,,,,,,,,,,,,,,,,,,,,96,151702,20,Female,1,2024/03/15_16:13:51,YZ,None,
1,./instructions/inst_redo_3/Slide47.png,right,14.586417746992083,846.8560671379964,861.4424848849885,,,,,,,,,,,,,,,,,,,,,,,,,,,,,,,,,1,,,,,,,,,,,,,,,,,,,,,,,,,,,,,,,,,,,,,,,,,,,,,,96,151702,20,Female,1,2024/03/15_16:13:51,YZ,None,
,,,,,,practice,0,26,3,19,1,V,0,right,2.2670165140007157,1,0,,,,,,,,,,,,,,,,,,,,,1,,,,,,,,,,,,,,,,,,,,,,,,,,,,,,,,,,,,,,,,,,,,,,96,151702,20,Female,1,2024/03/15_16:13:51,YZ,None,
,,,,,,practice,0,26,3,19,2,S,0,right,2.0411326689936686,1,0,,,,,,,,,,,,,,,,,,,,,1,,,,,,,,,,,,,,,,,,,,,,,,,,,,,,,,,,,,,,,,,,,,,,96,151702,20,Female,1,2024/03/15_16:13:51,YZ,None,
,,,,,,practice,0,26,3,19,3,J,0,right,2.6319410190044437,1,0,,,,,,,,,,,,,,,,,,,,,1,,,,,,,,,,,,,,,,,,,,,,,,,,,,,,,,,,,,,,,,,,,,,,96,151702,20,Female,1,2024/03/15_16:13:51,YZ,None,
,,,,,,practice,0,26,3,19,4,S,0,right,2.792835127998842,1,0,,,,,,,,,,,,,,,,,,,,,1,,,,,,,,,,,,,,,,,,,,,,,,,,,,,,,,,,,,,,,,,,,,,,96,151702,20,Female,1,2024/03/15_16:13:51,YZ,None,
,,,,,,practice,0,26,3,19,5,N,0,right,1.3612907009955961,1,0,,,,,,,,,,,,,,,,,,,,,1,,,,,,,,,,,,,,,,,,,,,,,,,,,,,,,,,,,,,,,,,,,,,,96,151702,20,Female,1,2024/03/15_16:13:51,YZ,None,
,,,,,,practice,0,26,3,19,6,Q,0,right,1.3641884170065168,1,0,,,,,,,,,,,,,,,,,,,,,1,,,,,,,,,,,,,,,,,,,,,,,,,,,,,,,,,,,,,,,,,,,,,,96,151702,20,Female,1,2024/03/15_16:13:51,YZ,None,
,,,,,,practice,0,26,3,19,7,S,1,left,2.170148179982789,1,0,,,,,,,,,,,,,,,,,,,,,1,,,,,,,,,,,,,,,,,,,,,,,,,,,,,,,,,,,,,,,,,,,,,,96,151702,20,Female,1,2024/03/15_16:13:51,YZ,None,
,,,,,,practice,0,26,3,19,8,Q,0,right,1.1883374950266443,1,0,,,,,,,,,,,,,,,,,,,,,1,,,,,,,,,,,,,,,,,,,,,,,,,,,,,,,,,,,,,,,,,,,,,,96,151702,20,Female,1,2024/03/15_16:13:51,YZ,None,
,,,,,,practice,0,26,3,19,9,F,0,right,2.800628589990083,1,0,,,,,,,,,,,,,,,,,,,,,1,,,,,,,,,,,,,,,,,,,,,,,,,,,,,,,,,,,,,,,,,,,,,,96,151702,20,Female,1,2024/03/15_16:13:51,YZ,None,
,,,,,,practice,0,26,3,19,10,J,0,right,1.7165521529968828,1,0,,,,,,,,,,,,,,,,,,,,,1,,,,,,,,,,,,,,,,,,,,,,,,,,,,,,,,,,,,,,,,,,,,,,96,151702,20,Female,1,2024/03/15_16:13:51,YZ,None,
,,,,,,practice,0,26,3,19,11,Q,1,right,2.0809728240128607,0,0,,,,,,,,,,,,,,,,,,,,,1,,,,,,,,,,,,,,,,,,,,,,,,,,,,,,,,,,,,,,,,,,,,,,96,151702,20,Female,1,2024/03/15_16:13:51,YZ,None,
