Instruction,Stimulus,Key,RT,START,END,Phase,Block,TrialN,NbackLevel,ISI,LetterN,Letter,Letter_isSame,Letter_Resp,Letter_RT,Letter_Accuracy,Letter_Timeout,Trial_A_measure,Trial_HR,Trial_FAR,Trial_CDR,Trial_MSR,Trial_ACC,Trial_RT,Trial_HitsCount,Trial_FAsCount,Trial_SameNoRespCount,Trial_DiffNoRespCount,Trial_NoRespCount,Trial_CDsCount,Trial_CorrectRespCount,Trial_SameLetterCount,Trial_DiffLetterCount,Trial_InvalidLetterCount,TrialCountCali,CaliEnd_A_measure,ISI_calibrated,Run,TrialIndex,TrialNumber_total,TrialNumber_valid,CueLearning,TrialDemandLearning,CueMapping,OnlineRating,OnlineRatingRT,OnlineRatingTimeOut,CueSTART,RatingSTART,OfflineRatingTimePoint,OfflineRatingQuesIndex,CueFigure,TrialDemand,OfflineRating,OfflineRatingRT,CueStart,OfflineRatingStart,PhaseType,CueLeft,CueDemandLeft,CueRight,CueDemandRight,Choice,ChoiceDemand,TaskDemand,ChoiceRT,ChoiceTimeOut,ChoiceSTART,CueCheck,CueDemandCheck,CorrectAnswer,Answer,AnswerDemand,AnswerRT,AnswerACC,AnswerTimeOut,CheckSTART,DemandRatingQuesIndex,QuesTLX,DemandLevel,DemandRating,DemandRatingRT,QuesStart,PID,SONA,Age,Gender,Run,TIME,EXPERIMENTER,frameRate,
-1,./instructions/inst_begin/Slide2.png,left,23.287240595003823,0.1286550980003085,23.41589569300413,,,,,,,,,,,,,,,,,,,,,,,,,,,,,,,,,1,,,,,,,,,,,,,,,,,,,,,,,,,,,,,,,,,,,,,,,,,,,,,,64,159238,24,Female,1,2024/02/16_15:27:34,YZ,None,
0,./instructions/inst_begin/Slide4.png,right,18.50689097000577,23.444953333004378,41.95184430301015,,,,,,,,,,,,,,,,,,,,,,,,,,,,,,,,,1,,,,,,,,,,,,,,,,,,,,,,,,,,,,,,,,,,,,,,,,,,,,,,64,159238,24,Female,1,2024/02/16_15:27:34,YZ,None,
1,./instructions/inst_begin/Slide2.png,right,5.923378483013948,41.980450896997354,47.9038293800113,,,,,,,,,,,,,,,,,,,,,,,,,,,,,,,,,1,,,,,,,,,,,,,,,,,,,,,,,,,,,,,,,,,,,,,,,,,,,,,,64,159238,24,Female,1,2024/02/16_15:27:34,YZ,None,
2,./instructions/inst_begin/Slide3.png,right,15.283579413997359,47.93208705500001,63.21566646899737,,,,,,,,,,,,,,,,,,,,,,,,,,,,,,,,,1,,,,,,,,,,,,,,,,,,,,,,,,,,,,,,,,,,,,,,,,,,,,,,64,159238,24,Female,1,2024/02/16_15:27:34,YZ,None,
3,./instructions/inst_begin/Slide4.png,right,9.87556934299937,63.244412939006,73.11998228200537,,,,,,,,,,,,,,,,,,,,,,,,,,,,,,,,,1,,,,,,,,,,,,,,,,,,,,,,,,,,,,,,,,,,,,,,,,,,,,,,64,159238,24,Female,1,2024/02/16_15:27:34,YZ,None,
1,./instructions/inst_prac_2/Slide6.png,right,25.52957677100494,73.15811748300621,98.68769425401115,,,,,,,,,,,,,,,,,,,,,,,,,,,,,,,,,1,,,,,,,,,,,,,,,,,,,,,,,,,,,,,,,,,,,,,,,,,,,,,,64,159238,24,Female,1,2024/02/16_15:27:34,YZ,None,
2,./instructions/inst_prac_2/Slide7.png,right,20.18271448899759,98.7208706960082,118.9035851850058,,,,,,,,,,,,,,,,,,,,,,,,,,,,,,,,,1,,,,,,,,,,,,,,,,,,,,,,,,,,,,,,,,,,,,,,,,,,,,,,64,159238,24,Female,1,2024/02/16_15:27:34,YZ,None,
3,./instructions/inst_prac_2/Slide8.png,right,14.974915125989355,118.9367228050105,133.91163793099986,,,,,,,,,,,,,,,,,,,,,,,,,,,,,,,,,1,,,,,,,,,,,,,,,,,,,,,,,,,,,,,,,,,,,,,,,,,,,,,,64,159238,24,Female,1,2024/02/16_15:27:34,YZ,None,
2,./instructions/inst_prac_2/Slide9.png,left,7.463329944002908,133.94460931699723,141.40793926100014,,,,,,,,,,,,,,,,,,,,,,,,,,,,,,,,,1,,,,,,,,,,,,,,,,,,,,,,,,,,,,,,,,,,,,,,,,,,,,,,64,159238,24,Female,1,2024/02/16_15:27:34,YZ,None,
1,./instructions/inst_prac_2/Slide8.png,left,0.20047328399959952,141.4361354540015,141.6366087380011,,,,,,,,,,,,,,,,,,,,,,,,,,,,,,,,,1,,,,,,,,,,,,,,,,,,,,,,,,,,,,,,,,,,,,,,,,,,,,,,64,159238,24,Female,1,2024/02/16_15:27:34,YZ,None,
0,./instructions/inst_prac_2/Slide7.png,left,0.8847503029974177,141.65921322800568,142.5439635310031,,,,,,,,,,,,,,,,,,,,,,,,,,,,,,,,,1,,,,,,,,,,,,,,,,,,,,,,,,,,,,,,,,,,,,,,,,,,,,,,64,159238,24,Female,1,2024/02/16_15:27:34,YZ,None,
1,./instructions/inst_prac_2/Slide6.png,right,18.195396326002083,142.572214394997,160.76761072099907,,,,,,,,,,,,,,,,,,,,,,,,,,,,,,,,,1,,,,,,,,,,,,,,,,,,,,,,,,,,,,,,,,,,,,,,,,,,,,,,64,159238,24,Female,1,2024/02/16_15:27:34,YZ,None,
2,./instructions/inst_prac_2/Slide7.png,right,7.899337725000805,160.79631324500951,168.69565097001032,,,,,,,,,,,,,,,,,,,,,,,,,,,,,,,,,1,,,,,,,,,,,,,,,,,,,,,,,,,,,,,,,,,,,,,,,,,,,,,,64,159238,24,Female,1,2024/02/16_15:27:34,YZ,None,
3,./instructions/inst_prac_2/Slide8.png,right,16.371959495998453,168.72383628399984,185.0957957799983,,,,,,,,,,,,,,,,,,,,,,,,,,,,,,,,,1,,,,,,,,,,,,,,,,,,,,,,,,,,,,,,,,,,,,,,,,,,,,,,64,159238,24,Female,1,2024/02/16_15:27:34,YZ,None,
4,./instructions/inst_prac_2/Slide9.png,right,4.203633358003572,185.1240315920004,189.32766495000396,,,,,,,,,,,,,,,,,,,,,,,,,,,,,,,,,1,,,,,,,,,,,,,,,,,,,,,,,,,,,,,,,,,,,,,,,,,,,,,,64,159238,24,Female,1,2024/02/16_15:27:34,YZ,None,
5,./instructions/inst_prac_2/Slide10.png,right,6.506272988001001,189.35755887300184,195.86383186100284,,,,,,,,,,,,,,,,,,,,,,,,,,,,,,,,,1,,,,,,,,,,,,,,,,,,,,,,,,,,,,,,,,,,,,,,,,,,,,,,64,159238,24,Female,1,2024/02/16_15:27:34,YZ,None,
6,./instructions/inst_prac_2/Slide11.png,right,2.7510251839994453,195.89681153300626,198.6478367170057,,,,,,,,,,,,,,,,,,,,,,,,,,,,,,,,,1,,,,,,,,,,,,,,,,,,,,,,,,,,,,,,,,,,,,,,,,,,,,,,64,159238,24,Female,1,2024/02/16_15:27:34,YZ,None,
7,./instructions/inst_prac_2/Slide12.png,right,1.143045026998152,198.68068201000278,199.82372703700094,,,,,,,,,,,,,,,,,,,,,,,,,,,,,,,,,1,,,,,,,,,,,,,,,,,,,,,,,,,,,,,,,,,,,,,,,,,,,,,,64,159238,24,Female,1,2024/02/16_15:27:34,YZ,None,
8,./instructions/inst_prac_2/Slide13.png,right,1.3405459149944363,199.85132413200336,201.1918700469978,,,,,,,,,,,,,,,,,,,,,,,,,,,,,,,,,1,,,,,,,,,,,,,,,,,,,,,,,,,,,,,,,,,,,,,,,,,,,,,,64,159238,24,Female,1,2024/02/16_15:27:34,YZ,None,
7,./instructions/inst_prac_2/Slide14.png,left,1.2286970199929783,201.21908294400782,202.4477799640008,,,,,,,,,,,,,,,,,,,,,,,,,,,,,,,,,1,,,,,,,,,,,,,,,,,,,,,,,,,,,,,,,,,,,,,,,,,,,,,,64,159238,24,Female,1,2024/02/16_15:27:34,YZ,None,
8,./instructions/inst_prac_2/Slide13.png,right,3.3693422580108745,202.47030241299944,205.83964467101032,,,,,,,,,,,,,,,,,,,,,,,,,,,,,,,,,1,,,,,,,,,,,,,,,,,,,,,,,,,,,,,,,,,,,,,,,,,,,,,,64,159238,24,Female,1,2024/02/16_15:27:34,YZ,None,
9,./instructions/inst_prac_2/Slide14.png,right,22.971287061998737,205.8683202430111,228.83960730500985,,,,,,,,,,,,,,,,,,,,,,,,,,,,,,,,,1,,,,,,,,,,,,,,,,,,,,,,,,,,,,,,,,,,,,,,,,,,,,,,64,159238,24,Female,1,2024/02/16_15:27:34,YZ,None,
10,./instructions/inst_prac_2/Slide15.png,right,27.719051078005577,228.87265936400217,256.59171044200775,,,,,,,,,,,,,,,,,,,,,,,,,,,,,,,,,1,,,,,,,,,,,,,,,,,,,,,,,,,,,,,,,,,,,,,,,,,,,,,,64,159238,24,Female,1,2024/02/16_15:27:34,YZ,None,
,,,,,,practice,0,33,2,2583,1,F,0,right,2.938770292006666,1,0,,,,,,,,,,,,,,,,,,,,,1,,,,,,,,,,,,,,,,,,,,,,,,,,,,,,,,,,,,,,,,,,,,,,64,159238,24,Female,1,2024/02/16_15:27:34,YZ,None,
,,,,,,practice,0,33,2,2583,2,F,0,left,1.11999954500061,0,0,,,,,,,,,,,,,,,,,,,,,1,,,,,,,,,,,,,,,,,,,,,,,,,,,,,,,,,,,,,,,,,,,,,,64,159238,24,Female,1,2024/02/16_15:27:34,YZ,None,
,,,,,,practice,0,33,2,2583,3,C,0,right,1.7452810819959268,1,0,,,,,,,,,,,,,,,,,,,,,1,,,,,,,,,,,,,,,,,,,,,,,,,,,,,,,,,,,,,,,,,,,,,,64,159238,24,Female,1,2024/02/16_15:27:34,YZ,None,
,,,,,,practice,0,33,2,2583,4,F,1,left,0.7294717740005581,1,0,,,,,,,,,,,,,,,,,,,,,1,,,,,,,,,,,,,,,,,,,,,,,,,,,,,,,,,,,,,,,,,,,,,,64,159238,24,Female,1,2024/02/16_15:27:34,YZ,None,
,,,,,,practice,0,33,2,2583,5,C,1,right,0.7023030760028632,0,0,,,,,,,,,,,,,,,,,,,,,1,,,,,,,,,,,,,,,,,,,,,,,,,,,,,,,,,,,,,,,,,,,,,,64,159238,24,Female,1,2024/02/16_15:27:34,YZ,None,
,,,,,,practice,0,33,2,2583,6,J,0,right,0.869930860993918,1,0,,,,,,,,,,,,,,,,,,,,,1,,,,,,,,,,,,,,,,,,,,,,,,,,,,,,,,,,,,,,,,,,,,,,64,159238,24,Female,1,2024/02/16_15:27:34,YZ,None,
,,,,,,practice,0,33,2,2583,,,,,,,,0.6875,0.5,0.25,0.75,0.0,0.75,1.3509594383334236,1,1,0,0,0,3,4,2,4,0,,,,1,,,,,,,,,,,,,,,,,,,,,,,,,,,,,,,,,,,,,,,,,,,,,,64,159238,24,Female,1,2024/02/16_15:27:34,YZ,None,
1,./instructions/inst_redo_2/Slide18.png,right,20.596527039000648,272.0669646879978,292.6634917269985,,,,,,,,,,,,,,,,,,,,,,,,,,,,,,,,,1,,,,,,,,,,,,,,,,,,,,,,,,,,,,,,,,,,,,,,,,,,,,,,64,159238,24,Female,1,2024/02/16_15:27:34,YZ,None,
,,,,,,practice,0,14,2,2583,1,J,0,right,0.8327476700069383,1,0,,,,,,,,,,,,,,,,,,,,,1,,,,,,,,,,,,,,,,,,,,,,,,,,,,,,,,,,,,,,,,,,,,,,64,159238,24,Female,1,2024/02/16_15:27:34,YZ,None,
,,,,,,practice,0,14,2,2583,2,C,0,right,0.7505969220073894,1,0,,,,,,,,,,,,,,,,,,,,,1,,,,,,,,,,,,,,,,,,,,,,,,,,,,,,,,,,,,,,,,,,,,,,64,159238,24,Female,1,2024/02/16_15:27:34,YZ,None,
,,,,,,practice,0,14,2,2583,3,J,1,left,0.5255147379939444,1,0,,,,,,,,,,,,,,,,,,,,,1,,,,,,,,,,,,,,,,,,,,,,,,,,,,,,,,,,,,,,,,,,,,,,64,159238,24,Female,1,2024/02/16_15:27:34,YZ,None,
,,,,,,practice,0,14,2,2583,4,C,1,left,0.5757594860042445,1,0,,,,,,,,,,,,,,,,,,,,,1,,,,,,,,,,,,,,,,,,,,,,,,,,,,,,,,,,,,,,,,,,,,,,64,159238,24,Female,1,2024/02/16_15:27:34,YZ,None,
,,,,,,practice,0,14,2,2583,5,S,0,right,0.5592564810067415,1,0,,,,,,,,,,,,,,,,,,,,,1,,,,,,,,,,,,,,,,,,,,,,,,,,,,,,,,,,,,,,,,,,,,,,64,159238,24,Female,1,2024/02/16_15:27:34,YZ,None,
,,,,,,practice,0,14,2,2583,6,F,0,right,1.1981321149942232,1,0,,,,,,,,,,,,,,,,,,,,,1,,,,,,,,,,,,,,,,,,,,,,,,,,,,,,,,,,,,,,,,,,,,,,64,159238,24,Female,1,2024/02/16_15:27:34,YZ,None,
,,,,,,practice,0,14,2,2583,,,,,,,,1.0,1.0,0.0,1.0,0.0,1.0,0.7403345686689136,2,0,0,0,0,4,6,2,4,0,,,,1,,,,,,,,,,,,,,,,,,,,,,,,,,,,,,,,,,,,,,,,,,,,,,64,159238,24,Female,1,2024/02/16_15:27:34,YZ,None,
1,./instructions/inst_to_cali/Slide20.png,right,7.429150488998857,304.4585287880036,311.88767927700246,,,,,,,,,,,,,,,,,,,,,,,,,,,,,,,,,1,,,,,,,,,,,,,,,,,,,,,,,,,,,,,,,,,,,,,,,,,,,,,,64,159238,24,Female,1,2024/02/16_15:27:34,YZ,None,
1,./instructions/inst_cali/Slide22.png,right,21.28228401999513,311.9253126600088,333.2075966800039,,,,,,,,,,,,,,,,,,,,,,,,,,,,,,,,,1,,,,,,,,,,,,,,,,,,,,,,,,,,,,,,,,,,,,,,,,,,,,,,64,159238,24,Female,1,2024/02/16_15:27:34,YZ,None,
,,,,,,calibration,0,6,2,583,1,J,0,right,1.8152531480009202,1,0,,,,,,,,,,,,,,,,,,,,,1,,,,,,,,,,,,,,,,,,,,,,,,,,,,,,,,,,,,,,,,,,,,,,64,159238,24,Female,1,2024/02/16_15:27:34,YZ,None,
,,,,,,calibration,0,6,2,583,2,S,0,right,0.8246765930089168,1,0,,,,,,,,,,,,,,,,,,,,,1,,,,,,,,,,,,,,,,,,,,,,,,,,,,,,,,,,,,,,,,,,,,,,64,159238,24,Female,1,2024/02/16_15:27:34,YZ,None,
,,,,,,calibration,0,6,2,583,3,C,0,right,0.7460748390003573,1,0,,,,,,,,,,,,,,,,,,,,,1,,,,,,,,,,,,,,,,,,,,,,,,,,,,,,,,,,,,,,,,,,,,,,64,159238,24,Female,1,2024/02/16_15:27:34,YZ,None,
,,,,,,calibration,0,6,2,583,4,J,0,right,1.3654200640012277,1,0,,,,,,,,,,,,,,,,,,,,,1,,,,,,,,,,,,,,,,,,,,,,,,,,,,,,,,,,,,,,,,,,,,,,64,159238,24,Female,1,2024/02/16_15:27:34,YZ,None,
,,,,,,calibration,0,6,2,583,5,N,0,right,0.8137298749934416,1,0,,,,,,,,,,,,,,,,,,,,,1,,,,,,,,,,,,,,,,,,,,,,,,,,,,,,,,,,,,,,,,,,,,,,64,159238,24,Female,1,2024/02/16_15:27:34,YZ,None,
,,,,,,calibration,0,6,2,583,6,J,1,left,1.075094537998666,1,0,,,,,,,,,,,,,,,,,,,,,1,,,,,,,,,,,,,,,,,,,,,,,,,,,,,,,,,,,,,,,,,,,,,,64,159238,24,Female,1,2024/02/16_15:27:34,YZ,None,
,,,,,,calibration,0,6,2,583,7,N,1,right,0.8286952729977202,0,0,,,,,,,,,,,,,,,,,,,,,1,,,,,,,,,,,,,,,,,,,,,,,,,,,,,,,,,,,,,,,,,,,,,,64,159238,24,Female,1,2024/02/16_15:27:34,YZ,None,
,,,,,,calibration,0,6,2,583,8,V,0,left,0.8085081280005397,0,0,,,,,,,,,,,,,,,,,,,,,1,,,,,,,,,,,,,,,,,,,,,,,,,,,,,,,,,,,,,,,,,,,,,,64,159238,24,Female,1,2024/02/16_15:27:34,YZ,None,
,,,,,,calibration,0,6,2,583,9,N,1,right,1.9315924089896725,0,0,,,,,,,,,,,,,,,,,,,,,1,,,,,,,,,,,,,,,,,,,,,,,,,,,,,,,,,,,,,,,,,,,,,,64,159238,24,Female,1,2024/02/16_15:27:34,YZ,None,
,,,,,,calibration,0,6,2,583,10,F,0,right,1.425692397999228,1,0,,,,,,,,,,,,,,,,,,,,,1,,,,,,,,,,,,,,,,,,,,,,,,,,,,,,,,,,,,,,,,,,,,,,64,159238,24,Female,1,2024/02/16_15:27:34,YZ,None,
,,,,,,calibration,0,6,2,583,11,X,0,right,1.1221857299969997,1,0,,,,,,,,,,,,,,,,,,,,,1,,,,,,,,,,,,,,,,,,,,,,,,,,,,,,,,,,,,,,,,,,,,,,64,159238,24,Female,1,2024/02/16_15:27:34,YZ,None,
,,,,,,calibration,0,6,2,583,12,J,0,right,1.9920665160025237,1,0,,,,,,,,,,,,,,,,,,,,,1,,,,,,,,,,,,,,,,,,,,,,,,,,,,,,,,,,,,,,,,,,,,,,64,159238,24,Female,1,2024/02/16_15:27:34,YZ,None,
,,,,,,calibration,0,6,2,583,13,X,1,left,0.48857025599863846,1,0,,,,,,,,,,,,,,,,,,,,,1,,,,,,,,,,,,,,,,,,,,,,,,,,,,,,,,,,,,,,,,,,,,,,64,159238,24,Female,1,2024/02/16_15:27:34,YZ,None,
,,,,,,calibration,0,6,2,583,14,J,1,left,0.7430809590005083,1,0,,,,,,,,,,,,,,,,,,,,,1,,,,,,,,,,,,,,,,,,,,,,,,,,,,,,,,,,,,,,,,,,,,,,64,159238,24,Female,1,2024/02/16_15:27:34,YZ,None,
,,,,,,calibration,0,6,2,583,15,Q,0,right,0.6074009620060679,1,0,,,,,,,,,,,,,,,,,,,,,1,,,,,,,,,,,,,,,,,,,,,,,,,,,,,,,,,,,,,,,,,,,,,,64,159238,24,Female,1,2024/02/16_15:27:34,YZ,None,
,,,,,,calibration,0,6,2,583,,,,,,,,0.835,0.6,0.1,0.9,0.0,0.9,1.1058694458663618,3,1,0,0,0,9,12,5,10,0,,,,1,,,,,,,,,,,,,,,,,,,,,,,,,,,,,,,,,,,,,,,,,,,,,,64,159238,24,Female,1,2024/02/16_15:27:34,YZ,None,
,,,,,,Calibration,0,,2,583,,,,,,,,,,,,,,,,,,,,,,,,,1,,,1,,,,,,,,,,,,,,,,,,,,,,,,,,,,,,,,,,,,,,,,,,,,,,64,159238,24,Female,1,2024/02/16_15:27:34,YZ,None,
,,,,,,calibration,0,9,2,583,1,S,0,None,nan,0,1,,,,,,,,,,,,,,,,,,,,,1,,,,,,,,,,,,,,,,,,,,,,,,,,,,,,,,,,,,,,,,,,,,,,64,159238,24,Female,1,2024/02/16_15:27:34,YZ,None,
,,,,,,calibration,0,9,2,583,2,F,0,None,nan,0,1,,,,,,,,,,,,,,,,,,,,,1,,,,,,,,,,,,,,,,,,,,,,,,,,,,,,,,,,,,,,,,,,,,,,64,159238,24,Female,1,2024/02/16_15:27:34,YZ,None,
,,,,,,calibration,0,9,2,583,3,V,0,right,1.058583712001564,1,0,,,,,,,,,,,,,,,,,,,,,1,,,,,,,,,,,,,,,,,,,,,,,,,,,,,,,,,,,,,,,,,,,,,,64,159238,24,Female,1,2024/02/16_15:27:34,YZ,None,
,,,,,,calibration,0,9,2,583,4,X,0,right,0.40132912500121165,1,0,,,,,,,,,,,,,,,,,,,,,1,,,,,,,,,,,,,,,,,,,,,,,,,,,,,,,,,,,,,,,,,,,,,,64,159238,24,Female,1,2024/02/16_15:27:34,YZ,None,
,,,,,,calibration,0,9,2,583,5,N,0,right,1.0544043630070519,1,0,,,,,,,,,,,,,,,,,,,,,1,,,,,,,,,,,,,,,,,,,,,,,,,,,,,,,,,,,,,,,,,,,,,,64,159238,24,Female,1,2024/02/16_15:27:34,YZ,None,
,,,,,,calibration,0,9,2,583,6,J,0,right,0.8588895069988212,1,0,,,,,,,,,,,,,,,,,,,,,1,,,,,,,,,,,,,,,,,,,,,,,,,,,,,,,,,,,,,,,,,,,,,,64,159238,24,Female,1,2024/02/16_15:27:34,YZ,None,
,,,,,,calibration,0,9,2,583,7,F,0,left,0.7456002589897253,0,0,,,,,,,,,,,,,,,,,,,,,1,,,,,,,,,,,,,,,,,,,,,,,,,,,,,,,,,,,,,,,,,,,,,,64,159238,24,Female,1,2024/02/16_15:27:34,YZ,None,
,,,,,,calibration,0,9,2,583,8,N,0,right,1.0989126799977385,1,0,,,,,,,,,,,,,,,,,,,,,1,,,,,,,,,,,,,,,,,,,,,,,,,,,,,,,,,,,,,,,,,,,,,,64,159238,24,Female,1,2024/02/16_15:27:34,YZ,None,
,,,,,,calibration,0,9,2,583,9,S,0,right,1.064989949009032,1,0,,,,,,,,,,,,,,,,,,,,,1,,,,,,,,,,,,,,,,,,,,,,,,,,,,,,,,,,,,,,,,,,,,,,64,159238,24,Female,1,2024/02/16_15:27:34,YZ,None,
,,,,,,calibration,0,9,2,583,10,J,0,left,0.6416452499979641,0,0,,,,,,,,,,,,,,,,,,,,,1,,,,,,,,,,,,,,,,,,,,,,,,,,,,,,,,,,,,,,,,,,,,,,64,159238,24,Female,1,2024/02/16_15:27:34,YZ,None,
,,,,,,calibration,0,9,2,583,11,S,1,left,0.6922575079952367,1,0,,,,,,,,,,,,,,,,,,,,,1,,,,,,,,,,,,,,,,,,,,,,,,,,,,,,,,,,,,,,,,,,,,,,64,159238,24,Female,1,2024/02/16_15:27:34,YZ,None,
,,,,,,calibration,0,9,2,583,12,J,1,left,1.3622677139937878,1,0,,,,,,,,,,,,,,,,,,,,,1,,,,,,,,,,,,,,,,,,,,,,,,,,,,,,,,,,,,,,,,,,,,,,64,159238,24,Female,1,2024/02/16_15:27:34,YZ,None,
,,,,,,calibration,0,9,2,583,13,V,0,right,0.4761033540125936,1,0,,,,,,,,,,,,,,,,,,,,,1,,,,,,,,,,,,,,,,,,,,,,,,,,,,,,,,,,,,,,,,,,,,,,64,159238,24,Female,1,2024/02/16_15:27:34,YZ,None,
,,,,,,calibration,0,9,2,583,14,J,1,left,1.2270029080100358,1,0,,,,,,,,,,,,,,,,,,,,,1,,,,,,,,,,,,,,,,,,,,,,,,,,,,,,,,,,,,,,,,,,,,,,64,159238,24,Female,1,2024/02/16_15:27:34,YZ,None,
,,,,,,calibration,0,9,2,583,15,V,1,left,1.0092589929990936,1,0,,,,,,,,,,,,,,,,,,,,,1,,,,,,,,,,,,,,,,,,,,,,,,,,,,,,,,,,,,,,,,,,,,,,64,159238,24,Female,1,2024/02/16_15:27:34,YZ,None,
,,,,,,calibration,0,9,2,583,,,,,,,,0.9545454545454546,1.0,0.18181818181818182,0.7777777777777778,0.13333333333333333,0.6848484848484848,0.899326563231835,4,2,0,2,2,7,11,4,11,0,,,,1,,,,,,,,,,,,,,,,,,,,,,,,,,,,,,,,,,,,,,,,,,,,,,64,159238,24,Female,1,2024/02/16_15:27:34,YZ,None,
,,,,,,Calibration,0,,2,583,,,,,,,,,,,,,,,,,,,,,,,,,2,,,1,,,,,,,,,,,,,,,,,,,,,,,,,,,,,,,,,,,,,,,,,,,,,,64,159238,24,Female,1,2024/02/16_15:27:34,YZ,None,
,,,,,,calibration,0,24,2,500,1,N,0,None,nan,0,1,,,,,,,,,,,,,,,,,,,,,1,,,,,,,,,,,,,,,,,,,,,,,,,,,,,,,,,,,,,,,,,,,,,,64,159238,24,Female,1,2024/02/16_15:27:34,YZ,None,
,,,,,,calibration,0,24,2,500,2,V,0,None,nan,0,1,,,,,,,,,,,,,,,,,,,,,1,,,,,,,,,,,,,,,,,,,,,,,,,,,,,,,,,,,,,,,,,,,,,,64,159238,24,Female,1,2024/02/16_15:27:34,YZ,None,
,,,,,,calibration,0,24,2,500,3,N,1,left,0.5750114429974928,1,0,,,,,,,,,,,,,,,,,,,,,1,,,,,,,,,,,,,,,,,,,,,,,,,,,,,,,,,,,,,,,,,,,,,,64,159238,24,Female,1,2024/02/16_15:27:34,YZ,None,
,,,,,,calibration,0,24,2,500,4,S,0,right,0.45994794998841826,1,0,,,,,,,,,,,,,,,,,,,,,1,,,,,,,,,,,,,,,,,,,,,,,,,,,,,,,,,,,,,,,,,,,,,,64,159238,24,Female,1,2024/02/16_15:27:34,YZ,None,
,,,,,,calibration,0,24,2,500,5,F,0,left,0.7092924339958699,0,0,,,,,,,,,,,,,,,,,,,,,1,,,,,,,,,,,,,,,,,,,,,,,,,,,,,,,,,,,,,,,,,,,,,,64,159238,24,Female,1,2024/02/16_15:27:34,YZ,None,
,,,,,,calibration,0,24,2,500,6,X,0,left,nan,0,1,,,,,,,,,,,,,,,,,,,,,1,,,,,,,,,,,,,,,,,,,,,,,,,,,,,,,,,,,,,,,,,,,,,,64,159238,24,Female,1,2024/02/16_15:27:34,YZ,None,
,,,,,,calibration,0,24,2,500,7,F,1,left,0.958803371002432,1,0,,,,,,,,,,,,,,,,,,,,,1,,,,,,,,,,,,,,,,,,,,,,,,,,,,,,,,,,,,,,,,,,,,,,64,159238,24,Female,1,2024/02/16_15:27:34,YZ,None,
,,,,,,calibration,0,24,2,500,8,N,0,left,nan,0,1,,,,,,,,,,,,,,,,,,,,,1,,,,,,,,,,,,,,,,,,,,,,,,,,,,,,,,,,,,,,,,,,,,,,64,159238,24,Female,1,2024/02/16_15:27:34,YZ,None,
,,,,,,calibration,0,24,2,500,9,J,0,left,nan,0,1,,,,,,,,,,,,,,,,,,,,,1,,,,,,,,,,,,,,,,,,,,,,,,,,,,,,,,,,,,,,,,,,,,,,64,159238,24,Female,1,2024/02/16_15:27:34,YZ,None,
,,,,,,calibration,0,24,2,500,10,Q,0,right,0.0,1,0,,,,,,,,,,,,,,,,,,,,,1,,,,,,,,,,,,,,,,,,,,,,,,,,,,,,,,,,,,,,,,,,,,,,64,159238,24,Female,1,2024/02/16_15:27:34,YZ,None,
,,,,,,calibration,0,24,2,500,11,X,0,right,nan,0,1,,,,,,,,,,,,,,,,,,,,,1,,,,,,,,,,,,,,,,,,,,,,,,,,,,,,,,,,,,,,,,,,,,,,64,159238,24,Female,1,2024/02/16_15:27:34,YZ,None,
,,,,,,calibration,0,24,2,500,12,Q,1,left,0.6558243329927791,1,0,,,,,,,,,,,,,,,,,,,,,1,,,,,,,,,,,,,,,,,,,,,,,,,,,,,,,,,,,,,,,,,,,,,,64,159238,24,Female,1,2024/02/16_15:27:34,YZ,None,
,,,,,,calibration,0,24,2,500,13,X,1,left,0.9757843270053854,1,0,,,,,,,,,,,,,,,,,,,,,1,,,,,,,,,,,,,,,,,,,,,,,,,,,,,,,,,,,,,,,,,,,,,,64,159238,24,Female,1,2024/02/16_15:27:34,YZ,None,
,,,,,,calibration,0,24,2,500,14,C,0,right,0.4161742319993209,1,0,,,,,,,,,,,,,,,,,,,,,1,,,,,,,,,,,,,,,,,,,,,,,,,,,,,,,,,,,,,,,,,,,,,,64,159238,24,Female,1,2024/02/16_15:27:34,YZ,None,
,,,,,,calibration,0,24,2,500,15,F,0,right,nan,0,1,,,,,,,,,,,,,,,,,,,,,1,,,,,,,,,,,,,,,,,,,,,,,,,,,,,,,,,,,,,,,,,,,,,,64,159238,24,Female,1,2024/02/16_15:27:34,YZ,None,
,,,,,,calibration,0,24,2,500,16,N,0,right,0.8973433350038249,1,0,,,,,,,,,,,,,,,,,,,,,1,,,,,,,,,,,,,,,,,,,,,,,,,,,,,,,,,,,,,,,,,,,,,,64,159238,24,Female,1,2024/02/16_15:27:34,YZ,None,
,,,,,,calibration,0,24,2,500,,,,,,,,0.9791666666666666,1.0,0.08333333333333333,0.8,0.4375,0.47916666666666663,0.6275757138872804,4,1,0,7,7,4,8,4,12,0,,,,1,,,,,,,,,,,,,,,,,,,,,,,,,,,,,,,,,,,,,,,,,,,,,,64,159238,24,Female,1,2024/02/16_15:27:34,YZ,None,
,,,,,,Calibration,0,,2,500,,,,,,,,,,,,,,,,,,,,,,,,,3,,,1,,,,,,,,,,,,,,,,,,,,,,,,,,,,,,,,,,,,,,,,,,,,,,64,159238,24,Female,1,2024/02/16_15:27:34,YZ,None,
,,,,,,calibration,0,6,2,426,1,J,0,None,nan,0,1,,,,,,,,,,,,,,,,,,,,,1,,,,,,,,,,,,,,,,,,,,,,,,,,,,,,,,,,,,,,,,,,,,,,64,159238,24,Female,1,2024/02/16_15:27:34,YZ,None,
,,,,,,calibration,0,6,2,426,2,C,0,right,0.10880498599726707,1,0,,,,,,,,,,,,,,,,,,,,,1,,,,,,,,,,,,,,,,,,,,,,,,,,,,,,,,,,,,,,,,,,,,,,64,159238,24,Female,1,2024/02/16_15:27:34,YZ,None,
,,,,,,calibration,0,6,2,426,3,J,1,right,0.10160746600013226,0,0,,,,,,,,,,,,,,,,,,,,,1,,,,,,,,,,,,,,,,,,,,,,,,,,,,,,,,,,,,,,,,,,,,,,64,159238,24,Female,1,2024/02/16_15:27:34,YZ,None,
,,,,,,calibration,0,6,2,426,4,Q,0,left,0.2902444710052805,0,0,,,,,,,,,,,,,,,,,,,,,1,,,,,,,,,,,,,,,,,,,,,,,,,,,,,,,,,,,,,,,,,,,,,,64,159238,24,Female,1,2024/02/16_15:27:34,YZ,None,
,,,,,,calibration,0,6,2,426,5,S,0,right,0.9349194940004963,1,0,,,,,,,,,,,,,,,,,,,,,1,,,,,,,,,,,,,,,,,,,,,,,,,,,,,,,,,,,,,,,,,,,,,,64,159238,24,Female,1,2024/02/16_15:27:34,YZ,None,
,,,,,,calibration,0,6,2,426,6,Q,1,left,0.6731035679986235,1,0,,,,,,,,,,,,,,,,,,,,,1,,,,,,,,,,,,,,,,,,,,,,,,,,,,,,,,,,,,,,,,,,,,,,64,159238,24,Female,1,2024/02/16_15:27:34,YZ,None,
,,,,,,calibration,0,6,2,426,7,F,0,right,0.7762869180005509,1,0,,,,,,,,,,,,,,,,,,,,,1,,,,,,,,,,,,,,,,,,,,,,,,,,,,,,,,,,,,,,,,,,,,,,64,159238,24,Female,1,2024/02/16_15:27:34,YZ,None,
,,,,,,calibration,0,6,2,426,8,Q,1,left,0.7957558159978362,1,0,,,,,,,,,,,,,,,,,,,,,1,,,,,,,,,,,,,,,,,,,,,,,,,,,,,,,,,,,,,,,,,,,,,,64,159238,24,Female,1,2024/02/16_15:27:34,YZ,None,
,,,,,,calibration,0,6,2,426,9,X,0,right,0.6255108869954711,1,0,,,,,,,,,,,,,,,,,,,,,1,,,,,,,,,,,,,,,,,,,,,,,,,,,,,,,,,,,,,,,,,,,,,,64,159238,24,Female,1,2024/02/16_15:27:34,YZ,None,
,,,,,,calibration,0,6,2,426,10,Q,1,right,nan,0,1,,,,,,,,,,,,,,,,,,,,,1,,,,,,,,,,,,,,,,,,,,,,,,,,,,,,,,,,,,,,,,,,,,,,64,159238,24,Female,1,2024/02/16_15:27:34,YZ,None,
,,,,,,calibration,0,6,2,426,11,C,0,right,0.87591989300563,1,0,,,,,,,,,,,,,,,,,,,,,1,,,,,,,,,,,,,,,,,,,,,,,,,,,,,,,,,,,,,,,,,,,,,,64,159238,24,Female,1,2024/02/16_15:27:34,YZ,None,
,,,,,,calibration,0,6,2,426,12,N,0,right,0.7393810630019289,1,0,,,,,,,,,,,,,,,,,,,,,1,,,,,,,,,,,,,,,,,,,,,,,,,,,,,,,,,,,,,,,,,,,,,,64,159238,24,Female,1,2024/02/16_15:27:34,YZ,None,
,,,,,,calibration,0,6,2,426,13,J,0,right,0.8396648579946486,1,0,,,,,,,,,,,,,,,,,,,,,1,,,,,,,,,,,,,,,,,,,,,,,,,,,,,,,,,,,,,,,,,,,,,,64,159238,24,Female,1,2024/02/16_15:27:34,YZ,None,
,,,,,,calibration,0,6,2,426,14,N,1,left,0.9456388489925303,1,0,,,,,,,,,,,,,,,,,,,,,1,,,,,,,,,,,,,,,,,,,,,,,,,,,,,,,,,,,,,,,,,,,,,,64,159238,24,Female,1,2024/02/16_15:27:34,YZ,None,
,,,,,,calibration,0,6,2,426,15,X,0,right,0.8596204359928379,1,0,,,,,,,,,,,,,,,,,,,,,1,,,,,,,,,,,,,,,,,,,,,,,,,,,,,,,,,,,,,,,,,,,,,,64,159238,24,Female,1,2024/02/16_15:27:34,YZ,None,
,,,,,,calibration,0,6,2,426,16,C,0,right,nan,0,1,,,,,,,,,,,,,,,,,,,,,1,,,,,,,,,,,,,,,,,,,,,,,,,,,,,,,,,,,,,,,,,,,,,,64,159238,24,Female,1,2024/02/16_15:27:34,YZ,None,
,,,,,,calibration,0,6,2,426,17,Q,0,right,0.974793884990504,1,0,,,,,,,,,,,,,,,,,,,,,1,,,,,,,,,,,,,,,,,,,,,,,,,,,,,,,,,,,,,,,,,,,,,,64,159238,24,Female,1,2024/02/16_15:27:34,YZ,None,
,,,,,,calibration,0,6,2,426,,,,,,,,0.8458333333333333,0.6,0.08333333333333333,0.9,0.17647058823529413,0.7401960784313725,0.6815180421409812,3,1,1,2,3,9,12,5,12,0,,,,1,,,,,,,,,,,,,,,,,,,,,,,,,,,,,,,,,,,,,,,,,,,,,,64,159238,24,Female,1,2024/02/16_15:27:34,YZ,None,
,,,,,,Calibration,0,,2,426,,,,,,,,,,,,,,,,,,,,,,,,,4,,,1,,,,,,,,,,,,,,,,,,,,,,,,,,,,,,,,,,,,,,,,,,,,,,64,159238,24,Female,1,2024/02/16_15:27:34,YZ,None,
,,,,,,calibration,0,18,2,426,1,S,0,None,nan,0,1,,,,,,,,,,,,,,,,,,,,,1,,,,,,,,,,,,,,,,,,,,,,,,,,,,,,,,,,,,,,,,,,,,,,64,159238,24,Female,1,2024/02/16_15:27:34,YZ,None,
,,,,,,calibration,0,18,2,426,2,N,0,right,0.7058758519997355,1,0,,,,,,,,,,,,,,,,,,,,,1,,,,,,,,,,,,,,,,,,,,,,,,,,,,,,,,,,,,,,,,,,,,,,64,159238,24,Female,1,2024/02/16_15:27:34,YZ,None,
,,,,,,calibration,0,18,2,426,3,F,0,right,0.6762863530020695,1,0,,,,,,,,,,,,,,,,,,,,,1,,,,,,,,,,,,,,,,,,,,,,,,,,,,,,,,,,,,,,,,,,,,,,64,159238,24,Female,1,2024/02/16_15:27:34,YZ,None,
,,,,,,calibration,0,18,2,426,4,N,1,left,0.8059835320018465,1,0,,,,,,,,,,,,,,,,,,,,,1,,,,,,,,,,,,,,,,,,,,,,,,,,,,,,,,,,,,,,,,,,,,,,64,159238,24,Female,1,2024/02/16_15:27:34,YZ,None,
,,,,,,calibration,0,18,2,426,5,J,0,right,0.6126905699929921,1,0,,,,,,,,,,,,,,,,,,,,,1,,,,,,,,,,,,,,,,,,,,,,,,,,,,,,,,,,,,,,,,,,,,,,64,159238,24,Female,1,2024/02/16_15:27:34,YZ,None,
,,,,,,calibration,0,18,2,426,6,N,1,right,nan,0,1,,,,,,,,,,,,,,,,,,,,,1,,,,,,,,,,,,,,,,,,,,,,,,,,,,,,,,,,,,,,,,,,,,,,64,159238,24,Female,1,2024/02/16_15:27:34,YZ,None,
,,,,,,calibration,0,18,2,426,7,C,0,right,0.7439102189964615,1,0,,,,,,,,,,,,,,,,,,,,,1,,,,,,,,,,,,,,,,,,,,,,,,,,,,,,,,,,,,,,,,,,,,,,64,159238,24,Female,1,2024/02/16_15:27:34,YZ,None,
,,,,,,calibration,0,18,2,426,8,J,0,left,0.9288618879945716,0,0,,,,,,,,,,,,,,,,,,,,,1,,,,,,,,,,,,,,,,,,,,,,,,,,,,,,,,,,,,,,,,,,,,,,64,159238,24,Female,1,2024/02/16_15:27:34,YZ,None,
,,,,,,calibration,0,18,2,426,9,C,1,left,0.6311369670002023,1,0,,,,,,,,,,,,,,,,,,,,,1,,,,,,,,,,,,,,,,,,,,,,,,,,,,,,,,,,,,,,,,,,,,,,64,159238,24,Female,1,2024/02/16_15:27:34,YZ,None,
,,,,,,calibration,0,18,2,426,10,S,0,right,0.5745130139985122,1,0,,,,,,,,,,,,,,,,,,,,,1,,,,,,,,,,,,,,,,,,,,,,,,,,,,,,,,,,,,,,,,,,,,,,64,159238,24,Female,1,2024/02/16_15:27:34,YZ,None,
,,,,,,calibration,0,18,2,426,11,N,0,left,0.5232693339930847,0,0,,,,,,,,,,,,,,,,,,,,,1,,,,,,,,,,,,,,,,,,,,,,,,,,,,,,,,,,,,,,,,,,,,,,64,159238,24,Female,1,2024/02/16_15:27:34,YZ,None,
,,,,,,calibration,0,18,2,426,12,X,0,right,0.6506197290000273,1,0,,,,,,,,,,,,,,,,,,,,,1,,,,,,,,,,,,,,,,,,,,,,,,,,,,,,,,,,,,,,,,,,,,,,64,159238,24,Female,1,2024/02/16_15:27:34,YZ,None,
,,,,,,calibration,0,18,2,426,13,Q,0,right,0.8919129330024589,1,0,,,,,,,,,,,,,,,,,,,,,1,,,,,,,,,,,,,,,,,,,,,,,,,,,,,,,,,,,,,,,,,,,,,,64,159238,24,Female,1,2024/02/16_15:27:34,YZ,None,
,,,,,,calibration,0,18,2,426,14,X,1,left,0.895626079000067,1,0,,,,,,,,,,,,,,,,,,,,,1,,,,,,,,,,,,,,,,,,,,,,,,,,,,,,,,,,,,,,,,,,,,,,64,159238,24,Female,1,2024/02/16_15:27:34,YZ,None,
,,,,,,calibration,0,18,2,426,15,J,0,right,0.9333678209950449,1,0,,,,,,,,,,,,,,,,,,,,,1,,,,,,,,,,,,,,,,,,,,,,,,,,,,,,,,,,,,,,,,,,,,,,64,159238,24,Female,1,2024/02/16_15:27:34,YZ,None,
,,,,,,calibration,0,18,2,426,16,X,1,right,nan,0,1,,,,,,,,,,,,,,,,,,,,,1,,,,,,,,,,,,,,,,,,,,,,,,,,,,,,,,,,,,,,,,,,,,,,64,159238,24,Female,1,2024/02/16_15:27:34,YZ,None,
,,,,,,calibration,0,18,2,426,17,S,0,left,0.6973812309879577,0,0,,,,,,,,,,,,,,,,,,,,,1,,,,,,,,,,,,,,,,,,,,,,,,,,,,,,,,,,,,,,,,,,,,,,64,159238,24,Female,1,2024/02/16_15:27:34,YZ,None,
,,,,,,calibration,0,18,2,426,,,,,,,,0.7375,0.6,0.25,0.7272727272727273,0.17647058823529413,0.5735294117647058,0.7336739658546451,3,3,2,1,3,8,11,5,12,0,,,,1,,,,,,,,,,,,,,,,,,,,,,,,,,,,,,,,,,,,,,,,,,,,,,64,159238,24,Female,1,2024/02/16_15:27:34,YZ,None,
,,,,,,Calibration,0,,2,426,,,,,,,,,,,,,,,,,,,,,,,,,5,,,1,,,,,,,,,,,,,,,,,,,,,,,,,,,,,,,,,,,,,,,,,,,,,,64,159238,24,Female,1,2024/02/16_15:27:34,YZ,None,
,,,,,,calibration,0,3,2,500,1,F,0,None,nan,0,1,,,,,,,,,,,,,,,,,,,,,1,,,,,,,,,,,,,,,,,,,,,,,,,,,,,,,,,,,,,,,,,,,,,,64,159238,24,Female,1,2024/02/16_15:27:34,YZ,None,
,,,,,,calibration,0,3,2,500,2,V,0,right,0.17556648299796507,1,0,,,,,,,,,,,,,,,,,,,,,1,,,,,,,,,,,,,,,,,,,,,,,,,,,,,,,,,,,,,,,,,,,,,,64,159238,24,Female,1,2024/02/16_15:27:34,YZ,None,
,,,,,,calibration,0,3,2,500,3,F,1,left,0.5425319800124271,1,0,,,,,,,,,,,,,,,,,,,,,1,,,,,,,,,,,,,,,,,,,,,,,,,,,,,,,,,,,,,,,,,,,,,,64,159238,24,Female,1,2024/02/16_15:27:34,YZ,None,
,,,,,,calibration,0,3,2,500,4,J,0,right,0.5112317000020994,1,0,,,,,,,,,,,,,,,,,,,,,1,,,,,,,,,,,,,,,,,,,,,,,,,,,,,,,,,,,,,,,,,,,,,,64,159238,24,Female,1,2024/02/16_15:27:34,YZ,None,
,,,,,,calibration,0,3,2,500,5,Q,0,right,0.6934454549918883,1,0,,,,,,,,,,,,,,,,,,,,,1,,,,,,,,,,,,,,,,,,,,,,,,,,,,,,,,,,,,,,,,,,,,,,64,159238,24,Female,1,2024/02/16_15:27:34,YZ,None,
,,,,,,calibration,0,3,2,500,6,C,0,right,0.7893679099943256,1,0,,,,,,,,,,,,,,,,,,,,,1,,,,,,,,,,,,,,,,,,,,,,,,,,,,,,,,,,,,,,,,,,,,,,64,159238,24,Female,1,2024/02/16_15:27:34,YZ,None,
,,,,,,calibration,0,3,2,500,7,Q,1,left,0.4461905259959167,1,0,,,,,,,,,,,,,,,,,,,,,1,,,,,,,,,,,,,,,,,,,,,,,,,,,,,,,,,,,,,,,,,,,,,,64,159238,24,Female,1,2024/02/16_15:27:34,YZ,None,
,,,,,,calibration,0,3,2,500,8,N,0,right,0.4214288359944476,1,0,,,,,,,,,,,,,,,,,,,,,1,,,,,,,,,,,,,,,,,,,,,,,,,,,,,,,,,,,,,,,,,,,,,,64,159238,24,Female,1,2024/02/16_15:27:34,YZ,None,
,,,,,,calibration,0,3,2,500,9,V,0,right,0.6439833890035516,1,0,,,,,,,,,,,,,,,,,,,,,1,,,,,,,,,,,,,,,,,,,,,,,,,,,,,,,,,,,,,,,,,,,,,,64,159238,24,Female,1,2024/02/16_15:27:34,YZ,None,
,,,,,,calibration,0,3,2,500,10,N,1,right,0.9955151180038229,0,0,,,,,,,,,,,,,,,,,,,,,1,,,,,,,,,,,,,,,,,,,,,,,,,,,,,,,,,,,,,,,,,,,,,,64,159238,24,Female,1,2024/02/16_15:27:34,YZ,None,
,,,,,,calibration,0,3,2,500,11,F,0,left,0.5415921370004071,0,0,,,,,,,,,,,,,,,,,,,,,1,,,,,,,,,,,,,,,,,,,,,,,,,,,,,,,,,,,,,,,,,,,,,,64,159238,24,Female,1,2024/02/16_15:27:34,YZ,None,
,,,,,,calibration,0,3,2,500,12,N,1,right,0.5924525180016644,0,0,,,,,,,,,,,,,,,,,,,,,1,,,,,,,,,,,,,,,,,,,,,,,,,,,,,,,,,,,,,,,,,,,,,,64,159238,24,Female,1,2024/02/16_15:27:34,YZ,None,
,,,,,,calibration,0,3,2,500,13,X,0,right,0.57263845000125,1,0,,,,,,,,,,,,,,,,,,,,,1,,,,,,,,,,,,,,,,,,,,,,,,,,,,,,,,,,,,,,,,,,,,,,64,159238,24,Female,1,2024/02/16_15:27:34,YZ,None,
,,,,,,calibration,0,3,2,500,14,N,1,left,0.8065477709897095,1,0,,,,,,,,,,,,,,,,,,,,,1,,,,,,,,,,,,,,,,,,,,,,,,,,,,,,,,,,,,,,,,,,,,,,64,159238,24,Female,1,2024/02/16_15:27:34,YZ,None,
,,,,,,calibration,0,3,2,500,15,S,0,right,0.4451229889964452,1,0,,,,,,,,,,,,,,,,,,,,,1,,,,,,,,,,,,,,,,,,,,,,,,,,,,,,,,,,,,,,,,,,,,,,64,159238,24,Female,1,2024/02/16_15:27:34,YZ,None,
,,,,,,calibration,0,3,2,500,16,Q,0,right,0.8222290260018781,1,0,,,,,,,,,,,,,,,,,,,,,1,,,,,,,,,,,,,,,,,,,,,,,,,,,,,,,,,,,,,,,,,,,,,,64,159238,24,Female,1,2024/02/16_15:27:34,YZ,None,
,,,,,,calibration,0,3,2,500,,,,,,,,0.8409090909090908,0.6,0.09090909090909091,0.9,0.0625,0.8465909090909091,0.5999896191991866,3,1,0,1,1,9,12,5,11,0,,,,1,,,,,,,,,,,,,,,,,,,,,,,,,,,,,,,,,,,,,,,,,,,,,,64,159238,24,Female,1,2024/02/16_15:27:34,YZ,None,
,,,,,,Calibration,0,,2,500,,,,,,,,,,,,,,,,,,,,,,,,,6,,,1,,,,,,,,,,,,,,,,,,,,,,,,,,,,,,,,,,,,,,,,,,,,,,64,159238,24,Female,1,2024/02/16_15:27:34,YZ,None,
,,,,,,calibration,0,33,2,500,1,X,0,right,0.7849972709955182,1,0,,,,,,,,,,,,,,,,,,,,,1,,,,,,,,,,,,,,,,,,,,,,,,,,,,,,,,,,,,,,,,,,,,,,64,159238,24,Female,1,2024/02/16_15:27:34,YZ,None,
,,,,,,calibration,0,33,2,500,2,F,0,right,0.38785346699296497,1,0,,,,,,,,,,,,,,,,,,,,,1,,,,,,,,,,,,,,,,,,,,,,,,,,,,,,,,,,,,,,,,,,,,,,64,159238,24,Female,1,2024/02/16_15:27:34,YZ,None,
,,,,,,calibration,0,33,2,500,3,X,1,left,0.777953709999565,1,0,,,,,,,,,,,,,,,,,,,,,1,,,,,,,,,,,,,,,,,,,,,,,,,,,,,,,,,,,,,,,,,,,,,,64,159238,24,Female,1,2024/02/16_15:27:34,YZ,None,
,,,,,,calibration,0,33,2,500,4,F,1,left,0.4231268169969553,1,0,,,,,,,,,,,,,,,,,,,,,1,,,,,,,,,,,,,,,,,,,,,,,,,,,,,,,,,,,,,,,,,,,,,,64,159238,24,Female,1,2024/02/16_15:27:34,YZ,None,
,,,,,,calibration,0,33,2,500,5,N,0,right,0.4667146879946813,1,0,,,,,,,,,,,,,,,,,,,,,1,,,,,,,,,,,,,,,,,,,,,,,,,,,,,,,,,,,,,,,,,,,,,,64,159238,24,Female,1,2024/02/16_15:27:34,YZ,None,
,,,,,,calibration,0,33,2,500,6,Q,0,right,0.667186593011138,1,0,,,,,,,,,,,,,,,,,,,,,1,,,,,,,,,,,,,,,,,,,,,,,,,,,,,,,,,,,,,,,,,,,,,,64,159238,24,Female,1,2024/02/16_15:27:34,YZ,None,
,,,,,,calibration,0,33,2,500,7,S,0,right,0.6809405309904832,1,0,,,,,,,,,,,,,,,,,,,,,1,,,,,,,,,,,,,,,,,,,,,,,,,,,,,,,,,,,,,,,,,,,,,,64,159238,24,Female,1,2024/02/16_15:27:34,YZ,None,
,,,,,,calibration,0,33,2,500,8,Q,1,left,0.500517602005857,1,0,,,,,,,,,,,,,,,,,,,,,1,,,,,,,,,,,,,,,,,,,,,,,,,,,,,,,,,,,,,,,,,,,,,,64,159238,24,Female,1,2024/02/16_15:27:34,YZ,None,
,,,,,,calibration,0,33,2,500,9,N,0,right,0.5370258490002016,1,0,,,,,,,,,,,,,,,,,,,,,1,,,,,,,,,,,,,,,,,,,,,,,,,,,,,,,,,,,,,,,,,,,,,,64,159238,24,Female,1,2024/02/16_15:27:34,YZ,None,
,,,,,,calibration,0,33,2,500,10,V,0,left,0.47230807099549565,0,0,,,,,,,,,,,,,,,,,,,,,1,,,,,,,,,,,,,,,,,,,,,,,,,,,,,,,,,,,,,,,,,,,,,,64,159238,24,Female,1,2024/02/16_15:27:34,YZ,None,
,,,,,,calibration,0,33,2,500,11,F,0,left,nan,0,1,,,,,,,,,,,,,,,,,,,,,1,,,,,,,,,,,,,,,,,,,,,,,,,,,,,,,,,,,,,,,,,,,,,,64,159238,24,Female,1,2024/02/16_15:27:34,YZ,None,
,,,,,,calibration,0,33,2,500,12,N,0,left,0.7427745110035175,0,0,,,,,,,,,,,,,,,,,,,,,1,,,,,,,,,,,,,,,,,,,,,,,,,,,,,,,,,,,,,,,,,,,,,,64,159238,24,Female,1,2024/02/16_15:27:34,YZ,None,
,,,,,,calibration,0,33,2,500,13,S,0,right,0.5118390110001201,1,0,,,,,,,,,,,,,,,,,,,,,1,,,,,,,,,,,,,,,,,,,,,,,,,,,,,,,,,,,,,,,,,,,,,,64,159238,24,Female,1,2024/02/16_15:27:34,YZ,None,
,,,,,,calibration,0,33,2,500,14,J,0,right,0.5444674030004535,1,0,,,,,,,,,,,,,,,,,,,,,1,,,,,,,,,,,,,,,,,,,,,,,,,,,,,,,,,,,,,,,,,,,,,,64,159238,24,Female,1,2024/02/16_15:27:34,YZ,None,
,,,,,,calibration,0,33,2,500,15,S,1,left,0.44821321799827274,1,0,,,,,,,,,,,,,,,,,,,,,1,,,,,,,,,,,,,,,,,,,,,,,,,,,,,,,,,,,,,,,,,,,,,,64,159238,24,Female,1,2024/02/16_15:27:34,YZ,None,
,,,,,,calibration,0,33,2,500,16,J,1,left,0.4743087690003449,1,0,,,,,,,,,,,,,,,,,,,,,1,,,,,,,,,,,,,,,,,,,,,,,,,,,,,,,,,,,,,,,,,,,,,,64,159238,24,Female,1,2024/02/16_15:27:34,YZ,None,
,,,,,,calibration,0,33,2,500,,,,,,,,0.9545454545454546,1.0,0.18181818181818182,0.8,0.0625,0.7556818181818181,0.5613485007323713,5,2,0,1,1,8,13,5,11,0,,,,1,,,,,,,,,,,,,,,,,,,,,,,,,,,,,,,,,,,,,,,,,,,,,,64,159238,24,Female,1,2024/02/16_15:27:34,YZ,None,
,,,,,,Calibration,0,,2,500,,,,,,,,,,,,,,,,,,,,,,,,,7,,,1,,,,,,,,,,,,,,,,,,,,,,,,,,,,,,,,,,,,,,,,,,,,,,64,159238,24,Female,1,2024/02/16_15:27:34,YZ,None,
,,,,,,calibration,0,1,2,426,1,S,0,right,0.7080556409928249,1,0,,,,,,,,,,,,,,,,,,,,,1,,,,,,,,,,,,,,,,,,,,,,,,,,,,,,,,,,,,,,,,,,,,,,64,159238,24,Female,1,2024/02/16_15:27:34,YZ,None,
,,,,,,calibration,0,1,2,426,2,C,0,right,0.44684922900341917,1,0,,,,,,,,,,,,,,,,,,,,,1,,,,,,,,,,,,,,,,,,,,,,,,,,,,,,,,,,,,,,,,,,,,,,64,159238,24,Female,1,2024/02/16_15:27:34,YZ,None,
,,,,,,calibration,0,1,2,426,3,S,1,left,0.44610678900789935,1,0,,,,,,,,,,,,,,,,,,,,,1,,,,,,,,,,,,,,,,,,,,,,,,,,,,,,,,,,,,,,,,,,,,,,64,159238,24,Female,1,2024/02/16_15:27:34,YZ,None,
,,,,,,calibration,0,1,2,426,4,X,0,right,0.4189585620042635,1,0,,,,,,,,,,,,,,,,,,,,,1,,,,,,,,,,,,,,,,,,,,,,,,,,,,,,,,,,,,,,,,,,,,,,64,159238,24,Female,1,2024/02/16_15:27:34,YZ,None,
,,,,,,calibration,0,1,2,426,5,V,0,right,nan,0,1,,,,,,,,,,,,,,,,,,,,,1,,,,,,,,,,,,,,,,,,,,,,,,,,,,,,,,,,,,,,,,,,,,,,64,159238,24,Female,1,2024/02/16_15:27:34,YZ,None,
,,,,,,calibration,0,1,2,426,6,Q,0,right,0.6319086739968043,1,0,,,,,,,,,,,,,,,,,,,,,1,,,,,,,,,,,,,,,,,,,,,,,,,,,,,,,,,,,,,,,,,,,,,,64,159238,24,Female,1,2024/02/16_15:27:34,YZ,None,
,,,,,,calibration,0,1,2,426,7,J,0,right,0.7439261060062563,1,0,,,,,,,,,,,,,,,,,,,,,1,,,,,,,,,,,,,,,,,,,,,,,,,,,,,,,,,,,,,,,,,,,,,,64,159238,24,Female,1,2024/02/16_15:27:34,YZ,None,
,,,,,,calibration,0,1,2,426,8,Q,1,left,0.5953753920039162,1,0,,,,,,,,,,,,,,,,,,,,,1,,,,,,,,,,,,,,,,,,,,,,,,,,,,,,,,,,,,,,,,,,,,,,64,159238,24,Female,1,2024/02/16_15:27:34,YZ,None,
,,,,,,calibration,0,1,2,426,9,F,0,right,0.38732048800738994,1,0,,,,,,,,,,,,,,,,,,,,,1,,,,,,,,,,,,,,,,,,,,,,,,,,,,,,,,,,,,,,,,,,,,,,64,159238,24,Female,1,2024/02/16_15:27:34,YZ,None,
,,,,,,calibration,0,1,2,426,10,S,0,right,0.6677204290026566,1,0,,,,,,,,,,,,,,,,,,,,,1,,,,,,,,,,,,,,,,,,,,,,,,,,,,,,,,,,,,,,,,,,,,,,64,159238,24,Female,1,2024/02/16_15:27:34,YZ,None,
,,,,,,calibration,0,1,2,426,11,F,1,left,0.6656851820007432,1,0,,,,,,,,,,,,,,,,,,,,,1,,,,,,,,,,,,,,,,,,,,,,,,,,,,,,,,,,,,,,,,,,,,,,64,159238,24,Female,1,2024/02/16_15:27:34,YZ,None,
,,,,,,calibration,0,1,2,426,12,S,1,left,0.4760878259985475,1,0,,,,,,,,,,,,,,,,,,,,,1,,,,,,,,,,,,,,,,,,,,,,,,,,,,,,,,,,,,,,,,,,,,,,64,159238,24,Female,1,2024/02/16_15:27:34,YZ,None,
,,,,,,calibration,0,1,2,426,13,X,0,right,0.5496314049960347,1,0,,,,,,,,,,,,,,,,,,,,,1,,,,,,,,,,,,,,,,,,,,,,,,,,,,,,,,,,,,,,,,,,,,,,64,159238,24,Female,1,2024/02/16_15:27:34,YZ,None,
,,,,,,calibration,0,1,2,426,14,Q,0,right,0.5114105140091851,1,0,,,,,,,,,,,,,,,,,,,,,1,,,,,,,,,,,,,,,,,,,,,,,,,,,,,,,,,,,,,,,,,,,,,,64,159238,24,Female,1,2024/02/16_15:27:34,YZ,None,
,,,,,,calibration,0,1,2,426,15,N,0,right,0.5924848440045025,1,0,,,,,,,,,,,,,,,,,,,,,1,,,,,,,,,,,,,,,,,,,,,,,,,,,,,,,,,,,,,,,,,,,,,,64,159238,24,Female,1,2024/02/16_15:27:34,YZ,None,
,,,,,,calibration,0,1,2,426,16,S,0,left,0.5118386099929921,0,0,,,,,,,,,,,,,,,,,,,,,1,,,,,,,,,,,,,,,,,,,,,,,,,,,,,,,,,,,,,,,,,,,,,,64,159238,24,Female,1,2024/02/16_15:27:34,YZ,None,
,,,,,,calibration,0,1,2,426,17,N,1,right,0.6775942340027541,0,0,,,,,,,,,,,,,,,,,,,,,1,,,,,,,,,,,,,,,,,,,,,,,,,,,,,,,,,,,,,,,,,,,,,,64,159238,24,Female,1,2024/02/16_15:27:34,YZ,None,
,,,,,,calibration,0,1,2,426,,,,,,,,0.9125000000000001,0.8,0.08333333333333333,0.9090909090909091,0.058823529411764705,0.8578431372549019,0.5644346203143868,4,1,0,1,1,10,14,5,12,0,,,,1,,,,,,,,,,,,,,,,,,,,,,,,,,,,,,,,,,,,,,,,,,,,,,64,159238,24,Female,1,2024/02/16_15:27:34,YZ,None,
,,,,,,Calibration,0,,2,426,,,,,,,,,,,,,,,,,,,,,,,,,8,,,1,,,,,,,,,,,,,,,,,,,,,,,,,,,,,,,,,,,,,,,,,,,,,,64,159238,24,Female,1,2024/02/16_15:27:34,YZ,None,
,,,,,,calibration,0,26,2,361,1,Q,0,right,0.9345497219910612,1,0,,,,,,,,,,,,,,,,,,,,,1,,,,,,,,,,,,,,,,,,,,,,,,,,,,,,,,,,,,,,,,,,,,,,64,159238,24,Female,1,2024/02/16_15:27:34,YZ,None,
,,,,,,calibration,0,26,2,361,2,Q,0,right,0.2698181180021493,1,0,,,,,,,,,,,,,,,,,,,,,1,,,,,,,,,,,,,,,,,,,,,,,,,,,,,,,,,,,,,,,,,,,,,,64,159238,24,Female,1,2024/02/16_15:27:34,YZ,None,
,,,,,,calibration,0,26,2,361,3,Q,1,right,0.3935180289990967,0,0,,,,,,,,,,,,,,,,,,,,,1,,,,,,,,,,,,,,,,,,,,,,,,,,,,,,,,,,,,,,,,,,,,,,64,159238,24,Female,1,2024/02/16_15:27:34,YZ,None,
,,,,,,calibration,0,26,2,361,4,J,0,left,0.0,0,0,,,,,,,,,,,,,,,,,,,,,1,,,,,,,,,,,,,,,,,,,,,,,,,,,,,,,,,,,,,,,,,,,,,,64,159238,24,Female,1,2024/02/16_15:27:34,YZ,None,
,,,,,,calibration,0,26,2,361,5,X,0,right,0.8057315929909237,1,0,,,,,,,,,,,,,,,,,,,,,1,,,,,,,,,,,,,,,,,,,,,,,,,,,,,,,,,,,,,,,,,,,,,,64,159238,24,Female,1,2024/02/16_15:27:34,YZ,None,
,,,,,,calibration,0,26,2,361,6,F,0,right,0.732667060001404,1,0,,,,,,,,,,,,,,,,,,,,,1,,,,,,,,,,,,,,,,,,,,,,,,,,,,,,,,,,,,,,,,,,,,,,64,159238,24,Female,1,2024/02/16_15:27:34,YZ,None,
,,,,,,calibration,0,26,2,361,7,Q,0,right,nan,0,1,,,,,,,,,,,,,,,,,,,,,1,,,,,,,,,,,,,,,,,,,,,,,,,,,,,,,,,,,,,,,,,,,,,,64,159238,24,Female,1,2024/02/16_15:27:34,YZ,None,
,,,,,,calibration,0,26,2,361,8,J,0,right,nan,0,1,,,,,,,,,,,,,,,,,,,,,1,,,,,,,,,,,,,,,,,,,,,,,,,,,,,,,,,,,,,,,,,,,,,,64,159238,24,Female,1,2024/02/16_15:27:34,YZ,None,
,,,,,,calibration,0,26,2,361,9,C,0,right,0.8264179700054228,1,0,,,,,,,,,,,,,,,,,,,,,1,,,,,,,,,,,,,,,,,,,,,,,,,,,,,,,,,,,,,,,,,,,,,,64,159238,24,Female,1,2024/02/16_15:27:34,YZ,None,
,,,,,,calibration,0,26,2,361,10,F,0,right,0.9459042070084251,1,0,,,,,,,,,,,,,,,,,,,,,1,,,,,,,,,,,,,,,,,,,,,,,,,,,,,,,,,,,,,,,,,,,,,,64,159238,24,Female,1,2024/02/16_15:27:34,YZ,None,
,,,,,,calibration,0,26,2,361,11,J,0,right,0.625634608004475,1,0,,,,,,,,,,,,,,,,,,,,,1,,,,,,,,,,,,,,,,,,,,,,,,,,,,,,,,,,,,,,,,,,,,,,64,159238,24,Female,1,2024/02/16_15:27:34,YZ,None,
,,,,,,calibration,0,26,2,361,12,V,0,right,0.5458502900000894,1,0,,,,,,,,,,,,,,,,,,,,,1,,,,,,,,,,,,,,,,,,,,,,,,,,,,,,,,,,,,,,,,,,,,,,64,159238,24,Female,1,2024/02/16_15:27:34,YZ,None,
,,,,,,calibration,0,26,2,361,13,J,1,left,0.717013012006646,1,0,,,,,,,,,,,,,,,,,,,,,1,,,,,,,,,,,,,,,,,,,,,,,,,,,,,,,,,,,,,,,,,,,,,,64,159238,24,Female,1,2024/02/16_15:27:34,YZ,None,
,,,,,,calibration,0,26,2,361,14,X,0,right,0.5923967980052112,1,0,,,,,,,,,,,,,,,,,,,,,1,,,,,,,,,,,,,,,,,,,,,,,,,,,,,,,,,,,,,,,,,,,,,,64,159238,24,Female,1,2024/02/16_15:27:34,YZ,None,
,,,,,,calibration,0,26,2,361,15,J,1,right,0.7399665840057423,0,0,,,,,,,,,,,,,,,,,,,,,1,,,,,,,,,,,,,,,,,,,,,,,,,,,,,,,,,,,,,,,,,,,,,,64,159238,24,Female,1,2024/02/16_15:27:34,YZ,None,
,,,,,,calibration,0,26,2,361,16,V,0,right,0.6232929559919285,1,0,,,,,,,,,,,,,,,,,,,,,1,,,,,,,,,,,,,,,,,,,,,,,,,,,,,,,,,,,,,,,,,,,,,,64,159238,24,Female,1,2024/02/16_15:27:34,YZ,None,
,,,,,,calibration,0,26,2,361,17,J,1,left,0.32449826099036727,1,0,,,,,,,,,,,,,,,,,,,,,1,,,,,,,,,,,,,,,,,,,,,,,,,,,,,,,,,,,,,,,,,,,,,,64,159238,24,Female,1,2024/02/16_15:27:34,YZ,None,
,,,,,,calibration,0,26,2,361,18,V,1,right,0.5430571870092535,0,0,,,,,,,,,,,,,,,,,,,,,1,,,,,,,,,,,,,,,,,,,,,,,,,,,,,,,,,,,,,,,,,,,,,,64,159238,24,Female,1,2024/02/16_15:27:34,YZ,None,
,,,,,,calibration,0,26,2,361,,,,,,,,0.7826923076923077,0.4,0.07692307692307693,0.9090909090909091,0.1111111111111111,0.811965811965812,0.6012697746882623,2,1,0,2,2,10,12,5,13,0,,,,1,,,,,,,,,,,,,,,,,,,,,,,,,,,,,,,,,,,,,,,,,,,,,,64,159238,24,Female,1,2024/02/16_15:27:34,YZ,None,
,,,,,,Calibration,0,,2,361,,,,,,,,,,,,,,,,,,,,,,,,,9,,,1,,,,,,,,,,,,,,,,,,,,,,,,,,,,,,,,,,,,,,,,,,,,,,64,159238,24,Female,1,2024/02/16_15:27:34,YZ,None,
,,,,,,calibration,0,21,2,361,1,V,0,None,nan,0,1,,,,,,,,,,,,,,,,,,,,,1,,,,,,,,,,,,,,,,,,,,,,,,,,,,,,,,,,,,,,,,,,,,,,64,159238,24,Female,1,2024/02/16_15:27:34,YZ,None,
,,,,,,calibration,0,21,2,361,2,Q,0,right,0.4893991819990333,1,0,,,,,,,,,,,,,,,,,,,,,1,,,,,,,,,,,,,,,,,,,,,,,,,,,,,,,,,,,,,,,,,,,,,,64,159238,24,Female,1,2024/02/16_15:27:34,YZ,None,
,,,,,,calibration,0,21,2,361,3,V,1,left,0.40147018499556,1,0,,,,,,,,,,,,,,,,,,,,,1,,,,,,,,,,,,,,,,,,,,,,,,,,,,,,,,,,,,,,,,,,,,,,64,159238,24,Female,1,2024/02/16_15:27:34,YZ,None,
,,,,,,calibration,0,21,2,361,4,S,0,right,0.4584181609970983,1,0,,,,,,,,,,,,,,,,,,,,,1,,,,,,,,,,,,,,,,,,,,,,,,,,,,,,,,,,,,,,,,,,,,,,64,159238,24,Female,1,2024/02/16_15:27:34,YZ,None,
,,,,,,calibration,0,21,2,361,5,V,1,left,0.5558706820011139,1,0,,,,,,,,,,,,,,,,,,,,,1,,,,,,,,,,,,,,,,,,,,,,,,,,,,,,,,,,,,,,,,,,,,,,64,159238,24,Female,1,2024/02/16_15:27:34,YZ,None,
,,,,,,calibration,0,21,2,361,6,F,0,right,0.4857546010025544,1,0,,,,,,,,,,,,,,,,,,,,,1,,,,,,,,,,,,,,,,,,,,,,,,,,,,,,,,,,,,,,,,,,,,,,64,159238,24,Female,1,2024/02/16_15:27:34,YZ,None,
,,,,,,calibration,0,21,2,361,7,S,0,left,0.5095381860010093,0,0,,,,,,,,,,,,,,,,,,,,,1,,,,,,,,,,,,,,,,,,,,,,,,,,,,,,,,,,,,,,,,,,,,,,64,159238,24,Female,1,2024/02/16_15:27:34,YZ,None,
,,,,,,calibration,0,21,2,361,8,C,0,right,0.5710286059911596,1,0,,,,,,,,,,,,,,,,,,,,,1,,,,,,,,,,,,,,,,,,,,,,,,,,,,,,,,,,,,,,,,,,,,,,64,159238,24,Female,1,2024/02/16_15:27:34,YZ,None,
,,,,,,calibration,0,21,2,361,9,X,0,right,0.5291485119960271,1,0,,,,,,,,,,,,,,,,,,,,,1,,,,,,,,,,,,,,,,,,,,,,,,,,,,,,,,,,,,,,,,,,,,,,64,159238,24,Female,1,2024/02/16_15:27:34,YZ,None,
,,,,,,calibration,0,21,2,361,10,C,1,left,0.691681215990684,1,0,,,,,,,,,,,,,,,,,,,,,1,,,,,,,,,,,,,,,,,,,,,,,,,,,,,,,,,,,,,,,,,,,,,,64,159238,24,Female,1,2024/02/16_15:27:34,YZ,None,
,,,,,,calibration,0,21,2,361,11,Q,0,right,0.6096718889893964,1,0,,,,,,,,,,,,,,,,,,,,,1,,,,,,,,,,,,,,,,,,,,,,,,,,,,,,,,,,,,,,,,,,,,,,64,159238,24,Female,1,2024/02/16_15:27:34,YZ,None,
,,,,,,calibration,0,21,2,361,12,C,1,right,nan,0,1,,,,,,,,,,,,,,,,,,,,,1,,,,,,,,,,,,,,,,,,,,,,,,,,,,,,,,,,,,,,,,,,,,,,64,159238,24,Female,1,2024/02/16_15:27:34,YZ,None,
,,,,,,calibration,0,21,2,361,13,N,0,right,0.60867371900531,1,0,,,,,,,,,,,,,,,,,,,,,1,,,,,,,,,,,,,,,,,,,,,,,,,,,,,,,,,,,,,,,,,,,,,,64,159238,24,Female,1,2024/02/16_15:27:34,YZ,None,
,,,,,,calibration,0,21,2,361,14,X,0,right,0.8293411240010755,1,0,,,,,,,,,,,,,,,,,,,,,1,,,,,,,,,,,,,,,,,,,,,,,,,,,,,,,,,,,,,,,,,,,,,,64,159238,24,Female,1,2024/02/16_15:27:34,YZ,None,
,,,,,,calibration,0,21,2,361,15,N,1,right,0.8001104809954995,0,0,,,,,,,,,,,,,,,,,,,,,1,,,,,,,,,,,,,,,,,,,,,,,,,,,,,,,,,,,,,,,,,,,,,,64,159238,24,Female,1,2024/02/16_15:27:34,YZ,None,
,,,,,,calibration,0,21,2,361,16,F,0,right,0.7922856779914582,1,0,,,,,,,,,,,,,,,,,,,,,1,,,,,,,,,,,,,,,,,,,,,,,,,,,,,,,,,,,,,,,,,,,,,,64,159238,24,Female,1,2024/02/16_15:27:34,YZ,None,
,,,,,,calibration,0,21,2,361,17,X,0,right,nan,0,1,,,,,,,,,,,,,,,,,,,,,1,,,,,,,,,,,,,,,,,,,,,,,,,,,,,,,,,,,,,,,,,,,,,,64,159238,24,Female,1,2024/02/16_15:27:34,YZ,None,
,,,,,,calibration,0,21,2,361,18,F,1,left,0.29967320601281244,1,0,,,,,,,,,,,,,,,,,,,,,1,,,,,,,,,,,,,,,,,,,,,,,,,,,,,,,,,,,,,,,,,,,,,,64,159238,24,Female,1,2024/02/16_15:27:34,YZ,None,
,,,,,,calibration,0,21,2,361,,,,,,,,0.8680555555555555,0.6666666666666666,0.08333333333333333,0.9,0.16666666666666666,0.75,0.5754710285313195,4,1,1,2,3,9,13,6,12,0,,,,1,,,,,,,,,,,,,,,,,,,,,,,,,,,,,,,,,,,,,,,,,,,,,,64,159238,24,Female,1,2024/02/16_15:27:34,YZ,None,
,,,,,,Calibration,0,,2,361,,,,,,,,,,,,,,,,,,,,,,,,,10,,,1,,,,,,,,,,,,,,,,,,,,,,,,,,,,,,,,,,,,,,,,,,,,,,64,159238,24,Female,1,2024/02/16_15:27:34,YZ,None,
,,,,,,calibration,0,18,2,303,1,S,0,right,0.8475542529922677,1,0,,,,,,,,,,,,,,,,,,,,,1,,,,,,,,,,,,,,,,,,,,,,,,,,,,,,,,,,,,,,,,,,,,,,64,159238,24,Female,1,2024/02/16_15:27:34,YZ,None,
,,,,,,calibration,0,18,2,303,2,X,0,right,0.34651688899612054,1,0,,,,,,,,,,,,,,,,,,,,,1,,,,,,,,,,,,,,,,,,,,,,,,,,,,,,,,,,,,,,,,,,,,,,64,159238,24,Female,1,2024/02/16_15:27:34,YZ,None,
,,,,,,calibration,0,18,2,303,3,Q,0,right,nan,0,1,,,,,,,,,,,,,,,,,,,,,1,,,,,,,,,,,,,,,,,,,,,,,,,,,,,,,,,,,,,,,,,,,,,,64,159238,24,Female,1,2024/02/16_15:27:34,YZ,None,
,,,,,,calibration,0,18,2,303,4,X,1,left,0.6590723060071468,1,0,,,,,,,,,,,,,,,,,,,,,1,,,,,,,,,,,,,,,,,,,,,,,,,,,,,,,,,,,,,,,,,,,,,,64,159238,24,Female,1,2024/02/16_15:27:34,YZ,None,
,,,,,,calibration,0,18,2,303,5,J,0,right,0.5728947710013017,1,0,,,,,,,,,,,,,,,,,,,,,1,,,,,,,,,,,,,,,,,,,,,,,,,,,,,,,,,,,,,,,,,,,,,,64,159238,24,Female,1,2024/02/16_15:27:34,YZ,None,
,,,,,,calibration,0,18,2,303,6,X,1,left,0.7965454910008702,1,0,,,,,,,,,,,,,,,,,,,,,1,,,,,,,,,,,,,,,,,,,,,,,,,,,,,,,,,,,,,,,,,,,,,,64,159238,24,Female,1,2024/02/16_15:27:34,YZ,None,
,,,,,,calibration,0,18,2,303,7,J,1,right,0.793083601995022,0,0,,,,,,,,,,,,,,,,,,,,,1,,,,,,,,,,,,,,,,,,,,,,,,,,,,,,,,,,,,,,,,,,,,,,64,159238,24,Female,1,2024/02/16_15:27:34,YZ,None,
,,,,,,calibration,0,18,2,303,8,Q,0,right,0.8400046860042494,1,0,,,,,,,,,,,,,,,,,,,,,1,,,,,,,,,,,,,,,,,,,,,,,,,,,,,,,,,,,,,,,,,,,,,,64,159238,24,Female,1,2024/02/16_15:27:34,YZ,None,
,,,,,,calibration,0,18,2,303,9,S,0,right,0.8224136249918956,1,0,,,,,,,,,,,,,,,,,,,,,1,,,,,,,,,,,,,,,,,,,,,,,,,,,,,,,,,,,,,,,,,,,,,,64,159238,24,Female,1,2024/02/16_15:27:34,YZ,None,
,,,,,,calibration,0,18,2,303,10,V,0,right,0.7293895720067667,1,0,,,,,,,,,,,,,,,,,,,,,1,,,,,,,,,,,,,,,,,,,,,,,,,,,,,,,,,,,,,,,,,,,,,,64,159238,24,Female,1,2024/02/16_15:27:34,YZ,None,
,,,,,,calibration,0,18,2,303,11,C,0,left,0.7152498909999849,0,0,,,,,,,,,,,,,,,,,,,,,1,,,,,,,,,,,,,,,,,,,,,,,,,,,,,,,,,,,,,,,,,,,,,,64,159238,24,Female,1,2024/02/16_15:27:34,YZ,None,
,,,,,,calibration,0,18,2,303,12,Q,0,right,0.9423517910036026,1,0,,,,,,,,,,,,,,,,,,,,,1,,,,,,,,,,,,,,,,,,,,,,,,,,,,,,,,,,,,,,,,,,,,,,64,159238,24,Female,1,2024/02/16_15:27:34,YZ,None,
,,,,,,calibration,0,18,2,303,13,N,0,right,0.9732375270104967,1,0,,,,,,,,,,,,,,,,,,,,,1,,,,,,,,,,,,,,,,,,,,,,,,,,,,,,,,,,,,,,,,,,,,,,64,159238,24,Female,1,2024/02/16_15:27:34,YZ,None,
,,,,,,calibration,0,18,2,303,14,X,0,right,0.5618434759962838,1,0,,,,,,,,,,,,,,,,,,,,,1,,,,,,,,,,,,,,,,,,,,,,,,,,,,,,,,,,,,,,,,,,,,,,64,159238,24,Female,1,2024/02/16_15:27:34,YZ,None,
,,,,,,calibration,0,18,2,303,15,V,0,right,nan,0,1,,,,,,,,,,,,,,,,,,,,,1,,,,,,,,,,,,,,,,,,,,,,,,,,,,,,,,,,,,,,,,,,,,,,64,159238,24,Female,1,2024/02/16_15:27:34,YZ,None,
,,,,,,calibration,0,18,2,303,16,X,1,right,nan,0,1,,,,,,,,,,,,,,,,,,,,,1,,,,,,,,,,,,,,,,,,,,,,,,,,,,,,,,,,,,,,,,,,,,,,64,159238,24,Female,1,2024/02/16_15:27:34,YZ,None,
,,,,,,calibration,0,18,2,303,17,V,1,right,0.0003781429986702278,0,0,,,,,,,,,,,,,,,,,,,,,1,,,,,,,,,,,,,,,,,,,,,,,,,,,,,,,,,,,,,,,,,,,,,,64,159238,24,Female,1,2024/02/16_15:27:34,YZ,None,
,,,,,,calibration,0,18,2,303,18,N,0,right,nan,0,1,,,,,,,,,,,,,,,,,,,,,1,,,,,,,,,,,,,,,,,,,,,,,,,,,,,,,,,,,,,,,,,,,,,,64,159238,24,Female,1,2024/02/16_15:27:34,YZ,None,
,,,,,,calibration,0,18,2,303,19,S,0,right,nan,0,1,,,,,,,,,,,,,,,,,,,,,1,,,,,,,,,,,,,,,,,,,,,,,,,,,,,,,,,,,,,,,,,,,,,,64,159238,24,Female,1,2024/02/16_15:27:34,YZ,None,
,,,,,,calibration,0,18,2,303,,,,,,,,0.7875000000000001,0.4,0.07142857142857142,0.9,0.2631578947368421,0.6654135338345866,0.6857525730717627,2,1,1,4,5,9,11,5,14,0,,,,1,,,,,,,,,,,,,,,,,,,,,,,,,,,,,,,,,,,,,,,,,,,,,,64,159238,24,Female,1,2024/02/16_15:27:34,YZ,None,
,,,,,,Calibration,0,,2,303,,,,,,,,,,,,,,,,,,,,,,,,,11,,,1,,,,,,,,,,,,,,,,,,,,,,,,,,,,,,,,,,,,,,,,,,,,,,64,159238,24,Female,1,2024/02/16_15:27:34,YZ,None,
,,,,,,calibration,0,15,2,303,1,F,0,right,0.4547384610050358,1,0,,,,,,,,,,,,,,,,,,,,,1,,,,,,,,,,,,,,,,,,,,,,,,,,,,,,,,,,,,,,,,,,,,,,64,159238,24,Female,1,2024/02/16_15:27:34,YZ,None,
,,,,,,calibration,0,15,2,303,2,J,0,right,0.5730156740028178,1,0,,,,,,,,,,,,,,,,,,,,,1,,,,,,,,,,,,,,,,,,,,,,,,,,,,,,,,,,,,,,,,,,,,,,64,159238,24,Female,1,2024/02/16_15:27:34,YZ,None,
,,,,,,calibration,0,15,2,303,3,Q,0,right,nan,0,1,,,,,,,,,,,,,,,,,,,,,1,,,,,,,,,,,,,,,,,,,,,,,,,,,,,,,,,,,,,,,,,,,,,,64,159238,24,Female,1,2024/02/16_15:27:34,YZ,None,
,,,,,,calibration,0,15,2,303,4,C,0,right,nan,0,1,,,,,,,,,,,,,,,,,,,,,1,,,,,,,,,,,,,,,,,,,,,,,,,,,,,,,,,,,,,,,,,,,,,,64,159238,24,Female,1,2024/02/16_15:27:34,YZ,None,
,,,,,,calibration,0,15,2,303,5,J,0,right,nan,0,1,,,,,,,,,,,,,,,,,,,,,1,,,,,,,,,,,,,,,,,,,,,,,,,,,,,,,,,,,,,,,,,,,,,,64,159238,24,Female,1,2024/02/16_15:27:34,YZ,None,
,,,,,,calibration,0,15,2,303,6,C,1,left,0.9760815439949511,1,0,,,,,,,,,,,,,,,,,,,,,1,,,,,,,,,,,,,,,,,,,,,,,,,,,,,,,,,,,,,,,,,,,,,,64,159238,24,Female,1,2024/02/16_15:27:34,YZ,None,
,,,,,,calibration,0,15,2,303,7,V,0,right,0.5422547739872243,1,0,,,,,,,,,,,,,,,,,,,,,1,,,,,,,,,,,,,,,,,,,,,,,,,,,,,,,,,,,,,,,,,,,,,,64,159238,24,Female,1,2024/02/16_15:27:34,YZ,None,
,,,,,,calibration,0,15,2,303,8,N,0,right,0.705749653003295,1,0,,,,,,,,,,,,,,,,,,,,,1,,,,,,,,,,,,,,,,,,,,,,,,,,,,,,,,,,,,,,,,,,,,,,64,159238,24,Female,1,2024/02/16_15:27:34,YZ,None,
,,,,,,calibration,0,15,2,303,9,F,0,right,0.6650151969952276,1,0,,,,,,,,,,,,,,,,,,,,,1,,,,,,,,,,,,,,,,,,,,,,,,,,,,,,,,,,,,,,,,,,,,,,64,159238,24,Female,1,2024/02/16_15:27:34,YZ,None,
,,,,,,calibration,0,15,2,303,10,Q,0,right,0.6482204089988954,1,0,,,,,,,,,,,,,,,,,,,,,1,,,,,,,,,,,,,,,,,,,,,,,,,,,,,,,,,,,,,,,,,,,,,,64,159238,24,Female,1,2024/02/16_15:27:34,YZ,None,
,,,,,,calibration,0,15,2,303,11,F,1,right,nan,0,1,,,,,,,,,,,,,,,,,,,,,1,,,,,,,,,,,,,,,,,,,,,,,,,,,,,,,,,,,,,,,,,,,,,,64,159238,24,Female,1,2024/02/16_15:27:34,YZ,None,
,,,,,,calibration,0,15,2,303,12,Q,1,right,0.05273212899919599,0,0,,,,,,,,,,,,,,,,,,,,,1,,,,,,,,,,,,,,,,,,,,,,,,,,,,,,,,,,,,,,,,,,,,,,64,159238,24,Female,1,2024/02/16_15:27:34,YZ,None,
,,,,,,calibration,0,15,2,303,13,C,0,right,0.880241623002803,1,0,,,,,,,,,,,,,,,,,,,,,1,,,,,,,,,,,,,,,,,,,,,,,,,,,,,,,,,,,,,,,,,,,,,,64,159238,24,Female,1,2024/02/16_15:27:34,YZ,None,
,,,,,,calibration,0,15,2,303,14,X,0,right,nan,0,1,,,,,,,,,,,,,,,,,,,,,1,,,,,,,,,,,,,,,,,,,,,,,,,,,,,,,,,,,,,,,,,,,,,,64,159238,24,Female,1,2024/02/16_15:27:34,YZ,None,
,,,,,,calibration,0,15,2,303,15,J,0,right,0.5234996859944658,1,0,,,,,,,,,,,,,,,,,,,,,1,,,,,,,,,,,,,,,,,,,,,,,,,,,,,,,,,,,,,,,,,,,,,,64,159238,24,Female,1,2024/02/16_15:27:34,YZ,None,
,,,,,,calibration,0,15,2,303,16,X,1,right,0.46077672399405856,0,0,,,,,,,,,,,,,,,,,,,,,1,,,,,,,,,,,,,,,,,,,,,,,,,,,,,,,,,,,,,,,,,,,,,,64,159238,24,Female,1,2024/02/16_15:27:34,YZ,None,
,,,,,,calibration,0,15,2,303,17,N,0,left,0.0,0,0,,,,,,,,,,,,,,,,,,,,,1,,,,,,,,,,,,,,,,,,,,,,,,,,,,,,,,,,,,,,,,,,,,,,64,159238,24,Female,1,2024/02/16_15:27:34,YZ,None,
,,,,,,calibration,0,15,2,303,18,X,1,left,nan,0,1,,,,,,,,,,,,,,,,,,,,,1,,,,,,,,,,,,,,,,,,,,,,,,,,,,,,,,,,,,,,,,,,,,,,64,159238,24,Female,1,2024/02/16_15:27:34,YZ,None,
,,,,,,calibration,0,15,2,303,19,J,0,right,0.5918806999980006,1,0,,,,,,,,,,,,,,,,,,,,,1,,,,,,,,,,,,,,,,,,,,,,,,,,,,,,,,,,,,,,,,,,,,,,64,159238,24,Female,1,2024/02/16_15:27:34,YZ,None,
,,,,,,calibration,0,15,2,303,,,,,,,,0.6928571428571428,0.2,0.07142857142857142,0.9,0.3157894736842105,0.6127819548872181,0.54416973645969,1,1,2,4,6,9,10,5,14,0,,,,1,,,,,,,,,,,,,,,,,,,,,,,,,,,,,,,,,,,,,,,,,,,,,,64,159238,24,Female,1,2024/02/16_15:27:34,YZ,None,
,,,,,,Calibration,0,,2,303,,,,,,,,,,,,,,,,,,,,,,,,,12,,,1,,,,,,,,,,,,,,,,,,,,,,,,,,,,,,,,,,,,,,,,,,,,,,64,159238,24,Female,1,2024/02/16_15:27:34,YZ,None,
,,,,,,calibration,0,18,2,361,1,X,0,None,nan,0,1,,,,,,,,,,,,,,,,,,,,,1,,,,,,,,,,,,,,,,,,,,,,,,,,,,,,,,,,,,,,,,,,,,,,64,159238,24,Female,1,2024/02/16_15:27:34,YZ,None,
,,,,,,calibration,0,18,2,361,2,X,0,right,0.42575912100437563,1,0,,,,,,,,,,,,,,,,,,,,,1,,,,,,,,,,,,,,,,,,,,,,,,,,,,,,,,,,,,,,,,,,,,,,64,159238,24,Female,1,2024/02/16_15:27:34,YZ,None,
,,,,,,calibration,0,18,2,361,3,C,0,right,0.7913499880087329,1,0,,,,,,,,,,,,,,,,,,,,,1,,,,,,,,,,,,,,,,,,,,,,,,,,,,,,,,,,,,,,,,,,,,,,64,159238,24,Female,1,2024/02/16_15:27:34,YZ,None,
,,,,,,calibration,0,18,2,361,4,N,0,right,0.9962496440130053,1,0,,,,,,,,,,,,,,,,,,,,,1,,,,,,,,,,,,,,,,,,,,,,,,,,,,,,,,,,,,,,,,,,,,,,64,159238,24,Female,1,2024/02/16_15:27:34,YZ,None,
,,,,,,calibration,0,18,2,361,5,F,0,right,0.4831968280050205,1,0,,,,,,,,,,,,,,,,,,,,,1,,,,,,,,,,,,,,,,,,,,,,,,,,,,,,,,,,,,,,,,,,,,,,64,159238,24,Female,1,2024/02/16_15:27:34,YZ,None,
,,,,,,calibration,0,18,2,361,6,N,1,left,0.7044010149984388,1,0,,,,,,,,,,,,,,,,,,,,,1,,,,,,,,,,,,,,,,,,,,,,,,,,,,,,,,,,,,,,,,,,,,,,64,159238,24,Female,1,2024/02/16_15:27:34,YZ,None,
,,,,,,calibration,0,18,2,361,7,F,1,left,0.7065894410043256,1,0,,,,,,,,,,,,,,,,,,,,,1,,,,,,,,,,,,,,,,,,,,,,,,,,,,,,,,,,,,,,,,,,,,,,64,159238,24,Female,1,2024/02/16_15:27:34,YZ,None,
,,,,,,calibration,0,18,2,361,8,X,0,left,nan,0,1,,,,,,,,,,,,,,,,,,,,,1,,,,,,,,,,,,,,,,,,,,,,,,,,,,,,,,,,,,,,,,,,,,,,64,159238,24,Female,1,2024/02/16_15:27:34,YZ,None,
,,,,,,calibration,0,18,2,361,9,F,1,right,0.9932604530040408,0,0,,,,,,,,,,,,,,,,,,,,,1,,,,,,,,,,,,,,,,,,,,,,,,,,,,,,,,,,,,,,,,,,,,,,64,159238,24,Female,1,2024/02/16_15:27:34,YZ,None,
,,,,,,calibration,0,18,2,361,10,N,0,right,nan,0,1,,,,,,,,,,,,,,,,,,,,,1,,,,,,,,,,,,,,,,,,,,,,,,,,,,,,,,,,,,,,,,,,,,,,64,159238,24,Female,1,2024/02/16_15:27:34,YZ,None,
,,,,,,calibration,0,18,2,361,11,V,0,right,nan,0,1,,,,,,,,,,,,,,,,,,,,,1,,,,,,,,,,,,,,,,,,,,,,,,,,,,,,,,,,,,,,,,,,,,,,64,159238,24,Female,1,2024/02/16_15:27:34,YZ,None,
,,,,,,calibration,0,18,2,361,12,N,1,right,nan,0,1,,,,,,,,,,,,,,,,,,,,,1,,,,,,,,,,,,,,,,,,,,,,,,,,,,,,,,,,,,,,,,,,,,,,64,159238,24,Female,1,2024/02/16_15:27:34,YZ,None,
,,,,,,calibration,0,18,2,361,13,V,1,right,0.4212725830002455,0,0,,,,,,,,,,,,,,,,,,,,,1,,,,,,,,,,,,,,,,,,,,,,,,,,,,,,,,,,,,,,,,,,,,,,64,159238,24,Female,1,2024/02/16_15:27:34,YZ,None,
,,,,,,calibration,0,18,2,361,14,X,0,right,nan,0,1,,,,,,,,,,,,,,,,,,,,,1,,,,,,,,,,,,,,,,,,,,,,,,,,,,,,,,,,,,,,,,,,,,,,64,159238,24,Female,1,2024/02/16_15:27:34,YZ,None,
,,,,,,calibration,0,18,2,361,15,V,1,left,0.9657590380084002,1,0,,,,,,,,,,,,,,,,,,,,,1,,,,,,,,,,,,,,,,,,,,,,,,,,,,,,,,,,,,,,,,,,,,,,64,159238,24,Female,1,2024/02/16_15:27:34,YZ,None,
,,,,,,calibration,0,18,2,361,16,N,0,right,0.7315062200068496,1,0,,,,,,,,,,,,,,,,,,,,,1,,,,,,,,,,,,,,,,,,,,,,,,,,,,,,,,,,,,,,,,,,,,,,64,159238,24,Female,1,2024/02/16_15:27:34,YZ,None,
,,,,,,calibration,0,18,2,361,17,S,0,right,nan,0,1,,,,,,,,,,,,,,,,,,,,,1,,,,,,,,,,,,,,,,,,,,,,,,,,,,,,,,,,,,,,,,,,,,,,64,159238,24,Female,1,2024/02/16_15:27:34,YZ,None,
,,,,,,calibration,0,18,2,361,18,F,0,right,0.7644900159939425,1,0,,,,,,,,,,,,,,,,,,,,,1,,,,,,,,,,,,,,,,,,,,,,,,,,,,,,,,,,,,,,,,,,,,,,64,159238,24,Female,1,2024/02/16_15:27:34,YZ,None,
,,,,,,calibration,0,18,2,361,,,,,,,,0.875,0.5,0.0,1.0,0.3888888888888889,0.6111111111111112,0.7258031224588525,3,0,1,6,7,6,9,6,12,0,,,,1,,,,,,,,,,,,,,,,,,,,,,,,,,,,,,,,,,,,,,,,,,,,,,64,159238,24,Female,1,2024/02/16_15:27:34,YZ,None,
,,,,,,Calibration,0,,2,361,,,,,,,,,,,,,,,,,,,,,,,,,13,,,1,,,,,,,,,,,,,,,,,,,,,,,,,,,,,,,,,,,,,,,,,,,,,,64,159238,24,Female,1,2024/02/16_15:27:34,YZ,None,
,,,,,,calibration,0,12,2,303,1,N,0,right,0.9329457459971309,1,0,,,,,,,,,,,,,,,,,,,,,1,,,,,,,,,,,,,,,,,,,,,,,,,,,,,,,,,,,,,,,,,,,,,,64,159238,24,Female,1,2024/02/16_15:27:34,YZ,None,
,,,,,,calibration,0,12,2,303,2,C,0,right,0.8295126589946449,1,0,,,,,,,,,,,,,,,,,,,,,1,,,,,,,,,,,,,,,,,,,,,,,,,,,,,,,,,,,,,,,,,,,,,,64,159238,24,Female,1,2024/02/16_15:27:34,YZ,None,
,,,,,,calibration,0,12,2,303,3,F,0,right,nan,0,1,,,,,,,,,,,,,,,,,,,,,1,,,,,,,,,,,,,,,,,,,,,,,,,,,,,,,,,,,,,,,,,,,,,,64,159238,24,Female,1,2024/02/16_15:27:34,YZ,None,
,,,,,,calibration,0,12,2,303,4,C,1,left,0.7255827119952301,1,0,,,,,,,,,,,,,,,,,,,,,1,,,,,,,,,,,,,,,,,,,,,,,,,,,,,,,,,,,,,,,,,,,,,,64,159238,24,Female,1,2024/02/16_15:27:34,YZ,None,
,,,,,,calibration,0,12,2,303,5,J,0,right,0.7398621619940968,1,0,,,,,,,,,,,,,,,,,,,,,1,,,,,,,,,,,,,,,,,,,,,,,,,,,,,,,,,,,,,,,,,,,,,,64,159238,24,Female,1,2024/02/16_15:27:34,YZ,None,
,,,,,,calibration,0,12,2,303,6,V,0,right,nan,0,1,,,,,,,,,,,,,,,,,,,,,1,,,,,,,,,,,,,,,,,,,,,,,,,,,,,,,,,,,,,,,,,,,,,,64,159238,24,Female,1,2024/02/16_15:27:34,YZ,None,
,,,,,,calibration,0,12,2,303,7,Q,0,right,nan,0,1,,,,,,,,,,,,,,,,,,,,,1,,,,,,,,,,,,,,,,,,,,,,,,,,,,,,,,,,,,,,,,,,,,,,64,159238,24,Female,1,2024/02/16_15:27:34,YZ,None,
,,,,,,calibration,0,12,2,303,8,X,0,right,nan,0,1,,,,,,,,,,,,,,,,,,,,,1,,,,,,,,,,,,,,,,,,,,,,,,,,,,,,,,,,,,,,,,,,,,,,64,159238,24,Female,1,2024/02/16_15:27:34,YZ,None,
,,,,,,calibration,0,12,2,303,9,J,0,right,nan,0,1,,,,,,,,,,,,,,,,,,,,,1,,,,,,,,,,,,,,,,,,,,,,,,,,,,,,,,,,,,,,,,,,,,,,64,159238,24,Female,1,2024/02/16_15:27:34,YZ,None,
,,,,,,calibration,0,12,2,303,10,Q,0,right,0.10917640099069104,1,0,,,,,,,,,,,,,,,,,,,,,1,,,,,,,,,,,,,,,,,,,,,,,,,,,,,,,,,,,,,,,,,,,,,,64,159238,24,Female,1,2024/02/16_15:27:34,YZ,None,
,,,,,,calibration,0,12,2,303,11,J,1,right,0.9485170539992396,0,0,,,,,,,,,,,,,,,,,,,,,1,,,,,,,,,,,,,,,,,,,,,,,,,,,,,,,,,,,,,,,,,,,,,,64,159238,24,Female,1,2024/02/16_15:27:34,YZ,None,
,,,,,,calibration,0,12,2,303,12,V,0,right,0.6587576360034291,1,0,,,,,,,,,,,,,,,,,,,,,1,,,,,,,,,,,,,,,,,,,,,,,,,,,,,,,,,,,,,,,,,,,,,,64,159238,24,Female,1,2024/02/16_15:27:34,YZ,None,
,,,,,,calibration,0,12,2,303,13,Q,0,left,0.8130242120096227,0,0,,,,,,,,,,,,,,,,,,,,,1,,,,,,,,,,,,,,,,,,,,,,,,,,,,,,,,,,,,,,,,,,,,,,64,159238,24,Female,1,2024/02/16_15:27:34,YZ,None,
,,,,,,calibration,0,12,2,303,14,V,1,right,0.08634834799158853,0,0,,,,,,,,,,,,,,,,,,,,,1,,,,,,,,,,,,,,,,,,,,,,,,,,,,,,,,,,,,,,,,,,,,,,64,159238,24,Female,1,2024/02/16_15:27:34,YZ,None,
,,,,,,calibration,0,12,2,303,15,X,0,right,nan,0,1,,,,,,,,,,,,,,,,,,,,,1,,,,,,,,,,,,,,,,,,,,,,,,,,,,,,,,,,,,,,,,,,,,,,64,159238,24,Female,1,2024/02/16_15:27:34,YZ,None,
,,,,,,calibration,0,12,2,303,16,V,1,left,0.5395789920003153,1,0,,,,,,,,,,,,,,,,,,,,,1,,,,,,,,,,,,,,,,,,,,,,,,,,,,,,,,,,,,,,,,,,,,,,64,159238,24,Female,1,2024/02/16_15:27:34,YZ,None,
,,,,,,calibration,0,12,2,303,17,X,1,left,0.42564426800527144,1,0,,,,,,,,,,,,,,,,,,,,,1,,,,,,,,,,,,,,,,,,,,,,,,,,,,,,,,,,,,,,,,,,,,,,64,159238,24,Female,1,2024/02/16_15:27:34,YZ,None,
,,,,,,calibration,0,12,2,303,18,Q,0,right,0.5753539160068613,1,0,,,,,,,,,,,,,,,,,,,,,1,,,,,,,,,,,,,,,,,,,,,,,,,,,,,,,,,,,,,,,,,,,,,,64,159238,24,Female,1,2024/02/16_15:27:34,YZ,None,
,,,,,,calibration,0,12,2,303,19,V,0,right,0.6095856210013153,1,0,,,,,,,,,,,,,,,,,,,,,1,,,,,,,,,,,,,,,,,,,,,,,,,,,,,,,,,,,,,,,,,,,,,,64,159238,24,Female,1,2024/02/16_15:27:34,YZ,None,
,,,,,,calibration,0,12,2,303,,,,,,,,0.8535714285714285,0.6,0.07142857142857142,0.875,0.3157894736842105,0.6127819548872181,0.6149145943838028,3,1,0,6,6,7,10,5,14,0,,,,1,,,,,,,,,,,,,,,,,,,,,,,,,,,,,,,,,,,,,,,,,,,,,,64,159238,24,Female,1,2024/02/16_15:27:34,YZ,None,
,,,,,,Calibration,0,,2,303,,,,,,,,,,,,,,,,,,,,,,,,,14,,,1,,,,,,,,,,,,,,,,,,,,,,,,,,,,,,,,,,,,,,,,,,,,,,64,159238,24,Female,1,2024/02/16_15:27:34,YZ,None,
,,,,,,calibration,0,15,2,250,1,C,0,right,0.5112626510090195,1,0,,,,,,,,,,,,,,,,,,,,,1,,,,,,,,,,,,,,,,,,,,,,,,,,,,,,,,,,,,,,,,,,,,,,64,159238,24,Female,1,2024/02/16_15:27:34,YZ,None,
,,,,,,calibration,0,15,2,250,2,J,0,right,0.2900389459973667,1,0,,,,,,,,,,,,,,,,,,,,,1,,,,,,,,,,,,,,,,,,,,,,,,,,,,,,,,,,,,,,,,,,,,,,64,159238,24,Female,1,2024/02/16_15:27:34,YZ,None,
,,,,,,calibration,0,15,2,250,3,C,1,left,0.601085526010138,1,0,,,,,,,,,,,,,,,,,,,,,1,,,,,,,,,,,,,,,,,,,,,,,,,,,,,,,,,,,,,,,,,,,,,,64,159238,24,Female,1,2024/02/16_15:27:34,YZ,None,
,,,,,,calibration,0,15,2,250,4,S,0,right,0.38212536899663974,1,0,,,,,,,,,,,,,,,,,,,,,1,,,,,,,,,,,,,,,,,,,,,,,,,,,,,,,,,,,,,,,,,,,,,,64,159238,24,Female,1,2024/02/16_15:27:34,YZ,None,
,,,,,,calibration,0,15,2,250,5,N,0,right,nan,0,1,,,,,,,,,,,,,,,,,,,,,1,,,,,,,,,,,,,,,,,,,,,,,,,,,,,,,,,,,,,,,,,,,,,,64,159238,24,Female,1,2024/02/16_15:27:34,YZ,None,
,,,,,,calibration,0,15,2,250,6,V,0,right,0.5201820000074804,1,0,,,,,,,,,,,,,,,,,,,,,1,,,,,,,,,,,,,,,,,,,,,,,,,,,,,,,,,,,,,,,,,,,,,,64,159238,24,Female,1,2024/02/16_15:27:34,YZ,None,
,,,,,,calibration,0,15,2,250,7,C,0,right,nan,0,1,,,,,,,,,,,,,,,,,,,,,1,,,,,,,,,,,,,,,,,,,,,,,,,,,,,,,,,,,,,,,,,,,,,,64,159238,24,Female,1,2024/02/16_15:27:34,YZ,None,
,,,,,,calibration,0,15,2,250,8,F,0,right,nan,0,1,,,,,,,,,,,,,,,,,,,,,1,,,,,,,,,,,,,,,,,,,,,,,,,,,,,,,,,,,,,,,,,,,,,,64,159238,24,Female,1,2024/02/16_15:27:34,YZ,None,
,,,,,,calibration,0,15,2,250,9,J,0,right,0.0,1,0,,,,,,,,,,,,,,,,,,,,,1,,,,,,,,,,,,,,,,,,,,,,,,,,,,,,,,,,,,,,,,,,,,,,64,159238,24,Female,1,2024/02/16_15:27:34,YZ,None,
,,,,,,calibration,0,15,2,250,10,F,1,right,nan,0,1,,,,,,,,,,,,,,,,,,,,,1,,,,,,,,,,,,,,,,,,,,,,,,,,,,,,,,,,,,,,,,,,,,,,64,159238,24,Female,1,2024/02/16_15:27:34,YZ,None,
,,,,,,calibration,0,15,2,250,11,S,0,right,0.9150309450051282,1,0,,,,,,,,,,,,,,,,,,,,,1,,,,,,,,,,,,,,,,,,,,,,,,,,,,,,,,,,,,,,,,,,,,,,64,159238,24,Female,1,2024/02/16_15:27:34,YZ,None,
,,,,,,calibration,0,15,2,250,12,Q,0,right,0.9650381870014826,1,0,,,,,,,,,,,,,,,,,,,,,1,,,,,,,,,,,,,,,,,,,,,,,,,,,,,,,,,,,,,,,,,,,,,,64,159238,24,Female,1,2024/02/16_15:27:34,YZ,None,
,,,,,,calibration,0,15,2,250,13,C,0,right,0.958559705002699,1,0,,,,,,,,,,,,,,,,,,,,,1,,,,,,,,,,,,,,,,,,,,,,,,,,,,,,,,,,,,,,,,,,,,,,64,159238,24,Female,1,2024/02/16_15:27:34,YZ,None,
,,,,,,calibration,0,15,2,250,14,Q,1,left,0.6422279760008678,1,0,,,,,,,,,,,,,,,,,,,,,1,,,,,,,,,,,,,,,,,,,,,,,,,,,,,,,,,,,,,,,,,,,,,,64,159238,24,Female,1,2024/02/16_15:27:34,YZ,None,
,,,,,,calibration,0,15,2,250,15,N,0,right,0.539827567001339,1,0,,,,,,,,,,,,,,,,,,,,,1,,,,,,,,,,,,,,,,,,,,,,,,,,,,,,,,,,,,,,,,,,,,,,64,159238,24,Female,1,2024/02/16_15:27:34,YZ,None,
,,,,,,calibration,0,15,2,250,16,Q,1,right,nan,0,1,,,,,,,,,,,,,,,,,,,,,1,,,,,,,,,,,,,,,,,,,,,,,,,,,,,,,,,,,,,,,,,,,,,,64,159238,24,Female,1,2024/02/16_15:27:34,YZ,None,
,,,,,,calibration,0,15,2,250,17,F,0,right,0.6081516590056708,1,0,,,,,,,,,,,,,,,,,,,,,1,,,,,,,,,,,,,,,,,,,,,,,,,,,,,,,,,,,,,,,,,,,,,,64,159238,24,Female,1,2024/02/16_15:27:34,YZ,None,
,,,,,,calibration,0,15,2,250,18,S,0,right,0.875608280999586,1,0,,,,,,,,,,,,,,,,,,,,,1,,,,,,,,,,,,,,,,,,,,,,,,,,,,,,,,,,,,,,,,,,,,,,64,159238,24,Female,1,2024/02/16_15:27:34,YZ,None,
,,,,,,calibration,0,15,2,250,19,F,1,left,0.7063769230007892,1,0,,,,,,,,,,,,,,,,,,,,,1,,,,,,,,,,,,,,,,,,,,,,,,,,,,,,,,,,,,,,,,,,,,,,64,159238,24,Female,1,2024/02/16_15:27:34,YZ,None,
,,,,,,calibration,0,15,2,250,20,S,1,left,0.5790425789891742,1,0,,,,,,,,,,,,,,,,,,,,,1,,,,,,,,,,,,,,,,,,,,,,,,,,,,,,,,,,,,,,,,,,,,,,64,159238,24,Female,1,2024/02/16_15:27:34,YZ,None,
,,,,,,calibration,0,15,2,250,,,,,,,,0.9166666666666666,0.6666666666666666,0.0,1.0,0.25,0.75,0.6063038876018254,4,0,2,3,5,11,15,6,14,0,,,,1,,,,,,,,,,,,,,,,,,,,,,,,,,,,,,,,,,,,,,,,,,,,,,64,159238,24,Female,1,2024/02/16_15:27:34,YZ,None,
,,,,,,Calibration,0,,2,250,,,,,,,,,,,,,,,,,,,,,,,,,15,,,1,,,,,,,,,,,,,,,,,,,,,,,,,,,,,,,,,,,,,,,,,,,,,,64,159238,24,Female,1,2024/02/16_15:27:34,YZ,None,
,,,,,,CALIBRATION,0,,,,,,,,,,,,,,,,,,,,,,,,,,,,15,0.9166666666666666,250,1,,,,,,,,,,,,,,,,,,,,,,,,,,,,,,,,,,,,,,,,,,,,,,64,159238,24,Female,1,2024/02/16_15:27:34,YZ,None,
1,./instructions/inst_prac_1/Slide24.png,right,22.55228678500862,705.1836672380014,727.73595402301,,,,,,,,,,,,,,,,,,,,,,,,,,,,,,,,,1,,,,,,,,,,,,,,,,,,,,,,,,,,,,,,,,,,,,,,,,,,,,,,64,159238,24,Female,1,2024/02/16_15:27:34,YZ,None,
2,./instructions/inst_prac_1/Slide25.png,right,1.6624676889914554,727.7690017990099,729.4314694880013,,,,,,,,,,,,,,,,,,,,,,,,,,,,,,,,,1,,,,,,,,,,,,,,,,,,,,,,,,,,,,,,,,,,,,,,,,,,,,,,64,159238,24,Female,1,2024/02/16_15:27:34,YZ,None,
3,./instructions/inst_prac_1/Slide26.png,right,0.8314446980075445,729.4642218410008,730.2956665390084,,,,,,,,,,,,,,,,,,,,,,,,,,,,,,,,,1,,,,,,,,,,,,,,,,,,,,,,,,,,,,,,,,,,,,,,,,,,,,,,64,159238,24,Female,1,2024/02/16_15:27:34,YZ,None,
4,./instructions/inst_prac_1/Slide27.png,right,1.0715191349881934,730.328160272009,731.3996794069972,,,,,,,,,,,,,,,,,,,,,,,,,,,,,,,,,1,,,,,,,,,,,,,,,,,,,,,,,,,,,,,,,,,,,,,,,,,,,,,,64,159238,24,Female,1,2024/02/16_15:27:34,YZ,None,
5,./instructions/inst_prac_1/Slide28.png,right,0.9517437350004911,731.4320351740025,732.383778909003,,,,,,,,,,,,,,,,,,,,,,,,,,,,,,,,,1,,,,,,,,,,,,,,,,,,,,,,,,,,,,,,,,,,,,,,,,,,,,,,64,159238,24,Female,1,2024/02/16_15:27:34,YZ,None,
6,./instructions/inst_prac_1/Slide29.png,right,6.34007182699861,732.41194588301,738.7520177100087,,,,,,,,,,,,,,,,,,,,,,,,,,,,,,,,,1,,,,,,,,,,,,,,,,,,,,,,,,,,,,,,,,,,,,,,,,,,,,,,64,159238,24,Female,1,2024/02/16_15:27:34,YZ,None,
7,./instructions/inst_prac_1/Slide30.png,right,1.7171036700019613,738.7783334859996,740.4954371560016,,,,,,,,,,,,,,,,,,,,,,,,,,,,,,,,,1,,,,,,,,,,,,,,,,,,,,,,,,,,,,,,,,,,,,,,,,,,,,,,64,159238,24,Female,1,2024/02/16_15:27:34,YZ,None,
,,,,,,practice,0,31,1,1250,1,F,0,right,1.4396636570018018,1,0,,,,,,,,,,,,,,,,,,,,,1,,,,,,,,,,,,,,,,,,,,,,,,,,,,,,,,,,,,,,,,,,,,,,64,159238,24,Female,1,2024/02/16_15:27:34,YZ,None,
,,,,,,practice,0,31,1,1250,2,F,1,left,0.6713678899977822,1,0,,,,,,,,,,,,,,,,,,,,,1,,,,,,,,,,,,,,,,,,,,,,,,,,,,,,,,,,,,,,,,,,,,,,64,159238,24,Female,1,2024/02/16_15:27:34,YZ,None,
,,,,,,practice,0,31,1,1250,3,Q,0,right,0.5930435900081648,1,0,,,,,,,,,,,,,,,,,,,,,1,,,,,,,,,,,,,,,,,,,,,,,,,,,,,,,,,,,,,,,,,,,,,,64,159238,24,Female,1,2024/02/16_15:27:34,YZ,None,
,,,,,,practice,0,31,1,1250,4,Q,1,left,0.34361206598987337,1,0,,,,,,,,,,,,,,,,,,,,,1,,,,,,,,,,,,,,,,,,,,,,,,,,,,,,,,,,,,,,,,,,,,,,64,159238,24,Female,1,2024/02/16_15:27:34,YZ,None,
,,,,,,practice,0,31,1,1250,5,N,0,right,0.7024508339964086,1,0,,,,,,,,,,,,,,,,,,,,,1,,,,,,,,,,,,,,,,,,,,,,,,,,,,,,,,,,,,,,,,,,,,,,64,159238,24,Female,1,2024/02/16_15:27:34,YZ,None,
,,,,,,practice,0,31,1,1250,6,X,0,right,0.8228617290005786,1,0,,,,,,,,,,,,,,,,,,,,,1,,,,,,,,,,,,,,,,,,,,,,,,,,,,,,,,,,,,,,,,,,,,,,64,159238,24,Female,1,2024/02/16_15:27:34,YZ,None,
,,,,,,practice,0,31,1,1250,7,N,0,right,1.1942840679985238,1,0,,,,,,,,,,,,,,,,,,,,,1,,,,,,,,,,,,,,,,,,,,,,,,,,,,,,,,,,,,,,,,,,,,,,64,159238,24,Female,1,2024/02/16_15:27:34,YZ,None,
,,,,,,practice,0,31,1,1250,8,J,0,right,0.8857997180020902,1,0,,,,,,,,,,,,,,,,,,,,,1,,,,,,,,,,,,,,,,,,,,,,,,,,,,,,,,,,,,,,,,,,,,,,64,159238,24,Female,1,2024/02/16_15:27:34,YZ,None,
,,,,,,practice,0,31,1,1250,9,J,1,left,0.7423342669935664,1,0,,,,,,,,,,,,,,,,,,,,,1,,,,,,,,,,,,,,,,,,,,,,,,,,,,,,,,,,,,,,,,,,,,,,64,159238,24,Female,1,2024/02/16_15:27:34,YZ,None,
,,,,,,practice,0,31,1,1250,10,Q,0,right,0.7442853820102755,1,0,,,,,,,,,,,,,,,,,,,,,1,,,,,,,,,,,,,,,,,,,,,,,,,,,,,,,,,,,,,,,,,,,,,,64,159238,24,Female,1,2024/02/16_15:27:34,YZ,None,
,,,,,,practice,0,31,1,1250,,,,,,,,1.0,1.0,0.0,1.0,0.0,1.0,0.8139703200999066,3,0,0,0,0,7,10,3,7,0,,,,1,,,,,,,,,,,,,,,,,,,,,,,,,,,,,,,,,,,,,,,,,,,,,,64,159238,24,Female,1,2024/02/16_15:27:34,YZ,None,
1,./instructions/inst_prac_1_next/Slide35.png,right,3.459727401001146,759.156036062006,762.6157634630072,,,,,,,,,,,,,,,,,,,,,,,,,,,,,,,,,1,,,,,,,,,,,,,,,,,,,,,,,,,,,,,,,,,,,,,,,,,,,,,,64,159238,24,Female,1,2024/02/16_15:27:34,YZ,None,
,,,,,,practice,0,2,1,250,1,S,0,right,1.3814257670019288,1,0,,,,,,,,,,,,,,,,,,,,,1,,,,,,,,,,,,,,,,,,,,,,,,,,,,,,,,,,,,,,,,,,,,,,64,159238,24,Female,1,2024/02/16_15:27:34,YZ,None,
,,,,,,practice,0,2,1,250,2,S,1,left,0.5897682969953166,1,0,,,,,,,,,,,,,,,,,,,,,1,,,,,,,,,,,,,,,,,,,,,,,,,,,,,,,,,,,,,,,,,,,,,,64,159238,24,Female,1,2024/02/16_15:27:34,YZ,None,
,,,,,,practice,0,2,1,250,3,X,0,right,0.5738724280090537,1,0,,,,,,,,,,,,,,,,,,,,,1,,,,,,,,,,,,,,,,,,,,,,,,,,,,,,,,,,,,,,,,,,,,,,64,159238,24,Female,1,2024/02/16_15:27:34,YZ,None,
,,,,,,practice,0,2,1,250,4,J,0,right,0.5301171760074794,1,0,,,,,,,,,,,,,,,,,,,,,1,,,,,,,,,,,,,,,,,,,,,,,,,,,,,,,,,,,,,,,,,,,,,,64,159238,24,Female,1,2024/02/16_15:27:34,YZ,None,
,,,,,,practice,0,2,1,250,5,J,1,left,0.5931698939966736,1,0,,,,,,,,,,,,,,,,,,,,,1,,,,,,,,,,,,,,,,,,,,,,,,,,,,,,,,,,,,,,,,,,,,,,64,159238,24,Female,1,2024/02/16_15:27:34,YZ,None,
,,,,,,practice,0,2,1,250,6,S,0,right,0.5949099310091697,1,0,,,,,,,,,,,,,,,,,,,,,1,,,,,,,,,,,,,,,,,,,,,,,,,,,,,,,,,,,,,,,,,,,,,,64,159238,24,Female,1,2024/02/16_15:27:34,YZ,None,
,,,,,,practice,0,2,1,250,7,V,0,right,0.5735631339921383,1,0,,,,,,,,,,,,,,,,,,,,,1,,,,,,,,,,,,,,,,,,,,,,,,,,,,,,,,,,,,,,,,,,,,,,64,159238,24,Female,1,2024/02/16_15:27:34,YZ,None,
,,,,,,practice,0,2,1,250,8,J,0,right,0.7211497459938983,1,0,,,,,,,,,,,,,,,,,,,,,1,,,,,,,,,,,,,,,,,,,,,,,,,,,,,,,,,,,,,,,,,,,,,,64,159238,24,Female,1,2024/02/16_15:27:34,YZ,None,
,,,,,,practice,0,2,1,250,9,N,0,right,0.6010776409966638,1,0,,,,,,,,,,,,,,,,,,,,,1,,,,,,,,,,,,,,,,,,,,,,,,,,,,,,,,,,,,,,,,,,,,,,64,159238,24,Female,1,2024/02/16_15:27:34,YZ,None,
,,,,,,practice,0,2,1,250,10,J,0,right,0.789360287002637,1,0,,,,,,,,,,,,,,,,,,,,,1,,,,,,,,,,,,,,,,,,,,,,,,,,,,,,,,,,,,,,,,,,,,,,64,159238,24,Female,1,2024/02/16_15:27:34,YZ,None,
,,,,,,practice,0,2,1,250,11,X,0,right,0.6587438169954112,1,0,,,,,,,,,,,,,,,,,,,,,1,,,,,,,,,,,,,,,,,,,,,,,,,,,,,,,,,,,,,,,,,,,,,,64,159238,24,Female,1,2024/02/16_15:27:34,YZ,None,
,,,,,,practice,0,2,1,250,12,X,1,left,0.5868238160037436,1,0,,,,,,,,,,,,,,,,,,,,,1,,,,,,,,,,,,,,,,,,,,,,,,,,,,,,,,,,,,,,,,,,,,,,64,159238,24,Female,1,2024/02/16_15:27:34,YZ,None,
,,,,,,practice,0,2,1,250,13,F,0,right,0.6090179519960657,1,0,,,,,,,,,,,,,,,,,,,,,1,,,,,,,,,,,,,,,,,,,,,,,,,,,,,,,,,,,,,,,,,,,,,,64,159238,24,Female,1,2024/02/16_15:27:34,YZ,None,
,,,,,,practice,0,2,1,250,14,C,0,right,0.5130665780015988,1,0,,,,,,,,,,,,,,,,,,,,,1,,,,,,,,,,,,,,,,,,,,,,,,,,,,,,,,,,,,,,,,,,,,,,64,159238,24,Female,1,2024/02/16_15:27:34,YZ,None,
,,,,,,practice,0,2,1,250,15,V,0,right,0.6457766840030672,1,0,,,,,,,,,,,,,,,,,,,,,1,,,,,,,,,,,,,,,,,,,,,,,,,,,,,,,,,,,,,,,,,,,,,,64,159238,24,Female,1,2024/02/16_15:27:34,YZ,None,
,,,,,,practice,0,2,1,250,16,F,0,right,0.573162732005585,1,0,,,,,,,,,,,,,,,,,,,,,1,,,,,,,,,,,,,,,,,,,,,,,,,,,,,,,,,,,,,,,,,,,,,,64,159238,24,Female,1,2024/02/16_15:27:34,YZ,None,
,,,,,,practice,0,2,1,250,17,F,1,left,0.6181201350118499,1,0,,,,,,,,,,,,,,,,,,,,,1,,,,,,,,,,,,,,,,,,,,,,,,,,,,,,,,,,,,,,,,,,,,,,64,159238,24,Female,1,2024/02/16_15:27:34,YZ,None,
,,,,,,practice,0,2,1,250,18,X,0,right,0.6662070689926622,1,0,,,,,,,,,,,,,,,,,,,,,1,,,,,,,,,,,,,,,,,,,,,,,,,,,,,,,,,,,,,,,,,,,,,,64,159238,24,Female,1,2024/02/16_15:27:34,YZ,None,
,,,,,,practice,0,2,1,250,19,X,1,left,0.9295014980016276,1,0,,,,,,,,,,,,,,,,,,,,,1,,,,,,,,,,,,,,,,,,,,,,,,,,,,,,,,,,,,,,,,,,,,,,64,159238,24,Female,1,2024/02/16_15:27:34,YZ,None,
,,,,,,practice,0,2,1,250,20,V,0,right,0.5739078190090368,1,0,,,,,,,,,,,,,,,,,,,,,1,,,,,,,,,,,,,,,,,,,,,,,,,,,,,,,,,,,,,,,,,,,,,,64,159238,24,Female,1,2024/02/16_15:27:34,YZ,None,
,,,,,,practice,0,2,1,250,,,,,,,,1.0,1.0,0.0,1.0,0.0,1.0,0.6661371200512803,5,0,0,0,0,15,20,5,15,0,,,,1,,,,,,,,,,,,,,,,,,,,,,,,,,,,,,,,,,,,,,,,,,,,,,64,159238,24,Female,1,2024/02/16_15:27:34,YZ,None,
,,,,,,practice,0,32,1,250,1,F,0,right,0.951549335004529,1,0,,,,,,,,,,,,,,,,,,,,,1,,,,,,,,,,,,,,,,,,,,,,,,,,,,,,,,,,,,,,,,,,,,,,64,159238,24,Female,1,2024/02/16_15:27:34,YZ,None,
,,,,,,practice,0,32,1,250,2,Q,0,right,0.6212410479929531,1,0,,,,,,,,,,,,,,,,,,,,,1,,,,,,,,,,,,,,,,,,,,,,,,,,,,,,,,,,,,,,,,,,,,,,64,159238,24,Female,1,2024/02/16_15:27:34,YZ,None,
,,,,,,practice,0,32,1,250,3,Q,1,left,0.49880681600188836,1,0,,,,,,,,,,,,,,,,,,,,,1,,,,,,,,,,,,,,,,,,,,,,,,,,,,,,,,,,,,,,,,,,,,,,64,159238,24,Female,1,2024/02/16_15:27:34,YZ,None,
,,,,,,practice,0,32,1,250,4,S,0,right,0.6211526310071349,1,0,,,,,,,,,,,,,,,,,,,,,1,,,,,,,,,,,,,,,,,,,,,,,,,,,,,,,,,,,,,,,,,,,,,,64,159238,24,Female,1,2024/02/16_15:27:34,YZ,None,
,,,,,,practice,0,32,1,250,5,V,0,right,0.5626537409989396,1,0,,,,,,,,,,,,,,,,,,,,,1,,,,,,,,,,,,,,,,,,,,,,,,,,,,,,,,,,,,,,,,,,,,,,64,159238,24,Female,1,2024/02/16_15:27:34,YZ,None,
,,,,,,practice,0,32,1,250,6,J,0,right,0.7093131190049462,1,0,,,,,,,,,,,,,,,,,,,,,1,,,,,,,,,,,,,,,,,,,,,,,,,,,,,,,,,,,,,,,,,,,,,,64,159238,24,Female,1,2024/02/16_15:27:34,YZ,None,
,,,,,,practice,0,32,1,250,7,J,1,left,0.7547260919964174,1,0,,,,,,,,,,,,,,,,,,,,,1,,,,,,,,,,,,,,,,,,,,,,,,,,,,,,,,,,,,,,,,,,,,,,64,159238,24,Female,1,2024/02/16_15:27:34,YZ,None,
,,,,,,practice,0,32,1,250,8,F,0,right,0.49681769699964207,1,0,,,,,,,,,,,,,,,,,,,,,1,,,,,,,,,,,,,,,,,,,,,,,,,,,,,,,,,,,,,,,,,,,,,,64,159238,24,Female,1,2024/02/16_15:27:34,YZ,None,
,,,,,,practice,0,32,1,250,9,S,0,right,0.6049756920110667,1,0,,,,,,,,,,,,,,,,,,,,,1,,,,,,,,,,,,,,,,,,,,,,,,,,,,,,,,,,,,,,,,,,,,,,64,159238,24,Female,1,2024/02/16_15:27:34,YZ,None,
,,,,,,practice,0,32,1,250,10,C,0,right,0.6175838469935115,1,0,,,,,,,,,,,,,,,,,,,,,1,,,,,,,,,,,,,,,,,,,,,,,,,,,,,,,,,,,,,,,,,,,,,,64,159238,24,Female,1,2024/02/16_15:27:34,YZ,None,
,,,,,,practice,0,32,1,250,11,J,0,right,0.6531653679994633,1,0,,,,,,,,,,,,,,,,,,,,,1,,,,,,,,,,,,,,,,,,,,,,,,,,,,,,,,,,,,,,,,,,,,,,64,159238,24,Female,1,2024/02/16_15:27:34,YZ,None,
,,,,,,practice,0,32,1,250,12,J,1,left,0.5942759000026854,1,0,,,,,,,,,,,,,,,,,,,,,1,,,,,,,,,,,,,,,,,,,,,,,,,,,,,,,,,,,,,,,,,,,,,,64,159238,24,Female,1,2024/02/16_15:27:34,YZ,None,
,,,,,,practice,0,32,1,250,13,X,0,right,0.4745713520096615,1,0,,,,,,,,,,,,,,,,,,,,,1,,,,,,,,,,,,,,,,,,,,,,,,,,,,,,,,,,,,,,,,,,,,,,64,159238,24,Female,1,2024/02/16_15:27:34,YZ,None,
,,,,,,practice,0,32,1,250,14,X,1,left,0.4745471469941549,1,0,,,,,,,,,,,,,,,,,,,,,1,,,,,,,,,,,,,,,,,,,,,,,,,,,,,,,,,,,,,,,,,,,,,,64,159238,24,Female,1,2024/02/16_15:27:34,YZ,None,
,,,,,,practice,0,32,1,250,15,V,0,right,0.6738286670006346,1,0,,,,,,,,,,,,,,,,,,,,,1,,,,,,,,,,,,,,,,,,,,,,,,,,,,,,,,,,,,,,,,,,,,,,64,159238,24,Female,1,2024/02/16_15:27:34,YZ,None,
,,,,,,practice,0,32,1,250,16,X,0,right,0.8820656929892721,1,0,,,,,,,,,,,,,,,,,,,,,1,,,,,,,,,,,,,,,,,,,,,,,,,,,,,,,,,,,,,,,,,,,,,,64,159238,24,Female,1,2024/02/16_15:27:34,YZ,None,
,,,,,,practice,0,32,1,250,17,F,0,right,0.6775265509932069,1,0,,,,,,,,,,,,,,,,,,,,,1,,,,,,,,,,,,,,,,,,,,,,,,,,,,,,,,,,,,,,,,,,,,,,64,159238,24,Female,1,2024/02/16_15:27:34,YZ,None,
,,,,,,practice,0,32,1,250,18,F,1,left,0.5087984270066954,1,0,,,,,,,,,,,,,,,,,,,,,1,,,,,,,,,,,,,,,,,,,,,,,,,,,,,,,,,,,,,,,,,,,,,,64,159238,24,Female,1,2024/02/16_15:27:34,YZ,None,
,,,,,,practice,0,32,1,250,19,S,0,right,0.5493381800042698,1,0,,,,,,,,,,,,,,,,,,,,,1,,,,,,,,,,,,,,,,,,,,,,,,,,,,,,,,,,,,,,,,,,,,,,64,159238,24,Female,1,2024/02/16_15:27:34,YZ,None,
,,,,,,practice,0,32,1,250,20,Q,0,right,0.8213096740073524,1,0,,,,,,,,,,,,,,,,,,,,,1,,,,,,,,,,,,,,,,,,,,,,,,,,,,,,,,,,,,,,,,,,,,,,64,159238,24,Female,1,2024/02/16_15:27:34,YZ,None,
,,,,,,practice,0,32,1,250,,,,,,,,1.0,1.0,0.0,1.0,0.0,1.0,0.6374123488509212,5,0,0,0,0,15,20,5,15,0,,,,1,,,,,,,,,,,,,,,,,,,,,,,,,,,,,,,,,,,,,,,,,,,,,,64,159238,24,Female,1,2024/02/16_15:27:34,YZ,None,
1,./instructions/inst_prac_3/Slide37.png,right,6.370409263996407,813.7493914060033,820.1198006699997,,,,,,,,,,,,,,,,,,,,,,,,,,,,,,,,,1,,,,,,,,,,,,,,,,,,,,,,,,,,,,,,,,,,,,,,,,,,,,,,64,159238,24,Female,1,2024/02/16_15:27:34,YZ,None,
2,./instructions/inst_prac_3/Slide38.png,right,1.110561034991406,820.1531316330074,821.2636926679988,,,,,,,,,,,,,,,,,,,,,,,,,,,,,,,,,1,,,,,,,,,,,,,,,,,,,,,,,,,,,,,,,,,,,,,,,,,,,,,,64,159238,24,Female,1,2024/02/16_15:27:34,YZ,None,
3,./instructions/inst_prac_3/Slide39.png,right,0.7350000079895835,821.2967569940083,822.0317570019979,,,,,,,,,,,,,,,,,,,,,,,,,,,,,,,,,1,,,,,,,,,,,,,,,,,,,,,,,,,,,,,,,,,,,,,,,,,,,,,,64,159238,24,Female,1,2024/02/16_15:27:34,YZ,None,
4,./instructions/inst_prac_3/Slide40.png,right,1.9270339110080386,822.0646269330027,823.9916608440108,,,,,,,,,,,,,,,,,,,,,,,,,,,,,,,,,1,,,,,,,,,,,,,,,,,,,,,,,,,,,,,,,,,,,,,,,,,,,,,,64,159238,24,Female,1,2024/02/16_15:27:34,YZ,None,
5,./instructions/inst_prac_3/Slide41.png,right,1.416619734998676,824.0231593750068,825.4397791100055,,,,,,,,,,,,,,,,,,,,,,,,,,,,,,,,,1,,,,,,,,,,,,,,,,,,,,,,,,,,,,,,,,,,,,,,,,,,,,,,64,159238,24,Female,1,2024/02/16_15:27:34,YZ,None,
6,./instructions/inst_prac_3/Slide42.png,right,5.366112253002939,825.4735911489988,830.8397034020018,,,,,,,,,,,,,,,,,,,,,,,,,,,,,,,,,1,,,,,,,,,,,,,,,,,,,,,,,,,,,,,,,,,,,,,,,,,,,,,,64,159238,24,Female,1,2024/02/16_15:27:34,YZ,None,
7,./instructions/inst_prac_3/Slide43.png,right,1.5663670060021104,830.8732088969991,832.4395759030012,,,,,,,,,,,,,,,,,,,,,,,,,,,,,,,,,1,,,,,,,,,,,,,,,,,,,,,,,,,,,,,,,,,,,,,,,,,,,,,,64,159238,24,Female,1,2024/02/16_15:27:34,YZ,None,
8,./instructions/inst_prac_3/Slide44.png,right,0.9673083699890412,832.4724549930106,833.4397633629997,,,,,,,,,,,,,,,,,,,,,,,,,,,,,,,,,1,,,,,,,,,,,,,,,,,,,,,,,,,,,,,,,,,,,,,,,,,,,,,,64,159238,24,Female,1,2024/02/16_15:27:34,YZ,None,
,,,,,,practice,0,25,3,788,1,C,0,right,0.9072613500029547,1,0,,,,,,,,,,,,,,,,,,,,,1,,,,,,,,,,,,,,,,,,,,,,,,,,,,,,,,,,,,,,,,,,,,,,64,159238,24,Female,1,2024/02/16_15:27:34,YZ,None,
,,,,,,practice,0,25,3,788,2,Q,0,right,0.5582878440036438,1,0,,,,,,,,,,,,,,,,,,,,,1,,,,,,,,,,,,,,,,,,,,,,,,,,,,,,,,,,,,,,,,,,,,,,64,159238,24,Female,1,2024/02/16_15:27:34,YZ,None,
,,,,,,practice,0,25,3,788,3,S,0,right,0.2491424210020341,1,0,,,,,,,,,,,,,,,,,,,,,1,,,,,,,,,,,,,,,,,,,,,,,,,,,,,,,,,,,,,,,,,,,,,,64,159238,24,Female,1,2024/02/16_15:27:34,YZ,None,
,,,,,,practice,0,25,3,788,4,F,0,right,0.8406332540034782,1,0,,,,,,,,,,,,,,,,,,,,,1,,,,,,,,,,,,,,,,,,,,,,,,,,,,,,,,,,,,,,,,,,,,,,64,159238,24,Female,1,2024/02/16_15:27:34,YZ,None,
,,,,,,practice,0,25,3,788,5,Q,1,left,1.1836703879962442,1,0,,,,,,,,,,,,,,,,,,,,,1,,,,,,,,,,,,,,,,,,,,,,,,,,,,,,,,,,,,,,,,,,,,,,64,159238,24,Female,1,2024/02/16_15:27:34,YZ,None,
,,,,,,practice,0,25,3,788,6,S,1,left,0.6662983809947036,1,0,,,,,,,,,,,,,,,,,,,,,1,,,,,,,,,,,,,,,,,,,,,,,,,,,,,,,,,,,,,,,,,,,,,,64,159238,24,Female,1,2024/02/16_15:27:34,YZ,None,
,,,,,,practice,0,25,3,788,7,J,0,right,0.9415078339952743,1,0,,,,,,,,,,,,,,,,,,,,,1,,,,,,,,,,,,,,,,,,,,,,,,,,,,,,,,,,,,,,,,,,,,,,64,159238,24,Female,1,2024/02/16_15:27:34,YZ,None,
,,,,,,practice,0,25,3,788,8,Q,1,left,0.7136424409982283,1,0,,,,,,,,,,,,,,,,,,,,,1,,,,,,,,,,,,,,,,,,,,,,,,,,,,,,,,,,,,,,,,,,,,,,64,159238,24,Female,1,2024/02/16_15:27:34,YZ,None,
,,,,,,practice,0,25,3,788,9,X,0,right,0.5834080429922324,1,0,,,,,,,,,,,,,,,,,,,,,1,,,,,,,,,,,,,,,,,,,,,,,,,,,,,,,,,,,,,,,,,,,,,,64,159238,24,Female,1,2024/02/16_15:27:34,YZ,None,
,,,,,,practice,0,25,3,788,10,J,1,left,0.6392170930048451,1,0,,,,,,,,,,,,,,,,,,,,,1,,,,,,,,,,,,,,,,,,,,,,,,,,,,,,,,,,,,,,,,,,,,,,64,159238,24,Female,1,2024/02/16_15:27:34,YZ,None,
,,,,,,practice,0,25,3,788,11,S,0,right,0.7261347970052157,1,0,,,,,,,,,,,,,,,,,,,,,1,,,,,,,,,,,,,,,,,,,,,,,,,,,,,,,,,,,,,,,,,,,,,,64,159238,24,Female,1,2024/02/16_15:27:34,YZ,None,
,,,,,,practice,0,25,3,788,12,V,0,right,0.991209259009338,1,0,,,,,,,,,,,,,,,,,,,,,1,,,,,,,,,,,,,,,,,,,,,,,,,,,,,,,,,,,,,,,,,,,,,,64,159238,24,Female,1,2024/02/16_15:27:34,YZ,None,
,,,,,,practice,0,25,3,788,13,V,0,right,0.8156553690059809,1,0,,,,,,,,,,,,,,,,,,,,,1,,,,,,,,,,,,,,,,,,,,,,,,,,,,,,,,,,,,,,,,,,,,,,64,159238,24,Female,1,2024/02/16_15:27:34,YZ,None,
,,,,,,practice,0,25,3,788,,,,,,,,1.0,1.0,0.0,1.0,0.0,1.0,0.7550821903087825,4,0,0,0,0,9,13,4,9,0,,,,1,,,,,,,,,,,,,,,,,,,,,,,,,,,,,,,,,,,,,,,,,,,,,,64,159238,24,Female,1,2024/02/16_15:27:34,YZ,None,
1,./instructions/inst_prac_3_next/Slide49.png,right,1.2377047990012215,856.9220736209973,858.1597784199985,,,,,,,,,,,,,,,,,,,,,,,,,,,,,,,,,1,,,,,,,,,,,,,,,,,,,,,,,,,,,,,,,,,,,,,,,,,,,,,,64,159238,24,Female,1,2024/02/16_15:27:34,YZ,None,
,,,,,,practice,0,26,3,250,1,S,0,right,5.880505617999006,1,0,,,,,,,,,,,,,,,,,,,,,1,,,,,,,,,,,,,,,,,,,,,,,,,,,,,,,,,,,,,,,,,,,,,,64,159238,24,Female,1,2024/02/16_15:27:34,YZ,None,
,,,,,,practice,0,26,3,250,2,X,0,right,0.8531733690033434,1,0,,,,,,,,,,,,,,,,,,,,,1,,,,,,,,,,,,,,,,,,,,,,,,,,,,,,,,,,,,,,,,,,,,,,64,159238,24,Female,1,2024/02/16_15:27:34,YZ,None,
,,,,,,practice,0,26,3,250,3,F,0,right,1.5380839139979798,1,0,,,,,,,,,,,,,,,,,,,,,1,,,,,,,,,,,,,,,,,,,,,,,,,,,,,,,,,,,,,,,,,,,,,,64,159238,24,Female,1,2024/02/16_15:27:34,YZ,None,
,,,,,,practice,0,26,3,250,4,J,0,right,5.308811449998757,1,0,,,,,,,,,,,,,,,,,,,,,1,,,,,,,,,,,,,,,,,,,,,,,,,,,,,,,,,,,,,,,,,,,,,,64,159238,24,Female,1,2024/02/16_15:27:34,YZ,None,
,,,,,,practice,0,26,3,250,5,N,0,right,10.477644807004253,1,0,,,,,,,,,,,,,,,,,,,,,1,,,,,,,,,,,,,,,,,,,,,,,,,,,,,,,,,,,,,,,,,,,,,,64,159238,24,Female,1,2024/02/16_15:27:34,YZ,None,
,,,,,,practice,0,26,3,250,6,F,1,left,3.601149832000374,1,0,,,,,,,,,,,,,,,,,,,,,1,,,,,,,,,,,,,,,,,,,,,,,,,,,,,,,,,,,,,,,,,,,,,,64,159238,24,Female,1,2024/02/16_15:27:34,YZ,None,
,,,,,,practice,0,26,3,250,7,J,1,left,0.869312273003743,1,0,,,,,,,,,,,,,,,,,,,,,1,,,,,,,,,,,,,,,,,,,,,,,,,,,,,,,,,,,,,,,,,,,,,,64,159238,24,Female,1,2024/02/16_15:27:34,YZ,None,
,,,,,,practice,0,26,3,250,8,J,0,right,1.1521530879981583,1,0,,,,,,,,,,,,,,,,,,,,,1,,,,,,,,,,,,,,,,,,,,,,,,,,,,,,,,,,,,,,,,,,,,,,64,159238,24,Female,1,2024/02/16_15:27:34,YZ,None,
,,,,,,practice,0,26,3,250,9,F,1,right,2.3250443680008175,0,0,,,,,,,,,,,,,,,,,,,,,1,,,,,,,,,,,,,,,,,,,,,,,,,,,,,,,,,,,,,,,,,,,,,,64,159238,24,Female,1,2024/02/16_15:27:34,YZ,None,
,,,,,,practice,0,26,3,250,10,J,1,right,1.6366825240111211,0,0,,,,,,,,,,,,,,,,,,,,,1,,,,,,,,,,,,,,,,,,,,,,,,,,,,,,,,,,,,,,,,,,,,,,64,159238,24,Female,1,2024/02/16_15:27:34,YZ,None,
,,,,,,practice,0,26,3,250,11,Q,0,right,1.0734538510005223,1,0,,,,,,,,,,,,,,,,,,,,,1,,,,,,,,,,,,,,,,,,,,,,,,,,,,,,,,,,,,,,,,,,,,,,64,159238,24,Female,1,2024/02/16_15:27:34,YZ,None,
,,,,,,practice,0,26,3,250,12,J,0,right,1.4187157499982277,1,0,,,,,,,,,,,,,,,,,,,,,1,,,,,,,,,,,,,,,,,,,,,,,,,,,,,,,,,,,,,,,,,,,,,,64,159238,24,Female,1,2024/02/16_15:27:34,YZ,None,
,,,,,,practice,0,26,3,250,13,C,0,right,2.6514333929953864,1,0,,,,,,,,,,,,,,,,,,,,,1,,,,,,,,,,,,,,,,,,,,,,,,,,,,,,,,,,,,,,,,,,,,,,64,159238,24,Female,1,2024/02/16_15:27:34,YZ,None,
,,,,,,practice,0,26,3,250,14,S,0,right,2.2094253700051922,1,0,,,,,,,,,,,,,,,,,,,,,1,,,,,,,,,,,,,,,,,,,,,,,,,,,,,,,,,,,,,,,,,,,,,,64,159238,24,Female,1,2024/02/16_15:27:34,YZ,None,
,,,,,,practice,0,26,3,250,15,S,0,right,4.17876332400192,1,0,,,,,,,,,,,,,,,,,,,,,1,,,,,,,,,,,,,,,,,,,,,,,,,,,,,,,,,,,,,,,,,,,,,,64,159238,24,Female,1,2024/02/16_15:27:34,YZ,None,
,,,,,,practice,0,26,3,250,16,F,0,right,2.698971375997644,1,0,,,,,,,,,,,,,,,,,,,,,1,,,,,,,,,,,,,,,,,,,,,,,,,,,,,,,,,,,,,,,,,,,,,,64,159238,24,Female,1,2024/02/16_15:27:34,YZ,None,
,,,,,,practice,0,26,3,250,17,N,0,right,4.701136162999319,1,0,,,,,,,,,,,,,,,,,,,,,1,,,,,,,,,,,,,,,,,,,,,,,,,,,,,,,,,,,,,,,,,,,,,,64,159238,24,Female,1,2024/02/16_15:27:34,YZ,None,
,,,,,,practice,0,26,3,250,18,J,0,right,2.9848876070027472,1,0,,,,,,,,,,,,,,,,,,,,,1,,,,,,,,,,,,,,,,,,,,,,,,,,,,,,,,,,,,,,,,,,,,,,64,159238,24,Female,1,2024/02/16_15:27:34,YZ,None,
,,,,,,practice,0,26,3,250,19,F,1,left,0.49371725000673905,1,0,,,,,,,,,,,,,,,,,,,,,1,,,,,,,,,,,,,,,,,,,,,,,,,,,,,,,,,,,,,,,,,,,,,,64,159238,24,Female,1,2024/02/16_15:27:34,YZ,None,
,,,,,,practice,0,26,3,250,20,J,0,right,1.3410443140019197,1,0,,,,,,,,,,,,,,,,,,,,,1,,,,,,,,,,,,,,,,,,,,,,,,,,,,,,,,,,,,,,,,,,,,,,64,159238,24,Female,1,2024/02/16_15:27:34,YZ,None,
,,,,,,practice,0,26,3,250,,,,,,,,0.9,0.6,0.0,1.0,0.0,1.0,2.8697054820513586,3,0,0,0,0,15,18,5,15,0,,,,1,,,,,,,,,,,,,,,,,,,,,,,,,,,,,,,,,,,,,,,,,,,,,,64,159238,24,Female,1,2024/02/16_15:27:34,YZ,None,
,,,,,,practice,0,26,3,250,1,S,0,right,1.4335902619932313,1,0,,,,,,,,,,,,,,,,,,,,,1,,,,,,,,,,,,,,,,,,,,,,,,,,,,,,,,,,,,,,,,,,,,,,64,159238,24,Female,1,2024/02/16_15:27:34,YZ,None,
,,,,,,practice,0,26,3,250,2,X,0,right,0.5380616900074529,1,0,,,,,,,,,,,,,,,,,,,,,1,,,,,,,,,,,,,,,,,,,,,,,,,,,,,,,,,,,,,,,,,,,,,,64,159238,24,Female,1,2024/02/16_15:27:34,YZ,None,
,,,,,,practice,0,26,3,250,3,F,0,right,0.6329356560017914,1,0,,,,,,,,,,,,,,,,,,,,,1,,,,,,,,,,,,,,,,,,,,,,,,,,,,,,,,,,,,,,,,,,,,,,64,159238,24,Female,1,2024/02/16_15:27:34,YZ,None,
,,,,,,practice,0,26,3,250,4,J,0,right,6.285272020002594,1,0,,,,,,,,,,,,,,,,,,,,,1,,,,,,,,,,,,,,,,,,,,,,,,,,,,,,,,,,,,,,,,,,,,,,64,159238,24,Female,1,2024/02/16_15:27:34,YZ,None,
,,,,,,practice,0,26,3,250,5,N,0,right,9.874285010999301,1,0,,,,,,,,,,,,,,,,,,,,,1,,,,,,,,,,,,,,,,,,,,,,,,,,,,,,,,,,,,,,,,,,,,,,64,159238,24,Female,1,2024/02/16_15:27:34,YZ,None,
,,,,,,practice,0,26,3,250,6,F,1,left,5.7311280260037165,1,0,,,,,,,,,,,,,,,,,,,,,1,,,,,,,,,,,,,,,,,,,,,,,,,,,,,,,,,,,,,,,,,,,,,,64,159238,24,Female,1,2024/02/16_15:27:34,YZ,None,
,,,,,,practice,0,26,3,250,7,J,1,left,0.9569694740057457,1,0,,,,,,,,,,,,,,,,,,,,,1,,,,,,,,,,,,,,,,,,,,,,,,,,,,,,,,,,,,,,,,,,,,,,64,159238,24,Female,1,2024/02/16_15:27:34,YZ,None,
,,,,,,practice,0,26,3,250,8,J,0,right,1.345725703999051,1,0,,,,,,,,,,,,,,,,,,,,,1,,,,,,,,,,,,,,,,,,,,,,,,,,,,,,,,,,,,,,,,,,,,,,64,159238,24,Female,1,2024/02/16_15:27:34,YZ,None,
,,,,,,practice,0,26,3,250,9,F,1,right,4.557295976992464,0,0,,,,,,,,,,,,,,,,,,,,,1,,,,,,,,,,,,,,,,,,,,,,,,,,,,,,,,,,,,,,,,,,,,,,64,159238,24,Female,1,2024/02/16_15:27:34,YZ,None,
,,,,,,practice,0,26,3,250,10,J,1,left,1.5537904540105956,1,0,,,,,,,,,,,,,,,,,,,,,1,,,,,,,,,,,,,,,,,,,,,,,,,,,,,,,,,,,,,,,,,,,,,,64,159238,24,Female,1,2024/02/16_15:27:34,YZ,None,
,,,,,,practice,0,26,3,250,11,Q,0,right,2.581357872011722,1,0,,,,,,,,,,,,,,,,,,,,,1,,,,,,,,,,,,,,,,,,,,,,,,,,,,,,,,,,,,,,,,,,,,,,64,159238,24,Female,1,2024/02/16_15:27:34,YZ,None,
,,,,,,practice,0,26,3,250,12,J,0,right,10.041637554997578,1,0,,,,,,,,,,,,,,,,,,,,,1,,,,,,,,,,,,,,,,,,,,,,,,,,,,,,,,,,,,,,,,,,,,,,64,159238,24,Female,1,2024/02/16_15:27:34,YZ,None,
,,,,,,practice,0,26,3,250,13,C,0,right,1.3811538770096377,1,0,,,,,,,,,,,,,,,,,,,,,1,,,,,,,,,,,,,,,,,,,,,,,,,,,,,,,,,,,,,,,,,,,,,,64,159238,24,Female,1,2024/02/16_15:27:34,YZ,None,
,,,,,,practice,0,26,3,250,14,S,0,right,2.029270747996634,1,0,,,,,,,,,,,,,,,,,,,,,1,,,,,,,,,,,,,,,,,,,,,,,,,,,,,,,,,,,,,,,,,,,,,,64,159238,24,Female,1,2024/02/16_15:27:34,YZ,None,
,,,,,,practice,0,26,3,250,15,S,0,right,0.8451667129993439,1,0,,,,,,,,,,,,,,,,,,,,,1,,,,,,,,,,,,,,,,,,,,,,,,,,,,,,,,,,,,,,,,,,,,,,64,159238,24,Female,1,2024/02/16_15:27:34,YZ,None,
,,,,,,practice,0,26,3,250,16,F,0,right,3.0695184640062507,1,0,,,,,,,,,,,,,,,,,,,,,1,,,,,,,,,,,,,,,,,,,,,,,,,,,,,,,,,,,,,,,,,,,,,,64,159238,24,Female,1,2024/02/16_15:27:34,YZ,None,
,,,,,,practice,0,26,3,250,17,N,0,right,5.176466047007125,1,0,,,,,,,,,,,,,,,,,,,,,1,,,,,,,,,,,,,,,,,,,,,,,,,,,,,,,,,,,,,,,,,,,,,,64,159238,24,Female,1,2024/02/16_15:27:34,YZ,None,
,,,,,,practice,0,26,3,250,18,J,0,right,1.06542723000166,1,0,,,,,,,,,,,,,,,,,,,,,1,,,,,,,,,,,,,,,,,,,,,,,,,,,,,,,,,,,,,,,,,,,,,,64,159238,24,Female,1,2024/02/16_15:27:34,YZ,None,
,,,,,,practice,0,26,3,250,19,F,1,right,4.8695763160067145,0,0,,,,,,,,,,,,,,,,,,,,,1,,,,,,,,,,,,,,,,,,,,,,,,,,,,,,,,,,,,,,,,,,,,,,64,159238,24,Female,1,2024/02/16_15:27:34,YZ,None,
,,,,,,practice,0,26,3,250,20,J,0,left,0.884548606001772,0,0,,,,,,,,,,,,,,,,,,,,,1,,,,,,,,,,,,,,,,,,,,,,,,,,,,,,,,,,,,,,,,,,,,,,64,159238,24,Female,1,2024/02/16_15:27:34,YZ,None,
,,,,,,practice,0,26,3,250,,,,,,,,0.8566666666666667,0.6,0.06666666666666667,0.9333333333333333,0.0,0.9333333333333333,3.242658885102719,3,1,0,0,0,14,17,5,15,0,,,,1,,,,,,,,,,,,,,,,,,,,,,,,,,,,,,,,,,,,,,,,,,,,,,64,159238,24,Female,1,2024/02/16_15:27:34,YZ,None,
1,./instructions/inst_prac_main/Slide51.png,right,2.91785342800722,1005.4659834769991,1008.3838369050063,,,,,,,,,,,,,,,,,,,,,,,,,,,,,,,,,1,,,,,,,,,,,,,,,,,,,,,,,,,,,,,,,,,,,,,,,,,,,,,,64,159238,24,Female,1,2024/02/16_15:27:34,YZ,None,
2,./instructions/inst_prac_main/Slide52.png,right,13.587316778997774,1008.4123606270005,1021.9996774059982,,,,,,,,,,,,,,,,,,,,,,,,,,,,,,,,,1,,,,,,,,,,,,,,,,,,,,,,,,,,,,,,,,,,,,,,,,,,,,,,64,159238,24,Female,1,2024/02/16_15:27:34,YZ,None,
3,./instructions/inst_prac_main/Slide53.png,right,8.092066318989964,1022.0277992550109,1030.1198655740009,,,,,,,,,,,,,,,,,,,,,,,,,,,,,,,,,1,,,,,,,,,,,,,,,,,,,,,,,,,,,,,,,,,,,,,,,,,,,,,,64,159238,24,Female,1,2024/02/16_15:27:34,YZ,None,
4,./instructions/inst_prac_main/Slide54.png,right,22.059631823009113,1030.1481078689976,1052.2077396920067,,,,,,,,,,,,,,,,,,,,,,,,,,,,,,,,,1,,,,,,,,,,,,,,,,,,,,,,,,,,,,,,,,,,,,,,,,,,,,,,64,159238,24,Female,1,2024/02/16_15:27:34,YZ,None,
,,,,,,practice_main,0,1,1,250,1,Q,0,right,0.9855379669897957,1,0,,,,,,,,,,,,,,,,,,,,,1,,,,,,,,,,,,,,,,,,,,,,,,,,,,,,,,,,,,,,,,,,,,,,64,159238,24,Female,1,2024/02/16_15:27:34,YZ,None,
,,,,,,practice_main,0,1,1,250,2,X,0,right,nan,0,1,,,,,,,,,,,,,,,,,,,,,1,,,,,,,,,,,,,,,,,,,,,,,,,,,,,,,,,,,,,,,,,,,,,,64,159238,24,Female,1,2024/02/16_15:27:34,YZ,None,
,,,,,,practice_main,0,1,1,250,3,Q,0,right,nan,0,1,,,,,,,,,,,,,,,,,,,,,1,,,,,,,,,,,,,,,,,,,,,,,,,,,,,,,,,,,,,,,,,,,,,,64,159238,24,Female,1,2024/02/16_15:27:34,YZ,None,
,,,,,,practice_main,0,1,1,250,4,N,0,right,0.7973216300015338,1,0,,,,,,,,,,,,,,,,,,,,,1,,,,,,,,,,,,,,,,,,,,,,,,,,,,,,,,,,,,,,,,,,,,,,64,159238,24,Female,1,2024/02/16_15:27:34,YZ,None,
,,,,,,practice_main,0,1,1,250,5,S,0,right,0.8263837330014212,1,0,,,,,,,,,,,,,,,,,,,,,1,,,,,,,,,,,,,,,,,,,,,,,,,,,,,,,,,,,,,,,,,,,,,,64,159238,24,Female,1,2024/02/16_15:27:34,YZ,None,
,,,,,,practice_main,0,1,1,250,6,S,1,left,0.5222872589947656,1,0,,,,,,,,,,,,,,,,,,,,,1,,,,,,,,,,,,,,,,,,,,,,,,,,,,,,,,,,,,,,,,,,,,,,64,159238,24,Female,1,2024/02/16_15:27:34,YZ,None,
,,,,,,practice_main,0,1,1,250,7,X,0,right,0.6252401810052106,1,0,,,,,,,,,,,,,,,,,,,,,1,,,,,,,,,,,,,,,,,,,,,,,,,,,,,,,,,,,,,,,,,,,,,,64,159238,24,Female,1,2024/02/16_15:27:34,YZ,None,
,,,,,,practice_main,0,1,1,250,8,S,0,right,0.7080651029973524,1,0,,,,,,,,,,,,,,,,,,,,,1,,,,,,,,,,,,,,,,,,,,,,,,,,,,,,,,,,,,,,,,,,,,,,64,159238,24,Female,1,2024/02/16_15:27:34,YZ,None,
,,,,,,practice_main,0,1,1,250,9,F,0,right,0.6742286410008091,1,0,,,,,,,,,,,,,,,,,,,,,1,,,,,,,,,,,,,,,,,,,,,,,,,,,,,,,,,,,,,,,,,,,,,,64,159238,24,Female,1,2024/02/16_15:27:34,YZ,None,
,,,,,,practice_main,0,1,1,250,10,N,0,right,0.6904696960118599,1,0,,,,,,,,,,,,,,,,,,,,,1,,,,,,,,,,,,,,,,,,,,,,,,,,,,,,,,,,,,,,,,,,,,,,64,159238,24,Female,1,2024/02/16_15:27:34,YZ,None,
,,,,,,practice_main,0,1,1,250,11,N,1,left,0.6112907660135534,1,0,,,,,,,,,,,,,,,,,,,,,1,,,,,,,,,,,,,,,,,,,,,,,,,,,,,,,,,,,,,,,,,,,,,,64,159238,24,Female,1,2024/02/16_15:27:34,YZ,None,
,,,,,,practice_main,0,1,1,250,12,X,0,right,0.6081522139866138,1,0,,,,,,,,,,,,,,,,,,,,,1,,,,,,,,,,,,,,,,,,,,,,,,,,,,,,,,,,,,,,,,,,,,,,64,159238,24,Female,1,2024/02/16_15:27:34,YZ,None,
,,,,,,practice_main,0,1,1,250,13,V,0,right,0.6973836520046461,1,0,,,,,,,,,,,,,,,,,,,,,1,,,,,,,,,,,,,,,,,,,,,,,,,,,,,,,,,,,,,,,,,,,,,,64,159238,24,Female,1,2024/02/16_15:27:34,YZ,None,
,,,,,,practice_main,0,1,1,250,14,V,1,left,0.5425292040017666,1,0,,,,,,,,,,,,,,,,,,,,,1,,,,,,,,,,,,,,,,,,,,,,,,,,,,,,,,,,,,,,,,,,,,,,64,159238,24,Female,1,2024/02/16_15:27:34,YZ,None,
,,,,,,practice_main,0,1,1,250,15,Q,0,right,0.5564511370030232,1,0,,,,,,,,,,,,,,,,,,,,,1,,,,,,,,,,,,,,,,,,,,,,,,,,,,,,,,,,,,,,,,,,,,,,64,159238,24,Female,1,2024/02/16_15:27:34,YZ,None,
,,,,,,practice_main,0,1,1,250,16,C,0,right,0.4841054030111991,1,0,,,,,,,,,,,,,,,,,,,,,1,,,,,,,,,,,,,,,,,,,,,,,,,,,,,,,,,,,,,,,,,,,,,,64,159238,24,Female,1,2024/02/16_15:27:34,YZ,None,
,,,,,,practice_main,0,1,1,250,17,Q,0,right,0.629295093996916,1,0,,,,,,,,,,,,,,,,,,,,,1,,,,,,,,,,,,,,,,,,,,,,,,,,,,,,,,,,,,,,,,,,,,,,64,159238,24,Female,1,2024/02/16_15:27:34,YZ,None,
,,,,,,practice_main,0,1,1,250,18,Q,1,left,0.6810793820040999,1,0,,,,,,,,,,,,,,,,,,,,,1,,,,,,,,,,,,,,,,,,,,,,,,,,,,,,,,,,,,,,,,,,,,,,64,159238,24,Female,1,2024/02/16_15:27:34,YZ,None,
,,,,,,practice_main,0,1,1,250,19,F,0,right,0.4761498290026793,1,0,,,,,,,,,,,,,,,,,,,,,1,,,,,,,,,,,,,,,,,,,,,,,,,,,,,,,,,,,,,,,,,,,,,,64,159238,24,Female,1,2024/02/16_15:27:34,YZ,None,
,,,,,,practice_main,0,1,1,250,20,F,1,left,0.5234564620041056,1,0,,,,,,,,,,,,,,,,,,,,,1,,,,,,,,,,,,,,,,,,,,,,,,,,,,,,,,,,,,,,,,,,,,,,64,159238,24,Female,1,2024/02/16_15:27:34,YZ,None,
,,,,,,practice_main,0,1,1,250,,,,,,,,1.0,1.0,0.0,1.0,0.1,0.9,0.6466348529461862,5,0,0,2,2,13,18,5,15,0,,,,1,,,,,,,,,,,,,,,,,,,,,,,,,,,,,,,,,,,,,,,,,,,,,,64,159238,24,Female,1,2024/02/16_15:27:34,YZ,None,
,,,,,240216_161817,PRACTICE,0,1,1,250,,,,,,,,,,,,,,,,,,,,,,,,,,,,1,29,1,1,cue2.png,easy,B,31,1.319487778993789,0,1055.3296776760108,1056.669494051006,,,,,,,,,,,,,,,,,,,,,,,,,,,,,,,,,,,64,159238,24,Female,1,2024/02/16_15:27:34,YZ,None,
,,,,,,practice_main,0,2,1,250,1,S,0,right,0.6817841419979231,1,0,,,,,,,,,,,,,,,,,,,,,1,,,,,,,,,,,,,,,,,,,,,,,,,,,,,,,,,,,,,,,,,,,,,,64,159238,24,Female,1,2024/02/16_15:27:34,YZ,None,
,,,,,,practice_main,0,2,1,250,2,S,1,left,0.4287190780014498,1,0,,,,,,,,,,,,,,,,,,,,,1,,,,,,,,,,,,,,,,,,,,,,,,,,,,,,,,,,,,,,,,,,,,,,64,159238,24,Female,1,2024/02/16_15:27:34,YZ,None,
,,,,,,practice_main,0,2,1,250,3,X,0,right,0.4690577180008404,1,0,,,,,,,,,,,,,,,,,,,,,1,,,,,,,,,,,,,,,,,,,,,,,,,,,,,,,,,,,,,,,,,,,,,,64,159238,24,Female,1,2024/02/16_15:27:34,YZ,None,
,,,,,,practice_main,0,2,1,250,4,J,0,right,0.6519508350029355,1,0,,,,,,,,,,,,,,,,,,,,,1,,,,,,,,,,,,,,,,,,,,,,,,,,,,,,,,,,,,,,,,,,,,,,64,159238,24,Female,1,2024/02/16_15:27:34,YZ,None,
,,,,,,practice_main,0,2,1,250,5,J,1,left,0.5294546700024512,1,0,,,,,,,,,,,,,,,,,,,,,1,,,,,,,,,,,,,,,,,,,,,,,,,,,,,,,,,,,,,,,,,,,,,,64,159238,24,Female,1,2024/02/16_15:27:34,YZ,None,
,,,,,,practice_main,0,2,1,250,6,S,0,right,0.33948494399373885,1,0,,,,,,,,,,,,,,,,,,,,,1,,,,,,,,,,,,,,,,,,,,,,,,,,,,,,,,,,,,,,,,,,,,,,64,159238,24,Female,1,2024/02/16_15:27:34,YZ,None,
,,,,,,practice_main,0,2,1,250,7,V,0,right,0.4170269039896084,1,0,,,,,,,,,,,,,,,,,,,,,1,,,,,,,,,,,,,,,,,,,,,,,,,,,,,,,,,,,,,,,,,,,,,,64,159238,24,Female,1,2024/02/16_15:27:34,YZ,None,
,,,,,,practice_main,0,2,1,250,8,J,0,right,0.42979308900248725,1,0,,,,,,,,,,,,,,,,,,,,,1,,,,,,,,,,,,,,,,,,,,,,,,,,,,,,,,,,,,,,,,,,,,,,64,159238,24,Female,1,2024/02/16_15:27:34,YZ,None,
,,,,,,practice_main,0,2,1,250,9,N,0,right,0.4991016490093898,1,0,,,,,,,,,,,,,,,,,,,,,1,,,,,,,,,,,,,,,,,,,,,,,,,,,,,,,,,,,,,,,,,,,,,,64,159238,24,Female,1,2024/02/16_15:27:34,YZ,None,
,,,,,,practice_main,0,2,1,250,10,J,0,right,0.5821472180105047,1,0,,,,,,,,,,,,,,,,,,,,,1,,,,,,,,,,,,,,,,,,,,,,,,,,,,,,,,,,,,,,,,,,,,,,64,159238,24,Female,1,2024/02/16_15:27:34,YZ,None,
,,,,,,practice_main,0,2,1,250,11,X,0,right,0.4034260299958987,1,0,,,,,,,,,,,,,,,,,,,,,1,,,,,,,,,,,,,,,,,,,,,,,,,,,,,,,,,,,,,,,,,,,,,,64,159238,24,Female,1,2024/02/16_15:27:34,YZ,None,
,,,,,,practice_main,0,2,1,250,12,X,1,right,0.5315047940093791,0,0,,,,,,,,,,,,,,,,,,,,,1,,,,,,,,,,,,,,,,,,,,,,,,,,,,,,,,,,,,,,,,,,,,,,64,159238,24,Female,1,2024/02/16_15:27:34,YZ,None,
,,,,,,practice_main,0,2,1,250,13,F,0,right,0.39887999898928683,1,0,,,,,,,,,,,,,,,,,,,,,1,,,,,,,,,,,,,,,,,,,,,,,,,,,,,,,,,,,,,,,,,,,,,,64,159238,24,Female,1,2024/02/16_15:27:34,YZ,None,
,,,,,,practice_main,0,2,1,250,14,C,0,right,0.5317885869881138,1,0,,,,,,,,,,,,,,,,,,,,,1,,,,,,,,,,,,,,,,,,,,,,,,,,,,,,,,,,,,,,,,,,,,,,64,159238,24,Female,1,2024/02/16_15:27:34,YZ,None,
,,,,,,practice_main,0,2,1,250,15,V,0,right,0.6578144969971618,1,0,,,,,,,,,,,,,,,,,,,,,1,,,,,,,,,,,,,,,,,,,,,,,,,,,,,,,,,,,,,,,,,,,,,,64,159238,24,Female,1,2024/02/16_15:27:34,YZ,None,
,,,,,,practice_main,0,2,1,250,16,F,0,right,0.49660660899826325,1,0,,,,,,,,,,,,,,,,,,,,,1,,,,,,,,,,,,,,,,,,,,,,,,,,,,,,,,,,,,,,,,,,,,,,64,159238,24,Female,1,2024/02/16_15:27:34,YZ,None,
,,,,,,practice_main,0,2,1,250,17,F,1,left,0.38982218099408783,1,0,,,,,,,,,,,,,,,,,,,,,1,,,,,,,,,,,,,,,,,,,,,,,,,,,,,,,,,,,,,,,,,,,,,,64,159238,24,Female,1,2024/02/16_15:27:34,YZ,None,
,,,,,,practice_main,0,2,1,250,18,X,0,right,0.5421739800076466,1,0,,,,,,,,,,,,,,,,,,,,,1,,,,,,,,,,,,,,,,,,,,,,,,,,,,,,,,,,,,,,,,,,,,,,64,159238,24,Female,1,2024/02/16_15:27:34,YZ,None,
,,,,,,practice_main,0,2,1,250,19,X,1,right,0.3329739239998162,0,0,,,,,,,,,,,,,,,,,,,,,1,,,,,,,,,,,,,,,,,,,,,,,,,,,,,,,,,,,,,,,,,,,,,,64,159238,24,Female,1,2024/02/16_15:27:34,YZ,None,
,,,,,,practice_main,0,2,1,250,20,V,0,right,nan,0,1,,,,,,,,,,,,,,,,,,,,,1,,,,,,,,,,,,,,,,,,,,,,,,,,,,,,,,,,,,,,,,,,,,,,64,159238,24,Female,1,2024/02/16_15:27:34,YZ,None,
,,,,,,practice_main,0,2,1,250,,,,,,,,0.9,0.6,0.0,1.0,0.05,0.95,0.49018478147320965,3,0,0,1,1,14,17,5,15,0,,,,1,,,,,,,,,,,,,,,,,,,,,,,,,,,,,,,,,,,,,,,,,,,,,,64,159238,24,Female,1,2024/02/16_15:27:34,YZ,None,
,,,,,240216_161849,PRACTICE,0,2,1,250,,,,,,,,,,,,,,,,,,,,,,,,,,,,1,29,2,2,cue2.png,easy,B,30,1.9627558319916716,0,1089.977334340001,1091.9603479930083,,,,,,,,,,,,,,,,,,,,,,,,,,,,,,,,,,,64,159238,24,Female,1,2024/02/16_15:27:34,YZ,None,
,,,,,,practice_main,0,3,3,250,1,N,0,None,nan,0,1,,,,,,,,,,,,,,,,,,,,,1,,,,,,,,,,,,,,,,,,,,,,,,,,,,,,,,,,,,,,,,,,,,,,64,159238,24,Female,1,2024/02/16_15:27:34,YZ,None,
,,,,,,practice_main,0,3,3,250,2,S,0,right,0.7424326080072206,1,0,,,,,,,,,,,,,,,,,,,,,1,,,,,,,,,,,,,,,,,,,,,,,,,,,,,,,,,,,,,,,,,,,,,,64,159238,24,Female,1,2024/02/16_15:27:34,YZ,None,
,,,,,,practice_main,0,3,3,250,3,N,0,left,0.384183367001242,0,0,,,,,,,,,,,,,,,,,,,,,1,,,,,,,,,,,,,,,,,,,,,,,,,,,,,,,,,,,,,,,,,,,,,,64,159238,24,Female,1,2024/02/16_15:27:34,YZ,None,
,,,,,,practice_main,0,3,3,250,4,Q,0,right,0.6301823100075126,1,0,,,,,,,,,,,,,,,,,,,,,1,,,,,,,,,,,,,,,,,,,,,,,,,,,,,,,,,,,,,,,,,,,,,,64,159238,24,Female,1,2024/02/16_15:27:34,YZ,None,
,,,,,,practice_main,0,3,3,250,5,F,0,right,0.7668687429977581,1,0,,,,,,,,,,,,,,,,,,,,,1,,,,,,,,,,,,,,,,,,,,,,,,,,,,,,,,,,,,,,,,,,,,,,64,159238,24,Female,1,2024/02/16_15:27:34,YZ,None,
,,,,,,practice_main,0,3,3,250,6,S,0,right,0.4882924120029202,1,0,,,,,,,,,,,,,,,,,,,,,1,,,,,,,,,,,,,,,,,,,,,,,,,,,,,,,,,,,,,,,,,,,,,,64,159238,24,Female,1,2024/02/16_15:27:34,YZ,None,
,,,,,,practice_main,0,3,3,250,7,N,0,right,0.7605127340066247,1,0,,,,,,,,,,,,,,,,,,,,,1,,,,,,,,,,,,,,,,,,,,,,,,,,,,,,,,,,,,,,,,,,,,,,64,159238,24,Female,1,2024/02/16_15:27:34,YZ,None,
,,,,,,practice_main,0,3,3,250,8,Q,0,left,0.6400899439904606,0,0,,,,,,,,,,,,,,,,,,,,,1,,,,,,,,,,,,,,,,,,,,,,,,,,,,,,,,,,,,,,,,,,,,,,64,159238,24,Female,1,2024/02/16_15:27:34,YZ,None,
,,,,,,practice_main,0,3,3,250,9,J,0,right,0.4512752129958244,1,0,,,,,,,,,,,,,,,,,,,,,1,,,,,,,,,,,,,,,,,,,,,,,,,,,,,,,,,,,,,,,,,,,,,,64,159238,24,Female,1,2024/02/16_15:27:34,YZ,None,
,,,,,,practice_main,0,3,3,250,10,N,1,right,0.5991780740005197,0,0,,,,,,,,,,,,,,,,,,,,,1,,,,,,,,,,,,,,,,,,,,,,,,,,,,,,,,,,,,,,,,,,,,,,64,159238,24,Female,1,2024/02/16_15:27:34,YZ,None,
,,,,,,practice_main,0,3,3,250,11,Q,1,right,0.7399189779971493,0,0,,,,,,,,,,,,,,,,,,,,,1,,,,,,,,,,,,,,,,,,,,,,,,,,,,,,,,,,,,,,,,,,,,,,64,159238,24,Female,1,2024/02/16_15:27:34,YZ,None,
,,,,,,practice_main,0,3,3,250,12,Q,0,right,0.8064856819983106,1,0,,,,,,,,,,,,,,,,,,,,,1,,,,,,,,,,,,,,,,,,,,,,,,,,,,,,,,,,,,,,,,,,,,,,64,159238,24,Female,1,2024/02/16_15:27:34,YZ,None,
,,,,,,practice_main,0,3,3,250,13,N,1,right,nan,0,1,,,,,,,,,,,,,,,,,,,,,1,,,,,,,,,,,,,,,,,,,,,,,,,,,,,,,,,,,,,,,,,,,,,,64,159238,24,Female,1,2024/02/16_15:27:34,YZ,None,
,,,,,,practice_main,0,3,3,250,14,Q,1,left,0.7823584110010415,1,0,,,,,,,,,,,,,,,,,,,,,1,,,,,,,,,,,,,,,,,,,,,,,,,,,,,,,,,,,,,,,,,,,,,,64,159238,24,Female,1,2024/02/16_15:27:34,YZ,None,
,,,,,,practice_main,0,3,3,250,15,J,0,left,nan,0,1,,,,,,,,,,,,,,,,,,,,,1,,,,,,,,,,,,,,,,,,,,,,,,,,,,,,,,,,,,,,,,,,,,,,64,159238,24,Female,1,2024/02/16_15:27:34,YZ,None,
,,,,,,practice_main,0,3,3,250,16,N,1,right,0.9748895110096782,0,0,,,,,,,,,,,,,,,,,,,,,1,,,,,,,,,,,,,,,,,,,,,,,,,,,,,,,,,,,,,,,,,,,,,,64,159238,24,Female,1,2024/02/16_15:27:34,YZ,None,
,,,,,,practice_main,0,3,3,250,17,C,0,right,0.7821033110085409,1,0,,,,,,,,,,,,,,,,,,,,,1,,,,,,,,,,,,,,,,,,,,,,,,,,,,,,,,,,,,,,,,,,,,,,64,159238,24,Female,1,2024/02/16_15:27:34,YZ,None,
,,,,,,practice_main,0,3,3,250,18,S,0,right,0.7256290960067417,1,0,,,,,,,,,,,,,,,,,,,,,1,,,,,,,,,,,,,,,,,,,,,,,,,,,,,,,,,,,,,,,,,,,,,,64,159238,24,Female,1,2024/02/16_15:27:34,YZ,None,
,,,,,,practice_main,0,3,3,250,19,J,0,right,0.9736513230018318,1,0,,,,,,,,,,,,,,,,,,,,,1,,,,,,,,,,,,,,,,,,,,,,,,,,,,,,,,,,,,,,,,,,,,,,64,159238,24,Female,1,2024/02/16_15:27:34,YZ,None,
,,,,,,practice_main,0,3,3,250,20,Q,0,right,0.6791022229881492,1,0,,,,,,,,,,,,,,,,,,,,,1,,,,,,,,,,,,,,,,,,,,,,,,,,,,,,,,,,,,,,,,,,,,,,64,159238,24,Female,1,2024/02/16_15:27:34,YZ,None,
,,,,,,practice_main,0,3,3,250,,,,,,,,0.6000000000000001,0.2,0.13333333333333333,0.8461538461538461,0.15,0.7166666666666667,0.7015972905895015,1,2,1,2,3,11,12,5,15,0,,,,1,,,,,,,,,,,,,,,,,,,,,,,,,,,,,,,,,,,,,,,,,,,,,,64,159238,24,Female,1,2024/02/16_15:27:34,YZ,None,
,,,,,240216_161924,PRACTICE,0,3,3,250,,,,,,,,,,,,,,,,,,,,,,,,,,,,1,17,3,3,cue1.png,hard,B,46,0.556229830996017,0,1121.9103277370014,1122.4919090339972,,,,,,,,,,,,,,,,,,,,,,,,,,,,,,,,,,,64,159238,24,Female,1,2024/02/16_15:27:34,YZ,None,
1,./instructions/inst_prac_end/Slide56.png,right,21.85692332200415,1155.6147756120045,1177.4716989340086,,,,,,,,,,,,,,,,,,,,,,,,,,,,,,,,,1,,,,,,,,,,,,,,,,,,,,,,,,,,,,,,,,,,,,,,,,,,,,,,64,159238,24,Female,1,2024/02/16_15:27:34,YZ,None,
1,./instructions/inst_test/Slide57.png,right,27.75479419900512,1177.5089778580004,1205.2637720570056,,,,,,,,,,,,,,,,,,,,,,,,,,,,,,,,,1,,,,,,,,,,,,,,,,,,,,,,,,,,,,,,,,,,,,,,,,,,,,,,64,159238,24,Female,1,2024/02/16_15:27:34,YZ,None,
,,,,,,test,1,1,1,250,1,F,0,None,nan,0,1,,,,,,,,,,,,,,,,,,,,,1,,,,,,,,,,,,,,,,,,,,,,,,,,,,,,,,,,,,,,,,,,,,,,64,159238,24,Female,1,2024/02/16_15:27:34,YZ,None,
