Instruction,Stimulus,Key,RT,START,END,Phase,Block,TrialN,NbackLevel,ISI,LetterN,Letter,Letter_isSame,Letter_Resp,Letter_RT,Letter_Accuracy,Letter_Timeout,Trial_A_measure,Trial_HR,Trial_FAR,Trial_CDR,Trial_MSR,Trial_ACC,Trial_RT,Trial_HitsCount,Trial_FAsCount,Trial_SameNoRespCount,Trial_DiffNoRespCount,Trial_NoRespCount,Trial_CDsCount,Trial_CorrectRespCount,Trial_SameLetterCount,Trial_DiffLetterCount,Trial_InvalidLetterCount,TrialCountCali,CaliEnd_A_measure,ISI_calibrated,Run,TrialIndex,TrialNumber_total,TrialNumber_valid,CueLearning,TrialDemandLearning,CueMapping,OnlineRating,OnlineRatingRT,OnlineRatingTimeOut,CueSTART,RatingSTART,OfflineRatingTimePoint,OfflineRatingQuesIndex,CueFigure,TrialDemand,OfflineRating,OfflineRatingRT,CueStart,OfflineRatingStart,PhaseType,CueLeft,CueDemandLeft,CueRight,CueDemandRight,Choice,ChoiceDemand,TaskDemand,ChoiceRT,ChoiceTimeOut,ChoiceSTART,CueCheck,CueDemandCheck,CorrectAnswer,Answer,AnswerDemand,AnswerRT,AnswerACC,AnswerTimeOut,CheckSTART,DemandRatingQuesIndex,QuesTLX,DemandLevel,DemandRating,DemandRatingRT,QuesStart,PID,SONA,Age,Gender,Run,TIME,EXPERIMENTER,frameRate,
1,./instructions/inst_begin/Slide2.png,right,31.93583499899978,0.1070259679981973,32.04286096699798,,,,,,,,,,,,,,,,,,,,,,,,,,,,,,,,,1,,,,,,,,,,,,,,,,,,,,,,,,,,,,,,,,,,,,,,,,,,,,,,69,151975,20,Female,1,2024/02/20_10:00:12,YZ,None,
2,./instructions/inst_begin/Slide3.png,right,6.282351811998524,32.07267822999711,38.35503004199563,,,,,,,,,,,,,,,,,,,,,,,,,,,,,,,,,1,,,,,,,,,,,,,,,,,,,,,,,,,,,,,,,,,,,,,,,,,,,,,,69,151975,20,Female,1,2024/02/20_10:00:12,YZ,None,
3,./instructions/inst_begin/Slide4.png,right,13.094696626998484,38.38041255999997,51.47510918699845,,,,,,,,,,,,,,,,,,,,,,,,,,,,,,,,,1,,,,,,,,,,,,,,,,,,,,,,,,,,,,,,,,,,,,,,,,,,,,,,69,151975,20,Female,1,2024/02/20_10:00:12,YZ,None,
1,./instructions/inst_prac_2/Slide6.png,right,23.217179342995223,51.50594473700039,74.72312407999561,,,,,,,,,,,,,,,,,,,,,,,,,,,,,,,,,1,,,,,,,,,,,,,,,,,,,,,,,,,,,,,,,,,,,,,,,,,,,,,,69,151975,20,Female,1,2024/02/20_10:00:12,YZ,None,
2,./instructions/inst_prac_2/Slide7.png,right,13.914578507996339,74.75249663199793,88.66707513999427,,,,,,,,,,,,,,,,,,,,,,,,,,,,,,,,,1,,,,,,,,,,,,,,,,,,,,,,,,,,,,,,,,,,,,,,,,,,,,,,69,151975,20,Female,1,2024/02/20_10:00:12,YZ,None,
3,./instructions/inst_prac_2/Slide8.png,right,14.195036772005551,88.69608602999506,102.89112280200061,,,,,,,,,,,,,,,,,,,,,,,,,,,,,,,,,1,,,,,,,,,,,,,,,,,,,,,,,,,,,,,,,,,,,,,,,,,,,,,,69,151975,20,Female,1,2024/02/20_10:00:12,YZ,None,
4,./instructions/inst_prac_2/Slide9.png,right,10.330833390995394,102.92034995699942,113.25118334799481,,,,,,,,,,,,,,,,,,,,,,,,,,,,,,,,,1,,,,,,,,,,,,,,,,,,,,,,,,,,,,,,,,,,,,,,,,,,,,,,69,151975,20,Female,1,2024/02/20_10:00:12,YZ,None,
5,./instructions/inst_prac_2/Slide10.png,right,3.762754381998093,113.28031258600095,117.04306696799904,,,,,,,,,,,,,,,,,,,,,,,,,,,,,,,,,1,,,,,,,,,,,,,,,,,,,,,,,,,,,,,,,,,,,,,,,,,,,,,,69,151975,20,Female,1,2024/02/20_10:00:12,YZ,None,
4,./instructions/inst_prac_2/Slide11.png,left,1.2055536309999297,117.06967953799904,118.27523316899897,,,,,,,,,,,,,,,,,,,,,,,,,,,,,,,,,1,,,,,,,,,,,,,,,,,,,,,,,,,,,,,,,,,,,,,,,,,,,,,,69,151975,20,Female,1,2024/02/20_10:00:12,YZ,None,
3,./instructions/inst_prac_2/Slide10.png,left,0.20041561299876776,118.29777920999913,118.4981948229979,,,,,,,,,,,,,,,,,,,,,,,,,,,,,,,,,1,,,,,,,,,,,,,,,,,,,,,,,,,,,,,,,,,,,,,,,,,,,,,,69,151975,20,Female,1,2024/02/20_10:00:12,YZ,None,
4,./instructions/inst_prac_2/Slide9.png,right,5.290671087001101,118.52054593399953,123.81121702100063,,,,,,,,,,,,,,,,,,,,,,,,,,,,,,,,,1,,,,,,,,,,,,,,,,,,,,,,,,,,,,,,,,,,,,,,,,,,,,,,69,151975,20,Female,1,2024/02/20_10:00:12,YZ,None,
5,./instructions/inst_prac_2/Slide10.png,right,1.71471258100064,123.84034923400031,125.55506181500095,,,,,,,,,,,,,,,,,,,,,,,,,,,,,,,,,1,,,,,,,,,,,,,,,,,,,,,,,,,,,,,,,,,,,,,,,,,,,,,,69,151975,20,Female,1,2024/02/20_10:00:12,YZ,None,
6,./instructions/inst_prac_2/Slide11.png,right,6.475339584998437,125.58385907699994,132.05919866199838,,,,,,,,,,,,,,,,,,,,,,,,,,,,,,,,,1,,,,,,,,,,,,,,,,,,,,,,,,,,,,,,,,,,,,,,,,,,,,,,69,151975,20,Female,1,2024/02/20_10:00:12,YZ,None,
7,./instructions/inst_prac_2/Slide12.png,right,2.5949291690048994,132.08798336299515,134.68291253200005,,,,,,,,,,,,,,,,,,,,,,,,,,,,,,,,,1,,,,,,,,,,,,,,,,,,,,,,,,,,,,,,,,,,,,,,,,,,,,,,69,151975,20,Female,1,2024/02/20_10:00:12,YZ,None,
8,./instructions/inst_prac_2/Slide13.png,right,2.2351530169980833,134.7118872459978,136.94704026299587,,,,,,,,,,,,,,,,,,,,,,,,,,,,,,,,,1,,,,,,,,,,,,,,,,,,,,,,,,,,,,,,,,,,,,,,,,,,,,,,69,151975,20,Female,1,2024/02/20_10:00:12,YZ,None,
9,./instructions/inst_prac_2/Slide14.png,right,14.96312071599823,136.97614318900014,151.93926390499837,,,,,,,,,,,,,,,,,,,,,,,,,,,,,,,,,1,,,,,,,,,,,,,,,,,,,,,,,,,,,,,,,,,,,,,,,,,,,,,,69,151975,20,Female,1,2024/02/20_10:00:12,YZ,None,
10,./instructions/inst_prac_2/Slide15.png,right,0.20039193699631141,151.96856427699822,152.16895621399453,,,,,,,,,,,,,,,,,,,,,,,,,,,,,,,,,1,,,,,,,,,,,,,,,,,,,,,,,,,,,,,,,,,,,,,,,,,,,,,,69,151975,20,Female,1,2024/02/20_10:00:12,YZ,None,
,,,,,,practice,0,8,2,2583,1,X,0,right,3.708053241003654,1,0,,,,,,,,,,,,,,,,,,,,,1,,,,,,,,,,,,,,,,,,,,,,,,,,,,,,,,,,,,,,,,,,,,,,69,151975,20,Female,1,2024/02/20_10:00:12,YZ,None,
,,,,,,practice,0,8,2,2583,2,C,0,right,1.14509746600379,1,0,,,,,,,,,,,,,,,,,,,,,1,,,,,,,,,,,,,,,,,,,,,,,,,,,,,,,,,,,,,,,,,,,,,,69,151975,20,Female,1,2024/02/20_10:00:12,YZ,None,
,,,,,,practice,0,8,2,2583,3,X,1,left,1.5213199529971462,1,0,,,,,,,,,,,,,,,,,,,,,1,,,,,,,,,,,,,,,,,,,,,,,,,,,,,,,,,,,,,,,,,,,,,,69,151975,20,Female,1,2024/02/20_10:00:12,YZ,None,
,,,,,,practice,0,8,2,2583,4,C,1,right,1.2295120149938157,0,0,,,,,,,,,,,,,,,,,,,,,1,,,,,,,,,,,,,,,,,,,,,,,,,,,,,,,,,,,,,,,,,,,,,,69,151975,20,Female,1,2024/02/20_10:00:12,YZ,None,
,,,,,,practice,0,8,2,2583,5,Q,0,left,1.7449685739993583,0,0,,,,,,,,,,,,,,,,,,,,,1,,,,,,,,,,,,,,,,,,,,,,,,,,,,,,,,,,,,,,,,,,,,,,69,151975,20,Female,1,2024/02/20_10:00:12,YZ,None,
,,,,,,practice,0,8,2,2583,6,V,0,left,1.4675299989976338,0,0,,,,,,,,,,,,,,,,,,,,,1,,,,,,,,,,,,,,,,,,,,,,,,,,,,,,,,,,,,,,,,,,,,,,69,151975,20,Female,1,2024/02/20_10:00:12,YZ,None,
,,,,,,practice,0,8,2,2583,,,,,,,,0.5,0.5,0.5,0.5,0.0,0.5,1.8027468746658997,1,2,0,0,0,2,3,2,4,0,,,,1,,,,,,,,,,,,,,,,,,,,,,,,,,,,,,,,,,,,,,,,,,,,,,69,151975,20,Female,1,2024/02/20_10:00:12,YZ,None,
1,./instructions/inst_redo_2/Slide18.png,right,6.617888478001987,170.8971766859977,177.51506516399968,,,,,,,,,,,,,,,,,,,,,,,,,,,,,,,,,1,,,,,,,,,,,,,,,,,,,,,,,,,,,,,,,,,,,,,,,,,,,,,,69,151975,20,Female,1,2024/02/20_10:00:12,YZ,None,
,,,,,,practice,0,2,2,2583,1,F,0,right,1.508620857995993,1,0,,,,,,,,,,,,,,,,,,,,,1,,,,,,,,,,,,,,,,,,,,,,,,,,,,,,,,,,,,,,,,,,,,,,69,151975,20,Female,1,2024/02/20_10:00:12,YZ,None,
,,,,,,practice,0,2,2,2583,2,N,0,right,1.7322113720001653,1,0,,,,,,,,,,,,,,,,,,,,,1,,,,,,,,,,,,,,,,,,,,,,,,,,,,,,,,,,,,,,,,,,,,,,69,151975,20,Female,1,2024/02/20_10:00:12,YZ,None,
,,,,,,practice,0,2,2,2583,3,J,0,right,1.236779792001471,1,0,,,,,,,,,,,,,,,,,,,,,1,,,,,,,,,,,,,,,,,,,,,,,,,,,,,,,,,,,,,,,,,,,,,,69,151975,20,Female,1,2024/02/20_10:00:12,YZ,None,
,,,,,,practice,0,2,2,2583,4,S,0,right,1.7228984720059088,1,0,,,,,,,,,,,,,,,,,,,,,1,,,,,,,,,,,,,,,,,,,,,,,,,,,,,,,,,,,,,,,,,,,,,,69,151975,20,Female,1,2024/02/20_10:00:12,YZ,None,
,,,,,,practice,0,2,2,2583,5,J,1,left,1.7250994019996142,1,0,,,,,,,,,,,,,,,,,,,,,1,,,,,,,,,,,,,,,,,,,,,,,,,,,,,,,,,,,,,,,,,,,,,,69,151975,20,Female,1,2024/02/20_10:00:12,YZ,None,
,,,,,,practice,0,2,2,2583,6,S,1,left,1.9182164360026945,1,0,,,,,,,,,,,,,,,,,,,,,1,,,,,,,,,,,,,,,,,,,,,,,,,,,,,,,,,,,,,,,,,,,,,,69,151975,20,Female,1,2024/02/20_10:00:12,YZ,None,
,,,,,,practice,0,2,2,2583,,,,,,,,1.0,1.0,0.0,1.0,0.0,1.0,1.6406377220009745,2,0,0,0,0,4,6,2,4,0,,,,1,,,,,,,,,,,,,,,,,,,,,,,,,,,,,,,,,,,,,,,,,,,,,,69,151975,20,Female,1,2024/02/20_10:00:12,YZ,None,
1,./instructions/inst_to_cali/Slide20.png,right,7.188241388997994,194.71092694799881,201.8991683369968,,,,,,,,,,,,,,,,,,,,,,,,,,,,,,,,,1,,,,,,,,,,,,,,,,,,,,,,,,,,,,,,,,,,,,,,,,,,,,,,69,151975,20,Female,1,2024/02/20_10:00:12,YZ,None,
1,./instructions/inst_cali/Slide22.png,right,0.20034290500188945,201.93147366299672,202.1318165679986,,,,,,,,,,,,,,,,,,,,,,,,,,,,,,,,,1,,,,,,,,,,,,,,,,,,,,,,,,,,,,,,,,,,,,,,,,,,,,,,69,151975,20,Female,1,2024/02/20_10:00:12,YZ,None,
,,,,,,calibration,0,15,2,583,1,N,0,None,nan,0,1,,,,,,,,,,,,,,,,,,,,,1,,,,,,,,,,,,,,,,,,,,,,,,,,,,,,,,,,,,,,,,,,,,,,69,151975,20,Female,1,2024/02/20_10:00:12,YZ,None,
,,,,,,calibration,0,15,2,583,2,S,0,None,nan,0,1,,,,,,,,,,,,,,,,,,,,,1,,,,,,,,,,,,,,,,,,,,,,,,,,,,,,,,,,,,,,,,,,,,,,69,151975,20,Female,1,2024/02/20_10:00:12,YZ,None,
,,,,,,calibration,0,15,2,583,3,C,0,None,nan,0,1,,,,,,,,,,,,,,,,,,,,,1,,,,,,,,,,,,,,,,,,,,,,,,,,,,,,,,,,,,,,,,,,,,,,69,151975,20,Female,1,2024/02/20_10:00:12,YZ,None,
,,,,,,calibration,0,15,2,583,4,X,0,None,nan,0,1,,,,,,,,,,,,,,,,,,,,,1,,,,,,,,,,,,,,,,,,,,,,,,,,,,,,,,,,,,,,,,,,,,,,69,151975,20,Female,1,2024/02/20_10:00:12,YZ,None,
,,,,,,calibration,0,15,2,583,5,F,0,None,nan,0,1,,,,,,,,,,,,,,,,,,,,,1,,,,,,,,,,,,,,,,,,,,,,,,,,,,,,,,,,,,,,,,,,,,,,69,151975,20,Female,1,2024/02/20_10:00:12,YZ,None,
,,,,,,calibration,0,15,2,583,6,S,0,None,nan,0,1,,,,,,,,,,,,,,,,,,,,,1,,,,,,,,,,,,,,,,,,,,,,,,,,,,,,,,,,,,,,,,,,,,,,69,151975,20,Female,1,2024/02/20_10:00:12,YZ,None,
,,,,,,calibration,0,15,2,583,7,F,1,None,nan,0,1,,,,,,,,,,,,,,,,,,,,,1,,,,,,,,,,,,,,,,,,,,,,,,,,,,,,,,,,,,,,,,,,,,,,69,151975,20,Female,1,2024/02/20_10:00:12,YZ,None,
,,,,,,calibration,0,15,2,583,8,Q,0,None,nan,0,1,,,,,,,,,,,,,,,,,,,,,1,,,,,,,,,,,,,,,,,,,,,,,,,,,,,,,,,,,,,,,,,,,,,,69,151975,20,Female,1,2024/02/20_10:00:12,YZ,None,
,,,,,,calibration,0,15,2,583,9,F,1,None,nan,0,1,,,,,,,,,,,,,,,,,,,,,1,,,,,,,,,,,,,,,,,,,,,,,,,,,,,,,,,,,,,,,,,,,,,,69,151975,20,Female,1,2024/02/20_10:00:12,YZ,None,
,,,,,,calibration,0,15,2,583,10,C,0,None,nan,0,1,,,,,,,,,,,,,,,,,,,,,1,,,,,,,,,,,,,,,,,,,,,,,,,,,,,,,,,,,,,,,,,,,,,,69,151975,20,Female,1,2024/02/20_10:00:12,YZ,None,
,,,,,,calibration,0,15,2,583,11,F,1,None,nan,0,1,,,,,,,,,,,,,,,,,,,,,1,,,,,,,,,,,,,,,,,,,,,,,,,,,,,,,,,,,,,,,,,,,,,,69,151975,20,Female,1,2024/02/20_10:00:12,YZ,None,
,,,,,,calibration,0,15,2,583,12,C,1,None,nan,0,1,,,,,,,,,,,,,,,,,,,,,1,,,,,,,,,,,,,,,,,,,,,,,,,,,,,,,,,,,,,,,,,,,,,,69,151975,20,Female,1,2024/02/20_10:00:12,YZ,None,
,,,,,,calibration,0,15,2,583,13,S,0,None,nan,0,1,,,,,,,,,,,,,,,,,,,,,1,,,,,,,,,,,,,,,,,,,,,,,,,,,,,,,,,,,,,,,,,,,,,,69,151975,20,Female,1,2024/02/20_10:00:12,YZ,None,
,,,,,,calibration,0,15,2,583,14,X,0,None,nan,0,1,,,,,,,,,,,,,,,,,,,,,1,,,,,,,,,,,,,,,,,,,,,,,,,,,,,,,,,,,,,,,,,,,,,,69,151975,20,Female,1,2024/02/20_10:00:12,YZ,None,
,,,,,,calibration,0,15,2,583,15,Q,0,None,nan,0,1,,,,,,,,,,,,,,,,,,,,,1,,,,,,,,,,,,,,,,,,,,,,,,,,,,,,,,,,,,,,,,,,,,,,69,151975,20,Female,1,2024/02/20_10:00:12,YZ,None,
,,,,,,calibration,0,15,2,583,,,,,,,,nan,0.0,nan,nan,1.0,nan,nan,0,0,4,11,15,0,0,4,11,0,,,,1,,,,,,,,,,,,,,,,,,,,,,,,,,,,,,,,,,,,,,,,,,,,,,69,151975,20,Female,1,2024/02/20_10:00:12,YZ,None,
,,,,,,Calibration,0,,2,583,,,,,,,,,,,,,,,,,,,,,,,,,1,,,1,,,,,,,,,,,,,,,,,,,,,,,,,,,,,,,,,,,,,,,,,,,,,,69,151975,20,Female,1,2024/02/20_10:00:12,YZ,None,
,,,,,,calibration,0,1,2,583,1,Q,0,None,nan,0,1,,,,,,,,,,,,,,,,,,,,,1,,,,,,,,,,,,,,,,,,,,,,,,,,,,,,,,,,,,,,,,,,,,,,69,151975,20,Female,1,2024/02/20_10:00:12,YZ,None,
,,,,,,calibration,0,1,2,583,2,V,0,None,nan,0,1,,,,,,,,,,,,,,,,,,,,,1,,,,,,,,,,,,,,,,,,,,,,,,,,,,,,,,,,,,,,,,,,,,,,69,151975,20,Female,1,2024/02/20_10:00:12,YZ,None,
,,,,,,calibration,0,1,2,583,3,Q,1,None,nan,0,1,,,,,,,,,,,,,,,,,,,,,1,,,,,,,,,,,,,,,,,,,,,,,,,,,,,,,,,,,,,,,,,,,,,,69,151975,20,Female,1,2024/02/20_10:00:12,YZ,None,
,,,,,,calibration,0,1,2,583,4,N,0,None,nan,0,1,,,,,,,,,,,,,,,,,,,,,1,,,,,,,,,,,,,,,,,,,,,,,,,,,,,,,,,,,,,,,,,,,,,,69,151975,20,Female,1,2024/02/20_10:00:12,YZ,None,
,,,,,,calibration,0,1,2,583,5,J,0,None,nan,0,1,,,,,,,,,,,,,,,,,,,,,1,,,,,,,,,,,,,,,,,,,,,,,,,,,,,,,,,,,,,,,,,,,,,,69,151975,20,Female,1,2024/02/20_10:00:12,YZ,None,
,,,,,,calibration,0,1,2,583,6,S,0,None,nan,0,1,,,,,,,,,,,,,,,,,,,,,1,,,,,,,,,,,,,,,,,,,,,,,,,,,,,,,,,,,,,,,,,,,,,,69,151975,20,Female,1,2024/02/20_10:00:12,YZ,None,
,,,,,,calibration,0,1,2,583,7,N,0,None,nan,0,1,,,,,,,,,,,,,,,,,,,,,1,,,,,,,,,,,,,,,,,,,,,,,,,,,,,,,,,,,,,,,,,,,,,,69,151975,20,Female,1,2024/02/20_10:00:12,YZ,None,
,,,,,,calibration,0,1,2,583,8,F,0,None,nan,0,1,,,,,,,,,,,,,,,,,,,,,1,,,,,,,,,,,,,,,,,,,,,,,,,,,,,,,,,,,,,,,,,,,,,,69,151975,20,Female,1,2024/02/20_10:00:12,YZ,None,
,,,,,,calibration,0,1,2,583,9,N,1,None,nan,0,1,,,,,,,,,,,,,,,,,,,,,1,,,,,,,,,,,,,,,,,,,,,,,,,,,,,,,,,,,,,,,,,,,,,,69,151975,20,Female,1,2024/02/20_10:00:12,YZ,None,
,,,,,,calibration,0,1,2,583,10,C,0,None,nan,0,1,,,,,,,,,,,,,,,,,,,,,1,,,,,,,,,,,,,,,,,,,,,,,,,,,,,,,,,,,,,,,,,,,,,,69,151975,20,Female,1,2024/02/20_10:00:12,YZ,None,
,,,,,,calibration,0,1,2,583,11,N,1,None,nan,0,1,,,,,,,,,,,,,,,,,,,,,1,,,,,,,,,,,,,,,,,,,,,,,,,,,,,,,,,,,,,,,,,,,,,,69,151975,20,Female,1,2024/02/20_10:00:12,YZ,None,
,,,,,,calibration,0,1,2,583,12,C,1,None,nan,0,1,,,,,,,,,,,,,,,,,,,,,1,,,,,,,,,,,,,,,,,,,,,,,,,,,,,,,,,,,,,,,,,,,,,,69,151975,20,Female,1,2024/02/20_10:00:12,YZ,None,
,,,,,,calibration,0,1,2,583,13,V,0,None,nan,0,1,,,,,,,,,,,,,,,,,,,,,1,,,,,,,,,,,,,,,,,,,,,,,,,,,,,,,,,,,,,,,,,,,,,,69,151975,20,Female,1,2024/02/20_10:00:12,YZ,None,
,,,,,,calibration,0,1,2,583,14,N,0,None,nan,0,1,,,,,,,,,,,,,,,,,,,,,1,,,,,,,,,,,,,,,,,,,,,,,,,,,,,,,,,,,,,,,,,,,,,,69,151975,20,Female,1,2024/02/20_10:00:12,YZ,None,
,,,,,,calibration,0,1,2,583,15,F,0,None,nan,0,1,,,,,,,,,,,,,,,,,,,,,1,,,,,,,,,,,,,,,,,,,,,,,,,,,,,,,,,,,,,,,,,,,,,,69,151975,20,Female,1,2024/02/20_10:00:12,YZ,None,
,,,,,,calibration,0,1,2,583,,,,,,,,nan,0.0,nan,nan,1.0,nan,nan,0,0,4,11,15,0,0,4,11,0,,,,1,,,,,,,,,,,,,,,,,,,,,,,,,,,,,,,,,,,,,,,,,,,,,,69,151975,20,Female,1,2024/02/20_10:00:12,YZ,None,
,,,,,,Calibration,0,,2,583,,,,,,,,,,,,,,,,,,,,,,,,,2,,,1,,,,,,,,,,,,,,,,,,,,,,,,,,,,,,,,,,,,,,,,,,,,,,69,151975,20,Female,1,2024/02/20_10:00:12,YZ,None,
,,,,,,calibration,0,15,2,583,1,N,0,None,nan,0,1,,,,,,,,,,,,,,,,,,,,,1,,,,,,,,,,,,,,,,,,,,,,,,,,,,,,,,,,,,,,,,,,,,,,69,151975,20,Female,1,2024/02/20_10:00:12,YZ,None,
,,,,,,calibration,0,15,2,583,2,S,0,None,nan,0,1,,,,,,,,,,,,,,,,,,,,,1,,,,,,,,,,,,,,,,,,,,,,,,,,,,,,,,,,,,,,,,,,,,,,69,151975,20,Female,1,2024/02/20_10:00:12,YZ,None,
,,,,,,calibration,0,15,2,583,3,C,0,right,1.965798060002271,1,0,,,,,,,,,,,,,,,,,,,,,1,,,,,,,,,,,,,,,,,,,,,,,,,,,,,,,,,,,,,,,,,,,,,,69,151975,20,Female,1,2024/02/20_10:00:12,YZ,None,
,,,,,,calibration,0,15,2,583,4,X,0,right,nan,0,1,,,,,,,,,,,,,,,,,,,,,1,,,,,,,,,,,,,,,,,,,,,,,,,,,,,,,,,,,,,,,,,,,,,,69,151975,20,Female,1,2024/02/20_10:00:12,YZ,None,
,,,,,,calibration,0,15,2,583,5,F,0,right,nan,0,1,,,,,,,,,,,,,,,,,,,,,1,,,,,,,,,,,,,,,,,,,,,,,,,,,,,,,,,,,,,,,,,,,,,,69,151975,20,Female,1,2024/02/20_10:00:12,YZ,None,
,,,,,,calibration,0,15,2,583,6,S,0,right,nan,0,1,,,,,,,,,,,,,,,,,,,,,1,,,,,,,,,,,,,,,,,,,,,,,,,,,,,,,,,,,,,,,,,,,,,,69,151975,20,Female,1,2024/02/20_10:00:12,YZ,None,
,,,,,,calibration,0,15,2,583,7,F,1,right,nan,0,1,,,,,,,,,,,,,,,,,,,,,1,,,,,,,,,,,,,,,,,,,,,,,,,,,,,,,,,,,,,,,,,,,,,,69,151975,20,Female,1,2024/02/20_10:00:12,YZ,None,
,,,,,,calibration,0,15,2,583,8,Q,0,right,nan,0,1,,,,,,,,,,,,,,,,,,,,,1,,,,,,,,,,,,,,,,,,,,,,,,,,,,,,,,,,,,,,,,,,,,,,69,151975,20,Female,1,2024/02/20_10:00:12,YZ,None,
,,,,,,calibration,0,15,2,583,9,F,1,right,nan,0,1,,,,,,,,,,,,,,,,,,,,,1,,,,,,,,,,,,,,,,,,,,,,,,,,,,,,,,,,,,,,,,,,,,,,69,151975,20,Female,1,2024/02/20_10:00:12,YZ,None,
,,,,,,calibration,0,15,2,583,10,C,0,right,nan,0,1,,,,,,,,,,,,,,,,,,,,,1,,,,,,,,,,,,,,,,,,,,,,,,,,,,,,,,,,,,,,,,,,,,,,69,151975,20,Female,1,2024/02/20_10:00:12,YZ,None,
,,,,,,calibration,0,15,2,583,11,F,1,right,nan,0,1,,,,,,,,,,,,,,,,,,,,,1,,,,,,,,,,,,,,,,,,,,,,,,,,,,,,,,,,,,,,,,,,,,,,69,151975,20,Female,1,2024/02/20_10:00:12,YZ,None,
,,,,,,calibration,0,15,2,583,12,C,1,right,nan,0,1,,,,,,,,,,,,,,,,,,,,,1,,,,,,,,,,,,,,,,,,,,,,,,,,,,,,,,,,,,,,,,,,,,,,69,151975,20,Female,1,2024/02/20_10:00:12,YZ,None,
,,,,,,calibration,0,15,2,583,13,S,0,right,nan,0,1,,,,,,,,,,,,,,,,,,,,,1,,,,,,,,,,,,,,,,,,,,,,,,,,,,,,,,,,,,,,,,,,,,,,69,151975,20,Female,1,2024/02/20_10:00:12,YZ,None,
,,,,,,calibration,0,15,2,583,14,X,0,right,nan,0,1,,,,,,,,,,,,,,,,,,,,,1,,,,,,,,,,,,,,,,,,,,,,,,,,,,,,,,,,,,,,,,,,,,,,69,151975,20,Female,1,2024/02/20_10:00:12,YZ,None,
,,,,,,calibration,0,15,2,583,15,Q,0,right,nan,0,1,,,,,,,,,,,,,,,,,,,,,1,,,,,,,,,,,,,,,,,,,,,,,,,,,,,,,,,,,,,,,,,,,,,,69,151975,20,Female,1,2024/02/20_10:00:12,YZ,None,
,,,,,,calibration,0,15,2,583,,,,,,,,0.5,0.0,0.0,1.0,0.9333333333333333,0.06666666666666665,1.965798060002271,0,0,4,10,14,1,1,4,11,0,,,,1,,,,,,,,,,,,,,,,,,,,,,,,,,,,,,,,,,,,,,,,,,,,,,69,151975,20,Female,1,2024/02/20_10:00:12,YZ,None,
,,,,,,Calibration,0,,2,583,,,,,,,,,,,,,,,,,,,,,,,,,3,,,1,,,,,,,,,,,,,,,,,,,,,,,,,,,,,,,,,,,,,,,,,,,,,,69,151975,20,Female,1,2024/02/20_10:00:12,YZ,None,
,,,,,,calibration,0,18,2,679,1,C,0,None,nan,0,1,,,,,,,,,,,,,,,,,,,,,1,,,,,,,,,,,,,,,,,,,,,,,,,,,,,,,,,,,,,,,,,,,,,,69,151975,20,Female,1,2024/02/20_10:00:12,YZ,None,
,,,,,,calibration,0,18,2,679,2,S,0,None,nan,0,1,,,,,,,,,,,,,,,,,,,,,1,,,,,,,,,,,,,,,,,,,,,,,,,,,,,,,,,,,,,,,,,,,,,,69,151975,20,Female,1,2024/02/20_10:00:12,YZ,None,
,,,,,,calibration,0,18,2,679,3,C,1,None,nan,0,1,,,,,,,,,,,,,,,,,,,,,1,,,,,,,,,,,,,,,,,,,,,,,,,,,,,,,,,,,,,,,,,,,,,,69,151975,20,Female,1,2024/02/20_10:00:12,YZ,None,
,,,,,,calibration,0,18,2,679,4,J,0,None,nan,0,1,,,,,,,,,,,,,,,,,,,,,1,,,,,,,,,,,,,,,,,,,,,,,,,,,,,,,,,,,,,,,,,,,,,,69,151975,20,Female,1,2024/02/20_10:00:12,YZ,None,
,,,,,,calibration,0,18,2,679,5,N,0,None,nan,0,1,,,,,,,,,,,,,,,,,,,,,1,,,,,,,,,,,,,,,,,,,,,,,,,,,,,,,,,,,,,,,,,,,,,,69,151975,20,Female,1,2024/02/20_10:00:12,YZ,None,
,,,,,,calibration,0,18,2,679,6,J,1,right,0.7077496810015873,0,0,,,,,,,,,,,,,,,,,,,,,1,,,,,,,,,,,,,,,,,,,,,,,,,,,,,,,,,,,,,,,,,,,,,,69,151975,20,Female,1,2024/02/20_10:00:12,YZ,None,
,,,,,,calibration,0,18,2,679,7,X,0,right,nan,0,1,,,,,,,,,,,,,,,,,,,,,1,,,,,,,,,,,,,,,,,,,,,,,,,,,,,,,,,,,,,,,,,,,,,,69,151975,20,Female,1,2024/02/20_10:00:12,YZ,None,
,,,,,,calibration,0,18,2,679,8,F,0,right,0.0,1,0,,,,,,,,,,,,,,,,,,,,,1,,,,,,,,,,,,,,,,,,,,,,,,,,,,,,,,,,,,,,,,,,,,,,69,151975,20,Female,1,2024/02/20_10:00:12,YZ,None,
,,,,,,calibration,0,18,2,679,9,V,0,right,1.3816500210014055,1,0,,,,,,,,,,,,,,,,,,,,,1,,,,,,,,,,,,,,,,,,,,,,,,,,,,,,,,,,,,,,,,,,,,,,69,151975,20,Female,1,2024/02/20_10:00:12,YZ,None,
,,,,,,calibration,0,18,2,679,10,Q,0,right,1.4712190110003576,1,0,,,,,,,,,,,,,,,,,,,,,1,,,,,,,,,,,,,,,,,,,,,,,,,,,,,,,,,,,,,,,,,,,,,,69,151975,20,Female,1,2024/02/20_10:00:12,YZ,None,
,,,,,,calibration,0,18,2,679,11,V,1,right,nan,0,1,,,,,,,,,,,,,,,,,,,,,1,,,,,,,,,,,,,,,,,,,,,,,,,,,,,,,,,,,,,,,,,,,,,,69,151975,20,Female,1,2024/02/20_10:00:12,YZ,None,
,,,,,,calibration,0,18,2,679,12,F,0,right,0.2927149620009004,1,0,,,,,,,,,,,,,,,,,,,,,1,,,,,,,,,,,,,,,,,,,,,,,,,,,,,,,,,,,,,,,,,,,,,,69,151975,20,Female,1,2024/02/20_10:00:12,YZ,None,
,,,,,,calibration,0,18,2,679,13,J,0,right,nan,0,1,,,,,,,,,,,,,,,,,,,,,1,,,,,,,,,,,,,,,,,,,,,,,,,,,,,,,,,,,,,,,,,,,,,,69,151975,20,Female,1,2024/02/20_10:00:12,YZ,None,
,,,,,,calibration,0,18,2,679,14,F,1,right,nan,0,1,,,,,,,,,,,,,,,,,,,,,1,,,,,,,,,,,,,,,,,,,,,,,,,,,,,,,,,,,,,,,,,,,,,,69,151975,20,Female,1,2024/02/20_10:00:12,YZ,None,
,,,,,,calibration,0,18,2,679,,,,,,,,0.5,0.0,0.0,1.0,0.6428571428571429,0.3571428571428571,0.7706667350008501,0,0,3,6,9,4,4,4,10,0,,,,1,,,,,,,,,,,,,,,,,,,,,,,,,,,,,,,,,,,,,,,,,,,,,,69,151975,20,Female,1,2024/02/20_10:00:12,YZ,None,
,,,,,,Calibration,0,,2,679,,,,,,,,,,,,,,,,,,,,,,,,,4,,,1,,,,,,,,,,,,,,,,,,,,,,,,,,,,,,,,,,,,,,,,,,,,,,69,151975,20,Female,1,2024/02/20_10:00:12,YZ,None,
,,,,,,calibration,0,7,2,788,1,S,0,None,nan,0,1,,,,,,,,,,,,,,,,,,,,,1,,,,,,,,,,,,,,,,,,,,,,,,,,,,,,,,,,,,,,,,,,,,,,69,151975,20,Female,1,2024/02/20_10:00:12,YZ,None,
,,,,,,calibration,0,7,2,788,2,F,0,None,nan,0,1,,,,,,,,,,,,,,,,,,,,,1,,,,,,,,,,,,,,,,,,,,,,,,,,,,,,,,,,,,,,,,,,,,,,69,151975,20,Female,1,2024/02/20_10:00:12,YZ,None,
,,,,,,calibration,0,7,2,788,3,S,1,None,nan,0,1,,,,,,,,,,,,,,,,,,,,,1,,,,,,,,,,,,,,,,,,,,,,,,,,,,,,,,,,,,,,,,,,,,,,69,151975,20,Female,1,2024/02/20_10:00:12,YZ,None,
,,,,,,calibration,0,7,2,788,4,X,0,None,nan,0,1,,,,,,,,,,,,,,,,,,,,,1,,,,,,,,,,,,,,,,,,,,,,,,,,,,,,,,,,,,,,,,,,,,,,69,151975,20,Female,1,2024/02/20_10:00:12,YZ,None,
,,,,,,calibration,0,7,2,788,5,S,1,None,nan,0,1,,,,,,,,,,,,,,,,,,,,,1,,,,,,,,,,,,,,,,,,,,,,,,,,,,,,,,,,,,,,,,,,,,,,69,151975,20,Female,1,2024/02/20_10:00:12,YZ,None,
,,,,,,calibration,0,7,2,788,6,C,0,None,nan,0,1,,,,,,,,,,,,,,,,,,,,,1,,,,,,,,,,,,,,,,,,,,,,,,,,,,,,,,,,,,,,,,,,,,,,69,151975,20,Female,1,2024/02/20_10:00:12,YZ,None,
,,,,,,calibration,0,7,2,788,7,Q,0,None,nan,0,1,,,,,,,,,,,,,,,,,,,,,1,,,,,,,,,,,,,,,,,,,,,,,,,,,,,,,,,,,,,,,,,,,,,,69,151975,20,Female,1,2024/02/20_10:00:12,YZ,None,
,,,,,,calibration,0,7,2,788,8,C,1,None,nan,0,1,,,,,,,,,,,,,,,,,,,,,1,,,,,,,,,,,,,,,,,,,,,,,,,,,,,,,,,,,,,,,,,,,,,,69,151975,20,Female,1,2024/02/20_10:00:12,YZ,None,
,,,,,,calibration,0,7,2,788,9,Q,1,None,nan,0,1,,,,,,,,,,,,,,,,,,,,,1,,,,,,,,,,,,,,,,,,,,,,,,,,,,,,,,,,,,,,,,,,,,,,69,151975,20,Female,1,2024/02/20_10:00:12,YZ,None,
,,,,,,calibration,0,7,2,788,10,X,0,None,nan,0,1,,,,,,,,,,,,,,,,,,,,,1,,,,,,,,,,,,,,,,,,,,,,,,,,,,,,,,,,,,,,,,,,,,,,69,151975,20,Female,1,2024/02/20_10:00:12,YZ,None,
,,,,,,calibration,0,7,2,788,11,J,0,None,nan,0,1,,,,,,,,,,,,,,,,,,,,,1,,,,,,,,,,,,,,,,,,,,,,,,,,,,,,,,,,,,,,,,,,,,,,69,151975,20,Female,1,2024/02/20_10:00:12,YZ,None,
,,,,,,calibration,0,7,2,788,12,Q,0,None,nan,0,1,,,,,,,,,,,,,,,,,,,,,1,,,,,,,,,,,,,,,,,,,,,,,,,,,,,,,,,,,,,,,,,,,,,,69,151975,20,Female,1,2024/02/20_10:00:12,YZ,None,
,,,,,,calibration,0,7,2,788,13,V,0,None,nan,0,1,,,,,,,,,,,,,,,,,,,,,1,,,,,,,,,,,,,,,,,,,,,,,,,,,,,,,,,,,,,,,,,,,,,,69,151975,20,Female,1,2024/02/20_10:00:12,YZ,None,
,,,,,,calibration,0,7,2,788,,,,,,,,nan,0.0,nan,nan,1.0,nan,nan,0,0,4,9,13,0,0,4,9,0,,,,1,,,,,,,,,,,,,,,,,,,,,,,,,,,,,,,,,,,,,,,,,,,,,,69,151975,20,Female,1,2024/02/20_10:00:12,YZ,None,
,,,,,,Calibration,0,,2,788,,,,,,,,,,,,,,,,,,,,,,,,,5,,,1,,,,,,,,,,,,,,,,,,,,,,,,,,,,,,,,,,,,,,,,,,,,,,69,151975,20,Female,1,2024/02/20_10:00:12,YZ,None,
,,,,,,calibration,0,18,2,788,1,F,0,left,0.996672645000217,0,0,,,,,,,,,,,,,,,,,,,,,1,,,,,,,,,,,,,,,,,,,,,,,,,,,,,,,,,,,,,,,,,,,,,,69,151975,20,Female,1,2024/02/20_10:00:12,YZ,None,
,,,,,,calibration,0,18,2,788,2,S,0,right,0.015401093995023984,1,0,,,,,,,,,,,,,,,,,,,,,1,,,,,,,,,,,,,,,,,,,,,,,,,,,,,,,,,,,,,,,,,,,,,,69,151975,20,Female,1,2024/02/20_10:00:12,YZ,None,
,,,,,,calibration,0,18,2,788,3,V,0,left,1.326198768998438,0,0,,,,,,,,,,,,,,,,,,,,,1,,,,,,,,,,,,,,,,,,,,,,,,,,,,,,,,,,,,,,,,,,,,,,69,151975,20,Female,1,2024/02/20_10:00:12,YZ,None,
,,,,,,calibration,0,18,2,788,4,S,1,left,0.40869260799809126,1,0,,,,,,,,,,,,,,,,,,,,,1,,,,,,,,,,,,,,,,,,,,,,,,,,,,,,,,,,,,,,,,,,,,,,69,151975,20,Female,1,2024/02/20_10:00:12,YZ,None,
,,,,,,calibration,0,18,2,788,5,V,1,right,0.9412733659992227,0,0,,,,,,,,,,,,,,,,,,,,,1,,,,,,,,,,,,,,,,,,,,,,,,,,,,,,,,,,,,,,,,,,,,,,69,151975,20,Female,1,2024/02/20_10:00:12,YZ,None,
,,,,,,calibration,0,18,2,788,6,F,0,right,nan,0,1,,,,,,,,,,,,,,,,,,,,,1,,,,,,,,,,,,,,,,,,,,,,,,,,,,,,,,,,,,,,,,,,,,,,69,151975,20,Female,1,2024/02/20_10:00:12,YZ,None,
,,,,,,calibration,0,18,2,788,7,S,0,right,nan,0,1,,,,,,,,,,,,,,,,,,,,,1,,,,,,,,,,,,,,,,,,,,,,,,,,,,,,,,,,,,,,,,,,,,,,69,151975,20,Female,1,2024/02/20_10:00:12,YZ,None,
,,,,,,calibration,0,18,2,788,8,V,0,right,nan,0,1,,,,,,,,,,,,,,,,,,,,,1,,,,,,,,,,,,,,,,,,,,,,,,,,,,,,,,,,,,,,,,,,,,,,69,151975,20,Female,1,2024/02/20_10:00:12,YZ,None,
,,,,,,calibration,0,18,2,788,9,S,1,right,nan,0,1,,,,,,,,,,,,,,,,,,,,,1,,,,,,,,,,,,,,,,,,,,,,,,,,,,,,,,,,,,,,,,,,,,,,69,151975,20,Female,1,2024/02/20_10:00:12,YZ,None,
,,,,,,calibration,0,18,2,788,10,J,0,right,nan,0,1,,,,,,,,,,,,,,,,,,,,,1,,,,,,,,,,,,,,,,,,,,,,,,,,,,,,,,,,,,,,,,,,,,,,69,151975,20,Female,1,2024/02/20_10:00:12,YZ,None,
,,,,,,calibration,0,18,2,788,11,X,0,right,nan,0,1,,,,,,,,,,,,,,,,,,,,,1,,,,,,,,,,,,,,,,,,,,,,,,,,,,,,,,,,,,,,,,,,,,,,69,151975,20,Female,1,2024/02/20_10:00:12,YZ,None,
,,,,,,calibration,0,18,2,788,12,J,1,right,nan,0,1,,,,,,,,,,,,,,,,,,,,,1,,,,,,,,,,,,,,,,,,,,,,,,,,,,,,,,,,,,,,,,,,,,,,69,151975,20,Female,1,2024/02/20_10:00:12,YZ,None,
,,,,,,calibration,0,18,2,788,13,V,0,right,nan,0,1,,,,,,,,,,,,,,,,,,,,,1,,,,,,,,,,,,,,,,,,,,,,,,,,,,,,,,,,,,,,,,,,,,,,69,151975,20,Female,1,2024/02/20_10:00:12,YZ,None,
,,,,,,calibration,0,18,2,788,,,,,,,,0.5347222222222222,0.25,0.2222222222222222,0.3333333333333333,0.6153846153846154,0.16239316239316237,0.7376476963981986,1,2,2,6,8,1,2,4,9,0,,,,1,,,,,,,,,,,,,,,,,,,,,,,,,,,,,,,,,,,,,,,,,,,,,,69,151975,20,Female,1,2024/02/20_10:00:12,YZ,None,
,,,,,,Calibration,0,,2,788,,,,,,,,,,,,,,,,,,,,,,,,,6,,,1,,,,,,,,,,,,,,,,,,,,,,,,,,,,,,,,,,,,,,,,,,,,,,69,151975,20,Female,1,2024/02/20_10:00:12,YZ,None,
,,,,,,calibration,0,15,2,917,1,X,0,right,1.7305545339986566,1,0,,,,,,,,,,,,,,,,,,,,,1,,,,,,,,,,,,,,,,,,,,,,,,,,,,,,,,,,,,,,,,,,,,,,69,151975,20,Female,1,2024/02/20_10:00:12,YZ,None,
,,,,,,calibration,0,15,2,917,2,C,0,left,0.39144365299580386,0,0,,,,,,,,,,,,,,,,,,,,,1,,,,,,,,,,,,,,,,,,,,,,,,,,,,,,,,,,,,,,,,,,,,,,69,151975,20,Female,1,2024/02/20_10:00:12,YZ,None,
,,,,,,calibration,0,15,2,917,3,N,0,left,0.4102395689988043,0,0,,,,,,,,,,,,,,,,,,,,,1,,,,,,,,,,,,,,,,,,,,,,,,,,,,,,,,,,,,,,,,,,,,,,69,151975,20,Female,1,2024/02/20_10:00:12,YZ,None,
,,,,,,calibration,0,15,2,917,4,S,0,right,0.5532459469977766,1,0,,,,,,,,,,,,,,,,,,,,,1,,,,,,,,,,,,,,,,,,,,,,,,,,,,,,,,,,,,,,,,,,,,,,69,151975,20,Female,1,2024/02/20_10:00:12,YZ,None,
,,,,,,calibration,0,15,2,917,5,N,1,right,0.3249826280007255,0,0,,,,,,,,,,,,,,,,,,,,,1,,,,,,,,,,,,,,,,,,,,,,,,,,,,,,,,,,,,,,,,,,,,,,69,151975,20,Female,1,2024/02/20_10:00:12,YZ,None,
,,,,,,calibration,0,15,2,917,6,J,0,right,0.4976334079983644,1,0,,,,,,,,,,,,,,,,,,,,,1,,,,,,,,,,,,,,,,,,,,,,,,,,,,,,,,,,,,,,,,,,,,,,69,151975,20,Female,1,2024/02/20_10:00:12,YZ,None,
,,,,,,calibration,0,15,2,917,7,Q,0,right,0.4506151050009066,1,0,,,,,,,,,,,,,,,,,,,,,1,,,,,,,,,,,,,,,,,,,,,,,,,,,,,,,,,,,,,,,,,,,,,,69,151975,20,Female,1,2024/02/20_10:00:12,YZ,None,
,,,,,,calibration,0,15,2,917,8,J,1,right,0.33651823599939235,0,0,,,,,,,,,,,,,,,,,,,,,1,,,,,,,,,,,,,,,,,,,,,,,,,,,,,,,,,,,,,,,,,,,,,,69,151975,20,Female,1,2024/02/20_10:00:12,YZ,None,
,,,,,,calibration,0,15,2,917,9,Q,1,right,0.28694362500391435,0,0,,,,,,,,,,,,,,,,,,,,,1,,,,,,,,,,,,,,,,,,,,,,,,,,,,,,,,,,,,,,,,,,,,,,69,151975,20,Female,1,2024/02/20_10:00:12,YZ,None,
,,,,,,calibration,0,15,2,917,10,N,0,left,0.27089266999973916,0,0,,,,,,,,,,,,,,,,,,,,,1,,,,,,,,,,,,,,,,,,,,,,,,,,,,,,,,,,,,,,,,,,,,,,69,151975,20,Female,1,2024/02/20_10:00:12,YZ,None,
,,,,,,calibration,0,15,2,917,11,C,0,left,0.302995946003648,0,0,,,,,,,,,,,,,,,,,,,,,1,,,,,,,,,,,,,,,,,,,,,,,,,,,,,,,,,,,,,,,,,,,,,,69,151975,20,Female,1,2024/02/20_10:00:12,YZ,None,
,,,,,,calibration,0,15,2,917,12,S,0,left,0.34386551499483176,0,0,,,,,,,,,,,,,,,,,,,,,1,,,,,,,,,,,,,,,,,,,,,,,,,,,,,,,,,,,,,,,,,,,,,,69,151975,20,Female,1,2024/02/20_10:00:12,YZ,None,
,,,,,,calibration,0,15,2,917,,,,,,,,0.1111111111111111,0.0,0.5555555555555556,0.4444444444444444,0.0,0.4444444444444444,0.4916609029993803,0,5,0,0,0,4,4,3,9,0,,,,1,,,,,,,,,,,,,,,,,,,,,,,,,,,,,,,,,,,,,,,,,,,,,,69,151975,20,Female,1,2024/02/20_10:00:12,YZ,None,
,,,,,,Calibration,0,,2,917,,,,,,,,,,,,,,,,,,,,,,,,,7,,,1,,,,,,,,,,,,,,,,,,,,,,,,,,,,,,,,,,,,,,,,,,,,,,69,151975,20,Female,1,2024/02/20_10:00:12,YZ,None,
,,,,,,calibration,0,30,2,1068,1,J,0,right,0.29362447000312386,1,0,,,,,,,,,,,,,,,,,,,,,1,,,,,,,,,,,,,,,,,,,,,,,,,,,,,,,,,,,,,,,,,,,,,,69,151975,20,Female,1,2024/02/20_10:00:12,YZ,None,
,,,,,,calibration,0,30,2,1068,2,Q,0,right,0.32732303000375396,1,0,,,,,,,,,,,,,,,,,,,,,1,,,,,,,,,,,,,,,,,,,,,,,,,,,,,,,,,,,,,,,,,,,,,,69,151975,20,Female,1,2024/02/20_10:00:12,YZ,None,
,,,,,,calibration,0,30,2,1068,3,V,0,right,0.21244482299516676,1,0,,,,,,,,,,,,,,,,,,,,,1,,,,,,,,,,,,,,,,,,,,,,,,,,,,,,,,,,,,,,,,,,,,,,69,151975,20,Female,1,2024/02/20_10:00:12,YZ,None,
,,,,,,calibration,0,30,2,1068,4,X,0,right,0.276409842997964,1,0,,,,,,,,,,,,,,,,,,,,,1,,,,,,,,,,,,,,,,,,,,,,,,,,,,,,,,,,,,,,,,,,,,,,69,151975,20,Female,1,2024/02/20_10:00:12,YZ,None,
,,,,,,calibration,0,30,2,1068,5,S,0,left,0.22851314500439912,0,0,,,,,,,,,,,,,,,,,,,,,1,,,,,,,,,,,,,,,,,,,,,,,,,,,,,,,,,,,,,,,,,,,,,,69,151975,20,Female,1,2024/02/20_10:00:12,YZ,None,
,,,,,,calibration,0,30,2,1068,6,X,1,right,0.26852252899698215,0,0,,,,,,,,,,,,,,,,,,,,,1,,,,,,,,,,,,,,,,,,,,,,,,,,,,,,,,,,,,,,,,,,,,,,69,151975,20,Female,1,2024/02/20_10:00:12,YZ,None,
,,,,,,calibration,0,30,2,1068,7,S,1,right,0.3028001159982523,0,0,,,,,,,,,,,,,,,,,,,,,1,,,,,,,,,,,,,,,,,,,,,,,,,,,,,,,,,,,,,,,,,,,,,,69,151975,20,Female,1,2024/02/20_10:00:12,YZ,None,
,,,,,,calibration,0,30,2,1068,8,N,0,right,0.3824662929982878,1,0,,,,,,,,,,,,,,,,,,,,,1,,,,,,,,,,,,,,,,,,,,,,,,,,,,,,,,,,,,,,,,,,,,,,69,151975,20,Female,1,2024/02/20_10:00:12,YZ,None,
,,,,,,calibration,0,30,2,1068,9,S,1,left,0.24418844699539477,1,0,,,,,,,,,,,,,,,,,,,,,1,,,,,,,,,,,,,,,,,,,,,,,,,,,,,,,,,,,,,,,,,,,,,,69,151975,20,Female,1,2024/02/20_10:00:12,YZ,None,
,,,,,,calibration,0,30,2,1068,10,F,0,left,0.3783424369976274,0,0,,,,,,,,,,,,,,,,,,,,,1,,,,,,,,,,,,,,,,,,,,,,,,,,,,,,,,,,,,,,,,,,,,,,69,151975,20,Female,1,2024/02/20_10:00:12,YZ,None,
,,,,,,calibration,0,30,2,1068,11,C,0,left,0.20706381999480072,0,0,,,,,,,,,,,,,,,,,,,,,1,,,,,,,,,,,,,,,,,,,,,,,,,,,,,,,,,,,,,,,,,,,,,,69,151975,20,Female,1,2024/02/20_10:00:12,YZ,None,
,,,,,,calibration,0,30,2,1068,,,,,,,,0.017361111111111105,0.3333333333333333,0.375,0.625,0.0,0.625,0.2837908139077957,1,3,0,0,0,5,6,3,8,0,,,,1,,,,,,,,,,,,,,,,,,,,,,,,,,,,,,,,,,,,,,,,,,,,,,69,151975,20,Female,1,2024/02/20_10:00:12,YZ,None,
,,,,,,Calibration,0,,2,1068,,,,,,,,,,,,,,,,,,,,,,,,,8,,,1,,,,,,,,,,,,,,,,,,,,,,,,,,,,,,,,,,,,,,,,,,,,,,69,151975,20,Female,1,2024/02/20_10:00:12,YZ,None,
,,,,,,calibration,0,13,2,1250,1,V,0,right,0.7857197029952658,1,0,,,,,,,,,,,,,,,,,,,,,1,,,,,,,,,,,,,,,,,,,,,,,,,,,,,,,,,,,,,,,,,,,,,,69,151975,20,Female,1,2024/02/20_10:00:12,YZ,None,
,,,,,,calibration,0,13,2,1250,2,N,0,right,0.2990814889999456,1,0,,,,,,,,,,,,,,,,,,,,,1,,,,,,,,,,,,,,,,,,,,,,,,,,,,,,,,,,,,,,,,,,,,,,69,151975,20,Female,1,2024/02/20_10:00:12,YZ,None,
,,,,,,calibration,0,13,2,1250,3,V,1,right,0.368269564001821,0,0,,,,,,,,,,,,,,,,,,,,,1,,,,,,,,,,,,,,,,,,,,,,,,,,,,,,,,,,,,,,,,,,,,,,69,151975,20,Female,1,2024/02/20_10:00:12,YZ,None,
,,,,,,calibration,0,13,2,1250,4,X,0,left,0.2559626930014929,0,0,,,,,,,,,,,,,,,,,,,,,1,,,,,,,,,,,,,,,,,,,,,,,,,,,,,,,,,,,,,,,,,,,,,,69,151975,20,Female,1,2024/02/20_10:00:12,YZ,None,
,,,,,,calibration,0,13,2,1250,5,Q,0,right,0.2633736029965803,1,0,,,,,,,,,,,,,,,,,,,,,1,,,,,,,,,,,,,,,,,,,,,,,,,,,,,,,,,,,,,,,,,,,,,,69,151975,20,Female,1,2024/02/20_10:00:12,YZ,None,
,,,,,,calibration,0,13,2,1250,6,J,0,right,0.26660815800278215,1,0,,,,,,,,,,,,,,,,,,,,,1,,,,,,,,,,,,,,,,,,,,,,,,,,,,,,,,,,,,,,,,,,,,,,69,151975,20,Female,1,2024/02/20_10:00:12,YZ,None,
,,,,,,calibration,0,13,2,1250,7,S,0,left,0.2000274910024018,0,0,,,,,,,,,,,,,,,,,,,,,1,,,,,,,,,,,,,,,,,,,,,,,,,,,,,,,,,,,,,,,,,,,,,,69,151975,20,Female,1,2024/02/20_10:00:12,YZ,None,
,,,,,,calibration,0,13,2,1250,8,J,1,left,0.30024330399464816,1,0,,,,,,,,,,,,,,,,,,,,,1,,,,,,,,,,,,,,,,,,,,,,,,,,,,,,,,,,,,,,,,,,,,,,69,151975,20,Female,1,2024/02/20_10:00:12,YZ,None,
,,,,,,calibration,0,13,2,1250,9,V,0,right,0.1753547560001607,1,0,,,,,,,,,,,,,,,,,,,,,1,,,,,,,,,,,,,,,,,,,,,,,,,,,,,,,,,,,,,,,,,,,,,,69,151975,20,Female,1,2024/02/20_10:00:12,YZ,None,
,,,,,,calibration,0,13,2,1250,10,J,1,right,0.24732503900304437,0,0,,,,,,,,,,,,,,,,,,,,,1,,,,,,,,,,,,,,,,,,,,,,,,,,,,,,,,,,,,,,,,,,,,,,69,151975,20,Female,1,2024/02/20_10:00:12,YZ,None,
,,,,,,calibration,0,13,2,1250,,,,,,,,0.5476190476190476,0.3333333333333333,0.2857142857142857,0.7142857142857143,0.0,0.7142857142857143,0.31619657999981426,1,2,0,0,0,5,6,3,7,0,,,,1,,,,,,,,,,,,,,,,,,,,,,,,,,,,,,,,,,,,,,,,,,,,,,69,151975,20,Female,1,2024/02/20_10:00:12,YZ,None,
,,,,,,Calibration,0,,2,1250,,,,,,,,,,,,,,,,,,,,,,,,,9,,,1,,,,,,,,,,,,,,,,,,,,,,,,,,,,,,,,,,,,,,,,,,,,,,69,151975,20,Female,1,2024/02/20_10:00:12,YZ,None,
,,,,,,calibration,0,15,2,1472,1,Q,0,None,nan,0,1,,,,,,,,,,,,,,,,,,,,,1,,,,,,,,,,,,,,,,,,,,,,,,,,,,,,,,,,,,,,,,,,,,,,69,151975,20,Female,1,2024/02/20_10:00:12,YZ,None,
,,,,,,calibration,0,15,2,1472,2,Q,0,None,nan,0,1,,,,,,,,,,,,,,,,,,,,,1,,,,,,,,,,,,,,,,,,,,,,,,,,,,,,,,,,,,,,,,,,,,,,69,151975,20,Female,1,2024/02/20_10:00:12,YZ,None,
,,,,,,calibration,0,15,2,1472,3,Q,1,right,0.0,0,0,,,,,,,,,,,,,,,,,,,,,1,,,,,,,,,,,,,,,,,,,,,,,,,,,,,,,,,,,,,,,,,,,,,,69,151975,20,Female,1,2024/02/20_10:00:12,YZ,None,
,,,,,,calibration,0,15,2,1472,4,Q,1,right,0.14388294400123414,0,0,,,,,,,,,,,,,,,,,,,,,1,,,,,,,,,,,,,,,,,,,,,,,,,,,,,,,,,,,,,,,,,,,,,,69,151975,20,Female,1,2024/02/20_10:00:12,YZ,None,
,,,,,,calibration,0,15,2,1472,5,X,0,right,0.16015605699794833,1,0,,,,,,,,,,,,,,,,,,,,,1,,,,,,,,,,,,,,,,,,,,,,,,,,,,,,,,,,,,,,,,,,,,,,69,151975,20,Female,1,2024/02/20_10:00:12,YZ,None,
,,,,,,calibration,0,15,2,1472,6,J,0,left,0.22152340700267814,0,0,,,,,,,,,,,,,,,,,,,,,1,,,,,,,,,,,,,,,,,,,,,,,,,,,,,,,,,,,,,,,,,,,,,,69,151975,20,Female,1,2024/02/20_10:00:12,YZ,None,
,,,,,,calibration,0,15,2,1472,7,S,0,left,0.1672391210013302,0,0,,,,,,,,,,,,,,,,,,,,,1,,,,,,,,,,,,,,,,,,,,,,,,,,,,,,,,,,,,,,,,,,,,,,69,151975,20,Female,1,2024/02/20_10:00:12,YZ,None,
,,,,,,calibration,0,15,2,1472,8,N,0,left,0.10496819500258425,0,0,,,,,,,,,,,,,,,,,,,,,1,,,,,,,,,,,,,,,,,,,,,,,,,,,,,,,,,,,,,,,,,,,,,,69,151975,20,Female,1,2024/02/20_10:00:12,YZ,None,
,,,,,,calibration,0,15,2,1472,9,S,1,right,0.09650452800269704,0,0,,,,,,,,,,,,,,,,,,,,,1,,,,,,,,,,,,,,,,,,,,,,,,,,,,,,,,,,,,,,,,,,,,,,69,151975,20,Female,1,2024/02/20_10:00:12,YZ,None,
,,,,,,calibration,0,15,2,1472,,,,,,,,0.125,0.0,0.5,0.25,0.2222222222222222,0.2777777777777778,0.12775346457263886,0,3,0,2,2,1,1,3,6,0,,,,1,,,,,,,,,,,,,,,,,,,,,,,,,,,,,,,,,,,,,,,,,,,,,,69,151975,20,Female,1,2024/02/20_10:00:12,YZ,None,
,,,,,,Calibration,0,,2,1472,,,,,,,,,,,,,,,,,,,,,,,,,10,,,1,,,,,,,,,,,,,,,,,,,,,,,,,,,,,,,,,,,,,,,,,,,,,,69,151975,20,Female,1,2024/02/20_10:00:12,YZ,None,
,,,,,,calibration,0,3,2,1750,1,N,0,left,0.3266168570044101,0,0,,,,,,,,,,,,,,,,,,,,,1,,,,,,,,,,,,,,,,,,,,,,,,,,,,,,,,,,,,,,,,,,,,,,69,151975,20,Female,1,2024/02/20_10:00:12,YZ,None,
,,,,,,calibration,0,3,2,1750,2,C,0,left,0.11193939499935368,0,0,,,,,,,,,,,,,,,,,,,,,1,,,,,,,,,,,,,,,,,,,,,,,,,,,,,,,,,,,,,,,,,,,,,,69,151975,20,Female,1,2024/02/20_10:00:12,YZ,None,
,,,,,,calibration,0,3,2,1750,3,V,0,right,0.10016239599644905,1,0,,,,,,,,,,,,,,,,,,,,,1,,,,,,,,,,,,,,,,,,,,,,,,,,,,,,,,,,,,,,,,,,,,,,69,151975,20,Female,1,2024/02/20_10:00:12,YZ,None,
,,,,,,calibration,0,3,2,1750,4,F,0,right,0.2969613599998411,1,0,,,,,,,,,,,,,,,,,,,,,1,,,,,,,,,,,,,,,,,,,,,,,,,,,,,,,,,,,,,,,,,,,,,,69,151975,20,Female,1,2024/02/20_10:00:12,YZ,None,
,,,,,,calibration,0,3,2,1750,5,V,1,right,0.16087644700019155,0,0,,,,,,,,,,,,,,,,,,,,,1,,,,,,,,,,,,,,,,,,,,,,,,,,,,,,,,,,,,,,,,,,,,,,69,151975,20,Female,1,2024/02/20_10:00:12,YZ,None,
,,,,,,calibration,0,3,2,1750,6,F,1,right,0.11610148200270487,0,0,,,,,,,,,,,,,,,,,,,,,1,,,,,,,,,,,,,,,,,,,,,,,,,,,,,,,,,,,,,,,,,,,,,,69,151975,20,Female,1,2024/02/20_10:00:12,YZ,None,
,,,,,,calibration,0,3,2,1750,7,J,0,left,0.1202497129997937,0,0,,,,,,,,,,,,,,,,,,,,,1,,,,,,,,,,,,,,,,,,,,,,,,,,,,,,,,,,,,,,,,,,,,,,69,151975,20,Female,1,2024/02/20_10:00:12,YZ,None,
,,,,,,calibration,0,3,2,1750,8,N,0,left,0.09019071600050665,0,0,,,,,,,,,,,,,,,,,,,,,1,,,,,,,,,,,,,,,,,,,,,,,,,,,,,,,,,,,,,,,,,,,,,,69,151975,20,Female,1,2024/02/20_10:00:12,YZ,None,
,,,,,,calibration,0,3,2,1750,,,,,,,,0.08333333333333334,0.0,0.6666666666666666,0.3333333333333333,0.0,0.33333333333333337,0.16538729575040634,0,4,0,0,0,2,2,2,6,0,,,,1,,,,,,,,,,,,,,,,,,,,,,,,,,,,,,,,,,,,,,,,,,,,,,69,151975,20,Female,1,2024/02/20_10:00:12,YZ,None,
,,,,,,Calibration,0,,2,1750,,,,,,,,,,,,,,,,,,,,,,,,,11,,,1,,,,,,,,,,,,,,,,,,,,,,,,,,,,,,,,,,,,,,,,,,,,,,69,151975,20,Female,1,2024/02/20_10:00:12,YZ,None,
,,,,,,calibration,0,21,2,2107,1,Q,0,left,0.40703020399814704,0,0,,,,,,,,,,,,,,,,,,,,,1,,,,,,,,,,,,,,,,,,,,,,,,,,,,,,,,,,,,,,,,,,,,,,69,151975,20,Female,1,2024/02/20_10:00:12,YZ,None,
,,,,,,calibration,0,21,2,2107,2,S,0,left,0.3214689860033104,0,0,,,,,,,,,,,,,,,,,,,,,1,,,,,,,,,,,,,,,,,,,,,,,,,,,,,,,,,,,,,,,,,,,,,,69,151975,20,Female,1,2024/02/20_10:00:12,YZ,None,
,,,,,,calibration,0,21,2,2107,3,Q,1,left,0.20018271400476806,1,0,,,,,,,,,,,,,,,,,,,,,1,,,,,,,,,,,,,,,,,,,,,,,,,,,,,,,,,,,,,,,,,,,,,,69,151975,20,Female,1,2024/02/20_10:00:12,YZ,None,
,,,,,,calibration,0,21,2,2107,4,J,0,right,0.22438409899768885,1,0,,,,,,,,,,,,,,,,,,,,,1,,,,,,,,,,,,,,,,,,,,,,,,,,,,,,,,,,,,,,,,,,,,,,69,151975,20,Female,1,2024/02/20_10:00:12,YZ,None,
,,,,,,calibration,0,21,2,2107,5,Q,1,right,0.07942216700030258,0,0,,,,,,,,,,,,,,,,,,,,,1,,,,,,,,,,,,,,,,,,,,,,,,,,,,,,,,,,,,,,,,,,,,,,69,151975,20,Female,1,2024/02/20_10:00:12,YZ,None,
,,,,,,calibration,0,21,2,2107,6,N,0,right,0.10548480499710422,1,0,,,,,,,,,,,,,,,,,,,,,1,,,,,,,,,,,,,,,,,,,,,,,,,,,,,,,,,,,,,,,,,,,,,,69,151975,20,Female,1,2024/02/20_10:00:12,YZ,None,
,,,,,,calibration,0,21,2,2107,7,J,0,right,0.04821765999804484,1,0,,,,,,,,,,,,,,,,,,,,,1,,,,,,,,,,,,,,,,,,,,,,,,,,,,,,,,,,,,,,,,,,,,,,69,151975,20,Female,1,2024/02/20_10:00:12,YZ,None,
,,,,,,calibration,0,21,2,2107,,,,,,,,0.575,0.5,0.4,0.6,0.0,0.6,0.198027233571338,1,2,0,0,0,3,4,2,5,0,,,,1,,,,,,,,,,,,,,,,,,,,,,,,,,,,,,,,,,,,,,,,,,,,,,69,151975,20,Female,1,2024/02/20_10:00:12,YZ,None,
,,,,,,Calibration,0,,2,2107,,,,,,,,,,,,,,,,,,,,,,,,,12,,,1,,,,,,,,,,,,,,,,,,,,,,,,,,,,,,,,,,,,,,,,,,,,,,69,151975,20,Female,1,2024/02/20_10:00:12,YZ,None,
,,,,,,calibration,0,16,2,2583,1,F,0,left,0.3216387020002003,0,0,,,,,,,,,,,,,,,,,,,,,1,,,,,,,,,,,,,,,,,,,,,,,,,,,,,,,,,,,,,,,,,,,,,,69,151975,20,Female,1,2024/02/20_10:00:12,YZ,None,
,,,,,,calibration,0,16,2,2583,2,F,0,left,0.11127986299834447,0,0,,,,,,,,,,,,,,,,,,,,,1,,,,,,,,,,,,,,,,,,,,,,,,,,,,,,,,,,,,,,,,,,,,,,69,151975,20,Female,1,2024/02/20_10:00:12,YZ,None,
,,,,,,calibration,0,16,2,2583,3,Q,0,right,0.11640303199965274,1,0,,,,,,,,,,,,,,,,,,,,,1,,,,,,,,,,,,,,,,,,,,,,,,,,,,,,,,,,,,,,,,,,,,,,69,151975,20,Female,1,2024/02/20_10:00:12,YZ,None,
,,,,,,calibration,0,16,2,2583,4,F,1,right,0.031250107000232674,0,0,,,,,,,,,,,,,,,,,,,,,1,,,,,,,,,,,,,,,,,,,,,,,,,,,,,,,,,,,,,,,,,,,,,,69,151975,20,Female,1,2024/02/20_10:00:12,YZ,None,
,,,,,,calibration,0,16,2,2583,5,S,0,right,0.11631310899974778,1,0,,,,,,,,,,,,,,,,,,,,,1,,,,,,,,,,,,,,,,,,,,,,,,,,,,,,,,,,,,,,,,,,,,,,69,151975,20,Female,1,2024/02/20_10:00:12,YZ,None,
,,,,,,calibration,0,16,2,2583,6,F,1,right,0.07177899200178217,0,0,,,,,,,,,,,,,,,,,,,,,1,,,,,,,,,,,,,,,,,,,,,,,,,,,,,,,,,,,,,,,,,,,,,,69,151975,20,Female,1,2024/02/20_10:00:12,YZ,None,
,,,,,,calibration,0,16,2,2583,,,,,,,,0.125,0.0,0.5,0.5,0.0,0.5,0.12811063416666002,0,2,0,0,0,2,2,2,4,0,,,,1,,,,,,,,,,,,,,,,,,,,,,,,,,,,,,,,,,,,,,,,,,,,,,69,151975,20,Female,1,2024/02/20_10:00:12,YZ,None,
,,,,,,Calibration,0,,2,2583,,,,,,,,,,,,,,,,,,,,,,,,,13,,,1,,,,,,,,,,,,,,,,,,,,,,,,,,,,,,,,,,,,,,,,,,,,,,69,151975,20,Female,1,2024/02/20_10:00:12,YZ,None,
,,,,,,calibration,0,35,2,2583,1,J,0,left,0.4103722250001738,0,0,,,,,,,,,,,,,,,,,,,,,1,,,,,,,,,,,,,,,,,,,,,,,,,,,,,,,,,,,,,,,,,,,,,,69,151975,20,Female,1,2024/02/20_10:00:12,YZ,None,
,,,,,,calibration,0,35,2,2583,2,J,0,left,0.22035020899784286,0,0,,,,,,,,,,,,,,,,,,,,,1,,,,,,,,,,,,,,,,,,,,,,,,,,,,,,,,,,,,,,,,,,,,,,69,151975,20,Female,1,2024/02/20_10:00:12,YZ,None,
,,,,,,calibration,0,35,2,2583,3,V,0,left,0.22305950800364371,0,0,,,,,,,,,,,,,,,,,,,,,1,,,,,,,,,,,,,,,,,,,,,,,,,,,,,,,,,,,,,,,,,,,,,,69,151975,20,Female,1,2024/02/20_10:00:12,YZ,None,
,,,,,,calibration,0,35,2,2583,4,J,1,left,0.20799335399351548,1,0,,,,,,,,,,,,,,,,,,,,,1,,,,,,,,,,,,,,,,,,,,,,,,,,,,,,,,,,,,,,,,,,,,,,69,151975,20,Female,1,2024/02/20_10:00:12,YZ,None,
,,,,,,calibration,0,35,2,2583,5,V,1,right,0.10565051800222136,0,0,,,,,,,,,,,,,,,,,,,,,1,,,,,,,,,,,,,,,,,,,,,,,,,,,,,,,,,,,,,,,,,,,,,,69,151975,20,Female,1,2024/02/20_10:00:12,YZ,None,
,,,,,,calibration,0,35,2,2583,6,Q,0,right,0.28819549799663946,1,0,,,,,,,,,,,,,,,,,,,,,1,,,,,,,,,,,,,,,,,,,,,,,,,,,,,,,,,,,,,,,,,,,,,,69,151975,20,Female,1,2024/02/20_10:00:12,YZ,None,
,,,,,,calibration,0,35,2,2583,,,,,,,,0.0625,0.5,0.75,0.25,0.0,0.25,0.2426035519990061,1,3,0,0,0,1,2,2,4,0,,,,1,,,,,,,,,,,,,,,,,,,,,,,,,,,,,,,,,,,,,,,,,,,,,,69,151975,20,Female,1,2024/02/20_10:00:12,YZ,None,
,,,,,,Calibration,0,,2,2583,,,,,,,,,,,,,,,,,,,,,,,,,14,,,1,,,,,,,,,,,,,,,,,,,,,,,,,,,,,,,,,,,,,,,,,,,,,,69,151975,20,Female,1,2024/02/20_10:00:12,YZ,None,
,,,,,,calibration,0,35,2,2583,1,J,0,right,0.30903214800491696,1,0,,,,,,,,,,,,,,,,,,,,,1,,,,,,,,,,,,,,,,,,,,,,,,,,,,,,,,,,,,,,,,,,,,,,69,151975,20,Female,1,2024/02/20_10:00:12,YZ,None,
,,,,,,calibration,0,35,2,2583,2,J,0,right,0.16732344099727925,1,0,,,,,,,,,,,,,,,,,,,,,1,,,,,,,,,,,,,,,,,,,,,,,,,,,,,,,,,,,,,,,,,,,,,,69,151975,20,Female,1,2024/02/20_10:00:12,YZ,None,
,,,,,,calibration,0,35,2,2583,3,V,0,right,0.0880401320027886,1,0,,,,,,,,,,,,,,,,,,,,,1,,,,,,,,,,,,,,,,,,,,,,,,,,,,,,,,,,,,,,,,,,,,,,69,151975,20,Female,1,2024/02/20_10:00:12,YZ,None,
,,,,,,calibration,0,35,2,2583,4,J,1,left,0.04856470099912258,1,0,,,,,,,,,,,,,,,,,,,,,1,,,,,,,,,,,,,,,,,,,,,,,,,,,,,,,,,,,,,,,,,,,,,,69,151975,20,Female,1,2024/02/20_10:00:12,YZ,None,
,,,,,,calibration,0,35,2,2583,5,V,1,left,0.04932848500175169,1,0,,,,,,,,,,,,,,,,,,,,,1,,,,,,,,,,,,,,,,,,,,,,,,,,,,,,,,,,,,,,,,,,,,,,69,151975,20,Female,1,2024/02/20_10:00:12,YZ,None,
,,,,,,calibration,0,35,2,2583,6,Q,0,left,0.1195960830009426,0,0,,,,,,,,,,,,,,,,,,,,,1,,,,,,,,,,,,,,,,,,,,,,,,,,,,,,,,,,,,,,,,,,,,,,69,151975,20,Female,1,2024/02/20_10:00:12,YZ,None,
,,,,,,calibration,0,35,2,2583,,,,,,,,0.9375,1.0,0.25,0.75,0.0,0.75,0.1303141650011336,2,1,0,0,0,3,5,2,4,0,,,,1,,,,,,,,,,,,,,,,,,,,,,,,,,,,,,,,,,,,,,,,,,,,,,69,151975,20,Female,1,2024/02/20_10:00:12,YZ,None,
,,,,,,Calibration,0,,2,2583,,,,,,,,,,,,,,,,,,,,,,,,,15,,,1,,,,,,,,,,,,,,,,,,,,,,,,,,,,,,,,,,,,,,,,,,,,,,69,151975,20,Female,1,2024/02/20_10:00:12,YZ,None,
,,,,,,CALIBRATION,0,,,,,,,,,,,,,,,,,,,,,,,,,,,,15,0.9375,2583,1,,,,,,,,,,,,,,,,,,,,,,,,,,,,,,,,,,,,,,,,,,,,,,69,151975,20,Female,1,2024/02/20_10:00:12,YZ,None,
1,./instructions/inst_prac_1/Slide24.png,right,20.62501995400089,507.394174189998,528.0191941439989,,,,,,,,,,,,,,,,,,,,,,,,,,,,,,,,,1,,,,,,,,,,,,,,,,,,,,,,,,,,,,,,,,,,,,,,,,,,,,,,69,151975,20,Female,1,2024/02/20_10:00:12,YZ,None,
2,./instructions/inst_prac_1/Slide25.png,right,4.545421543996781,528.049600735998,532.5950222799947,,,,,,,,,,,,,,,,,,,,,,,,,,,,,,,,,1,,,,,,,,,,,,,,,,,,,,,,,,,,,,,,,,,,,,,,,,,,,,,,69,151975,20,Female,1,2024/02/20_10:00:12,YZ,None,
3,./instructions/inst_prac_1/Slide26.png,right,1.308621903997846,532.6225136819994,533.9311355859973,,,,,,,,,,,,,,,,,,,,,,,,,,,,,,,,,1,,,,,,,,,,,,,,,,,,,,,,,,,,,,,,,,,,,,,,,,,,,,,,69,151975,20,Female,1,2024/02/20_10:00:12,YZ,None,
4,./instructions/inst_prac_1/Slide27.png,right,2.6137753060029354,533.9573805689943,536.5711558749972,,,,,,,,,,,,,,,,,,,,,,,,,,,,,,,,,1,,,,,,,,,,,,,,,,,,,,,,,,,,,,,,,,,,,,,,,,,,,,,,69,151975,20,Female,1,2024/02/20_10:00:12,YZ,None,
3,./instructions/inst_prac_1/Slide28.png,left,1.8671993960015243,536.5999772239957,538.4671766199972,,,,,,,,,,,,,,,,,,,,,,,,,,,,,,,,,1,,,,,,,,,,,,,,,,,,,,,,,,,,,,,,,,,,,,,,,,,,,,,,69,151975,20,Female,1,2024/02/20_10:00:12,YZ,None,
4,./instructions/inst_prac_1/Slide27.png,right,0.7890324510008213,538.4940807069943,539.2831131579951,,,,,,,,,,,,,,,,,,,,,,,,,,,,,,,,,1,,,,,,,,,,,,,,,,,,,,,,,,,,,,,,,,,,,,,,,,,,,,,,69,151975,20,Female,1,2024/02/20_10:00:12,YZ,None,
5,./instructions/inst_prac_1/Slide28.png,right,0.4845274680046714,539.3104542519941,539.7949817199988,,,,,,,,,,,,,,,,,,,,,,,,,,,,,,,,,1,,,,,,,,,,,,,,,,,,,,,,,,,,,,,,,,,,,,,,,,,,,,,,69,151975,20,Female,1,2024/02/20_10:00:12,YZ,None,
6,./instructions/inst_prac_1/Slide29.png,right,5.331132737002918,539.824010626995,545.1551433639979,,,,,,,,,,,,,,,,,,,,,,,,,,,,,,,,,1,,,,,,,,,,,,,,,,,,,,,,,,,,,,,,,,,,,,,,,,,,,,,,69,151975,20,Female,1,2024/02/20_10:00:12,YZ,None,
7,./instructions/inst_prac_1/Slide30.png,right,9.604213539001648,545.1828901349945,554.7871036739962,,,,,,,,,,,,,,,,,,,,,,,,,,,,,,,,,1,,,,,,,,,,,,,,,,,,,,,,,,,,,,,,,,,,,,,,,,,,,,,,69,151975,20,Female,1,2024/02/20_10:00:12,YZ,None,
,,,,,,practice,0,16,1,1250,1,V,0,right,2.1308614869994926,1,0,,,,,,,,,,,,,,,,,,,,,1,,,,,,,,,,,,,,,,,,,,,,,,,,,,,,,,,,,,,,,,,,,,,,69,151975,20,Female,1,2024/02/20_10:00:12,YZ,None,
,,,,,,practice,0,16,1,1250,2,X,0,right,2.7315569700003834,1,0,,,,,,,,,,,,,,,,,,,,,1,,,,,,,,,,,,,,,,,,,,,,,,,,,,,,,,,,,,,,,,,,,,,,69,151975,20,Female,1,2024/02/20_10:00:12,YZ,None,
,,,,,,practice,0,16,1,1250,3,N,0,right,1.5557873930010828,1,0,,,,,,,,,,,,,,,,,,,,,1,,,,,,,,,,,,,,,,,,,,,,,,,,,,,,,,,,,,,,,,,,,,,,69,151975,20,Female,1,2024/02/20_10:00:12,YZ,None,
,,,,,,practice,0,16,1,1250,4,C,0,left,1.2131477829971118,0,0,,,,,,,,,,,,,,,,,,,,,1,,,,,,,,,,,,,,,,,,,,,,,,,,,,,,,,,,,,,,,,,,,,,,69,151975,20,Female,1,2024/02/20_10:00:12,YZ,None,
,,,,,,practice,0,16,1,1250,5,C,1,left,0.6585196419982822,1,0,,,,,,,,,,,,,,,,,,,,,1,,,,,,,,,,,,,,,,,,,,,,,,,,,,,,,,,,,,,,,,,,,,,,69,151975,20,Female,1,2024/02/20_10:00:12,YZ,None,
,,,,,,practice,0,16,1,1250,6,V,0,right,1.070370677000028,1,0,,,,,,,,,,,,,,,,,,,,,1,,,,,,,,,,,,,,,,,,,,,,,,,,,,,,,,,,,,,,,,,,,,,,69,151975,20,Female,1,2024/02/20_10:00:12,YZ,None,
,,,,,,practice,0,16,1,1250,7,V,1,right,1.0153589070032467,0,0,,,,,,,,,,,,,,,,,,,,,1,,,,,,,,,,,,,,,,,,,,,,,,,,,,,,,,,,,,,,,,,,,,,,69,151975,20,Female,1,2024/02/20_10:00:12,YZ,None,
,,,,,,practice,0,16,1,1250,8,Q,0,left,2.3467332719956175,0,0,,,,,,,,,,,,,,,,,,,,,1,,,,,,,,,,,,,,,,,,,,,,,,,,,,,,,,,,,,,,,,,,,,,,69,151975,20,Female,1,2024/02/20_10:00:12,YZ,None,
,,,,,,practice,0,16,1,1250,9,S,0,left,0.535553448004066,0,0,,,,,,,,,,,,,,,,,,,,,1,,,,,,,,,,,,,,,,,,,,,,,,,,,,,,,,,,,,,,,,,,,,,,69,151975,20,Female,1,2024/02/20_10:00:12,YZ,None,
,,,,,,practice,0,16,1,1250,10,S,1,left,0.7723802280015661,1,0,,,,,,,,,,,,,,,,,,,,,1,,,,,,,,,,,,,,,,,,,,,,,,,,,,,,,,,,,,,,,,,,,,,,69,151975,20,Female,1,2024/02/20_10:00:12,YZ,None,
,,,,,,practice,0,16,1,1250,,,,,,,,0.6666666666666666,0.6666666666666666,0.42857142857142855,0.5714285714285714,0.0,0.5714285714285714,1.4030269807000877,2,3,0,0,0,4,6,3,7,0,,,,1,,,,,,,,,,,,,,,,,,,,,,,,,,,,,,,,,,,,,,,,,,,,,,69,151975,20,Female,1,2024/02/20_10:00:12,YZ,None,
1,./instructions/inst_redo_1/Slide33.png,right,8.507320561002416,581.4078126789973,589.9151332399997,,,,,,,,,,,,,,,,,,,,,,,,,,,,,,,,,1,,,,,,,,,,,,,,,,,,,,,,,,,,,,,,,,,,,,,,,,,,,,,,69,151975,20,Female,1,2024/02/20_10:00:12,YZ,None,
,,,,,,practice,0,14,1,1250,1,N,0,right,1.4593408910004655,1,0,,,,,,,,,,,,,,,,,,,,,1,,,,,,,,,,,,,,,,,,,,,,,,,,,,,,,,,,,,,,,,,,,,,,69,151975,20,Female,1,2024/02/20_10:00:12,YZ,None,
,,,,,,practice,0,14,1,1250,2,F,0,right,0.5240468900010455,1,0,,,,,,,,,,,,,,,,,,,,,1,,,,,,,,,,,,,,,,,,,,,,,,,,,,,,,,,,,,,,,,,,,,,,69,151975,20,Female,1,2024/02/20_10:00:12,YZ,None,
,,,,,,practice,0,14,1,1250,3,Q,0,right,1.9849332329977187,1,0,,,,,,,,,,,,,,,,,,,,,1,,,,,,,,,,,,,,,,,,,,,,,,,,,,,,,,,,,,,,,,,,,,,,69,151975,20,Female,1,2024/02/20_10:00:12,YZ,None,
,,,,,,practice,0,14,1,1250,4,Q,1,left,2.795809773997462,1,0,,,,,,,,,,,,,,,,,,,,,1,,,,,,,,,,,,,,,,,,,,,,,,,,,,,,,,,,,,,,,,,,,,,,69,151975,20,Female,1,2024/02/20_10:00:12,YZ,None,
,,,,,,practice,0,14,1,1250,5,C,0,right,2.67558348300372,1,0,,,,,,,,,,,,,,,,,,,,,1,,,,,,,,,,,,,,,,,,,,,,,,,,,,,,,,,,,,,,,,,,,,,,69,151975,20,Female,1,2024/02/20_10:00:12,YZ,None,
,,,,,,practice,0,14,1,1250,6,N,0,left,1.8375723479985027,0,0,,,,,,,,,,,,,,,,,,,,,1,,,,,,,,,,,,,,,,,,,,,,,,,,,,,,,,,,,,,,,,,,,,,,69,151975,20,Female,1,2024/02/20_10:00:12,YZ,None,
,,,,,,practice,0,14,1,1250,7,J,0,right,2.0634168059987132,1,0,,,,,,,,,,,,,,,,,,,,,1,,,,,,,,,,,,,,,,,,,,,,,,,,,,,,,,,,,,,,,,,,,,,,69,151975,20,Female,1,2024/02/20_10:00:12,YZ,None,
,,,,,,practice,0,14,1,1250,8,J,1,right,1.364595950995863,0,0,,,,,,,,,,,,,,,,,,,,,1,,,,,,,,,,,,,,,,,,,,,,,,,,,,,,,,,,,,,,,,,,,,,,69,151975,20,Female,1,2024/02/20_10:00:12,YZ,None,
,,,,,,practice,0,14,1,1250,9,C,0,left,2.066673654000624,0,0,,,,,,,,,,,,,,,,,,,,,1,,,,,,,,,,,,,,,,,,,,,,,,,,,,,,,,,,,,,,,,,,,,,,69,151975,20,Female,1,2024/02/20_10:00:12,YZ,None,
,,,,,,practice,0,14,1,1250,10,C,1,right,0.8804618089998257,0,0,,,,,,,,,,,,,,,,,,,,,1,,,,,,,,,,,,,,,,,,,,,,,,,,,,,,,,,,,,,,,,,,,,,,69,151975,20,Female,1,2024/02/20_10:00:12,YZ,None,
,,,,,,practice,0,14,1,1250,,,,,,,,0.5476190476190476,0.3333333333333333,0.2857142857142857,0.7142857142857143,0.0,0.7142857142857143,1.765243483899394,1,2,0,0,0,5,6,3,7,0,,,,1,,,,,,,,,,,,,,,,,,,,,,,,,,,,,,,,,,,,,,,,,,,,,,69,151975,20,Female,1,2024/02/20_10:00:12,YZ,None,
1,./instructions/inst_redo_1/Slide33.png,right,12.964867743998184,621.1742958109971,634.1391635549953,,,,,,,,,,,,,,,,,,,,,,,,,,,,,,,,,1,,,,,,,,,,,,,,,,,,,,,,,,,,,,,,,,,,,,,,,,,,,,,,69,151975,20,Female,1,2024/02/20_10:00:12,YZ,None,
,,,,,,practice,0,13,1,1250,1,S,0,right,2.575776975005283,1,0,,,,,,,,,,,,,,,,,,,,,1,,,,,,,,,,,,,,,,,,,,,,,,,,,,,,,,,,,,,,,,,,,,,,69,151975,20,Female,1,2024/02/20_10:00:12,YZ,None,
,,,,,,practice,0,13,1,1250,2,S,1,left,1.4559063049964607,1,0,,,,,,,,,,,,,,,,,,,,,1,,,,,,,,,,,,,,,,,,,,,,,,,,,,,,,,,,,,,,,,,,,,,,69,151975,20,Female,1,2024/02/20_10:00:12,YZ,None,
,,,,,,practice,0,13,1,1250,3,F,0,right,0.78115556800185,1,0,,,,,,,,,,,,,,,,,,,,,1,,,,,,,,,,,,,,,,,,,,,,,,,,,,,,,,,,,,,,,,,,,,,,69,151975,20,Female,1,2024/02/20_10:00:12,YZ,None,
,,,,,,practice,0,13,1,1250,4,J,0,right,0.7833178119981312,1,0,,,,,,,,,,,,,,,,,,,,,1,,,,,,,,,,,,,,,,,,,,,,,,,,,,,,,,,,,,,,,,,,,,,,69,151975,20,Female,1,2024/02/20_10:00:12,YZ,None,
,,,,,,practice,0,13,1,1250,5,J,1,left,0.7329717000029632,1,0,,,,,,,,,,,,,,,,,,,,,1,,,,,,,,,,,,,,,,,,,,,,,,,,,,,,,,,,,,,,,,,,,,,,69,151975,20,Female,1,2024/02/20_10:00:12,YZ,None,
,,,,,,practice,0,13,1,1250,6,S,0,right,0.7655122400028631,1,0,,,,,,,,,,,,,,,,,,,,,1,,,,,,,,,,,,,,,,,,,,,,,,,,,,,,,,,,,,,,,,,,,,,,69,151975,20,Female,1,2024/02/20_10:00:12,YZ,None,
,,,,,,practice,0,13,1,1250,7,Q,0,right,0.7311816110013751,1,0,,,,,,,,,,,,,,,,,,,,,1,,,,,,,,,,,,,,,,,,,,,,,,,,,,,,,,,,,,,,,,,,,,,,69,151975,20,Female,1,2024/02/20_10:00:12,YZ,None,
,,,,,,practice,0,13,1,1250,8,N,0,right,0.616915519000031,1,0,,,,,,,,,,,,,,,,,,,,,1,,,,,,,,,,,,,,,,,,,,,,,,,,,,,,,,,,,,,,,,,,,,,,69,151975,20,Female,1,2024/02/20_10:00:12,YZ,None,
,,,,,,practice,0,13,1,1250,9,N,1,left,0.6580323300004238,1,0,,,,,,,,,,,,,,,,,,,,,1,,,,,,,,,,,,,,,,,,,,,,,,,,,,,,,,,,,,,,,,,,,,,,69,151975,20,Female,1,2024/02/20_10:00:12,YZ,None,
,,,,,,practice,0,13,1,1250,10,V,0,right,0.6993355260055978,1,0,,,,,,,,,,,,,,,,,,,,,1,,,,,,,,,,,,,,,,,,,,,,,,,,,,,,,,,,,,,,,,,,,,,,69,151975,20,Female,1,2024/02/20_10:00:12,YZ,None,
,,,,,,practice,0,13,1,1250,,,,,,,,1.0,1.0,0.0,1.0,0.0,1.0,0.9800105586014979,3,0,0,0,0,7,10,3,7,0,,,,1,,,,,,,,,,,,,,,,,,,,,,,,,,,,,,,,,,,,,,,,,,,,,,69,151975,20,Female,1,2024/02/20_10:00:12,YZ,None,
1,./instructions/inst_prac_1_next/Slide35.png,right,1.3173802160017658,655.4857389629979,656.8031191789996,,,,,,,,,,,,,,,,,,,,,,,,,,,,,,,,,1,,,,,,,,,,,,,,,,,,,,,,,,,,,,,,,,,,,,,,,,,,,,,,69,151975,20,Female,1,2024/02/20_10:00:12,YZ,None,
,,,,,,practice,0,19,1,2583,1,N,0,right,3.7718939740007045,1,0,,,,,,,,,,,,,,,,,,,,,1,,,,,,,,,,,,,,,,,,,,,,,,,,,,,,,,,,,,,,,,,,,,,,69,151975,20,Female,1,2024/02/20_10:00:12,YZ,None,
,,,,,,practice,0,19,1,2583,2,J,0,right,1.0712545280039194,1,0,,,,,,,,,,,,,,,,,,,,,1,,,,,,,,,,,,,,,,,,,,,,,,,,,,,,,,,,,,,,,,,,,,,,69,151975,20,Female,1,2024/02/20_10:00:12,YZ,None,
,,,,,,practice,0,19,1,2583,3,J,1,left,0.7196216559968889,1,0,,,,,,,,,,,,,,,,,,,,,1,,,,,,,,,,,,,,,,,,,,,,,,,,,,,,,,,,,,,,,,,,,,,,69,151975,20,Female,1,2024/02/20_10:00:12,YZ,None,
,,,,,,practice,0,19,1,2583,4,C,0,right,0.7515887879999354,1,0,,,,,,,,,,,,,,,,,,,,,1,,,,,,,,,,,,,,,,,,,,,,,,,,,,,,,,,,,,,,,,,,,,,,69,151975,20,Female,1,2024/02/20_10:00:12,YZ,None,
,,,,,,practice,0,19,1,2583,5,Q,0,right,0.6439007869994384,1,0,,,,,,,,,,,,,,,,,,,,,1,,,,,,,,,,,,,,,,,,,,,,,,,,,,,,,,,,,,,,,,,,,,,,69,151975,20,Female,1,2024/02/20_10:00:12,YZ,None,
,,,,,,practice,0,19,1,2583,6,Q,1,left,0.5325118869950529,1,0,,,,,,,,,,,,,,,,,,,,,1,,,,,,,,,,,,,,,,,,,,,,,,,,,,,,,,,,,,,,,,,,,,,,69,151975,20,Female,1,2024/02/20_10:00:12,YZ,None,
,,,,,,practice,0,19,1,2583,,,,,,,,1.0,1.0,0.0,1.0,0.0,1.0,1.24846193666599,2,0,0,0,0,4,6,2,4,0,,,,1,,,,,,,,,,,,,,,,,,,,,,,,,,,,,,,,,,,,,,,,,,,,,,69,151975,20,Female,1,2024/02/20_10:00:12,YZ,None,
,,,,,,practice,0,9,1,2583,1,F,0,right,0.9136785779992351,1,0,,,,,,,,,,,,,,,,,,,,,1,,,,,,,,,,,,,,,,,,,,,,,,,,,,,,,,,,,,,,,,,,,,,,69,151975,20,Female,1,2024/02/20_10:00:12,YZ,None,
,,,,,,practice,0,9,1,2583,2,J,0,right,1.2933208100002958,1,0,,,,,,,,,,,,,,,,,,,,,1,,,,,,,,,,,,,,,,,,,,,,,,,,,,,,,,,,,,,,,,,,,,,,69,151975,20,Female,1,2024/02/20_10:00:12,YZ,None,
,,,,,,practice,0,9,1,2583,3,J,1,left,0.6249988470008248,1,0,,,,,,,,,,,,,,,,,,,,,1,,,,,,,,,,,,,,,,,,,,,,,,,,,,,,,,,,,,,,,,,,,,,,69,151975,20,Female,1,2024/02/20_10:00:12,YZ,None,
,,,,,,practice,0,9,1,2583,4,F,0,right,0.49642629000300076,1,0,,,,,,,,,,,,,,,,,,,,,1,,,,,,,,,,,,,,,,,,,,,,,,,,,,,,,,,,,,,,,,,,,,,,69,151975,20,Female,1,2024/02/20_10:00:12,YZ,None,
,,,,,,practice,0,9,1,2583,5,F,1,left,0.5206560890001128,1,0,,,,,,,,,,,,,,,,,,,,,1,,,,,,,,,,,,,,,,,,,,,,,,,,,,,,,,,,,,,,,,,,,,,,69,151975,20,Female,1,2024/02/20_10:00:12,YZ,None,
,,,,,,practice,0,9,1,2583,6,Q,0,right,0.5007986339987838,1,0,,,,,,,,,,,,,,,,,,,,,1,,,,,,,,,,,,,,,,,,,,,,,,,,,,,,,,,,,,,,,,,,,,,,69,151975,20,Female,1,2024/02/20_10:00:12,YZ,None,
,,,,,,practice,0,9,1,2583,,,,,,,,1.0,1.0,0.0,1.0,0.0,1.0,0.7249798746670422,2,0,0,0,0,4,6,2,4,0,,,,1,,,,,,,,,,,,,,,,,,,,,,,,,,,,,,,,,,,,,,,,,,,,,,69,151975,20,Female,1,2024/02/20_10:00:12,YZ,None,
1,./instructions/inst_prac_3/Slide37.png,right,4.388834953999321,679.0303416940005,683.4191766479998,,,,,,,,,,,,,,,,,,,,,,,,,,,,,,,,,1,,,,,,,,,,,,,,,,,,,,,,,,,,,,,,,,,,,,,,,,,,,,,,69,151975,20,Female,1,2024/02/20_10:00:12,YZ,None,
2,./instructions/inst_prac_3/Slide38.png,right,1.0270023819975904,683.4481543959992,684.4751567779967,,,,,,,,,,,,,,,,,,,,,,,,,,,,,,,,,1,,,,,,,,,,,,,,,,,,,,,,,,,,,,,,,,,,,,,,,,,,,,,,69,151975,20,Female,1,2024/02/20_10:00:12,YZ,None,
3,./instructions/inst_prac_3/Slide39.png,right,1.0057071619958151,684.5012226489998,685.5069298109956,,,,,,,,,,,,,,,,,,,,,,,,,,,,,,,,,1,,,,,,,,,,,,,,,,,,,,,,,,,,,,,,,,,,,,,,,,,,,,,,69,151975,20,Female,1,2024/02/20_10:00:12,YZ,None,
4,./instructions/inst_prac_3/Slide40.png,right,0.940997026002151,685.534116472998,686.4751134990001,,,,,,,,,,,,,,,,,,,,,,,,,,,,,,,,,1,,,,,,,,,,,,,,,,,,,,,,,,,,,,,,,,,,,,,,,,,,,,,,69,151975,20,Female,1,2024/02/20_10:00:12,YZ,None,
5,./instructions/inst_prac_3/Slide41.png,right,1.461424706998514,686.5016889789986,687.9631136859971,,,,,,,,,,,,,,,,,,,,,,,,,,,,,,,,,1,,,,,,,,,,,,,,,,,,,,,,,,,,,,,,,,,,,,,,,,,,,,,,69,151975,20,Female,1,2024/02/20_10:00:12,YZ,None,
6,./instructions/inst_prac_3/Slide42.png,right,1.5032991219995893,687.9878020239994,689.491101145999,,,,,,,,,,,,,,,,,,,,,,,,,,,,,,,,,1,,,,,,,,,,,,,,,,,,,,,,,,,,,,,,,,,,,,,,,,,,,,,,69,151975,20,Female,1,2024/02/20_10:00:12,YZ,None,
7,./instructions/inst_prac_3/Slide43.png,right,0.20043235600314802,689.519695086994,689.7201274429972,,,,,,,,,,,,,,,,,,,,,,,,,,,,,,,,,1,,,,,,,,,,,,,,,,,,,,,,,,,,,,,,,,,,,,,,,,,,,,,,69,151975,20,Female,1,2024/02/20_10:00:12,YZ,None,
8,./instructions/inst_prac_3/Slide44.png,right,2.1881464809994213,689.7429288229978,691.9310753039972,,,,,,,,,,,,,,,,,,,,,,,,,,,,,,,,,1,,,,,,,,,,,,,,,,,,,,,,,,,,,,,,,,,,,,,,,,,,,,,,69,151975,20,Female,1,2024/02/20_10:00:12,YZ,None,
,,,,,,practice,0,2,3,788,1,C,0,right,0.8417469729974982,1,0,,,,,,,,,,,,,,,,,,,,,1,,,,,,,,,,,,,,,,,,,,,,,,,,,,,,,,,,,,,,,,,,,,,,69,151975,20,Female,1,2024/02/20_10:00:12,YZ,None,
,,,,,,practice,0,2,3,788,2,J,0,right,0.6473058470000979,1,0,,,,,,,,,,,,,,,,,,,,,1,,,,,,,,,,,,,,,,,,,,,,,,,,,,,,,,,,,,,,,,,,,,,,69,151975,20,Female,1,2024/02/20_10:00:12,YZ,None,
,,,,,,practice,0,2,3,788,3,J,0,right,1.1688812310021603,1,0,,,,,,,,,,,,,,,,,,,,,1,,,,,,,,,,,,,,,,,,,,,,,,,,,,,,,,,,,,,,,,,,,,,,69,151975,20,Female,1,2024/02/20_10:00:12,YZ,None,
,,,,,,practice,0,2,3,788,4,S,0,right,1.2993903050009976,1,0,,,,,,,,,,,,,,,,,,,,,1,,,,,,,,,,,,,,,,,,,,,,,,,,,,,,,,,,,,,,,,,,,,,,69,151975,20,Female,1,2024/02/20_10:00:12,YZ,None,
,,,,,,practice,0,2,3,788,5,Q,0,right,1.1947902300016722,1,0,,,,,,,,,,,,,,,,,,,,,1,,,,,,,,,,,,,,,,,,,,,,,,,,,,,,,,,,,,,,,,,,,,,,69,151975,20,Female,1,2024/02/20_10:00:12,YZ,None,
,,,,,,practice,0,2,3,788,6,V,0,right,0.6910966209979961,1,0,,,,,,,,,,,,,,,,,,,,,1,,,,,,,,,,,,,,,,,,,,,,,,,,,,,,,,,,,,,,,,,,,,,,69,151975,20,Female,1,2024/02/20_10:00:12,YZ,None,
,,,,,,practice,0,2,3,788,7,S,1,left,0.7850305920001119,1,0,,,,,,,,,,,,,,,,,,,,,1,,,,,,,,,,,,,,,,,,,,,,,,,,,,,,,,,,,,,,,,,,,,,,69,151975,20,Female,1,2024/02/20_10:00:12,YZ,None,
,,,,,,practice,0,2,3,788,8,Q,1,left,1.0282712100015488,1,0,,,,,,,,,,,,,,,,,,,,,1,,,,,,,,,,,,,,,,,,,,,,,,,,,,,,,,,,,,,,,,,,,,,,69,151975,20,Female,1,2024/02/20_10:00:12,YZ,None,
,,,,,,practice,0,2,3,788,9,N,0,right,1.3714155910056434,1,0,,,,,,,,,,,,,,,,,,,,,1,,,,,,,,,,,,,,,,,,,,,,,,,,,,,,,,,,,,,,,,,,,,,,69,151975,20,Female,1,2024/02/20_10:00:12,YZ,None,
,,,,,,practice,0,2,3,788,10,V,0,right,1.388266832997033,1,0,,,,,,,,,,,,,,,,,,,,,1,,,,,,,,,,,,,,,,,,,,,,,,,,,,,,,,,,,,,,,,,,,,,,69,151975,20,Female,1,2024/02/20_10:00:12,YZ,None,
,,,,,,practice,0,2,3,788,11,N,0,right,0.720909343996027,1,0,,,,,,,,,,,,,,,,,,,,,1,,,,,,,,,,,,,,,,,,,,,,,,,,,,,,,,,,,,,,,,,,,,,,69,151975,20,Female,1,2024/02/20_10:00:12,YZ,None,
,,,,,,practice,0,2,3,788,12,N,1,left,0.8897267350039328,1,0,,,,,,,,,,,,,,,,,,,,,1,,,,,,,,,,,,,,,,,,,,,,,,,,,,,,,,,,,,,,,,,,,,,,69,151975,20,Female,1,2024/02/20_10:00:12,YZ,None,
,,,,,,practice,0,2,3,788,13,V,1,left,0.6458738259971142,1,0,,,,,,,,,,,,,,,,,,,,,1,,,,,,,,,,,,,,,,,,,,,,,,,,,,,,,,,,,,,,,,,,,,,,69,151975,20,Female,1,2024/02/20_10:00:12,YZ,None,
,,,,,,practice,0,2,3,788,,,,,,,,1.0,1.0,0.0,1.0,0.0,1.0,0.9748234875386026,4,0,0,0,0,9,13,4,9,0,,,,1,,,,,,,,,,,,,,,,,,,,,,,,,,,,,,,,,,,,,,,,,,,,,,69,151975,20,Female,1,2024/02/20_10:00:12,YZ,None,
1,./instructions/inst_prac_3_next/Slide49.png,right,5.113220332998026,718.2899580489975,723.4031783819955,,,,,,,,,,,,,,,,,,,,,,,,,,,,,,,,,1,,,,,,,,,,,,,,,,,,,,,,,,,,,,,,,,,,,,,,,,,,,,,,69,151975,20,Female,1,2024/02/20_10:00:12,YZ,None,
,,,,,,practice,0,13,3,2583,1,X,0,right,1.3661616620011046,1,0,,,,,,,,,,,,,,,,,,,,,1,,,,,,,,,,,,,,,,,,,,,,,,,,,,,,,,,,,,,,,,,,,,,,69,151975,20,Female,1,2024/02/20_10:00:12,YZ,None,
,,,,,,practice,0,13,3,2583,2,J,0,right,0.6087862479980686,1,0,,,,,,,,,,,,,,,,,,,,,1,,,,,,,,,,,,,,,,,,,,,,,,,,,,,,,,,,,,,,,,,,,,,,69,151975,20,Female,1,2024/02/20_10:00:12,YZ,None,
,,,,,,practice,0,13,3,2583,3,V,0,right,0.6810383609990822,1,0,,,,,,,,,,,,,,,,,,,,,1,,,,,,,,,,,,,,,,,,,,,,,,,,,,,,,,,,,,,,,,,,,,,,69,151975,20,Female,1,2024/02/20_10:00:12,YZ,None,
,,,,,,practice,0,13,3,2583,4,X,1,left,0.6096314340029494,1,0,,,,,,,,,,,,,,,,,,,,,1,,,,,,,,,,,,,,,,,,,,,,,,,,,,,,,,,,,,,,,,,,,,,,69,151975,20,Female,1,2024/02/20_10:00:12,YZ,None,
,,,,,,practice,0,13,3,2583,5,X,0,right,1.3879678180019255,1,0,,,,,,,,,,,,,,,,,,,,,1,,,,,,,,,,,,,,,,,,,,,,,,,,,,,,,,,,,,,,,,,,,,,,69,151975,20,Female,1,2024/02/20_10:00:12,YZ,None,
,,,,,,practice,0,13,3,2583,6,V,1,right,1.0479552210017573,0,0,,,,,,,,,,,,,,,,,,,,,1,,,,,,,,,,,,,,,,,,,,,,,,,,,,,,,,,,,,,,,,,,,,,,69,151975,20,Female,1,2024/02/20_10:00:12,YZ,None,
,,,,,,practice,0,13,3,2583,,,,,,,,0.875,0.5,0.0,1.0,0.0,1.0,0.9502567906674813,1,0,0,0,0,4,5,2,4,0,,,,1,,,,,,,,,,,,,,,,,,,,,,,,,,,,,,,,,,,,,,,,,,,,,,69,151975,20,Female,1,2024/02/20_10:00:12,YZ,None,
,,,,,,practice,0,1,3,2583,1,J,0,right,1.5107333259948064,1,0,,,,,,,,,,,,,,,,,,,,,1,,,,,,,,,,,,,,,,,,,,,,,,,,,,,,,,,,,,,,,,,,,,,,69,151975,20,Female,1,2024/02/20_10:00:12,YZ,None,
,,,,,,practice,0,1,3,2583,2,V,0,right,0.5725743539951509,1,0,,,,,,,,,,,,,,,,,,,,,1,,,,,,,,,,,,,,,,,,,,,,,,,,,,,,,,,,,,,,,,,,,,,,69,151975,20,Female,1,2024/02/20_10:00:12,YZ,None,
,,,,,,practice,0,1,3,2583,3,F,0,right,0.390197865999653,1,0,,,,,,,,,,,,,,,,,,,,,1,,,,,,,,,,,,,,,,,,,,,,,,,,,,,,,,,,,,,,,,,,,,,,69,151975,20,Female,1,2024/02/20_10:00:12,YZ,None,
,,,,,,practice,0,1,3,2583,4,J,1,left,0.6635447450025822,1,0,,,,,,,,,,,,,,,,,,,,,1,,,,,,,,,,,,,,,,,,,,,,,,,,,,,,,,,,,,,,,,,,,,,,69,151975,20,Female,1,2024/02/20_10:00:12,YZ,None,
,,,,,,practice,0,1,3,2583,5,F,0,right,2.0923190269968472,1,0,,,,,,,,,,,,,,,,,,,,,1,,,,,,,,,,,,,,,,,,,,,,,,,,,,,,,,,,,,,,,,,,,,,,69,151975,20,Female,1,2024/02/20_10:00:12,YZ,None,
,,,,,,practice,0,1,3,2583,6,F,1,left,3.7370162360020913,1,0,,,,,,,,,,,,,,,,,,,,,1,,,,,,,,,,,,,,,,,,,,,,,,,,,,,,,,,,,,,,,,,,,,,,69,151975,20,Female,1,2024/02/20_10:00:12,YZ,None,
,,,,,,practice,0,1,3,2583,,,,,,,,1.0,1.0,0.0,1.0,0.0,1.0,1.494397592331855,2,0,0,0,0,4,6,2,4,0,,,,1,,,,,,,,,,,,,,,,,,,,,,,,,,,,,,,,,,,,,,,,,,,,,,69,151975,20,Female,1,2024/02/20_10:00:12,YZ,None,
1,./instructions/inst_prac_main/Slide51.png,right,2.0377929769965704,748.4374196049976,750.4752125819941,,,,,,,,,,,,,,,,,,,,,,,,,,,,,,,,,1,,,,,,,,,,,,,,,,,,,,,,,,,,,,,,,,,,,,,,,,,,,,,,69,151975,20,Female,1,2024/02/20_10:00:12,YZ,None,
2,./instructions/inst_prac_main/Slide52.png,right,7.291213054995751,750.5039888440006,757.7952018989963,,,,,,,,,,,,,,,,,,,,,,,,,,,,,,,,,1,,,,,,,,,,,,,,,,,,,,,,,,,,,,,,,,,,,,,,,,,,,,,,69,151975,20,Female,1,2024/02/20_10:00:12,YZ,None,
1,./instructions/inst_prac_main/Slide53.png,left,5.693935112001782,757.821165825997,763.5151009379988,,,,,,,,,,,,,,,,,,,,,,,,,,,,,,,,,1,,,,,,,,,,,,,,,,,,,,,,,,,,,,,,,,,,,,,,,,,,,,,,69,151975,20,Female,1,2024/02/20_10:00:12,YZ,None,
0,./instructions/inst_prac_main/Slide52.png,left,0.20034926499647554,763.5412046659985,763.741553930995,,,,,,,,,,,,,,,,,,,,,,,,,,,,,,,,,1,,,,,,,,,,,,,,,,,,,,,,,,,,,,,,,,,,,,,,,,,,,,,,69,151975,20,Female,1,2024/02/20_10:00:12,YZ,None,
1,./instructions/inst_prac_main/Slide51.png,right,3.74688125999819,763.7601983139975,767.5070795739957,,,,,,,,,,,,,,,,,,,,,,,,,,,,,,,,,1,,,,,,,,,,,,,,,,,,,,,,,,,,,,,,,,,,,,,,,,,,,,,,69,151975,20,Female,1,2024/02/20_10:00:12,YZ,None,
2,./instructions/inst_prac_main/Slide52.png,right,3.467232654998952,767.5359247050001,771.003157359999,,,,,,,,,,,,,,,,,,,,,,,,,,,,,,,,,1,,,,,,,,,,,,,,,,,,,,,,,,,,,,,,,,,,,,,,,,,,,,,,69,151975,20,Female,1,2024/02/20_10:00:12,YZ,None,
1,./instructions/inst_prac_main/Slide53.png,left,5.33298303099582,771.0302228020009,776.3632058329968,,,,,,,,,,,,,,,,,,,,,,,,,,,,,,,,,1,,,,,,,,,,,,,,,,,,,,,,,,,,,,,,,,,,,,,,,,,,,,,,69,151975,20,Female,1,2024/02/20_10:00:12,YZ,None,
0,./instructions/inst_prac_main/Slide52.png,left,0.20064912700036075,776.3928536859967,776.593502812997,,,,,,,,,,,,,,,,,,,,,,,,,,,,,,,,,1,,,,,,,,,,,,,,,,,,,,,,,,,,,,,,,,,,,,,,,,,,,,,,69,151975,20,Female,1,2024/02/20_10:00:12,YZ,None,
-1,./instructions/inst_prac_main/Slide51.png,left,0.20040130100096576,776.6137146389956,776.8141159399966,,,,,,,,,,,,,,,,,,,,,,,,,,,,,,,,,1,,,,,,,,,,,,,,,,,,,,,,,,,,,,,,,,,,,,,,,,,,,,,,69,151975,20,Female,1,2024/02/20_10:00:12,YZ,None,
-2,./instructions/inst_prac_main/Slide54.png,left,0.20036993899702793,776.8367431070001,777.0371130459971,,,,,,,,,,,,,,,,,,,,,,,,,,,,,,,,,1,,,,,,,,,,,,,,,,,,,,,,,,,,,,,,,,,,,,,,,,,,,,,,69,151975,20,Female,1,2024/02/20_10:00:12,YZ,None,
-3,./instructions/inst_prac_main/Slide53.png,left,0.20043263499974273,777.0598475829975,777.2602802179972,,,,,,,,,,,,,,,,,,,,,,,,,,,,,,,,,1,,,,,,,,,,,,,,,,,,,,,,,,,,,,,,,,,,,,,,,,,,,,,,69,151975,20,Female,1,2024/02/20_10:00:12,YZ,None,
-4,./instructions/inst_prac_main/Slide52.png,left,0.20045300199853955,777.2826926209964,777.4831456229949,,,,,,,,,,,,,,,,,,,,,,,,,,,,,,,,,1,,,,,,,,,,,,,,,,,,,,,,,,,,,,,,,,,,,,,,,,,,,,,,69,151975,20,Female,1,2024/02/20_10:00:12,YZ,None,
,,,,,,practice_main,0,1,1,2583,1,C,0,right,2.0437678689995664,1,0,,,,,,,,,,,,,,,,,,,,,1,,,,,,,,,,,,,,,,,,,,,,,,,,,,,,,,,,,,,,,,,,,,,,69,151975,20,Female,1,2024/02/20_10:00:12,YZ,None,
,,,,,,practice_main,0,1,1,2583,2,C,1,left,1.0412428229974466,1,0,,,,,,,,,,,,,,,,,,,,,1,,,,,,,,,,,,,,,,,,,,,,,,,,,,,,,,,,,,,,,,,,,,,,69,151975,20,Female,1,2024/02/20_10:00:12,YZ,None,
,,,,,,practice_main,0,1,1,2583,3,F,0,right,0.5734291429980658,1,0,,,,,,,,,,,,,,,,,,,,,1,,,,,,,,,,,,,,,,,,,,,,,,,,,,,,,,,,,,,,,,,,,,,,69,151975,20,Female,1,2024/02/20_10:00:12,YZ,None,
,,,,,,practice_main,0,1,1,2583,4,C,0,right,0.7234324599994579,1,0,,,,,,,,,,,,,,,,,,,,,1,,,,,,,,,,,,,,,,,,,,,,,,,,,,,,,,,,,,,,,,,,,,,,69,151975,20,Female,1,2024/02/20_10:00:12,YZ,None,
,,,,,,practice_main,0,1,1,2583,5,S,0,right,0.5509410859958734,1,0,,,,,,,,,,,,,,,,,,,,,1,,,,,,,,,,,,,,,,,,,,,,,,,,,,,,,,,,,,,,,,,,,,,,69,151975,20,Female,1,2024/02/20_10:00:12,YZ,None,
,,,,,,practice_main,0,1,1,2583,6,S,1,left,0.5865764759946615,1,0,,,,,,,,,,,,,,,,,,,,,1,,,,,,,,,,,,,,,,,,,,,,,,,,,,,,,,,,,,,,,,,,,,,,69,151975,20,Female,1,2024/02/20_10:00:12,YZ,None,
,,,,,,practice_main,0,1,1,2583,,,,,,,,1.0,1.0,0.0,1.0,0.0,1.0,0.919898309497512,2,0,0,0,0,4,6,2,4,0,,,,1,,,,,,,,,,,,,,,,,,,,,,,,,,,,,,,,,,,,,,,,,,,,,,69,151975,20,Female,1,2024/02/20_10:00:12,YZ,None,
,,,,,240220_105826,PRACTICE,0,1,1,2583,,,,,,,,,,,,,,,,,,,,,,,,,,,,1,42,2,1,cue1.png,easy,A,76,1.1157933729991782,0,788.6470308169955,789.7786090599984,,,,,,,,,,,,,,,,,,,,,,,,,,,,,,,,,,,69,151975,20,Female,1,2024/02/20_10:00:12,YZ,None,
,,,,,,practice_main,0,2,3,2583,1,S,0,right,1.5581865849962924,1,0,,,,,,,,,,,,,,,,,,,,,1,,,,,,,,,,,,,,,,,,,,,,,,,,,,,,,,,,,,,,,,,,,,,,69,151975,20,Female,1,2024/02/20_10:00:12,YZ,None,
,,,,,,practice_main,0,2,3,2583,2,Q,0,right,0.516592550004134,1,0,,,,,,,,,,,,,,,,,,,,,1,,,,,,,,,,,,,,,,,,,,,,,,,,,,,,,,,,,,,,,,,,,,,,69,151975,20,Female,1,2024/02/20_10:00:12,YZ,None,
,,,,,,practice_main,0,2,3,2583,3,C,0,right,0.7909601050050696,1,0,,,,,,,,,,,,,,,,,,,,,1,,,,,,,,,,,,,,,,,,,,,,,,,,,,,,,,,,,,,,,,,,,,,,69,151975,20,Female,1,2024/02/20_10:00:12,YZ,None,
,,,,,,practice_main,0,2,3,2583,4,S,1,left,0.3616239190014312,1,0,,,,,,,,,,,,,,,,,,,,,1,,,,,,,,,,,,,,,,,,,,,,,,,,,,,,,,,,,,,,,,,,,,,,69,151975,20,Female,1,2024/02/20_10:00:12,YZ,None,
,,,,,,practice_main,0,2,3,2583,5,Q,1,right,0.5176492030004738,0,0,,,,,,,,,,,,,,,,,,,,,1,,,,,,,,,,,,,,,,,,,,,,,,,,,,,,,,,,,,,,,,,,,,,,69,151975,20,Female,1,2024/02/20_10:00:12,YZ,None,
,,,,,,practice_main,0,2,3,2583,6,X,0,right,1.608498445006262,1,0,,,,,,,,,,,,,,,,,,,,,1,,,,,,,,,,,,,,,,,,,,,,,,,,,,,,,,,,,,,,,,,,,,,,69,151975,20,Female,1,2024/02/20_10:00:12,YZ,None,
,,,,,,practice_main,0,2,3,2583,,,,,,,,0.875,0.5,0.0,1.0,0.0,1.0,0.8922518011689439,1,0,0,0,0,4,5,2,4,0,,,,1,,,,,,,,,,,,,,,,,,,,,,,,,,,,,,,,,,,,,,,,,,,,,,69,151975,20,Female,1,2024/02/20_10:00:12,YZ,None,
,,,,,240220_105845,PRACTICE,0,2,3,2583,,,,,,,,,,,,,,,,,,,,,,,,,,,,1,24,3,2,cue2.png,hard,A,31,1.136833120996016,0,807.5840786059998,808.7503508570007,,,,,,,,,,,,,,,,,,,,,,,,,,,,,,,,,,,69,151975,20,Female,1,2024/02/20_10:00:12,YZ,None,
,,,,,,practice_main,0,3,3,2583,1,X,0,right,0.8914289270032896,1,0,,,,,,,,,,,,,,,,,,,,,1,,,,,,,,,,,,,,,,,,,,,,,,,,,,,,,,,,,,,,,,,,,,,,69,151975,20,Female,1,2024/02/20_10:00:12,YZ,None,
,,,,,,practice_main,0,3,3,2583,2,N,0,right,0.4608795390013256,1,0,,,,,,,,,,,,,,,,,,,,,1,,,,,,,,,,,,,,,,,,,,,,,,,,,,,,,,,,,,,,,,,,,,,,69,151975,20,Female,1,2024/02/20_10:00:12,YZ,None,
,,,,,,practice_main,0,3,3,2583,3,N,0,right,0.6472193609952228,1,0,,,,,,,,,,,,,,,,,,,,,1,,,,,,,,,,,,,,,,,,,,,,,,,,,,,,,,,,,,,,,,,,,,,,69,151975,20,Female,1,2024/02/20_10:00:12,YZ,None,
,,,,,,practice_main,0,3,3,2583,4,X,1,left,0.3716838780019316,1,0,,,,,,,,,,,,,,,,,,,,,1,,,,,,,,,,,,,,,,,,,,,,,,,,,,,,,,,,,,,,,,,,,,,,69,151975,20,Female,1,2024/02/20_10:00:12,YZ,None,
,,,,,,practice_main,0,3,3,2583,5,N,1,left,0.8459592419967521,1,0,,,,,,,,,,,,,,,,,,,,,1,,,,,,,,,,,,,,,,,,,,,,,,,,,,,,,,,,,,,,,,,,,,,,69,151975,20,Female,1,2024/02/20_10:00:12,YZ,None,
,,,,,,practice_main,0,3,3,2583,6,J,0,right,0.5123092560024816,1,0,,,,,,,,,,,,,,,,,,,,,1,,,,,,,,,,,,,,,,,,,,,,,,,,,,,,,,,,,,,,,,,,,,,,69,151975,20,Female,1,2024/02/20_10:00:12,YZ,None,
,,,,,,practice_main,0,3,3,2583,,,,,,,,1.0,1.0,0.0,1.0,0.0,1.0,0.6215800338335006,2,0,0,0,0,4,6,2,4,0,,,,1,,,,,,,,,,,,,,,,,,,,,,,,,,,,,,,,,,,,,,,,,,,,,,69,151975,20,Female,1,2024/02/20_10:00:12,YZ,None,
,,,,,240220_105902,PRACTICE,0,3,3,2583,,,,,,,,,,,,,,,,,,,,,,,,,,,,1,31,4,3,cue2.png,hard,A,44,1.182825222997053,0,826.3900986119988,827.589953278999,,,,,,,,,,,,,,,,,,,,,,,,,,,,,,,,,,,69,151975,20,Female,1,2024/02/20_10:00:12,YZ,None,
1,./instructions/inst_prac_end/Slide56.png,right,15.024936608002463,842.1142621609979,857.1391987690004,,,,,,,,,,,,,,,,,,,,,,,,,,,,,,,,,1,,,,,,,,,,,,,,,,,,,,,,,,,,,,,,,,,,,,,,,,,,,,,,69,151975,20,Female,1,2024/02/20_10:00:12,YZ,None,
1,./instructions/inst_test/Slide57.png,right,22.870482689999335,857.1726824259968,880.0431651159961,,,,,,,,,,,,,,,,,,,,,,,,,,,,,,,,,1,,,,,,,,,,,,,,,,,,,,,,,,,,,,,,,,,,,,,,,,,,,,,,69,151975,20,Female,1,2024/02/20_10:00:12,YZ,None,
,,,,,,test,1,1,1,2583,1,C,0,right,0.4454174479978974,1,0,,,,,,,,,,,,,,,,,,,,,1,,,,,,,,,,,,,,,,,,,,,,,,,,,,,,,,,,,,,,,,,,,,,,69,151975,20,Female,1,2024/02/20_10:00:12,YZ,None,
,,,,,,test,1,1,1,2583,2,S,0,right,0.3960743679999723,1,0,,,,,,,,,,,,,,,,,,,,,1,,,,,,,,,,,,,,,,,,,,,,,,,,,,,,,,,,,,,,,,,,,,,,69,151975,20,Female,1,2024/02/20_10:00:12,YZ,None,
,,,,,,test,1,1,1,2583,3,F,0,right,0.7393234360060887,1,0,,,,,,,,,,,,,,,,,,,,,1,,,,,,,,,,,,,,,,,,,,,,,,,,,,,,,,,,,,,,,,,,,,,,69,151975,20,Female,1,2024/02/20_10:00:12,YZ,None,
,,,,,,test,1,1,1,2583,4,F,1,left,0.41172398700291524,1,0,,,,,,,,,,,,,,,,,,,,,1,,,,,,,,,,,,,,,,,,,,,,,,,,,,,,,,,,,,,,,,,,,,,,69,151975,20,Female,1,2024/02/20_10:00:12,YZ,None,
,,,,,,test,1,1,1,2583,5,Q,0,right,0.5562424809977529,1,0,,,,,,,,,,,,,,,,,,,,,1,,,,,,,,,,,,,,,,,,,,,,,,,,,,,,,,,,,,,,,,,,,,,,69,151975,20,Female,1,2024/02/20_10:00:12,YZ,None,
,,,,,,test,1,1,1,2583,6,Q,1,left,0.4555747709964635,1,0,,,,,,,,,,,,,,,,,,,,,1,,,,,,,,,,,,,,,,,,,,,,,,,,,,,,,,,,,,,,,,,,,,,,69,151975,20,Female,1,2024/02/20_10:00:12,YZ,None,
,,,,,,Test,1,1,1,2583,,,,,,,,1.0,1.0,0.0,1.0,0.0,1.0,0.500726081833515,2,0,0,0,0,4,6,2,4,0,,,,1,,,,,,,,,,,,,,,,,,,,,,,,,,,,,,,,,,,,,,,,,,,,,,69,151975,20,Female,1,2024/02/20_10:00:12,YZ,None,
,,,,,240220_110000,TEST,1,1,1,2583,,,,,,,,,,,,,,,,,,,,,,,,,,,,1,1,1,1,cue1.png,easy,A,62,0.8544402770057786,0,885.0899535339995,885.9646066009955,,,,,,,,,,,,,,,,,,,,,,,,,,,,,,,,,,,69,151975,20,Female,1,2024/02/20_10:00:12,YZ,None,
,,,,,,test,1,2,3,2583,1,C,0,right,0.8751101039961213,1,0,,,,,,,,,,,,,,,,,,,,,1,,,,,,,,,,,,,,,,,,,,,,,,,,,,,,,,,,,,,,,,,,,,,,69,151975,20,Female,1,2024/02/20_10:00:12,YZ,None,
,,,,,,test,1,2,3,2583,2,S,0,right,0.34796415599703323,1,0,,,,,,,,,,,,,,,,,,,,,1,,,,,,,,,,,,,,,,,,,,,,,,,,,,,,,,,,,,,,,,,,,,,,69,151975,20,Female,1,2024/02/20_10:00:12,YZ,None,
,,,,,,test,1,2,3,2583,3,V,0,right,0.4067063330003293,1,0,,,,,,,,,,,,,,,,,,,,,1,,,,,,,,,,,,,,,,,,,,,,,,,,,,,,,,,,,,,,,,,,,,,,69,151975,20,Female,1,2024/02/20_10:00:12,YZ,None,
,,,,,,test,1,2,3,2583,4,C,1,left,0.33577743399655446,1,0,,,,,,,,,,,,,,,,,,,,,1,,,,,,,,,,,,,,,,,,,,,,,,,,,,,,,,,,,,,,,,,,,,,,69,151975,20,Female,1,2024/02/20_10:00:12,YZ,None,
,,,,,,test,1,2,3,2583,5,S,1,left,0.6190914079998038,1,0,,,,,,,,,,,,,,,,,,,,,1,,,,,,,,,,,,,,,,,,,,,,,,,,,,,,,,,,,,,,,,,,,,,,69,151975,20,Female,1,2024/02/20_10:00:12,YZ,None,
,,,,,,test,1,2,3,2583,6,X,0,right,0.5475175750034396,1,0,,,,,,,,,,,,,,,,,,,,,1,,,,,,,,,,,,,,,,,,,,,,,,,,,,,,,,,,,,,,,,,,,,,,69,151975,20,Female,1,2024/02/20_10:00:12,YZ,None,
,,,,,,Test,1,2,3,2583,,,,,,,,1.0,1.0,0.0,1.0,0.0,1.0,0.5220278349988803,2,0,0,0,0,4,6,2,4,0,,,,1,,,,,,,,,,,,,,,,,,,,,,,,,,,,,,,,,,,,,,,,,,,,,,69,151975,20,Female,1,2024/02/20_10:00:12,YZ,None,
,,,,,240220_110016,TEST,1,2,3,2583,,,,,,,,,,,,,,,,,,,,,,,,,,,,1,2,2,2,cue2.png,hard,A,46,0.9373546370043186,0,901.2283423509944,902.1828198369985,,,,,,,,,,,,,,,,,,,,,,,,,,,,,,,,,,,69,151975,20,Female,1,2024/02/20_10:00:12,YZ,None,
,,,,,,test,1,3,1,2583,1,C,0,right,0.4923356959989178,1,0,,,,,,,,,,,,,,,,,,,,,1,,,,,,,,,,,,,,,,,,,,,,,,,,,,,,,,,,,,,,,,,,,,,,69,151975,20,Female,1,2024/02/20_10:00:12,YZ,None,
,,,,,,test,1,3,1,2583,2,J,0,right,0.7966393759998027,1,0,,,,,,,,,,,,,,,,,,,,,1,,,,,,,,,,,,,,,,,,,,,,,,,,,,,,,,,,,,,,,,,,,,,,69,151975,20,Female,1,2024/02/20_10:00:12,YZ,None,
,,,,,,test,1,3,1,2583,3,J,1,right,0.6244673060064088,0,0,,,,,,,,,,,,,,,,,,,,,1,,,,,,,,,,,,,,,,,,,,,,,,,,,,,,,,,,,,,,,,,,,,,,69,151975,20,Female,1,2024/02/20_10:00:12,YZ,None,
,,,,,,test,1,3,1,2583,4,V,0,right,0.7188468129970715,1,0,,,,,,,,,,,,,,,,,,,,,1,,,,,,,,,,,,,,,,,,,,,,,,,,,,,,,,,,,,,,,,,,,,,,69,151975,20,Female,1,2024/02/20_10:00:12,YZ,None,
,,,,,,test,1,3,1,2583,5,S,0,right,0.49853558799804887,1,0,,,,,,,,,,,,,,,,,,,,,1,,,,,,,,,,,,,,,,,,,,,,,,,,,,,,,,,,,,,,,,,,,,,,69,151975,20,Female,1,2024/02/20_10:00:12,YZ,None,
,,,,,,test,1,3,1,2583,6,S,1,left,0.6149935170033132,1,0,,,,,,,,,,,,,,,,,,,,,1,,,,,,,,,,,,,,,,,,,,,,,,,,,,,,,,,,,,,,,,,,,,,,69,151975,20,Female,1,2024/02/20_10:00:12,YZ,None,
,,,,,,Test,1,3,1,2583,,,,,,,,0.875,0.5,0.0,1.0,0.0,1.0,0.6243030493339271,1,0,0,0,0,4,5,2,4,0,,,,1,,,,,,,,,,,,,,,,,,,,,,,,,,,,,,,,,,,,,,,,,,,,,,69,151975,20,Female,1,2024/02/20_10:00:12,YZ,None,
,,,,,240220_110033,TEST,1,3,1,2583,,,,,,,,,,,,,,,,,,,,,,,,,,,,1,3,3,3,cue1.png,easy,A,67,1.1475442869996186,0,917.5894198129972,918.7485149799977,,,,,,,,,,,,,,,,,,,,,,,,,,,,,,,,,,,69,151975,20,Female,1,2024/02/20_10:00:12,YZ,None,
,,,,,,test,1,4,3,2583,1,N,0,right,0.5550168699992355,1,0,,,,,,,,,,,,,,,,,,,,,1,,,,,,,,,,,,,,,,,,,,,,,,,,,,,,,,,,,,,,,,,,,,,,69,151975,20,Female,1,2024/02/20_10:00:12,YZ,None,
,,,,,,test,1,4,3,2583,2,F,0,right,0.36135340300097596,1,0,,,,,,,,,,,,,,,,,,,,,1,,,,,,,,,,,,,,,,,,,,,,,,,,,,,,,,,,,,,,,,,,,,,,69,151975,20,Female,1,2024/02/20_10:00:12,YZ,None,
,,,,,,test,1,4,3,2583,3,S,0,right,0.4362385659987922,1,0,,,,,,,,,,,,,,,,,,,,,1,,,,,,,,,,,,,,,,,,,,,,,,,,,,,,,,,,,,,,,,,,,,,,69,151975,20,Female,1,2024/02/20_10:00:12,YZ,None,
,,,,,,test,1,4,3,2583,4,N,1,left,0.479892862997076,1,0,,,,,,,,,,,,,,,,,,,,,1,,,,,,,,,,,,,,,,,,,,,,,,,,,,,,,,,,,,,,,,,,,,,,69,151975,20,Female,1,2024/02/20_10:00:12,YZ,None,
,,,,,,test,1,4,3,2583,5,F,1,left,0.7243396299963933,1,0,,,,,,,,,,,,,,,,,,,,,1,,,,,,,,,,,,,,,,,,,,,,,,,,,,,,,,,,,,,,,,,,,,,,69,151975,20,Female,1,2024/02/20_10:00:12,YZ,None,
,,,,,,test,1,4,3,2583,6,F,0,right,0.6411177150002914,1,0,,,,,,,,,,,,,,,,,,,,,1,,,,,,,,,,,,,,,,,,,,,,,,,,,,,,,,,,,,,,,,,,,,,,69,151975,20,Female,1,2024/02/20_10:00:12,YZ,None,
,,,,,,Test,1,4,3,2583,,,,,,,,1.0,1.0,0.0,1.0,0.0,1.0,0.532993174498794,2,0,0,0,0,4,6,2,4,0,,,,1,,,,,,,,,,,,,,,,,,,,,,,,,,,,,,,,,,,,,,,,,,,,,,69,151975,20,Female,1,2024/02/20_10:00:12,YZ,None,
,,,,,240220_110050,TEST,1,4,3,2583,,,,,,,,,,,,,,,,,,,,,,,,,,,,1,4,4,4,cue2.png,hard,A,40,1.0685735840015695,0,934.7765208669953,935.8605808889988,,,,,,,,,,,,,,,,,,,,,,,,,,,,,,,,,,,69,151975,20,Female,1,2024/02/20_10:00:12,YZ,None,
,,,,,,test,1,5,3,2583,1,J,0,left,0.7815816719958093,0,0,,,,,,,,,,,,,,,,,,,,,1,,,,,,,,,,,,,,,,,,,,,,,,,,,,,,,,,,,,,,,,,,,,,,69,151975,20,Female,1,2024/02/20_10:00:12,YZ,None,
,,,,,,test,1,5,3,2583,2,S,0,right,1.3092914360022405,1,0,,,,,,,,,,,,,,,,,,,,,1,,,,,,,,,,,,,,,,,,,,,,,,,,,,,,,,,,,,,,,,,,,,,,69,151975,20,Female,1,2024/02/20_10:00:12,YZ,None,
,,,,,,test,1,5,3,2583,3,F,0,right,0.4373042569932295,1,0,,,,,,,,,,,,,,,,,,,,,1,,,,,,,,,,,,,,,,,,,,,,,,,,,,,,,,,,,,,,,,,,,,,,69,151975,20,Female,1,2024/02/20_10:00:12,YZ,None,
,,,,,,test,1,5,3,2583,4,J,1,left,0.4443491179990815,1,0,,,,,,,,,,,,,,,,,,,,,1,,,,,,,,,,,,,,,,,,,,,,,,,,,,,,,,,,,,,,,,,,,,,,69,151975,20,Female,1,2024/02/20_10:00:12,YZ,None,
,,,,,,test,1,5,3,2583,5,S,1,left,1.490200284999446,1,0,,,,,,,,,,,,,,,,,,,,,1,,,,,,,,,,,,,,,,,,,,,,,,,,,,,,,,,,,,,,,,,,,,,,69,151975,20,Female,1,2024/02/20_10:00:12,YZ,None,
,,,,,,test,1,5,3,2583,6,X,0,right,0.4337416390044382,1,0,,,,,,,,,,,,,,,,,,,,,1,,,,,,,,,,,,,,,,,,,,,,,,,,,,,,,,,,,,,,,,,,,,,,69,151975,20,Female,1,2024/02/20_10:00:12,YZ,None,
,,,,,,Test,1,5,3,2583,,,,,,,,0.9375,1.0,0.25,0.75,0.0,0.75,0.8160780678323741,2,1,0,0,0,3,5,2,4,0,,,,1,,,,,,,,,,,,,,,,,,,,,,,,,,,,,,,,,,,,,,,,,,,,,,69,151975,20,Female,1,2024/02/20_10:00:12,YZ,None,
,,,,,240220_110109,TEST,1,5,3,2583,,,,,,,,,,,,,,,,,,,,,,,,,,,,1,5,5,5,cue2.png,hard,A,34,1.681003456003964,0,951.3211806129984,953.022103462994,,,,,,,,,,,,,,,,,,,,,,,,,,,,,,,,,,,69,151975,20,Female,1,2024/02/20_10:00:12,YZ,None,
,,,,,,test,1,6,1,2583,1,X,0,right,1.4575273160007782,1,0,,,,,,,,,,,,,,,,,,,,,1,,,,,,,,,,,,,,,,,,,,,,,,,,,,,,,,,,,,,,,,,,,,,,69,151975,20,Female,1,2024/02/20_10:00:12,YZ,None,
,,,,,,test,1,6,1,2583,2,F,0,right,0.5741542920004576,1,0,,,,,,,,,,,,,,,,,,,,,1,,,,,,,,,,,,,,,,,,,,,,,,,,,,,,,,,,,,,,,,,,,,,,69,151975,20,Female,1,2024/02/20_10:00:12,YZ,None,
,,,,,,test,1,6,1,2583,3,F,1,left,0.3508891160017811,1,0,,,,,,,,,,,,,,,,,,,,,1,,,,,,,,,,,,,,,,,,,,,,,,,,,,,,,,,,,,,,,,,,,,,,69,151975,20,Female,1,2024/02/20_10:00:12,YZ,None,
,,,,,,test,1,6,1,2583,4,C,0,right,0.3994429049998871,1,0,,,,,,,,,,,,,,,,,,,,,1,,,,,,,,,,,,,,,,,,,,,,,,,,,,,,,,,,,,,,,,,,,,,,69,151975,20,Female,1,2024/02/20_10:00:12,YZ,None,
,,,,,,test,1,6,1,2583,5,S,0,right,0.8868124990040087,1,0,,,,,,,,,,,,,,,,,,,,,1,,,,,,,,,,,,,,,,,,,,,,,,,,,,,,,,,,,,,,,,,,,,,,69,151975,20,Female,1,2024/02/20_10:00:12,YZ,None,
,,,,,,test,1,6,1,2583,6,S,1,left,0.5711509350003325,1,0,,,,,,,,,,,,,,,,,,,,,1,,,,,,,,,,,,,,,,,,,,,,,,,,,,,,,,,,,,,,,,,,,,,,69,151975,20,Female,1,2024/02/20_10:00:12,YZ,None,
,,,,,,Test,1,6,1,2583,,,,,,,,1.0,1.0,0.0,1.0,0.0,1.0,0.7066628438345409,2,0,0,0,0,4,6,2,4,0,,,,1,,,,,,,,,,,,,,,,,,,,,,,,,,,,,,,,,,,,,,,,,,,,,,69,151975,20,Female,1,2024/02/20_10:00:12,YZ,None,
,,,,,240220_110126,TEST,1,6,1,2583,,,,,,,,,,,,,,,,,,,,,,,,,,,,1,6,6,6,cue1.png,easy,A,58,1.0616057270017336,0,970.1623965319959,971.2357867449973,,,,,,,,,,,,,,,,,,,,,,,,,,,,,,,,,,,69,151975,20,Female,1,2024/02/20_10:00:12,YZ,None,
,,,,,,test,1,7,3,2583,1,Q,0,right,1.6909093680005753,1,0,,,,,,,,,,,,,,,,,,,,,1,,,,,,,,,,,,,,,,,,,,,,,,,,,,,,,,,,,,,,,,,,,,,,69,151975,20,Female,1,2024/02/20_10:00:12,YZ,None,
,,,,,,test,1,7,3,2583,2,F,0,right,0.40347801399911987,1,0,,,,,,,,,,,,,,,,,,,,,1,,,,,,,,,,,,,,,,,,,,,,,,,,,,,,,,,,,,,,,,,,,,,,69,151975,20,Female,1,2024/02/20_10:00:12,YZ,None,
,,,,,,test,1,7,3,2583,3,J,0,right,0.43123595300130546,1,0,,,,,,,,,,,,,,,,,,,,,1,,,,,,,,,,,,,,,,,,,,,,,,,,,,,,,,,,,,,,,,,,,,,,69,151975,20,Female,1,2024/02/20_10:00:12,YZ,None,
,,,,,,test,1,7,3,2583,4,Q,1,left,0.30038882700318936,1,0,,,,,,,,,,,,,,,,,,,,,1,,,,,,,,,,,,,,,,,,,,,,,,,,,,,,,,,,,,,,,,,,,,,,69,151975,20,Female,1,2024/02/20_10:00:12,YZ,None,
,,,,,,test,1,7,3,2583,5,F,1,right,0.4628862350000418,0,0,,,,,,,,,,,,,,,,,,,,,1,,,,,,,,,,,,,,,,,,,,,,,,,,,,,,,,,,,,,,,,,,,,,,69,151975,20,Female,1,2024/02/20_10:00:12,YZ,None,
,,,,,,test,1,7,3,2583,6,Q,0,right,0.7980883039999753,1,0,,,,,,,,,,,,,,,,,,,,,1,,,,,,,,,,,,,,,,,,,,,,,,,,,,,,,,,,,,,,,,,,,,,,69,151975,20,Female,1,2024/02/20_10:00:12,YZ,None,
,,,,,,Test,1,7,3,2583,,,,,,,,0.875,0.5,0.0,1.0,0.0,1.0,0.6811644501673678,1,0,0,0,0,4,5,2,4,0,,,,1,,,,,,,,,,,,,,,,,,,,,,,,,,,,,,,,,,,,,,,,,,,,,,69,151975,20,Female,1,2024/02/20_10:00:12,YZ,None,
,,,,,240220_110144,TEST,1,7,3,2583,,,,,,,,,,,,,,,,,,,,,,,,,,,,1,7,7,7,cue2.png,hard,A,39,1.1781993780023186,0,987.742444904994,988.9332959859967,,,,,,,,,,,,,,,,,,,,,,,,,,,,,,,,,,,69,151975,20,Female,1,2024/02/20_10:00:12,YZ,None,
,,,,,,test,1,8,3,2583,1,F,0,right,1.1320248000047286,1,0,,,,,,,,,,,,,,,,,,,,,1,,,,,,,,,,,,,,,,,,,,,,,,,,,,,,,,,,,,,,,,,,,,,,69,151975,20,Female,1,2024/02/20_10:00:12,YZ,None,
,,,,,,test,1,8,3,2583,2,J,0,right,0.4265281649932149,1,0,,,,,,,,,,,,,,,,,,,,,1,,,,,,,,,,,,,,,,,,,,,,,,,,,,,,,,,,,,,,,,,,,,,,69,151975,20,Female,1,2024/02/20_10:00:12,YZ,None,
,,,,,,test,1,8,3,2583,3,S,0,right,0.4762709260030533,1,0,,,,,,,,,,,,,,,,,,,,,1,,,,,,,,,,,,,,,,,,,,,,,,,,,,,,,,,,,,,,,,,,,,,,69,151975,20,Female,1,2024/02/20_10:00:12,YZ,None,
,,,,,,test,1,8,3,2583,4,J,0,right,0.4364253409949015,1,0,,,,,,,,,,,,,,,,,,,,,1,,,,,,,,,,,,,,,,,,,,,,,,,,,,,,,,,,,,,,,,,,,,,,69,151975,20,Female,1,2024/02/20_10:00:12,YZ,None,
,,,,,,test,1,8,3,2583,5,J,1,left,0.6785719659965253,1,0,,,,,,,,,,,,,,,,,,,,,1,,,,,,,,,,,,,,,,,,,,,,,,,,,,,,,,,,,,,,,,,,,,,,69,151975,20,Female,1,2024/02/20_10:00:12,YZ,None,
,,,,,,test,1,8,3,2583,6,S,1,left,0.7023564189948956,1,0,,,,,,,,,,,,,,,,,,,,,1,,,,,,,,,,,,,,,,,,,,,,,,,,,,,,,,,,,,,,,,,,,,,,69,151975,20,Female,1,2024/02/20_10:00:12,YZ,None,
,,,,,,Test,1,8,3,2583,,,,,,,,1.0,1.0,0.0,1.0,0.0,1.0,0.6420296028312199,2,0,0,0,0,4,6,2,4,0,,,,1,,,,,,,,,,,,,,,,,,,,,,,,,,,,,,,,,,,,,,,,,,,,,,69,151975,20,Female,1,2024/02/20_10:00:12,YZ,None,
,,,,,240220_110201,TEST,1,8,3,2583,,,,,,,,,,,,,,,,,,,,,,,,,,,,1,8,8,8,cue2.png,hard,A,42,1.121600430997205,0,1005.2776272889969,1006.4193451539977,,,,,,,,,,,,,,,,,,,,,,,,,,,,,,,,,,,69,151975,20,Female,1,2024/02/20_10:00:12,YZ,None,
,,,,,,test,1,9,1,2583,1,C,0,right,1.216435135997017,1,0,,,,,,,,,,,,,,,,,,,,,1,,,,,,,,,,,,,,,,,,,,,,,,,,,,,,,,,,,,,,,,,,,,,,69,151975,20,Female,1,2024/02/20_10:00:12,YZ,None,
,,,,,,test,1,9,1,2583,2,X,0,right,0.5910275350033771,1,0,,,,,,,,,,,,,,,,,,,,,1,,,,,,,,,,,,,,,,,,,,,,,,,,,,,,,,,,,,,,,,,,,,,,69,151975,20,Female,1,2024/02/20_10:00:12,YZ,None,
,,,,,,test,1,9,1,2583,3,Q,0,right,0.41799587100103963,1,0,,,,,,,,,,,,,,,,,,,,,1,,,,,,,,,,,,,,,,,,,,,,,,,,,,,,,,,,,,,,,,,,,,,,69,151975,20,Female,1,2024/02/20_10:00:12,YZ,None,
,,,,,,test,1,9,1,2583,4,Q,1,left,0.34562804300367134,1,0,,,,,,,,,,,,,,,,,,,,,1,,,,,,,,,,,,,,,,,,,,,,,,,,,,,,,,,,,,,,,,,,,,,,69,151975,20,Female,1,2024/02/20_10:00:12,YZ,None,
,,,,,,test,1,9,1,2583,5,N,0,right,0.3617287969973404,1,0,,,,,,,,,,,,,,,,,,,,,1,,,,,,,,,,,,,,,,,,,,,,,,,,,,,,,,,,,,,,,,,,,,,,69,151975,20,Female,1,2024/02/20_10:00:12,YZ,None,
,,,,,,test,1,9,1,2583,6,N,1,left,0.2960066649975488,1,0,,,,,,,,,,,,,,,,,,,,,1,,,,,,,,,,,,,,,,,,,,,,,,,,,,,,,,,,,,,,,,,,,,,,69,151975,20,Female,1,2024/02/20_10:00:12,YZ,None,
,,,,,,Test,1,9,1,2583,,,,,,,,1.0,1.0,0.0,1.0,0.0,1.0,0.5381370078333324,2,0,0,0,0,4,6,2,4,0,,,,1,,,,,,,,,,,,,,,,,,,,,,,,,,,,,,,,,,,,,,,,,,,,,,69,151975,20,Female,1,2024/02/20_10:00:12,YZ,None,
,,,,,240220_110218,TEST,1,9,1,2583,,,,,,,,,,,,,,,,,,,,,,,,,,,,1,9,9,9,cue1.png,easy,A,65,1.5834675290025189,0,1022.5327500689964,1024.1424171659964,,,,,,,,,,,,,,,,,,,,,,,,,,,,,,,,,,,69,151975,20,Female,1,2024/02/20_10:00:12,YZ,None,
,,,,,,test,1,10,1,2583,1,J,0,right,0.9411361530001159,1,0,,,,,,,,,,,,,,,,,,,,,1,,,,,,,,,,,,,,,,,,,,,,,,,,,,,,,,,,,,,,,,,,,,,,69,151975,20,Female,1,2024/02/20_10:00:12,YZ,None,
,,,,,,test,1,10,1,2583,2,J,1,left,0.4572528839998995,1,0,,,,,,,,,,,,,,,,,,,,,1,,,,,,,,,,,,,,,,,,,,,,,,,,,,,,,,,,,,,,,,,,,,,,69,151975,20,Female,1,2024/02/20_10:00:12,YZ,None,
,,,,,,test,1,10,1,2583,3,F,0,right,0.404806083002768,1,0,,,,,,,,,,,,,,,,,,,,,1,,,,,,,,,,,,,,,,,,,,,,,,,,,,,,,,,,,,,,,,,,,,,,69,151975,20,Female,1,2024/02/20_10:00:12,YZ,None,
,,,,,,test,1,10,1,2583,4,F,1,right,0.4081675190027454,0,0,,,,,,,,,,,,,,,,,,,,,1,,,,,,,,,,,,,,,,,,,,,,,,,,,,,,,,,,,,,,,,,,,,,,69,151975,20,Female,1,2024/02/20_10:00:12,YZ,None,
,,,,,,test,1,10,1,2583,5,N,0,right,0.6578711940019275,1,0,,,,,,,,,,,,,,,,,,,,,1,,,,,,,,,,,,,,,,,,,,,,,,,,,,,,,,,,,,,,,,,,,,,,69,151975,20,Female,1,2024/02/20_10:00:12,YZ,None,
,,,,,,test,1,10,1,2583,6,F,0,right,0.9518747959955363,1,0,,,,,,,,,,,,,,,,,,,,,1,,,,,,,,,,,,,,,,,,,,,,,,,,,,,,,,,,,,,,,,,,,,,,69,151975,20,Female,1,2024/02/20_10:00:12,YZ,None,
,,,,,,Test,1,10,1,2583,,,,,,,,0.875,0.5,0.0,1.0,0.0,1.0,0.6368514381671654,1,0,0,0,0,4,5,2,4,0,,,,1,,,,,,,,,,,,,,,,,,,,,,,,,,,,,,,,,,,,,,,,,,,,,,69,151975,20,Female,1,2024/02/20_10:00:12,YZ,None,
,,,,,240220_110237,TEST,1,10,1,2583,,,,,,,,,,,,,,,,,,,,,,,,,,,,1,10,10,10,cue1.png,easy,A,68,2.670656852002139,0,1039.6193708719948,1042.318917093995,,,,,,,,,,,,,,,,,,,,,,,,,,,,,,,,,,,69,151975,20,Female,1,2024/02/20_10:00:12,YZ,None,
,,,,,,test,1,11,3,2583,1,V,0,right,1.064728646997537,1,0,,,,,,,,,,,,,,,,,,,,,1,,,,,,,,,,,,,,,,,,,,,,,,,,,,,,,,,,,,,,,,,,,,,,69,151975,20,Female,1,2024/02/20_10:00:12,YZ,None,
,,,,,,test,1,11,3,2583,2,S,0,right,0.4919427109998651,1,0,,,,,,,,,,,,,,,,,,,,,1,,,,,,,,,,,,,,,,,,,,,,,,,,,,,,,,,,,,,,,,,,,,,,69,151975,20,Female,1,2024/02/20_10:00:12,YZ,None,
,,,,,,test,1,11,3,2583,3,J,0,right,0.6100752450001892,1,0,,,,,,,,,,,,,,,,,,,,,1,,,,,,,,,,,,,,,,,,,,,,,,,,,,,,,,,,,,,,,,,,,,,,69,151975,20,Female,1,2024/02/20_10:00:12,YZ,None,
,,,,,,test,1,11,3,2583,4,S,0,right,0.8214902760009863,1,0,,,,,,,,,,,,,,,,,,,,,1,,,,,,,,,,,,,,,,,,,,,,,,,,,,,,,,,,,,,,,,,,,,,,69,151975,20,Female,1,2024/02/20_10:00:12,YZ,None,
,,,,,,test,1,11,3,2583,5,S,1,left,0.856335759999638,1,0,,,,,,,,,,,,,,,,,,,,,1,,,,,,,,,,,,,,,,,,,,,,,,,,,,,,,,,,,,,,,,,,,,,,69,151975,20,Female,1,2024/02/20_10:00:12,YZ,None,
,,,,,,test,1,11,3,2583,6,J,1,left,0.5529365440015681,1,0,,,,,,,,,,,,,,,,,,,,,1,,,,,,,,,,,,,,,,,,,,,,,,,,,,,,,,,,,,,,,,,,,,,,69,151975,20,Female,1,2024/02/20_10:00:12,YZ,None,
,,,,,,Test,1,11,3,2583,,,,,,,,1.0,1.0,0.0,1.0,0.0,1.0,0.7329181971666306,2,0,0,0,0,4,6,2,4,0,,,,1,,,,,,,,,,,,,,,,,,,,,,,,,,,,,,,,,,,,,,,,,,,,,,69,151975,20,Female,1,2024/02/20_10:00:12,YZ,None,
,,,,,240220_110256,TEST,1,11,3,2583,,,,,,,,,,,,,,,,,,,,,,,,,,,,1,11,11,11,cue2.png,hard,A,40,2.098439930996392,0,1058.3936359009967,1060.508991456998,,,,,,,,,,,,,,,,,,,,,,,,,,,,,,,,,,,69,151975,20,Female,1,2024/02/20_10:00:12,YZ,None,
,,,,,,test,1,12,1,2583,1,V,0,right,1.3415580590008176,1,0,,,,,,,,,,,,,,,,,,,,,1,,,,,,,,,,,,,,,,,,,,,,,,,,,,,,,,,,,,,,,,,,,,,,69,151975,20,Female,1,2024/02/20_10:00:12,YZ,None,
,,,,,,test,1,12,1,2583,2,C,0,right,0.5746054749979521,1,0,,,,,,,,,,,,,,,,,,,,,1,,,,,,,,,,,,,,,,,,,,,,,,,,,,,,,,,,,,,,,,,,,,,,69,151975,20,Female,1,2024/02/20_10:00:12,YZ,None,
,,,,,,test,1,12,1,2583,3,C,1,left,0.4008684340005857,1,0,,,,,,,,,,,,,,,,,,,,,1,,,,,,,,,,,,,,,,,,,,,,,,,,,,,,,,,,,,,,,,,,,,,,69,151975,20,Female,1,2024/02/20_10:00:12,YZ,None,
,,,,,,test,1,12,1,2583,4,V,0,right,0.6574022970016813,1,0,,,,,,,,,,,,,,,,,,,,,1,,,,,,,,,,,,,,,,,,,,,,,,,,,,,,,,,,,,,,,,,,,,,,69,151975,20,Female,1,2024/02/20_10:00:12,YZ,None,
,,,,,,test,1,12,1,2583,5,X,0,right,0.6095792839987553,1,0,,,,,,,,,,,,,,,,,,,,,1,,,,,,,,,,,,,,,,,,,,,,,,,,,,,,,,,,,,,,,,,,,,,,69,151975,20,Female,1,2024/02/20_10:00:12,YZ,None,
,,,,,,test,1,12,1,2583,6,X,1,left,0.4182118460012134,1,0,,,,,,,,,,,,,,,,,,,,,1,,,,,,,,,,,,,,,,,,,,,,,,,,,,,,,,,,,,,,,,,,,,,,69,151975,20,Female,1,2024/02/20_10:00:12,YZ,None,
,,,,,,Test,1,12,1,2583,,,,,,,,1.0,1.0,0.0,1.0,0.0,1.0,0.6670375658335009,2,0,0,0,0,4,6,2,4,0,,,,1,,,,,,,,,,,,,,,,,,,,,,,,,,,,,,,,,,,,,,,,,,,,,,69,151975,20,Female,1,2024/02/20_10:00:12,YZ,None,
,,,,,240220_110314,TEST,1,12,1,2583,,,,,,,,,,,,,,,,,,,,,,,,,,,,1,12,12,12,cue1.png,easy,A,56,1.9136023810060578,0,1077.172633299997,1079.099002416995,,,,,,,,,,,,,,,,,,,,,,,,,,,,,,,,,,,69,151975,20,Female,1,2024/02/20_10:00:12,YZ,None,
,,,,,,test,1,13,1,2583,1,X,0,right,1.1645248780041584,1,0,,,,,,,,,,,,,,,,,,,,,1,,,,,,,,,,,,,,,,,,,,,,,,,,,,,,,,,,,,,,,,,,,,,,69,151975,20,Female,1,2024/02/20_10:00:12,YZ,None,
,,,,,,test,1,13,1,2583,2,X,1,left,0.524252069000795,1,0,,,,,,,,,,,,,,,,,,,,,1,,,,,,,,,,,,,,,,,,,,,,,,,,,,,,,,,,,,,,,,,,,,,,69,151975,20,Female,1,2024/02/20_10:00:12,YZ,None,
,,,,,,test,1,13,1,2583,3,C,0,right,0.4967078759946162,1,0,,,,,,,,,,,,,,,,,,,,,1,,,,,,,,,,,,,,,,,,,,,,,,,,,,,,,,,,,,,,,,,,,,,,69,151975,20,Female,1,2024/02/20_10:00:12,YZ,None,
,,,,,,test,1,13,1,2583,4,V,0,right,0.4660815789975459,1,0,,,,,,,,,,,,,,,,,,,,,1,,,,,,,,,,,,,,,,,,,,,,,,,,,,,,,,,,,,,,,,,,,,,,69,151975,20,Female,1,2024/02/20_10:00:12,YZ,None,
,,,,,,test,1,13,1,2583,5,N,0,right,0.43238861500140047,1,0,,,,,,,,,,,,,,,,,,,,,1,,,,,,,,,,,,,,,,,,,,,,,,,,,,,,,,,,,,,,,,,,,,,,69,151975,20,Female,1,2024/02/20_10:00:12,YZ,None,
,,,,,,test,1,13,1,2583,6,N,1,left,0.3368145300046308,1,0,,,,,,,,,,,,,,,,,,,,,1,,,,,,,,,,,,,,,,,,,,,,,,,,,,,,,,,,,,,,,,,,,,,,69,151975,20,Female,1,2024/02/20_10:00:12,YZ,None,
,,,,,,Test,1,13,1,2583,,,,,,,,1.0,1.0,0.0,1.0,0.0,1.0,0.5701282578338578,2,0,0,0,0,4,6,2,4,0,,,,1,,,,,,,,,,,,,,,,,,,,,,,,,,,,,,,,,,,,,,,,,,,,,,69,151975,20,Female,1,2024/02/20_10:00:12,YZ,None,
,,,,,240220_110331,TEST,1,13,1,2583,,,,,,,,,,,,,,,,,,,,,,,,,,,,1,13,13,13,cue1.png,easy,A,70,1.3555045550019713,0,1095.3697870109972,1096.741885616997,,,,,,,,,,,,,,,,,,,,,,,,,,,,,,,,,,,69,151975,20,Female,1,2024/02/20_10:00:12,YZ,None,
,,,,,,test,1,14,1,2583,1,S,0,right,1.2933665569944424,1,0,,,,,,,,,,,,,,,,,,,,,1,,,,,,,,,,,,,,,,,,,,,,,,,,,,,,,,,,,,,,,,,,,,,,69,151975,20,Female,1,2024/02/20_10:00:12,YZ,None,
,,,,,,test,1,14,1,2583,2,S,1,left,0.5910632500017527,1,0,,,,,,,,,,,,,,,,,,,,,1,,,,,,,,,,,,,,,,,,,,,,,,,,,,,,,,,,,,,,,,,,,,,,69,151975,20,Female,1,2024/02/20_10:00:12,YZ,None,
,,,,,,test,1,14,1,2583,3,C,0,right,0.5304919959962717,1,0,,,,,,,,,,,,,,,,,,,,,1,,,,,,,,,,,,,,,,,,,,,,,,,,,,,,,,,,,,,,,,,,,,,,69,151975,20,Female,1,2024/02/20_10:00:12,YZ,None,
,,,,,,test,1,14,1,2583,4,J,0,right,0.5193410399951972,1,0,,,,,,,,,,,,,,,,,,,,,1,,,,,,,,,,,,,,,,,,,,,,,,,,,,,,,,,,,,,,,,,,,,,,69,151975,20,Female,1,2024/02/20_10:00:12,YZ,None,
,,,,,,test,1,14,1,2583,5,J,1,left,0.3808523109983071,1,0,,,,,,,,,,,,,,,,,,,,,1,,,,,,,,,,,,,,,,,,,,,,,,,,,,,,,,,,,,,,,,,,,,,,69,151975,20,Female,1,2024/02/20_10:00:12,YZ,None,
,,,,,,test,1,14,1,2583,6,F,0,right,0.4169880900008138,1,0,,,,,,,,,,,,,,,,,,,,,1,,,,,,,,,,,,,,,,,,,,,,,,,,,,,,,,,,,,,,,,,,,,,,69,151975,20,Female,1,2024/02/20_10:00:12,YZ,None,
,,,,,,Test,1,14,1,2583,,,,,,,,1.0,1.0,0.0,1.0,0.0,1.0,0.6220172073311309,2,0,0,0,0,4,6,2,4,0,,,,1,,,,,,,,,,,,,,,,,,,,,,,,,,,,,,,,,,,,,,,,,,,,,,69,151975,20,Female,1,2024/02/20_10:00:12,YZ,None,
,,,,,240220_110349,TEST,1,14,1,2583,,,,,,,,,,,,,,,,,,,,,,,,,,,,1,14,14,14,cue1.png,easy,A,60,1.9825733070028946,0,1112.4148258269997,1114.4226676629987,,,,,,,,,,,,,,,,,,,,,,,,,,,,,,,,,,,69,151975,20,Female,1,2024/02/20_10:00:12,YZ,None,
,,,,,,test,1,15,3,2583,1,V,0,right,2.014963754998462,1,0,,,,,,,,,,,,,,,,,,,,,1,,,,,,,,,,,,,,,,,,,,,,,,,,,,,,,,,,,,,,,,,,,,,,69,151975,20,Female,1,2024/02/20_10:00:12,YZ,None,
,,,,,,test,1,15,3,2583,2,J,0,right,0.6466074339987244,1,0,,,,,,,,,,,,,,,,,,,,,1,,,,,,,,,,,,,,,,,,,,,,,,,,,,,,,,,,,,,,,,,,,,,,69,151975,20,Female,1,2024/02/20_10:00:12,YZ,None,
,,,,,,test,1,15,3,2583,3,S,0,right,0.490832332005084,1,0,,,,,,,,,,,,,,,,,,,,,1,,,,,,,,,,,,,,,,,,,,,,,,,,,,,,,,,,,,,,,,,,,,,,69,151975,20,Female,1,2024/02/20_10:00:12,YZ,None,
,,,,,,test,1,15,3,2583,4,Q,0,right,0.5241732959984802,1,0,,,,,,,,,,,,,,,,,,,,,1,,,,,,,,,,,,,,,,,,,,,,,,,,,,,,,,,,,,,,,,,,,,,,69,151975,20,Female,1,2024/02/20_10:00:12,YZ,None,
,,,,,,test,1,15,3,2583,5,J,1,left,0.7117409660058911,1,0,,,,,,,,,,,,,,,,,,,,,1,,,,,,,,,,,,,,,,,,,,,,,,,,,,,,,,,,,,,,,,,,,,,,69,151975,20,Female,1,2024/02/20_10:00:12,YZ,None,
,,,,,,test,1,15,3,2583,6,S,1,left,0.3719693509992794,1,0,,,,,,,,,,,,,,,,,,,,,1,,,,,,,,,,,,,,,,,,,,,,,,,,,,,,,,,,,,,,,,,,,,,,69,151975,20,Female,1,2024/02/20_10:00:12,YZ,None,
,,,,,,Test,1,15,3,2583,,,,,,,,1.0,1.0,0.0,1.0,0.0,1.0,0.7933811890009869,2,0,0,0,0,4,6,2,4,0,,,,1,,,,,,,,,,,,,,,,,,,,,,,,,,,,,,,,,,,,,,,,,,,,,,69,151975,20,Female,1,2024/02/20_10:00:12,YZ,None,
,,,,,240220_110408,TEST,1,15,3,2583,,,,,,,,,,,,,,,,,,,,,,,,,,,,1,15,15,15,cue2.png,hard,A,43,1.6815997750018141,0,1130.412138322994,1132.1102620349993,,,,,,,,,,,,,,,,,,,,,,,,,,,,,,,,,,,69,151975,20,Female,1,2024/02/20_10:00:12,YZ,None,
,,,,,,test,1,16,1,2583,1,N,0,right,0.5652677479956765,1,0,,,,,,,,,,,,,,,,,,,,,1,,,,,,,,,,,,,,,,,,,,,,,,,,,,,,,,,,,,,,,,,,,,,,69,151975,20,Female,1,2024/02/20_10:00:12,YZ,None,
,,,,,,test,1,16,1,2583,2,J,0,right,0.5239509719976922,1,0,,,,,,,,,,,,,,,,,,,,,1,,,,,,,,,,,,,,,,,,,,,,,,,,,,,,,,,,,,,,,,,,,,,,69,151975,20,Female,1,2024/02/20_10:00:12,YZ,None,
,,,,,,test,1,16,1,2583,3,J,1,left,0.39872262199787656,1,0,,,,,,,,,,,,,,,,,,,,,1,,,,,,,,,,,,,,,,,,,,,,,,,,,,,,,,,,,,,,,,,,,,,,69,151975,20,Female,1,2024/02/20_10:00:12,YZ,None,
,,,,,,test,1,16,1,2583,4,X,0,right,0.3991800250005326,1,0,,,,,,,,,,,,,,,,,,,,,1,,,,,,,,,,,,,,,,,,,,,,,,,,,,,,,,,,,,,,,,,,,,,,69,151975,20,Female,1,2024/02/20_10:00:12,YZ,None,
,,,,,,test,1,16,1,2583,5,X,1,left,0.41814739699475467,1,0,,,,,,,,,,,,,,,,,,,,,1,,,,,,,,,,,,,,,,,,,,,,,,,,,,,,,,,,,,,,,,,,,,,,69,151975,20,Female,1,2024/02/20_10:00:12,YZ,None,
,,,,,,test,1,16,1,2583,6,F,0,right,0.3451497450005263,1,0,,,,,,,,,,,,,,,,,,,,,1,,,,,,,,,,,,,,,,,,,,,,,,,,,,,,,,,,,,,,,,,,,,,,69,151975,20,Female,1,2024/02/20_10:00:12,YZ,None,
,,,,,,Test,1,16,1,2583,,,,,,,,1.0,1.0,0.0,1.0,0.0,1.0,0.4417364181645098,2,0,0,0,0,4,6,2,4,0,,,,1,,,,,,,,,,,,,,,,,,,,,,,,,,,,,,,,,,,,,,,,,,,,,,69,151975,20,Female,1,2024/02/20_10:00:12,YZ,None,
,,,,,240220_110424,TEST,1,16,1,2583,,,,,,,,,,,,,,,,,,,,,,,,,,,,1,16,16,16,cue1.png,easy,A,45,1.2221915049958625,0,1149.1427072629958,1150.3909551420002,,,,,,,,,,,,,,,,,,,,,,,,,,,,,,,,,,,69,151975,20,Female,1,2024/02/20_10:00:12,YZ,None,
,,,,,,test,1,17,1,2583,1,V,0,right,2.4150175640024827,1,0,,,,,,,,,,,,,,,,,,,,,1,,,,,,,,,,,,,,,,,,,,,,,,,,,,,,,,,,,,,,,,,,,,,,69,151975,20,Female,1,2024/02/20_10:00:12,YZ,None,
,,,,,,test,1,17,1,2583,2,V,1,left,0.7065989159964374,1,0,,,,,,,,,,,,,,,,,,,,,1,,,,,,,,,,,,,,,,,,,,,,,,,,,,,,,,,,,,,,,,,,,,,,69,151975,20,Female,1,2024/02/20_10:00:12,YZ,None,
,,,,,,test,1,17,1,2583,3,Q,0,right,0.8631657029982307,1,0,,,,,,,,,,,,,,,,,,,,,1,,,,,,,,,,,,,,,,,,,,,,,,,,,,,,,,,,,,,,,,,,,,,,69,151975,20,Female,1,2024/02/20_10:00:12,YZ,None,
,,,,,,test,1,17,1,2583,4,F,0,right,0.5409140369956731,1,0,,,,,,,,,,,,,,,,,,,,,1,,,,,,,,,,,,,,,,,,,,,,,,,,,,,,,,,,,,,,,,,,,,,,69,151975,20,Female,1,2024/02/20_10:00:12,YZ,None,
,,,,,,test,1,17,1,2583,5,F,1,left,0.8386576769989915,1,0,,,,,,,,,,,,,,,,,,,,,1,,,,,,,,,,,,,,,,,,,,,,,,,,,,,,,,,,,,,,,,,,,,,,69,151975,20,Female,1,2024/02/20_10:00:12,YZ,None,
,,,,,,test,1,17,1,2583,6,N,0,right,0.42469147100200644,1,0,,,,,,,,,,,,,,,,,,,,,1,,,,,,,,,,,,,,,,,,,,,,,,,,,,,,,,,,,,,,,,,,,,,,69,151975,20,Female,1,2024/02/20_10:00:12,YZ,None,
,,,,,,Test,1,17,1,2583,,,,,,,,1.0,1.0,0.0,1.0,0.0,1.0,0.9648408946656369,2,0,0,0,0,4,6,2,4,0,,,,1,,,,,,,,,,,,,,,,,,,,,,,,,,,,,,,,,,,,,,,,,,,,,,69,151975,20,Female,1,2024/02/20_10:00:12,YZ,None,
,,,,,240220_110444,TEST,1,17,1,2583,,,,,,,,,,,,,,,,,,,,,,,,,,,,1,17,17,17,cue1.png,easy,A,57,2.464408061998256,0,1165.3042735529962,1167.7808945029974,,,,,,,,,,,,,,,,,,,,,,,,,,,,,,,,,,,69,151975,20,Female,1,2024/02/20_10:00:12,YZ,None,
,,,,,,test,1,18,3,2583,1,C,0,None,nan,0,1,,,,,,,,,,,,,,,,,,,,,1,,,,,,,,,,,,,,,,,,,,,,,,,,,,,,,,,,,,,,,,,,,,,,69,151975,20,Female,1,2024/02/20_10:00:12,YZ,None,
,,,,,,test,1,18,3,2583,2,J,0,left,0.0,0,0,,,,,,,,,,,,,,,,,,,,,1,,,,,,,,,,,,,,,,,,,,,,,,,,,,,,,,,,,,,,,,,,,,,,69,151975,20,Female,1,2024/02/20_10:00:12,YZ,None,
,,,,,,test,1,18,3,2583,3,X,0,left,0.972447280997585,0,0,,,,,,,,,,,,,,,,,,,,,1,,,,,,,,,,,,,,,,,,,,,,,,,,,,,,,,,,,,,,,,,,,,,,69,151975,20,Female,1,2024/02/20_10:00:12,YZ,None,
,,,,,,test,1,18,3,2583,4,C,1,left,0.43338243999460246,1,0,,,,,,,,,,,,,,,,,,,,,1,,,,,,,,,,,,,,,,,,,,,,,,,,,,,,,,,,,,,,,,,,,,,,69,151975,20,Female,1,2024/02/20_10:00:12,YZ,None,
,,,,,,test,1,18,3,2583,5,J,1,right,0.383050672004174,0,0,,,,,,,,,,,,,,,,,,,,,1,,,,,,,,,,,,,,,,,,,,,,,,,,,,,,,,,,,,,,,,,,,,,,69,151975,20,Female,1,2024/02/20_10:00:12,YZ,None,
,,,,,,test,1,18,3,2583,6,V,0,left,0.5411148450002656,0,0,,,,,,,,,,,,,,,,,,,,,1,,,,,,,,,,,,,,,,,,,,,,,,,,,,,,,,,,,,,,,,,,,,,,69,151975,20,Female,1,2024/02/20_10:00:12,YZ,None,
,,,,,,Test,1,18,3,2583,,,,,,,,0.1875,0.5,0.75,0.0,0.16666666666666666,0.08333333333333334,0.4659990475993254,1,3,0,1,1,0,1,2,4,0,,,,1,,,,,,,,,,,,,,,,,,,,,,,,,,,,,,,,,,,,,,,,,,,,,,69,151975,20,Female,1,2024/02/20_10:00:12,YZ,None,
,,,,,240220_110506,TEST,1,18,3,2583,,,,,,,,,,,,,,,,,,,,,,,,,,,,1,18,18,18,cue2.png,hard,A,50,2.631396778000635,0,1185.8422239110005,1188.503227039997,,,,,,,,,,,,,,,,,,,,,,,,,,,,,,,,,,,69,151975,20,Female,1,2024/02/20_10:00:12,YZ,None,
,,,,,,test,1,19,3,2583,1,V,0,right,0.8492117639980279,1,0,,,,,,,,,,,,,,,,,,,,,1,,,,,,,,,,,,,,,,,,,,,,,,,,,,,,,,,,,,,,,,,,,,,,69,151975,20,Female,1,2024/02/20_10:00:12,YZ,None,
,,,,,,test,1,19,3,2583,2,S,0,right,0.26297304699983215,1,0,,,,,,,,,,,,,,,,,,,,,1,,,,,,,,,,,,,,,,,,,,,,,,,,,,,,,,,,,,,,,,,,,,,,69,151975,20,Female,1,2024/02/20_10:00:12,YZ,None,
,,,,,,test,1,19,3,2583,3,F,0,right,0.3926069470035145,1,0,,,,,,,,,,,,,,,,,,,,,1,,,,,,,,,,,,,,,,,,,,,,,,,,,,,,,,,,,,,,,,,,,,,,69,151975,20,Female,1,2024/02/20_10:00:12,YZ,None,
,,,,,,test,1,19,3,2583,4,V,1,left,0.3514958710002247,1,0,,,,,,,,,,,,,,,,,,,,,1,,,,,,,,,,,,,,,,,,,,,,,,,,,,,,,,,,,,,,,,,,,,,,69,151975,20,Female,1,2024/02/20_10:00:12,YZ,None,
,,,,,,test,1,19,3,2583,5,S,1,left,0.34648103800282115,1,0,,,,,,,,,,,,,,,,,,,,,1,,,,,,,,,,,,,,,,,,,,,,,,,,,,,,,,,,,,,,,,,,,,,,69,151975,20,Female,1,2024/02/20_10:00:12,YZ,None,
,,,,,,test,1,19,3,2583,6,V,0,left,0.2795455290033715,0,0,,,,,,,,,,,,,,,,,,,,,1,,,,,,,,,,,,,,,,,,,,,,,,,,,,,,,,,,,,,,,,,,,,,,69,151975,20,Female,1,2024/02/20_10:00:12,YZ,None,
,,,,,,Test,1,19,3,2583,,,,,,,,0.9375,1.0,0.25,0.75,0.0,0.75,0.41371903266796534,2,1,0,0,0,3,5,2,4,0,,,,1,,,,,,,,,,,,,,,,,,,,,,,,,,,,,,,,,,,,,,,,,,,,,,69,151975,20,Female,1,2024/02/20_10:00:12,YZ,None,
,,,,,240220_110523,TEST,1,19,3,2583,,,,,,,,,,,,,,,,,,,,,,,,,,,,1,19,19,19,cue2.png,hard,A,42,2.1139072939986363,0,1207.0839905079993,1209.210173501997,,,,,,,,,,,,,,,,,,,,,,,,,,,,,,,,,,,69,151975,20,Female,1,2024/02/20_10:00:12,YZ,None,
,,,,,,test,1,20,3,2583,1,C,0,right,0.9987852489939542,1,0,,,,,,,,,,,,,,,,,,,,,1,,,,,,,,,,,,,,,,,,,,,,,,,,,,,,,,,,,,,,,,,,,,,,69,151975,20,Female,1,2024/02/20_10:00:12,YZ,None,
,,,,,,test,1,20,3,2583,2,N,0,right,0.5579074650013354,1,0,,,,,,,,,,,,,,,,,,,,,1,,,,,,,,,,,,,,,,,,,,,,,,,,,,,,,,,,,,,,,,,,,,,,69,151975,20,Female,1,2024/02/20_10:00:12,YZ,None,
,,,,,,test,1,20,3,2583,3,S,0,right,0.4525007949996507,1,0,,,,,,,,,,,,,,,,,,,,,1,,,,,,,,,,,,,,,,,,,,,,,,,,,,,,,,,,,,,,,,,,,,,,69,151975,20,Female,1,2024/02/20_10:00:12,YZ,None,
,,,,,,test,1,20,3,2583,4,F,0,right,0.5306148149975343,1,0,,,,,,,,,,,,,,,,,,,,,1,,,,,,,,,,,,,,,,,,,,,,,,,,,,,,,,,,,,,,,,,,,,,,69,151975,20,Female,1,2024/02/20_10:00:12,YZ,None,
,,,,,,test,1,20,3,2583,5,N,1,left,0.7756681589962682,1,0,,,,,,,,,,,,,,,,,,,,,1,,,,,,,,,,,,,,,,,,,,,,,,,,,,,,,,,,,,,,,,,,,,,,69,151975,20,Female,1,2024/02/20_10:00:12,YZ,None,
,,,,,,test,1,20,3,2583,6,S,1,left,0.46464087299682433,1,0,,,,,,,,,,,,,,,,,,,,,1,,,,,,,,,,,,,,,,,,,,,,,,,,,,,,,,,,,,,,,,,,,,,,69,151975,20,Female,1,2024/02/20_10:00:12,YZ,None,
,,,,,,Test,1,20,3,2583,,,,,,,,1.0,1.0,0.0,1.0,0.0,1.0,0.6300195593309278,2,0,0,0,0,4,6,2,4,0,,,,1,,,,,,,,,,,,,,,,,,,,,,,,,,,,,,,,,,,,,,,,,,,,,,69,151975,20,Female,1,2024/02/20_10:00:12,YZ,None,
,,,,,240220_110540,TEST,1,20,3,2583,,,,,,,,,,,,,,,,,,,,,,,,,,,,1,20,20,20,cue2.png,hard,A,37,1.5058580440017977,0,1223.930781889998,1225.4627090779977,,,,,,,,,,,,,,,,,,,,,,,,,,,,,,,,,,,69,151975,20,Female,1,2024/02/20_10:00:12,YZ,None,
,,,,,,test,1,21,1,2583,1,C,0,right,0.5648381970022456,1,0,,,,,,,,,,,,,,,,,,,,,1,,,,,,,,,,,,,,,,,,,,,,,,,,,,,,,,,,,,,,,,,,,,,,69,151975,20,Female,1,2024/02/20_10:00:12,YZ,None,
,,,,,,test,1,21,1,2583,2,X,0,right,0.3394053910014918,1,0,,,,,,,,,,,,,,,,,,,,,1,,,,,,,,,,,,,,,,,,,,,,,,,,,,,,,,,,,,,,,,,,,,,,69,151975,20,Female,1,2024/02/20_10:00:12,YZ,None,
,,,,,,test,1,21,1,2583,3,X,1,left,0.5811399849990266,1,0,,,,,,,,,,,,,,,,,,,,,1,,,,,,,,,,,,,,,,,,,,,,,,,,,,,,,,,,,,,,,,,,,,,,69,151975,20,Female,1,2024/02/20_10:00:12,YZ,None,
,,,,,,test,1,21,1,2583,4,Q,0,right,0.33096571799978847,1,0,,,,,,,,,,,,,,,,,,,,,1,,,,,,,,,,,,,,,,,,,,,,,,,,,,,,,,,,,,,,,,,,,,,,69,151975,20,Female,1,2024/02/20_10:00:12,YZ,None,
,,,,,,test,1,21,1,2583,5,X,0,right,0.7342114130005939,1,0,,,,,,,,,,,,,,,,,,,,,1,,,,,,,,,,,,,,,,,,,,,,,,,,,,,,,,,,,,,,,,,,,,,,69,151975,20,Female,1,2024/02/20_10:00:12,YZ,None,
,,,,,,test,1,21,1,2583,6,X,1,left,0.4467438440042315,1,0,,,,,,,,,,,,,,,,,,,,,1,,,,,,,,,,,,,,,,,,,,,,,,,,,,,,,,,,,,,,,,,,,,,,69,151975,20,Female,1,2024/02/20_10:00:12,YZ,None,
,,,,,,Test,1,21,1,2583,,,,,,,,1.0,1.0,0.0,1.0,0.0,1.0,0.49955075800122967,2,0,0,0,0,4,6,2,4,0,,,,1,,,,,,,,,,,,,,,,,,,,,,,,,,,,,,,,,,,,,,,,,,,,,,69,151975,20,Female,1,2024/02/20_10:00:12,YZ,None,
,,,,,240220_110605,TEST,1,21,1,2583,,,,,,,,,,,,,,,,,,,,,,,,,,,,1,21,22,21,cue1.png,easy,A,65,1.4883605670038378,0,1249.572305886999,1251.0806987199976,,,,,,,,,,,,,,,,,,,,,,,,,,,,,,,,,,,69,151975,20,Female,1,2024/02/20_10:00:12,YZ,None,
,,,,,,test,1,22,3,2583,1,S,0,right,1.3599127009947551,1,0,,,,,,,,,,,,,,,,,,,,,1,,,,,,,,,,,,,,,,,,,,,,,,,,,,,,,,,,,,,,,,,,,,,,69,151975,20,Female,1,2024/02/20_10:00:12,YZ,None,
