Instruction,Stimulus,Key,RT,START,END,Phase,Block,TrialN,NbackLevel,ISI,LetterN,Letter,Letter_isSame,Letter_Resp,Letter_RT,Letter_Accuracy,Letter_Timeout,Trial_A_measure,Trial_HR,Trial_FAR,Trial_CDR,Trial_MSR,Trial_ACC,Trial_RT,Trial_HitsCount,Trial_FAsCount,Trial_SameNoRespCount,Trial_DiffNoRespCount,Trial_NoRespCount,Trial_CDsCount,Trial_CorrectRespCount,Trial_SameLetterCount,Trial_DiffLetterCount,Trial_InvalidLetterCount,TrialCountCali,CaliEnd_A_measure,ISI_calibrated,Run,TrialIndex,TrialNumber_total,TrialNumber_valid,CueLearning,TrialDemandLearning,CueMapping,CueSTART,OfflineRatingTimePoint,OfflineRatingQuesIndex,CueFigure,TrialDemand,OfflineRating,OfflineRatingRT,CueStart,OfflineRatingStart,PhaseType,CueLeft,CueDemandLeft,CueRight,CueDemandRight,Choice,ChoiceDemand,TaskDemand,ChoiceRT,ChoiceTimeOut,ChoiceSTART,CueCheck,CueDemandCheck,CorrectAnswer,Answer,AnswerDemand,AnswerRT,AnswerACC,AnswerTimeOut,CheckSTART,DemandRatingQuesIndex,QuesTLX,DemandLevel,DemandRating,DemandRatingRT,QuesStart,PID,SONA,Age,Gender,Run,TIME,EXPERIMENTER,frameRate,
-1,.\instructions\inst_begin\Slide1.png,left,5.9218780000228435,0.13501209998503327,6.056890100007877,,,,,,,,,,,,,,,,,,,,,,,,,,,,,,,,,1,,,,,,,,,,,,,,,,,,,,,,,,,,,,,,,,,,,,,,,,,,999,999,999,Female,1,2024/04/26_13:24:16,YZ,60.05046640475824,
0,.\instructions\inst_begin\Slide3.png,right,8.661162900039926,6.091682999860495,14.752845899900422,,,,,,,,,,,,,,,,,,,,,,,,,,,,,,,,,1,,,,,,,,,,,,,,,,,,,,,,,,,,,,,,,,,,,,,,,,,,999,999,999,Female,1,2024/04/26_13:24:16,YZ,60.05046640475824,
1,.\instructions\inst_begin\Slide1.png,right,6.081148700090125,14.783712399890646,20.86486109998077,,,,,,,,,,,,,,,,,,,,,,,,,,,,,,,,,1,,,,,,,,,,,,,,,,,,,,,,,,,,,,,,,,,,,,,,,,,,999,999,999,Female,1,2024/04/26_13:24:16,YZ,60.05046640475824,
0,.\instructions\inst_begin\Slide2.png,left,10.415971900103614,20.888887699926272,31.304859600029886,,,,,,,,,,,,,,,,,,,,,,,,,,,,,,,,,1,,,,,,,,,,,,,,,,,,,,,,,,,,,,,,,,,,,,,,,,,,999,999,999,Female,1,2024/04/26_13:24:16,YZ,60.05046640475824,
-1,.\instructions\inst_begin\Slide1.png,left,3.2813210000749677,31.335549999959767,34.616871000034735,,,,,,,,,,,,,,,,,,,,,,,,,,,,,,,,,1,,,,,,,,,,,,,,,,,,,,,,,,,,,,,,,,,,,,,,,,,,999,999,999,Female,1,2024/04/26_13:24:16,YZ,60.05046640475824,
0,.\instructions\inst_begin\Slide3.png,right,4.601344899972901,34.64757729996927,39.24892219994217,,,,,,,,,,,,,,,,,,,,,,,,,,,,,,,,,1,,,,,,,,,,,,,,,,,,,,,,,,,,,,,,,,,,,,,,,,,,999,999,999,Female,1,2024/04/26_13:24:16,YZ,60.05046640475824,
1,.\instructions\inst_begin\Slide1.png,right,2.272995000006631,39.27991529996507,41.5529102999717,,,,,,,,,,,,,,,,,,,,,,,,,,,,,,,,,1,,,,,,,,,,,,,,,,,,,,,,,,,,,,,,,,,,,,,,,,,,999,999,999,Female,1,2024/04/26_13:24:16,YZ,60.05046640475824,
2,.\instructions\inst_begin\Slide2.png,right,3.143970600096509,41.57696929993108,44.72093990002759,,,,,,,,,,,,,,,,,,,,,,,,,,,,,,,,,1,,,,,,,,,,,,,,,,,,,,,,,,,,,,,,,,,,,,,,,,,,999,999,999,Female,1,2024/04/26_13:24:16,YZ,60.05046640475824,
3,.\instructions\inst_begin\Slide3.png,right,2.9774205000139773,44.75152039993554,47.72894089994952,,,,,,,,,,,,,,,,,,,,,,,,,,,,,,,,,1,,,,,,,,,,,,,,,,,,,,,,,,,,,,,,,,,,,,,,,,,,999,999,999,Female,1,2024/04/26_13:24:16,YZ,60.05046640475824,
1,.\instructions\inst_prac_2\Slide1.png,right,12.099450399866328,47.77360139996745,59.873051799833775,,,,,,,,,,,,,,,,,,,,,,,,,,,,,,,,,1,,,,,,,,,,,,,,,,,,,,,,,,,,,,,,,,,,,,,,,,,,999,999,999,Female,1,2024/04/26_13:24:16,YZ,60.05046640475824,
2,.\instructions\inst_prac_2\Slide2.png,right,20.695207700133324,59.905923599842936,80.60113129997626,,,,,,,,,,,,,,,,,,,,,,,,,,,,,,,,,1,,,,,,,,,,,,,,,,,,,,,,,,,,,,,,,,,,,,,,,,,,999,999,999,Female,1,2024/04/26_13:24:16,YZ,60.05046640475824,
3,.\instructions\inst_prac_2\Slide3.png,right,13.384476499864832,80.63261279999278,94.01708929985762,,,,,,,,,,,,,,,,,,,,,,,,,,,,,,,,,1,,,,,,,,,,,,,,,,,,,,,,,,,,,,,,,,,,,,,,,,,,999,999,999,Female,1,2024/04/26_13:24:16,YZ,60.05046640475824,
4,.\instructions\inst_prac_2\Slide4.png,right,9.633332500001416,94.04781869985163,103.68115119985305,,,,,,,,,,,,,,,,,,,,,,,,,,,,,,,,,1,,,,,,,,,,,,,,,,,,,,,,,,,,,,,,,,,,,,,,,,,,999,999,999,Female,1,2024/04/26_13:24:16,YZ,60.05046640475824,
5,.\instructions\inst_prac_2\Slide5.png,right,2.425164100015536,103.71191770001315,106.13708180002868,,,,,,,,,,,,,,,,,,,,,,,,,,,,,,,,,1,,,,,,,,,,,,,,,,,,,,,,,,,,,,,,,,,,,,,,,,,,999,999,999,Female,1,2024/04/26_13:24:16,YZ,60.05046640475824,
6,.\instructions\inst_prac_2\Slide6.png,right,3.5933954999782145,106.16775120003149,109.7611467000097,,,,,,,,,,,,,,,,,,,,,,,,,,,,,,,,,1,,,,,,,,,,,,,,,,,,,,,,,,,,,,,,,,,,,,,,,,,,999,999,999,Female,1,2024/04/26_13:24:16,YZ,60.05046640475824,
7,.\instructions\inst_prac_2\Slide7.png,right,2.8730436000041664,109.79208219982684,112.665125799831,,,,,,,,,,,,,,,,,,,,,,,,,,,,,,,,,1,,,,,,,,,,,,,,,,,,,,,,,,,,,,,,,,,,,,,,,,,,999,999,999,Female,1,2024/04/26_13:24:16,YZ,60.05046640475824,
8,.\instructions\inst_prac_2\Slide8.png,right,1.7773243999108672,112.69581840001047,114.47314279992133,,,,,,,,,,,,,,,,,,,,,,,,,,,,,,,,,1,,,,,,,,,,,,,,,,,,,,,,,,,,,,,,,,,,,,,,,,,,999,999,999,Female,1,2024/04/26_13:24:16,YZ,60.05046640475824,
9,.\instructions\inst_prac_2\Slide9.png,right,14.27333389990963,114.50384879997,128.77718269987963,,,,,,,,,,,,,,,,,,,,,,,,,,,,,,,,,1,,,,,,,,,,,,,,,,,,,,,,,,,,,,,,,,,,,,,,,,,,999,999,999,Female,1,2024/04/26_13:24:16,YZ,60.05046640475824,
10,.\instructions\inst_prac_2\Slide10.png,right,19.217417299980298,128.80789529997855,148.02531259995885,,,,,,,,,,,,,,,,,,,,,,,,,,,,,,,,,1,,,,,,,,,,,,,,,,,,,,,,,,,,,,,,,,,,,,,,,,,,999,999,999,Female,1,2024/04/26_13:24:16,YZ,60.05046640475824,
,,,,,,practice,0,3,2,2583,1,N,0,right,1.7498167001176625,1,0,,,,,,,,,,,,,,,,,,,,,1,,,,,,,,,,,,,,,,,,,,,,,,,,,,,,,,,,,,,,,,,,999,999,999,Female,1,2024/04/26_13:24:16,YZ,60.05046640475824,
,,,,,,practice,0,3,2,2583,2,Q,0,right,0.9734480001498014,1,0,,,,,,,,,,,,,,,,,,,,,1,,,,,,,,,,,,,,,,,,,,,,,,,,,,,,,,,,,,,,,,,,999,999,999,Female,1,2024/04/26_13:24:16,YZ,60.05046640475824,
,,,,,,practice,0,3,2,2583,3,S,0,right,0.6412343999836594,1,0,,,,,,,,,,,,,,,,,,,,,1,,,,,,,,,,,,,,,,,,,,,,,,,,,,,,,,,,,,,,,,,,999,999,999,Female,1,2024/04/26_13:24:16,YZ,60.05046640475824,
,,,,,,practice,0,3,2,2583,4,F,0,right,1.1053899999242276,1,0,,,,,,,,,,,,,,,,,,,,,1,,,,,,,,,,,,,,,,,,,,,,,,,,,,,,,,,,,,,,,,,,999,999,999,Female,1,2024/04/26_13:24:16,YZ,60.05046640475824,
,,,,,,practice,0,3,2,2583,5,S,1,left,0.9524805000983179,1,0,,,,,,,,,,,,,,,,,,,,,1,,,,,,,,,,,,,,,,,,,,,,,,,,,,,,,,,,,,,,,,,,999,999,999,Female,1,2024/04/26_13:24:16,YZ,60.05046640475824,
,,,,,,practice,0,3,2,2583,6,F,1,left,0.8852258000988513,1,0,,,,,,,,,,,,,,,,,,,,,1,,,,,,,,,,,,,,,,,,,,,,,,,,,,,,,,,,,,,,,,,,999,999,999,Female,1,2024/04/26_13:24:16,YZ,60.05046640475824,
,,,,,,practice,0,3,2,2583,,,,,,,,1.0,1.0,0.0,1.0,0.0,1.0,1.0512659000620868,2,0,0,0,0,4,6,2,4,0,,,,1,,,,,,,,,,,,,,,,,,,,,,,,,,,,,,,,,,,,,,,,,,999,999,999,Female,1,2024/04/26_13:24:16,YZ,60.05046640475824,
1,.\instructions\inst_to_cali\Slide1.png,right,4.778990699909627,160.0703604000155,164.84935109992512,,,,,,,,,,,,,,,,,,,,,,,,,,,,,,,,,1,,,,,,,,,,,,,,,,,,,,,,,,,,,,,,,,,,,,,,,,,,999,999,999,Female,1,2024/04/26_13:24:16,YZ,60.05046640475824,
1,.\instructions\inst_cali\Slide1.png,right,13.488987799966708,164.89639030001126,178.38537809997797,,,,,,,,,,,,,,,,,,,,,,,,,,,,,,,,,1,,,,,,,,,,,,,,,,,,,,,,,,,,,,,,,,,,,,,,,,,,999,999,999,Female,1,2024/04/26_13:24:16,YZ,60.05046640475824,
,,,,,,calibration,0,14,2,583,1,X,0,right,0.5580945999827236,1,0,,,,,,,,,,,,,,,,,,,,,1,,,,,,,,,,,,,,,,,,,,,,,,,,,,,,,,,,,,,,,,,,999,999,999,Female,1,2024/04/26_13:24:16,YZ,60.05046640475824,
,,,,,,calibration,0,14,2,583,2,Q,0,right,0.342915500048548,1,0,,,,,,,,,,,,,,,,,,,,,1,,,,,,,,,,,,,,,,,,,,,,,,,,,,,,,,,,,,,,,,,,999,999,999,Female,1,2024/04/26_13:24:16,YZ,60.05046640475824,
,,,,,,calibration,0,14,2,583,3,S,0,right,0.9378847000189126,1,0,,,,,,,,,,,,,,,,,,,,,1,,,,,,,,,,,,,,,,,,,,,,,,,,,,,,,,,,,,,,,,,,999,999,999,Female,1,2024/04/26_13:24:16,YZ,60.05046640475824,
,,,,,,calibration,0,14,2,583,4,Q,1,right,0.30352580011822283,0,0,,,,,,,,,,,,,,,,,,,,,1,,,,,,,,,,,,,,,,,,,,,,,,,,,,,,,,,,,,,,,,,,999,999,999,Female,1,2024/04/26_13:24:16,YZ,60.05046640475824,
,,,,,,calibration,0,14,2,583,5,V,0,right,0.684465300058946,1,0,,,,,,,,,,,,,,,,,,,,,1,,,,,,,,,,,,,,,,,,,,,,,,,,,,,,,,,,,,,,,,,,999,999,999,Female,1,2024/04/26_13:24:16,YZ,60.05046640475824,
,,,,,,calibration,0,14,2,583,6,Q,1,left,0.3938382000196725,1,0,,,,,,,,,,,,,,,,,,,,,1,,,,,,,,,,,,,,,,,,,,,,,,,,,,,,,,,,,,,,,,,,999,999,999,Female,1,2024/04/26_13:24:16,YZ,60.05046640475824,
,,,,,,calibration,0,14,2,583,7,C,0,right,0.6263222999405116,1,0,,,,,,,,,,,,,,,,,,,,,1,,,,,,,,,,,,,,,,,,,,,,,,,,,,,,,,,,,,,,,,,,999,999,999,Female,1,2024/04/26_13:24:16,YZ,60.05046640475824,
,,,,,,calibration,0,14,2,583,8,Q,1,left,0.6751993000507355,1,0,,,,,,,,,,,,,,,,,,,,,1,,,,,,,,,,,,,,,,,,,,,,,,,,,,,,,,,,,,,,,,,,999,999,999,Female,1,2024/04/26_13:24:16,YZ,60.05046640475824,
,,,,,,calibration,0,14,2,583,9,V,0,right,0.5798823998775333,1,0,,,,,,,,,,,,,,,,,,,,,1,,,,,,,,,,,,,,,,,,,,,,,,,,,,,,,,,,,,,,,,,,999,999,999,Female,1,2024/04/26_13:24:16,YZ,60.05046640475824,
,,,,,,calibration,0,14,2,583,10,Q,1,right,0.4974436000920832,0,0,,,,,,,,,,,,,,,,,,,,,1,,,,,,,,,,,,,,,,,,,,,,,,,,,,,,,,,,,,,,,,,,999,999,999,Female,1,2024/04/26_13:24:16,YZ,60.05046640475824,
,,,,,,calibration,0,14,2,583,11,V,1,left,0.6011450998485088,1,0,,,,,,,,,,,,,,,,,,,,,1,,,,,,,,,,,,,,,,,,,,,,,,,,,,,,,,,,,,,,,,,,999,999,999,Female,1,2024/04/26_13:24:16,YZ,60.05046640475824,
,,,,,,calibration,0,14,2,583,12,S,0,right,0.5179554000496864,1,0,,,,,,,,,,,,,,,,,,,,,1,,,,,,,,,,,,,,,,,,,,,,,,,,,,,,,,,,,,,,,,,,999,999,999,Female,1,2024/04/26_13:24:16,YZ,60.05046640475824,
,,,,,,calibration,0,14,2,583,13,Q,0,right,0.7096005000639707,1,0,,,,,,,,,,,,,,,,,,,,,1,,,,,,,,,,,,,,,,,,,,,,,,,,,,,,,,,,,,,,,,,,999,999,999,Female,1,2024/04/26_13:24:16,YZ,60.05046640475824,
,,,,,,calibration,0,14,2,583,14,J,0,right,0.4217314999550581,1,0,,,,,,,,,,,,,,,,,,,,,1,,,,,,,,,,,,,,,,,,,,,,,,,,,,,,,,,,,,,,,,,,999,999,999,Female,1,2024/04/26_13:24:16,YZ,60.05046640475824,
,,,,,,calibration,0,14,2,583,15,V,0,right,0.4862801998388022,1,0,,,,,,,,,,,,,,,,,,,,,1,,,,,,,,,,,,,,,,,,,,,,,,,,,,,,,,,,,,,,,,,,999,999,999,Female,1,2024/04/26_13:24:16,YZ,60.05046640475824,
,,,,,,calibration,0,14,2,583,,,,,,,,0.77,0.6,0.2,1.0,0.0,0.8,0.5557522933309277,3,2,0,0,0,10,13,5,10,0,,,,1,,,,,,,,,,,,,,,,,,,,,,,,,,,,,,,,,,,,,,,,,,999,999,999,Female,1,2024/04/26_13:24:16,YZ,60.05046640475824,
,,,,,,Calibration,0,,2,583,,,,,,,,,,,,,,,,,,,,,,,,,1,,,1,,,,,,,,,,,,,,,,,,,,,,,,,,,,,,,,,,,,,,,,,,999,999,999,Female,1,2024/04/26_13:24:16,YZ,60.05046640475824,
,,,,,,CALIBRATION,0,,,,,,,,,,,,,,,,,,,,,,,,,,,,1,0.77,583,1,,,,,,,,,,,,,,,,,,,,,,,,,,,,,,,,,,,,,,,,,,999,999,999,Female,1,2024/04/26_13:24:16,YZ,60.05046640475824,
1,.\instructions\inst_prac_1\Slide1.png,right,9.27776959980838,197.8117549000308,207.08952449983917,,,,,,,,,,,,,,,,,,,,,,,,,,,,,,,,,1,,,,,,,,,,,,,,,,,,,,,,,,,,,,,,,,,,,,,,,,,,999,999,999,Female,1,2024/04/26_13:24:16,YZ,60.05046640475824,
2,.\instructions\inst_prac_1\Slide2.png,right,4.476246000034735,207.1252180999145,211.60146409994923,,,,,,,,,,,,,,,,,,,,,,,,,,,,,,,,,1,,,,,,,,,,,,,,,,,,,,,,,,,,,,,,,,,,,,,,,,,,999,999,999,Female,1,2024/04/26_13:24:16,YZ,60.05046640475824,
3,.\instructions\inst_prac_1\Slide3.png,right,1.552542199846357,211.63298100000247,213.18552319984883,,,,,,,,,,,,,,,,,,,,,,,,,,,,,,,,,1,,,,,,,,,,,,,,,,,,,,,,,,,,,,,,,,,,,,,,,,,,999,999,999,Female,1,2024/04/26_13:24:16,YZ,60.05046640475824,
4,.\instructions\inst_prac_1\Slide4.png,right,1.3372945000883192,213.21614989987575,214.55344439996406,,,,,,,,,,,,,,,,,,,,,,,,,,,,,,,,,1,,,,,,,,,,,,,,,,,,,,,,,,,,,,,,,,,,,,,,,,,,999,999,999,Female,1,2024/04/26_13:24:16,YZ,60.05046640475824,
5,.\instructions\inst_prac_1\Slide5.png,right,0.9767031001392752,214.5847594998777,215.56146260001697,,,,,,,,,,,,,,,,,,,,,,,,,,,,,,,,,1,,,,,,,,,,,,,,,,,,,,,,,,,,,,,,,,,,,,,,,,,,999,999,999,Female,1,2024/04/26_13:24:16,YZ,60.05046640475824,
6,.\instructions\inst_prac_1\Slide6.png,right,8.72102540009655,215.59247819986194,224.3135035999585,,,,,,,,,,,,,,,,,,,,,,,,,,,,,,,,,1,,,,,,,,,,,,,,,,,,,,,,,,,,,,,,,,,,,,,,,,,,999,999,999,Female,1,2024/04/26_13:24:16,YZ,60.05046640475824,
7,.\instructions\inst_prac_1\Slide7.png,right,5.129149300046265,224.34434119984508,229.47349049989134,,,,,,,,,,,,,,,,,,,,,,,,,,,,,,,,,1,,,,,,,,,,,,,,,,,,,,,,,,,,,,,,,,,,,,,,,,,,999,999,999,Female,1,2024/04/26_13:24:16,YZ,60.05046640475824,
,,,,,,practice,0,29,1,1250,1,J,0,right,0.9299969000276178,1,0,,,,,,,,,,,,,,,,,,,,,1,,,,,,,,,,,,,,,,,,,,,,,,,,,,,,,,,,,,,,,,,,999,999,999,Female,1,2024/04/26_13:24:16,YZ,60.05046640475824,
,,,,,,practice,0,29,1,1250,2,Q,0,right,0.7569249998778105,1,0,,,,,,,,,,,,,,,,,,,,,1,,,,,,,,,,,,,,,,,,,,,,,,,,,,,,,,,,,,,,,,,,999,999,999,Female,1,2024/04/26_13:24:16,YZ,60.05046640475824,
,,,,,,practice,0,29,1,1250,3,C,0,right,0.7182577000930905,1,0,,,,,,,,,,,,,,,,,,,,,1,,,,,,,,,,,,,,,,,,,,,,,,,,,,,,,,,,,,,,,,,,999,999,999,Female,1,2024/04/26_13:24:16,YZ,60.05046640475824,
,,,,,,practice,0,29,1,1250,4,X,0,right,0.45938170002773404,1,0,,,,,,,,,,,,,,,,,,,,,1,,,,,,,,,,,,,,,,,,,,,,,,,,,,,,,,,,,,,,,,,,999,999,999,Female,1,2024/04/26_13:24:16,YZ,60.05046640475824,
,,,,,,practice,0,29,1,1250,5,V,0,right,0.4921281000133604,1,0,,,,,,,,,,,,,,,,,,,,,1,,,,,,,,,,,,,,,,,,,,,,,,,,,,,,,,,,,,,,,,,,999,999,999,Female,1,2024/04/26_13:24:16,YZ,60.05046640475824,
,,,,,,practice,0,29,1,1250,6,V,1,left,0.7631852999329567,1,0,,,,,,,,,,,,,,,,,,,,,1,,,,,,,,,,,,,,,,,,,,,,,,,,,,,,,,,,,,,,,,,,999,999,999,Female,1,2024/04/26_13:24:16,YZ,60.05046640475824,
,,,,,,practice,0,29,1,1250,7,C,0,right,0.6449375997763127,1,0,,,,,,,,,,,,,,,,,,,,,1,,,,,,,,,,,,,,,,,,,,,,,,,,,,,,,,,,,,,,,,,,999,999,999,Female,1,2024/04/26_13:24:16,YZ,60.05046640475824,
,,,,,,practice,0,29,1,1250,8,C,1,left,0.5143270001281053,1,0,,,,,,,,,,,,,,,,,,,,,1,,,,,,,,,,,,,,,,,,,,,,,,,,,,,,,,,,,,,,,,,,999,999,999,Female,1,2024/04/26_13:24:16,YZ,60.05046640475824,
,,,,,,practice,0,29,1,1250,9,Q,0,right,0.6760281999595463,1,0,,,,,,,,,,,,,,,,,,,,,1,,,,,,,,,,,,,,,,,,,,,,,,,,,,,,,,,,,,,,,,,,999,999,999,Female,1,2024/04/26_13:24:16,YZ,60.05046640475824,
,,,,,,practice,0,29,1,1250,10,Q,1,left,0.5837440001778305,1,0,,,,,,,,,,,,,,,,,,,,,1,,,,,,,,,,,,,,,,,,,,,,,,,,,,,,,,,,,,,,,,,,999,999,999,Female,1,2024/04/26_13:24:16,YZ,60.05046640475824,
,,,,,,practice,0,29,1,1250,,,,,,,,1.0,1.0,0.0,1.0,0.0,1.0,0.6538911500014365,3,0,0,0,0,7,10,3,7,0,,,,1,,,,,,,,,,,,,,,,,,,,,,,,,,,,,,,,,,,,,,,,,,999,999,999,Female,1,2024/04/26_13:24:16,YZ,60.05046640475824,
1,.\instructions\inst_prac_1_next\Slide1.png,right,4.832431999966502,245.5364653998986,250.3688973998651,,,,,,,,,,,,,,,,,,,,,,,,,,,,,,,,,1,,,,,,,,,,,,,,,,,,,,,,,,,,,,,,,,,,,,,,,,,,999,999,999,Female,1,2024/04/26_13:24:16,YZ,60.05046640475824,
,,,,,,practice,0,35,1,583,1,Q,0,right,0.8860983001068234,1,0,,,,,,,,,,,,,,,,,,,,,1,,,,,,,,,,,,,,,,,,,,,,,,,,,,,,,,,,,,,,,,,,999,999,999,Female,1,2024/04/26_13:24:16,YZ,60.05046640475824,
,,,,,,practice,0,35,1,583,2,N,0,right,0.5752131999470294,1,0,,,,,,,,,,,,,,,,,,,,,1,,,,,,,,,,,,,,,,,,,,,,,,,,,,,,,,,,,,,,,,,,999,999,999,Female,1,2024/04/26_13:24:16,YZ,60.05046640475824,
,,,,,,practice,0,35,1,583,3,N,1,left,0.8353806999512017,1,0,,,,,,,,,,,,,,,,,,,,,1,,,,,,,,,,,,,,,,,,,,,,,,,,,,,,,,,,,,,,,,,,999,999,999,Female,1,2024/04/26_13:24:16,YZ,60.05046640475824,
,,,,,,practice,0,35,1,583,4,V,0,right,0.545206599868834,1,0,,,,,,,,,,,,,,,,,,,,,1,,,,,,,,,,,,,,,,,,,,,,,,,,,,,,,,,,,,,,,,,,999,999,999,Female,1,2024/04/26_13:24:16,YZ,60.05046640475824,
,,,,,,practice,0,35,1,583,5,S,0,right,0.5015173000283539,1,0,,,,,,,,,,,,,,,,,,,,,1,,,,,,,,,,,,,,,,,,,,,,,,,,,,,,,,,,,,,,,,,,999,999,999,Female,1,2024/04/26_13:24:16,YZ,60.05046640475824,
,,,,,,practice,0,35,1,583,6,F,0,right,0.6862894999794662,1,0,,,,,,,,,,,,,,,,,,,,,1,,,,,,,,,,,,,,,,,,,,,,,,,,,,,,,,,,,,,,,,,,999,999,999,Female,1,2024/04/26_13:24:16,YZ,60.05046640475824,
,,,,,,practice,0,35,1,583,7,C,0,right,0.4693344999104738,1,0,,,,,,,,,,,,,,,,,,,,,1,,,,,,,,,,,,,,,,,,,,,,,,,,,,,,,,,,,,,,,,,,999,999,999,Female,1,2024/04/26_13:24:16,YZ,60.05046640475824,
,,,,,,practice,0,35,1,583,8,V,0,right,0.46932510007172823,1,0,,,,,,,,,,,,,,,,,,,,,1,,,,,,,,,,,,,,,,,,,,,,,,,,,,,,,,,,,,,,,,,,999,999,999,Female,1,2024/04/26_13:24:16,YZ,60.05046640475824,
,,,,,,practice,0,35,1,583,9,C,0,right,0.4295917998533696,1,0,,,,,,,,,,,,,,,,,,,,,1,,,,,,,,,,,,,,,,,,,,,,,,,,,,,,,,,,,,,,,,,,999,999,999,Female,1,2024/04/26_13:24:16,YZ,60.05046640475824,
,,,,,,practice,0,35,1,583,10,C,1,left,0.3576356000266969,1,0,,,,,,,,,,,,,,,,,,,,,1,,,,,,,,,,,,,,,,,,,,,,,,,,,,,,,,,,,,,,,,,,999,999,999,Female,1,2024/04/26_13:24:16,YZ,60.05046640475824,
,,,,,,practice,0,35,1,583,11,J,0,right,0.4992436000611633,1,0,,,,,,,,,,,,,,,,,,,,,1,,,,,,,,,,,,,,,,,,,,,,,,,,,,,,,,,,,,,,,,,,999,999,999,Female,1,2024/04/26_13:24:16,YZ,60.05046640475824,
,,,,,,practice,0,35,1,583,12,J,1,left,0.5502043000888079,1,0,,,,,,,,,,,,,,,,,,,,,1,,,,,,,,,,,,,,,,,,,,,,,,,,,,,,,,,,,,,,,,,,999,999,999,Female,1,2024/04/26_13:24:16,YZ,60.05046640475824,
,,,,,,practice,0,35,1,583,13,C,0,right,0.5827468000352383,1,0,,,,,,,,,,,,,,,,,,,,,1,,,,,,,,,,,,,,,,,,,,,,,,,,,,,,,,,,,,,,,,,,999,999,999,Female,1,2024/04/26_13:24:16,YZ,60.05046640475824,
,,,,,,practice,0,35,1,583,14,C,1,left,0.5479994998313487,1,0,,,,,,,,,,,,,,,,,,,,,1,,,,,,,,,,,,,,,,,,,,,,,,,,,,,,,,,,,,,,,,,,999,999,999,Female,1,2024/04/26_13:24:16,YZ,60.05046640475824,
,,,,,,practice,0,35,1,583,15,V,0,right,0.533761200029403,1,0,,,,,,,,,,,,,,,,,,,,,1,,,,,,,,,,,,,,,,,,,,,,,,,,,,,,,,,,,,,,,,,,999,999,999,Female,1,2024/04/26_13:24:16,YZ,60.05046640475824,
,,,,,,practice,0,35,1,583,,,,,,,,1.0,1.0,0.0,1.0,0.0,1.0,0.5646365333193292,4,0,0,0,0,11,15,4,11,0,,,,1,,,,,,,,,,,,,,,,,,,,,,,,,,,,,,,,,,,,,,,,,,999,999,999,Female,1,2024/04/26_13:24:16,YZ,60.05046640475824,
,,,,,,practice,0,7,1,583,1,F,0,right,0.6001586997881532,1,0,,,,,,,,,,,,,,,,,,,,,1,,,,,,,,,,,,,,,,,,,,,,,,,,,,,,,,,,,,,,,,,,999,999,999,Female,1,2024/04/26_13:24:16,YZ,60.05046640475824,
,,,,,,practice,0,7,1,583,2,V,0,right,0.36534000001847744,1,0,,,,,,,,,,,,,,,,,,,,,1,,,,,,,,,,,,,,,,,,,,,,,,,,,,,,,,,,,,,,,,,,999,999,999,Female,1,2024/04/26_13:24:16,YZ,60.05046640475824,
,,,,,,practice,0,7,1,583,3,V,1,left,0.5217071000952274,1,0,,,,,,,,,,,,,,,,,,,,,1,,,,,,,,,,,,,,,,,,,,,,,,,,,,,,,,,,,,,,,,,,999,999,999,Female,1,2024/04/26_13:24:16,YZ,60.05046640475824,
,,,,,,practice,0,7,1,583,4,J,0,right,0.39831770001910627,1,0,,,,,,,,,,,,,,,,,,,,,1,,,,,,,,,,,,,,,,,,,,,,,,,,,,,,,,,,,,,,,,,,999,999,999,Female,1,2024/04/26_13:24:16,YZ,60.05046640475824,
,,,,,,practice,0,7,1,583,5,S,0,right,0.2925088000483811,1,0,,,,,,,,,,,,,,,,,,,,,1,,,,,,,,,,,,,,,,,,,,,,,,,,,,,,,,,,,,,,,,,,999,999,999,Female,1,2024/04/26_13:24:16,YZ,60.05046640475824,
,,,,,,practice,0,7,1,583,6,S,1,right,0.3284305001143366,0,0,,,,,,,,,,,,,,,,,,,,,1,,,,,,,,,,,,,,,,,,,,,,,,,,,,,,,,,,,,,,,,,,999,999,999,Female,1,2024/04/26_13:24:16,YZ,60.05046640475824,
,,,,,,practice,0,7,1,583,7,F,0,right,0.42577229999005795,1,0,,,,,,,,,,,,,,,,,,,,,1,,,,,,,,,,,,,,,,,,,,,,,,,,,,,,,,,,,,,,,,,,999,999,999,Female,1,2024/04/26_13:24:16,YZ,60.05046640475824,
,,,,,,practice,0,7,1,583,8,F,1,left,0.5195076998788863,1,0,,,,,,,,,,,,,,,,,,,,,1,,,,,,,,,,,,,,,,,,,,,,,,,,,,,,,,,,,,,,,,,,999,999,999,Female,1,2024/04/26_13:24:16,YZ,60.05046640475824,
,,,,,,practice,0,7,1,583,9,J,0,right,0.45704429992474616,1,0,,,,,,,,,,,,,,,,,,,,,1,,,,,,,,,,,,,,,,,,,,,,,,,,,,,,,,,,,,,,,,,,999,999,999,Female,1,2024/04/26_13:24:16,YZ,60.05046640475824,
,,,,,,practice,0,7,1,583,10,J,1,left,0.6022245001513511,1,0,,,,,,,,,,,,,,,,,,,,,1,,,,,,,,,,,,,,,,,,,,,,,,,,,,,,,,,,,,,,,,,,999,999,999,Female,1,2024/04/26_13:24:16,YZ,60.05046640475824,
,,,,,,practice,0,7,1,583,11,N,0,right,0.5495261000469327,1,0,,,,,,,,,,,,,,,,,,,,,1,,,,,,,,,,,,,,,,,,,,,,,,,,,,,,,,,,,,,,,,,,999,999,999,Female,1,2024/04/26_13:24:16,YZ,60.05046640475824,
,,,,,,practice,0,7,1,583,12,J,0,right,0.5940050999633968,1,0,,,,,,,,,,,,,,,,,,,,,1,,,,,,,,,,,,,,,,,,,,,,,,,,,,,,,,,,,,,,,,,,999,999,999,Female,1,2024/04/26_13:24:16,YZ,60.05046640475824,
,,,,,,practice,0,7,1,583,13,N,0,right,0.4421759000979364,1,0,,,,,,,,,,,,,,,,,,,,,1,,,,,,,,,,,,,,,,,,,,,,,,,,,,,,,,,,,,,,,,,,999,999,999,Female,1,2024/04/26_13:24:16,YZ,60.05046640475824,
,,,,,,practice,0,7,1,583,14,C,0,right,0.49923250009305775,1,0,,,,,,,,,,,,,,,,,,,,,1,,,,,,,,,,,,,,,,,,,,,,,,,,,,,,,,,,,,,,,,,,999,999,999,Female,1,2024/04/26_13:24:16,YZ,60.05046640475824,
,,,,,,practice,0,7,1,583,15,C,1,right,1.3156632999889553,0,0,,,,,,,,,,,,,,,,,,,,,1,,,,,,,,,,,,,,,,,,,,,,,,,,,,,,,,,,,,,,,,,,999,999,999,Female,1,2024/04/26_13:24:16,YZ,60.05046640475824,
,,,,,,practice,0,7,1,583,,,,,,,,0.77,0.6,0.2,1.0,0.0,0.8,0.5274409666812668,3,2,0,0,0,10,13,5,10,0,,,,1,,,,,,,,,,,,,,,,,,,,,,,,,,,,,,,,,,,,,,,,,,999,999,999,Female,1,2024/04/26_13:24:16,YZ,60.05046640475824,
1,.\instructions\inst_prac_3\Slide1.png,right,22.255707999924198,283.65813190001063,305.9138398999348,,,,,,,,,,,,,,,,,,,,,,,,,,,,,,,,,1,,,,,,,,,,,,,,,,,,,,,,,,,,,,,,,,,,,,,,,,,,999,999,999,Female,1,2024/04/26_13:24:16,YZ,60.05046640475824,
2,.\instructions\inst_prac_3\Slide2.png,right,2.89094420010224,305.95079969987273,308.841743899975,,,,,,,,,,,,,,,,,,,,,,,,,,,,,,,,,1,,,,,,,,,,,,,,,,,,,,,,,,,,,,,,,,,,,,,,,,,,999,999,999,Female,1,2024/04/26_13:24:16,YZ,60.05046640475824,
3,.\instructions\inst_prac_3\Slide3.png,right,2.0032901999074966,308.8730315999128,310.8763217998203,,,,,,,,,,,,,,,,,,,,,,,,,,,,,,,,,1,,,,,,,,,,,,,,,,,,,,,,,,,,,,,,,,,,,,,,,,,,999,999,999,Female,1,2024/04/26_13:24:16,YZ,60.05046640475824,
4,.\instructions\inst_prac_3\Slide4.png,right,3.2225550999864936,310.90722239995375,314.12977749994025,,,,,,,,,,,,,,,,,,,,,,,,,,,,,,,,,1,,,,,,,,,,,,,,,,,,,,,,,,,,,,,,,,,,,,,,,,,,999,999,999,Female,1,2024/04/26_13:24:16,YZ,60.05046640475824,
5,.\instructions\inst_prac_3\Slide5.png,right,2.0493489000946283,314.16045179986395,316.2098006999586,,,,,,,,,,,,,,,,,,,,,,,,,,,,,,,,,1,,,,,,,,,,,,,,,,,,,,,,,,,,,,,,,,,,,,,,,,,,999,999,999,Female,1,2024/04/26_13:24:16,YZ,60.05046640475824,
6,.\instructions\inst_prac_3\Slide6.png,right,2.289355799788609,316.2404634000268,318.5298191998154,,,,,,,,,,,,,,,,,,,,,,,,,,,,,,,,,1,,,,,,,,,,,,,,,,,,,,,,,,,,,,,,,,,,,,,,,,,,999,999,999,Female,1,2024/04/26_13:24:16,YZ,60.05046640475824,
7,.\instructions\inst_prac_3\Slide7.png,right,10.609233099967241,318.56058519985527,329.1698182998225,,,,,,,,,,,,,,,,,,,,,,,,,,,,,,,,,1,,,,,,,,,,,,,,,,,,,,,,,,,,,,,,,,,,,,,,,,,,999,999,999,Female,1,2024/04/26_13:24:16,YZ,60.05046640475824,
8,.\instructions\inst_prac_3\Slide8.png,right,3.136955900117755,329.2008419998456,332.33779789996333,,,,,,,,,,,,,,,,,,,,,,,,,,,,,,,,,1,,,,,,,,,,,,,,,,,,,,,,,,,,,,,,,,,,,,,,,,,,999,999,999,Female,1,2024/04/26_13:24:16,YZ,60.05046640475824,
,,,,,,practice,0,6,3,788,1,S,0,right,1.3309935999568552,1,0,,,,,,,,,,,,,,,,,,,,,1,,,,,,,,,,,,,,,,,,,,,,,,,,,,,,,,,,,,,,,,,,999,999,999,Female,1,2024/04/26_13:24:16,YZ,60.05046640475824,
,,,,,,practice,0,6,3,788,2,N,0,right,1.1067192999180406,1,0,,,,,,,,,,,,,,,,,,,,,1,,,,,,,,,,,,,,,,,,,,,,,,,,,,,,,,,,,,,,,,,,999,999,999,Female,1,2024/04/26_13:24:16,YZ,60.05046640475824,
,,,,,,practice,0,6,3,788,3,V,0,right,1.1352129001170397,1,0,,,,,,,,,,,,,,,,,,,,,1,,,,,,,,,,,,,,,,,,,,,,,,,,,,,,,,,,,,,,,,,,999,999,999,Female,1,2024/04/26_13:24:16,YZ,60.05046640475824,
,,,,,,practice,0,6,3,788,4,S,1,left,0.8471906001213938,1,0,,,,,,,,,,,,,,,,,,,,,1,,,,,,,,,,,,,,,,,,,,,,,,,,,,,,,,,,,,,,,,,,999,999,999,Female,1,2024/04/26_13:24:16,YZ,60.05046640475824,
,,,,,,practice,0,6,3,788,5,C,0,right,1.2379554000217468,1,0,,,,,,,,,,,,,,,,,,,,,1,,,,,,,,,,,,,,,,,,,,,,,,,,,,,,,,,,,,,,,,,,999,999,999,Female,1,2024/04/26_13:24:16,YZ,60.05046640475824,
,,,,,,practice,0,6,3,788,6,C,0,right,1.1101420000195503,1,0,,,,,,,,,,,,,,,,,,,,,1,,,,,,,,,,,,,,,,,,,,,,,,,,,,,,,,,,,,,,,,,,999,999,999,Female,1,2024/04/26_13:24:16,YZ,60.05046640475824,
,,,,,,practice,0,6,3,788,7,N,0,right,1.0748682001139969,1,0,,,,,,,,,,,,,,,,,,,,,1,,,,,,,,,,,,,,,,,,,,,,,,,,,,,,,,,,,,,,,,,,999,999,999,Female,1,2024/04/26_13:24:16,YZ,60.05046640475824,
,,,,,,practice,0,6,3,788,8,Q,0,right,1.344705899944529,1,0,,,,,,,,,,,,,,,,,,,,,1,,,,,,,,,,,,,,,,,,,,,,,,,,,,,,,,,,,,,,,,,,999,999,999,Female,1,2024/04/26_13:24:16,YZ,60.05046640475824,
,,,,,,practice,0,6,3,788,9,S,0,right,1.1227621000725776,1,0,,,,,,,,,,,,,,,,,,,,,1,,,,,,,,,,,,,,,,,,,,,,,,,,,,,,,,,,,,,,,,,,999,999,999,Female,1,2024/04/26_13:24:16,YZ,60.05046640475824,
,,,,,,practice,0,6,3,788,10,N,1,left,0.8791590998880565,1,0,,,,,,,,,,,,,,,,,,,,,1,,,,,,,,,,,,,,,,,,,,,,,,,,,,,,,,,,,,,,,,,,999,999,999,Female,1,2024/04/26_13:24:16,YZ,60.05046640475824,
,,,,,,practice,0,6,3,788,11,S,0,right,0.9232373998966068,1,0,,,,,,,,,,,,,,,,,,,,,1,,,,,,,,,,,,,,,,,,,,,,,,,,,,,,,,,,,,,,,,,,999,999,999,Female,1,2024/04/26_13:24:16,YZ,60.05046640475824,
,,,,,,practice,0,6,3,788,12,S,1,left,1.2059746999293566,1,0,,,,,,,,,,,,,,,,,,,,,1,,,,,,,,,,,,,,,,,,,,,,,,,,,,,,,,,,,,,,,,,,999,999,999,Female,1,2024/04/26_13:24:16,YZ,60.05046640475824,
,,,,,,practice,0,6,3,788,13,N,1,left,1.0808740998618305,1,0,,,,,,,,,,,,,,,,,,,,,1,,,,,,,,,,,,,,,,,,,,,,,,,,,,,,,,,,,,,,,,,,999,999,999,Female,1,2024/04/26_13:24:16,YZ,60.05046640475824,
,,,,,,practice,0,6,3,788,,,,,,,,1.0,1.0,0.0,1.0,0.0,1.0,1.107676561527814,4,0,0,0,0,9,13,4,9,0,,,,1,,,,,,,,,,,,,,,,,,,,,,,,,,,,,,,,,,,,,,,,,,999,999,999,Female,1,2024/04/26_13:24:16,YZ,60.05046640475824,
1,.\instructions\inst_prac_3_next\Slide1.png,right,21.164161500055343,359.061928199837,380.2260896998923,,,,,,,,,,,,,,,,,,,,,,,,,,,,,,,,,1,,,,,,,,,,,,,,,,,,,,,,,,,,,,,,,,,,,,,,,,,,999,999,999,Female,1,2024/04/26_13:24:16,YZ,60.05046640475824,
,,,,,,practice,0,27,3,583,1,C,0,right,0.6101435001473874,1,0,,,,,,,,,,,,,,,,,,,,,1,,,,,,,,,,,,,,,,,,,,,,,,,,,,,,,,,,,,,,,,,,999,999,999,Female,1,2024/04/26_13:24:16,YZ,60.05046640475824,
,,,,,,practice,0,27,3,583,2,N,0,right,0.6401228001341224,1,0,,,,,,,,,,,,,,,,,,,,,1,,,,,,,,,,,,,,,,,,,,,,,,,,,,,,,,,,,,,,,,,,999,999,999,Female,1,2024/04/26_13:24:16,YZ,60.05046640475824,
,,,,,,practice,0,27,3,583,3,J,0,right,0.7063058000057936,1,0,,,,,,,,,,,,,,,,,,,,,1,,,,,,,,,,,,,,,,,,,,,,,,,,,,,,,,,,,,,,,,,,999,999,999,Female,1,2024/04/26_13:24:16,YZ,60.05046640475824,
,,,,,,practice,0,27,3,583,4,C,1,left,0.561952400021255,1,0,,,,,,,,,,,,,,,,,,,,,1,,,,,,,,,,,,,,,,,,,,,,,,,,,,,,,,,,,,,,,,,,999,999,999,Female,1,2024/04/26_13:24:16,YZ,60.05046640475824,
,,,,,,practice,0,27,3,583,5,F,0,right,0.7088128998875618,1,0,,,,,,,,,,,,,,,,,,,,,1,,,,,,,,,,,,,,,,,,,,,,,,,,,,,,,,,,,,,,,,,,999,999,999,Female,1,2024/04/26_13:24:16,YZ,60.05046640475824,
,,,,,,practice,0,27,3,583,6,V,0,right,0.8918329998850822,1,0,,,,,,,,,,,,,,,,,,,,,1,,,,,,,,,,,,,,,,,,,,,,,,,,,,,,,,,,,,,,,,,,999,999,999,Female,1,2024/04/26_13:24:16,YZ,60.05046640475824,
,,,,,,practice,0,27,3,583,7,N,0,right,0.922406799858436,1,0,,,,,,,,,,,,,,,,,,,,,1,,,,,,,,,,,,,,,,,,,,,,,,,,,,,,,,,,,,,,,,,,999,999,999,Female,1,2024/04/26_13:24:16,YZ,60.05046640475824,
,,,,,,practice,0,27,3,583,8,F,1,right,0.8384424999821931,0,0,,,,,,,,,,,,,,,,,,,,,1,,,,,,,,,,,,,,,,,,,,,,,,,,,,,,,,,,,,,,,,,,999,999,999,Female,1,2024/04/26_13:24:16,YZ,60.05046640475824,
,,,,,,practice,0,27,3,583,9,C,0,right,1.1998052999842912,1,0,,,,,,,,,,,,,,,,,,,,,1,,,,,,,,,,,,,,,,,,,,,,,,,,,,,,,,,,,,,,,,,,999,999,999,Female,1,2024/04/26_13:24:16,YZ,60.05046640475824,
,,,,,,practice,0,27,3,583,10,S,0,right,0.8836669998709112,1,0,,,,,,,,,,,,,,,,,,,,,1,,,,,,,,,,,,,,,,,,,,,,,,,,,,,,,,,,,,,,,,,,999,999,999,Female,1,2024/04/26_13:24:16,YZ,60.05046640475824,
,,,,,,practice,0,27,3,583,11,F,1,left,0.7416725000366569,1,0,,,,,,,,,,,,,,,,,,,,,1,,,,,,,,,,,,,,,,,,,,,,,,,,,,,,,,,,,,,,,,,,999,999,999,Female,1,2024/04/26_13:24:16,YZ,60.05046640475824,
,,,,,,practice,0,27,3,583,12,S,0,right,1.2334743000101298,1,0,,,,,,,,,,,,,,,,,,,,,1,,,,,,,,,,,,,,,,,,,,,,,,,,,,,,,,,,,,,,,,,,999,999,999,Female,1,2024/04/26_13:24:16,YZ,60.05046640475824,
,,,,,,practice,0,27,3,583,13,S,1,left,1.0403809000272304,1,0,,,,,,,,,,,,,,,,,,,,,1,,,,,,,,,,,,,,,,,,,,,,,,,,,,,,,,,,,,,,,,,,999,999,999,Female,1,2024/04/26_13:24:16,YZ,60.05046640475824,
,,,,,,practice,0,27,3,583,14,N,0,right,1.6939366001170129,1,0,,,,,,,,,,,,,,,,,,,,,1,,,,,,,,,,,,,,,,,,,,,,,,,,,,,,,,,,,,,,,,,,999,999,999,Female,1,2024/04/26_13:24:16,YZ,60.05046640475824,
,,,,,,practice,0,27,3,583,15,S,1,right,1.083765200106427,0,0,,,,,,,,,,,,,,,,,,,,,1,,,,,,,,,,,,,,,,,,,,,,,,,,,,,,,,,,,,,,,,,,999,999,999,Female,1,2024/04/26_13:24:16,YZ,60.05046640475824,
,,,,,,practice,0,27,3,583,,,,,,,,0.77,0.6,0.2,1.0,0.0,0.8,0.9171147666716327,3,2,0,0,0,10,13,5,10,0,,,,1,,,,,,,,,,,,,,,,,,,,,,,,,,,,,,,,,,,,,,,,,,999,999,999,Female,1,2024/04/26_13:24:16,YZ,60.05046640475824,
,,,,,,practice,0,33,3,583,1,C,0,right,0.622757599921897,1,0,,,,,,,,,,,,,,,,,,,,,1,,,,,,,,,,,,,,,,,,,,,,,,,,,,,,,,,,,,,,,,,,999,999,999,Female,1,2024/04/26_13:24:16,YZ,60.05046640475824,
,,,,,,practice,0,33,3,583,2,N,0,right,0.7978339998517185,1,0,,,,,,,,,,,,,,,,,,,,,1,,,,,,,,,,,,,,,,,,,,,,,,,,,,,,,,,,,,,,,,,,999,999,999,Female,1,2024/04/26_13:24:16,YZ,60.05046640475824,
,,,,,,practice,0,33,3,583,3,C,0,right,1.3795574000105262,1,0,,,,,,,,,,,,,,,,,,,,,1,,,,,,,,,,,,,,,,,,,,,,,,,,,,,,,,,,,,,,,,,,999,999,999,Female,1,2024/04/26_13:24:16,YZ,60.05046640475824,
,,,,,,practice,0,33,3,583,4,S,0,right,0.7727300999686122,1,0,,,,,,,,,,,,,,,,,,,,,1,,,,,,,,,,,,,,,,,,,,,,,,,,,,,,,,,,,,,,,,,,999,999,999,Female,1,2024/04/26_13:24:16,YZ,60.05046640475824,
,,,,,,practice,0,33,3,583,5,C,0,left,1.221256999997422,0,0,,,,,,,,,,,,,,,,,,,,,1,,,,,,,,,,,,,,,,,,,,,,,,,,,,,,,,,,,,,,,,,,999,999,999,Female,1,2024/04/26_13:24:16,YZ,60.05046640475824,
,,,,,,practice,0,33,3,583,6,C,1,right,0.8653023999650031,0,0,,,,,,,,,,,,,,,,,,,,,1,,,,,,,,,,,,,,,,,,,,,,,,,,,,,,,,,,,,,,,,,,999,999,999,Female,1,2024/04/26_13:24:16,YZ,60.05046640475824,
,,,,,,practice,0,33,3,583,7,N,0,right,1.4095765999518335,1,0,,,,,,,,,,,,,,,,,,,,,1,,,,,,,,,,,,,,,,,,,,,,,,,,,,,,,,,,,,,,,,,,999,999,999,Female,1,2024/04/26_13:24:16,YZ,60.05046640475824,
,,,,,,practice,0,33,3,583,8,S,0,left,0.5350337000563741,0,0,,,,,,,,,,,,,,,,,,,,,1,,,,,,,,,,,,,,,,,,,,,,,,,,,,,,,,,,,,,,,,,,999,999,999,Female,1,2024/04/26_13:24:16,YZ,60.05046640475824,
,,,,,,practice,0,33,3,583,9,C,1,right,2.8806589001324028,0,0,,,,,,,,,,,,,,,,,,,,,1,,,,,,,,,,,,,,,,,,,,,,,,,,,,,,,,,,,,,,,,,,999,999,999,Female,1,2024/04/26_13:24:16,YZ,60.05046640475824,
,,,,,,practice,0,33,3,583,10,N,1,left,0.9352041999809444,1,0,,,,,,,,,,,,,,,,,,,,,1,,,,,,,,,,,,,,,,,,,,,,,,,,,,,,,,,,,,,,,,,,999,999,999,Female,1,2024/04/26_13:24:16,YZ,60.05046640475824,
,,,,,,practice,0,33,3,583,11,C,0,right,1.315170899964869,1,0,,,,,,,,,,,,,,,,,,,,,1,,,,,,,,,,,,,,,,,,,,,,,,,,,,,,,,,,,,,,,,,,999,999,999,Female,1,2024/04/26_13:24:16,YZ,60.05046640475824,
,,,,,,practice,0,33,3,583,12,V,0,right,0.9869848000817001,1,0,,,,,,,,,,,,,,,,,,,,,1,,,,,,,,,,,,,,,,,,,,,,,,,,,,,,,,,,,,,,,,,,999,999,999,Female,1,2024/04/26_13:24:16,YZ,60.05046640475824,
,,,,,,practice,0,33,3,583,13,J,0,right,0.722861299989745,1,0,,,,,,,,,,,,,,,,,,,,,1,,,,,,,,,,,,,,,,,,,,,,,,,,,,,,,,,,,,,,,,,,999,999,999,Female,1,2024/04/26_13:24:16,YZ,60.05046640475824,
,,,,,,practice,0,33,3,583,14,C,1,right,1.6586750999558717,0,0,,,,,,,,,,,,,,,,,,,,,1,,,,,,,,,,,,,,,,,,,,,,,,,,,,,,,,,,,,,,,,,,999,999,999,Female,1,2024/04/26_13:24:16,YZ,60.05046640475824,
,,,,,,practice,0,33,3,583,15,F,0,right,1.8393240000586957,1,0,,,,,,,,,,,,,,,,,,,,,1,,,,,,,,,,,,,,,,,,,,,,,,,,,,,,,,,,,,,,,,,,999,999,999,Female,1,2024/04/26_13:24:16,YZ,60.05046640475824,
,,,,,,practice,0,33,3,583,,,,,,,,0.015151515151515138,0.25,0.2727272727272727,0.8181818181818182,0.0,0.7272727272727273,1.1961951999925078,1,3,0,0,0,9,10,4,11,0,,,,1,,,,,,,,,,,,,,,,,,,,,,,,,,,,,,,,,,,,,,,,,,999,999,999,Female,1,2024/04/26_13:24:16,YZ,60.05046640475824,
1,.\instructions\inst_redo_3\Slide1.png,right,17.866345399990678,427.4000423999969,445.26638779998757,,,,,,,,,,,,,,,,,,,,,,,,,,,,,,,,,1,,,,,,,,,,,,,,,,,,,,,,,,,,,,,,,,,,,,,,,,,,999,999,999,Female,1,2024/04/26_13:24:16,YZ,60.05046640475824,
,,,,,,practice,0,2,3,583,1,J,0,right,1.104322100058198,1,0,,,,,,,,,,,,,,,,,,,,,1,,,,,,,,,,,,,,,,,,,,,,,,,,,,,,,,,,,,,,,,,,999,999,999,Female,1,2024/04/26_13:24:16,YZ,60.05046640475824,
,,,,,,practice,0,2,3,583,2,X,0,right,1.0454367999918759,1,0,,,,,,,,,,,,,,,,,,,,,1,,,,,,,,,,,,,,,,,,,,,,,,,,,,,,,,,,,,,,,,,,999,999,999,Female,1,2024/04/26_13:24:16,YZ,60.05046640475824,
,,,,,,practice,0,2,3,583,3,N,0,right,0.7787369999568909,1,0,,,,,,,,,,,,,,,,,,,,,1,,,,,,,,,,,,,,,,,,,,,,,,,,,,,,,,,,,,,,,,,,999,999,999,Female,1,2024/04/26_13:24:16,YZ,60.05046640475824,
,,,,,,practice,0,2,3,583,4,Q,0,right,0.8258964000269771,1,0,,,,,,,,,,,,,,,,,,,,,1,,,,,,,,,,,,,,,,,,,,,,,,,,,,,,,,,,,,,,,,,,999,999,999,Female,1,2024/04/26_13:24:16,YZ,60.05046640475824,
,,,,,,practice,0,2,3,583,5,V,0,right,0.8251082999631763,1,0,,,,,,,,,,,,,,,,,,,,,1,,,,,,,,,,,,,,,,,,,,,,,,,,,,,,,,,,,,,,,,,,999,999,999,Female,1,2024/04/26_13:24:16,YZ,60.05046640475824,
,,,,,,practice,0,2,3,583,6,N,1,right,1.962087200023234,0,0,,,,,,,,,,,,,,,,,,,,,1,,,,,,,,,,,,,,,,,,,,,,,,,,,,,,,,,,,,,,,,,,999,999,999,Female,1,2024/04/26_13:24:16,YZ,60.05046640475824,
,,,,,,practice,0,2,3,583,7,F,0,right,1.0516298001166433,1,0,,,,,,,,,,,,,,,,,,,,,1,,,,,,,,,,,,,,,,,,,,,,,,,,,,,,,,,,,,,,,,,,999,999,999,Female,1,2024/04/26_13:24:16,YZ,60.05046640475824,
,,,,,,practice,0,2,3,583,8,Q,0,right,0.7601026000920683,1,0,,,,,,,,,,,,,,,,,,,,,1,,,,,,,,,,,,,,,,,,,,,,,,,,,,,,,,,,,,,,,,,,999,999,999,Female,1,2024/04/26_13:24:16,YZ,60.05046640475824,
,,,,,,practice,0,2,3,583,9,V,0,right,1.0403436000924557,1,0,,,,,,,,,,,,,,,,,,,,,1,,,,,,,,,,,,,,,,,,,,,,,,,,,,,,,,,,,,,,,,,,999,999,999,Female,1,2024/04/26_13:24:16,YZ,60.05046640475824,
,,,,,,practice,0,2,3,583,10,F,1,left,0.707739399978891,1,0,,,,,,,,,,,,,,,,,,,,,1,,,,,,,,,,,,,,,,,,,,,,,,,,,,,,,,,,,,,,,,,,999,999,999,Female,1,2024/04/26_13:24:16,YZ,60.05046640475824,
,,,,,,practice,0,2,3,583,11,Q,1,left,0.945015300065279,1,0,,,,,,,,,,,,,,,,,,,,,1,,,,,,,,,,,,,,,,,,,,,,,,,,,,,,,,,,,,,,,,,,999,999,999,Female,1,2024/04/26_13:24:16,YZ,60.05046640475824,
,,,,,,practice,0,2,3,583,12,J,0,right,0.9335324000567198,1,0,,,,,,,,,,,,,,,,,,,,,1,,,,,,,,,,,,,,,,,,,,,,,,,,,,,,,,,,,,,,,,,,999,999,999,Female,1,2024/04/26_13:24:16,YZ,60.05046640475824,
,,,,,,practice,0,2,3,583,13,S,0,right,0.9757764998357743,1,0,,,,,,,,,,,,,,,,,,,,,1,,,,,,,,,,,,,,,,,,,,,,,,,,,,,,,,,,,,,,,,,,999,999,999,Female,1,2024/04/26_13:24:16,YZ,60.05046640475824,
,,,,,,practice,0,2,3,583,14,J,0,right,1.2082908998709172,1,0,,,,,,,,,,,,,,,,,,,,,1,,,,,,,,,,,,,,,,,,,,,,,,,,,,,,,,,,,,,,,,,,999,999,999,Female,1,2024/04/26_13:24:16,YZ,60.05046640475824,
,,,,,,practice,0,2,3,583,15,J,1,right,1.0498174999374896,0,0,,,,,,,,,,,,,,,,,,,,,1,,,,,,,,,,,,,,,,,,,,,,,,,,,,,,,,,,,,,,,,,,999,999,999,Female,1,2024/04/26_13:24:16,YZ,60.05046640475824,
,,,,,,practice,0,2,3,583,,,,,,,,0.7386363636363636,0.5,0.18181818181818182,1.0,0.0,0.8181818181818181,1.0142557200044393,2,2,0,0,0,11,13,4,11,0,,,,1,,,,,,,,,,,,,,,,,,,,,,,,,,,,,,,,,,,,,,,,,,999,999,999,Female,1,2024/04/26_13:24:16,YZ,60.05046640475824,
1,.\instructions\inst_redo_3\Slide1.png,right,10.915442700032145,467.98307519988157,478.8985178999137,,,,,,,,,,,,,,,,,,,,,,,,,,,,,,,,,1,,,,,,,,,,,,,,,,,,,,,,,,,,,,,,,,,,,,,,,,,,999,999,999,Female,1,2024/04/26_13:24:16,YZ,60.05046640475824,
,,,,,,practice,0,23,3,583,1,C,0,right,0.5778355000074953,1,0,,,,,,,,,,,,,,,,,,,,,1,,,,,,,,,,,,,,,,,,,,,,,,,,,,,,,,,,,,,,,,,,999,999,999,Female,1,2024/04/26_13:24:16,YZ,60.05046640475824,
,,,,,,practice,0,23,3,583,2,N,0,right,0.3263134998269379,1,0,,,,,,,,,,,,,,,,,,,,,1,,,,,,,,,,,,,,,,,,,,,,,,,,,,,,,,,,,,,,,,,,999,999,999,Female,1,2024/04/26_13:24:16,YZ,60.05046640475824,
,,,,,,practice,0,23,3,583,3,F,0,right,0.35717099998146296,1,0,,,,,,,,,,,,,,,,,,,,,1,,,,,,,,,,,,,,,,,,,,,,,,,,,,,,,,,,,,,,,,,,999,999,999,Female,1,2024/04/26_13:24:16,YZ,60.05046640475824,
,,,,,,practice,0,23,3,583,4,X,0,right,0.39564370014704764,1,0,,,,,,,,,,,,,,,,,,,,,1,,,,,,,,,,,,,,,,,,,,,,,,,,,,,,,,,,,,,,,,,,999,999,999,Female,1,2024/04/26_13:24:16,YZ,60.05046640475824,
,,,,,,practice,0,23,3,583,5,J,0,right,0.41321040014736354,1,0,,,,,,,,,,,,,,,,,,,,,1,,,,,,,,,,,,,,,,,,,,,,,,,,,,,,,,,,,,,,,,,,999,999,999,Female,1,2024/04/26_13:24:16,YZ,60.05046640475824,
,,,,,,practice,0,23,3,583,6,Q,0,right,0.538222499890253,1,0,,,,,,,,,,,,,,,,,,,,,1,,,,,,,,,,,,,,,,,,,,,,,,,,,,,,,,,,,,,,,,,,999,999,999,Female,1,2024/04/26_13:24:16,YZ,60.05046640475824,
,,,,,,practice,0,23,3,583,7,V,0,right,0.597457000054419,1,0,,,,,,,,,,,,,,,,,,,,,1,,,,,,,,,,,,,,,,,,,,,,,,,,,,,,,,,,,,,,,,,,999,999,999,Female,1,2024/04/26_13:24:16,YZ,60.05046640475824,
,,,,,,practice,0,23,3,583,8,X,0,left,0.6701151998713613,0,0,,,,,,,,,,,,,,,,,,,,,1,,,,,,,,,,,,,,,,,,,,,,,,,,,,,,,,,,,,,,,,,,999,999,999,Female,1,2024/04/26_13:24:16,YZ,60.05046640475824,
,,,,,,practice,0,23,3,583,9,Q,1,left,0.5894134999252856,1,0,,,,,,,,,,,,,,,,,,,,,1,,,,,,,,,,,,,,,,,,,,,,,,,,,,,,,,,,,,,,,,,,999,999,999,Female,1,2024/04/26_13:24:16,YZ,60.05046640475824,
,,,,,,practice,0,23,3,583,10,N,0,right,0.7285001999698579,1,0,,,,,,,,,,,,,,,,,,,,,1,,,,,,,,,,,,,,,,,,,,,,,,,,,,,,,,,,,,,,,,,,999,999,999,Female,1,2024/04/26_13:24:16,YZ,60.05046640475824,
,,,,,,practice,0,23,3,583,11,Q,0,left,0.6528091998770833,0,0,,,,,,,,,,,,,,,,,,,,,1,,,,,,,,,,,,,,,,,,,,,,,,,,,,,,,,,,,,,,,,,,999,999,999,Female,1,2024/04/26_13:24:16,YZ,60.05046640475824,
,,,,,,practice,0,23,3,583,12,Q,1,left,0.3995697998907417,1,0,,,,,,,,,,,,,,,,,,,,,1,,,,,,,,,,,,,,,,,,,,,,,,,,,,,,,,,,,,,,,,,,999,999,999,Female,1,2024/04/26_13:24:16,YZ,60.05046640475824,
,,,,,,practice,0,23,3,583,13,S,0,right,0.3678804999217391,1,0,,,,,,,,,,,,,,,,,,,,,1,,,,,,,,,,,,,,,,,,,,,,,,,,,,,,,,,,,,,,,,,,999,999,999,Female,1,2024/04/26_13:24:16,YZ,60.05046640475824,
,,,,,,practice,0,23,3,583,14,Q,1,right,2.22558859991841,0,0,,,,,,,,,,,,,,,,,,,,,1,,,,,,,,,,,,,,,,,,,,,,,,,,,,,,,,,,,,,,,,,,999,999,999,Female,1,2024/04/26_13:24:16,YZ,60.05046640475824,
,,,,,,practice,0,23,3,583,15,Q,1,left,0.7050389000214636,1,0,,,,,,,,,,,,,,,,,,,,,1,,,,,,,,,,,,,,,,,,,,,,,,,,,,,,,,,,,,,,,,,,999,999,999,Female,1,2024/04/26_13:24:16,YZ,60.05046640475824,
,,,,,,practice,0,23,3,583,,,,,,,,0.8920454545454546,0.75,0.09090909090909091,0.8181818181818182,0.0,0.9090909090909091,0.6363179666300615,3,1,0,0,0,9,12,4,11,0,,,,1,,,,,,,,,,,,,,,,,,,,,,,,,,,,,,,,,,,,,,,,,,999,999,999,Female,1,2024/04/26_13:24:16,YZ,60.05046640475824,
1,.\instructions\inst_prac_main\Slide1.png,right,7.225362799828872,497.40906740003265,504.6344301998615,,,,,,,,,,,,,,,,,,,,,,,,,,,,,,,,,1,,,,,,,,,,,,,,,,,,,,,,,,,,,,,,,,,,,,,,,,,,999,999,999,Female,1,2024/04/26_13:24:16,YZ,60.05046640475824,
2,.\instructions\inst_prac_main\Slide2.png,right,11.17821570020169,504.67218659981154,515.8504023000132,,,,,,,,,,,,,,,,,,,,,,,,,,,,,,,,,1,,,,,,,,,,,,,,,,,,,,,,,,,,,,,,,,,,,,,,,,,,999,999,999,Female,1,2024/04/26_13:24:16,YZ,60.05046640475824,
3,.\instructions\inst_prac_main\Slide3.png,right,24.09663540008478,515.8818569998257,539.9784923999105,,,,,,,,,,,,,,,,,,,,,,,,,,,,,,,,,1,,,,,,,,,,,,,,,,,,,,,,,,,,,,,,,,,,,,,,,,,,999,999,999,Female,1,2024/04/26_13:24:16,YZ,60.05046640475824,
4,.\instructions\inst_prac_main\Slide4.png,right,7.065079299965873,540.0094604999758,547.0745397999417,,,,,,,,,,,,,,,,,,,,,,,,,,,,,,,,,1,,,,,,,,,,,,,,,,,,,,,,,,,,,,,,,,,,,,,,,,,,999,999,999,Female,1,2024/04/26_13:24:16,YZ,60.05046640475824,
,,,,,,practice_main,0,1,1,583,1,C,0,right,0.3682572999969125,1,0,,,,,,,,,,,,,,,,,,,,,1,,,,,,,,,,,,,,,,,,,,,,,,,,,,,,,,,,,,,,,,,,999,999,999,Female,1,2024/04/26_13:24:16,YZ,60.05046640475824,
,,,,,,practice_main,0,1,1,583,2,J,0,right,0.41844809986650944,1,0,,,,,,,,,,,,,,,,,,,,,1,,,,,,,,,,,,,,,,,,,,,,,,,,,,,,,,,,,,,,,,,,999,999,999,Female,1,2024/04/26_13:24:16,YZ,60.05046640475824,
,,,,,,practice_main,0,1,1,583,3,J,1,left,0.47900840011425316,1,0,,,,,,,,,,,,,,,,,,,,,1,,,,,,,,,,,,,,,,,,,,,,,,,,,,,,,,,,,,,,,,,,999,999,999,Female,1,2024/04/26_13:24:16,YZ,60.05046640475824,
,,,,,,practice_main,0,1,1,583,4,N,0,right,0.43526830011978745,1,0,,,,,,,,,,,,,,,,,,,,,1,,,,,,,,,,,,,,,,,,,,,,,,,,,,,,,,,,,,,,,,,,999,999,999,Female,1,2024/04/26_13:24:16,YZ,60.05046640475824,
,,,,,,practice_main,0,1,1,583,5,N,1,right,0.6420270998496562,0,0,,,,,,,,,,,,,,,,,,,,,1,,,,,,,,,,,,,,,,,,,,,,,,,,,,,,,,,,,,,,,,,,999,999,999,Female,1,2024/04/26_13:24:16,YZ,60.05046640475824,
,,,,,,practice_main,0,1,1,583,6,X,0,right,0.40510580013506114,1,0,,,,,,,,,,,,,,,,,,,,,1,,,,,,,,,,,,,,,,,,,,,,,,,,,,,,,,,,,,,,,,,,999,999,999,Female,1,2024/04/26_13:24:16,YZ,60.05046640475824,
,,,,,,practice_main,0,1,1,583,7,F,0,right,0.4198351998347789,1,0,,,,,,,,,,,,,,,,,,,,,1,,,,,,,,,,,,,,,,,,,,,,,,,,,,,,,,,,,,,,,,,,999,999,999,Female,1,2024/04/26_13:24:16,YZ,60.05046640475824,
,,,,,,practice_main,0,1,1,583,8,Q,0,right,0.3788870999123901,1,0,,,,,,,,,,,,,,,,,,,,,1,,,,,,,,,,,,,,,,,,,,,,,,,,,,,,,,,,,,,,,,,,999,999,999,Female,1,2024/04/26_13:24:16,YZ,60.05046640475824,
,,,,,,practice_main,0,1,1,583,9,J,0,right,0.34135570004582405,1,0,,,,,,,,,,,,,,,,,,,,,1,,,,,,,,,,,,,,,,,,,,,,,,,,,,,,,,,,,,,,,,,,999,999,999,Female,1,2024/04/26_13:24:16,YZ,60.05046640475824,
,,,,,,practice_main,0,1,1,583,10,J,1,left,0.4750828000251204,1,0,,,,,,,,,,,,,,,,,,,,,1,,,,,,,,,,,,,,,,,,,,,,,,,,,,,,,,,,,,,,,,,,999,999,999,Female,1,2024/04/26_13:24:16,YZ,60.05046640475824,
,,,,,,practice_main,0,1,1,583,11,F,0,right,0.2849640001077205,1,0,,,,,,,,,,,,,,,,,,,,,1,,,,,,,,,,,,,,,,,,,,,,,,,,,,,,,,,,,,,,,,,,999,999,999,Female,1,2024/04/26_13:24:16,YZ,60.05046640475824,
,,,,,,practice_main,0,1,1,583,12,F,1,left,0.5563221999909729,1,0,,,,,,,,,,,,,,,,,,,,,1,,,,,,,,,,,,,,,,,,,,,,,,,,,,,,,,,,,,,,,,,,999,999,999,Female,1,2024/04/26_13:24:16,YZ,60.05046640475824,
,,,,,,practice_main,0,1,1,583,13,X,0,right,0.4541521000210196,1,0,,,,,,,,,,,,,,,,,,,,,1,,,,,,,,,,,,,,,,,,,,,,,,,,,,,,,,,,,,,,,,,,999,999,999,Female,1,2024/04/26_13:24:16,YZ,60.05046640475824,
,,,,,,practice_main,0,1,1,583,14,F,0,right,0.6484409000258893,1,0,,,,,,,,,,,,,,,,,,,,,1,,,,,,,,,,,,,,,,,,,,,,,,,,,,,,,,,,,,,,,,,,999,999,999,Female,1,2024/04/26_13:24:16,YZ,60.05046640475824,
,,,,,,practice_main,0,1,1,583,15,Q,0,right,0.5008669998496771,1,0,,,,,,,,,,,,,,,,,,,,,1,,,,,,,,,,,,,,,,,,,,,,,,,,,,,,,,,,,,,,,,,,999,999,999,Female,1,2024/04/26_13:24:16,YZ,60.05046640475824,
,,,,,,practice_main,0,1,1,583,,,,,,,,0.8920454545454546,0.75,0.09090909090909091,1.0,0.0,0.9090909090909091,0.4538681333263715,3,1,0,0,0,11,14,4,11,0,,,,1,,,,,,,,,,,,,,,,,,,,,,,,,,,,,,,,,,,,,,,,,,999,999,999,Female,1,2024/04/26_13:24:16,YZ,60.05046640475824,
,,,,,240426_141319,PRACTICE,0,1,1,583,,,,,,,,,,,,,,,,,,,,,,,,,,,,1,41,1,1,cue1.png,Easy,A,550.0711590999272,,,,,,,,,,,,,,,,,,,,,,,,,,,,,,,,,,,999,999,999,Female,1,2024/04/26_13:24:16,YZ,60.05046640475824,
,,,,,,practice_main,0,2,3,583,1,J,0,right,1.1063560999464244,1,0,,,,,,,,,,,,,,,,,,,,,1,,,,,,,,,,,,,,,,,,,,,,,,,,,,,,,,,,,,,,,,,,999,999,999,Female,1,2024/04/26_13:24:16,YZ,60.05046640475824,
,,,,,,practice_main,0,2,3,583,2,X,0,right,0.4012587999459356,1,0,,,,,,,,,,,,,,,,,,,,,1,,,,,,,,,,,,,,,,,,,,,,,,,,,,,,,,,,,,,,,,,,999,999,999,Female,1,2024/04/26_13:24:16,YZ,60.05046640475824,
,,,,,,practice_main,0,2,3,583,3,N,0,right,0.5536718999501318,1,0,,,,,,,,,,,,,,,,,,,,,1,,,,,,,,,,,,,,,,,,,,,,,,,,,,,,,,,,,,,,,,,,999,999,999,Female,1,2024/04/26_13:24:16,YZ,60.05046640475824,
,,,,,,practice_main,0,2,3,583,4,Q,0,right,0.5605762999039143,1,0,,,,,,,,,,,,,,,,,,,,,1,,,,,,,,,,,,,,,,,,,,,,,,,,,,,,,,,,,,,,,,,,999,999,999,Female,1,2024/04/26_13:24:16,YZ,60.05046640475824,
,,,,,,practice_main,0,2,3,583,5,V,0,right,0.6636060997843742,1,0,,,,,,,,,,,,,,,,,,,,,1,,,,,,,,,,,,,,,,,,,,,,,,,,,,,,,,,,,,,,,,,,999,999,999,Female,1,2024/04/26_13:24:16,YZ,60.05046640475824,
,,,,,,practice_main,0,2,3,583,6,N,1,right,0.5942653999663889,0,0,,,,,,,,,,,,,,,,,,,,,1,,,,,,,,,,,,,,,,,,,,,,,,,,,,,,,,,,,,,,,,,,999,999,999,Female,1,2024/04/26_13:24:16,YZ,60.05046640475824,
,,,,,,practice_main,0,2,3,583,7,F,0,right,0.6234138000290841,1,0,,,,,,,,,,,,,,,,,,,,,1,,,,,,,,,,,,,,,,,,,,,,,,,,,,,,,,,,,,,,,,,,999,999,999,Female,1,2024/04/26_13:24:16,YZ,60.05046640475824,
,,,,,,practice_main,0,2,3,583,8,Q,0,right,0.8883124000858516,1,0,,,,,,,,,,,,,,,,,,,,,1,,,,,,,,,,,,,,,,,,,,,,,,,,,,,,,,,,,,,,,,,,999,999,999,Female,1,2024/04/26_13:24:16,YZ,60.05046640475824,
,,,,,,practice_main,0,2,3,583,9,V,0,right,0.43016549991443753,1,0,,,,,,,,,,,,,,,,,,,,,1,,,,,,,,,,,,,,,,,,,,,,,,,,,,,,,,,,,,,,,,,,999,999,999,Female,1,2024/04/26_13:24:16,YZ,60.05046640475824,
,,,,,,practice_main,0,2,3,583,10,F,1,right,1.2462035999633372,0,0,,,,,,,,,,,,,,,,,,,,,1,,,,,,,,,,,,,,,,,,,,,,,,,,,,,,,,,,,,,,,,,,999,999,999,Female,1,2024/04/26_13:24:16,YZ,60.05046640475824,
,,,,,,practice_main,0,2,3,583,11,Q,1,right,0.6222211001440883,0,0,,,,,,,,,,,,,,,,,,,,,1,,,,,,,,,,,,,,,,,,,,,,,,,,,,,,,,,,,,,,,,,,999,999,999,Female,1,2024/04/26_13:24:16,YZ,60.05046640475824,
,,,,,,practice_main,0,2,3,583,12,J,0,right,0.5969049001578242,1,0,,,,,,,,,,,,,,,,,,,,,1,,,,,,,,,,,,,,,,,,,,,,,,,,,,,,,,,,,,,,,,,,999,999,999,Female,1,2024/04/26_13:24:16,YZ,60.05046640475824,
,,,,,,practice_main,0,2,3,583,13,S,0,right,0.4274555000010878,1,0,,,,,,,,,,,,,,,,,,,,,1,,,,,,,,,,,,,,,,,,,,,,,,,,,,,,,,,,,,,,,,,,999,999,999,Female,1,2024/04/26_13:24:16,YZ,60.05046640475824,
,,,,,,practice_main,0,2,3,583,14,J,0,right,0.46040240000002086,1,0,,,,,,,,,,,,,,,,,,,,,1,,,,,,,,,,,,,,,,,,,,,,,,,,,,,,,,,,,,,,,,,,999,999,999,Female,1,2024/04/26_13:24:16,YZ,60.05046640475824,
,,,,,,practice_main,0,2,3,583,15,J,1,right,0.973336499882862,0,0,,,,,,,,,,,,,,,,,,,,,1,,,,,,,,,,,,,,,,,,,,,,,,,,,,,,,,,,,,,,,,,,999,999,999,Female,1,2024/04/26_13:24:16,YZ,60.05046640475824,
,,,,,,practice_main,0,2,3,583,,,,,,,,0.1590909090909091,0.0,0.36363636363636365,1.0,0.0,0.6363636363636364,0.6765433533117176,0,4,0,0,0,11,11,4,11,0,,,,1,,,,,,,,,,,,,,,,,,,,,,,,,,,,,,,,,,,,,,,,,,999,999,999,Female,1,2024/04/26_13:24:16,YZ,60.05046640475824,
,,,,,240426_141345,PRACTICE,0,2,3,583,,,,,,,,,,,,,,,,,,,,,,,,,,,,1,6,2,2,cue2.png,Hard,A,572.3861652000342,,,,,,,,,,,,,,,,,,,,,,,,,,,,,,,,,,,999,999,999,Female,1,2024/04/26_13:24:16,YZ,60.05046640475824,
1,.\instructions\inst_prac_end\Slide1.png,right,9.050378100015223,596.6243241999764,605.6747022999916,,,,,,,,,,,,,,,,,,,,,,,,,,,,,,,,,1,,,,,,,,,,,,,,,,,,,,,,,,,,,,,,,,,,,,,,,,,,999,999,999,Female,1,2024/04/26_13:24:16,YZ,60.05046640475824,
1,.\instructions\inst_offline_rating_0\Slide1.png,right,1.576517099980265,605.7141529000364,607.2906700000167,,,,,,,,,,,,,,,,,,,,,,,,,,,,,,,,,1,,,,,,,,,,,,,,,,,,,,,,,,,,,,,,,,,,,,,,,,,,999,999,999,Female,1,2024/04/26_13:24:16,YZ,60.05046640475824,
2,.\instructions\inst_offline_rating_0\Slide2.png,right,12.03778490005061,607.3249576999806,619.3627426000312,,,,,,,,,,,,,,,,,,,,,,,,,,,,,,,,,1,,,,,,,,,,,,,,,,,,,,,,,,,,,,,,,,,,,,,,,,,,999,999,999,Female,1,2024/04/26_13:24:16,YZ,60.05046640475824,
3,.\instructions\inst_offline_rating_0\Slide3.png,right,13.032549399882555,619.3942034000065,632.4267527998891,,,,,,,,,,,,,,,,,,,,,,,,,,,,,,,,,1,,,,,,,,,,,,,,,,,,,,,,,,,,,,,,,,,,,,,,,,,,999,999,999,Female,1,2024/04/26_13:24:16,YZ,60.05046640475824,
4,.\instructions\inst_offline_rating_0\Slide4.png,right,6.465056299930438,632.457750099944,638.9228063998744,,,,,,,,,,,,,,,,,,,,,,,,,,,,,,,,,1,,,,,,,,,,,,,,,,,,,,,,,,,,,,,,,,,,,,,,,,,,999,999,999,Female,1,2024/04/26_13:24:16,YZ,60.05046640475824,
,,,,,240426_141436,OFFLINERATING,9,,1.0,,,,,,,,,,,,,,,,,,,,,,,,,,,,,1,,,,,,,,T0,1.0,cue1.png,Easy,50,2.0673563999589533,643.53363239998,645.6402393998578,,,,,,,,,,,,,,,,,,,,,,,,,,,999,999,999,Female,1,2024/04/26_13:24:16,YZ,60.05046640475824,
,,,,,240426_141442,OFFLINERATING,9,,3.0,,,,,,,,,,,,,,,,,,,,,,,,,,,,,1,,,,,,,,T0,2.0,cue2.png,Hard,42,1.4518874001223594,650.205039500026,651.6778904998209,,,,,,,,,,,,,,,,,,,,,,,,,,,999,999,999,Female,1,2024/04/26_13:24:16,YZ,60.05046640475824,
1,.\instructions\inst_learning\Slide1.png,right,9.062947899801657,654.7239669000264,663.7869147998281,,,,,,,,,,,,,,,,,,,,,,,,,,,,,,,,,1,,,,,,,,,,,,,,,,,,,,,,,,,,,,,,,,,,,,,,,,,,999,999,999,Female,1,2024/04/26_13:24:16,YZ,60.05046640475824,
,,,,,,learning,1,1,1,583,1,X,0,right,0.566126799909398,1,0,,,,,,,,,,,,,,,,,,,,,1,,,,,,,,,,,,,,,,,,,,,,,,,,,,,,,,,,,,,,,,,,999,999,999,Female,1,2024/04/26_13:24:16,YZ,60.05046640475824,
,,,,,,learning,1,1,1,583,2,X,1,left,0.43751089996658266,1,0,,,,,,,,,,,,,,,,,,,,,1,,,,,,,,,,,,,,,,,,,,,,,,,,,,,,,,,,,,,,,,,,999,999,999,Female,1,2024/04/26_13:24:16,YZ,60.05046640475824,
,,,,,,learning,1,1,1,583,3,J,0,right,0.4741766999941319,1,0,,,,,,,,,,,,,,,,,,,,,1,,,,,,,,,,,,,,,,,,,,,,,,,,,,,,,,,,,,,,,,,,999,999,999,Female,1,2024/04/26_13:24:16,YZ,60.05046640475824,
,,,,,,learning,1,1,1,583,4,X,0,right,0.4323352000210434,1,0,,,,,,,,,,,,,,,,,,,,,1,,,,,,,,,,,,,,,,,,,,,,,,,,,,,,,,,,,,,,,,,,999,999,999,Female,1,2024/04/26_13:24:16,YZ,60.05046640475824,
,,,,,,learning,1,1,1,583,5,Q,0,right,0.8508340001571923,1,0,,,,,,,,,,,,,,,,,,,,,1,,,,,,,,,,,,,,,,,,,,,,,,,,,,,,,,,,,,,,,,,,999,999,999,Female,1,2024/04/26_13:24:16,YZ,60.05046640475824,
,,,,,,learning,1,1,1,583,6,Q,1,right,0.03455580002628267,0,0,,,,,,,,,,,,,,,,,,,,,1,,,,,,,,,,,,,,,,,,,,,,,,,,,,,,,,,,,,,,,,,,999,999,999,Female,1,2024/04/26_13:24:16,YZ,60.05046640475824,
,,,,,,learning,1,1,1,583,7,N,0,right,0.6116394998971373,1,0,,,,,,,,,,,,,,,,,,,,,1,,,,,,,,,,,,,,,,,,,,,,,,,,,,,,,,,,,,,,,,,,999,999,999,Female,1,2024/04/26_13:24:16,YZ,60.05046640475824,
,,,,,,learning,1,1,1,583,8,S,0,right,0.37666049995459616,1,0,,,,,,,,,,,,,,,,,,,,,1,,,,,,,,,,,,,,,,,,,,,,,,,,,,,,,,,,,,,,,,,,999,999,999,Female,1,2024/04/26_13:24:16,YZ,60.05046640475824,
,,,,,,learning,1,1,1,583,9,N,0,right,0.7891810000874102,1,0,,,,,,,,,,,,,,,,,,,,,1,,,,,,,,,,,,,,,,,,,,,,,,,,,,,,,,,,,,,,,,,,999,999,999,Female,1,2024/04/26_13:24:16,YZ,60.05046640475824,
,,,,,,learning,1,1,1,583,10,S,0,right,0.43866609991528094,1,0,,,,,,,,,,,,,,,,,,,,,1,,,,,,,,,,,,,,,,,,,,,,,,,,,,,,,,,,,,,,,,,,999,999,999,Female,1,2024/04/26_13:24:16,YZ,60.05046640475824,
,,,,,,learning,1,1,1,583,11,S,1,left,0.38884539995342493,1,0,,,,,,,,,,,,,,,,,,,,,1,,,,,,,,,,,,,,,,,,,,,,,,,,,,,,,,,,,,,,,,,,999,999,999,Female,1,2024/04/26_13:24:16,YZ,60.05046640475824,
,,,,,,learning,1,1,1,583,12,Q,0,right,0.3665864998474717,1,0,,,,,,,,,,,,,,,,,,,,,1,,,,,,,,,,,,,,,,,,,,,,,,,,,,,,,,,,,,,,,,,,999,999,999,Female,1,2024/04/26_13:24:16,YZ,60.05046640475824,
,,,,,,learning,1,1,1,583,13,F,0,right,0.3981212000362575,1,0,,,,,,,,,,,,,,,,,,,,,1,,,,,,,,,,,,,,,,,,,,,,,,,,,,,,,,,,,,,,,,,,999,999,999,Female,1,2024/04/26_13:24:16,YZ,60.05046640475824,
,,,,,,learning,1,1,1,583,14,C,0,right,0.33075389987789094,1,0,,,,,,,,,,,,,,,,,,,,,1,,,,,,,,,,,,,,,,,,,,,,,,,,,,,,,,,,,,,,,,,,999,999,999,Female,1,2024/04/26_13:24:16,YZ,60.05046640475824,
,,,,,,learning,1,1,1,583,15,C,1,right,0.24972749990411103,0,0,,,,,,,,,,,,,,,,,,,,,1,,,,,,,,,,,,,,,,,,,,,,,,,,,,,,,,,,,,,,,,,,999,999,999,Female,1,2024/04/26_13:24:16,YZ,60.05046640475824,
,,,,,,Learning,1,1,1,583,,,,,,,,0.7386363636363636,0.5,0.18181818181818182,1.0,0.0,0.8181818181818181,0.4497147333032141,2,2,0,0,0,11,13,4,11,0,,,,1,,,,,,,,,,,,,,,,,,,,,,,,,,,,,,,,,,,,,,,,,,999,999,999,Female,1,2024/04/26_13:24:16,YZ,60.05046640475824,
,,,,,240426_141518,LEARNING,1,1,1,583,,,,,,,,,,,,,,,,,,,,,,,,,,,,1,1,1,1,cue1.png,Easy,A,668.7844461000059,,,,,,,,,,,,,,,,,,,,,,,,,,,,,,,,,,,999,999,999,Female,1,2024/04/26_13:24:16,YZ,60.05046640475824,
1,.\instructions\inst_offline_rating_1\Slide1.png,right,4.798417899990454,689.6047006999142,694.4031185999047,,,,,,,,,,,,,,,,,,,,,,,,,,,,,,,,,1,,,,,,,,,,,,,,,,,,,,,,,,,,,,,,,,,,,,,,,,,,999,999,999,Female,1,2024/04/26_13:24:16,YZ,60.05046640475824,
2,.\instructions\inst_offline_rating_1\Slide2.png,right,6.03694500005804,694.4380496998783,700.4749946999364,,,,,,,,,,,,,,,,,,,,,,,,,,,,,,,,,1,,,,,,,,,,,,,,,,,,,,,,,,,,,,,,,,,,,,,,,,,,999,999,999,Female,1,2024/04/26_13:24:16,YZ,60.05046640475824,
3,.\instructions\inst_offline_rating_1\Slide3.png,right,2.993049600161612,700.5059455998708,703.4989952000324,,,,,,,,,,,,,,,,,,,,,,,,,,,,,,,,,1,,,,,,,,,,,,,,,,,,,,,,,,,,,,,,,,,,,,,,,,,,999,999,999,Female,1,2024/04/26_13:24:16,YZ,60.05046640475824,
,,,,,240426_141540,OFFLINERATING,9,,1.0,,,,,,,,,,,,,,,,,,,,,,,,,,,,,1,,,,,,,,T1,1.0,cue1.png,Easy,62,1.6864662000443786,708.0606068999041,709.7836831000168,,,,,,,,,,,,,,,,,,,,,,,,,,,999,999,999,Female,1,2024/04/26_13:24:16,YZ,60.05046640475824,
,,,,,240426_141547,OFFLINERATING,9,,3.0,,,,,,,,,,,,,,,,,,,,,,,,,,,,,1,,,,,,,,T1,2.0,cue2.png,Hard,45,2.8196044999640435,714.3482673999388,717.1885730999056,,,,,,,,,,,,,,,,,,,,,,,,,,,999,999,999,Female,1,2024/04/26_13:24:16,YZ,60.05046640475824,
1,.\instructions\inst_choice_true\Slide1.png,right,3.8862888999283314,720.2527717000339,724.1390605999622,,,,,,,,,,,,,,,,,,,,,,,,,,,,,,,,,1,,,,,,,,,,,,,,,,,,,,,,,,,,,,,,,,,,,,,,,,,,999,999,999,Female,1,2024/04/26_13:24:16,YZ,60.05046640475824,
2,.\instructions\inst_choice_true\Slide2.png,right,4.10949009982869,724.1736061000265,728.2830961998552,,,,,,,,,,,,,,,,,,,,,,,,,,,,,,,,,1,,,,,,,,,,,,,,,,,,,,,,,,,,,,,,,,,,,,,,,,,,999,999,999,Female,1,2024/04/26_13:24:16,YZ,60.05046640475824,
3,.\instructions\inst_choice_true\Slide3.png,right,17.753063599811867,728.3141212000046,746.0671847998165,,,,,,,,,,,,,,,,,,,,,,,,,,,,,,,,,1,,,,,,,,,,,,,,,,,,,,,,,,,,,,,,,,,,,,,,,,,,999,999,999,Female,1,2024/04/26_13:24:16,YZ,60.05046640475824,
,,,,,,choice,9,1,1,583,1,X,0,right,0.35128439986146986,1,0,,,,,,,,,,,,,,,,,,,,,1,,,,,,,,,,,,,,,,,,,,,,,,,,,,,,,,,,,,,,,,,,999,999,999,Female,1,2024/04/26_13:24:16,YZ,60.05046640475824,
,,,,,,choice,9,1,1,583,2,X,1,left,0.4437914998270571,1,0,,,,,,,,,,,,,,,,,,,,,1,,,,,,,,,,,,,,,,,,,,,,,,,,,,,,,,,,,,,,,,,,999,999,999,Female,1,2024/04/26_13:24:16,YZ,60.05046640475824,
,,,,,,choice,9,1,1,583,3,J,0,right,0.415628100046888,1,0,,,,,,,,,,,,,,,,,,,,,1,,,,,,,,,,,,,,,,,,,,,,,,,,,,,,,,,,,,,,,,,,999,999,999,Female,1,2024/04/26_13:24:16,YZ,60.05046640475824,
,,,,,,choice,9,1,1,583,4,X,0,right,0.7163587000686675,1,0,,,,,,,,,,,,,,,,,,,,,1,,,,,,,,,,,,,,,,,,,,,,,,,,,,,,,,,,,,,,,,,,999,999,999,Female,1,2024/04/26_13:24:16,YZ,60.05046640475824,
,,,,,,choice,9,1,1,583,5,Q,0,right,0.3730989000760019,1,0,,,,,,,,,,,,,,,,,,,,,1,,,,,,,,,,,,,,,,,,,,,,,,,,,,,,,,,,,,,,,,,,999,999,999,Female,1,2024/04/26_13:24:16,YZ,60.05046640475824,
,,,,,,choice,9,1,1,583,6,Q,1,left,0.4058691000100225,1,0,,,,,,,,,,,,,,,,,,,,,1,,,,,,,,,,,,,,,,,,,,,,,,,,,,,,,,,,,,,,,,,,999,999,999,Female,1,2024/04/26_13:24:16,YZ,60.05046640475824,
,,,,,,choice,9,1,1,583,7,N,0,right,0.4130937000736594,1,0,,,,,,,,,,,,,,,,,,,,,1,,,,,,,,,,,,,,,,,,,,,,,,,,,,,,,,,,,,,,,,,,999,999,999,Female,1,2024/04/26_13:24:16,YZ,60.05046640475824,
,,,,,,choice,9,1,1,583,8,S,0,right,0.43055430008098483,1,0,,,,,,,,,,,,,,,,,,,,,1,,,,,,,,,,,,,,,,,,,,,,,,,,,,,,,,,,,,,,,,,,999,999,999,Female,1,2024/04/26_13:24:16,YZ,60.05046640475824,
,,,,,,choice,9,1,1,583,9,N,0,right,0.3732272000052035,1,0,,,,,,,,,,,,,,,,,,,,,1,,,,,,,,,,,,,,,,,,,,,,,,,,,,,,,,,,,,,,,,,,999,999,999,Female,1,2024/04/26_13:24:16,YZ,60.05046640475824,
,,,,,,choice,9,1,1,583,10,S,0,right,0.557360399980098,1,0,,,,,,,,,,,,,,,,,,,,,1,,,,,,,,,,,,,,,,,,,,,,,,,,,,,,,,,,,,,,,,,,999,999,999,Female,1,2024/04/26_13:24:16,YZ,60.05046640475824,
,,,,,,choice,9,1,1,583,11,S,1,left,0.6331391001585871,1,0,,,,,,,,,,,,,,,,,,,,,1,,,,,,,,,,,,,,,,,,,,,,,,,,,,,,,,,,,,,,,,,,999,999,999,Female,1,2024/04/26_13:24:16,YZ,60.05046640475824,
,,,,,,choice,9,1,1,583,12,Q,0,right,0.3805710000451654,1,0,,,,,,,,,,,,,,,,,,,,,1,,,,,,,,,,,,,,,,,,,,,,,,,,,,,,,,,,,,,,,,,,999,999,999,Female,1,2024/04/26_13:24:16,YZ,60.05046640475824,
,,,,,,choice,9,1,1,583,13,F,0,right,0.4289528999943286,1,0,,,,,,,,,,,,,,,,,,,,,1,,,,,,,,,,,,,,,,,,,,,,,,,,,,,,,,,,,,,,,,,,999,999,999,Female,1,2024/04/26_13:24:16,YZ,60.05046640475824,
,,,,,,choice,9,1,1,583,14,C,0,right,0.39600870013237,1,0,,,,,,,,,,,,,,,,,,,,,1,,,,,,,,,,,,,,,,,,,,,,,,,,,,,,,,,,,,,,,,,,999,999,999,Female,1,2024/04/26_13:24:16,YZ,60.05046640475824,
,,,,,,choice,9,1,1,583,15,C,1,left,0.6612351001240313,1,0,,,,,,,,,,,,,,,,,,,,,1,,,,,,,,,,,,,,,,,,,,,,,,,,,,,,,,,,,,,,,,,,999,999,999,Female,1,2024/04/26_13:24:16,YZ,60.05046640475824,
,,,,,,Choice,9,1,1,583,,,,,,,,1.0,1.0,0.0,1.0,0.0,1.0,0.4653448733656357,4,0,0,0,0,11,15,4,11,0,,,,1,,,,,,,,,,,,,,,,,,,,,,,,,,,,,,,,,,,,,,,,,,999,999,999,Female,1,2024/04/26_13:24:16,YZ,60.05046640475824,
,,,,,240426_141640,TrueCHOICE,9,1.0,1,583,,,,,,,,,,,,,,,,,,,,,,,,,,,,1,,1,1,,,A,750.4667695998214,,,,,,,,,True,cue1.png,Easy,cue2.png,Hard,Left,Easy,Easy,0.005689899902790785,0,750.4669991999399,,,,,,,,,,,,,,,,999,999,999,Female,1,2024/04/26_13:24:16,YZ,60.05046640475824,
,,,,,,choice,9,2,1,583,1,S,0,right,0.3144487999379635,1,0,,,,,,,,,,,,,,,,,,,,,1,,,,,,,,,,,,,,,,,,,,,,,,,,,,,,,,,,,,,,,,,,999,999,999,Female,1,2024/04/26_13:24:16,YZ,60.05046640475824,
,,,,,,choice,9,2,1,583,2,N,0,right,0.41791759990155697,1,0,,,,,,,,,,,,,,,,,,,,,1,,,,,,,,,,,,,,,,,,,,,,,,,,,,,,,,,,,,,,,,,,999,999,999,Female,1,2024/04/26_13:24:16,YZ,60.05046640475824,
,,,,,,choice,9,2,1,583,3,N,1,left,0.4480336999986321,1,0,,,,,,,,,,,,,,,,,,,,,1,,,,,,,,,,,,,,,,,,,,,,,,,,,,,,,,,,,,,,,,,,999,999,999,Female,1,2024/04/26_13:24:16,YZ,60.05046640475824,
,,,,,,choice,9,2,1,583,4,X,0,right,0.41100659989751875,1,0,,,,,,,,,,,,,,,,,,,,,1,,,,,,,,,,,,,,,,,,,,,,,,,,,,,,,,,,,,,,,,,,999,999,999,Female,1,2024/04/26_13:24:16,YZ,60.05046640475824,
,,,,,,choice,9,2,1,583,5,C,0,right,0.346968499943614,1,0,,,,,,,,,,,,,,,,,,,,,1,,,,,,,,,,,,,,,,,,,,,,,,,,,,,,,,,,,,,,,,,,999,999,999,Female,1,2024/04/26_13:24:16,YZ,60.05046640475824,
,,,,,,choice,9,2,1,583,6,V,0,right,0.3924406999722123,1,0,,,,,,,,,,,,,,,,,,,,,1,,,,,,,,,,,,,,,,,,,,,,,,,,,,,,,,,,,,,,,,,,999,999,999,Female,1,2024/04/26_13:24:16,YZ,60.05046640475824,
,,,,,,choice,9,2,1,583,7,N,0,right,0.3355783000588417,1,0,,,,,,,,,,,,,,,,,,,,,1,,,,,,,,,,,,,,,,,,,,,,,,,,,,,,,,,,,,,,,,,,999,999,999,Female,1,2024/04/26_13:24:16,YZ,60.05046640475824,
,,,,,,choice,9,2,1,583,8,N,1,left,0.37363489996641874,1,0,,,,,,,,,,,,,,,,,,,,,1,,,,,,,,,,,,,,,,,,,,,,,,,,,,,,,,,,,,,,,,,,999,999,999,Female,1,2024/04/26_13:24:16,YZ,60.05046640475824,
,,,,,,choice,9,2,1,583,9,V,0,right,0.34137600008398294,1,0,,,,,,,,,,,,,,,,,,,,,1,,,,,,,,,,,,,,,,,,,,,,,,,,,,,,,,,,,,,,,,,,999,999,999,Female,1,2024/04/26_13:24:16,YZ,60.05046640475824,
,,,,,,choice,9,2,1,583,10,V,1,right,0.4331980999559164,0,0,,,,,,,,,,,,,,,,,,,,,1,,,,,,,,,,,,,,,,,,,,,,,,,,,,,,,,,,,,,,,,,,999,999,999,Female,1,2024/04/26_13:24:16,YZ,60.05046640475824,
,,,,,,choice,9,2,1,583,11,S,0,right,0.4701829000841826,1,0,,,,,,,,,,,,,,,,,,,,,1,,,,,,,,,,,,,,,,,,,,,,,,,,,,,,,,,,,,,,,,,,999,999,999,Female,1,2024/04/26_13:24:16,YZ,60.05046640475824,
,,,,,,choice,9,2,1,583,12,S,1,left,0.48187440005131066,1,0,,,,,,,,,,,,,,,,,,,,,1,,,,,,,,,,,,,,,,,,,,,,,,,,,,,,,,,,,,,,,,,,999,999,999,Female,1,2024/04/26_13:24:16,YZ,60.05046640475824,
,,,,,,choice,9,2,1,583,13,F,0,right,0.441411399981007,1,0,,,,,,,,,,,,,,,,,,,,,1,,,,,,,,,,,,,,,,,,,,,,,,,,,,,,,,,,,,,,,,,,999,999,999,Female,1,2024/04/26_13:24:16,YZ,60.05046640475824,
,,,,,,choice,9,2,1,583,14,J,0,right,0.37189830001443624,1,0,,,,,,,,,,,,,,,,,,,,,1,,,,,,,,,,,,,,,,,,,,,,,,,,,,,,,,,,,,,,,,,,999,999,999,Female,1,2024/04/26_13:24:16,YZ,60.05046640475824,
,,,,,,choice,9,2,1,583,15,C,0,right,0.4115951999556273,1,0,,,,,,,,,,,,,,,,,,,,,1,,,,,,,,,,,,,,,,,,,,,,,,,,,,,,,,,,,,,,,,,,999,999,999,Female,1,2024/04/26_13:24:16,YZ,60.05046640475824,
,,,,,,Choice,9,2,1,583,,,,,,,,0.8920454545454546,0.75,0.09090909090909091,1.0,0.0,0.9090909090909091,0.3994376933202147,3,1,0,0,0,11,14,4,11,0,,,,1,,,,,,,,,,,,,,,,,,,,,,,,,,,,,,,,,,,,,,,,,,999,999,999,Female,1,2024/04/26_13:24:16,YZ,60.05046640475824,
,,,,,240426_141702,TrueCHOICE,9,2.0,1,583,,,,,,,,,,,,,,,,,,,,,,,,,,,,1,,2,2,,,A,773.1653881999664,,,,,,,,,True,cue1.png,Easy,cue2.png,Hard,Left,Easy,Easy,0.0056282998993992805,0,773.1656168999616,,,,,,,,,,,,,,,,999,999,999,Female,1,2024/04/26_13:24:16,YZ,60.05046640475824,
1,.\instructions\inst_offline_rating_2\Slide1.png,right,3.394447200000286,793.1288611998316,796.5233083998319,,,,,,,,,,,,,,,,,,,,,,,,,,,,,,,,,1,,,,,,,,,,,,,,,,,,,,,,,,,,,,,,,,,,,,,,,,,,999,999,999,Female,1,2024/04/26_13:24:16,YZ,60.05046640475824,
2,.\instructions\inst_offline_rating_2\Slide2.png,right,8.877244600094855,796.5581220998429,805.4353666999377,,,,,,,,,,,,,,,,,,,,,,,,,,,,,,,,,1,,,,,,,,,,,,,,,,,,,,,,,,,,,,,,,,,,,,,,,,,,999,999,999,Female,1,2024/04/26_13:24:16,YZ,60.05046640475824,
3,.\instructions\inst_offline_rating_2\Slide3.png,right,1.953158700140193,805.4661309998482,807.4192896999884,,,,,,,,,,,,,,,,,,,,,,,,,,,,,,,,,1,,,,,,,,,,,,,,,,,,,,,,,,,,,,,,,,,,,,,,,,,,999,999,999,Female,1,2024/04/26_13:24:16,YZ,60.05046640475824,
,,,,,240426_141724,OFFLINERATING,9,,1.0,,,,,,,,,,,,,,,,,,,,,,,,,,,,,1,,,,,,,,T2,1.0,cue1.png,Easy,70,1.8686624998226762,811.9806794000324,813.8701380998828,,,,,,,,,,,,,,,,,,,,,,,,,,,999,999,999,Female,1,2024/04/26_13:24:16,YZ,60.05046640475824,
,,,,,240426_141730,OFFLINERATING,9,,3.0,,,,,,,,,,,,,,,,,,,,,,,,,,,,,1,,,,,,,,T2,2.0,cue2.png,Hard,40,1.1017292998731136,818.4185909000225,819.5409056998324,,,,,,,,,,,,,,,,,,,,,,,,,,,999,999,999,Female,1,2024/04/26_13:24:16,YZ,60.05046640475824,
1,.\instructions\inst_learning_check\Slide1.png,right,2.549778399989009,822.5976038998924,825.1473822998814,,,,,,,,,,,,,,,,,,,,,,,,,,,,,,,,,1,,,,,,,,,,,,,,,,,,,,,,,,,,,,,,,,,,,,,,,,,,999,999,999,Female,1,2024/04/26_13:24:16,YZ,60.05046640475824,
,,,,,240426_141743,LEARNINGCHECK,9,1,,,,,,,,,,,,,,,,,,,,,,,,,,,,,,1,1.0,1,1,,,A,830.8942072999198,,,,,,,,,,,,,,,,,,,,cue1.png,Easy,Left,Left,Easy,0.016144900117069483,1,0,830.894393999828,,,,,,,999,999,999,Female,1,2024/04/26_13:24:16,YZ,60.05046640475824,
,,,,,240426_141748,LEARNINGCHECK,9,2,,,,,,,,,,,,,,,,,,,,,,,,,,,,,,1,2.0,2,2,,,A,835.380748399999,,,,,,,,,,,,,,,,,,,,cue2.png,Hard,Right,Middle,unsure,0.016342899994924664,0,0,835.3809362999164,,,,,,,999,999,999,Female,1,2024/04/26_13:24:16,YZ,60.05046640475824,
1,.\instructions\inst_choice_false\Slide1.png,right,6.237615200225264,838.9658815998118,845.2034968000371,,,,,,,,,,,,,,,,,,,,,,,,,,,,,,,,,1,,,,,,,,,,,,,,,,,,,,,,,,,,,,,,,,,,,,,,,,,,999,999,999,Female,1,2024/04/26_13:24:16,YZ,60.05046640475824,
2,.\instructions\inst_choice_false\Slide2.png,right,7.803209800040349,845.2381926998496,853.04140249989,,,,,,,,,,,,,,,,,,,,,,,,,,,,,,,,,1,,,,,,,,,,,,,,,,,,,,,,,,,,,,,,,,,,,,,,,,,,999,999,999,Female,1,2024/04/26_13:24:16,YZ,60.05046640475824,
3,.\instructions\inst_choice_false\Slide3.png,right,10.659277400001884,853.0724159998354,863.7316933998372,,,,,,,,,,,,,,,,,,,,,,,,,,,,,,,,,1,,,,,,,,,,,,,,,,,,,,,,,,,,,,,,,,,,,,,,,,,,999,999,999,Female,1,2024/04/26_13:24:16,YZ,60.05046640475824,
,,,,,,choice,9,1,2,583,1,S,0,right,0.5746426999103278,1,0,,,,,,,,,,,,,,,,,,,,,1,,,,,,,,,,,,,,,,,,,,,,,,,,,,,,,,,,,,,,,,,,999,999,999,Female,1,2024/04/26_13:24:16,YZ,60.05046640475824,
,,,,,,choice,9,1,2,583,2,F,0,right,0.3429972000885755,1,0,,,,,,,,,,,,,,,,,,,,,1,,,,,,,,,,,,,,,,,,,,,,,,,,,,,,,,,,,,,,,,,,999,999,999,Female,1,2024/04/26_13:24:16,YZ,60.05046640475824,
,,,,,,choice,9,1,2,583,3,S,1,left,0.3430683999322355,1,0,,,,,,,,,,,,,,,,,,,,,1,,,,,,,,,,,,,,,,,,,,,,,,,,,,,,,,,,,,,,,,,,999,999,999,Female,1,2024/04/26_13:24:16,YZ,60.05046640475824,
,,,,,,choice,9,1,2,583,4,V,0,right,0.4290479999035597,1,0,,,,,,,,,,,,,,,,,,,,,1,,,,,,,,,,,,,,,,,,,,,,,,,,,,,,,,,,,,,,,,,,999,999,999,Female,1,2024/04/26_13:24:16,YZ,60.05046640475824,
,,,,,,choice,9,1,2,583,5,S,1,left,0.6589811001904309,1,0,,,,,,,,,,,,,,,,,,,,,1,,,,,,,,,,,,,,,,,,,,,,,,,,,,,,,,,,,,,,,,,,999,999,999,Female,1,2024/04/26_13:24:16,YZ,60.05046640475824,
,,,,,,choice,9,1,2,583,6,C,0,right,0.3860305999405682,1,0,,,,,,,,,,,,,,,,,,,,,1,,,,,,,,,,,,,,,,,,,,,,,,,,,,,,,,,,,,,,,,,,999,999,999,Female,1,2024/04/26_13:24:16,YZ,60.05046640475824,
,,,,,,choice,9,1,2,583,7,S,1,left,0.5765404999256134,1,0,,,,,,,,,,,,,,,,,,,,,1,,,,,,,,,,,,,,,,,,,,,,,,,,,,,,,,,,,,,,,,,,999,999,999,Female,1,2024/04/26_13:24:16,YZ,60.05046640475824,
,,,,,,choice,9,1,2,583,8,Q,0,right,0.4391471000853926,1,0,,,,,,,,,,,,,,,,,,,,,1,,,,,,,,,,,,,,,,,,,,,,,,,,,,,,,,,,,,,,,,,,999,999,999,Female,1,2024/04/26_13:24:16,YZ,60.05046640475824,
,,,,,,choice,9,1,2,583,9,J,0,right,0.48488450003787875,1,0,,,,,,,,,,,,,,,,,,,,,1,,,,,,,,,,,,,,,,,,,,,,,,,,,,,,,,,,,,,,,,,,999,999,999,Female,1,2024/04/26_13:24:16,YZ,60.05046640475824,
,,,,,,choice,9,1,2,583,10,V,0,right,0.5124084001872689,1,0,,,,,,,,,,,,,,,,,,,,,1,,,,,,,,,,,,,,,,,,,,,,,,,,,,,,,,,,,,,,,,,,999,999,999,Female,1,2024/04/26_13:24:16,YZ,60.05046640475824,
,,,,,,choice,9,1,2,583,11,X,0,right,0.43232240015640855,1,0,,,,,,,,,,,,,,,,,,,,,1,,,,,,,,,,,,,,,,,,,,,,,,,,,,,,,,,,,,,,,,,,999,999,999,Female,1,2024/04/26_13:24:16,YZ,60.05046640475824,
,,,,,,choice,9,1,2,583,12,J,0,left,0.6318568999413401,0,0,,,,,,,,,,,,,,,,,,,,,1,,,,,,,,,,,,,,,,,,,,,,,,,,,,,,,,,,,,,,,,,,999,999,999,Female,1,2024/04/26_13:24:16,YZ,60.05046640475824,
,,,,,,choice,9,1,2,583,13,X,1,right,0.30166310002096,0,0,,,,,,,,,,,,,,,,,,,,,1,,,,,,,,,,,,,,,,,,,,,,,,,,,,,,,,,,,,,,,,,,999,999,999,Female,1,2024/04/26_13:24:16,YZ,60.05046640475824,
,,,,,,choice,9,1,2,583,14,V,0,right,0.5372794999275357,1,0,,,,,,,,,,,,,,,,,,,,,1,,,,,,,,,,,,,,,,,,,,,,,,,,,,,,,,,,,,,,,,,,999,999,999,Female,1,2024/04/26_13:24:16,YZ,60.05046640475824,
,,,,,,choice,9,1,2,583,15,F,0,right,0.4398201999720186,1,0,,,,,,,,,,,,,,,,,,,,,1,,,,,,,,,,,,,,,,,,,,,,,,,,,,,,,,,,,,,,,,,,999,999,999,Female,1,2024/04/26_13:24:16,YZ,60.05046640475824,
,,,,,,Choice,9,1,2,583,,,,,,,,0.8920454545454546,0.75,0.09090909090909091,0.9090909090909091,0.0,0.9090909090909091,0.4727127066813409,3,1,0,0,0,10,13,4,11,0,,,,1,,,,,,,,,,,,,,,,,,,,,,,,,,,,,,,,,,,,,,,,,,999,999,999,Female,1,2024/04/26_13:24:16,YZ,60.05046640475824,
,,,,,240426_141838,FalseCHOICE,9,1.0,2,583,,,,,,,,,,,,,,,,,,,,,,,,,,,,1,,1,1,,,A,868.1797708999366,,,,,,,,,False,cue1.png,Easy,cue2.png,Hard,Left,Easy,Mid,0.005347999976947904,0,868.1800024998374,,,,,,,,,,,,,,,,999,999,999,Female,1,2024/04/26_13:24:16,YZ,60.05046640475824,
,,,,,,choice,9,2,2,583,1,X,0,right,0.37357379985041916,1,0,,,,,,,,,,,,,,,,,,,,,1,,,,,,,,,,,,,,,,,,,,,,,,,,,,,,,,,,,,,,,,,,999,999,999,Female,1,2024/04/26_13:24:16,YZ,60.05046640475824,
,,,,,,choice,9,2,2,583,2,F,0,right,0.39644469995982945,1,0,,,,,,,,,,,,,,,,,,,,,1,,,,,,,,,,,,,,,,,,,,,,,,,,,,,,,,,,,,,,,,,,999,999,999,Female,1,2024/04/26_13:24:16,YZ,60.05046640475824,
,,,,,,choice,9,2,2,583,3,Q,0,right,0.3583504999987781,1,0,,,,,,,,,,,,,,,,,,,,,1,,,,,,,,,,,,,,,,,,,,,,,,,,,,,,,,,,,,,,,,,,999,999,999,Female,1,2024/04/26_13:24:16,YZ,60.05046640475824,
,,,,,,choice,9,2,2,583,4,F,1,right,0.5469104000367224,0,0,,,,,,,,,,,,,,,,,,,,,1,,,,,,,,,,,,,,,,,,,,,,,,,,,,,,,,,,,,,,,,,,999,999,999,Female,1,2024/04/26_13:24:16,YZ,60.05046640475824,
,,,,,,choice,9,2,2,583,5,X,0,right,0.9909568000584841,1,0,,,,,,,,,,,,,,,,,,,,,1,,,,,,,,,,,,,,,,,,,,,,,,,,,,,,,,,,,,,,,,,,999,999,999,Female,1,2024/04/26_13:24:16,YZ,60.05046640475824,
,,,,,,choice,9,2,2,583,6,F,1,right,0.2993544000200927,0,0,,,,,,,,,,,,,,,,,,,,,1,,,,,,,,,,,,,,,,,,,,,,,,,,,,,,,,,,,,,,,,,,999,999,999,Female,1,2024/04/26_13:24:16,YZ,60.05046640475824,
,,,,,,choice,9,2,2,583,7,C,0,right,0.611118400003761,1,0,,,,,,,,,,,,,,,,,,,,,1,,,,,,,,,,,,,,,,,,,,,,,,,,,,,,,,,,,,,,,,,,999,999,999,Female,1,2024/04/26_13:24:16,YZ,60.05046640475824,
,,,,,,choice,9,2,2,583,8,J,0,right,0.31717179995030165,1,0,,,,,,,,,,,,,,,,,,,,,1,,,,,,,,,,,,,,,,,,,,,,,,,,,,,,,,,,,,,,,,,,999,999,999,Female,1,2024/04/26_13:24:16,YZ,60.05046640475824,
,,,,,,choice,9,2,2,583,9,V,0,right,0.4264285999815911,1,0,,,,,,,,,,,,,,,,,,,,,1,,,,,,,,,,,,,,,,,,,,,,,,,,,,,,,,,,,,,,,,,,999,999,999,Female,1,2024/04/26_13:24:16,YZ,60.05046640475824,
,,,,,,choice,9,2,2,583,10,C,0,right,0.4662464999128133,1,0,,,,,,,,,,,,,,,,,,,,,1,,,,,,,,,,,,,,,,,,,,,,,,,,,,,,,,,,,,,,,,,,999,999,999,Female,1,2024/04/26_13:24:16,YZ,60.05046640475824,
,,,,,,choice,9,2,2,583,11,J,0,left,0.5721128000877798,0,0,,,,,,,,,,,,,,,,,,,,,1,,,,,,,,,,,,,,,,,,,,,,,,,,,,,,,,,,,,,,,,,,999,999,999,Female,1,2024/04/26_13:24:16,YZ,60.05046640475824,
,,,,,,choice,9,2,2,583,12,C,1,right,0.3895415000151843,0,0,,,,,,,,,,,,,,,,,,,,,1,,,,,,,,,,,,,,,,,,,,,,,,,,,,,,,,,,,,,,,,,,999,999,999,Female,1,2024/04/26_13:24:16,YZ,60.05046640475824,
,,,,,,choice,9,2,2,583,13,N,0,right,0.571332799969241,1,0,,,,,,,,,,,,,,,,,,,,,1,,,,,,,,,,,,,,,,,,,,,,,,,,,,,,,,,,,,,,,,,,999,999,999,Female,1,2024/04/26_13:24:16,YZ,60.05046640475824,
,,,,,,choice,9,2,2,583,14,X,0,right,0.35223860014230013,1,0,,,,,,,,,,,,,,,,,,,,,1,,,,,,,,,,,,,,,,,,,,,,,,,,,,,,,,,,,,,,,,,,999,999,999,Female,1,2024/04/26_13:24:16,YZ,60.05046640475824,
,,,,,,choice,9,2,2,583,15,N,1,right,0.4790016000624746,0,0,,,,,,,,,,,,,,,,,,,,,1,,,,,,,,,,,,,,,,,,,,,,,,,,,,,,,,,,,,,,,,,,999,999,999,Female,1,2024/04/26_13:24:16,YZ,60.05046640475824,
,,,,,,Choice,9,2,2,583,,,,,,,,0.1590909090909091,0.0,0.36363636363636365,0.9090909090909091,0.0,0.6363636363636364,0.4767188800033182,0,4,0,0,0,10,10,4,11,0,,,,1,,,,,,,,,,,,,,,,,,,,,,,,,,,,,,,,,,,,,,,,,,999,999,999,Female,1,2024/04/26_13:24:16,YZ,60.05046640475824,
,,,,,240426_141902,FalseCHOICE,9,2.0,2,583,,,,,,,,,,,,,,,,,,,,,,,,,,,,1,,2,2,,,A,892.1622037999332,,,,,,,,,False,cue2.png,Hard,cue1.png,Easy,Right,Easy,Mid,0.006049100076779723,0,892.1624321998097,,,,,,,,,,,,,,,,999,999,999,Female,1,2024/04/26_13:24:16,YZ,60.05046640475824,
1,.\instructions\inst_offline_rating_3\Slide1.png,right,2.782498799962923,913.325179199921,916.1076779998839,,,,,,,,,,,,,,,,,,,,,,,,,,,,,,,,,1,,,,,,,,,,,,,,,,,,,,,,,,,,,,,,,,,,,,,,,,,,999,999,999,Female,1,2024/04/26_13:24:16,YZ,60.05046640475824,
2,.\instructions\inst_offline_rating_3\Slide2.png,right,4.573175100143999,916.1424969998188,920.7156720999628,,,,,,,,,,,,,,,,,,,,,,,,,,,,,,,,,1,,,,,,,,,,,,,,,,,,,,,,,,,,,,,,,,,,,,,,,,,,999,999,999,Female,1,2024/04/26_13:24:16,YZ,60.05046640475824,
3,.\instructions\inst_offline_rating_3\Slide3.png,right,1.6651593998540193,920.7465178000275,922.4116771998815,,,,,,,,,,,,,,,,,,,,,,,,,,,,,,,,,1,,,,,,,,,,,,,,,,,,,,,,,,,,,,,,,,,,,,,,,,,,999,999,999,Female,1,2024/04/26_13:24:16,YZ,60.05046640475824,
,,,,,240426_141919,OFFLINERATING,9,,1.0,,,,,,,,,,,,,,,,,,,,,,,,,,,,,1,,,,,,,,T3,1.0,cue1.png,Easy,58,1.535587799968198,926.9914102000184,928.5476051999722,,,,,,,,,,,,,,,,,,,,,,,,,,,999,999,999,Female,1,2024/04/26_13:24:16,YZ,60.05046640475824,
,,,,,240426_141924,OFFLINERATING,9,,3.0,,,,,,,,,,,,,,,,,,,,,,,,,,,,,1,,,,,,,,T3,2.0,cue2.png,Hard,44,1.0019053001888096,933.1456059999764,934.1681212999392,,,,,,,,,,,,,,,,,,,,,,,,,,,999,999,999,Female,1,2024/04/26_13:24:16,YZ,60.05046640475824,
1,.\instructions\inst_learning_check\Slide1.png,right,3.339032400166616,937.2327506998554,940.571783100022,,,,,,,,,,,,,,,,,,,,,,,,,,,,,,,,,1,,,,,,,,,,,,,,,,,,,,,,,,,,,,,,,,,,,,,,,,,,999,999,999,Female,1,2024/04/26_13:24:16,YZ,60.05046640475824,
,,,,,240426_141937,LEARNINGCHECK,9,1,,,,,,,,,,,,,,,,,,,,,,,,,,,,,,1,1.0,1,1,,,A,945.0712800000329,,,,,,,,,,,,,,,,,,,,cue1.png,Easy,Middle,Middle,Mid,0.01613470003940165,1,0,945.0714686999563,,,,,,,999,999,999,Female,1,2024/04/26_13:24:16,YZ,60.05046640475824,
,,,,,240426_141944,LEARNINGCHECK,9,2,,,,,,,,,,,,,,,,,,,,,,,,,,,,,,1,2.0,2,2,,,A,951.7588684000075,,,,,,,,,,,,,,,,,,,,cue2.png,Hard,Middle,Middle,Mid,0.016194700030609965,1,0,951.7590567998122,,,,,,,999,999,999,Female,1,2024/04/26_13:24:16,YZ,60.05046640475824,
1,.\instructions\inst_demand_rating\Slide1.png,right,8.120632799807936,955.3232493000105,963.4438820998184,,,,,,,,,,,,,,,,,,,,,,,,,,,,,,,,,1,,,,,,,,,,,,,,,,,,,,,,,,,,,,,,,,,,,,,,,,,,999,999,999,Female,1,2024/04/26_13:24:16,YZ,60.05046640475824,
,,,,,240426_141959,DEMANDRATING,9,,,,,,,,,,,,,,,,,,,,,,,,,,,,,,,1,,,,,,,,,,,,,,,,,,,,,,,,,,,,,,,,,,,,1,MentalDemand,1,0,4.029123200103641,969.0203751998488,999,999,999,Female,1,2024/04/26_13:24:16,YZ,60.05046640475824,
,,,,,240426_142004,DEMANDRATING,9,,,,,,,,,,,,,,,,,,,,,,,,,,,,,,,1,,,,,,,,,,,,,,,,,,,,,,,,,,,,,,,,,,,,2,Effort,1,6,3.704815899953246,974.2570052000228,999,999,999,Female,1,2024/04/26_13:24:16,YZ,60.05046640475824,
,,,,,240426_142009,DEMANDRATING,9,,,,,,,,,,,,,,,,,,,,,,,,,,,,,,,1,,,,,,,,,,,,,,,,,,,,,,,,,,,,,,,,,,,,3,Frustration,1,0,2.964521799935028,978.7599781998433,999,999,999,Female,1,2024/04/26_13:24:16,YZ,60.05046640475824,
,,,,,240426_142018,DEMANDRATING,9,,,,,,,,,,,,,,,,,,,,,,,,,,,,,,,1,,,,,,,,,,,,,,,,,,,,,,,,,,,,,,,,,,,,4,MentalDemand,2,46,7.830085900146514,988.1165916000027,999,999,999,Female,1,2024/04/26_13:24:16,YZ,60.05046640475824,
,,,,,240426_142023,DEMANDRATING,9,,,,,,,,,,,,,,,,,,,,,,,,,,,,,,,1,,,,,,,,,,,,,,,,,,,,,,,,,,,,,,,,,,,,5,Effort,2,44,3.1977748000063,992.8364326998126,999,999,999,Female,1,2024/04/26_13:24:16,YZ,60.05046640475824,
,,,,,240426_142027,DEMANDRATING,9,,,,,,,,,,,,,,,,,,,,,,,,,,,,,,,1,,,,,,,,,,,,,,,,,,,,,,,,,,,,,,,,,,,,6,Frustration,2,40,2.8108828000258654,997.17276700004,999,999,999,Female,1,2024/04/26_13:24:16,YZ,60.05046640475824,
,,,,,240426_142032,DEMANDRATING,9,,,,,,,,,,,,,,,,,,,,,,,,,,,,,,,1,,,,,,,,,,,,,,,,,,,,,,,,,,,,,,,,,,,,7,MentalDemand,3,84,3.23527259984985,1001.9257388999686,999,999,999,Female,1,2024/04/26_13:24:16,YZ,60.05046640475824,
,,,,,240426_142036,DEMANDRATING,9,,,,,,,,,,,,,,,,,,,,,,,,,,,,,,,1,,,,,,,,,,,,,,,,,,,,,,,,,,,,,,,,,,,,8,Effort,3,83,2.806384399998933,1006.2451396998949,999,999,999,Female,1,2024/04/26_13:24:16,YZ,60.05046640475824,
,,,,,240426_142040,DEMANDRATING,9,,,,,,,,,,,,,,,,,,,,,,,,,,,,,,,1,,,,,,,,,,,,,,,,,,,,,,,,,,,,,,,,,,,,9,Frustration,3,74,2.103417699923739,1009.8808963999618,999,999,999,Female,1,2024/04/26_13:24:16,YZ,60.05046640475824,
1,.\instructions\inst_end\Slide1.png,right,2.251149400137365,1012.9448205998633,1015.1959700000007,,,,,,,,,,,,,,,,,,,,,,,,,,,,,,,,,1,,,,,,,,,,,,,,,,,,,,,,,,,,,,,,,,,,,,,,,,,,999,999,999,Female,1,2024/04/26_13:24:16,YZ,60.05046640475824,
