Instruction,Stimulus,Key,RT,START,END,Phase,Block,TrialN,NbackLevel,ISI,LetterN,Letter,Letter_isSame,Letter_Resp,Letter_RT,Letter_Accuracy,Letter_Timeout,Trial_A_measure,Trial_HR,Trial_FAR,Trial_CDR,Trial_MSR,Trial_ACC,Trial_RT,Trial_HitsCount,Trial_FAsCount,Trial_SameNoRespCount,Trial_DiffNoRespCount,Trial_NoRespCount,Trial_CDsCount,Trial_CorrectRespCount,Trial_SameLetterCount,Trial_DiffLetterCount,Trial_InvalidLetterCount,TrialCountCali,CaliEnd_A_measure,ISI_calibrated,Run,TrialIndex,TrialNumber_total,TrialNumber_valid,CueLearning,TrialDemandLearning,CueMapping,OnlineRating,OnlineRatingRT,OnlineRatingTimeOut,CueSTART,RatingSTART,OfflineRatingTimePoint,OfflineRatingQuesIndex,CueFigure,TrialDemand,OfflineRating,OfflineRatingRT,CueStart,OfflineRatingStart,PhaseType,CueLeft,CueDemandLeft,CueRight,CueDemandRight,Choice,ChoiceDemand,TaskDemand,ChoiceRT,ChoiceTimeOut,ChoiceSTART,CueCheck,CueDemandCheck,CorrectAnswer,Answer,AnswerDemand,AnswerRT,AnswerACC,AnswerTimeOut,CheckSTART,DemandRatingQuesIndex,QuesTLX,DemandLevel,DemandRating,DemandRatingRT,QuesStart,PID,SONA,Age,Gender,Run,TIME,EXPERIMENTER,frameRate,
-1,./instructions/inst_begin/Slide2.png,left,17.828489166997315,0.22978203000093345,18.05827119699825,,,,,,,,,,,,,,,,,,,,,,,,,,,,,,,,,1,,,,,,,,,,,,,,,,,,,,,,,,,,,,,,,,,,,,,,,,,,,,,,109,153094,21,Female,1,2024/03/21_08:52:10,YZ,None,
-2,./instructions/inst_begin/Slide4.png,left,9.409483021998312,18.088777992998075,27.498261014996388,,,,,,,,,,,,,,,,,,,,,,,,,,,,,,,,,1,,,,,,,,,,,,,,,,,,,,,,,,,,,,,,,,,,,,,,,,,,,,,,109,153094,21,Female,1,2024/03/21_08:52:10,YZ,None,
-3,./instructions/inst_begin/Slide3.png,left,13.584379004001676,27.538117758995213,41.12249676299689,,,,,,,,,,,,,,,,,,,,,,,,,,,,,,,,,1,,,,,,,,,,,,,,,,,,,,,,,,,,,,,,,,,,,,,,,,,,,,,,109,153094,21,Female,1,2024/03/21_08:52:10,YZ,None,
-1,./instructions/inst_prac_2/Slide6.png,left,21.476817609996942,41.181435995000356,62.6582536049973,,,,,,,,,,,,,,,,,,,,,,,,,,,,,,,,,1,,,,,,,,,,,,,,,,,,,,,,,,,,,,,,,,,,,,,,,,,,,,,,109,153094,21,Female,1,2024/03/21_08:52:10,YZ,None,
-2,./instructions/inst_prac_2/Slide15.png,left,0.20038379300240194,62.698795605996565,62.89917939899897,,,,,,,,,,,,,,,,,,,,,,,,,,,,,,,,,1,,,,,,,,,,,,,,,,,,,,,,,,,,,,,,,,,,,,,,,,,,,,,,109,153094,21,Female,1,2024/03/21_08:52:10,YZ,None,
-3,./instructions/inst_prac_2/Slide14.png,left,43.1294598530003,62.92880345499725,106.05826330799755,,,,,,,,,,,,,,,,,,,,,,,,,,,,,,,,,1,,,,,,,,,,,,,,,,,,,,,,,,,,,,,,,,,,,,,,,,,,,,,,109,153094,21,Female,1,2024/03/21_08:52:10,YZ,None,
-4,./instructions/inst_prac_2/Slide13.png,left,7.203226552999695,106.11902074499812,113.32224729799782,,,,,,,,,,,,,,,,,,,,,,,,,,,,,,,,,1,,,,,,,,,,,,,,,,,,,,,,,,,,,,,,,,,,,,,,,,,,,,,,109,153094,21,Female,1,2024/03/21_08:52:10,YZ,None,
-5,./instructions/inst_prac_2/Slide12.png,left,4.0188645489979535,113.3675405239992,117.38640507299715,,,,,,,,,,,,,,,,,,,,,,,,,,,,,,,,,1,,,,,,,,,,,,,,,,,,,,,,,,,,,,,,,,,,,,,,,,,,,,,,109,153094,21,Female,1,2024/03/21_08:52:10,YZ,None,
-6,./instructions/inst_prac_2/Slide11.png,left,1.134786719994736,117.41941284100176,118.5541995609965,,,,,,,,,,,,,,,,,,,,,,,,,,,,,,,,,1,,,,,,,,,,,,,,,,,,,,,,,,,,,,,,,,,,,,,,,,,,,,,,109,153094,21,Female,1,2024/03/21_08:52:10,YZ,None,
-7,./instructions/inst_prac_2/Slide10.png,left,8.704798921993643,118.58539078800095,127.29018970999459,,,,,,,,,,,,,,,,,,,,,,,,,,,,,,,,,1,,,,,,,,,,,,,,,,,,,,,,,,,,,,,,,,,,,,,,,,,,,,,,109,153094,21,Female,1,2024/03/21_08:52:10,YZ,None,
-8,./instructions/inst_prac_2/Slide9.png,left,1.8494439009955386,127.32073140799912,129.17017530899466,,,,,,,,,,,,,,,,,,,,,,,,,,,,,,,,,1,,,,,,,,,,,,,,,,,,,,,,,,,,,,,,,,,,,,,,,,,,,,,,109,153094,21,Female,1,2024/03/21_08:52:10,YZ,None,
-9,./instructions/inst_prac_2/Slide8.png,left,14.7286265839939,129.19370726800116,143.92233385199506,,,,,,,,,,,,,,,,,,,,,,,,,,,,,,,,,1,,,,,,,,,,,,,,,,,,,,,,,,,,,,,,,,,,,,,,,,,,,,,,109,153094,21,Female,1,2024/03/21_08:52:10,YZ,None,
-10,./instructions/inst_prac_2/Slide7.png,left,14.818026576998818,143.9523926949987,158.77041927199753,,,,,,,,,,,,,,,,,,,,,,,,,,,,,,,,,1,,,,,,,,,,,,,,,,,,,,,,,,,,,,,,,,,,,,,,,,,,,,,,109,153094,21,Female,1,2024/03/21_08:52:10,YZ,None,
,,,,,,practice,0,11,2,2583,1,S,0,right,4.694619444002456,1,0,,,,,,,,,,,,,,,,,,,,,1,,,,,,,,,,,,,,,,,,,,,,,,,,,,,,,,,,,,,,,,,,,,,,109,153094,21,Female,1,2024/03/21_08:52:10,YZ,None,
,,,,,,practice,0,11,2,2583,2,N,0,right,3.7292426909989445,1,0,,,,,,,,,,,,,,,,,,,,,1,,,,,,,,,,,,,,,,,,,,,,,,,,,,,,,,,,,,,,,,,,,,,,109,153094,21,Female,1,2024/03/21_08:52:10,YZ,None,
,,,,,,practice,0,11,2,2583,3,S,1,left,8.01405331800197,1,0,,,,,,,,,,,,,,,,,,,,,1,,,,,,,,,,,,,,,,,,,,,,,,,,,,,,,,,,,,,,,,,,,,,,109,153094,21,Female,1,2024/03/21_08:52:10,YZ,None,
,,,,,,practice,0,11,2,2583,4,Q,0,right,6.394614721000835,1,0,,,,,,,,,,,,,,,,,,,,,1,,,,,,,,,,,,,,,,,,,,,,,,,,,,,,,,,,,,,,,,,,,,,,109,153094,21,Female,1,2024/03/21_08:52:10,YZ,None,
,,,,,,practice,0,11,2,2583,5,S,1,left,1.6737157110037515,1,0,,,,,,,,,,,,,,,,,,,,,1,,,,,,,,,,,,,,,,,,,,,,,,,,,,,,,,,,,,,,,,,,,,,,109,153094,21,Female,1,2024/03/21_08:52:10,YZ,None,
,,,,,,practice,0,11,2,2583,6,N,0,right,0.8832217439994565,1,0,,,,,,,,,,,,,,,,,,,,,1,,,,,,,,,,,,,,,,,,,,,,,,,,,,,,,,,,,,,,,,,,,,,,109,153094,21,Female,1,2024/03/21_08:52:10,YZ,None,
,,,,,,practice,0,11,2,2583,,,,,,,,1.0,1.0,0.0,1.0,0.0,1.0,4.231577938167902,2,0,0,0,0,4,6,2,4,0,,,,1,,,,,,,,,,,,,,,,,,,,,,,,,,,,,,,,,,,,,,,,,,,,,,109,153094,21,Female,1,2024/03/21_08:52:10,YZ,None,
-1,./instructions/inst_to_cali/Slide20.png,left,10.400266999997257,190.50600522499735,200.9062722249946,,,,,,,,,,,,,,,,,,,,,,,,,,,,,,,,,1,,,,,,,,,,,,,,,,,,,,,,,,,,,,,,,,,,,,,,,,,,,,,,109,153094,21,Female,1,2024/03/21_08:52:10,YZ,None,
,,,,,,practice,0,6,2,2583,1,Q,0,right,2.7196866699960083,1,0,,,,,,,,,,,,,,,,,,,,,1,,,,,,,,,,,,,,,,,,,,,,,,,,,,,,,,,,,,,,,,,,,,,,109,153094,21,Female,1,2024/03/21_08:52:10,YZ,None,
,,,,,,practice,0,6,2,2583,2,J,0,right,2.2352487859971006,1,0,,,,,,,,,,,,,,,,,,,,,1,,,,,,,,,,,,,,,,,,,,,,,,,,,,,,,,,,,,,,,,,,,,,,109,153094,21,Female,1,2024/03/21_08:52:10,YZ,None,
,,,,,,practice,0,6,2,2583,3,Q,1,left,3.467685010000423,1,0,,,,,,,,,,,,,,,,,,,,,1,,,,,,,,,,,,,,,,,,,,,,,,,,,,,,,,,,,,,,,,,,,,,,109,153094,21,Female,1,2024/03/21_08:52:10,YZ,None,
,,,,,,practice,0,6,2,2583,4,N,0,right,4.5600504579997505,1,0,,,,,,,,,,,,,,,,,,,,,1,,,,,,,,,,,,,,,,,,,,,,,,,,,,,,,,,,,,,,,,,,,,,,109,153094,21,Female,1,2024/03/21_08:52:10,YZ,None,
,,,,,,practice,0,6,2,2583,5,Q,1,left,2.039238983998075,1,0,,,,,,,,,,,,,,,,,,,,,1,,,,,,,,,,,,,,,,,,,,,,,,,,,,,,,,,,,,,,,,,,,,,,109,153094,21,Female,1,2024/03/21_08:52:10,YZ,None,
,,,,,,practice,0,6,2,2583,6,X,0,right,1.1936780559990439,1,0,,,,,,,,,,,,,,,,,,,,,1,,,,,,,,,,,,,,,,,,,,,,,,,,,,,,,,,,,,,,,,,,,,,,109,153094,21,Female,1,2024/03/21_08:52:10,YZ,None,
,,,,,,practice,0,6,2,2583,,,,,,,,1.0,1.0,0.0,1.0,0.0,1.0,2.7025979939984004,2,0,0,0,0,4,6,2,4,0,,,,1,,,,,,,,,,,,,,,,,,,,,,,,,,,,,,,,,,,,,,,,,,,,,,109,153094,21,Female,1,2024/03/21_08:52:10,YZ,None,
1,./instructions/inst_to_cali/Slide20.png,right,4.112827721997746,224.47319194999727,228.58601967199502,,,,,,,,,,,,,,,,,,,,,,,,,,,,,,,,,1,,,,,,,,,,,,,,,,,,,,,,,,,,,,,,,,,,,,,,,,,,,,,,109,153094,21,Female,1,2024/03/21_08:52:10,YZ,None,
-1,./instructions/inst_cali/Slide22.png,left,27.400765043996216,228.6334646260002,256.0342296699964,,,,,,,,,,,,,,,,,,,,,,,,,,,,,,,,,1,,,,,,,,,,,,,,,,,,,,,,,,,,,,,,,,,,,,,,,,,,,,,,109,153094,21,Female,1,2024/03/21_08:52:10,YZ,None,
,,,,,,calibration,0,15,2,583,1,N,0,None,nan,0,1,,,,,,,,,,,,,,,,,,,,,1,,,,,,,,,,,,,,,,,,,,,,,,,,,,,,,,,,,,,,,,,,,,,,109,153094,21,Female,1,2024/03/21_08:52:10,YZ,None,
,,,,,,calibration,0,15,2,583,2,S,0,None,nan,0,1,,,,,,,,,,,,,,,,,,,,,1,,,,,,,,,,,,,,,,,,,,,,,,,,,,,,,,,,,,,,,,,,,,,,109,153094,21,Female,1,2024/03/21_08:52:10,YZ,None,
,,,,,,calibration,0,15,2,583,3,C,0,None,nan,0,1,,,,,,,,,,,,,,,,,,,,,1,,,,,,,,,,,,,,,,,,,,,,,,,,,,,,,,,,,,,,,,,,,,,,109,153094,21,Female,1,2024/03/21_08:52:10,YZ,None,
,,,,,,calibration,0,15,2,583,4,X,0,None,nan,0,1,,,,,,,,,,,,,,,,,,,,,1,,,,,,,,,,,,,,,,,,,,,,,,,,,,,,,,,,,,,,,,,,,,,,109,153094,21,Female,1,2024/03/21_08:52:10,YZ,None,
,,,,,,calibration,0,15,2,583,5,F,0,None,nan,0,1,,,,,,,,,,,,,,,,,,,,,1,,,,,,,,,,,,,,,,,,,,,,,,,,,,,,,,,,,,,,,,,,,,,,109,153094,21,Female,1,2024/03/21_08:52:10,YZ,None,
,,,,,,calibration,0,15,2,583,6,S,0,None,nan,0,1,,,,,,,,,,,,,,,,,,,,,1,,,,,,,,,,,,,,,,,,,,,,,,,,,,,,,,,,,,,,,,,,,,,,109,153094,21,Female,1,2024/03/21_08:52:10,YZ,None,
,,,,,,calibration,0,15,2,583,7,F,1,None,nan,0,1,,,,,,,,,,,,,,,,,,,,,1,,,,,,,,,,,,,,,,,,,,,,,,,,,,,,,,,,,,,,,,,,,,,,109,153094,21,Female,1,2024/03/21_08:52:10,YZ,None,
,,,,,,calibration,0,15,2,583,8,Q,0,None,nan,0,1,,,,,,,,,,,,,,,,,,,,,1,,,,,,,,,,,,,,,,,,,,,,,,,,,,,,,,,,,,,,,,,,,,,,109,153094,21,Female,1,2024/03/21_08:52:10,YZ,None,
,,,,,,calibration,0,15,2,583,9,F,1,None,nan,0,1,,,,,,,,,,,,,,,,,,,,,1,,,,,,,,,,,,,,,,,,,,,,,,,,,,,,,,,,,,,,,,,,,,,,109,153094,21,Female,1,2024/03/21_08:52:10,YZ,None,
,,,,,,calibration,0,15,2,583,10,C,0,None,nan,0,1,,,,,,,,,,,,,,,,,,,,,1,,,,,,,,,,,,,,,,,,,,,,,,,,,,,,,,,,,,,,,,,,,,,,109,153094,21,Female,1,2024/03/21_08:52:10,YZ,None,
,,,,,,calibration,0,15,2,583,11,F,1,None,nan,0,1,,,,,,,,,,,,,,,,,,,,,1,,,,,,,,,,,,,,,,,,,,,,,,,,,,,,,,,,,,,,,,,,,,,,109,153094,21,Female,1,2024/03/21_08:52:10,YZ,None,
,,,,,,calibration,0,15,2,583,12,C,1,None,nan,0,1,,,,,,,,,,,,,,,,,,,,,1,,,,,,,,,,,,,,,,,,,,,,,,,,,,,,,,,,,,,,,,,,,,,,109,153094,21,Female,1,2024/03/21_08:52:10,YZ,None,
,,,,,,calibration,0,15,2,583,13,S,0,None,nan,0,1,,,,,,,,,,,,,,,,,,,,,1,,,,,,,,,,,,,,,,,,,,,,,,,,,,,,,,,,,,,,,,,,,,,,109,153094,21,Female,1,2024/03/21_08:52:10,YZ,None,
,,,,,,calibration,0,15,2,583,14,X,0,None,nan,0,1,,,,,,,,,,,,,,,,,,,,,1,,,,,,,,,,,,,,,,,,,,,,,,,,,,,,,,,,,,,,,,,,,,,,109,153094,21,Female,1,2024/03/21_08:52:10,YZ,None,
,,,,,,calibration,0,15,2,583,15,Q,0,None,nan,0,1,,,,,,,,,,,,,,,,,,,,,1,,,,,,,,,,,,,,,,,,,,,,,,,,,,,,,,,,,,,,,,,,,,,,109,153094,21,Female,1,2024/03/21_08:52:10,YZ,None,
,,,,,,calibration,0,15,2,583,,,,,,,,nan,0.0,nan,nan,1.0,nan,nan,0,0,4,11,15,0,0,4,11,0,,,,1,,,,,,,,,,,,,,,,,,,,,,,,,,,,,,,,,,,,,,,,,,,,,,109,153094,21,Female,1,2024/03/21_08:52:10,YZ,None,
,,,,,,Calibration,0,,2,583,,,,,,,,,,,,,,,,,,,,,,,,,1,,,1,,,,,,,,,,,,,,,,,,,,,,,,,,,,,,,,,,,,,,,,,,,,,,109,153094,21,Female,1,2024/03/21_08:52:10,YZ,None,
,,,,,,calibration,0,25,2,679,1,F,0,None,nan,0,1,,,,,,,,,,,,,,,,,,,,,1,,,,,,,,,,,,,,,,,,,,,,,,,,,,,,,,,,,,,,,,,,,,,,109,153094,21,Female,1,2024/03/21_08:52:10,YZ,None,
,,,,,,calibration,0,25,2,679,2,V,0,None,nan,0,1,,,,,,,,,,,,,,,,,,,,,1,,,,,,,,,,,,,,,,,,,,,,,,,,,,,,,,,,,,,,,,,,,,,,109,153094,21,Female,1,2024/03/21_08:52:10,YZ,None,
,,,,,,calibration,0,25,2,679,3,F,1,None,nan,0,1,,,,,,,,,,,,,,,,,,,,,1,,,,,,,,,,,,,,,,,,,,,,,,,,,,,,,,,,,,,,,,,,,,,,109,153094,21,Female,1,2024/03/21_08:52:10,YZ,None,
,,,,,,calibration,0,25,2,679,4,C,0,None,nan,0,1,,,,,,,,,,,,,,,,,,,,,1,,,,,,,,,,,,,,,,,,,,,,,,,,,,,,,,,,,,,,,,,,,,,,109,153094,21,Female,1,2024/03/21_08:52:10,YZ,None,
,,,,,,calibration,0,25,2,679,5,V,0,None,nan,0,1,,,,,,,,,,,,,,,,,,,,,1,,,,,,,,,,,,,,,,,,,,,,,,,,,,,,,,,,,,,,,,,,,,,,109,153094,21,Female,1,2024/03/21_08:52:10,YZ,None,
,,,,,,calibration,0,25,2,679,6,J,0,None,nan,0,1,,,,,,,,,,,,,,,,,,,,,1,,,,,,,,,,,,,,,,,,,,,,,,,,,,,,,,,,,,,,,,,,,,,,109,153094,21,Female,1,2024/03/21_08:52:10,YZ,None,
,,,,,,calibration,0,25,2,679,7,S,0,None,nan,0,1,,,,,,,,,,,,,,,,,,,,,1,,,,,,,,,,,,,,,,,,,,,,,,,,,,,,,,,,,,,,,,,,,,,,109,153094,21,Female,1,2024/03/21_08:52:10,YZ,None,
,,,,,,calibration,0,25,2,679,8,J,1,None,nan,0,1,,,,,,,,,,,,,,,,,,,,,1,,,,,,,,,,,,,,,,,,,,,,,,,,,,,,,,,,,,,,,,,,,,,,109,153094,21,Female,1,2024/03/21_08:52:10,YZ,None,
,,,,,,calibration,0,25,2,679,9,S,1,None,nan,0,1,,,,,,,,,,,,,,,,,,,,,1,,,,,,,,,,,,,,,,,,,,,,,,,,,,,,,,,,,,,,,,,,,,,,109,153094,21,Female,1,2024/03/21_08:52:10,YZ,None,
,,,,,,calibration,0,25,2,679,10,N,0,None,nan,0,1,,,,,,,,,,,,,,,,,,,,,1,,,,,,,,,,,,,,,,,,,,,,,,,,,,,,,,,,,,,,,,,,,,,,109,153094,21,Female,1,2024/03/21_08:52:10,YZ,None,
,,,,,,calibration,0,25,2,679,11,V,0,None,nan,0,1,,,,,,,,,,,,,,,,,,,,,1,,,,,,,,,,,,,,,,,,,,,,,,,,,,,,,,,,,,,,,,,,,,,,109,153094,21,Female,1,2024/03/21_08:52:10,YZ,None,
,,,,,,calibration,0,25,2,679,12,C,0,None,nan,0,1,,,,,,,,,,,,,,,,,,,,,1,,,,,,,,,,,,,,,,,,,,,,,,,,,,,,,,,,,,,,,,,,,,,,109,153094,21,Female,1,2024/03/21_08:52:10,YZ,None,
,,,,,,calibration,0,25,2,679,13,V,1,None,nan,0,1,,,,,,,,,,,,,,,,,,,,,1,,,,,,,,,,,,,,,,,,,,,,,,,,,,,,,,,,,,,,,,,,,,,,109,153094,21,Female,1,2024/03/21_08:52:10,YZ,None,
,,,,,,calibration,0,25,2,679,14,N,0,None,nan,0,1,,,,,,,,,,,,,,,,,,,,,1,,,,,,,,,,,,,,,,,,,,,,,,,,,,,,,,,,,,,,,,,,,,,,109,153094,21,Female,1,2024/03/21_08:52:10,YZ,None,
,,,,,,calibration,0,25,2,679,,,,,,,,nan,0.0,nan,nan,1.0,nan,nan,0,0,4,10,14,0,0,4,10,0,,,,1,,,,,,,,,,,,,,,,,,,,,,,,,,,,,,,,,,,,,,,,,,,,,,109,153094,21,Female,1,2024/03/21_08:52:10,YZ,None,
,,,,,,Calibration,0,,2,679,,,,,,,,,,,,,,,,,,,,,,,,,2,,,1,,,,,,,,,,,,,,,,,,,,,,,,,,,,,,,,,,,,,,,,,,,,,,109,153094,21,Female,1,2024/03/21_08:52:10,YZ,None,
,,,,,,calibration,0,19,2,788,1,F,0,left,1.3540874250029447,0,0,,,,,,,,,,,,,,,,,,,,,1,,,,,,,,,,,,,,,,,,,,,,,,,,,,,,,,,,,,,,,,,,,,,,109,153094,21,Female,1,2024/03/21_08:52:10,YZ,None,
,,,,,,calibration,0,19,2,788,2,N,0,left,nan,0,1,,,,,,,,,,,,,,,,,,,,,1,,,,,,,,,,,,,,,,,,,,,,,,,,,,,,,,,,,,,,,,,,,,,,109,153094,21,Female,1,2024/03/21_08:52:10,YZ,None,
,,,,,,calibration,0,19,2,788,3,F,1,left,0.5684990329973516,1,0,,,,,,,,,,,,,,,,,,,,,1,,,,,,,,,,,,,,,,,,,,,,,,,,,,,,,,,,,,,,,,,,,,,,109,153094,21,Female,1,2024/03/21_08:52:10,YZ,None,
,,,,,,calibration,0,19,2,788,4,V,0,left,nan,0,1,,,,,,,,,,,,,,,,,,,,,1,,,,,,,,,,,,,,,,,,,,,,,,,,,,,,,,,,,,,,,,,,,,,,109,153094,21,Female,1,2024/03/21_08:52:10,YZ,None,
,,,,,,calibration,0,19,2,788,5,F,1,right,0.44352761999471113,0,0,,,,,,,,,,,,,,,,,,,,,1,,,,,,,,,,,,,,,,,,,,,,,,,,,,,,,,,,,,,,,,,,,,,,109,153094,21,Female,1,2024/03/21_08:52:10,YZ,None,
,,,,,,calibration,0,19,2,788,6,C,0,right,nan,0,1,,,,,,,,,,,,,,,,,,,,,1,,,,,,,,,,,,,,,,,,,,,,,,,,,,,,,,,,,,,,,,,,,,,,109,153094,21,Female,1,2024/03/21_08:52:10,YZ,None,
,,,,,,calibration,0,19,2,788,7,F,1,left,0.43709150200447766,1,0,,,,,,,,,,,,,,,,,,,,,1,,,,,,,,,,,,,,,,,,,,,,,,,,,,,,,,,,,,,,,,,,,,,,109,153094,21,Female,1,2024/03/21_08:52:10,YZ,None,
,,,,,,calibration,0,19,2,788,8,S,0,left,nan,0,1,,,,,,,,,,,,,,,,,,,,,1,,,,,,,,,,,,,,,,,,,,,,,,,,,,,,,,,,,,,,,,,,,,,,109,153094,21,Female,1,2024/03/21_08:52:10,YZ,None,
,,,,,,calibration,0,19,2,788,9,X,0,left,0.7583761739952024,0,0,,,,,,,,,,,,,,,,,,,,,1,,,,,,,,,,,,,,,,,,,,,,,,,,,,,,,,,,,,,,,,,,,,,,109,153094,21,Female,1,2024/03/21_08:52:10,YZ,None,
,,,,,,calibration,0,19,2,788,10,F,0,right,0.5122410289986874,1,0,,,,,,,,,,,,,,,,,,,,,1,,,,,,,,,,,,,,,,,,,,,,,,,,,,,,,,,,,,,,,,,,,,,,109,153094,21,Female,1,2024/03/21_08:52:10,YZ,None,
,,,,,,calibration,0,19,2,788,11,J,0,left,0.43171610699937446,0,0,,,,,,,,,,,,,,,,,,,,,1,,,,,,,,,,,,,,,,,,,,,,,,,,,,,,,,,,,,,,,,,,,,,,109,153094,21,Female,1,2024/03/21_08:52:10,YZ,None,
,,,,,,calibration,0,19,2,788,12,F,1,left,0.7747823409954435,1,0,,,,,,,,,,,,,,,,,,,,,1,,,,,,,,,,,,,,,,,,,,,,,,,,,,,,,,,,,,,,,,,,,,,,109,153094,21,Female,1,2024/03/21_08:52:10,YZ,None,
,,,,,,calibration,0,19,2,788,13,N,0,left,nan,0,1,,,,,,,,,,,,,,,,,,,,,1,,,,,,,,,,,,,,,,,,,,,,,,,,,,,,,,,,,,,,,,,,,,,,109,153094,21,Female,1,2024/03/21_08:52:10,YZ,None,
,,,,,,calibration,0,19,2,788,,,,,,,,0.7708333333333333,0.75,0.3333333333333333,0.25,0.38461538461538464,0.2820512820512821,0.6600401538735241,3,3,0,5,5,1,4,4,9,0,,,,1,,,,,,,,,,,,,,,,,,,,,,,,,,,,,,,,,,,,,,,,,,,,,,109,153094,21,Female,1,2024/03/21_08:52:10,YZ,None,
,,,,,,Calibration,0,,2,788,,,,,,,,,,,,,,,,,,,,,,,,,3,,,1,,,,,,,,,,,,,,,,,,,,,,,,,,,,,,,,,,,,,,,,,,,,,,109,153094,21,Female,1,2024/03/21_08:52:10,YZ,None,
,,,,,,calibration,0,14,2,788,1,V,0,None,nan,0,1,,,,,,,,,,,,,,,,,,,,,1,,,,,,,,,,,,,,,,,,,,,,,,,,,,,,,,,,,,,,,,,,,,,,109,153094,21,Female,1,2024/03/21_08:52:10,YZ,None,
,,,,,,calibration,0,14,2,788,2,V,0,None,nan,0,1,,,,,,,,,,,,,,,,,,,,,1,,,,,,,,,,,,,,,,,,,,,,,,,,,,,,,,,,,,,,,,,,,,,,109,153094,21,Female,1,2024/03/21_08:52:10,YZ,None,
,,,,,,calibration,0,14,2,788,3,J,0,right,1.491606828996737,1,0,,,,,,,,,,,,,,,,,,,,,1,,,,,,,,,,,,,,,,,,,,,,,,,,,,,,,,,,,,,,,,,,,,,,109,153094,21,Female,1,2024/03/21_08:52:10,YZ,None,
,,,,,,calibration,0,14,2,788,4,V,1,right,nan,0,1,,,,,,,,,,,,,,,,,,,,,1,,,,,,,,,,,,,,,,,,,,,,,,,,,,,,,,,,,,,,,,,,,,,,109,153094,21,Female,1,2024/03/21_08:52:10,YZ,None,
,,,,,,calibration,0,14,2,788,5,N,0,right,nan,0,1,,,,,,,,,,,,,,,,,,,,,1,,,,,,,,,,,,,,,,,,,,,,,,,,,,,,,,,,,,,,,,,,,,,,109,153094,21,Female,1,2024/03/21_08:52:10,YZ,None,
,,,,,,calibration,0,14,2,788,6,F,0,left,0.8742755470011616,0,0,,,,,,,,,,,,,,,,,,,,,1,,,,,,,,,,,,,,,,,,,,,,,,,,,,,,,,,,,,,,,,,,,,,,109,153094,21,Female,1,2024/03/21_08:52:10,YZ,None,
,,,,,,calibration,0,14,2,788,7,C,0,left,nan,0,1,,,,,,,,,,,,,,,,,,,,,1,,,,,,,,,,,,,,,,,,,,,,,,,,,,,,,,,,,,,,,,,,,,,,109,153094,21,Female,1,2024/03/21_08:52:10,YZ,None,
,,,,,,calibration,0,14,2,788,8,S,0,left,1.2315754800001741,0,0,,,,,,,,,,,,,,,,,,,,,1,,,,,,,,,,,,,,,,,,,,,,,,,,,,,,,,,,,,,,,,,,,,,,109,153094,21,Female,1,2024/03/21_08:52:10,YZ,None,
,,,,,,calibration,0,14,2,788,9,C,1,left,nan,0,1,,,,,,,,,,,,,,,,,,,,,1,,,,,,,,,,,,,,,,,,,,,,,,,,,,,,,,,,,,,,,,,,,,,,109,153094,21,Female,1,2024/03/21_08:52:10,YZ,None,
,,,,,,calibration,0,14,2,788,10,V,0,right,0.5244427469951916,1,0,,,,,,,,,,,,,,,,,,,,,1,,,,,,,,,,,,,,,,,,,,,,,,,,,,,,,,,,,,,,,,,,,,,,109,153094,21,Female,1,2024/03/21_08:52:10,YZ,None,
,,,,,,calibration,0,14,2,788,11,X,0,right,nan,0,1,,,,,,,,,,,,,,,,,,,,,1,,,,,,,,,,,,,,,,,,,,,,,,,,,,,,,,,,,,,,,,,,,,,,109,153094,21,Female,1,2024/03/21_08:52:10,YZ,None,
,,,,,,calibration,0,14,2,788,12,V,1,left,0.3333692619999056,1,0,,,,,,,,,,,,,,,,,,,,,1,,,,,,,,,,,,,,,,,,,,,,,,,,,,,,,,,,,,,,,,,,,,,,109,153094,21,Female,1,2024/03/21_08:52:10,YZ,None,
,,,,,,calibration,0,14,2,788,13,X,1,left,nan,0,1,,,,,,,,,,,,,,,,,,,,,1,,,,,,,,,,,,,,,,,,,,,,,,,,,,,,,,,,,,,,,,,,,,,,109,153094,21,Female,1,2024/03/21_08:52:10,YZ,None,
,,,,,,calibration,0,14,2,788,,,,,,,,0.5347222222222222,0.25,0.2222222222222222,0.5,0.6153846153846154,0.16239316239316237,0.891053972998634,1,2,3,5,8,2,3,4,9,0,,,,1,,,,,,,,,,,,,,,,,,,,,,,,,,,,,,,,,,,,,,,,,,,,,,109,153094,21,Female,1,2024/03/21_08:52:10,YZ,None,
,,,,,,Calibration,0,,2,788,,,,,,,,,,,,,,,,,,,,,,,,,4,,,1,,,,,,,,,,,,,,,,,,,,,,,,,,,,,,,,,,,,,,,,,,,,,,109,153094,21,Female,1,2024/03/21_08:52:10,YZ,None,
,,,,,,calibration,0,12,2,917,1,S,0,None,nan,0,1,,,,,,,,,,,,,,,,,,,,,1,,,,,,,,,,,,,,,,,,,,,,,,,,,,,,,,,,,,,,,,,,,,,,109,153094,21,Female,1,2024/03/21_08:52:10,YZ,None,
,,,,,,calibration,0,12,2,917,2,Q,0,None,nan,0,1,,,,,,,,,,,,,,,,,,,,,1,,,,,,,,,,,,,,,,,,,,,,,,,,,,,,,,,,,,,,,,,,,,,,109,153094,21,Female,1,2024/03/21_08:52:10,YZ,None,
,,,,,,calibration,0,12,2,917,3,V,0,right,1.0010669459952624,1,0,,,,,,,,,,,,,,,,,,,,,1,,,,,,,,,,,,,,,,,,,,,,,,,,,,,,,,,,,,,,,,,,,,,,109,153094,21,Female,1,2024/03/21_08:52:10,YZ,None,
,,,,,,calibration,0,12,2,917,4,N,0,right,nan,0,1,,,,,,,,,,,,,,,,,,,,,1,,,,,,,,,,,,,,,,,,,,,,,,,,,,,,,,,,,,,,,,,,,,,,109,153094,21,Female,1,2024/03/21_08:52:10,YZ,None,
,,,,,,calibration,0,12,2,917,5,F,0,right,nan,0,1,,,,,,,,,,,,,,,,,,,,,1,,,,,,,,,,,,,,,,,,,,,,,,,,,,,,,,,,,,,,,,,,,,,,109,153094,21,Female,1,2024/03/21_08:52:10,YZ,None,
,,,,,,calibration,0,12,2,917,6,N,1,left,1.5816183679999085,1,0,,,,,,,,,,,,,,,,,,,,,1,,,,,,,,,,,,,,,,,,,,,,,,,,,,,,,,,,,,,,,,,,,,,,109,153094,21,Female,1,2024/03/21_08:52:10,YZ,None,
,,,,,,calibration,0,12,2,917,7,F,1,left,nan,0,1,,,,,,,,,,,,,,,,,,,,,1,,,,,,,,,,,,,,,,,,,,,,,,,,,,,,,,,,,,,,,,,,,,,,109,153094,21,Female,1,2024/03/21_08:52:10,YZ,None,
,,,,,,calibration,0,12,2,917,8,J,0,left,nan,0,1,,,,,,,,,,,,,,,,,,,,,1,,,,,,,,,,,,,,,,,,,,,,,,,,,,,,,,,,,,,,,,,,,,,,109,153094,21,Female,1,2024/03/21_08:52:10,YZ,None,
,,,,,,calibration,0,12,2,917,9,F,1,left,0.7596726869960548,1,0,,,,,,,,,,,,,,,,,,,,,1,,,,,,,,,,,,,,,,,,,,,,,,,,,,,,,,,,,,,,,,,,,,,,109,153094,21,Female,1,2024/03/21_08:52:10,YZ,None,
,,,,,,calibration,0,12,2,917,10,X,0,left,nan,0,1,,,,,,,,,,,,,,,,,,,,,1,,,,,,,,,,,,,,,,,,,,,,,,,,,,,,,,,,,,,,,,,,,,,,109,153094,21,Female,1,2024/03/21_08:52:10,YZ,None,
,,,,,,calibration,0,12,2,917,11,Q,0,left,nan,0,1,,,,,,,,,,,,,,,,,,,,,1,,,,,,,,,,,,,,,,,,,,,,,,,,,,,,,,,,,,,,,,,,,,,,109,153094,21,Female,1,2024/03/21_08:52:10,YZ,None,
,,,,,,calibration,0,12,2,917,12,F,0,right,0.8751226309977937,1,0,,,,,,,,,,,,,,,,,,,,,1,,,,,,,,,,,,,,,,,,,,,,,,,,,,,,,,,,,,,,,,,,,,,,109,153094,21,Female,1,2024/03/21_08:52:10,YZ,None,
,,,,,,calibration,0,12,2,917,,,,,,,,0.9166666666666666,0.6666666666666666,0.0,1.0,0.6666666666666666,0.33333333333333337,1.0543701579972549,2,0,1,7,8,2,4,3,9,0,,,,1,,,,,,,,,,,,,,,,,,,,,,,,,,,,,,,,,,,,,,,,,,,,,,109,153094,21,Female,1,2024/03/21_08:52:10,YZ,None,
,,,,,,Calibration,0,,2,917,,,,,,,,,,,,,,,,,,,,,,,,,5,,,1,,,,,,,,,,,,,,,,,,,,,,,,,,,,,,,,,,,,,,,,,,,,,,109,153094,21,Female,1,2024/03/21_08:52:10,YZ,None,
,,,,,,calibration,0,20,2,788,1,C,0,None,nan,0,1,,,,,,,,,,,,,,,,,,,,,1,,,,,,,,,,,,,,,,,,,,,,,,,,,,,,,,,,,,,,,,,,,,,,109,153094,21,Female,1,2024/03/21_08:52:10,YZ,None,
,,,,,,calibration,0,20,2,788,2,J,0,None,nan,0,1,,,,,,,,,,,,,,,,,,,,,1,,,,,,,,,,,,,,,,,,,,,,,,,,,,,,,,,,,,,,,,,,,,,,109,153094,21,Female,1,2024/03/21_08:52:10,YZ,None,
,,,,,,calibration,0,20,2,788,3,Q,0,right,1.0588288560029468,1,0,,,,,,,,,,,,,,,,,,,,,1,,,,,,,,,,,,,,,,,,,,,,,,,,,,,,,,,,,,,,,,,,,,,,109,153094,21,Female,1,2024/03/21_08:52:10,YZ,None,
,,,,,,calibration,0,20,2,788,4,J,1,right,nan,0,1,,,,,,,,,,,,,,,,,,,,,1,,,,,,,,,,,,,,,,,,,,,,,,,,,,,,,,,,,,,,,,,,,,,,109,153094,21,Female,1,2024/03/21_08:52:10,YZ,None,
,,,,,,calibration,0,20,2,788,5,Q,1,right,nan,0,1,,,,,,,,,,,,,,,,,,,,,1,,,,,,,,,,,,,,,,,,,,,,,,,,,,,,,,,,,,,,,,,,,,,,109,153094,21,Female,1,2024/03/21_08:52:10,YZ,None,
,,,,,,calibration,0,20,2,788,6,F,0,right,0.6917546839977149,1,0,,,,,,,,,,,,,,,,,,,,,1,,,,,,,,,,,,,,,,,,,,,,,,,,,,,,,,,,,,,,,,,,,,,,109,153094,21,Female,1,2024/03/21_08:52:10,YZ,None,
,,,,,,calibration,0,20,2,788,7,V,0,right,nan,0,1,,,,,,,,,,,,,,,,,,,,,1,,,,,,,,,,,,,,,,,,,,,,,,,,,,,,,,,,,,,,,,,,,,,,109,153094,21,Female,1,2024/03/21_08:52:10,YZ,None,
,,,,,,calibration,0,20,2,788,8,N,0,right,nan,0,1,,,,,,,,,,,,,,,,,,,,,1,,,,,,,,,,,,,,,,,,,,,,,,,,,,,,,,,,,,,,,,,,,,,,109,153094,21,Female,1,2024/03/21_08:52:10,YZ,None,
,,,,,,calibration,0,20,2,788,9,X,0,right,1.3415085050000926,1,0,,,,,,,,,,,,,,,,,,,,,1,,,,,,,,,,,,,,,,,,,,,,,,,,,,,,,,,,,,,,,,,,,,,,109,153094,21,Female,1,2024/03/21_08:52:10,YZ,None,
,,,,,,calibration,0,20,2,788,10,S,0,right,nan,0,1,,,,,,,,,,,,,,,,,,,,,1,,,,,,,,,,,,,,,,,,,,,,,,,,,,,,,,,,,,,,,,,,,,,,109,153094,21,Female,1,2024/03/21_08:52:10,YZ,None,
,,,,,,calibration,0,20,2,788,11,X,1,right,nan,0,1,,,,,,,,,,,,,,,,,,,,,1,,,,,,,,,,,,,,,,,,,,,,,,,,,,,,,,,,,,,,,,,,,,,,109,153094,21,Female,1,2024/03/21_08:52:10,YZ,None,
,,,,,,calibration,0,20,2,788,12,J,0,left,1.0590455120036495,0,0,,,,,,,,,,,,,,,,,,,,,1,,,,,,,,,,,,,,,,,,,,,,,,,,,,,,,,,,,,,,,,,,,,,,109,153094,21,Female,1,2024/03/21_08:52:10,YZ,None,
,,,,,,calibration,0,20,2,788,13,X,1,left,nan,0,1,,,,,,,,,,,,,,,,,,,,,1,,,,,,,,,,,,,,,,,,,,,,,,,,,,,,,,,,,,,,,,,,,,,,109,153094,21,Female,1,2024/03/21_08:52:10,YZ,None,
,,,,,,calibration,0,20,2,788,,,,,,,,0.2222222222222222,0.0,0.1111111111111111,0.75,0.6923076923076923,0.19658119658119655,1.037784389251101,0,1,4,5,9,3,3,4,9,0,,,,1,,,,,,,,,,,,,,,,,,,,,,,,,,,,,,,,,,,,,,,,,,,,,,109,153094,21,Female,1,2024/03/21_08:52:10,YZ,None,
,,,,,,Calibration,0,,2,788,,,,,,,,,,,,,,,,,,,,,,,,,6,,,1,,,,,,,,,,,,,,,,,,,,,,,,,,,,,,,,,,,,,,,,,,,,,,109,153094,21,Female,1,2024/03/21_08:52:10,YZ,None,
,,,,,,calibration,0,9,2,917,1,J,0,None,nan,0,1,,,,,,,,,,,,,,,,,,,,,1,,,,,,,,,,,,,,,,,,,,,,,,,,,,,,,,,,,,,,,,,,,,,,109,153094,21,Female,1,2024/03/21_08:52:10,YZ,None,
,,,,,,calibration,0,9,2,917,2,S,0,None,nan,0,1,,,,,,,,,,,,,,,,,,,,,1,,,,,,,,,,,,,,,,,,,,,,,,,,,,,,,,,,,,,,,,,,,,,,109,153094,21,Female,1,2024/03/21_08:52:10,YZ,None,
,,,,,,calibration,0,9,2,917,3,J,1,left,0.6413194470005692,1,0,,,,,,,,,,,,,,,,,,,,,1,,,,,,,,,,,,,,,,,,,,,,,,,,,,,,,,,,,,,,,,,,,,,,109,153094,21,Female,1,2024/03/21_08:52:10,YZ,None,
,,,,,,calibration,0,9,2,917,4,X,0,left,nan,0,1,,,,,,,,,,,,,,,,,,,,,1,,,,,,,,,,,,,,,,,,,,,,,,,,,,,,,,,,,,,,,,,,,,,,109,153094,21,Female,1,2024/03/21_08:52:10,YZ,None,
,,,,,,calibration,0,9,2,917,5,V,0,left,nan,0,1,,,,,,,,,,,,,,,,,,,,,1,,,,,,,,,,,,,,,,,,,,,,,,,,,,,,,,,,,,,,,,,,,,,,109,153094,21,Female,1,2024/03/21_08:52:10,YZ,None,
,,,,,,calibration,0,9,2,917,6,S,0,right,1.1413419129967224,1,0,,,,,,,,,,,,,,,,,,,,,1,,,,,,,,,,,,,,,,,,,,,,,,,,,,,,,,,,,,,,,,,,,,,,109,153094,21,Female,1,2024/03/21_08:52:10,YZ,None,
,,,,,,calibration,0,9,2,917,7,X,0,right,nan,0,1,,,,,,,,,,,,,,,,,,,,,1,,,,,,,,,,,,,,,,,,,,,,,,,,,,,,,,,,,,,,,,,,,,,,109,153094,21,Female,1,2024/03/21_08:52:10,YZ,None,
,,,,,,calibration,0,9,2,917,8,S,1,right,nan,0,1,,,,,,,,,,,,,,,,,,,,,1,,,,,,,,,,,,,,,,,,,,,,,,,,,,,,,,,,,,,,,,,,,,,,109,153094,21,Female,1,2024/03/21_08:52:10,YZ,None,
,,,,,,calibration,0,9,2,917,9,Q,0,right,0.9992830120027065,1,0,,,,,,,,,,,,,,,,,,,,,1,,,,,,,,,,,,,,,,,,,,,,,,,,,,,,,,,,,,,,,,,,,,,,109,153094,21,Female,1,2024/03/21_08:52:10,YZ,None,
,,,,,,calibration,0,9,2,917,10,S,1,right,nan,0,1,,,,,,,,,,,,,,,,,,,,,1,,,,,,,,,,,,,,,,,,,,,,,,,,,,,,,,,,,,,,,,,,,,,,109,153094,21,Female,1,2024/03/21_08:52:10,YZ,None,
,,,,,,calibration,0,9,2,917,11,J,0,right,nan,0,1,,,,,,,,,,,,,,,,,,,,,1,,,,,,,,,,,,,,,,,,,,,,,,,,,,,,,,,,,,,,,,,,,,,,109,153094,21,Female,1,2024/03/21_08:52:10,YZ,None,
,,,,,,calibration,0,9,2,917,12,C,0,right,0.808150654003839,1,0,,,,,,,,,,,,,,,,,,,,,1,,,,,,,,,,,,,,,,,,,,,,,,,,,,,,,,,,,,,,,,,,,,,,109,153094,21,Female,1,2024/03/21_08:52:10,YZ,None,
,,,,,,calibration,0,9,2,917,,,,,,,,0.8333333333333334,0.3333333333333333,0.0,1.0,0.6666666666666666,0.33333333333333337,0.8975237565009593,1,0,2,6,8,3,4,3,9,0,,,,1,,,,,,,,,,,,,,,,,,,,,,,,,,,,,,,,,,,,,,,,,,,,,,109,153094,21,Female,1,2024/03/21_08:52:10,YZ,None,
,,,,,,Calibration,0,,2,917,,,,,,,,,,,,,,,,,,,,,,,,,7,,,1,,,,,,,,,,,,,,,,,,,,,,,,,,,,,,,,,,,,,,,,,,,,,,109,153094,21,Female,1,2024/03/21_08:52:10,YZ,None,
,,,,,,calibration,0,5,2,917,1,V,0,None,nan,0,1,,,,,,,,,,,,,,,,,,,,,1,,,,,,,,,,,,,,,,,,,,,,,,,,,,,,,,,,,,,,,,,,,,,,109,153094,21,Female,1,2024/03/21_08:52:10,YZ,None,
,,,,,,calibration,0,5,2,917,2,Q,0,None,nan,0,1,,,,,,,,,,,,,,,,,,,,,1,,,,,,,,,,,,,,,,,,,,,,,,,,,,,,,,,,,,,,,,,,,,,,109,153094,21,Female,1,2024/03/21_08:52:10,YZ,None,
,,,,,,calibration,0,5,2,917,3,V,1,right,0.6087853799981531,0,0,,,,,,,,,,,,,,,,,,,,,1,,,,,,,,,,,,,,,,,,,,,,,,,,,,,,,,,,,,,,,,,,,,,,109,153094,21,Female,1,2024/03/21_08:52:10,YZ,None,
,,,,,,calibration,0,5,2,917,4,Q,1,right,nan,0,1,,,,,,,,,,,,,,,,,,,,,1,,,,,,,,,,,,,,,,,,,,,,,,,,,,,,,,,,,,,,,,,,,,,,109,153094,21,Female,1,2024/03/21_08:52:10,YZ,None,
,,,,,,calibration,0,5,2,917,5,J,0,right,nan,0,1,,,,,,,,,,,,,,,,,,,,,1,,,,,,,,,,,,,,,,,,,,,,,,,,,,,,,,,,,,,,,,,,,,,,109,153094,21,Female,1,2024/03/21_08:52:10,YZ,None,
,,,,,,calibration,0,5,2,917,6,X,0,right,0.7754594760044711,1,0,,,,,,,,,,,,,,,,,,,,,1,,,,,,,,,,,,,,,,,,,,,,,,,,,,,,,,,,,,,,,,,,,,,,109,153094,21,Female,1,2024/03/21_08:52:10,YZ,None,
,,,,,,calibration,0,5,2,917,7,V,0,right,nan,0,1,,,,,,,,,,,,,,,,,,,,,1,,,,,,,,,,,,,,,,,,,,,,,,,,,,,,,,,,,,,,,,,,,,,,109,153094,21,Female,1,2024/03/21_08:52:10,YZ,None,
,,,,,,calibration,0,5,2,917,8,J,0,right,nan,0,1,,,,,,,,,,,,,,,,,,,,,1,,,,,,,,,,,,,,,,,,,,,,,,,,,,,,,,,,,,,,,,,,,,,,109,153094,21,Female,1,2024/03/21_08:52:10,YZ,None,
,,,,,,calibration,0,5,2,917,9,V,1,left,0.5744450819984195,1,0,,,,,,,,,,,,,,,,,,,,,1,,,,,,,,,,,,,,,,,,,,,,,,,,,,,,,,,,,,,,,,,,,,,,109,153094,21,Female,1,2024/03/21_08:52:10,YZ,None,
,,,,,,calibration,0,5,2,917,10,C,0,left,nan,0,1,,,,,,,,,,,,,,,,,,,,,1,,,,,,,,,,,,,,,,,,,,,,,,,,,,,,,,,,,,,,,,,,,,,,109,153094,21,Female,1,2024/03/21_08:52:10,YZ,None,
,,,,,,calibration,0,5,2,917,11,V,1,left,nan,0,1,,,,,,,,,,,,,,,,,,,,,1,,,,,,,,,,,,,,,,,,,,,,,,,,,,,,,,,,,,,,,,,,,,,,109,153094,21,Female,1,2024/03/21_08:52:10,YZ,None,
,,,,,,calibration,0,5,2,917,12,Q,0,right,0.6472301319954568,1,0,,,,,,,,,,,,,,,,,,,,,1,,,,,,,,,,,,,,,,,,,,,,,,,,,,,,,,,,,,,,,,,,,,,,109,153094,21,Female,1,2024/03/21_08:52:10,YZ,None,
,,,,,,calibration,0,5,2,917,,,,,,,,0.8125,0.25,0.0,1.0,0.6666666666666666,0.33333333333333337,0.6514800174991251,1,0,2,6,8,2,3,4,8,0,,,,1,,,,,,,,,,,,,,,,,,,,,,,,,,,,,,,,,,,,,,,,,,,,,,109,153094,21,Female,1,2024/03/21_08:52:10,YZ,None,
,,,,,,Calibration,0,,2,917,,,,,,,,,,,,,,,,,,,,,,,,,8,,,1,,,,,,,,,,,,,,,,,,,,,,,,,,,,,,,,,,,,,,,,,,,,,,109,153094,21,Female,1,2024/03/21_08:52:10,YZ,None,
,,,,,,calibration,0,36,2,917,1,C,0,None,nan,0,1,,,,,,,,,,,,,,,,,,,,,1,,,,,,,,,,,,,,,,,,,,,,,,,,,,,,,,,,,,,,,,,,,,,,109,153094,21,Female,1,2024/03/21_08:52:10,YZ,None,
,,,,,,calibration,0,36,2,917,2,S,0,None,nan,0,1,,,,,,,,,,,,,,,,,,,,,1,,,,,,,,,,,,,,,,,,,,,,,,,,,,,,,,,,,,,,,,,,,,,,109,153094,21,Female,1,2024/03/21_08:52:10,YZ,None,
,,,,,,calibration,0,36,2,917,3,X,0,right,1.4978665890012053,1,0,,,,,,,,,,,,,,,,,,,,,1,,,,,,,,,,,,,,,,,,,,,,,,,,,,,,,,,,,,,,,,,,,,,,109,153094,21,Female,1,2024/03/21_08:52:10,YZ,None,
,,,,,,calibration,0,36,2,917,4,V,0,right,nan,0,1,,,,,,,,,,,,,,,,,,,,,1,,,,,,,,,,,,,,,,,,,,,,,,,,,,,,,,,,,,,,,,,,,,,,109,153094,21,Female,1,2024/03/21_08:52:10,YZ,None,
,,,,,,calibration,0,36,2,917,5,X,1,right,nan,0,1,,,,,,,,,,,,,,,,,,,,,1,,,,,,,,,,,,,,,,,,,,,,,,,,,,,,,,,,,,,,,,,,,,,,109,153094,21,Female,1,2024/03/21_08:52:10,YZ,None,
,,,,,,calibration,0,36,2,917,6,V,1,right,nan,0,1,,,,,,,,,,,,,,,,,,,,,1,,,,,,,,,,,,,,,,,,,,,,,,,,,,,,,,,,,,,,,,,,,,,,109,153094,21,Female,1,2024/03/21_08:52:10,YZ,None,
,,,,,,calibration,0,36,2,917,7,J,0,right,nan,0,1,,,,,,,,,,,,,,,,,,,,,1,,,,,,,,,,,,,,,,,,,,,,,,,,,,,,,,,,,,,,,,,,,,,,109,153094,21,Female,1,2024/03/21_08:52:10,YZ,None,
,,,,,,calibration,0,36,2,917,8,X,0,right,nan,0,1,,,,,,,,,,,,,,,,,,,,,1,,,,,,,,,,,,,,,,,,,,,,,,,,,,,,,,,,,,,,,,,,,,,,109,153094,21,Female,1,2024/03/21_08:52:10,YZ,None,
,,,,,,calibration,0,36,2,917,9,N,0,right,0.581116233006469,1,0,,,,,,,,,,,,,,,,,,,,,1,,,,,,,,,,,,,,,,,,,,,,,,,,,,,,,,,,,,,,,,,,,,,,109,153094,21,Female,1,2024/03/21_08:52:10,YZ,None,
,,,,,,calibration,0,36,2,917,10,J,0,right,nan,0,1,,,,,,,,,,,,,,,,,,,,,1,,,,,,,,,,,,,,,,,,,,,,,,,,,,,,,,,,,,,,,,,,,,,,109,153094,21,Female,1,2024/03/21_08:52:10,YZ,None,
,,,,,,calibration,0,36,2,917,11,N,1,right,nan,0,1,,,,,,,,,,,,,,,,,,,,,1,,,,,,,,,,,,,,,,,,,,,,,,,,,,,,,,,,,,,,,,,,,,,,109,153094,21,Female,1,2024/03/21_08:52:10,YZ,None,
,,,,,,calibration,0,36,2,917,12,J,1,left,0.4997798819968011,1,0,,,,,,,,,,,,,,,,,,,,,1,,,,,,,,,,,,,,,,,,,,,,,,,,,,,,,,,,,,,,,,,,,,,,109,153094,21,Female,1,2024/03/21_08:52:10,YZ,None,
,,,,,,calibration,0,36,2,917,,,,,,,,0.8125,0.25,0.0,1.0,0.75,0.25,0.8595875680014918,1,0,3,6,9,2,3,4,8,0,,,,1,,,,,,,,,,,,,,,,,,,,,,,,,,,,,,,,,,,,,,,,,,,,,,109,153094,21,Female,1,2024/03/21_08:52:10,YZ,None,
,,,,,,Calibration,0,,2,917,,,,,,,,,,,,,,,,,,,,,,,,,9,,,1,,,,,,,,,,,,,,,,,,,,,,,,,,,,,,,,,,,,,,,,,,,,,,109,153094,21,Female,1,2024/03/21_08:52:10,YZ,None,
,,,,,,calibration,0,29,2,917,1,S,0,None,nan,0,1,,,,,,,,,,,,,,,,,,,,,1,,,,,,,,,,,,,,,,,,,,,,,,,,,,,,,,,,,,,,,,,,,,,,109,153094,21,Female,1,2024/03/21_08:52:10,YZ,None,
,,,,,,calibration,0,29,2,917,2,C,0,None,nan,0,1,,,,,,,,,,,,,,,,,,,,,1,,,,,,,,,,,,,,,,,,,,,,,,,,,,,,,,,,,,,,,,,,,,,,109,153094,21,Female,1,2024/03/21_08:52:10,YZ,None,
,,,,,,calibration,0,29,2,917,3,J,0,right,0.6246552930024336,1,0,,,,,,,,,,,,,,,,,,,,,1,,,,,,,,,,,,,,,,,,,,,,,,,,,,,,,,,,,,,,,,,,,,,,109,153094,21,Female,1,2024/03/21_08:52:10,YZ,None,
,,,,,,calibration,0,29,2,917,4,C,1,right,nan,0,1,,,,,,,,,,,,,,,,,,,,,1,,,,,,,,,,,,,,,,,,,,,,,,,,,,,,,,,,,,,,,,,,,,,,109,153094,21,Female,1,2024/03/21_08:52:10,YZ,None,
,,,,,,calibration,0,29,2,917,5,J,1,right,nan,0,1,,,,,,,,,,,,,,,,,,,,,1,,,,,,,,,,,,,,,,,,,,,,,,,,,,,,,,,,,,,,,,,,,,,,109,153094,21,Female,1,2024/03/21_08:52:10,YZ,None,
,,,,,,calibration,0,29,2,917,6,V,0,right,1.0244271749979816,1,0,,,,,,,,,,,,,,,,,,,,,1,,,,,,,,,,,,,,,,,,,,,,,,,,,,,,,,,,,,,,,,,,,,,,109,153094,21,Female,1,2024/03/21_08:52:10,YZ,None,
,,,,,,calibration,0,29,2,917,7,N,0,right,nan,0,1,,,,,,,,,,,,,,,,,,,,,1,,,,,,,,,,,,,,,,,,,,,,,,,,,,,,,,,,,,,,,,,,,,,,109,153094,21,Female,1,2024/03/21_08:52:10,YZ,None,
,,,,,,calibration,0,29,2,917,8,J,0,right,nan,0,1,,,,,,,,,,,,,,,,,,,,,1,,,,,,,,,,,,,,,,,,,,,,,,,,,,,,,,,,,,,,,,,,,,,,109,153094,21,Female,1,2024/03/21_08:52:10,YZ,None,
,,,,,,calibration,0,29,2,917,9,N,1,left,0.8822641959995963,1,0,,,,,,,,,,,,,,,,,,,,,1,,,,,,,,,,,,,,,,,,,,,,,,,,,,,,,,,,,,,,,,,,,,,,109,153094,21,Female,1,2024/03/21_08:52:10,YZ,None,
,,,,,,calibration,0,29,2,917,10,S,0,left,nan,0,1,,,,,,,,,,,,,,,,,,,,,1,,,,,,,,,,,,,,,,,,,,,,,,,,,,,,,,,,,,,,,,,,,,,,109,153094,21,Female,1,2024/03/21_08:52:10,YZ,None,
,,,,,,calibration,0,29,2,917,11,J,0,left,nan,0,1,,,,,,,,,,,,,,,,,,,,,1,,,,,,,,,,,,,,,,,,,,,,,,,,,,,,,,,,,,,,,,,,,,,,109,153094,21,Female,1,2024/03/21_08:52:10,YZ,None,
,,,,,,calibration,0,29,2,917,12,C,0,right,1.2417912320015603,1,0,,,,,,,,,,,,,,,,,,,,,1,,,,,,,,,,,,,,,,,,,,,,,,,,,,,,,,,,,,,,,,,,,,,,109,153094,21,Female,1,2024/03/21_08:52:10,YZ,None,
,,,,,,calibration,0,29,2,917,,,,,,,,0.8333333333333334,0.3333333333333333,0.0,1.0,0.6666666666666666,0.33333333333333337,0.943284474000393,1,0,2,6,8,3,4,3,9,0,,,,1,,,,,,,,,,,,,,,,,,,,,,,,,,,,,,,,,,,,,,,,,,,,,,109,153094,21,Female,1,2024/03/21_08:52:10,YZ,None,
,,,,,,Calibration,0,,2,917,,,,,,,,,,,,,,,,,,,,,,,,,10,,,1,,,,,,,,,,,,,,,,,,,,,,,,,,,,,,,,,,,,,,,,,,,,,,109,153094,21,Female,1,2024/03/21_08:52:10,YZ,None,
,,,,,,calibration,0,13,2,917,1,X,0,None,nan,0,1,,,,,,,,,,,,,,,,,,,,,1,,,,,,,,,,,,,,,,,,,,,,,,,,,,,,,,,,,,,,,,,,,,,,109,153094,21,Female,1,2024/03/21_08:52:10,YZ,None,
,,,,,,calibration,0,13,2,917,2,N,0,None,nan,0,1,,,,,,,,,,,,,,,,,,,,,1,,,,,,,,,,,,,,,,,,,,,,,,,,,,,,,,,,,,,,,,,,,,,,109,153094,21,Female,1,2024/03/21_08:52:10,YZ,None,
,,,,,,calibration,0,13,2,917,3,X,1,right,1.543169181997655,0,0,,,,,,,,,,,,,,,,,,,,,1,,,,,,,,,,,,,,,,,,,,,,,,,,,,,,,,,,,,,,,,,,,,,,109,153094,21,Female,1,2024/03/21_08:52:10,YZ,None,
,,,,,,calibration,0,13,2,917,4,F,0,right,nan,0,1,,,,,,,,,,,,,,,,,,,,,1,,,,,,,,,,,,,,,,,,,,,,,,,,,,,,,,,,,,,,,,,,,,,,109,153094,21,Female,1,2024/03/21_08:52:10,YZ,None,
,,,,,,calibration,0,13,2,917,5,X,1,right,nan,0,1,,,,,,,,,,,,,,,,,,,,,1,,,,,,,,,,,,,,,,,,,,,,,,,,,,,,,,,,,,,,,,,,,,,,109,153094,21,Female,1,2024/03/21_08:52:10,YZ,None,
,,,,,,calibration,0,13,2,917,6,V,0,left,1.05812038500153,0,0,,,,,,,,,,,,,,,,,,,,,1,,,,,,,,,,,,,,,,,,,,,,,,,,,,,,,,,,,,,,,,,,,,,,109,153094,21,Female,1,2024/03/21_08:52:10,YZ,None,
,,,,,,calibration,0,13,2,917,7,F,0,left,nan,0,1,,,,,,,,,,,,,,,,,,,,,1,,,,,,,,,,,,,,,,,,,,,,,,,,,,,,,,,,,,,,,,,,,,,,109,153094,21,Female,1,2024/03/21_08:52:10,YZ,None,
,,,,,,calibration,0,13,2,917,8,C,0,left,nan,0,1,,,,,,,,,,,,,,,,,,,,,1,,,,,,,,,,,,,,,,,,,,,,,,,,,,,,,,,,,,,,,,,,,,,,109,153094,21,Female,1,2024/03/21_08:52:10,YZ,None,
,,,,,,calibration,0,13,2,917,9,S,0,left,1.5824907200003508,0,0,,,,,,,,,,,,,,,,,,,,,1,,,,,,,,,,,,,,,,,,,,,,,,,,,,,,,,,,,,,,,,,,,,,,109,153094,21,Female,1,2024/03/21_08:52:10,YZ,None,
,,,,,,calibration,0,13,2,917,10,N,0,left,nan,0,1,,,,,,,,,,,,,,,,,,,,,1,,,,,,,,,,,,,,,,,,,,,,,,,,,,,,,,,,,,,,,,,,,,,,109,153094,21,Female,1,2024/03/21_08:52:10,YZ,None,
,,,,,,calibration,0,13,2,917,11,J,0,left,nan,0,1,,,,,,,,,,,,,,,,,,,,,1,,,,,,,,,,,,,,,,,,,,,,,,,,,,,,,,,,,,,,,,,,,,,,109,153094,21,Female,1,2024/03/21_08:52:10,YZ,None,
,,,,,,calibration,0,13,2,917,12,N,1,right,0.7251204929998494,0,0,,,,,,,,,,,,,,,,,,,,,1,,,,,,,,,,,,,,,,,,,,,,,,,,,,,,,,,,,,,,,,,,,,,,109,153094,21,Female,1,2024/03/21_08:52:10,YZ,None,
,,,,,,calibration,0,13,2,917,,,,,,,,0.19444444444444445,0.0,0.2222222222222222,0.0,0.6666666666666666,0.11111111111111116,1.2272251949998463,0,2,1,7,8,0,0,3,9,0,,,,1,,,,,,,,,,,,,,,,,,,,,,,,,,,,,,,,,,,,,,,,,,,,,,109,153094,21,Female,1,2024/03/21_08:52:10,YZ,None,
,,,,,,Calibration,0,,2,917,,,,,,,,,,,,,,,,,,,,,,,,,11,,,1,,,,,,,,,,,,,,,,,,,,,,,,,,,,,,,,,,,,,,,,,,,,,,109,153094,21,Female,1,2024/03/21_08:52:10,YZ,None,
,,,,,,calibration,0,10,2,1068,1,C,0,None,nan,0,1,,,,,,,,,,,,,,,,,,,,,1,,,,,,,,,,,,,,,,,,,,,,,,,,,,,,,,,,,,,,,,,,,,,,109,153094,21,Female,1,2024/03/21_08:52:10,YZ,None,
,,,,,,calibration,0,10,2,1068,2,X,0,None,nan,0,1,,,,,,,,,,,,,,,,,,,,,1,,,,,,,,,,,,,,,,,,,,,,,,,,,,,,,,,,,,,,,,,,,,,,109,153094,21,Female,1,2024/03/21_08:52:10,YZ,None,
,,,,,,calibration,0,10,2,1068,3,C,1,left,0.7756008799988194,1,0,,,,,,,,,,,,,,,,,,,,,1,,,,,,,,,,,,,,,,,,,,,,,,,,,,,,,,,,,,,,,,,,,,,,109,153094,21,Female,1,2024/03/21_08:52:10,YZ,None,
,,,,,,calibration,0,10,2,1068,4,N,0,left,nan,0,1,,,,,,,,,,,,,,,,,,,,,1,,,,,,,,,,,,,,,,,,,,,,,,,,,,,,,,,,,,,,,,,,,,,,109,153094,21,Female,1,2024/03/21_08:52:10,YZ,None,
,,,,,,calibration,0,10,2,1068,5,S,0,left,nan,0,1,,,,,,,,,,,,,,,,,,,,,1,,,,,,,,,,,,,,,,,,,,,,,,,,,,,,,,,,,,,,,,,,,,,,109,153094,21,Female,1,2024/03/21_08:52:10,YZ,None,
,,,,,,calibration,0,10,2,1068,6,F,0,right,0.8483788939993246,1,0,,,,,,,,,,,,,,,,,,,,,1,,,,,,,,,,,,,,,,,,,,,,,,,,,,,,,,,,,,,,,,,,,,,,109,153094,21,Female,1,2024/03/21_08:52:10,YZ,None,
,,,,,,calibration,0,10,2,1068,7,N,0,right,nan,0,1,,,,,,,,,,,,,,,,,,,,,1,,,,,,,,,,,,,,,,,,,,,,,,,,,,,,,,,,,,,,,,,,,,,,109,153094,21,Female,1,2024/03/21_08:52:10,YZ,None,
,,,,,,calibration,0,10,2,1068,8,S,0,right,nan,0,1,,,,,,,,,,,,,,,,,,,,,1,,,,,,,,,,,,,,,,,,,,,,,,,,,,,,,,,,,,,,,,,,,,,,109,153094,21,Female,1,2024/03/21_08:52:10,YZ,None,
,,,,,,calibration,0,10,2,1068,9,V,0,right,0.7409027069952572,1,0,,,,,,,,,,,,,,,,,,,,,1,,,,,,,,,,,,,,,,,,,,,,,,,,,,,,,,,,,,,,,,,,,,,,109,153094,21,Female,1,2024/03/21_08:52:10,YZ,None,
,,,,,,calibration,0,10,2,1068,10,S,1,right,nan,0,1,,,,,,,,,,,,,,,,,,,,,1,,,,,,,,,,,,,,,,,,,,,,,,,,,,,,,,,,,,,,,,,,,,,,109,153094,21,Female,1,2024/03/21_08:52:10,YZ,None,
,,,,,,calibration,0,10,2,1068,11,V,1,right,nan,0,1,,,,,,,,,,,,,,,,,,,,,1,,,,,,,,,,,,,,,,,,,,,,,,,,,,,,,,,,,,,,,,,,,,,,109,153094,21,Female,1,2024/03/21_08:52:10,YZ,None,
,,,,,,calibration,0,10,2,1068,,,,,,,,0.8333333333333334,0.3333333333333333,0.0,1.0,0.7272727272727273,0.2727272727272727,0.7882941603311338,1,0,2,6,8,2,3,3,8,0,,,,1,,,,,,,,,,,,,,,,,,,,,,,,,,,,,,,,,,,,,,,,,,,,,,109,153094,21,Female,1,2024/03/21_08:52:10,YZ,None,
,,,,,,Calibration,0,,2,1068,,,,,,,,,,,,,,,,,,,,,,,,,12,,,1,,,,,,,,,,,,,,,,,,,,,,,,,,,,,,,,,,,,,,,,,,,,,,109,153094,21,Female,1,2024/03/21_08:52:10,YZ,None,
,,,,,,calibration,0,11,2,1068,1,Q,0,None,nan,0,1,,,,,,,,,,,,,,,,,,,,,1,,,,,,,,,,,,,,,,,,,,,,,,,,,,,,,,,,,,,,,,,,,,,,109,153094,21,Female,1,2024/03/21_08:52:10,YZ,None,
,,,,,,calibration,0,11,2,1068,2,X,0,None,nan,0,1,,,,,,,,,,,,,,,,,,,,,1,,,,,,,,,,,,,,,,,,,,,,,,,,,,,,,,,,,,,,,,,,,,,,109,153094,21,Female,1,2024/03/21_08:52:10,YZ,None,
,,,,,,calibration,0,11,2,1068,3,J,0,right,0.624572786000499,1,0,,,,,,,,,,,,,,,,,,,,,1,,,,,,,,,,,,,,,,,,,,,,,,,,,,,,,,,,,,,,,,,,,,,,109,153094,21,Female,1,2024/03/21_08:52:10,YZ,None,
,,,,,,calibration,0,11,2,1068,4,X,1,right,nan,0,1,,,,,,,,,,,,,,,,,,,,,1,,,,,,,,,,,,,,,,,,,,,,,,,,,,,,,,,,,,,,,,,,,,,,109,153094,21,Female,1,2024/03/21_08:52:10,YZ,None,
,,,,,,calibration,0,11,2,1068,5,F,0,right,nan,0,1,,,,,,,,,,,,,,,,,,,,,1,,,,,,,,,,,,,,,,,,,,,,,,,,,,,,,,,,,,,,,,,,,,,,109,153094,21,Female,1,2024/03/21_08:52:10,YZ,None,
,,,,,,calibration,0,11,2,1068,6,C,0,left,0.4167005839990452,0,0,,,,,,,,,,,,,,,,,,,,,1,,,,,,,,,,,,,,,,,,,,,,,,,,,,,,,,,,,,,,,,,,,,,,109,153094,21,Female,1,2024/03/21_08:52:10,YZ,None,
,,,,,,calibration,0,11,2,1068,7,J,0,left,nan,0,1,,,,,,,,,,,,,,,,,,,,,1,,,,,,,,,,,,,,,,,,,,,,,,,,,,,,,,,,,,,,,,,,,,,,109,153094,21,Female,1,2024/03/21_08:52:10,YZ,None,
,,,,,,calibration,0,11,2,1068,8,C,1,left,nan,0,1,,,,,,,,,,,,,,,,,,,,,1,,,,,,,,,,,,,,,,,,,,,,,,,,,,,,,,,,,,,,,,,,,,,,109,153094,21,Female,1,2024/03/21_08:52:10,YZ,None,
,,,,,,calibration,0,11,2,1068,9,X,0,right,0.7925496349998866,1,0,,,,,,,,,,,,,,,,,,,,,1,,,,,,,,,,,,,,,,,,,,,,,,,,,,,,,,,,,,,,,,,,,,,,109,153094,21,Female,1,2024/03/21_08:52:10,YZ,None,
,,,,,,calibration,0,11,2,1068,10,C,1,right,nan,0,1,,,,,,,,,,,,,,,,,,,,,1,,,,,,,,,,,,,,,,,,,,,,,,,,,,,,,,,,,,,,,,,,,,,,109,153094,21,Female,1,2024/03/21_08:52:10,YZ,None,
,,,,,,calibration,0,11,2,1068,11,J,0,right,nan,0,1,,,,,,,,,,,,,,,,,,,,,1,,,,,,,,,,,,,,,,,,,,,,,,,,,,,,,,,,,,,,,,,,,,,,109,153094,21,Female,1,2024/03/21_08:52:10,YZ,None,
,,,,,,calibration,0,11,2,1068,,,,,,,,0.21875,0.0,0.125,0.6666666666666666,0.7272727272727273,0.1477272727272727,0.6112743349998103,0,1,3,5,8,2,2,3,8,0,,,,1,,,,,,,,,,,,,,,,,,,,,,,,,,,,,,,,,,,,,,,,,,,,,,109,153094,21,Female,1,2024/03/21_08:52:10,YZ,None,
,,,,,,Calibration,0,,2,1068,,,,,,,,,,,,,,,,,,,,,,,,,13,,,1,,,,,,,,,,,,,,,,,,,,,,,,,,,,,,,,,,,,,,,,,,,,,,109,153094,21,Female,1,2024/03/21_08:52:10,YZ,None,
,,,,,,calibration,0,21,2,1250,1,X,0,None,nan,0,1,,,,,,,,,,,,,,,,,,,,,1,,,,,,,,,,,,,,,,,,,,,,,,,,,,,,,,,,,,,,,,,,,,,,109,153094,21,Female,1,2024/03/21_08:52:10,YZ,None,
,,,,,,calibration,0,21,2,1250,2,V,0,None,nan,0,1,,,,,,,,,,,,,,,,,,,,,1,,,,,,,,,,,,,,,,,,,,,,,,,,,,,,,,,,,,,,,,,,,,,,109,153094,21,Female,1,2024/03/21_08:52:10,YZ,None,
,,,,,,calibration,0,21,2,1250,3,X,1,left,1.1476901389978593,1,0,,,,,,,,,,,,,,,,,,,,,1,,,,,,,,,,,,,,,,,,,,,,,,,,,,,,,,,,,,,,,,,,,,,,109,153094,21,Female,1,2024/03/21_08:52:10,YZ,None,
,,,,,,calibration,0,21,2,1250,4,J,0,left,nan,0,1,,,,,,,,,,,,,,,,,,,,,1,,,,,,,,,,,,,,,,,,,,,,,,,,,,,,,,,,,,,,,,,,,,,,109,153094,21,Female,1,2024/03/21_08:52:10,YZ,None,
,,,,,,calibration,0,21,2,1250,5,C,0,left,nan,0,1,,,,,,,,,,,,,,,,,,,,,1,,,,,,,,,,,,,,,,,,,,,,,,,,,,,,,,,,,,,,,,,,,,,,109,153094,21,Female,1,2024/03/21_08:52:10,YZ,None,
,,,,,,calibration,0,21,2,1250,6,V,0,right,0.6585492119993432,1,0,,,,,,,,,,,,,,,,,,,,,1,,,,,,,,,,,,,,,,,,,,,,,,,,,,,,,,,,,,,,,,,,,,,,109,153094,21,Female,1,2024/03/21_08:52:10,YZ,None,
,,,,,,calibration,0,21,2,1250,7,X,0,right,nan,0,1,,,,,,,,,,,,,,,,,,,,,1,,,,,,,,,,,,,,,,,,,,,,,,,,,,,,,,,,,,,,,,,,,,,,109,153094,21,Female,1,2024/03/21_08:52:10,YZ,None,
,,,,,,calibration,0,21,2,1250,8,J,0,right,nan,0,1,,,,,,,,,,,,,,,,,,,,,1,,,,,,,,,,,,,,,,,,,,,,,,,,,,,,,,,,,,,,,,,,,,,,109,153094,21,Female,1,2024/03/21_08:52:10,YZ,None,
,,,,,,calibration,0,21,2,1250,9,X,1,left,0.4096189160045469,1,0,,,,,,,,,,,,,,,,,,,,,1,,,,,,,,,,,,,,,,,,,,,,,,,,,,,,,,,,,,,,,,,,,,,,109,153094,21,Female,1,2024/03/21_08:52:10,YZ,None,
,,,,,,calibration,0,21,2,1250,10,J,1,left,nan,0,1,,,,,,,,,,,,,,,,,,,,,1,,,,,,,,,,,,,,,,,,,,,,,,,,,,,,,,,,,,,,,,,,,,,,109,153094,21,Female,1,2024/03/21_08:52:10,YZ,None,
,,,,,,calibration,0,21,2,1250,,,,,,,,0.9166666666666666,0.6666666666666666,0.0,1.0,0.7,0.30000000000000004,0.7386194223339165,2,0,1,6,7,1,3,3,7,0,,,,1,,,,,,,,,,,,,,,,,,,,,,,,,,,,,,,,,,,,,,,,,,,,,,109,153094,21,Female,1,2024/03/21_08:52:10,YZ,None,
,,,,,,Calibration,0,,2,1250,,,,,,,,,,,,,,,,,,,,,,,,,14,,,1,,,,,,,,,,,,,,,,,,,,,,,,,,,,,,,,,,,,,,,,,,,,,,109,153094,21,Female,1,2024/03/21_08:52:10,YZ,None,
,,,,,,calibration,0,31,2,1068,1,S,0,None,nan,0,1,,,,,,,,,,,,,,,,,,,,,1,,,,,,,,,,,,,,,,,,,,,,,,,,,,,,,,,,,,,,,,,,,,,,109,153094,21,Female,1,2024/03/21_08:52:10,YZ,None,
,,,,,,calibration,0,31,2,1068,2,Q,0,None,nan,0,1,,,,,,,,,,,,,,,,,,,,,1,,,,,,,,,,,,,,,,,,,,,,,,,,,,,,,,,,,,,,,,,,,,,,109,153094,21,Female,1,2024/03/21_08:52:10,YZ,None,
,,,,,,calibration,0,31,2,1068,3,S,1,left,0.6076985439940472,1,0,,,,,,,,,,,,,,,,,,,,,1,,,,,,,,,,,,,,,,,,,,,,,,,,,,,,,,,,,,,,,,,,,,,,109,153094,21,Female,1,2024/03/21_08:52:10,YZ,None,
,,,,,,calibration,0,31,2,1068,4,J,0,left,nan,0,1,,,,,,,,,,,,,,,,,,,,,1,,,,,,,,,,,,,,,,,,,,,,,,,,,,,,,,,,,,,,,,,,,,,,109,153094,21,Female,1,2024/03/21_08:52:10,YZ,None,
,,,,,,calibration,0,31,2,1068,5,S,1,left,nan,0,1,,,,,,,,,,,,,,,,,,,,,1,,,,,,,,,,,,,,,,,,,,,,,,,,,,,,,,,,,,,,,,,,,,,,109,153094,21,Female,1,2024/03/21_08:52:10,YZ,None,
,,,,,,calibration,0,31,2,1068,6,C,0,right,0.797481693996815,1,0,,,,,,,,,,,,,,,,,,,,,1,,,,,,,,,,,,,,,,,,,,,,,,,,,,,,,,,,,,,,,,,,,,,,109,153094,21,Female,1,2024/03/21_08:52:10,YZ,None,
,,,,,,calibration,0,31,2,1068,7,Q,0,right,nan,0,1,,,,,,,,,,,,,,,,,,,,,1,,,,,,,,,,,,,,,,,,,,,,,,,,,,,,,,,,,,,,,,,,,,,,109,153094,21,Female,1,2024/03/21_08:52:10,YZ,None,
,,,,,,calibration,0,31,2,1068,8,S,0,right,nan,0,1,,,,,,,,,,,,,,,,,,,,,1,,,,,,,,,,,,,,,,,,,,,,,,,,,,,,,,,,,,,,,,,,,,,,109,153094,21,Female,1,2024/03/21_08:52:10,YZ,None,
,,,,,,calibration,0,31,2,1068,9,J,0,right,0.8322606680012541,1,0,,,,,,,,,,,,,,,,,,,,,1,,,,,,,,,,,,,,,,,,,,,,,,,,,,,,,,,,,,,,,,,,,,,,109,153094,21,Female,1,2024/03/21_08:52:10,YZ,None,
,,,,,,calibration,0,31,2,1068,10,S,1,right,nan,0,1,,,,,,,,,,,,,,,,,,,,,1,,,,,,,,,,,,,,,,,,,,,,,,,,,,,,,,,,,,,,,,,,,,,,109,153094,21,Female,1,2024/03/21_08:52:10,YZ,None,
,,,,,,calibration,0,31,2,1068,11,N,0,right,nan,0,1,,,,,,,,,,,,,,,,,,,,,1,,,,,,,,,,,,,,,,,,,,,,,,,,,,,,,,,,,,,,,,,,,,,,109,153094,21,Female,1,2024/03/21_08:52:10,YZ,None,
,,,,,,calibration,0,31,2,1068,,,,,,,,0.8333333333333334,0.3333333333333333,0.0,1.0,0.7272727272727273,0.2727272727272727,0.7458136353307054,1,0,2,6,8,2,3,3,8,0,,,,1,,,,,,,,,,,,,,,,,,,,,,,,,,,,,,,,,,,,,,,,,,,,,,109,153094,21,Female,1,2024/03/21_08:52:10,YZ,None,
,,,,,,Calibration,0,,2,1068,,,,,,,,,,,,,,,,,,,,,,,,,15,,,1,,,,,,,,,,,,,,,,,,,,,,,,,,,,,,,,,,,,,,,,,,,,,,109,153094,21,Female,1,2024/03/21_08:52:10,YZ,None,
,,,,,,CALIBRATION,0,,,,,,,,,,,,,,,,,,,,,,,,,,,,15,0.8333333333333334,1068,1,,,,,,,,,,,,,,,,,,,,,,,,,,,,,,,,,,,,,,,,,,,,,,109,153094,21,Female,1,2024/03/21_08:52:10,YZ,None,
1,./instructions/inst_prac_1/Slide24.png,right,13.056834930997866,699.7692620919988,712.8260970229967,,,,,,,,,,,,,,,,,,,,,,,,,,,,,,,,,1,,,,,,,,,,,,,,,,,,,,,,,,,,,,,,,,,,,,,,,,,,,,,,109,153094,21,Female,1,2024/03/21_08:52:10,YZ,None,
2,./instructions/inst_prac_1/Slide25.png,right,48.62774185099988,712.8543294499977,761.4820713009976,,,,,,,,,,,,,,,,,,,,,,,,,,,,,,,,,1,,,,,,,,,,,,,,,,,,,,,,,,,,,,,,,,,,,,,,,,,,,,,,109,153094,21,Female,1,2024/03/21_08:52:10,YZ,None,
3,./instructions/inst_prac_1/Slide26.png,right,5.79001448800409,761.5240406719968,767.3140551600009,,,,,,,,,,,,,,,,,,,,,,,,,,,,,,,,,1,,,,,,,,,,,,,,,,,,,,,,,,,,,,,,,,,,,,,,,,,,,,,,109,153094,21,Female,1,2024/03/21_08:52:10,YZ,None,
4,./instructions/inst_prac_1/Slide27.png,right,1.1467670119964168,767.3433556669988,768.4901226789952,,,,,,,,,,,,,,,,,,,,,,,,,,,,,,,,,1,,,,,,,,,,,,,,,,,,,,,,,,,,,,,,,,,,,,,,,,,,,,,,109,153094,21,Female,1,2024/03/21_08:52:10,YZ,None,
5,./instructions/inst_prac_1/Slide28.png,right,1.1378508010020596,768.5202831829956,769.6581339839977,,,,,,,,,,,,,,,,,,,,,,,,,,,,,,,,,1,,,,,,,,,,,,,,,,,,,,,,,,,,,,,,,,,,,,,,,,,,,,,,109,153094,21,Female,1,2024/03/21_08:52:10,YZ,None,
6,./instructions/inst_prac_1/Slide29.png,right,2.833801417997165,769.6882540750012,772.5220554929983,,,,,,,,,,,,,,,,,,,,,,,,,,,,,,,,,1,,,,,,,,,,,,,,,,,,,,,,,,,,,,,,,,,,,,,,,,,,,,,,109,153094,21,Female,1,2024/03/21_08:52:10,YZ,None,
7,./instructions/inst_prac_1/Slide30.png,right,6.412889442995947,772.5490660270007,778.9619554699966,,,,,,,,,,,,,,,,,,,,,,,,,,,,,,,,,1,,,,,,,,,,,,,,,,,,,,,,,,,,,,,,,,,,,,,,,,,,,,,,109,153094,21,Female,1,2024/03/21_08:52:10,YZ,None,
,,,,,,practice,0,11,1,1250,1,F,0,left,8.850480849003361,0,0,,,,,,,,,,,,,,,,,,,,,1,,,,,,,,,,,,,,,,,,,,,,,,,,,,,,,,,,,,,,,,,,,,,,109,153094,21,Female,1,2024/03/21_08:52:10,YZ,None,
,,,,,,practice,0,11,1,1250,2,J,0,right,5.95782590899762,1,0,,,,,,,,,,,,,,,,,,,,,1,,,,,,,,,,,,,,,,,,,,,,,,,,,,,,,,,,,,,,,,,,,,,,109,153094,21,Female,1,2024/03/21_08:52:10,YZ,None,
,,,,,,practice,0,11,1,1250,3,S,0,right,2.4404749870009255,1,0,,,,,,,,,,,,,,,,,,,,,1,,,,,,,,,,,,,,,,,,,,,,,,,,,,,,,,,,,,,,,,,,,,,,109,153094,21,Female,1,2024/03/21_08:52:10,YZ,None,
,,,,,,practice,0,11,1,1250,4,S,1,left,1.1819057000029716,1,0,,,,,,,,,,,,,,,,,,,,,1,,,,,,,,,,,,,,,,,,,,,,,,,,,,,,,,,,,,,,,,,,,,,,109,153094,21,Female,1,2024/03/21_08:52:10,YZ,None,
,,,,,,practice,0,11,1,1250,5,V,0,right,0.8811358230013866,1,0,,,,,,,,,,,,,,,,,,,,,1,,,,,,,,,,,,,,,,,,,,,,,,,,,,,,,,,,,,,,,,,,,,,,109,153094,21,Female,1,2024/03/21_08:52:10,YZ,None,
,,,,,,practice,0,11,1,1250,6,V,1,left,0.8839206359989475,1,0,,,,,,,,,,,,,,,,,,,,,1,,,,,,,,,,,,,,,,,,,,,,,,,,,,,,,,,,,,,,,,,,,,,,109,153094,21,Female,1,2024/03/21_08:52:10,YZ,None,
,,,,,,practice,0,11,1,1250,7,Q,0,right,0.787964096001815,1,0,,,,,,,,,,,,,,,,,,,,,1,,,,,,,,,,,,,,,,,,,,,,,,,,,,,,,,,,,,,,,,,,,,,,109,153094,21,Female,1,2024/03/21_08:52:10,YZ,None,
,,,,,,practice,0,11,1,1250,8,V,0,right,3.671483605001413,1,0,,,,,,,,,,,,,,,,,,,,,1,,,,,,,,,,,,,,,,,,,,,,,,,,,,,,,,,,,,,,,,,,,,,,109,153094,21,Female,1,2024/03/21_08:52:10,YZ,None,
,,,,,,practice,0,11,1,1250,9,N,0,right,1.2153772039964679,1,0,,,,,,,,,,,,,,,,,,,,,1,,,,,,,,,,,,,,,,,,,,,,,,,,,,,,,,,,,,,,,,,,,,,,109,153094,21,Female,1,2024/03/21_08:52:10,YZ,None,
,,,,,,practice,0,11,1,1250,10,N,1,left,0.9400105610038736,1,0,,,,,,,,,,,,,,,,,,,,,1,,,,,,,,,,,,,,,,,,,,,,,,,,,,,,,,,,,,,,,,,,,,,,109,153094,21,Female,1,2024/03/21_08:52:10,YZ,None,
,,,,,,practice,0,11,1,1250,,,,,,,,0.9642857142857143,1.0,0.14285714285714285,0.8571428571428571,0.0,0.8571428571428572,2.6810579370008782,3,1,0,0,0,6,9,3,7,0,,,,1,,,,,,,,,,,,,,,,,,,,,,,,,,,,,,,,,,,,,,,,,,,,,,109,153094,21,Female,1,2024/03/21_08:52:10,YZ,None,
1,./instructions/inst_prac_1_next/Slide35.png,right,14.107755518998601,816.8144051290001,830.9221606479987,,,,,,,,,,,,,,,,,,,,,,,,,,,,,,,,,1,,,,,,,,,,,,,,,,,,,,,,,,,,,,,,,,,,,,,,,,,,,,,,109,153094,21,Female,1,2024/03/21_08:52:10,YZ,None,
,,,,,,practice,0,29,1,1068,1,X,0,left,5.474072021999746,0,0,,,,,,,,,,,,,,,,,,,,,1,,,,,,,,,,,,,,,,,,,,,,,,,,,,,,,,,,,,,,,,,,,,,,109,153094,21,Female,1,2024/03/21_08:52:10,YZ,None,
,,,,,,practice,0,29,1,1068,2,X,1,left,1.6649858239979949,1,0,,,,,,,,,,,,,,,,,,,,,1,,,,,,,,,,,,,,,,,,,,,,,,,,,,,,,,,,,,,,,,,,,,,,109,153094,21,Female,1,2024/03/21_08:52:10,YZ,None,
,,,,,,practice,0,29,1,1068,3,C,0,right,2.196859007999592,1,0,,,,,,,,,,,,,,,,,,,,,1,,,,,,,,,,,,,,,,,,,,,,,,,,,,,,,,,,,,,,,,,,,,,,109,153094,21,Female,1,2024/03/21_08:52:10,YZ,None,
,,,,,,practice,0,29,1,1068,4,C,1,right,3.52854957600357,0,0,,,,,,,,,,,,,,,,,,,,,1,,,,,,,,,,,,,,,,,,,,,,,,,,,,,,,,,,,,,,,,,,,,,,109,153094,21,Female,1,2024/03/21_08:52:10,YZ,None,
,,,,,,practice,0,29,1,1068,5,F,0,left,1.948373013001401,0,0,,,,,,,,,,,,,,,,,,,,,1,,,,,,,,,,,,,,,,,,,,,,,,,,,,,,,,,,,,,,,,,,,,,,109,153094,21,Female,1,2024/03/21_08:52:10,YZ,None,
,,,,,,practice,0,29,1,1068,6,X,0,right,1.8286344579973957,1,0,,,,,,,,,,,,,,,,,,,,,1,,,,,,,,,,,,,,,,,,,,,,,,,,,,,,,,,,,,,,,,,,,,,,109,153094,21,Female,1,2024/03/21_08:52:10,YZ,None,
,,,,,,practice,0,29,1,1068,7,J,0,right,4.138218115003838,1,0,,,,,,,,,,,,,,,,,,,,,1,,,,,,,,,,,,,,,,,,,,,,,,,,,,,,,,,,,,,,,,,,,,,,109,153094,21,Female,1,2024/03/21_08:52:10,YZ,None,
,,,,,,practice,0,29,1,1068,8,C,0,right,4.009067147002497,1,0,,,,,,,,,,,,,,,,,,,,,1,,,,,,,,,,,,,,,,,,,,,,,,,,,,,,,,,,,,,,,,,,,,,,109,153094,21,Female,1,2024/03/21_08:52:10,YZ,None,
,,,,,,practice,0,29,1,1068,9,N,0,right,0.9128336640060297,1,0,,,,,,,,,,,,,,,,,,,,,1,,,,,,,,,,,,,,,,,,,,,,,,,,,,,,,,,,,,,,,,,,,,,,109,153094,21,Female,1,2024/03/21_08:52:10,YZ,None,
,,,,,,practice,0,29,1,1068,10,N,1,left,1.244821170999785,1,0,,,,,,,,,,,,,,,,,,,,,1,,,,,,,,,,,,,,,,,,,,,,,,,,,,,,,,,,,,,,,,,,,,,,109,153094,21,Female,1,2024/03/21_08:52:10,YZ,None,
,,,,,,practice,0,29,1,1068,11,J,0,right,2.1163250760000665,1,0,,,,,,,,,,,,,,,,,,,,,1,,,,,,,,,,,,,,,,,,,,,,,,,,,,,,,,,,,,,,,,,,,,,,109,153094,21,Female,1,2024/03/21_08:52:10,YZ,None,
,,,,,,practice,0,29,1,1068,,,,,,,,0.7708333333333333,0.6666666666666666,0.25,0.75,0.0,0.75,2.642067188546538,2,2,0,0,0,6,8,3,8,0,,,,1,,,,,,,,,,,,,,,,,,,,,,,,,,,,,,,,,,,,,,,,,,,,,,109,153094,21,Female,1,2024/03/21_08:52:10,YZ,None,
,,,,,,practice,0,3,1,1068,1,J,0,left,2.61126747399976,0,0,,,,,,,,,,,,,,,,,,,,,1,,,,,,,,,,,,,,,,,,,,,,,,,,,,,,,,,,,,,,,,,,,,,,109,153094,21,Female,1,2024/03/21_08:52:10,YZ,None,
,,,,,,practice,0,3,1,1068,2,J,1,left,0.815331100995536,1,0,,,,,,,,,,,,,,,,,,,,,1,,,,,,,,,,,,,,,,,,,,,,,,,,,,,,,,,,,,,,,,,,,,,,109,153094,21,Female,1,2024/03/21_08:52:10,YZ,None,
,,,,,,practice,0,3,1,1068,3,C,0,right,2.092284551996272,1,0,,,,,,,,,,,,,,,,,,,,,1,,,,,,,,,,,,,,,,,,,,,,,,,,,,,,,,,,,,,,,,,,,,,,109,153094,21,Female,1,2024/03/21_08:52:10,YZ,None,
,,,,,,practice,0,3,1,1068,4,V,0,right,1.0050979249936063,1,0,,,,,,,,,,,,,,,,,,,,,1,,,,,,,,,,,,,,,,,,,,,,,,,,,,,,,,,,,,,,,,,,,,,,109,153094,21,Female,1,2024/03/21_08:52:10,YZ,None,
,,,,,,practice,0,3,1,1068,5,C,0,right,1.4712943119957345,1,0,,,,,,,,,,,,,,,,,,,,,1,,,,,,,,,,,,,,,,,,,,,,,,,,,,,,,,,,,,,,,,,,,,,,109,153094,21,Female,1,2024/03/21_08:52:10,YZ,None,
,,,,,,practice,0,3,1,1068,6,C,1,left,1.0484522050028318,1,0,,,,,,,,,,,,,,,,,,,,,1,,,,,,,,,,,,,,,,,,,,,,,,,,,,,,,,,,,,,,,,,,,,,,109,153094,21,Female,1,2024/03/21_08:52:10,YZ,None,
,,,,,,practice,0,3,1,1068,7,F,0,right,3.044734762996086,1,0,,,,,,,,,,,,,,,,,,,,,1,,,,,,,,,,,,,,,,,,,,,,,,,,,,,,,,,,,,,,,,,,,,,,109,153094,21,Female,1,2024/03/21_08:52:10,YZ,None,
,,,,,,practice,0,3,1,1068,8,V,0,right,1.052060543996049,1,0,,,,,,,,,,,,,,,,,,,,,1,,,,,,,,,,,,,,,,,,,,,,,,,,,,,,,,,,,,,,,,,,,,,,109,153094,21,Female,1,2024/03/21_08:52:10,YZ,None,
,,,,,,practice,0,3,1,1068,9,V,1,left,0.8322838519961806,1,0,,,,,,,,,,,,,,,,,,,,,1,,,,,,,,,,,,,,,,,,,,,,,,,,,,,,,,,,,,,,,,,,,,,,109,153094,21,Female,1,2024/03/21_08:52:10,YZ,None,
,,,,,,practice,0,3,1,1068,10,Q,0,right,3.4200004349986557,1,0,,,,,,,,,,,,,,,,,,,,,1,,,,,,,,,,,,,,,,,,,,,,,,,,,,,,,,,,,,,,,,,,,,,,109,153094,21,Female,1,2024/03/21_08:52:10,YZ,None,
,,,,,,practice,0,3,1,1068,11,X,0,right,2.0478949030002696,1,0,,,,,,,,,,,,,,,,,,,,,1,,,,,,,,,,,,,,,,,,,,,,,,,,,,,,,,,,,,,,,,,,,,,,109,153094,21,Female,1,2024/03/21_08:52:10,YZ,None,
,,,,,,practice,0,3,1,1068,,,,,,,,0.96875,1.0,0.125,0.875,0.0,0.875,1.7673365514519075,3,1,0,0,0,7,10,3,8,0,,,,1,,,,,,,,,,,,,,,,,,,,,,,,,,,,,,,,,,,,,,,,,,,,,,109,153094,21,Female,1,2024/03/21_08:52:10,YZ,None,
1,./instructions/inst_prac_3/Slide37.png,right,6.340538240998285,895.0855726959999,901.4261109369982,,,,,,,,,,,,,,,,,,,,,,,,,,,,,,,,,1,,,,,,,,,,,,,,,,,,,,,,,,,,,,,,,,,,,,,,,,,,,,,,109,153094,21,Female,1,2024/03/21_08:52:10,YZ,None,
2,./instructions/inst_prac_3/Slide38.png,right,1.6822146550039179,901.4559574679952,903.1381721229991,,,,,,,,,,,,,,,,,,,,,,,,,,,,,,,,,1,,,,,,,,,,,,,,,,,,,,,,,,,,,,,,,,,,,,,,,,,,,,,,109,153094,21,Female,1,2024/03/21_08:52:10,YZ,None,
3,./instructions/inst_prac_3/Slide39.png,right,1.4823374390034587,903.1677901189978,904.6501275580013,,,,,,,,,,,,,,,,,,,,,,,,,,,,,,,,,1,,,,,,,,,,,,,,,,,,,,,,,,,,,,,,,,,,,,,,,,,,,,,,109,153094,21,Female,1,2024/03/21_08:52:10,YZ,None,
4,./instructions/inst_prac_3/Slide40.png,right,1.5482978520012693,904.677781929,906.2260797810013,,,,,,,,,,,,,,,,,,,,,,,,,,,,,,,,,1,,,,,,,,,,,,,,,,,,,,,,,,,,,,,,,,,,,,,,,,,,,,,,109,153094,21,Female,1,2024/03/21_08:52:10,YZ,None,
5,./instructions/inst_prac_3/Slide41.png,right,1.970299492997583,906.2557609119976,908.2260604049952,,,,,,,,,,,,,,,,,,,,,,,,,,,,,,,,,1,,,,,,,,,,,,,,,,,,,,,,,,,,,,,,,,,,,,,,,,,,,,,,109,153094,21,Female,1,2024/03/21_08:52:10,YZ,None,
6,./instructions/inst_prac_3/Slide42.png,right,2.145557566000207,908.2563583379961,910.4019159039963,,,,,,,,,,,,,,,,,,,,,,,,,,,,,,,,,1,,,,,,,,,,,,,,,,,,,,,,,,,,,,,,,,,,,,,,,,,,,,,,109,153094,21,Female,1,2024/03/21_08:52:10,YZ,None,
7,./instructions/inst_prac_3/Slide43.png,right,0.2003655959997559,910.4312043109967,910.6315699069964,,,,,,,,,,,,,,,,,,,,,,,,,,,,,,,,,1,,,,,,,,,,,,,,,,,,,,,,,,,,,,,,,,,,,,,,,,,,,,,,109,153094,21,Female,1,2024/03/21_08:52:10,YZ,None,
8,./instructions/inst_prac_3/Slide44.png,right,3.4669670529983705,910.6551010839976,914.122068136996,,,,,,,,,,,,,,,,,,,,,,,,,,,,,,,,,1,,,,,,,,,,,,,,,,,,,,,,,,,,,,,,,,,,,,,,,,,,,,,,109,153094,21,Female,1,2024/03/21_08:52:10,YZ,None,
,,,,,,practice,0,22,3,788,1,X,0,right,2.0915598510036943,1,0,,,,,,,,,,,,,,,,,,,,,1,,,,,,,,,,,,,,,,,,,,,,,,,,,,,,,,,,,,,,,,,,,,,,109,153094,21,Female,1,2024/03/21_08:52:10,YZ,None,
,,,,,,practice,0,22,3,788,2,F,0,right,1.8043041350028943,1,0,,,,,,,,,,,,,,,,,,,,,1,,,,,,,,,,,,,,,,,,,,,,,,,,,,,,,,,,,,,,,,,,,,,,109,153094,21,Female,1,2024/03/21_08:52:10,YZ,None,
,,,,,,practice,0,22,3,788,3,S,0,right,0.8773240330046974,1,0,,,,,,,,,,,,,,,,,,,,,1,,,,,,,,,,,,,,,,,,,,,,,,,,,,,,,,,,,,,,,,,,,,,,109,153094,21,Female,1,2024/03/21_08:52:10,YZ,None,
,,,,,,practice,0,22,3,788,4,Q,0,right,2.765179074005573,1,0,,,,,,,,,,,,,,,,,,,,,1,,,,,,,,,,,,,,,,,,,,,,,,,,,,,,,,,,,,,,,,,,,,,,109,153094,21,Female,1,2024/03/21_08:52:10,YZ,None,
,,,,,,practice,0,22,3,788,5,F,1,left,1.3903175599989481,1,0,,,,,,,,,,,,,,,,,,,,,1,,,,,,,,,,,,,,,,,,,,,,,,,,,,,,,,,,,,,,,,,,,,,,109,153094,21,Female,1,2024/03/21_08:52:10,YZ,None,
,,,,,,practice,0,22,3,788,6,Q,0,right,0.9953388150024693,1,0,,,,,,,,,,,,,,,,,,,,,1,,,,,,,,,,,,,,,,,,,,,,,,,,,,,,,,,,,,,,,,,,,,,,109,153094,21,Female,1,2024/03/21_08:52:10,YZ,None,
,,,,,,practice,0,22,3,788,7,N,0,right,1.0447570730029838,1,0,,,,,,,,,,,,,,,,,,,,,1,,,,,,,,,,,,,,,,,,,,,,,,,,,,,,,,,,,,,,,,,,,,,,109,153094,21,Female,1,2024/03/21_08:52:10,YZ,None,
,,,,,,practice,0,22,3,788,8,F,1,left,0.5886592800015933,1,0,,,,,,,,,,,,,,,,,,,,,1,,,,,,,,,,,,,,,,,,,,,,,,,,,,,,,,,,,,,,,,,,,,,,109,153094,21,Female,1,2024/03/21_08:52:10,YZ,None,
,,,,,,practice,0,22,3,788,9,J,0,right,0.7184323749970645,1,0,,,,,,,,,,,,,,,,,,,,,1,,,,,,,,,,,,,,,,,,,,,,,,,,,,,,,,,,,,,,,,,,,,,,109,153094,21,Female,1,2024/03/21_08:52:10,YZ,None,
,,,,,,practice,0,22,3,788,10,N,1,left,0.9567402939937892,1,0,,,,,,,,,,,,,,,,,,,,,1,,,,,,,,,,,,,,,,,,,,,,,,,,,,,,,,,,,,,,,,,,,,,,109,153094,21,Female,1,2024/03/21_08:52:10,YZ,None,
,,,,,,practice,0,22,3,788,11,V,0,right,0.8146697810007026,1,0,,,,,,,,,,,,,,,,,,,,,1,,,,,,,,,,,,,,,,,,,,,,,,,,,,,,,,,,,,,,,,,,,,,,109,153094,21,Female,1,2024/03/21_08:52:10,YZ,None,
,,,,,,practice,0,22,3,788,12,J,1,left,0.5269382829937967,1,0,,,,,,,,,,,,,,,,,,,,,1,,,,,,,,,,,,,,,,,,,,,,,,,,,,,,,,,,,,,,,,,,,,,,109,153094,21,Female,1,2024/03/21_08:52:10,YZ,None,
,,,,,,practice,0,22,3,788,13,Q,0,right,0.5559904490000918,1,0,,,,,,,,,,,,,,,,,,,,,1,,,,,,,,,,,,,,,,,,,,,,,,,,,,,,,,,,,,,,,,,,,,,,109,153094,21,Female,1,2024/03/21_08:52:10,YZ,None,
,,,,,,practice,0,22,3,788,,,,,,,,1.0,1.0,0.0,1.0,0.0,1.0,1.1638623848467922,4,0,0,0,0,9,13,4,9,0,,,,1,,,,,,,,,,,,,,,,,,,,,,,,,,,,,,,,,,,,,,,,,,,,,,109,153094,21,Female,1,2024/03/21_08:52:10,YZ,None,
1,./instructions/inst_prac_3_next/Slide49.png,right,2.432017364000785,942.9379276039981,945.3699449679989,,,,,,,,,,,,,,,,,,,,,,,,,,,,,,,,,1,,,,,,,,,,,,,,,,,,,,,,,,,,,,,,,,,,,,,,,,,,,,,,109,153094,21,Female,1,2024/03/21_08:52:10,YZ,None,
,,,,,,practice,0,35,3,1068,1,F,0,left,3.714788833000057,0,0,,,,,,,,,,,,,,,,,,,,,1,,,,,,,,,,,,,,,,,,,,,,,,,,,,,,,,,,,,,,,,,,,,,,109,153094,21,Female,1,2024/03/21_08:52:10,YZ,None,
,,,,,,practice,0,35,3,1068,2,V,0,right,5.9574378699981025,1,0,,,,,,,,,,,,,,,,,,,,,1,,,,,,,,,,,,,,,,,,,,,,,,,,,,,,,,,,,,,,,,,,,,,,109,153094,21,Female,1,2024/03/21_08:52:10,YZ,None,
,,,,,,practice,0,35,3,1068,3,C,0,right,11.146438973999466,1,0,,,,,,,,,,,,,,,,,,,,,1,,,,,,,,,,,,,,,,,,,,,,,,,,,,,,,,,,,,,,,,,,,,,,109,153094,21,Female,1,2024/03/21_08:52:10,YZ,None,
,,,,,,practice,0,35,3,1068,4,F,1,right,9.532173073006561,0,0,,,,,,,,,,,,,,,,,,,,,1,,,,,,,,,,,,,,,,,,,,,,,,,,,,,,,,,,,,,,,,,,,,,,109,153094,21,Female,1,2024/03/21_08:52:10,YZ,None,
,,,,,,practice,0,35,3,1068,5,C,0,right,5.210002451000037,1,0,,,,,,,,,,,,,,,,,,,,,1,,,,,,,,,,,,,,,,,,,,,,,,,,,,,,,,,,,,,,,,,,,,,,109,153094,21,Female,1,2024/03/21_08:52:10,YZ,None,
,,,,,,practice,0,35,3,1068,6,V,0,right,2.5688067189985304,1,0,,,,,,,,,,,,,,,,,,,,,1,,,,,,,,,,,,,,,,,,,,,,,,,,,,,,,,,,,,,,,,,,,,,,109,153094,21,Female,1,2024/03/21_08:52:10,YZ,None,
,,,,,,practice,0,35,3,1068,7,S,0,right,3.6481552319964976,1,0,,,,,,,,,,,,,,,,,,,,,1,,,,,,,,,,,,,,,,,,,,,,,,,,,,,,,,,,,,,,,,,,,,,,109,153094,21,Female,1,2024/03/21_08:52:10,YZ,None,
,,,,,,practice,0,35,3,1068,8,C,1,left,1.1289154789992608,1,0,,,,,,,,,,,,,,,,,,,,,1,,,,,,,,,,,,,,,,,,,,,,,,,,,,,,,,,,,,,,,,,,,,,,109,153094,21,Female,1,2024/03/21_08:52:10,YZ,None,
,,,,,,practice,0,35,3,1068,9,J,0,left,2.1003287979983725,0,0,,,,,,,,,,,,,,,,,,,,,1,,,,,,,,,,,,,,,,,,,,,,,,,,,,,,,,,,,,,,,,,,,,,,109,153094,21,Female,1,2024/03/21_08:52:10,YZ,None,
,,,,,,practice,0,35,3,1068,10,S,1,right,1.1921345959999599,0,0,,,,,,,,,,,,,,,,,,,,,1,,,,,,,,,,,,,,,,,,,,,,,,,,,,,,,,,,,,,,,,,,,,,,109,153094,21,Female,1,2024/03/21_08:52:10,YZ,None,
,,,,,,practice,0,35,3,1068,11,J,0,left,1.177790925001318,0,0,,,,,,,,,,,,,,,,,,,,,1,,,,,,,,,,,,,,,,,,,,,,,,,,,,,,,,,,,,,,,,,,,,,,109,153094,21,Female,1,2024/03/21_08:52:10,YZ,None,
,,,,,,practice,0,35,3,1068,,,,,,,,0.017361111111111105,0.3333333333333333,0.375,0.625,0.0,0.625,4.306997540908924,1,3,0,0,0,5,6,3,8,0,,,,1,,,,,,,,,,,,,,,,,,,,,,,,,,,,,,,,,,,,,,,,,,,,,,109,153094,21,Female,1,2024/03/21_08:52:10,YZ,None,
,,,,,,practice,0,4,3,1068,1,J,0,right,8.4695530290046,1,0,,,,,,,,,,,,,,,,,,,,,1,,,,,,,,,,,,,,,,,,,,,,,,,,,,,,,,,,,,,,,,,,,,,,109,153094,21,Female,1,2024/03/21_08:52:10,YZ,None,
,,,,,,practice,0,4,3,1068,2,F,0,right,4.051727514000959,1,0,,,,,,,,,,,,,,,,,,,,,1,,,,,,,,,,,,,,,,,,,,,,,,,,,,,,,,,,,,,,,,,,,,,,109,153094,21,Female,1,2024/03/21_08:52:10,YZ,None,
,,,,,,practice,0,4,3,1068,3,Q,0,right,2.494001377999666,1,0,,,,,,,,,,,,,,,,,,,,,1,,,,,,,,,,,,,,,,,,,,,,,,,,,,,,,,,,,,,,,,,,,,,,109,153094,21,Female,1,2024/03/21_08:52:10,YZ,None,
,,,,,,practice,0,4,3,1068,4,J,1,left,0.9966410909983097,1,0,,,,,,,,,,,,,,,,,,,,,1,,,,,,,,,,,,,,,,,,,,,,,,,,,,,,,,,,,,,,,,,,,,,,109,153094,21,Female,1,2024/03/21_08:52:10,YZ,None,
,,,,,,practice,0,4,3,1068,5,Q,0,right,3.328722303995164,1,0,,,,,,,,,,,,,,,,,,,,,1,,,,,,,,,,,,,,,,,,,,,,,,,,,,,,,,,,,,,,,,,,,,,,109,153094,21,Female,1,2024/03/21_08:52:10,YZ,None,
,,,,,,practice,0,4,3,1068,6,Q,1,right,3.8846688449993962,0,0,,,,,,,,,,,,,,,,,,,,,1,,,,,,,,,,,,,,,,,,,,,,,,,,,,,,,,,,,,,,,,,,,,,,109,153094,21,Female,1,2024/03/21_08:52:10,YZ,None,
,,,,,,practice,0,4,3,1068,7,J,1,right,1.5317927400028566,0,0,,,,,,,,,,,,,,,,,,,,,1,,,,,,,,,,,,,,,,,,,,,,,,,,,,,,,,,,,,,,,,,,,,,,109,153094,21,Female,1,2024/03/21_08:52:10,YZ,None,
,,,,,,practice,0,4,3,1068,8,S,0,right,0.8867789070063736,1,0,,,,,,,,,,,,,,,,,,,,,1,,,,,,,,,,,,,,,,,,,,,,,,,,,,,,,,,,,,,,,,,,,,,,109,153094,21,Female,1,2024/03/21_08:52:10,YZ,None,
,,,,,,practice,0,4,3,1068,9,V,0,right,10.999217626995232,1,0,,,,,,,,,,,,,,,,,,,,,1,,,,,,,,,,,,,,,,,,,,,,,,,,,,,,,,,,,,,,,,,,,,,,109,153094,21,Female,1,2024/03/21_08:52:10,YZ,None,
,,,,,,practice,0,4,3,1068,10,S,0,right,1.6719481620020815,1,0,,,,,,,,,,,,,,,,,,,,,1,,,,,,,,,,,,,,,,,,,,,,,,,,,,,,,,,,,,,,,,,,,,,,109,153094,21,Female,1,2024/03/21_08:52:10,YZ,None,
,,,,,,practice,0,4,3,1068,11,N,0,right,0.544026716001099,1,0,,,,,,,,,,,,,,,,,,,,,1,,,,,,,,,,,,,,,,,,,,,,,,,,,,,,,,,,,,,,,,,,,,,,109,153094,21,Female,1,2024/03/21_08:52:10,YZ,None,
,,,,,,practice,0,4,3,1068,,,,,,,,0.8333333333333334,0.3333333333333333,0.0,1.0,0.0,1.0,3.5326434830005216,1,0,0,0,0,8,9,3,8,0,,,,1,,,,,,,,,,,,,,,,,,,,,,,,,,,,,,,,,,,,,,,,,,,,,,109,153094,21,Female,1,2024/03/21_08:52:10,YZ,None,
1,./instructions/inst_prac_main/Slide51.png,right,4.104033014002198,1047.258028090997,1051.3620611049992,,,,,,,,,,,,,,,,,,,,,,,,,,,,,,,,,1,,,,,,,,,,,,,,,,,,,,,,,,,,,,,,,,,,,,,,,,,,,,,,109,153094,21,Female,1,2024/03/21_08:52:10,YZ,None,
2,./instructions/inst_prac_main/Slide52.png,right,11.642629515001317,1051.3916765889953,1063.0343061039966,,,,,,,,,,,,,,,,,,,,,,,,,,,,,,,,,1,,,,,,,,,,,,,,,,,,,,,,,,,,,,,,,,,,,,,,,,,,,,,,109,153094,21,Female,1,2024/03/21_08:52:10,YZ,None,
1,./instructions/inst_prac_main/Slide53.png,left,4.077084090000426,1063.060932512999,1067.1380166029994,,,,,,,,,,,,,,,,,,,,,,,,,,,,,,,,,1,,,,,,,,,,,,,,,,,,,,,,,,,,,,,,,,,,,,,,,,,,,,,,109,153094,21,Female,1,2024/03/21_08:52:10,YZ,None,
0,./instructions/inst_prac_main/Slide52.png,left,0.20059619699895848,1067.1615956189999,1067.3621918159988,,,,,,,,,,,,,,,,,,,,,,,,,,,,,,,,,1,,,,,,,,,,,,,,,,,,,,,,,,,,,,,,,,,,,,,,,,,,,,,,109,153094,21,Female,1,2024/03/21_08:52:10,YZ,None,
-1,./instructions/inst_prac_main/Slide51.png,left,0.20031634400220355,1067.3806354479966,1067.5809517919988,,,,,,,,,,,,,,,,,,,,,,,,,,,,,,,,,1,,,,,,,,,,,,,,,,,,,,,,,,,,,,,,,,,,,,,,,,,,,,,,109,153094,21,Female,1,2024/03/21_08:52:10,YZ,None,
-2,./instructions/inst_prac_main/Slide54.png,left,0.20035239400021965,1067.604726435995,1067.8050788299952,,,,,,,,,,,,,,,,,,,,,,,,,,,,,,,,,1,,,,,,,,,,,,,,,,,,,,,,,,,,,,,,,,,,,,,,,,,,,,,,109,153094,21,Female,1,2024/03/21_08:52:10,YZ,None,
-3,./instructions/inst_prac_main/Slide53.png,left,0.2004338219994679,1067.8277239019953,1068.0281577239948,,,,,,,,,,,,,,,,,,,,,,,,,,,,,,,,,1,,,,,,,,,,,,,,,,,,,,,,,,,,,,,,,,,,,,,,,,,,,,,,109,153094,21,Female,1,2024/03/21_08:52:10,YZ,None,
-4,./instructions/inst_prac_main/Slide52.png,left,0.20041457300249022,1068.0506888719974,1068.251103445,,,,,,,,,,,,,,,,,,,,,,,,,,,,,,,,,1,,,,,,,,,,,,,,,,,,,,,,,,,,,,,,,,,,,,,,,,,,,,,,109,153094,21,Female,1,2024/03/21_08:52:10,YZ,None,
,,,,,,practice_main,0,1,1,1068,1,S,0,None,nan,0,1,,,,,,,,,,,,,,,,,,,,,1,,,,,,,,,,,,,,,,,,,,,,,,,,,,,,,,,,,,,,,,,,,,,,109,153094,21,Female,1,2024/03/21_08:52:10,YZ,None,
,,,,,,practice_main,0,1,1,1068,2,V,0,None,nan,0,1,,,,,,,,,,,,,,,,,,,,,1,,,,,,,,,,,,,,,,,,,,,,,,,,,,,,,,,,,,,,,,,,,,,,109,153094,21,Female,1,2024/03/21_08:52:10,YZ,None,
,,,,,,practice_main,0,1,1,1068,3,F,0,None,nan,0,1,,,,,,,,,,,,,,,,,,,,,1,,,,,,,,,,,,,,,,,,,,,,,,,,,,,,,,,,,,,,,,,,,,,,109,153094,21,Female,1,2024/03/21_08:52:10,YZ,None,
,,,,,,practice_main,0,1,1,1068,4,F,1,right,1.109399613000278,0,0,,,,,,,,,,,,,,,,,,,,,1,,,,,,,,,,,,,,,,,,,,,,,,,,,,,,,,,,,,,,,,,,,,,,109,153094,21,Female,1,2024/03/21_08:52:10,YZ,None,
,,,,,,practice_main,0,1,1,1068,5,S,0,right,nan,0,1,,,,,,,,,,,,,,,,,,,,,1,,,,,,,,,,,,,,,,,,,,,,,,,,,,,,,,,,,,,,,,,,,,,,109,153094,21,Female,1,2024/03/21_08:52:10,YZ,None,
,,,,,,practice_main,0,1,1,1068,6,C,0,right,1.4975312130045495,1,0,,,,,,,,,,,,,,,,,,,,,1,,,,,,,,,,,,,,,,,,,,,,,,,,,,,,,,,,,,,,,,,,,,,,109,153094,21,Female,1,2024/03/21_08:52:10,YZ,None,
,,,,,,practice_main,0,1,1,1068,7,Q,0,right,nan,0,1,,,,,,,,,,,,,,,,,,,,,1,,,,,,,,,,,,,,,,,,,,,,,,,,,,,,,,,,,,,,,,,,,,,,109,153094,21,Female,1,2024/03/21_08:52:10,YZ,None,
,,,,,,practice_main,0,1,1,1068,8,F,0,right,nan,0,1,,,,,,,,,,,,,,,,,,,,,1,,,,,,,,,,,,,,,,,,,,,,,,,,,,,,,,,,,,,,,,,,,,,,109,153094,21,Female,1,2024/03/21_08:52:10,YZ,None,
,,,,,,practice_main,0,1,1,1068,9,F,1,left,1.0175756480020937,1,0,,,,,,,,,,,,,,,,,,,,,1,,,,,,,,,,,,,,,,,,,,,,,,,,,,,,,,,,,,,,,,,,,,,,109,153094,21,Female,1,2024/03/21_08:52:10,YZ,None,
,,,,,,practice_main,0,1,1,1068,10,N,0,right,0.8308120069996221,1,0,,,,,,,,,,,,,,,,,,,,,1,,,,,,,,,,,,,,,,,,,,,,,,,,,,,,,,,,,,,,,,,,,,,,109,153094,21,Female,1,2024/03/21_08:52:10,YZ,None,
,,,,,,practice_main,0,1,1,1068,11,N,1,right,0.5518745929948636,0,0,,,,,,,,,,,,,,,,,,,,,1,,,,,,,,,,,,,,,,,,,,,,,,,,,,,,,,,,,,,,,,,,,,,,109,153094,21,Female,1,2024/03/21_08:52:10,YZ,None,
,,,,,,practice_main,0,1,1,1068,,,,,,,,0.8333333333333334,0.3333333333333333,0.0,1.0,0.5454545454545454,0.4545454545454546,1.0014386148002814,1,0,0,6,6,2,3,3,8,0,,,,1,,,,,,,,,,,,,,,,,,,,,,,,,,,,,,,,,,,,,,,,,,,,,,109,153094,21,Female,1,2024/03/21_08:52:10,YZ,None,
,,,,,240321_092637,PRACTICE,0,1,1,1068,,,,,,,,,,,,,,,,,,,,,,,,,,,,1,26,2,1,cue1.png,easy,A,17,1.3075738289990113,0,1079.4148507739956,1080.749980403998,,,,,,,,,,,,,,,,,,,,,,,,,,,,,,,,,,,109,153094,21,Female,1,2024/03/21_08:52:10,YZ,None,
,,,,,,practice_main,0,2,1,1068,1,N,0,None,nan,0,1,,,,,,,,,,,,,,,,,,,,,1,,,,,,,,,,,,,,,,,,,,,,,,,,,,,,,,,,,,,,,,,,,,,,109,153094,21,Female,1,2024/03/21_08:52:10,YZ,None,
,,,,,,practice_main,0,2,1,1068,2,Q,0,right,1.0052698310028063,1,0,,,,,,,,,,,,,,,,,,,,,1,,,,,,,,,,,,,,,,,,,,,,,,,,,,,,,,,,,,,,,,,,,,,,109,153094,21,Female,1,2024/03/21_08:52:10,YZ,None,
,,,,,,practice_main,0,2,1,1068,3,Q,1,left,0.6637095100013539,1,0,,,,,,,,,,,,,,,,,,,,,1,,,,,,,,,,,,,,,,,,,,,,,,,,,,,,,,,,,,,,,,,,,,,,109,153094,21,Female,1,2024/03/21_08:52:10,YZ,None,
,,,,,,practice_main,0,2,1,1068,4,X,0,right,0.7645056350011146,1,0,,,,,,,,,,,,,,,,,,,,,1,,,,,,,,,,,,,,,,,,,,,,,,,,,,,,,,,,,,,,,,,,,,,,109,153094,21,Female,1,2024/03/21_08:52:10,YZ,None,
,,,,,,practice_main,0,2,1,1068,5,X,1,left,0.7311028859985527,1,0,,,,,,,,,,,,,,,,,,,,,1,,,,,,,,,,,,,,,,,,,,,,,,,,,,,,,,,,,,,,,,,,,,,,109,153094,21,Female,1,2024/03/21_08:52:10,YZ,None,
,,,,,,practice_main,0,2,1,1068,6,S,0,left,nan,0,1,,,,,,,,,,,,,,,,,,,,,1,,,,,,,,,,,,,,,,,,,,,,,,,,,,,,,,,,,,,,,,,,,,,,109,153094,21,Female,1,2024/03/21_08:52:10,YZ,None,
,,,,,,practice_main,0,2,1,1068,7,J,0,right,0.4902348770046956,1,0,,,,,,,,,,,,,,,,,,,,,1,,,,,,,,,,,,,,,,,,,,,,,,,,,,,,,,,,,,,,,,,,,,,,109,153094,21,Female,1,2024/03/21_08:52:10,YZ,None,
,,,,,,practice_main,0,2,1,1068,8,J,1,left,0.8495202459962456,1,0,,,,,,,,,,,,,,,,,,,,,1,,,,,,,,,,,,,,,,,,,,,,,,,,,,,,,,,,,,,,,,,,,,,,109,153094,21,Female,1,2024/03/21_08:52:10,YZ,None,
,,,,,,practice_main,0,2,1,1068,9,Q,0,right,0.7576484719975269,1,0,,,,,,,,,,,,,,,,,,,,,1,,,,,,,,,,,,,,,,,,,,,,,,,,,,,,,,,,,,,,,,,,,,,,109,153094,21,Female,1,2024/03/21_08:52:10,YZ,None,
,,,,,,practice_main,0,2,1,1068,10,S,0,left,0.5904481889956514,0,0,,,,,,,,,,,,,,,,,,,,,1,,,,,,,,,,,,,,,,,,,,,,,,,,,,,,,,,,,,,,,,,,,,,,109,153094,21,Female,1,2024/03/21_08:52:10,YZ,None,
,,,,,,practice_main,0,2,1,1068,11,F,0,right,0.7854580190032721,1,0,,,,,,,,,,,,,,,,,,,,,1,,,,,,,,,,,,,,,,,,,,,,,,,,,,,,,,,,,,,,,,,,,,,,109,153094,21,Female,1,2024/03/21_08:52:10,YZ,None,
,,,,,,practice_main,0,2,1,1068,,,,,,,,0.96875,1.0,0.125,0.8333333333333334,0.18181818181818182,0.6931818181818181,0.7375441850001354,3,1,0,2,2,5,8,3,8,0,,,,1,,,,,,,,,,,,,,,,,,,,,,,,,,,,,,,,,,,,,,,,,,,,,,109,153094,21,Female,1,2024/03/21_08:52:10,YZ,None,
,,,,,240321_092704,PRACTICE,0,2,1,1068,,,,,,,,,,,,,,,,,,,,,,,,,,,,1,21,3,2,cue1.png,easy,A,18,2.0118993170035537,0,1112.7169837409965,1114.741092739001,,,,,,,,,,,,,,,,,,,,,,,,,,,,,,,,,,,109,153094,21,Female,1,2024/03/21_08:52:10,YZ,None,
,,,,,,practice_main,0,3,3,1068,1,V,0,None,nan,0,1,,,,,,,,,,,,,,,,,,,,,1,,,,,,,,,,,,,,,,,,,,,,,,,,,,,,,,,,,,,,,,,,,,,,109,153094,21,Female,1,2024/03/21_08:52:10,YZ,None,
,,,,,,practice_main,0,3,3,1068,2,Q,0,None,nan,0,1,,,,,,,,,,,,,,,,,,,,,1,,,,,,,,,,,,,,,,,,,,,,,,,,,,,,,,,,,,,,,,,,,,,,109,153094,21,Female,1,2024/03/21_08:52:10,YZ,None,
,,,,,,practice_main,0,3,3,1068,3,V,0,left,0.6077182480003103,0,0,,,,,,,,,,,,,,,,,,,,,1,,,,,,,,,,,,,,,,,,,,,,,,,,,,,,,,,,,,,,,,,,,,,,109,153094,21,Female,1,2024/03/21_08:52:10,YZ,None,
,,,,,,practice_main,0,3,3,1068,4,V,1,left,nan,0,1,,,,,,,,,,,,,,,,,,,,,1,,,,,,,,,,,,,,,,,,,,,,,,,,,,,,,,,,,,,,,,,,,,,,109,153094,21,Female,1,2024/03/21_08:52:10,YZ,None,
,,,,,,practice_main,0,3,3,1068,5,N,0,left,nan,0,1,,,,,,,,,,,,,,,,,,,,,1,,,,,,,,,,,,,,,,,,,,,,,,,,,,,,,,,,,,,,,,,,,,,,109,153094,21,Female,1,2024/03/21_08:52:10,YZ,None,
,,,,,,practice_main,0,3,3,1068,6,Q,0,left,nan,0,1,,,,,,,,,,,,,,,,,,,,,1,,,,,,,,,,,,,,,,,,,,,,,,,,,,,,,,,,,,,,,,,,,,,,109,153094,21,Female,1,2024/03/21_08:52:10,YZ,None,
,,,,,,practice_main,0,3,3,1068,7,V,1,left,0.4021309960007784,1,0,,,,,,,,,,,,,,,,,,,,,1,,,,,,,,,,,,,,,,,,,,,,,,,,,,,,,,,,,,,,,,,,,,,,109,153094,21,Female,1,2024/03/21_08:52:10,YZ,None,
,,,,,,practice_main,0,3,3,1068,8,S,0,left,nan,0,1,,,,,,,,,,,,,,,,,,,,,1,,,,,,,,,,,,,,,,,,,,,,,,,,,,,,,,,,,,,,,,,,,,,,109,153094,21,Female,1,2024/03/21_08:52:10,YZ,None,
,,,,,,practice_main,0,3,3,1068,9,S,0,left,nan,0,1,,,,,,,,,,,,,,,,,,,,,1,,,,,,,,,,,,,,,,,,,,,,,,,,,,,,,,,,,,,,,,,,,,,,109,153094,21,Female,1,2024/03/21_08:52:10,YZ,None,
,,,,,,practice_main,0,3,3,1068,10,C,0,left,nan,0,1,,,,,,,,,,,,,,,,,,,,,1,,,,,,,,,,,,,,,,,,,,,,,,,,,,,,,,,,,,,,,,,,,,,,109,153094,21,Female,1,2024/03/21_08:52:10,YZ,None,
,,,,,,practice_main,0,3,3,1068,11,S,1,left,0.4555849360040156,1,0,,,,,,,,,,,,,,,,,,,,,1,,,,,,,,,,,,,,,,,,,,,,,,,,,,,,,,,,,,,,,,,,,,,,109,153094,21,Female,1,2024/03/21_08:52:10,YZ,None,
,,,,,,practice_main,0,3,3,1068,,,,,,,,0.84375,0.6666666666666666,0.125,0.0,0.7272727272727273,0.1477272727272727,0.4884780600017014,2,1,1,7,8,0,2,3,8,0,,,,1,,,,,,,,,,,,,,,,,,,,,,,,,,,,,,,,,,,,,,,,,,,,,,109,153094,21,Female,1,2024/03/21_08:52:10,YZ,None,
,,,,,240321_092739,PRACTICE,0,3,3,1068,,,,,,,,,,,,,,,,,,,,,,,,,,,,1,10,4,3,cue2.png,hard,A,13,1.7555333409982268,0,1140.3256434249997,1142.1098009989946,,,,,,,,,,,,,,,,,,,,,,,,,,,,,,,,,,,109,153094,21,Female,1,2024/03/21_08:52:10,YZ,None,
1,./instructions/inst_prac_end/Slide56.png,right,20.563584044997697,1173.0143490929986,1193.5779331379963,,,,,,,,,,,,,,,,,,,,,,,,,,,,,,,,,1,,,,,,,,,,,,,,,,,,,,,,,,,,,,,,,,,,,,,,,,,,,,,,109,153094,21,Female,1,2024/03/21_08:52:10,YZ,None,
1,./instructions/inst_test/Slide57.png,right,165.43629347400565,1193.6300706529946,1359.0663641270003,,,,,,,,,,,,,,,,,,,,,,,,,,,,,,,,,1,,,,,,,,,,,,,,,,,,,,,,,,,,,,,,,,,,,,,,,,,,,,,,109,153094,21,Female,1,2024/03/21_08:52:10,YZ,None,
,,,,,,test,1,1,1,1068,1,N,0,None,nan,0,1,,,,,,,,,,,,,,,,,,,,,1,,,,,,,,,,,,,,,,,,,,,,,,,,,,,,,,,,,,,,,,,,,,,,109,153094,21,Female,1,2024/03/21_08:52:10,YZ,None,
,,,,,,test,1,1,1,1068,2,F,0,right,0.6909384760001558,1,0,,,,,,,,,,,,,,,,,,,,,1,,,,,,,,,,,,,,,,,,,,,,,,,,,,,,,,,,,,,,,,,,,,,,109,153094,21,Female,1,2024/03/21_08:52:10,YZ,None,
,,,,,,test,1,1,1,1068,3,Q,0,right,0.6712778540022555,1,0,,,,,,,,,,,,,,,,,,,,,1,,,,,,,,,,,,,,,,,,,,,,,,,,,,,,,,,,,,,,,,,,,,,,109,153094,21,Female,1,2024/03/21_08:52:10,YZ,None,
,,,,,,test,1,1,1,1068,4,N,0,left,0.626130299999204,0,0,,,,,,,,,,,,,,,,,,,,,1,,,,,,,,,,,,,,,,,,,,,,,,,,,,,,,,,,,,,,,,,,,,,,109,153094,21,Female,1,2024/03/21_08:52:10,YZ,None,
,,,,,,test,1,1,1,1068,5,N,1,left,0.5646299110012478,1,0,,,,,,,,,,,,,,,,,,,,,1,,,,,,,,,,,,,,,,,,,,,,,,,,,,,,,,,,,,,,,,,,,,,,109,153094,21,Female,1,2024/03/21_08:52:10,YZ,None,
,,,,,,test,1,1,1,1068,6,S,0,right,0.9908493370021461,1,0,,,,,,,,,,,,,,,,,,,,,1,,,,,,,,,,,,,,,,,,,,,,,,,,,,,,,,,,,,,,,,,,,,,,109,153094,21,Female,1,2024/03/21_08:52:10,YZ,None,
,,,,,,test,1,1,1,1068,7,Q,0,right,0.5986889460036764,1,0,,,,,,,,,,,,,,,,,,,,,1,,,,,,,,,,,,,,,,,,,,,,,,,,,,,,,,,,,,,,,,,,,,,,109,153094,21,Female,1,2024/03/21_08:52:10,YZ,None,
,,,,,,test,1,1,1,1068,8,Q,1,left,0.591390721994685,1,0,,,,,,,,,,,,,,,,,,,,,1,,,,,,,,,,,,,,,,,,,,,,,,,,,,,,,,,,,,,,,,,,,,,,109,153094,21,Female,1,2024/03/21_08:52:10,YZ,None,
,,,,,,test,1,1,1,1068,9,F,0,right,0.8532396119990153,1,0,,,,,,,,,,,,,,,,,,,,,1,,,,,,,,,,,,,,,,,,,,,,,,,,,,,,,,,,,,,,,,,,,,,,109,153094,21,Female,1,2024/03/21_08:52:10,YZ,None,
,,,,,,test,1,1,1,1068,10,S,0,right,0.7886563209976885,1,0,,,,,,,,,,,,,,,,,,,,,1,,,,,,,,,,,,,,,,,,,,,,,,,,,,,,,,,,,,,,,,,,,,,,109,153094,21,Female,1,2024/03/21_08:52:10,YZ,None,
,,,,,,test,1,1,1,1068,11,S,1,right,0.40539120200264733,0,0,,,,,,,,,,,,,,,,,,,,,1,,,,,,,,,,,,,,,,,,,,,,,,,,,,,,,,,,,,,,,,,,,,,,109,153094,21,Female,1,2024/03/21_08:52:10,YZ,None,
,,,,,,Test,1,1,1,1068,,,,,,,,0.84375,0.6666666666666666,0.125,0.8571428571428571,0.09090909090909091,0.7840909090909091,0.6781192681002721,2,1,0,1,1,6,8,3,8,0,,,,1,,,,,,,,,,,,,,,,,,,,,,,,,,,,,,,,,,,,,,,,,,,,,,109,153094,21,Female,1,2024/03/21_08:52:10,YZ,None,
,,,,,240321_093113,TEST,1,1,1,1068,,,,,,,,,,,,,,,,,,,,,,,,,,,,1,1,1,1,cue1.png,easy,A,26,1.2282157719964744,0,1364.1223518109982,1365.3712394719987,,,,,,,,,,,,,,,,,,,,,,,,,,,,,,,,,,,109,153094,21,Female,1,2024/03/21_08:52:10,YZ,None,
,,,,,,test,1,2,3,1068,1,J,0,None,nan,0,1,,,,,,,,,,,,,,,,,,,,,1,,,,,,,,,,,,,,,,,,,,,,,,,,,,,,,,,,,,,,,,,,,,,,109,153094,21,Female,1,2024/03/21_08:52:10,YZ,None,
,,,,,,test,1,2,3,1068,2,V,0,None,nan,0,1,,,,,,,,,,,,,,,,,,,,,1,,,,,,,,,,,,,,,,,,,,,,,,,,,,,,,,,,,,,,,,,,,,,,109,153094,21,Female,1,2024/03/21_08:52:10,YZ,None,
,,,,,,test,1,2,3,1068,3,N,0,None,nan,0,1,,,,,,,,,,,,,,,,,,,,,1,,,,,,,,,,,,,,,,,,,,,,,,,,,,,,,,,,,,,,,,,,,,,,109,153094,21,Female,1,2024/03/21_08:52:10,YZ,None,
,,,,,,test,1,2,3,1068,4,Q,0,right,0.5586795589988469,1,0,,,,,,,,,,,,,,,,,,,,,1,,,,,,,,,,,,,,,,,,,,,,,,,,,,,,,,,,,,,,,,,,,,,,109,153094,21,Female,1,2024/03/21_08:52:10,YZ,None,
,,,,,,test,1,2,3,1068,5,Q,0,right,nan,0,1,,,,,,,,,,,,,,,,,,,,,1,,,,,,,,,,,,,,,,,,,,,,,,,,,,,,,,,,,,,,,,,,,,,,109,153094,21,Female,1,2024/03/21_08:52:10,YZ,None,
,,,,,,test,1,2,3,1068,6,N,1,right,nan,0,1,,,,,,,,,,,,,,,,,,,,,1,,,,,,,,,,,,,,,,,,,,,,,,,,,,,,,,,,,,,,,,,,,,,,109,153094,21,Female,1,2024/03/21_08:52:10,YZ,None,
,,,,,,test,1,2,3,1068,7,F,0,right,nan,0,1,,,,,,,,,,,,,,,,,,,,,1,,,,,,,,,,,,,,,,,,,,,,,,,,,,,,,,,,,,,,,,,,,,,,109,153094,21,Female,1,2024/03/21_08:52:10,YZ,None,
,,,,,,test,1,2,3,1068,8,Q,1,left,0.6137502620040323,1,0,,,,,,,,,,,,,,,,,,,,,1,,,,,,,,,,,,,,,,,,,,,,,,,,,,,,,,,,,,,,,,,,,,,,109,153094,21,Female,1,2024/03/21_08:52:10,YZ,None,
,,,,,,test,1,2,3,1068,9,N,1,left,nan,0,1,,,,,,,,,,,,,,,,,,,,,1,,,,,,,,,,,,,,,,,,,,,,,,,,,,,,,,,,,,,,,,,,,,,,109,153094,21,Female,1,2024/03/21_08:52:10,YZ,None,
,,,,,,test,1,2,3,1068,10,C,0,left,nan,0,1,,,,,,,,,,,,,,,,,,,,,1,,,,,,,,,,,,,,,,,,,,,,,,,,,,,,,,,,,,,,,,,,,,,,109,153094,21,Female,1,2024/03/21_08:52:10,YZ,None,
,,,,,,test,1,2,3,1068,11,C,0,left,nan,0,1,,,,,,,,,,,,,,,,,,,,,1,,,,,,,,,,,,,,,,,,,,,,,,,,,,,,,,,,,,,,,,,,,,,,109,153094,21,Female,1,2024/03/21_08:52:10,YZ,None,
,,,,,,Test,1,2,3,1068,,,,,,,,0.8333333333333334,0.3333333333333333,0.0,1.0,0.8181818181818182,0.18181818181818177,0.5862149105014396,1,0,2,7,9,1,2,3,8,0,,,,1,,,,,,,,,,,,,,,,,,,,,,,,,,,,,,,,,,,,,,,,,,,,,,109,153094,21,Female,1,2024/03/21_08:52:10,YZ,None,
,,,,,240321_093150,TEST,1,2,3,1068,,,,,,,,,,,,,,,,,,,,,,,,,,,,1,2,2,2,cue2.png,hard,A,16,2.4124207360000582,0,1389.100886581,1391.524938663999,,,,,,,,,,,,,,,,,,,,,,,,,,,,,,,,,,,109,153094,21,Female,1,2024/03/21_08:52:10,YZ,None,
,,,,,,test,1,3,1,1068,1,V,0,None,nan,0,1,,,,,,,,,,,,,,,,,,,,,1,,,,,,,,,,,,,,,,,,,,,,,,,,,,,,,,,,,,,,,,,,,,,,109,153094,21,Female,1,2024/03/21_08:52:10,YZ,None,
,,,,,,test,1,3,1,1068,2,S,0,right,0.5917238400070346,1,0,,,,,,,,,,,,,,,,,,,,,1,,,,,,,,,,,,,,,,,,,,,,,,,,,,,,,,,,,,,,,,,,,,,,109,153094,21,Female,1,2024/03/21_08:52:10,YZ,None,
,,,,,,test,1,3,1,1068,3,C,0,right,0.744160923997697,1,0,,,,,,,,,,,,,,,,,,,,,1,,,,,,,,,,,,,,,,,,,,,,,,,,,,,,,,,,,,,,,,,,,,,,109,153094,21,Female,1,2024/03/21_08:52:10,YZ,None,
,,,,,,test,1,3,1,1068,4,C,1,left,0.7578027310009929,1,0,,,,,,,,,,,,,,,,,,,,,1,,,,,,,,,,,,,,,,,,,,,,,,,,,,,,,,,,,,,,,,,,,,,,109,153094,21,Female,1,2024/03/21_08:52:10,YZ,None,
,,,,,,test,1,3,1,1068,5,N,0,right,0.6407549340001424,1,0,,,,,,,,,,,,,,,,,,,,,1,,,,,,,,,,,,,,,,,,,,,,,,,,,,,,,,,,,,,,,,,,,,,,109,153094,21,Female,1,2024/03/21_08:52:10,YZ,None,
,,,,,,test,1,3,1,1068,6,C,0,left,0.7420400170012726,0,0,,,,,,,,,,,,,,,,,,,,,1,,,,,,,,,,,,,,,,,,,,,,,,,,,,,,,,,,,,,,,,,,,,,,109,153094,21,Female,1,2024/03/21_08:52:10,YZ,None,
,,,,,,test,1,3,1,1068,7,N,0,right,0.6748336560049211,1,0,,,,,,,,,,,,,,,,,,,,,1,,,,,,,,,,,,,,,,,,,,,,,,,,,,,,,,,,,,,,,,,,,,,,109,153094,21,Female,1,2024/03/21_08:52:10,YZ,None,
,,,,,,test,1,3,1,1068,8,N,1,left,0.978753837000113,1,0,,,,,,,,,,,,,,,,,,,,,1,,,,,,,,,,,,,,,,,,,,,,,,,,,,,,,,,,,,,,,,,,,,,,109,153094,21,Female,1,2024/03/21_08:52:10,YZ,None,
,,,,,,test,1,3,1,1068,9,J,0,right,0.881635069999902,1,0,,,,,,,,,,,,,,,,,,,,,1,,,,,,,,,,,,,,,,,,,,,,,,,,,,,,,,,,,,,,,,,,,,,,109,153094,21,Female,1,2024/03/21_08:52:10,YZ,None,
,,,,,,test,1,3,1,1068,10,J,1,left,0.5238536390024819,1,0,,,,,,,,,,,,,,,,,,,,,1,,,,,,,,,,,,,,,,,,,,,,,,,,,,,,,,,,,,,,,,,,,,,,109,153094,21,Female,1,2024/03/21_08:52:10,YZ,None,
,,,,,,test,1,3,1,1068,11,Q,0,right,0.4949131870016572,1,0,,,,,,,,,,,,,,,,,,,,,1,,,,,,,,,,,,,,,,,,,,,,,,,,,,,,,,,,,,,,,,,,,,,,109,153094,21,Female,1,2024/03/21_08:52:10,YZ,None,
,,,,,,Test,1,3,1,1068,,,,,,,,0.96875,1.0,0.125,0.8571428571428571,0.09090909090909091,0.7840909090909091,0.7030471835016214,3,1,0,1,1,6,9,3,8,0,,,,1,,,,,,,,,,,,,,,,,,,,,,,,,,,,,,,,,,,,,,,,,,,,,,109,153094,21,Female,1,2024/03/21_08:52:10,YZ,None,
,,,,,240321_093216,TEST,1,3,1,1068,,,,,,,,,,,,,,,,,,,,,,,,,,,,1,3,3,3,cue1.png,easy,A,13,1.806792747003783,0,1425.6495708669972,1427.4769275579965,,,,,,,,,,,,,,,,,,,,,,,,,,,,,,,,,,,109,153094,21,Female,1,2024/03/21_08:52:10,YZ,None,
,,,,,,test,1,4,3,1068,1,C,0,None,nan,0,1,,,,,,,,,,,,,,,,,,,,,1,,,,,,,,,,,,,,,,,,,,,,,,,,,,,,,,,,,,,,,,,,,,,,109,153094,21,Female,1,2024/03/21_08:52:10,YZ,None,
,,,,,,test,1,4,3,1068,2,X,0,None,nan,0,1,,,,,,,,,,,,,,,,,,,,,1,,,,,,,,,,,,,,,,,,,,,,,,,,,,,,,,,,,,,,,,,,,,,,109,153094,21,Female,1,2024/03/21_08:52:10,YZ,None,
,,,,,,test,1,4,3,1068,3,Q,0,None,nan,0,1,,,,,,,,,,,,,,,,,,,,,1,,,,,,,,,,,,,,,,,,,,,,,,,,,,,,,,,,,,,,,,,,,,,,109,153094,21,Female,1,2024/03/21_08:52:10,YZ,None,
,,,,,,test,1,4,3,1068,4,Q,0,right,1.8486167329974705,1,0,,,,,,,,,,,,,,,,,,,,,1,,,,,,,,,,,,,,,,,,,,,,,,,,,,,,,,,,,,,,,,,,,,,,109,153094,21,Female,1,2024/03/21_08:52:10,YZ,None,
,,,,,,test,1,4,3,1068,5,X,1,right,nan,0,1,,,,,,,,,,,,,,,,,,,,,1,,,,,,,,,,,,,,,,,,,,,,,,,,,,,,,,,,,,,,,,,,,,,,109,153094,21,Female,1,2024/03/21_08:52:10,YZ,None,
,,,,,,test,1,4,3,1068,6,J,0,right,nan,0,1,,,,,,,,,,,,,,,,,,,,,1,,,,,,,,,,,,,,,,,,,,,,,,,,,,,,,,,,,,,,,,,,,,,,109,153094,21,Female,1,2024/03/21_08:52:10,YZ,None,
,,,,,,test,1,4,3,1068,7,S,0,right,nan,0,1,,,,,,,,,,,,,,,,,,,,,1,,,,,,,,,,,,,,,,,,,,,,,,,,,,,,,,,,,,,,,,,,,,,,109,153094,21,Female,1,2024/03/21_08:52:10,YZ,None,
,,,,,,test,1,4,3,1068,8,X,1,left,0.38322579899977427,1,0,,,,,,,,,,,,,,,,,,,,,1,,,,,,,,,,,,,,,,,,,,,,,,,,,,,,,,,,,,,,,,,,,,,,109,153094,21,Female,1,2024/03/21_08:52:10,YZ,None,
,,,,,,test,1,4,3,1068,9,J,1,left,nan,0,1,,,,,,,,,,,,,,,,,,,,,1,,,,,,,,,,,,,,,,,,,,,,,,,,,,,,,,,,,,,,,,,,,,,,109,153094,21,Female,1,2024/03/21_08:52:10,YZ,None,
,,,,,,test,1,4,3,1068,10,Q,0,left,nan,0,1,,,,,,,,,,,,,,,,,,,,,1,,,,,,,,,,,,,,,,,,,,,,,,,,,,,,,,,,,,,,,,,,,,,,109,153094,21,Female,1,2024/03/21_08:52:10,YZ,None,
,,,,,,test,1,4,3,1068,11,F,0,left,nan,0,1,,,,,,,,,,,,,,,,,,,,,1,,,,,,,,,,,,,,,,,,,,,,,,,,,,,,,,,,,,,,,,,,,,,,109,153094,21,Female,1,2024/03/21_08:52:10,YZ,None,
,,,,,,Test,1,4,3,1068,,,,,,,,0.8333333333333334,0.3333333333333333,0.0,1.0,0.8181818181818182,0.18181818181818177,1.1159212659986224,1,0,2,7,9,1,2,3,8,0,,,,1,,,,,,,,,,,,,,,,,,,,,,,,,,,,,,,,,,,,,,,,,,,,,,109,153094,21,Female,1,2024/03/21_08:52:10,YZ,None,
,,,,,240321_093253,TEST,1,4,3,1068,,,,,,,,,,,,,,,,,,,,,,,,,,,,1,4,4,4,cue2.png,hard,A,10,2.198714081001526,0,1451.4452309519984,1453.6698375880005,,,,,,,,,,,,,,,,,,,,,,,,,,,,,,,,,,,109,153094,21,Female,1,2024/03/21_08:52:10,YZ,None,
,,,,,,test,1,5,3,1068,1,N,0,None,nan,0,1,,,,,,,,,,,,,,,,,,,,,1,,,,,,,,,,,,,,,,,,,,,,,,,,,,,,,,,,,,,,,,,,,,,,109,153094,21,Female,1,2024/03/21_08:52:10,YZ,None,
,,,,,,test,1,5,3,1068,2,N,0,None,nan,0,1,,,,,,,,,,,,,,,,,,,,,1,,,,,,,,,,,,,,,,,,,,,,,,,,,,,,,,,,,,,,,,,,,,,,109,153094,21,Female,1,2024/03/21_08:52:10,YZ,None,
,,,,,,test,1,5,3,1068,3,X,0,None,nan,0,1,,,,,,,,,,,,,,,,,,,,,1,,,,,,,,,,,,,,,,,,,,,,,,,,,,,,,,,,,,,,,,,,,,,,109,153094,21,Female,1,2024/03/21_08:52:10,YZ,None,
,,,,,,test,1,5,3,1068,4,X,0,right,0.7750595949983108,1,0,,,,,,,,,,,,,,,,,,,,,1,,,,,,,,,,,,,,,,,,,,,,,,,,,,,,,,,,,,,,,,,,,,,,109,153094,21,Female,1,2024/03/21_08:52:10,YZ,None,
,,,,,,test,1,5,3,1068,5,J,0,right,nan,0,1,,,,,,,,,,,,,,,,,,,,,1,,,,,,,,,,,,,,,,,,,,,,,,,,,,,,,,,,,,,,,,,,,,,,109,153094,21,Female,1,2024/03/21_08:52:10,YZ,None,
,,,,,,test,1,5,3,1068,6,X,1,right,nan,0,1,,,,,,,,,,,,,,,,,,,,,1,,,,,,,,,,,,,,,,,,,,,,,,,,,,,,,,,,,,,,,,,,,,,,109,153094,21,Female,1,2024/03/21_08:52:10,YZ,None,
,,,,,,test,1,5,3,1068,7,F,0,right,nan,0,1,,,,,,,,,,,,,,,,,,,,,1,,,,,,,,,,,,,,,,,,,,,,,,,,,,,,,,,,,,,,,,,,,,,,109,153094,21,Female,1,2024/03/21_08:52:10,YZ,None,
,,,,,,test,1,5,3,1068,8,N,0,left,0.34893857600400224,0,0,,,,,,,,,,,,,,,,,,,,,1,,,,,,,,,,,,,,,,,,,,,,,,,,,,,,,,,,,,,,,,,,,,,,109,153094,21,Female,1,2024/03/21_08:52:10,YZ,None,
,,,,,,test,1,5,3,1068,9,N,0,left,nan,0,1,,,,,,,,,,,,,,,,,,,,,1,,,,,,,,,,,,,,,,,,,,,,,,,,,,,,,,,,,,,,,,,,,,,,109,153094,21,Female,1,2024/03/21_08:52:10,YZ,None,
,,,,,,test,1,5,3,1068,10,F,1,left,nan,0,1,,,,,,,,,,,,,,,,,,,,,1,,,,,,,,,,,,,,,,,,,,,,,,,,,,,,,,,,,,,,,,,,,,,,109,153094,21,Female,1,2024/03/21_08:52:10,YZ,None,
,,,,,,test,1,5,3,1068,11,N,1,left,nan,0,1,,,,,,,,,,,,,,,,,,,,,1,,,,,,,,,,,,,,,,,,,,,,,,,,,,,,,,,,,,,,,,,,,,,,109,153094,21,Female,1,2024/03/21_08:52:10,YZ,None,
,,,,,,Test,1,5,3,1068,,,,,,,,0.21875,0.0,0.125,0.5,0.8181818181818182,0.05681818181818177,0.5619990855011565,0,1,3,6,9,1,1,3,8,0,,,,1,,,,,,,,,,,,,,,,,,,,,,,,,,,,,,,,,,,,,,,,,,,,,,109,153094,21,Female,1,2024/03/21_08:52:10,YZ,None,
,,,,,240321_093337,TEST,1,5,3,1068,,,,,,,,,,,,,,,,,,,,,,,,,,,,1,5,6,5,cue2.png,hard,A,12,1.5189454779974767,0,1496.903035561998,1498.4382878199976,,,,,,,,,,,,,,,,,,,,,,,,,,,,,,,,,,,109,153094,21,Female,1,2024/03/21_08:52:10,YZ,None,
,,,,,,test,1,6,1,1068,1,J,0,None,nan,0,1,,,,,,,,,,,,,,,,,,,,,1,,,,,,,,,,,,,,,,,,,,,,,,,,,,,,,,,,,,,,,,,,,,,,109,153094,21,Female,1,2024/03/21_08:52:10,YZ,None,
,,,,,,test,1,6,1,1068,2,C,0,right,1.181134190002922,1,0,,,,,,,,,,,,,,,,,,,,,1,,,,,,,,,,,,,,,,,,,,,,,,,,,,,,,,,,,,,,,,,,,,,,109,153094,21,Female,1,2024/03/21_08:52:10,YZ,None,
,,,,,,test,1,6,1,1068,3,Q,0,right,0.763887793997128,1,0,,,,,,,,,,,,,,,,,,,,,1,,,,,,,,,,,,,,,,,,,,,,,,,,,,,,,,,,,,,,,,,,,,,,109,153094,21,Female,1,2024/03/21_08:52:10,YZ,None,
,,,,,,test,1,6,1,1068,4,X,0,right,0.5239996539967251,1,0,,,,,,,,,,,,,,,,,,,,,1,,,,,,,,,,,,,,,,,,,,,,,,,,,,,,,,,,,,,,,,,,,,,,109,153094,21,Female,1,2024/03/21_08:52:10,YZ,None,
,,,,,,test,1,6,1,1068,5,V,0,right,0.6783299300004728,1,0,,,,,,,,,,,,,,,,,,,,,1,,,,,,,,,,,,,,,,,,,,,,,,,,,,,,,,,,,,,,,,,,,,,,109,153094,21,Female,1,2024/03/21_08:52:10,YZ,None,
,,,,,,test,1,6,1,1068,6,V,1,left,0.5911384139981237,1,0,,,,,,,,,,,,,,,,,,,,,1,,,,,,,,,,,,,,,,,,,,,,,,,,,,,,,,,,,,,,,,,,,,,,109,153094,21,Female,1,2024/03/21_08:52:10,YZ,None,
,,,,,,test,1,6,1,1068,7,C,0,right,0.5720362380016013,1,0,,,,,,,,,,,,,,,,,,,,,1,,,,,,,,,,,,,,,,,,,,,,,,,,,,,,,,,,,,,,,,,,,,,,109,153094,21,Female,1,2024/03/21_08:52:10,YZ,None,
,,,,,,test,1,6,1,1068,8,C,1,left,0.512443963001715,1,0,,,,,,,,,,,,,,,,,,,,,1,,,,,,,,,,,,,,,,,,,,,,,,,,,,,,,,,,,,,,,,,,,,,,109,153094,21,Female,1,2024/03/21_08:52:10,YZ,None,
,,,,,,test,1,6,1,1068,9,V,0,right,0.6996079689997714,1,0,,,,,,,,,,,,,,,,,,,,,1,,,,,,,,,,,,,,,,,,,,,,,,,,,,,,,,,,,,,,,,,,,,,,109,153094,21,Female,1,2024/03/21_08:52:10,YZ,None,
,,,,,,test,1,6,1,1068,10,V,1,left,0.6582744499974069,1,0,,,,,,,,,,,,,,,,,,,,,1,,,,,,,,,,,,,,,,,,,,,,,,,,,,,,,,,,,,,,,,,,,,,,109,153094,21,Female,1,2024/03/21_08:52:10,YZ,None,
,,,,,,test,1,6,1,1068,11,X,0,right,0.5300394629957736,1,0,,,,,,,,,,,,,,,,,,,,,1,,,,,,,,,,,,,,,,,,,,,,,,,,,,,,,,,,,,,,,,,,,,,,109,153094,21,Female,1,2024/03/21_08:52:10,YZ,None,
,,,,,,Test,1,6,1,1068,,,,,,,,1.0,1.0,0.0,1.0,0.09090909090909091,0.9090909090909091,0.671089206499164,3,0,0,1,1,7,10,3,8,0,,,,1,,,,,,,,,,,,,,,,,,,,,,,,,,,,,,,,,,,,,,,,,,,,,,109,153094,21,Female,1,2024/03/21_08:52:10,YZ,None,
,,,,,240321_093401,TEST,1,6,1,1068,,,,,,,,,,,,,,,,,,,,,,,,,,,,1,6,7,6,cue1.png,easy,A,15,1.220719128003111,0,1532.505768611998,1533.743898322995,,,,,,,,,,,,,,,,,,,,,,,,,,,,,,,,,,,109,153094,21,Female,1,2024/03/21_08:52:10,YZ,None,
,,,,,,test,1,7,3,1068,1,C,0,None,nan,0,1,,,,,,,,,,,,,,,,,,,,,1,,,,,,,,,,,,,,,,,,,,,,,,,,,,,,,,,,,,,,,,,,,,,,109,153094,21,Female,1,2024/03/21_08:52:10,YZ,None,
,,,,,,test,1,7,3,1068,2,X,0,None,nan,0,1,,,,,,,,,,,,,,,,,,,,,1,,,,,,,,,,,,,,,,,,,,,,,,,,,,,,,,,,,,,,,,,,,,,,109,153094,21,Female,1,2024/03/21_08:52:10,YZ,None,
,,,,,,test,1,7,3,1068,3,F,0,None,nan,0,1,,,,,,,,,,,,,,,,,,,,,1,,,,,,,,,,,,,,,,,,,,,,,,,,,,,,,,,,,,,,,,,,,,,,109,153094,21,Female,1,2024/03/21_08:52:10,YZ,None,
,,,,,,test,1,7,3,1068,4,F,0,right,0.46503195600234903,1,0,,,,,,,,,,,,,,,,,,,,,1,,,,,,,,,,,,,,,,,,,,,,,,,,,,,,,,,,,,,,,,,,,,,,109,153094,21,Female,1,2024/03/21_08:52:10,YZ,None,
,,,,,,test,1,7,3,1068,5,V,0,right,nan,0,1,,,,,,,,,,,,,,,,,,,,,1,,,,,,,,,,,,,,,,,,,,,,,,,,,,,,,,,,,,,,,,,,,,,,109,153094,21,Female,1,2024/03/21_08:52:10,YZ,None,
,,,,,,test,1,7,3,1068,6,F,1,right,nan,0,1,,,,,,,,,,,,,,,,,,,,,1,,,,,,,,,,,,,,,,,,,,,,,,,,,,,,,,,,,,,,,,,,,,,,109,153094,21,Female,1,2024/03/21_08:52:10,YZ,None,
,,,,,,test,1,7,3,1068,7,Q,0,right,nan,0,1,,,,,,,,,,,,,,,,,,,,,1,,,,,,,,,,,,,,,,,,,,,,,,,,,,,,,,,,,,,,,,,,,,,,109,153094,21,Female,1,2024/03/21_08:52:10,YZ,None,
,,,,,,test,1,7,3,1068,8,X,0,right,0.8747599800044554,1,0,,,,,,,,,,,,,,,,,,,,,1,,,,,,,,,,,,,,,,,,,,,,,,,,,,,,,,,,,,,,,,,,,,,,109,153094,21,Female,1,2024/03/21_08:52:10,YZ,None,
,,,,,,test,1,7,3,1068,9,F,1,right,nan,0,1,,,,,,,,,,,,,,,,,,,,,1,,,,,,,,,,,,,,,,,,,,,,,,,,,,,,,,,,,,,,,,,,,,,,109,153094,21,Female,1,2024/03/21_08:52:10,YZ,None,
,,,,,,test,1,7,3,1068,10,C,0,right,nan,0,1,,,,,,,,,,,,,,,,,,,,,1,,,,,,,,,,,,,,,,,,,,,,,,,,,,,,,,,,,,,,,,,,,,,,109,153094,21,Female,1,2024/03/21_08:52:10,YZ,None,
,,,,,,test,1,7,3,1068,11,X,1,right,nan,0,1,,,,,,,,,,,,,,,,,,,,,1,,,,,,,,,,,,,,,,,,,,,,,,,,,,,,,,,,,,,,,,,,,,,,109,153094,21,Female,1,2024/03/21_08:52:10,YZ,None,
,,,,,,Test,1,7,3,1068,,,,,,,,0.5,0.0,0.0,1.0,0.8181818181818182,0.18181818181818177,0.6698959680034022,0,0,3,6,9,2,2,3,8,0,,,,1,,,,,,,,,,,,,,,,,,,,,,,,,,,,,,,,,,,,,,,,,,,,,,109,153094,21,Female,1,2024/03/21_08:52:10,YZ,None,
,,,,,240321_093438,TEST,1,7,3,1068,,,,,,,,,,,,,,,,,,,,,,,,,,,,1,7,8,7,cue2.png,hard,A,7,2.722498094000912,0,1557.390468517995,1560.1296657899948,,,,,,,,,,,,,,,,,,,,,,,,,,,,,,,,,,,109,153094,21,Female,1,2024/03/21_08:52:10,YZ,None,
,,,,,,test,1,8,3,1068,1,N,0,None,nan,0,1,,,,,,,,,,,,,,,,,,,,,1,,,,,,,,,,,,,,,,,,,,,,,,,,,,,,,,,,,,,,,,,,,,,,109,153094,21,Female,1,2024/03/21_08:52:10,YZ,None,
,,,,,,test,1,8,3,1068,2,N,0,None,nan,0,1,,,,,,,,,,,,,,,,,,,,,1,,,,,,,,,,,,,,,,,,,,,,,,,,,,,,,,,,,,,,,,,,,,,,109,153094,21,Female,1,2024/03/21_08:52:10,YZ,None,
,,,,,,test,1,8,3,1068,3,S,0,None,nan,0,1,,,,,,,,,,,,,,,,,,,,,1,,,,,,,,,,,,,,,,,,,,,,,,,,,,,,,,,,,,,,,,,,,,,,109,153094,21,Female,1,2024/03/21_08:52:10,YZ,None,
,,,,,,test,1,8,3,1068,4,C,0,right,0.616734303002886,1,0,,,,,,,,,,,,,,,,,,,,,1,,,,,,,,,,,,,,,,,,,,,,,,,,,,,,,,,,,,,,,,,,,,,,109,153094,21,Female,1,2024/03/21_08:52:10,YZ,None,
,,,,,,test,1,8,3,1068,5,N,1,right,nan,0,1,,,,,,,,,,,,,,,,,,,,,1,,,,,,,,,,,,,,,,,,,,,,,,,,,,,,,,,,,,,,,,,,,,,,109,153094,21,Female,1,2024/03/21_08:52:10,YZ,None,
,,,,,,test,1,8,3,1068,6,F,0,right,nan,0,1,,,,,,,,,,,,,,,,,,,,,1,,,,,,,,,,,,,,,,,,,,,,,,,,,,,,,,,,,,,,,,,,,,,,109,153094,21,Female,1,2024/03/21_08:52:10,YZ,None,
,,,,,,test,1,8,3,1068,7,S,0,right,nan,0,1,,,,,,,,,,,,,,,,,,,,,1,,,,,,,,,,,,,,,,,,,,,,,,,,,,,,,,,,,,,,,,,,,,,,109,153094,21,Female,1,2024/03/21_08:52:10,YZ,None,
,,,,,,test,1,8,3,1068,8,C,0,left,1.0081721700044,0,0,,,,,,,,,,,,,,,,,,,,,1,,,,,,,,,,,,,,,,,,,,,,,,,,,,,,,,,,,,,,,,,,,,,,109,153094,21,Female,1,2024/03/21_08:52:10,YZ,None,
,,,,,,test,1,8,3,1068,9,N,0,left,nan,0,1,,,,,,,,,,,,,,,,,,,,,1,,,,,,,,,,,,,,,,,,,,,,,,,,,,,,,,,,,,,,,,,,,,,,109,153094,21,Female,1,2024/03/21_08:52:10,YZ,None,
,,,,,,test,1,8,3,1068,10,S,1,left,nan,0,1,,,,,,,,,,,,,,,,,,,,,1,,,,,,,,,,,,,,,,,,,,,,,,,,,,,,,,,,,,,,,,,,,,,,109,153094,21,Female,1,2024/03/21_08:52:10,YZ,None,
,,,,,,test,1,8,3,1068,11,C,1,left,nan,0,1,,,,,,,,,,,,,,,,,,,,,1,,,,,,,,,,,,,,,,,,,,,,,,,,,,,,,,,,,,,,,,,,,,,,109,153094,21,Female,1,2024/03/21_08:52:10,YZ,None,
,,,,,,Test,1,8,3,1068,,,,,,,,0.21875,0.0,0.125,0.5,0.8181818181818182,0.05681818181818177,0.812453236503643,0,1,3,6,9,1,1,3,8,0,,,,1,,,,,,,,,,,,,,,,,,,,,,,,,,,,,,,,,,,,,,,,,,,,,,109,153094,21,Female,1,2024/03/21_08:52:10,YZ,None,
,,,,,240321_093523,TEST,1,8,3,1068,,,,,,,,,,,,,,,,,,,,,,,,,,,,1,8,10,8,cue2.png,hard,A,9,1.8617700379982125,0,1602.446390774996,1604.3290517409987,,,,,,,,,,,,,,,,,,,,,,,,,,,,,,,,,,,109,153094,21,Female,1,2024/03/21_08:52:10,YZ,None,
,,,,,,test,1,9,1,1068,1,C,0,None,nan,0,1,,,,,,,,,,,,,,,,,,,,,1,,,,,,,,,,,,,,,,,,,,,,,,,,,,,,,,,,,,,,,,,,,,,,109,153094,21,Female,1,2024/03/21_08:52:10,YZ,None,
,,,,,,test,1,9,1,1068,2,C,1,left,0.607727087000967,1,0,,,,,,,,,,,,,,,,,,,,,1,,,,,,,,,,,,,,,,,,,,,,,,,,,,,,,,,,,,,,,,,,,,,,109,153094,21,Female,1,2024/03/21_08:52:10,YZ,None,
,,,,,,test,1,9,1,1068,3,V,0,right,0.5616414569958579,1,0,,,,,,,,,,,,,,,,,,,,,1,,,,,,,,,,,,,,,,,,,,,,,,,,,,,,,,,,,,,,,,,,,,,,109,153094,21,Female,1,2024/03/21_08:52:10,YZ,None,
,,,,,,test,1,9,1,1068,4,Q,0,right,0.8328185970021877,1,0,,,,,,,,,,,,,,,,,,,,,1,,,,,,,,,,,,,,,,,,,,,,,,,,,,,,,,,,,,,,,,,,,,,,109,153094,21,Female,1,2024/03/21_08:52:10,YZ,None,
,,,,,,test,1,9,1,1068,5,N,0,right,0.6221772589997272,1,0,,,,,,,,,,,,,,,,,,,,,1,,,,,,,,,,,,,,,,,,,,,,,,,,,,,,,,,,,,,,,,,,,,,,109,153094,21,Female,1,2024/03/21_08:52:10,YZ,None,
,,,,,,test,1,9,1,1068,6,F,0,right,0.7540023969995673,1,0,,,,,,,,,,,,,,,,,,,,,1,,,,,,,,,,,,,,,,,,,,,,,,,,,,,,,,,,,,,,,,,,,,,,109,153094,21,Female,1,2024/03/21_08:52:10,YZ,None,
,,,,,,test,1,9,1,1068,7,J,0,right,0.7290743510020548,1,0,,,,,,,,,,,,,,,,,,,,,1,,,,,,,,,,,,,,,,,,,,,,,,,,,,,,,,,,,,,,,,,,,,,,109,153094,21,Female,1,2024/03/21_08:52:10,YZ,None,
,,,,,,test,1,9,1,1068,8,C,0,right,0.5415239770009066,1,0,,,,,,,,,,,,,,,,,,,,,1,,,,,,,,,,,,,,,,,,,,,,,,,,,,,,,,,,,,,,,,,,,,,,109,153094,21,Female,1,2024/03/21_08:52:10,YZ,None,
,,,,,,test,1,9,1,1068,9,C,1,left,0.5386050500019337,1,0,,,,,,,,,,,,,,,,,,,,,1,,,,,,,,,,,,,,,,,,,,,,,,,,,,,,,,,,,,,,,,,,,,,,109,153094,21,Female,1,2024/03/21_08:52:10,YZ,None,
,,,,,,test,1,9,1,1068,10,Q,0,right,0.5198875200003386,1,0,,,,,,,,,,,,,,,,,,,,,1,,,,,,,,,,,,,,,,,,,,,,,,,,,,,,,,,,,,,,,,,,,,,,109,153094,21,Female,1,2024/03/21_08:52:10,YZ,None,
,,,,,,test,1,9,1,1068,11,Q,1,left,0.5653854929987574,1,0,,,,,,,,,,,,,,,,,,,,,1,,,,,,,,,,,,,,,,,,,,,,,,,,,,,,,,,,,,,,,,,,,,,,109,153094,21,Female,1,2024/03/21_08:52:10,YZ,None,
,,,,,,Test,1,9,1,1068,,,,,,,,1.0,1.0,0.0,1.0,0.09090909090909091,0.9090909090909091,0.6272843188002298,3,0,0,1,1,7,10,3,8,0,,,,1,,,,,,,,,,,,,,,,,,,,,,,,,,,,,,,,,,,,,,,,,,,,,,109,153094,21,Female,1,2024/03/21_08:52:10,YZ,None,
,,,,,240321_093548,TEST,1,9,1,1068,,,,,,,,,,,,,,,,,,,,,,,,,,,,1,9,11,9,cue1.png,easy,A,10,1.6975884560015402,0,1638.8992438419955,1640.6142967459964,,,,,,,,,,,,,,,,,,,,,,,,,,,,,,,,,,,109,153094,21,Female,1,2024/03/21_08:52:10,YZ,None,
,,,,,,test,1,10,1,1068,1,C,0,None,nan,0,1,,,,,,,,,,,,,,,,,,,,,1,,,,,,,,,,,,,,,,,,,,,,,,,,,,,,,,,,,,,,,,,,,,,,109,153094,21,Female,1,2024/03/21_08:52:10,YZ,None,
,,,,,,test,1,10,1,1068,2,S,0,right,0.5746271219977643,1,0,,,,,,,,,,,,,,,,,,,,,1,,,,,,,,,,,,,,,,,,,,,,,,,,,,,,,,,,,,,,,,,,,,,,109,153094,21,Female,1,2024/03/21_08:52:10,YZ,None,
,,,,,,test,1,10,1,1068,3,X,0,right,0.4517336120043183,1,0,,,,,,,,,,,,,,,,,,,,,1,,,,,,,,,,,,,,,,,,,,,,,,,,,,,,,,,,,,,,,,,,,,,,109,153094,21,Female,1,2024/03/21_08:52:10,YZ,None,
,,,,,,test,1,10,1,1068,4,V,0,right,0.5122771780006588,1,0,,,,,,,,,,,,,,,,,,,,,1,,,,,,,,,,,,,,,,,,,,,,,,,,,,,,,,,,,,,,,,,,,,,,109,153094,21,Female,1,2024/03/21_08:52:10,YZ,None,
,,,,,,test,1,10,1,1068,5,V,1,right,0.4060714880033629,0,0,,,,,,,,,,,,,,,,,,,,,1,,,,,,,,,,,,,,,,,,,,,,,,,,,,,,,,,,,,,,,,,,,,,,109,153094,21,Female,1,2024/03/21_08:52:10,YZ,None,
,,,,,,test,1,10,1,1068,6,Q,0,right,0.6653201860026456,1,0,,,,,,,,,,,,,,,,,,,,,1,,,,,,,,,,,,,,,,,,,,,,,,,,,,,,,,,,,,,,,,,,,,,,109,153094,21,Female,1,2024/03/21_08:52:10,YZ,None,
,,,,,,test,1,10,1,1068,7,Q,1,left,0.5906949960044585,1,0,,,,,,,,,,,,,,,,,,,,,1,,,,,,,,,,,,,,,,,,,,,,,,,,,,,,,,,,,,,,,,,,,,,,109,153094,21,Female,1,2024/03/21_08:52:10,YZ,None,
,,,,,,test,1,10,1,1068,8,X,0,right,0.5740694819978671,1,0,,,,,,,,,,,,,,,,,,,,,1,,,,,,,,,,,,,,,,,,,,,,,,,,,,,,,,,,,,,,,,,,,,,,109,153094,21,Female,1,2024/03/21_08:52:10,YZ,None,
,,,,,,test,1,10,1,1068,9,Q,0,left,0.6258289469988085,0,0,,,,,,,,,,,,,,,,,,,,,1,,,,,,,,,,,,,,,,,,,,,,,,,,,,,,,,,,,,,,,,,,,,,,109,153094,21,Female,1,2024/03/21_08:52:10,YZ,None,
,,,,,,test,1,10,1,1068,10,C,0,right,0.4768890740015195,1,0,,,,,,,,,,,,,,,,,,,,,1,,,,,,,,,,,,,,,,,,,,,,,,,,,,,,,,,,,,,,,,,,,,,,109,153094,21,Female,1,2024/03/21_08:52:10,YZ,None,
,,,,,,test,1,10,1,1068,11,C,1,right,0.49261385000136215,0,0,,,,,,,,,,,,,,,,,,,,,1,,,,,,,,,,,,,,,,,,,,,,,,,,,,,,,,,,,,,,,,,,,,,,109,153094,21,Female,1,2024/03/21_08:52:10,YZ,None,
,,,,,,Test,1,10,1,1068,,,,,,,,0.7083333333333334,0.3333333333333333,0.125,0.8571428571428571,0.09090909090909091,0.7840909090909091,0.5370125935012766,1,1,0,1,1,6,7,3,8,0,,,,1,,,,,,,,,,,,,,,,,,,,,,,,,,,,,,,,,,,,,,,,,,,,,,109,153094,21,Female,1,2024/03/21_08:52:10,YZ,None,
,,,,,240321_093612,TEST,1,10,1,1068,,,,,,,,,,,,,,,,,,,,,,,,,,,,1,10,12,10,cue1.png,easy,A,8,1.898292379999475,0,1663.8177448860006,1665.7417942280008,,,,,,,,,,,,,,,,,,,,,,,,,,,,,,,,,,,109,153094,21,Female,1,2024/03/21_08:52:10,YZ,None,
,,,,,,test,1,11,3,1068,1,V,0,None,nan,0,1,,,,,,,,,,,,,,,,,,,,,1,,,,,,,,,,,,,,,,,,,,,,,,,,,,,,,,,,,,,,,,,,,,,,109,153094,21,Female,1,2024/03/21_08:52:10,YZ,None,
,,,,,,test,1,11,3,1068,2,Q,0,None,nan,0,1,,,,,,,,,,,,,,,,,,,,,1,,,,,,,,,,,,,,,,,,,,,,,,,,,,,,,,,,,,,,,,,,,,,,109,153094,21,Female,1,2024/03/21_08:52:10,YZ,None,
,,,,,,test,1,11,3,1068,3,Q,0,None,nan,0,1,,,,,,,,,,,,,,,,,,,,,1,,,,,,,,,,,,,,,,,,,,,,,,,,,,,,,,,,,,,,,,,,,,,,109,153094,21,Female,1,2024/03/21_08:52:10,YZ,None,
,,,,,,test,1,11,3,1068,4,F,0,right,0.7743585050047841,1,0,,,,,,,,,,,,,,,,,,,,,1,,,,,,,,,,,,,,,,,,,,,,,,,,,,,,,,,,,,,,,,,,,,,,109,153094,21,Female,1,2024/03/21_08:52:10,YZ,None,
,,,,,,test,1,11,3,1068,5,F,0,right,nan,0,1,,,,,,,,,,,,,,,,,,,,,1,,,,,,,,,,,,,,,,,,,,,,,,,,,,,,,,,,,,,,,,,,,,,,109,153094,21,Female,1,2024/03/21_08:52:10,YZ,None,
,,,,,,test,1,11,3,1068,6,J,0,right,nan,0,1,,,,,,,,,,,,,,,,,,,,,1,,,,,,,,,,,,,,,,,,,,,,,,,,,,,,,,,,,,,,,,,,,,,,109,153094,21,Female,1,2024/03/21_08:52:10,YZ,None,
,,,,,,test,1,11,3,1068,7,F,1,right,nan,0,1,,,,,,,,,,,,,,,,,,,,,1,,,,,,,,,,,,,,,,,,,,,,,,,,,,,,,,,,,,,,,,,,,,,,109,153094,21,Female,1,2024/03/21_08:52:10,YZ,None,
,,,,,,test,1,11,3,1068,8,C,0,right,0.37996949800435686,1,0,,,,,,,,,,,,,,,,,,,,,1,,,,,,,,,,,,,,,,,,,,,,,,,,,,,,,,,,,,,,,,,,,,,,109,153094,21,Female,1,2024/03/21_08:52:10,YZ,None,
,,,,,,test,1,11,3,1068,9,J,1,right,nan,0,1,,,,,,,,,,,,,,,,,,,,,1,,,,,,,,,,,,,,,,,,,,,,,,,,,,,,,,,,,,,,,,,,,,,,109,153094,21,Female,1,2024/03/21_08:52:10,YZ,None,
,,,,,,test,1,11,3,1068,10,X,0,right,nan,0,1,,,,,,,,,,,,,,,,,,,,,1,,,,,,,,,,,,,,,,,,,,,,,,,,,,,,,,,,,,,,,,,,,,,,109,153094,21,Female,1,2024/03/21_08:52:10,YZ,None,
,,,,,,test,1,11,3,1068,11,C,1,right,nan,0,1,,,,,,,,,,,,,,,,,,,,,1,,,,,,,,,,,,,,,,,,,,,,,,,,,,,,,,,,,,,,,,,,,,,,109,153094,21,Female,1,2024/03/21_08:52:10,YZ,None,
,,,,,,Test,1,11,3,1068,,,,,,,,0.5,0.0,0.0,1.0,0.8181818181818182,0.18181818181818177,0.5771640015045705,0,0,3,6,9,2,2,3,8,0,,,,1,,,,,,,,,,,,,,,,,,,,,,,,,,,,,,,,,,,,,,,,,,,,,,109,153094,21,Female,1,2024/03/21_08:52:10,YZ,None,
,,,,,240321_093648,TEST,1,11,3,1068,,,,,,,,,,,,,,,,,,,,,,,,,,,,1,11,13,11,cue2.png,hard,A,7,2.088640283996938,0,1688.0188310459998,1690.1244568859984,,,,,,,,,,,,,,,,,,,,,,,,,,,,,,,,,,,109,153094,21,Female,1,2024/03/21_08:52:10,YZ,None,
,,,,,,test,1,12,1,1068,1,C,0,None,nan,0,1,,,,,,,,,,,,,,,,,,,,,1,,,,,,,,,,,,,,,,,,,,,,,,,,,,,,,,,,,,,,,,,,,,,,109,153094,21,Female,1,2024/03/21_08:52:10,YZ,None,
,,,,,,test,1,12,1,1068,2,C,1,None,nan,0,1,,,,,,,,,,,,,,,,,,,,,1,,,,,,,,,,,,,,,,,,,,,,,,,,,,,,,,,,,,,,,,,,,,,,109,153094,21,Female,1,2024/03/21_08:52:10,YZ,None,
,,,,,,test,1,12,1,1068,3,Q,0,right,0.6411893760014209,1,0,,,,,,,,,,,,,,,,,,,,,1,,,,,,,,,,,,,,,,,,,,,,,,,,,,,,,,,,,,,,,,,,,,,,109,153094,21,Female,1,2024/03/21_08:52:10,YZ,None,
,,,,,,test,1,12,1,1068,4,Q,1,left,0.5885219979973044,1,0,,,,,,,,,,,,,,,,,,,,,1,,,,,,,,,,,,,,,,,,,,,,,,,,,,,,,,,,,,,,,,,,,,,,109,153094,21,Female,1,2024/03/21_08:52:10,YZ,None,
,,,,,,test,1,12,1,1068,5,N,0,right,0.42532204399321927,1,0,,,,,,,,,,,,,,,,,,,,,1,,,,,,,,,,,,,,,,,,,,,,,,,,,,,,,,,,,,,,,,,,,,,,109,153094,21,Female,1,2024/03/21_08:52:10,YZ,None,
,,,,,,test,1,12,1,1068,6,N,1,left,0.4446508659966639,1,0,,,,,,,,,,,,,,,,,,,,,1,,,,,,,,,,,,,,,,,,,,,,,,,,,,,,,,,,,,,,,,,,,,,,109,153094,21,Female,1,2024/03/21_08:52:10,YZ,None,
,,,,,,test,1,12,1,1068,7,Q,0,right,0.913588734001678,1,0,,,,,,,,,,,,,,,,,,,,,1,,,,,,,,,,,,,,,,,,,,,,,,,,,,,,,,,,,,,,,,,,,,,,109,153094,21,Female,1,2024/03/21_08:52:10,YZ,None,
,,,,,,test,1,12,1,1068,8,N,0,left,0.7316416130051948,0,0,,,,,,,,,,,,,,,,,,,,,1,,,,,,,,,,,,,,,,,,,,,,,,,,,,,,,,,,,,,,,,,,,,,,109,153094,21,Female,1,2024/03/21_08:52:10,YZ,None,
,,,,,,test,1,12,1,1068,9,F,0,right,0.9577031290027662,1,0,,,,,,,,,,,,,,,,,,,,,1,,,,,,,,,,,,,,,,,,,,,,,,,,,,,,,,,,,,,,,,,,,,,,109,153094,21,Female,1,2024/03/21_08:52:10,YZ,None,
,,,,,,test,1,12,1,1068,10,Q,0,right,0.7469649069971638,1,0,,,,,,,,,,,,,,,,,,,,,1,,,,,,,,,,,,,,,,,,,,,,,,,,,,,,,,,,,,,,,,,,,,,,109,153094,21,Female,1,2024/03/21_08:52:10,YZ,None,
,,,,,,test,1,12,1,1068,11,C,0,right,0.5580455689996597,1,0,,,,,,,,,,,,,,,,,,,,,1,,,,,,,,,,,,,,,,,,,,,,,,,,,,,,,,,,,,,,,,,,,,,,109,153094,21,Female,1,2024/03/21_08:52:10,YZ,None,
,,,,,,Test,1,12,1,1068,,,,,,,,0.84375,0.6666666666666666,0.125,0.8571428571428571,0.18181818181818182,0.6931818181818181,0.6675142484438967,2,1,1,1,2,6,8,3,8,0,,,,1,,,,,,,,,,,,,,,,,,,,,,,,,,,,,,,,,,,,,,,,,,,,,,109,153094,21,Female,1,2024/03/21_08:52:10,YZ,None,
