Instruction,Stimulus,Key,RT,START,END,Phase,Block,TrialN,NbackLevel,ISI,LetterN,Letter,Letter_isSame,Letter_Resp,Letter_RT,Letter_Accuracy,Letter_Timeout,Trial_A_measure,Trial_HR,Trial_FAR,Trial_CDR,Trial_MSR,Trial_ACC,Trial_RT,Trial_HitsCount,Trial_FAsCount,Trial_SameNoRespCount,Trial_DiffNoRespCount,Trial_NoRespCount,Trial_CDsCount,Trial_CorrectRespCount,Trial_SameLetterCount,Trial_DiffLetterCount,Trial_InvalidLetterCount,TrialCountCali,CaliEnd_A_measure,ISI_calibrated,Run,TrialIndex,TrialNumber_total,TrialNumber_valid,CueLearning,TrialDemandLearning,CueMapping,OnlineRating,OnlineRatingRT,OnlineRatingTimeOut,CueSTART,RatingSTART,OfflineRatingTimePoint,OfflineRatingQuesIndex,CueFigure,TrialDemand,OfflineRating,OfflineRatingRT,CueStart,OfflineRatingStart,PhaseType,CueLeft,CueDemandLeft,CueRight,CueDemandRight,Choice,ChoiceDemand,TaskDemand,ChoiceRT,ChoiceTimeOut,ChoiceSTART,CueCheck,CueDemandCheck,CorrectAnswer,Answer,AnswerDemand,AnswerRT,AnswerACC,AnswerTimeOut,CheckSTART,DemandRatingQuesIndex,QuesTLX,DemandLevel,DemandRating,DemandRatingRT,QuesStart,PID,SONA,Age,Gender,Run,TIME,EXPERIMENTER,frameRate,
1,./instructions/inst_begin/Slide2.png,right,26.577075655994122,0.200719589003711,26.777795244997833,,,,,,,,,,,,,,,,,,,,,,,,,,,,,,,,,1,,,,,,,,,,,,,,,,,,,,,,,,,,,,,,,,,,,,,,,,,,,,,,86,146917,21,Female,1,2024/03/13_12:27:20,YZ,None,
2,./instructions/inst_begin/Slide3.png,right,10.07164339699375,26.817920460001915,36.889563856995665,,,,,,,,,,,,,,,,,,,,,,,,,,,,,,,,,1,,,,,,,,,,,,,,,,,,,,,,,,,,,,,,,,,,,,,,,,,,,,,,86,146917,21,Female,1,2024/03/13_12:27:20,YZ,None,
3,./instructions/inst_begin/Slide4.png,right,7.381098722995375,36.94064608500048,44.321744807995856,,,,,,,,,,,,,,,,,,,,,,,,,,,,,,,,,1,,,,,,,,,,,,,,,,,,,,,,,,,,,,,,,,,,,,,,,,,,,,,,86,146917,21,Female,1,2024/03/13_12:27:20,YZ,None,
1,./instructions/inst_prac_2/Slide6.png,right,17.616386706999037,44.361267111002235,61.97765381800127,,,,,,,,,,,,,,,,,,,,,,,,,,,,,,,,,1,,,,,,,,,,,,,,,,,,,,,,,,,,,,,,,,,,,,,,,,,,,,,,86,146917,21,Female,1,2024/03/13_12:27:20,YZ,None,
2,./instructions/inst_prac_2/Slide7.png,right,12.881220249008038,62.0087165379955,74.88993678700353,,,,,,,,,,,,,,,,,,,,,,,,,,,,,,,,,1,,,,,,,,,,,,,,,,,,,,,,,,,,,,,,,,,,,,,,,,,,,,,,86,146917,21,Female,1,2024/03/13_12:27:20,YZ,None,
3,./instructions/inst_prac_2/Slide8.png,right,17.55598825700872,74.93387776099553,92.48986601800425,,,,,,,,,,,,,,,,,,,,,,,,,,,,,,,,,1,,,,,,,,,,,,,,,,,,,,,,,,,,,,,,,,,,,,,,,,,,,,,,86,146917,21,Female,1,2024/03/13_12:27:20,YZ,None,
4,./instructions/inst_prac_2/Slide9.png,right,0.20047029299894348,92.51851196000644,92.71898225300538,,,,,,,,,,,,,,,,,,,,,,,,,,,,,,,,,1,,,,,,,,,,,,,,,,,,,,,,,,,,,,,,,,,,,,,,,,,,,,,,86,146917,21,Female,1,2024/03/13_12:27:20,YZ,None,
5,./instructions/inst_prac_2/Slide10.png,right,8.740371175008477,92.75731351699505,101.49768469200353,,,,,,,,,,,,,,,,,,,,,,,,,,,,,,,,,1,,,,,,,,,,,,,,,,,,,,,,,,,,,,,,,,,,,,,,,,,,,,,,86,146917,21,Female,1,2024/03/13_12:27:20,YZ,None,
6,./instructions/inst_prac_2/Slide11.png,right,2.444472567003686,101.54139333800413,103.98586590500781,,,,,,,,,,,,,,,,,,,,,,,,,,,,,,,,,1,,,,,,,,,,,,,,,,,,,,,,,,,,,,,,,,,,,,,,,,,,,,,,86,146917,21,Female,1,2024/03/13_12:27:20,YZ,None,
7,./instructions/inst_prac_2/Slide12.png,right,1.4732005420082714,104.01669609799865,105.48989664000692,,,,,,,,,,,,,,,,,,,,,,,,,,,,,,,,,1,,,,,,,,,,,,,,,,,,,,,,,,,,,,,,,,,,,,,,,,,,,,,,86,146917,21,Female,1,2024/03/13_12:27:20,YZ,None,
8,./instructions/inst_prac_2/Slide13.png,right,2.241923895999207,105.51979060500162,107.76171450100082,,,,,,,,,,,,,,,,,,,,,,,,,,,,,,,,,1,,,,,,,,,,,,,,,,,,,,,,,,,,,,,,,,,,,,,,,,,,,,,,86,146917,21,Female,1,2024/03/13_12:27:20,YZ,None,
9,./instructions/inst_prac_2/Slide14.png,right,10.441135364002548,107.792805021003,118.23394038500555,,,,,,,,,,,,,,,,,,,,,,,,,,,,,,,,,1,,,,,,,,,,,,,,,,,,,,,,,,,,,,,,,,,,,,,,,,,,,,,,86,146917,21,Female,1,2024/03/13_12:27:20,YZ,None,
10,./instructions/inst_prac_2/Slide15.png,right,28.81754001400259,118.26436765800463,147.08190767200722,,,,,,,,,,,,,,,,,,,,,,,,,,,,,,,,,1,,,,,,,,,,,,,,,,,,,,,,,,,,,,,,,,,,,,,,,,,,,,,,86,146917,21,Female,1,2024/03/13_12:27:20,YZ,None,
,,,,,,practice,0,23,2,2583,1,S,0,right,4.961476538999705,1,0,,,,,,,,,,,,,,,,,,,,,1,,,,,,,,,,,,,,,,,,,,,,,,,,,,,,,,,,,,,,,,,,,,,,86,146917,21,Female,1,2024/03/13_12:27:20,YZ,None,
,,,,,,practice,0,23,2,2583,2,J,0,right,0.9249732589960331,1,0,,,,,,,,,,,,,,,,,,,,,1,,,,,,,,,,,,,,,,,,,,,,,,,,,,,,,,,,,,,,,,,,,,,,86,146917,21,Female,1,2024/03/13_12:27:20,YZ,None,
,,,,,,practice,0,23,2,2583,3,S,1,left,0.564813603006769,1,0,,,,,,,,,,,,,,,,,,,,,1,,,,,,,,,,,,,,,,,,,,,,,,,,,,,,,,,,,,,,,,,,,,,,86,146917,21,Female,1,2024/03/13_12:27:20,YZ,None,
,,,,,,practice,0,23,2,2583,4,X,0,right,1.1008944130007876,1,0,,,,,,,,,,,,,,,,,,,,,1,,,,,,,,,,,,,,,,,,,,,,,,,,,,,,,,,,,,,,,,,,,,,,86,146917,21,Female,1,2024/03/13_12:27:20,YZ,None,
,,,,,,practice,0,23,2,2583,5,Q,0,right,0.8876863879995653,1,0,,,,,,,,,,,,,,,,,,,,,1,,,,,,,,,,,,,,,,,,,,,,,,,,,,,,,,,,,,,,,,,,,,,,86,146917,21,Female,1,2024/03/13_12:27:20,YZ,None,
,,,,,,practice,0,23,2,2583,6,X,1,left,0.5802834279893432,1,0,,,,,,,,,,,,,,,,,,,,,1,,,,,,,,,,,,,,,,,,,,,,,,,,,,,,,,,,,,,,,,,,,,,,86,146917,21,Female,1,2024/03/13_12:27:20,YZ,None,
,,,,,,practice,0,23,2,2583,,,,,,,,1.0,1.0,0.0,1.0,0.0,1.0,1.5033546049987005,2,0,0,0,0,4,6,2,4,0,,,,1,,,,,,,,,,,,,,,,,,,,,,,,,,,,,,,,,,,,,,,,,,,,,,86,146917,21,Female,1,2024/03/13_12:27:20,YZ,None,
1,./instructions/inst_to_cali/Slide20.png,right,6.148348686998361,162.46932474100322,168.61767342800158,,,,,,,,,,,,,,,,,,,,,,,,,,,,,,,,,1,,,,,,,,,,,,,,,,,,,,,,,,,,,,,,,,,,,,,,,,,,,,,,86,146917,21,Female,1,2024/03/13_12:27:20,YZ,None,
1,./instructions/inst_cali/Slide22.png,right,21.84012020099908,168.65780939999968,190.49792960099876,,,,,,,,,,,,,,,,,,,,,,,,,,,,,,,,,1,,,,,,,,,,,,,,,,,,,,,,,,,,,,,,,,,,,,,,,,,,,,,,86,146917,21,Female,1,2024/03/13_12:27:20,YZ,None,
,,,,,,calibration,0,6,2,583,1,J,0,right,0.5572744980017887,1,0,,,,,,,,,,,,,,,,,,,,,1,,,,,,,,,,,,,,,,,,,,,,,,,,,,,,,,,,,,,,,,,,,,,,86,146917,21,Female,1,2024/03/13_12:27:20,YZ,None,
,,,,,,calibration,0,6,2,583,2,S,0,right,1.4378393579972908,1,0,,,,,,,,,,,,,,,,,,,,,1,,,,,,,,,,,,,,,,,,,,,,,,,,,,,,,,,,,,,,,,,,,,,,86,146917,21,Female,1,2024/03/13_12:27:20,YZ,None,
,,,,,,calibration,0,6,2,583,3,C,0,right,0.8452568339998834,1,0,,,,,,,,,,,,,,,,,,,,,1,,,,,,,,,,,,,,,,,,,,,,,,,,,,,,,,,,,,,,,,,,,,,,86,146917,21,Female,1,2024/03/13_12:27:20,YZ,None,
,,,,,,calibration,0,6,2,583,4,J,0,left,0.433267523010727,0,0,,,,,,,,,,,,,,,,,,,,,1,,,,,,,,,,,,,,,,,,,,,,,,,,,,,,,,,,,,,,,,,,,,,,86,146917,21,Female,1,2024/03/13_12:27:20,YZ,None,
,,,,,,calibration,0,6,2,583,5,N,0,right,0.5311984040017705,1,0,,,,,,,,,,,,,,,,,,,,,1,,,,,,,,,,,,,,,,,,,,,,,,,,,,,,,,,,,,,,,,,,,,,,86,146917,21,Female,1,2024/03/13_12:27:20,YZ,None,
,,,,,,calibration,0,6,2,583,6,J,1,right,0.9117618379968917,0,0,,,,,,,,,,,,,,,,,,,,,1,,,,,,,,,,,,,,,,,,,,,,,,,,,,,,,,,,,,,,,,,,,,,,86,146917,21,Female,1,2024/03/13_12:27:20,YZ,None,
,,,,,,calibration,0,6,2,583,7,N,1,left,0.7092026290047215,1,0,,,,,,,,,,,,,,,,,,,,,1,,,,,,,,,,,,,,,,,,,,,,,,,,,,,,,,,,,,,,,,,,,,,,86,146917,21,Female,1,2024/03/13_12:27:20,YZ,None,
,,,,,,calibration,0,6,2,583,8,V,0,right,0.5180305790127022,1,0,,,,,,,,,,,,,,,,,,,,,1,,,,,,,,,,,,,,,,,,,,,,,,,,,,,,,,,,,,,,,,,,,,,,86,146917,21,Female,1,2024/03/13_12:27:20,YZ,None,
,,,,,,calibration,0,6,2,583,9,N,1,right,0.6401282209990313,0,0,,,,,,,,,,,,,,,,,,,,,1,,,,,,,,,,,,,,,,,,,,,,,,,,,,,,,,,,,,,,,,,,,,,,86,146917,21,Female,1,2024/03/13_12:27:20,YZ,None,
,,,,,,calibration,0,6,2,583,10,F,0,right,0.5197775650012773,1,0,,,,,,,,,,,,,,,,,,,,,1,,,,,,,,,,,,,,,,,,,,,,,,,,,,,,,,,,,,,,,,,,,,,,86,146917,21,Female,1,2024/03/13_12:27:20,YZ,None,
,,,,,,calibration,0,6,2,583,11,X,0,right,0.38988039999094326,1,0,,,,,,,,,,,,,,,,,,,,,1,,,,,,,,,,,,,,,,,,,,,,,,,,,,,,,,,,,,,,,,,,,,,,86,146917,21,Female,1,2024/03/13_12:27:20,YZ,None,
,,,,,,calibration,0,6,2,583,12,J,0,left,0.42349341299268417,0,0,,,,,,,,,,,,,,,,,,,,,1,,,,,,,,,,,,,,,,,,,,,,,,,,,,,,,,,,,,,,,,,,,,,,86,146917,21,Female,1,2024/03/13_12:27:20,YZ,None,
,,,,,,calibration,0,6,2,583,13,X,1,right,0.3035090159974061,0,0,,,,,,,,,,,,,,,,,,,,,1,,,,,,,,,,,,,,,,,,,,,,,,,,,,,,,,,,,,,,,,,,,,,,86,146917,21,Female,1,2024/03/13_12:27:20,YZ,None,
,,,,,,calibration,0,6,2,583,14,J,1,left,0.6266688220057404,1,0,,,,,,,,,,,,,,,,,,,,,1,,,,,,,,,,,,,,,,,,,,,,,,,,,,,,,,,,,,,,,,,,,,,,86,146917,21,Female,1,2024/03/13_12:27:20,YZ,None,
,,,,,,calibration,0,6,2,583,15,Q,0,right,0.4747156900120899,1,0,,,,,,,,,,,,,,,,,,,,,1,,,,,,,,,,,,,,,,,,,,,,,,,,,,,,,,,,,,,,,,,,,,,,86,146917,21,Female,1,2024/03/13_12:27:20,YZ,None,
,,,,,,calibration,0,6,2,583,,,,,,,,0.675,0.4,0.2,0.8,0.0,0.8,0.6214669860016632,2,2,0,0,0,8,10,5,10,0,,,,1,,,,,,,,,,,,,,,,,,,,,,,,,,,,,,,,,,,,,,,,,,,,,,86,146917,21,Female,1,2024/03/13_12:27:20,YZ,None,
,,,,,,Calibration,0,,2,583,,,,,,,,,,,,,,,,,,,,,,,,,1,,,1,,,,,,,,,,,,,,,,,,,,,,,,,,,,,,,,,,,,,,,,,,,,,,86,146917,21,Female,1,2024/03/13_12:27:20,YZ,None,
,,,,,,calibration,0,13,2,679,1,N,0,right,0.5529123750020517,1,0,,,,,,,,,,,,,,,,,,,,,1,,,,,,,,,,,,,,,,,,,,,,,,,,,,,,,,,,,,,,,,,,,,,,86,146917,21,Female,1,2024/03/13_12:27:20,YZ,None,
,,,,,,calibration,0,13,2,679,2,Q,0,right,1.2413298439932987,1,0,,,,,,,,,,,,,,,,,,,,,1,,,,,,,,,,,,,,,,,,,,,,,,,,,,,,,,,,,,,,,,,,,,,,86,146917,21,Female,1,2024/03/13_12:27:20,YZ,None,
,,,,,,calibration,0,13,2,679,3,N,1,left,0.5295962209929712,1,0,,,,,,,,,,,,,,,,,,,,,1,,,,,,,,,,,,,,,,,,,,,,,,,,,,,,,,,,,,,,,,,,,,,,86,146917,21,Female,1,2024/03/13_12:27:20,YZ,None,
,,,,,,calibration,0,13,2,679,4,Q,1,right,0.675037560009514,0,0,,,,,,,,,,,,,,,,,,,,,1,,,,,,,,,,,,,,,,,,,,,,,,,,,,,,,,,,,,,,,,,,,,,,86,146917,21,Female,1,2024/03/13_12:27:20,YZ,None,
,,,,,,calibration,0,13,2,679,5,S,0,left,0.37130358201102354,0,0,,,,,,,,,,,,,,,,,,,,,1,,,,,,,,,,,,,,,,,,,,,,,,,,,,,,,,,,,,,,,,,,,,,,86,146917,21,Female,1,2024/03/13_12:27:20,YZ,None,
,,,,,,calibration,0,13,2,679,6,Q,1,right,0.523839355999371,0,0,,,,,,,,,,,,,,,,,,,,,1,,,,,,,,,,,,,,,,,,,,,,,,,,,,,,,,,,,,,,,,,,,,,,86,146917,21,Female,1,2024/03/13_12:27:20,YZ,None,
,,,,,,calibration,0,13,2,679,7,V,0,right,0.912055587003124,1,0,,,,,,,,,,,,,,,,,,,,,1,,,,,,,,,,,,,,,,,,,,,,,,,,,,,,,,,,,,,,,,,,,,,,86,146917,21,Female,1,2024/03/13_12:27:20,YZ,None,
,,,,,,calibration,0,13,2,679,8,J,0,right,1.4321275270049227,1,0,,,,,,,,,,,,,,,,,,,,,1,,,,,,,,,,,,,,,,,,,,,,,,,,,,,,,,,,,,,,,,,,,,,,86,146917,21,Female,1,2024/03/13_12:27:20,YZ,None,
,,,,,,calibration,0,13,2,679,9,X,0,right,0.7411219220084604,1,0,,,,,,,,,,,,,,,,,,,,,1,,,,,,,,,,,,,,,,,,,,,,,,,,,,,,,,,,,,,,,,,,,,,,86,146917,21,Female,1,2024/03/13_12:27:20,YZ,None,
,,,,,,calibration,0,13,2,679,10,F,0,right,0.6732139119994827,1,0,,,,,,,,,,,,,,,,,,,,,1,,,,,,,,,,,,,,,,,,,,,,,,,,,,,,,,,,,,,,,,,,,,,,86,146917,21,Female,1,2024/03/13_12:27:20,YZ,None,
,,,,,,calibration,0,13,2,679,11,C,0,right,0.46135115801007487,1,0,,,,,,,,,,,,,,,,,,,,,1,,,,,,,,,,,,,,,,,,,,,,,,,,,,,,,,,,,,,,,,,,,,,,86,146917,21,Female,1,2024/03/13_12:27:20,YZ,None,
,,,,,,calibration,0,13,2,679,12,F,1,right,0.6288697629934177,0,0,,,,,,,,,,,,,,,,,,,,,1,,,,,,,,,,,,,,,,,,,,,,,,,,,,,,,,,,,,,,,,,,,,,,86,146917,21,Female,1,2024/03/13_12:27:20,YZ,None,
,,,,,,calibration,0,13,2,679,13,N,0,right,0.6755015850067139,1,0,,,,,,,,,,,,,,,,,,,,,1,,,,,,,,,,,,,,,,,,,,,,,,,,,,,,,,,,,,,,,,,,,,,,86,146917,21,Female,1,2024/03/13_12:27:20,YZ,None,
,,,,,,calibration,0,13,2,679,14,X,0,left,0.7244207059993641,0,0,,,,,,,,,,,,,,,,,,,,,1,,,,,,,,,,,,,,,,,,,,,,,,,,,,,,,,,,,,,,,,,,,,,,86,146917,21,Female,1,2024/03/13_12:27:20,YZ,None,
,,,,,,calibration,0,13,2,679,,,,,,,,0.5625,0.25,0.2,0.8,0.0,0.8,0.7244772212881279,1,2,0,0,0,8,9,4,10,0,,,,1,,,,,,,,,,,,,,,,,,,,,,,,,,,,,,,,,,,,,,,,,,,,,,86,146917,21,Female,1,2024/03/13_12:27:20,YZ,None,
,,,,,,Calibration,0,,2,679,,,,,,,,,,,,,,,,,,,,,,,,,2,,,1,,,,,,,,,,,,,,,,,,,,,,,,,,,,,,,,,,,,,,,,,,,,,,86,146917,21,Female,1,2024/03/13_12:27:20,YZ,None,
,,,,,,calibration,0,14,2,788,1,V,0,right,0.6268549999949755,1,0,,,,,,,,,,,,,,,,,,,,,1,,,,,,,,,,,,,,,,,,,,,,,,,,,,,,,,,,,,,,,,,,,,,,86,146917,21,Female,1,2024/03/13_12:27:20,YZ,None,
,,,,,,calibration,0,14,2,788,2,V,0,right,0.4909035099990433,1,0,,,,,,,,,,,,,,,,,,,,,1,,,,,,,,,,,,,,,,,,,,,,,,,,,,,,,,,,,,,,,,,,,,,,86,146917,21,Female,1,2024/03/13_12:27:20,YZ,None,
,,,,,,calibration,0,14,2,788,3,J,0,right,0.5121434600005159,1,0,,,,,,,,,,,,,,,,,,,,,1,,,,,,,,,,,,,,,,,,,,,,,,,,,,,,,,,,,,,,,,,,,,,,86,146917,21,Female,1,2024/03/13_12:27:20,YZ,None,
,,,,,,calibration,0,14,2,788,4,V,1,left,0.6988728529977379,1,0,,,,,,,,,,,,,,,,,,,,,1,,,,,,,,,,,,,,,,,,,,,,,,,,,,,,,,,,,,,,,,,,,,,,86,146917,21,Female,1,2024/03/13_12:27:20,YZ,None,
,,,,,,calibration,0,14,2,788,5,N,0,right,0.406540830997983,1,0,,,,,,,,,,,,,,,,,,,,,1,,,,,,,,,,,,,,,,,,,,,,,,,,,,,,,,,,,,,,,,,,,,,,86,146917,21,Female,1,2024/03/13_12:27:20,YZ,None,
,,,,,,calibration,0,14,2,788,6,F,0,right,0.6587044240004616,1,0,,,,,,,,,,,,,,,,,,,,,1,,,,,,,,,,,,,,,,,,,,,,,,,,,,,,,,,,,,,,,,,,,,,,86,146917,21,Female,1,2024/03/13_12:27:20,YZ,None,
,,,,,,calibration,0,14,2,788,7,C,0,right,0.7366535199980717,1,0,,,,,,,,,,,,,,,,,,,,,1,,,,,,,,,,,,,,,,,,,,,,,,,,,,,,,,,,,,,,,,,,,,,,86,146917,21,Female,1,2024/03/13_12:27:20,YZ,None,
,,,,,,calibration,0,14,2,788,8,S,0,right,0.41916348598897457,1,0,,,,,,,,,,,,,,,,,,,,,1,,,,,,,,,,,,,,,,,,,,,,,,,,,,,,,,,,,,,,,,,,,,,,86,146917,21,Female,1,2024/03/13_12:27:20,YZ,None,
,,,,,,calibration,0,14,2,788,9,C,1,left,0.36790386600478087,1,0,,,,,,,,,,,,,,,,,,,,,1,,,,,,,,,,,,,,,,,,,,,,,,,,,,,,,,,,,,,,,,,,,,,,86,146917,21,Female,1,2024/03/13_12:27:20,YZ,None,
,,,,,,calibration,0,14,2,788,10,V,0,right,0.36057975600124337,1,0,,,,,,,,,,,,,,,,,,,,,1,,,,,,,,,,,,,,,,,,,,,,,,,,,,,,,,,,,,,,,,,,,,,,86,146917,21,Female,1,2024/03/13_12:27:20,YZ,None,
,,,,,,calibration,0,14,2,788,11,X,0,right,0.5429570699925534,1,0,,,,,,,,,,,,,,,,,,,,,1,,,,,,,,,,,,,,,,,,,,,,,,,,,,,,,,,,,,,,,,,,,,,,86,146917,21,Female,1,2024/03/13_12:27:20,YZ,None,
,,,,,,calibration,0,14,2,788,12,V,1,left,0.594717847998254,1,0,,,,,,,,,,,,,,,,,,,,,1,,,,,,,,,,,,,,,,,,,,,,,,,,,,,,,,,,,,,,,,,,,,,,86,146917,21,Female,1,2024/03/13_12:27:20,YZ,None,
,,,,,,calibration,0,14,2,788,13,X,1,right,0.5420388570055366,0,0,,,,,,,,,,,,,,,,,,,,,1,,,,,,,,,,,,,,,,,,,,,,,,,,,,,,,,,,,,,,,,,,,,,,86,146917,21,Female,1,2024/03/13_12:27:20,YZ,None,
,,,,,,calibration,0,14,2,788,,,,,,,,0.9375,0.75,0.0,1.0,0.0,1.0,0.5352334216138563,3,0,0,0,0,9,12,4,9,0,,,,1,,,,,,,,,,,,,,,,,,,,,,,,,,,,,,,,,,,,,,,,,,,,,,86,146917,21,Female,1,2024/03/13_12:27:20,YZ,None,
,,,,,,Calibration,0,,2,788,,,,,,,,,,,,,,,,,,,,,,,,,3,,,1,,,,,,,,,,,,,,,,,,,,,,,,,,,,,,,,,,,,,,,,,,,,,,86,146917,21,Female,1,2024/03/13_12:27:20,YZ,None,
,,,,,,calibration,0,3,2,679,1,S,0,right,0.5235037439997541,1,0,,,,,,,,,,,,,,,,,,,,,1,,,,,,,,,,,,,,,,,,,,,,,,,,,,,,,,,,,,,,,,,,,,,,86,146917,21,Female,1,2024/03/13_12:27:20,YZ,None,
,,,,,,calibration,0,3,2,679,2,S,0,right,0.5881658420112217,1,0,,,,,,,,,,,,,,,,,,,,,1,,,,,,,,,,,,,,,,,,,,,,,,,,,,,,,,,,,,,,,,,,,,,,86,146917,21,Female,1,2024/03/13_12:27:20,YZ,None,
,,,,,,calibration,0,3,2,679,3,X,0,right,0.5811908180039609,1,0,,,,,,,,,,,,,,,,,,,,,1,,,,,,,,,,,,,,,,,,,,,,,,,,,,,,,,,,,,,,,,,,,,,,86,146917,21,Female,1,2024/03/13_12:27:20,YZ,None,
,,,,,,calibration,0,3,2,679,4,C,0,right,0.4756686199980322,1,0,,,,,,,,,,,,,,,,,,,,,1,,,,,,,,,,,,,,,,,,,,,,,,,,,,,,,,,,,,,,,,,,,,,,86,146917,21,Female,1,2024/03/13_12:27:20,YZ,None,
,,,,,,calibration,0,3,2,679,5,N,0,right,0.44440924499940593,1,0,,,,,,,,,,,,,,,,,,,,,1,,,,,,,,,,,,,,,,,,,,,,,,,,,,,,,,,,,,,,,,,,,,,,86,146917,21,Female,1,2024/03/13_12:27:20,YZ,None,
,,,,,,calibration,0,3,2,679,6,F,0,right,0.44361790901166387,1,0,,,,,,,,,,,,,,,,,,,,,1,,,,,,,,,,,,,,,,,,,,,,,,,,,,,,,,,,,,,,,,,,,,,,86,146917,21,Female,1,2024/03/13_12:27:20,YZ,None,
,,,,,,calibration,0,3,2,679,7,S,0,left,0.5242982009949628,0,0,,,,,,,,,,,,,,,,,,,,,1,,,,,,,,,,,,,,,,,,,,,,,,,,,,,,,,,,,,,,,,,,,,,,86,146917,21,Female,1,2024/03/13_12:27:20,YZ,None,
,,,,,,calibration,0,3,2,679,8,F,1,left,0.573165624999092,1,0,,,,,,,,,,,,,,,,,,,,,1,,,,,,,,,,,,,,,,,,,,,,,,,,,,,,,,,,,,,,,,,,,,,,86,146917,21,Female,1,2024/03/13_12:27:20,YZ,None,
,,,,,,calibration,0,3,2,679,9,V,0,right,0.5122691630094778,1,0,,,,,,,,,,,,,,,,,,,,,1,,,,,,,,,,,,,,,,,,,,,,,,,,,,,,,,,,,,,,,,,,,,,,86,146917,21,Female,1,2024/03/13_12:27:20,YZ,None,
,,,,,,calibration,0,3,2,679,10,F,1,left,0.4913848889991641,1,0,,,,,,,,,,,,,,,,,,,,,1,,,,,,,,,,,,,,,,,,,,,,,,,,,,,,,,,,,,,,,,,,,,,,86,146917,21,Female,1,2024/03/13_12:27:20,YZ,None,
,,,,,,calibration,0,3,2,679,11,X,0,right,0.6585840449988609,1,0,,,,,,,,,,,,,,,,,,,,,1,,,,,,,,,,,,,,,,,,,,,,,,,,,,,,,,,,,,,,,,,,,,,,86,146917,21,Female,1,2024/03/13_12:27:20,YZ,None,
,,,,,,calibration,0,3,2,679,12,N,0,right,0.4064000319922343,1,0,,,,,,,,,,,,,,,,,,,,,1,,,,,,,,,,,,,,,,,,,,,,,,,,,,,,,,,,,,,,,,,,,,,,86,146917,21,Female,1,2024/03/13_12:27:20,YZ,None,
,,,,,,calibration,0,3,2,679,13,X,1,left,0.5238620939926477,1,0,,,,,,,,,,,,,,,,,,,,,1,,,,,,,,,,,,,,,,,,,,,,,,,,,,,,,,,,,,,,,,,,,,,,86,146917,21,Female,1,2024/03/13_12:27:20,YZ,None,
,,,,,,calibration,0,3,2,679,14,N,1,right,0.48602339401259087,0,0,,,,,,,,,,,,,,,,,,,,,1,,,,,,,,,,,,,,,,,,,,,,,,,,,,,,,,,,,,,,,,,,,,,,86,146917,21,Female,1,2024/03/13_12:27:20,YZ,None,
,,,,,,calibration,0,3,2,679,,,,,,,,0.8875,0.75,0.1,0.9,0.0,0.9,0.5166102586445049,3,1,0,0,0,9,12,4,10,0,,,,1,,,,,,,,,,,,,,,,,,,,,,,,,,,,,,,,,,,,,,,,,,,,,,86,146917,21,Female,1,2024/03/13_12:27:20,YZ,None,
,,,,,,Calibration,0,,2,679,,,,,,,,,,,,,,,,,,,,,,,,,4,,,1,,,,,,,,,,,,,,,,,,,,,,,,,,,,,,,,,,,,,,,,,,,,,,86,146917,21,Female,1,2024/03/13_12:27:20,YZ,None,
,,,,,,calibration,0,12,2,583,1,F,0,right,0.4226410359988222,1,0,,,,,,,,,,,,,,,,,,,,,1,,,,,,,,,,,,,,,,,,,,,,,,,,,,,,,,,,,,,,,,,,,,,,86,146917,21,Female,1,2024/03/13_12:27:20,YZ,None,
,,,,,,calibration,0,12,2,583,2,X,0,right,0.5126207460125443,1,0,,,,,,,,,,,,,,,,,,,,,1,,,,,,,,,,,,,,,,,,,,,,,,,,,,,,,,,,,,,,,,,,,,,,86,146917,21,Female,1,2024/03/13_12:27:20,YZ,None,
,,,,,,calibration,0,12,2,583,3,F,1,left,0.4028857099910965,1,0,,,,,,,,,,,,,,,,,,,,,1,,,,,,,,,,,,,,,,,,,,,,,,,,,,,,,,,,,,,,,,,,,,,,86,146917,21,Female,1,2024/03/13_12:27:20,YZ,None,
,,,,,,calibration,0,12,2,583,4,X,1,left,0.5392456600093283,1,0,,,,,,,,,,,,,,,,,,,,,1,,,,,,,,,,,,,,,,,,,,,,,,,,,,,,,,,,,,,,,,,,,,,,86,146917,21,Female,1,2024/03/13_12:27:20,YZ,None,
,,,,,,calibration,0,12,2,583,5,S,0,left,0.4529713049996644,0,0,,,,,,,,,,,,,,,,,,,,,1,,,,,,,,,,,,,,,,,,,,,,,,,,,,,,,,,,,,,,,,,,,,,,86,146917,21,Female,1,2024/03/13_12:27:20,YZ,None,
,,,,,,calibration,0,12,2,583,6,X,1,right,0.3682196260051569,0,0,,,,,,,,,,,,,,,,,,,,,1,,,,,,,,,,,,,,,,,,,,,,,,,,,,,,,,,,,,,,,,,,,,,,86,146917,21,Female,1,2024/03/13_12:27:20,YZ,None,
,,,,,,calibration,0,12,2,583,7,V,0,right,0.600141832997906,1,0,,,,,,,,,,,,,,,,,,,,,1,,,,,,,,,,,,,,,,,,,,,,,,,,,,,,,,,,,,,,,,,,,,,,86,146917,21,Female,1,2024/03/13_12:27:20,YZ,None,
,,,,,,calibration,0,12,2,583,8,X,1,right,0.6118468859931454,0,0,,,,,,,,,,,,,,,,,,,,,1,,,,,,,,,,,,,,,,,,,,,,,,,,,,,,,,,,,,,,,,,,,,,,86,146917,21,Female,1,2024/03/13_12:27:20,YZ,None,
,,,,,,calibration,0,12,2,583,9,S,0,left,0.6133970319933724,0,0,,,,,,,,,,,,,,,,,,,,,1,,,,,,,,,,,,,,,,,,,,,,,,,,,,,,,,,,,,,,,,,,,,,,86,146917,21,Female,1,2024/03/13_12:27:20,YZ,None,
,,,,,,calibration,0,12,2,583,10,C,0,right,0.48596019799879286,1,0,,,,,,,,,,,,,,,,,,,,,1,,,,,,,,,,,,,,,,,,,,,,,,,,,,,,,,,,,,,,,,,,,,,,86,146917,21,Female,1,2024/03/13_12:27:20,YZ,None,
,,,,,,calibration,0,12,2,583,11,S,1,right,0.4636663870041957,0,0,,,,,,,,,,,,,,,,,,,,,1,,,,,,,,,,,,,,,,,,,,,,,,,,,,,,,,,,,,,,,,,,,,,,86,146917,21,Female,1,2024/03/13_12:27:20,YZ,None,
,,,,,,calibration,0,12,2,583,12,N,0,right,0.38033239300420973,1,0,,,,,,,,,,,,,,,,,,,,,1,,,,,,,,,,,,,,,,,,,,,,,,,,,,,,,,,,,,,,,,,,,,,,86,146917,21,Female,1,2024/03/13_12:27:20,YZ,None,
,,,,,,calibration,0,12,2,583,13,X,0,right,0.33231495501240715,1,0,,,,,,,,,,,,,,,,,,,,,1,,,,,,,,,,,,,,,,,,,,,,,,,,,,,,,,,,,,,,,,,,,,,,86,146917,21,Female,1,2024/03/13_12:27:20,YZ,None,
,,,,,,calibration,0,12,2,583,14,Q,0,right,0.46288809899124317,1,0,,,,,,,,,,,,,,,,,,,,,1,,,,,,,,,,,,,,,,,,,,,,,,,,,,,,,,,,,,,,,,,,,,,,86,146917,21,Female,1,2024/03/13_12:27:20,YZ,None,
,,,,,,calibration,0,12,2,583,15,V,0,right,0.39639615699707065,1,0,,,,,,,,,,,,,,,,,,,,,1,,,,,,,,,,,,,,,,,,,,,,,,,,,,,,,,,,,,,,,,,,,,,,86,146917,21,Female,1,2024/03/13_12:27:20,YZ,None,
,,,,,,calibration,0,12,2,583,,,,,,,,0.675,0.4,0.2,0.8,0.0,0.8,0.46970186820059706,2,2,0,0,0,8,10,5,10,0,,,,1,,,,,,,,,,,,,,,,,,,,,,,,,,,,,,,,,,,,,,,,,,,,,,86,146917,21,Female,1,2024/03/13_12:27:20,YZ,None,
,,,,,,Calibration,0,,2,583,,,,,,,,,,,,,,,,,,,,,,,,,5,,,1,,,,,,,,,,,,,,,,,,,,,,,,,,,,,,,,,,,,,,,,,,,,,,86,146917,21,Female,1,2024/03/13_12:27:20,YZ,None,
,,,,,,calibration,0,11,2,679,1,N,0,right,0.5758425690000877,1,0,,,,,,,,,,,,,,,,,,,,,1,,,,,,,,,,,,,,,,,,,,,,,,,,,,,,,,,,,,,,,,,,,,,,86,146917,21,Female,1,2024/03/13_12:27:20,YZ,None,
,,,,,,calibration,0,11,2,679,2,J,0,right,0.4244672789936885,1,0,,,,,,,,,,,,,,,,,,,,,1,,,,,,,,,,,,,,,,,,,,,,,,,,,,,,,,,,,,,,,,,,,,,,86,146917,21,Female,1,2024/03/13_12:27:20,YZ,None,
,,,,,,calibration,0,11,2,679,3,X,0,right,0.4211644820024958,1,0,,,,,,,,,,,,,,,,,,,,,1,,,,,,,,,,,,,,,,,,,,,,,,,,,,,,,,,,,,,,,,,,,,,,86,146917,21,Female,1,2024/03/13_12:27:20,YZ,None,
,,,,,,calibration,0,11,2,679,4,S,0,right,0.47983014199417084,1,0,,,,,,,,,,,,,,,,,,,,,1,,,,,,,,,,,,,,,,,,,,,,,,,,,,,,,,,,,,,,,,,,,,,,86,146917,21,Female,1,2024/03/13_12:27:20,YZ,None,
,,,,,,calibration,0,11,2,679,5,X,1,left,0.6931265750026796,1,0,,,,,,,,,,,,,,,,,,,,,1,,,,,,,,,,,,,,,,,,,,,,,,,,,,,,,,,,,,,,,,,,,,,,86,146917,21,Female,1,2024/03/13_12:27:20,YZ,None,
,,,,,,calibration,0,11,2,679,6,J,0,right,0.5305539570108522,1,0,,,,,,,,,,,,,,,,,,,,,1,,,,,,,,,,,,,,,,,,,,,,,,,,,,,,,,,,,,,,,,,,,,,,86,146917,21,Female,1,2024/03/13_12:27:20,YZ,None,
,,,,,,calibration,0,11,2,679,7,X,1,left,0.6074791329883737,1,0,,,,,,,,,,,,,,,,,,,,,1,,,,,,,,,,,,,,,,,,,,,,,,,,,,,,,,,,,,,,,,,,,,,,86,146917,21,Female,1,2024/03/13_12:27:20,YZ,None,
,,,,,,calibration,0,11,2,679,8,J,1,right,0.5919723309925757,0,0,,,,,,,,,,,,,,,,,,,,,1,,,,,,,,,,,,,,,,,,,,,,,,,,,,,,,,,,,,,,,,,,,,,,86,146917,21,Female,1,2024/03/13_12:27:20,YZ,None,
,,,,,,calibration,0,11,2,679,9,F,0,right,0.5124347739911173,1,0,,,,,,,,,,,,,,,,,,,,,1,,,,,,,,,,,,,,,,,,,,,,,,,,,,,,,,,,,,,,,,,,,,,,86,146917,21,Female,1,2024/03/13_12:27:20,YZ,None,
,,,,,,calibration,0,11,2,679,10,S,0,right,1.1411864529945888,1,0,,,,,,,,,,,,,,,,,,,,,1,,,,,,,,,,,,,,,,,,,,,,,,,,,,,,,,,,,,,,,,,,,,,,86,146917,21,Female,1,2024/03/13_12:27:20,YZ,None,
,,,,,,calibration,0,11,2,679,11,V,0,right,0.6611427059979178,1,0,,,,,,,,,,,,,,,,,,,,,1,,,,,,,,,,,,,,,,,,,,,,,,,,,,,,,,,,,,,,,,,,,,,,86,146917,21,Female,1,2024/03/13_12:27:20,YZ,None,
,,,,,,calibration,0,11,2,679,12,X,0,left,0.5809833189996425,0,0,,,,,,,,,,,,,,,,,,,,,1,,,,,,,,,,,,,,,,,,,,,,,,,,,,,,,,,,,,,,,,,,,,,,86,146917,21,Female,1,2024/03/13_12:27:20,YZ,None,
,,,,,,calibration,0,11,2,679,13,J,0,left,0.674137192996568,0,0,,,,,,,,,,,,,,,,,,,,,1,,,,,,,,,,,,,,,,,,,,,,,,,,,,,,,,,,,,,,,,,,,,,,86,146917,21,Female,1,2024/03/13_12:27:20,YZ,None,
,,,,,,calibration,0,11,2,679,14,X,1,left,0.5565622389985947,1,0,,,,,,,,,,,,,,,,,,,,,1,,,,,,,,,,,,,,,,,,,,,,,,,,,,,,,,,,,,,,,,,,,,,,86,146917,21,Female,1,2024/03/13_12:27:20,YZ,None,
,,,,,,calibration,0,11,2,679,,,,,,,,0.8374999999999999,0.75,0.2,0.8,0.0,0.8,0.6036345108545252,3,2,0,0,0,8,11,4,10,0,,,,1,,,,,,,,,,,,,,,,,,,,,,,,,,,,,,,,,,,,,,,,,,,,,,86,146917,21,Female,1,2024/03/13_12:27:20,YZ,None,
,,,,,,Calibration,0,,2,679,,,,,,,,,,,,,,,,,,,,,,,,,6,,,1,,,,,,,,,,,,,,,,,,,,,,,,,,,,,,,,,,,,,,,,,,,,,,86,146917,21,Female,1,2024/03/13_12:27:20,YZ,None,
,,,,,,calibration,0,27,2,679,1,J,0,right,0.39509296699543484,1,0,,,,,,,,,,,,,,,,,,,,,1,,,,,,,,,,,,,,,,,,,,,,,,,,,,,,,,,,,,,,,,,,,,,,86,146917,21,Female,1,2024/03/13_12:27:20,YZ,None,
,,,,,,calibration,0,27,2,679,2,N,0,right,0.41226538398768753,1,0,,,,,,,,,,,,,,,,,,,,,1,,,,,,,,,,,,,,,,,,,,,,,,,,,,,,,,,,,,,,,,,,,,,,86,146917,21,Female,1,2024/03/13_12:27:20,YZ,None,
,,,,,,calibration,0,27,2,679,3,V,0,right,0.5466078739991644,1,0,,,,,,,,,,,,,,,,,,,,,1,,,,,,,,,,,,,,,,,,,,,,,,,,,,,,,,,,,,,,,,,,,,,,86,146917,21,Female,1,2024/03/13_12:27:20,YZ,None,
,,,,,,calibration,0,27,2,679,4,Q,0,right,0.5243250589992385,1,0,,,,,,,,,,,,,,,,,,,,,1,,,,,,,,,,,,,,,,,,,,,,,,,,,,,,,,,,,,,,,,,,,,,,86,146917,21,Female,1,2024/03/13_12:27:20,YZ,None,
,,,,,,calibration,0,27,2,679,5,V,1,right,0.4211846090038307,0,0,,,,,,,,,,,,,,,,,,,,,1,,,,,,,,,,,,,,,,,,,,,,,,,,,,,,,,,,,,,,,,,,,,,,86,146917,21,Female,1,2024/03/13_12:27:20,YZ,None,
,,,,,,calibration,0,27,2,679,6,J,0,right,0.6250272750039585,1,0,,,,,,,,,,,,,,,,,,,,,1,,,,,,,,,,,,,,,,,,,,,,,,,,,,,,,,,,,,,,,,,,,,,,86,146917,21,Female,1,2024/03/13_12:27:20,YZ,None,
,,,,,,calibration,0,27,2,679,7,N,0,right,0.5697654160030652,1,0,,,,,,,,,,,,,,,,,,,,,1,,,,,,,,,,,,,,,,,,,,,,,,,,,,,,,,,,,,,,,,,,,,,,86,146917,21,Female,1,2024/03/13_12:27:20,YZ,None,
,,,,,,calibration,0,27,2,679,8,J,1,left,0.5258617690124083,1,0,,,,,,,,,,,,,,,,,,,,,1,,,,,,,,,,,,,,,,,,,,,,,,,,,,,,,,,,,,,,,,,,,,,,86,146917,21,Female,1,2024/03/13_12:27:20,YZ,None,
,,,,,,calibration,0,27,2,679,9,Q,0,right,0.39395029700244777,1,0,,,,,,,,,,,,,,,,,,,,,1,,,,,,,,,,,,,,,,,,,,,,,,,,,,,,,,,,,,,,,,,,,,,,86,146917,21,Female,1,2024/03/13_12:27:20,YZ,None,
,,,,,,calibration,0,27,2,679,10,V,0,right,1.02565068299009,1,0,,,,,,,,,,,,,,,,,,,,,1,,,,,,,,,,,,,,,,,,,,,,,,,,,,,,,,,,,,,,,,,,,,,,86,146917,21,Female,1,2024/03/13_12:27:20,YZ,None,
,,,,,,calibration,0,27,2,679,11,Q,1,left,0.589213782994193,1,0,,,,,,,,,,,,,,,,,,,,,1,,,,,,,,,,,,,,,,,,,,,,,,,,,,,,,,,,,,,,,,,,,,,,86,146917,21,Female,1,2024/03/13_12:27:20,YZ,None,
,,,,,,calibration,0,27,2,679,12,J,0,right,0.33328842800983693,1,0,,,,,,,,,,,,,,,,,,,,,1,,,,,,,,,,,,,,,,,,,,,,,,,,,,,,,,,,,,,,,,,,,,,,86,146917,21,Female,1,2024/03/13_12:27:20,YZ,None,
,,,,,,calibration,0,27,2,679,13,Q,1,left,0.5123939170007361,1,0,,,,,,,,,,,,,,,,,,,,,1,,,,,,,,,,,,,,,,,,,,,,,,,,,,,,,,,,,,,,,,,,,,,,86,146917,21,Female,1,2024/03/13_12:27:20,YZ,None,
,,,,,,calibration,0,27,2,679,14,X,0,right,0.6107557759969495,1,0,,,,,,,,,,,,,,,,,,,,,1,,,,,,,,,,,,,,,,,,,,,,,,,,,,,,,,,,,,,,,,,,,,,,86,146917,21,Female,1,2024/03/13_12:27:20,YZ,None,
,,,,,,calibration,0,27,2,679,,,,,,,,0.9375,0.75,0.0,1.0,0.0,1.0,0.5346702312142172,3,0,0,0,0,10,13,4,10,0,,,,1,,,,,,,,,,,,,,,,,,,,,,,,,,,,,,,,,,,,,,,,,,,,,,86,146917,21,Female,1,2024/03/13_12:27:20,YZ,None,
,,,,,,Calibration,0,,2,679,,,,,,,,,,,,,,,,,,,,,,,,,7,,,1,,,,,,,,,,,,,,,,,,,,,,,,,,,,,,,,,,,,,,,,,,,,,,86,146917,21,Female,1,2024/03/13_12:27:20,YZ,None,
,,,,,,calibration,0,10,2,583,1,F,0,right,0.4276327429979574,1,0,,,,,,,,,,,,,,,,,,,,,1,,,,,,,,,,,,,,,,,,,,,,,,,,,,,,,,,,,,,,,,,,,,,,86,146917,21,Female,1,2024/03/13_12:27:20,YZ,None,
,,,,,,calibration,0,10,2,583,2,V,0,right,0.42866384000808466,1,0,,,,,,,,,,,,,,,,,,,,,1,,,,,,,,,,,,,,,,,,,,,,,,,,,,,,,,,,,,,,,,,,,,,,86,146917,21,Female,1,2024/03/13_12:27:20,YZ,None,
,,,,,,calibration,0,10,2,583,3,S,0,right,0.31650772399734706,1,0,,,,,,,,,,,,,,,,,,,,,1,,,,,,,,,,,,,,,,,,,,,,,,,,,,,,,,,,,,,,,,,,,,,,86,146917,21,Female,1,2024/03/13_12:27:20,YZ,None,
,,,,,,calibration,0,10,2,583,4,N,0,right,0.34469938800612,1,0,,,,,,,,,,,,,,,,,,,,,1,,,,,,,,,,,,,,,,,,,,,,,,,,,,,,,,,,,,,,,,,,,,,,86,146917,21,Female,1,2024/03/13_12:27:20,YZ,None,
,,,,,,calibration,0,10,2,583,5,V,0,right,0.36834490300680045,1,0,,,,,,,,,,,,,,,,,,,,,1,,,,,,,,,,,,,,,,,,,,,,,,,,,,,,,,,,,,,,,,,,,,,,86,146917,21,Female,1,2024/03/13_12:27:20,YZ,None,
,,,,,,calibration,0,10,2,583,6,N,1,right,0.7612159470008919,0,0,,,,,,,,,,,,,,,,,,,,,1,,,,,,,,,,,,,,,,,,,,,,,,,,,,,,,,,,,,,,,,,,,,,,86,146917,21,Female,1,2024/03/13_12:27:20,YZ,None,
,,,,,,calibration,0,10,2,583,7,Q,0,right,0.40377833299862687,1,0,,,,,,,,,,,,,,,,,,,,,1,,,,,,,,,,,,,,,,,,,,,,,,,,,,,,,,,,,,,,,,,,,,,,86,146917,21,Female,1,2024/03/13_12:27:20,YZ,None,
,,,,,,calibration,0,10,2,583,8,N,1,left,0.393237140000565,1,0,,,,,,,,,,,,,,,,,,,,,1,,,,,,,,,,,,,,,,,,,,,,,,,,,,,,,,,,,,,,,,,,,,,,86,146917,21,Female,1,2024/03/13_12:27:20,YZ,None,
,,,,,,calibration,0,10,2,583,9,S,0,right,0.9096427740005311,1,0,,,,,,,,,,,,,,,,,,,,,1,,,,,,,,,,,,,,,,,,,,,,,,,,,,,,,,,,,,,,,,,,,,,,86,146917,21,Female,1,2024/03/13_12:27:20,YZ,None,
,,,,,,calibration,0,10,2,583,10,N,1,right,0.3374620450049406,0,0,,,,,,,,,,,,,,,,,,,,,1,,,,,,,,,,,,,,,,,,,,,,,,,,,,,,,,,,,,,,,,,,,,,,86,146917,21,Female,1,2024/03/13_12:27:20,YZ,None,
,,,,,,calibration,0,10,2,583,11,C,0,right,0.6925063870003214,1,0,,,,,,,,,,,,,,,,,,,,,1,,,,,,,,,,,,,,,,,,,,,,,,,,,,,,,,,,,,,,,,,,,,,,86,146917,21,Female,1,2024/03/13_12:27:20,YZ,None,
,,,,,,calibration,0,10,2,583,12,S,0,left,0.6083643849997316,0,0,,,,,,,,,,,,,,,,,,,,,1,,,,,,,,,,,,,,,,,,,,,,,,,,,,,,,,,,,,,,,,,,,,,,86,146917,21,Female,1,2024/03/13_12:27:20,YZ,None,
,,,,,,calibration,0,10,2,583,13,C,1,right,0.34629849999328144,0,0,,,,,,,,,,,,,,,,,,,,,1,,,,,,,,,,,,,,,,,,,,,,,,,,,,,,,,,,,,,,,,,,,,,,86,146917,21,Female,1,2024/03/13_12:27:20,YZ,None,
,,,,,,calibration,0,10,2,583,14,Q,0,left,0.6497942729911301,0,0,,,,,,,,,,,,,,,,,,,,,1,,,,,,,,,,,,,,,,,,,,,,,,,,,,,,,,,,,,,,,,,,,,,,86,146917,21,Female,1,2024/03/13_12:27:20,YZ,None,
,,,,,,calibration,0,10,2,583,15,S,0,left,0.5550276389985811,0,0,,,,,,,,,,,,,,,,,,,,,1,,,,,,,,,,,,,,,,,,,,,,,,,,,,,,,,,,,,,,,,,,,,,,86,146917,21,Female,1,2024/03/13_12:27:20,YZ,None,
,,,,,,calibration,0,10,2,583,,,,,,,,0.015151515151515138,0.25,0.2727272727272727,0.7272727272727273,0.0,0.7272727272727273,0.5028784014003274,1,3,0,0,0,8,9,4,11,0,,,,1,,,,,,,,,,,,,,,,,,,,,,,,,,,,,,,,,,,,,,,,,,,,,,86,146917,21,Female,1,2024/03/13_12:27:20,YZ,None,
,,,,,,Calibration,0,,2,583,,,,,,,,,,,,,,,,,,,,,,,,,8,,,1,,,,,,,,,,,,,,,,,,,,,,,,,,,,,,,,,,,,,,,,,,,,,,86,146917,21,Female,1,2024/03/13_12:27:20,YZ,None,
,,,,,,calibration,0,32,2,679,1,N,0,right,0.2413611890078755,1,0,,,,,,,,,,,,,,,,,,,,,1,,,,,,,,,,,,,,,,,,,,,,,,,,,,,,,,,,,,,,,,,,,,,,86,146917,21,Female,1,2024/03/13_12:27:20,YZ,None,
,,,,,,calibration,0,32,2,679,2,N,0,right,0.2813840379967587,1,0,,,,,,,,,,,,,,,,,,,,,1,,,,,,,,,,,,,,,,,,,,,,,,,,,,,,,,,,,,,,,,,,,,,,86,146917,21,Female,1,2024/03/13_12:27:20,YZ,None,
,,,,,,calibration,0,32,2,679,3,C,0,right,0.4445577559963567,1,0,,,,,,,,,,,,,,,,,,,,,1,,,,,,,,,,,,,,,,,,,,,,,,,,,,,,,,,,,,,,,,,,,,,,86,146917,21,Female,1,2024/03/13_12:27:20,YZ,None,
,,,,,,calibration,0,32,2,679,4,N,1,left,0.6239522340038093,1,0,,,,,,,,,,,,,,,,,,,,,1,,,,,,,,,,,,,,,,,,,,,,,,,,,,,,,,,,,,,,,,,,,,,,86,146917,21,Female,1,2024/03/13_12:27:20,YZ,None,
,,,,,,calibration,0,32,2,679,5,F,0,right,0.4089028799935477,1,0,,,,,,,,,,,,,,,,,,,,,1,,,,,,,,,,,,,,,,,,,,,,,,,,,,,,,,,,,,,,,,,,,,,,86,146917,21,Female,1,2024/03/13_12:27:20,YZ,None,
,,,,,,calibration,0,32,2,679,6,N,1,left,0.40211019798880443,1,0,,,,,,,,,,,,,,,,,,,,,1,,,,,,,,,,,,,,,,,,,,,,,,,,,,,,,,,,,,,,,,,,,,,,86,146917,21,Female,1,2024/03/13_12:27:20,YZ,None,
,,,,,,calibration,0,32,2,679,7,F,1,left,0.4481286079972051,1,0,,,,,,,,,,,,,,,,,,,,,1,,,,,,,,,,,,,,,,,,,,,,,,,,,,,,,,,,,,,,,,,,,,,,86,146917,21,Female,1,2024/03/13_12:27:20,YZ,None,
,,,,,,calibration,0,32,2,679,8,J,0,right,0.3556987789925188,1,0,,,,,,,,,,,,,,,,,,,,,1,,,,,,,,,,,,,,,,,,,,,,,,,,,,,,,,,,,,,,,,,,,,,,86,146917,21,Female,1,2024/03/13_12:27:20,YZ,None,
,,,,,,calibration,0,32,2,679,9,F,1,left,0.48999940599605907,1,0,,,,,,,,,,,,,,,,,,,,,1,,,,,,,,,,,,,,,,,,,,,,,,,,,,,,,,,,,,,,,,,,,,,,86,146917,21,Female,1,2024/03/13_12:27:20,YZ,None,
,,,,,,calibration,0,32,2,679,10,S,0,right,0.5487104280036874,1,0,,,,,,,,,,,,,,,,,,,,,1,,,,,,,,,,,,,,,,,,,,,,,,,,,,,,,,,,,,,,,,,,,,,,86,146917,21,Female,1,2024/03/13_12:27:20,YZ,None,
,,,,,,calibration,0,32,2,679,11,Q,0,right,0.5812541530031012,1,0,,,,,,,,,,,,,,,,,,,,,1,,,,,,,,,,,,,,,,,,,,,,,,,,,,,,,,,,,,,,,,,,,,,,86,146917,21,Female,1,2024/03/13_12:27:20,YZ,None,
,,,,,,calibration,0,32,2,679,12,F,0,right,0.4224318159976974,1,0,,,,,,,,,,,,,,,,,,,,,1,,,,,,,,,,,,,,,,,,,,,,,,,,,,,,,,,,,,,,,,,,,,,,86,146917,21,Female,1,2024/03/13_12:27:20,YZ,None,
,,,,,,calibration,0,32,2,679,13,V,0,right,0.4893564020021586,1,0,,,,,,,,,,,,,,,,,,,,,1,,,,,,,,,,,,,,,,,,,,,,,,,,,,,,,,,,,,,,,,,,,,,,86,146917,21,Female,1,2024/03/13_12:27:20,YZ,None,
,,,,,,calibration,0,32,2,679,14,J,0,right,0.7279636710009072,1,0,,,,,,,,,,,,,,,,,,,,,1,,,,,,,,,,,,,,,,,,,,,,,,,,,,,,,,,,,,,,,,,,,,,,86,146917,21,Female,1,2024/03/13_12:27:20,YZ,None,
,,,,,,calibration,0,32,2,679,,,,,,,,1.0,1.0,0.0,1.0,0.0,1.0,0.46184368271289195,4,0,0,0,0,10,14,4,10,0,,,,1,,,,,,,,,,,,,,,,,,,,,,,,,,,,,,,,,,,,,,,,,,,,,,86,146917,21,Female,1,2024/03/13_12:27:20,YZ,None,
,,,,,,Calibration,0,,2,679,,,,,,,,,,,,,,,,,,,,,,,,,9,,,1,,,,,,,,,,,,,,,,,,,,,,,,,,,,,,,,,,,,,,,,,,,,,,86,146917,21,Female,1,2024/03/13_12:27:20,YZ,None,
,,,,,,calibration,0,30,2,583,1,C,0,right,0.15029077899816912,1,0,,,,,,,,,,,,,,,,,,,,,1,,,,,,,,,,,,,,,,,,,,,,,,,,,,,,,,,,,,,,,,,,,,,,86,146917,21,Female,1,2024/03/13_12:27:20,YZ,None,
,,,,,,calibration,0,30,2,583,2,X,0,right,0.21761944000900257,1,0,,,,,,,,,,,,,,,,,,,,,1,,,,,,,,,,,,,,,,,,,,,,,,,,,,,,,,,,,,,,,,,,,,,,86,146917,21,Female,1,2024/03/13_12:27:20,YZ,None,
,,,,,,calibration,0,30,2,583,3,F,0,right,0.26907900199876167,1,0,,,,,,,,,,,,,,,,,,,,,1,,,,,,,,,,,,,,,,,,,,,,,,,,,,,,,,,,,,,,,,,,,,,,86,146917,21,Female,1,2024/03/13_12:27:20,YZ,None,
,,,,,,calibration,0,30,2,583,4,Q,0,right,0.2961042110109702,1,0,,,,,,,,,,,,,,,,,,,,,1,,,,,,,,,,,,,,,,,,,,,,,,,,,,,,,,,,,,,,,,,,,,,,86,146917,21,Female,1,2024/03/13_12:27:20,YZ,None,
,,,,,,calibration,0,30,2,583,5,F,1,right,0.40876596700400114,0,0,,,,,,,,,,,,,,,,,,,,,1,,,,,,,,,,,,,,,,,,,,,,,,,,,,,,,,,,,,,,,,,,,,,,86,146917,21,Female,1,2024/03/13_12:27:20,YZ,None,
,,,,,,calibration,0,30,2,583,6,N,0,right,0.41295309500128496,1,0,,,,,,,,,,,,,,,,,,,,,1,,,,,,,,,,,,,,,,,,,,,,,,,,,,,,,,,,,,,,,,,,,,,,86,146917,21,Female,1,2024/03/13_12:27:20,YZ,None,
,,,,,,calibration,0,30,2,583,7,Q,0,left,0.7974499600095442,0,0,,,,,,,,,,,,,,,,,,,,,1,,,,,,,,,,,,,,,,,,,,,,,,,,,,,,,,,,,,,,,,,,,,,,86,146917,21,Female,1,2024/03/13_12:27:20,YZ,None,
,,,,,,calibration,0,30,2,583,8,N,1,left,0.646498119996977,1,0,,,,,,,,,,,,,,,,,,,,,1,,,,,,,,,,,,,,,,,,,,,,,,,,,,,,,,,,,,,,,,,,,,,,86,146917,21,Female,1,2024/03/13_12:27:20,YZ,None,
,,,,,,calibration,0,30,2,583,9,S,0,left,0.6149334929941688,0,0,,,,,,,,,,,,,,,,,,,,,1,,,,,,,,,,,,,,,,,,,,,,,,,,,,,,,,,,,,,,,,,,,,,,86,146917,21,Female,1,2024/03/13_12:27:20,YZ,None,
,,,,,,calibration,0,30,2,583,10,J,0,right,0.3833046609943267,1,0,,,,,,,,,,,,,,,,,,,,,1,,,,,,,,,,,,,,,,,,,,,,,,,,,,,,,,,,,,,,,,,,,,,,86,146917,21,Female,1,2024/03/13_12:27:20,YZ,None,
,,,,,,calibration,0,30,2,583,11,N,0,right,0.7881388380046701,1,0,,,,,,,,,,,,,,,,,,,,,1,,,,,,,,,,,,,,,,,,,,,,,,,,,,,,,,,,,,,,,,,,,,,,86,146917,21,Female,1,2024/03/13_12:27:20,YZ,None,
,,,,,,calibration,0,30,2,583,12,J,1,right,0.5974279049987672,0,0,,,,,,,,,,,,,,,,,,,,,1,,,,,,,,,,,,,,,,,,,,,,,,,,,,,,,,,,,,,,,,,,,,,,86,146917,21,Female,1,2024/03/13_12:27:20,YZ,None,
,,,,,,calibration,0,30,2,583,13,F,0,right,0.5754874979902525,1,0,,,,,,,,,,,,,,,,,,,,,1,,,,,,,,,,,,,,,,,,,,,,,,,,,,,,,,,,,,,,,,,,,,,,86,146917,21,Female,1,2024/03/13_12:27:20,YZ,None,
,,,,,,calibration,0,30,2,583,14,J,1,left,0.8282384610065492,1,0,,,,,,,,,,,,,,,,,,,,,1,,,,,,,,,,,,,,,,,,,,,,,,,,,,,,,,,,,,,,,,,,,,,,86,146917,21,Female,1,2024/03/13_12:27:20,YZ,None,
,,,,,,calibration,0,30,2,583,15,N,0,right,1.2469603950012242,1,0,,,,,,,,,,,,,,,,,,,,,1,,,,,,,,,,,,,,,,,,,,,,,,,,,,,,,,,,,,,,,,,,,,,,86,146917,21,Female,1,2024/03/13_12:27:20,YZ,None,
,,,,,,calibration,0,30,2,583,,,,,,,,0.7386363636363636,0.5,0.18181818181818182,0.8181818181818182,0.0,0.8181818181818181,0.5488834550012446,2,2,0,0,0,9,11,4,11,0,,,,1,,,,,,,,,,,,,,,,,,,,,,,,,,,,,,,,,,,,,,,,,,,,,,86,146917,21,Female,1,2024/03/13_12:27:20,YZ,None,
,,,,,,Calibration,0,,2,583,,,,,,,,,,,,,,,,,,,,,,,,,10,,,1,,,,,,,,,,,,,,,,,,,,,,,,,,,,,,,,,,,,,,,,,,,,,,86,146917,21,Female,1,2024/03/13_12:27:20,YZ,None,
,,,,,,calibration,0,9,2,679,1,X,0,right,0.4870075680082664,1,0,,,,,,,,,,,,,,,,,,,,,1,,,,,,,,,,,,,,,,,,,,,,,,,,,,,,,,,,,,,,,,,,,,,,86,146917,21,Female,1,2024/03/13_12:27:20,YZ,None,
,,,,,,calibration,0,9,2,679,2,J,0,right,0.3769474180007819,1,0,,,,,,,,,,,,,,,,,,,,,1,,,,,,,,,,,,,,,,,,,,,,,,,,,,,,,,,,,,,,,,,,,,,,86,146917,21,Female,1,2024/03/13_12:27:20,YZ,None,
,,,,,,calibration,0,9,2,679,3,X,1,right,0.48758302300120704,0,0,,,,,,,,,,,,,,,,,,,,,1,,,,,,,,,,,,,,,,,,,,,,,,,,,,,,,,,,,,,,,,,,,,,,86,146917,21,Female,1,2024/03/13_12:27:20,YZ,None,
,,,,,,calibration,0,9,2,679,4,F,0,right,0.4559616629994707,1,0,,,,,,,,,,,,,,,,,,,,,1,,,,,,,,,,,,,,,,,,,,,,,,,,,,,,,,,,,,,,,,,,,,,,86,146917,21,Female,1,2024/03/13_12:27:20,YZ,None,
,,,,,,calibration,0,9,2,679,5,X,1,right,0.5164799259946449,0,0,,,,,,,,,,,,,,,,,,,,,1,,,,,,,,,,,,,,,,,,,,,,,,,,,,,,,,,,,,,,,,,,,,,,86,146917,21,Female,1,2024/03/13_12:27:20,YZ,None,
,,,,,,calibration,0,9,2,679,6,F,1,right,0.525363210006617,0,0,,,,,,,,,,,,,,,,,,,,,1,,,,,,,,,,,,,,,,,,,,,,,,,,,,,,,,,,,,,,,,,,,,,,86,146917,21,Female,1,2024/03/13_12:27:20,YZ,None,
,,,,,,calibration,0,9,2,679,7,Q,0,left,0.3813115939992713,0,0,,,,,,,,,,,,,,,,,,,,,1,,,,,,,,,,,,,,,,,,,,,,,,,,,,,,,,,,,,,,,,,,,,,,86,146917,21,Female,1,2024/03/13_12:27:20,YZ,None,
,,,,,,calibration,0,9,2,679,8,S,0,right,0.282217751009739,1,0,,,,,,,,,,,,,,,,,,,,,1,,,,,,,,,,,,,,,,,,,,,,,,,,,,,,,,,,,,,,,,,,,,,,86,146917,21,Female,1,2024/03/13_12:27:20,YZ,None,
,,,,,,calibration,0,9,2,679,9,F,0,right,0.48041646199999377,1,0,,,,,,,,,,,,,,,,,,,,,1,,,,,,,,,,,,,,,,,,,,,,,,,,,,,,,,,,,,,,,,,,,,,,86,146917,21,Female,1,2024/03/13_12:27:20,YZ,None,
,,,,,,calibration,0,9,2,679,10,S,1,right,0.5465135440026643,0,0,,,,,,,,,,,,,,,,,,,,,1,,,,,,,,,,,,,,,,,,,,,,,,,,,,,,,,,,,,,,,,,,,,,,86,146917,21,Female,1,2024/03/13_12:27:20,YZ,None,
,,,,,,calibration,0,9,2,679,11,N,0,right,0.29787487800058443,1,0,,,,,,,,,,,,,,,,,,,,,1,,,,,,,,,,,,,,,,,,,,,,,,,,,,,,,,,,,,,,,,,,,,,,86,146917,21,Female,1,2024/03/13_12:27:20,YZ,None,
,,,,,,calibration,0,9,2,679,12,C,0,right,0.280603749997681,1,0,,,,,,,,,,,,,,,,,,,,,1,,,,,,,,,,,,,,,,,,,,,,,,,,,,,,,,,,,,,,,,,,,,,,86,146917,21,Female,1,2024/03/13_12:27:20,YZ,None,
,,,,,,calibration,0,9,2,679,13,S,0,right,0.313000939990161,1,0,,,,,,,,,,,,,,,,,,,,,1,,,,,,,,,,,,,,,,,,,,,,,,,,,,,,,,,,,,,,,,,,,,,,86,146917,21,Female,1,2024/03/13_12:27:20,YZ,None,
,,,,,,calibration,0,9,2,679,14,X,0,right,0.35597241899813525,1,0,,,,,,,,,,,,,,,,,,,,,1,,,,,,,,,,,,,,,,,,,,,,,,,,,,,,,,,,,,,,,,,,,,,,86,146917,21,Female,1,2024/03/13_12:27:20,YZ,None,
,,,,,,calibration,0,9,2,679,,,,,,,,0.225,0.0,0.1,0.9,0.0,0.9,0.4133752961435156,0,1,0,0,0,9,9,4,10,0,,,,1,,,,,,,,,,,,,,,,,,,,,,,,,,,,,,,,,,,,,,,,,,,,,,86,146917,21,Female,1,2024/03/13_12:27:20,YZ,None,
,,,,,,Calibration,0,,2,679,,,,,,,,,,,,,,,,,,,,,,,,,11,,,1,,,,,,,,,,,,,,,,,,,,,,,,,,,,,,,,,,,,,,,,,,,,,,86,146917,21,Female,1,2024/03/13_12:27:20,YZ,None,
,,,,,,calibration,0,34,2,788,1,Q,0,right,0.3681708109943429,1,0,,,,,,,,,,,,,,,,,,,,,1,,,,,,,,,,,,,,,,,,,,,,,,,,,,,,,,,,,,,,,,,,,,,,86,146917,21,Female,1,2024/03/13_12:27:20,YZ,None,
,,,,,,calibration,0,34,2,788,2,F,0,right,0.35523124899191316,1,0,,,,,,,,,,,,,,,,,,,,,1,,,,,,,,,,,,,,,,,,,,,,,,,,,,,,,,,,,,,,,,,,,,,,86,146917,21,Female,1,2024/03/13_12:27:20,YZ,None,
,,,,,,calibration,0,34,2,788,3,S,0,right,0.40295961999800056,1,0,,,,,,,,,,,,,,,,,,,,,1,,,,,,,,,,,,,,,,,,,,,,,,,,,,,,,,,,,,,,,,,,,,,,86,146917,21,Female,1,2024/03/13_12:27:20,YZ,None,
,,,,,,calibration,0,34,2,788,4,X,0,right,0.39296015100262593,1,0,,,,,,,,,,,,,,,,,,,,,1,,,,,,,,,,,,,,,,,,,,,,,,,,,,,,,,,,,,,,,,,,,,,,86,146917,21,Female,1,2024/03/13_12:27:20,YZ,None,
,,,,,,calibration,0,34,2,788,5,S,1,left,0.4078249849990243,1,0,,,,,,,,,,,,,,,,,,,,,1,,,,,,,,,,,,,,,,,,,,,,,,,,,,,,,,,,,,,,,,,,,,,,86,146917,21,Female,1,2024/03/13_12:27:20,YZ,None,
,,,,,,calibration,0,34,2,788,6,J,0,right,0.4494071859953692,1,0,,,,,,,,,,,,,,,,,,,,,1,,,,,,,,,,,,,,,,,,,,,,,,,,,,,,,,,,,,,,,,,,,,,,86,146917,21,Female,1,2024/03/13_12:27:20,YZ,None,
,,,,,,calibration,0,34,2,788,7,F,0,right,0.4396589550015051,1,0,,,,,,,,,,,,,,,,,,,,,1,,,,,,,,,,,,,,,,,,,,,,,,,,,,,,,,,,,,,,,,,,,,,,86,146917,21,Female,1,2024/03/13_12:27:20,YZ,None,
,,,,,,calibration,0,34,2,788,8,N,0,right,0.5467919510119827,1,0,,,,,,,,,,,,,,,,,,,,,1,,,,,,,,,,,,,,,,,,,,,,,,,,,,,,,,,,,,,,,,,,,,,,86,146917,21,Female,1,2024/03/13_12:27:20,YZ,None,
,,,,,,calibration,0,34,2,788,9,F,1,left,0.49261814799683634,1,0,,,,,,,,,,,,,,,,,,,,,1,,,,,,,,,,,,,,,,,,,,,,,,,,,,,,,,,,,,,,,,,,,,,,86,146917,21,Female,1,2024/03/13_12:27:20,YZ,None,
,,,,,,calibration,0,34,2,788,10,N,1,right,0.3972881029912969,0,0,,,,,,,,,,,,,,,,,,,,,1,,,,,,,,,,,,,,,,,,,,,,,,,,,,,,,,,,,,,,,,,,,,,,86,146917,21,Female,1,2024/03/13_12:27:20,YZ,None,
,,,,,,calibration,0,34,2,788,11,V,0,right,0.39715523400809616,1,0,,,,,,,,,,,,,,,,,,,,,1,,,,,,,,,,,,,,,,,,,,,,,,,,,,,,,,,,,,,,,,,,,,,,86,146917,21,Female,1,2024/03/13_12:27:20,YZ,None,
,,,,,,calibration,0,34,2,788,12,N,1,right,0.4729539310064865,0,0,,,,,,,,,,,,,,,,,,,,,1,,,,,,,,,,,,,,,,,,,,,,,,,,,,,,,,,,,,,,,,,,,,,,86,146917,21,Female,1,2024/03/13_12:27:20,YZ,None,
,,,,,,calibration,0,34,2,788,13,X,0,right,0.30526227300288156,1,0,,,,,,,,,,,,,,,,,,,,,1,,,,,,,,,,,,,,,,,,,,,,,,,,,,,,,,,,,,,,,,,,,,,,86,146917,21,Female,1,2024/03/13_12:27:20,YZ,None,
,,,,,,calibration,0,34,2,788,,,,,,,,0.875,0.5,0.0,1.0,0.0,1.0,0.41756019976925857,2,0,0,0,0,9,11,4,9,0,,,,1,,,,,,,,,,,,,,,,,,,,,,,,,,,,,,,,,,,,,,,,,,,,,,86,146917,21,Female,1,2024/03/13_12:27:20,YZ,None,
,,,,,,Calibration,0,,2,788,,,,,,,,,,,,,,,,,,,,,,,,,12,,,1,,,,,,,,,,,,,,,,,,,,,,,,,,,,,,,,,,,,,,,,,,,,,,86,146917,21,Female,1,2024/03/13_12:27:20,YZ,None,
,,,,,,calibration,0,30,2,679,1,X,0,right,0.28774525299377274,1,0,,,,,,,,,,,,,,,,,,,,,1,,,,,,,,,,,,,,,,,,,,,,,,,,,,,,,,,,,,,,,,,,,,,,86,146917,21,Female,1,2024/03/13_12:27:20,YZ,None,
,,,,,,calibration,0,30,2,679,2,F,0,right,0.4805107379943365,1,0,,,,,,,,,,,,,,,,,,,,,1,,,,,,,,,,,,,,,,,,,,,,,,,,,,,,,,,,,,,,,,,,,,,,86,146917,21,Female,1,2024/03/13_12:27:20,YZ,None,
,,,,,,calibration,0,30,2,679,3,X,1,right,0.27613013600057457,0,0,,,,,,,,,,,,,,,,,,,,,1,,,,,,,,,,,,,,,,,,,,,,,,,,,,,,,,,,,,,,,,,,,,,,86,146917,21,Female,1,2024/03/13_12:27:20,YZ,None,
,,,,,,calibration,0,30,2,679,4,V,0,right,0.36482314800377935,1,0,,,,,,,,,,,,,,,,,,,,,1,,,,,,,,,,,,,,,,,,,,,,,,,,,,,,,,,,,,,,,,,,,,,,86,146917,21,Female,1,2024/03/13_12:27:20,YZ,None,
,,,,,,calibration,0,30,2,679,5,J,0,right,0.4656683060020441,1,0,,,,,,,,,,,,,,,,,,,,,1,,,,,,,,,,,,,,,,,,,,,,,,,,,,,,,,,,,,,,,,,,,,,,86,146917,21,Female,1,2024/03/13_12:27:20,YZ,None,
,,,,,,calibration,0,30,2,679,6,Q,0,right,0.4652639919950161,1,0,,,,,,,,,,,,,,,,,,,,,1,,,,,,,,,,,,,,,,,,,,,,,,,,,,,,,,,,,,,,,,,,,,,,86,146917,21,Female,1,2024/03/13_12:27:20,YZ,None,
,,,,,,calibration,0,30,2,679,7,J,1,right,1.5175153279997176,0,0,,,,,,,,,,,,,,,,,,,,,1,,,,,,,,,,,,,,,,,,,,,,,,,,,,,,,,,,,,,,,,,,,,,,86,146917,21,Female,1,2024/03/13_12:27:20,YZ,None,
,,,,,,calibration,0,30,2,679,8,X,0,left,0.5642634730029386,0,0,,,,,,,,,,,,,,,,,,,,,1,,,,,,,,,,,,,,,,,,,,,,,,,,,,,,,,,,,,,,,,,,,,,,86,146917,21,Female,1,2024/03/13_12:27:20,YZ,None,
,,,,,,calibration,0,30,2,679,9,C,0,right,0.46936359400569927,1,0,,,,,,,,,,,,,,,,,,,,,1,,,,,,,,,,,,,,,,,,,,,,,,,,,,,,,,,,,,,,,,,,,,,,86,146917,21,Female,1,2024/03/13_12:27:20,YZ,None,
,,,,,,calibration,0,30,2,679,10,V,0,right,0.5817223850026494,1,0,,,,,,,,,,,,,,,,,,,,,1,,,,,,,,,,,,,,,,,,,,,,,,,,,,,,,,,,,,,,,,,,,,,,86,146917,21,Female,1,2024/03/13_12:27:20,YZ,None,
,,,,,,calibration,0,30,2,679,11,J,0,right,0.5911097890057135,1,0,,,,,,,,,,,,,,,,,,,,,1,,,,,,,,,,,,,,,,,,,,,,,,,,,,,,,,,,,,,,,,,,,,,,86,146917,21,Female,1,2024/03/13_12:27:20,YZ,None,
,,,,,,calibration,0,30,2,679,12,V,1,left,0.6051221410016296,1,0,,,,,,,,,,,,,,,,,,,,,1,,,,,,,,,,,,,,,,,,,,,,,,,,,,,,,,,,,,,,,,,,,,,,86,146917,21,Female,1,2024/03/13_12:27:20,YZ,None,
,,,,,,calibration,0,30,2,679,13,N,0,right,0.4365465390001191,1,0,,,,,,,,,,,,,,,,,,,,,1,,,,,,,,,,,,,,,,,,,,,,,,,,,,,,,,,,,,,,,,,,,,,,86,146917,21,Female,1,2024/03/13_12:27:20,YZ,None,
,,,,,,calibration,0,30,2,679,14,V,1,left,0.6083516100043198,1,0,,,,,,,,,,,,,,,,,,,,,1,,,,,,,,,,,,,,,,,,,,,,,,,,,,,,,,,,,,,,,,,,,,,,86,146917,21,Female,1,2024/03/13_12:27:20,YZ,None,
,,,,,,calibration,0,30,2,679,,,,,,,,0.7999999999999999,0.5,0.1,0.9,0.0,0.9,0.5510097451437365,2,1,0,0,0,9,11,4,10,0,,,,1,,,,,,,,,,,,,,,,,,,,,,,,,,,,,,,,,,,,,,,,,,,,,,86,146917,21,Female,1,2024/03/13_12:27:20,YZ,None,
,,,,,,Calibration,0,,2,679,,,,,,,,,,,,,,,,,,,,,,,,,13,,,1,,,,,,,,,,,,,,,,,,,,,,,,,,,,,,,,,,,,,,,,,,,,,,86,146917,21,Female,1,2024/03/13_12:27:20,YZ,None,
,,,,,,calibration,0,34,2,679,1,Q,0,right,0.31582564499694854,1,0,,,,,,,,,,,,,,,,,,,,,1,,,,,,,,,,,,,,,,,,,,,,,,,,,,,,,,,,,,,,,,,,,,,,86,146917,21,Female,1,2024/03/13_12:27:20,YZ,None,
,,,,,,calibration,0,34,2,679,2,Q,0,right,0.27587395899172407,1,0,,,,,,,,,,,,,,,,,,,,,1,,,,,,,,,,,,,,,,,,,,,,,,,,,,,,,,,,,,,,,,,,,,,,86,146917,21,Female,1,2024/03/13_12:27:20,YZ,None,
,,,,,,calibration,0,34,2,679,3,Q,1,left,0.38108304800698534,1,0,,,,,,,,,,,,,,,,,,,,,1,,,,,,,,,,,,,,,,,,,,,,,,,,,,,,,,,,,,,,,,,,,,,,86,146917,21,Female,1,2024/03/13_12:27:20,YZ,None,
,,,,,,calibration,0,34,2,679,4,Q,1,left,0.3042697920027422,1,0,,,,,,,,,,,,,,,,,,,,,1,,,,,,,,,,,,,,,,,,,,,,,,,,,,,,,,,,,,,,,,,,,,,,86,146917,21,Female,1,2024/03/13_12:27:20,YZ,None,
,,,,,,calibration,0,34,2,679,5,X,0,right,0.4017022539919708,1,0,,,,,,,,,,,,,,,,,,,,,1,,,,,,,,,,,,,,,,,,,,,,,,,,,,,,,,,,,,,,,,,,,,,,86,146917,21,Female,1,2024/03/13_12:27:20,YZ,None,
,,,,,,calibration,0,34,2,679,6,C,0,right,0.5730299790011486,1,0,,,,,,,,,,,,,,,,,,,,,1,,,,,,,,,,,,,,,,,,,,,,,,,,,,,,,,,,,,,,,,,,,,,,86,146917,21,Female,1,2024/03/13_12:27:20,YZ,None,
,,,,,,calibration,0,34,2,679,7,F,0,right,0.5122492060036166,1,0,,,,,,,,,,,,,,,,,,,,,1,,,,,,,,,,,,,,,,,,,,,,,,,,,,,,,,,,,,,,,,,,,,,,86,146917,21,Female,1,2024/03/13_12:27:20,YZ,None,
,,,,,,calibration,0,34,2,679,8,J,0,right,0.36347378201026004,1,0,,,,,,,,,,,,,,,,,,,,,1,,,,,,,,,,,,,,,,,,,,,,,,,,,,,,,,,,,,,,,,,,,,,,86,146917,21,Female,1,2024/03/13_12:27:20,YZ,None,
,,,,,,calibration,0,34,2,679,9,F,1,right,0.43673930800287053,0,0,,,,,,,,,,,,,,,,,,,,,1,,,,,,,,,,,,,,,,,,,,,,,,,,,,,,,,,,,,,,,,,,,,,,86,146917,21,Female,1,2024/03/13_12:27:20,YZ,None,
,,,,,,calibration,0,34,2,679,10,Q,0,right,0.7655338509939611,1,0,,,,,,,,,,,,,,,,,,,,,1,,,,,,,,,,,,,,,,,,,,,,,,,,,,,,,,,,,,,,,,,,,,,,86,146917,21,Female,1,2024/03/13_12:27:20,YZ,None,
,,,,,,calibration,0,34,2,679,11,V,0,right,0.41151232599804644,1,0,,,,,,,,,,,,,,,,,,,,,1,,,,,,,,,,,,,,,,,,,,,,,,,,,,,,,,,,,,,,,,,,,,,,86,146917,21,Female,1,2024/03/13_12:27:20,YZ,None,
,,,,,,calibration,0,34,2,679,12,C,0,right,0.8076275649946183,1,0,,,,,,,,,,,,,,,,,,,,,1,,,,,,,,,,,,,,,,,,,,,,,,,,,,,,,,,,,,,,,,,,,,,,86,146917,21,Female,1,2024/03/13_12:27:20,YZ,None,
,,,,,,calibration,0,34,2,679,13,J,0,right,0.6048906249925494,1,0,,,,,,,,,,,,,,,,,,,,,1,,,,,,,,,,,,,,,,,,,,,,,,,,,,,,,,,,,,,,,,,,,,,,86,146917,21,Female,1,2024/03/13_12:27:20,YZ,None,
,,,,,,calibration,0,34,2,679,14,C,1,left,0.5123686760052806,1,0,,,,,,,,,,,,,,,,,,,,,1,,,,,,,,,,,,,,,,,,,,,,,,,,,,,,,,,,,,,,,,,,,,,,86,146917,21,Female,1,2024/03/13_12:27:20,YZ,None,
,,,,,,calibration,0,34,2,679,,,,,,,,0.9375,0.75,0.0,1.0,0.0,1.0,0.47615571542805163,3,0,0,0,0,10,13,4,10,0,,,,1,,,,,,,,,,,,,,,,,,,,,,,,,,,,,,,,,,,,,,,,,,,,,,86,146917,21,Female,1,2024/03/13_12:27:20,YZ,None,
,,,,,,Calibration,0,,2,679,,,,,,,,,,,,,,,,,,,,,,,,,14,,,1,,,,,,,,,,,,,,,,,,,,,,,,,,,,,,,,,,,,,,,,,,,,,,86,146917,21,Female,1,2024/03/13_12:27:20,YZ,None,
,,,,,,calibration,0,29,2,583,1,X,0,right,0.28452722099609673,1,0,,,,,,,,,,,,,,,,,,,,,1,,,,,,,,,,,,,,,,,,,,,,,,,,,,,,,,,,,,,,,,,,,,,,86,146917,21,Female,1,2024/03/13_12:27:20,YZ,None,
,,,,,,calibration,0,29,2,583,2,Q,0,right,0.2843176129972562,1,0,,,,,,,,,,,,,,,,,,,,,1,,,,,,,,,,,,,,,,,,,,,,,,,,,,,,,,,,,,,,,,,,,,,,86,146917,21,Female,1,2024/03/13_12:27:20,YZ,None,
,,,,,,calibration,0,29,2,583,3,F,0,right,0.2555779379908927,1,0,,,,,,,,,,,,,,,,,,,,,1,,,,,,,,,,,,,,,,,,,,,,,,,,,,,,,,,,,,,,,,,,,,,,86,146917,21,Female,1,2024/03/13_12:27:20,YZ,None,
,,,,,,calibration,0,29,2,583,4,Q,1,right,0.4323060059978161,0,0,,,,,,,,,,,,,,,,,,,,,1,,,,,,,,,,,,,,,,,,,,,,,,,,,,,,,,,,,,,,,,,,,,,,86,146917,21,Female,1,2024/03/13_12:27:20,YZ,None,
,,,,,,calibration,0,29,2,583,5,N,0,right,0.44421570499252994,1,0,,,,,,,,,,,,,,,,,,,,,1,,,,,,,,,,,,,,,,,,,,,,,,,,,,,,,,,,,,,,,,,,,,,,86,146917,21,Female,1,2024/03/13_12:27:20,YZ,None,
,,,,,,calibration,0,29,2,583,6,S,0,right,0.5126211290044012,1,0,,,,,,,,,,,,,,,,,,,,,1,,,,,,,,,,,,,,,,,,,,,,,,,,,,,,,,,,,,,,,,,,,,,,86,146917,21,Female,1,2024/03/13_12:27:20,YZ,None,
,,,,,,calibration,0,29,2,583,7,N,1,left,0.4455033059930429,1,0,,,,,,,,,,,,,,,,,,,,,1,,,,,,,,,,,,,,,,,,,,,,,,,,,,,,,,,,,,,,,,,,,,,,86,146917,21,Female,1,2024/03/13_12:27:20,YZ,None,
,,,,,,calibration,0,29,2,583,8,Q,0,right,0.35616736600059085,1,0,,,,,,,,,,,,,,,,,,,,,1,,,,,,,,,,,,,,,,,,,,,,,,,,,,,,,,,,,,,,,,,,,,,,86,146917,21,Female,1,2024/03/13_12:27:20,YZ,None,
,,,,,,calibration,0,29,2,583,9,V,0,right,0.5308807299879845,1,0,,,,,,,,,,,,,,,,,,,,,1,,,,,,,,,,,,,,,,,,,,,,,,,,,,,,,,,,,,,,,,,,,,,,86,146917,21,Female,1,2024/03/13_12:27:20,YZ,None,
,,,,,,calibration,0,29,2,583,10,N,0,left,0.6084845859877532,0,0,,,,,,,,,,,,,,,,,,,,,1,,,,,,,,,,,,,,,,,,,,,,,,,,,,,,,,,,,,,,,,,,,,,,86,146917,21,Female,1,2024/03/13_12:27:20,YZ,None,
,,,,,,calibration,0,29,2,583,11,V,1,right,0.47586134100856725,0,0,,,,,,,,,,,,,,,,,,,,,1,,,,,,,,,,,,,,,,,,,,,,,,,,,,,,,,,,,,,,,,,,,,,,86,146917,21,Female,1,2024/03/13_12:27:20,YZ,None,
,,,,,,calibration,0,29,2,583,12,X,0,right,0.3649094839929603,1,0,,,,,,,,,,,,,,,,,,,,,1,,,,,,,,,,,,,,,,,,,,,,,,,,,,,,,,,,,,,,,,,,,,,,86,146917,21,Female,1,2024/03/13_12:27:20,YZ,None,
,,,,,,calibration,0,29,2,583,13,C,0,right,0.6033462269988377,1,0,,,,,,,,,,,,,,,,,,,,,1,,,,,,,,,,,,,,,,,,,,,,,,,,,,,,,,,,,,,,,,,,,,,,86,146917,21,Female,1,2024/03/13_12:27:20,YZ,None,
,,,,,,calibration,0,29,2,583,14,X,1,right,0.33973356400383636,0,0,,,,,,,,,,,,,,,,,,,,,1,,,,,,,,,,,,,,,,,,,,,,,,,,,,,,,,,,,,,,,,,,,,,,86,146917,21,Female,1,2024/03/13_12:27:20,YZ,None,
,,,,,,calibration,0,29,2,583,15,V,0,right,0.4965983470028732,1,0,,,,,,,,,,,,,,,,,,,,,1,,,,,,,,,,,,,,,,,,,,,,,,,,,,,,,,,,,,,,,,,,,,,,86,146917,21,Female,1,2024/03/13_12:27:20,YZ,None,
,,,,,,calibration,0,29,2,583,,,,,,,,0.6988636363636364,0.25,0.09090909090909091,0.9090909090909091,0.0,0.9090909090909091,0.42900337086369594,1,1,0,0,0,10,11,4,11,0,,,,1,,,,,,,,,,,,,,,,,,,,,,,,,,,,,,,,,,,,,,,,,,,,,,86,146917,21,Female,1,2024/03/13_12:27:20,YZ,None,
,,,,,,Calibration,0,,2,583,,,,,,,,,,,,,,,,,,,,,,,,,15,,,1,,,,,,,,,,,,,,,,,,,,,,,,,,,,,,,,,,,,,,,,,,,,,,86,146917,21,Female,1,2024/03/13_12:27:20,YZ,None,
,,,,,,calibration,0,13,2,679,1,N,0,right,0.3836744239961263,1,0,,,,,,,,,,,,,,,,,,,,,1,,,,,,,,,,,,,,,,,,,,,,,,,,,,,,,,,,,,,,,,,,,,,,86,146917,21,Female,1,2024/03/13_12:27:20,YZ,None,
,,,,,,calibration,0,13,2,679,2,Q,0,right,0.5302986589958891,1,0,,,,,,,,,,,,,,,,,,,,,1,,,,,,,,,,,,,,,,,,,,,,,,,,,,,,,,,,,,,,,,,,,,,,86,146917,21,Female,1,2024/03/13_12:27:20,YZ,None,
,,,,,,calibration,0,13,2,679,3,N,1,left,0.6067129760049284,1,0,,,,,,,,,,,,,,,,,,,,,1,,,,,,,,,,,,,,,,,,,,,,,,,,,,,,,,,,,,,,,,,,,,,,86,146917,21,Female,1,2024/03/13_12:27:20,YZ,None,
,,,,,,calibration,0,13,2,679,4,Q,1,right,0.46251925198885147,0,0,,,,,,,,,,,,,,,,,,,,,1,,,,,,,,,,,,,,,,,,,,,,,,,,,,,,,,,,,,,,,,,,,,,,86,146917,21,Female,1,2024/03/13_12:27:20,YZ,None,
,,,,,,calibration,0,13,2,679,5,S,0,right,0.3772565859981114,1,0,,,,,,,,,,,,,,,,,,,,,1,,,,,,,,,,,,,,,,,,,,,,,,,,,,,,,,,,,,,,,,,,,,,,86,146917,21,Female,1,2024/03/13_12:27:20,YZ,None,
,,,,,,calibration,0,13,2,679,6,Q,1,left,0.5443783569935476,1,0,,,,,,,,,,,,,,,,,,,,,1,,,,,,,,,,,,,,,,,,,,,,,,,,,,,,,,,,,,,,,,,,,,,,86,146917,21,Female,1,2024/03/13_12:27:20,YZ,None,
,,,,,,calibration,0,13,2,679,7,V,0,right,0.5452723230118863,1,0,,,,,,,,,,,,,,,,,,,,,1,,,,,,,,,,,,,,,,,,,,,,,,,,,,,,,,,,,,,,,,,,,,,,86,146917,21,Female,1,2024/03/13_12:27:20,YZ,None,
,,,,,,calibration,0,13,2,679,8,J,0,right,0.3806464829976903,1,0,,,,,,,,,,,,,,,,,,,,,1,,,,,,,,,,,,,,,,,,,,,,,,,,,,,,,,,,,,,,,,,,,,,,86,146917,21,Female,1,2024/03/13_12:27:20,YZ,None,
,,,,,,calibration,0,13,2,679,9,X,0,right,0.541833298993879,1,0,,,,,,,,,,,,,,,,,,,,,1,,,,,,,,,,,,,,,,,,,,,,,,,,,,,,,,,,,,,,,,,,,,,,86,146917,21,Female,1,2024/03/13_12:27:20,YZ,None,
,,,,,,calibration,0,13,2,679,10,F,0,right,0.4119493050093297,1,0,,,,,,,,,,,,,,,,,,,,,1,,,,,,,,,,,,,,,,,,,,,,,,,,,,,,,,,,,,,,,,,,,,,,86,146917,21,Female,1,2024/03/13_12:27:20,YZ,None,
,,,,,,calibration,0,13,2,679,11,C,0,right,0.3081581099977484,1,0,,,,,,,,,,,,,,,,,,,,,1,,,,,,,,,,,,,,,,,,,,,,,,,,,,,,,,,,,,,,,,,,,,,,86,146917,21,Female,1,2024/03/13_12:27:20,YZ,None,
,,,,,,calibration,0,13,2,679,12,F,1,left,0.4124941500049317,1,0,,,,,,,,,,,,,,,,,,,,,1,,,,,,,,,,,,,,,,,,,,,,,,,,,,,,,,,,,,,,,,,,,,,,86,146917,21,Female,1,2024/03/13_12:27:20,YZ,None,
,,,,,,calibration,0,13,2,679,13,N,0,right,0.3161119169963058,1,0,,,,,,,,,,,,,,,,,,,,,1,,,,,,,,,,,,,,,,,,,,,,,,,,,,,,,,,,,,,,,,,,,,,,86,146917,21,Female,1,2024/03/13_12:27:20,YZ,None,
,,,,,,calibration,0,13,2,679,14,X,0,right,0.39177733300311957,1,0,,,,,,,,,,,,,,,,,,,,,1,,,,,,,,,,,,,,,,,,,,,,,,,,,,,,,,,,,,,,,,,,,,,,86,146917,21,Female,1,2024/03/13_12:27:20,YZ,None,
,,,,,,calibration,0,13,2,679,,,,,,,,0.9375,0.75,0.0,1.0,0.0,1.0,0.4437916552851675,3,0,0,0,0,10,13,4,10,0,,,,1,,,,,,,,,,,,,,,,,,,,,,,,,,,,,,,,,,,,,,,,,,,,,,86,146917,21,Female,1,2024/03/13_12:27:20,YZ,None,
,,,,,,Calibration,0,,2,679,,,,,,,,,,,,,,,,,,,,,,,,,16,,,1,,,,,,,,,,,,,,,,,,,,,,,,,,,,,,,,,,,,,,,,,,,,,,86,146917,21,Female,1,2024/03/13_12:27:20,YZ,None,
,,,,,,CALIBRATION,0,,,,,,,,,,,,,,,,,,,,,,,,,,,,16,0.9375,679,1,,,,,,,,,,,,,,,,,,,,,,,,,,,,,,,,,,,,,,,,,,,,,,86,146917,21,Female,1,2024/03/13_12:27:20,YZ,None,
1,./instructions/inst_prac_1/Slide24.png,right,33.65651308299857,470.25711657700595,503.9136296600045,,,,,,,,,,,,,,,,,,,,,,,,,,,,,,,,,1,,,,,,,,,,,,,,,,,,,,,,,,,,,,,,,,,,,,,,,,,,,,,,86,146917,21,Female,1,2024/03/13_12:27:20,YZ,None,
2,./instructions/inst_prac_1/Slide25.png,right,2.3371989669976756,503.95238252100535,506.289581488003,,,,,,,,,,,,,,,,,,,,,,,,,,,,,,,,,1,,,,,,,,,,,,,,,,,,,,,,,,,,,,,,,,,,,,,,,,,,,,,,86,146917,21,Female,1,2024/03/13_12:27:20,YZ,None,
3,./instructions/inst_prac_1/Slide26.png,right,0.9697553180012619,506.31983456699527,507.28958988499653,,,,,,,,,,,,,,,,,,,,,,,,,,,,,,,,,1,,,,,,,,,,,,,,,,,,,,,,,,,,,,,,,,,,,,,,,,,,,,,,86,146917,21,Female,1,2024/03/13_12:27:20,YZ,None,
4,./instructions/inst_prac_1/Slide27.png,right,0.7067470230103936,507.3189579559985,508.0257049790089,,,,,,,,,,,,,,,,,,,,,,,,,,,,,,,,,1,,,,,,,,,,,,,,,,,,,,,,,,,,,,,,,,,,,,,,,,,,,,,,86,146917,21,Female,1,2024/03/13_12:27:20,YZ,None,
5,./instructions/inst_prac_1/Slide28.png,right,0.7713413029996445,508.0543790810043,508.82572038400394,,,,,,,,,,,,,,,,,,,,,,,,,,,,,,,,,1,,,,,,,,,,,,,,,,,,,,,,,,,,,,,,,,,,,,,,,,,,,,,,86,146917,21,Female,1,2024/03/13_12:27:20,YZ,None,
6,./instructions/inst_prac_1/Slide29.png,right,5.554594893998001,508.85503806300403,514.409632957002,,,,,,,,,,,,,,,,,,,,,,,,,,,,,,,,,1,,,,,,,,,,,,,,,,,,,,,,,,,,,,,,,,,,,,,,,,,,,,,,86,146917,21,Female,1,2024/03/13_12:27:20,YZ,None,
7,./instructions/inst_prac_1/Slide30.png,right,2.83246055500058,514.4413000140048,517.2737605690054,,,,,,,,,,,,,,,,,,,,,,,,,,,,,,,,,1,,,,,,,,,,,,,,,,,,,,,,,,,,,,,,,,,,,,,,,,,,,,,,86,146917,21,Female,1,2024/03/13_12:27:20,YZ,None,
,,,,,,practice,0,25,1,1250,1,X,0,right,2.753631066007074,1,0,,,,,,,,,,,,,,,,,,,,,1,,,,,,,,,,,,,,,,,,,,,,,,,,,,,,,,,,,,,,,,,,,,,,86,146917,21,Female,1,2024/03/13_12:27:20,YZ,None,
,,,,,,practice,0,25,1,1250,2,N,0,right,0.9971101970004383,1,0,,,,,,,,,,,,,,,,,,,,,1,,,,,,,,,,,,,,,,,,,,,,,,,,,,,,,,,,,,,,,,,,,,,,86,146917,21,Female,1,2024/03/13_12:27:20,YZ,None,
,,,,,,practice,0,25,1,1250,3,V,0,right,0.7554247280058917,1,0,,,,,,,,,,,,,,,,,,,,,1,,,,,,,,,,,,,,,,,,,,,,,,,,,,,,,,,,,,,,,,,,,,,,86,146917,21,Female,1,2024/03/13_12:27:20,YZ,None,
,,,,,,practice,0,25,1,1250,4,Q,0,right,0.46406418200058397,1,0,,,,,,,,,,,,,,,,,,,,,1,,,,,,,,,,,,,,,,,,,,,,,,,,,,,,,,,,,,,,,,,,,,,,86,146917,21,Female,1,2024/03/13_12:27:20,YZ,None,
,,,,,,practice,0,25,1,1250,5,Q,1,left,0.6772056210029405,1,0,,,,,,,,,,,,,,,,,,,,,1,,,,,,,,,,,,,,,,,,,,,,,,,,,,,,,,,,,,,,,,,,,,,,86,146917,21,Female,1,2024/03/13_12:27:20,YZ,None,
,,,,,,practice,0,25,1,1250,6,C,0,right,0.7890030749986181,1,0,,,,,,,,,,,,,,,,,,,,,1,,,,,,,,,,,,,,,,,,,,,,,,,,,,,,,,,,,,,,,,,,,,,,86,146917,21,Female,1,2024/03/13_12:27:20,YZ,None,
,,,,,,practice,0,25,1,1250,7,C,1,left,0.5313591940066544,1,0,,,,,,,,,,,,,,,,,,,,,1,,,,,,,,,,,,,,,,,,,,,,,,,,,,,,,,,,,,,,,,,,,,,,86,146917,21,Female,1,2024/03/13_12:27:20,YZ,None,
,,,,,,practice,0,25,1,1250,8,S,0,right,0.587582262000069,1,0,,,,,,,,,,,,,,,,,,,,,1,,,,,,,,,,,,,,,,,,,,,,,,,,,,,,,,,,,,,,,,,,,,,,86,146917,21,Female,1,2024/03/13_12:27:20,YZ,None,
,,,,,,practice,0,25,1,1250,9,S,1,left,0.3903273019968765,1,0,,,,,,,,,,,,,,,,,,,,,1,,,,,,,,,,,,,,,,,,,,,,,,,,,,,,,,,,,,,,,,,,,,,,86,146917,21,Female,1,2024/03/13_12:27:20,YZ,None,
,,,,,,practice,0,25,1,1250,10,J,0,right,0.5420149650017265,1,0,,,,,,,,,,,,,,,,,,,,,1,,,,,,,,,,,,,,,,,,,,,,,,,,,,,,,,,,,,,,,,,,,,,,86,146917,21,Female,1,2024/03/13_12:27:20,YZ,None,
,,,,,,practice,0,25,1,1250,,,,,,,,1.0,1.0,0.0,1.0,0.0,1.0,0.8487722592020873,3,0,0,0,0,7,10,3,7,0,,,,1,,,,,,,,,,,,,,,,,,,,,,,,,,,,,,,,,,,,,,,,,,,,,,86,146917,21,Female,1,2024/03/13_12:27:20,YZ,None,
1,./instructions/inst_prac_1_next/Slide35.png,right,2.4872435459983535,536.3064647889987,538.7937083349971,,,,,,,,,,,,,,,,,,,,,,,,,,,,,,,,,1,,,,,,,,,,,,,,,,,,,,,,,,,,,,,,,,,,,,,,,,,,,,,,86,146917,21,Female,1,2024/03/13_12:27:20,YZ,None,
,,,,,,practice,0,34,1,679,1,Q,0,right,0.900375945988344,1,0,,,,,,,,,,,,,,,,,,,,,1,,,,,,,,,,,,,,,,,,,,,,,,,,,,,,,,,,,,,,,,,,,,,,86,146917,21,Female,1,2024/03/13_12:27:20,YZ,None,
,,,,,,practice,0,34,1,679,2,C,0,right,0.476832774002105,1,0,,,,,,,,,,,,,,,,,,,,,1,,,,,,,,,,,,,,,,,,,,,,,,,,,,,,,,,,,,,,,,,,,,,,86,146917,21,Female,1,2024/03/13_12:27:20,YZ,None,
,,,,,,practice,0,34,1,679,3,C,1,left,0.4369847249909071,1,0,,,,,,,,,,,,,,,,,,,,,1,,,,,,,,,,,,,,,,,,,,,,,,,,,,,,,,,,,,,,,,,,,,,,86,146917,21,Female,1,2024/03/13_12:27:20,YZ,None,
,,,,,,practice,0,34,1,679,4,Q,0,right,0.4396534069965128,1,0,,,,,,,,,,,,,,,,,,,,,1,,,,,,,,,,,,,,,,,,,,,,,,,,,,,,,,,,,,,,,,,,,,,,86,146917,21,Female,1,2024/03/13_12:27:20,YZ,None,
,,,,,,practice,0,34,1,679,5,X,0,right,0.5128378139925189,1,0,,,,,,,,,,,,,,,,,,,,,1,,,,,,,,,,,,,,,,,,,,,,,,,,,,,,,,,,,,,,,,,,,,,,86,146917,21,Female,1,2024/03/13_12:27:20,YZ,None,
,,,,,,practice,0,34,1,679,6,X,1,left,0.4341474310058402,1,0,,,,,,,,,,,,,,,,,,,,,1,,,,,,,,,,,,,,,,,,,,,,,,,,,,,,,,,,,,,,,,,,,,,,86,146917,21,Female,1,2024/03/13_12:27:20,YZ,None,
,,,,,,practice,0,34,1,679,7,J,0,right,0.4157656019960996,1,0,,,,,,,,,,,,,,,,,,,,,1,,,,,,,,,,,,,,,,,,,,,,,,,,,,,,,,,,,,,,,,,,,,,,86,146917,21,Female,1,2024/03/13_12:27:20,YZ,None,
,,,,,,practice,0,34,1,679,8,N,0,right,0.5398742720135488,1,0,,,,,,,,,,,,,,,,,,,,,1,,,,,,,,,,,,,,,,,,,,,,,,,,,,,,,,,,,,,,,,,,,,,,86,146917,21,Female,1,2024/03/13_12:27:20,YZ,None,
,,,,,,practice,0,34,1,679,9,X,0,right,0.6095613539946498,1,0,,,,,,,,,,,,,,,,,,,,,1,,,,,,,,,,,,,,,,,,,,,,,,,,,,,,,,,,,,,,,,,,,,,,86,146917,21,Female,1,2024/03/13_12:27:20,YZ,None,
,,,,,,practice,0,34,1,679,10,S,0,right,0.5325031810061773,1,0,,,,,,,,,,,,,,,,,,,,,1,,,,,,,,,,,,,,,,,,,,,,,,,,,,,,,,,,,,,,,,,,,,,,86,146917,21,Female,1,2024/03/13_12:27:20,YZ,None,
,,,,,,practice,0,34,1,679,11,V,0,right,0.4661027949914569,1,0,,,,,,,,,,,,,,,,,,,,,1,,,,,,,,,,,,,,,,,,,,,,,,,,,,,,,,,,,,,,,,,,,,,,86,146917,21,Female,1,2024/03/13_12:27:20,YZ,None,
,,,,,,practice,0,34,1,679,12,V,1,left,0.4801873389951652,1,0,,,,,,,,,,,,,,,,,,,,,1,,,,,,,,,,,,,,,,,,,,,,,,,,,,,,,,,,,,,,,,,,,,,,86,146917,21,Female,1,2024/03/13_12:27:20,YZ,None,
,,,,,,practice,0,34,1,679,13,Q,0,right,0.5394838499923935,1,0,,,,,,,,,,,,,,,,,,,,,1,,,,,,,,,,,,,,,,,,,,,,,,,,,,,,,,,,,,,,,,,,,,,,86,146917,21,Female,1,2024/03/13_12:27:20,YZ,None,
,,,,,,practice,0,34,1,679,14,Q,1,left,0.6606248349999078,1,0,,,,,,,,,,,,,,,,,,,,,1,,,,,,,,,,,,,,,,,,,,,,,,,,,,,,,,,,,,,,,,,,,,,,86,146917,21,Female,1,2024/03/13_12:27:20,YZ,None,
,,,,,,practice,0,34,1,679,,,,,,,,1.0,1.0,0.0,1.0,0.0,1.0,0.5317810946404019,4,0,0,0,0,10,14,4,10,0,,,,1,,,,,,,,,,,,,,,,,,,,,,,,,,,,,,,,,,,,,,,,,,,,,,86,146917,21,Female,1,2024/03/13_12:27:20,YZ,None,
,,,,,,practice,0,14,1,679,1,S,0,right,1.0960802319896175,1,0,,,,,,,,,,,,,,,,,,,,,1,,,,,,,,,,,,,,,,,,,,,,,,,,,,,,,,,,,,,,,,,,,,,,86,146917,21,Female,1,2024/03/13_12:27:20,YZ,None,
,,,,,,practice,0,14,1,679,2,S,1,left,0.5481548009993276,1,0,,,,,,,,,,,,,,,,,,,,,1,,,,,,,,,,,,,,,,,,,,,,,,,,,,,,,,,,,,,,,,,,,,,,86,146917,21,Female,1,2024/03/13_12:27:20,YZ,None,
,,,,,,practice,0,14,1,679,3,N,0,right,0.5254572839912726,1,0,,,,,,,,,,,,,,,,,,,,,1,,,,,,,,,,,,,,,,,,,,,,,,,,,,,,,,,,,,,,,,,,,,,,86,146917,21,Female,1,2024/03/13_12:27:20,YZ,None,
,,,,,,practice,0,14,1,679,4,V,0,right,0.5483504310104763,1,0,,,,,,,,,,,,,,,,,,,,,1,,,,,,,,,,,,,,,,,,,,,,,,,,,,,,,,,,,,,,,,,,,,,,86,146917,21,Female,1,2024/03/13_12:27:20,YZ,None,
,,,,,,practice,0,14,1,679,5,V,1,left,0.4961920689966064,1,0,,,,,,,,,,,,,,,,,,,,,1,,,,,,,,,,,,,,,,,,,,,,,,,,,,,,,,,,,,,,,,,,,,,,86,146917,21,Female,1,2024/03/13_12:27:20,YZ,None,
,,,,,,practice,0,14,1,679,6,S,0,right,0.5208107329963241,1,0,,,,,,,,,,,,,,,,,,,,,1,,,,,,,,,,,,,,,,,,,,,,,,,,,,,,,,,,,,,,,,,,,,,,86,146917,21,Female,1,2024/03/13_12:27:20,YZ,None,
,,,,,,practice,0,14,1,679,7,S,1,left,0.5433804590138607,1,0,,,,,,,,,,,,,,,,,,,,,1,,,,,,,,,,,,,,,,,,,,,,,,,,,,,,,,,,,,,,,,,,,,,,86,146917,21,Female,1,2024/03/13_12:27:20,YZ,None,
,,,,,,practice,0,14,1,679,8,Q,0,right,0.5641629110032227,1,0,,,,,,,,,,,,,,,,,,,,,1,,,,,,,,,,,,,,,,,,,,,,,,,,,,,,,,,,,,,,,,,,,,,,86,146917,21,Female,1,2024/03/13_12:27:20,YZ,None,
,,,,,,practice,0,14,1,679,9,N,0,right,0.5001964749972103,1,0,,,,,,,,,,,,,,,,,,,,,1,,,,,,,,,,,,,,,,,,,,,,,,,,,,,,,,,,,,,,,,,,,,,,86,146917,21,Female,1,2024/03/13_12:27:20,YZ,None,
,,,,,,practice,0,14,1,679,10,F,0,right,0.5198121599969454,1,0,,,,,,,,,,,,,,,,,,,,,1,,,,,,,,,,,,,,,,,,,,,,,,,,,,,,,,,,,,,,,,,,,,,,86,146917,21,Female,1,2024/03/13_12:27:20,YZ,None,
,,,,,,practice,0,14,1,679,11,F,1,left,0.537232718008454,1,0,,,,,,,,,,,,,,,,,,,,,1,,,,,,,,,,,,,,,,,,,,,,,,,,,,,,,,,,,,,,,,,,,,,,86,146917,21,Female,1,2024/03/13_12:27:20,YZ,None,
,,,,,,practice,0,14,1,679,12,V,0,right,0.4918336639966583,1,0,,,,,,,,,,,,,,,,,,,,,1,,,,,,,,,,,,,,,,,,,,,,,,,,,,,,,,,,,,,,,,,,,,,,86,146917,21,Female,1,2024/03/13_12:27:20,YZ,None,
,,,,,,practice,0,14,1,679,13,X,0,right,0.5398811630002456,1,0,,,,,,,,,,,,,,,,,,,,,1,,,,,,,,,,,,,,,,,,,,,,,,,,,,,,,,,,,,,,,,,,,,,,86,146917,21,Female,1,2024/03/13_12:27:20,YZ,None,
,,,,,,practice,0,14,1,679,14,N,0,right,0.7375257329986198,1,0,,,,,,,,,,,,,,,,,,,,,1,,,,,,,,,,,,,,,,,,,,,,,,,,,,,,,,,,,,,,,,,,,,,,86,146917,21,Female,1,2024/03/13_12:27:20,YZ,None,
,,,,,,practice,0,14,1,679,,,,,,,,1.0,1.0,0.0,1.0,0.0,1.0,0.5835050594999173,4,0,0,0,0,10,14,4,10,0,,,,1,,,,,,,,,,,,,,,,,,,,,,,,,,,,,,,,,,,,,,,,,,,,,,86,146917,21,Female,1,2024/03/13_12:27:20,YZ,None,
1,./instructions/inst_prac_3/Slide37.png,right,6.813849244004814,573.2200513279968,580.0339005720016,,,,,,,,,,,,,,,,,,,,,,,,,,,,,,,,,1,,,,,,,,,,,,,,,,,,,,,,,,,,,,,,,,,,,,,,,,,,,,,,86,146917,21,Female,1,2024/03/13_12:27:20,YZ,None,
2,./instructions/inst_prac_3/Slide38.png,right,2.0343407850014046,580.0714775670058,582.1058183520072,,,,,,,,,,,,,,,,,,,,,,,,,,,,,,,,,1,,,,,,,,,,,,,,,,,,,,,,,,,,,,,,,,,,,,,,,,,,,,,,86,146917,21,Female,1,2024/03/13_12:27:20,YZ,None,
3,./instructions/inst_prac_3/Slide39.png,right,1.362023940004292,582.1358034769946,583.4978274169989,,,,,,,,,,,,,,,,,,,,,,,,,,,,,,,,,1,,,,,,,,,,,,,,,,,,,,,,,,,,,,,,,,,,,,,,,,,,,,,,86,146917,21,Female,1,2024/03/13_12:27:20,YZ,None,
4,./instructions/inst_prac_3/Slide40.png,right,1.259430470992811,583.5263602430059,584.7857907139987,,,,,,,,,,,,,,,,,,,,,,,,,,,,,,,,,1,,,,,,,,,,,,,,,,,,,,,,,,,,,,,,,,,,,,,,,,,,,,,,86,146917,21,Female,1,2024/03/13_12:27:20,YZ,None,
5,./instructions/inst_prac_3/Slide41.png,right,1.797628963002353,584.812103520002,586.6097324830043,,,,,,,,,,,,,,,,,,,,,,,,,,,,,,,,,1,,,,,,,,,,,,,,,,,,,,,,,,,,,,,,,,,,,,,,,,,,,,,,86,146917,21,Female,1,2024/03/13_12:27:20,YZ,None,
6,./instructions/inst_prac_3/Slide42.png,right,1.826813214996946,586.638857523998,588.465670738995,,,,,,,,,,,,,,,,,,,,,,,,,,,,,,,,,1,,,,,,,,,,,,,,,,,,,,,,,,,,,,,,,,,,,,,,,,,,,,,,86,146917,21,Female,1,2024/03/13_12:27:20,YZ,None,
7,./instructions/inst_prac_3/Slide43.png,right,1.7057852629950503,588.4959306960081,590.2017159590032,,,,,,,,,,,,,,,,,,,,,,,,,,,,,,,,,1,,,,,,,,,,,,,,,,,,,,,,,,,,,,,,,,,,,,,,,,,,,,,,86,146917,21,Female,1,2024/03/13_12:27:20,YZ,None,
8,./instructions/inst_prac_3/Slide44.png,right,2.049687201011693,590.2319836039969,592.2816708050086,,,,,,,,,,,,,,,,,,,,,,,,,,,,,,,,,1,,,,,,,,,,,,,,,,,,,,,,,,,,,,,,,,,,,,,,,,,,,,,,86,146917,21,Female,1,2024/03/13_12:27:20,YZ,None,
,,,,,,practice,0,4,3,788,1,C,0,right,0.7550997149955947,1,0,,,,,,,,,,,,,,,,,,,,,1,,,,,,,,,,,,,,,,,,,,,,,,,,,,,,,,,,,,,,,,,,,,,,86,146917,21,Female,1,2024/03/13_12:27:20,YZ,None,
,,,,,,practice,0,4,3,788,2,Q,0,right,0.9932788040023297,1,0,,,,,,,,,,,,,,,,,,,,,1,,,,,,,,,,,,,,,,,,,,,,,,,,,,,,,,,,,,,,,,,,,,,,86,146917,21,Female,1,2024/03/13_12:27:20,YZ,None,
,,,,,,practice,0,4,3,788,3,V,0,right,1.3718873360048747,1,0,,,,,,,,,,,,,,,,,,,,,1,,,,,,,,,,,,,,,,,,,,,,,,,,,,,,,,,,,,,,,,,,,,,,86,146917,21,Female,1,2024/03/13_12:27:20,YZ,None,
,,,,,,practice,0,4,3,788,4,F,0,right,1.0444443629967282,1,0,,,,,,,,,,,,,,,,,,,,,1,,,,,,,,,,,,,,,,,,,,,,,,,,,,,,,,,,,,,,,,,,,,,,86,146917,21,Female,1,2024/03/13_12:27:20,YZ,None,
,,,,,,practice,0,4,3,788,5,Q,1,left,1.4674705149955116,1,0,,,,,,,,,,,,,,,,,,,,,1,,,,,,,,,,,,,,,,,,,,,,,,,,,,,,,,,,,,,,,,,,,,,,86,146917,21,Female,1,2024/03/13_12:27:20,YZ,None,
,,,,,,practice,0,4,3,788,6,V,1,left,0.7322291070013307,1,0,,,,,,,,,,,,,,,,,,,,,1,,,,,,,,,,,,,,,,,,,,,,,,,,,,,,,,,,,,,,,,,,,,,,86,146917,21,Female,1,2024/03/13_12:27:20,YZ,None,
,,,,,,practice,0,4,3,788,7,X,0,right,1.1077153689984698,1,0,,,,,,,,,,,,,,,,,,,,,1,,,,,,,,,,,,,,,,,,,,,,,,,,,,,,,,,,,,,,,,,,,,,,86,146917,21,Female,1,2024/03/13_12:27:20,YZ,None,
,,,,,,practice,0,4,3,788,8,Q,1,left,0.8157923060061876,1,0,,,,,,,,,,,,,,,,,,,,,1,,,,,,,,,,,,,,,,,,,,,,,,,,,,,,,,,,,,,,,,,,,,,,86,146917,21,Female,1,2024/03/13_12:27:20,YZ,None,
,,,,,,practice,0,4,3,788,9,N,0,right,1.508146927008056,1,0,,,,,,,,,,,,,,,,,,,,,1,,,,,,,,,,,,,,,,,,,,,,,,,,,,,,,,,,,,,,,,,,,,,,86,146917,21,Female,1,2024/03/13_12:27:20,YZ,None,
,,,,,,practice,0,4,3,788,10,V,0,right,1.3521200319955824,1,0,,,,,,,,,,,,,,,,,,,,,1,,,,,,,,,,,,,,,,,,,,,,,,,,,,,,,,,,,,,,,,,,,,,,86,146917,21,Female,1,2024/03/13_12:27:20,YZ,None,
,,,,,,practice,0,4,3,788,11,S,0,right,0.8010122410050826,1,0,,,,,,,,,,,,,,,,,,,,,1,,,,,,,,,,,,,,,,,,,,,,,,,,,,,,,,,,,,,,,,,,,,,,86,146917,21,Female,1,2024/03/13_12:27:20,YZ,None,
,,,,,,practice,0,4,3,788,12,N,1,left,0.678763511008583,1,0,,,,,,,,,,,,,,,,,,,,,1,,,,,,,,,,,,,,,,,,,,,,,,,,,,,,,,,,,,,,,,,,,,,,86,146917,21,Female,1,2024/03/13_12:27:20,YZ,None,
,,,,,,practice,0,4,3,788,13,S,0,right,0.8195357069926104,1,0,,,,,,,,,,,,,,,,,,,,,1,,,,,,,,,,,,,,,,,,,,,,,,,,,,,,,,,,,,,,,,,,,,,,86,146917,21,Female,1,2024/03/13_12:27:20,YZ,None,
,,,,,,practice,0,4,3,788,,,,,,,,1.0,1.0,0.0,1.0,0.0,1.0,1.0344227640777648,4,0,0,0,0,9,13,4,9,0,,,,1,,,,,,,,,,,,,,,,,,,,,,,,,,,,,,,,,,,,,,,,,,,,,,86,146917,21,Female,1,2024/03/13_12:27:20,YZ,None,
1,./instructions/inst_prac_3_next/Slide49.png,right,1.207704279004247,619.4501368490019,620.6578411280061,,,,,,,,,,,,,,,,,,,,,,,,,,,,,,,,,1,,,,,,,,,,,,,,,,,,,,,,,,,,,,,,,,,,,,,,,,,,,,,,86,146917,21,Female,1,2024/03/13_12:27:20,YZ,None,
,,,,,,practice,0,18,3,679,1,J,0,right,0.5642602829902899,1,0,,,,,,,,,,,,,,,,,,,,,1,,,,,,,,,,,,,,,,,,,,,,,,,,,,,,,,,,,,,,,,,,,,,,86,146917,21,Female,1,2024/03/13_12:27:20,YZ,None,
,,,,,,practice,0,18,3,679,2,S,0,right,0.3722064479952678,1,0,,,,,,,,,,,,,,,,,,,,,1,,,,,,,,,,,,,,,,,,,,,,,,,,,,,,,,,,,,,,,,,,,,,,86,146917,21,Female,1,2024/03/13_12:27:20,YZ,None,
,,,,,,practice,0,18,3,679,3,X,0,right,0.41757445500115864,1,0,,,,,,,,,,,,,,,,,,,,,1,,,,,,,,,,,,,,,,,,,,,,,,,,,,,,,,,,,,,,,,,,,,,,86,146917,21,Female,1,2024/03/13_12:27:20,YZ,None,
,,,,,,practice,0,18,3,679,4,V,0,right,0.6948620499897515,1,0,,,,,,,,,,,,,,,,,,,,,1,,,,,,,,,,,,,,,,,,,,,,,,,,,,,,,,,,,,,,,,,,,,,,86,146917,21,Female,1,2024/03/13_12:27:20,YZ,None,
,,,,,,practice,0,18,3,679,5,S,1,left,0.7053607540001394,1,0,,,,,,,,,,,,,,,,,,,,,1,,,,,,,,,,,,,,,,,,,,,,,,,,,,,,,,,,,,,,,,,,,,,,86,146917,21,Female,1,2024/03/13_12:27:20,YZ,None,
,,,,,,practice,0,18,3,679,6,N,0,right,1.8165026500064414,1,0,,,,,,,,,,,,,,,,,,,,,1,,,,,,,,,,,,,,,,,,,,,,,,,,,,,,,,,,,,,,,,,,,,,,86,146917,21,Female,1,2024/03/13_12:27:20,YZ,None,
,,,,,,practice,0,18,3,679,7,J,0,right,2.0740139589906903,1,0,,,,,,,,,,,,,,,,,,,,,1,,,,,,,,,,,,,,,,,,,,,,,,,,,,,,,,,,,,,,,,,,,,,,86,146917,21,Female,1,2024/03/13_12:27:20,YZ,None,
,,,,,,practice,0,18,3,679,8,J,0,left,1.2754338689992437,0,0,,,,,,,,,,,,,,,,,,,,,1,,,,,,,,,,,,,,,,,,,,,,,,,,,,,,,,,,,,,,,,,,,,,,86,146917,21,Female,1,2024/03/13_12:27:20,YZ,None,
,,,,,,practice,0,18,3,679,9,N,1,right,2.4120758110075258,0,0,,,,,,,,,,,,,,,,,,,,,1,,,,,,,,,,,,,,,,,,,,,,,,,,,,,,,,,,,,,,,,,,,,,,86,146917,21,Female,1,2024/03/13_12:27:20,YZ,None,
,,,,,,practice,0,18,3,679,10,X,0,right,1.4278968340076972,1,0,,,,,,,,,,,,,,,,,,,,,1,,,,,,,,,,,,,,,,,,,,,,,,,,,,,,,,,,,,,,,,,,,,,,86,146917,21,Female,1,2024/03/13_12:27:20,YZ,None,
,,,,,,practice,0,18,3,679,11,J,1,left,0.5884261030005291,1,0,,,,,,,,,,,,,,,,,,,,,1,,,,,,,,,,,,,,,,,,,,,,,,,,,,,,,,,,,,,,,,,,,,,,86,146917,21,Female,1,2024/03/13_12:27:20,YZ,None,
,,,,,,practice,0,18,3,679,12,J,0,left,0.5083424359909259,0,0,,,,,,,,,,,,,,,,,,,,,1,,,,,,,,,,,,,,,,,,,,,,,,,,,,,,,,,,,,,,,,,,,,,,86,146917,21,Female,1,2024/03/13_12:27:20,YZ,None,
,,,,,,practice,0,18,3,679,13,N,0,left,0.6079918640025426,0,0,,,,,,,,,,,,,,,,,,,,,1,,,,,,,,,,,,,,,,,,,,,,,,,,,,,,,,,,,,,,,,,,,,,,86,146917,21,Female,1,2024/03/13_12:27:20,YZ,None,
,,,,,,practice,0,18,3,679,14,J,1,right,0.7999452210060554,0,0,,,,,,,,,,,,,,,,,,,,,1,,,,,,,,,,,,,,,,,,,,,,,,,,,,,,,,,,,,,,,,,,,,,,86,146917,21,Female,1,2024/03/13_12:27:20,YZ,None,
,,,,,,practice,0,18,3,679,,,,,,,,0.65,0.5,0.3,0.7,0.0,0.7,1.0189209097848757,2,3,0,0,0,7,9,4,10,0,,,,1,,,,,,,,,,,,,,,,,,,,,,,,,,,,,,,,,,,,,,,,,,,,,,86,146917,21,Female,1,2024/03/13_12:27:20,YZ,None,
,,,,,,practice,0,8,3,679,1,Q,0,right,0.7480313909909455,1,0,,,,,,,,,,,,,,,,,,,,,1,,,,,,,,,,,,,,,,,,,,,,,,,,,,,,,,,,,,,,,,,,,,,,86,146917,21,Female,1,2024/03/13_12:27:20,YZ,None,
,,,,,,practice,0,8,3,679,2,V,0,right,1.1041579629963962,1,0,,,,,,,,,,,,,,,,,,,,,1,,,,,,,,,,,,,,,,,,,,,,,,,,,,,,,,,,,,,,,,,,,,,,86,146917,21,Female,1,2024/03/13_12:27:20,YZ,None,
,,,,,,practice,0,8,3,679,3,F,0,right,0.6154521179996664,1,0,,,,,,,,,,,,,,,,,,,,,1,,,,,,,,,,,,,,,,,,,,,,,,,,,,,,,,,,,,,,,,,,,,,,86,146917,21,Female,1,2024/03/13_12:27:20,YZ,None,
,,,,,,practice,0,8,3,679,4,Q,1,left,0.4424888270004885,1,0,,,,,,,,,,,,,,,,,,,,,1,,,,,,,,,,,,,,,,,,,,,,,,,,,,,,,,,,,,,,,,,,,,,,86,146917,21,Female,1,2024/03/13_12:27:20,YZ,None,
,,,,,,practice,0,8,3,679,5,V,1,left,0.9545243580068927,1,0,,,,,,,,,,,,,,,,,,,,,1,,,,,,,,,,,,,,,,,,,,,,,,,,,,,,,,,,,,,,,,,,,,,,86,146917,21,Female,1,2024/03/13_12:27:20,YZ,None,
,,,,,,practice,0,8,3,679,6,X,0,right,0.9330841600021813,1,0,,,,,,,,,,,,,,,,,,,,,1,,,,,,,,,,,,,,,,,,,,,,,,,,,,,,,,,,,,,,,,,,,,,,86,146917,21,Female,1,2024/03/13_12:27:20,YZ,None,
,,,,,,practice,0,8,3,679,7,N,0,right,1.9211563120043138,1,0,,,,,,,,,,,,,,,,,,,,,1,,,,,,,,,,,,,,,,,,,,,,,,,,,,,,,,,,,,,,,,,,,,,,86,146917,21,Female,1,2024/03/13_12:27:20,YZ,None,
,,,,,,practice,0,8,3,679,8,S,0,right,0.7648493949964177,1,0,,,,,,,,,,,,,,,,,,,,,1,,,,,,,,,,,,,,,,,,,,,,,,,,,,,,,,,,,,,,,,,,,,,,86,146917,21,Female,1,2024/03/13_12:27:20,YZ,None,
,,,,,,practice,0,8,3,679,9,J,0,right,0.762632444006158,1,0,,,,,,,,,,,,,,,,,,,,,1,,,,,,,,,,,,,,,,,,,,,,,,,,,,,,,,,,,,,,,,,,,,,,86,146917,21,Female,1,2024/03/13_12:27:20,YZ,None,
,,,,,,practice,0,8,3,679,10,N,1,left,1.2711052950035082,1,0,,,,,,,,,,,,,,,,,,,,,1,,,,,,,,,,,,,,,,,,,,,,,,,,,,,,,,,,,,,,,,,,,,,,86,146917,21,Female,1,2024/03/13_12:27:20,YZ,None,
,,,,,,practice,0,8,3,679,11,N,0,right,0.9482730930030812,1,0,,,,,,,,,,,,,,,,,,,,,1,,,,,,,,,,,,,,,,,,,,,,,,,,,,,,,,,,,,,,,,,,,,,,86,146917,21,Female,1,2024/03/13_12:27:20,YZ,None,
,,,,,,practice,0,8,3,679,12,X,0,right,1.7642966979910852,1,0,,,,,,,,,,,,,,,,,,,,,1,,,,,,,,,,,,,,,,,,,,,,,,,,,,,,,,,,,,,,,,,,,,,,86,146917,21,Female,1,2024/03/13_12:27:20,YZ,None,
,,,,,,practice,0,8,3,679,13,V,0,right,1.831507196999155,1,0,,,,,,,,,,,,,,,,,,,,,1,,,,,,,,,,,,,,,,,,,,,,,,,,,,,,,,,,,,,,,,,,,,,,86,146917,21,Female,1,2024/03/13_12:27:20,YZ,None,
,,,,,,practice,0,8,3,679,14,N,1,left,0.985598913001013,1,0,,,,,,,,,,,,,,,,,,,,,1,,,,,,,,,,,,,,,,,,,,,,,,,,,,,,,,,,,,,,,,,,,,,,86,146917,21,Female,1,2024/03/13_12:27:20,YZ,None,
,,,,,,practice,0,8,3,679,,,,,,,,1.0,1.0,0.0,1.0,0.0,1.0,1.0747970117143788,4,0,0,0,0,10,14,4,10,0,,,,1,,,,,,,,,,,,,,,,,,,,,,,,,,,,,,,,,,,,,,,,,,,,,,86,146917,21,Female,1,2024/03/13_12:27:20,YZ,None,
1,./instructions/inst_prac_main/Slide51.png,right,2.2767005500063533,668.765002989996,671.0417035400023,,,,,,,,,,,,,,,,,,,,,,,,,,,,,,,,,1,,,,,,,,,,,,,,,,,,,,,,,,,,,,,,,,,,,,,,,,,,,,,,86,146917,21,Female,1,2024/03/13_12:27:20,YZ,None,
2,./instructions/inst_prac_main/Slide52.png,right,44.6991939790023,671.070710562999,715.7699045420013,,,,,,,,,,,,,,,,,,,,,,,,,,,,,,,,,1,,,,,,,,,,,,,,,,,,,,,,,,,,,,,,,,,,,,,,,,,,,,,,86,146917,21,Female,1,2024/03/13_12:27:20,YZ,None,
3,./instructions/inst_prac_main/Slide53.png,right,6.129608451999957,715.800003167009,721.9296116190089,,,,,,,,,,,,,,,,,,,,,,,,,,,,,,,,,1,,,,,,,,,,,,,,,,,,,,,,,,,,,,,,,,,,,,,,,,,,,,,,86,146917,21,Female,1,2024/03/13_12:27:20,YZ,None,
4,./instructions/inst_prac_main/Slide54.png,right,12.402468879998196,721.9591855190083,734.3616543990065,,,,,,,,,,,,,,,,,,,,,,,,,,,,,,,,,1,,,,,,,,,,,,,,,,,,,,,,,,,,,,,,,,,,,,,,,,,,,,,,86,146917,21,Female,1,2024/03/13_12:27:20,YZ,None,
,,,,,,practice_main,0,1,1,679,1,J,0,right,0.6440412479860242,1,0,,,,,,,,,,,,,,,,,,,,,1,,,,,,,,,,,,,,,,,,,,,,,,,,,,,,,,,,,,,,,,,,,,,,86,146917,21,Female,1,2024/03/13_12:27:20,YZ,None,
,,,,,,practice_main,0,1,1,679,2,N,0,right,0.7237404799961951,1,0,,,,,,,,,,,,,,,,,,,,,1,,,,,,,,,,,,,,,,,,,,,,,,,,,,,,,,,,,,,,,,,,,,,,86,146917,21,Female,1,2024/03/13_12:27:20,YZ,None,
,,,,,,practice_main,0,1,1,679,3,N,1,left,0.6744707350007957,1,0,,,,,,,,,,,,,,,,,,,,,1,,,,,,,,,,,,,,,,,,,,,,,,,,,,,,,,,,,,,,,,,,,,,,86,146917,21,Female,1,2024/03/13_12:27:20,YZ,None,
,,,,,,practice_main,0,1,1,679,4,J,0,right,0.5517396930081304,1,0,,,,,,,,,,,,,,,,,,,,,1,,,,,,,,,,,,,,,,,,,,,,,,,,,,,,,,,,,,,,,,,,,,,,86,146917,21,Female,1,2024/03/13_12:27:20,YZ,None,
,,,,,,practice_main,0,1,1,679,5,J,1,left,0.545979319998878,1,0,,,,,,,,,,,,,,,,,,,,,1,,,,,,,,,,,,,,,,,,,,,,,,,,,,,,,,,,,,,,,,,,,,,,86,146917,21,Female,1,2024/03/13_12:27:20,YZ,None,
,,,,,,practice_main,0,1,1,679,6,C,0,right,0.3996094309986802,1,0,,,,,,,,,,,,,,,,,,,,,1,,,,,,,,,,,,,,,,,,,,,,,,,,,,,,,,,,,,,,,,,,,,,,86,146917,21,Female,1,2024/03/13_12:27:20,YZ,None,
,,,,,,practice_main,0,1,1,679,7,J,0,right,0.7988084239914315,1,0,,,,,,,,,,,,,,,,,,,,,1,,,,,,,,,,,,,,,,,,,,,,,,,,,,,,,,,,,,,,,,,,,,,,86,146917,21,Female,1,2024/03/13_12:27:20,YZ,None,
,,,,,,practice_main,0,1,1,679,8,J,1,right,0.8709395979967667,0,0,,,,,,,,,,,,,,,,,,,,,1,,,,,,,,,,,,,,,,,,,,,,,,,,,,,,,,,,,,,,,,,,,,,,86,146917,21,Female,1,2024/03/13_12:27:20,YZ,None,
,,,,,,practice_main,0,1,1,679,9,Q,0,right,0.5456914240057813,1,0,,,,,,,,,,,,,,,,,,,,,1,,,,,,,,,,,,,,,,,,,,,,,,,,,,,,,,,,,,,,,,,,,,,,86,146917,21,Female,1,2024/03/13_12:27:20,YZ,None,
,,,,,,practice_main,0,1,1,679,10,C,0,right,0.5313176479976391,1,0,,,,,,,,,,,,,,,,,,,,,1,,,,,,,,,,,,,,,,,,,,,,,,,,,,,,,,,,,,,,,,,,,,,,86,146917,21,Female,1,2024/03/13_12:27:20,YZ,None,
,,,,,,practice_main,0,1,1,679,11,C,1,left,0.483648474997608,1,0,,,,,,,,,,,,,,,,,,,,,1,,,,,,,,,,,,,,,,,,,,,,,,,,,,,,,,,,,,,,,,,,,,,,86,146917,21,Female,1,2024/03/13_12:27:20,YZ,None,
,,,,,,practice_main,0,1,1,679,12,F,0,right,0.509949918006896,1,0,,,,,,,,,,,,,,,,,,,,,1,,,,,,,,,,,,,,,,,,,,,,,,,,,,,,,,,,,,,,,,,,,,,,86,146917,21,Female,1,2024/03/13_12:27:20,YZ,None,
,,,,,,practice_main,0,1,1,679,13,C,0,right,0.8284589209943078,1,0,,,,,,,,,,,,,,,,,,,,,1,,,,,,,,,,,,,,,,,,,,,,,,,,,,,,,,,,,,,,,,,,,,,,86,146917,21,Female,1,2024/03/13_12:27:20,YZ,None,
,,,,,,practice_main,0,1,1,679,14,X,0,right,0.44357335500535555,1,0,,,,,,,,,,,,,,,,,,,,,1,,,,,,,,,,,,,,,,,,,,,,,,,,,,,,,,,,,,,,,,,,,,,,86,146917,21,Female,1,2024/03/13_12:27:20,YZ,None,
,,,,,,practice_main,0,1,1,679,,,,,,,,0.9375,0.75,0.0,1.0,0.0,1.0,0.6108549049988922,3,0,0,0,0,10,13,4,10,0,,,,1,,,,,,,,,,,,,,,,,,,,,,,,,,,,,,,,,,,,,,,,,,,,,,86,146917,21,Female,1,2024/03/13_12:27:20,YZ,None,
,,,,,240313_145908,PRACTICE,0,1,1,679,,,,,,,,,,,,,,,,,,,,,,,,,,,,1,44,2,1,cue2.png,easy,B,84,1.064220544998534,0,745.5205087740032,746.6045319810073,,,,,,,,,,,,,,,,,,,,,,,,,,,,,,,,,,,86,146917,21,Female,1,2024/03/13_12:27:20,YZ,None,
,,,,,,practice_main,0,2,1,679,1,N,0,right,0.5255507179972483,1,0,,,,,,,,,,,,,,,,,,,,,1,,,,,,,,,,,,,,,,,,,,,,,,,,,,,,,,,,,,,,,,,,,,,,86,146917,21,Female,1,2024/03/13_12:27:20,YZ,None,
,,,,,,practice_main,0,2,1,679,2,Q,0,right,0.4237944969936507,1,0,,,,,,,,,,,,,,,,,,,,,1,,,,,,,,,,,,,,,,,,,,,,,,,,,,,,,,,,,,,,,,,,,,,,86,146917,21,Female,1,2024/03/13_12:27:20,YZ,None,
,,,,,,practice_main,0,2,1,679,3,F,0,right,0.3924180600006366,1,0,,,,,,,,,,,,,,,,,,,,,1,,,,,,,,,,,,,,,,,,,,,,,,,,,,,,,,,,,,,,,,,,,,,,86,146917,21,Female,1,2024/03/13_12:27:20,YZ,None,
,,,,,,practice_main,0,2,1,679,4,S,0,right,0.640911775000859,1,0,,,,,,,,,,,,,,,,,,,,,1,,,,,,,,,,,,,,,,,,,,,,,,,,,,,,,,,,,,,,,,,,,,,,86,146917,21,Female,1,2024/03/13_12:27:20,YZ,None,
,,,,,,practice_main,0,2,1,679,5,V,0,right,0.43183188400871586,1,0,,,,,,,,,,,,,,,,,,,,,1,,,,,,,,,,,,,,,,,,,,,,,,,,,,,,,,,,,,,,,,,,,,,,86,146917,21,Female,1,2024/03/13_12:27:20,YZ,None,
,,,,,,practice_main,0,2,1,679,6,V,1,left,0.4240291810128838,1,0,,,,,,,,,,,,,,,,,,,,,1,,,,,,,,,,,,,,,,,,,,,,,,,,,,,,,,,,,,,,,,,,,,,,86,146917,21,Female,1,2024/03/13_12:27:20,YZ,None,
,,,,,,practice_main,0,2,1,679,7,J,0,right,0.37689491000492126,1,0,,,,,,,,,,,,,,,,,,,,,1,,,,,,,,,,,,,,,,,,,,,,,,,,,,,,,,,,,,,,,,,,,,,,86,146917,21,Female,1,2024/03/13_12:27:20,YZ,None,
,,,,,,practice_main,0,2,1,679,8,N,0,right,0.4888897080090828,1,0,,,,,,,,,,,,,,,,,,,,,1,,,,,,,,,,,,,,,,,,,,,,,,,,,,,,,,,,,,,,,,,,,,,,86,146917,21,Female,1,2024/03/13_12:27:20,YZ,None,
,,,,,,practice_main,0,2,1,679,9,N,1,left,0.5122755060001509,1,0,,,,,,,,,,,,,,,,,,,,,1,,,,,,,,,,,,,,,,,,,,,,,,,,,,,,,,,,,,,,,,,,,,,,86,146917,21,Female,1,2024/03/13_12:27:20,YZ,None,
,,,,,,practice_main,0,2,1,679,10,J,0,right,0.33265482500428334,1,0,,,,,,,,,,,,,,,,,,,,,1,,,,,,,,,,,,,,,,,,,,,,,,,,,,,,,,,,,,,,,,,,,,,,86,146917,21,Female,1,2024/03/13_12:27:20,YZ,None,
,,,,,,practice_main,0,2,1,679,11,J,1,left,0.5403541429986944,1,0,,,,,,,,,,,,,,,,,,,,,1,,,,,,,,,,,,,,,,,,,,,,,,,,,,,,,,,,,,,,,,,,,,,,86,146917,21,Female,1,2024/03/13_12:27:20,YZ,None,
,,,,,,practice_main,0,2,1,679,12,Q,0,right,0.39699970198853407,1,0,,,,,,,,,,,,,,,,,,,,,1,,,,,,,,,,,,,,,,,,,,,,,,,,,,,,,,,,,,,,,,,,,,,,86,146917,21,Female,1,2024/03/13_12:27:20,YZ,None,
,,,,,,practice_main,0,2,1,679,13,Q,1,left,0.4918955760076642,1,0,,,,,,,,,,,,,,,,,,,,,1,,,,,,,,,,,,,,,,,,,,,,,,,,,,,,,,,,,,,,,,,,,,,,86,146917,21,Female,1,2024/03/13_12:27:20,YZ,None,
,,,,,,practice_main,0,2,1,679,14,J,0,right,0.36397050599043723,1,0,,,,,,,,,,,,,,,,,,,,,1,,,,,,,,,,,,,,,,,,,,,,,,,,,,,,,,,,,,,,,,,,,,,,86,146917,21,Female,1,2024/03/13_12:27:20,YZ,None,
,,,,,,practice_main,0,2,1,679,,,,,,,,1.0,1.0,0.0,1.0,0.0,1.0,0.4530336422155545,4,0,0,0,0,10,14,4,10,0,,,,1,,,,,,,,,,,,,,,,,,,,,,,,,,,,,,,,,,,,,,,,,,,,,,86,146917,21,Female,1,2024/03/13_12:27:20,YZ,None,
,,,,,240313_145933,PRACTICE,0,2,1,679,,,,,,,,,,,,,,,,,,,,,,,,,,,,1,12,3,2,cue2.png,easy,B,80,1.5195572689990513,0,771.6750803949981,773.208868614005,,,,,,,,,,,,,,,,,,,,,,,,,,,,,,,,,,,86,146917,21,Female,1,2024/03/13_12:27:20,YZ,None,
,,,,,,practice_main,0,3,1,679,1,N,0,right,0.7160640299989609,1,0,,,,,,,,,,,,,,,,,,,,,1,,,,,,,,,,,,,,,,,,,,,,,,,,,,,,,,,,,,,,,,,,,,,,86,146917,21,Female,1,2024/03/13_12:27:20,YZ,None,
,,,,,,practice_main,0,3,1,679,2,S,0,right,0.5125511679943884,1,0,,,,,,,,,,,,,,,,,,,,,1,,,,,,,,,,,,,,,,,,,,,,,,,,,,,,,,,,,,,,,,,,,,,,86,146917,21,Female,1,2024/03/13_12:27:20,YZ,None,
,,,,,,practice_main,0,3,1,679,3,S,1,left,0.37369395898713265,1,0,,,,,,,,,,,,,,,,,,,,,1,,,,,,,,,,,,,,,,,,,,,,,,,,,,,,,,,,,,,,,,,,,,,,86,146917,21,Female,1,2024/03/13_12:27:20,YZ,None,
,,,,,,practice_main,0,3,1,679,4,V,0,right,0.5124395289894892,1,0,,,,,,,,,,,,,,,,,,,,,1,,,,,,,,,,,,,,,,,,,,,,,,,,,,,,,,,,,,,,,,,,,,,,86,146917,21,Female,1,2024/03/13_12:27:20,YZ,None,
,,,,,,practice_main,0,3,1,679,5,X,0,right,0.4704860540077789,1,0,,,,,,,,,,,,,,,,,,,,,1,,,,,,,,,,,,,,,,,,,,,,,,,,,,,,,,,,,,,,,,,,,,,,86,146917,21,Female,1,2024/03/13_12:27:20,YZ,None,
,,,,,,practice_main,0,3,1,679,6,X,1,left,0.5245281739917118,1,0,,,,,,,,,,,,,,,,,,,,,1,,,,,,,,,,,,,,,,,,,,,,,,,,,,,,,,,,,,,,,,,,,,,,86,146917,21,Female,1,2024/03/13_12:27:20,YZ,None,
,,,,,,practice_main,0,3,1,679,7,C,0,right,0.4584839379967889,1,0,,,,,,,,,,,,,,,,,,,,,1,,,,,,,,,,,,,,,,,,,,,,,,,,,,,,,,,,,,,,,,,,,,,,86,146917,21,Female,1,2024/03/13_12:27:20,YZ,None,
,,,,,,practice_main,0,3,1,679,8,F,0,right,0.47444501498830505,1,0,,,,,,,,,,,,,,,,,,,,,1,,,,,,,,,,,,,,,,,,,,,,,,,,,,,,,,,,,,,,,,,,,,,,86,146917,21,Female,1,2024/03/13_12:27:20,YZ,None,
,,,,,,practice_main,0,3,1,679,9,F,1,right,0.3943841799919028,0,0,,,,,,,,,,,,,,,,,,,,,1,,,,,,,,,,,,,,,,,,,,,,,,,,,,,,,,,,,,,,,,,,,,,,86,146917,21,Female,1,2024/03/13_12:27:20,YZ,None,
,,,,,,practice_main,0,3,1,679,10,X,0,right,0.4924230129981879,1,0,,,,,,,,,,,,,,,,,,,,,1,,,,,,,,,,,,,,,,,,,,,,,,,,,,,,,,,,,,,,,,,,,,,,86,146917,21,Female,1,2024/03/13_12:27:20,YZ,None,
,,,,,,practice_main,0,3,1,679,11,X,1,left,0.4586660259956261,1,0,,,,,,,,,,,,,,,,,,,,,1,,,,,,,,,,,,,,,,,,,,,,,,,,,,,,,,,,,,,,,,,,,,,,86,146917,21,Female,1,2024/03/13_12:27:20,YZ,None,
,,,,,,practice_main,0,3,1,679,12,S,0,right,0.38028709500213154,1,0,,,,,,,,,,,,,,,,,,,,,1,,,,,,,,,,,,,,,,,,,,,,,,,,,,,,,,,,,,,,,,,,,,,,86,146917,21,Female,1,2024/03/13_12:27:20,YZ,None,
,,,,,,practice_main,0,3,1,679,13,Q,0,right,0.39693151399842463,1,0,,,,,,,,,,,,,,,,,,,,,1,,,,,,,,,,,,,,,,,,,,,,,,,,,,,,,,,,,,,,,,,,,,,,86,146917,21,Female,1,2024/03/13_12:27:20,YZ,None,
,,,,,,practice_main,0,3,1,679,14,N,0,right,0.4966007439943496,1,0,,,,,,,,,,,,,,,,,,,,,1,,,,,,,,,,,,,,,,,,,,,,,,,,,,,,,,,,,,,,,,,,,,,,86,146917,21,Female,1,2024/03/13_12:27:20,YZ,None,
,,,,,,practice_main,0,3,1,679,,,,,,,,0.9375,0.75,0.0,1.0,0.0,1.0,0.47585603135251275,3,0,0,0,0,10,13,4,10,0,,,,1,,,,,,,,,,,,,,,,,,,,,,,,,,,,,,,,,,,,,,,,,,,,,,86,146917,21,Female,1,2024/03/13_12:27:20,YZ,None,
,,,,,240313_145957,PRACTICE,0,3,1,679,,,,,,,,,,,,,,,,,,,,,,,,,,,,1,32,4,3,cue2.png,easy,B,72,1.2794957910082303,0,796.0348224470072,797.327081358002,,,,,,,,,,,,,,,,,,,,,,,,,,,,,,,,,,,86,146917,21,Female,1,2024/03/13_12:27:20,YZ,None,
1,./instructions/inst_prac_end/Slide56.png,right,55.893811298999935,818.9957671550073,874.8895784540073,,,,,,,,,,,,,,,,,,,,,,,,,,,,,,,,,1,,,,,,,,,,,,,,,,,,,,,,,,,,,,,,,,,,,,,,,,,,,,,,86,146917,21,Female,1,2024/03/13_12:27:20,YZ,None,
1,./instructions/inst_test/Slide57.png,right,41.59424648199638,874.9356461190036,916.529892601,,,,,,,,,,,,,,,,,,,,,,,,,,,,,,,,,1,,,,,,,,,,,,,,,,,,,,,,,,,,,,,,,,,,,,,,,,,,,,,,86,146917,21,Female,1,2024/03/13_12:27:20,YZ,None,
,,,,,,test,1,1,1,679,1,Q,0,right,0.8905817420018138,1,0,,,,,,,,,,,,,,,,,,,,,1,,,,,,,,,,,,,,,,,,,,,,,,,,,,,,,,,,,,,,,,,,,,,,86,146917,21,Female,1,2024/03/13_12:27:20,YZ,None,
,,,,,,test,1,1,1,679,2,S,0,right,0.4072923149942653,1,0,,,,,,,,,,,,,,,,,,,,,1,,,,,,,,,,,,,,,,,,,,,,,,,,,,,,,,,,,,,,,,,,,,,,86,146917,21,Female,1,2024/03/13_12:27:20,YZ,None,
,,,,,,test,1,1,1,679,3,S,1,left,0.46918225298577454,1,0,,,,,,,,,,,,,,,,,,,,,1,,,,,,,,,,,,,,,,,,,,,,,,,,,,,,,,,,,,,,,,,,,,,,86,146917,21,Female,1,2024/03/13_12:27:20,YZ,None,
,,,,,,test,1,1,1,679,4,N,0,right,0.3831428660050733,1,0,,,,,,,,,,,,,,,,,,,,,1,,,,,,,,,,,,,,,,,,,,,,,,,,,,,,,,,,,,,,,,,,,,,,86,146917,21,Female,1,2024/03/13_12:27:20,YZ,None,
,,,,,,test,1,1,1,679,5,J,0,right,0.3798772800073493,1,0,,,,,,,,,,,,,,,,,,,,,1,,,,,,,,,,,,,,,,,,,,,,,,,,,,,,,,,,,,,,,,,,,,,,86,146917,21,Female,1,2024/03/13_12:27:20,YZ,None,
,,,,,,test,1,1,1,679,6,J,1,right,0.3779096600046614,0,0,,,,,,,,,,,,,,,,,,,,,1,,,,,,,,,,,,,,,,,,,,,,,,,,,,,,,,,,,,,,,,,,,,,,86,146917,21,Female,1,2024/03/13_12:27:20,YZ,None,
,,,,,,test,1,1,1,679,7,Q,0,right,0.4236623290053103,1,0,,,,,,,,,,,,,,,,,,,,,1,,,,,,,,,,,,,,,,,,,,,,,,,,,,,,,,,,,,,,,,,,,,,,86,146917,21,Female,1,2024/03/13_12:27:20,YZ,None,
,,,,,,test,1,1,1,679,8,Q,1,left,0.35129635701014195,1,0,,,,,,,,,,,,,,,,,,,,,1,,,,,,,,,,,,,,,,,,,,,,,,,,,,,,,,,,,,,,,,,,,,,,86,146917,21,Female,1,2024/03/13_12:27:20,YZ,None,
,,,,,,test,1,1,1,679,9,F,0,right,0.41536810698744375,1,0,,,,,,,,,,,,,,,,,,,,,1,,,,,,,,,,,,,,,,,,,,,,,,,,,,,,,,,,,,,,,,,,,,,,86,146917,21,Female,1,2024/03/13_12:27:20,YZ,None,
,,,,,,test,1,1,1,679,10,V,0,right,0.47596565999265295,1,0,,,,,,,,,,,,,,,,,,,,,1,,,,,,,,,,,,,,,,,,,,,,,,,,,,,,,,,,,,,,,,,,,,,,86,146917,21,Female,1,2024/03/13_12:27:20,YZ,None,
,,,,,,test,1,1,1,679,11,V,1,left,0.4905298849917017,1,0,,,,,,,,,,,,,,,,,,,,,1,,,,,,,,,,,,,,,,,,,,,,,,,,,,,,,,,,,,,,,,,,,,,,86,146917,21,Female,1,2024/03/13_12:27:20,YZ,None,
,,,,,,test,1,1,1,679,12,X,0,right,0.38508953400014434,1,0,,,,,,,,,,,,,,,,,,,,,1,,,,,,,,,,,,,,,,,,,,,,,,,,,,,,,,,,,,,,,,,,,,,,86,146917,21,Female,1,2024/03/13_12:27:20,YZ,None,
,,,,,,test,1,1,1,679,13,S,0,right,0.36924204899696633,1,0,,,,,,,,,,,,,,,,,,,,,1,,,,,,,,,,,,,,,,,,,,,,,,,,,,,,,,,,,,,,,,,,,,,,86,146917,21,Female,1,2024/03/13_12:27:20,YZ,None,
,,,,,,test,1,1,1,679,14,N,0,right,0.39488314899790566,1,0,,,,,,,,,,,,,,,,,,,,,1,,,,,,,,,,,,,,,,,,,,,,,,,,,,,,,,,,,,,,,,,,,,,,86,146917,21,Female,1,2024/03/13_12:27:20,YZ,None,
,,,,,,Test,1,1,1,679,,,,,,,,0.9375,0.75,0.0,1.0,0.0,1.0,0.4438587989986575,3,0,0,0,0,10,13,4,10,0,,,,1,,,,,,,,,,,,,,,,,,,,,,,,,,,,,,,,,,,,,,,,,,,,,,86,146917,21,Female,1,2024/03/13_12:27:20,YZ,None,
,,,,,240313_150202,TEST,1,1,1,679,,,,,,,,,,,,,,,,,,,,,,,,,,,,1,1,1,1,cue2.png,easy,B,60,1.3262282389914617,0,921.5834718880069,922.9327183590067,,,,,,,,,,,,,,,,,,,,,,,,,,,,,,,,,,,86,146917,21,Female,1,2024/03/13_12:27:20,YZ,None,
,,,,,,test,1,2,3,679,1,Q,0,right,0.5536374499934027,1,0,,,,,,,,,,,,,,,,,,,,,1,,,,,,,,,,,,,,,,,,,,,,,,,,,,,,,,,,,,,,,,,,,,,,86,146917,21,Female,1,2024/03/13_12:27:20,YZ,None,
,,,,,,test,1,2,3,679,2,X,0,right,0.29193868399306666,1,0,,,,,,,,,,,,,,,,,,,,,1,,,,,,,,,,,,,,,,,,,,,,,,,,,,,,,,,,,,,,,,,,,,,,86,146917,21,Female,1,2024/03/13_12:27:20,YZ,None,
,,,,,,test,1,2,3,679,3,Q,0,right,0.3541207649977878,1,0,,,,,,,,,,,,,,,,,,,,,1,,,,,,,,,,,,,,,,,,,,,,,,,,,,,,,,,,,,,,,,,,,,,,86,146917,21,Female,1,2024/03/13_12:27:20,YZ,None,
,,,,,,test,1,2,3,679,4,F,0,right,0.5326329310046276,1,0,,,,,,,,,,,,,,,,,,,,,1,,,,,,,,,,,,,,,,,,,,,,,,,,,,,,,,,,,,,,,,,,,,,,86,146917,21,Female,1,2024/03/13_12:27:20,YZ,None,
,,,,,,test,1,2,3,679,5,N,0,right,0.4430135389993666,1,0,,,,,,,,,,,,,,,,,,,,,1,,,,,,,,,,,,,,,,,,,,,,,,,,,,,,,,,,,,,,,,,,,,,,86,146917,21,Female,1,2024/03/13_12:27:20,YZ,None,
,,,,,,test,1,2,3,679,6,X,0,left,0.6584122880012728,0,0,,,,,,,,,,,,,,,,,,,,,1,,,,,,,,,,,,,,,,,,,,,,,,,,,,,,,,,,,,,,,,,,,,,,86,146917,21,Female,1,2024/03/13_12:27:20,YZ,None,
,,,,,,test,1,2,3,679,7,X,0,left,0.5120765219908208,0,0,,,,,,,,,,,,,,,,,,,,,1,,,,,,,,,,,,,,,,,,,,,,,,,,,,,,,,,,,,,,,,,,,,,,86,146917,21,Female,1,2024/03/13_12:27:20,YZ,None,
,,,,,,test,1,2,3,679,8,V,0,right,0.4497944299946539,1,0,,,,,,,,,,,,,,,,,,,,,1,,,,,,,,,,,,,,,,,,,,,,,,,,,,,,,,,,,,,,,,,,,,,,86,146917,21,Female,1,2024/03/13_12:27:20,YZ,None,
,,,,,,test,1,2,3,679,9,X,1,right,0.6327327530016191,0,0,,,,,,,,,,,,,,,,,,,,,1,,,,,,,,,,,,,,,,,,,,,,,,,,,,,,,,,,,,,,,,,,,,,,86,146917,21,Female,1,2024/03/13_12:27:20,YZ,None,
,,,,,,test,1,2,3,679,10,S,0,right,0.5953695899952436,1,0,,,,,,,,,,,,,,,,,,,,,1,,,,,,,,,,,,,,,,,,,,,,,,,,,,,,,,,,,,,,,,,,,,,,86,146917,21,Female,1,2024/03/13_12:27:20,YZ,None,
,,,,,,test,1,2,3,679,11,V,1,left,0.4359830629982753,1,0,,,,,,,,,,,,,,,,,,,,,1,,,,,,,,,,,,,,,,,,,,,,,,,,,,,,,,,,,,,,,,,,,,,,86,146917,21,Female,1,2024/03/13_12:27:20,YZ,None,
,,,,,,test,1,2,3,679,12,S,0,left,0.5966009279945865,0,0,,,,,,,,,,,,,,,,,,,,,1,,,,,,,,,,,,,,,,,,,,,,,,,,,,,,,,,,,,,,,,,,,,,,86,146917,21,Female,1,2024/03/13_12:27:20,YZ,None,
,,,,,,test,1,2,3,679,13,S,1,right,0.6083271130046342,0,0,,,,,,,,,,,,,,,,,,,,,1,,,,,,,,,,,,,,,,,,,,,,,,,,,,,,,,,,,,,,,,,,,,,,86,146917,21,Female,1,2024/03/13_12:27:20,YZ,None,
,,,,,,test,1,2,3,679,14,V,1,left,0.5645398089982336,1,0,,,,,,,,,,,,,,,,,,,,,1,,,,,,,,,,,,,,,,,,,,,,,,,,,,,,,,,,,,,,,,,,,,,,86,146917,21,Female,1,2024/03/13_12:27:20,YZ,None,
,,,,,,Test,1,2,3,679,,,,,,,,0.65,0.5,0.3,0.7,0.0,0.7,0.5163699903548279,2,3,0,0,0,7,9,4,10,0,,,,1,,,,,,,,,,,,,,,,,,,,,,,,,,,,,,,,,,,,,,,,,,,,,,86,146917,21,Female,1,2024/03/13_12:27:20,YZ,None,
,,,,,240313_150228,TEST,1,2,3,679,,,,,,,,,,,,,,,,,,,,,,,,,,,,1,2,2,2,cue1.png,hard,B,39,1.5706046410050476,0,945.6003230509959,947.1864190699998,,,,,,,,,,,,,,,,,,,,,,,,,,,,,,,,,,,86,146917,21,Female,1,2024/03/13_12:27:20,YZ,None,
,,,,,,test,1,3,3,679,1,X,0,right,0.3999960189976264,1,0,,,,,,,,,,,,,,,,,,,,,1,,,,,,,,,,,,,,,,,,,,,,,,,,,,,,,,,,,,,,,,,,,,,,86,146917,21,Female,1,2024/03/13_12:27:20,YZ,None,
,,,,,,test,1,3,3,679,2,N,0,right,0.24927028999081813,1,0,,,,,,,,,,,,,,,,,,,,,1,,,,,,,,,,,,,,,,,,,,,,,,,,,,,,,,,,,,,,,,,,,,,,86,146917,21,Female,1,2024/03/13_12:27:20,YZ,None,
,,,,,,test,1,3,3,679,3,S,0,right,0.30525704399042297,1,0,,,,,,,,,,,,,,,,,,,,,1,,,,,,,,,,,,,,,,,,,,,,,,,,,,,,,,,,,,,,,,,,,,,,86,146917,21,Female,1,2024/03/13_12:27:20,YZ,None,
,,,,,,test,1,3,3,679,4,X,1,left,0.4832040600012988,1,0,,,,,,,,,,,,,,,,,,,,,1,,,,,,,,,,,,,,,,,,,,,,,,,,,,,,,,,,,,,,,,,,,,,,86,146917,21,Female,1,2024/03/13_12:27:20,YZ,None,
,,,,,,test,1,3,3,679,5,J,0,right,0.45648513799824286,1,0,,,,,,,,,,,,,,,,,,,,,1,,,,,,,,,,,,,,,,,,,,,,,,,,,,,,,,,,,,,,,,,,,,,,86,146917,21,Female,1,2024/03/13_12:27:20,YZ,None,
,,,,,,test,1,3,3,679,6,X,0,left,0.581456336993142,0,0,,,,,,,,,,,,,,,,,,,,,1,,,,,,,,,,,,,,,,,,,,,,,,,,,,,,,,,,,,,,,,,,,,,,86,146917,21,Female,1,2024/03/13_12:27:20,YZ,None,
,,,,,,test,1,3,3,679,7,C,0,right,0.43386433699924964,1,0,,,,,,,,,,,,,,,,,,,,,1,,,,,,,,,,,,,,,,,,,,,,,,,,,,,,,,,,,,,,,,,,,,,,86,146917,21,Female,1,2024/03/13_12:27:20,YZ,None,
,,,,,,test,1,3,3,679,8,S,0,left,0.6640314690012019,0,0,,,,,,,,,,,,,,,,,,,,,1,,,,,,,,,,,,,,,,,,,,,,,,,,,,,,,,,,,,,,,,,,,,,,86,146917,21,Female,1,2024/03/13_12:27:20,YZ,None,
,,,,,,test,1,3,3,679,9,X,1,left,0.5123848660005024,1,0,,,,,,,,,,,,,,,,,,,,,1,,,,,,,,,,,,,,,,,,,,,,,,,,,,,,,,,,,,,,,,,,,,,,86,146917,21,Female,1,2024/03/13_12:27:20,YZ,None,
,,,,,,test,1,3,3,679,10,V,0,right,0.4328069850016618,1,0,,,,,,,,,,,,,,,,,,,,,1,,,,,,,,,,,,,,,,,,,,,,,,,,,,,,,,,,,,,,,,,,,,,,86,146917,21,Female,1,2024/03/13_12:27:20,YZ,None,
,,,,,,test,1,3,3,679,11,J,0,right,0.2657390139938798,1,0,,,,,,,,,,,,,,,,,,,,,1,,,,,,,,,,,,,,,,,,,,,,,,,,,,,,,,,,,,,,,,,,,,,,86,146917,21,Female,1,2024/03/13_12:27:20,YZ,None,
,,,,,,test,1,3,3,679,12,X,1,right,0.624315993001801,0,0,,,,,,,,,,,,,,,,,,,,,1,,,,,,,,,,,,,,,,,,,,,,,,,,,,,,,,,,,,,,,,,,,,,,86,146917,21,Female,1,2024/03/13_12:27:20,YZ,None,
,,,,,,test,1,3,3,679,13,V,1,left,0.6979425000026822,1,0,,,,,,,,,,,,,,,,,,,,,1,,,,,,,,,,,,,,,,,,,,,,,,,,,,,,,,,,,,,,,,,,,,,,86,146917,21,Female,1,2024/03/13_12:27:20,YZ,None,
,,,,,,test,1,3,3,679,14,S,0,right,0.4154922430025181,1,0,,,,,,,,,,,,,,,,,,,,,1,,,,,,,,,,,,,,,,,,,,,,,,,,,,,,,,,,,,,,,,,,,,,,86,146917,21,Female,1,2024/03/13_12:27:20,YZ,None,
,,,,,,Test,1,3,3,679,,,,,,,,0.8374999999999999,0.75,0.2,0.8,0.0,0.8,0.46587473535536056,3,2,0,0,0,8,11,4,10,0,,,,1,,,,,,,,,,,,,,,,,,,,,,,,,,,,,,,,,,,,,,,,,,,,,,86,146917,21,Female,1,2024/03/13_12:27:20,YZ,None,
,,,,,240313_150252,TEST,1,3,3,679,,,,,,,,,,,,,,,,,,,,,,,,,,,,1,3,3,3,cue1.png,hard,B,47,1.603473369992571,0,970.9346295660071,972.5543262910069,,,,,,,,,,,,,,,,,,,,,,,,,,,,,,,,,,,86,146917,21,Female,1,2024/03/13_12:27:20,YZ,None,
,,,,,,test,1,4,3,679,1,S,0,right,0.6334446070104605,1,0,,,,,,,,,,,,,,,,,,,,,1,,,,,,,,,,,,,,,,,,,,,,,,,,,,,,,,,,,,,,,,,,,,,,86,146917,21,Female,1,2024/03/13_12:27:20,YZ,None,
,,,,,,test,1,4,3,679,2,F,0,right,0.655605909996666,1,0,,,,,,,,,,,,,,,,,,,,,1,,,,,,,,,,,,,,,,,,,,,,,,,,,,,,,,,,,,,,,,,,,,,,86,146917,21,Female,1,2024/03/13_12:27:20,YZ,None,
,,,,,,test,1,4,3,679,3,Q,0,right,0.39885497599607334,1,0,,,,,,,,,,,,,,,,,,,,,1,,,,,,,,,,,,,,,,,,,,,,,,,,,,,,,,,,,,,,,,,,,,,,86,146917,21,Female,1,2024/03/13_12:27:20,YZ,None,
,,,,,,test,1,4,3,679,4,X,0,right,0.5200214840006083,1,0,,,,,,,,,,,,,,,,,,,,,1,,,,,,,,,,,,,,,,,,,,,,,,,,,,,,,,,,,,,,,,,,,,,,86,146917,21,Female,1,2024/03/13_12:27:20,YZ,None,
,,,,,,test,1,4,3,679,5,J,0,right,0.4240395390079357,1,0,,,,,,,,,,,,,,,,,,,,,1,,,,,,,,,,,,,,,,,,,,,,,,,,,,,,,,,,,,,,,,,,,,,,86,146917,21,Female,1,2024/03/13_12:27:20,YZ,None,
,,,,,,test,1,4,3,679,6,Q,1,right,0.3929413339938037,0,0,,,,,,,,,,,,,,,,,,,,,1,,,,,,,,,,,,,,,,,,,,,,,,,,,,,,,,,,,,,,,,,,,,,,86,146917,21,Female,1,2024/03/13_12:27:20,YZ,None,
,,,,,,test,1,4,3,679,7,X,1,right,0.4127051700052107,0,0,,,,,,,,,,,,,,,,,,,,,1,,,,,,,,,,,,,,,,,,,,,,,,,,,,,,,,,,,,,,,,,,,,,,86,146917,21,Female,1,2024/03/13_12:27:20,YZ,None,
,,,,,,test,1,4,3,679,8,C,0,right,0.36454006099666003,1,0,,,,,,,,,,,,,,,,,,,,,1,,,,,,,,,,,,,,,,,,,,,,,,,,,,,,,,,,,,,,,,,,,,,,86,146917,21,Female,1,2024/03/13_12:27:20,YZ,None,
,,,,,,test,1,4,3,679,9,X,0,right,0.33013600000413135,1,0,,,,,,,,,,,,,,,,,,,,,1,,,,,,,,,,,,,,,,,,,,,,,,,,,,,,,,,,,,,,,,,,,,,,86,146917,21,Female,1,2024/03/13_12:27:20,YZ,None,
,,,,,,test,1,4,3,679,10,X,1,left,0.49574840000423137,1,0,,,,,,,,,,,,,,,,,,,,,1,,,,,,,,,,,,,,,,,,,,,,,,,,,,,,,,,,,,,,,,,,,,,,86,146917,21,Female,1,2024/03/13_12:27:20,YZ,None,
,,,,,,test,1,4,3,679,11,N,0,right,0.436495133995777,1,0,,,,,,,,,,,,,,,,,,,,,1,,,,,,,,,,,,,,,,,,,,,,,,,,,,,,,,,,,,,,,,,,,,,,86,146917,21,Female,1,2024/03/13_12:27:20,YZ,None,
,,,,,,test,1,4,3,679,12,F,0,right,0.5938786280021304,1,0,,,,,,,,,,,,,,,,,,,,,1,,,,,,,,,,,,,,,,,,,,,,,,,,,,,,,,,,,,,,,,,,,,,,86,146917,21,Female,1,2024/03/13_12:27:20,YZ,None,
,,,,,,test,1,4,3,679,13,X,1,left,0.3497133540076902,1,0,,,,,,,,,,,,,,,,,,,,,1,,,,,,,,,,,,,,,,,,,,,,,,,,,,,,,,,,,,,,,,,,,,,,86,146917,21,Female,1,2024/03/13_12:27:20,YZ,None,
,,,,,,test,1,4,3,679,14,F,0,left,0.5119601769984001,0,0,,,,,,,,,,,,,,,,,,,,,1,,,,,,,,,,,,,,,,,,,,,,,,,,,,,,,,,,,,,,,,,,,,,,86,146917,21,Female,1,2024/03/13_12:27:20,YZ,None,
,,,,,,Test,1,4,3,679,,,,,,,,0.7999999999999999,0.5,0.1,0.9,0.0,0.9,0.46572034100141274,2,1,0,0,0,9,11,4,10,0,,,,1,,,,,,,,,,,,,,,,,,,,,,,,,,,,,,,,,,,,,,,,,,,,,,86,146917,21,Female,1,2024/03/13_12:27:20,YZ,None,
,,,,,240313_150317,TEST,1,4,3,679,,,,,,,,,,,,,,,,,,,,,,,,,,,,1,4,4,4,cue1.png,hard,B,43,1.354328177010757,0,995.570204898002,996.9396062410087,,,,,,,,,,,,,,,,,,,,,,,,,,,,,,,,,,,86,146917,21,Female,1,2024/03/13_12:27:20,YZ,None,
,,,,,,test,1,5,1,679,1,V,0,right,0.5421533179905964,1,0,,,,,,,,,,,,,,,,,,,,,1,,,,,,,,,,,,,,,,,,,,,,,,,,,,,,,,,,,,,,,,,,,,,,86,146917,21,Female,1,2024/03/13_12:27:20,YZ,None,
,,,,,,test,1,5,1,679,2,X,0,right,0.38810211200325284,1,0,,,,,,,,,,,,,,,,,,,,,1,,,,,,,,,,,,,,,,,,,,,,,,,,,,,,,,,,,,,,,,,,,,,,86,146917,21,Female,1,2024/03/13_12:27:20,YZ,None,
,,,,,,test,1,5,1,679,3,X,1,left,0.3361369279882638,1,0,,,,,,,,,,,,,,,,,,,,,1,,,,,,,,,,,,,,,,,,,,,,,,,,,,,,,,,,,,,,,,,,,,,,86,146917,21,Female,1,2024/03/13_12:27:20,YZ,None,
,,,,,,test,1,5,1,679,4,C,0,right,0.375564921007026,1,0,,,,,,,,,,,,,,,,,,,,,1,,,,,,,,,,,,,,,,,,,,,,,,,,,,,,,,,,,,,,,,,,,,,,86,146917,21,Female,1,2024/03/13_12:27:20,YZ,None,
,,,,,,test,1,5,1,679,5,V,0,right,0.3681163400033256,1,0,,,,,,,,,,,,,,,,,,,,,1,,,,,,,,,,,,,,,,,,,,,,,,,,,,,,,,,,,,,,,,,,,,,,86,146917,21,Female,1,2024/03/13_12:27:20,YZ,None,
,,,,,,test,1,5,1,679,6,S,0,right,0.5123014700075146,1,0,,,,,,,,,,,,,,,,,,,,,1,,,,,,,,,,,,,,,,,,,,,,,,,,,,,,,,,,,,,,,,,,,,,,86,146917,21,Female,1,2024/03/13_12:27:20,YZ,None,
,,,,,,test,1,5,1,679,7,S,1,left,0.3338187120098155,1,0,,,,,,,,,,,,,,,,,,,,,1,,,,,,,,,,,,,,,,,,,,,,,,,,,,,,,,,,,,,,,,,,,,,,86,146917,21,Female,1,2024/03/13_12:27:20,YZ,None,
,,,,,,test,1,5,1,679,8,C,0,right,0.3564356230053818,1,0,,,,,,,,,,,,,,,,,,,,,1,,,,,,,,,,,,,,,,,,,,,,,,,,,,,,,,,,,,,,,,,,,,,,86,146917,21,Female,1,2024/03/13_12:27:20,YZ,None,
,,,,,,test,1,5,1,679,9,C,1,left,0.3692078549938742,1,0,,,,,,,,,,,,,,,,,,,,,1,,,,,,,,,,,,,,,,,,,,,,,,,,,,,,,,,,,,,,,,,,,,,,86,146917,21,Female,1,2024/03/13_12:27:20,YZ,None,
,,,,,,test,1,5,1,679,10,N,0,right,0.35190085499198176,1,0,,,,,,,,,,,,,,,,,,,,,1,,,,,,,,,,,,,,,,,,,,,,,,,,,,,,,,,,,,,,,,,,,,,,86,146917,21,Female,1,2024/03/13_12:27:20,YZ,None,
,,,,,,test,1,5,1,679,11,V,0,right,0.3778220860112924,1,0,,,,,,,,,,,,,,,,,,,,,1,,,,,,,,,,,,,,,,,,,,,,,,,,,,,,,,,,,,,,,,,,,,,,86,146917,21,Female,1,2024/03/13_12:27:20,YZ,None,
,,,,,,test,1,5,1,679,12,F,0,right,0.3916564359969925,1,0,,,,,,,,,,,,,,,,,,,,,1,,,,,,,,,,,,,,,,,,,,,,,,,,,,,,,,,,,,,,,,,,,,,,86,146917,21,Female,1,2024/03/13_12:27:20,YZ,None,
,,,,,,test,1,5,1,679,13,Q,0,right,0.4879486449935939,1,0,,,,,,,,,,,,,,,,,,,,,1,,,,,,,,,,,,,,,,,,,,,,,,,,,,,,,,,,,,,,,,,,,,,,86,146917,21,Female,1,2024/03/13_12:27:20,YZ,None,
,,,,,,test,1,5,1,679,14,Q,1,left,0.3444649599987315,1,0,,,,,,,,,,,,,,,,,,,,,1,,,,,,,,,,,,,,,,,,,,,,,,,,,,,,,,,,,,,,,,,,,,,,86,146917,21,Female,1,2024/03/13_12:27:20,YZ,None,
,,,,,,Test,1,5,1,679,,,,,,,,1.0,1.0,0.0,1.0,0.0,1.0,0.39540216150011737,4,0,0,0,0,10,14,4,10,0,,,,1,,,,,,,,,,,,,,,,,,,,,,,,,,,,,,,,,,,,,,,,,,,,,,86,146917,21,Female,1,2024/03/13_12:27:20,YZ,None,
,,,,,240313_150340,TEST,1,5,1,679,,,,,,,,,,,,,,,,,,,,,,,,,,,,1,5,5,5,cue2.png,easy,B,58,1.3511482080066344,0,1019.9372868479986,1021.3056389529957,,,,,,,,,,,,,,,,,,,,,,,,,,,,,,,,,,,86,146917,21,Female,1,2024/03/13_12:27:20,YZ,None,
,,,,,,test,1,6,3,679,1,J,0,right,0.6923471970076207,1,0,,,,,,,,,,,,,,,,,,,,,1,,,,,,,,,,,,,,,,,,,,,,,,,,,,,,,,,,,,,,,,,,,,,,86,146917,21,Female,1,2024/03/13_12:27:20,YZ,None,
,,,,,,test,1,6,3,679,2,N,0,right,0.32164329300576355,1,0,,,,,,,,,,,,,,,,,,,,,1,,,,,,,,,,,,,,,,,,,,,,,,,,,,,,,,,,,,,,,,,,,,,,86,146917,21,Female,1,2024/03/13_12:27:20,YZ,None,
,,,,,,test,1,6,3,679,3,Q,0,right,0.31990781700005755,1,0,,,,,,,,,,,,,,,,,,,,,1,,,,,,,,,,,,,,,,,,,,,,,,,,,,,,,,,,,,,,,,,,,,,,86,146917,21,Female,1,2024/03/13_12:27:20,YZ,None,
,,,,,,test,1,6,3,679,4,Q,0,left,0.4405588220106438,0,0,,,,,,,,,,,,,,,,,,,,,1,,,,,,,,,,,,,,,,,,,,,,,,,,,,,,,,,,,,,,,,,,,,,,86,146917,21,Female,1,2024/03/13_12:27:20,YZ,None,
,,,,,,test,1,6,3,679,5,F,0,right,0.5974154360010289,1,0,,,,,,,,,,,,,,,,,,,,,1,,,,,,,,,,,,,,,,,,,,,,,,,,,,,,,,,,,,,,,,,,,,,,86,146917,21,Female,1,2024/03/13_12:27:20,YZ,None,
,,,,,,test,1,6,3,679,6,J,0,right,0.279918225001893,1,0,,,,,,,,,,,,,,,,,,,,,1,,,,,,,,,,,,,,,,,,,,,,,,,,,,,,,,,,,,,,,,,,,,,,86,146917,21,Female,1,2024/03/13_12:27:20,YZ,None,
,,,,,,test,1,6,3,679,7,Q,1,right,0.45574452000437304,0,0,,,,,,,,,,,,,,,,,,,,,1,,,,,,,,,,,,,,,,,,,,,,,,,,,,,,,,,,,,,,,,,,,,,,86,146917,21,Female,1,2024/03/13_12:27:20,YZ,None,
,,,,,,test,1,6,3,679,8,X,0,right,0.6447125319973566,1,0,,,,,,,,,,,,,,,,,,,,,1,,,,,,,,,,,,,,,,,,,,,,,,,,,,,,,,,,,,,,,,,,,,,,86,146917,21,Female,1,2024/03/13_12:27:20,YZ,None,
,,,,,,test,1,6,3,679,9,X,0,left,0.48351604300842155,0,0,,,,,,,,,,,,,,,,,,,,,1,,,,,,,,,,,,,,,,,,,,,,,,,,,,,,,,,,,,,,,,,,,,,,86,146917,21,Female,1,2024/03/13_12:27:20,YZ,None,
,,,,,,test,1,6,3,679,10,Q,1,left,0.7367023879924091,1,0,,,,,,,,,,,,,,,,,,,,,1,,,,,,,,,,,,,,,,,,,,,,,,,,,,,,,,,,,,,,,,,,,,,,86,146917,21,Female,1,2024/03/13_12:27:20,YZ,None,
,,,,,,test,1,6,3,679,11,N,0,right,0.4147450019954704,1,0,,,,,,,,,,,,,,,,,,,,,1,,,,,,,,,,,,,,,,,,,,,,,,,,,,,,,,,,,,,,,,,,,,,,86,146917,21,Female,1,2024/03/13_12:27:20,YZ,None,
,,,,,,test,1,6,3,679,12,X,1,right,0.3215480710059637,0,0,,,,,,,,,,,,,,,,,,,,,1,,,,,,,,,,,,,,,,,,,,,,,,,,,,,,,,,,,,,,,,,,,,,,86,146917,21,Female,1,2024/03/13_12:27:20,YZ,None,
,,,,,,test,1,6,3,679,13,X,0,right,0.5389370490011061,1,0,,,,,,,,,,,,,,,,,,,,,1,,,,,,,,,,,,,,,,,,,,,,,,,,,,,,,,,,,,,,,,,,,,,,86,146917,21,Female,1,2024/03/13_12:27:20,YZ,None,
,,,,,,test,1,6,3,679,14,N,1,left,0.42441360000520945,1,0,,,,,,,,,,,,,,,,,,,,,1,,,,,,,,,,,,,,,,,,,,,,,,,,,,,,,,,,,,,,,,,,,,,,86,146917,21,Female,1,2024/03/13_12:27:20,YZ,None,
,,,,,,Test,1,6,3,679,,,,,,,,0.725,0.5,0.2,0.8,0.0,0.8,0.47657928535980837,2,2,0,0,0,8,10,4,10,0,,,,1,,,,,,,,,,,,,,,,,,,,,,,,,,,,,,,,,,,,,,,,,,,,,,86,146917,21,Female,1,2024/03/13_12:27:20,YZ,None,
