Instruction,Stimulus,Key,RT,START,END,Phase,Block,TrialN,NbackLevel,ISI,LetterN,Letter,Letter_isSame,Letter_Resp,Letter_RT,Letter_Accuracy,Letter_Timeout,Trial_A_measure,Trial_HR,Trial_FAR,Trial_CDR,Trial_MSR,Trial_ACC,Trial_RT,Trial_HitsCount,Trial_FAsCount,Trial_SameNoRespCount,Trial_DiffNoRespCount,Trial_NoRespCount,Trial_CDsCount,Trial_CorrectRespCount,Trial_SameLetterCount,Trial_DiffLetterCount,Trial_InvalidLetterCount,TrialCountCali,CaliEnd_A_measure,ISI_calibrated,Run,TrialIndex,TrialNumber_total,TrialNumber_valid,CueLearning,TrialDemandLearning,CueMapping,OnlineRating,OnlineRatingRT,OnlineRatingTimeOut,CueSTART,RatingSTART,OfflineRatingTimePoint,OfflineRatingQuesIndex,CueFigure,TrialDemand,OfflineRating,OfflineRatingRT,CueStart,OfflineRatingStart,PhaseType,CueLeft,CueDemandLeft,CueRight,CueDemandRight,Choice,ChoiceDemand,TaskDemand,ChoiceRT,ChoiceTimeOut,ChoiceSTART,CueCheck,CueDemandCheck,CorrectAnswer,Answer,AnswerDemand,AnswerRT,AnswerACC,AnswerTimeOut,CheckSTART,DemandRatingQuesIndex,QuesTLX,DemandLevel,DemandRating,DemandRatingRT,QuesStart,PID,SONA,Age,Gender,Run,TIME,EXPERIMENTER,frameRate,
1,./instructions/inst_begin/Slide2.png,right,14.444548705003399,0.1469463069952326,14.591495011998632,,,,,,,,,,,,,,,,,,,,,,,,,,,,,,,,,1,,,,,,,,,,,,,,,,,,,,,,,,,,,,,,,,,,,,,,,,,,,,,,128,150490,22,Female,1,2024/03/27_08:53:30,SD,50.251550720340305,
2,./instructions/inst_begin/Slide3.png,right,11.914525389998744,14.62902408199443,26.543549471993174,,,,,,,,,,,,,,,,,,,,,,,,,,,,,,,,,1,,,,,,,,,,,,,,,,,,,,,,,,,,,,,,,,,,,,,,,,,,,,,,128,150490,22,Female,1,2024/03/27_08:53:30,SD,50.251550720340305,
3,./instructions/inst_begin/Slide4.png,right,8.955017628999485,26.588662406000367,35.54368003499985,,,,,,,,,,,,,,,,,,,,,,,,,,,,,,,,,1,,,,,,,,,,,,,,,,,,,,,,,,,,,,,,,,,,,,,,,,,,,,,,128,150490,22,Female,1,2024/03/27_08:53:30,SD,50.251550720340305,
1,./instructions/inst_prac_2/Slide6.png,right,14.433514521006146,35.61409517199354,50.047609692999686,,,,,,,,,,,,,,,,,,,,,,,,,,,,,,,,,1,,,,,,,,,,,,,,,,,,,,,,,,,,,,,,,,,,,,,,,,,,,,,,128,150490,22,Female,1,2024/03/27_08:53:30,SD,50.251550720340305,
2,./instructions/inst_prac_2/Slide7.png,right,16.046335505998286,50.08119234899641,66.1275278549947,,,,,,,,,,,,,,,,,,,,,,,,,,,,,,,,,1,,,,,,,,,,,,,,,,,,,,,,,,,,,,,,,,,,,,,,,,,,,,,,128,150490,22,Female,1,2024/03/27_08:53:30,SD,50.251550720340305,
3,./instructions/inst_prac_2/Slide8.png,right,15.270736955993925,66.16081159299938,81.4315485489933,,,,,,,,,,,,,,,,,,,,,,,,,,,,,,,,,1,,,,,,,,,,,,,,,,,,,,,,,,,,,,,,,,,,,,,,,,,,,,,,128,150490,22,Female,1,2024/03/27_08:53:30,SD,50.251550720340305,
4,./instructions/inst_prac_2/Slide9.png,right,5.674388519000786,81.51701655199577,87.19140507099655,,,,,,,,,,,,,,,,,,,,,,,,,,,,,,,,,1,,,,,,,,,,,,,,,,,,,,,,,,,,,,,,,,,,,,,,,,,,,,,,128,150490,22,Female,1,2024/03/27_08:53:30,SD,50.251550720340305,
5,./instructions/inst_prac_2/Slide10.png,right,2.0983586750007817,87.24501724499714,89.34337591999792,,,,,,,,,,,,,,,,,,,,,,,,,,,,,,,,,1,,,,,,,,,,,,,,,,,,,,,,,,,,,,,,,,,,,,,,,,,,,,,,128,150490,22,Female,1,2024/03/27_08:53:30,SD,50.251550720340305,
6,./instructions/inst_prac_2/Slide11.png,right,3.4383770569984335,89.37714377099473,92.81552082799317,,,,,,,,,,,,,,,,,,,,,,,,,,,,,,,,,1,,,,,,,,,,,,,,,,,,,,,,,,,,,,,,,,,,,,,,,,,,,,,,128,150490,22,Female,1,2024/03/27_08:53:30,SD,50.251550720340305,
7,./instructions/inst_prac_2/Slide12.png,right,5.358924395994109,92.84856848799973,98.20749288399384,,,,,,,,,,,,,,,,,,,,,,,,,,,,,,,,,1,,,,,,,,,,,,,,,,,,,,,,,,,,,,,,,,,,,,,,,,,,,,,,128,150490,22,Female,1,2024/03/27_08:53:30,SD,50.251550720340305,
8,./instructions/inst_prac_2/Slide13.png,right,4.8309956430020975,98.24045225799637,103.07144790099846,,,,,,,,,,,,,,,,,,,,,,,,,,,,,,,,,1,,,,,,,,,,,,,,,,,,,,,,,,,,,,,,,,,,,,,,,,,,,,,,128,150490,22,Female,1,2024/03/27_08:53:30,SD,50.251550720340305,
9,./instructions/inst_prac_2/Slide14.png,right,26.84659333000309,103.10482702499576,129.95142035499885,,,,,,,,,,,,,,,,,,,,,,,,,,,,,,,,,1,,,,,,,,,,,,,,,,,,,,,,,,,,,,,,,,,,,,,,,,,,,,,,128,150490,22,Female,1,2024/03/27_08:53:30,SD,50.251550720340305,
10,./instructions/inst_prac_2/Slide15.png,right,17.886589137997362,129.98490345799655,147.8714925959939,,,,,,,,,,,,,,,,,,,,,,,,,,,,,,,,,1,,,,,,,,,,,,,,,,,,,,,,,,,,,,,,,,,,,,,,,,,,,,,,128,150490,22,Female,1,2024/03/27_08:53:30,SD,50.251550720340305,
,,,,,,practice,0,14,2,2583,1,J,0,right,2.8517574810030055,1,0,,,,,,,,,,,,,,,,,,,,,1,,,,,,,,,,,,,,,,,,,,,,,,,,,,,,,,,,,,,,,,,,,,,,128,150490,22,Female,1,2024/03/27_08:53:30,SD,50.251550720340305,
,,,,,,practice,0,14,2,2583,2,C,0,right,1.7204563049963326,1,0,,,,,,,,,,,,,,,,,,,,,1,,,,,,,,,,,,,,,,,,,,,,,,,,,,,,,,,,,,,,,,,,,,,,128,150490,22,Female,1,2024/03/27_08:53:30,SD,50.251550720340305,
,,,,,,practice,0,14,2,2583,3,J,1,left,0.7558420409986866,1,0,,,,,,,,,,,,,,,,,,,,,1,,,,,,,,,,,,,,,,,,,,,,,,,,,,,,,,,,,,,,,,,,,,,,128,150490,22,Female,1,2024/03/27_08:53:30,SD,50.251550720340305,
,,,,,,practice,0,14,2,2583,4,C,1,left,1.955776242997672,1,0,,,,,,,,,,,,,,,,,,,,,1,,,,,,,,,,,,,,,,,,,,,,,,,,,,,,,,,,,,,,,,,,,,,,128,150490,22,Female,1,2024/03/27_08:53:30,SD,50.251550720340305,
,,,,,,practice,0,14,2,2583,5,S,0,left,2.2210314410040155,0,0,,,,,,,,,,,,,,,,,,,,,1,,,,,,,,,,,,,,,,,,,,,,,,,,,,,,,,,,,,,,,,,,,,,,128,150490,22,Female,1,2024/03/27_08:53:30,SD,50.251550720340305,
,,,,,,practice,0,14,2,2583,6,F,0,right,2.064054930000566,1,0,,,,,,,,,,,,,,,,,,,,,1,,,,,,,,,,,,,,,,,,,,,,,,,,,,,,,,,,,,,,,,,,,,,,128,150490,22,Female,1,2024/03/27_08:53:30,SD,50.251550720340305,
,,,,,,practice,0,14,2,2583,,,,,,,,0.9375,1.0,0.25,0.75,0.0,0.75,1.9281530735000463,2,1,0,0,0,3,5,2,4,0,,,,1,,,,,,,,,,,,,,,,,,,,,,,,,,,,,,,,,,,,,,,,,,,,,,128,150490,22,Female,1,2024/03/27_08:53:30,SD,50.251550720340305,
1,./instructions/inst_to_cali/Slide20.png,right,6.517620626997086,166.3858537549968,172.90347438199387,,,,,,,,,,,,,,,,,,,,,,,,,,,,,,,,,1,,,,,,,,,,,,,,,,,,,,,,,,,,,,,,,,,,,,,,,,,,,,,,128,150490,22,Female,1,2024/03/27_08:53:30,SD,50.251550720340305,
1,./instructions/inst_cali/Slide22.png,right,12.299106038997706,172.96447431999695,185.26358035899466,,,,,,,,,,,,,,,,,,,,,,,,,,,,,,,,,1,,,,,,,,,,,,,,,,,,,,,,,,,,,,,,,,,,,,,,,,,,,,,,128,150490,22,Female,1,2024/03/27_08:53:30,SD,50.251550720340305,
,,,,,,calibration,0,26,2,583,1,C,0,right,1.0374789869965753,1,0,,,,,,,,,,,,,,,,,,,,,1,,,,,,,,,,,,,,,,,,,,,,,,,,,,,,,,,,,,,,,,,,,,,,128,150490,22,Female,1,2024/03/27_08:53:30,SD,50.251550720340305,
,,,,,,calibration,0,26,2,583,2,J,0,right,0.8751204329964821,1,0,,,,,,,,,,,,,,,,,,,,,1,,,,,,,,,,,,,,,,,,,,,,,,,,,,,,,,,,,,,,,,,,,,,,128,150490,22,Female,1,2024/03/27_08:53:30,SD,50.251550720340305,
,,,,,,calibration,0,26,2,583,3,Q,0,right,0.7754243529998348,1,0,,,,,,,,,,,,,,,,,,,,,1,,,,,,,,,,,,,,,,,,,,,,,,,,,,,,,,,,,,,,,,,,,,,,128,150490,22,Female,1,2024/03/27_08:53:30,SD,50.251550720340305,
,,,,,,calibration,0,26,2,583,4,V,0,right,0.7541667179975775,1,0,,,,,,,,,,,,,,,,,,,,,1,,,,,,,,,,,,,,,,,,,,,,,,,,,,,,,,,,,,,,,,,,,,,,128,150490,22,Female,1,2024/03/27_08:53:30,SD,50.251550720340305,
,,,,,,calibration,0,26,2,583,5,N,0,right,0.48288910800329177,1,0,,,,,,,,,,,,,,,,,,,,,1,,,,,,,,,,,,,,,,,,,,,,,,,,,,,,,,,,,,,,,,,,,,,,128,150490,22,Female,1,2024/03/27_08:53:30,SD,50.251550720340305,
,,,,,,calibration,0,26,2,583,6,V,1,right,1.074202071999025,0,0,,,,,,,,,,,,,,,,,,,,,1,,,,,,,,,,,,,,,,,,,,,,,,,,,,,,,,,,,,,,,,,,,,,,128,150490,22,Female,1,2024/03/27_08:53:30,SD,50.251550720340305,
,,,,,,calibration,0,26,2,583,7,N,1,right,0.6948553960028221,0,0,,,,,,,,,,,,,,,,,,,,,1,,,,,,,,,,,,,,,,,,,,,,,,,,,,,,,,,,,,,,,,,,,,,,128,150490,22,Female,1,2024/03/27_08:53:30,SD,50.251550720340305,
,,,,,,calibration,0,26,2,583,8,J,0,right,0.8368086050031707,1,0,,,,,,,,,,,,,,,,,,,,,1,,,,,,,,,,,,,,,,,,,,,,,,,,,,,,,,,,,,,,,,,,,,,,128,150490,22,Female,1,2024/03/27_08:53:30,SD,50.251550720340305,
,,,,,,calibration,0,26,2,583,9,N,1,right,0.7352106159960385,0,0,,,,,,,,,,,,,,,,,,,,,1,,,,,,,,,,,,,,,,,,,,,,,,,,,,,,,,,,,,,,,,,,,,,,128,150490,22,Female,1,2024/03/27_08:53:30,SD,50.251550720340305,
,,,,,,calibration,0,26,2,583,10,C,0,right,0.6752510669975891,1,0,,,,,,,,,,,,,,,,,,,,,1,,,,,,,,,,,,,,,,,,,,,,,,,,,,,,,,,,,,,,,,,,,,,,128,150490,22,Female,1,2024/03/27_08:53:30,SD,50.251550720340305,
,,,,,,calibration,0,26,2,583,11,J,0,left,0.5555504579970147,0,0,,,,,,,,,,,,,,,,,,,,,1,,,,,,,,,,,,,,,,,,,,,,,,,,,,,,,,,,,,,,,,,,,,,,128,150490,22,Female,1,2024/03/27_08:53:30,SD,50.251550720340305,
,,,,,,calibration,0,26,2,583,12,X,0,right,0.5948086220014375,1,0,,,,,,,,,,,,,,,,,,,,,1,,,,,,,,,,,,,,,,,,,,,,,,,,,,,,,,,,,,,,,,,,,,,,128,150490,22,Female,1,2024/03/27_08:53:30,SD,50.251550720340305,
,,,,,,calibration,0,26,2,583,13,Q,0,left,0.3905146440010867,0,0,,,,,,,,,,,,,,,,,,,,,1,,,,,,,,,,,,,,,,,,,,,,,,,,,,,,,,,,,,,,,,,,,,,,128,150490,22,Female,1,2024/03/27_08:53:30,SD,50.251550720340305,
,,,,,,calibration,0,26,2,583,14,X,1,right,0.5953276639993419,0,0,,,,,,,,,,,,,,,,,,,,,1,,,,,,,,,,,,,,,,,,,,,,,,,,,,,,,,,,,,,,,,,,,,,,128,150490,22,Female,1,2024/03/27_08:53:30,SD,50.251550720340305,
,,,,,,calibration,0,26,2,583,15,J,0,right,0.9544655210047495,1,0,,,,,,,,,,,,,,,,,,,,,1,,,,,,,,,,,,,,,,,,,,,,,,,,,,,,,,,,,,,,,,,,,,,,128,150490,22,Female,1,2024/03/27_08:53:30,SD,50.251550720340305,
,,,,,,calibration,0,26,2,583,,,,,,,,0.20454545454545453,0.0,0.18181818181818182,0.8181818181818182,0.0,0.8181818181818181,0.7354716175997358,0,2,0,0,0,9,9,4,11,0,,,,1,,,,,,,,,,,,,,,,,,,,,,,,,,,,,,,,,,,,,,,,,,,,,,128,150490,22,Female,1,2024/03/27_08:53:30,SD,50.251550720340305,
,,,,,,Calibration,0,,2,583,,,,,,,,,,,,,,,,,,,,,,,,,1,,,1,,,,,,,,,,,,,,,,,,,,,,,,,,,,,,,,,,,,,,,,,,,,,,128,150490,22,Female,1,2024/03/27_08:53:30,SD,50.251550720340305,
,,,,,,calibration,0,18,2,679,1,C,0,right,1.494842204003362,1,0,,,,,,,,,,,,,,,,,,,,,1,,,,,,,,,,,,,,,,,,,,,,,,,,,,,,,,,,,,,,,,,,,,,,128,150490,22,Female,1,2024/03/27_08:53:30,SD,50.251550720340305,
,,,,,,calibration,0,18,2,679,2,S,0,right,0.9145455620018765,1,0,,,,,,,,,,,,,,,,,,,,,1,,,,,,,,,,,,,,,,,,,,,,,,,,,,,,,,,,,,,,,,,,,,,,128,150490,22,Female,1,2024/03/27_08:53:30,SD,50.251550720340305,
,,,,,,calibration,0,18,2,679,3,C,1,left,0.39408182600163855,1,0,,,,,,,,,,,,,,,,,,,,,1,,,,,,,,,,,,,,,,,,,,,,,,,,,,,,,,,,,,,,,,,,,,,,128,150490,22,Female,1,2024/03/27_08:53:30,SD,50.251550720340305,
,,,,,,calibration,0,18,2,679,4,J,0,right,0.9729703780030832,1,0,,,,,,,,,,,,,,,,,,,,,1,,,,,,,,,,,,,,,,,,,,,,,,,,,,,,,,,,,,,,,,,,,,,,128,150490,22,Female,1,2024/03/27_08:53:30,SD,50.251550720340305,
,,,,,,calibration,0,18,2,679,5,N,0,right,0.6550791359986761,1,0,,,,,,,,,,,,,,,,,,,,,1,,,,,,,,,,,,,,,,,,,,,,,,,,,,,,,,,,,,,,,,,,,,,,128,150490,22,Female,1,2024/03/27_08:53:30,SD,50.251550720340305,
,,,,,,calibration,0,18,2,679,6,J,1,left,0.36475491899909684,1,0,,,,,,,,,,,,,,,,,,,,,1,,,,,,,,,,,,,,,,,,,,,,,,,,,,,,,,,,,,,,,,,,,,,,128,150490,22,Female,1,2024/03/27_08:53:30,SD,50.251550720340305,
,,,,,,calibration,0,18,2,679,7,X,0,right,0.47351121800602414,1,0,,,,,,,,,,,,,,,,,,,,,1,,,,,,,,,,,,,,,,,,,,,,,,,,,,,,,,,,,,,,,,,,,,,,128,150490,22,Female,1,2024/03/27_08:53:30,SD,50.251550720340305,
,,,,,,calibration,0,18,2,679,8,F,0,right,0.8553935180025292,1,0,,,,,,,,,,,,,,,,,,,,,1,,,,,,,,,,,,,,,,,,,,,,,,,,,,,,,,,,,,,,,,,,,,,,128,150490,22,Female,1,2024/03/27_08:53:30,SD,50.251550720340305,
,,,,,,calibration,0,18,2,679,9,V,0,right,0.7492786959992372,1,0,,,,,,,,,,,,,,,,,,,,,1,,,,,,,,,,,,,,,,,,,,,,,,,,,,,,,,,,,,,,,,,,,,,,128,150490,22,Female,1,2024/03/27_08:53:30,SD,50.251550720340305,
,,,,,,calibration,0,18,2,679,10,Q,0,right,0.5359213190022274,1,0,,,,,,,,,,,,,,,,,,,,,1,,,,,,,,,,,,,,,,,,,,,,,,,,,,,,,,,,,,,,,,,,,,,,128,150490,22,Female,1,2024/03/27_08:53:30,SD,50.251550720340305,
,,,,,,calibration,0,18,2,679,11,V,1,left,0.37728235500253504,1,0,,,,,,,,,,,,,,,,,,,,,1,,,,,,,,,,,,,,,,,,,,,,,,,,,,,,,,,,,,,,,,,,,,,,128,150490,22,Female,1,2024/03/27_08:53:30,SD,50.251550720340305,
,,,,,,calibration,0,18,2,679,12,F,0,left,0.9140051009962917,0,0,,,,,,,,,,,,,,,,,,,,,1,,,,,,,,,,,,,,,,,,,,,,,,,,,,,,,,,,,,,,,,,,,,,,128,150490,22,Female,1,2024/03/27_08:53:30,SD,50.251550720340305,
,,,,,,calibration,0,18,2,679,13,J,0,right,0.4140105059996131,1,0,,,,,,,,,,,,,,,,,,,,,1,,,,,,,,,,,,,,,,,,,,,,,,,,,,,,,,,,,,,,,,,,,,,,128,150490,22,Female,1,2024/03/27_08:53:30,SD,50.251550720340305,
,,,,,,calibration,0,18,2,679,14,F,1,left,0.5357061289978446,1,0,,,,,,,,,,,,,,,,,,,,,1,,,,,,,,,,,,,,,,,,,,,,,,,,,,,,,,,,,,,,,,,,,,,,128,150490,22,Female,1,2024/03/27_08:53:30,SD,50.251550720340305,
,,,,,,calibration,0,18,2,679,,,,,,,,0.975,1.0,0.1,0.9,0.0,0.9,0.6893844905010026,4,1,0,0,0,9,13,4,10,0,,,,1,,,,,,,,,,,,,,,,,,,,,,,,,,,,,,,,,,,,,,,,,,,,,,128,150490,22,Female,1,2024/03/27_08:53:30,SD,50.251550720340305,
,,,,,,Calibration,0,,2,679,,,,,,,,,,,,,,,,,,,,,,,,,2,,,1,,,,,,,,,,,,,,,,,,,,,,,,,,,,,,,,,,,,,,,,,,,,,,128,150490,22,Female,1,2024/03/27_08:53:30,SD,50.251550720340305,
,,,,,,calibration,0,22,2,583,1,F,0,right,1.3468186079990119,1,0,,,,,,,,,,,,,,,,,,,,,1,,,,,,,,,,,,,,,,,,,,,,,,,,,,,,,,,,,,,,,,,,,,,,128,150490,22,Female,1,2024/03/27_08:53:30,SD,50.251550720340305,
,,,,,,calibration,0,22,2,583,2,F,0,right,1.3682962360035162,1,0,,,,,,,,,,,,,,,,,,,,,1,,,,,,,,,,,,,,,,,,,,,,,,,,,,,,,,,,,,,,,,,,,,,,128,150490,22,Female,1,2024/03/27_08:53:30,SD,50.251550720340305,
,,,,,,calibration,0,22,2,583,3,F,1,left,0.6149330109983566,1,0,,,,,,,,,,,,,,,,,,,,,1,,,,,,,,,,,,,,,,,,,,,,,,,,,,,,,,,,,,,,,,,,,,,,128,150490,22,Female,1,2024/03/27_08:53:30,SD,50.251550720340305,
,,,,,,calibration,0,22,2,583,4,F,1,left,0.9138167789933505,1,0,,,,,,,,,,,,,,,,,,,,,1,,,,,,,,,,,,,,,,,,,,,,,,,,,,,,,,,,,,,,,,,,,,,,128,150490,22,Female,1,2024/03/27_08:53:30,SD,50.251550720340305,
,,,,,,calibration,0,22,2,583,5,X,0,right,0.6143779019985232,1,0,,,,,,,,,,,,,,,,,,,,,1,,,,,,,,,,,,,,,,,,,,,,,,,,,,,,,,,,,,,,,,,,,,,,128,150490,22,Female,1,2024/03/27_08:53:30,SD,50.251550720340305,
,,,,,,calibration,0,22,2,583,6,F,1,left,0.7346668879981735,1,0,,,,,,,,,,,,,,,,,,,,,1,,,,,,,,,,,,,,,,,,,,,,,,,,,,,,,,,,,,,,,,,,,,,,128,150490,22,Female,1,2024/03/27_08:53:30,SD,50.251550720340305,
,,,,,,calibration,0,22,2,583,7,N,0,right,0.5152782859950094,1,0,,,,,,,,,,,,,,,,,,,,,1,,,,,,,,,,,,,,,,,,,,,,,,,,,,,,,,,,,,,,,,,,,,,,128,150490,22,Female,1,2024/03/27_08:53:30,SD,50.251550720340305,
,,,,,,calibration,0,22,2,583,8,S,0,right,0.9536853300014627,1,0,,,,,,,,,,,,,,,,,,,,,1,,,,,,,,,,,,,,,,,,,,,,,,,,,,,,,,,,,,,,,,,,,,,,128,150490,22,Female,1,2024/03/27_08:53:30,SD,50.251550720340305,
,,,,,,calibration,0,22,2,583,9,X,0,right,0.8747656589985127,1,0,,,,,,,,,,,,,,,,,,,,,1,,,,,,,,,,,,,,,,,,,,,,,,,,,,,,,,,,,,,,,,,,,,,,128,150490,22,Female,1,2024/03/27_08:53:30,SD,50.251550720340305,
,,,,,,calibration,0,22,2,583,10,S,1,left,0.37479492100101197,1,0,,,,,,,,,,,,,,,,,,,,,1,,,,,,,,,,,,,,,,,,,,,,,,,,,,,,,,,,,,,,,,,,,,,,128,150490,22,Female,1,2024/03/27_08:53:30,SD,50.251550720340305,
,,,,,,calibration,0,22,2,583,11,X,1,right,0.9496744319985737,0,0,,,,,,,,,,,,,,,,,,,,,1,,,,,,,,,,,,,,,,,,,,,,,,,,,,,,,,,,,,,,,,,,,,,,128,150490,22,Female,1,2024/03/27_08:53:30,SD,50.251550720340305,
,,,,,,calibration,0,22,2,583,12,J,0,right,0.9895707979958388,1,0,,,,,,,,,,,,,,,,,,,,,1,,,,,,,,,,,,,,,,,,,,,,,,,,,,,,,,,,,,,,,,,,,,,,128,150490,22,Female,1,2024/03/27_08:53:30,SD,50.251550720340305,
,,,,,,calibration,0,22,2,583,13,N,0,right,0.832839378999779,1,0,,,,,,,,,,,,,,,,,,,,,1,,,,,,,,,,,,,,,,,,,,,,,,,,,,,,,,,,,,,,,,,,,,,,128,150490,22,Female,1,2024/03/27_08:53:30,SD,50.251550720340305,
,,,,,,calibration,0,22,2,583,14,X,0,left,0.6151176280036452,0,0,,,,,,,,,,,,,,,,,,,,,1,,,,,,,,,,,,,,,,,,,,,,,,,,,,,,,,,,,,,,,,,,,,,,128,150490,22,Female,1,2024/03/27_08:53:30,SD,50.251550720340305,
,,,,,,calibration,0,22,2,583,15,J,0,right,0.8342327239952283,1,0,,,,,,,,,,,,,,,,,,,,,1,,,,,,,,,,,,,,,,,,,,,,,,,,,,,,,,,,,,,,,,,,,,,,128,150490,22,Female,1,2024/03/27_08:53:30,SD,50.251550720340305,
,,,,,,calibration,0,22,2,583,,,,,,,,0.905,0.8,0.1,0.9,0.0,0.9,0.8355245720653329,4,1,0,0,0,9,13,5,10,0,,,,1,,,,,,,,,,,,,,,,,,,,,,,,,,,,,,,,,,,,,,,,,,,,,,128,150490,22,Female,1,2024/03/27_08:53:30,SD,50.251550720340305,
,,,,,,Calibration,0,,2,583,,,,,,,,,,,,,,,,,,,,,,,,,3,,,1,,,,,,,,,,,,,,,,,,,,,,,,,,,,,,,,,,,,,,,,,,,,,,128,150490,22,Female,1,2024/03/27_08:53:30,SD,50.251550720340305,
,,,,,,calibration,0,6,2,500,1,N,0,None,nan,0,1,,,,,,,,,,,,,,,,,,,,,1,,,,,,,,,,,,,,,,,,,,,,,,,,,,,,,,,,,,,,,,,,,,,,128,150490,22,Female,1,2024/03/27_08:53:30,SD,50.251550720340305,
,,,,,,calibration,0,6,2,500,2,F,0,right,0.16787673600629205,1,0,,,,,,,,,,,,,,,,,,,,,1,,,,,,,,,,,,,,,,,,,,,,,,,,,,,,,,,,,,,,,,,,,,,,128,150490,22,Female,1,2024/03/27_08:53:30,SD,50.251550720340305,
,,,,,,calibration,0,6,2,500,3,N,1,left,0.39386107600148534,1,0,,,,,,,,,,,,,,,,,,,,,1,,,,,,,,,,,,,,,,,,,,,,,,,,,,,,,,,,,,,,,,,,,,,,128,150490,22,Female,1,2024/03/27_08:53:30,SD,50.251550720340305,
,,,,,,calibration,0,6,2,500,4,S,0,left,nan,0,1,,,,,,,,,,,,,,,,,,,,,1,,,,,,,,,,,,,,,,,,,,,,,,,,,,,,,,,,,,,,,,,,,,,,128,150490,22,Female,1,2024/03/27_08:53:30,SD,50.251550720340305,
,,,,,,calibration,0,6,2,500,5,N,1,right,0.7939152110047871,0,0,,,,,,,,,,,,,,,,,,,,,1,,,,,,,,,,,,,,,,,,,,,,,,,,,,,,,,,,,,,,,,,,,,,,128,150490,22,Female,1,2024/03/27_08:53:30,SD,50.251550720340305,
,,,,,,calibration,0,6,2,500,6,S,1,left,0.4361875989998225,1,0,,,,,,,,,,,,,,,,,,,,,1,,,,,,,,,,,,,,,,,,,,,,,,,,,,,,,,,,,,,,,,,,,,,,128,150490,22,Female,1,2024/03/27_08:53:30,SD,50.251550720340305,
,,,,,,calibration,0,6,2,500,7,X,0,right,0.6357684730028268,1,0,,,,,,,,,,,,,,,,,,,,,1,,,,,,,,,,,,,,,,,,,,,,,,,,,,,,,,,,,,,,,,,,,,,,128,150490,22,Female,1,2024/03/27_08:53:30,SD,50.251550720340305,
,,,,,,calibration,0,6,2,500,8,J,0,right,0.6978380369982915,1,0,,,,,,,,,,,,,,,,,,,,,1,,,,,,,,,,,,,,,,,,,,,,,,,,,,,,,,,,,,,,,,,,,,,,128,150490,22,Female,1,2024/03/27_08:53:30,SD,50.251550720340305,
,,,,,,calibration,0,6,2,500,9,Q,0,right,0.6339012629978242,1,0,,,,,,,,,,,,,,,,,,,,,1,,,,,,,,,,,,,,,,,,,,,,,,,,,,,,,,,,,,,,,,,,,,,,128,150490,22,Female,1,2024/03/27_08:53:30,SD,50.251550720340305,
,,,,,,calibration,0,6,2,500,10,C,0,left,0.514913097002136,0,0,,,,,,,,,,,,,,,,,,,,,1,,,,,,,,,,,,,,,,,,,,,,,,,,,,,,,,,,,,,,,,,,,,,,128,150490,22,Female,1,2024/03/27_08:53:30,SD,50.251550720340305,
,,,,,,calibration,0,6,2,500,11,X,0,right,0.4107164879969787,1,0,,,,,,,,,,,,,,,,,,,,,1,,,,,,,,,,,,,,,,,,,,,,,,,,,,,,,,,,,,,,,,,,,,,,128,150490,22,Female,1,2024/03/27_08:53:30,SD,50.251550720340305,
,,,,,,calibration,0,6,2,500,12,S,0,left,0.6943387179999263,0,0,,,,,,,,,,,,,,,,,,,,,1,,,,,,,,,,,,,,,,,,,,,,,,,,,,,,,,,,,,,,,,,,,,,,128,150490,22,Female,1,2024/03/27_08:53:30,SD,50.251550720340305,
,,,,,,calibration,0,6,2,500,13,J,0,right,0.6557131259978632,1,0,,,,,,,,,,,,,,,,,,,,,1,,,,,,,,,,,,,,,,,,,,,,,,,,,,,,,,,,,,,,,,,,,,,,128,150490,22,Female,1,2024/03/27_08:53:30,SD,50.251550720340305,
,,,,,,calibration,0,6,2,500,14,F,0,left,0.6544223910022993,0,0,,,,,,,,,,,,,,,,,,,,,1,,,,,,,,,,,,,,,,,,,,,,,,,,,,,,,,,,,,,,,,,,,,,,128,150490,22,Female,1,2024/03/27_08:53:30,SD,50.251550720340305,
,,,,,,calibration,0,6,2,500,15,V,0,left,nan,0,1,,,,,,,,,,,,,,,,,,,,,1,,,,,,,,,,,,,,,,,,,,,,,,,,,,,,,,,,,,,,,,,,,,,,128,150490,22,Female,1,2024/03/27_08:53:30,SD,50.251550720340305,
,,,,,,calibration,0,6,2,500,16,F,1,right,0.37548197800060734,0,0,,,,,,,,,,,,,,,,,,,,,1,,,,,,,,,,,,,,,,,,,,,,,,,,,,,,,,,,,,,,,,,,,,,,128,150490,22,Female,1,2024/03/27_08:53:30,SD,50.251550720340305,
,,,,,,calibration,0,6,2,500,,,,,,,,0.6875,0.5,0.25,0.6666666666666666,0.1875,0.5625,0.5434564763854723,2,3,0,3,3,6,8,4,12,0,,,,1,,,,,,,,,,,,,,,,,,,,,,,,,,,,,,,,,,,,,,,,,,,,,,128,150490,22,Female,1,2024/03/27_08:53:30,SD,50.251550720340305,
,,,,,,Calibration,0,,2,500,,,,,,,,,,,,,,,,,,,,,,,,,4,,,1,,,,,,,,,,,,,,,,,,,,,,,,,,,,,,,,,,,,,,,,,,,,,,128,150490,22,Female,1,2024/03/27_08:53:30,SD,50.251550720340305,
,,,,,,calibration,0,10,2,583,1,F,0,left,0.5902257109992206,0,0,,,,,,,,,,,,,,,,,,,,,1,,,,,,,,,,,,,,,,,,,,,,,,,,,,,,,,,,,,,,,,,,,,,,128,150490,22,Female,1,2024/03/27_08:53:30,SD,50.251550720340305,
,,,,,,calibration,0,10,2,583,2,V,0,right,0.41108215999702225,1,0,,,,,,,,,,,,,,,,,,,,,1,,,,,,,,,,,,,,,,,,,,,,,,,,,,,,,,,,,,,,,,,,,,,,128,150490,22,Female,1,2024/03/27_08:53:30,SD,50.251550720340305,
,,,,,,calibration,0,10,2,583,3,S,0,left,0.47546960399631644,0,0,,,,,,,,,,,,,,,,,,,,,1,,,,,,,,,,,,,,,,,,,,,,,,,,,,,,,,,,,,,,,,,,,,,,128,150490,22,Female,1,2024/03/27_08:53:30,SD,50.251550720340305,
,,,,,,calibration,0,10,2,583,4,N,0,right,0.7151869400040596,1,0,,,,,,,,,,,,,,,,,,,,,1,,,,,,,,,,,,,,,,,,,,,,,,,,,,,,,,,,,,,,,,,,,,,,128,150490,22,Female,1,2024/03/27_08:53:30,SD,50.251550720340305,
,,,,,,calibration,0,10,2,583,5,V,0,right,0.5552490710033453,1,0,,,,,,,,,,,,,,,,,,,,,1,,,,,,,,,,,,,,,,,,,,,,,,,,,,,,,,,,,,,,,,,,,,,,128,150490,22,Female,1,2024/03/27_08:53:30,SD,50.251550720340305,
,,,,,,calibration,0,10,2,583,6,N,1,right,0.529326031995879,0,0,,,,,,,,,,,,,,,,,,,,,1,,,,,,,,,,,,,,,,,,,,,,,,,,,,,,,,,,,,,,,,,,,,,,128,150490,22,Female,1,2024/03/27_08:53:30,SD,50.251550720340305,
,,,,,,calibration,0,10,2,583,7,Q,0,left,0.7092417210005806,0,0,,,,,,,,,,,,,,,,,,,,,1,,,,,,,,,,,,,,,,,,,,,,,,,,,,,,,,,,,,,,,,,,,,,,128,150490,22,Female,1,2024/03/27_08:53:30,SD,50.251550720340305,
,,,,,,calibration,0,10,2,583,8,N,1,left,0.5152214409972657,1,0,,,,,,,,,,,,,,,,,,,,,1,,,,,,,,,,,,,,,,,,,,,,,,,,,,,,,,,,,,,,,,,,,,,,128,150490,22,Female,1,2024/03/27_08:53:30,SD,50.251550720340305,
,,,,,,calibration,0,10,2,583,9,S,0,left,nan,0,1,,,,,,,,,,,,,,,,,,,,,1,,,,,,,,,,,,,,,,,,,,,,,,,,,,,,,,,,,,,,,,,,,,,,128,150490,22,Female,1,2024/03/27_08:53:30,SD,50.251550720340305,
,,,,,,calibration,0,10,2,583,10,N,1,right,1.0932063450018177,0,0,,,,,,,,,,,,,,,,,,,,,1,,,,,,,,,,,,,,,,,,,,,,,,,,,,,,,,,,,,,,,,,,,,,,128,150490,22,Female,1,2024/03/27_08:53:30,SD,50.251550720340305,
,,,,,,calibration,0,10,2,583,11,C,0,right,0.8140634009978385,1,0,,,,,,,,,,,,,,,,,,,,,1,,,,,,,,,,,,,,,,,,,,,,,,,,,,,,,,,,,,,,,,,,,,,,128,150490,22,Female,1,2024/03/27_08:53:30,SD,50.251550720340305,
,,,,,,calibration,0,10,2,583,12,S,0,right,0.5153209019990754,1,0,,,,,,,,,,,,,,,,,,,,,1,,,,,,,,,,,,,,,,,,,,,,,,,,,,,,,,,,,,,,,,,,,,,,128,150490,22,Female,1,2024/03/27_08:53:30,SD,50.251550720340305,
,,,,,,calibration,0,10,2,583,13,C,1,left,0.815692519005097,1,0,,,,,,,,,,,,,,,,,,,,,1,,,,,,,,,,,,,,,,,,,,,,,,,,,,,,,,,,,,,,,,,,,,,,128,150490,22,Female,1,2024/03/27_08:53:30,SD,50.251550720340305,
,,,,,,calibration,0,10,2,583,14,Q,0,right,0.4821515739968163,1,0,,,,,,,,,,,,,,,,,,,,,1,,,,,,,,,,,,,,,,,,,,,,,,,,,,,,,,,,,,,,,,,,,,,,128,150490,22,Female,1,2024/03/27_08:53:30,SD,50.251550720340305,
,,,,,,calibration,0,10,2,583,15,S,0,left,0.554745499001001,0,0,,,,,,,,,,,,,,,,,,,,,1,,,,,,,,,,,,,,,,,,,,,,,,,,,,,,,,,,,,,,,,,,,,,,128,150490,22,Female,1,2024/03/27_08:53:30,SD,50.251550720340305,
,,,,,,calibration,0,10,2,583,,,,,,,,0.6022727272727273,0.5,0.36363636363636365,0.6,0.06666666666666667,0.5696969696969697,0.6268702085710954,2,4,0,1,1,6,8,4,11,0,,,,1,,,,,,,,,,,,,,,,,,,,,,,,,,,,,,,,,,,,,,,,,,,,,,128,150490,22,Female,1,2024/03/27_08:53:30,SD,50.251550720340305,
,,,,,,Calibration,0,,2,583,,,,,,,,,,,,,,,,,,,,,,,,,5,,,1,,,,,,,,,,,,,,,,,,,,,,,,,,,,,,,,,,,,,,,,,,,,,,128,150490,22,Female,1,2024/03/27_08:53:30,SD,50.251550720340305,
,,,,,,calibration,0,34,2,679,1,Q,0,right,0.7344439459993737,1,0,,,,,,,,,,,,,,,,,,,,,1,,,,,,,,,,,,,,,,,,,,,,,,,,,,,,,,,,,,,,,,,,,,,,128,150490,22,Female,1,2024/03/27_08:53:30,SD,50.251550720340305,
,,,,,,calibration,0,34,2,679,2,Q,0,left,0.6559985089988913,0,0,,,,,,,,,,,,,,,,,,,,,1,,,,,,,,,,,,,,,,,,,,,,,,,,,,,,,,,,,,,,,,,,,,,,128,150490,22,Female,1,2024/03/27_08:53:30,SD,50.251550720340305,
,,,,,,calibration,0,34,2,679,3,Q,1,left,0.7147448550022091,1,0,,,,,,,,,,,,,,,,,,,,,1,,,,,,,,,,,,,,,,,,,,,,,,,,,,,,,,,,,,,,,,,,,,,,128,150490,22,Female,1,2024/03/27_08:53:30,SD,50.251550720340305,
,,,,,,calibration,0,34,2,679,4,Q,1,right,0.6956956520007225,0,0,,,,,,,,,,,,,,,,,,,,,1,,,,,,,,,,,,,,,,,,,,,,,,,,,,,,,,,,,,,,,,,,,,,,128,150490,22,Female,1,2024/03/27_08:53:30,SD,50.251550720340305,
,,,,,,calibration,0,34,2,679,5,X,0,right,nan,0,1,,,,,,,,,,,,,,,,,,,,,1,,,,,,,,,,,,,,,,,,,,,,,,,,,,,,,,,,,,,,,,,,,,,,128,150490,22,Female,1,2024/03/27_08:53:30,SD,50.251550720340305,
,,,,,,calibration,0,34,2,679,6,C,0,right,0.4385571590028121,1,0,,,,,,,,,,,,,,,,,,,,,1,,,,,,,,,,,,,,,,,,,,,,,,,,,,,,,,,,,,,,,,,,,,,,128,150490,22,Female,1,2024/03/27_08:53:30,SD,50.251550720340305,
,,,,,,calibration,0,34,2,679,7,F,0,right,nan,0,1,,,,,,,,,,,,,,,,,,,,,1,,,,,,,,,,,,,,,,,,,,,,,,,,,,,,,,,,,,,,,,,,,,,,128,150490,22,Female,1,2024/03/27_08:53:30,SD,50.251550720340305,
,,,,,,calibration,0,34,2,679,8,J,0,right,0.7544944979963475,1,0,,,,,,,,,,,,,,,,,,,,,1,,,,,,,,,,,,,,,,,,,,,,,,,,,,,,,,,,,,,,,,,,,,,,128,150490,22,Female,1,2024/03/27_08:53:30,SD,50.251550720340305,
,,,,,,calibration,0,34,2,679,9,F,1,left,0.695047549001174,1,0,,,,,,,,,,,,,,,,,,,,,1,,,,,,,,,,,,,,,,,,,,,,,,,,,,,,,,,,,,,,,,,,,,,,128,150490,22,Female,1,2024/03/27_08:53:30,SD,50.251550720340305,
,,,,,,calibration,0,34,2,679,10,Q,0,right,0.6948360610040254,1,0,,,,,,,,,,,,,,,,,,,,,1,,,,,,,,,,,,,,,,,,,,,,,,,,,,,,,,,,,,,,,,,,,,,,128,150490,22,Female,1,2024/03/27_08:53:30,SD,50.251550720340305,
,,,,,,calibration,0,34,2,679,11,V,0,right,0.7146780370021588,1,0,,,,,,,,,,,,,,,,,,,,,1,,,,,,,,,,,,,,,,,,,,,,,,,,,,,,,,,,,,,,,,,,,,,,128,150490,22,Female,1,2024/03/27_08:53:30,SD,50.251550720340305,
,,,,,,calibration,0,34,2,679,12,C,0,right,0.9337381340010324,1,0,,,,,,,,,,,,,,,,,,,,,1,,,,,,,,,,,,,,,,,,,,,,,,,,,,,,,,,,,,,,,,,,,,,,128,150490,22,Female,1,2024/03/27_08:53:30,SD,50.251550720340305,
,,,,,,calibration,0,34,2,679,13,J,0,left,0.8753158210020047,0,0,,,,,,,,,,,,,,,,,,,,,1,,,,,,,,,,,,,,,,,,,,,,,,,,,,,,,,,,,,,,,,,,,,,,128,150490,22,Female,1,2024/03/27_08:53:30,SD,50.251550720340305,
,,,,,,calibration,0,34,2,679,14,C,1,right,0.7542554169995128,0,0,,,,,,,,,,,,,,,,,,,,,1,,,,,,,,,,,,,,,,,,,,,,,,,,,,,,,,,,,,,,,,,,,,,,128,150490,22,Female,1,2024/03/27_08:53:30,SD,50.251550720340305,
,,,,,,calibration,0,34,2,679,,,,,,,,0.725,0.5,0.2,0.75,0.14285714285714285,0.6571428571428573,0.7218171365008553,2,2,0,2,2,6,8,4,10,0,,,,1,,,,,,,,,,,,,,,,,,,,,,,,,,,,,,,,,,,,,,,,,,,,,,128,150490,22,Female,1,2024/03/27_08:53:30,SD,50.251550720340305,
,,,,,,Calibration,0,,2,679,,,,,,,,,,,,,,,,,,,,,,,,,6,,,1,,,,,,,,,,,,,,,,,,,,,,,,,,,,,,,,,,,,,,,,,,,,,,128,150490,22,Female,1,2024/03/27_08:53:30,SD,50.251550720340305,
,,,,,,calibration,0,22,2,788,1,V,0,None,nan,0,1,,,,,,,,,,,,,,,,,,,,,1,,,,,,,,,,,,,,,,,,,,,,,,,,,,,,,,,,,,,,,,,,,,,,128,150490,22,Female,1,2024/03/27_08:53:30,SD,50.251550720340305,
,,,,,,calibration,0,22,2,788,2,Q,0,left,1.054270123000606,0,0,,,,,,,,,,,,,,,,,,,,,1,,,,,,,,,,,,,,,,,,,,,,,,,,,,,,,,,,,,,,,,,,,,,,128,150490,22,Female,1,2024/03/27_08:53:30,SD,50.251550720340305,
,,,,,,calibration,0,22,2,788,3,F,0,right,0.45734118900145404,1,0,,,,,,,,,,,,,,,,,,,,,1,,,,,,,,,,,,,,,,,,,,,,,,,,,,,,,,,,,,,,,,,,,,,,128,150490,22,Female,1,2024/03/27_08:53:30,SD,50.251550720340305,
,,,,,,calibration,0,22,2,788,4,N,0,right,0.5540294609963894,1,0,,,,,,,,,,,,,,,,,,,,,1,,,,,,,,,,,,,,,,,,,,,,,,,,,,,,,,,,,,,,,,,,,,,,128,150490,22,Female,1,2024/03/27_08:53:30,SD,50.251550720340305,
,,,,,,calibration,0,22,2,788,5,C,0,right,0.5750231239944696,1,0,,,,,,,,,,,,,,,,,,,,,1,,,,,,,,,,,,,,,,,,,,,,,,,,,,,,,,,,,,,,,,,,,,,,128,150490,22,Female,1,2024/03/27_08:53:30,SD,50.251550720340305,
,,,,,,calibration,0,22,2,788,6,V,0,right,nan,0,1,,,,,,,,,,,,,,,,,,,,,1,,,,,,,,,,,,,,,,,,,,,,,,,,,,,,,,,,,,,,,,,,,,,,128,150490,22,Female,1,2024/03/27_08:53:30,SD,50.251550720340305,
,,,,,,calibration,0,22,2,788,7,C,1,right,0.41143994400044903,0,0,,,,,,,,,,,,,,,,,,,,,1,,,,,,,,,,,,,,,,,,,,,,,,,,,,,,,,,,,,,,,,,,,,,,128,150490,22,Female,1,2024/03/27_08:53:30,SD,50.251550720340305,
,,,,,,calibration,0,22,2,788,8,X,0,right,nan,0,1,,,,,,,,,,,,,,,,,,,,,1,,,,,,,,,,,,,,,,,,,,,,,,,,,,,,,,,,,,,,,,,,,,,,128,150490,22,Female,1,2024/03/27_08:53:30,SD,50.251550720340305,
,,,,,,calibration,0,22,2,788,9,C,1,right,1.8133942299973569,0,0,,,,,,,,,,,,,,,,,,,,,1,,,,,,,,,,,,,,,,,,,,,,,,,,,,,,,,,,,,,,,,,,,,,,128,150490,22,Female,1,2024/03/27_08:53:30,SD,50.251550720340305,
,,,,,,calibration,0,22,2,788,10,S,0,left,0.7095737510026083,0,0,,,,,,,,,,,,,,,,,,,,,1,,,,,,,,,,,,,,,,,,,,,,,,,,,,,,,,,,,,,,,,,,,,,,128,150490,22,Female,1,2024/03/27_08:53:30,SD,50.251550720340305,
,,,,,,calibration,0,22,2,788,11,C,1,right,0.2677968060015701,0,0,,,,,,,,,,,,,,,,,,,,,1,,,,,,,,,,,,,,,,,,,,,,,,,,,,,,,,,,,,,,,,,,,,,,128,150490,22,Female,1,2024/03/27_08:53:30,SD,50.251550720340305,
,,,,,,calibration,0,22,2,788,12,S,1,right,0.6353274110006168,0,0,,,,,,,,,,,,,,,,,,,,,1,,,,,,,,,,,,,,,,,,,,,,,,,,,,,,,,,,,,,,,,,,,,,,128,150490,22,Female,1,2024/03/27_08:53:30,SD,50.251550720340305,
,,,,,,calibration,0,22,2,788,13,Q,0,right,0.3664875789982034,1,0,,,,,,,,,,,,,,,,,,,,,1,,,,,,,,,,,,,,,,,,,,,,,,,,,,,,,,,,,,,,,,,,,,,,128,150490,22,Female,1,2024/03/27_08:53:30,SD,50.251550720340305,
,,,,,,calibration,0,22,2,788,,,,,,,,0.19444444444444445,0.0,0.2222222222222222,0.6666666666666666,0.23076923076923078,0.5470085470085471,0.6844683617993723,0,2,0,3,3,4,4,4,9,0,,,,1,,,,,,,,,,,,,,,,,,,,,,,,,,,,,,,,,,,,,,,,,,,,,,128,150490,22,Female,1,2024/03/27_08:53:30,SD,50.251550720340305,
,,,,,,Calibration,0,,2,788,,,,,,,,,,,,,,,,,,,,,,,,,7,,,1,,,,,,,,,,,,,,,,,,,,,,,,,,,,,,,,,,,,,,,,,,,,,,128,150490,22,Female,1,2024/03/27_08:53:30,SD,50.251550720340305,
,,,,,,calibration,0,31,2,917,1,S,0,right,0.6689804249981535,1,0,,,,,,,,,,,,,,,,,,,,,1,,,,,,,,,,,,,,,,,,,,,,,,,,,,,,,,,,,,,,,,,,,,,,128,150490,22,Female,1,2024/03/27_08:53:30,SD,50.251550720340305,
,,,,,,calibration,0,31,2,917,2,Q,0,right,0.414454404002754,1,0,,,,,,,,,,,,,,,,,,,,,1,,,,,,,,,,,,,,,,,,,,,,,,,,,,,,,,,,,,,,,,,,,,,,128,150490,22,Female,1,2024/03/27_08:53:30,SD,50.251550720340305,
,,,,,,calibration,0,31,2,917,3,F,0,right,0.6547199100023136,1,0,,,,,,,,,,,,,,,,,,,,,1,,,,,,,,,,,,,,,,,,,,,,,,,,,,,,,,,,,,,,,,,,,,,,128,150490,22,Female,1,2024/03/27_08:53:30,SD,50.251550720340305,
,,,,,,calibration,0,31,2,917,4,N,0,right,0.7152721980019123,1,0,,,,,,,,,,,,,,,,,,,,,1,,,,,,,,,,,,,,,,,,,,,,,,,,,,,,,,,,,,,,,,,,,,,,128,150490,22,Female,1,2024/03/27_08:53:30,SD,50.251550720340305,
,,,,,,calibration,0,31,2,917,5,F,1,left,0.46896700499928556,1,0,,,,,,,,,,,,,,,,,,,,,1,,,,,,,,,,,,,,,,,,,,,,,,,,,,,,,,,,,,,,,,,,,,,,128,150490,22,Female,1,2024/03/27_08:53:30,SD,50.251550720340305,
,,,,,,calibration,0,31,2,917,6,N,1,left,0.6153337209980236,1,0,,,,,,,,,,,,,,,,,,,,,1,,,,,,,,,,,,,,,,,,,,,,,,,,,,,,,,,,,,,,,,,,,,,,128,150490,22,Female,1,2024/03/27_08:53:30,SD,50.251550720340305,
,,,,,,calibration,0,31,2,917,7,X,0,right,0.5904922819972853,1,0,,,,,,,,,,,,,,,,,,,,,1,,,,,,,,,,,,,,,,,,,,,,,,,,,,,,,,,,,,,,,,,,,,,,128,150490,22,Female,1,2024/03/27_08:53:30,SD,50.251550720340305,
,,,,,,calibration,0,31,2,917,8,V,0,left,0.6558393669984071,0,0,,,,,,,,,,,,,,,,,,,,,1,,,,,,,,,,,,,,,,,,,,,,,,,,,,,,,,,,,,,,,,,,,,,,128,150490,22,Female,1,2024/03/27_08:53:30,SD,50.251550720340305,
,,,,,,calibration,0,31,2,917,9,X,1,left,1.3278215319951414,1,0,,,,,,,,,,,,,,,,,,,,,1,,,,,,,,,,,,,,,,,,,,,,,,,,,,,,,,,,,,,,,,,,,,,,128,150490,22,Female,1,2024/03/27_08:53:30,SD,50.251550720340305,
,,,,,,calibration,0,31,2,917,10,S,0,right,0.5148688760018558,1,0,,,,,,,,,,,,,,,,,,,,,1,,,,,,,,,,,,,,,,,,,,,,,,,,,,,,,,,,,,,,,,,,,,,,128,150490,22,Female,1,2024/03/27_08:53:30,SD,50.251550720340305,
,,,,,,calibration,0,31,2,917,11,C,0,left,1.4689672429958591,0,0,,,,,,,,,,,,,,,,,,,,,1,,,,,,,,,,,,,,,,,,,,,,,,,,,,,,,,,,,,,,,,,,,,,,128,150490,22,Female,1,2024/03/27_08:53:30,SD,50.251550720340305,
,,,,,,calibration,0,31,2,917,12,S,1,left,0.6950047279970022,1,0,,,,,,,,,,,,,,,,,,,,,1,,,,,,,,,,,,,,,,,,,,,,,,,,,,,,,,,,,,,,,,,,,,,,128,150490,22,Female,1,2024/03/27_08:53:30,SD,50.251550720340305,
,,,,,,calibration,0,31,2,917,,,,,,,,0.9375,1.0,0.25,0.75,0.0,0.75,0.7325601409156661,4,2,0,0,0,6,10,4,8,0,,,,1,,,,,,,,,,,,,,,,,,,,,,,,,,,,,,,,,,,,,,,,,,,,,,128,150490,22,Female,1,2024/03/27_08:53:30,SD,50.251550720340305,
,,,,,,Calibration,0,,2,917,,,,,,,,,,,,,,,,,,,,,,,,,8,,,1,,,,,,,,,,,,,,,,,,,,,,,,,,,,,,,,,,,,,,,,,,,,,,128,150490,22,Female,1,2024/03/27_08:53:30,SD,50.251550720340305,
,,,,,,calibration,0,10,2,788,1,N,0,right,0.5695188340032473,1,0,,,,,,,,,,,,,,,,,,,,,1,,,,,,,,,,,,,,,,,,,,,,,,,,,,,,,,,,,,,,,,,,,,,,128,150490,22,Female,1,2024/03/27_08:53:30,SD,50.251550720340305,
,,,,,,calibration,0,10,2,788,2,S,0,right,0.3602031100017484,1,0,,,,,,,,,,,,,,,,,,,,,1,,,,,,,,,,,,,,,,,,,,,,,,,,,,,,,,,,,,,,,,,,,,,,128,150490,22,Female,1,2024/03/27_08:53:30,SD,50.251550720340305,
,,,,,,calibration,0,10,2,788,3,N,1,left,1.0151265960012097,1,0,,,,,,,,,,,,,,,,,,,,,1,,,,,,,,,,,,,,,,,,,,,,,,,,,,,,,,,,,,,,,,,,,,,,128,150490,22,Female,1,2024/03/27_08:53:30,SD,50.251550720340305,
,,,,,,calibration,0,10,2,788,4,J,0,left,0.6345967249944806,0,0,,,,,,,,,,,,,,,,,,,,,1,,,,,,,,,,,,,,,,,,,,,,,,,,,,,,,,,,,,,,,,,,,,,,128,150490,22,Female,1,2024/03/27_08:53:30,SD,50.251550720340305,
,,,,,,calibration,0,10,2,788,5,N,1,right,1.214496535998478,0,0,,,,,,,,,,,,,,,,,,,,,1,,,,,,,,,,,,,,,,,,,,,,,,,,,,,,,,,,,,,,,,,,,,,,128,150490,22,Female,1,2024/03/27_08:53:30,SD,50.251550720340305,
,,,,,,calibration,0,10,2,788,6,S,0,right,0.8154883940005675,1,0,,,,,,,,,,,,,,,,,,,,,1,,,,,,,,,,,,,,,,,,,,,,,,,,,,,,,,,,,,,,,,,,,,,,128,150490,22,Female,1,2024/03/27_08:53:30,SD,50.251550720340305,
,,,,,,calibration,0,10,2,788,7,V,0,right,0.6349766979983542,1,0,,,,,,,,,,,,,,,,,,,,,1,,,,,,,,,,,,,,,,,,,,,,,,,,,,,,,,,,,,,,,,,,,,,,128,150490,22,Female,1,2024/03/27_08:53:30,SD,50.251550720340305,
,,,,,,calibration,0,10,2,788,8,S,1,left,0.3729767359982361,1,0,,,,,,,,,,,,,,,,,,,,,1,,,,,,,,,,,,,,,,,,,,,,,,,,,,,,,,,,,,,,,,,,,,,,128,150490,22,Female,1,2024/03/27_08:53:30,SD,50.251550720340305,
,,,,,,calibration,0,10,2,788,9,N,0,right,0.9755357459944207,1,0,,,,,,,,,,,,,,,,,,,,,1,,,,,,,,,,,,,,,,,,,,,,,,,,,,,,,,,,,,,,,,,,,,,,128,150490,22,Female,1,2024/03/27_08:53:30,SD,50.251550720340305,
,,,,,,calibration,0,10,2,788,10,C,0,left,0.5756669920010609,0,0,,,,,,,,,,,,,,,,,,,,,1,,,,,,,,,,,,,,,,,,,,,,,,,,,,,,,,,,,,,,,,,,,,,,128,150490,22,Female,1,2024/03/27_08:53:30,SD,50.251550720340305,
,,,,,,calibration,0,10,2,788,11,F,0,right,0.7361558549964684,1,0,,,,,,,,,,,,,,,,,,,,,1,,,,,,,,,,,,,,,,,,,,,,,,,,,,,,,,,,,,,,,,,,,,,,128,150490,22,Female,1,2024/03/27_08:53:30,SD,50.251550720340305,
,,,,,,calibration,0,10,2,788,12,C,1,left,0.3255790790062747,1,0,,,,,,,,,,,,,,,,,,,,,1,,,,,,,,,,,,,,,,,,,,,,,,,,,,,,,,,,,,,,,,,,,,,,128,150490,22,Female,1,2024/03/27_08:53:30,SD,50.251550720340305,
,,,,,,calibration,0,10,2,788,13,J,0,left,0.9356579439991037,0,0,,,,,,,,,,,,,,,,,,,,,1,,,,,,,,,,,,,,,,,,,,,,,,,,,,,,,,,,,,,,,,,,,,,,128,150490,22,Female,1,2024/03/27_08:53:30,SD,50.251550720340305,
,,,,,,calibration,0,10,2,788,,,,,,,,0.7708333333333333,0.75,0.3333333333333333,0.6666666666666666,0.0,0.6666666666666667,0.7050753265379731,3,3,0,0,0,6,9,4,9,0,,,,1,,,,,,,,,,,,,,,,,,,,,,,,,,,,,,,,,,,,,,,,,,,,,,128,150490,22,Female,1,2024/03/27_08:53:30,SD,50.251550720340305,
,,,,,,Calibration,0,,2,788,,,,,,,,,,,,,,,,,,,,,,,,,9,,,1,,,,,,,,,,,,,,,,,,,,,,,,,,,,,,,,,,,,,,,,,,,,,,128,150490,22,Female,1,2024/03/27_08:53:30,SD,50.251550720340305,
,,,,,,calibration,0,28,2,788,1,V,0,right,0.4083282549981959,1,0,,,,,,,,,,,,,,,,,,,,,1,,,,,,,,,,,,,,,,,,,,,,,,,,,,,,,,,,,,,,,,,,,,,,128,150490,22,Female,1,2024/03/27_08:53:30,SD,50.251550720340305,
,,,,,,calibration,0,28,2,788,2,V,0,right,0.5149944090007921,1,0,,,,,,,,,,,,,,,,,,,,,1,,,,,,,,,,,,,,,,,,,,,,,,,,,,,,,,,,,,,,,,,,,,,,128,150490,22,Female,1,2024/03/27_08:53:30,SD,50.251550720340305,
,,,,,,calibration,0,28,2,788,3,F,0,right,0.6351980719991843,1,0,,,,,,,,,,,,,,,,,,,,,1,,,,,,,,,,,,,,,,,,,,,,,,,,,,,,,,,,,,,,,,,,,,,,128,150490,22,Female,1,2024/03/27_08:53:30,SD,50.251550720340305,
,,,,,,calibration,0,28,2,788,4,X,0,right,0.5765251609991537,1,0,,,,,,,,,,,,,,,,,,,,,1,,,,,,,,,,,,,,,,,,,,,,,,,,,,,,,,,,,,,,,,,,,,,,128,150490,22,Female,1,2024/03/27_08:53:30,SD,50.251550720340305,
,,,,,,calibration,0,28,2,788,5,F,1,left,0.3521284650050802,1,0,,,,,,,,,,,,,,,,,,,,,1,,,,,,,,,,,,,,,,,,,,,,,,,,,,,,,,,,,,,,,,,,,,,,128,150490,22,Female,1,2024/03/27_08:53:30,SD,50.251550720340305,
,,,,,,calibration,0,28,2,788,6,V,0,left,1.154730442998698,0,0,,,,,,,,,,,,,,,,,,,,,1,,,,,,,,,,,,,,,,,,,,,,,,,,,,,,,,,,,,,,,,,,,,,,128,150490,22,Female,1,2024/03/27_08:53:30,SD,50.251550720340305,
,,,,,,calibration,0,28,2,788,7,F,1,left,0.8940362819994334,1,0,,,,,,,,,,,,,,,,,,,,,1,,,,,,,,,,,,,,,,,,,,,,,,,,,,,,,,,,,,,,,,,,,,,,128,150490,22,Female,1,2024/03/27_08:53:30,SD,50.251550720340305,
,,,,,,calibration,0,28,2,788,8,Q,0,right,1.094295470000361,1,0,,,,,,,,,,,,,,,,,,,,,1,,,,,,,,,,,,,,,,,,,,,,,,,,,,,,,,,,,,,,,,,,,,,,128,150490,22,Female,1,2024/03/27_08:53:30,SD,50.251550720340305,
,,,,,,calibration,0,28,2,788,9,S,0,right,0.6948315330009791,1,0,,,,,,,,,,,,,,,,,,,,,1,,,,,,,,,,,,,,,,,,,,,,,,,,,,,,,,,,,,,,,,,,,,,,128,150490,22,Female,1,2024/03/27_08:53:30,SD,50.251550720340305,
,,,,,,calibration,0,28,2,788,10,Q,1,left,0.594688330005738,1,0,,,,,,,,,,,,,,,,,,,,,1,,,,,,,,,,,,,,,,,,,,,,,,,,,,,,,,,,,,,,,,,,,,,,128,150490,22,Female,1,2024/03/27_08:53:30,SD,50.251550720340305,
,,,,,,calibration,0,28,2,788,11,F,0,right,0.9493671890013502,1,0,,,,,,,,,,,,,,,,,,,,,1,,,,,,,,,,,,,,,,,,,,,,,,,,,,,,,,,,,,,,,,,,,,,,128,150490,22,Female,1,2024/03/27_08:53:30,SD,50.251550720340305,
,,,,,,calibration,0,28,2,788,12,Q,1,left,1.0966973480026354,1,0,,,,,,,,,,,,,,,,,,,,,1,,,,,,,,,,,,,,,,,,,,,,,,,,,,,,,,,,,,,,,,,,,,,,128,150490,22,Female,1,2024/03/27_08:53:30,SD,50.251550720340305,
,,,,,,calibration,0,28,2,788,13,J,0,left,1.614728095002647,0,0,,,,,,,,,,,,,,,,,,,,,1,,,,,,,,,,,,,,,,,,,,,,,,,,,,,,,,,,,,,,,,,,,,,,128,150490,22,Female,1,2024/03/27_08:53:30,SD,50.251550720340305,
,,,,,,calibration,0,28,2,788,,,,,,,,0.9444444444444444,1.0,0.2222222222222222,0.7777777777777778,0.0,0.7777777777777778,0.8138883886164806,4,2,0,0,0,7,11,4,9,0,,,,1,,,,,,,,,,,,,,,,,,,,,,,,,,,,,,,,,,,,,,,,,,,,,,128,150490,22,Female,1,2024/03/27_08:53:30,SD,50.251550720340305,
,,,,,,Calibration,0,,2,788,,,,,,,,,,,,,,,,,,,,,,,,,10,,,1,,,,,,,,,,,,,,,,,,,,,,,,,,,,,,,,,,,,,,,,,,,,,,128,150490,22,Female,1,2024/03/27_08:53:30,SD,50.251550720340305,
,,,,,,calibration,0,33,2,679,1,S,0,right,0.8548205370025244,1,0,,,,,,,,,,,,,,,,,,,,,1,,,,,,,,,,,,,,,,,,,,,,,,,,,,,,,,,,,,,,,,,,,,,,128,150490,22,Female,1,2024/03/27_08:53:30,SD,50.251550720340305,
,,,,,,calibration,0,33,2,679,2,S,0,right,0.4040241219991003,1,0,,,,,,,,,,,,,,,,,,,,,1,,,,,,,,,,,,,,,,,,,,,,,,,,,,,,,,,,,,,,,,,,,,,,128,150490,22,Female,1,2024/03/27_08:53:30,SD,50.251550720340305,
,,,,,,calibration,0,33,2,679,3,S,1,left,0.43345255099848146,1,0,,,,,,,,,,,,,,,,,,,,,1,,,,,,,,,,,,,,,,,,,,,,,,,,,,,,,,,,,,,,,,,,,,,,128,150490,22,Female,1,2024/03/27_08:53:30,SD,50.251550720340305,
,,,,,,calibration,0,33,2,679,4,J,0,right,1.4560079279981437,1,0,,,,,,,,,,,,,,,,,,,,,1,,,,,,,,,,,,,,,,,,,,,,,,,,,,,,,,,,,,,,,,,,,,,,128,150490,22,Female,1,2024/03/27_08:53:30,SD,50.251550720340305,
,,,,,,calibration,0,33,2,679,5,X,0,right,0.9301891210052418,1,0,,,,,,,,,,,,,,,,,,,,,1,,,,,,,,,,,,,,,,,,,,,,,,,,,,,,,,,,,,,,,,,,,,,,128,150490,22,Female,1,2024/03/27_08:53:30,SD,50.251550720340305,
,,,,,,calibration,0,33,2,679,6,N,0,right,0.754690224006481,1,0,,,,,,,,,,,,,,,,,,,,,1,,,,,,,,,,,,,,,,,,,,,,,,,,,,,,,,,,,,,,,,,,,,,,128,150490,22,Female,1,2024/03/27_08:53:30,SD,50.251550720340305,
,,,,,,calibration,0,33,2,679,7,S,0,left,0.4349691920069745,0,0,,,,,,,,,,,,,,,,,,,,,1,,,,,,,,,,,,,,,,,,,,,,,,,,,,,,,,,,,,,,,,,,,,,,128,150490,22,Female,1,2024/03/27_08:53:30,SD,50.251550720340305,
,,,,,,calibration,0,33,2,679,8,N,1,left,0.7350121760027832,1,0,,,,,,,,,,,,,,,,,,,,,1,,,,,,,,,,,,,,,,,,,,,,,,,,,,,,,,,,,,,,,,,,,,,,128,150490,22,Female,1,2024/03/27_08:53:30,SD,50.251550720340305,
,,,,,,calibration,0,33,2,679,9,X,0,right,0.9954205989997718,1,0,,,,,,,,,,,,,,,,,,,,,1,,,,,,,,,,,,,,,,,,,,,,,,,,,,,,,,,,,,,,,,,,,,,,128,150490,22,Female,1,2024/03/27_08:53:30,SD,50.251550720340305,
,,,,,,calibration,0,33,2,679,10,F,0,left,0.8551046889988356,0,0,,,,,,,,,,,,,,,,,,,,,1,,,,,,,,,,,,,,,,,,,,,,,,,,,,,,,,,,,,,,,,,,,,,,128,150490,22,Female,1,2024/03/27_08:53:30,SD,50.251550720340305,
,,,,,,calibration,0,33,2,679,11,X,1,left,nan,0,1,,,,,,,,,,,,,,,,,,,,,1,,,,,,,,,,,,,,,,,,,,,,,,,,,,,,,,,,,,,,,,,,,,,,128,150490,22,Female,1,2024/03/27_08:53:30,SD,50.251550720340305,
,,,,,,calibration,0,33,2,679,12,Q,0,left,nan,0,1,,,,,,,,,,,,,,,,,,,,,1,,,,,,,,,,,,,,,,,,,,,,,,,,,,,,,,,,,,,,,,,,,,,,128,150490,22,Female,1,2024/03/27_08:53:30,SD,50.251550720340305,
,,,,,,calibration,0,33,2,679,13,X,1,left,0.9147377000044798,1,0,,,,,,,,,,,,,,,,,,,,,1,,,,,,,,,,,,,,,,,,,,,,,,,,,,,,,,,,,,,,,,,,,,,,128,150490,22,Female,1,2024/03/27_08:53:30,SD,50.251550720340305,
,,,,,,calibration,0,33,2,679,14,C,0,left,0.7754209920021822,0,0,,,,,,,,,,,,,,,,,,,,,1,,,,,,,,,,,,,,,,,,,,,,,,,,,,,,,,,,,,,,,,,,,,,,128,150490,22,Female,1,2024/03/27_08:53:30,SD,50.251550720340305,
,,,,,,calibration,0,33,2,679,,,,,,,,0.7875000000000001,0.75,0.3,0.6666666666666666,0.14285714285714285,0.5571428571428572,0.7953208192520833,3,3,1,1,2,6,9,4,10,0,,,,1,,,,,,,,,,,,,,,,,,,,,,,,,,,,,,,,,,,,,,,,,,,,,,128,150490,22,Female,1,2024/03/27_08:53:30,SD,50.251550720340305,
,,,,,,Calibration,0,,2,679,,,,,,,,,,,,,,,,,,,,,,,,,11,,,1,,,,,,,,,,,,,,,,,,,,,,,,,,,,,,,,,,,,,,,,,,,,,,128,150490,22,Female,1,2024/03/27_08:53:30,SD,50.251550720340305,
,,,,,,calibration,0,20,2,679,1,F,0,right,1.055572180004674,1,0,,,,,,,,,,,,,,,,,,,,,1,,,,,,,,,,,,,,,,,,,,,,,,,,,,,,,,,,,,,,,,,,,,,,128,150490,22,Female,1,2024/03/27_08:53:30,SD,50.251550720340305,
,,,,,,calibration,0,20,2,679,2,C,0,right,0.2991155609997804,1,0,,,,,,,,,,,,,,,,,,,,,1,,,,,,,,,,,,,,,,,,,,,,,,,,,,,,,,,,,,,,,,,,,,,,128,150490,22,Female,1,2024/03/27_08:53:30,SD,50.251550720340305,
,,,,,,calibration,0,20,2,679,3,N,0,right,0.7698451289979857,1,0,,,,,,,,,,,,,,,,,,,,,1,,,,,,,,,,,,,,,,,,,,,,,,,,,,,,,,,,,,,,,,,,,,,,128,150490,22,Female,1,2024/03/27_08:53:30,SD,50.251550720340305,
,,,,,,calibration,0,20,2,679,4,C,1,left,0.3499526079976931,1,0,,,,,,,,,,,,,,,,,,,,,1,,,,,,,,,,,,,,,,,,,,,,,,,,,,,,,,,,,,,,,,,,,,,,128,150490,22,Female,1,2024/03/27_08:53:30,SD,50.251550720340305,
,,,,,,calibration,0,20,2,679,5,S,0,right,1.2357730629955768,1,0,,,,,,,,,,,,,,,,,,,,,1,,,,,,,,,,,,,,,,,,,,,,,,,,,,,,,,,,,,,,,,,,,,,,128,150490,22,Female,1,2024/03/27_08:53:30,SD,50.251550720340305,
,,,,,,calibration,0,20,2,679,6,C,1,right,nan,0,1,,,,,,,,,,,,,,,,,,,,,1,,,,,,,,,,,,,,,,,,,,,,,,,,,,,,,,,,,,,,,,,,,,,,128,150490,22,Female,1,2024/03/27_08:53:30,SD,50.251550720340305,
,,,,,,calibration,0,20,2,679,7,N,0,left,0.2880615689937258,0,0,,,,,,,,,,,,,,,,,,,,,1,,,,,,,,,,,,,,,,,,,,,,,,,,,,,,,,,,,,,,,,,,,,,,128,150490,22,Female,1,2024/03/27_08:53:30,SD,50.251550720340305,
,,,,,,calibration,0,20,2,679,8,C,1,left,0.6543093799991766,1,0,,,,,,,,,,,,,,,,,,,,,1,,,,,,,,,,,,,,,,,,,,,,,,,,,,,,,,,,,,,,,,,,,,,,128,150490,22,Female,1,2024/03/27_08:53:30,SD,50.251550720340305,
,,,,,,calibration,0,20,2,679,9,Q,0,right,0.5560202530032257,1,0,,,,,,,,,,,,,,,,,,,,,1,,,,,,,,,,,,,,,,,,,,,,,,,,,,,,,,,,,,,,,,,,,,,,128,150490,22,Female,1,2024/03/27_08:53:30,SD,50.251550720340305,
,,,,,,calibration,0,20,2,679,10,F,0,left,0.5746193769955426,0,0,,,,,,,,,,,,,,,,,,,,,1,,,,,,,,,,,,,,,,,,,,,,,,,,,,,,,,,,,,,,,,,,,,,,128,150490,22,Female,1,2024/03/27_08:53:30,SD,50.251550720340305,
,,,,,,calibration,0,20,2,679,11,Q,1,right,0.5948660130015924,0,0,,,,,,,,,,,,,,,,,,,,,1,,,,,,,,,,,,,,,,,,,,,,,,,,,,,,,,,,,,,,,,,,,,,,128,150490,22,Female,1,2024/03/27_08:53:30,SD,50.251550720340305,
,,,,,,calibration,0,20,2,679,12,C,0,right,0.3596189419986331,1,0,,,,,,,,,,,,,,,,,,,,,1,,,,,,,,,,,,,,,,,,,,,,,,,,,,,,,,,,,,,,,,,,,,,,128,150490,22,Female,1,2024/03/27_08:53:30,SD,50.251550720340305,
,,,,,,calibration,0,20,2,679,13,V,0,right,0.892935028001375,1,0,,,,,,,,,,,,,,,,,,,,,1,,,,,,,,,,,,,,,,,,,,,,,,,,,,,,,,,,,,,,,,,,,,,,128,150490,22,Female,1,2024/03/27_08:53:30,SD,50.251550720340305,
,,,,,,calibration,0,20,2,679,14,J,0,right,0.9150297649975982,1,0,,,,,,,,,,,,,,,,,,,,,1,,,,,,,,,,,,,,,,,,,,,,,,,,,,,,,,,,,,,,,,,,,,,,128,150490,22,Female,1,2024/03/27_08:53:30,SD,50.251550720340305,
,,,,,,calibration,0,20,2,679,,,,,,,,0.725,0.5,0.2,0.8,0.07142857142857142,0.7285714285714286,0.6573629898451215,2,2,1,0,1,8,10,4,10,0,,,,1,,,,,,,,,,,,,,,,,,,,,,,,,,,,,,,,,,,,,,,,,,,,,,128,150490,22,Female,1,2024/03/27_08:53:30,SD,50.251550720340305,
,,,,,,Calibration,0,,2,679,,,,,,,,,,,,,,,,,,,,,,,,,12,,,1,,,,,,,,,,,,,,,,,,,,,,,,,,,,,,,,,,,,,,,,,,,,,,128,150490,22,Female,1,2024/03/27_08:53:30,SD,50.251550720340305,
,,,,,,calibration,0,17,2,788,1,C,0,right,0.5152319819972035,1,0,,,,,,,,,,,,,,,,,,,,,1,,,,,,,,,,,,,,,,,,,,,,,,,,,,,,,,,,,,,,,,,,,,,,128,150490,22,Female,1,2024/03/27_08:53:30,SD,50.251550720340305,
,,,,,,calibration,0,17,2,788,2,N,0,right,0.5555460000032326,1,0,,,,,,,,,,,,,,,,,,,,,1,,,,,,,,,,,,,,,,,,,,,,,,,,,,,,,,,,,,,,,,,,,,,,128,150490,22,Female,1,2024/03/27_08:53:30,SD,50.251550720340305,
,,,,,,calibration,0,17,2,788,3,C,1,right,0.3638105650024954,0,0,,,,,,,,,,,,,,,,,,,,,1,,,,,,,,,,,,,,,,,,,,,,,,,,,,,,,,,,,,,,,,,,,,,,128,150490,22,Female,1,2024/03/27_08:53:30,SD,50.251550720340305,
,,,,,,calibration,0,17,2,788,4,N,1,right,nan,0,1,,,,,,,,,,,,,,,,,,,,,1,,,,,,,,,,,,,,,,,,,,,,,,,,,,,,,,,,,,,,,,,,,,,,128,150490,22,Female,1,2024/03/27_08:53:30,SD,50.251550720340305,
,,,,,,calibration,0,17,2,788,5,V,0,right,0.3663179049981409,1,0,,,,,,,,,,,,,,,,,,,,,1,,,,,,,,,,,,,,,,,,,,,,,,,,,,,,,,,,,,,,,,,,,,,,128,150490,22,Female,1,2024/03/27_08:53:30,SD,50.251550720340305,
,,,,,,calibration,0,17,2,788,6,Q,0,right,0.6157788609998534,1,0,,,,,,,,,,,,,,,,,,,,,1,,,,,,,,,,,,,,,,,,,,,,,,,,,,,,,,,,,,,,,,,,,,,,128,150490,22,Female,1,2024/03/27_08:53:30,SD,50.251550720340305,
,,,,,,calibration,0,17,2,788,7,C,0,right,0.6749923770039459,1,0,,,,,,,,,,,,,,,,,,,,,1,,,,,,,,,,,,,,,,,,,,,,,,,,,,,,,,,,,,,,,,,,,,,,128,150490,22,Female,1,2024/03/27_08:53:30,SD,50.251550720340305,
,,,,,,calibration,0,17,2,788,8,V,0,left,0.4911558809981216,0,0,,,,,,,,,,,,,,,,,,,,,1,,,,,,,,,,,,,,,,,,,,,,,,,,,,,,,,,,,,,,,,,,,,,,128,150490,22,Female,1,2024/03/27_08:53:30,SD,50.251550720340305,
,,,,,,calibration,0,17,2,788,9,N,0,right,0.5951222680014325,1,0,,,,,,,,,,,,,,,,,,,,,1,,,,,,,,,,,,,,,,,,,,,,,,,,,,,,,,,,,,,,,,,,,,,,128,150490,22,Female,1,2024/03/27_08:53:30,SD,50.251550720340305,
,,,,,,calibration,0,17,2,788,10,V,1,left,0.3541952140003559,1,0,,,,,,,,,,,,,,,,,,,,,1,,,,,,,,,,,,,,,,,,,,,,,,,,,,,,,,,,,,,,,,,,,,,,128,150490,22,Female,1,2024/03/27_08:53:30,SD,50.251550720340305,
,,,,,,calibration,0,17,2,788,11,F,0,left,nan,0,1,,,,,,,,,,,,,,,,,,,,,1,,,,,,,,,,,,,,,,,,,,,,,,,,,,,,,,,,,,,,,,,,,,,,128,150490,22,Female,1,2024/03/27_08:53:30,SD,50.251550720340305,
,,,,,,calibration,0,17,2,788,12,S,0,right,0.9900787250007852,1,0,,,,,,,,,,,,,,,,,,,,,1,,,,,,,,,,,,,,,,,,,,,,,,,,,,,,,,,,,,,,,,,,,,,,128,150490,22,Female,1,2024/03/27_08:53:30,SD,50.251550720340305,
,,,,,,calibration,0,17,2,788,13,F,1,right,0.5572882050037151,0,0,,,,,,,,,,,,,,,,,,,,,1,,,,,,,,,,,,,,,,,,,,,,,,,,,,,,,,,,,,,,,,,,,,,,128,150490,22,Female,1,2024/03/27_08:53:30,SD,50.251550720340305,
,,,,,,calibration,0,17,2,788,,,,,,,,0.6736111111111112,0.25,0.1111111111111111,0.875,0.15384615384615385,0.735042735042735,0.5526834530008439,1,1,1,1,2,7,8,4,9,0,,,,1,,,,,,,,,,,,,,,,,,,,,,,,,,,,,,,,,,,,,,,,,,,,,,128,150490,22,Female,1,2024/03/27_08:53:30,SD,50.251550720340305,
,,,,,,Calibration,0,,2,788,,,,,,,,,,,,,,,,,,,,,,,,,13,,,1,,,,,,,,,,,,,,,,,,,,,,,,,,,,,,,,,,,,,,,,,,,,,,128,150490,22,Female,1,2024/03/27_08:53:30,SD,50.251550720340305,
,,,,,,calibration,0,29,2,917,1,S,0,right,0.6752619819963002,1,0,,,,,,,,,,,,,,,,,,,,,1,,,,,,,,,,,,,,,,,,,,,,,,,,,,,,,,,,,,,,,,,,,,,,128,150490,22,Female,1,2024/03/27_08:53:30,SD,50.251550720340305,
,,,,,,calibration,0,29,2,917,2,C,0,right,0.4674367409970728,1,0,,,,,,,,,,,,,,,,,,,,,1,,,,,,,,,,,,,,,,,,,,,,,,,,,,,,,,,,,,,,,,,,,,,,128,150490,22,Female,1,2024/03/27_08:53:30,SD,50.251550720340305,
,,,,,,calibration,0,29,2,917,3,J,0,right,0.6542009620025055,1,0,,,,,,,,,,,,,,,,,,,,,1,,,,,,,,,,,,,,,,,,,,,,,,,,,,,,,,,,,,,,,,,,,,,,128,150490,22,Female,1,2024/03/27_08:53:30,SD,50.251550720340305,
,,,,,,calibration,0,29,2,917,4,C,1,left,0.3630460580025101,1,0,,,,,,,,,,,,,,,,,,,,,1,,,,,,,,,,,,,,,,,,,,,,,,,,,,,,,,,,,,,,,,,,,,,,128,150490,22,Female,1,2024/03/27_08:53:30,SD,50.251550720340305,
,,,,,,calibration,0,29,2,917,5,J,1,right,0.5765786499978276,0,0,,,,,,,,,,,,,,,,,,,,,1,,,,,,,,,,,,,,,,,,,,,,,,,,,,,,,,,,,,,,,,,,,,,,128,150490,22,Female,1,2024/03/27_08:53:30,SD,50.251550720340305,
,,,,,,calibration,0,29,2,917,6,V,0,right,0.7938782310011447,1,0,,,,,,,,,,,,,,,,,,,,,1,,,,,,,,,,,,,,,,,,,,,,,,,,,,,,,,,,,,,,,,,,,,,,128,150490,22,Female,1,2024/03/27_08:53:30,SD,50.251550720340305,
,,,,,,calibration,0,29,2,917,7,N,0,right,0.9337855409976328,1,0,,,,,,,,,,,,,,,,,,,,,1,,,,,,,,,,,,,,,,,,,,,,,,,,,,,,,,,,,,,,,,,,,,,,128,150490,22,Female,1,2024/03/27_08:53:30,SD,50.251550720340305,
,,,,,,calibration,0,29,2,917,8,J,0,left,0.6972734910013969,0,0,,,,,,,,,,,,,,,,,,,,,1,,,,,,,,,,,,,,,,,,,,,,,,,,,,,,,,,,,,,,,,,,,,,,128,150490,22,Female,1,2024/03/27_08:53:30,SD,50.251550720340305,
,,,,,,calibration,0,29,2,917,9,N,1,left,0.7948330450017238,1,0,,,,,,,,,,,,,,,,,,,,,1,,,,,,,,,,,,,,,,,,,,,,,,,,,,,,,,,,,,,,,,,,,,,,128,150490,22,Female,1,2024/03/27_08:53:30,SD,50.251550720340305,
,,,,,,calibration,0,29,2,917,10,S,0,right,0.46917254800064256,1,0,,,,,,,,,,,,,,,,,,,,,1,,,,,,,,,,,,,,,,,,,,,,,,,,,,,,,,,,,,,,,,,,,,,,128,150490,22,Female,1,2024/03/27_08:53:30,SD,50.251550720340305,
,,,,,,calibration,0,29,2,917,11,J,0,right,1.1529775979943224,1,0,,,,,,,,,,,,,,,,,,,,,1,,,,,,,,,,,,,,,,,,,,,,,,,,,,,,,,,,,,,,,,,,,,,,128,150490,22,Female,1,2024/03/27_08:53:30,SD,50.251550720340305,
,,,,,,calibration,0,29,2,917,12,C,0,left,0.7352559760038275,0,0,,,,,,,,,,,,,,,,,,,,,1,,,,,,,,,,,,,,,,,,,,,,,,,,,,,,,,,,,,,,,,,,,,,,128,150490,22,Female,1,2024/03/27_08:53:30,SD,50.251550720340305,
,,,,,,calibration,0,29,2,917,,,,,,,,0.7870370370370371,0.6666666666666666,0.2222222222222222,0.7777777777777778,0.0,0.7777777777777778,0.6928084019164089,2,2,0,0,0,7,9,3,9,0,,,,1,,,,,,,,,,,,,,,,,,,,,,,,,,,,,,,,,,,,,,,,,,,,,,128,150490,22,Female,1,2024/03/27_08:53:30,SD,50.251550720340305,
,,,,,,Calibration,0,,2,917,,,,,,,,,,,,,,,,,,,,,,,,,14,,,1,,,,,,,,,,,,,,,,,,,,,,,,,,,,,,,,,,,,,,,,,,,,,,128,150490,22,Female,1,2024/03/27_08:53:30,SD,50.251550720340305,
,,,,,,calibration,0,18,2,917,1,C,0,right,0.5150685290063848,1,0,,,,,,,,,,,,,,,,,,,,,1,,,,,,,,,,,,,,,,,,,,,,,,,,,,,,,,,,,,,,,,,,,,,,128,150490,22,Female,1,2024/03/27_08:53:30,SD,50.251550720340305,
,,,,,,calibration,0,18,2,917,2,X,0,right,0.2485190639999928,1,0,,,,,,,,,,,,,,,,,,,,,1,,,,,,,,,,,,,,,,,,,,,,,,,,,,,,,,,,,,,,,,,,,,,,128,150490,22,Female,1,2024/03/27_08:53:30,SD,50.251550720340305,
,,,,,,calibration,0,18,2,917,3,C,1,left,0.4905268069996964,1,0,,,,,,,,,,,,,,,,,,,,,1,,,,,,,,,,,,,,,,,,,,,,,,,,,,,,,,,,,,,,,,,,,,,,128,150490,22,Female,1,2024/03/27_08:53:30,SD,50.251550720340305,
,,,,,,calibration,0,18,2,917,4,X,1,right,0.5752911960007623,0,0,,,,,,,,,,,,,,,,,,,,,1,,,,,,,,,,,,,,,,,,,,,,,,,,,,,,,,,,,,,,,,,,,,,,128,150490,22,Female,1,2024/03/27_08:53:30,SD,50.251550720340305,
,,,,,,calibration,0,18,2,917,5,S,0,left,0.6543803250024212,0,0,,,,,,,,,,,,,,,,,,,,,1,,,,,,,,,,,,,,,,,,,,,,,,,,,,,,,,,,,,,,,,,,,,,,128,150490,22,Female,1,2024/03/27_08:53:30,SD,50.251550720340305,
,,,,,,calibration,0,18,2,917,6,N,0,left,0.5750351599999703,0,0,,,,,,,,,,,,,,,,,,,,,1,,,,,,,,,,,,,,,,,,,,,,,,,,,,,,,,,,,,,,,,,,,,,,128,150490,22,Female,1,2024/03/27_08:53:30,SD,50.251550720340305,
,,,,,,calibration,0,18,2,917,7,S,1,left,1.055110852998041,1,0,,,,,,,,,,,,,,,,,,,,,1,,,,,,,,,,,,,,,,,,,,,,,,,,,,,,,,,,,,,,,,,,,,,,128,150490,22,Female,1,2024/03/27_08:53:30,SD,50.251550720340305,
,,,,,,calibration,0,18,2,917,8,X,0,right,0.595406288994127,1,0,,,,,,,,,,,,,,,,,,,,,1,,,,,,,,,,,,,,,,,,,,,,,,,,,,,,,,,,,,,,,,,,,,,,128,150490,22,Female,1,2024/03/27_08:53:30,SD,50.251550720340305,
,,,,,,calibration,0,18,2,917,9,Q,0,right,0.6948822210033541,1,0,,,,,,,,,,,,,,,,,,,,,1,,,,,,,,,,,,,,,,,,,,,,,,,,,,,,,,,,,,,,,,,,,,,,128,150490,22,Female,1,2024/03/27_08:53:30,SD,50.251550720340305,
,,,,,,calibration,0,18,2,917,10,F,0,right,0.8946967140000197,1,0,,,,,,,,,,,,,,,,,,,,,1,,,,,,,,,,,,,,,,,,,,,,,,,,,,,,,,,,,,,,,,,,,,,,128,150490,22,Female,1,2024/03/27_08:53:30,SD,50.251550720340305,
,,,,,,calibration,0,18,2,917,11,C,0,right,0.71555000400258,1,0,,,,,,,,,,,,,,,,,,,,,1,,,,,,,,,,,,,,,,,,,,,,,,,,,,,,,,,,,,,,,,,,,,,,128,150490,22,Female,1,2024/03/27_08:53:30,SD,50.251550720340305,
,,,,,,calibration,0,18,2,917,12,Q,0,left,0.5550581959978445,0,0,,,,,,,,,,,,,,,,,,,,,1,,,,,,,,,,,,,,,,,,,,,,,,,,,,,,,,,,,,,,,,,,,,,,128,150490,22,Female,1,2024/03/27_08:53:30,SD,50.251550720340305,
,,,,,,calibration,0,18,2,917,,,,,,,,0.7222222222222222,0.6666666666666666,0.3333333333333333,0.6666666666666666,0.0,0.6666666666666667,0.6307937798337662,2,3,0,0,0,6,8,3,9,0,,,,1,,,,,,,,,,,,,,,,,,,,,,,,,,,,,,,,,,,,,,,,,,,,,,128,150490,22,Female,1,2024/03/27_08:53:30,SD,50.251550720340305,
,,,,,,Calibration,0,,2,917,,,,,,,,,,,,,,,,,,,,,,,,,15,,,1,,,,,,,,,,,,,,,,,,,,,,,,,,,,,,,,,,,,,,,,,,,,,,128,150490,22,Female,1,2024/03/27_08:53:30,SD,50.251550720340305,
,,,,,,calibration,0,33,2,1068,1,N,0,right,0.4662442499975441,1,0,,,,,,,,,,,,,,,,,,,,,1,,,,,,,,,,,,,,,,,,,,,,,,,,,,,,,,,,,,,,,,,,,,,,128,150490,22,Female,1,2024/03/27_08:53:30,SD,50.251550720340305,
,,,,,,calibration,0,33,2,1068,2,Q,0,right,0.24992108099831967,1,0,,,,,,,,,,,,,,,,,,,,,1,,,,,,,,,,,,,,,,,,,,,,,,,,,,,,,,,,,,,,,,,,,,,,128,150490,22,Female,1,2024/03/27_08:53:30,SD,50.251550720340305,
,,,,,,calibration,0,33,2,1068,3,N,1,right,0.41774390199861955,0,0,,,,,,,,,,,,,,,,,,,,,1,,,,,,,,,,,,,,,,,,,,,,,,,,,,,,,,,,,,,,,,,,,,,,128,150490,22,Female,1,2024/03/27_08:53:30,SD,50.251550720340305,
,,,,,,calibration,0,33,2,1068,4,F,0,right,1.4135091839998495,1,0,,,,,,,,,,,,,,,,,,,,,1,,,,,,,,,,,,,,,,,,,,,,,,,,,,,,,,,,,,,,,,,,,,,,128,150490,22,Female,1,2024/03/27_08:53:30,SD,50.251550720340305,
,,,,,,calibration,0,33,2,1068,5,N,1,left,0.3401295240037143,1,0,,,,,,,,,,,,,,,,,,,,,1,,,,,,,,,,,,,,,,,,,,,,,,,,,,,,,,,,,,,,,,,,,,,,128,150490,22,Female,1,2024/03/27_08:53:30,SD,50.251550720340305,
,,,,,,calibration,0,33,2,1068,6,F,1,left,0.595087171997875,1,0,,,,,,,,,,,,,,,,,,,,,1,,,,,,,,,,,,,,,,,,,,,,,,,,,,,,,,,,,,,,,,,,,,,,128,150490,22,Female,1,2024/03/27_08:53:30,SD,50.251550720340305,
,,,,,,calibration,0,33,2,1068,7,V,0,right,0.5954439679990173,1,0,,,,,,,,,,,,,,,,,,,,,1,,,,,,,,,,,,,,,,,,,,,,,,,,,,,,,,,,,,,,,,,,,,,,128,150490,22,Female,1,2024/03/27_08:53:30,SD,50.251550720340305,
,,,,,,calibration,0,33,2,1068,8,S,0,right,0.9345549889985705,1,0,,,,,,,,,,,,,,,,,,,,,1,,,,,,,,,,,,,,,,,,,,,,,,,,,,,,,,,,,,,,,,,,,,,,128,150490,22,Female,1,2024/03/27_08:53:30,SD,50.251550720340305,
,,,,,,calibration,0,33,2,1068,9,C,0,right,1.014981151005486,1,0,,,,,,,,,,,,,,,,,,,,,1,,,,,,,,,,,,,,,,,,,,,,,,,,,,,,,,,,,,,,,,,,,,,,128,150490,22,Female,1,2024/03/27_08:53:30,SD,50.251550720340305,
,,,,,,calibration,0,33,2,1068,10,N,0,left,0.7554117459949339,0,0,,,,,,,,,,,,,,,,,,,,,1,,,,,,,,,,,,,,,,,,,,,,,,,,,,,,,,,,,,,,,,,,,,,,128,150490,22,Female,1,2024/03/27_08:53:30,SD,50.251550720340305,
,,,,,,calibration,0,33,2,1068,11,V,0,left,1.1360353089985438,0,0,,,,,,,,,,,,,,,,,,,,,1,,,,,,,,,,,,,,,,,,,,,,,,,,,,,,,,,,,,,,,,,,,,,,128,150490,22,Female,1,2024/03/27_08:53:30,SD,50.251550720340305,
,,,,,,calibration,0,33,2,1068,,,,,,,,0.7708333333333333,0.6666666666666666,0.25,0.75,0.0,0.75,0.7199147523629521,2,2,0,0,0,6,8,3,8,0,,,,1,,,,,,,,,,,,,,,,,,,,,,,,,,,,,,,,,,,,,,,,,,,,,,128,150490,22,Female,1,2024/03/27_08:53:30,SD,50.251550720340305,
,,,,,,Calibration,0,,2,1068,,,,,,,,,,,,,,,,,,,,,,,,,16,,,1,,,,,,,,,,,,,,,,,,,,,,,,,,,,,,,,,,,,,,,,,,,,,,128,150490,22,Female,1,2024/03/27_08:53:30,SD,50.251550720340305,
,,,,,,CALIBRATION,0,,,,,,,,,,,,,,,,,,,,,,,,,,,,16,0.7708333333333333,1068,1,,,,,,,,,,,,,,,,,,,,,,,,,,,,,,,,,,,,,,,,,,,,,,128,150490,22,Female,1,2024/03/27_08:53:30,SD,50.251550720340305,
1,./instructions/inst_prac_1/Slide24.png,right,51.816758813998604,512.5828434419964,564.399602255995,,,,,,,,,,,,,,,,,,,,,,,,,,,,,,,,,1,,,,,,,,,,,,,,,,,,,,,,,,,,,,,,,,,,,,,,,,,,,,,,128,150490,22,Female,1,2024/03/27_08:53:30,SD,50.251550720340305,
0,./instructions/inst_prac_1/Slide25.png,left,11.463365691000945,564.439875555996,575.9032412469969,,,,,,,,,,,,,,,,,,,,,,,,,,,,,,,,,1,,,,,,,,,,,,,,,,,,,,,,,,,,,,,,,,,,,,,,,,,,,,,,128,150490,22,Female,1,2024/03/27_08:53:30,SD,50.251550720340305,
1,./instructions/inst_prac_1/Slide24.png,right,2.39172772999882,575.9357685129944,578.3274962429932,,,,,,,,,,,,,,,,,,,,,,,,,,,,,,,,,1,,,,,,,,,,,,,,,,,,,,,,,,,,,,,,,,,,,,,,,,,,,,,,128,150490,22,Female,1,2024/03/27_08:53:30,SD,50.251550720340305,
2,./instructions/inst_prac_1/Slide25.png,right,4.687952465996204,578.359399039,583.0473515049962,,,,,,,,,,,,,,,,,,,,,,,,,,,,,,,,,1,,,,,,,,,,,,,,,,,,,,,,,,,,,,,,,,,,,,,,,,,,,,,,128,150490,22,Female,1,2024/03/27_08:53:30,SD,50.251550720340305,
3,./instructions/inst_prac_1/Slide26.png,right,3.3506965979977394,583.0806263869963,586.431322984994,,,,,,,,,,,,,,,,,,,,,,,,,,,,,,,,,1,,,,,,,,,,,,,,,,,,,,,,,,,,,,,,,,,,,,,,,,,,,,,,128,150490,22,Female,1,2024/03/27_08:53:30,SD,50.251550720340305,
4,./instructions/inst_prac_1/Slide27.png,right,0.7914418099971954,586.463995539998,587.2554373499952,,,,,,,,,,,,,,,,,,,,,,,,,,,,,,,,,1,,,,,,,,,,,,,,,,,,,,,,,,,,,,,,,,,,,,,,,,,,,,,,128,150490,22,Female,1,2024/03/27_08:53:30,SD,50.251550720340305,
5,./instructions/inst_prac_1/Slide28.png,right,0.7666461330009042,587.2886324539941,588.055278586995,,,,,,,,,,,,,,,,,,,,,,,,,,,,,,,,,1,,,,,,,,,,,,,,,,,,,,,,,,,,,,,,,,,,,,,,,,,,,,,,128,150490,22,Female,1,2024/03/27_08:53:30,SD,50.251550720340305,
6,./instructions/inst_prac_1/Slide29.png,right,4.591129628002818,588.0883084389934,592.6794380669962,,,,,,,,,,,,,,,,,,,,,,,,,,,,,,,,,1,,,,,,,,,,,,,,,,,,,,,,,,,,,,,,,,,,,,,,,,,,,,,,128,150490,22,Female,1,2024/03/27_08:53:30,SD,50.251550720340305,
7,./instructions/inst_prac_1/Slide30.png,right,15.914995496001211,592.7324841879963,608.6474796839975,,,,,,,,,,,,,,,,,,,,,,,,,,,,,,,,,1,,,,,,,,,,,,,,,,,,,,,,,,,,,,,,,,,,,,,,,,,,,,,,128,150490,22,Female,1,2024/03/27_08:53:30,SD,50.251550720340305,
,,,,,,practice,0,1,1,1250,1,F,0,right,2.436190535001515,1,0,,,,,,,,,,,,,,,,,,,,,1,,,,,,,,,,,,,,,,,,,,,,,,,,,,,,,,,,,,,,,,,,,,,,128,150490,22,Female,1,2024/03/27_08:53:30,SD,50.251550720340305,
,,,,,,practice,0,1,1,1250,2,F,1,left,1.179430295000202,1,0,,,,,,,,,,,,,,,,,,,,,1,,,,,,,,,,,,,,,,,,,,,,,,,,,,,,,,,,,,,,,,,,,,,,128,150490,22,Female,1,2024/03/27_08:53:30,SD,50.251550720340305,
,,,,,,practice,0,1,1,1250,3,Q,0,right,0.6440775240043877,1,0,,,,,,,,,,,,,,,,,,,,,1,,,,,,,,,,,,,,,,,,,,,,,,,,,,,,,,,,,,,,,,,,,,,,128,150490,22,Female,1,2024/03/27_08:53:30,SD,50.251550720340305,
,,,,,,practice,0,1,1,1250,4,Q,1,left,0.9321157910017064,1,0,,,,,,,,,,,,,,,,,,,,,1,,,,,,,,,,,,,,,,,,,,,,,,,,,,,,,,,,,,,,,,,,,,,,128,150490,22,Female,1,2024/03/27_08:53:30,SD,50.251550720340305,
,,,,,,practice,0,1,1,1250,5,F,0,left,1.0599541639967356,0,0,,,,,,,,,,,,,,,,,,,,,1,,,,,,,,,,,,,,,,,,,,,,,,,,,,,,,,,,,,,,,,,,,,,,128,150490,22,Female,1,2024/03/27_08:53:30,SD,50.251550720340305,
,,,,,,practice,0,1,1,1250,6,S,0,right,1.4481318409962114,1,0,,,,,,,,,,,,,,,,,,,,,1,,,,,,,,,,,,,,,,,,,,,,,,,,,,,,,,,,,,,,,,,,,,,,128,150490,22,Female,1,2024/03/27_08:53:30,SD,50.251550720340305,
,,,,,,practice,0,1,1,1250,7,S,1,left,0.5893809509943821,1,0,,,,,,,,,,,,,,,,,,,,,1,,,,,,,,,,,,,,,,,,,,,,,,,,,,,,,,,,,,,,,,,,,,,,128,150490,22,Female,1,2024/03/27_08:53:30,SD,50.251550720340305,
,,,,,,practice,0,1,1,1250,8,C,0,right,1.1072005149981123,1,0,,,,,,,,,,,,,,,,,,,,,1,,,,,,,,,,,,,,,,,,,,,,,,,,,,,,,,,,,,,,,,,,,,,,128,150490,22,Female,1,2024/03/27_08:53:30,SD,50.251550720340305,
,,,,,,practice,0,1,1,1250,9,X,0,right,0.7326706040039426,1,0,,,,,,,,,,,,,,,,,,,,,1,,,,,,,,,,,,,,,,,,,,,,,,,,,,,,,,,,,,,,,,,,,,,,128,150490,22,Female,1,2024/03/27_08:53:30,SD,50.251550720340305,
,,,,,,practice,0,1,1,1250,10,S,0,right,0.7552911629973096,1,0,,,,,,,,,,,,,,,,,,,,,1,,,,,,,,,,,,,,,,,,,,,,,,,,,,,,,,,,,,,,,,,,,,,,128,150490,22,Female,1,2024/03/27_08:53:30,SD,50.251550720340305,
,,,,,,practice,0,1,1,1250,,,,,,,,0.9642857142857143,1.0,0.14285714285714285,0.8571428571428571,0.0,0.8571428571428572,1.0884443382994504,3,1,0,0,0,6,9,3,7,0,,,,1,,,,,,,,,,,,,,,,,,,,,,,,,,,,,,,,,,,,,,,,,,,,,,128,150490,22,Female,1,2024/03/27_08:53:30,SD,50.251550720340305,
1,./instructions/inst_prac_1_next/Slide35.png,right,6.266932186001213,630.6924999249968,636.959432110998,,,,,,,,,,,,,,,,,,,,,,,,,,,,,,,,,1,,,,,,,,,,,,,,,,,,,,,,,,,,,,,,,,,,,,,,,,,,,,,,128,150490,22,Female,1,2024/03/27_08:53:30,SD,50.251550720340305,
,,,,,,practice,0,2,1,1068,1,N,0,left,0.39314410500082886,0,0,,,,,,,,,,,,,,,,,,,,,1,,,,,,,,,,,,,,,,,,,,,,,,,,,,,,,,,,,,,,,,,,,,,,128,150490,22,Female,1,2024/03/27_08:53:30,SD,50.251550720340305,
,,,,,,practice,0,2,1,1068,2,Q,0,right,1.0985361560015008,1,0,,,,,,,,,,,,,,,,,,,,,1,,,,,,,,,,,,,,,,,,,,,,,,,,,,,,,,,,,,,,,,,,,,,,128,150490,22,Female,1,2024/03/27_08:53:30,SD,50.251550720340305,
,,,,,,practice,0,2,1,1068,3,Q,1,left,0.6739835170010338,1,0,,,,,,,,,,,,,,,,,,,,,1,,,,,,,,,,,,,,,,,,,,,,,,,,,,,,,,,,,,,,,,,,,,,,128,150490,22,Female,1,2024/03/27_08:53:30,SD,50.251550720340305,
,,,,,,practice,0,2,1,1068,4,X,0,right,1.3534857019985793,1,0,,,,,,,,,,,,,,,,,,,,,1,,,,,,,,,,,,,,,,,,,,,,,,,,,,,,,,,,,,,,,,,,,,,,128,150490,22,Female,1,2024/03/27_08:53:30,SD,50.251550720340305,
,,,,,,practice,0,2,1,1068,5,X,1,left,0.6101239949930459,1,0,,,,,,,,,,,,,,,,,,,,,1,,,,,,,,,,,,,,,,,,,,,,,,,,,,,,,,,,,,,,,,,,,,,,128,150490,22,Female,1,2024/03/27_08:53:30,SD,50.251550720340305,
,,,,,,practice,0,2,1,1068,6,S,0,right,0.6742846380002447,1,0,,,,,,,,,,,,,,,,,,,,,1,,,,,,,,,,,,,,,,,,,,,,,,,,,,,,,,,,,,,,,,,,,,,,128,150490,22,Female,1,2024/03/27_08:53:30,SD,50.251550720340305,
,,,,,,practice,0,2,1,1068,7,J,0,right,0.625370934001694,1,0,,,,,,,,,,,,,,,,,,,,,1,,,,,,,,,,,,,,,,,,,,,,,,,,,,,,,,,,,,,,,,,,,,,,128,150490,22,Female,1,2024/03/27_08:53:30,SD,50.251550720340305,
,,,,,,practice,0,2,1,1068,8,J,1,left,0.5932254319995991,1,0,,,,,,,,,,,,,,,,,,,,,1,,,,,,,,,,,,,,,,,,,,,,,,,,,,,,,,,,,,,,,,,,,,,,128,150490,22,Female,1,2024/03/27_08:53:30,SD,50.251550720340305,
,,,,,,practice,0,2,1,1068,9,Q,0,right,0.8106415579968598,1,0,,,,,,,,,,,,,,,,,,,,,1,,,,,,,,,,,,,,,,,,,,,,,,,,,,,,,,,,,,,,,,,,,,,,128,150490,22,Female,1,2024/03/27_08:53:30,SD,50.251550720340305,
,,,,,,practice,0,2,1,1068,10,S,0,right,0.7373493570048595,1,0,,,,,,,,,,,,,,,,,,,,,1,,,,,,,,,,,,,,,,,,,,,,,,,,,,,,,,,,,,,,,,,,,,,,128,150490,22,Female,1,2024/03/27_08:53:30,SD,50.251550720340305,
,,,,,,practice,0,2,1,1068,11,F,0,right,0.5460546050017001,1,0,,,,,,,,,,,,,,,,,,,,,1,,,,,,,,,,,,,,,,,,,,,,,,,,,,,,,,,,,,,,,,,,,,,,128,150490,22,Female,1,2024/03/27_08:53:30,SD,50.251550720340305,
,,,,,,practice,0,2,1,1068,,,,,,,,0.96875,1.0,0.125,0.875,0.0,0.875,0.7378363635454496,3,1,0,0,0,7,10,3,8,0,,,,1,,,,,,,,,,,,,,,,,,,,,,,,,,,,,,,,,,,,,,,,,,,,,,128,150490,22,Female,1,2024/03/27_08:53:30,SD,50.251550720340305,
,,,,,,practice,0,19,1,1068,1,C,0,right,1.0028743750008289,1,0,,,,,,,,,,,,,,,,,,,,,1,,,,,,,,,,,,,,,,,,,,,,,,,,,,,,,,,,,,,,,,,,,,,,128,150490,22,Female,1,2024/03/27_08:53:30,SD,50.251550720340305,
,,,,,,practice,0,19,1,1068,2,S,0,right,0.7867543720058165,1,0,,,,,,,,,,,,,,,,,,,,,1,,,,,,,,,,,,,,,,,,,,,,,,,,,,,,,,,,,,,,,,,,,,,,128,150490,22,Female,1,2024/03/27_08:53:30,SD,50.251550720340305,
,,,,,,practice,0,19,1,1068,3,S,1,left,0.4597740530007286,1,0,,,,,,,,,,,,,,,,,,,,,1,,,,,,,,,,,,,,,,,,,,,,,,,,,,,,,,,,,,,,,,,,,,,,128,150490,22,Female,1,2024/03/27_08:53:30,SD,50.251550720340305,
,,,,,,practice,0,19,1,1068,4,Q,0,right,0.6178251400051522,1,0,,,,,,,,,,,,,,,,,,,,,1,,,,,,,,,,,,,,,,,,,,,,,,,,,,,,,,,,,,,,,,,,,,,,128,150490,22,Female,1,2024/03/27_08:53:30,SD,50.251550720340305,
,,,,,,practice,0,19,1,1068,5,Q,1,left,0.5378050849976717,1,0,,,,,,,,,,,,,,,,,,,,,1,,,,,,,,,,,,,,,,,,,,,,,,,,,,,,,,,,,,,,,,,,,,,,128,150490,22,Female,1,2024/03/27_08:53:30,SD,50.251550720340305,
,,,,,,practice,0,19,1,1068,6,J,0,right,0.5782791919991723,1,0,,,,,,,,,,,,,,,,,,,,,1,,,,,,,,,,,,,,,,,,,,,,,,,,,,,,,,,,,,,,,,,,,,,,128,150490,22,Female,1,2024/03/27_08:53:30,SD,50.251550720340305,
,,,,,,practice,0,19,1,1068,7,Q,0,right,0.6346262250008294,1,0,,,,,,,,,,,,,,,,,,,,,1,,,,,,,,,,,,,,,,,,,,,,,,,,,,,,,,,,,,,,,,,,,,,,128,150490,22,Female,1,2024/03/27_08:53:30,SD,50.251550720340305,
,,,,,,practice,0,19,1,1068,8,J,0,right,0.697793309998815,1,0,,,,,,,,,,,,,,,,,,,,,1,,,,,,,,,,,,,,,,,,,,,,,,,,,,,,,,,,,,,,,,,,,,,,128,150490,22,Female,1,2024/03/27_08:53:30,SD,50.251550720340305,
,,,,,,practice,0,19,1,1068,9,J,1,left,0.8831514630001038,1,0,,,,,,,,,,,,,,,,,,,,,1,,,,,,,,,,,,,,,,,,,,,,,,,,,,,,,,,,,,,,,,,,,,,,128,150490,22,Female,1,2024/03/27_08:53:30,SD,50.251550720340305,
,,,,,,practice,0,19,1,1068,10,F,0,right,1.3532601990009425,1,0,,,,,,,,,,,,,,,,,,,,,1,,,,,,,,,,,,,,,,,,,,,,,,,,,,,,,,,,,,,,,,,,,,,,128,150490,22,Female,1,2024/03/27_08:53:30,SD,50.251550720340305,
,,,,,,practice,0,19,1,1068,11,S,0,right,1.3217805870008306,1,0,,,,,,,,,,,,,,,,,,,,,1,,,,,,,,,,,,,,,,,,,,,,,,,,,,,,,,,,,,,,,,,,,,,,128,150490,22,Female,1,2024/03/27_08:53:30,SD,50.251550720340305,
,,,,,,practice,0,19,1,1068,,,,,,,,1.0,1.0,0.0,1.0,0.0,1.0,0.8067203637282628,3,0,0,0,0,8,11,3,8,0,,,,1,,,,,,,,,,,,,,,,,,,,,,,,,,,,,,,,,,,,,,,,,,,,,,128,150490,22,Female,1,2024/03/27_08:53:30,SD,50.251550720340305,
1,./instructions/inst_prac_3/Slide37.png,right,18.444863188000454,669.794402571999,688.2392657599994,,,,,,,,,,,,,,,,,,,,,,,,,,,,,,,,,1,,,,,,,,,,,,,,,,,,,,,,,,,,,,,,,,,,,,,,,,,,,,,,128,150490,22,Female,1,2024/03/27_08:53:30,SD,50.251550720340305,
2,./instructions/inst_prac_3/Slide38.png,right,1.6327371860024869,688.2866129409958,689.9193501269983,,,,,,,,,,,,,,,,,,,,,,,,,,,,,,,,,1,,,,,,,,,,,,,,,,,,,,,,,,,,,,,,,,,,,,,,,,,,,,,,128,150490,22,Female,1,2024/03/27_08:53:30,SD,50.251550720340305,
3,./instructions/inst_prac_3/Slide39.png,right,0.9191906319974805,689.9521416849966,690.8713323169941,,,,,,,,,,,,,,,,,,,,,,,,,,,,,,,,,1,,,,,,,,,,,,,,,,,,,,,,,,,,,,,,,,,,,,,,,,,,,,,,128,150490,22,Female,1,2024/03/27_08:53:30,SD,50.251550720340305,
4,./instructions/inst_prac_3/Slide40.png,right,7.007592589005071,690.9038183639932,697.9114109529983,,,,,,,,,,,,,,,,,,,,,,,,,,,,,,,,,1,,,,,,,,,,,,,,,,,,,,,,,,,,,,,,,,,,,,,,,,,,,,,,128,150490,22,Female,1,2024/03/27_08:53:30,SD,50.251550720340305,
5,./instructions/inst_prac_3/Slide41.png,right,1.958932638000988,697.9445442359938,699.9034768739948,,,,,,,,,,,,,,,,,,,,,,,,,,,,,,,,,1,,,,,,,,,,,,,,,,,,,,,,,,,,,,,,,,,,,,,,,,,,,,,,128,150490,22,Female,1,2024/03/27_08:53:30,SD,50.251550720340305,
6,./instructions/inst_prac_3/Slide42.png,right,2.3668420429967227,699.936652766999,702.3034948099958,,,,,,,,,,,,,,,,,,,,,,,,,,,,,,,,,1,,,,,,,,,,,,,,,,,,,,,,,,,,,,,,,,,,,,,,,,,,,,,,128,150490,22,Female,1,2024/03/27_08:53:30,SD,50.251550720340305,
7,./instructions/inst_prac_3/Slide43.png,right,15.846627687002183,702.336868679995,718.1834963669971,,,,,,,,,,,,,,,,,,,,,,,,,,,,,,,,,1,,,,,,,,,,,,,,,,,,,,,,,,,,,,,,,,,,,,,,,,,,,,,,128,150490,22,Female,1,2024/03/27_08:53:30,SD,50.251550720340305,
8,./instructions/inst_prac_3/Slide44.png,right,3.544455444003688,718.2229098769967,721.7673653210004,,,,,,,,,,,,,,,,,,,,,,,,,,,,,,,,,1,,,,,,,,,,,,,,,,,,,,,,,,,,,,,,,,,,,,,,,,,,,,,,128,150490,22,Female,1,2024/03/27_08:53:30,SD,50.251550720340305,
,,,,,,practice,0,11,3,788,1,V,0,right,0.5170386460013106,1,0,,,,,,,,,,,,,,,,,,,,,1,,,,,,,,,,,,,,,,,,,,,,,,,,,,,,,,,,,,,,,,,,,,,,128,150490,22,Female,1,2024/03/27_08:53:30,SD,50.251550720340305,
,,,,,,practice,0,11,3,788,2,N,0,right,0.5076585480055655,1,0,,,,,,,,,,,,,,,,,,,,,1,,,,,,,,,,,,,,,,,,,,,,,,,,,,,,,,,,,,,,,,,,,,,,128,150490,22,Female,1,2024/03/27_08:53:30,SD,50.251550720340305,
,,,,,,practice,0,11,3,788,3,N,0,right,0.6364307260009809,1,0,,,,,,,,,,,,,,,,,,,,,1,,,,,,,,,,,,,,,,,,,,,,,,,,,,,,,,,,,,,,,,,,,,,,128,150490,22,Female,1,2024/03/27_08:53:30,SD,50.251550720340305,
,,,,,,practice,0,11,3,788,4,Q,0,right,1.643581414995424,1,0,,,,,,,,,,,,,,,,,,,,,1,,,,,,,,,,,,,,,,,,,,,,,,,,,,,,,,,,,,,,,,,,,,,,128,150490,22,Female,1,2024/03/27_08:53:30,SD,50.251550720340305,
,,,,,,practice,0,11,3,788,5,N,1,left,0.7637460409969208,1,0,,,,,,,,,,,,,,,,,,,,,1,,,,,,,,,,,,,,,,,,,,,,,,,,,,,,,,,,,,,,,,,,,,,,128,150490,22,Female,1,2024/03/27_08:53:30,SD,50.251550720340305,
,,,,,,practice,0,11,3,788,6,Q,0,right,1.6284390740038361,1,0,,,,,,,,,,,,,,,,,,,,,1,,,,,,,,,,,,,,,,,,,,,,,,,,,,,,,,,,,,,,,,,,,,,,128,150490,22,Female,1,2024/03/27_08:53:30,SD,50.251550720340305,
,,,,,,practice,0,11,3,788,7,J,0,right,0.987714804999996,1,0,,,,,,,,,,,,,,,,,,,,,1,,,,,,,,,,,,,,,,,,,,,,,,,,,,,,,,,,,,,,,,,,,,,,128,150490,22,Female,1,2024/03/27_08:53:30,SD,50.251550720340305,
,,,,,,practice,0,11,3,788,8,N,1,right,2.3641554089990677,0,0,,,,,,,,,,,,,,,,,,,,,1,,,,,,,,,,,,,,,,,,,,,,,,,,,,,,,,,,,,,,,,,,,,,,128,150490,22,Female,1,2024/03/27_08:53:30,SD,50.251550720340305,
,,,,,,practice,0,11,3,788,9,V,0,right,1.408494426003017,1,0,,,,,,,,,,,,,,,,,,,,,1,,,,,,,,,,,,,,,,,,,,,,,,,,,,,,,,,,,,,,,,,,,,,,128,150490,22,Female,1,2024/03/27_08:53:30,SD,50.251550720340305,
,,,,,,practice,0,11,3,788,10,J,1,left,0.7873838679952314,1,0,,,,,,,,,,,,,,,,,,,,,1,,,,,,,,,,,,,,,,,,,,,,,,,,,,,,,,,,,,,,,,,,,,,,128,150490,22,Female,1,2024/03/27_08:53:30,SD,50.251550720340305,
,,,,,,practice,0,11,3,788,11,F,0,right,1.269235519997892,1,0,,,,,,,,,,,,,,,,,,,,,1,,,,,,,,,,,,,,,,,,,,,,,,,,,,,,,,,,,,,,,,,,,,,,128,150490,22,Female,1,2024/03/27_08:53:30,SD,50.251550720340305,
,,,,,,practice,0,11,3,788,12,X,0,left,3.268634676001966,0,0,,,,,,,,,,,,,,,,,,,,,1,,,,,,,,,,,,,,,,,,,,,,,,,,,,,,,,,,,,,,,,,,,,,,128,150490,22,Female,1,2024/03/27_08:53:30,SD,50.251550720340305,
,,,,,,practice,0,11,3,788,13,J,1,right,1.2471679849986685,0,0,,,,,,,,,,,,,,,,,,,,,1,,,,,,,,,,,,,,,,,,,,,,,,,,,,,,,,,,,,,,,,,,,,,,128,150490,22,Female,1,2024/03/27_08:53:30,SD,50.251550720340305,
,,,,,,practice,0,11,3,788,,,,,,,,0.7916666666666666,0.5,0.1111111111111111,0.8888888888888888,0.0,0.8888888888888888,1.3099754722307597,2,1,0,0,0,8,10,4,9,0,,,,1,,,,,,,,,,,,,,,,,,,,,,,,,,,,,,,,,,,,,,,,,,,,,,128,150490,22,Female,1,2024/03/27_08:53:30,SD,50.251550720340305,
-1,./instructions/inst_prac_3_next/Slide49.png,left,16.057572785997763,754.1820763439973,770.2396491299951,,,,,,,,,,,,,,,,,,,,,,,,,,,,,,,,,1,,,,,,,,,,,,,,,,,,,,,,,,,,,,,,,,,,,,,,,,,,,,,,128,150490,22,Female,1,2024/03/27_08:53:30,SD,50.251550720340305,
,,,,,,practice,0,8,3,1068,1,Q,0,right,1.1032594470016193,1,0,,,,,,,,,,,,,,,,,,,,,1,,,,,,,,,,,,,,,,,,,,,,,,,,,,,,,,,,,,,,,,,,,,,,128,150490,22,Female,1,2024/03/27_08:53:30,SD,50.251550720340305,
,,,,,,practice,0,8,3,1068,2,N,0,right,0.2923910129975411,1,0,,,,,,,,,,,,,,,,,,,,,1,,,,,,,,,,,,,,,,,,,,,,,,,,,,,,,,,,,,,,,,,,,,,,128,150490,22,Female,1,2024/03/27_08:53:30,SD,50.251550720340305,
,,,,,,practice,0,8,3,1068,3,Q,0,right,0.23632358500617556,1,0,,,,,,,,,,,,,,,,,,,,,1,,,,,,,,,,,,,,,,,,,,,,,,,,,,,,,,,,,,,,,,,,,,,,128,150490,22,Female,1,2024/03/27_08:53:30,SD,50.251550720340305,
,,,,,,practice,0,8,3,1068,4,V,0,right,1.1386299310033792,1,0,,,,,,,,,,,,,,,,,,,,,1,,,,,,,,,,,,,,,,,,,,,,,,,,,,,,,,,,,,,,,,,,,,,,128,150490,22,Female,1,2024/03/27_08:53:30,SD,50.251550720340305,
,,,,,,practice,0,8,3,1068,5,F,0,right,0.6357457930062083,1,0,,,,,,,,,,,,,,,,,,,,,1,,,,,,,,,,,,,,,,,,,,,,,,,,,,,,,,,,,,,,,,,,,,,,128,150490,22,Female,1,2024/03/27_08:53:30,SD,50.251550720340305,
,,,,,,practice,0,8,3,1068,6,Q,1,left,0.7404183040052885,1,0,,,,,,,,,,,,,,,,,,,,,1,,,,,,,,,,,,,,,,,,,,,,,,,,,,,,,,,,,,,,,,,,,,,,128,150490,22,Female,1,2024/03/27_08:53:30,SD,50.251550720340305,
,,,,,,practice,0,8,3,1068,7,V,1,left,0.6961699489984312,1,0,,,,,,,,,,,,,,,,,,,,,1,,,,,,,,,,,,,,,,,,,,,,,,,,,,,,,,,,,,,,,,,,,,,,128,150490,22,Female,1,2024/03/27_08:53:30,SD,50.251550720340305,
,,,,,,practice,0,8,3,1068,8,V,0,right,1.2993048630014528,1,0,,,,,,,,,,,,,,,,,,,,,1,,,,,,,,,,,,,,,,,,,,,,,,,,,,,,,,,,,,,,,,,,,,,,128,150490,22,Female,1,2024/03/27_08:53:30,SD,50.251550720340305,
,,,,,,practice,0,8,3,1068,9,X,0,right,1.116966087000037,1,0,,,,,,,,,,,,,,,,,,,,,1,,,,,,,,,,,,,,,,,,,,,,,,,,,,,,,,,,,,,,,,,,,,,,128,150490,22,Female,1,2024/03/27_08:53:30,SD,50.251550720340305,
,,,,,,practice,0,8,3,1068,10,Q,0,right,0.7562749220014666,1,0,,,,,,,,,,,,,,,,,,,,,1,,,,,,,,,,,,,,,,,,,,,,,,,,,,,,,,,,,,,,,,,,,,,,128,150490,22,Female,1,2024/03/27_08:53:30,SD,50.251550720340305,
,,,,,,practice,0,8,3,1068,11,V,1,left,0.388212536003266,1,0,,,,,,,,,,,,,,,,,,,,,1,,,,,,,,,,,,,,,,,,,,,,,,,,,,,,,,,,,,,,,,,,,,,,128,150490,22,Female,1,2024/03/27_08:53:30,SD,50.251550720340305,
,,,,,,practice,0,8,3,1068,,,,,,,,1.0,1.0,0.0,1.0,0.0,1.0,0.7639724027295333,3,0,0,0,0,8,11,3,8,0,,,,1,,,,,,,,,,,,,,,,,,,,,,,,,,,,,,,,,,,,,,,,,,,,,,128,150490,22,Female,1,2024/03/27_08:53:30,SD,50.251550720340305,
1,./instructions/inst_prac_3_next/Slide49.png,right,2.779034685001534,791.3645635919966,794.1435982769981,,,,,,,,,,,,,,,,,,,,,,,,,,,,,,,,,1,,,,,,,,,,,,,,,,,,,,,,,,,,,,,,,,,,,,,,,,,,,,,,128,150490,22,Female,1,2024/03/27_08:53:30,SD,50.251550720340305,
,,,,,,practice,0,35,3,1068,1,F,0,right,0.3941375770009472,1,0,,,,,,,,,,,,,,,,,,,,,1,,,,,,,,,,,,,,,,,,,,,,,,,,,,,,,,,,,,,,,,,,,,,,128,150490,22,Female,1,2024/03/27_08:53:30,SD,50.251550720340305,
,,,,,,practice,0,35,3,1068,2,V,0,right,0.4660371719946852,1,0,,,,,,,,,,,,,,,,,,,,,1,,,,,,,,,,,,,,,,,,,,,,,,,,,,,,,,,,,,,,,,,,,,,,128,150490,22,Female,1,2024/03/27_08:53:30,SD,50.251550720340305,
,,,,,,practice,0,35,3,1068,3,C,0,right,0.4738545950021944,1,0,,,,,,,,,,,,,,,,,,,,,1,,,,,,,,,,,,,,,,,,,,,,,,,,,,,,,,,,,,,,,,,,,,,,128,150490,22,Female,1,2024/03/27_08:53:30,SD,50.251550720340305,
,,,,,,practice,0,35,3,1068,4,F,1,left,0.48221135800122283,1,0,,,,,,,,,,,,,,,,,,,,,1,,,,,,,,,,,,,,,,,,,,,,,,,,,,,,,,,,,,,,,,,,,,,,128,150490,22,Female,1,2024/03/27_08:53:30,SD,50.251550720340305,
,,,,,,practice,0,35,3,1068,5,C,0,right,0.977842182997847,1,0,,,,,,,,,,,,,,,,,,,,,1,,,,,,,,,,,,,,,,,,,,,,,,,,,,,,,,,,,,,,,,,,,,,,128,150490,22,Female,1,2024/03/27_08:53:30,SD,50.251550720340305,
,,,,,,practice,0,35,3,1068,6,V,0,left,1.0018064129981212,0,0,,,,,,,,,,,,,,,,,,,,,1,,,,,,,,,,,,,,,,,,,,,,,,,,,,,,,,,,,,,,,,,,,,,,128,150490,22,Female,1,2024/03/27_08:53:30,SD,50.251550720340305,
,,,,,,practice,0,35,3,1068,7,S,0,right,1.6500928809982724,1,0,,,,,,,,,,,,,,,,,,,,,1,,,,,,,,,,,,,,,,,,,,,,,,,,,,,,,,,,,,,,,,,,,,,,128,150490,22,Female,1,2024/03/27_08:53:30,SD,50.251550720340305,
,,,,,,practice,0,35,3,1068,8,C,1,right,1.4093805079974118,0,0,,,,,,,,,,,,,,,,,,,,,1,,,,,,,,,,,,,,,,,,,,,,,,,,,,,,,,,,,,,,,,,,,,,,128,150490,22,Female,1,2024/03/27_08:53:30,SD,50.251550720340305,
,,,,,,practice,0,35,3,1068,9,J,0,right,1.21022173500387,1,0,,,,,,,,,,,,,,,,,,,,,1,,,,,,,,,,,,,,,,,,,,,,,,,,,,,,,,,,,,,,,,,,,,,,128,150490,22,Female,1,2024/03/27_08:53:30,SD,50.251550720340305,
,,,,,,practice,0,35,3,1068,10,S,1,left,0.6573854039961589,1,0,,,,,,,,,,,,,,,,,,,,,1,,,,,,,,,,,,,,,,,,,,,,,,,,,,,,,,,,,,,,,,,,,,,,128,150490,22,Female,1,2024/03/27_08:53:30,SD,50.251550720340305,
,,,,,,practice,0,35,3,1068,11,J,0,left,1.7059535869993852,0,0,,,,,,,,,,,,,,,,,,,,,1,,,,,,,,,,,,,,,,,,,,,,,,,,,,,,,,,,,,,,,,,,,,,,128,150490,22,Female,1,2024/03/27_08:53:30,SD,50.251550720340305,
,,,,,,practice,0,35,3,1068,,,,,,,,0.7708333333333333,0.6666666666666666,0.25,0.75,0.0,0.75,0.9480839466354651,2,2,0,0,0,6,8,3,8,0,,,,1,,,,,,,,,,,,,,,,,,,,,,,,,,,,,,,,,,,,,,,,,,,,,,128,150490,22,Female,1,2024/03/27_08:53:30,SD,50.251550720340305,
,,,,,,practice,0,2,3,1068,1,N,0,right,0.8338545419974253,1,0,,,,,,,,,,,,,,,,,,,,,1,,,,,,,,,,,,,,,,,,,,,,,,,,,,,,,,,,,,,,,,,,,,,,128,150490,22,Female,1,2024/03/27_08:53:30,SD,50.251550720340305,
,,,,,,practice,0,2,3,1068,2,F,0,right,0.5141702330001863,1,0,,,,,,,,,,,,,,,,,,,,,1,,,,,,,,,,,,,,,,,,,,,,,,,,,,,,,,,,,,,,,,,,,,,,128,150490,22,Female,1,2024/03/27_08:53:30,SD,50.251550720340305,
,,,,,,practice,0,2,3,1068,3,Q,0,right,0.2181530610032496,1,0,,,,,,,,,,,,,,,,,,,,,1,,,,,,,,,,,,,,,,,,,,,,,,,,,,,,,,,,,,,,,,,,,,,,128,150490,22,Female,1,2024/03/27_08:53:30,SD,50.251550720340305,
,,,,,,practice,0,2,3,1068,4,N,1,left,1.5695098290016176,1,0,,,,,,,,,,,,,,,,,,,,,1,,,,,,,,,,,,,,,,,,,,,,,,,,,,,,,,,,,,,,,,,,,,,,128,150490,22,Female,1,2024/03/27_08:53:30,SD,50.251550720340305,
,,,,,,practice,0,2,3,1068,5,F,1,left,0.825888521001616,1,0,,,,,,,,,,,,,,,,,,,,,1,,,,,,,,,,,,,,,,,,,,,,,,,,,,,,,,,,,,,,,,,,,,,,128,150490,22,Female,1,2024/03/27_08:53:30,SD,50.251550720340305,
,,,,,,practice,0,2,3,1068,6,F,0,right,0.9139543640048942,1,0,,,,,,,,,,,,,,,,,,,,,1,,,,,,,,,,,,,,,,,,,,,,,,,,,,,,,,,,,,,,,,,,,,,,128,150490,22,Female,1,2024/03/27_08:53:30,SD,50.251550720340305,
,,,,,,practice,0,2,3,1068,7,J,0,right,2.7775672809948446,1,0,,,,,,,,,,,,,,,,,,,,,1,,,,,,,,,,,,,,,,,,,,,,,,,,,,,,,,,,,,,,,,,,,,,,128,150490,22,Female,1,2024/03/27_08:53:30,SD,50.251550720340305,
,,,,,,practice,0,2,3,1068,8,Q,0,left,0.9698430050048046,0,0,,,,,,,,,,,,,,,,,,,,,1,,,,,,,,,,,,,,,,,,,,,,,,,,,,,,,,,,,,,,,,,,,,,,128,150490,22,Female,1,2024/03/27_08:53:30,SD,50.251550720340305,
,,,,,,practice,0,2,3,1068,9,V,0,right,1.3943576099991333,1,0,,,,,,,,,,,,,,,,,,,,,1,,,,,,,,,,,,,,,,,,,,,,,,,,,,,,,,,,,,,,,,,,,,,,128,150490,22,Female,1,2024/03/27_08:53:30,SD,50.251550720340305,
,,,,,,practice,0,2,3,1068,10,X,0,right,1.2176018660029513,1,0,,,,,,,,,,,,,,,,,,,,,1,,,,,,,,,,,,,,,,,,,,,,,,,,,,,,,,,,,,,,,,,,,,,,128,150490,22,Female,1,2024/03/27_08:53:30,SD,50.251550720340305,
,,,,,,practice,0,2,3,1068,11,Q,1,right,2.0501899599985336,0,0,,,,,,,,,,,,,,,,,,,,,1,,,,,,,,,,,,,,,,,,,,,,,,,,,,,,,,,,,,,,,,,,,,,,128,150490,22,Female,1,2024/03/27_08:53:30,SD,50.251550720340305,
,,,,,,practice,0,2,3,1068,,,,,,,,0.84375,0.6666666666666666,0.125,0.875,0.0,0.875,1.2077354792735688,2,1,0,0,0,7,9,3,8,0,,,,1,,,,,,,,,,,,,,,,,,,,,,,,,,,,,,,,,,,,,,,,,,,,,,128,150490,22,Female,1,2024/03/27_08:53:30,SD,50.251550720340305,
1,./instructions/inst_prac_main/Slide51.png,right,4.383220277995861,833.70430166,838.0875219379959,,,,,,,,,,,,,,,,,,,,,,,,,,,,,,,,,1,,,,,,,,,,,,,,,,,,,,,,,,,,,,,,,,,,,,,,,,,,,,,,128,150490,22,Female,1,2024/03/27_08:53:30,SD,50.251550720340305,
2,./instructions/inst_prac_main/Slide52.png,right,10.56648102899635,838.1208110299995,848.6872920589958,,,,,,,,,,,,,,,,,,,,,,,,,,,,,,,,,1,,,,,,,,,,,,,,,,,,,,,,,,,,,,,,,,,,,,,,,,,,,,,,128,150490,22,Female,1,2024/03/27_08:53:30,SD,50.251550720340305,
1,./instructions/inst_prac_main/Slide53.png,left,6.230597169000248,848.7208870969989,854.9514842659992,,,,,,,,,,,,,,,,,,,,,,,,,,,,,,,,,1,,,,,,,,,,,,,,,,,,,,,,,,,,,,,,,,,,,,,,,,,,,,,,128,150490,22,Female,1,2024/03/27_08:53:30,SD,50.251550720340305,
2,./instructions/inst_prac_main/Slide52.png,right,2.863161025001318,854.9841574199963,857.8473184449977,,,,,,,,,,,,,,,,,,,,,,,,,,,,,,,,,1,,,,,,,,,,,,,,,,,,,,,,,,,,,,,,,,,,,,,,,,,,,,,,128,150490,22,Female,1,2024/03/27_08:53:30,SD,50.251550720340305,
3,./instructions/inst_prac_main/Slide53.png,right,6.023995083000045,857.8791959549999,863.9031910379999,,,,,,,,,,,,,,,,,,,,,,,,,,,,,,,,,1,,,,,,,,,,,,,,,,,,,,,,,,,,,,,,,,,,,,,,,,,,,,,,128,150490,22,Female,1,2024/03/27_08:53:30,SD,50.251550720340305,
4,./instructions/inst_prac_main/Slide54.png,right,23.45416380599636,863.9372540429977,887.391417848994,,,,,,,,,,,,,,,,,,,,,,,,,,,,,,,,,1,,,,,,,,,,,,,,,,,,,,,,,,,,,,,,,,,,,,,,,,,,,,,,128,150490,22,Female,1,2024/03/27_08:53:30,SD,50.251550720340305,
,,,,,,practice_main,0,1,1,1068,1,S,0,right,1.7877600229985546,1,0,,,,,,,,,,,,,,,,,,,,,1,,,,,,,,,,,,,,,,,,,,,,,,,,,,,,,,,,,,,,,,,,,,,,128,150490,22,Female,1,2024/03/27_08:53:30,SD,50.251550720340305,
,,,,,,practice_main,0,1,1,1068,2,V,0,right,0.6150877239997499,1,0,,,,,,,,,,,,,,,,,,,,,1,,,,,,,,,,,,,,,,,,,,,,,,,,,,,,,,,,,,,,,,,,,,,,128,150490,22,Female,1,2024/03/27_08:53:30,SD,50.251550720340305,
,,,,,,practice_main,0,1,1,1068,3,F,0,right,0.45606591700197896,1,0,,,,,,,,,,,,,,,,,,,,,1,,,,,,,,,,,,,,,,,,,,,,,,,,,,,,,,,,,,,,,,,,,,,,128,150490,22,Female,1,2024/03/27_08:53:30,SD,50.251550720340305,
,,,,,,practice_main,0,1,1,1068,4,F,1,left,0.45054324000375345,1,0,,,,,,,,,,,,,,,,,,,,,1,,,,,,,,,,,,,,,,,,,,,,,,,,,,,,,,,,,,,,,,,,,,,,128,150490,22,Female,1,2024/03/27_08:53:30,SD,50.251550720340305,
,,,,,,practice_main,0,1,1,1068,5,S,0,right,0.5149623069955851,1,0,,,,,,,,,,,,,,,,,,,,,1,,,,,,,,,,,,,,,,,,,,,,,,,,,,,,,,,,,,,,,,,,,,,,128,150490,22,Female,1,2024/03/27_08:53:30,SD,50.251550720340305,
,,,,,,practice_main,0,1,1,1068,6,C,0,right,0.48486299099749885,1,0,,,,,,,,,,,,,,,,,,,,,1,,,,,,,,,,,,,,,,,,,,,,,,,,,,,,,,,,,,,,,,,,,,,,128,150490,22,Female,1,2024/03/27_08:53:30,SD,50.251550720340305,
,,,,,,practice_main,0,1,1,1068,7,Q,0,right,0.6296825050012558,1,0,,,,,,,,,,,,,,,,,,,,,1,,,,,,,,,,,,,,,,,,,,,,,,,,,,,,,,,,,,,,,,,,,,,,128,150490,22,Female,1,2024/03/27_08:53:30,SD,50.251550720340305,
,,,,,,practice_main,0,1,1,1068,8,F,0,right,0.48258877400076017,1,0,,,,,,,,,,,,,,,,,,,,,1,,,,,,,,,,,,,,,,,,,,,,,,,,,,,,,,,,,,,,,,,,,,,,128,150490,22,Female,1,2024/03/27_08:53:30,SD,50.251550720340305,
,,,,,,practice_main,0,1,1,1068,9,F,1,left,0.6748301739935414,1,0,,,,,,,,,,,,,,,,,,,,,1,,,,,,,,,,,,,,,,,,,,,,,,,,,,,,,,,,,,,,,,,,,,,,128,150490,22,Female,1,2024/03/27_08:53:30,SD,50.251550720340305,
,,,,,,practice_main,0,1,1,1068,10,N,0,right,0.43751469899871154,1,0,,,,,,,,,,,,,,,,,,,,,1,,,,,,,,,,,,,,,,,,,,,,,,,,,,,,,,,,,,,,,,,,,,,,128,150490,22,Female,1,2024/03/27_08:53:30,SD,50.251550720340305,
,,,,,,practice_main,0,1,1,1068,11,N,1,left,0.45771816299384227,1,0,,,,,,,,,,,,,,,,,,,,,1,,,,,,,,,,,,,,,,,,,,,,,,,,,,,,,,,,,,,,,,,,,,,,128,150490,22,Female,1,2024/03/27_08:53:30,SD,50.251550720340305,
,,,,,,practice_main,0,1,1,1068,,,,,,,,1.0,1.0,0.0,1.0,0.0,1.0,0.635601501544112,3,0,0,0,0,8,11,3,8,0,,,,1,,,,,,,,,,,,,,,,,,,,,,,,,,,,,,,,,,,,,,,,,,,,,,128,150490,22,Female,1,2024/03/27_08:53:30,SD,50.251550720340305,
,,,,,240327_091730,PRACTICE,0,1,1,1068,,,,,,,,,,,,,,,,,,,,,,,,,,,,1,32,1,1,cue2.png,easy,B,12,2.682627157002571,0,890.509419490998,893.2317789939989,,,,,,,,,,,,,,,,,,,,,,,,,,,,,,,,,,,128,150490,22,Female,1,2024/03/27_08:53:30,SD,50.251550720340305,
,,,,,,practice_main,0,2,3,1068,1,N,0,right,1.0545422180002788,1,0,,,,,,,,,,,,,,,,,,,,,1,,,,,,,,,,,,,,,,,,,,,,,,,,,,,,,,,,,,,,,,,,,,,,128,150490,22,Female,1,2024/03/27_08:53:30,SD,50.251550720340305,
,,,,,,practice_main,0,2,3,1068,2,F,0,right,0.38571364100062056,1,0,,,,,,,,,,,,,,,,,,,,,1,,,,,,,,,,,,,,,,,,,,,,,,,,,,,,,,,,,,,,,,,,,,,,128,150490,22,Female,1,2024/03/27_08:53:30,SD,50.251550720340305,
,,,,,,practice_main,0,2,3,1068,3,Q,0,right,0.40117516700411215,1,0,,,,,,,,,,,,,,,,,,,,,1,,,,,,,,,,,,,,,,,,,,,,,,,,,,,,,,,,,,,,,,,,,,,,128,150490,22,Female,1,2024/03/27_08:53:30,SD,50.251550720340305,
,,,,,,practice_main,0,2,3,1068,4,N,1,left,0.4902010480000172,1,0,,,,,,,,,,,,,,,,,,,,,1,,,,,,,,,,,,,,,,,,,,,,,,,,,,,,,,,,,,,,,,,,,,,,128,150490,22,Female,1,2024/03/27_08:53:30,SD,50.251550720340305,
,,,,,,practice_main,0,2,3,1068,5,F,1,left,0.43438002199400216,1,0,,,,,,,,,,,,,,,,,,,,,1,,,,,,,,,,,,,,,,,,,,,,,,,,,,,,,,,,,,,,,,,,,,,,128,150490,22,Female,1,2024/03/27_08:53:30,SD,50.251550720340305,
,,,,,,practice_main,0,2,3,1068,6,F,0,right,0.7745265029952861,1,0,,,,,,,,,,,,,,,,,,,,,1,,,,,,,,,,,,,,,,,,,,,,,,,,,,,,,,,,,,,,,,,,,,,,128,150490,22,Female,1,2024/03/27_08:53:30,SD,50.251550720340305,
,,,,,,practice_main,0,2,3,1068,7,J,0,right,1.4496273120021215,1,0,,,,,,,,,,,,,,,,,,,,,1,,,,,,,,,,,,,,,,,,,,,,,,,,,,,,,,,,,,,,,,,,,,,,128,150490,22,Female,1,2024/03/27_08:53:30,SD,50.251550720340305,
,,,,,,practice_main,0,2,3,1068,8,Q,0,left,0.5555033760028891,0,0,,,,,,,,,,,,,,,,,,,,,1,,,,,,,,,,,,,,,,,,,,,,,,,,,,,,,,,,,,,,,,,,,,,,128,150490,22,Female,1,2024/03/27_08:53:30,SD,50.251550720340305,
,,,,,,practice_main,0,2,3,1068,9,V,0,right,1.1161192469953676,1,0,,,,,,,,,,,,,,,,,,,,,1,,,,,,,,,,,,,,,,,,,,,,,,,,,,,,,,,,,,,,,,,,,,,,128,150490,22,Female,1,2024/03/27_08:53:30,SD,50.251550720340305,
,,,,,,practice_main,0,2,3,1068,10,X,0,right,0.6347718199976953,1,0,,,,,,,,,,,,,,,,,,,,,1,,,,,,,,,,,,,,,,,,,,,,,,,,,,,,,,,,,,,,,,,,,,,,128,150490,22,Female,1,2024/03/27_08:53:30,SD,50.251550720340305,
,,,,,,practice_main,0,2,3,1068,11,Q,1,left,0.8747691199969267,1,0,,,,,,,,,,,,,,,,,,,,,1,,,,,,,,,,,,,,,,,,,,,,,,,,,,,,,,,,,,,,,,,,,,,,128,150490,22,Female,1,2024/03/27_08:53:30,SD,50.251550720340305,
,,,,,,practice_main,0,2,3,1068,,,,,,,,0.96875,1.0,0.125,0.875,0.0,0.875,0.7428481339990288,3,1,0,0,0,7,10,3,8,0,,,,1,,,,,,,,,,,,,,,,,,,,,,,,,,,,,,,,,,,,,,,,,,,,,,128,150490,22,Female,1,2024/03/27_08:53:30,SD,50.251550720340305,
,,,,,240327_091803,PRACTICE,0,2,3,1068,,,,,,,,,,,,,,,,,,,,,,,,,,,,1,42,3,2,cue1.png,hard,B,44,1.423420013001305,0,923.4032102869969,924.8748840059998,,,,,,,,,,,,,,,,,,,,,,,,,,,,,,,,,,,128,150490,22,Female,1,2024/03/27_08:53:30,SD,50.251550720340305,
,,,,,,practice_main,0,3,1,1068,1,J,0,right,0.8353223279991653,1,0,,,,,,,,,,,,,,,,,,,,,1,,,,,,,,,,,,,,,,,,,,,,,,,,,,,,,,,,,,,,,,,,,,,,128,150490,22,Female,1,2024/03/27_08:53:30,SD,50.251550720340305,
,,,,,,practice_main,0,3,1,1068,2,J,1,right,1.1738618069939548,0,0,,,,,,,,,,,,,,,,,,,,,1,,,,,,,,,,,,,,,,,,,,,,,,,,,,,,,,,,,,,,,,,,,,,,128,150490,22,Female,1,2024/03/27_08:53:30,SD,50.251550720340305,
,,,,,,practice_main,0,3,1,1068,3,C,0,left,0.595322576999024,0,0,,,,,,,,,,,,,,,,,,,,,1,,,,,,,,,,,,,,,,,,,,,,,,,,,,,,,,,,,,,,,,,,,,,,128,150490,22,Female,1,2024/03/27_08:53:30,SD,50.251550720340305,
,,,,,,practice_main,0,3,1,1068,4,V,0,right,0.47941666100086877,1,0,,,,,,,,,,,,,,,,,,,,,1,,,,,,,,,,,,,,,,,,,,,,,,,,,,,,,,,,,,,,,,,,,,,,128,150490,22,Female,1,2024/03/27_08:53:30,SD,50.251550720340305,
,,,,,,practice_main,0,3,1,1068,5,C,0,right,0.8916522759973304,1,0,,,,,,,,,,,,,,,,,,,,,1,,,,,,,,,,,,,,,,,,,,,,,,,,,,,,,,,,,,,,,,,,,,,,128,150490,22,Female,1,2024/03/27_08:53:30,SD,50.251550720340305,
,,,,,,practice_main,0,3,1,1068,6,C,1,left,0.5749278090006555,1,0,,,,,,,,,,,,,,,,,,,,,1,,,,,,,,,,,,,,,,,,,,,,,,,,,,,,,,,,,,,,,,,,,,,,128,150490,22,Female,1,2024/03/27_08:53:30,SD,50.251550720340305,
,,,,,,practice_main,0,3,1,1068,7,F,0,right,0.7751745179994032,1,0,,,,,,,,,,,,,,,,,,,,,1,,,,,,,,,,,,,,,,,,,,,,,,,,,,,,,,,,,,,,,,,,,,,,128,150490,22,Female,1,2024/03/27_08:53:30,SD,50.251550720340305,
,,,,,,practice_main,0,3,1,1068,8,V,0,right,0.5350105079996865,1,0,,,,,,,,,,,,,,,,,,,,,1,,,,,,,,,,,,,,,,,,,,,,,,,,,,,,,,,,,,,,,,,,,,,,128,150490,22,Female,1,2024/03/27_08:53:30,SD,50.251550720340305,
,,,,,,practice_main,0,3,1,1068,9,V,1,left,0.3428791580008692,1,0,,,,,,,,,,,,,,,,,,,,,1,,,,,,,,,,,,,,,,,,,,,,,,,,,,,,,,,,,,,,,,,,,,,,128,150490,22,Female,1,2024/03/27_08:53:30,SD,50.251550720340305,
,,,,,,practice_main,0,3,1,1068,10,Q,0,right,0.4271855150000192,1,0,,,,,,,,,,,,,,,,,,,,,1,,,,,,,,,,,,,,,,,,,,,,,,,,,,,,,,,,,,,,,,,,,,,,128,150490,22,Female,1,2024/03/27_08:53:30,SD,50.251550720340305,
,,,,,,practice_main,0,3,1,1068,11,X,0,right,0.5694496900032391,1,0,,,,,,,,,,,,,,,,,,,,,1,,,,,,,,,,,,,,,,,,,,,,,,,,,,,,,,,,,,,,,,,,,,,,128,150490,22,Female,1,2024/03/27_08:53:30,SD,50.251550720340305,
,,,,,,practice_main,0,3,1,1068,,,,,,,,0.84375,0.6666666666666666,0.125,0.875,0.0,0.875,0.6545638951812923,2,1,0,0,0,7,9,3,8,0,,,,1,,,,,,,,,,,,,,,,,,,,,,,,,,,,,,,,,,,,,,,,,,,,,,128,150490,22,Female,1,2024/03/27_08:53:30,SD,50.251550720340305,
,,,,,240327_091828,PRACTICE,0,3,1,1068,,,,,,,,,,,,,,,,,,,,,,,,,,,,1,10,4,3,cue2.png,easy,B,46,2.954651502004708,0,948.1667148689958,951.1488145729963,,,,,,,,,,,,,,,,,,,,,,,,,,,,,,,,,,,128,150490,22,Female,1,2024/03/27_08:53:30,SD,50.251550720340305,
1,./instructions/inst_prac_end/Slide56.png,right,37.82399001500016,972.039380107999,1009.8633701229992,,,,,,,,,,,,,,,,,,,,,,,,,,,,,,,,,1,,,,,,,,,,,,,,,,,,,,,,,,,,,,,,,,,,,,,,,,,,,,,,128,150490,22,Female,1,2024/03/27_08:53:30,SD,50.251550720340305,
1,./instructions/inst_test/Slide57.png,right,11.967918594993534,1009.9114714759999,1021.8793900709934,,,,,,,,,,,,,,,,,,,,,,,,,,,,,,,,,1,,,,,,,,,,,,,,,,,,,,,,,,,,,,,,,,,,,,,,,,,,,,,,128,150490,22,Female,1,2024/03/27_08:53:30,SD,50.251550720340305,
,,,,,,test,1,1,1,1068,1,N,0,right,0.4860329150033067,1,0,,,,,,,,,,,,,,,,,,,,,1,,,,,,,,,,,,,,,,,,,,,,,,,,,,,,,,,,,,,,,,,,,,,,128,150490,22,Female,1,2024/03/27_08:53:30,SD,50.251550720340305,
,,,,,,test,1,1,1,1068,2,F,0,right,0.457277889996476,1,0,,,,,,,,,,,,,,,,,,,,,1,,,,,,,,,,,,,,,,,,,,,,,,,,,,,,,,,,,,,,,,,,,,,,128,150490,22,Female,1,2024/03/27_08:53:30,SD,50.251550720340305,
,,,,,,test,1,1,1,1068,3,Q,0,right,0.55564263999986,1,0,,,,,,,,,,,,,,,,,,,,,1,,,,,,,,,,,,,,,,,,,,,,,,,,,,,,,,,,,,,,,,,,,,,,128,150490,22,Female,1,2024/03/27_08:53:30,SD,50.251550720340305,
,,,,,,test,1,1,1,1068,4,N,0,right,0.6350001789978705,1,0,,,,,,,,,,,,,,,,,,,,,1,,,,,,,,,,,,,,,,,,,,,,,,,,,,,,,,,,,,,,,,,,,,,,128,150490,22,Female,1,2024/03/27_08:53:30,SD,50.251550720340305,
,,,,,,test,1,1,1,1068,5,N,1,left,0.5351271310064476,1,0,,,,,,,,,,,,,,,,,,,,,1,,,,,,,,,,,,,,,,,,,,,,,,,,,,,,,,,,,,,,,,,,,,,,128,150490,22,Female,1,2024/03/27_08:53:30,SD,50.251550720340305,
,,,,,,test,1,1,1,1068,6,S,0,right,0.3343298079998931,1,0,,,,,,,,,,,,,,,,,,,,,1,,,,,,,,,,,,,,,,,,,,,,,,,,,,,,,,,,,,,,,,,,,,,,128,150490,22,Female,1,2024/03/27_08:53:30,SD,50.251550720340305,
,,,,,,test,1,1,1,1068,7,Q,0,right,0.4579645729972981,1,0,,,,,,,,,,,,,,,,,,,,,1,,,,,,,,,,,,,,,,,,,,,,,,,,,,,,,,,,,,,,,,,,,,,,128,150490,22,Female,1,2024/03/27_08:53:30,SD,50.251550720340305,
,,,,,,test,1,1,1,1068,8,Q,1,left,0.5153357240051264,1,0,,,,,,,,,,,,,,,,,,,,,1,,,,,,,,,,,,,,,,,,,,,,,,,,,,,,,,,,,,,,,,,,,,,,128,150490,22,Female,1,2024/03/27_08:53:30,SD,50.251550720340305,
,,,,,,test,1,1,1,1068,9,F,0,right,0.4622617130007711,1,0,,,,,,,,,,,,,,,,,,,,,1,,,,,,,,,,,,,,,,,,,,,,,,,,,,,,,,,,,,,,,,,,,,,,128,150490,22,Female,1,2024/03/27_08:53:30,SD,50.251550720340305,
,,,,,,test,1,1,1,1068,10,S,0,right,0.5551530809971155,1,0,,,,,,,,,,,,,,,,,,,,,1,,,,,,,,,,,,,,,,,,,,,,,,,,,,,,,,,,,,,,,,,,,,,,128,150490,22,Female,1,2024/03/27_08:53:30,SD,50.251550720340305,
,,,,,,test,1,1,1,1068,11,S,1,left,0.3974169479988632,1,0,,,,,,,,,,,,,,,,,,,,,1,,,,,,,,,,,,,,,,,,,,,,,,,,,,,,,,,,,,,,,,,,,,,,128,150490,22,Female,1,2024/03/27_08:53:30,SD,50.251550720340305,
,,,,,,Test,1,1,1,1068,,,,,,,,1.0,1.0,0.0,1.0,0.0,1.0,0.49014023654572986,3,0,0,0,0,8,11,3,8,0,,,,1,,,,,,,,,,,,,,,,,,,,,,,,,,,,,,,,,,,,,,,,,,,,,,128,150490,22,Female,1,2024/03/27_08:53:30,SD,50.251550720340305,
,,,,,240327_091944,TEST,1,1,1,1068,,,,,,,,,,,,,,,,,,,,,,,,,,,,1,1,1,1,cue2.png,easy,B,45,2.1425987149996217,0,1026.945143088,1029.1172926149957,,,,,,,,,,,,,,,,,,,,,,,,,,,,,,,,,,,128,150490,22,Female,1,2024/03/27_08:53:30,SD,50.251550720340305,
,,,,,,test,1,2,3,1068,1,J,0,right,0.42104052400100045,1,0,,,,,,,,,,,,,,,,,,,,,1,,,,,,,,,,,,,,,,,,,,,,,,,,,,,,,,,,,,,,,,,,,,,,128,150490,22,Female,1,2024/03/27_08:53:30,SD,50.251550720340305,
,,,,,,test,1,2,3,1068,2,V,0,right,0.5549111139989691,1,0,,,,,,,,,,,,,,,,,,,,,1,,,,,,,,,,,,,,,,,,,,,,,,,,,,,,,,,,,,,,,,,,,,,,128,150490,22,Female,1,2024/03/27_08:53:30,SD,50.251550720340305,
,,,,,,test,1,2,3,1068,3,N,0,right,0.555272937999689,1,0,,,,,,,,,,,,,,,,,,,,,1,,,,,,,,,,,,,,,,,,,,,,,,,,,,,,,,,,,,,,,,,,,,,,128,150490,22,Female,1,2024/03/27_08:53:30,SD,50.251550720340305,
,,,,,,test,1,2,3,1068,4,Q,0,right,0.8359898819981026,1,0,,,,,,,,,,,,,,,,,,,,,1,,,,,,,,,,,,,,,,,,,,,,,,,,,,,,,,,,,,,,,,,,,,,,128,150490,22,Female,1,2024/03/27_08:53:30,SD,50.251550720340305,
,,,,,,test,1,2,3,1068,5,Q,0,right,0.427133674005745,1,0,,,,,,,,,,,,,,,,,,,,,1,,,,,,,,,,,,,,,,,,,,,,,,,,,,,,,,,,,,,,,,,,,,,,128,150490,22,Female,1,2024/03/27_08:53:30,SD,50.251550720340305,
,,,,,,test,1,2,3,1068,6,N,1,left,0.6145702599969809,1,0,,,,,,,,,,,,,,,,,,,,,1,,,,,,,,,,,,,,,,,,,,,,,,,,,,,,,,,,,,,,,,,,,,,,128,150490,22,Female,1,2024/03/27_08:53:30,SD,50.251550720340305,
,,,,,,test,1,2,3,1068,7,F,0,right,0.7767194420011947,1,0,,,,,,,,,,,,,,,,,,,,,1,,,,,,,,,,,,,,,,,,,,,,,,,,,,,,,,,,,,,,,,,,,,,,128,150490,22,Female,1,2024/03/27_08:53:30,SD,50.251550720340305,
,,,,,,test,1,2,3,1068,8,Q,1,right,0.6552414949983358,0,0,,,,,,,,,,,,,,,,,,,,,1,,,,,,,,,,,,,,,,,,,,,,,,,,,,,,,,,,,,,,,,,,,,,,128,150490,22,Female,1,2024/03/27_08:53:30,SD,50.251550720340305,
,,,,,,test,1,2,3,1068,9,N,1,left,0.515325287997257,1,0,,,,,,,,,,,,,,,,,,,,,1,,,,,,,,,,,,,,,,,,,,,,,,,,,,,,,,,,,,,,,,,,,,,,128,150490,22,Female,1,2024/03/27_08:53:30,SD,50.251550720340305,
,,,,,,test,1,2,3,1068,10,C,0,right,1.4732014480032376,1,0,,,,,,,,,,,,,,,,,,,,,1,,,,,,,,,,,,,,,,,,,,,,,,,,,,,,,,,,,,,,,,,,,,,,128,150490,22,Female,1,2024/03/27_08:53:30,SD,50.251550720340305,
,,,,,,test,1,2,3,1068,11,C,0,right,0.6768720289983321,1,0,,,,,,,,,,,,,,,,,,,,,1,,,,,,,,,,,,,,,,,,,,,,,,,,,,,,,,,,,,,,,,,,,,,,128,150490,22,Female,1,2024/03/27_08:53:30,SD,50.251550720340305,
,,,,,,Test,1,2,3,1068,,,,,,,,0.9166666666666666,0.6666666666666666,0.0,1.0,0.0,1.0,0.6823889176362585,2,0,0,0,0,8,10,3,8,0,,,,1,,,,,,,,,,,,,,,,,,,,,,,,,,,,,,,,,,,,,,,,,,,,,,128,150490,22,Female,1,2024/03/27_08:53:30,SD,50.251550720340305,
,,,,,240327_092010,TEST,1,2,3,1068,,,,,,,,,,,,,,,,,,,,,,,,,,,,1,2,2,2,cue1.png,hard,B,55,2.744934206995822,0,1049.6038448389954,1052.376785648994,,,,,,,,,,,,,,,,,,,,,,,,,,,,,,,,,,,128,150490,22,Female,1,2024/03/27_08:53:30,SD,50.251550720340305,
,,,,,,test,1,3,3,1068,1,X,0,right,0.4408515269969939,1,0,,,,,,,,,,,,,,,,,,,,,1,,,,,,,,,,,,,,,,,,,,,,,,,,,,,,,,,,,,,,,,,,,,,,128,150490,22,Female,1,2024/03/27_08:53:30,SD,50.251550720340305,
,,,,,,test,1,3,3,1068,2,F,0,right,0.32167216100060614,1,0,,,,,,,,,,,,,,,,,,,,,1,,,,,,,,,,,,,,,,,,,,,,,,,,,,,,,,,,,,,,,,,,,,,,128,150490,22,Female,1,2024/03/27_08:53:30,SD,50.251550720340305,
,,,,,,test,1,3,3,1068,3,F,0,right,0.5151138069995795,1,0,,,,,,,,,,,,,,,,,,,,,1,,,,,,,,,,,,,,,,,,,,,,,,,,,,,,,,,,,,,,,,,,,,,,128,150490,22,Female,1,2024/03/27_08:53:30,SD,50.251550720340305,
,,,,,,test,1,3,3,1068,4,Q,0,right,0.8545960649935296,1,0,,,,,,,,,,,,,,,,,,,,,1,,,,,,,,,,,,,,,,,,,,,,,,,,,,,,,,,,,,,,,,,,,,,,128,150490,22,Female,1,2024/03/27_08:53:30,SD,50.251550720340305,
,,,,,,test,1,3,3,1068,5,N,0,right,0.594718467000348,1,0,,,,,,,,,,,,,,,,,,,,,1,,,,,,,,,,,,,,,,,,,,,,,,,,,,,,,,,,,,,,,,,,,,,,128,150490,22,Female,1,2024/03/27_08:53:30,SD,50.251550720340305,
,,,,,,test,1,3,3,1068,6,F,1,right,0.5954410240010475,0,0,,,,,,,,,,,,,,,,,,,,,1,,,,,,,,,,,,,,,,,,,,,,,,,,,,,,,,,,,,,,,,,,,,,,128,150490,22,Female,1,2024/03/27_08:53:30,SD,50.251550720340305,
,,,,,,test,1,3,3,1068,7,Q,1,right,1.0363333909990615,0,0,,,,,,,,,,,,,,,,,,,,,1,,,,,,,,,,,,,,,,,,,,,,,,,,,,,,,,,,,,,,,,,,,,,,128,150490,22,Female,1,2024/03/27_08:53:30,SD,50.251550720340305,
,,,,,,test,1,3,3,1068,8,C,0,left,0.4761602899961872,0,0,,,,,,,,,,,,,,,,,,,,,1,,,,,,,,,,,,,,,,,,,,,,,,,,,,,,,,,,,,,,,,,,,,,,128,150490,22,Female,1,2024/03/27_08:53:30,SD,50.251550720340305,
,,,,,,test,1,3,3,1068,9,J,0,right,0.6156697490005172,1,0,,,,,,,,,,,,,,,,,,,,,1,,,,,,,,,,,,,,,,,,,,,,,,,,,,,,,,,,,,,,,,,,,,,,128,150490,22,Female,1,2024/03/27_08:53:30,SD,50.251550720340305,
,,,,,,test,1,3,3,1068,10,J,0,left,1.2534200099980808,0,0,,,,,,,,,,,,,,,,,,,,,1,,,,,,,,,,,,,,,,,,,,,,,,,,,,,,,,,,,,,,,,,,,,,,128,150490,22,Female,1,2024/03/27_08:53:30,SD,50.251550720340305,
,,,,,,test,1,3,3,1068,11,C,1,right,0.6571494930030894,0,0,,,,,,,,,,,,,,,,,,,,,1,,,,,,,,,,,,,,,,,,,,,,,,,,,,,,,,,,,,,,,,,,,,,,128,150490,22,Female,1,2024/03/27_08:53:30,SD,50.251550720340305,
,,,,,,Test,1,3,3,1068,,,,,,,,0.1875,0.0,0.25,0.75,0.0,0.75,0.669193271271731,0,2,0,0,0,6,6,3,8,0,,,,1,,,,,,,,,,,,,,,,,,,,,,,,,,,,,,,,,,,,,,,,,,,,,,128,150490,22,Female,1,2024/03/27_08:53:30,SD,50.251550720340305,
,,,,,240327_092035,TEST,1,3,3,1068,,,,,,,,,,,,,,,,,,,,,,,,,,,,1,3,3,3,cue1.png,hard,B,55,2.464984286998515,0,1075.0317356759988,1077.5241365459951,,,,,,,,,,,,,,,,,,,,,,,,,,,,,,,,,,,128,150490,22,Female,1,2024/03/27_08:53:30,SD,50.251550720340305,
,,,,,,test,1,4,3,1068,1,C,0,right,0.42609742900094716,1,0,,,,,,,,,,,,,,,,,,,,,1,,,,,,,,,,,,,,,,,,,,,,,,,,,,,,,,,,,,,,,,,,,,,,128,150490,22,Female,1,2024/03/27_08:53:30,SD,50.251550720340305,
,,,,,,test,1,4,3,1068,2,X,0,right,0.6758615849976195,1,0,,,,,,,,,,,,,,,,,,,,,1,,,,,,,,,,,,,,,,,,,,,,,,,,,,,,,,,,,,,,,,,,,,,,128,150490,22,Female,1,2024/03/27_08:53:30,SD,50.251550720340305,
,,,,,,test,1,4,3,1068,3,Q,0,right,0.5352768020020449,1,0,,,,,,,,,,,,,,,,,,,,,1,,,,,,,,,,,,,,,,,,,,,,,,,,,,,,,,,,,,,,,,,,,,,,128,150490,22,Female,1,2024/03/27_08:53:30,SD,50.251550720340305,
,,,,,,test,1,4,3,1068,4,Q,0,right,0.8559450439934153,1,0,,,,,,,,,,,,,,,,,,,,,1,,,,,,,,,,,,,,,,,,,,,,,,,,,,,,,,,,,,,,,,,,,,,,128,150490,22,Female,1,2024/03/27_08:53:30,SD,50.251550720340305,
,,,,,,test,1,4,3,1068,5,X,1,left,0.44241826699726516,1,0,,,,,,,,,,,,,,,,,,,,,1,,,,,,,,,,,,,,,,,,,,,,,,,,,,,,,,,,,,,,,,,,,,,,128,150490,22,Female,1,2024/03/27_08:53:30,SD,50.251550720340305,
,,,,,,test,1,4,3,1068,6,J,0,right,1.094113113002095,1,0,,,,,,,,,,,,,,,,,,,,,1,,,,,,,,,,,,,,,,,,,,,,,,,,,,,,,,,,,,,,,,,,,,,,128,150490,22,Female,1,2024/03/27_08:53:30,SD,50.251550720340305,
,,,,,,test,1,4,3,1068,7,S,0,right,0.7551398709983914,1,0,,,,,,,,,,,,,,,,,,,,,1,,,,,,,,,,,,,,,,,,,,,,,,,,,,,,,,,,,,,,,,,,,,,,128,150490,22,Female,1,2024/03/27_08:53:30,SD,50.251550720340305,
,,,,,,test,1,4,3,1068,8,X,1,left,0.3982831370012718,1,0,,,,,,,,,,,,,,,,,,,,,1,,,,,,,,,,,,,,,,,,,,,,,,,,,,,,,,,,,,,,,,,,,,,,128,150490,22,Female,1,2024/03/27_08:53:30,SD,50.251550720340305,
,,,,,,test,1,4,3,1068,9,J,1,right,0.6749766110006021,0,0,,,,,,,,,,,,,,,,,,,,,1,,,,,,,,,,,,,,,,,,,,,,,,,,,,,,,,,,,,,,,,,,,,,,128,150490,22,Female,1,2024/03/27_08:53:30,SD,50.251550720340305,
,,,,,,test,1,4,3,1068,10,Q,0,right,1.1562362389959162,1,0,,,,,,,,,,,,,,,,,,,,,1,,,,,,,,,,,,,,,,,,,,,,,,,,,,,,,,,,,,,,,,,,,,,,128,150490,22,Female,1,2024/03/27_08:53:30,SD,50.251550720340305,
,,,,,,test,1,4,3,1068,11,F,0,right,1.095701204998477,1,0,,,,,,,,,,,,,,,,,,,,,1,,,,,,,,,,,,,,,,,,,,,,,,,,,,,,,,,,,,,,,,,,,,,,128,150490,22,Female,1,2024/03/27_08:53:30,SD,50.251550720340305,
,,,,,,Test,1,4,3,1068,,,,,,,,0.9166666666666666,0.6666666666666666,0.0,1.0,0.0,1.0,0.7372772093625496,2,0,0,0,0,8,10,3,8,0,,,,1,,,,,,,,,,,,,,,,,,,,,,,,,,,,,,,,,,,,,,,,,,,,,,128,150490,22,Female,1,2024/03/27_08:53:30,SD,50.251550720340305,
,,,,,240327_092100,TEST,1,4,3,1068,,,,,,,,,,,,,,,,,,,,,,,,,,,,1,4,4,4,cue1.png,hard,B,56,2.540940287995909,0,1100.0280798809981,1102.5979373299997,,,,,,,,,,,,,,,,,,,,,,,,,,,,,,,,,,,128,150490,22,Female,1,2024/03/27_08:53:30,SD,50.251550720340305,
,,,,,,test,1,5,1,1068,1,V,0,right,1.4745339400033117,1,0,,,,,,,,,,,,,,,,,,,,,1,,,,,,,,,,,,,,,,,,,,,,,,,,,,,,,,,,,,,,,,,,,,,,128,150490,22,Female,1,2024/03/27_08:53:30,SD,50.251550720340305,
,,,,,,test,1,5,1,1068,2,V,1,right,0.4304327589998138,0,0,,,,,,,,,,,,,,,,,,,,,1,,,,,,,,,,,,,,,,,,,,,,,,,,,,,,,,,,,,,,,,,,,,,,128,150490,22,Female,1,2024/03/27_08:53:30,SD,50.251550720340305,
,,,,,,test,1,5,1,1068,3,Q,0,right,0.8536677800002508,1,0,,,,,,,,,,,,,,,,,,,,,1,,,,,,,,,,,,,,,,,,,,,,,,,,,,,,,,,,,,,,,,,,,,,,128,150490,22,Female,1,2024/03/27_08:53:30,SD,50.251550720340305,
,,,,,,test,1,5,1,1068,4,C,0,right,0.4893050009995932,1,0,,,,,,,,,,,,,,,,,,,,,1,,,,,,,,,,,,,,,,,,,,,,,,,,,,,,,,,,,,,,,,,,,,,,128,150490,22,Female,1,2024/03/27_08:53:30,SD,50.251550720340305,
,,,,,,test,1,5,1,1068,5,S,0,right,0.7154159799974877,1,0,,,,,,,,,,,,,,,,,,,,,1,,,,,,,,,,,,,,,,,,,,,,,,,,,,,,,,,,,,,,,,,,,,,,128,150490,22,Female,1,2024/03/27_08:53:30,SD,50.251550720340305,
,,,,,,test,1,5,1,1068,6,S,1,left,0.40435200000501936,1,0,,,,,,,,,,,,,,,,,,,,,1,,,,,,,,,,,,,,,,,,,,,,,,,,,,,,,,,,,,,,,,,,,,,,128,150490,22,Female,1,2024/03/27_08:53:30,SD,50.251550720340305,
,,,,,,test,1,5,1,1068,7,J,0,right,0.5567506810039049,1,0,,,,,,,,,,,,,,,,,,,,,1,,,,,,,,,,,,,,,,,,,,,,,,,,,,,,,,,,,,,,,,,,,,,,128,150490,22,Female,1,2024/03/27_08:53:30,SD,50.251550720340305,
,,,,,,test,1,5,1,1068,8,V,0,right,0.45224953399883816,1,0,,,,,,,,,,,,,,,,,,,,,1,,,,,,,,,,,,,,,,,,,,,,,,,,,,,,,,,,,,,,,,,,,,,,128,150490,22,Female,1,2024/03/27_08:53:30,SD,50.251550720340305,
,,,,,,test,1,5,1,1068,9,N,0,right,0.6150102720057475,1,0,,,,,,,,,,,,,,,,,,,,,1,,,,,,,,,,,,,,,,,,,,,,,,,,,,,,,,,,,,,,,,,,,,,,128,150490,22,Female,1,2024/03/27_08:53:30,SD,50.251550720340305,
,,,,,,test,1,5,1,1068,10,N,1,left,0.36123030499584274,1,0,,,,,,,,,,,,,,,,,,,,,1,,,,,,,,,,,,,,,,,,,,,,,,,,,,,,,,,,,,,,,,,,,,,,128,150490,22,Female,1,2024/03/27_08:53:30,SD,50.251550720340305,
,,,,,,test,1,5,1,1068,11,V,0,right,0.5351237520007999,1,0,,,,,,,,,,,,,,,,,,,,,1,,,,,,,,,,,,,,,,,,,,,,,,,,,,,,,,,,,,,,,,,,,,,,128,150490,22,Female,1,2024/03/27_08:53:30,SD,50.251550720340305,
,,,,,,Test,1,5,1,1068,,,,,,,,0.9166666666666666,0.6666666666666666,0.0,1.0,0.0,1.0,0.6261883640009646,2,0,0,0,0,8,10,3,8,0,,,,1,,,,,,,,,,,,,,,,,,,,,,,,,,,,,,,,,,,,,,,,,,,,,,128,150490,22,Female,1,2024/03/27_08:53:30,SD,50.251550720340305,
