Instruction,Stimulus,Key,RT,START,END,Phase,Block,TrialN,NbackLevel,ISI,LetterN,Letter,Letter_isSame,Letter_Resp,Letter_RT,Letter_Accuracy,Letter_Timeout,Trial_A_measure,Trial_HR,Trial_FAR,Trial_CDR,Trial_MSR,Trial_ACC,Trial_RT,Trial_HitsCount,Trial_FAsCount,Trial_SameNoRespCount,Trial_DiffNoRespCount,Trial_NoRespCount,Trial_CDsCount,Trial_CorrectRespCount,Trial_SameLetterCount,Trial_DiffLetterCount,Trial_InvalidLetterCount,TrialCountCali,CaliEnd_A_measure,ISI_calibrated,Run,TrialIndex,TrialNumber_total,TrialNumber_valid,CueLearning,TrialDemandLearning,CueMapping,OnlineRating,OnlineRatingRT,OnlineRatingTimeOut,CueSTART,RatingSTART,OfflineRatingTimePoint,OfflineRatingQuesIndex,CueFigure,TrialDemand,OfflineRating,OfflineRatingRT,CueStart,OfflineRatingStart,PhaseType,CueLeft,CueDemandLeft,CueRight,CueDemandRight,Choice,ChoiceDemand,TaskDemand,ChoiceRT,ChoiceTimeOut,ChoiceSTART,CueCheck,CueDemandCheck,CorrectAnswer,Answer,AnswerDemand,AnswerRT,AnswerACC,AnswerTimeOut,CheckSTART,DemandRatingQuesIndex,QuesTLX,DemandLevel,DemandRating,DemandRatingRT,QuesStart,PID,SONA,Age,Gender,Run,TIME,EXPERIMENTER,frameRate,
-1,./instructions/inst_begin/Slide2.png,left,15.768720993000898,0.3635283920011716,16.13224938500207,,,,,,,,,,,,,,,,,,,,,,,,,,,,,,,,,1,,,,,,,,,,,,,,,,,,,,,,,,,,,,,,,,,,,,,,,,,,,,,,51,156736,19,Female,1,2024/02/13_10:38:43,YZ,59.82189919766369,
0,./instructions/inst_begin/Slide4.png,right,0.35412774300493766,16.169397543999366,16.523525287004304,,,,,,,,,,,,,,,,,,,,,,,,,,,,,,,,,1,,,,,,,,,,,,,,,,,,,,,,,,,,,,,,,,,,,,,,,,,,,,,,51,156736,19,Female,1,2024/02/13_10:38:43,YZ,59.82189919766369,
1,./instructions/inst_begin/Slide2.png,right,6.023351936004474,16.56443049799418,22.587782433998655,,,,,,,,,,,,,,,,,,,,,,,,,,,,,,,,,1,,,,,,,,,,,,,,,,,,,,,,,,,,,,,,,,,,,,,,,,,,,,,,51,156736,19,Female,1,2024/02/13_10:38:43,YZ,59.82189919766369,
2,./instructions/inst_begin/Slide3.png,right,6.580109959002584,22.68761122500291,29.267721184005495,,,,,,,,,,,,,,,,,,,,,,,,,,,,,,,,,1,,,,,,,,,,,,,,,,,,,,,,,,,,,,,,,,,,,,,,,,,,,,,,51,156736,19,Female,1,2024/02/13_10:38:43,YZ,59.82189919766369,
3,./instructions/inst_begin/Slide4.png,right,8.8312383859884,29.30847739400633,38.13971577999473,,,,,,,,,,,,,,,,,,,,,,,,,,,,,,,,,1,,,,,,,,,,,,,,,,,,,,,,,,,,,,,,,,,,,,,,,,,,,,,,51,156736,19,Female,1,2024/02/13_10:38:43,YZ,59.82189919766369,
1,./instructions/inst_prac_2/Slide6.png,right,9.98772572899179,38.223983741001575,48.211709469993366,,,,,,,,,,,,,,,,,,,,,,,,,,,,,,,,,1,,,,,,,,,,,,,,,,,,,,,,,,,,,,,,,,,,,,,,,,,,,,,,51,156736,19,Female,1,2024/02/13_10:38:43,YZ,59.82189919766369,
2,./instructions/inst_prac_2/Slide7.png,right,9.250157008005772,48.289528895998956,57.53968590400473,,,,,,,,,,,,,,,,,,,,,,,,,,,,,,,,,1,,,,,,,,,,,,,,,,,,,,,,,,,,,,,,,,,,,,,,,,,,,,,,51,156736,19,Female,1,2024/02/13_10:38:43,YZ,59.82189919766369,
3,./instructions/inst_prac_2/Slide8.png,right,7.637561480994918,57.646186365003814,65.28374784599873,,,,,,,,,,,,,,,,,,,,,,,,,,,,,,,,,1,,,,,,,,,,,,,,,,,,,,,,,,,,,,,,,,,,,,,,,,,,,,,,51,156736,19,Female,1,2024/02/13_10:38:43,YZ,59.82189919766369,
4,./instructions/inst_prac_2/Slide9.png,right,5.121584995999001,65.35411404899787,70.47569904499687,,,,,,,,,,,,,,,,,,,,,,,,,,,,,,,,,1,,,,,,,,,,,,,,,,,,,,,,,,,,,,,,,,,,,,,,,,,,,,,,51,156736,19,Female,1,2024/02/13_10:38:43,YZ,59.82189919766369,
5,./instructions/inst_prac_2/Slide10.png,right,2.4408803160040407,70.53087301499909,72.97175333100313,,,,,,,,,,,,,,,,,,,,,,,,,,,,,,,,,1,,,,,,,,,,,,,,,,,,,,,,,,,,,,,,,,,,,,,,,,,,,,,,51,156736,19,Female,1,2024/02/13_10:38:43,YZ,59.82189919766369,
6,./instructions/inst_prac_2/Slide11.png,right,1.5003197690093657,73.03124609499355,74.53156586400291,,,,,,,,,,,,,,,,,,,,,,,,,,,,,,,,,1,,,,,,,,,,,,,,,,,,,,,,,,,,,,,,,,,,,,,,,,,,,,,,51,156736,19,Female,1,2024/02/13_10:38:43,YZ,59.82189919766369,
7,./instructions/inst_prac_2/Slide12.png,right,1.4212096160044894,74.59843011999328,76.01963973599777,,,,,,,,,,,,,,,,,,,,,,,,,,,,,,,,,1,,,,,,,,,,,,,,,,,,,,,,,,,,,,,,,,,,,,,,,,,,,,,,51,156736,19,Female,1,2024/02/13_10:38:43,YZ,59.82189919766369,
8,./instructions/inst_prac_2/Slide13.png,right,0.7747574030072428,76.07674920199497,76.85150660500221,,,,,,,,,,,,,,,,,,,,,,,,,,,,,,,,,1,,,,,,,,,,,,,,,,,,,,,,,,,,,,,,,,,,,,,,,,,,,,,,51,156736,19,Female,1,2024/02/13_10:38:43,YZ,59.82189919766369,
9,./instructions/inst_prac_2/Slide14.png,right,14.236826327993185,76.91078023800219,91.14760656599537,,,,,,,,,,,,,,,,,,,,,,,,,,,,,,,,,1,,,,,,,,,,,,,,,,,,,,,,,,,,,,,,,,,,,,,,,,,,,,,,51,156736,19,Female,1,2024/02/13_10:38:43,YZ,59.82189919766369,
10,./instructions/inst_prac_2/Slide15.png,right,14.909985752005014,91.22181436499523,106.13180011700024,,,,,,,,,,,,,,,,,,,,,,,,,,,,,,,,,1,,,,,,,,,,,,,,,,,,,,,,,,,,,,,,,,,,,,,,,,,,,,,,51,156736,19,Female,1,2024/02/13_10:38:43,YZ,59.82189919766369,
,,,,,,practice,0,2,2,2583,1,F,0,left,7.50747622900235,0,0,,,,,,,,,,,,,,,,,,,,,1,,,,,,,,,,,,,,,,,,,,,,,,,,,,,,,,,,,,,,,,,,,,,,51,156736,19,Female,1,2024/02/13_10:38:43,YZ,59.82189919766369,
,,,,,,practice,0,2,2,2583,2,N,0,right,2.3932592240016675,1,0,,,,,,,,,,,,,,,,,,,,,1,,,,,,,,,,,,,,,,,,,,,,,,,,,,,,,,,,,,,,,,,,,,,,51,156736,19,Female,1,2024/02/13_10:38:43,YZ,59.82189919766369,
,,,,,,practice,0,2,2,2583,3,J,0,right,0.7281279059970984,1,0,,,,,,,,,,,,,,,,,,,,,1,,,,,,,,,,,,,,,,,,,,,,,,,,,,,,,,,,,,,,,,,,,,,,51,156736,19,Female,1,2024/02/13_10:38:43,YZ,59.82189919766369,
,,,,,,practice,0,2,2,2583,4,S,0,right,0.6054146520036738,1,0,,,,,,,,,,,,,,,,,,,,,1,,,,,,,,,,,,,,,,,,,,,,,,,,,,,,,,,,,,,,,,,,,,,,51,156736,19,Female,1,2024/02/13_10:38:43,YZ,59.82189919766369,
,,,,,,practice,0,2,2,2583,5,J,1,left,0.6126781470084097,1,0,,,,,,,,,,,,,,,,,,,,,1,,,,,,,,,,,,,,,,,,,,,,,,,,,,,,,,,,,,,,,,,,,,,,51,156736,19,Female,1,2024/02/13_10:38:43,YZ,59.82189919766369,
,,,,,,practice,0,2,2,2583,6,S,1,left,0.5175754850060912,1,0,,,,,,,,,,,,,,,,,,,,,1,,,,,,,,,,,,,,,,,,,,,,,,,,,,,,,,,,,,,,,,,,,,,,51,156736,19,Female,1,2024/02/13_10:38:43,YZ,59.82189919766369,
,,,,,,practice,0,2,2,2583,,,,,,,,0.9375,1.0,0.25,0.75,0.0,0.75,2.0607552738365484,2,1,0,0,0,3,5,2,4,0,,,,1,,,,,,,,,,,,,,,,,,,,,,,,,,,,,,,,,,,,,,,,,,,,,,51,156736,19,Female,1,2024/02/13_10:38:43,YZ,59.82189919766369,
1,./instructions/inst_to_cali/Slide20.png,right,4.285403414993198,125.47032204100105,129.75572545599425,,,,,,,,,,,,,,,,,,,,,,,,,,,,,,,,,1,,,,,,,,,,,,,,,,,,,,,,,,,,,,,,,,,,,,,,,,,,,,,,51,156736,19,Female,1,2024/02/13_10:38:43,YZ,59.82189919766369,
1,./instructions/inst_cali/Slide22.png,right,14.86726032900333,129.86427676099993,144.73153709000326,,,,,,,,,,,,,,,,,,,,,,,,,,,,,,,,,1,,,,,,,,,,,,,,,,,,,,,,,,,,,,,,,,,,,,,,,,,,,,,,51,156736,19,Female,1,2024/02/13_10:38:43,YZ,59.82189919766369,
,,,,,,calibration,0,16,2,583,1,S,0,left,0.5776887920073932,0,0,,,,,,,,,,,,,,,,,,,,,1,,,,,,,,,,,,,,,,,,,,,,,,,,,,,,,,,,,,,,,,,,,,,,51,156736,19,Female,1,2024/02/13_10:38:43,YZ,59.82189919766369,
,,,,,,calibration,0,16,2,583,2,N,0,left,0.5807054210017668,0,0,,,,,,,,,,,,,,,,,,,,,1,,,,,,,,,,,,,,,,,,,,,,,,,,,,,,,,,,,,,,,,,,,,,,51,156736,19,Female,1,2024/02/13_10:38:43,YZ,59.82189919766369,
,,,,,,calibration,0,16,2,583,3,C,0,right,1.236015699993004,1,0,,,,,,,,,,,,,,,,,,,,,1,,,,,,,,,,,,,,,,,,,,,,,,,,,,,,,,,,,,,,,,,,,,,,51,156736,19,Female,1,2024/02/13_10:38:43,YZ,59.82189919766369,
,,,,,,calibration,0,16,2,583,4,N,1,left,1.0766857050039107,1,0,,,,,,,,,,,,,,,,,,,,,1,,,,,,,,,,,,,,,,,,,,,,,,,,,,,,,,,,,,,,,,,,,,,,51,156736,19,Female,1,2024/02/13_10:38:43,YZ,59.82189919766369,
,,,,,,calibration,0,16,2,583,5,V,0,right,1.3228755030140746,1,0,,,,,,,,,,,,,,,,,,,,,1,,,,,,,,,,,,,,,,,,,,,,,,,,,,,,,,,,,,,,,,,,,,,,51,156736,19,Female,1,2024/02/13_10:38:43,YZ,59.82189919766369,
,,,,,,calibration,0,16,2,583,6,X,0,right,0.575228622998111,1,0,,,,,,,,,,,,,,,,,,,,,1,,,,,,,,,,,,,,,,,,,,,,,,,,,,,,,,,,,,,,,,,,,,,,51,156736,19,Female,1,2024/02/13_10:38:43,YZ,59.82189919766369,
,,,,,,calibration,0,16,2,583,7,C,0,right,0.5736824799969327,1,0,,,,,,,,,,,,,,,,,,,,,1,,,,,,,,,,,,,,,,,,,,,,,,,,,,,,,,,,,,,,,,,,,,,,51,156736,19,Female,1,2024/02/13_10:38:43,YZ,59.82189919766369,
,,,,,,calibration,0,16,2,583,8,S,0,right,0.6210543460038025,1,0,,,,,,,,,,,,,,,,,,,,,1,,,,,,,,,,,,,,,,,,,,,,,,,,,,,,,,,,,,,,,,,,,,,,51,156736,19,Female,1,2024/02/13_10:38:43,YZ,59.82189919766369,
,,,,,,calibration,0,16,2,583,9,Q,0,right,0.5743398390040966,1,0,,,,,,,,,,,,,,,,,,,,,1,,,,,,,,,,,,,,,,,,,,,,,,,,,,,,,,,,,,,,,,,,,,,,51,156736,19,Female,1,2024/02/13_10:38:43,YZ,59.82189919766369,
,,,,,,calibration,0,16,2,583,10,S,1,left,0.5958431600010954,1,0,,,,,,,,,,,,,,,,,,,,,1,,,,,,,,,,,,,,,,,,,,,,,,,,,,,,,,,,,,,,,,,,,,,,51,156736,19,Female,1,2024/02/13_10:38:43,YZ,59.82189919766369,
,,,,,,calibration,0,16,2,583,11,F,0,right,0.43384227898786776,1,0,,,,,,,,,,,,,,,,,,,,,1,,,,,,,,,,,,,,,,,,,,,,,,,,,,,,,,,,,,,,,,,,,,,,51,156736,19,Female,1,2024/02/13_10:38:43,YZ,59.82189919766369,
,,,,,,calibration,0,16,2,583,12,S,1,left,0.5454355020046933,1,0,,,,,,,,,,,,,,,,,,,,,1,,,,,,,,,,,,,,,,,,,,,,,,,,,,,,,,,,,,,,,,,,,,,,51,156736,19,Female,1,2024/02/13_10:38:43,YZ,59.82189919766369,
,,,,,,calibration,0,16,2,583,13,X,0,right,0.43984044500393793,1,0,,,,,,,,,,,,,,,,,,,,,1,,,,,,,,,,,,,,,,,,,,,,,,,,,,,,,,,,,,,,,,,,,,,,51,156736,19,Female,1,2024/02/13_10:38:43,YZ,59.82189919766369,
,,,,,,calibration,0,16,2,583,14,V,0,right,0.7605577479989734,1,0,,,,,,,,,,,,,,,,,,,,,1,,,,,,,,,,,,,,,,,,,,,,,,,,,,,,,,,,,,,,,,,,,,,,51,156736,19,Female,1,2024/02/13_10:38:43,YZ,59.82189919766369,
,,,,,,calibration,0,16,2,583,15,X,1,left,0.6265390619955724,1,0,,,,,,,,,,,,,,,,,,,,,1,,,,,,,,,,,,,,,,,,,,,,,,,,,,,,,,,,,,,,,,,,,,,,51,156736,19,Female,1,2024/02/13_10:38:43,YZ,59.82189919766369,
,,,,,,calibration,0,16,2,583,,,,,,,,0.9545454545454546,1.0,0.18181818181818182,0.8181818181818182,0.0,0.8181818181818181,0.7026889736676821,4,2,0,0,0,9,13,4,11,0,,,,1,,,,,,,,,,,,,,,,,,,,,,,,,,,,,,,,,,,,,,,,,,,,,,51,156736,19,Female,1,2024/02/13_10:38:43,YZ,59.82189919766369,
,,,,,,Calibration,0,,2,583,,,,,,,,,,,,,,,,,,,,,,,,,1,,,1,,,,,,,,,,,,,,,,,,,,,,,,,,,,,,,,,,,,,,,,,,,,,,51,156736,19,Female,1,2024/02/13_10:38:43,YZ,59.82189919766369,
,,,,,,calibration,0,30,2,500,1,N,0,None,nan,0,1,,,,,,,,,,,,,,,,,,,,,1,,,,,,,,,,,,,,,,,,,,,,,,,,,,,,,,,,,,,,,,,,,,,,51,156736,19,Female,1,2024/02/13_10:38:43,YZ,59.82189919766369,
,,,,,,calibration,0,30,2,500,2,S,0,right,0.5136627350002527,1,0,,,,,,,,,,,,,,,,,,,,,1,,,,,,,,,,,,,,,,,,,,,,,,,,,,,,,,,,,,,,,,,,,,,,51,156736,19,Female,1,2024/02/13_10:38:43,YZ,59.82189919766369,
,,,,,,calibration,0,30,2,500,3,Q,0,left,0.5423491919937078,0,0,,,,,,,,,,,,,,,,,,,,,1,,,,,,,,,,,,,,,,,,,,,,,,,,,,,,,,,,,,,,,,,,,,,,51,156736,19,Female,1,2024/02/13_10:38:43,YZ,59.82189919766369,
,,,,,,calibration,0,30,2,500,4,S,1,left,0.578575463994639,1,0,,,,,,,,,,,,,,,,,,,,,1,,,,,,,,,,,,,,,,,,,,,,,,,,,,,,,,,,,,,,,,,,,,,,51,156736,19,Female,1,2024/02/13_10:38:43,YZ,59.82189919766369,
,,,,,,calibration,0,30,2,500,5,X,0,right,0.6077035399939632,1,0,,,,,,,,,,,,,,,,,,,,,1,,,,,,,,,,,,,,,,,,,,,,,,,,,,,,,,,,,,,,,,,,,,,,51,156736,19,Female,1,2024/02/13_10:38:43,YZ,59.82189919766369,
,,,,,,calibration,0,30,2,500,6,N,0,right,0.8841362340026535,1,0,,,,,,,,,,,,,,,,,,,,,1,,,,,,,,,,,,,,,,,,,,,,,,,,,,,,,,,,,,,,,,,,,,,,51,156736,19,Female,1,2024/02/13_10:38:43,YZ,59.82189919766369,
,,,,,,calibration,0,30,2,500,7,V,0,right,0.6631121800019173,1,0,,,,,,,,,,,,,,,,,,,,,1,,,,,,,,,,,,,,,,,,,,,,,,,,,,,,,,,,,,,,,,,,,,,,51,156736,19,Female,1,2024/02/13_10:38:43,YZ,59.82189919766369,
,,,,,,calibration,0,30,2,500,8,N,1,left,0.5344546620035544,1,0,,,,,,,,,,,,,,,,,,,,,1,,,,,,,,,,,,,,,,,,,,,,,,,,,,,,,,,,,,,,,,,,,,,,51,156736,19,Female,1,2024/02/13_10:38:43,YZ,59.82189919766369,
,,,,,,calibration,0,30,2,500,9,C,0,right,0.5972891590063227,1,0,,,,,,,,,,,,,,,,,,,,,1,,,,,,,,,,,,,,,,,,,,,,,,,,,,,,,,,,,,,,,,,,,,,,51,156736,19,Female,1,2024/02/13_10:38:43,YZ,59.82189919766369,
,,,,,,calibration,0,30,2,500,10,S,0,left,0.5325021180033218,0,0,,,,,,,,,,,,,,,,,,,,,1,,,,,,,,,,,,,,,,,,,,,,,,,,,,,,,,,,,,,,,,,,,,,,51,156736,19,Female,1,2024/02/13_10:38:43,YZ,59.82189919766369,
,,,,,,calibration,0,30,2,500,11,F,0,right,0.4413252509984886,1,0,,,,,,,,,,,,,,,,,,,,,1,,,,,,,,,,,,,,,,,,,,,,,,,,,,,,,,,,,,,,,,,,,,,,51,156736,19,Female,1,2024/02/13_10:38:43,YZ,59.82189919766369,
,,,,,,calibration,0,30,2,500,12,Q,0,right,0.354174967011204,1,0,,,,,,,,,,,,,,,,,,,,,1,,,,,,,,,,,,,,,,,,,,,,,,,,,,,,,,,,,,,,,,,,,,,,51,156736,19,Female,1,2024/02/13_10:38:43,YZ,59.82189919766369,
,,,,,,calibration,0,30,2,500,13,F,1,right,0.43830962100764737,0,0,,,,,,,,,,,,,,,,,,,,,1,,,,,,,,,,,,,,,,,,,,,,,,,,,,,,,,,,,,,,,,,,,,,,51,156736,19,Female,1,2024/02/13_10:38:43,YZ,59.82189919766369,
,,,,,,calibration,0,30,2,500,14,Q,1,left,0.5767886690009618,1,0,,,,,,,,,,,,,,,,,,,,,1,,,,,,,,,,,,,,,,,,,,,,,,,,,,,,,,,,,,,,,,,,,,,,51,156736,19,Female,1,2024/02/13_10:38:43,YZ,59.82189919766369,
,,,,,,calibration,0,30,2,500,15,V,0,left,0.6480801519937813,0,0,,,,,,,,,,,,,,,,,,,,,1,,,,,,,,,,,,,,,,,,,,,,,,,,,,,,,,,,,,,,,,,,,,,,51,156736,19,Female,1,2024/02/13_10:38:43,YZ,59.82189919766369,
,,,,,,calibration,0,30,2,500,16,F,0,right,0.7139604469994083,1,0,,,,,,,,,,,,,,,,,,,,,1,,,,,,,,,,,,,,,,,,,,,,,,,,,,,,,,,,,,,,,,,,,,,,51,156736,19,Female,1,2024/02/13_10:38:43,YZ,59.82189919766369,
,,,,,,calibration,0,30,2,500,,,,,,,,0.8125,0.75,0.25,0.7272727272727273,0.0625,0.6875,0.5750949594007883,3,3,0,1,1,8,11,4,12,0,,,,1,,,,,,,,,,,,,,,,,,,,,,,,,,,,,,,,,,,,,,,,,,,,,,51,156736,19,Female,1,2024/02/13_10:38:43,YZ,59.82189919766369,
,,,,,,Calibration,0,,2,500,,,,,,,,,,,,,,,,,,,,,,,,,2,,,1,,,,,,,,,,,,,,,,,,,,,,,,,,,,,,,,,,,,,,,,,,,,,,51,156736,19,Female,1,2024/02/13_10:38:43,YZ,59.82189919766369,
,,,,,,calibration,0,2,2,500,1,N,0,right,0.8294238820089959,1,0,,,,,,,,,,,,,,,,,,,,,1,,,,,,,,,,,,,,,,,,,,,,,,,,,,,,,,,,,,,,,,,,,,,,51,156736,19,Female,1,2024/02/13_10:38:43,YZ,59.82189919766369,
,,,,,,calibration,0,2,2,500,2,V,0,right,0.406599121997715,1,0,,,,,,,,,,,,,,,,,,,,,1,,,,,,,,,,,,,,,,,,,,,,,,,,,,,,,,,,,,,,,,,,,,,,51,156736,19,Female,1,2024/02/13_10:38:43,YZ,59.82189919766369,
,,,,,,calibration,0,2,2,500,3,S,0,right,0.745337248998112,1,0,,,,,,,,,,,,,,,,,,,,,1,,,,,,,,,,,,,,,,,,,,,,,,,,,,,,,,,,,,,,,,,,,,,,51,156736,19,Female,1,2024/02/13_10:38:43,YZ,59.82189919766369,
,,,,,,calibration,0,2,2,500,4,F,0,right,0.6789846839965321,1,0,,,,,,,,,,,,,,,,,,,,,1,,,,,,,,,,,,,,,,,,,,,,,,,,,,,,,,,,,,,,,,,,,,,,51,156736,19,Female,1,2024/02/13_10:38:43,YZ,59.82189919766369,
,,,,,,calibration,0,2,2,500,5,X,0,right,0.6118731809983728,1,0,,,,,,,,,,,,,,,,,,,,,1,,,,,,,,,,,,,,,,,,,,,,,,,,,,,,,,,,,,,,,,,,,,,,51,156736,19,Female,1,2024/02/13_10:38:43,YZ,59.82189919766369,
,,,,,,calibration,0,2,2,500,6,F,1,right,0.7309085169981699,0,0,,,,,,,,,,,,,,,,,,,,,1,,,,,,,,,,,,,,,,,,,,,,,,,,,,,,,,,,,,,,,,,,,,,,51,156736,19,Female,1,2024/02/13_10:38:43,YZ,59.82189919766369,
,,,,,,calibration,0,2,2,500,7,X,1,left,0.514003964010044,1,0,,,,,,,,,,,,,,,,,,,,,1,,,,,,,,,,,,,,,,,,,,,,,,,,,,,,,,,,,,,,,,,,,,,,51,156736,19,Female,1,2024/02/13_10:38:43,YZ,59.82189919766369,
,,,,,,calibration,0,2,2,500,8,N,0,right,0.5922716200002469,1,0,,,,,,,,,,,,,,,,,,,,,1,,,,,,,,,,,,,,,,,,,,,,,,,,,,,,,,,,,,,,,,,,,,,,51,156736,19,Female,1,2024/02/13_10:38:43,YZ,59.82189919766369,
,,,,,,calibration,0,2,2,500,9,X,1,left,0.5138206789997639,1,0,,,,,,,,,,,,,,,,,,,,,1,,,,,,,,,,,,,,,,,,,,,,,,,,,,,,,,,,,,,,,,,,,,,,51,156736,19,Female,1,2024/02/13_10:38:43,YZ,59.82189919766369,
,,,,,,calibration,0,2,2,500,10,V,0,left,0.48469308999483474,0,0,,,,,,,,,,,,,,,,,,,,,1,,,,,,,,,,,,,,,,,,,,,,,,,,,,,,,,,,,,,,,,,,,,,,51,156736,19,Female,1,2024/02/13_10:38:43,YZ,59.82189919766369,
,,,,,,calibration,0,2,2,500,11,J,0,right,0.47775863998685963,1,0,,,,,,,,,,,,,,,,,,,,,1,,,,,,,,,,,,,,,,,,,,,,,,,,,,,,,,,,,,,,,,,,,,,,51,156736,19,Female,1,2024/02/13_10:38:43,YZ,59.82189919766369,
,,,,,,calibration,0,2,2,500,12,F,0,right,0.5931449509953381,1,0,,,,,,,,,,,,,,,,,,,,,1,,,,,,,,,,,,,,,,,,,,,,,,,,,,,,,,,,,,,,,,,,,,,,51,156736,19,Female,1,2024/02/13_10:38:43,YZ,59.82189919766369,
,,,,,,calibration,0,2,2,500,13,S,0,right,0.5789453199977288,1,0,,,,,,,,,,,,,,,,,,,,,1,,,,,,,,,,,,,,,,,,,,,,,,,,,,,,,,,,,,,,,,,,,,,,51,156736,19,Female,1,2024/02/13_10:38:43,YZ,59.82189919766369,
,,,,,,calibration,0,2,2,500,14,F,1,right,0.647805882996181,0,0,,,,,,,,,,,,,,,,,,,,,1,,,,,,,,,,,,,,,,,,,,,,,,,,,,,,,,,,,,,,,,,,,,,,51,156736,19,Female,1,2024/02/13_10:38:43,YZ,59.82189919766369,
,,,,,,calibration,0,2,2,500,15,V,0,right,0.5134589439985575,1,0,,,,,,,,,,,,,,,,,,,,,1,,,,,,,,,,,,,,,,,,,,,,,,,,,,,,,,,,,,,,,,,,,,,,51,156736,19,Female,1,2024/02/13_10:38:43,YZ,59.82189919766369,
,,,,,,calibration,0,2,2,500,16,N,0,right,0.43604892799339723,1,0,,,,,,,,,,,,,,,,,,,,,1,,,,,,,,,,,,,,,,,,,,,,,,,,,,,,,,,,,,,,,,,,,,,,51,156736,19,Female,1,2024/02/13_10:38:43,YZ,59.82189919766369,
,,,,,,calibration,0,2,2,500,,,,,,,,0.8125,0.5,0.08333333333333333,0.9166666666666666,0.0,0.9166666666666666,0.5846924158731781,2,1,0,0,0,11,13,4,12,0,,,,1,,,,,,,,,,,,,,,,,,,,,,,,,,,,,,,,,,,,,,,,,,,,,,51,156736,19,Female,1,2024/02/13_10:38:43,YZ,59.82189919766369,
,,,,,,Calibration,0,,2,500,,,,,,,,,,,,,,,,,,,,,,,,,3,,,1,,,,,,,,,,,,,,,,,,,,,,,,,,,,,,,,,,,,,,,,,,,,,,51,156736,19,Female,1,2024/02/13_10:38:43,YZ,59.82189919766369,
,,,,,,calibration,0,36,2,500,1,N,0,left,0.8965521179925418,0,0,,,,,,,,,,,,,,,,,,,,,1,,,,,,,,,,,,,,,,,,,,,,,,,,,,,,,,,,,,,,,,,,,,,,51,156736,19,Female,1,2024/02/13_10:38:43,YZ,59.82189919766369,
,,,,,,calibration,0,36,2,500,2,V,0,left,nan,0,1,,,,,,,,,,,,,,,,,,,,,1,,,,,,,,,,,,,,,,,,,,,,,,,,,,,,,,,,,,,,,,,,,,,,51,156736,19,Female,1,2024/02/13_10:38:43,YZ,59.82189919766369,
,,,,,,calibration,0,36,2,500,3,N,1,right,0.5758636639948236,0,0,,,,,,,,,,,,,,,,,,,,,1,,,,,,,,,,,,,,,,,,,,,,,,,,,,,,,,,,,,,,,,,,,,,,51,156736,19,Female,1,2024/02/13_10:38:43,YZ,59.82189919766369,
,,,,,,calibration,0,36,2,500,4,F,0,right,0.26507681599468924,1,0,,,,,,,,,,,,,,,,,,,,,1,,,,,,,,,,,,,,,,,,,,,,,,,,,,,,,,,,,,,,,,,,,,,,51,156736,19,Female,1,2024/02/13_10:38:43,YZ,59.82189919766369,
,,,,,,calibration,0,36,2,500,5,J,0,right,0.43686892300320324,1,0,,,,,,,,,,,,,,,,,,,,,1,,,,,,,,,,,,,,,,,,,,,,,,,,,,,,,,,,,,,,,,,,,,,,51,156736,19,Female,1,2024/02/13_10:38:43,YZ,59.82189919766369,
,,,,,,calibration,0,36,2,500,6,F,1,right,0.3087027669971576,0,0,,,,,,,,,,,,,,,,,,,,,1,,,,,,,,,,,,,,,,,,,,,,,,,,,,,,,,,,,,,,,,,,,,,,51,156736,19,Female,1,2024/02/13_10:38:43,YZ,59.82189919766369,
,,,,,,calibration,0,36,2,500,7,J,1,right,0.36615083800279535,0,0,,,,,,,,,,,,,,,,,,,,,1,,,,,,,,,,,,,,,,,,,,,,,,,,,,,,,,,,,,,,,,,,,,,,51,156736,19,Female,1,2024/02/13_10:38:43,YZ,59.82189919766369,
,,,,,,calibration,0,36,2,500,8,N,0,right,0.36426783399656415,1,0,,,,,,,,,,,,,,,,,,,,,1,,,,,,,,,,,,,,,,,,,,,,,,,,,,,,,,,,,,,,,,,,,,,,51,156736,19,Female,1,2024/02/13_10:38:43,YZ,59.82189919766369,
,,,,,,calibration,0,36,2,500,9,J,1,left,0.5138813619996654,1,0,,,,,,,,,,,,,,,,,,,,,1,,,,,,,,,,,,,,,,,,,,,,,,,,,,,,,,,,,,,,,,,,,,,,51,156736,19,Female,1,2024/02/13_10:38:43,YZ,59.82189919766369,
,,,,,,calibration,0,36,2,500,10,F,0,right,0.5254796350054676,1,0,,,,,,,,,,,,,,,,,,,,,1,,,,,,,,,,,,,,,,,,,,,,,,,,,,,,,,,,,,,,,,,,,,,,51,156736,19,Female,1,2024/02/13_10:38:43,YZ,59.82189919766369,
,,,,,,calibration,0,36,2,500,11,Q,0,right,0.5389497249998385,1,0,,,,,,,,,,,,,,,,,,,,,1,,,,,,,,,,,,,,,,,,,,,,,,,,,,,,,,,,,,,,,,,,,,,,51,156736,19,Female,1,2024/02/13_10:38:43,YZ,59.82189919766369,
,,,,,,calibration,0,36,2,500,12,X,0,right,0.8137885040050605,1,0,,,,,,,,,,,,,,,,,,,,,1,,,,,,,,,,,,,,,,,,,,,,,,,,,,,,,,,,,,,,,,,,,,,,51,156736,19,Female,1,2024/02/13_10:38:43,YZ,59.82189919766369,
,,,,,,calibration,0,36,2,500,13,J,0,right,0.35983263100206386,1,0,,,,,,,,,,,,,,,,,,,,,1,,,,,,,,,,,,,,,,,,,,,,,,,,,,,,,,,,,,,,,,,,,,,,51,156736,19,Female,1,2024/02/13_10:38:43,YZ,59.82189919766369,
,,,,,,calibration,0,36,2,500,14,F,0,right,0.4341664980020141,1,0,,,,,,,,,,,,,,,,,,,,,1,,,,,,,,,,,,,,,,,,,,,,,,,,,,,,,,,,,,,,,,,,,,,,51,156736,19,Female,1,2024/02/13_10:38:43,YZ,59.82189919766369,
,,,,,,calibration,0,36,2,500,15,S,0,right,0.5003865570033668,1,0,,,,,,,,,,,,,,,,,,,,,1,,,,,,,,,,,,,,,,,,,,,,,,,,,,,,,,,,,,,,,,,,,,,,51,156736,19,Female,1,2024/02/13_10:38:43,YZ,59.82189919766369,
,,,,,,calibration,0,36,2,500,16,X,0,right,0.38071336700522806,1,0,,,,,,,,,,,,,,,,,,,,,1,,,,,,,,,,,,,,,,,,,,,,,,,,,,,,,,,,,,,,,,,,,,,,51,156736,19,Female,1,2024/02/13_10:38:43,YZ,59.82189919766369,
,,,,,,calibration,0,36,2,500,,,,,,,,0.7083333333333333,0.25,0.08333333333333333,0.9090909090909091,0.0625,0.8541666666666666,0.48537874926696534,1,1,0,1,1,10,11,4,12,0,,,,1,,,,,,,,,,,,,,,,,,,,,,,,,,,,,,,,,,,,,,,,,,,,,,51,156736,19,Female,1,2024/02/13_10:38:43,YZ,59.82189919766369,
,,,,,,Calibration,0,,2,500,,,,,,,,,,,,,,,,,,,,,,,,,4,,,1,,,,,,,,,,,,,,,,,,,,,,,,,,,,,,,,,,,,,,,,,,,,,,51,156736,19,Female,1,2024/02/13_10:38:43,YZ,59.82189919766369,
,,,,,,calibration,0,6,2,583,1,J,0,right,0.4748773839964997,1,0,,,,,,,,,,,,,,,,,,,,,1,,,,,,,,,,,,,,,,,,,,,,,,,,,,,,,,,,,,,,,,,,,,,,51,156736,19,Female,1,2024/02/13_10:38:43,YZ,59.82189919766369,
,,,,,,calibration,0,6,2,583,2,S,0,right,0.4509130210062722,1,0,,,,,,,,,,,,,,,,,,,,,1,,,,,,,,,,,,,,,,,,,,,,,,,,,,,,,,,,,,,,,,,,,,,,51,156736,19,Female,1,2024/02/13_10:38:43,YZ,59.82189919766369,
,,,,,,calibration,0,6,2,583,3,C,0,right,0.30830421499558724,1,0,,,,,,,,,,,,,,,,,,,,,1,,,,,,,,,,,,,,,,,,,,,,,,,,,,,,,,,,,,,,,,,,,,,,51,156736,19,Female,1,2024/02/13_10:38:43,YZ,59.82189919766369,
,,,,,,calibration,0,6,2,583,4,J,0,left,0.6088327420002315,0,0,,,,,,,,,,,,,,,,,,,,,1,,,,,,,,,,,,,,,,,,,,,,,,,,,,,,,,,,,,,,,,,,,,,,51,156736,19,Female,1,2024/02/13_10:38:43,YZ,59.82189919766369,
,,,,,,calibration,0,6,2,583,5,N,0,right,0.2743887810065644,1,0,,,,,,,,,,,,,,,,,,,,,1,,,,,,,,,,,,,,,,,,,,,,,,,,,,,,,,,,,,,,,,,,,,,,51,156736,19,Female,1,2024/02/13_10:38:43,YZ,59.82189919766369,
,,,,,,calibration,0,6,2,583,6,J,1,left,0.7624038670037407,1,0,,,,,,,,,,,,,,,,,,,,,1,,,,,,,,,,,,,,,,,,,,,,,,,,,,,,,,,,,,,,,,,,,,,,51,156736,19,Female,1,2024/02/13_10:38:43,YZ,59.82189919766369,
,,,,,,calibration,0,6,2,583,7,N,1,left,0.4848482349916594,1,0,,,,,,,,,,,,,,,,,,,,,1,,,,,,,,,,,,,,,,,,,,,,,,,,,,,,,,,,,,,,,,,,,,,,51,156736,19,Female,1,2024/02/13_10:38:43,YZ,59.82189919766369,
,,,,,,calibration,0,6,2,583,8,V,0,right,0.5785571320011513,1,0,,,,,,,,,,,,,,,,,,,,,1,,,,,,,,,,,,,,,,,,,,,,,,,,,,,,,,,,,,,,,,,,,,,,51,156736,19,Female,1,2024/02/13_10:38:43,YZ,59.82189919766369,
,,,,,,calibration,0,6,2,583,9,N,1,left,0.8288223069976084,1,0,,,,,,,,,,,,,,,,,,,,,1,,,,,,,,,,,,,,,,,,,,,,,,,,,,,,,,,,,,,,,,,,,,,,51,156736,19,Female,1,2024/02/13_10:38:43,YZ,59.82189919766369,
,,,,,,calibration,0,6,2,583,10,F,0,right,0.48754953799652867,1,0,,,,,,,,,,,,,,,,,,,,,1,,,,,,,,,,,,,,,,,,,,,,,,,,,,,,,,,,,,,,,,,,,,,,51,156736,19,Female,1,2024/02/13_10:38:43,YZ,59.82189919766369,
,,,,,,calibration,0,6,2,583,11,X,0,right,0.33362924501125235,1,0,,,,,,,,,,,,,,,,,,,,,1,,,,,,,,,,,,,,,,,,,,,,,,,,,,,,,,,,,,,,,,,,,,,,51,156736,19,Female,1,2024/02/13_10:38:43,YZ,59.82189919766369,
,,,,,,calibration,0,6,2,583,12,J,0,right,0.42464928299887106,1,0,,,,,,,,,,,,,,,,,,,,,1,,,,,,,,,,,,,,,,,,,,,,,,,,,,,,,,,,,,,,,,,,,,,,51,156736,19,Female,1,2024/02/13_10:38:43,YZ,59.82189919766369,
,,,,,,calibration,0,6,2,583,13,X,1,right,0.5214251059951494,0,0,,,,,,,,,,,,,,,,,,,,,1,,,,,,,,,,,,,,,,,,,,,,,,,,,,,,,,,,,,,,,,,,,,,,51,156736,19,Female,1,2024/02/13_10:38:43,YZ,59.82189919766369,
,,,,,,calibration,0,6,2,583,14,J,1,left,0.46814991600695066,1,0,,,,,,,,,,,,,,,,,,,,,1,,,,,,,,,,,,,,,,,,,,,,,,,,,,,,,,,,,,,,,,,,,,,,51,156736,19,Female,1,2024/02/13_10:38:43,YZ,59.82189919766369,
,,,,,,calibration,0,6,2,583,15,Q,0,right,0.5581831349991262,1,0,,,,,,,,,,,,,,,,,,,,,1,,,,,,,,,,,,,,,,,,,,,,,,,,,,,,,,,,,,,,,,,,,,,,51,156736,19,Female,1,2024/02/13_10:38:43,YZ,59.82189919766369,
,,,,,,calibration,0,6,2,583,,,,,,,,0.905,0.8,0.1,0.9,0.0,0.9,0.5043689271338129,4,1,0,0,0,9,13,5,10,0,,,,1,,,,,,,,,,,,,,,,,,,,,,,,,,,,,,,,,,,,,,,,,,,,,,51,156736,19,Female,1,2024/02/13_10:38:43,YZ,59.82189919766369,
,,,,,,Calibration,0,,2,583,,,,,,,,,,,,,,,,,,,,,,,,,5,,,1,,,,,,,,,,,,,,,,,,,,,,,,,,,,,,,,,,,,,,,,,,,,,,51,156736,19,Female,1,2024/02/13_10:38:43,YZ,59.82189919766369,
,,,,,,calibration,0,7,2,500,1,N,0,None,nan,0,1,,,,,,,,,,,,,,,,,,,,,1,,,,,,,,,,,,,,,,,,,,,,,,,,,,,,,,,,,,,,,,,,,,,,51,156736,19,Female,1,2024/02/13_10:38:43,YZ,59.82189919766369,
,,,,,,calibration,0,7,2,500,2,C,0,right,0.6981830099975923,1,0,,,,,,,,,,,,,,,,,,,,,1,,,,,,,,,,,,,,,,,,,,,,,,,,,,,,,,,,,,,,,,,,,,,,51,156736,19,Female,1,2024/02/13_10:38:43,YZ,59.82189919766369,
,,,,,,calibration,0,7,2,500,3,V,0,right,0.5136934699985432,1,0,,,,,,,,,,,,,,,,,,,,,1,,,,,,,,,,,,,,,,,,,,,,,,,,,,,,,,,,,,,,,,,,,,,,51,156736,19,Female,1,2024/02/13_10:38:43,YZ,59.82189919766369,
,,,,,,calibration,0,7,2,500,4,F,0,right,0.6287222800019663,1,0,,,,,,,,,,,,,,,,,,,,,1,,,,,,,,,,,,,,,,,,,,,,,,,,,,,,,,,,,,,,,,,,,,,,51,156736,19,Female,1,2024/02/13_10:38:43,YZ,59.82189919766369,
,,,,,,calibration,0,7,2,500,5,V,1,left,0.5618577559944242,1,0,,,,,,,,,,,,,,,,,,,,,1,,,,,,,,,,,,,,,,,,,,,,,,,,,,,,,,,,,,,,,,,,,,,,51,156736,19,Female,1,2024/02/13_10:38:43,YZ,59.82189919766369,
,,,,,,calibration,0,7,2,500,6,J,0,right,0.6292928480106639,1,0,,,,,,,,,,,,,,,,,,,,,1,,,,,,,,,,,,,,,,,,,,,,,,,,,,,,,,,,,,,,,,,,,,,,51,156736,19,Female,1,2024/02/13_10:38:43,YZ,59.82189919766369,
,,,,,,calibration,0,7,2,500,7,N,0,right,0.6806340129987802,1,0,,,,,,,,,,,,,,,,,,,,,1,,,,,,,,,,,,,,,,,,,,,,,,,,,,,,,,,,,,,,,,,,,,,,51,156736,19,Female,1,2024/02/13_10:38:43,YZ,59.82189919766369,
,,,,,,calibration,0,7,2,500,8,J,1,left,0.6259667640115367,1,0,,,,,,,,,,,,,,,,,,,,,1,,,,,,,,,,,,,,,,,,,,,,,,,,,,,,,,,,,,,,,,,,,,,,51,156736,19,Female,1,2024/02/13_10:38:43,YZ,59.82189919766369,
,,,,,,calibration,0,7,2,500,9,N,1,right,0.42841534699255135,0,0,,,,,,,,,,,,,,,,,,,,,1,,,,,,,,,,,,,,,,,,,,,,,,,,,,,,,,,,,,,,,,,,,,,,51,156736,19,Female,1,2024/02/13_10:38:43,YZ,59.82189919766369,
,,,,,,calibration,0,7,2,500,10,Q,0,right,0.5377274139900692,1,0,,,,,,,,,,,,,,,,,,,,,1,,,,,,,,,,,,,,,,,,,,,,,,,,,,,,,,,,,,,,,,,,,,,,51,156736,19,Female,1,2024/02/13_10:38:43,YZ,59.82189919766369,
,,,,,,calibration,0,7,2,500,11,V,0,right,0.5264158630016027,1,0,,,,,,,,,,,,,,,,,,,,,1,,,,,,,,,,,,,,,,,,,,,,,,,,,,,,,,,,,,,,,,,,,,,,51,156736,19,Female,1,2024/02/13_10:38:43,YZ,59.82189919766369,
,,,,,,calibration,0,7,2,500,12,Q,1,left,0.4396326739952201,1,0,,,,,,,,,,,,,,,,,,,,,1,,,,,,,,,,,,,,,,,,,,,,,,,,,,,,,,,,,,,,,,,,,,,,51,156736,19,Female,1,2024/02/13_10:38:43,YZ,59.82189919766369,
,,,,,,calibration,0,7,2,500,13,N,0,right,0.4136705120035913,1,0,,,,,,,,,,,,,,,,,,,,,1,,,,,,,,,,,,,,,,,,,,,,,,,,,,,,,,,,,,,,,,,,,,,,51,156736,19,Female,1,2024/02/13_10:38:43,YZ,59.82189919766369,
,,,,,,calibration,0,7,2,500,14,Q,1,left,0.33507606100465637,1,0,,,,,,,,,,,,,,,,,,,,,1,,,,,,,,,,,,,,,,,,,,,,,,,,,,,,,,,,,,,,,,,,,,,,51,156736,19,Female,1,2024/02/13_10:38:43,YZ,59.82189919766369,
,,,,,,calibration,0,7,2,500,15,J,0,right,0.5595889000105672,1,0,,,,,,,,,,,,,,,,,,,,,1,,,,,,,,,,,,,,,,,,,,,,,,,,,,,,,,,,,,,,,,,,,,,,51,156736,19,Female,1,2024/02/13_10:38:43,YZ,59.82189919766369,
,,,,,,calibration,0,7,2,500,16,S,0,right,0.6325414169987198,1,0,,,,,,,,,,,,,,,,,,,,,1,,,,,,,,,,,,,,,,,,,,,,,,,,,,,,,,,,,,,,,,,,,,,,51,156736,19,Female,1,2024/02/13_10:38:43,YZ,59.82189919766369,
,,,,,,calibration,0,7,2,500,,,,,,,,0.95,0.8,0.0,1.0,0.0625,0.9375,0.547427888600699,4,0,0,1,1,10,14,5,11,0,,,,1,,,,,,,,,,,,,,,,,,,,,,,,,,,,,,,,,,,,,,,,,,,,,,51,156736,19,Female,1,2024/02/13_10:38:43,YZ,59.82189919766369,
,,,,,,Calibration,0,,2,500,,,,,,,,,,,,,,,,,,,,,,,,,6,,,1,,,,,,,,,,,,,,,,,,,,,,,,,,,,,,,,,,,,,,,,,,,,,,51,156736,19,Female,1,2024/02/13_10:38:43,YZ,59.82189919766369,
,,,,,,calibration,0,21,2,426,1,F,0,right,0.6484423410001909,1,0,,,,,,,,,,,,,,,,,,,,,1,,,,,,,,,,,,,,,,,,,,,,,,,,,,,,,,,,,,,,,,,,,,,,51,156736,19,Female,1,2024/02/13_10:38:43,YZ,59.82189919766369,
,,,,,,calibration,0,21,2,426,2,S,0,right,0.39235967899730895,1,0,,,,,,,,,,,,,,,,,,,,,1,,,,,,,,,,,,,,,,,,,,,,,,,,,,,,,,,,,,,,,,,,,,,,51,156736,19,Female,1,2024/02/13_10:38:43,YZ,59.82189919766369,
,,,,,,calibration,0,21,2,426,3,F,1,left,0.5607738740072818,1,0,,,,,,,,,,,,,,,,,,,,,1,,,,,,,,,,,,,,,,,,,,,,,,,,,,,,,,,,,,,,,,,,,,,,51,156736,19,Female,1,2024/02/13_10:38:43,YZ,59.82189919766369,
,,,,,,calibration,0,21,2,426,4,S,1,left,0.3744019020086853,1,0,,,,,,,,,,,,,,,,,,,,,1,,,,,,,,,,,,,,,,,,,,,,,,,,,,,,,,,,,,,,,,,,,,,,51,156736,19,Female,1,2024/02/13_10:38:43,YZ,59.82189919766369,
,,,,,,calibration,0,21,2,426,5,X,0,right,0.48140484499162994,1,0,,,,,,,,,,,,,,,,,,,,,1,,,,,,,,,,,,,,,,,,,,,,,,,,,,,,,,,,,,,,,,,,,,,,51,156736,19,Female,1,2024/02/13_10:38:43,YZ,59.82189919766369,
,,,,,,calibration,0,21,2,426,6,F,0,left,0.5653884589992231,0,0,,,,,,,,,,,,,,,,,,,,,1,,,,,,,,,,,,,,,,,,,,,,,,,,,,,,,,,,,,,,,,,,,,,,51,156736,19,Female,1,2024/02/13_10:38:43,YZ,59.82189919766369,
,,,,,,calibration,0,21,2,426,7,X,1,right,0.611888851999538,0,0,,,,,,,,,,,,,,,,,,,,,1,,,,,,,,,,,,,,,,,,,,,,,,,,,,,,,,,,,,,,,,,,,,,,51,156736,19,Female,1,2024/02/13_10:38:43,YZ,59.82189919766369,
,,,,,,calibration,0,21,2,426,8,J,0,right,0.7433899379975628,1,0,,,,,,,,,,,,,,,,,,,,,1,,,,,,,,,,,,,,,,,,,,,,,,,,,,,,,,,,,,,,,,,,,,,,51,156736,19,Female,1,2024/02/13_10:38:43,YZ,59.82189919766369,
,,,,,,calibration,0,21,2,426,9,S,0,right,0.5416219900071155,1,0,,,,,,,,,,,,,,,,,,,,,1,,,,,,,,,,,,,,,,,,,,,,,,,,,,,,,,,,,,,,,,,,,,,,51,156736,19,Female,1,2024/02/13_10:38:43,YZ,59.82189919766369,
,,,,,,calibration,0,21,2,426,10,X,0,right,0.5702743900037603,1,0,,,,,,,,,,,,,,,,,,,,,1,,,,,,,,,,,,,,,,,,,,,,,,,,,,,,,,,,,,,,,,,,,,,,51,156736,19,Female,1,2024/02/13_10:38:43,YZ,59.82189919766369,
,,,,,,calibration,0,21,2,426,11,S,1,left,0.7742005479958607,1,0,,,,,,,,,,,,,,,,,,,,,1,,,,,,,,,,,,,,,,,,,,,,,,,,,,,,,,,,,,,,,,,,,,,,51,156736,19,Female,1,2024/02/13_10:38:43,YZ,59.82189919766369,
,,,,,,calibration,0,21,2,426,12,X,1,left,0.3866395549994195,1,0,,,,,,,,,,,,,,,,,,,,,1,,,,,,,,,,,,,,,,,,,,,,,,,,,,,,,,,,,,,,,,,,,,,,51,156736,19,Female,1,2024/02/13_10:38:43,YZ,59.82189919766369,
,,,,,,calibration,0,21,2,426,13,C,0,right,0.5718698179989588,1,0,,,,,,,,,,,,,,,,,,,,,1,,,,,,,,,,,,,,,,,,,,,,,,,,,,,,,,,,,,,,,,,,,,,,51,156736,19,Female,1,2024/02/13_10:38:43,YZ,59.82189919766369,
,,,,,,calibration,0,21,2,426,14,S,0,left,0.5809811590006575,0,0,,,,,,,,,,,,,,,,,,,,,1,,,,,,,,,,,,,,,,,,,,,,,,,,,,,,,,,,,,,,,,,,,,,,51,156736,19,Female,1,2024/02/13_10:38:43,YZ,59.82189919766369,
,,,,,,calibration,0,21,2,426,15,Q,0,right,0.5608102929982124,1,0,,,,,,,,,,,,,,,,,,,,,1,,,,,,,,,,,,,,,,,,,,,,,,,,,,,,,,,,,,,,,,,,,,,,51,156736,19,Female,1,2024/02/13_10:38:43,YZ,59.82189919766369,
,,,,,,calibration,0,21,2,426,16,C,0,left,0.6140372470108559,0,0,,,,,,,,,,,,,,,,,,,,,1,,,,,,,,,,,,,,,,,,,,,,,,,,,,,,,,,,,,,,,,,,,,,,51,156736,19,Female,1,2024/02/13_10:38:43,YZ,59.82189919766369,
,,,,,,calibration,0,21,2,426,17,V,0,right,0.3429317449918017,1,0,,,,,,,,,,,,,,,,,,,,,1,,,,,,,,,,,,,,,,,,,,,,,,,,,,,,,,,,,,,,,,,,,,,,51,156736,19,Female,1,2024/02/13_10:38:43,YZ,59.82189919766369,
,,,,,,calibration,0,21,2,426,,,,,,,,0.8374999999999999,0.8,0.25,0.75,0.0,0.75,0.5483186255887096,4,3,0,0,0,9,13,5,12,0,,,,1,,,,,,,,,,,,,,,,,,,,,,,,,,,,,,,,,,,,,,,,,,,,,,51,156736,19,Female,1,2024/02/13_10:38:43,YZ,59.82189919766369,
,,,,,,Calibration,0,,2,426,,,,,,,,,,,,,,,,,,,,,,,,,7,,,1,,,,,,,,,,,,,,,,,,,,,,,,,,,,,,,,,,,,,,,,,,,,,,51,156736,19,Female,1,2024/02/13_10:38:43,YZ,59.82189919766369,
,,,,,,calibration,0,28,2,426,1,C,0,right,0.44498915399890393,1,0,,,,,,,,,,,,,,,,,,,,,1,,,,,,,,,,,,,,,,,,,,,,,,,,,,,,,,,,,,,,,,,,,,,,51,156736,19,Female,1,2024/02/13_10:38:43,YZ,59.82189919766369,
,,,,,,calibration,0,28,2,426,2,S,0,right,0.2241264449985465,1,0,,,,,,,,,,,,,,,,,,,,,1,,,,,,,,,,,,,,,,,,,,,,,,,,,,,,,,,,,,,,,,,,,,,,51,156736,19,Female,1,2024/02/13_10:38:43,YZ,59.82189919766369,
,,,,,,calibration,0,28,2,426,3,F,0,right,0.48661702500248794,1,0,,,,,,,,,,,,,,,,,,,,,1,,,,,,,,,,,,,,,,,,,,,,,,,,,,,,,,,,,,,,,,,,,,,,51,156736,19,Female,1,2024/02/13_10:38:43,YZ,59.82189919766369,
,,,,,,calibration,0,28,2,426,4,N,0,right,0.6200271559937391,1,0,,,,,,,,,,,,,,,,,,,,,1,,,,,,,,,,,,,,,,,,,,,,,,,,,,,,,,,,,,,,,,,,,,,,51,156736,19,Female,1,2024/02/13_10:38:43,YZ,59.82189919766369,
,,,,,,calibration,0,28,2,426,5,F,1,left,0.5332840140035842,1,0,,,,,,,,,,,,,,,,,,,,,1,,,,,,,,,,,,,,,,,,,,,,,,,,,,,,,,,,,,,,,,,,,,,,51,156736,19,Female,1,2024/02/13_10:38:43,YZ,59.82189919766369,
,,,,,,calibration,0,28,2,426,6,N,1,right,0.3374968949938193,0,0,,,,,,,,,,,,,,,,,,,,,1,,,,,,,,,,,,,,,,,,,,,,,,,,,,,,,,,,,,,,,,,,,,,,51,156736,19,Female,1,2024/02/13_10:38:43,YZ,59.82189919766369,
,,,,,,calibration,0,28,2,426,7,C,0,right,0.9612402110069524,1,0,,,,,,,,,,,,,,,,,,,,,1,,,,,,,,,,,,,,,,,,,,,,,,,,,,,,,,,,,,,,,,,,,,,,51,156736,19,Female,1,2024/02/13_10:38:43,YZ,59.82189919766369,
,,,,,,calibration,0,28,2,426,8,V,0,right,0.6118794259964488,1,0,,,,,,,,,,,,,,,,,,,,,1,,,,,,,,,,,,,,,,,,,,,,,,,,,,,,,,,,,,,,,,,,,,,,51,156736,19,Female,1,2024/02/13_10:38:43,YZ,59.82189919766369,
,,,,,,calibration,0,28,2,426,9,J,0,right,0.5477562620071694,1,0,,,,,,,,,,,,,,,,,,,,,1,,,,,,,,,,,,,,,,,,,,,,,,,,,,,,,,,,,,,,,,,,,,,,51,156736,19,Female,1,2024/02/13_10:38:43,YZ,59.82189919766369,
,,,,,,calibration,0,28,2,426,10,V,1,right,0.454234892007662,0,0,,,,,,,,,,,,,,,,,,,,,1,,,,,,,,,,,,,,,,,,,,,,,,,,,,,,,,,,,,,,,,,,,,,,51,156736,19,Female,1,2024/02/13_10:38:43,YZ,59.82189919766369,
,,,,,,calibration,0,28,2,426,11,S,0,right,0.7111360260023503,1,0,,,,,,,,,,,,,,,,,,,,,1,,,,,,,,,,,,,,,,,,,,,,,,,,,,,,,,,,,,,,,,,,,,,,51,156736,19,Female,1,2024/02/13_10:38:43,YZ,59.82189919766369,
,,,,,,calibration,0,28,2,426,12,X,0,right,0.27520765899680555,1,0,,,,,,,,,,,,,,,,,,,,,1,,,,,,,,,,,,,,,,,,,,,,,,,,,,,,,,,,,,,,,,,,,,,,51,156736,19,Female,1,2024/02/13_10:38:43,YZ,59.82189919766369,
,,,,,,calibration,0,28,2,426,13,F,0,right,0.4182973519928055,1,0,,,,,,,,,,,,,,,,,,,,,1,,,,,,,,,,,,,,,,,,,,,,,,,,,,,,,,,,,,,,,,,,,,,,51,156736,19,Female,1,2024/02/13_10:38:43,YZ,59.82189919766369,
,,,,,,calibration,0,28,2,426,14,X,1,left,0.513909864006564,1,0,,,,,,,,,,,,,,,,,,,,,1,,,,,,,,,,,,,,,,,,,,,,,,,,,,,,,,,,,,,,,,,,,,,,51,156736,19,Female,1,2024/02/13_10:38:43,YZ,59.82189919766369,
,,,,,,calibration,0,28,2,426,15,F,1,left,0.36854677500377875,1,0,,,,,,,,,,,,,,,,,,,,,1,,,,,,,,,,,,,,,,,,,,,,,,,,,,,,,,,,,,,,,,,,,,,,51,156736,19,Female,1,2024/02/13_10:38:43,YZ,59.82189919766369,
,,,,,,calibration,0,28,2,426,16,S,0,right,0.6123046200082172,1,0,,,,,,,,,,,,,,,,,,,,,1,,,,,,,,,,,,,,,,,,,,,,,,,,,,,,,,,,,,,,,,,,,,,,51,156736,19,Female,1,2024/02/13_10:38:43,YZ,59.82189919766369,
,,,,,,calibration,0,28,2,426,17,J,0,right,0.39866349000658374,1,0,,,,,,,,,,,,,,,,,,,,,1,,,,,,,,,,,,,,,,,,,,,,,,,,,,,,,,,,,,,,,,,,,,,,51,156736,19,Female,1,2024/02/13_10:38:43,YZ,59.82189919766369,
,,,,,,calibration,0,28,2,426,,,,,,,,0.9,0.6,0.0,1.0,0.0,1.0,0.5011598391780246,3,0,0,0,0,12,15,5,12,0,,,,1,,,,,,,,,,,,,,,,,,,,,,,,,,,,,,,,,,,,,,,,,,,,,,51,156736,19,Female,1,2024/02/13_10:38:43,YZ,59.82189919766369,
,,,,,,Calibration,0,,2,426,,,,,,,,,,,,,,,,,,,,,,,,,8,,,1,,,,,,,,,,,,,,,,,,,,,,,,,,,,,,,,,,,,,,,,,,,,,,51,156736,19,Female,1,2024/02/13_10:38:43,YZ,59.82189919766369,
,,,,,,calibration,0,34,2,361,1,F,0,None,nan,0,1,,,,,,,,,,,,,,,,,,,,,1,,,,,,,,,,,,,,,,,,,,,,,,,,,,,,,,,,,,,,,,,,,,,,51,156736,19,Female,1,2024/02/13_10:38:43,YZ,59.82189919766369,
,,,,,,calibration,0,34,2,361,2,C,0,right,0.3935871129942825,1,0,,,,,,,,,,,,,,,,,,,,,1,,,,,,,,,,,,,,,,,,,,,,,,,,,,,,,,,,,,,,,,,,,,,,51,156736,19,Female,1,2024/02/13_10:38:43,YZ,59.82189919766369,
,,,,,,calibration,0,34,2,361,3,V,0,right,0.4235798420122592,1,0,,,,,,,,,,,,,,,,,,,,,1,,,,,,,,,,,,,,,,,,,,,,,,,,,,,,,,,,,,,,,,,,,,,,51,156736,19,Female,1,2024/02/13_10:38:43,YZ,59.82189919766369,
,,,,,,calibration,0,34,2,361,4,X,0,right,0.4146901139902184,1,0,,,,,,,,,,,,,,,,,,,,,1,,,,,,,,,,,,,,,,,,,,,,,,,,,,,,,,,,,,,,,,,,,,,,51,156736,19,Female,1,2024/02/13_10:38:43,YZ,59.82189919766369,
,,,,,,calibration,0,34,2,361,5,V,1,left,0.6924021529994207,1,0,,,,,,,,,,,,,,,,,,,,,1,,,,,,,,,,,,,,,,,,,,,,,,,,,,,,,,,,,,,,,,,,,,,,51,156736,19,Female,1,2024/02/13_10:38:43,YZ,59.82189919766369,
,,,,,,calibration,0,34,2,361,6,N,0,left,0.32060979399830103,0,0,,,,,,,,,,,,,,,,,,,,,1,,,,,,,,,,,,,,,,,,,,,,,,,,,,,,,,,,,,,,,,,,,,,,51,156736,19,Female,1,2024/02/13_10:38:43,YZ,59.82189919766369,
,,,,,,calibration,0,34,2,361,7,V,1,right,0.3810247299988987,0,0,,,,,,,,,,,,,,,,,,,,,1,,,,,,,,,,,,,,,,,,,,,,,,,,,,,,,,,,,,,,,,,,,,,,51,156736,19,Female,1,2024/02/13_10:38:43,YZ,59.82189919766369,
,,,,,,calibration,0,34,2,361,8,N,1,right,0.7023446709936252,0,0,,,,,,,,,,,,,,,,,,,,,1,,,,,,,,,,,,,,,,,,,,,,,,,,,,,,,,,,,,,,,,,,,,,,51,156736,19,Female,1,2024/02/13_10:38:43,YZ,59.82189919766369,
,,,,,,calibration,0,34,2,361,9,J,0,right,0.4760875119973207,1,0,,,,,,,,,,,,,,,,,,,,,1,,,,,,,,,,,,,,,,,,,,,,,,,,,,,,,,,,,,,,,,,,,,,,51,156736,19,Female,1,2024/02/13_10:38:43,YZ,59.82189919766369,
,,,,,,calibration,0,34,2,361,10,V,0,right,0.386031161993742,1,0,,,,,,,,,,,,,,,,,,,,,1,,,,,,,,,,,,,,,,,,,,,,,,,,,,,,,,,,,,,,,,,,,,,,51,156736,19,Female,1,2024/02/13_10:38:43,YZ,59.82189919766369,
,,,,,,calibration,0,34,2,361,11,C,0,right,0.6107441029889742,1,0,,,,,,,,,,,,,,,,,,,,,1,,,,,,,,,,,,,,,,,,,,,,,,,,,,,,,,,,,,,,,,,,,,,,51,156736,19,Female,1,2024/02/13_10:38:43,YZ,59.82189919766369,
,,,,,,calibration,0,34,2,361,12,V,1,left,0.5141681940003764,1,0,,,,,,,,,,,,,,,,,,,,,1,,,,,,,,,,,,,,,,,,,,,,,,,,,,,,,,,,,,,,,,,,,,,,51,156736,19,Female,1,2024/02/13_10:38:43,YZ,59.82189919766369,
,,,,,,calibration,0,34,2,361,13,J,0,right,0.46739545100717805,1,0,,,,,,,,,,,,,,,,,,,,,1,,,,,,,,,,,,,,,,,,,,,,,,,,,,,,,,,,,,,,,,,,,,,,51,156736,19,Female,1,2024/02/13_10:38:43,YZ,59.82189919766369,
,,,,,,calibration,0,34,2,361,14,S,0,right,0.413124932005303,1,0,,,,,,,,,,,,,,,,,,,,,1,,,,,,,,,,,,,,,,,,,,,,,,,,,,,,,,,,,,,,,,,,,,,,51,156736,19,Female,1,2024/02/13_10:38:43,YZ,59.82189919766369,
,,,,,,calibration,0,34,2,361,15,J,1,right,0.44684585600043647,0,0,,,,,,,,,,,,,,,,,,,,,1,,,,,,,,,,,,,,,,,,,,,,,,,,,,,,,,,,,,,,,,,,,,,,51,156736,19,Female,1,2024/02/13_10:38:43,YZ,59.82189919766369,
,,,,,,calibration,0,34,2,361,16,V,0,right,0.3735153680026997,1,0,,,,,,,,,,,,,,,,,,,,,1,,,,,,,,,,,,,,,,,,,,,,,,,,,,,,,,,,,,,,,,,,,,,,51,156736,19,Female,1,2024/02/13_10:38:43,YZ,59.82189919766369,
,,,,,,calibration,0,34,2,361,17,F,0,right,0.3914415140025085,1,0,,,,,,,,,,,,,,,,,,,,,1,,,,,,,,,,,,,,,,,,,,,,,,,,,,,,,,,,,,,,,,,,,,,,51,156736,19,Female,1,2024/02/13_10:38:43,YZ,59.82189919766369,
,,,,,,calibration,0,34,2,361,18,S,0,right,0.6083056470088195,1,0,,,,,,,,,,,,,,,,,,,,,1,,,,,,,,,,,,,,,,,,,,,,,,,,,,,,,,,,,,,,,,,,,,,,51,156736,19,Female,1,2024/02/13_10:38:43,YZ,59.82189919766369,
,,,,,,calibration,0,34,2,361,,,,,,,,0.7826923076923077,0.4,0.07692307692307693,0.9166666666666666,0.05555555555555555,0.8675213675213675,0.47152342094084493,2,1,0,1,1,11,13,5,13,0,,,,1,,,,,,,,,,,,,,,,,,,,,,,,,,,,,,,,,,,,,,,,,,,,,,51,156736,19,Female,1,2024/02/13_10:38:43,YZ,59.82189919766369,
,,,,,,Calibration,0,,2,361,,,,,,,,,,,,,,,,,,,,,,,,,9,,,1,,,,,,,,,,,,,,,,,,,,,,,,,,,,,,,,,,,,,,,,,,,,,,51,156736,19,Female,1,2024/02/13_10:38:43,YZ,59.82189919766369,
,,,,,,calibration,0,13,2,361,1,S,0,right,0.6130617320013698,1,0,,,,,,,,,,,,,,,,,,,,,1,,,,,,,,,,,,,,,,,,,,,,,,,,,,,,,,,,,,,,,,,,,,,,51,156736,19,Female,1,2024/02/13_10:38:43,YZ,59.82189919766369,
,,,,,,calibration,0,13,2,361,2,X,0,right,0.3430690419918392,1,0,,,,,,,,,,,,,,,,,,,,,1,,,,,,,,,,,,,,,,,,,,,,,,,,,,,,,,,,,,,,,,,,,,,,51,156736,19,Female,1,2024/02/13_10:38:43,YZ,59.82189919766369,
,,,,,,calibration,0,13,2,361,3,Q,0,right,0.4263076649949653,1,0,,,,,,,,,,,,,,,,,,,,,1,,,,,,,,,,,,,,,,,,,,,,,,,,,,,,,,,,,,,,,,,,,,,,51,156736,19,Female,1,2024/02/13_10:38:43,YZ,59.82189919766369,
,,,,,,calibration,0,13,2,361,4,X,1,left,0.4593939120095456,1,0,,,,,,,,,,,,,,,,,,,,,1,,,,,,,,,,,,,,,,,,,,,,,,,,,,,,,,,,,,,,,,,,,,,,51,156736,19,Female,1,2024/02/13_10:38:43,YZ,59.82189919766369,
,,,,,,calibration,0,13,2,361,5,Q,1,left,0.3759435179963475,1,0,,,,,,,,,,,,,,,,,,,,,1,,,,,,,,,,,,,,,,,,,,,,,,,,,,,,,,,,,,,,,,,,,,,,51,156736,19,Female,1,2024/02/13_10:38:43,YZ,59.82189919766369,
,,,,,,calibration,0,13,2,361,6,V,0,right,0.4210698200040497,1,0,,,,,,,,,,,,,,,,,,,,,1,,,,,,,,,,,,,,,,,,,,,,,,,,,,,,,,,,,,,,,,,,,,,,51,156736,19,Female,1,2024/02/13_10:38:43,YZ,59.82189919766369,
,,,,,,calibration,0,13,2,361,7,F,0,right,0.6980948240088765,1,0,,,,,,,,,,,,,,,,,,,,,1,,,,,,,,,,,,,,,,,,,,,,,,,,,,,,,,,,,,,,,,,,,,,,51,156736,19,Female,1,2024/02/13_10:38:43,YZ,59.82189919766369,
,,,,,,calibration,0,13,2,361,8,C,0,right,0.38322430799598806,1,0,,,,,,,,,,,,,,,,,,,,,1,,,,,,,,,,,,,,,,,,,,,,,,,,,,,,,,,,,,,,,,,,,,,,51,156736,19,Female,1,2024/02/13_10:38:43,YZ,59.82189919766369,
,,,,,,calibration,0,13,2,361,9,J,0,right,0.34923607000382617,1,0,,,,,,,,,,,,,,,,,,,,,1,,,,,,,,,,,,,,,,,,,,,,,,,,,,,,,,,,,,,,,,,,,,,,51,156736,19,Female,1,2024/02/13_10:38:43,YZ,59.82189919766369,
,,,,,,calibration,0,13,2,361,10,C,1,left,0.42433885000355076,1,0,,,,,,,,,,,,,,,,,,,,,1,,,,,,,,,,,,,,,,,,,,,,,,,,,,,,,,,,,,,,,,,,,,,,51,156736,19,Female,1,2024/02/13_10:38:43,YZ,59.82189919766369,
,,,,,,calibration,0,13,2,361,11,J,1,right,0.25466124499507714,0,0,,,,,,,,,,,,,,,,,,,,,1,,,,,,,,,,,,,,,,,,,,,,,,,,,,,,,,,,,,,,,,,,,,,,51,156736,19,Female,1,2024/02/13_10:38:43,YZ,59.82189919766369,
,,,,,,calibration,0,13,2,361,12,N,0,right,0.653922194003826,1,0,,,,,,,,,,,,,,,,,,,,,1,,,,,,,,,,,,,,,,,,,,,,,,,,,,,,,,,,,,,,,,,,,,,,51,156736,19,Female,1,2024/02/13_10:38:43,YZ,59.82189919766369,
,,,,,,calibration,0,13,2,361,13,J,1,left,0.7746316640113946,1,0,,,,,,,,,,,,,,,,,,,,,1,,,,,,,,,,,,,,,,,,,,,,,,,,,,,,,,,,,,,,,,,,,,,,51,156736,19,Female,1,2024/02/13_10:38:43,YZ,59.82189919766369,
,,,,,,calibration,0,13,2,361,14,Q,0,left,0.447794100997271,0,0,,,,,,,,,,,,,,,,,,,,,1,,,,,,,,,,,,,,,,,,,,,,,,,,,,,,,,,,,,,,,,,,,,,,51,156736,19,Female,1,2024/02/13_10:38:43,YZ,59.82189919766369,
,,,,,,calibration,0,13,2,361,15,S,0,right,0.5861819929996273,1,0,,,,,,,,,,,,,,,,,,,,,1,,,,,,,,,,,,,,,,,,,,,,,,,,,,,,,,,,,,,,,,,,,,,,51,156736,19,Female,1,2024/02/13_10:38:43,YZ,59.82189919766369,
,,,,,,calibration,0,13,2,361,16,N,0,right,0.27455849199031945,1,0,,,,,,,,,,,,,,,,,,,,,1,,,,,,,,,,,,,,,,,,,,,,,,,,,,,,,,,,,,,,,,,,,,,,51,156736,19,Female,1,2024/02/13_10:38:43,YZ,59.82189919766369,
,,,,,,calibration,0,13,2,361,17,F,0,right,0.41035742800158914,1,0,,,,,,,,,,,,,,,,,,,,,1,,,,,,,,,,,,,,,,,,,,,,,,,,,,,,,,,,,,,,,,,,,,,,51,156736,19,Female,1,2024/02/13_10:38:43,YZ,59.82189919766369,
,,,,,,calibration,0,13,2,361,18,S,0,left,0.4571742060070392,0,0,,,,,,,,,,,,,,,,,,,,,1,,,,,,,,,,,,,,,,,,,,,,,,,,,,,,,,,,,,,,,,,,,,,,51,156736,19,Female,1,2024/02/13_10:38:43,YZ,59.82189919766369,
,,,,,,calibration,0,13,2,361,,,,,,,,0.8807692307692307,0.8,0.15384615384615385,0.8461538461538461,0.0,0.8461538461538461,0.46405672577869456,4,2,0,0,0,11,15,5,13,0,,,,1,,,,,,,,,,,,,,,,,,,,,,,,,,,,,,,,,,,,,,,,,,,,,,51,156736,19,Female,1,2024/02/13_10:38:43,YZ,59.82189919766369,
,,,,,,Calibration,0,,2,361,,,,,,,,,,,,,,,,,,,,,,,,,10,,,1,,,,,,,,,,,,,,,,,,,,,,,,,,,,,,,,,,,,,,,,,,,,,,51,156736,19,Female,1,2024/02/13_10:38:43,YZ,59.82189919766369,
,,,,,,calibration,0,1,2,303,1,N,0,right,0.3661746480065631,1,0,,,,,,,,,,,,,,,,,,,,,1,,,,,,,,,,,,,,,,,,,,,,,,,,,,,,,,,,,,,,,,,,,,,,51,156736,19,Female,1,2024/02/13_10:38:43,YZ,59.82189919766369,
,,,,,,calibration,0,1,2,303,2,X,0,right,0.24466320699139033,1,0,,,,,,,,,,,,,,,,,,,,,1,,,,,,,,,,,,,,,,,,,,,,,,,,,,,,,,,,,,,,,,,,,,,,51,156736,19,Female,1,2024/02/13_10:38:43,YZ,59.82189919766369,
,,,,,,calibration,0,1,2,303,3,F,0,right,0.3998657899937825,1,0,,,,,,,,,,,,,,,,,,,,,1,,,,,,,,,,,,,,,,,,,,,,,,,,,,,,,,,,,,,,,,,,,,,,51,156736,19,Female,1,2024/02/13_10:38:43,YZ,59.82189919766369,
,,,,,,calibration,0,1,2,303,4,X,1,left,0.7954161719972035,1,0,,,,,,,,,,,,,,,,,,,,,1,,,,,,,,,,,,,,,,,,,,,,,,,,,,,,,,,,,,,,,,,,,,,,51,156736,19,Female,1,2024/02/13_10:38:43,YZ,59.82189919766369,
,,,,,,calibration,0,1,2,303,5,N,0,left,0.4412148970004637,0,0,,,,,,,,,,,,,,,,,,,,,1,,,,,,,,,,,,,,,,,,,,,,,,,,,,,,,,,,,,,,,,,,,,,,51,156736,19,Female,1,2024/02/13_10:38:43,YZ,59.82189919766369,
,,,,,,calibration,0,1,2,303,6,X,1,left,0.6086131609918084,1,0,,,,,,,,,,,,,,,,,,,,,1,,,,,,,,,,,,,,,,,,,,,,,,,,,,,,,,,,,,,,,,,,,,,,51,156736,19,Female,1,2024/02/13_10:38:43,YZ,59.82189919766369,
,,,,,,calibration,0,1,2,303,7,Q,0,right,0.7111610289866803,1,0,,,,,,,,,,,,,,,,,,,,,1,,,,,,,,,,,,,,,,,,,,,,,,,,,,,,,,,,,,,,,,,,,,,,51,156736,19,Female,1,2024/02/13_10:38:43,YZ,59.82189919766369,
,,,,,,calibration,0,1,2,303,8,F,0,right,0.3727695949928602,1,0,,,,,,,,,,,,,,,,,,,,,1,,,,,,,,,,,,,,,,,,,,,,,,,,,,,,,,,,,,,,,,,,,,,,51,156736,19,Female,1,2024/02/13_10:38:43,YZ,59.82189919766369,
,,,,,,calibration,0,1,2,303,9,X,0,right,0.6591705270111561,1,0,,,,,,,,,,,,,,,,,,,,,1,,,,,,,,,,,,,,,,,,,,,,,,,,,,,,,,,,,,,,,,,,,,,,51,156736,19,Female,1,2024/02/13_10:38:43,YZ,59.82189919766369,
,,,,,,calibration,0,1,2,303,10,J,0,right,0.5803910039976472,1,0,,,,,,,,,,,,,,,,,,,,,1,,,,,,,,,,,,,,,,,,,,,,,,,,,,,,,,,,,,,,,,,,,,,,51,156736,19,Female,1,2024/02/13_10:38:43,YZ,59.82189919766369,
,,,,,,calibration,0,1,2,303,11,C,0,right,0.432965015002992,1,0,,,,,,,,,,,,,,,,,,,,,1,,,,,,,,,,,,,,,,,,,,,,,,,,,,,,,,,,,,,,,,,,,,,,51,156736,19,Female,1,2024/02/13_10:38:43,YZ,59.82189919766369,
,,,,,,calibration,0,1,2,303,12,X,0,left,0.5803632349998225,0,0,,,,,,,,,,,,,,,,,,,,,1,,,,,,,,,,,,,,,,,,,,,,,,,,,,,,,,,,,,,,,,,,,,,,51,156736,19,Female,1,2024/02/13_10:38:43,YZ,59.82189919766369,
,,,,,,calibration,0,1,2,303,13,S,0,right,0.8407919320015935,1,0,,,,,,,,,,,,,,,,,,,,,1,,,,,,,,,,,,,,,,,,,,,,,,,,,,,,,,,,,,,,,,,,,,,,51,156736,19,Female,1,2024/02/13_10:38:43,YZ,59.82189919766369,
,,,,,,calibration,0,1,2,303,14,X,1,right,0.34604355299961753,0,0,,,,,,,,,,,,,,,,,,,,,1,,,,,,,,,,,,,,,,,,,,,,,,,,,,,,,,,,,,,,,,,,,,,,51,156736,19,Female,1,2024/02/13_10:38:43,YZ,59.82189919766369,
,,,,,,calibration,0,1,2,303,15,N,0,right,0.7094747579976683,1,0,,,,,,,,,,,,,,,,,,,,,1,,,,,,,,,,,,,,,,,,,,,,,,,,,,,,,,,,,,,,,,,,,,,,51,156736,19,Female,1,2024/02/13_10:38:43,YZ,59.82189919766369,
,,,,,,calibration,0,1,2,303,16,X,1,right,nan,0,1,,,,,,,,,,,,,,,,,,,,,1,,,,,,,,,,,,,,,,,,,,,,,,,,,,,,,,,,,,,,,,,,,,,,51,156736,19,Female,1,2024/02/13_10:38:43,YZ,59.82189919766369,
,,,,,,calibration,0,1,2,303,17,J,0,right,0.4307208850077586,1,0,,,,,,,,,,,,,,,,,,,,,1,,,,,,,,,,,,,,,,,,,,,,,,,,,,,,,,,,,,,,,,,,,,,,51,156736,19,Female,1,2024/02/13_10:38:43,YZ,59.82189919766369,
,,,,,,calibration,0,1,2,303,18,X,1,right,0.5835315260046627,0,0,,,,,,,,,,,,,,,,,,,,,1,,,,,,,,,,,,,,,,,,,,,,,,,,,,,,,,,,,,,,,,,,,,,,51,156736,19,Female,1,2024/02/13_10:38:43,YZ,59.82189919766369,
,,,,,,calibration,0,1,2,303,19,F,0,right,0.42441932900692336,1,0,,,,,,,,,,,,,,,,,,,,,1,,,,,,,,,,,,,,,,,,,,,,,,,,,,,,,,,,,,,,,,,,,,,,51,156736,19,Female,1,2024/02/13_10:38:43,YZ,59.82189919766369,
,,,,,,calibration,0,1,2,303,,,,,,,,0.725,0.4,0.14285714285714285,0.8571428571428571,0.05263157894736842,0.8045112781954888,0.529319459055033,2,2,1,0,1,12,14,5,14,0,,,,1,,,,,,,,,,,,,,,,,,,,,,,,,,,,,,,,,,,,,,,,,,,,,,51,156736,19,Female,1,2024/02/13_10:38:43,YZ,59.82189919766369,
,,,,,,Calibration,0,,2,303,,,,,,,,,,,,,,,,,,,,,,,,,11,,,1,,,,,,,,,,,,,,,,,,,,,,,,,,,,,,,,,,,,,,,,,,,,,,51,156736,19,Female,1,2024/02/13_10:38:43,YZ,59.82189919766369,
,,,,,,calibration,0,20,2,361,1,Q,0,right,0.7602499389904551,1,0,,,,,,,,,,,,,,,,,,,,,1,,,,,,,,,,,,,,,,,,,,,,,,,,,,,,,,,,,,,,,,,,,,,,51,156736,19,Female,1,2024/02/13_10:38:43,YZ,59.82189919766369,
,,,,,,calibration,0,20,2,361,2,J,0,right,0.26539483400119934,1,0,,,,,,,,,,,,,,,,,,,,,1,,,,,,,,,,,,,,,,,,,,,,,,,,,,,,,,,,,,,,,,,,,,,,51,156736,19,Female,1,2024/02/13_10:38:43,YZ,59.82189919766369,
,,,,,,calibration,0,20,2,361,3,X,0,right,0.7846405419986695,1,0,,,,,,,,,,,,,,,,,,,,,1,,,,,,,,,,,,,,,,,,,,,,,,,,,,,,,,,,,,,,,,,,,,,,51,156736,19,Female,1,2024/02/13_10:38:43,YZ,59.82189919766369,
,,,,,,calibration,0,20,2,361,4,C,0,right,0.540330620991881,1,0,,,,,,,,,,,,,,,,,,,,,1,,,,,,,,,,,,,,,,,,,,,,,,,,,,,,,,,,,,,,,,,,,,,,51,156736,19,Female,1,2024/02/13_10:38:43,YZ,59.82189919766369,
,,,,,,calibration,0,20,2,361,5,V,0,right,0.700342609998188,1,0,,,,,,,,,,,,,,,,,,,,,1,,,,,,,,,,,,,,,,,,,,,,,,,,,,,,,,,,,,,,,,,,,,,,51,156736,19,Female,1,2024/02/13_10:38:43,YZ,59.82189919766369,
,,,,,,calibration,0,20,2,361,6,S,0,right,0.48465142799250316,1,0,,,,,,,,,,,,,,,,,,,,,1,,,,,,,,,,,,,,,,,,,,,,,,,,,,,,,,,,,,,,,,,,,,,,51,156736,19,Female,1,2024/02/13_10:38:43,YZ,59.82189919766369,
,,,,,,calibration,0,20,2,361,7,V,1,left,0.6313748130050953,1,0,,,,,,,,,,,,,,,,,,,,,1,,,,,,,,,,,,,,,,,,,,,,,,,,,,,,,,,,,,,,,,,,,,,,51,156736,19,Female,1,2024/02/13_10:38:43,YZ,59.82189919766369,
,,,,,,calibration,0,20,2,361,8,S,1,right,0.3622369109943975,0,0,,,,,,,,,,,,,,,,,,,,,1,,,,,,,,,,,,,,,,,,,,,,,,,,,,,,,,,,,,,,,,,,,,,,51,156736,19,Female,1,2024/02/13_10:38:43,YZ,59.82189919766369,
,,,,,,calibration,0,20,2,361,9,J,0,right,0.36723499299841933,1,0,,,,,,,,,,,,,,,,,,,,,1,,,,,,,,,,,,,,,,,,,,,,,,,,,,,,,,,,,,,,,,,,,,,,51,156736,19,Female,1,2024/02/13_10:38:43,YZ,59.82189919766369,
,,,,,,calibration,0,20,2,361,10,X,0,right,0.5919687809946481,1,0,,,,,,,,,,,,,,,,,,,,,1,,,,,,,,,,,,,,,,,,,,,,,,,,,,,,,,,,,,,,,,,,,,,,51,156736,19,Female,1,2024/02/13_10:38:43,YZ,59.82189919766369,
,,,,,,calibration,0,20,2,361,11,J,1,left,0.5469480570027372,1,0,,,,,,,,,,,,,,,,,,,,,1,,,,,,,,,,,,,,,,,,,,,,,,,,,,,,,,,,,,,,,,,,,,,,51,156736,19,Female,1,2024/02/13_10:38:43,YZ,59.82189919766369,
,,,,,,calibration,0,20,2,361,12,V,0,right,0.3098550279974006,1,0,,,,,,,,,,,,,,,,,,,,,1,,,,,,,,,,,,,,,,,,,,,,,,,,,,,,,,,,,,,,,,,,,,,,51,156736,19,Female,1,2024/02/13_10:38:43,YZ,59.82189919766369,
,,,,,,calibration,0,20,2,361,13,F,0,right,0.40177179999591317,1,0,,,,,,,,,,,,,,,,,,,,,1,,,,,,,,,,,,,,,,,,,,,,,,,,,,,,,,,,,,,,,,,,,,,,51,156736,19,Female,1,2024/02/13_10:38:43,YZ,59.82189919766369,
,,,,,,calibration,0,20,2,361,14,X,0,right,0.46586242799821775,1,0,,,,,,,,,,,,,,,,,,,,,1,,,,,,,,,,,,,,,,,,,,,,,,,,,,,,,,,,,,,,,,,,,,,,51,156736,19,Female,1,2024/02/13_10:38:43,YZ,59.82189919766369,
,,,,,,calibration,0,20,2,361,15,F,1,right,0.5187833289965056,0,0,,,,,,,,,,,,,,,,,,,,,1,,,,,,,,,,,,,,,,,,,,,,,,,,,,,,,,,,,,,,,,,,,,,,51,156736,19,Female,1,2024/02/13_10:38:43,YZ,59.82189919766369,
,,,,,,calibration,0,20,2,361,16,C,0,right,0.5139986599970143,1,0,,,,,,,,,,,,,,,,,,,,,1,,,,,,,,,,,,,,,,,,,,,,,,,,,,,,,,,,,,,,,,,,,,,,51,156736,19,Female,1,2024/02/13_10:38:43,YZ,59.82189919766369,
,,,,,,calibration,0,20,2,361,17,F,1,right,0.6101188879983965,0,0,,,,,,,,,,,,,,,,,,,,,1,,,,,,,,,,,,,,,,,,,,,,,,,,,,,,,,,,,,,,,,,,,,,,51,156736,19,Female,1,2024/02/13_10:38:43,YZ,59.82189919766369,
,,,,,,calibration,0,20,2,361,18,C,1,left,0.581819220999023,1,0,,,,,,,,,,,,,,,,,,,,,1,,,,,,,,,,,,,,,,,,,,,,,,,,,,,,,,,,,,,,,,,,,,,,51,156736,19,Female,1,2024/02/13_10:38:43,YZ,59.82189919766369,
,,,,,,calibration,0,20,2,361,,,,,,,,0.875,0.5,0.0,1.0,0.0,1.0,0.5243101601639258,3,0,0,0,0,12,15,6,12,0,,,,1,,,,,,,,,,,,,,,,,,,,,,,,,,,,,,,,,,,,,,,,,,,,,,51,156736,19,Female,1,2024/02/13_10:38:43,YZ,59.82189919766369,
,,,,,,Calibration,0,,2,361,,,,,,,,,,,,,,,,,,,,,,,,,12,,,1,,,,,,,,,,,,,,,,,,,,,,,,,,,,,,,,,,,,,,,,,,,,,,51,156736,19,Female,1,2024/02/13_10:38:43,YZ,59.82189919766369,
,,,,,,calibration,0,30,2,303,1,C,0,right,0.38188434700714424,1,0,,,,,,,,,,,,,,,,,,,,,1,,,,,,,,,,,,,,,,,,,,,,,,,,,,,,,,,,,,,,,,,,,,,,51,156736,19,Female,1,2024/02/13_10:38:43,YZ,59.82189919766369,
,,,,,,calibration,0,30,2,303,2,V,0,right,0.24584244699508417,1,0,,,,,,,,,,,,,,,,,,,,,1,,,,,,,,,,,,,,,,,,,,,,,,,,,,,,,,,,,,,,,,,,,,,,51,156736,19,Female,1,2024/02/13_10:38:43,YZ,59.82189919766369,
,,,,,,calibration,0,30,2,303,3,X,0,right,0.5139166120061418,1,0,,,,,,,,,,,,,,,,,,,,,1,,,,,,,,,,,,,,,,,,,,,,,,,,,,,,,,,,,,,,,,,,,,,,51,156736,19,Female,1,2024/02/13_10:38:43,YZ,59.82189919766369,
,,,,,,calibration,0,30,2,303,4,V,1,left,0.5768117090046871,1,0,,,,,,,,,,,,,,,,,,,,,1,,,,,,,,,,,,,,,,,,,,,,,,,,,,,,,,,,,,,,,,,,,,,,51,156736,19,Female,1,2024/02/13_10:38:43,YZ,59.82189919766369,
,,,,,,calibration,0,30,2,303,5,J,0,right,0.6628172700002324,1,0,,,,,,,,,,,,,,,,,,,,,1,,,,,,,,,,,,,,,,,,,,,,,,,,,,,,,,,,,,,,,,,,,,,,51,156736,19,Female,1,2024/02/13_10:38:43,YZ,59.82189919766369,
,,,,,,calibration,0,30,2,303,6,S,0,left,0.35864784799923655,0,0,,,,,,,,,,,,,,,,,,,,,1,,,,,,,,,,,,,,,,,,,,,,,,,,,,,,,,,,,,,,,,,,,,,,51,156736,19,Female,1,2024/02/13_10:38:43,YZ,59.82189919766369,
,,,,,,calibration,0,30,2,303,7,X,0,right,0.39392655799747445,1,0,,,,,,,,,,,,,,,,,,,,,1,,,,,,,,,,,,,,,,,,,,,,,,,,,,,,,,,,,,,,,,,,,,,,51,156736,19,Female,1,2024/02/13_10:38:43,YZ,59.82189919766369,
,,,,,,calibration,0,30,2,303,8,Q,0,right,0.6552797830081545,1,0,,,,,,,,,,,,,,,,,,,,,1,,,,,,,,,,,,,,,,,,,,,,,,,,,,,,,,,,,,,,,,,,,,,,51,156736,19,Female,1,2024/02/13_10:38:43,YZ,59.82189919766369,
,,,,,,calibration,0,30,2,303,9,C,0,right,0.42975487299554516,1,0,,,,,,,,,,,,,,,,,,,,,1,,,,,,,,,,,,,,,,,,,,,,,,,,,,,,,,,,,,,,,,,,,,,,51,156736,19,Female,1,2024/02/13_10:38:43,YZ,59.82189919766369,
,,,,,,calibration,0,30,2,303,10,Q,1,right,0.28775284498988185,0,0,,,,,,,,,,,,,,,,,,,,,1,,,,,,,,,,,,,,,,,,,,,,,,,,,,,,,,,,,,,,,,,,,,,,51,156736,19,Female,1,2024/02/13_10:38:43,YZ,59.82189919766369,
,,,,,,calibration,0,30,2,303,11,X,0,right,0.40177331400627736,1,0,,,,,,,,,,,,,,,,,,,,,1,,,,,,,,,,,,,,,,,,,,,,,,,,,,,,,,,,,,,,,,,,,,,,51,156736,19,Female,1,2024/02/13_10:38:43,YZ,59.82189919766369,
,,,,,,calibration,0,30,2,303,12,V,0,right,0.4781920370005537,1,0,,,,,,,,,,,,,,,,,,,,,1,,,,,,,,,,,,,,,,,,,,,,,,,,,,,,,,,,,,,,,,,,,,,,51,156736,19,Female,1,2024/02/13_10:38:43,YZ,59.82189919766369,
,,,,,,calibration,0,30,2,303,13,X,1,left,0.7025591929996153,1,0,,,,,,,,,,,,,,,,,,,,,1,,,,,,,,,,,,,,,,,,,,,,,,,,,,,,,,,,,,,,,,,,,,,,51,156736,19,Female,1,2024/02/13_10:38:43,YZ,59.82189919766369,
,,,,,,calibration,0,30,2,303,14,V,1,left,0.45178706299338955,1,0,,,,,,,,,,,,,,,,,,,,,1,,,,,,,,,,,,,,,,,,,,,,,,,,,,,,,,,,,,,,,,,,,,,,51,156736,19,Female,1,2024/02/13_10:38:43,YZ,59.82189919766369,
,,,,,,calibration,0,30,2,303,15,C,0,right,0.5255920409981627,1,0,,,,,,,,,,,,,,,,,,,,,1,,,,,,,,,,,,,,,,,,,,,,,,,,,,,,,,,,,,,,,,,,,,,,51,156736,19,Female,1,2024/02/13_10:38:43,YZ,59.82189919766369,
,,,,,,calibration,0,30,2,303,16,S,0,right,0.634484116002568,1,0,,,,,,,,,,,,,,,,,,,,,1,,,,,,,,,,,,,,,,,,,,,,,,,,,,,,,,,,,,,,,,,,,,,,51,156736,19,Female,1,2024/02/13_10:38:43,YZ,59.82189919766369,
,,,,,,calibration,0,30,2,303,17,C,1,right,0.37636436100001447,0,0,,,,,,,,,,,,,,,,,,,,,1,,,,,,,,,,,,,,,,,,,,,,,,,,,,,,,,,,,,,,,,,,,,,,51,156736,19,Female,1,2024/02/13_10:38:43,YZ,59.82189919766369,
,,,,,,calibration,0,30,2,303,18,S,1,right,0.7429503820021637,0,0,,,,,,,,,,,,,,,,,,,,,1,,,,,,,,,,,,,,,,,,,,,,,,,,,,,,,,,,,,,,,,,,,,,,51,156736,19,Female,1,2024/02/13_10:38:43,YZ,59.82189919766369,
,,,,,,calibration,0,30,2,303,19,V,0,right,0.25874477400793694,1,0,,,,,,,,,,,,,,,,,,,,,1,,,,,,,,,,,,,,,,,,,,,,,,,,,,,,,,,,,,,,,,,,,,,,51,156736,19,Female,1,2024/02/13_10:38:43,YZ,59.82189919766369,
,,,,,,calibration,0,30,2,303,,,,,,,,0.8173076923076923,0.5,0.07692307692307693,0.9230769230769231,0.0,0.9230769230769231,0.47784639857969813,3,1,0,0,0,12,15,6,13,0,,,,1,,,,,,,,,,,,,,,,,,,,,,,,,,,,,,,,,,,,,,,,,,,,,,51,156736,19,Female,1,2024/02/13_10:38:43,YZ,59.82189919766369,
,,,,,,Calibration,0,,2,303,,,,,,,,,,,,,,,,,,,,,,,,,13,,,1,,,,,,,,,,,,,,,,,,,,,,,,,,,,,,,,,,,,,,,,,,,,,,51,156736,19,Female,1,2024/02/13_10:38:43,YZ,59.82189919766369,
,,,,,,calibration,0,33,2,303,1,J,0,right,0.3454100700037088,1,0,,,,,,,,,,,,,,,,,,,,,1,,,,,,,,,,,,,,,,,,,,,,,,,,,,,,,,,,,,,,,,,,,,,,51,156736,19,Female,1,2024/02/13_10:38:43,YZ,59.82189919766369,
,,,,,,calibration,0,33,2,303,2,S,0,right,0.29661524400580674,1,0,,,,,,,,,,,,,,,,,,,,,1,,,,,,,,,,,,,,,,,,,,,,,,,,,,,,,,,,,,,,,,,,,,,,51,156736,19,Female,1,2024/02/13_10:38:43,YZ,59.82189919766369,
,,,,,,calibration,0,33,2,303,3,J,1,left,0.6622615310043329,1,0,,,,,,,,,,,,,,,,,,,,,1,,,,,,,,,,,,,,,,,,,,,,,,,,,,,,,,,,,,,,,,,,,,,,51,156736,19,Female,1,2024/02/13_10:38:43,YZ,59.82189919766369,
,,,,,,calibration,0,33,2,303,4,Q,0,right,0.42809575800492894,1,0,,,,,,,,,,,,,,,,,,,,,1,,,,,,,,,,,,,,,,,,,,,,,,,,,,,,,,,,,,,,,,,,,,,,51,156736,19,Female,1,2024/02/13_10:38:43,YZ,59.82189919766369,
,,,,,,calibration,0,33,2,303,5,F,0,right,0.5434407399880001,1,0,,,,,,,,,,,,,,,,,,,,,1,,,,,,,,,,,,,,,,,,,,,,,,,,,,,,,,,,,,,,,,,,,,,,51,156736,19,Female,1,2024/02/13_10:38:43,YZ,59.82189919766369,
,,,,,,calibration,0,33,2,303,6,X,0,right,0.44807738899544347,1,0,,,,,,,,,,,,,,,,,,,,,1,,,,,,,,,,,,,,,,,,,,,,,,,,,,,,,,,,,,,,,,,,,,,,51,156736,19,Female,1,2024/02/13_10:38:43,YZ,59.82189919766369,
,,,,,,calibration,0,33,2,303,7,F,1,right,0.3734396410000045,0,0,,,,,,,,,,,,,,,,,,,,,1,,,,,,,,,,,,,,,,,,,,,,,,,,,,,,,,,,,,,,,,,,,,,,51,156736,19,Female,1,2024/02/13_10:38:43,YZ,59.82189919766369,
,,,,,,calibration,0,33,2,303,8,X,1,left,0.6625309439987177,1,0,,,,,,,,,,,,,,,,,,,,,1,,,,,,,,,,,,,,,,,,,,,,,,,,,,,,,,,,,,,,,,,,,,,,51,156736,19,Female,1,2024/02/13_10:38:43,YZ,59.82189919766369,
,,,,,,calibration,0,33,2,303,9,N,0,right,0.6465451789990766,1,0,,,,,,,,,,,,,,,,,,,,,1,,,,,,,,,,,,,,,,,,,,,,,,,,,,,,,,,,,,,,,,,,,,,,51,156736,19,Female,1,2024/02/13_10:38:43,YZ,59.82189919766369,
,,,,,,calibration,0,33,2,303,10,X,1,left,0.4247894650034141,1,0,,,,,,,,,,,,,,,,,,,,,1,,,,,,,,,,,,,,,,,,,,,,,,,,,,,,,,,,,,,,,,,,,,,,51,156736,19,Female,1,2024/02/13_10:38:43,YZ,59.82189919766369,
,,,,,,calibration,0,33,2,303,11,C,0,right,0.5639253869885579,1,0,,,,,,,,,,,,,,,,,,,,,1,,,,,,,,,,,,,,,,,,,,,,,,,,,,,,,,,,,,,,,,,,,,,,51,156736,19,Female,1,2024/02/13_10:38:43,YZ,59.82189919766369,
,,,,,,calibration,0,33,2,303,12,N,0,right,0.4526440470071975,1,0,,,,,,,,,,,,,,,,,,,,,1,,,,,,,,,,,,,,,,,,,,,,,,,,,,,,,,,,,,,,,,,,,,,,51,156736,19,Female,1,2024/02/13_10:38:43,YZ,59.82189919766369,
,,,,,,calibration,0,33,2,303,13,C,1,right,0.39736261700454634,0,0,,,,,,,,,,,,,,,,,,,,,1,,,,,,,,,,,,,,,,,,,,,,,,,,,,,,,,,,,,,,,,,,,,,,51,156736,19,Female,1,2024/02/13_10:38:43,YZ,59.82189919766369,
,,,,,,calibration,0,33,2,303,14,X,0,right,0.44498585899418686,1,0,,,,,,,,,,,,,,,,,,,,,1,,,,,,,,,,,,,,,,,,,,,,,,,,,,,,,,,,,,,,,,,,,,,,51,156736,19,Female,1,2024/02/13_10:38:43,YZ,59.82189919766369,
,,,,,,calibration,0,33,2,303,15,F,0,right,0.5408504270017147,1,0,,,,,,,,,,,,,,,,,,,,,1,,,,,,,,,,,,,,,,,,,,,,,,,,,,,,,,,,,,,,,,,,,,,,51,156736,19,Female,1,2024/02/13_10:38:43,YZ,59.82189919766369,
,,,,,,calibration,0,33,2,303,16,C,0,right,0.42538762401090935,1,0,,,,,,,,,,,,,,,,,,,,,1,,,,,,,,,,,,,,,,,,,,,,,,,,,,,,,,,,,,,,,,,,,,,,51,156736,19,Female,1,2024/02/13_10:38:43,YZ,59.82189919766369,
,,,,,,calibration,0,33,2,303,17,J,0,right,0.47871586099790875,1,0,,,,,,,,,,,,,,,,,,,,,1,,,,,,,,,,,,,,,,,,,,,,,,,,,,,,,,,,,,,,,,,,,,,,51,156736,19,Female,1,2024/02/13_10:38:43,YZ,59.82189919766369,
,,,,,,calibration,0,33,2,303,18,N,0,right,0.46300485100073274,1,0,,,,,,,,,,,,,,,,,,,,,1,,,,,,,,,,,,,,,,,,,,,,,,,,,,,,,,,,,,,,,,,,,,,,51,156736,19,Female,1,2024/02/13_10:38:43,YZ,59.82189919766369,
,,,,,,calibration,0,33,2,303,19,F,0,right,0.5453134459967259,1,0,,,,,,,,,,,,,,,,,,,,,1,,,,,,,,,,,,,,,,,,,,,,,,,,,,,,,,,,,,,,,,,,,,,,51,156736,19,Female,1,2024/02/13_10:38:43,YZ,59.82189919766369,
,,,,,,calibration,0,33,2,303,,,,,,,,0.9,0.6,0.0,1.0,0.0,1.0,0.4812313726318902,3,0,0,0,0,14,17,5,14,0,,,,1,,,,,,,,,,,,,,,,,,,,,,,,,,,,,,,,,,,,,,,,,,,,,,51,156736,19,Female,1,2024/02/13_10:38:43,YZ,59.82189919766369,
,,,,,,Calibration,0,,2,303,,,,,,,,,,,,,,,,,,,,,,,,,14,,,1,,,,,,,,,,,,,,,,,,,,,,,,,,,,,,,,,,,,,,,,,,,,,,51,156736,19,Female,1,2024/02/13_10:38:43,YZ,59.82189919766369,
,,,,,,calibration,0,29,2,250,1,V,0,right,0.3923561280098511,1,0,,,,,,,,,,,,,,,,,,,,,1,,,,,,,,,,,,,,,,,,,,,,,,,,,,,,,,,,,,,,,,,,,,,,51,156736,19,Female,1,2024/02/13_10:38:43,YZ,59.82189919766369,
,,,,,,calibration,0,29,2,250,2,S,0,right,0.36844898300478235,1,0,,,,,,,,,,,,,,,,,,,,,1,,,,,,,,,,,,,,,,,,,,,,,,,,,,,,,,,,,,,,,,,,,,,,51,156736,19,Female,1,2024/02/13_10:38:43,YZ,59.82189919766369,
,,,,,,calibration,0,29,2,250,3,C,0,right,0.3983982829959132,1,0,,,,,,,,,,,,,,,,,,,,,1,,,,,,,,,,,,,,,,,,,,,,,,,,,,,,,,,,,,,,,,,,,,,,51,156736,19,Female,1,2024/02/13_10:38:43,YZ,59.82189919766369,
,,,,,,calibration,0,29,2,250,4,S,1,right,0.3883355430007214,0,0,,,,,,,,,,,,,,,,,,,,,1,,,,,,,,,,,,,,,,,,,,,,,,,,,,,,,,,,,,,,,,,,,,,,51,156736,19,Female,1,2024/02/13_10:38:43,YZ,59.82189919766369,
,,,,,,calibration,0,29,2,250,5,C,1,left,0.4207806869962951,1,0,,,,,,,,,,,,,,,,,,,,,1,,,,,,,,,,,,,,,,,,,,,,,,,,,,,,,,,,,,,,,,,,,,,,51,156736,19,Female,1,2024/02/13_10:38:43,YZ,59.82189919766369,
,,,,,,calibration,0,29,2,250,6,F,0,right,0.22983303300861735,1,0,,,,,,,,,,,,,,,,,,,,,1,,,,,,,,,,,,,,,,,,,,,,,,,,,,,,,,,,,,,,,,,,,,,,51,156736,19,Female,1,2024/02/13_10:38:43,YZ,59.82189919766369,
,,,,,,calibration,0,29,2,250,7,Q,0,right,0.4305896839941852,1,0,,,,,,,,,,,,,,,,,,,,,1,,,,,,,,,,,,,,,,,,,,,,,,,,,,,,,,,,,,,,,,,,,,,,51,156736,19,Female,1,2024/02/13_10:38:43,YZ,59.82189919766369,
,,,,,,calibration,0,29,2,250,8,N,0,right,0.4702448949974496,1,0,,,,,,,,,,,,,,,,,,,,,1,,,,,,,,,,,,,,,,,,,,,,,,,,,,,,,,,,,,,,,,,,,,,,51,156736,19,Female,1,2024/02/13_10:38:43,YZ,59.82189919766369,
,,,,,,calibration,0,29,2,250,9,Q,1,left,0.6809636670077452,1,0,,,,,,,,,,,,,,,,,,,,,1,,,,,,,,,,,,,,,,,,,,,,,,,,,,,,,,,,,,,,,,,,,,,,51,156736,19,Female,1,2024/02/13_10:38:43,YZ,59.82189919766369,
,,,,,,calibration,0,29,2,250,10,X,0,right,0.29154725500848144,1,0,,,,,,,,,,,,,,,,,,,,,1,,,,,,,,,,,,,,,,,,,,,,,,,,,,,,,,,,,,,,,,,,,,,,51,156736,19,Female,1,2024/02/13_10:38:43,YZ,59.82189919766369,
,,,,,,calibration,0,29,2,250,11,J,0,right,0.3473663369950373,1,0,,,,,,,,,,,,,,,,,,,,,1,,,,,,,,,,,,,,,,,,,,,,,,,,,,,,,,,,,,,,,,,,,,,,51,156736,19,Female,1,2024/02/13_10:38:43,YZ,59.82189919766369,
,,,,,,calibration,0,29,2,250,12,F,0,right,0.4789223489933647,1,0,,,,,,,,,,,,,,,,,,,,,1,,,,,,,,,,,,,,,,,,,,,,,,,,,,,,,,,,,,,,,,,,,,,,51,156736,19,Female,1,2024/02/13_10:38:43,YZ,59.82189919766369,
,,,,,,calibration,0,29,2,250,13,N,0,right,0.42201257598935626,1,0,,,,,,,,,,,,,,,,,,,,,1,,,,,,,,,,,,,,,,,,,,,,,,,,,,,,,,,,,,,,,,,,,,,,51,156736,19,Female,1,2024/02/13_10:38:43,YZ,59.82189919766369,
,,,,,,calibration,0,29,2,250,14,V,0,right,0.43131682599778287,1,0,,,,,,,,,,,,,,,,,,,,,1,,,,,,,,,,,,,,,,,,,,,,,,,,,,,,,,,,,,,,,,,,,,,,51,156736,19,Female,1,2024/02/13_10:38:43,YZ,59.82189919766369,
,,,,,,calibration,0,29,2,250,15,N,1,right,0.5506081969942898,0,0,,,,,,,,,,,,,,,,,,,,,1,,,,,,,,,,,,,,,,,,,,,,,,,,,,,,,,,,,,,,,,,,,,,,51,156736,19,Female,1,2024/02/13_10:38:43,YZ,59.82189919766369,
,,,,,,calibration,0,29,2,250,16,X,0,right,0.43003195099299774,1,0,,,,,,,,,,,,,,,,,,,,,1,,,,,,,,,,,,,,,,,,,,,,,,,,,,,,,,,,,,,,,,,,,,,,51,156736,19,Female,1,2024/02/13_10:38:43,YZ,59.82189919766369,
,,,,,,calibration,0,29,2,250,17,J,0,right,0.3751707139890641,1,0,,,,,,,,,,,,,,,,,,,,,1,,,,,,,,,,,,,,,,,,,,,,,,,,,,,,,,,,,,,,,,,,,,,,51,156736,19,Female,1,2024/02/13_10:38:43,YZ,59.82189919766369,
,,,,,,calibration,0,29,2,250,18,V,0,right,0.47006143401085865,1,0,,,,,,,,,,,,,,,,,,,,,1,,,,,,,,,,,,,,,,,,,,,,,,,,,,,,,,,,,,,,,,,,,,,,51,156736,19,Female,1,2024/02/13_10:38:43,YZ,59.82189919766369,
,,,,,,calibration,0,29,2,250,19,J,1,left,0.48525182899902575,1,0,,,,,,,,,,,,,,,,,,,,,1,,,,,,,,,,,,,,,,,,,,,,,,,,,,,,,,,,,,,,,,,,,,,,51,156736,19,Female,1,2024/02/13_10:38:43,YZ,59.82189919766369,
,,,,,,calibration,0,29,2,250,20,C,0,right,0.2858029439958045,1,0,,,,,,,,,,,,,,,,,,,,,1,,,,,,,,,,,,,,,,,,,,,,,,,,,,,,,,,,,,,,,,,,,,,,51,156736,19,Female,1,2024/02/13_10:38:43,YZ,59.82189919766369,
,,,,,,calibration,0,29,2,250,,,,,,,,0.9,0.6,0.0,1.0,0.0,1.0,0.4174021657490812,3,0,0,0,0,15,18,5,15,0,,,,1,,,,,,,,,,,,,,,,,,,,,,,,,,,,,,,,,,,,,,,,,,,,,,51,156736,19,Female,1,2024/02/13_10:38:43,YZ,59.82189919766369,
,,,,,,Calibration,0,,2,250,,,,,,,,,,,,,,,,,,,,,,,,,15,,,1,,,,,,,,,,,,,,,,,,,,,,,,,,,,,,,,,,,,,,,,,,,,,,51,156736,19,Female,1,2024/02/13_10:38:43,YZ,59.82189919766369,
,,,,,,CALIBRATION,0,,,,,,,,,,,,,,,,,,,,,,,,,,,,15,0.9,250,1,,,,,,,,,,,,,,,,,,,,,,,,,,,,,,,,,,,,,,,,,,,,,,51,156736,19,Female,1,2024/02/13_10:38:43,YZ,59.82189919766369,
1,./instructions/inst_prac_1/Slide24.png,right,7.144223328999942,459.483532290993,466.62775561999297,,,,,,,,,,,,,,,,,,,,,,,,,,,,,,,,,1,,,,,,,,,,,,,,,,,,,,,,,,,,,,,,,,,,,,,,,,,,,,,,51,156736,19,Female,1,2024/02/13_10:38:43,YZ,59.82189919766369,
2,./instructions/inst_prac_1/Slide25.png,right,1.3968275860097492,466.710646705993,468.10747429200273,,,,,,,,,,,,,,,,,,,,,,,,,,,,,,,,,1,,,,,,,,,,,,,,,,,,,,,,,,,,,,,,,,,,,,,,,,,,,,,,51,156736,19,Female,1,2024/02/13_10:38:43,YZ,59.82189919766369,
3,./instructions/inst_prac_1/Slide26.png,right,0.6972750220011221,468.178263941998,468.87553896399913,,,,,,,,,,,,,,,,,,,,,,,,,,,,,,,,,1,,,,,,,,,,,,,,,,,,,,,,,,,,,,,,,,,,,,,,,,,,,,,,51,156736,19,Female,1,2024/02/13_10:38:43,YZ,59.82189919766369,
4,./instructions/inst_prac_1/Slide27.png,right,0.41981373500311747,468.9357658329973,469.3555795680004,,,,,,,,,,,,,,,,,,,,,,,,,,,,,,,,,1,,,,,,,,,,,,,,,,,,,,,,,,,,,,,,,,,,,,,,,,,,,,,,51,156736,19,Female,1,2024/02/13_10:38:43,YZ,59.82189919766369,
5,./instructions/inst_prac_1/Slide28.png,right,0.3490304809965892,469.3905845469999,469.7396150279965,,,,,,,,,,,,,,,,,,,,,,,,,,,,,,,,,1,,,,,,,,,,,,,,,,,,,,,,,,,,,,,,,,,,,,,,,,,,,,,,51,156736,19,Female,1,2024/02/13_10:38:43,YZ,59.82189919766369,
6,./instructions/inst_prac_1/Slide29.png,right,6.912286001999746,469.7793975329987,476.69168353499845,,,,,,,,,,,,,,,,,,,,,,,,,,,,,,,,,1,,,,,,,,,,,,,,,,,,,,,,,,,,,,,,,,,,,,,,,,,,,,,,51,156736,19,Female,1,2024/02/13_10:38:43,YZ,59.82189919766369,
7,./instructions/inst_prac_1/Slide30.png,right,5.03014370900928,476.78172711399384,481.8118708230031,,,,,,,,,,,,,,,,,,,,,,,,,,,,,,,,,1,,,,,,,,,,,,,,,,,,,,,,,,,,,,,,,,,,,,,,,,,,,,,,51,156736,19,Female,1,2024/02/13_10:38:43,YZ,59.82189919766369,
,,,,,,practice,0,26,1,1250,1,S,0,right,1.2918882829981158,1,0,,,,,,,,,,,,,,,,,,,,,1,,,,,,,,,,,,,,,,,,,,,,,,,,,,,,,,,,,,,,,,,,,,,,51,156736,19,Female,1,2024/02/13_10:38:43,YZ,59.82189919766369,
,,,,,,practice,0,26,1,1250,2,V,0,right,0.7898329430026934,1,0,,,,,,,,,,,,,,,,,,,,,1,,,,,,,,,,,,,,,,,,,,,,,,,,,,,,,,,,,,,,,,,,,,,,51,156736,19,Female,1,2024/02/13_10:38:43,YZ,59.82189919766369,
,,,,,,practice,0,26,1,1250,3,N,0,right,0.5828558780049207,1,0,,,,,,,,,,,,,,,,,,,,,1,,,,,,,,,,,,,,,,,,,,,,,,,,,,,,,,,,,,,,,,,,,,,,51,156736,19,Female,1,2024/02/13_10:38:43,YZ,59.82189919766369,
,,,,,,practice,0,26,1,1250,4,N,1,left,0.5918609389918856,1,0,,,,,,,,,,,,,,,,,,,,,1,,,,,,,,,,,,,,,,,,,,,,,,,,,,,,,,,,,,,,,,,,,,,,51,156736,19,Female,1,2024/02/13_10:38:43,YZ,59.82189919766369,
,,,,,,practice,0,26,1,1250,5,C,0,right,0.5129273500060663,1,0,,,,,,,,,,,,,,,,,,,,,1,,,,,,,,,,,,,,,,,,,,,,,,,,,,,,,,,,,,,,,,,,,,,,51,156736,19,Female,1,2024/02/13_10:38:43,YZ,59.82189919766369,
,,,,,,practice,0,26,1,1250,6,Q,0,right,0.36956548399757594,1,0,,,,,,,,,,,,,,,,,,,,,1,,,,,,,,,,,,,,,,,,,,,,,,,,,,,,,,,,,,,,,,,,,,,,51,156736,19,Female,1,2024/02/13_10:38:43,YZ,59.82189919766369,
,,,,,,practice,0,26,1,1250,7,Q,1,left,0.5527320139954099,1,0,,,,,,,,,,,,,,,,,,,,,1,,,,,,,,,,,,,,,,,,,,,,,,,,,,,,,,,,,,,,,,,,,,,,51,156736,19,Female,1,2024/02/13_10:38:43,YZ,59.82189919766369,
,,,,,,practice,0,26,1,1250,8,N,0,right,0.6162510870053666,1,0,,,,,,,,,,,,,,,,,,,,,1,,,,,,,,,,,,,,,,,,,,,,,,,,,,,,,,,,,,,,,,,,,,,,51,156736,19,Female,1,2024/02/13_10:38:43,YZ,59.82189919766369,
,,,,,,practice,0,26,1,1250,9,Q,0,right,0.45395788201130927,1,0,,,,,,,,,,,,,,,,,,,,,1,,,,,,,,,,,,,,,,,,,,,,,,,,,,,,,,,,,,,,,,,,,,,,51,156736,19,Female,1,2024/02/13_10:38:43,YZ,59.82189919766369,
,,,,,,practice,0,26,1,1250,10,Q,1,left,0.5201131209905725,1,0,,,,,,,,,,,,,,,,,,,,,1,,,,,,,,,,,,,,,,,,,,,,,,,,,,,,,,,,,,,,,,,,,,,,51,156736,19,Female,1,2024/02/13_10:38:43,YZ,59.82189919766369,
,,,,,,practice,0,26,1,1250,,,,,,,,1.0,1.0,0.0,1.0,0.0,1.0,0.6281984981003916,3,0,0,0,0,7,10,3,7,0,,,,1,,,,,,,,,,,,,,,,,,,,,,,,,,,,,,,,,,,,,,,,,,,,,,51,156736,19,Female,1,2024/02/13_10:38:43,YZ,59.82189919766369,
1,./instructions/inst_prac_1_next/Slide35.png,right,1.1763348879903788,498.70747384200513,499.8838087299955,,,,,,,,,,,,,,,,,,,,,,,,,,,,,,,,,1,,,,,,,,,,,,,,,,,,,,,,,,,,,,,,,,,,,,,,,,,,,,,,51,156736,19,Female,1,2024/02/13_10:38:43,YZ,59.82189919766369,
,,,,,,practice,0,21,1,250,1,N,0,left,2.0791804550099187,0,0,,,,,,,,,,,,,,,,,,,,,1,,,,,,,,,,,,,,,,,,,,,,,,,,,,,,,,,,,,,,,,,,,,,,51,156736,19,Female,1,2024/02/13_10:38:43,YZ,59.82189919766369,
,,,,,,practice,0,21,1,250,2,N,1,left,0.881845298994449,1,0,,,,,,,,,,,,,,,,,,,,,1,,,,,,,,,,,,,,,,,,,,,,,,,,,,,,,,,,,,,,,,,,,,,,51,156736,19,Female,1,2024/02/13_10:38:43,YZ,59.82189919766369,
,,,,,,practice,0,21,1,250,3,Q,0,right,0.43938831699779257,1,0,,,,,,,,,,,,,,,,,,,,,1,,,,,,,,,,,,,,,,,,,,,,,,,,,,,,,,,,,,,,,,,,,,,,51,156736,19,Female,1,2024/02/13_10:38:43,YZ,59.82189919766369,
,,,,,,practice,0,21,1,250,4,X,0,right,0.6253656509943539,1,0,,,,,,,,,,,,,,,,,,,,,1,,,,,,,,,,,,,,,,,,,,,,,,,,,,,,,,,,,,,,,,,,,,,,51,156736,19,Female,1,2024/02/13_10:38:43,YZ,59.82189919766369,
,,,,,,practice,0,21,1,250,5,F,0,right,0.3696882639924297,1,0,,,,,,,,,,,,,,,,,,,,,1,,,,,,,,,,,,,,,,,,,,,,,,,,,,,,,,,,,,,,,,,,,,,,51,156736,19,Female,1,2024/02/13_10:38:43,YZ,59.82189919766369,
,,,,,,practice,0,21,1,250,6,V,0,right,0.32618316300795414,1,0,,,,,,,,,,,,,,,,,,,,,1,,,,,,,,,,,,,,,,,,,,,,,,,,,,,,,,,,,,,,,,,,,,,,51,156736,19,Female,1,2024/02/13_10:38:43,YZ,59.82189919766369,
,,,,,,practice,0,21,1,250,7,V,1,left,0.5680466760095442,1,0,,,,,,,,,,,,,,,,,,,,,1,,,,,,,,,,,,,,,,,,,,,,,,,,,,,,,,,,,,,,,,,,,,,,51,156736,19,Female,1,2024/02/13_10:38:43,YZ,59.82189919766369,
,,,,,,practice,0,21,1,250,8,F,0,right,0.36701624900160823,1,0,,,,,,,,,,,,,,,,,,,,,1,,,,,,,,,,,,,,,,,,,,,,,,,,,,,,,,,,,,,,,,,,,,,,51,156736,19,Female,1,2024/02/13_10:38:43,YZ,59.82189919766369,
,,,,,,practice,0,21,1,250,9,V,0,right,0.300960385997314,1,0,,,,,,,,,,,,,,,,,,,,,1,,,,,,,,,,,,,,,,,,,,,,,,,,,,,,,,,,,,,,,,,,,,,,51,156736,19,Female,1,2024/02/13_10:38:43,YZ,59.82189919766369,
,,,,,,practice,0,21,1,250,10,Q,0,right,0.39675188800902106,1,0,,,,,,,,,,,,,,,,,,,,,1,,,,,,,,,,,,,,,,,,,,,,,,,,,,,,,,,,,,,,,,,,,,,,51,156736,19,Female,1,2024/02/13_10:38:43,YZ,59.82189919766369,
,,,,,,practice,0,21,1,250,11,X,0,right,0.3137982829939574,1,0,,,,,,,,,,,,,,,,,,,,,1,,,,,,,,,,,,,,,,,,,,,,,,,,,,,,,,,,,,,,,,,,,,,,51,156736,19,Female,1,2024/02/13_10:38:43,YZ,59.82189919766369,
,,,,,,practice,0,21,1,250,12,Q,0,right,0.3801621730090119,1,0,,,,,,,,,,,,,,,,,,,,,1,,,,,,,,,,,,,,,,,,,,,,,,,,,,,,,,,,,,,,,,,,,,,,51,156736,19,Female,1,2024/02/13_10:38:43,YZ,59.82189919766369,
,,,,,,practice,0,21,1,250,13,Q,1,left,0.5463860659947386,1,0,,,,,,,,,,,,,,,,,,,,,1,,,,,,,,,,,,,,,,,,,,,,,,,,,,,,,,,,,,,,,,,,,,,,51,156736,19,Female,1,2024/02/13_10:38:43,YZ,59.82189919766369,
,,,,,,practice,0,21,1,250,14,S,0,right,0.24666964099742472,1,0,,,,,,,,,,,,,,,,,,,,,1,,,,,,,,,,,,,,,,,,,,,,,,,,,,,,,,,,,,,,,,,,,,,,51,156736,19,Female,1,2024/02/13_10:38:43,YZ,59.82189919766369,
,,,,,,practice,0,21,1,250,15,X,0,right,0.3593864790018415,1,0,,,,,,,,,,,,,,,,,,,,,1,,,,,,,,,,,,,,,,,,,,,,,,,,,,,,,,,,,,,,,,,,,,,,51,156736,19,Female,1,2024/02/13_10:38:43,YZ,59.82189919766369,
,,,,,,practice,0,21,1,250,16,S,0,right,0.6237926169997081,1,0,,,,,,,,,,,,,,,,,,,,,1,,,,,,,,,,,,,,,,,,,,,,,,,,,,,,,,,,,,,,,,,,,,,,51,156736,19,Female,1,2024/02/13_10:38:43,YZ,59.82189919766369,
,,,,,,practice,0,21,1,250,17,Q,0,right,0.3382130890095141,1,0,,,,,,,,,,,,,,,,,,,,,1,,,,,,,,,,,,,,,,,,,,,,,,,,,,,,,,,,,,,,,,,,,,,,51,156736,19,Female,1,2024/02/13_10:38:43,YZ,59.82189919766369,
,,,,,,practice,0,21,1,250,18,Q,1,left,0.44907817100465763,1,0,,,,,,,,,,,,,,,,,,,,,1,,,,,,,,,,,,,,,,,,,,,,,,,,,,,,,,,,,,,,,,,,,,,,51,156736,19,Female,1,2024/02/13_10:38:43,YZ,59.82189919766369,
,,,,,,practice,0,21,1,250,19,N,0,right,0.3880735900020227,1,0,,,,,,,,,,,,,,,,,,,,,1,,,,,,,,,,,,,,,,,,,,,,,,,,,,,,,,,,,,,,,,,,,,,,51,156736,19,Female,1,2024/02/13_10:38:43,YZ,59.82189919766369,
,,,,,,practice,0,21,1,250,20,N,1,left,0.40625486501085106,1,0,,,,,,,,,,,,,,,,,,,,,1,,,,,,,,,,,,,,,,,,,,,,,,,,,,,,,,,,,,,,,,,,,,,,51,156736,19,Female,1,2024/02/13_10:38:43,YZ,59.82189919766369,
,,,,,,practice,0,21,1,250,,,,,,,,0.9833333333333334,1.0,0.06666666666666667,0.9333333333333333,0.0,0.9333333333333333,0.5203120661019056,5,1,0,0,0,14,19,5,15,0,,,,1,,,,,,,,,,,,,,,,,,,,,,,,,,,,,,,,,,,,,,,,,,,,,,51,156736,19,Female,1,2024/02/13_10:38:43,YZ,59.82189919766369,
,,,,,,practice,0,33,1,250,1,V,0,right,0.4892850449978141,1,0,,,,,,,,,,,,,,,,,,,,,1,,,,,,,,,,,,,,,,,,,,,,,,,,,,,,,,,,,,,,,,,,,,,,51,156736,19,Female,1,2024/02/13_10:38:43,YZ,59.82189919766369,
,,,,,,practice,0,33,1,250,2,V,1,left,0.4307296140032122,1,0,,,,,,,,,,,,,,,,,,,,,1,,,,,,,,,,,,,,,,,,,,,,,,,,,,,,,,,,,,,,,,,,,,,,51,156736,19,Female,1,2024/02/13_10:38:43,YZ,59.82189919766369,
,,,,,,practice,0,33,1,250,3,S,0,right,0.33835459500551224,1,0,,,,,,,,,,,,,,,,,,,,,1,,,,,,,,,,,,,,,,,,,,,,,,,,,,,,,,,,,,,,,,,,,,,,51,156736,19,Female,1,2024/02/13_10:38:43,YZ,59.82189919766369,
,,,,,,practice,0,33,1,250,4,C,0,right,0.2938738189986907,1,0,,,,,,,,,,,,,,,,,,,,,1,,,,,,,,,,,,,,,,,,,,,,,,,,,,,,,,,,,,,,,,,,,,,,51,156736,19,Female,1,2024/02/13_10:38:43,YZ,59.82189919766369,
,,,,,,practice,0,33,1,250,5,F,0,right,0.3308843240083661,1,0,,,,,,,,,,,,,,,,,,,,,1,,,,,,,,,,,,,,,,,,,,,,,,,,,,,,,,,,,,,,,,,,,,,,51,156736,19,Female,1,2024/02/13_10:38:43,YZ,59.82189919766369,
,,,,,,practice,0,33,1,250,6,F,1,right,0.3481246040028054,0,0,,,,,,,,,,,,,,,,,,,,,1,,,,,,,,,,,,,,,,,,,,,,,,,,,,,,,,,,,,,,,,,,,,,,51,156736,19,Female,1,2024/02/13_10:38:43,YZ,59.82189919766369,
,,,,,,practice,0,33,1,250,7,S,0,right,0.2867018789984286,1,0,,,,,,,,,,,,,,,,,,,,,1,,,,,,,,,,,,,,,,,,,,,,,,,,,,,,,,,,,,,,,,,,,,,,51,156736,19,Female,1,2024/02/13_10:38:43,YZ,59.82189919766369,
,,,,,,practice,0,33,1,250,8,N,0,right,0.42369240200787317,1,0,,,,,,,,,,,,,,,,,,,,,1,,,,,,,,,,,,,,,,,,,,,,,,,,,,,,,,,,,,,,,,,,,,,,51,156736,19,Female,1,2024/02/13_10:38:43,YZ,59.82189919766369,
,,,,,,practice,0,33,1,250,9,N,1,left,0.44981697598996107,1,0,,,,,,,,,,,,,,,,,,,,,1,,,,,,,,,,,,,,,,,,,,,,,,,,,,,,,,,,,,,,,,,,,,,,51,156736,19,Female,1,2024/02/13_10:38:43,YZ,59.82189919766369,
,,,,,,practice,0,33,1,250,10,V,0,right,0.35011994099477306,1,0,,,,,,,,,,,,,,,,,,,,,1,,,,,,,,,,,,,,,,,,,,,,,,,,,,,,,,,,,,,,,,,,,,,,51,156736,19,Female,1,2024/02/13_10:38:43,YZ,59.82189919766369,
,,,,,,practice,0,33,1,250,11,V,1,left,0.42865128999983426,1,0,,,,,,,,,,,,,,,,,,,,,1,,,,,,,,,,,,,,,,,,,,,,,,,,,,,,,,,,,,,,,,,,,,,,51,156736,19,Female,1,2024/02/13_10:38:43,YZ,59.82189919766369,
,,,,,,practice,0,33,1,250,12,Q,0,right,0.41004258701286744,1,0,,,,,,,,,,,,,,,,,,,,,1,,,,,,,,,,,,,,,,,,,,,,,,,,,,,,,,,,,,,,,,,,,,,,51,156736,19,Female,1,2024/02/13_10:38:43,YZ,59.82189919766369,
,,,,,,practice,0,33,1,250,13,X,0,right,0.3242088569968473,1,0,,,,,,,,,,,,,,,,,,,,,1,,,,,,,,,,,,,,,,,,,,,,,,,,,,,,,,,,,,,,,,,,,,,,51,156736,19,Female,1,2024/02/13_10:38:43,YZ,59.82189919766369,
,,,,,,practice,0,33,1,250,14,X,1,left,0.45868050400167704,1,0,,,,,,,,,,,,,,,,,,,,,1,,,,,,,,,,,,,,,,,,,,,,,,,,,,,,,,,,,,,,,,,,,,,,51,156736,19,Female,1,2024/02/13_10:38:43,YZ,59.82189919766369,
,,,,,,practice,0,33,1,250,15,N,0,right,0.33145940098620486,1,0,,,,,,,,,,,,,,,,,,,,,1,,,,,,,,,,,,,,,,,,,,,,,,,,,,,,,,,,,,,,,,,,,,,,51,156736,19,Female,1,2024/02/13_10:38:43,YZ,59.82189919766369,
,,,,,,practice,0,33,1,250,16,X,0,right,0.3977604979882017,1,0,,,,,,,,,,,,,,,,,,,,,1,,,,,,,,,,,,,,,,,,,,,,,,,,,,,,,,,,,,,,,,,,,,,,51,156736,19,Female,1,2024/02/13_10:38:43,YZ,59.82189919766369,
,,,,,,practice,0,33,1,250,17,J,0,right,0.4333948340063216,1,0,,,,,,,,,,,,,,,,,,,,,1,,,,,,,,,,,,,,,,,,,,,,,,,,,,,,,,,,,,,,,,,,,,,,51,156736,19,Female,1,2024/02/13_10:38:43,YZ,59.82189919766369,
,,,,,,practice,0,33,1,250,18,J,1,left,0.46149941299518105,1,0,,,,,,,,,,,,,,,,,,,,,1,,,,,,,,,,,,,,,,,,,,,,,,,,,,,,,,,,,,,,,,,,,,,,51,156736,19,Female,1,2024/02/13_10:38:43,YZ,59.82189919766369,
,,,,,,practice,0,33,1,250,19,C,0,right,0.31465629999001976,1,0,,,,,,,,,,,,,,,,,,,,,1,,,,,,,,,,,,,,,,,,,,,,,,,,,,,,,,,,,,,,,,,,,,,,51,156736,19,Female,1,2024/02/13_10:38:43,YZ,59.82189919766369,
,,,,,,practice,0,33,1,250,20,S,0,right,0.3576520119968336,1,0,,,,,,,,,,,,,,,,,,,,,1,,,,,,,,,,,,,,,,,,,,,,,,,,,,,,,,,,,,,,,,,,,,,,51,156736,19,Female,1,2024/02/13_10:38:43,YZ,59.82189919766369,
,,,,,,practice,0,33,1,250,,,,,,,,0.9583333333333334,0.8333333333333334,0.0,1.0,0.0,1.0,0.38297944474907125,5,0,0,0,0,14,19,6,14,0,,,,1,,,,,,,,,,,,,,,,,,,,,,,,,,,,,,,,,,,,,,,,,,,,,,51,156736,19,Female,1,2024/02/13_10:38:43,YZ,59.82189919766369,
1,./instructions/inst_prac_3/Slide37.png,right,2.8264577290101442,543.2172980869946,546.0437558160047,,,,,,,,,,,,,,,,,,,,,,,,,,,,,,,,,1,,,,,,,,,,,,,,,,,,,,,,,,,,,,,,,,,,,,,,,,,,,,,,51,156736,19,Female,1,2024/02/13_10:38:43,YZ,59.82189919766369,
2,./instructions/inst_prac_3/Slide38.png,right,1.9821218489960302,546.101466224005,548.083588073001,,,,,,,,,,,,,,,,,,,,,,,,,,,,,,,,,1,,,,,,,,,,,,,,,,,,,,,,,,,,,,,,,,,,,,,,,,,,,,,,51,156736,19,Female,1,2024/02/13_10:38:43,YZ,59.82189919766369,
3,./instructions/inst_prac_3/Slide39.png,right,0.675200883008074,548.1684431059984,548.8436439890065,,,,,,,,,,,,,,,,,,,,,,,,,,,,,,,,,1,,,,,,,,,,,,,,,,,,,,,,,,,,,,,,,,,,,,,,,,,,,,,,51,156736,19,Female,1,2024/02/13_10:38:43,YZ,59.82189919766369,
4,./instructions/inst_prac_3/Slide40.png,right,0.6214876230078517,548.9022169039963,549.5237045270042,,,,,,,,,,,,,,,,,,,,,,,,,,,,,,,,,1,,,,,,,,,,,,,,,,,,,,,,,,,,,,,,,,,,,,,,,,,,,,,,51,156736,19,Female,1,2024/02/13_10:38:43,YZ,59.82189919766369,
5,./instructions/inst_prac_3/Slide41.png,right,0.7428562769928249,549.5648702420003,550.3077265189931,,,,,,,,,,,,,,,,,,,,,,,,,,,,,,,,,1,,,,,,,,,,,,,,,,,,,,,,,,,,,,,,,,,,,,,,,,,,,,,,51,156736,19,Female,1,2024/02/13_10:38:43,YZ,59.82189919766369,
6,./instructions/inst_prac_3/Slide42.png,right,0.2005503079999471,550.3487724779989,550.5493227859988,,,,,,,,,,,,,,,,,,,,,,,,,,,,,,,,,1,,,,,,,,,,,,,,,,,,,,,,,,,,,,,,,,,,,,,,,,,,,,,,51,156736,19,Female,1,2024/02/13_10:38:43,YZ,59.82189919766369,
7,./instructions/inst_prac_3/Slide43.png,right,1.338527445012005,550.5850762789923,551.9236037240044,,,,,,,,,,,,,,,,,,,,,,,,,,,,,,,,,1,,,,,,,,,,,,,,,,,,,,,,,,,,,,,,,,,,,,,,,,,,,,,,51,156736,19,Female,1,2024/02/13_10:38:43,YZ,59.82189919766369,
8,./instructions/inst_prac_3/Slide44.png,right,1.4782847570022568,551.98948638,553.4677711370023,,,,,,,,,,,,,,,,,,,,,,,,,,,,,,,,,1,,,,,,,,,,,,,,,,,,,,,,,,,,,,,,,,,,,,,,,,,,,,,,51,156736,19,Female,1,2024/02/13_10:38:43,YZ,59.82189919766369,
,,,,,,practice,0,7,3,788,1,X,0,right,1.6944674550031777,1,0,,,,,,,,,,,,,,,,,,,,,1,,,,,,,,,,,,,,,,,,,,,,,,,,,,,,,,,,,,,,,,,,,,,,51,156736,19,Female,1,2024/02/13_10:38:43,YZ,59.82189919766369,
,,,,,,practice,0,7,3,788,2,N,0,right,0.36702101399714593,1,0,,,,,,,,,,,,,,,,,,,,,1,,,,,,,,,,,,,,,,,,,,,,,,,,,,,,,,,,,,,,,,,,,,,,51,156736,19,Female,1,2024/02/13_10:38:43,YZ,59.82189919766369,
,,,,,,practice,0,7,3,788,3,X,0,left,0.6791276059957454,0,0,,,,,,,,,,,,,,,,,,,,,1,,,,,,,,,,,,,,,,,,,,,,,,,,,,,,,,,,,,,,,,,,,,,,51,156736,19,Female,1,2024/02/13_10:38:43,YZ,59.82189919766369,
,,,,,,practice,0,7,3,788,4,C,0,right,1.488670912993257,1,0,,,,,,,,,,,,,,,,,,,,,1,,,,,,,,,,,,,,,,,,,,,,,,,,,,,,,,,,,,,,,,,,,,,,51,156736,19,Female,1,2024/02/13_10:38:43,YZ,59.82189919766369,
,,,,,,practice,0,7,3,788,5,S,0,right,2.341829251003219,1,0,,,,,,,,,,,,,,,,,,,,,1,,,,,,,,,,,,,,,,,,,,,,,,,,,,,,,,,,,,,,,,,,,,,,51,156736,19,Female,1,2024/02/13_10:38:43,YZ,59.82189919766369,
,,,,,,practice,0,7,3,788,6,S,0,right,1.5765588069916703,1,0,,,,,,,,,,,,,,,,,,,,,1,,,,,,,,,,,,,,,,,,,,,,,,,,,,,,,,,,,,,,,,,,,,,,51,156736,19,Female,1,2024/02/13_10:38:43,YZ,59.82189919766369,
,,,,,,practice,0,7,3,788,7,C,1,left,0.9347575940046227,1,0,,,,,,,,,,,,,,,,,,,,,1,,,,,,,,,,,,,,,,,,,,,,,,,,,,,,,,,,,,,,,,,,,,,,51,156736,19,Female,1,2024/02/13_10:38:43,YZ,59.82189919766369,
,,,,,,practice,0,7,3,788,8,Q,0,right,0.8760910800046986,1,0,,,,,,,,,,,,,,,,,,,,,1,,,,,,,,,,,,,,,,,,,,,,,,,,,,,,,,,,,,,,,,,,,,,,51,156736,19,Female,1,2024/02/13_10:38:43,YZ,59.82189919766369,
,,,,,,practice,0,7,3,788,9,S,1,left,1.0287926619930658,1,0,,,,,,,,,,,,,,,,,,,,,1,,,,,,,,,,,,,,,,,,,,,,,,,,,,,,,,,,,,,,,,,,,,,,51,156736,19,Female,1,2024/02/13_10:38:43,YZ,59.82189919766369,
,,,,,,practice,0,7,3,788,10,Q,0,right,0.8474355399957858,1,0,,,,,,,,,,,,,,,,,,,,,1,,,,,,,,,,,,,,,,,,,,,,,,,,,,,,,,,,,,,,,,,,,,,,51,156736,19,Female,1,2024/02/13_10:38:43,YZ,59.82189919766369,
,,,,,,practice,0,7,3,788,11,Q,1,left,0.6046586539887358,1,0,,,,,,,,,,,,,,,,,,,,,1,,,,,,,,,,,,,,,,,,,,,,,,,,,,,,,,,,,,,,,,,,,,,,51,156736,19,Female,1,2024/02/13_10:38:43,YZ,59.82189919766369,
,,,,,,practice,0,7,3,788,12,V,0,right,0.5692240870121168,1,0,,,,,,,,,,,,,,,,,,,,,1,,,,,,,,,,,,,,,,,,,,,,,,,,,,,,,,,,,,,,,,,,,,,,51,156736,19,Female,1,2024/02/13_10:38:43,YZ,59.82189919766369,
,,,,,,practice,0,7,3,788,13,Q,1,left,0.4453588259930257,1,0,,,,,,,,,,,,,,,,,,,,,1,,,,,,,,,,,,,,,,,,,,,,,,,,,,,,,,,,,,,,,,,,,,,,51,156736,19,Female,1,2024/02/13_10:38:43,YZ,59.82189919766369,
,,,,,,practice,0,7,3,788,,,,,,,,0.9722222222222222,1.0,0.1111111111111111,0.8888888888888888,0.0,0.8888888888888888,1.0349225760750973,4,1,0,0,0,8,12,4,9,0,,,,1,,,,,,,,,,,,,,,,,,,,,,,,,,,,,,,,,,,,,,,,,,,,,,51,156736,19,Female,1,2024/02/13_10:38:43,YZ,59.82189919766369,
1,./instructions/inst_prac_3_next/Slide49.png,right,1.19259385499754,581.2271009359974,582.419694790995,,,,,,,,,,,,,,,,,,,,,,,,,,,,,,,,,1,,,,,,,,,,,,,,,,,,,,,,,,,,,,,,,,,,,,,,,,,,,,,,51,156736,19,Female,1,2024/02/13_10:38:43,YZ,59.82189919766369,
,,,,,,practice,0,31,3,250,1,V,0,right,1.2813552770094248,1,0,,,,,,,,,,,,,,,,,,,,,1,,,,,,,,,,,,,,,,,,,,,,,,,,,,,,,,,,,,,,,,,,,,,,51,156736,19,Female,1,2024/02/13_10:38:43,YZ,59.82189919766369,
,,,,,,practice,0,31,3,250,2,S,0,right,1.5249398080050014,1,0,,,,,,,,,,,,,,,,,,,,,1,,,,,,,,,,,,,,,,,,,,,,,,,,,,,,,,,,,,,,,,,,,,,,51,156736,19,Female,1,2024/02/13_10:38:43,YZ,59.82189919766369,
,,,,,,practice,0,31,3,250,3,X,0,right,0.8075374759937404,1,0,,,,,,,,,,,,,,,,,,,,,1,,,,,,,,,,,,,,,,,,,,,,,,,,,,,,,,,,,,,,,,,,,,,,51,156736,19,Female,1,2024/02/13_10:38:43,YZ,59.82189919766369,
,,,,,,practice,0,31,3,250,4,V,1,right,0.5874064609961351,0,0,,,,,,,,,,,,,,,,,,,,,1,,,,,,,,,,,,,,,,,,,,,,,,,,,,,,,,,,,,,,,,,,,,,,51,156736,19,Female,1,2024/02/13_10:38:43,YZ,59.82189919766369,
,,,,,,practice,0,31,3,250,5,J,0,right,0.5973820510116639,1,0,,,,,,,,,,,,,,,,,,,,,1,,,,,,,,,,,,,,,,,,,,,,,,,,,,,,,,,,,,,,,,,,,,,,51,156736,19,Female,1,2024/02/13_10:38:43,YZ,59.82189919766369,
,,,,,,practice,0,31,3,250,6,X,1,right,0.6172975560039049,0,0,,,,,,,,,,,,,,,,,,,,,1,,,,,,,,,,,,,,,,,,,,,,,,,,,,,,,,,,,,,,,,,,,,,,51,156736,19,Female,1,2024/02/13_10:38:43,YZ,59.82189919766369,
,,,,,,practice,0,31,3,250,7,C,0,right,0.4288525879965164,1,0,,,,,,,,,,,,,,,,,,,,,1,,,,,,,,,,,,,,,,,,,,,,,,,,,,,,,,,,,,,,,,,,,,,,51,156736,19,Female,1,2024/02/13_10:38:43,YZ,59.82189919766369,
,,,,,,practice,0,31,3,250,8,V,0,right,0.4572542149981018,1,0,,,,,,,,,,,,,,,,,,,,,1,,,,,,,,,,,,,,,,,,,,,,,,,,,,,,,,,,,,,,,,,,,,,,51,156736,19,Female,1,2024/02/13_10:38:43,YZ,59.82189919766369,
,,,,,,practice,0,31,3,250,9,X,1,right,0.3301468519930495,0,0,,,,,,,,,,,,,,,,,,,,,1,,,,,,,,,,,,,,,,,,,,,,,,,,,,,,,,,,,,,,,,,,,,,,51,156736,19,Female,1,2024/02/13_10:38:43,YZ,59.82189919766369,
,,,,,,practice,0,31,3,250,10,V,0,right,0.7018953329970827,1,0,,,,,,,,,,,,,,,,,,,,,1,,,,,,,,,,,,,,,,,,,,,,,,,,,,,,,,,,,,,,,,,,,,,,51,156736,19,Female,1,2024/02/13_10:38:43,YZ,59.82189919766369,
,,,,,,practice,0,31,3,250,11,F,0,right,0.5302334379957756,1,0,,,,,,,,,,,,,,,,,,,,,1,,,,,,,,,,,,,,,,,,,,,,,,,,,,,,,,,,,,,,,,,,,,,,51,156736,19,Female,1,2024/02/13_10:38:43,YZ,59.82189919766369,
,,,,,,practice,0,31,3,250,12,X,1,right,0.8500348109955667,0,0,,,,,,,,,,,,,,,,,,,,,1,,,,,,,,,,,,,,,,,,,,,,,,,,,,,,,,,,,,,,,,,,,,,,51,156736,19,Female,1,2024/02/13_10:38:43,YZ,59.82189919766369,
,,,,,,practice,0,31,3,250,13,C,0,right,0.544011669990141,1,0,,,,,,,,,,,,,,,,,,,,,1,,,,,,,,,,,,,,,,,,,,,,,,,,,,,,,,,,,,,,,,,,,,,,51,156736,19,Female,1,2024/02/13_10:38:43,YZ,59.82189919766369,
,,,,,,practice,0,31,3,250,14,X,0,right,0.2668197059974773,1,0,,,,,,,,,,,,,,,,,,,,,1,,,,,,,,,,,,,,,,,,,,,,,,,,,,,,,,,,,,,,,,,,,,,,51,156736,19,Female,1,2024/02/13_10:38:43,YZ,59.82189919766369,
,,,,,,practice,0,31,3,250,15,C,0,right,0.12533556600101292,1,0,,,,,,,,,,,,,,,,,,,,,1,,,,,,,,,,,,,,,,,,,,,,,,,,,,,,,,,,,,,,,,,,,,,,51,156736,19,Female,1,2024/02/13_10:38:43,YZ,59.82189919766369,
,,,,,,practice,0,31,3,250,16,V,0,right,0.041854219991364516,1,0,,,,,,,,,,,,,,,,,,,,,1,,,,,,,,,,,,,,,,,,,,,,,,,,,,,,,,,,,,,,,,,,,,,,51,156736,19,Female,1,2024/02/13_10:38:43,YZ,59.82189919766369,
,,,,,,practice,0,31,3,250,17,F,0,right,0.5465948499913793,1,0,,,,,,,,,,,,,,,,,,,,,1,,,,,,,,,,,,,,,,,,,,,,,,,,,,,,,,,,,,,,,,,,,,,,51,156736,19,Female,1,2024/02/13_10:38:43,YZ,59.82189919766369,
,,,,,,practice,0,31,3,250,18,N,0,left,0.01241155099705793,0,0,,,,,,,,,,,,,,,,,,,,,1,,,,,,,,,,,,,,,,,,,,,,,,,,,,,,,,,,,,,,,,,,,,,,51,156736,19,Female,1,2024/02/13_10:38:43,YZ,59.82189919766369,
,,,,,,practice,0,31,3,250,19,S,0,right,0.11378960900765378,1,0,,,,,,,,,,,,,,,,,,,,,1,,,,,,,,,,,,,,,,,,,,,,,,,,,,,,,,,,,,,,,,,,,,,,51,156736,19,Female,1,2024/02/13_10:38:43,YZ,59.82189919766369,
,,,,,,practice,0,31,3,250,20,F,1,right,0.1331126779987244,0,0,,,,,,,,,,,,,,,,,,,,,1,,,,,,,,,,,,,,,,,,,,,,,,,,,,,,,,,,,,,,,,,,,,,,51,156736,19,Female,1,2024/02/13_10:38:43,YZ,59.82189919766369,
,,,,,,practice,0,31,3,250,,,,,,,,0.23333333333333334,0.0,0.06666666666666667,0.9333333333333333,0.0,0.9333333333333333,0.5249132857985387,0,1,0,0,0,14,14,5,15,0,,,,1,,,,,,,,,,,,,,,,,,,,,,,,,,,,,,,,,,,,,,,,,,,,,,51,156736,19,Female,1,2024/02/13_10:38:43,YZ,59.82189919766369,
,,,,,,practice,0,11,3,250,1,C,0,right,0.7330752499983646,1,0,,,,,,,,,,,,,,,,,,,,,1,,,,,,,,,,,,,,,,,,,,,,,,,,,,,,,,,,,,,,,,,,,,,,51,156736,19,Female,1,2024/02/13_10:38:43,YZ,59.82189919766369,
,,,,,,practice,0,11,3,250,2,X,0,right,0.27504678699187934,1,0,,,,,,,,,,,,,,,,,,,,,1,,,,,,,,,,,,,,,,,,,,,,,,,,,,,,,,,,,,,,,,,,,,,,51,156736,19,Female,1,2024/02/13_10:38:43,YZ,59.82189919766369,
,,,,,,practice,0,11,3,250,3,C,0,right,0.37294871600170154,1,0,,,,,,,,,,,,,,,,,,,,,1,,,,,,,,,,,,,,,,,,,,,,,,,,,,,,,,,,,,,,,,,,,,,,51,156736,19,Female,1,2024/02/13_10:38:43,YZ,59.82189919766369,
,,,,,,practice,0,11,3,250,4,C,1,left,1.3264111699973,1,0,,,,,,,,,,,,,,,,,,,,,1,,,,,,,,,,,,,,,,,,,,,,,,,,,,,,,,,,,,,,,,,,,,,,51,156736,19,Female,1,2024/02/13_10:38:43,YZ,59.82189919766369,
,,,,,,practice,0,11,3,250,5,V,0,right,0.8898282300069695,1,0,,,,,,,,,,,,,,,,,,,,,1,,,,,,,,,,,,,,,,,,,,,,,,,,,,,,,,,,,,,,,,,,,,,,51,156736,19,Female,1,2024/02/13_10:38:43,YZ,59.82189919766369,
,,,,,,practice,0,11,3,250,6,V,0,right,0.7862696959928144,1,0,,,,,,,,,,,,,,,,,,,,,1,,,,,,,,,,,,,,,,,,,,,,,,,,,,,,,,,,,,,,,,,,,,,,51,156736,19,Female,1,2024/02/13_10:38:43,YZ,59.82189919766369,
,,,,,,practice,0,11,3,250,7,N,0,right,0.6795940060110297,1,0,,,,,,,,,,,,,,,,,,,,,1,,,,,,,,,,,,,,,,,,,,,,,,,,,,,,,,,,,,,,,,,,,,,,51,156736,19,Female,1,2024/02/13_10:38:43,YZ,59.82189919766369,
,,,,,,practice,0,11,3,250,8,X,0,right,1.500320911000017,1,0,,,,,,,,,,,,,,,,,,,,,1,,,,,,,,,,,,,,,,,,,,,,,,,,,,,,,,,,,,,,,,,,,,,,51,156736,19,Female,1,2024/02/13_10:38:43,YZ,59.82189919766369,
,,,,,,practice,0,11,3,250,9,X,0,right,0.2210599169920897,1,0,,,,,,,,,,,,,,,,,,,,,1,,,,,,,,,,,,,,,,,,,,,,,,,,,,,,,,,,,,,,,,,,,,,,51,156736,19,Female,1,2024/02/13_10:38:43,YZ,59.82189919766369,
,,,,,,practice,0,11,3,250,10,N,1,right,0.9404407789988909,0,0,,,,,,,,,,,,,,,,,,,,,1,,,,,,,,,,,,,,,,,,,,,,,,,,,,,,,,,,,,,,,,,,,,,,51,156736,19,Female,1,2024/02/13_10:38:43,YZ,59.82189919766369,
,,,,,,practice,0,11,3,250,11,C,0,right,0.455474313988816,1,0,,,,,,,,,,,,,,,,,,,,,1,,,,,,,,,,,,,,,,,,,,,,,,,,,,,,,,,,,,,,,,,,,,,,51,156736,19,Female,1,2024/02/13_10:38:43,YZ,59.82189919766369,
,,,,,,practice,0,11,3,250,12,X,1,left,0.7643773989984766,1,0,,,,,,,,,,,,,,,,,,,,,1,,,,,,,,,,,,,,,,,,,,,,,,,,,,,,,,,,,,,,,,,,,,,,51,156736,19,Female,1,2024/02/13_10:38:43,YZ,59.82189919766369,
,,,,,,practice,0,11,3,250,13,V,0,right,0.45653016699361615,1,0,,,,,,,,,,,,,,,,,,,,,1,,,,,,,,,,,,,,,,,,,,,,,,,,,,,,,,,,,,,,,,,,,,,,51,156736,19,Female,1,2024/02/13_10:38:43,YZ,59.82189919766369,
,,,,,,practice,0,11,3,250,14,J,0,right,0.3941722750023473,1,0,,,,,,,,,,,,,,,,,,,,,1,,,,,,,,,,,,,,,,,,,,,,,,,,,,,,,,,,,,,,,,,,,,,,51,156736,19,Female,1,2024/02/13_10:38:43,YZ,59.82189919766369,
,,,,,,practice,0,11,3,250,15,X,1,left,0.5620110250019934,1,0,,,,,,,,,,,,,,,,,,,,,1,,,,,,,,,,,,,,,,,,,,,,,,,,,,,,,,,,,,,,,,,,,,,,51,156736,19,Female,1,2024/02/13_10:38:43,YZ,59.82189919766369,
,,,,,,practice,0,11,3,250,16,X,0,right,0.39706727099837735,1,0,,,,,,,,,,,,,,,,,,,,,1,,,,,,,,,,,,,,,,,,,,,,,,,,,,,,,,,,,,,,,,,,,,,,51,156736,19,Female,1,2024/02/13_10:38:43,YZ,59.82189919766369,
,,,,,,practice,0,11,3,250,17,J,1,right,1.0821080599998822,0,0,,,,,,,,,,,,,,,,,,,,,1,,,,,,,,,,,,,,,,,,,,,,,,,,,,,,,,,,,,,,,,,,,,,,51,156736,19,Female,1,2024/02/13_10:38:43,YZ,59.82189919766369,
,,,,,,practice,0,11,3,250,18,X,1,right,0.32444913500512484,0,0,,,,,,,,,,,,,,,,,,,,,1,,,,,,,,,,,,,,,,,,,,,,,,,,,,,,,,,,,,,,,,,,,,,,51,156736,19,Female,1,2024/02/13_10:38:43,YZ,59.82189919766369,
,,,,,,practice,0,11,3,250,19,C,0,right,0.0,1,0,,,,,,,,,,,,,,,,,,,,,1,,,,,,,,,,,,,,,,,,,,,,,,,,,,,,,,,,,,,,,,,,,,,,51,156736,19,Female,1,2024/02/13_10:38:43,YZ,59.82189919766369,
,,,,,,practice,0,11,3,250,20,N,0,left,0.050573988002724946,0,0,,,,,,,,,,,,,,,,,,,,,1,,,,,,,,,,,,,,,,,,,,,,,,,,,,,,,,,,,,,,,,,,,,,,51,156736,19,Female,1,2024/02/13_10:38:43,YZ,59.82189919766369,
,,,,,,practice,0,11,3,250,,,,,,,,0.8214285714285715,0.5,0.07142857142857142,0.9285714285714286,0.0,0.9285714285714286,0.6105879547991208,3,1,0,0,0,13,16,6,14,0,,,,1,,,,,,,,,,,,,,,,,,,,,,,,,,,,,,,,,,,,,,,,,,,,,,51,156736,19,Female,1,2024/02/13_10:38:43,YZ,59.82189919766369,
1,./instructions/inst_prac_main/Slide51.png,right,1.4981880450068275,630.3854045269982,631.883592572005,,,,,,,,,,,,,,,,,,,,,,,,,,,,,,,,,1,,,,,,,,,,,,,,,,,,,,,,,,,,,,,,,,,,,,,,,,,,,,,,51,156736,19,Female,1,2024/02/13_10:38:43,YZ,59.82189919766369,
2,./instructions/inst_prac_main/Slide52.png,right,6.753288495005108,631.9544933309953,638.7077818260004,,,,,,,,,,,,,,,,,,,,,,,,,,,,,,,,,1,,,,,,,,,,,,,,,,,,,,,,,,,,,,,,,,,,,,,,,,,,,,,,51,156736,19,Female,1,2024/02/13_10:38:43,YZ,59.82189919766369,
3,./instructions/inst_prac_main/Slide53.png,right,2.5593852540041553,638.7642583080014,641.3236435620056,,,,,,,,,,,,,,,,,,,,,,,,,,,,,,,,,1,,,,,,,,,,,,,,,,,,,,,,,,,,,,,,,,,,,,,,,,,,,,,,51,156736,19,Female,1,2024/02/13_10:38:43,YZ,59.82189919766369,
4,./instructions/inst_prac_main/Slide54.png,right,0.20057670399546623,641.3866652599972,641.5872419639927,,,,,,,,,,,,,,,,,,,,,,,,,,,,,,,,,1,,,,,,,,,,,,,,,,,,,,,,,,,,,,,,,,,,,,,,,,,,,,,,51,156736,19,Female,1,2024/02/13_10:38:43,YZ,59.82189919766369,
,,,,,,practice_main,0,1,1,250,1,Q,0,None,nan,0,1,,,,,,,,,,,,,,,,,,,,,1,,,,,,,,,,,,,,,,,,,,,,,,,,,,,,,,,,,,,,,,,,,,,,51,156736,19,Female,1,2024/02/13_10:38:43,YZ,59.82189919766369,
,,,,,,practice_main,0,1,1,250,2,X,0,right,0.7100535749923438,1,0,,,,,,,,,,,,,,,,,,,,,1,,,,,,,,,,,,,,,,,,,,,,,,,,,,,,,,,,,,,,,,,,,,,,51,156736,19,Female,1,2024/02/13_10:38:43,YZ,59.82189919766369,
,,,,,,practice_main,0,1,1,250,3,Q,0,left,0.14051169900631066,0,0,,,,,,,,,,,,,,,,,,,,,1,,,,,,,,,,,,,,,,,,,,,,,,,,,,,,,,,,,,,,,,,,,,,,51,156736,19,Female,1,2024/02/13_10:38:43,YZ,59.82189919766369,
,,,,,,practice_main,0,1,1,250,4,N,0,right,0.5428175429988187,1,0,,,,,,,,,,,,,,,,,,,,,1,,,,,,,,,,,,,,,,,,,,,,,,,,,,,,,,,,,,,,,,,,,,,,51,156736,19,Female,1,2024/02/13_10:38:43,YZ,59.82189919766369,
,,,,,,practice_main,0,1,1,250,5,S,0,right,0.4546696070028702,1,0,,,,,,,,,,,,,,,,,,,,,1,,,,,,,,,,,,,,,,,,,,,,,,,,,,,,,,,,,,,,,,,,,,,,51,156736,19,Female,1,2024/02/13_10:38:43,YZ,59.82189919766369,
,,,,,,practice_main,0,1,1,250,6,S,1,right,0.26179421800770797,0,0,,,,,,,,,,,,,,,,,,,,,1,,,,,,,,,,,,,,,,,,,,,,,,,,,,,,,,,,,,,,,,,,,,,,51,156736,19,Female,1,2024/02/13_10:38:43,YZ,59.82189919766369,
,,,,,,practice_main,0,1,1,250,7,X,0,right,0.4309355930017773,1,0,,,,,,,,,,,,,,,,,,,,,1,,,,,,,,,,,,,,,,,,,,,,,,,,,,,,,,,,,,,,,,,,,,,,51,156736,19,Female,1,2024/02/13_10:38:43,YZ,59.82189919766369,
,,,,,,practice_main,0,1,1,250,8,S,0,right,0.2867294510069769,1,0,,,,,,,,,,,,,,,,,,,,,1,,,,,,,,,,,,,,,,,,,,,,,,,,,,,,,,,,,,,,,,,,,,,,51,156736,19,Female,1,2024/02/13_10:38:43,YZ,59.82189919766369,
,,,,,,practice_main,0,1,1,250,9,F,0,right,0.2303684689977672,1,0,,,,,,,,,,,,,,,,,,,,,1,,,,,,,,,,,,,,,,,,,,,,,,,,,,,,,,,,,,,,,,,,,,,,51,156736,19,Female,1,2024/02/13_10:38:43,YZ,59.82189919766369,
,,,,,,practice_main,0,1,1,250,10,N,0,right,0.20770550600718707,1,0,,,,,,,,,,,,,,,,,,,,,1,,,,,,,,,,,,,,,,,,,,,,,,,,,,,,,,,,,,,,,,,,,,,,51,156736,19,Female,1,2024/02/13_10:38:43,YZ,59.82189919766369,
,,,,,,practice_main,0,1,1,250,11,N,1,right,0.18106658299802803,0,0,,,,,,,,,,,,,,,,,,,,,1,,,,,,,,,,,,,,,,,,,,,,,,,,,,,,,,,,,,,,,,,,,,,,51,156736,19,Female,1,2024/02/13_10:38:43,YZ,59.82189919766369,
,,,,,,practice_main,0,1,1,250,12,X,0,right,0.0993385199981276,1,0,,,,,,,,,,,,,,,,,,,,,1,,,,,,,,,,,,,,,,,,,,,,,,,,,,,,,,,,,,,,,,,,,,,,51,156736,19,Female,1,2024/02/13_10:38:43,YZ,59.82189919766369,
,,,,,,practice_main,0,1,1,250,13,V,0,right,0.05239092199190054,1,0,,,,,,,,,,,,,,,,,,,,,1,,,,,,,,,,,,,,,,,,,,,,,,,,,,,,,,,,,,,,,,,,,,,,51,156736,19,Female,1,2024/02/13_10:38:43,YZ,59.82189919766369,
,,,,,,practice_main,0,1,1,250,14,V,1,right,0.2129540360037936,0,0,,,,,,,,,,,,,,,,,,,,,1,,,,,,,,,,,,,,,,,,,,,,,,,,,,,,,,,,,,,,,,,,,,,,51,156736,19,Female,1,2024/02/13_10:38:43,YZ,59.82189919766369,
,,,,,,practice_main,0,1,1,250,15,Q,0,left,0.4971788909897441,0,0,,,,,,,,,,,,,,,,,,,,,1,,,,,,,,,,,,,,,,,,,,,,,,,,,,,,,,,,,,,,,,,,,,,,51,156736,19,Female,1,2024/02/13_10:38:43,YZ,59.82189919766369,
,,,,,,practice_main,0,1,1,250,16,C,0,right,0.031957248007529415,1,0,,,,,,,,,,,,,,,,,,,,,1,,,,,,,,,,,,,,,,,,,,,,,,,,,,,,,,,,,,,,,,,,,,,,51,156736,19,Female,1,2024/02/13_10:38:43,YZ,59.82189919766369,
,,,,,,practice_main,0,1,1,250,17,Q,0,right,0.05320234100508969,1,0,,,,,,,,,,,,,,,,,,,,,1,,,,,,,,,,,,,,,,,,,,,,,,,,,,,,,,,,,,,,,,,,,,,,51,156736,19,Female,1,2024/02/13_10:38:43,YZ,59.82189919766369,
,,,,,,practice_main,0,1,1,250,18,Q,1,right,0.15016435900179204,0,0,,,,,,,,,,,,,,,,,,,,,1,,,,,,,,,,,,,,,,,,,,,,,,,,,,,,,,,,,,,,,,,,,,,,51,156736,19,Female,1,2024/02/13_10:38:43,YZ,59.82189919766369,
,,,,,,practice_main,0,1,1,250,19,F,0,right,0.1333054610004183,1,0,,,,,,,,,,,,,,,,,,,,,1,,,,,,,,,,,,,,,,,,,,,,,,,,,,,,,,,,,,,,,,,,,,,,51,156736,19,Female,1,2024/02/13_10:38:43,YZ,59.82189919766369,
,,,,,,practice_main,0,1,1,250,20,F,1,right,0.05114629599847831,0,0,,,,,,,,,,,,,,,,,,,,,1,,,,,,,,,,,,,,,,,,,,,,,,,,,,,,,,,,,,,,,,,,,,,,51,156736,19,Female,1,2024/02/13_10:38:43,YZ,59.82189919766369,
,,,,,,practice_main,0,1,1,250,,,,,,,,0.21666666666666667,0.0,0.13333333333333333,0.8571428571428571,0.05,0.8166666666666667,0.24885738515877165,0,2,0,1,1,12,12,5,15,0,,,,1,,,,,,,,,,,,,,,,,,,,,,,,,,,,,,,,,,,,,,,,,,,,,,51,156736,19,Female,1,2024/02/13_10:38:43,YZ,59.82189919766369,
,,,,,240213_110628,PRACTICE,0,1,1,250,,,,,,,,,,,,,,,,,,,,,,,,,,,,1,37,2,1,cue1.png,easy,A,17,2.0521635339973727,0,653.2196910839994,655.2947833170037,,,,,,,,,,,,,,,,,,,,,,,,,,,,,,,,,,,51,156736,19,Female,1,2024/02/13_10:38:43,YZ,59.82189919766369,
,,,,,,practice_main,0,2,3,250,1,Q,0,None,nan,0,1,,,,,,,,,,,,,,,,,,,,,1,,,,,,,,,,,,,,,,,,,,,,,,,,,,,,,,,,,,,,,,,,,,,,51,156736,19,Female,1,2024/02/13_10:38:43,YZ,59.82189919766369,
,,,,,,practice_main,0,2,3,250,2,N,0,right,0.0,1,0,,,,,,,,,,,,,,,,,,,,,1,,,,,,,,,,,,,,,,,,,,,,,,,,,,,,,,,,,,,,,,,,,,,,51,156736,19,Female,1,2024/02/13_10:38:43,YZ,59.82189919766369,
,,,,,,practice_main,0,2,3,250,3,N,0,right,0.6370298499969067,1,0,,,,,,,,,,,,,,,,,,,,,1,,,,,,,,,,,,,,,,,,,,,,,,,,,,,,,,,,,,,,,,,,,,,,51,156736,19,Female,1,2024/02/13_10:38:43,YZ,59.82189919766369,
,,,,,,practice_main,0,2,3,250,4,Q,1,right,0.336122715001693,0,0,,,,,,,,,,,,,,,,,,,,,1,,,,,,,,,,,,,,,,,,,,,,,,,,,,,,,,,,,,,,,,,,,,,,51,156736,19,Female,1,2024/02/13_10:38:43,YZ,59.82189919766369,
,,,,,,practice_main,0,2,3,250,5,C,0,right,0.2216509129939368,1,0,,,,,,,,,,,,,,,,,,,,,1,,,,,,,,,,,,,,,,,,,,,,,,,,,,,,,,,,,,,,,,,,,,,,51,156736,19,Female,1,2024/02/13_10:38:43,YZ,59.82189919766369,
,,,,,,practice_main,0,2,3,250,6,C,0,right,0.20547768799588084,1,0,,,,,,,,,,,,,,,,,,,,,1,,,,,,,,,,,,,,,,,,,,,,,,,,,,,,,,,,,,,,,,,,,,,,51,156736,19,Female,1,2024/02/13_10:38:43,YZ,59.82189919766369,
,,,,,,practice_main,0,2,3,250,7,S,0,right,0.19936732099449728,1,0,,,,,,,,,,,,,,,,,,,,,1,,,,,,,,,,,,,,,,,,,,,,,,,,,,,,,,,,,,,,,,,,,,,,51,156736,19,Female,1,2024/02/13_10:38:43,YZ,59.82189919766369,
,,,,,,practice_main,0,2,3,250,8,S,0,right,0.22875078200013377,1,0,,,,,,,,,,,,,,,,,,,,,1,,,,,,,,,,,,,,,,,,,,,,,,,,,,,,,,,,,,,,,,,,,,,,51,156736,19,Female,1,2024/02/13_10:38:43,YZ,59.82189919766369,
,,,,,,practice_main,0,2,3,250,9,N,0,right,0.2110117230040487,1,0,,,,,,,,,,,,,,,,,,,,,1,,,,,,,,,,,,,,,,,,,,,,,,,,,,,,,,,,,,,,,,,,,,,,51,156736,19,Female,1,2024/02/13_10:38:43,YZ,59.82189919766369,
,,,,,,practice_main,0,2,3,250,10,S,1,right,nan,0,1,,,,,,,,,,,,,,,,,,,,,1,,,,,,,,,,,,,,,,,,,,,,,,,,,,,,,,,,,,,,,,,,,,,,51,156736,19,Female,1,2024/02/13_10:38:43,YZ,59.82189919766369,
,,,,,,practice_main,0,2,3,250,11,Q,0,right,0.5979306280059973,1,0,,,,,,,,,,,,,,,,,,,,,1,,,,,,,,,,,,,,,,,,,,,,,,,,,,,,,,,,,,,,,,,,,,,,51,156736,19,Female,1,2024/02/13_10:38:43,YZ,59.82189919766369,
,,,,,,practice_main,0,2,3,250,12,S,0,right,0.29942273801134434,1,0,,,,,,,,,,,,,,,,,,,,,1,,,,,,,,,,,,,,,,,,,,,,,,,,,,,,,,,,,,,,,,,,,,,,51,156736,19,Female,1,2024/02/13_10:38:43,YZ,59.82189919766369,
,,,,,,practice_main,0,2,3,250,13,S,1,left,0.4329990539990831,1,0,,,,,,,,,,,,,,,,,,,,,1,,,,,,,,,,,,,,,,,,,,,,,,,,,,,,,,,,,,,,,,,,,,,,51,156736,19,Female,1,2024/02/13_10:38:43,YZ,59.82189919766369,
,,,,,,practice_main,0,2,3,250,14,V,0,right,0.2074889939976856,1,0,,,,,,,,,,,,,,,,,,,,,1,,,,,,,,,,,,,,,,,,,,,,,,,,,,,,,,,,,,,,,,,,,,,,51,156736,19,Female,1,2024/02/13_10:38:43,YZ,59.82189919766369,
,,,,,,practice_main,0,2,3,250,15,Q,0,right,0.27444175801065285,1,0,,,,,,,,,,,,,,,,,,,,,1,,,,,,,,,,,,,,,,,,,,,,,,,,,,,,,,,,,,,,,,,,,,,,51,156736,19,Female,1,2024/02/13_10:38:43,YZ,59.82189919766369,
,,,,,,practice_main,0,2,3,250,16,S,1,right,0.3792159150034422,0,0,,,,,,,,,,,,,,,,,,,,,1,,,,,,,,,,,,,,,,,,,,,,,,,,,,,,,,,,,,,,,,,,,,,,51,156736,19,Female,1,2024/02/13_10:38:43,YZ,59.82189919766369,
,,,,,,practice_main,0,2,3,250,17,V,1,right,0.2561203689983813,0,0,,,,,,,,,,,,,,,,,,,,,1,,,,,,,,,,,,,,,,,,,,,,,,,,,,,,,,,,,,,,,,,,,,,,51,156736,19,Female,1,2024/02/13_10:38:43,YZ,59.82189919766369,
,,,,,,practice_main,0,2,3,250,18,N,0,right,0.2312172259989893,1,0,,,,,,,,,,,,,,,,,,,,,1,,,,,,,,,,,,,,,,,,,,,,,,,,,,,,,,,,,,,,,,,,,,,,51,156736,19,Female,1,2024/02/13_10:38:43,YZ,59.82189919766369,
,,,,,,practice_main,0,2,3,250,19,J,0,right,0.25381098499929067,1,0,,,,,,,,,,,,,,,,,,,,,1,,,,,,,,,,,,,,,,,,,,,,,,,,,,,,,,,,,,,,,,,,,,,,51,156736,19,Female,1,2024/02/13_10:38:43,YZ,59.82189919766369,
,,,,,,practice_main,0,2,3,250,20,S,0,right,0.2140588089969242,1,0,,,,,,,,,,,,,,,,,,,,,1,,,,,,,,,,,,,,,,,,,,,,,,,,,,,,,,,,,,,,,,,,,,,,51,156736,19,Female,1,2024/02/13_10:38:43,YZ,59.82189919766369,
,,,,,,practice_main,0,2,3,250,,,,,,,,0.8,0.2,0.0,1.0,0.1,0.9,0.2881176371116049,1,0,1,1,2,14,15,5,15,0,,,,1,,,,,,,,,,,,,,,,,,,,,,,,,,,,,,,,,,,,,,,,,,,,,,51,156736,19,Female,1,2024/02/13_10:38:43,YZ,59.82189919766369,
,,,,,240213_110656,PRACTICE,0,2,3,250,,,,,,,,,,,,,,,,,,,,,,,,,,,,1,31,3,2,cue2.png,hard,A,35,0.17070691000844818,0,680.743546911006,680.9283140040061,,,,,,,,,,,,,,,,,,,,,,,,,,,,,,,,,,,51,156736,19,Female,1,2024/02/13_10:38:43,YZ,59.82189919766369,
,,,,,,practice_main,0,3,3,250,1,N,0,None,nan,0,1,,,,,,,,,,,,,,,,,,,,,1,,,,,,,,,,,,,,,,,,,,,,,,,,,,,,,,,,,,,,,,,,,,,,51,156736,19,Female,1,2024/02/13_10:38:43,YZ,59.82189919766369,
,,,,,,practice_main,0,3,3,250,2,S,0,right,0.0,1,0,,,,,,,,,,,,,,,,,,,,,1,,,,,,,,,,,,,,,,,,,,,,,,,,,,,,,,,,,,,,,,,,,,,,51,156736,19,Female,1,2024/02/13_10:38:43,YZ,59.82189919766369,
,,,,,,practice_main,0,3,3,250,3,N,0,right,0.23360961499565747,1,0,,,,,,,,,,,,,,,,,,,,,1,,,,,,,,,,,,,,,,,,,,,,,,,,,,,,,,,,,,,,,,,,,,,,51,156736,19,Female,1,2024/02/13_10:38:43,YZ,59.82189919766369,
,,,,,,practice_main,0,3,3,250,4,Q,0,right,0.23075113599770702,1,0,,,,,,,,,,,,,,,,,,,,,1,,,,,,,,,,,,,,,,,,,,,,,,,,,,,,,,,,,,,,,,,,,,,,51,156736,19,Female,1,2024/02/13_10:38:43,YZ,59.82189919766369,
,,,,,,practice_main,0,3,3,250,5,F,0,right,0.21305256700725295,1,0,,,,,,,,,,,,,,,,,,,,,1,,,,,,,,,,,,,,,,,,,,,,,,,,,,,,,,,,,,,,,,,,,,,,51,156736,19,Female,1,2024/02/13_10:38:43,YZ,59.82189919766369,
,,,,,,practice_main,0,3,3,250,6,S,0,right,0.20246703999873716,1,0,,,,,,,,,,,,,,,,,,,,,1,,,,,,,,,,,,,,,,,,,,,,,,,,,,,,,,,,,,,,,,,,,,,,51,156736,19,Female,1,2024/02/13_10:38:43,YZ,59.82189919766369,
