subj_idx,ChoiceRT,ChoiceDemand,TaskDemand,trial,DemandAversive_on,DemandAversive_off_T1,DemandAversive_off_T2,DemandAversive_off_T3,DemandAvoidance_true,response,rt,split_by,feedback,q_init
40,0.016549961,easy,mid,1,no_demand_aversive,no_demand_aversive,demand_aversive,demand_aversive,demand_avoid,1,0.016549961,0,0.5,0.5
40,0.017135813,hard,mid,2,no_demand_aversive,no_demand_aversive,demand_aversive,demand_aversive,demand_avoid,0,0.017135813,0,0.5,0.5
40,0.016105594,easy,mid,3,no_demand_aversive,no_demand_aversive,demand_aversive,demand_aversive,demand_avoid,1,0.016105594,0,0.5,0.5
40,0.015543748,hard,mid,4,no_demand_aversive,no_demand_aversive,demand_aversive,demand_aversive,demand_avoid,0,0.015543748,0,0.5,0.5
40,0.016075635,hard,mid,5,no_demand_aversive,no_demand_aversive,demand_aversive,demand_aversive,demand_avoid,0,0.016075635,0,0.5,0.5
40,0.018364395,easy,mid,6,no_demand_aversive,no_demand_aversive,demand_aversive,demand_aversive,demand_avoid,1,0.018364395,0,0.5,0.5
40,0.017815836,easy,mid,7,no_demand_aversive,no_demand_aversive,demand_aversive,demand_aversive,demand_avoid,1,0.017815836,0,0.5,0.5
40,0.017348902,hard,mid,8,no_demand_aversive,no_demand_aversive,demand_aversive,demand_aversive,demand_avoid,0,0.017348902,0,0.5,0.5
40,0.017883712,hard,mid,9,no_demand_aversive,no_demand_aversive,demand_aversive,demand_aversive,demand_avoid,0,0.017883712,0,0.5,0.5
40,0.01562979,easy,mid,10,no_demand_aversive,no_demand_aversive,demand_aversive,demand_aversive,demand_avoid,1,0.01562979,0,0.5,0.5
40,0.015457799,hard,mid,11,no_demand_aversive,no_demand_aversive,demand_aversive,demand_aversive,demand_avoid,0,0.015457799,0,0.5,0.5
40,0.016870091,easy,mid,12,no_demand_aversive,no_demand_aversive,demand_aversive,demand_aversive,demand_avoid,1,0.016870091,0,0.5,0.5
40,0.016957893,hard,mid,13,no_demand_aversive,no_demand_aversive,demand_aversive,demand_aversive,demand_avoid,0,0.016957893,0,0.5,0.5
40,0.016134831,easy,mid,14,no_demand_aversive,no_demand_aversive,demand_aversive,demand_aversive,demand_avoid,1,0.016134831,0,0.5,0.5
40,0.017496859,hard,mid,15,no_demand_aversive,no_demand_aversive,demand_aversive,demand_aversive,demand_avoid,0,0.017496859,0,0.5,0.5
40,0.016020022,hard,mid,16,no_demand_aversive,no_demand_aversive,demand_aversive,demand_aversive,demand_avoid,0,0.016020022,0,0.5,0.5
40,0.017367216,easy,mid,17,no_demand_aversive,no_demand_aversive,demand_aversive,demand_aversive,demand_avoid,1,0.017367216,0,0.5,0.5
40,0.016445387,easy,mid,18,no_demand_aversive,no_demand_aversive,demand_aversive,demand_aversive,demand_avoid,1,0.016445387,0,0.5,0.5
40,0.017799786,hard,mid,19,no_demand_aversive,no_demand_aversive,demand_aversive,demand_aversive,demand_avoid,0,0.017799786,0,0.5,0.5
40,0.018038615,hard,mid,20,no_demand_aversive,no_demand_aversive,demand_aversive,demand_aversive,demand_avoid,0,0.018038615,0,0.5,0.5
40,0.017763973,hard,mid,21,no_demand_aversive,no_demand_aversive,demand_aversive,demand_aversive,demand_avoid,0,0.017763973,0,0.5,0.5
40,0.015944959,hard,mid,22,no_demand_aversive,no_demand_aversive,demand_aversive,demand_aversive,demand_avoid,0,0.015944959,0,0.5,0.5
40,0.01680001,hard,mid,23,no_demand_aversive,no_demand_aversive,demand_aversive,demand_aversive,demand_avoid,0,0.01680001,0,0.5,0.5
40,0.016062737,easy,mid,24,no_demand_aversive,no_demand_aversive,demand_aversive,demand_aversive,demand_avoid,1,0.016062737,0,0.5,0.5
40,0.016934861,hard,mid,25,no_demand_aversive,no_demand_aversive,demand_aversive,demand_aversive,demand_avoid,0,0.016934861,0,0.5,0.5
40,0.016629748,hard,mid,26,no_demand_aversive,no_demand_aversive,demand_aversive,demand_aversive,demand_avoid,0,0.016629748,0,0.5,0.5
40,0.01561407,hard,mid,27,no_demand_aversive,no_demand_aversive,demand_aversive,demand_aversive,demand_avoid,0,0.01561407,0,0.5,0.5
40,0.017904457,easy,mid,28,no_demand_aversive,no_demand_aversive,demand_aversive,demand_aversive,demand_avoid,1,0.017904457,0,0.5,0.5
40,0.018214894,hard,mid,29,no_demand_aversive,no_demand_aversive,demand_aversive,demand_aversive,demand_avoid,0,0.018214894,0,0.5,0.5
40,0.015048601,hard,mid,30,no_demand_aversive,no_demand_aversive,demand_aversive,demand_aversive,demand_avoid,0,0.015048601,0,0.5,0.5
40,0.01620281,hard,mid,31,no_demand_aversive,no_demand_aversive,demand_aversive,demand_aversive,demand_avoid,0,0.01620281,0,0.5,0.5
40,0.017996753,hard,mid,32,no_demand_aversive,no_demand_aversive,demand_aversive,demand_aversive,demand_avoid,0,0.017996753,0,0.5,0.5
40,0.017037333,hard,mid,33,no_demand_aversive,no_demand_aversive,demand_aversive,demand_aversive,demand_avoid,0,0.017037333,0,0.5,0.5
40,0.016433782,hard,mid,34,no_demand_aversive,no_demand_aversive,demand_aversive,demand_aversive,demand_avoid,0,0.016433782,0,0.5,0.5
40,0.016109881,hard,mid,35,no_demand_aversive,no_demand_aversive,demand_aversive,demand_aversive,demand_avoid,0,0.016109881,0,0.5,0.5
40,0.015907344,hard,mid,36,no_demand_aversive,no_demand_aversive,demand_aversive,demand_aversive,demand_avoid,0,0.015907344,0,0.5,0.5
40,0.016688055,hard,mid,37,no_demand_aversive,no_demand_aversive,demand_aversive,demand_aversive,demand_avoid,0,0.016688055,0,0.5,0.5
40,0.016720381,hard,mid,38,no_demand_aversive,no_demand_aversive,demand_aversive,demand_aversive,demand_avoid,0,0.016720381,0,0.5,0.5
40,0.014658462,hard,mid,39,no_demand_aversive,no_demand_aversive,demand_aversive,demand_aversive,demand_avoid,0,0.014658462,0,0.5,0.5
40,0.015894263,hard,mid,40,no_demand_aversive,no_demand_aversive,demand_aversive,demand_aversive,demand_avoid,0,0.015894263,0,0.5,0.5
40,0.016333656,hard,mid,42,no_demand_aversive,no_demand_aversive,demand_aversive,demand_aversive,demand_avoid,0,0.016333656,0,0.5,0.5
40,0.014697214,hard,mid,43,no_demand_aversive,no_demand_aversive,demand_aversive,demand_aversive,demand_avoid,0,0.014697214,0,0.5,0.5
40,0.017595772,hard,mid,44,no_demand_aversive,no_demand_aversive,demand_aversive,demand_aversive,demand_avoid,0,0.017595772,0,0.5,0.5
40,0.017274108,easy,mid,45,no_demand_aversive,no_demand_aversive,demand_aversive,demand_aversive,demand_avoid,1,0.017274108,0,0.5,0.5
40,0.016702741,hard,mid,46,no_demand_aversive,no_demand_aversive,demand_aversive,demand_aversive,demand_avoid,0,0.016702741,0,0.5,0.5
40,0.018097589,hard,mid,47,no_demand_aversive,no_demand_aversive,demand_aversive,demand_aversive,demand_avoid,0,0.018097589,0,0.5,0.5
40,0.015917711,hard,mid,48,no_demand_aversive,no_demand_aversive,demand_aversive,demand_aversive,demand_avoid,0,0.015917711,0,0.5,0.5
40,0.017360701,hard,mid,49,no_demand_aversive,no_demand_aversive,demand_aversive,demand_aversive,demand_avoid,0,0.017360701,0,0.5,0.5
40,0.016699702,hard,mid,50,no_demand_aversive,no_demand_aversive,demand_aversive,demand_aversive,demand_avoid,0,0.016699702,0,0.5,0.5
42,0.01667455,easy,mid,1,demand_aversive,demand_aversive,demand_aversive,no_demand_aversive,demand_avoid,1,0.01667455,0,0.5,1
42,0.016830306,hard,mid,2,demand_aversive,demand_aversive,demand_aversive,no_demand_aversive,demand_avoid,0,0.016830306,0,0.5,1
42,0.017327764,easy,mid,3,demand_aversive,demand_aversive,demand_aversive,no_demand_aversive,demand_avoid,1,0.017327764,0,0.5,1
42,0.014801651,hard,mid,4,demand_aversive,demand_aversive,demand_aversive,no_demand_aversive,demand_avoid,0,0.014801651,0,0.5,1
42,0.016941077,easy,mid,5,demand_aversive,demand_aversive,demand_aversive,no_demand_aversive,demand_avoid,1,0.016941077,0,0.5,1
42,0.016657717,hard,mid,6,demand_aversive,demand_aversive,demand_aversive,no_demand_aversive,demand_avoid,0,0.016657717,0,0.5,1
42,0.01699862,easy,mid,7,demand_aversive,demand_aversive,demand_aversive,no_demand_aversive,demand_avoid,1,0.01699862,0,0.5,1
42,0.016765205,hard,mid,10,demand_aversive,demand_aversive,demand_aversive,no_demand_aversive,demand_avoid,0,0.016765205,0,0.5,1
42,0.017630186,hard,mid,11,demand_aversive,demand_aversive,demand_aversive,no_demand_aversive,demand_avoid,0,0.017630186,0,0.5,1
42,0.017021793,easy,mid,12,demand_aversive,demand_aversive,demand_aversive,no_demand_aversive,demand_avoid,1,0.017021793,0,0.5,1
42,0.016852923,easy,mid,13,demand_aversive,demand_aversive,demand_aversive,no_demand_aversive,demand_avoid,1,0.016852923,0,0.5,1
42,0.016735953,easy,mid,14,demand_aversive,demand_aversive,demand_aversive,no_demand_aversive,demand_avoid,1,0.016735953,0,0.5,1
42,0.016808962,hard,mid,15,demand_aversive,demand_aversive,demand_aversive,no_demand_aversive,demand_avoid,0,0.016808962,0,0.5,1
42,0.016876385,hard,mid,16,demand_aversive,demand_aversive,demand_aversive,no_demand_aversive,demand_avoid,0,0.016876385,0,0.5,1
42,0.016874884,easy,mid,17,demand_aversive,demand_aversive,demand_aversive,no_demand_aversive,demand_avoid,1,0.016874884,0,0.5,1
42,0.017085291,easy,mid,18,demand_aversive,demand_aversive,demand_aversive,no_demand_aversive,demand_avoid,1,0.017085291,0,0.5,1
42,0.01728347,hard,mid,19,demand_aversive,demand_aversive,demand_aversive,no_demand_aversive,demand_avoid,0,0.01728347,0,0.5,1
42,0.016374605,easy,mid,20,demand_aversive,demand_aversive,demand_aversive,no_demand_aversive,demand_avoid,1,0.016374605,0,0.5,1
42,0.016787475,hard,mid,21,demand_aversive,demand_aversive,demand_aversive,no_demand_aversive,demand_avoid,0,0.016787475,0,0.5,1
42,0.017106056,easy,mid,22,demand_aversive,demand_aversive,demand_aversive,no_demand_aversive,demand_avoid,1,0.017106056,0,0.5,1
42,0.016769617,hard,mid,23,demand_aversive,demand_aversive,demand_aversive,no_demand_aversive,demand_avoid,0,0.016769617,0,0.5,1
42,0.016691725,hard,mid,24,demand_aversive,demand_aversive,demand_aversive,no_demand_aversive,demand_avoid,0,0.016691725,0,0.5,1
42,0.016779121,easy,mid,25,demand_aversive,demand_aversive,demand_aversive,no_demand_aversive,demand_avoid,1,0.016779121,0,0.5,1
42,0.016944807,hard,mid,26,demand_aversive,demand_aversive,demand_aversive,no_demand_aversive,demand_avoid,0,0.016944807,0,0.5,1
42,0.016585332,hard,mid,27,demand_aversive,demand_aversive,demand_aversive,no_demand_aversive,demand_avoid,0,0.016585332,0,0.5,1
42,0.016939005,easy,mid,28,demand_aversive,demand_aversive,demand_aversive,no_demand_aversive,demand_avoid,1,0.016939005,0,0.5,1
42,0.017173508,hard,mid,29,demand_aversive,demand_aversive,demand_aversive,no_demand_aversive,demand_avoid,0,0.017173508,0,0.5,1
42,0.016859276,hard,mid,30,demand_aversive,demand_aversive,demand_aversive,no_demand_aversive,demand_avoid,0,0.016859276,0,0.5,1
42,0.01698769,easy,mid,31,demand_aversive,demand_aversive,demand_aversive,no_demand_aversive,demand_avoid,1,0.01698769,0,0.5,1
42,0.01719157,hard,mid,32,demand_aversive,demand_aversive,demand_aversive,no_demand_aversive,demand_avoid,0,0.01719157,0,0.5,1
42,0.016802064,hard,mid,33,demand_aversive,demand_aversive,demand_aversive,no_demand_aversive,demand_avoid,0,0.016802064,0,0.5,1
42,0.017174783,easy,mid,34,demand_aversive,demand_aversive,demand_aversive,no_demand_aversive,demand_avoid,1,0.017174783,0,0.5,1
42,0.016773244,hard,mid,35,demand_aversive,demand_aversive,demand_aversive,no_demand_aversive,demand_avoid,0,0.016773244,0,0.5,1
42,0.016907182,hard,mid,36,demand_aversive,demand_aversive,demand_aversive,no_demand_aversive,demand_avoid,0,0.016907182,0,0.5,1
42,0.017379995,easy,mid,37,demand_aversive,demand_aversive,demand_aversive,no_demand_aversive,demand_avoid,1,0.017379995,0,0.5,1
42,0.016998298,hard,mid,38,demand_aversive,demand_aversive,demand_aversive,no_demand_aversive,demand_avoid,0,0.016998298,0,0.5,1
42,0.017059929,easy,mid,39,demand_aversive,demand_aversive,demand_aversive,no_demand_aversive,demand_avoid,1,0.017059929,0,0.5,1
42,0.016714733,hard,mid,40,demand_aversive,demand_aversive,demand_aversive,no_demand_aversive,demand_avoid,0,0.016714733,0,0.5,1
42,0.017071194,hard,mid,41,demand_aversive,demand_aversive,demand_aversive,no_demand_aversive,demand_avoid,0,0.017071194,0,0.5,1
42,0.01660088,hard,mid,42,demand_aversive,demand_aversive,demand_aversive,no_demand_aversive,demand_avoid,0,0.01660088,0,0.5,1
42,0.016683517,hard,mid,43,demand_aversive,demand_aversive,demand_aversive,no_demand_aversive,demand_avoid,0,0.016683517,0,0.5,1
42,0.016577252,hard,mid,44,demand_aversive,demand_aversive,demand_aversive,no_demand_aversive,demand_avoid,0,0.016577252,0,0.5,1
42,0.01684656,hard,mid,45,demand_aversive,demand_aversive,demand_aversive,no_demand_aversive,demand_avoid,0,0.01684656,0,0.5,1
42,0.019148021,easy,mid,46,demand_aversive,demand_aversive,demand_aversive,no_demand_aversive,demand_avoid,1,0.019148021,0,0.5,1
42,0.016670389,easy,mid,47,demand_aversive,demand_aversive,demand_aversive,no_demand_aversive,demand_avoid,1,0.016670389,0,0.5,1
42,0.017064635,hard,mid,49,demand_aversive,demand_aversive,demand_aversive,no_demand_aversive,demand_avoid,0,0.017064635,0,0.5,1
42,0.016907742,easy,mid,50,demand_aversive,demand_aversive,demand_aversive,no_demand_aversive,demand_avoid,1,0.016907742,0,0.5,1
45,0.017411132,hard,mid,1,no_demand_aversive,no_demand_aversive,demand_aversive,demand_aversive,demand_avoid,0,0.017411132,0,0.5,0.5
45,0.017211892,hard,mid,2,no_demand_aversive,no_demand_aversive,demand_aversive,demand_aversive,demand_avoid,0,0.017211892,0,0.5,0.5
45,0.01707418,easy,mid,3,no_demand_aversive,no_demand_aversive,demand_aversive,demand_aversive,demand_avoid,1,0.01707418,0,0.5,0.5
45,0.017431671,hard,mid,4,no_demand_aversive,no_demand_aversive,demand_aversive,demand_aversive,demand_avoid,0,0.017431671,0,0.5,0.5
45,0.016982262,hard,mid,5,no_demand_aversive,no_demand_aversive,demand_aversive,demand_aversive,demand_avoid,0,0.016982262,0,0.5,0.5
45,0.015827448,easy,mid,6,no_demand_aversive,no_demand_aversive,demand_aversive,demand_aversive,demand_avoid,1,0.015827448,0,0.5,0.5
45,0.016117004,easy,mid,7,no_demand_aversive,no_demand_aversive,demand_aversive,demand_aversive,demand_avoid,1,0.016117004,0,0.5,0.5
45,0.008917836,hard,mid,8,no_demand_aversive,no_demand_aversive,demand_aversive,demand_aversive,demand_avoid,0,0.008917836,0,0.5,0.5
45,0.015827464,easy,mid,9,no_demand_aversive,no_demand_aversive,demand_aversive,demand_aversive,demand_avoid,1,0.015827464,0,0.5,0.5
45,0.016974693,easy,mid,10,no_demand_aversive,no_demand_aversive,demand_aversive,demand_aversive,demand_avoid,1,0.016974693,0,0.5,0.5
45,0.011078575,easy,mid,11,no_demand_aversive,no_demand_aversive,demand_aversive,demand_aversive,demand_avoid,1,0.011078575,0,0.5,0.5
45,0.017513162,hard,mid,12,no_demand_aversive,no_demand_aversive,demand_aversive,demand_aversive,demand_avoid,0,0.017513162,0,0.5,0.5
45,0.017142862,hard,mid,13,no_demand_aversive,no_demand_aversive,demand_aversive,demand_aversive,demand_avoid,0,0.017142862,0,0.5,0.5
45,0.018100644,easy,mid,14,no_demand_aversive,no_demand_aversive,demand_aversive,demand_aversive,demand_avoid,1,0.018100644,0,0.5,0.5
45,0.011065567,hard,mid,15,no_demand_aversive,no_demand_aversive,demand_aversive,demand_aversive,demand_avoid,0,0.011065567,0,0.5,0.5
45,0.016273546,hard,mid,16,no_demand_aversive,no_demand_aversive,demand_aversive,demand_aversive,demand_avoid,0,0.016273546,0,0.5,0.5
45,0.01615206,hard,mid,17,no_demand_aversive,no_demand_aversive,demand_aversive,demand_aversive,demand_avoid,0,0.01615206,0,0.5,0.5
45,0.016801941,easy,mid,18,no_demand_aversive,no_demand_aversive,demand_aversive,demand_aversive,demand_avoid,1,0.016801941,0,0.5,0.5
45,0.010848628,easy,mid,19,no_demand_aversive,no_demand_aversive,demand_aversive,demand_aversive,demand_avoid,1,0.010848628,0,0.5,0.5
45,0.017264197,hard,mid,20,no_demand_aversive,no_demand_aversive,demand_aversive,demand_aversive,demand_avoid,0,0.017264197,0,0.5,0.5
45,0.016072329,hard,mid,21,no_demand_aversive,no_demand_aversive,demand_aversive,demand_aversive,demand_avoid,0,0.016072329,0,0.5,0.5
45,0.010646474,easy,mid,22,no_demand_aversive,no_demand_aversive,demand_aversive,demand_aversive,demand_avoid,1,0.010646474,0,0.5,0.5
45,0.016587017,easy,mid,23,no_demand_aversive,no_demand_aversive,demand_aversive,demand_aversive,demand_avoid,1,0.016587017,0,0.5,0.5
45,0.017078006,easy,mid,24,no_demand_aversive,no_demand_aversive,demand_aversive,demand_aversive,demand_avoid,1,0.017078006,0,0.5,0.5
45,0.016274974,easy,mid,25,no_demand_aversive,no_demand_aversive,demand_aversive,demand_aversive,demand_avoid,1,0.016274974,0,0.5,0.5
45,0.016849654,hard,mid,26,no_demand_aversive,no_demand_aversive,demand_aversive,demand_aversive,demand_avoid,0,0.016849654,0,0.5,0.5
45,0.016667189,easy,mid,27,no_demand_aversive,no_demand_aversive,demand_aversive,demand_aversive,demand_avoid,1,0.016667189,0,0.5,0.5
45,0.016199857,hard,mid,29,no_demand_aversive,no_demand_aversive,demand_aversive,demand_aversive,demand_avoid,0,0.016199857,0,0.5,0.5
45,0.015961232,easy,mid,30,no_demand_aversive,no_demand_aversive,demand_aversive,demand_aversive,demand_avoid,1,0.015961232,0,0.5,0.5
45,0.017128426,hard,mid,31,no_demand_aversive,no_demand_aversive,demand_aversive,demand_aversive,demand_avoid,0,0.017128426,0,0.5,0.5
45,0.010102007,easy,mid,32,no_demand_aversive,no_demand_aversive,demand_aversive,demand_aversive,demand_avoid,1,0.010102007,0,0.5,0.5
45,0.016778731,easy,mid,33,no_demand_aversive,no_demand_aversive,demand_aversive,demand_aversive,demand_avoid,1,0.016778731,0,0.5,0.5
45,0.016647566,easy,mid,34,no_demand_aversive,no_demand_aversive,demand_aversive,demand_aversive,demand_avoid,1,0.016647566,0,0.5,0.5
45,0.016135412,easy,mid,35,no_demand_aversive,no_demand_aversive,demand_aversive,demand_aversive,demand_avoid,1,0.016135412,0,0.5,0.5
45,0.015293163,hard,mid,36,no_demand_aversive,no_demand_aversive,demand_aversive,demand_aversive,demand_avoid,0,0.015293163,0,0.5,0.5
45,0.017499656,easy,mid,37,no_demand_aversive,no_demand_aversive,demand_aversive,demand_aversive,demand_avoid,1,0.017499656,0,0.5,0.5
45,0.017134883,hard,mid,39,no_demand_aversive,no_demand_aversive,demand_aversive,demand_aversive,demand_avoid,0,0.017134883,0,0.5,0.5
45,0.017520924,easy,mid,40,no_demand_aversive,no_demand_aversive,demand_aversive,demand_aversive,demand_avoid,1,0.017520924,0,0.5,0.5
45,0.017429906,easy,mid,41,no_demand_aversive,no_demand_aversive,demand_aversive,demand_aversive,demand_avoid,1,0.017429906,0,0.5,0.5
45,0.017678125,easy,mid,42,no_demand_aversive,no_demand_aversive,demand_aversive,demand_aversive,demand_avoid,1,0.017678125,0,0.5,0.5
45,0.015771231,hard,mid,43,no_demand_aversive,no_demand_aversive,demand_aversive,demand_aversive,demand_avoid,0,0.015771231,0,0.5,0.5
45,0.017371276,hard,mid,44,no_demand_aversive,no_demand_aversive,demand_aversive,demand_aversive,demand_avoid,0,0.017371276,0,0.5,0.5
45,0.015341897,hard,mid,45,no_demand_aversive,no_demand_aversive,demand_aversive,demand_aversive,demand_avoid,0,0.015341897,0,0.5,0.5
45,0.017649372,easy,mid,46,no_demand_aversive,no_demand_aversive,demand_aversive,demand_aversive,demand_avoid,1,0.017649372,0,0.5,0.5
45,0.015614182,easy,mid,47,no_demand_aversive,no_demand_aversive,demand_aversive,demand_aversive,demand_avoid,1,0.015614182,0,0.5,0.5
45,0.017054575,hard,mid,48,no_demand_aversive,no_demand_aversive,demand_aversive,demand_aversive,demand_avoid,0,0.017054575,0,0.5,0.5
45,0.017523713,easy,mid,49,no_demand_aversive,no_demand_aversive,demand_aversive,demand_aversive,demand_avoid,1,0.017523713,0,0.5,0.5
45,0.017400504,easy,mid,50,no_demand_aversive,no_demand_aversive,demand_aversive,demand_aversive,demand_avoid,1,0.017400504,0,0.5,0.5
47,0.015853866,easy,mid,1,demand_aversive,demand_aversive,demand_aversive,demand_aversive,demand_avoid,1,0.015853866,0,0.5,1
47,0.016431782,hard,mid,2,demand_aversive,demand_aversive,demand_aversive,demand_aversive,demand_avoid,0,0.016431782,0,0.5,1
47,0.017746319,easy,mid,3,demand_aversive,demand_aversive,demand_aversive,demand_aversive,demand_avoid,1,0.017746319,0,0.5,1
47,0.017303045,hard,mid,4,demand_aversive,demand_aversive,demand_aversive,demand_aversive,demand_avoid,0,0.017303045,0,0.5,1
47,0.016217098,hard,mid,5,demand_aversive,demand_aversive,demand_aversive,demand_aversive,demand_avoid,0,0.016217098,0,0.5,1
47,0.015915863,hard,mid,6,demand_aversive,demand_aversive,demand_aversive,demand_aversive,demand_avoid,0,0.015915863,0,0.5,1
47,0.017194903,easy,mid,7,demand_aversive,demand_aversive,demand_aversive,demand_aversive,demand_avoid,1,0.017194903,0,0.5,1
47,0.016956806,easy,mid,8,demand_aversive,demand_aversive,demand_aversive,demand_aversive,demand_avoid,1,0.016956806,0,0.5,1
47,0.017309643,hard,mid,9,demand_aversive,demand_aversive,demand_aversive,demand_aversive,demand_avoid,0,0.017309643,0,0.5,1
47,0.016709441,hard,mid,10,demand_aversive,demand_aversive,demand_aversive,demand_aversive,demand_avoid,0,0.016709441,0,0.5,1
47,0.0172569,easy,mid,11,demand_aversive,demand_aversive,demand_aversive,demand_aversive,demand_avoid,1,0.0172569,0,0.5,1
47,0.016589561,easy,mid,12,demand_aversive,demand_aversive,demand_aversive,demand_aversive,demand_avoid,1,0.016589561,0,0.5,1
47,0.017165312,easy,mid,13,demand_aversive,demand_aversive,demand_aversive,demand_aversive,demand_avoid,1,0.017165312,0,0.5,1
47,0.016876033,easy,mid,14,demand_aversive,demand_aversive,demand_aversive,demand_aversive,demand_avoid,1,0.016876033,0,0.5,1
47,0.016311753,hard,mid,15,demand_aversive,demand_aversive,demand_aversive,demand_aversive,demand_avoid,0,0.016311753,0,0.5,1
47,0.01744577,hard,mid,16,demand_aversive,demand_aversive,demand_aversive,demand_aversive,demand_avoid,0,0.01744577,0,0.5,1
47,0.016680658,easy,mid,17,demand_aversive,demand_aversive,demand_aversive,demand_aversive,demand_avoid,1,0.016680658,0,0.5,1
47,0.016998167,hard,mid,18,demand_aversive,demand_aversive,demand_aversive,demand_aversive,demand_avoid,0,0.016998167,0,0.5,1
47,0.01721143,easy,mid,19,demand_aversive,demand_aversive,demand_aversive,demand_aversive,demand_avoid,1,0.01721143,0,0.5,1
47,0.017065758,hard,mid,20,demand_aversive,demand_aversive,demand_aversive,demand_aversive,demand_avoid,0,0.017065758,0,0.5,1
47,0.01662958,hard,mid,21,demand_aversive,demand_aversive,demand_aversive,demand_aversive,demand_avoid,0,0.01662958,0,0.5,1
47,0.01650261,easy,mid,22,demand_aversive,demand_aversive,demand_aversive,demand_aversive,demand_avoid,1,0.01650261,0,0.5,1
47,0.016729496,easy,mid,23,demand_aversive,demand_aversive,demand_aversive,demand_aversive,demand_avoid,1,0.016729496,0,0.5,1
47,0.016478488,easy,mid,24,demand_aversive,demand_aversive,demand_aversive,demand_aversive,demand_avoid,1,0.016478488,0,0.5,1
47,0.016794035,hard,mid,25,demand_aversive,demand_aversive,demand_aversive,demand_aversive,demand_avoid,0,0.016794035,0,0.5,1
47,0.016391646,hard,mid,26,demand_aversive,demand_aversive,demand_aversive,demand_aversive,demand_avoid,0,0.016391646,0,0.5,1
47,0.017558087,easy,mid,27,demand_aversive,demand_aversive,demand_aversive,demand_aversive,demand_avoid,1,0.017558087,0,0.5,1
47,0.016870912,easy,mid,28,demand_aversive,demand_aversive,demand_aversive,demand_aversive,demand_avoid,1,0.016870912,0,0.5,1
47,0.01650387,easy,mid,29,demand_aversive,demand_aversive,demand_aversive,demand_aversive,demand_avoid,1,0.01650387,0,0.5,1
47,0.015766903,easy,mid,30,demand_aversive,demand_aversive,demand_aversive,demand_aversive,demand_avoid,1,0.015766903,0,0.5,1
47,0.016340809,easy,mid,31,demand_aversive,demand_aversive,demand_aversive,demand_aversive,demand_avoid,1,0.016340809,0,0.5,1
47,0.016704518,hard,mid,32,demand_aversive,demand_aversive,demand_aversive,demand_aversive,demand_avoid,0,0.016704518,0,0.5,1
47,0.016256215,hard,mid,34,demand_aversive,demand_aversive,demand_aversive,demand_aversive,demand_avoid,0,0.016256215,0,0.5,1
47,0.01633318,easy,mid,35,demand_aversive,demand_aversive,demand_aversive,demand_aversive,demand_avoid,1,0.01633318,0,0.5,1
47,0.016473598,hard,mid,36,demand_aversive,demand_aversive,demand_aversive,demand_aversive,demand_avoid,0,0.016473598,0,0.5,1
47,0.016578624,hard,mid,37,demand_aversive,demand_aversive,demand_aversive,demand_aversive,demand_avoid,0,0.016578624,0,0.5,1
47,0.016857541,easy,mid,38,demand_aversive,demand_aversive,demand_aversive,demand_aversive,demand_avoid,1,0.016857541,0,0.5,1
47,0.01763081,hard,mid,39,demand_aversive,demand_aversive,demand_aversive,demand_aversive,demand_avoid,0,0.01763081,0,0.5,1
47,0.01578852,easy,mid,40,demand_aversive,demand_aversive,demand_aversive,demand_aversive,demand_avoid,1,0.01578852,0,0.5,1
47,0.016265208,hard,mid,41,demand_aversive,demand_aversive,demand_aversive,demand_aversive,demand_avoid,0,0.016265208,0,0.5,1
47,0.01795885,hard,mid,42,demand_aversive,demand_aversive,demand_aversive,demand_aversive,demand_avoid,0,0.01795885,0,0.5,1
47,0.016232656,hard,mid,43,demand_aversive,demand_aversive,demand_aversive,demand_aversive,demand_avoid,0,0.016232656,0,0.5,1
47,0.017011332,easy,mid,44,demand_aversive,demand_aversive,demand_aversive,demand_aversive,demand_avoid,1,0.017011332,0,0.5,1
47,0.016582036,easy,mid,45,demand_aversive,demand_aversive,demand_aversive,demand_aversive,demand_avoid,1,0.016582036,0,0.5,1
47,0.017340454,hard,mid,46,demand_aversive,demand_aversive,demand_aversive,demand_aversive,demand_avoid,0,0.017340454,0,0.5,1
47,0.017144725,hard,mid,47,demand_aversive,demand_aversive,demand_aversive,demand_aversive,demand_avoid,0,0.017144725,0,0.5,1
47,0.017369276,easy,mid,48,demand_aversive,demand_aversive,demand_aversive,demand_aversive,demand_avoid,1,0.017369276,0,0.5,1
47,0.017198828,easy,mid,49,demand_aversive,demand_aversive,demand_aversive,demand_aversive,demand_avoid,1,0.017198828,0,0.5,1
47,0.016893705,hard,mid,50,demand_aversive,demand_aversive,demand_aversive,demand_aversive,demand_avoid,0,0.016893705,0,0.5,1
48,0.017511867,hard,mid,1,no_demand_aversive,no_demand_aversive,no_demand_aversive,demand_aversive,no_demand_avoid,0,0.017511867,0,0.5,0.5
48,0.016259661,easy,mid,2,no_demand_aversive,no_demand_aversive,no_demand_aversive,demand_aversive,no_demand_avoid,1,0.016259661,0,0.5,0.5
48,0.01753168,hard,mid,3,no_demand_aversive,no_demand_aversive,no_demand_aversive,demand_aversive,no_demand_avoid,0,0.01753168,0,0.5,0.5
48,0.016482023,hard,mid,4,no_demand_aversive,no_demand_aversive,no_demand_aversive,demand_aversive,no_demand_avoid,0,0.016482023,0,0.5,0.5
48,0.017622642,hard,mid,5,no_demand_aversive,no_demand_aversive,no_demand_aversive,demand_aversive,no_demand_avoid,0,0.017622642,0,0.5,0.5
48,0.016422061,hard,mid,6,no_demand_aversive,no_demand_aversive,no_demand_aversive,demand_aversive,no_demand_avoid,0,0.016422061,0,0.5,0.5
48,0.017188118,hard,mid,7,no_demand_aversive,no_demand_aversive,no_demand_aversive,demand_aversive,no_demand_avoid,0,0.017188118,0,0.5,0.5
48,0.016843669,hard,mid,8,no_demand_aversive,no_demand_aversive,no_demand_aversive,demand_aversive,no_demand_avoid,0,0.016843669,0,0.5,0.5
48,0.017065842,easy,mid,9,no_demand_aversive,no_demand_aversive,no_demand_aversive,demand_aversive,no_demand_avoid,1,0.017065842,0,0.5,0.5
48,0.016672201,hard,mid,10,no_demand_aversive,no_demand_aversive,no_demand_aversive,demand_aversive,no_demand_avoid,0,0.016672201,0,0.5,0.5
48,0.016247517,hard,mid,11,no_demand_aversive,no_demand_aversive,no_demand_aversive,demand_aversive,no_demand_avoid,0,0.016247517,0,0.5,0.5
48,0.01626481,hard,mid,12,no_demand_aversive,no_demand_aversive,no_demand_aversive,demand_aversive,no_demand_avoid,0,0.01626481,0,0.5,0.5
48,0.016795477,hard,mid,13,no_demand_aversive,no_demand_aversive,no_demand_aversive,demand_aversive,no_demand_avoid,0,0.016795477,0,0.5,0.5
48,0.016505245,hard,mid,14,no_demand_aversive,no_demand_aversive,no_demand_aversive,demand_aversive,no_demand_avoid,0,0.016505245,0,0.5,0.5
48,0.01607836,hard,mid,16,no_demand_aversive,no_demand_aversive,no_demand_aversive,demand_aversive,no_demand_avoid,0,0.01607836,0,0.5,0.5
48,0.01689053,easy,mid,17,no_demand_aversive,no_demand_aversive,no_demand_aversive,demand_aversive,no_demand_avoid,1,0.01689053,0,0.5,0.5
48,0.017109907,hard,mid,18,no_demand_aversive,no_demand_aversive,no_demand_aversive,demand_aversive,no_demand_avoid,0,0.017109907,0,0.5,0.5
48,0.016407341,hard,mid,19,no_demand_aversive,no_demand_aversive,no_demand_aversive,demand_aversive,no_demand_avoid,0,0.016407341,0,0.5,0.5
48,0.016926496,hard,mid,20,no_demand_aversive,no_demand_aversive,no_demand_aversive,demand_aversive,no_demand_avoid,0,0.016926496,0,0.5,0.5
48,0.017208829,hard,mid,21,no_demand_aversive,no_demand_aversive,no_demand_aversive,demand_aversive,no_demand_avoid,0,0.017208829,0,0.5,0.5
48,0.016981833,hard,mid,22,no_demand_aversive,no_demand_aversive,no_demand_aversive,demand_aversive,no_demand_avoid,0,0.016981833,0,0.5,0.5
48,0.015930768,hard,mid,23,no_demand_aversive,no_demand_aversive,no_demand_aversive,demand_aversive,no_demand_avoid,0,0.015930768,0,0.5,0.5
48,0.016916467,hard,mid,24,no_demand_aversive,no_demand_aversive,no_demand_aversive,demand_aversive,no_demand_avoid,0,0.016916467,0,0.5,0.5
48,0.016253676,hard,mid,25,no_demand_aversive,no_demand_aversive,no_demand_aversive,demand_aversive,no_demand_avoid,0,0.016253676,0,0.5,0.5
48,0.01013518,hard,mid,26,no_demand_aversive,no_demand_aversive,no_demand_aversive,demand_aversive,no_demand_avoid,0,0.01013518,0,0.5,0.5
48,0.016552879,hard,mid,27,no_demand_aversive,no_demand_aversive,no_demand_aversive,demand_aversive,no_demand_avoid,0,0.016552879,0,0.5,0.5
48,0.016934877,hard,mid,28,no_demand_aversive,no_demand_aversive,no_demand_aversive,demand_aversive,no_demand_avoid,0,0.016934877,0,0.5,0.5
48,0.016741734,hard,mid,29,no_demand_aversive,no_demand_aversive,no_demand_aversive,demand_aversive,no_demand_avoid,0,0.016741734,0,0.5,0.5
48,0.016591792,easy,mid,31,no_demand_aversive,no_demand_aversive,no_demand_aversive,demand_aversive,no_demand_avoid,1,0.016591792,0,0.5,0.5
48,0.017297754,hard,mid,32,no_demand_aversive,no_demand_aversive,no_demand_aversive,demand_aversive,no_demand_avoid,0,0.017297754,0,0.5,0.5
48,0.016745916,hard,mid,33,no_demand_aversive,no_demand_aversive,no_demand_aversive,demand_aversive,no_demand_avoid,0,0.016745916,0,0.5,0.5
48,0.016458821,hard,mid,34,no_demand_aversive,no_demand_aversive,no_demand_aversive,demand_aversive,no_demand_avoid,0,0.016458821,0,0.5,0.5
48,0.0098512,hard,mid,35,no_demand_aversive,no_demand_aversive,no_demand_aversive,demand_aversive,no_demand_avoid,0,0.0098512,0,0.5,0.5
48,0.016967257,hard,mid,36,no_demand_aversive,no_demand_aversive,no_demand_aversive,demand_aversive,no_demand_avoid,0,0.016967257,0,0.5,0.5
48,0.017318168,hard,mid,37,no_demand_aversive,no_demand_aversive,no_demand_aversive,demand_aversive,no_demand_avoid,0,0.017318168,0,0.5,0.5
48,0.016925331,hard,mid,38,no_demand_aversive,no_demand_aversive,no_demand_aversive,demand_aversive,no_demand_avoid,0,0.016925331,0,0.5,0.5
48,0.01689909,hard,mid,39,no_demand_aversive,no_demand_aversive,no_demand_aversive,demand_aversive,no_demand_avoid,0,0.01689909,0,0.5,0.5
48,0.016702782,hard,mid,40,no_demand_aversive,no_demand_aversive,no_demand_aversive,demand_aversive,no_demand_avoid,0,0.016702782,0,0.5,0.5
48,0.016890773,hard,mid,41,no_demand_aversive,no_demand_aversive,no_demand_aversive,demand_aversive,no_demand_avoid,0,0.016890773,0,0.5,0.5
48,0.016990908,hard,mid,42,no_demand_aversive,no_demand_aversive,no_demand_aversive,demand_aversive,no_demand_avoid,0,0.016990908,0,0.5,0.5
48,0.01669598,hard,mid,43,no_demand_aversive,no_demand_aversive,no_demand_aversive,demand_aversive,no_demand_avoid,0,0.01669598,0,0.5,0.5
48,0.017078392,hard,mid,44,no_demand_aversive,no_demand_aversive,no_demand_aversive,demand_aversive,no_demand_avoid,0,0.017078392,0,0.5,0.5
48,0.016804233,easy,mid,45,no_demand_aversive,no_demand_aversive,no_demand_aversive,demand_aversive,no_demand_avoid,1,0.016804233,0,0.5,0.5
48,0.017060118,easy,mid,46,no_demand_aversive,no_demand_aversive,no_demand_aversive,demand_aversive,no_demand_avoid,1,0.017060118,0,0.5,0.5
48,0.016394932,easy,mid,47,no_demand_aversive,no_demand_aversive,no_demand_aversive,demand_aversive,no_demand_avoid,1,0.016394932,0,0.5,0.5
48,0.017174239,hard,mid,49,no_demand_aversive,no_demand_aversive,no_demand_aversive,demand_aversive,no_demand_avoid,0,0.017174239,0,0.5,0.5
48,0.016748422,hard,mid,50,no_demand_aversive,no_demand_aversive,no_demand_aversive,demand_aversive,no_demand_avoid,0,0.016748422,0,0.5,0.5
49,0.01734739,easy,mid,1,demand_aversive,demand_aversive,demand_aversive,no_demand_aversive,demand_avoid,1,0.01734739,0,0.5,1
49,0.016256658,hard,mid,2,demand_aversive,demand_aversive,demand_aversive,no_demand_aversive,demand_avoid,0,0.016256658,0,0.5,1
49,0.017189029,easy,mid,3,demand_aversive,demand_aversive,demand_aversive,no_demand_aversive,demand_avoid,1,0.017189029,0,0.5,1
49,0.016602806,easy,mid,5,demand_aversive,demand_aversive,demand_aversive,no_demand_aversive,demand_avoid,1,0.016602806,0,0.5,1
49,0.015760241,easy,mid,6,demand_aversive,demand_aversive,demand_aversive,no_demand_aversive,demand_avoid,1,0.015760241,0,0.5,1
49,0.015807862,easy,mid,7,demand_aversive,demand_aversive,demand_aversive,no_demand_aversive,demand_avoid,1,0.015807862,0,0.5,1
49,0.016923376,hard,mid,8,demand_aversive,demand_aversive,demand_aversive,no_demand_aversive,demand_avoid,0,0.016923376,0,0.5,1
49,0.01697334,hard,mid,9,demand_aversive,demand_aversive,demand_aversive,no_demand_aversive,demand_avoid,0,0.01697334,0,0.5,1
49,0.017477239,easy,mid,10,demand_aversive,demand_aversive,demand_aversive,no_demand_aversive,demand_avoid,1,0.017477239,0,0.5,1
49,0.015855952,easy,mid,11,demand_aversive,demand_aversive,demand_aversive,no_demand_aversive,demand_avoid,1,0.015855952,0,0.5,1
49,0.017346523,hard,mid,12,demand_aversive,demand_aversive,demand_aversive,no_demand_aversive,demand_avoid,0,0.017346523,0,0.5,1
49,0.017302362,hard,mid,13,demand_aversive,demand_aversive,demand_aversive,no_demand_aversive,demand_avoid,0,0.017302362,0,0.5,1
49,0.017431614,easy,mid,14,demand_aversive,demand_aversive,demand_aversive,no_demand_aversive,demand_avoid,1,0.017431614,0,0.5,1
49,0.017032388,hard,mid,15,demand_aversive,demand_aversive,demand_aversive,no_demand_aversive,demand_avoid,0,0.017032388,0,0.5,1
49,0.01641334,hard,mid,16,demand_aversive,demand_aversive,demand_aversive,no_demand_aversive,demand_avoid,0,0.01641334,0,0.5,1
49,0.017373598,easy,mid,17,demand_aversive,demand_aversive,demand_aversive,no_demand_aversive,demand_avoid,1,0.017373598,0,0.5,1
49,0.016864232,hard,mid,18,demand_aversive,demand_aversive,demand_aversive,no_demand_aversive,demand_avoid,0,0.016864232,0,0.5,1
49,0.016293601,easy,mid,20,demand_aversive,demand_aversive,demand_aversive,no_demand_aversive,demand_avoid,1,0.016293601,0,0.5,1
49,0.016446948,hard,mid,21,demand_aversive,demand_aversive,demand_aversive,no_demand_aversive,demand_avoid,0,0.016446948,0,0.5,1
49,0.017545408,easy,mid,22,demand_aversive,demand_aversive,demand_aversive,no_demand_aversive,demand_avoid,1,0.017545408,0,0.5,1
49,0.017625247,hard,mid,23,demand_aversive,demand_aversive,demand_aversive,no_demand_aversive,demand_avoid,0,0.017625247,0,0.5,1
49,0.017147767,easy,mid,24,demand_aversive,demand_aversive,demand_aversive,no_demand_aversive,demand_avoid,1,0.017147767,0,0.5,1
49,0.017409741,easy,mid,25,demand_aversive,demand_aversive,demand_aversive,no_demand_aversive,demand_avoid,1,0.017409741,0,0.5,1
49,0.01710898,hard,mid,26,demand_aversive,demand_aversive,demand_aversive,no_demand_aversive,demand_avoid,0,0.01710898,0,0.5,1
49,0.017062385,easy,mid,27,demand_aversive,demand_aversive,demand_aversive,no_demand_aversive,demand_avoid,1,0.017062385,0,0.5,1
49,0.010153153,easy,mid,28,demand_aversive,demand_aversive,demand_aversive,no_demand_aversive,demand_avoid,1,0.010153153,0,0.5,1
49,0.016837596,easy,mid,29,demand_aversive,demand_aversive,demand_aversive,no_demand_aversive,demand_avoid,1,0.016837596,0,0.5,1
49,0.017096568,easy,mid,31,demand_aversive,demand_aversive,demand_aversive,no_demand_aversive,demand_avoid,1,0.017096568,0,0.5,1
49,0.016911146,hard,mid,32,demand_aversive,demand_aversive,demand_aversive,no_demand_aversive,demand_avoid,0,0.016911146,0,0.5,1
49,0.016525505,easy,mid,33,demand_aversive,demand_aversive,demand_aversive,no_demand_aversive,demand_avoid,1,0.016525505,0,0.5,1
49,0.016514026,easy,mid,34,demand_aversive,demand_aversive,demand_aversive,no_demand_aversive,demand_avoid,1,0.016514026,0,0.5,1
49,0.01690499,hard,mid,36,demand_aversive,demand_aversive,demand_aversive,no_demand_aversive,demand_avoid,0,0.01690499,0,0.5,1
49,0.017186795,easy,mid,37,demand_aversive,demand_aversive,demand_aversive,no_demand_aversive,demand_avoid,1,0.017186795,0,0.5,1
49,0.016793913,easy,mid,38,demand_aversive,demand_aversive,demand_aversive,no_demand_aversive,demand_avoid,1,0.016793913,0,0.5,1
49,0.017096384,hard,mid,39,demand_aversive,demand_aversive,demand_aversive,no_demand_aversive,demand_avoid,0,0.017096384,0,0.5,1
49,0.016954344,easy,mid,40,demand_aversive,demand_aversive,demand_aversive,no_demand_aversive,demand_avoid,1,0.016954344,0,0.5,1
49,0.017139496,hard,mid,41,demand_aversive,demand_aversive,demand_aversive,no_demand_aversive,demand_avoid,0,0.017139496,0,0.5,1
49,0.01700898,hard,mid,42,demand_aversive,demand_aversive,demand_aversive,no_demand_aversive,demand_avoid,0,0.01700898,0,0.5,1
49,0.016435391,hard,mid,43,demand_aversive,demand_aversive,demand_aversive,no_demand_aversive,demand_avoid,0,0.016435391,0,0.5,1
49,0.01709238,hard,mid,44,demand_aversive,demand_aversive,demand_aversive,no_demand_aversive,demand_avoid,0,0.01709238,0,0.5,1
49,0.016733846,hard,mid,45,demand_aversive,demand_aversive,demand_aversive,no_demand_aversive,demand_avoid,0,0.016733846,0,0.5,1
49,0.016466995,hard,mid,46,demand_aversive,demand_aversive,demand_aversive,no_demand_aversive,demand_avoid,0,0.016466995,0,0.5,1
49,0.016597549,hard,mid,47,demand_aversive,demand_aversive,demand_aversive,no_demand_aversive,demand_avoid,0,0.016597549,0,0.5,1
49,0.016406028,hard,mid,48,demand_aversive,demand_aversive,demand_aversive,no_demand_aversive,demand_avoid,0,0.016406028,0,0.5,1
49,0.017176005,hard,mid,50,demand_aversive,demand_aversive,demand_aversive,no_demand_aversive,demand_avoid,0,0.017176005,0,0.5,1
50,0.016412931,easy,mid,1,demand_aversive,demand_aversive,demand_aversive,no_demand_aversive,demand_avoid,1,0.016412931,0,0.5,1
50,0.016693576,hard,mid,2,demand_aversive,demand_aversive,demand_aversive,no_demand_aversive,demand_avoid,0,0.016693576,0,0.5,1
50,0.016031576,easy,mid,3,demand_aversive,demand_aversive,demand_aversive,no_demand_aversive,demand_avoid,1,0.016031576,0,0.5,1
50,0.015288791,hard,mid,4,demand_aversive,demand_aversive,demand_aversive,no_demand_aversive,demand_avoid,0,0.015288791,0,0.5,1
50,0.016857507,easy,mid,5,demand_aversive,demand_aversive,demand_aversive,no_demand_aversive,demand_avoid,1,0.016857507,0,0.5,1
50,0.016476925,easy,mid,6,demand_aversive,demand_aversive,demand_aversive,no_demand_aversive,demand_avoid,1,0.016476925,0,0.5,1
50,0.017283979,hard,mid,7,demand_aversive,demand_aversive,demand_aversive,no_demand_aversive,demand_avoid,0,0.017283979,0,0.5,1
50,0.016783068,hard,mid,8,demand_aversive,demand_aversive,demand_aversive,no_demand_aversive,demand_avoid,0,0.016783068,0,0.5,1
50,0.016893026,easy,mid,9,demand_aversive,demand_aversive,demand_aversive,no_demand_aversive,demand_avoid,1,0.016893026,0,0.5,1
50,0.016788631,easy,mid,10,demand_aversive,demand_aversive,demand_aversive,no_demand_aversive,demand_avoid,1,0.016788631,0,0.5,1
50,0.016996205,hard,mid,11,demand_aversive,demand_aversive,demand_aversive,no_demand_aversive,demand_avoid,0,0.016996205,0,0.5,1
50,0.016641465,hard,mid,12,demand_aversive,demand_aversive,demand_aversive,no_demand_aversive,demand_avoid,0,0.016641465,0,0.5,1
50,0.016629565,hard,mid,13,demand_aversive,demand_aversive,demand_aversive,no_demand_aversive,demand_avoid,0,0.016629565,0,0.5,1
50,0.017234471,hard,mid,14,demand_aversive,demand_aversive,demand_aversive,no_demand_aversive,demand_avoid,0,0.017234471,0,0.5,1
50,0.017021562,hard,mid,15,demand_aversive,demand_aversive,demand_aversive,no_demand_aversive,demand_avoid,0,0.017021562,0,0.5,1
50,0.016422334,hard,mid,16,demand_aversive,demand_aversive,demand_aversive,no_demand_aversive,demand_avoid,0,0.016422334,0,0.5,1
50,0.017217667,easy,mid,18,demand_aversive,demand_aversive,demand_aversive,no_demand_aversive,demand_avoid,1,0.017217667,0,0.5,1
50,0.017154276,hard,mid,19,demand_aversive,demand_aversive,demand_aversive,no_demand_aversive,demand_avoid,0,0.017154276,0,0.5,1
50,0.017050619,hard,mid,20,demand_aversive,demand_aversive,demand_aversive,no_demand_aversive,demand_avoid,0,0.017050619,0,0.5,1
50,0.016899257,easy,mid,21,demand_aversive,demand_aversive,demand_aversive,no_demand_aversive,demand_avoid,1,0.016899257,0,0.5,1
50,0.016819143,hard,mid,22,demand_aversive,demand_aversive,demand_aversive,no_demand_aversive,demand_avoid,0,0.016819143,0,0.5,1
50,0.016494501,hard,mid,23,demand_aversive,demand_aversive,demand_aversive,no_demand_aversive,demand_avoid,0,0.016494501,0,0.5,1
50,0.016425358,hard,mid,24,demand_aversive,demand_aversive,demand_aversive,no_demand_aversive,demand_avoid,0,0.016425358,0,0.5,1
50,0.01668753,hard,mid,25,demand_aversive,demand_aversive,demand_aversive,no_demand_aversive,demand_avoid,0,0.01668753,0,0.5,1
50,0.016309605,easy,mid,26,demand_aversive,demand_aversive,demand_aversive,no_demand_aversive,demand_avoid,1,0.016309605,0,0.5,1
50,0.016130825,easy,mid,27,demand_aversive,demand_aversive,demand_aversive,no_demand_aversive,demand_avoid,1,0.016130825,0,0.5,1
50,0.016291084,hard,mid,28,demand_aversive,demand_aversive,demand_aversive,no_demand_aversive,demand_avoid,0,0.016291084,0,0.5,1
50,0.016146712,hard,mid,29,demand_aversive,demand_aversive,demand_aversive,no_demand_aversive,demand_avoid,0,0.016146712,0,0.5,1
50,0.017112438,easy,mid,30,demand_aversive,demand_aversive,demand_aversive,no_demand_aversive,demand_avoid,1,0.017112438,0,0.5,1
50,0.016559841,hard,mid,31,demand_aversive,demand_aversive,demand_aversive,no_demand_aversive,demand_avoid,0,0.016559841,0,0.5,1
50,0.017313388,hard,mid,32,demand_aversive,demand_aversive,demand_aversive,no_demand_aversive,demand_avoid,0,0.017313388,0,0.5,1
50,0.017144101,easy,mid,33,demand_aversive,demand_aversive,demand_aversive,no_demand_aversive,demand_avoid,1,0.017144101,0,0.5,1
50,0.017209458,easy,mid,34,demand_aversive,demand_aversive,demand_aversive,no_demand_aversive,demand_avoid,1,0.017209458,0,0.5,1
50,0.016930126,easy,mid,35,demand_aversive,demand_aversive,demand_aversive,no_demand_aversive,demand_avoid,1,0.016930126,0,0.5,1
50,0.016419921,easy,mid,36,demand_aversive,demand_aversive,demand_aversive,no_demand_aversive,demand_avoid,1,0.016419921,0,0.5,1
50,0.016742635,easy,mid,37,demand_aversive,demand_aversive,demand_aversive,no_demand_aversive,demand_avoid,1,0.016742635,0,0.5,1
50,0.017368072,hard,mid,38,demand_aversive,demand_aversive,demand_aversive,no_demand_aversive,demand_avoid,0,0.017368072,0,0.5,1
50,0.017230949,hard,mid,39,demand_aversive,demand_aversive,demand_aversive,no_demand_aversive,demand_avoid,0,0.017230949,0,0.5,1
50,0.017171251,hard,mid,40,demand_aversive,demand_aversive,demand_aversive,no_demand_aversive,demand_avoid,0,0.017171251,0,0.5,1
50,0.016625181,easy,mid,41,demand_aversive,demand_aversive,demand_aversive,no_demand_aversive,demand_avoid,1,0.016625181,0,0.5,1
50,0.016829215,easy,mid,42,demand_aversive,demand_aversive,demand_aversive,no_demand_aversive,demand_avoid,1,0.016829215,0,0.5,1
50,0.017455027,easy,mid,43,demand_aversive,demand_aversive,demand_aversive,no_demand_aversive,demand_avoid,1,0.017455027,0,0.5,1
50,0.016087171,easy,mid,44,demand_aversive,demand_aversive,demand_aversive,no_demand_aversive,demand_avoid,1,0.016087171,0,0.5,1
50,0.01643318,hard,mid,45,demand_aversive,demand_aversive,demand_aversive,no_demand_aversive,demand_avoid,0,0.01643318,0,0.5,1
50,0.016552259,easy,mid,46,demand_aversive,demand_aversive,demand_aversive,no_demand_aversive,demand_avoid,1,0.016552259,0,0.5,1
50,0.016927658,easy,mid,47,demand_aversive,demand_aversive,demand_aversive,no_demand_aversive,demand_avoid,1,0.016927658,0,0.5,1
50,0.016547955,hard,mid,48,demand_aversive,demand_aversive,demand_aversive,no_demand_aversive,demand_avoid,0,0.016547955,0,0.5,1
50,0.017007798,easy,mid,49,demand_aversive,demand_aversive,demand_aversive,no_demand_aversive,demand_avoid,1,0.017007798,0,0.5,1
50,0.016014132,easy,mid,50,demand_aversive,demand_aversive,demand_aversive,no_demand_aversive,demand_avoid,1,0.016014132,0,0.5,1
52,0.016921107,easy,mid,1,no_demand_aversive,demand_aversive,demand_aversive,demand_aversive,demand_avoid,1,0.016921107,0,0.5,0.5
52,0.016972614,hard,mid,2,no_demand_aversive,demand_aversive,demand_aversive,demand_aversive,demand_avoid,0,0.016972614,0,0.5,0.5
52,0.01636753,easy,mid,3,no_demand_aversive,demand_aversive,demand_aversive,demand_aversive,demand_avoid,1,0.01636753,0,0.5,0.5
52,0.017336547,hard,mid,4,no_demand_aversive,demand_aversive,demand_aversive,demand_aversive,demand_avoid,0,0.017336547,0,0.5,0.5
52,0.017098154,easy,mid,5,no_demand_aversive,demand_aversive,demand_aversive,demand_aversive,demand_avoid,1,0.017098154,0,0.5,0.5
52,0.0165354,easy,mid,6,no_demand_aversive,demand_aversive,demand_aversive,demand_aversive,demand_avoid,1,0.0165354,0,0.5,0.5
52,0.017132246,hard,mid,7,no_demand_aversive,demand_aversive,demand_aversive,demand_aversive,demand_avoid,0,0.017132246,0,0.5,0.5
52,0.016360492,easy,mid,8,no_demand_aversive,demand_aversive,demand_aversive,demand_aversive,demand_avoid,1,0.016360492,0,0.5,0.5
52,0.016921231,easy,mid,9,no_demand_aversive,demand_aversive,demand_aversive,demand_aversive,demand_avoid,1,0.016921231,0,0.5,0.5
52,0.017091462,easy,mid,10,no_demand_aversive,demand_aversive,demand_aversive,demand_aversive,demand_avoid,1,0.017091462,0,0.5,0.5
52,0.015965698,easy,mid,11,no_demand_aversive,demand_aversive,demand_aversive,demand_aversive,demand_avoid,1,0.015965698,0,0.5,0.5
52,0.017120942,easy,mid,12,no_demand_aversive,demand_aversive,demand_aversive,demand_aversive,demand_avoid,1,0.017120942,0,0.5,0.5
52,0.017307209,hard,mid,13,no_demand_aversive,demand_aversive,demand_aversive,demand_aversive,demand_avoid,0,0.017307209,0,0.5,0.5
52,0.018023519,easy,mid,14,no_demand_aversive,demand_aversive,demand_aversive,demand_aversive,demand_avoid,1,0.018023519,0,0.5,0.5
52,0.01609572,easy,mid,15,no_demand_aversive,demand_aversive,demand_aversive,demand_aversive,demand_avoid,1,0.01609572,0,0.5,0.5
52,0.016425051,easy,mid,16,no_demand_aversive,demand_aversive,demand_aversive,demand_aversive,demand_avoid,1,0.016425051,0,0.5,0.5
52,0.01495662,easy,mid,18,no_demand_aversive,demand_aversive,demand_aversive,demand_aversive,demand_avoid,1,0.01495662,0,0.5,0.5
52,0.016669479,easy,mid,19,no_demand_aversive,demand_aversive,demand_aversive,demand_aversive,demand_avoid,1,0.016669479,0,0.5,0.5
52,0.016869356,easy,mid,20,no_demand_aversive,demand_aversive,demand_aversive,demand_aversive,demand_avoid,1,0.016869356,0,0.5,0.5
52,0.016301712,easy,mid,21,no_demand_aversive,demand_aversive,demand_aversive,demand_aversive,demand_avoid,1,0.016301712,0,0.5,0.5
52,0.016775837,easy,mid,22,no_demand_aversive,demand_aversive,demand_aversive,demand_aversive,demand_avoid,1,0.016775837,0,0.5,0.5
52,0.016930545,easy,mid,23,no_demand_aversive,demand_aversive,demand_aversive,demand_aversive,demand_avoid,1,0.016930545,0,0.5,0.5
52,0.016490713,easy,mid,24,no_demand_aversive,demand_aversive,demand_aversive,demand_aversive,demand_avoid,1,0.016490713,0,0.5,0.5
52,0.017477151,easy,mid,25,no_demand_aversive,demand_aversive,demand_aversive,demand_aversive,demand_avoid,1,0.017477151,0,0.5,0.5
52,0.016859528,easy,mid,27,no_demand_aversive,demand_aversive,demand_aversive,demand_aversive,demand_avoid,1,0.016859528,0,0.5,0.5
52,0.017021085,easy,mid,28,no_demand_aversive,demand_aversive,demand_aversive,demand_aversive,demand_avoid,1,0.017021085,0,0.5,0.5
52,0.015586692,easy,mid,29,no_demand_aversive,demand_aversive,demand_aversive,demand_aversive,demand_avoid,1,0.015586692,0,0.5,0.5
52,0.017167899,easy,mid,30,no_demand_aversive,demand_aversive,demand_aversive,demand_aversive,demand_avoid,1,0.017167899,0,0.5,0.5
52,0.017226815,easy,mid,31,no_demand_aversive,demand_aversive,demand_aversive,demand_aversive,demand_avoid,1,0.017226815,0,0.5,0.5
52,0.016771805,easy,mid,32,no_demand_aversive,demand_aversive,demand_aversive,demand_aversive,demand_avoid,1,0.016771805,0,0.5,0.5
52,0.016994601,easy,mid,33,no_demand_aversive,demand_aversive,demand_aversive,demand_aversive,demand_avoid,1,0.016994601,0,0.5,0.5
52,0.017453238,easy,mid,34,no_demand_aversive,demand_aversive,demand_aversive,demand_aversive,demand_avoid,1,0.017453238,0,0.5,0.5
52,0.016078672,easy,mid,35,no_demand_aversive,demand_aversive,demand_aversive,demand_aversive,demand_avoid,1,0.016078672,0,0.5,0.5
52,0.01694153,easy,mid,36,no_demand_aversive,demand_aversive,demand_aversive,demand_aversive,demand_avoid,1,0.01694153,0,0.5,0.5
52,0.016862552,easy,mid,37,no_demand_aversive,demand_aversive,demand_aversive,demand_aversive,demand_avoid,1,0.016862552,0,0.5,0.5
52,0.017412959,easy,mid,38,no_demand_aversive,demand_aversive,demand_aversive,demand_aversive,demand_avoid,1,0.017412959,0,0.5,0.5
52,0.017138563,easy,mid,39,no_demand_aversive,demand_aversive,demand_aversive,demand_aversive,demand_avoid,1,0.017138563,0,0.5,0.5
52,0.017205617,easy,mid,40,no_demand_aversive,demand_aversive,demand_aversive,demand_aversive,demand_avoid,1,0.017205617,0,0.5,0.5
52,0.017596317,hard,mid,41,no_demand_aversive,demand_aversive,demand_aversive,demand_aversive,demand_avoid,0,0.017596317,0,0.5,0.5
52,0.016353192,easy,mid,42,no_demand_aversive,demand_aversive,demand_aversive,demand_aversive,demand_avoid,1,0.016353192,0,0.5,0.5
52,0.01680355,easy,mid,43,no_demand_aversive,demand_aversive,demand_aversive,demand_aversive,demand_avoid,1,0.01680355,0,0.5,0.5
52,0.015787285,easy,mid,44,no_demand_aversive,demand_aversive,demand_aversive,demand_aversive,demand_avoid,1,0.015787285,0,0.5,0.5
52,0.017558329,easy,mid,45,no_demand_aversive,demand_aversive,demand_aversive,demand_aversive,demand_avoid,1,0.017558329,0,0.5,0.5
52,0.016076407,easy,mid,46,no_demand_aversive,demand_aversive,demand_aversive,demand_aversive,demand_avoid,1,0.016076407,0,0.5,0.5
52,0.016972281,easy,mid,47,no_demand_aversive,demand_aversive,demand_aversive,demand_aversive,demand_avoid,1,0.016972281,0,0.5,0.5
52,0.016663416,hard,mid,48,no_demand_aversive,demand_aversive,demand_aversive,demand_aversive,demand_avoid,0,0.016663416,0,0.5,0.5
52,0.018289249,easy,mid,49,no_demand_aversive,demand_aversive,demand_aversive,demand_aversive,demand_avoid,1,0.018289249,0,0.5,0.5
52,0.017655509,hard,mid,50,no_demand_aversive,demand_aversive,demand_aversive,demand_aversive,demand_avoid,0,0.017655509,0,0.5,0.5
54,0.017809992,hard,mid,1,no_demand_aversive,no_demand_aversive,no_demand_aversive,demand_aversive,no_demand_avoid,0,0.017809992,0,0.5,0.5
54,0.016696702,hard,mid,2,no_demand_aversive,no_demand_aversive,no_demand_aversive,demand_aversive,no_demand_avoid,0,0.016696702,0,0.5,0.5
54,0.017299507,easy,mid,3,no_demand_aversive,no_demand_aversive,no_demand_aversive,demand_aversive,no_demand_avoid,1,0.017299507,0,0.5,0.5
54,0.016932388,easy,mid,4,no_demand_aversive,no_demand_aversive,no_demand_aversive,demand_aversive,no_demand_avoid,1,0.016932388,0,0.5,0.5
54,0.017032045,hard,mid,5,no_demand_aversive,no_demand_aversive,no_demand_aversive,demand_aversive,no_demand_avoid,0,0.017032045,0,0.5,0.5
54,0.015304824,hard,mid,6,no_demand_aversive,no_demand_aversive,no_demand_aversive,demand_aversive,no_demand_avoid,0,0.015304824,0,0.5,0.5
54,0.016772983,hard,mid,7,no_demand_aversive,no_demand_aversive,no_demand_aversive,demand_aversive,no_demand_avoid,0,0.016772983,0,0.5,0.5
54,0.01703656,easy,mid,8,no_demand_aversive,no_demand_aversive,no_demand_aversive,demand_aversive,no_demand_avoid,1,0.01703656,0,0.5,0.5
54,0.016900747,hard,mid,9,no_demand_aversive,no_demand_aversive,no_demand_aversive,demand_aversive,no_demand_avoid,0,0.016900747,0,0.5,0.5
54,0.017263344,hard,mid,10,no_demand_aversive,no_demand_aversive,no_demand_aversive,demand_aversive,no_demand_avoid,0,0.017263344,0,0.5,0.5
54,0.017263231,hard,mid,11,no_demand_aversive,no_demand_aversive,no_demand_aversive,demand_aversive,no_demand_avoid,0,0.017263231,0,0.5,0.5
54,0.016202003,hard,mid,12,no_demand_aversive,no_demand_aversive,no_demand_aversive,demand_aversive,no_demand_avoid,0,0.016202003,0,0.5,0.5
54,0.016424193,hard,mid,13,no_demand_aversive,no_demand_aversive,no_demand_aversive,demand_aversive,no_demand_avoid,0,0.016424193,0,0.5,0.5
54,0.016830908,hard,mid,14,no_demand_aversive,no_demand_aversive,no_demand_aversive,demand_aversive,no_demand_avoid,0,0.016830908,0,0.5,0.5
54,0.017164226,easy,mid,15,no_demand_aversive,no_demand_aversive,no_demand_aversive,demand_aversive,no_demand_avoid,1,0.017164226,0,0.5,0.5
54,0.016127723,hard,mid,16,no_demand_aversive,no_demand_aversive,no_demand_aversive,demand_aversive,no_demand_avoid,0,0.016127723,0,0.5,0.5
54,0.015874316,hard,mid,17,no_demand_aversive,no_demand_aversive,no_demand_aversive,demand_aversive,no_demand_avoid,0,0.015874316,0,0.5,0.5
54,0.016471421,hard,mid,18,no_demand_aversive,no_demand_aversive,no_demand_aversive,demand_aversive,no_demand_avoid,0,0.016471421,0,0.5,0.5
54,0.016164176,hard,mid,19,no_demand_aversive,no_demand_aversive,no_demand_aversive,demand_aversive,no_demand_avoid,0,0.016164176,0,0.5,0.5
54,0.017106173,hard,mid,20,no_demand_aversive,no_demand_aversive,no_demand_aversive,demand_aversive,no_demand_avoid,0,0.017106173,0,0.5,0.5
54,0.016283339,hard,mid,21,no_demand_aversive,no_demand_aversive,no_demand_aversive,demand_aversive,no_demand_avoid,0,0.016283339,0,0.5,0.5
54,0.016808389,hard,mid,22,no_demand_aversive,no_demand_aversive,no_demand_aversive,demand_aversive,no_demand_avoid,0,0.016808389,0,0.5,0.5
54,0.016417933,hard,mid,23,no_demand_aversive,no_demand_aversive,no_demand_aversive,demand_aversive,no_demand_avoid,0,0.016417933,0,0.5,0.5
54,0.016823911,easy,mid,24,no_demand_aversive,no_demand_aversive,no_demand_aversive,demand_aversive,no_demand_avoid,1,0.016823911,0,0.5,0.5
54,0.015382819,hard,mid,25,no_demand_aversive,no_demand_aversive,no_demand_aversive,demand_aversive,no_demand_avoid,0,0.015382819,0,0.5,0.5
54,0.016019867,hard,mid,26,no_demand_aversive,no_demand_aversive,no_demand_aversive,demand_aversive,no_demand_avoid,0,0.016019867,0,0.5,0.5
54,0.016393097,hard,mid,27,no_demand_aversive,no_demand_aversive,no_demand_aversive,demand_aversive,no_demand_avoid,0,0.016393097,0,0.5,0.5
54,0.016643218,easy,mid,28,no_demand_aversive,no_demand_aversive,no_demand_aversive,demand_aversive,no_demand_avoid,1,0.016643218,0,0.5,0.5
54,0.017710967,hard,mid,29,no_demand_aversive,no_demand_aversive,no_demand_aversive,demand_aversive,no_demand_avoid,0,0.017710967,0,0.5,0.5
54,0.015110869,hard,mid,30,no_demand_aversive,no_demand_aversive,no_demand_aversive,demand_aversive,no_demand_avoid,0,0.015110869,0,0.5,0.5
54,0.015738204,hard,mid,31,no_demand_aversive,no_demand_aversive,no_demand_aversive,demand_aversive,no_demand_avoid,0,0.015738204,0,0.5,0.5
54,0.017105259,hard,mid,32,no_demand_aversive,no_demand_aversive,no_demand_aversive,demand_aversive,no_demand_avoid,0,0.017105259,0,0.5,0.5
54,0.017235293,hard,mid,33,no_demand_aversive,no_demand_aversive,no_demand_aversive,demand_aversive,no_demand_avoid,0,0.017235293,0,0.5,0.5
54,0.016765867,hard,mid,34,no_demand_aversive,no_demand_aversive,no_demand_aversive,demand_aversive,no_demand_avoid,0,0.016765867,0,0.5,0.5
54,0.016059656,hard,mid,35,no_demand_aversive,no_demand_aversive,no_demand_aversive,demand_aversive,no_demand_avoid,0,0.016059656,0,0.5,0.5
54,0.016730899,hard,mid,36,no_demand_aversive,no_demand_aversive,no_demand_aversive,demand_aversive,no_demand_avoid,0,0.016730899,0,0.5,0.5
54,0.016500597,hard,mid,37,no_demand_aversive,no_demand_aversive,no_demand_aversive,demand_aversive,no_demand_avoid,0,0.016500597,0,0.5,0.5
54,0.017568866,hard,mid,38,no_demand_aversive,no_demand_aversive,no_demand_aversive,demand_aversive,no_demand_avoid,0,0.017568866,0,0.5,0.5
54,0.016538614,easy,mid,39,no_demand_aversive,no_demand_aversive,no_demand_aversive,demand_aversive,no_demand_avoid,1,0.016538614,0,0.5,0.5
54,0.01687652,easy,mid,40,no_demand_aversive,no_demand_aversive,no_demand_aversive,demand_aversive,no_demand_avoid,1,0.01687652,0,0.5,0.5
54,0.017430628,easy,mid,41,no_demand_aversive,no_demand_aversive,no_demand_aversive,demand_aversive,no_demand_avoid,1,0.017430628,0,0.5,0.5
54,0.016581809,easy,mid,42,no_demand_aversive,no_demand_aversive,no_demand_aversive,demand_aversive,no_demand_avoid,1,0.016581809,0,0.5,0.5
54,0.016381901,easy,mid,44,no_demand_aversive,no_demand_aversive,no_demand_aversive,demand_aversive,no_demand_avoid,1,0.016381901,0,0.5,0.5
54,0.016560146,easy,mid,45,no_demand_aversive,no_demand_aversive,no_demand_aversive,demand_aversive,no_demand_avoid,1,0.016560146,0,0.5,0.5
54,0.017292494,easy,mid,46,no_demand_aversive,no_demand_aversive,no_demand_aversive,demand_aversive,no_demand_avoid,1,0.017292494,0,0.5,0.5
54,0.017122065,easy,mid,47,no_demand_aversive,no_demand_aversive,no_demand_aversive,demand_aversive,no_demand_avoid,1,0.017122065,0,0.5,0.5
54,0.017337326,easy,mid,48,no_demand_aversive,no_demand_aversive,no_demand_aversive,demand_aversive,no_demand_avoid,1,0.017337326,0,0.5,0.5
54,0.016515272,easy,mid,49,no_demand_aversive,no_demand_aversive,no_demand_aversive,demand_aversive,no_demand_avoid,1,0.016515272,0,0.5,0.5
54,0.015826585,easy,mid,50,no_demand_aversive,no_demand_aversive,no_demand_aversive,demand_aversive,no_demand_avoid,1,0.015826585,0,0.5,0.5
56,0.015193572,easy,mid,1,demand_aversive,demand_aversive,demand_aversive,demand_aversive,demand_avoid,1,0.015193572,0,0.5,1
56,0.015663387,hard,mid,2,demand_aversive,demand_aversive,demand_aversive,demand_aversive,demand_avoid,0,0.015663387,0,0.5,1
56,0.0170675,easy,mid,3,demand_aversive,demand_aversive,demand_aversive,demand_aversive,demand_avoid,1,0.0170675,0,0.5,1
56,0.015925433,easy,mid,4,demand_aversive,demand_aversive,demand_aversive,demand_aversive,demand_avoid,1,0.015925433,0,0.5,1
56,0.016059511,hard,mid,5,demand_aversive,demand_aversive,demand_aversive,demand_aversive,demand_avoid,0,0.016059511,0,0.5,1
56,0.015305269,easy,mid,6,demand_aversive,demand_aversive,demand_aversive,demand_aversive,demand_avoid,1,0.015305269,0,0.5,1
56,0.016475461,easy,mid,7,demand_aversive,demand_aversive,demand_aversive,demand_aversive,demand_avoid,1,0.016475461,0,0.5,1
56,0.01543369,easy,mid,8,demand_aversive,demand_aversive,demand_aversive,demand_aversive,demand_avoid,1,0.01543369,0,0.5,1
56,0.015348147,easy,mid,9,demand_aversive,demand_aversive,demand_aversive,demand_aversive,demand_avoid,1,0.015348147,0,0.5,1
56,0.016996134,easy,mid,10,demand_aversive,demand_aversive,demand_aversive,demand_aversive,demand_avoid,1,0.016996134,0,0.5,1
56,0.015986916,hard,mid,11,demand_aversive,demand_aversive,demand_aversive,demand_aversive,demand_avoid,0,0.015986916,0,0.5,1
56,0.015986491,easy,mid,12,demand_aversive,demand_aversive,demand_aversive,demand_aversive,demand_avoid,1,0.015986491,0,0.5,1
56,0.017257816,hard,mid,13,demand_aversive,demand_aversive,demand_aversive,demand_aversive,demand_avoid,0,0.017257816,0,0.5,1
56,0.016669727,easy,mid,14,demand_aversive,demand_aversive,demand_aversive,demand_aversive,demand_avoid,1,0.016669727,0,0.5,1
56,0.015597522,hard,mid,15,demand_aversive,demand_aversive,demand_aversive,demand_aversive,demand_avoid,0,0.015597522,0,0.5,1
56,0.016527062,hard,mid,16,demand_aversive,demand_aversive,demand_aversive,demand_aversive,demand_avoid,0,0.016527062,0,0.5,1
56,0.016232033,easy,mid,17,demand_aversive,demand_aversive,demand_aversive,demand_aversive,demand_avoid,1,0.016232033,0,0.5,1
56,0.017243793,easy,mid,18,demand_aversive,demand_aversive,demand_aversive,demand_aversive,demand_avoid,1,0.017243793,0,0.5,1
56,0.016966385,easy,mid,19,demand_aversive,demand_aversive,demand_aversive,demand_aversive,demand_avoid,1,0.016966385,0,0.5,1
56,0.015330197,easy,mid,20,demand_aversive,demand_aversive,demand_aversive,demand_aversive,demand_avoid,1,0.015330197,0,0.5,1
56,0.016292967,easy,mid,21,demand_aversive,demand_aversive,demand_aversive,demand_aversive,demand_avoid,1,0.016292967,0,0.5,1
56,0.016514467,easy,mid,22,demand_aversive,demand_aversive,demand_aversive,demand_aversive,demand_avoid,1,0.016514467,0,0.5,1
56,0.01572765,easy,mid,23,demand_aversive,demand_aversive,demand_aversive,demand_aversive,demand_avoid,1,0.01572765,0,0.5,1
56,0.016707878,easy,mid,24,demand_aversive,demand_aversive,demand_aversive,demand_aversive,demand_avoid,1,0.016707878,0,0.5,1
56,0.016578388,easy,mid,25,demand_aversive,demand_aversive,demand_aversive,demand_aversive,demand_avoid,1,0.016578388,0,0.5,1
56,0.015818501,hard,mid,26,demand_aversive,demand_aversive,demand_aversive,demand_aversive,demand_avoid,0,0.015818501,0,0.5,1
56,0.015823878,easy,mid,27,demand_aversive,demand_aversive,demand_aversive,demand_aversive,demand_avoid,1,0.015823878,0,0.5,1
56,0.015720987,easy,mid,28,demand_aversive,demand_aversive,demand_aversive,demand_aversive,demand_avoid,1,0.015720987,0,0.5,1
56,0.016243637,easy,mid,29,demand_aversive,demand_aversive,demand_aversive,demand_aversive,demand_avoid,1,0.016243637,0,0.5,1
56,0.015663772,easy,mid,30,demand_aversive,demand_aversive,demand_aversive,demand_aversive,demand_avoid,1,0.015663772,0,0.5,1
56,0.014881172,easy,mid,31,demand_aversive,demand_aversive,demand_aversive,demand_aversive,demand_avoid,1,0.014881172,0,0.5,1
56,0.016912471,easy,mid,32,demand_aversive,demand_aversive,demand_aversive,demand_aversive,demand_avoid,1,0.016912471,0,0.5,1
56,0.015788275,easy,mid,34,demand_aversive,demand_aversive,demand_aversive,demand_aversive,demand_avoid,1,0.015788275,0,0.5,1
56,0.016089296,easy,mid,35,demand_aversive,demand_aversive,demand_aversive,demand_aversive,demand_avoid,1,0.016089296,0,0.5,1
56,0.015831665,easy,mid,36,demand_aversive,demand_aversive,demand_aversive,demand_aversive,demand_avoid,1,0.015831665,0,0.5,1
56,0.015707693,hard,mid,37,demand_aversive,demand_aversive,demand_aversive,demand_aversive,demand_avoid,0,0.015707693,0,0.5,1
56,0.01584401,easy,mid,38,demand_aversive,demand_aversive,demand_aversive,demand_aversive,demand_avoid,1,0.01584401,0,0.5,1
56,0.016107726,easy,mid,39,demand_aversive,demand_aversive,demand_aversive,demand_aversive,demand_avoid,1,0.016107726,0,0.5,1
56,0.015757123,hard,mid,40,demand_aversive,demand_aversive,demand_aversive,demand_aversive,demand_avoid,0,0.015757123,0,0.5,1
56,0.015371916,hard,mid,41,demand_aversive,demand_aversive,demand_aversive,demand_aversive,demand_avoid,0,0.015371916,0,0.5,1
56,0.016790364,easy,mid,42,demand_aversive,demand_aversive,demand_aversive,demand_aversive,demand_avoid,1,0.016790364,0,0.5,1
56,0.016369913,hard,mid,43,demand_aversive,demand_aversive,demand_aversive,demand_aversive,demand_avoid,0,0.016369913,0,0.5,1
56,0.016584974,easy,mid,44,demand_aversive,demand_aversive,demand_aversive,demand_aversive,demand_avoid,1,0.016584974,0,0.5,1
56,0.015933856,hard,mid,45,demand_aversive,demand_aversive,demand_aversive,demand_aversive,demand_avoid,0,0.015933856,0,0.5,1
56,0.015820291,easy,mid,46,demand_aversive,demand_aversive,demand_aversive,demand_aversive,demand_avoid,1,0.015820291,0,0.5,1
56,0.015738222,easy,mid,47,demand_aversive,demand_aversive,demand_aversive,demand_aversive,demand_avoid,1,0.015738222,0,0.5,1
56,0.016291793,easy,mid,48,demand_aversive,demand_aversive,demand_aversive,demand_aversive,demand_avoid,1,0.016291793,0,0.5,1
56,0.015776061,hard,mid,49,demand_aversive,demand_aversive,demand_aversive,demand_aversive,demand_avoid,0,0.015776061,0,0.5,1
56,0.015984906,easy,mid,50,demand_aversive,demand_aversive,demand_aversive,demand_aversive,demand_avoid,1,0.015984906,0,0.5,1
57,0.016412811,easy,mid,1,demand_aversive,demand_aversive,no_demand_aversive,no_demand_aversive,demand_avoid,1,0.016412811,0,0.5,1
57,0.01567292,easy,mid,2,demand_aversive,demand_aversive,no_demand_aversive,no_demand_aversive,demand_avoid,1,0.01567292,0,0.5,1
57,0.015907507,hard,mid,3,demand_aversive,demand_aversive,no_demand_aversive,no_demand_aversive,demand_avoid,0,0.015907507,0,0.5,1
57,0.016026058,easy,mid,4,demand_aversive,demand_aversive,no_demand_aversive,no_demand_aversive,demand_avoid,1,0.016026058,0,0.5,1
57,0.016427882,hard,mid,5,demand_aversive,demand_aversive,no_demand_aversive,no_demand_aversive,demand_avoid,0,0.016427882,0,0.5,1
57,0.016060489,easy,mid,6,demand_aversive,demand_aversive,no_demand_aversive,no_demand_aversive,demand_avoid,1,0.016060489,0,0.5,1
57,0.016610589,easy,mid,7,demand_aversive,demand_aversive,no_demand_aversive,no_demand_aversive,demand_avoid,1,0.016610589,0,0.5,1
57,0.015380098,easy,mid,8,demand_aversive,demand_aversive,no_demand_aversive,no_demand_aversive,demand_avoid,1,0.015380098,0,0.5,1
57,0.015732594,easy,mid,9,demand_aversive,demand_aversive,no_demand_aversive,no_demand_aversive,demand_avoid,1,0.015732594,0,0.5,1
57,0.016507744,easy,mid,10,demand_aversive,demand_aversive,no_demand_aversive,no_demand_aversive,demand_avoid,1,0.016507744,0,0.5,1
57,0.01625549,easy,mid,11,demand_aversive,demand_aversive,no_demand_aversive,no_demand_aversive,demand_avoid,1,0.01625549,0,0.5,1
57,0.015893361,easy,mid,12,demand_aversive,demand_aversive,no_demand_aversive,no_demand_aversive,demand_avoid,1,0.015893361,0,0.5,1
57,0.016404327,easy,mid,13,demand_aversive,demand_aversive,no_demand_aversive,no_demand_aversive,demand_avoid,1,0.016404327,0,0.5,1
57,0.017015458,easy,mid,14,demand_aversive,demand_aversive,no_demand_aversive,no_demand_aversive,demand_avoid,1,0.017015458,0,0.5,1
57,0.015894597,easy,mid,15,demand_aversive,demand_aversive,no_demand_aversive,no_demand_aversive,demand_avoid,1,0.015894597,0,0.5,1
57,0.016406845,easy,mid,16,demand_aversive,demand_aversive,no_demand_aversive,no_demand_aversive,demand_avoid,1,0.016406845,0,0.5,1
57,0.016000852,easy,mid,17,demand_aversive,demand_aversive,no_demand_aversive,no_demand_aversive,demand_avoid,1,0.016000852,0,0.5,1
57,0.016349656,easy,mid,18,demand_aversive,demand_aversive,no_demand_aversive,no_demand_aversive,demand_avoid,1,0.016349656,0,0.5,1
57,0.015462108,easy,mid,19,demand_aversive,demand_aversive,no_demand_aversive,no_demand_aversive,demand_avoid,1,0.015462108,0,0.5,1
57,0.01540634,easy,mid,20,demand_aversive,demand_aversive,no_demand_aversive,no_demand_aversive,demand_avoid,1,0.01540634,0,0.5,1
57,0.016802164,easy,mid,21,demand_aversive,demand_aversive,no_demand_aversive,no_demand_aversive,demand_avoid,1,0.016802164,0,0.5,1
57,0.016480664,hard,mid,22,demand_aversive,demand_aversive,no_demand_aversive,no_demand_aversive,demand_avoid,0,0.016480664,0,0.5,1
57,0.016813739,easy,mid,23,demand_aversive,demand_aversive,no_demand_aversive,no_demand_aversive,demand_avoid,1,0.016813739,0,0.5,1
57,0.015864573,hard,mid,24,demand_aversive,demand_aversive,no_demand_aversive,no_demand_aversive,demand_avoid,0,0.015864573,0,0.5,1
57,0.015729693,hard,mid,25,demand_aversive,demand_aversive,no_demand_aversive,no_demand_aversive,demand_avoid,0,0.015729693,0,0.5,1
57,0.016181567,hard,mid,26,demand_aversive,demand_aversive,no_demand_aversive,no_demand_aversive,demand_avoid,0,0.016181567,0,0.5,1
57,0.015593347,hard,mid,27,demand_aversive,demand_aversive,no_demand_aversive,no_demand_aversive,demand_avoid,0,0.015593347,0,0.5,1
57,0.016378989,hard,mid,28,demand_aversive,demand_aversive,no_demand_aversive,no_demand_aversive,demand_avoid,0,0.016378989,0,0.5,1
57,0.016324617,easy,mid,29,demand_aversive,demand_aversive,no_demand_aversive,no_demand_aversive,demand_avoid,1,0.016324617,0,0.5,1
57,0.015952345,easy,mid,30,demand_aversive,demand_aversive,no_demand_aversive,no_demand_aversive,demand_avoid,1,0.015952345,0,0.5,1
57,0.0159795,easy,mid,31,demand_aversive,demand_aversive,no_demand_aversive,no_demand_aversive,demand_avoid,1,0.0159795,0,0.5,1
57,0.016551583,hard,mid,32,demand_aversive,demand_aversive,no_demand_aversive,no_demand_aversive,demand_avoid,0,0.016551583,0,0.5,1
57,0.017008717,easy,mid,33,demand_aversive,demand_aversive,no_demand_aversive,no_demand_aversive,demand_avoid,1,0.017008717,0,0.5,1
57,0.016327736,hard,mid,34,demand_aversive,demand_aversive,no_demand_aversive,no_demand_aversive,demand_avoid,0,0.016327736,0,0.5,1
57,0.016088715,easy,mid,35,demand_aversive,demand_aversive,no_demand_aversive,no_demand_aversive,demand_avoid,1,0.016088715,0,0.5,1
57,0.016078092,hard,mid,36,demand_aversive,demand_aversive,no_demand_aversive,no_demand_aversive,demand_avoid,0,0.016078092,0,0.5,1
57,0.015509821,hard,mid,37,demand_aversive,demand_aversive,no_demand_aversive,no_demand_aversive,demand_avoid,0,0.015509821,0,0.5,1
57,0.016392552,easy,mid,38,demand_aversive,demand_aversive,no_demand_aversive,no_demand_aversive,demand_avoid,1,0.016392552,0,0.5,1
57,0.016560887,hard,mid,39,demand_aversive,demand_aversive,no_demand_aversive,no_demand_aversive,demand_avoid,0,0.016560887,0,0.5,1
57,0.015138609,hard,mid,40,demand_aversive,demand_aversive,no_demand_aversive,no_demand_aversive,demand_avoid,0,0.015138609,0,0.5,1
57,0.015660787,easy,mid,41,demand_aversive,demand_aversive,no_demand_aversive,no_demand_aversive,demand_avoid,1,0.015660787,0,0.5,1
57,0.015609055,hard,mid,43,demand_aversive,demand_aversive,no_demand_aversive,no_demand_aversive,demand_avoid,0,0.015609055,0,0.5,1
57,0.015554393,hard,mid,44,demand_aversive,demand_aversive,no_demand_aversive,no_demand_aversive,demand_avoid,0,0.015554393,0,0.5,1
57,0.016029951,hard,mid,45,demand_aversive,demand_aversive,no_demand_aversive,no_demand_aversive,demand_avoid,0,0.016029951,0,0.5,1
57,0.016835388,hard,mid,46,demand_aversive,demand_aversive,no_demand_aversive,no_demand_aversive,demand_avoid,0,0.016835388,0,0.5,1
57,0.015381893,easy,mid,47,demand_aversive,demand_aversive,no_demand_aversive,no_demand_aversive,demand_avoid,1,0.015381893,0,0.5,1
57,0.016092709,hard,mid,48,demand_aversive,demand_aversive,no_demand_aversive,no_demand_aversive,demand_avoid,0,0.016092709,0,0.5,1
57,0.016911593,easy,mid,49,demand_aversive,demand_aversive,no_demand_aversive,no_demand_aversive,demand_avoid,1,0.016911593,0,0.5,1
57,0.015917725,hard,mid,50,demand_aversive,demand_aversive,no_demand_aversive,no_demand_aversive,demand_avoid,0,0.015917725,0,0.5,1
58,0.008905495,easy,mid,1,demand_aversive,no_demand_aversive,demand_aversive,demand_aversive,demand_avoid,1,0.008905495,0,0.5,1
58,0.006788073,easy,mid,2,demand_aversive,no_demand_aversive,demand_aversive,demand_aversive,demand_avoid,1,0.006788073,0,0.5,1
58,0.005560876,easy,mid,3,demand_aversive,no_demand_aversive,demand_aversive,demand_aversive,demand_avoid,1,0.005560876,0,0.5,1
58,0.006839898,easy,mid,4,demand_aversive,no_demand_aversive,demand_aversive,demand_aversive,demand_avoid,1,0.006839898,0,0.5,1
58,0.010249857,easy,mid,5,demand_aversive,no_demand_aversive,demand_aversive,demand_aversive,demand_avoid,1,0.010249857,0,0.5,1
58,0.010325655,easy,mid,6,demand_aversive,no_demand_aversive,demand_aversive,demand_aversive,demand_avoid,1,0.010325655,0,0.5,1
58,0.010637984,easy,mid,7,demand_aversive,no_demand_aversive,demand_aversive,demand_aversive,demand_avoid,1,0.010637984,0,0.5,1
58,0.010148913,easy,mid,8,demand_aversive,no_demand_aversive,demand_aversive,demand_aversive,demand_avoid,1,0.010148913,0,0.5,1
58,0.009981961,easy,mid,9,demand_aversive,no_demand_aversive,demand_aversive,demand_aversive,demand_avoid,1,0.009981961,0,0.5,1
58,0.010582647,easy,mid,10,demand_aversive,no_demand_aversive,demand_aversive,demand_aversive,demand_avoid,1,0.010582647,0,0.5,1
58,0.005639151,easy,mid,11,demand_aversive,no_demand_aversive,demand_aversive,demand_aversive,demand_avoid,1,0.005639151,0,0.5,1
58,0.010465137,easy,mid,12,demand_aversive,no_demand_aversive,demand_aversive,demand_aversive,demand_avoid,1,0.010465137,0,0.5,1
58,0.010286606,easy,mid,13,demand_aversive,no_demand_aversive,demand_aversive,demand_aversive,demand_avoid,1,0.010286606,0,0.5,1
58,0.010457086,easy,mid,14,demand_aversive,no_demand_aversive,demand_aversive,demand_aversive,demand_avoid,1,0.010457086,0,0.5,1
58,0.010042189,easy,mid,15,demand_aversive,no_demand_aversive,demand_aversive,demand_aversive,demand_avoid,1,0.010042189,0,0.5,1
58,0.010186783,easy,mid,16,demand_aversive,no_demand_aversive,demand_aversive,demand_aversive,demand_avoid,1,0.010186783,0,0.5,1
58,0.006843484,easy,mid,17,demand_aversive,no_demand_aversive,demand_aversive,demand_aversive,demand_avoid,1,0.006843484,0,0.5,1
58,0.010182577,easy,mid,18,demand_aversive,no_demand_aversive,demand_aversive,demand_aversive,demand_avoid,1,0.010182577,0,0.5,1
58,0.009632605,easy,mid,19,demand_aversive,no_demand_aversive,demand_aversive,demand_aversive,demand_avoid,1,0.009632605,0,0.5,1
58,0.005416047,easy,mid,20,demand_aversive,no_demand_aversive,demand_aversive,demand_aversive,demand_avoid,1,0.005416047,0,0.5,1
58,0.005742961,easy,mid,21,demand_aversive,no_demand_aversive,demand_aversive,demand_aversive,demand_avoid,1,0.005742961,0,0.5,1
58,0.010598578,easy,mid,22,demand_aversive,no_demand_aversive,demand_aversive,demand_aversive,demand_avoid,1,0.010598578,0,0.5,1
58,0.010130775,easy,mid,23,demand_aversive,no_demand_aversive,demand_aversive,demand_aversive,demand_avoid,1,0.010130775,0,0.5,1
58,0.010275421,easy,mid,24,demand_aversive,no_demand_aversive,demand_aversive,demand_aversive,demand_avoid,1,0.010275421,0,0.5,1
58,0.006853816,easy,mid,25,demand_aversive,no_demand_aversive,demand_aversive,demand_aversive,demand_avoid,1,0.006853816,0,0.5,1
58,0.006945659,hard,mid,26,demand_aversive,no_demand_aversive,demand_aversive,demand_aversive,demand_avoid,0,0.006945659,0,0.5,1
58,0.010192186,easy,mid,27,demand_aversive,no_demand_aversive,demand_aversive,demand_aversive,demand_avoid,1,0.010192186,0,0.5,1
58,0.00674697,hard,mid,28,demand_aversive,no_demand_aversive,demand_aversive,demand_aversive,demand_avoid,0,0.00674697,0,0.5,1
58,0.006733943,easy,mid,29,demand_aversive,no_demand_aversive,demand_aversive,demand_aversive,demand_avoid,1,0.006733943,0,0.5,1
58,0.010182854,easy,mid,30,demand_aversive,no_demand_aversive,demand_aversive,demand_aversive,demand_avoid,1,0.010182854,0,0.5,1
58,0.010230283,easy,mid,31,demand_aversive,no_demand_aversive,demand_aversive,demand_aversive,demand_avoid,1,0.010230283,0,0.5,1
58,0.010541806,easy,mid,32,demand_aversive,no_demand_aversive,demand_aversive,demand_aversive,demand_avoid,1,0.010541806,0,0.5,1
58,0.010996968,easy,mid,33,demand_aversive,no_demand_aversive,demand_aversive,demand_aversive,demand_avoid,1,0.010996968,0,0.5,1
58,0.010413687,easy,mid,34,demand_aversive,no_demand_aversive,demand_aversive,demand_aversive,demand_avoid,1,0.010413687,0,0.5,1
58,0.010775896,easy,mid,35,demand_aversive,no_demand_aversive,demand_aversive,demand_aversive,demand_avoid,1,0.010775896,0,0.5,1
58,0.006502553,easy,mid,36,demand_aversive,no_demand_aversive,demand_aversive,demand_aversive,demand_avoid,1,0.006502553,0,0.5,1
58,0.007003945,easy,mid,37,demand_aversive,no_demand_aversive,demand_aversive,demand_aversive,demand_avoid,1,0.007003945,0,0.5,1
58,0.006566696,easy,mid,38,demand_aversive,no_demand_aversive,demand_aversive,demand_aversive,demand_avoid,1,0.006566696,0,0.5,1
58,0.010573421,easy,mid,39,demand_aversive,no_demand_aversive,demand_aversive,demand_aversive,demand_avoid,1,0.010573421,0,0.5,1
58,0.006032462,easy,mid,40,demand_aversive,no_demand_aversive,demand_aversive,demand_aversive,demand_avoid,1,0.006032462,0,0.5,1
58,0.006119774,easy,mid,41,demand_aversive,no_demand_aversive,demand_aversive,demand_aversive,demand_avoid,1,0.006119774,0,0.5,1
58,0.006683392,easy,mid,42,demand_aversive,no_demand_aversive,demand_aversive,demand_aversive,demand_avoid,1,0.006683392,0,0.5,1
58,0.006936082,easy,mid,43,demand_aversive,no_demand_aversive,demand_aversive,demand_aversive,demand_avoid,1,0.006936082,0,0.5,1
58,0.01033186,easy,mid,44,demand_aversive,no_demand_aversive,demand_aversive,demand_aversive,demand_avoid,1,0.01033186,0,0.5,1
58,0.010342356,easy,mid,45,demand_aversive,no_demand_aversive,demand_aversive,demand_aversive,demand_avoid,1,0.010342356,0,0.5,1
58,0.010391174,easy,mid,46,demand_aversive,no_demand_aversive,demand_aversive,demand_aversive,demand_avoid,1,0.010391174,0,0.5,1
58,0.006740958,hard,mid,47,demand_aversive,no_demand_aversive,demand_aversive,demand_aversive,demand_avoid,0,0.006740958,0,0.5,1
58,0.01013574,easy,mid,48,demand_aversive,no_demand_aversive,demand_aversive,demand_aversive,demand_avoid,1,0.01013574,0,0.5,1
58,0.010118652,easy,mid,49,demand_aversive,no_demand_aversive,demand_aversive,demand_aversive,demand_avoid,1,0.010118652,0,0.5,1
58,0.006754756,easy,mid,50,demand_aversive,no_demand_aversive,demand_aversive,demand_aversive,demand_avoid,1,0.006754756,0,0.5,1
59,0.010431846,hard,mid,1,demand_aversive,no_demand_aversive,no_demand_aversive,no_demand_aversive,no_demand_avoid,0,0.010431846,0,0.5,1
59,0.010943833,easy,mid,2,demand_aversive,no_demand_aversive,no_demand_aversive,no_demand_aversive,no_demand_avoid,1,0.010943833,0,0.5,1
59,0.006818846,easy,mid,3,demand_aversive,no_demand_aversive,no_demand_aversive,no_demand_aversive,no_demand_avoid,1,0.006818846,0,0.5,1
59,0.00622319,hard,mid,4,demand_aversive,no_demand_aversive,no_demand_aversive,no_demand_aversive,no_demand_avoid,0,0.00622319,0,0.5,1
59,0.006430457,easy,mid,5,demand_aversive,no_demand_aversive,no_demand_aversive,no_demand_aversive,no_demand_avoid,1,0.006430457,0,0.5,1
59,0.010102154,hard,mid,6,demand_aversive,no_demand_aversive,no_demand_aversive,no_demand_aversive,no_demand_avoid,0,0.010102154,0,0.5,1
59,0.006688957,easy,mid,7,demand_aversive,no_demand_aversive,no_demand_aversive,no_demand_aversive,no_demand_avoid,1,0.006688957,0,0.5,1
59,0.009985839,easy,mid,8,demand_aversive,no_demand_aversive,no_demand_aversive,no_demand_aversive,no_demand_avoid,1,0.009985839,0,0.5,1
59,0.010570882,easy,mid,9,demand_aversive,no_demand_aversive,no_demand_aversive,no_demand_aversive,no_demand_avoid,1,0.010570882,0,0.5,1
59,0.009613799,hard,mid,10,demand_aversive,no_demand_aversive,no_demand_aversive,no_demand_aversive,no_demand_avoid,0,0.009613799,0,0.5,1
59,0.010097187,hard,mid,11,demand_aversive,no_demand_aversive,no_demand_aversive,no_demand_aversive,no_demand_avoid,0,0.010097187,0,0.5,1
59,0.00518845,hard,mid,12,demand_aversive,no_demand_aversive,no_demand_aversive,no_demand_aversive,no_demand_avoid,0,0.00518845,0,0.5,1
59,0.006409652,easy,mid,13,demand_aversive,no_demand_aversive,no_demand_aversive,no_demand_aversive,no_demand_avoid,1,0.006409652,0,0.5,1
59,0.011338811,easy,mid,14,demand_aversive,no_demand_aversive,no_demand_aversive,no_demand_aversive,no_demand_avoid,1,0.011338811,0,0.5,1
59,0.01105808,hard,mid,15,demand_aversive,no_demand_aversive,no_demand_aversive,no_demand_aversive,no_demand_avoid,0,0.01105808,0,0.5,1
59,0.010109244,hard,mid,16,demand_aversive,no_demand_aversive,no_demand_aversive,no_demand_aversive,no_demand_avoid,0,0.010109244,0,0.5,1
59,0.010731128,hard,mid,17,demand_aversive,no_demand_aversive,no_demand_aversive,no_demand_aversive,no_demand_avoid,0,0.010731128,0,0.5,1
59,0.006585007,easy,mid,18,demand_aversive,no_demand_aversive,no_demand_aversive,no_demand_aversive,no_demand_avoid,1,0.006585007,0,0.5,1
59,0.010880264,easy,mid,19,demand_aversive,no_demand_aversive,no_demand_aversive,no_demand_aversive,no_demand_avoid,1,0.010880264,0,0.5,1
59,0.006843892,easy,mid,20,demand_aversive,no_demand_aversive,no_demand_aversive,no_demand_aversive,no_demand_avoid,1,0.006843892,0,0.5,1
59,0.010524692,hard,mid,21,demand_aversive,no_demand_aversive,no_demand_aversive,no_demand_aversive,no_demand_avoid,0,0.010524692,0,0.5,1
59,0.01039296,easy,mid,22,demand_aversive,no_demand_aversive,no_demand_aversive,no_demand_aversive,no_demand_avoid,1,0.01039296,0,0.5,1
59,0.00560537,easy,mid,23,demand_aversive,no_demand_aversive,no_demand_aversive,no_demand_aversive,no_demand_avoid,1,0.00560537,0,0.5,1
59,0.006477827,hard,mid,24,demand_aversive,no_demand_aversive,no_demand_aversive,no_demand_aversive,no_demand_avoid,0,0.006477827,0,0.5,1
59,0.010687671,easy,mid,25,demand_aversive,no_demand_aversive,no_demand_aversive,no_demand_aversive,no_demand_avoid,1,0.010687671,0,0.5,1
59,0.010104853,easy,mid,26,demand_aversive,no_demand_aversive,no_demand_aversive,no_demand_aversive,no_demand_avoid,1,0.010104853,0,0.5,1
59,0.010370459,easy,mid,27,demand_aversive,no_demand_aversive,no_demand_aversive,no_demand_aversive,no_demand_avoid,1,0.010370459,0,0.5,1
59,0.006876158,easy,mid,28,demand_aversive,no_demand_aversive,no_demand_aversive,no_demand_aversive,no_demand_avoid,1,0.006876158,0,0.5,1
59,0.010586637,easy,mid,29,demand_aversive,no_demand_aversive,no_demand_aversive,no_demand_aversive,no_demand_avoid,1,0.010586637,0,0.5,1
59,0.005951362,hard,mid,30,demand_aversive,no_demand_aversive,no_demand_aversive,no_demand_aversive,no_demand_avoid,0,0.005951362,0,0.5,1
59,0.010540199,hard,mid,31,demand_aversive,no_demand_aversive,no_demand_aversive,no_demand_aversive,no_demand_avoid,0,0.010540199,0,0.5,1
59,0.006655715,hard,mid,32,demand_aversive,no_demand_aversive,no_demand_aversive,no_demand_aversive,no_demand_avoid,0,0.006655715,0,0.5,1
59,0.010795361,easy,mid,33,demand_aversive,no_demand_aversive,no_demand_aversive,no_demand_aversive,no_demand_avoid,1,0.010795361,0,0.5,1
59,0.010765072,easy,mid,34,demand_aversive,no_demand_aversive,no_demand_aversive,no_demand_aversive,no_demand_avoid,1,0.010765072,0,0.5,1
59,0.010368051,hard,mid,35,demand_aversive,no_demand_aversive,no_demand_aversive,no_demand_aversive,no_demand_avoid,0,0.010368051,0,0.5,1
59,0.010499131,hard,mid,36,demand_aversive,no_demand_aversive,no_demand_aversive,no_demand_aversive,no_demand_avoid,0,0.010499131,0,0.5,1
59,0.010067713,hard,mid,37,demand_aversive,no_demand_aversive,no_demand_aversive,no_demand_aversive,no_demand_avoid,0,0.010067713,0,0.5,1
59,0.010602811,easy,mid,38,demand_aversive,no_demand_aversive,no_demand_aversive,no_demand_aversive,no_demand_avoid,1,0.010602811,0,0.5,1
59,0.010984477,hard,mid,39,demand_aversive,no_demand_aversive,no_demand_aversive,no_demand_aversive,no_demand_avoid,0,0.010984477,0,0.5,1
59,0.008935614,easy,mid,40,demand_aversive,no_demand_aversive,no_demand_aversive,no_demand_aversive,no_demand_avoid,1,0.008935614,0,0.5,1
59,0.010484511,easy,mid,41,demand_aversive,no_demand_aversive,no_demand_aversive,no_demand_aversive,no_demand_avoid,1,0.010484511,0,0.5,1
59,0.006393871,easy,mid,42,demand_aversive,no_demand_aversive,no_demand_aversive,no_demand_aversive,no_demand_avoid,1,0.006393871,0,0.5,1
59,0.01019564,easy,mid,43,demand_aversive,no_demand_aversive,no_demand_aversive,no_demand_aversive,no_demand_avoid,1,0.01019564,0,0.5,1
59,0.01032057,hard,mid,44,demand_aversive,no_demand_aversive,no_demand_aversive,no_demand_aversive,no_demand_avoid,0,0.01032057,0,0.5,1
59,0.006502687,easy,mid,45,demand_aversive,no_demand_aversive,no_demand_aversive,no_demand_aversive,no_demand_avoid,1,0.006502687,0,0.5,1
59,0.010484151,easy,mid,46,demand_aversive,no_demand_aversive,no_demand_aversive,no_demand_aversive,no_demand_avoid,1,0.010484151,0,0.5,1
59,0.009242275,easy,mid,47,demand_aversive,no_demand_aversive,no_demand_aversive,no_demand_aversive,no_demand_avoid,1,0.009242275,0,0.5,1
59,0.00652123,easy,mid,48,demand_aversive,no_demand_aversive,no_demand_aversive,no_demand_aversive,no_demand_avoid,1,0.00652123,0,0.5,1
59,0.005476705,hard,mid,49,demand_aversive,no_demand_aversive,no_demand_aversive,no_demand_aversive,no_demand_avoid,0,0.005476705,0,0.5,1
59,0.009131304,hard,mid,50,demand_aversive,no_demand_aversive,no_demand_aversive,no_demand_aversive,no_demand_avoid,0,0.009131304,0,0.5,1
60,0.006678964,easy,mid,1,demand_aversive,demand_aversive,demand_aversive,demand_aversive,demand_avoid,1,0.006678964,0,0.5,1
60,0.010422774,hard,mid,2,demand_aversive,demand_aversive,demand_aversive,demand_aversive,demand_avoid,0,0.010422774,0,0.5,1
60,0.010749805,easy,mid,3,demand_aversive,demand_aversive,demand_aversive,demand_aversive,demand_avoid,1,0.010749805,0,0.5,1
60,0.009780422,easy,mid,4,demand_aversive,demand_aversive,demand_aversive,demand_aversive,demand_avoid,1,0.009780422,0,0.5,1
60,0.010000291,easy,mid,5,demand_aversive,demand_aversive,demand_aversive,demand_aversive,demand_avoid,1,0.010000291,0,0.5,1
60,0.010496529,easy,mid,6,demand_aversive,demand_aversive,demand_aversive,demand_aversive,demand_avoid,1,0.010496529,0,0.5,1
60,0.010255262,easy,mid,7,demand_aversive,demand_aversive,demand_aversive,demand_aversive,demand_avoid,1,0.010255262,0,0.5,1
60,0.010075867,easy,mid,8,demand_aversive,demand_aversive,demand_aversive,demand_aversive,demand_avoid,1,0.010075867,0,0.5,1
60,0.005855439,easy,mid,9,demand_aversive,demand_aversive,demand_aversive,demand_aversive,demand_avoid,1,0.005855439,0,0.5,1
60,0.010359873,easy,mid,10,demand_aversive,demand_aversive,demand_aversive,demand_aversive,demand_avoid,1,0.010359873,0,0.5,1
60,0.005550754,easy,mid,11,demand_aversive,demand_aversive,demand_aversive,demand_aversive,demand_avoid,1,0.005550754,0,0.5,1
60,0.010227937,easy,mid,12,demand_aversive,demand_aversive,demand_aversive,demand_aversive,demand_avoid,1,0.010227937,0,0.5,1
60,0.00698367,easy,mid,13,demand_aversive,demand_aversive,demand_aversive,demand_aversive,demand_avoid,1,0.00698367,0,0.5,1
60,0.006859117,easy,mid,14,demand_aversive,demand_aversive,demand_aversive,demand_aversive,demand_avoid,1,0.006859117,0,0.5,1
60,0.006980528,easy,mid,15,demand_aversive,demand_aversive,demand_aversive,demand_aversive,demand_avoid,1,0.006980528,0,0.5,1
60,0.006828122,easy,mid,16,demand_aversive,demand_aversive,demand_aversive,demand_aversive,demand_avoid,1,0.006828122,0,0.5,1
60,0.011117459,easy,mid,17,demand_aversive,demand_aversive,demand_aversive,demand_aversive,demand_avoid,1,0.011117459,0,0.5,1
60,0.01058243,easy,mid,18,demand_aversive,demand_aversive,demand_aversive,demand_aversive,demand_avoid,1,0.01058243,0,0.5,1
60,0.006881946,easy,mid,19,demand_aversive,demand_aversive,demand_aversive,demand_aversive,demand_avoid,1,0.006881946,0,0.5,1
60,0.009836699,easy,mid,20,demand_aversive,demand_aversive,demand_aversive,demand_aversive,demand_avoid,1,0.009836699,0,0.5,1
60,0.005443966,easy,mid,21,demand_aversive,demand_aversive,demand_aversive,demand_aversive,demand_avoid,1,0.005443966,0,0.5,1
60,0.010343195,easy,mid,22,demand_aversive,demand_aversive,demand_aversive,demand_aversive,demand_avoid,1,0.010343195,0,0.5,1
60,0.010709408,easy,mid,23,demand_aversive,demand_aversive,demand_aversive,demand_aversive,demand_avoid,1,0.010709408,0,0.5,1
60,0.010481088,easy,mid,24,demand_aversive,demand_aversive,demand_aversive,demand_aversive,demand_avoid,1,0.010481088,0,0.5,1
60,0.005766607,easy,mid,25,demand_aversive,demand_aversive,demand_aversive,demand_aversive,demand_avoid,1,0.005766607,0,0.5,1
60,0.006743973,easy,mid,26,demand_aversive,demand_aversive,demand_aversive,demand_aversive,demand_avoid,1,0.006743973,0,0.5,1
60,0.006773566,easy,mid,27,demand_aversive,demand_aversive,demand_aversive,demand_aversive,demand_avoid,1,0.006773566,0,0.5,1
60,0.010699588,easy,mid,28,demand_aversive,demand_aversive,demand_aversive,demand_aversive,demand_avoid,1,0.010699588,0,0.5,1
60,0.010526422,easy,mid,29,demand_aversive,demand_aversive,demand_aversive,demand_aversive,demand_avoid,1,0.010526422,0,0.5,1
60,0.010384228,easy,mid,30,demand_aversive,demand_aversive,demand_aversive,demand_aversive,demand_avoid,1,0.010384228,0,0.5,1
60,0.006987051,easy,mid,31,demand_aversive,demand_aversive,demand_aversive,demand_aversive,demand_avoid,1,0.006987051,0,0.5,1
60,0.009951646,easy,mid,32,demand_aversive,demand_aversive,demand_aversive,demand_aversive,demand_avoid,1,0.009951646,0,0.5,1
60,0.010186897,easy,mid,33,demand_aversive,demand_aversive,demand_aversive,demand_aversive,demand_avoid,1,0.010186897,0,0.5,1
60,0.010396238,easy,mid,34,demand_aversive,demand_aversive,demand_aversive,demand_aversive,demand_avoid,1,0.010396238,0,0.5,1
60,0.006838181,easy,mid,35,demand_aversive,demand_aversive,demand_aversive,demand_aversive,demand_avoid,1,0.006838181,0,0.5,1
60,0.005905224,hard,mid,36,demand_aversive,demand_aversive,demand_aversive,demand_aversive,demand_avoid,0,0.005905224,0,0.5,1
60,0.009134461,hard,mid,37,demand_aversive,demand_aversive,demand_aversive,demand_aversive,demand_avoid,0,0.009134461,0,0.5,1
60,0.010516285,hard,mid,38,demand_aversive,demand_aversive,demand_aversive,demand_aversive,demand_avoid,0,0.010516285,0,0.5,1
60,0.010351361,hard,mid,39,demand_aversive,demand_aversive,demand_aversive,demand_aversive,demand_avoid,0,0.010351361,0,0.5,1
60,0.010613796,hard,mid,40,demand_aversive,demand_aversive,demand_aversive,demand_aversive,demand_avoid,0,0.010613796,0,0.5,1
60,0.009662204,hard,mid,41,demand_aversive,demand_aversive,demand_aversive,demand_aversive,demand_avoid,0,0.009662204,0,0.5,1
60,0.010754848,hard,mid,42,demand_aversive,demand_aversive,demand_aversive,demand_aversive,demand_avoid,0,0.010754848,0,0.5,1
60,0.006948754,hard,mid,43,demand_aversive,demand_aversive,demand_aversive,demand_aversive,demand_avoid,0,0.006948754,0,0.5,1
60,0.007015907,hard,mid,44,demand_aversive,demand_aversive,demand_aversive,demand_aversive,demand_avoid,0,0.007015907,0,0.5,1
60,0.011073996,easy,mid,45,demand_aversive,demand_aversive,demand_aversive,demand_aversive,demand_avoid,1,0.011073996,0,0.5,1
60,0.009806521,hard,mid,46,demand_aversive,demand_aversive,demand_aversive,demand_aversive,demand_avoid,0,0.009806521,0,0.5,1
60,0.010514081,hard,mid,47,demand_aversive,demand_aversive,demand_aversive,demand_aversive,demand_avoid,0,0.010514081,0,0.5,1
60,0.007065929,hard,mid,48,demand_aversive,demand_aversive,demand_aversive,demand_aversive,demand_avoid,0,0.007065929,0,0.5,1
60,0.006488319,easy,mid,49,demand_aversive,demand_aversive,demand_aversive,demand_aversive,demand_avoid,1,0.006488319,0,0.5,1
60,0.010331609,hard,mid,50,demand_aversive,demand_aversive,demand_aversive,demand_aversive,demand_avoid,0,0.010331609,0,0.5,1
61,0.010858773,easy,mid,1,demand_aversive,no_demand_aversive,demand_aversive,demand_aversive,demand_avoid,1,0.010858773,0,0.5,1
61,0.01104367,hard,mid,2,demand_aversive,no_demand_aversive,demand_aversive,demand_aversive,demand_avoid,0,0.01104367,0,0.5,1
61,0.005052261,easy,mid,3,demand_aversive,no_demand_aversive,demand_aversive,demand_aversive,demand_avoid,1,0.005052261,0,0.5,1
61,0.006329446,easy,mid,4,demand_aversive,no_demand_aversive,demand_aversive,demand_aversive,demand_avoid,1,0.006329446,0,0.5,1
61,0.006136218,easy,mid,5,demand_aversive,no_demand_aversive,demand_aversive,demand_aversive,demand_avoid,1,0.006136218,0,0.5,1
61,0.006789866,easy,mid,6,demand_aversive,no_demand_aversive,demand_aversive,demand_aversive,demand_avoid,1,0.006789866,0,0.5,1
61,0.010865161,easy,mid,7,demand_aversive,no_demand_aversive,demand_aversive,demand_aversive,demand_avoid,1,0.010865161,0,0.5,1
61,0.010423652,easy,mid,8,demand_aversive,no_demand_aversive,demand_aversive,demand_aversive,demand_avoid,1,0.010423652,0,0.5,1
61,0.006384666,easy,mid,9,demand_aversive,no_demand_aversive,demand_aversive,demand_aversive,demand_avoid,1,0.006384666,0,0.5,1
61,0.011382774,easy,mid,10,demand_aversive,no_demand_aversive,demand_aversive,demand_aversive,demand_avoid,1,0.011382774,0,0.5,1
61,0.010377934,easy,mid,11,demand_aversive,no_demand_aversive,demand_aversive,demand_aversive,demand_avoid,1,0.010377934,0,0.5,1
61,0.006225693,easy,mid,12,demand_aversive,no_demand_aversive,demand_aversive,demand_aversive,demand_avoid,1,0.006225693,0,0.5,1
61,0.01140145,hard,mid,13,demand_aversive,no_demand_aversive,demand_aversive,demand_aversive,demand_avoid,0,0.01140145,0,0.5,1
61,0.00637526,easy,mid,14,demand_aversive,no_demand_aversive,demand_aversive,demand_aversive,demand_avoid,1,0.00637526,0,0.5,1
61,0.006536115,easy,mid,15,demand_aversive,no_demand_aversive,demand_aversive,demand_aversive,demand_avoid,1,0.006536115,0,0.5,1
61,0.006049461,easy,mid,16,demand_aversive,no_demand_aversive,demand_aversive,demand_aversive,demand_avoid,1,0.006049461,0,0.5,1
61,0.010319906,easy,mid,17,demand_aversive,no_demand_aversive,demand_aversive,demand_aversive,demand_avoid,1,0.010319906,0,0.5,1
61,0.006427164,easy,mid,18,demand_aversive,no_demand_aversive,demand_aversive,demand_aversive,demand_avoid,1,0.006427164,0,0.5,1
61,0.009172935,easy,mid,19,demand_aversive,no_demand_aversive,demand_aversive,demand_aversive,demand_avoid,1,0.009172935,0,0.5,1
61,0.006360259,easy,mid,20,demand_aversive,no_demand_aversive,demand_aversive,demand_aversive,demand_avoid,1,0.006360259,0,0.5,1
61,0.010535513,easy,mid,21,demand_aversive,no_demand_aversive,demand_aversive,demand_aversive,demand_avoid,1,0.010535513,0,0.5,1
61,0.01103695,easy,mid,22,demand_aversive,no_demand_aversive,demand_aversive,demand_aversive,demand_avoid,1,0.01103695,0,0.5,1
61,0.010434317,easy,mid,23,demand_aversive,no_demand_aversive,demand_aversive,demand_aversive,demand_avoid,1,0.010434317,0,0.5,1
61,0.010571982,easy,mid,24,demand_aversive,no_demand_aversive,demand_aversive,demand_aversive,demand_avoid,1,0.010571982,0,0.5,1
61,0.006312656,easy,mid,25,demand_aversive,no_demand_aversive,demand_aversive,demand_aversive,demand_avoid,1,0.006312656,0,0.5,1
61,0.006234277,easy,mid,26,demand_aversive,no_demand_aversive,demand_aversive,demand_aversive,demand_avoid,1,0.006234277,0,0.5,1
61,0.009836186,easy,mid,27,demand_aversive,no_demand_aversive,demand_aversive,demand_aversive,demand_avoid,1,0.009836186,0,0.5,1
61,0.010991483,easy,mid,28,demand_aversive,no_demand_aversive,demand_aversive,demand_aversive,demand_avoid,1,0.010991483,0,0.5,1
61,0.010401147,easy,mid,29,demand_aversive,no_demand_aversive,demand_aversive,demand_aversive,demand_avoid,1,0.010401147,0,0.5,1
61,0.01089713,easy,mid,30,demand_aversive,no_demand_aversive,demand_aversive,demand_aversive,demand_avoid,1,0.01089713,0,0.5,1
61,0.010301197,easy,mid,31,demand_aversive,no_demand_aversive,demand_aversive,demand_aversive,demand_avoid,1,0.010301197,0,0.5,1
61,0.011274527,easy,mid,32,demand_aversive,no_demand_aversive,demand_aversive,demand_aversive,demand_avoid,1,0.011274527,0,0.5,1
61,0.011178353,easy,mid,33,demand_aversive,no_demand_aversive,demand_aversive,demand_aversive,demand_avoid,1,0.011178353,0,0.5,1
61,0.010532309,easy,mid,34,demand_aversive,no_demand_aversive,demand_aversive,demand_aversive,demand_avoid,1,0.010532309,0,0.5,1
61,0.006405254,easy,mid,35,demand_aversive,no_demand_aversive,demand_aversive,demand_aversive,demand_avoid,1,0.006405254,0,0.5,1
61,0.006361565,easy,mid,36,demand_aversive,no_demand_aversive,demand_aversive,demand_aversive,demand_avoid,1,0.006361565,0,0.5,1
61,0.010109487,hard,mid,37,demand_aversive,no_demand_aversive,demand_aversive,demand_aversive,demand_avoid,0,0.010109487,0,0.5,1
61,0.009917211,easy,mid,38,demand_aversive,no_demand_aversive,demand_aversive,demand_aversive,demand_avoid,1,0.009917211,0,0.5,1
61,0.005405977,easy,mid,39,demand_aversive,no_demand_aversive,demand_aversive,demand_aversive,demand_avoid,1,0.005405977,0,0.5,1
61,0.006323969,easy,mid,40,demand_aversive,no_demand_aversive,demand_aversive,demand_aversive,demand_avoid,1,0.006323969,0,0.5,1
61,0.010992943,easy,mid,41,demand_aversive,no_demand_aversive,demand_aversive,demand_aversive,demand_avoid,1,0.010992943,0,0.5,1
61,0.010371789,easy,mid,42,demand_aversive,no_demand_aversive,demand_aversive,demand_aversive,demand_avoid,1,0.010371789,0,0.5,1
61,0.010982912,easy,mid,43,demand_aversive,no_demand_aversive,demand_aversive,demand_aversive,demand_avoid,1,0.010982912,0,0.5,1
61,0.005285297,easy,mid,44,demand_aversive,no_demand_aversive,demand_aversive,demand_aversive,demand_avoid,1,0.005285297,0,0.5,1
61,0.011285118,easy,mid,45,demand_aversive,no_demand_aversive,demand_aversive,demand_aversive,demand_avoid,1,0.011285118,0,0.5,1
61,0.00632004,easy,mid,46,demand_aversive,no_demand_aversive,demand_aversive,demand_aversive,demand_avoid,1,0.00632004,0,0.5,1
61,0.009547147,easy,mid,47,demand_aversive,no_demand_aversive,demand_aversive,demand_aversive,demand_avoid,1,0.009547147,0,0.5,1
61,0.010885499,easy,mid,48,demand_aversive,no_demand_aversive,demand_aversive,demand_aversive,demand_avoid,1,0.010885499,0,0.5,1
61,0.006349287,easy,mid,49,demand_aversive,no_demand_aversive,demand_aversive,demand_aversive,demand_avoid,1,0.006349287,0,0.5,1
61,0.010279297,easy,mid,50,demand_aversive,no_demand_aversive,demand_aversive,demand_aversive,demand_avoid,1,0.010279297,0,0.5,1
63,0.006835698,easy,mid,1,no_demand_aversive,no_demand_aversive,no_demand_aversive,demand_aversive,demand_avoid,1,0.006835698,0,0.5,0.5
63,0.010517151,hard,mid,2,no_demand_aversive,no_demand_aversive,no_demand_aversive,demand_aversive,demand_avoid,0,0.010517151,0,0.5,0.5
63,0.012561754,easy,mid,3,no_demand_aversive,no_demand_aversive,no_demand_aversive,demand_aversive,demand_avoid,1,0.012561754,0,0.5,0.5
63,0.009380079,easy,mid,4,no_demand_aversive,no_demand_aversive,no_demand_aversive,demand_aversive,demand_avoid,1,0.009380079,0,0.5,0.5
63,0.006908481,hard,mid,5,no_demand_aversive,no_demand_aversive,no_demand_aversive,demand_aversive,demand_avoid,0,0.006908481,0,0.5,0.5
63,0.009968255,hard,mid,6,no_demand_aversive,no_demand_aversive,no_demand_aversive,demand_aversive,demand_avoid,0,0.009968255,0,0.5,0.5
63,0.005858101,easy,mid,7,no_demand_aversive,no_demand_aversive,no_demand_aversive,demand_aversive,demand_avoid,1,0.005858101,0,0.5,0.5
63,0.010335868,hard,mid,8,no_demand_aversive,no_demand_aversive,no_demand_aversive,demand_aversive,demand_avoid,0,0.010335868,0,0.5,0.5
63,0.010325925,hard,mid,9,no_demand_aversive,no_demand_aversive,no_demand_aversive,demand_aversive,demand_avoid,0,0.010325925,0,0.5,0.5
63,0.009798985,hard,mid,10,no_demand_aversive,no_demand_aversive,no_demand_aversive,demand_aversive,demand_avoid,0,0.009798985,0,0.5,0.5
63,0.010422038,hard,mid,11,no_demand_aversive,no_demand_aversive,no_demand_aversive,demand_aversive,demand_avoid,0,0.010422038,0,0.5,0.5
63,0.005203657,hard,mid,12,no_demand_aversive,no_demand_aversive,no_demand_aversive,demand_aversive,demand_avoid,0,0.005203657,0,0.5,0.5
63,0.010689838,hard,mid,13,no_demand_aversive,no_demand_aversive,no_demand_aversive,demand_aversive,demand_avoid,0,0.010689838,0,0.5,0.5
63,0.010308698,hard,mid,14,no_demand_aversive,no_demand_aversive,no_demand_aversive,demand_aversive,demand_avoid,0,0.010308698,0,0.5,0.5
63,0.00665684,hard,mid,15,no_demand_aversive,no_demand_aversive,no_demand_aversive,demand_aversive,demand_avoid,0,0.00665684,0,0.5,0.5
63,0.010332034,easy,mid,16,no_demand_aversive,no_demand_aversive,no_demand_aversive,demand_aversive,demand_avoid,1,0.010332034,0,0.5,0.5
63,0.010473433,easy,mid,17,no_demand_aversive,no_demand_aversive,no_demand_aversive,demand_aversive,demand_avoid,1,0.010473433,0,0.5,0.5
63,0.010561508,hard,mid,18,no_demand_aversive,no_demand_aversive,no_demand_aversive,demand_aversive,demand_avoid,0,0.010561508,0,0.5,0.5
63,0.01035896,hard,mid,19,no_demand_aversive,no_demand_aversive,no_demand_aversive,demand_aversive,demand_avoid,0,0.01035896,0,0.5,0.5
63,0.010441804,hard,mid,20,no_demand_aversive,no_demand_aversive,no_demand_aversive,demand_aversive,demand_avoid,0,0.010441804,0,0.5,0.5
63,0.006022706,easy,mid,21,no_demand_aversive,no_demand_aversive,no_demand_aversive,demand_aversive,demand_avoid,1,0.006022706,0,0.5,0.5
63,0.010571701,hard,mid,22,no_demand_aversive,no_demand_aversive,no_demand_aversive,demand_aversive,demand_avoid,0,0.010571701,0,0.5,0.5
63,0.006022055,hard,mid,23,no_demand_aversive,no_demand_aversive,no_demand_aversive,demand_aversive,demand_avoid,0,0.006022055,0,0.5,0.5
63,0.005913436,hard,mid,24,no_demand_aversive,no_demand_aversive,no_demand_aversive,demand_aversive,demand_avoid,0,0.005913436,0,0.5,0.5
63,0.006965457,easy,mid,25,no_demand_aversive,no_demand_aversive,no_demand_aversive,demand_aversive,demand_avoid,1,0.006965457,0,0.5,0.5
63,0.010411651,hard,mid,26,no_demand_aversive,no_demand_aversive,no_demand_aversive,demand_aversive,demand_avoid,0,0.010411651,0,0.5,0.5
63,0.010625091,hard,mid,27,no_demand_aversive,no_demand_aversive,no_demand_aversive,demand_aversive,demand_avoid,0,0.010625091,0,0.5,0.5
63,0.006536258,hard,mid,28,no_demand_aversive,no_demand_aversive,no_demand_aversive,demand_aversive,demand_avoid,0,0.006536258,0,0.5,0.5
63,0.01059228,hard,mid,29,no_demand_aversive,no_demand_aversive,no_demand_aversive,demand_aversive,demand_avoid,0,0.01059228,0,0.5,0.5
63,0.010314051,hard,mid,30,no_demand_aversive,no_demand_aversive,no_demand_aversive,demand_aversive,demand_avoid,0,0.010314051,0,0.5,0.5
63,0.010407083,easy,mid,31,no_demand_aversive,no_demand_aversive,no_demand_aversive,demand_aversive,demand_avoid,1,0.010407083,0,0.5,0.5
